workerId,hitId,assignmentId,subject,studyid,exp_date,exp_start,exp_end,time_start,time_end,trial,type,reward_validity,answer,image_top,image_left,image_right,response,response_time,response_acc,volatility,practice
ByKJO7UY,3m67tqbqrk18ut4e0bwuqf8vno09av,30bxrybrp8a03wnuqulga5z2cajhwx,ByKJO7UY,2020-0188,2020-11-20,17:17:29,17:38:58,NA,incomplete,0,shape,0,left,Green_Star_Stripes_3.jpg,Blue_Star_Grid_4.jpg,Purple_Circle_Stripes_1.jpg,left,1213.120000087656,true,NA,true
ByKJO7UY,3m67tqbqrk18ut4e0bwuqf8vno09av,30bxrybrp8a03wnuqulga5z2cajhwx,ByKJO7UY,2020-0188,2020-11-20,17:17:29,17:38:58,NA,incomplete,1,shape,1,right,Green_Circle_Chess_3.jpg,Purple_Star_Chess_4.jpg,Blue_Circle_Grid_1.jpg,none,0,false,NA,true
ByKJO7UY,3m67tqbqrk18ut4e0bwuqf8vno09av,30bxrybrp8a03wnuqulga5z2cajhwx,ByKJO7UY,2020-0188,2020-11-20,17:17:29,17:38:58,NA,incomplete,2,shape,1,left,Blue_Circle_Chess_3.jpg,Purple_Circle_Dots_2.jpg,Red_Star_Chess_4.jpg,left,1931.3850000035018,true,NA,true
ByKJO7UY,3m67tqbqrk18ut4e0bwuqf8vno09av,30bxrybrp8a03wnuqulga5z2cajhwx,ByKJO7UY,2020-0188,2020-11-20,17:17:29,17:38:58,NA,incomplete,3,shape,1,right,Green_Star_Dots_2.jpg,Red_Circle_Dots_4.jpg,Purple_Star_Stripes_3.jpg,right,890.4950000578538,true,NA,true
ByKJO7UY,3m67tqbqrk18ut4e0bwuqf8vno09av,30bxrybrp8a03wnuqulga5z2cajhwx,ByKJO7UY,2020-0188,2020-11-20,17:17:29,17:38:58,NA,incomplete,4,shape,0,right,Green_Plus_Dots_2.jpg,Purple_Circle_Dots_1.jpg,Blue_Plus_Stripes_4.jpg,right,1174.8199999565259,true,NA,true
ByKJO7UY,3m67tqbqrk18ut4e0bwuqf8vno09av,30bxrybrp8a03wnuqulga5z2cajhwx,ByKJO7UY,2020-0188,2020-11-20,17:17:29,17:38:58,NA,incomplete,5,shape,1,left,Blue_Star_Stripes_3.jpg,Green_Star_Chess_4.jpg,Red_Circle_Stripes_2.jpg,left,1625.8099999977276,true,NA,true
ByKJO7UY,3m67tqbqrk18ut4e0bwuqf8vno09av,30bxrybrp8a03wnuqulga5z2cajhwx,ByKJO7UY,2020-0188,2020-11-20,17:17:29,17:38:58,NA,incomplete,6,shape,1,right,Blue_Star_Grid_2.jpg,Red_Plus_Grid_4.jpg,Green_Star_Stripes_1.jpg,right,1029.3049999745563,true,NA,true
ByKJO7UY,3m67tqbqrk18ut4e0bwuqf8vno09av,30bxrybrp8a03wnuqulga5z2cajhwx,ByKJO7UY,2020-0188,2020-11-20,17:17:29,17:38:58,NA,incomplete,7,shape,1,left,Red_Triangle_Stripes_1.jpg,Blue_Triangle_Grid_2.jpg,Green_Plus_Stripes_3.jpg,left,888.4100000141189,true,NA,true
ByKJO7UY,3m67tqbqrk18ut4e0bwuqf8vno09av,30bxrybrp8a03wnuqulga5z2cajhwx,ByKJO7UY,2020-0188,2020-11-20,17:17:29,17:38:58,NA,incomplete,8,shape,1,right,Red_Circle_Chess_1.jpg,Purple_Star_Chess_4.jpg,Green_Circle_Grid_3.jpg,right,841.4150000317022,true,NA,true
ByKJO7UY,3m67tqbqrk18ut4e0bwuqf8vno09av,30bxrybrp8a03wnuqulga5z2cajhwx,ByKJO7UY,2020-0188,2020-11-20,17:17:29,17:38:58,NA,incomplete,9,shape,1,left,Blue_Star_Stripes_1.jpg,Red_Star_Dots_4.jpg,Purple_Plus_Stripes_3.jpg,left,806.2500000232831,true,NA,true
ByKJO7UY,3m67tqbqrk18ut4e0bwuqf8vno09av,30bxrybrp8a03wnuqulga5z2cajhwx,ByKJO7UY,2020-0188,2020-11-20,17:17:29,17:38:58,NA,incomplete,10,shape,0,left,Red_Star_Chess_1.jpg,Purple_Star_Stripes_2.jpg,Blue_Plus_Chess_3.jpg,left,964.8499999893829,true,NA,true
ByKJO7UY,3m67tqbqrk18ut4e0bwuqf8vno09av,30bxrybrp8a03wnuqulga5z2cajhwx,ByKJO7UY,2020-0188,2020-11-20,17:17:29,17:38:58,NA,incomplete,11,shape,1,left,Green_Circle_Grid_3.jpg,Red_Circle_Chess_4.jpg,Purple_Plus_Grid_1.jpg,left,936.6600000066683,true,NA,true
ByKJO7UY,3m67tqbqrk18ut4e0bwuqf8vno09av,30bxrybrp8a03wnuqulga5z2cajhwx,ByKJO7UY,2020-0188,2020-11-20,17:17:29,17:38:58,NA,incomplete,12,shape,1,right,Purple_Plus_Grid_4.jpg,Green_Circle_Grid_3.jpg,Blue_Plus_Stripes_2.jpg,right,988.0999999586493,true,NA,true
ByKJO7UY,3m67tqbqrk18ut4e0bwuqf8vno09av,30bxrybrp8a03wnuqulga5z2cajhwx,ByKJO7UY,2020-0188,2020-11-20,17:17:29,17:38:58,NA,incomplete,13,shape,1,right,Green_Circle_Stripes_4.jpg,Blue_Triangle_Stripes_1.jpg,Red_Circle_Dots_3.jpg,right,893.9450000179932,true,NA,true
ByKJO7UY,3m67tqbqrk18ut4e0bwuqf8vno09av,30bxrybrp8a03wnuqulga5z2cajhwx,ByKJO7UY,2020-0188,2020-11-20,17:17:29,17:38:58,NA,incomplete,14,shape,1,left,Blue_Star_Stripes_4.jpg,Red_Star_Grid_3.jpg,Purple_Triangle_Stripes_2.jpg,left,835.2249999297783,true,NA,true
ByKJO7UY,3m67tqbqrk18ut4e0bwuqf8vno09av,30bxrybrp8a03wnuqulga5z2cajhwx,ByKJO7UY,2020-0188,2020-11-20,17:17:29,17:38:58,NA,incomplete,15,shape,1,right,Purple_Plus_Grid_2.jpg,Blue_Star_Grid_3.jpg,Green_Plus_Dots_4.jpg,left,952.7750000124797,false,NA,true
ByKJO7UY,3m67tqbqrk18ut4e0bwuqf8vno09av,30bxrybrp8a03wnuqulga5z2cajhwx,ByKJO7UY,2020-0188,2020-11-20,17:17:29,17:38:58,NA,incomplete,16,shape,0,right,Green_Circle_Stripes_1.jpg,Red_Plus_Stripes_4.jpg,Blue_Circle_Chess_2.jpg,right,890.1449999539182,true,NA,true
ByKJO7UY,3m67tqbqrk18ut4e0bwuqf8vno09av,30bxrybrp8a03wnuqulga5z2cajhwx,ByKJO7UY,2020-0188,2020-11-20,17:17:29,17:38:58,NA,incomplete,17,shape,1,left,Blue_Plus_Stripes_2.jpg,Green_Plus_Grid_4.jpg,Red_Star_Stripes_3.jpg,left,886.8950000032783,true,NA,true
ByKJO7UY,3m67tqbqrk18ut4e0bwuqf8vno09av,30bxrybrp8a03wnuqulga5z2cajhwx,ByKJO7UY,2020-0188,2020-11-20,17:17:29,17:38:58,NA,incomplete,18,shape,1,left,Red_Triangle_Grid_4.jpg,Green_Triangle_Chess_1.jpg,Blue_Circle_Grid_2.jpg,left,929.1999998968095,true,NA,true
ByKJO7UY,3m67tqbqrk18ut4e0bwuqf8vno09av,30bxrybrp8a03wnuqulga5z2cajhwx,ByKJO7UY,2020-0188,2020-11-20,17:17:29,17:38:58,NA,incomplete,19,shape,1,left,Green_Star_Stripes_2.jpg,Red_Star_Grid_1.jpg,Blue_Triangle_Stripes_4.jpg,left,811.3349999766797,true,NA,true
ByKJO7UY,3m67tqbqrk18ut4e0bwuqf8vno09av,30bxrybrp8a03wnuqulga5z2cajhwx,ByKJO7UY,2020-0188,2020-11-20,17:17:29,17:38:58,NA,incomplete,20,filling,1,left,Red_Triangle_Chess_3.jpg,Blue_Plus_Chess_1.jpg,Purple_Triangle_Stripes_2.jpg,left,1276.160000008531,true,NA,true
ByKJO7UY,3m67tqbqrk18ut4e0bwuqf8vno09av,30bxrybrp8a03wnuqulga5z2cajhwx,ByKJO7UY,2020-0188,2020-11-20,17:17:29,17:38:58,NA,incomplete,21,filling,1,left,Green_Circle_Stripes_3.jpg,Blue_Triangle_Stripes_4.jpg,Purple_Circle_Dots_1.jpg,left,830.4550000466406,true,NA,true
ByKJO7UY,3m67tqbqrk18ut4e0bwuqf8vno09av,30bxrybrp8a03wnuqulga5z2cajhwx,ByKJO7UY,2020-0188,2020-11-20,17:17:29,17:38:58,NA,incomplete,22,filling,0,right,Blue_Star_Dots_1.jpg,Green_Star_Grid_3.jpg,Purple_Triangle_Dots_4.jpg,right,1580.9750000480562,true,NA,true
ByKJO7UY,3m67tqbqrk18ut4e0bwuqf8vno09av,30bxrybrp8a03wnuqulga5z2cajhwx,ByKJO7UY,2020-0188,2020-11-20,17:17:29,17:38:58,NA,incomplete,23,filling,1,left,Blue_Plus_Chess_2.jpg,Green_Triangle_Chess_3.jpg,Purple_Plus_Stripes_1.jpg,left,1288.7099999934435,true,NA,true
ByKJO7UY,3m67tqbqrk18ut4e0bwuqf8vno09av,30bxrybrp8a03wnuqulga5z2cajhwx,ByKJO7UY,2020-0188,2020-11-20,17:17:29,17:38:58,NA,incomplete,24,filling,1,left,Red_Triangle_Grid_1.jpg,Purple_Circle_Grid_2.jpg,Blue_Triangle_Chess_3.jpg,left,1067.6299999468029,true,NA,true
ByKJO7UY,3m67tqbqrk18ut4e0bwuqf8vno09av,30bxrybrp8a03wnuqulga5z2cajhwx,ByKJO7UY,2020-0188,2020-11-20,17:17:29,17:38:58,NA,incomplete,25,filling,0,right,Red_Plus_Dots_1.jpg,Green_Plus_Stripes_3.jpg,Purple_Star_Dots_4.jpg,right,1047.7050000336021,true,NA,true
ByKJO7UY,3m67tqbqrk18ut4e0bwuqf8vno09av,30bxrybrp8a03wnuqulga5z2cajhwx,ByKJO7UY,2020-0188,2020-11-20,17:17:29,17:38:58,NA,incomplete,26,filling,1,right,Purple_Circle_Stripes_4.jpg,Blue_Circle_Grid_2.jpg,Green_Plus_Stripes_1.jpg,left,1113.6699999915436,false,NA,true
ByKJO7UY,3m67tqbqrk18ut4e0bwuqf8vno09av,30bxrybrp8a03wnuqulga5z2cajhwx,ByKJO7UY,2020-0188,2020-11-20,17:17:29,17:38:58,NA,incomplete,27,filling,1,right,Purple_Star_Chess_3.jpg,Green_Star_Stripes_4.jpg,Blue_Circle_Chess_2.jpg,right,1131.3650000374764,true,NA,true
ByKJO7UY,3m67tqbqrk18ut4e0bwuqf8vno09av,30bxrybrp8a03wnuqulga5z2cajhwx,ByKJO7UY,2020-0188,2020-11-20,17:17:29,17:38:58,NA,incomplete,28,filling,1,left,Purple_Plus_Grid_4.jpg,Blue_Circle_Grid_2.jpg,Red_Plus_Dots_3.jpg,left,1277.7550000464544,true,NA,true
ByKJO7UY,3m67tqbqrk18ut4e0bwuqf8vno09av,30bxrybrp8a03wnuqulga5z2cajhwx,ByKJO7UY,2020-0188,2020-11-20,17:17:29,17:38:58,NA,incomplete,29,filling,1,right,Purple_Triangle_Dots_2.jpg,Red_Triangle_Chess_1.jpg,Green_Star_Dots_3.jpg,right,1103.8800000678748,true,NA,true
ByKJO7UY,3m67tqbqrk18ut4e0bwuqf8vno09av,30bxrybrp8a03wnuqulga5z2cajhwx,ByKJO7UY,2020-0188,2020-11-20,17:17:29,17:38:58,NA,incomplete,30,filling,1,right,Green_Circle_Chess_4.jpg,Red_Circle_Grid_3.jpg,Blue_Triangle_Chess_2.jpg,right,1066.8499999446794,true,NA,true
ByKJO7UY,3m67tqbqrk18ut4e0bwuqf8vno09av,30bxrybrp8a03wnuqulga5z2cajhwx,ByKJO7UY,2020-0188,2020-11-20,17:17:29,17:38:58,NA,incomplete,31,filling,1,right,Red_Star_Dots_4.jpg,Green_Star_Grid_2.jpg,Blue_Circle_Dots_1.jpg,right,1398.2750000432134,true,NA,true
ByKJO7UY,3m67tqbqrk18ut4e0bwuqf8vno09av,30bxrybrp8a03wnuqulga5z2cajhwx,ByKJO7UY,2020-0188,2020-11-20,17:17:29,17:38:58,NA,incomplete,32,filling,1,left,Green_Plus_Chess_3.jpg,Purple_Circle_Chess_2.jpg,Red_Plus_Stripes_1.jpg,left,1152.6550000999123,true,NA,true
ByKJO7UY,3m67tqbqrk18ut4e0bwuqf8vno09av,30bxrybrp8a03wnuqulga5z2cajhwx,ByKJO7UY,2020-0188,2020-11-20,17:17:29,17:38:58,NA,incomplete,33,filling,1,right,Green_Triangle_Chess_3.jpg,Purple_Triangle_Dots_4.jpg,Blue_Plus_Chess_1.jpg,right,923.4050000086427,true,NA,true
ByKJO7UY,3m67tqbqrk18ut4e0bwuqf8vno09av,30bxrybrp8a03wnuqulga5z2cajhwx,ByKJO7UY,2020-0188,2020-11-20,17:17:29,17:38:58,NA,incomplete,34,filling,1,left,Purple_Plus_Stripes_1.jpg,Red_Star_Stripes_3.jpg,Blue_Plus_Chess_2.jpg,left,1024.8349999310449,true,NA,true
ByKJO7UY,3m67tqbqrk18ut4e0bwuqf8vno09av,30bxrybrp8a03wnuqulga5z2cajhwx,ByKJO7UY,2020-0188,2020-11-20,17:17:29,17:38:58,NA,incomplete,35,filling,1,left,Blue_Circle_Grid_3.jpg,Red_Star_Grid_1.jpg,Green_Circle_Dots_2.jpg,left,1102.8950000181794,true,NA,true
ByKJO7UY,3m67tqbqrk18ut4e0bwuqf8vno09av,30bxrybrp8a03wnuqulga5z2cajhwx,ByKJO7UY,2020-0188,2020-11-20,17:17:29,17:38:58,NA,incomplete,36,filling,1,left,Purple_Star_Dots_3.jpg,Green_Circle_Dots_2.jpg,Blue_Star_Stripes_4.jpg,left,1022.5199999986216,true,NA,true
ByKJO7UY,3m67tqbqrk18ut4e0bwuqf8vno09av,30bxrybrp8a03wnuqulga5z2cajhwx,ByKJO7UY,2020-0188,2020-11-20,17:17:29,17:38:58,NA,incomplete,37,filling,1,left,Red_Triangle_Dots_3.jpg,Purple_Star_Dots_1.jpg,Blue_Triangle_Stripes_2.jpg,right,869.550000061281,false,NA,true
ByKJO7UY,3m67tqbqrk18ut4e0bwuqf8vno09av,30bxrybrp8a03wnuqulga5z2cajhwx,ByKJO7UY,2020-0188,2020-11-20,17:17:29,17:38:58,NA,incomplete,38,filling,0,right,Purple_Star_Grid_1.jpg,Red_Star_Dots_3.jpg,Green_Circle_Grid_4.jpg,right,1145.5349999014288,true,NA,true
ByKJO7UY,3m67tqbqrk18ut4e0bwuqf8vno09av,30bxrybrp8a03wnuqulga5z2cajhwx,ByKJO7UY,2020-0188,2020-11-20,17:17:29,17:38:58,NA,incomplete,39,filling,0,left,Purple_Triangle_Chess_4.jpg,Red_Plus_Chess_1.jpg,Blue_Triangle_Grid_3.jpg,left,1040.4349999735132,true,NA,true
ByKJO7UY,3m67tqbqrk18ut4e0bwuqf8vno09av,30bxrybrp8a03wnuqulga5z2cajhwx,ByKJO7UY,2020-0188,2020-11-20,17:17:29,17:38:58,NA,incomplete,0,shape,1,right,Red_Plus_Chess_2.jpg,Blue_Triangle_Chess_4.jpg,Purple_Plus_Grid_1.jpg,right,983.6300000315532,true,low,false
ByKJO7UY,3m67tqbqrk18ut4e0bwuqf8vno09av,30bxrybrp8a03wnuqulga5z2cajhwx,ByKJO7UY,2020-0188,2020-11-20,17:17:29,17:38:58,NA,incomplete,1,shape,1,left,Red_Circle_Dots_1.jpg,Blue_Circle_Grid_2.jpg,Green_Plus_Dots_4.jpg,left,1005.3950001019984,true,low,false
ByKJO7UY,3m67tqbqrk18ut4e0bwuqf8vno09av,30bxrybrp8a03wnuqulga5z2cajhwx,ByKJO7UY,2020-0188,2020-11-20,17:17:29,17:38:58,NA,incomplete,2,shape,0,right,Purple_Triangle_Grid_3.jpg,Green_Plus_Grid_4.jpg,Blue_Triangle_Chess_2.jpg,right,703.6799999186769,true,low,false
ByKJO7UY,3m67tqbqrk18ut4e0bwuqf8vno09av,30bxrybrp8a03wnuqulga5z2cajhwx,ByKJO7UY,2020-0188,2020-11-20,17:17:29,17:38:58,NA,incomplete,3,shape,0,right,Green_Triangle_Stripes_1.jpg,Red_Star_Stripes_4.jpg,Purple_Triangle_Dots_3.jpg,left,1294.9099999386817,false,low,false
ByKJO7UY,3m67tqbqrk18ut4e0bwuqf8vno09av,30bxrybrp8a03wnuqulga5z2cajhwx,ByKJO7UY,2020-0188,2020-11-20,17:17:29,17:38:58,NA,incomplete,4,shape,1,right,Red_Triangle_Dots_3.jpg,Purple_Star_Dots_2.jpg,Blue_Triangle_Chess_4.jpg,left,990.0799999013543,false,low,false
ByKJO7UY,3m67tqbqrk18ut4e0bwuqf8vno09av,30bxrybrp8a03wnuqulga5z2cajhwx,ByKJO7UY,2020-0188,2020-11-20,17:17:29,17:38:58,NA,incomplete,5,shape,1,right,Red_Circle_Grid_2.jpg,Blue_Plus_Grid_1.jpg,Green_Circle_Stripes_4.jpg,right,1218.4250000864267,true,low,false
ByKJO7UY,3m67tqbqrk18ut4e0bwuqf8vno09av,30bxrybrp8a03wnuqulga5z2cajhwx,ByKJO7UY,2020-0188,2020-11-20,17:17:29,17:38:58,NA,incomplete,6,shape,1,left,Green_Circle_Dots_3.jpg,Purple_Circle_Stripes_2.jpg,Red_Plus_Dots_1.jpg,left,807.53500002902,true,low,false
ByKJO7UY,3m67tqbqrk18ut4e0bwuqf8vno09av,30bxrybrp8a03wnuqulga5z2cajhwx,ByKJO7UY,2020-0188,2020-11-20,17:17:29,17:38:58,NA,incomplete,7,shape,1,right,Red_Plus_Dots_4.jpg,Purple_Star_Dots_1.jpg,Blue_Plus_Stripes_3.jpg,right,978.4300000173971,true,low,false
ByKJO7UY,3m67tqbqrk18ut4e0bwuqf8vno09av,30bxrybrp8a03wnuqulga5z2cajhwx,ByKJO7UY,2020-0188,2020-11-20,17:17:29,17:38:58,NA,incomplete,8,shape,1,left,Blue_Triangle_Dots_3.jpg,Red_Triangle_Chess_1.jpg,Green_Circle_Dots_2.jpg,left,729.3399999616668,true,low,false
ByKJO7UY,3m67tqbqrk18ut4e0bwuqf8vno09av,30bxrybrp8a03wnuqulga5z2cajhwx,ByKJO7UY,2020-0188,2020-11-20,17:17:29,17:38:58,NA,incomplete,9,shape,0,left,Purple_Plus_Stripes_1.jpg,Blue_Plus_Chess_2.jpg,Green_Circle_Stripes_3.jpg,left,670.1899999752641,true,low,false
ByKJO7UY,3m67tqbqrk18ut4e0bwuqf8vno09av,30bxrybrp8a03wnuqulga5z2cajhwx,ByKJO7UY,2020-0188,2020-11-20,17:17:29,17:38:58,NA,incomplete,10,shape,1,left,Blue_Triangle_Grid_4.jpg,Red_Triangle_Stripes_1.jpg,Purple_Circle_Grid_3.jpg,left,882.370000006631,true,low,false
ByKJO7UY,3m67tqbqrk18ut4e0bwuqf8vno09av,30bxrybrp8a03wnuqulga5z2cajhwx,ByKJO7UY,2020-0188,2020-11-20,17:17:29,17:38:58,NA,incomplete,11,shape,1,left,Green_Triangle_Grid_1.jpg,Purple_Triangle_Dots_4.jpg,Blue_Plus_Grid_3.jpg,left,748.5650000162423,true,low,false
ByKJO7UY,3m67tqbqrk18ut4e0bwuqf8vno09av,30bxrybrp8a03wnuqulga5z2cajhwx,ByKJO7UY,2020-0188,2020-11-20,17:17:29,17:38:58,NA,incomplete,12,shape,1,left,Green_Circle_Chess_3.jpg,Blue_Circle_Grid_1.jpg,Purple_Triangle_Chess_2.jpg,left,652.8049999615178,true,low,false
ByKJO7UY,3m67tqbqrk18ut4e0bwuqf8vno09av,30bxrybrp8a03wnuqulga5z2cajhwx,ByKJO7UY,2020-0188,2020-11-20,17:17:29,17:38:58,NA,incomplete,13,shape,1,left,Blue_Star_Chess_3.jpg,Green_Star_Dots_4.jpg,Red_Plus_Chess_1.jpg,left,645.0650000479072,true,low,false
ByKJO7UY,3m67tqbqrk18ut4e0bwuqf8vno09av,30bxrybrp8a03wnuqulga5z2cajhwx,ByKJO7UY,2020-0188,2020-11-20,17:17:29,17:38:58,NA,incomplete,14,shape,1,left,Red_Star_Grid_4.jpg,Blue_Star_Chess_2.jpg,Green_Circle_Grid_3.jpg,left,564.5399999339134,true,low,false
ByKJO7UY,3m67tqbqrk18ut4e0bwuqf8vno09av,30bxrybrp8a03wnuqulga5z2cajhwx,ByKJO7UY,2020-0188,2020-11-20,17:17:29,17:38:58,NA,incomplete,15,shape,1,left,Green_Triangle_Stripes_1.jpg,Blue_Triangle_Chess_3.jpg,Red_Circle_Stripes_2.jpg,left,595.160000026226,true,low,false
ByKJO7UY,3m67tqbqrk18ut4e0bwuqf8vno09av,30bxrybrp8a03wnuqulga5z2cajhwx,ByKJO7UY,2020-0188,2020-11-20,17:17:29,17:38:58,NA,incomplete,16,shape,1,left,Blue_Circle_Dots_1.jpg,Purple_Circle_Grid_3.jpg,Green_Star_Dots_2.jpg,left,578.6500000394881,true,low,false
ByKJO7UY,3m67tqbqrk18ut4e0bwuqf8vno09av,30bxrybrp8a03wnuqulga5z2cajhwx,ByKJO7UY,2020-0188,2020-11-20,17:17:29,17:38:58,NA,incomplete,17,shape,0,left,Green_Star_Chess_4.jpg,Purple_Star_Dots_1.jpg,Red_Triangle_Chess_3.jpg,right,506.02500000968575,false,low,false
ByKJO7UY,3m67tqbqrk18ut4e0bwuqf8vno09av,30bxrybrp8a03wnuqulga5z2cajhwx,ByKJO7UY,2020-0188,2020-11-20,17:17:29,17:38:58,NA,incomplete,18,shape,1,left,Purple_Plus_Stripes_3.jpg,Green_Plus_Chess_2.jpg,Red_Circle_Stripes_1.jpg,left,718.2699999539182,true,low,false
ByKJO7UY,3m67tqbqrk18ut4e0bwuqf8vno09av,30bxrybrp8a03wnuqulga5z2cajhwx,ByKJO7UY,2020-0188,2020-11-20,17:17:29,17:38:58,NA,incomplete,19,shape,0,left,Purple_Star_Chess_1.jpg,Blue_Star_Grid_2.jpg,Green_Triangle_Chess_3.jpg,left,869.4000000832602,true,low,false
ByKJO7UY,3m67tqbqrk18ut4e0bwuqf8vno09av,30bxrybrp8a03wnuqulga5z2cajhwx,ByKJO7UY,2020-0188,2020-11-20,17:17:29,17:38:58,NA,incomplete,20,shape,1,left,Blue_Star_Stripes_4.jpg,Green_Star_Dots_2.jpg,Purple_Triangle_Stripes_1.jpg,right,889.0649999957532,false,low,false
ByKJO7UY,3m67tqbqrk18ut4e0bwuqf8vno09av,30bxrybrp8a03wnuqulga5z2cajhwx,ByKJO7UY,2020-0188,2020-11-20,17:17:29,17:38:58,NA,incomplete,21,shape,0,right,Red_Plus_Chess_3.jpg,Blue_Star_Chess_2.jpg,Green_Plus_Stripes_1.jpg,right,880.5100000463426,true,low,false
ByKJO7UY,3m67tqbqrk18ut4e0bwuqf8vno09av,30bxrybrp8a03wnuqulga5z2cajhwx,ByKJO7UY,2020-0188,2020-11-20,17:17:29,17:38:58,NA,incomplete,22,shape,1,left,Red_Star_Grid_2.jpg,Green_Star_Dots_1.jpg,Purple_Triangle_Grid_4.jpg,right,904.9799999920651,false,low,false
ByKJO7UY,3m67tqbqrk18ut4e0bwuqf8vno09av,30bxrybrp8a03wnuqulga5z2cajhwx,ByKJO7UY,2020-0188,2020-11-20,17:17:29,17:38:58,NA,incomplete,23,shape,1,left,Purple_Circle_Dots_2.jpg,Green_Circle_Stripes_1.jpg,Blue_Plus_Dots_3.jpg,left,862.0649999938905,true,low,false
ByKJO7UY,3m67tqbqrk18ut4e0bwuqf8vno09av,30bxrybrp8a03wnuqulga5z2cajhwx,ByKJO7UY,2020-0188,2020-11-20,17:17:29,17:38:58,NA,incomplete,24,shape,0,left,Blue_Triangle_Dots_4.jpg,Green_Triangle_Stripes_3.jpg,Purple_Plus_Dots_2.jpg,left,553.249999997206,true,low,false
ByKJO7UY,3m67tqbqrk18ut4e0bwuqf8vno09av,30bxrybrp8a03wnuqulga5z2cajhwx,ByKJO7UY,2020-0188,2020-11-20,17:17:29,17:38:58,NA,incomplete,25,shape,1,left,Purple_Triangle_Dots_3.jpg,Blue_Triangle_Chess_1.jpg,Red_Plus_Dots_4.jpg,left,690.5249999836087,true,low,false
ByKJO7UY,3m67tqbqrk18ut4e0bwuqf8vno09av,30bxrybrp8a03wnuqulga5z2cajhwx,ByKJO7UY,2020-0188,2020-11-20,17:17:29,17:38:58,NA,incomplete,26,shape,1,right,Green_Circle_Chess_2.jpg,Red_Triangle_Chess_4.jpg,Purple_Circle_Grid_3.jpg,right,569.7299999883398,true,low,false
ByKJO7UY,3m67tqbqrk18ut4e0bwuqf8vno09av,30bxrybrp8a03wnuqulga5z2cajhwx,ByKJO7UY,2020-0188,2020-11-20,17:17:29,17:38:58,NA,incomplete,27,shape,0,left,Green_Star_Dots_3.jpg,Purple_Star_Chess_2.jpg,Red_Circle_Dots_1.jpg,left,592.9700001142919,true,low,false
ByKJO7UY,3m67tqbqrk18ut4e0bwuqf8vno09av,30bxrybrp8a03wnuqulga5z2cajhwx,ByKJO7UY,2020-0188,2020-11-20,17:17:29,17:38:58,NA,incomplete,28,shape,1,left,Red_Circle_Chess_2.jpg,Blue_Circle_Grid_4.jpg,Green_Star_Chess_1.jpg,left,477.67000005114824,true,low,false
ByKJO7UY,3m67tqbqrk18ut4e0bwuqf8vno09av,30bxrybrp8a03wnuqulga5z2cajhwx,ByKJO7UY,2020-0188,2020-11-20,17:17:29,17:38:58,NA,incomplete,29,shape,1,right,Purple_Circle_Grid_2.jpg,Red_Triangle_Grid_1.jpg,Blue_Circle_Dots_3.jpg,right,546.4350000256673,true,low,false
ByKJO7UY,3m67tqbqrk18ut4e0bwuqf8vno09av,30bxrybrp8a03wnuqulga5z2cajhwx,ByKJO7UY,2020-0188,2020-11-20,17:17:29,17:38:58,NA,incomplete,30,filling,1,left,Blue_Plus_Dots_1.jpg,Purple_Star_Dots_2.jpg,Green_Plus_Chess_3.jpg,right,700.0949999783188,false,low,false
ByKJO7UY,3m67tqbqrk18ut4e0bwuqf8vno09av,30bxrybrp8a03wnuqulga5z2cajhwx,ByKJO7UY,2020-0188,2020-11-20,17:17:29,17:38:58,NA,incomplete,31,filling,0,right,Purple_Circle_Chess_2.jpg,Green_Circle_Grid_1.jpg,Red_Triangle_Chess_3.jpg,left,654.2950000148267,false,low,false
ByKJO7UY,3m67tqbqrk18ut4e0bwuqf8vno09av,30bxrybrp8a03wnuqulga5z2cajhwx,ByKJO7UY,2020-0188,2020-11-20,17:17:29,17:38:58,NA,incomplete,32,filling,1,right,Red_Triangle_Stripes_4.jpg,Purple_Triangle_Grid_3.jpg,Blue_Plus_Stripes_1.jpg,left,559.2900000046939,false,low,false
ByKJO7UY,3m67tqbqrk18ut4e0bwuqf8vno09av,30bxrybrp8a03wnuqulga5z2cajhwx,ByKJO7UY,2020-0188,2020-11-20,17:17:29,17:38:58,NA,incomplete,33,filling,1,right,Blue_Plus_Dots_4.jpg,Green_Plus_Grid_3.jpg,Red_Circle_Dots_1.jpg,left,655.6150000542402,false,low,false
ByKJO7UY,3m67tqbqrk18ut4e0bwuqf8vno09av,30bxrybrp8a03wnuqulga5z2cajhwx,ByKJO7UY,2020-0188,2020-11-20,17:17:29,17:38:58,NA,incomplete,34,filling,1,left,Green_Circle_Grid_3.jpg,Blue_Triangle_Grid_4.jpg,Red_Circle_Chess_1.jpg,left,793.3450000127777,true,low,false
ByKJO7UY,3m67tqbqrk18ut4e0bwuqf8vno09av,30bxrybrp8a03wnuqulga5z2cajhwx,ByKJO7UY,2020-0188,2020-11-20,17:17:29,17:38:58,NA,incomplete,35,filling,1,left,Green_Circle_Stripes_1.jpg,Purple_Triangle_Stripes_4.jpg,Red_Circle_Chess_2.jpg,left,768.6050001066178,true,low,false
ByKJO7UY,3m67tqbqrk18ut4e0bwuqf8vno09av,30bxrybrp8a03wnuqulga5z2cajhwx,ByKJO7UY,2020-0188,2020-11-20,17:17:29,17:38:58,NA,incomplete,36,filling,1,right,Green_Triangle_Chess_1.jpg,Blue_Triangle_Stripes_3.jpg,Red_Circle_Chess_4.jpg,right,880.4049999453127,true,low,false
ByKJO7UY,3m67tqbqrk18ut4e0bwuqf8vno09av,30bxrybrp8a03wnuqulga5z2cajhwx,ByKJO7UY,2020-0188,2020-11-20,17:17:29,17:38:58,NA,incomplete,37,filling,1,right,Purple_Plus_Stripes_4.jpg,Green_Plus_Dots_3.jpg,Blue_Triangle_Stripes_2.jpg,right,882.3150000534952,true,low,false
ByKJO7UY,3m67tqbqrk18ut4e0bwuqf8vno09av,30bxrybrp8a03wnuqulga5z2cajhwx,ByKJO7UY,2020-0188,2020-11-20,17:17:29,17:38:58,NA,incomplete,38,filling,1,left,Red_Triangle_Chess_1.jpg,Green_Circle_Chess_3.jpg,Purple_Triangle_Grid_2.jpg,left,809.3599999556318,true,low,false
ByKJO7UY,3m67tqbqrk18ut4e0bwuqf8vno09av,30bxrybrp8a03wnuqulga5z2cajhwx,ByKJO7UY,2020-0188,2020-11-20,17:17:29,17:38:58,NA,incomplete,39,filling,1,right,Red_Circle_Grid_3.jpg,Purple_Circle_Stripes_1.jpg,Green_Triangle_Grid_4.jpg,left,791.2250000517815,false,low,false
ByKJO7UY,3m67tqbqrk18ut4e0bwuqf8vno09av,30bxrybrp8a03wnuqulga5z2cajhwx,ByKJO7UY,2020-0188,2020-11-20,17:17:29,17:38:58,NA,incomplete,40,filling,1,left,Red_Plus_Stripes_1.jpg,Green_Star_Stripes_4.jpg,Purple_Plus_Chess_3.jpg,left,1017.3000000650063,true,low,false
ByKJO7UY,3m67tqbqrk18ut4e0bwuqf8vno09av,30bxrybrp8a03wnuqulga5z2cajhwx,ByKJO7UY,2020-0188,2020-11-20,17:17:29,17:38:58,NA,incomplete,41,filling,1,right,Purple_Circle_Stripes_2.jpg,Green_Circle_Dots_1.jpg,Red_Plus_Stripes_3.jpg,right,812.7300000051036,true,low,false
ByKJO7UY,3m67tqbqrk18ut4e0bwuqf8vno09av,30bxrybrp8a03wnuqulga5z2cajhwx,ByKJO7UY,2020-0188,2020-11-20,17:17:29,17:38:58,NA,incomplete,42,filling,0,right,Red_Circle_Stripes_1.jpg,Purple_Circle_Chess_3.jpg,Blue_Star_Stripes_4.jpg,right,764.0700000338256,true,low,false
ByKJO7UY,3m67tqbqrk18ut4e0bwuqf8vno09av,30bxrybrp8a03wnuqulga5z2cajhwx,ByKJO7UY,2020-0188,2020-11-20,17:17:29,17:38:58,NA,incomplete,43,filling,1,right,Green_Triangle_Chess_1.jpg,Red_Triangle_Grid_4.jpg,Purple_Star_Chess_3.jpg,right,801.2699999380857,true,low,false
ByKJO7UY,3m67tqbqrk18ut4e0bwuqf8vno09av,30bxrybrp8a03wnuqulga5z2cajhwx,ByKJO7UY,2020-0188,2020-11-20,17:17:29,17:38:58,NA,incomplete,44,filling,1,left,Purple_Plus_Dots_4.jpg,Red_Triangle_Dots_1.jpg,Blue_Plus_Grid_2.jpg,left,901.175000006333,true,low,false
ByKJO7UY,3m67tqbqrk18ut4e0bwuqf8vno09av,30bxrybrp8a03wnuqulga5z2cajhwx,ByKJO7UY,2020-0188,2020-11-20,17:17:29,17:38:58,NA,incomplete,45,filling,1,right,Purple_Star_Grid_4.jpg,Green_Star_Stripes_1.jpg,Red_Plus_Grid_2.jpg,right,819.5099999429658,true,low,false
ByKJO7UY,3m67tqbqrk18ut4e0bwuqf8vno09av,30bxrybrp8a03wnuqulga5z2cajhwx,ByKJO7UY,2020-0188,2020-11-20,17:17:29,17:38:58,NA,incomplete,46,filling,1,left,Green_Plus_Grid_1.jpg,Red_Star_Grid_2.jpg,Purple_Plus_Dots_4.jpg,left,915.1600000914186,true,low,false
ByKJO7UY,3m67tqbqrk18ut4e0bwuqf8vno09av,30bxrybrp8a03wnuqulga5z2cajhwx,ByKJO7UY,2020-0188,2020-11-20,17:17:29,17:38:58,NA,incomplete,47,filling,1,right,Green_Triangle_Stripes_1.jpg,Purple_Triangle_Dots_2.jpg,Blue_Star_Stripes_3.jpg,right,823.2750000897795,true,low,false
ByKJO7UY,3m67tqbqrk18ut4e0bwuqf8vno09av,30bxrybrp8a03wnuqulga5z2cajhwx,ByKJO7UY,2020-0188,2020-11-20,17:17:29,17:38:58,NA,incomplete,48,filling,0,left,Blue_Circle_Grid_4.jpg,Red_Star_Grid_2.jpg,Purple_Circle_Chess_1.jpg,right,728.7950000027195,false,low,false
ByKJO7UY,3m67tqbqrk18ut4e0bwuqf8vno09av,30bxrybrp8a03wnuqulga5z2cajhwx,ByKJO7UY,2020-0188,2020-11-20,17:17:29,17:38:58,NA,incomplete,49,filling,1,left,Red_Triangle_Grid_3.jpg,Green_Circle_Grid_1.jpg,Purple_Triangle_Stripes_2.jpg,left,837.1449999976903,true,low,false
ByKJO7UY,3m67tqbqrk18ut4e0bwuqf8vno09av,30bxrybrp8a03wnuqulga5z2cajhwx,ByKJO7UY,2020-0188,2020-11-20,17:17:29,17:38:58,NA,incomplete,50,filling,0,left,Purple_Triangle_Dots_4.jpg,Red_Plus_Dots_2.jpg,Blue_Triangle_Stripes_3.jpg,left,758.4800000768155,true,low,false
ByKJO7UY,3m67tqbqrk18ut4e0bwuqf8vno09av,30bxrybrp8a03wnuqulga5z2cajhwx,ByKJO7UY,2020-0188,2020-11-20,17:17:29,17:38:58,NA,incomplete,51,filling,0,left,Purple_Triangle_Dots_2.jpg,Red_Circle_Dots_4.jpg,Blue_Triangle_Stripes_1.jpg,left,861.8400000268593,true,low,false
ByKJO7UY,3m67tqbqrk18ut4e0bwuqf8vno09av,30bxrybrp8a03wnuqulga5z2cajhwx,ByKJO7UY,2020-0188,2020-11-20,17:17:29,17:38:58,NA,incomplete,52,filling,1,left,Purple_Plus_Chess_4.jpg,Blue_Star_Chess_1.jpg,Red_Plus_Grid_2.jpg,right,631.690000067465,false,low,false
ByKJO7UY,3m67tqbqrk18ut4e0bwuqf8vno09av,30bxrybrp8a03wnuqulga5z2cajhwx,ByKJO7UY,2020-0188,2020-11-20,17:17:29,17:38:58,NA,incomplete,53,filling,1,left,Green_Star_Chess_2.jpg,Purple_Circle_Chess_4.jpg,Red_Star_Dots_3.jpg,left,844.1400000592694,true,low,false
ByKJO7UY,3m67tqbqrk18ut4e0bwuqf8vno09av,30bxrybrp8a03wnuqulga5z2cajhwx,ByKJO7UY,2020-0188,2020-11-20,17:17:29,17:38:58,NA,incomplete,54,filling,1,right,Green_Star_Dots_3.jpg,Blue_Star_Stripes_2.jpg,Purple_Circle_Dots_1.jpg,right,799.0800000261515,true,low,false
ByKJO7UY,3m67tqbqrk18ut4e0bwuqf8vno09av,30bxrybrp8a03wnuqulga5z2cajhwx,ByKJO7UY,2020-0188,2020-11-20,17:17:29,17:38:58,NA,incomplete,55,filling,1,right,Purple_Circle_Dots_4.jpg,Blue_Circle_Chess_2.jpg,Red_Triangle_Dots_3.jpg,right,793.0049999849871,true,low,false
ByKJO7UY,3m67tqbqrk18ut4e0bwuqf8vno09av,30bxrybrp8a03wnuqulga5z2cajhwx,ByKJO7UY,2020-0188,2020-11-20,17:17:29,17:38:58,NA,incomplete,56,filling,1,right,Green_Triangle_Dots_2.jpg,Blue_Triangle_Stripes_4.jpg,Red_Star_Dots_3.jpg,left,754.4850000413135,false,low,false
ByKJO7UY,3m67tqbqrk18ut4e0bwuqf8vno09av,30bxrybrp8a03wnuqulga5z2cajhwx,ByKJO7UY,2020-0188,2020-11-20,17:17:29,17:38:58,NA,incomplete,57,filling,1,left,Blue_Plus_Chess_3.jpg,Purple_Circle_Chess_4.jpg,Green_Plus_Dots_1.jpg,left,863.744999980554,true,low,false
ByKJO7UY,3m67tqbqrk18ut4e0bwuqf8vno09av,30bxrybrp8a03wnuqulga5z2cajhwx,ByKJO7UY,2020-0188,2020-11-20,17:17:29,17:38:58,NA,incomplete,58,filling,0,right,Purple_Star_Stripes_1.jpg,Blue_Star_Dots_2.jpg,Green_Triangle_Stripes_3.jpg,right,772.3250000271946,true,low,false
ByKJO7UY,3m67tqbqrk18ut4e0bwuqf8vno09av,30bxrybrp8a03wnuqulga5z2cajhwx,ByKJO7UY,2020-0188,2020-11-20,17:17:29,17:38:58,NA,incomplete,59,filling,1,right,Green_Star_Chess_1.jpg,Purple_Star_Grid_2.jpg,Blue_Plus_Chess_3.jpg,right,837.9300000378862,true,low,false
ByKJO7UY,3m67tqbqrk18ut4e0bwuqf8vno09av,30bxrybrp8a03wnuqulga5z2cajhwx,ByKJO7UY,2020-0188,2020-11-20,17:17:29,17:38:58,NA,incomplete,60,shape,0,right,Blue_Circle_Dots_3.jpg,Green_Triangle_Dots_2.jpg,Purple_Circle_Chess_4.jpg,left,861.2750000320375,false,low,false
ByKJO7UY,3m67tqbqrk18ut4e0bwuqf8vno09av,30bxrybrp8a03wnuqulga5z2cajhwx,ByKJO7UY,2020-0188,2020-11-20,17:17:29,17:38:58,NA,incomplete,61,shape,1,right,Red_Circle_Chess_4.jpg,Green_Triangle_Chess_2.jpg,Purple_Circle_Stripes_1.jpg,left,792.4399999901652,false,low,false
ByKJO7UY,3m67tqbqrk18ut4e0bwuqf8vno09av,30bxrybrp8a03wnuqulga5z2cajhwx,ByKJO7UY,2020-0188,2020-11-20,17:17:29,17:38:58,NA,incomplete,62,shape,1,left,Red_Circle_Stripes_2.jpg,Green_Circle_Grid_1.jpg,Blue_Star_Stripes_4.jpg,left,716.7249999474734,true,low,false
ByKJO7UY,3m67tqbqrk18ut4e0bwuqf8vno09av,30bxrybrp8a03wnuqulga5z2cajhwx,ByKJO7UY,2020-0188,2020-11-20,17:17:29,17:38:58,NA,incomplete,63,shape,1,right,Purple_Star_Stripes_4.jpg,Blue_Triangle_Stripes_1.jpg,Green_Star_Chess_3.jpg,left,1000.5999999120831,false,low,false
ByKJO7UY,3m67tqbqrk18ut4e0bwuqf8vno09av,30bxrybrp8a03wnuqulga5z2cajhwx,ByKJO7UY,2020-0188,2020-11-20,17:17:29,17:38:58,NA,incomplete,64,shape,1,left,Purple_Plus_Dots_3.jpg,Green_Plus_Chess_2.jpg,Red_Circle_Dots_4.jpg,left,788.9199999626726,true,low,false
ByKJO7UY,3m67tqbqrk18ut4e0bwuqf8vno09av,30bxrybrp8a03wnuqulga5z2cajhwx,ByKJO7UY,2020-0188,2020-11-20,17:17:29,17:38:58,NA,incomplete,65,shape,1,right,Blue_Circle_Dots_1.jpg,Red_Plus_Dots_2.jpg,Purple_Circle_Chess_3.jpg,right,615.1450000470504,true,low,false
ByKJO7UY,3m67tqbqrk18ut4e0bwuqf8vno09av,30bxrybrp8a03wnuqulga5z2cajhwx,ByKJO7UY,2020-0188,2020-11-20,17:17:29,17:38:58,NA,incomplete,66,shape,1,right,Red_Plus_Stripes_2.jpg,Blue_Star_Stripes_4.jpg,Green_Plus_Grid_1.jpg,right,733.8250000029802,true,low,false
ByKJO7UY,3m67tqbqrk18ut4e0bwuqf8vno09av,30bxrybrp8a03wnuqulga5z2cajhwx,ByKJO7UY,2020-0188,2020-11-20,17:17:29,17:38:58,NA,incomplete,67,shape,1,left,Purple_Circle_Grid_3.jpg,Blue_Circle_Dots_2.jpg,Red_Star_Grid_1.jpg,left,590.7800000859424,true,low,false
ByKJO7UY,3m67tqbqrk18ut4e0bwuqf8vno09av,30bxrybrp8a03wnuqulga5z2cajhwx,ByKJO7UY,2020-0188,2020-11-20,17:17:29,17:38:58,NA,incomplete,68,shape,1,left,Blue_Star_Dots_1.jpg,Green_Star_Chess_3.jpg,Red_Triangle_Dots_2.jpg,left,634.4749999698251,true,low,false
ByKJO7UY,3m67tqbqrk18ut4e0bwuqf8vno09av,30bxrybrp8a03wnuqulga5z2cajhwx,ByKJO7UY,2020-0188,2020-11-20,17:17:29,17:38:58,NA,incomplete,69,shape,1,right,Blue_Circle_Stripes_2.jpg,Green_Triangle_Stripes_4.jpg,Purple_Circle_Dots_3.jpg,right,639.9449999444187,true,low,false
ByKJO7UY,3m67tqbqrk18ut4e0bwuqf8vno09av,30bxrybrp8a03wnuqulga5z2cajhwx,ByKJO7UY,2020-0188,2020-11-20,17:17:29,17:38:58,NA,incomplete,70,shape,1,right,Red_Circle_Grid_1.jpg,Purple_Triangle_Grid_2.jpg,Green_Circle_Dots_3.jpg,right,665.8700000261888,true,low,false
ByKJO7UY,3m67tqbqrk18ut4e0bwuqf8vno09av,30bxrybrp8a03wnuqulga5z2cajhwx,ByKJO7UY,2020-0188,2020-11-20,17:17:29,17:38:58,NA,incomplete,71,shape,0,left,Purple_Plus_Dots_3.jpg,Red_Plus_Chess_2.jpg,Blue_Triangle_Dots_1.jpg,left,648.8700000336394,true,low,false
ByKJO7UY,3m67tqbqrk18ut4e0bwuqf8vno09av,30bxrybrp8a03wnuqulga5z2cajhwx,ByKJO7UY,2020-0188,2020-11-20,17:17:29,17:38:58,NA,incomplete,72,shape,1,right,Red_Triangle_Dots_2.jpg,Blue_Circle_Dots_3.jpg,Green_Triangle_Stripes_4.jpg,right,579.3750000884756,true,low,false
ByKJO7UY,3m67tqbqrk18ut4e0bwuqf8vno09av,30bxrybrp8a03wnuqulga5z2cajhwx,ByKJO7UY,2020-0188,2020-11-20,17:17:29,17:38:58,NA,incomplete,73,shape,0,left,Purple_Triangle_Dots_4.jpg,Red_Triangle_Grid_3.jpg,Green_Plus_Dots_1.jpg,left,567.4299999373034,true,low,false
ByKJO7UY,3m67tqbqrk18ut4e0bwuqf8vno09av,30bxrybrp8a03wnuqulga5z2cajhwx,ByKJO7UY,2020-0188,2020-11-20,17:17:29,17:38:58,NA,incomplete,74,shape,1,right,Green_Triangle_Chess_1.jpg,Blue_Plus_Chess_3.jpg,Red_Triangle_Grid_2.jpg,right,672.9199999244884,true,low,false
ByKJO7UY,3m67tqbqrk18ut4e0bwuqf8vno09av,30bxrybrp8a03wnuqulga5z2cajhwx,ByKJO7UY,2020-0188,2020-11-20,17:17:29,17:38:58,NA,incomplete,75,shape,1,right,Green_Star_Stripes_4.jpg,Red_Triangle_Stripes_2.jpg,Blue_Star_Dots_1.jpg,right,654.0400000521913,true,low,false
ByKJO7UY,3m67tqbqrk18ut4e0bwuqf8vno09av,30bxrybrp8a03wnuqulga5z2cajhwx,ByKJO7UY,2020-0188,2020-11-20,17:17:29,17:38:58,NA,incomplete,76,shape,1,left,Blue_Triangle_Stripes_1.jpg,Red_Triangle_Chess_4.jpg,Purple_Plus_Stripes_3.jpg,left,664.9600000819191,true,low,false
ByKJO7UY,3m67tqbqrk18ut4e0bwuqf8vno09av,30bxrybrp8a03wnuqulga5z2cajhwx,ByKJO7UY,2020-0188,2020-11-20,17:17:29,17:38:58,NA,incomplete,77,shape,1,right,Blue_Plus_Stripes_2.jpg,Red_Circle_Stripes_1.jpg,Purple_Plus_Chess_4.jpg,right,612.0899999514222,true,low,false
ByKJO7UY,3m67tqbqrk18ut4e0bwuqf8vno09av,30bxrybrp8a03wnuqulga5z2cajhwx,ByKJO7UY,2020-0188,2020-11-20,17:17:29,17:38:58,NA,incomplete,78,shape,0,right,Purple_Circle_Dots_4.jpg,Blue_Triangle_Dots_1.jpg,Green_Circle_Chess_3.jpg,right,590.7550000119954,true,low,false
ByKJO7UY,3m67tqbqrk18ut4e0bwuqf8vno09av,30bxrybrp8a03wnuqulga5z2cajhwx,ByKJO7UY,2020-0188,2020-11-20,17:17:29,17:38:58,NA,incomplete,79,shape,1,left,Green_Circle_Dots_4.jpg,Red_Circle_Grid_2.jpg,Blue_Plus_Dots_1.jpg,left,721.8149999389425,true,low,false
ByKJO7UY,3m67tqbqrk18ut4e0bwuqf8vno09av,30bxrybrp8a03wnuqulga5z2cajhwx,ByKJO7UY,2020-0188,2020-11-20,17:17:29,17:38:58,NA,incomplete,80,shape,1,left,Purple_Plus_Dots_4.jpg,Red_Plus_Grid_1.jpg,Green_Star_Dots_3.jpg,left,661.3000000361353,true,low,false
ByKJO7UY,3m67tqbqrk18ut4e0bwuqf8vno09av,30bxrybrp8a03wnuqulga5z2cajhwx,ByKJO7UY,2020-0188,2020-11-20,17:17:29,17:38:58,NA,incomplete,81,shape,1,right,Red_Circle_Dots_2.jpg,Blue_Triangle_Dots_4.jpg,Green_Circle_Chess_3.jpg,right,545.1550000580028,true,low,false
ByKJO7UY,3m67tqbqrk18ut4e0bwuqf8vno09av,30bxrybrp8a03wnuqulga5z2cajhwx,ByKJO7UY,2020-0188,2020-11-20,17:17:29,17:38:58,NA,incomplete,82,shape,1,right,Purple_Triangle_Grid_3.jpg,Blue_Plus_Grid_1.jpg,Red_Triangle_Stripes_2.jpg,right,529.8450000118464,true,low,false
ByKJO7UY,3m67tqbqrk18ut4e0bwuqf8vno09av,30bxrybrp8a03wnuqulga5z2cajhwx,ByKJO7UY,2020-0188,2020-11-20,17:17:29,17:38:58,NA,incomplete,83,shape,1,left,Green_Triangle_Stripes_2.jpg,Blue_Triangle_Grid_4.jpg,Purple_Plus_Stripes_1.jpg,left,560.3350000455976,true,low,false
ByKJO7UY,3m67tqbqrk18ut4e0bwuqf8vno09av,30bxrybrp8a03wnuqulga5z2cajhwx,ByKJO7UY,2020-0188,2020-11-20,17:17:29,17:38:58,NA,incomplete,84,shape,1,left,Purple_Triangle_Chess_2.jpg,Blue_Triangle_Stripes_4.jpg,Green_Star_Chess_3.jpg,left,683.4950000047684,true,low,false
ByKJO7UY,3m67tqbqrk18ut4e0bwuqf8vno09av,30bxrybrp8a03wnuqulga5z2cajhwx,ByKJO7UY,2020-0188,2020-11-20,17:17:29,17:38:58,NA,incomplete,85,shape,0,left,Purple_Star_Stripes_4.jpg,Green_Star_Grid_3.jpg,Blue_Triangle_Stripes_1.jpg,left,574.6700000017881,true,low,false
ByKJO7UY,3m67tqbqrk18ut4e0bwuqf8vno09av,30bxrybrp8a03wnuqulga5z2cajhwx,ByKJO7UY,2020-0188,2020-11-20,17:17:29,17:38:58,NA,incomplete,86,shape,1,right,Red_Circle_Chess_4.jpg,Blue_Plus_Chess_3.jpg,Purple_Circle_Stripes_2.jpg,right,514.9650000967085,true,low,false
ByKJO7UY,3m67tqbqrk18ut4e0bwuqf8vno09av,30bxrybrp8a03wnuqulga5z2cajhwx,ByKJO7UY,2020-0188,2020-11-20,17:17:29,17:38:58,NA,incomplete,87,shape,0,left,Blue_Star_Dots_4.jpg,Red_Star_Stripes_3.jpg,Purple_Circle_Dots_2.jpg,left,535.6250000186265,true,low,false
ByKJO7UY,3m67tqbqrk18ut4e0bwuqf8vno09av,30bxrybrp8a03wnuqulga5z2cajhwx,ByKJO7UY,2020-0188,2020-11-20,17:17:29,17:38:58,NA,incomplete,88,shape,1,left,Red_Circle_Dots_2.jpg,Green_Circle_Stripes_3.jpg,Purple_Star_Dots_1.jpg,right,752.2399999434128,false,low,false
ByKJO7UY,3m67tqbqrk18ut4e0bwuqf8vno09av,30bxrybrp8a03wnuqulga5z2cajhwx,ByKJO7UY,2020-0188,2020-11-20,17:17:29,17:38:58,NA,incomplete,89,shape,1,left,Purple_Star_Grid_3.jpg,Red_Star_Dots_1.jpg,Blue_Plus_Grid_4.jpg,right,864.2499999841675,false,low,false
ByKJO7UY,3m67tqbqrk18ut4e0bwuqf8vno09av,30bxrybrp8a03wnuqulga5z2cajhwx,ByKJO7UY,2020-0188,2020-11-20,17:17:29,17:38:58,NA,incomplete,90,filling,1,right,Red_Circle_Grid_3.jpg,Blue_Circle_Dots_4.jpg,Green_Triangle_Grid_1.jpg,left,562.7000000094995,false,low,false
ByKJO7UY,3m67tqbqrk18ut4e0bwuqf8vno09av,30bxrybrp8a03wnuqulga5z2cajhwx,ByKJO7UY,2020-0188,2020-11-20,17:17:29,17:38:58,NA,incomplete,91,filling,1,right,Green_Plus_Dots_3.jpg,Purple_Plus_Grid_2.jpg,Blue_Star_Dots_4.jpg,right,996.7600000090897,true,low,false
ByKJO7UY,3m67tqbqrk18ut4e0bwuqf8vno09av,30bxrybrp8a03wnuqulga5z2cajhwx,ByKJO7UY,2020-0188,2020-11-20,17:17:29,17:38:58,NA,incomplete,92,filling,1,left,Green_Circle_Grid_4.jpg,Blue_Star_Grid_3.jpg,Purple_Circle_Dots_1.jpg,left,760.9350000275299,true,low,false
ByKJO7UY,3m67tqbqrk18ut4e0bwuqf8vno09av,30bxrybrp8a03wnuqulga5z2cajhwx,ByKJO7UY,2020-0188,2020-11-20,17:17:29,17:38:58,NA,incomplete,93,filling,0,left,Blue_Star_Stripes_4.jpg,Green_Plus_Stripes_1.jpg,Red_Star_Chess_2.jpg,left,961.6299999179319,true,low,false
ByKJO7UY,3m67tqbqrk18ut4e0bwuqf8vno09av,30bxrybrp8a03wnuqulga5z2cajhwx,ByKJO7UY,2020-0188,2020-11-20,17:17:29,17:38:58,NA,incomplete,94,filling,1,right,Green_Triangle_Grid_3.jpg,Purple_Triangle_Stripes_2.jpg,Blue_Plus_Grid_1.jpg,right,823.9900000626221,true,low,false
ByKJO7UY,3m67tqbqrk18ut4e0bwuqf8vno09av,30bxrybrp8a03wnuqulga5z2cajhwx,ByKJO7UY,2020-0188,2020-11-20,17:17:29,17:38:58,NA,incomplete,95,filling,0,right,Blue_Plus_Dots_1.jpg,Purple_Plus_Chess_3.jpg,Red_Circle_Dots_4.jpg,right,899.4650000240654,true,low,false
ByKJO7UY,3m67tqbqrk18ut4e0bwuqf8vno09av,30bxrybrp8a03wnuqulga5z2cajhwx,ByKJO7UY,2020-0188,2020-11-20,17:17:29,17:38:58,NA,incomplete,96,filling,1,right,Red_Plus_Grid_2.jpg,Green_Plus_Dots_3.jpg,Purple_Star_Grid_4.jpg,left,857.700000051409,false,low,false
ByKJO7UY,3m67tqbqrk18ut4e0bwuqf8vno09av,30bxrybrp8a03wnuqulga5z2cajhwx,ByKJO7UY,2020-0188,2020-11-20,17:17:29,17:38:58,NA,incomplete,97,filling,1,right,Purple_Plus_Stripes_4.jpg,Red_Plus_Chess_1.jpg,Green_Circle_Stripes_2.jpg,right,1170.0500000733882,true,low,false
ByKJO7UY,3m67tqbqrk18ut4e0bwuqf8vno09av,30bxrybrp8a03wnuqulga5z2cajhwx,ByKJO7UY,2020-0188,2020-11-20,17:17:29,17:38:58,NA,incomplete,98,filling,1,left,Purple_Plus_Grid_3.jpg,Red_Circle_Grid_2.jpg,Blue_Plus_Stripes_1.jpg,left,802.6100000133738,true,low,false
ByKJO7UY,3m67tqbqrk18ut4e0bwuqf8vno09av,30bxrybrp8a03wnuqulga5z2cajhwx,ByKJO7UY,2020-0188,2020-11-20,17:17:29,17:38:58,NA,incomplete,99,filling,1,right,Red_Star_Grid_1.jpg,Green_Star_Stripes_4.jpg,Blue_Triangle_Grid_2.jpg,right,818.6749999877065,true,low,false
ByKJO7UY,3m67tqbqrk18ut4e0bwuqf8vno09av,30bxrybrp8a03wnuqulga5z2cajhwx,ByKJO7UY,2020-0188,2020-11-20,17:17:29,17:38:58,NA,incomplete,100,filling,1,left,Red_Star_Grid_1.jpg,Purple_Plus_Grid_3.jpg,Blue_Star_Chess_2.jpg,left,956.804999965243,true,low,false
ByKJO7UY,3m67tqbqrk18ut4e0bwuqf8vno09av,30bxrybrp8a03wnuqulga5z2cajhwx,ByKJO7UY,2020-0188,2020-11-20,17:17:29,17:38:58,NA,incomplete,101,filling,0,left,Red_Triangle_Grid_3.jpg,Blue_Star_Grid_4.jpg,Green_Triangle_Dots_2.jpg,left,1013.7899999972433,true,low,false
ByKJO7UY,3m67tqbqrk18ut4e0bwuqf8vno09av,30bxrybrp8a03wnuqulga5z2cajhwx,ByKJO7UY,2020-0188,2020-11-20,17:17:29,17:38:58,NA,incomplete,102,filling,1,right,Green_Triangle_Grid_4.jpg,Blue_Triangle_Stripes_1.jpg,Purple_Circle_Grid_3.jpg,right,765.0750000029802,true,low,false
ByKJO7UY,3m67tqbqrk18ut4e0bwuqf8vno09av,30bxrybrp8a03wnuqulga5z2cajhwx,ByKJO7UY,2020-0188,2020-11-20,17:17:29,17:38:58,NA,incomplete,103,filling,1,left,Red_Circle_Dots_3.jpg,Purple_Triangle_Dots_1.jpg,Blue_Circle_Chess_2.jpg,left,842.8700000513345,true,low,false
ByKJO7UY,3m67tqbqrk18ut4e0bwuqf8vno09av,30bxrybrp8a03wnuqulga5z2cajhwx,ByKJO7UY,2020-0188,2020-11-20,17:17:29,17:38:58,NA,incomplete,104,filling,1,left,Green_Plus_Dots_3.jpg,Red_Star_Dots_4.jpg,Purple_Plus_Stripes_1.jpg,left,905.1049998961389,true,low,false
ByKJO7UY,3m67tqbqrk18ut4e0bwuqf8vno09av,30bxrybrp8a03wnuqulga5z2cajhwx,ByKJO7UY,2020-0188,2020-11-20,17:17:29,17:38:58,NA,incomplete,105,filling,1,left,Red_Circle_Grid_2.jpg,Purple_Star_Grid_3.jpg,Blue_Circle_Stripes_1.jpg,left,933.3999999798834,true,low,false
ByKJO7UY,3m67tqbqrk18ut4e0bwuqf8vno09av,30bxrybrp8a03wnuqulga5z2cajhwx,ByKJO7UY,2020-0188,2020-11-20,17:17:29,17:38:58,NA,incomplete,106,filling,1,left,Red_Triangle_Stripes_2.jpg,Green_Star_Stripes_4.jpg,Purple_Triangle_Chess_1.jpg,left,819.4300000322983,true,low,false
ByKJO7UY,3m67tqbqrk18ut4e0bwuqf8vno09av,30bxrybrp8a03wnuqulga5z2cajhwx,ByKJO7UY,2020-0188,2020-11-20,17:17:29,17:38:58,NA,incomplete,107,filling,1,right,Purple_Triangle_Chess_2.jpg,Blue_Triangle_Stripes_1.jpg,Red_Star_Chess_3.jpg,right,811.225000070408,true,low,false
ByKJO7UY,3m67tqbqrk18ut4e0bwuqf8vno09av,30bxrybrp8a03wnuqulga5z2cajhwx,ByKJO7UY,2020-0188,2020-11-20,17:17:29,17:38:58,NA,incomplete,108,filling,1,right,Purple_Triangle_Dots_2.jpg,Red_Triangle_Stripes_3.jpg,Green_Star_Dots_4.jpg,left,697.2049999749288,false,low,false
ByKJO7UY,3m67tqbqrk18ut4e0bwuqf8vno09av,30bxrybrp8a03wnuqulga5z2cajhwx,ByKJO7UY,2020-0188,2020-11-20,17:17:29,17:38:58,NA,incomplete,109,filling,1,left,Green_Triangle_Stripes_3.jpg,Purple_Plus_Stripes_1.jpg,Blue_Triangle_Grid_4.jpg,left,875.6900000153109,true,low,false
ByKJO7UY,3m67tqbqrk18ut4e0bwuqf8vno09av,30bxrybrp8a03wnuqulga5z2cajhwx,ByKJO7UY,2020-0188,2020-11-20,17:17:29,17:38:58,NA,incomplete,110,filling,1,left,Green_Plus_Chess_1.jpg,Red_Circle_Chess_2.jpg,Purple_Plus_Grid_3.jpg,left,926.8649999285117,true,low,false
ByKJO7UY,3m67tqbqrk18ut4e0bwuqf8vno09av,30bxrybrp8a03wnuqulga5z2cajhwx,ByKJO7UY,2020-0188,2020-11-20,17:17:29,17:38:58,NA,incomplete,111,filling,1,right,Red_Circle_Grid_2.jpg,Green_Circle_Chess_3.jpg,Purple_Triangle_Grid_1.jpg,left,705.7349999668077,false,low,false
ByKJO7UY,3m67tqbqrk18ut4e0bwuqf8vno09av,30bxrybrp8a03wnuqulga5z2cajhwx,ByKJO7UY,2020-0188,2020-11-20,17:17:29,17:38:58,NA,incomplete,112,filling,0,left,Red_Triangle_Grid_4.jpg,Blue_Star_Grid_3.jpg,Purple_Triangle_Chess_1.jpg,left,1067.7349999314174,true,low,false
ByKJO7UY,3m67tqbqrk18ut4e0bwuqf8vno09av,30bxrybrp8a03wnuqulga5z2cajhwx,ByKJO7UY,2020-0188,2020-11-20,17:17:29,17:38:58,NA,incomplete,113,filling,1,right,Blue_Star_Dots_1.jpg,Red_Star_Grid_3.jpg,Green_Triangle_Dots_4.jpg,left,943.7600000528619,false,low,false
ByKJO7UY,3m67tqbqrk18ut4e0bwuqf8vno09av,30bxrybrp8a03wnuqulga5z2cajhwx,ByKJO7UY,2020-0188,2020-11-20,17:17:29,17:38:58,NA,incomplete,114,filling,1,left,Blue_Circle_Dots_3.jpg,Red_Star_Dots_2.jpg,Green_Circle_Grid_1.jpg,left,881.0149999335408,true,low,false
ByKJO7UY,3m67tqbqrk18ut4e0bwuqf8vno09av,30bxrybrp8a03wnuqulga5z2cajhwx,ByKJO7UY,2020-0188,2020-11-20,17:17:29,17:38:58,NA,incomplete,115,filling,1,left,Green_Triangle_Dots_2.jpg,Blue_Circle_Dots_1.jpg,Red_Triangle_Chess_3.jpg,left,775.1899999566376,true,low,false
ByKJO7UY,3m67tqbqrk18ut4e0bwuqf8vno09av,30bxrybrp8a03wnuqulga5z2cajhwx,ByKJO7UY,2020-0188,2020-11-20,17:17:29,17:38:58,NA,incomplete,116,filling,1,left,Green_Triangle_Grid_4.jpg,Purple_Star_Grid_2.jpg,Red_Triangle_Dots_3.jpg,left,846.9749999931082,true,low,false
ByKJO7UY,3m67tqbqrk18ut4e0bwuqf8vno09av,30bxrybrp8a03wnuqulga5z2cajhwx,ByKJO7UY,2020-0188,2020-11-20,17:17:29,17:38:58,NA,incomplete,117,filling,1,left,Green_Triangle_Grid_4.jpg,Blue_Circle_Grid_3.jpg,Red_Triangle_Dots_2.jpg,left,834.8349999869242,true,low,false
ByKJO7UY,3m67tqbqrk18ut4e0bwuqf8vno09av,30bxrybrp8a03wnuqulga5z2cajhwx,ByKJO7UY,2020-0188,2020-11-20,17:17:29,17:38:58,NA,incomplete,118,filling,1,left,Purple_Triangle_Chess_4.jpg,Green_Plus_Chess_1.jpg,Red_Triangle_Stripes_3.jpg,left,915.610000025481,true,low,false
ByKJO7UY,3m67tqbqrk18ut4e0bwuqf8vno09av,30bxrybrp8a03wnuqulga5z2cajhwx,ByKJO7UY,2020-0188,2020-11-20,17:17:29,17:38:58,NA,incomplete,119,filling,1,left,Green_Plus_Grid_4.jpg,Blue_Triangle_Grid_2.jpg,Purple_Plus_Dots_1.jpg,left,916.4649999001995,true,low,false
ByKJO7UY,3m67tqbqrk18ut4e0bwuqf8vno09av,30bxrybrp8a03wnuqulga5z2cajhwx,ByKJO7UY,2020-0188,2020-11-20,17:17:29,17:38:58,NA,incomplete,120,shape,1,right,Purple_Plus_Stripes_1.jpg,Green_Triangle_Stripes_2.jpg,Blue_Plus_Dots_4.jpg,left,796.9900000607595,false,low,false
ByKJO7UY,3m67tqbqrk18ut4e0bwuqf8vno09av,30bxrybrp8a03wnuqulga5z2cajhwx,ByKJO7UY,2020-0188,2020-11-20,17:17:29,17:38:58,NA,incomplete,121,shape,1,right,Blue_Plus_Chess_1.jpg,Green_Star_Chess_3.jpg,Red_Plus_Stripes_4.jpg,left,997.3600000375882,false,low,false
ByKJO7UY,3m67tqbqrk18ut4e0bwuqf8vno09av,30bxrybrp8a03wnuqulga5z2cajhwx,ByKJO7UY,2020-0188,2020-11-20,17:17:29,17:38:58,NA,incomplete,122,shape,1,right,Green_Star_Stripes_3.jpg,Blue_Plus_Stripes_1.jpg,Red_Star_Dots_4.jpg,right,924.3899999419227,true,low,false
ByKJO7UY,3m67tqbqrk18ut4e0bwuqf8vno09av,30bxrybrp8a03wnuqulga5z2cajhwx,ByKJO7UY,2020-0188,2020-11-20,17:17:29,17:38:58,NA,incomplete,123,shape,1,left,Purple_Triangle_Grid_3.jpg,Green_Triangle_Stripes_4.jpg,Red_Star_Grid_2.jpg,left,564.4699999829754,true,low,false
ByKJO7UY,3m67tqbqrk18ut4e0bwuqf8vno09av,30bxrybrp8a03wnuqulga5z2cajhwx,ByKJO7UY,2020-0188,2020-11-20,17:17:29,17:38:58,NA,incomplete,124,shape,1,left,Purple_Star_Grid_3.jpg,Blue_Star_Chess_4.jpg,Red_Circle_Grid_1.jpg,left,727.5450000306591,true,low,false
ByKJO7UY,3m67tqbqrk18ut4e0bwuqf8vno09av,30bxrybrp8a03wnuqulga5z2cajhwx,ByKJO7UY,2020-0188,2020-11-20,17:17:29,17:38:58,NA,incomplete,125,shape,1,left,Purple_Circle_Grid_1.jpg,Blue_Circle_Stripes_4.jpg,Red_Triangle_Grid_2.jpg,left,568.9049999928102,true,low,false
ByKJO7UY,3m67tqbqrk18ut4e0bwuqf8vno09av,30bxrybrp8a03wnuqulga5z2cajhwx,ByKJO7UY,2020-0188,2020-11-20,17:17:29,17:38:58,NA,incomplete,126,shape,0,right,Blue_Star_Grid_4.jpg,Purple_Triangle_Grid_2.jpg,Red_Star_Dots_3.jpg,right,667.7600000984967,true,low,false
ByKJO7UY,3m67tqbqrk18ut4e0bwuqf8vno09av,30bxrybrp8a03wnuqulga5z2cajhwx,ByKJO7UY,2020-0188,2020-11-20,17:17:29,17:38:58,NA,incomplete,127,shape,1,right,Green_Star_Stripes_2.jpg,Blue_Plus_Stripes_4.jpg,Red_Star_Grid_1.jpg,right,823.6499999184161,true,low,false
ByKJO7UY,3m67tqbqrk18ut4e0bwuqf8vno09av,30bxrybrp8a03wnuqulga5z2cajhwx,ByKJO7UY,2020-0188,2020-11-20,17:17:29,17:38:58,NA,incomplete,128,shape,0,left,Blue_Circle_Chess_1.jpg,Purple_Circle_Dots_2.jpg,Red_Plus_Chess_4.jpg,left,604.0349999675527,true,low,false
ByKJO7UY,3m67tqbqrk18ut4e0bwuqf8vno09av,30bxrybrp8a03wnuqulga5z2cajhwx,ByKJO7UY,2020-0188,2020-11-20,17:17:29,17:38:58,NA,incomplete,129,shape,1,left,Blue_Circle_Grid_2.jpg,Green_Circle_Dots_4.jpg,Red_Triangle_Grid_1.jpg,left,612.6149999909103,true,low,false
ByKJO7UY,3m67tqbqrk18ut4e0bwuqf8vno09av,30bxrybrp8a03wnuqulga5z2cajhwx,ByKJO7UY,2020-0188,2020-11-20,17:17:29,17:38:58,NA,incomplete,130,shape,1,left,Purple_Plus_Chess_1.jpg,Green_Plus_Grid_2.jpg,Blue_Star_Chess_4.jpg,left,615.265000029467,true,low,false
ByKJO7UY,3m67tqbqrk18ut4e0bwuqf8vno09av,30bxrybrp8a03wnuqulga5z2cajhwx,ByKJO7UY,2020-0188,2020-11-20,17:17:29,17:38:58,NA,incomplete,131,shape,1,right,Green_Circle_Dots_4.jpg,Red_Triangle_Dots_2.jpg,Purple_Circle_Chess_1.jpg,right,1048.3099999837577,true,low,false
ByKJO7UY,3m67tqbqrk18ut4e0bwuqf8vno09av,30bxrybrp8a03wnuqulga5z2cajhwx,ByKJO7UY,2020-0188,2020-11-20,17:17:29,17:38:58,NA,incomplete,132,shape,1,right,Red_Star_Stripes_3.jpg,Blue_Triangle_Stripes_2.jpg,Green_Star_Dots_4.jpg,right,1030.5899999802932,true,low,false
ByKJO7UY,3m67tqbqrk18ut4e0bwuqf8vno09av,30bxrybrp8a03wnuqulga5z2cajhwx,ByKJO7UY,2020-0188,2020-11-20,17:17:29,17:38:58,NA,incomplete,133,shape,1,right,Red_Circle_Stripes_4.jpg,Green_Triangle_Stripes_1.jpg,Blue_Circle_Grid_3.jpg,right,566.1299999337643,true,low,false
ByKJO7UY,3m67tqbqrk18ut4e0bwuqf8vno09av,30bxrybrp8a03wnuqulga5z2cajhwx,ByKJO7UY,2020-0188,2020-11-20,17:17:29,17:38:58,NA,incomplete,134,shape,1,right,Red_Star_Stripes_3.jpg,Blue_Plus_Stripes_1.jpg,Green_Star_Dots_2.jpg,right,596.9999999506399,true,low,false
ByKJO7UY,3m67tqbqrk18ut4e0bwuqf8vno09av,30bxrybrp8a03wnuqulga5z2cajhwx,ByKJO7UY,2020-0188,2020-11-20,17:17:29,17:38:58,NA,incomplete,135,shape,1,left,Green_Triangle_Stripes_1.jpg,Purple_Triangle_Dots_3.jpg,Blue_Plus_Stripes_2.jpg,left,661.2650000024587,true,low,false
ByKJO7UY,3m67tqbqrk18ut4e0bwuqf8vno09av,30bxrybrp8a03wnuqulga5z2cajhwx,ByKJO7UY,2020-0188,2020-11-20,17:17:29,17:38:58,NA,incomplete,136,shape,0,right,Red_Circle_Chess_2.jpg,Green_Star_Chess_4.jpg,Purple_Circle_Stripes_3.jpg,right,569.6900000330061,true,low,false
ByKJO7UY,3m67tqbqrk18ut4e0bwuqf8vno09av,30bxrybrp8a03wnuqulga5z2cajhwx,ByKJO7UY,2020-0188,2020-11-20,17:17:29,17:38:58,NA,incomplete,137,shape,1,right,Purple_Triangle_Grid_1.jpg,Red_Star_Grid_4.jpg,Green_Triangle_Dots_2.jpg,right,554.1850000154227,true,low,false
ByKJO7UY,3m67tqbqrk18ut4e0bwuqf8vno09av,30bxrybrp8a03wnuqulga5z2cajhwx,ByKJO7UY,2020-0188,2020-11-20,17:17:29,17:38:58,NA,incomplete,138,shape,1,left,Green_Triangle_Grid_1.jpg,Blue_Triangle_Chess_4.jpg,Purple_Circle_Grid_2.jpg,left,668.1700000772253,true,low,false
ByKJO7UY,3m67tqbqrk18ut4e0bwuqf8vno09av,30bxrybrp8a03wnuqulga5z2cajhwx,ByKJO7UY,2020-0188,2020-11-20,17:17:29,17:38:58,NA,incomplete,139,shape,1,right,Blue_Star_Stripes_4.jpg,Green_Plus_Stripes_2.jpg,Purple_Star_Chess_3.jpg,right,765.4949999414384,true,low,false
ByKJO7UY,3m67tqbqrk18ut4e0bwuqf8vno09av,30bxrybrp8a03wnuqulga5z2cajhwx,ByKJO7UY,2020-0188,2020-11-20,17:17:29,17:38:58,NA,incomplete,140,filling,1,right,Purple_Plus_Dots_1.jpg,Blue_Plus_Chess_4.jpg,Red_Star_Dots_2.jpg,left,691.2999999476597,false,low,false
ByKJO7UY,3m67tqbqrk18ut4e0bwuqf8vno09av,30bxrybrp8a03wnuqulga5z2cajhwx,ByKJO7UY,2020-0188,2020-11-20,17:17:29,17:38:58,NA,incomplete,141,filling,1,left,Purple_Plus_Chess_2.jpg,Green_Triangle_Chess_4.jpg,Blue_Plus_Dots_1.jpg,right,817.0699999900535,false,low,false
ByKJO7UY,3m67tqbqrk18ut4e0bwuqf8vno09av,30bxrybrp8a03wnuqulga5z2cajhwx,ByKJO7UY,2020-0188,2020-11-20,17:17:29,17:38:58,NA,incomplete,142,filling,0,right,Purple_Triangle_Grid_3.jpg,Green_Triangle_Chess_4.jpg,Red_Star_Grid_2.jpg,left,565.6550000421703,false,low,false
ByKJO7UY,3m67tqbqrk18ut4e0bwuqf8vno09av,30bxrybrp8a03wnuqulga5z2cajhwx,ByKJO7UY,2020-0188,2020-11-20,17:17:29,17:38:58,NA,incomplete,143,filling,1,left,Blue_Triangle_Dots_4.jpg,Purple_Plus_Dots_1.jpg,Red_Triangle_Chess_3.jpg,right,647.7249999297783,false,low,false
ByKJO7UY,3m67tqbqrk18ut4e0bwuqf8vno09av,30bxrybrp8a03wnuqulga5z2cajhwx,ByKJO7UY,2020-0188,2020-11-20,17:17:29,17:38:58,NA,incomplete,144,filling,1,left,Blue_Plus_Grid_4.jpg,Purple_Circle_Grid_3.jpg,Green_Plus_Dots_2.jpg,right,1253.2849999843165,false,low,false
ByKJO7UY,3m67tqbqrk18ut4e0bwuqf8vno09av,30bxrybrp8a03wnuqulga5z2cajhwx,ByKJO7UY,2020-0188,2020-11-20,17:17:29,17:38:58,NA,incomplete,145,filling,1,left,Green_Triangle_Stripes_1.jpg,Purple_Star_Stripes_3.jpg,Red_Triangle_Chess_2.jpg,left,790.2900000335649,true,low,false
ByKJO7UY,3m67tqbqrk18ut4e0bwuqf8vno09av,30bxrybrp8a03wnuqulga5z2cajhwx,ByKJO7UY,2020-0188,2020-11-20,17:17:29,17:38:58,NA,incomplete,146,filling,1,left,Red_Star_Dots_1.jpg,Blue_Circle_Dots_4.jpg,Green_Star_Grid_2.jpg,left,1032.5200000079349,true,low,false
ByKJO7UY,3m67tqbqrk18ut4e0bwuqf8vno09av,30bxrybrp8a03wnuqulga5z2cajhwx,ByKJO7UY,2020-0188,2020-11-20,17:17:29,17:38:58,NA,incomplete,147,filling,0,left,Green_Star_Stripes_1.jpg,Red_Plus_Stripes_2.jpg,Purple_Star_Dots_3.jpg,left,1104.7750000143424,true,low,false
ByKJO7UY,3m67tqbqrk18ut4e0bwuqf8vno09av,30bxrybrp8a03wnuqulga5z2cajhwx,ByKJO7UY,2020-0188,2020-11-20,17:17:29,17:38:58,NA,incomplete,148,filling,1,right,Blue_Plus_Stripes_2.jpg,Red_Plus_Grid_1.jpg,Green_Triangle_Stripes_3.jpg,right,949.045000015758,true,low,false
ByKJO7UY,3m67tqbqrk18ut4e0bwuqf8vno09av,30bxrybrp8a03wnuqulga5z2cajhwx,ByKJO7UY,2020-0188,2020-11-20,17:17:29,17:38:58,NA,incomplete,149,filling,0,right,Green_Triangle_Stripes_3.jpg,Blue_Triangle_Dots_1.jpg,Purple_Circle_Stripes_4.jpg,right,823.3499999623746,true,low,false
ByKJO7UY,3m67tqbqrk18ut4e0bwuqf8vno09av,30bxrybrp8a03wnuqulga5z2cajhwx,ByKJO7UY,2020-0188,2020-11-20,17:17:29,17:38:58,NA,incomplete,150,filling,1,right,Purple_Star_Stripes_4.jpg,Blue_Star_Chess_2.jpg,Green_Circle_Stripes_1.jpg,left,718.0400000652298,false,low,false
ByKJO7UY,3m67tqbqrk18ut4e0bwuqf8vno09av,30bxrybrp8a03wnuqulga5z2cajhwx,ByKJO7UY,2020-0188,2020-11-20,17:17:29,17:38:58,NA,incomplete,151,filling,1,left,Purple_Triangle_Grid_1.jpg,Blue_Plus_Grid_3.jpg,Red_Triangle_Stripes_4.jpg,left,916.495000012219,true,low,false
ByKJO7UY,3m67tqbqrk18ut4e0bwuqf8vno09av,30bxrybrp8a03wnuqulga5z2cajhwx,ByKJO7UY,2020-0188,2020-11-20,17:17:29,17:38:58,NA,incomplete,152,filling,1,left,Blue_Star_Stripes_4.jpg,Green_Circle_Stripes_2.jpg,Red_Star_Grid_1.jpg,left,831.5249999286607,true,low,false
ByKJO7UY,3m67tqbqrk18ut4e0bwuqf8vno09av,30bxrybrp8a03wnuqulga5z2cajhwx,ByKJO7UY,2020-0188,2020-11-20,17:17:29,17:38:58,NA,incomplete,153,filling,1,left,Blue_Circle_Dots_2.jpg,Green_Star_Dots_4.jpg,Purple_Circle_Grid_1.jpg,left,824.7950000222772,true,low,false
ByKJO7UY,3m67tqbqrk18ut4e0bwuqf8vno09av,30bxrybrp8a03wnuqulga5z2cajhwx,ByKJO7UY,2020-0188,2020-11-20,17:17:29,17:38:58,NA,incomplete,154,filling,0,right,Blue_Triangle_Stripes_4.jpg,Green_Triangle_Grid_1.jpg,Purple_Circle_Stripes_2.jpg,right,763.4000000543892,true,low,false
ByKJO7UY,3m67tqbqrk18ut4e0bwuqf8vno09av,30bxrybrp8a03wnuqulga5z2cajhwx,ByKJO7UY,2020-0188,2020-11-20,17:17:29,17:38:58,NA,incomplete,155,filling,1,right,Green_Star_Dots_3.jpg,Blue_Star_Stripes_4.jpg,Purple_Triangle_Dots_2.jpg,right,888.0150000331923,true,low,false
ByKJO7UY,3m67tqbqrk18ut4e0bwuqf8vno09av,30bxrybrp8a03wnuqulga5z2cajhwx,ByKJO7UY,2020-0188,2020-11-20,17:17:29,17:38:58,NA,incomplete,156,filling,1,right,Blue_Plus_Chess_4.jpg,Purple_Plus_Stripes_1.jpg,Red_Star_Chess_3.jpg,right,887.9149999702349,true,low,false
ByKJO7UY,3m67tqbqrk18ut4e0bwuqf8vno09av,30bxrybrp8a03wnuqulga5z2cajhwx,ByKJO7UY,2020-0188,2020-11-20,17:17:29,17:38:58,NA,incomplete,157,filling,1,left,Blue_Star_Grid_4.jpg,Red_Plus_Grid_1.jpg,Purple_Star_Stripes_2.jpg,left,711.0299998894334,true,low,false
ByKJO7UY,3m67tqbqrk18ut4e0bwuqf8vno09av,30bxrybrp8a03wnuqulga5z2cajhwx,ByKJO7UY,2020-0188,2020-11-20,17:17:29,17:38:58,NA,incomplete,158,filling,0,left,Red_Plus_Grid_1.jpg,Purple_Triangle_Grid_2.jpg,Green_Plus_Chess_3.jpg,left,879.0449999505654,true,low,false
ByKJO7UY,3m67tqbqrk18ut4e0bwuqf8vno09av,30bxrybrp8a03wnuqulga5z2cajhwx,ByKJO7UY,2020-0188,2020-11-20,17:17:29,17:38:58,NA,incomplete,159,filling,1,left,Red_Plus_Stripes_2.jpg,Purple_Triangle_Stripes_3.jpg,Green_Plus_Dots_1.jpg,left,784.9450000794604,true,low,false
ByKJO7UY,3m67tqbqrk18ut4e0bwuqf8vno09av,30bxrybrp8a03wnuqulga5z2cajhwx,ByKJO7UY,2020-0188,2020-11-20,17:17:29,17:38:58,NA,incomplete,160,shape,1,right,Purple_Star_Grid_2.jpg,Red_Circle_Grid_4.jpg,Green_Star_Stripes_1.jpg,left,856.4100000075996,false,low,false
ByKJO7UY,3m67tqbqrk18ut4e0bwuqf8vno09av,30bxrybrp8a03wnuqulga5z2cajhwx,ByKJO7UY,2020-0188,2020-11-20,17:17:29,17:38:58,NA,incomplete,161,shape,1,right,Purple_Star_Dots_2.jpg,Green_Plus_Dots_4.jpg,Blue_Star_Grid_3.jpg,right,1144.6550000691786,true,low,false
ByKJO7UY,3m67tqbqrk18ut4e0bwuqf8vno09av,30bxrybrp8a03wnuqulga5z2cajhwx,ByKJO7UY,2020-0188,2020-11-20,17:17:29,17:38:58,NA,incomplete,162,shape,1,right,Purple_Plus_Chess_3.jpg,Green_Triangle_Chess_1.jpg,Blue_Plus_Stripes_4.jpg,right,732.1150000207126,true,low,false
ByKJO7UY,3m67tqbqrk18ut4e0bwuqf8vno09av,30bxrybrp8a03wnuqulga5z2cajhwx,ByKJO7UY,2020-0188,2020-11-20,17:17:29,17:38:58,NA,incomplete,163,shape,1,right,Purple_Plus_Stripes_2.jpg,Red_Circle_Stripes_1.jpg,Green_Plus_Chess_3.jpg,right,686.9849999202415,true,low,false
ByKJO7UY,3m67tqbqrk18ut4e0bwuqf8vno09av,30bxrybrp8a03wnuqulga5z2cajhwx,ByKJO7UY,2020-0188,2020-11-20,17:17:29,17:38:58,NA,incomplete,164,shape,1,right,Green_Star_Grid_3.jpg,Purple_Circle_Grid_4.jpg,Red_Star_Dots_2.jpg,right,680.7750000152737,true,low,false
ByKJO7UY,3m67tqbqrk18ut4e0bwuqf8vno09av,30bxrybrp8a03wnuqulga5z2cajhwx,ByKJO7UY,2020-0188,2020-11-20,17:17:29,17:38:58,NA,incomplete,165,shape,1,right,Red_Circle_Grid_2.jpg,Purple_Plus_Grid_4.jpg,Blue_Circle_Dots_1.jpg,right,735.4349999222904,true,low,false
ByKJO7UY,3m67tqbqrk18ut4e0bwuqf8vno09av,30bxrybrp8a03wnuqulga5z2cajhwx,ByKJO7UY,2020-0188,2020-11-20,17:17:29,17:38:58,NA,incomplete,166,shape,1,left,Green_Circle_Stripes_4.jpg,Blue_Circle_Dots_2.jpg,Red_Star_Stripes_1.jpg,left,726.3050000183284,true,low,false
ByKJO7UY,3m67tqbqrk18ut4e0bwuqf8vno09av,30bxrybrp8a03wnuqulga5z2cajhwx,ByKJO7UY,2020-0188,2020-11-20,17:17:29,17:38:58,NA,incomplete,167,shape,1,left,Purple_Circle_Dots_2.jpg,Blue_Circle_Grid_3.jpg,Green_Triangle_Dots_4.jpg,left,551.02499993518,true,low,false
ByKJO7UY,3m67tqbqrk18ut4e0bwuqf8vno09av,30bxrybrp8a03wnuqulga5z2cajhwx,ByKJO7UY,2020-0188,2020-11-20,17:17:29,17:38:58,NA,incomplete,168,shape,1,right,Red_Star_Dots_1.jpg,Green_Plus_Dots_3.jpg,Purple_Star_Stripes_4.jpg,right,580.3600000217557,true,low,false
ByKJO7UY,3m67tqbqrk18ut4e0bwuqf8vno09av,30bxrybrp8a03wnuqulga5z2cajhwx,ByKJO7UY,2020-0188,2020-11-20,17:17:29,17:38:58,NA,incomplete,169,shape,1,left,Purple_Star_Stripes_4.jpg,Green_Star_Chess_1.jpg,Red_Plus_Stripes_3.jpg,left,647.3800000967458,true,low,false
ByKJO7UY,3m67tqbqrk18ut4e0bwuqf8vno09av,30bxrybrp8a03wnuqulga5z2cajhwx,ByKJO7UY,2020-0188,2020-11-20,17:17:29,17:38:58,NA,incomplete,170,shape,0,left,Red_Star_Grid_1.jpg,Blue_Star_Dots_3.jpg,Green_Plus_Grid_2.jpg,left,684.3500001123175,true,low,false
ByKJO7UY,3m67tqbqrk18ut4e0bwuqf8vno09av,30bxrybrp8a03wnuqulga5z2cajhwx,ByKJO7UY,2020-0188,2020-11-20,17:17:29,17:38:58,NA,incomplete,171,shape,1,left,Green_Circle_Grid_4.jpg,Red_Circle_Chess_1.jpg,Blue_Plus_Grid_2.jpg,left,579.3950000079349,true,low,false
ByKJO7UY,3m67tqbqrk18ut4e0bwuqf8vno09av,30bxrybrp8a03wnuqulga5z2cajhwx,ByKJO7UY,2020-0188,2020-11-20,17:17:29,17:38:58,NA,incomplete,172,shape,0,right,Green_Triangle_Stripes_4.jpg,Purple_Circle_Stripes_2.jpg,Blue_Triangle_Chess_1.jpg,right,690.7949999440461,true,low,false
ByKJO7UY,3m67tqbqrk18ut4e0bwuqf8vno09av,30bxrybrp8a03wnuqulga5z2cajhwx,ByKJO7UY,2020-0188,2020-11-20,17:17:29,17:38:58,NA,incomplete,173,shape,1,left,Red_Star_Grid_2.jpg,Green_Star_Chess_3.jpg,Blue_Plus_Grid_1.jpg,left,590.85999999661,true,low,false
ByKJO7UY,3m67tqbqrk18ut4e0bwuqf8vno09av,30bxrybrp8a03wnuqulga5z2cajhwx,ByKJO7UY,2020-0188,2020-11-20,17:17:29,17:38:58,NA,incomplete,174,shape,0,left,Red_Triangle_Chess_3.jpg,Purple_Triangle_Stripes_2.jpg,Blue_Circle_Chess_1.jpg,left,569.7050000308082,true,low,false
ByKJO7UY,3m67tqbqrk18ut4e0bwuqf8vno09av,30bxrybrp8a03wnuqulga5z2cajhwx,ByKJO7UY,2020-0188,2020-11-20,17:17:29,17:38:58,NA,incomplete,175,shape,1,right,Red_Circle_Grid_1.jpg,Green_Triangle_Grid_2.jpg,Purple_Circle_Chess_4.jpg,left,822.2250000108033,false,low,false
ByKJO7UY,3m67tqbqrk18ut4e0bwuqf8vno09av,30bxrybrp8a03wnuqulga5z2cajhwx,ByKJO7UY,2020-0188,2020-11-20,17:17:29,17:38:58,NA,incomplete,176,shape,1,right,Red_Plus_Chess_1.jpg,Blue_Triangle_Chess_2.jpg,Green_Plus_Stripes_3.jpg,left,943.9150000689551,false,low,false
ByKJO7UY,3m67tqbqrk18ut4e0bwuqf8vno09av,30bxrybrp8a03wnuqulga5z2cajhwx,ByKJO7UY,2020-0188,2020-11-20,17:17:29,17:38:58,NA,incomplete,177,shape,1,right,Blue_Circle_Grid_1.jpg,Green_Star_Grid_4.jpg,Purple_Circle_Stripes_2.jpg,right,602.4149999720976,true,low,false
ByKJO7UY,3m67tqbqrk18ut4e0bwuqf8vno09av,30bxrybrp8a03wnuqulga5z2cajhwx,ByKJO7UY,2020-0188,2020-11-20,17:17:29,17:38:58,NA,incomplete,178,shape,1,left,Purple_Star_Dots_1.jpg,Green_Star_Stripes_2.jpg,Blue_Circle_Dots_4.jpg,left,624.3600000161678,true,low,false
ByKJO7UY,3m67tqbqrk18ut4e0bwuqf8vno09av,30bxrybrp8a03wnuqulga5z2cajhwx,ByKJO7UY,2020-0188,2020-11-20,17:17:29,17:38:58,NA,incomplete,179,shape,1,right,Red_Plus_Dots_1.jpg,Green_Circle_Dots_3.jpg,Purple_Plus_Chess_2.jpg,right,950.5999999819323,true,low,false
ByKJO7UY,3m67tqbqrk18ut4e0bwuqf8vno09av,30bxrybrp8a03wnuqulga5z2cajhwx,ByKJO7UY,2020-0188,2020-11-20,17:17:29,17:38:58,NA,incomplete,180,filling,1,right,Red_Circle_Stripes_2.jpg,Blue_Circle_Dots_3.jpg,Purple_Plus_Stripes_4.jpg,left,531.0849999077618,false,low,false
ByKJO7UY,3m67tqbqrk18ut4e0bwuqf8vno09av,30bxrybrp8a03wnuqulga5z2cajhwx,ByKJO7UY,2020-0188,2020-11-20,17:17:29,17:38:58,NA,incomplete,181,filling,0,right,Purple_Triangle_Grid_3.jpg,Red_Triangle_Chess_4.jpg,Green_Circle_Grid_2.jpg,left,515.7200000248849,false,low,false
ByKJO7UY,3m67tqbqrk18ut4e0bwuqf8vno09av,30bxrybrp8a03wnuqulga5z2cajhwx,ByKJO7UY,2020-0188,2020-11-20,17:17:29,17:38:58,NA,incomplete,182,filling,1,right,Purple_Plus_Stripes_3.jpg,Red_Plus_Dots_1.jpg,Blue_Star_Stripes_4.jpg,left,744.8549999389797,false,low,false
ByKJO7UY,3m67tqbqrk18ut4e0bwuqf8vno09av,30bxrybrp8a03wnuqulga5z2cajhwx,ByKJO7UY,2020-0188,2020-11-20,17:17:29,17:38:58,NA,incomplete,183,filling,1,right,Purple_Triangle_Stripes_1.jpg,Green_Triangle_Chess_2.jpg,Blue_Circle_Stripes_3.jpg,right,916.3800000678748,true,low,false
ByKJO7UY,3m67tqbqrk18ut4e0bwuqf8vno09av,30bxrybrp8a03wnuqulga5z2cajhwx,ByKJO7UY,2020-0188,2020-11-20,17:17:29,17:38:58,NA,incomplete,184,filling,1,right,Red_Star_Grid_2.jpg,Green_Star_Chess_4.jpg,Purple_Circle_Grid_3.jpg,right,1013.2350000785664,true,low,false
ByKJO7UY,3m67tqbqrk18ut4e0bwuqf8vno09av,30bxrybrp8a03wnuqulga5z2cajhwx,ByKJO7UY,2020-0188,2020-11-20,17:17:29,17:38:58,NA,incomplete,185,filling,1,right,Purple_Circle_Dots_1.jpg,Blue_Circle_Grid_3.jpg,Green_Plus_Dots_4.jpg,right,850.6599999964237,true,low,false
ByKJO7UY,3m67tqbqrk18ut4e0bwuqf8vno09av,30bxrybrp8a03wnuqulga5z2cajhwx,ByKJO7UY,2020-0188,2020-11-20,17:17:29,17:38:58,NA,incomplete,186,filling,1,left,Red_Star_Stripes_2.jpg,Purple_Plus_Stripes_3.jpg,Blue_Star_Dots_4.jpg,left,905.2099999971688,true,low,false
ByKJO7UY,3m67tqbqrk18ut4e0bwuqf8vno09av,30bxrybrp8a03wnuqulga5z2cajhwx,ByKJO7UY,2020-0188,2020-11-20,17:17:29,17:38:58,NA,incomplete,187,filling,0,right,Blue_Triangle_Dots_2.jpg,Purple_Triangle_Stripes_1.jpg,Red_Plus_Dots_3.jpg,left,736.0049999551848,false,low,false
ByKJO7UY,3m67tqbqrk18ut4e0bwuqf8vno09av,30bxrybrp8a03wnuqulga5z2cajhwx,ByKJO7UY,2020-0188,2020-11-20,17:17:29,17:38:58,NA,incomplete,188,filling,1,left,Red_Star_Grid_3.jpg,Purple_Circle_Grid_2.jpg,Green_Star_Chess_1.jpg,left,834.3250000616536,true,low,false
ByKJO7UY,3m67tqbqrk18ut4e0bwuqf8vno09av,30bxrybrp8a03wnuqulga5z2cajhwx,ByKJO7UY,2020-0188,2020-11-20,17:17:29,17:38:58,NA,incomplete,189,filling,1,right,Blue_Star_Stripes_2.jpg,Red_Star_Chess_3.jpg,Green_Plus_Stripes_4.jpg,right,1330.504999961704,true,low,false
ByKJO7UY,3m67tqbqrk18ut4e0bwuqf8vno09av,30bxrybrp8a03wnuqulga5z2cajhwx,ByKJO7UY,2020-0188,2020-11-20,17:17:29,17:38:58,NA,incomplete,190,filling,1,right,Blue_Star_Grid_4.jpg,Red_Star_Stripes_1.jpg,Green_Plus_Grid_3.jpg,right,945.7150000380352,true,low,false
ByKJO7UY,3m67tqbqrk18ut4e0bwuqf8vno09av,30bxrybrp8a03wnuqulga5z2cajhwx,ByKJO7UY,2020-0188,2020-11-20,17:17:29,17:38:58,NA,incomplete,191,filling,1,left,Green_Circle_Grid_3.jpg,Red_Star_Grid_2.jpg,Blue_Circle_Chess_4.jpg,left,900.2300000283867,true,low,false
ByKJO7UY,3m67tqbqrk18ut4e0bwuqf8vno09av,30bxrybrp8a03wnuqulga5z2cajhwx,ByKJO7UY,2020-0188,2020-11-20,17:17:29,17:38:58,NA,incomplete,192,filling,1,left,Purple_Triangle_Chess_3.jpg,Red_Circle_Chess_4.jpg,Green_Triangle_Grid_1.jpg,left,828.2300001010299,true,low,false
ByKJO7UY,3m67tqbqrk18ut4e0bwuqf8vno09av,30bxrybrp8a03wnuqulga5z2cajhwx,ByKJO7UY,2020-0188,2020-11-20,17:17:29,17:38:58,NA,incomplete,193,filling,1,right,Blue_Star_Chess_3.jpg,Purple_Star_Grid_4.jpg,Green_Plus_Chess_2.jpg,right,997.6399999577552,true,low,false
ByKJO7UY,3m67tqbqrk18ut4e0bwuqf8vno09av,30bxrybrp8a03wnuqulga5z2cajhwx,ByKJO7UY,2020-0188,2020-11-20,17:17:29,17:38:58,NA,incomplete,194,filling,1,right,Blue_Star_Stripes_4.jpg,Red_Star_Grid_2.jpg,Green_Triangle_Stripes_1.jpg,right,1041.5700000012293,true,low,false
ByKJO7UY,3m67tqbqrk18ut4e0bwuqf8vno09av,30bxrybrp8a03wnuqulga5z2cajhwx,ByKJO7UY,2020-0188,2020-11-20,17:17:29,17:38:58,NA,incomplete,195,filling,0,right,Red_Circle_Chess_2.jpg,Green_Circle_Grid_1.jpg,Blue_Plus_Chess_4.jpg,right,966.5700000477955,true,low,false
ByKJO7UY,3m67tqbqrk18ut4e0bwuqf8vno09av,30bxrybrp8a03wnuqulga5z2cajhwx,ByKJO7UY,2020-0188,2020-11-20,17:17:29,17:38:58,NA,incomplete,196,filling,1,right,Red_Star_Chess_3.jpg,Blue_Star_Grid_2.jpg,Green_Triangle_Chess_4.jpg,right,1120.5250000348315,true,low,false
ByKJO7UY,3m67tqbqrk18ut4e0bwuqf8vno09av,30bxrybrp8a03wnuqulga5z2cajhwx,ByKJO7UY,2020-0188,2020-11-20,17:17:29,17:38:58,NA,incomplete,197,filling,1,right,Red_Circle_Dots_4.jpg,Purple_Circle_Chess_1.jpg,Blue_Triangle_Dots_2.jpg,right,825.4799999995157,true,low,false
ByKJO7UY,3m67tqbqrk18ut4e0bwuqf8vno09av,30bxrybrp8a03wnuqulga5z2cajhwx,ByKJO7UY,2020-0188,2020-11-20,17:17:29,17:38:58,NA,incomplete,198,filling,1,left,Red_Triangle_Dots_2.jpg,Green_Star_Dots_3.jpg,Blue_Triangle_Grid_4.jpg,left,836.9299999903888,true,low,false
ByKJO7UY,3m67tqbqrk18ut4e0bwuqf8vno09av,30bxrybrp8a03wnuqulga5z2cajhwx,ByKJO7UY,2020-0188,2020-11-20,17:17:29,17:38:58,NA,incomplete,199,filling,0,right,Blue_Star_Stripes_4.jpg,Purple_Star_Chess_2.jpg,Green_Triangle_Stripes_3.jpg,right,797.1400000387803,true,low,false
ByKJO7UY,3m67tqbqrk18ut4e0bwuqf8vno09av,30bxrybrp8a03wnuqulga5z2cajhwx,ByKJO7UY,2020-0188,2020-11-20,17:17:29,17:38:58,NA,incomplete,200,shape,1,left,Purple_Plus_Dots_4.jpg,Green_Plus_Stripes_3.jpg,Red_Triangle_Dots_1.jpg,right,867.6699999487028,false,low,false
ByKJO7UY,3m67tqbqrk18ut4e0bwuqf8vno09av,30bxrybrp8a03wnuqulga5z2cajhwx,ByKJO7UY,2020-0188,2020-11-20,17:17:29,17:38:58,NA,incomplete,201,shape,0,right,Green_Circle_Chess_1.jpg,Purple_Plus_Chess_4.jpg,Red_Circle_Stripes_3.jpg,left,784.6799999242648,false,low,false
ByKJO7UY,3m67tqbqrk18ut4e0bwuqf8vno09av,30bxrybrp8a03wnuqulga5z2cajhwx,ByKJO7UY,2020-0188,2020-11-20,17:17:29,17:38:58,NA,incomplete,202,shape,1,left,Green_Triangle_Stripes_1.jpg,Red_Triangle_Dots_3.jpg,Purple_Plus_Stripes_2.jpg,left,916.3100000005215,true,low,false
ByKJO7UY,3m67tqbqrk18ut4e0bwuqf8vno09av,30bxrybrp8a03wnuqulga5z2cajhwx,ByKJO7UY,2020-0188,2020-11-20,17:17:29,17:38:58,NA,incomplete,203,shape,1,right,Blue_Circle_Grid_1.jpg,Purple_Star_Grid_3.jpg,Red_Circle_Stripes_2.jpg,right,508.3749999757856,true,low,false
ByKJO7UY,3m67tqbqrk18ut4e0bwuqf8vno09av,30bxrybrp8a03wnuqulga5z2cajhwx,ByKJO7UY,2020-0188,2020-11-20,17:17:29,17:38:58,NA,incomplete,204,shape,1,left,Blue_Triangle_Stripes_3.jpg,Purple_Triangle_Grid_4.jpg,Red_Star_Stripes_2.jpg,left,534.87000009045,true,low,false
ByKJO7UY,3m67tqbqrk18ut4e0bwuqf8vno09av,30bxrybrp8a03wnuqulga5z2cajhwx,ByKJO7UY,2020-0188,2020-11-20,17:17:29,17:38:58,NA,incomplete,205,shape,0,left,Red_Star_Stripes_2.jpg,Purple_Star_Chess_3.jpg,Blue_Triangle_Stripes_1.jpg,left,610.5850000167266,true,low,false
ByKJO7UY,3m67tqbqrk18ut4e0bwuqf8vno09av,30bxrybrp8a03wnuqulga5z2cajhwx,ByKJO7UY,2020-0188,2020-11-20,17:17:29,17:38:58,NA,incomplete,206,shape,1,left,Green_Triangle_Grid_3.jpg,Purple_Triangle_Stripes_1.jpg,Red_Circle_Grid_2.jpg,right,1062.430000049062,false,low,false
ByKJO7UY,3m67tqbqrk18ut4e0bwuqf8vno09av,30bxrybrp8a03wnuqulga5z2cajhwx,ByKJO7UY,2020-0188,2020-11-20,17:17:29,17:38:58,NA,incomplete,207,shape,1,left,Green_Circle_Grid_3.jpg,Red_Circle_Dots_4.jpg,Purple_Plus_Grid_1.jpg,right,816.3750000530854,false,low,false
ByKJO7UY,3m67tqbqrk18ut4e0bwuqf8vno09av,30bxrybrp8a03wnuqulga5z2cajhwx,ByKJO7UY,2020-0188,2020-11-20,17:17:29,17:38:58,NA,incomplete,208,shape,0,left,Green_Circle_Chess_2.jpg,Purple_Circle_Stripes_4.jpg,Red_Triangle_Chess_3.jpg,left,617.2149999765679,true,low,false
ByKJO7UY,3m67tqbqrk18ut4e0bwuqf8vno09av,30bxrybrp8a03wnuqulga5z2cajhwx,ByKJO7UY,2020-0188,2020-11-20,17:17:29,17:38:58,NA,incomplete,209,shape,1,left,Red_Star_Stripes_2.jpg,Purple_Star_Chess_4.jpg,Blue_Plus_Stripes_1.jpg,right,905.765000032261,false,low,false
ByKJO7UY,3m67tqbqrk18ut4e0bwuqf8vno09av,30bxrybrp8a03wnuqulga5z2cajhwx,ByKJO7UY,2020-0188,2020-11-20,17:17:29,17:38:58,NA,incomplete,210,shape,1,left,Blue_Triangle_Dots_3.jpg,Red_Triangle_Chess_4.jpg,Purple_Plus_Dots_2.jpg,right,852.9949999647215,false,low,false
ByKJO7UY,3m67tqbqrk18ut4e0bwuqf8vno09av,30bxrybrp8a03wnuqulga5z2cajhwx,ByKJO7UY,2020-0188,2020-11-20,17:17:29,17:38:58,NA,incomplete,211,shape,1,left,Blue_Star_Dots_1.jpg,Green_Star_Grid_2.jpg,Purple_Triangle_Dots_3.jpg,left,714.7350000450388,true,low,false
ByKJO7UY,3m67tqbqrk18ut4e0bwuqf8vno09av,30bxrybrp8a03wnuqulga5z2cajhwx,ByKJO7UY,2020-0188,2020-11-20,17:17:29,17:38:58,NA,incomplete,212,shape,1,left,Red_Star_Chess_2.jpg,Green_Star_Dots_3.jpg,Blue_Plus_Chess_4.jpg,left,758.67000001017,true,low,false
ByKJO7UY,3m67tqbqrk18ut4e0bwuqf8vno09av,30bxrybrp8a03wnuqulga5z2cajhwx,ByKJO7UY,2020-0188,2020-11-20,17:17:29,17:38:58,NA,incomplete,213,shape,1,left,Red_Circle_Chess_4.jpg,Purple_Circle_Dots_2.jpg,Green_Star_Chess_1.jpg,left,563.689999980852,true,low,false
ByKJO7UY,3m67tqbqrk18ut4e0bwuqf8vno09av,30bxrybrp8a03wnuqulga5z2cajhwx,ByKJO7UY,2020-0188,2020-11-20,17:17:29,17:38:58,NA,incomplete,214,shape,0,right,Red_Plus_Dots_2.jpg,Green_Circle_Dots_4.jpg,Blue_Plus_Grid_1.jpg,right,634.1249999823049,true,low,false
ByKJO7UY,3m67tqbqrk18ut4e0bwuqf8vno09av,30bxrybrp8a03wnuqulga5z2cajhwx,ByKJO7UY,2020-0188,2020-11-20,17:17:29,17:38:58,NA,incomplete,215,shape,1,right,Green_Star_Chess_2.jpg,Red_Plus_Chess_3.jpg,Blue_Star_Stripes_4.jpg,right,586.8849999969825,true,low,false
ByKJO7UY,3m67tqbqrk18ut4e0bwuqf8vno09av,30bxrybrp8a03wnuqulga5z2cajhwx,ByKJO7UY,2020-0188,2020-11-20,17:17:29,17:38:58,NA,incomplete,216,shape,1,right,Green_Star_Dots_3.jpg,Blue_Triangle_Dots_1.jpg,Purple_Star_Stripes_4.jpg,right,616.2250000052154,true,low,false
ByKJO7UY,3m67tqbqrk18ut4e0bwuqf8vno09av,30bxrybrp8a03wnuqulga5z2cajhwx,ByKJO7UY,2020-0188,2020-11-20,17:17:29,17:38:58,NA,incomplete,217,shape,0,right,Red_Star_Stripes_3.jpg,Green_Plus_Stripes_4.jpg,Purple_Star_Grid_1.jpg,right,677.1350000053644,true,low,false
ByKJO7UY,3m67tqbqrk18ut4e0bwuqf8vno09av,30bxrybrp8a03wnuqulga5z2cajhwx,ByKJO7UY,2020-0188,2020-11-20,17:17:29,17:38:58,NA,incomplete,218,shape,1,left,Green_Plus_Dots_2.jpg,Purple_Plus_Stripes_1.jpg,Blue_Circle_Dots_3.jpg,left,839.4300000509247,true,low,false
ByKJO7UY,3m67tqbqrk18ut4e0bwuqf8vno09av,30bxrybrp8a03wnuqulga5z2cajhwx,ByKJO7UY,2020-0188,2020-11-20,17:17:29,17:38:58,NA,incomplete,219,shape,1,right,Purple_Triangle_Chess_4.jpg,Blue_Circle_Chess_2.jpg,Red_Triangle_Stripes_3.jpg,right,514.5900000352412,true,low,false
ByKJO7UY,3m67tqbqrk18ut4e0bwuqf8vno09av,30bxrybrp8a03wnuqulga5z2cajhwx,ByKJO7UY,2020-0188,2020-11-20,17:17:29,17:38:58,NA,incomplete,220,filling,1,left,Red_Plus_Stripes_2.jpg,Purple_Triangle_Stripes_3.jpg,Blue_Plus_Chess_4.jpg,right,717.3199999378994,false,low,false
ByKJO7UY,3m67tqbqrk18ut4e0bwuqf8vno09av,30bxrybrp8a03wnuqulga5z2cajhwx,ByKJO7UY,2020-0188,2020-11-20,17:17:29,17:38:58,NA,incomplete,221,filling,0,left,Green_Circle_Dots_4.jpg,Red_Triangle_Dots_1.jpg,Blue_Circle_Stripes_3.jpg,right,604.0899999206886,false,low,false
ByKJO7UY,3m67tqbqrk18ut4e0bwuqf8vno09av,30bxrybrp8a03wnuqulga5z2cajhwx,ByKJO7UY,2020-0188,2020-11-20,17:17:29,17:38:58,NA,incomplete,222,filling,1,right,Blue_Triangle_Dots_4.jpg,Red_Triangle_Chess_3.jpg,Green_Star_Dots_1.jpg,left,625.0100000761449,false,low,false
ByKJO7UY,3m67tqbqrk18ut4e0bwuqf8vno09av,30bxrybrp8a03wnuqulga5z2cajhwx,ByKJO7UY,2020-0188,2020-11-20,17:17:29,17:38:58,NA,incomplete,223,filling,1,left,Green_Triangle_Chess_4.jpg,Purple_Star_Chess_1.jpg,Red_Triangle_Dots_3.jpg,left,878.885000012815,true,low,false
ByKJO7UY,3m67tqbqrk18ut4e0bwuqf8vno09av,30bxrybrp8a03wnuqulga5z2cajhwx,ByKJO7UY,2020-0188,2020-11-20,17:17:29,17:38:58,NA,incomplete,224,filling,1,right,Blue_Circle_Stripes_2.jpg,Purple_Circle_Chess_4.jpg,Red_Plus_Stripes_1.jpg,right,802.4399999994785,true,low,false
ByKJO7UY,3m67tqbqrk18ut4e0bwuqf8vno09av,30bxrybrp8a03wnuqulga5z2cajhwx,ByKJO7UY,2020-0188,2020-11-20,17:17:29,17:38:58,NA,incomplete,225,filling,0,right,Red_Plus_Chess_4.jpg,Purple_Plus_Grid_3.jpg,Green_Triangle_Chess_1.jpg,right,1257.050000014715,true,low,false
ByKJO7UY,3m67tqbqrk18ut4e0bwuqf8vno09av,30bxrybrp8a03wnuqulga5z2cajhwx,ByKJO7UY,2020-0188,2020-11-20,17:17:29,17:38:58,NA,incomplete,226,filling,1,left,Purple_Plus_Stripes_1.jpg,Green_Triangle_Stripes_3.jpg,Blue_Plus_Chess_2.jpg,right,534.9799999967217,false,low,false
ByKJO7UY,3m67tqbqrk18ut4e0bwuqf8vno09av,30bxrybrp8a03wnuqulga5z2cajhwx,ByKJO7UY,2020-0188,2020-11-20,17:17:29,17:38:58,NA,incomplete,227,filling,1,right,Blue_Plus_Chess_1.jpg,Green_Plus_Stripes_2.jpg,Red_Triangle_Chess_3.jpg,right,836.5500000072643,true,low,false
ByKJO7UY,3m67tqbqrk18ut4e0bwuqf8vno09av,30bxrybrp8a03wnuqulga5z2cajhwx,ByKJO7UY,2020-0188,2020-11-20,17:17:29,17:38:58,NA,incomplete,228,filling,1,left,Green_Star_Dots_1.jpg,Purple_Circle_Dots_4.jpg,Blue_Star_Grid_3.jpg,left,844.0999999875203,true,low,false
ByKJO7UY,3m67tqbqrk18ut4e0bwuqf8vno09av,30bxrybrp8a03wnuqulga5z2cajhwx,ByKJO7UY,2020-0188,2020-11-20,17:17:29,17:38:58,NA,incomplete,229,filling,1,left,Purple_Plus_Chess_2.jpg,Green_Star_Chess_1.jpg,Red_Plus_Grid_3.jpg,left,891.8800000101328,true,low,false
ByKJO7UY,3m67tqbqrk18ut4e0bwuqf8vno09av,30bxrybrp8a03wnuqulga5z2cajhwx,ByKJO7UY,2020-0188,2020-11-20,17:17:29,17:38:58,NA,incomplete,230,filling,0,left,Red_Circle_Stripes_2.jpg,Purple_Triangle_Stripes_4.jpg,Green_Circle_Chess_3.jpg,left,836.0950000351295,true,low,false
ByKJO7UY,3m67tqbqrk18ut4e0bwuqf8vno09av,30bxrybrp8a03wnuqulga5z2cajhwx,ByKJO7UY,2020-0188,2020-11-20,17:17:29,17:38:58,NA,incomplete,231,filling,1,left,Green_Circle_Grid_4.jpg,Red_Plus_Grid_3.jpg,Blue_Circle_Chess_2.jpg,left,924.5050000026822,true,low,false
ByKJO7UY,3m67tqbqrk18ut4e0bwuqf8vno09av,30bxrybrp8a03wnuqulga5z2cajhwx,ByKJO7UY,2020-0188,2020-11-20,17:17:29,17:38:58,NA,incomplete,232,filling,0,right,Purple_Triangle_Chess_1.jpg,Blue_Triangle_Stripes_2.jpg,Red_Circle_Chess_4.jpg,right,794.6450000163168,true,low,false
ByKJO7UY,3m67tqbqrk18ut4e0bwuqf8vno09av,30bxrybrp8a03wnuqulga5z2cajhwx,ByKJO7UY,2020-0188,2020-11-20,17:17:29,17:38:58,NA,incomplete,233,filling,1,left,Red_Triangle_Stripes_4.jpg,Blue_Circle_Stripes_1.jpg,Green_Triangle_Dots_3.jpg,right,547.4199999589473,false,low,false
ByKJO7UY,3m67tqbqrk18ut4e0bwuqf8vno09av,30bxrybrp8a03wnuqulga5z2cajhwx,ByKJO7UY,2020-0188,2020-11-20,17:17:29,17:38:58,NA,incomplete,234,filling,1,right,Purple_Star_Dots_1.jpg,Green_Star_Grid_4.jpg,Red_Plus_Dots_2.jpg,right,858.6049999576062,true,low,false
ByKJO7UY,3m67tqbqrk18ut4e0bwuqf8vno09av,30bxrybrp8a03wnuqulga5z2cajhwx,ByKJO7UY,2020-0188,2020-11-20,17:17:29,17:38:58,NA,incomplete,235,filling,1,right,Green_Star_Stripes_4.jpg,Red_Star_Dots_3.jpg,Purple_Plus_Stripes_2.jpg,right,865.7749999547377,true,low,false
ByKJO7UY,3m67tqbqrk18ut4e0bwuqf8vno09av,30bxrybrp8a03wnuqulga5z2cajhwx,ByKJO7UY,2020-0188,2020-11-20,17:17:29,17:38:58,NA,incomplete,236,filling,1,right,Blue_Star_Grid_1.jpg,Purple_Star_Stripes_3.jpg,Green_Circle_Grid_2.jpg,right,1035.7500000391155,true,low,false
ByKJO7UY,3m67tqbqrk18ut4e0bwuqf8vno09av,30bxrybrp8a03wnuqulga5z2cajhwx,ByKJO7UY,2020-0188,2020-11-20,17:17:29,17:38:58,NA,incomplete,237,filling,1,right,Green_Circle_Grid_4.jpg,Blue_Circle_Stripes_1.jpg,Purple_Plus_Grid_3.jpg,right,856.5549999475479,true,low,false
ByKJO7UY,3m67tqbqrk18ut4e0bwuqf8vno09av,30bxrybrp8a03wnuqulga5z2cajhwx,ByKJO7UY,2020-0188,2020-11-20,17:17:29,17:38:58,NA,incomplete,238,filling,1,right,Red_Circle_Grid_3.jpg,Green_Circle_Dots_1.jpg,Blue_Plus_Grid_4.jpg,right,913.7349999509752,true,low,false
ByKJO7UY,3m67tqbqrk18ut4e0bwuqf8vno09av,30bxrybrp8a03wnuqulga5z2cajhwx,ByKJO7UY,2020-0188,2020-11-20,17:17:29,17:38:58,NA,incomplete,239,filling,1,right,Red_Plus_Chess_4.jpg,Green_Plus_Grid_1.jpg,Blue_Triangle_Chess_2.jpg,right,814.6450000349432,true,low,false
ByKJO7UY,3m67tqbqrk18ut4e0bwuqf8vno09av,30bxrybrp8a03wnuqulga5z2cajhwx,ByKJO7UY,2020-0188,2020-11-20,17:17:29,17:38:58,1255628.1200000085,1290649.2900000885,NA,NA,NA,NA,NA,NA,NA,NA,NA,NA,NA,undefined
