workerId,hitId,assignmentId,subject,studyid,exp_date,exp_start,exp_end,time_start,time_end,trial,type,reward_validity,answer,image_top,image_left,image_right,response,response_time,response_acc,volatility,practice
VQYIUQhP,3fhtjgyt9qduw7xo30k18rjdqjggpm,30x31n5d673smsy70j1nwu9dryoash,VQYIUQhP,2020-0188,2020-11-15,10:59:06,11:17:57,NA,incomplete,0,number,0,left,Blue_Circle_Chess_2.jpg,Red_Star_Stripes_2.jpg,Purple_Circle_Grid_3.jpg,left,1833.0050000004703,true,NA,true
VQYIUQhP,3fhtjgyt9qduw7xo30k18rjdqjggpm,30x31n5d673smsy70j1nwu9dryoash,VQYIUQhP,2020-0188,2020-11-15,10:59:06,11:17:57,NA,incomplete,1,number,1,right,Purple_Star_Grid_4.jpg,Red_Star_Dots_1.jpg,Blue_Plus_Stripes_4.jpg,right,1850.199999998964,true,NA,true
VQYIUQhP,3fhtjgyt9qduw7xo30k18rjdqjggpm,30x31n5d673smsy70j1nwu9dryoash,VQYIUQhP,2020-0188,2020-11-15,10:59:06,11:17:57,NA,incomplete,2,number,1,left,Purple_Plus_Grid_1.jpg,Red_Triangle_Chess_1.jpg,Blue_Plus_Dots_2.jpg,left,1606.0949999992154,true,NA,true
VQYIUQhP,3fhtjgyt9qduw7xo30k18rjdqjggpm,30x31n5d673smsy70j1nwu9dryoash,VQYIUQhP,2020-0188,2020-11-15,10:59:06,11:17:57,NA,incomplete,3,number,1,left,Blue_Star_Grid_2.jpg,Red_Circle_Dots_2.jpg,Purple_Star_Stripes_3.jpg,left,1130.3250000000698,true,NA,true
VQYIUQhP,3fhtjgyt9qduw7xo30k18rjdqjggpm,30x31n5d673smsy70j1nwu9dryoash,VQYIUQhP,2020-0188,2020-11-15,10:59:06,11:17:57,NA,incomplete,4,number,1,right,Green_Triangle_Grid_2.jpg,Red_Triangle_Chess_4.jpg,Blue_Circle_Stripes_2.jpg,right,921.3749999999418,true,NA,true
VQYIUQhP,3fhtjgyt9qduw7xo30k18rjdqjggpm,30x31n5d673smsy70j1nwu9dryoash,VQYIUQhP,2020-0188,2020-11-15,10:59:06,11:17:57,NA,incomplete,5,number,1,left,Red_Plus_Dots_2.jpg,Green_Circle_Chess_2.jpg,Blue_Plus_Grid_4.jpg,left,1256.7650000000722,true,NA,true
VQYIUQhP,3fhtjgyt9qduw7xo30k18rjdqjggpm,30x31n5d673smsy70j1nwu9dryoash,VQYIUQhP,2020-0188,2020-11-15,10:59:06,11:17:57,NA,incomplete,6,number,1,right,Red_Circle_Dots_1.jpg,Green_Circle_Grid_4.jpg,Purple_Triangle_Chess_1.jpg,right,1010.4150000006193,true,NA,true
VQYIUQhP,3fhtjgyt9qduw7xo30k18rjdqjggpm,30x31n5d673smsy70j1nwu9dryoash,VQYIUQhP,2020-0188,2020-11-15,10:59:06,11:17:57,NA,incomplete,7,number,0,right,Purple_Star_Chess_1.jpg,Blue_Star_Stripes_4.jpg,Red_Triangle_Dots_1.jpg,right,814.465000001248,true,NA,true
VQYIUQhP,3fhtjgyt9qduw7xo30k18rjdqjggpm,30x31n5d673smsy70j1nwu9dryoash,VQYIUQhP,2020-0188,2020-11-15,10:59:06,11:17:57,NA,incomplete,8,number,1,left,Purple_Star_Chess_3.jpg,Red_Plus_Stripes_3.jpg,Blue_Star_Grid_2.jpg,left,1555.4699999993318,true,NA,true
VQYIUQhP,3fhtjgyt9qduw7xo30k18rjdqjggpm,30x31n5d673smsy70j1nwu9dryoash,VQYIUQhP,2020-0188,2020-11-15,10:59:06,11:17:57,NA,incomplete,9,number,1,left,Green_Plus_Dots_2.jpg,Purple_Star_Grid_2.jpg,Red_Plus_Stripes_4.jpg,left,976.0750000004773,true,NA,true
VQYIUQhP,3fhtjgyt9qduw7xo30k18rjdqjggpm,30x31n5d673smsy70j1nwu9dryoash,VQYIUQhP,2020-0188,2020-11-15,10:59:06,11:17:57,NA,incomplete,10,number,1,right,Red_Triangle_Stripes_2.jpg,Purple_Triangle_Dots_4.jpg,Blue_Circle_Grid_2.jpg,right,1157.7299999989918,true,NA,true
VQYIUQhP,3fhtjgyt9qduw7xo30k18rjdqjggpm,30x31n5d673smsy70j1nwu9dryoash,VQYIUQhP,2020-0188,2020-11-15,10:59:06,11:17:57,NA,incomplete,11,number,0,right,Purple_Star_Grid_1.jpg,Blue_Star_Stripes_2.jpg,Green_Circle_Dots_1.jpg,right,1131.9100000000908,true,NA,true
VQYIUQhP,3fhtjgyt9qduw7xo30k18rjdqjggpm,30x31n5d673smsy70j1nwu9dryoash,VQYIUQhP,2020-0188,2020-11-15,10:59:06,11:17:57,NA,incomplete,12,number,1,right,Purple_Star_Dots_3.jpg,Blue_Star_Chess_4.jpg,Red_Triangle_Stripes_3.jpg,right,1116.0749999999534,true,NA,true
VQYIUQhP,3fhtjgyt9qduw7xo30k18rjdqjggpm,30x31n5d673smsy70j1nwu9dryoash,VQYIUQhP,2020-0188,2020-11-15,10:59:06,11:17:57,NA,incomplete,13,number,1,right,Red_Plus_Chess_2.jpg,Blue_Plus_Stripes_3.jpg,Purple_Triangle_Grid_2.jpg,right,834.9500000003609,true,NA,true
VQYIUQhP,3fhtjgyt9qduw7xo30k18rjdqjggpm,30x31n5d673smsy70j1nwu9dryoash,VQYIUQhP,2020-0188,2020-11-15,10:59:06,11:17:57,NA,incomplete,14,number,1,right,Purple_Circle_Chess_2.jpg,Red_Circle_Grid_1.jpg,Blue_Plus_Stripes_2.jpg,right,949.6699999999255,true,NA,true
VQYIUQhP,3fhtjgyt9qduw7xo30k18rjdqjggpm,30x31n5d673smsy70j1nwu9dryoash,VQYIUQhP,2020-0188,2020-11-15,10:59:06,11:17:57,NA,incomplete,15,number,1,right,Purple_Plus_Chess_3.jpg,Red_Plus_Grid_4.jpg,Green_Star_Dots_3.jpg,right,1020.3249999994878,true,NA,true
VQYIUQhP,3fhtjgyt9qduw7xo30k18rjdqjggpm,30x31n5d673smsy70j1nwu9dryoash,VQYIUQhP,2020-0188,2020-11-15,10:59:06,11:17:57,NA,incomplete,16,number,1,right,Blue_Triangle_Chess_2.jpg,Purple_Triangle_Grid_3.jpg,Green_Star_Stripes_2.jpg,right,1165.9500000004773,true,NA,true
VQYIUQhP,3fhtjgyt9qduw7xo30k18rjdqjggpm,30x31n5d673smsy70j1nwu9dryoash,VQYIUQhP,2020-0188,2020-11-15,10:59:06,11:17:57,NA,incomplete,17,number,0,left,Blue_Circle_Chess_2.jpg,Red_Plus_Grid_2.jpg,Green_Circle_Stripes_3.jpg,left,837.5550000001094,true,NA,true
VQYIUQhP,3fhtjgyt9qduw7xo30k18rjdqjggpm,30x31n5d673smsy70j1nwu9dryoash,VQYIUQhP,2020-0188,2020-11-15,10:59:06,11:17:57,NA,incomplete,18,number,0,right,Purple_Plus_Grid_1.jpg,Green_Plus_Chess_2.jpg,Blue_Star_Dots_1.jpg,right,647.6800000000512,true,NA,true
VQYIUQhP,3fhtjgyt9qduw7xo30k18rjdqjggpm,30x31n5d673smsy70j1nwu9dryoash,VQYIUQhP,2020-0188,2020-11-15,10:59:06,11:17:57,NA,incomplete,19,number,1,left,Blue_Circle_Dots_2.jpg,Purple_Triangle_Stripes_2.jpg,Green_Circle_Grid_4.jpg,left,842.2449999998207,true,NA,true
VQYIUQhP,3fhtjgyt9qduw7xo30k18rjdqjggpm,30x31n5d673smsy70j1nwu9dryoash,VQYIUQhP,2020-0188,2020-11-15,10:59:06,11:17:57,NA,incomplete,20,shape,1,right,Red_Plus_Chess_3.jpg,Green_Circle_Dots_3.jpg,Purple_Plus_Stripes_4.jpg,left,900.4600000007777,false,NA,true
VQYIUQhP,3fhtjgyt9qduw7xo30k18rjdqjggpm,30x31n5d673smsy70j1nwu9dryoash,VQYIUQhP,2020-0188,2020-11-15,10:59:06,11:17:57,NA,incomplete,21,shape,1,right,Red_Circle_Grid_3.jpg,Green_Triangle_Chess_3.jpg,Purple_Circle_Stripes_2.jpg,left,956.4350000000559,false,NA,true
VQYIUQhP,3fhtjgyt9qduw7xo30k18rjdqjggpm,30x31n5d673smsy70j1nwu9dryoash,VQYIUQhP,2020-0188,2020-11-15,10:59:06,11:17:57,NA,incomplete,22,shape,1,right,Red_Triangle_Stripes_2.jpg,Purple_Circle_Grid_2.jpg,Blue_Triangle_Chess_4.jpg,left,771.5849999985658,false,NA,true
VQYIUQhP,3fhtjgyt9qduw7xo30k18rjdqjggpm,30x31n5d673smsy70j1nwu9dryoash,VQYIUQhP,2020-0188,2020-11-15,10:59:06,11:17:57,NA,incomplete,23,shape,1,left,Blue_Triangle_Chess_4.jpg,Purple_Triangle_Stripes_1.jpg,Red_Star_Grid_4.jpg,left,1434.079999999085,true,NA,true
VQYIUQhP,3fhtjgyt9qduw7xo30k18rjdqjggpm,30x31n5d673smsy70j1nwu9dryoash,VQYIUQhP,2020-0188,2020-11-15,10:59:06,11:17:57,NA,incomplete,24,shape,1,left,Red_Circle_Chess_3.jpg,Blue_Circle_Stripes_1.jpg,Green_Star_Dots_3.jpg,left,1083.7549999996554,true,NA,true
VQYIUQhP,3fhtjgyt9qduw7xo30k18rjdqjggpm,30x31n5d673smsy70j1nwu9dryoash,VQYIUQhP,2020-0188,2020-11-15,10:59:06,11:17:57,NA,incomplete,25,shape,1,left,Green_Triangle_Chess_1.jpg,Red_Triangle_Stripes_3.jpg,Blue_Circle_Dots_1.jpg,left,916.9250000013271,true,NA,true
VQYIUQhP,3fhtjgyt9qduw7xo30k18rjdqjggpm,30x31n5d673smsy70j1nwu9dryoash,VQYIUQhP,2020-0188,2020-11-15,10:59:06,11:17:57,NA,incomplete,26,shape,0,right,Blue_Triangle_Chess_1.jpg,Green_Star_Grid_1.jpg,Purple_Triangle_Stripes_4.jpg,right,636.9200000008568,true,NA,true
VQYIUQhP,3fhtjgyt9qduw7xo30k18rjdqjggpm,30x31n5d673smsy70j1nwu9dryoash,VQYIUQhP,2020-0188,2020-11-15,10:59:06,11:17:57,NA,incomplete,27,shape,1,left,Purple_Plus_Stripes_1.jpg,Blue_Plus_Chess_3.jpg,Red_Star_Dots_1.jpg,left,888.0800000005984,true,NA,true
VQYIUQhP,3fhtjgyt9qduw7xo30k18rjdqjggpm,30x31n5d673smsy70j1nwu9dryoash,VQYIUQhP,2020-0188,2020-11-15,10:59:06,11:17:57,NA,incomplete,28,shape,1,right,Green_Star_Stripes_4.jpg,Purple_Triangle_Chess_4.jpg,Red_Star_Grid_2.jpg,right,1288.1899999993038,true,NA,true
VQYIUQhP,3fhtjgyt9qduw7xo30k18rjdqjggpm,30x31n5d673smsy70j1nwu9dryoash,VQYIUQhP,2020-0188,2020-11-15,10:59:06,11:17:57,NA,incomplete,29,shape,1,right,Blue_Star_Dots_3.jpg,Red_Circle_Stripes_3.jpg,Green_Star_Chess_2.jpg,right,912.3949999993783,true,NA,true
VQYIUQhP,3fhtjgyt9qduw7xo30k18rjdqjggpm,30x31n5d673smsy70j1nwu9dryoash,VQYIUQhP,2020-0188,2020-11-15,10:59:06,11:17:57,NA,incomplete,30,shape,1,right,Red_Plus_Grid_1.jpg,Green_Star_Dots_1.jpg,Purple_Plus_Stripes_2.jpg,right,768.0700000001234,true,NA,true
VQYIUQhP,3fhtjgyt9qduw7xo30k18rjdqjggpm,30x31n5d673smsy70j1nwu9dryoash,VQYIUQhP,2020-0188,2020-11-15,10:59:06,11:17:57,NA,incomplete,31,shape,1,left,Green_Triangle_Grid_3.jpg,Red_Triangle_Chess_4.jpg,Blue_Circle_Stripes_3.jpg,left,917.7799999997951,true,NA,true
VQYIUQhP,3fhtjgyt9qduw7xo30k18rjdqjggpm,30x31n5d673smsy70j1nwu9dryoash,VQYIUQhP,2020-0188,2020-11-15,10:59:06,11:17:57,NA,incomplete,32,shape,1,right,Purple_Circle_Grid_1.jpg,Blue_Star_Dots_1.jpg,Red_Circle_Chess_3.jpg,right,997.7400000007474,true,NA,true
VQYIUQhP,3fhtjgyt9qduw7xo30k18rjdqjggpm,30x31n5d673smsy70j1nwu9dryoash,VQYIUQhP,2020-0188,2020-11-15,10:59:06,11:17:57,NA,incomplete,33,shape,0,right,Green_Circle_Chess_2.jpg,Red_Plus_Grid_2.jpg,Blue_Circle_Dots_1.jpg,right,761.5900000000838,true,NA,true
VQYIUQhP,3fhtjgyt9qduw7xo30k18rjdqjggpm,30x31n5d673smsy70j1nwu9dryoash,VQYIUQhP,2020-0188,2020-11-15,10:59:06,11:17:57,NA,incomplete,34,shape,1,right,Blue_Plus_Chess_4.jpg,Red_Star_Grid_4.jpg,Green_Plus_Stripes_1.jpg,right,992.0549999987707,true,NA,true
VQYIUQhP,3fhtjgyt9qduw7xo30k18rjdqjggpm,30x31n5d673smsy70j1nwu9dryoash,VQYIUQhP,2020-0188,2020-11-15,10:59:06,11:17:57,NA,incomplete,35,shape,1,right,Green_Triangle_Grid_4.jpg,Blue_Circle_Chess_4.jpg,Red_Triangle_Stripes_3.jpg,right,724.2299999998068,true,NA,true
VQYIUQhP,3fhtjgyt9qduw7xo30k18rjdqjggpm,30x31n5d673smsy70j1nwu9dryoash,VQYIUQhP,2020-0188,2020-11-15,10:59:06,11:17:57,NA,incomplete,36,shape,1,left,Green_Circle_Dots_3.jpg,Blue_Circle_Grid_1.jpg,Purple_Star_Stripes_3.jpg,left,667.6299999999464,true,NA,true
VQYIUQhP,3fhtjgyt9qduw7xo30k18rjdqjggpm,30x31n5d673smsy70j1nwu9dryoash,VQYIUQhP,2020-0188,2020-11-15,10:59:06,11:17:57,NA,incomplete,37,shape,1,right,Red_Plus_Grid_3.jpg,Purple_Circle_Stripes_3.jpg,Green_Plus_Dots_4.jpg,right,622.2849999995087,true,NA,true
VQYIUQhP,3fhtjgyt9qduw7xo30k18rjdqjggpm,30x31n5d673smsy70j1nwu9dryoash,VQYIUQhP,2020-0188,2020-11-15,10:59:06,11:17:57,NA,incomplete,38,shape,1,right,Purple_Triangle_Dots_3.jpg,Red_Plus_Grid_3.jpg,Green_Triangle_Chess_2.jpg,right,752.2950000002165,true,NA,true
VQYIUQhP,3fhtjgyt9qduw7xo30k18rjdqjggpm,30x31n5d673smsy70j1nwu9dryoash,VQYIUQhP,2020-0188,2020-11-15,10:59:06,11:17:57,NA,incomplete,39,shape,0,left,Blue_Plus_Chess_4.jpg,Green_Plus_Grid_1.jpg,Purple_Circle_Stripes_4.jpg,left,758.3350000004284,true,NA,true
VQYIUQhP,3fhtjgyt9qduw7xo30k18rjdqjggpm,30x31n5d673smsy70j1nwu9dryoash,VQYIUQhP,2020-0188,2020-11-15,10:59:06,11:17:57,NA,incomplete,0,number,1,left,Blue_Star_Stripes_3.jpg,Green_Circle_Dots_3.jpg,Purple_Star_Chess_1.jpg,right,818.1500000009546,false,low,false
VQYIUQhP,3fhtjgyt9qduw7xo30k18rjdqjggpm,30x31n5d673smsy70j1nwu9dryoash,VQYIUQhP,2020-0188,2020-11-15,10:59:06,11:17:57,NA,incomplete,1,number,1,right,Green_Triangle_Dots_2.jpg,Blue_Triangle_Stripes_1.jpg,Red_Plus_Chess_2.jpg,right,813.1649999995716,true,low,false
VQYIUQhP,3fhtjgyt9qduw7xo30k18rjdqjggpm,30x31n5d673smsy70j1nwu9dryoash,VQYIUQhP,2020-0188,2020-11-15,10:59:06,11:17:57,NA,incomplete,2,number,1,left,Purple_Circle_Stripes_1.jpg,Blue_Plus_Chess_1.jpg,Red_Circle_Grid_2.jpg,left,665.5000000009895,true,low,false
VQYIUQhP,3fhtjgyt9qduw7xo30k18rjdqjggpm,30x31n5d673smsy70j1nwu9dryoash,VQYIUQhP,2020-0188,2020-11-15,10:59:06,11:17:57,NA,incomplete,3,number,0,right,Green_Plus_Stripes_3.jpg,Red_Plus_Chess_2.jpg,Blue_Star_Grid_3.jpg,right,1547.2949999985285,true,low,false
VQYIUQhP,3fhtjgyt9qduw7xo30k18rjdqjggpm,30x31n5d673smsy70j1nwu9dryoash,VQYIUQhP,2020-0188,2020-11-15,10:59:06,11:17:57,NA,incomplete,4,number,1,left,Green_Circle_Stripes_2.jpg,Red_Triangle_Chess_2.jpg,Blue_Circle_Dots_3.jpg,left,803.0699999999488,true,low,false
VQYIUQhP,3fhtjgyt9qduw7xo30k18rjdqjggpm,30x31n5d673smsy70j1nwu9dryoash,VQYIUQhP,2020-0188,2020-11-15,10:59:06,11:17:57,NA,incomplete,5,number,1,right,Green_Plus_Grid_4.jpg,Red_Plus_Dots_2.jpg,Blue_Star_Chess_4.jpg,right,886.2549999994226,true,low,false
VQYIUQhP,3fhtjgyt9qduw7xo30k18rjdqjggpm,30x31n5d673smsy70j1nwu9dryoash,VQYIUQhP,2020-0188,2020-11-15,10:59:06,11:17:57,NA,incomplete,6,number,0,right,Blue_Plus_Chess_1.jpg,Red_Plus_Grid_4.jpg,Green_Triangle_Stripes_1.jpg,right,734.2749999989173,true,low,false
VQYIUQhP,3fhtjgyt9qduw7xo30k18rjdqjggpm,30x31n5d673smsy70j1nwu9dryoash,VQYIUQhP,2020-0188,2020-11-15,10:59:06,11:17:57,NA,incomplete,7,number,1,left,Blue_Plus_Stripes_1.jpg,Red_Star_Grid_1.jpg,Green_Plus_Chess_3.jpg,left,613.1700000005658,true,low,false
VQYIUQhP,3fhtjgyt9qduw7xo30k18rjdqjggpm,30x31n5d673smsy70j1nwu9dryoash,VQYIUQhP,2020-0188,2020-11-15,10:59:06,11:17:57,NA,incomplete,8,number,1,left,Purple_Circle_Grid_4.jpg,Red_Plus_Stripes_4.jpg,Green_Circle_Chess_3.jpg,left,889.1849999999977,true,low,false
VQYIUQhP,3fhtjgyt9qduw7xo30k18rjdqjggpm,30x31n5d673smsy70j1nwu9dryoash,VQYIUQhP,2020-0188,2020-11-15,10:59:06,11:17:57,NA,incomplete,9,number,1,left,Purple_Circle_Grid_4.jpg,Red_Plus_Chess_4.jpg,Green_Circle_Stripes_1.jpg,left,594.8150000003516,true,low,false
VQYIUQhP,3fhtjgyt9qduw7xo30k18rjdqjggpm,30x31n5d673smsy70j1nwu9dryoash,VQYIUQhP,2020-0188,2020-11-15,10:59:06,11:17:57,NA,incomplete,10,number,1,right,Blue_Star_Grid_1.jpg,Purple_Star_Dots_3.jpg,Green_Triangle_Chess_1.jpg,right,726.7700000011828,true,low,false
VQYIUQhP,3fhtjgyt9qduw7xo30k18rjdqjggpm,30x31n5d673smsy70j1nwu9dryoash,VQYIUQhP,2020-0188,2020-11-15,10:59:06,11:17:57,NA,incomplete,11,number,1,right,Purple_Circle_Stripes_3.jpg,Red_Circle_Chess_2.jpg,Green_Plus_Dots_3.jpg,right,757.8749999993015,true,low,false
VQYIUQhP,3fhtjgyt9qduw7xo30k18rjdqjggpm,30x31n5d673smsy70j1nwu9dryoash,VQYIUQhP,2020-0188,2020-11-15,10:59:06,11:17:57,NA,incomplete,12,number,1,left,Purple_Triangle_Chess_3.jpg,Blue_Circle_Grid_3.jpg,Green_Triangle_Dots_2.jpg,left,756.0749999992549,true,low,false
VQYIUQhP,3fhtjgyt9qduw7xo30k18rjdqjggpm,30x31n5d673smsy70j1nwu9dryoash,VQYIUQhP,2020-0188,2020-11-15,10:59:06,11:17:57,NA,incomplete,13,number,1,left,Blue_Star_Grid_4.jpg,Red_Triangle_Dots_4.jpg,Purple_Star_Stripes_1.jpg,left,746.0250000003725,true,low,false
VQYIUQhP,3fhtjgyt9qduw7xo30k18rjdqjggpm,30x31n5d673smsy70j1nwu9dryoash,VQYIUQhP,2020-0188,2020-11-15,10:59:06,11:17:57,NA,incomplete,14,number,1,left,Purple_Plus_Chess_3.jpg,Red_Triangle_Stripes_3.jpg,Green_Plus_Grid_2.jpg,left,761.4599999997299,true,low,false
VQYIUQhP,3fhtjgyt9qduw7xo30k18rjdqjggpm,30x31n5d673smsy70j1nwu9dryoash,VQYIUQhP,2020-0188,2020-11-15,10:59:06,11:17:57,NA,incomplete,15,number,1,left,Blue_Star_Chess_3.jpg,Purple_Circle_Dots_3.jpg,Red_Star_Stripes_2.jpg,left,862.2599999998929,true,low,false
VQYIUQhP,3fhtjgyt9qduw7xo30k18rjdqjggpm,30x31n5d673smsy70j1nwu9dryoash,VQYIUQhP,2020-0188,2020-11-15,10:59:06,11:17:57,NA,incomplete,16,number,1,right,Purple_Star_Grid_4.jpg,Red_Star_Dots_1.jpg,Blue_Circle_Chess_4.jpg,right,736.5499999996973,true,low,false
VQYIUQhP,3fhtjgyt9qduw7xo30k18rjdqjggpm,30x31n5d673smsy70j1nwu9dryoash,VQYIUQhP,2020-0188,2020-11-15,10:59:06,11:17:57,NA,incomplete,17,number,1,right,Purple_Plus_Chess_2.jpg,Green_Plus_Grid_3.jpg,Blue_Star_Stripes_2.jpg,right,727.2250000005588,true,low,false
VQYIUQhP,3fhtjgyt9qduw7xo30k18rjdqjggpm,30x31n5d673smsy70j1nwu9dryoash,VQYIUQhP,2020-0188,2020-11-15,10:59:06,11:17:57,NA,incomplete,18,number,0,right,Blue_Circle_Chess_3.jpg,Green_Circle_Grid_1.jpg,Purple_Star_Dots_3.jpg,right,854.4799999999814,true,low,false
VQYIUQhP,3fhtjgyt9qduw7xo30k18rjdqjggpm,30x31n5d673smsy70j1nwu9dryoash,VQYIUQhP,2020-0188,2020-11-15,10:59:06,11:17:57,NA,incomplete,19,number,1,left,Purple_Plus_Stripes_1.jpg,Green_Triangle_Grid_1.jpg,Red_Plus_Dots_4.jpg,left,568.9650000004331,true,low,false
VQYIUQhP,3fhtjgyt9qduw7xo30k18rjdqjggpm,30x31n5d673smsy70j1nwu9dryoash,VQYIUQhP,2020-0188,2020-11-15,10:59:06,11:17:57,NA,incomplete,20,number,1,left,Blue_Plus_Chess_3.jpg,Purple_Star_Stripes_3.jpg,Red_Plus_Grid_4.jpg,left,669.2750000002561,true,low,false
VQYIUQhP,3fhtjgyt9qduw7xo30k18rjdqjggpm,30x31n5d673smsy70j1nwu9dryoash,VQYIUQhP,2020-0188,2020-11-15,10:59:06,11:17:57,NA,incomplete,21,number,1,left,Purple_Circle_Stripes_4.jpg,Blue_Triangle_Grid_4.jpg,Red_Circle_Dots_3.jpg,left,678.8550000000978,true,low,false
VQYIUQhP,3fhtjgyt9qduw7xo30k18rjdqjggpm,30x31n5d673smsy70j1nwu9dryoash,VQYIUQhP,2020-0188,2020-11-15,10:59:06,11:17:57,NA,incomplete,22,number,1,right,Green_Plus_Grid_2.jpg,Purple_Plus_Dots_1.jpg,Red_Star_Chess_2.jpg,right,856.2649999985006,true,low,false
VQYIUQhP,3fhtjgyt9qduw7xo30k18rjdqjggpm,30x31n5d673smsy70j1nwu9dryoash,VQYIUQhP,2020-0188,2020-11-15,10:59:06,11:17:57,NA,incomplete,23,number,0,left,Green_Plus_Chess_2.jpg,Red_Triangle_Grid_2.jpg,Blue_Plus_Stripes_1.jpg,left,570.4350000014529,true,low,false
VQYIUQhP,3fhtjgyt9qduw7xo30k18rjdqjggpm,30x31n5d673smsy70j1nwu9dryoash,VQYIUQhP,2020-0188,2020-11-15,10:59:06,11:17:57,NA,incomplete,24,number,0,left,Purple_Circle_Chess_4.jpg,Blue_Star_Stripes_4.jpg,Green_Circle_Dots_1.jpg,left,647.9099999996834,true,low,false
VQYIUQhP,3fhtjgyt9qduw7xo30k18rjdqjggpm,30x31n5d673smsy70j1nwu9dryoash,VQYIUQhP,2020-0188,2020-11-15,10:59:06,11:17:57,NA,incomplete,25,number,1,left,Blue_Plus_Chess_4.jpg,Red_Star_Stripes_4.jpg,Green_Plus_Grid_1.jpg,left,802.2799999997951,true,low,false
VQYIUQhP,3fhtjgyt9qduw7xo30k18rjdqjggpm,30x31n5d673smsy70j1nwu9dryoash,VQYIUQhP,2020-0188,2020-11-15,10:59:06,11:17:57,NA,incomplete,26,number,1,left,Purple_Triangle_Grid_3.jpg,Green_Star_Chess_3.jpg,Blue_Triangle_Stripes_1.jpg,left,694.3199999986682,true,low,false
VQYIUQhP,3fhtjgyt9qduw7xo30k18rjdqjggpm,30x31n5d673smsy70j1nwu9dryoash,VQYIUQhP,2020-0188,2020-11-15,10:59:06,11:17:57,NA,incomplete,27,number,0,right,Green_Circle_Chess_1.jpg,Purple_Circle_Dots_3.jpg,Red_Star_Grid_1.jpg,right,671.070000000298,true,low,false
VQYIUQhP,3fhtjgyt9qduw7xo30k18rjdqjggpm,30x31n5d673smsy70j1nwu9dryoash,VQYIUQhP,2020-0188,2020-11-15,10:59:06,11:17:57,NA,incomplete,28,number,1,left,Green_Triangle_Dots_4.jpg,Purple_Star_Stripes_4.jpg,Blue_Triangle_Grid_3.jpg,left,904.2049999989104,true,low,false
VQYIUQhP,3fhtjgyt9qduw7xo30k18rjdqjggpm,30x31n5d673smsy70j1nwu9dryoash,VQYIUQhP,2020-0188,2020-11-15,10:59:06,11:17:57,NA,incomplete,29,number,0,left,Blue_Plus_Chess_2.jpg,Purple_Triangle_Dots_2.jpg,Green_Plus_Stripes_4.jpg,left,640.9499999991385,true,low,false
VQYIUQhP,3fhtjgyt9qduw7xo30k18rjdqjggpm,30x31n5d673smsy70j1nwu9dryoash,VQYIUQhP,2020-0188,2020-11-15,10:59:06,11:17:57,NA,incomplete,30,shape,1,right,Blue_Circle_Grid_2.jpg,Red_Plus_Stripes_2.jpg,Purple_Circle_Chess_4.jpg,left,777.4049999988638,false,low,false
VQYIUQhP,3fhtjgyt9qduw7xo30k18rjdqjggpm,30x31n5d673smsy70j1nwu9dryoash,VQYIUQhP,2020-0188,2020-11-15,10:59:06,11:17:57,NA,incomplete,31,shape,1,left,Purple_Triangle_Grid_3.jpg,Green_Triangle_Stripes_1.jpg,Blue_Star_Chess_3.jpg,right,791.9450000008801,false,low,false
VQYIUQhP,3fhtjgyt9qduw7xo30k18rjdqjggpm,30x31n5d673smsy70j1nwu9dryoash,VQYIUQhP,2020-0188,2020-11-15,10:59:06,11:17:57,NA,incomplete,32,shape,1,left,Red_Star_Stripes_1.jpg,Blue_Star_Grid_2.jpg,Green_Triangle_Chess_1.jpg,left,1221.0599999999395,true,low,false
VQYIUQhP,3fhtjgyt9qduw7xo30k18rjdqjggpm,30x31n5d673smsy70j1nwu9dryoash,VQYIUQhP,2020-0188,2020-11-15,10:59:06,11:17:57,NA,incomplete,33,shape,1,left,Blue_Triangle_Stripes_1.jpg,Green_Triangle_Dots_2.jpg,Red_Star_Grid_1.jpg,left,631.8650000011548,true,low,false
VQYIUQhP,3fhtjgyt9qduw7xo30k18rjdqjggpm,30x31n5d673smsy70j1nwu9dryoash,VQYIUQhP,2020-0188,2020-11-15,10:59:06,11:17:57,NA,incomplete,34,shape,1,left,Red_Triangle_Dots_3.jpg,Blue_Triangle_Stripes_1.jpg,Green_Star_Grid_3.jpg,left,676.0849999991478,true,low,false
VQYIUQhP,3fhtjgyt9qduw7xo30k18rjdqjggpm,30x31n5d673smsy70j1nwu9dryoash,VQYIUQhP,2020-0188,2020-11-15,10:59:06,11:17:57,NA,incomplete,35,shape,1,right,Blue_Circle_Grid_3.jpg,Green_Star_Dots_3.jpg,Purple_Circle_Chess_1.jpg,right,644.6699999996927,true,low,false
VQYIUQhP,3fhtjgyt9qduw7xo30k18rjdqjggpm,30x31n5d673smsy70j1nwu9dryoash,VQYIUQhP,2020-0188,2020-11-15,10:59:06,11:17:57,NA,incomplete,36,shape,0,left,Green_Star_Grid_3.jpg,Blue_Star_Stripes_4.jpg,Red_Triangle_Dots_3.jpg,left,798.9899999994086,true,low,false
VQYIUQhP,3fhtjgyt9qduw7xo30k18rjdqjggpm,30x31n5d673smsy70j1nwu9dryoash,VQYIUQhP,2020-0188,2020-11-15,10:59:06,11:17:57,NA,incomplete,37,shape,1,right,Blue_Plus_Stripes_3.jpg,Green_Triangle_Grid_3.jpg,Red_Plus_Chess_1.jpg,right,732.0249999993248,true,low,false
VQYIUQhP,3fhtjgyt9qduw7xo30k18rjdqjggpm,30x31n5d673smsy70j1nwu9dryoash,VQYIUQhP,2020-0188,2020-11-15,10:59:06,11:17:57,NA,incomplete,38,shape,0,left,Red_Circle_Dots_1.jpg,Green_Circle_Stripes_3.jpg,Blue_Star_Grid_1.jpg,left,619.2150000006659,true,low,false
VQYIUQhP,3fhtjgyt9qduw7xo30k18rjdqjggpm,30x31n5d673smsy70j1nwu9dryoash,VQYIUQhP,2020-0188,2020-11-15,10:59:06,11:17:57,NA,incomplete,39,shape,1,right,Purple_Circle_Chess_4.jpg,Green_Plus_Grid_4.jpg,Blue_Circle_Stripes_3.jpg,right,663.1199999992969,true,low,false
VQYIUQhP,3fhtjgyt9qduw7xo30k18rjdqjggpm,30x31n5d673smsy70j1nwu9dryoash,VQYIUQhP,2020-0188,2020-11-15,10:59:06,11:17:57,NA,incomplete,40,shape,1,left,Blue_Star_Dots_3.jpg,Purple_Star_Grid_2.jpg,Green_Plus_Stripes_3.jpg,left,968.2199999988079,true,low,false
VQYIUQhP,3fhtjgyt9qduw7xo30k18rjdqjggpm,30x31n5d673smsy70j1nwu9dryoash,VQYIUQhP,2020-0188,2020-11-15,10:59:06,11:17:57,NA,incomplete,41,shape,1,left,Red_Circle_Stripes_2.jpg,Purple_Circle_Chess_1.jpg,Blue_Plus_Grid_2.jpg,left,741.5199999996694,true,low,false
VQYIUQhP,3fhtjgyt9qduw7xo30k18rjdqjggpm,30x31n5d673smsy70j1nwu9dryoash,VQYIUQhP,2020-0188,2020-11-15,10:59:06,11:17:57,NA,incomplete,42,shape,1,right,Purple_Circle_Chess_4.jpg,Blue_Triangle_Grid_4.jpg,Red_Circle_Dots_1.jpg,right,620.3750000004657,true,low,false
VQYIUQhP,3fhtjgyt9qduw7xo30k18rjdqjggpm,30x31n5d673smsy70j1nwu9dryoash,VQYIUQhP,2020-0188,2020-11-15,10:59:06,11:17:57,NA,incomplete,43,shape,1,right,Purple_Circle_Dots_2.jpg,Red_Plus_Stripes_2.jpg,Blue_Circle_Chess_1.jpg,right,575.4300000007497,true,low,false
VQYIUQhP,3fhtjgyt9qduw7xo30k18rjdqjggpm,30x31n5d673smsy70j1nwu9dryoash,VQYIUQhP,2020-0188,2020-11-15,10:59:06,11:17:57,NA,incomplete,44,shape,1,right,Purple_Triangle_Chess_3.jpg,Green_Star_Grid_3.jpg,Blue_Triangle_Dots_2.jpg,right,726.1149999994086,true,low,false
VQYIUQhP,3fhtjgyt9qduw7xo30k18rjdqjggpm,30x31n5d673smsy70j1nwu9dryoash,VQYIUQhP,2020-0188,2020-11-15,10:59:06,11:17:57,NA,incomplete,45,shape,0,right,Purple_Plus_Grid_1.jpg,Blue_Triangle_Dots_1.jpg,Red_Plus_Stripes_2.jpg,right,772.5449999996927,true,low,false
VQYIUQhP,3fhtjgyt9qduw7xo30k18rjdqjggpm,30x31n5d673smsy70j1nwu9dryoash,VQYIUQhP,2020-0188,2020-11-15,10:59:06,11:17:57,NA,incomplete,46,shape,0,right,Red_Star_Grid_3.jpg,Purple_Plus_Stripes_3.jpg,Green_Star_Dots_1.jpg,left,1073.7300000000978,false,low,false
VQYIUQhP,3fhtjgyt9qduw7xo30k18rjdqjggpm,30x31n5d673smsy70j1nwu9dryoash,VQYIUQhP,2020-0188,2020-11-15,10:59:06,11:17:57,NA,incomplete,47,shape,1,right,Red_Star_Stripes_1.jpg,Blue_Plus_Dots_1.jpg,Green_Star_Grid_3.jpg,left,667.170000000624,false,low,false
VQYIUQhP,3fhtjgyt9qduw7xo30k18rjdqjggpm,30x31n5d673smsy70j1nwu9dryoash,VQYIUQhP,2020-0188,2020-11-15,10:59:06,11:17:57,NA,incomplete,48,shape,1,left,Purple_Star_Dots_1.jpg,Blue_Star_Stripes_3.jpg,Green_Circle_Grid_1.jpg,left,748.03000000061,true,low,false
VQYIUQhP,3fhtjgyt9qduw7xo30k18rjdqjggpm,30x31n5d673smsy70j1nwu9dryoash,VQYIUQhP,2020-0188,2020-11-15,10:59:06,11:17:57,NA,incomplete,49,shape,0,left,Purple_Plus_Dots_1.jpg,Blue_Plus_Chess_4.jpg,Red_Triangle_Grid_1.jpg,left,1004.6149999998743,true,low,false
VQYIUQhP,3fhtjgyt9qduw7xo30k18rjdqjggpm,30x31n5d673smsy70j1nwu9dryoash,VQYIUQhP,2020-0188,2020-11-15,10:59:06,11:17:57,NA,incomplete,50,shape,1,right,Red_Circle_Chess_1.jpg,Green_Plus_Dots_1.jpg,Blue_Circle_Grid_4.jpg,right,575.5749999989057,true,low,false
VQYIUQhP,3fhtjgyt9qduw7xo30k18rjdqjggpm,30x31n5d673smsy70j1nwu9dryoash,VQYIUQhP,2020-0188,2020-11-15,10:59:06,11:17:57,NA,incomplete,51,shape,1,right,Green_Plus_Dots_4.jpg,Red_Triangle_Stripes_4.jpg,Purple_Plus_Chess_2.jpg,right,812.9150000003865,true,low,false
VQYIUQhP,3fhtjgyt9qduw7xo30k18rjdqjggpm,30x31n5d673smsy70j1nwu9dryoash,VQYIUQhP,2020-0188,2020-11-15,10:59:06,11:17:57,NA,incomplete,52,shape,0,right,Purple_Triangle_Chess_3.jpg,Blue_Circle_Dots_3.jpg,Red_Triangle_Grid_1.jpg,right,624.8550000000978,true,low,false
VQYIUQhP,3fhtjgyt9qduw7xo30k18rjdqjggpm,30x31n5d673smsy70j1nwu9dryoash,VQYIUQhP,2020-0188,2020-11-15,10:59:06,11:17:57,NA,incomplete,53,shape,1,left,Purple_Circle_Dots_4.jpg,Red_Circle_Stripes_3.jpg,Blue_Plus_Grid_4.jpg,left,651.8999999989755,true,low,false
VQYIUQhP,3fhtjgyt9qduw7xo30k18rjdqjggpm,30x31n5d673smsy70j1nwu9dryoash,VQYIUQhP,2020-0188,2020-11-15,10:59:06,11:17:57,NA,incomplete,54,shape,1,left,Blue_Star_Chess_1.jpg,Purple_Star_Dots_2.jpg,Green_Circle_Stripes_1.jpg,left,894.9549999997253,true,low,false
VQYIUQhP,3fhtjgyt9qduw7xo30k18rjdqjggpm,30x31n5d673smsy70j1nwu9dryoash,VQYIUQhP,2020-0188,2020-11-15,10:59:06,11:17:57,NA,incomplete,55,shape,1,left,Green_Circle_Stripes_1.jpg,Blue_Circle_Grid_3.jpg,Purple_Triangle_Chess_1.jpg,left,726.7249999986961,true,low,false
VQYIUQhP,3fhtjgyt9qduw7xo30k18rjdqjggpm,30x31n5d673smsy70j1nwu9dryoash,VQYIUQhP,2020-0188,2020-11-15,10:59:06,11:17:57,NA,incomplete,56,shape,1,left,Green_Plus_Dots_1.jpg,Purple_Plus_Grid_2.jpg,Red_Circle_Chess_1.jpg,left,742.1799999992363,true,low,false
VQYIUQhP,3fhtjgyt9qduw7xo30k18rjdqjggpm,30x31n5d673smsy70j1nwu9dryoash,VQYIUQhP,2020-0188,2020-11-15,10:59:06,11:17:57,NA,incomplete,57,shape,1,right,Red_Plus_Grid_2.jpg,Green_Circle_Stripes_2.jpg,Blue_Plus_Chess_3.jpg,right,764.7049999996088,true,low,false
VQYIUQhP,3fhtjgyt9qduw7xo30k18rjdqjggpm,30x31n5d673smsy70j1nwu9dryoash,VQYIUQhP,2020-0188,2020-11-15,10:59:06,11:17:57,NA,incomplete,58,shape,1,right,Purple_Star_Grid_2.jpg,Red_Triangle_Dots_2.jpg,Blue_Star_Chess_3.jpg,right,770.7449999998789,true,low,false
VQYIUQhP,3fhtjgyt9qduw7xo30k18rjdqjggpm,30x31n5d673smsy70j1nwu9dryoash,VQYIUQhP,2020-0188,2020-11-15,10:59:06,11:17:57,NA,incomplete,59,shape,1,left,Green_Circle_Chess_3.jpg,Blue_Circle_Dots_4.jpg,Red_Plus_Stripes_3.jpg,left,1008.9549999992596,true,low,false
VQYIUQhP,3fhtjgyt9qduw7xo30k18rjdqjggpm,30x31n5d673smsy70j1nwu9dryoash,VQYIUQhP,2020-0188,2020-11-15,10:59:06,11:17:57,NA,incomplete,60,number,1,left,Purple_Triangle_Stripes_3.jpg,Blue_Plus_Chess_3.jpg,Green_Triangle_Grid_4.jpg,right,771.5400000015507,false,low,false
VQYIUQhP,3fhtjgyt9qduw7xo30k18rjdqjggpm,30x31n5d673smsy70j1nwu9dryoash,VQYIUQhP,2020-0188,2020-11-15,10:59:06,11:17:57,NA,incomplete,61,number,1,right,Blue_Star_Chess_3.jpg,Purple_Star_Dots_4.jpg,Green_Plus_Stripes_3.jpg,left,905.3250000015832,false,low,false
VQYIUQhP,3fhtjgyt9qduw7xo30k18rjdqjggpm,30x31n5d673smsy70j1nwu9dryoash,VQYIUQhP,2020-0188,2020-11-15,10:59:06,11:17:57,NA,incomplete,62,number,1,right,Blue_Plus_Grid_3.jpg,Red_Plus_Dots_2.jpg,Green_Star_Stripes_3.jpg,right,849.289999998291,true,low,false
VQYIUQhP,3fhtjgyt9qduw7xo30k18rjdqjggpm,30x31n5d673smsy70j1nwu9dryoash,VQYIUQhP,2020-0188,2020-11-15,10:59:06,11:17:57,NA,incomplete,63,number,1,left,Green_Triangle_Chess_2.jpg,Blue_Plus_Dots_2.jpg,Purple_Triangle_Grid_1.jpg,left,707.3849999996601,true,low,false
VQYIUQhP,3fhtjgyt9qduw7xo30k18rjdqjggpm,30x31n5d673smsy70j1nwu9dryoash,VQYIUQhP,2020-0188,2020-11-15,10:59:06,11:17:57,NA,incomplete,64,number,1,left,Blue_Triangle_Dots_1.jpg,Purple_Star_Grid_1.jpg,Red_Triangle_Chess_4.jpg,left,644.7200000002049,true,low,false
VQYIUQhP,3fhtjgyt9qduw7xo30k18rjdqjggpm,30x31n5d673smsy70j1nwu9dryoash,VQYIUQhP,2020-0188,2020-11-15,10:59:06,11:17:57,NA,incomplete,65,number,1,left,Purple_Star_Grid_4.jpg,Blue_Plus_Stripes_4.jpg,Green_Star_Chess_3.jpg,left,822.4250000002794,true,low,false
VQYIUQhP,3fhtjgyt9qduw7xo30k18rjdqjggpm,30x31n5d673smsy70j1nwu9dryoash,VQYIUQhP,2020-0188,2020-11-15,10:59:06,11:17:57,NA,incomplete,66,number,1,right,Red_Plus_Stripes_1.jpg,Purple_Plus_Dots_4.jpg,Blue_Star_Chess_1.jpg,right,593.7050000011222,true,low,false
VQYIUQhP,3fhtjgyt9qduw7xo30k18rjdqjggpm,30x31n5d673smsy70j1nwu9dryoash,VQYIUQhP,2020-0188,2020-11-15,10:59:06,11:17:57,NA,incomplete,67,number,1,right,Green_Triangle_Grid_4.jpg,Purple_Triangle_Chess_2.jpg,Red_Star_Dots_4.jpg,right,686.4349999995902,true,low,false
VQYIUQhP,3fhtjgyt9qduw7xo30k18rjdqjggpm,30x31n5d673smsy70j1nwu9dryoash,VQYIUQhP,2020-0188,2020-11-15,10:59:06,11:17:57,NA,incomplete,68,number,1,left,Red_Circle_Chess_4.jpg,Purple_Star_Grid_4.jpg,Green_Circle_Stripes_3.jpg,left,942.6399999993155,true,low,false
VQYIUQhP,3fhtjgyt9qduw7xo30k18rjdqjggpm,30x31n5d673smsy70j1nwu9dryoash,VQYIUQhP,2020-0188,2020-11-15,10:59:06,11:17:57,NA,incomplete,69,number,1,right,Green_Circle_Dots_4.jpg,Blue_Circle_Chess_1.jpg,Purple_Star_Stripes_4.jpg,right,774.7299999991665,true,low,false
VQYIUQhP,3fhtjgyt9qduw7xo30k18rjdqjggpm,30x31n5d673smsy70j1nwu9dryoash,VQYIUQhP,2020-0188,2020-11-15,10:59:06,11:17:57,NA,incomplete,70,number,0,right,Green_Circle_Dots_1.jpg,Blue_Circle_Grid_3.jpg,Red_Star_Stripes_1.jpg,right,690.7849999988684,true,low,false
VQYIUQhP,3fhtjgyt9qduw7xo30k18rjdqjggpm,30x31n5d673smsy70j1nwu9dryoash,VQYIUQhP,2020-0188,2020-11-15,10:59:06,11:17:57,NA,incomplete,71,number,1,right,Purple_Star_Grid_2.jpg,Red_Star_Stripes_4.jpg,Blue_Plus_Dots_2.jpg,right,691.2200000005541,true,low,false
VQYIUQhP,3fhtjgyt9qduw7xo30k18rjdqjggpm,30x31n5d673smsy70j1nwu9dryoash,VQYIUQhP,2020-0188,2020-11-15,10:59:06,11:17:57,NA,incomplete,72,number,0,left,Purple_Circle_Stripes_1.jpg,Green_Plus_Dots_1.jpg,Red_Circle_Chess_4.jpg,left,580.1799999990035,true,low,false
VQYIUQhP,3fhtjgyt9qduw7xo30k18rjdqjggpm,30x31n5d673smsy70j1nwu9dryoash,VQYIUQhP,2020-0188,2020-11-15,10:59:06,11:17:57,NA,incomplete,73,number,1,right,Green_Triangle_Stripes_1.jpg,Red_Triangle_Dots_3.jpg,Purple_Plus_Grid_1.jpg,right,649.154999999213,true,low,false
VQYIUQhP,3fhtjgyt9qduw7xo30k18rjdqjggpm,30x31n5d673smsy70j1nwu9dryoash,VQYIUQhP,2020-0188,2020-11-15,10:59:06,11:17:57,NA,incomplete,74,number,1,right,Red_Triangle_Dots_3.jpg,Purple_Triangle_Chess_4.jpg,Blue_Circle_Grid_3.jpg,right,781.0499999996973,true,low,false
VQYIUQhP,3fhtjgyt9qduw7xo30k18rjdqjggpm,30x31n5d673smsy70j1nwu9dryoash,VQYIUQhP,2020-0188,2020-11-15,10:59:06,11:17:57,NA,incomplete,75,number,1,left,Red_Star_Grid_2.jpg,Blue_Circle_Chess_2.jpg,Green_Star_Stripes_1.jpg,left,713.1849999986589,true,low,false
VQYIUQhP,3fhtjgyt9qduw7xo30k18rjdqjggpm,30x31n5d673smsy70j1nwu9dryoash,VQYIUQhP,2020-0188,2020-11-15,10:59:06,11:17:57,NA,incomplete,76,number,1,right,Green_Triangle_Stripes_3.jpg,Red_Triangle_Chess_2.jpg,Purple_Star_Dots_3.jpg,right,777.5400000009686,true,low,false
VQYIUQhP,3fhtjgyt9qduw7xo30k18rjdqjggpm,30x31n5d673smsy70j1nwu9dryoash,VQYIUQhP,2020-0188,2020-11-15,10:59:06,11:17:57,NA,incomplete,77,number,0,right,Blue_Circle_Stripes_2.jpg,Red_Circle_Grid_4.jpg,Green_Plus_Chess_2.jpg,right,678.8100000013364,true,low,false
VQYIUQhP,3fhtjgyt9qduw7xo30k18rjdqjggpm,30x31n5d673smsy70j1nwu9dryoash,VQYIUQhP,2020-0188,2020-11-15,10:59:06,11:17:57,NA,incomplete,78,number,1,left,Red_Star_Grid_2.jpg,Blue_Plus_Chess_2.jpg,Green_Star_Dots_3.jpg,left,663.8050000001676,true,low,false
VQYIUQhP,3fhtjgyt9qduw7xo30k18rjdqjggpm,30x31n5d673smsy70j1nwu9dryoash,VQYIUQhP,2020-0188,2020-11-15,10:59:06,11:17:57,NA,incomplete,79,number,1,right,Blue_Triangle_Grid_2.jpg,Purple_Triangle_Dots_3.jpg,Green_Plus_Chess_2.jpg,right,834.8349999997299,true,low,false
VQYIUQhP,3fhtjgyt9qduw7xo30k18rjdqjggpm,30x31n5d673smsy70j1nwu9dryoash,VQYIUQhP,2020-0188,2020-11-15,10:59:06,11:17:57,NA,incomplete,80,number,1,left,Purple_Triangle_Grid_2.jpg,Red_Star_Chess_2.jpg,Green_Triangle_Stripes_4.jpg,left,652.4049999989802,true,low,false
VQYIUQhP,3fhtjgyt9qduw7xo30k18rjdqjggpm,30x31n5d673smsy70j1nwu9dryoash,VQYIUQhP,2020-0188,2020-11-15,10:59:06,11:17:57,NA,incomplete,81,number,0,left,Green_Circle_Grid_2.jpg,Blue_Star_Stripes_2.jpg,Purple_Circle_Dots_4.jpg,left,846.7149999997346,true,low,false
VQYIUQhP,3fhtjgyt9qduw7xo30k18rjdqjggpm,30x31n5d673smsy70j1nwu9dryoash,VQYIUQhP,2020-0188,2020-11-15,10:59:06,11:17:57,NA,incomplete,82,number,1,left,Green_Plus_Grid_4.jpg,Red_Circle_Stripes_4.jpg,Blue_Plus_Dots_3.jpg,left,993.0549999990035,true,low,false
VQYIUQhP,3fhtjgyt9qduw7xo30k18rjdqjggpm,30x31n5d673smsy70j1nwu9dryoash,VQYIUQhP,2020-0188,2020-11-15,10:59:06,11:17:57,NA,incomplete,83,number,0,left,Red_Triangle_Stripes_4.jpg,Blue_Circle_Dots_4.jpg,Green_Triangle_Grid_2.jpg,left,733.920000000624,true,low,false
VQYIUQhP,3fhtjgyt9qduw7xo30k18rjdqjggpm,30x31n5d673smsy70j1nwu9dryoash,VQYIUQhP,2020-0188,2020-11-15,10:59:06,11:17:57,NA,incomplete,84,number,1,right,Blue_Triangle_Stripes_2.jpg,Purple_Triangle_Chess_3.jpg,Red_Plus_Dots_2.jpg,left,758.2000000001863,false,low,false
VQYIUQhP,3fhtjgyt9qduw7xo30k18rjdqjggpm,30x31n5d673smsy70j1nwu9dryoash,VQYIUQhP,2020-0188,2020-11-15,10:59:06,11:17:57,NA,incomplete,85,number,1,right,Green_Triangle_Stripes_4.jpg,Red_Triangle_Chess_1.jpg,Blue_Plus_Dots_4.jpg,right,683.2350000004517,true,low,false
VQYIUQhP,3fhtjgyt9qduw7xo30k18rjdqjggpm,30x31n5d673smsy70j1nwu9dryoash,VQYIUQhP,2020-0188,2020-11-15,10:59:06,11:17:57,NA,incomplete,86,number,1,left,Green_Plus_Chess_4.jpg,Blue_Triangle_Dots_4.jpg,Purple_Plus_Stripes_1.jpg,left,667.9349999994738,true,low,false
VQYIUQhP,3fhtjgyt9qduw7xo30k18rjdqjggpm,30x31n5d673smsy70j1nwu9dryoash,VQYIUQhP,2020-0188,2020-11-15,10:59:06,11:17:57,NA,incomplete,87,number,1,left,Purple_Plus_Grid_4.jpg,Red_Circle_Chess_4.jpg,Blue_Plus_Stripes_2.jpg,left,853.3250000000698,true,low,false
VQYIUQhP,3fhtjgyt9qduw7xo30k18rjdqjggpm,30x31n5d673smsy70j1nwu9dryoash,VQYIUQhP,2020-0188,2020-11-15,10:59:06,11:17:57,NA,incomplete,88,number,0,left,Green_Plus_Dots_3.jpg,Purple_Star_Grid_3.jpg,Blue_Plus_Stripes_4.jpg,left,855.9500000010012,true,low,false
VQYIUQhP,3fhtjgyt9qduw7xo30k18rjdqjggpm,30x31n5d673smsy70j1nwu9dryoash,VQYIUQhP,2020-0188,2020-11-15,10:59:06,11:17:57,NA,incomplete,89,number,1,left,Blue_Plus_Stripes_4.jpg,Green_Circle_Chess_4.jpg,Purple_Plus_Dots_1.jpg,left,706.5000000002328,true,low,false
VQYIUQhP,3fhtjgyt9qduw7xo30k18rjdqjggpm,30x31n5d673smsy70j1nwu9dryoash,VQYIUQhP,2020-0188,2020-11-15,10:59:06,11:17:57,NA,incomplete,90,shape,1,left,Red_Triangle_Grid_4.jpg,Purple_Triangle_Dots_1.jpg,Blue_Plus_Stripes_4.jpg,right,689.6800000013318,false,low,false
VQYIUQhP,3fhtjgyt9qduw7xo30k18rjdqjggpm,30x31n5d673smsy70j1nwu9dryoash,VQYIUQhP,2020-0188,2020-11-15,10:59:06,11:17:57,NA,incomplete,91,shape,0,left,Green_Triangle_Dots_2.jpg,Red_Triangle_Grid_1.jpg,Blue_Plus_Stripes_2.jpg,right,738.4650000004331,false,low,false
VQYIUQhP,3fhtjgyt9qduw7xo30k18rjdqjggpm,30x31n5d673smsy70j1nwu9dryoash,VQYIUQhP,2020-0188,2020-11-15,10:59:06,11:17:57,NA,incomplete,92,shape,1,right,Green_Triangle_Dots_2.jpg,Red_Circle_Stripes_2.jpg,Blue_Triangle_Chess_1.jpg,left,656.9349999990081,false,low,false
VQYIUQhP,3fhtjgyt9qduw7xo30k18rjdqjggpm,30x31n5d673smsy70j1nwu9dryoash,VQYIUQhP,2020-0188,2020-11-15,10:59:06,11:17:57,NA,incomplete,93,shape,1,right,Purple_Circle_Grid_1.jpg,Green_Star_Chess_1.jpg,Blue_Circle_Dots_4.jpg,left,730.975000000326,false,low,false
VQYIUQhP,3fhtjgyt9qduw7xo30k18rjdqjggpm,30x31n5d673smsy70j1nwu9dryoash,VQYIUQhP,2020-0188,2020-11-15,10:59:06,11:17:57,NA,incomplete,94,shape,1,right,Red_Triangle_Stripes_3.jpg,Blue_Plus_Dots_3.jpg,Green_Triangle_Grid_1.jpg,right,890.984999999986,true,low,false
VQYIUQhP,3fhtjgyt9qduw7xo30k18rjdqjggpm,30x31n5d673smsy70j1nwu9dryoash,VQYIUQhP,2020-0188,2020-11-15,10:59:06,11:17:57,NA,incomplete,95,shape,1,left,Purple_Circle_Grid_4.jpg,Green_Circle_Dots_1.jpg,Red_Triangle_Chess_4.jpg,left,714.9100000006147,true,low,false
VQYIUQhP,3fhtjgyt9qduw7xo30k18rjdqjggpm,30x31n5d673smsy70j1nwu9dryoash,VQYIUQhP,2020-0188,2020-11-15,10:59:06,11:17:57,NA,incomplete,96,shape,1,left,Purple_Circle_Dots_4.jpg,Red_Circle_Chess_1.jpg,Green_Triangle_Stripes_4.jpg,left,665.1799999999348,true,low,false
VQYIUQhP,3fhtjgyt9qduw7xo30k18rjdqjggpm,30x31n5d673smsy70j1nwu9dryoash,VQYIUQhP,2020-0188,2020-11-15,10:59:06,11:17:57,NA,incomplete,97,shape,1,right,Green_Triangle_Stripes_1.jpg,Blue_Circle_Grid_1.jpg,Purple_Triangle_Dots_2.jpg,right,725.089999999851,true,low,false
VQYIUQhP,3fhtjgyt9qduw7xo30k18rjdqjggpm,30x31n5d673smsy70j1nwu9dryoash,VQYIUQhP,2020-0188,2020-11-15,10:59:06,11:17:57,NA,incomplete,98,shape,1,right,Green_Star_Dots_3.jpg,Red_Triangle_Grid_3.jpg,Purple_Star_Chess_2.jpg,right,747.8949999986216,true,low,false
VQYIUQhP,3fhtjgyt9qduw7xo30k18rjdqjggpm,30x31n5d673smsy70j1nwu9dryoash,VQYIUQhP,2020-0188,2020-11-15,10:59:06,11:17:57,NA,incomplete,99,shape,1,left,Purple_Star_Stripes_2.jpg,Green_Star_Chess_1.jpg,Red_Circle_Grid_2.jpg,left,603.4599999984493,true,low,false
VQYIUQhP,3fhtjgyt9qduw7xo30k18rjdqjggpm,30x31n5d673smsy70j1nwu9dryoash,VQYIUQhP,2020-0188,2020-11-15,10:59:06,11:17:57,NA,incomplete,100,shape,1,left,Blue_Plus_Dots_1.jpg,Green_Plus_Chess_2.jpg,Purple_Triangle_Stripes_1.jpg,right,718.8500000011409,false,low,false
VQYIUQhP,3fhtjgyt9qduw7xo30k18rjdqjggpm,30x31n5d673smsy70j1nwu9dryoash,VQYIUQhP,2020-0188,2020-11-15,10:59:06,11:17:57,NA,incomplete,101,shape,1,right,Purple_Star_Grid_4.jpg,Green_Circle_Chess_4.jpg,Blue_Star_Dots_1.jpg,right,757.8450000000885,true,low,false
VQYIUQhP,3fhtjgyt9qduw7xo30k18rjdqjggpm,30x31n5d673smsy70j1nwu9dryoash,VQYIUQhP,2020-0188,2020-11-15,10:59:06,11:17:57,NA,incomplete,102,shape,1,left,Red_Triangle_Chess_4.jpg,Blue_Triangle_Dots_1.jpg,Purple_Plus_Grid_4.jpg,left,627.9949999989476,true,low,false
VQYIUQhP,3fhtjgyt9qduw7xo30k18rjdqjggpm,30x31n5d673smsy70j1nwu9dryoash,VQYIUQhP,2020-0188,2020-11-15,10:59:06,11:17:57,NA,incomplete,103,shape,1,left,Red_Star_Stripes_1.jpg,Purple_Star_Grid_3.jpg,Blue_Triangle_Dots_1.jpg,left,711.2500000002328,true,low,false
VQYIUQhP,3fhtjgyt9qduw7xo30k18rjdqjggpm,30x31n5d673smsy70j1nwu9dryoash,VQYIUQhP,2020-0188,2020-11-15,10:59:06,11:17:57,NA,incomplete,104,shape,1,left,Red_Circle_Dots_2.jpg,Blue_Circle_Chess_4.jpg,Purple_Triangle_Grid_2.jpg,left,1008.2099999999627,true,low,false
VQYIUQhP,3fhtjgyt9qduw7xo30k18rjdqjggpm,30x31n5d673smsy70j1nwu9dryoash,VQYIUQhP,2020-0188,2020-11-15,10:59:06,11:17:57,NA,incomplete,105,shape,0,right,Green_Triangle_Chess_4.jpg,Blue_Plus_Grid_4.jpg,Red_Triangle_Dots_1.jpg,right,1187.4599999991478,true,low,false
VQYIUQhP,3fhtjgyt9qduw7xo30k18rjdqjggpm,30x31n5d673smsy70j1nwu9dryoash,VQYIUQhP,2020-0188,2020-11-15,10:59:06,11:17:57,NA,incomplete,106,shape,1,right,Green_Triangle_Dots_2.jpg,Red_Plus_Chess_2.jpg,Blue_Triangle_Stripes_1.jpg,right,655.9299999990035,true,low,false
VQYIUQhP,3fhtjgyt9qduw7xo30k18rjdqjggpm,30x31n5d673smsy70j1nwu9dryoash,VQYIUQhP,2020-0188,2020-11-15,10:59:06,11:17:57,NA,incomplete,107,shape,1,left,Green_Star_Stripes_2.jpg,Red_Star_Grid_1.jpg,Purple_Plus_Dots_2.jpg,left,705.8949999990873,true,low,false
VQYIUQhP,3fhtjgyt9qduw7xo30k18rjdqjggpm,30x31n5d673smsy70j1nwu9dryoash,VQYIUQhP,2020-0188,2020-11-15,10:59:06,11:17:57,NA,incomplete,108,shape,0,right,Green_Triangle_Grid_3.jpg,Red_Plus_Chess_3.jpg,Purple_Triangle_Dots_2.jpg,right,817.6999999996042,true,low,false
VQYIUQhP,3fhtjgyt9qduw7xo30k18rjdqjggpm,30x31n5d673smsy70j1nwu9dryoash,VQYIUQhP,2020-0188,2020-11-15,10:59:06,11:17:57,NA,incomplete,109,shape,1,right,Red_Star_Stripes_3.jpg,Purple_Plus_Grid_3.jpg,Blue_Star_Chess_2.jpg,right,734.3899999996647,true,low,false
VQYIUQhP,3fhtjgyt9qduw7xo30k18rjdqjggpm,30x31n5d673smsy70j1nwu9dryoash,VQYIUQhP,2020-0188,2020-11-15,10:59:06,11:17:57,NA,incomplete,110,shape,1,left,Purple_Star_Chess_3.jpg,Blue_Star_Grid_1.jpg,Green_Triangle_Stripes_3.jpg,left,675.6299999996554,true,low,false
VQYIUQhP,3fhtjgyt9qduw7xo30k18rjdqjggpm,30x31n5d673smsy70j1nwu9dryoash,VQYIUQhP,2020-0188,2020-11-15,10:59:06,11:17:57,NA,incomplete,111,shape,1,left,Green_Circle_Chess_3.jpg,Red_Circle_Stripes_1.jpg,Purple_Triangle_Grid_3.jpg,left,716.440000000177,true,low,false
VQYIUQhP,3fhtjgyt9qduw7xo30k18rjdqjggpm,30x31n5d673smsy70j1nwu9dryoash,VQYIUQhP,2020-0188,2020-11-15,10:59:06,11:17:57,NA,incomplete,112,shape,1,right,Green_Circle_Chess_4.jpg,Purple_Star_Stripes_4.jpg,Red_Circle_Grid_2.jpg,right,692.8449999995064,true,low,false
VQYIUQhP,3fhtjgyt9qduw7xo30k18rjdqjggpm,30x31n5d673smsy70j1nwu9dryoash,VQYIUQhP,2020-0188,2020-11-15,10:59:06,11:17:57,NA,incomplete,113,shape,0,right,Purple_Circle_Dots_4.jpg,Blue_Plus_Chess_4.jpg,Green_Circle_Grid_3.jpg,right,669.8250000008848,true,low,false
VQYIUQhP,3fhtjgyt9qduw7xo30k18rjdqjggpm,30x31n5d673smsy70j1nwu9dryoash,VQYIUQhP,2020-0188,2020-11-15,10:59:06,11:17:57,NA,incomplete,114,shape,1,left,Red_Star_Grid_1.jpg,Purple_Star_Dots_2.jpg,Blue_Plus_Chess_1.jpg,left,728.0049999990733,true,low,false
VQYIUQhP,3fhtjgyt9qduw7xo30k18rjdqjggpm,30x31n5d673smsy70j1nwu9dryoash,VQYIUQhP,2020-0188,2020-11-15,10:59:06,11:17:57,NA,incomplete,115,shape,1,left,Blue_Circle_Grid_4.jpg,Green_Circle_Stripes_2.jpg,Purple_Star_Dots_4.jpg,left,669.8299999989104,true,low,false
VQYIUQhP,3fhtjgyt9qduw7xo30k18rjdqjggpm,30x31n5d673smsy70j1nwu9dryoash,VQYIUQhP,2020-0188,2020-11-15,10:59:06,11:17:57,NA,incomplete,116,shape,0,right,Blue_Circle_Grid_1.jpg,Purple_Plus_Chess_1.jpg,Green_Circle_Dots_3.jpg,right,614.740000000922,true,low,false
VQYIUQhP,3fhtjgyt9qduw7xo30k18rjdqjggpm,30x31n5d673smsy70j1nwu9dryoash,VQYIUQhP,2020-0188,2020-11-15,10:59:06,11:17:57,NA,incomplete,117,shape,1,left,Blue_Plus_Dots_2.jpg,Red_Plus_Grid_4.jpg,Green_Star_Stripes_2.jpg,left,627.5900000000838,true,low,false
VQYIUQhP,3fhtjgyt9qduw7xo30k18rjdqjggpm,30x31n5d673smsy70j1nwu9dryoash,VQYIUQhP,2020-0188,2020-11-15,10:59:06,11:17:57,NA,incomplete,118,shape,1,right,Red_Plus_Grid_3.jpg,Green_Star_Stripes_3.jpg,Blue_Plus_Dots_4.jpg,left,798.890000000014,false,low,false
VQYIUQhP,3fhtjgyt9qduw7xo30k18rjdqjggpm,30x31n5d673smsy70j1nwu9dryoash,VQYIUQhP,2020-0188,2020-11-15,10:59:06,11:17:57,NA,incomplete,119,shape,1,right,Red_Circle_Grid_1.jpg,Purple_Star_Dots_1.jpg,Blue_Circle_Stripes_3.jpg,right,812.4150000002701,true,low,false
VQYIUQhP,3fhtjgyt9qduw7xo30k18rjdqjggpm,30x31n5d673smsy70j1nwu9dryoash,VQYIUQhP,2020-0188,2020-11-15,10:59:06,11:17:57,NA,incomplete,120,number,0,right,Green_Plus_Stripes_2.jpg,Purple_Plus_Grid_1.jpg,Red_Triangle_Dots_2.jpg,left,719.2650000015274,false,low,false
VQYIUQhP,3fhtjgyt9qduw7xo30k18rjdqjggpm,30x31n5d673smsy70j1nwu9dryoash,VQYIUQhP,2020-0188,2020-11-15,10:59:06,11:17:57,NA,incomplete,121,number,1,left,Green_Circle_Stripes_4.jpg,Red_Star_Grid_4.jpg,Blue_Circle_Dots_1.jpg,right,806.7600000014063,false,low,false
VQYIUQhP,3fhtjgyt9qduw7xo30k18rjdqjggpm,30x31n5d673smsy70j1nwu9dryoash,VQYIUQhP,2020-0188,2020-11-15,10:59:06,11:17:57,NA,incomplete,122,number,1,right,Green_Plus_Stripes_2.jpg,Blue_Plus_Dots_4.jpg,Purple_Circle_Chess_2.jpg,right,1002.9299999987707,true,low,false
VQYIUQhP,3fhtjgyt9qduw7xo30k18rjdqjggpm,30x31n5d673smsy70j1nwu9dryoash,VQYIUQhP,2020-0188,2020-11-15,10:59:06,11:17:57,NA,incomplete,123,number,0,left,Blue_Triangle_Stripes_4.jpg,Red_Star_Dots_4.jpg,Green_Triangle_Chess_2.jpg,left,1222.7000000003027,true,low,false
VQYIUQhP,3fhtjgyt9qduw7xo30k18rjdqjggpm,30x31n5d673smsy70j1nwu9dryoash,VQYIUQhP,2020-0188,2020-11-15,10:59:06,11:17:57,NA,incomplete,124,number,1,left,Red_Star_Grid_1.jpg,Purple_Triangle_Stripes_1.jpg,Green_Star_Chess_3.jpg,right,842.7000000011176,false,low,false
VQYIUQhP,3fhtjgyt9qduw7xo30k18rjdqjggpm,30x31n5d673smsy70j1nwu9dryoash,VQYIUQhP,2020-0188,2020-11-15,10:59:06,11:17:57,NA,incomplete,125,number,1,left,Purple_Plus_Chess_2.jpg,Green_Triangle_Dots_2.jpg,Blue_Plus_Grid_4.jpg,left,716.6249999990687,true,low,false
VQYIUQhP,3fhtjgyt9qduw7xo30k18rjdqjggpm,30x31n5d673smsy70j1nwu9dryoash,VQYIUQhP,2020-0188,2020-11-15,10:59:06,11:17:57,NA,incomplete,126,number,1,right,Blue_Circle_Chess_4.jpg,Purple_Circle_Stripes_1.jpg,Green_Star_Dots_4.jpg,right,652.6649999995716,true,low,false
VQYIUQhP,3fhtjgyt9qduw7xo30k18rjdqjggpm,30x31n5d673smsy70j1nwu9dryoash,VQYIUQhP,2020-0188,2020-11-15,10:59:06,11:17:57,NA,incomplete,127,number,0,left,Green_Circle_Dots_1.jpg,Red_Plus_Grid_1.jpg,Purple_Circle_Chess_2.jpg,left,630.964999998454,true,low,false
VQYIUQhP,3fhtjgyt9qduw7xo30k18rjdqjggpm,30x31n5d673smsy70j1nwu9dryoash,VQYIUQhP,2020-0188,2020-11-15,10:59:06,11:17:57,NA,incomplete,128,number,1,right,Green_Plus_Stripes_3.jpg,Purple_Plus_Dots_2.jpg,Red_Circle_Chess_3.jpg,right,769.5950000016019,true,low,false
VQYIUQhP,3fhtjgyt9qduw7xo30k18rjdqjggpm,30x31n5d673smsy70j1nwu9dryoash,VQYIUQhP,2020-0188,2020-11-15,10:59:06,11:17:57,NA,incomplete,129,number,1,right,Green_Plus_Stripes_4.jpg,Purple_Plus_Chess_2.jpg,Red_Circle_Dots_4.jpg,right,744.510000000475,true,low,false
VQYIUQhP,3fhtjgyt9qduw7xo30k18rjdqjggpm,30x31n5d673smsy70j1nwu9dryoash,VQYIUQhP,2020-0188,2020-11-15,10:59:06,11:17:57,NA,incomplete,130,number,0,right,Purple_Circle_Grid_2.jpg,Green_Circle_Stripes_1.jpg,Blue_Plus_Dots_2.jpg,right,661.9399999999441,true,low,false
VQYIUQhP,3fhtjgyt9qduw7xo30k18rjdqjggpm,30x31n5d673smsy70j1nwu9dryoash,VQYIUQhP,2020-0188,2020-11-15,10:59:06,11:17:57,NA,incomplete,131,number,1,left,Blue_Triangle_Grid_3.jpg,Red_Star_Stripes_3.jpg,Purple_Triangle_Chess_1.jpg,left,615.5099999995437,true,low,false
VQYIUQhP,3fhtjgyt9qduw7xo30k18rjdqjggpm,30x31n5d673smsy70j1nwu9dryoash,VQYIUQhP,2020-0188,2020-11-15,10:59:06,11:17:57,NA,incomplete,132,number,1,left,Red_Plus_Grid_3.jpg,Green_Star_Chess_3.jpg,Purple_Plus_Dots_1.jpg,left,715.7449999995297,true,low,false
VQYIUQhP,3fhtjgyt9qduw7xo30k18rjdqjggpm,30x31n5d673smsy70j1nwu9dryoash,VQYIUQhP,2020-0188,2020-11-15,10:59:06,11:17:57,NA,incomplete,133,number,1,left,Green_Star_Grid_3.jpg,Purple_Plus_Stripes_3.jpg,Blue_Star_Chess_1.jpg,left,675.8250000001863,true,low,false
VQYIUQhP,3fhtjgyt9qduw7xo30k18rjdqjggpm,30x31n5d673smsy70j1nwu9dryoash,VQYIUQhP,2020-0188,2020-11-15,10:59:06,11:17:57,NA,incomplete,134,number,1,left,Red_Circle_Chess_3.jpg,Purple_Plus_Grid_3.jpg,Green_Circle_Dots_2.jpg,left,750.2949999998091,true,low,false
VQYIUQhP,3fhtjgyt9qduw7xo30k18rjdqjggpm,30x31n5d673smsy70j1nwu9dryoash,VQYIUQhP,2020-0188,2020-11-15,10:59:06,11:17:57,NA,incomplete,135,number,1,right,Red_Star_Dots_3.jpg,Purple_Star_Stripes_4.jpg,Blue_Triangle_Chess_3.jpg,right,819.7300000011455,true,low,false
VQYIUQhP,3fhtjgyt9qduw7xo30k18rjdqjggpm,30x31n5d673smsy70j1nwu9dryoash,VQYIUQhP,2020-0188,2020-11-15,10:59:06,11:17:57,NA,incomplete,136,number,0,left,Green_Star_Grid_3.jpg,Red_Triangle_Chess_3.jpg,Purple_Star_Stripes_2.jpg,left,695.0399999986403,true,low,false
VQYIUQhP,3fhtjgyt9qduw7xo30k18rjdqjggpm,30x31n5d673smsy70j1nwu9dryoash,VQYIUQhP,2020-0188,2020-11-15,10:59:06,11:17:57,NA,incomplete,137,number,1,right,Red_Triangle_Chess_2.jpg,Green_Triangle_Stripes_1.jpg,Blue_Star_Dots_2.jpg,right,847.6649999993388,true,low,false
VQYIUQhP,3fhtjgyt9qduw7xo30k18rjdqjggpm,30x31n5d673smsy70j1nwu9dryoash,VQYIUQhP,2020-0188,2020-11-15,10:59:06,11:17:57,NA,incomplete,138,number,0,right,Green_Plus_Stripes_4.jpg,Blue_Plus_Grid_1.jpg,Red_Triangle_Dots_4.jpg,right,842.3600000005681,true,low,false
VQYIUQhP,3fhtjgyt9qduw7xo30k18rjdqjggpm,30x31n5d673smsy70j1nwu9dryoash,VQYIUQhP,2020-0188,2020-11-15,10:59:06,11:17:57,NA,incomplete,139,number,1,left,Purple_Star_Dots_4.jpg,Green_Triangle_Stripes_4.jpg,Red_Star_Grid_1.jpg,left,645.6699999999255,true,low,false
VQYIUQhP,3fhtjgyt9qduw7xo30k18rjdqjggpm,30x31n5d673smsy70j1nwu9dryoash,VQYIUQhP,2020-0188,2020-11-15,10:59:06,11:17:57,NA,incomplete,140,shape,0,left,Red_Triangle_Chess_2.jpg,Purple_Triangle_Dots_1.jpg,Blue_Plus_Stripes_2.jpg,right,695.6150000005728,false,low,false
VQYIUQhP,3fhtjgyt9qduw7xo30k18rjdqjggpm,30x31n5d673smsy70j1nwu9dryoash,VQYIUQhP,2020-0188,2020-11-15,10:59:06,11:17:57,NA,incomplete,141,shape,1,left,Red_Triangle_Dots_1.jpg,Purple_Triangle_Chess_3.jpg,Green_Circle_Grid_1.jpg,right,687.859999999986,false,low,false
VQYIUQhP,3fhtjgyt9qduw7xo30k18rjdqjggpm,30x31n5d673smsy70j1nwu9dryoash,VQYIUQhP,2020-0188,2020-11-15,10:59:06,11:17:57,NA,incomplete,142,shape,1,right,Purple_Triangle_Stripes_1.jpg,Red_Star_Chess_1.jpg,Blue_Triangle_Dots_3.jpg,left,897.0150000004796,false,low,false
VQYIUQhP,3fhtjgyt9qduw7xo30k18rjdqjggpm,30x31n5d673smsy70j1nwu9dryoash,VQYIUQhP,2020-0188,2020-11-15,10:59:06,11:17:57,NA,incomplete,143,shape,1,right,Red_Triangle_Grid_3.jpg,Blue_Circle_Chess_3.jpg,Green_Triangle_Stripes_1.jpg,right,849.2049999986775,true,low,false
VQYIUQhP,3fhtjgyt9qduw7xo30k18rjdqjggpm,30x31n5d673smsy70j1nwu9dryoash,VQYIUQhP,2020-0188,2020-11-15,10:59:06,11:17:57,NA,incomplete,144,shape,1,left,Green_Circle_Chess_1.jpg,Red_Circle_Grid_3.jpg,Purple_Star_Stripes_1.jpg,left,668.8199999990175,true,low,false
VQYIUQhP,3fhtjgyt9qduw7xo30k18rjdqjggpm,30x31n5d673smsy70j1nwu9dryoash,VQYIUQhP,2020-0188,2020-11-15,10:59:06,11:17:57,NA,incomplete,145,shape,1,right,Red_Plus_Grid_2.jpg,Blue_Star_Stripes_2.jpg,Green_Plus_Dots_1.jpg,right,829.4549999991432,true,low,false
VQYIUQhP,3fhtjgyt9qduw7xo30k18rjdqjggpm,30x31n5d673smsy70j1nwu9dryoash,VQYIUQhP,2020-0188,2020-11-15,10:59:06,11:17:57,NA,incomplete,146,shape,0,left,Blue_Plus_Stripes_2.jpg,Purple_Plus_Grid_1.jpg,Red_Star_Dots_2.jpg,left,1008.5999999991618,true,low,false
VQYIUQhP,3fhtjgyt9qduw7xo30k18rjdqjggpm,30x31n5d673smsy70j1nwu9dryoash,VQYIUQhP,2020-0188,2020-11-15,10:59:06,11:17:57,NA,incomplete,147,shape,1,left,Green_Circle_Dots_2.jpg,Purple_Circle_Stripes_3.jpg,Red_Triangle_Chess_2.jpg,left,716.8849999997765,true,low,false
VQYIUQhP,3fhtjgyt9qduw7xo30k18rjdqjggpm,30x31n5d673smsy70j1nwu9dryoash,VQYIUQhP,2020-0188,2020-11-15,10:59:06,11:17:57,NA,incomplete,148,shape,1,left,Purple_Triangle_Dots_3.jpg,Red_Triangle_Chess_2.jpg,Blue_Circle_Grid_3.jpg,left,740.640000000014,true,low,false
VQYIUQhP,3fhtjgyt9qduw7xo30k18rjdqjggpm,30x31n5d673smsy70j1nwu9dryoash,VQYIUQhP,2020-0188,2020-11-15,10:59:06,11:17:57,NA,incomplete,149,shape,1,right,Blue_Circle_Stripes_3.jpg,Purple_Star_Grid_3.jpg,Red_Circle_Chess_4.jpg,right,668.3049999992363,true,low,false
VQYIUQhP,3fhtjgyt9qduw7xo30k18rjdqjggpm,30x31n5d673smsy70j1nwu9dryoash,VQYIUQhP,2020-0188,2020-11-15,10:59:06,11:17:57,NA,incomplete,150,shape,1,left,Green_Circle_Chess_1.jpg,Purple_Circle_Grid_4.jpg,Blue_Star_Dots_1.jpg,left,700.6450000008335,true,low,false
VQYIUQhP,3fhtjgyt9qduw7xo30k18rjdqjggpm,30x31n5d673smsy70j1nwu9dryoash,VQYIUQhP,2020-0188,2020-11-15,10:59:06,11:17:57,NA,incomplete,151,shape,1,left,Purple_Star_Dots_2.jpg,Blue_Star_Stripes_4.jpg,Green_Triangle_Chess_2.jpg,left,653.0000000002328,true,low,false
VQYIUQhP,3fhtjgyt9qduw7xo30k18rjdqjggpm,30x31n5d673smsy70j1nwu9dryoash,VQYIUQhP,2020-0188,2020-11-15,10:59:06,11:17:57,NA,incomplete,152,shape,1,right,Red_Star_Stripes_1.jpg,Purple_Circle_Chess_1.jpg,Blue_Star_Grid_4.jpg,right,679.2999999996973,true,low,false
VQYIUQhP,3fhtjgyt9qduw7xo30k18rjdqjggpm,30x31n5d673smsy70j1nwu9dryoash,VQYIUQhP,2020-0188,2020-11-15,10:59:06,11:17:57,NA,incomplete,153,shape,0,right,Green_Star_Chess_1.jpg,Purple_Plus_Dots_1.jpg,Blue_Star_Stripes_3.jpg,left,640.5400000002701,false,low,false
VQYIUQhP,3fhtjgyt9qduw7xo30k18rjdqjggpm,30x31n5d673smsy70j1nwu9dryoash,VQYIUQhP,2020-0188,2020-11-15,10:59:06,11:17:57,NA,incomplete,154,shape,1,right,Red_Circle_Grid_3.jpg,Blue_Triangle_Chess_3.jpg,Purple_Circle_Stripes_1.jpg,left,1156.049999999581,false,low,false
VQYIUQhP,3fhtjgyt9qduw7xo30k18rjdqjggpm,30x31n5d673smsy70j1nwu9dryoash,VQYIUQhP,2020-0188,2020-11-15,10:59:06,11:17:57,NA,incomplete,155,shape,1,right,Green_Plus_Stripes_2.jpg,Purple_Triangle_Chess_2.jpg,Red_Plus_Dots_3.jpg,right,688.5500000008615,true,low,false
VQYIUQhP,3fhtjgyt9qduw7xo30k18rjdqjggpm,30x31n5d673smsy70j1nwu9dryoash,VQYIUQhP,2020-0188,2020-11-15,10:59:06,11:17:57,NA,incomplete,156,shape,1,right,Green_Triangle_Chess_1.jpg,Purple_Star_Grid_1.jpg,Red_Triangle_Stripes_3.jpg,right,713.8900000008289,true,low,false
VQYIUQhP,3fhtjgyt9qduw7xo30k18rjdqjggpm,30x31n5d673smsy70j1nwu9dryoash,VQYIUQhP,2020-0188,2020-11-15,10:59:06,11:17:57,NA,incomplete,157,shape,0,left,Red_Triangle_Stripes_4.jpg,Green_Triangle_Grid_3.jpg,Blue_Circle_Dots_4.jpg,left,721.6800000005169,true,low,false
VQYIUQhP,3fhtjgyt9qduw7xo30k18rjdqjggpm,30x31n5d673smsy70j1nwu9dryoash,VQYIUQhP,2020-0188,2020-11-15,10:59:06,11:17:57,NA,incomplete,158,shape,1,right,Blue_Star_Dots_3.jpg,Green_Triangle_Chess_3.jpg,Purple_Star_Stripes_4.jpg,right,840.7100000004284,true,low,false
VQYIUQhP,3fhtjgyt9qduw7xo30k18rjdqjggpm,30x31n5d673smsy70j1nwu9dryoash,VQYIUQhP,2020-0188,2020-11-15,10:59:06,11:17:57,NA,incomplete,159,shape,1,right,Purple_Triangle_Chess_4.jpg,Red_Circle_Grid_4.jpg,Blue_Triangle_Stripes_2.jpg,right,796.6400000004796,true,low,false
VQYIUQhP,3fhtjgyt9qduw7xo30k18rjdqjggpm,30x31n5d673smsy70j1nwu9dryoash,VQYIUQhP,2020-0188,2020-11-15,10:59:06,11:17:57,NA,incomplete,160,number,0,left,Blue_Star_Chess_4.jpg,Purple_Plus_Stripes_4.jpg,Green_Star_Grid_1.jpg,right,848.2900000016671,false,low,false
VQYIUQhP,3fhtjgyt9qduw7xo30k18rjdqjggpm,30x31n5d673smsy70j1nwu9dryoash,VQYIUQhP,2020-0188,2020-11-15,10:59:06,11:17:57,NA,incomplete,161,number,1,left,Green_Plus_Dots_2.jpg,Blue_Star_Chess_2.jpg,Red_Plus_Grid_3.jpg,none,0,false,low,false
VQYIUQhP,3fhtjgyt9qduw7xo30k18rjdqjggpm,30x31n5d673smsy70j1nwu9dryoash,VQYIUQhP,2020-0188,2020-11-15,10:59:06,11:17:57,NA,incomplete,162,number,1,left,Purple_Triangle_Dots_4.jpg,Red_Circle_Chess_4.jpg,Green_Triangle_Grid_2.jpg,none,0,false,low,false
VQYIUQhP,3fhtjgyt9qduw7xo30k18rjdqjggpm,30x31n5d673smsy70j1nwu9dryoash,VQYIUQhP,2020-0188,2020-11-15,10:59:06,11:17:57,NA,incomplete,163,number,1,right,Blue_Plus_Stripes_1.jpg,Red_Plus_Dots_4.jpg,Purple_Star_Chess_1.jpg,none,0,false,low,false
VQYIUQhP,3fhtjgyt9qduw7xo30k18rjdqjggpm,30x31n5d673smsy70j1nwu9dryoash,VQYIUQhP,2020-0188,2020-11-15,10:59:06,11:17:57,NA,incomplete,164,number,1,right,Red_Circle_Stripes_1.jpg,Green_Circle_Chess_3.jpg,Purple_Plus_Dots_1.jpg,right,806.7150000006659,true,low,false
VQYIUQhP,3fhtjgyt9qduw7xo30k18rjdqjggpm,30x31n5d673smsy70j1nwu9dryoash,VQYIUQhP,2020-0188,2020-11-15,10:59:06,11:17:57,NA,incomplete,165,number,1,right,Purple_Circle_Grid_1.jpg,Blue_Circle_Dots_4.jpg,Red_Plus_Chess_1.jpg,right,890.5250000007218,true,low,false
VQYIUQhP,3fhtjgyt9qduw7xo30k18rjdqjggpm,30x31n5d673smsy70j1nwu9dryoash,VQYIUQhP,2020-0188,2020-11-15,10:59:06,11:17:57,NA,incomplete,166,number,1,right,Blue_Star_Stripes_2.jpg,Purple_Star_Dots_3.jpg,Red_Triangle_Chess_2.jpg,right,715.2299999997485,true,low,false
VQYIUQhP,3fhtjgyt9qduw7xo30k18rjdqjggpm,30x31n5d673smsy70j1nwu9dryoash,VQYIUQhP,2020-0188,2020-11-15,10:59:06,11:17:57,NA,incomplete,167,number,0,left,Blue_Circle_Chess_2.jpg,Red_Plus_Stripes_2.jpg,Purple_Circle_Dots_4.jpg,left,796.089999999851,true,low,false
VQYIUQhP,3fhtjgyt9qduw7xo30k18rjdqjggpm,30x31n5d673smsy70j1nwu9dryoash,VQYIUQhP,2020-0188,2020-11-15,10:59:06,11:17:57,NA,incomplete,168,number,1,right,Blue_Plus_Chess_2.jpg,Red_Plus_Dots_1.jpg,Purple_Triangle_Grid_2.jpg,right,704.004999999539,true,low,false
VQYIUQhP,3fhtjgyt9qduw7xo30k18rjdqjggpm,30x31n5d673smsy70j1nwu9dryoash,VQYIUQhP,2020-0188,2020-11-15,10:59:06,11:17:57,NA,incomplete,169,number,1,left,Red_Star_Chess_1.jpg,Green_Triangle_Dots_1.jpg,Blue_Star_Stripes_4.jpg,left,527.7249999999767,true,low,false
VQYIUQhP,3fhtjgyt9qduw7xo30k18rjdqjggpm,30x31n5d673smsy70j1nwu9dryoash,VQYIUQhP,2020-0188,2020-11-15,10:59:06,11:17:57,NA,incomplete,170,number,1,right,Green_Triangle_Grid_4.jpg,Purple_Triangle_Chess_3.jpg,Blue_Star_Stripes_4.jpg,right,1166.804999998887,true,low,false
VQYIUQhP,3fhtjgyt9qduw7xo30k18rjdqjggpm,30x31n5d673smsy70j1nwu9dryoash,VQYIUQhP,2020-0188,2020-11-15,10:59:06,11:17:57,NA,incomplete,171,number,1,right,Red_Plus_Grid_3.jpg,Blue_Plus_Chess_2.jpg,Green_Star_Stripes_3.jpg,right,741.6000000012573,true,low,false
VQYIUQhP,3fhtjgyt9qduw7xo30k18rjdqjggpm,30x31n5d673smsy70j1nwu9dryoash,VQYIUQhP,2020-0188,2020-11-15,10:59:06,11:17:57,NA,incomplete,172,number,1,left,Green_Plus_Chess_4.jpg,Red_Circle_Grid_4.jpg,Purple_Plus_Stripes_3.jpg,left,1188.955000001355,true,low,false
VQYIUQhP,3fhtjgyt9qduw7xo30k18rjdqjggpm,30x31n5d673smsy70j1nwu9dryoash,VQYIUQhP,2020-0188,2020-11-15,10:59:06,11:17:57,NA,incomplete,173,number,1,left,Blue_Circle_Grid_4.jpg,Green_Triangle_Dots_4.jpg,Red_Circle_Chess_2.jpg,left,728.3050000006333,true,low,false
VQYIUQhP,3fhtjgyt9qduw7xo30k18rjdqjggpm,30x31n5d673smsy70j1nwu9dryoash,VQYIUQhP,2020-0188,2020-11-15,10:59:06,11:17:57,NA,incomplete,174,number,1,left,Red_Triangle_Stripes_4.jpg,Purple_Circle_Chess_4.jpg,Green_Triangle_Grid_1.jpg,left,639.7600000000093,true,low,false
VQYIUQhP,3fhtjgyt9qduw7xo30k18rjdqjggpm,30x31n5d673smsy70j1nwu9dryoash,VQYIUQhP,2020-0188,2020-11-15,10:59:06,11:17:57,NA,incomplete,175,number,1,right,Red_Plus_Chess_2.jpg,Purple_Plus_Dots_4.jpg,Green_Circle_Stripes_2.jpg,right,714.0849999996135,true,low,false
VQYIUQhP,3fhtjgyt9qduw7xo30k18rjdqjggpm,30x31n5d673smsy70j1nwu9dryoash,VQYIUQhP,2020-0188,2020-11-15,10:59:06,11:17:57,NA,incomplete,176,number,1,left,Red_Triangle_Stripes_4.jpg,Blue_Star_Grid_4.jpg,Purple_Triangle_Chess_2.jpg,left,666.0449999999255,true,low,false
VQYIUQhP,3fhtjgyt9qduw7xo30k18rjdqjggpm,30x31n5d673smsy70j1nwu9dryoash,VQYIUQhP,2020-0188,2020-11-15,10:59:06,11:17:57,NA,incomplete,177,number,1,left,Purple_Star_Stripes_1.jpg,Red_Triangle_Grid_1.jpg,Green_Star_Chess_4.jpg,left,629.4300000008661,true,low,false
VQYIUQhP,3fhtjgyt9qduw7xo30k18rjdqjggpm,30x31n5d673smsy70j1nwu9dryoash,VQYIUQhP,2020-0188,2020-11-15,10:59:06,11:17:57,NA,incomplete,178,number,0,right,Green_Plus_Grid_2.jpg,Purple_Plus_Stripes_4.jpg,Red_Triangle_Dots_2.jpg,right,735.5700000006473,true,low,false
VQYIUQhP,3fhtjgyt9qduw7xo30k18rjdqjggpm,30x31n5d673smsy70j1nwu9dryoash,VQYIUQhP,2020-0188,2020-11-15,10:59:06,11:17:57,NA,incomplete,179,number,1,left,Purple_Circle_Stripes_2.jpg,Red_Star_Dots_2.jpg,Green_Circle_Grid_3.jpg,left,741.8099999994738,true,low,false
VQYIUQhP,3fhtjgyt9qduw7xo30k18rjdqjggpm,30x31n5d673smsy70j1nwu9dryoash,VQYIUQhP,2020-0188,2020-11-15,10:59:06,11:17:57,NA,incomplete,180,shape,1,right,Blue_Triangle_Grid_3.jpg,Purple_Plus_Stripes_3.jpg,Green_Triangle_Dots_1.jpg,left,772.7950000007404,false,low,false
VQYIUQhP,3fhtjgyt9qduw7xo30k18rjdqjggpm,30x31n5d673smsy70j1nwu9dryoash,VQYIUQhP,2020-0188,2020-11-15,10:59:06,11:17:57,NA,incomplete,181,shape,0,left,Blue_Triangle_Stripes_3.jpg,Green_Triangle_Chess_2.jpg,Red_Star_Grid_3.jpg,left,746.129999999539,true,low,false
VQYIUQhP,3fhtjgyt9qduw7xo30k18rjdqjggpm,30x31n5d673smsy70j1nwu9dryoash,VQYIUQhP,2020-0188,2020-11-15,10:59:06,11:17:57,NA,incomplete,182,shape,1,left,Red_Star_Grid_1.jpg,Purple_Star_Stripes_3.jpg,Green_Triangle_Chess_1.jpg,right,617.8949999993201,false,low,false
VQYIUQhP,3fhtjgyt9qduw7xo30k18rjdqjggpm,30x31n5d673smsy70j1nwu9dryoash,VQYIUQhP,2020-0188,2020-11-15,10:59:06,11:17:57,NA,incomplete,183,shape,1,right,Green_Plus_Dots_3.jpg,Red_Star_Grid_3.jpg,Blue_Plus_Stripes_1.jpg,right,940.8199999998324,true,low,false
VQYIUQhP,3fhtjgyt9qduw7xo30k18rjdqjggpm,30x31n5d673smsy70j1nwu9dryoash,VQYIUQhP,2020-0188,2020-11-15,10:59:06,11:17:57,NA,incomplete,184,shape,1,left,Red_Circle_Stripes_4.jpg,Green_Circle_Dots_2.jpg,Blue_Star_Chess_4.jpg,left,754.9699999999721,true,low,false
VQYIUQhP,3fhtjgyt9qduw7xo30k18rjdqjggpm,30x31n5d673smsy70j1nwu9dryoash,VQYIUQhP,2020-0188,2020-11-15,10:59:06,11:17:57,NA,incomplete,185,shape,1,right,Red_Star_Chess_3.jpg,Purple_Circle_Grid_3.jpg,Green_Star_Stripes_1.jpg,right,729.1000000004424,true,low,false
VQYIUQhP,3fhtjgyt9qduw7xo30k18rjdqjggpm,30x31n5d673smsy70j1nwu9dryoash,VQYIUQhP,2020-0188,2020-11-15,10:59:06,11:17:57,NA,incomplete,186,shape,0,right,Purple_Plus_Chess_3.jpg,Green_Circle_Dots_3.jpg,Red_Plus_Stripes_2.jpg,right,680.5949999997392,true,low,false
VQYIUQhP,3fhtjgyt9qduw7xo30k18rjdqjggpm,30x31n5d673smsy70j1nwu9dryoash,VQYIUQhP,2020-0188,2020-11-15,10:59:06,11:17:57,NA,incomplete,187,shape,1,left,Red_Star_Chess_2.jpg,Blue_Star_Stripes_3.jpg,Green_Plus_Dots_2.jpg,left,754.9600000001956,true,low,false
VQYIUQhP,3fhtjgyt9qduw7xo30k18rjdqjggpm,30x31n5d673smsy70j1nwu9dryoash,VQYIUQhP,2020-0188,2020-11-15,10:59:06,11:17:57,NA,incomplete,188,shape,1,right,Purple_Plus_Dots_2.jpg,Red_Circle_Stripes_2.jpg,Green_Plus_Chess_4.jpg,right,655.6100000016158,true,low,false
VQYIUQhP,3fhtjgyt9qduw7xo30k18rjdqjggpm,30x31n5d673smsy70j1nwu9dryoash,VQYIUQhP,2020-0188,2020-11-15,10:59:06,11:17:57,NA,incomplete,189,shape,1,right,Green_Plus_Grid_3.jpg,Red_Circle_Chess_3.jpg,Purple_Plus_Stripes_4.jpg,right,697.8400000006659,true,low,false
VQYIUQhP,3fhtjgyt9qduw7xo30k18rjdqjggpm,30x31n5d673smsy70j1nwu9dryoash,VQYIUQhP,2020-0188,2020-11-15,10:59:06,11:17:57,NA,incomplete,190,shape,1,left,Purple_Star_Stripes_4.jpg,Red_Star_Grid_3.jpg,Green_Circle_Dots_4.jpg,left,698.4649999995017,true,low,false
VQYIUQhP,3fhtjgyt9qduw7xo30k18rjdqjggpm,30x31n5d673smsy70j1nwu9dryoash,VQYIUQhP,2020-0188,2020-11-15,10:59:06,11:17:57,NA,incomplete,191,shape,1,left,Purple_Circle_Dots_1.jpg,Green_Circle_Chess_3.jpg,Blue_Star_Stripes_1.jpg,left,771.1699999999255,true,low,false
VQYIUQhP,3fhtjgyt9qduw7xo30k18rjdqjggpm,30x31n5d673smsy70j1nwu9dryoash,VQYIUQhP,2020-0188,2020-11-15,10:59:06,11:17:57,NA,incomplete,192,shape,0,left,Blue_Circle_Stripes_2.jpg,Purple_Circle_Dots_4.jpg,Red_Star_Grid_2.jpg,left,745.5899999985704,true,low,false
VQYIUQhP,3fhtjgyt9qduw7xo30k18rjdqjggpm,30x31n5d673smsy70j1nwu9dryoash,VQYIUQhP,2020-0188,2020-11-15,10:59:06,11:17:57,NA,incomplete,193,shape,1,right,Purple_Circle_Grid_4.jpg,Blue_Star_Dots_4.jpg,Green_Circle_Chess_1.jpg,right,703.1200000001118,true,low,false
VQYIUQhP,3fhtjgyt9qduw7xo30k18rjdqjggpm,30x31n5d673smsy70j1nwu9dryoash,VQYIUQhP,2020-0188,2020-11-15,10:59:06,11:17:57,NA,incomplete,194,shape,0,left,Blue_Plus_Dots_1.jpg,Purple_Plus_Stripes_3.jpg,Red_Star_Chess_1.jpg,left,830.7400000012713,true,low,false
VQYIUQhP,3fhtjgyt9qduw7xo30k18rjdqjggpm,30x31n5d673smsy70j1nwu9dryoash,VQYIUQhP,2020-0188,2020-11-15,10:59:06,11:17:57,NA,incomplete,195,shape,1,left,Red_Plus_Chess_3.jpg,Purple_Plus_Stripes_1.jpg,Green_Star_Dots_3.jpg,right,650.5349999988684,false,low,false
VQYIUQhP,3fhtjgyt9qduw7xo30k18rjdqjggpm,30x31n5d673smsy70j1nwu9dryoash,VQYIUQhP,2020-0188,2020-11-15,10:59:06,11:17:57,NA,incomplete,196,shape,1,left,Red_Plus_Stripes_1.jpg,Purple_Plus_Chess_2.jpg,Green_Star_Dots_1.jpg,left,676.9999999997672,true,low,false
VQYIUQhP,3fhtjgyt9qduw7xo30k18rjdqjggpm,30x31n5d673smsy70j1nwu9dryoash,VQYIUQhP,2020-0188,2020-11-15,10:59:06,11:17:57,NA,incomplete,197,shape,0,left,Red_Circle_Chess_2.jpg,Purple_Circle_Grid_1.jpg,Green_Triangle_Stripes_2.jpg,left,606.8999999988591,true,low,false
VQYIUQhP,3fhtjgyt9qduw7xo30k18rjdqjggpm,30x31n5d673smsy70j1nwu9dryoash,VQYIUQhP,2020-0188,2020-11-15,10:59:06,11:17:57,NA,incomplete,198,shape,1,left,Green_Circle_Grid_2.jpg,Blue_Circle_Dots_1.jpg,Purple_Star_Stripes_2.jpg,right,1266.5500000002794,false,low,false
VQYIUQhP,3fhtjgyt9qduw7xo30k18rjdqjggpm,30x31n5d673smsy70j1nwu9dryoash,VQYIUQhP,2020-0188,2020-11-15,10:59:06,11:17:57,NA,incomplete,199,shape,1,right,Blue_Star_Dots_3.jpg,Purple_Triangle_Grid_3.jpg,Green_Star_Stripes_1.jpg,right,724.2449999994133,true,low,false
VQYIUQhP,3fhtjgyt9qduw7xo30k18rjdqjggpm,30x31n5d673smsy70j1nwu9dryoash,VQYIUQhP,2020-0188,2020-11-15,10:59:06,11:17:57,NA,incomplete,200,number,1,left,Purple_Circle_Dots_2.jpg,Blue_Triangle_Stripes_2.jpg,Red_Circle_Grid_1.jpg,right,555.6649999999208,false,low,false
VQYIUQhP,3fhtjgyt9qduw7xo30k18rjdqjggpm,30x31n5d673smsy70j1nwu9dryoash,VQYIUQhP,2020-0188,2020-11-15,10:59:06,11:17:57,NA,incomplete,201,number,1,right,Blue_Triangle_Stripes_1.jpg,Red_Triangle_Chess_3.jpg,Green_Star_Dots_1.jpg,right,1009.2100000000792,true,low,false
VQYIUQhP,3fhtjgyt9qduw7xo30k18rjdqjggpm,30x31n5d673smsy70j1nwu9dryoash,VQYIUQhP,2020-0188,2020-11-15,10:59:06,11:17:57,NA,incomplete,202,number,1,right,Green_Plus_Stripes_1.jpg,Purple_Plus_Grid_4.jpg,Red_Circle_Dots_1.jpg,right,606.3499999999767,true,low,false
VQYIUQhP,3fhtjgyt9qduw7xo30k18rjdqjggpm,30x31n5d673smsy70j1nwu9dryoash,VQYIUQhP,2020-0188,2020-11-15,10:59:06,11:17:57,NA,incomplete,203,number,1,left,Red_Circle_Grid_1.jpg,Blue_Triangle_Dots_1.jpg,Purple_Circle_Stripes_2.jpg,left,617.8049999998184,true,low,false
VQYIUQhP,3fhtjgyt9qduw7xo30k18rjdqjggpm,30x31n5d673smsy70j1nwu9dryoash,VQYIUQhP,2020-0188,2020-11-15,10:59:06,11:17:57,NA,incomplete,204,number,1,right,Purple_Star_Dots_2.jpg,Blue_Star_Grid_3.jpg,Red_Plus_Stripes_2.jpg,right,740.934999999823,true,low,false
VQYIUQhP,3fhtjgyt9qduw7xo30k18rjdqjggpm,30x31n5d673smsy70j1nwu9dryoash,VQYIUQhP,2020-0188,2020-11-15,10:59:06,11:17:57,NA,incomplete,205,number,0,left,Red_Triangle_Chess_4.jpg,Green_Plus_Dots_4.jpg,Purple_Triangle_Grid_1.jpg,left,651.3199999991339,true,low,false
VQYIUQhP,3fhtjgyt9qduw7xo30k18rjdqjggpm,30x31n5d673smsy70j1nwu9dryoash,VQYIUQhP,2020-0188,2020-11-15,10:59:06,11:17:57,NA,incomplete,206,number,1,left,Blue_Plus_Dots_2.jpg,Purple_Circle_Chess_2.jpg,Green_Plus_Stripes_4.jpg,left,837.3250000004191,true,low,false
VQYIUQhP,3fhtjgyt9qduw7xo30k18rjdqjggpm,30x31n5d673smsy70j1nwu9dryoash,VQYIUQhP,2020-0188,2020-11-15,10:59:06,11:17:57,NA,incomplete,207,number,1,right,Blue_Triangle_Stripes_1.jpg,Red_Triangle_Grid_3.jpg,Green_Star_Dots_1.jpg,right,681.0400000013178,true,low,false
VQYIUQhP,3fhtjgyt9qduw7xo30k18rjdqjggpm,30x31n5d673smsy70j1nwu9dryoash,VQYIUQhP,2020-0188,2020-11-15,10:59:06,11:17:57,NA,incomplete,208,number,0,left,Purple_Star_Chess_4.jpg,Blue_Circle_Dots_4.jpg,Red_Star_Grid_2.jpg,left,761.4549999998417,true,low,false
VQYIUQhP,3fhtjgyt9qduw7xo30k18rjdqjggpm,30x31n5d673smsy70j1nwu9dryoash,VQYIUQhP,2020-0188,2020-11-15,10:59:06,11:17:57,NA,incomplete,209,number,1,right,Purple_Plus_Stripes_3.jpg,Blue_Plus_Chess_4.jpg,Green_Triangle_Grid_3.jpg,right,775.4899999999907,true,low,false
VQYIUQhP,3fhtjgyt9qduw7xo30k18rjdqjggpm,30x31n5d673smsy70j1nwu9dryoash,VQYIUQhP,2020-0188,2020-11-15,10:59:06,11:17:57,NA,incomplete,210,number,1,left,Green_Star_Chess_4.jpg,Blue_Plus_Grid_4.jpg,Purple_Star_Stripes_2.jpg,left,652.8049999998184,true,low,false
VQYIUQhP,3fhtjgyt9qduw7xo30k18rjdqjggpm,30x31n5d673smsy70j1nwu9dryoash,VQYIUQhP,2020-0188,2020-11-15,10:59:06,11:17:57,NA,incomplete,211,number,1,right,Purple_Star_Dots_4.jpg,Blue_Star_Stripes_3.jpg,Red_Triangle_Chess_4.jpg,right,734.2449999996461,true,low,false
VQYIUQhP,3fhtjgyt9qduw7xo30k18rjdqjggpm,30x31n5d673smsy70j1nwu9dryoash,VQYIUQhP,2020-0188,2020-11-15,10:59:06,11:17:57,NA,incomplete,212,number,0,right,Blue_Circle_Grid_2.jpg,Red_Circle_Dots_1.jpg,Green_Star_Chess_2.jpg,right,709.9849999995204,true,low,false
VQYIUQhP,3fhtjgyt9qduw7xo30k18rjdqjggpm,30x31n5d673smsy70j1nwu9dryoash,VQYIUQhP,2020-0188,2020-11-15,10:59:06,11:17:57,NA,incomplete,213,number,1,left,Green_Triangle_Grid_4.jpg,Blue_Circle_Stripes_4.jpg,Red_Triangle_Dots_2.jpg,left,740.734999999404,true,low,false
VQYIUQhP,3fhtjgyt9qduw7xo30k18rjdqjggpm,30x31n5d673smsy70j1nwu9dryoash,VQYIUQhP,2020-0188,2020-11-15,10:59:06,11:17:57,NA,incomplete,214,number,1,right,Red_Plus_Stripes_3.jpg,Blue_Plus_Dots_2.jpg,Purple_Circle_Grid_3.jpg,right,844.0749999991385,true,low,false
VQYIUQhP,3fhtjgyt9qduw7xo30k18rjdqjggpm,30x31n5d673smsy70j1nwu9dryoash,VQYIUQhP,2020-0188,2020-11-15,10:59:06,11:17:57,NA,incomplete,215,number,1,left,Blue_Triangle_Grid_4.jpg,Green_Plus_Dots_4.jpg,Purple_Triangle_Chess_2.jpg,left,750.6849999990081,true,low,false
VQYIUQhP,3fhtjgyt9qduw7xo30k18rjdqjggpm,30x31n5d673smsy70j1nwu9dryoash,VQYIUQhP,2020-0188,2020-11-15,10:59:06,11:17:57,NA,incomplete,216,number,1,left,Blue_Triangle_Dots_2.jpg,Green_Plus_Grid_2.jpg,Red_Triangle_Stripes_1.jpg,left,813.0949999995064,true,low,false
VQYIUQhP,3fhtjgyt9qduw7xo30k18rjdqjggpm,30x31n5d673smsy70j1nwu9dryoash,VQYIUQhP,2020-0188,2020-11-15,10:59:06,11:17:57,NA,incomplete,217,number,1,left,Purple_Plus_Grid_1.jpg,Green_Star_Chess_1.jpg,Red_Plus_Dots_4.jpg,left,850.2900000003865,true,low,false
VQYIUQhP,3fhtjgyt9qduw7xo30k18rjdqjggpm,30x31n5d673smsy70j1nwu9dryoash,VQYIUQhP,2020-0188,2020-11-15,10:59:06,11:17:57,NA,incomplete,218,number,1,right,Blue_Circle_Chess_4.jpg,Purple_Circle_Dots_3.jpg,Red_Star_Grid_4.jpg,right,915.4350000008708,true,low,false
VQYIUQhP,3fhtjgyt9qduw7xo30k18rjdqjggpm,30x31n5d673smsy70j1nwu9dryoash,VQYIUQhP,2020-0188,2020-11-15,10:59:06,11:17:57,NA,incomplete,219,number,1,right,Red_Circle_Stripes_1.jpg,Purple_Circle_Dots_3.jpg,Green_Star_Chess_1.jpg,right,691.7750000011874,true,low,false
VQYIUQhP,3fhtjgyt9qduw7xo30k18rjdqjggpm,30x31n5d673smsy70j1nwu9dryoash,VQYIUQhP,2020-0188,2020-11-15,10:59:06,11:17:57,NA,incomplete,220,shape,0,left,Red_Plus_Stripes_2.jpg,Blue_Plus_Grid_4.jpg,Purple_Star_Chess_2.jpg,right,724.019999999553,false,low,false
VQYIUQhP,3fhtjgyt9qduw7xo30k18rjdqjggpm,30x31n5d673smsy70j1nwu9dryoash,VQYIUQhP,2020-0188,2020-11-15,10:59:06,11:17:57,NA,incomplete,221,shape,1,left,Purple_Plus_Dots_2.jpg,Green_Plus_Grid_1.jpg,Red_Circle_Chess_2.jpg,right,699.8499999990454,false,low,false
VQYIUQhP,3fhtjgyt9qduw7xo30k18rjdqjggpm,30x31n5d673smsy70j1nwu9dryoash,VQYIUQhP,2020-0188,2020-11-15,10:59:06,11:17:57,NA,incomplete,222,shape,1,right,Green_Triangle_Stripes_3.jpg,Blue_Plus_Chess_3.jpg,Red_Triangle_Grid_1.jpg,left,829.1800000006333,false,low,false
VQYIUQhP,3fhtjgyt9qduw7xo30k18rjdqjggpm,30x31n5d673smsy70j1nwu9dryoash,VQYIUQhP,2020-0188,2020-11-15,10:59:06,11:17:57,NA,incomplete,223,shape,1,right,Green_Plus_Stripes_3.jpg,Red_Triangle_Chess_3.jpg,Blue_Plus_Dots_4.jpg,left,831.5150000016438,false,low,false
VQYIUQhP,3fhtjgyt9qduw7xo30k18rjdqjggpm,30x31n5d673smsy70j1nwu9dryoash,VQYIUQhP,2020-0188,2020-11-15,10:59:06,11:17:57,NA,incomplete,224,shape,1,left,Green_Circle_Chess_4.jpg,Purple_Circle_Dots_3.jpg,Red_Triangle_Stripes_4.jpg,left,754.9650000000838,true,low,false
VQYIUQhP,3fhtjgyt9qduw7xo30k18rjdqjggpm,30x31n5d673smsy70j1nwu9dryoash,VQYIUQhP,2020-0188,2020-11-15,10:59:06,11:17:57,NA,incomplete,225,shape,1,right,Blue_Plus_Stripes_2.jpg,Red_Star_Chess_2.jpg,Green_Plus_Dots_4.jpg,right,818.025000000489,true,low,false
VQYIUQhP,3fhtjgyt9qduw7xo30k18rjdqjggpm,30x31n5d673smsy70j1nwu9dryoash,VQYIUQhP,2020-0188,2020-11-15,10:59:06,11:17:57,NA,incomplete,226,shape,1,right,Green_Star_Stripes_4.jpg,Red_Triangle_Chess_4.jpg,Purple_Star_Dots_3.jpg,right,788.8750000002328,true,low,false
VQYIUQhP,3fhtjgyt9qduw7xo30k18rjdqjggpm,30x31n5d673smsy70j1nwu9dryoash,VQYIUQhP,2020-0188,2020-11-15,10:59:06,11:17:57,NA,incomplete,227,shape,1,right,Red_Plus_Chess_1.jpg,Blue_Triangle_Dots_1.jpg,Purple_Plus_Grid_2.jpg,right,841.4599999996135,true,low,false
VQYIUQhP,3fhtjgyt9qduw7xo30k18rjdqjggpm,30x31n5d673smsy70j1nwu9dryoash,VQYIUQhP,2020-0188,2020-11-15,10:59:06,11:17:57,NA,incomplete,228,shape,1,right,Green_Star_Stripes_1.jpg,Purple_Triangle_Grid_1.jpg,Blue_Star_Dots_2.jpg,right,810.6650000008522,true,low,false
VQYIUQhP,3fhtjgyt9qduw7xo30k18rjdqjggpm,30x31n5d673smsy70j1nwu9dryoash,VQYIUQhP,2020-0188,2020-11-15,10:59:06,11:17:57,NA,incomplete,229,shape,1,left,Green_Circle_Grid_1.jpg,Blue_Circle_Stripes_4.jpg,Purple_Triangle_Dots_1.jpg,left,791.9249999995809,true,low,false
VQYIUQhP,3fhtjgyt9qduw7xo30k18rjdqjggpm,30x31n5d673smsy70j1nwu9dryoash,VQYIUQhP,2020-0188,2020-11-15,10:59:06,11:17:57,NA,incomplete,230,shape,1,right,Blue_Circle_Dots_1.jpg,Red_Triangle_Chess_1.jpg,Green_Circle_Stripes_2.jpg,right,556.5399999995716,true,low,false
VQYIUQhP,3fhtjgyt9qduw7xo30k18rjdqjggpm,30x31n5d673smsy70j1nwu9dryoash,VQYIUQhP,2020-0188,2020-11-15,10:59:06,11:17:57,NA,incomplete,231,shape,1,right,Red_Plus_Chess_1.jpg,Purple_Circle_Grid_1.jpg,Green_Plus_Dots_2.jpg,right,651.2150000017136,true,low,false
VQYIUQhP,3fhtjgyt9qduw7xo30k18rjdqjggpm,30x31n5d673smsy70j1nwu9dryoash,VQYIUQhP,2020-0188,2020-11-15,10:59:06,11:17:57,NA,incomplete,232,shape,1,right,Blue_Star_Stripes_3.jpg,Green_Circle_Chess_3.jpg,Purple_Star_Grid_4.jpg,right,797.4699999995064,true,low,false
VQYIUQhP,3fhtjgyt9qduw7xo30k18rjdqjggpm,30x31n5d673smsy70j1nwu9dryoash,VQYIUQhP,2020-0188,2020-11-15,10:59:06,11:17:57,NA,incomplete,233,shape,1,left,Purple_Triangle_Dots_3.jpg,Red_Triangle_Chess_2.jpg,Green_Star_Stripes_3.jpg,right,889.3299999999581,false,low,false
VQYIUQhP,3fhtjgyt9qduw7xo30k18rjdqjggpm,30x31n5d673smsy70j1nwu9dryoash,VQYIUQhP,2020-0188,2020-11-15,10:59:06,11:17:57,NA,incomplete,234,shape,0,right,Red_Triangle_Stripes_2.jpg,Green_Plus_Chess_2.jpg,Purple_Triangle_Dots_3.jpg,right,633.9450000014622,true,low,false
VQYIUQhP,3fhtjgyt9qduw7xo30k18rjdqjggpm,30x31n5d673smsy70j1nwu9dryoash,VQYIUQhP,2020-0188,2020-11-15,10:59:06,11:17:57,NA,incomplete,235,shape,1,left,Green_Plus_Dots_2.jpg,Purple_Plus_Grid_3.jpg,Blue_Circle_Chess_2.jpg,left,1556.5349999996834,true,low,false
VQYIUQhP,3fhtjgyt9qduw7xo30k18rjdqjggpm,30x31n5d673smsy70j1nwu9dryoash,VQYIUQhP,2020-0188,2020-11-15,10:59:06,11:17:57,NA,incomplete,236,shape,0,left,Blue_Triangle_Stripes_4.jpg,Red_Triangle_Dots_3.jpg,Purple_Star_Grid_4.jpg,left,738.1199999999953,true,low,false
VQYIUQhP,3fhtjgyt9qduw7xo30k18rjdqjggpm,30x31n5d673smsy70j1nwu9dryoash,VQYIUQhP,2020-0188,2020-11-15,10:59:06,11:17:57,NA,incomplete,237,shape,1,right,Purple_Star_Dots_2.jpg,Green_Plus_Stripes_2.jpg,Blue_Star_Grid_3.jpg,left,978.1050000000978,false,low,false
VQYIUQhP,3fhtjgyt9qduw7xo30k18rjdqjggpm,30x31n5d673smsy70j1nwu9dryoash,VQYIUQhP,2020-0188,2020-11-15,10:59:06,11:17:57,NA,incomplete,238,shape,1,right,Blue_Circle_Stripes_1.jpg,Green_Triangle_Grid_1.jpg,Purple_Circle_Chess_3.jpg,right,542.4949999998789,true,low,false
VQYIUQhP,3fhtjgyt9qduw7xo30k18rjdqjggpm,30x31n5d673smsy70j1nwu9dryoash,VQYIUQhP,2020-0188,2020-11-15,10:59:06,11:17:57,NA,incomplete,239,shape,1,right,Purple_Star_Chess_3.jpg,Green_Circle_Grid_3.jpg,Red_Star_Dots_4.jpg,right,636.9299999987707,true,low,false
VQYIUQhP,3fhtjgyt9qduw7xo30k18rjdqjggpm,30x31n5d673smsy70j1nwu9dryoash,VQYIUQhP,2020-0188,2020-11-15,10:59:06,11:17:57,1067020.0100000002,1132589.7650000006,NA,NA,NA,NA,NA,NA,NA,NA,NA,NA,NA,undefined
