workerId,hitId,assignmentId,subject,studyid,exp_date,exp_start,exp_end,time_start,time_end,trial,type,reward_validity,answer,image_top,image_left,image_right,response,response_time,response_acc,volatility,age,race,gender,ethnicity,color,vision,neuro,practice
CkDsWth3,3vll1pieot1c2ogsesvb4yutk6poza,3137onmdkkism06slo9s3zg0o31eg5,CkDsWth3,2020-0188,2020-05-08,10:12:05,10:34:12,NA,incomplete,0,filling,1,left,Blue_Plus_Stripes_4.jpg,Green_Triangle_Stripes_1.jpg,Red_Circle_Chess_4.jpg,right,734.4849999062717,false,NA,NA,NA,NA,NA,NA,NA,NA,true
CkDsWth3,3vll1pieot1c2ogsesvb4yutk6poza,3137onmdkkism06slo9s3zg0o31eg5,CkDsWth3,2020-0188,2020-05-08,10:12:05,10:34:12,NA,incomplete,1,filling,1,right,Purple_Circle_Stripes_4.jpg,Red_Plus_Dots_4.jpg,Green_Triangle_Stripes_3.jpg,right,904.34499992989,true,NA,NA,NA,NA,NA,NA,NA,NA,true
CkDsWth3,3vll1pieot1c2ogsesvb4yutk6poza,3137onmdkkism06slo9s3zg0o31eg5,CkDsWth3,2020-0188,2020-05-08,10:12:05,10:34:12,NA,incomplete,2,filling,1,left,Purple_Plus_Chess_3.jpg,Green_Star_Chess_1.jpg,Blue_Circle_Dots_3.jpg,left,710.8899999875575,true,NA,NA,NA,NA,NA,NA,NA,NA,true
CkDsWth3,3vll1pieot1c2ogsesvb4yutk6poza,3137onmdkkism06slo9s3zg0o31eg5,CkDsWth3,2020-0188,2020-05-08,10:12:05,10:34:12,NA,incomplete,3,filling,1,left,Red_Triangle_Stripes_1.jpg,Green_Star_Stripes_2.jpg,Blue_Plus_Grid_1.jpg,left,799.3099999148399,true,NA,NA,NA,NA,NA,NA,NA,NA,true
CkDsWth3,3vll1pieot1c2ogsesvb4yutk6poza,3137onmdkkism06slo9s3zg0o31eg5,CkDsWth3,2020-0188,2020-05-08,10:12:05,10:34:12,NA,incomplete,4,filling,0,left,Red_Triangle_Chess_1.jpg,Blue_Plus_Chess_4.jpg,Green_Star_Stripes_1.jpg,left,700.5749999079853,true,NA,NA,NA,NA,NA,NA,NA,NA,true
CkDsWth3,3vll1pieot1c2ogsesvb4yutk6poza,3137onmdkkism06slo9s3zg0o31eg5,CkDsWth3,2020-0188,2020-05-08,10:12:05,10:34:12,NA,incomplete,5,filling,1,right,Blue_Plus_Grid_4.jpg,Purple_Circle_Dots_4.jpg,Green_Star_Grid_2.jpg,right,898.5050001647323,true,NA,NA,NA,NA,NA,NA,NA,NA,true
CkDsWth3,3vll1pieot1c2ogsesvb4yutk6poza,3137onmdkkism06slo9s3zg0o31eg5,CkDsWth3,2020-0188,2020-05-08,10:12:05,10:34:12,NA,incomplete,6,filling,1,left,Red_Triangle_Chess_1.jpg,Green_Plus_Chess_3.jpg,Purple_Star_Dots_1.jpg,left,641.4550000336021,true,NA,NA,NA,NA,NA,NA,NA,NA,true
CkDsWth3,3vll1pieot1c2ogsesvb4yutk6poza,3137onmdkkism06slo9s3zg0o31eg5,CkDsWth3,2020-0188,2020-05-08,10:12:05,10:34:12,NA,incomplete,7,filling,1,left,Purple_Triangle_Chess_4.jpg,Blue_Circle_Chess_1.jpg,Green_Plus_Dots_4.jpg,left,717.2650001011789,true,NA,NA,NA,NA,NA,NA,NA,NA,true
CkDsWth3,3vll1pieot1c2ogsesvb4yutk6poza,3137onmdkkism06slo9s3zg0o31eg5,CkDsWth3,2020-0188,2020-05-08,10:12:05,10:34:12,NA,incomplete,8,filling,1,right,Red_Star_Stripes_4.jpg,Blue_Circle_Grid_4.jpg,Purple_Triangle_Stripes_3.jpg,right,774.6550000738353,true,NA,NA,NA,NA,NA,NA,NA,NA,true
CkDsWth3,3vll1pieot1c2ogsesvb4yutk6poza,3137onmdkkism06slo9s3zg0o31eg5,CkDsWth3,2020-0188,2020-05-08,10:12:05,10:34:12,NA,incomplete,9,filling,0,left,Purple_Star_Grid_1.jpg,Red_Circle_Grid_2.jpg,Green_Plus_Chess_1.jpg,left,996.0600000340492,true,NA,NA,NA,NA,NA,NA,NA,NA,true
CkDsWth3,3vll1pieot1c2ogsesvb4yutk6poza,3137onmdkkism06slo9s3zg0o31eg5,CkDsWth3,2020-0188,2020-05-08,10:12:05,10:34:12,NA,incomplete,10,filling,1,left,Red_Triangle_Stripes_1.jpg,Purple_Circle_Stripes_3.jpg,Green_Star_Dots_1.jpg,left,753.1849998049438,true,NA,NA,NA,NA,NA,NA,NA,NA,true
CkDsWth3,3vll1pieot1c2ogsesvb4yutk6poza,3137onmdkkism06slo9s3zg0o31eg5,CkDsWth3,2020-0188,2020-05-08,10:12:05,10:34:12,NA,incomplete,11,filling,0,left,Green_Plus_Chess_3.jpg,Purple_Triangle_Chess_2.jpg,Blue_Star_Dots_3.jpg,left,684.6149999182671,true,NA,NA,NA,NA,NA,NA,NA,NA,true
CkDsWth3,3vll1pieot1c2ogsesvb4yutk6poza,3137onmdkkism06slo9s3zg0o31eg5,CkDsWth3,2020-0188,2020-05-08,10:12:05,10:34:12,NA,incomplete,12,filling,1,right,Blue_Star_Dots_3.jpg,Red_Triangle_Grid_3.jpg,Green_Circle_Dots_4.jpg,left,847.7849999908358,false,NA,NA,NA,NA,NA,NA,NA,NA,true
CkDsWth3,3vll1pieot1c2ogsesvb4yutk6poza,3137onmdkkism06slo9s3zg0o31eg5,CkDsWth3,2020-0188,2020-05-08,10:12:05,10:34:12,NA,incomplete,13,filling,1,right,Purple_Star_Stripes_1.jpg,Blue_Circle_Grid_1.jpg,Green_Triangle_Stripes_4.jpg,right,823.134999955073,true,NA,NA,NA,NA,NA,NA,NA,NA,true
CkDsWth3,3vll1pieot1c2ogsesvb4yutk6poza,3137onmdkkism06slo9s3zg0o31eg5,CkDsWth3,2020-0188,2020-05-08,10:12:05,10:34:12,NA,incomplete,14,filling,0,left,Blue_Triangle_Dots_2.jpg,Green_Plus_Dots_4.jpg,Red_Star_Chess_2.jpg,left,637.1249998919666,true,NA,NA,NA,NA,NA,NA,NA,NA,true
CkDsWth3,3vll1pieot1c2ogsesvb4yutk6poza,3137onmdkkism06slo9s3zg0o31eg5,CkDsWth3,2020-0188,2020-05-08,10:12:05,10:34:12,NA,incomplete,15,filling,1,left,Green_Plus_Dots_4.jpg,Purple_Triangle_Dots_2.jpg,Red_Circle_Stripes_4.jpg,left,871.8000000808388,true,NA,NA,NA,NA,NA,NA,NA,NA,true
CkDsWth3,3vll1pieot1c2ogsesvb4yutk6poza,3137onmdkkism06slo9s3zg0o31eg5,CkDsWth3,2020-0188,2020-05-08,10:12:05,10:34:12,NA,incomplete,16,filling,1,right,Red_Star_Stripes_4.jpg,Blue_Plus_Dots_4.jpg,Purple_Circle_Stripes_3.jpg,right,835.2600000798702,true,NA,NA,NA,NA,NA,NA,NA,NA,true
CkDsWth3,3vll1pieot1c2ogsesvb4yutk6poza,3137onmdkkism06slo9s3zg0o31eg5,CkDsWth3,2020-0188,2020-05-08,10:12:05,10:34:12,NA,incomplete,17,filling,1,right,Red_Triangle_Chess_4.jpg,Purple_Star_Grid_4.jpg,Blue_Plus_Chess_3.jpg,right,955.2900001872331,true,NA,NA,NA,NA,NA,NA,NA,NA,true
CkDsWth3,3vll1pieot1c2ogsesvb4yutk6poza,3137onmdkkism06slo9s3zg0o31eg5,CkDsWth3,2020-0188,2020-05-08,10:12:05,10:34:12,NA,incomplete,18,filling,1,right,Blue_Plus_Dots_3.jpg,Green_Circle_Chess_3.jpg,Purple_Triangle_Dots_1.jpg,right,700.7149998098612,true,NA,NA,NA,NA,NA,NA,NA,NA,true
CkDsWth3,3vll1pieot1c2ogsesvb4yutk6poza,3137onmdkkism06slo9s3zg0o31eg5,CkDsWth3,2020-0188,2020-05-08,10:12:05,10:34:12,NA,incomplete,19,filling,1,left,Red_Star_Dots_4.jpg,Green_Plus_Dots_3.jpg,Blue_Triangle_Chess_4.jpg,left,647.6699998602271,true,NA,NA,NA,NA,NA,NA,NA,NA,true
CkDsWth3,3vll1pieot1c2ogsesvb4yutk6poza,3137onmdkkism06slo9s3zg0o31eg5,CkDsWth3,2020-0188,2020-05-08,10:12:05,10:34:12,NA,incomplete,20,number,0,left,Green_Star_Stripes_3.jpg,Red_Circle_Chess_3.jpg,Purple_Triangle_Stripes_1.jpg,right,848.265000153333,false,NA,NA,NA,NA,NA,NA,NA,NA,true
CkDsWth3,3vll1pieot1c2ogsesvb4yutk6poza,3137onmdkkism06slo9s3zg0o31eg5,CkDsWth3,2020-0188,2020-05-08,10:12:05,10:34:12,NA,incomplete,21,number,1,left,Blue_Circle_Chess_4.jpg,Red_Star_Dots_4.jpg,Purple_Triangle_Chess_2.jpg,right,661.0399999190122,false,NA,NA,NA,NA,NA,NA,NA,NA,true
CkDsWth3,3vll1pieot1c2ogsesvb4yutk6poza,3137onmdkkism06slo9s3zg0o31eg5,CkDsWth3,2020-0188,2020-05-08,10:12:05,10:34:12,NA,incomplete,22,number,0,right,Red_Triangle_Chess_4.jpg,Purple_Star_Chess_2.jpg,Green_Circle_Stripes_4.jpg,right,674.024999840185,true,NA,NA,NA,NA,NA,NA,NA,NA,true
CkDsWth3,3vll1pieot1c2ogsesvb4yutk6poza,3137onmdkkism06slo9s3zg0o31eg5,CkDsWth3,2020-0188,2020-05-08,10:12:05,10:34:12,NA,incomplete,23,number,1,right,Green_Plus_Stripes_2.jpg,Purple_Star_Stripes_4.jpg,Red_Triangle_Grid_2.jpg,right,723.689999897033,true,NA,NA,NA,NA,NA,NA,NA,NA,true
CkDsWth3,3vll1pieot1c2ogsesvb4yutk6poza,3137onmdkkism06slo9s3zg0o31eg5,CkDsWth3,2020-0188,2020-05-08,10:12:05,10:34:12,NA,incomplete,24,number,1,left,Green_Star_Grid_2.jpg,Blue_Triangle_Dots_2.jpg,Purple_Circle_Grid_1.jpg,left,536.1699999775738,true,NA,NA,NA,NA,NA,NA,NA,NA,true
CkDsWth3,3vll1pieot1c2ogsesvb4yutk6poza,3137onmdkkism06slo9s3zg0o31eg5,CkDsWth3,2020-0188,2020-05-08,10:12:05,10:34:12,NA,incomplete,25,number,1,right,Purple_Star_Stripes_1.jpg,Blue_Triangle_Stripes_3.jpg,Green_Plus_Grid_1.jpg,right,649.3249998893589,true,NA,NA,NA,NA,NA,NA,NA,NA,true
CkDsWth3,3vll1pieot1c2ogsesvb4yutk6poza,3137onmdkkism06slo9s3zg0o31eg5,CkDsWth3,2020-0188,2020-05-08,10:12:05,10:34:12,NA,incomplete,26,number,1,right,Blue_Star_Chess_3.jpg,Purple_Plus_Chess_2.jpg,Green_Circle_Grid_3.jpg,right,598.7450000829995,true,NA,NA,NA,NA,NA,NA,NA,NA,true
CkDsWth3,3vll1pieot1c2ogsesvb4yutk6poza,3137onmdkkism06slo9s3zg0o31eg5,CkDsWth3,2020-0188,2020-05-08,10:12:05,10:34:12,NA,incomplete,27,number,0,left,Purple_Star_Grid_3.jpg,Green_Plus_Chess_3.jpg,Red_Triangle_Grid_1.jpg,left,542.1850001439452,true,NA,NA,NA,NA,NA,NA,NA,NA,true
CkDsWth3,3vll1pieot1c2ogsesvb4yutk6poza,3137onmdkkism06slo9s3zg0o31eg5,CkDsWth3,2020-0188,2020-05-08,10:12:05,10:34:12,NA,incomplete,28,number,1,right,Purple_Plus_Grid_4.jpg,Blue_Circle_Grid_1.jpg,Red_Star_Stripes_4.jpg,right,519.9500001035631,true,NA,NA,NA,NA,NA,NA,NA,NA,true
CkDsWth3,3vll1pieot1c2ogsesvb4yutk6poza,3137onmdkkism06slo9s3zg0o31eg5,CkDsWth3,2020-0188,2020-05-08,10:12:05,10:34:12,NA,incomplete,29,number,1,left,Blue_Triangle_Chess_2.jpg,Red_Star_Grid_2.jpg,Green_Circle_Chess_4.jpg,left,620.2249999623746,true,NA,NA,NA,NA,NA,NA,NA,NA,true
CkDsWth3,3vll1pieot1c2ogsesvb4yutk6poza,3137onmdkkism06slo9s3zg0o31eg5,CkDsWth3,2020-0188,2020-05-08,10:12:05,10:34:12,NA,incomplete,30,number,0,left,Purple_Circle_Stripes_3.jpg,Green_Triangle_Grid_3.jpg,Blue_Plus_Stripes_1.jpg,left,545.4149998258799,true,NA,NA,NA,NA,NA,NA,NA,NA,true
CkDsWth3,3vll1pieot1c2ogsesvb4yutk6poza,3137onmdkkism06slo9s3zg0o31eg5,CkDsWth3,2020-0188,2020-05-08,10:12:05,10:34:12,NA,incomplete,31,number,1,right,Red_Circle_Chess_4.jpg,Blue_Plus_Chess_1.jpg,Purple_Star_Grid_4.jpg,right,564.4600000232458,true,NA,NA,NA,NA,NA,NA,NA,NA,true
CkDsWth3,3vll1pieot1c2ogsesvb4yutk6poza,3137onmdkkism06slo9s3zg0o31eg5,CkDsWth3,2020-0188,2020-05-08,10:12:05,10:34:12,NA,incomplete,32,number,1,right,Red_Circle_Grid_4.jpg,Purple_Triangle_Grid_1.jpg,Blue_Star_Chess_4.jpg,right,545.5950000323355,true,NA,NA,NA,NA,NA,NA,NA,NA,true
CkDsWth3,3vll1pieot1c2ogsesvb4yutk6poza,3137onmdkkism06slo9s3zg0o31eg5,CkDsWth3,2020-0188,2020-05-08,10:12:05,10:34:12,NA,incomplete,33,number,1,right,Purple_Star_Chess_4.jpg,Blue_Circle_Chess_3.jpg,Red_Plus_Grid_4.jpg,right,679.245000006631,true,NA,NA,NA,NA,NA,NA,NA,NA,true
CkDsWth3,3vll1pieot1c2ogsesvb4yutk6poza,3137onmdkkism06slo9s3zg0o31eg5,CkDsWth3,2020-0188,2020-05-08,10:12:05,10:34:12,NA,incomplete,34,number,1,right,Purple_Plus_Grid_2.jpg,Red_Star_Grid_1.jpg,Green_Circle_Chess_2.jpg,right,603.8399999961257,true,NA,NA,NA,NA,NA,NA,NA,NA,true
CkDsWth3,3vll1pieot1c2ogsesvb4yutk6poza,3137onmdkkism06slo9s3zg0o31eg5,CkDsWth3,2020-0188,2020-05-08,10:12:05,10:34:12,NA,incomplete,35,number,1,right,Purple_Triangle_Chess_2.jpg,Green_Plus_Chess_1.jpg,Blue_Star_Grid_2.jpg,right,666.6800000239164,true,NA,NA,NA,NA,NA,NA,NA,NA,true
CkDsWth3,3vll1pieot1c2ogsesvb4yutk6poza,3137onmdkkism06slo9s3zg0o31eg5,CkDsWth3,2020-0188,2020-05-08,10:12:05,10:34:12,NA,incomplete,36,number,1,left,Purple_Triangle_Stripes_2.jpg,Green_Star_Dots_2.jpg,Blue_Plus_Stripes_4.jpg,left,592.9650000762194,true,NA,NA,NA,NA,NA,NA,NA,NA,true
CkDsWth3,3vll1pieot1c2ogsesvb4yutk6poza,3137onmdkkism06slo9s3zg0o31eg5,CkDsWth3,2020-0188,2020-05-08,10:12:05,10:34:12,NA,incomplete,37,number,1,right,Red_Triangle_Chess_4.jpg,Green_Plus_Chess_3.jpg,Blue_Circle_Grid_4.jpg,right,723.9399999380112,true,NA,NA,NA,NA,NA,NA,NA,NA,true
CkDsWth3,3vll1pieot1c2ogsesvb4yutk6poza,3137onmdkkism06slo9s3zg0o31eg5,CkDsWth3,2020-0188,2020-05-08,10:12:05,10:34:12,NA,incomplete,38,number,1,right,Blue_Circle_Grid_4.jpg,Red_Plus_Grid_1.jpg,Green_Triangle_Chess_4.jpg,right,487.20000009052455,true,NA,NA,NA,NA,NA,NA,NA,NA,true
CkDsWth3,3vll1pieot1c2ogsesvb4yutk6poza,3137onmdkkism06slo9s3zg0o31eg5,CkDsWth3,2020-0188,2020-05-08,10:12:05,10:34:12,NA,incomplete,39,number,1,left,Blue_Star_Grid_2.jpg,Purple_Circle_Dots_2.jpg,Red_Plus_Grid_3.jpg,left,521.1100000888109,true,NA,NA,NA,NA,NA,NA,NA,NA,true
CkDsWth3,3vll1pieot1c2ogsesvb4yutk6poza,3137onmdkkism06slo9s3zg0o31eg5,CkDsWth3,2020-0188,2020-05-08,10:12:05,10:34:12,NA,incomplete,0,filling,1,left,Blue_Plus_Stripes_4.jpg,Red_Triangle_Stripes_3.jpg,Purple_Circle_Dots_4.jpg,right,1018.9700000919402,false,high,NA,NA,NA,NA,NA,NA,NA,false
CkDsWth3,3vll1pieot1c2ogsesvb4yutk6poza,3137onmdkkism06slo9s3zg0o31eg5,CkDsWth3,2020-0188,2020-05-08,10:12:05,10:34:12,NA,incomplete,1,filling,0,right,Red_Triangle_Stripes_1.jpg,Blue_Circle_Chess_1.jpg,Green_Plus_Stripes_4.jpg,right,952.335000038147,true,high,NA,NA,NA,NA,NA,NA,NA,false
CkDsWth3,3vll1pieot1c2ogsesvb4yutk6poza,3137onmdkkism06slo9s3zg0o31eg5,CkDsWth3,2020-0188,2020-05-08,10:12:05,10:34:12,NA,incomplete,2,filling,1,right,Purple_Circle_Stripes_4.jpg,Red_Star_Dots_4.jpg,Green_Triangle_Stripes_2.jpg,right,934.1149998363107,true,high,NA,NA,NA,NA,NA,NA,NA,false
CkDsWth3,3vll1pieot1c2ogsesvb4yutk6poza,3137onmdkkism06slo9s3zg0o31eg5,CkDsWth3,2020-0188,2020-05-08,10:12:05,10:34:12,NA,incomplete,3,filling,1,left,Red_Triangle_Stripes_4.jpg,Green_Plus_Stripes_1.jpg,Purple_Star_Dots_4.jpg,left,752.0349998958409,true,high,NA,NA,NA,NA,NA,NA,NA,false
CkDsWth3,3vll1pieot1c2ogsesvb4yutk6poza,3137onmdkkism06slo9s3zg0o31eg5,CkDsWth3,2020-0188,2020-05-08,10:12:05,10:34:12,NA,incomplete,4,filling,1,right,Purple_Plus_Grid_4.jpg,Blue_Star_Chess_4.jpg,Green_Circle_Grid_3.jpg,right,807.329999981448,true,high,NA,NA,NA,NA,NA,NA,NA,false
CkDsWth3,3vll1pieot1c2ogsesvb4yutk6poza,3137onmdkkism06slo9s3zg0o31eg5,CkDsWth3,2020-0188,2020-05-08,10:12:05,10:34:12,NA,incomplete,5,filling,1,right,Blue_Triangle_Grid_3.jpg,Purple_Circle_Chess_3.jpg,Red_Star_Grid_1.jpg,left,969.804999884218,false,high,NA,NA,NA,NA,NA,NA,NA,false
CkDsWth3,3vll1pieot1c2ogsesvb4yutk6poza,3137onmdkkism06slo9s3zg0o31eg5,CkDsWth3,2020-0188,2020-05-08,10:12:05,10:34:12,NA,incomplete,6,filling,1,left,Green_Triangle_Dots_1.jpg,Blue_Star_Dots_2.jpg,Red_Plus_Grid_1.jpg,left,752.6849999558181,true,high,NA,NA,NA,NA,NA,NA,NA,false
CkDsWth3,3vll1pieot1c2ogsesvb4yutk6poza,3137onmdkkism06slo9s3zg0o31eg5,CkDsWth3,2020-0188,2020-05-08,10:12:05,10:34:12,NA,incomplete,7,filling,1,right,Purple_Plus_Grid_3.jpg,Blue_Triangle_Stripes_3.jpg,Red_Circle_Grid_1.jpg,right,723.8499999511987,true,high,NA,NA,NA,NA,NA,NA,NA,false
CkDsWth3,3vll1pieot1c2ogsesvb4yutk6poza,3137onmdkkism06slo9s3zg0o31eg5,CkDsWth3,2020-0188,2020-05-08,10:12:05,10:34:12,NA,incomplete,8,filling,1,right,Purple_Plus_Stripes_3.jpg,Green_Triangle_Chess_3.jpg,Blue_Star_Stripes_1.jpg,right,774.4350000284612,true,high,NA,NA,NA,NA,NA,NA,NA,false
CkDsWth3,3vll1pieot1c2ogsesvb4yutk6poza,3137onmdkkism06slo9s3zg0o31eg5,CkDsWth3,2020-0188,2020-05-08,10:12:05,10:34:12,NA,incomplete,9,filling,1,right,Green_Plus_Dots_3.jpg,Purple_Circle_Stripes_3.jpg,Red_Triangle_Dots_1.jpg,right,759.3400001060218,true,high,NA,NA,NA,NA,NA,NA,NA,false
CkDsWth3,3vll1pieot1c2ogsesvb4yutk6poza,3137onmdkkism06slo9s3zg0o31eg5,CkDsWth3,2020-0188,2020-05-08,10:12:05,10:34:12,NA,incomplete,10,number,1,left,Blue_Triangle_Dots_4.jpg,Red_Circle_Stripes_4.jpg,Green_Plus_Dots_1.jpg,right,685.3899999987334,false,high,NA,NA,NA,NA,NA,NA,NA,false
CkDsWth3,3vll1pieot1c2ogsesvb4yutk6poza,3137onmdkkism06slo9s3zg0o31eg5,CkDsWth3,2020-0188,2020-05-08,10:12:05,10:34:12,NA,incomplete,11,number,0,right,Blue_Circle_Grid_1.jpg,Purple_Triangle_Grid_3.jpg,Green_Star_Stripes_1.jpg,left,885.5800000019372,false,high,NA,NA,NA,NA,NA,NA,NA,false
CkDsWth3,3vll1pieot1c2ogsesvb4yutk6poza,3137onmdkkism06slo9s3zg0o31eg5,CkDsWth3,2020-0188,2020-05-08,10:12:05,10:34:12,NA,incomplete,12,number,0,right,Blue_Star_Grid_3.jpg,Red_Triangle_Grid_1.jpg,Purple_Plus_Stripes_3.jpg,right,681.540000019595,true,high,NA,NA,NA,NA,NA,NA,NA,false
CkDsWth3,3vll1pieot1c2ogsesvb4yutk6poza,3137onmdkkism06slo9s3zg0o31eg5,CkDsWth3,2020-0188,2020-05-08,10:12:05,10:34:12,NA,incomplete,13,number,1,left,Red_Circle_Stripes_3.jpg,Green_Triangle_Chess_3.jpg,Purple_Plus_Stripes_4.jpg,right,784.4549999572337,false,high,NA,NA,NA,NA,NA,NA,NA,false
CkDsWth3,3vll1pieot1c2ogsesvb4yutk6poza,3137onmdkkism06slo9s3zg0o31eg5,CkDsWth3,2020-0188,2020-05-08,10:12:05,10:34:12,NA,incomplete,14,number,1,right,Red_Star_Stripes_3.jpg,Purple_Plus_Stripes_4.jpg,Blue_Triangle_Chess_3.jpg,right,715.8300001174212,true,high,NA,NA,NA,NA,NA,NA,NA,false
CkDsWth3,3vll1pieot1c2ogsesvb4yutk6poza,3137onmdkkism06slo9s3zg0o31eg5,CkDsWth3,2020-0188,2020-05-08,10:12:05,10:34:12,NA,incomplete,15,number,1,left,Blue_Circle_Grid_4.jpg,Red_Star_Dots_4.jpg,Purple_Plus_Grid_3.jpg,right,805.9100001119077,false,high,NA,NA,NA,NA,NA,NA,NA,false
CkDsWth3,3vll1pieot1c2ogsesvb4yutk6poza,3137onmdkkism06slo9s3zg0o31eg5,CkDsWth3,2020-0188,2020-05-08,10:12:05,10:34:12,NA,incomplete,16,number,0,left,Purple_Star_Chess_1.jpg,Blue_Triangle_Stripes_1.jpg,Green_Plus_Chess_2.jpg,left,540.6649999786168,true,high,NA,NA,NA,NA,NA,NA,NA,false
CkDsWth3,3vll1pieot1c2ogsesvb4yutk6poza,3137onmdkkism06slo9s3zg0o31eg5,CkDsWth3,2020-0188,2020-05-08,10:12:05,10:34:12,NA,incomplete,17,number,1,left,Green_Circle_Stripes_2.jpg,Red_Plus_Grid_2.jpg,Purple_Triangle_Stripes_1.jpg,left,727.2700001485646,true,high,NA,NA,NA,NA,NA,NA,NA,false
CkDsWth3,3vll1pieot1c2ogsesvb4yutk6poza,3137onmdkkism06slo9s3zg0o31eg5,CkDsWth3,2020-0188,2020-05-08,10:12:05,10:34:12,NA,incomplete,18,number,1,left,Blue_Plus_Chess_4.jpg,Purple_Star_Dots_4.jpg,Green_Triangle_Chess_3.jpg,right,873.8500000908971,false,high,NA,NA,NA,NA,NA,NA,NA,false
CkDsWth3,3vll1pieot1c2ogsesvb4yutk6poza,3137onmdkkism06slo9s3zg0o31eg5,CkDsWth3,2020-0188,2020-05-08,10:12:05,10:34:12,NA,incomplete,19,number,1,left,Purple_Triangle_Grid_2.jpg,Red_Circle_Stripes_2.jpg,Green_Star_Grid_1.jpg,left,602.2799999918789,true,high,NA,NA,NA,NA,NA,NA,NA,false
CkDsWth3,3vll1pieot1c2ogsesvb4yutk6poza,3137onmdkkism06slo9s3zg0o31eg5,CkDsWth3,2020-0188,2020-05-08,10:12:05,10:34:12,NA,incomplete,20,filling,1,left,Blue_Star_Stripes_2.jpg,Purple_Circle_Stripes_4.jpg,Green_Plus_Chess_2.jpg,right,587.0550000108778,false,high,NA,NA,NA,NA,NA,NA,NA,false
CkDsWth3,3vll1pieot1c2ogsesvb4yutk6poza,3137onmdkkism06slo9s3zg0o31eg5,CkDsWth3,2020-0188,2020-05-08,10:12:05,10:34:12,NA,incomplete,21,filling,0,left,Red_Star_Dots_3.jpg,Green_Circle_Dots_1.jpg,Blue_Plus_Chess_3.jpg,right,552.8849998954684,false,high,NA,NA,NA,NA,NA,NA,NA,false
CkDsWth3,3vll1pieot1c2ogsesvb4yutk6poza,3137onmdkkism06slo9s3zg0o31eg5,CkDsWth3,2020-0188,2020-05-08,10:12:05,10:34:12,NA,incomplete,22,filling,1,left,Red_Circle_Dots_4.jpg,Blue_Plus_Dots_3.jpg,Green_Star_Stripes_4.jpg,right,998.6199999693781,false,high,NA,NA,NA,NA,NA,NA,NA,false
CkDsWth3,3vll1pieot1c2ogsesvb4yutk6poza,3137onmdkkism06slo9s3zg0o31eg5,CkDsWth3,2020-0188,2020-05-08,10:12:05,10:34:12,NA,incomplete,23,filling,1,right,Purple_Plus_Chess_1.jpg,Green_Triangle_Stripes_1.jpg,Blue_Star_Chess_3.jpg,left,560.8349998947233,false,high,NA,NA,NA,NA,NA,NA,NA,false
CkDsWth3,3vll1pieot1c2ogsesvb4yutk6poza,3137onmdkkism06slo9s3zg0o31eg5,CkDsWth3,2020-0188,2020-05-08,10:12:05,10:34:12,NA,incomplete,24,filling,0,left,Green_Triangle_Chess_2.jpg,Red_Star_Chess_4.jpg,Purple_Plus_Dots_2.jpg,left,794.3049999885261,true,high,NA,NA,NA,NA,NA,NA,NA,false
CkDsWth3,3vll1pieot1c2ogsesvb4yutk6poza,3137onmdkkism06slo9s3zg0o31eg5,CkDsWth3,2020-0188,2020-05-08,10:12:05,10:34:12,NA,incomplete,25,filling,1,right,Green_Star_Stripes_1.jpg,Blue_Plus_Grid_1.jpg,Purple_Triangle_Stripes_2.jpg,right,829.9500001594424,true,high,NA,NA,NA,NA,NA,NA,NA,false
CkDsWth3,3vll1pieot1c2ogsesvb4yutk6poza,3137onmdkkism06slo9s3zg0o31eg5,CkDsWth3,2020-0188,2020-05-08,10:12:05,10:34:12,NA,incomplete,26,filling,1,right,Green_Star_Grid_3.jpg,Red_Triangle_Stripes_3.jpg,Purple_Plus_Grid_2.jpg,right,752.3099998943508,true,high,NA,NA,NA,NA,NA,NA,NA,false
CkDsWth3,3vll1pieot1c2ogsesvb4yutk6poza,3137onmdkkism06slo9s3zg0o31eg5,CkDsWth3,2020-0188,2020-05-08,10:12:05,10:34:12,NA,incomplete,27,filling,1,left,Green_Plus_Grid_4.jpg,Red_Circle_Grid_3.jpg,Purple_Triangle_Dots_4.jpg,left,827.8050001244992,true,high,NA,NA,NA,NA,NA,NA,NA,false
CkDsWth3,3vll1pieot1c2ogsesvb4yutk6poza,3137onmdkkism06slo9s3zg0o31eg5,CkDsWth3,2020-0188,2020-05-08,10:12:05,10:34:12,NA,incomplete,28,filling,1,left,Blue_Circle_Chess_3.jpg,Purple_Triangle_Chess_2.jpg,Green_Star_Dots_3.jpg,left,718.9150000922382,true,high,NA,NA,NA,NA,NA,NA,NA,false
CkDsWth3,3vll1pieot1c2ogsesvb4yutk6poza,3137onmdkkism06slo9s3zg0o31eg5,CkDsWth3,2020-0188,2020-05-08,10:12:05,10:34:12,NA,incomplete,29,filling,0,right,Purple_Triangle_Grid_2.jpg,Blue_Circle_Dots_2.jpg,Red_Plus_Grid_4.jpg,right,660.5449998751283,true,high,NA,NA,NA,NA,NA,NA,NA,false
CkDsWth3,3vll1pieot1c2ogsesvb4yutk6poza,3137onmdkkism06slo9s3zg0o31eg5,CkDsWth3,2020-0188,2020-05-08,10:12:05,10:34:12,NA,incomplete,30,number,1,right,Red_Triangle_Chess_4.jpg,Blue_Star_Chess_2.jpg,Green_Circle_Dots_4.jpg,left,693.5850000008941,false,high,NA,NA,NA,NA,NA,NA,NA,false
CkDsWth3,3vll1pieot1c2ogsesvb4yutk6poza,3137onmdkkism06slo9s3zg0o31eg5,CkDsWth3,2020-0188,2020-05-08,10:12:05,10:34:12,NA,incomplete,31,number,0,right,Green_Triangle_Stripes_1.jpg,Blue_Circle_Stripes_3.jpg,Purple_Star_Dots_1.jpg,right,574.4399998802692,true,high,NA,NA,NA,NA,NA,NA,NA,false
CkDsWth3,3vll1pieot1c2ogsesvb4yutk6poza,3137onmdkkism06slo9s3zg0o31eg5,CkDsWth3,2020-0188,2020-05-08,10:12:05,10:34:12,NA,incomplete,32,number,1,right,Purple_Plus_Chess_4.jpg,Green_Star_Chess_3.jpg,Blue_Triangle_Stripes_4.jpg,right,692.659999942407,true,high,NA,NA,NA,NA,NA,NA,NA,false
CkDsWth3,3vll1pieot1c2ogsesvb4yutk6poza,3137onmdkkism06slo9s3zg0o31eg5,CkDsWth3,2020-0188,2020-05-08,10:12:05,10:34:12,NA,incomplete,33,number,1,right,Red_Triangle_Stripes_3.jpg,Blue_Plus_Stripes_4.jpg,Green_Star_Grid_3.jpg,right,707.2850000113249,true,high,NA,NA,NA,NA,NA,NA,NA,false
CkDsWth3,3vll1pieot1c2ogsesvb4yutk6poza,3137onmdkkism06slo9s3zg0o31eg5,CkDsWth3,2020-0188,2020-05-08,10:12:05,10:34:12,NA,incomplete,34,number,0,left,Green_Plus_Grid_4.jpg,Blue_Star_Stripes_4.jpg,Purple_Circle_Grid_1.jpg,left,551.465000025928,true,high,NA,NA,NA,NA,NA,NA,NA,false
CkDsWth3,3vll1pieot1c2ogsesvb4yutk6poza,3137onmdkkism06slo9s3zg0o31eg5,CkDsWth3,2020-0188,2020-05-08,10:12:05,10:34:12,NA,incomplete,35,number,1,left,Green_Circle_Stripes_1.jpg,Red_Plus_Grid_1.jpg,Purple_Triangle_Stripes_2.jpg,left,596.9950000289828,true,high,NA,NA,NA,NA,NA,NA,NA,false
CkDsWth3,3vll1pieot1c2ogsesvb4yutk6poza,3137onmdkkism06slo9s3zg0o31eg5,CkDsWth3,2020-0188,2020-05-08,10:12:05,10:34:12,NA,incomplete,36,number,1,left,Red_Plus_Stripes_1.jpg,Purple_Star_Chess_1.jpg,Blue_Circle_Stripes_3.jpg,left,475.2050000242889,true,high,NA,NA,NA,NA,NA,NA,NA,false
CkDsWth3,3vll1pieot1c2ogsesvb4yutk6poza,3137onmdkkism06slo9s3zg0o31eg5,CkDsWth3,2020-0188,2020-05-08,10:12:05,10:34:12,NA,incomplete,37,number,1,right,Red_Circle_Chess_2.jpg,Purple_Star_Chess_3.jpg,Blue_Plus_Stripes_2.jpg,right,678.8649999070913,true,high,NA,NA,NA,NA,NA,NA,NA,false
CkDsWth3,3vll1pieot1c2ogsesvb4yutk6poza,3137onmdkkism06slo9s3zg0o31eg5,CkDsWth3,2020-0188,2020-05-08,10:12:05,10:34:12,NA,incomplete,38,number,1,left,Red_Circle_Stripes_4.jpg,Blue_Triangle_Dots_4.jpg,Green_Plus_Stripes_3.jpg,left,895.2649999409914,true,high,NA,NA,NA,NA,NA,NA,NA,false
CkDsWth3,3vll1pieot1c2ogsesvb4yutk6poza,3137onmdkkism06slo9s3zg0o31eg5,CkDsWth3,2020-0188,2020-05-08,10:12:05,10:34:12,NA,incomplete,39,number,1,left,Blue_Plus_Stripes_4.jpg,Green_Circle_Grid_4.jpg,Red_Triangle_Stripes_3.jpg,left,773.6450000666082,true,high,NA,NA,NA,NA,NA,NA,NA,false
CkDsWth3,3vll1pieot1c2ogsesvb4yutk6poza,3137onmdkkism06slo9s3zg0o31eg5,CkDsWth3,2020-0188,2020-05-08,10:12:05,10:34:12,NA,incomplete,40,filling,1,right,Purple_Plus_Stripes_1.jpg,Blue_Circle_Chess_1.jpg,Red_Star_Stripes_2.jpg,left,560.9399999957532,false,high,NA,NA,NA,NA,NA,NA,NA,false
CkDsWth3,3vll1pieot1c2ogsesvb4yutk6poza,3137onmdkkism06slo9s3zg0o31eg5,CkDsWth3,2020-0188,2020-05-08,10:12:05,10:34:12,NA,incomplete,41,filling,1,right,Green_Star_Chess_3.jpg,Purple_Plus_Dots_3.jpg,Blue_Circle_Chess_2.jpg,left,674.1300001740456,false,high,NA,NA,NA,NA,NA,NA,NA,false
CkDsWth3,3vll1pieot1c2ogsesvb4yutk6poza,3137onmdkkism06slo9s3zg0o31eg5,CkDsWth3,2020-0188,2020-05-08,10:12:05,10:34:12,NA,incomplete,42,filling,1,right,Blue_Circle_Grid_3.jpg,Red_Star_Stripes_3.jpg,Purple_Plus_Grid_2.jpg,right,748.4349999576807,true,high,NA,NA,NA,NA,NA,NA,NA,false
CkDsWth3,3vll1pieot1c2ogsesvb4yutk6poza,3137onmdkkism06slo9s3zg0o31eg5,CkDsWth3,2020-0188,2020-05-08,10:12:05,10:34:12,NA,incomplete,43,filling,1,left,Green_Plus_Stripes_2.jpg,Red_Circle_Stripes_4.jpg,Purple_Star_Grid_2.jpg,left,791.1950000561774,true,high,NA,NA,NA,NA,NA,NA,NA,false
CkDsWth3,3vll1pieot1c2ogsesvb4yutk6poza,3137onmdkkism06slo9s3zg0o31eg5,CkDsWth3,2020-0188,2020-05-08,10:12:05,10:34:12,NA,incomplete,44,filling,1,left,Red_Circle_Dots_4.jpg,Green_Plus_Dots_2.jpg,Blue_Triangle_Grid_4.jpg,left,993.2250001002103,true,high,NA,NA,NA,NA,NA,NA,NA,false
CkDsWth3,3vll1pieot1c2ogsesvb4yutk6poza,3137onmdkkism06slo9s3zg0o31eg5,CkDsWth3,2020-0188,2020-05-08,10:12:05,10:34:12,NA,incomplete,45,filling,1,right,Green_Star_Grid_2.jpg,Red_Plus_Chess_2.jpg,Blue_Triangle_Grid_1.jpg,left,735.4399999603629,false,high,NA,NA,NA,NA,NA,NA,NA,false
CkDsWth3,3vll1pieot1c2ogsesvb4yutk6poza,3137onmdkkism06slo9s3zg0o31eg5,CkDsWth3,2020-0188,2020-05-08,10:12:05,10:34:12,NA,incomplete,46,filling,1,right,Green_Triangle_Stripes_1.jpg,Purple_Circle_Chess_1.jpg,Blue_Star_Stripes_3.jpg,right,755.0049999263138,true,high,NA,NA,NA,NA,NA,NA,NA,false
CkDsWth3,3vll1pieot1c2ogsesvb4yutk6poza,3137onmdkkism06slo9s3zg0o31eg5,CkDsWth3,2020-0188,2020-05-08,10:12:05,10:34:12,NA,incomplete,47,filling,0,left,Green_Circle_Stripes_4.jpg,Red_Star_Stripes_2.jpg,Blue_Triangle_Dots_4.jpg,left,668.3150001335889,true,high,NA,NA,NA,NA,NA,NA,NA,false
CkDsWth3,3vll1pieot1c2ogsesvb4yutk6poza,3137onmdkkism06slo9s3zg0o31eg5,CkDsWth3,2020-0188,2020-05-08,10:12:05,10:34:12,NA,incomplete,48,filling,1,right,Purple_Plus_Stripes_1.jpg,Green_Circle_Grid_1.jpg,Blue_Star_Stripes_3.jpg,left,490.15500000678,false,high,NA,NA,NA,NA,NA,NA,NA,false
CkDsWth3,3vll1pieot1c2ogsesvb4yutk6poza,3137onmdkkism06slo9s3zg0o31eg5,CkDsWth3,2020-0188,2020-05-08,10:12:05,10:34:12,NA,incomplete,49,filling,1,left,Blue_Triangle_Grid_4.jpg,Purple_Star_Grid_2.jpg,Green_Plus_Stripes_4.jpg,right,640.3450001962483,false,high,NA,NA,NA,NA,NA,NA,NA,false
CkDsWth3,3vll1pieot1c2ogsesvb4yutk6poza,3137onmdkkism06slo9s3zg0o31eg5,CkDsWth3,2020-0188,2020-05-08,10:12:05,10:34:12,NA,incomplete,50,number,1,left,Blue_Plus_Grid_4.jpg,Green_Circle_Stripes_4.jpg,Red_Star_Grid_2.jpg,left,598.4650000464171,true,high,NA,NA,NA,NA,NA,NA,NA,false
CkDsWth3,3vll1pieot1c2ogsesvb4yutk6poza,3137onmdkkism06slo9s3zg0o31eg5,CkDsWth3,2020-0188,2020-05-08,10:12:05,10:34:12,NA,incomplete,51,number,1,left,Blue_Plus_Grid_2.jpg,Green_Triangle_Dots_2.jpg,Purple_Circle_Grid_3.jpg,right,847.5649999454618,false,high,NA,NA,NA,NA,NA,NA,NA,false
CkDsWth3,3vll1pieot1c2ogsesvb4yutk6poza,3137onmdkkism06slo9s3zg0o31eg5,CkDsWth3,2020-0188,2020-05-08,10:12:05,10:34:12,NA,incomplete,52,number,1,right,Purple_Triangle_Chess_4.jpg,Green_Plus_Chess_1.jpg,Blue_Circle_Dots_4.jpg,right,590.9300001803786,true,high,NA,NA,NA,NA,NA,NA,NA,false
CkDsWth3,3vll1pieot1c2ogsesvb4yutk6poza,3137onmdkkism06slo9s3zg0o31eg5,CkDsWth3,2020-0188,2020-05-08,10:12:05,10:34:12,NA,incomplete,53,number,1,right,Red_Circle_Chess_3.jpg,Blue_Star_Chess_4.jpg,Green_Plus_Grid_3.jpg,right,868.1850000284612,true,high,NA,NA,NA,NA,NA,NA,NA,false
CkDsWth3,3vll1pieot1c2ogsesvb4yutk6poza,3137onmdkkism06slo9s3zg0o31eg5,CkDsWth3,2020-0188,2020-05-08,10:12:05,10:34:12,NA,incomplete,54,number,0,right,Purple_Triangle_Dots_1.jpg,Red_Plus_Dots_2.jpg,Blue_Star_Stripes_1.jpg,right,631.5999999642372,true,high,NA,NA,NA,NA,NA,NA,NA,false
CkDsWth3,3vll1pieot1c2ogsesvb4yutk6poza,3137onmdkkism06slo9s3zg0o31eg5,CkDsWth3,2020-0188,2020-05-08,10:12:05,10:34:12,NA,incomplete,55,number,1,left,Blue_Plus_Grid_1.jpg,Green_Triangle_Dots_1.jpg,Purple_Star_Grid_2.jpg,left,501.99000001884997,true,high,NA,NA,NA,NA,NA,NA,NA,false
CkDsWth3,3vll1pieot1c2ogsesvb4yutk6poza,3137onmdkkism06slo9s3zg0o31eg5,CkDsWth3,2020-0188,2020-05-08,10:12:05,10:34:12,NA,incomplete,56,number,1,right,Red_Star_Grid_4.jpg,Purple_Circle_Grid_3.jpg,Blue_Plus_Stripes_4.jpg,right,785.1050000172108,true,high,NA,NA,NA,NA,NA,NA,NA,false
CkDsWth3,3vll1pieot1c2ogsesvb4yutk6poza,3137onmdkkism06slo9s3zg0o31eg5,CkDsWth3,2020-0188,2020-05-08,10:12:05,10:34:12,NA,incomplete,57,number,1,right,Green_Triangle_Stripes_4.jpg,Blue_Plus_Stripes_1.jpg,Purple_Star_Grid_4.jpg,right,563.1150000263005,true,high,NA,NA,NA,NA,NA,NA,NA,false
CkDsWth3,3vll1pieot1c2ogsesvb4yutk6poza,3137onmdkkism06slo9s3zg0o31eg5,CkDsWth3,2020-0188,2020-05-08,10:12:05,10:34:12,NA,incomplete,58,number,1,left,Green_Circle_Chess_3.jpg,Red_Triangle_Dots_3.jpg,Blue_Star_Chess_1.jpg,left,564.1750001814216,true,high,NA,NA,NA,NA,NA,NA,NA,false
CkDsWth3,3vll1pieot1c2ogsesvb4yutk6poza,3137onmdkkism06slo9s3zg0o31eg5,CkDsWth3,2020-0188,2020-05-08,10:12:05,10:34:12,NA,incomplete,59,number,0,right,Blue_Triangle_Stripes_1.jpg,Red_Circle_Stripes_3.jpg,Green_Star_Dots_1.jpg,right,466.36999980546534,true,high,NA,NA,NA,NA,NA,NA,NA,false
CkDsWth3,3vll1pieot1c2ogsesvb4yutk6poza,3137onmdkkism06slo9s3zg0o31eg5,CkDsWth3,2020-0188,2020-05-08,10:12:05,10:34:12,NA,incomplete,60,filling,1,left,Red_Circle_Dots_3.jpg,Green_Star_Dots_1.jpg,Purple_Triangle_Grid_3.jpg,right,497.8450001217425,false,high,NA,NA,NA,NA,NA,NA,NA,false
CkDsWth3,3vll1pieot1c2ogsesvb4yutk6poza,3137onmdkkism06slo9s3zg0o31eg5,CkDsWth3,2020-0188,2020-05-08,10:12:05,10:34:12,NA,incomplete,61,filling,1,left,Blue_Plus_Dots_4.jpg,Purple_Circle_Dots_2.jpg,Red_Star_Stripes_4.jpg,left,659.6399999689311,true,high,NA,NA,NA,NA,NA,NA,NA,false
CkDsWth3,3vll1pieot1c2ogsesvb4yutk6poza,3137onmdkkism06slo9s3zg0o31eg5,CkDsWth3,2020-0188,2020-05-08,10:12:05,10:34:12,NA,incomplete,62,filling,0,left,Blue_Star_Chess_3.jpg,Red_Circle_Chess_4.jpg,Green_Triangle_Grid_3.jpg,right,757.9799999948591,false,high,NA,NA,NA,NA,NA,NA,NA,false
CkDsWth3,3vll1pieot1c2ogsesvb4yutk6poza,3137onmdkkism06slo9s3zg0o31eg5,CkDsWth3,2020-0188,2020-05-08,10:12:05,10:34:12,NA,incomplete,63,filling,1,right,Purple_Star_Stripes_2.jpg,Green_Triangle_Dots_2.jpg,Red_Circle_Stripes_1.jpg,right,642.2850000672042,true,high,NA,NA,NA,NA,NA,NA,NA,false
CkDsWth3,3vll1pieot1c2ogsesvb4yutk6poza,3137onmdkkism06slo9s3zg0o31eg5,CkDsWth3,2020-0188,2020-05-08,10:12:05,10:34:12,NA,incomplete,64,filling,1,right,Red_Plus_Stripes_1.jpg,Blue_Circle_Grid_1.jpg,Green_Star_Stripes_4.jpg,right,618.7399998307228,true,high,NA,NA,NA,NA,NA,NA,NA,false
CkDsWth3,3vll1pieot1c2ogsesvb4yutk6poza,3137onmdkkism06slo9s3zg0o31eg5,CkDsWth3,2020-0188,2020-05-08,10:12:05,10:34:12,NA,incomplete,65,filling,0,right,Purple_Circle_Dots_1.jpg,Red_Triangle_Chess_1.jpg,Green_Plus_Dots_2.jpg,right,744.124999968335,true,high,NA,NA,NA,NA,NA,NA,NA,false
CkDsWth3,3vll1pieot1c2ogsesvb4yutk6poza,3137onmdkkism06slo9s3zg0o31eg5,CkDsWth3,2020-0188,2020-05-08,10:12:05,10:34:12,NA,incomplete,66,filling,1,left,Blue_Plus_Dots_4.jpg,Purple_Triangle_Dots_1.jpg,Red_Circle_Chess_4.jpg,left,909.2549998313189,true,high,NA,NA,NA,NA,NA,NA,NA,false
CkDsWth3,3vll1pieot1c2ogsesvb4yutk6poza,3137onmdkkism06slo9s3zg0o31eg5,CkDsWth3,2020-0188,2020-05-08,10:12:05,10:34:12,NA,incomplete,67,filling,1,left,Red_Triangle_Grid_2.jpg,Green_Star_Grid_3.jpg,Blue_Circle_Stripes_2.jpg,right,607.9799998551607,false,high,NA,NA,NA,NA,NA,NA,NA,false
CkDsWth3,3vll1pieot1c2ogsesvb4yutk6poza,3137onmdkkism06slo9s3zg0o31eg5,CkDsWth3,2020-0188,2020-05-08,10:12:05,10:34:12,NA,incomplete,68,filling,1,right,Blue_Circle_Stripes_1.jpg,Purple_Plus_Chess_1.jpg,Green_Star_Stripes_2.jpg,right,738.3399999234825,true,high,NA,NA,NA,NA,NA,NA,NA,false
CkDsWth3,3vll1pieot1c2ogsesvb4yutk6poza,3137onmdkkism06slo9s3zg0o31eg5,CkDsWth3,2020-0188,2020-05-08,10:12:05,10:34:12,NA,incomplete,69,filling,0,left,Blue_Plus_Dots_1.jpg,Red_Triangle_Dots_2.jpg,Purple_Circle_Grid_1.jpg,left,671.9549999106675,true,high,NA,NA,NA,NA,NA,NA,NA,false
CkDsWth3,3vll1pieot1c2ogsesvb4yutk6poza,3137onmdkkism06slo9s3zg0o31eg5,CkDsWth3,2020-0188,2020-05-08,10:12:05,10:34:12,NA,incomplete,70,number,1,left,Green_Star_Chess_2.jpg,Purple_Circle_Grid_2.jpg,Red_Plus_Chess_4.jpg,left,602.5900000240654,true,high,NA,NA,NA,NA,NA,NA,NA,false
CkDsWth3,3vll1pieot1c2ogsesvb4yutk6poza,3137onmdkkism06slo9s3zg0o31eg5,CkDsWth3,2020-0188,2020-05-08,10:12:05,10:34:12,NA,incomplete,71,number,1,right,Blue_Plus_Grid_2.jpg,Green_Triangle_Grid_1.jpg,Purple_Circle_Dots_2.jpg,right,609.4349999912083,true,high,NA,NA,NA,NA,NA,NA,NA,false
CkDsWth3,3vll1pieot1c2ogsesvb4yutk6poza,3137onmdkkism06slo9s3zg0o31eg5,CkDsWth3,2020-0188,2020-05-08,10:12:05,10:34:12,NA,incomplete,72,number,1,left,Purple_Star_Grid_3.jpg,Blue_Triangle_Dots_3.jpg,Green_Circle_Grid_4.jpg,left,643.4400000143796,true,high,NA,NA,NA,NA,NA,NA,NA,false
CkDsWth3,3vll1pieot1c2ogsesvb4yutk6poza,3137onmdkkism06slo9s3zg0o31eg5,CkDsWth3,2020-0188,2020-05-08,10:12:05,10:34:12,NA,incomplete,73,number,1,right,Green_Star_Dots_3.jpg,Red_Circle_Dots_4.jpg,Blue_Triangle_Stripes_3.jpg,right,852.4949999991804,true,high,NA,NA,NA,NA,NA,NA,NA,false
CkDsWth3,3vll1pieot1c2ogsesvb4yutk6poza,3137onmdkkism06slo9s3zg0o31eg5,CkDsWth3,2020-0188,2020-05-08,10:12:05,10:34:12,NA,incomplete,74,number,1,right,Green_Circle_Chess_1.jpg,Blue_Star_Chess_2.jpg,Red_Triangle_Grid_1.jpg,right,536.8850000668317,true,high,NA,NA,NA,NA,NA,NA,NA,false
CkDsWth3,3vll1pieot1c2ogsesvb4yutk6poza,3137onmdkkism06slo9s3zg0o31eg5,CkDsWth3,2020-0188,2020-05-08,10:12:05,10:34:12,NA,incomplete,75,number,1,right,Red_Triangle_Dots_4.jpg,Purple_Plus_Dots_2.jpg,Blue_Circle_Chess_4.jpg,right,624.210000038147,true,high,NA,NA,NA,NA,NA,NA,NA,false
CkDsWth3,3vll1pieot1c2ogsesvb4yutk6poza,3137onmdkkism06slo9s3zg0o31eg5,CkDsWth3,2020-0188,2020-05-08,10:12:05,10:34:12,NA,incomplete,76,number,0,right,Blue_Triangle_Grid_1.jpg,Green_Plus_Grid_3.jpg,Purple_Circle_Dots_1.jpg,right,568.3599999174476,true,high,NA,NA,NA,NA,NA,NA,NA,false
CkDsWth3,3vll1pieot1c2ogsesvb4yutk6poza,3137onmdkkism06slo9s3zg0o31eg5,CkDsWth3,2020-0188,2020-05-08,10:12:05,10:34:12,NA,incomplete,77,number,1,right,Green_Circle_Dots_4.jpg,Blue_Star_Dots_1.jpg,Red_Triangle_Stripes_4.jpg,left,669.2950001452118,false,high,NA,NA,NA,NA,NA,NA,NA,false
CkDsWth3,3vll1pieot1c2ogsesvb4yutk6poza,3137onmdkkism06slo9s3zg0o31eg5,CkDsWth3,2020-0188,2020-05-08,10:12:05,10:34:12,NA,incomplete,78,number,1,left,Green_Circle_Stripes_1.jpg,Purple_Triangle_Chess_1.jpg,Red_Plus_Stripes_4.jpg,right,747.304999968037,false,high,NA,NA,NA,NA,NA,NA,NA,false
CkDsWth3,3vll1pieot1c2ogsesvb4yutk6poza,3137onmdkkism06slo9s3zg0o31eg5,CkDsWth3,2020-0188,2020-05-08,10:12:05,10:34:12,NA,incomplete,79,number,1,right,Green_Star_Grid_3.jpg,Blue_Circle_Grid_2.jpg,Red_Triangle_Chess_3.jpg,right,634.6449998673052,true,high,NA,NA,NA,NA,NA,NA,NA,false
CkDsWth3,3vll1pieot1c2ogsesvb4yutk6poza,3137onmdkkism06slo9s3zg0o31eg5,CkDsWth3,2020-0188,2020-05-08,10:12:05,10:34:12,NA,incomplete,80,filling,0,right,Red_Triangle_Chess_3.jpg,Green_Star_Stripes_3.jpg,Purple_Plus_Chess_1.jpg,left,624.8449999839067,false,high,NA,NA,NA,NA,NA,NA,NA,false
CkDsWth3,3vll1pieot1c2ogsesvb4yutk6poza,3137onmdkkism06slo9s3zg0o31eg5,CkDsWth3,2020-0188,2020-05-08,10:12:05,10:34:12,NA,incomplete,81,filling,1,right,Purple_Plus_Chess_4.jpg,Red_Circle_Stripes_4.jpg,Green_Triangle_Chess_2.jpg,left,540.8250000327826,false,high,NA,NA,NA,NA,NA,NA,NA,false
CkDsWth3,3vll1pieot1c2ogsesvb4yutk6poza,3137onmdkkism06slo9s3zg0o31eg5,CkDsWth3,2020-0188,2020-05-08,10:12:05,10:34:12,NA,incomplete,82,filling,1,right,Green_Star_Grid_3.jpg,Purple_Triangle_Dots_3.jpg,Blue_Circle_Grid_4.jpg,left,595.2749999705702,false,high,NA,NA,NA,NA,NA,NA,NA,false
CkDsWth3,3vll1pieot1c2ogsesvb4yutk6poza,3137onmdkkism06slo9s3zg0o31eg5,CkDsWth3,2020-0188,2020-05-08,10:12:05,10:34:12,NA,incomplete,83,filling,1,right,Red_Triangle_Chess_2.jpg,Green_Star_Stripes_2.jpg,Purple_Circle_Chess_1.jpg,right,872.8000000119209,true,high,NA,NA,NA,NA,NA,NA,NA,false
CkDsWth3,3vll1pieot1c2ogsesvb4yutk6poza,3137onmdkkism06slo9s3zg0o31eg5,CkDsWth3,2020-0188,2020-05-08,10:12:05,10:34:12,NA,incomplete,84,filling,1,left,Purple_Circle_Chess_1.jpg,Green_Star_Chess_3.jpg,Blue_Triangle_Grid_1.jpg,left,811.455000191927,true,high,NA,NA,NA,NA,NA,NA,NA,false
CkDsWth3,3vll1pieot1c2ogsesvb4yutk6poza,3137onmdkkism06slo9s3zg0o31eg5,CkDsWth3,2020-0188,2020-05-08,10:12:05,10:34:12,NA,incomplete,85,filling,1,right,Green_Star_Grid_2.jpg,Red_Plus_Stripes_2.jpg,Purple_Circle_Grid_3.jpg,right,761.1799999140203,true,high,NA,NA,NA,NA,NA,NA,NA,false
CkDsWth3,3vll1pieot1c2ogsesvb4yutk6poza,3137onmdkkism06slo9s3zg0o31eg5,CkDsWth3,2020-0188,2020-05-08,10:12:05,10:34:12,NA,incomplete,86,filling,1,left,Green_Circle_Stripes_2.jpg,Blue_Plus_Stripes_1.jpg,Purple_Triangle_Chess_2.jpg,left,838.7499998789281,true,high,NA,NA,NA,NA,NA,NA,NA,false
CkDsWth3,3vll1pieot1c2ogsesvb4yutk6poza,3137onmdkkism06slo9s3zg0o31eg5,CkDsWth3,2020-0188,2020-05-08,10:12:05,10:34:12,NA,incomplete,87,filling,1,left,Blue_Circle_Grid_3.jpg,Red_Triangle_Grid_4.jpg,Green_Star_Stripes_3.jpg,left,735.6350000482053,true,high,NA,NA,NA,NA,NA,NA,NA,false
CkDsWth3,3vll1pieot1c2ogsesvb4yutk6poza,3137onmdkkism06slo9s3zg0o31eg5,CkDsWth3,2020-0188,2020-05-08,10:12:05,10:34:12,NA,incomplete,88,filling,0,left,Blue_Star_Stripes_2.jpg,Purple_Circle_Stripes_4.jpg,Red_Plus_Dots_2.jpg,left,766.3600000087172,true,high,NA,NA,NA,NA,NA,NA,NA,false
CkDsWth3,3vll1pieot1c2ogsesvb4yutk6poza,3137onmdkkism06slo9s3zg0o31eg5,CkDsWth3,2020-0188,2020-05-08,10:12:05,10:34:12,NA,incomplete,89,filling,1,left,Red_Star_Stripes_1.jpg,Green_Circle_Stripes_2.jpg,Blue_Plus_Grid_1.jpg,left,807.8550000209361,true,high,NA,NA,NA,NA,NA,NA,NA,false
CkDsWth3,3vll1pieot1c2ogsesvb4yutk6poza,3137onmdkkism06slo9s3zg0o31eg5,CkDsWth3,2020-0188,2020-05-08,10:12:05,10:34:12,NA,incomplete,90,number,1,left,Purple_Plus_Dots_2.jpg,Blue_Triangle_Stripes_2.jpg,Green_Star_Dots_1.jpg,right,771.415000082925,false,high,NA,NA,NA,NA,NA,NA,NA,false
CkDsWth3,3vll1pieot1c2ogsesvb4yutk6poza,3137onmdkkism06slo9s3zg0o31eg5,CkDsWth3,2020-0188,2020-05-08,10:12:05,10:34:12,NA,incomplete,91,number,1,right,Green_Star_Stripes_2.jpg,Purple_Triangle_Stripes_3.jpg,Blue_Circle_Chess_2.jpg,right,712.0900000445545,true,high,NA,NA,NA,NA,NA,NA,NA,false
CkDsWth3,3vll1pieot1c2ogsesvb4yutk6poza,3137onmdkkism06slo9s3zg0o31eg5,CkDsWth3,2020-0188,2020-05-08,10:12:05,10:34:12,NA,incomplete,92,number,0,left,Green_Triangle_Stripes_4.jpg,Red_Plus_Dots_4.jpg,Purple_Circle_Stripes_1.jpg,left,559.0699999593198,true,high,NA,NA,NA,NA,NA,NA,NA,false
CkDsWth3,3vll1pieot1c2ogsesvb4yutk6poza,3137onmdkkism06slo9s3zg0o31eg5,CkDsWth3,2020-0188,2020-05-08,10:12:05,10:34:12,NA,incomplete,93,number,0,left,Green_Triangle_Chess_2.jpg,Red_Plus_Grid_2.jpg,Purple_Star_Chess_4.jpg,left,525.6700001191348,true,high,NA,NA,NA,NA,NA,NA,NA,false
CkDsWth3,3vll1pieot1c2ogsesvb4yutk6poza,3137onmdkkism06slo9s3zg0o31eg5,CkDsWth3,2020-0188,2020-05-08,10:12:05,10:34:12,NA,incomplete,94,number,1,right,Blue_Star_Chess_3.jpg,Green_Triangle_Chess_2.jpg,Red_Circle_Dots_3.jpg,left,719.8999999091029,false,high,NA,NA,NA,NA,NA,NA,NA,false
CkDsWth3,3vll1pieot1c2ogsesvb4yutk6poza,3137onmdkkism06slo9s3zg0o31eg5,CkDsWth3,2020-0188,2020-05-08,10:12:05,10:34:12,NA,incomplete,95,number,0,right,Purple_Plus_Chess_2.jpg,Red_Star_Chess_1.jpg,Blue_Circle_Stripes_2.jpg,right,814.6850001066923,true,high,NA,NA,NA,NA,NA,NA,NA,false
CkDsWth3,3vll1pieot1c2ogsesvb4yutk6poza,3137onmdkkism06slo9s3zg0o31eg5,CkDsWth3,2020-0188,2020-05-08,10:12:05,10:34:12,NA,incomplete,96,number,1,left,Purple_Circle_Dots_4.jpg,Red_Star_Chess_4.jpg,Green_Plus_Dots_1.jpg,right,643.5450001154095,false,high,NA,NA,NA,NA,NA,NA,NA,false
CkDsWth3,3vll1pieot1c2ogsesvb4yutk6poza,3137onmdkkism06slo9s3zg0o31eg5,CkDsWth3,2020-0188,2020-05-08,10:12:05,10:34:12,NA,incomplete,97,number,1,right,Green_Triangle_Dots_4.jpg,Blue_Star_Dots_1.jpg,Purple_Circle_Stripes_4.jpg,right,526.9049999769777,true,high,NA,NA,NA,NA,NA,NA,NA,false
CkDsWth3,3vll1pieot1c2ogsesvb4yutk6poza,3137onmdkkism06slo9s3zg0o31eg5,CkDsWth3,2020-0188,2020-05-08,10:12:05,10:34:12,NA,incomplete,98,number,1,right,Purple_Triangle_Grid_3.jpg,Green_Circle_Grid_4.jpg,Red_Plus_Stripes_3.jpg,right,800.2000001724809,true,high,NA,NA,NA,NA,NA,NA,NA,false
CkDsWth3,3vll1pieot1c2ogsesvb4yutk6poza,3137onmdkkism06slo9s3zg0o31eg5,CkDsWth3,2020-0188,2020-05-08,10:12:05,10:34:12,NA,incomplete,99,number,1,left,Purple_Triangle_Stripes_1.jpg,Blue_Circle_Chess_1.jpg,Red_Plus_Stripes_2.jpg,left,447.76000012643635,true,high,NA,NA,NA,NA,NA,NA,NA,false
CkDsWth3,3vll1pieot1c2ogsesvb4yutk6poza,3137onmdkkism06slo9s3zg0o31eg5,CkDsWth3,2020-0188,2020-05-08,10:12:05,10:34:12,NA,incomplete,100,filling,1,right,Red_Star_Chess_4.jpg,Blue_Circle_Stripes_4.jpg,Purple_Plus_Chess_2.jpg,left,540.4499999713153,false,high,NA,NA,NA,NA,NA,NA,NA,false
CkDsWth3,3vll1pieot1c2ogsesvb4yutk6poza,3137onmdkkism06slo9s3zg0o31eg5,CkDsWth3,2020-0188,2020-05-08,10:12:05,10:34:12,NA,incomplete,101,filling,1,left,Green_Circle_Dots_1.jpg,Red_Triangle_Dots_4.jpg,Purple_Star_Grid_1.jpg,right,557.899999897927,false,high,NA,NA,NA,NA,NA,NA,NA,false
CkDsWth3,3vll1pieot1c2ogsesvb4yutk6poza,3137onmdkkism06slo9s3zg0o31eg5,CkDsWth3,2020-0188,2020-05-08,10:12:05,10:34:12,NA,incomplete,102,filling,1,right,Green_Circle_Dots_3.jpg,Purple_Triangle_Chess_3.jpg,Blue_Star_Dots_4.jpg,right,769.594999961555,true,high,NA,NA,NA,NA,NA,NA,NA,false
CkDsWth3,3vll1pieot1c2ogsesvb4yutk6poza,3137onmdkkism06slo9s3zg0o31eg5,CkDsWth3,2020-0188,2020-05-08,10:12:05,10:34:12,NA,incomplete,103,filling,0,right,Red_Circle_Grid_3.jpg,Blue_Star_Chess_3.jpg,Purple_Plus_Grid_4.jpg,right,986.4950000774115,true,high,NA,NA,NA,NA,NA,NA,NA,false
CkDsWth3,3vll1pieot1c2ogsesvb4yutk6poza,3137onmdkkism06slo9s3zg0o31eg5,CkDsWth3,2020-0188,2020-05-08,10:12:05,10:34:12,NA,incomplete,104,filling,1,right,Purple_Plus_Grid_2.jpg,Red_Triangle_Stripes_2.jpg,Green_Star_Grid_1.jpg,left,716.275000013411,false,high,NA,NA,NA,NA,NA,NA,NA,false
CkDsWth3,3vll1pieot1c2ogsesvb4yutk6poza,3137onmdkkism06slo9s3zg0o31eg5,CkDsWth3,2020-0188,2020-05-08,10:12:05,10:34:12,NA,incomplete,105,filling,1,left,Green_Star_Chess_1.jpg,Purple_Triangle_Chess_3.jpg,Red_Circle_Dots_1.jpg,left,665.4700001236051,true,high,NA,NA,NA,NA,NA,NA,NA,false
CkDsWth3,3vll1pieot1c2ogsesvb4yutk6poza,3137onmdkkism06slo9s3zg0o31eg5,CkDsWth3,2020-0188,2020-05-08,10:12:05,10:34:12,NA,incomplete,106,filling,1,right,Green_Circle_Stripes_3.jpg,Purple_Star_Chess_3.jpg,Blue_Plus_Stripes_1.jpg,right,696.4350000489503,true,high,NA,NA,NA,NA,NA,NA,NA,false
CkDsWth3,3vll1pieot1c2ogsesvb4yutk6poza,3137onmdkkism06slo9s3zg0o31eg5,CkDsWth3,2020-0188,2020-05-08,10:12:05,10:34:12,NA,incomplete,107,filling,1,left,Purple_Star_Grid_2.jpg,Red_Circle_Grid_4.jpg,Blue_Plus_Dots_2.jpg,right,628.5400001797825,false,high,NA,NA,NA,NA,NA,NA,NA,false
CkDsWth3,3vll1pieot1c2ogsesvb4yutk6poza,3137onmdkkism06slo9s3zg0o31eg5,CkDsWth3,2020-0188,2020-05-08,10:12:05,10:34:12,NA,incomplete,108,filling,1,right,Purple_Triangle_Grid_3.jpg,Blue_Circle_Stripes_3.jpg,Green_Plus_Grid_4.jpg,left,632.7500001061708,false,high,NA,NA,NA,NA,NA,NA,NA,false
CkDsWth3,3vll1pieot1c2ogsesvb4yutk6poza,3137onmdkkism06slo9s3zg0o31eg5,CkDsWth3,2020-0188,2020-05-08,10:12:05,10:34:12,NA,incomplete,109,filling,1,right,Purple_Triangle_Grid_3.jpg,Green_Plus_Stripes_3.jpg,Red_Star_Grid_2.jpg,left,754.1600000113249,false,high,NA,NA,NA,NA,NA,NA,NA,false
CkDsWth3,3vll1pieot1c2ogsesvb4yutk6poza,3137onmdkkism06slo9s3zg0o31eg5,CkDsWth3,2020-0188,2020-05-08,10:12:05,10:34:12,NA,incomplete,110,number,0,left,Red_Triangle_Chess_4.jpg,Blue_Circle_Dots_4.jpg,Green_Star_Chess_3.jpg,right,681.1049999669194,false,high,NA,NA,NA,NA,NA,NA,NA,false
CkDsWth3,3vll1pieot1c2ogsesvb4yutk6poza,3137onmdkkism06slo9s3zg0o31eg5,CkDsWth3,2020-0188,2020-05-08,10:12:05,10:34:12,NA,incomplete,111,number,1,left,Green_Plus_Grid_3.jpg,Red_Star_Stripes_3.jpg,Blue_Circle_Grid_1.jpg,right,794.5600000675768,false,high,NA,NA,NA,NA,NA,NA,NA,false
CkDsWth3,3vll1pieot1c2ogsesvb4yutk6poza,3137onmdkkism06slo9s3zg0o31eg5,CkDsWth3,2020-0188,2020-05-08,10:12:05,10:34:12,NA,incomplete,112,number,0,right,Red_Circle_Grid_3.jpg,Purple_Star_Grid_2.jpg,Green_Plus_Dots_3.jpg,right,721.1949999909848,true,high,NA,NA,NA,NA,NA,NA,NA,false
CkDsWth3,3vll1pieot1c2ogsesvb4yutk6poza,3137onmdkkism06slo9s3zg0o31eg5,CkDsWth3,2020-0188,2020-05-08,10:12:05,10:34:12,NA,incomplete,113,number,1,right,Green_Star_Dots_2.jpg,Purple_Triangle_Dots_3.jpg,Blue_Circle_Stripes_2.jpg,right,693.3100000023842,true,high,NA,NA,NA,NA,NA,NA,NA,false
CkDsWth3,3vll1pieot1c2ogsesvb4yutk6poza,3137onmdkkism06slo9s3zg0o31eg5,CkDsWth3,2020-0188,2020-05-08,10:12:05,10:34:12,NA,incomplete,114,number,1,right,Green_Star_Grid_2.jpg,Blue_Plus_Grid_4.jpg,Red_Circle_Stripes_2.jpg,right,677.7049999218434,true,high,NA,NA,NA,NA,NA,NA,NA,false
CkDsWth3,3vll1pieot1c2ogsesvb4yutk6poza,3137onmdkkism06slo9s3zg0o31eg5,CkDsWth3,2020-0188,2020-05-08,10:12:05,10:34:12,NA,incomplete,115,number,1,left,Blue_Plus_Chess_3.jpg,Purple_Star_Dots_3.jpg,Red_Triangle_Chess_4.jpg,left,656.8099998403341,true,high,NA,NA,NA,NA,NA,NA,NA,false
CkDsWth3,3vll1pieot1c2ogsesvb4yutk6poza,3137onmdkkism06slo9s3zg0o31eg5,CkDsWth3,2020-0188,2020-05-08,10:12:05,10:34:12,NA,incomplete,116,number,1,right,Red_Plus_Grid_1.jpg,Purple_Triangle_Grid_4.jpg,Blue_Star_Chess_1.jpg,right,523.215000052005,true,high,NA,NA,NA,NA,NA,NA,NA,false
CkDsWth3,3vll1pieot1c2ogsesvb4yutk6poza,3137onmdkkism06slo9s3zg0o31eg5,CkDsWth3,2020-0188,2020-05-08,10:12:05,10:34:12,NA,incomplete,117,number,1,left,Green_Star_Stripes_4.jpg,Purple_Triangle_Chess_4.jpg,Blue_Circle_Stripes_1.jpg,left,666.1700000986457,true,high,NA,NA,NA,NA,NA,NA,NA,false
CkDsWth3,3vll1pieot1c2ogsesvb4yutk6poza,3137onmdkkism06slo9s3zg0o31eg5,CkDsWth3,2020-0188,2020-05-08,10:12:05,10:34:12,NA,incomplete,118,number,1,left,Red_Triangle_Grid_1.jpg,Purple_Plus_Stripes_1.jpg,Green_Circle_Grid_4.jpg,left,521.6149999760091,true,high,NA,NA,NA,NA,NA,NA,NA,false
CkDsWth3,3vll1pieot1c2ogsesvb4yutk6poza,3137onmdkkism06slo9s3zg0o31eg5,CkDsWth3,2020-0188,2020-05-08,10:12:05,10:34:12,NA,incomplete,119,number,1,left,Purple_Plus_Grid_3.jpg,Green_Circle_Chess_3.jpg,Red_Triangle_Grid_2.jpg,left,674.3750001769513,true,high,NA,NA,NA,NA,NA,NA,NA,false
CkDsWth3,3vll1pieot1c2ogsesvb4yutk6poza,3137onmdkkism06slo9s3zg0o31eg5,CkDsWth3,2020-0188,2020-05-08,10:12:05,10:34:12,NA,incomplete,120,filling,1,right,Red_Triangle_Stripes_3.jpg,Green_Plus_Grid_3.jpg,Purple_Circle_Stripes_1.jpg,left,487.9400001373142,false,high,NA,NA,NA,NA,NA,NA,NA,false
CkDsWth3,3vll1pieot1c2ogsesvb4yutk6poza,3137onmdkkism06slo9s3zg0o31eg5,CkDsWth3,2020-0188,2020-05-08,10:12:05,10:34:12,NA,incomplete,121,filling,1,right,Red_Circle_Chess_3.jpg,Purple_Triangle_Stripes_3.jpg,Green_Star_Chess_4.jpg,right,729.2949999682605,true,high,NA,NA,NA,NA,NA,NA,NA,false
CkDsWth3,3vll1pieot1c2ogsesvb4yutk6poza,3137onmdkkism06slo9s3zg0o31eg5,CkDsWth3,2020-0188,2020-05-08,10:12:05,10:34:12,NA,incomplete,122,filling,1,right,Blue_Circle_Dots_3.jpg,Red_Triangle_Stripes_3.jpg,Green_Plus_Dots_1.jpg,right,613.8649999629706,true,high,NA,NA,NA,NA,NA,NA,NA,false
CkDsWth3,3vll1pieot1c2ogsesvb4yutk6poza,3137onmdkkism06slo9s3zg0o31eg5,CkDsWth3,2020-0188,2020-05-08,10:12:05,10:34:12,NA,incomplete,123,filling,1,left,Purple_Triangle_Stripes_1.jpg,Red_Star_Stripes_3.jpg,Blue_Circle_Grid_1.jpg,left,668.9049999695271,true,high,NA,NA,NA,NA,NA,NA,NA,false
CkDsWth3,3vll1pieot1c2ogsesvb4yutk6poza,3137onmdkkism06slo9s3zg0o31eg5,CkDsWth3,2020-0188,2020-05-08,10:12:05,10:34:12,NA,incomplete,124,filling,1,right,Green_Star_Chess_2.jpg,Purple_Triangle_Grid_2.jpg,Blue_Circle_Chess_4.jpg,right,709.4999998807907,true,high,NA,NA,NA,NA,NA,NA,NA,false
CkDsWth3,3vll1pieot1c2ogsesvb4yutk6poza,3137onmdkkism06slo9s3zg0o31eg5,CkDsWth3,2020-0188,2020-05-08,10:12:05,10:34:12,NA,incomplete,125,filling,1,left,Green_Triangle_Chess_4.jpg,Red_Circle_Chess_3.jpg,Blue_Star_Dots_4.jpg,left,580.3650000598282,true,high,NA,NA,NA,NA,NA,NA,NA,false
CkDsWth3,3vll1pieot1c2ogsesvb4yutk6poza,3137onmdkkism06slo9s3zg0o31eg5,CkDsWth3,2020-0188,2020-05-08,10:12:05,10:34:12,NA,incomplete,126,filling,0,right,Blue_Circle_Grid_1.jpg,Red_Triangle_Stripes_1.jpg,Green_Star_Grid_4.jpg,right,620.0999999418855,true,high,NA,NA,NA,NA,NA,NA,NA,false
CkDsWth3,3vll1pieot1c2ogsesvb4yutk6poza,3137onmdkkism06slo9s3zg0o31eg5,CkDsWth3,2020-0188,2020-05-08,10:12:05,10:34:12,NA,incomplete,127,filling,1,left,Purple_Star_Chess_3.jpg,Red_Circle_Chess_2.jpg,Blue_Triangle_Dots_3.jpg,left,588.4899999946356,true,high,NA,NA,NA,NA,NA,NA,NA,false
CkDsWth3,3vll1pieot1c2ogsesvb4yutk6poza,3137onmdkkism06slo9s3zg0o31eg5,CkDsWth3,2020-0188,2020-05-08,10:12:05,10:34:12,NA,incomplete,128,filling,1,right,Red_Triangle_Grid_3.jpg,Green_Circle_Dots_3.jpg,Purple_Star_Grid_2.jpg,right,662.2249998617917,true,high,NA,NA,NA,NA,NA,NA,NA,false
CkDsWth3,3vll1pieot1c2ogsesvb4yutk6poza,3137onmdkkism06slo9s3zg0o31eg5,CkDsWth3,2020-0188,2020-05-08,10:12:05,10:34:12,NA,incomplete,129,filling,1,right,Blue_Star_Chess_2.jpg,Purple_Triangle_Dots_2.jpg,Red_Plus_Chess_4.jpg,right,656.6999999340624,true,high,NA,NA,NA,NA,NA,NA,NA,false
CkDsWth3,3vll1pieot1c2ogsesvb4yutk6poza,3137onmdkkism06slo9s3zg0o31eg5,CkDsWth3,2020-0188,2020-05-08,10:12:05,10:34:12,NA,incomplete,130,filling,1,right,Red_Triangle_Grid_1.jpg,Green_Plus_Stripes_1.jpg,Blue_Star_Grid_4.jpg,right,585.759999928996,true,high,NA,NA,NA,NA,NA,NA,NA,false
CkDsWth3,3vll1pieot1c2ogsesvb4yutk6poza,3137onmdkkism06slo9s3zg0o31eg5,CkDsWth3,2020-0188,2020-05-08,10:12:05,10:34:12,NA,incomplete,131,filling,1,left,Purple_Plus_Chess_1.jpg,Blue_Star_Chess_2.jpg,Green_Triangle_Dots_1.jpg,left,619.2650001030415,true,high,NA,NA,NA,NA,NA,NA,NA,false
CkDsWth3,3vll1pieot1c2ogsesvb4yutk6poza,3137onmdkkism06slo9s3zg0o31eg5,CkDsWth3,2020-0188,2020-05-08,10:12:05,10:34:12,NA,incomplete,132,filling,1,right,Green_Star_Dots_4.jpg,Purple_Circle_Chess_4.jpg,Blue_Triangle_Dots_3.jpg,right,627.3600000422448,true,high,NA,NA,NA,NA,NA,NA,NA,false
CkDsWth3,3vll1pieot1c2ogsesvb4yutk6poza,3137onmdkkism06slo9s3zg0o31eg5,CkDsWth3,2020-0188,2020-05-08,10:12:05,10:34:12,NA,incomplete,133,filling,0,right,Green_Plus_Dots_4.jpg,Blue_Circle_Grid_4.jpg,Red_Triangle_Dots_1.jpg,right,646.8400000594556,true,high,NA,NA,NA,NA,NA,NA,NA,false
CkDsWth3,3vll1pieot1c2ogsesvb4yutk6poza,3137onmdkkism06slo9s3zg0o31eg5,CkDsWth3,2020-0188,2020-05-08,10:12:05,10:34:12,NA,incomplete,134,filling,1,left,Green_Plus_Stripes_4.jpg,Red_Triangle_Stripes_2.jpg,Purple_Circle_Grid_4.jpg,left,909.8399998620152,true,high,NA,NA,NA,NA,NA,NA,NA,false
CkDsWth3,3vll1pieot1c2ogsesvb4yutk6poza,3137onmdkkism06slo9s3zg0o31eg5,CkDsWth3,2020-0188,2020-05-08,10:12:05,10:34:12,NA,incomplete,135,filling,1,right,Purple_Star_Stripes_2.jpg,Blue_Triangle_Dots_2.jpg,Red_Plus_Stripes_1.jpg,right,837.535000173375,true,high,NA,NA,NA,NA,NA,NA,NA,false
CkDsWth3,3vll1pieot1c2ogsesvb4yutk6poza,3137onmdkkism06slo9s3zg0o31eg5,CkDsWth3,2020-0188,2020-05-08,10:12:05,10:34:12,NA,incomplete,136,filling,1,left,Red_Star_Grid_2.jpg,Purple_Triangle_Grid_3.jpg,Blue_Circle_Stripes_2.jpg,left,832.145000109449,true,high,NA,NA,NA,NA,NA,NA,NA,false
CkDsWth3,3vll1pieot1c2ogsesvb4yutk6poza,3137onmdkkism06slo9s3zg0o31eg5,CkDsWth3,2020-0188,2020-05-08,10:12:05,10:34:12,NA,incomplete,137,filling,1,left,Red_Circle_Stripes_1.jpg,Blue_Star_Stripes_2.jpg,Green_Triangle_Chess_1.jpg,left,738.43999998644,true,high,NA,NA,NA,NA,NA,NA,NA,false
CkDsWth3,3vll1pieot1c2ogsesvb4yutk6poza,3137onmdkkism06slo9s3zg0o31eg5,CkDsWth3,2020-0188,2020-05-08,10:12:05,10:34:12,NA,incomplete,138,filling,1,left,Green_Star_Stripes_4.jpg,Blue_Plus_Stripes_1.jpg,Purple_Triangle_Grid_4.jpg,right,700.2350001130253,false,high,NA,NA,NA,NA,NA,NA,NA,false
CkDsWth3,3vll1pieot1c2ogsesvb4yutk6poza,3137onmdkkism06slo9s3zg0o31eg5,CkDsWth3,2020-0188,2020-05-08,10:12:05,10:34:12,NA,incomplete,139,filling,1,left,Red_Triangle_Chess_2.jpg,Purple_Star_Chess_4.jpg,Blue_Circle_Dots_2.jpg,left,725.9750000666827,true,high,NA,NA,NA,NA,NA,NA,NA,false
CkDsWth3,3vll1pieot1c2ogsesvb4yutk6poza,3137onmdkkism06slo9s3zg0o31eg5,CkDsWth3,2020-0188,2020-05-08,10:12:05,10:34:12,NA,incomplete,140,number,0,right,Blue_Triangle_Dots_3.jpg,Purple_Star_Dots_1.jpg,Green_Plus_Stripes_3.jpg,left,586.7949998937547,false,high,NA,NA,NA,NA,NA,NA,NA,false
CkDsWth3,3vll1pieot1c2ogsesvb4yutk6poza,3137onmdkkism06slo9s3zg0o31eg5,CkDsWth3,2020-0188,2020-05-08,10:12:05,10:34:12,NA,incomplete,141,number,1,left,Blue_Circle_Stripes_1.jpg,Green_Star_Grid_1.jpg,Red_Plus_Stripes_3.jpg,right,672.590000089258,false,high,NA,NA,NA,NA,NA,NA,NA,false
CkDsWth3,3vll1pieot1c2ogsesvb4yutk6poza,3137onmdkkism06slo9s3zg0o31eg5,CkDsWth3,2020-0188,2020-05-08,10:12:05,10:34:12,NA,incomplete,142,number,0,right,Blue_Star_Stripes_3.jpg,Red_Plus_Stripes_1.jpg,Purple_Triangle_Dots_3.jpg,left,684.3149999622256,false,high,NA,NA,NA,NA,NA,NA,NA,false
CkDsWth3,3vll1pieot1c2ogsesvb4yutk6poza,3137onmdkkism06slo9s3zg0o31eg5,CkDsWth3,2020-0188,2020-05-08,10:12:05,10:34:12,NA,incomplete,143,number,1,right,Purple_Triangle_Grid_4.jpg,Red_Plus_Grid_2.jpg,Blue_Circle_Stripes_4.jpg,left,857.0199999958277,false,high,NA,NA,NA,NA,NA,NA,NA,false
CkDsWth3,3vll1pieot1c2ogsesvb4yutk6poza,3137onmdkkism06slo9s3zg0o31eg5,CkDsWth3,2020-0188,2020-05-08,10:12:05,10:34:12,NA,incomplete,144,number,0,left,Red_Triangle_Dots_3.jpg,Blue_Circle_Chess_3.jpg,Purple_Plus_Dots_4.jpg,right,831.3450000714511,false,high,NA,NA,NA,NA,NA,NA,NA,false
CkDsWth3,3vll1pieot1c2ogsesvb4yutk6poza,3137onmdkkism06slo9s3zg0o31eg5,CkDsWth3,2020-0188,2020-05-08,10:12:05,10:34:12,NA,incomplete,145,number,1,right,Red_Circle_Stripes_2.jpg,Green_Plus_Stripes_3.jpg,Purple_Triangle_Grid_2.jpg,left,801.8050000537187,false,high,NA,NA,NA,NA,NA,NA,NA,false
CkDsWth3,3vll1pieot1c2ogsesvb4yutk6poza,3137onmdkkism06slo9s3zg0o31eg5,CkDsWth3,2020-0188,2020-05-08,10:12:05,10:34:12,NA,incomplete,146,number,1,right,Red_Triangle_Chess_2.jpg,Blue_Star_Chess_1.jpg,Purple_Circle_Dots_2.jpg,left,687.7349999267608,false,high,NA,NA,NA,NA,NA,NA,NA,false
CkDsWth3,3vll1pieot1c2ogsesvb4yutk6poza,3137onmdkkism06slo9s3zg0o31eg5,CkDsWth3,2020-0188,2020-05-08,10:12:05,10:34:12,NA,incomplete,147,number,1,left,Blue_Circle_Chess_3.jpg,Red_Triangle_Grid_3.jpg,Green_Star_Chess_4.jpg,left,866.4700000081211,true,high,NA,NA,NA,NA,NA,NA,NA,false
CkDsWth3,3vll1pieot1c2ogsesvb4yutk6poza,3137onmdkkism06slo9s3zg0o31eg5,CkDsWth3,2020-0188,2020-05-08,10:12:05,10:34:12,NA,incomplete,148,number,1,right,Purple_Plus_Grid_4.jpg,Green_Circle_Grid_2.jpg,Red_Star_Dots_4.jpg,right,493.1600000709295,true,high,NA,NA,NA,NA,NA,NA,NA,false
CkDsWth3,3vll1pieot1c2ogsesvb4yutk6poza,3137onmdkkism06slo9s3zg0o31eg5,CkDsWth3,2020-0188,2020-05-08,10:12:05,10:34:12,NA,incomplete,149,number,1,left,Blue_Triangle_Stripes_4.jpg,Green_Star_Dots_4.jpg,Purple_Plus_Stripes_2.jpg,left,557.5399999506772,true,high,NA,NA,NA,NA,NA,NA,NA,false
CkDsWth3,3vll1pieot1c2ogsesvb4yutk6poza,3137onmdkkism06slo9s3zg0o31eg5,CkDsWth3,2020-0188,2020-05-08,10:12:05,10:34:12,NA,incomplete,150,number,1,right,Blue_Triangle_Chess_1.jpg,Red_Plus_Chess_4.jpg,Purple_Star_Stripes_1.jpg,right,488.829999929294,true,high,NA,NA,NA,NA,NA,NA,NA,false
CkDsWth3,3vll1pieot1c2ogsesvb4yutk6poza,3137onmdkkism06slo9s3zg0o31eg5,CkDsWth3,2020-0188,2020-05-08,10:12:05,10:34:12,NA,incomplete,151,number,1,right,Red_Triangle_Stripes_3.jpg,Blue_Circle_Stripes_2.jpg,Purple_Star_Dots_3.jpg,right,680.4599999450147,true,high,NA,NA,NA,NA,NA,NA,NA,false
CkDsWth3,3vll1pieot1c2ogsesvb4yutk6poza,3137onmdkkism06slo9s3zg0o31eg5,CkDsWth3,2020-0188,2020-05-08,10:12:05,10:34:12,NA,incomplete,152,number,1,right,Blue_Circle_Chess_4.jpg,Purple_Star_Chess_2.jpg,Green_Triangle_Grid_4.jpg,right,636.9100001174957,true,high,NA,NA,NA,NA,NA,NA,NA,false
CkDsWth3,3vll1pieot1c2ogsesvb4yutk6poza,3137onmdkkism06slo9s3zg0o31eg5,CkDsWth3,2020-0188,2020-05-08,10:12:05,10:34:12,NA,incomplete,153,number,1,left,Green_Star_Stripes_3.jpg,Blue_Triangle_Chess_3.jpg,Red_Plus_Stripes_4.jpg,left,688.7750001624227,true,high,NA,NA,NA,NA,NA,NA,NA,false
CkDsWth3,3vll1pieot1c2ogsesvb4yutk6poza,3137onmdkkism06slo9s3zg0o31eg5,CkDsWth3,2020-0188,2020-05-08,10:12:05,10:34:12,NA,incomplete,154,number,1,right,Blue_Star_Dots_3.jpg,Purple_Triangle_Dots_4.jpg,Green_Circle_Chess_3.jpg,right,653.690000064671,true,high,NA,NA,NA,NA,NA,NA,NA,false
CkDsWth3,3vll1pieot1c2ogsesvb4yutk6poza,3137onmdkkism06slo9s3zg0o31eg5,CkDsWth3,2020-0188,2020-05-08,10:12:05,10:34:12,NA,incomplete,155,number,1,left,Red_Triangle_Grid_2.jpg,Purple_Circle_Stripes_2.jpg,Green_Plus_Grid_3.jpg,left,578.965000109747,true,high,NA,NA,NA,NA,NA,NA,NA,false
CkDsWth3,3vll1pieot1c2ogsesvb4yutk6poza,3137onmdkkism06slo9s3zg0o31eg5,CkDsWth3,2020-0188,2020-05-08,10:12:05,10:34:12,NA,incomplete,156,number,1,left,Blue_Triangle_Stripes_3.jpg,Purple_Plus_Dots_3.jpg,Green_Circle_Stripes_1.jpg,left,540.8149999566376,true,high,NA,NA,NA,NA,NA,NA,NA,false
CkDsWth3,3vll1pieot1c2ogsesvb4yutk6poza,3137onmdkkism06slo9s3zg0o31eg5,CkDsWth3,2020-0188,2020-05-08,10:12:05,10:34:12,NA,incomplete,157,number,0,left,Red_Triangle_Stripes_2.jpg,Green_Star_Grid_2.jpg,Blue_Plus_Stripes_1.jpg,left,533.2200000993907,true,high,NA,NA,NA,NA,NA,NA,NA,false
CkDsWth3,3vll1pieot1c2ogsesvb4yutk6poza,3137onmdkkism06slo9s3zg0o31eg5,CkDsWth3,2020-0188,2020-05-08,10:12:05,10:34:12,NA,incomplete,158,number,1,left,Blue_Circle_Dots_3.jpg,Purple_Triangle_Grid_3.jpg,Red_Star_Dots_2.jpg,left,607.3199999518692,true,high,NA,NA,NA,NA,NA,NA,NA,false
CkDsWth3,3vll1pieot1c2ogsesvb4yutk6poza,3137onmdkkism06slo9s3zg0o31eg5,CkDsWth3,2020-0188,2020-05-08,10:12:05,10:34:12,NA,incomplete,159,number,1,right,Red_Star_Grid_4.jpg,Blue_Triangle_Grid_2.jpg,Purple_Circle_Chess_4.jpg,right,519.815000006929,true,high,NA,NA,NA,NA,NA,NA,NA,false
CkDsWth3,3vll1pieot1c2ogsesvb4yutk6poza,3137onmdkkism06slo9s3zg0o31eg5,CkDsWth3,2020-0188,2020-05-08,10:12:05,10:34:12,NA,incomplete,160,filling,1,right,Purple_Triangle_Chess_3.jpg,Red_Plus_Grid_3.jpg,Green_Circle_Chess_2.jpg,left,594.4150001741946,false,high,NA,NA,NA,NA,NA,NA,NA,false
CkDsWth3,3vll1pieot1c2ogsesvb4yutk6poza,3137onmdkkism06slo9s3zg0o31eg5,CkDsWth3,2020-0188,2020-05-08,10:12:05,10:34:12,NA,incomplete,161,filling,0,left,Blue_Star_Grid_1.jpg,Red_Triangle_Grid_3.jpg,Green_Plus_Stripes_1.jpg,right,516.5150000248104,false,high,NA,NA,NA,NA,NA,NA,NA,false
CkDsWth3,3vll1pieot1c2ogsesvb4yutk6poza,3137onmdkkism06slo9s3zg0o31eg5,CkDsWth3,2020-0188,2020-05-08,10:12:05,10:34:12,NA,incomplete,162,filling,1,left,Red_Plus_Dots_3.jpg,Purple_Triangle_Dots_4.jpg,Blue_Circle_Stripes_3.jpg,right,766.9300001580268,false,high,NA,NA,NA,NA,NA,NA,NA,false
CkDsWth3,3vll1pieot1c2ogsesvb4yutk6poza,3137onmdkkism06slo9s3zg0o31eg5,CkDsWth3,2020-0188,2020-05-08,10:12:05,10:34:12,NA,incomplete,163,filling,1,left,Purple_Circle_Grid_4.jpg,Blue_Triangle_Grid_3.jpg,Red_Star_Stripes_4.jpg,right,675.7050000596792,false,high,NA,NA,NA,NA,NA,NA,NA,false
CkDsWth3,3vll1pieot1c2ogsesvb4yutk6poza,3137onmdkkism06slo9s3zg0o31eg5,CkDsWth3,2020-0188,2020-05-08,10:12:05,10:34:12,NA,incomplete,164,filling,0,left,Green_Triangle_Chess_1.jpg,Red_Circle_Chess_4.jpg,Blue_Plus_Grid_1.jpg,left,702.5999999605119,true,high,NA,NA,NA,NA,NA,NA,NA,false
CkDsWth3,3vll1pieot1c2ogsesvb4yutk6poza,3137onmdkkism06slo9s3zg0o31eg5,CkDsWth3,2020-0188,2020-05-08,10:12:05,10:34:12,NA,incomplete,165,filling,1,right,Blue_Triangle_Dots_3.jpg,Purple_Star_Grid_3.jpg,Green_Plus_Dots_4.jpg,left,764.4250001758337,false,high,NA,NA,NA,NA,NA,NA,NA,false
CkDsWth3,3vll1pieot1c2ogsesvb4yutk6poza,3137onmdkkism06slo9s3zg0o31eg5,CkDsWth3,2020-0188,2020-05-08,10:12:05,10:34:12,NA,incomplete,166,filling,1,right,Red_Triangle_Chess_1.jpg,Blue_Plus_Grid_1.jpg,Purple_Circle_Chess_4.jpg,right,623.5200001392514,true,high,NA,NA,NA,NA,NA,NA,NA,false
CkDsWth3,3vll1pieot1c2ogsesvb4yutk6poza,3137onmdkkism06slo9s3zg0o31eg5,CkDsWth3,2020-0188,2020-05-08,10:12:05,10:34:12,NA,incomplete,167,filling,1,left,Green_Star_Grid_2.jpg,Blue_Triangle_Grid_3.jpg,Purple_Circle_Dots_2.jpg,left,640.5050000175834,true,high,NA,NA,NA,NA,NA,NA,NA,false
CkDsWth3,3vll1pieot1c2ogsesvb4yutk6poza,3137onmdkkism06slo9s3zg0o31eg5,CkDsWth3,2020-0188,2020-05-08,10:12:05,10:34:12,NA,incomplete,168,filling,1,left,Red_Star_Chess_3.jpg,Blue_Circle_Chess_2.jpg,Green_Triangle_Dots_3.jpg,left,640.8750000409782,true,high,NA,NA,NA,NA,NA,NA,NA,false
CkDsWth3,3vll1pieot1c2ogsesvb4yutk6poza,3137onmdkkism06slo9s3zg0o31eg5,CkDsWth3,2020-0188,2020-05-08,10:12:05,10:34:12,NA,incomplete,169,filling,1,right,Green_Star_Stripes_4.jpg,Purple_Triangle_Dots_4.jpg,Blue_Plus_Stripes_3.jpg,right,757.2649999056011,true,high,NA,NA,NA,NA,NA,NA,NA,false
CkDsWth3,3vll1pieot1c2ogsesvb4yutk6poza,3137onmdkkism06slo9s3zg0o31eg5,CkDsWth3,2020-0188,2020-05-08,10:12:05,10:34:12,NA,incomplete,170,filling,1,left,Purple_Triangle_Stripes_3.jpg,Red_Plus_Stripes_2.jpg,Blue_Circle_Chess_3.jpg,left,794.325000140816,true,high,NA,NA,NA,NA,NA,NA,NA,false
CkDsWth3,3vll1pieot1c2ogsesvb4yutk6poza,3137onmdkkism06slo9s3zg0o31eg5,CkDsWth3,2020-0188,2020-05-08,10:12:05,10:34:12,NA,incomplete,171,filling,0,right,Green_Circle_Dots_1.jpg,Blue_Plus_Stripes_1.jpg,Red_Star_Dots_3.jpg,right,683.3650001790375,true,high,NA,NA,NA,NA,NA,NA,NA,false
CkDsWth3,3vll1pieot1c2ogsesvb4yutk6poza,3137onmdkkism06slo9s3zg0o31eg5,CkDsWth3,2020-0188,2020-05-08,10:12:05,10:34:12,NA,incomplete,172,filling,1,right,Blue_Plus_Stripes_2.jpg,Green_Star_Grid_2.jpg,Purple_Triangle_Stripes_3.jpg,right,828.2900000922382,true,high,NA,NA,NA,NA,NA,NA,NA,false
CkDsWth3,3vll1pieot1c2ogsesvb4yutk6poza,3137onmdkkism06slo9s3zg0o31eg5,CkDsWth3,2020-0188,2020-05-08,10:12:05,10:34:12,NA,incomplete,173,filling,1,left,Purple_Star_Stripes_1.jpg,Blue_Plus_Stripes_2.jpg,Red_Triangle_Grid_1.jpg,left,922.580000013113,true,high,NA,NA,NA,NA,NA,NA,NA,false
CkDsWth3,3vll1pieot1c2ogsesvb4yutk6poza,3137onmdkkism06slo9s3zg0o31eg5,CkDsWth3,2020-0188,2020-05-08,10:12:05,10:34:12,NA,incomplete,174,filling,1,left,Red_Triangle_Grid_3.jpg,Blue_Circle_Grid_4.jpg,Purple_Star_Stripes_3.jpg,left,801.1849999893457,true,high,NA,NA,NA,NA,NA,NA,NA,false
CkDsWth3,3vll1pieot1c2ogsesvb4yutk6poza,3137onmdkkism06slo9s3zg0o31eg5,CkDsWth3,2020-0188,2020-05-08,10:12:05,10:34:12,NA,incomplete,175,filling,0,left,Blue_Circle_Stripes_3.jpg,Purple_Plus_Stripes_1.jpg,Red_Triangle_Dots_3.jpg,left,909.7550001461059,true,high,NA,NA,NA,NA,NA,NA,NA,false
CkDsWth3,3vll1pieot1c2ogsesvb4yutk6poza,3137onmdkkism06slo9s3zg0o31eg5,CkDsWth3,2020-0188,2020-05-08,10:12:05,10:34:12,NA,incomplete,176,filling,1,right,Blue_Triangle_Dots_3.jpg,Red_Plus_Stripes_3.jpg,Green_Star_Dots_2.jpg,right,774.2099999450147,true,high,NA,NA,NA,NA,NA,NA,NA,false
CkDsWth3,3vll1pieot1c2ogsesvb4yutk6poza,3137onmdkkism06slo9s3zg0o31eg5,CkDsWth3,2020-0188,2020-05-08,10:12:05,10:34:12,NA,incomplete,177,filling,1,right,Red_Circle_Dots_2.jpg,Purple_Triangle_Grid_2.jpg,Green_Plus_Dots_4.jpg,right,804.1149999480695,true,high,NA,NA,NA,NA,NA,NA,NA,false
CkDsWth3,3vll1pieot1c2ogsesvb4yutk6poza,3137onmdkkism06slo9s3zg0o31eg5,CkDsWth3,2020-0188,2020-05-08,10:12:05,10:34:12,NA,incomplete,178,filling,1,left,Green_Star_Grid_1.jpg,Blue_Plus_Grid_4.jpg,Red_Circle_Dots_1.jpg,left,649.6999999508262,true,high,NA,NA,NA,NA,NA,NA,NA,false
CkDsWth3,3vll1pieot1c2ogsesvb4yutk6poza,3137onmdkkism06slo9s3zg0o31eg5,CkDsWth3,2020-0188,2020-05-08,10:12:05,10:34:12,NA,incomplete,179,filling,0,left,Purple_Plus_Chess_3.jpg,Blue_Circle_Chess_4.jpg,Red_Triangle_Dots_3.jpg,left,559.8450000397861,true,high,NA,NA,NA,NA,NA,NA,NA,false
CkDsWth3,3vll1pieot1c2ogsesvb4yutk6poza,3137onmdkkism06slo9s3zg0o31eg5,CkDsWth3,2020-0188,2020-05-08,10:12:05,10:34:12,NA,incomplete,180,number,1,left,Red_Circle_Dots_1.jpg,Purple_Plus_Chess_1.jpg,Green_Triangle_Dots_2.jpg,right,587.1299998834729,false,high,NA,NA,NA,NA,NA,NA,NA,false
CkDsWth3,3vll1pieot1c2ogsesvb4yutk6poza,3137onmdkkism06slo9s3zg0o31eg5,CkDsWth3,2020-0188,2020-05-08,10:12:05,10:34:12,NA,incomplete,181,number,0,right,Green_Plus_Chess_3.jpg,Purple_Circle_Chess_1.jpg,Blue_Triangle_Stripes_3.jpg,right,541.0749998409301,true,high,NA,NA,NA,NA,NA,NA,NA,false
CkDsWth3,3vll1pieot1c2ogsesvb4yutk6poza,3137onmdkkism06slo9s3zg0o31eg5,CkDsWth3,2020-0188,2020-05-08,10:12:05,10:34:12,NA,incomplete,182,number,1,right,Red_Circle_Chess_1.jpg,Blue_Plus_Chess_4.jpg,Purple_Triangle_Dots_1.jpg,left,709.4799999613315,false,high,NA,NA,NA,NA,NA,NA,NA,false
CkDsWth3,3vll1pieot1c2ogsesvb4yutk6poza,3137onmdkkism06slo9s3zg0o31eg5,CkDsWth3,2020-0188,2020-05-08,10:12:05,10:34:12,NA,incomplete,183,number,1,right,Blue_Plus_Dots_2.jpg,Red_Triangle_Dots_1.jpg,Purple_Star_Chess_2.jpg,right,651.6950000077486,true,high,NA,NA,NA,NA,NA,NA,NA,false
CkDsWth3,3vll1pieot1c2ogsesvb4yutk6poza,3137onmdkkism06slo9s3zg0o31eg5,CkDsWth3,2020-0188,2020-05-08,10:12:05,10:34:12,NA,incomplete,184,number,0,left,Red_Plus_Dots_4.jpg,Purple_Star_Chess_4.jpg,Green_Circle_Dots_2.jpg,left,553.0950000975281,true,high,NA,NA,NA,NA,NA,NA,NA,false
CkDsWth3,3vll1pieot1c2ogsesvb4yutk6poza,3137onmdkkism06slo9s3zg0o31eg5,CkDsWth3,2020-0188,2020-05-08,10:12:05,10:34:12,NA,incomplete,185,number,1,left,Green_Star_Chess_1.jpg,Blue_Plus_Dots_1.jpg,Red_Triangle_Chess_2.jpg,left,556.1249998863786,true,high,NA,NA,NA,NA,NA,NA,NA,false
CkDsWth3,3vll1pieot1c2ogsesvb4yutk6poza,3137onmdkkism06slo9s3zg0o31eg5,CkDsWth3,2020-0188,2020-05-08,10:12:05,10:34:12,NA,incomplete,186,number,0,right,Blue_Circle_Grid_1.jpg,Red_Star_Grid_4.jpg,Green_Triangle_Chess_1.jpg,right,486.6949999704957,true,high,NA,NA,NA,NA,NA,NA,NA,false
CkDsWth3,3vll1pieot1c2ogsesvb4yutk6poza,3137onmdkkism06slo9s3zg0o31eg5,CkDsWth3,2020-0188,2020-05-08,10:12:05,10:34:12,NA,incomplete,187,number,1,right,Blue_Star_Grid_1.jpg,Green_Triangle_Grid_3.jpg,Purple_Plus_Stripes_1.jpg,left,615.0050000287592,false,high,NA,NA,NA,NA,NA,NA,NA,false
CkDsWth3,3vll1pieot1c2ogsesvb4yutk6poza,3137onmdkkism06slo9s3zg0o31eg5,CkDsWth3,2020-0188,2020-05-08,10:12:05,10:34:12,NA,incomplete,188,number,1,right,Purple_Star_Chess_4.jpg,Blue_Circle_Chess_3.jpg,Red_Plus_Dots_4.jpg,right,827.650000108406,true,high,NA,NA,NA,NA,NA,NA,NA,false
CkDsWth3,3vll1pieot1c2ogsesvb4yutk6poza,3137onmdkkism06slo9s3zg0o31eg5,CkDsWth3,2020-0188,2020-05-08,10:12:05,10:34:12,NA,incomplete,189,number,1,left,Purple_Star_Chess_2.jpg,Green_Triangle_Grid_2.jpg,Red_Plus_Chess_1.jpg,left,579.0349999442697,true,high,NA,NA,NA,NA,NA,NA,NA,false
CkDsWth3,3vll1pieot1c2ogsesvb4yutk6poza,3137onmdkkism06slo9s3zg0o31eg5,CkDsWth3,2020-0188,2020-05-08,10:12:05,10:34:12,NA,incomplete,190,number,0,right,Blue_Circle_Stripes_3.jpg,Purple_Triangle_Stripes_1.jpg,Green_Plus_Grid_3.jpg,right,478.40999998152256,true,high,NA,NA,NA,NA,NA,NA,NA,false
CkDsWth3,3vll1pieot1c2ogsesvb4yutk6poza,3137onmdkkism06slo9s3zg0o31eg5,CkDsWth3,2020-0188,2020-05-08,10:12:05,10:34:12,NA,incomplete,191,number,1,left,Blue_Plus_Chess_4.jpg,Red_Circle_Grid_4.jpg,Green_Triangle_Chess_3.jpg,right,656.7600001581013,false,high,NA,NA,NA,NA,NA,NA,NA,false
CkDsWth3,3vll1pieot1c2ogsesvb4yutk6poza,3137onmdkkism06slo9s3zg0o31eg5,CkDsWth3,2020-0188,2020-05-08,10:12:05,10:34:12,NA,incomplete,192,number,1,left,Blue_Plus_Stripes_2.jpg,Green_Triangle_Dots_2.jpg,Purple_Star_Stripes_1.jpg,left,581.5149999689311,true,high,NA,NA,NA,NA,NA,NA,NA,false
CkDsWth3,3vll1pieot1c2ogsesvb4yutk6poza,3137onmdkkism06slo9s3zg0o31eg5,CkDsWth3,2020-0188,2020-05-08,10:12:05,10:34:12,NA,incomplete,193,number,1,right,Purple_Plus_Dots_3.jpg,Blue_Circle_Dots_1.jpg,Green_Triangle_Chess_3.jpg,right,560.3300000075251,true,high,NA,NA,NA,NA,NA,NA,NA,false
CkDsWth3,3vll1pieot1c2ogsesvb4yutk6poza,3137onmdkkism06slo9s3zg0o31eg5,CkDsWth3,2020-0188,2020-05-08,10:12:05,10:34:12,NA,incomplete,194,number,1,left,Purple_Triangle_Grid_4.jpg,Green_Plus_Chess_4.jpg,Blue_Circle_Grid_2.jpg,left,458.15499988384545,true,high,NA,NA,NA,NA,NA,NA,NA,false
CkDsWth3,3vll1pieot1c2ogsesvb4yutk6poza,3137onmdkkism06slo9s3zg0o31eg5,CkDsWth3,2020-0188,2020-05-08,10:12:05,10:34:12,NA,incomplete,195,number,1,left,Purple_Circle_Chess_2.jpg,Green_Plus_Grid_2.jpg,Red_Triangle_Chess_1.jpg,left,582.2799999732524,true,high,NA,NA,NA,NA,NA,NA,NA,false
CkDsWth3,3vll1pieot1c2ogsesvb4yutk6poza,3137onmdkkism06slo9s3zg0o31eg5,CkDsWth3,2020-0188,2020-05-08,10:12:05,10:34:12,NA,incomplete,196,number,1,left,Purple_Circle_Stripes_1.jpg,Green_Plus_Chess_1.jpg,Red_Triangle_Stripes_2.jpg,left,475.5649999715388,true,high,NA,NA,NA,NA,NA,NA,NA,false
CkDsWth3,3vll1pieot1c2ogsesvb4yutk6poza,3137onmdkkism06slo9s3zg0o31eg5,CkDsWth3,2020-0188,2020-05-08,10:12:05,10:34:12,NA,incomplete,197,number,1,left,Red_Circle_Grid_1.jpg,Purple_Star_Chess_1.jpg,Blue_Plus_Grid_2.jpg,left,494.4800001103431,true,high,NA,NA,NA,NA,NA,NA,NA,false
CkDsWth3,3vll1pieot1c2ogsesvb4yutk6poza,3137onmdkkism06slo9s3zg0o31eg5,CkDsWth3,2020-0188,2020-05-08,10:12:05,10:34:12,NA,incomplete,198,number,1,right,Red_Star_Chess_2.jpg,Purple_Triangle_Chess_3.jpg,Blue_Plus_Grid_2.jpg,right,615.2600001078099,true,high,NA,NA,NA,NA,NA,NA,NA,false
CkDsWth3,3vll1pieot1c2ogsesvb4yutk6poza,3137onmdkkism06slo9s3zg0o31eg5,CkDsWth3,2020-0188,2020-05-08,10:12:05,10:34:12,NA,incomplete,199,number,1,right,Green_Triangle_Chess_1.jpg,Blue_Circle_Chess_3.jpg,Purple_Plus_Dots_1.jpg,right,567.9549998603761,true,high,NA,NA,NA,NA,NA,NA,NA,false
CkDsWth3,3vll1pieot1c2ogsesvb4yutk6poza,3137onmdkkism06slo9s3zg0o31eg5,CkDsWth3,2020-0188,2020-05-08,10:12:05,10:34:12,NA,incomplete,200,filling,1,right,Purple_Star_Chess_3.jpg,Red_Triangle_Dots_3.jpg,Blue_Plus_Chess_4.jpg,left,633.2700001075864,false,high,NA,NA,NA,NA,NA,NA,NA,false
CkDsWth3,3vll1pieot1c2ogsesvb4yutk6poza,3137onmdkkism06slo9s3zg0o31eg5,CkDsWth3,2020-0188,2020-05-08,10:12:05,10:34:12,NA,incomplete,201,filling,1,right,Red_Star_Grid_2.jpg,Green_Triangle_Chess_2.jpg,Purple_Circle_Grid_3.jpg,left,580.4949998855591,false,high,NA,NA,NA,NA,NA,NA,NA,false
CkDsWth3,3vll1pieot1c2ogsesvb4yutk6poza,3137onmdkkism06slo9s3zg0o31eg5,CkDsWth3,2020-0188,2020-05-08,10:12:05,10:34:12,NA,incomplete,202,filling,0,right,Blue_Triangle_Dots_3.jpg,Purple_Star_Stripes_3.jpg,Green_Circle_Dots_4.jpg,right,572.2799999639392,true,high,NA,NA,NA,NA,NA,NA,NA,false
CkDsWth3,3vll1pieot1c2ogsesvb4yutk6poza,3137onmdkkism06slo9s3zg0o31eg5,CkDsWth3,2020-0188,2020-05-08,10:12:05,10:34:12,NA,incomplete,203,filling,1,left,Blue_Triangle_Dots_2.jpg,Green_Star_Dots_3.jpg,Red_Plus_Stripes_2.jpg,left,709.3049997929484,true,high,NA,NA,NA,NA,NA,NA,NA,false
CkDsWth3,3vll1pieot1c2ogsesvb4yutk6poza,3137onmdkkism06slo9s3zg0o31eg5,CkDsWth3,2020-0188,2020-05-08,10:12:05,10:34:12,NA,incomplete,204,filling,1,right,Purple_Star_Stripes_3.jpg,Green_Triangle_Dots_3.jpg,Blue_Plus_Stripes_4.jpg,right,842.1549999620765,true,high,NA,NA,NA,NA,NA,NA,NA,false
CkDsWth3,3vll1pieot1c2ogsesvb4yutk6poza,3137onmdkkism06slo9s3zg0o31eg5,CkDsWth3,2020-0188,2020-05-08,10:12:05,10:34:12,NA,incomplete,205,filling,1,left,Green_Star_Chess_4.jpg,Blue_Circle_Chess_3.jpg,Purple_Plus_Dots_4.jpg,left,690.9150001592934,true,high,NA,NA,NA,NA,NA,NA,NA,false
CkDsWth3,3vll1pieot1c2ogsesvb4yutk6poza,3137onmdkkism06slo9s3zg0o31eg5,CkDsWth3,2020-0188,2020-05-08,10:12:05,10:34:12,NA,incomplete,206,filling,0,right,Green_Triangle_Grid_2.jpg,Purple_Plus_Chess_2.jpg,Red_Star_Grid_4.jpg,left,729.9450000282377,false,high,NA,NA,NA,NA,NA,NA,NA,false
CkDsWth3,3vll1pieot1c2ogsesvb4yutk6poza,3137onmdkkism06slo9s3zg0o31eg5,CkDsWth3,2020-0188,2020-05-08,10:12:05,10:34:12,NA,incomplete,207,filling,1,left,Red_Circle_Chess_2.jpg,Green_Star_Chess_4.jpg,Blue_Plus_Dots_2.jpg,left,805.2850000094622,true,high,NA,NA,NA,NA,NA,NA,NA,false
CkDsWth3,3vll1pieot1c2ogsesvb4yutk6poza,3137onmdkkism06slo9s3zg0o31eg5,CkDsWth3,2020-0188,2020-05-08,10:12:05,10:34:12,NA,incomplete,208,filling,1,left,Green_Plus_Chess_4.jpg,Blue_Circle_Chess_3.jpg,Purple_Triangle_Stripes_4.jpg,left,681.455000070855,true,high,NA,NA,NA,NA,NA,NA,NA,false
CkDsWth3,3vll1pieot1c2ogsesvb4yutk6poza,3137onmdkkism06slo9s3zg0o31eg5,CkDsWth3,2020-0188,2020-05-08,10:12:05,10:34:12,NA,incomplete,209,filling,1,left,Green_Triangle_Chess_4.jpg,Purple_Plus_Chess_3.jpg,Red_Circle_Stripes_4.jpg,left,607.3900000192225,true,high,NA,NA,NA,NA,NA,NA,NA,false
CkDsWth3,3vll1pieot1c2ogsesvb4yutk6poza,3137onmdkkism06slo9s3zg0o31eg5,CkDsWth3,2020-0188,2020-05-08,10:12:05,10:34:12,NA,incomplete,210,filling,1,left,Red_Circle_Dots_4.jpg,Purple_Triangle_Dots_1.jpg,Green_Star_Stripes_4.jpg,left,710.2299998514354,true,high,NA,NA,NA,NA,NA,NA,NA,false
CkDsWth3,3vll1pieot1c2ogsesvb4yutk6poza,3137onmdkkism06slo9s3zg0o31eg5,CkDsWth3,2020-0188,2020-05-08,10:12:05,10:34:12,NA,incomplete,211,filling,1,left,Blue_Star_Stripes_4.jpg,Green_Triangle_Stripes_1.jpg,Red_Circle_Chess_4.jpg,left,707.4049999937415,true,high,NA,NA,NA,NA,NA,NA,NA,false
CkDsWth3,3vll1pieot1c2ogsesvb4yutk6poza,3137onmdkkism06slo9s3zg0o31eg5,CkDsWth3,2020-0188,2020-05-08,10:12:05,10:34:12,NA,incomplete,212,filling,0,left,Green_Plus_Grid_3.jpg,Blue_Triangle_Grid_4.jpg,Purple_Star_Dots_3.jpg,left,727.9000000562519,true,high,NA,NA,NA,NA,NA,NA,NA,false
CkDsWth3,3vll1pieot1c2ogsesvb4yutk6poza,3137onmdkkism06slo9s3zg0o31eg5,CkDsWth3,2020-0188,2020-05-08,10:12:05,10:34:12,NA,incomplete,213,filling,1,right,Red_Plus_Dots_4.jpg,Blue_Circle_Chess_4.jpg,Green_Triangle_Dots_1.jpg,right,545.13999982737,true,high,NA,NA,NA,NA,NA,NA,NA,false
CkDsWth3,3vll1pieot1c2ogsesvb4yutk6poza,3137onmdkkism06slo9s3zg0o31eg5,CkDsWth3,2020-0188,2020-05-08,10:12:05,10:34:12,NA,incomplete,214,filling,1,left,Red_Circle_Dots_2.jpg,Blue_Star_Dots_1.jpg,Green_Triangle_Grid_2.jpg,left,683.2699999213219,true,high,NA,NA,NA,NA,NA,NA,NA,false
CkDsWth3,3vll1pieot1c2ogsesvb4yutk6poza,3137onmdkkism06slo9s3zg0o31eg5,CkDsWth3,2020-0188,2020-05-08,10:12:05,10:34:12,NA,incomplete,215,filling,1,right,Purple_Plus_Stripes_3.jpg,Blue_Star_Grid_3.jpg,Red_Circle_Stripes_2.jpg,right,826.969999819994,true,high,NA,NA,NA,NA,NA,NA,NA,false
CkDsWth3,3vll1pieot1c2ogsesvb4yutk6poza,3137onmdkkism06slo9s3zg0o31eg5,CkDsWth3,2020-0188,2020-05-08,10:12:05,10:34:12,NA,incomplete,216,filling,1,left,Green_Star_Grid_4.jpg,Red_Circle_Grid_2.jpg,Purple_Triangle_Chess_4.jpg,right,614.7000000346452,false,high,NA,NA,NA,NA,NA,NA,NA,false
CkDsWth3,3vll1pieot1c2ogsesvb4yutk6poza,3137onmdkkism06slo9s3zg0o31eg5,CkDsWth3,2020-0188,2020-05-08,10:12:05,10:34:12,NA,incomplete,217,filling,1,left,Green_Star_Dots_4.jpg,Red_Triangle_Dots_1.jpg,Purple_Plus_Stripes_4.jpg,left,561.1199999693781,true,high,NA,NA,NA,NA,NA,NA,NA,false
CkDsWth3,3vll1pieot1c2ogsesvb4yutk6poza,3137onmdkkism06slo9s3zg0o31eg5,CkDsWth3,2020-0188,2020-05-08,10:12:05,10:34:12,NA,incomplete,218,filling,0,right,Green_Plus_Grid_2.jpg,Red_Circle_Chess_2.jpg,Blue_Triangle_Grid_1.jpg,left,531.1300000175834,false,high,NA,NA,NA,NA,NA,NA,NA,false
CkDsWth3,3vll1pieot1c2ogsesvb4yutk6poza,3137onmdkkism06slo9s3zg0o31eg5,CkDsWth3,2020-0188,2020-05-08,10:12:05,10:34:12,NA,incomplete,219,filling,1,right,Blue_Plus_Chess_1.jpg,Red_Star_Stripes_1.jpg,Purple_Circle_Chess_2.jpg,right,705.8149999938905,true,high,NA,NA,NA,NA,NA,NA,NA,false
CkDsWth3,3vll1pieot1c2ogsesvb4yutk6poza,3137onmdkkism06slo9s3zg0o31eg5,CkDsWth3,2020-0188,2020-05-08,10:12:05,10:34:12,NA,incomplete,220,number,0,right,Red_Plus_Grid_3.jpg,Green_Circle_Grid_2.jpg,Purple_Star_Stripes_3.jpg,left,642.2699999529868,false,high,NA,NA,NA,NA,NA,NA,NA,false
CkDsWth3,3vll1pieot1c2ogsesvb4yutk6poza,3137onmdkkism06slo9s3zg0o31eg5,CkDsWth3,2020-0188,2020-05-08,10:12:05,10:34:12,NA,incomplete,221,number,1,left,Purple_Circle_Grid_4.jpg,Green_Star_Stripes_4.jpg,Blue_Triangle_Grid_2.jpg,right,682.0000000298023,false,high,NA,NA,NA,NA,NA,NA,NA,false
CkDsWth3,3vll1pieot1c2ogsesvb4yutk6poza,3137onmdkkism06slo9s3zg0o31eg5,CkDsWth3,2020-0188,2020-05-08,10:12:05,10:34:12,NA,incomplete,222,number,1,right,Green_Triangle_Grid_3.jpg,Red_Plus_Grid_2.jpg,Purple_Circle_Chess_3.jpg,left,688.2700000423938,false,high,NA,NA,NA,NA,NA,NA,NA,false
CkDsWth3,3vll1pieot1c2ogsesvb4yutk6poza,3137onmdkkism06slo9s3zg0o31eg5,CkDsWth3,2020-0188,2020-05-08,10:12:05,10:34:12,NA,incomplete,223,number,0,left,Green_Star_Chess_1.jpg,Red_Plus_Grid_1.jpg,Purple_Triangle_Chess_3.jpg,left,505.21499989554286,true,high,NA,NA,NA,NA,NA,NA,NA,false
CkDsWth3,3vll1pieot1c2ogsesvb4yutk6poza,3137onmdkkism06slo9s3zg0o31eg5,CkDsWth3,2020-0188,2020-05-08,10:12:05,10:34:12,NA,incomplete,224,number,1,left,Purple_Star_Dots_4.jpg,Green_Plus_Chess_4.jpg,Red_Triangle_Dots_2.jpg,left,512.9850001540035,true,high,NA,NA,NA,NA,NA,NA,NA,false
CkDsWth3,3vll1pieot1c2ogsesvb4yutk6poza,3137onmdkkism06slo9s3zg0o31eg5,CkDsWth3,2020-0188,2020-05-08,10:12:05,10:34:12,NA,incomplete,225,number,0,right,Red_Star_Stripes_4.jpg,Blue_Circle_Stripes_3.jpg,Purple_Triangle_Grid_4.jpg,left,814.3649999983609,false,high,NA,NA,NA,NA,NA,NA,NA,false
CkDsWth3,3vll1pieot1c2ogsesvb4yutk6poza,3137onmdkkism06slo9s3zg0o31eg5,CkDsWth3,2020-0188,2020-05-08,10:12:05,10:34:12,NA,incomplete,226,number,1,left,Purple_Plus_Dots_2.jpg,Green_Triangle_Stripes_2.jpg,Red_Star_Dots_3.jpg,left,628.2250001095235,true,high,NA,NA,NA,NA,NA,NA,NA,false
CkDsWth3,3vll1pieot1c2ogsesvb4yutk6poza,3137onmdkkism06slo9s3zg0o31eg5,CkDsWth3,2020-0188,2020-05-08,10:12:05,10:34:12,NA,incomplete,227,number,1,left,Blue_Triangle_Stripes_4.jpg,Purple_Circle_Grid_4.jpg,Red_Plus_Stripes_2.jpg,left,595.4450001008809,true,high,NA,NA,NA,NA,NA,NA,NA,false
CkDsWth3,3vll1pieot1c2ogsesvb4yutk6poza,3137onmdkkism06slo9s3zg0o31eg5,CkDsWth3,2020-0188,2020-05-08,10:12:05,10:34:12,NA,incomplete,228,number,1,left,Blue_Triangle_Chess_1.jpg,Red_Star_Grid_1.jpg,Purple_Plus_Chess_2.jpg,left,496.16999994032085,true,high,NA,NA,NA,NA,NA,NA,NA,false
CkDsWth3,3vll1pieot1c2ogsesvb4yutk6poza,3137onmdkkism06slo9s3zg0o31eg5,CkDsWth3,2020-0188,2020-05-08,10:12:05,10:34:12,NA,incomplete,229,number,1,right,Green_Plus_Chess_1.jpg,Red_Star_Chess_4.jpg,Purple_Circle_Dots_1.jpg,right,499.22499991953373,true,high,NA,NA,NA,NA,NA,NA,NA,false
CkDsWth3,3vll1pieot1c2ogsesvb4yutk6poza,3137onmdkkism06slo9s3zg0o31eg5,CkDsWth3,2020-0188,2020-05-08,10:12:05,10:34:12,NA,incomplete,230,number,1,right,Red_Plus_Stripes_1.jpg,Blue_Star_Stripes_4.jpg,Green_Triangle_Dots_1.jpg,right,472.1099999733269,true,high,NA,NA,NA,NA,NA,NA,NA,false
CkDsWth3,3vll1pieot1c2ogsesvb4yutk6poza,3137onmdkkism06slo9s3zg0o31eg5,CkDsWth3,2020-0188,2020-05-08,10:12:05,10:34:12,NA,incomplete,231,number,0,right,Red_Circle_Grid_4.jpg,Green_Plus_Grid_2.jpg,Purple_Star_Chess_4.jpg,right,608.0950000323355,true,high,NA,NA,NA,NA,NA,NA,NA,false
CkDsWth3,3vll1pieot1c2ogsesvb4yutk6poza,3137onmdkkism06slo9s3zg0o31eg5,CkDsWth3,2020-0188,2020-05-08,10:12:05,10:34:12,NA,incomplete,232,number,1,right,Green_Star_Dots_2.jpg,Purple_Circle_Dots_1.jpg,Blue_Triangle_Grid_2.jpg,right,722.1150000113994,true,high,NA,NA,NA,NA,NA,NA,NA,false
CkDsWth3,3vll1pieot1c2ogsesvb4yutk6poza,3137onmdkkism06slo9s3zg0o31eg5,CkDsWth3,2020-0188,2020-05-08,10:12:05,10:34:12,NA,incomplete,233,number,1,right,Green_Circle_Stripes_1.jpg,Blue_Plus_Stripes_2.jpg,Purple_Triangle_Grid_1.jpg,right,546.9049999956042,true,high,NA,NA,NA,NA,NA,NA,NA,false
CkDsWth3,3vll1pieot1c2ogsesvb4yutk6poza,3137onmdkkism06slo9s3zg0o31eg5,CkDsWth3,2020-0188,2020-05-08,10:12:05,10:34:12,NA,incomplete,234,number,1,left,Red_Star_Grid_2.jpg,Purple_Triangle_Chess_2.jpg,Green_Plus_Grid_4.jpg,left,549.5299999602139,true,high,NA,NA,NA,NA,NA,NA,NA,false
CkDsWth3,3vll1pieot1c2ogsesvb4yutk6poza,3137onmdkkism06slo9s3zg0o31eg5,CkDsWth3,2020-0188,2020-05-08,10:12:05,10:34:12,NA,incomplete,235,number,1,right,Red_Triangle_Grid_1.jpg,Green_Circle_Grid_2.jpg,Purple_Star_Chess_1.jpg,right,613.9599999878556,true,high,NA,NA,NA,NA,NA,NA,NA,false
CkDsWth3,3vll1pieot1c2ogsesvb4yutk6poza,3137onmdkkism06slo9s3zg0o31eg5,CkDsWth3,2020-0188,2020-05-08,10:12:05,10:34:12,NA,incomplete,236,number,0,left,Purple_Plus_Stripes_2.jpg,Blue_Circle_Dots_2.jpg,Green_Triangle_Stripes_1.jpg,left,604.3400000780821,true,high,NA,NA,NA,NA,NA,NA,NA,false
CkDsWth3,3vll1pieot1c2ogsesvb4yutk6poza,3137onmdkkism06slo9s3zg0o31eg5,CkDsWth3,2020-0188,2020-05-08,10:12:05,10:34:12,NA,incomplete,237,number,1,right,Green_Star_Stripes_4.jpg,Red_Circle_Stripes_2.jpg,Blue_Triangle_Dots_4.jpg,right,489.14499999955297,true,high,NA,NA,NA,NA,NA,NA,NA,false
CkDsWth3,3vll1pieot1c2ogsesvb4yutk6poza,3137onmdkkism06slo9s3zg0o31eg5,CkDsWth3,2020-0188,2020-05-08,10:12:05,10:34:12,NA,incomplete,238,number,1,right,Green_Star_Stripes_2.jpg,Red_Triangle_Stripes_4.jpg,Purple_Plus_Dots_2.jpg,right,592.2099999152124,true,high,NA,NA,NA,NA,NA,NA,NA,false
CkDsWth3,3vll1pieot1c2ogsesvb4yutk6poza,3137onmdkkism06slo9s3zg0o31eg5,CkDsWth3,2020-0188,2020-05-08,10:12:05,10:34:12,NA,incomplete,239,number,1,right,Red_Star_Stripes_1.jpg,Blue_Circle_Stripes_3.jpg,Green_Plus_Chess_1.jpg,right,485.36500008776784,true,high,NA,NA,NA,NA,NA,NA,NA,false
CkDsWth3,3vll1pieot1c2ogsesvb4yutk6poza,3137onmdkkism06slo9s3zg0o31eg5,CkDsWth3,2020-0188,2020-05-08,10:12:05,10:34:12,1281134.1600001324,1327012.5200001057,NA,NA,NA,NA,NA,NA,NA,NA,NA,NA,NA,49,White/Caucasian,Male,German,no,yes,no,undefined
