workerId,hitId,assignmentId,subject,studyid,exp_date,exp_start,exp_end,time_start,time_end,trial,type,reward_validity,answer,image_top,image_left,image_right,response,response_time,response_acc,volatility,age,race,gender,ethnicity,color,vision,neuro,practice
QJ6cW9mL,33cla8o0nlo9ukh858i8v1jgjoffrm,31ibvunm9wc3abwj5uskli4anjzfv8,QJ6cW9mL,2020-0188,2020-05-08,11:12:34,11:43:00,NA,incomplete,0,color,1,left,Purple_Star_Chess_2.jpg,Purple_Circle_Stripes_3.jpg,Blue_Star_Grid_4.jpg,right,1063.9199998695403,false,NA,NA,NA,NA,NA,NA,NA,NA,true
QJ6cW9mL,33cla8o0nlo9ukh858i8v1jgjoffrm,31ibvunm9wc3abwj5uskli4anjzfv8,QJ6cW9mL,2020-0188,2020-05-08,11:12:34,11:43:00,NA,incomplete,1,color,1,right,Blue_Circle_Dots_1.jpg,Red_Circle_Chess_4.jpg,Blue_Plus_Stripes_2.jpg,right,894.4800000172108,true,NA,NA,NA,NA,NA,NA,NA,NA,true
QJ6cW9mL,33cla8o0nlo9ukh858i8v1jgjoffrm,31ibvunm9wc3abwj5uskli4anjzfv8,QJ6cW9mL,2020-0188,2020-05-08,11:12:34,11:43:00,NA,incomplete,2,color,0,left,Blue_Circle_Grid_1.jpg,Blue_Star_Stripes_3.jpg,Purple_Circle_Chess_2.jpg,left,801.2900000903755,true,NA,NA,NA,NA,NA,NA,NA,NA,true
QJ6cW9mL,33cla8o0nlo9ukh858i8v1jgjoffrm,31ibvunm9wc3abwj5uskli4anjzfv8,QJ6cW9mL,2020-0188,2020-05-08,11:12:34,11:43:00,NA,incomplete,3,color,1,left,Purple_Star_Grid_3.jpg,Purple_Triangle_Dots_1.jpg,Red_Star_Stripes_4.jpg,left,1067.479999968782,true,NA,NA,NA,NA,NA,NA,NA,NA,true
QJ6cW9mL,33cla8o0nlo9ukh858i8v1jgjoffrm,31ibvunm9wc3abwj5uskli4anjzfv8,QJ6cW9mL,2020-0188,2020-05-08,11:12:34,11:43:00,NA,incomplete,4,color,0,right,Blue_Plus_Grid_3.jpg,Red_Plus_Dots_2.jpg,Blue_Star_Stripes_1.jpg,right,969.2350002005696,true,NA,NA,NA,NA,NA,NA,NA,NA,true
QJ6cW9mL,33cla8o0nlo9ukh858i8v1jgjoffrm,31ibvunm9wc3abwj5uskli4anjzfv8,QJ6cW9mL,2020-0188,2020-05-08,11:12:34,11:43:00,NA,incomplete,5,color,1,left,Blue_Triangle_Dots_2.jpg,Blue_Plus_Chess_4.jpg,Purple_Triangle_Grid_1.jpg,left,974.174999864772,true,NA,NA,NA,NA,NA,NA,NA,NA,true
QJ6cW9mL,33cla8o0nlo9ukh858i8v1jgjoffrm,31ibvunm9wc3abwj5uskli4anjzfv8,QJ6cW9mL,2020-0188,2020-05-08,11:12:34,11:43:00,NA,incomplete,6,color,1,right,Red_Circle_Dots_1.jpg,Purple_Circle_Stripes_3.jpg,Red_Plus_Chess_2.jpg,left,1099.3900001049042,false,NA,NA,NA,NA,NA,NA,NA,NA,true
QJ6cW9mL,33cla8o0nlo9ukh858i8v1jgjoffrm,31ibvunm9wc3abwj5uskli4anjzfv8,QJ6cW9mL,2020-0188,2020-05-08,11:12:34,11:43:00,NA,incomplete,7,color,1,left,Green_Triangle_Stripes_2.jpg,Green_Plus_Chess_4.jpg,Blue_Triangle_Grid_1.jpg,left,655.4650000762194,true,NA,NA,NA,NA,NA,NA,NA,NA,true
QJ6cW9mL,33cla8o0nlo9ukh858i8v1jgjoffrm,31ibvunm9wc3abwj5uskli4anjzfv8,QJ6cW9mL,2020-0188,2020-05-08,11:12:34,11:43:00,NA,incomplete,8,color,1,left,Purple_Triangle_Grid_4.jpg,Purple_Star_Chess_2.jpg,Blue_Triangle_Dots_3.jpg,left,985.8899998944253,true,NA,NA,NA,NA,NA,NA,NA,NA,true
QJ6cW9mL,33cla8o0nlo9ukh858i8v1jgjoffrm,31ibvunm9wc3abwj5uskli4anjzfv8,QJ6cW9mL,2020-0188,2020-05-08,11:12:34,11:43:00,NA,incomplete,9,color,1,right,Blue_Plus_Chess_3.jpg,Red_Plus_Stripes_1.jpg,Blue_Triangle_Grid_2.jpg,right,998.0599998962134,true,NA,NA,NA,NA,NA,NA,NA,NA,true
QJ6cW9mL,33cla8o0nlo9ukh858i8v1jgjoffrm,31ibvunm9wc3abwj5uskli4anjzfv8,QJ6cW9mL,2020-0188,2020-05-08,11:12:34,11:43:00,NA,incomplete,10,color,1,left,Purple_Triangle_Stripes_1.jpg,Purple_Plus_Chess_2.jpg,Blue_Triangle_Grid_3.jpg,left,980.0699998158962,true,NA,NA,NA,NA,NA,NA,NA,NA,true
QJ6cW9mL,33cla8o0nlo9ukh858i8v1jgjoffrm,31ibvunm9wc3abwj5uskli4anjzfv8,QJ6cW9mL,2020-0188,2020-05-08,11:12:34,11:43:00,NA,incomplete,11,color,1,left,Red_Star_Chess_4.jpg,Red_Plus_Grid_2.jpg,Blue_Star_Stripes_3.jpg,left,784.1399998869747,true,NA,NA,NA,NA,NA,NA,NA,NA,true
QJ6cW9mL,33cla8o0nlo9ukh858i8v1jgjoffrm,31ibvunm9wc3abwj5uskli4anjzfv8,QJ6cW9mL,2020-0188,2020-05-08,11:12:34,11:43:00,NA,incomplete,12,color,1,left,Red_Star_Dots_2.jpg,Red_Circle_Stripes_1.jpg,Purple_Star_Chess_3.jpg,left,845.9250000305474,true,NA,NA,NA,NA,NA,NA,NA,NA,true
QJ6cW9mL,33cla8o0nlo9ukh858i8v1jgjoffrm,31ibvunm9wc3abwj5uskli4anjzfv8,QJ6cW9mL,2020-0188,2020-05-08,11:12:34,11:43:00,NA,incomplete,13,color,0,left,Green_Star_Chess_3.jpg,Green_Circle_Stripes_1.jpg,Blue_Star_Dots_4.jpg,left,729.4050001073629,true,NA,NA,NA,NA,NA,NA,NA,NA,true
QJ6cW9mL,33cla8o0nlo9ukh858i8v1jgjoffrm,31ibvunm9wc3abwj5uskli4anjzfv8,QJ6cW9mL,2020-0188,2020-05-08,11:12:34,11:43:00,NA,incomplete,14,color,1,right,Green_Triangle_Stripes_3.jpg,Purple_Triangle_Chess_1.jpg,Green_Plus_Grid_2.jpg,right,686.8000000249594,true,NA,NA,NA,NA,NA,NA,NA,NA,true
QJ6cW9mL,33cla8o0nlo9ukh858i8v1jgjoffrm,31ibvunm9wc3abwj5uskli4anjzfv8,QJ6cW9mL,2020-0188,2020-05-08,11:12:34,11:43:00,NA,incomplete,15,color,1,right,Green_Triangle_Chess_1.jpg,Purple_Triangle_Stripes_4.jpg,Green_Circle_Grid_3.jpg,right,778.8050000090152,true,NA,NA,NA,NA,NA,NA,NA,NA,true
QJ6cW9mL,33cla8o0nlo9ukh858i8v1jgjoffrm,31ibvunm9wc3abwj5uskli4anjzfv8,QJ6cW9mL,2020-0188,2020-05-08,11:12:34,11:43:00,NA,incomplete,16,color,1,right,Purple_Triangle_Dots_2.jpg,Green_Triangle_Chess_4.jpg,Purple_Circle_Grid_1.jpg,right,922.9200000409037,true,NA,NA,NA,NA,NA,NA,NA,NA,true
QJ6cW9mL,33cla8o0nlo9ukh858i8v1jgjoffrm,31ibvunm9wc3abwj5uskli4anjzfv8,QJ6cW9mL,2020-0188,2020-05-08,11:12:34,11:43:00,NA,incomplete,17,color,1,left,Red_Triangle_Stripes_1.jpg,Red_Star_Chess_4.jpg,Blue_Triangle_Grid_3.jpg,left,701.9100000616163,true,NA,NA,NA,NA,NA,NA,NA,NA,true
QJ6cW9mL,33cla8o0nlo9ukh858i8v1jgjoffrm,31ibvunm9wc3abwj5uskli4anjzfv8,QJ6cW9mL,2020-0188,2020-05-08,11:12:34,11:43:00,NA,incomplete,18,color,0,left,Purple_Circle_Grid_1.jpg,Purple_Star_Stripes_4.jpg,Red_Circle_Dots_2.jpg,left,751.0899999178946,true,NA,NA,NA,NA,NA,NA,NA,NA,true
QJ6cW9mL,33cla8o0nlo9ukh858i8v1jgjoffrm,31ibvunm9wc3abwj5uskli4anjzfv8,QJ6cW9mL,2020-0188,2020-05-08,11:12:34,11:43:00,NA,incomplete,19,color,1,right,Green_Plus_Chess_3.jpg,Red_Plus_Dots_4.jpg,Green_Circle_Stripes_1.jpg,right,661.4349998999387,true,NA,NA,NA,NA,NA,NA,NA,NA,true
QJ6cW9mL,33cla8o0nlo9ukh858i8v1jgjoffrm,31ibvunm9wc3abwj5uskli4anjzfv8,QJ6cW9mL,2020-0188,2020-05-08,11:12:34,11:43:00,NA,incomplete,20,shape,1,right,Purple_Star_Grid_3.jpg,Purple_Triangle_Dots_1.jpg,Green_Star_Stripes_2.jpg,right,832.2499999776483,true,NA,NA,NA,NA,NA,NA,NA,NA,true
QJ6cW9mL,33cla8o0nlo9ukh858i8v1jgjoffrm,31ibvunm9wc3abwj5uskli4anjzfv8,QJ6cW9mL,2020-0188,2020-05-08,11:12:34,11:43:00,NA,incomplete,21,shape,1,left,Green_Circle_Chess_3.jpg,Blue_Circle_Dots_4.jpg,Green_Star_Stripes_2.jpg,left,710.7799998484552,true,NA,NA,NA,NA,NA,NA,NA,NA,true
QJ6cW9mL,33cla8o0nlo9ukh858i8v1jgjoffrm,31ibvunm9wc3abwj5uskli4anjzfv8,QJ6cW9mL,2020-0188,2020-05-08,11:12:34,11:43:00,NA,incomplete,22,shape,1,right,Purple_Star_Chess_2.jpg,Purple_Plus_Dots_1.jpg,Blue_Star_Grid_3.jpg,right,500.96500013023615,true,NA,NA,NA,NA,NA,NA,NA,NA,true
QJ6cW9mL,33cla8o0nlo9ukh858i8v1jgjoffrm,31ibvunm9wc3abwj5uskli4anjzfv8,QJ6cW9mL,2020-0188,2020-05-08,11:12:34,11:43:00,NA,incomplete,23,shape,0,right,Blue_Star_Grid_2.jpg,Blue_Circle_Stripes_1.jpg,Purple_Star_Chess_3.jpg,right,636.47500006482,true,NA,NA,NA,NA,NA,NA,NA,NA,true
QJ6cW9mL,33cla8o0nlo9ukh858i8v1jgjoffrm,31ibvunm9wc3abwj5uskli4anjzfv8,QJ6cW9mL,2020-0188,2020-05-08,11:12:34,11:43:00,NA,incomplete,24,shape,1,left,Red_Triangle_Stripes_1.jpg,Blue_Triangle_Chess_2.jpg,Red_Star_Grid_4.jpg,left,649.1750001441687,true,NA,NA,NA,NA,NA,NA,NA,NA,true
QJ6cW9mL,33cla8o0nlo9ukh858i8v1jgjoffrm,31ibvunm9wc3abwj5uskli4anjzfv8,QJ6cW9mL,2020-0188,2020-05-08,11:12:34,11:43:00,NA,incomplete,25,shape,1,right,Red_Triangle_Chess_2.jpg,Red_Circle_Stripes_1.jpg,Blue_Triangle_Dots_3.jpg,right,730.6150000076741,true,NA,NA,NA,NA,NA,NA,NA,NA,true
QJ6cW9mL,33cla8o0nlo9ukh858i8v1jgjoffrm,31ibvunm9wc3abwj5uskli4anjzfv8,QJ6cW9mL,2020-0188,2020-05-08,11:12:34,11:43:00,NA,incomplete,26,shape,1,right,Green_Circle_Chess_1.jpg,Green_Plus_Stripes_4.jpg,Red_Circle_Grid_3.jpg,right,594.1200000233948,true,NA,NA,NA,NA,NA,NA,NA,NA,true
QJ6cW9mL,33cla8o0nlo9ukh858i8v1jgjoffrm,31ibvunm9wc3abwj5uskli4anjzfv8,QJ6cW9mL,2020-0188,2020-05-08,11:12:34,11:43:00,NA,incomplete,27,shape,0,right,Blue_Triangle_Stripes_3.jpg,Blue_Star_Dots_2.jpg,Purple_Triangle_Grid_1.jpg,right,771.330000134185,true,NA,NA,NA,NA,NA,NA,NA,NA,true
QJ6cW9mL,33cla8o0nlo9ukh858i8v1jgjoffrm,31ibvunm9wc3abwj5uskli4anjzfv8,QJ6cW9mL,2020-0188,2020-05-08,11:12:34,11:43:00,NA,incomplete,28,shape,1,right,Purple_Circle_Stripes_1.jpg,Purple_Plus_Grid_4.jpg,Red_Circle_Chess_2.jpg,right,540.3150001075119,true,NA,NA,NA,NA,NA,NA,NA,NA,true
QJ6cW9mL,33cla8o0nlo9ukh858i8v1jgjoffrm,31ibvunm9wc3abwj5uskli4anjzfv8,QJ6cW9mL,2020-0188,2020-05-08,11:12:34,11:43:00,NA,incomplete,29,shape,1,left,Red_Star_Grid_3.jpg,Blue_Star_Stripes_1.jpg,Red_Plus_Chess_2.jpg,left,601.7899999860674,true,NA,NA,NA,NA,NA,NA,NA,NA,true
QJ6cW9mL,33cla8o0nlo9ukh858i8v1jgjoffrm,31ibvunm9wc3abwj5uskli4anjzfv8,QJ6cW9mL,2020-0188,2020-05-08,11:12:34,11:43:00,NA,incomplete,30,shape,1,right,Red_Circle_Stripes_2.jpg,Red_Star_Grid_4.jpg,Blue_Circle_Dots_3.jpg,right,487.51999996602535,true,NA,NA,NA,NA,NA,NA,NA,NA,true
QJ6cW9mL,33cla8o0nlo9ukh858i8v1jgjoffrm,31ibvunm9wc3abwj5uskli4anjzfv8,QJ6cW9mL,2020-0188,2020-05-08,11:12:34,11:43:00,NA,incomplete,31,shape,0,right,Blue_Star_Grid_3.jpg,Blue_Circle_Stripes_4.jpg,Purple_Star_Dots_2.jpg,right,474.7250000946224,true,NA,NA,NA,NA,NA,NA,NA,NA,true
QJ6cW9mL,33cla8o0nlo9ukh858i8v1jgjoffrm,31ibvunm9wc3abwj5uskli4anjzfv8,QJ6cW9mL,2020-0188,2020-05-08,11:12:34,11:43:00,NA,incomplete,32,shape,0,left,Purple_Circle_Chess_4.jpg,Red_Circle_Stripes_1.jpg,Purple_Star_Grid_3.jpg,left,528.2699998933822,true,NA,NA,NA,NA,NA,NA,NA,NA,true
QJ6cW9mL,33cla8o0nlo9ukh858i8v1jgjoffrm,31ibvunm9wc3abwj5uskli4anjzfv8,QJ6cW9mL,2020-0188,2020-05-08,11:12:34,11:43:00,NA,incomplete,33,shape,1,left,Green_Circle_Chess_2.jpg,Purple_Circle_Dots_3.jpg,Green_Plus_Grid_4.jpg,right,718.1150000542402,false,NA,NA,NA,NA,NA,NA,NA,NA,true
QJ6cW9mL,33cla8o0nlo9ukh858i8v1jgjoffrm,31ibvunm9wc3abwj5uskli4anjzfv8,QJ6cW9mL,2020-0188,2020-05-08,11:12:34,11:43:00,NA,incomplete,34,shape,1,right,Purple_Triangle_Grid_1.jpg,Purple_Plus_Dots_2.jpg,Green_Triangle_Chess_4.jpg,right,546.1200000718236,true,NA,NA,NA,NA,NA,NA,NA,NA,true
QJ6cW9mL,33cla8o0nlo9ukh858i8v1jgjoffrm,31ibvunm9wc3abwj5uskli4anjzfv8,QJ6cW9mL,2020-0188,2020-05-08,11:12:34,11:43:00,NA,incomplete,35,shape,1,right,Green_Plus_Dots_4.jpg,Green_Triangle_Chess_1.jpg,Blue_Plus_Grid_2.jpg,right,562.849999871105,true,NA,NA,NA,NA,NA,NA,NA,NA,true
QJ6cW9mL,33cla8o0nlo9ukh858i8v1jgjoffrm,31ibvunm9wc3abwj5uskli4anjzfv8,QJ6cW9mL,2020-0188,2020-05-08,11:12:34,11:43:00,NA,incomplete,36,shape,1,left,Green_Circle_Grid_3.jpg,Red_Circle_Stripes_4.jpg,Green_Triangle_Dots_2.jpg,left,579.0699999779463,true,NA,NA,NA,NA,NA,NA,NA,NA,true
QJ6cW9mL,33cla8o0nlo9ukh858i8v1jgjoffrm,31ibvunm9wc3abwj5uskli4anjzfv8,QJ6cW9mL,2020-0188,2020-05-08,11:12:34,11:43:00,NA,incomplete,37,shape,1,left,Red_Star_Grid_3.jpg,Blue_Star_Chess_2.jpg,Red_Triangle_Dots_4.jpg,left,561.9749999605119,true,NA,NA,NA,NA,NA,NA,NA,NA,true
QJ6cW9mL,33cla8o0nlo9ukh858i8v1jgjoffrm,31ibvunm9wc3abwj5uskli4anjzfv8,QJ6cW9mL,2020-0188,2020-05-08,11:12:34,11:43:00,NA,incomplete,38,shape,1,left,Blue_Plus_Stripes_1.jpg,Purple_Plus_Chess_4.jpg,Blue_Triangle_Grid_2.jpg,left,578.9949998725206,true,NA,NA,NA,NA,NA,NA,NA,NA,true
QJ6cW9mL,33cla8o0nlo9ukh858i8v1jgjoffrm,31ibvunm9wc3abwj5uskli4anjzfv8,QJ6cW9mL,2020-0188,2020-05-08,11:12:34,11:43:00,NA,incomplete,39,shape,1,right,Red_Circle_Stripes_3.jpg,Red_Triangle_Grid_4.jpg,Green_Circle_Dots_1.jpg,right,556.7799999844283,true,NA,NA,NA,NA,NA,NA,NA,NA,true
QJ6cW9mL,33cla8o0nlo9ukh858i8v1jgjoffrm,31ibvunm9wc3abwj5uskli4anjzfv8,QJ6cW9mL,2020-0188,2020-05-08,11:12:34,11:43:00,NA,incomplete,0,color,1,left,Green_Triangle_Stripes_3.jpg,Green_Plus_Chess_2.jpg,Red_Triangle_Grid_4.jpg,right,1393.0199998430908,false,low,NA,NA,NA,NA,NA,NA,NA,false
QJ6cW9mL,33cla8o0nlo9ukh858i8v1jgjoffrm,31ibvunm9wc3abwj5uskli4anjzfv8,QJ6cW9mL,2020-0188,2020-05-08,11:12:34,11:43:00,NA,incomplete,1,color,1,left,Purple_Star_Grid_3.jpg,Purple_Plus_Chess_2.jpg,Blue_Star_Dots_1.jpg,right,620.9550001658499,false,low,NA,NA,NA,NA,NA,NA,NA,false
QJ6cW9mL,33cla8o0nlo9ukh858i8v1jgjoffrm,31ibvunm9wc3abwj5uskli4anjzfv8,QJ6cW9mL,2020-0188,2020-05-08,11:12:34,11:43:00,NA,incomplete,2,color,1,right,Purple_Circle_Dots_4.jpg,Red_Circle_Stripes_2.jpg,Purple_Triangle_Grid_1.jpg,left,580.1399999763817,false,low,NA,NA,NA,NA,NA,NA,NA,false
QJ6cW9mL,33cla8o0nlo9ukh858i8v1jgjoffrm,31ibvunm9wc3abwj5uskli4anjzfv8,QJ6cW9mL,2020-0188,2020-05-08,11:12:34,11:43:00,NA,incomplete,3,color,0,right,Blue_Plus_Dots_1.jpg,Red_Plus_Chess_3.jpg,Blue_Circle_Grid_4.jpg,right,669.4799999240786,true,low,NA,NA,NA,NA,NA,NA,NA,false
QJ6cW9mL,33cla8o0nlo9ukh858i8v1jgjoffrm,31ibvunm9wc3abwj5uskli4anjzfv8,QJ6cW9mL,2020-0188,2020-05-08,11:12:34,11:43:00,NA,incomplete,4,color,0,right,Green_Circle_Chess_1.jpg,Red_Circle_Stripes_2.jpg,Green_Triangle_Dots_4.jpg,right,586.7349999025464,true,low,NA,NA,NA,NA,NA,NA,NA,false
QJ6cW9mL,33cla8o0nlo9ukh858i8v1jgjoffrm,31ibvunm9wc3abwj5uskli4anjzfv8,QJ6cW9mL,2020-0188,2020-05-08,11:12:34,11:43:00,NA,incomplete,5,color,1,left,Blue_Triangle_Grid_4.jpg,Blue_Star_Stripes_2.jpg,Purple_Triangle_Chess_3.jpg,right,769.1699999850243,false,low,NA,NA,NA,NA,NA,NA,NA,false
QJ6cW9mL,33cla8o0nlo9ukh858i8v1jgjoffrm,31ibvunm9wc3abwj5uskli4anjzfv8,QJ6cW9mL,2020-0188,2020-05-08,11:12:34,11:43:00,NA,incomplete,6,color,1,left,Purple_Star_Chess_4.jpg,Purple_Triangle_Dots_1.jpg,Blue_Star_Grid_2.jpg,right,623.17999987863,false,low,NA,NA,NA,NA,NA,NA,NA,false
QJ6cW9mL,33cla8o0nlo9ukh858i8v1jgjoffrm,31ibvunm9wc3abwj5uskli4anjzfv8,QJ6cW9mL,2020-0188,2020-05-08,11:12:34,11:43:00,NA,incomplete,7,color,0,right,Purple_Star_Dots_3.jpg,Green_Star_Grid_1.jpg,Purple_Plus_Stripes_2.jpg,right,792.9299999959767,true,low,NA,NA,NA,NA,NA,NA,NA,false
QJ6cW9mL,33cla8o0nlo9ukh858i8v1jgjoffrm,31ibvunm9wc3abwj5uskli4anjzfv8,QJ6cW9mL,2020-0188,2020-05-08,11:12:34,11:43:00,NA,incomplete,8,color,0,right,Purple_Star_Dots_4.jpg,Blue_Star_Stripes_1.jpg,Purple_Plus_Grid_3.jpg,left,848.8600000273436,false,low,NA,NA,NA,NA,NA,NA,NA,false
QJ6cW9mL,33cla8o0nlo9ukh858i8v1jgjoffrm,31ibvunm9wc3abwj5uskli4anjzfv8,QJ6cW9mL,2020-0188,2020-05-08,11:12:34,11:43:00,NA,incomplete,9,color,1,right,Purple_Plus_Stripes_4.jpg,Red_Plus_Grid_3.jpg,Purple_Star_Dots_2.jpg,right,600.5249998997897,true,low,NA,NA,NA,NA,NA,NA,NA,false
QJ6cW9mL,33cla8o0nlo9ukh858i8v1jgjoffrm,31ibvunm9wc3abwj5uskli4anjzfv8,QJ6cW9mL,2020-0188,2020-05-08,11:12:34,11:43:00,NA,incomplete,10,color,1,left,Red_Circle_Chess_2.jpg,Red_Star_Stripes_3.jpg,Purple_Circle_Dots_1.jpg,right,832.1650000289083,false,low,NA,NA,NA,NA,NA,NA,NA,false
QJ6cW9mL,33cla8o0nlo9ukh858i8v1jgjoffrm,31ibvunm9wc3abwj5uskli4anjzfv8,QJ6cW9mL,2020-0188,2020-05-08,11:12:34,11:43:00,NA,incomplete,11,color,1,right,Purple_Triangle_Chess_2.jpg,Blue_Triangle_Grid_3.jpg,Purple_Plus_Stripes_4.jpg,left,705.6549999397248,false,low,NA,NA,NA,NA,NA,NA,NA,false
QJ6cW9mL,33cla8o0nlo9ukh858i8v1jgjoffrm,31ibvunm9wc3abwj5uskli4anjzfv8,QJ6cW9mL,2020-0188,2020-05-08,11:12:34,11:43:00,NA,incomplete,12,color,1,left,Green_Triangle_Dots_1.jpg,Green_Plus_Chess_3.jpg,Purple_Triangle_Grid_2.jpg,left,494.9650000780821,true,low,NA,NA,NA,NA,NA,NA,NA,false
QJ6cW9mL,33cla8o0nlo9ukh858i8v1jgjoffrm,31ibvunm9wc3abwj5uskli4anjzfv8,QJ6cW9mL,2020-0188,2020-05-08,11:12:34,11:43:00,NA,incomplete,13,color,1,left,Blue_Circle_Chess_3.jpg,Blue_Plus_Grid_4.jpg,Purple_Circle_Dots_2.jpg,left,731.9450001232326,true,low,NA,NA,NA,NA,NA,NA,NA,false
QJ6cW9mL,33cla8o0nlo9ukh858i8v1jgjoffrm,31ibvunm9wc3abwj5uskli4anjzfv8,QJ6cW9mL,2020-0188,2020-05-08,11:12:34,11:43:00,NA,incomplete,14,color,1,right,Purple_Plus_Grid_1.jpg,Green_Plus_Dots_3.jpg,Purple_Circle_Stripes_4.jpg,right,670.8299999590963,true,low,NA,NA,NA,NA,NA,NA,NA,false
QJ6cW9mL,33cla8o0nlo9ukh858i8v1jgjoffrm,31ibvunm9wc3abwj5uskli4anjzfv8,QJ6cW9mL,2020-0188,2020-05-08,11:12:34,11:43:00,NA,incomplete,15,color,1,left,Purple_Plus_Dots_3.jpg,Purple_Circle_Grid_4.jpg,Blue_Plus_Stripes_1.jpg,right,619.9900000356138,false,low,NA,NA,NA,NA,NA,NA,NA,false
QJ6cW9mL,33cla8o0nlo9ukh858i8v1jgjoffrm,31ibvunm9wc3abwj5uskli4anjzfv8,QJ6cW9mL,2020-0188,2020-05-08,11:12:34,11:43:00,NA,incomplete,16,color,1,left,Red_Star_Dots_1.jpg,Red_Plus_Grid_4.jpg,Purple_Star_Chess_2.jpg,left,633.8899999391288,true,low,NA,NA,NA,NA,NA,NA,NA,false
QJ6cW9mL,33cla8o0nlo9ukh858i8v1jgjoffrm,31ibvunm9wc3abwj5uskli4anjzfv8,QJ6cW9mL,2020-0188,2020-05-08,11:12:34,11:43:00,NA,incomplete,17,color,1,right,Green_Star_Dots_3.jpg,Purple_Star_Stripes_1.jpg,Green_Plus_Chess_2.jpg,right,575.6200000178069,true,low,NA,NA,NA,NA,NA,NA,NA,false
QJ6cW9mL,33cla8o0nlo9ukh858i8v1jgjoffrm,31ibvunm9wc3abwj5uskli4anjzfv8,QJ6cW9mL,2020-0188,2020-05-08,11:12:34,11:43:00,NA,incomplete,18,color,1,left,Blue_Plus_Stripes_2.jpg,Blue_Circle_Dots_3.jpg,Red_Plus_Grid_4.jpg,left,684.6900000236928,true,low,NA,NA,NA,NA,NA,NA,NA,false
QJ6cW9mL,33cla8o0nlo9ukh858i8v1jgjoffrm,31ibvunm9wc3abwj5uskli4anjzfv8,QJ6cW9mL,2020-0188,2020-05-08,11:12:34,11:43:00,NA,incomplete,19,color,1,right,Purple_Circle_Chess_3.jpg,Red_Circle_Grid_2.jpg,Purple_Star_Dots_1.jpg,right,621.4600000530481,true,low,NA,NA,NA,NA,NA,NA,NA,false
QJ6cW9mL,33cla8o0nlo9ukh858i8v1jgjoffrm,31ibvunm9wc3abwj5uskli4anjzfv8,QJ6cW9mL,2020-0188,2020-05-08,11:12:34,11:43:00,NA,incomplete,20,color,0,right,Blue_Star_Dots_4.jpg,Green_Star_Stripes_3.jpg,Blue_Circle_Grid_2.jpg,right,714.9199999403208,true,low,NA,NA,NA,NA,NA,NA,NA,false
QJ6cW9mL,33cla8o0nlo9ukh858i8v1jgjoffrm,31ibvunm9wc3abwj5uskli4anjzfv8,QJ6cW9mL,2020-0188,2020-05-08,11:12:34,11:43:00,NA,incomplete,21,color,0,right,Red_Circle_Chess_4.jpg,Blue_Circle_Dots_3.jpg,Red_Triangle_Grid_2.jpg,right,521.0500000976026,true,low,NA,NA,NA,NA,NA,NA,NA,false
QJ6cW9mL,33cla8o0nlo9ukh858i8v1jgjoffrm,31ibvunm9wc3abwj5uskli4anjzfv8,QJ6cW9mL,2020-0188,2020-05-08,11:12:34,11:43:00,NA,incomplete,22,color,1,left,Purple_Triangle_Dots_3.jpg,Purple_Circle_Chess_1.jpg,Blue_Triangle_Grid_4.jpg,left,679.4600000139326,true,low,NA,NA,NA,NA,NA,NA,NA,false
QJ6cW9mL,33cla8o0nlo9ukh858i8v1jgjoffrm,31ibvunm9wc3abwj5uskli4anjzfv8,QJ6cW9mL,2020-0188,2020-05-08,11:12:34,11:43:00,NA,incomplete,23,color,1,left,Red_Plus_Grid_1.jpg,Red_Star_Dots_2.jpg,Green_Plus_Stripes_4.jpg,left,678.5899999085814,true,low,NA,NA,NA,NA,NA,NA,NA,false
QJ6cW9mL,33cla8o0nlo9ukh858i8v1jgjoffrm,31ibvunm9wc3abwj5uskli4anjzfv8,QJ6cW9mL,2020-0188,2020-05-08,11:12:34,11:43:00,NA,incomplete,24,color,1,right,Red_Circle_Chess_2.jpg,Purple_Circle_Stripes_3.jpg,Red_Plus_Grid_4.jpg,right,577.4050001055002,true,low,NA,NA,NA,NA,NA,NA,NA,false
QJ6cW9mL,33cla8o0nlo9ukh858i8v1jgjoffrm,31ibvunm9wc3abwj5uskli4anjzfv8,QJ6cW9mL,2020-0188,2020-05-08,11:12:34,11:43:00,NA,incomplete,25,color,0,right,Red_Plus_Stripes_1.jpg,Blue_Plus_Dots_3.jpg,Red_Circle_Grid_4.jpg,right,550.9849998634309,true,low,NA,NA,NA,NA,NA,NA,NA,false
QJ6cW9mL,33cla8o0nlo9ukh858i8v1jgjoffrm,31ibvunm9wc3abwj5uskli4anjzfv8,QJ6cW9mL,2020-0188,2020-05-08,11:12:34,11:43:00,NA,incomplete,26,color,1,left,Purple_Plus_Grid_1.jpg,Purple_Triangle_Dots_3.jpg,Red_Plus_Stripes_4.jpg,left,551.3500000815839,true,low,NA,NA,NA,NA,NA,NA,NA,false
QJ6cW9mL,33cla8o0nlo9ukh858i8v1jgjoffrm,31ibvunm9wc3abwj5uskli4anjzfv8,QJ6cW9mL,2020-0188,2020-05-08,11:12:34,11:43:00,NA,incomplete,27,color,1,left,Green_Plus_Chess_2.jpg,Green_Circle_Stripes_3.jpg,Purple_Plus_Grid_4.jpg,left,516.3949998095632,true,low,NA,NA,NA,NA,NA,NA,NA,false
QJ6cW9mL,33cla8o0nlo9ukh858i8v1jgjoffrm,31ibvunm9wc3abwj5uskli4anjzfv8,QJ6cW9mL,2020-0188,2020-05-08,11:12:34,11:43:00,NA,incomplete,28,color,0,left,Blue_Star_Grid_3.jpg,Blue_Circle_Dots_1.jpg,Purple_Star_Stripes_4.jpg,right,637.3749999329448,false,low,NA,NA,NA,NA,NA,NA,NA,false
QJ6cW9mL,33cla8o0nlo9ukh858i8v1jgjoffrm,31ibvunm9wc3abwj5uskli4anjzfv8,QJ6cW9mL,2020-0188,2020-05-08,11:12:34,11:43:00,NA,incomplete,29,color,1,left,Blue_Triangle_Grid_2.jpg,Blue_Plus_Chess_3.jpg,Red_Triangle_Dots_4.jpg,left,615.15500000678,true,low,NA,NA,NA,NA,NA,NA,NA,false
QJ6cW9mL,33cla8o0nlo9ukh858i8v1jgjoffrm,31ibvunm9wc3abwj5uskli4anjzfv8,QJ6cW9mL,2020-0188,2020-05-08,11:12:34,11:43:00,NA,incomplete,30,shape,1,left,Red_Star_Stripes_4.jpg,Purple_Star_Dots_3.jpg,Red_Plus_Grid_2.jpg,right,639.3649999517947,false,low,NA,NA,NA,NA,NA,NA,NA,false
QJ6cW9mL,33cla8o0nlo9ukh858i8v1jgjoffrm,31ibvunm9wc3abwj5uskli4anjzfv8,QJ6cW9mL,2020-0188,2020-05-08,11:12:34,11:43:00,NA,incomplete,31,shape,1,right,Blue_Triangle_Stripes_2.jpg,Blue_Star_Dots_3.jpg,Red_Triangle_Grid_1.jpg,left,536.6950000170618,false,low,NA,NA,NA,NA,NA,NA,NA,false
QJ6cW9mL,33cla8o0nlo9ukh858i8v1jgjoffrm,31ibvunm9wc3abwj5uskli4anjzfv8,QJ6cW9mL,2020-0188,2020-05-08,11:12:34,11:43:00,NA,incomplete,32,shape,1,left,Red_Plus_Dots_4.jpg,Purple_Plus_Stripes_3.jpg,Red_Circle_Chess_1.jpg,right,568.0849999189377,false,low,NA,NA,NA,NA,NA,NA,NA,false
QJ6cW9mL,33cla8o0nlo9ukh858i8v1jgjoffrm,31ibvunm9wc3abwj5uskli4anjzfv8,QJ6cW9mL,2020-0188,2020-05-08,11:12:34,11:43:00,NA,incomplete,33,shape,1,right,Blue_Plus_Stripes_4.jpg,Blue_Circle_Grid_1.jpg,Purple_Plus_Dots_3.jpg,right,567.3499999102205,true,low,NA,NA,NA,NA,NA,NA,NA,false
QJ6cW9mL,33cla8o0nlo9ukh858i8v1jgjoffrm,31ibvunm9wc3abwj5uskli4anjzfv8,QJ6cW9mL,2020-0188,2020-05-08,11:12:34,11:43:00,NA,incomplete,34,shape,1,left,Purple_Star_Dots_4.jpg,Red_Star_Chess_2.jpg,Purple_Triangle_Grid_3.jpg,left,685.9450000338256,true,low,NA,NA,NA,NA,NA,NA,NA,false
QJ6cW9mL,33cla8o0nlo9ukh858i8v1jgjoffrm,31ibvunm9wc3abwj5uskli4anjzfv8,QJ6cW9mL,2020-0188,2020-05-08,11:12:34,11:43:00,NA,incomplete,35,shape,1,left,Blue_Circle_Chess_3.jpg,Green_Circle_Grid_1.jpg,Blue_Star_Stripes_2.jpg,left,562.75499984622,true,low,NA,NA,NA,NA,NA,NA,NA,false
QJ6cW9mL,33cla8o0nlo9ukh858i8v1jgjoffrm,31ibvunm9wc3abwj5uskli4anjzfv8,QJ6cW9mL,2020-0188,2020-05-08,11:12:34,11:43:00,NA,incomplete,36,shape,0,right,Red_Star_Dots_4.jpg,Red_Triangle_Stripes_2.jpg,Purple_Star_Grid_1.jpg,right,609.6400001551956,true,low,NA,NA,NA,NA,NA,NA,NA,false
QJ6cW9mL,33cla8o0nlo9ukh858i8v1jgjoffrm,31ibvunm9wc3abwj5uskli4anjzfv8,QJ6cW9mL,2020-0188,2020-05-08,11:12:34,11:43:00,NA,incomplete,37,shape,1,left,Red_Circle_Grid_1.jpg,Blue_Circle_Dots_2.jpg,Red_Triangle_Stripes_3.jpg,right,522.3650000989437,false,low,NA,NA,NA,NA,NA,NA,NA,false
QJ6cW9mL,33cla8o0nlo9ukh858i8v1jgjoffrm,31ibvunm9wc3abwj5uskli4anjzfv8,QJ6cW9mL,2020-0188,2020-05-08,11:12:34,11:43:00,NA,incomplete,38,shape,1,left,Green_Star_Stripes_2.jpg,Blue_Star_Dots_3.jpg,Green_Circle_Grid_1.jpg,left,746.6450000647455,true,low,NA,NA,NA,NA,NA,NA,NA,false
QJ6cW9mL,33cla8o0nlo9ukh858i8v1jgjoffrm,31ibvunm9wc3abwj5uskli4anjzfv8,QJ6cW9mL,2020-0188,2020-05-08,11:12:34,11:43:00,NA,incomplete,39,shape,1,right,Purple_Star_Chess_2.jpg,Purple_Triangle_Grid_3.jpg,Red_Star_Stripes_4.jpg,right,659.4599999953061,true,low,NA,NA,NA,NA,NA,NA,NA,false
QJ6cW9mL,33cla8o0nlo9ukh858i8v1jgjoffrm,31ibvunm9wc3abwj5uskli4anjzfv8,QJ6cW9mL,2020-0188,2020-05-08,11:12:34,11:43:00,NA,incomplete,40,shape,1,right,Purple_Circle_Dots_2.jpg,Purple_Plus_Stripes_4.jpg,Red_Circle_Chess_3.jpg,right,514.7249998990446,true,low,NA,NA,NA,NA,NA,NA,NA,false
QJ6cW9mL,33cla8o0nlo9ukh858i8v1jgjoffrm,31ibvunm9wc3abwj5uskli4anjzfv8,QJ6cW9mL,2020-0188,2020-05-08,11:12:34,11:43:00,NA,incomplete,41,shape,1,left,Blue_Star_Dots_2.jpg,Green_Star_Grid_3.jpg,Blue_Circle_Chess_4.jpg,left,582.0149998180568,true,low,NA,NA,NA,NA,NA,NA,NA,false
QJ6cW9mL,33cla8o0nlo9ukh858i8v1jgjoffrm,31ibvunm9wc3abwj5uskli4anjzfv8,QJ6cW9mL,2020-0188,2020-05-08,11:12:34,11:43:00,NA,incomplete,42,shape,1,right,Blue_Triangle_Chess_4.jpg,Blue_Plus_Stripes_3.jpg,Red_Triangle_Grid_1.jpg,right,558.8400000706315,true,low,NA,NA,NA,NA,NA,NA,NA,false
QJ6cW9mL,33cla8o0nlo9ukh858i8v1jgjoffrm,31ibvunm9wc3abwj5uskli4anjzfv8,QJ6cW9mL,2020-0188,2020-05-08,11:12:34,11:43:00,NA,incomplete,43,shape,1,right,Blue_Triangle_Grid_2.jpg,Blue_Star_Chess_1.jpg,Red_Triangle_Stripes_4.jpg,right,559.0200000442564,true,low,NA,NA,NA,NA,NA,NA,NA,false
QJ6cW9mL,33cla8o0nlo9ukh858i8v1jgjoffrm,31ibvunm9wc3abwj5uskli4anjzfv8,QJ6cW9mL,2020-0188,2020-05-08,11:12:34,11:43:00,NA,incomplete,44,shape,1,left,Red_Plus_Dots_3.jpg,Blue_Plus_Chess_2.jpg,Red_Triangle_Grid_1.jpg,left,699.3150000926107,true,low,NA,NA,NA,NA,NA,NA,NA,false
QJ6cW9mL,33cla8o0nlo9ukh858i8v1jgjoffrm,31ibvunm9wc3abwj5uskli4anjzfv8,QJ6cW9mL,2020-0188,2020-05-08,11:12:34,11:43:00,NA,incomplete,45,shape,0,left,Purple_Star_Dots_4.jpg,Green_Star_Chess_2.jpg,Purple_Plus_Stripes_3.jpg,left,587.5200000591576,true,low,NA,NA,NA,NA,NA,NA,NA,false
QJ6cW9mL,33cla8o0nlo9ukh858i8v1jgjoffrm,31ibvunm9wc3abwj5uskli4anjzfv8,QJ6cW9mL,2020-0188,2020-05-08,11:12:34,11:43:00,NA,incomplete,46,shape,1,left,Blue_Plus_Stripes_3.jpg,Green_Plus_Grid_1.jpg,Blue_Circle_Chess_4.jpg,left,594.2299999296665,true,low,NA,NA,NA,NA,NA,NA,NA,false
QJ6cW9mL,33cla8o0nlo9ukh858i8v1jgjoffrm,31ibvunm9wc3abwj5uskli4anjzfv8,QJ6cW9mL,2020-0188,2020-05-08,11:12:34,11:43:00,NA,incomplete,47,shape,1,left,Green_Star_Grid_3.jpg,Blue_Star_Dots_1.jpg,Green_Plus_Stripes_2.jpg,left,650.4750000312924,true,low,NA,NA,NA,NA,NA,NA,NA,false
QJ6cW9mL,33cla8o0nlo9ukh858i8v1jgjoffrm,31ibvunm9wc3abwj5uskli4anjzfv8,QJ6cW9mL,2020-0188,2020-05-08,11:12:34,11:43:00,NA,incomplete,48,shape,1,right,Blue_Circle_Grid_3.jpg,Blue_Triangle_Stripes_1.jpg,Red_Circle_Chess_4.jpg,right,617.094999877736,true,low,NA,NA,NA,NA,NA,NA,NA,false
QJ6cW9mL,33cla8o0nlo9ukh858i8v1jgjoffrm,31ibvunm9wc3abwj5uskli4anjzfv8,QJ6cW9mL,2020-0188,2020-05-08,11:12:34,11:43:00,NA,incomplete,49,shape,1,right,Purple_Star_Grid_3.jpg,Purple_Triangle_Dots_1.jpg,Red_Star_Chess_2.jpg,right,555.3099999669939,true,low,NA,NA,NA,NA,NA,NA,NA,false
QJ6cW9mL,33cla8o0nlo9ukh858i8v1jgjoffrm,31ibvunm9wc3abwj5uskli4anjzfv8,QJ6cW9mL,2020-0188,2020-05-08,11:12:34,11:43:00,NA,incomplete,50,shape,0,left,Red_Plus_Chess_4.jpg,Purple_Plus_Grid_1.jpg,Red_Star_Stripes_3.jpg,left,575.4150000866503,true,low,NA,NA,NA,NA,NA,NA,NA,false
QJ6cW9mL,33cla8o0nlo9ukh858i8v1jgjoffrm,31ibvunm9wc3abwj5uskli4anjzfv8,QJ6cW9mL,2020-0188,2020-05-08,11:12:34,11:43:00,NA,incomplete,51,shape,1,right,Purple_Plus_Grid_2.jpg,Purple_Star_Chess_4.jpg,Red_Plus_Dots_3.jpg,right,579.145000083372,true,low,NA,NA,NA,NA,NA,NA,NA,false
QJ6cW9mL,33cla8o0nlo9ukh858i8v1jgjoffrm,31ibvunm9wc3abwj5uskli4anjzfv8,QJ6cW9mL,2020-0188,2020-05-08,11:12:34,11:43:00,NA,incomplete,52,shape,1,right,Green_Triangle_Grid_2.jpg,Green_Star_Stripes_1.jpg,Purple_Triangle_Chess_3.jpg,right,542.7650001365691,true,low,NA,NA,NA,NA,NA,NA,NA,false
QJ6cW9mL,33cla8o0nlo9ukh858i8v1jgjoffrm,31ibvunm9wc3abwj5uskli4anjzfv8,QJ6cW9mL,2020-0188,2020-05-08,11:12:34,11:43:00,NA,incomplete,53,shape,1,right,Blue_Triangle_Dots_2.jpg,Blue_Plus_Stripes_1.jpg,Red_Triangle_Chess_4.jpg,right,720.1399998739362,true,low,NA,NA,NA,NA,NA,NA,NA,false
QJ6cW9mL,33cla8o0nlo9ukh858i8v1jgjoffrm,31ibvunm9wc3abwj5uskli4anjzfv8,QJ6cW9mL,2020-0188,2020-05-08,11:12:34,11:43:00,NA,incomplete,54,shape,1,right,Purple_Circle_Grid_3.jpg,Purple_Plus_Dots_1.jpg,Green_Circle_Stripes_2.jpg,right,558.7299999315292,true,low,NA,NA,NA,NA,NA,NA,NA,false
QJ6cW9mL,33cla8o0nlo9ukh858i8v1jgjoffrm,31ibvunm9wc3abwj5uskli4anjzfv8,QJ6cW9mL,2020-0188,2020-05-08,11:12:34,11:43:00,NA,incomplete,55,shape,1,left,Purple_Circle_Chess_4.jpg,Green_Circle_Stripes_3.jpg,Purple_Star_Grid_1.jpg,left,584.2900001443923,true,low,NA,NA,NA,NA,NA,NA,NA,false
QJ6cW9mL,33cla8o0nlo9ukh858i8v1jgjoffrm,31ibvunm9wc3abwj5uskli4anjzfv8,QJ6cW9mL,2020-0188,2020-05-08,11:12:34,11:43:00,NA,incomplete,56,shape,1,left,Green_Circle_Stripes_2.jpg,Red_Circle_Chess_3.jpg,Green_Star_Dots_4.jpg,left,527.1099999081343,true,low,NA,NA,NA,NA,NA,NA,NA,false
QJ6cW9mL,33cla8o0nlo9ukh858i8v1jgjoffrm,31ibvunm9wc3abwj5uskli4anjzfv8,QJ6cW9mL,2020-0188,2020-05-08,11:12:34,11:43:00,NA,incomplete,57,shape,1,right,Purple_Circle_Stripes_4.jpg,Purple_Star_Grid_1.jpg,Red_Circle_Chess_3.jpg,right,484.2349998652935,true,low,NA,NA,NA,NA,NA,NA,NA,false
QJ6cW9mL,33cla8o0nlo9ukh858i8v1jgjoffrm,31ibvunm9wc3abwj5uskli4anjzfv8,QJ6cW9mL,2020-0188,2020-05-08,11:12:34,11:43:00,NA,incomplete,58,shape,0,left,Red_Star_Grid_3.jpg,Purple_Star_Chess_4.jpg,Red_Circle_Stripes_1.jpg,left,536.7050000932068,true,low,NA,NA,NA,NA,NA,NA,NA,false
QJ6cW9mL,33cla8o0nlo9ukh858i8v1jgjoffrm,31ibvunm9wc3abwj5uskli4anjzfv8,QJ6cW9mL,2020-0188,2020-05-08,11:12:34,11:43:00,NA,incomplete,59,shape,0,right,Purple_Star_Stripes_3.jpg,Purple_Plus_Dots_1.jpg,Red_Star_Grid_2.jpg,right,543.9649999607354,true,low,NA,NA,NA,NA,NA,NA,NA,false
QJ6cW9mL,33cla8o0nlo9ukh858i8v1jgjoffrm,31ibvunm9wc3abwj5uskli4anjzfv8,QJ6cW9mL,2020-0188,2020-05-08,11:12:34,11:43:00,NA,incomplete,60,color,1,right,Blue_Triangle_Stripes_1.jpg,Purple_Triangle_Grid_4.jpg,Blue_Circle_Chess_2.jpg,right,706.2750000040978,true,low,NA,NA,NA,NA,NA,NA,NA,false
QJ6cW9mL,33cla8o0nlo9ukh858i8v1jgjoffrm,31ibvunm9wc3abwj5uskli4anjzfv8,QJ6cW9mL,2020-0188,2020-05-08,11:12:34,11:43:00,NA,incomplete,61,color,1,left,Purple_Plus_Dots_4.jpg,Purple_Circle_Chess_1.jpg,Green_Plus_Stripes_2.jpg,left,746.4900000486523,true,low,NA,NA,NA,NA,NA,NA,NA,false
QJ6cW9mL,33cla8o0nlo9ukh858i8v1jgjoffrm,31ibvunm9wc3abwj5uskli4anjzfv8,QJ6cW9mL,2020-0188,2020-05-08,11:12:34,11:43:00,NA,incomplete,62,color,1,right,Purple_Triangle_Grid_2.jpg,Blue_Triangle_Chess_1.jpg,Purple_Circle_Dots_4.jpg,left,908.4449999500066,false,low,NA,NA,NA,NA,NA,NA,NA,false
QJ6cW9mL,33cla8o0nlo9ukh858i8v1jgjoffrm,31ibvunm9wc3abwj5uskli4anjzfv8,QJ6cW9mL,2020-0188,2020-05-08,11:12:34,11:43:00,NA,incomplete,63,color,0,right,Red_Triangle_Chess_4.jpg,Purple_Triangle_Stripes_1.jpg,Red_Plus_Grid_2.jpg,right,620.6600000150502,true,low,NA,NA,NA,NA,NA,NA,NA,false
QJ6cW9mL,33cla8o0nlo9ukh858i8v1jgjoffrm,31ibvunm9wc3abwj5uskli4anjzfv8,QJ6cW9mL,2020-0188,2020-05-08,11:12:34,11:43:00,NA,incomplete,64,color,1,right,Purple_Plus_Grid_1.jpg,Blue_Plus_Chess_4.jpg,Purple_Circle_Stripes_2.jpg,right,724.0999999921769,true,low,NA,NA,NA,NA,NA,NA,NA,false
QJ6cW9mL,33cla8o0nlo9ukh858i8v1jgjoffrm,31ibvunm9wc3abwj5uskli4anjzfv8,QJ6cW9mL,2020-0188,2020-05-08,11:12:34,11:43:00,NA,incomplete,65,color,1,left,Green_Circle_Dots_1.jpg,Green_Plus_Grid_3.jpg,Red_Circle_Stripes_4.jpg,left,526.6100000590086,true,low,NA,NA,NA,NA,NA,NA,NA,false
QJ6cW9mL,33cla8o0nlo9ukh858i8v1jgjoffrm,31ibvunm9wc3abwj5uskli4anjzfv8,QJ6cW9mL,2020-0188,2020-05-08,11:12:34,11:43:00,NA,incomplete,66,color,1,left,Red_Plus_Grid_4.jpg,Red_Circle_Stripes_3.jpg,Purple_Plus_Chess_2.jpg,left,620.3749999403954,true,low,NA,NA,NA,NA,NA,NA,NA,false
QJ6cW9mL,33cla8o0nlo9ukh858i8v1jgjoffrm,31ibvunm9wc3abwj5uskli4anjzfv8,QJ6cW9mL,2020-0188,2020-05-08,11:12:34,11:43:00,NA,incomplete,67,color,1,right,Green_Triangle_Grid_3.jpg,Red_Triangle_Chess_4.jpg,Green_Star_Dots_2.jpg,right,614.1399999614805,true,low,NA,NA,NA,NA,NA,NA,NA,false
QJ6cW9mL,33cla8o0nlo9ukh858i8v1jgjoffrm,31ibvunm9wc3abwj5uskli4anjzfv8,QJ6cW9mL,2020-0188,2020-05-08,11:12:34,11:43:00,NA,incomplete,68,color,1,right,Red_Plus_Stripes_3.jpg,Purple_Plus_Chess_2.jpg,Red_Circle_Grid_1.jpg,right,594.6150000672787,true,low,NA,NA,NA,NA,NA,NA,NA,false
QJ6cW9mL,33cla8o0nlo9ukh858i8v1jgjoffrm,31ibvunm9wc3abwj5uskli4anjzfv8,QJ6cW9mL,2020-0188,2020-05-08,11:12:34,11:43:00,NA,incomplete,69,color,1,right,Green_Triangle_Chess_3.jpg,Purple_Triangle_Grid_1.jpg,Green_Star_Stripes_2.jpg,right,556.7250000312924,true,low,NA,NA,NA,NA,NA,NA,NA,false
QJ6cW9mL,33cla8o0nlo9ukh858i8v1jgjoffrm,31ibvunm9wc3abwj5uskli4anjzfv8,QJ6cW9mL,2020-0188,2020-05-08,11:12:34,11:43:00,NA,incomplete,70,color,1,left,Purple_Star_Chess_2.jpg,Purple_Triangle_Dots_4.jpg,Red_Star_Grid_3.jpg,left,667.3200000077486,true,low,NA,NA,NA,NA,NA,NA,NA,false
QJ6cW9mL,33cla8o0nlo9ukh858i8v1jgjoffrm,31ibvunm9wc3abwj5uskli4anjzfv8,QJ6cW9mL,2020-0188,2020-05-08,11:12:34,11:43:00,NA,incomplete,71,color,1,left,Green_Circle_Grid_4.jpg,Green_Triangle_Chess_3.jpg,Purple_Circle_Dots_1.jpg,left,536.7550000082701,true,low,NA,NA,NA,NA,NA,NA,NA,false
QJ6cW9mL,33cla8o0nlo9ukh858i8v1jgjoffrm,31ibvunm9wc3abwj5uskli4anjzfv8,QJ6cW9mL,2020-0188,2020-05-08,11:12:34,11:43:00,NA,incomplete,72,color,0,right,Green_Plus_Chess_4.jpg,Red_Plus_Grid_1.jpg,Green_Triangle_Dots_2.jpg,right,512.7999999094754,true,low,NA,NA,NA,NA,NA,NA,NA,false
QJ6cW9mL,33cla8o0nlo9ukh858i8v1jgjoffrm,31ibvunm9wc3abwj5uskli4anjzfv8,QJ6cW9mL,2020-0188,2020-05-08,11:12:34,11:43:00,NA,incomplete,73,color,1,right,Purple_Plus_Grid_4.jpg,Red_Plus_Stripes_2.jpg,Purple_Star_Chess_3.jpg,right,518.1700000539422,true,low,NA,NA,NA,NA,NA,NA,NA,false
QJ6cW9mL,33cla8o0nlo9ukh858i8v1jgjoffrm,31ibvunm9wc3abwj5uskli4anjzfv8,QJ6cW9mL,2020-0188,2020-05-08,11:12:34,11:43:00,NA,incomplete,74,color,1,right,Purple_Plus_Stripes_3.jpg,Blue_Plus_Chess_1.jpg,Purple_Circle_Grid_4.jpg,right,582.0999999996275,true,low,NA,NA,NA,NA,NA,NA,NA,false
QJ6cW9mL,33cla8o0nlo9ukh858i8v1jgjoffrm,31ibvunm9wc3abwj5uskli4anjzfv8,QJ6cW9mL,2020-0188,2020-05-08,11:12:34,11:43:00,NA,incomplete,75,color,1,right,Blue_Triangle_Stripes_4.jpg,Red_Triangle_Dots_2.jpg,Blue_Circle_Grid_1.jpg,right,599.8949999921024,true,low,NA,NA,NA,NA,NA,NA,NA,false
QJ6cW9mL,33cla8o0nlo9ukh858i8v1jgjoffrm,31ibvunm9wc3abwj5uskli4anjzfv8,QJ6cW9mL,2020-0188,2020-05-08,11:12:34,11:43:00,NA,incomplete,76,color,1,right,Blue_Star_Stripes_1.jpg,Red_Star_Chess_4.jpg,Blue_Circle_Dots_2.jpg,right,717.560000019148,true,low,NA,NA,NA,NA,NA,NA,NA,false
QJ6cW9mL,33cla8o0nlo9ukh858i8v1jgjoffrm,31ibvunm9wc3abwj5uskli4anjzfv8,QJ6cW9mL,2020-0188,2020-05-08,11:12:34,11:43:00,NA,incomplete,77,color,1,right,Blue_Star_Chess_1.jpg,Green_Star_Dots_2.jpg,Blue_Plus_Stripes_4.jpg,right,625.0850001815706,true,low,NA,NA,NA,NA,NA,NA,NA,false
QJ6cW9mL,33cla8o0nlo9ukh858i8v1jgjoffrm,31ibvunm9wc3abwj5uskli4anjzfv8,QJ6cW9mL,2020-0188,2020-05-08,11:12:34,11:43:00,NA,incomplete,78,color,1,left,Green_Plus_Dots_3.jpg,Green_Circle_Chess_1.jpg,Purple_Plus_Grid_2.jpg,left,498.5849999357015,true,low,NA,NA,NA,NA,NA,NA,NA,false
QJ6cW9mL,33cla8o0nlo9ukh858i8v1jgjoffrm,31ibvunm9wc3abwj5uskli4anjzfv8,QJ6cW9mL,2020-0188,2020-05-08,11:12:34,11:43:00,NA,incomplete,79,color,0,right,Purple_Triangle_Dots_4.jpg,Green_Triangle_Chess_3.jpg,Purple_Circle_Stripes_1.jpg,right,496.114999987185,true,low,NA,NA,NA,NA,NA,NA,NA,false
QJ6cW9mL,33cla8o0nlo9ukh858i8v1jgjoffrm,31ibvunm9wc3abwj5uskli4anjzfv8,QJ6cW9mL,2020-0188,2020-05-08,11:12:34,11:43:00,NA,incomplete,80,color,0,right,Red_Plus_Chess_4.jpg,Green_Plus_Dots_2.jpg,Red_Star_Grid_1.jpg,right,503.3749998547137,true,low,NA,NA,NA,NA,NA,NA,NA,false
QJ6cW9mL,33cla8o0nlo9ukh858i8v1jgjoffrm,31ibvunm9wc3abwj5uskli4anjzfv8,QJ6cW9mL,2020-0188,2020-05-08,11:12:34,11:43:00,NA,incomplete,81,color,1,left,Green_Circle_Chess_1.jpg,Green_Plus_Dots_2.jpg,Blue_Circle_Stripes_4.jpg,right,483.92500006593764,false,low,NA,NA,NA,NA,NA,NA,NA,false
QJ6cW9mL,33cla8o0nlo9ukh858i8v1jgjoffrm,31ibvunm9wc3abwj5uskli4anjzfv8,QJ6cW9mL,2020-0188,2020-05-08,11:12:34,11:43:00,NA,incomplete,82,color,1,left,Blue_Circle_Dots_1.jpg,Blue_Triangle_Chess_4.jpg,Red_Circle_Grid_2.jpg,right,516.9999999925494,false,low,NA,NA,NA,NA,NA,NA,NA,false
QJ6cW9mL,33cla8o0nlo9ukh858i8v1jgjoffrm,31ibvunm9wc3abwj5uskli4anjzfv8,QJ6cW9mL,2020-0188,2020-05-08,11:12:34,11:43:00,NA,incomplete,83,color,1,left,Red_Star_Chess_2.jpg,Red_Triangle_Dots_4.jpg,Green_Star_Stripes_1.jpg,left,660.2849999908358,true,low,NA,NA,NA,NA,NA,NA,NA,false
QJ6cW9mL,33cla8o0nlo9ukh858i8v1jgjoffrm,31ibvunm9wc3abwj5uskli4anjzfv8,QJ6cW9mL,2020-0188,2020-05-08,11:12:34,11:43:00,NA,incomplete,84,color,1,right,Purple_Star_Grid_4.jpg,Red_Star_Stripes_1.jpg,Purple_Circle_Dots_3.jpg,right,511.1299999989569,true,low,NA,NA,NA,NA,NA,NA,NA,false
QJ6cW9mL,33cla8o0nlo9ukh858i8v1jgjoffrm,31ibvunm9wc3abwj5uskli4anjzfv8,QJ6cW9mL,2020-0188,2020-05-08,11:12:34,11:43:00,NA,incomplete,85,color,1,left,Blue_Plus_Stripes_2.jpg,Blue_Star_Chess_3.jpg,Red_Plus_Dots_4.jpg,left,541.2449999712408,true,low,NA,NA,NA,NA,NA,NA,NA,false
QJ6cW9mL,33cla8o0nlo9ukh858i8v1jgjoffrm,31ibvunm9wc3abwj5uskli4anjzfv8,QJ6cW9mL,2020-0188,2020-05-08,11:12:34,11:43:00,NA,incomplete,86,color,1,right,Blue_Star_Stripes_1.jpg,Purple_Star_Chess_2.jpg,Blue_Triangle_Dots_3.jpg,left,588.5400001425296,false,low,NA,NA,NA,NA,NA,NA,NA,false
QJ6cW9mL,33cla8o0nlo9ukh858i8v1jgjoffrm,31ibvunm9wc3abwj5uskli4anjzfv8,QJ6cW9mL,2020-0188,2020-05-08,11:12:34,11:43:00,NA,incomplete,87,color,1,left,Purple_Star_Dots_3.jpg,Purple_Plus_Stripes_1.jpg,Green_Star_Chess_4.jpg,left,554.8749999143183,true,low,NA,NA,NA,NA,NA,NA,NA,false
QJ6cW9mL,33cla8o0nlo9ukh858i8v1jgjoffrm,31ibvunm9wc3abwj5uskli4anjzfv8,QJ6cW9mL,2020-0188,2020-05-08,11:12:34,11:43:00,NA,incomplete,88,color,0,left,Blue_Triangle_Grid_2.jpg,Blue_Circle_Chess_4.jpg,Green_Triangle_Dots_3.jpg,left,520.6899999175221,true,low,NA,NA,NA,NA,NA,NA,NA,false
QJ6cW9mL,33cla8o0nlo9ukh858i8v1jgjoffrm,31ibvunm9wc3abwj5uskli4anjzfv8,QJ6cW9mL,2020-0188,2020-05-08,11:12:34,11:43:00,NA,incomplete,89,color,1,left,Purple_Circle_Stripes_2.jpg,Purple_Star_Chess_1.jpg,Green_Circle_Grid_4.jpg,left,600.319999968633,true,low,NA,NA,NA,NA,NA,NA,NA,false
QJ6cW9mL,33cla8o0nlo9ukh858i8v1jgjoffrm,31ibvunm9wc3abwj5uskli4anjzfv8,QJ6cW9mL,2020-0188,2020-05-08,11:12:34,11:43:00,NA,incomplete,90,shape,1,right,Blue_Triangle_Dots_3.jpg,Blue_Plus_Chess_1.jpg,Green_Triangle_Stripes_4.jpg,left,674.3950000964105,false,low,NA,NA,NA,NA,NA,NA,NA,false
QJ6cW9mL,33cla8o0nlo9ukh858i8v1jgjoffrm,31ibvunm9wc3abwj5uskli4anjzfv8,QJ6cW9mL,2020-0188,2020-05-08,11:12:34,11:43:00,NA,incomplete,91,shape,1,right,Purple_Circle_Grid_1.jpg,Purple_Star_Chess_2.jpg,Blue_Circle_Stripes_3.jpg,right,463.99999991990626,true,low,NA,NA,NA,NA,NA,NA,NA,false
QJ6cW9mL,33cla8o0nlo9ukh858i8v1jgjoffrm,31ibvunm9wc3abwj5uskli4anjzfv8,QJ6cW9mL,2020-0188,2020-05-08,11:12:34,11:43:00,NA,incomplete,92,shape,1,left,Green_Triangle_Dots_1.jpg,Red_Triangle_Grid_2.jpg,Green_Plus_Stripes_4.jpg,right,568.8449998851866,false,low,NA,NA,NA,NA,NA,NA,NA,false
QJ6cW9mL,33cla8o0nlo9ukh858i8v1jgjoffrm,31ibvunm9wc3abwj5uskli4anjzfv8,QJ6cW9mL,2020-0188,2020-05-08,11:12:34,11:43:00,NA,incomplete,93,shape,1,right,Green_Plus_Grid_4.jpg,Green_Circle_Stripes_1.jpg,Blue_Plus_Dots_2.jpg,left,612.8449998795986,false,low,NA,NA,NA,NA,NA,NA,NA,false
QJ6cW9mL,33cla8o0nlo9ukh858i8v1jgjoffrm,31ibvunm9wc3abwj5uskli4anjzfv8,QJ6cW9mL,2020-0188,2020-05-08,11:12:34,11:43:00,NA,incomplete,94,shape,1,right,Blue_Plus_Stripes_4.jpg,Blue_Circle_Dots_1.jpg,Green_Plus_Grid_3.jpg,left,543.4600000735372,false,low,NA,NA,NA,NA,NA,NA,NA,false
QJ6cW9mL,33cla8o0nlo9ukh858i8v1jgjoffrm,31ibvunm9wc3abwj5uskli4anjzfv8,QJ6cW9mL,2020-0188,2020-05-08,11:12:34,11:43:00,NA,incomplete,95,shape,1,left,Blue_Triangle_Grid_1.jpg,Red_Triangle_Dots_4.jpg,Blue_Plus_Stripes_2.jpg,right,490.2000001166016,false,low,NA,NA,NA,NA,NA,NA,NA,false
QJ6cW9mL,33cla8o0nlo9ukh858i8v1jgjoffrm,31ibvunm9wc3abwj5uskli4anjzfv8,QJ6cW9mL,2020-0188,2020-05-08,11:12:34,11:43:00,NA,incomplete,96,shape,1,right,Green_Plus_Grid_1.jpg,Green_Circle_Stripes_4.jpg,Red_Plus_Dots_2.jpg,right,632.2599998675287,true,low,NA,NA,NA,NA,NA,NA,NA,false
QJ6cW9mL,33cla8o0nlo9ukh858i8v1jgjoffrm,31ibvunm9wc3abwj5uskli4anjzfv8,QJ6cW9mL,2020-0188,2020-05-08,11:12:34,11:43:00,NA,incomplete,97,shape,1,right,Blue_Circle_Grid_1.jpg,Blue_Plus_Chess_4.jpg,Red_Circle_Dots_3.jpg,right,511.41000003553927,true,low,NA,NA,NA,NA,NA,NA,NA,false
QJ6cW9mL,33cla8o0nlo9ukh858i8v1jgjoffrm,31ibvunm9wc3abwj5uskli4anjzfv8,QJ6cW9mL,2020-0188,2020-05-08,11:12:34,11:43:00,NA,incomplete,98,shape,1,left,Green_Triangle_Grid_2.jpg,Blue_Triangle_Dots_1.jpg,Green_Plus_Stripes_4.jpg,left,676.1149999219924,true,low,NA,NA,NA,NA,NA,NA,NA,false
QJ6cW9mL,33cla8o0nlo9ukh858i8v1jgjoffrm,31ibvunm9wc3abwj5uskli4anjzfv8,QJ6cW9mL,2020-0188,2020-05-08,11:12:34,11:43:00,NA,incomplete,99,shape,1,right,Purple_Circle_Chess_4.jpg,Purple_Plus_Stripes_2.jpg,Red_Circle_Grid_3.jpg,right,474.0900001488626,true,low,NA,NA,NA,NA,NA,NA,NA,false
QJ6cW9mL,33cla8o0nlo9ukh858i8v1jgjoffrm,31ibvunm9wc3abwj5uskli4anjzfv8,QJ6cW9mL,2020-0188,2020-05-08,11:12:34,11:43:00,NA,incomplete,100,shape,0,right,Red_Circle_Grid_4.jpg,Red_Star_Dots_1.jpg,Purple_Circle_Stripes_3.jpg,right,434.02000004425645,true,low,NA,NA,NA,NA,NA,NA,NA,false
QJ6cW9mL,33cla8o0nlo9ukh858i8v1jgjoffrm,31ibvunm9wc3abwj5uskli4anjzfv8,QJ6cW9mL,2020-0188,2020-05-08,11:12:34,11:43:00,NA,incomplete,101,shape,1,left,Purple_Circle_Grid_3.jpg,Green_Circle_Dots_4.jpg,Purple_Plus_Chess_2.jpg,left,536.4349998999387,true,low,NA,NA,NA,NA,NA,NA,NA,false
QJ6cW9mL,33cla8o0nlo9ukh858i8v1jgjoffrm,31ibvunm9wc3abwj5uskli4anjzfv8,QJ6cW9mL,2020-0188,2020-05-08,11:12:34,11:43:00,NA,incomplete,102,shape,1,right,Red_Triangle_Chess_1.jpg,Red_Star_Stripes_4.jpg,Green_Triangle_Grid_3.jpg,right,503.3550001680851,true,low,NA,NA,NA,NA,NA,NA,NA,false
QJ6cW9mL,33cla8o0nlo9ukh858i8v1jgjoffrm,31ibvunm9wc3abwj5uskli4anjzfv8,QJ6cW9mL,2020-0188,2020-05-08,11:12:34,11:43:00,NA,incomplete,103,shape,1,left,Green_Circle_Stripes_2.jpg,Red_Circle_Grid_1.jpg,Green_Triangle_Dots_3.jpg,left,627.8399999719113,true,low,NA,NA,NA,NA,NA,NA,NA,false
QJ6cW9mL,33cla8o0nlo9ukh858i8v1jgjoffrm,31ibvunm9wc3abwj5uskli4anjzfv8,QJ6cW9mL,2020-0188,2020-05-08,11:12:34,11:43:00,NA,incomplete,104,shape,1,left,Red_Plus_Dots_2.jpg,Purple_Plus_Grid_1.jpg,Red_Star_Chess_4.jpg,left,572.5899999961257,true,low,NA,NA,NA,NA,NA,NA,NA,false
QJ6cW9mL,33cla8o0nlo9ukh858i8v1jgjoffrm,31ibvunm9wc3abwj5uskli4anjzfv8,QJ6cW9mL,2020-0188,2020-05-08,11:12:34,11:43:00,NA,incomplete,105,shape,1,left,Purple_Circle_Dots_3.jpg,Green_Circle_Stripes_2.jpg,Purple_Plus_Chess_4.jpg,left,520.2399999834597,true,low,NA,NA,NA,NA,NA,NA,NA,false
QJ6cW9mL,33cla8o0nlo9ukh858i8v1jgjoffrm,31ibvunm9wc3abwj5uskli4anjzfv8,QJ6cW9mL,2020-0188,2020-05-08,11:12:34,11:43:00,NA,incomplete,106,shape,1,left,Blue_Circle_Chess_4.jpg,Red_Circle_Grid_3.jpg,Blue_Star_Stripes_2.jpg,left,603.6549999844283,true,low,NA,NA,NA,NA,NA,NA,NA,false
QJ6cW9mL,33cla8o0nlo9ukh858i8v1jgjoffrm,31ibvunm9wc3abwj5uskli4anjzfv8,QJ6cW9mL,2020-0188,2020-05-08,11:12:34,11:43:00,NA,incomplete,107,shape,1,right,Red_Circle_Grid_4.jpg,Red_Star_Dots_3.jpg,Green_Circle_Chess_2.jpg,right,479.0599998086691,true,low,NA,NA,NA,NA,NA,NA,NA,false
QJ6cW9mL,33cla8o0nlo9ukh858i8v1jgjoffrm,31ibvunm9wc3abwj5uskli4anjzfv8,QJ6cW9mL,2020-0188,2020-05-08,11:12:34,11:43:00,NA,incomplete,108,shape,1,left,Purple_Plus_Chess_2.jpg,Blue_Plus_Stripes_1.jpg,Purple_Circle_Grid_3.jpg,left,493.0949998088181,true,low,NA,NA,NA,NA,NA,NA,NA,false
QJ6cW9mL,33cla8o0nlo9ukh858i8v1jgjoffrm,31ibvunm9wc3abwj5uskli4anjzfv8,QJ6cW9mL,2020-0188,2020-05-08,11:12:34,11:43:00,NA,incomplete,109,shape,1,left,Blue_Triangle_Chess_3.jpg,Red_Triangle_Dots_2.jpg,Blue_Circle_Grid_1.jpg,left,599.6949998661876,true,low,NA,NA,NA,NA,NA,NA,NA,false
QJ6cW9mL,33cla8o0nlo9ukh858i8v1jgjoffrm,31ibvunm9wc3abwj5uskli4anjzfv8,QJ6cW9mL,2020-0188,2020-05-08,11:12:34,11:43:00,NA,incomplete,110,shape,1,right,Purple_Circle_Stripes_3.jpg,Purple_Star_Grid_4.jpg,Green_Circle_Chess_1.jpg,right,526.6950000077486,true,low,NA,NA,NA,NA,NA,NA,NA,false
QJ6cW9mL,33cla8o0nlo9ukh858i8v1jgjoffrm,31ibvunm9wc3abwj5uskli4anjzfv8,QJ6cW9mL,2020-0188,2020-05-08,11:12:34,11:43:00,NA,incomplete,111,shape,0,right,Purple_Plus_Chess_4.jpg,Purple_Circle_Grid_3.jpg,Blue_Plus_Dots_1.jpg,right,555.9900000225753,true,low,NA,NA,NA,NA,NA,NA,NA,false
QJ6cW9mL,33cla8o0nlo9ukh858i8v1jgjoffrm,31ibvunm9wc3abwj5uskli4anjzfv8,QJ6cW9mL,2020-0188,2020-05-08,11:12:34,11:43:00,NA,incomplete,112,shape,0,left,Green_Circle_Stripes_1.jpg,Red_Circle_Chess_3.jpg,Green_Triangle_Grid_4.jpg,left,506.82000000961125,true,low,NA,NA,NA,NA,NA,NA,NA,false
QJ6cW9mL,33cla8o0nlo9ukh858i8v1jgjoffrm,31ibvunm9wc3abwj5uskli4anjzfv8,QJ6cW9mL,2020-0188,2020-05-08,11:12:34,11:43:00,NA,incomplete,113,shape,0,left,Purple_Circle_Grid_1.jpg,Blue_Circle_Stripes_2.jpg,Purple_Plus_Dots_3.jpg,left,521.0450000595301,true,low,NA,NA,NA,NA,NA,NA,NA,false
QJ6cW9mL,33cla8o0nlo9ukh858i8v1jgjoffrm,31ibvunm9wc3abwj5uskli4anjzfv8,QJ6cW9mL,2020-0188,2020-05-08,11:12:34,11:43:00,NA,incomplete,114,shape,0,left,Purple_Star_Chess_4.jpg,Green_Star_Grid_2.jpg,Purple_Plus_Stripes_3.jpg,right,684.5100000500679,false,low,NA,NA,NA,NA,NA,NA,NA,false
QJ6cW9mL,33cla8o0nlo9ukh858i8v1jgjoffrm,31ibvunm9wc3abwj5uskli4anjzfv8,QJ6cW9mL,2020-0188,2020-05-08,11:12:34,11:43:00,NA,incomplete,115,shape,0,left,Blue_Star_Chess_2.jpg,Purple_Star_Stripes_3.jpg,Blue_Plus_Grid_4.jpg,right,707.1849999483675,false,low,NA,NA,NA,NA,NA,NA,NA,false
QJ6cW9mL,33cla8o0nlo9ukh858i8v1jgjoffrm,31ibvunm9wc3abwj5uskli4anjzfv8,QJ6cW9mL,2020-0188,2020-05-08,11:12:34,11:43:00,NA,incomplete,116,shape,1,right,Blue_Circle_Stripes_4.jpg,Blue_Plus_Grid_2.jpg,Red_Circle_Dots_1.jpg,left,627.7500002179295,false,low,NA,NA,NA,NA,NA,NA,NA,false
QJ6cW9mL,33cla8o0nlo9ukh858i8v1jgjoffrm,31ibvunm9wc3abwj5uskli4anjzfv8,QJ6cW9mL,2020-0188,2020-05-08,11:12:34,11:43:00,NA,incomplete,117,shape,1,left,Blue_Star_Grid_2.jpg,Green_Star_Chess_1.jpg,Blue_Triangle_Dots_3.jpg,right,480.8600000105798,false,low,NA,NA,NA,NA,NA,NA,NA,false
QJ6cW9mL,33cla8o0nlo9ukh858i8v1jgjoffrm,31ibvunm9wc3abwj5uskli4anjzfv8,QJ6cW9mL,2020-0188,2020-05-08,11:12:34,11:43:00,NA,incomplete,118,shape,1,left,Green_Star_Dots_2.jpg,Purple_Star_Chess_1.jpg,Green_Circle_Grid_4.jpg,right,495.54000003263354,false,low,NA,NA,NA,NA,NA,NA,NA,false
QJ6cW9mL,33cla8o0nlo9ukh858i8v1jgjoffrm,31ibvunm9wc3abwj5uskli4anjzfv8,QJ6cW9mL,2020-0188,2020-05-08,11:12:34,11:43:00,NA,incomplete,119,shape,1,right,Red_Plus_Grid_3.jpg,Red_Triangle_Chess_1.jpg,Purple_Plus_Dots_2.jpg,right,606.5550001803786,true,low,NA,NA,NA,NA,NA,NA,NA,false
QJ6cW9mL,33cla8o0nlo9ukh858i8v1jgjoffrm,31ibvunm9wc3abwj5uskli4anjzfv8,QJ6cW9mL,2020-0188,2020-05-08,11:12:34,11:43:00,NA,incomplete,120,color,1,right,Red_Circle_Grid_1.jpg,Purple_Circle_Stripes_3.jpg,Red_Plus_Chess_4.jpg,left,568.6099999584258,false,low,NA,NA,NA,NA,NA,NA,NA,false
QJ6cW9mL,33cla8o0nlo9ukh858i8v1jgjoffrm,31ibvunm9wc3abwj5uskli4anjzfv8,QJ6cW9mL,2020-0188,2020-05-08,11:12:34,11:43:00,NA,incomplete,121,color,1,right,Purple_Triangle_Dots_4.jpg,Red_Triangle_Grid_1.jpg,Purple_Circle_Stripes_2.jpg,left,587.2100000269711,false,low,NA,NA,NA,NA,NA,NA,NA,false
QJ6cW9mL,33cla8o0nlo9ukh858i8v1jgjoffrm,31ibvunm9wc3abwj5uskli4anjzfv8,QJ6cW9mL,2020-0188,2020-05-08,11:12:34,11:43:00,NA,incomplete,122,color,1,left,Red_Plus_Dots_4.jpg,Red_Triangle_Chess_2.jpg,Purple_Plus_Grid_3.jpg,right,493.7700000591576,false,low,NA,NA,NA,NA,NA,NA,NA,false
QJ6cW9mL,33cla8o0nlo9ukh858i8v1jgjoffrm,31ibvunm9wc3abwj5uskli4anjzfv8,QJ6cW9mL,2020-0188,2020-05-08,11:12:34,11:43:00,NA,incomplete,123,color,1,right,Blue_Star_Stripes_4.jpg,Red_Star_Dots_2.jpg,Blue_Plus_Chess_3.jpg,right,544.5600000675768,true,low,NA,NA,NA,NA,NA,NA,NA,false
QJ6cW9mL,33cla8o0nlo9ukh858i8v1jgjoffrm,31ibvunm9wc3abwj5uskli4anjzfv8,QJ6cW9mL,2020-0188,2020-05-08,11:12:34,11:43:00,NA,incomplete,124,color,1,left,Red_Star_Stripes_3.jpg,Red_Circle_Dots_2.jpg,Purple_Star_Chess_1.jpg,left,571.6450000181794,true,low,NA,NA,NA,NA,NA,NA,NA,false
QJ6cW9mL,33cla8o0nlo9ukh858i8v1jgjoffrm,31ibvunm9wc3abwj5uskli4anjzfv8,QJ6cW9mL,2020-0188,2020-05-08,11:12:34,11:43:00,NA,incomplete,125,color,0,left,Blue_Circle_Grid_4.jpg,Blue_Plus_Dots_2.jpg,Red_Circle_Stripes_3.jpg,left,634.6950000151992,true,low,NA,NA,NA,NA,NA,NA,NA,false
QJ6cW9mL,33cla8o0nlo9ukh858i8v1jgjoffrm,31ibvunm9wc3abwj5uskli4anjzfv8,QJ6cW9mL,2020-0188,2020-05-08,11:12:34,11:43:00,NA,incomplete,126,color,1,left,Purple_Star_Grid_4.jpg,Purple_Plus_Stripes_1.jpg,Green_Star_Chess_2.jpg,left,607.6549999415874,true,low,NA,NA,NA,NA,NA,NA,NA,false
QJ6cW9mL,33cla8o0nlo9ukh858i8v1jgjoffrm,31ibvunm9wc3abwj5uskli4anjzfv8,QJ6cW9mL,2020-0188,2020-05-08,11:12:34,11:43:00,NA,incomplete,127,color,1,left,Purple_Plus_Grid_4.jpg,Purple_Triangle_Dots_1.jpg,Red_Plus_Chess_3.jpg,right,562.7699999604374,false,low,NA,NA,NA,NA,NA,NA,NA,false
QJ6cW9mL,33cla8o0nlo9ukh858i8v1jgjoffrm,31ibvunm9wc3abwj5uskli4anjzfv8,QJ6cW9mL,2020-0188,2020-05-08,11:12:34,11:43:00,NA,incomplete,128,color,0,left,Green_Circle_Stripes_2.jpg,Green_Triangle_Grid_1.jpg,Red_Circle_Chess_3.jpg,left,507.93999992311,true,low,NA,NA,NA,NA,NA,NA,NA,false
QJ6cW9mL,33cla8o0nlo9ukh858i8v1jgjoffrm,31ibvunm9wc3abwj5uskli4anjzfv8,QJ6cW9mL,2020-0188,2020-05-08,11:12:34,11:43:00,NA,incomplete,129,color,1,right,Red_Star_Grid_4.jpg,Green_Star_Chess_2.jpg,Red_Triangle_Stripes_1.jpg,right,553.9700000081211,true,low,NA,NA,NA,NA,NA,NA,NA,false
QJ6cW9mL,33cla8o0nlo9ukh858i8v1jgjoffrm,31ibvunm9wc3abwj5uskli4anjzfv8,QJ6cW9mL,2020-0188,2020-05-08,11:12:34,11:43:00,NA,incomplete,130,color,0,left,Blue_Circle_Stripes_1.jpg,Blue_Plus_Dots_4.jpg,Green_Circle_Grid_2.jpg,left,615.4400000814348,true,low,NA,NA,NA,NA,NA,NA,NA,false
QJ6cW9mL,33cla8o0nlo9ukh858i8v1jgjoffrm,31ibvunm9wc3abwj5uskli4anjzfv8,QJ6cW9mL,2020-0188,2020-05-08,11:12:34,11:43:00,NA,incomplete,131,color,1,right,Blue_Circle_Dots_2.jpg,Green_Circle_Chess_4.jpg,Blue_Plus_Grid_1.jpg,left,544.1850000061095,false,low,NA,NA,NA,NA,NA,NA,NA,false
QJ6cW9mL,33cla8o0nlo9ukh858i8v1jgjoffrm,31ibvunm9wc3abwj5uskli4anjzfv8,QJ6cW9mL,2020-0188,2020-05-08,11:12:34,11:43:00,NA,incomplete,132,color,0,left,Red_Star_Chess_2.jpg,Red_Circle_Dots_1.jpg,Green_Star_Stripes_4.jpg,left,515.8250001259148,true,low,NA,NA,NA,NA,NA,NA,NA,false
QJ6cW9mL,33cla8o0nlo9ukh858i8v1jgjoffrm,31ibvunm9wc3abwj5uskli4anjzfv8,QJ6cW9mL,2020-0188,2020-05-08,11:12:34,11:43:00,NA,incomplete,133,color,1,left,Blue_Triangle_Stripes_1.jpg,Blue_Star_Chess_4.jpg,Purple_Triangle_Dots_3.jpg,right,500.0750001054257,false,low,NA,NA,NA,NA,NA,NA,NA,false
QJ6cW9mL,33cla8o0nlo9ukh858i8v1jgjoffrm,31ibvunm9wc3abwj5uskli4anjzfv8,QJ6cW9mL,2020-0188,2020-05-08,11:12:34,11:43:00,NA,incomplete,134,color,1,right,Green_Triangle_Stripes_1.jpg,Red_Triangle_Chess_4.jpg,Green_Plus_Grid_2.jpg,left,743.9399999566376,false,low,NA,NA,NA,NA,NA,NA,NA,false
QJ6cW9mL,33cla8o0nlo9ukh858i8v1jgjoffrm,31ibvunm9wc3abwj5uskli4anjzfv8,QJ6cW9mL,2020-0188,2020-05-08,11:12:34,11:43:00,NA,incomplete,135,color,1,left,Blue_Plus_Grid_2.jpg,Blue_Star_Stripes_1.jpg,Red_Plus_Dots_3.jpg,left,500.3100000321865,true,low,NA,NA,NA,NA,NA,NA,NA,false
QJ6cW9mL,33cla8o0nlo9ukh858i8v1jgjoffrm,31ibvunm9wc3abwj5uskli4anjzfv8,QJ6cW9mL,2020-0188,2020-05-08,11:12:34,11:43:00,NA,incomplete,136,color,1,right,Purple_Star_Grid_2.jpg,Red_Star_Dots_1.jpg,Purple_Circle_Stripes_4.jpg,right,526.6799998935312,true,low,NA,NA,NA,NA,NA,NA,NA,false
QJ6cW9mL,33cla8o0nlo9ukh858i8v1jgjoffrm,31ibvunm9wc3abwj5uskli4anjzfv8,QJ6cW9mL,2020-0188,2020-05-08,11:12:34,11:43:00,NA,incomplete,137,color,1,left,Green_Circle_Stripes_1.jpg,Green_Triangle_Chess_4.jpg,Red_Circle_Grid_3.jpg,left,504.24999999813735,true,low,NA,NA,NA,NA,NA,NA,NA,false
QJ6cW9mL,33cla8o0nlo9ukh858i8v1jgjoffrm,31ibvunm9wc3abwj5uskli4anjzfv8,QJ6cW9mL,2020-0188,2020-05-08,11:12:34,11:43:00,NA,incomplete,138,color,1,left,Blue_Star_Chess_3.jpg,Blue_Triangle_Grid_1.jpg,Purple_Star_Dots_2.jpg,right,459.90499993786216,false,low,NA,NA,NA,NA,NA,NA,NA,false
QJ6cW9mL,33cla8o0nlo9ukh858i8v1jgjoffrm,31ibvunm9wc3abwj5uskli4anjzfv8,QJ6cW9mL,2020-0188,2020-05-08,11:12:34,11:43:00,NA,incomplete,139,color,0,left,Red_Plus_Chess_3.jpg,Red_Triangle_Grid_4.jpg,Blue_Plus_Stripes_1.jpg,left,495.8800000604242,true,low,NA,NA,NA,NA,NA,NA,NA,false
QJ6cW9mL,33cla8o0nlo9ukh858i8v1jgjoffrm,31ibvunm9wc3abwj5uskli4anjzfv8,QJ6cW9mL,2020-0188,2020-05-08,11:12:34,11:43:00,NA,incomplete,140,shape,1,left,Green_Plus_Grid_3.jpg,Purple_Plus_Dots_1.jpg,Green_Triangle_Chess_2.jpg,right,471.97500010952353,false,low,NA,NA,NA,NA,NA,NA,NA,false
QJ6cW9mL,33cla8o0nlo9ukh858i8v1jgjoffrm,31ibvunm9wc3abwj5uskli4anjzfv8,QJ6cW9mL,2020-0188,2020-05-08,11:12:34,11:43:00,NA,incomplete,141,shape,1,left,Purple_Star_Grid_3.jpg,Green_Star_Chess_1.jpg,Purple_Plus_Dots_2.jpg,right,445.65999996848404,false,low,NA,NA,NA,NA,NA,NA,NA,false
QJ6cW9mL,33cla8o0nlo9ukh858i8v1jgjoffrm,31ibvunm9wc3abwj5uskli4anjzfv8,QJ6cW9mL,2020-0188,2020-05-08,11:12:34,11:43:00,NA,incomplete,142,shape,0,left,Purple_Star_Grid_1.jpg,Red_Star_Dots_2.jpg,Purple_Circle_Stripes_3.jpg,left,579.3699999339879,true,low,NA,NA,NA,NA,NA,NA,NA,false
QJ6cW9mL,33cla8o0nlo9ukh858i8v1jgjoffrm,31ibvunm9wc3abwj5uskli4anjzfv8,QJ6cW9mL,2020-0188,2020-05-08,11:12:34,11:43:00,NA,incomplete,143,shape,1,left,Purple_Star_Chess_1.jpg,Blue_Star_Stripes_4.jpg,Purple_Triangle_Dots_2.jpg,left,481.58499994315207,true,low,NA,NA,NA,NA,NA,NA,NA,false
QJ6cW9mL,33cla8o0nlo9ukh858i8v1jgjoffrm,31ibvunm9wc3abwj5uskli4anjzfv8,QJ6cW9mL,2020-0188,2020-05-08,11:12:34,11:43:00,NA,incomplete,144,shape,1,left,Red_Plus_Dots_2.jpg,Blue_Plus_Chess_4.jpg,Red_Star_Stripes_3.jpg,left,580.3799999412149,true,low,NA,NA,NA,NA,NA,NA,NA,false
QJ6cW9mL,33cla8o0nlo9ukh858i8v1jgjoffrm,31ibvunm9wc3abwj5uskli4anjzfv8,QJ6cW9mL,2020-0188,2020-05-08,11:12:34,11:43:00,NA,incomplete,145,shape,1,left,Purple_Circle_Dots_1.jpg,Blue_Circle_Stripes_4.jpg,Purple_Star_Grid_3.jpg,left,499.67999989166856,true,low,NA,NA,NA,NA,NA,NA,NA,false
QJ6cW9mL,33cla8o0nlo9ukh858i8v1jgjoffrm,31ibvunm9wc3abwj5uskli4anjzfv8,QJ6cW9mL,2020-0188,2020-05-08,11:12:34,11:43:00,NA,incomplete,146,shape,1,right,Green_Circle_Grid_2.jpg,Green_Star_Dots_3.jpg,Red_Circle_Chess_1.jpg,right,610.2849999442697,true,low,NA,NA,NA,NA,NA,NA,NA,false
QJ6cW9mL,33cla8o0nlo9ukh858i8v1jgjoffrm,31ibvunm9wc3abwj5uskli4anjzfv8,QJ6cW9mL,2020-0188,2020-05-08,11:12:34,11:43:00,NA,incomplete,147,shape,1,left,Blue_Plus_Chess_1.jpg,Purple_Plus_Dots_3.jpg,Blue_Circle_Grid_2.jpg,left,541.800000006333,true,low,NA,NA,NA,NA,NA,NA,NA,false
QJ6cW9mL,33cla8o0nlo9ukh858i8v1jgjoffrm,31ibvunm9wc3abwj5uskli4anjzfv8,QJ6cW9mL,2020-0188,2020-05-08,11:12:34,11:43:00,NA,incomplete,148,shape,0,right,Blue_Star_Stripes_1.jpg,Blue_Triangle_Grid_4.jpg,Purple_Star_Chess_3.jpg,right,598.6649999395013,true,low,NA,NA,NA,NA,NA,NA,NA,false
QJ6cW9mL,33cla8o0nlo9ukh858i8v1jgjoffrm,31ibvunm9wc3abwj5uskli4anjzfv8,QJ6cW9mL,2020-0188,2020-05-08,11:12:34,11:43:00,NA,incomplete,149,shape,1,left,Blue_Triangle_Dots_3.jpg,Red_Triangle_Grid_4.jpg,Blue_Plus_Stripes_2.jpg,left,555.8050000108778,true,low,NA,NA,NA,NA,NA,NA,NA,false
QJ6cW9mL,33cla8o0nlo9ukh858i8v1jgjoffrm,31ibvunm9wc3abwj5uskli4anjzfv8,QJ6cW9mL,2020-0188,2020-05-08,11:12:34,11:43:00,NA,incomplete,150,shape,0,left,Purple_Circle_Dots_4.jpg,Green_Circle_Stripes_1.jpg,Purple_Triangle_Chess_2.jpg,left,546.2350000161678,true,low,NA,NA,NA,NA,NA,NA,NA,false
QJ6cW9mL,33cla8o0nlo9ukh858i8v1jgjoffrm,31ibvunm9wc3abwj5uskli4anjzfv8,QJ6cW9mL,2020-0188,2020-05-08,11:12:34,11:43:00,NA,incomplete,151,shape,1,left,Green_Star_Grid_4.jpg,Red_Star_Chess_2.jpg,Green_Plus_Dots_1.jpg,left,593.5100000351667,true,low,NA,NA,NA,NA,NA,NA,NA,false
QJ6cW9mL,33cla8o0nlo9ukh858i8v1jgjoffrm,31ibvunm9wc3abwj5uskli4anjzfv8,QJ6cW9mL,2020-0188,2020-05-08,11:12:34,11:43:00,NA,incomplete,152,shape,0,left,Blue_Circle_Stripes_4.jpg,Purple_Circle_Chess_3.jpg,Blue_Triangle_Dots_2.jpg,left,535.1650000084192,true,low,NA,NA,NA,NA,NA,NA,NA,false
QJ6cW9mL,33cla8o0nlo9ukh858i8v1jgjoffrm,31ibvunm9wc3abwj5uskli4anjzfv8,QJ6cW9mL,2020-0188,2020-05-08,11:12:34,11:43:00,NA,incomplete,153,shape,1,right,Purple_Circle_Grid_1.jpg,Purple_Plus_Stripes_3.jpg,Green_Circle_Dots_4.jpg,right,578.4250001888722,true,low,NA,NA,NA,NA,NA,NA,NA,false
QJ6cW9mL,33cla8o0nlo9ukh858i8v1jgjoffrm,31ibvunm9wc3abwj5uskli4anjzfv8,QJ6cW9mL,2020-0188,2020-05-08,11:12:34,11:43:00,NA,incomplete,154,shape,1,right,Purple_Star_Grid_3.jpg,Purple_Circle_Stripes_2.jpg,Green_Star_Dots_4.jpg,right,655.9200000483543,true,low,NA,NA,NA,NA,NA,NA,NA,false
QJ6cW9mL,33cla8o0nlo9ukh858i8v1jgjoffrm,31ibvunm9wc3abwj5uskli4anjzfv8,QJ6cW9mL,2020-0188,2020-05-08,11:12:34,11:43:00,NA,incomplete,155,shape,1,right,Blue_Triangle_Grid_1.jpg,Blue_Star_Chess_3.jpg,Purple_Triangle_Stripes_2.jpg,right,541.5499999653548,true,low,NA,NA,NA,NA,NA,NA,NA,false
QJ6cW9mL,33cla8o0nlo9ukh858i8v1jgjoffrm,31ibvunm9wc3abwj5uskli4anjzfv8,QJ6cW9mL,2020-0188,2020-05-08,11:12:34,11:43:00,NA,incomplete,156,shape,0,right,Green_Circle_Stripes_1.jpg,Green_Triangle_Grid_4.jpg,Red_Circle_Dots_3.jpg,right,580.4749999660999,true,low,NA,NA,NA,NA,NA,NA,NA,false
QJ6cW9mL,33cla8o0nlo9ukh858i8v1jgjoffrm,31ibvunm9wc3abwj5uskli4anjzfv8,QJ6cW9mL,2020-0188,2020-05-08,11:12:34,11:43:00,NA,incomplete,157,shape,1,right,Purple_Circle_Stripes_4.jpg,Purple_Star_Dots_3.jpg,Blue_Circle_Chess_2.jpg,right,503.1999999191612,true,low,NA,NA,NA,NA,NA,NA,NA,false
QJ6cW9mL,33cla8o0nlo9ukh858i8v1jgjoffrm,31ibvunm9wc3abwj5uskli4anjzfv8,QJ6cW9mL,2020-0188,2020-05-08,11:12:34,11:43:00,NA,incomplete,158,shape,1,left,Purple_Plus_Stripes_4.jpg,Green_Plus_Grid_1.jpg,Purple_Triangle_Chess_2.jpg,left,573.0200000107288,true,low,NA,NA,NA,NA,NA,NA,NA,false
QJ6cW9mL,33cla8o0nlo9ukh858i8v1jgjoffrm,31ibvunm9wc3abwj5uskli4anjzfv8,QJ6cW9mL,2020-0188,2020-05-08,11:12:34,11:43:00,NA,incomplete,159,shape,1,right,Purple_Plus_Chess_2.jpg,Purple_Triangle_Dots_4.jpg,Blue_Plus_Stripes_1.jpg,right,600.6899999920279,true,low,NA,NA,NA,NA,NA,NA,NA,false
QJ6cW9mL,33cla8o0nlo9ukh858i8v1jgjoffrm,31ibvunm9wc3abwj5uskli4anjzfv8,QJ6cW9mL,2020-0188,2020-05-08,11:12:34,11:43:00,NA,incomplete,160,color,1,right,Red_Circle_Grid_4.jpg,Blue_Circle_Chess_1.jpg,Red_Plus_Dots_2.jpg,left,551.1700001079589,false,low,NA,NA,NA,NA,NA,NA,NA,false
QJ6cW9mL,33cla8o0nlo9ukh858i8v1jgjoffrm,31ibvunm9wc3abwj5uskli4anjzfv8,QJ6cW9mL,2020-0188,2020-05-08,11:12:34,11:43:00,NA,incomplete,161,color,1,right,Red_Triangle_Dots_2.jpg,Purple_Triangle_Stripes_4.jpg,Red_Circle_Chess_3.jpg,left,576.619999948889,false,low,NA,NA,NA,NA,NA,NA,NA,false
QJ6cW9mL,33cla8o0nlo9ukh858i8v1jgjoffrm,31ibvunm9wc3abwj5uskli4anjzfv8,QJ6cW9mL,2020-0188,2020-05-08,11:12:34,11:43:00,NA,incomplete,162,color,1,left,Purple_Triangle_Stripes_3.jpg,Purple_Circle_Chess_4.jpg,Blue_Triangle_Grid_1.jpg,right,447.965000057593,false,low,NA,NA,NA,NA,NA,NA,NA,false
QJ6cW9mL,33cla8o0nlo9ukh858i8v1jgjoffrm,31ibvunm9wc3abwj5uskli4anjzfv8,QJ6cW9mL,2020-0188,2020-05-08,11:12:34,11:43:00,NA,incomplete,163,color,1,left,Red_Plus_Chess_3.jpg,Red_Triangle_Grid_4.jpg,Purple_Plus_Dots_1.jpg,right,682.5449999887496,false,low,NA,NA,NA,NA,NA,NA,NA,false
QJ6cW9mL,33cla8o0nlo9ukh858i8v1jgjoffrm,31ibvunm9wc3abwj5uskli4anjzfv8,QJ6cW9mL,2020-0188,2020-05-08,11:12:34,11:43:00,NA,incomplete,164,color,1,right,Purple_Plus_Dots_3.jpg,Green_Plus_Stripes_4.jpg,Purple_Triangle_Chess_1.jpg,left,511.2600000575185,false,low,NA,NA,NA,NA,NA,NA,NA,false
QJ6cW9mL,33cla8o0nlo9ukh858i8v1jgjoffrm,31ibvunm9wc3abwj5uskli4anjzfv8,QJ6cW9mL,2020-0188,2020-05-08,11:12:34,11:43:00,NA,incomplete,165,color,1,left,Red_Circle_Grid_1.jpg,Red_Triangle_Stripes_4.jpg,Blue_Circle_Chess_3.jpg,left,561.4150001201779,true,low,NA,NA,NA,NA,NA,NA,NA,false
QJ6cW9mL,33cla8o0nlo9ukh858i8v1jgjoffrm,31ibvunm9wc3abwj5uskli4anjzfv8,QJ6cW9mL,2020-0188,2020-05-08,11:12:34,11:43:00,NA,incomplete,166,color,0,left,Blue_Triangle_Grid_1.jpg,Blue_Plus_Dots_2.jpg,Purple_Triangle_Stripes_4.jpg,left,832.1349998004735,true,low,NA,NA,NA,NA,NA,NA,NA,false
QJ6cW9mL,33cla8o0nlo9ukh858i8v1jgjoffrm,31ibvunm9wc3abwj5uskli4anjzfv8,QJ6cW9mL,2020-0188,2020-05-08,11:12:34,11:43:00,NA,incomplete,167,color,1,left,Green_Circle_Grid_1.jpg,Green_Plus_Dots_2.jpg,Blue_Circle_Stripes_4.jpg,left,541.1100001074374,true,low,NA,NA,NA,NA,NA,NA,NA,false
QJ6cW9mL,33cla8o0nlo9ukh858i8v1jgjoffrm,31ibvunm9wc3abwj5uskli4anjzfv8,QJ6cW9mL,2020-0188,2020-05-08,11:12:34,11:43:00,NA,incomplete,168,color,0,left,Purple_Triangle_Stripes_3.jpg,Purple_Star_Grid_4.jpg,Blue_Triangle_Chess_1.jpg,right,698.7050001043826,false,low,NA,NA,NA,NA,NA,NA,NA,false
QJ6cW9mL,33cla8o0nlo9ukh858i8v1jgjoffrm,31ibvunm9wc3abwj5uskli4anjzfv8,QJ6cW9mL,2020-0188,2020-05-08,11:12:34,11:43:00,NA,incomplete,169,color,1,right,Red_Circle_Grid_2.jpg,Purple_Circle_Stripes_4.jpg,Red_Triangle_Dots_1.jpg,right,665.5349999200553,true,low,NA,NA,NA,NA,NA,NA,NA,false
QJ6cW9mL,33cla8o0nlo9ukh858i8v1jgjoffrm,31ibvunm9wc3abwj5uskli4anjzfv8,QJ6cW9mL,2020-0188,2020-05-08,11:12:34,11:43:00,NA,incomplete,170,color,0,right,Green_Triangle_Dots_3.jpg,Red_Triangle_Stripes_4.jpg,Green_Star_Grid_2.jpg,right,590.0099999271333,true,low,NA,NA,NA,NA,NA,NA,NA,false
QJ6cW9mL,33cla8o0nlo9ukh858i8v1jgjoffrm,31ibvunm9wc3abwj5uskli4anjzfv8,QJ6cW9mL,2020-0188,2020-05-08,11:12:34,11:43:00,NA,incomplete,171,color,1,right,Purple_Plus_Stripes_4.jpg,Blue_Plus_Chess_1.jpg,Purple_Circle_Dots_2.jpg,left,647.6000000257045,false,low,NA,NA,NA,NA,NA,NA,NA,false
QJ6cW9mL,33cla8o0nlo9ukh858i8v1jgjoffrm,31ibvunm9wc3abwj5uskli4anjzfv8,QJ6cW9mL,2020-0188,2020-05-08,11:12:34,11:43:00,NA,incomplete,172,color,1,right,Purple_Circle_Chess_2.jpg,Blue_Circle_Stripes_1.jpg,Purple_Triangle_Grid_3.jpg,left,719.624999910593,false,low,NA,NA,NA,NA,NA,NA,NA,false
QJ6cW9mL,33cla8o0nlo9ukh858i8v1jgjoffrm,31ibvunm9wc3abwj5uskli4anjzfv8,QJ6cW9mL,2020-0188,2020-05-08,11:12:34,11:43:00,NA,incomplete,173,color,0,right,Purple_Plus_Grid_1.jpg,Red_Plus_Stripes_3.jpg,Purple_Triangle_Dots_2.jpg,left,703.660000115633,false,low,NA,NA,NA,NA,NA,NA,NA,false
QJ6cW9mL,33cla8o0nlo9ukh858i8v1jgjoffrm,31ibvunm9wc3abwj5uskli4anjzfv8,QJ6cW9mL,2020-0188,2020-05-08,11:12:34,11:43:00,NA,incomplete,174,color,1,right,Purple_Star_Grid_1.jpg,Blue_Star_Dots_2.jpg,Purple_Circle_Stripes_4.jpg,right,848.5050001181662,true,low,NA,NA,NA,NA,NA,NA,NA,false
QJ6cW9mL,33cla8o0nlo9ukh858i8v1jgjoffrm,31ibvunm9wc3abwj5uskli4anjzfv8,QJ6cW9mL,2020-0188,2020-05-08,11:12:34,11:43:00,NA,incomplete,175,color,1,right,Red_Triangle_Chess_2.jpg,Purple_Triangle_Dots_3.jpg,Red_Star_Stripes_4.jpg,right,690.500000026077,true,low,NA,NA,NA,NA,NA,NA,NA,false
QJ6cW9mL,33cla8o0nlo9ukh858i8v1jgjoffrm,31ibvunm9wc3abwj5uskli4anjzfv8,QJ6cW9mL,2020-0188,2020-05-08,11:12:34,11:43:00,NA,incomplete,176,color,1,right,Purple_Plus_Dots_4.jpg,Red_Plus_Grid_3.jpg,Purple_Circle_Stripes_2.jpg,right,652.7050000149757,true,low,NA,NA,NA,NA,NA,NA,NA,false
QJ6cW9mL,33cla8o0nlo9ukh858i8v1jgjoffrm,31ibvunm9wc3abwj5uskli4anjzfv8,QJ6cW9mL,2020-0188,2020-05-08,11:12:34,11:43:00,NA,incomplete,177,color,1,right,Green_Plus_Chess_3.jpg,Blue_Plus_Dots_2.jpg,Green_Triangle_Grid_4.jpg,right,463.359999936074,true,low,NA,NA,NA,NA,NA,NA,NA,false
QJ6cW9mL,33cla8o0nlo9ukh858i8v1jgjoffrm,31ibvunm9wc3abwj5uskli4anjzfv8,QJ6cW9mL,2020-0188,2020-05-08,11:12:34,11:43:00,NA,incomplete,178,color,1,left,Blue_Plus_Stripes_3.jpg,Blue_Star_Dots_4.jpg,Purple_Plus_Grid_1.jpg,left,729.3100000824779,true,low,NA,NA,NA,NA,NA,NA,NA,false
QJ6cW9mL,33cla8o0nlo9ukh858i8v1jgjoffrm,31ibvunm9wc3abwj5uskli4anjzfv8,QJ6cW9mL,2020-0188,2020-05-08,11:12:34,11:43:00,NA,incomplete,179,color,1,right,Purple_Triangle_Stripes_4.jpg,Green_Triangle_Chess_2.jpg,Purple_Star_Grid_3.jpg,right,638.2150000426918,true,low,NA,NA,NA,NA,NA,NA,NA,false
QJ6cW9mL,33cla8o0nlo9ukh858i8v1jgjoffrm,31ibvunm9wc3abwj5uskli4anjzfv8,QJ6cW9mL,2020-0188,2020-05-08,11:12:34,11:43:00,NA,incomplete,180,shape,1,right,Green_Star_Stripes_3.jpg,Green_Triangle_Grid_4.jpg,Red_Star_Dots_1.jpg,left,553.9599999319762,false,low,NA,NA,NA,NA,NA,NA,NA,false
QJ6cW9mL,33cla8o0nlo9ukh858i8v1jgjoffrm,31ibvunm9wc3abwj5uskli4anjzfv8,QJ6cW9mL,2020-0188,2020-05-08,11:12:34,11:43:00,NA,incomplete,181,shape,1,left,Red_Star_Grid_3.jpg,Blue_Star_Dots_2.jpg,Red_Plus_Chess_1.jpg,right,514.5499999634922,false,low,NA,NA,NA,NA,NA,NA,NA,false
QJ6cW9mL,33cla8o0nlo9ukh858i8v1jgjoffrm,31ibvunm9wc3abwj5uskli4anjzfv8,QJ6cW9mL,2020-0188,2020-05-08,11:12:34,11:43:00,NA,incomplete,182,shape,1,right,Blue_Star_Grid_1.jpg,Blue_Triangle_Dots_3.jpg,Green_Star_Stripes_4.jpg,left,530.409999890253,false,low,NA,NA,NA,NA,NA,NA,NA,false
QJ6cW9mL,33cla8o0nlo9ukh858i8v1jgjoffrm,31ibvunm9wc3abwj5uskli4anjzfv8,QJ6cW9mL,2020-0188,2020-05-08,11:12:34,11:43:00,NA,incomplete,183,shape,0,right,Blue_Triangle_Chess_1.jpg,Blue_Circle_Grid_2.jpg,Purple_Triangle_Dots_4.jpg,right,533.7350000627339,true,low,NA,NA,NA,NA,NA,NA,NA,false
QJ6cW9mL,33cla8o0nlo9ukh858i8v1jgjoffrm,31ibvunm9wc3abwj5uskli4anjzfv8,QJ6cW9mL,2020-0188,2020-05-08,11:12:34,11:43:00,NA,incomplete,184,shape,1,right,Blue_Star_Grid_4.jpg,Blue_Plus_Dots_1.jpg,Purple_Star_Stripes_3.jpg,right,457.56000000983477,true,low,NA,NA,NA,NA,NA,NA,NA,false
QJ6cW9mL,33cla8o0nlo9ukh858i8v1jgjoffrm,31ibvunm9wc3abwj5uskli4anjzfv8,QJ6cW9mL,2020-0188,2020-05-08,11:12:34,11:43:00,NA,incomplete,185,shape,1,left,Red_Circle_Dots_2.jpg,Purple_Circle_Chess_4.jpg,Red_Star_Grid_1.jpg,right,667.4949999433011,false,low,NA,NA,NA,NA,NA,NA,NA,false
QJ6cW9mL,33cla8o0nlo9ukh858i8v1jgjoffrm,31ibvunm9wc3abwj5uskli4anjzfv8,QJ6cW9mL,2020-0188,2020-05-08,11:12:34,11:43:00,NA,incomplete,186,shape,1,left,Purple_Plus_Chess_4.jpg,Green_Plus_Stripes_2.jpg,Purple_Circle_Dots_1.jpg,left,581.4350000582635,true,low,NA,NA,NA,NA,NA,NA,NA,false
QJ6cW9mL,33cla8o0nlo9ukh858i8v1jgjoffrm,31ibvunm9wc3abwj5uskli4anjzfv8,QJ6cW9mL,2020-0188,2020-05-08,11:12:34,11:43:00,NA,incomplete,187,shape,1,left,Blue_Triangle_Grid_3.jpg,Purple_Triangle_Dots_2.jpg,Blue_Star_Chess_4.jpg,right,636.9449999183416,false,low,NA,NA,NA,NA,NA,NA,NA,false
QJ6cW9mL,33cla8o0nlo9ukh858i8v1jgjoffrm,31ibvunm9wc3abwj5uskli4anjzfv8,QJ6cW9mL,2020-0188,2020-05-08,11:12:34,11:43:00,NA,incomplete,188,shape,1,left,Blue_Circle_Chess_3.jpg,Green_Circle_Dots_1.jpg,Blue_Plus_Stripes_4.jpg,left,597.865000134334,true,low,NA,NA,NA,NA,NA,NA,NA,false
QJ6cW9mL,33cla8o0nlo9ukh858i8v1jgjoffrm,31ibvunm9wc3abwj5uskli4anjzfv8,QJ6cW9mL,2020-0188,2020-05-08,11:12:34,11:43:00,NA,incomplete,189,shape,1,right,Blue_Star_Stripes_4.jpg,Blue_Circle_Chess_1.jpg,Green_Star_Grid_3.jpg,right,498.8750000484288,true,low,NA,NA,NA,NA,NA,NA,NA,false
QJ6cW9mL,33cla8o0nlo9ukh858i8v1jgjoffrm,31ibvunm9wc3abwj5uskli4anjzfv8,QJ6cW9mL,2020-0188,2020-05-08,11:12:34,11:43:00,NA,incomplete,190,shape,1,right,Purple_Triangle_Chess_2.jpg,Purple_Circle_Stripes_1.jpg,Red_Triangle_Dots_4.jpg,left,536.2150000873953,false,low,NA,NA,NA,NA,NA,NA,NA,false
QJ6cW9mL,33cla8o0nlo9ukh858i8v1jgjoffrm,31ibvunm9wc3abwj5uskli4anjzfv8,QJ6cW9mL,2020-0188,2020-05-08,11:12:34,11:43:00,NA,incomplete,191,shape,1,left,Blue_Triangle_Dots_2.jpg,Green_Triangle_Grid_3.jpg,Blue_Star_Stripes_4.jpg,left,583.1199998501688,true,low,NA,NA,NA,NA,NA,NA,NA,false
QJ6cW9mL,33cla8o0nlo9ukh858i8v1jgjoffrm,31ibvunm9wc3abwj5uskli4anjzfv8,QJ6cW9mL,2020-0188,2020-05-08,11:12:34,11:43:00,NA,incomplete,192,shape,1,left,Purple_Star_Chess_2.jpg,Blue_Star_Stripes_4.jpg,Purple_Plus_Grid_1.jpg,left,562.2449999209493,true,low,NA,NA,NA,NA,NA,NA,NA,false
QJ6cW9mL,33cla8o0nlo9ukh858i8v1jgjoffrm,31ibvunm9wc3abwj5uskli4anjzfv8,QJ6cW9mL,2020-0188,2020-05-08,11:12:34,11:43:00,NA,incomplete,193,shape,1,right,Blue_Star_Stripes_4.jpg,Blue_Plus_Chess_1.jpg,Purple_Star_Dots_2.jpg,right,657.6100001111627,true,low,NA,NA,NA,NA,NA,NA,NA,false
QJ6cW9mL,33cla8o0nlo9ukh858i8v1jgjoffrm,31ibvunm9wc3abwj5uskli4anjzfv8,QJ6cW9mL,2020-0188,2020-05-08,11:12:34,11:43:00,NA,incomplete,194,shape,1,left,Purple_Star_Grid_4.jpg,Red_Star_Chess_3.jpg,Purple_Plus_Stripes_1.jpg,left,463.9500000048429,true,low,NA,NA,NA,NA,NA,NA,NA,false
QJ6cW9mL,33cla8o0nlo9ukh858i8v1jgjoffrm,31ibvunm9wc3abwj5uskli4anjzfv8,QJ6cW9mL,2020-0188,2020-05-08,11:12:34,11:43:00,NA,incomplete,195,shape,1,right,Green_Circle_Dots_4.jpg,Green_Plus_Grid_1.jpg,Purple_Circle_Stripes_2.jpg,right,493.1850000284612,true,low,NA,NA,NA,NA,NA,NA,NA,false
QJ6cW9mL,33cla8o0nlo9ukh858i8v1jgjoffrm,31ibvunm9wc3abwj5uskli4anjzfv8,QJ6cW9mL,2020-0188,2020-05-08,11:12:34,11:43:00,NA,incomplete,196,shape,0,right,Blue_Star_Dots_4.jpg,Blue_Triangle_Chess_2.jpg,Purple_Star_Stripes_3.jpg,right,950.3550000954419,true,low,NA,NA,NA,NA,NA,NA,NA,false
QJ6cW9mL,33cla8o0nlo9ukh858i8v1jgjoffrm,31ibvunm9wc3abwj5uskli4anjzfv8,QJ6cW9mL,2020-0188,2020-05-08,11:12:34,11:43:00,NA,incomplete,197,shape,1,left,Green_Star_Stripes_4.jpg,Blue_Star_Grid_2.jpg,Green_Plus_Chess_1.jpg,left,568.2550000492483,true,low,NA,NA,NA,NA,NA,NA,NA,false
QJ6cW9mL,33cla8o0nlo9ukh858i8v1jgjoffrm,31ibvunm9wc3abwj5uskli4anjzfv8,QJ6cW9mL,2020-0188,2020-05-08,11:12:34,11:43:00,NA,incomplete,198,shape,1,right,Purple_Star_Grid_4.jpg,Purple_Plus_Dots_1.jpg,Green_Star_Chess_2.jpg,right,531.0149998404086,true,low,NA,NA,NA,NA,NA,NA,NA,false
QJ6cW9mL,33cla8o0nlo9ukh858i8v1jgjoffrm,31ibvunm9wc3abwj5uskli4anjzfv8,QJ6cW9mL,2020-0188,2020-05-08,11:12:34,11:43:00,NA,incomplete,199,shape,0,left,Purple_Plus_Chess_2.jpg,Blue_Plus_Dots_4.jpg,Purple_Star_Stripes_1.jpg,right,584.2550001107156,false,low,NA,NA,NA,NA,NA,NA,NA,false
QJ6cW9mL,33cla8o0nlo9ukh858i8v1jgjoffrm,31ibvunm9wc3abwj5uskli4anjzfv8,QJ6cW9mL,2020-0188,2020-05-08,11:12:34,11:43:00,NA,incomplete,200,color,1,left,Blue_Circle_Grid_4.jpg,Blue_Plus_Chess_1.jpg,Green_Circle_Stripes_2.jpg,right,767.665000166744,false,low,NA,NA,NA,NA,NA,NA,NA,false
QJ6cW9mL,33cla8o0nlo9ukh858i8v1jgjoffrm,31ibvunm9wc3abwj5uskli4anjzfv8,QJ6cW9mL,2020-0188,2020-05-08,11:12:34,11:43:00,NA,incomplete,201,color,1,left,Red_Circle_Chess_2.jpg,Red_Triangle_Grid_4.jpg,Blue_Circle_Stripes_3.jpg,left,630.2350000478327,true,low,NA,NA,NA,NA,NA,NA,NA,false
QJ6cW9mL,33cla8o0nlo9ukh858i8v1jgjoffrm,31ibvunm9wc3abwj5uskli4anjzfv8,QJ6cW9mL,2020-0188,2020-05-08,11:12:34,11:43:00,NA,incomplete,202,color,1,left,Blue_Star_Stripes_4.jpg,Blue_Triangle_Chess_1.jpg,Red_Star_Grid_3.jpg,right,645.3050000127405,false,low,NA,NA,NA,NA,NA,NA,NA,false
QJ6cW9mL,33cla8o0nlo9ukh858i8v1jgjoffrm,31ibvunm9wc3abwj5uskli4anjzfv8,QJ6cW9mL,2020-0188,2020-05-08,11:12:34,11:43:00,NA,incomplete,203,color,1,right,Red_Star_Chess_2.jpg,Green_Star_Grid_3.jpg,Red_Triangle_Stripes_1.jpg,right,600.6950000301003,true,low,NA,NA,NA,NA,NA,NA,NA,false
QJ6cW9mL,33cla8o0nlo9ukh858i8v1jgjoffrm,31ibvunm9wc3abwj5uskli4anjzfv8,QJ6cW9mL,2020-0188,2020-05-08,11:12:34,11:43:00,NA,incomplete,204,color,1,right,Green_Plus_Grid_4.jpg,Blue_Plus_Dots_3.jpg,Green_Triangle_Chess_2.jpg,left,682.0650000590831,false,low,NA,NA,NA,NA,NA,NA,NA,false
QJ6cW9mL,33cla8o0nlo9ukh858i8v1jgjoffrm,31ibvunm9wc3abwj5uskli4anjzfv8,QJ6cW9mL,2020-0188,2020-05-08,11:12:34,11:43:00,NA,incomplete,205,color,1,left,Green_Circle_Chess_2.jpg,Green_Plus_Stripes_1.jpg,Blue_Circle_Dots_4.jpg,right,575.8650000207126,false,low,NA,NA,NA,NA,NA,NA,NA,false
QJ6cW9mL,33cla8o0nlo9ukh858i8v1jgjoffrm,31ibvunm9wc3abwj5uskli4anjzfv8,QJ6cW9mL,2020-0188,2020-05-08,11:12:34,11:43:00,NA,incomplete,206,color,1,right,Red_Triangle_Stripes_3.jpg,Green_Triangle_Chess_2.jpg,Red_Plus_Grid_4.jpg,right,603.7350001279265,true,low,NA,NA,NA,NA,NA,NA,NA,false
QJ6cW9mL,33cla8o0nlo9ukh858i8v1jgjoffrm,31ibvunm9wc3abwj5uskli4anjzfv8,QJ6cW9mL,2020-0188,2020-05-08,11:12:34,11:43:00,NA,incomplete,207,color,1,right,Blue_Star_Chess_2.jpg,Red_Star_Stripes_1.jpg,Blue_Plus_Grid_4.jpg,right,544.5599998347461,true,low,NA,NA,NA,NA,NA,NA,NA,false
QJ6cW9mL,33cla8o0nlo9ukh858i8v1jgjoffrm,31ibvunm9wc3abwj5uskli4anjzfv8,QJ6cW9mL,2020-0188,2020-05-08,11:12:34,11:43:00,NA,incomplete,208,color,1,left,Purple_Circle_Stripes_3.jpg,Purple_Triangle_Dots_4.jpg,Red_Circle_Chess_2.jpg,left,566.3549997843802,true,low,NA,NA,NA,NA,NA,NA,NA,false
QJ6cW9mL,33cla8o0nlo9ukh858i8v1jgjoffrm,31ibvunm9wc3abwj5uskli4anjzfv8,QJ6cW9mL,2020-0188,2020-05-08,11:12:34,11:43:00,NA,incomplete,209,color,0,right,Blue_Star_Dots_2.jpg,Red_Star_Grid_4.jpg,Blue_Plus_Stripes_3.jpg,right,548.9050000905991,true,low,NA,NA,NA,NA,NA,NA,NA,false
QJ6cW9mL,33cla8o0nlo9ukh858i8v1jgjoffrm,31ibvunm9wc3abwj5uskli4anjzfv8,QJ6cW9mL,2020-0188,2020-05-08,11:12:34,11:43:00,NA,incomplete,210,color,1,left,Green_Star_Grid_1.jpg,Green_Circle_Dots_3.jpg,Red_Star_Stripes_4.jpg,right,633.8450000621378,false,low,NA,NA,NA,NA,NA,NA,NA,false
QJ6cW9mL,33cla8o0nlo9ukh858i8v1jgjoffrm,31ibvunm9wc3abwj5uskli4anjzfv8,QJ6cW9mL,2020-0188,2020-05-08,11:12:34,11:43:00,NA,incomplete,211,color,1,right,Purple_Star_Grid_2.jpg,Red_Star_Stripes_3.jpg,Purple_Plus_Chess_1.jpg,right,583.1599999219179,true,low,NA,NA,NA,NA,NA,NA,NA,false
QJ6cW9mL,33cla8o0nlo9ukh858i8v1jgjoffrm,31ibvunm9wc3abwj5uskli4anjzfv8,QJ6cW9mL,2020-0188,2020-05-08,11:12:34,11:43:00,NA,incomplete,212,color,0,left,Red_Plus_Grid_3.jpg,Red_Circle_Stripes_1.jpg,Purple_Plus_Dots_4.jpg,left,668.8900000881404,true,low,NA,NA,NA,NA,NA,NA,NA,false
QJ6cW9mL,33cla8o0nlo9ukh858i8v1jgjoffrm,31ibvunm9wc3abwj5uskli4anjzfv8,QJ6cW9mL,2020-0188,2020-05-08,11:12:34,11:43:00,NA,incomplete,213,color,1,right,Red_Triangle_Dots_2.jpg,Purple_Triangle_Grid_1.jpg,Red_Circle_Chess_3.jpg,right,494.1549999639392,true,low,NA,NA,NA,NA,NA,NA,NA,false
QJ6cW9mL,33cla8o0nlo9ukh858i8v1jgjoffrm,31ibvunm9wc3abwj5uskli4anjzfv8,QJ6cW9mL,2020-0188,2020-05-08,11:12:34,11:43:00,NA,incomplete,214,color,1,left,Purple_Star_Stripes_3.jpg,Purple_Circle_Grid_1.jpg,Blue_Star_Dots_2.jpg,left,775.1699998043478,true,low,NA,NA,NA,NA,NA,NA,NA,false
QJ6cW9mL,33cla8o0nlo9ukh858i8v1jgjoffrm,31ibvunm9wc3abwj5uskli4anjzfv8,QJ6cW9mL,2020-0188,2020-05-08,11:12:34,11:43:00,NA,incomplete,215,color,1,left,Red_Circle_Dots_1.jpg,Red_Star_Stripes_3.jpg,Blue_Circle_Grid_2.jpg,left,579.8800000920892,true,low,NA,NA,NA,NA,NA,NA,NA,false
QJ6cW9mL,33cla8o0nlo9ukh858i8v1jgjoffrm,31ibvunm9wc3abwj5uskli4anjzfv8,QJ6cW9mL,2020-0188,2020-05-08,11:12:34,11:43:00,NA,incomplete,216,color,1,right,Green_Circle_Chess_4.jpg,Blue_Circle_Dots_2.jpg,Green_Plus_Grid_1.jpg,right,513.5949999094009,true,low,NA,NA,NA,NA,NA,NA,NA,false
QJ6cW9mL,33cla8o0nlo9ukh858i8v1jgjoffrm,31ibvunm9wc3abwj5uskli4anjzfv8,QJ6cW9mL,2020-0188,2020-05-08,11:12:34,11:43:00,NA,incomplete,217,color,1,left,Purple_Circle_Dots_2.jpg,Purple_Plus_Stripes_4.jpg,Red_Circle_Grid_1.jpg,left,553.6950000096112,true,low,NA,NA,NA,NA,NA,NA,NA,false
QJ6cW9mL,33cla8o0nlo9ukh858i8v1jgjoffrm,31ibvunm9wc3abwj5uskli4anjzfv8,QJ6cW9mL,2020-0188,2020-05-08,11:12:34,11:43:00,NA,incomplete,218,color,1,left,Red_Circle_Stripes_4.jpg,Red_Plus_Chess_1.jpg,Green_Circle_Dots_2.jpg,left,583.9500001166016,true,low,NA,NA,NA,NA,NA,NA,NA,false
QJ6cW9mL,33cla8o0nlo9ukh858i8v1jgjoffrm,31ibvunm9wc3abwj5uskli4anjzfv8,QJ6cW9mL,2020-0188,2020-05-08,11:12:34,11:43:00,NA,incomplete,219,color,0,left,Red_Circle_Dots_3.jpg,Red_Plus_Chess_1.jpg,Blue_Circle_Stripes_2.jpg,left,551.9650001078844,true,low,NA,NA,NA,NA,NA,NA,NA,false
QJ6cW9mL,33cla8o0nlo9ukh858i8v1jgjoffrm,31ibvunm9wc3abwj5uskli4anjzfv8,QJ6cW9mL,2020-0188,2020-05-08,11:12:34,11:43:00,NA,incomplete,220,shape,1,right,Purple_Triangle_Stripes_3.jpg,Purple_Plus_Grid_1.jpg,Red_Triangle_Dots_2.jpg,right,627.5549998972565,true,low,NA,NA,NA,NA,NA,NA,NA,false
QJ6cW9mL,33cla8o0nlo9ukh858i8v1jgjoffrm,31ibvunm9wc3abwj5uskli4anjzfv8,QJ6cW9mL,2020-0188,2020-05-08,11:12:34,11:43:00,NA,incomplete,221,shape,1,right,Green_Triangle_Grid_4.jpg,Green_Plus_Stripes_3.jpg,Red_Triangle_Chess_2.jpg,left,554.4350000564009,false,low,NA,NA,NA,NA,NA,NA,NA,false
QJ6cW9mL,33cla8o0nlo9ukh858i8v1jgjoffrm,31ibvunm9wc3abwj5uskli4anjzfv8,QJ6cW9mL,2020-0188,2020-05-08,11:12:34,11:43:00,NA,incomplete,222,shape,1,right,Blue_Plus_Stripes_3.jpg,Blue_Triangle_Chess_4.jpg,Red_Plus_Grid_1.jpg,left,705.6550001725554,false,low,NA,NA,NA,NA,NA,NA,NA,false
QJ6cW9mL,33cla8o0nlo9ukh858i8v1jgjoffrm,31ibvunm9wc3abwj5uskli4anjzfv8,QJ6cW9mL,2020-0188,2020-05-08,11:12:34,11:43:00,NA,incomplete,223,shape,0,right,Purple_Triangle_Grid_3.jpg,Purple_Star_Dots_4.jpg,Green_Triangle_Stripes_2.jpg,right,546.3450001552701,true,low,NA,NA,NA,NA,NA,NA,NA,false
QJ6cW9mL,33cla8o0nlo9ukh858i8v1jgjoffrm,31ibvunm9wc3abwj5uskli4anjzfv8,QJ6cW9mL,2020-0188,2020-05-08,11:12:34,11:43:00,NA,incomplete,224,shape,1,right,Red_Star_Chess_4.jpg,Red_Circle_Dots_1.jpg,Purple_Star_Stripes_2.jpg,right,447.66499986872077,true,low,NA,NA,NA,NA,NA,NA,NA,false
QJ6cW9mL,33cla8o0nlo9ukh858i8v1jgjoffrm,31ibvunm9wc3abwj5uskli4anjzfv8,QJ6cW9mL,2020-0188,2020-05-08,11:12:34,11:43:00,NA,incomplete,225,shape,1,left,Red_Circle_Stripes_3.jpg,Blue_Circle_Dots_2.jpg,Red_Triangle_Grid_4.jpg,right,449.8199999798089,false,low,NA,NA,NA,NA,NA,NA,NA,false
QJ6cW9mL,33cla8o0nlo9ukh858i8v1jgjoffrm,31ibvunm9wc3abwj5uskli4anjzfv8,QJ6cW9mL,2020-0188,2020-05-08,11:12:34,11:43:00,NA,incomplete,226,shape,0,left,Red_Star_Dots_4.jpg,Purple_Star_Stripes_2.jpg,Red_Plus_Grid_3.jpg,left,541.5900000371039,true,low,NA,NA,NA,NA,NA,NA,NA,false
QJ6cW9mL,33cla8o0nlo9ukh858i8v1jgjoffrm,31ibvunm9wc3abwj5uskli4anjzfv8,QJ6cW9mL,2020-0188,2020-05-08,11:12:34,11:43:00,NA,incomplete,227,shape,1,left,Blue_Triangle_Grid_2.jpg,Green_Triangle_Dots_3.jpg,Blue_Plus_Stripes_1.jpg,right,438.8649999164045,false,low,NA,NA,NA,NA,NA,NA,NA,false
QJ6cW9mL,33cla8o0nlo9ukh858i8v1jgjoffrm,31ibvunm9wc3abwj5uskli4anjzfv8,QJ6cW9mL,2020-0188,2020-05-08,11:12:34,11:43:00,NA,incomplete,228,shape,1,right,Green_Triangle_Chess_4.jpg,Green_Star_Grid_1.jpg,Red_Triangle_Dots_3.jpg,right,611.4950000774115,true,low,NA,NA,NA,NA,NA,NA,NA,false
QJ6cW9mL,33cla8o0nlo9ukh858i8v1jgjoffrm,31ibvunm9wc3abwj5uskli4anjzfv8,QJ6cW9mL,2020-0188,2020-05-08,11:12:34,11:43:00,NA,incomplete,229,shape,0,right,Purple_Star_Stripes_2.jpg,Purple_Circle_Dots_4.jpg,Green_Star_Grid_1.jpg,right,475.899999961257,true,low,NA,NA,NA,NA,NA,NA,NA,false
QJ6cW9mL,33cla8o0nlo9ukh858i8v1jgjoffrm,31ibvunm9wc3abwj5uskli4anjzfv8,QJ6cW9mL,2020-0188,2020-05-08,11:12:34,11:43:00,NA,incomplete,230,shape,1,left,Red_Circle_Chess_2.jpg,Green_Circle_Stripes_3.jpg,Red_Plus_Grid_4.jpg,right,527.18500001356,false,low,NA,NA,NA,NA,NA,NA,NA,false
QJ6cW9mL,33cla8o0nlo9ukh858i8v1jgjoffrm,31ibvunm9wc3abwj5uskli4anjzfv8,QJ6cW9mL,2020-0188,2020-05-08,11:12:34,11:43:00,NA,incomplete,231,shape,1,left,Blue_Plus_Stripes_2.jpg,Red_Plus_Grid_1.jpg,Blue_Triangle_Chess_3.jpg,right,428.4399999305606,false,low,NA,NA,NA,NA,NA,NA,NA,false
QJ6cW9mL,33cla8o0nlo9ukh858i8v1jgjoffrm,31ibvunm9wc3abwj5uskli4anjzfv8,QJ6cW9mL,2020-0188,2020-05-08,11:12:34,11:43:00,NA,incomplete,232,shape,1,right,Green_Triangle_Dots_4.jpg,Green_Circle_Grid_2.jpg,Purple_Triangle_Stripes_3.jpg,left,427.1599999628961,false,low,NA,NA,NA,NA,NA,NA,NA,false
QJ6cW9mL,33cla8o0nlo9ukh858i8v1jgjoffrm,31ibvunm9wc3abwj5uskli4anjzfv8,QJ6cW9mL,2020-0188,2020-05-08,11:12:34,11:43:00,NA,incomplete,233,shape,1,right,Blue_Plus_Stripes_4.jpg,Blue_Star_Grid_3.jpg,Purple_Plus_Dots_1.jpg,right,486.70500004664063,true,low,NA,NA,NA,NA,NA,NA,NA,false
QJ6cW9mL,33cla8o0nlo9ukh858i8v1jgjoffrm,31ibvunm9wc3abwj5uskli4anjzfv8,QJ6cW9mL,2020-0188,2020-05-08,11:12:34,11:43:00,NA,incomplete,234,shape,1,right,Green_Star_Stripes_3.jpg,Green_Plus_Grid_2.jpg,Blue_Star_Dots_1.jpg,right,439.21499978750944,true,low,NA,NA,NA,NA,NA,NA,NA,false
QJ6cW9mL,33cla8o0nlo9ukh858i8v1jgjoffrm,31ibvunm9wc3abwj5uskli4anjzfv8,QJ6cW9mL,2020-0188,2020-05-08,11:12:34,11:43:00,NA,incomplete,235,shape,1,left,Purple_Plus_Stripes_3.jpg,Blue_Plus_Dots_4.jpg,Purple_Triangle_Chess_2.jpg,left,474.4700000155717,true,low,NA,NA,NA,NA,NA,NA,NA,false
QJ6cW9mL,33cla8o0nlo9ukh858i8v1jgjoffrm,31ibvunm9wc3abwj5uskli4anjzfv8,QJ6cW9mL,2020-0188,2020-05-08,11:12:34,11:43:00,NA,incomplete,236,shape,1,left,Red_Triangle_Grid_2.jpg,Purple_Triangle_Chess_3.jpg,Red_Plus_Stripes_4.jpg,left,564.82999981381,true,low,NA,NA,NA,NA,NA,NA,NA,false
QJ6cW9mL,33cla8o0nlo9ukh858i8v1jgjoffrm,31ibvunm9wc3abwj5uskli4anjzfv8,QJ6cW9mL,2020-0188,2020-05-08,11:12:34,11:43:00,NA,incomplete,237,shape,1,left,Green_Star_Grid_1.jpg,Blue_Star_Dots_3.jpg,Green_Plus_Chess_2.jpg,left,573.8550000824034,true,low,NA,NA,NA,NA,NA,NA,NA,false
QJ6cW9mL,33cla8o0nlo9ukh858i8v1jgjoffrm,31ibvunm9wc3abwj5uskli4anjzfv8,QJ6cW9mL,2020-0188,2020-05-08,11:12:34,11:43:00,NA,incomplete,238,shape,0,left,Red_Star_Chess_3.jpg,Blue_Star_Grid_4.jpg,Red_Circle_Dots_1.jpg,left,457.41999987512827,true,low,NA,NA,NA,NA,NA,NA,NA,false
QJ6cW9mL,33cla8o0nlo9ukh858i8v1jgjoffrm,31ibvunm9wc3abwj5uskli4anjzfv8,QJ6cW9mL,2020-0188,2020-05-08,11:12:34,11:43:00,NA,incomplete,239,shape,1,right,Blue_Circle_Stripes_2.jpg,Blue_Star_Chess_1.jpg,Green_Circle_Grid_4.jpg,right,459.8550000227988,true,low,NA,NA,NA,NA,NA,NA,NA,false
QJ6cW9mL,33cla8o0nlo9ukh858i8v1jgjoffrm,31ibvunm9wc3abwj5uskli4anjzfv8,QJ6cW9mL,2020-0188,2020-05-08,11:12:34,11:43:00,1669995.5450000707,1827074.4600000326,NA,NA,NA,NA,NA,NA,NA,NA,NA,NA,NA,43,White/Caucasian,Male,Do not wish to reply,Do not wish to reply,Do not wish to reply,no,undefined
