workerId,hitId,assignmentId,subject,studyid,exp_date,exp_start,exp_end,time_start,time_end,trial,type,reward_validity,answer,image_top,image_left,image_right,response,response_time,response_acc,volatility,practice
LE9cNUlz,3b6f54kms5pu5knddy3sw9ki4gws13,320duz38gbz0xgskzpkj0ftst7qgjd,LE9cNUlz,2020-0188,2020-05-07,16:08:18,16:41:17,NA,incomplete,0,number,1,left,Green_Circle_Dots_2.jpg,Purple_Star_Grid_2.jpg,Green_Plus_Chess_4.jpg,left,917.1450003050268,true,NA,true
LE9cNUlz,3b6f54kms5pu5knddy3sw9ki4gws13,320duz38gbz0xgskzpkj0ftst7qgjd,LE9cNUlz,2020-0188,2020-05-07,16:08:18,16:41:17,NA,incomplete,1,number,1,right,Green_Circle_Chess_1.jpg,Green_Plus_Dots_4.jpg,Red_Star_Grid_1.jpg,right,764.1000002622604,true,NA,true
LE9cNUlz,3b6f54kms5pu5knddy3sw9ki4gws13,320duz38gbz0xgskzpkj0ftst7qgjd,LE9cNUlz,2020-0188,2020-05-07,16:08:18,16:41:17,NA,incomplete,2,number,1,left,Red_Plus_Chess_2.jpg,Purple_Triangle_Stripes_2.jpg,Red_Circle_Grid_3.jpg,left,883.390000090003,true,NA,true
LE9cNUlz,3b6f54kms5pu5knddy3sw9ki4gws13,320duz38gbz0xgskzpkj0ftst7qgjd,LE9cNUlz,2020-0188,2020-05-07,16:08:18,16:41:17,NA,incomplete,3,number,0,right,Red_Star_Stripes_4.jpg,Red_Plus_Dots_1.jpg,Blue_Triangle_Chess_4.jpg,right,715.1649999432266,true,NA,true
LE9cNUlz,3b6f54kms5pu5knddy3sw9ki4gws13,320duz38gbz0xgskzpkj0ftst7qgjd,LE9cNUlz,2020-0188,2020-05-07,16:08:18,16:41:17,NA,incomplete,4,number,1,left,Blue_Triangle_Chess_3.jpg,Purple_Circle_Grid_3.jpg,Blue_Plus_Dots_4.jpg,left,807.1900000795722,true,NA,true
LE9cNUlz,3b6f54kms5pu5knddy3sw9ki4gws13,320duz38gbz0xgskzpkj0ftst7qgjd,LE9cNUlz,2020-0188,2020-05-07,16:08:18,16:41:17,NA,incomplete,5,number,1,right,Blue_Star_Grid_4.jpg,Blue_Circle_Chess_1.jpg,Green_Triangle_Dots_4.jpg,right,656.965000089258,true,NA,true
LE9cNUlz,3b6f54kms5pu5knddy3sw9ki4gws13,320duz38gbz0xgskzpkj0ftst7qgjd,LE9cNUlz,2020-0188,2020-05-07,16:08:18,16:41:17,NA,incomplete,6,number,1,left,Red_Circle_Stripes_4.jpg,Purple_Plus_Chess_4.jpg,Red_Triangle_Dots_3.jpg,left,915.1949998922646,true,NA,true
LE9cNUlz,3b6f54kms5pu5knddy3sw9ki4gws13,320duz38gbz0xgskzpkj0ftst7qgjd,LE9cNUlz,2020-0188,2020-05-07,16:08:18,16:41:17,NA,incomplete,7,number,0,right,Purple_Plus_Grid_4.jpg,Purple_Star_Chess_2.jpg,Red_Circle_Dots_4.jpg,right,651.6050002537668,true,NA,true
LE9cNUlz,3b6f54kms5pu5knddy3sw9ki4gws13,320duz38gbz0xgskzpkj0ftst7qgjd,LE9cNUlz,2020-0188,2020-05-07,16:08:18,16:41:17,NA,incomplete,8,number,0,left,Purple_Star_Chess_1.jpg,Red_Plus_Grid_1.jpg,Purple_Circle_Dots_3.jpg,left,468.8049997203052,true,NA,true
LE9cNUlz,3b6f54kms5pu5knddy3sw9ki4gws13,320duz38gbz0xgskzpkj0ftst7qgjd,LE9cNUlz,2020-0188,2020-05-07,16:08:18,16:41:17,NA,incomplete,9,number,0,right,Green_Star_Chess_4.jpg,Green_Plus_Dots_1.jpg,Blue_Triangle_Grid_4.jpg,right,888.3849997073412,true,NA,true
LE9cNUlz,3b6f54kms5pu5knddy3sw9ki4gws13,320duz38gbz0xgskzpkj0ftst7qgjd,LE9cNUlz,2020-0188,2020-05-07,16:08:18,16:41:17,NA,incomplete,10,number,1,left,Blue_Triangle_Dots_2.jpg,Purple_Circle_Chess_2.jpg,Blue_Plus_Grid_1.jpg,right,1089.17500032112,false,NA,true
LE9cNUlz,3b6f54kms5pu5knddy3sw9ki4gws13,320duz38gbz0xgskzpkj0ftst7qgjd,LE9cNUlz,2020-0188,2020-05-07,16:08:18,16:41:17,NA,incomplete,11,number,1,left,Green_Triangle_Grid_4.jpg,Purple_Circle_Stripes_4.jpg,Green_Plus_Chess_2.jpg,left,880.4349997080863,true,NA,true
LE9cNUlz,3b6f54kms5pu5knddy3sw9ki4gws13,320duz38gbz0xgskzpkj0ftst7qgjd,LE9cNUlz,2020-0188,2020-05-07,16:08:18,16:41:17,NA,incomplete,12,number,1,right,Blue_Plus_Dots_1.jpg,Blue_Star_Stripes_3.jpg,Red_Triangle_Chess_1.jpg,right,522.4800002761185,true,NA,true
LE9cNUlz,3b6f54kms5pu5knddy3sw9ki4gws13,320duz38gbz0xgskzpkj0ftst7qgjd,LE9cNUlz,2020-0188,2020-05-07,16:08:18,16:41:17,NA,incomplete,13,number,1,left,Purple_Triangle_Dots_4.jpg,Red_Plus_Stripes_4.jpg,Purple_Circle_Grid_1.jpg,left,554.2000001296401,true,NA,true
LE9cNUlz,3b6f54kms5pu5knddy3sw9ki4gws13,320duz38gbz0xgskzpkj0ftst7qgjd,LE9cNUlz,2020-0188,2020-05-07,16:08:18,16:41:17,NA,incomplete,14,number,1,right,Red_Star_Grid_1.jpg,Red_Plus_Chess_2.jpg,Purple_Triangle_Stripes_1.jpg,right,585.1199999451637,true,NA,true
LE9cNUlz,3b6f54kms5pu5knddy3sw9ki4gws13,320duz38gbz0xgskzpkj0ftst7qgjd,LE9cNUlz,2020-0188,2020-05-07,16:08:18,16:41:17,NA,incomplete,15,number,1,left,Green_Star_Dots_3.jpg,Blue_Triangle_Stripes_3.jpg,Green_Plus_Grid_2.jpg,left,541.9200002215803,true,NA,true
LE9cNUlz,3b6f54kms5pu5knddy3sw9ki4gws13,320duz38gbz0xgskzpkj0ftst7qgjd,LE9cNUlz,2020-0188,2020-05-07,16:08:18,16:41:17,NA,incomplete,16,number,1,left,Green_Plus_Grid_4.jpg,Red_Triangle_Chess_4.jpg,Green_Circle_Dots_1.jpg,left,477.77000023052096,true,NA,true
LE9cNUlz,3b6f54kms5pu5knddy3sw9ki4gws13,320duz38gbz0xgskzpkj0ftst7qgjd,LE9cNUlz,2020-0188,2020-05-07,16:08:18,16:41:17,NA,incomplete,17,number,1,left,Red_Plus_Chess_3.jpg,Purple_Circle_Stripes_3.jpg,Red_Triangle_Grid_2.jpg,left,542.9199999198318,true,NA,true
LE9cNUlz,3b6f54kms5pu5knddy3sw9ki4gws13,320duz38gbz0xgskzpkj0ftst7qgjd,LE9cNUlz,2020-0188,2020-05-07,16:08:18,16:41:17,NA,incomplete,18,number,1,right,Blue_Plus_Chess_2.jpg,Blue_Circle_Grid_4.jpg,Purple_Star_Dots_2.jpg,right,564.9850000627339,true,NA,true
LE9cNUlz,3b6f54kms5pu5knddy3sw9ki4gws13,320duz38gbz0xgskzpkj0ftst7qgjd,LE9cNUlz,2020-0188,2020-05-07,16:08:18,16:41:17,NA,incomplete,19,number,1,right,Blue_Triangle_Chess_4.jpg,Blue_Circle_Dots_3.jpg,Green_Star_Stripes_4.jpg,right,499.3050000630319,true,NA,true
LE9cNUlz,3b6f54kms5pu5knddy3sw9ki4gws13,320duz38gbz0xgskzpkj0ftst7qgjd,LE9cNUlz,2020-0188,2020-05-07,16:08:18,16:41:17,NA,incomplete,20,color,1,right,Green_Triangle_Stripes_3.jpg,Purple_Circle_Dots_3.jpg,Green_Plus_Grid_1.jpg,left,533.5249998606741,false,NA,true
LE9cNUlz,3b6f54kms5pu5knddy3sw9ki4gws13,320duz38gbz0xgskzpkj0ftst7qgjd,LE9cNUlz,2020-0188,2020-05-07,16:08:18,16:41:17,NA,incomplete,21,color,1,right,Purple_Star_Stripes_1.jpg,Green_Circle_Chess_1.jpg,Purple_Plus_Grid_3.jpg,right,459.6899999305606,true,NA,true
LE9cNUlz,3b6f54kms5pu5knddy3sw9ki4gws13,320duz38gbz0xgskzpkj0ftst7qgjd,LE9cNUlz,2020-0188,2020-05-07,16:08:18,16:41:17,NA,incomplete,22,color,0,left,Green_Star_Stripes_4.jpg,Green_Plus_Chess_3.jpg,Purple_Circle_Dots_4.jpg,left,380.8200000785291,true,NA,true
LE9cNUlz,3b6f54kms5pu5knddy3sw9ki4gws13,320duz38gbz0xgskzpkj0ftst7qgjd,LE9cNUlz,2020-0188,2020-05-07,16:08:18,16:41:17,NA,incomplete,23,color,1,left,Green_Circle_Stripes_4.jpg,Green_Star_Dots_3.jpg,Red_Triangle_Chess_4.jpg,left,394.6299999952316,true,NA,true
LE9cNUlz,3b6f54kms5pu5knddy3sw9ki4gws13,320duz38gbz0xgskzpkj0ftst7qgjd,LE9cNUlz,2020-0188,2020-05-07,16:08:18,16:41:17,NA,incomplete,24,color,1,left,Red_Circle_Dots_3.jpg,Red_Star_Stripes_4.jpg,Green_Plus_Chess_3.jpg,left,383.0200000666082,true,NA,true
LE9cNUlz,3b6f54kms5pu5knddy3sw9ki4gws13,320duz38gbz0xgskzpkj0ftst7qgjd,LE9cNUlz,2020-0188,2020-05-07,16:08:18,16:41:17,NA,incomplete,25,color,1,left,Green_Plus_Grid_4.jpg,Green_Star_Stripes_2.jpg,Red_Circle_Dots_4.jpg,right,476.62000032141805,false,NA,true
LE9cNUlz,3b6f54kms5pu5knddy3sw9ki4gws13,320duz38gbz0xgskzpkj0ftst7qgjd,LE9cNUlz,2020-0188,2020-05-07,16:08:18,16:41:17,NA,incomplete,26,color,1,right,Blue_Triangle_Dots_4.jpg,Green_Plus_Grid_4.jpg,Blue_Star_Stripes_1.jpg,right,462.6600001938641,true,NA,true
LE9cNUlz,3b6f54kms5pu5knddy3sw9ki4gws13,320duz38gbz0xgskzpkj0ftst7qgjd,LE9cNUlz,2020-0188,2020-05-07,16:08:18,16:41:17,NA,incomplete,27,color,1,left,Blue_Plus_Chess_4.jpg,Blue_Star_Stripes_2.jpg,Green_Triangle_Dots_4.jpg,left,538.7249998748302,true,NA,true
LE9cNUlz,3b6f54kms5pu5knddy3sw9ki4gws13,320duz38gbz0xgskzpkj0ftst7qgjd,LE9cNUlz,2020-0188,2020-05-07,16:08:18,16:41:17,NA,incomplete,28,color,1,right,Blue_Plus_Stripes_1.jpg,Red_Circle_Dots_1.jpg,Blue_Star_Grid_3.jpg,right,416.8450003489852,true,NA,true
LE9cNUlz,3b6f54kms5pu5knddy3sw9ki4gws13,320duz38gbz0xgskzpkj0ftst7qgjd,LE9cNUlz,2020-0188,2020-05-07,16:08:18,16:41:17,NA,incomplete,29,color,0,right,Purple_Triangle_Grid_3.jpg,Blue_Plus_Dots_3.jpg,Purple_Star_Stripes_4.jpg,right,370.664999820292,true,NA,true
LE9cNUlz,3b6f54kms5pu5knddy3sw9ki4gws13,320duz38gbz0xgskzpkj0ftst7qgjd,LE9cNUlz,2020-0188,2020-05-07,16:08:18,16:41:17,NA,incomplete,30,color,1,right,Red_Star_Chess_1.jpg,Blue_Circle_Stripes_1.jpg,Red_Plus_Dots_4.jpg,right,401.52000030502677,true,NA,true
LE9cNUlz,3b6f54kms5pu5knddy3sw9ki4gws13,320duz38gbz0xgskzpkj0ftst7qgjd,LE9cNUlz,2020-0188,2020-05-07,16:08:18,16:41:17,NA,incomplete,31,color,1,right,Blue_Plus_Dots_3.jpg,Green_Triangle_Grid_3.jpg,Blue_Star_Stripes_2.jpg,right,383.2249999977648,true,NA,true
LE9cNUlz,3b6f54kms5pu5knddy3sw9ki4gws13,320duz38gbz0xgskzpkj0ftst7qgjd,LE9cNUlz,2020-0188,2020-05-07,16:08:18,16:41:17,NA,incomplete,32,color,1,left,Red_Triangle_Dots_1.jpg,Red_Circle_Chess_4.jpg,Blue_Plus_Grid_1.jpg,left,387.50499999150634,true,NA,true
LE9cNUlz,3b6f54kms5pu5knddy3sw9ki4gws13,320duz38gbz0xgskzpkj0ftst7qgjd,LE9cNUlz,2020-0188,2020-05-07,16:08:18,16:41:17,NA,incomplete,33,color,1,right,Red_Star_Dots_2.jpg,Green_Circle_Chess_2.jpg,Red_Plus_Grid_4.jpg,right,376.24000012874603,true,NA,true
LE9cNUlz,3b6f54kms5pu5knddy3sw9ki4gws13,320duz38gbz0xgskzpkj0ftst7qgjd,LE9cNUlz,2020-0188,2020-05-07,16:08:18,16:41:17,NA,incomplete,34,color,0,left,Green_Circle_Stripes_2.jpg,Green_Star_Grid_3.jpg,Purple_Triangle_Dots_2.jpg,left,365.6350001692772,true,NA,true
LE9cNUlz,3b6f54kms5pu5knddy3sw9ki4gws13,320duz38gbz0xgskzpkj0ftst7qgjd,LE9cNUlz,2020-0188,2020-05-07,16:08:18,16:41:17,NA,incomplete,35,color,1,left,Purple_Plus_Grid_1.jpg,Purple_Star_Dots_2.jpg,Red_Circle_Chess_1.jpg,left,460.2199997752905,true,NA,true
LE9cNUlz,3b6f54kms5pu5knddy3sw9ki4gws13,320duz38gbz0xgskzpkj0ftst7qgjd,LE9cNUlz,2020-0188,2020-05-07,16:08:18,16:41:17,NA,incomplete,36,color,0,right,Purple_Star_Grid_4.jpg,Red_Triangle_Chess_4.jpg,Purple_Plus_Dots_3.jpg,right,398.64999987185,true,NA,true
LE9cNUlz,3b6f54kms5pu5knddy3sw9ki4gws13,320duz38gbz0xgskzpkj0ftst7qgjd,LE9cNUlz,2020-0188,2020-05-07,16:08:18,16:41:17,NA,incomplete,37,color,1,right,Purple_Triangle_Chess_4.jpg,Green_Plus_Stripes_4.jpg,Purple_Circle_Grid_2.jpg,right,380.5549996905029,true,NA,true
LE9cNUlz,3b6f54kms5pu5knddy3sw9ki4gws13,320duz38gbz0xgskzpkj0ftst7qgjd,LE9cNUlz,2020-0188,2020-05-07,16:08:18,16:41:17,NA,incomplete,38,color,1,right,Purple_Circle_Stripes_4.jpg,Green_Plus_Grid_4.jpg,Purple_Star_Chess_1.jpg,right,352.7699997648597,true,NA,true
LE9cNUlz,3b6f54kms5pu5knddy3sw9ki4gws13,320duz38gbz0xgskzpkj0ftst7qgjd,LE9cNUlz,2020-0188,2020-05-07,16:08:18,16:41:17,NA,incomplete,39,color,1,right,Green_Triangle_Dots_3.jpg,Blue_Circle_Stripes_3.jpg,Green_Plus_Chess_4.jpg,right,375.18500024452806,true,NA,true
LE9cNUlz,3b6f54kms5pu5knddy3sw9ki4gws13,320duz38gbz0xgskzpkj0ftst7qgjd,LE9cNUlz,2020-0188,2020-05-07,16:08:18,16:41:17,NA,incomplete,0,number,1,left,Blue_Triangle_Grid_4.jpg,Green_Plus_Stripes_4.jpg,Blue_Star_Dots_1.jpg,left,760.9549998305738,true,low,false
LE9cNUlz,3b6f54kms5pu5knddy3sw9ki4gws13,320duz38gbz0xgskzpkj0ftst7qgjd,LE9cNUlz,2020-0188,2020-05-07,16:08:18,16:41:17,NA,incomplete,1,number,1,left,Purple_Circle_Chess_3.jpg,Blue_Star_Stripes_3.jpg,Purple_Plus_Grid_4.jpg,right,573.1899999082088,false,low,false
LE9cNUlz,3b6f54kms5pu5knddy3sw9ki4gws13,320duz38gbz0xgskzpkj0ftst7qgjd,LE9cNUlz,2020-0188,2020-05-07,16:08:18,16:41:17,NA,incomplete,2,number,0,left,Purple_Circle_Chess_4.jpg,Green_Star_Dots_4.jpg,Purple_Plus_Grid_3.jpg,left,660.4949999600649,true,low,false
LE9cNUlz,3b6f54kms5pu5knddy3sw9ki4gws13,320duz38gbz0xgskzpkj0ftst7qgjd,LE9cNUlz,2020-0188,2020-05-07,16:08:18,16:41:17,NA,incomplete,3,number,0,left,Red_Star_Dots_1.jpg,Green_Plus_Grid_1.jpg,Red_Triangle_Stripes_2.jpg,left,984.7949999384582,true,low,false
LE9cNUlz,3b6f54kms5pu5knddy3sw9ki4gws13,320duz38gbz0xgskzpkj0ftst7qgjd,LE9cNUlz,2020-0188,2020-05-07,16:08:18,16:41:17,NA,incomplete,4,number,1,right,Red_Circle_Chess_3.jpg,Red_Triangle_Dots_1.jpg,Blue_Star_Stripes_3.jpg,left,630.5649997666478,false,low,false
LE9cNUlz,3b6f54kms5pu5knddy3sw9ki4gws13,320duz38gbz0xgskzpkj0ftst7qgjd,LE9cNUlz,2020-0188,2020-05-07,16:08:18,16:41:17,NA,incomplete,5,number,1,right,Blue_Circle_Stripes_3.jpg,Blue_Star_Grid_2.jpg,Purple_Triangle_Chess_3.jpg,right,688.2950002327561,true,low,false
LE9cNUlz,3b6f54kms5pu5knddy3sw9ki4gws13,320duz38gbz0xgskzpkj0ftst7qgjd,LE9cNUlz,2020-0188,2020-05-07,16:08:18,16:41:17,NA,incomplete,6,number,0,left,Blue_Circle_Chess_4.jpg,Green_Triangle_Grid_4.jpg,Blue_Star_Stripes_2.jpg,left,544.7049997746944,true,low,false
LE9cNUlz,3b6f54kms5pu5knddy3sw9ki4gws13,320duz38gbz0xgskzpkj0ftst7qgjd,LE9cNUlz,2020-0188,2020-05-07,16:08:18,16:41:17,NA,incomplete,7,number,1,right,Purple_Circle_Stripes_2.jpg,Purple_Plus_Chess_4.jpg,Red_Star_Dots_2.jpg,right,1112.8549999557436,true,low,false
LE9cNUlz,3b6f54kms5pu5knddy3sw9ki4gws13,320duz38gbz0xgskzpkj0ftst7qgjd,LE9cNUlz,2020-0188,2020-05-07,16:08:18,16:41:17,NA,incomplete,8,number,1,left,Blue_Plus_Grid_1.jpg,Purple_Triangle_Stripes_1.jpg,Blue_Circle_Chess_4.jpg,left,639.7049999795854,true,low,false
LE9cNUlz,3b6f54kms5pu5knddy3sw9ki4gws13,320duz38gbz0xgskzpkj0ftst7qgjd,LE9cNUlz,2020-0188,2020-05-07,16:08:18,16:41:17,NA,incomplete,9,number,0,left,Red_Circle_Grid_2.jpg,Purple_Star_Dots_2.jpg,Red_Plus_Stripes_1.jpg,left,579.9549999646842,true,low,false
LE9cNUlz,3b6f54kms5pu5knddy3sw9ki4gws13,320duz38gbz0xgskzpkj0ftst7qgjd,LE9cNUlz,2020-0188,2020-05-07,16:08:18,16:41:17,NA,incomplete,10,number,1,left,Green_Circle_Dots_3.jpg,Red_Triangle_Chess_3.jpg,Green_Star_Stripes_2.jpg,left,687.0399997569621,true,low,false
LE9cNUlz,3b6f54kms5pu5knddy3sw9ki4gws13,320duz38gbz0xgskzpkj0ftst7qgjd,LE9cNUlz,2020-0188,2020-05-07,16:08:18,16:41:17,NA,incomplete,11,number,1,left,Red_Triangle_Dots_2.jpg,Green_Circle_Chess_2.jpg,Red_Plus_Stripes_3.jpg,left,689.4600000232458,true,low,false
LE9cNUlz,3b6f54kms5pu5knddy3sw9ki4gws13,320duz38gbz0xgskzpkj0ftst7qgjd,LE9cNUlz,2020-0188,2020-05-07,16:08:18,16:41:17,NA,incomplete,12,number,0,right,Purple_Plus_Grid_3.jpg,Purple_Star_Chess_2.jpg,Green_Circle_Dots_3.jpg,right,825.4149998538196,true,low,false
LE9cNUlz,3b6f54kms5pu5knddy3sw9ki4gws13,320duz38gbz0xgskzpkj0ftst7qgjd,LE9cNUlz,2020-0188,2020-05-07,16:08:18,16:41:17,NA,incomplete,13,number,1,left,Green_Circle_Chess_1.jpg,Purple_Plus_Stripes_1.jpg,Green_Triangle_Grid_3.jpg,left,723.679999820888,true,low,false
LE9cNUlz,3b6f54kms5pu5knddy3sw9ki4gws13,320duz38gbz0xgskzpkj0ftst7qgjd,LE9cNUlz,2020-0188,2020-05-07,16:08:18,16:41:17,NA,incomplete,14,number,1,right,Blue_Star_Grid_3.jpg,Blue_Triangle_Chess_2.jpg,Green_Plus_Dots_3.jpg,right,694.2599997855723,true,low,false
LE9cNUlz,3b6f54kms5pu5knddy3sw9ki4gws13,320duz38gbz0xgskzpkj0ftst7qgjd,LE9cNUlz,2020-0188,2020-05-07,16:08:18,16:41:17,NA,incomplete,15,number,1,left,Purple_Star_Dots_4.jpg,Blue_Plus_Stripes_4.jpg,Purple_Triangle_Chess_2.jpg,left,590.7600000500679,true,low,false
LE9cNUlz,3b6f54kms5pu5knddy3sw9ki4gws13,320duz38gbz0xgskzpkj0ftst7qgjd,LE9cNUlz,2020-0188,2020-05-07,16:08:18,16:41:17,NA,incomplete,16,number,1,right,Red_Plus_Stripes_3.jpg,Red_Triangle_Dots_1.jpg,Green_Circle_Chess_3.jpg,right,628.4650000743568,true,low,false
LE9cNUlz,3b6f54kms5pu5knddy3sw9ki4gws13,320duz38gbz0xgskzpkj0ftst7qgjd,LE9cNUlz,2020-0188,2020-05-07,16:08:18,16:41:17,NA,incomplete,17,number,0,left,Purple_Circle_Stripes_2.jpg,Red_Triangle_Grid_2.jpg,Purple_Star_Dots_1.jpg,left,569.1349999979138,true,low,false
LE9cNUlz,3b6f54kms5pu5knddy3sw9ki4gws13,320duz38gbz0xgskzpkj0ftst7qgjd,LE9cNUlz,2020-0188,2020-05-07,16:08:18,16:41:17,NA,incomplete,18,number,1,left,Green_Star_Grid_1.jpg,Red_Circle_Chess_1.jpg,Green_Plus_Dots_4.jpg,left,574.9300001189113,true,low,false
LE9cNUlz,3b6f54kms5pu5knddy3sw9ki4gws13,320duz38gbz0xgskzpkj0ftst7qgjd,LE9cNUlz,2020-0188,2020-05-07,16:08:18,16:41:17,NA,incomplete,19,number,1,left,Blue_Triangle_Chess_2.jpg,Red_Circle_Dots_2.jpg,Blue_Plus_Grid_3.jpg,left,608.8899997994304,true,low,false
LE9cNUlz,3b6f54kms5pu5knddy3sw9ki4gws13,320duz38gbz0xgskzpkj0ftst7qgjd,LE9cNUlz,2020-0188,2020-05-07,16:08:18,16:41:17,NA,incomplete,20,number,0,right,Red_Triangle_Dots_3.jpg,Red_Plus_Chess_4.jpg,Green_Star_Grid_3.jpg,right,670.5099996179342,true,low,false
LE9cNUlz,3b6f54kms5pu5knddy3sw9ki4gws13,320duz38gbz0xgskzpkj0ftst7qgjd,LE9cNUlz,2020-0188,2020-05-07,16:08:18,16:41:17,NA,incomplete,21,number,1,right,Purple_Star_Chess_3.jpg,Purple_Plus_Dots_2.jpg,Blue_Circle_Stripes_3.jpg,right,695.3850002028048,true,low,false
LE9cNUlz,3b6f54kms5pu5knddy3sw9ki4gws13,320duz38gbz0xgskzpkj0ftst7qgjd,LE9cNUlz,2020-0188,2020-05-07,16:08:18,16:41:17,NA,incomplete,22,number,1,right,Blue_Plus_Chess_1.jpg,Blue_Star_Stripes_2.jpg,Green_Triangle_Grid_1.jpg,right,649.8349998146296,true,low,false
LE9cNUlz,3b6f54kms5pu5knddy3sw9ki4gws13,320duz38gbz0xgskzpkj0ftst7qgjd,LE9cNUlz,2020-0188,2020-05-07,16:08:18,16:41:17,NA,incomplete,23,number,0,right,Red_Circle_Grid_2.jpg,Red_Star_Stripes_1.jpg,Green_Plus_Chess_2.jpg,right,620.4900001175702,true,low,false
LE9cNUlz,3b6f54kms5pu5knddy3sw9ki4gws13,320duz38gbz0xgskzpkj0ftst7qgjd,LE9cNUlz,2020-0188,2020-05-07,16:08:18,16:41:17,NA,incomplete,24,number,1,left,Purple_Circle_Chess_3.jpg,Green_Star_Stripes_3.jpg,Purple_Triangle_Dots_2.jpg,right,549.1100000217557,false,low,false
LE9cNUlz,3b6f54kms5pu5knddy3sw9ki4gws13,320duz38gbz0xgskzpkj0ftst7qgjd,LE9cNUlz,2020-0188,2020-05-07,16:08:18,16:41:17,NA,incomplete,25,number,1,right,Purple_Plus_Dots_1.jpg,Purple_Circle_Chess_3.jpg,Blue_Triangle_Grid_1.jpg,right,622.6999997161329,true,low,false
LE9cNUlz,3b6f54kms5pu5knddy3sw9ki4gws13,320duz38gbz0xgskzpkj0ftst7qgjd,LE9cNUlz,2020-0188,2020-05-07,16:08:18,16:41:17,NA,incomplete,26,number,1,left,Red_Plus_Chess_2.jpg,Green_Circle_Stripes_2.jpg,Red_Star_Dots_4.jpg,left,636.9300000369549,true,low,false
LE9cNUlz,3b6f54kms5pu5knddy3sw9ki4gws13,320duz38gbz0xgskzpkj0ftst7qgjd,LE9cNUlz,2020-0188,2020-05-07,16:08:18,16:41:17,NA,incomplete,27,number,0,right,Blue_Triangle_Grid_1.jpg,Blue_Circle_Chess_3.jpg,Purple_Plus_Dots_1.jpg,right,646.1399998515844,true,low,false
LE9cNUlz,3b6f54kms5pu5knddy3sw9ki4gws13,320duz38gbz0xgskzpkj0ftst7qgjd,LE9cNUlz,2020-0188,2020-05-07,16:08:18,16:41:17,NA,incomplete,28,number,1,right,Blue_Circle_Dots_1.jpg,Blue_Star_Chess_3.jpg,Red_Plus_Stripes_1.jpg,left,641.8999996967614,false,low,false
LE9cNUlz,3b6f54kms5pu5knddy3sw9ki4gws13,320duz38gbz0xgskzpkj0ftst7qgjd,LE9cNUlz,2020-0188,2020-05-07,16:08:18,16:41:17,NA,incomplete,29,number,1,left,Blue_Circle_Dots_3.jpg,Purple_Star_Stripes_3.jpg,Blue_Triangle_Chess_4.jpg,right,916.1149999126792,false,low,false
LE9cNUlz,3b6f54kms5pu5knddy3sw9ki4gws13,320duz38gbz0xgskzpkj0ftst7qgjd,LE9cNUlz,2020-0188,2020-05-07,16:08:18,16:41:17,NA,incomplete,30,color,1,right,Green_Plus_Chess_3.jpg,Purple_Circle_Stripes_3.jpg,Green_Triangle_Dots_4.jpg,left,688.3700001053512,false,low,false
LE9cNUlz,3b6f54kms5pu5knddy3sw9ki4gws13,320duz38gbz0xgskzpkj0ftst7qgjd,LE9cNUlz,2020-0188,2020-05-07,16:08:18,16:41:17,NA,incomplete,31,color,1,right,Green_Plus_Dots_1.jpg,Red_Star_Stripes_1.jpg,Green_Circle_Grid_3.jpg,left,695.1150000095367,false,low,false
LE9cNUlz,3b6f54kms5pu5knddy3sw9ki4gws13,320duz38gbz0xgskzpkj0ftst7qgjd,LE9cNUlz,2020-0188,2020-05-07,16:08:18,16:41:17,NA,incomplete,32,color,0,left,Blue_Plus_Stripes_1.jpg,Blue_Star_Chess_4.jpg,Red_Circle_Grid_1.jpg,right,997.1049996092916,false,low,false
LE9cNUlz,3b6f54kms5pu5knddy3sw9ki4gws13,320duz38gbz0xgskzpkj0ftst7qgjd,LE9cNUlz,2020-0188,2020-05-07,16:08:18,16:41:17,NA,incomplete,33,color,1,right,Green_Star_Grid_1.jpg,Red_Circle_Dots_1.jpg,Green_Plus_Chess_2.jpg,left,501.88500015065074,false,low,false
LE9cNUlz,3b6f54kms5pu5knddy3sw9ki4gws13,320duz38gbz0xgskzpkj0ftst7qgjd,LE9cNUlz,2020-0188,2020-05-07,16:08:18,16:41:17,NA,incomplete,34,color,1,right,Blue_Triangle_Stripes_2.jpg,Green_Star_Chess_2.jpg,Blue_Circle_Dots_3.jpg,left,592.0649999752641,false,low,false
LE9cNUlz,3b6f54kms5pu5knddy3sw9ki4gws13,320duz38gbz0xgskzpkj0ftst7qgjd,LE9cNUlz,2020-0188,2020-05-07,16:08:18,16:41:17,NA,incomplete,35,color,1,left,Blue_Plus_Grid_3.jpg,Blue_Star_Stripes_4.jpg,Red_Triangle_Chess_3.jpg,left,470.29499989002943,true,low,false
LE9cNUlz,3b6f54kms5pu5knddy3sw9ki4gws13,320duz38gbz0xgskzpkj0ftst7qgjd,LE9cNUlz,2020-0188,2020-05-07,16:08:18,16:41:17,NA,incomplete,36,color,0,right,Red_Star_Chess_4.jpg,Blue_Triangle_Grid_4.jpg,Red_Circle_Stripes_1.jpg,right,513.2299996912479,true,low,false
LE9cNUlz,3b6f54kms5pu5knddy3sw9ki4gws13,320duz38gbz0xgskzpkj0ftst7qgjd,LE9cNUlz,2020-0188,2020-05-07,16:08:18,16:41:17,NA,incomplete,37,color,1,left,Blue_Star_Grid_2.jpg,Blue_Plus_Dots_3.jpg,Green_Circle_Chess_2.jpg,left,402.04000007361174,true,low,false
LE9cNUlz,3b6f54kms5pu5knddy3sw9ki4gws13,320duz38gbz0xgskzpkj0ftst7qgjd,LE9cNUlz,2020-0188,2020-05-07,16:08:18,16:41:17,NA,incomplete,38,color,1,right,Blue_Circle_Chess_4.jpg,Purple_Triangle_Grid_4.jpg,Blue_Star_Dots_2.jpg,right,429.81999972835183,true,low,false
LE9cNUlz,3b6f54kms5pu5knddy3sw9ki4gws13,320duz38gbz0xgskzpkj0ftst7qgjd,LE9cNUlz,2020-0188,2020-05-07,16:08:18,16:41:17,NA,incomplete,39,color,1,left,Green_Circle_Dots_2.jpg,Green_Plus_Stripes_1.jpg,Blue_Star_Chess_2.jpg,left,505.0899996422231,true,low,false
LE9cNUlz,3b6f54kms5pu5knddy3sw9ki4gws13,320duz38gbz0xgskzpkj0ftst7qgjd,LE9cNUlz,2020-0188,2020-05-07,16:08:18,16:41:17,NA,incomplete,40,color,1,right,Blue_Plus_Stripes_3.jpg,Purple_Circle_Dots_3.jpg,Blue_Triangle_Grid_4.jpg,right,616.8149998411536,true,low,false
LE9cNUlz,3b6f54kms5pu5knddy3sw9ki4gws13,320duz38gbz0xgskzpkj0ftst7qgjd,LE9cNUlz,2020-0188,2020-05-07,16:08:18,16:41:17,NA,incomplete,41,color,1,left,Red_Plus_Chess_1.jpg,Red_Circle_Grid_2.jpg,Blue_Triangle_Stripes_1.jpg,left,686.599999666214,true,low,false
LE9cNUlz,3b6f54kms5pu5knddy3sw9ki4gws13,320duz38gbz0xgskzpkj0ftst7qgjd,LE9cNUlz,2020-0188,2020-05-07,16:08:18,16:41:17,NA,incomplete,42,color,0,left,Purple_Star_Grid_1.jpg,Purple_Circle_Dots_4.jpg,Blue_Triangle_Chess_1.jpg,right,601.5699999406934,false,low,false
LE9cNUlz,3b6f54kms5pu5knddy3sw9ki4gws13,320duz38gbz0xgskzpkj0ftst7qgjd,LE9cNUlz,2020-0188,2020-05-07,16:08:18,16:41:17,NA,incomplete,43,color,1,right,Purple_Circle_Grid_4.jpg,Red_Triangle_Chess_4.jpg,Purple_Plus_Dots_3.jpg,right,697.0000001601875,true,low,false
LE9cNUlz,3b6f54kms5pu5knddy3sw9ki4gws13,320duz38gbz0xgskzpkj0ftst7qgjd,LE9cNUlz,2020-0188,2020-05-07,16:08:18,16:41:17,NA,incomplete,44,color,1,left,Purple_Plus_Chess_4.jpg,Purple_Star_Stripes_1.jpg,Green_Circle_Dots_4.jpg,left,486.3100000657141,true,low,false
LE9cNUlz,3b6f54kms5pu5knddy3sw9ki4gws13,320duz38gbz0xgskzpkj0ftst7qgjd,LE9cNUlz,2020-0188,2020-05-07,16:08:18,16:41:17,NA,incomplete,45,color,1,left,Red_Circle_Chess_2.jpg,Red_Triangle_Grid_1.jpg,Green_Plus_Dots_2.jpg,left,578.1600000336766,true,low,false
LE9cNUlz,3b6f54kms5pu5knddy3sw9ki4gws13,320duz38gbz0xgskzpkj0ftst7qgjd,LE9cNUlz,2020-0188,2020-05-07,16:08:18,16:41:17,NA,incomplete,46,color,1,right,Red_Triangle_Chess_1.jpg,Green_Star_Dots_1.jpg,Red_Circle_Stripes_4.jpg,right,603.5350002348423,true,low,false
LE9cNUlz,3b6f54kms5pu5knddy3sw9ki4gws13,320duz38gbz0xgskzpkj0ftst7qgjd,LE9cNUlz,2020-0188,2020-05-07,16:08:18,16:41:17,NA,incomplete,47,color,1,right,Purple_Plus_Chess_4.jpg,Red_Circle_Dots_4.jpg,Purple_Star_Stripes_2.jpg,right,623.1849999167025,true,low,false
LE9cNUlz,3b6f54kms5pu5knddy3sw9ki4gws13,320duz38gbz0xgskzpkj0ftst7qgjd,LE9cNUlz,2020-0188,2020-05-07,16:08:18,16:41:17,NA,incomplete,48,color,1,left,Green_Star_Chess_3.jpg,Green_Triangle_Grid_1.jpg,Red_Circle_Dots_3.jpg,left,527.3700002580881,true,low,false
LE9cNUlz,3b6f54kms5pu5knddy3sw9ki4gws13,320duz38gbz0xgskzpkj0ftst7qgjd,LE9cNUlz,2020-0188,2020-05-07,16:08:18,16:41:17,NA,incomplete,49,color,0,left,Green_Plus_Stripes_3.jpg,Green_Circle_Dots_1.jpg,Purple_Triangle_Grid_3.jpg,left,437.0199996046722,true,low,false
LE9cNUlz,3b6f54kms5pu5knddy3sw9ki4gws13,320duz38gbz0xgskzpkj0ftst7qgjd,LE9cNUlz,2020-0188,2020-05-07,16:08:18,16:41:17,NA,incomplete,50,color,1,left,Green_Plus_Dots_4.jpg,Green_Circle_Grid_3.jpg,Red_Star_Chess_4.jpg,left,460.90500010177493,true,low,false
LE9cNUlz,3b6f54kms5pu5knddy3sw9ki4gws13,320duz38gbz0xgskzpkj0ftst7qgjd,LE9cNUlz,2020-0188,2020-05-07,16:08:18,16:41:17,NA,incomplete,51,color,1,right,Red_Plus_Grid_1.jpg,Purple_Triangle_Chess_1.jpg,Red_Circle_Dots_2.jpg,right,517.7799998782575,true,low,false
LE9cNUlz,3b6f54kms5pu5knddy3sw9ki4gws13,320duz38gbz0xgskzpkj0ftst7qgjd,LE9cNUlz,2020-0188,2020-05-07,16:08:18,16:41:17,NA,incomplete,52,color,1,left,Red_Star_Grid_2.jpg,Red_Circle_Stripes_1.jpg,Blue_Triangle_Dots_2.jpg,left,415.5649999156594,true,low,false
LE9cNUlz,3b6f54kms5pu5knddy3sw9ki4gws13,320duz38gbz0xgskzpkj0ftst7qgjd,LE9cNUlz,2020-0188,2020-05-07,16:08:18,16:41:17,NA,incomplete,53,color,1,right,Red_Plus_Dots_1.jpg,Purple_Triangle_Grid_1.jpg,Red_Star_Stripes_4.jpg,right,465.3349998407066,true,low,false
LE9cNUlz,3b6f54kms5pu5knddy3sw9ki4gws13,320duz38gbz0xgskzpkj0ftst7qgjd,LE9cNUlz,2020-0188,2020-05-07,16:08:18,16:41:17,NA,incomplete,54,color,1,left,Blue_Star_Stripes_3.jpg,Blue_Triangle_Chess_4.jpg,Red_Plus_Dots_3.jpg,left,436.03500025346875,true,low,false
LE9cNUlz,3b6f54kms5pu5knddy3sw9ki4gws13,320duz38gbz0xgskzpkj0ftst7qgjd,LE9cNUlz,2020-0188,2020-05-07,16:08:18,16:41:17,NA,incomplete,55,color,1,left,Blue_Triangle_Grid_3.jpg,Blue_Plus_Stripes_2.jpg,Green_Circle_Dots_3.jpg,left,493.38500015437603,true,low,false
LE9cNUlz,3b6f54kms5pu5knddy3sw9ki4gws13,320duz38gbz0xgskzpkj0ftst7qgjd,LE9cNUlz,2020-0188,2020-05-07,16:08:18,16:41:17,NA,incomplete,56,color,1,right,Red_Triangle_Dots_3.jpg,Purple_Plus_Stripes_3.jpg,Red_Star_Chess_1.jpg,right,601.5949998982251,true,low,false
LE9cNUlz,3b6f54kms5pu5knddy3sw9ki4gws13,320duz38gbz0xgskzpkj0ftst7qgjd,LE9cNUlz,2020-0188,2020-05-07,16:08:18,16:41:17,NA,incomplete,57,color,1,right,Green_Circle_Grid_2.jpg,Red_Star_Dots_2.jpg,Green_Triangle_Stripes_1.jpg,right,630.0900001078844,true,low,false
LE9cNUlz,3b6f54kms5pu5knddy3sw9ki4gws13,320duz38gbz0xgskzpkj0ftst7qgjd,LE9cNUlz,2020-0188,2020-05-07,16:08:18,16:41:17,NA,incomplete,58,color,1,left,Blue_Circle_Stripes_2.jpg,Blue_Triangle_Dots_1.jpg,Green_Star_Grid_2.jpg,left,450.62499959021807,true,low,false
LE9cNUlz,3b6f54kms5pu5knddy3sw9ki4gws13,320duz38gbz0xgskzpkj0ftst7qgjd,LE9cNUlz,2020-0188,2020-05-07,16:08:18,16:41:17,NA,incomplete,59,color,1,left,Purple_Plus_Chess_3.jpg,Purple_Triangle_Grid_4.jpg,Blue_Star_Dots_3.jpg,left,513.3750000968575,true,low,false
LE9cNUlz,3b6f54kms5pu5knddy3sw9ki4gws13,320duz38gbz0xgskzpkj0ftst7qgjd,LE9cNUlz,2020-0188,2020-05-07,16:08:18,16:41:17,NA,incomplete,60,number,1,right,Red_Star_Stripes_1.jpg,Red_Plus_Dots_4.jpg,Purple_Triangle_Grid_1.jpg,left,513.5949999094009,false,low,false
LE9cNUlz,3b6f54kms5pu5knddy3sw9ki4gws13,320duz38gbz0xgskzpkj0ftst7qgjd,LE9cNUlz,2020-0188,2020-05-07,16:08:18,16:41:17,NA,incomplete,61,number,0,right,Blue_Circle_Dots_1.jpg,Blue_Star_Chess_3.jpg,Red_Triangle_Grid_1.jpg,left,419.75999996066093,false,low,false
LE9cNUlz,3b6f54kms5pu5knddy3sw9ki4gws13,320duz38gbz0xgskzpkj0ftst7qgjd,LE9cNUlz,2020-0188,2020-05-07,16:08:18,16:41:17,NA,incomplete,62,number,1,left,Blue_Plus_Stripes_4.jpg,Purple_Circle_Grid_4.jpg,Blue_Triangle_Chess_2.jpg,right,454.79500014334917,false,low,false
LE9cNUlz,3b6f54kms5pu5knddy3sw9ki4gws13,320duz38gbz0xgskzpkj0ftst7qgjd,LE9cNUlz,2020-0188,2020-05-07,16:08:18,16:41:17,NA,incomplete,63,number,0,right,Purple_Circle_Dots_3.jpg,Purple_Star_Chess_4.jpg,Green_Triangle_Stripes_3.jpg,left,505.4699997417629,false,low,false
LE9cNUlz,3b6f54kms5pu5knddy3sw9ki4gws13,320duz38gbz0xgskzpkj0ftst7qgjd,LE9cNUlz,2020-0188,2020-05-07,16:08:18,16:41:17,NA,incomplete,64,number,1,right,Blue_Circle_Grid_1.jpg,Blue_Triangle_Chess_4.jpg,Green_Plus_Stripes_1.jpg,left,410.8850001357496,false,low,false
LE9cNUlz,3b6f54kms5pu5knddy3sw9ki4gws13,320duz38gbz0xgskzpkj0ftst7qgjd,LE9cNUlz,2020-0188,2020-05-07,16:08:18,16:41:17,NA,incomplete,65,number,1,right,Blue_Triangle_Chess_4.jpg,Blue_Circle_Stripes_3.jpg,Red_Star_Dots_4.jpg,right,842.3800002783537,true,low,false
LE9cNUlz,3b6f54kms5pu5knddy3sw9ki4gws13,320duz38gbz0xgskzpkj0ftst7qgjd,LE9cNUlz,2020-0188,2020-05-07,16:08:18,16:41:17,NA,incomplete,66,number,0,right,Purple_Star_Dots_4.jpg,Purple_Plus_Grid_2.jpg,Green_Circle_Chess_4.jpg,right,584.5649996772408,true,low,false
LE9cNUlz,3b6f54kms5pu5knddy3sw9ki4gws13,320duz38gbz0xgskzpkj0ftst7qgjd,LE9cNUlz,2020-0188,2020-05-07,16:08:18,16:41:17,NA,incomplete,67,number,1,left,Blue_Plus_Stripes_2.jpg,Red_Triangle_Dots_2.jpg,Blue_Circle_Grid_3.jpg,left,527.3899999447167,true,low,false
LE9cNUlz,3b6f54kms5pu5knddy3sw9ki4gws13,320duz38gbz0xgskzpkj0ftst7qgjd,LE9cNUlz,2020-0188,2020-05-07,16:08:18,16:41:17,NA,incomplete,68,number,1,right,Green_Circle_Dots_4.jpg,Green_Star_Chess_1.jpg,Purple_Plus_Stripes_4.jpg,right,735.6449998915195,true,low,false
LE9cNUlz,3b6f54kms5pu5knddy3sw9ki4gws13,320duz38gbz0xgskzpkj0ftst7qgjd,LE9cNUlz,2020-0188,2020-05-07,16:08:18,16:41:17,NA,incomplete,69,number,1,right,Green_Star_Chess_3.jpg,Green_Plus_Dots_2.jpg,Blue_Circle_Stripes_3.jpg,left,539.3499997444451,false,low,false
LE9cNUlz,3b6f54kms5pu5knddy3sw9ki4gws13,320duz38gbz0xgskzpkj0ftst7qgjd,LE9cNUlz,2020-0188,2020-05-07,16:08:18,16:41:17,NA,incomplete,70,number,0,right,Blue_Circle_Stripes_2.jpg,Blue_Triangle_Grid_3.jpg,Green_Star_Chess_2.jpg,right,627.1149995736778,true,low,false
LE9cNUlz,3b6f54kms5pu5knddy3sw9ki4gws13,320duz38gbz0xgskzpkj0ftst7qgjd,LE9cNUlz,2020-0188,2020-05-07,16:08:18,16:41:17,NA,incomplete,71,number,1,left,Green_Plus_Stripes_1.jpg,Red_Triangle_Chess_1.jpg,Green_Star_Dots_4.jpg,left,602.7200003154576,true,low,false
LE9cNUlz,3b6f54kms5pu5knddy3sw9ki4gws13,320duz38gbz0xgskzpkj0ftst7qgjd,LE9cNUlz,2020-0188,2020-05-07,16:08:18,16:41:17,NA,incomplete,72,number,1,right,Blue_Circle_Stripes_2.jpg,Blue_Star_Dots_1.jpg,Red_Plus_Grid_2.jpg,right,577.7649995870888,true,low,false
LE9cNUlz,3b6f54kms5pu5knddy3sw9ki4gws13,320duz38gbz0xgskzpkj0ftst7qgjd,LE9cNUlz,2020-0188,2020-05-07,16:08:18,16:41:17,NA,incomplete,73,number,1,right,Purple_Plus_Stripes_4.jpg,Purple_Triangle_Grid_1.jpg,Green_Circle_Chess_4.jpg,right,564.0350002795458,true,low,false
LE9cNUlz,3b6f54kms5pu5knddy3sw9ki4gws13,320duz38gbz0xgskzpkj0ftst7qgjd,LE9cNUlz,2020-0188,2020-05-07,16:08:18,16:41:17,NA,incomplete,74,number,1,left,Green_Plus_Stripes_3.jpg,Red_Star_Chess_3.jpg,Green_Triangle_Dots_2.jpg,left,551.3300001621246,true,low,false
LE9cNUlz,3b6f54kms5pu5knddy3sw9ki4gws13,320duz38gbz0xgskzpkj0ftst7qgjd,LE9cNUlz,2020-0188,2020-05-07,16:08:18,16:41:17,NA,incomplete,75,number,1,left,Purple_Plus_Grid_4.jpg,Blue_Star_Dots_4.jpg,Purple_Triangle_Stripes_2.jpg,left,561.3299999386072,true,low,false
LE9cNUlz,3b6f54kms5pu5knddy3sw9ki4gws13,320duz38gbz0xgskzpkj0ftst7qgjd,LE9cNUlz,2020-0188,2020-05-07,16:08:18,16:41:17,NA,incomplete,76,number,1,right,Blue_Circle_Grid_4.jpg,Blue_Triangle_Chess_1.jpg,Red_Plus_Stripes_4.jpg,right,532.5299999676645,true,low,false
LE9cNUlz,3b6f54kms5pu5knddy3sw9ki4gws13,320duz38gbz0xgskzpkj0ftst7qgjd,LE9cNUlz,2020-0188,2020-05-07,16:08:18,16:41:17,NA,incomplete,77,number,1,right,Green_Star_Chess_4.jpg,Green_Circle_Stripes_1.jpg,Purple_Plus_Grid_4.jpg,right,522.9549999348819,true,low,false
LE9cNUlz,3b6f54kms5pu5knddy3sw9ki4gws13,320duz38gbz0xgskzpkj0ftst7qgjd,LE9cNUlz,2020-0188,2020-05-07,16:08:18,16:41:17,NA,incomplete,78,number,1,right,Blue_Circle_Stripes_4.jpg,Blue_Plus_Dots_3.jpg,Red_Triangle_Grid_4.jpg,right,662.4349998310208,true,low,false
LE9cNUlz,3b6f54kms5pu5knddy3sw9ki4gws13,320duz38gbz0xgskzpkj0ftst7qgjd,LE9cNUlz,2020-0188,2020-05-07,16:08:18,16:41:17,NA,incomplete,79,number,1,left,Green_Star_Grid_4.jpg,Blue_Circle_Chess_4.jpg,Green_Triangle_Dots_1.jpg,left,403.2549997791648,true,low,false
LE9cNUlz,3b6f54kms5pu5knddy3sw9ki4gws13,320duz38gbz0xgskzpkj0ftst7qgjd,LE9cNUlz,2020-0188,2020-05-07,16:08:18,16:41:17,NA,incomplete,80,number,0,right,Purple_Plus_Chess_1.jpg,Purple_Circle_Dots_4.jpg,Red_Triangle_Stripes_1.jpg,right,529.3749999254942,true,low,false
LE9cNUlz,3b6f54kms5pu5knddy3sw9ki4gws13,320duz38gbz0xgskzpkj0ftst7qgjd,LE9cNUlz,2020-0188,2020-05-07,16:08:18,16:41:17,NA,incomplete,81,number,1,left,Blue_Triangle_Grid_1.jpg,Purple_Circle_Stripes_1.jpg,Blue_Star_Dots_4.jpg,left,548.4000002034009,true,low,false
LE9cNUlz,3b6f54kms5pu5knddy3sw9ki4gws13,320duz38gbz0xgskzpkj0ftst7qgjd,LE9cNUlz,2020-0188,2020-05-07,16:08:18,16:41:17,NA,incomplete,82,number,1,left,Green_Circle_Grid_1.jpg,Purple_Triangle_Chess_1.jpg,Green_Plus_Stripes_4.jpg,left,614.5999999716878,true,low,false
LE9cNUlz,3b6f54kms5pu5knddy3sw9ki4gws13,320duz38gbz0xgskzpkj0ftst7qgjd,LE9cNUlz,2020-0188,2020-05-07,16:08:18,16:41:17,NA,incomplete,83,number,0,right,Blue_Star_Grid_4.jpg,Blue_Triangle_Dots_1.jpg,Purple_Plus_Stripes_4.jpg,right,495.95999997109175,true,low,false
LE9cNUlz,3b6f54kms5pu5knddy3sw9ki4gws13,320duz38gbz0xgskzpkj0ftst7qgjd,LE9cNUlz,2020-0188,2020-05-07,16:08:18,16:41:17,NA,incomplete,84,number,1,right,Purple_Triangle_Grid_2.jpg,Purple_Plus_Dots_3.jpg,Red_Star_Chess_2.jpg,right,693.7400000169873,true,low,false
LE9cNUlz,3b6f54kms5pu5knddy3sw9ki4gws13,320duz38gbz0xgskzpkj0ftst7qgjd,LE9cNUlz,2020-0188,2020-05-07,16:08:18,16:41:17,NA,incomplete,85,number,1,left,Green_Triangle_Chess_2.jpg,Red_Circle_Dots_2.jpg,Green_Plus_Grid_1.jpg,left,558.8199999183416,true,low,false
LE9cNUlz,3b6f54kms5pu5knddy3sw9ki4gws13,320duz38gbz0xgskzpkj0ftst7qgjd,LE9cNUlz,2020-0188,2020-05-07,16:08:18,16:41:17,NA,incomplete,86,number,0,left,Blue_Star_Stripes_4.jpg,Green_Circle_Dots_4.jpg,Blue_Triangle_Grid_1.jpg,left,473.8150001503527,true,low,false
LE9cNUlz,3b6f54kms5pu5knddy3sw9ki4gws13,320duz38gbz0xgskzpkj0ftst7qgjd,LE9cNUlz,2020-0188,2020-05-07,16:08:18,16:41:17,NA,incomplete,87,number,1,left,Purple_Triangle_Stripes_2.jpg,Blue_Plus_Dots_2.jpg,Purple_Circle_Grid_4.jpg,right,1019.8500002734363,false,low,false
LE9cNUlz,3b6f54kms5pu5knddy3sw9ki4gws13,320duz38gbz0xgskzpkj0ftst7qgjd,LE9cNUlz,2020-0188,2020-05-07,16:08:18,16:41:17,NA,incomplete,88,number,0,right,Blue_Triangle_Grid_1.jpg,Blue_Circle_Stripes_3.jpg,Purple_Star_Dots_1.jpg,right,559.9450003355742,true,low,false
LE9cNUlz,3b6f54kms5pu5knddy3sw9ki4gws13,320duz38gbz0xgskzpkj0ftst7qgjd,LE9cNUlz,2020-0188,2020-05-07,16:08:18,16:41:17,NA,incomplete,89,number,1,right,Purple_Circle_Chess_3.jpg,Purple_Plus_Stripes_4.jpg,Green_Star_Grid_3.jpg,left,477.65500005334616,false,low,false
LE9cNUlz,3b6f54kms5pu5knddy3sw9ki4gws13,320duz38gbz0xgskzpkj0ftst7qgjd,LE9cNUlz,2020-0188,2020-05-07,16:08:18,16:41:17,NA,incomplete,90,color,1,right,Red_Plus_Stripes_3.jpg,Blue_Circle_Dots_3.jpg,Red_Triangle_Grid_1.jpg,left,586.1249999143183,false,low,false
LE9cNUlz,3b6f54kms5pu5knddy3sw9ki4gws13,320duz38gbz0xgskzpkj0ftst7qgjd,LE9cNUlz,2020-0188,2020-05-07,16:08:18,16:41:17,NA,incomplete,91,color,1,right,Purple_Plus_Grid_4.jpg,Green_Triangle_Chess_4.jpg,Purple_Star_Dots_3.jpg,left,538.5050000622869,false,low,false
LE9cNUlz,3b6f54kms5pu5knddy3sw9ki4gws13,320duz38gbz0xgskzpkj0ftst7qgjd,LE9cNUlz,2020-0188,2020-05-07,16:08:18,16:41:17,NA,incomplete,92,color,1,right,Green_Star_Chess_4.jpg,Purple_Plus_Dots_4.jpg,Green_Circle_Stripes_2.jpg,right,975.4849998280406,true,low,false
LE9cNUlz,3b6f54kms5pu5knddy3sw9ki4gws13,320duz38gbz0xgskzpkj0ftst7qgjd,LE9cNUlz,2020-0188,2020-05-07,16:08:18,16:41:17,NA,incomplete,93,color,1,left,Green_Triangle_Grid_3.jpg,Green_Circle_Chess_1.jpg,Red_Star_Dots_3.jpg,left,441.79499987512827,true,low,false
LE9cNUlz,3b6f54kms5pu5knddy3sw9ki4gws13,320duz38gbz0xgskzpkj0ftst7qgjd,LE9cNUlz,2020-0188,2020-05-07,16:08:18,16:41:17,NA,incomplete,94,color,1,right,Purple_Circle_Grid_4.jpg,Blue_Plus_Dots_4.jpg,Purple_Star_Stripes_1.jpg,right,504.43500000983477,true,low,false
LE9cNUlz,3b6f54kms5pu5knddy3sw9ki4gws13,320duz38gbz0xgskzpkj0ftst7qgjd,LE9cNUlz,2020-0188,2020-05-07,16:08:18,16:41:17,NA,incomplete,95,color,1,right,Blue_Circle_Chess_3.jpg,Red_Plus_Stripes_3.jpg,Blue_Star_Grid_4.jpg,right,391.3250002078712,true,low,false
LE9cNUlz,3b6f54kms5pu5knddy3sw9ki4gws13,320duz38gbz0xgskzpkj0ftst7qgjd,LE9cNUlz,2020-0188,2020-05-07,16:08:18,16:41:17,NA,incomplete,96,color,1,right,Purple_Triangle_Stripes_1.jpg,Green_Circle_Chess_1.jpg,Purple_Star_Dots_2.jpg,right,565.7799998298287,true,low,false
LE9cNUlz,3b6f54kms5pu5knddy3sw9ki4gws13,320duz38gbz0xgskzpkj0ftst7qgjd,LE9cNUlz,2020-0188,2020-05-07,16:08:18,16:41:17,NA,incomplete,97,color,1,right,Green_Triangle_Chess_4.jpg,Red_Plus_Grid_4.jpg,Green_Circle_Stripes_2.jpg,right,439.8699998855591,true,low,false
LE9cNUlz,3b6f54kms5pu5knddy3sw9ki4gws13,320duz38gbz0xgskzpkj0ftst7qgjd,LE9cNUlz,2020-0188,2020-05-07,16:08:18,16:41:17,NA,incomplete,98,color,1,left,Purple_Plus_Dots_4.jpg,Purple_Star_Stripes_1.jpg,Red_Circle_Chess_4.jpg,left,507.2650001384318,true,low,false
LE9cNUlz,3b6f54kms5pu5knddy3sw9ki4gws13,320duz38gbz0xgskzpkj0ftst7qgjd,LE9cNUlz,2020-0188,2020-05-07,16:08:18,16:41:17,NA,incomplete,99,color,1,left,Purple_Star_Chess_2.jpg,Purple_Triangle_Dots_1.jpg,Blue_Plus_Stripes_2.jpg,left,384.6499999053776,true,low,false
LE9cNUlz,3b6f54kms5pu5knddy3sw9ki4gws13,320duz38gbz0xgskzpkj0ftst7qgjd,LE9cNUlz,2020-0188,2020-05-07,16:08:18,16:41:17,NA,incomplete,100,color,1,right,Blue_Plus_Chess_3.jpg,Purple_Circle_Dots_3.jpg,Blue_Triangle_Grid_1.jpg,right,495.43499993160367,true,low,false
LE9cNUlz,3b6f54kms5pu5knddy3sw9ki4gws13,320duz38gbz0xgskzpkj0ftst7qgjd,LE9cNUlz,2020-0188,2020-05-07,16:08:18,16:41:17,NA,incomplete,101,color,1,right,Red_Triangle_Grid_3.jpg,Blue_Circle_Chess_3.jpg,Red_Plus_Dots_4.jpg,right,442.18000024557114,true,low,false
LE9cNUlz,3b6f54kms5pu5knddy3sw9ki4gws13,320duz38gbz0xgskzpkj0ftst7qgjd,LE9cNUlz,2020-0188,2020-05-07,16:08:18,16:41:17,NA,incomplete,102,color,1,left,Green_Circle_Dots_3.jpg,Green_Star_Chess_1.jpg,Red_Triangle_Grid_3.jpg,left,444.4400002248585,true,low,false
LE9cNUlz,3b6f54kms5pu5knddy3sw9ki4gws13,320duz38gbz0xgskzpkj0ftst7qgjd,LE9cNUlz,2020-0188,2020-05-07,16:08:18,16:41:17,NA,incomplete,103,color,1,right,Red_Triangle_Grid_1.jpg,Purple_Star_Dots_1.jpg,Red_Plus_Stripes_4.jpg,right,536.3650000654161,true,low,false
LE9cNUlz,3b6f54kms5pu5knddy3sw9ki4gws13,320duz38gbz0xgskzpkj0ftst7qgjd,LE9cNUlz,2020-0188,2020-05-07,16:08:18,16:41:17,NA,incomplete,104,color,1,right,Green_Circle_Stripes_3.jpg,Red_Triangle_Dots_3.jpg,Green_Star_Grid_2.jpg,right,533.6950002238154,true,low,false
LE9cNUlz,3b6f54kms5pu5knddy3sw9ki4gws13,320duz38gbz0xgskzpkj0ftst7qgjd,LE9cNUlz,2020-0188,2020-05-07,16:08:18,16:41:17,NA,incomplete,105,color,0,left,Green_Triangle_Grid_4.jpg,Green_Star_Dots_1.jpg,Blue_Plus_Chess_4.jpg,left,438.54499980807304,true,low,false
LE9cNUlz,3b6f54kms5pu5knddy3sw9ki4gws13,320duz38gbz0xgskzpkj0ftst7qgjd,LE9cNUlz,2020-0188,2020-05-07,16:08:18,16:41:17,NA,incomplete,106,color,1,left,Purple_Plus_Stripes_1.jpg,Purple_Star_Dots_4.jpg,Green_Triangle_Grid_1.jpg,right,403.3099999651313,false,low,false
LE9cNUlz,3b6f54kms5pu5knddy3sw9ki4gws13,320duz38gbz0xgskzpkj0ftst7qgjd,LE9cNUlz,2020-0188,2020-05-07,16:08:18,16:41:17,NA,incomplete,107,color,1,right,Red_Star_Dots_4.jpg,Green_Circle_Grid_4.jpg,Red_Plus_Chess_1.jpg,right,643.8750000670552,true,low,false
LE9cNUlz,3b6f54kms5pu5knddy3sw9ki4gws13,320duz38gbz0xgskzpkj0ftst7qgjd,LE9cNUlz,2020-0188,2020-05-07,16:08:18,16:41:17,NA,incomplete,108,color,0,right,Red_Star_Dots_1.jpg,Blue_Circle_Stripes_1.jpg,Red_Plus_Chess_2.jpg,right,422.02500021085143,true,low,false
LE9cNUlz,3b6f54kms5pu5knddy3sw9ki4gws13,320duz38gbz0xgskzpkj0ftst7qgjd,LE9cNUlz,2020-0188,2020-05-07,16:08:18,16:41:17,NA,incomplete,109,color,1,right,Purple_Plus_Stripes_3.jpg,Blue_Circle_Dots_3.jpg,Purple_Star_Grid_4.jpg,right,427.4050001986325,true,low,false
LE9cNUlz,3b6f54kms5pu5knddy3sw9ki4gws13,320duz38gbz0xgskzpkj0ftst7qgjd,LE9cNUlz,2020-0188,2020-05-07,16:08:18,16:41:17,NA,incomplete,110,color,1,left,Blue_Circle_Dots_3.jpg,Blue_Triangle_Stripes_2.jpg,Green_Star_Grid_3.jpg,left,431.28000013530254,true,low,false
LE9cNUlz,3b6f54kms5pu5knddy3sw9ki4gws13,320duz38gbz0xgskzpkj0ftst7qgjd,LE9cNUlz,2020-0188,2020-05-07,16:08:18,16:41:17,NA,incomplete,111,color,1,left,Green_Star_Dots_3.jpg,Green_Plus_Chess_4.jpg,Blue_Circle_Stripes_3.jpg,left,387.8049999475479,true,low,false
LE9cNUlz,3b6f54kms5pu5knddy3sw9ki4gws13,320duz38gbz0xgskzpkj0ftst7qgjd,LE9cNUlz,2020-0188,2020-05-07,16:08:18,16:41:17,NA,incomplete,112,color,1,right,Red_Plus_Stripes_2.jpg,Purple_Star_Chess_2.jpg,Red_Triangle_Grid_1.jpg,right,415.99500039592385,true,low,false
LE9cNUlz,3b6f54kms5pu5knddy3sw9ki4gws13,320duz38gbz0xgskzpkj0ftst7qgjd,LE9cNUlz,2020-0188,2020-05-07,16:08:18,16:41:17,NA,incomplete,113,color,1,right,Green_Plus_Dots_2.jpg,Purple_Triangle_Grid_2.jpg,Green_Star_Stripes_3.jpg,right,428.9099997840822,true,low,false
LE9cNUlz,3b6f54kms5pu5knddy3sw9ki4gws13,320duz38gbz0xgskzpkj0ftst7qgjd,LE9cNUlz,2020-0188,2020-05-07,16:08:18,16:41:17,NA,incomplete,114,color,0,right,Red_Triangle_Grid_2.jpg,Purple_Circle_Stripes_2.jpg,Red_Plus_Chess_3.jpg,right,439.9650003761053,true,low,false
LE9cNUlz,3b6f54kms5pu5knddy3sw9ki4gws13,320duz38gbz0xgskzpkj0ftst7qgjd,LE9cNUlz,2020-0188,2020-05-07,16:08:18,16:41:17,NA,incomplete,115,color,1,left,Red_Plus_Stripes_4.jpg,Red_Star_Grid_3.jpg,Blue_Triangle_Dots_4.jpg,left,400.56500025093555,true,low,false
LE9cNUlz,3b6f54kms5pu5knddy3sw9ki4gws13,320duz38gbz0xgskzpkj0ftst7qgjd,LE9cNUlz,2020-0188,2020-05-07,16:08:18,16:41:17,NA,incomplete,116,color,1,right,Blue_Star_Stripes_4.jpg,Purple_Plus_Dots_4.jpg,Blue_Circle_Chess_3.jpg,right,421.1450000293553,true,low,false
LE9cNUlz,3b6f54kms5pu5knddy3sw9ki4gws13,320duz38gbz0xgskzpkj0ftst7qgjd,LE9cNUlz,2020-0188,2020-05-07,16:08:18,16:41:17,NA,incomplete,117,color,1,left,Green_Plus_Chess_2.jpg,Green_Triangle_Dots_1.jpg,Purple_Circle_Stripes_2.jpg,left,394.07999999821186,true,low,false
LE9cNUlz,3b6f54kms5pu5knddy3sw9ki4gws13,320duz38gbz0xgskzpkj0ftst7qgjd,LE9cNUlz,2020-0188,2020-05-07,16:08:18,16:41:17,NA,incomplete,118,color,1,right,Purple_Star_Grid_4.jpg,Blue_Circle_Dots_4.jpg,Purple_Triangle_Stripes_3.jpg,right,431.6650000400841,true,low,false
LE9cNUlz,3b6f54kms5pu5knddy3sw9ki4gws13,320duz38gbz0xgskzpkj0ftst7qgjd,LE9cNUlz,2020-0188,2020-05-07,16:08:18,16:41:17,NA,incomplete,119,color,1,right,Purple_Triangle_Dots_4.jpg,Red_Star_Grid_4.jpg,Purple_Circle_Chess_1.jpg,right,483.5450001992285,true,low,false
LE9cNUlz,3b6f54kms5pu5knddy3sw9ki4gws13,320duz38gbz0xgskzpkj0ftst7qgjd,LE9cNUlz,2020-0188,2020-05-07,16:08:18,16:41:17,NA,incomplete,120,number,1,left,Red_Circle_Chess_1.jpg,Blue_Triangle_Grid_1.jpg,Red_Star_Dots_4.jpg,right,412.1249997988343,false,low,false
LE9cNUlz,3b6f54kms5pu5knddy3sw9ki4gws13,320duz38gbz0xgskzpkj0ftst7qgjd,LE9cNUlz,2020-0188,2020-05-07,16:08:18,16:41:17,NA,incomplete,121,number,1,left,Blue_Circle_Chess_3.jpg,Purple_Triangle_Stripes_3.jpg,Blue_Plus_Dots_2.jpg,right,522.4999999627471,false,low,false
LE9cNUlz,3b6f54kms5pu5knddy3sw9ki4gws13,320duz38gbz0xgskzpkj0ftst7qgjd,LE9cNUlz,2020-0188,2020-05-07,16:08:18,16:41:17,NA,incomplete,122,number,1,right,Green_Star_Grid_3.jpg,Green_Triangle_Stripes_2.jpg,Blue_Plus_Chess_3.jpg,right,560.289999935776,true,low,false
LE9cNUlz,3b6f54kms5pu5knddy3sw9ki4gws13,320duz38gbz0xgskzpkj0ftst7qgjd,LE9cNUlz,2020-0188,2020-05-07,16:08:18,16:41:17,NA,incomplete,123,number,1,right,Purple_Plus_Dots_2.jpg,Purple_Triangle_Stripes_4.jpg,Red_Circle_Grid_2.jpg,left,463.05499970912933,false,low,false
LE9cNUlz,3b6f54kms5pu5knddy3sw9ki4gws13,320duz38gbz0xgskzpkj0ftst7qgjd,LE9cNUlz,2020-0188,2020-05-07,16:08:18,16:41:17,NA,incomplete,124,number,0,left,Blue_Circle_Stripes_2.jpg,Purple_Star_Grid_2.jpg,Blue_Triangle_Chess_3.jpg,left,758.2150003872812,true,low,false
LE9cNUlz,3b6f54kms5pu5knddy3sw9ki4gws13,320duz38gbz0xgskzpkj0ftst7qgjd,LE9cNUlz,2020-0188,2020-05-07,16:08:18,16:41:17,NA,incomplete,125,number,1,right,Blue_Star_Dots_2.jpg,Blue_Circle_Grid_1.jpg,Purple_Triangle_Stripes_2.jpg,right,481.4399997703731,true,low,false
LE9cNUlz,3b6f54kms5pu5knddy3sw9ki4gws13,320duz38gbz0xgskzpkj0ftst7qgjd,LE9cNUlz,2020-0188,2020-05-07,16:08:18,16:41:17,NA,incomplete,126,number,0,left,Green_Star_Dots_1.jpg,Blue_Triangle_Grid_1.jpg,Green_Circle_Stripes_3.jpg,left,487.6699997112155,true,low,false
LE9cNUlz,3b6f54kms5pu5knddy3sw9ki4gws13,320duz38gbz0xgskzpkj0ftst7qgjd,LE9cNUlz,2020-0188,2020-05-07,16:08:18,16:41:17,NA,incomplete,127,number,1,left,Blue_Plus_Stripes_3.jpg,Purple_Triangle_Chess_3.jpg,Blue_Star_Dots_1.jpg,right,433.48499992862344,false,low,false
LE9cNUlz,3b6f54kms5pu5knddy3sw9ki4gws13,320duz38gbz0xgskzpkj0ftst7qgjd,LE9cNUlz,2020-0188,2020-05-07,16:08:18,16:41:17,NA,incomplete,128,number,1,right,Purple_Star_Stripes_4.jpg,Purple_Circle_Dots_3.jpg,Green_Triangle_Grid_4.jpg,right,534.090000204742,true,low,false
LE9cNUlz,3b6f54kms5pu5knddy3sw9ki4gws13,320duz38gbz0xgskzpkj0ftst7qgjd,LE9cNUlz,2020-0188,2020-05-07,16:08:18,16:41:17,NA,incomplete,129,number,1,right,Purple_Star_Stripes_1.jpg,Purple_Plus_Dots_3.jpg,Green_Triangle_Chess_1.jpg,right,571.085000410676,true,low,false
LE9cNUlz,3b6f54kms5pu5knddy3sw9ki4gws13,320duz38gbz0xgskzpkj0ftst7qgjd,LE9cNUlz,2020-0188,2020-05-07,16:08:18,16:41:17,NA,incomplete,130,number,1,right,Purple_Plus_Stripes_4.jpg,Purple_Star_Chess_3.jpg,Green_Circle_Dots_4.jpg,right,704.9400000832975,true,low,false
LE9cNUlz,3b6f54kms5pu5knddy3sw9ki4gws13,320duz38gbz0xgskzpkj0ftst7qgjd,LE9cNUlz,2020-0188,2020-05-07,16:08:18,16:41:17,NA,incomplete,131,number,1,right,Blue_Circle_Grid_3.jpg,Blue_Triangle_Chess_1.jpg,Red_Plus_Stripes_3.jpg,right,643.0750000290573,true,low,false
LE9cNUlz,3b6f54kms5pu5knddy3sw9ki4gws13,320duz38gbz0xgskzpkj0ftst7qgjd,LE9cNUlz,2020-0188,2020-05-07,16:08:18,16:41:17,NA,incomplete,132,number,0,right,Red_Triangle_Stripes_2.jpg,Red_Plus_Chess_4.jpg,Purple_Star_Grid_2.jpg,right,565.0100000202656,true,low,false
LE9cNUlz,3b6f54kms5pu5knddy3sw9ki4gws13,320duz38gbz0xgskzpkj0ftst7qgjd,LE9cNUlz,2020-0188,2020-05-07,16:08:18,16:41:17,NA,incomplete,133,number,1,left,Purple_Star_Dots_2.jpg,Blue_Triangle_Chess_2.jpg,Purple_Circle_Stripes_4.jpg,left,563.8749999925494,true,low,false
LE9cNUlz,3b6f54kms5pu5knddy3sw9ki4gws13,320duz38gbz0xgskzpkj0ftst7qgjd,LE9cNUlz,2020-0188,2020-05-07,16:08:18,16:41:17,NA,incomplete,134,number,1,right,Blue_Star_Stripes_3.jpg,Blue_Plus_Grid_1.jpg,Red_Triangle_Dots_3.jpg,right,510.99500013515353,true,low,false
LE9cNUlz,3b6f54kms5pu5knddy3sw9ki4gws13,320duz38gbz0xgskzpkj0ftst7qgjd,LE9cNUlz,2020-0188,2020-05-07,16:08:18,16:41:17,NA,incomplete,135,number,1,right,Purple_Circle_Chess_2.jpg,Purple_Star_Stripes_3.jpg,Green_Triangle_Dots_2.jpg,right,607.8649996779859,true,low,false
LE9cNUlz,3b6f54kms5pu5knddy3sw9ki4gws13,320duz38gbz0xgskzpkj0ftst7qgjd,LE9cNUlz,2020-0188,2020-05-07,16:08:18,16:41:17,NA,incomplete,136,number,1,left,Blue_Triangle_Grid_4.jpg,Purple_Circle_Chess_4.jpg,Blue_Plus_Stripes_1.jpg,left,543.2250001467764,true,low,false
LE9cNUlz,3b6f54kms5pu5knddy3sw9ki4gws13,320duz38gbz0xgskzpkj0ftst7qgjd,LE9cNUlz,2020-0188,2020-05-07,16:08:18,16:41:17,NA,incomplete,137,number,1,right,Green_Star_Grid_3.jpg,Green_Plus_Stripes_1.jpg,Purple_Circle_Dots_3.jpg,left,551.9650001078844,false,low,false
LE9cNUlz,3b6f54kms5pu5knddy3sw9ki4gws13,320duz38gbz0xgskzpkj0ftst7qgjd,LE9cNUlz,2020-0188,2020-05-07,16:08:18,16:41:17,NA,incomplete,138,number,1,right,Blue_Plus_Dots_1.jpg,Blue_Star_Stripes_4.jpg,Red_Circle_Chess_1.jpg,right,562.9399996250868,true,low,false
LE9cNUlz,3b6f54kms5pu5knddy3sw9ki4gws13,320duz38gbz0xgskzpkj0ftst7qgjd,LE9cNUlz,2020-0188,2020-05-07,16:08:18,16:41:17,NA,incomplete,139,number,0,left,Green_Plus_Dots_2.jpg,Blue_Triangle_Chess_2.jpg,Green_Star_Grid_3.jpg,left,694.199999794364,true,low,false
LE9cNUlz,3b6f54kms5pu5knddy3sw9ki4gws13,320duz38gbz0xgskzpkj0ftst7qgjd,LE9cNUlz,2020-0188,2020-05-07,16:08:18,16:41:17,NA,incomplete,140,color,1,right,Green_Plus_Chess_3.jpg,Purple_Star_Stripes_3.jpg,Green_Circle_Dots_4.jpg,left,662.8499999642372,false,low,false
LE9cNUlz,3b6f54kms5pu5knddy3sw9ki4gws13,320duz38gbz0xgskzpkj0ftst7qgjd,LE9cNUlz,2020-0188,2020-05-07,16:08:18,16:41:17,NA,incomplete,141,color,0,right,Red_Star_Chess_2.jpg,Blue_Circle_Grid_2.jpg,Red_Triangle_Stripes_4.jpg,left,613.9599997550249,false,low,false
LE9cNUlz,3b6f54kms5pu5knddy3sw9ki4gws13,320duz38gbz0xgskzpkj0ftst7qgjd,LE9cNUlz,2020-0188,2020-05-07,16:08:18,16:41:17,NA,incomplete,142,color,1,left,Blue_Plus_Stripes_4.jpg,Blue_Triangle_Chess_1.jpg,Red_Star_Grid_4.jpg,right,522.1900003962219,false,low,false
LE9cNUlz,3b6f54kms5pu5knddy3sw9ki4gws13,320duz38gbz0xgskzpkj0ftst7qgjd,LE9cNUlz,2020-0188,2020-05-07,16:08:18,16:41:17,NA,incomplete,143,color,1,right,Purple_Star_Stripes_4.jpg,Blue_Circle_Chess_4.jpg,Purple_Plus_Dots_3.jpg,left,541.7450000531971,false,low,false
LE9cNUlz,3b6f54kms5pu5knddy3sw9ki4gws13,320duz38gbz0xgskzpkj0ftst7qgjd,LE9cNUlz,2020-0188,2020-05-07,16:08:18,16:41:17,NA,incomplete,144,color,1,right,Red_Circle_Chess_4.jpg,Blue_Plus_Grid_4.jpg,Red_Star_Dots_2.jpg,right,538.1399998441339,true,low,false
LE9cNUlz,3b6f54kms5pu5knddy3sw9ki4gws13,320duz38gbz0xgskzpkj0ftst7qgjd,LE9cNUlz,2020-0188,2020-05-07,16:08:18,16:41:17,NA,incomplete,145,color,0,right,Red_Triangle_Grid_1.jpg,Green_Circle_Dots_1.jpg,Red_Star_Stripes_2.jpg,right,476.1299998499453,true,low,false
LE9cNUlz,3b6f54kms5pu5knddy3sw9ki4gws13,320duz38gbz0xgskzpkj0ftst7qgjd,LE9cNUlz,2020-0188,2020-05-07,16:08:18,16:41:17,NA,incomplete,146,color,1,right,Green_Triangle_Chess_2.jpg,Red_Circle_Grid_2.jpg,Green_Star_Dots_4.jpg,right,437.6350003294647,true,low,false
LE9cNUlz,3b6f54kms5pu5knddy3sw9ki4gws13,320duz38gbz0xgskzpkj0ftst7qgjd,LE9cNUlz,2020-0188,2020-05-07,16:08:18,16:41:17,NA,incomplete,147,color,1,right,Blue_Triangle_Stripes_4.jpg,Green_Plus_Grid_4.jpg,Blue_Star_Dots_2.jpg,right,474.71500001847744,true,low,false
LE9cNUlz,3b6f54kms5pu5knddy3sw9ki4gws13,320duz38gbz0xgskzpkj0ftst7qgjd,LE9cNUlz,2020-0188,2020-05-07,16:08:18,16:41:17,NA,incomplete,148,color,0,left,Red_Triangle_Dots_2.jpg,Red_Circle_Chess_3.jpg,Blue_Star_Grid_2.jpg,left,458.5700002498925,true,low,false
LE9cNUlz,3b6f54kms5pu5knddy3sw9ki4gws13,320duz38gbz0xgskzpkj0ftst7qgjd,LE9cNUlz,2020-0188,2020-05-07,16:08:18,16:41:17,NA,incomplete,149,color,1,left,Red_Triangle_Dots_1.jpg,Red_Plus_Chess_4.jpg,Green_Star_Grid_1.jpg,left,574.0049998275936,true,low,false
LE9cNUlz,3b6f54kms5pu5knddy3sw9ki4gws13,320duz38gbz0xgskzpkj0ftst7qgjd,LE9cNUlz,2020-0188,2020-05-07,16:08:18,16:41:17,NA,incomplete,150,color,1,right,Purple_Star_Stripes_3.jpg,Blue_Circle_Dots_3.jpg,Purple_Triangle_Grid_4.jpg,right,418.87000016868114,true,low,false
LE9cNUlz,3b6f54kms5pu5knddy3sw9ki4gws13,320duz38gbz0xgskzpkj0ftst7qgjd,LE9cNUlz,2020-0188,2020-05-07,16:08:18,16:41:17,NA,incomplete,151,color,0,right,Green_Circle_Dots_2.jpg,Blue_Star_Chess_2.jpg,Green_Triangle_Stripes_4.jpg,right,431.03000009432435,true,low,false
LE9cNUlz,3b6f54kms5pu5knddy3sw9ki4gws13,320duz38gbz0xgskzpkj0ftst7qgjd,LE9cNUlz,2020-0188,2020-05-07,16:08:18,16:41:17,NA,incomplete,152,color,1,left,Purple_Circle_Dots_1.jpg,Purple_Plus_Grid_4.jpg,Blue_Triangle_Chess_1.jpg,left,451.11999986693263,true,low,false
LE9cNUlz,3b6f54kms5pu5knddy3sw9ki4gws13,320duz38gbz0xgskzpkj0ftst7qgjd,LE9cNUlz,2020-0188,2020-05-07,16:08:18,16:41:17,NA,incomplete,153,color,1,left,Green_Triangle_Dots_3.jpg,Green_Star_Stripes_4.jpg,Purple_Plus_Grid_3.jpg,left,411.2200001254678,true,low,false
LE9cNUlz,3b6f54kms5pu5knddy3sw9ki4gws13,320duz38gbz0xgskzpkj0ftst7qgjd,LE9cNUlz,2020-0188,2020-05-07,16:08:18,16:41:17,NA,incomplete,154,color,1,left,Red_Star_Grid_1.jpg,Red_Circle_Dots_2.jpg,Green_Triangle_Chess_1.jpg,left,438.65999998524785,true,low,false
LE9cNUlz,3b6f54kms5pu5knddy3sw9ki4gws13,320duz38gbz0xgskzpkj0ftst7qgjd,LE9cNUlz,2020-0188,2020-05-07,16:08:18,16:41:17,NA,incomplete,155,color,0,right,Green_Triangle_Grid_2.jpg,Blue_Plus_Stripes_2.jpg,Green_Circle_Chess_1.jpg,right,491.03999976068735,true,low,false
LE9cNUlz,3b6f54kms5pu5knddy3sw9ki4gws13,320duz38gbz0xgskzpkj0ftst7qgjd,LE9cNUlz,2020-0188,2020-05-07,16:08:18,16:41:17,NA,incomplete,156,color,1,right,Green_Circle_Chess_2.jpg,Red_Star_Grid_2.jpg,Green_Plus_Dots_4.jpg,right,409.5499999821186,true,low,false
LE9cNUlz,3b6f54kms5pu5knddy3sw9ki4gws13,320duz38gbz0xgskzpkj0ftst7qgjd,LE9cNUlz,2020-0188,2020-05-07,16:08:18,16:41:17,NA,incomplete,157,color,1,right,Red_Circle_Stripes_4.jpg,Green_Plus_Grid_4.jpg,Red_Triangle_Chess_1.jpg,right,568.7799998559058,true,low,false
LE9cNUlz,3b6f54kms5pu5knddy3sw9ki4gws13,320duz38gbz0xgskzpkj0ftst7qgjd,LE9cNUlz,2020-0188,2020-05-07,16:08:18,16:41:17,NA,incomplete,158,color,0,left,Blue_Star_Stripes_2.jpg,Blue_Circle_Grid_1.jpg,Purple_Triangle_Dots_2.jpg,left,454.1050000116229,true,low,false
LE9cNUlz,3b6f54kms5pu5knddy3sw9ki4gws13,320duz38gbz0xgskzpkj0ftst7qgjd,LE9cNUlz,2020-0188,2020-05-07,16:08:18,16:41:17,NA,incomplete,159,color,1,right,Blue_Star_Stripes_1.jpg,Red_Triangle_Dots_1.jpg,Blue_Plus_Grid_2.jpg,right,421.6249999590218,true,low,false
LE9cNUlz,3b6f54kms5pu5knddy3sw9ki4gws13,320duz38gbz0xgskzpkj0ftst7qgjd,LE9cNUlz,2020-0188,2020-05-07,16:08:18,16:41:17,NA,incomplete,160,number,1,left,Green_Star_Chess_1.jpg,Purple_Triangle_Stripes_1.jpg,Green_Circle_Grid_3.jpg,right,396.69999992474914,false,low,false
LE9cNUlz,3b6f54kms5pu5knddy3sw9ki4gws13,320duz38gbz0xgskzpkj0ftst7qgjd,LE9cNUlz,2020-0188,2020-05-07,16:08:18,16:41:17,NA,incomplete,161,number,1,right,Green_Plus_Grid_1.jpg,Green_Triangle_Dots_2.jpg,Blue_Star_Chess_1.jpg,left,469.030000269413,false,low,false
LE9cNUlz,3b6f54kms5pu5knddy3sw9ki4gws13,320duz38gbz0xgskzpkj0ftst7qgjd,LE9cNUlz,2020-0188,2020-05-07,16:08:18,16:41:17,NA,incomplete,162,number,1,left,Purple_Plus_Stripes_2.jpg,Red_Star_Dots_2.jpg,Purple_Triangle_Grid_1.jpg,left,520.1949998736382,true,low,false
LE9cNUlz,3b6f54kms5pu5knddy3sw9ki4gws13,320duz38gbz0xgskzpkj0ftst7qgjd,LE9cNUlz,2020-0188,2020-05-07,16:08:18,16:41:17,NA,incomplete,163,number,0,left,Green_Star_Dots_4.jpg,Purple_Triangle_Grid_4.jpg,Green_Plus_Stripes_1.jpg,left,493.10499988496304,true,low,false
LE9cNUlz,3b6f54kms5pu5knddy3sw9ki4gws13,320duz38gbz0xgskzpkj0ftst7qgjd,LE9cNUlz,2020-0188,2020-05-07,16:08:18,16:41:17,NA,incomplete,164,number,1,left,Blue_Star_Stripes_3.jpg,Red_Plus_Dots_3.jpg,Blue_Triangle_Grid_2.jpg,left,569.5449998602271,true,low,false
LE9cNUlz,3b6f54kms5pu5knddy3sw9ki4gws13,320duz38gbz0xgskzpkj0ftst7qgjd,LE9cNUlz,2020-0188,2020-05-07,16:08:18,16:41:17,NA,incomplete,165,number,1,left,Purple_Star_Dots_1.jpg,Green_Circle_Stripes_1.jpg,Purple_Plus_Chess_4.jpg,left,546.6400003060699,true,low,false
LE9cNUlz,3b6f54kms5pu5knddy3sw9ki4gws13,320duz38gbz0xgskzpkj0ftst7qgjd,LE9cNUlz,2020-0188,2020-05-07,16:08:18,16:41:17,NA,incomplete,166,number,1,right,Green_Circle_Dots_2.jpg,Green_Star_Stripes_1.jpg,Purple_Plus_Chess_2.jpg,right,569.6450001560152,true,low,false
LE9cNUlz,3b6f54kms5pu5knddy3sw9ki4gws13,320duz38gbz0xgskzpkj0ftst7qgjd,LE9cNUlz,2020-0188,2020-05-07,16:08:18,16:41:17,NA,incomplete,167,number,1,left,Blue_Circle_Chess_4.jpg,Green_Star_Grid_4.jpg,Blue_Triangle_Dots_3.jpg,left,555.2400001324713,true,low,false
LE9cNUlz,3b6f54kms5pu5knddy3sw9ki4gws13,320duz38gbz0xgskzpkj0ftst7qgjd,LE9cNUlz,2020-0188,2020-05-07,16:08:18,16:41:17,NA,incomplete,168,number,0,right,Green_Circle_Chess_2.jpg,Green_Triangle_Grid_1.jpg,Purple_Plus_Dots_2.jpg,right,726.4950000680983,true,low,false
LE9cNUlz,3b6f54kms5pu5knddy3sw9ki4gws13,320duz38gbz0xgskzpkj0ftst7qgjd,LE9cNUlz,2020-0188,2020-05-07,16:08:18,16:41:17,NA,incomplete,169,number,1,right,Red_Plus_Stripes_2.jpg,Red_Circle_Chess_1.jpg,Green_Triangle_Grid_2.jpg,right,620.4200000502169,true,low,false
LE9cNUlz,3b6f54kms5pu5knddy3sw9ki4gws13,320duz38gbz0xgskzpkj0ftst7qgjd,LE9cNUlz,2020-0188,2020-05-07,16:08:18,16:41:17,NA,incomplete,170,number,1,right,Purple_Triangle_Stripes_2.jpg,Purple_Circle_Dots_4.jpg,Green_Plus_Chess_2.jpg,right,605.3749998100102,true,low,false
LE9cNUlz,3b6f54kms5pu5knddy3sw9ki4gws13,320duz38gbz0xgskzpkj0ftst7qgjd,LE9cNUlz,2020-0188,2020-05-07,16:08:18,16:41:17,NA,incomplete,171,number,0,right,Blue_Star_Dots_3.jpg,Blue_Plus_Grid_4.jpg,Purple_Triangle_Stripes_3.jpg,right,660.9200001694262,true,low,false
LE9cNUlz,3b6f54kms5pu5knddy3sw9ki4gws13,320duz38gbz0xgskzpkj0ftst7qgjd,LE9cNUlz,2020-0188,2020-05-07,16:08:18,16:41:17,NA,incomplete,172,number,1,left,Purple_Circle_Grid_2.jpg,Blue_Plus_Stripes_2.jpg,Purple_Triangle_Dots_3.jpg,left,724.4150000624359,true,low,false
LE9cNUlz,3b6f54kms5pu5knddy3sw9ki4gws13,320duz38gbz0xgskzpkj0ftst7qgjd,LE9cNUlz,2020-0188,2020-05-07,16:08:18,16:41:17,NA,incomplete,173,number,1,left,Red_Plus_Chess_1.jpg,Purple_Triangle_Grid_1.jpg,Red_Star_Stripes_4.jpg,left,631.3049998134375,true,low,false
LE9cNUlz,3b6f54kms5pu5knddy3sw9ki4gws13,320duz38gbz0xgskzpkj0ftst7qgjd,LE9cNUlz,2020-0188,2020-05-07,16:08:18,16:41:17,NA,incomplete,174,number,1,right,Red_Triangle_Chess_2.jpg,Red_Star_Dots_1.jpg,Purple_Circle_Stripes_2.jpg,right,583.0500000156462,true,low,false
LE9cNUlz,3b6f54kms5pu5knddy3sw9ki4gws13,320duz38gbz0xgskzpkj0ftst7qgjd,LE9cNUlz,2020-0188,2020-05-07,16:08:18,16:41:17,NA,incomplete,175,number,1,left,Blue_Triangle_Dots_1.jpg,Red_Star_Chess_1.jpg,Blue_Circle_Grid_2.jpg,left,534.0950000099838,true,low,false
LE9cNUlz,3b6f54kms5pu5knddy3sw9ki4gws13,320duz38gbz0xgskzpkj0ftst7qgjd,LE9cNUlz,2020-0188,2020-05-07,16:08:18,16:41:17,NA,incomplete,176,number,1,right,Blue_Star_Chess_3.jpg,Blue_Plus_Stripes_2.jpg,Purple_Circle_Dots_3.jpg,right,637.2650000266731,true,low,false
LE9cNUlz,3b6f54kms5pu5knddy3sw9ki4gws13,320duz38gbz0xgskzpkj0ftst7qgjd,LE9cNUlz,2020-0188,2020-05-07,16:08:18,16:41:17,NA,incomplete,177,number,1,left,Red_Circle_Grid_3.jpg,Blue_Triangle_Stripes_3.jpg,Red_Plus_Chess_4.jpg,left,684.9549999460578,true,low,false
LE9cNUlz,3b6f54kms5pu5knddy3sw9ki4gws13,320duz38gbz0xgskzpkj0ftst7qgjd,LE9cNUlz,2020-0188,2020-05-07,16:08:18,16:41:17,NA,incomplete,178,number,1,right,Red_Circle_Dots_2.jpg,Red_Triangle_Stripes_3.jpg,Purple_Plus_Chess_2.jpg,right,756.0749999247491,true,low,false
LE9cNUlz,3b6f54kms5pu5knddy3sw9ki4gws13,320duz38gbz0xgskzpkj0ftst7qgjd,LE9cNUlz,2020-0188,2020-05-07,16:08:18,16:41:17,NA,incomplete,179,number,1,left,Purple_Plus_Stripes_3.jpg,Blue_Triangle_Dots_3.jpg,Purple_Star_Chess_4.jpg,left,584.4250000081956,true,low,false
LE9cNUlz,3b6f54kms5pu5knddy3sw9ki4gws13,320duz38gbz0xgskzpkj0ftst7qgjd,LE9cNUlz,2020-0188,2020-05-07,16:08:18,16:41:17,NA,incomplete,180,color,1,right,Green_Plus_Chess_2.jpg,Blue_Triangle_Dots_2.jpg,Green_Circle_Grid_1.jpg,left,583.6700000800192,false,low,false
LE9cNUlz,3b6f54kms5pu5knddy3sw9ki4gws13,320duz38gbz0xgskzpkj0ftst7qgjd,LE9cNUlz,2020-0188,2020-05-07,16:08:18,16:41:17,NA,incomplete,181,color,1,right,Red_Plus_Grid_1.jpg,Purple_Triangle_Chess_1.jpg,Red_Circle_Stripes_4.jpg,left,575.1100000925362,false,low,false
LE9cNUlz,3b6f54kms5pu5knddy3sw9ki4gws13,320duz38gbz0xgskzpkj0ftst7qgjd,LE9cNUlz,2020-0188,2020-05-07,16:08:18,16:41:17,NA,incomplete,182,color,0,left,Red_Star_Dots_2.jpg,Red_Plus_Chess_4.jpg,Purple_Circle_Stripes_2.jpg,left,506.0899998061359,true,low,false
LE9cNUlz,3b6f54kms5pu5knddy3sw9ki4gws13,320duz38gbz0xgskzpkj0ftst7qgjd,LE9cNUlz,2020-0188,2020-05-07,16:08:18,16:41:17,NA,incomplete,183,color,1,right,Blue_Star_Grid_4.jpg,Purple_Triangle_Chess_4.jpg,Blue_Plus_Dots_1.jpg,left,505.1199998706579,false,low,false
LE9cNUlz,3b6f54kms5pu5knddy3sw9ki4gws13,320duz38gbz0xgskzpkj0ftst7qgjd,LE9cNUlz,2020-0188,2020-05-07,16:08:18,16:41:17,NA,incomplete,184,color,1,right,Red_Circle_Grid_4.jpg,Purple_Star_Dots_4.jpg,Red_Triangle_Stripes_2.jpg,right,942.2249998897314,true,low,false
LE9cNUlz,3b6f54kms5pu5knddy3sw9ki4gws13,320duz38gbz0xgskzpkj0ftst7qgjd,LE9cNUlz,2020-0188,2020-05-07,16:08:18,16:41:17,NA,incomplete,185,color,1,left,Purple_Plus_Dots_4.jpg,Purple_Triangle_Stripes_1.jpg,Blue_Circle_Chess_4.jpg,left,474.07499980181456,true,low,false
LE9cNUlz,3b6f54kms5pu5knddy3sw9ki4gws13,320duz38gbz0xgskzpkj0ftst7qgjd,LE9cNUlz,2020-0188,2020-05-07,16:08:18,16:41:17,NA,incomplete,186,color,1,left,Blue_Star_Stripes_4.jpg,Blue_Circle_Chess_1.jpg,Purple_Plus_Grid_4.jpg,left,518.8199998810887,true,low,false
LE9cNUlz,3b6f54kms5pu5knddy3sw9ki4gws13,320duz38gbz0xgskzpkj0ftst7qgjd,LE9cNUlz,2020-0188,2020-05-07,16:08:18,16:41:17,NA,incomplete,187,color,1,left,Red_Triangle_Stripes_4.jpg,Red_Star_Dots_3.jpg,Purple_Plus_Grid_4.jpg,left,426.75000010058284,true,low,false
LE9cNUlz,3b6f54kms5pu5knddy3sw9ki4gws13,320duz38gbz0xgskzpkj0ftst7qgjd,LE9cNUlz,2020-0188,2020-05-07,16:08:18,16:41:17,NA,incomplete,188,color,0,left,Red_Circle_Dots_4.jpg,Red_Star_Grid_1.jpg,Blue_Plus_Chess_4.jpg,left,448.5450000502169,true,low,false
LE9cNUlz,3b6f54kms5pu5knddy3sw9ki4gws13,320duz38gbz0xgskzpkj0ftst7qgjd,LE9cNUlz,2020-0188,2020-05-07,16:08:18,16:41:17,NA,incomplete,189,color,1,left,Purple_Star_Chess_4.jpg,Purple_Circle_Grid_2.jpg,Green_Plus_Dots_4.jpg,left,527.3400000296533,true,low,false
LE9cNUlz,3b6f54kms5pu5knddy3sw9ki4gws13,320duz38gbz0xgskzpkj0ftst7qgjd,LE9cNUlz,2020-0188,2020-05-07,16:08:18,16:41:17,NA,incomplete,190,color,1,left,Purple_Star_Chess_4.jpg,Purple_Plus_Stripes_1.jpg,Green_Triangle_Dots_4.jpg,left,446.2850000709295,true,low,false
LE9cNUlz,3b6f54kms5pu5knddy3sw9ki4gws13,320duz38gbz0xgskzpkj0ftst7qgjd,LE9cNUlz,2020-0188,2020-05-07,16:08:18,16:41:17,NA,incomplete,191,color,0,right,Blue_Star_Chess_1.jpg,Red_Triangle_Stripes_1.jpg,Blue_Circle_Grid_3.jpg,right,452.51999981701374,true,low,false
LE9cNUlz,3b6f54kms5pu5knddy3sw9ki4gws13,320duz38gbz0xgskzpkj0ftst7qgjd,LE9cNUlz,2020-0188,2020-05-07,16:08:18,16:41:17,NA,incomplete,192,color,1,left,Purple_Star_Dots_2.jpg,Purple_Plus_Grid_1.jpg,Red_Circle_Stripes_2.jpg,left,436.23000010848045,true,low,false
LE9cNUlz,3b6f54kms5pu5knddy3sw9ki4gws13,320duz38gbz0xgskzpkj0ftst7qgjd,LE9cNUlz,2020-0188,2020-05-07,16:08:18,16:41:17,NA,incomplete,193,color,1,right,Red_Star_Dots_1.jpg,Blue_Plus_Stripes_1.jpg,Red_Circle_Grid_2.jpg,right,562.2049998492002,true,low,false
LE9cNUlz,3b6f54kms5pu5knddy3sw9ki4gws13,320duz38gbz0xgskzpkj0ftst7qgjd,LE9cNUlz,2020-0188,2020-05-07,16:08:18,16:41:17,NA,incomplete,194,color,0,left,Red_Plus_Dots_3.jpg,Red_Circle_Grid_1.jpg,Purple_Star_Chess_3.jpg,left,462.7100001089275,true,low,false
LE9cNUlz,3b6f54kms5pu5knddy3sw9ki4gws13,320duz38gbz0xgskzpkj0ftst7qgjd,LE9cNUlz,2020-0188,2020-05-07,16:08:18,16:41:17,NA,incomplete,195,color,1,left,Blue_Circle_Stripes_1.jpg,Blue_Plus_Grid_3.jpg,Purple_Star_Dots_1.jpg,left,447.43499998003244,true,low,false
LE9cNUlz,3b6f54kms5pu5knddy3sw9ki4gws13,320duz38gbz0xgskzpkj0ftst7qgjd,LE9cNUlz,2020-0188,2020-05-07,16:08:18,16:41:17,NA,incomplete,196,color,1,left,Purple_Star_Stripes_4.jpg,Purple_Circle_Dots_2.jpg,Red_Plus_Grid_4.jpg,left,491.67999997735023,true,low,false
LE9cNUlz,3b6f54kms5pu5knddy3sw9ki4gws13,320duz38gbz0xgskzpkj0ftst7qgjd,LE9cNUlz,2020-0188,2020-05-07,16:08:18,16:41:17,NA,incomplete,197,color,1,left,Purple_Star_Grid_4.jpg,Purple_Circle_Chess_3.jpg,Green_Plus_Stripes_4.jpg,left,419.214999768883,true,low,false
LE9cNUlz,3b6f54kms5pu5knddy3sw9ki4gws13,320duz38gbz0xgskzpkj0ftst7qgjd,LE9cNUlz,2020-0188,2020-05-07,16:08:18,16:41:17,NA,incomplete,198,color,1,right,Purple_Triangle_Chess_4.jpg,Red_Star_Grid_4.jpg,Purple_Plus_Stripes_1.jpg,right,570.3499997034669,true,low,false
LE9cNUlz,3b6f54kms5pu5knddy3sw9ki4gws13,320duz38gbz0xgskzpkj0ftst7qgjd,LE9cNUlz,2020-0188,2020-05-07,16:08:18,16:41:17,NA,incomplete,199,color,1,right,Red_Circle_Dots_2.jpg,Purple_Star_Grid_2.jpg,Red_Triangle_Stripes_1.jpg,right,611.235000193119,true,low,false
LE9cNUlz,3b6f54kms5pu5knddy3sw9ki4gws13,320duz38gbz0xgskzpkj0ftst7qgjd,LE9cNUlz,2020-0188,2020-05-07,16:08:18,16:41:17,NA,incomplete,200,number,0,left,Blue_Triangle_Grid_2.jpg,Purple_Circle_Stripes_2.jpg,Blue_Plus_Chess_1.jpg,right,441.0149999894202,false,low,false
LE9cNUlz,3b6f54kms5pu5knddy3sw9ki4gws13,320duz38gbz0xgskzpkj0ftst7qgjd,LE9cNUlz,2020-0188,2020-05-07,16:08:18,16:41:17,NA,incomplete,201,number,1,left,Purple_Star_Dots_1.jpg,Blue_Triangle_Chess_1.jpg,Purple_Plus_Stripes_2.jpg,right,440.849999897182,false,low,false
LE9cNUlz,3b6f54kms5pu5knddy3sw9ki4gws13,320duz38gbz0xgskzpkj0ftst7qgjd,LE9cNUlz,2020-0188,2020-05-07,16:08:18,16:41:17,NA,incomplete,202,number,1,right,Red_Star_Stripes_3.jpg,Red_Triangle_Chess_1.jpg,Blue_Circle_Dots_3.jpg,left,478.66500029340386,false,low,false
LE9cNUlz,3b6f54kms5pu5knddy3sw9ki4gws13,320duz38gbz0xgskzpkj0ftst7qgjd,LE9cNUlz,2020-0188,2020-05-07,16:08:18,16:41:17,NA,incomplete,203,number,1,right,Blue_Triangle_Chess_3.jpg,Blue_Circle_Dots_2.jpg,Red_Plus_Grid_3.jpg,right,681.0649996623397,true,low,false
LE9cNUlz,3b6f54kms5pu5knddy3sw9ki4gws13,320duz38gbz0xgskzpkj0ftst7qgjd,LE9cNUlz,2020-0188,2020-05-07,16:08:18,16:41:17,NA,incomplete,204,number,1,right,Blue_Triangle_Chess_4.jpg,Blue_Plus_Grid_3.jpg,Purple_Circle_Dots_4.jpg,right,713.3249999023974,true,low,false
LE9cNUlz,3b6f54kms5pu5knddy3sw9ki4gws13,320duz38gbz0xgskzpkj0ftst7qgjd,LE9cNUlz,2020-0188,2020-05-07,16:08:18,16:41:17,NA,incomplete,205,number,0,left,Green_Star_Dots_4.jpg,Red_Triangle_Grid_4.jpg,Green_Circle_Stripes_1.jpg,left,547.3600002005696,true,low,false
LE9cNUlz,3b6f54kms5pu5knddy3sw9ki4gws13,320duz38gbz0xgskzpkj0ftst7qgjd,LE9cNUlz,2020-0188,2020-05-07,16:08:18,16:41:17,NA,incomplete,206,number,1,right,Red_Star_Dots_2.jpg,Red_Plus_Chess_3.jpg,Purple_Triangle_Stripes_2.jpg,right,736.7000002413988,true,low,false
LE9cNUlz,3b6f54kms5pu5knddy3sw9ki4gws13,320duz38gbz0xgskzpkj0ftst7qgjd,LE9cNUlz,2020-0188,2020-05-07,16:08:18,16:41:17,NA,incomplete,207,number,1,right,Purple_Star_Dots_1.jpg,Purple_Triangle_Grid_3.jpg,Red_Plus_Chess_1.jpg,right,634.2850001528859,true,low,false
LE9cNUlz,3b6f54kms5pu5knddy3sw9ki4gws13,320duz38gbz0xgskzpkj0ftst7qgjd,LE9cNUlz,2020-0188,2020-05-07,16:08:18,16:41:17,NA,incomplete,208,number,1,left,Purple_Circle_Stripes_4.jpg,Red_Star_Grid_4.jpg,Purple_Triangle_Chess_3.jpg,left,691.894999705255,true,low,false
LE9cNUlz,3b6f54kms5pu5knddy3sw9ki4gws13,320duz38gbz0xgskzpkj0ftst7qgjd,LE9cNUlz,2020-0188,2020-05-07,16:08:18,16:41:17,NA,incomplete,209,number,0,right,Blue_Star_Dots_4.jpg,Blue_Circle_Stripes_3.jpg,Red_Plus_Chess_4.jpg,right,534.8749998956919,true,low,false
LE9cNUlz,3b6f54kms5pu5knddy3sw9ki4gws13,320duz38gbz0xgskzpkj0ftst7qgjd,LE9cNUlz,2020-0188,2020-05-07,16:08:18,16:41:17,NA,incomplete,210,number,1,right,Green_Star_Chess_1.jpg,Green_Circle_Dots_2.jpg,Red_Triangle_Stripes_1.jpg,right,641.21999964118,true,low,false
LE9cNUlz,3b6f54kms5pu5knddy3sw9ki4gws13,320duz38gbz0xgskzpkj0ftst7qgjd,LE9cNUlz,2020-0188,2020-05-07,16:08:18,16:41:17,NA,incomplete,211,number,1,left,Red_Triangle_Chess_2.jpg,Blue_Circle_Dots_2.jpg,Red_Plus_Stripes_3.jpg,left,605.7999995537102,true,low,false
LE9cNUlz,3b6f54kms5pu5knddy3sw9ki4gws13,320duz38gbz0xgskzpkj0ftst7qgjd,LE9cNUlz,2020-0188,2020-05-07,16:08:18,16:41:17,NA,incomplete,212,number,1,right,Green_Triangle_Grid_4.jpg,Green_Circle_Stripes_1.jpg,Red_Plus_Chess_4.jpg,right,555.8299999684095,true,low,false
LE9cNUlz,3b6f54kms5pu5knddy3sw9ki4gws13,320duz38gbz0xgskzpkj0ftst7qgjd,LE9cNUlz,2020-0188,2020-05-07,16:08:18,16:41:17,NA,incomplete,213,number,1,right,Purple_Circle_Dots_1.jpg,Purple_Star_Grid_3.jpg,Blue_Plus_Chess_1.jpg,right,780.5399997159839,true,low,false
LE9cNUlz,3b6f54kms5pu5knddy3sw9ki4gws13,320duz38gbz0xgskzpkj0ftst7qgjd,LE9cNUlz,2020-0188,2020-05-07,16:08:18,16:41:17,NA,incomplete,214,number,1,left,Green_Star_Grid_3.jpg,Purple_Triangle_Stripes_3.jpg,Green_Plus_Chess_2.jpg,left,725.279999896884,true,low,false
LE9cNUlz,3b6f54kms5pu5knddy3sw9ki4gws13,320duz38gbz0xgskzpkj0ftst7qgjd,LE9cNUlz,2020-0188,2020-05-07,16:08:18,16:41:17,NA,incomplete,215,number,0,right,Blue_Circle_Chess_3.jpg,Blue_Plus_Stripes_1.jpg,Purple_Triangle_Dots_3.jpg,right,569.0950001589954,true,low,false
LE9cNUlz,3b6f54kms5pu5knddy3sw9ki4gws13,320duz38gbz0xgskzpkj0ftst7qgjd,LE9cNUlz,2020-0188,2020-05-07,16:08:18,16:41:17,NA,incomplete,216,number,1,right,Red_Plus_Dots_4.jpg,Red_Circle_Stripes_1.jpg,Blue_Star_Chess_4.jpg,right,579.6150001697242,true,low,false
LE9cNUlz,3b6f54kms5pu5knddy3sw9ki4gws13,320duz38gbz0xgskzpkj0ftst7qgjd,LE9cNUlz,2020-0188,2020-05-07,16:08:18,16:41:17,NA,incomplete,217,number,1,left,Blue_Circle_Dots_1.jpg,Green_Plus_Stripes_1.jpg,Blue_Triangle_Chess_3.jpg,left,674.0900003351271,true,low,false
LE9cNUlz,3b6f54kms5pu5knddy3sw9ki4gws13,320duz38gbz0xgskzpkj0ftst7qgjd,LE9cNUlz,2020-0188,2020-05-07,16:08:18,16:41:17,NA,incomplete,218,number,0,left,Green_Plus_Dots_1.jpg,Purple_Star_Chess_1.jpg,Green_Circle_Grid_2.jpg,left,753.8149999454618,true,low,false
LE9cNUlz,3b6f54kms5pu5knddy3sw9ki4gws13,320duz38gbz0xgskzpkj0ftst7qgjd,LE9cNUlz,2020-0188,2020-05-07,16:08:18,16:41:17,NA,incomplete,219,number,1,left,Green_Plus_Stripes_2.jpg,Red_Triangle_Chess_2.jpg,Green_Star_Dots_4.jpg,left,607.4699996970594,true,low,false
LE9cNUlz,3b6f54kms5pu5knddy3sw9ki4gws13,320duz38gbz0xgskzpkj0ftst7qgjd,LE9cNUlz,2020-0188,2020-05-07,16:08:18,16:41:17,NA,incomplete,220,color,0,right,Blue_Circle_Chess_2.jpg,Red_Plus_Dots_2.jpg,Blue_Star_Stripes_3.jpg,left,758.9900000020862,false,low,false
LE9cNUlz,3b6f54kms5pu5knddy3sw9ki4gws13,320duz38gbz0xgskzpkj0ftst7qgjd,LE9cNUlz,2020-0188,2020-05-07,16:08:18,16:41:17,NA,incomplete,221,color,1,left,Blue_Triangle_Chess_2.jpg,Blue_Circle_Stripes_1.jpg,Purple_Star_Dots_2.jpg,right,586.0249996185303,false,low,false
LE9cNUlz,3b6f54kms5pu5knddy3sw9ki4gws13,320duz38gbz0xgskzpkj0ftst7qgjd,LE9cNUlz,2020-0188,2020-05-07,16:08:18,16:41:17,NA,incomplete,222,color,1,right,Red_Star_Dots_2.jpg,Purple_Plus_Stripes_2.jpg,Red_Triangle_Grid_1.jpg,left,592.0899999327958,false,low,false
LE9cNUlz,3b6f54kms5pu5knddy3sw9ki4gws13,320duz38gbz0xgskzpkj0ftst7qgjd,LE9cNUlz,2020-0188,2020-05-07,16:08:18,16:41:17,NA,incomplete,223,color,1,left,Purple_Star_Dots_4.jpg,Purple_Circle_Grid_2.jpg,Blue_Plus_Chess_4.jpg,left,463.86999962851405,true,low,false
LE9cNUlz,3b6f54kms5pu5knddy3sw9ki4gws13,320duz38gbz0xgskzpkj0ftst7qgjd,LE9cNUlz,2020-0188,2020-05-07,16:08:18,16:41:17,NA,incomplete,224,color,1,right,Red_Plus_Grid_3.jpg,Green_Circle_Dots_3.jpg,Red_Star_Chess_1.jpg,right,464.1350000165403,true,low,false
LE9cNUlz,3b6f54kms5pu5knddy3sw9ki4gws13,320duz38gbz0xgskzpkj0ftst7qgjd,LE9cNUlz,2020-0188,2020-05-07,16:08:18,16:41:17,NA,incomplete,225,color,1,right,Purple_Triangle_Stripes_3.jpg,Red_Circle_Grid_3.jpg,Purple_Star_Dots_2.jpg,right,612.120000179857,true,low,false
LE9cNUlz,3b6f54kms5pu5knddy3sw9ki4gws13,320duz38gbz0xgskzpkj0ftst7qgjd,LE9cNUlz,2020-0188,2020-05-07,16:08:18,16:41:17,NA,incomplete,226,color,1,left,Purple_Circle_Grid_2.jpg,Purple_Star_Stripes_3.jpg,Red_Triangle_Chess_2.jpg,left,472.84499974921346,true,low,false
LE9cNUlz,3b6f54kms5pu5knddy3sw9ki4gws13,320duz38gbz0xgskzpkj0ftst7qgjd,LE9cNUlz,2020-0188,2020-05-07,16:08:18,16:41:17,NA,incomplete,227,color,1,left,Green_Triangle_Chess_2.jpg,Green_Plus_Grid_1.jpg,Purple_Circle_Stripes_2.jpg,left,560.3499999269843,true,low,false
LE9cNUlz,3b6f54kms5pu5knddy3sw9ki4gws13,320duz38gbz0xgskzpkj0ftst7qgjd,LE9cNUlz,2020-0188,2020-05-07,16:08:18,16:41:17,NA,incomplete,228,color,1,right,Blue_Triangle_Dots_4.jpg,Red_Circle_Grid_4.jpg,Blue_Plus_Stripes_3.jpg,right,431.7100001499057,true,low,false
LE9cNUlz,3b6f54kms5pu5knddy3sw9ki4gws13,320duz38gbz0xgskzpkj0ftst7qgjd,LE9cNUlz,2020-0188,2020-05-07,16:08:18,16:41:17,NA,incomplete,229,color,1,left,Purple_Star_Dots_1.jpg,Purple_Triangle_Grid_2.jpg,Green_Plus_Chess_1.jpg,left,443.4050000272691,true,low,false
LE9cNUlz,3b6f54kms5pu5knddy3sw9ki4gws13,320duz38gbz0xgskzpkj0ftst7qgjd,LE9cNUlz,2020-0188,2020-05-07,16:08:18,16:41:17,NA,incomplete,230,color,1,right,Green_Triangle_Dots_4.jpg,Red_Circle_Grid_4.jpg,Green_Star_Stripes_1.jpg,right,508.1400000490248,true,low,false
LE9cNUlz,3b6f54kms5pu5knddy3sw9ki4gws13,320duz38gbz0xgskzpkj0ftst7qgjd,LE9cNUlz,2020-0188,2020-05-07,16:08:18,16:41:17,NA,incomplete,231,color,1,left,Red_Triangle_Stripes_3.jpg,Red_Circle_Grid_2.jpg,Green_Star_Chess_3.jpg,left,477.11999993771315,true,low,false
LE9cNUlz,3b6f54kms5pu5knddy3sw9ki4gws13,320duz38gbz0xgskzpkj0ftst7qgjd,LE9cNUlz,2020-0188,2020-05-07,16:08:18,16:41:17,NA,incomplete,232,color,1,right,Blue_Plus_Chess_4.jpg,Purple_Triangle_Stripes_4.jpg,Blue_Circle_Grid_3.jpg,right,447.9299997910857,true,low,false
LE9cNUlz,3b6f54kms5pu5knddy3sw9ki4gws13,320duz38gbz0xgskzpkj0ftst7qgjd,LE9cNUlz,2020-0188,2020-05-07,16:08:18,16:41:17,NA,incomplete,233,color,1,right,Green_Triangle_Dots_1.jpg,Purple_Circle_Stripes_1.jpg,Green_Star_Chess_4.jpg,right,475.9100000374019,true,low,false
LE9cNUlz,3b6f54kms5pu5knddy3sw9ki4gws13,320duz38gbz0xgskzpkj0ftst7qgjd,LE9cNUlz,2020-0188,2020-05-07,16:08:18,16:41:17,NA,incomplete,234,color,1,left,Purple_Star_Dots_2.jpg,Purple_Triangle_Grid_4.jpg,Blue_Circle_Chess_2.jpg,left,411.15000005811453,true,low,false
LE9cNUlz,3b6f54kms5pu5knddy3sw9ki4gws13,320duz38gbz0xgskzpkj0ftst7qgjd,LE9cNUlz,2020-0188,2020-05-07,16:08:18,16:41:17,NA,incomplete,235,color,1,left,Purple_Plus_Grid_3.jpg,Purple_Star_Stripes_1.jpg,Blue_Circle_Chess_3.jpg,left,511.21999975293875,true,low,false
LE9cNUlz,3b6f54kms5pu5knddy3sw9ki4gws13,320duz38gbz0xgskzpkj0ftst7qgjd,LE9cNUlz,2020-0188,2020-05-07,16:08:18,16:41:17,NA,incomplete,236,color,1,left,Purple_Circle_Chess_3.jpg,Purple_Star_Grid_2.jpg,Blue_Triangle_Stripes_3.jpg,left,449.775000102818,true,low,false
LE9cNUlz,3b6f54kms5pu5knddy3sw9ki4gws13,320duz38gbz0xgskzpkj0ftst7qgjd,LE9cNUlz,2020-0188,2020-05-07,16:08:18,16:41:17,NA,incomplete,237,color,0,left,Green_Star_Chess_3.jpg,Green_Plus_Grid_4.jpg,Red_Triangle_Stripes_3.jpg,left,419.42499997094274,true,low,false
LE9cNUlz,3b6f54kms5pu5knddy3sw9ki4gws13,320duz38gbz0xgskzpkj0ftst7qgjd,LE9cNUlz,2020-0188,2020-05-07,16:08:18,16:41:17,NA,incomplete,238,color,1,right,Red_Star_Grid_2.jpg,Green_Circle_Chess_2.jpg,Red_Triangle_Dots_1.jpg,right,419.8850002139807,true,low,false
LE9cNUlz,3b6f54kms5pu5knddy3sw9ki4gws13,320duz38gbz0xgskzpkj0ftst7qgjd,LE9cNUlz,2020-0188,2020-05-07,16:08:18,16:41:17,NA,incomplete,239,color,1,right,Red_Star_Grid_4.jpg,Blue_Circle_Stripes_4.jpg,Red_Plus_Chess_3.jpg,right,429.8649998381734,true,low,false
LE9cNUlz,3b6f54kms5pu5knddy3sw9ki4gws13,320duz38gbz0xgskzpkj0ftst7qgjd,LE9cNUlz,2020-0188,2020-05-07,16:08:18,16:41:17,1940861.680000089,1989091.649999842,NA,NA,NA,NA,NA,NA,NA,NA,NA,NA,NA,undefined
