workerId,hitId,assignmentId,subject,studyid,exp_date,exp_start,exp_end,time_start,time_end,trial,type,reward_validity,answer,image_top,image_left,image_right,response,response_time,response_acc,volatility,age,race,gender,ethnicity,color,vision,neuro,practice
e1dUSFNT,3zvpamtjxqgf8kd3gsoqdmjsr77grt,32eyx73oy4m00mcsrzi96lgbeeiru3,e1dUSFNT,2020-0188,2020-11-21,23:17:16,23:52:38,NA,incomplete,0,filling,1,left,Green_Triangle_Stripes_3.jpg,Red_Circle_Stripes_4.jpg,Blue_Star_Chess_3.jpg,left,1869.1799999796785,true,NA,NA,NA,NA,NA,NA,NA,NA,true
e1dUSFNT,3zvpamtjxqgf8kd3gsoqdmjsr77grt,32eyx73oy4m00mcsrzi96lgbeeiru3,e1dUSFNT,2020-0188,2020-11-21,23:17:16,23:52:38,NA,incomplete,1,filling,1,right,Blue_Circle_Dots_3.jpg,Purple_Star_Stripes_3.jpg,Green_Triangle_Dots_4.jpg,right,1571.6000000247732,true,NA,NA,NA,NA,NA,NA,NA,NA,true
e1dUSFNT,3zvpamtjxqgf8kd3gsoqdmjsr77grt,32eyx73oy4m00mcsrzi96lgbeeiru3,e1dUSFNT,2020-0188,2020-11-21,23:17:16,23:52:38,NA,incomplete,2,filling,0,right,Purple_Plus_Chess_1.jpg,Green_Circle_Dots_1.jpg,Blue_Star_Chess_2.jpg,right,1609.9899999971967,true,NA,NA,NA,NA,NA,NA,NA,NA,true
e1dUSFNT,3zvpamtjxqgf8kd3gsoqdmjsr77grt,32eyx73oy4m00mcsrzi96lgbeeiru3,e1dUSFNT,2020-0188,2020-11-21,23:17:16,23:52:38,NA,incomplete,3,filling,1,left,Green_Circle_Grid_3.jpg,Blue_Triangle_Grid_4.jpg,Purple_Star_Chess_3.jpg,left,1505.429999990156,true,NA,NA,NA,NA,NA,NA,NA,NA,true
e1dUSFNT,3zvpamtjxqgf8kd3gsoqdmjsr77grt,32eyx73oy4m00mcsrzi96lgbeeiru3,e1dUSFNT,2020-0188,2020-11-21,23:17:16,23:52:38,NA,incomplete,4,filling,1,left,Purple_Star_Stripes_1.jpg,Green_Triangle_Stripes_3.jpg,Red_Circle_Dots_1.jpg,left,1283.2050000142772,true,NA,NA,NA,NA,NA,NA,NA,NA,true
e1dUSFNT,3zvpamtjxqgf8kd3gsoqdmjsr77grt,32eyx73oy4m00mcsrzi96lgbeeiru3,e1dUSFNT,2020-0188,2020-11-21,23:17:16,23:52:38,NA,incomplete,5,filling,1,right,Green_Star_Grid_4.jpg,Blue_Plus_Dots_4.jpg,Red_Triangle_Grid_3.jpg,right,1376.494999974966,true,NA,NA,NA,NA,NA,NA,NA,NA,true
e1dUSFNT,3zvpamtjxqgf8kd3gsoqdmjsr77grt,32eyx73oy4m00mcsrzi96lgbeeiru3,e1dUSFNT,2020-0188,2020-11-21,23:17:16,23:52:38,NA,incomplete,6,filling,1,left,Purple_Circle_Dots_2.jpg,Green_Plus_Dots_3.jpg,Blue_Triangle_Chess_2.jpg,left,1332.5750000076368,true,NA,NA,NA,NA,NA,NA,NA,NA,true
e1dUSFNT,3zvpamtjxqgf8kd3gsoqdmjsr77grt,32eyx73oy4m00mcsrzi96lgbeeiru3,e1dUSFNT,2020-0188,2020-11-21,23:17:16,23:52:38,NA,incomplete,7,filling,1,right,Green_Circle_Chess_2.jpg,Red_Triangle_Grid_2.jpg,Purple_Star_Chess_3.jpg,right,1379.094999982044,true,NA,NA,NA,NA,NA,NA,NA,NA,true
e1dUSFNT,3zvpamtjxqgf8kd3gsoqdmjsr77grt,32eyx73oy4m00mcsrzi96lgbeeiru3,e1dUSFNT,2020-0188,2020-11-21,23:17:16,23:52:38,NA,incomplete,8,filling,1,right,Green_Triangle_Chess_1.jpg,Red_Plus_Grid_1.jpg,Blue_Circle_Chess_4.jpg,right,1521.2400000018533,true,NA,NA,NA,NA,NA,NA,NA,NA,true
e1dUSFNT,3zvpamtjxqgf8kd3gsoqdmjsr77grt,32eyx73oy4m00mcsrzi96lgbeeiru3,e1dUSFNT,2020-0188,2020-11-21,23:17:16,23:52:38,NA,incomplete,9,filling,1,left,Green_Star_Dots_3.jpg,Purple_Circle_Dots_1.jpg,Blue_Triangle_Chess_3.jpg,left,1380.959999980405,true,NA,NA,NA,NA,NA,NA,NA,NA,true
e1dUSFNT,3zvpamtjxqgf8kd3gsoqdmjsr77grt,32eyx73oy4m00mcsrzi96lgbeeiru3,e1dUSFNT,2020-0188,2020-11-21,23:17:16,23:52:38,NA,incomplete,10,filling,1,right,Green_Star_Stripes_1.jpg,Purple_Triangle_Grid_1.jpg,Blue_Plus_Stripes_2.jpg,left,1595.9399999992456,false,NA,NA,NA,NA,NA,NA,NA,NA,true
e1dUSFNT,3zvpamtjxqgf8kd3gsoqdmjsr77grt,32eyx73oy4m00mcsrzi96lgbeeiru3,e1dUSFNT,2020-0188,2020-11-21,23:17:16,23:52:38,NA,incomplete,11,filling,1,left,Green_Triangle_Stripes_4.jpg,Purple_Plus_Stripes_1.jpg,Blue_Star_Grid_4.jpg,left,1571.1250000167638,true,NA,NA,NA,NA,NA,NA,NA,NA,true
e1dUSFNT,3zvpamtjxqgf8kd3gsoqdmjsr77grt,32eyx73oy4m00mcsrzi96lgbeeiru3,e1dUSFNT,2020-0188,2020-11-21,23:17:16,23:52:38,NA,incomplete,12,filling,1,left,Purple_Plus_Chess_1.jpg,Red_Circle_Chess_3.jpg,Green_Triangle_Grid_1.jpg,left,1160.5649999983143,true,NA,NA,NA,NA,NA,NA,NA,NA,true
e1dUSFNT,3zvpamtjxqgf8kd3gsoqdmjsr77grt,32eyx73oy4m00mcsrzi96lgbeeiru3,e1dUSFNT,2020-0188,2020-11-21,23:17:16,23:52:38,NA,incomplete,13,filling,1,right,Blue_Plus_Grid_2.jpg,Red_Triangle_Stripes_2.jpg,Green_Circle_Grid_1.jpg,right,1269.5149999926798,true,NA,NA,NA,NA,NA,NA,NA,NA,true
e1dUSFNT,3zvpamtjxqgf8kd3gsoqdmjsr77grt,32eyx73oy4m00mcsrzi96lgbeeiru3,e1dUSFNT,2020-0188,2020-11-21,23:17:16,23:52:38,NA,incomplete,14,filling,0,left,Red_Circle_Chess_2.jpg,Purple_Plus_Chess_3.jpg,Green_Star_Dots_2.jpg,left,1182.4449999839999,true,NA,NA,NA,NA,NA,NA,NA,NA,true
e1dUSFNT,3zvpamtjxqgf8kd3gsoqdmjsr77grt,32eyx73oy4m00mcsrzi96lgbeeiru3,e1dUSFNT,2020-0188,2020-11-21,23:17:16,23:52:38,NA,incomplete,15,filling,1,right,Purple_Circle_Chess_2.jpg,Green_Star_Grid_2.jpg,Blue_Plus_Chess_4.jpg,right,1250.9750000026543,true,NA,NA,NA,NA,NA,NA,NA,NA,true
e1dUSFNT,3zvpamtjxqgf8kd3gsoqdmjsr77grt,32eyx73oy4m00mcsrzi96lgbeeiru3,e1dUSFNT,2020-0188,2020-11-21,23:17:16,23:52:38,NA,incomplete,16,filling,1,left,Green_Star_Dots_2.jpg,Blue_Circle_Dots_3.jpg,Purple_Plus_Stripes_2.jpg,left,1101.1799999978393,true,NA,NA,NA,NA,NA,NA,NA,NA,true
e1dUSFNT,3zvpamtjxqgf8kd3gsoqdmjsr77grt,32eyx73oy4m00mcsrzi96lgbeeiru3,e1dUSFNT,2020-0188,2020-11-21,23:17:16,23:52:38,NA,incomplete,17,filling,1,right,Green_Star_Dots_2.jpg,Blue_Circle_Stripes_2.jpg,Red_Triangle_Dots_1.jpg,right,1229.3549999885727,true,NA,NA,NA,NA,NA,NA,NA,NA,true
e1dUSFNT,3zvpamtjxqgf8kd3gsoqdmjsr77grt,32eyx73oy4m00mcsrzi96lgbeeiru3,e1dUSFNT,2020-0188,2020-11-21,23:17:16,23:52:38,NA,incomplete,18,filling,0,left,Purple_Star_Chess_2.jpg,Green_Triangle_Chess_1.jpg,Blue_Plus_Stripes_2.jpg,left,1415.6049999874085,true,NA,NA,NA,NA,NA,NA,NA,NA,true
e1dUSFNT,3zvpamtjxqgf8kd3gsoqdmjsr77grt,32eyx73oy4m00mcsrzi96lgbeeiru3,e1dUSFNT,2020-0188,2020-11-21,23:17:16,23:52:38,NA,incomplete,19,filling,0,right,Red_Triangle_Dots_3.jpg,Green_Star_Stripes_3.jpg,Purple_Circle_Dots_2.jpg,right,1234.8049999854993,true,NA,NA,NA,NA,NA,NA,NA,NA,true
e1dUSFNT,3zvpamtjxqgf8kd3gsoqdmjsr77grt,32eyx73oy4m00mcsrzi96lgbeeiru3,e1dUSFNT,2020-0188,2020-11-21,23:17:16,23:52:38,NA,incomplete,20,number,1,left,Purple_Plus_Chess_1.jpg,Red_Circle_Grid_1.jpg,Green_Triangle_Chess_3.jpg,right,1311.2299999920651,false,NA,NA,NA,NA,NA,NA,NA,NA,true
e1dUSFNT,3zvpamtjxqgf8kd3gsoqdmjsr77grt,32eyx73oy4m00mcsrzi96lgbeeiru3,e1dUSFNT,2020-0188,2020-11-21,23:17:16,23:52:38,NA,incomplete,21,number,0,left,Blue_Plus_Dots_2.jpg,Green_Triangle_Grid_2.jpg,Purple_Circle_Dots_1.jpg,left,1068.3700000226963,true,NA,NA,NA,NA,NA,NA,NA,NA,true
e1dUSFNT,3zvpamtjxqgf8kd3gsoqdmjsr77grt,32eyx73oy4m00mcsrzi96lgbeeiru3,e1dUSFNT,2020-0188,2020-11-21,23:17:16,23:52:38,NA,incomplete,22,number,1,right,Red_Plus_Chess_1.jpg,Green_Star_Chess_3.jpg,Purple_Circle_Dots_1.jpg,right,1070.0099999958184,true,NA,NA,NA,NA,NA,NA,NA,NA,true
e1dUSFNT,3zvpamtjxqgf8kd3gsoqdmjsr77grt,32eyx73oy4m00mcsrzi96lgbeeiru3,e1dUSFNT,2020-0188,2020-11-21,23:17:16,23:52:38,NA,incomplete,23,number,1,right,Blue_Star_Dots_2.jpg,Red_Circle_Dots_4.jpg,Green_Plus_Grid_2.jpg,right,1554.9799999862444,true,NA,NA,NA,NA,NA,NA,NA,NA,true
e1dUSFNT,3zvpamtjxqgf8kd3gsoqdmjsr77grt,32eyx73oy4m00mcsrzi96lgbeeiru3,e1dUSFNT,2020-0188,2020-11-21,23:17:16,23:52:38,NA,incomplete,24,number,1,left,Red_Plus_Grid_1.jpg,Blue_Circle_Stripes_1.jpg,Purple_Star_Grid_3.jpg,left,1107.7349999977741,true,NA,NA,NA,NA,NA,NA,NA,NA,true
e1dUSFNT,3zvpamtjxqgf8kd3gsoqdmjsr77grt,32eyx73oy4m00mcsrzi96lgbeeiru3,e1dUSFNT,2020-0188,2020-11-21,23:17:16,23:52:38,NA,incomplete,25,number,0,right,Green_Plus_Stripes_1.jpg,Purple_Star_Stripes_3.jpg,Red_Circle_Chess_1.jpg,right,867.5750000111293,true,NA,NA,NA,NA,NA,NA,NA,NA,true
e1dUSFNT,3zvpamtjxqgf8kd3gsoqdmjsr77grt,32eyx73oy4m00mcsrzi96lgbeeiru3,e1dUSFNT,2020-0188,2020-11-21,23:17:16,23:52:38,NA,incomplete,26,number,0,right,Purple_Plus_Stripes_1.jpg,Green_Triangle_Stripes_4.jpg,Red_Circle_Grid_1.jpg,right,800.9349999774713,true,NA,NA,NA,NA,NA,NA,NA,NA,true
e1dUSFNT,3zvpamtjxqgf8kd3gsoqdmjsr77grt,32eyx73oy4m00mcsrzi96lgbeeiru3,e1dUSFNT,2020-0188,2020-11-21,23:17:16,23:52:38,NA,incomplete,27,number,1,left,Red_Plus_Dots_2.jpg,Green_Circle_Grid_2.jpg,Blue_Star_Dots_4.jpg,left,1114.930000010645,true,NA,NA,NA,NA,NA,NA,NA,NA,true
e1dUSFNT,3zvpamtjxqgf8kd3gsoqdmjsr77grt,32eyx73oy4m00mcsrzi96lgbeeiru3,e1dUSFNT,2020-0188,2020-11-21,23:17:16,23:52:38,NA,incomplete,28,number,1,right,Green_Triangle_Grid_2.jpg,Purple_Plus_Grid_3.jpg,Blue_Star_Stripes_2.jpg,right,842.4599999852944,true,NA,NA,NA,NA,NA,NA,NA,NA,true
e1dUSFNT,3zvpamtjxqgf8kd3gsoqdmjsr77grt,32eyx73oy4m00mcsrzi96lgbeeiru3,e1dUSFNT,2020-0188,2020-11-21,23:17:16,23:52:38,NA,incomplete,29,number,1,left,Red_Plus_Chess_1.jpg,Purple_Circle_Stripes_1.jpg,Green_Star_Chess_3.jpg,left,861.6050000127871,true,NA,NA,NA,NA,NA,NA,NA,NA,true
e1dUSFNT,3zvpamtjxqgf8kd3gsoqdmjsr77grt,32eyx73oy4m00mcsrzi96lgbeeiru3,e1dUSFNT,2020-0188,2020-11-21,23:17:16,23:52:38,NA,incomplete,30,number,1,left,Red_Triangle_Dots_1.jpg,Purple_Plus_Stripes_1.jpg,Blue_Star_Dots_2.jpg,left,852.9500000004191,true,NA,NA,NA,NA,NA,NA,NA,NA,true
e1dUSFNT,3zvpamtjxqgf8kd3gsoqdmjsr77grt,32eyx73oy4m00mcsrzi96lgbeeiru3,e1dUSFNT,2020-0188,2020-11-21,23:17:16,23:52:38,NA,incomplete,31,number,1,right,Red_Plus_Grid_1.jpg,Green_Triangle_Grid_2.jpg,Purple_Circle_Dots_1.jpg,right,875.7749999931548,true,NA,NA,NA,NA,NA,NA,NA,NA,true
e1dUSFNT,3zvpamtjxqgf8kd3gsoqdmjsr77grt,32eyx73oy4m00mcsrzi96lgbeeiru3,e1dUSFNT,2020-0188,2020-11-21,23:17:16,23:52:38,NA,incomplete,32,number,1,right,Green_Star_Grid_1.jpg,Red_Triangle_Grid_4.jpg,Blue_Plus_Dots_1.jpg,right,823.4749999828637,true,NA,NA,NA,NA,NA,NA,NA,NA,true
e1dUSFNT,3zvpamtjxqgf8kd3gsoqdmjsr77grt,32eyx73oy4m00mcsrzi96lgbeeiru3,e1dUSFNT,2020-0188,2020-11-21,23:17:16,23:52:38,NA,incomplete,33,number,1,right,Red_Triangle_Stripes_1.jpg,Blue_Circle_Stripes_4.jpg,Purple_Star_Chess_1.jpg,right,775.7599999895319,true,NA,NA,NA,NA,NA,NA,NA,NA,true
e1dUSFNT,3zvpamtjxqgf8kd3gsoqdmjsr77grt,32eyx73oy4m00mcsrzi96lgbeeiru3,e1dUSFNT,2020-0188,2020-11-21,23:17:16,23:52:38,NA,incomplete,34,number,0,left,Purple_Triangle_Stripes_2.jpg,Red_Circle_Dots_2.jpg,Blue_Star_Stripes_4.jpg,left,854.829999996582,true,NA,NA,NA,NA,NA,NA,NA,NA,true
e1dUSFNT,3zvpamtjxqgf8kd3gsoqdmjsr77grt,32eyx73oy4m00mcsrzi96lgbeeiru3,e1dUSFNT,2020-0188,2020-11-21,23:17:16,23:52:38,NA,incomplete,35,number,1,right,Blue_Star_Chess_3.jpg,Red_Triangle_Chess_4.jpg,Green_Circle_Grid_3.jpg,right,1423.7500000162981,true,NA,NA,NA,NA,NA,NA,NA,NA,true
e1dUSFNT,3zvpamtjxqgf8kd3gsoqdmjsr77grt,32eyx73oy4m00mcsrzi96lgbeeiru3,e1dUSFNT,2020-0188,2020-11-21,23:17:16,23:52:38,NA,incomplete,36,number,1,right,Red_Triangle_Stripes_1.jpg,Blue_Plus_Stripes_3.jpg,Purple_Star_Chess_1.jpg,right,759.0450000134297,true,NA,NA,NA,NA,NA,NA,NA,NA,true
e1dUSFNT,3zvpamtjxqgf8kd3gsoqdmjsr77grt,32eyx73oy4m00mcsrzi96lgbeeiru3,e1dUSFNT,2020-0188,2020-11-21,23:17:16,23:52:38,NA,incomplete,37,number,1,left,Blue_Star_Grid_3.jpg,Purple_Triangle_Chess_3.jpg,Red_Plus_Grid_4.jpg,left,1049.605000007432,true,NA,NA,NA,NA,NA,NA,NA,NA,true
e1dUSFNT,3zvpamtjxqgf8kd3gsoqdmjsr77grt,32eyx73oy4m00mcsrzi96lgbeeiru3,e1dUSFNT,2020-0188,2020-11-21,23:17:16,23:52:38,NA,incomplete,38,number,1,left,Blue_Circle_Chess_3.jpg,Red_Triangle_Stripes_3.jpg,Purple_Plus_Chess_1.jpg,left,1151.335000002291,true,NA,NA,NA,NA,NA,NA,NA,NA,true
e1dUSFNT,3zvpamtjxqgf8kd3gsoqdmjsr77grt,32eyx73oy4m00mcsrzi96lgbeeiru3,e1dUSFNT,2020-0188,2020-11-21,23:17:16,23:52:38,NA,incomplete,39,number,1,right,Purple_Circle_Grid_3.jpg,Red_Plus_Grid_2.jpg,Blue_Star_Stripes_3.jpg,right,1122.2199999901932,true,NA,NA,NA,NA,NA,NA,NA,NA,true
e1dUSFNT,3zvpamtjxqgf8kd3gsoqdmjsr77grt,32eyx73oy4m00mcsrzi96lgbeeiru3,e1dUSFNT,2020-0188,2020-11-21,23:17:16,23:52:38,NA,incomplete,0,filling,1,right,Red_Triangle_Stripes_4.jpg,Blue_Plus_Dots_4.jpg,Purple_Circle_Stripes_3.jpg,none,0,false,high,NA,NA,NA,NA,NA,NA,NA,false
e1dUSFNT,3zvpamtjxqgf8kd3gsoqdmjsr77grt,32eyx73oy4m00mcsrzi96lgbeeiru3,e1dUSFNT,2020-0188,2020-11-21,23:17:16,23:52:38,NA,incomplete,1,filling,0,right,Blue_Star_Chess_4.jpg,Purple_Plus_Grid_4.jpg,Green_Circle_Chess_2.jpg,left,905.7650000031572,false,high,NA,NA,NA,NA,NA,NA,NA,false
e1dUSFNT,3zvpamtjxqgf8kd3gsoqdmjsr77grt,32eyx73oy4m00mcsrzi96lgbeeiru3,e1dUSFNT,2020-0188,2020-11-21,23:17:16,23:52:38,NA,incomplete,2,filling,1,left,Red_Plus_Grid_4.jpg,Blue_Star_Grid_1.jpg,Green_Circle_Stripes_4.jpg,right,810.8249999932013,false,high,NA,NA,NA,NA,NA,NA,NA,false
e1dUSFNT,3zvpamtjxqgf8kd3gsoqdmjsr77grt,32eyx73oy4m00mcsrzi96lgbeeiru3,e1dUSFNT,2020-0188,2020-11-21,23:17:16,23:52:38,NA,incomplete,3,filling,1,right,Green_Circle_Stripes_4.jpg,Red_Star_Dots_4.jpg,Purple_Triangle_Stripes_2.jpg,right,1027.380000014091,true,high,NA,NA,NA,NA,NA,NA,NA,false
e1dUSFNT,3zvpamtjxqgf8kd3gsoqdmjsr77grt,32eyx73oy4m00mcsrzi96lgbeeiru3,e1dUSFNT,2020-0188,2020-11-21,23:17:16,23:52:38,NA,incomplete,4,filling,1,right,Green_Plus_Stripes_4.jpg,Blue_Circle_Dots_4.jpg,Red_Triangle_Stripes_3.jpg,right,906.0200000240002,true,high,NA,NA,NA,NA,NA,NA,NA,false
e1dUSFNT,3zvpamtjxqgf8kd3gsoqdmjsr77grt,32eyx73oy4m00mcsrzi96lgbeeiru3,e1dUSFNT,2020-0188,2020-11-21,23:17:16,23:52:38,NA,incomplete,5,filling,1,right,Purple_Star_Grid_4.jpg,Red_Plus_Stripes_4.jpg,Blue_Circle_Grid_3.jpg,left,1073.740000021644,false,high,NA,NA,NA,NA,NA,NA,NA,false
e1dUSFNT,3zvpamtjxqgf8kd3gsoqdmjsr77grt,32eyx73oy4m00mcsrzi96lgbeeiru3,e1dUSFNT,2020-0188,2020-11-21,23:17:16,23:52:38,NA,incomplete,6,filling,1,right,Green_Triangle_Chess_3.jpg,Red_Plus_Grid_3.jpg,Purple_Star_Chess_2.jpg,right,980.0949999771547,true,high,NA,NA,NA,NA,NA,NA,NA,false
e1dUSFNT,3zvpamtjxqgf8kd3gsoqdmjsr77grt,32eyx73oy4m00mcsrzi96lgbeeiru3,e1dUSFNT,2020-0188,2020-11-21,23:17:16,23:52:38,NA,incomplete,7,filling,1,left,Red_Triangle_Stripes_1.jpg,Green_Star_Stripes_2.jpg,Purple_Plus_Chess_1.jpg,left,857.045000011567,true,high,NA,NA,NA,NA,NA,NA,NA,false
e1dUSFNT,3zvpamtjxqgf8kd3gsoqdmjsr77grt,32eyx73oy4m00mcsrzi96lgbeeiru3,e1dUSFNT,2020-0188,2020-11-21,23:17:16,23:52:38,NA,incomplete,8,filling,1,right,Purple_Circle_Grid_3.jpg,Green_Triangle_Stripes_3.jpg,Red_Star_Grid_2.jpg,right,980.745000008028,true,high,NA,NA,NA,NA,NA,NA,NA,false
e1dUSFNT,3zvpamtjxqgf8kd3gsoqdmjsr77grt,32eyx73oy4m00mcsrzi96lgbeeiru3,e1dUSFNT,2020-0188,2020-11-21,23:17:16,23:52:38,NA,incomplete,9,filling,1,right,Blue_Triangle_Dots_3.jpg,Red_Star_Chess_3.jpg,Purple_Plus_Dots_2.jpg,left,856.5149999922141,false,high,NA,NA,NA,NA,NA,NA,NA,false
e1dUSFNT,3zvpamtjxqgf8kd3gsoqdmjsr77grt,32eyx73oy4m00mcsrzi96lgbeeiru3,e1dUSFNT,2020-0188,2020-11-21,23:17:16,23:52:38,NA,incomplete,10,number,1,left,Purple_Triangle_Grid_1.jpg,Red_Plus_Stripes_1.jpg,Green_Star_Grid_2.jpg,right,907.3649999918416,false,high,NA,NA,NA,NA,NA,NA,NA,false
e1dUSFNT,3zvpamtjxqgf8kd3gsoqdmjsr77grt,32eyx73oy4m00mcsrzi96lgbeeiru3,e1dUSFNT,2020-0188,2020-11-21,23:17:16,23:52:38,NA,incomplete,11,number,1,left,Blue_Triangle_Grid_4.jpg,Purple_Plus_Stripes_4.jpg,Green_Circle_Grid_2.jpg,right,983.0249999940861,false,high,NA,NA,NA,NA,NA,NA,NA,false
e1dUSFNT,3zvpamtjxqgf8kd3gsoqdmjsr77grt,32eyx73oy4m00mcsrzi96lgbeeiru3,e1dUSFNT,2020-0188,2020-11-21,23:17:16,23:52:38,NA,incomplete,12,number,1,right,Purple_Triangle_Stripes_1.jpg,Green_Plus_Stripes_2.jpg,Red_Star_Dots_1.jpg,right,736.7099999974016,true,high,NA,NA,NA,NA,NA,NA,NA,false
e1dUSFNT,3zvpamtjxqgf8kd3gsoqdmjsr77grt,32eyx73oy4m00mcsrzi96lgbeeiru3,e1dUSFNT,2020-0188,2020-11-21,23:17:16,23:52:38,NA,incomplete,13,number,1,left,Purple_Circle_Stripes_3.jpg,Red_Star_Dots_3.jpg,Green_Triangle_Stripes_4.jpg,left,736.0950000002049,true,high,NA,NA,NA,NA,NA,NA,NA,false
e1dUSFNT,3zvpamtjxqgf8kd3gsoqdmjsr77grt,32eyx73oy4m00mcsrzi96lgbeeiru3,e1dUSFNT,2020-0188,2020-11-21,23:17:16,23:52:38,NA,incomplete,14,number,1,right,Blue_Star_Stripes_4.jpg,Green_Circle_Stripes_1.jpg,Red_Plus_Chess_4.jpg,right,722.8750000067521,true,high,NA,NA,NA,NA,NA,NA,NA,false
e1dUSFNT,3zvpamtjxqgf8kd3gsoqdmjsr77grt,32eyx73oy4m00mcsrzi96lgbeeiru3,e1dUSFNT,2020-0188,2020-11-21,23:17:16,23:52:38,NA,incomplete,15,number,0,right,Purple_Star_Dots_3.jpg,Green_Plus_Dots_2.jpg,Red_Triangle_Grid_3.jpg,right,1100.0499999790918,true,high,NA,NA,NA,NA,NA,NA,NA,false
e1dUSFNT,3zvpamtjxqgf8kd3gsoqdmjsr77grt,32eyx73oy4m00mcsrzi96lgbeeiru3,e1dUSFNT,2020-0188,2020-11-21,23:17:16,23:52:38,NA,incomplete,16,number,1,left,Blue_Circle_Dots_2.jpg,Green_Triangle_Chess_2.jpg,Purple_Star_Dots_3.jpg,right,984.9849999882281,false,high,NA,NA,NA,NA,NA,NA,NA,false
e1dUSFNT,3zvpamtjxqgf8kd3gsoqdmjsr77grt,32eyx73oy4m00mcsrzi96lgbeeiru3,e1dUSFNT,2020-0188,2020-11-21,23:17:16,23:52:38,NA,incomplete,17,number,1,right,Red_Star_Dots_2.jpg,Blue_Circle_Dots_3.jpg,Purple_Triangle_Chess_2.jpg,right,794.0299999900162,true,high,NA,NA,NA,NA,NA,NA,NA,false
e1dUSFNT,3zvpamtjxqgf8kd3gsoqdmjsr77grt,32eyx73oy4m00mcsrzi96lgbeeiru3,e1dUSFNT,2020-0188,2020-11-21,23:17:16,23:52:38,NA,incomplete,18,number,1,left,Blue_Triangle_Chess_4.jpg,Green_Circle_Dots_4.jpg,Purple_Star_Chess_3.jpg,left,1084.035000007134,true,high,NA,NA,NA,NA,NA,NA,NA,false
e1dUSFNT,3zvpamtjxqgf8kd3gsoqdmjsr77grt,32eyx73oy4m00mcsrzi96lgbeeiru3,e1dUSFNT,2020-0188,2020-11-21,23:17:16,23:52:38,NA,incomplete,19,number,1,right,Green_Plus_Dots_2.jpg,Blue_Circle_Dots_1.jpg,Purple_Star_Chess_2.jpg,right,700.7600000069942,true,high,NA,NA,NA,NA,NA,NA,NA,false
e1dUSFNT,3zvpamtjxqgf8kd3gsoqdmjsr77grt,32eyx73oy4m00mcsrzi96lgbeeiru3,e1dUSFNT,2020-0188,2020-11-21,23:17:16,23:52:38,NA,incomplete,20,filling,1,left,Red_Plus_Grid_1.jpg,Blue_Triangle_Grid_4.jpg,Green_Circle_Dots_1.jpg,right,649.6449999976903,false,high,NA,NA,NA,NA,NA,NA,NA,false
e1dUSFNT,3zvpamtjxqgf8kd3gsoqdmjsr77grt,32eyx73oy4m00mcsrzi96lgbeeiru3,e1dUSFNT,2020-0188,2020-11-21,23:17:16,23:52:38,NA,incomplete,21,filling,1,left,Purple_Triangle_Stripes_3.jpg,Blue_Circle_Stripes_4.jpg,Green_Star_Grid_3.jpg,left,737.345000001369,true,high,NA,NA,NA,NA,NA,NA,NA,false
e1dUSFNT,3zvpamtjxqgf8kd3gsoqdmjsr77grt,32eyx73oy4m00mcsrzi96lgbeeiru3,e1dUSFNT,2020-0188,2020-11-21,23:17:16,23:52:38,NA,incomplete,22,filling,1,left,Red_Star_Stripes_3.jpg,Green_Triangle_Stripes_4.jpg,Purple_Circle_Chess_3.jpg,left,1053.7199999962468,true,high,NA,NA,NA,NA,NA,NA,NA,false
e1dUSFNT,3zvpamtjxqgf8kd3gsoqdmjsr77grt,32eyx73oy4m00mcsrzi96lgbeeiru3,e1dUSFNT,2020-0188,2020-11-21,23:17:16,23:52:38,NA,incomplete,23,filling,1,left,Green_Star_Dots_2.jpg,Red_Circle_Dots_3.jpg,Purple_Triangle_Chess_2.jpg,left,1084.900000016205,true,high,NA,NA,NA,NA,NA,NA,NA,false
e1dUSFNT,3zvpamtjxqgf8kd3gsoqdmjsr77grt,32eyx73oy4m00mcsrzi96lgbeeiru3,e1dUSFNT,2020-0188,2020-11-21,23:17:16,23:52:38,NA,incomplete,24,filling,1,right,Green_Plus_Stripes_1.jpg,Red_Circle_Grid_1.jpg,Purple_Star_Stripes_4.jpg,right,1229.1050000058021,true,high,NA,NA,NA,NA,NA,NA,NA,false
e1dUSFNT,3zvpamtjxqgf8kd3gsoqdmjsr77grt,32eyx73oy4m00mcsrzi96lgbeeiru3,e1dUSFNT,2020-0188,2020-11-21,23:17:16,23:52:38,NA,incomplete,25,filling,1,right,Purple_Triangle_Grid_1.jpg,Green_Star_Stripes_1.jpg,Blue_Plus_Grid_4.jpg,right,995.1099999889266,true,high,NA,NA,NA,NA,NA,NA,NA,false
e1dUSFNT,3zvpamtjxqgf8kd3gsoqdmjsr77grt,32eyx73oy4m00mcsrzi96lgbeeiru3,e1dUSFNT,2020-0188,2020-11-21,23:17:16,23:52:38,NA,incomplete,26,filling,0,left,Red_Star_Grid_4.jpg,Green_Triangle_Grid_1.jpg,Blue_Circle_Dots_4.jpg,left,900.4450000065845,true,high,NA,NA,NA,NA,NA,NA,NA,false
e1dUSFNT,3zvpamtjxqgf8kd3gsoqdmjsr77grt,32eyx73oy4m00mcsrzi96lgbeeiru3,e1dUSFNT,2020-0188,2020-11-21,23:17:16,23:52:38,NA,incomplete,27,filling,1,right,Green_Triangle_Stripes_4.jpg,Purple_Plus_Dots_4.jpg,Blue_Circle_Stripes_2.jpg,left,752.3450000153389,false,high,NA,NA,NA,NA,NA,NA,NA,false
e1dUSFNT,3zvpamtjxqgf8kd3gsoqdmjsr77grt,32eyx73oy4m00mcsrzi96lgbeeiru3,e1dUSFNT,2020-0188,2020-11-21,23:17:16,23:52:38,NA,incomplete,28,filling,1,right,Red_Plus_Grid_4.jpg,Blue_Star_Stripes_4.jpg,Purple_Circle_Grid_2.jpg,left,836.3900000113063,false,high,NA,NA,NA,NA,NA,NA,NA,false
e1dUSFNT,3zvpamtjxqgf8kd3gsoqdmjsr77grt,32eyx73oy4m00mcsrzi96lgbeeiru3,e1dUSFNT,2020-0188,2020-11-21,23:17:16,23:52:38,NA,incomplete,29,filling,1,right,Green_Circle_Grid_1.jpg,Blue_Triangle_Chess_1.jpg,Red_Plus_Grid_2.jpg,right,919.209999992745,true,high,NA,NA,NA,NA,NA,NA,NA,false
e1dUSFNT,3zvpamtjxqgf8kd3gsoqdmjsr77grt,32eyx73oy4m00mcsrzi96lgbeeiru3,e1dUSFNT,2020-0188,2020-11-21,23:17:16,23:52:38,NA,incomplete,30,number,1,right,Red_Star_Grid_3.jpg,Blue_Triangle_Grid_1.jpg,Green_Plus_Dots_3.jpg,left,903.4400000236928,false,high,NA,NA,NA,NA,NA,NA,NA,false
e1dUSFNT,3zvpamtjxqgf8kd3gsoqdmjsr77grt,32eyx73oy4m00mcsrzi96lgbeeiru3,e1dUSFNT,2020-0188,2020-11-21,23:17:16,23:52:38,NA,incomplete,31,number,1,right,Blue_Plus_Chess_3.jpg,Green_Triangle_Chess_2.jpg,Purple_Star_Dots_3.jpg,left,801.3900000078138,false,high,NA,NA,NA,NA,NA,NA,NA,false
e1dUSFNT,3zvpamtjxqgf8kd3gsoqdmjsr77grt,32eyx73oy4m00mcsrzi96lgbeeiru3,e1dUSFNT,2020-0188,2020-11-21,23:17:16,23:52:38,NA,incomplete,32,number,1,left,Blue_Star_Stripes_4.jpg,Red_Circle_Chess_4.jpg,Green_Plus_Stripes_1.jpg,left,700.7199999934528,true,high,NA,NA,NA,NA,NA,NA,NA,false
e1dUSFNT,3zvpamtjxqgf8kd3gsoqdmjsr77grt,32eyx73oy4m00mcsrzi96lgbeeiru3,e1dUSFNT,2020-0188,2020-11-21,23:17:16,23:52:38,NA,incomplete,33,number,1,right,Green_Triangle_Grid_1.jpg,Blue_Star_Grid_2.jpg,Red_Plus_Stripes_1.jpg,right,637.6100000052247,true,high,NA,NA,NA,NA,NA,NA,NA,false
e1dUSFNT,3zvpamtjxqgf8kd3gsoqdmjsr77grt,32eyx73oy4m00mcsrzi96lgbeeiru3,e1dUSFNT,2020-0188,2020-11-21,23:17:16,23:52:38,NA,incomplete,34,number,1,left,Blue_Plus_Dots_1.jpg,Green_Star_Grid_1.jpg,Red_Circle_Dots_2.jpg,left,594.6699999913108,true,high,NA,NA,NA,NA,NA,NA,NA,false
e1dUSFNT,3zvpamtjxqgf8kd3gsoqdmjsr77grt,32eyx73oy4m00mcsrzi96lgbeeiru3,e1dUSFNT,2020-0188,2020-11-21,23:17:16,23:52:38,NA,incomplete,35,number,1,left,Purple_Plus_Stripes_3.jpg,Blue_Triangle_Grid_3.jpg,Green_Star_Stripes_1.jpg,left,762.1649999928195,true,high,NA,NA,NA,NA,NA,NA,NA,false
e1dUSFNT,3zvpamtjxqgf8kd3gsoqdmjsr77grt,32eyx73oy4m00mcsrzi96lgbeeiru3,e1dUSFNT,2020-0188,2020-11-21,23:17:16,23:52:38,NA,incomplete,36,number,1,left,Red_Star_Dots_4.jpg,Green_Circle_Grid_4.jpg,Purple_Triangle_Dots_2.jpg,left,742.9050000209827,true,high,NA,NA,NA,NA,NA,NA,NA,false
e1dUSFNT,3zvpamtjxqgf8kd3gsoqdmjsr77grt,32eyx73oy4m00mcsrzi96lgbeeiru3,e1dUSFNT,2020-0188,2020-11-21,23:17:16,23:52:38,NA,incomplete,37,number,0,left,Green_Circle_Stripes_2.jpg,Purple_Triangle_Dots_2.jpg,Red_Star_Stripes_1.jpg,left,762.589999998454,true,high,NA,NA,NA,NA,NA,NA,NA,false
e1dUSFNT,3zvpamtjxqgf8kd3gsoqdmjsr77grt,32eyx73oy4m00mcsrzi96lgbeeiru3,e1dUSFNT,2020-0188,2020-11-21,23:17:16,23:52:38,NA,incomplete,38,number,0,right,Blue_Plus_Chess_2.jpg,Red_Star_Chess_4.jpg,Purple_Triangle_Grid_2.jpg,right,853.5100000153761,true,high,NA,NA,NA,NA,NA,NA,NA,false
e1dUSFNT,3zvpamtjxqgf8kd3gsoqdmjsr77grt,32eyx73oy4m00mcsrzi96lgbeeiru3,e1dUSFNT,2020-0188,2020-11-21,23:17:16,23:52:38,NA,incomplete,39,number,1,left,Red_Circle_Chess_2.jpg,Purple_Star_Dots_2.jpg,Blue_Plus_Chess_3.jpg,right,1051.290000003064,false,high,NA,NA,NA,NA,NA,NA,NA,false
e1dUSFNT,3zvpamtjxqgf8kd3gsoqdmjsr77grt,32eyx73oy4m00mcsrzi96lgbeeiru3,e1dUSFNT,2020-0188,2020-11-21,23:17:16,23:52:38,NA,incomplete,40,filling,1,right,Green_Plus_Chess_2.jpg,Blue_Triangle_Grid_2.jpg,Red_Circle_Chess_4.jpg,left,826.1000000056811,false,high,NA,NA,NA,NA,NA,NA,NA,false
e1dUSFNT,3zvpamtjxqgf8kd3gsoqdmjsr77grt,32eyx73oy4m00mcsrzi96lgbeeiru3,e1dUSFNT,2020-0188,2020-11-21,23:17:16,23:52:38,NA,incomplete,41,filling,1,left,Purple_Star_Dots_2.jpg,Red_Plus_Dots_1.jpg,Blue_Triangle_Chess_2.jpg,right,797.6000000198837,false,high,NA,NA,NA,NA,NA,NA,NA,false
e1dUSFNT,3zvpamtjxqgf8kd3gsoqdmjsr77grt,32eyx73oy4m00mcsrzi96lgbeeiru3,e1dUSFNT,2020-0188,2020-11-21,23:17:16,23:52:38,NA,incomplete,42,filling,0,right,Blue_Circle_Chess_3.jpg,Red_Plus_Grid_3.jpg,Purple_Star_Chess_1.jpg,left,699.6349999972153,false,high,NA,NA,NA,NA,NA,NA,NA,false
e1dUSFNT,3zvpamtjxqgf8kd3gsoqdmjsr77grt,32eyx73oy4m00mcsrzi96lgbeeiru3,e1dUSFNT,2020-0188,2020-11-21,23:17:16,23:52:38,NA,incomplete,43,filling,1,right,Red_Triangle_Grid_1.jpg,Green_Plus_Dots_1.jpg,Blue_Star_Grid_2.jpg,left,641.3700000266545,false,high,NA,NA,NA,NA,NA,NA,NA,false
e1dUSFNT,3zvpamtjxqgf8kd3gsoqdmjsr77grt,32eyx73oy4m00mcsrzi96lgbeeiru3,e1dUSFNT,2020-0188,2020-11-21,23:17:16,23:52:38,NA,incomplete,44,filling,1,right,Purple_Circle_Grid_1.jpg,Blue_Star_Stripes_1.jpg,Red_Plus_Grid_4.jpg,right,1224.6950000117067,true,high,NA,NA,NA,NA,NA,NA,NA,false
e1dUSFNT,3zvpamtjxqgf8kd3gsoqdmjsr77grt,32eyx73oy4m00mcsrzi96lgbeeiru3,e1dUSFNT,2020-0188,2020-11-21,23:17:16,23:52:38,NA,incomplete,45,filling,1,left,Blue_Plus_Chess_2.jpg,Green_Star_Chess_1.jpg,Purple_Triangle_Stripes_2.jpg,right,775.0099999830127,false,high,NA,NA,NA,NA,NA,NA,NA,false
e1dUSFNT,3zvpamtjxqgf8kd3gsoqdmjsr77grt,32eyx73oy4m00mcsrzi96lgbeeiru3,e1dUSFNT,2020-0188,2020-11-21,23:17:16,23:52:38,NA,incomplete,46,filling,1,right,Purple_Circle_Grid_1.jpg,Red_Plus_Dots_1.jpg,Blue_Star_Grid_3.jpg,right,1122.6600000227336,true,high,NA,NA,NA,NA,NA,NA,NA,false
e1dUSFNT,3zvpamtjxqgf8kd3gsoqdmjsr77grt,32eyx73oy4m00mcsrzi96lgbeeiru3,e1dUSFNT,2020-0188,2020-11-21,23:17:16,23:52:38,NA,incomplete,47,filling,1,left,Purple_Plus_Stripes_3.jpg,Green_Star_Stripes_1.jpg,Red_Circle_Grid_3.jpg,left,1249.1450000088662,true,high,NA,NA,NA,NA,NA,NA,NA,false
e1dUSFNT,3zvpamtjxqgf8kd3gsoqdmjsr77grt,32eyx73oy4m00mcsrzi96lgbeeiru3,e1dUSFNT,2020-0188,2020-11-21,23:17:16,23:52:38,NA,incomplete,48,filling,1,left,Red_Star_Dots_2.jpg,Purple_Circle_Dots_4.jpg,Blue_Triangle_Grid_2.jpg,left,862.2449999966193,true,high,NA,NA,NA,NA,NA,NA,NA,false
e1dUSFNT,3zvpamtjxqgf8kd3gsoqdmjsr77grt,32eyx73oy4m00mcsrzi96lgbeeiru3,e1dUSFNT,2020-0188,2020-11-21,23:17:16,23:52:38,NA,incomplete,49,filling,1,right,Purple_Plus_Chess_2.jpg,Blue_Triangle_Dots_2.jpg,Green_Star_Chess_3.jpg,right,940.7749999954831,true,high,NA,NA,NA,NA,NA,NA,NA,false
e1dUSFNT,3zvpamtjxqgf8kd3gsoqdmjsr77grt,32eyx73oy4m00mcsrzi96lgbeeiru3,e1dUSFNT,2020-0188,2020-11-21,23:17:16,23:52:38,NA,incomplete,50,number,1,left,Green_Triangle_Chess_2.jpg,Purple_Star_Dots_2.jpg,Blue_Circle_Chess_4.jpg,right,838.1000000226777,false,high,NA,NA,NA,NA,NA,NA,NA,false
e1dUSFNT,3zvpamtjxqgf8kd3gsoqdmjsr77grt,32eyx73oy4m00mcsrzi96lgbeeiru3,e1dUSFNT,2020-0188,2020-11-21,23:17:16,23:52:38,NA,incomplete,51,number,1,right,Red_Triangle_Grid_1.jpg,Purple_Plus_Grid_4.jpg,Green_Circle_Dots_1.jpg,left,1039.134999999078,false,high,NA,NA,NA,NA,NA,NA,NA,false
e1dUSFNT,3zvpamtjxqgf8kd3gsoqdmjsr77grt,32eyx73oy4m00mcsrzi96lgbeeiru3,e1dUSFNT,2020-0188,2020-11-21,23:17:16,23:52:38,NA,incomplete,52,number,1,right,Red_Plus_Stripes_4.jpg,Green_Star_Stripes_2.jpg,Purple_Triangle_Chess_4.jpg,left,1212.4949999852106,false,high,NA,NA,NA,NA,NA,NA,NA,false
e1dUSFNT,3zvpamtjxqgf8kd3gsoqdmjsr77grt,32eyx73oy4m00mcsrzi96lgbeeiru3,e1dUSFNT,2020-0188,2020-11-21,23:17:16,23:52:38,NA,incomplete,53,number,0,left,Green_Plus_Grid_2.jpg,Purple_Star_Stripes_2.jpg,Blue_Circle_Grid_4.jpg,right,860.6549999967683,false,high,NA,NA,NA,NA,NA,NA,NA,false
e1dUSFNT,3zvpamtjxqgf8kd3gsoqdmjsr77grt,32eyx73oy4m00mcsrzi96lgbeeiru3,e1dUSFNT,2020-0188,2020-11-21,23:17:16,23:52:38,NA,incomplete,54,number,1,left,Purple_Plus_Chess_3.jpg,Red_Star_Stripes_3.jpg,Green_Triangle_Chess_4.jpg,right,880.990000005113,false,high,NA,NA,NA,NA,NA,NA,NA,false
e1dUSFNT,3zvpamtjxqgf8kd3gsoqdmjsr77grt,32eyx73oy4m00mcsrzi96lgbeeiru3,e1dUSFNT,2020-0188,2020-11-21,23:17:16,23:52:38,NA,incomplete,55,number,0,left,Purple_Triangle_Chess_2.jpg,Green_Circle_Dots_2.jpg,Red_Plus_Chess_1.jpg,right,1033.0350000003818,false,high,NA,NA,NA,NA,NA,NA,NA,false
e1dUSFNT,3zvpamtjxqgf8kd3gsoqdmjsr77grt,32eyx73oy4m00mcsrzi96lgbeeiru3,e1dUSFNT,2020-0188,2020-11-21,23:17:16,23:52:38,NA,incomplete,56,number,1,right,Green_Plus_Chess_3.jpg,Red_Triangle_Chess_2.jpg,Blue_Star_Grid_3.jpg,left,900.2549999859184,false,high,NA,NA,NA,NA,NA,NA,NA,false
e1dUSFNT,3zvpamtjxqgf8kd3gsoqdmjsr77grt,32eyx73oy4m00mcsrzi96lgbeeiru3,e1dUSFNT,2020-0188,2020-11-21,23:17:16,23:52:38,NA,incomplete,57,number,1,left,Blue_Star_Dots_1.jpg,Red_Circle_Grid_1.jpg,Green_Plus_Dots_4.jpg,left,833.054999995511,true,high,NA,NA,NA,NA,NA,NA,NA,false
e1dUSFNT,3zvpamtjxqgf8kd3gsoqdmjsr77grt,32eyx73oy4m00mcsrzi96lgbeeiru3,e1dUSFNT,2020-0188,2020-11-21,23:17:16,23:52:38,NA,incomplete,58,number,0,right,Blue_Circle_Dots_1.jpg,Purple_Triangle_Dots_2.jpg,Red_Plus_Grid_1.jpg,right,584.6050000109244,true,high,NA,NA,NA,NA,NA,NA,NA,false
e1dUSFNT,3zvpamtjxqgf8kd3gsoqdmjsr77grt,32eyx73oy4m00mcsrzi96lgbeeiru3,e1dUSFNT,2020-0188,2020-11-21,23:17:16,23:52:38,NA,incomplete,59,number,1,left,Blue_Triangle_Grid_4.jpg,Red_Star_Dots_4.jpg,Purple_Circle_Grid_2.jpg,left,936.7999999958556,true,high,NA,NA,NA,NA,NA,NA,NA,false
e1dUSFNT,3zvpamtjxqgf8kd3gsoqdmjsr77grt,32eyx73oy4m00mcsrzi96lgbeeiru3,e1dUSFNT,2020-0188,2020-11-21,23:17:16,23:52:38,NA,incomplete,60,filling,1,right,Purple_Circle_Dots_2.jpg,Green_Star_Chess_2.jpg,Blue_Plus_Dots_4.jpg,left,978.3100000058766,false,high,NA,NA,NA,NA,NA,NA,NA,false
e1dUSFNT,3zvpamtjxqgf8kd3gsoqdmjsr77grt,32eyx73oy4m00mcsrzi96lgbeeiru3,e1dUSFNT,2020-0188,2020-11-21,23:17:16,23:52:38,NA,incomplete,61,filling,0,right,Purple_Star_Chess_4.jpg,Green_Plus_Grid_4.jpg,Red_Circle_Chess_2.jpg,left,923.9250000100583,false,high,NA,NA,NA,NA,NA,NA,NA,false
e1dUSFNT,3zvpamtjxqgf8kd3gsoqdmjsr77grt,32eyx73oy4m00mcsrzi96lgbeeiru3,e1dUSFNT,2020-0188,2020-11-21,23:17:16,23:52:38,NA,incomplete,62,filling,0,right,Red_Star_Chess_3.jpg,Purple_Circle_Dots_3.jpg,Green_Plus_Chess_4.jpg,right,852.6000000128988,true,high,NA,NA,NA,NA,NA,NA,NA,false
e1dUSFNT,3zvpamtjxqgf8kd3gsoqdmjsr77grt,32eyx73oy4m00mcsrzi96lgbeeiru3,e1dUSFNT,2020-0188,2020-11-21,23:17:16,23:52:38,NA,incomplete,63,filling,1,right,Purple_Star_Stripes_1.jpg,Blue_Circle_Chess_1.jpg,Red_Plus_Stripes_3.jpg,left,741.9100000115577,false,high,NA,NA,NA,NA,NA,NA,NA,false
e1dUSFNT,3zvpamtjxqgf8kd3gsoqdmjsr77grt,32eyx73oy4m00mcsrzi96lgbeeiru3,e1dUSFNT,2020-0188,2020-11-21,23:17:16,23:52:38,NA,incomplete,64,filling,1,left,Purple_Plus_Dots_3.jpg,Blue_Star_Dots_2.jpg,Green_Circle_Grid_3.jpg,right,1166.3300000072923,false,high,NA,NA,NA,NA,NA,NA,NA,false
e1dUSFNT,3zvpamtjxqgf8kd3gsoqdmjsr77grt,32eyx73oy4m00mcsrzi96lgbeeiru3,e1dUSFNT,2020-0188,2020-11-21,23:17:16,23:52:38,NA,incomplete,65,filling,0,right,Green_Triangle_Stripes_2.jpg,Purple_Circle_Grid_2.jpg,Red_Star_Stripes_3.jpg,right,1238.1400000012945,true,high,NA,NA,NA,NA,NA,NA,NA,false
e1dUSFNT,3zvpamtjxqgf8kd3gsoqdmjsr77grt,32eyx73oy4m00mcsrzi96lgbeeiru3,e1dUSFNT,2020-0188,2020-11-21,23:17:16,23:52:38,NA,incomplete,66,filling,1,left,Green_Plus_Chess_1.jpg,Red_Circle_Chess_4.jpg,Blue_Triangle_Dots_1.jpg,left,966.710000007879,true,high,NA,NA,NA,NA,NA,NA,NA,false
e1dUSFNT,3zvpamtjxqgf8kd3gsoqdmjsr77grt,32eyx73oy4m00mcsrzi96lgbeeiru3,e1dUSFNT,2020-0188,2020-11-21,23:17:16,23:52:38,NA,incomplete,67,filling,1,left,Blue_Star_Chess_2.jpg,Red_Plus_Chess_1.jpg,Green_Triangle_Stripes_2.jpg,right,820.0250000227243,false,high,NA,NA,NA,NA,NA,NA,NA,false
e1dUSFNT,3zvpamtjxqgf8kd3gsoqdmjsr77grt,32eyx73oy4m00mcsrzi96lgbeeiru3,e1dUSFNT,2020-0188,2020-11-21,23:17:16,23:52:38,NA,incomplete,68,filling,1,left,Purple_Triangle_Grid_2.jpg,Green_Plus_Grid_3.jpg,Blue_Star_Dots_2.jpg,left,1184.049999981653,true,high,NA,NA,NA,NA,NA,NA,NA,false
e1dUSFNT,3zvpamtjxqgf8kd3gsoqdmjsr77grt,32eyx73oy4m00mcsrzi96lgbeeiru3,e1dUSFNT,2020-0188,2020-11-21,23:17:16,23:52:38,NA,incomplete,69,filling,1,right,Purple_Star_Stripes_2.jpg,Green_Circle_Chess_2.jpg,Blue_Plus_Stripes_4.jpg,right,1124.390000011772,true,high,NA,NA,NA,NA,NA,NA,NA,false
e1dUSFNT,3zvpamtjxqgf8kd3gsoqdmjsr77grt,32eyx73oy4m00mcsrzi96lgbeeiru3,e1dUSFNT,2020-0188,2020-11-21,23:17:16,23:52:38,NA,incomplete,70,number,0,right,Purple_Circle_Stripes_3.jpg,Blue_Plus_Stripes_2.jpg,Red_Triangle_Grid_3.jpg,left,1564.0649999841116,false,high,NA,NA,NA,NA,NA,NA,NA,false
e1dUSFNT,3zvpamtjxqgf8kd3gsoqdmjsr77grt,32eyx73oy4m00mcsrzi96lgbeeiru3,e1dUSFNT,2020-0188,2020-11-21,23:17:16,23:52:38,NA,incomplete,71,number,1,left,Purple_Plus_Dots_1.jpg,Green_Circle_Stripes_1.jpg,Red_Triangle_Dots_3.jpg,right,1353.0200000095647,false,high,NA,NA,NA,NA,NA,NA,NA,false
e1dUSFNT,3zvpamtjxqgf8kd3gsoqdmjsr77grt,32eyx73oy4m00mcsrzi96lgbeeiru3,e1dUSFNT,2020-0188,2020-11-21,23:17:16,23:52:38,NA,incomplete,72,number,0,right,Green_Triangle_Stripes_2.jpg,Red_Plus_Stripes_4.jpg,Blue_Circle_Chess_2.jpg,left,878.7100000190549,false,high,NA,NA,NA,NA,NA,NA,NA,false
e1dUSFNT,3zvpamtjxqgf8kd3gsoqdmjsr77grt,32eyx73oy4m00mcsrzi96lgbeeiru3,e1dUSFNT,2020-0188,2020-11-21,23:17:16,23:52:38,NA,incomplete,73,number,1,left,Blue_Circle_Grid_3.jpg,Green_Star_Dots_3.jpg,Purple_Triangle_Grid_4.jpg,right,894.8799999780022,false,high,NA,NA,NA,NA,NA,NA,NA,false
e1dUSFNT,3zvpamtjxqgf8kd3gsoqdmjsr77grt,32eyx73oy4m00mcsrzi96lgbeeiru3,e1dUSFNT,2020-0188,2020-11-21,23:17:16,23:52:38,NA,incomplete,74,number,0,right,Blue_Plus_Grid_2.jpg,Green_Circle_Grid_1.jpg,Red_Triangle_Dots_2.jpg,left,1112.1899999852758,false,high,NA,NA,NA,NA,NA,NA,NA,false
e1dUSFNT,3zvpamtjxqgf8kd3gsoqdmjsr77grt,32eyx73oy4m00mcsrzi96lgbeeiru3,e1dUSFNT,2020-0188,2020-11-21,23:17:16,23:52:38,NA,incomplete,75,number,0,right,Purple_Circle_Chess_1.jpg,Red_Triangle_Chess_4.jpg,Blue_Plus_Grid_1.jpg,left,954.9950000073295,false,high,NA,NA,NA,NA,NA,NA,NA,false
e1dUSFNT,3zvpamtjxqgf8kd3gsoqdmjsr77grt,32eyx73oy4m00mcsrzi96lgbeeiru3,e1dUSFNT,2020-0188,2020-11-21,23:17:16,23:52:38,NA,incomplete,76,number,1,left,Red_Circle_Dots_3.jpg,Blue_Star_Stripes_3.jpg,Green_Triangle_Dots_2.jpg,right,1086.3750000135042,false,high,NA,NA,NA,NA,NA,NA,NA,false
e1dUSFNT,3zvpamtjxqgf8kd3gsoqdmjsr77grt,32eyx73oy4m00mcsrzi96lgbeeiru3,e1dUSFNT,2020-0188,2020-11-21,23:17:16,23:52:38,NA,incomplete,77,number,1,right,Red_Circle_Chess_2.jpg,Blue_Triangle_Chess_1.jpg,Green_Plus_Stripes_2.jpg,right,1082.3049999889918,true,high,NA,NA,NA,NA,NA,NA,NA,false
e1dUSFNT,3zvpamtjxqgf8kd3gsoqdmjsr77grt,32eyx73oy4m00mcsrzi96lgbeeiru3,e1dUSFNT,2020-0188,2020-11-21,23:17:16,23:52:38,NA,incomplete,78,number,1,right,Red_Circle_Grid_2.jpg,Purple_Plus_Grid_3.jpg,Green_Star_Chess_2.jpg,right,1015.4899999906775,true,high,NA,NA,NA,NA,NA,NA,NA,false
e1dUSFNT,3zvpamtjxqgf8kd3gsoqdmjsr77grt,32eyx73oy4m00mcsrzi96lgbeeiru3,e1dUSFNT,2020-0188,2020-11-21,23:17:16,23:52:38,NA,incomplete,79,number,1,left,Red_Triangle_Stripes_1.jpg,Green_Plus_Grid_1.jpg,Blue_Circle_Stripes_4.jpg,left,780.4150000156369,true,high,NA,NA,NA,NA,NA,NA,NA,false
e1dUSFNT,3zvpamtjxqgf8kd3gsoqdmjsr77grt,32eyx73oy4m00mcsrzi96lgbeeiru3,e1dUSFNT,2020-0188,2020-11-21,23:17:16,23:52:38,NA,incomplete,80,filling,1,right,Green_Plus_Chess_3.jpg,Purple_Triangle_Dots_3.jpg,Blue_Circle_Chess_4.jpg,left,1060.844999999972,false,high,NA,NA,NA,NA,NA,NA,NA,false
e1dUSFNT,3zvpamtjxqgf8kd3gsoqdmjsr77grt,32eyx73oy4m00mcsrzi96lgbeeiru3,e1dUSFNT,2020-0188,2020-11-21,23:17:16,23:52:38,NA,incomplete,81,filling,1,left,Green_Star_Chess_3.jpg,Red_Triangle_Chess_2.jpg,Purple_Plus_Dots_3.jpg,left,947.745000012219,true,high,NA,NA,NA,NA,NA,NA,NA,false
e1dUSFNT,3zvpamtjxqgf8kd3gsoqdmjsr77grt,32eyx73oy4m00mcsrzi96lgbeeiru3,e1dUSFNT,2020-0188,2020-11-21,23:17:16,23:52:38,NA,incomplete,82,filling,0,right,Purple_Star_Dots_4.jpg,Green_Triangle_Grid_4.jpg,Red_Plus_Dots_1.jpg,right,1155.0099999876693,true,high,NA,NA,NA,NA,NA,NA,NA,false
e1dUSFNT,3zvpamtjxqgf8kd3gsoqdmjsr77grt,32eyx73oy4m00mcsrzi96lgbeeiru3,e1dUSFNT,2020-0188,2020-11-21,23:17:16,23:52:38,NA,incomplete,83,filling,0,right,Red_Plus_Stripes_1.jpg,Purple_Star_Grid_1.jpg,Blue_Triangle_Stripes_4.jpg,right,987.924999993993,true,high,NA,NA,NA,NA,NA,NA,NA,false
e1dUSFNT,3zvpamtjxqgf8kd3gsoqdmjsr77grt,32eyx73oy4m00mcsrzi96lgbeeiru3,e1dUSFNT,2020-0188,2020-11-21,23:17:16,23:52:38,NA,incomplete,84,filling,0,left,Blue_Plus_Dots_1.jpg,Purple_Star_Dots_2.jpg,Green_Triangle_Stripes_1.jpg,right,748.77999999444,false,high,NA,NA,NA,NA,NA,NA,NA,false
e1dUSFNT,3zvpamtjxqgf8kd3gsoqdmjsr77grt,32eyx73oy4m00mcsrzi96lgbeeiru3,e1dUSFNT,2020-0188,2020-11-21,23:17:16,23:52:38,NA,incomplete,85,filling,1,right,Green_Triangle_Chess_3.jpg,Red_Plus_Grid_3.jpg,Purple_Star_Chess_1.jpg,left,748.3400000201073,false,high,NA,NA,NA,NA,NA,NA,NA,false
e1dUSFNT,3zvpamtjxqgf8kd3gsoqdmjsr77grt,32eyx73oy4m00mcsrzi96lgbeeiru3,e1dUSFNT,2020-0188,2020-11-21,23:17:16,23:52:38,NA,incomplete,86,filling,0,left,Green_Circle_Grid_1.jpg,Blue_Triangle_Grid_3.jpg,Red_Star_Chess_1.jpg,left,927.640000008978,true,high,NA,NA,NA,NA,NA,NA,NA,false
e1dUSFNT,3zvpamtjxqgf8kd3gsoqdmjsr77grt,32eyx73oy4m00mcsrzi96lgbeeiru3,e1dUSFNT,2020-0188,2020-11-21,23:17:16,23:52:38,NA,incomplete,87,filling,1,left,Purple_Plus_Chess_3.jpg,Blue_Triangle_Chess_4.jpg,Red_Star_Grid_3.jpg,right,1259.4450000033248,false,high,NA,NA,NA,NA,NA,NA,NA,false
e1dUSFNT,3zvpamtjxqgf8kd3gsoqdmjsr77grt,32eyx73oy4m00mcsrzi96lgbeeiru3,e1dUSFNT,2020-0188,2020-11-21,23:17:16,23:52:38,NA,incomplete,88,filling,1,left,Red_Triangle_Grid_3.jpg,Green_Star_Grid_4.jpg,Purple_Plus_Stripes_3.jpg,right,943.5850000008941,false,high,NA,NA,NA,NA,NA,NA,NA,false
e1dUSFNT,3zvpamtjxqgf8kd3gsoqdmjsr77grt,32eyx73oy4m00mcsrzi96lgbeeiru3,e1dUSFNT,2020-0188,2020-11-21,23:17:16,23:52:38,NA,incomplete,89,filling,1,right,Blue_Circle_Dots_3.jpg,Green_Plus_Grid_3.jpg,Red_Star_Dots_1.jpg,right,1066.4549999928568,true,high,NA,NA,NA,NA,NA,NA,NA,false
e1dUSFNT,3zvpamtjxqgf8kd3gsoqdmjsr77grt,32eyx73oy4m00mcsrzi96lgbeeiru3,e1dUSFNT,2020-0188,2020-11-21,23:17:16,23:52:38,NA,incomplete,90,number,1,right,Red_Triangle_Stripes_4.jpg,Purple_Star_Stripes_1.jpg,Blue_Plus_Chess_4.jpg,left,1173.0849999876227,false,high,NA,NA,NA,NA,NA,NA,NA,false
e1dUSFNT,3zvpamtjxqgf8kd3gsoqdmjsr77grt,32eyx73oy4m00mcsrzi96lgbeeiru3,e1dUSFNT,2020-0188,2020-11-21,23:17:16,23:52:38,NA,incomplete,91,number,1,right,Red_Plus_Grid_4.jpg,Blue_Circle_Grid_3.jpg,Purple_Triangle_Chess_4.jpg,left,1196.8800000031479,false,high,NA,NA,NA,NA,NA,NA,NA,false
e1dUSFNT,3zvpamtjxqgf8kd3gsoqdmjsr77grt,32eyx73oy4m00mcsrzi96lgbeeiru3,e1dUSFNT,2020-0188,2020-11-21,23:17:16,23:52:38,NA,incomplete,92,number,1,right,Purple_Circle_Grid_2.jpg,Blue_Star_Grid_1.jpg,Green_Plus_Chess_2.jpg,left,1214.2149999854155,false,high,NA,NA,NA,NA,NA,NA,NA,false
e1dUSFNT,3zvpamtjxqgf8kd3gsoqdmjsr77grt,32eyx73oy4m00mcsrzi96lgbeeiru3,e1dUSFNT,2020-0188,2020-11-21,23:17:16,23:52:38,NA,incomplete,93,number,1,left,Green_Circle_Chess_4.jpg,Purple_Star_Grid_4.jpg,Blue_Triangle_Chess_1.jpg,right,1257.5899999937974,false,high,NA,NA,NA,NA,NA,NA,NA,false
e1dUSFNT,3zvpamtjxqgf8kd3gsoqdmjsr77grt,32eyx73oy4m00mcsrzi96lgbeeiru3,e1dUSFNT,2020-0188,2020-11-21,23:17:16,23:52:38,NA,incomplete,94,number,1,left,Red_Circle_Chess_3.jpg,Green_Star_Stripes_3.jpg,Purple_Plus_Chess_1.jpg,left,770.6299999845214,true,high,NA,NA,NA,NA,NA,NA,NA,false
e1dUSFNT,3zvpamtjxqgf8kd3gsoqdmjsr77grt,32eyx73oy4m00mcsrzi96lgbeeiru3,e1dUSFNT,2020-0188,2020-11-21,23:17:16,23:52:38,NA,incomplete,95,number,1,right,Blue_Plus_Grid_4.jpg,Red_Circle_Grid_3.jpg,Purple_Star_Chess_4.jpg,right,1096.6800000169314,true,high,NA,NA,NA,NA,NA,NA,NA,false
e1dUSFNT,3zvpamtjxqgf8kd3gsoqdmjsr77grt,32eyx73oy4m00mcsrzi96lgbeeiru3,e1dUSFNT,2020-0188,2020-11-21,23:17:16,23:52:38,NA,incomplete,96,number,1,left,Red_Circle_Grid_4.jpg,Purple_Plus_Dots_4.jpg,Blue_Triangle_Grid_3.jpg,left,800.3949999983888,true,high,NA,NA,NA,NA,NA,NA,NA,false
e1dUSFNT,3zvpamtjxqgf8kd3gsoqdmjsr77grt,32eyx73oy4m00mcsrzi96lgbeeiru3,e1dUSFNT,2020-0188,2020-11-21,23:17:16,23:52:38,NA,incomplete,97,number,1,right,Green_Plus_Grid_2.jpg,Purple_Star_Grid_4.jpg,Red_Circle_Stripes_2.jpg,right,662.3750000144355,true,high,NA,NA,NA,NA,NA,NA,NA,false
e1dUSFNT,3zvpamtjxqgf8kd3gsoqdmjsr77grt,32eyx73oy4m00mcsrzi96lgbeeiru3,e1dUSFNT,2020-0188,2020-11-21,23:17:16,23:52:38,NA,incomplete,98,number,1,right,Blue_Star_Stripes_1.jpg,Red_Circle_Stripes_3.jpg,Green_Triangle_Chess_1.jpg,right,645.5950000090525,true,high,NA,NA,NA,NA,NA,NA,NA,false
e1dUSFNT,3zvpamtjxqgf8kd3gsoqdmjsr77grt,32eyx73oy4m00mcsrzi96lgbeeiru3,e1dUSFNT,2020-0188,2020-11-21,23:17:16,23:52:38,NA,incomplete,99,number,1,right,Red_Plus_Dots_1.jpg,Blue_Star_Dots_4.jpg,Purple_Circle_Stripes_1.jpg,right,605.0049999903422,true,high,NA,NA,NA,NA,NA,NA,NA,false
e1dUSFNT,3zvpamtjxqgf8kd3gsoqdmjsr77grt,32eyx73oy4m00mcsrzi96lgbeeiru3,e1dUSFNT,2020-0188,2020-11-21,23:17:16,23:52:38,NA,incomplete,100,filling,1,left,Green_Star_Dots_3.jpg,Blue_Circle_Dots_4.jpg,Red_Triangle_Chess_3.jpg,right,870.3350000141654,false,high,NA,NA,NA,NA,NA,NA,NA,false
e1dUSFNT,3zvpamtjxqgf8kd3gsoqdmjsr77grt,32eyx73oy4m00mcsrzi96lgbeeiru3,e1dUSFNT,2020-0188,2020-11-21,23:17:16,23:52:38,NA,incomplete,101,filling,1,right,Green_Star_Grid_2.jpg,Blue_Plus_Stripes_2.jpg,Purple_Circle_Grid_1.jpg,left,900.2699999837205,false,high,NA,NA,NA,NA,NA,NA,NA,false
e1dUSFNT,3zvpamtjxqgf8kd3gsoqdmjsr77grt,32eyx73oy4m00mcsrzi96lgbeeiru3,e1dUSFNT,2020-0188,2020-11-21,23:17:16,23:52:38,NA,incomplete,102,filling,1,right,Purple_Star_Stripes_4.jpg,Green_Plus_Grid_4.jpg,Blue_Circle_Stripes_1.jpg,left,712.0400000130758,false,high,NA,NA,NA,NA,NA,NA,NA,false
e1dUSFNT,3zvpamtjxqgf8kd3gsoqdmjsr77grt,32eyx73oy4m00mcsrzi96lgbeeiru3,e1dUSFNT,2020-0188,2020-11-21,23:17:16,23:52:38,NA,incomplete,103,filling,1,left,Blue_Circle_Chess_1.jpg,Red_Plus_Chess_2.jpg,Purple_Star_Stripes_1.jpg,left,1237.9349999828264,true,high,NA,NA,NA,NA,NA,NA,NA,false
e1dUSFNT,3zvpamtjxqgf8kd3gsoqdmjsr77grt,32eyx73oy4m00mcsrzi96lgbeeiru3,e1dUSFNT,2020-0188,2020-11-21,23:17:16,23:52:38,NA,incomplete,104,filling,1,left,Purple_Triangle_Dots_2.jpg,Red_Star_Dots_3.jpg,Green_Circle_Chess_2.jpg,left,947.9149999970105,true,high,NA,NA,NA,NA,NA,NA,NA,false
e1dUSFNT,3zvpamtjxqgf8kd3gsoqdmjsr77grt,32eyx73oy4m00mcsrzi96lgbeeiru3,e1dUSFNT,2020-0188,2020-11-21,23:17:16,23:52:38,NA,incomplete,105,filling,1,left,Purple_Circle_Dots_2.jpg,Green_Plus_Dots_3.jpg,Red_Star_Stripes_2.jpg,left,1190.935000020545,true,high,NA,NA,NA,NA,NA,NA,NA,false
e1dUSFNT,3zvpamtjxqgf8kd3gsoqdmjsr77grt,32eyx73oy4m00mcsrzi96lgbeeiru3,e1dUSFNT,2020-0188,2020-11-21,23:17:16,23:52:38,NA,incomplete,106,filling,1,right,Red_Plus_Dots_1.jpg,Green_Star_Stripes_1.jpg,Blue_Circle_Dots_4.jpg,right,1059.8250000039116,true,high,NA,NA,NA,NA,NA,NA,NA,false
e1dUSFNT,3zvpamtjxqgf8kd3gsoqdmjsr77grt,32eyx73oy4m00mcsrzi96lgbeeiru3,e1dUSFNT,2020-0188,2020-11-21,23:17:16,23:52:38,NA,incomplete,107,filling,0,right,Red_Plus_Grid_3.jpg,Blue_Triangle_Stripes_3.jpg,Green_Star_Grid_4.jpg,right,1256.9300000031944,true,high,NA,NA,NA,NA,NA,NA,NA,false
e1dUSFNT,3zvpamtjxqgf8kd3gsoqdmjsr77grt,32eyx73oy4m00mcsrzi96lgbeeiru3,e1dUSFNT,2020-0188,2020-11-21,23:17:16,23:52:38,NA,incomplete,108,filling,1,right,Blue_Star_Dots_3.jpg,Purple_Circle_Chess_3.jpg,Green_Triangle_Dots_4.jpg,left,1013.9199999975972,false,high,NA,NA,NA,NA,NA,NA,NA,false
e1dUSFNT,3zvpamtjxqgf8kd3gsoqdmjsr77grt,32eyx73oy4m00mcsrzi96lgbeeiru3,e1dUSFNT,2020-0188,2020-11-21,23:17:16,23:52:38,NA,incomplete,109,filling,0,left,Purple_Circle_Chess_4.jpg,Red_Plus_Chess_1.jpg,Green_Triangle_Stripes_4.jpg,right,794.1700000083074,false,high,NA,NA,NA,NA,NA,NA,NA,false
e1dUSFNT,3zvpamtjxqgf8kd3gsoqdmjsr77grt,32eyx73oy4m00mcsrzi96lgbeeiru3,e1dUSFNT,2020-0188,2020-11-21,23:17:16,23:52:38,NA,incomplete,110,number,1,left,Purple_Circle_Chess_2.jpg,Blue_Plus_Grid_2.jpg,Green_Triangle_Chess_4.jpg,left,686.9949999963865,true,high,NA,NA,NA,NA,NA,NA,NA,false
e1dUSFNT,3zvpamtjxqgf8kd3gsoqdmjsr77grt,32eyx73oy4m00mcsrzi96lgbeeiru3,e1dUSFNT,2020-0188,2020-11-21,23:17:16,23:52:38,NA,incomplete,111,number,1,left,Red_Triangle_Chess_4.jpg,Green_Plus_Dots_4.jpg,Purple_Circle_Chess_1.jpg,left,757.0999999879859,true,high,NA,NA,NA,NA,NA,NA,NA,false
e1dUSFNT,3zvpamtjxqgf8kd3gsoqdmjsr77grt,32eyx73oy4m00mcsrzi96lgbeeiru3,e1dUSFNT,2020-0188,2020-11-21,23:17:16,23:52:38,NA,incomplete,112,number,1,right,Red_Triangle_Chess_3.jpg,Green_Star_Chess_2.jpg,Purple_Circle_Dots_3.jpg,right,681.2600000121165,true,high,NA,NA,NA,NA,NA,NA,NA,false
e1dUSFNT,3zvpamtjxqgf8kd3gsoqdmjsr77grt,32eyx73oy4m00mcsrzi96lgbeeiru3,e1dUSFNT,2020-0188,2020-11-21,23:17:16,23:52:38,NA,incomplete,113,number,1,left,Green_Triangle_Chess_3.jpg,Red_Star_Dots_3.jpg,Blue_Plus_Chess_2.jpg,left,761.8249999941327,true,high,NA,NA,NA,NA,NA,NA,NA,false
e1dUSFNT,3zvpamtjxqgf8kd3gsoqdmjsr77grt,32eyx73oy4m00mcsrzi96lgbeeiru3,e1dUSFNT,2020-0188,2020-11-21,23:17:16,23:52:38,NA,incomplete,114,number,1,left,Green_Circle_Grid_3.jpg,Purple_Triangle_Chess_3.jpg,Red_Star_Grid_4.jpg,left,867.919999989681,true,high,NA,NA,NA,NA,NA,NA,NA,false
e1dUSFNT,3zvpamtjxqgf8kd3gsoqdmjsr77grt,32eyx73oy4m00mcsrzi96lgbeeiru3,e1dUSFNT,2020-0188,2020-11-21,23:17:16,23:52:38,NA,incomplete,115,number,1,right,Purple_Star_Stripes_3.jpg,Blue_Triangle_Stripes_4.jpg,Red_Circle_Grid_3.jpg,right,1020.5450000066776,true,high,NA,NA,NA,NA,NA,NA,NA,false
e1dUSFNT,3zvpamtjxqgf8kd3gsoqdmjsr77grt,32eyx73oy4m00mcsrzi96lgbeeiru3,e1dUSFNT,2020-0188,2020-11-21,23:17:16,23:52:38,NA,incomplete,116,number,1,right,Red_Star_Grid_4.jpg,Blue_Circle_Grid_2.jpg,Purple_Plus_Chess_4.jpg,right,808.759999985341,true,high,NA,NA,NA,NA,NA,NA,NA,false
e1dUSFNT,3zvpamtjxqgf8kd3gsoqdmjsr77grt,32eyx73oy4m00mcsrzi96lgbeeiru3,e1dUSFNT,2020-0188,2020-11-21,23:17:16,23:52:38,NA,incomplete,117,number,0,right,Blue_Plus_Grid_1.jpg,Purple_Triangle_Grid_3.jpg,Green_Star_Chess_1.jpg,right,708.2750000117812,true,high,NA,NA,NA,NA,NA,NA,NA,false
e1dUSFNT,3zvpamtjxqgf8kd3gsoqdmjsr77grt,32eyx73oy4m00mcsrzi96lgbeeiru3,e1dUSFNT,2020-0188,2020-11-21,23:17:16,23:52:38,NA,incomplete,118,number,1,right,Blue_Star_Stripes_2.jpg,Red_Plus_Stripes_1.jpg,Green_Circle_Dots_2.jpg,right,1110.2799999935087,true,high,NA,NA,NA,NA,NA,NA,NA,false
e1dUSFNT,3zvpamtjxqgf8kd3gsoqdmjsr77grt,32eyx73oy4m00mcsrzi96lgbeeiru3,e1dUSFNT,2020-0188,2020-11-21,23:17:16,23:52:38,NA,incomplete,119,number,0,right,Red_Triangle_Chess_4.jpg,Blue_Star_Chess_2.jpg,Purple_Plus_Grid_4.jpg,left,1188.4199999913108,false,high,NA,NA,NA,NA,NA,NA,NA,false
e1dUSFNT,3zvpamtjxqgf8kd3gsoqdmjsr77grt,32eyx73oy4m00mcsrzi96lgbeeiru3,e1dUSFNT,2020-0188,2020-11-21,23:17:16,23:52:38,NA,incomplete,120,filling,0,left,Purple_Star_Chess_4.jpg,Blue_Circle_Chess_1.jpg,Green_Plus_Stripes_4.jpg,left,1130.990000005113,true,high,NA,NA,NA,NA,NA,NA,NA,false
e1dUSFNT,3zvpamtjxqgf8kd3gsoqdmjsr77grt,32eyx73oy4m00mcsrzi96lgbeeiru3,e1dUSFNT,2020-0188,2020-11-21,23:17:16,23:52:38,NA,incomplete,121,filling,1,right,Blue_Star_Grid_2.jpg,Purple_Triangle_Chess_2.jpg,Green_Plus_Grid_4.jpg,right,1127.6399999915157,true,high,NA,NA,NA,NA,NA,NA,NA,false
e1dUSFNT,3zvpamtjxqgf8kd3gsoqdmjsr77grt,32eyx73oy4m00mcsrzi96lgbeeiru3,e1dUSFNT,2020-0188,2020-11-21,23:17:16,23:52:38,NA,incomplete,122,filling,1,right,Blue_Triangle_Chess_4.jpg,Green_Plus_Stripes_4.jpg,Purple_Circle_Chess_1.jpg,right,1184.5650000032037,true,high,NA,NA,NA,NA,NA,NA,NA,false
e1dUSFNT,3zvpamtjxqgf8kd3gsoqdmjsr77grt,32eyx73oy4m00mcsrzi96lgbeeiru3,e1dUSFNT,2020-0188,2020-11-21,23:17:16,23:52:38,NA,incomplete,123,filling,1,left,Purple_Star_Stripes_3.jpg,Red_Plus_Stripes_1.jpg,Blue_Triangle_Chess_3.jpg,left,978.7349999824073,true,high,NA,NA,NA,NA,NA,NA,NA,false
e1dUSFNT,3zvpamtjxqgf8kd3gsoqdmjsr77grt,32eyx73oy4m00mcsrzi96lgbeeiru3,e1dUSFNT,2020-0188,2020-11-21,23:17:16,23:52:38,NA,incomplete,124,filling,1,right,Red_Triangle_Chess_4.jpg,Purple_Plus_Stripes_4.jpg,Blue_Star_Chess_2.jpg,right,1095.965000014985,true,high,NA,NA,NA,NA,NA,NA,NA,false
e1dUSFNT,3zvpamtjxqgf8kd3gsoqdmjsr77grt,32eyx73oy4m00mcsrzi96lgbeeiru3,e1dUSFNT,2020-0188,2020-11-21,23:17:16,23:52:38,NA,incomplete,125,filling,1,left,Blue_Plus_Chess_4.jpg,Purple_Circle_Chess_1.jpg,Red_Star_Stripes_4.jpg,left,1065.214999980526,true,high,NA,NA,NA,NA,NA,NA,NA,false
e1dUSFNT,3zvpamtjxqgf8kd3gsoqdmjsr77grt,32eyx73oy4m00mcsrzi96lgbeeiru3,e1dUSFNT,2020-0188,2020-11-21,23:17:16,23:52:38,NA,incomplete,126,filling,1,left,Red_Triangle_Chess_3.jpg,Blue_Star_Chess_2.jpg,Green_Plus_Stripes_3.jpg,left,1173.7950000097044,true,high,NA,NA,NA,NA,NA,NA,NA,false
e1dUSFNT,3zvpamtjxqgf8kd3gsoqdmjsr77grt,32eyx73oy4m00mcsrzi96lgbeeiru3,e1dUSFNT,2020-0188,2020-11-21,23:17:16,23:52:38,NA,incomplete,127,filling,0,left,Blue_Triangle_Dots_1.jpg,Red_Plus_Dots_2.jpg,Purple_Circle_Stripes_1.jpg,left,1126.975000021048,true,high,NA,NA,NA,NA,NA,NA,NA,false
e1dUSFNT,3zvpamtjxqgf8kd3gsoqdmjsr77grt,32eyx73oy4m00mcsrzi96lgbeeiru3,e1dUSFNT,2020-0188,2020-11-21,23:17:16,23:52:38,NA,incomplete,128,filling,1,right,Blue_Star_Dots_2.jpg,Purple_Circle_Stripes_2.jpg,Green_Plus_Dots_3.jpg,left,887.654999998631,false,high,NA,NA,NA,NA,NA,NA,NA,false
e1dUSFNT,3zvpamtjxqgf8kd3gsoqdmjsr77grt,32eyx73oy4m00mcsrzi96lgbeeiru3,e1dUSFNT,2020-0188,2020-11-21,23:17:16,23:52:38,NA,incomplete,129,filling,1,left,Purple_Plus_Stripes_4.jpg,Blue_Star_Stripes_1.jpg,Green_Circle_Grid_4.jpg,left,1542.780000017956,true,high,NA,NA,NA,NA,NA,NA,NA,false
e1dUSFNT,3zvpamtjxqgf8kd3gsoqdmjsr77grt,32eyx73oy4m00mcsrzi96lgbeeiru3,e1dUSFNT,2020-0188,2020-11-21,23:17:16,23:52:38,NA,incomplete,130,filling,1,left,Purple_Triangle_Chess_2.jpg,Blue_Plus_Chess_3.jpg,Green_Star_Dots_2.jpg,left,1159.3200000061188,true,high,NA,NA,NA,NA,NA,NA,NA,false
e1dUSFNT,3zvpamtjxqgf8kd3gsoqdmjsr77grt,32eyx73oy4m00mcsrzi96lgbeeiru3,e1dUSFNT,2020-0188,2020-11-21,23:17:16,23:52:38,NA,incomplete,131,filling,1,right,Blue_Triangle_Stripes_3.jpg,Purple_Circle_Dots_3.jpg,Green_Star_Stripes_2.jpg,right,1185.3249999985565,true,high,NA,NA,NA,NA,NA,NA,NA,false
e1dUSFNT,3zvpamtjxqgf8kd3gsoqdmjsr77grt,32eyx73oy4m00mcsrzi96lgbeeiru3,e1dUSFNT,2020-0188,2020-11-21,23:17:16,23:52:38,NA,incomplete,132,filling,1,left,Blue_Triangle_Dots_4.jpg,Green_Circle_Dots_2.jpg,Purple_Plus_Grid_4.jpg,left,989.884999988135,true,high,NA,NA,NA,NA,NA,NA,NA,false
e1dUSFNT,3zvpamtjxqgf8kd3gsoqdmjsr77grt,32eyx73oy4m00mcsrzi96lgbeeiru3,e1dUSFNT,2020-0188,2020-11-21,23:17:16,23:52:38,NA,incomplete,133,filling,1,left,Green_Star_Dots_2.jpg,Purple_Triangle_Dots_4.jpg,Blue_Plus_Grid_2.jpg,left,1254.769999999553,true,high,NA,NA,NA,NA,NA,NA,NA,false
e1dUSFNT,3zvpamtjxqgf8kd3gsoqdmjsr77grt,32eyx73oy4m00mcsrzi96lgbeeiru3,e1dUSFNT,2020-0188,2020-11-21,23:17:16,23:52:38,NA,incomplete,134,filling,0,right,Green_Plus_Grid_1.jpg,Red_Circle_Stripes_1.jpg,Blue_Star_Grid_3.jpg,right,1035.9449999814387,true,high,NA,NA,NA,NA,NA,NA,NA,false
e1dUSFNT,3zvpamtjxqgf8kd3gsoqdmjsr77grt,32eyx73oy4m00mcsrzi96lgbeeiru3,e1dUSFNT,2020-0188,2020-11-21,23:17:16,23:52:38,NA,incomplete,135,filling,1,left,Red_Triangle_Grid_1.jpg,Purple_Plus_Grid_2.jpg,Blue_Circle_Chess_1.jpg,left,1374.869999999646,true,high,NA,NA,NA,NA,NA,NA,NA,false
e1dUSFNT,3zvpamtjxqgf8kd3gsoqdmjsr77grt,32eyx73oy4m00mcsrzi96lgbeeiru3,e1dUSFNT,2020-0188,2020-11-21,23:17:16,23:52:38,NA,incomplete,136,filling,1,right,Red_Triangle_Chess_1.jpg,Blue_Circle_Dots_1.jpg,Green_Plus_Chess_4.jpg,right,1332.1149999974295,true,high,NA,NA,NA,NA,NA,NA,NA,false
e1dUSFNT,3zvpamtjxqgf8kd3gsoqdmjsr77grt,32eyx73oy4m00mcsrzi96lgbeeiru3,e1dUSFNT,2020-0188,2020-11-21,23:17:16,23:52:38,NA,incomplete,137,filling,1,left,Blue_Star_Dots_3.jpg,Purple_Circle_Dots_4.jpg,Green_Triangle_Stripes_3.jpg,left,1041.0850000043865,true,high,NA,NA,NA,NA,NA,NA,NA,false
e1dUSFNT,3zvpamtjxqgf8kd3gsoqdmjsr77grt,32eyx73oy4m00mcsrzi96lgbeeiru3,e1dUSFNT,2020-0188,2020-11-21,23:17:16,23:52:38,NA,incomplete,138,filling,0,left,Blue_Star_Grid_2.jpg,Red_Plus_Grid_3.jpg,Purple_Triangle_Stripes_2.jpg,left,981.6950000240467,true,high,NA,NA,NA,NA,NA,NA,NA,false
e1dUSFNT,3zvpamtjxqgf8kd3gsoqdmjsr77grt,32eyx73oy4m00mcsrzi96lgbeeiru3,e1dUSFNT,2020-0188,2020-11-21,23:17:16,23:52:38,NA,incomplete,139,filling,1,left,Purple_Plus_Dots_4.jpg,Blue_Star_Dots_1.jpg,Green_Circle_Grid_4.jpg,left,953.2199999957811,true,high,NA,NA,NA,NA,NA,NA,NA,false
e1dUSFNT,3zvpamtjxqgf8kd3gsoqdmjsr77grt,32eyx73oy4m00mcsrzi96lgbeeiru3,e1dUSFNT,2020-0188,2020-11-21,23:17:16,23:52:38,NA,incomplete,140,number,1,left,Blue_Star_Dots_1.jpg,Green_Triangle_Grid_1.jpg,Purple_Circle_Dots_2.jpg,right,1112.3700000171084,false,high,NA,NA,NA,NA,NA,NA,NA,false
e1dUSFNT,3zvpamtjxqgf8kd3gsoqdmjsr77grt,32eyx73oy4m00mcsrzi96lgbeeiru3,e1dUSFNT,2020-0188,2020-11-21,23:17:16,23:52:38,NA,incomplete,141,number,1,left,Purple_Triangle_Stripes_4.jpg,Blue_Circle_Chess_4.jpg,Green_Star_Stripes_3.jpg,left,838.8999999733642,true,high,NA,NA,NA,NA,NA,NA,NA,false
e1dUSFNT,3zvpamtjxqgf8kd3gsoqdmjsr77grt,32eyx73oy4m00mcsrzi96lgbeeiru3,e1dUSFNT,2020-0188,2020-11-21,23:17:16,23:52:38,NA,incomplete,142,number,1,left,Purple_Plus_Chess_1.jpg,Green_Circle_Stripes_1.jpg,Red_Triangle_Chess_2.jpg,left,791.510000010021,true,high,NA,NA,NA,NA,NA,NA,NA,false
e1dUSFNT,3zvpamtjxqgf8kd3gsoqdmjsr77grt,32eyx73oy4m00mcsrzi96lgbeeiru3,e1dUSFNT,2020-0188,2020-11-21,23:17:16,23:52:38,NA,incomplete,143,number,1,right,Green_Plus_Dots_3.jpg,Blue_Star_Dots_2.jpg,Red_Circle_Chess_3.jpg,right,727.0050000224728,true,high,NA,NA,NA,NA,NA,NA,NA,false
e1dUSFNT,3zvpamtjxqgf8kd3gsoqdmjsr77grt,32eyx73oy4m00mcsrzi96lgbeeiru3,e1dUSFNT,2020-0188,2020-11-21,23:17:16,23:52:38,NA,incomplete,144,number,1,right,Purple_Plus_Chess_1.jpg,Green_Star_Chess_4.jpg,Red_Triangle_Grid_1.jpg,right,652.799999981653,true,high,NA,NA,NA,NA,NA,NA,NA,false
e1dUSFNT,3zvpamtjxqgf8kd3gsoqdmjsr77grt,32eyx73oy4m00mcsrzi96lgbeeiru3,e1dUSFNT,2020-0188,2020-11-21,23:17:16,23:52:38,NA,incomplete,145,number,1,right,Blue_Star_Stripes_1.jpg,Green_Circle_Stripes_4.jpg,Red_Plus_Grid_1.jpg,right,651.9950000219978,true,high,NA,NA,NA,NA,NA,NA,NA,false
e1dUSFNT,3zvpamtjxqgf8kd3gsoqdmjsr77grt,32eyx73oy4m00mcsrzi96lgbeeiru3,e1dUSFNT,2020-0188,2020-11-21,23:17:16,23:52:38,NA,incomplete,146,number,1,right,Green_Triangle_Stripes_2.jpg,Red_Star_Stripes_4.jpg,Blue_Circle_Chess_2.jpg,right,842.6500000059605,true,high,NA,NA,NA,NA,NA,NA,NA,false
e1dUSFNT,3zvpamtjxqgf8kd3gsoqdmjsr77grt,32eyx73oy4m00mcsrzi96lgbeeiru3,e1dUSFNT,2020-0188,2020-11-21,23:17:16,23:52:38,NA,incomplete,147,number,1,left,Purple_Circle_Dots_4.jpg,Green_Plus_Grid_4.jpg,Blue_Triangle_Dots_3.jpg,left,833.7650000175927,true,high,NA,NA,NA,NA,NA,NA,NA,false
e1dUSFNT,3zvpamtjxqgf8kd3gsoqdmjsr77grt,32eyx73oy4m00mcsrzi96lgbeeiru3,e1dUSFNT,2020-0188,2020-11-21,23:17:16,23:52:38,NA,incomplete,148,number,1,left,Red_Circle_Chess_2.jpg,Purple_Star_Dots_2.jpg,Green_Triangle_Chess_1.jpg,left,842.2900000005029,true,high,NA,NA,NA,NA,NA,NA,NA,false
e1dUSFNT,3zvpamtjxqgf8kd3gsoqdmjsr77grt,32eyx73oy4m00mcsrzi96lgbeeiru3,e1dUSFNT,2020-0188,2020-11-21,23:17:16,23:52:38,NA,incomplete,149,number,1,left,Green_Plus_Stripes_3.jpg,Red_Triangle_Grid_3.jpg,Purple_Star_Stripes_1.jpg,left,760.855000000447,true,high,NA,NA,NA,NA,NA,NA,NA,false
e1dUSFNT,3zvpamtjxqgf8kd3gsoqdmjsr77grt,32eyx73oy4m00mcsrzi96lgbeeiru3,e1dUSFNT,2020-0188,2020-11-21,23:17:16,23:52:38,NA,incomplete,150,number,0,right,Red_Triangle_Grid_1.jpg,Green_Star_Grid_2.jpg,Blue_Circle_Chess_1.jpg,right,703.1399999978021,true,high,NA,NA,NA,NA,NA,NA,NA,false
e1dUSFNT,3zvpamtjxqgf8kd3gsoqdmjsr77grt,32eyx73oy4m00mcsrzi96lgbeeiru3,e1dUSFNT,2020-0188,2020-11-21,23:17:16,23:52:38,NA,incomplete,151,number,1,right,Red_Star_Stripes_4.jpg,Green_Plus_Stripes_3.jpg,Purple_Circle_Grid_4.jpg,right,1243.335000006482,true,high,NA,NA,NA,NA,NA,NA,NA,false
e1dUSFNT,3zvpamtjxqgf8kd3gsoqdmjsr77grt,32eyx73oy4m00mcsrzi96lgbeeiru3,e1dUSFNT,2020-0188,2020-11-21,23:17:16,23:52:38,NA,incomplete,152,number,0,right,Red_Plus_Chess_1.jpg,Blue_Star_Chess_3.jpg,Purple_Circle_Stripes_1.jpg,right,691.8349999759812,true,high,NA,NA,NA,NA,NA,NA,NA,false
e1dUSFNT,3zvpamtjxqgf8kd3gsoqdmjsr77grt,32eyx73oy4m00mcsrzi96lgbeeiru3,e1dUSFNT,2020-0188,2020-11-21,23:17:16,23:52:38,NA,incomplete,153,number,1,right,Green_Star_Chess_2.jpg,Purple_Triangle_Chess_1.jpg,Blue_Circle_Grid_2.jpg,left,1356.644999992568,false,high,NA,NA,NA,NA,NA,NA,NA,false
e1dUSFNT,3zvpamtjxqgf8kd3gsoqdmjsr77grt,32eyx73oy4m00mcsrzi96lgbeeiru3,e1dUSFNT,2020-0188,2020-11-21,23:17:16,23:52:38,NA,incomplete,154,number,0,left,Blue_Circle_Chess_4.jpg,Purple_Plus_Dots_4.jpg,Red_Star_Chess_1.jpg,right,1081.7799999786075,false,high,NA,NA,NA,NA,NA,NA,NA,false
e1dUSFNT,3zvpamtjxqgf8kd3gsoqdmjsr77grt,32eyx73oy4m00mcsrzi96lgbeeiru3,e1dUSFNT,2020-0188,2020-11-21,23:17:16,23:52:38,NA,incomplete,155,number,1,right,Green_Circle_Grid_3.jpg,Purple_Plus_Grid_4.jpg,Red_Star_Chess_3.jpg,left,1115.655000001425,false,high,NA,NA,NA,NA,NA,NA,NA,false
e1dUSFNT,3zvpamtjxqgf8kd3gsoqdmjsr77grt,32eyx73oy4m00mcsrzi96lgbeeiru3,e1dUSFNT,2020-0188,2020-11-21,23:17:16,23:52:38,NA,incomplete,156,number,0,left,Blue_Circle_Stripes_2.jpg,Purple_Star_Dots_2.jpg,Red_Triangle_Stripes_1.jpg,left,1429.6200000098906,true,high,NA,NA,NA,NA,NA,NA,NA,false
e1dUSFNT,3zvpamtjxqgf8kd3gsoqdmjsr77grt,32eyx73oy4m00mcsrzi96lgbeeiru3,e1dUSFNT,2020-0188,2020-11-21,23:17:16,23:52:38,NA,incomplete,157,number,1,left,Purple_Plus_Stripes_3.jpg,Red_Triangle_Chess_3.jpg,Blue_Star_Stripes_2.jpg,right,1252.3350000265054,false,high,NA,NA,NA,NA,NA,NA,NA,false
e1dUSFNT,3zvpamtjxqgf8kd3gsoqdmjsr77grt,32eyx73oy4m00mcsrzi96lgbeeiru3,e1dUSFNT,2020-0188,2020-11-21,23:17:16,23:52:38,NA,incomplete,158,number,1,left,Blue_Circle_Chess_4.jpg,Purple_Star_Stripes_4.jpg,Green_Plus_Chess_2.jpg,right,1353.065000002971,false,high,NA,NA,NA,NA,NA,NA,NA,false
e1dUSFNT,3zvpamtjxqgf8kd3gsoqdmjsr77grt,32eyx73oy4m00mcsrzi96lgbeeiru3,e1dUSFNT,2020-0188,2020-11-21,23:17:16,23:52:38,NA,incomplete,159,number,0,left,Red_Plus_Dots_3.jpg,Green_Circle_Grid_3.jpg,Blue_Triangle_Dots_2.jpg,left,908.0450000183191,true,high,NA,NA,NA,NA,NA,NA,NA,false
e1dUSFNT,3zvpamtjxqgf8kd3gsoqdmjsr77grt,32eyx73oy4m00mcsrzi96lgbeeiru3,e1dUSFNT,2020-0188,2020-11-21,23:17:16,23:52:38,NA,incomplete,160,filling,1,left,Green_Star_Dots_1.jpg,Red_Triangle_Dots_4.jpg,Blue_Plus_Stripes_1.jpg,left,1187.7849999873433,true,high,NA,NA,NA,NA,NA,NA,NA,false
e1dUSFNT,3zvpamtjxqgf8kd3gsoqdmjsr77grt,32eyx73oy4m00mcsrzi96lgbeeiru3,e1dUSFNT,2020-0188,2020-11-21,23:17:16,23:52:38,NA,incomplete,161,filling,1,right,Blue_Plus_Dots_4.jpg,Green_Triangle_Chess_4.jpg,Red_Circle_Dots_1.jpg,right,1343.9399999915622,true,high,NA,NA,NA,NA,NA,NA,NA,false
e1dUSFNT,3zvpamtjxqgf8kd3gsoqdmjsr77grt,32eyx73oy4m00mcsrzi96lgbeeiru3,e1dUSFNT,2020-0188,2020-11-21,23:17:16,23:52:38,NA,incomplete,162,filling,1,left,Blue_Star_Dots_2.jpg,Red_Circle_Dots_3.jpg,Green_Plus_Stripes_2.jpg,left,884.8700000089593,true,high,NA,NA,NA,NA,NA,NA,NA,false
e1dUSFNT,3zvpamtjxqgf8kd3gsoqdmjsr77grt,32eyx73oy4m00mcsrzi96lgbeeiru3,e1dUSFNT,2020-0188,2020-11-21,23:17:16,23:52:38,NA,incomplete,163,filling,1,right,Red_Circle_Stripes_2.jpg,Purple_Triangle_Chess_2.jpg,Blue_Plus_Stripes_3.jpg,right,1039.2549999814946,true,high,NA,NA,NA,NA,NA,NA,NA,false
e1dUSFNT,3zvpamtjxqgf8kd3gsoqdmjsr77grt,32eyx73oy4m00mcsrzi96lgbeeiru3,e1dUSFNT,2020-0188,2020-11-21,23:17:16,23:52:38,NA,incomplete,164,filling,1,right,Red_Plus_Dots_2.jpg,Purple_Circle_Stripes_2.jpg,Blue_Triangle_Dots_1.jpg,right,1077.0199999969918,true,high,NA,NA,NA,NA,NA,NA,NA,false
e1dUSFNT,3zvpamtjxqgf8kd3gsoqdmjsr77grt,32eyx73oy4m00mcsrzi96lgbeeiru3,e1dUSFNT,2020-0188,2020-11-21,23:17:16,23:52:38,NA,incomplete,165,filling,1,right,Red_Circle_Stripes_2.jpg,Green_Star_Grid_2.jpg,Blue_Plus_Stripes_3.jpg,right,1178.9350000035483,true,high,NA,NA,NA,NA,NA,NA,NA,false
e1dUSFNT,3zvpamtjxqgf8kd3gsoqdmjsr77grt,32eyx73oy4m00mcsrzi96lgbeeiru3,e1dUSFNT,2020-0188,2020-11-21,23:17:16,23:52:38,NA,incomplete,166,filling,1,right,Green_Star_Chess_1.jpg,Red_Triangle_Dots_1.jpg,Purple_Circle_Chess_4.jpg,right,1051.4050000056159,true,high,NA,NA,NA,NA,NA,NA,NA,false
e1dUSFNT,3zvpamtjxqgf8kd3gsoqdmjsr77grt,32eyx73oy4m00mcsrzi96lgbeeiru3,e1dUSFNT,2020-0188,2020-11-21,23:17:16,23:52:38,NA,incomplete,167,filling,1,left,Blue_Star_Stripes_4.jpg,Red_Triangle_Stripes_3.jpg,Green_Circle_Grid_4.jpg,left,1081.8699999945238,true,high,NA,NA,NA,NA,NA,NA,NA,false
e1dUSFNT,3zvpamtjxqgf8kd3gsoqdmjsr77grt,32eyx73oy4m00mcsrzi96lgbeeiru3,e1dUSFNT,2020-0188,2020-11-21,23:17:16,23:52:38,NA,incomplete,168,filling,1,left,Red_Triangle_Chess_3.jpg,Blue_Plus_Chess_1.jpg,Purple_Star_Grid_3.jpg,left,1086.7050000233576,true,high,NA,NA,NA,NA,NA,NA,NA,false
e1dUSFNT,3zvpamtjxqgf8kd3gsoqdmjsr77grt,32eyx73oy4m00mcsrzi96lgbeeiru3,e1dUSFNT,2020-0188,2020-11-21,23:17:16,23:52:38,NA,incomplete,169,filling,1,left,Green_Circle_Stripes_3.jpg,Purple_Star_Stripes_2.jpg,Red_Plus_Grid_3.jpg,left,996.1100000073202,true,high,NA,NA,NA,NA,NA,NA,NA,false
e1dUSFNT,3zvpamtjxqgf8kd3gsoqdmjsr77grt,32eyx73oy4m00mcsrzi96lgbeeiru3,e1dUSFNT,2020-0188,2020-11-21,23:17:16,23:52:38,NA,incomplete,170,filling,1,left,Red_Plus_Grid_1.jpg,Green_Star_Grid_4.jpg,Blue_Triangle_Stripes_1.jpg,left,1357.3150000011083,true,high,NA,NA,NA,NA,NA,NA,NA,false
e1dUSFNT,3zvpamtjxqgf8kd3gsoqdmjsr77grt,32eyx73oy4m00mcsrzi96lgbeeiru3,e1dUSFNT,2020-0188,2020-11-21,23:17:16,23:52:38,NA,incomplete,171,filling,1,left,Purple_Star_Stripes_4.jpg,Blue_Circle_Stripes_1.jpg,Red_Triangle_Dots_4.jpg,left,1134.330000000773,true,high,NA,NA,NA,NA,NA,NA,NA,false
e1dUSFNT,3zvpamtjxqgf8kd3gsoqdmjsr77grt,32eyx73oy4m00mcsrzi96lgbeeiru3,e1dUSFNT,2020-0188,2020-11-21,23:17:16,23:52:38,NA,incomplete,172,filling,1,right,Red_Plus_Dots_3.jpg,Green_Circle_Grid_3.jpg,Purple_Star_Dots_1.jpg,right,1148.5800000082236,true,high,NA,NA,NA,NA,NA,NA,NA,false
e1dUSFNT,3zvpamtjxqgf8kd3gsoqdmjsr77grt,32eyx73oy4m00mcsrzi96lgbeeiru3,e1dUSFNT,2020-0188,2020-11-21,23:17:16,23:52:38,NA,incomplete,173,filling,0,right,Purple_Triangle_Dots_3.jpg,Blue_Circle_Stripes_3.jpg,Red_Star_Dots_2.jpg,right,1191.709999984596,true,high,NA,NA,NA,NA,NA,NA,NA,false
e1dUSFNT,3zvpamtjxqgf8kd3gsoqdmjsr77grt,32eyx73oy4m00mcsrzi96lgbeeiru3,e1dUSFNT,2020-0188,2020-11-21,23:17:16,23:52:38,NA,incomplete,174,filling,1,left,Green_Circle_Grid_3.jpg,Blue_Plus_Grid_4.jpg,Purple_Star_Stripes_3.jpg,left,1390.8099999825936,true,high,NA,NA,NA,NA,NA,NA,NA,false
e1dUSFNT,3zvpamtjxqgf8kd3gsoqdmjsr77grt,32eyx73oy4m00mcsrzi96lgbeeiru3,e1dUSFNT,2020-0188,2020-11-21,23:17:16,23:52:38,NA,incomplete,175,filling,1,left,Purple_Plus_Grid_1.jpg,Red_Triangle_Grid_4.jpg,Green_Circle_Stripes_1.jpg,left,1141.574999986915,true,high,NA,NA,NA,NA,NA,NA,NA,false
e1dUSFNT,3zvpamtjxqgf8kd3gsoqdmjsr77grt,32eyx73oy4m00mcsrzi96lgbeeiru3,e1dUSFNT,2020-0188,2020-11-21,23:17:16,23:52:38,NA,incomplete,176,filling,1,left,Purple_Circle_Dots_2.jpg,Red_Star_Dots_1.jpg,Green_Triangle_Grid_2.jpg,left,1025.0250000099186,true,high,NA,NA,NA,NA,NA,NA,NA,false
e1dUSFNT,3zvpamtjxqgf8kd3gsoqdmjsr77grt,32eyx73oy4m00mcsrzi96lgbeeiru3,e1dUSFNT,2020-0188,2020-11-21,23:17:16,23:52:38,NA,incomplete,177,filling,0,left,Purple_Circle_Chess_4.jpg,Green_Star_Chess_2.jpg,Red_Triangle_Grid_4.jpg,left,1007.9850000038277,true,high,NA,NA,NA,NA,NA,NA,NA,false
e1dUSFNT,3zvpamtjxqgf8kd3gsoqdmjsr77grt,32eyx73oy4m00mcsrzi96lgbeeiru3,e1dUSFNT,2020-0188,2020-11-21,23:17:16,23:52:38,NA,incomplete,178,filling,1,left,Blue_Circle_Chess_1.jpg,Red_Star_Chess_3.jpg,Green_Plus_Dots_1.jpg,left,1248.1900000129826,true,high,NA,NA,NA,NA,NA,NA,NA,false
e1dUSFNT,3zvpamtjxqgf8kd3gsoqdmjsr77grt,32eyx73oy4m00mcsrzi96lgbeeiru3,e1dUSFNT,2020-0188,2020-11-21,23:17:16,23:52:38,NA,incomplete,179,filling,1,right,Red_Triangle_Dots_4.jpg,Purple_Star_Grid_4.jpg,Blue_Circle_Dots_3.jpg,right,1009.6400000038557,true,high,NA,NA,NA,NA,NA,NA,NA,false
e1dUSFNT,3zvpamtjxqgf8kd3gsoqdmjsr77grt,32eyx73oy4m00mcsrzi96lgbeeiru3,e1dUSFNT,2020-0188,2020-11-21,23:17:16,23:52:38,NA,incomplete,180,number,1,left,Purple_Star_Chess_1.jpg,Green_Circle_Stripes_1.jpg,Red_Plus_Chess_4.jpg,right,1032.5249999877997,false,high,NA,NA,NA,NA,NA,NA,NA,false
e1dUSFNT,3zvpamtjxqgf8kd3gsoqdmjsr77grt,32eyx73oy4m00mcsrzi96lgbeeiru3,e1dUSFNT,2020-0188,2020-11-21,23:17:16,23:52:38,NA,incomplete,181,number,1,right,Red_Star_Chess_3.jpg,Purple_Triangle_Chess_1.jpg,Green_Circle_Grid_3.jpg,left,1032.9450000135694,false,high,NA,NA,NA,NA,NA,NA,NA,false
e1dUSFNT,3zvpamtjxqgf8kd3gsoqdmjsr77grt,32eyx73oy4m00mcsrzi96lgbeeiru3,e1dUSFNT,2020-0188,2020-11-21,23:17:16,23:52:38,NA,incomplete,182,number,1,left,Blue_Circle_Stripes_4.jpg,Purple_Star_Grid_4.jpg,Green_Triangle_Stripes_3.jpg,left,807.1899999922607,true,high,NA,NA,NA,NA,NA,NA,NA,false
e1dUSFNT,3zvpamtjxqgf8kd3gsoqdmjsr77grt,32eyx73oy4m00mcsrzi96lgbeeiru3,e1dUSFNT,2020-0188,2020-11-21,23:17:16,23:52:38,NA,incomplete,183,number,1,right,Red_Star_Dots_4.jpg,Purple_Triangle_Dots_1.jpg,Blue_Plus_Chess_4.jpg,right,793.1950000056531,true,high,NA,NA,NA,NA,NA,NA,NA,false
e1dUSFNT,3zvpamtjxqgf8kd3gsoqdmjsr77grt,32eyx73oy4m00mcsrzi96lgbeeiru3,e1dUSFNT,2020-0188,2020-11-21,23:17:16,23:52:38,NA,incomplete,184,number,0,right,Green_Circle_Dots_4.jpg,Purple_Star_Dots_1.jpg,Blue_Plus_Chess_4.jpg,right,769.2600000009406,true,high,NA,NA,NA,NA,NA,NA,NA,false
e1dUSFNT,3zvpamtjxqgf8kd3gsoqdmjsr77grt,32eyx73oy4m00mcsrzi96lgbeeiru3,e1dUSFNT,2020-0188,2020-11-21,23:17:16,23:52:38,NA,incomplete,185,number,1,left,Red_Circle_Stripes_2.jpg,Purple_Triangle_Dots_2.jpg,Blue_Plus_Stripes_1.jpg,left,860.0200000219047,true,high,NA,NA,NA,NA,NA,NA,NA,false
e1dUSFNT,3zvpamtjxqgf8kd3gsoqdmjsr77grt,32eyx73oy4m00mcsrzi96lgbeeiru3,e1dUSFNT,2020-0188,2020-11-21,23:17:16,23:52:38,NA,incomplete,186,number,1,left,Red_Plus_Stripes_4.jpg,Purple_Circle_Chess_4.jpg,Green_Triangle_Stripes_3.jpg,left,953.5899999900721,true,high,NA,NA,NA,NA,NA,NA,NA,false
e1dUSFNT,3zvpamtjxqgf8kd3gsoqdmjsr77grt,32eyx73oy4m00mcsrzi96lgbeeiru3,e1dUSFNT,2020-0188,2020-11-21,23:17:16,23:52:38,NA,incomplete,187,number,0,left,Purple_Plus_Dots_4.jpg,Red_Star_Grid_4.jpg,Blue_Triangle_Dots_2.jpg,left,637.0250000036322,true,high,NA,NA,NA,NA,NA,NA,NA,false
e1dUSFNT,3zvpamtjxqgf8kd3gsoqdmjsr77grt,32eyx73oy4m00mcsrzi96lgbeeiru3,e1dUSFNT,2020-0188,2020-11-21,23:17:16,23:52:38,NA,incomplete,188,number,1,left,Green_Plus_Grid_3.jpg,Purple_Circle_Stripes_3.jpg,Red_Triangle_Grid_2.jpg,left,956.0350000101607,true,high,NA,NA,NA,NA,NA,NA,NA,false
e1dUSFNT,3zvpamtjxqgf8kd3gsoqdmjsr77grt,32eyx73oy4m00mcsrzi96lgbeeiru3,e1dUSFNT,2020-0188,2020-11-21,23:17:16,23:52:38,NA,incomplete,189,number,0,right,Red_Plus_Grid_4.jpg,Blue_Circle_Grid_1.jpg,Green_Star_Stripes_4.jpg,right,767.5750000053085,true,high,NA,NA,NA,NA,NA,NA,NA,false
e1dUSFNT,3zvpamtjxqgf8kd3gsoqdmjsr77grt,32eyx73oy4m00mcsrzi96lgbeeiru3,e1dUSFNT,2020-0188,2020-11-21,23:17:16,23:52:38,NA,incomplete,190,number,1,right,Green_Star_Grid_2.jpg,Purple_Triangle_Grid_4.jpg,Red_Plus_Chess_2.jpg,right,833.4049999830313,true,high,NA,NA,NA,NA,NA,NA,NA,false
e1dUSFNT,3zvpamtjxqgf8kd3gsoqdmjsr77grt,32eyx73oy4m00mcsrzi96lgbeeiru3,e1dUSFNT,2020-0188,2020-11-21,23:17:16,23:52:38,NA,incomplete,191,number,1,left,Blue_Triangle_Chess_2.jpg,Purple_Plus_Stripes_2.jpg,Red_Star_Chess_4.jpg,left,753.4850000229198,true,high,NA,NA,NA,NA,NA,NA,NA,false
e1dUSFNT,3zvpamtjxqgf8kd3gsoqdmjsr77grt,32eyx73oy4m00mcsrzi96lgbeeiru3,e1dUSFNT,2020-0188,2020-11-21,23:17:16,23:52:38,NA,incomplete,192,number,1,left,Green_Triangle_Chess_2.jpg,Blue_Circle_Stripes_2.jpg,Purple_Star_Chess_4.jpg,left,609.9499999836553,true,high,NA,NA,NA,NA,NA,NA,NA,false
e1dUSFNT,3zvpamtjxqgf8kd3gsoqdmjsr77grt,32eyx73oy4m00mcsrzi96lgbeeiru3,e1dUSFNT,2020-0188,2020-11-21,23:17:16,23:52:38,NA,incomplete,193,number,1,right,Purple_Triangle_Stripes_2.jpg,Red_Plus_Stripes_4.jpg,Blue_Star_Dots_2.jpg,right,693.8399999926332,true,high,NA,NA,NA,NA,NA,NA,NA,false
e1dUSFNT,3zvpamtjxqgf8kd3gsoqdmjsr77grt,32eyx73oy4m00mcsrzi96lgbeeiru3,e1dUSFNT,2020-0188,2020-11-21,23:17:16,23:52:38,NA,incomplete,194,number,1,right,Blue_Circle_Dots_2.jpg,Green_Plus_Dots_3.jpg,Purple_Star_Chess_2.jpg,right,728.8599999737926,true,high,NA,NA,NA,NA,NA,NA,NA,false
e1dUSFNT,3zvpamtjxqgf8kd3gsoqdmjsr77grt,32eyx73oy4m00mcsrzi96lgbeeiru3,e1dUSFNT,2020-0188,2020-11-21,23:17:16,23:52:38,NA,incomplete,195,number,1,left,Red_Plus_Dots_1.jpg,Blue_Star_Grid_1.jpg,Green_Circle_Dots_2.jpg,left,679.6700000122655,true,high,NA,NA,NA,NA,NA,NA,NA,false
e1dUSFNT,3zvpamtjxqgf8kd3gsoqdmjsr77grt,32eyx73oy4m00mcsrzi96lgbeeiru3,e1dUSFNT,2020-0188,2020-11-21,23:17:16,23:52:38,NA,incomplete,196,number,1,left,Blue_Circle_Stripes_2.jpg,Green_Triangle_Chess_2.jpg,Red_Star_Stripes_4.jpg,left,725.2950000111014,true,high,NA,NA,NA,NA,NA,NA,NA,false
e1dUSFNT,3zvpamtjxqgf8kd3gsoqdmjsr77grt,32eyx73oy4m00mcsrzi96lgbeeiru3,e1dUSFNT,2020-0188,2020-11-21,23:17:16,23:52:38,NA,incomplete,197,number,1,left,Blue_Circle_Dots_1.jpg,Green_Triangle_Chess_1.jpg,Purple_Star_Dots_2.jpg,left,601.3950000051409,true,high,NA,NA,NA,NA,NA,NA,NA,false
e1dUSFNT,3zvpamtjxqgf8kd3gsoqdmjsr77grt,32eyx73oy4m00mcsrzi96lgbeeiru3,e1dUSFNT,2020-0188,2020-11-21,23:17:16,23:52:38,NA,incomplete,198,number,1,left,Green_Triangle_Grid_1.jpg,Purple_Star_Chess_1.jpg,Blue_Circle_Grid_3.jpg,left,698.8249999994878,true,high,NA,NA,NA,NA,NA,NA,NA,false
e1dUSFNT,3zvpamtjxqgf8kd3gsoqdmjsr77grt,32eyx73oy4m00mcsrzi96lgbeeiru3,e1dUSFNT,2020-0188,2020-11-21,23:17:16,23:52:38,NA,incomplete,199,number,1,left,Purple_Triangle_Grid_3.jpg,Green_Circle_Stripes_3.jpg,Blue_Plus_Grid_4.jpg,left,912.7000000153203,true,high,NA,NA,NA,NA,NA,NA,NA,false
e1dUSFNT,3zvpamtjxqgf8kd3gsoqdmjsr77grt,32eyx73oy4m00mcsrzi96lgbeeiru3,e1dUSFNT,2020-0188,2020-11-21,23:17:16,23:52:38,NA,incomplete,200,filling,0,left,Red_Plus_Dots_2.jpg,Purple_Star_Dots_1.jpg,Blue_Circle_Grid_2.jpg,right,872.269999992568,false,high,NA,NA,NA,NA,NA,NA,NA,false
e1dUSFNT,3zvpamtjxqgf8kd3gsoqdmjsr77grt,32eyx73oy4m00mcsrzi96lgbeeiru3,e1dUSFNT,2020-0188,2020-11-21,23:17:16,23:52:38,NA,incomplete,201,filling,1,left,Red_Star_Dots_2.jpg,Blue_Triangle_Dots_4.jpg,Purple_Circle_Stripes_2.jpg,right,654.6500000113156,false,high,NA,NA,NA,NA,NA,NA,NA,false
e1dUSFNT,3zvpamtjxqgf8kd3gsoqdmjsr77grt,32eyx73oy4m00mcsrzi96lgbeeiru3,e1dUSFNT,2020-0188,2020-11-21,23:17:16,23:52:38,NA,incomplete,202,filling,0,right,Green_Circle_Stripes_2.jpg,Purple_Triangle_Grid_2.jpg,Red_Star_Stripes_4.jpg,left,821.830000000773,false,high,NA,NA,NA,NA,NA,NA,NA,false
e1dUSFNT,3zvpamtjxqgf8kd3gsoqdmjsr77grt,32eyx73oy4m00mcsrzi96lgbeeiru3,e1dUSFNT,2020-0188,2020-11-21,23:17:16,23:52:38,NA,incomplete,203,filling,1,right,Blue_Plus_Grid_4.jpg,Red_Star_Stripes_4.jpg,Purple_Circle_Grid_3.jpg,left,916.0449999908451,false,high,NA,NA,NA,NA,NA,NA,NA,false
e1dUSFNT,3zvpamtjxqgf8kd3gsoqdmjsr77grt,32eyx73oy4m00mcsrzi96lgbeeiru3,e1dUSFNT,2020-0188,2020-11-21,23:17:16,23:52:38,NA,incomplete,204,filling,1,left,Red_Star_Grid_2.jpg,Purple_Plus_Grid_4.jpg,Green_Triangle_Chess_2.jpg,right,834.5149999950081,false,high,NA,NA,NA,NA,NA,NA,NA,false
e1dUSFNT,3zvpamtjxqgf8kd3gsoqdmjsr77grt,32eyx73oy4m00mcsrzi96lgbeeiru3,e1dUSFNT,2020-0188,2020-11-21,23:17:16,23:52:38,NA,incomplete,205,filling,1,right,Blue_Star_Stripes_2.jpg,Green_Circle_Grid_2.jpg,Red_Plus_Stripes_4.jpg,right,1025.2299999992829,true,high,NA,NA,NA,NA,NA,NA,NA,false
e1dUSFNT,3zvpamtjxqgf8kd3gsoqdmjsr77grt,32eyx73oy4m00mcsrzi96lgbeeiru3,e1dUSFNT,2020-0188,2020-11-21,23:17:16,23:52:38,NA,incomplete,206,filling,1,left,Green_Circle_Grid_4.jpg,Purple_Plus_Grid_3.jpg,Blue_Star_Dots_4.jpg,left,1034.0200000209734,true,high,NA,NA,NA,NA,NA,NA,NA,false
e1dUSFNT,3zvpamtjxqgf8kd3gsoqdmjsr77grt,32eyx73oy4m00mcsrzi96lgbeeiru3,e1dUSFNT,2020-0188,2020-11-21,23:17:16,23:52:38,NA,incomplete,207,filling,1,left,Purple_Plus_Chess_4.jpg,Blue_Circle_Chess_2.jpg,Green_Star_Dots_4.jpg,left,959.9100000050385,true,high,NA,NA,NA,NA,NA,NA,NA,false
e1dUSFNT,3zvpamtjxqgf8kd3gsoqdmjsr77grt,32eyx73oy4m00mcsrzi96lgbeeiru3,e1dUSFNT,2020-0188,2020-11-21,23:17:16,23:52:38,NA,incomplete,208,filling,0,left,Blue_Star_Grid_2.jpg,Green_Triangle_Grid_3.jpg,Red_Plus_Stripes_2.jpg,left,1033.785000006901,true,high,NA,NA,NA,NA,NA,NA,NA,false
e1dUSFNT,3zvpamtjxqgf8kd3gsoqdmjsr77grt,32eyx73oy4m00mcsrzi96lgbeeiru3,e1dUSFNT,2020-0188,2020-11-21,23:17:16,23:52:38,NA,incomplete,209,filling,1,left,Purple_Circle_Dots_1.jpg,Green_Star_Dots_3.jpg,Red_Triangle_Chess_1.jpg,left,976.6749999835156,true,high,NA,NA,NA,NA,NA,NA,NA,false
e1dUSFNT,3zvpamtjxqgf8kd3gsoqdmjsr77grt,32eyx73oy4m00mcsrzi96lgbeeiru3,e1dUSFNT,2020-0188,2020-11-21,23:17:16,23:52:38,NA,incomplete,210,filling,1,right,Blue_Star_Grid_4.jpg,Red_Circle_Dots_4.jpg,Green_Plus_Grid_3.jpg,right,931.0100000002421,true,high,NA,NA,NA,NA,NA,NA,NA,false
e1dUSFNT,3zvpamtjxqgf8kd3gsoqdmjsr77grt,32eyx73oy4m00mcsrzi96lgbeeiru3,e1dUSFNT,2020-0188,2020-11-21,23:17:16,23:52:38,NA,incomplete,211,filling,1,left,Green_Circle_Dots_1.jpg,Red_Plus_Dots_2.jpg,Purple_Star_Grid_1.jpg,left,892.2599999932572,true,high,NA,NA,NA,NA,NA,NA,NA,false
e1dUSFNT,3zvpamtjxqgf8kd3gsoqdmjsr77grt,32eyx73oy4m00mcsrzi96lgbeeiru3,e1dUSFNT,2020-0188,2020-11-21,23:17:16,23:52:38,NA,incomplete,212,filling,0,right,Green_Star_Dots_1.jpg,Red_Plus_Grid_1.jpg,Blue_Circle_Dots_3.jpg,right,1029.065000009723,true,high,NA,NA,NA,NA,NA,NA,NA,false
e1dUSFNT,3zvpamtjxqgf8kd3gsoqdmjsr77grt,32eyx73oy4m00mcsrzi96lgbeeiru3,e1dUSFNT,2020-0188,2020-11-21,23:17:16,23:52:38,NA,incomplete,213,filling,1,left,Red_Triangle_Chess_1.jpg,Green_Plus_Chess_4.jpg,Purple_Circle_Stripes_1.jpg,left,903.5450000083074,true,high,NA,NA,NA,NA,NA,NA,NA,false
e1dUSFNT,3zvpamtjxqgf8kd3gsoqdmjsr77grt,32eyx73oy4m00mcsrzi96lgbeeiru3,e1dUSFNT,2020-0188,2020-11-21,23:17:16,23:52:38,NA,incomplete,214,filling,1,right,Red_Plus_Dots_3.jpg,Blue_Circle_Chess_3.jpg,Purple_Star_Dots_4.jpg,right,1047.454999992624,true,high,NA,NA,NA,NA,NA,NA,NA,false
e1dUSFNT,3zvpamtjxqgf8kd3gsoqdmjsr77grt,32eyx73oy4m00mcsrzi96lgbeeiru3,e1dUSFNT,2020-0188,2020-11-21,23:17:16,23:52:38,NA,incomplete,215,filling,1,left,Purple_Star_Dots_1.jpg,Red_Triangle_Dots_2.jpg,Green_Plus_Stripes_1.jpg,left,914.3800000019837,true,high,NA,NA,NA,NA,NA,NA,NA,false
e1dUSFNT,3zvpamtjxqgf8kd3gsoqdmjsr77grt,32eyx73oy4m00mcsrzi96lgbeeiru3,e1dUSFNT,2020-0188,2020-11-21,23:17:16,23:52:38,NA,incomplete,216,filling,1,left,Green_Circle_Stripes_1.jpg,Red_Star_Stripes_3.jpg,Blue_Triangle_Chess_1.jpg,left,1093.1900000141468,true,high,NA,NA,NA,NA,NA,NA,NA,false
e1dUSFNT,3zvpamtjxqgf8kd3gsoqdmjsr77grt,32eyx73oy4m00mcsrzi96lgbeeiru3,e1dUSFNT,2020-0188,2020-11-21,23:17:16,23:52:38,NA,incomplete,217,filling,1,right,Green_Plus_Stripes_4.jpg,Red_Triangle_Chess_4.jpg,Blue_Circle_Stripes_1.jpg,right,1034.6449999778997,true,high,NA,NA,NA,NA,NA,NA,NA,false
e1dUSFNT,3zvpamtjxqgf8kd3gsoqdmjsr77grt,32eyx73oy4m00mcsrzi96lgbeeiru3,e1dUSFNT,2020-0188,2020-11-21,23:17:16,23:52:38,NA,incomplete,218,filling,0,left,Green_Circle_Stripes_4.jpg,Blue_Triangle_Stripes_1.jpg,Red_Plus_Grid_4.jpg,left,981.5850000013597,true,high,NA,NA,NA,NA,NA,NA,NA,false
e1dUSFNT,3zvpamtjxqgf8kd3gsoqdmjsr77grt,32eyx73oy4m00mcsrzi96lgbeeiru3,e1dUSFNT,2020-0188,2020-11-21,23:17:16,23:52:38,NA,incomplete,219,filling,1,left,Green_Triangle_Chess_1.jpg,Red_Star_Chess_4.jpg,Purple_Circle_Grid_1.jpg,left,1046.1749999958556,true,high,NA,NA,NA,NA,NA,NA,NA,false
e1dUSFNT,3zvpamtjxqgf8kd3gsoqdmjsr77grt,32eyx73oy4m00mcsrzi96lgbeeiru3,e1dUSFNT,2020-0188,2020-11-21,23:17:16,23:52:38,NA,incomplete,220,number,0,right,Purple_Triangle_Stripes_3.jpg,Green_Plus_Stripes_4.jpg,Red_Star_Grid_3.jpg,left,981.2650000094436,false,high,NA,NA,NA,NA,NA,NA,NA,false
e1dUSFNT,3zvpamtjxqgf8kd3gsoqdmjsr77grt,32eyx73oy4m00mcsrzi96lgbeeiru3,e1dUSFNT,2020-0188,2020-11-21,23:17:16,23:52:38,NA,incomplete,221,number,1,left,Red_Circle_Grid_4.jpg,Green_Plus_Stripes_4.jpg,Purple_Triangle_Grid_2.jpg,right,1468.1350000028033,false,high,NA,NA,NA,NA,NA,NA,NA,false
e1dUSFNT,3zvpamtjxqgf8kd3gsoqdmjsr77grt,32eyx73oy4m00mcsrzi96lgbeeiru3,e1dUSFNT,2020-0188,2020-11-21,23:17:16,23:52:38,NA,incomplete,222,number,0,right,Purple_Triangle_Dots_4.jpg,Red_Star_Dots_1.jpg,Green_Plus_Chess_4.jpg,left,1035.0150000012945,false,high,NA,NA,NA,NA,NA,NA,NA,false
e1dUSFNT,3zvpamtjxqgf8kd3gsoqdmjsr77grt,32eyx73oy4m00mcsrzi96lgbeeiru3,e1dUSFNT,2020-0188,2020-11-21,23:17:16,23:52:38,NA,incomplete,223,number,1,left,Red_Circle_Chess_1.jpg,Green_Star_Dots_1.jpg,Purple_Triangle_Chess_4.jpg,right,975.1649999816436,false,high,NA,NA,NA,NA,NA,NA,NA,false
e1dUSFNT,3zvpamtjxqgf8kd3gsoqdmjsr77grt,32eyx73oy4m00mcsrzi96lgbeeiru3,e1dUSFNT,2020-0188,2020-11-21,23:17:16,23:52:38,NA,incomplete,224,number,1,right,Green_Plus_Stripes_1.jpg,Purple_Circle_Stripes_3.jpg,Blue_Triangle_Chess_1.jpg,left,892.3949999734759,false,high,NA,NA,NA,NA,NA,NA,NA,false
e1dUSFNT,3zvpamtjxqgf8kd3gsoqdmjsr77grt,32eyx73oy4m00mcsrzi96lgbeeiru3,e1dUSFNT,2020-0188,2020-11-21,23:17:16,23:52:38,NA,incomplete,225,number,1,right,Blue_Star_Chess_3.jpg,Purple_Plus_Chess_1.jpg,Red_Circle_Grid_3.jpg,right,734.5950000162702,true,high,NA,NA,NA,NA,NA,NA,NA,false
e1dUSFNT,3zvpamtjxqgf8kd3gsoqdmjsr77grt,32eyx73oy4m00mcsrzi96lgbeeiru3,e1dUSFNT,2020-0188,2020-11-21,23:17:16,23:52:38,NA,incomplete,226,number,0,left,Purple_Star_Dots_4.jpg,Red_Plus_Chess_4.jpg,Blue_Triangle_Dots_1.jpg,left,581.979999988107,true,high,NA,NA,NA,NA,NA,NA,NA,false
e1dUSFNT,3zvpamtjxqgf8kd3gsoqdmjsr77grt,32eyx73oy4m00mcsrzi96lgbeeiru3,e1dUSFNT,2020-0188,2020-11-21,23:17:16,23:52:38,NA,incomplete,227,number,1,left,Green_Star_Dots_1.jpg,Purple_Circle_Grid_1.jpg,Red_Plus_Dots_4.jpg,left,655.5150000203867,true,high,NA,NA,NA,NA,NA,NA,NA,false
e1dUSFNT,3zvpamtjxqgf8kd3gsoqdmjsr77grt,32eyx73oy4m00mcsrzi96lgbeeiru3,e1dUSFNT,2020-0188,2020-11-21,23:17:16,23:52:38,NA,incomplete,228,number,1,left,Purple_Plus_Stripes_2.jpg,Blue_Star_Grid_2.jpg,Green_Triangle_Stripes_1.jpg,left,719.3250000127591,true,high,NA,NA,NA,NA,NA,NA,NA,false
e1dUSFNT,3zvpamtjxqgf8kd3gsoqdmjsr77grt,32eyx73oy4m00mcsrzi96lgbeeiru3,e1dUSFNT,2020-0188,2020-11-21,23:17:16,23:52:38,NA,incomplete,229,number,1,right,Red_Circle_Grid_2.jpg,Purple_Triangle_Grid_1.jpg,Blue_Plus_Dots_2.jpg,right,791.4999999920838,true,high,NA,NA,NA,NA,NA,NA,NA,false
e1dUSFNT,3zvpamtjxqgf8kd3gsoqdmjsr77grt,32eyx73oy4m00mcsrzi96lgbeeiru3,e1dUSFNT,2020-0188,2020-11-21,23:17:16,23:52:38,NA,incomplete,230,number,1,right,Blue_Star_Dots_3.jpg,Purple_Circle_Dots_4.jpg,Red_Plus_Stripes_3.jpg,right,657.870000024559,true,high,NA,NA,NA,NA,NA,NA,NA,false
e1dUSFNT,3zvpamtjxqgf8kd3gsoqdmjsr77grt,32eyx73oy4m00mcsrzi96lgbeeiru3,e1dUSFNT,2020-0188,2020-11-21,23:17:16,23:52:38,NA,incomplete,231,number,0,right,Green_Plus_Stripes_2.jpg,Red_Triangle_Stripes_4.jpg,Blue_Circle_Dots_2.jpg,right,1184.2049999977462,true,high,NA,NA,NA,NA,NA,NA,NA,false
e1dUSFNT,3zvpamtjxqgf8kd3gsoqdmjsr77grt,32eyx73oy4m00mcsrzi96lgbeeiru3,e1dUSFNT,2020-0188,2020-11-21,23:17:16,23:52:38,NA,incomplete,232,number,1,left,Blue_Star_Chess_1.jpg,Purple_Circle_Stripes_1.jpg,Red_Triangle_Chess_3.jpg,left,701.0700000100769,true,high,NA,NA,NA,NA,NA,NA,NA,false
e1dUSFNT,3zvpamtjxqgf8kd3gsoqdmjsr77grt,32eyx73oy4m00mcsrzi96lgbeeiru3,e1dUSFNT,2020-0188,2020-11-21,23:17:16,23:52:38,NA,incomplete,233,number,1,right,Red_Star_Grid_3.jpg,Purple_Circle_Grid_4.jpg,Blue_Triangle_Chess_3.jpg,right,958.9350000023842,true,high,NA,NA,NA,NA,NA,NA,NA,false
e1dUSFNT,3zvpamtjxqgf8kd3gsoqdmjsr77grt,32eyx73oy4m00mcsrzi96lgbeeiru3,e1dUSFNT,2020-0188,2020-11-21,23:17:16,23:52:38,NA,incomplete,234,number,1,right,Blue_Triangle_Chess_4.jpg,Green_Star_Chess_3.jpg,Red_Plus_Grid_4.jpg,right,854.9050000146963,true,high,NA,NA,NA,NA,NA,NA,NA,false
e1dUSFNT,3zvpamtjxqgf8kd3gsoqdmjsr77grt,32eyx73oy4m00mcsrzi96lgbeeiru3,e1dUSFNT,2020-0188,2020-11-21,23:17:16,23:52:38,NA,incomplete,235,number,0,right,Blue_Plus_Grid_1.jpg,Red_Triangle_Grid_4.jpg,Purple_Star_Dots_1.jpg,right,623.4650000114925,true,high,NA,NA,NA,NA,NA,NA,NA,false
e1dUSFNT,3zvpamtjxqgf8kd3gsoqdmjsr77grt,32eyx73oy4m00mcsrzi96lgbeeiru3,e1dUSFNT,2020-0188,2020-11-21,23:17:16,23:52:38,NA,incomplete,236,number,1,left,Red_Plus_Chess_4.jpg,Purple_Triangle_Grid_4.jpg,Blue_Circle_Chess_2.jpg,left,739.6650000009686,true,high,NA,NA,NA,NA,NA,NA,NA,false
e1dUSFNT,3zvpamtjxqgf8kd3gsoqdmjsr77grt,32eyx73oy4m00mcsrzi96lgbeeiru3,e1dUSFNT,2020-0188,2020-11-21,23:17:16,23:52:38,NA,incomplete,237,number,1,right,Purple_Triangle_Grid_2.jpg,Blue_Star_Grid_1.jpg,Red_Plus_Chess_2.jpg,right,731.4149999874644,true,high,NA,NA,NA,NA,NA,NA,NA,false
e1dUSFNT,3zvpamtjxqgf8kd3gsoqdmjsr77grt,32eyx73oy4m00mcsrzi96lgbeeiru3,e1dUSFNT,2020-0188,2020-11-21,23:17:16,23:52:38,NA,incomplete,238,number,1,right,Red_Plus_Chess_1.jpg,Purple_Star_Chess_3.jpg,Blue_Circle_Grid_1.jpg,right,711.1049999948591,true,high,NA,NA,NA,NA,NA,NA,NA,false
e1dUSFNT,3zvpamtjxqgf8kd3gsoqdmjsr77grt,32eyx73oy4m00mcsrzi96lgbeeiru3,e1dUSFNT,2020-0188,2020-11-21,23:17:16,23:52:38,NA,incomplete,239,number,1,right,Green_Star_Grid_4.jpg,Red_Triangle_Grid_1.jpg,Blue_Plus_Chess_4.jpg,right,627.8949999832548,true,high,NA,NA,NA,NA,NA,NA,NA,false
e1dUSFNT,3zvpamtjxqgf8kd3gsoqdmjsr77grt,32eyx73oy4m00mcsrzi96lgbeeiru3,e1dUSFNT,2020-0188,2020-11-21,23:17:16,23:52:38,2069729.8250000167,2127682.1100000236,NA,NA,NA,NA,NA,NA,NA,NA,NA,NA,NA,40,Black/African American,Male,Multiple Ethnicities,no,yes,no,undefined
