workerId,hitId,assignmentId,subject,studyid,exp_date,exp_start,exp_end,time_start,time_end,trial,type,reward_validity,answer,image_top,image_left,image_right,response,response_time,response_acc,volatility,practice
qFDa7Mt6,3fhtjgyt9qduw7xo30k18rjdqjggpm,32q90qcq1wyxom2bbfu71r8uvj1kex,qFDa7Mt6,2020-0188,2020-11-15,01:10:30,01:32:19,NA,incomplete,0,shape,1,left,Red_Star_Chess_1.jpg,Purple_Star_Stripes_4.jpg,Green_Plus_Grid_1.jpg,left,983,true,NA,true
qFDa7Mt6,3fhtjgyt9qduw7xo30k18rjdqjggpm,32q90qcq1wyxom2bbfu71r8uvj1kex,qFDa7Mt6,2020-0188,2020-11-15,01:10:30,01:32:19,NA,incomplete,1,shape,1,right,Purple_Triangle_Grid_3.jpg,Green_Circle_Chess_3.jpg,Blue_Triangle_Dots_1.jpg,right,697,true,NA,true
qFDa7Mt6,3fhtjgyt9qduw7xo30k18rjdqjggpm,32q90qcq1wyxom2bbfu71r8uvj1kex,qFDa7Mt6,2020-0188,2020-11-15,01:10:30,01:32:19,NA,incomplete,2,shape,1,right,Green_Star_Dots_2.jpg,Purple_Circle_Grid_2.jpg,Red_Star_Chess_1.jpg,right,665,true,NA,true
qFDa7Mt6,3fhtjgyt9qduw7xo30k18rjdqjggpm,32q90qcq1wyxom2bbfu71r8uvj1kex,qFDa7Mt6,2020-0188,2020-11-15,01:10:30,01:32:19,NA,incomplete,3,shape,1,left,Red_Star_Chess_3.jpg,Purple_Star_Grid_2.jpg,Green_Circle_Dots_3.jpg,left,724,true,NA,true
qFDa7Mt6,3fhtjgyt9qduw7xo30k18rjdqjggpm,32q90qcq1wyxom2bbfu71r8uvj1kex,qFDa7Mt6,2020-0188,2020-11-15,01:10:30,01:32:19,NA,incomplete,4,shape,0,right,Green_Triangle_Grid_4.jpg,Purple_Circle_Stripes_4.jpg,Blue_Triangle_Dots_3.jpg,right,736,true,NA,true
qFDa7Mt6,3fhtjgyt9qduw7xo30k18rjdqjggpm,32q90qcq1wyxom2bbfu71r8uvj1kex,qFDa7Mt6,2020-0188,2020-11-15,01:10:30,01:32:19,NA,incomplete,5,shape,1,right,Red_Triangle_Stripes_4.jpg,Green_Star_Chess_4.jpg,Purple_Triangle_Grid_2.jpg,right,552,true,NA,true
qFDa7Mt6,3fhtjgyt9qduw7xo30k18rjdqjggpm,32q90qcq1wyxom2bbfu71r8uvj1kex,qFDa7Mt6,2020-0188,2020-11-15,01:10:30,01:32:19,NA,incomplete,6,shape,1,right,Blue_Star_Stripes_1.jpg,Green_Circle_Chess_1.jpg,Purple_Star_Grid_2.jpg,right,756,true,NA,true
qFDa7Mt6,3fhtjgyt9qduw7xo30k18rjdqjggpm,32q90qcq1wyxom2bbfu71r8uvj1kex,qFDa7Mt6,2020-0188,2020-11-15,01:10:30,01:32:19,NA,incomplete,7,shape,1,left,Green_Plus_Dots_3.jpg,Blue_Plus_Grid_1.jpg,Red_Triangle_Stripes_3.jpg,left,787,true,NA,true
qFDa7Mt6,3fhtjgyt9qduw7xo30k18rjdqjggpm,32q90qcq1wyxom2bbfu71r8uvj1kex,qFDa7Mt6,2020-0188,2020-11-15,01:10:30,01:32:19,NA,incomplete,8,shape,1,right,Blue_Star_Stripes_1.jpg,Red_Triangle_Dots_1.jpg,Purple_Star_Grid_2.jpg,right,773,true,NA,true
qFDa7Mt6,3fhtjgyt9qduw7xo30k18rjdqjggpm,32q90qcq1wyxom2bbfu71r8uvj1kex,qFDa7Mt6,2020-0188,2020-11-15,01:10:30,01:32:19,NA,incomplete,9,shape,1,left,Blue_Plus_Dots_2.jpg,Purple_Plus_Chess_3.jpg,Red_Triangle_Grid_2.jpg,left,616,true,NA,true
qFDa7Mt6,3fhtjgyt9qduw7xo30k18rjdqjggpm,32q90qcq1wyxom2bbfu71r8uvj1kex,qFDa7Mt6,2020-0188,2020-11-15,01:10:30,01:32:19,NA,incomplete,10,shape,0,left,Purple_Triangle_Dots_2.jpg,Green_Triangle_Stripes_3.jpg,Blue_Star_Grid_2.jpg,left,770,true,NA,true
qFDa7Mt6,3fhtjgyt9qduw7xo30k18rjdqjggpm,32q90qcq1wyxom2bbfu71r8uvj1kex,qFDa7Mt6,2020-0188,2020-11-15,01:10:30,01:32:19,NA,incomplete,11,shape,0,right,Red_Plus_Stripes_1.jpg,Blue_Circle_Grid_1.jpg,Green_Plus_Chess_3.jpg,right,675,true,NA,true
qFDa7Mt6,3fhtjgyt9qduw7xo30k18rjdqjggpm,32q90qcq1wyxom2bbfu71r8uvj1kex,qFDa7Mt6,2020-0188,2020-11-15,01:10:30,01:32:19,NA,incomplete,12,shape,1,left,Blue_Triangle_Dots_2.jpg,Red_Triangle_Stripes_4.jpg,Purple_Circle_Chess_2.jpg,left,649,true,NA,true
qFDa7Mt6,3fhtjgyt9qduw7xo30k18rjdqjggpm,32q90qcq1wyxom2bbfu71r8uvj1kex,qFDa7Mt6,2020-0188,2020-11-15,01:10:30,01:32:19,NA,incomplete,13,shape,1,right,Red_Circle_Dots_2.jpg,Green_Plus_Stripes_2.jpg,Purple_Circle_Chess_1.jpg,right,585,true,NA,true
qFDa7Mt6,3fhtjgyt9qduw7xo30k18rjdqjggpm,32q90qcq1wyxom2bbfu71r8uvj1kex,qFDa7Mt6,2020-0188,2020-11-15,01:10:30,01:32:19,NA,incomplete,14,shape,1,right,Red_Triangle_Chess_1.jpg,Purple_Plus_Dots_1.jpg,Blue_Triangle_Grid_4.jpg,right,590,true,NA,true
qFDa7Mt6,3fhtjgyt9qduw7xo30k18rjdqjggpm,32q90qcq1wyxom2bbfu71r8uvj1kex,qFDa7Mt6,2020-0188,2020-11-15,01:10:30,01:32:19,NA,incomplete,15,shape,1,right,Green_Triangle_Dots_2.jpg,Red_Plus_Chess_2.jpg,Blue_Triangle_Stripes_1.jpg,right,715,true,NA,true
qFDa7Mt6,3fhtjgyt9qduw7xo30k18rjdqjggpm,32q90qcq1wyxom2bbfu71r8uvj1kex,qFDa7Mt6,2020-0188,2020-11-15,01:10:30,01:32:19,NA,incomplete,16,shape,1,left,Green_Triangle_Dots_3.jpg,Red_Triangle_Grid_1.jpg,Blue_Circle_Stripes_3.jpg,left,745,true,NA,true
qFDa7Mt6,3fhtjgyt9qduw7xo30k18rjdqjggpm,32q90qcq1wyxom2bbfu71r8uvj1kex,qFDa7Mt6,2020-0188,2020-11-15,01:10:30,01:32:19,NA,incomplete,17,shape,1,left,Blue_Circle_Chess_3.jpg,Red_Circle_Stripes_2.jpg,Purple_Star_Grid_3.jpg,left,670,true,NA,true
qFDa7Mt6,3fhtjgyt9qduw7xo30k18rjdqjggpm,32q90qcq1wyxom2bbfu71r8uvj1kex,qFDa7Mt6,2020-0188,2020-11-15,01:10:30,01:32:19,NA,incomplete,18,shape,1,left,Red_Circle_Grid_3.jpg,Purple_Circle_Chess_4.jpg,Green_Plus_Dots_3.jpg,left,722,true,NA,true
qFDa7Mt6,3fhtjgyt9qduw7xo30k18rjdqjggpm,32q90qcq1wyxom2bbfu71r8uvj1kex,qFDa7Mt6,2020-0188,2020-11-15,01:10:30,01:32:19,NA,incomplete,19,shape,1,right,Green_Star_Grid_2.jpg,Purple_Plus_Chess_2.jpg,Red_Star_Stripes_4.jpg,right,936,true,NA,true
qFDa7Mt6,3fhtjgyt9qduw7xo30k18rjdqjggpm,32q90qcq1wyxom2bbfu71r8uvj1kex,qFDa7Mt6,2020-0188,2020-11-15,01:10:30,01:32:19,NA,incomplete,20,number,1,right,Red_Star_Stripes_3.jpg,Purple_Star_Dots_1.jpg,Green_Circle_Chess_3.jpg,left,684,false,NA,true
qFDa7Mt6,3fhtjgyt9qduw7xo30k18rjdqjggpm,32q90qcq1wyxom2bbfu71r8uvj1kex,qFDa7Mt6,2020-0188,2020-11-15,01:10:30,01:32:19,NA,incomplete,21,number,1,right,Blue_Circle_Stripes_4.jpg,Green_Circle_Chess_1.jpg,Red_Star_Grid_4.jpg,right,641,true,NA,true
qFDa7Mt6,3fhtjgyt9qduw7xo30k18rjdqjggpm,32q90qcq1wyxom2bbfu71r8uvj1kex,qFDa7Mt6,2020-0188,2020-11-15,01:10:30,01:32:19,NA,incomplete,22,number,1,right,Red_Circle_Grid_2.jpg,Blue_Circle_Chess_4.jpg,Purple_Plus_Stripes_2.jpg,right,659,true,NA,true
qFDa7Mt6,3fhtjgyt9qduw7xo30k18rjdqjggpm,32q90qcq1wyxom2bbfu71r8uvj1kex,qFDa7Mt6,2020-0188,2020-11-15,01:10:30,01:32:19,NA,incomplete,23,number,1,right,Green_Circle_Grid_3.jpg,Blue_Circle_Dots_4.jpg,Purple_Plus_Chess_3.jpg,right,785,true,NA,true
qFDa7Mt6,3fhtjgyt9qduw7xo30k18rjdqjggpm,32q90qcq1wyxom2bbfu71r8uvj1kex,qFDa7Mt6,2020-0188,2020-11-15,01:10:30,01:32:19,NA,incomplete,24,number,0,right,Purple_Star_Grid_3.jpg,Blue_Star_Dots_1.jpg,Green_Plus_Stripes_3.jpg,right,725,true,NA,true
qFDa7Mt6,3fhtjgyt9qduw7xo30k18rjdqjggpm,32q90qcq1wyxom2bbfu71r8uvj1kex,qFDa7Mt6,2020-0188,2020-11-15,01:10:30,01:32:19,NA,incomplete,25,number,0,left,Red_Star_Grid_4.jpg,Purple_Circle_Stripes_4.jpg,Blue_Star_Chess_1.jpg,left,592,true,NA,true
qFDa7Mt6,3fhtjgyt9qduw7xo30k18rjdqjggpm,32q90qcq1wyxom2bbfu71r8uvj1kex,qFDa7Mt6,2020-0188,2020-11-15,01:10:30,01:32:19,NA,incomplete,26,number,1,left,Red_Triangle_Grid_3.jpg,Purple_Circle_Chess_3.jpg,Blue_Triangle_Dots_4.jpg,right,647,false,NA,true
qFDa7Mt6,3fhtjgyt9qduw7xo30k18rjdqjggpm,32q90qcq1wyxom2bbfu71r8uvj1kex,qFDa7Mt6,2020-0188,2020-11-15,01:10:30,01:32:19,NA,incomplete,27,number,1,left,Blue_Triangle_Grid_1.jpg,Red_Plus_Chess_1.jpg,Green_Triangle_Stripes_3.jpg,right,818,false,NA,true
qFDa7Mt6,3fhtjgyt9qduw7xo30k18rjdqjggpm,32q90qcq1wyxom2bbfu71r8uvj1kex,qFDa7Mt6,2020-0188,2020-11-15,01:10:30,01:32:19,NA,incomplete,28,number,0,left,Green_Circle_Dots_1.jpg,Blue_Plus_Stripes_1.jpg,Red_Circle_Grid_3.jpg,left,808,true,NA,true
qFDa7Mt6,3fhtjgyt9qduw7xo30k18rjdqjggpm,32q90qcq1wyxom2bbfu71r8uvj1kex,qFDa7Mt6,2020-0188,2020-11-15,01:10:30,01:32:19,NA,incomplete,29,number,1,right,Blue_Triangle_Dots_4.jpg,Green_Triangle_Chess_2.jpg,Red_Circle_Stripes_4.jpg,right,650,true,NA,true
qFDa7Mt6,3fhtjgyt9qduw7xo30k18rjdqjggpm,32q90qcq1wyxom2bbfu71r8uvj1kex,qFDa7Mt6,2020-0188,2020-11-15,01:10:30,01:32:19,NA,incomplete,30,number,1,right,Green_Triangle_Chess_3.jpg,Blue_Triangle_Stripes_4.jpg,Red_Plus_Grid_3.jpg,right,755,true,NA,true
qFDa7Mt6,3fhtjgyt9qduw7xo30k18rjdqjggpm,32q90qcq1wyxom2bbfu71r8uvj1kex,qFDa7Mt6,2020-0188,2020-11-15,01:10:30,01:32:19,NA,incomplete,31,number,1,right,Purple_Star_Dots_2.jpg,Green_Star_Chess_1.jpg,Blue_Plus_Stripes_2.jpg,left,1003,false,NA,true
qFDa7Mt6,3fhtjgyt9qduw7xo30k18rjdqjggpm,32q90qcq1wyxom2bbfu71r8uvj1kex,qFDa7Mt6,2020-0188,2020-11-15,01:10:30,01:32:19,NA,incomplete,32,number,1,left,Red_Plus_Chess_2.jpg,Purple_Triangle_Dots_2.jpg,Green_Plus_Stripes_3.jpg,left,749,true,NA,true
qFDa7Mt6,3fhtjgyt9qduw7xo30k18rjdqjggpm,32q90qcq1wyxom2bbfu71r8uvj1kex,qFDa7Mt6,2020-0188,2020-11-15,01:10:30,01:32:19,NA,incomplete,33,number,1,right,Blue_Triangle_Dots_4.jpg,Green_Triangle_Stripes_3.jpg,Purple_Star_Chess_4.jpg,right,736,true,NA,true
qFDa7Mt6,3fhtjgyt9qduw7xo30k18rjdqjggpm,32q90qcq1wyxom2bbfu71r8uvj1kex,qFDa7Mt6,2020-0188,2020-11-15,01:10:30,01:32:19,NA,incomplete,34,number,0,left,Green_Triangle_Stripes_1.jpg,Purple_Circle_Dots_1.jpg,Blue_Triangle_Grid_2.jpg,left,732,true,NA,true
qFDa7Mt6,3fhtjgyt9qduw7xo30k18rjdqjggpm,32q90qcq1wyxom2bbfu71r8uvj1kex,qFDa7Mt6,2020-0188,2020-11-15,01:10:30,01:32:19,NA,incomplete,35,number,1,right,Red_Star_Grid_3.jpg,Green_Star_Chess_4.jpg,Blue_Plus_Dots_3.jpg,right,721,true,NA,true
qFDa7Mt6,3fhtjgyt9qduw7xo30k18rjdqjggpm,32q90qcq1wyxom2bbfu71r8uvj1kex,qFDa7Mt6,2020-0188,2020-11-15,01:10:30,01:32:19,NA,incomplete,36,number,1,left,Green_Triangle_Stripes_3.jpg,Purple_Plus_Dots_3.jpg,Red_Triangle_Chess_2.jpg,left,703,true,NA,true
qFDa7Mt6,3fhtjgyt9qduw7xo30k18rjdqjggpm,32q90qcq1wyxom2bbfu71r8uvj1kex,qFDa7Mt6,2020-0188,2020-11-15,01:10:30,01:32:19,NA,incomplete,37,number,1,left,Red_Plus_Grid_1.jpg,Blue_Triangle_Dots_1.jpg,Purple_Plus_Stripes_2.jpg,left,541,true,NA,true
qFDa7Mt6,3fhtjgyt9qduw7xo30k18rjdqjggpm,32q90qcq1wyxom2bbfu71r8uvj1kex,qFDa7Mt6,2020-0188,2020-11-15,01:10:30,01:32:19,NA,incomplete,38,number,0,right,Red_Star_Dots_4.jpg,Purple_Star_Stripes_3.jpg,Green_Plus_Chess_4.jpg,right,726,true,NA,true
qFDa7Mt6,3fhtjgyt9qduw7xo30k18rjdqjggpm,32q90qcq1wyxom2bbfu71r8uvj1kex,qFDa7Mt6,2020-0188,2020-11-15,01:10:30,01:32:19,NA,incomplete,39,number,1,right,Blue_Plus_Chess_1.jpg,Green_Plus_Grid_4.jpg,Purple_Circle_Stripes_1.jpg,right,654,true,NA,true
qFDa7Mt6,3fhtjgyt9qduw7xo30k18rjdqjggpm,32q90qcq1wyxom2bbfu71r8uvj1kex,qFDa7Mt6,2020-0188,2020-11-15,01:10:30,01:32:19,NA,incomplete,0,shape,1,right,Green_Star_Grid_2.jpg,Red_Circle_Stripes_2.jpg,Purple_Star_Dots_3.jpg,left,981,false,low,false
qFDa7Mt6,3fhtjgyt9qduw7xo30k18rjdqjggpm,32q90qcq1wyxom2bbfu71r8uvj1kex,qFDa7Mt6,2020-0188,2020-11-15,01:10:30,01:32:19,NA,incomplete,1,shape,1,right,Blue_Star_Grid_3.jpg,Green_Plus_Dots_3.jpg,Red_Star_Stripes_4.jpg,left,874,false,low,false
qFDa7Mt6,3fhtjgyt9qduw7xo30k18rjdqjggpm,32q90qcq1wyxom2bbfu71r8uvj1kex,qFDa7Mt6,2020-0188,2020-11-15,01:10:30,01:32:19,NA,incomplete,2,shape,1,left,Red_Plus_Grid_3.jpg,Green_Plus_Dots_2.jpg,Blue_Triangle_Stripes_3.jpg,right,766,false,low,false
qFDa7Mt6,3fhtjgyt9qduw7xo30k18rjdqjggpm,32q90qcq1wyxom2bbfu71r8uvj1kex,qFDa7Mt6,2020-0188,2020-11-15,01:10:30,01:32:19,NA,incomplete,3,shape,1,left,Green_Plus_Grid_2.jpg,Blue_Plus_Chess_3.jpg,Purple_Triangle_Stripes_2.jpg,right,796,false,low,false
qFDa7Mt6,3fhtjgyt9qduw7xo30k18rjdqjggpm,32q90qcq1wyxom2bbfu71r8uvj1kex,qFDa7Mt6,2020-0188,2020-11-15,01:10:30,01:32:19,NA,incomplete,4,shape,1,left,Red_Plus_Dots_3.jpg,Blue_Plus_Grid_1.jpg,Purple_Circle_Chess_3.jpg,left,706,true,low,false
qFDa7Mt6,3fhtjgyt9qduw7xo30k18rjdqjggpm,32q90qcq1wyxom2bbfu71r8uvj1kex,qFDa7Mt6,2020-0188,2020-11-15,01:10:30,01:32:19,NA,incomplete,5,shape,1,right,Red_Star_Dots_3.jpg,Green_Plus_Chess_3.jpg,Blue_Star_Stripes_4.jpg,left,849,false,low,false
qFDa7Mt6,3fhtjgyt9qduw7xo30k18rjdqjggpm,32q90qcq1wyxom2bbfu71r8uvj1kex,qFDa7Mt6,2020-0188,2020-11-15,01:10:30,01:32:19,NA,incomplete,6,shape,0,left,Blue_Plus_Chess_4.jpg,Red_Plus_Stripes_2.jpg,Green_Star_Grid_4.jpg,right,719,false,low,false
qFDa7Mt6,3fhtjgyt9qduw7xo30k18rjdqjggpm,32q90qcq1wyxom2bbfu71r8uvj1kex,qFDa7Mt6,2020-0188,2020-11-15,01:10:30,01:32:19,NA,incomplete,7,shape,1,right,Green_Circle_Chess_4.jpg,Red_Plus_Stripes_4.jpg,Blue_Circle_Dots_1.jpg,right,895,true,low,false
qFDa7Mt6,3fhtjgyt9qduw7xo30k18rjdqjggpm,32q90qcq1wyxom2bbfu71r8uvj1kex,qFDa7Mt6,2020-0188,2020-11-15,01:10:30,01:32:19,NA,incomplete,8,shape,1,right,Purple_Plus_Grid_2.jpg,Green_Circle_Dots_2.jpg,Blue_Plus_Chess_4.jpg,right,731,true,low,false
qFDa7Mt6,3fhtjgyt9qduw7xo30k18rjdqjggpm,32q90qcq1wyxom2bbfu71r8uvj1kex,qFDa7Mt6,2020-0188,2020-11-15,01:10:30,01:32:19,NA,incomplete,9,shape,1,right,Blue_Circle_Grid_1.jpg,Purple_Star_Stripes_1.jpg,Green_Circle_Chess_4.jpg,right,658,true,low,false
qFDa7Mt6,3fhtjgyt9qduw7xo30k18rjdqjggpm,32q90qcq1wyxom2bbfu71r8uvj1kex,qFDa7Mt6,2020-0188,2020-11-15,01:10:30,01:32:19,NA,incomplete,10,shape,1,left,Green_Circle_Stripes_4.jpg,Blue_Circle_Chess_3.jpg,Purple_Star_Dots_4.jpg,left,702,true,low,false
qFDa7Mt6,3fhtjgyt9qduw7xo30k18rjdqjggpm,32q90qcq1wyxom2bbfu71r8uvj1kex,qFDa7Mt6,2020-0188,2020-11-15,01:10:30,01:32:19,NA,incomplete,11,shape,1,left,Purple_Circle_Chess_4.jpg,Red_Circle_Stripes_3.jpg,Blue_Star_Grid_4.jpg,right,668,false,low,false
qFDa7Mt6,3fhtjgyt9qduw7xo30k18rjdqjggpm,32q90qcq1wyxom2bbfu71r8uvj1kex,qFDa7Mt6,2020-0188,2020-11-15,01:10:30,01:32:19,NA,incomplete,12,shape,0,right,Green_Star_Chess_2.jpg,Red_Circle_Dots_2.jpg,Purple_Star_Stripes_3.jpg,right,676,true,low,false
qFDa7Mt6,3fhtjgyt9qduw7xo30k18rjdqjggpm,32q90qcq1wyxom2bbfu71r8uvj1kex,qFDa7Mt6,2020-0188,2020-11-15,01:10:30,01:32:19,NA,incomplete,13,shape,1,right,Purple_Triangle_Dots_1.jpg,Red_Plus_Grid_1.jpg,Blue_Triangle_Chess_4.jpg,right,720,true,low,false
qFDa7Mt6,3fhtjgyt9qduw7xo30k18rjdqjggpm,32q90qcq1wyxom2bbfu71r8uvj1kex,qFDa7Mt6,2020-0188,2020-11-15,01:10:30,01:32:19,NA,incomplete,14,shape,1,left,Purple_Star_Stripes_3.jpg,Blue_Star_Chess_2.jpg,Red_Circle_Dots_3.jpg,right,871,false,low,false
qFDa7Mt6,3fhtjgyt9qduw7xo30k18rjdqjggpm,32q90qcq1wyxom2bbfu71r8uvj1kex,qFDa7Mt6,2020-0188,2020-11-15,01:10:30,01:32:19,NA,incomplete,15,shape,0,right,Purple_Triangle_Dots_4.jpg,Blue_Star_Chess_4.jpg,Red_Triangle_Stripes_3.jpg,right,635,true,low,false
qFDa7Mt6,3fhtjgyt9qduw7xo30k18rjdqjggpm,32q90qcq1wyxom2bbfu71r8uvj1kex,qFDa7Mt6,2020-0188,2020-11-15,01:10:30,01:32:19,NA,incomplete,16,shape,0,left,Blue_Triangle_Grid_1.jpg,Green_Triangle_Stripes_4.jpg,Red_Plus_Chess_1.jpg,left,796,true,low,false
qFDa7Mt6,3fhtjgyt9qduw7xo30k18rjdqjggpm,32q90qcq1wyxom2bbfu71r8uvj1kex,qFDa7Mt6,2020-0188,2020-11-15,01:10:30,01:32:19,NA,incomplete,17,shape,1,left,Purple_Circle_Chess_4.jpg,Blue_Circle_Stripes_2.jpg,Red_Plus_Grid_4.jpg,right,1092,false,low,false
qFDa7Mt6,3fhtjgyt9qduw7xo30k18rjdqjggpm,32q90qcq1wyxom2bbfu71r8uvj1kex,qFDa7Mt6,2020-0188,2020-11-15,01:10:30,01:32:19,NA,incomplete,18,shape,0,left,Blue_Circle_Grid_4.jpg,Red_Circle_Stripes_1.jpg,Purple_Plus_Chess_4.jpg,left,875,true,low,false
qFDa7Mt6,3fhtjgyt9qduw7xo30k18rjdqjggpm,32q90qcq1wyxom2bbfu71r8uvj1kex,qFDa7Mt6,2020-0188,2020-11-15,01:10:30,01:32:19,NA,incomplete,19,shape,0,right,Green_Plus_Grid_4.jpg,Red_Circle_Chess_4.jpg,Purple_Plus_Dots_3.jpg,right,787,true,low,false
qFDa7Mt6,3fhtjgyt9qduw7xo30k18rjdqjggpm,32q90qcq1wyxom2bbfu71r8uvj1kex,qFDa7Mt6,2020-0188,2020-11-15,01:10:30,01:32:19,NA,incomplete,20,shape,1,left,Blue_Circle_Grid_1.jpg,Red_Circle_Dots_2.jpg,Green_Triangle_Chess_1.jpg,right,769,false,low,false
qFDa7Mt6,3fhtjgyt9qduw7xo30k18rjdqjggpm,32q90qcq1wyxom2bbfu71r8uvj1kex,qFDa7Mt6,2020-0188,2020-11-15,01:10:30,01:32:19,NA,incomplete,21,shape,1,left,Purple_Triangle_Dots_1.jpg,Blue_Triangle_Chess_2.jpg,Green_Plus_Grid_1.jpg,right,1048,false,low,false
qFDa7Mt6,3fhtjgyt9qduw7xo30k18rjdqjggpm,32q90qcq1wyxom2bbfu71r8uvj1kex,qFDa7Mt6,2020-0188,2020-11-15,01:10:30,01:32:19,NA,incomplete,22,shape,1,right,Red_Plus_Dots_1.jpg,Purple_Star_Grid_1.jpg,Blue_Plus_Chess_2.jpg,right,779,true,low,false
qFDa7Mt6,3fhtjgyt9qduw7xo30k18rjdqjggpm,32q90qcq1wyxom2bbfu71r8uvj1kex,qFDa7Mt6,2020-0188,2020-11-15,01:10:30,01:32:19,NA,incomplete,23,shape,1,left,Red_Star_Stripes_3.jpg,Purple_Star_Chess_2.jpg,Blue_Triangle_Grid_3.jpg,right,802,false,low,false
qFDa7Mt6,3fhtjgyt9qduw7xo30k18rjdqjggpm,32q90qcq1wyxom2bbfu71r8uvj1kex,qFDa7Mt6,2020-0188,2020-11-15,01:10:30,01:32:19,NA,incomplete,24,shape,1,right,Green_Circle_Grid_2.jpg,Blue_Plus_Dots_2.jpg,Purple_Circle_Chess_1.jpg,right,630,true,low,false
qFDa7Mt6,3fhtjgyt9qduw7xo30k18rjdqjggpm,32q90qcq1wyxom2bbfu71r8uvj1kex,qFDa7Mt6,2020-0188,2020-11-15,01:10:30,01:32:19,NA,incomplete,25,shape,1,left,Purple_Circle_Chess_1.jpg,Blue_Circle_Stripes_4.jpg,Red_Plus_Dots_1.jpg,right,788,false,low,false
qFDa7Mt6,3fhtjgyt9qduw7xo30k18rjdqjggpm,32q90qcq1wyxom2bbfu71r8uvj1kex,qFDa7Mt6,2020-0188,2020-11-15,01:10:30,01:32:19,NA,incomplete,26,shape,1,left,Red_Plus_Dots_3.jpg,Purple_Plus_Chess_1.jpg,Blue_Circle_Stripes_3.jpg,right,673,false,low,false
qFDa7Mt6,3fhtjgyt9qduw7xo30k18rjdqjggpm,32q90qcq1wyxom2bbfu71r8uvj1kex,qFDa7Mt6,2020-0188,2020-11-15,01:10:30,01:32:19,NA,incomplete,27,shape,0,left,Green_Triangle_Grid_3.jpg,Red_Triangle_Chess_2.jpg,Blue_Plus_Stripes_3.jpg,left,677,true,low,false
qFDa7Mt6,3fhtjgyt9qduw7xo30k18rjdqjggpm,32q90qcq1wyxom2bbfu71r8uvj1kex,qFDa7Mt6,2020-0188,2020-11-15,01:10:30,01:32:19,NA,incomplete,28,shape,1,right,Red_Triangle_Dots_3.jpg,Blue_Circle_Chess_3.jpg,Purple_Triangle_Stripes_4.jpg,right,770,true,low,false
qFDa7Mt6,3fhtjgyt9qduw7xo30k18rjdqjggpm,32q90qcq1wyxom2bbfu71r8uvj1kex,qFDa7Mt6,2020-0188,2020-11-15,01:10:30,01:32:19,NA,incomplete,29,shape,1,right,Blue_Triangle_Chess_3.jpg,Purple_Circle_Grid_3.jpg,Green_Triangle_Dots_4.jpg,right,616,true,low,false
qFDa7Mt6,3fhtjgyt9qduw7xo30k18rjdqjggpm,32q90qcq1wyxom2bbfu71r8uvj1kex,qFDa7Mt6,2020-0188,2020-11-15,01:10:30,01:32:19,NA,incomplete,30,number,1,right,Purple_Triangle_Stripes_3.jpg,Red_Triangle_Grid_2.jpg,Blue_Circle_Dots_3.jpg,left,765,false,low,false
qFDa7Mt6,3fhtjgyt9qduw7xo30k18rjdqjggpm,32q90qcq1wyxom2bbfu71r8uvj1kex,qFDa7Mt6,2020-0188,2020-11-15,01:10:30,01:32:19,NA,incomplete,31,number,0,left,Red_Plus_Stripes_3.jpg,Green_Star_Grid_3.jpg,Purple_Plus_Dots_2.jpg,right,720,false,low,false
qFDa7Mt6,3fhtjgyt9qduw7xo30k18rjdqjggpm,32q90qcq1wyxom2bbfu71r8uvj1kex,qFDa7Mt6,2020-0188,2020-11-15,01:10:30,01:32:19,NA,incomplete,32,number,1,right,Green_Plus_Stripes_2.jpg,Blue_Plus_Chess_4.jpg,Red_Star_Grid_2.jpg,left,740,false,low,false
qFDa7Mt6,3fhtjgyt9qduw7xo30k18rjdqjggpm,32q90qcq1wyxom2bbfu71r8uvj1kex,qFDa7Mt6,2020-0188,2020-11-15,01:10:30,01:32:19,NA,incomplete,33,number,1,left,Blue_Triangle_Grid_1.jpg,Green_Star_Dots_1.jpg,Red_Triangle_Stripes_4.jpg,right,583,false,low,false
qFDa7Mt6,3fhtjgyt9qduw7xo30k18rjdqjggpm,32q90qcq1wyxom2bbfu71r8uvj1kex,qFDa7Mt6,2020-0188,2020-11-15,01:10:30,01:32:19,NA,incomplete,34,number,1,right,Purple_Star_Dots_4.jpg,Blue_Star_Chess_2.jpg,Green_Triangle_Stripes_4.jpg,right,679,true,low,false
qFDa7Mt6,3fhtjgyt9qduw7xo30k18rjdqjggpm,32q90qcq1wyxom2bbfu71r8uvj1kex,qFDa7Mt6,2020-0188,2020-11-15,01:10:30,01:32:19,NA,incomplete,35,number,1,left,Blue_Circle_Grid_4.jpg,Purple_Plus_Stripes_4.jpg,Green_Circle_Chess_1.jpg,right,776,false,low,false
qFDa7Mt6,3fhtjgyt9qduw7xo30k18rjdqjggpm,32q90qcq1wyxom2bbfu71r8uvj1kex,qFDa7Mt6,2020-0188,2020-11-15,01:10:30,01:32:19,NA,incomplete,36,number,1,right,Red_Plus_Chess_1.jpg,Blue_Plus_Dots_2.jpg,Green_Triangle_Grid_1.jpg,right,782,true,low,false
qFDa7Mt6,3fhtjgyt9qduw7xo30k18rjdqjggpm,32q90qcq1wyxom2bbfu71r8uvj1kex,qFDa7Mt6,2020-0188,2020-11-15,01:10:30,01:32:19,NA,incomplete,37,number,1,left,Green_Star_Stripes_3.jpg,Red_Circle_Chess_3.jpg,Blue_Star_Grid_4.jpg,left,909,true,low,false
qFDa7Mt6,3fhtjgyt9qduw7xo30k18rjdqjggpm,32q90qcq1wyxom2bbfu71r8uvj1kex,qFDa7Mt6,2020-0188,2020-11-15,01:10:30,01:32:19,NA,incomplete,38,number,1,right,Blue_Star_Chess_3.jpg,Purple_Star_Stripes_4.jpg,Green_Plus_Grid_3.jpg,right,755,true,low,false
qFDa7Mt6,3fhtjgyt9qduw7xo30k18rjdqjggpm,32q90qcq1wyxom2bbfu71r8uvj1kex,qFDa7Mt6,2020-0188,2020-11-15,01:10:30,01:32:19,NA,incomplete,39,number,1,right,Purple_Circle_Chess_2.jpg,Green_Circle_Stripes_1.jpg,Red_Plus_Dots_2.jpg,right,1025,true,low,false
qFDa7Mt6,3fhtjgyt9qduw7xo30k18rjdqjggpm,32q90qcq1wyxom2bbfu71r8uvj1kex,qFDa7Mt6,2020-0188,2020-11-15,01:10:30,01:32:19,NA,incomplete,40,number,1,left,Red_Star_Grid_2.jpg,Green_Plus_Dots_2.jpg,Purple_Star_Chess_1.jpg,right,728,false,low,false
qFDa7Mt6,3fhtjgyt9qduw7xo30k18rjdqjggpm,32q90qcq1wyxom2bbfu71r8uvj1kex,qFDa7Mt6,2020-0188,2020-11-15,01:10:30,01:32:19,NA,incomplete,41,number,0,left,Purple_Plus_Grid_3.jpg,Blue_Triangle_Dots_3.jpg,Green_Plus_Chess_1.jpg,left,604,true,low,false
qFDa7Mt6,3fhtjgyt9qduw7xo30k18rjdqjggpm,32q90qcq1wyxom2bbfu71r8uvj1kex,qFDa7Mt6,2020-0188,2020-11-15,01:10:30,01:32:19,NA,incomplete,42,number,1,right,Red_Plus_Grid_2.jpg,Blue_Plus_Stripes_4.jpg,Purple_Star_Chess_2.jpg,right,637,true,low,false
qFDa7Mt6,3fhtjgyt9qduw7xo30k18rjdqjggpm,32q90qcq1wyxom2bbfu71r8uvj1kex,qFDa7Mt6,2020-0188,2020-11-15,01:10:30,01:32:19,NA,incomplete,43,number,1,left,Blue_Triangle_Chess_2.jpg,Red_Circle_Stripes_2.jpg,Purple_Triangle_Dots_4.jpg,left,791,true,low,false
qFDa7Mt6,3fhtjgyt9qduw7xo30k18rjdqjggpm,32q90qcq1wyxom2bbfu71r8uvj1kex,qFDa7Mt6,2020-0188,2020-11-15,01:10:30,01:32:19,NA,incomplete,44,number,0,left,Purple_Triangle_Chess_2.jpg,Red_Circle_Dots_2.jpg,Blue_Triangle_Grid_1.jpg,left,938,true,low,false
qFDa7Mt6,3fhtjgyt9qduw7xo30k18rjdqjggpm,32q90qcq1wyxom2bbfu71r8uvj1kex,qFDa7Mt6,2020-0188,2020-11-15,01:10:30,01:32:19,NA,incomplete,45,number,0,left,Blue_Triangle_Chess_3.jpg,Purple_Circle_Grid_3.jpg,Red_Triangle_Stripes_4.jpg,left,932,true,low,false
qFDa7Mt6,3fhtjgyt9qduw7xo30k18rjdqjggpm,32q90qcq1wyxom2bbfu71r8uvj1kex,qFDa7Mt6,2020-0188,2020-11-15,01:10:30,01:32:19,NA,incomplete,46,number,1,right,Green_Triangle_Dots_3.jpg,Red_Triangle_Grid_1.jpg,Purple_Plus_Stripes_3.jpg,right,761,true,low,false
qFDa7Mt6,3fhtjgyt9qduw7xo30k18rjdqjggpm,32q90qcq1wyxom2bbfu71r8uvj1kex,qFDa7Mt6,2020-0188,2020-11-15,01:10:30,01:32:19,NA,incomplete,47,number,1,right,Red_Plus_Grid_1.jpg,Blue_Plus_Chess_4.jpg,Purple_Star_Dots_1.jpg,right,862,true,low,false
qFDa7Mt6,3fhtjgyt9qduw7xo30k18rjdqjggpm,32q90qcq1wyxom2bbfu71r8uvj1kex,qFDa7Mt6,2020-0188,2020-11-15,01:10:30,01:32:19,NA,incomplete,48,number,1,right,Blue_Triangle_Chess_2.jpg,Purple_Triangle_Dots_4.jpg,Green_Star_Grid_2.jpg,right,732,true,low,false
qFDa7Mt6,3fhtjgyt9qduw7xo30k18rjdqjggpm,32q90qcq1wyxom2bbfu71r8uvj1kex,qFDa7Mt6,2020-0188,2020-11-15,01:10:30,01:32:19,NA,incomplete,49,number,1,right,Red_Circle_Stripes_4.jpg,Blue_Circle_Dots_2.jpg,Green_Triangle_Chess_4.jpg,right,795,true,low,false
qFDa7Mt6,3fhtjgyt9qduw7xo30k18rjdqjggpm,32q90qcq1wyxom2bbfu71r8uvj1kex,qFDa7Mt6,2020-0188,2020-11-15,01:10:30,01:32:19,NA,incomplete,50,number,1,right,Purple_Triangle_Dots_1.jpg,Red_Triangle_Chess_3.jpg,Blue_Circle_Stripes_1.jpg,right,706,true,low,false
qFDa7Mt6,3fhtjgyt9qduw7xo30k18rjdqjggpm,32q90qcq1wyxom2bbfu71r8uvj1kex,qFDa7Mt6,2020-0188,2020-11-15,01:10:30,01:32:19,NA,incomplete,51,number,1,left,Red_Star_Grid_3.jpg,Green_Triangle_Dots_3.jpg,Purple_Star_Stripes_1.jpg,left,752,true,low,false
qFDa7Mt6,3fhtjgyt9qduw7xo30k18rjdqjggpm,32q90qcq1wyxom2bbfu71r8uvj1kex,qFDa7Mt6,2020-0188,2020-11-15,01:10:30,01:32:19,NA,incomplete,52,number,1,left,Purple_Plus_Grid_4.jpg,Green_Triangle_Stripes_4.jpg,Blue_Plus_Chess_2.jpg,left,877,true,low,false
qFDa7Mt6,3fhtjgyt9qduw7xo30k18rjdqjggpm,32q90qcq1wyxom2bbfu71r8uvj1kex,qFDa7Mt6,2020-0188,2020-11-15,01:10:30,01:32:19,NA,incomplete,53,number,1,left,Red_Circle_Chess_2.jpg,Purple_Star_Dots_2.jpg,Blue_Circle_Stripes_4.jpg,left,745,true,low,false
qFDa7Mt6,3fhtjgyt9qduw7xo30k18rjdqjggpm,32q90qcq1wyxom2bbfu71r8uvj1kex,qFDa7Mt6,2020-0188,2020-11-15,01:10:30,01:32:19,NA,incomplete,54,number,0,left,Green_Plus_Chess_1.jpg,Blue_Circle_Dots_1.jpg,Red_Plus_Stripes_2.jpg,left,704,true,low,false
qFDa7Mt6,3fhtjgyt9qduw7xo30k18rjdqjggpm,32q90qcq1wyxom2bbfu71r8uvj1kex,qFDa7Mt6,2020-0188,2020-11-15,01:10:30,01:32:19,NA,incomplete,55,number,0,left,Green_Star_Grid_4.jpg,Blue_Triangle_Chess_4.jpg,Red_Star_Dots_3.jpg,left,778,true,low,false
qFDa7Mt6,3fhtjgyt9qduw7xo30k18rjdqjggpm,32q90qcq1wyxom2bbfu71r8uvj1kex,qFDa7Mt6,2020-0188,2020-11-15,01:10:30,01:32:19,NA,incomplete,56,number,0,right,Green_Circle_Dots_4.jpg,Blue_Circle_Chess_2.jpg,Red_Triangle_Grid_4.jpg,right,692,true,low,false
qFDa7Mt6,3fhtjgyt9qduw7xo30k18rjdqjggpm,32q90qcq1wyxom2bbfu71r8uvj1kex,qFDa7Mt6,2020-0188,2020-11-15,01:10:30,01:32:19,NA,incomplete,57,number,1,right,Blue_Plus_Dots_3.jpg,Purple_Plus_Chess_4.jpg,Green_Circle_Grid_3.jpg,left,716,false,low,false
qFDa7Mt6,3fhtjgyt9qduw7xo30k18rjdqjggpm,32q90qcq1wyxom2bbfu71r8uvj1kex,qFDa7Mt6,2020-0188,2020-11-15,01:10:30,01:32:19,NA,incomplete,58,number,1,left,Red_Circle_Dots_1.jpg,Green_Plus_Stripes_1.jpg,Purple_Circle_Grid_2.jpg,right,713,false,low,false
qFDa7Mt6,3fhtjgyt9qduw7xo30k18rjdqjggpm,32q90qcq1wyxom2bbfu71r8uvj1kex,qFDa7Mt6,2020-0188,2020-11-15,01:10:30,01:32:19,NA,incomplete,59,number,1,right,Purple_Triangle_Grid_3.jpg,Blue_Triangle_Chess_4.jpg,Red_Plus_Dots_3.jpg,right,765,true,low,false
qFDa7Mt6,3fhtjgyt9qduw7xo30k18rjdqjggpm,32q90qcq1wyxom2bbfu71r8uvj1kex,qFDa7Mt6,2020-0188,2020-11-15,01:10:30,01:32:19,NA,incomplete,60,shape,1,right,Purple_Triangle_Stripes_2.jpg,Green_Circle_Grid_2.jpg,Red_Triangle_Dots_3.jpg,left,880,false,low,false
qFDa7Mt6,3fhtjgyt9qduw7xo30k18rjdqjggpm,32q90qcq1wyxom2bbfu71r8uvj1kex,qFDa7Mt6,2020-0188,2020-11-15,01:10:30,01:32:19,NA,incomplete,61,shape,1,right,Green_Star_Grid_3.jpg,Red_Triangle_Chess_3.jpg,Blue_Star_Dots_2.jpg,left,690,false,low,false
qFDa7Mt6,3fhtjgyt9qduw7xo30k18rjdqjggpm,32q90qcq1wyxom2bbfu71r8uvj1kex,qFDa7Mt6,2020-0188,2020-11-15,01:10:30,01:32:19,NA,incomplete,62,shape,1,left,Blue_Circle_Grid_3.jpg,Red_Circle_Dots_1.jpg,Purple_Star_Stripes_3.jpg,right,845,false,low,false
qFDa7Mt6,3fhtjgyt9qduw7xo30k18rjdqjggpm,32q90qcq1wyxom2bbfu71r8uvj1kex,qFDa7Mt6,2020-0188,2020-11-15,01:10:30,01:32:19,NA,incomplete,63,shape,1,left,Blue_Triangle_Chess_2.jpg,Green_Triangle_Grid_3.jpg,Purple_Plus_Stripes_2.jpg,left,756,true,low,false
qFDa7Mt6,3fhtjgyt9qduw7xo30k18rjdqjggpm,32q90qcq1wyxom2bbfu71r8uvj1kex,qFDa7Mt6,2020-0188,2020-11-15,01:10:30,01:32:19,NA,incomplete,64,shape,1,left,Green_Triangle_Stripes_3.jpg,Red_Triangle_Dots_2.jpg,Purple_Circle_Chess_3.jpg,right,624,false,low,false
qFDa7Mt6,3fhtjgyt9qduw7xo30k18rjdqjggpm,32q90qcq1wyxom2bbfu71r8uvj1kex,qFDa7Mt6,2020-0188,2020-11-15,01:10:30,01:32:19,NA,incomplete,65,shape,1,left,Green_Circle_Chess_1.jpg,Purple_Circle_Dots_3.jpg,Blue_Star_Grid_1.jpg,left,818,true,low,false
qFDa7Mt6,3fhtjgyt9qduw7xo30k18rjdqjggpm,32q90qcq1wyxom2bbfu71r8uvj1kex,qFDa7Mt6,2020-0188,2020-11-15,01:10:30,01:32:19,NA,incomplete,66,shape,1,left,Blue_Triangle_Stripes_1.jpg,Purple_Triangle_Dots_4.jpg,Green_Star_Grid_1.jpg,left,725,true,low,false
qFDa7Mt6,3fhtjgyt9qduw7xo30k18rjdqjggpm,32q90qcq1wyxom2bbfu71r8uvj1kex,qFDa7Mt6,2020-0188,2020-11-15,01:10:30,01:32:19,NA,incomplete,67,shape,1,right,Purple_Triangle_Dots_3.jpg,Red_Plus_Grid_3.jpg,Blue_Triangle_Stripes_2.jpg,right,783,true,low,false
qFDa7Mt6,3fhtjgyt9qduw7xo30k18rjdqjggpm,32q90qcq1wyxom2bbfu71r8uvj1kex,qFDa7Mt6,2020-0188,2020-11-15,01:10:30,01:32:19,NA,incomplete,68,shape,0,left,Green_Plus_Dots_3.jpg,Blue_Plus_Grid_4.jpg,Red_Triangle_Stripes_3.jpg,left,623,true,low,false
qFDa7Mt6,3fhtjgyt9qduw7xo30k18rjdqjggpm,32q90qcq1wyxom2bbfu71r8uvj1kex,qFDa7Mt6,2020-0188,2020-11-15,01:10:30,01:32:19,NA,incomplete,69,shape,1,right,Blue_Star_Chess_1.jpg,Red_Plus_Dots_1.jpg,Green_Star_Grid_2.jpg,right,680,true,low,false
qFDa7Mt6,3fhtjgyt9qduw7xo30k18rjdqjggpm,32q90qcq1wyxom2bbfu71r8uvj1kex,qFDa7Mt6,2020-0188,2020-11-15,01:10:30,01:32:19,NA,incomplete,70,shape,0,right,Red_Triangle_Dots_3.jpg,Purple_Plus_Grid_3.jpg,Blue_Triangle_Chess_2.jpg,right,666,true,low,false
qFDa7Mt6,3fhtjgyt9qduw7xo30k18rjdqjggpm,32q90qcq1wyxom2bbfu71r8uvj1kex,qFDa7Mt6,2020-0188,2020-11-15,01:10:30,01:32:19,NA,incomplete,71,shape,1,right,Blue_Triangle_Grid_4.jpg,Purple_Plus_Stripes_4.jpg,Green_Triangle_Chess_2.jpg,right,694,true,low,false
qFDa7Mt6,3fhtjgyt9qduw7xo30k18rjdqjggpm,32q90qcq1wyxom2bbfu71r8uvj1kex,qFDa7Mt6,2020-0188,2020-11-15,01:10:30,01:32:19,NA,incomplete,72,shape,1,right,Purple_Triangle_Grid_2.jpg,Green_Star_Dots_2.jpg,Blue_Triangle_Chess_1.jpg,right,622,true,low,false
qFDa7Mt6,3fhtjgyt9qduw7xo30k18rjdqjggpm,32q90qcq1wyxom2bbfu71r8uvj1kex,qFDa7Mt6,2020-0188,2020-11-15,01:10:30,01:32:19,NA,incomplete,73,shape,1,right,Green_Plus_Dots_1.jpg,Blue_Triangle_Stripes_1.jpg,Purple_Plus_Chess_3.jpg,right,812,true,low,false
qFDa7Mt6,3fhtjgyt9qduw7xo30k18rjdqjggpm,32q90qcq1wyxom2bbfu71r8uvj1kex,qFDa7Mt6,2020-0188,2020-11-15,01:10:30,01:32:19,NA,incomplete,74,shape,0,left,Red_Plus_Dots_1.jpg,Purple_Plus_Chess_2.jpg,Blue_Circle_Stripes_1.jpg,left,718,true,low,false
qFDa7Mt6,3fhtjgyt9qduw7xo30k18rjdqjggpm,32q90qcq1wyxom2bbfu71r8uvj1kex,qFDa7Mt6,2020-0188,2020-11-15,01:10:30,01:32:19,NA,incomplete,75,shape,0,left,Red_Plus_Stripes_1.jpg,Green_Plus_Grid_4.jpg,Purple_Star_Dots_1.jpg,left,699,true,low,false
qFDa7Mt6,3fhtjgyt9qduw7xo30k18rjdqjggpm,32q90qcq1wyxom2bbfu71r8uvj1kex,qFDa7Mt6,2020-0188,2020-11-15,01:10:30,01:32:19,NA,incomplete,76,shape,1,left,Purple_Triangle_Stripes_1.jpg,Blue_Triangle_Grid_3.jpg,Red_Plus_Chess_1.jpg,left,654,true,low,false
qFDa7Mt6,3fhtjgyt9qduw7xo30k18rjdqjggpm,32q90qcq1wyxom2bbfu71r8uvj1kex,qFDa7Mt6,2020-0188,2020-11-15,01:10:30,01:32:19,NA,incomplete,77,shape,1,left,Red_Triangle_Grid_2.jpg,Blue_Triangle_Dots_3.jpg,Green_Plus_Chess_2.jpg,left,640,true,low,false
qFDa7Mt6,3fhtjgyt9qduw7xo30k18rjdqjggpm,32q90qcq1wyxom2bbfu71r8uvj1kex,qFDa7Mt6,2020-0188,2020-11-15,01:10:30,01:32:19,NA,incomplete,78,shape,1,right,Blue_Triangle_Grid_1.jpg,Green_Plus_Stripes_1.jpg,Red_Triangle_Chess_3.jpg,right,629,true,low,false
qFDa7Mt6,3fhtjgyt9qduw7xo30k18rjdqjggpm,32q90qcq1wyxom2bbfu71r8uvj1kex,qFDa7Mt6,2020-0188,2020-11-15,01:10:30,01:32:19,NA,incomplete,79,shape,0,left,Green_Circle_Chess_4.jpg,Red_Circle_Stripes_1.jpg,Purple_Triangle_Dots_4.jpg,left,749,true,low,false
qFDa7Mt6,3fhtjgyt9qduw7xo30k18rjdqjggpm,32q90qcq1wyxom2bbfu71r8uvj1kex,qFDa7Mt6,2020-0188,2020-11-15,01:10:30,01:32:19,NA,incomplete,80,shape,1,left,Red_Circle_Chess_2.jpg,Purple_Circle_Dots_1.jpg,Green_Star_Stripes_2.jpg,left,622,true,low,false
qFDa7Mt6,3fhtjgyt9qduw7xo30k18rjdqjggpm,32q90qcq1wyxom2bbfu71r8uvj1kex,qFDa7Mt6,2020-0188,2020-11-15,01:10:30,01:32:19,NA,incomplete,81,shape,1,left,Purple_Triangle_Chess_4.jpg,Green_Triangle_Stripes_3.jpg,Blue_Star_Dots_4.jpg,left,593,true,low,false
qFDa7Mt6,3fhtjgyt9qduw7xo30k18rjdqjggpm,32q90qcq1wyxom2bbfu71r8uvj1kex,qFDa7Mt6,2020-0188,2020-11-15,01:10:30,01:32:19,NA,incomplete,82,shape,1,right,Red_Star_Grid_4.jpg,Green_Plus_Dots_4.jpg,Blue_Star_Stripes_2.jpg,right,859,true,low,false
qFDa7Mt6,3fhtjgyt9qduw7xo30k18rjdqjggpm,32q90qcq1wyxom2bbfu71r8uvj1kex,qFDa7Mt6,2020-0188,2020-11-15,01:10:30,01:32:19,NA,incomplete,83,shape,1,right,Green_Plus_Grid_4.jpg,Purple_Star_Dots_4.jpg,Red_Plus_Chess_3.jpg,right,621,true,low,false
qFDa7Mt6,3fhtjgyt9qduw7xo30k18rjdqjggpm,32q90qcq1wyxom2bbfu71r8uvj1kex,qFDa7Mt6,2020-0188,2020-11-15,01:10:30,01:32:19,NA,incomplete,84,shape,0,left,Green_Triangle_Stripes_2.jpg,Blue_Triangle_Chess_4.jpg,Red_Circle_Dots_2.jpg,left,875,true,low,false
qFDa7Mt6,3fhtjgyt9qduw7xo30k18rjdqjggpm,32q90qcq1wyxom2bbfu71r8uvj1kex,qFDa7Mt6,2020-0188,2020-11-15,01:10:30,01:32:19,NA,incomplete,85,shape,1,right,Purple_Star_Chess_4.jpg,Green_Triangle_Dots_4.jpg,Red_Star_Grid_3.jpg,right,745,true,low,false
qFDa7Mt6,3fhtjgyt9qduw7xo30k18rjdqjggpm,32q90qcq1wyxom2bbfu71r8uvj1kex,qFDa7Mt6,2020-0188,2020-11-15,01:10:30,01:32:19,NA,incomplete,86,shape,1,left,Blue_Circle_Stripes_1.jpg,Green_Circle_Grid_3.jpg,Red_Triangle_Chess_1.jpg,left,630,true,low,false
qFDa7Mt6,3fhtjgyt9qduw7xo30k18rjdqjggpm,32q90qcq1wyxom2bbfu71r8uvj1kex,qFDa7Mt6,2020-0188,2020-11-15,01:10:30,01:32:19,NA,incomplete,87,shape,1,left,Purple_Triangle_Dots_4.jpg,Green_Triangle_Chess_3.jpg,Blue_Plus_Stripes_4.jpg,left,728,true,low,false
qFDa7Mt6,3fhtjgyt9qduw7xo30k18rjdqjggpm,32q90qcq1wyxom2bbfu71r8uvj1kex,qFDa7Mt6,2020-0188,2020-11-15,01:10:30,01:32:19,NA,incomplete,88,shape,1,left,Blue_Star_Stripes_2.jpg,Purple_Star_Dots_4.jpg,Red_Circle_Chess_2.jpg,left,700,true,low,false
qFDa7Mt6,3fhtjgyt9qduw7xo30k18rjdqjggpm,32q90qcq1wyxom2bbfu71r8uvj1kex,qFDa7Mt6,2020-0188,2020-11-15,01:10:30,01:32:19,NA,incomplete,89,shape,1,right,Green_Triangle_Grid_2.jpg,Blue_Plus_Dots_2.jpg,Red_Triangle_Chess_3.jpg,right,648,true,low,false
qFDa7Mt6,3fhtjgyt9qduw7xo30k18rjdqjggpm,32q90qcq1wyxom2bbfu71r8uvj1kex,qFDa7Mt6,2020-0188,2020-11-15,01:10:30,01:32:19,NA,incomplete,90,number,1,right,Blue_Star_Chess_1.jpg,Purple_Star_Grid_2.jpg,Red_Circle_Dots_1.jpg,left,631,false,low,false
qFDa7Mt6,3fhtjgyt9qduw7xo30k18rjdqjggpm,32q90qcq1wyxom2bbfu71r8uvj1kex,qFDa7Mt6,2020-0188,2020-11-15,01:10:30,01:32:19,NA,incomplete,91,number,0,left,Green_Star_Grid_3.jpg,Red_Plus_Chess_3.jpg,Purple_Star_Stripes_2.jpg,right,823,false,low,false
qFDa7Mt6,3fhtjgyt9qduw7xo30k18rjdqjggpm,32q90qcq1wyxom2bbfu71r8uvj1kex,qFDa7Mt6,2020-0188,2020-11-15,01:10:30,01:32:19,NA,incomplete,92,number,1,right,Green_Plus_Chess_1.jpg,Blue_Plus_Grid_3.jpg,Red_Star_Stripes_1.jpg,left,664,false,low,false
qFDa7Mt6,3fhtjgyt9qduw7xo30k18rjdqjggpm,32q90qcq1wyxom2bbfu71r8uvj1kex,qFDa7Mt6,2020-0188,2020-11-15,01:10:30,01:32:19,NA,incomplete,93,number,0,right,Blue_Plus_Dots_1.jpg,Red_Plus_Grid_3.jpg,Green_Circle_Chess_1.jpg,left,563,false,low,false
qFDa7Mt6,3fhtjgyt9qduw7xo30k18rjdqjggpm,32q90qcq1wyxom2bbfu71r8uvj1kex,qFDa7Mt6,2020-0188,2020-11-15,01:10:30,01:32:19,NA,incomplete,94,number,1,right,Purple_Plus_Stripes_4.jpg,Blue_Plus_Chess_3.jpg,Green_Star_Grid_4.jpg,left,611,false,low,false
qFDa7Mt6,3fhtjgyt9qduw7xo30k18rjdqjggpm,32q90qcq1wyxom2bbfu71r8uvj1kex,qFDa7Mt6,2020-0188,2020-11-15,01:10:30,01:32:19,NA,incomplete,95,number,1,left,Purple_Plus_Chess_3.jpg,Blue_Triangle_Grid_3.jpg,Green_Plus_Dots_4.jpg,left,773,true,low,false
qFDa7Mt6,3fhtjgyt9qduw7xo30k18rjdqjggpm,32q90qcq1wyxom2bbfu71r8uvj1kex,qFDa7Mt6,2020-0188,2020-11-15,01:10:30,01:32:19,NA,incomplete,96,number,1,right,Red_Plus_Dots_1.jpg,Blue_Plus_Stripes_2.jpg,Purple_Triangle_Grid_1.jpg,right,654,true,low,false
qFDa7Mt6,3fhtjgyt9qduw7xo30k18rjdqjggpm,32q90qcq1wyxom2bbfu71r8uvj1kex,qFDa7Mt6,2020-0188,2020-11-15,01:10:30,01:32:19,NA,incomplete,97,number,1,right,Red_Star_Chess_4.jpg,Blue_Star_Dots_3.jpg,Purple_Triangle_Grid_4.jpg,right,823,true,low,false
qFDa7Mt6,3fhtjgyt9qduw7xo30k18rjdqjggpm,32q90qcq1wyxom2bbfu71r8uvj1kex,qFDa7Mt6,2020-0188,2020-11-15,01:10:30,01:32:19,NA,incomplete,98,number,1,right,Green_Circle_Stripes_3.jpg,Purple_Circle_Grid_2.jpg,Blue_Star_Chess_3.jpg,left,630,false,low,false
qFDa7Mt6,3fhtjgyt9qduw7xo30k18rjdqjggpm,32q90qcq1wyxom2bbfu71r8uvj1kex,qFDa7Mt6,2020-0188,2020-11-15,01:10:30,01:32:19,NA,incomplete,99,number,1,right,Red_Star_Grid_2.jpg,Blue_Star_Dots_1.jpg,Purple_Triangle_Chess_2.jpg,right,725,true,low,false
qFDa7Mt6,3fhtjgyt9qduw7xo30k18rjdqjggpm,32q90qcq1wyxom2bbfu71r8uvj1kex,qFDa7Mt6,2020-0188,2020-11-15,01:10:30,01:32:19,NA,incomplete,100,number,1,right,Purple_Star_Dots_1.jpg,Green_Star_Grid_2.jpg,Blue_Plus_Chess_1.jpg,right,654,true,low,false
qFDa7Mt6,3fhtjgyt9qduw7xo30k18rjdqjggpm,32q90qcq1wyxom2bbfu71r8uvj1kex,qFDa7Mt6,2020-0188,2020-11-15,01:10:30,01:32:19,NA,incomplete,101,number,1,right,Red_Plus_Stripes_3.jpg,Green_Plus_Chess_1.jpg,Purple_Star_Dots_3.jpg,right,585,true,low,false
qFDa7Mt6,3fhtjgyt9qduw7xo30k18rjdqjggpm,32q90qcq1wyxom2bbfu71r8uvj1kex,qFDa7Mt6,2020-0188,2020-11-15,01:10:30,01:32:19,NA,incomplete,102,number,0,right,Blue_Triangle_Stripes_3.jpg,Green_Triangle_Grid_2.jpg,Purple_Plus_Dots_3.jpg,right,646,true,low,false
qFDa7Mt6,3fhtjgyt9qduw7xo30k18rjdqjggpm,32q90qcq1wyxom2bbfu71r8uvj1kex,qFDa7Mt6,2020-0188,2020-11-15,01:10:30,01:32:19,NA,incomplete,103,number,1,right,Blue_Triangle_Chess_4.jpg,Purple_Triangle_Stripes_1.jpg,Red_Plus_Dots_4.jpg,right,595,true,low,false
qFDa7Mt6,3fhtjgyt9qduw7xo30k18rjdqjggpm,32q90qcq1wyxom2bbfu71r8uvj1kex,qFDa7Mt6,2020-0188,2020-11-15,01:10:30,01:32:19,NA,incomplete,104,number,1,left,Green_Circle_Grid_3.jpg,Blue_Plus_Stripes_3.jpg,Purple_Circle_Chess_2.jpg,left,765,true,low,false
qFDa7Mt6,3fhtjgyt9qduw7xo30k18rjdqjggpm,32q90qcq1wyxom2bbfu71r8uvj1kex,qFDa7Mt6,2020-0188,2020-11-15,01:10:30,01:32:19,NA,incomplete,105,number,1,right,Red_Star_Stripes_2.jpg,Blue_Star_Grid_1.jpg,Purple_Triangle_Dots_2.jpg,right,694,true,low,false
qFDa7Mt6,3fhtjgyt9qduw7xo30k18rjdqjggpm,32q90qcq1wyxom2bbfu71r8uvj1kex,qFDa7Mt6,2020-0188,2020-11-15,01:10:30,01:32:19,NA,incomplete,106,number,1,left,Blue_Circle_Stripes_4.jpg,Red_Star_Chess_4.jpg,Green_Circle_Dots_2.jpg,left,670,true,low,false
qFDa7Mt6,3fhtjgyt9qduw7xo30k18rjdqjggpm,32q90qcq1wyxom2bbfu71r8uvj1kex,qFDa7Mt6,2020-0188,2020-11-15,01:10:30,01:32:19,NA,incomplete,107,number,1,left,Green_Plus_Stripes_2.jpg,Blue_Star_Grid_2.jpg,Purple_Plus_Chess_3.jpg,left,870,true,low,false
qFDa7Mt6,3fhtjgyt9qduw7xo30k18rjdqjggpm,32q90qcq1wyxom2bbfu71r8uvj1kex,qFDa7Mt6,2020-0188,2020-11-15,01:10:30,01:32:19,NA,incomplete,108,number,0,right,Green_Triangle_Chess_4.jpg,Blue_Triangle_Stripes_3.jpg,Red_Plus_Dots_4.jpg,right,713,true,low,false
qFDa7Mt6,3fhtjgyt9qduw7xo30k18rjdqjggpm,32q90qcq1wyxom2bbfu71r8uvj1kex,qFDa7Mt6,2020-0188,2020-11-15,01:10:30,01:32:19,NA,incomplete,109,number,1,right,Red_Star_Dots_2.jpg,Purple_Star_Grid_4.jpg,Blue_Plus_Stripes_2.jpg,right,1003,true,low,false
qFDa7Mt6,3fhtjgyt9qduw7xo30k18rjdqjggpm,32q90qcq1wyxom2bbfu71r8uvj1kex,qFDa7Mt6,2020-0188,2020-11-15,01:10:30,01:32:19,NA,incomplete,110,number,1,right,Purple_Triangle_Dots_3.jpg,Red_Triangle_Stripes_2.jpg,Blue_Star_Grid_3.jpg,right,594,true,low,false
qFDa7Mt6,3fhtjgyt9qduw7xo30k18rjdqjggpm,32q90qcq1wyxom2bbfu71r8uvj1kex,qFDa7Mt6,2020-0188,2020-11-15,01:10:30,01:32:19,NA,incomplete,111,number,1,left,Green_Triangle_Stripes_1.jpg,Purple_Plus_Grid_1.jpg,Blue_Triangle_Dots_3.jpg,left,659,true,low,false
qFDa7Mt6,3fhtjgyt9qduw7xo30k18rjdqjggpm,32q90qcq1wyxom2bbfu71r8uvj1kex,qFDa7Mt6,2020-0188,2020-11-15,01:10:30,01:32:19,NA,incomplete,112,number,1,right,Green_Plus_Chess_4.jpg,Red_Plus_Stripes_2.jpg,Purple_Star_Dots_4.jpg,right,657,true,low,false
qFDa7Mt6,3fhtjgyt9qduw7xo30k18rjdqjggpm,32q90qcq1wyxom2bbfu71r8uvj1kex,qFDa7Mt6,2020-0188,2020-11-15,01:10:30,01:32:19,NA,incomplete,113,number,1,right,Green_Star_Dots_4.jpg,Blue_Star_Stripes_2.jpg,Red_Circle_Grid_4.jpg,right,653,true,low,false
qFDa7Mt6,3fhtjgyt9qduw7xo30k18rjdqjggpm,32q90qcq1wyxom2bbfu71r8uvj1kex,qFDa7Mt6,2020-0188,2020-11-15,01:10:30,01:32:19,NA,incomplete,114,number,1,right,Purple_Triangle_Chess_2.jpg,Blue_Triangle_Stripes_3.jpg,Red_Star_Grid_2.jpg,right,863,true,low,false
qFDa7Mt6,3fhtjgyt9qduw7xo30k18rjdqjggpm,32q90qcq1wyxom2bbfu71r8uvj1kex,qFDa7Mt6,2020-0188,2020-11-15,01:10:30,01:32:19,NA,incomplete,115,number,1,right,Green_Circle_Stripes_2.jpg,Blue_Circle_Dots_3.jpg,Purple_Triangle_Grid_2.jpg,right,730,true,low,false
qFDa7Mt6,3fhtjgyt9qduw7xo30k18rjdqjggpm,32q90qcq1wyxom2bbfu71r8uvj1kex,qFDa7Mt6,2020-0188,2020-11-15,01:10:30,01:32:19,NA,incomplete,116,number,1,right,Purple_Triangle_Dots_1.jpg,Green_Triangle_Stripes_4.jpg,Red_Star_Chess_1.jpg,right,684,true,low,false
qFDa7Mt6,3fhtjgyt9qduw7xo30k18rjdqjggpm,32q90qcq1wyxom2bbfu71r8uvj1kex,qFDa7Mt6,2020-0188,2020-11-15,01:10:30,01:32:19,NA,incomplete,117,number,1,right,Red_Plus_Grid_4.jpg,Purple_Plus_Dots_3.jpg,Green_Star_Stripes_4.jpg,right,781,true,low,false
qFDa7Mt6,3fhtjgyt9qduw7xo30k18rjdqjggpm,32q90qcq1wyxom2bbfu71r8uvj1kex,qFDa7Mt6,2020-0188,2020-11-15,01:10:30,01:32:19,NA,incomplete,118,number,1,left,Red_Plus_Grid_3.jpg,Blue_Circle_Stripes_3.jpg,Purple_Plus_Dots_4.jpg,left,884,true,low,false
qFDa7Mt6,3fhtjgyt9qduw7xo30k18rjdqjggpm,32q90qcq1wyxom2bbfu71r8uvj1kex,qFDa7Mt6,2020-0188,2020-11-15,01:10:30,01:32:19,NA,incomplete,119,number,1,left,Green_Circle_Dots_2.jpg,Purple_Plus_Grid_2.jpg,Blue_Circle_Chess_3.jpg,left,725,true,low,false
qFDa7Mt6,3fhtjgyt9qduw7xo30k18rjdqjggpm,32q90qcq1wyxom2bbfu71r8uvj1kex,qFDa7Mt6,2020-0188,2020-11-15,01:10:30,01:32:19,NA,incomplete,120,shape,1,left,Blue_Star_Stripes_2.jpg,Green_Star_Chess_4.jpg,Purple_Plus_Dots_2.jpg,right,719,false,low,false
qFDa7Mt6,3fhtjgyt9qduw7xo30k18rjdqjggpm,32q90qcq1wyxom2bbfu71r8uvj1kex,qFDa7Mt6,2020-0188,2020-11-15,01:10:30,01:32:19,NA,incomplete,121,shape,0,left,Red_Triangle_Dots_1.jpg,Purple_Triangle_Stripes_2.jpg,Green_Star_Grid_1.jpg,right,718,false,low,false
qFDa7Mt6,3fhtjgyt9qduw7xo30k18rjdqjggpm,32q90qcq1wyxom2bbfu71r8uvj1kex,qFDa7Mt6,2020-0188,2020-11-15,01:10:30,01:32:19,NA,incomplete,122,shape,1,left,Red_Triangle_Dots_3.jpg,Green_Triangle_Chess_2.jpg,Purple_Star_Stripes_3.jpg,right,872,false,low,false
qFDa7Mt6,3fhtjgyt9qduw7xo30k18rjdqjggpm,32q90qcq1wyxom2bbfu71r8uvj1kex,qFDa7Mt6,2020-0188,2020-11-15,01:10:30,01:32:19,NA,incomplete,123,shape,0,right,Red_Circle_Stripes_4.jpg,Green_Star_Dots_4.jpg,Blue_Circle_Grid_3.jpg,left,750,false,low,false
qFDa7Mt6,3fhtjgyt9qduw7xo30k18rjdqjggpm,32q90qcq1wyxom2bbfu71r8uvj1kex,qFDa7Mt6,2020-0188,2020-11-15,01:10:30,01:32:19,NA,incomplete,124,shape,1,left,Blue_Star_Grid_4.jpg,Green_Star_Dots_3.jpg,Red_Triangle_Chess_4.jpg,right,858,false,low,false
qFDa7Mt6,3fhtjgyt9qduw7xo30k18rjdqjggpm,32q90qcq1wyxom2bbfu71r8uvj1kex,qFDa7Mt6,2020-0188,2020-11-15,01:10:30,01:32:19,NA,incomplete,125,shape,1,left,Blue_Triangle_Chess_3.jpg,Purple_Triangle_Dots_4.jpg,Green_Star_Stripes_3.jpg,right,746,false,low,false
qFDa7Mt6,3fhtjgyt9qduw7xo30k18rjdqjggpm,32q90qcq1wyxom2bbfu71r8uvj1kex,qFDa7Mt6,2020-0188,2020-11-15,01:10:30,01:32:19,NA,incomplete,126,shape,1,right,Red_Star_Dots_1.jpg,Purple_Triangle_Chess_1.jpg,Green_Star_Stripes_2.jpg,left,652,false,low,false
qFDa7Mt6,3fhtjgyt9qduw7xo30k18rjdqjggpm,32q90qcq1wyxom2bbfu71r8uvj1kex,qFDa7Mt6,2020-0188,2020-11-15,01:10:30,01:32:19,NA,incomplete,127,shape,0,left,Red_Circle_Stripes_4.jpg,Purple_Circle_Dots_1.jpg,Blue_Star_Grid_4.jpg,left,808,true,low,false
qFDa7Mt6,3fhtjgyt9qduw7xo30k18rjdqjggpm,32q90qcq1wyxom2bbfu71r8uvj1kex,qFDa7Mt6,2020-0188,2020-11-15,01:10:30,01:32:19,NA,incomplete,128,shape,1,right,Purple_Star_Grid_3.jpg,Blue_Triangle_Stripes_3.jpg,Green_Star_Chess_4.jpg,right,878,true,low,false
qFDa7Mt6,3fhtjgyt9qduw7xo30k18rjdqjggpm,32q90qcq1wyxom2bbfu71r8uvj1kex,qFDa7Mt6,2020-0188,2020-11-15,01:10:30,01:32:19,NA,incomplete,129,shape,1,right,Purple_Circle_Grid_3.jpg,Red_Plus_Chess_3.jpg,Green_Circle_Dots_1.jpg,right,873,true,low,false
qFDa7Mt6,3fhtjgyt9qduw7xo30k18rjdqjggpm,32q90qcq1wyxom2bbfu71r8uvj1kex,qFDa7Mt6,2020-0188,2020-11-15,01:10:30,01:32:19,NA,incomplete,130,shape,0,left,Purple_Star_Chess_3.jpg,Red_Star_Stripes_1.jpg,Green_Plus_Dots_3.jpg,left,940,true,low,false
qFDa7Mt6,3fhtjgyt9qduw7xo30k18rjdqjggpm,32q90qcq1wyxom2bbfu71r8uvj1kex,qFDa7Mt6,2020-0188,2020-11-15,01:10:30,01:32:19,NA,incomplete,131,shape,1,left,Blue_Triangle_Dots_1.jpg,Red_Triangle_Grid_4.jpg,Purple_Star_Stripes_1.jpg,left,828,true,low,false
qFDa7Mt6,3fhtjgyt9qduw7xo30k18rjdqjggpm,32q90qcq1wyxom2bbfu71r8uvj1kex,qFDa7Mt6,2020-0188,2020-11-15,01:10:30,01:32:19,NA,incomplete,132,shape,1,left,Purple_Plus_Dots_2.jpg,Green_Plus_Chess_4.jpg,Blue_Triangle_Grid_2.jpg,left,777,true,low,false
qFDa7Mt6,3fhtjgyt9qduw7xo30k18rjdqjggpm,32q90qcq1wyxom2bbfu71r8uvj1kex,qFDa7Mt6,2020-0188,2020-11-15,01:10:30,01:32:19,NA,incomplete,133,shape,1,right,Blue_Star_Dots_1.jpg,Purple_Triangle_Chess_1.jpg,Red_Star_Grid_4.jpg,right,733,true,low,false
qFDa7Mt6,3fhtjgyt9qduw7xo30k18rjdqjggpm,32q90qcq1wyxom2bbfu71r8uvj1kex,qFDa7Mt6,2020-0188,2020-11-15,01:10:30,01:32:19,NA,incomplete,134,shape,1,right,Red_Star_Stripes_4.jpg,Blue_Circle_Grid_4.jpg,Purple_Star_Dots_2.jpg,right,756,true,low,false
qFDa7Mt6,3fhtjgyt9qduw7xo30k18rjdqjggpm,32q90qcq1wyxom2bbfu71r8uvj1kex,qFDa7Mt6,2020-0188,2020-11-15,01:10:30,01:32:19,NA,incomplete,135,shape,1,left,Red_Star_Dots_3.jpg,Blue_Star_Chess_1.jpg,Purple_Circle_Stripes_3.jpg,left,651,true,low,false
qFDa7Mt6,3fhtjgyt9qduw7xo30k18rjdqjggpm,32q90qcq1wyxom2bbfu71r8uvj1kex,qFDa7Mt6,2020-0188,2020-11-15,01:10:30,01:32:19,NA,incomplete,136,shape,1,right,Blue_Star_Grid_3.jpg,Red_Triangle_Dots_3.jpg,Green_Star_Chess_4.jpg,right,674,true,low,false
qFDa7Mt6,3fhtjgyt9qduw7xo30k18rjdqjggpm,32q90qcq1wyxom2bbfu71r8uvj1kex,qFDa7Mt6,2020-0188,2020-11-15,01:10:30,01:32:19,NA,incomplete,137,shape,1,left,Red_Circle_Dots_4.jpg,Blue_Circle_Grid_1.jpg,Purple_Plus_Chess_4.jpg,left,762,true,low,false
qFDa7Mt6,3fhtjgyt9qduw7xo30k18rjdqjggpm,32q90qcq1wyxom2bbfu71r8uvj1kex,qFDa7Mt6,2020-0188,2020-11-15,01:10:30,01:32:19,NA,incomplete,138,shape,0,left,Blue_Triangle_Dots_3.jpg,Purple_Triangle_Chess_1.jpg,Red_Plus_Stripes_3.jpg,left,703,true,low,false
qFDa7Mt6,3fhtjgyt9qduw7xo30k18rjdqjggpm,32q90qcq1wyxom2bbfu71r8uvj1kex,qFDa7Mt6,2020-0188,2020-11-15,01:10:30,01:32:19,NA,incomplete,139,shape,1,right,Blue_Triangle_Dots_3.jpg,Purple_Plus_Grid_3.jpg,Green_Triangle_Chess_2.jpg,right,753,true,low,false
qFDa7Mt6,3fhtjgyt9qduw7xo30k18rjdqjggpm,32q90qcq1wyxom2bbfu71r8uvj1kex,qFDa7Mt6,2020-0188,2020-11-15,01:10:30,01:32:19,NA,incomplete,140,number,1,right,Red_Triangle_Dots_2.jpg,Blue_Triangle_Stripes_1.jpg,Purple_Circle_Chess_2.jpg,left,604,false,low,false
qFDa7Mt6,3fhtjgyt9qduw7xo30k18rjdqjggpm,32q90qcq1wyxom2bbfu71r8uvj1kex,qFDa7Mt6,2020-0188,2020-11-15,01:10:30,01:32:19,NA,incomplete,141,number,1,left,Red_Plus_Chess_2.jpg,Green_Circle_Grid_2.jpg,Blue_Plus_Stripes_3.jpg,right,646,false,low,false
qFDa7Mt6,3fhtjgyt9qduw7xo30k18rjdqjggpm,32q90qcq1wyxom2bbfu71r8uvj1kex,qFDa7Mt6,2020-0188,2020-11-15,01:10:30,01:32:19,NA,incomplete,142,number,1,left,Purple_Circle_Chess_4.jpg,Green_Star_Grid_4.jpg,Blue_Circle_Stripes_1.jpg,right,560,false,low,false
qFDa7Mt6,3fhtjgyt9qduw7xo30k18rjdqjggpm,32q90qcq1wyxom2bbfu71r8uvj1kex,qFDa7Mt6,2020-0188,2020-11-15,01:10:30,01:32:19,NA,incomplete,143,number,0,right,Purple_Circle_Chess_4.jpg,Red_Circle_Stripes_2.jpg,Green_Star_Dots_4.jpg,right,727,true,low,false
qFDa7Mt6,3fhtjgyt9qduw7xo30k18rjdqjggpm,32q90qcq1wyxom2bbfu71r8uvj1kex,qFDa7Mt6,2020-0188,2020-11-15,01:10:30,01:32:19,NA,incomplete,144,number,1,left,Green_Triangle_Chess_1.jpg,Blue_Star_Grid_1.jpg,Red_Triangle_Dots_3.jpg,left,748,true,low,false
qFDa7Mt6,3fhtjgyt9qduw7xo30k18rjdqjggpm,32q90qcq1wyxom2bbfu71r8uvj1kex,qFDa7Mt6,2020-0188,2020-11-15,01:10:30,01:32:19,NA,incomplete,145,number,1,right,Blue_Circle_Stripes_1.jpg,Purple_Circle_Dots_3.jpg,Red_Plus_Grid_1.jpg,right,593,true,low,false
qFDa7Mt6,3fhtjgyt9qduw7xo30k18rjdqjggpm,32q90qcq1wyxom2bbfu71r8uvj1kex,qFDa7Mt6,2020-0188,2020-11-15,01:10:30,01:32:19,NA,incomplete,146,number,1,right,Purple_Circle_Chess_3.jpg,Red_Circle_Dots_1.jpg,Blue_Plus_Grid_3.jpg,right,614,true,low,false
qFDa7Mt6,3fhtjgyt9qduw7xo30k18rjdqjggpm,32q90qcq1wyxom2bbfu71r8uvj1kex,qFDa7Mt6,2020-0188,2020-11-15,01:10:30,01:32:19,NA,incomplete,147,number,1,right,Green_Star_Dots_4.jpg,Red_Star_Stripes_3.jpg,Purple_Circle_Grid_4.jpg,right,690,true,low,false
qFDa7Mt6,3fhtjgyt9qduw7xo30k18rjdqjggpm,32q90qcq1wyxom2bbfu71r8uvj1kex,qFDa7Mt6,2020-0188,2020-11-15,01:10:30,01:32:19,NA,incomplete,148,number,1,right,Green_Circle_Stripes_4.jpg,Blue_Circle_Grid_2.jpg,Red_Star_Chess_4.jpg,right,652,true,low,false
qFDa7Mt6,3fhtjgyt9qduw7xo30k18rjdqjggpm,32q90qcq1wyxom2bbfu71r8uvj1kex,qFDa7Mt6,2020-0188,2020-11-15,01:10:30,01:32:19,NA,incomplete,149,number,1,left,Purple_Triangle_Dots_2.jpg,Green_Circle_Stripes_2.jpg,Blue_Triangle_Grid_1.jpg,left,719,true,low,false
qFDa7Mt6,3fhtjgyt9qduw7xo30k18rjdqjggpm,32q90qcq1wyxom2bbfu71r8uvj1kex,qFDa7Mt6,2020-0188,2020-11-15,01:10:30,01:32:19,NA,incomplete,150,number,1,right,Purple_Triangle_Chess_3.jpg,Blue_Triangle_Grid_4.jpg,Red_Circle_Stripes_3.jpg,right,715,true,low,false
qFDa7Mt6,3fhtjgyt9qduw7xo30k18rjdqjggpm,32q90qcq1wyxom2bbfu71r8uvj1kex,qFDa7Mt6,2020-0188,2020-11-15,01:10:30,01:32:19,NA,incomplete,151,number,1,right,Green_Plus_Chess_2.jpg,Red_Plus_Grid_4.jpg,Blue_Star_Dots_2.jpg,right,716,true,low,false
qFDa7Mt6,3fhtjgyt9qduw7xo30k18rjdqjggpm,32q90qcq1wyxom2bbfu71r8uvj1kex,qFDa7Mt6,2020-0188,2020-11-15,01:10:30,01:32:19,NA,incomplete,152,number,0,left,Green_Triangle_Dots_2.jpg,Red_Plus_Grid_2.jpg,Blue_Triangle_Stripes_3.jpg,left,788,true,low,false
qFDa7Mt6,3fhtjgyt9qduw7xo30k18rjdqjggpm,32q90qcq1wyxom2bbfu71r8uvj1kex,qFDa7Mt6,2020-0188,2020-11-15,01:10:30,01:32:19,NA,incomplete,153,number,1,left,Blue_Star_Chess_1.jpg,Green_Plus_Dots_1.jpg,Red_Star_Grid_2.jpg,left,635,true,low,false
qFDa7Mt6,3fhtjgyt9qduw7xo30k18rjdqjggpm,32q90qcq1wyxom2bbfu71r8uvj1kex,qFDa7Mt6,2020-0188,2020-11-15,01:10:30,01:32:19,NA,incomplete,154,number,0,right,Blue_Plus_Grid_4.jpg,Purple_Plus_Dots_3.jpg,Green_Triangle_Stripes_4.jpg,right,615,true,low,false
qFDa7Mt6,3fhtjgyt9qduw7xo30k18rjdqjggpm,32q90qcq1wyxom2bbfu71r8uvj1kex,qFDa7Mt6,2020-0188,2020-11-15,01:10:30,01:32:19,NA,incomplete,155,number,1,left,Blue_Circle_Chess_3.jpg,Purple_Plus_Dots_3.jpg,Red_Circle_Stripes_1.jpg,left,662,true,low,false
qFDa7Mt6,3fhtjgyt9qduw7xo30k18rjdqjggpm,32q90qcq1wyxom2bbfu71r8uvj1kex,qFDa7Mt6,2020-0188,2020-11-15,01:10:30,01:32:19,NA,incomplete,156,number,1,left,Green_Circle_Dots_3.jpg,Blue_Triangle_Stripes_3.jpg,Red_Circle_Chess_4.jpg,left,745,true,low,false
qFDa7Mt6,3fhtjgyt9qduw7xo30k18rjdqjggpm,32q90qcq1wyxom2bbfu71r8uvj1kex,qFDa7Mt6,2020-0188,2020-11-15,01:10:30,01:32:19,NA,incomplete,157,number,1,right,Blue_Star_Chess_3.jpg,Red_Star_Dots_2.jpg,Purple_Circle_Stripes_3.jpg,right,658,true,low,false
qFDa7Mt6,3fhtjgyt9qduw7xo30k18rjdqjggpm,32q90qcq1wyxom2bbfu71r8uvj1kex,qFDa7Mt6,2020-0188,2020-11-15,01:10:30,01:32:19,NA,incomplete,158,number,1,left,Blue_Circle_Chess_1.jpg,Red_Triangle_Dots_1.jpg,Green_Circle_Stripes_3.jpg,left,585,true,low,false
qFDa7Mt6,3fhtjgyt9qduw7xo30k18rjdqjggpm,32q90qcq1wyxom2bbfu71r8uvj1kex,qFDa7Mt6,2020-0188,2020-11-15,01:10:30,01:32:19,NA,incomplete,159,number,1,left,Purple_Triangle_Dots_1.jpg,Red_Star_Stripes_1.jpg,Green_Triangle_Chess_2.jpg,left,694,true,low,false
qFDa7Mt6,3fhtjgyt9qduw7xo30k18rjdqjggpm,32q90qcq1wyxom2bbfu71r8uvj1kex,qFDa7Mt6,2020-0188,2020-11-15,01:10:30,01:32:19,NA,incomplete,160,shape,1,right,Purple_Triangle_Grid_3.jpg,Red_Star_Chess_3.jpg,Green_Triangle_Stripes_4.jpg,left,841,false,low,false
qFDa7Mt6,3fhtjgyt9qduw7xo30k18rjdqjggpm,32q90qcq1wyxom2bbfu71r8uvj1kex,qFDa7Mt6,2020-0188,2020-11-15,01:10:30,01:32:19,NA,incomplete,161,shape,0,right,Red_Plus_Dots_3.jpg,Green_Star_Stripes_3.jpg,Purple_Plus_Chess_1.jpg,left,644,false,low,false
qFDa7Mt6,3fhtjgyt9qduw7xo30k18rjdqjggpm,32q90qcq1wyxom2bbfu71r8uvj1kex,qFDa7Mt6,2020-0188,2020-11-15,01:10:30,01:32:19,NA,incomplete,162,shape,1,right,Green_Circle_Chess_2.jpg,Blue_Triangle_Dots_2.jpg,Purple_Circle_Stripes_3.jpg,left,681,false,low,false
qFDa7Mt6,3fhtjgyt9qduw7xo30k18rjdqjggpm,32q90qcq1wyxom2bbfu71r8uvj1kex,qFDa7Mt6,2020-0188,2020-11-15,01:10:30,01:32:19,NA,incomplete,163,shape,1,right,Green_Star_Grid_2.jpg,Purple_Triangle_Chess_2.jpg,Red_Star_Stripes_4.jpg,left,593,false,low,false
qFDa7Mt6,3fhtjgyt9qduw7xo30k18rjdqjggpm,32q90qcq1wyxom2bbfu71r8uvj1kex,qFDa7Mt6,2020-0188,2020-11-15,01:10:30,01:32:19,NA,incomplete,164,shape,1,left,Purple_Star_Stripes_2.jpg,Green_Star_Grid_4.jpg,Blue_Circle_Chess_2.jpg,right,720,false,low,false
qFDa7Mt6,3fhtjgyt9qduw7xo30k18rjdqjggpm,32q90qcq1wyxom2bbfu71r8uvj1kex,qFDa7Mt6,2020-0188,2020-11-15,01:10:30,01:32:19,NA,incomplete,165,shape,0,right,Purple_Triangle_Dots_4.jpg,Blue_Star_Stripes_4.jpg,Green_Triangle_Grid_2.jpg,right,721,true,low,false
qFDa7Mt6,3fhtjgyt9qduw7xo30k18rjdqjggpm,32q90qcq1wyxom2bbfu71r8uvj1kex,qFDa7Mt6,2020-0188,2020-11-15,01:10:30,01:32:19,NA,incomplete,166,shape,1,left,Purple_Triangle_Dots_4.jpg,Red_Triangle_Stripes_1.jpg,Blue_Circle_Grid_4.jpg,left,723,true,low,false
qFDa7Mt6,3fhtjgyt9qduw7xo30k18rjdqjggpm,32q90qcq1wyxom2bbfu71r8uvj1kex,qFDa7Mt6,2020-0188,2020-11-15,01:10:30,01:32:19,NA,incomplete,167,shape,1,left,Red_Star_Stripes_4.jpg,Purple_Star_Chess_1.jpg,Green_Plus_Grid_4.jpg,left,697,true,low,false
qFDa7Mt6,3fhtjgyt9qduw7xo30k18rjdqjggpm,32q90qcq1wyxom2bbfu71r8uvj1kex,qFDa7Mt6,2020-0188,2020-11-15,01:10:30,01:32:19,NA,incomplete,168,shape,1,left,Purple_Star_Grid_2.jpg,Red_Star_Stripes_4.jpg,Blue_Circle_Dots_2.jpg,left,660,true,low,false
qFDa7Mt6,3fhtjgyt9qduw7xo30k18rjdqjggpm,32q90qcq1wyxom2bbfu71r8uvj1kex,qFDa7Mt6,2020-0188,2020-11-15,01:10:30,01:32:19,NA,incomplete,169,shape,1,right,Purple_Plus_Chess_4.jpg,Red_Star_Grid_4.jpg,Green_Plus_Dots_2.jpg,right,859,true,low,false
qFDa7Mt6,3fhtjgyt9qduw7xo30k18rjdqjggpm,32q90qcq1wyxom2bbfu71r8uvj1kex,qFDa7Mt6,2020-0188,2020-11-15,01:10:30,01:32:19,NA,incomplete,170,shape,0,right,Blue_Circle_Stripes_4.jpg,Purple_Star_Grid_4.jpg,Green_Circle_Dots_3.jpg,right,508,true,low,false
qFDa7Mt6,3fhtjgyt9qduw7xo30k18rjdqjggpm,32q90qcq1wyxom2bbfu71r8uvj1kex,qFDa7Mt6,2020-0188,2020-11-15,01:10:30,01:32:19,NA,incomplete,171,shape,1,right,Purple_Circle_Stripes_2.jpg,Blue_Plus_Dots_2.jpg,Green_Circle_Grid_3.jpg,right,583,true,low,false
qFDa7Mt6,3fhtjgyt9qduw7xo30k18rjdqjggpm,32q90qcq1wyxom2bbfu71r8uvj1kex,qFDa7Mt6,2020-0188,2020-11-15,01:10:30,01:32:19,NA,incomplete,172,shape,1,right,Purple_Triangle_Chess_1.jpg,Red_Star_Grid_1.jpg,Green_Triangle_Stripes_3.jpg,right,629,true,low,false
qFDa7Mt6,3fhtjgyt9qduw7xo30k18rjdqjggpm,32q90qcq1wyxom2bbfu71r8uvj1kex,qFDa7Mt6,2020-0188,2020-11-15,01:10:30,01:32:19,NA,incomplete,173,shape,1,left,Purple_Star_Chess_4.jpg,Blue_Star_Grid_3.jpg,Green_Triangle_Dots_4.jpg,left,608,true,low,false
qFDa7Mt6,3fhtjgyt9qduw7xo30k18rjdqjggpm,32q90qcq1wyxom2bbfu71r8uvj1kex,qFDa7Mt6,2020-0188,2020-11-15,01:10:30,01:32:19,NA,incomplete,174,shape,1,left,Green_Circle_Chess_2.jpg,Purple_Circle_Stripes_1.jpg,Blue_Star_Grid_2.jpg,left,613,true,low,false
qFDa7Mt6,3fhtjgyt9qduw7xo30k18rjdqjggpm,32q90qcq1wyxom2bbfu71r8uvj1kex,qFDa7Mt6,2020-0188,2020-11-15,01:10:30,01:32:19,NA,incomplete,175,shape,0,left,Purple_Triangle_Chess_2.jpg,Blue_Triangle_Grid_1.jpg,Green_Circle_Stripes_2.jpg,left,683,true,low,false
qFDa7Mt6,3fhtjgyt9qduw7xo30k18rjdqjggpm,32q90qcq1wyxom2bbfu71r8uvj1kex,qFDa7Mt6,2020-0188,2020-11-15,01:10:30,01:32:19,NA,incomplete,176,shape,1,left,Red_Plus_Chess_3.jpg,Purple_Plus_Dots_4.jpg,Blue_Triangle_Stripes_3.jpg,left,724,true,low,false
qFDa7Mt6,3fhtjgyt9qduw7xo30k18rjdqjggpm,32q90qcq1wyxom2bbfu71r8uvj1kex,qFDa7Mt6,2020-0188,2020-11-15,01:10:30,01:32:19,NA,incomplete,177,shape,1,right,Blue_Triangle_Grid_4.jpg,Green_Star_Dots_4.jpg,Purple_Triangle_Chess_2.jpg,right,710,true,low,false
qFDa7Mt6,3fhtjgyt9qduw7xo30k18rjdqjggpm,32q90qcq1wyxom2bbfu71r8uvj1kex,qFDa7Mt6,2020-0188,2020-11-15,01:10:30,01:32:19,NA,incomplete,178,shape,0,left,Blue_Triangle_Dots_1.jpg,Green_Triangle_Stripes_3.jpg,Purple_Star_Grid_1.jpg,left,570,true,low,false
qFDa7Mt6,3fhtjgyt9qduw7xo30k18rjdqjggpm,32q90qcq1wyxom2bbfu71r8uvj1kex,qFDa7Mt6,2020-0188,2020-11-15,01:10:30,01:32:19,NA,incomplete,179,shape,1,right,Green_Circle_Dots_4.jpg,Red_Star_Grid_4.jpg,Blue_Circle_Chess_2.jpg,right,564,true,low,false
qFDa7Mt6,3fhtjgyt9qduw7xo30k18rjdqjggpm,32q90qcq1wyxom2bbfu71r8uvj1kex,qFDa7Mt6,2020-0188,2020-11-15,01:10:30,01:32:19,NA,incomplete,180,number,1,left,Purple_Circle_Dots_2.jpg,Blue_Triangle_Chess_2.jpg,Green_Circle_Grid_4.jpg,right,794,false,low,false
qFDa7Mt6,3fhtjgyt9qduw7xo30k18rjdqjggpm,32q90qcq1wyxom2bbfu71r8uvj1kex,qFDa7Mt6,2020-0188,2020-11-15,01:10:30,01:32:19,NA,incomplete,181,number,1,right,Green_Plus_Dots_1.jpg,Red_Plus_Grid_3.jpg,Purple_Star_Chess_1.jpg,right,602,true,low,false
qFDa7Mt6,3fhtjgyt9qduw7xo30k18rjdqjggpm,32q90qcq1wyxom2bbfu71r8uvj1kex,qFDa7Mt6,2020-0188,2020-11-15,01:10:30,01:32:19,NA,incomplete,182,number,1,right,Purple_Plus_Stripes_3.jpg,Blue_Plus_Dots_4.jpg,Green_Circle_Grid_3.jpg,left,962,false,low,false
qFDa7Mt6,3fhtjgyt9qduw7xo30k18rjdqjggpm,32q90qcq1wyxom2bbfu71r8uvj1kex,qFDa7Mt6,2020-0188,2020-11-15,01:10:30,01:32:19,NA,incomplete,183,number,0,right,Red_Star_Stripes_1.jpg,Blue_Star_Chess_2.jpg,Green_Circle_Grid_1.jpg,right,694,true,low,false
qFDa7Mt6,3fhtjgyt9qduw7xo30k18rjdqjggpm,32q90qcq1wyxom2bbfu71r8uvj1kex,qFDa7Mt6,2020-0188,2020-11-15,01:10:30,01:32:19,NA,incomplete,184,number,1,right,Red_Plus_Grid_1.jpg,Green_Plus_Stripes_4.jpg,Purple_Star_Dots_1.jpg,right,560,true,low,false
qFDa7Mt6,3fhtjgyt9qduw7xo30k18rjdqjggpm,32q90qcq1wyxom2bbfu71r8uvj1kex,qFDa7Mt6,2020-0188,2020-11-15,01:10:30,01:32:19,NA,incomplete,185,number,1,right,Red_Star_Stripes_2.jpg,Green_Star_Dots_1.jpg,Blue_Circle_Grid_2.jpg,right,727,true,low,false
qFDa7Mt6,3fhtjgyt9qduw7xo30k18rjdqjggpm,32q90qcq1wyxom2bbfu71r8uvj1kex,qFDa7Mt6,2020-0188,2020-11-15,01:10:30,01:32:19,NA,incomplete,186,number,1,left,Blue_Triangle_Grid_2.jpg,Red_Star_Dots_2.jpg,Green_Triangle_Stripes_3.jpg,left,947,true,low,false
qFDa7Mt6,3fhtjgyt9qduw7xo30k18rjdqjggpm,32q90qcq1wyxom2bbfu71r8uvj1kex,qFDa7Mt6,2020-0188,2020-11-15,01:10:30,01:32:19,NA,incomplete,187,number,0,left,Green_Star_Dots_1.jpg,Purple_Triangle_Grid_1.jpg,Red_Star_Stripes_2.jpg,left,762,true,low,false
qFDa7Mt6,3fhtjgyt9qduw7xo30k18rjdqjggpm,32q90qcq1wyxom2bbfu71r8uvj1kex,qFDa7Mt6,2020-0188,2020-11-15,01:10:30,01:32:19,NA,incomplete,188,number,1,right,Purple_Plus_Grid_4.jpg,Red_Plus_Chess_1.jpg,Green_Star_Stripes_4.jpg,right,635,true,low,false
qFDa7Mt6,3fhtjgyt9qduw7xo30k18rjdqjggpm,32q90qcq1wyxom2bbfu71r8uvj1kex,qFDa7Mt6,2020-0188,2020-11-15,01:10:30,01:32:19,NA,incomplete,189,number,1,right,Blue_Triangle_Stripes_2.jpg,Purple_Triangle_Grid_1.jpg,Red_Star_Chess_2.jpg,right,789,true,low,false
qFDa7Mt6,3fhtjgyt9qduw7xo30k18rjdqjggpm,32q90qcq1wyxom2bbfu71r8uvj1kex,qFDa7Mt6,2020-0188,2020-11-15,01:10:30,01:32:19,NA,incomplete,190,number,1,right,Purple_Triangle_Grid_1.jpg,Blue_Triangle_Chess_4.jpg,Green_Circle_Stripes_1.jpg,right,660,true,low,false
qFDa7Mt6,3fhtjgyt9qduw7xo30k18rjdqjggpm,32q90qcq1wyxom2bbfu71r8uvj1kex,qFDa7Mt6,2020-0188,2020-11-15,01:10:30,01:32:19,NA,incomplete,191,number,1,left,Red_Plus_Dots_1.jpg,Blue_Star_Stripes_1.jpg,Green_Plus_Grid_4.jpg,left,588,true,low,false
qFDa7Mt6,3fhtjgyt9qduw7xo30k18rjdqjggpm,32q90qcq1wyxom2bbfu71r8uvj1kex,qFDa7Mt6,2020-0188,2020-11-15,01:10:30,01:32:19,NA,incomplete,192,number,1,left,Blue_Triangle_Stripes_3.jpg,Purple_Star_Dots_3.jpg,Green_Triangle_Grid_2.jpg,left,720,true,low,false
qFDa7Mt6,3fhtjgyt9qduw7xo30k18rjdqjggpm,32q90qcq1wyxom2bbfu71r8uvj1kex,qFDa7Mt6,2020-0188,2020-11-15,01:10:30,01:32:19,NA,incomplete,193,number,1,right,Purple_Star_Chess_1.jpg,Red_Star_Dots_2.jpg,Blue_Triangle_Stripes_1.jpg,right,617,true,low,false
qFDa7Mt6,3fhtjgyt9qduw7xo30k18rjdqjggpm,32q90qcq1wyxom2bbfu71r8uvj1kex,qFDa7Mt6,2020-0188,2020-11-15,01:10:30,01:32:19,NA,incomplete,194,number,1,right,Green_Triangle_Chess_1.jpg,Blue_Triangle_Stripes_2.jpg,Purple_Circle_Dots_1.jpg,right,805,true,low,false
qFDa7Mt6,3fhtjgyt9qduw7xo30k18rjdqjggpm,32q90qcq1wyxom2bbfu71r8uvj1kex,qFDa7Mt6,2020-0188,2020-11-15,01:10:30,01:32:19,NA,incomplete,195,number,1,left,Red_Circle_Chess_2.jpg,Purple_Star_Grid_2.jpg,Green_Circle_Dots_3.jpg,left,876,true,low,false
qFDa7Mt6,3fhtjgyt9qduw7xo30k18rjdqjggpm,32q90qcq1wyxom2bbfu71r8uvj1kex,qFDa7Mt6,2020-0188,2020-11-15,01:10:30,01:32:19,NA,incomplete,196,number,1,left,Green_Plus_Dots_4.jpg,Blue_Circle_Stripes_4.jpg,Purple_Plus_Chess_1.jpg,left,789,true,low,false
qFDa7Mt6,3fhtjgyt9qduw7xo30k18rjdqjggpm,32q90qcq1wyxom2bbfu71r8uvj1kex,qFDa7Mt6,2020-0188,2020-11-15,01:10:30,01:32:19,NA,incomplete,197,number,1,left,Blue_Plus_Dots_4.jpg,Red_Circle_Grid_4.jpg,Green_Plus_Stripes_2.jpg,left,780,true,low,false
qFDa7Mt6,3fhtjgyt9qduw7xo30k18rjdqjggpm,32q90qcq1wyxom2bbfu71r8uvj1kex,qFDa7Mt6,2020-0188,2020-11-15,01:10:30,01:32:19,NA,incomplete,198,number,1,right,Red_Plus_Dots_4.jpg,Purple_Plus_Chess_1.jpg,Blue_Star_Stripes_4.jpg,right,654,true,low,false
qFDa7Mt6,3fhtjgyt9qduw7xo30k18rjdqjggpm,32q90qcq1wyxom2bbfu71r8uvj1kex,qFDa7Mt6,2020-0188,2020-11-15,01:10:30,01:32:19,NA,incomplete,199,number,1,left,Blue_Circle_Dots_1.jpg,Purple_Triangle_Stripes_1.jpg,Green_Circle_Chess_3.jpg,left,599,true,low,false
qFDa7Mt6,3fhtjgyt9qduw7xo30k18rjdqjggpm,32q90qcq1wyxom2bbfu71r8uvj1kex,qFDa7Mt6,2020-0188,2020-11-15,01:10:30,01:32:19,NA,incomplete,200,shape,1,left,Blue_Star_Stripes_3.jpg,Red_Star_Dots_2.jpg,Green_Plus_Grid_3.jpg,right,703,false,low,false
qFDa7Mt6,3fhtjgyt9qduw7xo30k18rjdqjggpm,32q90qcq1wyxom2bbfu71r8uvj1kex,qFDa7Mt6,2020-0188,2020-11-15,01:10:30,01:32:19,NA,incomplete,201,shape,0,right,Purple_Star_Chess_2.jpg,Red_Triangle_Grid_2.jpg,Green_Star_Stripes_4.jpg,left,645,false,low,false
qFDa7Mt6,3fhtjgyt9qduw7xo30k18rjdqjggpm,32q90qcq1wyxom2bbfu71r8uvj1kex,qFDa7Mt6,2020-0188,2020-11-15,01:10:30,01:32:19,NA,incomplete,202,shape,1,left,Purple_Star_Chess_3.jpg,Red_Star_Stripes_2.jpg,Blue_Triangle_Grid_3.jpg,right,628,false,low,false
qFDa7Mt6,3fhtjgyt9qduw7xo30k18rjdqjggpm,32q90qcq1wyxom2bbfu71r8uvj1kex,qFDa7Mt6,2020-0188,2020-11-15,01:10:30,01:32:19,NA,incomplete,203,shape,1,left,Purple_Triangle_Grid_1.jpg,Red_Triangle_Chess_2.jpg,Blue_Star_Dots_1.jpg,right,631,false,low,false
qFDa7Mt6,3fhtjgyt9qduw7xo30k18rjdqjggpm,32q90qcq1wyxom2bbfu71r8uvj1kex,qFDa7Mt6,2020-0188,2020-11-15,01:10:30,01:32:19,NA,incomplete,204,shape,1,right,Green_Plus_Grid_2.jpg,Red_Star_Dots_2.jpg,Blue_Plus_Stripes_1.jpg,right,659,true,low,false
qFDa7Mt6,3fhtjgyt9qduw7xo30k18rjdqjggpm,32q90qcq1wyxom2bbfu71r8uvj1kex,qFDa7Mt6,2020-0188,2020-11-15,01:10:30,01:32:19,NA,incomplete,205,shape,1,left,Blue_Circle_Grid_3.jpg,Red_Circle_Dots_2.jpg,Purple_Plus_Chess_3.jpg,right,727,false,low,false
qFDa7Mt6,3fhtjgyt9qduw7xo30k18rjdqjggpm,32q90qcq1wyxom2bbfu71r8uvj1kex,qFDa7Mt6,2020-0188,2020-11-15,01:10:30,01:32:19,NA,incomplete,206,shape,1,left,Red_Triangle_Stripes_1.jpg,Purple_Triangle_Dots_4.jpg,Blue_Star_Grid_1.jpg,left,592,true,low,false
qFDa7Mt6,3fhtjgyt9qduw7xo30k18rjdqjggpm,32q90qcq1wyxom2bbfu71r8uvj1kex,qFDa7Mt6,2020-0188,2020-11-15,01:10:30,01:32:19,NA,incomplete,207,shape,1,right,Blue_Circle_Stripes_4.jpg,Red_Star_Chess_4.jpg,Green_Circle_Dots_3.jpg,right,537,true,low,false
qFDa7Mt6,3fhtjgyt9qduw7xo30k18rjdqjggpm,32q90qcq1wyxom2bbfu71r8uvj1kex,qFDa7Mt6,2020-0188,2020-11-15,01:10:30,01:32:19,NA,incomplete,208,shape,1,right,Green_Plus_Stripes_1.jpg,Purple_Circle_Dots_1.jpg,Blue_Plus_Chess_4.jpg,right,807,true,low,false
qFDa7Mt6,3fhtjgyt9qduw7xo30k18rjdqjggpm,32q90qcq1wyxom2bbfu71r8uvj1kex,qFDa7Mt6,2020-0188,2020-11-15,01:10:30,01:32:19,NA,incomplete,209,shape,0,left,Red_Star_Dots_3.jpg,Green_Star_Stripes_4.jpg,Blue_Triangle_Grid_3.jpg,right,670,false,low,false
qFDa7Mt6,3fhtjgyt9qduw7xo30k18rjdqjggpm,32q90qcq1wyxom2bbfu71r8uvj1kex,qFDa7Mt6,2020-0188,2020-11-15,01:10:30,01:32:19,NA,incomplete,210,shape,1,right,Blue_Plus_Stripes_2.jpg,Green_Triangle_Chess_2.jpg,Red_Plus_Dots_3.jpg,left,676,false,low,false
qFDa7Mt6,3fhtjgyt9qduw7xo30k18rjdqjggpm,32q90qcq1wyxom2bbfu71r8uvj1kex,qFDa7Mt6,2020-0188,2020-11-15,01:10:30,01:32:19,NA,incomplete,211,shape,0,right,Green_Star_Dots_3.jpg,Blue_Plus_Chess_3.jpg,Purple_Star_Stripes_2.jpg,right,730,true,low,false
qFDa7Mt6,3fhtjgyt9qduw7xo30k18rjdqjggpm,32q90qcq1wyxom2bbfu71r8uvj1kex,qFDa7Mt6,2020-0188,2020-11-15,01:10:30,01:32:19,NA,incomplete,212,shape,1,left,Green_Circle_Stripes_3.jpg,Purple_Circle_Grid_1.jpg,Blue_Plus_Dots_3.jpg,left,1015,true,low,false
qFDa7Mt6,3fhtjgyt9qduw7xo30k18rjdqjggpm,32q90qcq1wyxom2bbfu71r8uvj1kex,qFDa7Mt6,2020-0188,2020-11-15,01:10:30,01:32:19,NA,incomplete,213,shape,0,left,Red_Triangle_Grid_3.jpg,Blue_Triangle_Stripes_1.jpg,Green_Star_Chess_3.jpg,left,796,true,low,false
qFDa7Mt6,3fhtjgyt9qduw7xo30k18rjdqjggpm,32q90qcq1wyxom2bbfu71r8uvj1kex,qFDa7Mt6,2020-0188,2020-11-15,01:10:30,01:32:19,NA,incomplete,214,shape,1,left,Purple_Star_Stripes_4.jpg,Blue_Star_Dots_1.jpg,Green_Plus_Grid_4.jpg,left,683,true,low,false
qFDa7Mt6,3fhtjgyt9qduw7xo30k18rjdqjggpm,32q90qcq1wyxom2bbfu71r8uvj1kex,qFDa7Mt6,2020-0188,2020-11-15,01:10:30,01:32:19,NA,incomplete,215,shape,1,left,Green_Plus_Grid_2.jpg,Red_Plus_Dots_4.jpg,Blue_Circle_Stripes_2.jpg,left,715,true,low,false
qFDa7Mt6,3fhtjgyt9qduw7xo30k18rjdqjggpm,32q90qcq1wyxom2bbfu71r8uvj1kex,qFDa7Mt6,2020-0188,2020-11-15,01:10:30,01:32:19,NA,incomplete,216,shape,1,left,Purple_Triangle_Dots_4.jpg,Red_Triangle_Stripes_2.jpg,Blue_Circle_Chess_4.jpg,left,653,true,low,false
qFDa7Mt6,3fhtjgyt9qduw7xo30k18rjdqjggpm,32q90qcq1wyxom2bbfu71r8uvj1kex,qFDa7Mt6,2020-0188,2020-11-15,01:10:30,01:32:19,NA,incomplete,217,shape,0,left,Blue_Triangle_Chess_1.jpg,Red_Triangle_Stripes_2.jpg,Purple_Circle_Dots_1.jpg,left,591,true,low,false
qFDa7Mt6,3fhtjgyt9qduw7xo30k18rjdqjggpm,32q90qcq1wyxom2bbfu71r8uvj1kex,qFDa7Mt6,2020-0188,2020-11-15,01:10:30,01:32:19,NA,incomplete,218,shape,1,left,Green_Star_Stripes_2.jpg,Purple_Star_Grid_4.jpg,Blue_Plus_Chess_2.jpg,left,776,true,low,false
qFDa7Mt6,3fhtjgyt9qduw7xo30k18rjdqjggpm,32q90qcq1wyxom2bbfu71r8uvj1kex,qFDa7Mt6,2020-0188,2020-11-15,01:10:30,01:32:19,NA,incomplete,219,shape,1,right,Red_Triangle_Grid_2.jpg,Purple_Circle_Stripes_2.jpg,Blue_Triangle_Dots_1.jpg,right,640,true,low,false
qFDa7Mt6,3fhtjgyt9qduw7xo30k18rjdqjggpm,32q90qcq1wyxom2bbfu71r8uvj1kex,qFDa7Mt6,2020-0188,2020-11-15,01:10:30,01:32:19,NA,incomplete,220,number,1,left,Blue_Triangle_Chess_1.jpg,Green_Circle_Grid_1.jpg,Purple_Triangle_Dots_2.jpg,right,596,false,low,false
qFDa7Mt6,3fhtjgyt9qduw7xo30k18rjdqjggpm,32q90qcq1wyxom2bbfu71r8uvj1kex,qFDa7Mt6,2020-0188,2020-11-15,01:10:30,01:32:19,NA,incomplete,221,number,1,left,Red_Triangle_Grid_1.jpg,Purple_Circle_Stripes_1.jpg,Blue_Triangle_Chess_4.jpg,right,602,false,low,false
qFDa7Mt6,3fhtjgyt9qduw7xo30k18rjdqjggpm,32q90qcq1wyxom2bbfu71r8uvj1kex,qFDa7Mt6,2020-0188,2020-11-15,01:10:30,01:32:19,NA,incomplete,222,number,1,left,Blue_Triangle_Dots_1.jpg,Purple_Plus_Stripes_1.jpg,Green_Triangle_Chess_4.jpg,right,572,false,low,false
qFDa7Mt6,3fhtjgyt9qduw7xo30k18rjdqjggpm,32q90qcq1wyxom2bbfu71r8uvj1kex,qFDa7Mt6,2020-0188,2020-11-15,01:10:30,01:32:19,NA,incomplete,223,number,1,right,Purple_Star_Grid_3.jpg,Green_Star_Stripes_4.jpg,Red_Plus_Dots_3.jpg,right,732,true,low,false
qFDa7Mt6,3fhtjgyt9qduw7xo30k18rjdqjggpm,32q90qcq1wyxom2bbfu71r8uvj1kex,qFDa7Mt6,2020-0188,2020-11-15,01:10:30,01:32:19,NA,incomplete,224,number,1,right,Green_Triangle_Chess_2.jpg,Purple_Triangle_Dots_3.jpg,Blue_Circle_Grid_2.jpg,right,772,true,low,false
qFDa7Mt6,3fhtjgyt9qduw7xo30k18rjdqjggpm,32q90qcq1wyxom2bbfu71r8uvj1kex,qFDa7Mt6,2020-0188,2020-11-15,01:10:30,01:32:19,NA,incomplete,225,number,0,right,Green_Circle_Grid_3.jpg,Blue_Circle_Dots_2.jpg,Purple_Triangle_Chess_3.jpg,right,708,true,low,false
qFDa7Mt6,3fhtjgyt9qduw7xo30k18rjdqjggpm,32q90qcq1wyxom2bbfu71r8uvj1kex,qFDa7Mt6,2020-0188,2020-11-15,01:10:30,01:32:19,NA,incomplete,226,number,1,right,Green_Circle_Chess_1.jpg,Purple_Circle_Dots_4.jpg,Red_Triangle_Stripes_1.jpg,right,805,true,low,false
qFDa7Mt6,3fhtjgyt9qduw7xo30k18rjdqjggpm,32q90qcq1wyxom2bbfu71r8uvj1kex,qFDa7Mt6,2020-0188,2020-11-15,01:10:30,01:32:19,NA,incomplete,227,number,1,left,Purple_Plus_Stripes_3.jpg,Blue_Circle_Grid_3.jpg,Green_Plus_Chess_1.jpg,left,755,true,low,false
qFDa7Mt6,3fhtjgyt9qduw7xo30k18rjdqjggpm,32q90qcq1wyxom2bbfu71r8uvj1kex,qFDa7Mt6,2020-0188,2020-11-15,01:10:30,01:32:19,NA,incomplete,228,number,0,left,Green_Star_Stripes_4.jpg,Blue_Circle_Grid_4.jpg,Purple_Star_Chess_2.jpg,left,777,true,low,false
qFDa7Mt6,3fhtjgyt9qduw7xo30k18rjdqjggpm,32q90qcq1wyxom2bbfu71r8uvj1kex,qFDa7Mt6,2020-0188,2020-11-15,01:10:30,01:32:19,NA,incomplete,229,number,1,left,Purple_Star_Stripes_3.jpg,Blue_Circle_Dots_3.jpg,Green_Star_Chess_1.jpg,left,616,true,low,false
qFDa7Mt6,3fhtjgyt9qduw7xo30k18rjdqjggpm,32q90qcq1wyxom2bbfu71r8uvj1kex,qFDa7Mt6,2020-0188,2020-11-15,01:10:30,01:32:19,NA,incomplete,230,number,0,left,Red_Triangle_Chess_2.jpg,Purple_Circle_Grid_2.jpg,Green_Triangle_Stripes_1.jpg,right,530,false,low,false
qFDa7Mt6,3fhtjgyt9qduw7xo30k18rjdqjggpm,32q90qcq1wyxom2bbfu71r8uvj1kex,qFDa7Mt6,2020-0188,2020-11-15,01:10:30,01:32:19,NA,incomplete,231,number,1,left,Blue_Plus_Dots_3.jpg,Red_Star_Stripes_3.jpg,Purple_Plus_Chess_1.jpg,right,1016,false,low,false
qFDa7Mt6,3fhtjgyt9qduw7xo30k18rjdqjggpm,32q90qcq1wyxom2bbfu71r8uvj1kex,qFDa7Mt6,2020-0188,2020-11-15,01:10:30,01:32:19,NA,incomplete,232,number,1,right,Blue_Star_Chess_2.jpg,Red_Star_Stripes_4.jpg,Purple_Triangle_Dots_2.jpg,right,670,true,low,false
qFDa7Mt6,3fhtjgyt9qduw7xo30k18rjdqjggpm,32q90qcq1wyxom2bbfu71r8uvj1kex,qFDa7Mt6,2020-0188,2020-11-15,01:10:30,01:32:19,NA,incomplete,233,number,1,left,Blue_Star_Chess_2.jpg,Purple_Triangle_Dots_2.jpg,Red_Star_Stripes_3.jpg,left,870,true,low,false
qFDa7Mt6,3fhtjgyt9qduw7xo30k18rjdqjggpm,32q90qcq1wyxom2bbfu71r8uvj1kex,qFDa7Mt6,2020-0188,2020-11-15,01:10:30,01:32:19,NA,incomplete,234,number,1,left,Green_Triangle_Dots_4.jpg,Purple_Star_Stripes_4.jpg,Blue_Triangle_Chess_3.jpg,right,884,false,low,false
qFDa7Mt6,3fhtjgyt9qduw7xo30k18rjdqjggpm,32q90qcq1wyxom2bbfu71r8uvj1kex,qFDa7Mt6,2020-0188,2020-11-15,01:10:30,01:32:19,NA,incomplete,235,number,1,left,Purple_Circle_Chess_2.jpg,Green_Star_Dots_2.jpg,Red_Circle_Stripes_1.jpg,right,645,false,low,false
qFDa7Mt6,3fhtjgyt9qduw7xo30k18rjdqjggpm,32q90qcq1wyxom2bbfu71r8uvj1kex,qFDa7Mt6,2020-0188,2020-11-15,01:10:30,01:32:19,NA,incomplete,236,number,1,right,Red_Triangle_Dots_3.jpg,Green_Triangle_Stripes_2.jpg,Purple_Star_Grid_3.jpg,right,1121,true,low,false
qFDa7Mt6,3fhtjgyt9qduw7xo30k18rjdqjggpm,32q90qcq1wyxom2bbfu71r8uvj1kex,qFDa7Mt6,2020-0188,2020-11-15,01:10:30,01:32:19,NA,incomplete,237,number,0,left,Red_Star_Grid_3.jpg,Blue_Circle_Dots_3.jpg,Purple_Star_Stripes_1.jpg,left,774,true,low,false
qFDa7Mt6,3fhtjgyt9qduw7xo30k18rjdqjggpm,32q90qcq1wyxom2bbfu71r8uvj1kex,qFDa7Mt6,2020-0188,2020-11-15,01:10:30,01:32:19,NA,incomplete,238,number,1,left,Green_Plus_Dots_1.jpg,Purple_Star_Grid_1.jpg,Blue_Plus_Chess_2.jpg,left,636,true,low,false
qFDa7Mt6,3fhtjgyt9qduw7xo30k18rjdqjggpm,32q90qcq1wyxom2bbfu71r8uvj1kex,qFDa7Mt6,2020-0188,2020-11-15,01:10:30,01:32:19,NA,incomplete,239,number,1,right,Blue_Plus_Dots_1.jpg,Red_Plus_Stripes_3.jpg,Purple_Triangle_Grid_1.jpg,right,641,true,low,false
qFDa7Mt6,3fhtjgyt9qduw7xo30k18rjdqjggpm,32q90qcq1wyxom2bbfu71r8uvj1kex,qFDa7Mt6,2020-0188,2020-11-15,01:10:30,01:32:19,1268076,1309505,NA,NA,NA,NA,NA,NA,NA,NA,NA,NA,NA,undefined
