workerId,hitId,assignmentId,subject,studyid,exp_date,exp_start,exp_end,time_start,time_end,trial,type,reward_validity,answer,image_top,image_left,image_right,response,response_time,response_acc,volatility,age,race,gender,ethnicity,color,vision,neuro,practice
Orz2OMCv,33ixyhizc8v0km0rv7j1cbq82t9e2g,32z9zlut1pxsynesz8u6tbmg74qoho,Orz2OMCv,2020-0188,2020-11-15,00:50:02,01:10:24,NA,incomplete,0,color,1,left,Green_Plus_Grid_3.jpg,Green_Triangle_Stripes_2.jpg,Purple_Star_Dots_3.jpg,left,918.8650000005728,true,NA,NA,NA,NA,NA,NA,NA,NA,true
Orz2OMCv,33ixyhizc8v0km0rv7j1cbq82t9e2g,32z9zlut1pxsynesz8u6tbmg74qoho,Orz2OMCv,2020-0188,2020-11-15,00:50:02,01:10:24,NA,incomplete,1,color,1,right,Blue_Circle_Grid_1.jpg,Green_Plus_Chess_1.jpg,Blue_Star_Dots_2.jpg,right,619.3399999992689,true,NA,NA,NA,NA,NA,NA,NA,NA,true
Orz2OMCv,33ixyhizc8v0km0rv7j1cbq82t9e2g,32z9zlut1pxsynesz8u6tbmg74qoho,Orz2OMCv,2020-0188,2020-11-15,00:50:02,01:10:24,NA,incomplete,2,color,0,left,Purple_Triangle_Stripes_4.jpg,Purple_Plus_Grid_3.jpg,Red_Star_Dots_4.jpg,left,682.4349999997066,true,NA,NA,NA,NA,NA,NA,NA,NA,true
Orz2OMCv,33ixyhizc8v0km0rv7j1cbq82t9e2g,32z9zlut1pxsynesz8u6tbmg74qoho,Orz2OMCv,2020-0188,2020-11-15,00:50:02,01:10:24,NA,incomplete,3,color,0,left,Red_Circle_Grid_1.jpg,Red_Star_Stripes_3.jpg,Blue_Plus_Chess_1.jpg,left,771.6799999998184,true,NA,NA,NA,NA,NA,NA,NA,NA,true
Orz2OMCv,33ixyhizc8v0km0rv7j1cbq82t9e2g,32z9zlut1pxsynesz8u6tbmg74qoho,Orz2OMCv,2020-0188,2020-11-15,00:50:02,01:10:24,NA,incomplete,4,color,1,left,Red_Circle_Dots_3.jpg,Red_Triangle_Grid_2.jpg,Green_Plus_Stripes_3.jpg,left,1071.290000000794,true,NA,NA,NA,NA,NA,NA,NA,NA,true
Orz2OMCv,33ixyhizc8v0km0rv7j1cbq82t9e2g,32z9zlut1pxsynesz8u6tbmg74qoho,Orz2OMCv,2020-0188,2020-11-15,00:50:02,01:10:24,NA,incomplete,5,color,1,right,Green_Star_Dots_2.jpg,Purple_Plus_Chess_2.jpg,Green_Triangle_Grid_1.jpg,right,784.5100000004168,true,NA,NA,NA,NA,NA,NA,NA,NA,true
Orz2OMCv,33ixyhizc8v0km0rv7j1cbq82t9e2g,32z9zlut1pxsynesz8u6tbmg74qoho,Orz2OMCv,2020-0188,2020-11-15,00:50:02,01:10:24,NA,incomplete,6,color,1,left,Red_Triangle_Grid_1.jpg,Red_Circle_Chess_3.jpg,Green_Star_Stripes_1.jpg,left,516.9399999995367,true,NA,NA,NA,NA,NA,NA,NA,NA,true
Orz2OMCv,33ixyhizc8v0km0rv7j1cbq82t9e2g,32z9zlut1pxsynesz8u6tbmg74qoho,Orz2OMCv,2020-0188,2020-11-15,00:50:02,01:10:24,NA,incomplete,7,color,1,left,Blue_Circle_Dots_4.jpg,Blue_Triangle_Stripes_1.jpg,Red_Plus_Grid_4.jpg,left,660.1700000001001,true,NA,NA,NA,NA,NA,NA,NA,NA,true
Orz2OMCv,33ixyhizc8v0km0rv7j1cbq82t9e2g,32z9zlut1pxsynesz8u6tbmg74qoho,Orz2OMCv,2020-0188,2020-11-15,00:50:02,01:10:24,NA,incomplete,8,color,1,left,Blue_Triangle_Grid_4.jpg,Blue_Plus_Chess_2.jpg,Red_Star_Stripes_4.jpg,left,620.5749999998952,true,NA,NA,NA,NA,NA,NA,NA,NA,true
Orz2OMCv,33ixyhizc8v0km0rv7j1cbq82t9e2g,32z9zlut1pxsynesz8u6tbmg74qoho,Orz2OMCv,2020-0188,2020-11-15,00:50:02,01:10:24,NA,incomplete,9,color,1,right,Red_Plus_Grid_4.jpg,Purple_Triangle_Chess_4.jpg,Red_Circle_Stripes_3.jpg,right,686.9599999999627,true,NA,NA,NA,NA,NA,NA,NA,NA,true
Orz2OMCv,33ixyhizc8v0km0rv7j1cbq82t9e2g,32z9zlut1pxsynesz8u6tbmg74qoho,Orz2OMCv,2020-0188,2020-11-15,00:50:02,01:10:24,NA,incomplete,10,color,0,left,Green_Triangle_Stripes_4.jpg,Green_Circle_Chess_3.jpg,Purple_Plus_Grid_4.jpg,left,574.9100000002654,true,NA,NA,NA,NA,NA,NA,NA,NA,true
Orz2OMCv,33ixyhizc8v0km0rv7j1cbq82t9e2g,32z9zlut1pxsynesz8u6tbmg74qoho,Orz2OMCv,2020-0188,2020-11-15,00:50:02,01:10:24,NA,incomplete,11,color,1,right,Red_Triangle_Stripes_3.jpg,Green_Plus_Chess_3.jpg,Red_Star_Dots_2.jpg,right,701.3900000001304,true,NA,NA,NA,NA,NA,NA,NA,NA,true
Orz2OMCv,33ixyhizc8v0km0rv7j1cbq82t9e2g,32z9zlut1pxsynesz8u6tbmg74qoho,Orz2OMCv,2020-0188,2020-11-15,00:50:02,01:10:24,NA,incomplete,12,color,1,left,Green_Star_Stripes_1.jpg,Green_Triangle_Dots_3.jpg,Red_Plus_Grid_1.jpg,left,508.8299999998417,true,NA,NA,NA,NA,NA,NA,NA,NA,true
Orz2OMCv,33ixyhizc8v0km0rv7j1cbq82t9e2g,32z9zlut1pxsynesz8u6tbmg74qoho,Orz2OMCv,2020-0188,2020-11-15,00:50:02,01:10:24,NA,incomplete,13,color,1,left,Purple_Circle_Chess_1.jpg,Purple_Plus_Stripes_4.jpg,Red_Star_Dots_1.jpg,left,539.6250000003492,true,NA,NA,NA,NA,NA,NA,NA,NA,true
Orz2OMCv,33ixyhizc8v0km0rv7j1cbq82t9e2g,32z9zlut1pxsynesz8u6tbmg74qoho,Orz2OMCv,2020-0188,2020-11-15,00:50:02,01:10:24,NA,incomplete,14,color,1,right,Green_Plus_Grid_3.jpg,Purple_Star_Chess_3.jpg,Green_Triangle_Dots_4.jpg,right,537.8250000004191,true,NA,NA,NA,NA,NA,NA,NA,NA,true
Orz2OMCv,33ixyhizc8v0km0rv7j1cbq82t9e2g,32z9zlut1pxsynesz8u6tbmg74qoho,Orz2OMCv,2020-0188,2020-11-15,00:50:02,01:10:24,NA,incomplete,15,color,1,right,Blue_Triangle_Chess_1.jpg,Green_Plus_Grid_1.jpg,Blue_Star_Dots_3.jpg,right,487.4749999998603,true,NA,NA,NA,NA,NA,NA,NA,NA,true
Orz2OMCv,33ixyhizc8v0km0rv7j1cbq82t9e2g,32z9zlut1pxsynesz8u6tbmg74qoho,Orz2OMCv,2020-0188,2020-11-15,00:50:02,01:10:24,NA,incomplete,16,color,1,right,Green_Triangle_Grid_4.jpg,Red_Star_Stripes_4.jpg,Green_Circle_Dots_3.jpg,right,596.4800000002142,true,NA,NA,NA,NA,NA,NA,NA,NA,true
Orz2OMCv,33ixyhizc8v0km0rv7j1cbq82t9e2g,32z9zlut1pxsynesz8u6tbmg74qoho,Orz2OMCv,2020-0188,2020-11-15,00:50:02,01:10:24,NA,incomplete,17,color,0,right,Green_Plus_Dots_1.jpg,Red_Star_Stripes_1.jpg,Green_Triangle_Chess_2.jpg,right,487.7949999999255,true,NA,NA,NA,NA,NA,NA,NA,NA,true
Orz2OMCv,33ixyhizc8v0km0rv7j1cbq82t9e2g,32z9zlut1pxsynesz8u6tbmg74qoho,Orz2OMCv,2020-0188,2020-11-15,00:50:02,01:10:24,NA,incomplete,18,color,0,left,Red_Plus_Stripes_2.jpg,Red_Circle_Dots_3.jpg,Purple_Star_Grid_2.jpg,left,663.9899999999907,true,NA,NA,NA,NA,NA,NA,NA,NA,true
Orz2OMCv,33ixyhizc8v0km0rv7j1cbq82t9e2g,32z9zlut1pxsynesz8u6tbmg74qoho,Orz2OMCv,2020-0188,2020-11-15,00:50:02,01:10:24,NA,incomplete,19,color,1,left,Red_Circle_Chess_1.jpg,Red_Triangle_Dots_3.jpg,Blue_Star_Stripes_1.jpg,right,794.1350000000093,false,NA,NA,NA,NA,NA,NA,NA,NA,true
Orz2OMCv,33ixyhizc8v0km0rv7j1cbq82t9e2g,32z9zlut1pxsynesz8u6tbmg74qoho,Orz2OMCv,2020-0188,2020-11-15,00:50:02,01:10:24,NA,incomplete,20,number,1,right,Green_Plus_Chess_2.jpg,Green_Triangle_Dots_3.jpg,Red_Star_Grid_2.jpg,right,924.7649999996647,true,NA,NA,NA,NA,NA,NA,NA,NA,true
Orz2OMCv,33ixyhizc8v0km0rv7j1cbq82t9e2g,32z9zlut1pxsynesz8u6tbmg74qoho,Orz2OMCv,2020-0188,2020-11-15,00:50:02,01:10:24,NA,incomplete,21,number,1,left,Purple_Triangle_Dots_3.jpg,Red_Plus_Chess_3.jpg,Purple_Star_Grid_1.jpg,left,666.0799999999581,true,NA,NA,NA,NA,NA,NA,NA,NA,true
Orz2OMCv,33ixyhizc8v0km0rv7j1cbq82t9e2g,32z9zlut1pxsynesz8u6tbmg74qoho,Orz2OMCv,2020-0188,2020-11-15,00:50:02,01:10:24,NA,incomplete,22,number,1,right,Purple_Star_Chess_4.jpg,Purple_Triangle_Dots_1.jpg,Green_Plus_Stripes_4.jpg,right,835.5899999996182,true,NA,NA,NA,NA,NA,NA,NA,NA,true
Orz2OMCv,33ixyhizc8v0km0rv7j1cbq82t9e2g,32z9zlut1pxsynesz8u6tbmg74qoho,Orz2OMCv,2020-0188,2020-11-15,00:50:02,01:10:24,NA,incomplete,23,number,1,left,Green_Star_Stripes_1.jpg,Purple_Triangle_Grid_1.jpg,Green_Circle_Chess_3.jpg,left,772.5499999996973,true,NA,NA,NA,NA,NA,NA,NA,NA,true
Orz2OMCv,33ixyhizc8v0km0rv7j1cbq82t9e2g,32z9zlut1pxsynesz8u6tbmg74qoho,Orz2OMCv,2020-0188,2020-11-15,00:50:02,01:10:24,NA,incomplete,24,number,0,left,Blue_Star_Dots_1.jpg,Green_Triangle_Chess_1.jpg,Blue_Plus_Grid_2.jpg,left,689.1550000000279,true,NA,NA,NA,NA,NA,NA,NA,NA,true
Orz2OMCv,33ixyhizc8v0km0rv7j1cbq82t9e2g,32z9zlut1pxsynesz8u6tbmg74qoho,Orz2OMCv,2020-0188,2020-11-15,00:50:02,01:10:24,NA,incomplete,25,number,0,right,Red_Triangle_Grid_3.jpg,Red_Plus_Dots_4.jpg,Blue_Circle_Chess_3.jpg,right,809.7950000001583,true,NA,NA,NA,NA,NA,NA,NA,NA,true
Orz2OMCv,33ixyhizc8v0km0rv7j1cbq82t9e2g,32z9zlut1pxsynesz8u6tbmg74qoho,Orz2OMCv,2020-0188,2020-11-15,00:50:02,01:10:24,NA,incomplete,26,number,1,right,Red_Triangle_Chess_1.jpg,Red_Star_Dots_2.jpg,Green_Circle_Grid_1.jpg,right,888.8850000002421,true,NA,NA,NA,NA,NA,NA,NA,NA,true
Orz2OMCv,33ixyhizc8v0km0rv7j1cbq82t9e2g,32z9zlut1pxsynesz8u6tbmg74qoho,Orz2OMCv,2020-0188,2020-11-15,00:50:02,01:10:24,NA,incomplete,27,number,1,right,Blue_Triangle_Dots_4.jpg,Blue_Plus_Grid_1.jpg,Red_Star_Stripes_4.jpg,right,936.5850000004284,true,NA,NA,NA,NA,NA,NA,NA,NA,true
Orz2OMCv,33ixyhizc8v0km0rv7j1cbq82t9e2g,32z9zlut1pxsynesz8u6tbmg74qoho,Orz2OMCv,2020-0188,2020-11-15,00:50:02,01:10:24,NA,incomplete,28,number,1,right,Blue_Star_Dots_1.jpg,Blue_Circle_Grid_4.jpg,Green_Triangle_Stripes_1.jpg,right,678.1799999998184,true,NA,NA,NA,NA,NA,NA,NA,NA,true
Orz2OMCv,33ixyhizc8v0km0rv7j1cbq82t9e2g,32z9zlut1pxsynesz8u6tbmg74qoho,Orz2OMCv,2020-0188,2020-11-15,00:50:02,01:10:24,NA,incomplete,29,number,1,left,Blue_Plus_Chess_4.jpg,Purple_Triangle_Stripes_4.jpg,Blue_Circle_Dots_2.jpg,left,693.349999999511,true,NA,NA,NA,NA,NA,NA,NA,NA,true
Orz2OMCv,33ixyhizc8v0km0rv7j1cbq82t9e2g,32z9zlut1pxsynesz8u6tbmg74qoho,Orz2OMCv,2020-0188,2020-11-15,00:50:02,01:10:24,NA,incomplete,30,number,1,left,Purple_Plus_Grid_4.jpg,Green_Star_Dots_4.jpg,Purple_Triangle_Stripes_3.jpg,left,730.900000000489,true,NA,NA,NA,NA,NA,NA,NA,NA,true
Orz2OMCv,33ixyhizc8v0km0rv7j1cbq82t9e2g,32z9zlut1pxsynesz8u6tbmg74qoho,Orz2OMCv,2020-0188,2020-11-15,00:50:02,01:10:24,NA,incomplete,31,number,1,left,Red_Star_Chess_1.jpg,Blue_Circle_Dots_1.jpg,Red_Triangle_Grid_2.jpg,left,681.0100000002421,true,NA,NA,NA,NA,NA,NA,NA,NA,true
Orz2OMCv,33ixyhizc8v0km0rv7j1cbq82t9e2g,32z9zlut1pxsynesz8u6tbmg74qoho,Orz2OMCv,2020-0188,2020-11-15,00:50:02,01:10:24,NA,incomplete,32,number,1,left,Purple_Plus_Stripes_2.jpg,Blue_Star_Grid_2.jpg,Purple_Triangle_Dots_3.jpg,left,690.9049999994459,true,NA,NA,NA,NA,NA,NA,NA,NA,true
Orz2OMCv,33ixyhizc8v0km0rv7j1cbq82t9e2g,32z9zlut1pxsynesz8u6tbmg74qoho,Orz2OMCv,2020-0188,2020-11-15,00:50:02,01:10:24,NA,incomplete,33,number,1,right,Green_Star_Stripes_3.jpg,Green_Triangle_Grid_4.jpg,Red_Circle_Chess_3.jpg,right,753.3400000002002,true,NA,NA,NA,NA,NA,NA,NA,NA,true
Orz2OMCv,33ixyhizc8v0km0rv7j1cbq82t9e2g,32z9zlut1pxsynesz8u6tbmg74qoho,Orz2OMCv,2020-0188,2020-11-15,00:50:02,01:10:24,NA,incomplete,34,number,1,right,Green_Circle_Chess_3.jpg,Green_Star_Grid_1.jpg,Purple_Plus_Dots_3.jpg,right,671.6850000002887,true,NA,NA,NA,NA,NA,NA,NA,NA,true
Orz2OMCv,33ixyhizc8v0km0rv7j1cbq82t9e2g,32z9zlut1pxsynesz8u6tbmg74qoho,Orz2OMCv,2020-0188,2020-11-15,00:50:02,01:10:24,NA,incomplete,35,number,1,right,Purple_Star_Dots_1.jpg,Purple_Circle_Stripes_4.jpg,Red_Triangle_Grid_1.jpg,right,642.435000000638,true,NA,NA,NA,NA,NA,NA,NA,NA,true
Orz2OMCv,33ixyhizc8v0km0rv7j1cbq82t9e2g,32z9zlut1pxsynesz8u6tbmg74qoho,Orz2OMCv,2020-0188,2020-11-15,00:50:02,01:10:24,NA,incomplete,36,number,1,left,Green_Triangle_Stripes_4.jpg,Purple_Plus_Chess_4.jpg,Green_Circle_Grid_2.jpg,left,619.5999999999767,true,NA,NA,NA,NA,NA,NA,NA,NA,true
Orz2OMCv,33ixyhizc8v0km0rv7j1cbq82t9e2g,32z9zlut1pxsynesz8u6tbmg74qoho,Orz2OMCv,2020-0188,2020-11-15,00:50:02,01:10:24,NA,incomplete,37,number,0,left,Blue_Star_Chess_4.jpg,Red_Plus_Stripes_4.jpg,Blue_Circle_Dots_1.jpg,left,695.4700000005541,true,NA,NA,NA,NA,NA,NA,NA,NA,true
Orz2OMCv,33ixyhizc8v0km0rv7j1cbq82t9e2g,32z9zlut1pxsynesz8u6tbmg74qoho,Orz2OMCv,2020-0188,2020-11-15,00:50:02,01:10:24,NA,incomplete,38,number,1,left,Green_Triangle_Grid_4.jpg,Red_Star_Stripes_4.jpg,Green_Circle_Chess_2.jpg,left,813.9500000006519,true,NA,NA,NA,NA,NA,NA,NA,NA,true
Orz2OMCv,33ixyhizc8v0km0rv7j1cbq82t9e2g,32z9zlut1pxsynesz8u6tbmg74qoho,Orz2OMCv,2020-0188,2020-11-15,00:50:02,01:10:24,NA,incomplete,39,number,1,right,Green_Star_Dots_3.jpg,Green_Circle_Chess_1.jpg,Red_Plus_Grid_3.jpg,right,698.0899999999674,true,NA,NA,NA,NA,NA,NA,NA,NA,true
Orz2OMCv,33ixyhizc8v0km0rv7j1cbq82t9e2g,32z9zlut1pxsynesz8u6tbmg74qoho,Orz2OMCv,2020-0188,2020-11-15,00:50:02,01:10:24,NA,incomplete,0,color,1,left,Red_Plus_Stripes_1.jpg,Red_Triangle_Dots_2.jpg,Blue_Circle_Grid_1.jpg,left,916.1149999999907,true,high,NA,NA,NA,NA,NA,NA,NA,false
Orz2OMCv,33ixyhizc8v0km0rv7j1cbq82t9e2g,32z9zlut1pxsynesz8u6tbmg74qoho,Orz2OMCv,2020-0188,2020-11-15,00:50:02,01:10:24,NA,incomplete,1,color,1,right,Green_Circle_Grid_4.jpg,Blue_Plus_Stripes_4.jpg,Green_Star_Chess_2.jpg,right,738.4449999999488,true,high,NA,NA,NA,NA,NA,NA,NA,false
Orz2OMCv,33ixyhizc8v0km0rv7j1cbq82t9e2g,32z9zlut1pxsynesz8u6tbmg74qoho,Orz2OMCv,2020-0188,2020-11-15,00:50:02,01:10:24,NA,incomplete,2,color,0,right,Green_Plus_Stripes_2.jpg,Red_Circle_Grid_2.jpg,Green_Triangle_Chess_3.jpg,right,705.2300000005635,true,high,NA,NA,NA,NA,NA,NA,NA,false
Orz2OMCv,33ixyhizc8v0km0rv7j1cbq82t9e2g,32z9zlut1pxsynesz8u6tbmg74qoho,Orz2OMCv,2020-0188,2020-11-15,00:50:02,01:10:24,NA,incomplete,3,color,1,left,Purple_Triangle_Chess_1.jpg,Purple_Plus_Stripes_2.jpg,Red_Circle_Dots_1.jpg,left,639.8799999996554,true,high,NA,NA,NA,NA,NA,NA,NA,false
Orz2OMCv,33ixyhizc8v0km0rv7j1cbq82t9e2g,32z9zlut1pxsynesz8u6tbmg74qoho,Orz2OMCv,2020-0188,2020-11-15,00:50:02,01:10:24,NA,incomplete,4,color,1,left,Blue_Plus_Stripes_2.jpg,Blue_Circle_Grid_4.jpg,Red_Triangle_Dots_2.jpg,left,600.7600000002421,true,high,NA,NA,NA,NA,NA,NA,NA,false
Orz2OMCv,33ixyhizc8v0km0rv7j1cbq82t9e2g,32z9zlut1pxsynesz8u6tbmg74qoho,Orz2OMCv,2020-0188,2020-11-15,00:50:02,01:10:24,NA,incomplete,5,color,1,left,Green_Plus_Chess_2.jpg,Green_Circle_Stripes_3.jpg,Red_Star_Dots_2.jpg,left,485.9550000000745,true,high,NA,NA,NA,NA,NA,NA,NA,false
Orz2OMCv,33ixyhizc8v0km0rv7j1cbq82t9e2g,32z9zlut1pxsynesz8u6tbmg74qoho,Orz2OMCv,2020-0188,2020-11-15,00:50:02,01:10:24,NA,incomplete,6,color,1,left,Red_Circle_Grid_2.jpg,Red_Star_Stripes_4.jpg,Blue_Triangle_Chess_2.jpg,left,574.585000000312,true,high,NA,NA,NA,NA,NA,NA,NA,false
Orz2OMCv,33ixyhizc8v0km0rv7j1cbq82t9e2g,32z9zlut1pxsynesz8u6tbmg74qoho,Orz2OMCv,2020-0188,2020-11-15,00:50:02,01:10:24,NA,incomplete,7,color,0,right,Red_Triangle_Chess_2.jpg,Purple_Star_Dots_2.jpg,Red_Plus_Grid_4.jpg,right,521.4550000000745,true,high,NA,NA,NA,NA,NA,NA,NA,false
Orz2OMCv,33ixyhizc8v0km0rv7j1cbq82t9e2g,32z9zlut1pxsynesz8u6tbmg74qoho,Orz2OMCv,2020-0188,2020-11-15,00:50:02,01:10:24,NA,incomplete,8,color,1,left,Green_Circle_Dots_1.jpg,Green_Plus_Chess_4.jpg,Blue_Triangle_Stripes_1.jpg,left,616.7550000000047,true,high,NA,NA,NA,NA,NA,NA,NA,false
Orz2OMCv,33ixyhizc8v0km0rv7j1cbq82t9e2g,32z9zlut1pxsynesz8u6tbmg74qoho,Orz2OMCv,2020-0188,2020-11-15,00:50:02,01:10:24,NA,incomplete,9,color,1,right,Green_Star_Stripes_1.jpg,Purple_Triangle_Dots_1.jpg,Green_Plus_Grid_4.jpg,right,611.565000000177,true,high,NA,NA,NA,NA,NA,NA,NA,false
Orz2OMCv,33ixyhizc8v0km0rv7j1cbq82t9e2g,32z9zlut1pxsynesz8u6tbmg74qoho,Orz2OMCv,2020-0188,2020-11-15,00:50:02,01:10:24,NA,incomplete,10,number,1,right,Green_Star_Stripes_3.jpg,Green_Plus_Dots_4.jpg,Red_Circle_Chess_3.jpg,left,637.3299999996088,false,high,NA,NA,NA,NA,NA,NA,NA,false
Orz2OMCv,33ixyhizc8v0km0rv7j1cbq82t9e2g,32z9zlut1pxsynesz8u6tbmg74qoho,Orz2OMCv,2020-0188,2020-11-15,00:50:02,01:10:24,NA,incomplete,11,number,1,left,Green_Star_Dots_3.jpg,Purple_Triangle_Grid_3.jpg,Green_Circle_Stripes_1.jpg,right,614.0299999996787,false,high,NA,NA,NA,NA,NA,NA,NA,false
Orz2OMCv,33ixyhizc8v0km0rv7j1cbq82t9e2g,32z9zlut1pxsynesz8u6tbmg74qoho,Orz2OMCv,2020-0188,2020-11-15,00:50:02,01:10:24,NA,incomplete,12,number,1,left,Purple_Triangle_Dots_2.jpg,Blue_Plus_Stripes_2.jpg,Purple_Star_Grid_3.jpg,right,679.7949999999255,false,high,NA,NA,NA,NA,NA,NA,NA,false
Orz2OMCv,33ixyhizc8v0km0rv7j1cbq82t9e2g,32z9zlut1pxsynesz8u6tbmg74qoho,Orz2OMCv,2020-0188,2020-11-15,00:50:02,01:10:24,NA,incomplete,13,number,1,left,Blue_Circle_Dots_1.jpg,Red_Star_Chess_1.jpg,Blue_Triangle_Grid_2.jpg,left,794.5449999996927,true,high,NA,NA,NA,NA,NA,NA,NA,false
Orz2OMCv,33ixyhizc8v0km0rv7j1cbq82t9e2g,32z9zlut1pxsynesz8u6tbmg74qoho,Orz2OMCv,2020-0188,2020-11-15,00:50:02,01:10:24,NA,incomplete,14,number,1,right,Purple_Star_Grid_4.jpg,Purple_Triangle_Stripes_3.jpg,Blue_Plus_Dots_4.jpg,right,973.3750000004657,true,high,NA,NA,NA,NA,NA,NA,NA,false
Orz2OMCv,33ixyhizc8v0km0rv7j1cbq82t9e2g,32z9zlut1pxsynesz8u6tbmg74qoho,Orz2OMCv,2020-0188,2020-11-15,00:50:02,01:10:24,NA,incomplete,15,number,1,right,Green_Star_Grid_1.jpg,Green_Plus_Stripes_3.jpg,Purple_Triangle_Dots_1.jpg,right,673.5900000004331,true,high,NA,NA,NA,NA,NA,NA,NA,false
Orz2OMCv,33ixyhizc8v0km0rv7j1cbq82t9e2g,32z9zlut1pxsynesz8u6tbmg74qoho,Orz2OMCv,2020-0188,2020-11-15,00:50:02,01:10:24,NA,incomplete,16,number,0,left,Red_Star_Stripes_1.jpg,Green_Triangle_Chess_1.jpg,Red_Plus_Grid_4.jpg,left,643.1999999996042,true,high,NA,NA,NA,NA,NA,NA,NA,false
Orz2OMCv,33ixyhizc8v0km0rv7j1cbq82t9e2g,32z9zlut1pxsynesz8u6tbmg74qoho,Orz2OMCv,2020-0188,2020-11-15,00:50:02,01:10:24,NA,incomplete,17,number,1,right,Blue_Circle_Chess_3.jpg,Blue_Star_Grid_1.jpg,Red_Plus_Stripes_3.jpg,left,749.0500000003958,false,high,NA,NA,NA,NA,NA,NA,NA,false
Orz2OMCv,33ixyhizc8v0km0rv7j1cbq82t9e2g,32z9zlut1pxsynesz8u6tbmg74qoho,Orz2OMCv,2020-0188,2020-11-15,00:50:02,01:10:24,NA,incomplete,18,number,1,right,Green_Triangle_Grid_2.jpg,Green_Plus_Dots_4.jpg,Blue_Star_Stripes_2.jpg,left,938.9700000002049,false,high,NA,NA,NA,NA,NA,NA,NA,false
Orz2OMCv,33ixyhizc8v0km0rv7j1cbq82t9e2g,32z9zlut1pxsynesz8u6tbmg74qoho,Orz2OMCv,2020-0188,2020-11-15,00:50:02,01:10:24,NA,incomplete,19,number,1,right,Blue_Circle_Grid_2.jpg,Blue_Triangle_Stripes_3.jpg,Purple_Star_Dots_2.jpg,right,840.4450000007637,true,high,NA,NA,NA,NA,NA,NA,NA,false
Orz2OMCv,33ixyhizc8v0km0rv7j1cbq82t9e2g,32z9zlut1pxsynesz8u6tbmg74qoho,Orz2OMCv,2020-0188,2020-11-15,00:50:02,01:10:24,NA,incomplete,20,color,1,right,Red_Plus_Grid_1.jpg,Green_Circle_Dots_1.jpg,Red_Star_Stripes_4.jpg,left,759.7949999999255,false,high,NA,NA,NA,NA,NA,NA,NA,false
Orz2OMCv,33ixyhizc8v0km0rv7j1cbq82t9e2g,32z9zlut1pxsynesz8u6tbmg74qoho,Orz2OMCv,2020-0188,2020-11-15,00:50:02,01:10:24,NA,incomplete,21,color,1,right,Purple_Triangle_Grid_2.jpg,Blue_Plus_Dots_2.jpg,Purple_Star_Chess_4.jpg,left,813.460000000312,false,high,NA,NA,NA,NA,NA,NA,NA,false
Orz2OMCv,33ixyhizc8v0km0rv7j1cbq82t9e2g,32z9zlut1pxsynesz8u6tbmg74qoho,Orz2OMCv,2020-0188,2020-11-15,00:50:02,01:10:24,NA,incomplete,22,color,1,right,Blue_Triangle_Dots_1.jpg,Purple_Plus_Chess_1.jpg,Blue_Circle_Grid_4.jpg,right,615.6149999997579,true,high,NA,NA,NA,NA,NA,NA,NA,false
Orz2OMCv,33ixyhizc8v0km0rv7j1cbq82t9e2g,32z9zlut1pxsynesz8u6tbmg74qoho,Orz2OMCv,2020-0188,2020-11-15,00:50:02,01:10:24,NA,incomplete,23,color,1,right,Blue_Plus_Stripes_1.jpg,Green_Star_Grid_1.jpg,Blue_Triangle_Chess_4.jpg,right,794.055000000284,true,high,NA,NA,NA,NA,NA,NA,NA,false
Orz2OMCv,33ixyhizc8v0km0rv7j1cbq82t9e2g,32z9zlut1pxsynesz8u6tbmg74qoho,Orz2OMCv,2020-0188,2020-11-15,00:50:02,01:10:24,NA,incomplete,24,color,0,left,Blue_Circle_Dots_4.jpg,Blue_Plus_Chess_1.jpg,Red_Triangle_Grid_4.jpg,right,775.2150000006659,false,high,NA,NA,NA,NA,NA,NA,NA,false
Orz2OMCv,33ixyhizc8v0km0rv7j1cbq82t9e2g,32z9zlut1pxsynesz8u6tbmg74qoho,Orz2OMCv,2020-0188,2020-11-15,00:50:02,01:10:24,NA,incomplete,25,color,1,right,Red_Star_Stripes_1.jpg,Purple_Triangle_Grid_1.jpg,Red_Circle_Dots_3.jpg,right,763.3900000001304,true,high,NA,NA,NA,NA,NA,NA,NA,false
Orz2OMCv,33ixyhizc8v0km0rv7j1cbq82t9e2g,32z9zlut1pxsynesz8u6tbmg74qoho,Orz2OMCv,2020-0188,2020-11-15,00:50:02,01:10:24,NA,incomplete,26,color,1,right,Blue_Circle_Chess_2.jpg,Purple_Triangle_Stripes_2.jpg,Blue_Star_Dots_4.jpg,right,808.4450000005309,true,high,NA,NA,NA,NA,NA,NA,NA,false
Orz2OMCv,33ixyhizc8v0km0rv7j1cbq82t9e2g,32z9zlut1pxsynesz8u6tbmg74qoho,Orz2OMCv,2020-0188,2020-11-15,00:50:02,01:10:24,NA,incomplete,27,color,1,right,Blue_Star_Grid_1.jpg,Red_Triangle_Stripes_1.jpg,Blue_Circle_Chess_4.jpg,right,691.1449999997858,true,high,NA,NA,NA,NA,NA,NA,NA,false
Orz2OMCv,33ixyhizc8v0km0rv7j1cbq82t9e2g,32z9zlut1pxsynesz8u6tbmg74qoho,Orz2OMCv,2020-0188,2020-11-15,00:50:02,01:10:24,NA,incomplete,28,color,1,right,Green_Circle_Stripes_4.jpg,Blue_Plus_Chess_4.jpg,Green_Star_Dots_2.jpg,right,682.7949999996927,true,high,NA,NA,NA,NA,NA,NA,NA,false
Orz2OMCv,33ixyhizc8v0km0rv7j1cbq82t9e2g,32z9zlut1pxsynesz8u6tbmg74qoho,Orz2OMCv,2020-0188,2020-11-15,00:50:02,01:10:24,NA,incomplete,29,color,1,left,Red_Triangle_Dots_4.jpg,Red_Plus_Stripes_3.jpg,Purple_Star_Chess_4.jpg,left,659.9049999995623,true,high,NA,NA,NA,NA,NA,NA,NA,false
Orz2OMCv,33ixyhizc8v0km0rv7j1cbq82t9e2g,32z9zlut1pxsynesz8u6tbmg74qoho,Orz2OMCv,2020-0188,2020-11-15,00:50:02,01:10:24,NA,incomplete,30,number,0,left,Purple_Circle_Dots_2.jpg,Blue_Plus_Chess_2.jpg,Purple_Star_Grid_1.jpg,right,611.5500000005122,false,high,NA,NA,NA,NA,NA,NA,NA,false
Orz2OMCv,33ixyhizc8v0km0rv7j1cbq82t9e2g,32z9zlut1pxsynesz8u6tbmg74qoho,Orz2OMCv,2020-0188,2020-11-15,00:50:02,01:10:24,NA,incomplete,31,number,1,right,Blue_Star_Grid_3.jpg,Blue_Circle_Stripes_4.jpg,Purple_Triangle_Dots_3.jpg,left,654.7399999999907,false,high,NA,NA,NA,NA,NA,NA,NA,false
Orz2OMCv,33ixyhizc8v0km0rv7j1cbq82t9e2g,32z9zlut1pxsynesz8u6tbmg74qoho,Orz2OMCv,2020-0188,2020-11-15,00:50:02,01:10:24,NA,incomplete,32,number,1,right,Red_Circle_Chess_3.jpg,Red_Triangle_Stripes_4.jpg,Blue_Plus_Dots_3.jpg,left,694.9150000000373,false,high,NA,NA,NA,NA,NA,NA,NA,false
Orz2OMCv,33ixyhizc8v0km0rv7j1cbq82t9e2g,32z9zlut1pxsynesz8u6tbmg74qoho,Orz2OMCv,2020-0188,2020-11-15,00:50:02,01:10:24,NA,incomplete,33,number,1,left,Blue_Star_Grid_1.jpg,Green_Plus_Dots_1.jpg,Blue_Triangle_Chess_2.jpg,right,750.9249999994645,false,high,NA,NA,NA,NA,NA,NA,NA,false
Orz2OMCv,33ixyhizc8v0km0rv7j1cbq82t9e2g,32z9zlut1pxsynesz8u6tbmg74qoho,Orz2OMCv,2020-0188,2020-11-15,00:50:02,01:10:24,NA,incomplete,34,number,1,left,Purple_Plus_Dots_1.jpg,Green_Circle_Grid_1.jpg,Purple_Triangle_Chess_4.jpg,left,686.4999999997672,true,high,NA,NA,NA,NA,NA,NA,NA,false
Orz2OMCv,33ixyhizc8v0km0rv7j1cbq82t9e2g,32z9zlut1pxsynesz8u6tbmg74qoho,Orz2OMCv,2020-0188,2020-11-15,00:50:02,01:10:24,NA,incomplete,35,number,1,right,Purple_Triangle_Grid_2.jpg,Purple_Plus_Stripes_4.jpg,Blue_Star_Chess_2.jpg,left,598.3200000000652,false,high,NA,NA,NA,NA,NA,NA,NA,false
Orz2OMCv,33ixyhizc8v0km0rv7j1cbq82t9e2g,32z9zlut1pxsynesz8u6tbmg74qoho,Orz2OMCv,2020-0188,2020-11-15,00:50:02,01:10:24,NA,incomplete,36,number,0,left,Red_Circle_Dots_2.jpg,Purple_Plus_Grid_2.jpg,Red_Triangle_Chess_4.jpg,left,817.7050000004238,true,high,NA,NA,NA,NA,NA,NA,NA,false
Orz2OMCv,33ixyhizc8v0km0rv7j1cbq82t9e2g,32z9zlut1pxsynesz8u6tbmg74qoho,Orz2OMCv,2020-0188,2020-11-15,00:50:02,01:10:24,NA,incomplete,37,number,1,right,Red_Circle_Grid_3.jpg,Red_Star_Chess_1.jpg,Green_Plus_Dots_3.jpg,right,691.6750000000466,true,high,NA,NA,NA,NA,NA,NA,NA,false
Orz2OMCv,33ixyhizc8v0km0rv7j1cbq82t9e2g,32z9zlut1pxsynesz8u6tbmg74qoho,Orz2OMCv,2020-0188,2020-11-15,00:50:02,01:10:24,NA,incomplete,38,number,1,right,Blue_Star_Chess_2.jpg,Blue_Plus_Grid_1.jpg,Red_Triangle_Dots_2.jpg,left,668.160000000149,false,high,NA,NA,NA,NA,NA,NA,NA,false
Orz2OMCv,33ixyhizc8v0km0rv7j1cbq82t9e2g,32z9zlut1pxsynesz8u6tbmg74qoho,Orz2OMCv,2020-0188,2020-11-15,00:50:02,01:10:24,NA,incomplete,39,number,0,right,Purple_Plus_Chess_2.jpg,Purple_Triangle_Dots_3.jpg,Red_Circle_Grid_2.jpg,left,790.8399999996182,false,high,NA,NA,NA,NA,NA,NA,NA,false
Orz2OMCv,33ixyhizc8v0km0rv7j1cbq82t9e2g,32z9zlut1pxsynesz8u6tbmg74qoho,Orz2OMCv,2020-0188,2020-11-15,00:50:02,01:10:24,NA,incomplete,40,color,1,right,Green_Plus_Chess_2.jpg,Blue_Star_Grid_2.jpg,Green_Circle_Dots_4.jpg,left,696.9699999999721,false,high,NA,NA,NA,NA,NA,NA,NA,false
Orz2OMCv,33ixyhizc8v0km0rv7j1cbq82t9e2g,32z9zlut1pxsynesz8u6tbmg74qoho,Orz2OMCv,2020-0188,2020-11-15,00:50:02,01:10:24,NA,incomplete,41,color,1,left,Blue_Circle_Chess_1.jpg,Blue_Star_Dots_2.jpg,Green_Triangle_Grid_1.jpg,left,657.0299999993294,true,high,NA,NA,NA,NA,NA,NA,NA,false
Orz2OMCv,33ixyhizc8v0km0rv7j1cbq82t9e2g,32z9zlut1pxsynesz8u6tbmg74qoho,Orz2OMCv,2020-0188,2020-11-15,00:50:02,01:10:24,NA,incomplete,42,color,1,right,Red_Triangle_Stripes_3.jpg,Blue_Circle_Dots_3.jpg,Red_Star_Chess_1.jpg,right,737.5050000000047,true,high,NA,NA,NA,NA,NA,NA,NA,false
Orz2OMCv,33ixyhizc8v0km0rv7j1cbq82t9e2g,32z9zlut1pxsynesz8u6tbmg74qoho,Orz2OMCv,2020-0188,2020-11-15,00:50:02,01:10:24,NA,incomplete,43,color,1,right,Blue_Plus_Stripes_2.jpg,Green_Circle_Dots_2.jpg,Blue_Triangle_Chess_4.jpg,left,654.8999999995576,false,high,NA,NA,NA,NA,NA,NA,NA,false
Orz2OMCv,33ixyhizc8v0km0rv7j1cbq82t9e2g,32z9zlut1pxsynesz8u6tbmg74qoho,Orz2OMCv,2020-0188,2020-11-15,00:50:02,01:10:24,NA,incomplete,44,color,1,right,Purple_Star_Dots_4.jpg,Green_Triangle_Grid_4.jpg,Purple_Plus_Chess_2.jpg,left,880.6249999997672,false,high,NA,NA,NA,NA,NA,NA,NA,false
Orz2OMCv,33ixyhizc8v0km0rv7j1cbq82t9e2g,32z9zlut1pxsynesz8u6tbmg74qoho,Orz2OMCv,2020-0188,2020-11-15,00:50:02,01:10:24,NA,incomplete,45,color,1,right,Blue_Plus_Dots_4.jpg,Green_Circle_Chess_4.jpg,Blue_Star_Grid_1.jpg,right,841.0950000006706,true,high,NA,NA,NA,NA,NA,NA,NA,false
Orz2OMCv,33ixyhizc8v0km0rv7j1cbq82t9e2g,32z9zlut1pxsynesz8u6tbmg74qoho,Orz2OMCv,2020-0188,2020-11-15,00:50:02,01:10:24,NA,incomplete,46,color,0,left,Purple_Triangle_Chess_4.jpg,Purple_Circle_Dots_1.jpg,Green_Plus_Grid_4.jpg,left,810.8849999998929,true,high,NA,NA,NA,NA,NA,NA,NA,false
Orz2OMCv,33ixyhizc8v0km0rv7j1cbq82t9e2g,32z9zlut1pxsynesz8u6tbmg74qoho,Orz2OMCv,2020-0188,2020-11-15,00:50:02,01:10:24,NA,incomplete,47,color,0,left,Red_Triangle_Grid_4.jpg,Red_Plus_Dots_3.jpg,Purple_Star_Stripes_4.jpg,left,765.015000000014,true,high,NA,NA,NA,NA,NA,NA,NA,false
Orz2OMCv,33ixyhizc8v0km0rv7j1cbq82t9e2g,32z9zlut1pxsynesz8u6tbmg74qoho,Orz2OMCv,2020-0188,2020-11-15,00:50:02,01:10:24,NA,incomplete,48,color,1,right,Green_Star_Dots_2.jpg,Purple_Triangle_Chess_2.jpg,Green_Plus_Stripes_1.jpg,left,699.5100000003586,false,high,NA,NA,NA,NA,NA,NA,NA,false
Orz2OMCv,33ixyhizc8v0km0rv7j1cbq82t9e2g,32z9zlut1pxsynesz8u6tbmg74qoho,Orz2OMCv,2020-0188,2020-11-15,00:50:02,01:10:24,NA,incomplete,49,color,1,right,Blue_Circle_Chess_2.jpg,Red_Plus_Grid_2.jpg,Blue_Triangle_Dots_4.jpg,left,771.1849999997066,false,high,NA,NA,NA,NA,NA,NA,NA,false
Orz2OMCv,33ixyhizc8v0km0rv7j1cbq82t9e2g,32z9zlut1pxsynesz8u6tbmg74qoho,Orz2OMCv,2020-0188,2020-11-15,00:50:02,01:10:24,NA,incomplete,50,number,1,right,Purple_Triangle_Chess_2.jpg,Purple_Plus_Stripes_3.jpg,Blue_Star_Grid_2.jpg,left,854.9249999996973,false,high,NA,NA,NA,NA,NA,NA,NA,false
Orz2OMCv,33ixyhizc8v0km0rv7j1cbq82t9e2g,32z9zlut1pxsynesz8u6tbmg74qoho,Orz2OMCv,2020-0188,2020-11-15,00:50:02,01:10:24,NA,incomplete,51,number,1,right,Blue_Plus_Grid_3.jpg,Blue_Star_Dots_1.jpg,Green_Circle_Stripes_3.jpg,right,800.054999999702,true,high,NA,NA,NA,NA,NA,NA,NA,false
Orz2OMCv,33ixyhizc8v0km0rv7j1cbq82t9e2g,32z9zlut1pxsynesz8u6tbmg74qoho,Orz2OMCv,2020-0188,2020-11-15,00:50:02,01:10:24,NA,incomplete,52,number,1,left,Red_Triangle_Grid_3.jpg,Blue_Plus_Stripes_3.jpg,Red_Star_Chess_1.jpg,left,755.1699999994598,true,high,NA,NA,NA,NA,NA,NA,NA,false
Orz2OMCv,33ixyhizc8v0km0rv7j1cbq82t9e2g,32z9zlut1pxsynesz8u6tbmg74qoho,Orz2OMCv,2020-0188,2020-11-15,00:50:02,01:10:24,NA,incomplete,53,number,1,right,Green_Plus_Stripes_3.jpg,Green_Triangle_Chess_2.jpg,Red_Circle_Dots_3.jpg,right,852.5600000002887,true,high,NA,NA,NA,NA,NA,NA,NA,false
Orz2OMCv,33ixyhizc8v0km0rv7j1cbq82t9e2g,32z9zlut1pxsynesz8u6tbmg74qoho,Orz2OMCv,2020-0188,2020-11-15,00:50:02,01:10:24,NA,incomplete,54,number,1,left,Red_Circle_Dots_4.jpg,Purple_Triangle_Chess_4.jpg,Red_Plus_Stripes_3.jpg,left,797.8149999999441,true,high,NA,NA,NA,NA,NA,NA,NA,false
Orz2OMCv,33ixyhizc8v0km0rv7j1cbq82t9e2g,32z9zlut1pxsynesz8u6tbmg74qoho,Orz2OMCv,2020-0188,2020-11-15,00:50:02,01:10:24,NA,incomplete,55,number,1,right,Blue_Circle_Dots_1.jpg,Blue_Plus_Chess_4.jpg,Green_Triangle_Stripes_1.jpg,right,826.0100000007078,true,high,NA,NA,NA,NA,NA,NA,NA,false
Orz2OMCv,33ixyhizc8v0km0rv7j1cbq82t9e2g,32z9zlut1pxsynesz8u6tbmg74qoho,Orz2OMCv,2020-0188,2020-11-15,00:50:02,01:10:24,NA,incomplete,56,number,1,left,Blue_Plus_Chess_2.jpg,Green_Star_Grid_2.jpg,Blue_Circle_Dots_3.jpg,left,843.390000000014,true,high,NA,NA,NA,NA,NA,NA,NA,false
Orz2OMCv,33ixyhizc8v0km0rv7j1cbq82t9e2g,32z9zlut1pxsynesz8u6tbmg74qoho,Orz2OMCv,2020-0188,2020-11-15,00:50:02,01:10:24,NA,incomplete,57,number,1,left,Purple_Star_Chess_4.jpg,Blue_Circle_Dots_4.jpg,Purple_Triangle_Stripes_3.jpg,left,642.434999999823,true,high,NA,NA,NA,NA,NA,NA,NA,false
Orz2OMCv,33ixyhizc8v0km0rv7j1cbq82t9e2g,32z9zlut1pxsynesz8u6tbmg74qoho,Orz2OMCv,2020-0188,2020-11-15,00:50:02,01:10:24,NA,incomplete,58,number,1,left,Blue_Plus_Chess_4.jpg,Green_Star_Dots_4.jpg,Blue_Triangle_Stripes_2.jpg,left,683.535000000149,true,high,NA,NA,NA,NA,NA,NA,NA,false
Orz2OMCv,33ixyhizc8v0km0rv7j1cbq82t9e2g,32z9zlut1pxsynesz8u6tbmg74qoho,Orz2OMCv,2020-0188,2020-11-15,00:50:02,01:10:24,NA,incomplete,59,number,1,left,Green_Star_Stripes_2.jpg,Blue_Plus_Grid_2.jpg,Green_Circle_Chess_1.jpg,left,653.2400000005728,true,high,NA,NA,NA,NA,NA,NA,NA,false
Orz2OMCv,33ixyhizc8v0km0rv7j1cbq82t9e2g,32z9zlut1pxsynesz8u6tbmg74qoho,Orz2OMCv,2020-0188,2020-11-15,00:50:02,01:10:24,NA,incomplete,60,color,1,right,Blue_Triangle_Dots_4.jpg,Green_Circle_Stripes_4.jpg,Blue_Star_Grid_1.jpg,left,820.4200000000419,false,high,NA,NA,NA,NA,NA,NA,NA,false
Orz2OMCv,33ixyhizc8v0km0rv7j1cbq82t9e2g,32z9zlut1pxsynesz8u6tbmg74qoho,Orz2OMCv,2020-0188,2020-11-15,00:50:02,01:10:24,NA,incomplete,61,color,1,left,Blue_Plus_Chess_2.jpg,Blue_Star_Stripes_4.jpg,Red_Triangle_Dots_2.jpg,left,711.1899999999441,true,high,NA,NA,NA,NA,NA,NA,NA,false
Orz2OMCv,33ixyhizc8v0km0rv7j1cbq82t9e2g,32z9zlut1pxsynesz8u6tbmg74qoho,Orz2OMCv,2020-0188,2020-11-15,00:50:02,01:10:24,NA,incomplete,62,color,1,left,Red_Plus_Chess_3.jpg,Red_Star_Stripes_4.jpg,Purple_Triangle_Dots_3.jpg,left,607.9999999993015,true,high,NA,NA,NA,NA,NA,NA,NA,false
Orz2OMCv,33ixyhizc8v0km0rv7j1cbq82t9e2g,32z9zlut1pxsynesz8u6tbmg74qoho,Orz2OMCv,2020-0188,2020-11-15,00:50:02,01:10:24,NA,incomplete,63,color,1,right,Red_Circle_Grid_2.jpg,Green_Triangle_Stripes_2.jpg,Red_Star_Dots_3.jpg,right,508.039999999688,true,high,NA,NA,NA,NA,NA,NA,NA,false
Orz2OMCv,33ixyhizc8v0km0rv7j1cbq82t9e2g,32z9zlut1pxsynesz8u6tbmg74qoho,Orz2OMCv,2020-0188,2020-11-15,00:50:02,01:10:24,NA,incomplete,64,color,1,right,Blue_Plus_Chess_2.jpg,Green_Star_Grid_2.jpg,Blue_Circle_Dots_3.jpg,right,730.9549999999581,true,high,NA,NA,NA,NA,NA,NA,NA,false
Orz2OMCv,33ixyhizc8v0km0rv7j1cbq82t9e2g,32z9zlut1pxsynesz8u6tbmg74qoho,Orz2OMCv,2020-0188,2020-11-15,00:50:02,01:10:24,NA,incomplete,65,color,0,left,Blue_Triangle_Chess_4.jpg,Blue_Circle_Dots_3.jpg,Purple_Plus_Stripes_4.jpg,left,497.09499999973923,true,high,NA,NA,NA,NA,NA,NA,NA,false
Orz2OMCv,33ixyhizc8v0km0rv7j1cbq82t9e2g,32z9zlut1pxsynesz8u6tbmg74qoho,Orz2OMCv,2020-0188,2020-11-15,00:50:02,01:10:24,NA,incomplete,66,color,1,left,Purple_Triangle_Stripes_4.jpg,Purple_Circle_Dots_3.jpg,Blue_Plus_Grid_4.jpg,left,633.9900000003399,true,high,NA,NA,NA,NA,NA,NA,NA,false
Orz2OMCv,33ixyhizc8v0km0rv7j1cbq82t9e2g,32z9zlut1pxsynesz8u6tbmg74qoho,Orz2OMCv,2020-0188,2020-11-15,00:50:02,01:10:24,NA,incomplete,67,color,0,left,Purple_Circle_Dots_3.jpg,Purple_Star_Chess_4.jpg,Red_Plus_Grid_3.jpg,left,603.0499999996973,true,high,NA,NA,NA,NA,NA,NA,NA,false
Orz2OMCv,33ixyhizc8v0km0rv7j1cbq82t9e2g,32z9zlut1pxsynesz8u6tbmg74qoho,Orz2OMCv,2020-0188,2020-11-15,00:50:02,01:10:24,NA,incomplete,68,color,1,right,Red_Plus_Grid_4.jpg,Blue_Triangle_Dots_4.jpg,Red_Star_Chess_1.jpg,left,804.2550000000047,false,high,NA,NA,NA,NA,NA,NA,NA,false
Orz2OMCv,33ixyhizc8v0km0rv7j1cbq82t9e2g,32z9zlut1pxsynesz8u6tbmg74qoho,Orz2OMCv,2020-0188,2020-11-15,00:50:02,01:10:24,NA,incomplete,69,color,0,right,Blue_Triangle_Stripes_4.jpg,Red_Circle_Chess_4.jpg,Blue_Plus_Dots_1.jpg,left,737.269999999553,false,high,NA,NA,NA,NA,NA,NA,NA,false
Orz2OMCv,33ixyhizc8v0km0rv7j1cbq82t9e2g,32z9zlut1pxsynesz8u6tbmg74qoho,Orz2OMCv,2020-0188,2020-11-15,00:50:02,01:10:24,NA,incomplete,70,number,1,right,Purple_Plus_Chess_4.jpg,Purple_Star_Stripes_3.jpg,Red_Triangle_Dots_4.jpg,right,678.4399999997113,true,high,NA,NA,NA,NA,NA,NA,NA,false
Orz2OMCv,33ixyhizc8v0km0rv7j1cbq82t9e2g,32z9zlut1pxsynesz8u6tbmg74qoho,Orz2OMCv,2020-0188,2020-11-15,00:50:02,01:10:24,NA,incomplete,71,number,1,right,Green_Star_Grid_1.jpg,Green_Triangle_Stripes_3.jpg,Red_Circle_Chess_1.jpg,right,677.2249999993946,true,high,NA,NA,NA,NA,NA,NA,NA,false
Orz2OMCv,33ixyhizc8v0km0rv7j1cbq82t9e2g,32z9zlut1pxsynesz8u6tbmg74qoho,Orz2OMCv,2020-0188,2020-11-15,00:50:02,01:10:24,NA,incomplete,72,number,1,right,Blue_Triangle_Stripes_3.jpg,Blue_Circle_Chess_4.jpg,Purple_Plus_Dots_3.jpg,left,846.0200000000186,false,high,NA,NA,NA,NA,NA,NA,NA,false
Orz2OMCv,33ixyhizc8v0km0rv7j1cbq82t9e2g,32z9zlut1pxsynesz8u6tbmg74qoho,Orz2OMCv,2020-0188,2020-11-15,00:50:02,01:10:24,NA,incomplete,73,number,0,right,Purple_Circle_Grid_2.jpg,Purple_Triangle_Dots_1.jpg,Green_Plus_Chess_2.jpg,right,711.7250000000931,true,high,NA,NA,NA,NA,NA,NA,NA,false
Orz2OMCv,33ixyhizc8v0km0rv7j1cbq82t9e2g,32z9zlut1pxsynesz8u6tbmg74qoho,Orz2OMCv,2020-0188,2020-11-15,00:50:02,01:10:24,NA,incomplete,74,number,1,left,Blue_Triangle_Stripes_4.jpg,Purple_Plus_Dots_4.jpg,Blue_Circle_Chess_2.jpg,left,687.074999999837,true,high,NA,NA,NA,NA,NA,NA,NA,false
Orz2OMCv,33ixyhizc8v0km0rv7j1cbq82t9e2g,32z9zlut1pxsynesz8u6tbmg74qoho,Orz2OMCv,2020-0188,2020-11-15,00:50:02,01:10:24,NA,incomplete,75,number,1,left,Red_Star_Dots_3.jpg,Blue_Circle_Chess_3.jpg,Red_Triangle_Stripes_2.jpg,right,589.9950000002282,false,high,NA,NA,NA,NA,NA,NA,NA,false
Orz2OMCv,33ixyhizc8v0km0rv7j1cbq82t9e2g,32z9zlut1pxsynesz8u6tbmg74qoho,Orz2OMCv,2020-0188,2020-11-15,00:50:02,01:10:24,NA,incomplete,76,number,1,right,Blue_Triangle_Dots_1.jpg,Blue_Star_Chess_3.jpg,Purple_Plus_Stripes_1.jpg,right,655.0800000004238,true,high,NA,NA,NA,NA,NA,NA,NA,false
Orz2OMCv,33ixyhizc8v0km0rv7j1cbq82t9e2g,32z9zlut1pxsynesz8u6tbmg74qoho,Orz2OMCv,2020-0188,2020-11-15,00:50:02,01:10:24,NA,incomplete,77,number,1,right,Red_Star_Stripes_2.jpg,Red_Plus_Dots_4.jpg,Purple_Circle_Chess_2.jpg,right,680.1699999996927,true,high,NA,NA,NA,NA,NA,NA,NA,false
Orz2OMCv,33ixyhizc8v0km0rv7j1cbq82t9e2g,32z9zlut1pxsynesz8u6tbmg74qoho,Orz2OMCv,2020-0188,2020-11-15,00:50:02,01:10:24,NA,incomplete,78,number,0,left,Blue_Circle_Chess_3.jpg,Purple_Star_Grid_3.jpg,Blue_Plus_Stripes_2.jpg,left,647.7399999994086,true,high,NA,NA,NA,NA,NA,NA,NA,false
Orz2OMCv,33ixyhizc8v0km0rv7j1cbq82t9e2g,32z9zlut1pxsynesz8u6tbmg74qoho,Orz2OMCv,2020-0188,2020-11-15,00:50:02,01:10:24,NA,incomplete,79,number,1,right,Red_Star_Chess_3.jpg,Red_Circle_Stripes_1.jpg,Purple_Triangle_Dots_3.jpg,left,650.6150000005728,false,high,NA,NA,NA,NA,NA,NA,NA,false
Orz2OMCv,33ixyhizc8v0km0rv7j1cbq82t9e2g,32z9zlut1pxsynesz8u6tbmg74qoho,Orz2OMCv,2020-0188,2020-11-15,00:50:02,01:10:24,NA,incomplete,80,color,1,left,Blue_Triangle_Grid_1.jpg,Blue_Circle_Stripes_2.jpg,Purple_Plus_Dots_1.jpg,right,755.8799999996554,false,high,NA,NA,NA,NA,NA,NA,NA,false
Orz2OMCv,33ixyhizc8v0km0rv7j1cbq82t9e2g,32z9zlut1pxsynesz8u6tbmg74qoho,Orz2OMCv,2020-0188,2020-11-15,00:50:02,01:10:24,NA,incomplete,81,color,0,right,Red_Star_Chess_1.jpg,Blue_Circle_Dots_1.jpg,Red_Triangle_Stripes_4.jpg,right,793.8949999997858,true,high,NA,NA,NA,NA,NA,NA,NA,false
Orz2OMCv,33ixyhizc8v0km0rv7j1cbq82t9e2g,32z9zlut1pxsynesz8u6tbmg74qoho,Orz2OMCv,2020-0188,2020-11-15,00:50:02,01:10:24,NA,incomplete,82,color,0,left,Blue_Circle_Dots_4.jpg,Blue_Triangle_Stripes_1.jpg,Green_Plus_Grid_4.jpg,right,749.494999999064,false,high,NA,NA,NA,NA,NA,NA,NA,false
Orz2OMCv,33ixyhizc8v0km0rv7j1cbq82t9e2g,32z9zlut1pxsynesz8u6tbmg74qoho,Orz2OMCv,2020-0188,2020-11-15,00:50:02,01:10:24,NA,incomplete,83,color,1,left,Green_Star_Grid_3.jpg,Green_Triangle_Stripes_4.jpg,Purple_Circle_Chess_3.jpg,right,786.8550000003306,false,high,NA,NA,NA,NA,NA,NA,NA,false
Orz2OMCv,33ixyhizc8v0km0rv7j1cbq82t9e2g,32z9zlut1pxsynesz8u6tbmg74qoho,Orz2OMCv,2020-0188,2020-11-15,00:50:02,01:10:24,NA,incomplete,84,color,1,right,Red_Plus_Dots_4.jpg,Blue_Triangle_Stripes_4.jpg,Red_Star_Grid_2.jpg,right,688.479999999865,true,high,NA,NA,NA,NA,NA,NA,NA,false
Orz2OMCv,33ixyhizc8v0km0rv7j1cbq82t9e2g,32z9zlut1pxsynesz8u6tbmg74qoho,Orz2OMCv,2020-0188,2020-11-15,00:50:02,01:10:24,NA,incomplete,85,color,0,left,Red_Plus_Stripes_2.jpg,Red_Star_Grid_3.jpg,Green_Triangle_Dots_2.jpg,left,640.0800000001909,true,high,NA,NA,NA,NA,NA,NA,NA,false
Orz2OMCv,33ixyhizc8v0km0rv7j1cbq82t9e2g,32z9zlut1pxsynesz8u6tbmg74qoho,Orz2OMCv,2020-0188,2020-11-15,00:50:02,01:10:24,NA,incomplete,86,color,1,right,Green_Star_Dots_1.jpg,Red_Circle_Stripes_1.jpg,Green_Plus_Chess_3.jpg,right,507.7549999996554,true,high,NA,NA,NA,NA,NA,NA,NA,false
Orz2OMCv,33ixyhizc8v0km0rv7j1cbq82t9e2g,32z9zlut1pxsynesz8u6tbmg74qoho,Orz2OMCv,2020-0188,2020-11-15,00:50:02,01:10:24,NA,incomplete,87,color,1,right,Purple_Star_Grid_2.jpg,Red_Triangle_Chess_2.jpg,Purple_Plus_Stripes_3.jpg,right,626.7799999996787,true,high,NA,NA,NA,NA,NA,NA,NA,false
Orz2OMCv,33ixyhizc8v0km0rv7j1cbq82t9e2g,32z9zlut1pxsynesz8u6tbmg74qoho,Orz2OMCv,2020-0188,2020-11-15,00:50:02,01:10:24,NA,incomplete,88,color,1,left,Purple_Circle_Dots_2.jpg,Purple_Plus_Chess_3.jpg,Blue_Triangle_Grid_2.jpg,right,605.1600000000326,false,high,NA,NA,NA,NA,NA,NA,NA,false
Orz2OMCv,33ixyhizc8v0km0rv7j1cbq82t9e2g,32z9zlut1pxsynesz8u6tbmg74qoho,Orz2OMCv,2020-0188,2020-11-15,00:50:02,01:10:24,NA,incomplete,89,color,1,left,Red_Plus_Dots_4.jpg,Red_Circle_Stripes_2.jpg,Green_Star_Grid_4.jpg,left,640.8250000004191,true,high,NA,NA,NA,NA,NA,NA,NA,false
Orz2OMCv,33ixyhizc8v0km0rv7j1cbq82t9e2g,32z9zlut1pxsynesz8u6tbmg74qoho,Orz2OMCv,2020-0188,2020-11-15,00:50:02,01:10:24,NA,incomplete,90,number,0,right,Purple_Circle_Grid_3.jpg,Purple_Star_Stripes_2.jpg,Blue_Triangle_Dots_3.jpg,left,578.5399999994552,false,high,NA,NA,NA,NA,NA,NA,NA,false
Orz2OMCv,33ixyhizc8v0km0rv7j1cbq82t9e2g,32z9zlut1pxsynesz8u6tbmg74qoho,Orz2OMCv,2020-0188,2020-11-15,00:50:02,01:10:24,NA,incomplete,91,number,1,left,Blue_Triangle_Grid_1.jpg,Purple_Circle_Stripes_1.jpg,Blue_Plus_Dots_4.jpg,right,470.1850000001723,false,high,NA,NA,NA,NA,NA,NA,NA,false
Orz2OMCv,33ixyhizc8v0km0rv7j1cbq82t9e2g,32z9zlut1pxsynesz8u6tbmg74qoho,Orz2OMCv,2020-0188,2020-11-15,00:50:02,01:10:24,NA,incomplete,92,number,1,left,Blue_Star_Dots_2.jpg,Green_Triangle_Stripes_2.jpg,Blue_Plus_Chess_1.jpg,right,574.4049999993294,false,high,NA,NA,NA,NA,NA,NA,NA,false
Orz2OMCv,33ixyhizc8v0km0rv7j1cbq82t9e2g,32z9zlut1pxsynesz8u6tbmg74qoho,Orz2OMCv,2020-0188,2020-11-15,00:50:02,01:10:24,NA,incomplete,93,number,1,right,Green_Triangle_Dots_4.jpg,Green_Circle_Chess_1.jpg,Purple_Plus_Grid_4.jpg,right,635.3699999999953,true,high,NA,NA,NA,NA,NA,NA,NA,false
Orz2OMCv,33ixyhizc8v0km0rv7j1cbq82t9e2g,32z9zlut1pxsynesz8u6tbmg74qoho,Orz2OMCv,2020-0188,2020-11-15,00:50:02,01:10:24,NA,incomplete,94,number,1,right,Purple_Plus_Stripes_4.jpg,Purple_Star_Dots_2.jpg,Red_Circle_Grid_4.jpg,right,692.9350000000559,true,high,NA,NA,NA,NA,NA,NA,NA,false
Orz2OMCv,33ixyhizc8v0km0rv7j1cbq82t9e2g,32z9zlut1pxsynesz8u6tbmg74qoho,Orz2OMCv,2020-0188,2020-11-15,00:50:02,01:10:24,NA,incomplete,95,number,1,left,Purple_Star_Stripes_1.jpg,Green_Plus_Chess_1.jpg,Purple_Circle_Grid_2.jpg,right,491.17000000027474,false,high,NA,NA,NA,NA,NA,NA,NA,false
Orz2OMCv,33ixyhizc8v0km0rv7j1cbq82t9e2g,32z9zlut1pxsynesz8u6tbmg74qoho,Orz2OMCv,2020-0188,2020-11-15,00:50:02,01:10:24,NA,incomplete,96,number,0,right,Red_Circle_Stripes_4.jpg,Red_Star_Grid_2.jpg,Blue_Plus_Chess_4.jpg,right,666.9300000004005,true,high,NA,NA,NA,NA,NA,NA,NA,false
Orz2OMCv,33ixyhizc8v0km0rv7j1cbq82t9e2g,32z9zlut1pxsynesz8u6tbmg74qoho,Orz2OMCv,2020-0188,2020-11-15,00:50:02,01:10:24,NA,incomplete,97,number,1,left,Blue_Star_Dots_2.jpg,Green_Plus_Chess_2.jpg,Blue_Triangle_Grid_3.jpg,right,652.6899999999441,false,high,NA,NA,NA,NA,NA,NA,NA,false
Orz2OMCv,33ixyhizc8v0km0rv7j1cbq82t9e2g,32z9zlut1pxsynesz8u6tbmg74qoho,Orz2OMCv,2020-0188,2020-11-15,00:50:02,01:10:24,NA,incomplete,98,number,1,right,Red_Star_Chess_2.jpg,Red_Circle_Grid_1.jpg,Purple_Triangle_Dots_2.jpg,right,692.1850000008708,true,high,NA,NA,NA,NA,NA,NA,NA,false
Orz2OMCv,33ixyhizc8v0km0rv7j1cbq82t9e2g,32z9zlut1pxsynesz8u6tbmg74qoho,Orz2OMCv,2020-0188,2020-11-15,00:50:02,01:10:24,NA,incomplete,99,number,1,right,Green_Plus_Chess_1.jpg,Green_Triangle_Stripes_4.jpg,Red_Star_Dots_1.jpg,right,660.9299999999348,true,high,NA,NA,NA,NA,NA,NA,NA,false
Orz2OMCv,33ixyhizc8v0km0rv7j1cbq82t9e2g,32z9zlut1pxsynesz8u6tbmg74qoho,Orz2OMCv,2020-0188,2020-11-15,00:50:02,01:10:24,NA,incomplete,100,color,1,right,Purple_Star_Chess_2.jpg,Blue_Plus_Stripes_2.jpg,Purple_Circle_Grid_3.jpg,left,641.5600000000559,false,high,NA,NA,NA,NA,NA,NA,NA,false
Orz2OMCv,33ixyhizc8v0km0rv7j1cbq82t9e2g,32z9zlut1pxsynesz8u6tbmg74qoho,Orz2OMCv,2020-0188,2020-11-15,00:50:02,01:10:24,NA,incomplete,101,color,1,right,Purple_Triangle_Chess_4.jpg,Blue_Circle_Dots_4.jpg,Purple_Star_Stripes_3.jpg,left,699.8499999999767,false,high,NA,NA,NA,NA,NA,NA,NA,false
Orz2OMCv,33ixyhizc8v0km0rv7j1cbq82t9e2g,32z9zlut1pxsynesz8u6tbmg74qoho,Orz2OMCv,2020-0188,2020-11-15,00:50:02,01:10:24,NA,incomplete,102,color,0,right,Green_Circle_Chess_2.jpg,Red_Plus_Grid_2.jpg,Green_Star_Stripes_3.jpg,right,612.4399999998277,true,high,NA,NA,NA,NA,NA,NA,NA,false
Orz2OMCv,33ixyhizc8v0km0rv7j1cbq82t9e2g,32z9zlut1pxsynesz8u6tbmg74qoho,Orz2OMCv,2020-0188,2020-11-15,00:50:02,01:10:24,NA,incomplete,103,color,0,left,Red_Circle_Dots_4.jpg,Red_Star_Chess_1.jpg,Purple_Plus_Stripes_4.jpg,left,606.8150000000605,true,high,NA,NA,NA,NA,NA,NA,NA,false
Orz2OMCv,33ixyhizc8v0km0rv7j1cbq82t9e2g,32z9zlut1pxsynesz8u6tbmg74qoho,Orz2OMCv,2020-0188,2020-11-15,00:50:02,01:10:24,NA,incomplete,104,color,1,right,Green_Triangle_Dots_4.jpg,Red_Circle_Stripes_4.jpg,Green_Star_Grid_3.jpg,right,714.0150000004796,true,high,NA,NA,NA,NA,NA,NA,NA,false
Orz2OMCv,33ixyhizc8v0km0rv7j1cbq82t9e2g,32z9zlut1pxsynesz8u6tbmg74qoho,Orz2OMCv,2020-0188,2020-11-15,00:50:02,01:10:24,NA,incomplete,105,color,1,left,Blue_Plus_Chess_4.jpg,Blue_Star_Grid_2.jpg,Red_Triangle_Stripes_4.jpg,left,625.3099999993574,true,high,NA,NA,NA,NA,NA,NA,NA,false
Orz2OMCv,33ixyhizc8v0km0rv7j1cbq82t9e2g,32z9zlut1pxsynesz8u6tbmg74qoho,Orz2OMCv,2020-0188,2020-11-15,00:50:02,01:10:24,NA,incomplete,106,color,1,right,Purple_Circle_Stripes_4.jpg,Blue_Plus_Dots_4.jpg,Purple_Star_Grid_1.jpg,right,597.0999999999767,true,high,NA,NA,NA,NA,NA,NA,NA,false
Orz2OMCv,33ixyhizc8v0km0rv7j1cbq82t9e2g,32z9zlut1pxsynesz8u6tbmg74qoho,Orz2OMCv,2020-0188,2020-11-15,00:50:02,01:10:24,NA,incomplete,107,color,1,right,Red_Circle_Chess_2.jpg,Purple_Plus_Stripes_2.jpg,Red_Triangle_Grid_1.jpg,right,647.6849999999395,true,high,NA,NA,NA,NA,NA,NA,NA,false
Orz2OMCv,33ixyhizc8v0km0rv7j1cbq82t9e2g,32z9zlut1pxsynesz8u6tbmg74qoho,Orz2OMCv,2020-0188,2020-11-15,00:50:02,01:10:24,NA,incomplete,108,color,0,left,Red_Circle_Chess_4.jpg,Red_Star_Stripes_2.jpg,Purple_Plus_Dots_4.jpg,left,769.5699999994831,true,high,NA,NA,NA,NA,NA,NA,NA,false
Orz2OMCv,33ixyhizc8v0km0rv7j1cbq82t9e2g,32z9zlut1pxsynesz8u6tbmg74qoho,Orz2OMCv,2020-0188,2020-11-15,00:50:02,01:10:24,NA,incomplete,109,color,1,left,Blue_Circle_Chess_4.jpg,Blue_Triangle_Stripes_1.jpg,Purple_Star_Dots_4.jpg,left,686.7050000000745,true,high,NA,NA,NA,NA,NA,NA,NA,false
Orz2OMCv,33ixyhizc8v0km0rv7j1cbq82t9e2g,32z9zlut1pxsynesz8u6tbmg74qoho,Orz2OMCv,2020-0188,2020-11-15,00:50:02,01:10:24,NA,incomplete,110,number,1,right,Red_Plus_Dots_1.jpg,Red_Circle_Grid_3.jpg,Green_Star_Chess_1.jpg,left,495.59000000043306,false,high,NA,NA,NA,NA,NA,NA,NA,false
Orz2OMCv,33ixyhizc8v0km0rv7j1cbq82t9e2g,32z9zlut1pxsynesz8u6tbmg74qoho,Orz2OMCv,2020-0188,2020-11-15,00:50:02,01:10:24,NA,incomplete,111,number,1,left,Blue_Circle_Grid_1.jpg,Green_Star_Dots_1.jpg,Blue_Plus_Stripes_3.jpg,right,560.6349999997765,false,high,NA,NA,NA,NA,NA,NA,NA,false
Orz2OMCv,33ixyhizc8v0km0rv7j1cbq82t9e2g,32z9zlut1pxsynesz8u6tbmg74qoho,Orz2OMCv,2020-0188,2020-11-15,00:50:02,01:10:24,NA,incomplete,112,number,1,left,Blue_Star_Stripes_1.jpg,Purple_Circle_Dots_1.jpg,Blue_Triangle_Chess_4.jpg,left,629.0149999995483,true,high,NA,NA,NA,NA,NA,NA,NA,false
Orz2OMCv,33ixyhizc8v0km0rv7j1cbq82t9e2g,32z9zlut1pxsynesz8u6tbmg74qoho,Orz2OMCv,2020-0188,2020-11-15,00:50:02,01:10:24,NA,incomplete,113,number,1,right,Red_Triangle_Grid_1.jpg,Red_Plus_Dots_2.jpg,Purple_Circle_Chess_1.jpg,right,656.434999999823,true,high,NA,NA,NA,NA,NA,NA,NA,false
Orz2OMCv,33ixyhizc8v0km0rv7j1cbq82t9e2g,32z9zlut1pxsynesz8u6tbmg74qoho,Orz2OMCv,2020-0188,2020-11-15,00:50:02,01:10:24,NA,incomplete,114,number,1,left,Blue_Triangle_Dots_3.jpg,Red_Circle_Chess_3.jpg,Blue_Plus_Grid_2.jpg,left,665.6299999994226,true,high,NA,NA,NA,NA,NA,NA,NA,false
Orz2OMCv,33ixyhizc8v0km0rv7j1cbq82t9e2g,32z9zlut1pxsynesz8u6tbmg74qoho,Orz2OMCv,2020-0188,2020-11-15,00:50:02,01:10:24,NA,incomplete,115,number,1,right,Blue_Star_Stripes_3.jpg,Blue_Triangle_Chess_2.jpg,Green_Plus_Dots_3.jpg,right,625.0800000006566,true,high,NA,NA,NA,NA,NA,NA,NA,false
Orz2OMCv,33ixyhizc8v0km0rv7j1cbq82t9e2g,32z9zlut1pxsynesz8u6tbmg74qoho,Orz2OMCv,2020-0188,2020-11-15,00:50:02,01:10:24,NA,incomplete,116,number,0,left,Blue_Star_Stripes_3.jpg,Green_Triangle_Dots_3.jpg,Blue_Plus_Grid_2.jpg,left,619.6650000001537,true,high,NA,NA,NA,NA,NA,NA,NA,false
Orz2OMCv,33ixyhizc8v0km0rv7j1cbq82t9e2g,32z9zlut1pxsynesz8u6tbmg74qoho,Orz2OMCv,2020-0188,2020-11-15,00:50:02,01:10:24,NA,incomplete,117,number,0,right,Green_Circle_Chess_2.jpg,Green_Triangle_Grid_4.jpg,Red_Star_Dots_2.jpg,right,621.5949999996228,true,high,NA,NA,NA,NA,NA,NA,NA,false
Orz2OMCv,33ixyhizc8v0km0rv7j1cbq82t9e2g,32z9zlut1pxsynesz8u6tbmg74qoho,Orz2OMCv,2020-0188,2020-11-15,00:50:02,01:10:24,NA,incomplete,118,number,1,right,Red_Plus_Dots_3.jpg,Red_Triangle_Chess_1.jpg,Green_Circle_Stripes_3.jpg,right,616.4200000002747,true,high,NA,NA,NA,NA,NA,NA,NA,false
Orz2OMCv,33ixyhizc8v0km0rv7j1cbq82t9e2g,32z9zlut1pxsynesz8u6tbmg74qoho,Orz2OMCv,2020-0188,2020-11-15,00:50:02,01:10:24,NA,incomplete,119,number,1,left,Purple_Plus_Chess_4.jpg,Green_Triangle_Grid_4.jpg,Purple_Circle_Stripes_2.jpg,left,675.2500000002328,true,high,NA,NA,NA,NA,NA,NA,NA,false
Orz2OMCv,33ixyhizc8v0km0rv7j1cbq82t9e2g,32z9zlut1pxsynesz8u6tbmg74qoho,Orz2OMCv,2020-0188,2020-11-15,00:50:02,01:10:24,NA,incomplete,120,color,1,right,Red_Circle_Chess_2.jpg,Blue_Triangle_Stripes_2.jpg,Red_Star_Grid_3.jpg,left,771.9449999995995,false,high,NA,NA,NA,NA,NA,NA,NA,false
Orz2OMCv,33ixyhizc8v0km0rv7j1cbq82t9e2g,32z9zlut1pxsynesz8u6tbmg74qoho,Orz2OMCv,2020-0188,2020-11-15,00:50:02,01:10:24,NA,incomplete,121,color,1,right,Purple_Star_Dots_3.jpg,Green_Triangle_Grid_3.jpg,Purple_Circle_Chess_2.jpg,right,688.0400000000373,true,high,NA,NA,NA,NA,NA,NA,NA,false
Orz2OMCv,33ixyhizc8v0km0rv7j1cbq82t9e2g,32z9zlut1pxsynesz8u6tbmg74qoho,Orz2OMCv,2020-0188,2020-11-15,00:50:02,01:10:24,NA,incomplete,122,color,0,left,Purple_Triangle_Stripes_4.jpg,Purple_Plus_Chess_2.jpg,Red_Star_Grid_4.jpg,left,590.8699999999953,true,high,NA,NA,NA,NA,NA,NA,NA,false
Orz2OMCv,33ixyhizc8v0km0rv7j1cbq82t9e2g,32z9zlut1pxsynesz8u6tbmg74qoho,Orz2OMCv,2020-0188,2020-11-15,00:50:02,01:10:24,NA,incomplete,123,color,1,right,Purple_Triangle_Dots_2.jpg,Blue_Circle_Grid_2.jpg,Purple_Plus_Chess_4.jpg,right,611.3049999994691,true,high,NA,NA,NA,NA,NA,NA,NA,false
Orz2OMCv,33ixyhizc8v0km0rv7j1cbq82t9e2g,32z9zlut1pxsynesz8u6tbmg74qoho,Orz2OMCv,2020-0188,2020-11-15,00:50:02,01:10:24,NA,incomplete,124,color,1,left,Blue_Circle_Grid_4.jpg,Blue_Triangle_Stripes_3.jpg,Red_Star_Chess_4.jpg,left,607.5450000007404,true,high,NA,NA,NA,NA,NA,NA,NA,false
Orz2OMCv,33ixyhizc8v0km0rv7j1cbq82t9e2g,32z9zlut1pxsynesz8u6tbmg74qoho,Orz2OMCv,2020-0188,2020-11-15,00:50:02,01:10:24,NA,incomplete,125,color,1,left,Green_Circle_Chess_3.jpg,Green_Plus_Grid_4.jpg,Blue_Triangle_Dots_3.jpg,left,548.3400000002002,true,high,NA,NA,NA,NA,NA,NA,NA,false
Orz2OMCv,33ixyhizc8v0km0rv7j1cbq82t9e2g,32z9zlut1pxsynesz8u6tbmg74qoho,Orz2OMCv,2020-0188,2020-11-15,00:50:02,01:10:24,NA,incomplete,126,color,0,left,Red_Star_Grid_2.jpg,Red_Plus_Dots_1.jpg,Blue_Circle_Chess_2.jpg,left,530.2700000002515,true,high,NA,NA,NA,NA,NA,NA,NA,false
Orz2OMCv,33ixyhizc8v0km0rv7j1cbq82t9e2g,32z9zlut1pxsynesz8u6tbmg74qoho,Orz2OMCv,2020-0188,2020-11-15,00:50:02,01:10:24,NA,incomplete,127,color,1,left,Blue_Star_Grid_3.jpg,Blue_Triangle_Stripes_2.jpg,Red_Plus_Chess_3.jpg,left,560.0949999998556,true,high,NA,NA,NA,NA,NA,NA,NA,false
Orz2OMCv,33ixyhizc8v0km0rv7j1cbq82t9e2g,32z9zlut1pxsynesz8u6tbmg74qoho,Orz2OMCv,2020-0188,2020-11-15,00:50:02,01:10:24,NA,incomplete,128,color,0,left,Blue_Triangle_Dots_3.jpg,Blue_Circle_Chess_1.jpg,Purple_Star_Grid_3.jpg,left,612.8799999996554,true,high,NA,NA,NA,NA,NA,NA,NA,false
Orz2OMCv,33ixyhizc8v0km0rv7j1cbq82t9e2g,32z9zlut1pxsynesz8u6tbmg74qoho,Orz2OMCv,2020-0188,2020-11-15,00:50:02,01:10:24,NA,incomplete,129,color,1,left,Green_Triangle_Chess_3.jpg,Green_Plus_Grid_2.jpg,Red_Circle_Dots_3.jpg,left,616.3999999999069,true,high,NA,NA,NA,NA,NA,NA,NA,false
Orz2OMCv,33ixyhizc8v0km0rv7j1cbq82t9e2g,32z9zlut1pxsynesz8u6tbmg74qoho,Orz2OMCv,2020-0188,2020-11-15,00:50:02,01:10:24,NA,incomplete,130,color,0,right,Purple_Star_Chess_1.jpg,Red_Triangle_Stripes_1.jpg,Purple_Plus_Grid_2.jpg,right,561.0649999998277,true,high,NA,NA,NA,NA,NA,NA,NA,false
Orz2OMCv,33ixyhizc8v0km0rv7j1cbq82t9e2g,32z9zlut1pxsynesz8u6tbmg74qoho,Orz2OMCv,2020-0188,2020-11-15,00:50:02,01:10:24,NA,incomplete,131,color,1,right,Red_Plus_Grid_3.jpg,Purple_Circle_Stripes_3.jpg,Red_Triangle_Chess_2.jpg,left,718.0400000006193,false,high,NA,NA,NA,NA,NA,NA,NA,false
Orz2OMCv,33ixyhizc8v0km0rv7j1cbq82t9e2g,32z9zlut1pxsynesz8u6tbmg74qoho,Orz2OMCv,2020-0188,2020-11-15,00:50:02,01:10:24,NA,incomplete,132,color,0,right,Green_Plus_Chess_2.jpg,Blue_Circle_Grid_2.jpg,Green_Triangle_Dots_4.jpg,left,796.6449999994365,false,high,NA,NA,NA,NA,NA,NA,NA,false
Orz2OMCv,33ixyhizc8v0km0rv7j1cbq82t9e2g,32z9zlut1pxsynesz8u6tbmg74qoho,Orz2OMCv,2020-0188,2020-11-15,00:50:02,01:10:24,NA,incomplete,133,color,1,left,Purple_Triangle_Dots_4.jpg,Purple_Star_Grid_3.jpg,Green_Circle_Chess_4.jpg,right,640.1450000002515,false,high,NA,NA,NA,NA,NA,NA,NA,false
Orz2OMCv,33ixyhizc8v0km0rv7j1cbq82t9e2g,32z9zlut1pxsynesz8u6tbmg74qoho,Orz2OMCv,2020-0188,2020-11-15,00:50:02,01:10:24,NA,incomplete,134,color,1,right,Blue_Plus_Stripes_1.jpg,Green_Star_Chess_1.jpg,Blue_Triangle_Grid_4.jpg,left,569.9050000002608,false,high,NA,NA,NA,NA,NA,NA,NA,false
Orz2OMCv,33ixyhizc8v0km0rv7j1cbq82t9e2g,32z9zlut1pxsynesz8u6tbmg74qoho,Orz2OMCv,2020-0188,2020-11-15,00:50:02,01:10:24,NA,incomplete,135,color,1,left,Purple_Star_Dots_1.jpg,Purple_Plus_Grid_3.jpg,Red_Circle_Stripes_1.jpg,right,738.1099999992875,false,high,NA,NA,NA,NA,NA,NA,NA,false
Orz2OMCv,33ixyhizc8v0km0rv7j1cbq82t9e2g,32z9zlut1pxsynesz8u6tbmg74qoho,Orz2OMCv,2020-0188,2020-11-15,00:50:02,01:10:24,NA,incomplete,136,color,1,right,Red_Star_Stripes_2.jpg,Green_Plus_Chess_2.jpg,Red_Circle_Grid_4.jpg,left,862.8149999995949,false,high,NA,NA,NA,NA,NA,NA,NA,false
Orz2OMCv,33ixyhizc8v0km0rv7j1cbq82t9e2g,32z9zlut1pxsynesz8u6tbmg74qoho,Orz2OMCv,2020-0188,2020-11-15,00:50:02,01:10:24,NA,incomplete,137,color,1,left,Red_Star_Dots_4.jpg,Red_Circle_Chess_2.jpg,Green_Plus_Stripes_4.jpg,left,744.1399999997811,true,high,NA,NA,NA,NA,NA,NA,NA,false
Orz2OMCv,33ixyhizc8v0km0rv7j1cbq82t9e2g,32z9zlut1pxsynesz8u6tbmg74qoho,Orz2OMCv,2020-0188,2020-11-15,00:50:02,01:10:24,NA,incomplete,138,color,1,left,Green_Plus_Dots_3.jpg,Green_Circle_Chess_2.jpg,Purple_Star_Stripes_3.jpg,left,637.224999999511,true,high,NA,NA,NA,NA,NA,NA,NA,false
Orz2OMCv,33ixyhizc8v0km0rv7j1cbq82t9e2g,32z9zlut1pxsynesz8u6tbmg74qoho,Orz2OMCv,2020-0188,2020-11-15,00:50:02,01:10:24,NA,incomplete,139,color,0,left,Green_Star_Chess_2.jpg,Green_Plus_Stripes_1.jpg,Purple_Circle_Grid_2.jpg,left,630.3399999996182,true,high,NA,NA,NA,NA,NA,NA,NA,false
Orz2OMCv,33ixyhizc8v0km0rv7j1cbq82t9e2g,32z9zlut1pxsynesz8u6tbmg74qoho,Orz2OMCv,2020-0188,2020-11-15,00:50:02,01:10:24,NA,incomplete,140,number,1,right,Blue_Star_Chess_1.jpg,Blue_Plus_Grid_4.jpg,Green_Circle_Stripes_1.jpg,left,691.7450000001118,false,high,NA,NA,NA,NA,NA,NA,NA,false
Orz2OMCv,33ixyhizc8v0km0rv7j1cbq82t9e2g,32z9zlut1pxsynesz8u6tbmg74qoho,Orz2OMCv,2020-0188,2020-11-15,00:50:02,01:10:24,NA,incomplete,141,number,1,left,Red_Circle_Chess_4.jpg,Blue_Triangle_Dots_4.jpg,Red_Star_Grid_3.jpg,right,666.6199999999953,false,high,NA,NA,NA,NA,NA,NA,NA,false
Orz2OMCv,33ixyhizc8v0km0rv7j1cbq82t9e2g,32z9zlut1pxsynesz8u6tbmg74qoho,Orz2OMCv,2020-0188,2020-11-15,00:50:02,01:10:24,NA,incomplete,142,number,1,right,Blue_Star_Grid_2.jpg,Blue_Triangle_Chess_4.jpg,Purple_Circle_Dots_2.jpg,right,691.5449999996927,true,high,NA,NA,NA,NA,NA,NA,NA,false
Orz2OMCv,33ixyhizc8v0km0rv7j1cbq82t9e2g,32z9zlut1pxsynesz8u6tbmg74qoho,Orz2OMCv,2020-0188,2020-11-15,00:50:02,01:10:24,NA,incomplete,143,number,0,right,Purple_Circle_Dots_2.jpg,Purple_Plus_Grid_4.jpg,Green_Star_Stripes_2.jpg,left,675.5750000001863,false,high,NA,NA,NA,NA,NA,NA,NA,false
Orz2OMCv,33ixyhizc8v0km0rv7j1cbq82t9e2g,32z9zlut1pxsynesz8u6tbmg74qoho,Orz2OMCv,2020-0188,2020-11-15,00:50:02,01:10:24,NA,incomplete,144,number,1,left,Red_Plus_Dots_3.jpg,Blue_Circle_Stripes_3.jpg,Red_Star_Chess_4.jpg,left,841.9800000002142,true,high,NA,NA,NA,NA,NA,NA,NA,false
Orz2OMCv,33ixyhizc8v0km0rv7j1cbq82t9e2g,32z9zlut1pxsynesz8u6tbmg74qoho,Orz2OMCv,2020-0188,2020-11-15,00:50:02,01:10:24,NA,incomplete,145,number,1,left,Red_Plus_Chess_1.jpg,Green_Circle_Grid_1.jpg,Red_Triangle_Stripes_2.jpg,left,700.354999999865,true,high,NA,NA,NA,NA,NA,NA,NA,false
Orz2OMCv,33ixyhizc8v0km0rv7j1cbq82t9e2g,32z9zlut1pxsynesz8u6tbmg74qoho,Orz2OMCv,2020-0188,2020-11-15,00:50:02,01:10:24,NA,incomplete,146,number,1,right,Green_Plus_Dots_1.jpg,Green_Star_Stripes_4.jpg,Blue_Circle_Chess_1.jpg,right,562.5949999995064,true,high,NA,NA,NA,NA,NA,NA,NA,false
Orz2OMCv,33ixyhizc8v0km0rv7j1cbq82t9e2g,32z9zlut1pxsynesz8u6tbmg74qoho,Orz2OMCv,2020-0188,2020-11-15,00:50:02,01:10:24,NA,incomplete,147,number,1,left,Green_Star_Chess_3.jpg,Blue_Triangle_Grid_3.jpg,Green_Plus_Stripes_2.jpg,left,568.6900000000605,true,high,NA,NA,NA,NA,NA,NA,NA,false
Orz2OMCv,33ixyhizc8v0km0rv7j1cbq82t9e2g,32z9zlut1pxsynesz8u6tbmg74qoho,Orz2OMCv,2020-0188,2020-11-15,00:50:02,01:10:24,NA,incomplete,148,number,0,right,Red_Circle_Stripes_1.jpg,Red_Plus_Dots_4.jpg,Green_Star_Grid_1.jpg,right,588.5100000005914,true,high,NA,NA,NA,NA,NA,NA,NA,false
Orz2OMCv,33ixyhizc8v0km0rv7j1cbq82t9e2g,32z9zlut1pxsynesz8u6tbmg74qoho,Orz2OMCv,2020-0188,2020-11-15,00:50:02,01:10:24,NA,incomplete,149,number,1,left,Red_Triangle_Grid_4.jpg,Blue_Plus_Stripes_4.jpg,Red_Star_Chess_2.jpg,right,555.609999999404,false,high,NA,NA,NA,NA,NA,NA,NA,false
Orz2OMCv,33ixyhizc8v0km0rv7j1cbq82t9e2g,32z9zlut1pxsynesz8u6tbmg74qoho,Orz2OMCv,2020-0188,2020-11-15,00:50:02,01:10:24,NA,incomplete,150,number,1,right,Blue_Plus_Grid_1.jpg,Blue_Triangle_Chess_4.jpg,Red_Star_Stripes_1.jpg,right,657.6100000002189,true,high,NA,NA,NA,NA,NA,NA,NA,false
Orz2OMCv,33ixyhizc8v0km0rv7j1cbq82t9e2g,32z9zlut1pxsynesz8u6tbmg74qoho,Orz2OMCv,2020-0188,2020-11-15,00:50:02,01:10:24,NA,incomplete,151,number,1,left,Blue_Circle_Grid_1.jpg,Green_Triangle_Dots_1.jpg,Blue_Star_Chess_2.jpg,left,513.8299999999581,true,high,NA,NA,NA,NA,NA,NA,NA,false
Orz2OMCv,33ixyhizc8v0km0rv7j1cbq82t9e2g,32z9zlut1pxsynesz8u6tbmg74qoho,Orz2OMCv,2020-0188,2020-11-15,00:50:02,01:10:24,NA,incomplete,152,number,1,right,Blue_Plus_Stripes_2.jpg,Blue_Star_Grid_4.jpg,Green_Triangle_Dots_2.jpg,left,601.1999999991385,false,high,NA,NA,NA,NA,NA,NA,NA,false
Orz2OMCv,33ixyhizc8v0km0rv7j1cbq82t9e2g,32z9zlut1pxsynesz8u6tbmg74qoho,Orz2OMCv,2020-0188,2020-11-15,00:50:02,01:10:24,NA,incomplete,153,number,1,left,Purple_Circle_Dots_2.jpg,Green_Plus_Chess_2.jpg,Purple_Star_Stripes_3.jpg,left,675.9000000002561,true,high,NA,NA,NA,NA,NA,NA,NA,false
Orz2OMCv,33ixyhizc8v0km0rv7j1cbq82t9e2g,32z9zlut1pxsynesz8u6tbmg74qoho,Orz2OMCv,2020-0188,2020-11-15,00:50:02,01:10:24,NA,incomplete,154,number,0,left,Red_Plus_Grid_1.jpg,Purple_Star_Chess_1.jpg,Red_Circle_Stripes_2.jpg,right,698.1900000000605,false,high,NA,NA,NA,NA,NA,NA,NA,false
Orz2OMCv,33ixyhizc8v0km0rv7j1cbq82t9e2g,32z9zlut1pxsynesz8u6tbmg74qoho,Orz2OMCv,2020-0188,2020-11-15,00:50:02,01:10:24,NA,incomplete,155,number,1,left,Purple_Plus_Grid_2.jpg,Red_Circle_Stripes_2.jpg,Purple_Triangle_Chess_4.jpg,right,720.3000000000466,false,high,NA,NA,NA,NA,NA,NA,NA,false
Orz2OMCv,33ixyhizc8v0km0rv7j1cbq82t9e2g,32z9zlut1pxsynesz8u6tbmg74qoho,Orz2OMCv,2020-0188,2020-11-15,00:50:02,01:10:24,NA,incomplete,156,number,1,left,Red_Triangle_Grid_4.jpg,Green_Plus_Chess_4.jpg,Red_Star_Stripes_3.jpg,left,695.9000000006054,true,high,NA,NA,NA,NA,NA,NA,NA,false
Orz2OMCv,33ixyhizc8v0km0rv7j1cbq82t9e2g,32z9zlut1pxsynesz8u6tbmg74qoho,Orz2OMCv,2020-0188,2020-11-15,00:50:02,01:10:24,NA,incomplete,157,number,1,left,Purple_Star_Chess_2.jpg,Green_Triangle_Stripes_2.jpg,Purple_Circle_Dots_3.jpg,left,631.5050000002375,true,high,NA,NA,NA,NA,NA,NA,NA,false
Orz2OMCv,33ixyhizc8v0km0rv7j1cbq82t9e2g,32z9zlut1pxsynesz8u6tbmg74qoho,Orz2OMCv,2020-0188,2020-11-15,00:50:02,01:10:24,NA,incomplete,158,number,0,left,Blue_Circle_Dots_1.jpg,Green_Plus_Stripes_1.jpg,Blue_Star_Chess_3.jpg,right,769.5849999999627,false,high,NA,NA,NA,NA,NA,NA,NA,false
Orz2OMCv,33ixyhizc8v0km0rv7j1cbq82t9e2g,32z9zlut1pxsynesz8u6tbmg74qoho,Orz2OMCv,2020-0188,2020-11-15,00:50:02,01:10:24,NA,incomplete,159,number,1,right,Green_Triangle_Chess_4.jpg,Green_Plus_Stripes_3.jpg,Red_Circle_Grid_4.jpg,left,656.6749999992317,false,high,NA,NA,NA,NA,NA,NA,NA,false
Orz2OMCv,33ixyhizc8v0km0rv7j1cbq82t9e2g,32z9zlut1pxsynesz8u6tbmg74qoho,Orz2OMCv,2020-0188,2020-11-15,00:50:02,01:10:24,NA,incomplete,160,color,0,left,Purple_Plus_Dots_3.jpg,Purple_Star_Chess_1.jpg,Green_Triangle_Grid_3.jpg,left,594.710000000312,true,high,NA,NA,NA,NA,NA,NA,NA,false
Orz2OMCv,33ixyhizc8v0km0rv7j1cbq82t9e2g,32z9zlut1pxsynesz8u6tbmg74qoho,Orz2OMCv,2020-0188,2020-11-15,00:50:02,01:10:24,NA,incomplete,161,color,1,left,Red_Triangle_Chess_2.jpg,Red_Star_Stripes_4.jpg,Green_Plus_Grid_2.jpg,right,868.265000000014,false,high,NA,NA,NA,NA,NA,NA,NA,false
Orz2OMCv,33ixyhizc8v0km0rv7j1cbq82t9e2g,32z9zlut1pxsynesz8u6tbmg74qoho,Orz2OMCv,2020-0188,2020-11-15,00:50:02,01:10:24,NA,incomplete,162,color,0,right,Green_Star_Grid_2.jpg,Purple_Circle_Dots_2.jpg,Green_Triangle_Chess_4.jpg,right,606.2949999995762,true,high,NA,NA,NA,NA,NA,NA,NA,false
Orz2OMCv,33ixyhizc8v0km0rv7j1cbq82t9e2g,32z9zlut1pxsynesz8u6tbmg74qoho,Orz2OMCv,2020-0188,2020-11-15,00:50:02,01:10:24,NA,incomplete,163,color,1,right,Blue_Plus_Stripes_3.jpg,Red_Triangle_Grid_3.jpg,Blue_Circle_Dots_1.jpg,right,616.820000000298,true,high,NA,NA,NA,NA,NA,NA,NA,false
Orz2OMCv,33ixyhizc8v0km0rv7j1cbq82t9e2g,32z9zlut1pxsynesz8u6tbmg74qoho,Orz2OMCv,2020-0188,2020-11-15,00:50:02,01:10:24,NA,incomplete,164,color,1,right,Purple_Triangle_Dots_4.jpg,Blue_Circle_Chess_4.jpg,Purple_Plus_Stripes_3.jpg,right,511.91500000003725,true,high,NA,NA,NA,NA,NA,NA,NA,false
Orz2OMCv,33ixyhizc8v0km0rv7j1cbq82t9e2g,32z9zlut1pxsynesz8u6tbmg74qoho,Orz2OMCv,2020-0188,2020-11-15,00:50:02,01:10:24,NA,incomplete,165,color,1,left,Green_Circle_Chess_4.jpg,Green_Triangle_Stripes_2.jpg,Blue_Star_Dots_4.jpg,left,613.4750000000931,true,high,NA,NA,NA,NA,NA,NA,NA,false
Orz2OMCv,33ixyhizc8v0km0rv7j1cbq82t9e2g,32z9zlut1pxsynesz8u6tbmg74qoho,Orz2OMCv,2020-0188,2020-11-15,00:50:02,01:10:24,NA,incomplete,166,color,0,left,Green_Star_Chess_4.jpg,Green_Plus_Stripes_3.jpg,Purple_Circle_Grid_4.jpg,left,577.7399999996414,true,high,NA,NA,NA,NA,NA,NA,NA,false
Orz2OMCv,33ixyhizc8v0km0rv7j1cbq82t9e2g,32z9zlut1pxsynesz8u6tbmg74qoho,Orz2OMCv,2020-0188,2020-11-15,00:50:02,01:10:24,NA,incomplete,167,color,1,left,Blue_Triangle_Stripes_3.jpg,Blue_Circle_Grid_1.jpg,Purple_Star_Chess_3.jpg,left,582.4849999998696,true,high,NA,NA,NA,NA,NA,NA,NA,false
Orz2OMCv,33ixyhizc8v0km0rv7j1cbq82t9e2g,32z9zlut1pxsynesz8u6tbmg74qoho,Orz2OMCv,2020-0188,2020-11-15,00:50:02,01:10:24,NA,incomplete,168,color,0,left,Purple_Circle_Dots_1.jpg,Purple_Star_Stripes_4.jpg,Blue_Plus_Chess_1.jpg,left,674.1600000004983,true,high,NA,NA,NA,NA,NA,NA,NA,false
Orz2OMCv,33ixyhizc8v0km0rv7j1cbq82t9e2g,32z9zlut1pxsynesz8u6tbmg74qoho,Orz2OMCv,2020-0188,2020-11-15,00:50:02,01:10:24,NA,incomplete,169,color,1,right,Blue_Plus_Dots_4.jpg,Red_Triangle_Stripes_4.jpg,Blue_Circle_Grid_2.jpg,right,608.9900000005728,true,high,NA,NA,NA,NA,NA,NA,NA,false
Orz2OMCv,33ixyhizc8v0km0rv7j1cbq82t9e2g,32z9zlut1pxsynesz8u6tbmg74qoho,Orz2OMCv,2020-0188,2020-11-15,00:50:02,01:10:24,NA,incomplete,170,color,1,left,Purple_Plus_Grid_2.jpg,Purple_Star_Chess_4.jpg,Red_Circle_Stripes_2.jpg,left,556.2800000007264,true,high,NA,NA,NA,NA,NA,NA,NA,false
Orz2OMCv,33ixyhizc8v0km0rv7j1cbq82t9e2g,32z9zlut1pxsynesz8u6tbmg74qoho,Orz2OMCv,2020-0188,2020-11-15,00:50:02,01:10:24,NA,incomplete,171,color,1,right,Red_Plus_Stripes_4.jpg,Green_Star_Dots_4.jpg,Red_Circle_Chess_3.jpg,right,441.56500000006054,true,high,NA,NA,NA,NA,NA,NA,NA,false
Orz2OMCv,33ixyhizc8v0km0rv7j1cbq82t9e2g,32z9zlut1pxsynesz8u6tbmg74qoho,Orz2OMCv,2020-0188,2020-11-15,00:50:02,01:10:24,NA,incomplete,172,color,1,right,Blue_Star_Dots_3.jpg,Green_Triangle_Stripes_3.jpg,Blue_Circle_Chess_2.jpg,right,514.680000000284,true,high,NA,NA,NA,NA,NA,NA,NA,false
Orz2OMCv,33ixyhizc8v0km0rv7j1cbq82t9e2g,32z9zlut1pxsynesz8u6tbmg74qoho,Orz2OMCv,2020-0188,2020-11-15,00:50:02,01:10:24,NA,incomplete,173,color,1,left,Green_Star_Chess_4.jpg,Green_Circle_Dots_3.jpg,Blue_Plus_Stripes_4.jpg,left,618.9049999993294,true,high,NA,NA,NA,NA,NA,NA,NA,false
Orz2OMCv,33ixyhizc8v0km0rv7j1cbq82t9e2g,32z9zlut1pxsynesz8u6tbmg74qoho,Orz2OMCv,2020-0188,2020-11-15,00:50:02,01:10:24,NA,incomplete,174,color,1,right,Red_Plus_Dots_2.jpg,Blue_Star_Chess_2.jpg,Red_Circle_Grid_4.jpg,right,488.6699999998091,true,high,NA,NA,NA,NA,NA,NA,NA,false
Orz2OMCv,33ixyhizc8v0km0rv7j1cbq82t9e2g,32z9zlut1pxsynesz8u6tbmg74qoho,Orz2OMCv,2020-0188,2020-11-15,00:50:02,01:10:24,NA,incomplete,175,color,1,right,Blue_Plus_Grid_1.jpg,Purple_Triangle_Chess_1.jpg,Blue_Star_Stripes_4.jpg,right,482.5449999998091,true,high,NA,NA,NA,NA,NA,NA,NA,false
Orz2OMCv,33ixyhizc8v0km0rv7j1cbq82t9e2g,32z9zlut1pxsynesz8u6tbmg74qoho,Orz2OMCv,2020-0188,2020-11-15,00:50:02,01:10:24,NA,incomplete,176,color,1,right,Purple_Star_Dots_4.jpg,Green_Triangle_Grid_4.jpg,Purple_Plus_Stripes_2.jpg,right,650.8199999998324,true,high,NA,NA,NA,NA,NA,NA,NA,false
Orz2OMCv,33ixyhizc8v0km0rv7j1cbq82t9e2g,32z9zlut1pxsynesz8u6tbmg74qoho,Orz2OMCv,2020-0188,2020-11-15,00:50:02,01:10:24,NA,incomplete,177,color,1,left,Blue_Star_Grid_4.jpg,Blue_Triangle_Dots_3.jpg,Green_Plus_Stripes_4.jpg,left,531.629999999539,true,high,NA,NA,NA,NA,NA,NA,NA,false
Orz2OMCv,33ixyhizc8v0km0rv7j1cbq82t9e2g,32z9zlut1pxsynesz8u6tbmg74qoho,Orz2OMCv,2020-0188,2020-11-15,00:50:02,01:10:24,NA,incomplete,178,color,1,left,Green_Star_Dots_1.jpg,Green_Plus_Chess_3.jpg,Blue_Triangle_Grid_1.jpg,left,474.2749999995576,true,high,NA,NA,NA,NA,NA,NA,NA,false
Orz2OMCv,33ixyhizc8v0km0rv7j1cbq82t9e2g,32z9zlut1pxsynesz8u6tbmg74qoho,Orz2OMCv,2020-0188,2020-11-15,00:50:02,01:10:24,NA,incomplete,179,color,1,right,Red_Circle_Dots_1.jpg,Blue_Triangle_Chess_1.jpg,Red_Star_Grid_4.jpg,right,447.71500000020023,true,high,NA,NA,NA,NA,NA,NA,NA,false
Orz2OMCv,33ixyhizc8v0km0rv7j1cbq82t9e2g,32z9zlut1pxsynesz8u6tbmg74qoho,Orz2OMCv,2020-0188,2020-11-15,00:50:02,01:10:24,NA,incomplete,180,number,1,left,Red_Triangle_Grid_4.jpg,Green_Star_Chess_4.jpg,Red_Plus_Dots_3.jpg,right,481.76999999943655,false,high,NA,NA,NA,NA,NA,NA,NA,false
Orz2OMCv,33ixyhizc8v0km0rv7j1cbq82t9e2g,32z9zlut1pxsynesz8u6tbmg74qoho,Orz2OMCv,2020-0188,2020-11-15,00:50:02,01:10:24,NA,incomplete,181,number,0,left,Purple_Triangle_Grid_1.jpg,Green_Star_Chess_1.jpg,Purple_Plus_Stripes_4.jpg,left,633.399999999674,true,high,NA,NA,NA,NA,NA,NA,NA,false
Orz2OMCv,33ixyhizc8v0km0rv7j1cbq82t9e2g,32z9zlut1pxsynesz8u6tbmg74qoho,Orz2OMCv,2020-0188,2020-11-15,00:50:02,01:10:24,NA,incomplete,182,number,1,left,Green_Circle_Chess_4.jpg,Red_Triangle_Dots_4.jpg,Green_Star_Stripes_3.jpg,left,675.8849999996601,true,high,NA,NA,NA,NA,NA,NA,NA,false
Orz2OMCv,33ixyhizc8v0km0rv7j1cbq82t9e2g,32z9zlut1pxsynesz8u6tbmg74qoho,Orz2OMCv,2020-0188,2020-11-15,00:50:02,01:10:24,NA,incomplete,183,number,1,left,Red_Plus_Dots_1.jpg,Green_Star_Chess_1.jpg,Red_Circle_Stripes_4.jpg,left,565.3800000000047,true,high,NA,NA,NA,NA,NA,NA,NA,false
Orz2OMCv,33ixyhizc8v0km0rv7j1cbq82t9e2g,32z9zlut1pxsynesz8u6tbmg74qoho,Orz2OMCv,2020-0188,2020-11-15,00:50:02,01:10:24,NA,incomplete,184,number,1,left,Blue_Circle_Dots_2.jpg,Purple_Star_Grid_2.jpg,Blue_Plus_Stripes_4.jpg,right,543.4999999997672,false,high,NA,NA,NA,NA,NA,NA,NA,false
Orz2OMCv,33ixyhizc8v0km0rv7j1cbq82t9e2g,32z9zlut1pxsynesz8u6tbmg74qoho,Orz2OMCv,2020-0188,2020-11-15,00:50:02,01:10:24,NA,incomplete,185,number,1,right,Green_Star_Grid_1.jpg,Green_Plus_Chess_2.jpg,Red_Triangle_Stripes_1.jpg,right,612.145000000135,true,high,NA,NA,NA,NA,NA,NA,NA,false
Orz2OMCv,33ixyhizc8v0km0rv7j1cbq82t9e2g,32z9zlut1pxsynesz8u6tbmg74qoho,Orz2OMCv,2020-0188,2020-11-15,00:50:02,01:10:24,NA,incomplete,186,number,1,left,Blue_Circle_Chess_3.jpg,Green_Star_Dots_3.jpg,Blue_Triangle_Grid_4.jpg,right,695.0350000006147,false,high,NA,NA,NA,NA,NA,NA,NA,false
Orz2OMCv,33ixyhizc8v0km0rv7j1cbq82t9e2g,32z9zlut1pxsynesz8u6tbmg74qoho,Orz2OMCv,2020-0188,2020-11-15,00:50:02,01:10:24,NA,incomplete,187,number,0,left,Red_Plus_Grid_3.jpg,Purple_Triangle_Chess_3.jpg,Red_Star_Stripes_2.jpg,left,646.6900000005262,true,high,NA,NA,NA,NA,NA,NA,NA,false
Orz2OMCv,33ixyhizc8v0km0rv7j1cbq82t9e2g,32z9zlut1pxsynesz8u6tbmg74qoho,Orz2OMCv,2020-0188,2020-11-15,00:50:02,01:10:24,NA,incomplete,188,number,1,left,Purple_Circle_Stripes_1.jpg,Blue_Star_Grid_1.jpg,Purple_Triangle_Dots_4.jpg,left,640.4799999999814,true,high,NA,NA,NA,NA,NA,NA,NA,false
Orz2OMCv,33ixyhizc8v0km0rv7j1cbq82t9e2g,32z9zlut1pxsynesz8u6tbmg74qoho,Orz2OMCv,2020-0188,2020-11-15,00:50:02,01:10:24,NA,incomplete,189,number,1,left,Red_Circle_Chess_4.jpg,Blue_Triangle_Dots_4.jpg,Red_Star_Grid_3.jpg,left,619.0599999999395,true,high,NA,NA,NA,NA,NA,NA,NA,false
Orz2OMCv,33ixyhizc8v0km0rv7j1cbq82t9e2g,32z9zlut1pxsynesz8u6tbmg74qoho,Orz2OMCv,2020-0188,2020-11-15,00:50:02,01:10:24,NA,incomplete,190,number,1,left,Blue_Circle_Stripes_3.jpg,Purple_Plus_Chess_3.jpg,Blue_Triangle_Dots_1.jpg,left,620.6299999994226,true,high,NA,NA,NA,NA,NA,NA,NA,false
Orz2OMCv,33ixyhizc8v0km0rv7j1cbq82t9e2g,32z9zlut1pxsynesz8u6tbmg74qoho,Orz2OMCv,2020-0188,2020-11-15,00:50:02,01:10:24,NA,incomplete,191,number,1,right,Blue_Circle_Stripes_4.jpg,Blue_Triangle_Grid_1.jpg,Purple_Star_Chess_4.jpg,right,550.7249999999767,true,high,NA,NA,NA,NA,NA,NA,NA,false
Orz2OMCv,33ixyhizc8v0km0rv7j1cbq82t9e2g,32z9zlut1pxsynesz8u6tbmg74qoho,Orz2OMCv,2020-0188,2020-11-15,00:50:02,01:10:24,NA,incomplete,192,number,1,right,Blue_Triangle_Grid_2.jpg,Blue_Star_Dots_4.jpg,Purple_Plus_Chess_2.jpg,right,658.7049999997253,true,high,NA,NA,NA,NA,NA,NA,NA,false
Orz2OMCv,33ixyhizc8v0km0rv7j1cbq82t9e2g,32z9zlut1pxsynesz8u6tbmg74qoho,Orz2OMCv,2020-0188,2020-11-15,00:50:02,01:10:24,NA,incomplete,193,number,1,left,Purple_Star_Dots_3.jpg,Red_Triangle_Stripes_3.jpg,Purple_Circle_Chess_1.jpg,left,581.2000000005355,true,high,NA,NA,NA,NA,NA,NA,NA,false
Orz2OMCv,33ixyhizc8v0km0rv7j1cbq82t9e2g,32z9zlut1pxsynesz8u6tbmg74qoho,Orz2OMCv,2020-0188,2020-11-15,00:50:02,01:10:24,NA,incomplete,194,number,0,right,Red_Star_Chess_2.jpg,Red_Plus_Dots_3.jpg,Green_Triangle_Grid_2.jpg,right,577.3699999999953,true,high,NA,NA,NA,NA,NA,NA,NA,false
Orz2OMCv,33ixyhizc8v0km0rv7j1cbq82t9e2g,32z9zlut1pxsynesz8u6tbmg74qoho,Orz2OMCv,2020-0188,2020-11-15,00:50:02,01:10:24,NA,incomplete,195,number,1,right,Red_Triangle_Stripes_1.jpg,Red_Star_Dots_4.jpg,Purple_Circle_Grid_1.jpg,right,589.3399999995017,true,high,NA,NA,NA,NA,NA,NA,NA,false
Orz2OMCv,33ixyhizc8v0km0rv7j1cbq82t9e2g,32z9zlut1pxsynesz8u6tbmg74qoho,Orz2OMCv,2020-0188,2020-11-15,00:50:02,01:10:24,NA,incomplete,196,number,1,left,Blue_Triangle_Grid_2.jpg,Green_Plus_Dots_2.jpg,Blue_Star_Stripes_3.jpg,right,681.9599999999627,false,high,NA,NA,NA,NA,NA,NA,NA,false
Orz2OMCv,33ixyhizc8v0km0rv7j1cbq82t9e2g,32z9zlut1pxsynesz8u6tbmg74qoho,Orz2OMCv,2020-0188,2020-11-15,00:50:02,01:10:24,NA,incomplete,197,number,1,left,Green_Circle_Dots_1.jpg,Blue_Plus_Stripes_1.jpg,Green_Star_Grid_4.jpg,left,625.9549999996088,true,high,NA,NA,NA,NA,NA,NA,NA,false
Orz2OMCv,33ixyhizc8v0km0rv7j1cbq82t9e2g,32z9zlut1pxsynesz8u6tbmg74qoho,Orz2OMCv,2020-0188,2020-11-15,00:50:02,01:10:24,NA,incomplete,198,number,0,left,Blue_Triangle_Dots_1.jpg,Green_Plus_Grid_1.jpg,Blue_Star_Chess_2.jpg,left,565.3149999998277,true,high,NA,NA,NA,NA,NA,NA,NA,false
Orz2OMCv,33ixyhizc8v0km0rv7j1cbq82t9e2g,32z9zlut1pxsynesz8u6tbmg74qoho,Orz2OMCv,2020-0188,2020-11-15,00:50:02,01:10:24,NA,incomplete,199,number,1,left,Red_Triangle_Chess_3.jpg,Green_Plus_Dots_3.jpg,Red_Circle_Grid_1.jpg,left,625.3399999997346,true,high,NA,NA,NA,NA,NA,NA,NA,false
Orz2OMCv,33ixyhizc8v0km0rv7j1cbq82t9e2g,32z9zlut1pxsynesz8u6tbmg74qoho,Orz2OMCv,2020-0188,2020-11-15,00:50:02,01:10:24,NA,incomplete,200,color,1,right,Green_Star_Chess_4.jpg,Red_Triangle_Dots_4.jpg,Green_Circle_Stripes_1.jpg,left,564.3999999992084,false,high,NA,NA,NA,NA,NA,NA,NA,false
Orz2OMCv,33ixyhizc8v0km0rv7j1cbq82t9e2g,32z9zlut1pxsynesz8u6tbmg74qoho,Orz2OMCv,2020-0188,2020-11-15,00:50:02,01:10:24,NA,incomplete,201,color,1,left,Blue_Triangle_Grid_4.jpg,Blue_Circle_Dots_1.jpg,Red_Plus_Chess_4.jpg,right,648.2649999998976,false,high,NA,NA,NA,NA,NA,NA,NA,false
Orz2OMCv,33ixyhizc8v0km0rv7j1cbq82t9e2g,32z9zlut1pxsynesz8u6tbmg74qoho,Orz2OMCv,2020-0188,2020-11-15,00:50:02,01:10:24,NA,incomplete,202,color,0,right,Purple_Plus_Stripes_1.jpg,Green_Star_Dots_1.jpg,Purple_Triangle_Grid_3.jpg,right,506.8899999996647,true,high,NA,NA,NA,NA,NA,NA,NA,false
Orz2OMCv,33ixyhizc8v0km0rv7j1cbq82t9e2g,32z9zlut1pxsynesz8u6tbmg74qoho,Orz2OMCv,2020-0188,2020-11-15,00:50:02,01:10:24,NA,incomplete,203,color,1,right,Red_Circle_Dots_2.jpg,Blue_Triangle_Stripes_2.jpg,Red_Plus_Grid_3.jpg,right,592.8400000000838,true,high,NA,NA,NA,NA,NA,NA,NA,false
Orz2OMCv,33ixyhizc8v0km0rv7j1cbq82t9e2g,32z9zlut1pxsynesz8u6tbmg74qoho,Orz2OMCv,2020-0188,2020-11-15,00:50:02,01:10:24,NA,incomplete,204,color,1,left,Green_Star_Stripes_4.jpg,Green_Circle_Grid_2.jpg,Purple_Triangle_Dots_4.jpg,left,748.5549999999348,true,high,NA,NA,NA,NA,NA,NA,NA,false
Orz2OMCv,33ixyhizc8v0km0rv7j1cbq82t9e2g,32z9zlut1pxsynesz8u6tbmg74qoho,Orz2OMCv,2020-0188,2020-11-15,00:50:02,01:10:24,NA,incomplete,205,color,1,left,Red_Star_Dots_4.jpg,Red_Plus_Chess_2.jpg,Blue_Circle_Stripes_4.jpg,left,465.5200000007171,true,high,NA,NA,NA,NA,NA,NA,NA,false
Orz2OMCv,33ixyhizc8v0km0rv7j1cbq82t9e2g,32z9zlut1pxsynesz8u6tbmg74qoho,Orz2OMCv,2020-0188,2020-11-15,00:50:02,01:10:24,NA,incomplete,206,color,0,left,Purple_Triangle_Dots_4.jpg,Purple_Circle_Stripes_2.jpg,Blue_Star_Grid_4.jpg,left,531.0700000000652,true,high,NA,NA,NA,NA,NA,NA,NA,false
Orz2OMCv,33ixyhizc8v0km0rv7j1cbq82t9e2g,32z9zlut1pxsynesz8u6tbmg74qoho,Orz2OMCv,2020-0188,2020-11-15,00:50:02,01:10:24,NA,incomplete,207,color,1,right,Purple_Plus_Chess_3.jpg,Green_Circle_Dots_3.jpg,Purple_Star_Stripes_2.jpg,right,576.3449999995064,true,high,NA,NA,NA,NA,NA,NA,NA,false
Orz2OMCv,33ixyhizc8v0km0rv7j1cbq82t9e2g,32z9zlut1pxsynesz8u6tbmg74qoho,Orz2OMCv,2020-0188,2020-11-15,00:50:02,01:10:24,NA,incomplete,208,color,0,right,Blue_Plus_Dots_1.jpg,Red_Circle_Grid_1.jpg,Blue_Triangle_Stripes_4.jpg,right,500.35000000032596,true,high,NA,NA,NA,NA,NA,NA,NA,false
Orz2OMCv,33ixyhizc8v0km0rv7j1cbq82t9e2g,32z9zlut1pxsynesz8u6tbmg74qoho,Orz2OMCv,2020-0188,2020-11-15,00:50:02,01:10:24,NA,incomplete,209,color,1,left,Green_Star_Grid_2.jpg,Green_Plus_Chess_1.jpg,Red_Circle_Dots_2.jpg,left,594.2800000002608,true,high,NA,NA,NA,NA,NA,NA,NA,false
Orz2OMCv,33ixyhizc8v0km0rv7j1cbq82t9e2g,32z9zlut1pxsynesz8u6tbmg74qoho,Orz2OMCv,2020-0188,2020-11-15,00:50:02,01:10:24,NA,incomplete,210,color,1,left,Red_Star_Grid_4.jpg,Red_Circle_Dots_3.jpg,Blue_Plus_Stripes_4.jpg,left,518.2949999999255,true,high,NA,NA,NA,NA,NA,NA,NA,false
Orz2OMCv,33ixyhizc8v0km0rv7j1cbq82t9e2g,32z9zlut1pxsynesz8u6tbmg74qoho,Orz2OMCv,2020-0188,2020-11-15,00:50:02,01:10:24,NA,incomplete,211,color,1,left,Blue_Triangle_Dots_2.jpg,Blue_Circle_Chess_3.jpg,Green_Plus_Stripes_2.jpg,left,540.2100000001956,true,high,NA,NA,NA,NA,NA,NA,NA,false
Orz2OMCv,33ixyhizc8v0km0rv7j1cbq82t9e2g,32z9zlut1pxsynesz8u6tbmg74qoho,Orz2OMCv,2020-0188,2020-11-15,00:50:02,01:10:24,NA,incomplete,212,color,1,left,Green_Star_Grid_2.jpg,Green_Plus_Stripes_3.jpg,Red_Circle_Dots_2.jpg,left,530.2050000010058,true,high,NA,NA,NA,NA,NA,NA,NA,false
Orz2OMCv,33ixyhizc8v0km0rv7j1cbq82t9e2g,32z9zlut1pxsynesz8u6tbmg74qoho,Orz2OMCv,2020-0188,2020-11-15,00:50:02,01:10:24,NA,incomplete,213,color,1,right,Blue_Circle_Grid_3.jpg,Purple_Triangle_Stripes_3.jpg,Blue_Star_Chess_4.jpg,right,456.07500000018626,true,high,NA,NA,NA,NA,NA,NA,NA,false
Orz2OMCv,33ixyhizc8v0km0rv7j1cbq82t9e2g,32z9zlut1pxsynesz8u6tbmg74qoho,Orz2OMCv,2020-0188,2020-11-15,00:50:02,01:10:24,NA,incomplete,214,color,1,right,Green_Circle_Grid_4.jpg,Red_Star_Chess_4.jpg,Green_Triangle_Dots_3.jpg,right,535.3000000014435,true,high,NA,NA,NA,NA,NA,NA,NA,false
Orz2OMCv,33ixyhizc8v0km0rv7j1cbq82t9e2g,32z9zlut1pxsynesz8u6tbmg74qoho,Orz2OMCv,2020-0188,2020-11-15,00:50:02,01:10:24,NA,incomplete,215,color,1,left,Green_Triangle_Grid_2.jpg,Green_Plus_Chess_1.jpg,Blue_Star_Dots_2.jpg,left,467.8399999991525,true,high,NA,NA,NA,NA,NA,NA,NA,false
Orz2OMCv,33ixyhizc8v0km0rv7j1cbq82t9e2g,32z9zlut1pxsynesz8u6tbmg74qoho,Orz2OMCv,2020-0188,2020-11-15,00:50:02,01:10:24,NA,incomplete,216,color,1,left,Red_Triangle_Stripes_3.jpg,Red_Star_Grid_1.jpg,Blue_Circle_Chess_3.jpg,left,492.7349999998696,true,high,NA,NA,NA,NA,NA,NA,NA,false
Orz2OMCv,33ixyhizc8v0km0rv7j1cbq82t9e2g,32z9zlut1pxsynesz8u6tbmg74qoho,Orz2OMCv,2020-0188,2020-11-15,00:50:02,01:10:24,NA,incomplete,217,color,1,left,Green_Plus_Grid_2.jpg,Green_Circle_Stripes_4.jpg,Red_Star_Dots_2.jpg,left,443.87000000081025,true,high,NA,NA,NA,NA,NA,NA,NA,false
Orz2OMCv,33ixyhizc8v0km0rv7j1cbq82t9e2g,32z9zlut1pxsynesz8u6tbmg74qoho,Orz2OMCv,2020-0188,2020-11-15,00:50:02,01:10:24,NA,incomplete,218,color,1,left,Green_Star_Dots_2.jpg,Green_Triangle_Grid_1.jpg,Blue_Circle_Stripes_2.jpg,left,462.06999999959953,true,high,NA,NA,NA,NA,NA,NA,NA,false
Orz2OMCv,33ixyhizc8v0km0rv7j1cbq82t9e2g,32z9zlut1pxsynesz8u6tbmg74qoho,Orz2OMCv,2020-0188,2020-11-15,00:50:02,01:10:24,NA,incomplete,219,color,1,right,Red_Circle_Dots_2.jpg,Green_Star_Grid_2.jpg,Red_Triangle_Chess_4.jpg,right,535.6750000009779,true,high,NA,NA,NA,NA,NA,NA,NA,false
Orz2OMCv,33ixyhizc8v0km0rv7j1cbq82t9e2g,32z9zlut1pxsynesz8u6tbmg74qoho,Orz2OMCv,2020-0188,2020-11-15,00:50:02,01:10:24,NA,incomplete,220,number,1,right,Red_Star_Stripes_2.jpg,Red_Triangle_Dots_3.jpg,Green_Plus_Chess_2.jpg,left,493.784999998752,false,high,NA,NA,NA,NA,NA,NA,NA,false
Orz2OMCv,33ixyhizc8v0km0rv7j1cbq82t9e2g,32z9zlut1pxsynesz8u6tbmg74qoho,Orz2OMCv,2020-0188,2020-11-15,00:50:02,01:10:24,NA,incomplete,221,number,0,left,Blue_Star_Chess_4.jpg,Red_Triangle_Stripes_4.jpg,Blue_Plus_Grid_3.jpg,left,581.1049999992829,true,high,NA,NA,NA,NA,NA,NA,NA,false
Orz2OMCv,33ixyhizc8v0km0rv7j1cbq82t9e2g,32z9zlut1pxsynesz8u6tbmg74qoho,Orz2OMCv,2020-0188,2020-11-15,00:50:02,01:10:24,NA,incomplete,222,number,1,left,Green_Circle_Stripes_3.jpg,Blue_Triangle_Grid_3.jpg,Green_Plus_Dots_2.jpg,left,673.6399999991991,true,high,NA,NA,NA,NA,NA,NA,NA,false
Orz2OMCv,33ixyhizc8v0km0rv7j1cbq82t9e2g,32z9zlut1pxsynesz8u6tbmg74qoho,Orz2OMCv,2020-0188,2020-11-15,00:50:02,01:10:24,NA,incomplete,223,number,1,left,Purple_Plus_Chess_2.jpg,Red_Circle_Grid_2.jpg,Purple_Star_Dots_1.jpg,left,562.5,true,high,NA,NA,NA,NA,NA,NA,NA,false
Orz2OMCv,33ixyhizc8v0km0rv7j1cbq82t9e2g,32z9zlut1pxsynesz8u6tbmg74qoho,Orz2OMCv,2020-0188,2020-11-15,00:50:02,01:10:24,NA,incomplete,224,number,1,left,Blue_Star_Dots_4.jpg,Purple_Circle_Grid_4.jpg,Blue_Plus_Chess_1.jpg,left,587.2799999997951,true,high,NA,NA,NA,NA,NA,NA,NA,false
Orz2OMCv,33ixyhizc8v0km0rv7j1cbq82t9e2g,32z9zlut1pxsynesz8u6tbmg74qoho,Orz2OMCv,2020-0188,2020-11-15,00:50:02,01:10:24,NA,incomplete,225,number,1,left,Red_Star_Grid_1.jpg,Blue_Triangle_Dots_1.jpg,Red_Circle_Stripes_4.jpg,left,575.069999998901,true,high,NA,NA,NA,NA,NA,NA,NA,false
Orz2OMCv,33ixyhizc8v0km0rv7j1cbq82t9e2g,32z9zlut1pxsynesz8u6tbmg74qoho,Orz2OMCv,2020-0188,2020-11-15,00:50:02,01:10:24,NA,incomplete,226,number,1,right,Red_Plus_Chess_3.jpg,Red_Star_Stripes_2.jpg,Blue_Circle_Grid_3.jpg,right,548.2649999994319,true,high,NA,NA,NA,NA,NA,NA,NA,false
Orz2OMCv,33ixyhizc8v0km0rv7j1cbq82t9e2g,32z9zlut1pxsynesz8u6tbmg74qoho,Orz2OMCv,2020-0188,2020-11-15,00:50:02,01:10:24,NA,incomplete,227,number,1,left,Purple_Circle_Chess_1.jpg,Blue_Plus_Dots_1.jpg,Purple_Star_Grid_2.jpg,left,401.5,true,high,NA,NA,NA,NA,NA,NA,NA,false
Orz2OMCv,33ixyhizc8v0km0rv7j1cbq82t9e2g,32z9zlut1pxsynesz8u6tbmg74qoho,Orz2OMCv,2020-0188,2020-11-15,00:50:02,01:10:24,NA,incomplete,228,number,1,right,Green_Circle_Grid_3.jpg,Green_Star_Stripes_4.jpg,Red_Triangle_Dots_3.jpg,left,436.46000000066124,false,high,NA,NA,NA,NA,NA,NA,NA,false
Orz2OMCv,33ixyhizc8v0km0rv7j1cbq82t9e2g,32z9zlut1pxsynesz8u6tbmg74qoho,Orz2OMCv,2020-0188,2020-11-15,00:50:02,01:10:24,NA,incomplete,229,number,1,right,Red_Circle_Dots_4.jpg,Red_Star_Grid_3.jpg,Green_Triangle_Stripes_4.jpg,right,635.855000000447,true,high,NA,NA,NA,NA,NA,NA,NA,false
Orz2OMCv,33ixyhizc8v0km0rv7j1cbq82t9e2g,32z9zlut1pxsynesz8u6tbmg74qoho,Orz2OMCv,2020-0188,2020-11-15,00:50:02,01:10:24,NA,incomplete,230,number,1,right,Red_Circle_Stripes_3.jpg,Red_Triangle_Chess_4.jpg,Green_Star_Dots_3.jpg,right,532.5200000007171,true,high,NA,NA,NA,NA,NA,NA,NA,false
Orz2OMCv,33ixyhizc8v0km0rv7j1cbq82t9e2g,32z9zlut1pxsynesz8u6tbmg74qoho,Orz2OMCv,2020-0188,2020-11-15,00:50:02,01:10:24,NA,incomplete,231,number,1,right,Green_Circle_Stripes_3.jpg,Green_Star_Dots_2.jpg,Blue_Triangle_Grid_3.jpg,right,475.4249999986496,true,high,NA,NA,NA,NA,NA,NA,NA,false
Orz2OMCv,33ixyhizc8v0km0rv7j1cbq82t9e2g,32z9zlut1pxsynesz8u6tbmg74qoho,Orz2OMCv,2020-0188,2020-11-15,00:50:02,01:10:24,NA,incomplete,232,number,0,right,Blue_Triangle_Dots_2.jpg,Blue_Star_Chess_4.jpg,Red_Circle_Stripes_2.jpg,left,429.14999999990687,false,high,NA,NA,NA,NA,NA,NA,NA,false
Orz2OMCv,33ixyhizc8v0km0rv7j1cbq82t9e2g,32z9zlut1pxsynesz8u6tbmg74qoho,Orz2OMCv,2020-0188,2020-11-15,00:50:02,01:10:24,NA,incomplete,233,number,1,left,Green_Triangle_Dots_2.jpg,Red_Star_Grid_2.jpg,Green_Plus_Chess_4.jpg,right,605.8699999994133,false,high,NA,NA,NA,NA,NA,NA,NA,false
Orz2OMCv,33ixyhizc8v0km0rv7j1cbq82t9e2g,32z9zlut1pxsynesz8u6tbmg74qoho,Orz2OMCv,2020-0188,2020-11-15,00:50:02,01:10:24,NA,incomplete,234,number,1,left,Blue_Circle_Grid_4.jpg,Green_Plus_Stripes_4.jpg,Blue_Star_Dots_2.jpg,left,547.1749999998137,true,high,NA,NA,NA,NA,NA,NA,NA,false
Orz2OMCv,33ixyhizc8v0km0rv7j1cbq82t9e2g,32z9zlut1pxsynesz8u6tbmg74qoho,Orz2OMCv,2020-0188,2020-11-15,00:50:02,01:10:24,NA,incomplete,235,number,1,right,Red_Triangle_Chess_3.jpg,Red_Star_Stripes_1.jpg,Blue_Circle_Grid_3.jpg,right,497.6399999994319,true,high,NA,NA,NA,NA,NA,NA,NA,false
Orz2OMCv,33ixyhizc8v0km0rv7j1cbq82t9e2g,32z9zlut1pxsynesz8u6tbmg74qoho,Orz2OMCv,2020-0188,2020-11-15,00:50:02,01:10:24,NA,incomplete,236,number,1,right,Green_Star_Stripes_2.jpg,Green_Plus_Chess_1.jpg,Purple_Circle_Grid_2.jpg,right,575.8750000004657,true,high,NA,NA,NA,NA,NA,NA,NA,false
Orz2OMCv,33ixyhizc8v0km0rv7j1cbq82t9e2g,32z9zlut1pxsynesz8u6tbmg74qoho,Orz2OMCv,2020-0188,2020-11-15,00:50:02,01:10:24,NA,incomplete,237,number,0,left,Purple_Triangle_Chess_2.jpg,Blue_Star_Grid_2.jpg,Purple_Circle_Dots_3.jpg,right,558.4150000014342,false,high,NA,NA,NA,NA,NA,NA,NA,false
Orz2OMCv,33ixyhizc8v0km0rv7j1cbq82t9e2g,32z9zlut1pxsynesz8u6tbmg74qoho,Orz2OMCv,2020-0188,2020-11-15,00:50:02,01:10:24,NA,incomplete,238,number,1,left,Purple_Star_Dots_3.jpg,Blue_Plus_Stripes_3.jpg,Purple_Triangle_Grid_4.jpg,right,483.93000000016764,false,high,NA,NA,NA,NA,NA,NA,NA,false
Orz2OMCv,33ixyhizc8v0km0rv7j1cbq82t9e2g,32z9zlut1pxsynesz8u6tbmg74qoho,Orz2OMCv,2020-0188,2020-11-15,00:50:02,01:10:24,NA,incomplete,239,number,1,right,Red_Plus_Dots_1.jpg,Red_Star_Chess_4.jpg,Green_Triangle_Stripes_1.jpg,left,440.96499999961816,false,high,NA,NA,NA,NA,NA,NA,NA,false
Orz2OMCv,33ixyhizc8v0km0rv7j1cbq82t9e2g,32z9zlut1pxsynesz8u6tbmg74qoho,Orz2OMCv,2020-0188,2020-11-15,00:50:02,01:10:24,1149377.695,1223429.0649999992,NA,NA,NA,NA,NA,NA,NA,NA,NA,NA,NA,31,White/Caucasian,Male,Do not wish to reply,no,yes,no,undefined
