workerId,hitId,assignmentId,subject,studyid,exp_date,exp_start,exp_end,time_start,time_end,trial,type,reward_validity,answer,image_top,image_left,image_right,response,response_time,response_acc,volatility,practice
kqfcvbVI,33cla8o0nlo9ukh858i8v1jgjoffrm,339ansotr9f94r4x7ykym66lndkikg,kqfcvbVI,2020-0188,2020-05-08,10:22:34,10:40:14,NA,incomplete,0,filling,1,left,Green_Plus_Dots_1.jpg,Red_Star_Dots_4.jpg,Green_Triangle_Stripes_3.jpg,left,1802.9050000477582,true,NA,true
kqfcvbVI,33cla8o0nlo9ukh858i8v1jgjoffrm,339ansotr9f94r4x7ykym66lndkikg,kqfcvbVI,2020-0188,2020-05-08,10:22:34,10:40:14,NA,incomplete,1,filling,1,right,Green_Circle_Chess_3.jpg,Green_Star_Grid_1.jpg,Blue_Plus_Chess_2.jpg,right,1327.1749999839813,true,NA,true
kqfcvbVI,33cla8o0nlo9ukh858i8v1jgjoffrm,339ansotr9f94r4x7ykym66lndkikg,kqfcvbVI,2020-0188,2020-05-08,10:22:34,10:40:14,NA,incomplete,2,filling,0,right,Blue_Circle_Grid_4.jpg,Blue_Triangle_Stripes_1.jpg,Red_Star_Grid_2.jpg,right,1262.9150000866503,true,NA,true
kqfcvbVI,33cla8o0nlo9ukh858i8v1jgjoffrm,339ansotr9f94r4x7ykym66lndkikg,kqfcvbVI,2020-0188,2020-05-08,10:22:34,10:40:14,NA,incomplete,3,filling,1,left,Green_Star_Chess_4.jpg,Blue_Circle_Chess_1.jpg,Green_Triangle_Dots_2.jpg,left,1361.1500000115484,true,NA,true
kqfcvbVI,33cla8o0nlo9ukh858i8v1jgjoffrm,339ansotr9f94r4x7ykym66lndkikg,kqfcvbVI,2020-0188,2020-05-08,10:22:34,10:40:14,NA,incomplete,4,filling,1,left,Purple_Plus_Dots_3.jpg,Blue_Triangle_Dots_4.jpg,Purple_Circle_Stripes_2.jpg,left,1646.6500000096858,true,NA,true
kqfcvbVI,33cla8o0nlo9ukh858i8v1jgjoffrm,339ansotr9f94r4x7ykym66lndkikg,kqfcvbVI,2020-0188,2020-05-08,10:22:34,10:40:14,NA,incomplete,5,filling,1,right,Blue_Triangle_Dots_3.jpg,Blue_Plus_Grid_1.jpg,Green_Circle_Dots_2.jpg,right,1393.1150001008064,true,NA,true
kqfcvbVI,33cla8o0nlo9ukh858i8v1jgjoffrm,339ansotr9f94r4x7ykym66lndkikg,kqfcvbVI,2020-0188,2020-05-08,10:22:34,10:40:14,NA,incomplete,6,filling,1,left,Purple_Circle_Stripes_3.jpg,Blue_Star_Stripes_1.jpg,Purple_Triangle_Dots_2.jpg,left,1207.2399999015033,true,NA,true
kqfcvbVI,33cla8o0nlo9ukh858i8v1jgjoffrm,339ansotr9f94r4x7ykym66lndkikg,kqfcvbVI,2020-0188,2020-05-08,10:22:34,10:40:14,NA,incomplete,7,filling,1,left,Red_Star_Dots_2.jpg,Green_Triangle_Dots_1.jpg,Red_Plus_Stripes_4.jpg,right,1218.360000057146,false,NA,true
kqfcvbVI,33cla8o0nlo9ukh858i8v1jgjoffrm,339ansotr9f94r4x7ykym66lndkikg,kqfcvbVI,2020-0188,2020-05-08,10:22:34,10:40:14,NA,incomplete,8,filling,1,left,Red_Triangle_Stripes_2.jpg,Green_Circle_Stripes_1.jpg,Red_Plus_Chess_3.jpg,left,1229.2549998965114,true,NA,true
kqfcvbVI,33cla8o0nlo9ukh858i8v1jgjoffrm,339ansotr9f94r4x7ykym66lndkikg,kqfcvbVI,2020-0188,2020-05-08,10:22:34,10:40:14,NA,incomplete,9,filling,0,left,Green_Circle_Grid_1.jpg,Purple_Triangle_Grid_4.jpg,Green_Plus_Dots_3.jpg,left,1257.4299999978393,true,NA,true
kqfcvbVI,33cla8o0nlo9ukh858i8v1jgjoffrm,339ansotr9f94r4x7ykym66lndkikg,kqfcvbVI,2020-0188,2020-05-08,10:22:34,10:40:14,NA,incomplete,10,filling,1,right,Purple_Star_Chess_2.jpg,Purple_Plus_Grid_4.jpg,Red_Circle_Chess_1.jpg,right,1331.9000001065433,true,NA,true
kqfcvbVI,33cla8o0nlo9ukh858i8v1jgjoffrm,339ansotr9f94r4x7ykym66lndkikg,kqfcvbVI,2020-0188,2020-05-08,10:22:34,10:40:14,NA,incomplete,11,filling,1,right,Blue_Plus_Dots_3.jpg,Blue_Star_Grid_2.jpg,Red_Triangle_Dots_1.jpg,right,1137.9799998831004,true,NA,true
kqfcvbVI,33cla8o0nlo9ukh858i8v1jgjoffrm,339ansotr9f94r4x7ykym66lndkikg,kqfcvbVI,2020-0188,2020-05-08,10:22:34,10:40:14,NA,incomplete,12,filling,0,left,Green_Plus_Stripes_1.jpg,Blue_Star_Stripes_2.jpg,Green_Circle_Chess_4.jpg,left,1160.6250000186265,true,NA,true
kqfcvbVI,33cla8o0nlo9ukh858i8v1jgjoffrm,339ansotr9f94r4x7ykym66lndkikg,kqfcvbVI,2020-0188,2020-05-08,10:22:34,10:40:14,NA,incomplete,13,filling,1,right,Green_Plus_Chess_2.jpg,Green_Triangle_Dots_1.jpg,Red_Star_Chess_4.jpg,right,1255.024999845773,true,NA,true
kqfcvbVI,33cla8o0nlo9ukh858i8v1jgjoffrm,339ansotr9f94r4x7ykym66lndkikg,kqfcvbVI,2020-0188,2020-05-08,10:22:34,10:40:14,NA,incomplete,14,filling,0,left,Purple_Plus_Dots_1.jpg,Red_Triangle_Dots_3.jpg,Purple_Star_Grid_2.jpg,left,1201.704999897629,true,NA,true
kqfcvbVI,33cla8o0nlo9ukh858i8v1jgjoffrm,339ansotr9f94r4x7ykym66lndkikg,kqfcvbVI,2020-0188,2020-05-08,10:22:34,10:40:14,NA,incomplete,15,filling,1,right,Green_Plus_Stripes_2.jpg,Green_Triangle_Dots_4.jpg,Purple_Circle_Stripes_3.jpg,right,1124.6750000864267,true,NA,true
kqfcvbVI,33cla8o0nlo9ukh858i8v1jgjoffrm,339ansotr9f94r4x7ykym66lndkikg,kqfcvbVI,2020-0188,2020-05-08,10:22:34,10:40:14,NA,incomplete,16,filling,1,right,Purple_Star_Grid_2.jpg,Purple_Plus_Dots_1.jpg,Green_Circle_Grid_3.jpg,right,1252.07499996759,true,NA,true
kqfcvbVI,33cla8o0nlo9ukh858i8v1jgjoffrm,339ansotr9f94r4x7ykym66lndkikg,kqfcvbVI,2020-0188,2020-05-08,10:22:34,10:40:14,NA,incomplete,17,filling,1,right,Red_Triangle_Stripes_3.jpg,Red_Circle_Dots_1.jpg,Purple_Star_Stripes_4.jpg,right,1086.7899998556823,true,NA,true
kqfcvbVI,33cla8o0nlo9ukh858i8v1jgjoffrm,339ansotr9f94r4x7ykym66lndkikg,kqfcvbVI,2020-0188,2020-05-08,10:22:34,10:40:14,NA,incomplete,18,filling,1,left,Red_Star_Chess_4.jpg,Blue_Plus_Chess_3.jpg,Red_Circle_Stripes_1.jpg,left,936.0249999444932,true,NA,true
kqfcvbVI,33cla8o0nlo9ukh858i8v1jgjoffrm,339ansotr9f94r4x7ykym66lndkikg,kqfcvbVI,2020-0188,2020-05-08,10:22:34,10:40:14,NA,incomplete,19,filling,0,left,Green_Star_Grid_4.jpg,Purple_Circle_Grid_3.jpg,Green_Triangle_Stripes_2.jpg,left,1006.5450000111014,true,NA,true
kqfcvbVI,33cla8o0nlo9ukh858i8v1jgjoffrm,339ansotr9f94r4x7ykym66lndkikg,kqfcvbVI,2020-0188,2020-05-08,10:22:34,10:40:14,NA,incomplete,20,color,1,left,Red_Plus_Stripes_3.jpg,Red_Circle_Dots_4.jpg,Blue_Triangle_Stripes_1.jpg,left,953.6250000819564,true,NA,true
kqfcvbVI,33cla8o0nlo9ukh858i8v1jgjoffrm,339ansotr9f94r4x7ykym66lndkikg,kqfcvbVI,2020-0188,2020-05-08,10:22:34,10:40:14,NA,incomplete,21,color,1,right,Blue_Star_Stripes_1.jpg,Purple_Triangle_Stripes_4.jpg,Blue_Circle_Grid_3.jpg,right,623.2149999123067,true,NA,true
kqfcvbVI,33cla8o0nlo9ukh858i8v1jgjoffrm,339ansotr9f94r4x7ykym66lndkikg,kqfcvbVI,2020-0188,2020-05-08,10:22:34,10:40:14,NA,incomplete,22,color,1,right,Blue_Triangle_Chess_2.jpg,Purple_Star_Chess_1.jpg,Blue_Plus_Grid_3.jpg,right,603.415000019595,true,NA,true
kqfcvbVI,33cla8o0nlo9ukh858i8v1jgjoffrm,339ansotr9f94r4x7ykym66lndkikg,kqfcvbVI,2020-0188,2020-05-08,10:22:34,10:40:14,NA,incomplete,23,color,1,right,Blue_Circle_Stripes_3.jpg,Purple_Plus_Stripes_1.jpg,Blue_Star_Grid_4.jpg,right,552.2300000302494,true,NA,true
kqfcvbVI,33cla8o0nlo9ukh858i8v1jgjoffrm,339ansotr9f94r4x7ykym66lndkikg,kqfcvbVI,2020-0188,2020-05-08,10:22:34,10:40:14,NA,incomplete,24,color,0,right,Blue_Triangle_Stripes_2.jpg,Red_Plus_Stripes_4.jpg,Blue_Star_Chess_1.jpg,right,557.4449999257922,true,NA,true
kqfcvbVI,33cla8o0nlo9ukh858i8v1jgjoffrm,339ansotr9f94r4x7ykym66lndkikg,kqfcvbVI,2020-0188,2020-05-08,10:22:34,10:40:14,NA,incomplete,25,color,1,left,Green_Triangle_Grid_3.jpg,Green_Plus_Chess_4.jpg,Purple_Circle_Grid_2.jpg,left,843.2450001128018,true,NA,true
kqfcvbVI,33cla8o0nlo9ukh858i8v1jgjoffrm,339ansotr9f94r4x7ykym66lndkikg,kqfcvbVI,2020-0188,2020-05-08,10:22:34,10:40:14,NA,incomplete,26,color,1,right,Red_Plus_Chess_4.jpg,Blue_Circle_Chess_3.jpg,Red_Star_Stripes_2.jpg,right,597.1949999220669,true,NA,true
kqfcvbVI,33cla8o0nlo9ukh858i8v1jgjoffrm,339ansotr9f94r4x7ykym66lndkikg,kqfcvbVI,2020-0188,2020-05-08,10:22:34,10:40:14,NA,incomplete,27,color,1,left,Purple_Plus_Grid_2.jpg,Purple_Star_Dots_4.jpg,Blue_Circle_Grid_1.jpg,left,683.3750000223517,true,NA,true
kqfcvbVI,33cla8o0nlo9ukh858i8v1jgjoffrm,339ansotr9f94r4x7ykym66lndkikg,kqfcvbVI,2020-0188,2020-05-08,10:22:34,10:40:14,NA,incomplete,28,color,1,left,Blue_Plus_Grid_2.jpg,Blue_Circle_Chess_3.jpg,Red_Triangle_Grid_1.jpg,left,509.3850002158433,true,NA,true
kqfcvbVI,33cla8o0nlo9ukh858i8v1jgjoffrm,339ansotr9f94r4x7ykym66lndkikg,kqfcvbVI,2020-0188,2020-05-08,10:22:34,10:40:14,NA,incomplete,29,color,1,left,Purple_Triangle_Chess_2.jpg,Purple_Circle_Grid_1.jpg,Blue_Plus_Chess_3.jpg,left,675.7199999410659,true,NA,true
kqfcvbVI,33cla8o0nlo9ukh858i8v1jgjoffrm,339ansotr9f94r4x7ykym66lndkikg,kqfcvbVI,2020-0188,2020-05-08,10:22:34,10:40:14,NA,incomplete,30,color,0,right,Green_Star_Stripes_4.jpg,Blue_Plus_Stripes_3.jpg,Green_Circle_Dots_1.jpg,right,637.224999954924,true,NA,true
kqfcvbVI,33cla8o0nlo9ukh858i8v1jgjoffrm,339ansotr9f94r4x7ykym66lndkikg,kqfcvbVI,2020-0188,2020-05-08,10:22:34,10:40:14,NA,incomplete,31,color,1,left,Blue_Circle_Dots_1.jpg,Blue_Triangle_Grid_2.jpg,Red_Plus_Dots_3.jpg,left,896.0400000214577,true,NA,true
kqfcvbVI,33cla8o0nlo9ukh858i8v1jgjoffrm,339ansotr9f94r4x7ykym66lndkikg,kqfcvbVI,2020-0188,2020-05-08,10:22:34,10:40:14,NA,incomplete,32,color,1,right,Green_Star_Chess_3.jpg,Blue_Circle_Chess_4.jpg,Green_Triangle_Stripes_2.jpg,right,584.4650000799447,true,NA,true
kqfcvbVI,33cla8o0nlo9ukh858i8v1jgjoffrm,339ansotr9f94r4x7ykym66lndkikg,kqfcvbVI,2020-0188,2020-05-08,10:22:34,10:40:14,NA,incomplete,33,color,1,left,Blue_Triangle_Chess_3.jpg,Blue_Plus_Stripes_2.jpg,Purple_Star_Chess_1.jpg,left,605.8199999388307,true,NA,true
kqfcvbVI,33cla8o0nlo9ukh858i8v1jgjoffrm,339ansotr9f94r4x7ykym66lndkikg,kqfcvbVI,2020-0188,2020-05-08,10:22:34,10:40:14,NA,incomplete,34,color,1,left,Green_Star_Grid_3.jpg,Green_Circle_Dots_4.jpg,Purple_Plus_Grid_2.jpg,left,481.3200000207871,true,NA,true
kqfcvbVI,33cla8o0nlo9ukh858i8v1jgjoffrm,339ansotr9f94r4x7ykym66lndkikg,kqfcvbVI,2020-0188,2020-05-08,10:22:34,10:40:14,NA,incomplete,35,color,1,right,Green_Plus_Grid_2.jpg,Blue_Star_Grid_1.jpg,Green_Triangle_Chess_3.jpg,right,514.3999999854714,true,NA,true
kqfcvbVI,33cla8o0nlo9ukh858i8v1jgjoffrm,339ansotr9f94r4x7ykym66lndkikg,kqfcvbVI,2020-0188,2020-05-08,10:22:34,10:40:14,NA,incomplete,36,color,1,left,Purple_Circle_Stripes_1.jpg,Purple_Star_Grid_3.jpg,Blue_Plus_Stripes_2.jpg,left,577.5450000073761,true,NA,true
kqfcvbVI,33cla8o0nlo9ukh858i8v1jgjoffrm,339ansotr9f94r4x7ykym66lndkikg,kqfcvbVI,2020-0188,2020-05-08,10:22:34,10:40:14,NA,incomplete,37,color,0,right,Purple_Triangle_Grid_4.jpg,Red_Circle_Grid_2.jpg,Purple_Plus_Stripes_1.jpg,right,583.915000082925,true,NA,true
kqfcvbVI,33cla8o0nlo9ukh858i8v1jgjoffrm,339ansotr9f94r4x7ykym66lndkikg,kqfcvbVI,2020-0188,2020-05-08,10:22:34,10:40:14,NA,incomplete,38,color,1,left,Blue_Triangle_Chess_4.jpg,Blue_Circle_Stripes_2.jpg,Red_Star_Chess_1.jpg,left,797.6049999706447,true,NA,true
kqfcvbVI,33cla8o0nlo9ukh858i8v1jgjoffrm,339ansotr9f94r4x7ykym66lndkikg,kqfcvbVI,2020-0188,2020-05-08,10:22:34,10:40:14,NA,incomplete,39,color,1,left,Red_Triangle_Chess_3.jpg,Red_Plus_Dots_1.jpg,Green_Star_Chess_4.jpg,left,513.2599999196827,true,NA,true
kqfcvbVI,33cla8o0nlo9ukh858i8v1jgjoffrm,339ansotr9f94r4x7ykym66lndkikg,kqfcvbVI,2020-0188,2020-05-08,10:22:34,10:40:14,NA,incomplete,0,filling,1,right,Green_Star_Dots_2.jpg,Green_Circle_Grid_3.jpg,Purple_Plus_Dots_4.jpg,left,885.550000006333,false,high,false
kqfcvbVI,33cla8o0nlo9ukh858i8v1jgjoffrm,339ansotr9f94r4x7ykym66lndkikg,kqfcvbVI,2020-0188,2020-05-08,10:22:34,10:40:14,NA,incomplete,1,filling,1,left,Red_Circle_Chess_4.jpg,Blue_Plus_Chess_3.jpg,Red_Triangle_Stripes_1.jpg,left,1062.544999876991,true,high,false
kqfcvbVI,33cla8o0nlo9ukh858i8v1jgjoffrm,339ansotr9f94r4x7ykym66lndkikg,kqfcvbVI,2020-0188,2020-05-08,10:22:34,10:40:14,NA,incomplete,2,filling,1,right,Green_Triangle_Grid_4.jpg,Green_Plus_Chess_2.jpg,Blue_Star_Grid_1.jpg,right,1216.0249999724329,true,high,false
kqfcvbVI,33cla8o0nlo9ukh858i8v1jgjoffrm,339ansotr9f94r4x7ykym66lndkikg,kqfcvbVI,2020-0188,2020-05-08,10:22:34,10:40:14,NA,incomplete,3,filling,1,left,Purple_Triangle_Chess_1.jpg,Green_Plus_Chess_2.jpg,Purple_Circle_Dots_3.jpg,left,899.6449999976903,true,high,false
kqfcvbVI,33cla8o0nlo9ukh858i8v1jgjoffrm,339ansotr9f94r4x7ykym66lndkikg,kqfcvbVI,2020-0188,2020-05-08,10:22:34,10:40:14,NA,incomplete,4,filling,0,left,Purple_Star_Dots_4.jpg,Blue_Plus_Dots_2.jpg,Purple_Triangle_Chess_1.jpg,left,1285.03999998793,true,high,false
kqfcvbVI,33cla8o0nlo9ukh858i8v1jgjoffrm,339ansotr9f94r4x7ykym66lndkikg,kqfcvbVI,2020-0188,2020-05-08,10:22:34,10:40:14,NA,incomplete,5,filling,1,right,Red_Plus_Grid_1.jpg,Red_Circle_Chess_3.jpg,Purple_Triangle_Grid_2.jpg,right,1052.5100000668317,true,high,false
kqfcvbVI,33cla8o0nlo9ukh858i8v1jgjoffrm,339ansotr9f94r4x7ykym66lndkikg,kqfcvbVI,2020-0188,2020-05-08,10:22:34,10:40:14,NA,incomplete,6,filling,1,right,Blue_Triangle_Dots_4.jpg,Blue_Star_Stripes_1.jpg,Green_Circle_Dots_2.jpg,right,1071.754999924451,true,high,false
kqfcvbVI,33cla8o0nlo9ukh858i8v1jgjoffrm,339ansotr9f94r4x7ykym66lndkikg,kqfcvbVI,2020-0188,2020-05-08,10:22:34,10:40:14,NA,incomplete,7,filling,1,right,Blue_Plus_Dots_2.jpg,Blue_Triangle_Grid_3.jpg,Red_Circle_Dots_4.jpg,right,1088.6200000531971,true,high,false
kqfcvbVI,33cla8o0nlo9ukh858i8v1jgjoffrm,339ansotr9f94r4x7ykym66lndkikg,kqfcvbVI,2020-0188,2020-05-08,10:22:34,10:40:14,NA,incomplete,8,filling,1,left,Blue_Star_Chess_4.jpg,Green_Triangle_Chess_1.jpg,Blue_Circle_Dots_2.jpg,left,865.700000198558,true,high,false
kqfcvbVI,33cla8o0nlo9ukh858i8v1jgjoffrm,339ansotr9f94r4x7ykym66lndkikg,kqfcvbVI,2020-0188,2020-05-08,10:22:34,10:40:14,NA,incomplete,9,filling,1,right,Blue_Star_Grid_2.jpg,Blue_Circle_Dots_1.jpg,Red_Triangle_Grid_4.jpg,right,874.3950000498444,true,high,false
kqfcvbVI,33cla8o0nlo9ukh858i8v1jgjoffrm,339ansotr9f94r4x7ykym66lndkikg,kqfcvbVI,2020-0188,2020-05-08,10:22:34,10:40:14,NA,incomplete,10,color,1,right,Green_Plus_Dots_2.jpg,Red_Triangle_Dots_4.jpg,Green_Circle_Grid_3.jpg,left,956.1300000641495,false,high,false
kqfcvbVI,33cla8o0nlo9ukh858i8v1jgjoffrm,339ansotr9f94r4x7ykym66lndkikg,kqfcvbVI,2020-0188,2020-05-08,10:22:34,10:40:14,NA,incomplete,11,color,1,left,Green_Triangle_Chess_3.jpg,Green_Circle_Dots_2.jpg,Red_Plus_Chess_4.jpg,right,1162.525000050664,false,high,false
kqfcvbVI,33cla8o0nlo9ukh858i8v1jgjoffrm,339ansotr9f94r4x7ykym66lndkikg,kqfcvbVI,2020-0188,2020-05-08,10:22:34,10:40:14,NA,incomplete,12,color,1,right,Blue_Triangle_Stripes_3.jpg,Green_Circle_Stripes_2.jpg,Blue_Plus_Grid_1.jpg,left,992.4699999392033,false,high,false
kqfcvbVI,33cla8o0nlo9ukh858i8v1jgjoffrm,339ansotr9f94r4x7ykym66lndkikg,kqfcvbVI,2020-0188,2020-05-08,10:22:34,10:40:14,NA,incomplete,13,color,1,right,Green_Star_Dots_3.jpg,Purple_Circle_Dots_1.jpg,Green_Triangle_Chess_4.jpg,right,670.2799999620765,true,high,false
kqfcvbVI,33cla8o0nlo9ukh858i8v1jgjoffrm,339ansotr9f94r4x7ykym66lndkikg,kqfcvbVI,2020-0188,2020-05-08,10:22:34,10:40:14,NA,incomplete,14,color,1,left,Green_Circle_Dots_3.jpg,Green_Triangle_Grid_2.jpg,Blue_Star_Dots_1.jpg,left,550.7249999791384,true,high,false
kqfcvbVI,33cla8o0nlo9ukh858i8v1jgjoffrm,339ansotr9f94r4x7ykym66lndkikg,kqfcvbVI,2020-0188,2020-05-08,10:22:34,10:40:14,NA,incomplete,15,color,1,right,Blue_Triangle_Dots_1.jpg,Purple_Plus_Dots_2.jpg,Blue_Circle_Stripes_4.jpg,right,573.9599999506027,true,high,false
kqfcvbVI,33cla8o0nlo9ukh858i8v1jgjoffrm,339ansotr9f94r4x7ykym66lndkikg,kqfcvbVI,2020-0188,2020-05-08,10:22:34,10:40:14,NA,incomplete,16,color,1,left,Blue_Circle_Chess_4.jpg,Blue_Triangle_Grid_3.jpg,Purple_Plus_Chess_1.jpg,left,761.3949999213219,true,high,false
kqfcvbVI,33cla8o0nlo9ukh858i8v1jgjoffrm,339ansotr9f94r4x7ykym66lndkikg,kqfcvbVI,2020-0188,2020-05-08,10:22:34,10:40:14,NA,incomplete,17,color,1,left,Blue_Triangle_Dots_1.jpg,Blue_Plus_Stripes_3.jpg,Red_Circle_Dots_4.jpg,left,568.4349997900426,true,high,false
kqfcvbVI,33cla8o0nlo9ukh858i8v1jgjoffrm,339ansotr9f94r4x7ykym66lndkikg,kqfcvbVI,2020-0188,2020-05-08,10:22:34,10:40:14,NA,incomplete,18,color,0,left,Purple_Triangle_Stripes_1.jpg,Purple_Plus_Dots_2.jpg,Red_Star_Stripes_4.jpg,left,589.5400000736117,true,high,false
kqfcvbVI,33cla8o0nlo9ukh858i8v1jgjoffrm,339ansotr9f94r4x7ykym66lndkikg,kqfcvbVI,2020-0188,2020-05-08,10:22:34,10:40:14,NA,incomplete,19,color,1,left,Red_Plus_Grid_2.jpg,Red_Triangle_Stripes_3.jpg,Blue_Star_Grid_4.jpg,left,529.9050000030547,true,high,false
kqfcvbVI,33cla8o0nlo9ukh858i8v1jgjoffrm,339ansotr9f94r4x7ykym66lndkikg,kqfcvbVI,2020-0188,2020-05-08,10:22:34,10:40:14,NA,incomplete,20,filling,1,right,Red_Star_Grid_4.jpg,Red_Plus_Stripes_1.jpg,Purple_Circle_Grid_2.jpg,left,504.7999999951571,false,high,false
kqfcvbVI,33cla8o0nlo9ukh858i8v1jgjoffrm,339ansotr9f94r4x7ykym66lndkikg,kqfcvbVI,2020-0188,2020-05-08,10:22:34,10:40:14,NA,incomplete,21,filling,1,right,Purple_Plus_Chess_1.jpg,Purple_Triangle_Grid_2.jpg,Green_Circle_Chess_4.jpg,left,624.5800000615418,false,high,false
kqfcvbVI,33cla8o0nlo9ukh858i8v1jgjoffrm,339ansotr9f94r4x7ykym66lndkikg,kqfcvbVI,2020-0188,2020-05-08,10:22:34,10:40:14,NA,incomplete,22,filling,1,right,Purple_Plus_Stripes_4.jpg,Purple_Triangle_Chess_2.jpg,Red_Star_Stripes_3.jpg,left,516.2899999413639,false,high,false
kqfcvbVI,33cla8o0nlo9ukh858i8v1jgjoffrm,339ansotr9f94r4x7ykym66lndkikg,kqfcvbVI,2020-0188,2020-05-08,10:22:34,10:40:14,NA,incomplete,23,filling,1,right,Green_Circle_Stripes_1.jpg,Green_Star_Grid_2.jpg,Purple_Plus_Stripes_3.jpg,right,1101.0100001003593,true,high,false
kqfcvbVI,33cla8o0nlo9ukh858i8v1jgjoffrm,339ansotr9f94r4x7ykym66lndkikg,kqfcvbVI,2020-0188,2020-05-08,10:22:34,10:40:14,NA,incomplete,24,filling,0,right,Red_Plus_Stripes_3.jpg,Red_Circle_Dots_1.jpg,Blue_Star_Stripes_4.jpg,right,1037.2350001707673,true,high,false
kqfcvbVI,33cla8o0nlo9ukh858i8v1jgjoffrm,339ansotr9f94r4x7ykym66lndkikg,kqfcvbVI,2020-0188,2020-05-08,10:22:34,10:40:14,NA,incomplete,25,filling,1,right,Blue_Circle_Dots_2.jpg,Blue_Star_Chess_3.jpg,Red_Plus_Dots_4.jpg,right,1104.0300000458956,true,high,false
kqfcvbVI,33cla8o0nlo9ukh858i8v1jgjoffrm,339ansotr9f94r4x7ykym66lndkikg,kqfcvbVI,2020-0188,2020-05-08,10:22:34,10:40:14,NA,incomplete,26,filling,1,right,Blue_Triangle_Stripes_4.jpg,Blue_Plus_Chess_2.jpg,Red_Star_Stripes_3.jpg,right,960.0649999920279,true,high,false
kqfcvbVI,33cla8o0nlo9ukh858i8v1jgjoffrm,339ansotr9f94r4x7ykym66lndkikg,kqfcvbVI,2020-0188,2020-05-08,10:22:34,10:40:14,NA,incomplete,27,filling,1,right,Purple_Star_Stripes_1.jpg,Purple_Plus_Chess_2.jpg,Red_Circle_Stripes_4.jpg,right,950.4700000397861,true,high,false
kqfcvbVI,33cla8o0nlo9ukh858i8v1jgjoffrm,339ansotr9f94r4x7ykym66lndkikg,kqfcvbVI,2020-0188,2020-05-08,10:22:34,10:40:14,NA,incomplete,28,filling,1,left,Purple_Plus_Grid_1.jpg,Red_Circle_Grid_3.jpg,Purple_Triangle_Chess_2.jpg,left,987.8400000743568,true,high,false
kqfcvbVI,33cla8o0nlo9ukh858i8v1jgjoffrm,339ansotr9f94r4x7ykym66lndkikg,kqfcvbVI,2020-0188,2020-05-08,10:22:34,10:40:14,NA,incomplete,29,filling,1,right,Red_Plus_Stripes_4.jpg,Red_Star_Dots_1.jpg,Blue_Circle_Stripes_3.jpg,right,881.0999998822808,true,high,false
kqfcvbVI,33cla8o0nlo9ukh858i8v1jgjoffrm,339ansotr9f94r4x7ykym66lndkikg,kqfcvbVI,2020-0188,2020-05-08,10:22:34,10:40:14,NA,incomplete,30,color,1,right,Red_Triangle_Stripes_4.jpg,Blue_Star_Stripes_3.jpg,Red_Circle_Grid_1.jpg,right,833.9300001971424,true,high,false
kqfcvbVI,33cla8o0nlo9ukh858i8v1jgjoffrm,339ansotr9f94r4x7ykym66lndkikg,kqfcvbVI,2020-0188,2020-05-08,10:22:34,10:40:14,NA,incomplete,31,color,1,right,Red_Triangle_Chess_4.jpg,Green_Plus_Chess_2.jpg,Red_Circle_Grid_1.jpg,left,940.5600000172853,false,high,false
kqfcvbVI,33cla8o0nlo9ukh858i8v1jgjoffrm,339ansotr9f94r4x7ykym66lndkikg,kqfcvbVI,2020-0188,2020-05-08,10:22:34,10:40:14,NA,incomplete,32,color,1,right,Blue_Plus_Dots_1.jpg,Red_Circle_Dots_3.jpg,Blue_Triangle_Grid_2.jpg,left,1139.8950000293553,false,high,false
kqfcvbVI,33cla8o0nlo9ukh858i8v1jgjoffrm,339ansotr9f94r4x7ykym66lndkikg,kqfcvbVI,2020-0188,2020-05-08,10:22:34,10:40:14,NA,incomplete,33,color,1,right,Green_Triangle_Dots_3.jpg,Purple_Star_Dots_1.jpg,Green_Plus_Grid_4.jpg,right,586.1549999099225,true,high,false
kqfcvbVI,33cla8o0nlo9ukh858i8v1jgjoffrm,339ansotr9f94r4x7ykym66lndkikg,kqfcvbVI,2020-0188,2020-05-08,10:22:34,10:40:14,NA,incomplete,34,color,1,left,Red_Star_Grid_2.jpg,Red_Triangle_Stripes_4.jpg,Blue_Plus_Grid_3.jpg,left,566.7550000362098,true,high,false
kqfcvbVI,33cla8o0nlo9ukh858i8v1jgjoffrm,339ansotr9f94r4x7ykym66lndkikg,kqfcvbVI,2020-0188,2020-05-08,10:22:34,10:40:14,NA,incomplete,35,color,1,left,Purple_Circle_Stripes_2.jpg,Purple_Triangle_Chess_4.jpg,Red_Plus_Stripes_3.jpg,left,660.7050001621246,true,high,false
kqfcvbVI,33cla8o0nlo9ukh858i8v1jgjoffrm,339ansotr9f94r4x7ykym66lndkikg,kqfcvbVI,2020-0188,2020-05-08,10:22:34,10:40:14,NA,incomplete,36,color,1,left,Green_Star_Stripes_3.jpg,Green_Triangle_Grid_2.jpg,Blue_Plus_Stripes_4.jpg,left,526.625000173226,true,high,false
kqfcvbVI,33cla8o0nlo9ukh858i8v1jgjoffrm,339ansotr9f94r4x7ykym66lndkikg,kqfcvbVI,2020-0188,2020-05-08,10:22:34,10:40:14,NA,incomplete,37,color,0,left,Green_Plus_Dots_1.jpg,Green_Circle_Chess_2.jpg,Blue_Triangle_Dots_4.jpg,left,527.2699999623001,true,high,false
kqfcvbVI,33cla8o0nlo9ukh858i8v1jgjoffrm,339ansotr9f94r4x7ykym66lndkikg,kqfcvbVI,2020-0188,2020-05-08,10:22:34,10:40:14,NA,incomplete,38,color,1,left,Green_Star_Chess_2.jpg,Green_Triangle_Stripes_4.jpg,Red_Plus_Chess_3.jpg,left,555.8050000108778,true,high,false
kqfcvbVI,33cla8o0nlo9ukh858i8v1jgjoffrm,339ansotr9f94r4x7ykym66lndkikg,kqfcvbVI,2020-0188,2020-05-08,10:22:34,10:40:14,NA,incomplete,39,color,1,right,Purple_Plus_Dots_1.jpg,Green_Circle_Dots_3.jpg,Purple_Triangle_Grid_2.jpg,right,539.6300000138581,true,high,false
kqfcvbVI,33cla8o0nlo9ukh858i8v1jgjoffrm,339ansotr9f94r4x7ykym66lndkikg,kqfcvbVI,2020-0188,2020-05-08,10:22:34,10:40:14,NA,incomplete,40,filling,1,right,Blue_Star_Grid_2.jpg,Blue_Circle_Dots_3.jpg,Red_Plus_Grid_1.jpg,left,457.6799999922514,false,high,false
kqfcvbVI,33cla8o0nlo9ukh858i8v1jgjoffrm,339ansotr9f94r4x7ykym66lndkikg,kqfcvbVI,2020-0188,2020-05-08,10:22:34,10:40:14,NA,incomplete,41,filling,1,left,Purple_Star_Grid_4.jpg,Blue_Plus_Grid_3.jpg,Purple_Triangle_Stripes_2.jpg,left,1587.980000069365,true,high,false
kqfcvbVI,33cla8o0nlo9ukh858i8v1jgjoffrm,339ansotr9f94r4x7ykym66lndkikg,kqfcvbVI,2020-0188,2020-05-08,10:22:34,10:40:14,NA,incomplete,42,filling,1,left,Purple_Star_Chess_4.jpg,Blue_Circle_Chess_2.jpg,Purple_Triangle_Grid_3.jpg,left,1217.5449999049306,true,high,false
kqfcvbVI,33cla8o0nlo9ukh858i8v1jgjoffrm,339ansotr9f94r4x7ykym66lndkikg,kqfcvbVI,2020-0188,2020-05-08,10:22:34,10:40:14,NA,incomplete,43,filling,0,right,Purple_Star_Dots_4.jpg,Purple_Plus_Grid_2.jpg,Green_Circle_Dots_1.jpg,right,867.4549998249859,true,high,false
kqfcvbVI,33cla8o0nlo9ukh858i8v1jgjoffrm,339ansotr9f94r4x7ykym66lndkikg,kqfcvbVI,2020-0188,2020-05-08,10:22:34,10:40:14,NA,incomplete,44,filling,0,left,Purple_Circle_Stripes_4.jpg,Red_Star_Stripes_2.jpg,Purple_Triangle_Grid_1.jpg,left,1429.435000056401,true,high,false
kqfcvbVI,33cla8o0nlo9ukh858i8v1jgjoffrm,339ansotr9f94r4x7ykym66lndkikg,kqfcvbVI,2020-0188,2020-05-08,10:22:34,10:40:14,NA,incomplete,45,filling,1,right,Purple_Star_Dots_2.jpg,Purple_Plus_Chess_4.jpg,Green_Circle_Dots_1.jpg,right,1073.134999955073,true,high,false
kqfcvbVI,33cla8o0nlo9ukh858i8v1jgjoffrm,339ansotr9f94r4x7ykym66lndkikg,kqfcvbVI,2020-0188,2020-05-08,10:22:34,10:40:14,NA,incomplete,46,filling,0,right,Green_Star_Stripes_4.jpg,Green_Plus_Grid_2.jpg,Blue_Circle_Stripes_3.jpg,right,1171.4200000278652,true,high,false
kqfcvbVI,33cla8o0nlo9ukh858i8v1jgjoffrm,339ansotr9f94r4x7ykym66lndkikg,kqfcvbVI,2020-0188,2020-05-08,10:22:34,10:40:14,NA,incomplete,47,filling,1,right,Green_Plus_Grid_2.jpg,Green_Triangle_Dots_1.jpg,Red_Circle_Grid_3.jpg,right,991.4049999788404,true,high,false
kqfcvbVI,33cla8o0nlo9ukh858i8v1jgjoffrm,339ansotr9f94r4x7ykym66lndkikg,kqfcvbVI,2020-0188,2020-05-08,10:22:34,10:40:14,NA,incomplete,48,filling,1,right,Green_Circle_Chess_2.jpg,Green_Triangle_Dots_4.jpg,Red_Star_Chess_3.jpg,right,941.1600001621991,true,high,false
kqfcvbVI,33cla8o0nlo9ukh858i8v1jgjoffrm,339ansotr9f94r4x7ykym66lndkikg,kqfcvbVI,2020-0188,2020-05-08,10:22:34,10:40:14,NA,incomplete,49,filling,0,right,Green_Triangle_Grid_4.jpg,Green_Star_Stripes_3.jpg,Blue_Plus_Grid_1.jpg,right,1251.0999999940395,true,high,false
kqfcvbVI,33cla8o0nlo9ukh858i8v1jgjoffrm,339ansotr9f94r4x7ykym66lndkikg,kqfcvbVI,2020-0188,2020-05-08,10:22:34,10:40:14,NA,incomplete,50,color,1,left,Red_Triangle_Grid_4.jpg,Red_Plus_Stripes_3.jpg,Blue_Star_Grid_1.jpg,left,925.6849999073893,true,high,false
kqfcvbVI,33cla8o0nlo9ukh858i8v1jgjoffrm,339ansotr9f94r4x7ykym66lndkikg,kqfcvbVI,2020-0188,2020-05-08,10:22:34,10:40:14,NA,incomplete,51,color,1,left,Blue_Triangle_Stripes_1.jpg,Blue_Circle_Dots_2.jpg,Purple_Star_Stripes_3.jpg,left,755.1750000566244,true,high,false
kqfcvbVI,33cla8o0nlo9ukh858i8v1jgjoffrm,339ansotr9f94r4x7ykym66lndkikg,kqfcvbVI,2020-0188,2020-05-08,10:22:34,10:40:14,NA,incomplete,52,color,1,right,Red_Triangle_Dots_4.jpg,Green_Plus_Dots_1.jpg,Red_Star_Chess_2.jpg,right,594.5800000336021,true,high,false
kqfcvbVI,33cla8o0nlo9ukh858i8v1jgjoffrm,339ansotr9f94r4x7ykym66lndkikg,kqfcvbVI,2020-0188,2020-05-08,10:22:34,10:40:14,NA,incomplete,53,color,1,right,Blue_Circle_Stripes_4.jpg,Red_Star_Stripes_2.jpg,Blue_Triangle_Grid_3.jpg,right,791.1900000181049,true,high,false
kqfcvbVI,33cla8o0nlo9ukh858i8v1jgjoffrm,339ansotr9f94r4x7ykym66lndkikg,kqfcvbVI,2020-0188,2020-05-08,10:22:34,10:40:14,NA,incomplete,54,color,1,left,Blue_Circle_Chess_1.jpg,Blue_Star_Stripes_3.jpg,Red_Triangle_Chess_4.jpg,right,1187.3449999839067,false,high,false
kqfcvbVI,33cla8o0nlo9ukh858i8v1jgjoffrm,339ansotr9f94r4x7ykym66lndkikg,kqfcvbVI,2020-0188,2020-05-08,10:22:34,10:40:14,NA,incomplete,55,color,1,left,Green_Triangle_Chess_2.jpg,Green_Circle_Stripes_1.jpg,Purple_Plus_Chess_3.jpg,left,600.6200001575053,true,high,false
kqfcvbVI,33cla8o0nlo9ukh858i8v1jgjoffrm,339ansotr9f94r4x7ykym66lndkikg,kqfcvbVI,2020-0188,2020-05-08,10:22:34,10:40:14,NA,incomplete,56,color,1,left,Green_Circle_Dots_1.jpg,Green_Triangle_Stripes_2.jpg,Purple_Star_Dots_3.jpg,left,524.7799998614937,true,high,false
kqfcvbVI,33cla8o0nlo9ukh858i8v1jgjoffrm,339ansotr9f94r4x7ykym66lndkikg,kqfcvbVI,2020-0188,2020-05-08,10:22:34,10:40:14,NA,incomplete,57,color,1,left,Blue_Plus_Grid_1.jpg,Blue_Triangle_Chess_4.jpg,Purple_Circle_Grid_2.jpg,left,594.2649999633431,true,high,false
kqfcvbVI,33cla8o0nlo9ukh858i8v1jgjoffrm,339ansotr9f94r4x7ykym66lndkikg,kqfcvbVI,2020-0188,2020-05-08,10:22:34,10:40:14,NA,incomplete,58,color,1,right,Green_Star_Dots_2.jpg,Purple_Triangle_Dots_4.jpg,Green_Circle_Chess_1.jpg,right,634.0900000650436,true,high,false
kqfcvbVI,33cla8o0nlo9ukh858i8v1jgjoffrm,339ansotr9f94r4x7ykym66lndkikg,kqfcvbVI,2020-0188,2020-05-08,10:22:34,10:40:14,NA,incomplete,59,color,1,right,Green_Circle_Grid_4.jpg,Blue_Triangle_Grid_3.jpg,Green_Star_Dots_1.jpg,right,668.3400000911206,true,high,false
kqfcvbVI,33cla8o0nlo9ukh858i8v1jgjoffrm,339ansotr9f94r4x7ykym66lndkikg,kqfcvbVI,2020-0188,2020-05-08,10:22:34,10:40:14,NA,incomplete,60,filling,1,right,Purple_Plus_Chess_2.jpg,Purple_Circle_Dots_4.jpg,Red_Triangle_Chess_3.jpg,left,790.2799998410046,false,high,false
kqfcvbVI,33cla8o0nlo9ukh858i8v1jgjoffrm,339ansotr9f94r4x7ykym66lndkikg,kqfcvbVI,2020-0188,2020-05-08,10:22:34,10:40:14,NA,incomplete,61,filling,1,right,Purple_Triangle_Dots_4.jpg,Purple_Circle_Grid_1.jpg,Blue_Plus_Dots_3.jpg,left,1154.985000146553,false,high,false
kqfcvbVI,33cla8o0nlo9ukh858i8v1jgjoffrm,339ansotr9f94r4x7ykym66lndkikg,kqfcvbVI,2020-0188,2020-05-08,10:22:34,10:40:14,NA,incomplete,62,filling,1,left,Purple_Circle_Stripes_2.jpg,Green_Plus_Stripes_3.jpg,Purple_Triangle_Grid_4.jpg,left,1144.3450001534075,true,high,false
kqfcvbVI,33cla8o0nlo9ukh858i8v1jgjoffrm,339ansotr9f94r4x7ykym66lndkikg,kqfcvbVI,2020-0188,2020-05-08,10:22:34,10:40:14,NA,incomplete,63,filling,1,right,Blue_Triangle_Stripes_1.jpg,Blue_Star_Chess_2.jpg,Purple_Circle_Stripes_4.jpg,right,574.9899998772889,true,high,false
kqfcvbVI,33cla8o0nlo9ukh858i8v1jgjoffrm,339ansotr9f94r4x7ykym66lndkikg,kqfcvbVI,2020-0188,2020-05-08,10:22:34,10:40:14,NA,incomplete,64,filling,1,left,Red_Star_Dots_4.jpg,Green_Circle_Dots_1.jpg,Red_Plus_Chess_2.jpg,left,779.9050000030547,true,high,false
kqfcvbVI,33cla8o0nlo9ukh858i8v1jgjoffrm,339ansotr9f94r4x7ykym66lndkikg,kqfcvbVI,2020-0188,2020-05-08,10:22:34,10:40:14,NA,incomplete,65,filling,1,right,Blue_Circle_Chess_4.jpg,Blue_Star_Dots_3.jpg,Green_Triangle_Chess_2.jpg,right,682.8349998686463,true,high,false
kqfcvbVI,33cla8o0nlo9ukh858i8v1jgjoffrm,339ansotr9f94r4x7ykym66lndkikg,kqfcvbVI,2020-0188,2020-05-08,10:22:34,10:40:14,NA,incomplete,66,filling,0,right,Purple_Circle_Chess_4.jpg,Purple_Triangle_Dots_1.jpg,Red_Plus_Chess_2.jpg,right,1147.2599999979138,true,high,false
kqfcvbVI,33cla8o0nlo9ukh858i8v1jgjoffrm,339ansotr9f94r4x7ykym66lndkikg,kqfcvbVI,2020-0188,2020-05-08,10:22:34,10:40:14,NA,incomplete,67,filling,0,right,Blue_Plus_Stripes_4.jpg,Blue_Circle_Grid_3.jpg,Red_Triangle_Stripes_2.jpg,right,1146.225000033155,true,high,false
kqfcvbVI,33cla8o0nlo9ukh858i8v1jgjoffrm,339ansotr9f94r4x7ykym66lndkikg,kqfcvbVI,2020-0188,2020-05-08,10:22:34,10:40:14,NA,incomplete,68,filling,1,right,Green_Star_Grid_3.jpg,Green_Plus_Dots_1.jpg,Red_Circle_Grid_2.jpg,left,704.6699998900294,false,high,false
kqfcvbVI,33cla8o0nlo9ukh858i8v1jgjoffrm,339ansotr9f94r4x7ykym66lndkikg,kqfcvbVI,2020-0188,2020-05-08,10:22:34,10:40:14,NA,incomplete,69,filling,1,left,Green_Plus_Stripes_2.jpg,Purple_Star_Stripes_4.jpg,Green_Circle_Grid_3.jpg,right,1193.0750000756234,false,high,false
kqfcvbVI,33cla8o0nlo9ukh858i8v1jgjoffrm,339ansotr9f94r4x7ykym66lndkikg,kqfcvbVI,2020-0188,2020-05-08,10:22:34,10:40:14,NA,incomplete,70,color,1,right,Red_Circle_Chess_3.jpg,Blue_Plus_Chess_2.jpg,Red_Star_Grid_1.jpg,right,1237.3599999118596,true,high,false
kqfcvbVI,33cla8o0nlo9ukh858i8v1jgjoffrm,339ansotr9f94r4x7ykym66lndkikg,kqfcvbVI,2020-0188,2020-05-08,10:22:34,10:40:14,NA,incomplete,71,color,0,left,Purple_Triangle_Dots_1.jpg,Purple_Plus_Chess_2.jpg,Blue_Circle_Dots_3.jpg,left,615.4299997724593,true,high,false
kqfcvbVI,33cla8o0nlo9ukh858i8v1jgjoffrm,339ansotr9f94r4x7ykym66lndkikg,kqfcvbVI,2020-0188,2020-05-08,10:22:34,10:40:14,NA,incomplete,72,color,0,right,Green_Triangle_Dots_1.jpg,Blue_Plus_Dots_3.jpg,Green_Circle_Chess_2.jpg,right,715.5450000427663,true,high,false
kqfcvbVI,33cla8o0nlo9ukh858i8v1jgjoffrm,339ansotr9f94r4x7ykym66lndkikg,kqfcvbVI,2020-0188,2020-05-08,10:22:34,10:40:14,NA,incomplete,73,color,1,left,Red_Triangle_Stripes_3.jpg,Red_Circle_Chess_2.jpg,Blue_Plus_Stripes_4.jpg,right,1341.0400000866503,false,high,false
kqfcvbVI,33cla8o0nlo9ukh858i8v1jgjoffrm,339ansotr9f94r4x7ykym66lndkikg,kqfcvbVI,2020-0188,2020-05-08,10:22:34,10:40:14,NA,incomplete,74,color,1,right,Purple_Plus_Grid_3.jpg,Green_Star_Grid_1.jpg,Purple_Circle_Chess_4.jpg,right,739.2499998677522,true,high,false
kqfcvbVI,33cla8o0nlo9ukh858i8v1jgjoffrm,339ansotr9f94r4x7ykym66lndkikg,kqfcvbVI,2020-0188,2020-05-08,10:22:34,10:40:14,NA,incomplete,75,color,1,right,Red_Circle_Grid_3.jpg,Purple_Triangle_Grid_1.jpg,Red_Star_Dots_4.jpg,right,681.1100000049919,true,high,false
kqfcvbVI,33cla8o0nlo9ukh858i8v1jgjoffrm,339ansotr9f94r4x7ykym66lndkikg,kqfcvbVI,2020-0188,2020-05-08,10:22:34,10:40:14,NA,incomplete,76,color,1,right,Purple_Triangle_Chess_4.jpg,Blue_Plus_Chess_3.jpg,Purple_Circle_Dots_1.jpg,right,786.3050000742078,true,high,false
kqfcvbVI,33cla8o0nlo9ukh858i8v1jgjoffrm,339ansotr9f94r4x7ykym66lndkikg,kqfcvbVI,2020-0188,2020-05-08,10:22:34,10:40:14,NA,incomplete,77,color,1,right,Green_Star_Dots_2.jpg,Purple_Triangle_Dots_4.jpg,Green_Plus_Stripes_3.jpg,right,511.89500000327826,true,high,false
kqfcvbVI,33cla8o0nlo9ukh858i8v1jgjoffrm,339ansotr9f94r4x7ykym66lndkikg,kqfcvbVI,2020-0188,2020-05-08,10:22:34,10:40:14,NA,incomplete,78,color,1,left,Blue_Circle_Dots_1.jpg,Blue_Star_Stripes_4.jpg,Green_Triangle_Dots_3.jpg,left,487.3800000641495,true,high,false
kqfcvbVI,33cla8o0nlo9ukh858i8v1jgjoffrm,339ansotr9f94r4x7ykym66lndkikg,kqfcvbVI,2020-0188,2020-05-08,10:22:34,10:40:14,NA,incomplete,79,color,1,right,Red_Star_Chess_2.jpg,Blue_Circle_Chess_4.jpg,Red_Plus_Dots_1.jpg,right,617.0400001574308,true,high,false
kqfcvbVI,33cla8o0nlo9ukh858i8v1jgjoffrm,339ansotr9f94r4x7ykym66lndkikg,kqfcvbVI,2020-0188,2020-05-08,10:22:34,10:40:14,NA,incomplete,80,filling,0,left,Blue_Triangle_Dots_3.jpg,Red_Circle_Dots_1.jpg,Blue_Plus_Grid_4.jpg,right,787.5000000931323,false,high,false
kqfcvbVI,33cla8o0nlo9ukh858i8v1jgjoffrm,339ansotr9f94r4x7ykym66lndkikg,kqfcvbVI,2020-0188,2020-05-08,10:22:34,10:40:14,NA,incomplete,81,filling,1,left,Red_Star_Chess_2.jpg,Green_Circle_Chess_4.jpg,Red_Plus_Grid_3.jpg,right,545.0600001495332,false,high,false
kqfcvbVI,33cla8o0nlo9ukh858i8v1jgjoffrm,339ansotr9f94r4x7ykym66lndkikg,kqfcvbVI,2020-0188,2020-05-08,10:22:34,10:40:14,NA,incomplete,82,filling,1,left,Red_Triangle_Dots_1.jpg,Blue_Star_Dots_2.jpg,Red_Plus_Stripes_4.jpg,left,1127.485000062734,true,high,false
kqfcvbVI,33cla8o0nlo9ukh858i8v1jgjoffrm,339ansotr9f94r4x7ykym66lndkikg,kqfcvbVI,2020-0188,2020-05-08,10:22:34,10:40:14,NA,incomplete,83,filling,1,right,Purple_Plus_Dots_3.jpg,Purple_Circle_Stripes_2.jpg,Red_Triangle_Dots_4.jpg,right,1295.2350000850856,true,high,false
kqfcvbVI,33cla8o0nlo9ukh858i8v1jgjoffrm,339ansotr9f94r4x7ykym66lndkikg,kqfcvbVI,2020-0188,2020-05-08,10:22:34,10:40:14,NA,incomplete,84,filling,0,right,Green_Plus_Chess_2.jpg,Green_Triangle_Stripes_3.jpg,Blue_Star_Chess_1.jpg,right,607.480000006035,true,high,false
kqfcvbVI,33cla8o0nlo9ukh858i8v1jgjoffrm,339ansotr9f94r4x7ykym66lndkikg,kqfcvbVI,2020-0188,2020-05-08,10:22:34,10:40:14,NA,incomplete,85,filling,1,left,Purple_Triangle_Grid_2.jpg,Green_Plus_Grid_4.jpg,Purple_Circle_Stripes_3.jpg,left,1075.3499998245388,true,high,false
kqfcvbVI,33cla8o0nlo9ukh858i8v1jgjoffrm,339ansotr9f94r4x7ykym66lndkikg,kqfcvbVI,2020-0188,2020-05-08,10:22:34,10:40:14,NA,incomplete,86,filling,1,right,Blue_Circle_Dots_2.jpg,Blue_Plus_Grid_3.jpg,Green_Triangle_Dots_4.jpg,right,1052.045000018552,true,high,false
kqfcvbVI,33cla8o0nlo9ukh858i8v1jgjoffrm,339ansotr9f94r4x7ykym66lndkikg,kqfcvbVI,2020-0188,2020-05-08,10:22:34,10:40:14,NA,incomplete,87,filling,1,left,Red_Star_Stripes_3.jpg,Purple_Plus_Stripes_2.jpg,Red_Circle_Dots_1.jpg,left,607.2249999269843,true,high,false
kqfcvbVI,33cla8o0nlo9ukh858i8v1jgjoffrm,339ansotr9f94r4x7ykym66lndkikg,kqfcvbVI,2020-0188,2020-05-08,10:22:34,10:40:14,NA,incomplete,88,filling,1,left,Blue_Triangle_Dots_3.jpg,Green_Circle_Dots_4.jpg,Blue_Star_Chess_1.jpg,left,642.7249999251217,true,high,false
kqfcvbVI,33cla8o0nlo9ukh858i8v1jgjoffrm,339ansotr9f94r4x7ykym66lndkikg,kqfcvbVI,2020-0188,2020-05-08,10:22:34,10:40:14,NA,incomplete,89,filling,1,right,Purple_Circle_Stripes_3.jpg,Purple_Triangle_Grid_2.jpg,Red_Star_Stripes_4.jpg,right,749.1099999751896,true,high,false
kqfcvbVI,33cla8o0nlo9ukh858i8v1jgjoffrm,339ansotr9f94r4x7ykym66lndkikg,kqfcvbVI,2020-0188,2020-05-08,10:22:34,10:40:14,NA,incomplete,90,color,0,left,Blue_Triangle_Chess_2.jpg,Blue_Circle_Grid_4.jpg,Red_Star_Chess_3.jpg,right,740.4849999584258,false,high,false
kqfcvbVI,33cla8o0nlo9ukh858i8v1jgjoffrm,339ansotr9f94r4x7ykym66lndkikg,kqfcvbVI,2020-0188,2020-05-08,10:22:34,10:40:14,NA,incomplete,91,color,0,left,Red_Triangle_Grid_4.jpg,Red_Star_Stripes_3.jpg,Purple_Plus_Grid_1.jpg,right,700.3250000998378,false,high,false
kqfcvbVI,33cla8o0nlo9ukh858i8v1jgjoffrm,339ansotr9f94r4x7ykym66lndkikg,kqfcvbVI,2020-0188,2020-05-08,10:22:34,10:40:14,NA,incomplete,92,color,0,right,Red_Star_Chess_4.jpg,Blue_Triangle_Chess_1.jpg,Red_Circle_Grid_2.jpg,left,595.4799999017268,false,high,false
kqfcvbVI,33cla8o0nlo9ukh858i8v1jgjoffrm,339ansotr9f94r4x7ykym66lndkikg,kqfcvbVI,2020-0188,2020-05-08,10:22:34,10:40:14,NA,incomplete,93,color,0,right,Purple_Triangle_Chess_3.jpg,Blue_Circle_Chess_4.jpg,Purple_Plus_Grid_2.jpg,left,617.5149998161942,false,high,false
kqfcvbVI,33cla8o0nlo9ukh858i8v1jgjoffrm,339ansotr9f94r4x7ykym66lndkikg,kqfcvbVI,2020-0188,2020-05-08,10:22:34,10:40:14,NA,incomplete,94,color,0,right,Blue_Triangle_Stripes_2.jpg,Purple_Plus_Stripes_1.jpg,Blue_Circle_Dots_3.jpg,left,684.2150001320988,false,high,false
kqfcvbVI,33cla8o0nlo9ukh858i8v1jgjoffrm,339ansotr9f94r4x7ykym66lndkikg,kqfcvbVI,2020-0188,2020-05-08,10:22:34,10:40:14,NA,incomplete,95,color,1,left,Blue_Circle_Chess_3.jpg,Blue_Triangle_Grid_1.jpg,Purple_Plus_Chess_2.jpg,right,597.8649999015033,false,high,false
kqfcvbVI,33cla8o0nlo9ukh858i8v1jgjoffrm,339ansotr9f94r4x7ykym66lndkikg,kqfcvbVI,2020-0188,2020-05-08,10:22:34,10:40:14,NA,incomplete,96,color,1,left,Blue_Triangle_Dots_1.jpg,Blue_Circle_Grid_3.jpg,Purple_Plus_Dots_4.jpg,left,825.6650001276284,true,high,false
kqfcvbVI,33cla8o0nlo9ukh858i8v1jgjoffrm,339ansotr9f94r4x7ykym66lndkikg,kqfcvbVI,2020-0188,2020-05-08,10:22:34,10:40:14,NA,incomplete,97,color,1,left,Green_Plus_Chess_3.jpg,Green_Triangle_Grid_4.jpg,Red_Circle_Chess_2.jpg,left,533.15500007011,true,high,false
kqfcvbVI,33cla8o0nlo9ukh858i8v1jgjoffrm,339ansotr9f94r4x7ykym66lndkikg,kqfcvbVI,2020-0188,2020-05-08,10:22:34,10:40:14,NA,incomplete,98,color,1,left,Purple_Plus_Chess_3.jpg,Purple_Triangle_Dots_1.jpg,Red_Circle_Chess_4.jpg,left,580.2850001491606,true,high,false
kqfcvbVI,33cla8o0nlo9ukh858i8v1jgjoffrm,339ansotr9f94r4x7ykym66lndkikg,kqfcvbVI,2020-0188,2020-05-08,10:22:34,10:40:14,NA,incomplete,99,color,1,left,Blue_Circle_Dots_1.jpg,Blue_Star_Grid_4.jpg,Red_Plus_Dots_2.jpg,left,529.2950000148267,true,high,false
kqfcvbVI,33cla8o0nlo9ukh858i8v1jgjoffrm,339ansotr9f94r4x7ykym66lndkikg,kqfcvbVI,2020-0188,2020-05-08,10:22:34,10:40:14,NA,incomplete,100,filling,1,left,Red_Plus_Grid_2.jpg,Green_Star_Grid_1.jpg,Red_Triangle_Stripes_3.jpg,right,825.0000001862645,false,high,false
kqfcvbVI,33cla8o0nlo9ukh858i8v1jgjoffrm,339ansotr9f94r4x7ykym66lndkikg,kqfcvbVI,2020-0188,2020-05-08,10:22:34,10:40:14,NA,incomplete,101,filling,0,left,Green_Circle_Grid_3.jpg,Purple_Star_Grid_4.jpg,Green_Plus_Stripes_1.jpg,left,787.7050000242889,true,high,false
kqfcvbVI,33cla8o0nlo9ukh858i8v1jgjoffrm,339ansotr9f94r4x7ykym66lndkikg,kqfcvbVI,2020-0188,2020-05-08,10:22:34,10:40:14,NA,incomplete,102,filling,1,right,Green_Triangle_Grid_3.jpg,Green_Plus_Chess_4.jpg,Blue_Circle_Grid_1.jpg,left,984.1849999502301,false,high,false
kqfcvbVI,33cla8o0nlo9ukh858i8v1jgjoffrm,339ansotr9f94r4x7ykym66lndkikg,kqfcvbVI,2020-0188,2020-05-08,10:22:34,10:40:14,NA,incomplete,103,filling,1,right,Red_Circle_Chess_2.jpg,Red_Triangle_Grid_1.jpg,Green_Star_Chess_3.jpg,left,1077.4450001772493,false,high,false
kqfcvbVI,33cla8o0nlo9ukh858i8v1jgjoffrm,339ansotr9f94r4x7ykym66lndkikg,kqfcvbVI,2020-0188,2020-05-08,10:22:34,10:40:14,NA,incomplete,104,filling,1,left,Purple_Circle_Chess_3.jpg,Red_Star_Chess_2.jpg,Purple_Plus_Dots_1.jpg,left,856.3599998597056,true,high,false
kqfcvbVI,33cla8o0nlo9ukh858i8v1jgjoffrm,339ansotr9f94r4x7ykym66lndkikg,kqfcvbVI,2020-0188,2020-05-08,10:22:34,10:40:14,NA,incomplete,105,filling,0,left,Red_Circle_Chess_4.jpg,Green_Plus_Chess_3.jpg,Red_Triangle_Stripes_1.jpg,left,648.964999942109,true,high,false
kqfcvbVI,33cla8o0nlo9ukh858i8v1jgjoffrm,339ansotr9f94r4x7ykym66lndkikg,kqfcvbVI,2020-0188,2020-05-08,10:22:34,10:40:14,NA,incomplete,106,filling,0,left,Blue_Triangle_Dots_2.jpg,Green_Circle_Dots_3.jpg,Blue_Plus_Stripes_1.jpg,left,1028.2999998889863,true,high,false
kqfcvbVI,33cla8o0nlo9ukh858i8v1jgjoffrm,339ansotr9f94r4x7ykym66lndkikg,kqfcvbVI,2020-0188,2020-05-08,10:22:34,10:40:14,NA,incomplete,107,filling,0,left,Red_Plus_Dots_2.jpg,Green_Star_Dots_1.jpg,Red_Circle_Stripes_3.jpg,right,855.1699998788536,false,high,false
kqfcvbVI,33cla8o0nlo9ukh858i8v1jgjoffrm,339ansotr9f94r4x7ykym66lndkikg,kqfcvbVI,2020-0188,2020-05-08,10:22:34,10:40:14,NA,incomplete,108,filling,1,right,Blue_Triangle_Grid_3.jpg,Blue_Plus_Stripes_2.jpg,Green_Circle_Grid_4.jpg,left,784.5300000626594,false,high,false
kqfcvbVI,33cla8o0nlo9ukh858i8v1jgjoffrm,339ansotr9f94r4x7ykym66lndkikg,kqfcvbVI,2020-0188,2020-05-08,10:22:34,10:40:14,NA,incomplete,109,filling,1,left,Purple_Circle_Grid_1.jpg,Red_Plus_Grid_4.jpg,Purple_Star_Dots_3.jpg,right,1055.2050000987947,false,high,false
kqfcvbVI,33cla8o0nlo9ukh858i8v1jgjoffrm,339ansotr9f94r4x7ykym66lndkikg,kqfcvbVI,2020-0188,2020-05-08,10:22:34,10:40:14,NA,incomplete,110,color,1,left,Purple_Triangle_Dots_3.jpg,Purple_Plus_Stripes_4.jpg,Blue_Circle_Dots_1.jpg,right,936.7199998814613,false,high,false
kqfcvbVI,33cla8o0nlo9ukh858i8v1jgjoffrm,339ansotr9f94r4x7ykym66lndkikg,kqfcvbVI,2020-0188,2020-05-08,10:22:34,10:40:14,NA,incomplete,111,color,1,right,Red_Star_Grid_2.jpg,Blue_Plus_Grid_3.jpg,Red_Triangle_Chess_4.jpg,left,1399.9599998351187,false,high,false
kqfcvbVI,33cla8o0nlo9ukh858i8v1jgjoffrm,339ansotr9f94r4x7ykym66lndkikg,kqfcvbVI,2020-0188,2020-05-08,10:22:34,10:40:14,NA,incomplete,112,color,1,right,Green_Plus_Chess_2.jpg,Red_Triangle_Chess_1.jpg,Green_Star_Dots_3.jpg,left,756.034999853,false,high,false
kqfcvbVI,33cla8o0nlo9ukh858i8v1jgjoffrm,339ansotr9f94r4x7ykym66lndkikg,kqfcvbVI,2020-0188,2020-05-08,10:22:34,10:40:14,NA,incomplete,113,color,1,left,Red_Circle_Dots_1.jpg,Red_Triangle_Grid_4.jpg,Green_Star_Dots_2.jpg,right,866.8700000271201,false,high,false
kqfcvbVI,33cla8o0nlo9ukh858i8v1jgjoffrm,339ansotr9f94r4x7ykym66lndkikg,kqfcvbVI,2020-0188,2020-05-08,10:22:34,10:40:14,NA,incomplete,114,color,0,right,Blue_Circle_Stripes_3.jpg,Green_Star_Stripes_4.jpg,Blue_Triangle_Grid_2.jpg,left,1236.6750000510365,false,high,false
kqfcvbVI,33cla8o0nlo9ukh858i8v1jgjoffrm,339ansotr9f94r4x7ykym66lndkikg,kqfcvbVI,2020-0188,2020-05-08,10:22:34,10:40:14,NA,incomplete,115,color,1,left,Blue_Star_Grid_4.jpg,Blue_Triangle_Stripes_3.jpg,Red_Circle_Grid_1.jpg,right,599.1650000214577,false,high,false
kqfcvbVI,33cla8o0nlo9ukh858i8v1jgjoffrm,339ansotr9f94r4x7ykym66lndkikg,kqfcvbVI,2020-0188,2020-05-08,10:22:34,10:40:14,NA,incomplete,116,color,1,left,Purple_Circle_Chess_1.jpg,Purple_Plus_Stripes_3.jpg,Green_Triangle_Chess_2.jpg,right,979.3499999213964,false,high,false
kqfcvbVI,33cla8o0nlo9ukh858i8v1jgjoffrm,339ansotr9f94r4x7ykym66lndkikg,kqfcvbVI,2020-0188,2020-05-08,10:22:34,10:40:14,NA,incomplete,117,color,1,right,Green_Circle_Dots_3.jpg,Purple_Plus_Dots_1.jpg,Green_Star_Chess_2.jpg,right,728.2899999991059,true,high,false
kqfcvbVI,33cla8o0nlo9ukh858i8v1jgjoffrm,339ansotr9f94r4x7ykym66lndkikg,kqfcvbVI,2020-0188,2020-05-08,10:22:34,10:40:14,NA,incomplete,118,color,1,left,Blue_Plus_Chess_1.jpg,Blue_Circle_Grid_3.jpg,Green_Star_Chess_4.jpg,left,752.3000000510365,true,high,false
kqfcvbVI,33cla8o0nlo9ukh858i8v1jgjoffrm,339ansotr9f94r4x7ykym66lndkikg,kqfcvbVI,2020-0188,2020-05-08,10:22:34,10:40:14,NA,incomplete,119,color,1,left,Blue_Circle_Grid_4.jpg,Blue_Plus_Chess_2.jpg,Purple_Triangle_Grid_3.jpg,left,557.8799999784678,true,high,false
kqfcvbVI,33cla8o0nlo9ukh858i8v1jgjoffrm,339ansotr9f94r4x7ykym66lndkikg,kqfcvbVI,2020-0188,2020-05-08,10:22:34,10:40:14,NA,incomplete,120,filling,1,right,Green_Circle_Grid_4.jpg,Green_Triangle_Dots_3.jpg,Blue_Star_Grid_2.jpg,left,667.5350000150502,false,high,false
kqfcvbVI,33cla8o0nlo9ukh858i8v1jgjoffrm,339ansotr9f94r4x7ykym66lndkikg,kqfcvbVI,2020-0188,2020-05-08,10:22:34,10:40:14,NA,incomplete,121,filling,1,left,Red_Circle_Dots_2.jpg,Green_Plus_Dots_1.jpg,Red_Star_Chess_4.jpg,right,645.7599999848753,false,high,false
kqfcvbVI,33cla8o0nlo9ukh858i8v1jgjoffrm,339ansotr9f94r4x7ykym66lndkikg,kqfcvbVI,2020-0188,2020-05-08,10:22:34,10:40:14,NA,incomplete,122,filling,0,left,Green_Triangle_Dots_4.jpg,Purple_Plus_Dots_1.jpg,Green_Star_Grid_2.jpg,left,727.2449999582022,true,high,false
kqfcvbVI,33cla8o0nlo9ukh858i8v1jgjoffrm,339ansotr9f94r4x7ykym66lndkikg,kqfcvbVI,2020-0188,2020-05-08,10:22:34,10:40:14,NA,incomplete,123,filling,1,left,Blue_Circle_Grid_4.jpg,Green_Plus_Grid_3.jpg,Blue_Triangle_Chess_1.jpg,left,1182.7350000385195,true,high,false
kqfcvbVI,33cla8o0nlo9ukh858i8v1jgjoffrm,339ansotr9f94r4x7ykym66lndkikg,kqfcvbVI,2020-0188,2020-05-08,10:22:34,10:40:14,NA,incomplete,124,filling,1,right,Red_Star_Stripes_1.jpg,Red_Triangle_Grid_2.jpg,Purple_Plus_Stripes_3.jpg,right,629.539999878034,true,high,false
kqfcvbVI,33cla8o0nlo9ukh858i8v1jgjoffrm,339ansotr9f94r4x7ykym66lndkikg,kqfcvbVI,2020-0188,2020-05-08,10:22:34,10:40:14,NA,incomplete,125,filling,1,left,Red_Triangle_Dots_1.jpg,Green_Star_Dots_3.jpg,Red_Circle_Grid_4.jpg,left,744.8350000195205,true,high,false
kqfcvbVI,33cla8o0nlo9ukh858i8v1jgjoffrm,339ansotr9f94r4x7ykym66lndkikg,kqfcvbVI,2020-0188,2020-05-08,10:22:34,10:40:14,NA,incomplete,126,filling,0,left,Purple_Plus_Dots_3.jpg,Green_Circle_Dots_4.jpg,Purple_Triangle_Grid_1.jpg,left,917.9650000296533,true,high,false
kqfcvbVI,33cla8o0nlo9ukh858i8v1jgjoffrm,339ansotr9f94r4x7ykym66lndkikg,kqfcvbVI,2020-0188,2020-05-08,10:22:34,10:40:14,NA,incomplete,127,filling,1,left,Purple_Triangle_Grid_2.jpg,Blue_Plus_Grid_4.jpg,Purple_Circle_Stripes_1.jpg,left,622.6399999577552,true,high,false
kqfcvbVI,33cla8o0nlo9ukh858i8v1jgjoffrm,339ansotr9f94r4x7ykym66lndkikg,kqfcvbVI,2020-0188,2020-05-08,10:22:34,10:40:14,NA,incomplete,128,filling,0,left,Green_Plus_Dots_2.jpg,Red_Circle_Dots_3.jpg,Green_Triangle_Grid_4.jpg,left,593.5049999970943,true,high,false
kqfcvbVI,33cla8o0nlo9ukh858i8v1jgjoffrm,339ansotr9f94r4x7ykym66lndkikg,kqfcvbVI,2020-0188,2020-05-08,10:22:34,10:40:14,NA,incomplete,129,filling,1,left,Purple_Triangle_Chess_3.jpg,Green_Plus_Chess_1.jpg,Purple_Star_Stripes_4.jpg,left,718.0399999488145,true,high,false
kqfcvbVI,33cla8o0nlo9ukh858i8v1jgjoffrm,339ansotr9f94r4x7ykym66lndkikg,kqfcvbVI,2020-0188,2020-05-08,10:22:34,10:40:14,NA,incomplete,130,filling,1,right,Blue_Triangle_Stripes_4.jpg,Blue_Star_Dots_1.jpg,Red_Plus_Stripes_2.jpg,right,590.1249998714775,true,high,false
kqfcvbVI,33cla8o0nlo9ukh858i8v1jgjoffrm,339ansotr9f94r4x7ykym66lndkikg,kqfcvbVI,2020-0188,2020-05-08,10:22:34,10:40:14,NA,incomplete,131,filling,1,right,Purple_Circle_Dots_1.jpg,Purple_Triangle_Chess_4.jpg,Red_Star_Dots_2.jpg,right,810.3800001554191,true,high,false
kqfcvbVI,33cla8o0nlo9ukh858i8v1jgjoffrm,339ansotr9f94r4x7ykym66lndkikg,kqfcvbVI,2020-0188,2020-05-08,10:22:34,10:40:14,NA,incomplete,132,filling,1,right,Red_Star_Chess_2.jpg,Red_Circle_Grid_3.jpg,Blue_Triangle_Chess_4.jpg,right,733.9250000659376,true,high,false
kqfcvbVI,33cla8o0nlo9ukh858i8v1jgjoffrm,339ansotr9f94r4x7ykym66lndkikg,kqfcvbVI,2020-0188,2020-05-08,10:22:34,10:40:14,NA,incomplete,133,filling,1,right,Green_Circle_Chess_1.jpg,Green_Plus_Stripes_4.jpg,Blue_Triangle_Chess_3.jpg,right,557.8849997837096,true,high,false
kqfcvbVI,33cla8o0nlo9ukh858i8v1jgjoffrm,339ansotr9f94r4x7ykym66lndkikg,kqfcvbVI,2020-0188,2020-05-08,10:22:34,10:40:14,NA,incomplete,134,filling,1,right,Blue_Star_Chess_4.jpg,Blue_Triangle_Grid_2.jpg,Green_Plus_Chess_1.jpg,right,730.9450001921505,true,high,false
kqfcvbVI,33cla8o0nlo9ukh858i8v1jgjoffrm,339ansotr9f94r4x7ykym66lndkikg,kqfcvbVI,2020-0188,2020-05-08,10:22:34,10:40:14,NA,incomplete,135,filling,0,right,Red_Circle_Stripes_2.jpg,Red_Star_Chess_3.jpg,Purple_Triangle_Stripes_1.jpg,right,745.9850001614541,true,high,false
kqfcvbVI,33cla8o0nlo9ukh858i8v1jgjoffrm,339ansotr9f94r4x7ykym66lndkikg,kqfcvbVI,2020-0188,2020-05-08,10:22:34,10:40:14,NA,incomplete,136,filling,1,left,Purple_Triangle_Grid_1.jpg,Red_Circle_Grid_3.jpg,Purple_Plus_Dots_4.jpg,right,729.2649999726564,false,high,false
kqfcvbVI,33cla8o0nlo9ukh858i8v1jgjoffrm,339ansotr9f94r4x7ykym66lndkikg,kqfcvbVI,2020-0188,2020-05-08,10:22:34,10:40:14,NA,incomplete,137,filling,1,left,Green_Plus_Grid_2.jpg,Purple_Circle_Grid_4.jpg,Green_Star_Stripes_1.jpg,right,928.9049999788404,false,high,false
kqfcvbVI,33cla8o0nlo9ukh858i8v1jgjoffrm,339ansotr9f94r4x7ykym66lndkikg,kqfcvbVI,2020-0188,2020-05-08,10:22:34,10:40:14,NA,incomplete,138,filling,1,right,Green_Triangle_Stripes_1.jpg,Green_Plus_Dots_3.jpg,Purple_Circle_Stripes_4.jpg,right,927.1749998442829,true,high,false
kqfcvbVI,33cla8o0nlo9ukh858i8v1jgjoffrm,339ansotr9f94r4x7ykym66lndkikg,kqfcvbVI,2020-0188,2020-05-08,10:22:34,10:40:14,NA,incomplete,139,filling,1,right,Green_Circle_Stripes_1.jpg,Green_Triangle_Chess_4.jpg,Blue_Plus_Stripes_3.jpg,right,623.139999806881,true,high,false
kqfcvbVI,33cla8o0nlo9ukh858i8v1jgjoffrm,339ansotr9f94r4x7ykym66lndkikg,kqfcvbVI,2020-0188,2020-05-08,10:22:34,10:40:14,NA,incomplete,140,color,1,right,Green_Star_Chess_4.jpg,Red_Circle_Chess_3.jpg,Green_Plus_Grid_2.jpg,left,698.6350000370294,false,high,false
kqfcvbVI,33cla8o0nlo9ukh858i8v1jgjoffrm,339ansotr9f94r4x7ykym66lndkikg,kqfcvbVI,2020-0188,2020-05-08,10:22:34,10:40:14,NA,incomplete,141,color,0,left,Purple_Plus_Chess_1.jpg,Purple_Triangle_Stripes_3.jpg,Blue_Star_Chess_4.jpg,left,722.5950001738966,true,high,false
kqfcvbVI,33cla8o0nlo9ukh858i8v1jgjoffrm,339ansotr9f94r4x7ykym66lndkikg,kqfcvbVI,2020-0188,2020-05-08,10:22:34,10:40:14,NA,incomplete,142,color,1,left,Purple_Circle_Dots_2.jpg,Purple_Star_Grid_1.jpg,Blue_Plus_Dots_3.jpg,right,914.0550000593066,false,high,false
kqfcvbVI,33cla8o0nlo9ukh858i8v1jgjoffrm,339ansotr9f94r4x7ykym66lndkikg,kqfcvbVI,2020-0188,2020-05-08,10:22:34,10:40:14,NA,incomplete,143,color,1,left,Red_Circle_Dots_4.jpg,Red_Plus_Stripes_1.jpg,Blue_Triangle_Dots_2.jpg,left,698.4100001864135,true,high,false
kqfcvbVI,33cla8o0nlo9ukh858i8v1jgjoffrm,339ansotr9f94r4x7ykym66lndkikg,kqfcvbVI,2020-0188,2020-05-08,10:22:34,10:40:14,NA,incomplete,144,color,1,left,Blue_Triangle_Dots_3.jpg,Blue_Circle_Grid_4.jpg,Purple_Star_Dots_1.jpg,left,619.5149999111891,true,high,false
kqfcvbVI,33cla8o0nlo9ukh858i8v1jgjoffrm,339ansotr9f94r4x7ykym66lndkikg,kqfcvbVI,2020-0188,2020-05-08,10:22:34,10:40:14,NA,incomplete,145,color,1,left,Blue_Plus_Chess_3.jpg,Blue_Triangle_Grid_1.jpg,Purple_Star_Chess_4.jpg,left,484.5350000541657,true,high,false
kqfcvbVI,33cla8o0nlo9ukh858i8v1jgjoffrm,339ansotr9f94r4x7ykym66lndkikg,kqfcvbVI,2020-0188,2020-05-08,10:22:34,10:40:14,NA,incomplete,146,color,1,right,Blue_Star_Stripes_2.jpg,Green_Circle_Stripes_4.jpg,Blue_Plus_Grid_3.jpg,right,582.3400001972914,true,high,false
kqfcvbVI,33cla8o0nlo9ukh858i8v1jgjoffrm,339ansotr9f94r4x7ykym66lndkikg,kqfcvbVI,2020-0188,2020-05-08,10:22:34,10:40:14,NA,incomplete,147,color,1,right,Green_Star_Stripes_4.jpg,Purple_Circle_Stripes_3.jpg,Green_Plus_Dots_1.jpg,right,492.55000008270144,true,high,false
kqfcvbVI,33cla8o0nlo9ukh858i8v1jgjoffrm,339ansotr9f94r4x7ykym66lndkikg,kqfcvbVI,2020-0188,2020-05-08,10:22:34,10:40:14,NA,incomplete,148,color,1,left,Blue_Plus_Stripes_1.jpg,Blue_Circle_Dots_4.jpg,Red_Triangle_Stripes_2.jpg,left,445.1949999202043,true,high,false
kqfcvbVI,33cla8o0nlo9ukh858i8v1jgjoffrm,339ansotr9f94r4x7ykym66lndkikg,kqfcvbVI,2020-0188,2020-05-08,10:22:34,10:40:14,NA,incomplete,149,color,1,left,Purple_Plus_Dots_3.jpg,Purple_Circle_Grid_2.jpg,Red_Triangle_Dots_4.jpg,left,487.84500011242926,true,high,false
kqfcvbVI,33cla8o0nlo9ukh858i8v1jgjoffrm,339ansotr9f94r4x7ykym66lndkikg,kqfcvbVI,2020-0188,2020-05-08,10:22:34,10:40:14,NA,incomplete,150,color,1,left,Green_Circle_Chess_1.jpg,Green_Triangle_Dots_4.jpg,Purple_Star_Chess_2.jpg,left,504.7800000756979,true,high,false
kqfcvbVI,33cla8o0nlo9ukh858i8v1jgjoffrm,339ansotr9f94r4x7ykym66lndkikg,kqfcvbVI,2020-0188,2020-05-08,10:22:34,10:40:14,NA,incomplete,151,color,1,left,Blue_Circle_Chess_2.jpg,Blue_Triangle_Grid_4.jpg,Purple_Plus_Chess_1.jpg,left,480.2049999125302,true,high,false
kqfcvbVI,33cla8o0nlo9ukh858i8v1jgjoffrm,339ansotr9f94r4x7ykym66lndkikg,kqfcvbVI,2020-0188,2020-05-08,10:22:34,10:40:14,NA,incomplete,152,color,1,left,Purple_Circle_Chess_3.jpg,Purple_Star_Dots_2.jpg,Red_Triangle_Chess_4.jpg,left,512.9150000866503,true,high,false
kqfcvbVI,33cla8o0nlo9ukh858i8v1jgjoffrm,339ansotr9f94r4x7ykym66lndkikg,kqfcvbVI,2020-0188,2020-05-08,10:22:34,10:40:14,NA,incomplete,153,color,0,left,Red_Star_Grid_2.jpg,Red_Triangle_Stripes_3.jpg,Purple_Circle_Grid_4.jpg,left,521.4599999599159,true,high,false
kqfcvbVI,33cla8o0nlo9ukh858i8v1jgjoffrm,339ansotr9f94r4x7ykym66lndkikg,kqfcvbVI,2020-0188,2020-05-08,10:22:34,10:40:14,NA,incomplete,154,color,1,left,Blue_Circle_Stripes_3.jpg,Blue_Star_Chess_2.jpg,Purple_Plus_Stripes_1.jpg,left,448.77499993890524,true,high,false
kqfcvbVI,33cla8o0nlo9ukh858i8v1jgjoffrm,339ansotr9f94r4x7ykym66lndkikg,kqfcvbVI,2020-0188,2020-05-08,10:22:34,10:40:14,NA,incomplete,155,color,0,left,Purple_Triangle_Dots_2.jpg,Purple_Circle_Grid_4.jpg,Red_Plus_Dots_3.jpg,left,492.15000006370246,true,high,false
kqfcvbVI,33cla8o0nlo9ukh858i8v1jgjoffrm,339ansotr9f94r4x7ykym66lndkikg,kqfcvbVI,2020-0188,2020-05-08,10:22:34,10:40:14,NA,incomplete,156,color,1,right,Red_Circle_Grid_4.jpg,Purple_Star_Grid_1.jpg,Red_Plus_Chess_2.jpg,right,661.1150000244379,true,high,false
kqfcvbVI,33cla8o0nlo9ukh858i8v1jgjoffrm,339ansotr9f94r4x7ykym66lndkikg,kqfcvbVI,2020-0188,2020-05-08,10:22:34,10:40:14,NA,incomplete,157,color,1,right,Blue_Triangle_Dots_3.jpg,Purple_Star_Dots_1.jpg,Blue_Plus_Grid_2.jpg,right,542.8350002039224,true,high,false
kqfcvbVI,33cla8o0nlo9ukh858i8v1jgjoffrm,339ansotr9f94r4x7ykym66lndkikg,kqfcvbVI,2020-0188,2020-05-08,10:22:34,10:40:14,NA,incomplete,158,color,1,right,Green_Plus_Grid_4.jpg,Blue_Circle_Grid_3.jpg,Green_Star_Dots_1.jpg,right,524.619999807328,true,high,false
kqfcvbVI,33cla8o0nlo9ukh858i8v1jgjoffrm,339ansotr9f94r4x7ykym66lndkikg,kqfcvbVI,2020-0188,2020-05-08,10:22:34,10:40:14,NA,incomplete,159,color,1,left,Blue_Star_Stripes_1.jpg,Blue_Plus_Dots_4.jpg,Green_Triangle_Stripes_3.jpg,left,493.4249999932945,true,high,false
kqfcvbVI,33cla8o0nlo9ukh858i8v1jgjoffrm,339ansotr9f94r4x7ykym66lndkikg,kqfcvbVI,2020-0188,2020-05-08,10:22:34,10:40:14,NA,incomplete,160,filling,1,right,Green_Star_Dots_4.jpg,Green_Triangle_Chess_2.jpg,Blue_Plus_Dots_3.jpg,left,509.7899998072535,false,high,false
kqfcvbVI,33cla8o0nlo9ukh858i8v1jgjoffrm,339ansotr9f94r4x7ykym66lndkikg,kqfcvbVI,2020-0188,2020-05-08,10:22:34,10:40:14,NA,incomplete,161,filling,1,right,Red_Plus_Grid_2.jpg,Red_Circle_Stripes_4.jpg,Green_Triangle_Grid_3.jpg,left,476.9399999640882,false,high,false
kqfcvbVI,33cla8o0nlo9ukh858i8v1jgjoffrm,339ansotr9f94r4x7ykym66lndkikg,kqfcvbVI,2020-0188,2020-05-08,10:22:34,10:40:14,NA,incomplete,162,filling,1,right,Green_Plus_Dots_2.jpg,Green_Triangle_Stripes_4.jpg,Purple_Star_Dots_1.jpg,left,495.22499996237457,false,high,false
kqfcvbVI,33cla8o0nlo9ukh858i8v1jgjoffrm,339ansotr9f94r4x7ykym66lndkikg,kqfcvbVI,2020-0188,2020-05-08,10:22:34,10:40:14,NA,incomplete,163,filling,0,right,Green_Plus_Stripes_4.jpg,Green_Circle_Chess_1.jpg,Red_Triangle_Stripes_3.jpg,left,567.3099998384714,false,high,false
kqfcvbVI,33cla8o0nlo9ukh858i8v1jgjoffrm,339ansotr9f94r4x7ykym66lndkikg,kqfcvbVI,2020-0188,2020-05-08,10:22:34,10:40:14,NA,incomplete,164,filling,1,left,Green_Plus_Dots_3.jpg,Blue_Star_Dots_2.jpg,Green_Triangle_Grid_4.jpg,right,573.2750000897795,false,high,false
kqfcvbVI,33cla8o0nlo9ukh858i8v1jgjoffrm,339ansotr9f94r4x7ykym66lndkikg,kqfcvbVI,2020-0188,2020-05-08,10:22:34,10:40:14,NA,incomplete,165,filling,1,left,Red_Circle_Stripes_3.jpg,Green_Star_Stripes_4.jpg,Red_Triangle_Dots_2.jpg,right,473.99500012397766,false,high,false
kqfcvbVI,33cla8o0nlo9ukh858i8v1jgjoffrm,339ansotr9f94r4x7ykym66lndkikg,kqfcvbVI,2020-0188,2020-05-08,10:22:34,10:40:14,NA,incomplete,166,filling,1,left,Blue_Star_Dots_2.jpg,Red_Circle_Dots_4.jpg,Blue_Triangle_Grid_1.jpg,left,875.9099999442697,true,high,false
kqfcvbVI,33cla8o0nlo9ukh858i8v1jgjoffrm,339ansotr9f94r4x7ykym66lndkikg,kqfcvbVI,2020-0188,2020-05-08,10:22:34,10:40:14,NA,incomplete,167,filling,1,left,Blue_Star_Stripes_2.jpg,Purple_Triangle_Stripes_1.jpg,Blue_Circle_Dots_4.jpg,left,668.8399999402463,true,high,false
kqfcvbVI,33cla8o0nlo9ukh858i8v1jgjoffrm,339ansotr9f94r4x7ykym66lndkikg,kqfcvbVI,2020-0188,2020-05-08,10:22:34,10:40:14,NA,incomplete,168,filling,0,left,Blue_Plus_Chess_3.jpg,Red_Circle_Chess_4.jpg,Blue_Triangle_Grid_2.jpg,left,637.4649999197572,true,high,false
kqfcvbVI,33cla8o0nlo9ukh858i8v1jgjoffrm,339ansotr9f94r4x7ykym66lndkikg,kqfcvbVI,2020-0188,2020-05-08,10:22:34,10:40:14,NA,incomplete,169,filling,1,right,Green_Plus_Chess_3.jpg,Green_Star_Stripes_1.jpg,Blue_Circle_Chess_4.jpg,right,576.8099999986589,true,high,false
kqfcvbVI,33cla8o0nlo9ukh858i8v1jgjoffrm,339ansotr9f94r4x7ykym66lndkikg,kqfcvbVI,2020-0188,2020-05-08,10:22:34,10:40:14,NA,incomplete,170,filling,1,right,Blue_Circle_Stripes_3.jpg,Blue_Triangle_Chess_4.jpg,Purple_Star_Stripes_1.jpg,right,606.2049998436123,true,high,false
kqfcvbVI,33cla8o0nlo9ukh858i8v1jgjoffrm,339ansotr9f94r4x7ykym66lndkikg,kqfcvbVI,2020-0188,2020-05-08,10:22:34,10:40:14,NA,incomplete,171,filling,1,left,Red_Plus_Grid_3.jpg,Green_Star_Grid_1.jpg,Red_Triangle_Chess_2.jpg,left,592.9000000469387,true,high,false
kqfcvbVI,33cla8o0nlo9ukh858i8v1jgjoffrm,339ansotr9f94r4x7ykym66lndkikg,kqfcvbVI,2020-0188,2020-05-08,10:22:34,10:40:14,NA,incomplete,172,filling,1,left,Blue_Plus_Chess_1.jpg,Purple_Star_Chess_3.jpg,Blue_Circle_Grid_2.jpg,left,592.2850000206381,true,high,false
kqfcvbVI,33cla8o0nlo9ukh858i8v1jgjoffrm,339ansotr9f94r4x7ykym66lndkikg,kqfcvbVI,2020-0188,2020-05-08,10:22:34,10:40:14,NA,incomplete,173,filling,0,right,Purple_Plus_Stripes_3.jpg,Purple_Circle_Dots_2.jpg,Red_Triangle_Stripes_4.jpg,right,633.6399998981506,true,high,false
kqfcvbVI,33cla8o0nlo9ukh858i8v1jgjoffrm,339ansotr9f94r4x7ykym66lndkikg,kqfcvbVI,2020-0188,2020-05-08,10:22:34,10:40:14,NA,incomplete,174,filling,1,left,Green_Triangle_Chess_2.jpg,Blue_Plus_Chess_4.jpg,Green_Circle_Grid_1.jpg,left,621.2800000794232,true,high,false
kqfcvbVI,33cla8o0nlo9ukh858i8v1jgjoffrm,339ansotr9f94r4x7ykym66lndkikg,kqfcvbVI,2020-0188,2020-05-08,10:22:34,10:40:14,NA,incomplete,175,filling,0,right,Red_Triangle_Grid_2.jpg,Red_Star_Chess_4.jpg,Green_Circle_Grid_1.jpg,right,537.11499995552,true,high,false
kqfcvbVI,33cla8o0nlo9ukh858i8v1jgjoffrm,339ansotr9f94r4x7ykym66lndkikg,kqfcvbVI,2020-0188,2020-05-08,10:22:34,10:40:14,NA,incomplete,176,filling,1,right,Red_Star_Grid_3.jpg,Red_Circle_Dots_1.jpg,Purple_Triangle_Grid_4.jpg,right,615.734999999404,true,high,false
kqfcvbVI,33cla8o0nlo9ukh858i8v1jgjoffrm,339ansotr9f94r4x7ykym66lndkikg,kqfcvbVI,2020-0188,2020-05-08,10:22:34,10:40:14,NA,incomplete,177,filling,1,right,Red_Plus_Grid_4.jpg,Red_Triangle_Stripes_3.jpg,Green_Star_Grid_1.jpg,right,524.6150000020862,true,high,false
kqfcvbVI,33cla8o0nlo9ukh858i8v1jgjoffrm,339ansotr9f94r4x7ykym66lndkikg,kqfcvbVI,2020-0188,2020-05-08,10:22:34,10:40:14,NA,incomplete,178,filling,1,right,Green_Triangle_Grid_2.jpg,Green_Plus_Dots_4.jpg,Blue_Circle_Grid_1.jpg,right,555.3199998103082,true,high,false
kqfcvbVI,33cla8o0nlo9ukh858i8v1jgjoffrm,339ansotr9f94r4x7ykym66lndkikg,kqfcvbVI,2020-0188,2020-05-08,10:22:34,10:40:14,NA,incomplete,179,filling,1,right,Red_Star_Dots_4.jpg,Red_Circle_Grid_1.jpg,Blue_Triangle_Dots_2.jpg,right,577.7799999341369,true,high,false
kqfcvbVI,33cla8o0nlo9ukh858i8v1jgjoffrm,339ansotr9f94r4x7ykym66lndkikg,kqfcvbVI,2020-0188,2020-05-08,10:22:34,10:40:14,NA,incomplete,180,color,1,left,Blue_Plus_Dots_3.jpg,Blue_Circle_Grid_1.jpg,Red_Triangle_Dots_4.jpg,right,550.1349999103695,false,high,false
kqfcvbVI,33cla8o0nlo9ukh858i8v1jgjoffrm,339ansotr9f94r4x7ykym66lndkikg,kqfcvbVI,2020-0188,2020-05-08,10:22:34,10:40:14,NA,incomplete,181,color,1,right,Red_Triangle_Stripes_4.jpg,Green_Circle_Stripes_2.jpg,Red_Star_Chess_1.jpg,left,693.2699999306351,false,high,false
kqfcvbVI,33cla8o0nlo9ukh858i8v1jgjoffrm,339ansotr9f94r4x7ykym66lndkikg,kqfcvbVI,2020-0188,2020-05-08,10:22:34,10:40:14,NA,incomplete,182,color,0,left,Red_Triangle_Stripes_4.jpg,Red_Circle_Grid_3.jpg,Blue_Plus_Stripes_1.jpg,left,590.3449999168515,true,high,false
kqfcvbVI,33cla8o0nlo9ukh858i8v1jgjoffrm,339ansotr9f94r4x7ykym66lndkikg,kqfcvbVI,2020-0188,2020-05-08,10:22:34,10:40:14,NA,incomplete,183,color,1,left,Blue_Plus_Grid_3.jpg,Blue_Circle_Chess_2.jpg,Purple_Triangle_Grid_1.jpg,left,601.2450000271201,true,high,false
kqfcvbVI,33cla8o0nlo9ukh858i8v1jgjoffrm,339ansotr9f94r4x7ykym66lndkikg,kqfcvbVI,2020-0188,2020-05-08,10:22:34,10:40:14,NA,incomplete,184,color,1,right,Blue_Plus_Dots_1.jpg,Green_Triangle_Dots_2.jpg,Blue_Circle_Grid_4.jpg,right,629.9799999687821,true,high,false
kqfcvbVI,33cla8o0nlo9ukh858i8v1jgjoffrm,339ansotr9f94r4x7ykym66lndkikg,kqfcvbVI,2020-0188,2020-05-08,10:22:34,10:40:14,NA,incomplete,185,color,0,left,Purple_Star_Dots_3.jpg,Purple_Triangle_Chess_4.jpg,Green_Circle_Dots_2.jpg,left,474.38999987207353,true,high,false
kqfcvbVI,33cla8o0nlo9ukh858i8v1jgjoffrm,339ansotr9f94r4x7ykym66lndkikg,kqfcvbVI,2020-0188,2020-05-08,10:22:34,10:40:14,NA,incomplete,186,color,1,right,Green_Triangle_Dots_2.jpg,Red_Star_Dots_4.jpg,Green_Circle_Stripes_1.jpg,right,603.194999974221,true,high,false
kqfcvbVI,33cla8o0nlo9ukh858i8v1jgjoffrm,339ansotr9f94r4x7ykym66lndkikg,kqfcvbVI,2020-0188,2020-05-08,10:22:34,10:40:14,NA,incomplete,187,color,1,right,Blue_Triangle_Chess_2.jpg,Green_Plus_Chess_4.jpg,Blue_Circle_Dots_1.jpg,right,599.5499999262393,true,high,false
kqfcvbVI,33cla8o0nlo9ukh858i8v1jgjoffrm,339ansotr9f94r4x7ykym66lndkikg,kqfcvbVI,2020-0188,2020-05-08,10:22:34,10:40:14,NA,incomplete,188,color,1,left,Red_Circle_Grid_2.jpg,Red_Plus_Stripes_1.jpg,Green_Triangle_Grid_3.jpg,left,539.1450000461191,true,high,false
kqfcvbVI,33cla8o0nlo9ukh858i8v1jgjoffrm,339ansotr9f94r4x7ykym66lndkikg,kqfcvbVI,2020-0188,2020-05-08,10:22:34,10:40:14,NA,incomplete,189,color,1,left,Purple_Triangle_Chess_3.jpg,Purple_Circle_Dots_4.jpg,Red_Star_Chess_2.jpg,left,490.300000179559,true,high,false
kqfcvbVI,33cla8o0nlo9ukh858i8v1jgjoffrm,339ansotr9f94r4x7ykym66lndkikg,kqfcvbVI,2020-0188,2020-05-08,10:22:34,10:40:14,NA,incomplete,190,color,0,right,Blue_Triangle_Stripes_4.jpg,Green_Circle_Stripes_3.jpg,Blue_Star_Grid_2.jpg,right,466.5849998127669,true,high,false
kqfcvbVI,33cla8o0nlo9ukh858i8v1jgjoffrm,339ansotr9f94r4x7ykym66lndkikg,kqfcvbVI,2020-0188,2020-05-08,10:22:34,10:40:14,NA,incomplete,191,color,1,left,Red_Triangle_Chess_4.jpg,Red_Star_Grid_3.jpg,Blue_Circle_Chess_1.jpg,left,468.36999990046024,true,high,false
kqfcvbVI,33cla8o0nlo9ukh858i8v1jgjoffrm,339ansotr9f94r4x7ykym66lndkikg,kqfcvbVI,2020-0188,2020-05-08,10:22:34,10:40:14,NA,incomplete,192,color,0,right,Green_Triangle_Stripes_1.jpg,Red_Circle_Stripes_4.jpg,Green_Plus_Chess_2.jpg,right,501.3800000306219,true,high,false
kqfcvbVI,33cla8o0nlo9ukh858i8v1jgjoffrm,339ansotr9f94r4x7ykym66lndkikg,kqfcvbVI,2020-0188,2020-05-08,10:22:34,10:40:14,NA,incomplete,193,color,1,left,Blue_Star_Dots_2.jpg,Blue_Triangle_Chess_1.jpg,Purple_Circle_Dots_3.jpg,left,470.7750000525266,true,high,false
kqfcvbVI,33cla8o0nlo9ukh858i8v1jgjoffrm,339ansotr9f94r4x7ykym66lndkikg,kqfcvbVI,2020-0188,2020-05-08,10:22:34,10:40:14,NA,incomplete,194,color,1,left,Green_Triangle_Chess_4.jpg,Green_Star_Stripes_1.jpg,Red_Circle_Chess_3.jpg,left,424.2599999997765,true,high,false
kqfcvbVI,33cla8o0nlo9ukh858i8v1jgjoffrm,339ansotr9f94r4x7ykym66lndkikg,kqfcvbVI,2020-0188,2020-05-08,10:22:34,10:40:14,NA,incomplete,195,color,1,left,Red_Plus_Chess_1.jpg,Red_Star_Stripes_4.jpg,Green_Triangle_Chess_2.jpg,left,522.6450001355261,true,high,false
kqfcvbVI,33cla8o0nlo9ukh858i8v1jgjoffrm,339ansotr9f94r4x7ykym66lndkikg,kqfcvbVI,2020-0188,2020-05-08,10:22:34,10:40:14,NA,incomplete,196,color,0,left,Blue_Star_Stripes_3.jpg,Blue_Triangle_Chess_1.jpg,Purple_Plus_Stripes_2.jpg,left,490.5149999540299,true,high,false
kqfcvbVI,33cla8o0nlo9ukh858i8v1jgjoffrm,339ansotr9f94r4x7ykym66lndkikg,kqfcvbVI,2020-0188,2020-05-08,10:22:34,10:40:14,NA,incomplete,197,color,1,left,Blue_Plus_Dots_2.jpg,Blue_Circle_Grid_4.jpg,Green_Triangle_Dots_1.jpg,left,650.7350001484156,true,high,false
kqfcvbVI,33cla8o0nlo9ukh858i8v1jgjoffrm,339ansotr9f94r4x7ykym66lndkikg,kqfcvbVI,2020-0188,2020-05-08,10:22:34,10:40:14,NA,incomplete,198,color,0,left,Blue_Star_Dots_4.jpg,Blue_Plus_Grid_3.jpg,Green_Circle_Dots_2.jpg,left,412.914999993518,true,high,false
kqfcvbVI,33cla8o0nlo9ukh858i8v1jgjoffrm,339ansotr9f94r4x7ykym66lndkikg,kqfcvbVI,2020-0188,2020-05-08,10:22:34,10:40:14,NA,incomplete,199,color,1,left,Blue_Plus_Dots_4.jpg,Blue_Star_Grid_3.jpg,Purple_Triangle_Dots_1.jpg,left,401.8399999476969,true,high,false
kqfcvbVI,33cla8o0nlo9ukh858i8v1jgjoffrm,339ansotr9f94r4x7ykym66lndkikg,kqfcvbVI,2020-0188,2020-05-08,10:22:34,10:40:14,NA,incomplete,200,filling,1,left,Purple_Circle_Chess_3.jpg,Red_Plus_Chess_4.jpg,Purple_Triangle_Dots_1.jpg,right,573.4349999111146,false,high,false
kqfcvbVI,33cla8o0nlo9ukh858i8v1jgjoffrm,339ansotr9f94r4x7ykym66lndkikg,kqfcvbVI,2020-0188,2020-05-08,10:22:34,10:40:14,NA,incomplete,201,filling,1,left,Purple_Plus_Grid_4.jpg,Red_Triangle_Grid_1.jpg,Purple_Star_Chess_2.jpg,right,466.47500013932586,false,high,false
kqfcvbVI,33cla8o0nlo9ukh858i8v1jgjoffrm,339ansotr9f94r4x7ykym66lndkikg,kqfcvbVI,2020-0188,2020-05-08,10:22:34,10:40:14,NA,incomplete,202,filling,1,left,Purple_Plus_Grid_2.jpg,Red_Circle_Grid_4.jpg,Purple_Triangle_Dots_1.jpg,left,908.0300000496209,true,high,false
kqfcvbVI,33cla8o0nlo9ukh858i8v1jgjoffrm,339ansotr9f94r4x7ykym66lndkikg,kqfcvbVI,2020-0188,2020-05-08,10:22:34,10:40:14,NA,incomplete,203,filling,1,left,Blue_Star_Chess_2.jpg,Green_Plus_Chess_1.jpg,Blue_Circle_Dots_3.jpg,left,596.9849999528378,true,high,false
kqfcvbVI,33cla8o0nlo9ukh858i8v1jgjoffrm,339ansotr9f94r4x7ykym66lndkikg,kqfcvbVI,2020-0188,2020-05-08,10:22:34,10:40:14,NA,incomplete,204,filling,0,left,Red_Triangle_Chess_4.jpg,Purple_Star_Chess_1.jpg,Red_Circle_Stripes_2.jpg,left,745.2249999623746,true,high,false
kqfcvbVI,33cla8o0nlo9ukh858i8v1jgjoffrm,339ansotr9f94r4x7ykym66lndkikg,kqfcvbVI,2020-0188,2020-05-08,10:22:34,10:40:14,NA,incomplete,205,filling,1,left,Blue_Plus_Dots_1.jpg,Red_Circle_Dots_3.jpg,Blue_Triangle_Chess_4.jpg,left,759.5199998468161,true,high,false
kqfcvbVI,33cla8o0nlo9ukh858i8v1jgjoffrm,339ansotr9f94r4x7ykym66lndkikg,kqfcvbVI,2020-0188,2020-05-08,10:22:34,10:40:14,NA,incomplete,206,filling,1,right,Blue_Triangle_Dots_1.jpg,Blue_Circle_Stripes_3.jpg,Purple_Plus_Dots_2.jpg,right,621.7650000471622,true,high,false
kqfcvbVI,33cla8o0nlo9ukh858i8v1jgjoffrm,339ansotr9f94r4x7ykym66lndkikg,kqfcvbVI,2020-0188,2020-05-08,10:22:34,10:40:14,NA,incomplete,207,filling,1,left,Red_Triangle_Chess_1.jpg,Green_Star_Chess_2.jpg,Red_Circle_Grid_4.jpg,left,584.400000050664,true,high,false
kqfcvbVI,33cla8o0nlo9ukh858i8v1jgjoffrm,339ansotr9f94r4x7ykym66lndkikg,kqfcvbVI,2020-0188,2020-05-08,10:22:34,10:40:14,NA,incomplete,208,filling,1,right,Purple_Plus_Grid_4.jpg,Purple_Circle_Chess_1.jpg,Red_Star_Grid_3.jpg,right,637.9050000105053,true,high,false
kqfcvbVI,33cla8o0nlo9ukh858i8v1jgjoffrm,339ansotr9f94r4x7ykym66lndkikg,kqfcvbVI,2020-0188,2020-05-08,10:22:34,10:40:14,NA,incomplete,209,filling,0,right,Green_Circle_Chess_1.jpg,Green_Plus_Stripes_4.jpg,Purple_Triangle_Chess_3.jpg,right,761.0599999316037,true,high,false
kqfcvbVI,33cla8o0nlo9ukh858i8v1jgjoffrm,339ansotr9f94r4x7ykym66lndkikg,kqfcvbVI,2020-0188,2020-05-08,10:22:34,10:40:14,NA,incomplete,210,filling,1,right,Blue_Triangle_Dots_2.jpg,Blue_Plus_Stripes_4.jpg,Red_Circle_Dots_1.jpg,right,710.0150000769645,true,high,false
kqfcvbVI,33cla8o0nlo9ukh858i8v1jgjoffrm,339ansotr9f94r4x7ykym66lndkikg,kqfcvbVI,2020-0188,2020-05-08,10:22:34,10:40:14,NA,incomplete,211,filling,1,right,Purple_Plus_Grid_1.jpg,Purple_Star_Chess_4.jpg,Green_Triangle_Grid_3.jpg,right,631.3300000037998,true,high,false
kqfcvbVI,33cla8o0nlo9ukh858i8v1jgjoffrm,339ansotr9f94r4x7ykym66lndkikg,kqfcvbVI,2020-0188,2020-05-08,10:22:34,10:40:14,NA,incomplete,212,filling,1,left,Green_Circle_Grid_2.jpg,Blue_Triangle_Grid_3.jpg,Green_Plus_Stripes_4.jpg,left,537.5349998939782,true,high,false
kqfcvbVI,33cla8o0nlo9ukh858i8v1jgjoffrm,339ansotr9f94r4x7ykym66lndkikg,kqfcvbVI,2020-0188,2020-05-08,10:22:34,10:40:14,NA,incomplete,213,filling,1,right,Green_Star_Chess_2.jpg,Green_Triangle_Stripes_3.jpg,Purple_Circle_Chess_1.jpg,right,519.6850001811981,true,high,false
kqfcvbVI,33cla8o0nlo9ukh858i8v1jgjoffrm,339ansotr9f94r4x7ykym66lndkikg,kqfcvbVI,2020-0188,2020-05-08,10:22:34,10:40:14,NA,incomplete,214,filling,0,left,Green_Triangle_Stripes_1.jpg,Red_Star_Stripes_2.jpg,Green_Plus_Dots_4.jpg,left,593.0749999824911,true,high,false
kqfcvbVI,33cla8o0nlo9ukh858i8v1jgjoffrm,339ansotr9f94r4x7ykym66lndkikg,kqfcvbVI,2020-0188,2020-05-08,10:22:34,10:40:14,NA,incomplete,215,filling,1,left,Red_Triangle_Chess_1.jpg,Blue_Circle_Chess_4.jpg,Red_Plus_Grid_2.jpg,left,756.569999968633,true,high,false
kqfcvbVI,33cla8o0nlo9ukh858i8v1jgjoffrm,339ansotr9f94r4x7ykym66lndkikg,kqfcvbVI,2020-0188,2020-05-08,10:22:34,10:40:14,NA,incomplete,216,filling,1,right,Red_Circle_Dots_3.jpg,Red_Plus_Chess_1.jpg,Green_Triangle_Dots_4.jpg,right,609.995000064373,true,high,false
kqfcvbVI,33cla8o0nlo9ukh858i8v1jgjoffrm,339ansotr9f94r4x7ykym66lndkikg,kqfcvbVI,2020-0188,2020-05-08,10:22:34,10:40:14,NA,incomplete,217,filling,1,left,Purple_Plus_Grid_4.jpg,Red_Circle_Grid_1.jpg,Purple_Star_Stripes_2.jpg,left,598.5749999526888,true,high,false
kqfcvbVI,33cla8o0nlo9ukh858i8v1jgjoffrm,339ansotr9f94r4x7ykym66lndkikg,kqfcvbVI,2020-0188,2020-05-08,10:22:34,10:40:14,NA,incomplete,218,filling,0,right,Green_Triangle_Grid_4.jpg,Green_Plus_Stripes_3.jpg,Red_Star_Grid_2.jpg,right,546.6800001449883,true,high,false
kqfcvbVI,33cla8o0nlo9ukh858i8v1jgjoffrm,339ansotr9f94r4x7ykym66lndkikg,kqfcvbVI,2020-0188,2020-05-08,10:22:34,10:40:14,NA,incomplete,219,filling,1,right,Blue_Star_Stripes_4.jpg,Blue_Circle_Dots_2.jpg,Red_Triangle_Stripes_1.jpg,right,753.8199999835342,true,high,false
kqfcvbVI,33cla8o0nlo9ukh858i8v1jgjoffrm,339ansotr9f94r4x7ykym66lndkikg,kqfcvbVI,2020-0188,2020-05-08,10:22:34,10:40:14,NA,incomplete,220,color,1,left,Blue_Plus_Chess_2.jpg,Blue_Star_Grid_4.jpg,Red_Circle_Chess_1.jpg,right,679.8849999904633,false,high,false
kqfcvbVI,33cla8o0nlo9ukh858i8v1jgjoffrm,339ansotr9f94r4x7ykym66lndkikg,kqfcvbVI,2020-0188,2020-05-08,10:22:34,10:40:14,NA,incomplete,221,color,1,right,Purple_Star_Chess_1.jpg,Green_Plus_Chess_4.jpg,Purple_Circle_Grid_2.jpg,left,577.1250000689179,false,high,false
kqfcvbVI,33cla8o0nlo9ukh858i8v1jgjoffrm,339ansotr9f94r4x7ykym66lndkikg,kqfcvbVI,2020-0188,2020-05-08,10:22:34,10:40:14,NA,incomplete,222,color,1,right,Blue_Triangle_Grid_4.jpg,Purple_Star_Grid_2.jpg,Blue_Plus_Chess_1.jpg,left,783.1749999895692,false,high,false
kqfcvbVI,33cla8o0nlo9ukh858i8v1jgjoffrm,339ansotr9f94r4x7ykym66lndkikg,kqfcvbVI,2020-0188,2020-05-08,10:22:34,10:40:14,NA,incomplete,223,color,1,left,Green_Circle_Chess_3.jpg,Green_Star_Stripes_1.jpg,Purple_Plus_Chess_2.jpg,left,548.0849999003112,true,high,false
kqfcvbVI,33cla8o0nlo9ukh858i8v1jgjoffrm,339ansotr9f94r4x7ykym66lndkikg,kqfcvbVI,2020-0188,2020-05-08,10:22:34,10:40:14,NA,incomplete,224,color,1,left,Red_Plus_Dots_3.jpg,Red_Triangle_Chess_4.jpg,Green_Star_Dots_1.jpg,left,514.5300000440329,true,high,false
kqfcvbVI,33cla8o0nlo9ukh858i8v1jgjoffrm,339ansotr9f94r4x7ykym66lndkikg,kqfcvbVI,2020-0188,2020-05-08,10:22:34,10:40:14,NA,incomplete,225,color,1,right,Red_Circle_Grid_4.jpg,Purple_Star_Grid_1.jpg,Red_Triangle_Chess_2.jpg,right,666.9850000180304,true,high,false
kqfcvbVI,33cla8o0nlo9ukh858i8v1jgjoffrm,339ansotr9f94r4x7ykym66lndkikg,kqfcvbVI,2020-0188,2020-05-08,10:22:34,10:40:14,NA,incomplete,226,color,0,left,Green_Star_Stripes_1.jpg,Green_Circle_Grid_2.jpg,Blue_Triangle_Stripes_3.jpg,left,476.55000002123415,true,high,false
kqfcvbVI,33cla8o0nlo9ukh858i8v1jgjoffrm,339ansotr9f94r4x7ykym66lndkikg,kqfcvbVI,2020-0188,2020-05-08,10:22:34,10:40:14,NA,incomplete,227,color,1,right,Purple_Triangle_Chess_2.jpg,Red_Star_Chess_4.jpg,Purple_Circle_Stripes_1.jpg,right,581.9099999498576,true,high,false
kqfcvbVI,33cla8o0nlo9ukh858i8v1jgjoffrm,339ansotr9f94r4x7ykym66lndkikg,kqfcvbVI,2020-0188,2020-05-08,10:22:34,10:40:14,NA,incomplete,228,color,1,left,Purple_Triangle_Dots_3.jpg,Purple_Circle_Chess_2.jpg,Red_Star_Dots_4.jpg,left,466.84499992989004,true,high,false
kqfcvbVI,33cla8o0nlo9ukh858i8v1jgjoffrm,339ansotr9f94r4x7ykym66lndkikg,kqfcvbVI,2020-0188,2020-05-08,10:22:34,10:40:14,NA,incomplete,229,color,1,right,Red_Triangle_Chess_3.jpg,Blue_Star_Chess_4.jpg,Red_Plus_Stripes_1.jpg,right,509.4899998512119,true,high,false
kqfcvbVI,33cla8o0nlo9ukh858i8v1jgjoffrm,339ansotr9f94r4x7ykym66lndkikg,kqfcvbVI,2020-0188,2020-05-08,10:22:34,10:40:14,NA,incomplete,230,color,1,left,Purple_Star_Chess_2.jpg,Purple_Plus_Dots_3.jpg,Red_Triangle_Chess_1.jpg,left,500.63999998383224,true,high,false
kqfcvbVI,33cla8o0nlo9ukh858i8v1jgjoffrm,339ansotr9f94r4x7ykym66lndkikg,kqfcvbVI,2020-0188,2020-05-08,10:22:34,10:40:14,NA,incomplete,231,color,0,right,Red_Star_Chess_1.jpg,Blue_Circle_Chess_2.jpg,Red_Plus_Grid_4.jpg,right,476.7899999860674,true,high,false
kqfcvbVI,33cla8o0nlo9ukh858i8v1jgjoffrm,339ansotr9f94r4x7ykym66lndkikg,kqfcvbVI,2020-0188,2020-05-08,10:22:34,10:40:14,NA,incomplete,232,color,1,left,Red_Triangle_Stripes_3.jpg,Red_Circle_Dots_1.jpg,Green_Plus_Stripes_2.jpg,left,526.2549999170005,true,high,false
kqfcvbVI,33cla8o0nlo9ukh858i8v1jgjoffrm,339ansotr9f94r4x7ykym66lndkikg,kqfcvbVI,2020-0188,2020-05-08,10:22:34,10:40:14,NA,incomplete,233,color,1,right,Red_Plus_Dots_3.jpg,Blue_Triangle_Dots_2.jpg,Red_Star_Stripes_4.jpg,right,484.98000018298626,true,high,false
kqfcvbVI,33cla8o0nlo9ukh858i8v1jgjoffrm,339ansotr9f94r4x7ykym66lndkikg,kqfcvbVI,2020-0188,2020-05-08,10:22:34,10:40:14,NA,incomplete,234,color,0,left,Green_Plus_Dots_2.jpg,Green_Circle_Grid_4.jpg,Blue_Star_Dots_3.jpg,left,462.25500013679266,true,high,false
kqfcvbVI,33cla8o0nlo9ukh858i8v1jgjoffrm,339ansotr9f94r4x7ykym66lndkikg,kqfcvbVI,2020-0188,2020-05-08,10:22:34,10:40:14,NA,incomplete,235,color,1,right,Blue_Star_Dots_3.jpg,Purple_Plus_Dots_2.jpg,Blue_Circle_Grid_4.jpg,right,496.43500009551644,true,high,false
kqfcvbVI,33cla8o0nlo9ukh858i8v1jgjoffrm,339ansotr9f94r4x7ykym66lndkikg,kqfcvbVI,2020-0188,2020-05-08,10:22:34,10:40:14,NA,incomplete,236,color,1,right,Purple_Star_Stripes_3.jpg,Red_Circle_Stripes_1.jpg,Purple_Plus_Chess_2.jpg,right,448.9400000311434,true,high,false
kqfcvbVI,33cla8o0nlo9ukh858i8v1jgjoffrm,339ansotr9f94r4x7ykym66lndkikg,kqfcvbVI,2020-0188,2020-05-08,10:22:34,10:40:14,NA,incomplete,237,color,1,right,Purple_Circle_Chess_4.jpg,Blue_Plus_Chess_3.jpg,Purple_Star_Dots_2.jpg,right,555.2250000182539,true,high,false
kqfcvbVI,33cla8o0nlo9ukh858i8v1jgjoffrm,339ansotr9f94r4x7ykym66lndkikg,kqfcvbVI,2020-0188,2020-05-08,10:22:34,10:40:14,NA,incomplete,238,color,1,left,Blue_Star_Chess_3.jpg,Blue_Circle_Stripes_4.jpg,Red_Triangle_Chess_1.jpg,left,465.5850001145154,true,high,false
kqfcvbVI,33cla8o0nlo9ukh858i8v1jgjoffrm,339ansotr9f94r4x7ykym66lndkikg,kqfcvbVI,2020-0188,2020-05-08,10:22:34,10:40:14,NA,incomplete,239,color,1,right,Red_Plus_Grid_4.jpg,Blue_Triangle_Grid_1.jpg,Red_Circle_Dots_3.jpg,right,514.784999890253,true,high,false
kqfcvbVI,33cla8o0nlo9ukh858i8v1jgjoffrm,339ansotr9f94r4x7ykym66lndkikg,kqfcvbVI,2020-0188,2020-05-08,10:22:34,10:40:14,1026091.7350000236,1060692.1100001782,NA,NA,NA,NA,NA,NA,NA,NA,NA,NA,NA,undefined
