workerId,hitId,assignmentId,subject,studyid,exp_date,exp_start,exp_end,time_start,time_end,trial,type,reward_validity,answer,image_top,image_left,image_right,response,response_time,response_acc,volatility,practice
wj1SVUSc,3b6f54kms5pu5knddy3sw9ki4gws13,34hjijklp99tcvzuldw1ue7jypav4c,wj1SVUSc,2020-0188,2020-05-07,20:01:03,20:18:23,NA,incomplete,0,filling,1,left,Purple_Circle_Stripes_4.jpg,Green_Plus_Stripes_1.jpg,Blue_Circle_Grid_2.jpg,left,1399,true,NA,true
wj1SVUSc,3b6f54kms5pu5knddy3sw9ki4gws13,34hjijklp99tcvzuldw1ue7jypav4c,wj1SVUSc,2020-0188,2020-05-07,20:01:03,20:18:23,NA,incomplete,1,filling,1,right,Blue_Circle_Dots_1.jpg,Green_Circle_Chess_2.jpg,Purple_Star_Dots_3.jpg,right,1251,true,NA,true
wj1SVUSc,3b6f54kms5pu5knddy3sw9ki4gws13,34hjijklp99tcvzuldw1ue7jypav4c,wj1SVUSc,2020-0188,2020-05-07,20:01:03,20:18:23,NA,incomplete,2,filling,1,right,Red_Star_Stripes_4.jpg,Purple_Star_Chess_3.jpg,Green_Circle_Stripes_2.jpg,left,1696,false,NA,true
wj1SVUSc,3b6f54kms5pu5knddy3sw9ki4gws13,34hjijklp99tcvzuldw1ue7jypav4c,wj1SVUSc,2020-0188,2020-05-07,20:01:03,20:18:23,NA,incomplete,3,filling,0,left,Purple_Triangle_Chess_4.jpg,Red_Plus_Chess_3.jpg,Green_Triangle_Dots_2.jpg,left,1562,true,NA,true
wj1SVUSc,3b6f54kms5pu5knddy3sw9ki4gws13,34hjijklp99tcvzuldw1ue7jypav4c,wj1SVUSc,2020-0188,2020-05-07,20:01:03,20:18:23,NA,incomplete,4,filling,1,right,Green_Plus_Stripes_3.jpg,Blue_Plus_Grid_1.jpg,Purple_Circle_Stripes_2.jpg,right,1512,true,NA,true
wj1SVUSc,3b6f54kms5pu5knddy3sw9ki4gws13,34hjijklp99tcvzuldw1ue7jypav4c,wj1SVUSc,2020-0188,2020-05-07,20:01:03,20:18:23,NA,incomplete,5,filling,1,left,Red_Triangle_Stripes_4.jpg,Blue_Circle_Stripes_1.jpg,Green_Triangle_Dots_3.jpg,left,1381,true,NA,true
wj1SVUSc,3b6f54kms5pu5knddy3sw9ki4gws13,34hjijklp99tcvzuldw1ue7jypav4c,wj1SVUSc,2020-0188,2020-05-07,20:01:03,20:18:23,NA,incomplete,6,filling,0,left,Purple_Triangle_Chess_3.jpg,Blue_Circle_Chess_4.jpg,Red_Triangle_Dots_2.jpg,left,1198,true,NA,true
wj1SVUSc,3b6f54kms5pu5knddy3sw9ki4gws13,34hjijklp99tcvzuldw1ue7jypav4c,wj1SVUSc,2020-0188,2020-05-07,20:01:03,20:18:23,NA,incomplete,7,filling,1,right,Blue_Star_Stripes_4.jpg,Purple_Star_Dots_3.jpg,Red_Plus_Stripes_2.jpg,right,1655,true,NA,true
wj1SVUSc,3b6f54kms5pu5knddy3sw9ki4gws13,34hjijklp99tcvzuldw1ue7jypav4c,wj1SVUSc,2020-0188,2020-05-07,20:01:03,20:18:23,NA,incomplete,8,filling,0,right,Red_Plus_Stripes_3.jpg,Blue_Plus_Dots_2.jpg,Green_Star_Stripes_4.jpg,right,1388,true,NA,true
wj1SVUSc,3b6f54kms5pu5knddy3sw9ki4gws13,34hjijklp99tcvzuldw1ue7jypav4c,wj1SVUSc,2020-0188,2020-05-07,20:01:03,20:18:23,NA,incomplete,9,filling,1,left,Purple_Triangle_Stripes_2.jpg,Green_Plus_Stripes_1.jpg,Blue_Triangle_Grid_4.jpg,left,1453,true,NA,true
wj1SVUSc,3b6f54kms5pu5knddy3sw9ki4gws13,34hjijklp99tcvzuldw1ue7jypav4c,wj1SVUSc,2020-0188,2020-05-07,20:01:03,20:18:23,NA,incomplete,10,filling,1,right,Blue_Plus_Grid_3.jpg,Purple_Plus_Dots_1.jpg,Red_Triangle_Grid_2.jpg,right,1642,true,NA,true
wj1SVUSc,3b6f54kms5pu5knddy3sw9ki4gws13,34hjijklp99tcvzuldw1ue7jypav4c,wj1SVUSc,2020-0188,2020-05-07,20:01:03,20:18:23,NA,incomplete,11,filling,1,right,Red_Star_Stripes_1.jpg,Purple_Star_Chess_4.jpg,Blue_Triangle_Stripes_3.jpg,right,1483,true,NA,true
wj1SVUSc,3b6f54kms5pu5knddy3sw9ki4gws13,34hjijklp99tcvzuldw1ue7jypav4c,wj1SVUSc,2020-0188,2020-05-07,20:01:03,20:18:23,NA,incomplete,12,filling,1,right,Blue_Star_Chess_3.jpg,Red_Star_Dots_4.jpg,Green_Circle_Chess_2.jpg,right,1605,true,NA,true
wj1SVUSc,3b6f54kms5pu5knddy3sw9ki4gws13,34hjijklp99tcvzuldw1ue7jypav4c,wj1SVUSc,2020-0188,2020-05-07,20:01:03,20:18:23,NA,incomplete,13,filling,1,left,Purple_Circle_Dots_3.jpg,Green_Triangle_Dots_4.jpg,Blue_Circle_Stripes_1.jpg,left,1347,true,NA,true
wj1SVUSc,3b6f54kms5pu5knddy3sw9ki4gws13,34hjijklp99tcvzuldw1ue7jypav4c,wj1SVUSc,2020-0188,2020-05-07,20:01:03,20:18:23,NA,incomplete,14,filling,1,right,Blue_Circle_Grid_3.jpg,Purple_Circle_Stripes_4.jpg,Green_Star_Grid_2.jpg,right,1369,true,NA,true
wj1SVUSc,3b6f54kms5pu5knddy3sw9ki4gws13,34hjijklp99tcvzuldw1ue7jypav4c,wj1SVUSc,2020-0188,2020-05-07,20:01:03,20:18:23,NA,incomplete,15,filling,1,right,Blue_Circle_Grid_1.jpg,Green_Circle_Stripes_3.jpg,Red_Star_Grid_4.jpg,right,1257,true,NA,true
wj1SVUSc,3b6f54kms5pu5knddy3sw9ki4gws13,34hjijklp99tcvzuldw1ue7jypav4c,wj1SVUSc,2020-0188,2020-05-07,20:01:03,20:18:23,NA,incomplete,16,filling,1,left,Red_Triangle_Grid_2.jpg,Green_Plus_Grid_1.jpg,Purple_Triangle_Chess_3.jpg,left,1227,true,NA,true
wj1SVUSc,3b6f54kms5pu5knddy3sw9ki4gws13,34hjijklp99tcvzuldw1ue7jypav4c,wj1SVUSc,2020-0188,2020-05-07,20:01:03,20:18:23,NA,incomplete,17,filling,1,right,Green_Star_Stripes_3.jpg,Red_Star_Dots_2.jpg,Purple_Circle_Stripes_1.jpg,right,1470,true,NA,true
wj1SVUSc,3b6f54kms5pu5knddy3sw9ki4gws13,34hjijklp99tcvzuldw1ue7jypav4c,wj1SVUSc,2020-0188,2020-05-07,20:01:03,20:18:23,NA,incomplete,18,filling,1,left,Purple_Star_Chess_4.jpg,Blue_Triangle_Chess_3.jpg,Green_Star_Stripes_2.jpg,left,1382,true,NA,true
wj1SVUSc,3b6f54kms5pu5knddy3sw9ki4gws13,34hjijklp99tcvzuldw1ue7jypav4c,wj1SVUSc,2020-0188,2020-05-07,20:01:03,20:18:23,NA,incomplete,19,filling,1,left,Red_Circle_Stripes_4.jpg,Purple_Triangle_Stripes_3.jpg,Green_Circle_Grid_1.jpg,left,1536,true,NA,true
wj1SVUSc,3b6f54kms5pu5knddy3sw9ki4gws13,34hjijklp99tcvzuldw1ue7jypav4c,wj1SVUSc,2020-0188,2020-05-07,20:01:03,20:18:23,NA,incomplete,20,shape,0,right,Red_Plus_Grid_3.jpg,Green_Triangle_Grid_1.jpg,Blue_Plus_Chess_2.jpg,right,1443,true,NA,true
wj1SVUSc,3b6f54kms5pu5knddy3sw9ki4gws13,34hjijklp99tcvzuldw1ue7jypav4c,wj1SVUSc,2020-0188,2020-05-07,20:01:03,20:18:23,NA,incomplete,21,shape,1,left,Purple_Circle_Grid_2.jpg,Green_Circle_Chess_3.jpg,Blue_Plus_Grid_4.jpg,left,1085,true,NA,true
wj1SVUSc,3b6f54kms5pu5knddy3sw9ki4gws13,34hjijklp99tcvzuldw1ue7jypav4c,wj1SVUSc,2020-0188,2020-05-07,20:01:03,20:18:23,NA,incomplete,22,shape,1,left,Purple_Star_Dots_1.jpg,Green_Star_Chess_4.jpg,Blue_Triangle_Dots_3.jpg,left,1186,true,NA,true
wj1SVUSc,3b6f54kms5pu5knddy3sw9ki4gws13,34hjijklp99tcvzuldw1ue7jypav4c,wj1SVUSc,2020-0188,2020-05-07,20:01:03,20:18:23,NA,incomplete,23,shape,1,left,Purple_Plus_Dots_2.jpg,Blue_Plus_Chess_1.jpg,Red_Star_Dots_3.jpg,left,1182,true,NA,true
wj1SVUSc,3b6f54kms5pu5knddy3sw9ki4gws13,34hjijklp99tcvzuldw1ue7jypav4c,wj1SVUSc,2020-0188,2020-05-07,20:01:03,20:18:23,NA,incomplete,24,shape,1,left,Blue_Circle_Dots_3.jpg,Green_Circle_Stripes_2.jpg,Purple_Plus_Dots_4.jpg,left,1018,true,NA,true
wj1SVUSc,3b6f54kms5pu5knddy3sw9ki4gws13,34hjijklp99tcvzuldw1ue7jypav4c,wj1SVUSc,2020-0188,2020-05-07,20:01:03,20:18:23,NA,incomplete,25,shape,0,left,Purple_Circle_Dots_3.jpg,Green_Circle_Grid_2.jpg,Red_Triangle_Dots_4.jpg,left,1028,true,NA,true
wj1SVUSc,3b6f54kms5pu5knddy3sw9ki4gws13,34hjijklp99tcvzuldw1ue7jypav4c,wj1SVUSc,2020-0188,2020-05-07,20:01:03,20:18:23,NA,incomplete,26,shape,1,right,Red_Plus_Chess_2.jpg,Purple_Star_Chess_3.jpg,Green_Plus_Dots_1.jpg,right,1157,true,NA,true
wj1SVUSc,3b6f54kms5pu5knddy3sw9ki4gws13,34hjijklp99tcvzuldw1ue7jypav4c,wj1SVUSc,2020-0188,2020-05-07,20:01:03,20:18:23,NA,incomplete,27,shape,1,right,Blue_Star_Grid_4.jpg,Green_Circle_Grid_2.jpg,Red_Star_Chess_1.jpg,right,1189,true,NA,true
wj1SVUSc,3b6f54kms5pu5knddy3sw9ki4gws13,34hjijklp99tcvzuldw1ue7jypav4c,wj1SVUSc,2020-0188,2020-05-07,20:01:03,20:18:23,NA,incomplete,28,shape,1,left,Purple_Plus_Dots_3.jpg,Green_Plus_Stripes_1.jpg,Blue_Star_Dots_2.jpg,left,916,true,NA,true
wj1SVUSc,3b6f54kms5pu5knddy3sw9ki4gws13,34hjijklp99tcvzuldw1ue7jypav4c,wj1SVUSc,2020-0188,2020-05-07,20:01:03,20:18:23,NA,incomplete,29,shape,0,right,Purple_Plus_Stripes_3.jpg,Green_Triangle_Stripes_1.jpg,Red_Plus_Chess_2.jpg,right,1038,true,NA,true
wj1SVUSc,3b6f54kms5pu5knddy3sw9ki4gws13,34hjijklp99tcvzuldw1ue7jypav4c,wj1SVUSc,2020-0188,2020-05-07,20:01:03,20:18:23,NA,incomplete,30,shape,1,left,Blue_Circle_Dots_3.jpg,Purple_Circle_Chess_4.jpg,Red_Plus_Dots_2.jpg,left,928,true,NA,true
wj1SVUSc,3b6f54kms5pu5knddy3sw9ki4gws13,34hjijklp99tcvzuldw1ue7jypav4c,wj1SVUSc,2020-0188,2020-05-07,20:01:03,20:18:23,NA,incomplete,31,shape,0,left,Blue_Star_Chess_4.jpg,Red_Star_Grid_1.jpg,Green_Circle_Chess_2.jpg,left,1078,true,NA,true
wj1SVUSc,3b6f54kms5pu5knddy3sw9ki4gws13,34hjijklp99tcvzuldw1ue7jypav4c,wj1SVUSc,2020-0188,2020-05-07,20:01:03,20:18:23,NA,incomplete,32,shape,1,right,Red_Plus_Dots_3.jpg,Blue_Star_Dots_4.jpg,Purple_Plus_Chess_1.jpg,right,1091,true,NA,true
wj1SVUSc,3b6f54kms5pu5knddy3sw9ki4gws13,34hjijklp99tcvzuldw1ue7jypav4c,wj1SVUSc,2020-0188,2020-05-07,20:01:03,20:18:23,NA,incomplete,33,shape,1,left,Red_Star_Chess_1.jpg,Green_Star_Dots_3.jpg,Blue_Triangle_Chess_4.jpg,left,953,true,NA,true
wj1SVUSc,3b6f54kms5pu5knddy3sw9ki4gws13,34hjijklp99tcvzuldw1ue7jypav4c,wj1SVUSc,2020-0188,2020-05-07,20:01:03,20:18:23,NA,incomplete,34,shape,1,left,Red_Plus_Stripes_1.jpg,Green_Plus_Dots_4.jpg,Blue_Star_Stripes_3.jpg,left,1116,true,NA,true
wj1SVUSc,3b6f54kms5pu5knddy3sw9ki4gws13,34hjijklp99tcvzuldw1ue7jypav4c,wj1SVUSc,2020-0188,2020-05-07,20:01:03,20:18:23,NA,incomplete,35,shape,1,right,Purple_Plus_Stripes_4.jpg,Green_Star_Stripes_1.jpg,Blue_Plus_Grid_2.jpg,right,1075,true,NA,true
wj1SVUSc,3b6f54kms5pu5knddy3sw9ki4gws13,34hjijklp99tcvzuldw1ue7jypav4c,wj1SVUSc,2020-0188,2020-05-07,20:01:03,20:18:23,NA,incomplete,36,shape,0,left,Red_Plus_Dots_2.jpg,Blue_Plus_Grid_3.jpg,Purple_Triangle_Dots_4.jpg,left,812,true,NA,true
wj1SVUSc,3b6f54kms5pu5knddy3sw9ki4gws13,34hjijklp99tcvzuldw1ue7jypav4c,wj1SVUSc,2020-0188,2020-05-07,20:01:03,20:18:23,NA,incomplete,37,shape,1,left,Green_Plus_Stripes_3.jpg,Red_Plus_Dots_4.jpg,Blue_Star_Stripes_1.jpg,left,1173,true,NA,true
wj1SVUSc,3b6f54kms5pu5knddy3sw9ki4gws13,34hjijklp99tcvzuldw1ue7jypav4c,wj1SVUSc,2020-0188,2020-05-07,20:01:03,20:18:23,NA,incomplete,38,shape,1,right,Red_Triangle_Chess_3.jpg,Purple_Star_Chess_1.jpg,Green_Triangle_Stripes_2.jpg,right,1015,true,NA,true
wj1SVUSc,3b6f54kms5pu5knddy3sw9ki4gws13,34hjijklp99tcvzuldw1ue7jypav4c,wj1SVUSc,2020-0188,2020-05-07,20:01:03,20:18:23,NA,incomplete,39,shape,1,left,Purple_Star_Grid_4.jpg,Green_Star_Chess_2.jpg,Red_Circle_Grid_3.jpg,left,1235,true,NA,true
wj1SVUSc,3b6f54kms5pu5knddy3sw9ki4gws13,34hjijklp99tcvzuldw1ue7jypav4c,wj1SVUSc,2020-0188,2020-05-07,20:01:03,20:18:23,NA,incomplete,0,filling,1,left,Red_Triangle_Stripes_2.jpg,Green_Plus_Stripes_1.jpg,Blue_Triangle_Grid_3.jpg,right,795,false,high,false
wj1SVUSc,3b6f54kms5pu5knddy3sw9ki4gws13,34hjijklp99tcvzuldw1ue7jypav4c,wj1SVUSc,2020-0188,2020-05-07,20:01:03,20:18:23,NA,incomplete,1,filling,1,left,Red_Star_Stripes_3.jpg,Blue_Circle_Stripes_4.jpg,Green_Star_Grid_1.jpg,left,1040,true,high,false
wj1SVUSc,3b6f54kms5pu5knddy3sw9ki4gws13,34hjijklp99tcvzuldw1ue7jypav4c,wj1SVUSc,2020-0188,2020-05-07,20:01:03,20:18:23,NA,incomplete,2,filling,0,right,Blue_Plus_Stripes_4.jpg,Purple_Plus_Grid_3.jpg,Red_Star_Stripes_2.jpg,right,1236,true,high,false
wj1SVUSc,3b6f54kms5pu5knddy3sw9ki4gws13,34hjijklp99tcvzuldw1ue7jypav4c,wj1SVUSc,2020-0188,2020-05-07,20:01:03,20:18:23,NA,incomplete,3,filling,1,left,Blue_Triangle_Chess_1.jpg,Purple_Star_Chess_4.jpg,Green_Triangle_Stripes_2.jpg,left,1029,true,high,false
wj1SVUSc,3b6f54kms5pu5knddy3sw9ki4gws13,34hjijklp99tcvzuldw1ue7jypav4c,wj1SVUSc,2020-0188,2020-05-07,20:01:03,20:18:23,NA,incomplete,4,filling,1,left,Purple_Triangle_Chess_2.jpg,Green_Circle_Chess_4.jpg,Blue_Triangle_Stripes_3.jpg,right,1300,false,high,false
wj1SVUSc,3b6f54kms5pu5knddy3sw9ki4gws13,34hjijklp99tcvzuldw1ue7jypav4c,wj1SVUSc,2020-0188,2020-05-07,20:01:03,20:18:23,NA,incomplete,5,filling,1,right,Purple_Star_Grid_2.jpg,Blue_Star_Chess_1.jpg,Red_Triangle_Grid_3.jpg,right,1046,true,high,false
wj1SVUSc,3b6f54kms5pu5knddy3sw9ki4gws13,34hjijklp99tcvzuldw1ue7jypav4c,wj1SVUSc,2020-0188,2020-05-07,20:01:03,20:18:23,NA,incomplete,6,filling,1,left,Green_Circle_Grid_2.jpg,Purple_Star_Grid_3.jpg,Blue_Circle_Dots_1.jpg,left,1085,true,high,false
wj1SVUSc,3b6f54kms5pu5knddy3sw9ki4gws13,34hjijklp99tcvzuldw1ue7jypav4c,wj1SVUSc,2020-0188,2020-05-07,20:01:03,20:18:23,NA,incomplete,7,filling,0,left,Blue_Circle_Grid_2.jpg,Purple_Plus_Grid_1.jpg,Green_Circle_Dots_3.jpg,left,888,true,high,false
wj1SVUSc,3b6f54kms5pu5knddy3sw9ki4gws13,34hjijklp99tcvzuldw1ue7jypav4c,wj1SVUSc,2020-0188,2020-05-07,20:01:03,20:18:23,NA,incomplete,8,filling,1,left,Green_Plus_Dots_4.jpg,Purple_Circle_Dots_2.jpg,Blue_Plus_Grid_1.jpg,left,1108,true,high,false
wj1SVUSc,3b6f54kms5pu5knddy3sw9ki4gws13,34hjijklp99tcvzuldw1ue7jypav4c,wj1SVUSc,2020-0188,2020-05-07,20:01:03,20:18:23,NA,incomplete,9,filling,1,right,Purple_Circle_Dots_3.jpg,Red_Circle_Chess_4.jpg,Green_Star_Dots_1.jpg,right,1054,true,high,false
wj1SVUSc,3b6f54kms5pu5knddy3sw9ki4gws13,34hjijklp99tcvzuldw1ue7jypav4c,wj1SVUSc,2020-0188,2020-05-07,20:01:03,20:18:23,NA,incomplete,10,shape,1,right,Blue_Triangle_Stripes_3.jpg,Red_Plus_Stripes_1.jpg,Purple_Triangle_Chess_4.jpg,left,1060,false,high,false
wj1SVUSc,3b6f54kms5pu5knddy3sw9ki4gws13,34hjijklp99tcvzuldw1ue7jypav4c,wj1SVUSc,2020-0188,2020-05-07,20:01:03,20:18:23,NA,incomplete,11,shape,1,left,Red_Triangle_Stripes_1.jpg,Purple_Triangle_Chess_4.jpg,Green_Plus_Stripes_2.jpg,right,1252,false,high,false
wj1SVUSc,3b6f54kms5pu5knddy3sw9ki4gws13,34hjijklp99tcvzuldw1ue7jypav4c,wj1SVUSc,2020-0188,2020-05-07,20:01:03,20:18:23,NA,incomplete,12,shape,1,left,Red_Circle_Stripes_1.jpg,Blue_Circle_Chess_4.jpg,Green_Star_Stripes_2.jpg,right,1133,false,high,false
wj1SVUSc,3b6f54kms5pu5knddy3sw9ki4gws13,34hjijklp99tcvzuldw1ue7jypav4c,wj1SVUSc,2020-0188,2020-05-07,20:01:03,20:18:23,NA,incomplete,13,shape,1,left,Blue_Triangle_Chess_3.jpg,Green_Triangle_Stripes_1.jpg,Purple_Plus_Chess_2.jpg,left,911,true,high,false
wj1SVUSc,3b6f54kms5pu5knddy3sw9ki4gws13,34hjijklp99tcvzuldw1ue7jypav4c,wj1SVUSc,2020-0188,2020-05-07,20:01:03,20:18:23,NA,incomplete,14,shape,1,left,Green_Triangle_Dots_2.jpg,Purple_Triangle_Chess_3.jpg,Red_Star_Dots_4.jpg,left,743,true,high,false
wj1SVUSc,3b6f54kms5pu5knddy3sw9ki4gws13,34hjijklp99tcvzuldw1ue7jypav4c,wj1SVUSc,2020-0188,2020-05-07,20:01:03,20:18:23,NA,incomplete,15,shape,1,left,Red_Circle_Stripes_3.jpg,Green_Circle_Chess_2.jpg,Blue_Triangle_Stripes_4.jpg,left,909,true,high,false
wj1SVUSc,3b6f54kms5pu5knddy3sw9ki4gws13,34hjijklp99tcvzuldw1ue7jypav4c,wj1SVUSc,2020-0188,2020-05-07,20:01:03,20:18:23,NA,incomplete,16,shape,1,right,Blue_Circle_Stripes_2.jpg,Red_Star_Stripes_4.jpg,Green_Circle_Chess_3.jpg,right,728,true,high,false
wj1SVUSc,3b6f54kms5pu5knddy3sw9ki4gws13,34hjijklp99tcvzuldw1ue7jypav4c,wj1SVUSc,2020-0188,2020-05-07,20:01:03,20:18:23,NA,incomplete,17,shape,1,right,Red_Star_Chess_2.jpg,Green_Triangle_Chess_1.jpg,Purple_Star_Grid_3.jpg,right,775,true,high,false
wj1SVUSc,3b6f54kms5pu5knddy3sw9ki4gws13,34hjijklp99tcvzuldw1ue7jypav4c,wj1SVUSc,2020-0188,2020-05-07,20:01:03,20:18:23,NA,incomplete,18,shape,0,right,Purple_Circle_Chess_4.jpg,Blue_Star_Chess_3.jpg,Green_Circle_Grid_1.jpg,right,842,true,high,false
wj1SVUSc,3b6f54kms5pu5knddy3sw9ki4gws13,34hjijklp99tcvzuldw1ue7jypav4c,wj1SVUSc,2020-0188,2020-05-07,20:01:03,20:18:23,NA,incomplete,19,shape,1,left,Purple_Plus_Chess_3.jpg,Green_Plus_Stripes_4.jpg,Red_Circle_Chess_1.jpg,right,1108,false,high,false
wj1SVUSc,3b6f54kms5pu5knddy3sw9ki4gws13,34hjijklp99tcvzuldw1ue7jypav4c,wj1SVUSc,2020-0188,2020-05-07,20:01:03,20:18:23,NA,incomplete,20,filling,1,left,Green_Circle_Grid_3.jpg,Blue_Plus_Grid_4.jpg,Purple_Circle_Stripes_1.jpg,right,1176,false,high,false
wj1SVUSc,3b6f54kms5pu5knddy3sw9ki4gws13,34hjijklp99tcvzuldw1ue7jypav4c,wj1SVUSc,2020-0188,2020-05-07,20:01:03,20:18:23,NA,incomplete,21,filling,1,right,Green_Star_Dots_2.jpg,Red_Star_Chess_3.jpg,Blue_Circle_Dots_1.jpg,right,1047,true,high,false
wj1SVUSc,3b6f54kms5pu5knddy3sw9ki4gws13,34hjijklp99tcvzuldw1ue7jypav4c,wj1SVUSc,2020-0188,2020-05-07,20:01:03,20:18:23,NA,incomplete,22,filling,0,right,Green_Star_Grid_1.jpg,Red_Star_Chess_2.jpg,Purple_Plus_Grid_3.jpg,right,1130,true,high,false
wj1SVUSc,3b6f54kms5pu5knddy3sw9ki4gws13,34hjijklp99tcvzuldw1ue7jypav4c,wj1SVUSc,2020-0188,2020-05-07,20:01:03,20:18:23,NA,incomplete,23,filling,1,left,Red_Circle_Grid_2.jpg,Blue_Plus_Grid_1.jpg,Green_Circle_Stripes_3.jpg,left,991,true,high,false
wj1SVUSc,3b6f54kms5pu5knddy3sw9ki4gws13,34hjijklp99tcvzuldw1ue7jypav4c,wj1SVUSc,2020-0188,2020-05-07,20:01:03,20:18:23,NA,incomplete,24,filling,1,left,Red_Star_Grid_3.jpg,Purple_Circle_Grid_2.jpg,Green_Star_Dots_1.jpg,left,996,true,high,false
wj1SVUSc,3b6f54kms5pu5knddy3sw9ki4gws13,34hjijklp99tcvzuldw1ue7jypav4c,wj1SVUSc,2020-0188,2020-05-07,20:01:03,20:18:23,NA,incomplete,25,filling,1,right,Red_Star_Stripes_4.jpg,Green_Star_Dots_2.jpg,Purple_Triangle_Stripes_1.jpg,right,1155,true,high,false
wj1SVUSc,3b6f54kms5pu5knddy3sw9ki4gws13,34hjijklp99tcvzuldw1ue7jypav4c,wj1SVUSc,2020-0188,2020-05-07,20:01:03,20:18:23,NA,incomplete,26,filling,0,left,Purple_Circle_Dots_1.jpg,Green_Star_Dots_2.jpg,Red_Circle_Grid_4.jpg,left,1076,true,high,false
wj1SVUSc,3b6f54kms5pu5knddy3sw9ki4gws13,34hjijklp99tcvzuldw1ue7jypav4c,wj1SVUSc,2020-0188,2020-05-07,20:01:03,20:18:23,NA,incomplete,27,filling,0,right,Green_Star_Stripes_2.jpg,Purple_Star_Dots_4.jpg,Blue_Plus_Stripes_1.jpg,right,1132,true,high,false
wj1SVUSc,3b6f54kms5pu5knddy3sw9ki4gws13,34hjijklp99tcvzuldw1ue7jypav4c,wj1SVUSc,2020-0188,2020-05-07,20:01:03,20:18:23,NA,incomplete,28,filling,1,left,Green_Plus_Chess_3.jpg,Purple_Circle_Chess_2.jpg,Blue_Plus_Grid_1.jpg,left,917,true,high,false
wj1SVUSc,3b6f54kms5pu5knddy3sw9ki4gws13,34hjijklp99tcvzuldw1ue7jypav4c,wj1SVUSc,2020-0188,2020-05-07,20:01:03,20:18:23,NA,incomplete,29,filling,1,right,Green_Circle_Grid_1.jpg,Red_Circle_Stripes_2.jpg,Purple_Plus_Grid_4.jpg,right,1006,true,high,false
wj1SVUSc,3b6f54kms5pu5knddy3sw9ki4gws13,34hjijklp99tcvzuldw1ue7jypav4c,wj1SVUSc,2020-0188,2020-05-07,20:01:03,20:18:23,NA,incomplete,30,shape,1,left,Green_Plus_Dots_3.jpg,Red_Plus_Stripes_1.jpg,Purple_Circle_Dots_2.jpg,right,1198,false,high,false
wj1SVUSc,3b6f54kms5pu5knddy3sw9ki4gws13,34hjijklp99tcvzuldw1ue7jypav4c,wj1SVUSc,2020-0188,2020-05-07,20:01:03,20:18:23,NA,incomplete,31,shape,1,left,Red_Star_Stripes_2.jpg,Purple_Star_Chess_1.jpg,Green_Circle_Stripes_3.jpg,right,1155,false,high,false
wj1SVUSc,3b6f54kms5pu5knddy3sw9ki4gws13,34hjijklp99tcvzuldw1ue7jypav4c,wj1SVUSc,2020-0188,2020-05-07,20:01:03,20:18:23,NA,incomplete,32,shape,1,right,Blue_Circle_Chess_4.jpg,Green_Plus_Chess_1.jpg,Purple_Circle_Grid_2.jpg,left,1094,false,high,false
wj1SVUSc,3b6f54kms5pu5knddy3sw9ki4gws13,34hjijklp99tcvzuldw1ue7jypav4c,wj1SVUSc,2020-0188,2020-05-07,20:01:03,20:18:23,NA,incomplete,33,shape,1,left,Purple_Plus_Grid_1.jpg,Green_Plus_Stripes_4.jpg,Blue_Circle_Grid_2.jpg,left,729,true,high,false
wj1SVUSc,3b6f54kms5pu5knddy3sw9ki4gws13,34hjijklp99tcvzuldw1ue7jypav4c,wj1SVUSc,2020-0188,2020-05-07,20:01:03,20:18:23,NA,incomplete,34,shape,1,right,Blue_Star_Chess_4.jpg,Red_Triangle_Chess_1.jpg,Purple_Star_Stripes_3.jpg,right,808,true,high,false
wj1SVUSc,3b6f54kms5pu5knddy3sw9ki4gws13,34hjijklp99tcvzuldw1ue7jypav4c,wj1SVUSc,2020-0188,2020-05-07,20:01:03,20:18:23,NA,incomplete,35,shape,1,right,Purple_Star_Stripes_3.jpg,Green_Triangle_Stripes_1.jpg,Blue_Star_Grid_2.jpg,right,750,true,high,false
wj1SVUSc,3b6f54kms5pu5knddy3sw9ki4gws13,34hjijklp99tcvzuldw1ue7jypav4c,wj1SVUSc,2020-0188,2020-05-07,20:01:03,20:18:23,NA,incomplete,36,shape,1,left,Red_Plus_Grid_1.jpg,Green_Plus_Chess_2.jpg,Blue_Star_Grid_4.jpg,left,835,true,high,false
wj1SVUSc,3b6f54kms5pu5knddy3sw9ki4gws13,34hjijklp99tcvzuldw1ue7jypav4c,wj1SVUSc,2020-0188,2020-05-07,20:01:03,20:18:23,NA,incomplete,37,shape,1,left,Red_Circle_Stripes_3.jpg,Purple_Circle_Dots_2.jpg,Blue_Star_Stripes_4.jpg,left,661,true,high,false
wj1SVUSc,3b6f54kms5pu5knddy3sw9ki4gws13,34hjijklp99tcvzuldw1ue7jypav4c,wj1SVUSc,2020-0188,2020-05-07,20:01:03,20:18:23,NA,incomplete,38,shape,1,left,Purple_Triangle_Chess_1.jpg,Green_Triangle_Grid_2.jpg,Red_Plus_Chess_4.jpg,left,923,true,high,false
wj1SVUSc,3b6f54kms5pu5knddy3sw9ki4gws13,34hjijklp99tcvzuldw1ue7jypav4c,wj1SVUSc,2020-0188,2020-05-07,20:01:03,20:18:23,NA,incomplete,39,shape,1,left,Purple_Plus_Dots_4.jpg,Blue_Plus_Grid_3.jpg,Green_Star_Dots_1.jpg,left,736,true,high,false
wj1SVUSc,3b6f54kms5pu5knddy3sw9ki4gws13,34hjijklp99tcvzuldw1ue7jypav4c,wj1SVUSc,2020-0188,2020-05-07,20:01:03,20:18:23,NA,incomplete,40,filling,0,left,Green_Star_Grid_2.jpg,Blue_Plus_Grid_4.jpg,Purple_Star_Dots_1.jpg,right,812,false,high,false
wj1SVUSc,3b6f54kms5pu5knddy3sw9ki4gws13,34hjijklp99tcvzuldw1ue7jypav4c,wj1SVUSc,2020-0188,2020-05-07,20:01:03,20:18:23,NA,incomplete,41,filling,1,left,Red_Star_Stripes_4.jpg,Green_Plus_Stripes_3.jpg,Blue_Star_Chess_1.jpg,left,660,true,high,false
wj1SVUSc,3b6f54kms5pu5knddy3sw9ki4gws13,34hjijklp99tcvzuldw1ue7jypav4c,wj1SVUSc,2020-0188,2020-05-07,20:01:03,20:18:23,NA,incomplete,42,filling,1,right,Blue_Circle_Chess_1.jpg,Red_Circle_Dots_4.jpg,Green_Plus_Chess_2.jpg,right,1023,true,high,false
wj1SVUSc,3b6f54kms5pu5knddy3sw9ki4gws13,34hjijklp99tcvzuldw1ue7jypav4c,wj1SVUSc,2020-0188,2020-05-07,20:01:03,20:18:23,NA,incomplete,43,filling,1,left,Purple_Triangle_Chess_2.jpg,Green_Circle_Chess_3.jpg,Red_Triangle_Dots_1.jpg,left,860,true,high,false
wj1SVUSc,3b6f54kms5pu5knddy3sw9ki4gws13,34hjijklp99tcvzuldw1ue7jypav4c,wj1SVUSc,2020-0188,2020-05-07,20:01:03,20:18:23,NA,incomplete,44,filling,1,right,Blue_Triangle_Grid_2.jpg,Red_Triangle_Dots_3.jpg,Purple_Circle_Grid_4.jpg,right,887,true,high,false
wj1SVUSc,3b6f54kms5pu5knddy3sw9ki4gws13,34hjijklp99tcvzuldw1ue7jypav4c,wj1SVUSc,2020-0188,2020-05-07,20:01:03,20:18:23,NA,incomplete,45,filling,1,right,Purple_Circle_Dots_2.jpg,Red_Circle_Stripes_1.jpg,Blue_Triangle_Dots_3.jpg,right,918,true,high,false
wj1SVUSc,3b6f54kms5pu5knddy3sw9ki4gws13,34hjijklp99tcvzuldw1ue7jypav4c,wj1SVUSc,2020-0188,2020-05-07,20:01:03,20:18:23,NA,incomplete,46,filling,1,left,Blue_Triangle_Dots_4.jpg,Purple_Star_Dots_2.jpg,Green_Triangle_Grid_3.jpg,left,1254,true,high,false
wj1SVUSc,3b6f54kms5pu5knddy3sw9ki4gws13,34hjijklp99tcvzuldw1ue7jypav4c,wj1SVUSc,2020-0188,2020-05-07,20:01:03,20:18:23,NA,incomplete,47,filling,1,left,Blue_Triangle_Stripes_1.jpg,Red_Plus_Stripes_4.jpg,Purple_Triangle_Grid_2.jpg,left,1134,true,high,false
wj1SVUSc,3b6f54kms5pu5knddy3sw9ki4gws13,34hjijklp99tcvzuldw1ue7jypav4c,wj1SVUSc,2020-0188,2020-05-07,20:01:03,20:18:23,NA,incomplete,48,filling,0,right,Blue_Circle_Grid_4.jpg,Red_Circle_Chess_3.jpg,Purple_Triangle_Grid_2.jpg,right,986,true,high,false
wj1SVUSc,3b6f54kms5pu5knddy3sw9ki4gws13,34hjijklp99tcvzuldw1ue7jypav4c,wj1SVUSc,2020-0188,2020-05-07,20:01:03,20:18:23,NA,incomplete,49,filling,0,right,Green_Triangle_Dots_1.jpg,Purple_Triangle_Chess_2.jpg,Red_Star_Dots_4.jpg,left,964,false,high,false
wj1SVUSc,3b6f54kms5pu5knddy3sw9ki4gws13,34hjijklp99tcvzuldw1ue7jypav4c,wj1SVUSc,2020-0188,2020-05-07,20:01:03,20:18:23,NA,incomplete,50,shape,0,right,Blue_Star_Grid_3.jpg,Purple_Plus_Grid_4.jpg,Red_Star_Chess_1.jpg,right,950,true,high,false
wj1SVUSc,3b6f54kms5pu5knddy3sw9ki4gws13,34hjijklp99tcvzuldw1ue7jypav4c,wj1SVUSc,2020-0188,2020-05-07,20:01:03,20:18:23,NA,incomplete,51,shape,1,left,Red_Triangle_Stripes_2.jpg,Blue_Triangle_Dots_4.jpg,Purple_Star_Stripes_1.jpg,left,764,true,high,false
wj1SVUSc,3b6f54kms5pu5knddy3sw9ki4gws13,34hjijklp99tcvzuldw1ue7jypav4c,wj1SVUSc,2020-0188,2020-05-07,20:01:03,20:18:23,NA,incomplete,52,shape,1,left,Red_Plus_Chess_1.jpg,Green_Plus_Dots_4.jpg,Purple_Triangle_Chess_2.jpg,left,860,true,high,false
wj1SVUSc,3b6f54kms5pu5knddy3sw9ki4gws13,34hjijklp99tcvzuldw1ue7jypav4c,wj1SVUSc,2020-0188,2020-05-07,20:01:03,20:18:23,NA,incomplete,53,shape,0,left,Red_Plus_Chess_4.jpg,Green_Plus_Dots_1.jpg,Purple_Triangle_Chess_2.jpg,left,868,true,high,false
wj1SVUSc,3b6f54kms5pu5knddy3sw9ki4gws13,34hjijklp99tcvzuldw1ue7jypav4c,wj1SVUSc,2020-0188,2020-05-07,20:01:03,20:18:23,NA,incomplete,54,shape,0,left,Green_Plus_Dots_2.jpg,Purple_Plus_Chess_1.jpg,Red_Triangle_Dots_4.jpg,left,759,true,high,false
wj1SVUSc,3b6f54kms5pu5knddy3sw9ki4gws13,34hjijklp99tcvzuldw1ue7jypav4c,wj1SVUSc,2020-0188,2020-05-07,20:01:03,20:18:23,NA,incomplete,55,shape,1,right,Blue_Circle_Stripes_3.jpg,Purple_Plus_Stripes_1.jpg,Green_Circle_Chess_2.jpg,left,1083,false,high,false
wj1SVUSc,3b6f54kms5pu5knddy3sw9ki4gws13,34hjijklp99tcvzuldw1ue7jypav4c,wj1SVUSc,2020-0188,2020-05-07,20:01:03,20:18:23,NA,incomplete,56,shape,1,left,Blue_Circle_Grid_1.jpg,Red_Circle_Stripes_4.jpg,Purple_Plus_Grid_3.jpg,left,810,true,high,false
wj1SVUSc,3b6f54kms5pu5knddy3sw9ki4gws13,34hjijklp99tcvzuldw1ue7jypav4c,wj1SVUSc,2020-0188,2020-05-07,20:01:03,20:18:23,NA,incomplete,57,shape,1,right,Blue_Star_Grid_1.jpg,Green_Circle_Grid_2.jpg,Red_Star_Chess_4.jpg,right,933,true,high,false
wj1SVUSc,3b6f54kms5pu5knddy3sw9ki4gws13,34hjijklp99tcvzuldw1ue7jypav4c,wj1SVUSc,2020-0188,2020-05-07,20:01:03,20:18:23,NA,incomplete,58,shape,1,right,Red_Circle_Chess_4.jpg,Green_Star_Chess_3.jpg,Purple_Circle_Grid_1.jpg,right,779,true,high,false
wj1SVUSc,3b6f54kms5pu5knddy3sw9ki4gws13,34hjijklp99tcvzuldw1ue7jypav4c,wj1SVUSc,2020-0188,2020-05-07,20:01:03,20:18:23,NA,incomplete,59,shape,1,right,Blue_Star_Dots_2.jpg,Green_Circle_Dots_1.jpg,Purple_Star_Stripes_4.jpg,right,740,true,high,false
wj1SVUSc,3b6f54kms5pu5knddy3sw9ki4gws13,34hjijklp99tcvzuldw1ue7jypav4c,wj1SVUSc,2020-0188,2020-05-07,20:01:03,20:18:23,NA,incomplete,60,filling,0,right,Green_Star_Grid_2.jpg,Blue_Star_Stripes_4.jpg,Purple_Triangle_Grid_3.jpg,left,709,false,high,false
wj1SVUSc,3b6f54kms5pu5knddy3sw9ki4gws13,34hjijklp99tcvzuldw1ue7jypav4c,wj1SVUSc,2020-0188,2020-05-07,20:01:03,20:18:23,NA,incomplete,61,filling,1,right,Green_Triangle_Chess_1.jpg,Blue_Triangle_Stripes_3.jpg,Red_Circle_Chess_4.jpg,left,679,false,high,false
wj1SVUSc,3b6f54kms5pu5knddy3sw9ki4gws13,34hjijklp99tcvzuldw1ue7jypav4c,wj1SVUSc,2020-0188,2020-05-07,20:01:03,20:18:23,NA,incomplete,62,filling,0,right,Green_Circle_Chess_2.jpg,Purple_Circle_Dots_3.jpg,Red_Triangle_Chess_4.jpg,right,831,true,high,false
wj1SVUSc,3b6f54kms5pu5knddy3sw9ki4gws13,34hjijklp99tcvzuldw1ue7jypav4c,wj1SVUSc,2020-0188,2020-05-07,20:01:03,20:18:23,NA,incomplete,63,filling,0,right,Red_Triangle_Grid_2.jpg,Green_Triangle_Stripes_3.jpg,Blue_Star_Grid_4.jpg,left,805,false,high,false
wj1SVUSc,3b6f54kms5pu5knddy3sw9ki4gws13,34hjijklp99tcvzuldw1ue7jypav4c,wj1SVUSc,2020-0188,2020-05-07,20:01:03,20:18:23,NA,incomplete,64,filling,0,left,Red_Star_Stripes_3.jpg,Green_Plus_Stripes_2.jpg,Blue_Star_Dots_4.jpg,right,763,false,high,false
wj1SVUSc,3b6f54kms5pu5knddy3sw9ki4gws13,34hjijklp99tcvzuldw1ue7jypav4c,wj1SVUSc,2020-0188,2020-05-07,20:01:03,20:18:23,NA,incomplete,65,filling,1,right,Green_Star_Grid_1.jpg,Blue_Star_Stripes_2.jpg,Purple_Circle_Grid_4.jpg,left,628,false,high,false
wj1SVUSc,3b6f54kms5pu5knddy3sw9ki4gws13,34hjijklp99tcvzuldw1ue7jypav4c,wj1SVUSc,2020-0188,2020-05-07,20:01:03,20:18:23,NA,incomplete,66,filling,1,left,Green_Plus_Grid_2.jpg,Purple_Star_Grid_1.jpg,Blue_Plus_Chess_3.jpg,right,782,false,high,false
wj1SVUSc,3b6f54kms5pu5knddy3sw9ki4gws13,34hjijklp99tcvzuldw1ue7jypav4c,wj1SVUSc,2020-0188,2020-05-07,20:01:03,20:18:23,NA,incomplete,67,filling,1,left,Red_Triangle_Chess_4.jpg,Green_Plus_Chess_3.jpg,Blue_Triangle_Grid_2.jpg,right,933,false,high,false
wj1SVUSc,3b6f54kms5pu5knddy3sw9ki4gws13,34hjijklp99tcvzuldw1ue7jypav4c,wj1SVUSc,2020-0188,2020-05-07,20:01:03,20:18:23,NA,incomplete,68,filling,0,left,Blue_Triangle_Dots_2.jpg,Green_Star_Dots_1.jpg,Red_Triangle_Chess_4.jpg,left,1132,true,high,false
wj1SVUSc,3b6f54kms5pu5knddy3sw9ki4gws13,34hjijklp99tcvzuldw1ue7jypav4c,wj1SVUSc,2020-0188,2020-05-07,20:01:03,20:18:23,NA,incomplete,69,filling,1,right,Green_Plus_Dots_4.jpg,Red_Plus_Grid_3.jpg,Blue_Circle_Dots_2.jpg,right,1055,true,high,false
wj1SVUSc,3b6f54kms5pu5knddy3sw9ki4gws13,34hjijklp99tcvzuldw1ue7jypav4c,wj1SVUSc,2020-0188,2020-05-07,20:01:03,20:18:23,NA,incomplete,70,shape,1,right,Purple_Plus_Grid_2.jpg,Green_Star_Grid_4.jpg,Red_Plus_Dots_1.jpg,left,857,false,high,false
wj1SVUSc,3b6f54kms5pu5knddy3sw9ki4gws13,34hjijklp99tcvzuldw1ue7jypav4c,wj1SVUSc,2020-0188,2020-05-07,20:01:03,20:18:23,NA,incomplete,71,shape,1,right,Green_Triangle_Dots_2.jpg,Purple_Star_Dots_1.jpg,Blue_Triangle_Chess_3.jpg,left,923,false,high,false
wj1SVUSc,3b6f54kms5pu5knddy3sw9ki4gws13,34hjijklp99tcvzuldw1ue7jypav4c,wj1SVUSc,2020-0188,2020-05-07,20:01:03,20:18:23,NA,incomplete,72,shape,1,left,Purple_Plus_Chess_1.jpg,Blue_Plus_Dots_4.jpg,Red_Triangle_Chess_3.jpg,right,939,false,high,false
wj1SVUSc,3b6f54kms5pu5knddy3sw9ki4gws13,34hjijklp99tcvzuldw1ue7jypav4c,wj1SVUSc,2020-0188,2020-05-07,20:01:03,20:18:23,NA,incomplete,73,shape,1,right,Green_Circle_Stripes_1.jpg,Red_Star_Stripes_3.jpg,Blue_Circle_Dots_4.jpg,right,706,true,high,false
wj1SVUSc,3b6f54kms5pu5knddy3sw9ki4gws13,34hjijklp99tcvzuldw1ue7jypav4c,wj1SVUSc,2020-0188,2020-05-07,20:01:03,20:18:23,NA,incomplete,74,shape,1,left,Blue_Triangle_Dots_1.jpg,Green_Triangle_Grid_4.jpg,Purple_Plus_Dots_2.jpg,left,634,true,high,false
wj1SVUSc,3b6f54kms5pu5knddy3sw9ki4gws13,34hjijklp99tcvzuldw1ue7jypav4c,wj1SVUSc,2020-0188,2020-05-07,20:01:03,20:18:23,NA,incomplete,75,shape,0,left,Purple_Plus_Dots_3.jpg,Red_Plus_Stripes_2.jpg,Blue_Star_Dots_4.jpg,left,779,true,high,false
wj1SVUSc,3b6f54kms5pu5knddy3sw9ki4gws13,34hjijklp99tcvzuldw1ue7jypav4c,wj1SVUSc,2020-0188,2020-05-07,20:01:03,20:18:23,NA,incomplete,76,shape,1,right,Green_Circle_Chess_4.jpg,Purple_Plus_Chess_1.jpg,Red_Circle_Grid_2.jpg,right,615,true,high,false
wj1SVUSc,3b6f54kms5pu5knddy3sw9ki4gws13,34hjijklp99tcvzuldw1ue7jypav4c,wj1SVUSc,2020-0188,2020-05-07,20:01:03,20:18:23,NA,incomplete,77,shape,0,right,Purple_Circle_Stripes_1.jpg,Blue_Star_Stripes_4.jpg,Green_Circle_Grid_3.jpg,right,616,true,high,false
wj1SVUSc,3b6f54kms5pu5knddy3sw9ki4gws13,34hjijklp99tcvzuldw1ue7jypav4c,wj1SVUSc,2020-0188,2020-05-07,20:01:03,20:18:23,NA,incomplete,78,shape,1,right,Blue_Plus_Grid_1.jpg,Purple_Circle_Grid_2.jpg,Green_Plus_Dots_3.jpg,right,1034,true,high,false
wj1SVUSc,3b6f54kms5pu5knddy3sw9ki4gws13,34hjijklp99tcvzuldw1ue7jypav4c,wj1SVUSc,2020-0188,2020-05-07,20:01:03,20:18:23,NA,incomplete,79,shape,0,right,Purple_Circle_Stripes_1.jpg,Red_Triangle_Stripes_4.jpg,Green_Circle_Chess_3.jpg,left,990,false,high,false
wj1SVUSc,3b6f54kms5pu5knddy3sw9ki4gws13,34hjijklp99tcvzuldw1ue7jypav4c,wj1SVUSc,2020-0188,2020-05-07,20:01:03,20:18:23,NA,incomplete,80,filling,1,right,Blue_Triangle_Chess_3.jpg,Purple_Triangle_Dots_2.jpg,Green_Circle_Chess_1.jpg,right,1033,true,high,false
wj1SVUSc,3b6f54kms5pu5knddy3sw9ki4gws13,34hjijklp99tcvzuldw1ue7jypav4c,wj1SVUSc,2020-0188,2020-05-07,20:01:03,20:18:23,NA,incomplete,81,filling,1,left,Purple_Plus_Stripes_3.jpg,Red_Triangle_Stripes_2.jpg,Blue_Plus_Chess_1.jpg,left,925,true,high,false
wj1SVUSc,3b6f54kms5pu5knddy3sw9ki4gws13,34hjijklp99tcvzuldw1ue7jypav4c,wj1SVUSc,2020-0188,2020-05-07,20:01:03,20:18:23,NA,incomplete,82,filling,0,right,Red_Star_Grid_1.jpg,Blue_Star_Dots_4.jpg,Purple_Plus_Grid_3.jpg,right,1027,true,high,false
wj1SVUSc,3b6f54kms5pu5knddy3sw9ki4gws13,34hjijklp99tcvzuldw1ue7jypav4c,wj1SVUSc,2020-0188,2020-05-07,20:01:03,20:18:23,NA,incomplete,83,filling,1,left,Blue_Circle_Grid_2.jpg,Green_Plus_Grid_3.jpg,Red_Circle_Dots_1.jpg,right,672,false,high,false
wj1SVUSc,3b6f54kms5pu5knddy3sw9ki4gws13,34hjijklp99tcvzuldw1ue7jypav4c,wj1SVUSc,2020-0188,2020-05-07,20:01:03,20:18:23,NA,incomplete,84,filling,1,right,Red_Plus_Grid_4.jpg,Blue_Plus_Dots_1.jpg,Green_Triangle_Grid_3.jpg,left,922,false,high,false
wj1SVUSc,3b6f54kms5pu5knddy3sw9ki4gws13,34hjijklp99tcvzuldw1ue7jypav4c,wj1SVUSc,2020-0188,2020-05-07,20:01:03,20:18:23,NA,incomplete,85,filling,1,right,Blue_Triangle_Chess_2.jpg,Red_Triangle_Stripes_4.jpg,Green_Circle_Chess_1.jpg,right,866,true,high,false
wj1SVUSc,3b6f54kms5pu5knddy3sw9ki4gws13,34hjijklp99tcvzuldw1ue7jypav4c,wj1SVUSc,2020-0188,2020-05-07,20:01:03,20:18:23,NA,incomplete,86,filling,1,right,Green_Plus_Chess_2.jpg,Red_Plus_Dots_4.jpg,Blue_Triangle_Chess_3.jpg,right,904,true,high,false
wj1SVUSc,3b6f54kms5pu5knddy3sw9ki4gws13,34hjijklp99tcvzuldw1ue7jypav4c,wj1SVUSc,2020-0188,2020-05-07,20:01:03,20:18:23,NA,incomplete,87,filling,1,right,Blue_Star_Chess_1.jpg,Green_Star_Stripes_2.jpg,Purple_Circle_Chess_4.jpg,right,1047,true,high,false
wj1SVUSc,3b6f54kms5pu5knddy3sw9ki4gws13,34hjijklp99tcvzuldw1ue7jypav4c,wj1SVUSc,2020-0188,2020-05-07,20:01:03,20:18:23,NA,incomplete,88,filling,1,left,Purple_Plus_Chess_3.jpg,Red_Star_Chess_2.jpg,Blue_Plus_Grid_1.jpg,left,1007,true,high,false
wj1SVUSc,3b6f54kms5pu5knddy3sw9ki4gws13,34hjijklp99tcvzuldw1ue7jypav4c,wj1SVUSc,2020-0188,2020-05-07,20:01:03,20:18:23,NA,incomplete,89,filling,0,right,Green_Plus_Dots_3.jpg,Red_Plus_Stripes_2.jpg,Blue_Circle_Dots_4.jpg,right,980,true,high,false
wj1SVUSc,3b6f54kms5pu5knddy3sw9ki4gws13,34hjijklp99tcvzuldw1ue7jypav4c,wj1SVUSc,2020-0188,2020-05-07,20:01:03,20:18:23,NA,incomplete,90,shape,1,left,Green_Plus_Stripes_1.jpg,Blue_Plus_Grid_3.jpg,Red_Circle_Stripes_2.jpg,left,665,true,high,false
wj1SVUSc,3b6f54kms5pu5knddy3sw9ki4gws13,34hjijklp99tcvzuldw1ue7jypav4c,wj1SVUSc,2020-0188,2020-05-07,20:01:03,20:18:23,NA,incomplete,91,shape,1,left,Red_Plus_Stripes_4.jpg,Purple_Plus_Dots_2.jpg,Blue_Star_Stripes_1.jpg,left,716,true,high,false
wj1SVUSc,3b6f54kms5pu5knddy3sw9ki4gws13,34hjijklp99tcvzuldw1ue7jypav4c,wj1SVUSc,2020-0188,2020-05-07,20:01:03,20:18:23,NA,incomplete,92,shape,1,left,Purple_Star_Dots_4.jpg,Red_Star_Stripes_1.jpg,Blue_Plus_Dots_3.jpg,left,941,true,high,false
wj1SVUSc,3b6f54kms5pu5knddy3sw9ki4gws13,34hjijklp99tcvzuldw1ue7jypav4c,wj1SVUSc,2020-0188,2020-05-07,20:01:03,20:18:23,NA,incomplete,93,shape,1,right,Blue_Triangle_Stripes_3.jpg,Green_Star_Stripes_1.jpg,Red_Triangle_Chess_4.jpg,right,733,true,high,false
wj1SVUSc,3b6f54kms5pu5knddy3sw9ki4gws13,34hjijklp99tcvzuldw1ue7jypav4c,wj1SVUSc,2020-0188,2020-05-07,20:01:03,20:18:23,NA,incomplete,94,shape,1,right,Green_Triangle_Grid_1.jpg,Purple_Circle_Grid_4.jpg,Red_Triangle_Dots_3.jpg,right,829,true,high,false
wj1SVUSc,3b6f54kms5pu5knddy3sw9ki4gws13,34hjijklp99tcvzuldw1ue7jypav4c,wj1SVUSc,2020-0188,2020-05-07,20:01:03,20:18:23,NA,incomplete,95,shape,1,right,Green_Star_Chess_4.jpg,Red_Triangle_Chess_2.jpg,Blue_Star_Stripes_3.jpg,right,703,true,high,false
wj1SVUSc,3b6f54kms5pu5knddy3sw9ki4gws13,34hjijklp99tcvzuldw1ue7jypav4c,wj1SVUSc,2020-0188,2020-05-07,20:01:03,20:18:23,NA,incomplete,96,shape,0,right,Blue_Triangle_Dots_3.jpg,Purple_Circle_Dots_2.jpg,Green_Triangle_Stripes_1.jpg,right,676,true,high,false
wj1SVUSc,3b6f54kms5pu5knddy3sw9ki4gws13,34hjijklp99tcvzuldw1ue7jypav4c,wj1SVUSc,2020-0188,2020-05-07,20:01:03,20:18:23,NA,incomplete,97,shape,1,right,Green_Plus_Dots_2.jpg,Purple_Star_Dots_3.jpg,Blue_Plus_Grid_1.jpg,right,843,true,high,false
wj1SVUSc,3b6f54kms5pu5knddy3sw9ki4gws13,34hjijklp99tcvzuldw1ue7jypav4c,wj1SVUSc,2020-0188,2020-05-07,20:01:03,20:18:23,NA,incomplete,98,shape,1,right,Green_Plus_Chess_1.jpg,Blue_Circle_Chess_3.jpg,Purple_Plus_Grid_4.jpg,right,791,true,high,false
wj1SVUSc,3b6f54kms5pu5knddy3sw9ki4gws13,34hjijklp99tcvzuldw1ue7jypav4c,wj1SVUSc,2020-0188,2020-05-07,20:01:03,20:18:23,NA,incomplete,99,shape,0,left,Blue_Triangle_Dots_2.jpg,Green_Triangle_Stripes_4.jpg,Red_Plus_Dots_1.jpg,left,766,true,high,false
wj1SVUSc,3b6f54kms5pu5knddy3sw9ki4gws13,34hjijklp99tcvzuldw1ue7jypav4c,wj1SVUSc,2020-0188,2020-05-07,20:01:03,20:18:23,NA,incomplete,100,filling,1,right,Purple_Star_Chess_3.jpg,Red_Star_Stripes_1.jpg,Blue_Plus_Chess_4.jpg,right,956,true,high,false
wj1SVUSc,3b6f54kms5pu5knddy3sw9ki4gws13,34hjijklp99tcvzuldw1ue7jypav4c,wj1SVUSc,2020-0188,2020-05-07,20:01:03,20:18:23,NA,incomplete,101,filling,1,left,Green_Circle_Chess_3.jpg,Blue_Star_Chess_2.jpg,Red_Circle_Stripes_4.jpg,left,882,true,high,false
wj1SVUSc,3b6f54kms5pu5knddy3sw9ki4gws13,34hjijklp99tcvzuldw1ue7jypav4c,wj1SVUSc,2020-0188,2020-05-07,20:01:03,20:18:23,NA,incomplete,102,filling,1,left,Red_Star_Grid_3.jpg,Blue_Plus_Grid_1.jpg,Purple_Star_Dots_2.jpg,left,849,true,high,false
wj1SVUSc,3b6f54kms5pu5knddy3sw9ki4gws13,34hjijklp99tcvzuldw1ue7jypav4c,wj1SVUSc,2020-0188,2020-05-07,20:01:03,20:18:23,NA,incomplete,103,filling,1,right,Purple_Plus_Chess_2.jpg,Green_Plus_Dots_4.jpg,Red_Circle_Chess_3.jpg,right,1024,true,high,false
wj1SVUSc,3b6f54kms5pu5knddy3sw9ki4gws13,34hjijklp99tcvzuldw1ue7jypav4c,wj1SVUSc,2020-0188,2020-05-07,20:01:03,20:18:23,NA,incomplete,104,filling,1,left,Blue_Star_Grid_4.jpg,Purple_Circle_Grid_1.jpg,Red_Star_Dots_2.jpg,left,916,true,high,false
wj1SVUSc,3b6f54kms5pu5knddy3sw9ki4gws13,34hjijklp99tcvzuldw1ue7jypav4c,wj1SVUSc,2020-0188,2020-05-07,20:01:03,20:18:23,NA,incomplete,105,filling,1,right,Blue_Plus_Grid_1.jpg,Red_Plus_Stripes_2.jpg,Purple_Circle_Grid_4.jpg,right,1075,true,high,false
wj1SVUSc,3b6f54kms5pu5knddy3sw9ki4gws13,34hjijklp99tcvzuldw1ue7jypav4c,wj1SVUSc,2020-0188,2020-05-07,20:01:03,20:18:23,NA,incomplete,106,filling,1,left,Blue_Triangle_Chess_3.jpg,Red_Star_Chess_2.jpg,Purple_Triangle_Grid_1.jpg,left,811,true,high,false
wj1SVUSc,3b6f54kms5pu5knddy3sw9ki4gws13,34hjijklp99tcvzuldw1ue7jypav4c,wj1SVUSc,2020-0188,2020-05-07,20:01:03,20:18:23,NA,incomplete,107,filling,1,left,Green_Plus_Grid_1.jpg,Purple_Circle_Grid_4.jpg,Blue_Plus_Stripes_3.jpg,left,940,true,high,false
wj1SVUSc,3b6f54kms5pu5knddy3sw9ki4gws13,34hjijklp99tcvzuldw1ue7jypav4c,wj1SVUSc,2020-0188,2020-05-07,20:01:03,20:18:23,NA,incomplete,108,filling,1,right,Green_Circle_Grid_2.jpg,Purple_Circle_Dots_1.jpg,Red_Plus_Grid_3.jpg,right,821,true,high,false
wj1SVUSc,3b6f54kms5pu5knddy3sw9ki4gws13,34hjijklp99tcvzuldw1ue7jypav4c,wj1SVUSc,2020-0188,2020-05-07,20:01:03,20:18:23,NA,incomplete,109,filling,1,left,Blue_Circle_Chess_3.jpg,Green_Star_Chess_1.jpg,Red_Circle_Grid_2.jpg,left,911,true,high,false
wj1SVUSc,3b6f54kms5pu5knddy3sw9ki4gws13,34hjijklp99tcvzuldw1ue7jypav4c,wj1SVUSc,2020-0188,2020-05-07,20:01:03,20:18:23,NA,incomplete,110,shape,1,left,Purple_Plus_Stripes_3.jpg,Blue_Plus_Dots_1.jpg,Green_Star_Stripes_4.jpg,right,944,false,high,false
wj1SVUSc,3b6f54kms5pu5knddy3sw9ki4gws13,34hjijklp99tcvzuldw1ue7jypav4c,wj1SVUSc,2020-0188,2020-05-07,20:01:03,20:18:23,NA,incomplete,111,shape,1,left,Red_Plus_Chess_1.jpg,Green_Plus_Dots_3.jpg,Purple_Triangle_Chess_4.jpg,left,675,true,high,false
wj1SVUSc,3b6f54kms5pu5knddy3sw9ki4gws13,34hjijklp99tcvzuldw1ue7jypav4c,wj1SVUSc,2020-0188,2020-05-07,20:01:03,20:18:23,NA,incomplete,112,shape,1,right,Green_Star_Stripes_4.jpg,Purple_Plus_Stripes_3.jpg,Blue_Star_Dots_2.jpg,right,770,true,high,false
wj1SVUSc,3b6f54kms5pu5knddy3sw9ki4gws13,34hjijklp99tcvzuldw1ue7jypav4c,wj1SVUSc,2020-0188,2020-05-07,20:01:03,20:18:23,NA,incomplete,113,shape,1,left,Red_Circle_Dots_4.jpg,Green_Circle_Stripes_1.jpg,Blue_Plus_Dots_2.jpg,left,675,true,high,false
wj1SVUSc,3b6f54kms5pu5knddy3sw9ki4gws13,34hjijklp99tcvzuldw1ue7jypav4c,wj1SVUSc,2020-0188,2020-05-07,20:01:03,20:18:23,NA,incomplete,114,shape,1,left,Red_Plus_Chess_1.jpg,Green_Plus_Dots_3.jpg,Blue_Triangle_Chess_2.jpg,left,666,true,high,false
wj1SVUSc,3b6f54kms5pu5knddy3sw9ki4gws13,34hjijklp99tcvzuldw1ue7jypav4c,wj1SVUSc,2020-0188,2020-05-07,20:01:03,20:18:23,NA,incomplete,115,shape,1,left,Red_Star_Stripes_4.jpg,Blue_Star_Dots_1.jpg,Purple_Plus_Stripes_3.jpg,left,843,true,high,false
wj1SVUSc,3b6f54kms5pu5knddy3sw9ki4gws13,34hjijklp99tcvzuldw1ue7jypav4c,wj1SVUSc,2020-0188,2020-05-07,20:01:03,20:18:23,NA,incomplete,116,shape,1,right,Blue_Triangle_Chess_3.jpg,Purple_Plus_Chess_1.jpg,Green_Triangle_Dots_4.jpg,right,692,true,high,false
wj1SVUSc,3b6f54kms5pu5knddy3sw9ki4gws13,34hjijklp99tcvzuldw1ue7jypav4c,wj1SVUSc,2020-0188,2020-05-07,20:01:03,20:18:23,NA,incomplete,117,shape,1,left,Red_Star_Grid_3.jpg,Purple_Star_Stripes_4.jpg,Blue_Circle_Grid_2.jpg,left,717,true,high,false
wj1SVUSc,3b6f54kms5pu5knddy3sw9ki4gws13,34hjijklp99tcvzuldw1ue7jypav4c,wj1SVUSc,2020-0188,2020-05-07,20:01:03,20:18:23,NA,incomplete,118,shape,1,left,Purple_Plus_Chess_4.jpg,Red_Plus_Dots_3.jpg,Blue_Triangle_Chess_2.jpg,left,660,true,high,false
wj1SVUSc,3b6f54kms5pu5knddy3sw9ki4gws13,34hjijklp99tcvzuldw1ue7jypav4c,wj1SVUSc,2020-0188,2020-05-07,20:01:03,20:18:23,NA,incomplete,119,shape,1,left,Green_Plus_Stripes_4.jpg,Red_Plus_Grid_1.jpg,Blue_Triangle_Stripes_3.jpg,left,695,true,high,false
wj1SVUSc,3b6f54kms5pu5knddy3sw9ki4gws13,34hjijklp99tcvzuldw1ue7jypav4c,wj1SVUSc,2020-0188,2020-05-07,20:01:03,20:18:23,NA,incomplete,120,filling,1,right,Purple_Triangle_Dots_4.jpg,Blue_Triangle_Chess_1.jpg,Red_Plus_Dots_2.jpg,left,772,false,high,false
wj1SVUSc,3b6f54kms5pu5knddy3sw9ki4gws13,34hjijklp99tcvzuldw1ue7jypav4c,wj1SVUSc,2020-0188,2020-05-07,20:01:03,20:18:23,NA,incomplete,121,filling,1,left,Green_Plus_Dots_1.jpg,Red_Triangle_Dots_2.jpg,Blue_Plus_Stripes_3.jpg,left,748,true,high,false
wj1SVUSc,3b6f54kms5pu5knddy3sw9ki4gws13,34hjijklp99tcvzuldw1ue7jypav4c,wj1SVUSc,2020-0188,2020-05-07,20:01:03,20:18:23,NA,incomplete,122,filling,0,left,Green_Circle_Stripes_2.jpg,Red_Star_Stripes_4.jpg,Purple_Circle_Chess_3.jpg,right,894,false,high,false
wj1SVUSc,3b6f54kms5pu5knddy3sw9ki4gws13,34hjijklp99tcvzuldw1ue7jypav4c,wj1SVUSc,2020-0188,2020-05-07,20:01:03,20:18:23,NA,incomplete,123,filling,1,left,Blue_Plus_Stripes_2.jpg,Red_Star_Stripes_1.jpg,Green_Plus_Chess_3.jpg,left,1076,true,high,false
wj1SVUSc,3b6f54kms5pu5knddy3sw9ki4gws13,34hjijklp99tcvzuldw1ue7jypav4c,wj1SVUSc,2020-0188,2020-05-07,20:01:03,20:18:23,NA,incomplete,124,filling,1,left,Green_Circle_Chess_3.jpg,Purple_Plus_Chess_2.jpg,Red_Circle_Stripes_4.jpg,left,926,true,high,false
wj1SVUSc,3b6f54kms5pu5knddy3sw9ki4gws13,34hjijklp99tcvzuldw1ue7jypav4c,wj1SVUSc,2020-0188,2020-05-07,20:01:03,20:18:23,NA,incomplete,125,filling,0,left,Green_Circle_Dots_1.jpg,Blue_Star_Dots_3.jpg,Purple_Circle_Chess_2.jpg,left,1026,true,high,false
wj1SVUSc,3b6f54kms5pu5knddy3sw9ki4gws13,34hjijklp99tcvzuldw1ue7jypav4c,wj1SVUSc,2020-0188,2020-05-07,20:01:03,20:18:23,NA,incomplete,126,filling,1,right,Red_Plus_Grid_4.jpg,Green_Plus_Stripes_2.jpg,Blue_Triangle_Grid_3.jpg,left,699,false,high,false
wj1SVUSc,3b6f54kms5pu5knddy3sw9ki4gws13,34hjijklp99tcvzuldw1ue7jypav4c,wj1SVUSc,2020-0188,2020-05-07,20:01:03,20:18:23,NA,incomplete,127,filling,0,right,Red_Star_Grid_2.jpg,Blue_Star_Dots_1.jpg,Green_Circle_Grid_4.jpg,right,963,true,high,false
wj1SVUSc,3b6f54kms5pu5knddy3sw9ki4gws13,34hjijklp99tcvzuldw1ue7jypav4c,wj1SVUSc,2020-0188,2020-05-07,20:01:03,20:18:23,NA,incomplete,128,filling,1,left,Green_Circle_Stripes_2.jpg,Red_Plus_Stripes_1.jpg,Blue_Circle_Chess_3.jpg,right,739,false,high,false
wj1SVUSc,3b6f54kms5pu5knddy3sw9ki4gws13,34hjijklp99tcvzuldw1ue7jypav4c,wj1SVUSc,2020-0188,2020-05-07,20:01:03,20:18:23,NA,incomplete,129,filling,0,left,Purple_Triangle_Grid_3.jpg,Green_Circle_Grid_1.jpg,Red_Triangle_Chess_4.jpg,left,1035,true,high,false
wj1SVUSc,3b6f54kms5pu5knddy3sw9ki4gws13,34hjijklp99tcvzuldw1ue7jypav4c,wj1SVUSc,2020-0188,2020-05-07,20:01:03,20:18:23,NA,incomplete,130,filling,1,right,Red_Triangle_Dots_3.jpg,Blue_Triangle_Stripes_2.jpg,Green_Star_Dots_4.jpg,left,678,false,high,false
wj1SVUSc,3b6f54kms5pu5knddy3sw9ki4gws13,34hjijklp99tcvzuldw1ue7jypav4c,wj1SVUSc,2020-0188,2020-05-07,20:01:03,20:18:23,NA,incomplete,131,filling,1,left,Red_Triangle_Grid_1.jpg,Green_Plus_Grid_2.jpg,Blue_Triangle_Stripes_3.jpg,left,903,true,high,false
wj1SVUSc,3b6f54kms5pu5knddy3sw9ki4gws13,34hjijklp99tcvzuldw1ue7jypav4c,wj1SVUSc,2020-0188,2020-05-07,20:01:03,20:18:23,NA,incomplete,132,filling,1,left,Red_Circle_Stripes_3.jpg,Green_Plus_Stripes_1.jpg,Blue_Circle_Chess_4.jpg,left,914,true,high,false
wj1SVUSc,3b6f54kms5pu5knddy3sw9ki4gws13,34hjijklp99tcvzuldw1ue7jypav4c,wj1SVUSc,2020-0188,2020-05-07,20:01:03,20:18:23,NA,incomplete,133,filling,1,left,Green_Star_Stripes_3.jpg,Purple_Circle_Stripes_2.jpg,Red_Star_Grid_1.jpg,left,873,true,high,false
wj1SVUSc,3b6f54kms5pu5knddy3sw9ki4gws13,34hjijklp99tcvzuldw1ue7jypav4c,wj1SVUSc,2020-0188,2020-05-07,20:01:03,20:18:23,NA,incomplete,134,filling,1,left,Blue_Circle_Chess_4.jpg,Green_Star_Chess_2.jpg,Red_Circle_Stripes_1.jpg,left,1013,true,high,false
wj1SVUSc,3b6f54kms5pu5knddy3sw9ki4gws13,34hjijklp99tcvzuldw1ue7jypav4c,wj1SVUSc,2020-0188,2020-05-07,20:01:03,20:18:23,NA,incomplete,135,filling,1,left,Blue_Triangle_Grid_1.jpg,Red_Circle_Grid_2.jpg,Purple_Triangle_Dots_3.jpg,left,803,true,high,false
wj1SVUSc,3b6f54kms5pu5knddy3sw9ki4gws13,34hjijklp99tcvzuldw1ue7jypav4c,wj1SVUSc,2020-0188,2020-05-07,20:01:03,20:18:23,NA,incomplete,136,filling,0,right,Purple_Star_Grid_1.jpg,Blue_Star_Stripes_4.jpg,Red_Circle_Grid_3.jpg,right,965,true,high,false
wj1SVUSc,3b6f54kms5pu5knddy3sw9ki4gws13,34hjijklp99tcvzuldw1ue7jypav4c,wj1SVUSc,2020-0188,2020-05-07,20:01:03,20:18:23,NA,incomplete,137,filling,1,right,Blue_Star_Stripes_3.jpg,Red_Star_Grid_1.jpg,Green_Triangle_Stripes_2.jpg,right,1157,true,high,false
wj1SVUSc,3b6f54kms5pu5knddy3sw9ki4gws13,34hjijklp99tcvzuldw1ue7jypav4c,wj1SVUSc,2020-0188,2020-05-07,20:01:03,20:18:23,NA,incomplete,138,filling,0,left,Red_Triangle_Dots_3.jpg,Green_Plus_Dots_2.jpg,Blue_Triangle_Chess_1.jpg,left,1170,true,high,false
wj1SVUSc,3b6f54kms5pu5knddy3sw9ki4gws13,34hjijklp99tcvzuldw1ue7jypav4c,wj1SVUSc,2020-0188,2020-05-07,20:01:03,20:18:23,NA,incomplete,139,filling,1,left,Purple_Triangle_Stripes_1.jpg,Blue_Plus_Stripes_2.jpg,Red_Triangle_Grid_3.jpg,left,921,true,high,false
wj1SVUSc,3b6f54kms5pu5knddy3sw9ki4gws13,34hjijklp99tcvzuldw1ue7jypav4c,wj1SVUSc,2020-0188,2020-05-07,20:01:03,20:18:23,NA,incomplete,140,shape,1,right,Blue_Circle_Dots_4.jpg,Red_Star_Dots_3.jpg,Purple_Circle_Chess_1.jpg,left,1138,false,high,false
wj1SVUSc,3b6f54kms5pu5knddy3sw9ki4gws13,34hjijklp99tcvzuldw1ue7jypav4c,wj1SVUSc,2020-0188,2020-05-07,20:01:03,20:18:23,NA,incomplete,141,shape,1,left,Green_Circle_Dots_2.jpg,Blue_Circle_Chess_4.jpg,Purple_Triangle_Dots_1.jpg,right,1208,false,high,false
wj1SVUSc,3b6f54kms5pu5knddy3sw9ki4gws13,34hjijklp99tcvzuldw1ue7jypav4c,wj1SVUSc,2020-0188,2020-05-07,20:01:03,20:18:23,NA,incomplete,142,shape,1,right,Red_Circle_Chess_1.jpg,Green_Triangle_Chess_3.jpg,Blue_Circle_Grid_2.jpg,right,817,true,high,false
wj1SVUSc,3b6f54kms5pu5knddy3sw9ki4gws13,34hjijklp99tcvzuldw1ue7jypav4c,wj1SVUSc,2020-0188,2020-05-07,20:01:03,20:18:23,NA,incomplete,143,shape,1,left,Red_Star_Chess_1.jpg,Purple_Star_Dots_3.jpg,Green_Plus_Chess_2.jpg,left,655,true,high,false
wj1SVUSc,3b6f54kms5pu5knddy3sw9ki4gws13,34hjijklp99tcvzuldw1ue7jypav4c,wj1SVUSc,2020-0188,2020-05-07,20:01:03,20:18:23,NA,incomplete,144,shape,1,right,Green_Plus_Stripes_4.jpg,Blue_Triangle_Stripes_3.jpg,Purple_Plus_Dots_2.jpg,right,698,true,high,false
wj1SVUSc,3b6f54kms5pu5knddy3sw9ki4gws13,34hjijklp99tcvzuldw1ue7jypav4c,wj1SVUSc,2020-0188,2020-05-07,20:01:03,20:18:23,NA,incomplete,145,shape,1,left,Blue_Circle_Grid_2.jpg,Red_Circle_Dots_3.jpg,Green_Triangle_Grid_1.jpg,left,604,true,high,false
wj1SVUSc,3b6f54kms5pu5knddy3sw9ki4gws13,34hjijklp99tcvzuldw1ue7jypav4c,wj1SVUSc,2020-0188,2020-05-07,20:01:03,20:18:23,NA,incomplete,146,shape,1,left,Blue_Circle_Chess_1.jpg,Green_Circle_Stripes_4.jpg,Red_Star_Chess_2.jpg,left,627,true,high,false
wj1SVUSc,3b6f54kms5pu5knddy3sw9ki4gws13,34hjijklp99tcvzuldw1ue7jypav4c,wj1SVUSc,2020-0188,2020-05-07,20:01:03,20:18:23,NA,incomplete,147,shape,0,left,Blue_Plus_Chess_1.jpg,Red_Plus_Grid_2.jpg,Purple_Circle_Chess_3.jpg,left,1022,true,high,false
wj1SVUSc,3b6f54kms5pu5knddy3sw9ki4gws13,34hjijklp99tcvzuldw1ue7jypav4c,wj1SVUSc,2020-0188,2020-05-07,20:01:03,20:18:23,NA,incomplete,148,shape,1,right,Green_Star_Dots_4.jpg,Purple_Triangle_Dots_2.jpg,Blue_Star_Stripes_1.jpg,right,866,true,high,false
wj1SVUSc,3b6f54kms5pu5knddy3sw9ki4gws13,34hjijklp99tcvzuldw1ue7jypav4c,wj1SVUSc,2020-0188,2020-05-07,20:01:03,20:18:23,NA,incomplete,149,shape,1,right,Blue_Circle_Dots_2.jpg,Purple_Star_Dots_3.jpg,Red_Circle_Grid_4.jpg,right,1191,true,high,false
wj1SVUSc,3b6f54kms5pu5knddy3sw9ki4gws13,34hjijklp99tcvzuldw1ue7jypav4c,wj1SVUSc,2020-0188,2020-05-07,20:01:03,20:18:23,NA,incomplete,150,shape,1,right,Green_Triangle_Stripes_3.jpg,Purple_Circle_Stripes_4.jpg,Red_Triangle_Chess_2.jpg,right,906,true,high,false
wj1SVUSc,3b6f54kms5pu5knddy3sw9ki4gws13,34hjijklp99tcvzuldw1ue7jypav4c,wj1SVUSc,2020-0188,2020-05-07,20:01:03,20:18:23,NA,incomplete,151,shape,1,left,Purple_Star_Grid_3.jpg,Green_Star_Dots_4.jpg,Red_Plus_Grid_2.jpg,left,737,true,high,false
wj1SVUSc,3b6f54kms5pu5knddy3sw9ki4gws13,34hjijklp99tcvzuldw1ue7jypav4c,wj1SVUSc,2020-0188,2020-05-07,20:01:03,20:18:23,NA,incomplete,152,shape,1,left,Red_Triangle_Dots_4.jpg,Blue_Triangle_Grid_3.jpg,Green_Plus_Dots_1.jpg,left,705,true,high,false
wj1SVUSc,3b6f54kms5pu5knddy3sw9ki4gws13,34hjijklp99tcvzuldw1ue7jypav4c,wj1SVUSc,2020-0188,2020-05-07,20:01:03,20:18:23,NA,incomplete,153,shape,1,right,Red_Triangle_Stripes_4.jpg,Green_Circle_Stripes_2.jpg,Blue_Triangle_Dots_3.jpg,right,634,true,high,false
wj1SVUSc,3b6f54kms5pu5knddy3sw9ki4gws13,34hjijklp99tcvzuldw1ue7jypav4c,wj1SVUSc,2020-0188,2020-05-07,20:01:03,20:18:23,NA,incomplete,154,shape,0,left,Red_Circle_Stripes_2.jpg,Blue_Circle_Dots_1.jpg,Purple_Star_Stripes_4.jpg,left,648,true,high,false
wj1SVUSc,3b6f54kms5pu5knddy3sw9ki4gws13,34hjijklp99tcvzuldw1ue7jypav4c,wj1SVUSc,2020-0188,2020-05-07,20:01:03,20:18:23,NA,incomplete,155,shape,1,right,Purple_Circle_Chess_1.jpg,Green_Plus_Chess_3.jpg,Blue_Circle_Stripes_2.jpg,right,628,true,high,false
wj1SVUSc,3b6f54kms5pu5knddy3sw9ki4gws13,34hjijklp99tcvzuldw1ue7jypav4c,wj1SVUSc,2020-0188,2020-05-07,20:01:03,20:18:23,NA,incomplete,156,shape,0,left,Red_Triangle_Chess_2.jpg,Blue_Triangle_Stripes_1.jpg,Purple_Circle_Chess_3.jpg,left,784,true,high,false
wj1SVUSc,3b6f54kms5pu5knddy3sw9ki4gws13,34hjijklp99tcvzuldw1ue7jypav4c,wj1SVUSc,2020-0188,2020-05-07,20:01:03,20:18:23,NA,incomplete,157,shape,1,left,Purple_Star_Grid_1.jpg,Green_Star_Stripes_4.jpg,Blue_Circle_Grid_2.jpg,left,771,true,high,false
wj1SVUSc,3b6f54kms5pu5knddy3sw9ki4gws13,34hjijklp99tcvzuldw1ue7jypav4c,wj1SVUSc,2020-0188,2020-05-07,20:01:03,20:18:23,NA,incomplete,158,shape,1,right,Green_Star_Chess_1.jpg,Red_Triangle_Chess_2.jpg,Blue_Star_Dots_4.jpg,right,705,true,high,false
wj1SVUSc,3b6f54kms5pu5knddy3sw9ki4gws13,34hjijklp99tcvzuldw1ue7jypav4c,wj1SVUSc,2020-0188,2020-05-07,20:01:03,20:18:23,NA,incomplete,159,shape,1,left,Red_Plus_Grid_3.jpg,Purple_Plus_Chess_2.jpg,Blue_Triangle_Grid_1.jpg,left,731,true,high,false
wj1SVUSc,3b6f54kms5pu5knddy3sw9ki4gws13,34hjijklp99tcvzuldw1ue7jypav4c,wj1SVUSc,2020-0188,2020-05-07,20:01:03,20:18:23,NA,incomplete,160,filling,1,right,Red_Star_Chess_4.jpg,Blue_Star_Grid_2.jpg,Purple_Circle_Chess_3.jpg,left,717,false,high,false
wj1SVUSc,3b6f54kms5pu5knddy3sw9ki4gws13,34hjijklp99tcvzuldw1ue7jypav4c,wj1SVUSc,2020-0188,2020-05-07,20:01:03,20:18:23,NA,incomplete,161,filling,1,right,Green_Star_Stripes_1.jpg,Purple_Star_Dots_2.jpg,Red_Triangle_Stripes_3.jpg,left,666,false,high,false
wj1SVUSc,3b6f54kms5pu5knddy3sw9ki4gws13,34hjijklp99tcvzuldw1ue7jypav4c,wj1SVUSc,2020-0188,2020-05-07,20:01:03,20:18:23,NA,incomplete,162,filling,1,right,Blue_Star_Grid_1.jpg,Red_Star_Stripes_2.jpg,Purple_Circle_Grid_3.jpg,right,934,true,high,false
wj1SVUSc,3b6f54kms5pu5knddy3sw9ki4gws13,34hjijklp99tcvzuldw1ue7jypav4c,wj1SVUSc,2020-0188,2020-05-07,20:01:03,20:18:23,NA,incomplete,163,filling,1,left,Red_Star_Grid_4.jpg,Purple_Circle_Grid_3.jpg,Green_Star_Chess_2.jpg,left,917,true,high,false
wj1SVUSc,3b6f54kms5pu5knddy3sw9ki4gws13,34hjijklp99tcvzuldw1ue7jypav4c,wj1SVUSc,2020-0188,2020-05-07,20:01:03,20:18:23,NA,incomplete,164,filling,1,right,Green_Circle_Chess_3.jpg,Red_Circle_Dots_2.jpg,Purple_Triangle_Chess_1.jpg,right,778,true,high,false
wj1SVUSc,3b6f54kms5pu5knddy3sw9ki4gws13,34hjijklp99tcvzuldw1ue7jypav4c,wj1SVUSc,2020-0188,2020-05-07,20:01:03,20:18:23,NA,incomplete,165,filling,1,left,Green_Star_Stripes_2.jpg,Purple_Plus_Stripes_4.jpg,Blue_Star_Chess_3.jpg,left,895,true,high,false
wj1SVUSc,3b6f54kms5pu5knddy3sw9ki4gws13,34hjijklp99tcvzuldw1ue7jypav4c,wj1SVUSc,2020-0188,2020-05-07,20:01:03,20:18:23,NA,incomplete,166,filling,1,left,Purple_Plus_Stripes_4.jpg,Red_Triangle_Stripes_3.jpg,Blue_Plus_Dots_1.jpg,left,872,true,high,false
wj1SVUSc,3b6f54kms5pu5knddy3sw9ki4gws13,34hjijklp99tcvzuldw1ue7jypav4c,wj1SVUSc,2020-0188,2020-05-07,20:01:03,20:18:23,NA,incomplete,167,filling,1,left,Purple_Star_Grid_2.jpg,Green_Triangle_Grid_3.jpg,Red_Star_Chess_4.jpg,left,973,true,high,false
wj1SVUSc,3b6f54kms5pu5knddy3sw9ki4gws13,34hjijklp99tcvzuldw1ue7jypav4c,wj1SVUSc,2020-0188,2020-05-07,20:01:03,20:18:23,NA,incomplete,168,filling,1,right,Blue_Plus_Chess_1.jpg,Purple_Plus_Dots_2.jpg,Green_Star_Chess_4.jpg,right,1072,true,high,false
wj1SVUSc,3b6f54kms5pu5knddy3sw9ki4gws13,34hjijklp99tcvzuldw1ue7jypav4c,wj1SVUSc,2020-0188,2020-05-07,20:01:03,20:18:23,NA,incomplete,169,filling,1,left,Purple_Circle_Chess_1.jpg,Green_Triangle_Chess_4.jpg,Red_Circle_Grid_2.jpg,left,894,true,high,false
wj1SVUSc,3b6f54kms5pu5knddy3sw9ki4gws13,34hjijklp99tcvzuldw1ue7jypav4c,wj1SVUSc,2020-0188,2020-05-07,20:01:03,20:18:23,NA,incomplete,170,filling,1,right,Blue_Star_Chess_3.jpg,Red_Star_Stripes_2.jpg,Green_Plus_Chess_1.jpg,right,957,true,high,false
wj1SVUSc,3b6f54kms5pu5knddy3sw9ki4gws13,34hjijklp99tcvzuldw1ue7jypav4c,wj1SVUSc,2020-0188,2020-05-07,20:01:03,20:18:23,NA,incomplete,171,filling,1,left,Purple_Plus_Dots_3.jpg,Blue_Triangle_Dots_4.jpg,Red_Plus_Stripes_2.jpg,left,996,true,high,false
wj1SVUSc,3b6f54kms5pu5knddy3sw9ki4gws13,34hjijklp99tcvzuldw1ue7jypav4c,wj1SVUSc,2020-0188,2020-05-07,20:01:03,20:18:23,NA,incomplete,172,filling,0,right,Purple_Star_Stripes_2.jpg,Green_Star_Grid_3.jpg,Blue_Circle_Stripes_1.jpg,right,1192,true,high,false
wj1SVUSc,3b6f54kms5pu5knddy3sw9ki4gws13,34hjijklp99tcvzuldw1ue7jypav4c,wj1SVUSc,2020-0188,2020-05-07,20:01:03,20:18:23,NA,incomplete,173,filling,1,left,Red_Triangle_Chess_2.jpg,Purple_Circle_Chess_3.jpg,Green_Triangle_Grid_4.jpg,left,862,true,high,false
wj1SVUSc,3b6f54kms5pu5knddy3sw9ki4gws13,34hjijklp99tcvzuldw1ue7jypav4c,wj1SVUSc,2020-0188,2020-05-07,20:01:03,20:18:23,NA,incomplete,174,filling,1,left,Blue_Plus_Stripes_2.jpg,Purple_Triangle_Stripes_3.jpg,Green_Plus_Chess_1.jpg,left,832,true,high,false
wj1SVUSc,3b6f54kms5pu5knddy3sw9ki4gws13,34hjijklp99tcvzuldw1ue7jypav4c,wj1SVUSc,2020-0188,2020-05-07,20:01:03,20:18:23,NA,incomplete,175,filling,1,left,Purple_Circle_Grid_2.jpg,Red_Triangle_Grid_4.jpg,Blue_Circle_Dots_3.jpg,left,867,true,high,false
wj1SVUSc,3b6f54kms5pu5knddy3sw9ki4gws13,34hjijklp99tcvzuldw1ue7jypav4c,wj1SVUSc,2020-0188,2020-05-07,20:01:03,20:18:23,NA,incomplete,176,filling,1,right,Purple_Star_Dots_3.jpg,Red_Star_Grid_4.jpg,Blue_Triangle_Dots_1.jpg,left,1142,false,high,false
wj1SVUSc,3b6f54kms5pu5knddy3sw9ki4gws13,34hjijklp99tcvzuldw1ue7jypav4c,wj1SVUSc,2020-0188,2020-05-07,20:01:03,20:18:23,NA,incomplete,177,filling,1,left,Green_Plus_Stripes_3.jpg,Red_Star_Stripes_2.jpg,Blue_Plus_Chess_4.jpg,left,904,true,high,false
wj1SVUSc,3b6f54kms5pu5knddy3sw9ki4gws13,34hjijklp99tcvzuldw1ue7jypav4c,wj1SVUSc,2020-0188,2020-05-07,20:01:03,20:18:23,NA,incomplete,178,filling,1,left,Purple_Plus_Grid_4.jpg,Red_Circle_Grid_3.jpg,Blue_Plus_Dots_2.jpg,left,975,true,high,false
wj1SVUSc,3b6f54kms5pu5knddy3sw9ki4gws13,34hjijklp99tcvzuldw1ue7jypav4c,wj1SVUSc,2020-0188,2020-05-07,20:01:03,20:18:23,NA,incomplete,179,filling,0,right,Green_Plus_Grid_4.jpg,Purple_Plus_Chess_1.jpg,Red_Star_Grid_3.jpg,right,1071,true,high,false
wj1SVUSc,3b6f54kms5pu5knddy3sw9ki4gws13,34hjijklp99tcvzuldw1ue7jypav4c,wj1SVUSc,2020-0188,2020-05-07,20:01:03,20:18:23,NA,incomplete,180,shape,1,right,Red_Triangle_Chess_1.jpg,Green_Circle_Chess_4.jpg,Blue_Triangle_Grid_3.jpg,left,859,false,high,false
wj1SVUSc,3b6f54kms5pu5knddy3sw9ki4gws13,34hjijklp99tcvzuldw1ue7jypav4c,wj1SVUSc,2020-0188,2020-05-07,20:01:03,20:18:23,NA,incomplete,181,shape,1,left,Purple_Triangle_Stripes_3.jpg,Red_Triangle_Grid_2.jpg,Blue_Circle_Stripes_1.jpg,left,654,true,high,false
wj1SVUSc,3b6f54kms5pu5knddy3sw9ki4gws13,34hjijklp99tcvzuldw1ue7jypav4c,wj1SVUSc,2020-0188,2020-05-07,20:01:03,20:18:23,NA,incomplete,182,shape,1,right,Red_Triangle_Stripes_1.jpg,Green_Star_Stripes_4.jpg,Purple_Triangle_Dots_2.jpg,right,717,true,high,false
wj1SVUSc,3b6f54kms5pu5knddy3sw9ki4gws13,34hjijklp99tcvzuldw1ue7jypav4c,wj1SVUSc,2020-0188,2020-05-07,20:01:03,20:18:23,NA,incomplete,183,shape,1,right,Blue_Circle_Chess_3.jpg,Red_Triangle_Chess_4.jpg,Green_Circle_Grid_1.jpg,right,896,true,high,false
wj1SVUSc,3b6f54kms5pu5knddy3sw9ki4gws13,34hjijklp99tcvzuldw1ue7jypav4c,wj1SVUSc,2020-0188,2020-05-07,20:01:03,20:18:23,NA,incomplete,184,shape,1,right,Blue_Star_Chess_2.jpg,Red_Plus_Chess_4.jpg,Purple_Star_Dots_1.jpg,right,740,true,high,false
wj1SVUSc,3b6f54kms5pu5knddy3sw9ki4gws13,34hjijklp99tcvzuldw1ue7jypav4c,wj1SVUSc,2020-0188,2020-05-07,20:01:03,20:18:23,NA,incomplete,185,shape,1,left,Blue_Plus_Grid_2.jpg,Green_Plus_Dots_1.jpg,Red_Star_Grid_4.jpg,left,748,true,high,false
wj1SVUSc,3b6f54kms5pu5knddy3sw9ki4gws13,34hjijklp99tcvzuldw1ue7jypav4c,wj1SVUSc,2020-0188,2020-05-07,20:01:03,20:18:23,NA,incomplete,186,shape,1,right,Green_Star_Stripes_1.jpg,Purple_Circle_Stripes_2.jpg,Blue_Star_Dots_3.jpg,right,726,true,high,false
wj1SVUSc,3b6f54kms5pu5knddy3sw9ki4gws13,34hjijklp99tcvzuldw1ue7jypav4c,wj1SVUSc,2020-0188,2020-05-07,20:01:03,20:18:23,NA,incomplete,187,shape,1,left,Purple_Plus_Dots_4.jpg,Green_Plus_Chess_3.jpg,Blue_Circle_Dots_1.jpg,left,818,true,high,false
wj1SVUSc,3b6f54kms5pu5knddy3sw9ki4gws13,34hjijklp99tcvzuldw1ue7jypav4c,wj1SVUSc,2020-0188,2020-05-07,20:01:03,20:18:23,NA,incomplete,188,shape,1,right,Green_Circle_Dots_2.jpg,Purple_Plus_Dots_4.jpg,Blue_Circle_Chess_3.jpg,right,728,true,high,false
wj1SVUSc,3b6f54kms5pu5knddy3sw9ki4gws13,34hjijklp99tcvzuldw1ue7jypav4c,wj1SVUSc,2020-0188,2020-05-07,20:01:03,20:18:23,NA,incomplete,189,shape,1,right,Blue_Triangle_Grid_2.jpg,Green_Plus_Grid_1.jpg,Purple_Triangle_Chess_3.jpg,right,662,true,high,false
wj1SVUSc,3b6f54kms5pu5knddy3sw9ki4gws13,34hjijklp99tcvzuldw1ue7jypav4c,wj1SVUSc,2020-0188,2020-05-07,20:01:03,20:18:23,NA,incomplete,190,shape,0,right,Purple_Plus_Grid_3.jpg,Green_Triangle_Grid_1.jpg,Blue_Plus_Chess_2.jpg,right,653,true,high,false
wj1SVUSc,3b6f54kms5pu5knddy3sw9ki4gws13,34hjijklp99tcvzuldw1ue7jypav4c,wj1SVUSc,2020-0188,2020-05-07,20:01:03,20:18:23,NA,incomplete,191,shape,1,left,Red_Plus_Chess_1.jpg,Blue_Plus_Stripes_2.jpg,Purple_Circle_Chess_3.jpg,left,672,true,high,false
wj1SVUSc,3b6f54kms5pu5knddy3sw9ki4gws13,34hjijklp99tcvzuldw1ue7jypav4c,wj1SVUSc,2020-0188,2020-05-07,20:01:03,20:18:23,NA,incomplete,192,shape,0,left,Red_Triangle_Dots_3.jpg,Purple_Triangle_Stripes_1.jpg,Blue_Star_Dots_4.jpg,left,750,true,high,false
wj1SVUSc,3b6f54kms5pu5knddy3sw9ki4gws13,34hjijklp99tcvzuldw1ue7jypav4c,wj1SVUSc,2020-0188,2020-05-07,20:01:03,20:18:23,NA,incomplete,193,shape,1,left,Green_Circle_Grid_4.jpg,Purple_Circle_Stripes_3.jpg,Red_Plus_Grid_2.jpg,left,889,true,high,false
wj1SVUSc,3b6f54kms5pu5knddy3sw9ki4gws13,34hjijklp99tcvzuldw1ue7jypav4c,wj1SVUSc,2020-0188,2020-05-07,20:01:03,20:18:23,NA,incomplete,194,shape,1,right,Blue_Triangle_Stripes_3.jpg,Red_Plus_Stripes_2.jpg,Green_Triangle_Dots_1.jpg,right,703,true,high,false
wj1SVUSc,3b6f54kms5pu5knddy3sw9ki4gws13,34hjijklp99tcvzuldw1ue7jypav4c,wj1SVUSc,2020-0188,2020-05-07,20:01:03,20:18:23,NA,incomplete,195,shape,0,left,Green_Plus_Dots_4.jpg,Red_Plus_Chess_2.jpg,Purple_Circle_Dots_1.jpg,left,566,true,high,false
wj1SVUSc,3b6f54kms5pu5knddy3sw9ki4gws13,34hjijklp99tcvzuldw1ue7jypav4c,wj1SVUSc,2020-0188,2020-05-07,20:01:03,20:18:23,NA,incomplete,196,shape,1,right,Blue_Circle_Dots_4.jpg,Green_Star_Dots_3.jpg,Red_Circle_Chess_2.jpg,right,693,true,high,false
wj1SVUSc,3b6f54kms5pu5knddy3sw9ki4gws13,34hjijklp99tcvzuldw1ue7jypav4c,wj1SVUSc,2020-0188,2020-05-07,20:01:03,20:18:23,NA,incomplete,197,shape,1,left,Blue_Plus_Chess_1.jpg,Red_Plus_Grid_3.jpg,Green_Star_Chess_2.jpg,left,647,true,high,false
wj1SVUSc,3b6f54kms5pu5knddy3sw9ki4gws13,34hjijklp99tcvzuldw1ue7jypav4c,wj1SVUSc,2020-0188,2020-05-07,20:01:03,20:18:23,NA,incomplete,198,shape,0,right,Blue_Circle_Dots_1.jpg,Green_Triangle_Dots_2.jpg,Red_Circle_Grid_4.jpg,right,608,true,high,false
wj1SVUSc,3b6f54kms5pu5knddy3sw9ki4gws13,34hjijklp99tcvzuldw1ue7jypav4c,wj1SVUSc,2020-0188,2020-05-07,20:01:03,20:18:23,NA,incomplete,199,shape,1,left,Green_Star_Chess_4.jpg,Red_Star_Grid_1.jpg,Purple_Triangle_Chess_2.jpg,left,837,true,high,false
wj1SVUSc,3b6f54kms5pu5knddy3sw9ki4gws13,34hjijklp99tcvzuldw1ue7jypav4c,wj1SVUSc,2020-0188,2020-05-07,20:01:03,20:18:23,NA,incomplete,200,filling,1,right,Purple_Star_Dots_4.jpg,Red_Star_Stripes_2.jpg,Green_Triangle_Dots_3.jpg,left,712,false,high,false
wj1SVUSc,3b6f54kms5pu5knddy3sw9ki4gws13,34hjijklp99tcvzuldw1ue7jypav4c,wj1SVUSc,2020-0188,2020-05-07,20:01:03,20:18:23,NA,incomplete,201,filling,1,left,Blue_Triangle_Chess_3.jpg,Purple_Circle_Chess_2.jpg,Green_Triangle_Grid_4.jpg,right,644,false,high,false
wj1SVUSc,3b6f54kms5pu5knddy3sw9ki4gws13,34hjijklp99tcvzuldw1ue7jypav4c,wj1SVUSc,2020-0188,2020-05-07,20:01:03,20:18:23,NA,incomplete,202,filling,1,right,Purple_Plus_Dots_2.jpg,Blue_Plus_Chess_3.jpg,Green_Star_Dots_1.jpg,right,965,true,high,false
wj1SVUSc,3b6f54kms5pu5knddy3sw9ki4gws13,34hjijklp99tcvzuldw1ue7jypav4c,wj1SVUSc,2020-0188,2020-05-07,20:01:03,20:18:23,NA,incomplete,203,filling,1,right,Red_Star_Dots_2.jpg,Blue_Star_Grid_4.jpg,Purple_Circle_Dots_3.jpg,left,1155,false,high,false
wj1SVUSc,3b6f54kms5pu5knddy3sw9ki4gws13,34hjijklp99tcvzuldw1ue7jypav4c,wj1SVUSc,2020-0188,2020-05-07,20:01:03,20:18:23,NA,incomplete,204,filling,0,left,Purple_Star_Chess_1.jpg,Blue_Circle_Chess_2.jpg,Red_Star_Stripes_3.jpg,left,973,true,high,false
wj1SVUSc,3b6f54kms5pu5knddy3sw9ki4gws13,34hjijklp99tcvzuldw1ue7jypav4c,wj1SVUSc,2020-0188,2020-05-07,20:01:03,20:18:23,NA,incomplete,205,filling,1,left,Purple_Star_Grid_1.jpg,Green_Triangle_Grid_4.jpg,Blue_Star_Stripes_3.jpg,left,904,true,high,false
wj1SVUSc,3b6f54kms5pu5knddy3sw9ki4gws13,34hjijklp99tcvzuldw1ue7jypav4c,wj1SVUSc,2020-0188,2020-05-07,20:01:03,20:18:23,NA,incomplete,206,filling,1,right,Red_Star_Chess_1.jpg,Blue_Star_Grid_3.jpg,Purple_Circle_Chess_4.jpg,right,949,true,high,false
wj1SVUSc,3b6f54kms5pu5knddy3sw9ki4gws13,34hjijklp99tcvzuldw1ue7jypav4c,wj1SVUSc,2020-0188,2020-05-07,20:01:03,20:18:23,NA,incomplete,207,filling,1,left,Purple_Circle_Grid_1.jpg,Green_Triangle_Grid_3.jpg,Blue_Circle_Chess_2.jpg,left,829,true,high,false
wj1SVUSc,3b6f54kms5pu5knddy3sw9ki4gws13,34hjijklp99tcvzuldw1ue7jypav4c,wj1SVUSc,2020-0188,2020-05-07,20:01:03,20:18:23,NA,incomplete,208,filling,0,left,Red_Circle_Chess_1.jpg,Green_Plus_Chess_3.jpg,Blue_Circle_Grid_4.jpg,left,1010,true,high,false
wj1SVUSc,3b6f54kms5pu5knddy3sw9ki4gws13,34hjijklp99tcvzuldw1ue7jypav4c,wj1SVUSc,2020-0188,2020-05-07,20:01:03,20:18:23,NA,incomplete,209,filling,1,right,Blue_Triangle_Stripes_3.jpg,Red_Triangle_Chess_4.jpg,Green_Plus_Stripes_1.jpg,right,878,true,high,false
wj1SVUSc,3b6f54kms5pu5knddy3sw9ki4gws13,34hjijklp99tcvzuldw1ue7jypav4c,wj1SVUSc,2020-0188,2020-05-07,20:01:03,20:18:23,NA,incomplete,210,filling,1,left,Blue_Circle_Chess_2.jpg,Green_Triangle_Chess_1.jpg,Red_Circle_Grid_3.jpg,left,1034,true,high,false
wj1SVUSc,3b6f54kms5pu5knddy3sw9ki4gws13,34hjijklp99tcvzuldw1ue7jypav4c,wj1SVUSc,2020-0188,2020-05-07,20:01:03,20:18:23,NA,incomplete,211,filling,1,left,Blue_Circle_Grid_1.jpg,Purple_Plus_Grid_2.jpg,Red_Circle_Dots_3.jpg,right,1042,false,high,false
wj1SVUSc,3b6f54kms5pu5knddy3sw9ki4gws13,34hjijklp99tcvzuldw1ue7jypav4c,wj1SVUSc,2020-0188,2020-05-07,20:01:03,20:18:23,NA,incomplete,212,filling,1,right,Blue_Triangle_Chess_1.jpg,Purple_Triangle_Stripes_2.jpg,Red_Star_Chess_3.jpg,right,892,true,high,false
wj1SVUSc,3b6f54kms5pu5knddy3sw9ki4gws13,34hjijklp99tcvzuldw1ue7jypav4c,wj1SVUSc,2020-0188,2020-05-07,20:01:03,20:18:23,NA,incomplete,213,filling,1,right,Red_Circle_Chess_2.jpg,Purple_Circle_Stripes_4.jpg,Green_Triangle_Chess_3.jpg,right,965,true,high,false
wj1SVUSc,3b6f54kms5pu5knddy3sw9ki4gws13,34hjijklp99tcvzuldw1ue7jypav4c,wj1SVUSc,2020-0188,2020-05-07,20:01:03,20:18:23,NA,incomplete,214,filling,0,left,Purple_Plus_Grid_3.jpg,Green_Circle_Grid_4.jpg,Blue_Plus_Dots_1.jpg,left,807,true,high,false
wj1SVUSc,3b6f54kms5pu5knddy3sw9ki4gws13,34hjijklp99tcvzuldw1ue7jypav4c,wj1SVUSc,2020-0188,2020-05-07,20:01:03,20:18:23,NA,incomplete,215,filling,1,right,Blue_Plus_Stripes_3.jpg,Red_Plus_Grid_1.jpg,Green_Circle_Stripes_4.jpg,right,1072,true,high,false
wj1SVUSc,3b6f54kms5pu5knddy3sw9ki4gws13,34hjijklp99tcvzuldw1ue7jypav4c,wj1SVUSc,2020-0188,2020-05-07,20:01:03,20:18:23,NA,incomplete,216,filling,0,right,Green_Triangle_Dots_3.jpg,Red_Triangle_Grid_1.jpg,Purple_Star_Dots_2.jpg,right,915,true,high,false
wj1SVUSc,3b6f54kms5pu5knddy3sw9ki4gws13,34hjijklp99tcvzuldw1ue7jypav4c,wj1SVUSc,2020-0188,2020-05-07,20:01:03,20:18:23,NA,incomplete,217,filling,1,right,Green_Circle_Stripes_3.jpg,Red_Circle_Grid_4.jpg,Purple_Triangle_Stripes_1.jpg,right,987,true,high,false
wj1SVUSc,3b6f54kms5pu5knddy3sw9ki4gws13,34hjijklp99tcvzuldw1ue7jypav4c,wj1SVUSc,2020-0188,2020-05-07,20:01:03,20:18:23,NA,incomplete,218,filling,1,left,Red_Star_Stripes_4.jpg,Blue_Circle_Stripes_2.jpg,Green_Star_Dots_3.jpg,left,975,true,high,false
wj1SVUSc,3b6f54kms5pu5knddy3sw9ki4gws13,34hjijklp99tcvzuldw1ue7jypav4c,wj1SVUSc,2020-0188,2020-05-07,20:01:03,20:18:23,NA,incomplete,219,filling,1,left,Blue_Circle_Chess_3.jpg,Red_Plus_Chess_4.jpg,Green_Circle_Dots_2.jpg,left,900,true,high,false
wj1SVUSc,3b6f54kms5pu5knddy3sw9ki4gws13,34hjijklp99tcvzuldw1ue7jypav4c,wj1SVUSc,2020-0188,2020-05-07,20:01:03,20:18:23,NA,incomplete,220,shape,0,left,Red_Triangle_Chess_1.jpg,Blue_Triangle_Stripes_3.jpg,Green_Star_Chess_2.jpg,right,1047,false,high,false
wj1SVUSc,3b6f54kms5pu5knddy3sw9ki4gws13,34hjijklp99tcvzuldw1ue7jypav4c,wj1SVUSc,2020-0188,2020-05-07,20:01:03,20:18:23,NA,incomplete,221,shape,1,left,Purple_Triangle_Dots_1.jpg,Green_Triangle_Grid_2.jpg,Red_Circle_Dots_3.jpg,right,1131,false,high,false
wj1SVUSc,3b6f54kms5pu5knddy3sw9ki4gws13,34hjijklp99tcvzuldw1ue7jypav4c,wj1SVUSc,2020-0188,2020-05-07,20:01:03,20:18:23,NA,incomplete,222,shape,1,right,Red_Plus_Stripes_3.jpg,Green_Triangle_Stripes_4.jpg,Blue_Plus_Dots_1.jpg,left,863,false,high,false
wj1SVUSc,3b6f54kms5pu5knddy3sw9ki4gws13,34hjijklp99tcvzuldw1ue7jypav4c,wj1SVUSc,2020-0188,2020-05-07,20:01:03,20:18:23,NA,incomplete,223,shape,0,left,Purple_Star_Stripes_1.jpg,Red_Star_Chess_4.jpg,Blue_Circle_Stripes_3.jpg,left,722,true,high,false
wj1SVUSc,3b6f54kms5pu5knddy3sw9ki4gws13,34hjijklp99tcvzuldw1ue7jypav4c,wj1SVUSc,2020-0188,2020-05-07,20:01:03,20:18:23,NA,incomplete,224,shape,1,right,Green_Triangle_Stripes_1.jpg,Purple_Circle_Stripes_4.jpg,Red_Triangle_Chess_2.jpg,left,1064,false,high,false
wj1SVUSc,3b6f54kms5pu5knddy3sw9ki4gws13,34hjijklp99tcvzuldw1ue7jypav4c,wj1SVUSc,2020-0188,2020-05-07,20:01:03,20:18:23,NA,incomplete,225,shape,0,left,Green_Triangle_Grid_1.jpg,Blue_Triangle_Dots_2.jpg,Red_Star_Grid_3.jpg,left,678,true,high,false
wj1SVUSc,3b6f54kms5pu5knddy3sw9ki4gws13,34hjijklp99tcvzuldw1ue7jypav4c,wj1SVUSc,2020-0188,2020-05-07,20:01:03,20:18:23,NA,incomplete,226,shape,1,left,Blue_Star_Stripes_1.jpg,Green_Star_Grid_4.jpg,Purple_Circle_Stripes_2.jpg,right,823,false,high,false
wj1SVUSc,3b6f54kms5pu5knddy3sw9ki4gws13,34hjijklp99tcvzuldw1ue7jypav4c,wj1SVUSc,2020-0188,2020-05-07,20:01:03,20:18:23,NA,incomplete,227,shape,1,right,Purple_Star_Dots_1.jpg,Red_Circle_Dots_2.jpg,Blue_Star_Stripes_4.jpg,right,722,true,high,false
wj1SVUSc,3b6f54kms5pu5knddy3sw9ki4gws13,34hjijklp99tcvzuldw1ue7jypav4c,wj1SVUSc,2020-0188,2020-05-07,20:01:03,20:18:23,NA,incomplete,228,shape,1,left,Purple_Star_Chess_2.jpg,Blue_Star_Dots_3.jpg,Red_Circle_Chess_1.jpg,left,659,true,high,false
wj1SVUSc,3b6f54kms5pu5knddy3sw9ki4gws13,34hjijklp99tcvzuldw1ue7jypav4c,wj1SVUSc,2020-0188,2020-05-07,20:01:03,20:18:23,NA,incomplete,229,shape,1,left,Red_Triangle_Grid_3.jpg,Green_Triangle_Stripes_4.jpg,Blue_Plus_Grid_1.jpg,left,758,true,high,false
wj1SVUSc,3b6f54kms5pu5knddy3sw9ki4gws13,34hjijklp99tcvzuldw1ue7jypav4c,wj1SVUSc,2020-0188,2020-05-07,20:01:03,20:18:23,NA,incomplete,230,shape,1,left,Green_Star_Grid_3.jpg,Red_Star_Dots_1.jpg,Purple_Circle_Grid_2.jpg,left,633,true,high,false
wj1SVUSc,3b6f54kms5pu5knddy3sw9ki4gws13,34hjijklp99tcvzuldw1ue7jypav4c,wj1SVUSc,2020-0188,2020-05-07,20:01:03,20:18:23,NA,incomplete,231,shape,0,right,Red_Star_Grid_2.jpg,Green_Circle_Grid_3.jpg,Purple_Star_Dots_4.jpg,right,616,true,high,false
wj1SVUSc,3b6f54kms5pu5knddy3sw9ki4gws13,34hjijklp99tcvzuldw1ue7jypav4c,wj1SVUSc,2020-0188,2020-05-07,20:01:03,20:18:23,NA,incomplete,232,shape,1,right,Blue_Plus_Dots_2.jpg,Purple_Star_Dots_3.jpg,Green_Plus_Grid_4.jpg,right,814,true,high,false
wj1SVUSc,3b6f54kms5pu5knddy3sw9ki4gws13,34hjijklp99tcvzuldw1ue7jypav4c,wj1SVUSc,2020-0188,2020-05-07,20:01:03,20:18:23,NA,incomplete,233,shape,1,right,Blue_Plus_Stripes_3.jpg,Purple_Triangle_Stripes_2.jpg,Red_Plus_Dots_4.jpg,right,757,true,high,false
wj1SVUSc,3b6f54kms5pu5knddy3sw9ki4gws13,34hjijklp99tcvzuldw1ue7jypav4c,wj1SVUSc,2020-0188,2020-05-07,20:01:03,20:18:23,NA,incomplete,234,shape,1,right,Red_Circle_Grid_3.jpg,Blue_Plus_Grid_2.jpg,Green_Circle_Dots_1.jpg,right,710,true,high,false
wj1SVUSc,3b6f54kms5pu5knddy3sw9ki4gws13,34hjijklp99tcvzuldw1ue7jypav4c,wj1SVUSc,2020-0188,2020-05-07,20:01:03,20:18:23,NA,incomplete,235,shape,1,left,Purple_Triangle_Dots_1.jpg,Red_Triangle_Chess_4.jpg,Green_Star_Dots_3.jpg,left,643,true,high,false
wj1SVUSc,3b6f54kms5pu5knddy3sw9ki4gws13,34hjijklp99tcvzuldw1ue7jypav4c,wj1SVUSc,2020-0188,2020-05-07,20:01:03,20:18:23,NA,incomplete,236,shape,0,right,Red_Star_Stripes_4.jpg,Green_Circle_Stripes_3.jpg,Purple_Star_Chess_1.jpg,right,719,true,high,false
wj1SVUSc,3b6f54kms5pu5knddy3sw9ki4gws13,34hjijklp99tcvzuldw1ue7jypav4c,wj1SVUSc,2020-0188,2020-05-07,20:01:03,20:18:23,NA,incomplete,237,shape,1,left,Green_Triangle_Grid_1.jpg,Blue_Triangle_Chess_2.jpg,Red_Star_Grid_3.jpg,left,603,true,high,false
wj1SVUSc,3b6f54kms5pu5knddy3sw9ki4gws13,34hjijklp99tcvzuldw1ue7jypav4c,wj1SVUSc,2020-0188,2020-05-07,20:01:03,20:18:23,NA,incomplete,238,shape,1,left,Blue_Star_Chess_2.jpg,Red_Star_Grid_4.jpg,Purple_Plus_Chess_3.jpg,left,1060,true,high,false
wj1SVUSc,3b6f54kms5pu5knddy3sw9ki4gws13,34hjijklp99tcvzuldw1ue7jypav4c,wj1SVUSc,2020-0188,2020-05-07,20:01:03,20:18:23,NA,incomplete,239,shape,1,left,Blue_Plus_Chess_1.jpg,Green_Plus_Grid_2.jpg,Purple_Circle_Chess_4.jpg,left,707,true,high,false
wj1SVUSc,3b6f54kms5pu5knddy3sw9ki4gws13,34hjijklp99tcvzuldw1ue7jypav4c,wj1SVUSc,2020-0188,2020-05-07,20:01:03,20:18:23,1013601,1040823,NA,NA,NA,NA,NA,NA,NA,NA,NA,NA,NA,undefined
