workerId,hitId,assignmentId,subject,studyid,exp_date,exp_start,exp_end,time_start,time_end,trial,type,reward_validity,answer,image_top,image_left,image_right,response,response_time,response_acc,volatility,age,race,gender,ethnicity,color,vision,neuro,practice
bPsPJkV6,3ki0jd2zv4v3t84iv1hywef3wi676h,34j10vatjjbvfu2sk34visivo5ciqk,bPsPJkV6,2020-0188,2020-11-23,22:00:00,22:28:47,NA,incomplete,0,color,1,left,Blue_Plus_Chess_3.jpg,Blue_Star_Grid_1.jpg,Red_Triangle_Chess_2.jpg,right,1784,false,NA,NA,NA,NA,NA,NA,NA,NA,true
bPsPJkV6,3ki0jd2zv4v3t84iv1hywef3wi676h,34j10vatjjbvfu2sk34visivo5ciqk,bPsPJkV6,2020-0188,2020-11-23,22:00:00,22:28:47,NA,incomplete,1,color,1,right,Blue_Triangle_Dots_4.jpg,Green_Star_Dots_2.jpg,Blue_Circle_Stripes_3.jpg,right,1281,true,NA,NA,NA,NA,NA,NA,NA,NA,true
bPsPJkV6,3ki0jd2zv4v3t84iv1hywef3wi676h,34j10vatjjbvfu2sk34visivo5ciqk,bPsPJkV6,2020-0188,2020-11-23,22:00:00,22:28:47,NA,incomplete,2,color,1,right,Green_Triangle_Grid_3.jpg,Blue_Star_Grid_2.jpg,Green_Circle_Stripes_4.jpg,right,1154,true,NA,NA,NA,NA,NA,NA,NA,NA,true
bPsPJkV6,3ki0jd2zv4v3t84iv1hywef3wi676h,34j10vatjjbvfu2sk34visivo5ciqk,bPsPJkV6,2020-0188,2020-11-23,22:00:00,22:28:47,NA,incomplete,3,color,0,left,Green_Triangle_Stripes_1.jpg,Green_Circle_Grid_2.jpg,Blue_Plus_Stripes_4.jpg,left,1072,true,NA,NA,NA,NA,NA,NA,NA,NA,true
bPsPJkV6,3ki0jd2zv4v3t84iv1hywef3wi676h,34j10vatjjbvfu2sk34visivo5ciqk,bPsPJkV6,2020-0188,2020-11-23,22:00:00,22:28:47,NA,incomplete,4,color,1,right,Purple_Star_Chess_2.jpg,Red_Circle_Chess_4.jpg,Purple_Triangle_Grid_3.jpg,right,916,true,NA,NA,NA,NA,NA,NA,NA,NA,true
bPsPJkV6,3ki0jd2zv4v3t84iv1hywef3wi676h,34j10vatjjbvfu2sk34visivo5ciqk,bPsPJkV6,2020-0188,2020-11-23,22:00:00,22:28:47,NA,incomplete,5,color,1,right,Purple_Star_Grid_2.jpg,Blue_Plus_Grid_1.jpg,Purple_Triangle_Stripes_3.jpg,right,1057,true,NA,NA,NA,NA,NA,NA,NA,NA,true
bPsPJkV6,3ki0jd2zv4v3t84iv1hywef3wi676h,34j10vatjjbvfu2sk34visivo5ciqk,bPsPJkV6,2020-0188,2020-11-23,22:00:00,22:28:47,NA,incomplete,6,color,1,right,Purple_Triangle_Dots_4.jpg,Green_Star_Dots_2.jpg,Purple_Circle_Grid_3.jpg,right,1097.0000000000582,true,NA,NA,NA,NA,NA,NA,NA,NA,true
bPsPJkV6,3ki0jd2zv4v3t84iv1hywef3wi676h,34j10vatjjbvfu2sk34visivo5ciqk,bPsPJkV6,2020-0188,2020-11-23,22:00:00,22:28:47,NA,incomplete,7,color,0,left,Green_Triangle_Grid_3.jpg,Green_Star_Dots_1.jpg,Blue_Circle_Grid_2.jpg,left,1009.0000000000582,true,NA,NA,NA,NA,NA,NA,NA,NA,true
bPsPJkV6,3ki0jd2zv4v3t84iv1hywef3wi676h,34j10vatjjbvfu2sk34visivo5ciqk,bPsPJkV6,2020-0188,2020-11-23,22:00:00,22:28:47,NA,incomplete,8,color,1,right,Green_Circle_Chess_3.jpg,Purple_Triangle_Chess_2.jpg,Green_Star_Grid_1.jpg,right,1224.9999999999418,true,NA,NA,NA,NA,NA,NA,NA,NA,true
bPsPJkV6,3ki0jd2zv4v3t84iv1hywef3wi676h,34j10vatjjbvfu2sk34visivo5ciqk,bPsPJkV6,2020-0188,2020-11-23,22:00:00,22:28:47,NA,incomplete,9,color,1,left,Blue_Circle_Grid_1.jpg,Blue_Plus_Dots_3.jpg,Red_Triangle_Grid_4.jpg,left,1027.0000000000582,true,NA,NA,NA,NA,NA,NA,NA,NA,true
bPsPJkV6,3ki0jd2zv4v3t84iv1hywef3wi676h,34j10vatjjbvfu2sk34visivo5ciqk,bPsPJkV6,2020-0188,2020-11-23,22:00:00,22:28:47,NA,incomplete,10,color,1,right,Purple_Circle_Grid_2.jpg,Green_Plus_Grid_1.jpg,Purple_Star_Stripes_3.jpg,right,1000.9999999999418,true,NA,NA,NA,NA,NA,NA,NA,NA,true
bPsPJkV6,3ki0jd2zv4v3t84iv1hywef3wi676h,34j10vatjjbvfu2sk34visivo5ciqk,bPsPJkV6,2020-0188,2020-11-23,22:00:00,22:28:47,NA,incomplete,11,color,1,left,Purple_Triangle_Grid_1.jpg,Purple_Plus_Chess_3.jpg,Green_Star_Grid_2.jpg,left,962,true,NA,NA,NA,NA,NA,NA,NA,NA,true
bPsPJkV6,3ki0jd2zv4v3t84iv1hywef3wi676h,34j10vatjjbvfu2sk34visivo5ciqk,bPsPJkV6,2020-0188,2020-11-23,22:00:00,22:28:47,NA,incomplete,12,color,1,left,Green_Triangle_Grid_4.jpg,Green_Star_Stripes_3.jpg,Red_Circle_Grid_2.jpg,left,1198.0000000000582,true,NA,NA,NA,NA,NA,NA,NA,NA,true
bPsPJkV6,3ki0jd2zv4v3t84iv1hywef3wi676h,34j10vatjjbvfu2sk34visivo5ciqk,bPsPJkV6,2020-0188,2020-11-23,22:00:00,22:28:47,NA,incomplete,13,color,1,left,Blue_Triangle_Grid_2.jpg,Blue_Plus_Stripes_4.jpg,Red_Circle_Grid_3.jpg,left,1148,true,NA,NA,NA,NA,NA,NA,NA,NA,true
bPsPJkV6,3ki0jd2zv4v3t84iv1hywef3wi676h,34j10vatjjbvfu2sk34visivo5ciqk,bPsPJkV6,2020-0188,2020-11-23,22:00:00,22:28:47,NA,incomplete,14,color,1,left,Blue_Circle_Dots_2.jpg,Blue_Triangle_Grid_1.jpg,Purple_Plus_Dots_4.jpg,left,1164.9999999999418,true,NA,NA,NA,NA,NA,NA,NA,NA,true
bPsPJkV6,3ki0jd2zv4v3t84iv1hywef3wi676h,34j10vatjjbvfu2sk34visivo5ciqk,bPsPJkV6,2020-0188,2020-11-23,22:00:00,22:28:47,NA,incomplete,15,color,0,left,Red_Plus_Stripes_1.jpg,Red_Triangle_Chess_3.jpg,Purple_Star_Stripes_2.jpg,left,1123.9999999999418,true,NA,NA,NA,NA,NA,NA,NA,NA,true
bPsPJkV6,3ki0jd2zv4v3t84iv1hywef3wi676h,34j10vatjjbvfu2sk34visivo5ciqk,bPsPJkV6,2020-0188,2020-11-23,22:00:00,22:28:47,NA,incomplete,16,color,0,right,Green_Plus_Dots_3.jpg,Red_Circle_Dots_1.jpg,Green_Triangle_Stripes_2.jpg,right,964,true,NA,NA,NA,NA,NA,NA,NA,NA,true
bPsPJkV6,3ki0jd2zv4v3t84iv1hywef3wi676h,34j10vatjjbvfu2sk34visivo5ciqk,bPsPJkV6,2020-0188,2020-11-23,22:00:00,22:28:47,NA,incomplete,17,color,1,left,Green_Circle_Stripes_1.jpg,Green_Star_Grid_3.jpg,Blue_Plus_Stripes_4.jpg,left,1136,true,NA,NA,NA,NA,NA,NA,NA,NA,true
bPsPJkV6,3ki0jd2zv4v3t84iv1hywef3wi676h,34j10vatjjbvfu2sk34visivo5ciqk,bPsPJkV6,2020-0188,2020-11-23,22:00:00,22:28:47,NA,incomplete,18,color,1,left,Red_Triangle_Chess_1.jpg,Red_Circle_Dots_4.jpg,Purple_Plus_Chess_2.jpg,left,1181.0000000000582,true,NA,NA,NA,NA,NA,NA,NA,NA,true
bPsPJkV6,3ki0jd2zv4v3t84iv1hywef3wi676h,34j10vatjjbvfu2sk34visivo5ciqk,bPsPJkV6,2020-0188,2020-11-23,22:00:00,22:28:47,NA,incomplete,19,color,1,right,Blue_Star_Chess_1.jpg,Green_Circle_Chess_4.jpg,Blue_Plus_Grid_2.jpg,right,1421.0000000000582,true,NA,NA,NA,NA,NA,NA,NA,NA,true
bPsPJkV6,3ki0jd2zv4v3t84iv1hywef3wi676h,34j10vatjjbvfu2sk34visivo5ciqk,bPsPJkV6,2020-0188,2020-11-23,22:00:00,22:28:47,NA,incomplete,20,filling,1,right,Blue_Star_Chess_3.jpg,Blue_Triangle_Stripes_1.jpg,Purple_Circle_Chess_4.jpg,right,1798.9999999999418,true,NA,NA,NA,NA,NA,NA,NA,NA,true
bPsPJkV6,3ki0jd2zv4v3t84iv1hywef3wi676h,34j10vatjjbvfu2sk34visivo5ciqk,bPsPJkV6,2020-0188,2020-11-23,22:00:00,22:28:47,NA,incomplete,21,filling,1,left,Blue_Plus_Grid_3.jpg,Green_Star_Grid_2.jpg,Blue_Triangle_Stripes_1.jpg,left,1540.0000000000582,true,NA,NA,NA,NA,NA,NA,NA,NA,true
bPsPJkV6,3ki0jd2zv4v3t84iv1hywef3wi676h,34j10vatjjbvfu2sk34visivo5ciqk,bPsPJkV6,2020-0188,2020-11-23,22:00:00,22:28:47,NA,incomplete,22,filling,1,left,Green_Plus_Chess_1.jpg,Blue_Star_Chess_2.jpg,Green_Triangle_Grid_3.jpg,left,1493,true,NA,NA,NA,NA,NA,NA,NA,NA,true
bPsPJkV6,3ki0jd2zv4v3t84iv1hywef3wi676h,34j10vatjjbvfu2sk34visivo5ciqk,bPsPJkV6,2020-0188,2020-11-23,22:00:00,22:28:47,NA,incomplete,23,filling,0,right,Purple_Circle_Grid_1.jpg,Purple_Star_Stripes_3.jpg,Red_Plus_Grid_2.jpg,right,1579.0000000000582,true,NA,NA,NA,NA,NA,NA,NA,NA,true
bPsPJkV6,3ki0jd2zv4v3t84iv1hywef3wi676h,34j10vatjjbvfu2sk34visivo5ciqk,bPsPJkV6,2020-0188,2020-11-23,22:00:00,22:28:47,NA,incomplete,24,filling,1,left,Red_Circle_Grid_3.jpg,Purple_Star_Grid_2.jpg,Red_Triangle_Stripes_4.jpg,left,1719,true,NA,NA,NA,NA,NA,NA,NA,NA,true
bPsPJkV6,3ki0jd2zv4v3t84iv1hywef3wi676h,34j10vatjjbvfu2sk34visivo5ciqk,bPsPJkV6,2020-0188,2020-11-23,22:00:00,22:28:47,NA,incomplete,25,filling,1,left,Blue_Circle_Grid_2.jpg,Purple_Plus_Grid_3.jpg,Blue_Star_Chess_1.jpg,left,1464,true,NA,NA,NA,NA,NA,NA,NA,NA,true
bPsPJkV6,3ki0jd2zv4v3t84iv1hywef3wi676h,34j10vatjjbvfu2sk34visivo5ciqk,bPsPJkV6,2020-0188,2020-11-23,22:00:00,22:28:47,NA,incomplete,26,filling,1,left,Purple_Triangle_Stripes_3.jpg,Red_Plus_Stripes_2.jpg,Purple_Circle_Chess_1.jpg,left,1514,true,NA,NA,NA,NA,NA,NA,NA,NA,true
bPsPJkV6,3ki0jd2zv4v3t84iv1hywef3wi676h,34j10vatjjbvfu2sk34visivo5ciqk,bPsPJkV6,2020-0188,2020-11-23,22:00:00,22:28:47,NA,incomplete,27,filling,0,left,Green_Circle_Grid_4.jpg,Purple_Star_Grid_2.jpg,Green_Plus_Chess_3.jpg,left,1451,true,NA,NA,NA,NA,NA,NA,NA,NA,true
bPsPJkV6,3ki0jd2zv4v3t84iv1hywef3wi676h,34j10vatjjbvfu2sk34visivo5ciqk,bPsPJkV6,2020-0188,2020-11-23,22:00:00,22:28:47,NA,incomplete,28,filling,1,left,Purple_Star_Chess_4.jpg,Green_Plus_Chess_3.jpg,Purple_Triangle_Dots_1.jpg,left,1674,true,NA,NA,NA,NA,NA,NA,NA,NA,true
bPsPJkV6,3ki0jd2zv4v3t84iv1hywef3wi676h,34j10vatjjbvfu2sk34visivo5ciqk,bPsPJkV6,2020-0188,2020-11-23,22:00:00,22:28:47,NA,incomplete,29,filling,1,right,Green_Triangle_Grid_3.jpg,Green_Circle_Stripes_4.jpg,Red_Star_Grid_2.jpg,right,1698,true,NA,NA,NA,NA,NA,NA,NA,NA,true
bPsPJkV6,3ki0jd2zv4v3t84iv1hywef3wi676h,34j10vatjjbvfu2sk34visivo5ciqk,bPsPJkV6,2020-0188,2020-11-23,22:00:00,22:28:47,NA,incomplete,30,filling,1,right,Blue_Triangle_Stripes_3.jpg,Blue_Star_Chess_4.jpg,Red_Plus_Stripes_1.jpg,right,1505.9999999999418,true,NA,NA,NA,NA,NA,NA,NA,NA,true
bPsPJkV6,3ki0jd2zv4v3t84iv1hywef3wi676h,34j10vatjjbvfu2sk34visivo5ciqk,bPsPJkV6,2020-0188,2020-11-23,22:00:00,22:28:47,NA,incomplete,31,filling,0,right,Green_Triangle_Chess_4.jpg,Green_Plus_Stripes_3.jpg,Purple_Circle_Chess_2.jpg,right,1416,true,NA,NA,NA,NA,NA,NA,NA,NA,true
bPsPJkV6,3ki0jd2zv4v3t84iv1hywef3wi676h,34j10vatjjbvfu2sk34visivo5ciqk,bPsPJkV6,2020-0188,2020-11-23,22:00:00,22:28:47,NA,incomplete,32,filling,1,right,Red_Star_Grid_2.jpg,Red_Triangle_Stripes_3.jpg,Green_Plus_Grid_4.jpg,right,1532,true,NA,NA,NA,NA,NA,NA,NA,NA,true
bPsPJkV6,3ki0jd2zv4v3t84iv1hywef3wi676h,34j10vatjjbvfu2sk34visivo5ciqk,bPsPJkV6,2020-0188,2020-11-23,22:00:00,22:28:47,NA,incomplete,33,filling,1,right,Blue_Circle_Stripes_1.jpg,Blue_Triangle_Chess_4.jpg,Green_Star_Stripes_2.jpg,right,1752,true,NA,NA,NA,NA,NA,NA,NA,NA,true
bPsPJkV6,3ki0jd2zv4v3t84iv1hywef3wi676h,34j10vatjjbvfu2sk34visivo5ciqk,bPsPJkV6,2020-0188,2020-11-23,22:00:00,22:28:47,NA,incomplete,34,filling,1,right,Green_Circle_Dots_4.jpg,Green_Star_Grid_1.jpg,Red_Triangle_Dots_2.jpg,right,1794,true,NA,NA,NA,NA,NA,NA,NA,NA,true
bPsPJkV6,3ki0jd2zv4v3t84iv1hywef3wi676h,34j10vatjjbvfu2sk34visivo5ciqk,bPsPJkV6,2020-0188,2020-11-23,22:00:00,22:28:47,NA,incomplete,35,filling,1,right,Blue_Triangle_Chess_2.jpg,Blue_Star_Stripes_1.jpg,Purple_Circle_Chess_4.jpg,right,1394.9999999999418,true,NA,NA,NA,NA,NA,NA,NA,NA,true
bPsPJkV6,3ki0jd2zv4v3t84iv1hywef3wi676h,34j10vatjjbvfu2sk34visivo5ciqk,bPsPJkV6,2020-0188,2020-11-23,22:00:00,22:28:47,NA,incomplete,36,filling,1,left,Purple_Triangle_Chess_3.jpg,Red_Star_Chess_2.jpg,Purple_Circle_Stripes_1.jpg,left,1706.9999999999418,true,NA,NA,NA,NA,NA,NA,NA,NA,true
bPsPJkV6,3ki0jd2zv4v3t84iv1hywef3wi676h,34j10vatjjbvfu2sk34visivo5ciqk,bPsPJkV6,2020-0188,2020-11-23,22:00:00,22:28:47,NA,incomplete,37,filling,1,left,Red_Circle_Grid_2.jpg,Green_Plus_Grid_3.jpg,Red_Triangle_Stripes_1.jpg,right,1747,false,NA,NA,NA,NA,NA,NA,NA,NA,true
bPsPJkV6,3ki0jd2zv4v3t84iv1hywef3wi676h,34j10vatjjbvfu2sk34visivo5ciqk,bPsPJkV6,2020-0188,2020-11-23,22:00:00,22:28:47,NA,incomplete,38,filling,0,left,Blue_Circle_Grid_4.jpg,Purple_Triangle_Grid_2.jpg,Blue_Star_Dots_3.jpg,none,0,false,NA,NA,NA,NA,NA,NA,NA,NA,true
bPsPJkV6,3ki0jd2zv4v3t84iv1hywef3wi676h,34j10vatjjbvfu2sk34visivo5ciqk,bPsPJkV6,2020-0188,2020-11-23,22:00:00,22:28:47,NA,incomplete,39,filling,1,right,Red_Plus_Grid_2.jpg,Red_Circle_Chess_4.jpg,Blue_Triangle_Grid_1.jpg,right,1439.0000000000582,true,NA,NA,NA,NA,NA,NA,NA,NA,true
bPsPJkV6,3ki0jd2zv4v3t84iv1hywef3wi676h,34j10vatjjbvfu2sk34visivo5ciqk,bPsPJkV6,2020-0188,2020-11-23,22:00:00,22:28:47,NA,incomplete,0,color,1,left,Purple_Circle_Chess_4.jpg,Purple_Plus_Grid_2.jpg,Green_Star_Chess_1.jpg,left,1386.9999999999418,true,high,NA,NA,NA,NA,NA,NA,NA,false
bPsPJkV6,3ki0jd2zv4v3t84iv1hywef3wi676h,34j10vatjjbvfu2sk34visivo5ciqk,bPsPJkV6,2020-0188,2020-11-23,22:00:00,22:28:47,NA,incomplete,1,color,1,left,Purple_Circle_Grid_2.jpg,Purple_Star_Stripes_4.jpg,Red_Plus_Grid_3.jpg,left,1490.0000000000582,true,high,NA,NA,NA,NA,NA,NA,NA,false
bPsPJkV6,3ki0jd2zv4v3t84iv1hywef3wi676h,34j10vatjjbvfu2sk34visivo5ciqk,bPsPJkV6,2020-0188,2020-11-23,22:00:00,22:28:47,NA,incomplete,2,color,1,right,Red_Triangle_Chess_3.jpg,Green_Plus_Chess_2.jpg,Red_Circle_Stripes_4.jpg,right,1178.9999999999418,true,high,NA,NA,NA,NA,NA,NA,NA,false
bPsPJkV6,3ki0jd2zv4v3t84iv1hywef3wi676h,34j10vatjjbvfu2sk34visivo5ciqk,bPsPJkV6,2020-0188,2020-11-23,22:00:00,22:28:47,NA,incomplete,3,color,1,right,Purple_Triangle_Dots_3.jpg,Red_Plus_Dots_1.jpg,Purple_Circle_Grid_4.jpg,right,1117.0000000000582,true,high,NA,NA,NA,NA,NA,NA,NA,false
bPsPJkV6,3ki0jd2zv4v3t84iv1hywef3wi676h,34j10vatjjbvfu2sk34visivo5ciqk,bPsPJkV6,2020-0188,2020-11-23,22:00:00,22:28:47,NA,incomplete,4,color,1,left,Green_Plus_Stripes_4.jpg,Green_Star_Dots_2.jpg,Purple_Triangle_Stripes_1.jpg,left,1032.0000000000582,true,high,NA,NA,NA,NA,NA,NA,NA,false
bPsPJkV6,3ki0jd2zv4v3t84iv1hywef3wi676h,34j10vatjjbvfu2sk34visivo5ciqk,bPsPJkV6,2020-0188,2020-11-23,22:00:00,22:28:47,NA,incomplete,5,color,1,left,Blue_Circle_Grid_1.jpg,Blue_Triangle_Dots_2.jpg,Green_Plus_Grid_4.jpg,left,1135,true,high,NA,NA,NA,NA,NA,NA,NA,false
bPsPJkV6,3ki0jd2zv4v3t84iv1hywef3wi676h,34j10vatjjbvfu2sk34visivo5ciqk,bPsPJkV6,2020-0188,2020-11-23,22:00:00,22:28:47,NA,incomplete,6,color,1,left,Purple_Star_Chess_3.jpg,Purple_Circle_Grid_1.jpg,Red_Plus_Chess_2.jpg,left,1169,true,high,NA,NA,NA,NA,NA,NA,NA,false
bPsPJkV6,3ki0jd2zv4v3t84iv1hywef3wi676h,34j10vatjjbvfu2sk34visivo5ciqk,bPsPJkV6,2020-0188,2020-11-23,22:00:00,22:28:47,NA,incomplete,7,color,1,right,Purple_Plus_Dots_1.jpg,Red_Star_Dots_2.jpg,Purple_Triangle_Chess_4.jpg,right,1471.9999999999418,true,high,NA,NA,NA,NA,NA,NA,NA,false
bPsPJkV6,3ki0jd2zv4v3t84iv1hywef3wi676h,34j10vatjjbvfu2sk34visivo5ciqk,bPsPJkV6,2020-0188,2020-11-23,22:00:00,22:28:47,NA,incomplete,8,color,1,left,Purple_Plus_Chess_2.jpg,Purple_Circle_Stripes_4.jpg,Blue_Star_Chess_3.jpg,left,938,true,high,NA,NA,NA,NA,NA,NA,NA,false
bPsPJkV6,3ki0jd2zv4v3t84iv1hywef3wi676h,34j10vatjjbvfu2sk34visivo5ciqk,bPsPJkV6,2020-0188,2020-11-23,22:00:00,22:28:47,NA,incomplete,9,color,1,right,Red_Circle_Chess_2.jpg,Purple_Plus_Chess_1.jpg,Red_Star_Dots_3.jpg,right,1063.9999999999418,true,high,NA,NA,NA,NA,NA,NA,NA,false
bPsPJkV6,3ki0jd2zv4v3t84iv1hywef3wi676h,34j10vatjjbvfu2sk34visivo5ciqk,bPsPJkV6,2020-0188,2020-11-23,22:00:00,22:28:47,NA,incomplete,10,filling,1,right,Red_Circle_Dots_4.jpg,Red_Plus_Chess_1.jpg,Green_Triangle_Dots_3.jpg,left,990,false,high,NA,NA,NA,NA,NA,NA,NA,false
bPsPJkV6,3ki0jd2zv4v3t84iv1hywef3wi676h,34j10vatjjbvfu2sk34visivo5ciqk,bPsPJkV6,2020-0188,2020-11-23,22:00:00,22:28:47,NA,incomplete,11,filling,1,left,Blue_Star_Stripes_2.jpg,Green_Circle_Stripes_3.jpg,Blue_Plus_Dots_4.jpg,right,1009,false,high,NA,NA,NA,NA,NA,NA,NA,false
bPsPJkV6,3ki0jd2zv4v3t84iv1hywef3wi676h,34j10vatjjbvfu2sk34visivo5ciqk,bPsPJkV6,2020-0188,2020-11-23,22:00:00,22:28:47,NA,incomplete,12,filling,0,right,Blue_Triangle_Chess_4.jpg,Blue_Circle_Stripes_3.jpg,Red_Plus_Chess_1.jpg,right,1327,true,high,NA,NA,NA,NA,NA,NA,NA,false
bPsPJkV6,3ki0jd2zv4v3t84iv1hywef3wi676h,34j10vatjjbvfu2sk34visivo5ciqk,bPsPJkV6,2020-0188,2020-11-23,22:00:00,22:28:47,NA,incomplete,13,filling,1,right,Blue_Triangle_Stripes_4.jpg,Blue_Plus_Grid_2.jpg,Red_Star_Stripes_1.jpg,left,1434.9999999999418,false,high,NA,NA,NA,NA,NA,NA,NA,false
bPsPJkV6,3ki0jd2zv4v3t84iv1hywef3wi676h,34j10vatjjbvfu2sk34visivo5ciqk,bPsPJkV6,2020-0188,2020-11-23,22:00:00,22:28:47,NA,incomplete,14,filling,1,right,Purple_Triangle_Grid_3.jpg,Purple_Star_Dots_2.jpg,Red_Plus_Grid_1.jpg,right,1461.9999999999418,true,high,NA,NA,NA,NA,NA,NA,NA,false
bPsPJkV6,3ki0jd2zv4v3t84iv1hywef3wi676h,34j10vatjjbvfu2sk34visivo5ciqk,bPsPJkV6,2020-0188,2020-11-23,22:00:00,22:28:47,NA,incomplete,15,filling,1,left,Blue_Plus_Chess_1.jpg,Red_Circle_Chess_4.jpg,Blue_Star_Dots_2.jpg,left,1550.9999999999418,true,high,NA,NA,NA,NA,NA,NA,NA,false
bPsPJkV6,3ki0jd2zv4v3t84iv1hywef3wi676h,34j10vatjjbvfu2sk34visivo5ciqk,bPsPJkV6,2020-0188,2020-11-23,22:00:00,22:28:47,NA,incomplete,16,filling,0,left,Green_Circle_Grid_4.jpg,Purple_Triangle_Grid_1.jpg,Green_Star_Dots_2.jpg,left,1439,true,high,NA,NA,NA,NA,NA,NA,NA,false
bPsPJkV6,3ki0jd2zv4v3t84iv1hywef3wi676h,34j10vatjjbvfu2sk34visivo5ciqk,bPsPJkV6,2020-0188,2020-11-23,22:00:00,22:28:47,NA,incomplete,17,filling,1,left,Purple_Plus_Chess_4.jpg,Green_Circle_Chess_1.jpg,Purple_Star_Grid_2.jpg,left,1731.9999999999418,true,high,NA,NA,NA,NA,NA,NA,NA,false
bPsPJkV6,3ki0jd2zv4v3t84iv1hywef3wi676h,34j10vatjjbvfu2sk34visivo5ciqk,bPsPJkV6,2020-0188,2020-11-23,22:00:00,22:28:47,NA,incomplete,18,filling,1,left,Blue_Triangle_Stripes_1.jpg,Purple_Star_Stripes_4.jpg,Blue_Plus_Chess_3.jpg,left,1620,true,high,NA,NA,NA,NA,NA,NA,NA,false
bPsPJkV6,3ki0jd2zv4v3t84iv1hywef3wi676h,34j10vatjjbvfu2sk34visivo5ciqk,bPsPJkV6,2020-0188,2020-11-23,22:00:00,22:28:47,NA,incomplete,19,filling,1,right,Purple_Star_Stripes_1.jpg,Purple_Circle_Grid_2.jpg,Blue_Triangle_Stripes_4.jpg,right,1514.0000000000582,true,high,NA,NA,NA,NA,NA,NA,NA,false
bPsPJkV6,3ki0jd2zv4v3t84iv1hywef3wi676h,34j10vatjjbvfu2sk34visivo5ciqk,bPsPJkV6,2020-0188,2020-11-23,22:00:00,22:28:47,NA,incomplete,20,color,1,right,Green_Star_Chess_3.jpg,Purple_Circle_Chess_4.jpg,Green_Plus_Stripes_1.jpg,left,1409,false,high,NA,NA,NA,NA,NA,NA,NA,false
bPsPJkV6,3ki0jd2zv4v3t84iv1hywef3wi676h,34j10vatjjbvfu2sk34visivo5ciqk,bPsPJkV6,2020-0188,2020-11-23,22:00:00,22:28:47,NA,incomplete,21,color,0,right,Red_Star_Dots_1.jpg,Green_Triangle_Dots_4.jpg,Red_Plus_Chess_3.jpg,left,1443.9999999999418,false,high,NA,NA,NA,NA,NA,NA,NA,false
bPsPJkV6,3ki0jd2zv4v3t84iv1hywef3wi676h,34j10vatjjbvfu2sk34visivo5ciqk,bPsPJkV6,2020-0188,2020-11-23,22:00:00,22:28:47,NA,incomplete,22,color,0,right,Blue_Circle_Chess_4.jpg,Green_Plus_Chess_3.jpg,Blue_Triangle_Stripes_1.jpg,left,1506.9999999999418,false,high,NA,NA,NA,NA,NA,NA,NA,false
bPsPJkV6,3ki0jd2zv4v3t84iv1hywef3wi676h,34j10vatjjbvfu2sk34visivo5ciqk,bPsPJkV6,2020-0188,2020-11-23,22:00:00,22:28:47,NA,incomplete,23,color,1,left,Purple_Plus_Chess_2.jpg,Purple_Circle_Dots_1.jpg,Blue_Star_Chess_4.jpg,right,1498.0000000000582,false,high,NA,NA,NA,NA,NA,NA,NA,false
bPsPJkV6,3ki0jd2zv4v3t84iv1hywef3wi676h,34j10vatjjbvfu2sk34visivo5ciqk,bPsPJkV6,2020-0188,2020-11-23,22:00:00,22:28:47,NA,incomplete,24,color,0,right,Blue_Triangle_Grid_1.jpg,Purple_Plus_Grid_3.jpg,Blue_Star_Dots_2.jpg,left,1526.0000000000582,false,high,NA,NA,NA,NA,NA,NA,NA,false
bPsPJkV6,3ki0jd2zv4v3t84iv1hywef3wi676h,34j10vatjjbvfu2sk34visivo5ciqk,bPsPJkV6,2020-0188,2020-11-23,22:00:00,22:28:47,NA,incomplete,25,color,1,right,Green_Triangle_Dots_4.jpg,Red_Star_Dots_3.jpg,Green_Circle_Grid_1.jpg,left,1605.0000000000582,false,high,NA,NA,NA,NA,NA,NA,NA,false
bPsPJkV6,3ki0jd2zv4v3t84iv1hywef3wi676h,34j10vatjjbvfu2sk34visivo5ciqk,bPsPJkV6,2020-0188,2020-11-23,22:00:00,22:28:47,NA,incomplete,26,color,0,left,Green_Circle_Stripes_3.jpg,Green_Star_Grid_4.jpg,Purple_Triangle_Stripes_1.jpg,right,1459.0000000000582,false,high,NA,NA,NA,NA,NA,NA,NA,false
bPsPJkV6,3ki0jd2zv4v3t84iv1hywef3wi676h,34j10vatjjbvfu2sk34visivo5ciqk,bPsPJkV6,2020-0188,2020-11-23,22:00:00,22:28:47,NA,incomplete,27,color,1,right,Purple_Circle_Chess_3.jpg,Blue_Star_Chess_2.jpg,Purple_Triangle_Stripes_1.jpg,left,1490.9999999999418,false,high,NA,NA,NA,NA,NA,NA,NA,false
bPsPJkV6,3ki0jd2zv4v3t84iv1hywef3wi676h,34j10vatjjbvfu2sk34visivo5ciqk,bPsPJkV6,2020-0188,2020-11-23,22:00:00,22:28:47,NA,incomplete,28,color,1,right,Red_Circle_Grid_2.jpg,Green_Star_Grid_1.jpg,Red_Triangle_Dots_4.jpg,left,1567.9999999999418,false,high,NA,NA,NA,NA,NA,NA,NA,false
bPsPJkV6,3ki0jd2zv4v3t84iv1hywef3wi676h,34j10vatjjbvfu2sk34visivo5ciqk,bPsPJkV6,2020-0188,2020-11-23,22:00:00,22:28:47,NA,incomplete,29,color,1,left,Green_Plus_Dots_1.jpg,Green_Triangle_Grid_4.jpg,Red_Circle_Dots_3.jpg,left,1092,true,high,NA,NA,NA,NA,NA,NA,NA,false
bPsPJkV6,3ki0jd2zv4v3t84iv1hywef3wi676h,34j10vatjjbvfu2sk34visivo5ciqk,bPsPJkV6,2020-0188,2020-11-23,22:00:00,22:28:47,NA,incomplete,30,filling,1,left,Blue_Triangle_Stripes_1.jpg,Green_Plus_Stripes_4.jpg,Blue_Star_Grid_3.jpg,right,1160.9999999999418,false,high,NA,NA,NA,NA,NA,NA,NA,false
bPsPJkV6,3ki0jd2zv4v3t84iv1hywef3wi676h,34j10vatjjbvfu2sk34visivo5ciqk,bPsPJkV6,2020-0188,2020-11-23,22:00:00,22:28:47,NA,incomplete,31,filling,1,right,Purple_Circle_Grid_2.jpg,Purple_Plus_Stripes_3.jpg,Red_Star_Grid_4.jpg,left,1005,false,high,NA,NA,NA,NA,NA,NA,NA,false
bPsPJkV6,3ki0jd2zv4v3t84iv1hywef3wi676h,34j10vatjjbvfu2sk34visivo5ciqk,bPsPJkV6,2020-0188,2020-11-23,22:00:00,22:28:47,NA,incomplete,32,filling,1,right,Red_Circle_Grid_4.jpg,Red_Star_Chess_2.jpg,Purple_Plus_Grid_1.jpg,right,1529,true,high,NA,NA,NA,NA,NA,NA,NA,false
bPsPJkV6,3ki0jd2zv4v3t84iv1hywef3wi676h,34j10vatjjbvfu2sk34visivo5ciqk,bPsPJkV6,2020-0188,2020-11-23,22:00:00,22:28:47,NA,incomplete,33,filling,1,left,Purple_Star_Grid_2.jpg,Green_Triangle_Grid_4.jpg,Purple_Plus_Stripes_3.jpg,left,1558,true,high,NA,NA,NA,NA,NA,NA,NA,false
bPsPJkV6,3ki0jd2zv4v3t84iv1hywef3wi676h,34j10vatjjbvfu2sk34visivo5ciqk,bPsPJkV6,2020-0188,2020-11-23,22:00:00,22:28:47,NA,incomplete,34,filling,1,right,Green_Star_Dots_1.jpg,Green_Triangle_Stripes_4.jpg,Blue_Plus_Dots_3.jpg,right,1523,true,high,NA,NA,NA,NA,NA,NA,NA,false
bPsPJkV6,3ki0jd2zv4v3t84iv1hywef3wi676h,34j10vatjjbvfu2sk34visivo5ciqk,bPsPJkV6,2020-0188,2020-11-23,22:00:00,22:28:47,NA,incomplete,35,filling,0,right,Blue_Plus_Stripes_2.jpg,Blue_Triangle_Grid_1.jpg,Purple_Star_Stripes_3.jpg,right,1802,true,high,NA,NA,NA,NA,NA,NA,NA,false
bPsPJkV6,3ki0jd2zv4v3t84iv1hywef3wi676h,34j10vatjjbvfu2sk34visivo5ciqk,bPsPJkV6,2020-0188,2020-11-23,22:00:00,22:28:47,NA,incomplete,36,filling,1,left,Green_Circle_Chess_2.jpg,Red_Star_Chess_1.jpg,Green_Plus_Grid_3.jpg,left,1438.9999999998836,true,high,NA,NA,NA,NA,NA,NA,NA,false
bPsPJkV6,3ki0jd2zv4v3t84iv1hywef3wi676h,34j10vatjjbvfu2sk34visivo5ciqk,bPsPJkV6,2020-0188,2020-11-23,22:00:00,22:28:47,NA,incomplete,37,filling,1,right,Red_Plus_Stripes_2.jpg,Red_Triangle_Chess_4.jpg,Blue_Circle_Stripes_3.jpg,right,1667,true,high,NA,NA,NA,NA,NA,NA,NA,false
bPsPJkV6,3ki0jd2zv4v3t84iv1hywef3wi676h,34j10vatjjbvfu2sk34visivo5ciqk,bPsPJkV6,2020-0188,2020-11-23,22:00:00,22:28:47,NA,incomplete,38,filling,1,right,Purple_Triangle_Stripes_1.jpg,Purple_Star_Dots_3.jpg,Blue_Circle_Stripes_4.jpg,right,1496.0000000001164,true,high,NA,NA,NA,NA,NA,NA,NA,false
bPsPJkV6,3ki0jd2zv4v3t84iv1hywef3wi676h,34j10vatjjbvfu2sk34visivo5ciqk,bPsPJkV6,2020-0188,2020-11-23,22:00:00,22:28:47,NA,incomplete,39,filling,1,left,Blue_Circle_Chess_2.jpg,Green_Star_Chess_1.jpg,Blue_Plus_Dots_4.jpg,left,1417.0000000001164,true,high,NA,NA,NA,NA,NA,NA,NA,false
bPsPJkV6,3ki0jd2zv4v3t84iv1hywef3wi676h,34j10vatjjbvfu2sk34visivo5ciqk,bPsPJkV6,2020-0188,2020-11-23,22:00:00,22:28:47,NA,incomplete,40,color,0,right,Red_Plus_Dots_3.jpg,Green_Star_Dots_2.jpg,Red_Circle_Grid_4.jpg,left,1502.9999999998836,false,high,NA,NA,NA,NA,NA,NA,NA,false
bPsPJkV6,3ki0jd2zv4v3t84iv1hywef3wi676h,34j10vatjjbvfu2sk34visivo5ciqk,bPsPJkV6,2020-0188,2020-11-23,22:00:00,22:28:47,NA,incomplete,41,color,0,right,Green_Circle_Stripes_1.jpg,Purple_Star_Stripes_2.jpg,Green_Triangle_Grid_3.jpg,left,1708,false,high,NA,NA,NA,NA,NA,NA,NA,false
bPsPJkV6,3ki0jd2zv4v3t84iv1hywef3wi676h,34j10vatjjbvfu2sk34visivo5ciqk,bPsPJkV6,2020-0188,2020-11-23,22:00:00,22:28:47,NA,incomplete,42,color,1,right,Red_Star_Dots_2.jpg,Purple_Plus_Dots_4.jpg,Red_Circle_Stripes_3.jpg,left,1371.9999999998836,false,high,NA,NA,NA,NA,NA,NA,NA,false
bPsPJkV6,3ki0jd2zv4v3t84iv1hywef3wi676h,34j10vatjjbvfu2sk34visivo5ciqk,bPsPJkV6,2020-0188,2020-11-23,22:00:00,22:28:47,NA,incomplete,43,color,1,right,Red_Plus_Grid_1.jpg,Blue_Triangle_Grid_4.jpg,Red_Star_Chess_2.jpg,left,1515,false,high,NA,NA,NA,NA,NA,NA,NA,false
bPsPJkV6,3ki0jd2zv4v3t84iv1hywef3wi676h,34j10vatjjbvfu2sk34visivo5ciqk,bPsPJkV6,2020-0188,2020-11-23,22:00:00,22:28:47,NA,incomplete,44,color,0,left,Green_Circle_Dots_2.jpg,Green_Triangle_Stripes_3.jpg,Blue_Star_Dots_4.jpg,left,1060,true,high,NA,NA,NA,NA,NA,NA,NA,false
bPsPJkV6,3ki0jd2zv4v3t84iv1hywef3wi676h,34j10vatjjbvfu2sk34visivo5ciqk,bPsPJkV6,2020-0188,2020-11-23,22:00:00,22:28:47,NA,incomplete,45,color,1,right,Green_Circle_Stripes_4.jpg,Blue_Plus_Stripes_1.jpg,Green_Star_Dots_2.jpg,right,1200.0000000001164,true,high,NA,NA,NA,NA,NA,NA,NA,false
bPsPJkV6,3ki0jd2zv4v3t84iv1hywef3wi676h,34j10vatjjbvfu2sk34visivo5ciqk,bPsPJkV6,2020-0188,2020-11-23,22:00:00,22:28:47,NA,incomplete,46,color,1,right,Red_Plus_Dots_2.jpg,Purple_Star_Dots_4.jpg,Red_Circle_Chess_1.jpg,right,1134,true,high,NA,NA,NA,NA,NA,NA,NA,false
bPsPJkV6,3ki0jd2zv4v3t84iv1hywef3wi676h,34j10vatjjbvfu2sk34visivo5ciqk,bPsPJkV6,2020-0188,2020-11-23,22:00:00,22:28:47,NA,incomplete,47,color,1,left,Red_Circle_Dots_1.jpg,Red_Triangle_Chess_3.jpg,Green_Star_Dots_4.jpg,left,1431.0000000001164,true,high,NA,NA,NA,NA,NA,NA,NA,false
bPsPJkV6,3ki0jd2zv4v3t84iv1hywef3wi676h,34j10vatjjbvfu2sk34visivo5ciqk,bPsPJkV6,2020-0188,2020-11-23,22:00:00,22:28:47,NA,incomplete,48,color,1,left,Green_Star_Chess_1.jpg,Green_Circle_Stripes_2.jpg,Red_Triangle_Chess_4.jpg,left,1066.0000000001164,true,high,NA,NA,NA,NA,NA,NA,NA,false
bPsPJkV6,3ki0jd2zv4v3t84iv1hywef3wi676h,34j10vatjjbvfu2sk34visivo5ciqk,bPsPJkV6,2020-0188,2020-11-23,22:00:00,22:28:47,NA,incomplete,49,color,1,right,Green_Star_Stripes_2.jpg,Blue_Triangle_Stripes_4.jpg,Green_Plus_Chess_3.jpg,right,1162.0000000001164,true,high,NA,NA,NA,NA,NA,NA,NA,false
bPsPJkV6,3ki0jd2zv4v3t84iv1hywef3wi676h,34j10vatjjbvfu2sk34visivo5ciqk,bPsPJkV6,2020-0188,2020-11-23,22:00:00,22:28:47,NA,incomplete,50,filling,1,right,Green_Circle_Dots_1.jpg,Green_Triangle_Chess_3.jpg,Blue_Star_Dots_4.jpg,left,894.9999999998836,false,high,NA,NA,NA,NA,NA,NA,NA,false
bPsPJkV6,3ki0jd2zv4v3t84iv1hywef3wi676h,34j10vatjjbvfu2sk34visivo5ciqk,bPsPJkV6,2020-0188,2020-11-23,22:00:00,22:28:47,NA,incomplete,51,filling,0,left,Red_Plus_Stripes_1.jpg,Purple_Star_Stripes_2.jpg,Red_Triangle_Grid_4.jpg,right,1273,false,high,NA,NA,NA,NA,NA,NA,NA,false
bPsPJkV6,3ki0jd2zv4v3t84iv1hywef3wi676h,34j10vatjjbvfu2sk34visivo5ciqk,bPsPJkV6,2020-0188,2020-11-23,22:00:00,22:28:47,NA,incomplete,52,filling,1,right,Purple_Star_Stripes_3.jpg,Purple_Plus_Chess_4.jpg,Red_Triangle_Stripes_1.jpg,left,1288.9999999998836,false,high,NA,NA,NA,NA,NA,NA,NA,false
bPsPJkV6,3ki0jd2zv4v3t84iv1hywef3wi676h,34j10vatjjbvfu2sk34visivo5ciqk,bPsPJkV6,2020-0188,2020-11-23,22:00:00,22:28:47,NA,incomplete,53,filling,1,right,Purple_Plus_Stripes_4.jpg,Purple_Star_Dots_1.jpg,Blue_Triangle_Stripes_2.jpg,left,1105,false,high,NA,NA,NA,NA,NA,NA,NA,false
bPsPJkV6,3ki0jd2zv4v3t84iv1hywef3wi676h,34j10vatjjbvfu2sk34visivo5ciqk,bPsPJkV6,2020-0188,2020-11-23,22:00:00,22:28:47,NA,incomplete,54,filling,1,left,Green_Star_Dots_1.jpg,Purple_Plus_Dots_3.jpg,Green_Circle_Chess_4.jpg,left,1337,true,high,NA,NA,NA,NA,NA,NA,NA,false
bPsPJkV6,3ki0jd2zv4v3t84iv1hywef3wi676h,34j10vatjjbvfu2sk34visivo5ciqk,bPsPJkV6,2020-0188,2020-11-23,22:00:00,22:28:47,NA,incomplete,55,filling,0,right,Purple_Plus_Grid_4.jpg,Purple_Circle_Dots_3.jpg,Green_Star_Grid_1.jpg,left,1938.9999999998836,false,high,NA,NA,NA,NA,NA,NA,NA,false
bPsPJkV6,3ki0jd2zv4v3t84iv1hywef3wi676h,34j10vatjjbvfu2sk34visivo5ciqk,bPsPJkV6,2020-0188,2020-11-23,22:00:00,22:28:47,NA,incomplete,56,filling,1,left,Red_Triangle_Grid_2.jpg,Purple_Star_Grid_3.jpg,Red_Circle_Stripes_1.jpg,left,1749,true,high,NA,NA,NA,NA,NA,NA,NA,false
bPsPJkV6,3ki0jd2zv4v3t84iv1hywef3wi676h,34j10vatjjbvfu2sk34visivo5ciqk,bPsPJkV6,2020-0188,2020-11-23,22:00:00,22:28:47,NA,incomplete,57,filling,0,right,Green_Circle_Chess_1.jpg,Green_Plus_Grid_2.jpg,Purple_Star_Chess_4.jpg,right,1406.9999999998836,true,high,NA,NA,NA,NA,NA,NA,NA,false
bPsPJkV6,3ki0jd2zv4v3t84iv1hywef3wi676h,34j10vatjjbvfu2sk34visivo5ciqk,bPsPJkV6,2020-0188,2020-11-23,22:00:00,22:28:47,NA,incomplete,58,filling,1,left,Red_Plus_Chess_1.jpg,Purple_Star_Chess_4.jpg,Red_Triangle_Dots_3.jpg,left,1452.9999999998836,true,high,NA,NA,NA,NA,NA,NA,NA,false
bPsPJkV6,3ki0jd2zv4v3t84iv1hywef3wi676h,34j10vatjjbvfu2sk34visivo5ciqk,bPsPJkV6,2020-0188,2020-11-23,22:00:00,22:28:47,NA,incomplete,59,filling,0,right,Green_Star_Dots_3.jpg,Green_Circle_Grid_1.jpg,Purple_Triangle_Dots_4.jpg,left,1875,false,high,NA,NA,NA,NA,NA,NA,NA,false
bPsPJkV6,3ki0jd2zv4v3t84iv1hywef3wi676h,34j10vatjjbvfu2sk34visivo5ciqk,bPsPJkV6,2020-0188,2020-11-23,22:00:00,22:28:47,NA,incomplete,60,color,1,right,Blue_Star_Dots_4.jpg,Green_Plus_Dots_2.jpg,Blue_Circle_Chess_1.jpg,right,1108.9999999998836,true,high,NA,NA,NA,NA,NA,NA,NA,false
bPsPJkV6,3ki0jd2zv4v3t84iv1hywef3wi676h,34j10vatjjbvfu2sk34visivo5ciqk,bPsPJkV6,2020-0188,2020-11-23,22:00:00,22:28:47,NA,incomplete,61,color,1,left,Red_Plus_Chess_3.jpg,Red_Star_Stripes_1.jpg,Green_Circle_Chess_2.jpg,left,995,true,high,NA,NA,NA,NA,NA,NA,NA,false
bPsPJkV6,3ki0jd2zv4v3t84iv1hywef3wi676h,34j10vatjjbvfu2sk34visivo5ciqk,bPsPJkV6,2020-0188,2020-11-23,22:00:00,22:28:47,NA,incomplete,62,color,0,right,Red_Plus_Dots_4.jpg,Purple_Triangle_Dots_2.jpg,Red_Circle_Grid_3.jpg,right,1015.9999999998836,true,high,NA,NA,NA,NA,NA,NA,NA,false
bPsPJkV6,3ki0jd2zv4v3t84iv1hywef3wi676h,34j10vatjjbvfu2sk34visivo5ciqk,bPsPJkV6,2020-0188,2020-11-23,22:00:00,22:28:47,NA,incomplete,63,color,1,left,Blue_Plus_Stripes_4.jpg,Blue_Triangle_Grid_3.jpg,Red_Star_Stripes_2.jpg,right,1627.9999999998836,false,high,NA,NA,NA,NA,NA,NA,NA,false
bPsPJkV6,3ki0jd2zv4v3t84iv1hywef3wi676h,34j10vatjjbvfu2sk34visivo5ciqk,bPsPJkV6,2020-0188,2020-11-23,22:00:00,22:28:47,NA,incomplete,64,color,1,right,Green_Circle_Dots_1.jpg,Red_Triangle_Dots_4.jpg,Green_Star_Chess_3.jpg,right,1372.0000000001164,true,high,NA,NA,NA,NA,NA,NA,NA,false
bPsPJkV6,3ki0jd2zv4v3t84iv1hywef3wi676h,34j10vatjjbvfu2sk34visivo5ciqk,bPsPJkV6,2020-0188,2020-11-23,22:00:00,22:28:47,NA,incomplete,65,color,1,right,Blue_Plus_Grid_4.jpg,Red_Circle_Grid_3.jpg,Blue_Star_Stripes_1.jpg,left,935,false,high,NA,NA,NA,NA,NA,NA,NA,false
bPsPJkV6,3ki0jd2zv4v3t84iv1hywef3wi676h,34j10vatjjbvfu2sk34visivo5ciqk,bPsPJkV6,2020-0188,2020-11-23,22:00:00,22:28:47,NA,incomplete,66,color,1,right,Purple_Circle_Dots_1.jpg,Blue_Plus_Dots_2.jpg,Purple_Triangle_Chess_4.jpg,right,1085.9999999998836,true,high,NA,NA,NA,NA,NA,NA,NA,false
bPsPJkV6,3ki0jd2zv4v3t84iv1hywef3wi676h,34j10vatjjbvfu2sk34visivo5ciqk,bPsPJkV6,2020-0188,2020-11-23,22:00:00,22:28:47,NA,incomplete,67,color,1,left,Purple_Plus_Stripes_4.jpg,Purple_Star_Grid_1.jpg,Green_Circle_Stripes_3.jpg,left,1198.0000000001164,true,high,NA,NA,NA,NA,NA,NA,NA,false
bPsPJkV6,3ki0jd2zv4v3t84iv1hywef3wi676h,34j10vatjjbvfu2sk34visivo5ciqk,bPsPJkV6,2020-0188,2020-11-23,22:00:00,22:28:47,NA,incomplete,68,color,1,right,Green_Triangle_Grid_1.jpg,Red_Circle_Grid_4.jpg,Green_Plus_Stripes_2.jpg,right,1122.9999999998836,true,high,NA,NA,NA,NA,NA,NA,NA,false
bPsPJkV6,3ki0jd2zv4v3t84iv1hywef3wi676h,34j10vatjjbvfu2sk34visivo5ciqk,bPsPJkV6,2020-0188,2020-11-23,22:00:00,22:28:47,NA,incomplete,69,color,0,left,Purple_Triangle_Grid_1.jpg,Purple_Star_Stripes_2.jpg,Blue_Plus_Grid_4.jpg,left,1009,true,high,NA,NA,NA,NA,NA,NA,NA,false
bPsPJkV6,3ki0jd2zv4v3t84iv1hywef3wi676h,34j10vatjjbvfu2sk34visivo5ciqk,bPsPJkV6,2020-0188,2020-11-23,22:00:00,22:28:47,NA,incomplete,70,filling,1,left,Red_Triangle_Grid_1.jpg,Purple_Star_Grid_2.jpg,Red_Circle_Chess_3.jpg,right,1091,false,high,NA,NA,NA,NA,NA,NA,NA,false
bPsPJkV6,3ki0jd2zv4v3t84iv1hywef3wi676h,34j10vatjjbvfu2sk34visivo5ciqk,bPsPJkV6,2020-0188,2020-11-23,22:00:00,22:28:47,NA,incomplete,71,filling,1,left,Blue_Circle_Dots_4.jpg,Green_Star_Dots_3.jpg,Blue_Triangle_Stripes_2.jpg,right,1639,false,high,NA,NA,NA,NA,NA,NA,NA,false
bPsPJkV6,3ki0jd2zv4v3t84iv1hywef3wi676h,34j10vatjjbvfu2sk34visivo5ciqk,bPsPJkV6,2020-0188,2020-11-23,22:00:00,22:28:47,NA,incomplete,72,filling,1,right,Purple_Triangle_Stripes_1.jpg,Purple_Plus_Chess_2.jpg,Red_Circle_Stripes_3.jpg,right,1723,true,high,NA,NA,NA,NA,NA,NA,NA,false
bPsPJkV6,3ki0jd2zv4v3t84iv1hywef3wi676h,34j10vatjjbvfu2sk34visivo5ciqk,bPsPJkV6,2020-0188,2020-11-23,22:00:00,22:28:47,NA,incomplete,73,filling,1,left,Blue_Plus_Grid_2.jpg,Red_Star_Grid_4.jpg,Blue_Triangle_Stripes_3.jpg,left,1538,true,high,NA,NA,NA,NA,NA,NA,NA,false
bPsPJkV6,3ki0jd2zv4v3t84iv1hywef3wi676h,34j10vatjjbvfu2sk34visivo5ciqk,bPsPJkV6,2020-0188,2020-11-23,22:00:00,22:28:47,NA,incomplete,74,filling,1,left,Blue_Star_Grid_3.jpg,Green_Circle_Grid_4.jpg,Blue_Triangle_Chess_2.jpg,right,1490,false,high,NA,NA,NA,NA,NA,NA,NA,false
bPsPJkV6,3ki0jd2zv4v3t84iv1hywef3wi676h,34j10vatjjbvfu2sk34visivo5ciqk,bPsPJkV6,2020-0188,2020-11-23,22:00:00,22:28:47,NA,incomplete,75,filling,1,left,Blue_Plus_Grid_1.jpg,Red_Circle_Grid_3.jpg,Blue_Star_Stripes_4.jpg,left,1542.0000000001164,true,high,NA,NA,NA,NA,NA,NA,NA,false
bPsPJkV6,3ki0jd2zv4v3t84iv1hywef3wi676h,34j10vatjjbvfu2sk34visivo5ciqk,bPsPJkV6,2020-0188,2020-11-23,22:00:00,22:28:47,NA,incomplete,76,filling,1,left,Purple_Circle_Dots_1.jpg,Blue_Triangle_Dots_3.jpg,Purple_Plus_Grid_4.jpg,left,1262.0000000001164,true,high,NA,NA,NA,NA,NA,NA,NA,false
bPsPJkV6,3ki0jd2zv4v3t84iv1hywef3wi676h,34j10vatjjbvfu2sk34visivo5ciqk,bPsPJkV6,2020-0188,2020-11-23,22:00:00,22:28:47,NA,incomplete,77,filling,1,left,Green_Star_Grid_4.jpg,Purple_Triangle_Grid_1.jpg,Green_Plus_Dots_3.jpg,left,1359,true,high,NA,NA,NA,NA,NA,NA,NA,false
bPsPJkV6,3ki0jd2zv4v3t84iv1hywef3wi676h,34j10vatjjbvfu2sk34visivo5ciqk,bPsPJkV6,2020-0188,2020-11-23,22:00:00,22:28:47,NA,incomplete,78,filling,1,right,Blue_Star_Stripes_1.jpg,Blue_Plus_Chess_3.jpg,Purple_Circle_Stripes_2.jpg,right,1775.0000000001164,true,high,NA,NA,NA,NA,NA,NA,NA,false
bPsPJkV6,3ki0jd2zv4v3t84iv1hywef3wi676h,34j10vatjjbvfu2sk34visivo5ciqk,bPsPJkV6,2020-0188,2020-11-23,22:00:00,22:28:47,NA,incomplete,79,filling,1,right,Purple_Triangle_Stripes_4.jpg,Purple_Star_Chess_2.jpg,Red_Plus_Stripes_3.jpg,right,1528,true,high,NA,NA,NA,NA,NA,NA,NA,false
bPsPJkV6,3ki0jd2zv4v3t84iv1hywef3wi676h,34j10vatjjbvfu2sk34visivo5ciqk,bPsPJkV6,2020-0188,2020-11-23,22:00:00,22:28:47,NA,incomplete,80,color,1,left,Blue_Star_Grid_3.jpg,Blue_Plus_Dots_1.jpg,Red_Circle_Grid_2.jpg,right,1475,false,high,NA,NA,NA,NA,NA,NA,NA,false
bPsPJkV6,3ki0jd2zv4v3t84iv1hywef3wi676h,34j10vatjjbvfu2sk34visivo5ciqk,bPsPJkV6,2020-0188,2020-11-23,22:00:00,22:28:47,NA,incomplete,81,color,1,left,Green_Plus_Grid_1.jpg,Green_Triangle_Stripes_3.jpg,Blue_Circle_Grid_2.jpg,right,1589.9999999998836,false,high,NA,NA,NA,NA,NA,NA,NA,false
bPsPJkV6,3ki0jd2zv4v3t84iv1hywef3wi676h,34j10vatjjbvfu2sk34visivo5ciqk,bPsPJkV6,2020-0188,2020-11-23,22:00:00,22:28:47,NA,incomplete,82,color,1,right,Red_Circle_Chess_3.jpg,Purple_Triangle_Chess_4.jpg,Red_Plus_Grid_2.jpg,right,1123.0000000001164,true,high,NA,NA,NA,NA,NA,NA,NA,false
bPsPJkV6,3ki0jd2zv4v3t84iv1hywef3wi676h,34j10vatjjbvfu2sk34visivo5ciqk,bPsPJkV6,2020-0188,2020-11-23,22:00:00,22:28:47,NA,incomplete,83,color,0,left,Red_Plus_Chess_3.jpg,Red_Triangle_Dots_2.jpg,Purple_Star_Chess_1.jpg,left,953.9999999998836,true,high,NA,NA,NA,NA,NA,NA,NA,false
bPsPJkV6,3ki0jd2zv4v3t84iv1hywef3wi676h,34j10vatjjbvfu2sk34visivo5ciqk,bPsPJkV6,2020-0188,2020-11-23,22:00:00,22:28:47,NA,incomplete,84,color,1,right,Purple_Star_Grid_2.jpg,Red_Plus_Grid_4.jpg,Purple_Circle_Chess_3.jpg,right,1092,true,high,NA,NA,NA,NA,NA,NA,NA,false
bPsPJkV6,3ki0jd2zv4v3t84iv1hywef3wi676h,34j10vatjjbvfu2sk34visivo5ciqk,bPsPJkV6,2020-0188,2020-11-23,22:00:00,22:28:47,NA,incomplete,85,color,1,right,Red_Star_Dots_1.jpg,Green_Triangle_Dots_4.jpg,Red_Plus_Stripes_3.jpg,right,972.9999999998836,true,high,NA,NA,NA,NA,NA,NA,NA,false
bPsPJkV6,3ki0jd2zv4v3t84iv1hywef3wi676h,34j10vatjjbvfu2sk34visivo5ciqk,bPsPJkV6,2020-0188,2020-11-23,22:00:00,22:28:47,NA,incomplete,86,color,1,right,Blue_Triangle_Chess_4.jpg,Purple_Circle_Chess_1.jpg,Blue_Star_Grid_3.jpg,right,1140,true,high,NA,NA,NA,NA,NA,NA,NA,false
bPsPJkV6,3ki0jd2zv4v3t84iv1hywef3wi676h,34j10vatjjbvfu2sk34visivo5ciqk,bPsPJkV6,2020-0188,2020-11-23,22:00:00,22:28:47,NA,incomplete,87,color,0,right,Purple_Triangle_Chess_1.jpg,Red_Star_Chess_2.jpg,Purple_Circle_Grid_3.jpg,right,1361,true,high,NA,NA,NA,NA,NA,NA,NA,false
bPsPJkV6,3ki0jd2zv4v3t84iv1hywef3wi676h,34j10vatjjbvfu2sk34visivo5ciqk,bPsPJkV6,2020-0188,2020-11-23,22:00:00,22:28:47,NA,incomplete,88,color,0,right,Blue_Circle_Stripes_3.jpg,Purple_Star_Stripes_1.jpg,Blue_Plus_Chess_2.jpg,right,1125,true,high,NA,NA,NA,NA,NA,NA,NA,false
bPsPJkV6,3ki0jd2zv4v3t84iv1hywef3wi676h,34j10vatjjbvfu2sk34visivo5ciqk,bPsPJkV6,2020-0188,2020-11-23,22:00:00,22:28:47,NA,incomplete,89,color,1,left,Blue_Triangle_Grid_1.jpg,Blue_Circle_Dots_2.jpg,Green_Star_Grid_3.jpg,right,1405,false,high,NA,NA,NA,NA,NA,NA,NA,false
bPsPJkV6,3ki0jd2zv4v3t84iv1hywef3wi676h,34j10vatjjbvfu2sk34visivo5ciqk,bPsPJkV6,2020-0188,2020-11-23,22:00:00,22:28:47,NA,incomplete,90,filling,0,left,Purple_Plus_Grid_3.jpg,Blue_Star_Grid_4.jpg,Purple_Circle_Chess_2.jpg,left,1602,true,high,NA,NA,NA,NA,NA,NA,NA,false
bPsPJkV6,3ki0jd2zv4v3t84iv1hywef3wi676h,34j10vatjjbvfu2sk34visivo5ciqk,bPsPJkV6,2020-0188,2020-11-23,22:00:00,22:28:47,NA,incomplete,91,filling,1,right,Blue_Circle_Chess_4.jpg,Blue_Star_Grid_1.jpg,Purple_Plus_Chess_3.jpg,left,1131.9999999998836,false,high,NA,NA,NA,NA,NA,NA,NA,false
bPsPJkV6,3ki0jd2zv4v3t84iv1hywef3wi676h,34j10vatjjbvfu2sk34visivo5ciqk,bPsPJkV6,2020-0188,2020-11-23,22:00:00,22:28:47,NA,incomplete,92,filling,1,left,Blue_Circle_Stripes_4.jpg,Purple_Triangle_Stripes_2.jpg,Blue_Plus_Grid_3.jpg,left,1577,true,high,NA,NA,NA,NA,NA,NA,NA,false
bPsPJkV6,3ki0jd2zv4v3t84iv1hywef3wi676h,34j10vatjjbvfu2sk34visivo5ciqk,bPsPJkV6,2020-0188,2020-11-23,22:00:00,22:28:47,NA,incomplete,93,filling,1,left,Red_Circle_Stripes_4.jpg,Blue_Plus_Stripes_2.jpg,Red_Triangle_Grid_1.jpg,left,1441,true,high,NA,NA,NA,NA,NA,NA,NA,false
bPsPJkV6,3ki0jd2zv4v3t84iv1hywef3wi676h,34j10vatjjbvfu2sk34visivo5ciqk,bPsPJkV6,2020-0188,2020-11-23,22:00:00,22:28:47,NA,incomplete,94,filling,0,right,Green_Circle_Dots_4.jpg,Green_Plus_Chess_1.jpg,Red_Triangle_Dots_2.jpg,right,1968.9999999998836,true,high,NA,NA,NA,NA,NA,NA,NA,false
bPsPJkV6,3ki0jd2zv4v3t84iv1hywef3wi676h,34j10vatjjbvfu2sk34visivo5ciqk,bPsPJkV6,2020-0188,2020-11-23,22:00:00,22:28:47,NA,incomplete,95,filling,0,left,Purple_Triangle_Stripes_1.jpg,Red_Plus_Stripes_2.jpg,Purple_Star_Grid_4.jpg,left,1550,true,high,NA,NA,NA,NA,NA,NA,NA,false
bPsPJkV6,3ki0jd2zv4v3t84iv1hywef3wi676h,34j10vatjjbvfu2sk34visivo5ciqk,bPsPJkV6,2020-0188,2020-11-23,22:00:00,22:28:47,NA,incomplete,96,filling,0,right,Green_Plus_Dots_1.jpg,Green_Circle_Chess_4.jpg,Blue_Triangle_Dots_3.jpg,left,1357.9999999998836,false,high,NA,NA,NA,NA,NA,NA,NA,false
bPsPJkV6,3ki0jd2zv4v3t84iv1hywef3wi676h,34j10vatjjbvfu2sk34visivo5ciqk,bPsPJkV6,2020-0188,2020-11-23,22:00:00,22:28:47,NA,incomplete,97,filling,1,right,Purple_Triangle_Stripes_3.jpg,Purple_Star_Grid_2.jpg,Green_Plus_Stripes_4.jpg,left,1241,false,high,NA,NA,NA,NA,NA,NA,NA,false
bPsPJkV6,3ki0jd2zv4v3t84iv1hywef3wi676h,34j10vatjjbvfu2sk34visivo5ciqk,bPsPJkV6,2020-0188,2020-11-23,22:00:00,22:28:47,NA,incomplete,98,filling,1,left,Purple_Triangle_Stripes_2.jpg,Red_Circle_Stripes_1.jpg,Purple_Star_Grid_3.jpg,right,1394.9999999998836,false,high,NA,NA,NA,NA,NA,NA,NA,false
bPsPJkV6,3ki0jd2zv4v3t84iv1hywef3wi676h,34j10vatjjbvfu2sk34visivo5ciqk,bPsPJkV6,2020-0188,2020-11-23,22:00:00,22:28:47,NA,incomplete,99,filling,1,left,Blue_Triangle_Dots_1.jpg,Green_Circle_Dots_4.jpg,Blue_Star_Grid_2.jpg,left,1780.9999999998836,true,high,NA,NA,NA,NA,NA,NA,NA,false
bPsPJkV6,3ki0jd2zv4v3t84iv1hywef3wi676h,34j10vatjjbvfu2sk34visivo5ciqk,bPsPJkV6,2020-0188,2020-11-23,22:00:00,22:28:47,NA,incomplete,100,color,1,right,Green_Circle_Dots_4.jpg,Purple_Triangle_Dots_2.jpg,Green_Plus_Stripes_3.jpg,left,1393,false,high,NA,NA,NA,NA,NA,NA,NA,false
bPsPJkV6,3ki0jd2zv4v3t84iv1hywef3wi676h,34j10vatjjbvfu2sk34visivo5ciqk,bPsPJkV6,2020-0188,2020-11-23,22:00:00,22:28:47,NA,incomplete,101,color,1,right,Purple_Star_Dots_1.jpg,Green_Circle_Dots_3.jpg,Purple_Plus_Stripes_4.jpg,left,1792,false,high,NA,NA,NA,NA,NA,NA,NA,false
bPsPJkV6,3ki0jd2zv4v3t84iv1hywef3wi676h,34j10vatjjbvfu2sk34visivo5ciqk,bPsPJkV6,2020-0188,2020-11-23,22:00:00,22:28:47,NA,incomplete,102,color,1,left,Red_Triangle_Stripes_1.jpg,Red_Plus_Dots_4.jpg,Purple_Circle_Stripes_3.jpg,left,1141.0000000001164,true,high,NA,NA,NA,NA,NA,NA,NA,false
bPsPJkV6,3ki0jd2zv4v3t84iv1hywef3wi676h,34j10vatjjbvfu2sk34visivo5ciqk,bPsPJkV6,2020-0188,2020-11-23,22:00:00,22:28:47,NA,incomplete,103,color,1,right,Green_Triangle_Dots_1.jpg,Blue_Star_Dots_2.jpg,Green_Circle_Stripes_3.jpg,right,1090,true,high,NA,NA,NA,NA,NA,NA,NA,false
bPsPJkV6,3ki0jd2zv4v3t84iv1hywef3wi676h,34j10vatjjbvfu2sk34visivo5ciqk,bPsPJkV6,2020-0188,2020-11-23,22:00:00,22:28:47,NA,incomplete,104,color,1,right,Blue_Plus_Stripes_1.jpg,Green_Circle_Stripes_2.jpg,Blue_Triangle_Grid_4.jpg,right,1641.9999999998836,true,high,NA,NA,NA,NA,NA,NA,NA,false
bPsPJkV6,3ki0jd2zv4v3t84iv1hywef3wi676h,34j10vatjjbvfu2sk34visivo5ciqk,bPsPJkV6,2020-0188,2020-11-23,22:00:00,22:28:47,NA,incomplete,105,color,1,left,Red_Star_Chess_4.jpg,Red_Circle_Stripes_3.jpg,Blue_Plus_Chess_1.jpg,left,1259.9999999998836,true,high,NA,NA,NA,NA,NA,NA,NA,false
bPsPJkV6,3ki0jd2zv4v3t84iv1hywef3wi676h,34j10vatjjbvfu2sk34visivo5ciqk,bPsPJkV6,2020-0188,2020-11-23,22:00:00,22:28:47,NA,incomplete,106,color,1,left,Purple_Triangle_Stripes_4.jpg,Purple_Star_Dots_3.jpg,Red_Plus_Stripes_2.jpg,left,1566,true,high,NA,NA,NA,NA,NA,NA,NA,false
bPsPJkV6,3ki0jd2zv4v3t84iv1hywef3wi676h,34j10vatjjbvfu2sk34visivo5ciqk,bPsPJkV6,2020-0188,2020-11-23,22:00:00,22:28:47,NA,incomplete,107,color,1,right,Purple_Circle_Dots_4.jpg,Blue_Star_Dots_2.jpg,Purple_Triangle_Chess_3.jpg,right,1029,true,high,NA,NA,NA,NA,NA,NA,NA,false
bPsPJkV6,3ki0jd2zv4v3t84iv1hywef3wi676h,34j10vatjjbvfu2sk34visivo5ciqk,bPsPJkV6,2020-0188,2020-11-23,22:00:00,22:28:47,NA,incomplete,108,color,1,right,Red_Plus_Stripes_3.jpg,Purple_Triangle_Stripes_1.jpg,Red_Circle_Dots_2.jpg,right,1177,true,high,NA,NA,NA,NA,NA,NA,NA,false
bPsPJkV6,3ki0jd2zv4v3t84iv1hywef3wi676h,34j10vatjjbvfu2sk34visivo5ciqk,bPsPJkV6,2020-0188,2020-11-23,22:00:00,22:28:47,NA,incomplete,109,color,1,right,Blue_Star_Stripes_2.jpg,Green_Plus_Stripes_4.jpg,Blue_Circle_Grid_1.jpg,right,1270.9999999998836,true,high,NA,NA,NA,NA,NA,NA,NA,false
bPsPJkV6,3ki0jd2zv4v3t84iv1hywef3wi676h,34j10vatjjbvfu2sk34visivo5ciqk,bPsPJkV6,2020-0188,2020-11-23,22:00:00,22:28:47,NA,incomplete,110,filling,1,right,Blue_Plus_Chess_3.jpg,Blue_Circle_Dots_4.jpg,Red_Star_Chess_2.jpg,left,1015.0000000001164,false,high,NA,NA,NA,NA,NA,NA,NA,false
bPsPJkV6,3ki0jd2zv4v3t84iv1hywef3wi676h,34j10vatjjbvfu2sk34visivo5ciqk,bPsPJkV6,2020-0188,2020-11-23,22:00:00,22:28:47,NA,incomplete,111,filling,1,right,Purple_Plus_Grid_4.jpg,Purple_Triangle_Dots_3.jpg,Blue_Circle_Grid_1.jpg,left,1152.9999999998836,false,high,NA,NA,NA,NA,NA,NA,NA,false
bPsPJkV6,3ki0jd2zv4v3t84iv1hywef3wi676h,34j10vatjjbvfu2sk34visivo5ciqk,bPsPJkV6,2020-0188,2020-11-23,22:00:00,22:28:47,NA,incomplete,112,filling,1,left,Green_Star_Dots_3.jpg,Purple_Triangle_Dots_1.jpg,Green_Plus_Grid_4.jpg,left,1260.9999999998836,true,high,NA,NA,NA,NA,NA,NA,NA,false
bPsPJkV6,3ki0jd2zv4v3t84iv1hywef3wi676h,34j10vatjjbvfu2sk34visivo5ciqk,bPsPJkV6,2020-0188,2020-11-23,22:00:00,22:28:47,NA,incomplete,113,filling,1,left,Green_Star_Chess_4.jpg,Red_Triangle_Chess_2.jpg,Green_Plus_Dots_3.jpg,left,1595,true,high,NA,NA,NA,NA,NA,NA,NA,false
bPsPJkV6,3ki0jd2zv4v3t84iv1hywef3wi676h,34j10vatjjbvfu2sk34visivo5ciqk,bPsPJkV6,2020-0188,2020-11-23,22:00:00,22:28:47,NA,incomplete,114,filling,1,right,Purple_Circle_Grid_2.jpg,Purple_Plus_Dots_3.jpg,Red_Star_Grid_4.jpg,right,1601,true,high,NA,NA,NA,NA,NA,NA,NA,false
bPsPJkV6,3ki0jd2zv4v3t84iv1hywef3wi676h,34j10vatjjbvfu2sk34visivo5ciqk,bPsPJkV6,2020-0188,2020-11-23,22:00:00,22:28:47,NA,incomplete,115,filling,1,left,Red_Plus_Grid_4.jpg,Green_Star_Grid_1.jpg,Red_Circle_Chess_3.jpg,right,1902,false,high,NA,NA,NA,NA,NA,NA,NA,false
bPsPJkV6,3ki0jd2zv4v3t84iv1hywef3wi676h,34j10vatjjbvfu2sk34visivo5ciqk,bPsPJkV6,2020-0188,2020-11-23,22:00:00,22:28:47,NA,incomplete,116,filling,1,right,Purple_Triangle_Stripes_1.jpg,Purple_Plus_Dots_3.jpg,Green_Circle_Stripes_2.jpg,right,1259,true,high,NA,NA,NA,NA,NA,NA,NA,false
bPsPJkV6,3ki0jd2zv4v3t84iv1hywef3wi676h,34j10vatjjbvfu2sk34visivo5ciqk,bPsPJkV6,2020-0188,2020-11-23,22:00:00,22:28:47,NA,incomplete,117,filling,1,left,Purple_Plus_Stripes_4.jpg,Red_Triangle_Stripes_2.jpg,Purple_Circle_Dots_3.jpg,left,1543,true,high,NA,NA,NA,NA,NA,NA,NA,false
bPsPJkV6,3ki0jd2zv4v3t84iv1hywef3wi676h,34j10vatjjbvfu2sk34visivo5ciqk,bPsPJkV6,2020-0188,2020-11-23,22:00:00,22:28:47,NA,incomplete,118,filling,0,left,Green_Circle_Grid_4.jpg,Purple_Star_Grid_3.jpg,Green_Triangle_Stripes_1.jpg,left,1702,true,high,NA,NA,NA,NA,NA,NA,NA,false
bPsPJkV6,3ki0jd2zv4v3t84iv1hywef3wi676h,34j10vatjjbvfu2sk34visivo5ciqk,bPsPJkV6,2020-0188,2020-11-23,22:00:00,22:28:47,NA,incomplete,119,filling,1,left,Purple_Star_Chess_4.jpg,Green_Triangle_Chess_1.jpg,Purple_Plus_Dots_2.jpg,right,1147,false,high,NA,NA,NA,NA,NA,NA,NA,false
bPsPJkV6,3ki0jd2zv4v3t84iv1hywef3wi676h,34j10vatjjbvfu2sk34visivo5ciqk,bPsPJkV6,2020-0188,2020-11-23,22:00:00,22:28:47,NA,incomplete,120,color,1,right,Blue_Triangle_Dots_2.jpg,Green_Star_Dots_4.jpg,Blue_Circle_Chess_3.jpg,left,1263.0000000001164,false,high,NA,NA,NA,NA,NA,NA,NA,false
bPsPJkV6,3ki0jd2zv4v3t84iv1hywef3wi676h,34j10vatjjbvfu2sk34visivo5ciqk,bPsPJkV6,2020-0188,2020-11-23,22:00:00,22:28:47,NA,incomplete,121,color,0,left,Purple_Star_Chess_4.jpg,Purple_Circle_Stripes_1.jpg,Blue_Plus_Chess_2.jpg,right,1501,false,high,NA,NA,NA,NA,NA,NA,NA,false
bPsPJkV6,3ki0jd2zv4v3t84iv1hywef3wi676h,34j10vatjjbvfu2sk34visivo5ciqk,bPsPJkV6,2020-0188,2020-11-23,22:00:00,22:28:47,NA,incomplete,122,color,1,right,Red_Circle_Dots_3.jpg,Purple_Star_Dots_2.jpg,Red_Plus_Grid_1.jpg,left,1186,false,high,NA,NA,NA,NA,NA,NA,NA,false
bPsPJkV6,3ki0jd2zv4v3t84iv1hywef3wi676h,34j10vatjjbvfu2sk34visivo5ciqk,bPsPJkV6,2020-0188,2020-11-23,22:00:00,22:28:47,NA,incomplete,123,color,0,left,Red_Plus_Grid_1.jpg,Red_Circle_Stripes_2.jpg,Green_Star_Grid_4.jpg,right,1319.0000000001164,false,high,NA,NA,NA,NA,NA,NA,NA,false
bPsPJkV6,3ki0jd2zv4v3t84iv1hywef3wi676h,34j10vatjjbvfu2sk34visivo5ciqk,bPsPJkV6,2020-0188,2020-11-23,22:00:00,22:28:47,NA,incomplete,124,color,1,left,Red_Plus_Stripes_4.jpg,Red_Star_Dots_2.jpg,Blue_Triangle_Stripes_3.jpg,right,1687,false,high,NA,NA,NA,NA,NA,NA,NA,false
bPsPJkV6,3ki0jd2zv4v3t84iv1hywef3wi676h,34j10vatjjbvfu2sk34visivo5ciqk,bPsPJkV6,2020-0188,2020-11-23,22:00:00,22:28:47,NA,incomplete,125,color,1,right,Blue_Plus_Chess_2.jpg,Purple_Star_Chess_3.jpg,Blue_Triangle_Stripes_1.jpg,right,1094,true,high,NA,NA,NA,NA,NA,NA,NA,false
bPsPJkV6,3ki0jd2zv4v3t84iv1hywef3wi676h,34j10vatjjbvfu2sk34visivo5ciqk,bPsPJkV6,2020-0188,2020-11-23,22:00:00,22:28:47,NA,incomplete,126,color,1,left,Green_Star_Stripes_4.jpg,Green_Circle_Chess_1.jpg,Blue_Plus_Stripes_2.jpg,left,1001,true,high,NA,NA,NA,NA,NA,NA,NA,false
bPsPJkV6,3ki0jd2zv4v3t84iv1hywef3wi676h,34j10vatjjbvfu2sk34visivo5ciqk,bPsPJkV6,2020-0188,2020-11-23,22:00:00,22:28:47,NA,incomplete,127,color,1,left,Purple_Star_Grid_2.jpg,Purple_Circle_Dots_1.jpg,Red_Plus_Grid_4.jpg,left,1285,true,high,NA,NA,NA,NA,NA,NA,NA,false
bPsPJkV6,3ki0jd2zv4v3t84iv1hywef3wi676h,34j10vatjjbvfu2sk34visivo5ciqk,bPsPJkV6,2020-0188,2020-11-23,22:00:00,22:28:47,NA,incomplete,128,color,1,left,Green_Plus_Stripes_1.jpg,Green_Triangle_Dots_2.jpg,Blue_Star_Stripes_3.jpg,left,1122.0000000001164,true,high,NA,NA,NA,NA,NA,NA,NA,false
bPsPJkV6,3ki0jd2zv4v3t84iv1hywef3wi676h,34j10vatjjbvfu2sk34visivo5ciqk,bPsPJkV6,2020-0188,2020-11-23,22:00:00,22:28:47,NA,incomplete,129,color,1,right,Purple_Triangle_Stripes_3.jpg,Red_Circle_Stripes_1.jpg,Purple_Plus_Chess_4.jpg,right,1533.9999999998836,true,high,NA,NA,NA,NA,NA,NA,NA,false
bPsPJkV6,3ki0jd2zv4v3t84iv1hywef3wi676h,34j10vatjjbvfu2sk34visivo5ciqk,bPsPJkV6,2020-0188,2020-11-23,22:00:00,22:28:47,NA,incomplete,130,color,1,left,Red_Circle_Stripes_3.jpg,Red_Triangle_Chess_2.jpg,Blue_Plus_Stripes_4.jpg,left,1095,true,high,NA,NA,NA,NA,NA,NA,NA,false
bPsPJkV6,3ki0jd2zv4v3t84iv1hywef3wi676h,34j10vatjjbvfu2sk34visivo5ciqk,bPsPJkV6,2020-0188,2020-11-23,22:00:00,22:28:47,NA,incomplete,131,color,0,left,Blue_Triangle_Stripes_3.jpg,Blue_Plus_Grid_2.jpg,Green_Circle_Stripes_4.jpg,left,1178.9999999998836,true,high,NA,NA,NA,NA,NA,NA,NA,false
bPsPJkV6,3ki0jd2zv4v3t84iv1hywef3wi676h,34j10vatjjbvfu2sk34visivo5ciqk,bPsPJkV6,2020-0188,2020-11-23,22:00:00,22:28:47,NA,incomplete,132,color,1,right,Green_Plus_Stripes_2.jpg,Blue_Star_Stripes_1.jpg,Green_Triangle_Chess_4.jpg,right,1115,true,high,NA,NA,NA,NA,NA,NA,NA,false
bPsPJkV6,3ki0jd2zv4v3t84iv1hywef3wi676h,34j10vatjjbvfu2sk34visivo5ciqk,bPsPJkV6,2020-0188,2020-11-23,22:00:00,22:28:47,NA,incomplete,133,color,1,left,Red_Plus_Dots_4.jpg,Red_Triangle_Stripes_3.jpg,Green_Star_Dots_2.jpg,left,1061,true,high,NA,NA,NA,NA,NA,NA,NA,false
bPsPJkV6,3ki0jd2zv4v3t84iv1hywef3wi676h,34j10vatjjbvfu2sk34visivo5ciqk,bPsPJkV6,2020-0188,2020-11-23,22:00:00,22:28:47,NA,incomplete,134,color,0,left,Blue_Star_Dots_1.jpg,Blue_Plus_Chess_3.jpg,Purple_Triangle_Dots_2.jpg,left,1010,true,high,NA,NA,NA,NA,NA,NA,NA,false
bPsPJkV6,3ki0jd2zv4v3t84iv1hywef3wi676h,34j10vatjjbvfu2sk34visivo5ciqk,bPsPJkV6,2020-0188,2020-11-23,22:00:00,22:28:47,NA,incomplete,135,color,1,left,Purple_Plus_Dots_3.jpg,Purple_Star_Chess_4.jpg,Red_Circle_Dots_2.jpg,left,1177,true,high,NA,NA,NA,NA,NA,NA,NA,false
bPsPJkV6,3ki0jd2zv4v3t84iv1hywef3wi676h,34j10vatjjbvfu2sk34visivo5ciqk,bPsPJkV6,2020-0188,2020-11-23,22:00:00,22:28:47,NA,incomplete,136,color,0,left,Purple_Circle_Stripes_2.jpg,Purple_Star_Dots_3.jpg,Red_Plus_Stripes_1.jpg,left,1027.0000000001164,true,high,NA,NA,NA,NA,NA,NA,NA,false
bPsPJkV6,3ki0jd2zv4v3t84iv1hywef3wi676h,34j10vatjjbvfu2sk34visivo5ciqk,bPsPJkV6,2020-0188,2020-11-23,22:00:00,22:28:47,NA,incomplete,137,color,1,right,Red_Circle_Grid_3.jpg,Blue_Triangle_Grid_2.jpg,Red_Plus_Dots_1.jpg,right,1217,true,high,NA,NA,NA,NA,NA,NA,NA,false
bPsPJkV6,3ki0jd2zv4v3t84iv1hywef3wi676h,34j10vatjjbvfu2sk34visivo5ciqk,bPsPJkV6,2020-0188,2020-11-23,22:00:00,22:28:47,NA,incomplete,138,color,1,right,Blue_Star_Dots_3.jpg,Red_Circle_Dots_1.jpg,Blue_Triangle_Stripes_4.jpg,left,1001.9999999998836,false,high,NA,NA,NA,NA,NA,NA,NA,false
bPsPJkV6,3ki0jd2zv4v3t84iv1hywef3wi676h,34j10vatjjbvfu2sk34visivo5ciqk,bPsPJkV6,2020-0188,2020-11-23,22:00:00,22:28:47,NA,incomplete,139,color,0,right,Green_Triangle_Grid_4.jpg,Purple_Star_Grid_2.jpg,Green_Circle_Stripes_3.jpg,right,1205.0000000001164,true,high,NA,NA,NA,NA,NA,NA,NA,false
bPsPJkV6,3ki0jd2zv4v3t84iv1hywef3wi676h,34j10vatjjbvfu2sk34visivo5ciqk,bPsPJkV6,2020-0188,2020-11-23,22:00:00,22:28:47,NA,incomplete,140,filling,1,left,Red_Star_Chess_3.jpg,Purple_Circle_Chess_2.jpg,Red_Plus_Stripes_1.jpg,left,1588.9999999998836,true,high,NA,NA,NA,NA,NA,NA,NA,false
bPsPJkV6,3ki0jd2zv4v3t84iv1hywef3wi676h,34j10vatjjbvfu2sk34visivo5ciqk,bPsPJkV6,2020-0188,2020-11-23,22:00:00,22:28:47,NA,incomplete,141,filling,1,left,Purple_Circle_Grid_4.jpg,Red_Plus_Grid_3.jpg,Purple_Star_Stripes_1.jpg,left,1507.9999999998836,true,high,NA,NA,NA,NA,NA,NA,NA,false
bPsPJkV6,3ki0jd2zv4v3t84iv1hywef3wi676h,34j10vatjjbvfu2sk34visivo5ciqk,bPsPJkV6,2020-0188,2020-11-23,22:00:00,22:28:47,NA,incomplete,142,filling,1,right,Green_Triangle_Grid_3.jpg,Green_Plus_Stripes_4.jpg,Blue_Circle_Grid_2.jpg,left,1724.0000000001164,false,high,NA,NA,NA,NA,NA,NA,NA,false
bPsPJkV6,3ki0jd2zv4v3t84iv1hywef3wi676h,34j10vatjjbvfu2sk34visivo5ciqk,bPsPJkV6,2020-0188,2020-11-23,22:00:00,22:28:47,NA,incomplete,143,filling,0,right,Red_Star_Chess_4.jpg,Red_Plus_Dots_2.jpg,Green_Triangle_Chess_1.jpg,right,1384,true,high,NA,NA,NA,NA,NA,NA,NA,false
bPsPJkV6,3ki0jd2zv4v3t84iv1hywef3wi676h,34j10vatjjbvfu2sk34visivo5ciqk,bPsPJkV6,2020-0188,2020-11-23,22:00:00,22:28:47,NA,incomplete,144,filling,1,left,Green_Circle_Grid_3.jpg,Red_Triangle_Grid_1.jpg,Green_Star_Chess_2.jpg,left,1555.9999999998836,true,high,NA,NA,NA,NA,NA,NA,NA,false
bPsPJkV6,3ki0jd2zv4v3t84iv1hywef3wi676h,34j10vatjjbvfu2sk34visivo5ciqk,bPsPJkV6,2020-0188,2020-11-23,22:00:00,22:28:47,NA,incomplete,145,filling,0,left,Purple_Circle_Chess_2.jpg,Green_Triangle_Chess_3.jpg,Purple_Plus_Dots_4.jpg,left,1265,true,high,NA,NA,NA,NA,NA,NA,NA,false
bPsPJkV6,3ki0jd2zv4v3t84iv1hywef3wi676h,34j10vatjjbvfu2sk34visivo5ciqk,bPsPJkV6,2020-0188,2020-11-23,22:00:00,22:28:47,NA,incomplete,146,filling,1,left,Green_Circle_Grid_1.jpg,Purple_Star_Grid_3.jpg,Green_Triangle_Dots_2.jpg,left,1337,true,high,NA,NA,NA,NA,NA,NA,NA,false
bPsPJkV6,3ki0jd2zv4v3t84iv1hywef3wi676h,34j10vatjjbvfu2sk34visivo5ciqk,bPsPJkV6,2020-0188,2020-11-23,22:00:00,22:28:47,NA,incomplete,147,filling,1,right,Green_Circle_Stripes_4.jpg,Green_Star_Dots_2.jpg,Blue_Triangle_Stripes_1.jpg,right,1176.9999999998836,true,high,NA,NA,NA,NA,NA,NA,NA,false
bPsPJkV6,3ki0jd2zv4v3t84iv1hywef3wi676h,34j10vatjjbvfu2sk34visivo5ciqk,bPsPJkV6,2020-0188,2020-11-23,22:00:00,22:28:47,NA,incomplete,148,filling,1,left,Purple_Plus_Chess_4.jpg,Green_Star_Chess_2.jpg,Purple_Circle_Dots_3.jpg,left,1369.0000000001164,true,high,NA,NA,NA,NA,NA,NA,NA,false
bPsPJkV6,3ki0jd2zv4v3t84iv1hywef3wi676h,34j10vatjjbvfu2sk34visivo5ciqk,bPsPJkV6,2020-0188,2020-11-23,22:00:00,22:28:47,NA,incomplete,149,filling,1,left,Red_Triangle_Chess_3.jpg,Blue_Star_Chess_4.jpg,Red_Circle_Grid_2.jpg,left,1570.0000000001164,true,high,NA,NA,NA,NA,NA,NA,NA,false
bPsPJkV6,3ki0jd2zv4v3t84iv1hywef3wi676h,34j10vatjjbvfu2sk34visivo5ciqk,bPsPJkV6,2020-0188,2020-11-23,22:00:00,22:28:47,NA,incomplete,150,filling,1,left,Green_Circle_Grid_3.jpg,Purple_Star_Grid_1.jpg,Green_Triangle_Chess_2.jpg,left,1374,true,high,NA,NA,NA,NA,NA,NA,NA,false
bPsPJkV6,3ki0jd2zv4v3t84iv1hywef3wi676h,34j10vatjjbvfu2sk34visivo5ciqk,bPsPJkV6,2020-0188,2020-11-23,22:00:00,22:28:47,NA,incomplete,151,filling,1,left,Red_Plus_Dots_1.jpg,Green_Circle_Dots_4.jpg,Red_Star_Chess_2.jpg,left,1303,true,high,NA,NA,NA,NA,NA,NA,NA,false
bPsPJkV6,3ki0jd2zv4v3t84iv1hywef3wi676h,34j10vatjjbvfu2sk34visivo5ciqk,bPsPJkV6,2020-0188,2020-11-23,22:00:00,22:28:47,NA,incomplete,152,filling,1,right,Purple_Circle_Grid_3.jpg,Purple_Star_Dots_1.jpg,Green_Plus_Grid_2.jpg,right,1289.9999999998836,true,high,NA,NA,NA,NA,NA,NA,NA,false
bPsPJkV6,3ki0jd2zv4v3t84iv1hywef3wi676h,34j10vatjjbvfu2sk34visivo5ciqk,bPsPJkV6,2020-0188,2020-11-23,22:00:00,22:28:47,NA,incomplete,153,filling,1,right,Red_Triangle_Stripes_1.jpg,Red_Star_Dots_4.jpg,Green_Circle_Stripes_3.jpg,right,1679,true,high,NA,NA,NA,NA,NA,NA,NA,false
bPsPJkV6,3ki0jd2zv4v3t84iv1hywef3wi676h,34j10vatjjbvfu2sk34visivo5ciqk,bPsPJkV6,2020-0188,2020-11-23,22:00:00,22:28:47,NA,incomplete,154,filling,0,left,Red_Star_Stripes_3.jpg,Purple_Triangle_Stripes_2.jpg,Red_Circle_Dots_1.jpg,left,1342,true,high,NA,NA,NA,NA,NA,NA,NA,false
bPsPJkV6,3ki0jd2zv4v3t84iv1hywef3wi676h,34j10vatjjbvfu2sk34visivo5ciqk,bPsPJkV6,2020-0188,2020-11-23,22:00:00,22:28:47,NA,incomplete,155,filling,1,left,Purple_Star_Dots_4.jpg,Red_Circle_Dots_2.jpg,Purple_Plus_Grid_3.jpg,left,1454.9999999998836,true,high,NA,NA,NA,NA,NA,NA,NA,false
bPsPJkV6,3ki0jd2zv4v3t84iv1hywef3wi676h,34j10vatjjbvfu2sk34visivo5ciqk,bPsPJkV6,2020-0188,2020-11-23,22:00:00,22:28:47,NA,incomplete,156,filling,1,right,Green_Circle_Dots_4.jpg,Green_Star_Grid_3.jpg,Blue_Triangle_Dots_2.jpg,right,1602,true,high,NA,NA,NA,NA,NA,NA,NA,false
bPsPJkV6,3ki0jd2zv4v3t84iv1hywef3wi676h,34j10vatjjbvfu2sk34visivo5ciqk,bPsPJkV6,2020-0188,2020-11-23,22:00:00,22:28:47,NA,incomplete,157,filling,1,left,Green_Star_Chess_2.jpg,Red_Plus_Chess_1.jpg,Green_Circle_Stripes_4.jpg,left,1264.0000000001164,true,high,NA,NA,NA,NA,NA,NA,NA,false
bPsPJkV6,3ki0jd2zv4v3t84iv1hywef3wi676h,34j10vatjjbvfu2sk34visivo5ciqk,bPsPJkV6,2020-0188,2020-11-23,22:00:00,22:28:47,NA,incomplete,158,filling,1,left,Red_Triangle_Stripes_4.jpg,Green_Plus_Stripes_3.jpg,Red_Circle_Dots_1.jpg,left,1315.0000000001164,true,high,NA,NA,NA,NA,NA,NA,NA,false
bPsPJkV6,3ki0jd2zv4v3t84iv1hywef3wi676h,34j10vatjjbvfu2sk34visivo5ciqk,bPsPJkV6,2020-0188,2020-11-23,22:00:00,22:28:47,NA,incomplete,159,filling,1,left,Green_Triangle_Stripes_4.jpg,Purple_Plus_Stripes_3.jpg,Green_Star_Grid_1.jpg,left,1310.0000000001164,true,high,NA,NA,NA,NA,NA,NA,NA,false
bPsPJkV6,3ki0jd2zv4v3t84iv1hywef3wi676h,34j10vatjjbvfu2sk34visivo5ciqk,bPsPJkV6,2020-0188,2020-11-23,22:00:00,22:28:47,NA,incomplete,160,color,0,left,Red_Star_Stripes_1.jpg,Red_Circle_Chess_2.jpg,Green_Triangle_Stripes_3.jpg,right,1811.9999999998836,false,high,NA,NA,NA,NA,NA,NA,NA,false
bPsPJkV6,3ki0jd2zv4v3t84iv1hywef3wi676h,34j10vatjjbvfu2sk34visivo5ciqk,bPsPJkV6,2020-0188,2020-11-23,22:00:00,22:28:47,NA,incomplete,161,color,1,left,Blue_Star_Stripes_2.jpg,Blue_Triangle_Dots_3.jpg,Purple_Circle_Stripes_4.jpg,right,1799.9999999998836,false,high,NA,NA,NA,NA,NA,NA,NA,false
bPsPJkV6,3ki0jd2zv4v3t84iv1hywef3wi676h,34j10vatjjbvfu2sk34visivo5ciqk,bPsPJkV6,2020-0188,2020-11-23,22:00:00,22:28:47,NA,incomplete,162,color,0,right,Red_Circle_Grid_1.jpg,Purple_Triangle_Grid_2.jpg,Red_Star_Dots_3.jpg,left,1399,false,high,NA,NA,NA,NA,NA,NA,NA,false
bPsPJkV6,3ki0jd2zv4v3t84iv1hywef3wi676h,34j10vatjjbvfu2sk34visivo5ciqk,bPsPJkV6,2020-0188,2020-11-23,22:00:00,22:28:47,NA,incomplete,163,color,1,right,Green_Star_Stripes_1.jpg,Red_Triangle_Stripes_2.jpg,Green_Plus_Grid_4.jpg,left,1784,false,high,NA,NA,NA,NA,NA,NA,NA,false
bPsPJkV6,3ki0jd2zv4v3t84iv1hywef3wi676h,34j10vatjjbvfu2sk34visivo5ciqk,bPsPJkV6,2020-0188,2020-11-23,22:00:00,22:28:47,NA,incomplete,164,color,1,right,Red_Star_Chess_1.jpg,Purple_Plus_Chess_4.jpg,Red_Triangle_Grid_2.jpg,left,1579.0000000001164,false,high,NA,NA,NA,NA,NA,NA,NA,false
bPsPJkV6,3ki0jd2zv4v3t84iv1hywef3wi676h,34j10vatjjbvfu2sk34visivo5ciqk,bPsPJkV6,2020-0188,2020-11-23,22:00:00,22:28:47,NA,incomplete,165,color,1,left,Green_Plus_Stripes_1.jpg,Green_Star_Dots_2.jpg,Blue_Circle_Stripes_3.jpg,right,1680.0000000001164,false,high,NA,NA,NA,NA,NA,NA,NA,false
bPsPJkV6,3ki0jd2zv4v3t84iv1hywef3wi676h,34j10vatjjbvfu2sk34visivo5ciqk,bPsPJkV6,2020-0188,2020-11-23,22:00:00,22:28:47,NA,incomplete,166,color,1,right,Green_Circle_Grid_2.jpg,Purple_Triangle_Grid_4.jpg,Green_Plus_Dots_3.jpg,left,1490,false,high,NA,NA,NA,NA,NA,NA,NA,false
bPsPJkV6,3ki0jd2zv4v3t84iv1hywef3wi676h,34j10vatjjbvfu2sk34visivo5ciqk,bPsPJkV6,2020-0188,2020-11-23,22:00:00,22:28:47,NA,incomplete,167,color,1,right,Red_Circle_Grid_4.jpg,Green_Triangle_Grid_2.jpg,Red_Star_Chess_1.jpg,right,1180,true,high,NA,NA,NA,NA,NA,NA,NA,false
bPsPJkV6,3ki0jd2zv4v3t84iv1hywef3wi676h,34j10vatjjbvfu2sk34visivo5ciqk,bPsPJkV6,2020-0188,2020-11-23,22:00:00,22:28:47,NA,incomplete,168,color,1,left,Red_Plus_Stripes_2.jpg,Red_Star_Dots_3.jpg,Purple_Circle_Stripes_1.jpg,left,1213.9999999998836,true,high,NA,NA,NA,NA,NA,NA,NA,false
bPsPJkV6,3ki0jd2zv4v3t84iv1hywef3wi676h,34j10vatjjbvfu2sk34visivo5ciqk,bPsPJkV6,2020-0188,2020-11-23,22:00:00,22:28:47,NA,incomplete,169,color,1,left,Green_Triangle_Dots_2.jpg,Green_Star_Grid_1.jpg,Red_Circle_Dots_3.jpg,left,1017.0000000001164,true,high,NA,NA,NA,NA,NA,NA,NA,false
bPsPJkV6,3ki0jd2zv4v3t84iv1hywef3wi676h,34j10vatjjbvfu2sk34visivo5ciqk,bPsPJkV6,2020-0188,2020-11-23,22:00:00,22:28:47,NA,incomplete,170,color,1,right,Purple_Plus_Dots_2.jpg,Red_Circle_Dots_3.jpg,Purple_Triangle_Grid_4.jpg,right,1151.9999999998836,true,high,NA,NA,NA,NA,NA,NA,NA,false
bPsPJkV6,3ki0jd2zv4v3t84iv1hywef3wi676h,34j10vatjjbvfu2sk34visivo5ciqk,bPsPJkV6,2020-0188,2020-11-23,22:00:00,22:28:47,NA,incomplete,171,color,1,right,Red_Plus_Chess_3.jpg,Green_Star_Chess_2.jpg,Red_Triangle_Grid_1.jpg,right,990,true,high,NA,NA,NA,NA,NA,NA,NA,false
bPsPJkV6,3ki0jd2zv4v3t84iv1hywef3wi676h,34j10vatjjbvfu2sk34visivo5ciqk,bPsPJkV6,2020-0188,2020-11-23,22:00:00,22:28:47,NA,incomplete,172,color,1,right,Purple_Star_Dots_3.jpg,Green_Plus_Dots_2.jpg,Purple_Triangle_Chess_1.jpg,right,1070.0000000001164,true,high,NA,NA,NA,NA,NA,NA,NA,false
bPsPJkV6,3ki0jd2zv4v3t84iv1hywef3wi676h,34j10vatjjbvfu2sk34visivo5ciqk,bPsPJkV6,2020-0188,2020-11-23,22:00:00,22:28:47,NA,incomplete,173,color,0,right,Blue_Star_Grid_3.jpg,Purple_Circle_Grid_2.jpg,Blue_Triangle_Chess_1.jpg,right,1075.0000000001164,true,high,NA,NA,NA,NA,NA,NA,NA,false
bPsPJkV6,3ki0jd2zv4v3t84iv1hywef3wi676h,34j10vatjjbvfu2sk34visivo5ciqk,bPsPJkV6,2020-0188,2020-11-23,22:00:00,22:28:47,NA,incomplete,174,color,1,right,Green_Star_Chess_1.jpg,Blue_Plus_Chess_4.jpg,Green_Circle_Stripes_3.jpg,right,1088.0000000001164,true,high,NA,NA,NA,NA,NA,NA,NA,false
bPsPJkV6,3ki0jd2zv4v3t84iv1hywef3wi676h,34j10vatjjbvfu2sk34visivo5ciqk,bPsPJkV6,2020-0188,2020-11-23,22:00:00,22:28:47,NA,incomplete,175,color,0,left,Purple_Plus_Chess_4.jpg,Purple_Triangle_Grid_1.jpg,Blue_Circle_Chess_2.jpg,left,1116,true,high,NA,NA,NA,NA,NA,NA,NA,false
bPsPJkV6,3ki0jd2zv4v3t84iv1hywef3wi676h,34j10vatjjbvfu2sk34visivo5ciqk,bPsPJkV6,2020-0188,2020-11-23,22:00:00,22:28:47,NA,incomplete,176,color,1,left,Red_Star_Dots_4.jpg,Red_Triangle_Chess_3.jpg,Blue_Circle_Dots_1.jpg,left,1193,true,high,NA,NA,NA,NA,NA,NA,NA,false
bPsPJkV6,3ki0jd2zv4v3t84iv1hywef3wi676h,34j10vatjjbvfu2sk34visivo5ciqk,bPsPJkV6,2020-0188,2020-11-23,22:00:00,22:28:47,NA,incomplete,177,color,1,right,Green_Triangle_Grid_4.jpg,Purple_Plus_Grid_3.jpg,Green_Circle_Stripes_1.jpg,right,994,true,high,NA,NA,NA,NA,NA,NA,NA,false
bPsPJkV6,3ki0jd2zv4v3t84iv1hywef3wi676h,34j10vatjjbvfu2sk34visivo5ciqk,bPsPJkV6,2020-0188,2020-11-23,22:00:00,22:28:47,NA,incomplete,178,color,1,right,Purple_Circle_Grid_1.jpg,Green_Plus_Grid_3.jpg,Purple_Triangle_Stripes_4.jpg,right,1444.0000000001164,true,high,NA,NA,NA,NA,NA,NA,NA,false
bPsPJkV6,3ki0jd2zv4v3t84iv1hywef3wi676h,34j10vatjjbvfu2sk34visivo5ciqk,bPsPJkV6,2020-0188,2020-11-23,22:00:00,22:28:47,NA,incomplete,179,color,1,right,Blue_Triangle_Stripes_2.jpg,Green_Star_Stripes_3.jpg,Blue_Circle_Chess_4.jpg,none,0,false,high,NA,NA,NA,NA,NA,NA,NA,false
bPsPJkV6,3ki0jd2zv4v3t84iv1hywef3wi676h,34j10vatjjbvfu2sk34visivo5ciqk,bPsPJkV6,2020-0188,2020-11-23,22:00:00,22:28:47,NA,incomplete,180,filling,1,left,Blue_Star_Stripes_2.jpg,Red_Triangle_Stripes_1.jpg,Blue_Plus_Dots_4.jpg,right,1369,false,high,NA,NA,NA,NA,NA,NA,NA,false
bPsPJkV6,3ki0jd2zv4v3t84iv1hywef3wi676h,34j10vatjjbvfu2sk34visivo5ciqk,bPsPJkV6,2020-0188,2020-11-23,22:00:00,22:28:47,NA,incomplete,181,filling,1,left,Red_Triangle_Chess_3.jpg,Green_Star_Chess_2.jpg,Red_Plus_Stripes_1.jpg,right,1630.9999999997672,false,high,NA,NA,NA,NA,NA,NA,NA,false
bPsPJkV6,3ki0jd2zv4v3t84iv1hywef3wi676h,34j10vatjjbvfu2sk34visivo5ciqk,bPsPJkV6,2020-0188,2020-11-23,22:00:00,22:28:47,NA,incomplete,182,filling,1,right,Green_Star_Dots_4.jpg,Green_Triangle_Stripes_3.jpg,Blue_Circle_Dots_2.jpg,right,1473,true,high,NA,NA,NA,NA,NA,NA,NA,false
bPsPJkV6,3ki0jd2zv4v3t84iv1hywef3wi676h,34j10vatjjbvfu2sk34visivo5ciqk,bPsPJkV6,2020-0188,2020-11-23,22:00:00,22:28:47,NA,incomplete,183,filling,1,right,Purple_Plus_Grid_2.jpg,Purple_Star_Stripes_3.jpg,Green_Circle_Grid_1.jpg,right,1620,true,high,NA,NA,NA,NA,NA,NA,NA,false
bPsPJkV6,3ki0jd2zv4v3t84iv1hywef3wi676h,34j10vatjjbvfu2sk34visivo5ciqk,bPsPJkV6,2020-0188,2020-11-23,22:00:00,22:28:47,NA,incomplete,184,filling,1,right,Red_Circle_Grid_4.jpg,Red_Triangle_Stripes_1.jpg,Blue_Star_Grid_3.jpg,right,1605,true,high,NA,NA,NA,NA,NA,NA,NA,false
bPsPJkV6,3ki0jd2zv4v3t84iv1hywef3wi676h,34j10vatjjbvfu2sk34visivo5ciqk,bPsPJkV6,2020-0188,2020-11-23,22:00:00,22:28:47,NA,incomplete,185,filling,1,left,Green_Triangle_Grid_3.jpg,Red_Circle_Grid_1.jpg,Green_Star_Chess_2.jpg,left,1534.0000000002328,true,high,NA,NA,NA,NA,NA,NA,NA,false
bPsPJkV6,3ki0jd2zv4v3t84iv1hywef3wi676h,34j10vatjjbvfu2sk34visivo5ciqk,bPsPJkV6,2020-0188,2020-11-23,22:00:00,22:28:47,NA,incomplete,186,filling,0,right,Blue_Star_Grid_4.jpg,Blue_Circle_Dots_3.jpg,Red_Triangle_Grid_1.jpg,right,1381.0000000002328,true,high,NA,NA,NA,NA,NA,NA,NA,false
bPsPJkV6,3ki0jd2zv4v3t84iv1hywef3wi676h,34j10vatjjbvfu2sk34visivo5ciqk,bPsPJkV6,2020-0188,2020-11-23,22:00:00,22:28:47,NA,incomplete,187,filling,1,right,Purple_Triangle_Grid_1.jpg,Purple_Plus_Stripes_4.jpg,Blue_Star_Grid_3.jpg,left,1193.0000000002328,false,high,NA,NA,NA,NA,NA,NA,NA,false
bPsPJkV6,3ki0jd2zv4v3t84iv1hywef3wi676h,34j10vatjjbvfu2sk34visivo5ciqk,bPsPJkV6,2020-0188,2020-11-23,22:00:00,22:28:47,NA,incomplete,188,filling,1,right,Purple_Circle_Stripes_4.jpg,Purple_Triangle_Dots_2.jpg,Red_Plus_Stripes_3.jpg,right,1504.0000000002328,true,high,NA,NA,NA,NA,NA,NA,NA,false
bPsPJkV6,3ki0jd2zv4v3t84iv1hywef3wi676h,34j10vatjjbvfu2sk34visivo5ciqk,bPsPJkV6,2020-0188,2020-11-23,22:00:00,22:28:47,NA,incomplete,189,filling,0,right,Purple_Star_Grid_2.jpg,Purple_Plus_Chess_1.jpg,Green_Circle_Grid_4.jpg,right,1596,true,high,NA,NA,NA,NA,NA,NA,NA,false
bPsPJkV6,3ki0jd2zv4v3t84iv1hywef3wi676h,34j10vatjjbvfu2sk34visivo5ciqk,bPsPJkV6,2020-0188,2020-11-23,22:00:00,22:28:47,NA,incomplete,190,filling,1,right,Purple_Plus_Grid_4.jpg,Purple_Circle_Dots_3.jpg,Red_Triangle_Grid_2.jpg,right,1542,true,high,NA,NA,NA,NA,NA,NA,NA,false
bPsPJkV6,3ki0jd2zv4v3t84iv1hywef3wi676h,34j10vatjjbvfu2sk34visivo5ciqk,bPsPJkV6,2020-0188,2020-11-23,22:00:00,22:28:47,NA,incomplete,191,filling,1,left,Blue_Star_Stripes_3.jpg,Green_Plus_Stripes_4.jpg,Blue_Circle_Grid_2.jpg,left,1763,true,high,NA,NA,NA,NA,NA,NA,NA,false
bPsPJkV6,3ki0jd2zv4v3t84iv1hywef3wi676h,34j10vatjjbvfu2sk34visivo5ciqk,bPsPJkV6,2020-0188,2020-11-23,22:00:00,22:28:47,NA,incomplete,192,filling,1,right,Green_Triangle_Grid_4.jpg,Green_Plus_Chess_2.jpg,Blue_Star_Grid_3.jpg,right,1500,true,high,NA,NA,NA,NA,NA,NA,NA,false
bPsPJkV6,3ki0jd2zv4v3t84iv1hywef3wi676h,34j10vatjjbvfu2sk34visivo5ciqk,bPsPJkV6,2020-0188,2020-11-23,22:00:00,22:28:47,NA,incomplete,193,filling,0,left,Green_Circle_Stripes_3.jpg,Blue_Triangle_Stripes_1.jpg,Green_Plus_Grid_2.jpg,left,1436.0000000002328,true,high,NA,NA,NA,NA,NA,NA,NA,false
bPsPJkV6,3ki0jd2zv4v3t84iv1hywef3wi676h,34j10vatjjbvfu2sk34visivo5ciqk,bPsPJkV6,2020-0188,2020-11-23,22:00:00,22:28:47,NA,incomplete,194,filling,1,right,Blue_Circle_Chess_2.jpg,Blue_Triangle_Grid_1.jpg,Green_Star_Chess_4.jpg,right,1602,true,high,NA,NA,NA,NA,NA,NA,NA,false
bPsPJkV6,3ki0jd2zv4v3t84iv1hywef3wi676h,34j10vatjjbvfu2sk34visivo5ciqk,bPsPJkV6,2020-0188,2020-11-23,22:00:00,22:28:47,NA,incomplete,195,filling,1,left,Purple_Plus_Dots_3.jpg,Red_Star_Dots_4.jpg,Purple_Triangle_Stripes_1.jpg,right,1694,false,high,NA,NA,NA,NA,NA,NA,NA,false
bPsPJkV6,3ki0jd2zv4v3t84iv1hywef3wi676h,34j10vatjjbvfu2sk34visivo5ciqk,bPsPJkV6,2020-0188,2020-11-23,22:00:00,22:28:47,NA,incomplete,196,filling,0,right,Green_Star_Grid_2.jpg,Green_Plus_Dots_3.jpg,Blue_Triangle_Grid_4.jpg,right,1477.0000000002328,true,high,NA,NA,NA,NA,NA,NA,NA,false
bPsPJkV6,3ki0jd2zv4v3t84iv1hywef3wi676h,34j10vatjjbvfu2sk34visivo5ciqk,bPsPJkV6,2020-0188,2020-11-23,22:00:00,22:28:47,NA,incomplete,197,filling,1,left,Purple_Circle_Grid_2.jpg,Green_Star_Grid_1.jpg,Purple_Plus_Dots_4.jpg,left,1447.9999999997672,true,high,NA,NA,NA,NA,NA,NA,NA,false
bPsPJkV6,3ki0jd2zv4v3t84iv1hywef3wi676h,34j10vatjjbvfu2sk34visivo5ciqk,bPsPJkV6,2020-0188,2020-11-23,22:00:00,22:28:47,NA,incomplete,198,filling,0,left,Blue_Triangle_Chess_1.jpg,Red_Plus_Chess_3.jpg,Blue_Star_Stripes_4.jpg,left,1622.0000000002328,true,high,NA,NA,NA,NA,NA,NA,NA,false
bPsPJkV6,3ki0jd2zv4v3t84iv1hywef3wi676h,34j10vatjjbvfu2sk34visivo5ciqk,bPsPJkV6,2020-0188,2020-11-23,22:00:00,22:28:47,NA,incomplete,199,filling,1,left,Purple_Star_Dots_2.jpg,Red_Triangle_Dots_1.jpg,Purple_Circle_Chess_4.jpg,left,1346,true,high,NA,NA,NA,NA,NA,NA,NA,false
bPsPJkV6,3ki0jd2zv4v3t84iv1hywef3wi676h,34j10vatjjbvfu2sk34visivo5ciqk,bPsPJkV6,2020-0188,2020-11-23,22:00:00,22:28:47,NA,incomplete,200,color,0,left,Purple_Circle_Stripes_4.jpg,Purple_Plus_Dots_3.jpg,Blue_Star_Stripes_1.jpg,right,1398.0000000002328,false,high,NA,NA,NA,NA,NA,NA,NA,false
bPsPJkV6,3ki0jd2zv4v3t84iv1hywef3wi676h,34j10vatjjbvfu2sk34visivo5ciqk,bPsPJkV6,2020-0188,2020-11-23,22:00:00,22:28:47,NA,incomplete,201,color,1,right,Purple_Triangle_Grid_2.jpg,Green_Plus_Grid_4.jpg,Purple_Star_Stripes_3.jpg,left,1503.0000000002328,false,high,NA,NA,NA,NA,NA,NA,NA,false
bPsPJkV6,3ki0jd2zv4v3t84iv1hywef3wi676h,34j10vatjjbvfu2sk34visivo5ciqk,bPsPJkV6,2020-0188,2020-11-23,22:00:00,22:28:47,NA,incomplete,202,color,1,left,Green_Triangle_Dots_4.jpg,Green_Circle_Chess_3.jpg,Red_Star_Dots_1.jpg,right,1246.0000000002328,false,high,NA,NA,NA,NA,NA,NA,NA,false
bPsPJkV6,3ki0jd2zv4v3t84iv1hywef3wi676h,34j10vatjjbvfu2sk34visivo5ciqk,bPsPJkV6,2020-0188,2020-11-23,22:00:00,22:28:47,NA,incomplete,203,color,1,left,Red_Circle_Chess_3.jpg,Red_Triangle_Grid_1.jpg,Green_Star_Chess_4.jpg,right,1495.9999999997672,false,high,NA,NA,NA,NA,NA,NA,NA,false
bPsPJkV6,3ki0jd2zv4v3t84iv1hywef3wi676h,34j10vatjjbvfu2sk34visivo5ciqk,bPsPJkV6,2020-0188,2020-11-23,22:00:00,22:28:47,NA,incomplete,204,color,0,right,Blue_Star_Chess_4.jpg,Red_Circle_Chess_1.jpg,Blue_Triangle_Grid_2.jpg,right,1076,true,high,NA,NA,NA,NA,NA,NA,NA,false
bPsPJkV6,3ki0jd2zv4v3t84iv1hywef3wi676h,34j10vatjjbvfu2sk34visivo5ciqk,bPsPJkV6,2020-0188,2020-11-23,22:00:00,22:28:47,NA,incomplete,205,color,1,left,Blue_Triangle_Dots_4.jpg,Blue_Plus_Chess_3.jpg,Green_Circle_Dots_2.jpg,left,1040,true,high,NA,NA,NA,NA,NA,NA,NA,false
bPsPJkV6,3ki0jd2zv4v3t84iv1hywef3wi676h,34j10vatjjbvfu2sk34visivo5ciqk,bPsPJkV6,2020-0188,2020-11-23,22:00:00,22:28:47,NA,incomplete,206,color,1,right,Purple_Plus_Chess_2.jpg,Blue_Triangle_Chess_4.jpg,Purple_Circle_Grid_1.jpg,right,1312.9999999997672,true,high,NA,NA,NA,NA,NA,NA,NA,false
bPsPJkV6,3ki0jd2zv4v3t84iv1hywef3wi676h,34j10vatjjbvfu2sk34visivo5ciqk,bPsPJkV6,2020-0188,2020-11-23,22:00:00,22:28:47,NA,incomplete,207,color,1,right,Purple_Triangle_Chess_2.jpg,Green_Star_Chess_1.jpg,Purple_Circle_Dots_3.jpg,right,1004,true,high,NA,NA,NA,NA,NA,NA,NA,false
bPsPJkV6,3ki0jd2zv4v3t84iv1hywef3wi676h,34j10vatjjbvfu2sk34visivo5ciqk,bPsPJkV6,2020-0188,2020-11-23,22:00:00,22:28:47,NA,incomplete,208,color,1,left,Blue_Plus_Stripes_1.jpg,Blue_Star_Dots_2.jpg,Green_Triangle_Stripes_4.jpg,left,1128.0000000002328,true,high,NA,NA,NA,NA,NA,NA,NA,false
bPsPJkV6,3ki0jd2zv4v3t84iv1hywef3wi676h,34j10vatjjbvfu2sk34visivo5ciqk,bPsPJkV6,2020-0188,2020-11-23,22:00:00,22:28:47,NA,incomplete,209,color,1,left,Green_Star_Stripes_3.jpg,Green_Plus_Dots_2.jpg,Purple_Circle_Stripes_4.jpg,left,1011.9999999997672,true,high,NA,NA,NA,NA,NA,NA,NA,false
bPsPJkV6,3ki0jd2zv4v3t84iv1hywef3wi676h,34j10vatjjbvfu2sk34visivo5ciqk,bPsPJkV6,2020-0188,2020-11-23,22:00:00,22:28:47,NA,incomplete,210,color,1,left,Red_Plus_Dots_3.jpg,Red_Star_Grid_2.jpg,Blue_Triangle_Dots_1.jpg,left,1112.0000000002328,true,high,NA,NA,NA,NA,NA,NA,NA,false
bPsPJkV6,3ki0jd2zv4v3t84iv1hywef3wi676h,34j10vatjjbvfu2sk34visivo5ciqk,bPsPJkV6,2020-0188,2020-11-23,22:00:00,22:28:47,NA,incomplete,211,color,1,left,Green_Star_Grid_3.jpg,Green_Circle_Chess_4.jpg,Blue_Triangle_Grid_2.jpg,left,1034,true,high,NA,NA,NA,NA,NA,NA,NA,false
bPsPJkV6,3ki0jd2zv4v3t84iv1hywef3wi676h,34j10vatjjbvfu2sk34visivo5ciqk,bPsPJkV6,2020-0188,2020-11-23,22:00:00,22:28:47,NA,incomplete,212,color,1,left,Red_Plus_Grid_4.jpg,Red_Circle_Chess_2.jpg,Blue_Star_Grid_1.jpg,left,1183,true,high,NA,NA,NA,NA,NA,NA,NA,false
bPsPJkV6,3ki0jd2zv4v3t84iv1hywef3wi676h,34j10vatjjbvfu2sk34visivo5ciqk,bPsPJkV6,2020-0188,2020-11-23,22:00:00,22:28:47,NA,incomplete,213,color,1,left,Blue_Circle_Stripes_1.jpg,Blue_Triangle_Grid_3.jpg,Red_Plus_Stripes_2.jpg,left,1199.0000000002328,true,high,NA,NA,NA,NA,NA,NA,NA,false
bPsPJkV6,3ki0jd2zv4v3t84iv1hywef3wi676h,34j10vatjjbvfu2sk34visivo5ciqk,bPsPJkV6,2020-0188,2020-11-23,22:00:00,22:28:47,NA,incomplete,214,color,1,right,Green_Triangle_Grid_4.jpg,Red_Circle_Grid_3.jpg,Green_Plus_Chess_2.jpg,right,915.9999999997672,true,high,NA,NA,NA,NA,NA,NA,NA,false
bPsPJkV6,3ki0jd2zv4v3t84iv1hywef3wi676h,34j10vatjjbvfu2sk34visivo5ciqk,bPsPJkV6,2020-0188,2020-11-23,22:00:00,22:28:47,NA,incomplete,215,color,1,right,Purple_Plus_Chess_2.jpg,Red_Triangle_Chess_1.jpg,Purple_Circle_Stripes_4.jpg,right,949,true,high,NA,NA,NA,NA,NA,NA,NA,false
bPsPJkV6,3ki0jd2zv4v3t84iv1hywef3wi676h,34j10vatjjbvfu2sk34visivo5ciqk,bPsPJkV6,2020-0188,2020-11-23,22:00:00,22:28:47,NA,incomplete,216,color,1,left,Red_Star_Stripes_2.jpg,Red_Triangle_Chess_3.jpg,Purple_Circle_Stripes_1.jpg,left,1161,true,high,NA,NA,NA,NA,NA,NA,NA,false
bPsPJkV6,3ki0jd2zv4v3t84iv1hywef3wi676h,34j10vatjjbvfu2sk34visivo5ciqk,bPsPJkV6,2020-0188,2020-11-23,22:00:00,22:28:47,NA,incomplete,217,color,1,right,Blue_Plus_Dots_2.jpg,Green_Star_Dots_3.jpg,Blue_Triangle_Grid_4.jpg,right,928.0000000002328,true,high,NA,NA,NA,NA,NA,NA,NA,false
bPsPJkV6,3ki0jd2zv4v3t84iv1hywef3wi676h,34j10vatjjbvfu2sk34visivo5ciqk,bPsPJkV6,2020-0188,2020-11-23,22:00:00,22:28:47,NA,incomplete,218,color,0,right,Green_Triangle_Dots_2.jpg,Red_Plus_Dots_3.jpg,Green_Circle_Stripes_1.jpg,right,1307.0000000002328,true,high,NA,NA,NA,NA,NA,NA,NA,false
bPsPJkV6,3ki0jd2zv4v3t84iv1hywef3wi676h,34j10vatjjbvfu2sk34visivo5ciqk,bPsPJkV6,2020-0188,2020-11-23,22:00:00,22:28:47,NA,incomplete,219,color,1,right,Blue_Triangle_Chess_3.jpg,Red_Star_Chess_4.jpg,Blue_Circle_Dots_2.jpg,right,1197.9999999997672,true,high,NA,NA,NA,NA,NA,NA,NA,false
bPsPJkV6,3ki0jd2zv4v3t84iv1hywef3wi676h,34j10vatjjbvfu2sk34visivo5ciqk,bPsPJkV6,2020-0188,2020-11-23,22:00:00,22:28:47,NA,incomplete,220,filling,1,right,Red_Triangle_Dots_4.jpg,Red_Plus_Stripes_1.jpg,Blue_Star_Dots_3.jpg,left,1229.0000000002328,false,high,NA,NA,NA,NA,NA,NA,NA,false
bPsPJkV6,3ki0jd2zv4v3t84iv1hywef3wi676h,34j10vatjjbvfu2sk34visivo5ciqk,bPsPJkV6,2020-0188,2020-11-23,22:00:00,22:28:47,NA,incomplete,221,filling,1,right,Blue_Triangle_Grid_1.jpg,Blue_Plus_Stripes_3.jpg,Purple_Star_Grid_2.jpg,left,1221.9999999997672,false,high,NA,NA,NA,NA,NA,NA,NA,false
bPsPJkV6,3ki0jd2zv4v3t84iv1hywef3wi676h,34j10vatjjbvfu2sk34visivo5ciqk,bPsPJkV6,2020-0188,2020-11-23,22:00:00,22:28:47,NA,incomplete,222,filling,1,left,Purple_Circle_Stripes_3.jpg,Red_Plus_Stripes_4.jpg,Purple_Star_Grid_2.jpg,right,1786.9999999997672,false,high,NA,NA,NA,NA,NA,NA,NA,false
bPsPJkV6,3ki0jd2zv4v3t84iv1hywef3wi676h,34j10vatjjbvfu2sk34visivo5ciqk,bPsPJkV6,2020-0188,2020-11-23,22:00:00,22:28:47,NA,incomplete,223,filling,1,right,Blue_Circle_Stripes_2.jpg,Blue_Triangle_Dots_1.jpg,Green_Plus_Stripes_3.jpg,right,1483.9999999997672,true,high,NA,NA,NA,NA,NA,NA,NA,false
bPsPJkV6,3ki0jd2zv4v3t84iv1hywef3wi676h,34j10vatjjbvfu2sk34visivo5ciqk,bPsPJkV6,2020-0188,2020-11-23,22:00:00,22:28:47,NA,incomplete,224,filling,0,right,Blue_Triangle_Stripes_1.jpg,Blue_Circle_Chess_3.jpg,Red_Star_Stripes_2.jpg,right,1505.0000000002328,true,high,NA,NA,NA,NA,NA,NA,NA,false
bPsPJkV6,3ki0jd2zv4v3t84iv1hywef3wi676h,34j10vatjjbvfu2sk34visivo5ciqk,bPsPJkV6,2020-0188,2020-11-23,22:00:00,22:28:47,NA,incomplete,225,filling,1,left,Green_Star_Dots_3.jpg,Red_Triangle_Dots_4.jpg,Green_Circle_Grid_1.jpg,left,1509.9999999997672,true,high,NA,NA,NA,NA,NA,NA,NA,false
bPsPJkV6,3ki0jd2zv4v3t84iv1hywef3wi676h,34j10vatjjbvfu2sk34visivo5ciqk,bPsPJkV6,2020-0188,2020-11-23,22:00:00,22:28:47,NA,incomplete,226,filling,1,left,Green_Circle_Grid_3.jpg,Blue_Star_Grid_4.jpg,Green_Plus_Dots_2.jpg,left,1683.9999999997672,true,high,NA,NA,NA,NA,NA,NA,NA,false
bPsPJkV6,3ki0jd2zv4v3t84iv1hywef3wi676h,34j10vatjjbvfu2sk34visivo5ciqk,bPsPJkV6,2020-0188,2020-11-23,22:00:00,22:28:47,NA,incomplete,227,filling,1,left,Green_Circle_Dots_3.jpg,Purple_Star_Dots_2.jpg,Green_Triangle_Chess_1.jpg,left,1636,true,high,NA,NA,NA,NA,NA,NA,NA,false
bPsPJkV6,3ki0jd2zv4v3t84iv1hywef3wi676h,34j10vatjjbvfu2sk34visivo5ciqk,bPsPJkV6,2020-0188,2020-11-23,22:00:00,22:28:47,NA,incomplete,228,filling,1,right,Green_Star_Stripes_1.jpg,Green_Triangle_Dots_2.jpg,Red_Plus_Stripes_4.jpg,right,1538,true,high,NA,NA,NA,NA,NA,NA,NA,false
bPsPJkV6,3ki0jd2zv4v3t84iv1hywef3wi676h,34j10vatjjbvfu2sk34visivo5ciqk,bPsPJkV6,2020-0188,2020-11-23,22:00:00,22:28:47,NA,incomplete,229,filling,1,right,Blue_Circle_Chess_3.jpg,Blue_Triangle_Grid_4.jpg,Red_Plus_Chess_2.jpg,right,1564,true,high,NA,NA,NA,NA,NA,NA,NA,false
bPsPJkV6,3ki0jd2zv4v3t84iv1hywef3wi676h,34j10vatjjbvfu2sk34visivo5ciqk,bPsPJkV6,2020-0188,2020-11-23,22:00:00,22:28:47,NA,incomplete,230,filling,0,right,Green_Star_Dots_1.jpg,Green_Plus_Grid_2.jpg,Red_Circle_Dots_3.jpg,left,1678.0000000004657,false,high,NA,NA,NA,NA,NA,NA,NA,false
bPsPJkV6,3ki0jd2zv4v3t84iv1hywef3wi676h,34j10vatjjbvfu2sk34visivo5ciqk,bPsPJkV6,2020-0188,2020-11-23,22:00:00,22:28:47,NA,incomplete,231,filling,1,left,Purple_Plus_Chess_3.jpg,Blue_Star_Chess_2.jpg,Purple_Circle_Dots_4.jpg,right,1194,false,high,NA,NA,NA,NA,NA,NA,NA,false
bPsPJkV6,3ki0jd2zv4v3t84iv1hywef3wi676h,34j10vatjjbvfu2sk34visivo5ciqk,bPsPJkV6,2020-0188,2020-11-23,22:00:00,22:28:47,NA,incomplete,232,filling,1,right,Blue_Triangle_Stripes_3.jpg,Blue_Circle_Dots_4.jpg,Red_Plus_Stripes_1.jpg,right,1381,true,high,NA,NA,NA,NA,NA,NA,NA,false
bPsPJkV6,3ki0jd2zv4v3t84iv1hywef3wi676h,34j10vatjjbvfu2sk34visivo5ciqk,bPsPJkV6,2020-0188,2020-11-23,22:00:00,22:28:47,NA,incomplete,233,filling,0,right,Red_Triangle_Dots_3.jpg,Red_Circle_Stripes_4.jpg,Purple_Star_Dots_1.jpg,right,1778.0000000002328,true,high,NA,NA,NA,NA,NA,NA,NA,false
bPsPJkV6,3ki0jd2zv4v3t84iv1hywef3wi676h,34j10vatjjbvfu2sk34visivo5ciqk,bPsPJkV6,2020-0188,2020-11-23,22:00:00,22:28:47,NA,incomplete,234,filling,1,right,Red_Star_Grid_4.jpg,Red_Circle_Stripes_3.jpg,Purple_Triangle_Grid_1.jpg,left,1513.0000000002328,false,high,NA,NA,NA,NA,NA,NA,NA,false
bPsPJkV6,3ki0jd2zv4v3t84iv1hywef3wi676h,34j10vatjjbvfu2sk34visivo5ciqk,bPsPJkV6,2020-0188,2020-11-23,22:00:00,22:28:47,NA,incomplete,235,filling,1,right,Green_Plus_Dots_4.jpg,Green_Triangle_Grid_3.jpg,Purple_Circle_Dots_2.jpg,left,1533,false,high,NA,NA,NA,NA,NA,NA,NA,false
bPsPJkV6,3ki0jd2zv4v3t84iv1hywef3wi676h,34j10vatjjbvfu2sk34visivo5ciqk,bPsPJkV6,2020-0188,2020-11-23,22:00:00,22:28:47,NA,incomplete,236,filling,1,right,Red_Star_Grid_3.jpg,Red_Triangle_Stripes_1.jpg,Green_Plus_Grid_4.jpg,right,1884,true,high,NA,NA,NA,NA,NA,NA,NA,false
bPsPJkV6,3ki0jd2zv4v3t84iv1hywef3wi676h,34j10vatjjbvfu2sk34visivo5ciqk,bPsPJkV6,2020-0188,2020-11-23,22:00:00,22:28:47,NA,incomplete,237,filling,1,left,Red_Circle_Stripes_1.jpg,Blue_Triangle_Stripes_2.jpg,Red_Plus_Chess_4.jpg,left,1620,true,high,NA,NA,NA,NA,NA,NA,NA,false
bPsPJkV6,3ki0jd2zv4v3t84iv1hywef3wi676h,34j10vatjjbvfu2sk34visivo5ciqk,bPsPJkV6,2020-0188,2020-11-23,22:00:00,22:28:47,NA,incomplete,238,filling,1,right,Red_Star_Grid_3.jpg,Red_Plus_Stripes_1.jpg,Blue_Circle_Grid_4.jpg,left,1833,false,high,NA,NA,NA,NA,NA,NA,NA,false
bPsPJkV6,3ki0jd2zv4v3t84iv1hywef3wi676h,34j10vatjjbvfu2sk34visivo5ciqk,bPsPJkV6,2020-0188,2020-11-23,22:00:00,22:28:47,NA,incomplete,239,filling,1,left,Green_Plus_Stripes_1.jpg,Red_Circle_Stripes_4.jpg,Green_Triangle_Grid_3.jpg,left,1502,true,high,NA,NA,NA,NA,NA,NA,NA,false
bPsPJkV6,3ki0jd2zv4v3t84iv1hywef3wi676h,34j10vatjjbvfu2sk34visivo5ciqk,bPsPJkV6,2020-0188,2020-11-23,22:00:00,22:28:47,1681019.0000000002,1730342,NA,NA,NA,NA,NA,NA,NA,NA,NA,NA,NA,27,White/Caucasian,Male,British,no,yes,no,undefined
