workerId,hitId,assignmentId,subject,studyid,exp_date,exp_start,exp_end,time_start,time_end,trial,type,reward_validity,answer,image_top,image_left,image_right,response,response_time,response_acc,volatility,practice
sCmjgsBT,3fhtjgyt9qduw7xo30k18rjdqjggpm,34s6n1k2zzwks2bvmgee1uimcy8lhp,sCmjgsBT,2020-0188,2020-11-14,22:05:31,22:21:54,NA,incomplete,0,number,1,left,Green_Plus_Dots_1.jpg,Blue_Star_Grid_1.jpg,Purple_Plus_Chess_3.jpg,right,1783.1450000230689,false,NA,true
sCmjgsBT,3fhtjgyt9qduw7xo30k18rjdqjggpm,34s6n1k2zzwks2bvmgee1uimcy8lhp,sCmjgsBT,2020-0188,2020-11-14,22:05:31,22:21:54,NA,incomplete,1,number,1,right,Green_Triangle_Chess_2.jpg,Blue_Triangle_Grid_1.jpg,Red_Star_Dots_2.jpg,right,1336.8100000079721,true,NA,true
sCmjgsBT,3fhtjgyt9qduw7xo30k18rjdqjggpm,34s6n1k2zzwks2bvmgee1uimcy8lhp,sCmjgsBT,2020-0188,2020-11-14,22:05:31,22:21:54,NA,incomplete,2,number,0,right,Blue_Plus_Dots_3.jpg,Purple_Plus_Chess_2.jpg,Red_Triangle_Grid_3.jpg,right,1158.4299999813084,true,NA,true
sCmjgsBT,3fhtjgyt9qduw7xo30k18rjdqjggpm,34s6n1k2zzwks2bvmgee1uimcy8lhp,sCmjgsBT,2020-0188,2020-11-14,22:05:31,22:21:54,NA,incomplete,3,number,1,left,Green_Star_Stripes_1.jpg,Blue_Circle_Grid_1.jpg,Red_Star_Chess_4.jpg,left,1028.4150000079535,true,NA,true
sCmjgsBT,3fhtjgyt9qduw7xo30k18rjdqjggpm,34s6n1k2zzwks2bvmgee1uimcy8lhp,sCmjgsBT,2020-0188,2020-11-14,22:05:31,22:21:54,NA,incomplete,4,number,1,right,Green_Star_Dots_3.jpg,Purple_Star_Stripes_2.jpg,Red_Plus_Chess_3.jpg,right,1219.0149999805726,true,NA,true
sCmjgsBT,3fhtjgyt9qduw7xo30k18rjdqjggpm,34s6n1k2zzwks2bvmgee1uimcy8lhp,sCmjgsBT,2020-0188,2020-11-14,22:05:31,22:21:54,NA,incomplete,5,number,1,left,Blue_Plus_Chess_4.jpg,Green_Circle_Stripes_4.jpg,Purple_Plus_Grid_3.jpg,left,1051.2999999918975,true,NA,true
sCmjgsBT,3fhtjgyt9qduw7xo30k18rjdqjggpm,34s6n1k2zzwks2bvmgee1uimcy8lhp,sCmjgsBT,2020-0188,2020-11-14,22:05:31,22:21:54,NA,incomplete,6,number,1,right,Blue_Star_Stripes_3.jpg,Purple_Star_Chess_1.jpg,Green_Circle_Dots_3.jpg,right,1068.5649999941234,true,NA,true
sCmjgsBT,3fhtjgyt9qduw7xo30k18rjdqjggpm,34s6n1k2zzwks2bvmgee1uimcy8lhp,sCmjgsBT,2020-0188,2020-11-14,22:05:31,22:21:54,NA,incomplete,7,number,1,left,Red_Star_Stripes_2.jpg,Green_Plus_Chess_2.jpg,Blue_Star_Dots_1.jpg,left,1133.334999991348,true,NA,true
sCmjgsBT,3fhtjgyt9qduw7xo30k18rjdqjggpm,34s6n1k2zzwks2bvmgee1uimcy8lhp,sCmjgsBT,2020-0188,2020-11-14,22:05:31,22:21:54,NA,incomplete,8,number,1,right,Purple_Star_Dots_4.jpg,Blue_Star_Grid_1.jpg,Green_Triangle_Stripes_4.jpg,right,903.35999999661,true,NA,true
sCmjgsBT,3fhtjgyt9qduw7xo30k18rjdqjggpm,34s6n1k2zzwks2bvmgee1uimcy8lhp,sCmjgsBT,2020-0188,2020-11-14,22:05:31,22:21:54,NA,incomplete,9,number,1,right,Purple_Plus_Stripes_1.jpg,Red_Plus_Dots_3.jpg,Blue_Circle_Chess_1.jpg,right,765.1049999985844,true,NA,true
sCmjgsBT,3fhtjgyt9qduw7xo30k18rjdqjggpm,34s6n1k2zzwks2bvmgee1uimcy8lhp,sCmjgsBT,2020-0188,2020-11-14,22:05:31,22:21:54,NA,incomplete,10,number,1,right,Red_Triangle_Dots_1.jpg,Blue_Triangle_Stripes_4.jpg,Purple_Plus_Grid_1.jpg,right,1481.4100000075996,true,NA,true
sCmjgsBT,3fhtjgyt9qduw7xo30k18rjdqjggpm,34s6n1k2zzwks2bvmgee1uimcy8lhp,sCmjgsBT,2020-0188,2020-11-14,22:05:31,22:21:54,NA,incomplete,11,number,1,left,Red_Star_Grid_3.jpg,Green_Triangle_Stripes_3.jpg,Purple_Star_Dots_2.jpg,left,1016.6299999982584,true,NA,true
sCmjgsBT,3fhtjgyt9qduw7xo30k18rjdqjggpm,34s6n1k2zzwks2bvmgee1uimcy8lhp,sCmjgsBT,2020-0188,2020-11-14,22:05:31,22:21:54,NA,incomplete,12,number,1,right,Blue_Triangle_Chess_4.jpg,Purple_Triangle_Stripes_3.jpg,Red_Plus_Dots_4.jpg,right,841.420000011567,true,NA,true
sCmjgsBT,3fhtjgyt9qduw7xo30k18rjdqjggpm,34s6n1k2zzwks2bvmgee1uimcy8lhp,sCmjgsBT,2020-0188,2020-11-14,22:05:31,22:21:54,NA,incomplete,13,number,0,right,Red_Plus_Chess_1.jpg,Purple_Plus_Stripes_3.jpg,Green_Circle_Dots_1.jpg,right,776.5150000050198,true,NA,true
sCmjgsBT,3fhtjgyt9qduw7xo30k18rjdqjggpm,34s6n1k2zzwks2bvmgee1uimcy8lhp,sCmjgsBT,2020-0188,2020-11-14,22:05:31,22:21:54,NA,incomplete,14,number,1,left,Purple_Plus_Dots_4.jpg,Green_Star_Grid_4.jpg,Red_Plus_Stripes_1.jpg,left,1837.1299999998882,true,NA,true
sCmjgsBT,3fhtjgyt9qduw7xo30k18rjdqjggpm,34s6n1k2zzwks2bvmgee1uimcy8lhp,sCmjgsBT,2020-0188,2020-11-14,22:05:31,22:21:54,NA,incomplete,15,number,1,right,Purple_Star_Grid_2.jpg,Green_Star_Chess_4.jpg,Blue_Triangle_Dots_2.jpg,right,921.0850000090431,true,NA,true
sCmjgsBT,3fhtjgyt9qduw7xo30k18rjdqjggpm,34s6n1k2zzwks2bvmgee1uimcy8lhp,sCmjgsBT,2020-0188,2020-11-14,22:05:31,22:21:54,NA,incomplete,16,number,1,left,Blue_Plus_Chess_3.jpg,Purple_Circle_Grid_3.jpg,Green_Plus_Dots_1.jpg,left,953.7249999993946,true,NA,true
sCmjgsBT,3fhtjgyt9qduw7xo30k18rjdqjggpm,34s6n1k2zzwks2bvmgee1uimcy8lhp,sCmjgsBT,2020-0188,2020-11-14,22:05:31,22:21:54,NA,incomplete,17,number,0,left,Purple_Circle_Dots_4.jpg,Red_Star_Stripes_4.jpg,Blue_Circle_Grid_3.jpg,left,1045.3350000025239,true,NA,true
sCmjgsBT,3fhtjgyt9qduw7xo30k18rjdqjggpm,34s6n1k2zzwks2bvmgee1uimcy8lhp,sCmjgsBT,2020-0188,2020-11-14,22:05:31,22:21:54,NA,incomplete,18,number,1,right,Purple_Triangle_Grid_2.jpg,Blue_Triangle_Chess_1.jpg,Red_Star_Dots_2.jpg,right,1350.0099999946542,true,NA,true
sCmjgsBT,3fhtjgyt9qduw7xo30k18rjdqjggpm,34s6n1k2zzwks2bvmgee1uimcy8lhp,sCmjgsBT,2020-0188,2020-11-14,22:05:31,22:21:54,NA,incomplete,19,number,1,right,Green_Triangle_Chess_4.jpg,Purple_Triangle_Grid_1.jpg,Blue_Plus_Dots_4.jpg,right,924.1650000039954,true,NA,true
sCmjgsBT,3fhtjgyt9qduw7xo30k18rjdqjggpm,34s6n1k2zzwks2bvmgee1uimcy8lhp,sCmjgsBT,2020-0188,2020-11-14,22:05:31,22:21:54,NA,incomplete,20,shape,1,right,Blue_Circle_Grid_4.jpg,Green_Plus_Chess_4.jpg,Red_Circle_Dots_3.jpg,right,1174.6049999783281,true,NA,true
sCmjgsBT,3fhtjgyt9qduw7xo30k18rjdqjggpm,34s6n1k2zzwks2bvmgee1uimcy8lhp,sCmjgsBT,2020-0188,2020-11-14,22:05:31,22:21:54,NA,incomplete,21,shape,1,right,Blue_Plus_Dots_4.jpg,Purple_Circle_Grid_4.jpg,Red_Plus_Chess_1.jpg,right,1041.6850000037812,true,NA,true
sCmjgsBT,3fhtjgyt9qduw7xo30k18rjdqjggpm,34s6n1k2zzwks2bvmgee1uimcy8lhp,sCmjgsBT,2020-0188,2020-11-14,22:05:31,22:21:54,NA,incomplete,22,shape,0,right,Blue_Triangle_Grid_4.jpg,Green_Circle_Dots_4.jpg,Red_Triangle_Stripes_1.jpg,right,778.1200000026729,true,NA,true
sCmjgsBT,3fhtjgyt9qduw7xo30k18rjdqjggpm,34s6n1k2zzwks2bvmgee1uimcy8lhp,sCmjgsBT,2020-0188,2020-11-14,22:05:31,22:21:54,NA,incomplete,23,shape,1,right,Red_Triangle_Dots_3.jpg,Green_Plus_Grid_3.jpg,Blue_Triangle_Chess_4.jpg,right,845.0299999967683,true,NA,true
sCmjgsBT,3fhtjgyt9qduw7xo30k18rjdqjggpm,34s6n1k2zzwks2bvmgee1uimcy8lhp,sCmjgsBT,2020-0188,2020-11-14,22:05:31,22:21:54,NA,incomplete,24,shape,1,right,Green_Plus_Chess_1.jpg,Red_Triangle_Grid_1.jpg,Blue_Plus_Stripes_2.jpg,right,942.1850000217091,true,NA,true
sCmjgsBT,3fhtjgyt9qduw7xo30k18rjdqjggpm,34s6n1k2zzwks2bvmgee1uimcy8lhp,sCmjgsBT,2020-0188,2020-11-14,22:05:31,22:21:54,NA,incomplete,25,shape,1,left,Blue_Circle_Chess_1.jpg,Purple_Circle_Dots_2.jpg,Green_Triangle_Grid_1.jpg,left,1330.404999986058,true,NA,true
sCmjgsBT,3fhtjgyt9qduw7xo30k18rjdqjggpm,34s6n1k2zzwks2bvmgee1uimcy8lhp,sCmjgsBT,2020-0188,2020-11-14,22:05:31,22:21:54,NA,incomplete,26,shape,1,left,Green_Circle_Stripes_4.jpg,Purple_Circle_Chess_2.jpg,Red_Triangle_Grid_4.jpg,right,774.1000000096392,false,NA,true
sCmjgsBT,3fhtjgyt9qduw7xo30k18rjdqjggpm,34s6n1k2zzwks2bvmgee1uimcy8lhp,sCmjgsBT,2020-0188,2020-11-14,22:05:31,22:21:54,NA,incomplete,27,shape,1,left,Blue_Plus_Chess_1.jpg,Purple_Plus_Grid_4.jpg,Green_Star_Dots_1.jpg,left,1393.9100000134204,true,NA,true
sCmjgsBT,3fhtjgyt9qduw7xo30k18rjdqjggpm,34s6n1k2zzwks2bvmgee1uimcy8lhp,sCmjgsBT,2020-0188,2020-11-14,22:05:31,22:21:54,NA,incomplete,28,shape,1,right,Green_Star_Grid_4.jpg,Purple_Triangle_Stripes_4.jpg,Blue_Star_Chess_1.jpg,right,1038.010000018403,true,NA,true
sCmjgsBT,3fhtjgyt9qduw7xo30k18rjdqjggpm,34s6n1k2zzwks2bvmgee1uimcy8lhp,sCmjgsBT,2020-0188,2020-11-14,22:05:31,22:21:54,NA,incomplete,29,shape,1,left,Purple_Star_Stripes_4.jpg,Blue_Star_Chess_3.jpg,Green_Circle_Grid_4.jpg,left,1131.904999987455,true,NA,true
sCmjgsBT,3fhtjgyt9qduw7xo30k18rjdqjggpm,34s6n1k2zzwks2bvmgee1uimcy8lhp,sCmjgsBT,2020-0188,2020-11-14,22:05:31,22:21:54,NA,incomplete,30,shape,1,left,Blue_Star_Chess_2.jpg,Green_Star_Grid_4.jpg,Red_Plus_Dots_2.jpg,left,960.3449999995064,true,NA,true
sCmjgsBT,3fhtjgyt9qduw7xo30k18rjdqjggpm,34s6n1k2zzwks2bvmgee1uimcy8lhp,sCmjgsBT,2020-0188,2020-11-14,22:05:31,22:21:54,NA,incomplete,31,shape,0,left,Red_Plus_Stripes_3.jpg,Blue_Plus_Dots_2.jpg,Purple_Triangle_Chess_3.jpg,left,1052.20500001451,true,NA,true
sCmjgsBT,3fhtjgyt9qduw7xo30k18rjdqjggpm,34s6n1k2zzwks2bvmgee1uimcy8lhp,sCmjgsBT,2020-0188,2020-11-14,22:05:31,22:21:54,NA,incomplete,32,shape,0,left,Purple_Star_Chess_2.jpg,Blue_Star_Dots_4.jpg,Red_Plus_Grid_2.jpg,left,1173.030000005383,true,NA,true
sCmjgsBT,3fhtjgyt9qduw7xo30k18rjdqjggpm,34s6n1k2zzwks2bvmgee1uimcy8lhp,sCmjgsBT,2020-0188,2020-11-14,22:05:31,22:21:54,NA,incomplete,33,shape,1,left,Green_Plus_Grid_2.jpg,Blue_Plus_Dots_1.jpg,Purple_Circle_Stripes_2.jpg,left,814.3649999983609,true,NA,true
sCmjgsBT,3fhtjgyt9qduw7xo30k18rjdqjggpm,34s6n1k2zzwks2bvmgee1uimcy8lhp,sCmjgsBT,2020-0188,2020-11-14,22:05:31,22:21:54,NA,incomplete,34,shape,1,right,Purple_Plus_Dots_1.jpg,Red_Star_Grid_1.jpg,Blue_Plus_Chess_2.jpg,right,848.165000003064,true,NA,true
sCmjgsBT,3fhtjgyt9qduw7xo30k18rjdqjggpm,34s6n1k2zzwks2bvmgee1uimcy8lhp,sCmjgsBT,2020-0188,2020-11-14,22:05:31,22:21:54,NA,incomplete,35,shape,0,left,Red_Plus_Grid_4.jpg,Purple_Plus_Chess_1.jpg,Blue_Triangle_Stripes_4.jpg,left,729.3150000041351,true,NA,true
sCmjgsBT,3fhtjgyt9qduw7xo30k18rjdqjggpm,34s6n1k2zzwks2bvmgee1uimcy8lhp,sCmjgsBT,2020-0188,2020-11-14,22:05:31,22:21:54,NA,incomplete,36,shape,1,left,Purple_Triangle_Stripes_2.jpg,Blue_Triangle_Grid_4.jpg,Red_Plus_Dots_2.jpg,left,750.6649999995716,true,NA,true
sCmjgsBT,3fhtjgyt9qduw7xo30k18rjdqjggpm,34s6n1k2zzwks2bvmgee1uimcy8lhp,sCmjgsBT,2020-0188,2020-11-14,22:05:31,22:21:54,NA,incomplete,37,shape,1,left,Green_Triangle_Dots_4.jpg,Purple_Triangle_Stripes_2.jpg,Red_Plus_Grid_4.jpg,left,644.2650000099093,true,NA,true
sCmjgsBT,3fhtjgyt9qduw7xo30k18rjdqjggpm,34s6n1k2zzwks2bvmgee1uimcy8lhp,sCmjgsBT,2020-0188,2020-11-14,22:05:31,22:21:54,NA,incomplete,38,shape,0,right,Blue_Star_Chess_1.jpg,Red_Circle_Grid_1.jpg,Purple_Star_Dots_2.jpg,right,1004.2699999758042,true,NA,true
sCmjgsBT,3fhtjgyt9qduw7xo30k18rjdqjggpm,34s6n1k2zzwks2bvmgee1uimcy8lhp,sCmjgsBT,2020-0188,2020-11-14,22:05:31,22:21:54,NA,incomplete,39,shape,1,right,Purple_Triangle_Chess_2.jpg,Red_Plus_Stripes_2.jpg,Blue_Triangle_Dots_4.jpg,right,756.9599999987986,true,NA,true
sCmjgsBT,3fhtjgyt9qduw7xo30k18rjdqjggpm,34s6n1k2zzwks2bvmgee1uimcy8lhp,sCmjgsBT,2020-0188,2020-11-14,22:05:31,22:21:54,NA,incomplete,0,number,0,right,Blue_Triangle_Grid_4.jpg,Green_Triangle_Dots_2.jpg,Purple_Circle_Stripes_4.jpg,left,1069.3450000253506,false,high,false
sCmjgsBT,3fhtjgyt9qduw7xo30k18rjdqjggpm,34s6n1k2zzwks2bvmgee1uimcy8lhp,sCmjgsBT,2020-0188,2020-11-14,22:05:31,22:21:54,NA,incomplete,1,number,1,left,Purple_Circle_Grid_4.jpg,Red_Star_Chess_4.jpg,Green_Circle_Stripes_1.jpg,right,765.914999996312,false,high,false
sCmjgsBT,3fhtjgyt9qduw7xo30k18rjdqjggpm,34s6n1k2zzwks2bvmgee1uimcy8lhp,sCmjgsBT,2020-0188,2020-11-14,22:05:31,22:21:54,NA,incomplete,2,number,0,right,Red_Circle_Chess_2.jpg,Purple_Circle_Dots_4.jpg,Blue_Triangle_Grid_2.jpg,left,687.8100000030827,false,high,false
sCmjgsBT,3fhtjgyt9qduw7xo30k18rjdqjggpm,34s6n1k2zzwks2bvmgee1uimcy8lhp,sCmjgsBT,2020-0188,2020-11-14,22:05:31,22:21:54,NA,incomplete,3,number,1,right,Red_Triangle_Dots_2.jpg,Blue_Triangle_Grid_3.jpg,Purple_Star_Chess_2.jpg,left,742.0299999939743,false,high,false
sCmjgsBT,3fhtjgyt9qduw7xo30k18rjdqjggpm,34s6n1k2zzwks2bvmgee1uimcy8lhp,sCmjgsBT,2020-0188,2020-11-14,22:05:31,22:21:54,NA,incomplete,4,number,0,left,Red_Star_Stripes_2.jpg,Purple_Plus_Chess_2.jpg,Blue_Star_Grid_3.jpg,right,940.4900000081398,false,high,false
sCmjgsBT,3fhtjgyt9qduw7xo30k18rjdqjggpm,34s6n1k2zzwks2bvmgee1uimcy8lhp,sCmjgsBT,2020-0188,2020-11-14,22:05:31,22:21:54,NA,incomplete,5,number,1,right,Red_Circle_Stripes_4.jpg,Green_Circle_Grid_3.jpg,Blue_Star_Chess_4.jpg,left,695.8149999845773,false,high,false
sCmjgsBT,3fhtjgyt9qduw7xo30k18rjdqjggpm,34s6n1k2zzwks2bvmgee1uimcy8lhp,sCmjgsBT,2020-0188,2020-11-14,22:05:31,22:21:54,NA,incomplete,6,number,1,left,Blue_Plus_Dots_3.jpg,Red_Triangle_Stripes_3.jpg,Purple_Plus_Chess_1.jpg,right,1447.2899999818765,false,high,false
sCmjgsBT,3fhtjgyt9qduw7xo30k18rjdqjggpm,34s6n1k2zzwks2bvmgee1uimcy8lhp,sCmjgsBT,2020-0188,2020-11-14,22:05:31,22:21:54,NA,incomplete,7,number,1,right,Purple_Plus_Grid_3.jpg,Red_Plus_Stripes_2.jpg,Green_Circle_Chess_3.jpg,right,630.2100000029895,true,high,false
sCmjgsBT,3fhtjgyt9qduw7xo30k18rjdqjggpm,34s6n1k2zzwks2bvmgee1uimcy8lhp,sCmjgsBT,2020-0188,2020-11-14,22:05:31,22:21:54,NA,incomplete,8,number,1,right,Purple_Plus_Grid_2.jpg,Red_Plus_Stripes_1.jpg,Green_Star_Dots_2.jpg,right,863.3550000085961,true,high,false
sCmjgsBT,3fhtjgyt9qduw7xo30k18rjdqjggpm,34s6n1k2zzwks2bvmgee1uimcy8lhp,sCmjgsBT,2020-0188,2020-11-14,22:05:31,22:21:54,NA,incomplete,9,number,1,left,Blue_Star_Stripes_2.jpg,Red_Plus_Dots_2.jpg,Green_Star_Grid_1.jpg,left,922.3350000102073,true,high,false
sCmjgsBT,3fhtjgyt9qduw7xo30k18rjdqjggpm,34s6n1k2zzwks2bvmgee1uimcy8lhp,sCmjgsBT,2020-0188,2020-11-14,22:05:31,22:21:54,NA,incomplete,10,shape,1,right,Blue_Star_Stripes_1.jpg,Purple_Circle_Chess_1.jpg,Red_Star_Dots_4.jpg,left,899.8150000115857,false,high,false
sCmjgsBT,3fhtjgyt9qduw7xo30k18rjdqjggpm,34s6n1k2zzwks2bvmgee1uimcy8lhp,sCmjgsBT,2020-0188,2020-11-14,22:05:31,22:21:54,NA,incomplete,11,shape,1,left,Blue_Triangle_Dots_3.jpg,Green_Triangle_Chess_1.jpg,Purple_Plus_Grid_3.jpg,right,1186.489999992773,false,high,false
sCmjgsBT,3fhtjgyt9qduw7xo30k18rjdqjggpm,34s6n1k2zzwks2bvmgee1uimcy8lhp,sCmjgsBT,2020-0188,2020-11-14,22:05:31,22:21:54,NA,incomplete,12,shape,0,right,Red_Plus_Dots_3.jpg,Blue_Star_Grid_3.jpg,Green_Plus_Chess_1.jpg,right,1412.834999995539,true,high,false
sCmjgsBT,3fhtjgyt9qduw7xo30k18rjdqjggpm,34s6n1k2zzwks2bvmgee1uimcy8lhp,sCmjgsBT,2020-0188,2020-11-14,22:05:31,22:21:54,NA,incomplete,13,shape,1,right,Green_Triangle_Stripes_3.jpg,Red_Circle_Chess_3.jpg,Blue_Triangle_Grid_4.jpg,right,1302.4999999906868,true,high,false
sCmjgsBT,3fhtjgyt9qduw7xo30k18rjdqjggpm,34s6n1k2zzwks2bvmgee1uimcy8lhp,sCmjgsBT,2020-0188,2020-11-14,22:05:31,22:21:54,NA,incomplete,14,shape,1,left,Red_Star_Dots_3.jpg,Green_Star_Grid_4.jpg,Blue_Circle_Chess_3.jpg,left,787.7950000111014,true,high,false
sCmjgsBT,3fhtjgyt9qduw7xo30k18rjdqjggpm,34s6n1k2zzwks2bvmgee1uimcy8lhp,sCmjgsBT,2020-0188,2020-11-14,22:05:31,22:21:54,NA,incomplete,15,shape,0,right,Blue_Star_Stripes_3.jpg,Red_Circle_Dots_3.jpg,Green_Star_Grid_1.jpg,right,1205.6749999755993,true,high,false
sCmjgsBT,3fhtjgyt9qduw7xo30k18rjdqjggpm,34s6n1k2zzwks2bvmgee1uimcy8lhp,sCmjgsBT,2020-0188,2020-11-14,22:05:31,22:21:54,NA,incomplete,16,shape,1,left,Blue_Circle_Grid_3.jpg,Red_Circle_Chess_1.jpg,Purple_Plus_Stripes_3.jpg,left,1103.015000000596,true,high,false
sCmjgsBT,3fhtjgyt9qduw7xo30k18rjdqjggpm,34s6n1k2zzwks2bvmgee1uimcy8lhp,sCmjgsBT,2020-0188,2020-11-14,22:05:31,22:21:54,NA,incomplete,17,shape,1,right,Green_Star_Dots_1.jpg,Purple_Circle_Chess_1.jpg,Red_Star_Stripes_3.jpg,right,708.7299999839161,true,high,false
sCmjgsBT,3fhtjgyt9qduw7xo30k18rjdqjggpm,34s6n1k2zzwks2bvmgee1uimcy8lhp,sCmjgsBT,2020-0188,2020-11-14,22:05:31,22:21:54,NA,incomplete,18,shape,1,right,Purple_Triangle_Stripes_1.jpg,Blue_Circle_Grid_1.jpg,Red_Triangle_Chess_2.jpg,right,739.5250000117812,true,high,false
sCmjgsBT,3fhtjgyt9qduw7xo30k18rjdqjggpm,34s6n1k2zzwks2bvmgee1uimcy8lhp,sCmjgsBT,2020-0188,2020-11-14,22:05:31,22:21:54,NA,incomplete,19,shape,1,right,Red_Plus_Dots_3.jpg,Purple_Star_Grid_3.jpg,Green_Plus_Stripes_1.jpg,right,1055.3300000028685,true,high,false
sCmjgsBT,3fhtjgyt9qduw7xo30k18rjdqjggpm,34s6n1k2zzwks2bvmgee1uimcy8lhp,sCmjgsBT,2020-0188,2020-11-14,22:05:31,22:21:54,NA,incomplete,20,number,1,right,Red_Plus_Dots_2.jpg,Green_Plus_Chess_4.jpg,Blue_Triangle_Stripes_2.jpg,left,886.8700000166427,false,high,false
sCmjgsBT,3fhtjgyt9qduw7xo30k18rjdqjggpm,34s6n1k2zzwks2bvmgee1uimcy8lhp,sCmjgsBT,2020-0188,2020-11-14,22:05:31,22:21:54,NA,incomplete,21,number,1,left,Blue_Plus_Grid_2.jpg,Red_Star_Dots_2.jpg,Purple_Plus_Chess_3.jpg,right,717.270000022836,false,high,false
sCmjgsBT,3fhtjgyt9qduw7xo30k18rjdqjggpm,34s6n1k2zzwks2bvmgee1uimcy8lhp,sCmjgsBT,2020-0188,2020-11-14,22:05:31,22:21:54,NA,incomplete,22,number,1,right,Purple_Star_Stripes_2.jpg,Blue_Star_Chess_4.jpg,Green_Triangle_Grid_2.jpg,right,779.7900000005029,true,high,false
sCmjgsBT,3fhtjgyt9qduw7xo30k18rjdqjggpm,34s6n1k2zzwks2bvmgee1uimcy8lhp,sCmjgsBT,2020-0188,2020-11-14,22:05:31,22:21:54,NA,incomplete,23,number,1,right,Blue_Circle_Stripes_1.jpg,Purple_Circle_Dots_3.jpg,Red_Triangle_Chess_1.jpg,right,719.7999999916647,true,high,false
sCmjgsBT,3fhtjgyt9qduw7xo30k18rjdqjggpm,34s6n1k2zzwks2bvmgee1uimcy8lhp,sCmjgsBT,2020-0188,2020-11-14,22:05:31,22:21:54,NA,incomplete,24,number,1,right,Blue_Plus_Chess_4.jpg,Red_Plus_Dots_3.jpg,Purple_Star_Stripes_4.jpg,right,1211.764999985462,true,high,false
sCmjgsBT,3fhtjgyt9qduw7xo30k18rjdqjggpm,34s6n1k2zzwks2bvmgee1uimcy8lhp,sCmjgsBT,2020-0188,2020-11-14,22:05:31,22:21:54,NA,incomplete,25,number,1,left,Blue_Plus_Dots_4.jpg,Purple_Triangle_Stripes_4.jpg,Green_Plus_Chess_2.jpg,left,772.7699999813922,true,high,false
sCmjgsBT,3fhtjgyt9qduw7xo30k18rjdqjggpm,34s6n1k2zzwks2bvmgee1uimcy8lhp,sCmjgsBT,2020-0188,2020-11-14,22:05:31,22:21:54,NA,incomplete,26,number,1,right,Purple_Star_Dots_3.jpg,Green_Star_Chess_4.jpg,Red_Circle_Grid_3.jpg,right,752.489999984391,true,high,false
sCmjgsBT,3fhtjgyt9qduw7xo30k18rjdqjggpm,34s6n1k2zzwks2bvmgee1uimcy8lhp,sCmjgsBT,2020-0188,2020-11-14,22:05:31,22:21:54,NA,incomplete,27,number,0,left,Blue_Plus_Dots_1.jpg,Red_Star_Chess_1.jpg,Green_Plus_Grid_3.jpg,left,828.3600000140723,true,high,false
sCmjgsBT,3fhtjgyt9qduw7xo30k18rjdqjggpm,34s6n1k2zzwks2bvmgee1uimcy8lhp,sCmjgsBT,2020-0188,2020-11-14,22:05:31,22:21:54,NA,incomplete,28,number,0,left,Red_Circle_Grid_4.jpg,Purple_Star_Dots_4.jpg,Blue_Circle_Chess_3.jpg,left,1078.2949999847915,true,high,false
sCmjgsBT,3fhtjgyt9qduw7xo30k18rjdqjggpm,34s6n1k2zzwks2bvmgee1uimcy8lhp,sCmjgsBT,2020-0188,2020-11-14,22:05:31,22:21:54,NA,incomplete,29,number,1,right,Green_Triangle_Grid_1.jpg,Purple_Triangle_Dots_3.jpg,Blue_Plus_Chess_1.jpg,left,813.384999986738,false,high,false
sCmjgsBT,3fhtjgyt9qduw7xo30k18rjdqjggpm,34s6n1k2zzwks2bvmgee1uimcy8lhp,sCmjgsBT,2020-0188,2020-11-14,22:05:31,22:21:54,NA,incomplete,30,shape,1,left,Purple_Circle_Chess_2.jpg,Blue_Circle_Grid_3.jpg,Red_Plus_Stripes_2.jpg,left,886.0899999854155,true,high,false
sCmjgsBT,3fhtjgyt9qduw7xo30k18rjdqjggpm,34s6n1k2zzwks2bvmgee1uimcy8lhp,sCmjgsBT,2020-0188,2020-11-14,22:05:31,22:21:54,NA,incomplete,31,shape,0,left,Red_Star_Chess_1.jpg,Blue_Star_Grid_4.jpg,Green_Plus_Dots_1.jpg,left,869.1249999974389,true,high,false
sCmjgsBT,3fhtjgyt9qduw7xo30k18rjdqjggpm,34s6n1k2zzwks2bvmgee1uimcy8lhp,sCmjgsBT,2020-0188,2020-11-14,22:05:31,22:21:54,NA,incomplete,32,shape,1,right,Red_Plus_Grid_1.jpg,Blue_Star_Chess_1.jpg,Green_Plus_Stripes_2.jpg,right,843.5849999950733,true,high,false
sCmjgsBT,3fhtjgyt9qduw7xo30k18rjdqjggpm,34s6n1k2zzwks2bvmgee1uimcy8lhp,sCmjgsBT,2020-0188,2020-11-14,22:05:31,22:21:54,NA,incomplete,33,shape,1,right,Red_Circle_Chess_1.jpg,Green_Triangle_Stripes_1.jpg,Purple_Circle_Dots_3.jpg,right,692.3550000065006,true,high,false
sCmjgsBT,3fhtjgyt9qduw7xo30k18rjdqjggpm,34s6n1k2zzwks2bvmgee1uimcy8lhp,sCmjgsBT,2020-0188,2020-11-14,22:05:31,22:21:54,NA,incomplete,34,shape,1,left,Green_Plus_Chess_2.jpg,Purple_Plus_Grid_1.jpg,Red_Triangle_Stripes_2.jpg,left,819.3299999984447,true,high,false
sCmjgsBT,3fhtjgyt9qduw7xo30k18rjdqjggpm,34s6n1k2zzwks2bvmgee1uimcy8lhp,sCmjgsBT,2020-0188,2020-11-14,22:05:31,22:21:54,NA,incomplete,35,shape,1,left,Green_Circle_Dots_1.jpg,Blue_Circle_Chess_3.jpg,Red_Triangle_Grid_1.jpg,left,659.5500000112224,true,high,false
sCmjgsBT,3fhtjgyt9qduw7xo30k18rjdqjggpm,34s6n1k2zzwks2bvmgee1uimcy8lhp,sCmjgsBT,2020-0188,2020-11-14,22:05:31,22:21:54,NA,incomplete,36,shape,1,left,Purple_Star_Dots_2.jpg,Red_Star_Grid_1.jpg,Blue_Triangle_Chess_2.jpg,left,667.9200000071432,true,high,false
sCmjgsBT,3fhtjgyt9qduw7xo30k18rjdqjggpm,34s6n1k2zzwks2bvmgee1uimcy8lhp,sCmjgsBT,2020-0188,2020-11-14,22:05:31,22:21:54,NA,incomplete,37,shape,0,left,Blue_Circle_Dots_3.jpg,Green_Circle_Grid_1.jpg,Red_Plus_Stripes_3.jpg,left,778.615000017453,true,high,false
sCmjgsBT,3fhtjgyt9qduw7xo30k18rjdqjggpm,34s6n1k2zzwks2bvmgee1uimcy8lhp,sCmjgsBT,2020-0188,2020-11-14,22:05:31,22:21:54,NA,incomplete,38,shape,0,right,Red_Triangle_Grid_1.jpg,Blue_Plus_Chess_1.jpg,Green_Triangle_Stripes_3.jpg,right,722.7999999886379,true,high,false
sCmjgsBT,3fhtjgyt9qduw7xo30k18rjdqjggpm,34s6n1k2zzwks2bvmgee1uimcy8lhp,sCmjgsBT,2020-0188,2020-11-14,22:05:31,22:21:54,NA,incomplete,39,shape,1,left,Blue_Triangle_Chess_4.jpg,Purple_Triangle_Grid_1.jpg,Green_Star_Dots_4.jpg,left,715.3650000109337,true,high,false
sCmjgsBT,3fhtjgyt9qduw7xo30k18rjdqjggpm,34s6n1k2zzwks2bvmgee1uimcy8lhp,sCmjgsBT,2020-0188,2020-11-14,22:05:31,22:21:54,NA,incomplete,40,number,1,left,Blue_Circle_Stripes_1.jpg,Purple_Triangle_Dots_1.jpg,Green_Circle_Chess_4.jpg,right,753.2300000020768,false,high,false
sCmjgsBT,3fhtjgyt9qduw7xo30k18rjdqjggpm,34s6n1k2zzwks2bvmgee1uimcy8lhp,sCmjgsBT,2020-0188,2020-11-14,22:05:31,22:21:54,NA,incomplete,41,number,1,right,Blue_Star_Chess_3.jpg,Red_Star_Grid_2.jpg,Purple_Plus_Stripes_3.jpg,right,1710.1149999944028,true,high,false
sCmjgsBT,3fhtjgyt9qduw7xo30k18rjdqjggpm,34s6n1k2zzwks2bvmgee1uimcy8lhp,sCmjgsBT,2020-0188,2020-11-14,22:05:31,22:21:54,NA,incomplete,42,number,0,right,Purple_Circle_Grid_3.jpg,Green_Circle_Chess_2.jpg,Red_Triangle_Dots_3.jpg,right,769.7850000113249,true,high,false
sCmjgsBT,3fhtjgyt9qduw7xo30k18rjdqjggpm,34s6n1k2zzwks2bvmgee1uimcy8lhp,sCmjgsBT,2020-0188,2020-11-14,22:05:31,22:21:54,NA,incomplete,43,number,1,right,Red_Star_Grid_1.jpg,Blue_Star_Dots_2.jpg,Green_Plus_Chess_1.jpg,left,1662.2599999827798,false,high,false
sCmjgsBT,3fhtjgyt9qduw7xo30k18rjdqjggpm,34s6n1k2zzwks2bvmgee1uimcy8lhp,sCmjgsBT,2020-0188,2020-11-14,22:05:31,22:21:54,NA,incomplete,44,number,1,left,Red_Circle_Chess_4.jpg,Purple_Plus_Dots_4.jpg,Green_Circle_Stripes_3.jpg,right,997.7200000139419,false,high,false
sCmjgsBT,3fhtjgyt9qduw7xo30k18rjdqjggpm,34s6n1k2zzwks2bvmgee1uimcy8lhp,sCmjgsBT,2020-0188,2020-11-14,22:05:31,22:21:54,NA,incomplete,45,number,0,left,Blue_Plus_Stripes_2.jpg,Red_Star_Grid_2.jpg,Green_Plus_Chess_3.jpg,left,966.0900000017136,true,high,false
sCmjgsBT,3fhtjgyt9qduw7xo30k18rjdqjggpm,34s6n1k2zzwks2bvmgee1uimcy8lhp,sCmjgsBT,2020-0188,2020-11-14,22:05:31,22:21:54,NA,incomplete,46,number,0,left,Purple_Circle_Grid_2.jpg,Red_Star_Dots_2.jpg,Green_Circle_Stripes_3.jpg,left,747.0599999942351,true,high,false
sCmjgsBT,3fhtjgyt9qduw7xo30k18rjdqjggpm,34s6n1k2zzwks2bvmgee1uimcy8lhp,sCmjgsBT,2020-0188,2020-11-14,22:05:31,22:21:54,NA,incomplete,47,number,1,left,Green_Star_Stripes_3.jpg,Red_Circle_Grid_3.jpg,Blue_Star_Dots_4.jpg,left,838.6500000196975,true,high,false
sCmjgsBT,3fhtjgyt9qduw7xo30k18rjdqjggpm,34s6n1k2zzwks2bvmgee1uimcy8lhp,sCmjgsBT,2020-0188,2020-11-14,22:05:31,22:21:54,NA,incomplete,48,number,1,right,Green_Circle_Dots_1.jpg,Blue_Circle_Grid_2.jpg,Red_Star_Stripes_1.jpg,right,1051.7300000065006,true,high,false
sCmjgsBT,3fhtjgyt9qduw7xo30k18rjdqjggpm,34s6n1k2zzwks2bvmgee1uimcy8lhp,sCmjgsBT,2020-0188,2020-11-14,22:05:31,22:21:54,NA,incomplete,49,number,1,right,Blue_Triangle_Grid_1.jpg,Green_Triangle_Dots_2.jpg,Purple_Plus_Chess_1.jpg,right,688.0850000015926,true,high,false
sCmjgsBT,3fhtjgyt9qduw7xo30k18rjdqjggpm,34s6n1k2zzwks2bvmgee1uimcy8lhp,sCmjgsBT,2020-0188,2020-11-14,22:05:31,22:21:54,NA,incomplete,50,shape,1,left,Blue_Triangle_Stripes_2.jpg,Purple_Triangle_Chess_1.jpg,Red_Plus_Dots_2.jpg,right,686.9449999940116,false,high,false
sCmjgsBT,3fhtjgyt9qduw7xo30k18rjdqjggpm,34s6n1k2zzwks2bvmgee1uimcy8lhp,sCmjgsBT,2020-0188,2020-11-14,22:05:31,22:21:54,NA,incomplete,51,shape,1,right,Red_Circle_Dots_1.jpg,Purple_Triangle_Stripes_1.jpg,Green_Circle_Chess_4.jpg,left,852.9649999982212,false,high,false
sCmjgsBT,3fhtjgyt9qduw7xo30k18rjdqjggpm,34s6n1k2zzwks2bvmgee1uimcy8lhp,sCmjgsBT,2020-0188,2020-11-14,22:05:31,22:21:54,NA,incomplete,52,shape,1,left,Blue_Plus_Chess_1.jpg,Green_Plus_Stripes_4.jpg,Purple_Star_Grid_1.jpg,left,844.4149999995716,true,high,false
sCmjgsBT,3fhtjgyt9qduw7xo30k18rjdqjggpm,34s6n1k2zzwks2bvmgee1uimcy8lhp,sCmjgsBT,2020-0188,2020-11-14,22:05:31,22:21:54,NA,incomplete,53,shape,1,left,Green_Circle_Stripes_1.jpg,Blue_Circle_Chess_2.jpg,Red_Star_Dots_1.jpg,left,783.6850000021514,true,high,false
sCmjgsBT,3fhtjgyt9qduw7xo30k18rjdqjggpm,34s6n1k2zzwks2bvmgee1uimcy8lhp,sCmjgsBT,2020-0188,2020-11-14,22:05:31,22:21:54,NA,incomplete,54,shape,0,right,Purple_Circle_Chess_1.jpg,Blue_Star_Stripes_1.jpg,Green_Circle_Grid_2.jpg,right,602.3299999942537,true,high,false
sCmjgsBT,3fhtjgyt9qduw7xo30k18rjdqjggpm,34s6n1k2zzwks2bvmgee1uimcy8lhp,sCmjgsBT,2020-0188,2020-11-14,22:05:31,22:21:54,NA,incomplete,55,shape,0,right,Purple_Plus_Grid_2.jpg,Green_Circle_Chess_2.jpg,Red_Plus_Dots_3.jpg,right,699.2099999915808,true,high,false
sCmjgsBT,3fhtjgyt9qduw7xo30k18rjdqjggpm,34s6n1k2zzwks2bvmgee1uimcy8lhp,sCmjgsBT,2020-0188,2020-11-14,22:05:31,22:21:54,NA,incomplete,56,shape,1,right,Blue_Plus_Grid_2.jpg,Purple_Circle_Chess_2.jpg,Green_Plus_Stripes_3.jpg,left,969.4399999862071,false,high,false
sCmjgsBT,3fhtjgyt9qduw7xo30k18rjdqjggpm,34s6n1k2zzwks2bvmgee1uimcy8lhp,sCmjgsBT,2020-0188,2020-11-14,22:05:31,22:21:54,NA,incomplete,57,shape,1,right,Red_Circle_Dots_2.jpg,Purple_Triangle_Grid_2.jpg,Blue_Circle_Chess_4.jpg,left,924.6899999852758,false,high,false
sCmjgsBT,3fhtjgyt9qduw7xo30k18rjdqjggpm,34s6n1k2zzwks2bvmgee1uimcy8lhp,sCmjgsBT,2020-0188,2020-11-14,22:05:31,22:21:54,NA,incomplete,58,shape,1,right,Green_Star_Stripes_2.jpg,Red_Circle_Grid_2.jpg,Purple_Star_Chess_1.jpg,right,753.7899999879301,true,high,false
sCmjgsBT,3fhtjgyt9qduw7xo30k18rjdqjggpm,34s6n1k2zzwks2bvmgee1uimcy8lhp,sCmjgsBT,2020-0188,2020-11-14,22:05:31,22:21:54,NA,incomplete,59,shape,1,left,Red_Plus_Chess_4.jpg,Purple_Plus_Dots_3.jpg,Blue_Triangle_Grid_4.jpg,left,1132.3149999952875,true,high,false
sCmjgsBT,3fhtjgyt9qduw7xo30k18rjdqjggpm,34s6n1k2zzwks2bvmgee1uimcy8lhp,sCmjgsBT,2020-0188,2020-11-14,22:05:31,22:21:54,NA,incomplete,60,number,1,right,Red_Plus_Chess_2.jpg,Green_Plus_Grid_4.jpg,Blue_Circle_Dots_2.jpg,left,625.3299999807496,false,high,false
sCmjgsBT,3fhtjgyt9qduw7xo30k18rjdqjggpm,34s6n1k2zzwks2bvmgee1uimcy8lhp,sCmjgsBT,2020-0188,2020-11-14,22:05:31,22:21:54,NA,incomplete,61,number,0,right,Blue_Circle_Dots_4.jpg,Red_Circle_Chess_2.jpg,Green_Plus_Stripes_4.jpg,left,899.3400000035763,false,high,false
sCmjgsBT,3fhtjgyt9qduw7xo30k18rjdqjggpm,34s6n1k2zzwks2bvmgee1uimcy8lhp,sCmjgsBT,2020-0188,2020-11-14,22:05:31,22:21:54,NA,incomplete,62,number,1,left,Red_Star_Grid_3.jpg,Green_Plus_Stripes_3.jpg,Blue_Star_Chess_4.jpg,left,937.7649999805726,true,high,false
sCmjgsBT,3fhtjgyt9qduw7xo30k18rjdqjggpm,34s6n1k2zzwks2bvmgee1uimcy8lhp,sCmjgsBT,2020-0188,2020-11-14,22:05:31,22:21:54,NA,incomplete,63,number,1,right,Red_Triangle_Chess_1.jpg,Green_Triangle_Stripes_3.jpg,Blue_Star_Grid_1.jpg,right,854.4799999799579,true,high,false
sCmjgsBT,3fhtjgyt9qduw7xo30k18rjdqjggpm,34s6n1k2zzwks2bvmgee1uimcy8lhp,sCmjgsBT,2020-0188,2020-11-14,22:05:31,22:21:54,NA,incomplete,64,number,1,left,Red_Circle_Chess_3.jpg,Green_Triangle_Dots_3.jpg,Blue_Circle_Stripes_1.jpg,left,1181.330000021262,true,high,false
sCmjgsBT,3fhtjgyt9qduw7xo30k18rjdqjggpm,34s6n1k2zzwks2bvmgee1uimcy8lhp,sCmjgsBT,2020-0188,2020-11-14,22:05:31,22:21:54,NA,incomplete,65,number,1,right,Green_Star_Dots_2.jpg,Purple_Star_Grid_4.jpg,Red_Triangle_Stripes_2.jpg,right,736.2100000027567,true,high,false
sCmjgsBT,3fhtjgyt9qduw7xo30k18rjdqjggpm,34s6n1k2zzwks2bvmgee1uimcy8lhp,sCmjgsBT,2020-0188,2020-11-14,22:05:31,22:21:54,NA,incomplete,66,number,1,left,Green_Star_Stripes_3.jpg,Red_Circle_Dots_3.jpg,Blue_Star_Chess_2.jpg,left,1149.3500000215136,true,high,false
sCmjgsBT,3fhtjgyt9qduw7xo30k18rjdqjggpm,34s6n1k2zzwks2bvmgee1uimcy8lhp,sCmjgsBT,2020-0188,2020-11-14,22:05:31,22:21:54,NA,incomplete,67,number,1,left,Green_Triangle_Dots_1.jpg,Blue_Plus_Stripes_1.jpg,Purple_Triangle_Chess_2.jpg,left,784.3700000084937,true,high,false
sCmjgsBT,3fhtjgyt9qduw7xo30k18rjdqjggpm,34s6n1k2zzwks2bvmgee1uimcy8lhp,sCmjgsBT,2020-0188,2020-11-14,22:05:31,22:21:54,NA,incomplete,68,number,1,left,Purple_Plus_Grid_2.jpg,Green_Star_Stripes_2.jpg,Blue_Plus_Dots_3.jpg,right,686.5450000041164,false,high,false
sCmjgsBT,3fhtjgyt9qduw7xo30k18rjdqjggpm,34s6n1k2zzwks2bvmgee1uimcy8lhp,sCmjgsBT,2020-0188,2020-11-14,22:05:31,22:21:54,NA,incomplete,69,number,1,left,Green_Star_Stripes_4.jpg,Purple_Triangle_Grid_4.jpg,Red_Star_Dots_1.jpg,left,962.599999998929,true,high,false
sCmjgsBT,3fhtjgyt9qduw7xo30k18rjdqjggpm,34s6n1k2zzwks2bvmgee1uimcy8lhp,sCmjgsBT,2020-0188,2020-11-14,22:05:31,22:21:54,NA,incomplete,70,shape,1,left,Blue_Plus_Dots_2.jpg,Red_Plus_Chess_1.jpg,Purple_Circle_Stripes_2.jpg,right,709.2249999986961,false,high,false
sCmjgsBT,3fhtjgyt9qduw7xo30k18rjdqjggpm,34s6n1k2zzwks2bvmgee1uimcy8lhp,sCmjgsBT,2020-0188,2020-11-14,22:05:31,22:21:54,NA,incomplete,71,shape,1,right,Green_Triangle_Grid_4.jpg,Purple_Plus_Chess_4.jpg,Red_Triangle_Stripes_1.jpg,left,859.4649999868125,false,high,false
sCmjgsBT,3fhtjgyt9qduw7xo30k18rjdqjggpm,34s6n1k2zzwks2bvmgee1uimcy8lhp,sCmjgsBT,2020-0188,2020-11-14,22:05:31,22:21:54,NA,incomplete,72,shape,0,left,Green_Triangle_Dots_2.jpg,Purple_Triangle_Grid_3.jpg,Blue_Star_Stripes_2.jpg,left,853.2899999991059,true,high,false
sCmjgsBT,3fhtjgyt9qduw7xo30k18rjdqjggpm,34s6n1k2zzwks2bvmgee1uimcy8lhp,sCmjgsBT,2020-0188,2020-11-14,22:05:31,22:21:54,NA,incomplete,73,shape,0,left,Green_Circle_Chess_2.jpg,Blue_Circle_Dots_4.jpg,Red_Plus_Grid_2.jpg,left,702.0100000081584,true,high,false
sCmjgsBT,3fhtjgyt9qduw7xo30k18rjdqjggpm,34s6n1k2zzwks2bvmgee1uimcy8lhp,sCmjgsBT,2020-0188,2020-11-14,22:05:31,22:21:54,NA,incomplete,74,shape,1,right,Green_Circle_Stripes_4.jpg,Red_Triangle_Chess_4.jpg,Purple_Circle_Grid_3.jpg,right,1217.1300000045449,true,high,false
sCmjgsBT,3fhtjgyt9qduw7xo30k18rjdqjggpm,34s6n1k2zzwks2bvmgee1uimcy8lhp,sCmjgsBT,2020-0188,2020-11-14,22:05:31,22:21:54,NA,incomplete,75,shape,1,left,Green_Triangle_Dots_1.jpg,Red_Triangle_Chess_4.jpg,Purple_Star_Grid_1.jpg,left,993.4599999978673,true,high,false
sCmjgsBT,3fhtjgyt9qduw7xo30k18rjdqjggpm,34s6n1k2zzwks2bvmgee1uimcy8lhp,sCmjgsBT,2020-0188,2020-11-14,22:05:31,22:21:54,NA,incomplete,76,shape,1,left,Green_Plus_Chess_4.jpg,Purple_Plus_Grid_2.jpg,Red_Circle_Stripes_4.jpg,left,860.6300000101328,true,high,false
sCmjgsBT,3fhtjgyt9qduw7xo30k18rjdqjggpm,34s6n1k2zzwks2bvmgee1uimcy8lhp,sCmjgsBT,2020-0188,2020-11-14,22:05:31,22:21:54,NA,incomplete,77,shape,1,right,Purple_Triangle_Grid_3.jpg,Blue_Star_Chess_3.jpg,Red_Triangle_Dots_2.jpg,right,1072.8850000014063,true,high,false
sCmjgsBT,3fhtjgyt9qduw7xo30k18rjdqjggpm,34s6n1k2zzwks2bvmgee1uimcy8lhp,sCmjgsBT,2020-0188,2020-11-14,22:05:31,22:21:54,NA,incomplete,78,shape,0,right,Purple_Triangle_Dots_4.jpg,Red_Circle_Chess_4.jpg,Green_Triangle_Stripes_2.jpg,right,635.5150000017602,true,high,false
sCmjgsBT,3fhtjgyt9qduw7xo30k18rjdqjggpm,34s6n1k2zzwks2bvmgee1uimcy8lhp,sCmjgsBT,2020-0188,2020-11-14,22:05:31,22:21:54,NA,incomplete,79,shape,1,right,Blue_Triangle_Grid_2.jpg,Green_Plus_Chess_2.jpg,Purple_Triangle_Dots_4.jpg,right,653.2599999918602,true,high,false
sCmjgsBT,3fhtjgyt9qduw7xo30k18rjdqjggpm,34s6n1k2zzwks2bvmgee1uimcy8lhp,sCmjgsBT,2020-0188,2020-11-14,22:05:31,22:21:54,NA,incomplete,80,number,1,right,Blue_Circle_Grid_3.jpg,Green_Circle_Stripes_1.jpg,Purple_Plus_Dots_3.jpg,left,943.1399999884889,false,high,false
sCmjgsBT,3fhtjgyt9qduw7xo30k18rjdqjggpm,34s6n1k2zzwks2bvmgee1uimcy8lhp,sCmjgsBT,2020-0188,2020-11-14,22:05:31,22:21:54,NA,incomplete,81,number,1,left,Green_Star_Stripes_1.jpg,Purple_Triangle_Chess_1.jpg,Red_Star_Grid_2.jpg,left,695.7399999955669,true,high,false
sCmjgsBT,3fhtjgyt9qduw7xo30k18rjdqjggpm,34s6n1k2zzwks2bvmgee1uimcy8lhp,sCmjgsBT,2020-0188,2020-11-14,22:05:31,22:21:54,NA,incomplete,82,number,1,left,Red_Star_Chess_4.jpg,Green_Plus_Dots_4.jpg,Purple_Star_Grid_2.jpg,left,871.7950000136625,true,high,false
sCmjgsBT,3fhtjgyt9qduw7xo30k18rjdqjggpm,34s6n1k2zzwks2bvmgee1uimcy8lhp,sCmjgsBT,2020-0188,2020-11-14,22:05:31,22:21:54,NA,incomplete,83,number,1,right,Blue_Circle_Grid_3.jpg,Red_Circle_Stripes_1.jpg,Green_Triangle_Dots_3.jpg,right,678.0650000146125,true,high,false
sCmjgsBT,3fhtjgyt9qduw7xo30k18rjdqjggpm,34s6n1k2zzwks2bvmgee1uimcy8lhp,sCmjgsBT,2020-0188,2020-11-14,22:05:31,22:21:54,NA,incomplete,84,number,1,left,Red_Plus_Stripes_1.jpg,Green_Circle_Chess_1.jpg,Purple_Plus_Grid_4.jpg,left,1005.7049999886658,true,high,false
sCmjgsBT,3fhtjgyt9qduw7xo30k18rjdqjggpm,34s6n1k2zzwks2bvmgee1uimcy8lhp,sCmjgsBT,2020-0188,2020-11-14,22:05:31,22:21:54,NA,incomplete,85,number,1,left,Blue_Plus_Chess_1.jpg,Purple_Star_Stripes_1.jpg,Red_Plus_Grid_3.jpg,left,720.0100000191014,true,high,false
sCmjgsBT,3fhtjgyt9qduw7xo30k18rjdqjggpm,34s6n1k2zzwks2bvmgee1uimcy8lhp,sCmjgsBT,2020-0188,2020-11-14,22:05:31,22:21:54,NA,incomplete,86,number,1,left,Red_Plus_Grid_1.jpg,Blue_Triangle_Stripes_1.jpg,Green_Plus_Dots_3.jpg,left,557.5000000244472,true,high,false
sCmjgsBT,3fhtjgyt9qduw7xo30k18rjdqjggpm,34s6n1k2zzwks2bvmgee1uimcy8lhp,sCmjgsBT,2020-0188,2020-11-14,22:05:31,22:21:54,NA,incomplete,87,number,1,right,Blue_Triangle_Dots_4.jpg,Red_Triangle_Chess_3.jpg,Green_Star_Stripes_4.jpg,right,826.9000000145752,true,high,false
sCmjgsBT,3fhtjgyt9qduw7xo30k18rjdqjggpm,34s6n1k2zzwks2bvmgee1uimcy8lhp,sCmjgsBT,2020-0188,2020-11-14,22:05:31,22:21:54,NA,incomplete,88,number,1,right,Purple_Circle_Grid_1.jpg,Red_Circle_Dots_4.jpg,Green_Triangle_Chess_1.jpg,right,977.5050000171177,true,high,false
sCmjgsBT,3fhtjgyt9qduw7xo30k18rjdqjggpm,34s6n1k2zzwks2bvmgee1uimcy8lhp,sCmjgsBT,2020-0188,2020-11-14,22:05:31,22:21:54,NA,incomplete,89,number,1,left,Red_Triangle_Stripes_1.jpg,Green_Star_Dots_1.jpg,Purple_Triangle_Chess_4.jpg,left,1108.909999980824,true,high,false
sCmjgsBT,3fhtjgyt9qduw7xo30k18rjdqjggpm,34s6n1k2zzwks2bvmgee1uimcy8lhp,sCmjgsBT,2020-0188,2020-11-14,22:05:31,22:21:54,NA,incomplete,90,shape,1,left,Green_Triangle_Stripes_4.jpg,Purple_Triangle_Dots_3.jpg,Blue_Star_Chess_4.jpg,left,1297.7649999957066,true,high,false
sCmjgsBT,3fhtjgyt9qduw7xo30k18rjdqjggpm,34s6n1k2zzwks2bvmgee1uimcy8lhp,sCmjgsBT,2020-0188,2020-11-14,22:05:31,22:21:54,NA,incomplete,91,shape,1,right,Green_Plus_Chess_3.jpg,Red_Triangle_Stripes_3.jpg,Blue_Plus_Dots_1.jpg,right,1153.0500000226311,true,high,false
sCmjgsBT,3fhtjgyt9qduw7xo30k18rjdqjggpm,34s6n1k2zzwks2bvmgee1uimcy8lhp,sCmjgsBT,2020-0188,2020-11-14,22:05:31,22:21:54,NA,incomplete,92,shape,0,right,Red_Plus_Chess_1.jpg,Green_Star_Stripes_1.jpg,Blue_Plus_Dots_2.jpg,right,891.4800000202376,true,high,false
sCmjgsBT,3fhtjgyt9qduw7xo30k18rjdqjggpm,34s6n1k2zzwks2bvmgee1uimcy8lhp,sCmjgsBT,2020-0188,2020-11-14,22:05:31,22:21:54,NA,incomplete,93,shape,1,left,Red_Triangle_Stripes_2.jpg,Purple_Triangle_Chess_4.jpg,Blue_Star_Dots_2.jpg,right,1130.9699999983422,false,high,false
sCmjgsBT,3fhtjgyt9qduw7xo30k18rjdqjggpm,34s6n1k2zzwks2bvmgee1uimcy8lhp,sCmjgsBT,2020-0188,2020-11-14,22:05:31,22:21:54,NA,incomplete,94,shape,1,left,Blue_Triangle_Chess_3.jpg,Purple_Triangle_Stripes_4.jpg,Red_Star_Dots_3.jpg,left,895.4799999773968,true,high,false
sCmjgsBT,3fhtjgyt9qduw7xo30k18rjdqjggpm,34s6n1k2zzwks2bvmgee1uimcy8lhp,sCmjgsBT,2020-0188,2020-11-14,22:05:31,22:21:54,NA,incomplete,95,shape,1,left,Red_Circle_Dots_2.jpg,Green_Circle_Stripes_4.jpg,Purple_Plus_Chess_2.jpg,left,756.8000000028405,true,high,false
sCmjgsBT,3fhtjgyt9qduw7xo30k18rjdqjggpm,34s6n1k2zzwks2bvmgee1uimcy8lhp,sCmjgsBT,2020-0188,2020-11-14,22:05:31,22:21:54,NA,incomplete,96,shape,1,left,Purple_Circle_Stripes_1.jpg,Blue_Circle_Dots_2.jpg,Green_Triangle_Chess_1.jpg,left,683.6349999939557,true,high,false
sCmjgsBT,3fhtjgyt9qduw7xo30k18rjdqjggpm,34s6n1k2zzwks2bvmgee1uimcy8lhp,sCmjgsBT,2020-0188,2020-11-14,22:05:31,22:21:54,NA,incomplete,97,shape,1,right,Green_Star_Chess_3.jpg,Blue_Plus_Dots_3.jpg,Red_Star_Stripes_1.jpg,right,977.0250000001397,true,high,false
sCmjgsBT,3fhtjgyt9qduw7xo30k18rjdqjggpm,34s6n1k2zzwks2bvmgee1uimcy8lhp,sCmjgsBT,2020-0188,2020-11-14,22:05:31,22:21:54,NA,incomplete,98,shape,0,left,Green_Plus_Dots_3.jpg,Red_Plus_Stripes_1.jpg,Purple_Circle_Chess_3.jpg,left,1011.7599999939557,true,high,false
sCmjgsBT,3fhtjgyt9qduw7xo30k18rjdqjggpm,34s6n1k2zzwks2bvmgee1uimcy8lhp,sCmjgsBT,2020-0188,2020-11-14,22:05:31,22:21:54,NA,incomplete,99,shape,1,right,Purple_Star_Grid_3.jpg,Green_Triangle_Dots_3.jpg,Red_Star_Stripes_4.jpg,right,676.7849999887403,true,high,false
sCmjgsBT,3fhtjgyt9qduw7xo30k18rjdqjggpm,34s6n1k2zzwks2bvmgee1uimcy8lhp,sCmjgsBT,2020-0188,2020-11-14,22:05:31,22:21:54,NA,incomplete,100,number,1,right,Green_Star_Grid_4.jpg,Purple_Star_Stripes_2.jpg,Blue_Circle_Dots_4.jpg,left,667.2550000075717,false,high,false
sCmjgsBT,3fhtjgyt9qduw7xo30k18rjdqjggpm,34s6n1k2zzwks2bvmgee1uimcy8lhp,sCmjgsBT,2020-0188,2020-11-14,22:05:31,22:21:54,NA,incomplete,101,number,1,left,Red_Plus_Chess_3.jpg,Purple_Circle_Grid_3.jpg,Green_Plus_Dots_1.jpg,right,883.9250000019092,false,high,false
sCmjgsBT,3fhtjgyt9qduw7xo30k18rjdqjggpm,34s6n1k2zzwks2bvmgee1uimcy8lhp,sCmjgsBT,2020-0188,2020-11-14,22:05:31,22:21:54,NA,incomplete,102,number,1,left,Purple_Triangle_Chess_2.jpg,Blue_Star_Grid_2.jpg,Green_Triangle_Dots_1.jpg,right,768.8800000178162,false,high,false
sCmjgsBT,3fhtjgyt9qduw7xo30k18rjdqjggpm,34s6n1k2zzwks2bvmgee1uimcy8lhp,sCmjgsBT,2020-0188,2020-11-14,22:05:31,22:21:54,NA,incomplete,103,number,1,right,Purple_Triangle_Dots_4.jpg,Blue_Triangle_Grid_3.jpg,Green_Star_Stripes_4.jpg,right,885.3900000103749,true,high,false
sCmjgsBT,3fhtjgyt9qduw7xo30k18rjdqjggpm,34s6n1k2zzwks2bvmgee1uimcy8lhp,sCmjgsBT,2020-0188,2020-11-14,22:05:31,22:21:54,NA,incomplete,104,number,1,left,Red_Circle_Stripes_2.jpg,Green_Star_Chess_2.jpg,Blue_Circle_Grid_4.jpg,left,771.744999976363,true,high,false
sCmjgsBT,3fhtjgyt9qduw7xo30k18rjdqjggpm,34s6n1k2zzwks2bvmgee1uimcy8lhp,sCmjgsBT,2020-0188,2020-11-14,22:05:31,22:21:54,NA,incomplete,105,number,1,right,Green_Circle_Dots_2.jpg,Red_Circle_Grid_4.jpg,Purple_Star_Chess_2.jpg,right,742.7850000094622,true,high,false
sCmjgsBT,3fhtjgyt9qduw7xo30k18rjdqjggpm,34s6n1k2zzwks2bvmgee1uimcy8lhp,sCmjgsBT,2020-0188,2020-11-14,22:05:31,22:21:54,NA,incomplete,106,number,1,right,Red_Star_Grid_4.jpg,Green_Star_Chess_1.jpg,Purple_Circle_Stripes_4.jpg,right,708.7199999950826,true,high,false
sCmjgsBT,3fhtjgyt9qduw7xo30k18rjdqjggpm,34s6n1k2zzwks2bvmgee1uimcy8lhp,sCmjgsBT,2020-0188,2020-11-14,22:05:31,22:21:54,NA,incomplete,107,number,1,left,Green_Circle_Dots_4.jpg,Red_Star_Stripes_4.jpg,Purple_Circle_Grid_2.jpg,left,626.0049999982584,true,high,false
sCmjgsBT,3fhtjgyt9qduw7xo30k18rjdqjggpm,34s6n1k2zzwks2bvmgee1uimcy8lhp,sCmjgsBT,2020-0188,2020-11-14,22:05:31,22:21:54,NA,incomplete,108,number,1,left,Blue_Star_Dots_1.jpg,Green_Triangle_Chess_1.jpg,Red_Star_Stripes_4.jpg,left,787.0550000225194,true,high,false
sCmjgsBT,3fhtjgyt9qduw7xo30k18rjdqjggpm,34s6n1k2zzwks2bvmgee1uimcy8lhp,sCmjgsBT,2020-0188,2020-11-14,22:05:31,22:21:54,NA,incomplete,109,number,1,right,Green_Triangle_Chess_1.jpg,Blue_Triangle_Grid_4.jpg,Red_Circle_Dots_1.jpg,right,518.0149999796413,true,high,false
sCmjgsBT,3fhtjgyt9qduw7xo30k18rjdqjggpm,34s6n1k2zzwks2bvmgee1uimcy8lhp,sCmjgsBT,2020-0188,2020-11-14,22:05:31,22:21:54,NA,incomplete,110,shape,0,left,Purple_Star_Stripes_2.jpg,Blue_Star_Grid_4.jpg,Green_Circle_Dots_2.jpg,right,739.2649999819696,false,high,false
sCmjgsBT,3fhtjgyt9qduw7xo30k18rjdqjggpm,34s6n1k2zzwks2bvmgee1uimcy8lhp,sCmjgsBT,2020-0188,2020-11-14,22:05:31,22:21:54,NA,incomplete,111,shape,1,right,Green_Triangle_Stripes_1.jpg,Purple_Plus_Dots_1.jpg,Blue_Triangle_Chess_4.jpg,left,778.9800000027753,false,high,false
sCmjgsBT,3fhtjgyt9qduw7xo30k18rjdqjggpm,34s6n1k2zzwks2bvmgee1uimcy8lhp,sCmjgsBT,2020-0188,2020-11-14,22:05:31,22:21:54,NA,incomplete,112,shape,1,left,Red_Plus_Stripes_4.jpg,Purple_Plus_Grid_3.jpg,Green_Star_Dots_4.jpg,right,858.219999994617,false,high,false
sCmjgsBT,3fhtjgyt9qduw7xo30k18rjdqjggpm,34s6n1k2zzwks2bvmgee1uimcy8lhp,sCmjgsBT,2020-0188,2020-11-14,22:05:31,22:21:54,NA,incomplete,113,shape,0,left,Purple_Star_Dots_2.jpg,Blue_Star_Chess_3.jpg,Green_Triangle_Stripes_2.jpg,right,1033.930000005057,false,high,false
sCmjgsBT,3fhtjgyt9qduw7xo30k18rjdqjggpm,34s6n1k2zzwks2bvmgee1uimcy8lhp,sCmjgsBT,2020-0188,2020-11-14,22:05:31,22:21:54,NA,incomplete,114,shape,1,right,Purple_Plus_Grid_1.jpg,Red_Star_Dots_1.jpg,Green_Plus_Chess_2.jpg,left,1162.8250000067055,false,high,false
sCmjgsBT,3fhtjgyt9qduw7xo30k18rjdqjggpm,34s6n1k2zzwks2bvmgee1uimcy8lhp,sCmjgsBT,2020-0188,2020-11-14,22:05:31,22:21:54,NA,incomplete,115,shape,0,left,Purple_Star_Dots_1.jpg,Red_Star_Grid_4.jpg,Green_Plus_Stripes_1.jpg,left,902.0399999863002,true,high,false
sCmjgsBT,3fhtjgyt9qduw7xo30k18rjdqjggpm,34s6n1k2zzwks2bvmgee1uimcy8lhp,sCmjgsBT,2020-0188,2020-11-14,22:05:31,22:21:54,NA,incomplete,116,shape,1,left,Green_Plus_Stripes_2.jpg,Purple_Plus_Grid_4.jpg,Blue_Star_Chess_2.jpg,left,781.1450000153854,true,high,false
sCmjgsBT,3fhtjgyt9qduw7xo30k18rjdqjggpm,34s6n1k2zzwks2bvmgee1uimcy8lhp,sCmjgsBT,2020-0188,2020-11-14,22:05:31,22:21:54,NA,incomplete,117,shape,1,left,Blue_Circle_Dots_4.jpg,Red_Circle_Stripes_2.jpg,Green_Triangle_Chess_4.jpg,left,807.8699999896344,true,high,false
sCmjgsBT,3fhtjgyt9qduw7xo30k18rjdqjggpm,34s6n1k2zzwks2bvmgee1uimcy8lhp,sCmjgsBT,2020-0188,2020-11-14,22:05:31,22:21:54,NA,incomplete,118,shape,1,left,Purple_Plus_Dots_2.jpg,Green_Plus_Chess_4.jpg,Red_Star_Grid_2.jpg,left,794.2000000039116,true,high,false
sCmjgsBT,3fhtjgyt9qduw7xo30k18rjdqjggpm,34s6n1k2zzwks2bvmgee1uimcy8lhp,sCmjgsBT,2020-0188,2020-11-14,22:05:31,22:21:54,NA,incomplete,119,shape,1,left,Red_Triangle_Dots_3.jpg,Blue_Triangle_Grid_1.jpg,Purple_Circle_Chess_3.jpg,left,1124.6549999923445,true,high,false
sCmjgsBT,3fhtjgyt9qduw7xo30k18rjdqjggpm,34s6n1k2zzwks2bvmgee1uimcy8lhp,sCmjgsBT,2020-0188,2020-11-14,22:05:31,22:21:54,NA,incomplete,120,number,1,right,Red_Plus_Stripes_2.jpg,Purple_Plus_Dots_3.jpg,Green_Star_Grid_2.jpg,left,664.5300000091083,false,high,false
sCmjgsBT,3fhtjgyt9qduw7xo30k18rjdqjggpm,34s6n1k2zzwks2bvmgee1uimcy8lhp,sCmjgsBT,2020-0188,2020-11-14,22:05:31,22:21:54,NA,incomplete,121,number,1,right,Red_Plus_Stripes_3.jpg,Green_Plus_Dots_2.jpg,Purple_Star_Chess_3.jpg,left,731.1550000158604,false,high,false
sCmjgsBT,3fhtjgyt9qduw7xo30k18rjdqjggpm,34s6n1k2zzwks2bvmgee1uimcy8lhp,sCmjgsBT,2020-0188,2020-11-14,22:05:31,22:21:54,NA,incomplete,122,number,0,left,Blue_Plus_Grid_2.jpg,Green_Circle_Chess_2.jpg,Purple_Plus_Dots_4.jpg,right,821.3099999993574,false,high,false
sCmjgsBT,3fhtjgyt9qduw7xo30k18rjdqjggpm,34s6n1k2zzwks2bvmgee1uimcy8lhp,sCmjgsBT,2020-0188,2020-11-14,22:05:31,22:21:54,NA,incomplete,123,number,1,right,Purple_Triangle_Grid_1.jpg,Blue_Triangle_Dots_4.jpg,Red_Star_Chess_1.jpg,left,775.7299999939278,false,high,false
sCmjgsBT,3fhtjgyt9qduw7xo30k18rjdqjggpm,34s6n1k2zzwks2bvmgee1uimcy8lhp,sCmjgsBT,2020-0188,2020-11-14,22:05:31,22:21:54,NA,incomplete,124,number,1,right,Purple_Plus_Dots_1.jpg,Blue_Plus_Chess_2.jpg,Green_Star_Stripes_1.jpg,right,722.7849999908358,true,high,false
sCmjgsBT,3fhtjgyt9qduw7xo30k18rjdqjggpm,34s6n1k2zzwks2bvmgee1uimcy8lhp,sCmjgsBT,2020-0188,2020-11-14,22:05:31,22:21:54,NA,incomplete,125,number,1,left,Purple_Plus_Stripes_2.jpg,Green_Star_Dots_2.jpg,Blue_Plus_Grid_3.jpg,left,952.7100000123028,true,high,false
sCmjgsBT,3fhtjgyt9qduw7xo30k18rjdqjggpm,34s6n1k2zzwks2bvmgee1uimcy8lhp,sCmjgsBT,2020-0188,2020-11-14,22:05:31,22:21:54,NA,incomplete,126,number,1,left,Green_Circle_Stripes_1.jpg,Red_Plus_Chess_1.jpg,Blue_Circle_Grid_2.jpg,left,1158.8800000026822,true,high,false
sCmjgsBT,3fhtjgyt9qduw7xo30k18rjdqjggpm,34s6n1k2zzwks2bvmgee1uimcy8lhp,sCmjgsBT,2020-0188,2020-11-14,22:05:31,22:21:54,NA,incomplete,127,number,1,left,Green_Triangle_Dots_2.jpg,Purple_Star_Grid_2.jpg,Blue_Triangle_Chess_1.jpg,left,1478.400000021793,true,high,false
sCmjgsBT,3fhtjgyt9qduw7xo30k18rjdqjggpm,34s6n1k2zzwks2bvmgee1uimcy8lhp,sCmjgsBT,2020-0188,2020-11-14,22:05:31,22:21:54,NA,incomplete,128,number,1,right,Green_Plus_Grid_3.jpg,Red_Plus_Chess_2.jpg,Purple_Star_Stripes_3.jpg,right,925.7100000104401,true,high,false
sCmjgsBT,3fhtjgyt9qduw7xo30k18rjdqjggpm,34s6n1k2zzwks2bvmgee1uimcy8lhp,sCmjgsBT,2020-0188,2020-11-14,22:05:31,22:21:54,NA,incomplete,129,number,1,left,Green_Star_Stripes_4.jpg,Blue_Triangle_Grid_4.jpg,Red_Star_Dots_2.jpg,left,786.2650000024587,true,high,false
sCmjgsBT,3fhtjgyt9qduw7xo30k18rjdqjggpm,34s6n1k2zzwks2bvmgee1uimcy8lhp,sCmjgsBT,2020-0188,2020-11-14,22:05:31,22:21:54,NA,incomplete,130,number,0,right,Red_Star_Grid_1.jpg,Purple_Star_Stripes_4.jpg,Green_Triangle_Dots_1.jpg,right,702.3499999777414,true,high,false
sCmjgsBT,3fhtjgyt9qduw7xo30k18rjdqjggpm,34s6n1k2zzwks2bvmgee1uimcy8lhp,sCmjgsBT,2020-0188,2020-11-14,22:05:31,22:21:54,NA,incomplete,131,number,1,left,Red_Triangle_Stripes_4.jpg,Purple_Circle_Dots_4.jpg,Green_Triangle_Chess_2.jpg,left,974.3299999972805,true,high,false
sCmjgsBT,3fhtjgyt9qduw7xo30k18rjdqjggpm,34s6n1k2zzwks2bvmgee1uimcy8lhp,sCmjgsBT,2020-0188,2020-11-14,22:05:31,22:21:54,NA,incomplete,132,number,0,right,Blue_Triangle_Dots_1.jpg,Green_Triangle_Grid_4.jpg,Purple_Star_Chess_1.jpg,right,750.4049999988638,true,high,false
sCmjgsBT,3fhtjgyt9qduw7xo30k18rjdqjggpm,34s6n1k2zzwks2bvmgee1uimcy8lhp,sCmjgsBT,2020-0188,2020-11-14,22:05:31,22:21:54,NA,incomplete,133,number,1,right,Purple_Star_Chess_4.jpg,Green_Star_Dots_2.jpg,Blue_Circle_Stripes_4.jpg,right,842.4600000143982,true,high,false
sCmjgsBT,3fhtjgyt9qduw7xo30k18rjdqjggpm,34s6n1k2zzwks2bvmgee1uimcy8lhp,sCmjgsBT,2020-0188,2020-11-14,22:05:31,22:21:54,NA,incomplete,134,number,1,right,Blue_Circle_Dots_3.jpg,Green_Circle_Grid_1.jpg,Purple_Star_Chess_3.jpg,right,707.4650000140537,true,high,false
sCmjgsBT,3fhtjgyt9qduw7xo30k18rjdqjggpm,34s6n1k2zzwks2bvmgee1uimcy8lhp,sCmjgsBT,2020-0188,2020-11-14,22:05:31,22:21:54,NA,incomplete,135,number,0,left,Purple_Triangle_Chess_1.jpg,Green_Plus_Stripes_1.jpg,Blue_Triangle_Grid_3.jpg,left,777.799999981653,true,high,false
sCmjgsBT,3fhtjgyt9qduw7xo30k18rjdqjggpm,34s6n1k2zzwks2bvmgee1uimcy8lhp,sCmjgsBT,2020-0188,2020-11-14,22:05:31,22:21:54,NA,incomplete,136,number,1,left,Purple_Circle_Dots_2.jpg,Green_Star_Grid_2.jpg,Red_Circle_Chess_1.jpg,left,828.2100000069477,true,high,false
sCmjgsBT,3fhtjgyt9qduw7xo30k18rjdqjggpm,34s6n1k2zzwks2bvmgee1uimcy8lhp,sCmjgsBT,2020-0188,2020-11-14,22:05:31,22:21:54,NA,incomplete,137,number,1,right,Purple_Star_Dots_3.jpg,Green_Star_Grid_4.jpg,Red_Circle_Stripes_3.jpg,right,948.9600000088103,true,high,false
sCmjgsBT,3fhtjgyt9qduw7xo30k18rjdqjggpm,34s6n1k2zzwks2bvmgee1uimcy8lhp,sCmjgsBT,2020-0188,2020-11-14,22:05:31,22:21:54,NA,incomplete,138,number,1,left,Green_Plus_Grid_1.jpg,Red_Circle_Chess_1.jpg,Purple_Plus_Stripes_4.jpg,left,882.0699999923818,true,high,false
sCmjgsBT,3fhtjgyt9qduw7xo30k18rjdqjggpm,34s6n1k2zzwks2bvmgee1uimcy8lhp,sCmjgsBT,2020-0188,2020-11-14,22:05:31,22:21:54,NA,incomplete,139,number,1,right,Blue_Plus_Grid_4.jpg,Green_Plus_Dots_1.jpg,Red_Triangle_Chess_4.jpg,right,727.9600000183564,true,high,false
sCmjgsBT,3fhtjgyt9qduw7xo30k18rjdqjggpm,34s6n1k2zzwks2bvmgee1uimcy8lhp,sCmjgsBT,2020-0188,2020-11-14,22:05:31,22:21:54,NA,incomplete,140,shape,1,right,Red_Triangle_Stripes_1.jpg,Purple_Plus_Dots_1.jpg,Blue_Triangle_Chess_3.jpg,left,989.6899999876041,false,high,false
sCmjgsBT,3fhtjgyt9qduw7xo30k18rjdqjggpm,34s6n1k2zzwks2bvmgee1uimcy8lhp,sCmjgsBT,2020-0188,2020-11-14,22:05:31,22:21:54,NA,incomplete,141,shape,1,right,Green_Triangle_Stripes_2.jpg,Purple_Plus_Chess_2.jpg,Blue_Triangle_Grid_3.jpg,left,804.069999983767,false,high,false
sCmjgsBT,3fhtjgyt9qduw7xo30k18rjdqjggpm,34s6n1k2zzwks2bvmgee1uimcy8lhp,sCmjgsBT,2020-0188,2020-11-14,22:05:31,22:21:54,NA,incomplete,142,shape,1,right,Green_Circle_Stripes_1.jpg,Blue_Plus_Grid_1.jpg,Purple_Circle_Dots_4.jpg,right,746.419999981299,true,high,false
sCmjgsBT,3fhtjgyt9qduw7xo30k18rjdqjggpm,34s6n1k2zzwks2bvmgee1uimcy8lhp,sCmjgsBT,2020-0188,2020-11-14,22:05:31,22:21:54,NA,incomplete,143,shape,1,right,Green_Plus_Grid_3.jpg,Red_Triangle_Chess_3.jpg,Purple_Plus_Stripes_2.jpg,right,919.1649999993388,true,high,false
sCmjgsBT,3fhtjgyt9qduw7xo30k18rjdqjggpm,34s6n1k2zzwks2bvmgee1uimcy8lhp,sCmjgsBT,2020-0188,2020-11-14,22:05:31,22:21:54,NA,incomplete,144,shape,1,left,Purple_Triangle_Grid_2.jpg,Red_Triangle_Dots_3.jpg,Green_Star_Chess_2.jpg,left,707.540000003064,true,high,false
sCmjgsBT,3fhtjgyt9qduw7xo30k18rjdqjggpm,34s6n1k2zzwks2bvmgee1uimcy8lhp,sCmjgsBT,2020-0188,2020-11-14,22:05:31,22:21:54,NA,incomplete,145,shape,0,right,Blue_Plus_Chess_1.jpg,Purple_Star_Stripes_1.jpg,Red_Plus_Dots_3.jpg,right,857.6799999864306,true,high,false
sCmjgsBT,3fhtjgyt9qduw7xo30k18rjdqjggpm,34s6n1k2zzwks2bvmgee1uimcy8lhp,sCmjgsBT,2020-0188,2020-11-14,22:05:31,22:21:54,NA,incomplete,146,shape,1,right,Blue_Plus_Grid_1.jpg,Purple_Star_Dots_1.jpg,Green_Plus_Stripes_3.jpg,right,593.5799999861047,true,high,false
sCmjgsBT,3fhtjgyt9qduw7xo30k18rjdqjggpm,34s6n1k2zzwks2bvmgee1uimcy8lhp,sCmjgsBT,2020-0188,2020-11-14,22:05:31,22:21:54,NA,incomplete,147,shape,1,left,Green_Circle_Chess_3.jpg,Purple_Circle_Grid_1.jpg,Blue_Star_Dots_3.jpg,left,819.870000006631,true,high,false
sCmjgsBT,3fhtjgyt9qduw7xo30k18rjdqjggpm,34s6n1k2zzwks2bvmgee1uimcy8lhp,sCmjgsBT,2020-0188,2020-11-14,22:05:31,22:21:54,NA,incomplete,148,shape,0,left,Blue_Plus_Grid_1.jpg,Red_Plus_Chess_3.jpg,Purple_Star_Dots_1.jpg,left,669.5500000205357,true,high,false
sCmjgsBT,3fhtjgyt9qduw7xo30k18rjdqjggpm,34s6n1k2zzwks2bvmgee1uimcy8lhp,sCmjgsBT,2020-0188,2020-11-14,22:05:31,22:21:54,NA,incomplete,149,shape,1,left,Purple_Circle_Chess_1.jpg,Blue_Circle_Grid_4.jpg,Green_Plus_Dots_1.jpg,left,651.5549999894574,true,high,false
sCmjgsBT,3fhtjgyt9qduw7xo30k18rjdqjggpm,34s6n1k2zzwks2bvmgee1uimcy8lhp,sCmjgsBT,2020-0188,2020-11-14,22:05:31,22:21:54,NA,incomplete,150,shape,1,left,Green_Circle_Grid_4.jpg,Purple_Circle_Dots_3.jpg,Blue_Star_Stripes_4.jpg,left,764.0600000158884,true,high,false
sCmjgsBT,3fhtjgyt9qduw7xo30k18rjdqjggpm,34s6n1k2zzwks2bvmgee1uimcy8lhp,sCmjgsBT,2020-0188,2020-11-14,22:05:31,22:21:54,NA,incomplete,151,shape,1,right,Purple_Triangle_Grid_3.jpg,Green_Star_Stripes_3.jpg,Red_Triangle_Chess_1.jpg,right,1562.999999994645,true,high,false
sCmjgsBT,3fhtjgyt9qduw7xo30k18rjdqjggpm,34s6n1k2zzwks2bvmgee1uimcy8lhp,sCmjgsBT,2020-0188,2020-11-14,22:05:31,22:21:54,NA,incomplete,152,shape,1,right,Green_Circle_Grid_2.jpg,Purple_Plus_Stripes_2.jpg,Red_Circle_Dots_1.jpg,right,779.2499999923166,true,high,false
sCmjgsBT,3fhtjgyt9qduw7xo30k18rjdqjggpm,34s6n1k2zzwks2bvmgee1uimcy8lhp,sCmjgsBT,2020-0188,2020-11-14,22:05:31,22:21:54,NA,incomplete,153,shape,1,left,Purple_Circle_Stripes_1.jpg,Green_Circle_Dots_2.jpg,Red_Star_Chess_1.jpg,left,661.0799999907613,true,high,false
sCmjgsBT,3fhtjgyt9qduw7xo30k18rjdqjggpm,34s6n1k2zzwks2bvmgee1uimcy8lhp,sCmjgsBT,2020-0188,2020-11-14,22:05:31,22:21:54,NA,incomplete,154,shape,0,right,Blue_Star_Dots_4.jpg,Green_Circle_Chess_4.jpg,Red_Star_Stripes_3.jpg,right,1022.3800000094343,true,high,false
sCmjgsBT,3fhtjgyt9qduw7xo30k18rjdqjggpm,34s6n1k2zzwks2bvmgee1uimcy8lhp,sCmjgsBT,2020-0188,2020-11-14,22:05:31,22:21:54,NA,incomplete,155,shape,1,right,Green_Plus_Grid_2.jpg,Red_Circle_Dots_2.jpg,Blue_Plus_Stripes_1.jpg,right,711.2900000065565,true,high,false
sCmjgsBT,3fhtjgyt9qduw7xo30k18rjdqjggpm,34s6n1k2zzwks2bvmgee1uimcy8lhp,sCmjgsBT,2020-0188,2020-11-14,22:05:31,22:21:54,NA,incomplete,156,shape,1,right,Green_Star_Chess_1.jpg,Purple_Plus_Stripes_1.jpg,Red_Star_Grid_2.jpg,right,902.4300000164658,true,high,false
sCmjgsBT,3fhtjgyt9qduw7xo30k18rjdqjggpm,34s6n1k2zzwks2bvmgee1uimcy8lhp,sCmjgsBT,2020-0188,2020-11-14,22:05:31,22:21:54,NA,incomplete,157,shape,0,left,Blue_Circle_Grid_2.jpg,Red_Circle_Chess_1.jpg,Green_Triangle_Dots_2.jpg,left,706.6500000073574,true,high,false
sCmjgsBT,3fhtjgyt9qduw7xo30k18rjdqjggpm,34s6n1k2zzwks2bvmgee1uimcy8lhp,sCmjgsBT,2020-0188,2020-11-14,22:05:31,22:21:54,NA,incomplete,158,shape,1,left,Purple_Triangle_Chess_3.jpg,Green_Triangle_Dots_2.jpg,Red_Plus_Stripes_3.jpg,right,962.1849999821279,false,high,false
sCmjgsBT,3fhtjgyt9qduw7xo30k18rjdqjggpm,34s6n1k2zzwks2bvmgee1uimcy8lhp,sCmjgsBT,2020-0188,2020-11-14,22:05:31,22:21:54,NA,incomplete,159,shape,1,right,Green_Plus_Grid_4.jpg,Purple_Triangle_Stripes_4.jpg,Blue_Plus_Chess_3.jpg,right,892.9950000019744,true,high,false
sCmjgsBT,3fhtjgyt9qduw7xo30k18rjdqjggpm,34s6n1k2zzwks2bvmgee1uimcy8lhp,sCmjgsBT,2020-0188,2020-11-14,22:05:31,22:21:54,NA,incomplete,160,number,1,right,Red_Circle_Chess_4.jpg,Green_Circle_Dots_1.jpg,Blue_Star_Stripes_4.jpg,right,1346.6299999854527,true,high,false
sCmjgsBT,3fhtjgyt9qduw7xo30k18rjdqjggpm,34s6n1k2zzwks2bvmgee1uimcy8lhp,sCmjgsBT,2020-0188,2020-11-14,22:05:31,22:21:54,NA,incomplete,161,number,1,left,Blue_Circle_Stripes_3.jpg,Purple_Plus_Grid_3.jpg,Green_Circle_Chess_4.jpg,right,1122.2599999746308,false,high,false
sCmjgsBT,3fhtjgyt9qduw7xo30k18rjdqjggpm,34s6n1k2zzwks2bvmgee1uimcy8lhp,sCmjgsBT,2020-0188,2020-11-14,22:05:31,22:21:54,NA,incomplete,162,number,1,right,Green_Plus_Grid_3.jpg,Purple_Plus_Stripes_2.jpg,Red_Triangle_Dots_3.jpg,left,1500.8450000023004,false,high,false
sCmjgsBT,3fhtjgyt9qduw7xo30k18rjdqjggpm,34s6n1k2zzwks2bvmgee1uimcy8lhp,sCmjgsBT,2020-0188,2020-11-14,22:05:31,22:21:54,NA,incomplete,163,number,1,left,Red_Star_Grid_1.jpg,Green_Plus_Chess_1.jpg,Blue_Star_Dots_2.jpg,left,1665.275000006659,true,high,false
sCmjgsBT,3fhtjgyt9qduw7xo30k18rjdqjggpm,34s6n1k2zzwks2bvmgee1uimcy8lhp,sCmjgsBT,2020-0188,2020-11-14,22:05:31,22:21:54,NA,incomplete,164,number,0,left,Red_Plus_Grid_4.jpg,Green_Star_Chess_4.jpg,Purple_Plus_Dots_1.jpg,right,1458.039999997709,false,high,false
sCmjgsBT,3fhtjgyt9qduw7xo30k18rjdqjggpm,34s6n1k2zzwks2bvmgee1uimcy8lhp,sCmjgsBT,2020-0188,2020-11-14,22:05:31,22:21:54,NA,incomplete,165,number,1,left,Green_Plus_Stripes_4.jpg,Blue_Circle_Dots_4.jpg,Red_Plus_Grid_2.jpg,right,1282.584999979008,false,high,false
sCmjgsBT,3fhtjgyt9qduw7xo30k18rjdqjggpm,34s6n1k2zzwks2bvmgee1uimcy8lhp,sCmjgsBT,2020-0188,2020-11-14,22:05:31,22:21:54,NA,incomplete,166,number,1,left,Red_Plus_Stripes_3.jpg,Green_Triangle_Dots_3.jpg,Purple_Plus_Chess_1.jpg,left,1134.619999997085,true,high,false
sCmjgsBT,3fhtjgyt9qduw7xo30k18rjdqjggpm,34s6n1k2zzwks2bvmgee1uimcy8lhp,sCmjgsBT,2020-0188,2020-11-14,22:05:31,22:21:54,NA,incomplete,167,number,1,left,Blue_Plus_Grid_2.jpg,Red_Triangle_Stripes_2.jpg,Purple_Plus_Chess_4.jpg,left,1428.2749999838416,true,high,false
sCmjgsBT,3fhtjgyt9qduw7xo30k18rjdqjggpm,34s6n1k2zzwks2bvmgee1uimcy8lhp,sCmjgsBT,2020-0188,2020-11-14,22:05:31,22:21:54,NA,incomplete,168,number,1,right,Blue_Star_Chess_2.jpg,Green_Star_Dots_3.jpg,Red_Circle_Grid_2.jpg,right,964.815000013914,true,high,false
sCmjgsBT,3fhtjgyt9qduw7xo30k18rjdqjggpm,34s6n1k2zzwks2bvmgee1uimcy8lhp,sCmjgsBT,2020-0188,2020-11-14,22:05:31,22:21:54,NA,incomplete,169,number,0,left,Green_Triangle_Chess_2.jpg,Red_Circle_Stripes_2.jpg,Blue_Triangle_Dots_1.jpg,left,832.1750000177417,true,high,false
sCmjgsBT,3fhtjgyt9qduw7xo30k18rjdqjggpm,34s6n1k2zzwks2bvmgee1uimcy8lhp,sCmjgsBT,2020-0188,2020-11-14,22:05:31,22:21:54,NA,incomplete,170,number,1,right,Purple_Triangle_Stripes_3.jpg,Green_Triangle_Grid_4.jpg,Red_Circle_Chess_3.jpg,right,769.9049999937415,true,high,false
sCmjgsBT,3fhtjgyt9qduw7xo30k18rjdqjggpm,34s6n1k2zzwks2bvmgee1uimcy8lhp,sCmjgsBT,2020-0188,2020-11-14,22:05:31,22:21:54,NA,incomplete,171,number,1,left,Purple_Star_Grid_2.jpg,Red_Circle_Chess_2.jpg,Green_Star_Dots_3.jpg,left,1109.7549999831244,true,high,false
sCmjgsBT,3fhtjgyt9qduw7xo30k18rjdqjggpm,34s6n1k2zzwks2bvmgee1uimcy8lhp,sCmjgsBT,2020-0188,2020-11-14,22:05:31,22:21:54,NA,incomplete,172,number,1,left,Blue_Star_Chess_3.jpg,Purple_Plus_Dots_3.jpg,Green_Star_Stripes_4.jpg,right,609.2350000108127,false,high,false
sCmjgsBT,3fhtjgyt9qduw7xo30k18rjdqjggpm,34s6n1k2zzwks2bvmgee1uimcy8lhp,sCmjgsBT,2020-0188,2020-11-14,22:05:31,22:21:54,NA,incomplete,173,number,1,left,Green_Triangle_Dots_2.jpg,Blue_Plus_Grid_2.jpg,Purple_Triangle_Stripes_4.jpg,left,811.27999999444,true,high,false
sCmjgsBT,3fhtjgyt9qduw7xo30k18rjdqjggpm,34s6n1k2zzwks2bvmgee1uimcy8lhp,sCmjgsBT,2020-0188,2020-11-14,22:05:31,22:21:54,NA,incomplete,174,number,0,left,Green_Star_Grid_1.jpg,Red_Triangle_Chess_1.jpg,Purple_Star_Stripes_4.jpg,left,766.2549999949988,true,high,false
sCmjgsBT,3fhtjgyt9qduw7xo30k18rjdqjggpm,34s6n1k2zzwks2bvmgee1uimcy8lhp,sCmjgsBT,2020-0188,2020-11-14,22:05:31,22:21:54,NA,incomplete,175,number,1,right,Blue_Plus_Stripes_2.jpg,Purple_Plus_Grid_3.jpg,Green_Star_Dots_2.jpg,right,1104.9950000015087,true,high,false
sCmjgsBT,3fhtjgyt9qduw7xo30k18rjdqjggpm,34s6n1k2zzwks2bvmgee1uimcy8lhp,sCmjgsBT,2020-0188,2020-11-14,22:05:31,22:21:54,NA,incomplete,176,number,1,right,Purple_Star_Grid_1.jpg,Green_Star_Chess_3.jpg,Blue_Circle_Stripes_1.jpg,right,1222.7350000175647,true,high,false
sCmjgsBT,3fhtjgyt9qduw7xo30k18rjdqjggpm,34s6n1k2zzwks2bvmgee1uimcy8lhp,sCmjgsBT,2020-0188,2020-11-14,22:05:31,22:21:54,NA,incomplete,177,number,1,left,Blue_Star_Grid_3.jpg,Red_Triangle_Stripes_3.jpg,Green_Star_Dots_2.jpg,left,823.4300000185613,true,high,false
sCmjgsBT,3fhtjgyt9qduw7xo30k18rjdqjggpm,34s6n1k2zzwks2bvmgee1uimcy8lhp,sCmjgsBT,2020-0188,2020-11-14,22:05:31,22:21:54,NA,incomplete,178,number,1,right,Green_Triangle_Dots_1.jpg,Red_Triangle_Stripes_2.jpg,Blue_Circle_Chess_1.jpg,right,1665.6699999875855,true,high,false
sCmjgsBT,3fhtjgyt9qduw7xo30k18rjdqjggpm,34s6n1k2zzwks2bvmgee1uimcy8lhp,sCmjgsBT,2020-0188,2020-11-14,22:05:31,22:21:54,NA,incomplete,179,number,1,left,Green_Triangle_Stripes_4.jpg,Blue_Star_Grid_4.jpg,Red_Triangle_Dots_1.jpg,left,647.1849999797996,true,high,false
sCmjgsBT,3fhtjgyt9qduw7xo30k18rjdqjggpm,34s6n1k2zzwks2bvmgee1uimcy8lhp,sCmjgsBT,2020-0188,2020-11-14,22:05:31,22:21:54,NA,incomplete,180,shape,1,right,Blue_Triangle_Grid_1.jpg,Red_Circle_Dots_1.jpg,Green_Triangle_Stripes_4.jpg,left,640.3400000126567,false,high,false
sCmjgsBT,3fhtjgyt9qduw7xo30k18rjdqjggpm,34s6n1k2zzwks2bvmgee1uimcy8lhp,sCmjgsBT,2020-0188,2020-11-14,22:05:31,22:21:54,NA,incomplete,181,shape,1,right,Blue_Triangle_Grid_2.jpg,Green_Star_Stripes_2.jpg,Red_Triangle_Dots_4.jpg,left,808.9899999904446,false,high,false
sCmjgsBT,3fhtjgyt9qduw7xo30k18rjdqjggpm,34s6n1k2zzwks2bvmgee1uimcy8lhp,sCmjgsBT,2020-0188,2020-11-14,22:05:31,22:21:54,NA,incomplete,182,shape,1,right,Red_Plus_Stripes_4.jpg,Purple_Star_Dots_4.jpg,Blue_Plus_Grid_3.jpg,right,770.810000016354,true,high,false
sCmjgsBT,3fhtjgyt9qduw7xo30k18rjdqjggpm,34s6n1k2zzwks2bvmgee1uimcy8lhp,sCmjgsBT,2020-0188,2020-11-14,22:05:31,22:21:54,NA,incomplete,183,shape,1,left,Purple_Circle_Stripes_4.jpg,Blue_Circle_Dots_3.jpg,Green_Plus_Chess_4.jpg,left,702.8649999992922,true,high,false
sCmjgsBT,3fhtjgyt9qduw7xo30k18rjdqjggpm,34s6n1k2zzwks2bvmgee1uimcy8lhp,sCmjgsBT,2020-0188,2020-11-14,22:05:31,22:21:54,NA,incomplete,184,shape,0,right,Red_Triangle_Stripes_4.jpg,Purple_Plus_Dots_4.jpg,Blue_Triangle_Grid_3.jpg,right,772.8449999995064,true,high,false
sCmjgsBT,3fhtjgyt9qduw7xo30k18rjdqjggpm,34s6n1k2zzwks2bvmgee1uimcy8lhp,sCmjgsBT,2020-0188,2020-11-14,22:05:31,22:21:54,NA,incomplete,185,shape,1,left,Blue_Star_Chess_3.jpg,Green_Star_Stripes_1.jpg,Red_Plus_Grid_3.jpg,left,919.7099999873899,true,high,false
sCmjgsBT,3fhtjgyt9qduw7xo30k18rjdqjggpm,34s6n1k2zzwks2bvmgee1uimcy8lhp,sCmjgsBT,2020-0188,2020-11-14,22:05:31,22:21:54,NA,incomplete,186,shape,1,right,Green_Circle_Grid_2.jpg,Purple_Triangle_Dots_2.jpg,Red_Circle_Chess_1.jpg,right,572.5000000093132,true,high,false
sCmjgsBT,3fhtjgyt9qduw7xo30k18rjdqjggpm,34s6n1k2zzwks2bvmgee1uimcy8lhp,sCmjgsBT,2020-0188,2020-11-14,22:05:31,22:21:54,NA,incomplete,187,shape,1,right,Blue_Star_Stripes_3.jpg,Red_Plus_Grid_3.jpg,Purple_Star_Dots_1.jpg,right,776.175000006333,true,high,false
sCmjgsBT,3fhtjgyt9qduw7xo30k18rjdqjggpm,34s6n1k2zzwks2bvmgee1uimcy8lhp,sCmjgsBT,2020-0188,2020-11-14,22:05:31,22:21:54,NA,incomplete,188,shape,0,left,Green_Triangle_Grid_1.jpg,Red_Triangle_Dots_2.jpg,Purple_Plus_Stripes_1.jpg,left,875.5899999814574,true,high,false
sCmjgsBT,3fhtjgyt9qduw7xo30k18rjdqjggpm,34s6n1k2zzwks2bvmgee1uimcy8lhp,sCmjgsBT,2020-0188,2020-11-14,22:05:31,22:21:54,NA,incomplete,189,shape,1,right,Blue_Triangle_Chess_1.jpg,Red_Plus_Dots_1.jpg,Purple_Triangle_Stripes_4.jpg,right,841.374999989057,true,high,false
sCmjgsBT,3fhtjgyt9qduw7xo30k18rjdqjggpm,34s6n1k2zzwks2bvmgee1uimcy8lhp,sCmjgsBT,2020-0188,2020-11-14,22:05:31,22:21:54,NA,incomplete,190,shape,1,right,Blue_Star_Dots_2.jpg,Green_Plus_Stripes_2.jpg,Purple_Star_Grid_1.jpg,right,795.5700000165962,true,high,false
sCmjgsBT,3fhtjgyt9qduw7xo30k18rjdqjggpm,34s6n1k2zzwks2bvmgee1uimcy8lhp,sCmjgsBT,2020-0188,2020-11-14,22:05:31,22:21:54,NA,incomplete,191,shape,1,left,Red_Plus_Grid_4.jpg,Blue_Plus_Stripes_3.jpg,Purple_Circle_Dots_4.jpg,left,876.2600000191014,true,high,false
sCmjgsBT,3fhtjgyt9qduw7xo30k18rjdqjggpm,34s6n1k2zzwks2bvmgee1uimcy8lhp,sCmjgsBT,2020-0188,2020-11-14,22:05:31,22:21:54,NA,incomplete,192,shape,1,left,Blue_Plus_Stripes_1.jpg,Red_Plus_Dots_4.jpg,Green_Circle_Chess_1.jpg,left,787.6699999906123,true,high,false
sCmjgsBT,3fhtjgyt9qduw7xo30k18rjdqjggpm,34s6n1k2zzwks2bvmgee1uimcy8lhp,sCmjgsBT,2020-0188,2020-11-14,22:05:31,22:21:54,NA,incomplete,193,shape,1,left,Blue_Circle_Grid_3.jpg,Purple_Circle_Chess_4.jpg,Red_Plus_Stripes_3.jpg,left,849.2100000148639,true,high,false
sCmjgsBT,3fhtjgyt9qduw7xo30k18rjdqjggpm,34s6n1k2zzwks2bvmgee1uimcy8lhp,sCmjgsBT,2020-0188,2020-11-14,22:05:31,22:21:54,NA,incomplete,194,shape,1,right,Green_Plus_Grid_2.jpg,Purple_Circle_Dots_2.jpg,Red_Plus_Chess_3.jpg,right,710.4600000020582,true,high,false
sCmjgsBT,3fhtjgyt9qduw7xo30k18rjdqjggpm,34s6n1k2zzwks2bvmgee1uimcy8lhp,sCmjgsBT,2020-0188,2020-11-14,22:05:31,22:21:54,NA,incomplete,195,shape,1,right,Red_Triangle_Chess_3.jpg,Blue_Plus_Dots_3.jpg,Purple_Triangle_Grid_2.jpg,right,644.815000006929,true,high,false
sCmjgsBT,3fhtjgyt9qduw7xo30k18rjdqjggpm,34s6n1k2zzwks2bvmgee1uimcy8lhp,sCmjgsBT,2020-0188,2020-11-14,22:05:31,22:21:54,NA,incomplete,196,shape,1,right,Blue_Star_Dots_1.jpg,Green_Triangle_Stripes_1.jpg,Purple_Star_Grid_2.jpg,right,757.290000008652,true,high,false
sCmjgsBT,3fhtjgyt9qduw7xo30k18rjdqjggpm,34s6n1k2zzwks2bvmgee1uimcy8lhp,sCmjgsBT,2020-0188,2020-11-14,22:05:31,22:21:54,NA,incomplete,197,shape,1,right,Red_Triangle_Stripes_1.jpg,Purple_Plus_Grid_1.jpg,Blue_Triangle_Chess_2.jpg,right,616.8300000135787,true,high,false
sCmjgsBT,3fhtjgyt9qduw7xo30k18rjdqjggpm,34s6n1k2zzwks2bvmgee1uimcy8lhp,sCmjgsBT,2020-0188,2020-11-14,22:05:31,22:21:54,NA,incomplete,198,shape,1,right,Green_Circle_Chess_2.jpg,Blue_Triangle_Dots_2.jpg,Purple_Circle_Grid_3.jpg,right,693.7499999767169,true,high,false
sCmjgsBT,3fhtjgyt9qduw7xo30k18rjdqjggpm,34s6n1k2zzwks2bvmgee1uimcy8lhp,sCmjgsBT,2020-0188,2020-11-14,22:05:31,22:21:54,NA,incomplete,199,shape,0,right,Purple_Plus_Stripes_1.jpg,Blue_Star_Chess_1.jpg,Red_Plus_Dots_2.jpg,right,762.4099999957252,true,high,false
sCmjgsBT,3fhtjgyt9qduw7xo30k18rjdqjggpm,34s6n1k2zzwks2bvmgee1uimcy8lhp,sCmjgsBT,2020-0188,2020-11-14,22:05:31,22:21:54,NA,incomplete,200,number,1,left,Red_Plus_Dots_3.jpg,Green_Circle_Stripes_3.jpg,Blue_Plus_Grid_2.jpg,right,581.8049999943469,false,high,false
sCmjgsBT,3fhtjgyt9qduw7xo30k18rjdqjggpm,34s6n1k2zzwks2bvmgee1uimcy8lhp,sCmjgsBT,2020-0188,2020-11-14,22:05:31,22:21:54,NA,incomplete,201,number,0,left,Purple_Plus_Stripes_1.jpg,Blue_Circle_Chess_1.jpg,Red_Plus_Grid_2.jpg,left,704.8050000157673,true,high,false
sCmjgsBT,3fhtjgyt9qduw7xo30k18rjdqjggpm,34s6n1k2zzwks2bvmgee1uimcy8lhp,sCmjgsBT,2020-0188,2020-11-14,22:05:31,22:21:54,NA,incomplete,202,number,1,left,Purple_Circle_Stripes_1.jpg,Blue_Triangle_Grid_1.jpg,Green_Circle_Chess_3.jpg,left,631.7400000116322,true,high,false
sCmjgsBT,3fhtjgyt9qduw7xo30k18rjdqjggpm,34s6n1k2zzwks2bvmgee1uimcy8lhp,sCmjgsBT,2020-0188,2020-11-14,22:05:31,22:21:54,NA,incomplete,203,number,1,right,Blue_Star_Grid_2.jpg,Purple_Star_Stripes_3.jpg,Red_Circle_Dots_2.jpg,right,833.0950000090525,true,high,false
sCmjgsBT,3fhtjgyt9qduw7xo30k18rjdqjggpm,34s6n1k2zzwks2bvmgee1uimcy8lhp,sCmjgsBT,2020-0188,2020-11-14,22:05:31,22:21:54,NA,incomplete,204,number,1,right,Green_Star_Chess_1.jpg,Red_Star_Stripes_4.jpg,Blue_Circle_Grid_1.jpg,right,673.4850000066217,true,high,false
sCmjgsBT,3fhtjgyt9qduw7xo30k18rjdqjggpm,34s6n1k2zzwks2bvmgee1uimcy8lhp,sCmjgsBT,2020-0188,2020-11-14,22:05:31,22:21:54,NA,incomplete,205,number,0,left,Blue_Star_Grid_2.jpg,Red_Circle_Stripes_2.jpg,Green_Star_Chess_1.jpg,left,1160.9300000127405,true,high,false
sCmjgsBT,3fhtjgyt9qduw7xo30k18rjdqjggpm,34s6n1k2zzwks2bvmgee1uimcy8lhp,sCmjgsBT,2020-0188,2020-11-14,22:05:31,22:21:54,NA,incomplete,206,number,1,right,Blue_Plus_Chess_3.jpg,Purple_Plus_Stripes_2.jpg,Red_Triangle_Grid_3.jpg,right,1164.2700000084005,true,high,false
sCmjgsBT,3fhtjgyt9qduw7xo30k18rjdqjggpm,34s6n1k2zzwks2bvmgee1uimcy8lhp,sCmjgsBT,2020-0188,2020-11-14,22:05:31,22:21:54,NA,incomplete,207,number,1,left,Blue_Triangle_Dots_2.jpg,Purple_Star_Stripes_2.jpg,Red_Triangle_Grid_3.jpg,left,800.9199999796692,true,high,false
sCmjgsBT,3fhtjgyt9qduw7xo30k18rjdqjggpm,34s6n1k2zzwks2bvmgee1uimcy8lhp,sCmjgsBT,2020-0188,2020-11-14,22:05:31,22:21:54,NA,incomplete,208,number,1,right,Red_Star_Grid_3.jpg,Green_Star_Stripes_4.jpg,Purple_Circle_Chess_3.jpg,right,1290.949999995064,true,high,false
sCmjgsBT,3fhtjgyt9qduw7xo30k18rjdqjggpm,34s6n1k2zzwks2bvmgee1uimcy8lhp,sCmjgsBT,2020-0188,2020-11-14,22:05:31,22:21:54,NA,incomplete,209,number,1,left,Red_Plus_Dots_1.jpg,Green_Triangle_Chess_1.jpg,Blue_Plus_Stripes_3.jpg,left,817.7900000009686,true,high,false
sCmjgsBT,3fhtjgyt9qduw7xo30k18rjdqjggpm,34s6n1k2zzwks2bvmgee1uimcy8lhp,sCmjgsBT,2020-0188,2020-11-14,22:05:31,22:21:54,NA,incomplete,210,number,1,left,Blue_Circle_Grid_1.jpg,Green_Triangle_Dots_1.jpg,Red_Circle_Stripes_3.jpg,left,809.4200000050478,true,high,false
sCmjgsBT,3fhtjgyt9qduw7xo30k18rjdqjggpm,34s6n1k2zzwks2bvmgee1uimcy8lhp,sCmjgsBT,2020-0188,2020-11-14,22:05:31,22:21:54,NA,incomplete,211,number,0,right,Blue_Plus_Dots_2.jpg,Purple_Plus_Chess_1.jpg,Red_Star_Stripes_2.jpg,right,827.4549999914598,true,high,false
sCmjgsBT,3fhtjgyt9qduw7xo30k18rjdqjggpm,34s6n1k2zzwks2bvmgee1uimcy8lhp,sCmjgsBT,2020-0188,2020-11-14,22:05:31,22:21:54,NA,incomplete,212,number,1,left,Purple_Star_Chess_4.jpg,Green_Triangle_Stripes_4.jpg,Red_Star_Dots_3.jpg,left,717.7750000264496,true,high,false
sCmjgsBT,3fhtjgyt9qduw7xo30k18rjdqjggpm,34s6n1k2zzwks2bvmgee1uimcy8lhp,sCmjgsBT,2020-0188,2020-11-14,22:05:31,22:21:54,NA,incomplete,213,number,1,right,Green_Triangle_Grid_3.jpg,Red_Triangle_Chess_1.jpg,Blue_Plus_Dots_3.jpg,right,765.880000020843,true,high,false
sCmjgsBT,3fhtjgyt9qduw7xo30k18rjdqjggpm,34s6n1k2zzwks2bvmgee1uimcy8lhp,sCmjgsBT,2020-0188,2020-11-14,22:05:31,22:21:54,NA,incomplete,214,number,0,right,Red_Triangle_Grid_3.jpg,Blue_Triangle_Dots_2.jpg,Purple_Circle_Chess_3.jpg,right,718.1599999894388,true,high,false
sCmjgsBT,3fhtjgyt9qduw7xo30k18rjdqjggpm,34s6n1k2zzwks2bvmgee1uimcy8lhp,sCmjgsBT,2020-0188,2020-11-14,22:05:31,22:21:54,NA,incomplete,215,number,1,left,Green_Star_Stripes_2.jpg,Red_Circle_Grid_2.jpg,Purple_Star_Dots_3.jpg,right,604.0700000012293,false,high,false
sCmjgsBT,3fhtjgyt9qduw7xo30k18rjdqjggpm,34s6n1k2zzwks2bvmgee1uimcy8lhp,sCmjgsBT,2020-0188,2020-11-14,22:05:31,22:21:54,NA,incomplete,216,number,0,right,Blue_Circle_Stripes_2.jpg,Purple_Circle_Grid_1.jpg,Green_Star_Chess_2.jpg,right,895.3750000218861,true,high,false
sCmjgsBT,3fhtjgyt9qduw7xo30k18rjdqjggpm,34s6n1k2zzwks2bvmgee1uimcy8lhp,sCmjgsBT,2020-0188,2020-11-14,22:05:31,22:21:54,NA,incomplete,217,number,1,left,Blue_Plus_Chess_1.jpg,Red_Triangle_Grid_1.jpg,Purple_Plus_Dots_4.jpg,right,820.6249999930151,false,high,false
sCmjgsBT,3fhtjgyt9qduw7xo30k18rjdqjggpm,34s6n1k2zzwks2bvmgee1uimcy8lhp,sCmjgsBT,2020-0188,2020-11-14,22:05:31,22:21:54,NA,incomplete,218,number,1,left,Red_Circle_Chess_4.jpg,Purple_Star_Grid_4.jpg,Blue_Circle_Dots_2.jpg,left,1206.575000018347,true,high,false
sCmjgsBT,3fhtjgyt9qduw7xo30k18rjdqjggpm,34s6n1k2zzwks2bvmgee1uimcy8lhp,sCmjgsBT,2020-0188,2020-11-14,22:05:31,22:21:54,NA,incomplete,219,number,1,right,Purple_Star_Stripes_1.jpg,Blue_Star_Dots_3.jpg,Red_Circle_Grid_1.jpg,right,671.9750000047497,true,high,false
sCmjgsBT,3fhtjgyt9qduw7xo30k18rjdqjggpm,34s6n1k2zzwks2bvmgee1uimcy8lhp,sCmjgsBT,2020-0188,2020-11-14,22:05:31,22:21:54,NA,incomplete,220,shape,1,left,Purple_Plus_Chess_3.jpg,Green_Plus_Stripes_2.jpg,Blue_Star_Grid_3.jpg,right,982.5799999816809,false,high,false
sCmjgsBT,3fhtjgyt9qduw7xo30k18rjdqjggpm,34s6n1k2zzwks2bvmgee1uimcy8lhp,sCmjgsBT,2020-0188,2020-11-14,22:05:31,22:21:54,NA,incomplete,221,shape,1,left,Blue_Triangle_Grid_4.jpg,Green_Triangle_Chess_3.jpg,Purple_Circle_Stripes_4.jpg,right,913.8150000071619,false,high,false
sCmjgsBT,3fhtjgyt9qduw7xo30k18rjdqjggpm,34s6n1k2zzwks2bvmgee1uimcy8lhp,sCmjgsBT,2020-0188,2020-11-14,22:05:31,22:21:54,NA,incomplete,222,shape,1,right,Green_Star_Grid_1.jpg,Purple_Triangle_Chess_1.jpg,Blue_Star_Stripes_3.jpg,left,774.5100000174716,false,high,false
sCmjgsBT,3fhtjgyt9qduw7xo30k18rjdqjggpm,34s6n1k2zzwks2bvmgee1uimcy8lhp,sCmjgsBT,2020-0188,2020-11-14,22:05:31,22:21:54,NA,incomplete,223,shape,0,right,Blue_Plus_Stripes_4.jpg,Red_Star_Chess_4.jpg,Green_Plus_Dots_2.jpg,left,1029.4149999972433,false,high,false
sCmjgsBT,3fhtjgyt9qduw7xo30k18rjdqjggpm,34s6n1k2zzwks2bvmgee1uimcy8lhp,sCmjgsBT,2020-0188,2020-11-14,22:05:31,22:21:54,NA,incomplete,224,shape,1,left,Green_Circle_Chess_2.jpg,Purple_Circle_Grid_1.jpg,Blue_Star_Dots_2.jpg,right,811.8200000026263,false,high,false
sCmjgsBT,3fhtjgyt9qduw7xo30k18rjdqjggpm,34s6n1k2zzwks2bvmgee1uimcy8lhp,sCmjgsBT,2020-0188,2020-11-14,22:05:31,22:21:54,NA,incomplete,225,shape,1,right,Red_Circle_Stripes_4.jpg,Blue_Plus_Dots_4.jpg,Green_Circle_Grid_1.jpg,right,796.9349999912083,true,high,false
sCmjgsBT,3fhtjgyt9qduw7xo30k18rjdqjggpm,34s6n1k2zzwks2bvmgee1uimcy8lhp,sCmjgsBT,2020-0188,2020-11-14,22:05:31,22:21:54,NA,incomplete,226,shape,1,right,Blue_Circle_Grid_1.jpg,Green_Plus_Stripes_1.jpg,Purple_Circle_Chess_4.jpg,right,833.45500001451,true,high,false
sCmjgsBT,3fhtjgyt9qduw7xo30k18rjdqjggpm,34s6n1k2zzwks2bvmgee1uimcy8lhp,sCmjgsBT,2020-0188,2020-11-14,22:05:31,22:21:54,NA,incomplete,227,shape,0,left,Green_Circle_Chess_1.jpg,Blue_Circle_Stripes_4.jpg,Red_Plus_Grid_1.jpg,left,681.2449999852106,true,high,false
sCmjgsBT,3fhtjgyt9qduw7xo30k18rjdqjggpm,34s6n1k2zzwks2bvmgee1uimcy8lhp,sCmjgsBT,2020-0188,2020-11-14,22:05:31,22:21:54,NA,incomplete,228,shape,1,right,Red_Plus_Grid_2.jpg,Blue_Triangle_Dots_2.jpg,Green_Plus_Stripes_4.jpg,right,1953.1300000089686,true,high,false
sCmjgsBT,3fhtjgyt9qduw7xo30k18rjdqjggpm,34s6n1k2zzwks2bvmgee1uimcy8lhp,sCmjgsBT,2020-0188,2020-11-14,22:05:31,22:21:54,NA,incomplete,229,shape,0,left,Green_Plus_Dots_2.jpg,Blue_Plus_Grid_3.jpg,Purple_Triangle_Stripes_2.jpg,left,682.4550000019372,true,high,false
sCmjgsBT,3fhtjgyt9qduw7xo30k18rjdqjggpm,34s6n1k2zzwks2bvmgee1uimcy8lhp,sCmjgsBT,2020-0188,2020-11-14,22:05:31,22:21:54,NA,incomplete,230,shape,1,left,Red_Plus_Grid_2.jpg,Blue_Plus_Stripes_1.jpg,Purple_Star_Dots_2.jpg,right,873.9500000083353,false,high,false
sCmjgsBT,3fhtjgyt9qduw7xo30k18rjdqjggpm,34s6n1k2zzwks2bvmgee1uimcy8lhp,sCmjgsBT,2020-0188,2020-11-14,22:05:31,22:21:54,NA,incomplete,231,shape,1,right,Purple_Triangle_Chess_3.jpg,Blue_Plus_Stripes_3.jpg,Red_Triangle_Dots_2.jpg,right,738.6449999758042,true,high,false
sCmjgsBT,3fhtjgyt9qduw7xo30k18rjdqjggpm,34s6n1k2zzwks2bvmgee1uimcy8lhp,sCmjgsBT,2020-0188,2020-11-14,22:05:31,22:21:54,NA,incomplete,232,shape,1,right,Purple_Triangle_Grid_2.jpg,Blue_Circle_Stripes_2.jpg,Red_Triangle_Dots_3.jpg,right,630.2950000099372,true,high,false
sCmjgsBT,3fhtjgyt9qduw7xo30k18rjdqjggpm,34s6n1k2zzwks2bvmgee1uimcy8lhp,sCmjgsBT,2020-0188,2020-11-14,22:05:31,22:21:54,NA,incomplete,233,shape,1,right,Purple_Plus_Chess_3.jpg,Red_Star_Dots_3.jpg,Blue_Plus_Stripes_1.jpg,right,665.6099999963772,true,high,false
sCmjgsBT,3fhtjgyt9qduw7xo30k18rjdqjggpm,34s6n1k2zzwks2bvmgee1uimcy8lhp,sCmjgsBT,2020-0188,2020-11-14,22:05:31,22:21:54,NA,incomplete,234,shape,0,right,Red_Star_Stripes_4.jpg,Green_Circle_Grid_4.jpg,Blue_Star_Chess_1.jpg,right,1063.5849999962375,true,high,false
sCmjgsBT,3fhtjgyt9qduw7xo30k18rjdqjggpm,34s6n1k2zzwks2bvmgee1uimcy8lhp,sCmjgsBT,2020-0188,2020-11-14,22:05:31,22:21:54,NA,incomplete,235,shape,1,right,Blue_Star_Dots_4.jpg,Green_Triangle_Grid_4.jpg,Purple_Star_Chess_3.jpg,right,598.2199999853037,true,high,false
sCmjgsBT,3fhtjgyt9qduw7xo30k18rjdqjggpm,34s6n1k2zzwks2bvmgee1uimcy8lhp,sCmjgsBT,2020-0188,2020-11-14,22:05:31,22:21:54,NA,incomplete,236,shape,1,left,Purple_Triangle_Chess_3.jpg,Blue_Triangle_Stripes_4.jpg,Green_Star_Grid_3.jpg,left,778.5549999971408,true,high,false
sCmjgsBT,3fhtjgyt9qduw7xo30k18rjdqjggpm,34s6n1k2zzwks2bvmgee1uimcy8lhp,sCmjgsBT,2020-0188,2020-11-14,22:05:31,22:21:54,NA,incomplete,237,shape,0,left,Purple_Circle_Chess_3.jpg,Green_Circle_Grid_1.jpg,Blue_Triangle_Stripes_3.jpg,left,772.5400000053924,true,high,false
sCmjgsBT,3fhtjgyt9qduw7xo30k18rjdqjggpm,34s6n1k2zzwks2bvmgee1uimcy8lhp,sCmjgsBT,2020-0188,2020-11-14,22:05:31,22:21:54,NA,incomplete,238,shape,1,left,Red_Plus_Dots_4.jpg,Purple_Plus_Stripes_3.jpg,Green_Triangle_Chess_4.jpg,left,656.2950000225101,true,high,false
sCmjgsBT,3fhtjgyt9qduw7xo30k18rjdqjggpm,34s6n1k2zzwks2bvmgee1uimcy8lhp,sCmjgsBT,2020-0188,2020-11-14,22:05:31,22:21:54,NA,incomplete,239,shape,1,right,Purple_Circle_Stripes_3.jpg,Green_Plus_Dots_3.jpg,Blue_Circle_Grid_4.jpg,right,752.5599999935366,true,high,false
sCmjgsBT,3fhtjgyt9qduw7xo30k18rjdqjggpm,34s6n1k2zzwks2bvmgee1uimcy8lhp,sCmjgsBT,2020-0188,2020-11-14,22:05:31,22:21:54,913121.3050000079,983215.4149999842,NA,NA,NA,NA,NA,NA,NA,NA,NA,NA,NA,undefined
