workerId,hitId,assignmentId,subject,studyid,exp_date,exp_start,exp_end,time_start,time_end,trial,type,reward_validity,answer,image_top,image_left,image_right,response,response_time,response_acc,volatility,age,race,gender,ethnicity,color,vision,neuro,practice
iHGXDkWP,385mdvingfsu7ikqnsjzxyjp4abjww,3634bbtx0s7yo5cj6nt16tegfh3ife,iHGXDkWP,2020-0188,2020-05-08,10:48:58,11:02:48,NA,incomplete,0,color,1,left,Blue_Star_Dots_2.jpg,Blue_Triangle_Stripes_1.jpg,Purple_Plus_Dots_4.jpg,none,0,false,NA,NA,NA,NA,NA,NA,NA,NA,true
iHGXDkWP,385mdvingfsu7ikqnsjzxyjp4abjww,3634bbtx0s7yo5cj6nt16tegfh3ife,iHGXDkWP,2020-0188,2020-05-08,10:48:58,11:02:48,NA,incomplete,1,color,1,right,Purple_Triangle_Grid_3.jpg,Blue_Star_Grid_2.jpg,Purple_Circle_Chess_1.jpg,right,710.4450000915676,true,NA,NA,NA,NA,NA,NA,NA,NA,true
iHGXDkWP,385mdvingfsu7ikqnsjzxyjp4abjww,3634bbtx0s7yo5cj6nt16tegfh3ife,iHGXDkWP,2020-0188,2020-05-08,10:48:58,11:02:48,NA,incomplete,2,color,1,left,Purple_Triangle_Stripes_3.jpg,Purple_Star_Dots_4.jpg,Red_Circle_Stripes_1.jpg,left,463.31000002101064,true,NA,NA,NA,NA,NA,NA,NA,NA,true
iHGXDkWP,385mdvingfsu7ikqnsjzxyjp4abjww,3634bbtx0s7yo5cj6nt16tegfh3ife,iHGXDkWP,2020-0188,2020-05-08,10:48:58,11:02:48,NA,incomplete,3,color,1,left,Purple_Triangle_Stripes_4.jpg,Purple_Plus_Dots_3.jpg,Green_Star_Stripes_2.jpg,left,438.6149998754263,true,NA,NA,NA,NA,NA,NA,NA,NA,true
iHGXDkWP,385mdvingfsu7ikqnsjzxyjp4abjww,3634bbtx0s7yo5cj6nt16tegfh3ife,iHGXDkWP,2020-0188,2020-05-08,10:48:58,11:02:48,NA,incomplete,4,color,1,left,Green_Plus_Grid_3.jpg,Green_Star_Dots_1.jpg,Red_Circle_Grid_2.jpg,left,442.3849999438971,true,NA,NA,NA,NA,NA,NA,NA,NA,true
iHGXDkWP,385mdvingfsu7ikqnsjzxyjp4abjww,3634bbtx0s7yo5cj6nt16tegfh3ife,iHGXDkWP,2020-0188,2020-05-08,10:48:58,11:02:48,NA,incomplete,5,color,1,left,Green_Plus_Dots_1.jpg,Green_Star_Chess_4.jpg,Red_Triangle_Dots_2.jpg,left,367.9499998688698,true,NA,NA,NA,NA,NA,NA,NA,NA,true
iHGXDkWP,385mdvingfsu7ikqnsjzxyjp4abjww,3634bbtx0s7yo5cj6nt16tegfh3ife,iHGXDkWP,2020-0188,2020-05-08,10:48:58,11:02:48,NA,incomplete,6,color,1,right,Purple_Circle_Dots_3.jpg,Red_Star_Dots_1.jpg,Purple_Plus_Chess_2.jpg,right,387.4949999153614,true,NA,NA,NA,NA,NA,NA,NA,NA,true
iHGXDkWP,385mdvingfsu7ikqnsjzxyjp4abjww,3634bbtx0s7yo5cj6nt16tegfh3ife,iHGXDkWP,2020-0188,2020-05-08,10:48:58,11:02:48,NA,incomplete,7,color,1,right,Blue_Plus_Dots_3.jpg,Red_Triangle_Dots_1.jpg,Blue_Circle_Chess_4.jpg,right,400.21500014699996,true,NA,NA,NA,NA,NA,NA,NA,NA,true
iHGXDkWP,385mdvingfsu7ikqnsjzxyjp4abjww,3634bbtx0s7yo5cj6nt16tegfh3ife,iHGXDkWP,2020-0188,2020-05-08,10:48:58,11:02:48,NA,incomplete,8,color,1,left,Purple_Plus_Chess_3.jpg,Purple_Star_Grid_1.jpg,Red_Triangle_Chess_2.jpg,left,429.20500016771257,true,NA,NA,NA,NA,NA,NA,NA,NA,true
iHGXDkWP,385mdvingfsu7ikqnsjzxyjp4abjww,3634bbtx0s7yo5cj6nt16tegfh3ife,iHGXDkWP,2020-0188,2020-05-08,10:48:58,11:02:48,NA,incomplete,9,color,1,right,Blue_Circle_Grid_2.jpg,Purple_Triangle_Grid_1.jpg,Blue_Star_Chess_4.jpg,right,406.17000008933246,true,NA,NA,NA,NA,NA,NA,NA,NA,true
iHGXDkWP,385mdvingfsu7ikqnsjzxyjp4abjww,3634bbtx0s7yo5cj6nt16tegfh3ife,iHGXDkWP,2020-0188,2020-05-08,10:48:58,11:02:48,NA,incomplete,10,color,0,right,Green_Circle_Stripes_2.jpg,Purple_Plus_Stripes_4.jpg,Green_Triangle_Chess_1.jpg,right,451.88000006601214,true,NA,NA,NA,NA,NA,NA,NA,NA,true
iHGXDkWP,385mdvingfsu7ikqnsjzxyjp4abjww,3634bbtx0s7yo5cj6nt16tegfh3ife,iHGXDkWP,2020-0188,2020-05-08,10:48:58,11:02:48,NA,incomplete,11,color,1,left,Green_Plus_Chess_3.jpg,Green_Triangle_Stripes_2.jpg,Red_Star_Chess_1.jpg,left,561.5149999503046,true,NA,NA,NA,NA,NA,NA,NA,NA,true
iHGXDkWP,385mdvingfsu7ikqnsjzxyjp4abjww,3634bbtx0s7yo5cj6nt16tegfh3ife,iHGXDkWP,2020-0188,2020-05-08,10:48:58,11:02:48,NA,incomplete,12,color,0,right,Green_Circle_Chess_1.jpg,Purple_Triangle_Chess_4.jpg,Green_Plus_Grid_2.jpg,right,378.8499999791384,true,NA,NA,NA,NA,NA,NA,NA,NA,true
iHGXDkWP,385mdvingfsu7ikqnsjzxyjp4abjww,3634bbtx0s7yo5cj6nt16tegfh3ife,iHGXDkWP,2020-0188,2020-05-08,10:48:58,11:02:48,NA,incomplete,13,color,1,right,Blue_Triangle_Chess_3.jpg,Green_Plus_Chess_4.jpg,Blue_Star_Dots_2.jpg,right,569.0900001209229,true,NA,NA,NA,NA,NA,NA,NA,NA,true
iHGXDkWP,385mdvingfsu7ikqnsjzxyjp4abjww,3634bbtx0s7yo5cj6nt16tegfh3ife,iHGXDkWP,2020-0188,2020-05-08,10:48:58,11:02:48,NA,incomplete,14,color,0,right,Red_Plus_Dots_4.jpg,Purple_Star_Dots_1.jpg,Red_Circle_Stripes_3.jpg,right,470.7199998665601,true,NA,NA,NA,NA,NA,NA,NA,NA,true
iHGXDkWP,385mdvingfsu7ikqnsjzxyjp4abjww,3634bbtx0s7yo5cj6nt16tegfh3ife,iHGXDkWP,2020-0188,2020-05-08,10:48:58,11:02:48,NA,incomplete,15,color,0,right,Purple_Plus_Dots_1.jpg,Green_Circle_Dots_4.jpg,Purple_Triangle_Grid_3.jpg,right,377.68000015057623,true,NA,NA,NA,NA,NA,NA,NA,NA,true
iHGXDkWP,385mdvingfsu7ikqnsjzxyjp4abjww,3634bbtx0s7yo5cj6nt16tegfh3ife,iHGXDkWP,2020-0188,2020-05-08,10:48:58,11:02:48,NA,incomplete,16,color,1,right,Purple_Plus_Dots_2.jpg,Green_Triangle_Dots_1.jpg,Purple_Star_Chess_4.jpg,right,413.33500016480684,true,NA,NA,NA,NA,NA,NA,NA,NA,true
iHGXDkWP,385mdvingfsu7ikqnsjzxyjp4abjww,3634bbtx0s7yo5cj6nt16tegfh3ife,iHGXDkWP,2020-0188,2020-05-08,10:48:58,11:02:48,NA,incomplete,17,color,0,left,Blue_Circle_Stripes_1.jpg,Blue_Plus_Grid_4.jpg,Green_Star_Stripes_2.jpg,left,393.9900000113994,true,NA,NA,NA,NA,NA,NA,NA,NA,true
iHGXDkWP,385mdvingfsu7ikqnsjzxyjp4abjww,3634bbtx0s7yo5cj6nt16tegfh3ife,iHGXDkWP,2020-0188,2020-05-08,10:48:58,11:02:48,NA,incomplete,18,color,1,left,Purple_Circle_Stripes_1.jpg,Purple_Plus_Chess_3.jpg,Blue_Triangle_Stripes_2.jpg,right,398.0250000022352,false,NA,NA,NA,NA,NA,NA,NA,NA,true
iHGXDkWP,385mdvingfsu7ikqnsjzxyjp4abjww,3634bbtx0s7yo5cj6nt16tegfh3ife,iHGXDkWP,2020-0188,2020-05-08,10:48:58,11:02:48,NA,incomplete,19,color,0,right,Red_Triangle_Grid_3.jpg,Green_Circle_Grid_4.jpg,Red_Star_Stripes_2.jpg,right,508.0950001720339,true,NA,NA,NA,NA,NA,NA,NA,NA,true
iHGXDkWP,385mdvingfsu7ikqnsjzxyjp4abjww,3634bbtx0s7yo5cj6nt16tegfh3ife,iHGXDkWP,2020-0188,2020-05-08,10:48:58,11:02:48,NA,incomplete,20,filling,1,right,Red_Triangle_Stripes_2.jpg,Red_Plus_Chess_3.jpg,Green_Circle_Stripes_4.jpg,left,410.67499993368983,false,NA,NA,NA,NA,NA,NA,NA,NA,true
iHGXDkWP,385mdvingfsu7ikqnsjzxyjp4abjww,3634bbtx0s7yo5cj6nt16tegfh3ife,iHGXDkWP,2020-0188,2020-05-08,10:48:58,11:02:48,NA,incomplete,21,filling,1,right,Purple_Circle_Chess_2.jpg,Purple_Star_Stripes_3.jpg,Red_Triangle_Chess_1.jpg,none,0,false,NA,NA,NA,NA,NA,NA,NA,NA,true
iHGXDkWP,385mdvingfsu7ikqnsjzxyjp4abjww,3634bbtx0s7yo5cj6nt16tegfh3ife,iHGXDkWP,2020-0188,2020-05-08,10:48:58,11:02:48,NA,incomplete,22,filling,1,left,Blue_Plus_Stripes_2.jpg,Green_Circle_Stripes_3.jpg,Blue_Star_Dots_4.jpg,left,1015.8999999985099,true,NA,NA,NA,NA,NA,NA,NA,NA,true
iHGXDkWP,385mdvingfsu7ikqnsjzxyjp4abjww,3634bbtx0s7yo5cj6nt16tegfh3ife,iHGXDkWP,2020-0188,2020-05-08,10:48:58,11:02:48,NA,incomplete,23,filling,1,right,Blue_Star_Chess_1.jpg,Blue_Plus_Grid_3.jpg,Purple_Triangle_Chess_2.jpg,right,803.7049998529255,true,NA,NA,NA,NA,NA,NA,NA,NA,true
iHGXDkWP,385mdvingfsu7ikqnsjzxyjp4abjww,3634bbtx0s7yo5cj6nt16tegfh3ife,iHGXDkWP,2020-0188,2020-05-08,10:48:58,11:02:48,NA,incomplete,24,filling,1,right,Blue_Plus_Chess_3.jpg,Blue_Circle_Grid_2.jpg,Purple_Star_Chess_1.jpg,right,912.7200001385063,true,NA,NA,NA,NA,NA,NA,NA,NA,true
iHGXDkWP,385mdvingfsu7ikqnsjzxyjp4abjww,3634bbtx0s7yo5cj6nt16tegfh3ife,iHGXDkWP,2020-0188,2020-05-08,10:48:58,11:02:48,NA,incomplete,25,filling,1,left,Red_Triangle_Chess_2.jpg,Green_Plus_Chess_4.jpg,Red_Circle_Stripes_1.jpg,left,840.349999954924,true,NA,NA,NA,NA,NA,NA,NA,NA,true
iHGXDkWP,385mdvingfsu7ikqnsjzxyjp4abjww,3634bbtx0s7yo5cj6nt16tegfh3ife,iHGXDkWP,2020-0188,2020-05-08,10:48:58,11:02:48,NA,incomplete,26,filling,1,left,Purple_Star_Grid_1.jpg,Green_Plus_Grid_3.jpg,Purple_Triangle_Stripes_2.jpg,left,1046.6499999165535,true,NA,NA,NA,NA,NA,NA,NA,NA,true
iHGXDkWP,385mdvingfsu7ikqnsjzxyjp4abjww,3634bbtx0s7yo5cj6nt16tegfh3ife,iHGXDkWP,2020-0188,2020-05-08,10:48:58,11:02:48,NA,incomplete,27,filling,1,left,Blue_Plus_Chess_3.jpg,Purple_Triangle_Chess_2.jpg,Blue_Circle_Stripes_4.jpg,left,821.4100000914186,true,NA,NA,NA,NA,NA,NA,NA,NA,true
iHGXDkWP,385mdvingfsu7ikqnsjzxyjp4abjww,3634bbtx0s7yo5cj6nt16tegfh3ife,iHGXDkWP,2020-0188,2020-05-08,10:48:58,11:02:48,NA,incomplete,28,filling,1,left,Green_Star_Chess_2.jpg,Blue_Plus_Chess_4.jpg,Green_Triangle_Grid_3.jpg,left,960.8249999582767,true,NA,NA,NA,NA,NA,NA,NA,NA,true
iHGXDkWP,385mdvingfsu7ikqnsjzxyjp4abjww,3634bbtx0s7yo5cj6nt16tegfh3ife,iHGXDkWP,2020-0188,2020-05-08,10:48:58,11:02:48,NA,incomplete,29,filling,1,left,Red_Plus_Stripes_3.jpg,Green_Star_Stripes_2.jpg,Red_Triangle_Dots_1.jpg,left,911.725000012666,true,NA,NA,NA,NA,NA,NA,NA,NA,true
iHGXDkWP,385mdvingfsu7ikqnsjzxyjp4abjww,3634bbtx0s7yo5cj6nt16tegfh3ife,iHGXDkWP,2020-0188,2020-05-08,10:48:58,11:02:48,NA,incomplete,30,filling,0,left,Red_Circle_Grid_1.jpg,Blue_Triangle_Grid_4.jpg,Red_Star_Dots_2.jpg,left,941.9599999673665,true,NA,NA,NA,NA,NA,NA,NA,NA,true
iHGXDkWP,385mdvingfsu7ikqnsjzxyjp4abjww,3634bbtx0s7yo5cj6nt16tegfh3ife,iHGXDkWP,2020-0188,2020-05-08,10:48:58,11:02:48,NA,incomplete,31,filling,1,left,Red_Plus_Chess_3.jpg,Purple_Triangle_Chess_2.jpg,Red_Star_Grid_4.jpg,left,973.8800001796335,true,NA,NA,NA,NA,NA,NA,NA,NA,true
iHGXDkWP,385mdvingfsu7ikqnsjzxyjp4abjww,3634bbtx0s7yo5cj6nt16tegfh3ife,iHGXDkWP,2020-0188,2020-05-08,10:48:58,11:02:48,NA,incomplete,32,filling,1,left,Blue_Plus_Chess_2.jpg,Purple_Star_Chess_4.jpg,Blue_Triangle_Grid_1.jpg,left,985.9949999954551,true,NA,NA,NA,NA,NA,NA,NA,NA,true
iHGXDkWP,385mdvingfsu7ikqnsjzxyjp4abjww,3634bbtx0s7yo5cj6nt16tegfh3ife,iHGXDkWP,2020-0188,2020-05-08,10:48:58,11:02:48,NA,incomplete,33,filling,0,left,Green_Plus_Stripes_1.jpg,Purple_Circle_Stripes_4.jpg,Green_Star_Dots_3.jpg,left,1247.010000050068,true,NA,NA,NA,NA,NA,NA,NA,NA,true
iHGXDkWP,385mdvingfsu7ikqnsjzxyjp4abjww,3634bbtx0s7yo5cj6nt16tegfh3ife,iHGXDkWP,2020-0188,2020-05-08,10:48:58,11:02:48,NA,incomplete,34,filling,1,right,Green_Circle_Chess_3.jpg,Green_Triangle_Dots_1.jpg,Blue_Star_Chess_4.jpg,right,769.2950000055134,true,NA,NA,NA,NA,NA,NA,NA,NA,true
iHGXDkWP,385mdvingfsu7ikqnsjzxyjp4abjww,3634bbtx0s7yo5cj6nt16tegfh3ife,iHGXDkWP,2020-0188,2020-05-08,10:48:58,11:02:48,NA,incomplete,35,filling,1,left,Green_Plus_Chess_4.jpg,Red_Triangle_Chess_2.jpg,Green_Circle_Stripes_1.jpg,left,822.6949998643249,true,NA,NA,NA,NA,NA,NA,NA,NA,true
iHGXDkWP,385mdvingfsu7ikqnsjzxyjp4abjww,3634bbtx0s7yo5cj6nt16tegfh3ife,iHGXDkWP,2020-0188,2020-05-08,10:48:58,11:02:48,NA,incomplete,36,filling,1,left,Purple_Star_Dots_4.jpg,Red_Plus_Dots_3.jpg,Purple_Triangle_Stripes_2.jpg,left,875.0199999194592,true,NA,NA,NA,NA,NA,NA,NA,NA,true
iHGXDkWP,385mdvingfsu7ikqnsjzxyjp4abjww,3634bbtx0s7yo5cj6nt16tegfh3ife,iHGXDkWP,2020-0188,2020-05-08,10:48:58,11:02:48,NA,incomplete,37,filling,1,left,Blue_Circle_Chess_2.jpg,Red_Triangle_Chess_1.jpg,Blue_Star_Dots_4.jpg,left,875.2599998842925,true,NA,NA,NA,NA,NA,NA,NA,NA,true
iHGXDkWP,385mdvingfsu7ikqnsjzxyjp4abjww,3634bbtx0s7yo5cj6nt16tegfh3ife,iHGXDkWP,2020-0188,2020-05-08,10:48:58,11:02:48,NA,incomplete,38,filling,1,right,Purple_Circle_Stripes_4.jpg,Purple_Triangle_Dots_1.jpg,Blue_Star_Stripes_3.jpg,right,740.8000000286847,true,NA,NA,NA,NA,NA,NA,NA,NA,true
iHGXDkWP,385mdvingfsu7ikqnsjzxyjp4abjww,3634bbtx0s7yo5cj6nt16tegfh3ife,iHGXDkWP,2020-0188,2020-05-08,10:48:58,11:02:48,NA,incomplete,39,filling,1,left,Blue_Triangle_Chess_2.jpg,Red_Circle_Chess_3.jpg,Blue_Plus_Grid_4.jpg,left,963.7750000692904,true,NA,NA,NA,NA,NA,NA,NA,NA,true
iHGXDkWP,385mdvingfsu7ikqnsjzxyjp4abjww,3634bbtx0s7yo5cj6nt16tegfh3ife,iHGXDkWP,2020-0188,2020-05-08,10:48:58,11:02:48,NA,incomplete,0,color,1,right,Red_Star_Chess_4.jpg,Purple_Circle_Chess_3.jpg,Red_Plus_Stripes_1.jpg,right,980.2300001028925,true,high,NA,NA,NA,NA,NA,NA,NA,false
iHGXDkWP,385mdvingfsu7ikqnsjzxyjp4abjww,3634bbtx0s7yo5cj6nt16tegfh3ife,iHGXDkWP,2020-0188,2020-05-08,10:48:58,11:02:48,NA,incomplete,1,color,1,left,Blue_Circle_Dots_4.jpg,Blue_Star_Stripes_1.jpg,Purple_Plus_Dots_2.jpg,left,617.3600000329316,true,high,NA,NA,NA,NA,NA,NA,NA,false
iHGXDkWP,385mdvingfsu7ikqnsjzxyjp4abjww,3634bbtx0s7yo5cj6nt16tegfh3ife,iHGXDkWP,2020-0188,2020-05-08,10:48:58,11:02:48,NA,incomplete,2,color,0,right,Blue_Circle_Grid_2.jpg,Red_Triangle_Grid_3.jpg,Blue_Plus_Chess_1.jpg,right,444.78000001981854,true,high,NA,NA,NA,NA,NA,NA,NA,false
iHGXDkWP,385mdvingfsu7ikqnsjzxyjp4abjww,3634bbtx0s7yo5cj6nt16tegfh3ife,iHGXDkWP,2020-0188,2020-05-08,10:48:58,11:02:48,NA,incomplete,3,color,1,left,Red_Triangle_Grid_4.jpg,Red_Circle_Dots_2.jpg,Blue_Star_Grid_3.jpg,left,583.3449999336153,true,high,NA,NA,NA,NA,NA,NA,NA,false
iHGXDkWP,385mdvingfsu7ikqnsjzxyjp4abjww,3634bbtx0s7yo5cj6nt16tegfh3ife,iHGXDkWP,2020-0188,2020-05-08,10:48:58,11:02:48,NA,incomplete,4,color,1,left,Red_Star_Stripes_1.jpg,Red_Triangle_Dots_4.jpg,Green_Plus_Stripes_2.jpg,left,541.5950000751764,true,high,NA,NA,NA,NA,NA,NA,NA,false
iHGXDkWP,385mdvingfsu7ikqnsjzxyjp4abjww,3634bbtx0s7yo5cj6nt16tegfh3ife,iHGXDkWP,2020-0188,2020-05-08,10:48:58,11:02:48,NA,incomplete,5,color,1,left,Purple_Plus_Dots_2.jpg,Purple_Circle_Chess_3.jpg,Green_Star_Dots_1.jpg,left,460.42999997735023,true,high,NA,NA,NA,NA,NA,NA,NA,false
iHGXDkWP,385mdvingfsu7ikqnsjzxyjp4abjww,3634bbtx0s7yo5cj6nt16tegfh3ife,iHGXDkWP,2020-0188,2020-05-08,10:48:58,11:02:48,NA,incomplete,6,color,1,left,Blue_Plus_Chess_2.jpg,Blue_Triangle_Dots_3.jpg,Red_Star_Chess_1.jpg,left,456.9349999073893,true,high,NA,NA,NA,NA,NA,NA,NA,false
iHGXDkWP,385mdvingfsu7ikqnsjzxyjp4abjww,3634bbtx0s7yo5cj6nt16tegfh3ife,iHGXDkWP,2020-0188,2020-05-08,10:48:58,11:02:48,NA,incomplete,7,color,1,left,Blue_Circle_Stripes_2.jpg,Blue_Triangle_Grid_1.jpg,Green_Plus_Stripes_3.jpg,left,457.47500006109476,true,high,NA,NA,NA,NA,NA,NA,NA,false
iHGXDkWP,385mdvingfsu7ikqnsjzxyjp4abjww,3634bbtx0s7yo5cj6nt16tegfh3ife,iHGXDkWP,2020-0188,2020-05-08,10:48:58,11:02:48,NA,incomplete,8,color,1,right,Red_Circle_Dots_1.jpg,Blue_Triangle_Dots_4.jpg,Red_Plus_Grid_3.jpg,right,593.4849998448044,true,high,NA,NA,NA,NA,NA,NA,NA,false
iHGXDkWP,385mdvingfsu7ikqnsjzxyjp4abjww,3634bbtx0s7yo5cj6nt16tegfh3ife,iHGXDkWP,2020-0188,2020-05-08,10:48:58,11:02:48,NA,incomplete,9,color,1,right,Red_Plus_Dots_3.jpg,Purple_Circle_Dots_2.jpg,Red_Star_Grid_1.jpg,right,431.9550001528114,true,high,NA,NA,NA,NA,NA,NA,NA,false
iHGXDkWP,385mdvingfsu7ikqnsjzxyjp4abjww,3634bbtx0s7yo5cj6nt16tegfh3ife,iHGXDkWP,2020-0188,2020-05-08,10:48:58,11:02:48,NA,incomplete,10,filling,1,right,Blue_Plus_Dots_2.jpg,Blue_Triangle_Stripes_1.jpg,Red_Star_Dots_4.jpg,left,570.8699999377131,false,high,NA,NA,NA,NA,NA,NA,NA,false
iHGXDkWP,385mdvingfsu7ikqnsjzxyjp4abjww,3634bbtx0s7yo5cj6nt16tegfh3ife,iHGXDkWP,2020-0188,2020-05-08,10:48:58,11:02:48,NA,incomplete,11,filling,1,left,Green_Star_Chess_3.jpg,Blue_Plus_Chess_1.jpg,Green_Triangle_Dots_4.jpg,right,599.2799999658018,false,high,NA,NA,NA,NA,NA,NA,NA,false
iHGXDkWP,385mdvingfsu7ikqnsjzxyjp4abjww,3634bbtx0s7yo5cj6nt16tegfh3ife,iHGXDkWP,2020-0188,2020-05-08,10:48:58,11:02:48,NA,incomplete,12,filling,1,left,Green_Plus_Grid_3.jpg,Purple_Circle_Grid_4.jpg,Green_Triangle_Chess_2.jpg,left,859.6400001551956,true,high,NA,NA,NA,NA,NA,NA,NA,false
iHGXDkWP,385mdvingfsu7ikqnsjzxyjp4abjww,3634bbtx0s7yo5cj6nt16tegfh3ife,iHGXDkWP,2020-0188,2020-05-08,10:48:58,11:02:48,NA,incomplete,13,filling,1,left,Green_Star_Stripes_2.jpg,Purple_Circle_Stripes_3.jpg,Green_Triangle_Dots_4.jpg,left,805.7800000533462,true,high,NA,NA,NA,NA,NA,NA,NA,false
iHGXDkWP,385mdvingfsu7ikqnsjzxyjp4abjww,3634bbtx0s7yo5cj6nt16tegfh3ife,iHGXDkWP,2020-0188,2020-05-08,10:48:58,11:02:48,NA,incomplete,14,filling,1,right,Green_Triangle_Stripes_4.jpg,Green_Circle_Chess_3.jpg,Purple_Star_Stripes_1.jpg,right,731.0699999798089,true,high,NA,NA,NA,NA,NA,NA,NA,false
iHGXDkWP,385mdvingfsu7ikqnsjzxyjp4abjww,3634bbtx0s7yo5cj6nt16tegfh3ife,iHGXDkWP,2020-0188,2020-05-08,10:48:58,11:02:48,NA,incomplete,15,filling,1,left,Blue_Plus_Grid_2.jpg,Red_Circle_Grid_1.jpg,Blue_Triangle_Dots_4.jpg,left,736.6299999412149,true,high,NA,NA,NA,NA,NA,NA,NA,false
iHGXDkWP,385mdvingfsu7ikqnsjzxyjp4abjww,3634bbtx0s7yo5cj6nt16tegfh3ife,iHGXDkWP,2020-0188,2020-05-08,10:48:58,11:02:48,NA,incomplete,16,filling,0,right,Blue_Plus_Chess_2.jpg,Blue_Circle_Dots_4.jpg,Red_Star_Chess_1.jpg,right,810.6299999635667,true,high,NA,NA,NA,NA,NA,NA,NA,false
iHGXDkWP,385mdvingfsu7ikqnsjzxyjp4abjww,3634bbtx0s7yo5cj6nt16tegfh3ife,iHGXDkWP,2020-0188,2020-05-08,10:48:58,11:02:48,NA,incomplete,17,filling,1,left,Purple_Plus_Stripes_4.jpg,Red_Circle_Stripes_3.jpg,Purple_Star_Grid_1.jpg,left,867.4699999392033,true,high,NA,NA,NA,NA,NA,NA,NA,false
iHGXDkWP,385mdvingfsu7ikqnsjzxyjp4abjww,3634bbtx0s7yo5cj6nt16tegfh3ife,iHGXDkWP,2020-0188,2020-05-08,10:48:58,11:02:48,NA,incomplete,18,filling,1,left,Red_Star_Dots_2.jpg,Green_Plus_Dots_4.jpg,Red_Circle_Grid_3.jpg,left,949.9650001525879,true,high,NA,NA,NA,NA,NA,NA,NA,false
iHGXDkWP,385mdvingfsu7ikqnsjzxyjp4abjww,3634bbtx0s7yo5cj6nt16tegfh3ife,iHGXDkWP,2020-0188,2020-05-08,10:48:58,11:02:48,NA,incomplete,19,filling,0,left,Red_Triangle_Grid_4.jpg,Green_Star_Grid_1.jpg,Red_Plus_Stripes_2.jpg,right,702.2649999707937,false,high,NA,NA,NA,NA,NA,NA,NA,false
iHGXDkWP,385mdvingfsu7ikqnsjzxyjp4abjww,3634bbtx0s7yo5cj6nt16tegfh3ife,iHGXDkWP,2020-0188,2020-05-08,10:48:58,11:02:48,NA,incomplete,20,color,0,right,Green_Triangle_Stripes_2.jpg,Blue_Plus_Stripes_3.jpg,Green_Star_Chess_1.jpg,right,515.150000108406,true,high,NA,NA,NA,NA,NA,NA,NA,false
iHGXDkWP,385mdvingfsu7ikqnsjzxyjp4abjww,3634bbtx0s7yo5cj6nt16tegfh3ife,iHGXDkWP,2020-0188,2020-05-08,10:48:58,11:02:48,NA,incomplete,21,color,1,left,Green_Circle_Dots_2.jpg,Green_Plus_Chess_4.jpg,Red_Star_Dots_3.jpg,left,501.32500007748604,true,high,NA,NA,NA,NA,NA,NA,NA,false
iHGXDkWP,385mdvingfsu7ikqnsjzxyjp4abjww,3634bbtx0s7yo5cj6nt16tegfh3ife,iHGXDkWP,2020-0188,2020-05-08,10:48:58,11:02:48,NA,incomplete,22,color,1,left,Green_Circle_Dots_2.jpg,Green_Star_Chess_1.jpg,Red_Triangle_Dots_4.jpg,left,484.41499983891845,true,high,NA,NA,NA,NA,NA,NA,NA,false
iHGXDkWP,385mdvingfsu7ikqnsjzxyjp4abjww,3634bbtx0s7yo5cj6nt16tegfh3ife,iHGXDkWP,2020-0188,2020-05-08,10:48:58,11:02:48,NA,incomplete,23,color,1,left,Blue_Circle_Chess_4.jpg,Blue_Star_Stripes_3.jpg,Purple_Plus_Chess_1.jpg,left,477.7999999932945,true,high,NA,NA,NA,NA,NA,NA,NA,false
iHGXDkWP,385mdvingfsu7ikqnsjzxyjp4abjww,3634bbtx0s7yo5cj6nt16tegfh3ife,iHGXDkWP,2020-0188,2020-05-08,10:48:58,11:02:48,NA,incomplete,24,color,0,left,Blue_Circle_Stripes_2.jpg,Blue_Plus_Grid_4.jpg,Purple_Triangle_Stripes_1.jpg,left,417.08499984815717,true,high,NA,NA,NA,NA,NA,NA,NA,false
iHGXDkWP,385mdvingfsu7ikqnsjzxyjp4abjww,3634bbtx0s7yo5cj6nt16tegfh3ife,iHGXDkWP,2020-0188,2020-05-08,10:48:58,11:02:48,NA,incomplete,25,color,0,right,Blue_Plus_Chess_2.jpg,Green_Triangle_Chess_4.jpg,Blue_Circle_Grid_1.jpg,right,427.86499997600913,true,high,NA,NA,NA,NA,NA,NA,NA,false
iHGXDkWP,385mdvingfsu7ikqnsjzxyjp4abjww,3634bbtx0s7yo5cj6nt16tegfh3ife,iHGXDkWP,2020-0188,2020-05-08,10:48:58,11:02:48,NA,incomplete,26,color,1,right,Blue_Plus_Grid_4.jpg,Green_Star_Grid_3.jpg,Blue_Circle_Chess_1.jpg,right,501.05999992229044,true,high,NA,NA,NA,NA,NA,NA,NA,false
iHGXDkWP,385mdvingfsu7ikqnsjzxyjp4abjww,3634bbtx0s7yo5cj6nt16tegfh3ife,iHGXDkWP,2020-0188,2020-05-08,10:48:58,11:02:48,NA,incomplete,27,color,1,left,Purple_Circle_Grid_4.jpg,Purple_Star_Chess_3.jpg,Green_Triangle_Grid_2.jpg,right,1136.5549999754876,false,high,NA,NA,NA,NA,NA,NA,NA,false
iHGXDkWP,385mdvingfsu7ikqnsjzxyjp4abjww,3634bbtx0s7yo5cj6nt16tegfh3ife,iHGXDkWP,2020-0188,2020-05-08,10:48:58,11:02:48,NA,incomplete,28,color,1,right,Red_Star_Grid_2.jpg,Purple_Circle_Grid_1.jpg,Red_Plus_Stripes_3.jpg,right,540.8799999859184,true,high,NA,NA,NA,NA,NA,NA,NA,false
iHGXDkWP,385mdvingfsu7ikqnsjzxyjp4abjww,3634bbtx0s7yo5cj6nt16tegfh3ife,iHGXDkWP,2020-0188,2020-05-08,10:48:58,11:02:48,NA,incomplete,29,color,1,left,Blue_Triangle_Chess_3.jpg,Blue_Circle_Dots_2.jpg,Red_Star_Chess_1.jpg,left,434.43500017747283,true,high,NA,NA,NA,NA,NA,NA,NA,false
iHGXDkWP,385mdvingfsu7ikqnsjzxyjp4abjww,3634bbtx0s7yo5cj6nt16tegfh3ife,iHGXDkWP,2020-0188,2020-05-08,10:48:58,11:02:48,NA,incomplete,30,filling,1,right,Red_Triangle_Stripes_1.jpg,Red_Circle_Dots_4.jpg,Green_Star_Stripes_3.jpg,left,598.0799999088049,false,high,NA,NA,NA,NA,NA,NA,NA,false
iHGXDkWP,385mdvingfsu7ikqnsjzxyjp4abjww,3634bbtx0s7yo5cj6nt16tegfh3ife,iHGXDkWP,2020-0188,2020-05-08,10:48:58,11:02:48,NA,incomplete,31,filling,1,right,Red_Plus_Stripes_3.jpg,Red_Triangle_Chess_2.jpg,Purple_Star_Stripes_4.jpg,left,370.2150001190603,false,high,NA,NA,NA,NA,NA,NA,NA,false
iHGXDkWP,385mdvingfsu7ikqnsjzxyjp4abjww,3634bbtx0s7yo5cj6nt16tegfh3ife,iHGXDkWP,2020-0188,2020-05-08,10:48:58,11:02:48,NA,incomplete,32,filling,1,left,Red_Circle_Dots_1.jpg,Purple_Plus_Dots_2.jpg,Red_Triangle_Grid_4.jpg,right,494.93000004440546,false,high,NA,NA,NA,NA,NA,NA,NA,false
iHGXDkWP,385mdvingfsu7ikqnsjzxyjp4abjww,3634bbtx0s7yo5cj6nt16tegfh3ife,iHGXDkWP,2020-0188,2020-05-08,10:48:58,11:02:48,NA,incomplete,33,filling,1,right,Green_Triangle_Grid_1.jpg,Green_Star_Chess_2.jpg,Blue_Circle_Grid_3.jpg,right,904.4200000353158,true,high,NA,NA,NA,NA,NA,NA,NA,false
iHGXDkWP,385mdvingfsu7ikqnsjzxyjp4abjww,3634bbtx0s7yo5cj6nt16tegfh3ife,iHGXDkWP,2020-0188,2020-05-08,10:48:58,11:02:48,NA,incomplete,34,filling,1,right,Blue_Star_Chess_4.jpg,Blue_Plus_Grid_2.jpg,Green_Triangle_Chess_3.jpg,right,850.4699999466538,true,high,NA,NA,NA,NA,NA,NA,NA,false
iHGXDkWP,385mdvingfsu7ikqnsjzxyjp4abjww,3634bbtx0s7yo5cj6nt16tegfh3ife,iHGXDkWP,2020-0188,2020-05-08,10:48:58,11:02:48,NA,incomplete,35,filling,1,left,Green_Triangle_Stripes_2.jpg,Blue_Star_Stripes_4.jpg,Green_Plus_Chess_1.jpg,left,674.4900001212955,true,high,NA,NA,NA,NA,NA,NA,NA,false
iHGXDkWP,385mdvingfsu7ikqnsjzxyjp4abjww,3634bbtx0s7yo5cj6nt16tegfh3ife,iHGXDkWP,2020-0188,2020-05-08,10:48:58,11:02:48,NA,incomplete,36,filling,0,right,Blue_Plus_Dots_2.jpg,Blue_Triangle_Grid_3.jpg,Red_Circle_Dots_1.jpg,right,731.1800001189113,true,high,NA,NA,NA,NA,NA,NA,NA,false
iHGXDkWP,385mdvingfsu7ikqnsjzxyjp4abjww,3634bbtx0s7yo5cj6nt16tegfh3ife,iHGXDkWP,2020-0188,2020-05-08,10:48:58,11:02:48,NA,incomplete,37,filling,1,right,Red_Plus_Grid_2.jpg,Red_Circle_Dots_3.jpg,Green_Triangle_Grid_4.jpg,right,746.8650001101196,true,high,NA,NA,NA,NA,NA,NA,NA,false
iHGXDkWP,385mdvingfsu7ikqnsjzxyjp4abjww,3634bbtx0s7yo5cj6nt16tegfh3ife,iHGXDkWP,2020-0188,2020-05-08,10:48:58,11:02:48,NA,incomplete,38,filling,1,right,Green_Circle_Grid_3.jpg,Green_Star_Dots_2.jpg,Blue_Triangle_Grid_1.jpg,right,851.7599999904633,true,high,NA,NA,NA,NA,NA,NA,NA,false
iHGXDkWP,385mdvingfsu7ikqnsjzxyjp4abjww,3634bbtx0s7yo5cj6nt16tegfh3ife,iHGXDkWP,2020-0188,2020-05-08,10:48:58,11:02:48,NA,incomplete,39,filling,1,left,Blue_Triangle_Stripes_1.jpg,Purple_Plus_Stripes_4.jpg,Blue_Circle_Dots_3.jpg,left,676.4599999878556,true,high,NA,NA,NA,NA,NA,NA,NA,false
iHGXDkWP,385mdvingfsu7ikqnsjzxyjp4abjww,3634bbtx0s7yo5cj6nt16tegfh3ife,iHGXDkWP,2020-0188,2020-05-08,10:48:58,11:02:48,NA,incomplete,40,color,1,left,Blue_Circle_Grid_1.jpg,Blue_Triangle_Dots_4.jpg,Purple_Plus_Grid_2.jpg,right,781.8599999882281,false,high,NA,NA,NA,NA,NA,NA,NA,false
iHGXDkWP,385mdvingfsu7ikqnsjzxyjp4abjww,3634bbtx0s7yo5cj6nt16tegfh3ife,iHGXDkWP,2020-0188,2020-05-08,10:48:58,11:02:48,NA,incomplete,41,color,1,left,Red_Star_Dots_3.jpg,Red_Triangle_Grid_4.jpg,Purple_Circle_Dots_1.jpg,right,891.2750000599772,false,high,NA,NA,NA,NA,NA,NA,NA,false
iHGXDkWP,385mdvingfsu7ikqnsjzxyjp4abjww,3634bbtx0s7yo5cj6nt16tegfh3ife,iHGXDkWP,2020-0188,2020-05-08,10:48:58,11:02:48,NA,incomplete,42,color,1,left,Green_Star_Chess_3.jpg,Green_Triangle_Dots_4.jpg,Purple_Plus_Chess_2.jpg,left,450.81999991089106,true,high,NA,NA,NA,NA,NA,NA,NA,false
iHGXDkWP,385mdvingfsu7ikqnsjzxyjp4abjww,3634bbtx0s7yo5cj6nt16tegfh3ife,iHGXDkWP,2020-0188,2020-05-08,10:48:58,11:02:48,NA,incomplete,43,color,0,left,Red_Triangle_Dots_1.jpg,Red_Circle_Stripes_4.jpg,Green_Plus_Dots_2.jpg,left,614.3199999351054,true,high,NA,NA,NA,NA,NA,NA,NA,false
iHGXDkWP,385mdvingfsu7ikqnsjzxyjp4abjww,3634bbtx0s7yo5cj6nt16tegfh3ife,iHGXDkWP,2020-0188,2020-05-08,10:48:58,11:02:48,NA,incomplete,44,color,1,left,Purple_Star_Stripes_2.jpg,Purple_Circle_Grid_4.jpg,Green_Triangle_Stripes_3.jpg,left,506.214999826625,true,high,NA,NA,NA,NA,NA,NA,NA,false
iHGXDkWP,385mdvingfsu7ikqnsjzxyjp4abjww,3634bbtx0s7yo5cj6nt16tegfh3ife,iHGXDkWP,2020-0188,2020-05-08,10:48:58,11:02:48,NA,incomplete,45,color,1,right,Purple_Triangle_Dots_2.jpg,Green_Circle_Dots_3.jpg,Purple_Plus_Grid_4.jpg,right,408.68000010959804,true,high,NA,NA,NA,NA,NA,NA,NA,false
iHGXDkWP,385mdvingfsu7ikqnsjzxyjp4abjww,3634bbtx0s7yo5cj6nt16tegfh3ife,iHGXDkWP,2020-0188,2020-05-08,10:48:58,11:02:48,NA,incomplete,46,color,1,right,Red_Triangle_Stripes_2.jpg,Blue_Plus_Stripes_4.jpg,Red_Star_Grid_3.jpg,right,501.2149999383837,true,high,NA,NA,NA,NA,NA,NA,NA,false
iHGXDkWP,385mdvingfsu7ikqnsjzxyjp4abjww,3634bbtx0s7yo5cj6nt16tegfh3ife,iHGXDkWP,2020-0188,2020-05-08,10:48:58,11:02:48,NA,incomplete,47,color,1,left,Blue_Circle_Chess_1.jpg,Blue_Triangle_Grid_2.jpg,Purple_Plus_Chess_4.jpg,left,428.9349999744445,true,high,NA,NA,NA,NA,NA,NA,NA,false
iHGXDkWP,385mdvingfsu7ikqnsjzxyjp4abjww,3634bbtx0s7yo5cj6nt16tegfh3ife,iHGXDkWP,2020-0188,2020-05-08,10:48:58,11:02:48,NA,incomplete,48,color,1,right,Purple_Circle_Stripes_1.jpg,Blue_Plus_Stripes_3.jpg,Purple_Triangle_Chess_4.jpg,right,474.8299999628216,true,high,NA,NA,NA,NA,NA,NA,NA,false
iHGXDkWP,385mdvingfsu7ikqnsjzxyjp4abjww,3634bbtx0s7yo5cj6nt16tegfh3ife,iHGXDkWP,2020-0188,2020-05-08,10:48:58,11:02:48,NA,incomplete,49,color,1,left,Blue_Plus_Chess_1.jpg,Blue_Triangle_Dots_4.jpg,Red_Star_Chess_3.jpg,left,554.5500000007451,true,high,NA,NA,NA,NA,NA,NA,NA,false
iHGXDkWP,385mdvingfsu7ikqnsjzxyjp4abjww,3634bbtx0s7yo5cj6nt16tegfh3ife,iHGXDkWP,2020-0188,2020-05-08,10:48:58,11:02:48,NA,incomplete,50,filling,1,right,Red_Plus_Dots_1.jpg,Red_Star_Stripes_3.jpg,Blue_Circle_Dots_4.jpg,left,609.6100001595914,false,high,NA,NA,NA,NA,NA,NA,NA,false
iHGXDkWP,385mdvingfsu7ikqnsjzxyjp4abjww,3634bbtx0s7yo5cj6nt16tegfh3ife,iHGXDkWP,2020-0188,2020-05-08,10:48:58,11:02:48,NA,incomplete,51,filling,0,left,Green_Plus_Grid_3.jpg,Blue_Triangle_Grid_2.jpg,Green_Circle_Chess_4.jpg,right,419.6399999782443,false,high,NA,NA,NA,NA,NA,NA,NA,false
iHGXDkWP,385mdvingfsu7ikqnsjzxyjp4abjww,3634bbtx0s7yo5cj6nt16tegfh3ife,iHGXDkWP,2020-0188,2020-05-08,10:48:58,11:02:48,NA,incomplete,52,filling,1,right,Red_Star_Grid_2.jpg,Red_Triangle_Stripes_3.jpg,Purple_Plus_Grid_1.jpg,left,383.4999999962747,false,high,NA,NA,NA,NA,NA,NA,NA,false
iHGXDkWP,385mdvingfsu7ikqnsjzxyjp4abjww,3634bbtx0s7yo5cj6nt16tegfh3ife,iHGXDkWP,2020-0188,2020-05-08,10:48:58,11:02:48,NA,incomplete,53,filling,1,right,Red_Plus_Chess_4.jpg,Red_Star_Dots_3.jpg,Green_Triangle_Chess_1.jpg,left,452.0600000396371,false,high,NA,NA,NA,NA,NA,NA,NA,false
iHGXDkWP,385mdvingfsu7ikqnsjzxyjp4abjww,3634bbtx0s7yo5cj6nt16tegfh3ife,iHGXDkWP,2020-0188,2020-05-08,10:48:58,11:02:48,NA,incomplete,54,filling,1,right,Blue_Triangle_Dots_1.jpg,Blue_Circle_Chess_2.jpg,Green_Plus_Dots_4.jpg,right,743.7549999449402,true,high,NA,NA,NA,NA,NA,NA,NA,false
iHGXDkWP,385mdvingfsu7ikqnsjzxyjp4abjww,3634bbtx0s7yo5cj6nt16tegfh3ife,iHGXDkWP,2020-0188,2020-05-08,10:48:58,11:02:48,NA,incomplete,55,filling,1,left,Purple_Circle_Chess_1.jpg,Red_Plus_Chess_4.jpg,Purple_Triangle_Stripes_3.jpg,left,710.4250001721084,true,high,NA,NA,NA,NA,NA,NA,NA,false
iHGXDkWP,385mdvingfsu7ikqnsjzxyjp4abjww,3634bbtx0s7yo5cj6nt16tegfh3ife,iHGXDkWP,2020-0188,2020-05-08,10:48:58,11:02:48,NA,incomplete,56,filling,1,right,Blue_Circle_Dots_3.jpg,Blue_Triangle_Stripes_1.jpg,Purple_Plus_Dots_4.jpg,right,771.8200001399964,true,high,NA,NA,NA,NA,NA,NA,NA,false
iHGXDkWP,385mdvingfsu7ikqnsjzxyjp4abjww,3634bbtx0s7yo5cj6nt16tegfh3ife,iHGXDkWP,2020-0188,2020-05-08,10:48:58,11:02:48,NA,incomplete,57,filling,1,right,Red_Star_Chess_4.jpg,Red_Plus_Stripes_3.jpg,Purple_Circle_Chess_2.jpg,right,794.3400000222027,true,high,NA,NA,NA,NA,NA,NA,NA,false
iHGXDkWP,385mdvingfsu7ikqnsjzxyjp4abjww,3634bbtx0s7yo5cj6nt16tegfh3ife,iHGXDkWP,2020-0188,2020-05-08,10:48:58,11:02:48,NA,incomplete,58,filling,1,left,Green_Circle_Dots_2.jpg,Red_Triangle_Dots_4.jpg,Green_Plus_Stripes_1.jpg,left,678.5899999085814,true,high,NA,NA,NA,NA,NA,NA,NA,false
iHGXDkWP,385mdvingfsu7ikqnsjzxyjp4abjww,3634bbtx0s7yo5cj6nt16tegfh3ife,iHGXDkWP,2020-0188,2020-05-08,10:48:58,11:02:48,NA,incomplete,59,filling,1,left,Green_Circle_Chess_1.jpg,Purple_Triangle_Chess_3.jpg,Green_Plus_Grid_4.jpg,left,784.8900000099093,true,high,NA,NA,NA,NA,NA,NA,NA,false
iHGXDkWP,385mdvingfsu7ikqnsjzxyjp4abjww,3634bbtx0s7yo5cj6nt16tegfh3ife,iHGXDkWP,2020-0188,2020-05-08,10:48:58,11:02:48,NA,incomplete,60,color,0,left,Purple_Star_Chess_1.jpg,Purple_Triangle_Dots_3.jpg,Blue_Circle_Chess_2.jpg,right,764.5550000015646,false,high,NA,NA,NA,NA,NA,NA,NA,false
iHGXDkWP,385mdvingfsu7ikqnsjzxyjp4abjww,3634bbtx0s7yo5cj6nt16tegfh3ife,iHGXDkWP,2020-0188,2020-05-08,10:48:58,11:02:48,NA,incomplete,61,color,1,right,Red_Triangle_Chess_3.jpg,Green_Plus_Chess_4.jpg,Red_Star_Dots_2.jpg,left,669.5700001437217,false,high,NA,NA,NA,NA,NA,NA,NA,false
iHGXDkWP,385mdvingfsu7ikqnsjzxyjp4abjww,3634bbtx0s7yo5cj6nt16tegfh3ife,iHGXDkWP,2020-0188,2020-05-08,10:48:58,11:02:48,NA,incomplete,62,color,1,left,Green_Triangle_Stripes_2.jpg,Green_Plus_Chess_1.jpg,Blue_Star_Stripes_3.jpg,right,828.2050001434982,false,high,NA,NA,NA,NA,NA,NA,NA,false
iHGXDkWP,385mdvingfsu7ikqnsjzxyjp4abjww,3634bbtx0s7yo5cj6nt16tegfh3ife,iHGXDkWP,2020-0188,2020-05-08,10:48:58,11:02:48,NA,incomplete,63,color,1,right,Green_Triangle_Grid_2.jpg,Blue_Plus_Grid_4.jpg,Green_Circle_Chess_1.jpg,right,471.78500005975366,true,high,NA,NA,NA,NA,NA,NA,NA,false
iHGXDkWP,385mdvingfsu7ikqnsjzxyjp4abjww,3634bbtx0s7yo5cj6nt16tegfh3ife,iHGXDkWP,2020-0188,2020-05-08,10:48:58,11:02:48,NA,incomplete,64,color,1,left,Red_Circle_Dots_3.jpg,Red_Star_Chess_4.jpg,Green_Triangle_Dots_1.jpg,left,427.3650001268834,true,high,NA,NA,NA,NA,NA,NA,NA,false
iHGXDkWP,385mdvingfsu7ikqnsjzxyjp4abjww,3634bbtx0s7yo5cj6nt16tegfh3ife,iHGXDkWP,2020-0188,2020-05-08,10:48:58,11:02:48,NA,incomplete,65,color,1,right,Blue_Star_Stripes_1.jpg,Purple_Circle_Stripes_4.jpg,Blue_Plus_Chess_2.jpg,right,437.1450000908226,true,high,NA,NA,NA,NA,NA,NA,NA,false
iHGXDkWP,385mdvingfsu7ikqnsjzxyjp4abjww,3634bbtx0s7yo5cj6nt16tegfh3ife,iHGXDkWP,2020-0188,2020-05-08,10:48:58,11:02:48,NA,incomplete,66,color,1,left,Blue_Circle_Stripes_3.jpg,Blue_Star_Dots_4.jpg,Green_Triangle_Stripes_2.jpg,left,399.47000006213784,true,high,NA,NA,NA,NA,NA,NA,NA,false
iHGXDkWP,385mdvingfsu7ikqnsjzxyjp4abjww,3634bbtx0s7yo5cj6nt16tegfh3ife,iHGXDkWP,2020-0188,2020-05-08,10:48:58,11:02:48,NA,incomplete,67,color,1,right,Red_Triangle_Chess_1.jpg,Green_Circle_Chess_4.jpg,Red_Plus_Dots_2.jpg,right,427.92499996721745,true,high,NA,NA,NA,NA,NA,NA,NA,false
iHGXDkWP,385mdvingfsu7ikqnsjzxyjp4abjww,3634bbtx0s7yo5cj6nt16tegfh3ife,iHGXDkWP,2020-0188,2020-05-08,10:48:58,11:02:48,NA,incomplete,68,color,1,left,Purple_Plus_Grid_2.jpg,Purple_Star_Stripes_3.jpg,Blue_Circle_Grid_1.jpg,left,441.5149998385459,true,high,NA,NA,NA,NA,NA,NA,NA,false
iHGXDkWP,385mdvingfsu7ikqnsjzxyjp4abjww,3634bbtx0s7yo5cj6nt16tegfh3ife,iHGXDkWP,2020-0188,2020-05-08,10:48:58,11:02:48,NA,incomplete,69,color,0,right,Purple_Circle_Chess_4.jpg,Red_Plus_Chess_1.jpg,Purple_Star_Grid_2.jpg,right,425.4349998664111,true,high,NA,NA,NA,NA,NA,NA,NA,false
iHGXDkWP,385mdvingfsu7ikqnsjzxyjp4abjww,3634bbtx0s7yo5cj6nt16tegfh3ife,iHGXDkWP,2020-0188,2020-05-08,10:48:58,11:02:48,NA,incomplete,70,filling,1,right,Purple_Circle_Chess_1.jpg,Purple_Triangle_Grid_2.jpg,Blue_Star_Chess_4.jpg,left,607.2350000031292,false,high,NA,NA,NA,NA,NA,NA,NA,false
iHGXDkWP,385mdvingfsu7ikqnsjzxyjp4abjww,3634bbtx0s7yo5cj6nt16tegfh3ife,iHGXDkWP,2020-0188,2020-05-08,10:48:58,11:02:48,NA,incomplete,71,filling,0,left,Green_Plus_Stripes_1.jpg,Purple_Star_Stripes_4.jpg,Green_Circle_Grid_2.jpg,left,705.6950000114739,true,high,NA,NA,NA,NA,NA,NA,NA,false
iHGXDkWP,385mdvingfsu7ikqnsjzxyjp4abjww,3634bbtx0s7yo5cj6nt16tegfh3ife,iHGXDkWP,2020-0188,2020-05-08,10:48:58,11:02:48,NA,incomplete,72,filling,1,left,Purple_Star_Chess_4.jpg,Green_Plus_Chess_2.jpg,Purple_Circle_Grid_1.jpg,left,992.7749999333173,true,high,NA,NA,NA,NA,NA,NA,NA,false
iHGXDkWP,385mdvingfsu7ikqnsjzxyjp4abjww,3634bbtx0s7yo5cj6nt16tegfh3ife,iHGXDkWP,2020-0188,2020-05-08,10:48:58,11:02:48,NA,incomplete,73,filling,1,left,Red_Circle_Grid_4.jpg,Green_Triangle_Grid_3.jpg,Red_Plus_Stripes_2.jpg,right,893.3449999894947,false,high,NA,NA,NA,NA,NA,NA,NA,false
iHGXDkWP,385mdvingfsu7ikqnsjzxyjp4abjww,3634bbtx0s7yo5cj6nt16tegfh3ife,iHGXDkWP,2020-0188,2020-05-08,10:48:58,11:02:48,NA,incomplete,74,filling,1,right,Purple_Triangle_Stripes_4.jpg,Purple_Plus_Grid_1.jpg,Blue_Circle_Stripes_3.jpg,right,784.029999980703,true,high,NA,NA,NA,NA,NA,NA,NA,false
iHGXDkWP,385mdvingfsu7ikqnsjzxyjp4abjww,3634bbtx0s7yo5cj6nt16tegfh3ife,iHGXDkWP,2020-0188,2020-05-08,10:48:58,11:02:48,NA,incomplete,75,filling,1,right,Purple_Triangle_Stripes_3.jpg,Purple_Star_Chess_2.jpg,Green_Plus_Stripes_1.jpg,right,830.5600001476705,true,high,NA,NA,NA,NA,NA,NA,NA,false
iHGXDkWP,385mdvingfsu7ikqnsjzxyjp4abjww,3634bbtx0s7yo5cj6nt16tegfh3ife,iHGXDkWP,2020-0188,2020-05-08,10:48:58,11:02:48,NA,incomplete,76,filling,0,left,Purple_Triangle_Stripes_2.jpg,Green_Circle_Stripes_1.jpg,Purple_Star_Dots_3.jpg,left,849.1849999409169,true,high,NA,NA,NA,NA,NA,NA,NA,false
iHGXDkWP,385mdvingfsu7ikqnsjzxyjp4abjww,3634bbtx0s7yo5cj6nt16tegfh3ife,iHGXDkWP,2020-0188,2020-05-08,10:48:58,11:02:48,NA,incomplete,77,filling,1,right,Red_Triangle_Stripes_1.jpg,Red_Circle_Grid_4.jpg,Blue_Plus_Stripes_3.jpg,right,978.0000001192093,true,high,NA,NA,NA,NA,NA,NA,NA,false
iHGXDkWP,385mdvingfsu7ikqnsjzxyjp4abjww,3634bbtx0s7yo5cj6nt16tegfh3ife,iHGXDkWP,2020-0188,2020-05-08,10:48:58,11:02:48,NA,incomplete,78,filling,1,left,Green_Triangle_Chess_2.jpg,Red_Circle_Chess_4.jpg,Green_Plus_Stripes_1.jpg,left,833.9599999599159,true,high,NA,NA,NA,NA,NA,NA,NA,false
iHGXDkWP,385mdvingfsu7ikqnsjzxyjp4abjww,3634bbtx0s7yo5cj6nt16tegfh3ife,iHGXDkWP,2020-0188,2020-05-08,10:48:58,11:02:48,NA,incomplete,79,filling,0,left,Green_Triangle_Dots_4.jpg,Red_Circle_Dots_3.jpg,Green_Plus_Chess_1.jpg,left,874.4949998799711,true,high,NA,NA,NA,NA,NA,NA,NA,false
iHGXDkWP,385mdvingfsu7ikqnsjzxyjp4abjww,3634bbtx0s7yo5cj6nt16tegfh3ife,iHGXDkWP,2020-0188,2020-05-08,10:48:58,11:02:48,NA,incomplete,80,color,0,left,Purple_Triangle_Dots_2.jpg,Purple_Plus_Grid_4.jpg,Red_Star_Dots_1.jpg,right,758.4999999962747,false,high,NA,NA,NA,NA,NA,NA,NA,false
iHGXDkWP,385mdvingfsu7ikqnsjzxyjp4abjww,3634bbtx0s7yo5cj6nt16tegfh3ife,iHGXDkWP,2020-0188,2020-05-08,10:48:58,11:02:48,NA,incomplete,81,color,0,right,Blue_Circle_Dots_1.jpg,Red_Star_Dots_2.jpg,Blue_Triangle_Stripes_4.jpg,left,818.9600000623614,false,high,NA,NA,NA,NA,NA,NA,NA,false
iHGXDkWP,385mdvingfsu7ikqnsjzxyjp4abjww,3634bbtx0s7yo5cj6nt16tegfh3ife,iHGXDkWP,2020-0188,2020-05-08,10:48:58,11:02:48,NA,incomplete,82,color,1,right,Purple_Triangle_Chess_2.jpg,Red_Star_Chess_1.jpg,Purple_Circle_Grid_4.jpg,left,1125.7849999237806,false,high,NA,NA,NA,NA,NA,NA,NA,false
iHGXDkWP,385mdvingfsu7ikqnsjzxyjp4abjww,3634bbtx0s7yo5cj6nt16tegfh3ife,iHGXDkWP,2020-0188,2020-05-08,10:48:58,11:02:48,NA,incomplete,83,color,0,left,Green_Star_Stripes_4.jpg,Green_Circle_Dots_1.jpg,Red_Triangle_Stripes_2.jpg,left,716.9149999972433,true,high,NA,NA,NA,NA,NA,NA,NA,false
iHGXDkWP,385mdvingfsu7ikqnsjzxyjp4abjww,3634bbtx0s7yo5cj6nt16tegfh3ife,iHGXDkWP,2020-0188,2020-05-08,10:48:58,11:02:48,NA,incomplete,84,color,1,right,Red_Triangle_Stripes_1.jpg,Green_Circle_Stripes_4.jpg,Red_Plus_Dots_3.jpg,left,939.0300000086427,false,high,NA,NA,NA,NA,NA,NA,NA,false
iHGXDkWP,385mdvingfsu7ikqnsjzxyjp4abjww,3634bbtx0s7yo5cj6nt16tegfh3ife,iHGXDkWP,2020-0188,2020-05-08,10:48:58,11:02:48,NA,incomplete,85,color,1,right,Purple_Star_Grid_2.jpg,Green_Circle_Grid_3.jpg,Purple_Triangle_Chess_4.jpg,right,547.8750001639128,true,high,NA,NA,NA,NA,NA,NA,NA,false
iHGXDkWP,385mdvingfsu7ikqnsjzxyjp4abjww,3634bbtx0s7yo5cj6nt16tegfh3ife,iHGXDkWP,2020-0188,2020-05-08,10:48:58,11:02:48,NA,incomplete,86,color,0,left,Purple_Triangle_Stripes_1.jpg,Purple_Star_Grid_4.jpg,Green_Circle_Stripes_3.jpg,right,361.5350001491606,false,high,NA,NA,NA,NA,NA,NA,NA,false
iHGXDkWP,385mdvingfsu7ikqnsjzxyjp4abjww,3634bbtx0s7yo5cj6nt16tegfh3ife,iHGXDkWP,2020-0188,2020-05-08,10:48:58,11:02:48,NA,incomplete,87,color,1,left,Green_Triangle_Chess_2.jpg,Green_Star_Dots_3.jpg,Purple_Plus_Chess_1.jpg,left,630.4150000214577,true,high,NA,NA,NA,NA,NA,NA,NA,false
iHGXDkWP,385mdvingfsu7ikqnsjzxyjp4abjww,3634bbtx0s7yo5cj6nt16tegfh3ife,iHGXDkWP,2020-0188,2020-05-08,10:48:58,11:02:48,NA,incomplete,88,color,1,right,Red_Plus_Stripes_4.jpg,Purple_Triangle_Stripes_1.jpg,Red_Circle_Chess_2.jpg,right,434.6799999475479,true,high,NA,NA,NA,NA,NA,NA,NA,false
iHGXDkWP,385mdvingfsu7ikqnsjzxyjp4abjww,3634bbtx0s7yo5cj6nt16tegfh3ife,iHGXDkWP,2020-0188,2020-05-08,10:48:58,11:02:48,NA,incomplete,89,color,1,right,Green_Star_Stripes_3.jpg,Blue_Triangle_Stripes_2.jpg,Green_Circle_Chess_4.jpg,right,500.54500019177794,true,high,NA,NA,NA,NA,NA,NA,NA,false
iHGXDkWP,385mdvingfsu7ikqnsjzxyjp4abjww,3634bbtx0s7yo5cj6nt16tegfh3ife,iHGXDkWP,2020-0188,2020-05-08,10:48:58,11:02:48,NA,incomplete,90,filling,1,left,Red_Plus_Stripes_1.jpg,Purple_Circle_Stripes_3.jpg,Red_Triangle_Dots_4.jpg,right,773.4199999831617,false,high,NA,NA,NA,NA,NA,NA,NA,false
iHGXDkWP,385mdvingfsu7ikqnsjzxyjp4abjww,3634bbtx0s7yo5cj6nt16tegfh3ife,iHGXDkWP,2020-0188,2020-05-08,10:48:58,11:02:48,NA,incomplete,91,filling,1,left,Blue_Circle_Grid_3.jpg,Red_Star_Grid_2.jpg,Blue_Triangle_Stripes_1.jpg,right,426.1649998370558,false,high,NA,NA,NA,NA,NA,NA,NA,false
iHGXDkWP,385mdvingfsu7ikqnsjzxyjp4abjww,3634bbtx0s7yo5cj6nt16tegfh3ife,iHGXDkWP,2020-0188,2020-05-08,10:48:58,11:02:48,NA,incomplete,92,filling,0,left,Red_Star_Grid_1.jpg,Blue_Plus_Grid_2.jpg,Red_Triangle_Dots_3.jpg,left,813.3399998769164,true,high,NA,NA,NA,NA,NA,NA,NA,false
iHGXDkWP,385mdvingfsu7ikqnsjzxyjp4abjww,3634bbtx0s7yo5cj6nt16tegfh3ife,iHGXDkWP,2020-0188,2020-05-08,10:48:58,11:02:48,NA,incomplete,93,filling,1,right,Red_Plus_Stripes_2.jpg,Red_Star_Grid_4.jpg,Blue_Circle_Stripes_3.jpg,right,954.4299999251962,true,high,NA,NA,NA,NA,NA,NA,NA,false
iHGXDkWP,385mdvingfsu7ikqnsjzxyjp4abjww,3634bbtx0s7yo5cj6nt16tegfh3ife,iHGXDkWP,2020-0188,2020-05-08,10:48:58,11:02:48,NA,incomplete,94,filling,1,right,Red_Triangle_Grid_2.jpg,Red_Star_Stripes_1.jpg,Green_Plus_Grid_4.jpg,right,926.9600000698119,true,high,NA,NA,NA,NA,NA,NA,NA,false
iHGXDkWP,385mdvingfsu7ikqnsjzxyjp4abjww,3634bbtx0s7yo5cj6nt16tegfh3ife,iHGXDkWP,2020-0188,2020-05-08,10:48:58,11:02:48,NA,incomplete,95,filling,1,right,Purple_Plus_Grid_4.jpg,Purple_Circle_Stripes_2.jpg,Red_Triangle_Grid_3.jpg,right,975.6750001106411,true,high,NA,NA,NA,NA,NA,NA,NA,false
iHGXDkWP,385mdvingfsu7ikqnsjzxyjp4abjww,3634bbtx0s7yo5cj6nt16tegfh3ife,iHGXDkWP,2020-0188,2020-05-08,10:48:58,11:02:48,NA,incomplete,96,filling,1,left,Blue_Star_Dots_1.jpg,Purple_Triangle_Dots_4.jpg,Blue_Plus_Grid_3.jpg,left,867.799999890849,true,high,NA,NA,NA,NA,NA,NA,NA,false
iHGXDkWP,385mdvingfsu7ikqnsjzxyjp4abjww,3634bbtx0s7yo5cj6nt16tegfh3ife,iHGXDkWP,2020-0188,2020-05-08,10:48:58,11:02:48,NA,incomplete,97,filling,1,left,Green_Triangle_Grid_2.jpg,Red_Plus_Grid_4.jpg,Green_Star_Chess_3.jpg,left,734.1750001069158,true,high,NA,NA,NA,NA,NA,NA,NA,false
iHGXDkWP,385mdvingfsu7ikqnsjzxyjp4abjww,3634bbtx0s7yo5cj6nt16tegfh3ife,iHGXDkWP,2020-0188,2020-05-08,10:48:58,11:02:48,NA,incomplete,98,filling,1,right,Blue_Star_Stripes_2.jpg,Blue_Triangle_Chess_1.jpg,Red_Plus_Stripes_3.jpg,right,709.4350000843406,true,high,NA,NA,NA,NA,NA,NA,NA,false
iHGXDkWP,385mdvingfsu7ikqnsjzxyjp4abjww,3634bbtx0s7yo5cj6nt16tegfh3ife,iHGXDkWP,2020-0188,2020-05-08,10:48:58,11:02:48,NA,incomplete,99,filling,1,right,Purple_Circle_Dots_3.jpg,Purple_Plus_Chess_4.jpg,Blue_Triangle_Dots_2.jpg,right,837.4050001148134,true,high,NA,NA,NA,NA,NA,NA,NA,false
iHGXDkWP,385mdvingfsu7ikqnsjzxyjp4abjww,3634bbtx0s7yo5cj6nt16tegfh3ife,iHGXDkWP,2020-0188,2020-05-08,10:48:58,11:02:48,NA,incomplete,100,color,1,left,Purple_Plus_Dots_4.jpg,Purple_Triangle_Grid_2.jpg,Blue_Circle_Dots_3.jpg,right,983.890000032261,false,high,NA,NA,NA,NA,NA,NA,NA,false
iHGXDkWP,385mdvingfsu7ikqnsjzxyjp4abjww,3634bbtx0s7yo5cj6nt16tegfh3ife,iHGXDkWP,2020-0188,2020-05-08,10:48:58,11:02:48,NA,incomplete,101,color,0,left,Green_Circle_Grid_3.jpg,Green_Plus_Dots_4.jpg,Blue_Triangle_Grid_1.jpg,right,939.4849999807775,false,high,NA,NA,NA,NA,NA,NA,NA,false
iHGXDkWP,385mdvingfsu7ikqnsjzxyjp4abjww,3634bbtx0s7yo5cj6nt16tegfh3ife,iHGXDkWP,2020-0188,2020-05-08,10:48:58,11:02:48,NA,incomplete,102,color,1,right,Red_Star_Grid_2.jpg,Blue_Circle_Grid_3.jpg,Red_Triangle_Dots_1.jpg,left,721.7899998649955,false,high,NA,NA,NA,NA,NA,NA,NA,false
iHGXDkWP,385mdvingfsu7ikqnsjzxyjp4abjww,3634bbtx0s7yo5cj6nt16tegfh3ife,iHGXDkWP,2020-0188,2020-05-08,10:48:58,11:02:48,NA,incomplete,103,color,1,right,Purple_Plus_Chess_2.jpg,Green_Triangle_Chess_1.jpg,Purple_Star_Grid_4.jpg,left,785.304999910295,false,high,NA,NA,NA,NA,NA,NA,NA,false
iHGXDkWP,385mdvingfsu7ikqnsjzxyjp4abjww,3634bbtx0s7yo5cj6nt16tegfh3ife,iHGXDkWP,2020-0188,2020-05-08,10:48:58,11:02:48,NA,incomplete,104,color,1,right,Green_Star_Chess_1.jpg,Red_Circle_Chess_2.jpg,Green_Triangle_Stripes_4.jpg,right,431.14000000059605,true,high,NA,NA,NA,NA,NA,NA,NA,false
iHGXDkWP,385mdvingfsu7ikqnsjzxyjp4abjww,3634bbtx0s7yo5cj6nt16tegfh3ife,iHGXDkWP,2020-0188,2020-05-08,10:48:58,11:02:48,NA,incomplete,105,color,1,left,Blue_Plus_Grid_4.jpg,Blue_Triangle_Dots_1.jpg,Purple_Circle_Grid_2.jpg,left,435.76499982737005,true,high,NA,NA,NA,NA,NA,NA,NA,false
iHGXDkWP,385mdvingfsu7ikqnsjzxyjp4abjww,3634bbtx0s7yo5cj6nt16tegfh3ife,iHGXDkWP,2020-0188,2020-05-08,10:48:58,11:02:48,NA,incomplete,106,color,1,left,Green_Triangle_Dots_1.jpg,Green_Circle_Stripes_2.jpg,Blue_Plus_Dots_4.jpg,left,435.9250001143664,true,high,NA,NA,NA,NA,NA,NA,NA,false
iHGXDkWP,385mdvingfsu7ikqnsjzxyjp4abjww,3634bbtx0s7yo5cj6nt16tegfh3ife,iHGXDkWP,2020-0188,2020-05-08,10:48:58,11:02:48,NA,incomplete,107,color,0,left,Red_Star_Chess_1.jpg,Red_Triangle_Grid_3.jpg,Purple_Circle_Chess_4.jpg,left,438.44000017270446,true,high,NA,NA,NA,NA,NA,NA,NA,false
iHGXDkWP,385mdvingfsu7ikqnsjzxyjp4abjww,3634bbtx0s7yo5cj6nt16tegfh3ife,iHGXDkWP,2020-0188,2020-05-08,10:48:58,11:02:48,NA,incomplete,108,color,1,left,Purple_Circle_Chess_2.jpg,Purple_Triangle_Grid_1.jpg,Blue_Star_Chess_4.jpg,left,441.74999999813735,true,high,NA,NA,NA,NA,NA,NA,NA,false
iHGXDkWP,385mdvingfsu7ikqnsjzxyjp4abjww,3634bbtx0s7yo5cj6nt16tegfh3ife,iHGXDkWP,2020-0188,2020-05-08,10:48:58,11:02:48,NA,incomplete,109,color,1,left,Green_Triangle_Stripes_1.jpg,Green_Star_Dots_4.jpg,Purple_Circle_Stripes_2.jpg,left,436.8399998638779,true,high,NA,NA,NA,NA,NA,NA,NA,false
iHGXDkWP,385mdvingfsu7ikqnsjzxyjp4abjww,3634bbtx0s7yo5cj6nt16tegfh3ife,iHGXDkWP,2020-0188,2020-05-08,10:48:58,11:02:48,NA,incomplete,110,filling,1,right,Green_Plus_Dots_3.jpg,Green_Triangle_Grid_1.jpg,Purple_Star_Dots_4.jpg,left,391.36999985203147,false,high,NA,NA,NA,NA,NA,NA,NA,false
iHGXDkWP,385mdvingfsu7ikqnsjzxyjp4abjww,3634bbtx0s7yo5cj6nt16tegfh3ife,iHGXDkWP,2020-0188,2020-05-08,10:48:58,11:02:48,NA,incomplete,111,filling,1,left,Red_Star_Chess_2.jpg,Blue_Circle_Chess_4.jpg,Red_Plus_Grid_1.jpg,right,447.3849998321384,false,high,NA,NA,NA,NA,NA,NA,NA,false
iHGXDkWP,385mdvingfsu7ikqnsjzxyjp4abjww,3634bbtx0s7yo5cj6nt16tegfh3ife,iHGXDkWP,2020-0188,2020-05-08,10:48:58,11:02:48,NA,incomplete,112,filling,0,right,Red_Star_Stripes_1.jpg,Red_Triangle_Dots_4.jpg,Blue_Circle_Stripes_3.jpg,right,1014.1150001436472,true,high,NA,NA,NA,NA,NA,NA,NA,false
iHGXDkWP,385mdvingfsu7ikqnsjzxyjp4abjww,3634bbtx0s7yo5cj6nt16tegfh3ife,iHGXDkWP,2020-0188,2020-05-08,10:48:58,11:02:48,NA,incomplete,113,filling,1,left,Purple_Circle_Grid_1.jpg,Red_Triangle_Grid_2.jpg,Purple_Star_Chess_4.jpg,right,634.0499999932945,false,high,NA,NA,NA,NA,NA,NA,NA,false
iHGXDkWP,385mdvingfsu7ikqnsjzxyjp4abjww,3634bbtx0s7yo5cj6nt16tegfh3ife,iHGXDkWP,2020-0188,2020-05-08,10:48:58,11:02:48,NA,incomplete,114,filling,1,left,Red_Star_Chess_4.jpg,Purple_Circle_Chess_3.jpg,Red_Plus_Stripes_2.jpg,left,837.739999871701,true,high,NA,NA,NA,NA,NA,NA,NA,false
iHGXDkWP,385mdvingfsu7ikqnsjzxyjp4abjww,3634bbtx0s7yo5cj6nt16tegfh3ife,iHGXDkWP,2020-0188,2020-05-08,10:48:58,11:02:48,NA,incomplete,115,filling,0,left,Purple_Plus_Stripes_4.jpg,Blue_Star_Stripes_3.jpg,Purple_Circle_Dots_1.jpg,left,945.005000103265,true,high,NA,NA,NA,NA,NA,NA,NA,false
iHGXDkWP,385mdvingfsu7ikqnsjzxyjp4abjww,3634bbtx0s7yo5cj6nt16tegfh3ife,iHGXDkWP,2020-0188,2020-05-08,10:48:58,11:02:48,NA,incomplete,116,filling,1,right,Purple_Plus_Grid_1.jpg,Purple_Star_Stripes_4.jpg,Blue_Circle_Grid_2.jpg,right,830.7650000788271,true,high,NA,NA,NA,NA,NA,NA,NA,false
iHGXDkWP,385mdvingfsu7ikqnsjzxyjp4abjww,3634bbtx0s7yo5cj6nt16tegfh3ife,iHGXDkWP,2020-0188,2020-05-08,10:48:58,11:02:48,NA,incomplete,117,filling,0,left,Blue_Triangle_Grid_4.jpg,Purple_Plus_Grid_1.jpg,Blue_Circle_Dots_3.jpg,left,841.7799999006093,true,high,NA,NA,NA,NA,NA,NA,NA,false
iHGXDkWP,385mdvingfsu7ikqnsjzxyjp4abjww,3634bbtx0s7yo5cj6nt16tegfh3ife,iHGXDkWP,2020-0188,2020-05-08,10:48:58,11:02:48,NA,incomplete,118,filling,1,right,Purple_Star_Chess_1.jpg,Purple_Triangle_Stripes_3.jpg,Red_Plus_Chess_2.jpg,right,820.8899998571724,true,high,NA,NA,NA,NA,NA,NA,NA,false
iHGXDkWP,385mdvingfsu7ikqnsjzxyjp4abjww,3634bbtx0s7yo5cj6nt16tegfh3ife,iHGXDkWP,2020-0188,2020-05-08,10:48:58,11:02:48,NA,incomplete,119,filling,1,right,Green_Triangle_Chess_3.jpg,Green_Star_Dots_2.jpg,Purple_Circle_Chess_4.jpg,right,793.3649998158216,true,high,NA,NA,NA,NA,NA,NA,NA,false
iHGXDkWP,385mdvingfsu7ikqnsjzxyjp4abjww,3634bbtx0s7yo5cj6nt16tegfh3ife,iHGXDkWP,2020-0188,2020-05-08,10:48:58,11:02:48,NA,incomplete,120,color,0,left,Blue_Plus_Stripes_1.jpg,Blue_Circle_Chess_4.jpg,Purple_Star_Stripes_2.jpg,right,819.9950000271201,false,high,NA,NA,NA,NA,NA,NA,NA,false
iHGXDkWP,385mdvingfsu7ikqnsjzxyjp4abjww,3634bbtx0s7yo5cj6nt16tegfh3ife,iHGXDkWP,2020-0188,2020-05-08,10:48:58,11:02:48,NA,incomplete,121,color,1,right,Purple_Triangle_Grid_3.jpg,Blue_Circle_Grid_4.jpg,Purple_Star_Stripes_2.jpg,left,745.4800000414252,false,high,NA,NA,NA,NA,NA,NA,NA,false
iHGXDkWP,385mdvingfsu7ikqnsjzxyjp4abjww,3634bbtx0s7yo5cj6nt16tegfh3ife,iHGXDkWP,2020-0188,2020-05-08,10:48:58,11:02:48,NA,incomplete,122,color,1,left,Blue_Plus_Chess_3.jpg,Blue_Star_Stripes_1.jpg,Red_Triangle_Chess_4.jpg,right,702.0250000059605,false,high,NA,NA,NA,NA,NA,NA,NA,false
iHGXDkWP,385mdvingfsu7ikqnsjzxyjp4abjww,3634bbtx0s7yo5cj6nt16tegfh3ife,iHGXDkWP,2020-0188,2020-05-08,10:48:58,11:02:48,NA,incomplete,123,color,1,right,Green_Circle_Grid_1.jpg,Purple_Star_Grid_3.jpg,Green_Triangle_Stripes_2.jpg,right,653.7949999328703,true,high,NA,NA,NA,NA,NA,NA,NA,false
iHGXDkWP,385mdvingfsu7ikqnsjzxyjp4abjww,3634bbtx0s7yo5cj6nt16tegfh3ife,iHGXDkWP,2020-0188,2020-05-08,10:48:58,11:02:48,NA,incomplete,124,color,1,right,Blue_Star_Chess_3.jpg,Green_Plus_Chess_1.jpg,Blue_Circle_Dots_4.jpg,right,409.1550000011921,true,high,NA,NA,NA,NA,NA,NA,NA,false
iHGXDkWP,385mdvingfsu7ikqnsjzxyjp4abjww,3634bbtx0s7yo5cj6nt16tegfh3ife,iHGXDkWP,2020-0188,2020-05-08,10:48:58,11:02:48,NA,incomplete,125,color,1,right,Red_Circle_Dots_4.jpg,Purple_Plus_Dots_1.jpg,Red_Star_Chess_2.jpg,right,452.0150001626462,true,high,NA,NA,NA,NA,NA,NA,NA,false
iHGXDkWP,385mdvingfsu7ikqnsjzxyjp4abjww,3634bbtx0s7yo5cj6nt16tegfh3ife,iHGXDkWP,2020-0188,2020-05-08,10:48:58,11:02:48,NA,incomplete,126,color,1,left,Green_Star_Chess_2.jpg,Green_Triangle_Grid_1.jpg,Red_Plus_Chess_3.jpg,left,478.67999994196,true,high,NA,NA,NA,NA,NA,NA,NA,false
iHGXDkWP,385mdvingfsu7ikqnsjzxyjp4abjww,3634bbtx0s7yo5cj6nt16tegfh3ife,iHGXDkWP,2020-0188,2020-05-08,10:48:58,11:02:48,NA,incomplete,127,color,1,right,Green_Star_Stripes_4.jpg,Red_Circle_Stripes_3.jpg,Green_Plus_Dots_1.jpg,right,391.50999998673797,true,high,NA,NA,NA,NA,NA,NA,NA,false
iHGXDkWP,385mdvingfsu7ikqnsjzxyjp4abjww,3634bbtx0s7yo5cj6nt16tegfh3ife,iHGXDkWP,2020-0188,2020-05-08,10:48:58,11:02:48,NA,incomplete,128,color,0,left,Green_Plus_Dots_1.jpg,Green_Star_Stripes_4.jpg,Red_Triangle_Dots_3.jpg,left,445.06500009447336,true,high,NA,NA,NA,NA,NA,NA,NA,false
iHGXDkWP,385mdvingfsu7ikqnsjzxyjp4abjww,3634bbtx0s7yo5cj6nt16tegfh3ife,iHGXDkWP,2020-0188,2020-05-08,10:48:58,11:02:48,NA,incomplete,129,color,1,right,Green_Plus_Grid_1.jpg,Red_Star_Grid_3.jpg,Green_Circle_Stripes_2.jpg,right,430.9400001075119,true,high,NA,NA,NA,NA,NA,NA,NA,false
iHGXDkWP,385mdvingfsu7ikqnsjzxyjp4abjww,3634bbtx0s7yo5cj6nt16tegfh3ife,iHGXDkWP,2020-0188,2020-05-08,10:48:58,11:02:48,NA,incomplete,130,color,1,right,Red_Plus_Stripes_2.jpg,Purple_Circle_Stripes_4.jpg,Red_Triangle_Grid_3.jpg,right,419.749999884516,true,high,NA,NA,NA,NA,NA,NA,NA,false
iHGXDkWP,385mdvingfsu7ikqnsjzxyjp4abjww,3634bbtx0s7yo5cj6nt16tegfh3ife,iHGXDkWP,2020-0188,2020-05-08,10:48:58,11:02:48,NA,incomplete,131,color,1,left,Green_Circle_Chess_1.jpg,Green_Star_Stripes_3.jpg,Blue_Plus_Chess_4.jpg,left,414.03499990701675,true,high,NA,NA,NA,NA,NA,NA,NA,false
iHGXDkWP,385mdvingfsu7ikqnsjzxyjp4abjww,3634bbtx0s7yo5cj6nt16tegfh3ife,iHGXDkWP,2020-0188,2020-05-08,10:48:58,11:02:48,NA,incomplete,132,color,1,right,Blue_Plus_Grid_1.jpg,Red_Circle_Grid_3.jpg,Blue_Star_Dots_2.jpg,right,471.2549999821931,true,high,NA,NA,NA,NA,NA,NA,NA,false
iHGXDkWP,385mdvingfsu7ikqnsjzxyjp4abjww,3634bbtx0s7yo5cj6nt16tegfh3ife,iHGXDkWP,2020-0188,2020-05-08,10:48:58,11:02:48,NA,incomplete,133,color,1,right,Red_Triangle_Grid_3.jpg,Purple_Plus_Grid_2.jpg,Red_Circle_Chess_4.jpg,right,619.1899999976158,true,high,NA,NA,NA,NA,NA,NA,NA,false
iHGXDkWP,385mdvingfsu7ikqnsjzxyjp4abjww,3634bbtx0s7yo5cj6nt16tegfh3ife,iHGXDkWP,2020-0188,2020-05-08,10:48:58,11:02:48,NA,incomplete,134,color,0,right,Red_Circle_Stripes_1.jpg,Blue_Triangle_Stripes_3.jpg,Red_Star_Dots_2.jpg,right,342.2199999913573,true,high,NA,NA,NA,NA,NA,NA,NA,false
iHGXDkWP,385mdvingfsu7ikqnsjzxyjp4abjww,3634bbtx0s7yo5cj6nt16tegfh3ife,iHGXDkWP,2020-0188,2020-05-08,10:48:58,11:02:48,NA,incomplete,135,color,1,right,Purple_Circle_Chess_4.jpg,Red_Star_Chess_2.jpg,Purple_Triangle_Dots_1.jpg,right,525.30000009574,true,high,NA,NA,NA,NA,NA,NA,NA,false
iHGXDkWP,385mdvingfsu7ikqnsjzxyjp4abjww,3634bbtx0s7yo5cj6nt16tegfh3ife,iHGXDkWP,2020-0188,2020-05-08,10:48:58,11:02:48,NA,incomplete,136,color,1,right,Purple_Star_Grid_4.jpg,Green_Triangle_Grid_2.jpg,Purple_Circle_Chess_1.jpg,right,419.8999998625368,true,high,NA,NA,NA,NA,NA,NA,NA,false
iHGXDkWP,385mdvingfsu7ikqnsjzxyjp4abjww,3634bbtx0s7yo5cj6nt16tegfh3ife,iHGXDkWP,2020-0188,2020-05-08,10:48:58,11:02:48,NA,incomplete,137,color,1,right,Purple_Star_Grid_4.jpg,Green_Plus_Grid_1.jpg,Purple_Circle_Dots_3.jpg,right,344.80999992229044,true,high,NA,NA,NA,NA,NA,NA,NA,false
iHGXDkWP,385mdvingfsu7ikqnsjzxyjp4abjww,3634bbtx0s7yo5cj6nt16tegfh3ife,iHGXDkWP,2020-0188,2020-05-08,10:48:58,11:02:48,NA,incomplete,138,color,1,right,Blue_Plus_Stripes_3.jpg,Red_Triangle_Stripes_1.jpg,Blue_Star_Dots_4.jpg,right,398.7499999348074,true,high,NA,NA,NA,NA,NA,NA,NA,false
iHGXDkWP,385mdvingfsu7ikqnsjzxyjp4abjww,3634bbtx0s7yo5cj6nt16tegfh3ife,iHGXDkWP,2020-0188,2020-05-08,10:48:58,11:02:48,NA,incomplete,139,color,1,right,Blue_Plus_Dots_3.jpg,Red_Circle_Dots_4.jpg,Blue_Star_Stripes_2.jpg,right,339.7200000472367,true,high,NA,NA,NA,NA,NA,NA,NA,false
iHGXDkWP,385mdvingfsu7ikqnsjzxyjp4abjww,3634bbtx0s7yo5cj6nt16tegfh3ife,iHGXDkWP,2020-0188,2020-05-08,10:48:58,11:02:48,NA,incomplete,140,filling,1,right,Green_Star_Grid_3.jpg,Green_Triangle_Chess_2.jpg,Blue_Circle_Grid_4.jpg,left,401.89999993890524,false,high,NA,NA,NA,NA,NA,NA,NA,false
iHGXDkWP,385mdvingfsu7ikqnsjzxyjp4abjww,3634bbtx0s7yo5cj6nt16tegfh3ife,iHGXDkWP,2020-0188,2020-05-08,10:48:58,11:02:48,NA,incomplete,141,filling,0,left,Purple_Circle_Chess_4.jpg,Red_Triangle_Chess_2.jpg,Purple_Plus_Dots_1.jpg,right,406.2850000336766,false,high,NA,NA,NA,NA,NA,NA,NA,false
iHGXDkWP,385mdvingfsu7ikqnsjzxyjp4abjww,3634bbtx0s7yo5cj6nt16tegfh3ife,iHGXDkWP,2020-0188,2020-05-08,10:48:58,11:02:48,NA,incomplete,142,filling,1,left,Purple_Circle_Dots_2.jpg,Red_Plus_Dots_4.jpg,Purple_Star_Chess_3.jpg,right,394.39000003039837,false,high,NA,NA,NA,NA,NA,NA,NA,false
iHGXDkWP,385mdvingfsu7ikqnsjzxyjp4abjww,3634bbtx0s7yo5cj6nt16tegfh3ife,iHGXDkWP,2020-0188,2020-05-08,10:48:58,11:02:48,NA,incomplete,143,filling,1,left,Red_Triangle_Grid_4.jpg,Blue_Circle_Grid_1.jpg,Red_Star_Chess_2.jpg,right,518.4700000099838,false,high,NA,NA,NA,NA,NA,NA,NA,false
iHGXDkWP,385mdvingfsu7ikqnsjzxyjp4abjww,3634bbtx0s7yo5cj6nt16tegfh3ife,iHGXDkWP,2020-0188,2020-05-08,10:48:58,11:02:48,NA,incomplete,144,filling,0,right,Red_Circle_Grid_4.jpg,Red_Triangle_Dots_3.jpg,Purple_Star_Grid_2.jpg,right,687.9400000907481,true,high,NA,NA,NA,NA,NA,NA,NA,false
iHGXDkWP,385mdvingfsu7ikqnsjzxyjp4abjww,3634bbtx0s7yo5cj6nt16tegfh3ife,iHGXDkWP,2020-0188,2020-05-08,10:48:58,11:02:48,NA,incomplete,145,filling,1,right,Green_Plus_Stripes_1.jpg,Green_Circle_Chess_3.jpg,Purple_Star_Stripes_2.jpg,right,909.8549999762326,true,high,NA,NA,NA,NA,NA,NA,NA,false
iHGXDkWP,385mdvingfsu7ikqnsjzxyjp4abjww,3634bbtx0s7yo5cj6nt16tegfh3ife,iHGXDkWP,2020-0188,2020-05-08,10:48:58,11:02:48,NA,incomplete,146,filling,1,right,Blue_Triangle_Grid_3.jpg,Blue_Circle_Chess_1.jpg,Green_Star_Grid_2.jpg,right,839.064999949187,true,high,NA,NA,NA,NA,NA,NA,NA,false
iHGXDkWP,385mdvingfsu7ikqnsjzxyjp4abjww,3634bbtx0s7yo5cj6nt16tegfh3ife,iHGXDkWP,2020-0188,2020-05-08,10:48:58,11:02:48,NA,incomplete,147,filling,0,left,Purple_Star_Chess_1.jpg,Red_Plus_Chess_2.jpg,Purple_Circle_Dots_3.jpg,left,617.6350000314415,true,high,NA,NA,NA,NA,NA,NA,NA,false
iHGXDkWP,385mdvingfsu7ikqnsjzxyjp4abjww,3634bbtx0s7yo5cj6nt16tegfh3ife,iHGXDkWP,2020-0188,2020-05-08,10:48:58,11:02:48,NA,incomplete,148,filling,1,right,Blue_Circle_Grid_4.jpg,Blue_Star_Stripes_2.jpg,Red_Triangle_Grid_1.jpg,right,684.4399999827147,true,high,NA,NA,NA,NA,NA,NA,NA,false
iHGXDkWP,385mdvingfsu7ikqnsjzxyjp4abjww,3634bbtx0s7yo5cj6nt16tegfh3ife,iHGXDkWP,2020-0188,2020-05-08,10:48:58,11:02:48,NA,incomplete,149,filling,0,left,Purple_Triangle_Stripes_3.jpg,Blue_Circle_Stripes_4.jpg,Purple_Star_Grid_2.jpg,left,634.0400001499802,true,high,NA,NA,NA,NA,NA,NA,NA,false
iHGXDkWP,385mdvingfsu7ikqnsjzxyjp4abjww,3634bbtx0s7yo5cj6nt16tegfh3ife,iHGXDkWP,2020-0188,2020-05-08,10:48:58,11:02:48,NA,incomplete,150,filling,1,left,Purple_Triangle_Dots_2.jpg,Blue_Star_Dots_4.jpg,Purple_Circle_Stripes_1.jpg,left,712.180000031367,true,high,NA,NA,NA,NA,NA,NA,NA,false
iHGXDkWP,385mdvingfsu7ikqnsjzxyjp4abjww,3634bbtx0s7yo5cj6nt16tegfh3ife,iHGXDkWP,2020-0188,2020-05-08,10:48:58,11:02:48,NA,incomplete,151,filling,1,right,Green_Circle_Grid_4.jpg,Green_Star_Stripes_1.jpg,Blue_Triangle_Grid_3.jpg,right,672.1999999135733,true,high,NA,NA,NA,NA,NA,NA,NA,false
iHGXDkWP,385mdvingfsu7ikqnsjzxyjp4abjww,3634bbtx0s7yo5cj6nt16tegfh3ife,iHGXDkWP,2020-0188,2020-05-08,10:48:58,11:02:48,NA,incomplete,152,filling,0,right,Blue_Star_Chess_3.jpg,Blue_Circle_Stripes_1.jpg,Red_Triangle_Chess_4.jpg,right,881.8800000008196,true,high,NA,NA,NA,NA,NA,NA,NA,false
iHGXDkWP,385mdvingfsu7ikqnsjzxyjp4abjww,3634bbtx0s7yo5cj6nt16tegfh3ife,iHGXDkWP,2020-0188,2020-05-08,10:48:58,11:02:48,NA,incomplete,153,filling,1,right,Green_Plus_Grid_2.jpg,Green_Star_Chess_3.jpg,Blue_Triangle_Grid_1.jpg,right,804.8799999523908,true,high,NA,NA,NA,NA,NA,NA,NA,false
iHGXDkWP,385mdvingfsu7ikqnsjzxyjp4abjww,3634bbtx0s7yo5cj6nt16tegfh3ife,iHGXDkWP,2020-0188,2020-05-08,10:48:58,11:02:48,NA,incomplete,154,filling,0,right,Red_Circle_Chess_1.jpg,Red_Triangle_Dots_2.jpg,Purple_Star_Chess_3.jpg,right,798.6599998548627,true,high,NA,NA,NA,NA,NA,NA,NA,false
iHGXDkWP,385mdvingfsu7ikqnsjzxyjp4abjww,3634bbtx0s7yo5cj6nt16tegfh3ife,iHGXDkWP,2020-0188,2020-05-08,10:48:58,11:02:48,NA,incomplete,155,filling,1,left,Red_Star_Dots_3.jpg,Blue_Plus_Dots_2.jpg,Red_Triangle_Stripes_4.jpg,left,740.419999929145,true,high,NA,NA,NA,NA,NA,NA,NA,false
iHGXDkWP,385mdvingfsu7ikqnsjzxyjp4abjww,3634bbtx0s7yo5cj6nt16tegfh3ife,iHGXDkWP,2020-0188,2020-05-08,10:48:58,11:02:48,NA,incomplete,156,filling,0,right,Blue_Triangle_Grid_4.jpg,Blue_Circle_Stripes_1.jpg,Green_Plus_Grid_3.jpg,left,650.0450000166893,false,high,NA,NA,NA,NA,NA,NA,NA,false
iHGXDkWP,385mdvingfsu7ikqnsjzxyjp4abjww,3634bbtx0s7yo5cj6nt16tegfh3ife,iHGXDkWP,2020-0188,2020-05-08,10:48:58,11:02:48,NA,incomplete,157,filling,1,right,Red_Circle_Chess_2.jpg,Red_Plus_Dots_3.jpg,Purple_Triangle_Chess_4.jpg,right,787.7599999774247,true,high,NA,NA,NA,NA,NA,NA,NA,false
iHGXDkWP,385mdvingfsu7ikqnsjzxyjp4abjww,3634bbtx0s7yo5cj6nt16tegfh3ife,iHGXDkWP,2020-0188,2020-05-08,10:48:58,11:02:48,NA,incomplete,158,filling,0,left,Purple_Star_Chess_4.jpg,Red_Plus_Chess_3.jpg,Purple_Triangle_Grid_2.jpg,right,839.2400001175702,false,high,NA,NA,NA,NA,NA,NA,NA,false
iHGXDkWP,385mdvingfsu7ikqnsjzxyjp4abjww,3634bbtx0s7yo5cj6nt16tegfh3ife,iHGXDkWP,2020-0188,2020-05-08,10:48:58,11:02:48,NA,incomplete,159,filling,1,left,Purple_Plus_Stripes_2.jpg,Green_Triangle_Stripes_4.jpg,Purple_Circle_Chess_3.jpg,left,884.7400001250207,true,high,NA,NA,NA,NA,NA,NA,NA,false
iHGXDkWP,385mdvingfsu7ikqnsjzxyjp4abjww,3634bbtx0s7yo5cj6nt16tegfh3ife,iHGXDkWP,2020-0188,2020-05-08,10:48:58,11:02:48,NA,incomplete,160,color,1,left,Red_Triangle_Dots_1.jpg,Red_Star_Grid_4.jpg,Blue_Plus_Dots_3.jpg,right,998.6949998419732,false,high,NA,NA,NA,NA,NA,NA,NA,false
iHGXDkWP,385mdvingfsu7ikqnsjzxyjp4abjww,3634bbtx0s7yo5cj6nt16tegfh3ife,iHGXDkWP,2020-0188,2020-05-08,10:48:58,11:02:48,NA,incomplete,161,color,1,left,Red_Star_Stripes_2.jpg,Red_Triangle_Grid_1.jpg,Purple_Circle_Stripes_4.jpg,left,497.62500007636845,true,high,NA,NA,NA,NA,NA,NA,NA,false
iHGXDkWP,385mdvingfsu7ikqnsjzxyjp4abjww,3634bbtx0s7yo5cj6nt16tegfh3ife,iHGXDkWP,2020-0188,2020-05-08,10:48:58,11:02:48,NA,incomplete,162,color,0,left,Red_Star_Chess_2.jpg,Red_Plus_Dots_1.jpg,Blue_Triangle_Chess_3.jpg,right,476.4849999919534,false,high,NA,NA,NA,NA,NA,NA,NA,false
iHGXDkWP,385mdvingfsu7ikqnsjzxyjp4abjww,3634bbtx0s7yo5cj6nt16tegfh3ife,iHGXDkWP,2020-0188,2020-05-08,10:48:58,11:02:48,NA,incomplete,163,color,1,right,Purple_Star_Dots_2.jpg,Blue_Circle_Dots_1.jpg,Purple_Triangle_Stripes_3.jpg,right,1091.5550000499934,true,high,NA,NA,NA,NA,NA,NA,NA,false
iHGXDkWP,385mdvingfsu7ikqnsjzxyjp4abjww,3634bbtx0s7yo5cj6nt16tegfh3ife,iHGXDkWP,2020-0188,2020-05-08,10:48:58,11:02:48,NA,incomplete,164,color,1,left,Purple_Plus_Stripes_3.jpg,Purple_Star_Dots_2.jpg,Red_Circle_Stripes_1.jpg,right,1141.150000039488,false,high,NA,NA,NA,NA,NA,NA,NA,false
iHGXDkWP,385mdvingfsu7ikqnsjzxyjp4abjww,3634bbtx0s7yo5cj6nt16tegfh3ife,iHGXDkWP,2020-0188,2020-05-08,10:48:58,11:02:48,NA,incomplete,165,color,1,left,Red_Triangle_Chess_1.jpg,Red_Plus_Dots_4.jpg,Green_Star_Chess_3.jpg,left,610.395000083372,true,high,NA,NA,NA,NA,NA,NA,NA,false
iHGXDkWP,385mdvingfsu7ikqnsjzxyjp4abjww,3634bbtx0s7yo5cj6nt16tegfh3ife,iHGXDkWP,2020-0188,2020-05-08,10:48:58,11:02:48,NA,incomplete,166,color,0,left,Purple_Circle_Chess_2.jpg,Purple_Plus_Grid_3.jpg,Red_Star_Chess_1.jpg,right,847.499999916181,false,high,NA,NA,NA,NA,NA,NA,NA,false
iHGXDkWP,385mdvingfsu7ikqnsjzxyjp4abjww,3634bbtx0s7yo5cj6nt16tegfh3ife,iHGXDkWP,2020-0188,2020-05-08,10:48:58,11:02:48,NA,incomplete,167,color,1,right,Green_Star_Stripes_2.jpg,Purple_Triangle_Stripes_1.jpg,Green_Circle_Grid_3.jpg,right,433.6550000589341,true,high,NA,NA,NA,NA,NA,NA,NA,false
iHGXDkWP,385mdvingfsu7ikqnsjzxyjp4abjww,3634bbtx0s7yo5cj6nt16tegfh3ife,iHGXDkWP,2020-0188,2020-05-08,10:48:58,11:02:48,NA,incomplete,168,color,1,left,Green_Star_Grid_1.jpg,Green_Triangle_Chess_4.jpg,Blue_Circle_Grid_3.jpg,right,973.8500001840293,false,high,NA,NA,NA,NA,NA,NA,NA,false
iHGXDkWP,385mdvingfsu7ikqnsjzxyjp4abjww,3634bbtx0s7yo5cj6nt16tegfh3ife,iHGXDkWP,2020-0188,2020-05-08,10:48:58,11:02:48,NA,incomplete,169,color,1,right,Purple_Triangle_Chess_4.jpg,Red_Star_Chess_3.jpg,Purple_Plus_Stripes_1.jpg,left,1179.329999955371,false,high,NA,NA,NA,NA,NA,NA,NA,false
iHGXDkWP,385mdvingfsu7ikqnsjzxyjp4abjww,3634bbtx0s7yo5cj6nt16tegfh3ife,iHGXDkWP,2020-0188,2020-05-08,10:48:58,11:02:48,NA,incomplete,170,color,1,left,Green_Plus_Chess_3.jpg,Green_Triangle_Grid_4.jpg,Purple_Circle_Chess_2.jpg,left,639.6449999883771,true,high,NA,NA,NA,NA,NA,NA,NA,false
iHGXDkWP,385mdvingfsu7ikqnsjzxyjp4abjww,3634bbtx0s7yo5cj6nt16tegfh3ife,iHGXDkWP,2020-0188,2020-05-08,10:48:58,11:02:48,NA,incomplete,171,color,1,left,Red_Circle_Grid_2.jpg,Red_Star_Chess_3.jpg,Purple_Triangle_Grid_4.jpg,left,539.1799998469651,true,high,NA,NA,NA,NA,NA,NA,NA,false
iHGXDkWP,385mdvingfsu7ikqnsjzxyjp4abjww,3634bbtx0s7yo5cj6nt16tegfh3ife,iHGXDkWP,2020-0188,2020-05-08,10:48:58,11:02:48,NA,incomplete,172,color,1,right,Red_Triangle_Chess_2.jpg,Green_Star_Chess_3.jpg,Red_Circle_Stripes_4.jpg,right,498.5000002197921,true,high,NA,NA,NA,NA,NA,NA,NA,false
iHGXDkWP,385mdvingfsu7ikqnsjzxyjp4abjww,3634bbtx0s7yo5cj6nt16tegfh3ife,iHGXDkWP,2020-0188,2020-05-08,10:48:58,11:02:48,NA,incomplete,173,color,0,right,Blue_Circle_Dots_4.jpg,Red_Triangle_Dots_3.jpg,Blue_Plus_Grid_1.jpg,right,448.8649999257177,true,high,NA,NA,NA,NA,NA,NA,NA,false
iHGXDkWP,385mdvingfsu7ikqnsjzxyjp4abjww,3634bbtx0s7yo5cj6nt16tegfh3ife,iHGXDkWP,2020-0188,2020-05-08,10:48:58,11:02:48,NA,incomplete,174,color,1,right,Purple_Plus_Grid_3.jpg,Blue_Circle_Grid_4.jpg,Purple_Star_Chess_2.jpg,right,412.3600001912564,true,high,NA,NA,NA,NA,NA,NA,NA,false
iHGXDkWP,385mdvingfsu7ikqnsjzxyjp4abjww,3634bbtx0s7yo5cj6nt16tegfh3ife,iHGXDkWP,2020-0188,2020-05-08,10:48:58,11:02:48,NA,incomplete,175,color,1,right,Blue_Plus_Stripes_3.jpg,Red_Triangle_Stripes_1.jpg,Blue_Circle_Chess_4.jpg,right,449.90499992854893,true,high,NA,NA,NA,NA,NA,NA,NA,false
iHGXDkWP,385mdvingfsu7ikqnsjzxyjp4abjww,3634bbtx0s7yo5cj6nt16tegfh3ife,iHGXDkWP,2020-0188,2020-05-08,10:48:58,11:02:48,NA,incomplete,176,color,1,left,Blue_Circle_Grid_4.jpg,Blue_Star_Chess_3.jpg,Green_Plus_Grid_2.jpg,left,434.4699999783188,true,high,NA,NA,NA,NA,NA,NA,NA,false
iHGXDkWP,385mdvingfsu7ikqnsjzxyjp4abjww,3634bbtx0s7yo5cj6nt16tegfh3ife,iHGXDkWP,2020-0188,2020-05-08,10:48:58,11:02:48,NA,incomplete,177,color,1,left,Purple_Star_Chess_1.jpg,Purple_Plus_Dots_4.jpg,Green_Circle_Chess_3.jpg,left,476.9749999977648,true,high,NA,NA,NA,NA,NA,NA,NA,false
iHGXDkWP,385mdvingfsu7ikqnsjzxyjp4abjww,3634bbtx0s7yo5cj6nt16tegfh3ife,iHGXDkWP,2020-0188,2020-05-08,10:48:58,11:02:48,NA,incomplete,178,color,1,left,Blue_Triangle_Chess_1.jpg,Blue_Star_Dots_3.jpg,Red_Circle_Chess_4.jpg,left,453.6200000438839,true,high,NA,NA,NA,NA,NA,NA,NA,false
iHGXDkWP,385mdvingfsu7ikqnsjzxyjp4abjww,3634bbtx0s7yo5cj6nt16tegfh3ife,iHGXDkWP,2020-0188,2020-05-08,10:48:58,11:02:48,NA,incomplete,179,color,0,right,Blue_Star_Stripes_2.jpg,Purple_Triangle_Stripes_1.jpg,Blue_Plus_Dots_3.jpg,right,449.2249998729676,true,high,NA,NA,NA,NA,NA,NA,NA,false
iHGXDkWP,385mdvingfsu7ikqnsjzxyjp4abjww,3634bbtx0s7yo5cj6nt16tegfh3ife,iHGXDkWP,2020-0188,2020-05-08,10:48:58,11:02:48,NA,incomplete,180,filling,1,left,Red_Plus_Dots_4.jpg,Blue_Star_Dots_1.jpg,Red_Circle_Grid_3.jpg,right,739.9049999658018,false,high,NA,NA,NA,NA,NA,NA,NA,false
iHGXDkWP,385mdvingfsu7ikqnsjzxyjp4abjww,3634bbtx0s7yo5cj6nt16tegfh3ife,iHGXDkWP,2020-0188,2020-05-08,10:48:58,11:02:48,NA,incomplete,181,filling,1,left,Purple_Triangle_Stripes_3.jpg,Blue_Plus_Stripes_2.jpg,Purple_Star_Grid_1.jpg,right,772.7250000461936,false,high,NA,NA,NA,NA,NA,NA,NA,false
iHGXDkWP,385mdvingfsu7ikqnsjzxyjp4abjww,3634bbtx0s7yo5cj6nt16tegfh3ife,iHGXDkWP,2020-0188,2020-05-08,10:48:58,11:02:48,NA,incomplete,182,filling,1,left,Green_Plus_Stripes_1.jpg,Red_Circle_Stripes_4.jpg,Green_Star_Chess_3.jpg,left,752.8250000905246,true,high,NA,NA,NA,NA,NA,NA,NA,false
iHGXDkWP,385mdvingfsu7ikqnsjzxyjp4abjww,3634bbtx0s7yo5cj6nt16tegfh3ife,iHGXDkWP,2020-0188,2020-05-08,10:48:58,11:02:48,NA,incomplete,183,filling,1,left,Purple_Triangle_Chess_4.jpg,Blue_Circle_Chess_1.jpg,Purple_Plus_Dots_3.jpg,left,776.8650001380593,true,high,NA,NA,NA,NA,NA,NA,NA,false
iHGXDkWP,385mdvingfsu7ikqnsjzxyjp4abjww,3634bbtx0s7yo5cj6nt16tegfh3ife,iHGXDkWP,2020-0188,2020-05-08,10:48:58,11:02:48,NA,incomplete,184,filling,0,right,Blue_Star_Grid_3.jpg,Blue_Plus_Chess_4.jpg,Green_Circle_Grid_1.jpg,right,969.2849998828024,true,high,NA,NA,NA,NA,NA,NA,NA,false
iHGXDkWP,385mdvingfsu7ikqnsjzxyjp4abjww,3634bbtx0s7yo5cj6nt16tegfh3ife,iHGXDkWP,2020-0188,2020-05-08,10:48:58,11:02:48,NA,incomplete,185,filling,1,right,Purple_Triangle_Chess_2.jpg,Purple_Plus_Grid_3.jpg,Green_Star_Chess_4.jpg,right,768.1299999821931,true,high,NA,NA,NA,NA,NA,NA,NA,false
iHGXDkWP,385mdvingfsu7ikqnsjzxyjp4abjww,3634bbtx0s7yo5cj6nt16tegfh3ife,iHGXDkWP,2020-0188,2020-05-08,10:48:58,11:02:48,NA,incomplete,186,filling,1,right,Blue_Star_Chess_1.jpg,Blue_Plus_Grid_2.jpg,Green_Triangle_Chess_3.jpg,right,1011.960000032559,true,high,NA,NA,NA,NA,NA,NA,NA,false
iHGXDkWP,385mdvingfsu7ikqnsjzxyjp4abjww,3634bbtx0s7yo5cj6nt16tegfh3ife,iHGXDkWP,2020-0188,2020-05-08,10:48:58,11:02:48,NA,incomplete,187,filling,1,right,Purple_Plus_Stripes_2.jpg,Purple_Star_Dots_1.jpg,Red_Triangle_Stripes_4.jpg,right,770.5200000200421,true,high,NA,NA,NA,NA,NA,NA,NA,false
iHGXDkWP,385mdvingfsu7ikqnsjzxyjp4abjww,3634bbtx0s7yo5cj6nt16tegfh3ife,iHGXDkWP,2020-0188,2020-05-08,10:48:58,11:02:48,NA,incomplete,188,filling,1,right,Blue_Star_Dots_1.jpg,Blue_Triangle_Chess_2.jpg,Green_Circle_Dots_4.jpg,right,814.0499999281019,true,high,NA,NA,NA,NA,NA,NA,NA,false
iHGXDkWP,385mdvingfsu7ikqnsjzxyjp4abjww,3634bbtx0s7yo5cj6nt16tegfh3ife,iHGXDkWP,2020-0188,2020-05-08,10:48:58,11:02:48,NA,incomplete,189,filling,1,right,Green_Triangle_Chess_4.jpg,Green_Plus_Grid_2.jpg,Blue_Circle_Chess_3.jpg,right,692.4600000493228,true,high,NA,NA,NA,NA,NA,NA,NA,false
iHGXDkWP,385mdvingfsu7ikqnsjzxyjp4abjww,3634bbtx0s7yo5cj6nt16tegfh3ife,iHGXDkWP,2020-0188,2020-05-08,10:48:58,11:02:48,NA,incomplete,190,filling,0,right,Purple_Star_Chess_2.jpg,Purple_Circle_Dots_4.jpg,Blue_Triangle_Chess_3.jpg,right,684.2549999710172,true,high,NA,NA,NA,NA,NA,NA,NA,false
iHGXDkWP,385mdvingfsu7ikqnsjzxyjp4abjww,3634bbtx0s7yo5cj6nt16tegfh3ife,iHGXDkWP,2020-0188,2020-05-08,10:48:58,11:02:48,NA,incomplete,191,filling,1,right,Red_Plus_Grid_2.jpg,Red_Triangle_Stripes_1.jpg,Green_Star_Grid_3.jpg,left,843.0650001391768,false,high,NA,NA,NA,NA,NA,NA,NA,false
iHGXDkWP,385mdvingfsu7ikqnsjzxyjp4abjww,3634bbtx0s7yo5cj6nt16tegfh3ife,iHGXDkWP,2020-0188,2020-05-08,10:48:58,11:02:48,NA,incomplete,192,filling,1,right,Red_Star_Dots_2.jpg,Red_Plus_Chess_3.jpg,Blue_Circle_Dots_4.jpg,right,758.7250000797212,true,high,NA,NA,NA,NA,NA,NA,NA,false
iHGXDkWP,385mdvingfsu7ikqnsjzxyjp4abjww,3634bbtx0s7yo5cj6nt16tegfh3ife,iHGXDkWP,2020-0188,2020-05-08,10:48:58,11:02:48,NA,incomplete,193,filling,1,left,Blue_Triangle_Grid_2.jpg,Purple_Plus_Grid_1.jpg,Blue_Star_Dots_3.jpg,left,821.2150000035763,true,high,NA,NA,NA,NA,NA,NA,NA,false
iHGXDkWP,385mdvingfsu7ikqnsjzxyjp4abjww,3634bbtx0s7yo5cj6nt16tegfh3ife,iHGXDkWP,2020-0188,2020-05-08,10:48:58,11:02:48,NA,incomplete,194,filling,1,left,Blue_Plus_Dots_1.jpg,Red_Star_Dots_3.jpg,Blue_Circle_Stripes_4.jpg,left,815.5700000934303,true,high,NA,NA,NA,NA,NA,NA,NA,false
iHGXDkWP,385mdvingfsu7ikqnsjzxyjp4abjww,3634bbtx0s7yo5cj6nt16tegfh3ife,iHGXDkWP,2020-0188,2020-05-08,10:48:58,11:02:48,NA,incomplete,195,filling,1,left,Purple_Star_Dots_1.jpg,Blue_Triangle_Dots_2.jpg,Purple_Plus_Chess_3.jpg,left,822.3399999551475,true,high,NA,NA,NA,NA,NA,NA,NA,false
iHGXDkWP,385mdvingfsu7ikqnsjzxyjp4abjww,3634bbtx0s7yo5cj6nt16tegfh3ife,iHGXDkWP,2020-0188,2020-05-08,10:48:58,11:02:48,NA,incomplete,196,filling,1,right,Red_Plus_Grid_4.jpg,Red_Star_Chess_1.jpg,Purple_Circle_Grid_3.jpg,right,663.1499999202788,true,high,NA,NA,NA,NA,NA,NA,NA,false
iHGXDkWP,385mdvingfsu7ikqnsjzxyjp4abjww,3634bbtx0s7yo5cj6nt16tegfh3ife,iHGXDkWP,2020-0188,2020-05-08,10:48:58,11:02:48,NA,incomplete,197,filling,1,right,Green_Triangle_Stripes_2.jpg,Green_Plus_Dots_3.jpg,Red_Circle_Stripes_4.jpg,right,674.2499999236315,true,high,NA,NA,NA,NA,NA,NA,NA,false
iHGXDkWP,385mdvingfsu7ikqnsjzxyjp4abjww,3634bbtx0s7yo5cj6nt16tegfh3ife,iHGXDkWP,2020-0188,2020-05-08,10:48:58,11:02:48,NA,incomplete,198,filling,1,right,Green_Star_Chess_2.jpg,Green_Triangle_Dots_1.jpg,Blue_Circle_Chess_4.jpg,right,658.1849998328835,true,high,NA,NA,NA,NA,NA,NA,NA,false
iHGXDkWP,385mdvingfsu7ikqnsjzxyjp4abjww,3634bbtx0s7yo5cj6nt16tegfh3ife,iHGXDkWP,2020-0188,2020-05-08,10:48:58,11:02:48,NA,incomplete,199,filling,1,left,Purple_Star_Stripes_2.jpg,Green_Triangle_Stripes_4.jpg,Purple_Circle_Dots_3.jpg,left,723.6649999395013,true,high,NA,NA,NA,NA,NA,NA,NA,false
iHGXDkWP,385mdvingfsu7ikqnsjzxyjp4abjww,3634bbtx0s7yo5cj6nt16tegfh3ife,iHGXDkWP,2020-0188,2020-05-08,10:48:58,11:02:48,NA,incomplete,200,color,1,right,Green_Star_Stripes_1.jpg,Red_Triangle_Stripes_4.jpg,Green_Circle_Chess_2.jpg,left,828.4950000233948,false,high,NA,NA,NA,NA,NA,NA,NA,false
iHGXDkWP,385mdvingfsu7ikqnsjzxyjp4abjww,3634bbtx0s7yo5cj6nt16tegfh3ife,iHGXDkWP,2020-0188,2020-05-08,10:48:58,11:02:48,NA,incomplete,201,color,1,right,Red_Star_Stripes_3.jpg,Green_Triangle_Stripes_1.jpg,Red_Circle_Dots_2.jpg,right,470.7700000144541,true,high,NA,NA,NA,NA,NA,NA,NA,false
iHGXDkWP,385mdvingfsu7ikqnsjzxyjp4abjww,3634bbtx0s7yo5cj6nt16tegfh3ife,iHGXDkWP,2020-0188,2020-05-08,10:48:58,11:02:48,NA,incomplete,202,color,1,left,Green_Circle_Stripes_3.jpg,Green_Plus_Dots_1.jpg,Blue_Star_Stripes_2.jpg,left,433.39499994181097,true,high,NA,NA,NA,NA,NA,NA,NA,false
iHGXDkWP,385mdvingfsu7ikqnsjzxyjp4abjww,3634bbtx0s7yo5cj6nt16tegfh3ife,iHGXDkWP,2020-0188,2020-05-08,10:48:58,11:02:48,NA,incomplete,203,color,1,right,Blue_Triangle_Stripes_1.jpg,Red_Plus_Stripes_4.jpg,Blue_Star_Dots_3.jpg,right,411.2750000786036,true,high,NA,NA,NA,NA,NA,NA,NA,false
iHGXDkWP,385mdvingfsu7ikqnsjzxyjp4abjww,3634bbtx0s7yo5cj6nt16tegfh3ife,iHGXDkWP,2020-0188,2020-05-08,10:48:58,11:02:48,NA,incomplete,204,color,1,right,Blue_Star_Stripes_1.jpg,Green_Plus_Stripes_3.jpg,Blue_Triangle_Dots_4.jpg,right,368.5099999420345,true,high,NA,NA,NA,NA,NA,NA,NA,false
iHGXDkWP,385mdvingfsu7ikqnsjzxyjp4abjww,3634bbtx0s7yo5cj6nt16tegfh3ife,iHGXDkWP,2020-0188,2020-05-08,10:48:58,11:02:48,NA,incomplete,205,color,1,left,Red_Triangle_Chess_3.jpg,Red_Circle_Grid_4.jpg,Blue_Star_Chess_1.jpg,left,389.8200001567602,true,high,NA,NA,NA,NA,NA,NA,NA,false
iHGXDkWP,385mdvingfsu7ikqnsjzxyjp4abjww,3634bbtx0s7yo5cj6nt16tegfh3ife,iHGXDkWP,2020-0188,2020-05-08,10:48:58,11:02:48,NA,incomplete,206,color,1,right,Red_Plus_Chess_3.jpg,Purple_Triangle_Chess_1.jpg,Red_Circle_Stripes_2.jpg,right,405.3350000176579,true,high,NA,NA,NA,NA,NA,NA,NA,false
iHGXDkWP,385mdvingfsu7ikqnsjzxyjp4abjww,3634bbtx0s7yo5cj6nt16tegfh3ife,iHGXDkWP,2020-0188,2020-05-08,10:48:58,11:02:48,NA,incomplete,207,color,1,left,Red_Plus_Dots_1.jpg,Red_Star_Grid_4.jpg,Green_Circle_Dots_2.jpg,left,662.4500001780689,true,high,NA,NA,NA,NA,NA,NA,NA,false
iHGXDkWP,385mdvingfsu7ikqnsjzxyjp4abjww,3634bbtx0s7yo5cj6nt16tegfh3ife,iHGXDkWP,2020-0188,2020-05-08,10:48:58,11:02:48,NA,incomplete,208,color,0,right,Red_Triangle_Dots_3.jpg,Blue_Plus_Dots_2.jpg,Red_Circle_Stripes_4.jpg,right,337.55000005476177,true,high,NA,NA,NA,NA,NA,NA,NA,false
iHGXDkWP,385mdvingfsu7ikqnsjzxyjp4abjww,3634bbtx0s7yo5cj6nt16tegfh3ife,iHGXDkWP,2020-0188,2020-05-08,10:48:58,11:02:48,NA,incomplete,209,color,1,left,Purple_Triangle_Chess_2.jpg,Purple_Plus_Stripes_1.jpg,Green_Star_Chess_3.jpg,left,504.6399999409914,true,high,NA,NA,NA,NA,NA,NA,NA,false
iHGXDkWP,385mdvingfsu7ikqnsjzxyjp4abjww,3634bbtx0s7yo5cj6nt16tegfh3ife,iHGXDkWP,2020-0188,2020-05-08,10:48:58,11:02:48,NA,incomplete,210,color,1,left,Red_Plus_Chess_3.jpg,Red_Triangle_Stripes_1.jpg,Purple_Star_Chess_2.jpg,left,399.93000007234514,true,high,NA,NA,NA,NA,NA,NA,NA,false
iHGXDkWP,385mdvingfsu7ikqnsjzxyjp4abjww,3634bbtx0s7yo5cj6nt16tegfh3ife,iHGXDkWP,2020-0188,2020-05-08,10:48:58,11:02:48,NA,incomplete,211,color,1,left,Green_Star_Grid_3.jpg,Green_Circle_Stripes_4.jpg,Purple_Plus_Grid_2.jpg,left,396.1049998179078,true,high,NA,NA,NA,NA,NA,NA,NA,false
iHGXDkWP,385mdvingfsu7ikqnsjzxyjp4abjww,3634bbtx0s7yo5cj6nt16tegfh3ife,iHGXDkWP,2020-0188,2020-05-08,10:48:58,11:02:48,NA,incomplete,212,color,1,right,Blue_Circle_Stripes_4.jpg,Purple_Star_Stripes_2.jpg,Blue_Plus_Grid_3.jpg,right,397.8949999436736,true,high,NA,NA,NA,NA,NA,NA,NA,false
iHGXDkWP,385mdvingfsu7ikqnsjzxyjp4abjww,3634bbtx0s7yo5cj6nt16tegfh3ife,iHGXDkWP,2020-0188,2020-05-08,10:48:58,11:02:48,NA,incomplete,213,color,1,left,Green_Plus_Stripes_2.jpg,Green_Star_Grid_1.jpg,Red_Triangle_Stripes_4.jpg,left,413.00000017508864,true,high,NA,NA,NA,NA,NA,NA,NA,false
iHGXDkWP,385mdvingfsu7ikqnsjzxyjp4abjww,3634bbtx0s7yo5cj6nt16tegfh3ife,iHGXDkWP,2020-0188,2020-05-08,10:48:58,11:02:48,NA,incomplete,214,color,1,right,Green_Star_Grid_4.jpg,Blue_Triangle_Grid_3.jpg,Green_Circle_Stripes_1.jpg,right,479.63000019080937,true,high,NA,NA,NA,NA,NA,NA,NA,false
iHGXDkWP,385mdvingfsu7ikqnsjzxyjp4abjww,3634bbtx0s7yo5cj6nt16tegfh3ife,iHGXDkWP,2020-0188,2020-05-08,10:48:58,11:02:48,NA,incomplete,215,color,1,right,Blue_Plus_Dots_3.jpg,Red_Star_Dots_1.jpg,Blue_Triangle_Stripes_2.jpg,right,386.48499990813434,true,high,NA,NA,NA,NA,NA,NA,NA,false
iHGXDkWP,385mdvingfsu7ikqnsjzxyjp4abjww,3634bbtx0s7yo5cj6nt16tegfh3ife,iHGXDkWP,2020-0188,2020-05-08,10:48:58,11:02:48,NA,incomplete,216,color,1,left,Blue_Plus_Dots_2.jpg,Blue_Circle_Stripes_1.jpg,Purple_Triangle_Dots_4.jpg,left,623.3600000850856,true,high,NA,NA,NA,NA,NA,NA,NA,false
iHGXDkWP,385mdvingfsu7ikqnsjzxyjp4abjww,3634bbtx0s7yo5cj6nt16tegfh3ife,iHGXDkWP,2020-0188,2020-05-08,10:48:58,11:02:48,NA,incomplete,217,color,1,right,Green_Star_Grid_2.jpg,Red_Circle_Grid_3.jpg,Green_Plus_Chess_1.jpg,right,419.08999998122454,true,high,NA,NA,NA,NA,NA,NA,NA,false
iHGXDkWP,385mdvingfsu7ikqnsjzxyjp4abjww,3634bbtx0s7yo5cj6nt16tegfh3ife,iHGXDkWP,2020-0188,2020-05-08,10:48:58,11:02:48,NA,incomplete,218,color,0,left,Blue_Triangle_Chess_1.jpg,Blue_Star_Stripes_4.jpg,Purple_Plus_Chess_3.jpg,left,384.20500000938773,true,high,NA,NA,NA,NA,NA,NA,NA,false
iHGXDkWP,385mdvingfsu7ikqnsjzxyjp4abjww,3634bbtx0s7yo5cj6nt16tegfh3ife,iHGXDkWP,2020-0188,2020-05-08,10:48:58,11:02:48,NA,incomplete,219,color,1,right,Blue_Star_Dots_2.jpg,Green_Circle_Dots_4.jpg,Blue_Triangle_Stripes_3.jpg,right,458.8949999306351,true,high,NA,NA,NA,NA,NA,NA,NA,false
iHGXDkWP,385mdvingfsu7ikqnsjzxyjp4abjww,3634bbtx0s7yo5cj6nt16tegfh3ife,iHGXDkWP,2020-0188,2020-05-08,10:48:58,11:02:48,NA,incomplete,220,filling,1,right,Blue_Circle_Grid_4.jpg,Blue_Triangle_Chess_2.jpg,Red_Star_Grid_3.jpg,left,356.62500001490116,false,high,NA,NA,NA,NA,NA,NA,NA,false
iHGXDkWP,385mdvingfsu7ikqnsjzxyjp4abjww,3634bbtx0s7yo5cj6nt16tegfh3ife,iHGXDkWP,2020-0188,2020-05-08,10:48:58,11:02:48,NA,incomplete,221,filling,1,left,Green_Plus_Stripes_2.jpg,Blue_Triangle_Stripes_3.jpg,Green_Star_Grid_1.jpg,right,411.54500003904104,false,high,NA,NA,NA,NA,NA,NA,NA,false
iHGXDkWP,385mdvingfsu7ikqnsjzxyjp4abjww,3634bbtx0s7yo5cj6nt16tegfh3ife,iHGXDkWP,2020-0188,2020-05-08,10:48:58,11:02:48,NA,incomplete,222,filling,1,right,Purple_Circle_Grid_4.jpg,Purple_Triangle_Stripes_3.jpg,Green_Star_Grid_2.jpg,left,694.4500000681728,false,high,NA,NA,NA,NA,NA,NA,NA,false
iHGXDkWP,385mdvingfsu7ikqnsjzxyjp4abjww,3634bbtx0s7yo5cj6nt16tegfh3ife,iHGXDkWP,2020-0188,2020-05-08,10:48:58,11:02:48,NA,incomplete,223,filling,0,right,Purple_Plus_Chess_1.jpg,Purple_Circle_Grid_4.jpg,Green_Star_Chess_3.jpg,right,753.2849998679012,true,high,NA,NA,NA,NA,NA,NA,NA,false
iHGXDkWP,385mdvingfsu7ikqnsjzxyjp4abjww,3634bbtx0s7yo5cj6nt16tegfh3ife,iHGXDkWP,2020-0188,2020-05-08,10:48:58,11:02:48,NA,incomplete,224,filling,1,right,Green_Star_Grid_4.jpg,Green_Plus_Chess_1.jpg,Blue_Circle_Grid_3.jpg,right,796.8900001142174,true,high,NA,NA,NA,NA,NA,NA,NA,false
iHGXDkWP,385mdvingfsu7ikqnsjzxyjp4abjww,3634bbtx0s7yo5cj6nt16tegfh3ife,iHGXDkWP,2020-0188,2020-05-08,10:48:58,11:02:48,NA,incomplete,225,filling,0,right,Green_Triangle_Chess_2.jpg,Green_Plus_Dots_1.jpg,Purple_Circle_Chess_4.jpg,right,754.3399999849498,true,high,NA,NA,NA,NA,NA,NA,NA,false
iHGXDkWP,385mdvingfsu7ikqnsjzxyjp4abjww,3634bbtx0s7yo5cj6nt16tegfh3ife,iHGXDkWP,2020-0188,2020-05-08,10:48:58,11:02:48,NA,incomplete,226,filling,1,right,Purple_Star_Grid_3.jpg,Purple_Circle_Stripes_4.jpg,Green_Triangle_Grid_2.jpg,right,735.9450000803918,true,high,NA,NA,NA,NA,NA,NA,NA,false
iHGXDkWP,385mdvingfsu7ikqnsjzxyjp4abjww,3634bbtx0s7yo5cj6nt16tegfh3ife,iHGXDkWP,2020-0188,2020-05-08,10:48:58,11:02:48,NA,incomplete,227,filling,1,left,Green_Star_Chess_4.jpg,Blue_Circle_Chess_1.jpg,Green_Triangle_Stripes_3.jpg,left,653.6799999885261,true,high,NA,NA,NA,NA,NA,NA,NA,false
iHGXDkWP,385mdvingfsu7ikqnsjzxyjp4abjww,3634bbtx0s7yo5cj6nt16tegfh3ife,iHGXDkWP,2020-0188,2020-05-08,10:48:58,11:02:48,NA,incomplete,228,filling,0,right,Green_Star_Dots_3.jpg,Green_Triangle_Chess_2.jpg,Purple_Circle_Dots_4.jpg,right,684.3850000295788,true,high,NA,NA,NA,NA,NA,NA,NA,false
iHGXDkWP,385mdvingfsu7ikqnsjzxyjp4abjww,3634bbtx0s7yo5cj6nt16tegfh3ife,iHGXDkWP,2020-0188,2020-05-08,10:48:58,11:02:48,NA,incomplete,229,filling,1,left,Green_Plus_Grid_2.jpg,Blue_Triangle_Grid_4.jpg,Green_Circle_Dots_1.jpg,left,679.3249999172986,true,high,NA,NA,NA,NA,NA,NA,NA,false
iHGXDkWP,385mdvingfsu7ikqnsjzxyjp4abjww,3634bbtx0s7yo5cj6nt16tegfh3ife,iHGXDkWP,2020-0188,2020-05-08,10:48:58,11:02:48,NA,incomplete,230,filling,0,right,Red_Plus_Dots_4.jpg,Red_Star_Stripes_3.jpg,Blue_Circle_Dots_1.jpg,right,802.5299999862909,true,high,NA,NA,NA,NA,NA,NA,NA,false
iHGXDkWP,385mdvingfsu7ikqnsjzxyjp4abjww,3634bbtx0s7yo5cj6nt16tegfh3ife,iHGXDkWP,2020-0188,2020-05-08,10:48:58,11:02:48,NA,incomplete,231,filling,1,right,Purple_Triangle_Dots_1.jpg,Purple_Star_Stripes_2.jpg,Red_Plus_Dots_4.jpg,left,808.5499999579042,false,high,NA,NA,NA,NA,NA,NA,NA,false
iHGXDkWP,385mdvingfsu7ikqnsjzxyjp4abjww,3634bbtx0s7yo5cj6nt16tegfh3ife,iHGXDkWP,2020-0188,2020-05-08,10:48:58,11:02:48,NA,incomplete,232,filling,1,left,Purple_Plus_Stripes_4.jpg,Blue_Circle_Stripes_3.jpg,Purple_Triangle_Grid_1.jpg,left,1010.5299998540431,true,high,NA,NA,NA,NA,NA,NA,NA,false
iHGXDkWP,385mdvingfsu7ikqnsjzxyjp4abjww,3634bbtx0s7yo5cj6nt16tegfh3ife,iHGXDkWP,2020-0188,2020-05-08,10:48:58,11:02:48,NA,incomplete,233,filling,0,right,Purple_Plus_Dots_3.jpg,Purple_Triangle_Chess_1.jpg,Blue_Star_Dots_4.jpg,right,727.6449999772012,true,high,NA,NA,NA,NA,NA,NA,NA,false
iHGXDkWP,385mdvingfsu7ikqnsjzxyjp4abjww,3634bbtx0s7yo5cj6nt16tegfh3ife,iHGXDkWP,2020-0188,2020-05-08,10:48:58,11:02:48,NA,incomplete,234,filling,1,right,Green_Star_Chess_2.jpg,Green_Triangle_Stripes_3.jpg,Blue_Plus_Chess_4.jpg,left,421.11500003375113,false,high,NA,NA,NA,NA,NA,NA,NA,false
iHGXDkWP,385mdvingfsu7ikqnsjzxyjp4abjww,3634bbtx0s7yo5cj6nt16tegfh3ife,iHGXDkWP,2020-0188,2020-05-08,10:48:58,11:02:48,NA,incomplete,235,filling,1,left,Purple_Plus_Stripes_2.jpg,Red_Triangle_Stripes_4.jpg,Purple_Circle_Dots_3.jpg,left,888.7150001246482,true,high,NA,NA,NA,NA,NA,NA,NA,false
iHGXDkWP,385mdvingfsu7ikqnsjzxyjp4abjww,3634bbtx0s7yo5cj6nt16tegfh3ife,iHGXDkWP,2020-0188,2020-05-08,10:48:58,11:02:48,NA,incomplete,236,filling,1,left,Red_Circle_Dots_4.jpg,Green_Plus_Dots_1.jpg,Red_Triangle_Stripes_2.jpg,left,698.680000146851,true,high,NA,NA,NA,NA,NA,NA,NA,false
iHGXDkWP,385mdvingfsu7ikqnsjzxyjp4abjww,3634bbtx0s7yo5cj6nt16tegfh3ife,iHGXDkWP,2020-0188,2020-05-08,10:48:58,11:02:48,NA,incomplete,237,filling,1,left,Blue_Plus_Chess_3.jpg,Purple_Star_Chess_1.jpg,Blue_Circle_Grid_4.jpg,left,738.3699999190867,true,high,NA,NA,NA,NA,NA,NA,NA,false
iHGXDkWP,385mdvingfsu7ikqnsjzxyjp4abjww,3634bbtx0s7yo5cj6nt16tegfh3ife,iHGXDkWP,2020-0188,2020-05-08,10:48:58,11:02:48,NA,incomplete,238,filling,1,left,Red_Triangle_Dots_1.jpg,Purple_Circle_Dots_4.jpg,Red_Plus_Grid_2.jpg,left,698.4300001058728,true,high,NA,NA,NA,NA,NA,NA,NA,false
iHGXDkWP,385mdvingfsu7ikqnsjzxyjp4abjww,3634bbtx0s7yo5cj6nt16tegfh3ife,iHGXDkWP,2020-0188,2020-05-08,10:48:58,11:02:48,NA,incomplete,239,filling,1,left,Green_Circle_Dots_1.jpg,Purple_Star_Dots_4.jpg,Green_Triangle_Stripes_2.jpg,left,785.5450001079589,true,high,NA,NA,NA,NA,NA,NA,NA,false
iHGXDkWP,385mdvingfsu7ikqnsjzxyjp4abjww,3634bbtx0s7yo5cj6nt16tegfh3ife,iHGXDkWP,2020-0188,2020-05-08,10:48:58,11:02:48,806049.2799999192,830909.0299999807,NA,NA,NA,NA,NA,NA,NA,NA,NA,NA,NA,39,White/Caucasian,Male,Do not wish to reply,no,yes,no,undefined
