workerId,hitId,assignmentId,subject,studyid,exp_date,exp_start,exp_end,time_start,time_end,trial,type,reward_validity,answer,image_top,image_left,image_right,response,response_time,response_acc,volatility,age,race,gender,ethnicity,color,vision,neuro,practice
zNtNWBTH,3ygyp13654mlicup3w1l36spsdqnrt,36tfcyns48nfswsk0zh2cod9j89xhg,zNtNWBTH,2020-0188,2020-11-14,23:54:55,00:12:12,NA,incomplete,0,filling,1,left,Blue_Plus_Dots_1.jpg,Green_Star_Dots_4.jpg,Blue_Circle_Grid_2.jpg,right,1424.3300000671297,false,NA,NA,NA,NA,NA,NA,NA,NA,true
zNtNWBTH,3ygyp13654mlicup3w1l36spsdqnrt,36tfcyns48nfswsk0zh2cod9j89xhg,zNtNWBTH,2020-0188,2020-11-14,23:54:55,00:12:12,NA,incomplete,1,filling,1,right,Purple_Star_Chess_2.jpg,Purple_Circle_Stripes_1.jpg,Green_Plus_Chess_4.jpg,left,588.2400000700727,false,NA,NA,NA,NA,NA,NA,NA,NA,true
zNtNWBTH,3ygyp13654mlicup3w1l36spsdqnrt,36tfcyns48nfswsk0zh2cod9j89xhg,zNtNWBTH,2020-0188,2020-11-14,23:54:55,00:12:12,NA,incomplete,2,filling,0,right,Green_Star_Grid_3.jpg,Green_Plus_Chess_2.jpg,Blue_Triangle_Grid_1.jpg,right,946.5299999574199,true,NA,NA,NA,NA,NA,NA,NA,NA,true
zNtNWBTH,3ygyp13654mlicup3w1l36spsdqnrt,36tfcyns48nfswsk0zh2cod9j89xhg,zNtNWBTH,2020-0188,2020-11-14,23:54:55,00:12:12,NA,incomplete,3,filling,1,left,Purple_Triangle_Stripes_3.jpg,Red_Plus_Stripes_2.jpg,Purple_Star_Dots_1.jpg,left,1125.040000071749,true,NA,NA,NA,NA,NA,NA,NA,NA,true
zNtNWBTH,3ygyp13654mlicup3w1l36spsdqnrt,36tfcyns48nfswsk0zh2cod9j89xhg,zNtNWBTH,2020-0188,2020-11-14,23:54:55,00:12:12,NA,incomplete,4,filling,1,left,Red_Triangle_Grid_1.jpg,Purple_Plus_Grid_2.jpg,Red_Star_Stripes_3.jpg,left,1093.5699999099597,true,NA,NA,NA,NA,NA,NA,NA,NA,true
zNtNWBTH,3ygyp13654mlicup3w1l36spsdqnrt,36tfcyns48nfswsk0zh2cod9j89xhg,zNtNWBTH,2020-0188,2020-11-14,23:54:55,00:12:12,NA,incomplete,5,filling,0,right,Blue_Circle_Chess_4.jpg,Blue_Plus_Stripes_2.jpg,Green_Triangle_Chess_1.jpg,right,934.8600000375882,true,NA,NA,NA,NA,NA,NA,NA,NA,true
zNtNWBTH,3ygyp13654mlicup3w1l36spsdqnrt,36tfcyns48nfswsk0zh2cod9j89xhg,zNtNWBTH,2020-0188,2020-11-14,23:54:55,00:12:12,NA,incomplete,6,filling,1,left,Purple_Circle_Dots_2.jpg,Blue_Plus_Dots_3.jpg,Purple_Star_Chess_4.jpg,left,1029.4200000353158,true,NA,NA,NA,NA,NA,NA,NA,NA,true
zNtNWBTH,3ygyp13654mlicup3w1l36spsdqnrt,36tfcyns48nfswsk0zh2cod9j89xhg,zNtNWBTH,2020-0188,2020-11-14,23:54:55,00:12:12,NA,incomplete,7,filling,1,left,Purple_Plus_Grid_4.jpg,Red_Triangle_Grid_2.jpg,Purple_Star_Dots_3.jpg,left,1060.605000006035,true,NA,NA,NA,NA,NA,NA,NA,NA,true
zNtNWBTH,3ygyp13654mlicup3w1l36spsdqnrt,36tfcyns48nfswsk0zh2cod9j89xhg,zNtNWBTH,2020-0188,2020-11-14,23:54:55,00:12:12,NA,incomplete,8,filling,1,left,Red_Circle_Grid_1.jpg,Green_Star_Grid_2.jpg,Red_Triangle_Dots_3.jpg,left,919.4050000514835,true,NA,NA,NA,NA,NA,NA,NA,NA,true
zNtNWBTH,3ygyp13654mlicup3w1l36spsdqnrt,36tfcyns48nfswsk0zh2cod9j89xhg,zNtNWBTH,2020-0188,2020-11-14,23:54:55,00:12:12,NA,incomplete,9,filling,0,left,Green_Circle_Grid_1.jpg,Purple_Star_Grid_4.jpg,Green_Plus_Chess_2.jpg,left,924.9300000956282,true,NA,NA,NA,NA,NA,NA,NA,NA,true
zNtNWBTH,3ygyp13654mlicup3w1l36spsdqnrt,36tfcyns48nfswsk0zh2cod9j89xhg,zNtNWBTH,2020-0188,2020-11-14,23:54:55,00:12:12,NA,incomplete,10,filling,1,left,Green_Circle_Chess_3.jpg,Blue_Star_Chess_2.jpg,Green_Plus_Dots_1.jpg,left,806.8249999778345,true,NA,NA,NA,NA,NA,NA,NA,NA,true
zNtNWBTH,3ygyp13654mlicup3w1l36spsdqnrt,36tfcyns48nfswsk0zh2cod9j89xhg,zNtNWBTH,2020-0188,2020-11-14,23:54:55,00:12:12,NA,incomplete,11,filling,1,right,Red_Star_Stripes_1.jpg,Red_Plus_Dots_4.jpg,Green_Triangle_Stripes_3.jpg,right,831.7800000077114,true,NA,NA,NA,NA,NA,NA,NA,NA,true
zNtNWBTH,3ygyp13654mlicup3w1l36spsdqnrt,36tfcyns48nfswsk0zh2cod9j89xhg,zNtNWBTH,2020-0188,2020-11-14,23:54:55,00:12:12,NA,incomplete,12,filling,1,right,Blue_Plus_Chess_1.jpg,Blue_Star_Stripes_2.jpg,Purple_Triangle_Chess_4.jpg,right,883.4050000878051,true,NA,NA,NA,NA,NA,NA,NA,NA,true
zNtNWBTH,3ygyp13654mlicup3w1l36spsdqnrt,36tfcyns48nfswsk0zh2cod9j89xhg,zNtNWBTH,2020-0188,2020-11-14,23:54:55,00:12:12,NA,incomplete,13,filling,1,left,Red_Circle_Chess_1.jpg,Purple_Star_Chess_2.jpg,Red_Plus_Dots_4.jpg,left,892.9650000063702,true,NA,NA,NA,NA,NA,NA,NA,NA,true
zNtNWBTH,3ygyp13654mlicup3w1l36spsdqnrt,36tfcyns48nfswsk0zh2cod9j89xhg,zNtNWBTH,2020-0188,2020-11-14,23:54:55,00:12:12,NA,incomplete,14,filling,1,left,Green_Star_Chess_1.jpg,Red_Circle_Chess_2.jpg,Green_Triangle_Stripes_4.jpg,left,963.7149999616668,true,NA,NA,NA,NA,NA,NA,NA,NA,true
zNtNWBTH,3ygyp13654mlicup3w1l36spsdqnrt,36tfcyns48nfswsk0zh2cod9j89xhg,zNtNWBTH,2020-0188,2020-11-14,23:54:55,00:12:12,NA,incomplete,15,filling,0,right,Green_Triangle_Grid_4.jpg,Green_Circle_Stripes_2.jpg,Purple_Plus_Grid_1.jpg,right,957.1149999974295,true,NA,NA,NA,NA,NA,NA,NA,NA,true
zNtNWBTH,3ygyp13654mlicup3w1l36spsdqnrt,36tfcyns48nfswsk0zh2cod9j89xhg,zNtNWBTH,2020-0188,2020-11-14,23:54:55,00:12:12,NA,incomplete,16,filling,1,right,Red_Plus_Stripes_2.jpg,Red_Star_Grid_4.jpg,Green_Triangle_Stripes_3.jpg,right,884.6400000620633,true,NA,NA,NA,NA,NA,NA,NA,NA,true
zNtNWBTH,3ygyp13654mlicup3w1l36spsdqnrt,36tfcyns48nfswsk0zh2cod9j89xhg,zNtNWBTH,2020-0188,2020-11-14,23:54:55,00:12:12,NA,incomplete,17,filling,1,right,Red_Circle_Dots_2.jpg,Red_Triangle_Grid_1.jpg,Green_Star_Dots_4.jpg,right,1278.9099999936298,true,NA,NA,NA,NA,NA,NA,NA,NA,true
zNtNWBTH,3ygyp13654mlicup3w1l36spsdqnrt,36tfcyns48nfswsk0zh2cod9j89xhg,zNtNWBTH,2020-0188,2020-11-14,23:54:55,00:12:12,NA,incomplete,18,filling,1,left,Red_Circle_Chess_3.jpg,Blue_Triangle_Chess_1.jpg,Red_Plus_Dots_4.jpg,left,892.5699999090284,true,NA,NA,NA,NA,NA,NA,NA,NA,true
zNtNWBTH,3ygyp13654mlicup3w1l36spsdqnrt,36tfcyns48nfswsk0zh2cod9j89xhg,zNtNWBTH,2020-0188,2020-11-14,23:54:55,00:12:12,NA,incomplete,19,filling,1,left,Blue_Triangle_Chess_1.jpg,Green_Star_Chess_3.jpg,Blue_Plus_Stripes_2.jpg,left,1546.6849999502301,true,NA,NA,NA,NA,NA,NA,NA,NA,true
zNtNWBTH,3ygyp13654mlicup3w1l36spsdqnrt,36tfcyns48nfswsk0zh2cod9j89xhg,zNtNWBTH,2020-0188,2020-11-14,23:54:55,00:12:12,NA,incomplete,20,color,1,right,Purple_Star_Stripes_2.jpg,Red_Circle_Stripes_3.jpg,Purple_Triangle_Dots_4.jpg,left,943.4949998976663,false,NA,NA,NA,NA,NA,NA,NA,NA,true
zNtNWBTH,3ygyp13654mlicup3w1l36spsdqnrt,36tfcyns48nfswsk0zh2cod9j89xhg,zNtNWBTH,2020-0188,2020-11-14,23:54:55,00:12:12,NA,incomplete,21,color,1,left,Purple_Circle_Grid_1.jpg,Purple_Star_Chess_4.jpg,Red_Triangle_Grid_3.jpg,right,949.7050000354648,false,NA,NA,NA,NA,NA,NA,NA,NA,true
zNtNWBTH,3ygyp13654mlicup3w1l36spsdqnrt,36tfcyns48nfswsk0zh2cod9j89xhg,zNtNWBTH,2020-0188,2020-11-14,23:54:55,00:12:12,NA,incomplete,22,color,1,left,Blue_Plus_Dots_1.jpg,Blue_Star_Chess_2.jpg,Green_Circle_Dots_4.jpg,left,953.7100000306964,true,NA,NA,NA,NA,NA,NA,NA,NA,true
zNtNWBTH,3ygyp13654mlicup3w1l36spsdqnrt,36tfcyns48nfswsk0zh2cod9j89xhg,zNtNWBTH,2020-0188,2020-11-14,23:54:55,00:12:12,NA,incomplete,23,color,1,right,Purple_Star_Chess_2.jpg,Red_Circle_Chess_3.jpg,Purple_Triangle_Stripes_4.jpg,right,604.1800000239164,true,NA,NA,NA,NA,NA,NA,NA,NA,true
zNtNWBTH,3ygyp13654mlicup3w1l36spsdqnrt,36tfcyns48nfswsk0zh2cod9j89xhg,zNtNWBTH,2020-0188,2020-11-14,23:54:55,00:12:12,NA,incomplete,24,color,1,left,Red_Plus_Dots_4.jpg,Red_Star_Chess_3.jpg,Green_Circle_Dots_1.jpg,left,546.7199999839067,true,NA,NA,NA,NA,NA,NA,NA,NA,true
zNtNWBTH,3ygyp13654mlicup3w1l36spsdqnrt,36tfcyns48nfswsk0zh2cod9j89xhg,zNtNWBTH,2020-0188,2020-11-14,23:54:55,00:12:12,NA,incomplete,25,color,0,left,Green_Plus_Stripes_2.jpg,Green_Star_Chess_1.jpg,Blue_Circle_Stripes_3.jpg,left,561.8450000183657,true,NA,NA,NA,NA,NA,NA,NA,NA,true
zNtNWBTH,3ygyp13654mlicup3w1l36spsdqnrt,36tfcyns48nfswsk0zh2cod9j89xhg,zNtNWBTH,2020-0188,2020-11-14,23:54:55,00:12:12,NA,incomplete,26,color,1,right,Purple_Circle_Stripes_2.jpg,Blue_Plus_Stripes_4.jpg,Purple_Triangle_Grid_3.jpg,right,558.045000070706,true,NA,NA,NA,NA,NA,NA,NA,NA,true
zNtNWBTH,3ygyp13654mlicup3w1l36spsdqnrt,36tfcyns48nfswsk0zh2cod9j89xhg,zNtNWBTH,2020-0188,2020-11-14,23:54:55,00:12:12,NA,incomplete,27,color,1,left,Purple_Circle_Grid_1.jpg,Purple_Triangle_Chess_4.jpg,Red_Star_Grid_2.jpg,left,527.2049999330193,true,NA,NA,NA,NA,NA,NA,NA,NA,true
zNtNWBTH,3ygyp13654mlicup3w1l36spsdqnrt,36tfcyns48nfswsk0zh2cod9j89xhg,zNtNWBTH,2020-0188,2020-11-14,23:54:55,00:12:12,NA,incomplete,28,color,1,left,Red_Star_Grid_2.jpg,Red_Circle_Stripes_4.jpg,Green_Triangle_Grid_1.jpg,left,511.3649999257177,true,NA,NA,NA,NA,NA,NA,NA,NA,true
zNtNWBTH,3ygyp13654mlicup3w1l36spsdqnrt,36tfcyns48nfswsk0zh2cod9j89xhg,zNtNWBTH,2020-0188,2020-11-14,23:54:55,00:12:12,NA,incomplete,29,color,0,right,Purple_Triangle_Stripes_1.jpg,Blue_Circle_Stripes_3.jpg,Purple_Plus_Dots_4.jpg,right,491.3999999407679,true,NA,NA,NA,NA,NA,NA,NA,NA,true
zNtNWBTH,3ygyp13654mlicup3w1l36spsdqnrt,36tfcyns48nfswsk0zh2cod9j89xhg,zNtNWBTH,2020-0188,2020-11-14,23:54:55,00:12:12,NA,incomplete,30,color,1,right,Green_Plus_Stripes_4.jpg,Red_Star_Stripes_1.jpg,Green_Triangle_Dots_3.jpg,right,515.114999958314,true,NA,NA,NA,NA,NA,NA,NA,NA,true
zNtNWBTH,3ygyp13654mlicup3w1l36spsdqnrt,36tfcyns48nfswsk0zh2cod9j89xhg,zNtNWBTH,2020-0188,2020-11-14,23:54:55,00:12:12,NA,incomplete,31,color,1,right,Blue_Circle_Stripes_4.jpg,Green_Star_Stripes_1.jpg,Blue_Triangle_Grid_3.jpg,right,524.7750000562519,true,NA,NA,NA,NA,NA,NA,NA,NA,true
zNtNWBTH,3ygyp13654mlicup3w1l36spsdqnrt,36tfcyns48nfswsk0zh2cod9j89xhg,zNtNWBTH,2020-0188,2020-11-14,23:54:55,00:12:12,NA,incomplete,32,color,1,right,Green_Circle_Chess_4.jpg,Blue_Plus_Chess_3.jpg,Green_Triangle_Dots_1.jpg,right,739.8899999679998,true,NA,NA,NA,NA,NA,NA,NA,NA,true
zNtNWBTH,3ygyp13654mlicup3w1l36spsdqnrt,36tfcyns48nfswsk0zh2cod9j89xhg,zNtNWBTH,2020-0188,2020-11-14,23:54:55,00:12:12,NA,incomplete,33,color,1,left,Red_Plus_Stripes_2.jpg,Red_Triangle_Dots_4.jpg,Green_Circle_Stripes_3.jpg,left,514.1900000162423,true,NA,NA,NA,NA,NA,NA,NA,NA,true
zNtNWBTH,3ygyp13654mlicup3w1l36spsdqnrt,36tfcyns48nfswsk0zh2cod9j89xhg,zNtNWBTH,2020-0188,2020-11-14,23:54:55,00:12:12,NA,incomplete,34,color,1,right,Red_Plus_Stripes_4.jpg,Purple_Triangle_Stripes_3.jpg,Red_Star_Chess_1.jpg,right,477.87499998230487,true,NA,NA,NA,NA,NA,NA,NA,NA,true
zNtNWBTH,3ygyp13654mlicup3w1l36spsdqnrt,36tfcyns48nfswsk0zh2cod9j89xhg,zNtNWBTH,2020-0188,2020-11-14,23:54:55,00:12:12,NA,incomplete,35,color,1,left,Red_Plus_Grid_2.jpg,Red_Triangle_Dots_3.jpg,Purple_Star_Grid_4.jpg,left,544.7350000031292,true,NA,NA,NA,NA,NA,NA,NA,NA,true
zNtNWBTH,3ygyp13654mlicup3w1l36spsdqnrt,36tfcyns48nfswsk0zh2cod9j89xhg,zNtNWBTH,2020-0188,2020-11-14,23:54:55,00:12:12,NA,incomplete,36,color,1,left,Blue_Circle_Stripes_2.jpg,Blue_Star_Grid_4.jpg,Purple_Triangle_Stripes_1.jpg,left,523.2950000790879,true,NA,NA,NA,NA,NA,NA,NA,NA,true
zNtNWBTH,3ygyp13654mlicup3w1l36spsdqnrt,36tfcyns48nfswsk0zh2cod9j89xhg,zNtNWBTH,2020-0188,2020-11-14,23:54:55,00:12:12,NA,incomplete,37,color,0,left,Red_Star_Dots_3.jpg,Red_Plus_Stripes_2.jpg,Green_Circle_Dots_4.jpg,left,656.6449999809265,true,NA,NA,NA,NA,NA,NA,NA,NA,true
zNtNWBTH,3ygyp13654mlicup3w1l36spsdqnrt,36tfcyns48nfswsk0zh2cod9j89xhg,zNtNWBTH,2020-0188,2020-11-14,23:54:55,00:12:12,NA,incomplete,38,color,1,right,Red_Plus_Stripes_1.jpg,Purple_Circle_Stripes_2.jpg,Red_Triangle_Chess_4.jpg,right,517.1400000108406,true,NA,NA,NA,NA,NA,NA,NA,NA,true
zNtNWBTH,3ygyp13654mlicup3w1l36spsdqnrt,36tfcyns48nfswsk0zh2cod9j89xhg,zNtNWBTH,2020-0188,2020-11-14,23:54:55,00:12:12,NA,incomplete,39,color,0,left,Purple_Star_Stripes_3.jpg,Purple_Plus_Chess_1.jpg,Red_Circle_Stripes_2.jpg,left,492.25000001024455,true,NA,NA,NA,NA,NA,NA,NA,NA,true
zNtNWBTH,3ygyp13654mlicup3w1l36spsdqnrt,36tfcyns48nfswsk0zh2cod9j89xhg,zNtNWBTH,2020-0188,2020-11-14,23:54:55,00:12:12,NA,incomplete,0,filling,1,left,Purple_Circle_Dots_2.jpg,Green_Plus_Dots_1.jpg,Purple_Triangle_Chess_3.jpg,right,960.8650000300258,false,high,NA,NA,NA,NA,NA,NA,NA,false
zNtNWBTH,3ygyp13654mlicup3w1l36spsdqnrt,36tfcyns48nfswsk0zh2cod9j89xhg,zNtNWBTH,2020-0188,2020-11-14,23:54:55,00:12:12,NA,incomplete,1,filling,1,right,Green_Plus_Stripes_2.jpg,Green_Triangle_Chess_3.jpg,Blue_Circle_Stripes_1.jpg,left,654.6899999957532,false,high,NA,NA,NA,NA,NA,NA,NA,false
zNtNWBTH,3ygyp13654mlicup3w1l36spsdqnrt,36tfcyns48nfswsk0zh2cod9j89xhg,zNtNWBTH,2020-0188,2020-11-14,23:54:55,00:12:12,NA,incomplete,2,filling,1,right,Red_Star_Grid_3.jpg,Red_Plus_Chess_1.jpg,Green_Circle_Grid_4.jpg,right,885.8150000451133,true,high,NA,NA,NA,NA,NA,NA,NA,false
zNtNWBTH,3ygyp13654mlicup3w1l36spsdqnrt,36tfcyns48nfswsk0zh2cod9j89xhg,zNtNWBTH,2020-0188,2020-11-14,23:54:55,00:12:12,NA,incomplete,3,filling,1,right,Red_Star_Chess_4.jpg,Red_Circle_Dots_3.jpg,Purple_Triangle_Chess_2.jpg,right,755.9350000228733,true,high,NA,NA,NA,NA,NA,NA,NA,false
zNtNWBTH,3ygyp13654mlicup3w1l36spsdqnrt,36tfcyns48nfswsk0zh2cod9j89xhg,zNtNWBTH,2020-0188,2020-11-14,23:54:55,00:12:12,NA,incomplete,4,filling,1,left,Green_Plus_Stripes_1.jpg,Red_Star_Stripes_2.jpg,Green_Circle_Grid_3.jpg,right,837.5050000613555,false,high,NA,NA,NA,NA,NA,NA,NA,false
zNtNWBTH,3ygyp13654mlicup3w1l36spsdqnrt,36tfcyns48nfswsk0zh2cod9j89xhg,zNtNWBTH,2020-0188,2020-11-14,23:54:55,00:12:12,NA,incomplete,5,filling,0,right,Red_Plus_Stripes_1.jpg,Red_Triangle_Grid_4.jpg,Purple_Star_Stripes_2.jpg,right,1246.3299999944866,true,high,NA,NA,NA,NA,NA,NA,NA,false
zNtNWBTH,3ygyp13654mlicup3w1l36spsdqnrt,36tfcyns48nfswsk0zh2cod9j89xhg,zNtNWBTH,2020-0188,2020-11-14,23:54:55,00:12:12,NA,incomplete,6,filling,1,left,Purple_Circle_Grid_2.jpg,Green_Triangle_Grid_1.jpg,Purple_Star_Stripes_4.jpg,left,957.6200000010431,true,high,NA,NA,NA,NA,NA,NA,NA,false
zNtNWBTH,3ygyp13654mlicup3w1l36spsdqnrt,36tfcyns48nfswsk0zh2cod9j89xhg,zNtNWBTH,2020-0188,2020-11-14,23:54:55,00:12:12,NA,incomplete,7,filling,1,right,Purple_Circle_Chess_4.jpg,Purple_Plus_Grid_3.jpg,Blue_Star_Chess_1.jpg,right,909.0599999763072,true,high,NA,NA,NA,NA,NA,NA,NA,false
zNtNWBTH,3ygyp13654mlicup3w1l36spsdqnrt,36tfcyns48nfswsk0zh2cod9j89xhg,zNtNWBTH,2020-0188,2020-11-14,23:54:55,00:12:12,NA,incomplete,8,filling,0,left,Red_Circle_Stripes_3.jpg,Green_Star_Stripes_4.jpg,Red_Triangle_Chess_2.jpg,left,824.3099999381229,true,high,NA,NA,NA,NA,NA,NA,NA,false
zNtNWBTH,3ygyp13654mlicup3w1l36spsdqnrt,36tfcyns48nfswsk0zh2cod9j89xhg,zNtNWBTH,2020-0188,2020-11-14,23:54:55,00:12:12,NA,incomplete,9,filling,1,left,Blue_Star_Stripes_2.jpg,Red_Plus_Stripes_1.jpg,Blue_Circle_Dots_4.jpg,left,917.8499999688938,true,high,NA,NA,NA,NA,NA,NA,NA,false
zNtNWBTH,3ygyp13654mlicup3w1l36spsdqnrt,36tfcyns48nfswsk0zh2cod9j89xhg,zNtNWBTH,2020-0188,2020-11-14,23:54:55,00:12:12,NA,incomplete,10,color,1,right,Blue_Plus_Grid_2.jpg,Green_Star_Grid_3.jpg,Blue_Triangle_Chess_4.jpg,left,900.7399999536574,false,high,NA,NA,NA,NA,NA,NA,NA,false
zNtNWBTH,3ygyp13654mlicup3w1l36spsdqnrt,36tfcyns48nfswsk0zh2cod9j89xhg,zNtNWBTH,2020-0188,2020-11-14,23:54:55,00:12:12,NA,incomplete,11,color,0,right,Green_Triangle_Dots_4.jpg,Red_Star_Dots_1.jpg,Green_Plus_Grid_2.jpg,left,1170.4250000184402,false,high,NA,NA,NA,NA,NA,NA,NA,false
zNtNWBTH,3ygyp13654mlicup3w1l36spsdqnrt,36tfcyns48nfswsk0zh2cod9j89xhg,zNtNWBTH,2020-0188,2020-11-14,23:54:55,00:12:12,NA,incomplete,12,color,1,left,Blue_Star_Stripes_4.jpg,Blue_Triangle_Dots_3.jpg,Red_Plus_Stripes_1.jpg,right,1020.2300000237301,false,high,NA,NA,NA,NA,NA,NA,NA,false
zNtNWBTH,3ygyp13654mlicup3w1l36spsdqnrt,36tfcyns48nfswsk0zh2cod9j89xhg,zNtNWBTH,2020-0188,2020-11-14,23:54:55,00:12:12,NA,incomplete,13,color,0,left,Blue_Plus_Stripes_3.jpg,Blue_Triangle_Chess_4.jpg,Red_Star_Stripes_2.jpg,left,713.8600000180304,true,high,NA,NA,NA,NA,NA,NA,NA,false
zNtNWBTH,3ygyp13654mlicup3w1l36spsdqnrt,36tfcyns48nfswsk0zh2cod9j89xhg,zNtNWBTH,2020-0188,2020-11-14,23:54:55,00:12:12,NA,incomplete,14,color,1,left,Blue_Triangle_Grid_2.jpg,Blue_Circle_Dots_3.jpg,Red_Star_Grid_1.jpg,left,721.5650000143796,true,high,NA,NA,NA,NA,NA,NA,NA,false
zNtNWBTH,3ygyp13654mlicup3w1l36spsdqnrt,36tfcyns48nfswsk0zh2cod9j89xhg,zNtNWBTH,2020-0188,2020-11-14,23:54:55,00:12:12,NA,incomplete,15,color,1,left,Green_Triangle_Grid_2.jpg,Green_Star_Chess_4.jpg,Purple_Plus_Grid_3.jpg,left,787.3300000792369,true,high,NA,NA,NA,NA,NA,NA,NA,false
zNtNWBTH,3ygyp13654mlicup3w1l36spsdqnrt,36tfcyns48nfswsk0zh2cod9j89xhg,zNtNWBTH,2020-0188,2020-11-14,23:54:55,00:12:12,NA,incomplete,16,color,1,right,Blue_Star_Stripes_1.jpg,Purple_Circle_Stripes_3.jpg,Blue_Plus_Dots_2.jpg,right,526.0800000978634,true,high,NA,NA,NA,NA,NA,NA,NA,false
zNtNWBTH,3ygyp13654mlicup3w1l36spsdqnrt,36tfcyns48nfswsk0zh2cod9j89xhg,zNtNWBTH,2020-0188,2020-11-14,23:54:55,00:12:12,NA,incomplete,17,color,0,left,Green_Plus_Chess_1.jpg,Green_Star_Grid_2.jpg,Red_Triangle_Chess_4.jpg,left,516.2849999032915,true,high,NA,NA,NA,NA,NA,NA,NA,false
zNtNWBTH,3ygyp13654mlicup3w1l36spsdqnrt,36tfcyns48nfswsk0zh2cod9j89xhg,zNtNWBTH,2020-0188,2020-11-14,23:54:55,00:12:12,NA,incomplete,18,color,0,right,Green_Plus_Chess_2.jpg,Purple_Circle_Chess_1.jpg,Green_Star_Grid_4.jpg,right,507.8399999765679,true,high,NA,NA,NA,NA,NA,NA,NA,false
zNtNWBTH,3ygyp13654mlicup3w1l36spsdqnrt,36tfcyns48nfswsk0zh2cod9j89xhg,zNtNWBTH,2020-0188,2020-11-14,23:54:55,00:12:12,NA,incomplete,19,color,1,left,Red_Triangle_Grid_1.jpg,Red_Circle_Dots_2.jpg,Green_Star_Grid_3.jpg,left,1140.7650000182912,true,high,NA,NA,NA,NA,NA,NA,NA,false
zNtNWBTH,3ygyp13654mlicup3w1l36spsdqnrt,36tfcyns48nfswsk0zh2cod9j89xhg,zNtNWBTH,2020-0188,2020-11-14,23:54:55,00:12:12,NA,incomplete,20,filling,1,left,Red_Star_Stripes_3.jpg,Green_Plus_Stripes_1.jpg,Red_Triangle_Grid_4.jpg,right,745.2799999155104,false,high,NA,NA,NA,NA,NA,NA,NA,false
zNtNWBTH,3ygyp13654mlicup3w1l36spsdqnrt,36tfcyns48nfswsk0zh2cod9j89xhg,zNtNWBTH,2020-0188,2020-11-14,23:54:55,00:12:12,NA,incomplete,21,filling,0,left,Red_Circle_Chess_4.jpg,Blue_Triangle_Chess_3.jpg,Red_Plus_Stripes_2.jpg,left,1706.6849999828264,true,high,NA,NA,NA,NA,NA,NA,NA,false
zNtNWBTH,3ygyp13654mlicup3w1l36spsdqnrt,36tfcyns48nfswsk0zh2cod9j89xhg,zNtNWBTH,2020-0188,2020-11-14,23:54:55,00:12:12,NA,incomplete,22,filling,1,right,Blue_Star_Grid_2.jpg,Blue_Triangle_Chess_3.jpg,Red_Plus_Grid_1.jpg,left,1221.5200000209734,false,high,NA,NA,NA,NA,NA,NA,NA,false
zNtNWBTH,3ygyp13654mlicup3w1l36spsdqnrt,36tfcyns48nfswsk0zh2cod9j89xhg,zNtNWBTH,2020-0188,2020-11-14,23:54:55,00:12:12,NA,incomplete,23,filling,1,right,Blue_Triangle_Chess_4.jpg,Blue_Plus_Grid_2.jpg,Green_Star_Chess_1.jpg,right,897.2350000403821,true,high,NA,NA,NA,NA,NA,NA,NA,false
zNtNWBTH,3ygyp13654mlicup3w1l36spsdqnrt,36tfcyns48nfswsk0zh2cod9j89xhg,zNtNWBTH,2020-0188,2020-11-14,23:54:55,00:12:12,NA,incomplete,24,filling,1,left,Blue_Star_Dots_1.jpg,Green_Circle_Dots_3.jpg,Blue_Plus_Stripes_2.jpg,right,952.3000000044703,false,high,NA,NA,NA,NA,NA,NA,NA,false
zNtNWBTH,3ygyp13654mlicup3w1l36spsdqnrt,36tfcyns48nfswsk0zh2cod9j89xhg,zNtNWBTH,2020-0188,2020-11-14,23:54:55,00:12:12,NA,incomplete,25,filling,1,left,Blue_Plus_Stripes_4.jpg,Green_Triangle_Stripes_2.jpg,Blue_Star_Grid_1.jpg,left,856.3700000522658,true,high,NA,NA,NA,NA,NA,NA,NA,false
zNtNWBTH,3ygyp13654mlicup3w1l36spsdqnrt,36tfcyns48nfswsk0zh2cod9j89xhg,zNtNWBTH,2020-0188,2020-11-14,23:54:55,00:12:12,NA,incomplete,26,filling,1,right,Blue_Triangle_Chess_3.jpg,Blue_Plus_Grid_2.jpg,Purple_Circle_Chess_1.jpg,right,872.4399999482557,true,high,NA,NA,NA,NA,NA,NA,NA,false
zNtNWBTH,3ygyp13654mlicup3w1l36spsdqnrt,36tfcyns48nfswsk0zh2cod9j89xhg,zNtNWBTH,2020-0188,2020-11-14,23:54:55,00:12:12,NA,incomplete,27,filling,1,left,Red_Plus_Grid_2.jpg,Purple_Star_Grid_4.jpg,Red_Circle_Stripes_3.jpg,left,883.0200000666082,true,high,NA,NA,NA,NA,NA,NA,NA,false
zNtNWBTH,3ygyp13654mlicup3w1l36spsdqnrt,36tfcyns48nfswsk0zh2cod9j89xhg,zNtNWBTH,2020-0188,2020-11-14,23:54:55,00:12:12,NA,incomplete,28,filling,1,left,Purple_Star_Stripes_1.jpg,Blue_Plus_Stripes_3.jpg,Purple_Triangle_Chess_2.jpg,left,1091.6799999540672,true,high,NA,NA,NA,NA,NA,NA,NA,false
zNtNWBTH,3ygyp13654mlicup3w1l36spsdqnrt,36tfcyns48nfswsk0zh2cod9j89xhg,zNtNWBTH,2020-0188,2020-11-14,23:54:55,00:12:12,NA,incomplete,29,filling,1,left,Green_Circle_Grid_3.jpg,Blue_Triangle_Grid_2.jpg,Green_Star_Stripes_1.jpg,left,830.8950000209734,true,high,NA,NA,NA,NA,NA,NA,NA,false
zNtNWBTH,3ygyp13654mlicup3w1l36spsdqnrt,36tfcyns48nfswsk0zh2cod9j89xhg,zNtNWBTH,2020-0188,2020-11-14,23:54:55,00:12:12,NA,incomplete,30,color,0,left,Green_Triangle_Chess_4.jpg,Green_Star_Grid_3.jpg,Red_Circle_Chess_2.jpg,right,741.7750000022352,false,high,NA,NA,NA,NA,NA,NA,NA,false
zNtNWBTH,3ygyp13654mlicup3w1l36spsdqnrt,36tfcyns48nfswsk0zh2cod9j89xhg,zNtNWBTH,2020-0188,2020-11-14,23:54:55,00:12:12,NA,incomplete,31,color,0,left,Blue_Triangle_Grid_4.jpg,Blue_Star_Dots_3.jpg,Purple_Circle_Grid_1.jpg,right,809.0450000017881,false,high,NA,NA,NA,NA,NA,NA,NA,false
zNtNWBTH,3ygyp13654mlicup3w1l36spsdqnrt,36tfcyns48nfswsk0zh2cod9j89xhg,zNtNWBTH,2020-0188,2020-11-14,23:54:55,00:12:12,NA,incomplete,32,color,1,right,Blue_Star_Grid_4.jpg,Green_Triangle_Grid_3.jpg,Blue_Plus_Stripes_1.jpg,left,921.7499999795109,false,high,NA,NA,NA,NA,NA,NA,NA,false
zNtNWBTH,3ygyp13654mlicup3w1l36spsdqnrt,36tfcyns48nfswsk0zh2cod9j89xhg,zNtNWBTH,2020-0188,2020-11-14,23:54:55,00:12:12,NA,incomplete,33,color,1,right,Green_Plus_Stripes_1.jpg,Purple_Star_Stripes_3.jpg,Green_Triangle_Chess_2.jpg,left,942.8850000258535,false,high,NA,NA,NA,NA,NA,NA,NA,false
zNtNWBTH,3ygyp13654mlicup3w1l36spsdqnrt,36tfcyns48nfswsk0zh2cod9j89xhg,zNtNWBTH,2020-0188,2020-11-14,23:54:55,00:12:12,NA,incomplete,34,color,1,left,Green_Plus_Stripes_3.jpg,Green_Star_Chess_4.jpg,Blue_Circle_Stripes_1.jpg,right,1090.9399999072775,false,high,NA,NA,NA,NA,NA,NA,NA,false
zNtNWBTH,3ygyp13654mlicup3w1l36spsdqnrt,36tfcyns48nfswsk0zh2cod9j89xhg,zNtNWBTH,2020-0188,2020-11-14,23:54:55,00:12:12,NA,incomplete,35,color,0,right,Purple_Star_Stripes_1.jpg,Green_Triangle_Stripes_3.jpg,Purple_Circle_Grid_4.jpg,left,883.765000035055,false,high,NA,NA,NA,NA,NA,NA,NA,false
zNtNWBTH,3ygyp13654mlicup3w1l36spsdqnrt,36tfcyns48nfswsk0zh2cod9j89xhg,zNtNWBTH,2020-0188,2020-11-14,23:54:55,00:12:12,NA,incomplete,36,color,1,left,Purple_Star_Grid_4.jpg,Purple_Triangle_Stripes_3.jpg,Green_Circle_Grid_1.jpg,right,919.4349999306723,false,high,NA,NA,NA,NA,NA,NA,NA,false
zNtNWBTH,3ygyp13654mlicup3w1l36spsdqnrt,36tfcyns48nfswsk0zh2cod9j89xhg,zNtNWBTH,2020-0188,2020-11-14,23:54:55,00:12:12,NA,incomplete,37,color,1,left,Green_Star_Chess_2.jpg,Green_Triangle_Grid_1.jpg,Purple_Plus_Chess_3.jpg,left,1052.8649999760091,true,high,NA,NA,NA,NA,NA,NA,NA,false
zNtNWBTH,3ygyp13654mlicup3w1l36spsdqnrt,36tfcyns48nfswsk0zh2cod9j89xhg,zNtNWBTH,2020-0188,2020-11-14,23:54:55,00:12:12,NA,incomplete,38,color,1,left,Blue_Plus_Stripes_1.jpg,Blue_Star_Grid_4.jpg,Green_Circle_Stripes_3.jpg,right,1009.9199999822304,false,high,NA,NA,NA,NA,NA,NA,NA,false
zNtNWBTH,3ygyp13654mlicup3w1l36spsdqnrt,36tfcyns48nfswsk0zh2cod9j89xhg,zNtNWBTH,2020-0188,2020-11-14,23:54:55,00:12:12,NA,incomplete,39,color,1,left,Red_Circle_Grid_4.jpg,Red_Plus_Stripes_2.jpg,Blue_Triangle_Grid_3.jpg,right,1030.045000021346,false,high,NA,NA,NA,NA,NA,NA,NA,false
zNtNWBTH,3ygyp13654mlicup3w1l36spsdqnrt,36tfcyns48nfswsk0zh2cod9j89xhg,zNtNWBTH,2020-0188,2020-11-14,23:54:55,00:12:12,NA,incomplete,40,filling,1,left,Purple_Circle_Dots_3.jpg,Red_Plus_Dots_4.jpg,Purple_Triangle_Chess_2.jpg,left,1100.800000014715,true,high,NA,NA,NA,NA,NA,NA,NA,false
zNtNWBTH,3ygyp13654mlicup3w1l36spsdqnrt,36tfcyns48nfswsk0zh2cod9j89xhg,zNtNWBTH,2020-0188,2020-11-14,23:54:55,00:12:12,NA,incomplete,41,filling,1,left,Purple_Plus_Stripes_4.jpg,Blue_Triangle_Stripes_2.jpg,Purple_Circle_Dots_3.jpg,left,940.6849999213591,true,high,NA,NA,NA,NA,NA,NA,NA,false
zNtNWBTH,3ygyp13654mlicup3w1l36spsdqnrt,36tfcyns48nfswsk0zh2cod9j89xhg,zNtNWBTH,2020-0188,2020-11-14,23:54:55,00:12:12,NA,incomplete,42,filling,0,left,Red_Plus_Grid_3.jpg,Green_Star_Grid_1.jpg,Red_Triangle_Dots_2.jpg,left,1002.2149999858811,true,high,NA,NA,NA,NA,NA,NA,NA,false
zNtNWBTH,3ygyp13654mlicup3w1l36spsdqnrt,36tfcyns48nfswsk0zh2cod9j89xhg,zNtNWBTH,2020-0188,2020-11-14,23:54:55,00:12:12,NA,incomplete,43,filling,1,left,Blue_Circle_Chess_1.jpg,Green_Triangle_Chess_2.jpg,Blue_Plus_Grid_4.jpg,left,945.4050000058487,true,high,NA,NA,NA,NA,NA,NA,NA,false
zNtNWBTH,3ygyp13654mlicup3w1l36spsdqnrt,36tfcyns48nfswsk0zh2cod9j89xhg,zNtNWBTH,2020-0188,2020-11-14,23:54:55,00:12:12,NA,incomplete,44,filling,0,left,Red_Triangle_Chess_2.jpg,Purple_Circle_Chess_1.jpg,Red_Star_Dots_4.jpg,left,887.5349999871105,true,high,NA,NA,NA,NA,NA,NA,NA,false
zNtNWBTH,3ygyp13654mlicup3w1l36spsdqnrt,36tfcyns48nfswsk0zh2cod9j89xhg,zNtNWBTH,2020-0188,2020-11-14,23:54:55,00:12:12,NA,incomplete,45,filling,1,right,Purple_Plus_Grid_2.jpg,Purple_Circle_Chess_1.jpg,Blue_Star_Grid_3.jpg,right,923.5950000584126,true,high,NA,NA,NA,NA,NA,NA,NA,false
zNtNWBTH,3ygyp13654mlicup3w1l36spsdqnrt,36tfcyns48nfswsk0zh2cod9j89xhg,zNtNWBTH,2020-0188,2020-11-14,23:54:55,00:12:12,NA,incomplete,46,filling,1,right,Blue_Star_Stripes_3.jpg,Blue_Plus_Chess_1.jpg,Red_Triangle_Stripes_4.jpg,right,1033.4100000327453,true,high,NA,NA,NA,NA,NA,NA,NA,false
zNtNWBTH,3ygyp13654mlicup3w1l36spsdqnrt,36tfcyns48nfswsk0zh2cod9j89xhg,zNtNWBTH,2020-0188,2020-11-14,23:54:55,00:12:12,NA,incomplete,47,filling,1,left,Red_Circle_Stripes_1.jpg,Green_Plus_Stripes_4.jpg,Red_Star_Chess_3.jpg,left,1115.9450000850484,true,high,NA,NA,NA,NA,NA,NA,NA,false
zNtNWBTH,3ygyp13654mlicup3w1l36spsdqnrt,36tfcyns48nfswsk0zh2cod9j89xhg,zNtNWBTH,2020-0188,2020-11-14,23:54:55,00:12:12,NA,incomplete,48,filling,0,left,Red_Plus_Chess_2.jpg,Blue_Star_Chess_3.jpg,Red_Circle_Stripes_4.jpg,left,846.9899999909103,true,high,NA,NA,NA,NA,NA,NA,NA,false
zNtNWBTH,3ygyp13654mlicup3w1l36spsdqnrt,36tfcyns48nfswsk0zh2cod9j89xhg,zNtNWBTH,2020-0188,2020-11-14,23:54:55,00:12:12,NA,incomplete,49,filling,1,left,Purple_Plus_Chess_3.jpg,Blue_Star_Chess_2.jpg,Purple_Triangle_Grid_1.jpg,left,1055.155000067316,true,high,NA,NA,NA,NA,NA,NA,NA,false
zNtNWBTH,3ygyp13654mlicup3w1l36spsdqnrt,36tfcyns48nfswsk0zh2cod9j89xhg,zNtNWBTH,2020-0188,2020-11-14,23:54:55,00:12:12,NA,incomplete,50,color,1,left,Blue_Star_Dots_3.jpg,Blue_Plus_Chess_4.jpg,Red_Circle_Dots_2.jpg,right,939.4650000613183,false,high,NA,NA,NA,NA,NA,NA,NA,false
zNtNWBTH,3ygyp13654mlicup3w1l36spsdqnrt,36tfcyns48nfswsk0zh2cod9j89xhg,zNtNWBTH,2020-0188,2020-11-14,23:54:55,00:12:12,NA,incomplete,51,color,0,left,Green_Triangle_Grid_2.jpg,Green_Plus_Stripes_3.jpg,Red_Star_Grid_4.jpg,right,995.0950000202283,false,high,NA,NA,NA,NA,NA,NA,NA,false
zNtNWBTH,3ygyp13654mlicup3w1l36spsdqnrt,36tfcyns48nfswsk0zh2cod9j89xhg,zNtNWBTH,2020-0188,2020-11-14,23:54:55,00:12:12,NA,incomplete,52,color,1,right,Red_Triangle_Chess_4.jpg,Blue_Star_Chess_2.jpg,Red_Plus_Stripes_1.jpg,left,914.1350000863895,false,high,NA,NA,NA,NA,NA,NA,NA,false
zNtNWBTH,3ygyp13654mlicup3w1l36spsdqnrt,36tfcyns48nfswsk0zh2cod9j89xhg,zNtNWBTH,2020-0188,2020-11-14,23:54:55,00:12:12,NA,incomplete,53,color,1,left,Purple_Plus_Chess_1.jpg,Purple_Circle_Grid_2.jpg,Red_Star_Chess_4.jpg,right,960.7349999714643,false,high,NA,NA,NA,NA,NA,NA,NA,false
zNtNWBTH,3ygyp13654mlicup3w1l36spsdqnrt,36tfcyns48nfswsk0zh2cod9j89xhg,zNtNWBTH,2020-0188,2020-11-14,23:54:55,00:12:12,NA,incomplete,54,color,1,left,Purple_Star_Chess_2.jpg,Purple_Circle_Grid_4.jpg,Green_Plus_Chess_1.jpg,right,812.235000077635,false,high,NA,NA,NA,NA,NA,NA,NA,false
zNtNWBTH,3ygyp13654mlicup3w1l36spsdqnrt,36tfcyns48nfswsk0zh2cod9j89xhg,zNtNWBTH,2020-0188,2020-11-14,23:54:55,00:12:12,NA,incomplete,55,color,1,left,Purple_Triangle_Chess_4.jpg,Purple_Star_Dots_1.jpg,Green_Plus_Chess_3.jpg,right,905.280000064522,false,high,NA,NA,NA,NA,NA,NA,NA,false
zNtNWBTH,3ygyp13654mlicup3w1l36spsdqnrt,36tfcyns48nfswsk0zh2cod9j89xhg,zNtNWBTH,2020-0188,2020-11-14,23:54:55,00:12:12,NA,incomplete,56,color,0,right,Blue_Plus_Grid_3.jpg,Green_Star_Grid_1.jpg,Blue_Triangle_Chess_4.jpg,right,667.5950000062585,true,high,NA,NA,NA,NA,NA,NA,NA,false
zNtNWBTH,3ygyp13654mlicup3w1l36spsdqnrt,36tfcyns48nfswsk0zh2cod9j89xhg,zNtNWBTH,2020-0188,2020-11-14,23:54:55,00:12:12,NA,incomplete,57,color,0,left,Purple_Star_Stripes_3.jpg,Purple_Plus_Dots_2.jpg,Red_Triangle_Stripes_1.jpg,left,577.5150000117719,true,high,NA,NA,NA,NA,NA,NA,NA,false
zNtNWBTH,3ygyp13654mlicup3w1l36spsdqnrt,36tfcyns48nfswsk0zh2cod9j89xhg,zNtNWBTH,2020-0188,2020-11-14,23:54:55,00:12:12,NA,incomplete,58,color,1,right,Blue_Circle_Grid_1.jpg,Red_Plus_Grid_2.jpg,Blue_Triangle_Dots_3.jpg,right,762.6900000032037,true,high,NA,NA,NA,NA,NA,NA,NA,false
zNtNWBTH,3ygyp13654mlicup3w1l36spsdqnrt,36tfcyns48nfswsk0zh2cod9j89xhg,zNtNWBTH,2020-0188,2020-11-14,23:54:55,00:12:12,NA,incomplete,59,color,1,right,Green_Plus_Chess_4.jpg,Red_Triangle_Chess_2.jpg,Green_Circle_Grid_3.jpg,right,682.6400000136346,true,high,NA,NA,NA,NA,NA,NA,NA,false
zNtNWBTH,3ygyp13654mlicup3w1l36spsdqnrt,36tfcyns48nfswsk0zh2cod9j89xhg,zNtNWBTH,2020-0188,2020-11-14,23:54:55,00:12:12,NA,incomplete,60,filling,1,right,Green_Plus_Grid_1.jpg,Green_Star_Stripes_3.jpg,Blue_Circle_Grid_4.jpg,left,1003.8300000596792,false,high,NA,NA,NA,NA,NA,NA,NA,false
zNtNWBTH,3ygyp13654mlicup3w1l36spsdqnrt,36tfcyns48nfswsk0zh2cod9j89xhg,zNtNWBTH,2020-0188,2020-11-14,23:54:55,00:12:12,NA,incomplete,61,filling,1,left,Purple_Circle_Chess_2.jpg,Blue_Triangle_Chess_1.jpg,Purple_Plus_Grid_4.jpg,right,1273.5349999275059,false,high,NA,NA,NA,NA,NA,NA,NA,false
zNtNWBTH,3ygyp13654mlicup3w1l36spsdqnrt,36tfcyns48nfswsk0zh2cod9j89xhg,zNtNWBTH,2020-0188,2020-11-14,23:54:55,00:12:12,NA,incomplete,62,filling,1,left,Green_Circle_Grid_3.jpg,Purple_Plus_Grid_4.jpg,Green_Triangle_Chess_2.jpg,right,1380.5050000082701,false,high,NA,NA,NA,NA,NA,NA,NA,false
zNtNWBTH,3ygyp13654mlicup3w1l36spsdqnrt,36tfcyns48nfswsk0zh2cod9j89xhg,zNtNWBTH,2020-0188,2020-11-14,23:54:55,00:12:12,NA,incomplete,63,filling,1,left,Blue_Star_Grid_2.jpg,Purple_Plus_Grid_1.jpg,Blue_Triangle_Stripes_4.jpg,left,1012.044999981299,true,high,NA,NA,NA,NA,NA,NA,NA,false
zNtNWBTH,3ygyp13654mlicup3w1l36spsdqnrt,36tfcyns48nfswsk0zh2cod9j89xhg,zNtNWBTH,2020-0188,2020-11-14,23:54:55,00:12:12,NA,incomplete,64,filling,1,left,Red_Star_Stripes_4.jpg,Green_Circle_Stripes_2.jpg,Red_Plus_Chess_1.jpg,right,1686.4849999547005,false,high,NA,NA,NA,NA,NA,NA,NA,false
zNtNWBTH,3ygyp13654mlicup3w1l36spsdqnrt,36tfcyns48nfswsk0zh2cod9j89xhg,zNtNWBTH,2020-0188,2020-11-14,23:54:55,00:12:12,NA,incomplete,65,filling,1,right,Blue_Circle_Chess_3.jpg,Blue_Triangle_Dots_2.jpg,Green_Star_Chess_4.jpg,right,955.4499998921528,true,high,NA,NA,NA,NA,NA,NA,NA,false
zNtNWBTH,3ygyp13654mlicup3w1l36spsdqnrt,36tfcyns48nfswsk0zh2cod9j89xhg,zNtNWBTH,2020-0188,2020-11-14,23:54:55,00:12:12,NA,incomplete,66,filling,0,right,Green_Plus_Dots_4.jpg,Green_Star_Grid_3.jpg,Red_Circle_Dots_2.jpg,left,993.5449999757111,false,high,NA,NA,NA,NA,NA,NA,NA,false
zNtNWBTH,3ygyp13654mlicup3w1l36spsdqnrt,36tfcyns48nfswsk0zh2cod9j89xhg,zNtNWBTH,2020-0188,2020-11-14,23:54:55,00:12:12,NA,incomplete,67,filling,1,right,Purple_Triangle_Chess_1.jpg,Purple_Circle_Stripes_2.jpg,Green_Plus_Chess_3.jpg,left,844.0699999919161,false,high,NA,NA,NA,NA,NA,NA,NA,false
zNtNWBTH,3ygyp13654mlicup3w1l36spsdqnrt,36tfcyns48nfswsk0zh2cod9j89xhg,zNtNWBTH,2020-0188,2020-11-14,23:54:55,00:12:12,NA,incomplete,68,filling,1,left,Purple_Triangle_Dots_3.jpg,Red_Star_Dots_1.jpg,Purple_Plus_Grid_2.jpg,left,1271.7700001085177,true,high,NA,NA,NA,NA,NA,NA,NA,false
zNtNWBTH,3ygyp13654mlicup3w1l36spsdqnrt,36tfcyns48nfswsk0zh2cod9j89xhg,zNtNWBTH,2020-0188,2020-11-14,23:54:55,00:12:12,NA,incomplete,69,filling,0,left,Red_Circle_Stripes_1.jpg,Blue_Triangle_Stripes_4.jpg,Red_Plus_Grid_2.jpg,left,939.3299999646842,true,high,NA,NA,NA,NA,NA,NA,NA,false
zNtNWBTH,3ygyp13654mlicup3w1l36spsdqnrt,36tfcyns48nfswsk0zh2cod9j89xhg,zNtNWBTH,2020-0188,2020-11-14,23:54:55,00:12:12,NA,incomplete,70,color,1,left,Green_Triangle_Chess_2.jpg,Green_Circle_Grid_4.jpg,Purple_Plus_Chess_3.jpg,right,909.5799999777228,false,high,NA,NA,NA,NA,NA,NA,NA,false
zNtNWBTH,3ygyp13654mlicup3w1l36spsdqnrt,36tfcyns48nfswsk0zh2cod9j89xhg,zNtNWBTH,2020-0188,2020-11-14,23:54:55,00:12:12,NA,incomplete,71,color,1,right,Green_Circle_Chess_3.jpg,Blue_Triangle_Chess_2.jpg,Green_Plus_Dots_4.jpg,left,824.9000000068918,false,high,NA,NA,NA,NA,NA,NA,NA,false
zNtNWBTH,3ygyp13654mlicup3w1l36spsdqnrt,36tfcyns48nfswsk0zh2cod9j89xhg,zNtNWBTH,2020-0188,2020-11-14,23:54:55,00:12:12,NA,incomplete,72,color,0,left,Blue_Triangle_Dots_1.jpg,Blue_Circle_Stripes_2.jpg,Green_Star_Dots_4.jpg,right,1107.6699999393895,false,high,NA,NA,NA,NA,NA,NA,NA,false
zNtNWBTH,3ygyp13654mlicup3w1l36spsdqnrt,36tfcyns48nfswsk0zh2cod9j89xhg,zNtNWBTH,2020-0188,2020-11-14,23:54:55,00:12:12,NA,incomplete,73,color,1,right,Red_Star_Chess_2.jpg,Purple_Plus_Chess_3.jpg,Red_Triangle_Stripes_4.jpg,left,968.570000026375,false,high,NA,NA,NA,NA,NA,NA,NA,false
zNtNWBTH,3ygyp13654mlicup3w1l36spsdqnrt,36tfcyns48nfswsk0zh2cod9j89xhg,zNtNWBTH,2020-0188,2020-11-14,23:54:55,00:12:12,NA,incomplete,74,color,1,right,Purple_Star_Chess_1.jpg,Red_Plus_Chess_4.jpg,Purple_Triangle_Dots_3.jpg,left,826.9250000594184,false,high,NA,NA,NA,NA,NA,NA,NA,false
zNtNWBTH,3ygyp13654mlicup3w1l36spsdqnrt,36tfcyns48nfswsk0zh2cod9j89xhg,zNtNWBTH,2020-0188,2020-11-14,23:54:55,00:12:12,NA,incomplete,75,color,1,right,Purple_Plus_Chess_4.jpg,Red_Triangle_Chess_2.jpg,Purple_Circle_Stripes_3.jpg,left,1022.1550000132993,false,high,NA,NA,NA,NA,NA,NA,NA,false
zNtNWBTH,3ygyp13654mlicup3w1l36spsdqnrt,36tfcyns48nfswsk0zh2cod9j89xhg,zNtNWBTH,2020-0188,2020-11-14,23:54:55,00:12:12,NA,incomplete,76,color,1,right,Red_Plus_Grid_1.jpg,Green_Triangle_Grid_3.jpg,Red_Circle_Chess_4.jpg,right,750.3449999494478,true,high,NA,NA,NA,NA,NA,NA,NA,false
zNtNWBTH,3ygyp13654mlicup3w1l36spsdqnrt,36tfcyns48nfswsk0zh2cod9j89xhg,zNtNWBTH,2020-0188,2020-11-14,23:54:55,00:12:12,NA,incomplete,77,color,1,left,Blue_Triangle_Stripes_3.jpg,Blue_Plus_Grid_4.jpg,Green_Star_Stripes_1.jpg,left,649.0500000072643,true,high,NA,NA,NA,NA,NA,NA,NA,false
zNtNWBTH,3ygyp13654mlicup3w1l36spsdqnrt,36tfcyns48nfswsk0zh2cod9j89xhg,zNtNWBTH,2020-0188,2020-11-14,23:54:55,00:12:12,NA,incomplete,78,color,0,right,Blue_Plus_Chess_1.jpg,Purple_Star_Chess_2.jpg,Blue_Circle_Stripes_4.jpg,right,562.2900000307709,true,high,NA,NA,NA,NA,NA,NA,NA,false
zNtNWBTH,3ygyp13654mlicup3w1l36spsdqnrt,36tfcyns48nfswsk0zh2cod9j89xhg,zNtNWBTH,2020-0188,2020-11-14,23:54:55,00:12:12,NA,incomplete,79,color,1,left,Purple_Star_Grid_3.jpg,Purple_Plus_Dots_2.jpg,Blue_Circle_Grid_1.jpg,left,557.7250000787899,true,high,NA,NA,NA,NA,NA,NA,NA,false
zNtNWBTH,3ygyp13654mlicup3w1l36spsdqnrt,36tfcyns48nfswsk0zh2cod9j89xhg,zNtNWBTH,2020-0188,2020-11-14,23:54:55,00:12:12,NA,incomplete,80,filling,1,right,Red_Star_Grid_1.jpg,Red_Plus_Chess_3.jpg,Purple_Triangle_Grid_2.jpg,left,582.8850000398234,false,high,NA,NA,NA,NA,NA,NA,NA,false
zNtNWBTH,3ygyp13654mlicup3w1l36spsdqnrt,36tfcyns48nfswsk0zh2cod9j89xhg,zNtNWBTH,2020-0188,2020-11-14,23:54:55,00:12:12,NA,incomplete,81,filling,1,left,Purple_Star_Stripes_1.jpg,Red_Circle_Stripes_3.jpg,Purple_Plus_Grid_2.jpg,right,770.0150000164285,false,high,NA,NA,NA,NA,NA,NA,NA,false
zNtNWBTH,3ygyp13654mlicup3w1l36spsdqnrt,36tfcyns48nfswsk0zh2cod9j89xhg,zNtNWBTH,2020-0188,2020-11-14,23:54:55,00:12:12,NA,incomplete,82,filling,1,left,Blue_Plus_Grid_4.jpg,Green_Star_Grid_3.jpg,Blue_Triangle_Chess_2.jpg,right,617.519999970682,false,high,NA,NA,NA,NA,NA,NA,NA,false
zNtNWBTH,3ygyp13654mlicup3w1l36spsdqnrt,36tfcyns48nfswsk0zh2cod9j89xhg,zNtNWBTH,2020-0188,2020-11-14,23:54:55,00:12:12,NA,incomplete,83,filling,1,left,Purple_Triangle_Grid_2.jpg,Red_Star_Grid_4.jpg,Purple_Plus_Chess_1.jpg,right,690.2300000656396,false,high,NA,NA,NA,NA,NA,NA,NA,false
zNtNWBTH,3ygyp13654mlicup3w1l36spsdqnrt,36tfcyns48nfswsk0zh2cod9j89xhg,zNtNWBTH,2020-0188,2020-11-14,23:54:55,00:12:12,NA,incomplete,84,filling,1,left,Purple_Triangle_Stripes_2.jpg,Blue_Circle_Stripes_1.jpg,Purple_Star_Dots_3.jpg,right,659.029999980703,false,high,NA,NA,NA,NA,NA,NA,NA,false
zNtNWBTH,3ygyp13654mlicup3w1l36spsdqnrt,36tfcyns48nfswsk0zh2cod9j89xhg,zNtNWBTH,2020-0188,2020-11-14,23:54:55,00:12:12,NA,incomplete,85,filling,1,right,Red_Star_Grid_4.jpg,Red_Circle_Stripes_1.jpg,Blue_Plus_Grid_3.jpg,right,883.8100000284612,true,high,NA,NA,NA,NA,NA,NA,NA,false
zNtNWBTH,3ygyp13654mlicup3w1l36spsdqnrt,36tfcyns48nfswsk0zh2cod9j89xhg,zNtNWBTH,2020-0188,2020-11-14,23:54:55,00:12:12,NA,incomplete,86,filling,1,right,Green_Star_Stripes_2.jpg,Green_Triangle_Grid_4.jpg,Red_Plus_Stripes_3.jpg,right,940.000000060536,true,high,NA,NA,NA,NA,NA,NA,NA,false
zNtNWBTH,3ygyp13654mlicup3w1l36spsdqnrt,36tfcyns48nfswsk0zh2cod9j89xhg,zNtNWBTH,2020-0188,2020-11-14,23:54:55,00:12:12,NA,incomplete,87,filling,1,right,Purple_Star_Dots_2.jpg,Purple_Triangle_Grid_4.jpg,Red_Circle_Dots_1.jpg,right,947.1449999837205,true,high,NA,NA,NA,NA,NA,NA,NA,false
zNtNWBTH,3ygyp13654mlicup3w1l36spsdqnrt,36tfcyns48nfswsk0zh2cod9j89xhg,zNtNWBTH,2020-0188,2020-11-14,23:54:55,00:12:12,NA,incomplete,88,filling,1,left,Purple_Plus_Chess_4.jpg,Blue_Star_Chess_2.jpg,Purple_Circle_Dots_3.jpg,left,806.7399999126792,true,high,NA,NA,NA,NA,NA,NA,NA,false
zNtNWBTH,3ygyp13654mlicup3w1l36spsdqnrt,36tfcyns48nfswsk0zh2cod9j89xhg,zNtNWBTH,2020-0188,2020-11-14,23:54:55,00:12:12,NA,incomplete,89,filling,1,right,Purple_Triangle_Dots_4.jpg,Purple_Circle_Grid_3.jpg,Green_Plus_Dots_1.jpg,right,904.6300000045449,true,high,NA,NA,NA,NA,NA,NA,NA,false
zNtNWBTH,3ygyp13654mlicup3w1l36spsdqnrt,36tfcyns48nfswsk0zh2cod9j89xhg,zNtNWBTH,2020-0188,2020-11-14,23:54:55,00:12:12,NA,incomplete,90,color,1,left,Red_Star_Chess_2.jpg,Red_Plus_Dots_1.jpg,Blue_Circle_Chess_4.jpg,right,782.7200000174344,false,high,NA,NA,NA,NA,NA,NA,NA,false
zNtNWBTH,3ygyp13654mlicup3w1l36spsdqnrt,36tfcyns48nfswsk0zh2cod9j89xhg,zNtNWBTH,2020-0188,2020-11-14,23:54:55,00:12:12,NA,incomplete,91,color,1,right,Green_Plus_Chess_3.jpg,Blue_Circle_Chess_1.jpg,Green_Triangle_Dots_4.jpg,right,613.4999999776483,true,high,NA,NA,NA,NA,NA,NA,NA,false
zNtNWBTH,3ygyp13654mlicup3w1l36spsdqnrt,36tfcyns48nfswsk0zh2cod9j89xhg,zNtNWBTH,2020-0188,2020-11-14,23:54:55,00:12:12,NA,incomplete,92,color,1,right,Blue_Triangle_Dots_3.jpg,Red_Circle_Dots_1.jpg,Blue_Plus_Chess_2.jpg,right,659.4650000333786,true,high,NA,NA,NA,NA,NA,NA,NA,false
zNtNWBTH,3ygyp13654mlicup3w1l36spsdqnrt,36tfcyns48nfswsk0zh2cod9j89xhg,zNtNWBTH,2020-0188,2020-11-14,23:54:55,00:12:12,NA,incomplete,93,color,1,right,Red_Plus_Chess_1.jpg,Blue_Star_Chess_3.jpg,Red_Triangle_Stripes_2.jpg,right,588.3799999719486,true,high,NA,NA,NA,NA,NA,NA,NA,false
zNtNWBTH,3ygyp13654mlicup3w1l36spsdqnrt,36tfcyns48nfswsk0zh2cod9j89xhg,zNtNWBTH,2020-0188,2020-11-14,23:54:55,00:12:12,NA,incomplete,94,color,1,right,Blue_Plus_Grid_2.jpg,Purple_Star_Grid_4.jpg,Blue_Triangle_Stripes_1.jpg,right,616.0450000315905,true,high,NA,NA,NA,NA,NA,NA,NA,false
zNtNWBTH,3ygyp13654mlicup3w1l36spsdqnrt,36tfcyns48nfswsk0zh2cod9j89xhg,zNtNWBTH,2020-0188,2020-11-14,23:54:55,00:12:12,NA,incomplete,95,color,1,left,Green_Plus_Dots_4.jpg,Green_Triangle_Grid_3.jpg,Blue_Circle_Dots_2.jpg,left,685.9449999174103,true,high,NA,NA,NA,NA,NA,NA,NA,false
zNtNWBTH,3ygyp13654mlicup3w1l36spsdqnrt,36tfcyns48nfswsk0zh2cod9j89xhg,zNtNWBTH,2020-0188,2020-11-14,23:54:55,00:12:12,NA,incomplete,96,color,1,left,Red_Circle_Grid_2.jpg,Red_Triangle_Chess_3.jpg,Blue_Plus_Grid_1.jpg,left,648.1049999129027,true,high,NA,NA,NA,NA,NA,NA,NA,false
zNtNWBTH,3ygyp13654mlicup3w1l36spsdqnrt,36tfcyns48nfswsk0zh2cod9j89xhg,zNtNWBTH,2020-0188,2020-11-14,23:54:55,00:12:12,NA,incomplete,97,color,1,right,Purple_Circle_Chess_4.jpg,Red_Star_Chess_3.jpg,Purple_Plus_Grid_1.jpg,right,667.0049999374896,true,high,NA,NA,NA,NA,NA,NA,NA,false
zNtNWBTH,3ygyp13654mlicup3w1l36spsdqnrt,36tfcyns48nfswsk0zh2cod9j89xhg,zNtNWBTH,2020-0188,2020-11-14,23:54:55,00:12:12,NA,incomplete,98,color,1,left,Red_Circle_Chess_4.jpg,Red_Star_Stripes_3.jpg,Purple_Triangle_Chess_2.jpg,left,542.0450000092387,true,high,NA,NA,NA,NA,NA,NA,NA,false
zNtNWBTH,3ygyp13654mlicup3w1l36spsdqnrt,36tfcyns48nfswsk0zh2cod9j89xhg,zNtNWBTH,2020-0188,2020-11-14,23:54:55,00:12:12,NA,incomplete,99,color,1,right,Green_Circle_Chess_1.jpg,Purple_Star_Chess_2.jpg,Green_Triangle_Stripes_3.jpg,right,540.8900000620633,true,high,NA,NA,NA,NA,NA,NA,NA,false
zNtNWBTH,3ygyp13654mlicup3w1l36spsdqnrt,36tfcyns48nfswsk0zh2cod9j89xhg,zNtNWBTH,2020-0188,2020-11-14,23:54:55,00:12:12,NA,incomplete,100,filling,1,right,Blue_Triangle_Stripes_4.jpg,Blue_Plus_Grid_2.jpg,Purple_Star_Stripes_1.jpg,left,506.0049999738112,false,high,NA,NA,NA,NA,NA,NA,NA,false
zNtNWBTH,3ygyp13654mlicup3w1l36spsdqnrt,36tfcyns48nfswsk0zh2cod9j89xhg,zNtNWBTH,2020-0188,2020-11-14,23:54:55,00:12:12,NA,incomplete,101,filling,1,right,Red_Circle_Dots_3.jpg,Red_Plus_Chess_2.jpg,Purple_Star_Dots_4.jpg,left,556.0350000159815,false,high,NA,NA,NA,NA,NA,NA,NA,false
zNtNWBTH,3ygyp13654mlicup3w1l36spsdqnrt,36tfcyns48nfswsk0zh2cod9j89xhg,zNtNWBTH,2020-0188,2020-11-14,23:54:55,00:12:12,NA,incomplete,102,filling,1,right,Blue_Star_Stripes_2.jpg,Blue_Plus_Dots_3.jpg,Green_Triangle_Stripes_4.jpg,right,825.6700000492856,true,high,NA,NA,NA,NA,NA,NA,NA,false
zNtNWBTH,3ygyp13654mlicup3w1l36spsdqnrt,36tfcyns48nfswsk0zh2cod9j89xhg,zNtNWBTH,2020-0188,2020-11-14,23:54:55,00:12:12,NA,incomplete,103,filling,1,right,Red_Plus_Grid_4.jpg,Red_Triangle_Stripes_3.jpg,Blue_Circle_Grid_1.jpg,left,699.3650000076741,false,high,NA,NA,NA,NA,NA,NA,NA,false
zNtNWBTH,3ygyp13654mlicup3w1l36spsdqnrt,36tfcyns48nfswsk0zh2cod9j89xhg,zNtNWBTH,2020-0188,2020-11-14,23:54:55,00:12:12,NA,incomplete,104,filling,0,left,Red_Triangle_Chess_1.jpg,Blue_Star_Chess_3.jpg,Red_Plus_Stripes_2.jpg,left,959.3700000550598,true,high,NA,NA,NA,NA,NA,NA,NA,false
zNtNWBTH,3ygyp13654mlicup3w1l36spsdqnrt,36tfcyns48nfswsk0zh2cod9j89xhg,zNtNWBTH,2020-0188,2020-11-14,23:54:55,00:12:12,NA,incomplete,105,filling,1,left,Purple_Triangle_Chess_4.jpg,Green_Circle_Chess_2.jpg,Purple_Plus_Dots_1.jpg,right,677.8100000228733,false,high,NA,NA,NA,NA,NA,NA,NA,false
zNtNWBTH,3ygyp13654mlicup3w1l36spsdqnrt,36tfcyns48nfswsk0zh2cod9j89xhg,zNtNWBTH,2020-0188,2020-11-14,23:54:55,00:12:12,NA,incomplete,106,filling,1,left,Purple_Circle_Chess_1.jpg,Green_Plus_Chess_4.jpg,Purple_Star_Dots_2.jpg,left,811.5249999100342,true,high,NA,NA,NA,NA,NA,NA,NA,false
zNtNWBTH,3ygyp13654mlicup3w1l36spsdqnrt,36tfcyns48nfswsk0zh2cod9j89xhg,zNtNWBTH,2020-0188,2020-11-14,23:54:55,00:12:12,NA,incomplete,107,filling,1,left,Red_Circle_Stripes_3.jpg,Purple_Star_Stripes_2.jpg,Red_Triangle_Grid_1.jpg,left,819.3350000074133,true,high,NA,NA,NA,NA,NA,NA,NA,false
zNtNWBTH,3ygyp13654mlicup3w1l36spsdqnrt,36tfcyns48nfswsk0zh2cod9j89xhg,zNtNWBTH,2020-0188,2020-11-14,23:54:55,00:12:12,NA,incomplete,108,filling,0,left,Green_Circle_Chess_1.jpg,Blue_Plus_Chess_4.jpg,Green_Star_Dots_3.jpg,left,823.5850000055507,true,high,NA,NA,NA,NA,NA,NA,NA,false
zNtNWBTH,3ygyp13654mlicup3w1l36spsdqnrt,36tfcyns48nfswsk0zh2cod9j89xhg,zNtNWBTH,2020-0188,2020-11-14,23:54:55,00:12:12,NA,incomplete,109,filling,0,left,Blue_Circle_Grid_2.jpg,Purple_Triangle_Grid_3.jpg,Blue_Star_Dots_4.jpg,left,781.5500000724569,true,high,NA,NA,NA,NA,NA,NA,NA,false
zNtNWBTH,3ygyp13654mlicup3w1l36spsdqnrt,36tfcyns48nfswsk0zh2cod9j89xhg,zNtNWBTH,2020-0188,2020-11-14,23:54:55,00:12:12,NA,incomplete,110,color,1,left,Blue_Plus_Stripes_1.jpg,Blue_Circle_Chess_3.jpg,Green_Triangle_Stripes_4.jpg,right,772.0299999928102,false,high,NA,NA,NA,NA,NA,NA,NA,false
zNtNWBTH,3ygyp13654mlicup3w1l36spsdqnrt,36tfcyns48nfswsk0zh2cod9j89xhg,zNtNWBTH,2020-0188,2020-11-14,23:54:55,00:12:12,NA,incomplete,111,color,1,left,Green_Plus_Stripes_1.jpg,Green_Triangle_Grid_4.jpg,Red_Circle_Stripes_2.jpg,left,665.3599999845028,true,high,NA,NA,NA,NA,NA,NA,NA,false
zNtNWBTH,3ygyp13654mlicup3w1l36spsdqnrt,36tfcyns48nfswsk0zh2cod9j89xhg,zNtNWBTH,2020-0188,2020-11-14,23:54:55,00:12:12,NA,incomplete,112,color,1,right,Green_Triangle_Stripes_4.jpg,Purple_Plus_Stripes_1.jpg,Green_Circle_Dots_2.jpg,right,635.924999951385,true,high,NA,NA,NA,NA,NA,NA,NA,false
zNtNWBTH,3ygyp13654mlicup3w1l36spsdqnrt,36tfcyns48nfswsk0zh2cod9j89xhg,zNtNWBTH,2020-0188,2020-11-14,23:54:55,00:12:12,NA,incomplete,113,color,1,right,Purple_Triangle_Grid_3.jpg,Blue_Circle_Grid_1.jpg,Purple_Star_Dots_2.jpg,right,532.5799999991432,true,high,NA,NA,NA,NA,NA,NA,NA,false
zNtNWBTH,3ygyp13654mlicup3w1l36spsdqnrt,36tfcyns48nfswsk0zh2cod9j89xhg,zNtNWBTH,2020-0188,2020-11-14,23:54:55,00:12:12,NA,incomplete,114,color,1,right,Blue_Star_Stripes_3.jpg,Green_Plus_Stripes_1.jpg,Blue_Circle_Chess_2.jpg,right,607.5750000309199,true,high,NA,NA,NA,NA,NA,NA,NA,false
zNtNWBTH,3ygyp13654mlicup3w1l36spsdqnrt,36tfcyns48nfswsk0zh2cod9j89xhg,zNtNWBTH,2020-0188,2020-11-14,23:54:55,00:12:12,NA,incomplete,115,color,1,right,Purple_Star_Chess_4.jpg,Green_Triangle_Chess_3.jpg,Purple_Plus_Dots_1.jpg,right,524.585000006482,true,high,NA,NA,NA,NA,NA,NA,NA,false
zNtNWBTH,3ygyp13654mlicup3w1l36spsdqnrt,36tfcyns48nfswsk0zh2cod9j89xhg,zNtNWBTH,2020-0188,2020-11-14,23:54:55,00:12:12,NA,incomplete,116,color,1,left,Blue_Plus_Grid_4.jpg,Blue_Circle_Stripes_3.jpg,Green_Star_Grid_2.jpg,left,604.2900000466034,true,high,NA,NA,NA,NA,NA,NA,NA,false
zNtNWBTH,3ygyp13654mlicup3w1l36spsdqnrt,36tfcyns48nfswsk0zh2cod9j89xhg,zNtNWBTH,2020-0188,2020-11-14,23:54:55,00:12:12,NA,incomplete,117,color,1,left,Blue_Circle_Stripes_2.jpg,Blue_Triangle_Dots_3.jpg,Purple_Plus_Stripes_1.jpg,left,563.9599999412894,true,high,NA,NA,NA,NA,NA,NA,NA,false
zNtNWBTH,3ygyp13654mlicup3w1l36spsdqnrt,36tfcyns48nfswsk0zh2cod9j89xhg,zNtNWBTH,2020-0188,2020-11-14,23:54:55,00:12:12,NA,incomplete,118,color,0,right,Blue_Star_Grid_3.jpg,Red_Triangle_Grid_1.jpg,Blue_Plus_Chess_4.jpg,right,520.3050000127405,true,high,NA,NA,NA,NA,NA,NA,NA,false
zNtNWBTH,3ygyp13654mlicup3w1l36spsdqnrt,36tfcyns48nfswsk0zh2cod9j89xhg,zNtNWBTH,2020-0188,2020-11-14,23:54:55,00:12:12,NA,incomplete,119,color,1,left,Purple_Plus_Dots_3.jpg,Purple_Star_Grid_2.jpg,Green_Circle_Dots_1.jpg,left,593.9650000073016,true,high,NA,NA,NA,NA,NA,NA,NA,false
zNtNWBTH,3ygyp13654mlicup3w1l36spsdqnrt,36tfcyns48nfswsk0zh2cod9j89xhg,zNtNWBTH,2020-0188,2020-11-14,23:54:55,00:12:12,NA,incomplete,120,filling,1,left,Red_Star_Grid_4.jpg,Purple_Plus_Grid_3.jpg,Red_Triangle_Stripes_1.jpg,right,566.3400000194088,false,high,NA,NA,NA,NA,NA,NA,NA,false
zNtNWBTH,3ygyp13654mlicup3w1l36spsdqnrt,36tfcyns48nfswsk0zh2cod9j89xhg,zNtNWBTH,2020-0188,2020-11-14,23:54:55,00:12:12,NA,incomplete,121,filling,1,right,Green_Plus_Dots_1.jpg,Green_Circle_Grid_4.jpg,Purple_Triangle_Dots_3.jpg,left,581.620000069961,false,high,NA,NA,NA,NA,NA,NA,NA,false
zNtNWBTH,3ygyp13654mlicup3w1l36spsdqnrt,36tfcyns48nfswsk0zh2cod9j89xhg,zNtNWBTH,2020-0188,2020-11-14,23:54:55,00:12:12,NA,incomplete,122,filling,1,left,Purple_Circle_Dots_4.jpg,Blue_Triangle_Dots_2.jpg,Purple_Star_Chess_1.jpg,left,971.1750000715256,true,high,NA,NA,NA,NA,NA,NA,NA,false
zNtNWBTH,3ygyp13654mlicup3w1l36spsdqnrt,36tfcyns48nfswsk0zh2cod9j89xhg,zNtNWBTH,2020-0188,2020-11-14,23:54:55,00:12:12,NA,incomplete,123,filling,0,left,Blue_Triangle_Chess_2.jpg,Purple_Circle_Chess_3.jpg,Blue_Star_Grid_4.jpg,left,859.664999996312,true,high,NA,NA,NA,NA,NA,NA,NA,false
zNtNWBTH,3ygyp13654mlicup3w1l36spsdqnrt,36tfcyns48nfswsk0zh2cod9j89xhg,zNtNWBTH,2020-0188,2020-11-14,23:54:55,00:12:12,NA,incomplete,124,filling,1,right,Blue_Star_Stripes_4.jpg,Blue_Plus_Grid_1.jpg,Green_Circle_Stripes_3.jpg,right,911.930000060238,true,high,NA,NA,NA,NA,NA,NA,NA,false
zNtNWBTH,3ygyp13654mlicup3w1l36spsdqnrt,36tfcyns48nfswsk0zh2cod9j89xhg,zNtNWBTH,2020-0188,2020-11-14,23:54:55,00:12:12,NA,incomplete,125,filling,0,left,Blue_Plus_Grid_4.jpg,Purple_Star_Grid_2.jpg,Blue_Triangle_Stripes_3.jpg,left,1049.9049999052659,true,high,NA,NA,NA,NA,NA,NA,NA,false
zNtNWBTH,3ygyp13654mlicup3w1l36spsdqnrt,36tfcyns48nfswsk0zh2cod9j89xhg,zNtNWBTH,2020-0188,2020-11-14,23:54:55,00:12:12,NA,incomplete,126,filling,1,left,Purple_Circle_Dots_3.jpg,Red_Star_Dots_1.jpg,Purple_Triangle_Chess_4.jpg,left,793.3849999681115,true,high,NA,NA,NA,NA,NA,NA,NA,false
zNtNWBTH,3ygyp13654mlicup3w1l36spsdqnrt,36tfcyns48nfswsk0zh2cod9j89xhg,zNtNWBTH,2020-0188,2020-11-14,23:54:55,00:12:12,NA,incomplete,127,filling,1,left,Green_Circle_Chess_4.jpg,Purple_Triangle_Chess_2.jpg,Green_Plus_Stripes_1.jpg,left,783.4949999814853,true,high,NA,NA,NA,NA,NA,NA,NA,false
zNtNWBTH,3ygyp13654mlicup3w1l36spsdqnrt,36tfcyns48nfswsk0zh2cod9j89xhg,zNtNWBTH,2020-0188,2020-11-14,23:54:55,00:12:12,NA,incomplete,128,filling,1,right,Purple_Plus_Chess_4.jpg,Purple_Star_Grid_1.jpg,Red_Triangle_Chess_3.jpg,right,770.6250000046566,true,high,NA,NA,NA,NA,NA,NA,NA,false
zNtNWBTH,3ygyp13654mlicup3w1l36spsdqnrt,36tfcyns48nfswsk0zh2cod9j89xhg,zNtNWBTH,2020-0188,2020-11-14,23:54:55,00:12:12,NA,incomplete,129,filling,1,right,Green_Triangle_Stripes_3.jpg,Green_Circle_Grid_1.jpg,Red_Star_Stripes_2.jpg,right,809.294999926351,true,high,NA,NA,NA,NA,NA,NA,NA,false
zNtNWBTH,3ygyp13654mlicup3w1l36spsdqnrt,36tfcyns48nfswsk0zh2cod9j89xhg,zNtNWBTH,2020-0188,2020-11-14,23:54:55,00:12:12,NA,incomplete,130,filling,1,left,Green_Star_Chess_3.jpg,Purple_Circle_Chess_2.jpg,Green_Plus_Grid_1.jpg,left,705.6299999821931,true,high,NA,NA,NA,NA,NA,NA,NA,false
zNtNWBTH,3ygyp13654mlicup3w1l36spsdqnrt,36tfcyns48nfswsk0zh2cod9j89xhg,zNtNWBTH,2020-0188,2020-11-14,23:54:55,00:12:12,NA,incomplete,131,filling,1,left,Purple_Circle_Stripes_1.jpg,Red_Plus_Stripes_3.jpg,Purple_Star_Grid_2.jpg,left,869.1999999573454,true,high,NA,NA,NA,NA,NA,NA,NA,false
zNtNWBTH,3ygyp13654mlicup3w1l36spsdqnrt,36tfcyns48nfswsk0zh2cod9j89xhg,zNtNWBTH,2020-0188,2020-11-14,23:54:55,00:12:12,NA,incomplete,132,filling,0,right,Purple_Star_Stripes_2.jpg,Purple_Circle_Dots_3.jpg,Green_Triangle_Stripes_1.jpg,right,635.6200000736862,true,high,NA,NA,NA,NA,NA,NA,NA,false
zNtNWBTH,3ygyp13654mlicup3w1l36spsdqnrt,36tfcyns48nfswsk0zh2cod9j89xhg,zNtNWBTH,2020-0188,2020-11-14,23:54:55,00:12:12,NA,incomplete,133,filling,1,right,Green_Plus_Dots_1.jpg,Green_Triangle_Stripes_4.jpg,Purple_Star_Dots_2.jpg,right,1023.9499999443069,true,high,NA,NA,NA,NA,NA,NA,NA,false
zNtNWBTH,3ygyp13654mlicup3w1l36spsdqnrt,36tfcyns48nfswsk0zh2cod9j89xhg,zNtNWBTH,2020-0188,2020-11-14,23:54:55,00:12:12,NA,incomplete,134,filling,0,left,Green_Circle_Chess_3.jpg,Blue_Triangle_Chess_4.jpg,Green_Plus_Dots_2.jpg,left,887.9650000017136,true,high,NA,NA,NA,NA,NA,NA,NA,false
zNtNWBTH,3ygyp13654mlicup3w1l36spsdqnrt,36tfcyns48nfswsk0zh2cod9j89xhg,zNtNWBTH,2020-0188,2020-11-14,23:54:55,00:12:12,NA,incomplete,135,filling,1,left,Purple_Circle_Chess_2.jpg,Red_Star_Chess_4.jpg,Purple_Triangle_Dots_3.jpg,left,903.4000000683591,true,high,NA,NA,NA,NA,NA,NA,NA,false
zNtNWBTH,3ygyp13654mlicup3w1l36spsdqnrt,36tfcyns48nfswsk0zh2cod9j89xhg,zNtNWBTH,2020-0188,2020-11-14,23:54:55,00:12:12,NA,incomplete,136,filling,1,left,Green_Plus_Grid_4.jpg,Red_Circle_Grid_1.jpg,Green_Star_Dots_3.jpg,left,896.0149999475107,true,high,NA,NA,NA,NA,NA,NA,NA,false
zNtNWBTH,3ygyp13654mlicup3w1l36spsdqnrt,36tfcyns48nfswsk0zh2cod9j89xhg,zNtNWBTH,2020-0188,2020-11-14,23:54:55,00:12:12,NA,incomplete,137,filling,0,left,Blue_Circle_Dots_4.jpg,Green_Star_Dots_1.jpg,Blue_Triangle_Stripes_2.jpg,left,1039.9650000035763,true,high,NA,NA,NA,NA,NA,NA,NA,false
zNtNWBTH,3ygyp13654mlicup3w1l36spsdqnrt,36tfcyns48nfswsk0zh2cod9j89xhg,zNtNWBTH,2020-0188,2020-11-14,23:54:55,00:12:12,NA,incomplete,138,filling,1,left,Green_Triangle_Stripes_1.jpg,Blue_Star_Stripes_3.jpg,Green_Circle_Grid_4.jpg,left,1003.7399999564514,true,high,NA,NA,NA,NA,NA,NA,NA,false
zNtNWBTH,3ygyp13654mlicup3w1l36spsdqnrt,36tfcyns48nfswsk0zh2cod9j89xhg,zNtNWBTH,2020-0188,2020-11-14,23:54:55,00:12:12,NA,incomplete,139,filling,0,right,Blue_Plus_Chess_2.jpg,Blue_Circle_Grid_4.jpg,Red_Star_Chess_1.jpg,right,954.2699999874458,true,high,NA,NA,NA,NA,NA,NA,NA,false
zNtNWBTH,3ygyp13654mlicup3w1l36spsdqnrt,36tfcyns48nfswsk0zh2cod9j89xhg,zNtNWBTH,2020-0188,2020-11-14,23:54:55,00:12:12,NA,incomplete,140,color,1,right,Green_Star_Chess_1.jpg,Purple_Triangle_Chess_2.jpg,Green_Circle_Dots_4.jpg,left,836.0300000058487,false,high,NA,NA,NA,NA,NA,NA,NA,false
zNtNWBTH,3ygyp13654mlicup3w1l36spsdqnrt,36tfcyns48nfswsk0zh2cod9j89xhg,zNtNWBTH,2020-0188,2020-11-14,23:54:55,00:12:12,NA,incomplete,141,color,1,right,Red_Plus_Stripes_4.jpg,Blue_Star_Stripes_2.jpg,Red_Circle_Dots_3.jpg,left,878.5650000208989,false,high,NA,NA,NA,NA,NA,NA,NA,false
zNtNWBTH,3ygyp13654mlicup3w1l36spsdqnrt,36tfcyns48nfswsk0zh2cod9j89xhg,zNtNWBTH,2020-0188,2020-11-14,23:54:55,00:12:12,NA,incomplete,142,color,1,left,Green_Plus_Chess_4.jpg,Green_Triangle_Stripes_3.jpg,Blue_Circle_Chess_1.jpg,right,802.7149999979883,false,high,NA,NA,NA,NA,NA,NA,NA,false
zNtNWBTH,3ygyp13654mlicup3w1l36spsdqnrt,36tfcyns48nfswsk0zh2cod9j89xhg,zNtNWBTH,2020-0188,2020-11-14,23:54:55,00:12:12,NA,incomplete,143,color,1,right,Purple_Triangle_Chess_1.jpg,Green_Plus_Chess_3.jpg,Purple_Star_Stripes_2.jpg,right,860.090000089258,true,high,NA,NA,NA,NA,NA,NA,NA,false
zNtNWBTH,3ygyp13654mlicup3w1l36spsdqnrt,36tfcyns48nfswsk0zh2cod9j89xhg,zNtNWBTH,2020-0188,2020-11-14,23:54:55,00:12:12,NA,incomplete,144,color,0,left,Red_Star_Grid_1.jpg,Red_Plus_Stripes_2.jpg,Green_Circle_Grid_3.jpg,left,542.1499999938533,true,high,NA,NA,NA,NA,NA,NA,NA,false
zNtNWBTH,3ygyp13654mlicup3w1l36spsdqnrt,36tfcyns48nfswsk0zh2cod9j89xhg,zNtNWBTH,2020-0188,2020-11-14,23:54:55,00:12:12,NA,incomplete,145,color,1,left,Purple_Star_Chess_2.jpg,Purple_Circle_Stripes_4.jpg,Green_Triangle_Chess_3.jpg,left,645.6849999958649,true,high,NA,NA,NA,NA,NA,NA,NA,false
zNtNWBTH,3ygyp13654mlicup3w1l36spsdqnrt,36tfcyns48nfswsk0zh2cod9j89xhg,zNtNWBTH,2020-0188,2020-11-14,23:54:55,00:12:12,NA,incomplete,146,color,1,right,Purple_Circle_Dots_2.jpg,Blue_Star_Dots_1.jpg,Purple_Plus_Stripes_3.jpg,right,615.8650000579655,true,high,NA,NA,NA,NA,NA,NA,NA,false
zNtNWBTH,3ygyp13654mlicup3w1l36spsdqnrt,36tfcyns48nfswsk0zh2cod9j89xhg,zNtNWBTH,2020-0188,2020-11-14,23:54:55,00:12:12,NA,incomplete,147,color,1,right,Purple_Plus_Dots_4.jpg,Blue_Triangle_Dots_1.jpg,Purple_Circle_Grid_3.jpg,right,534.8399999784306,true,high,NA,NA,NA,NA,NA,NA,NA,false
zNtNWBTH,3ygyp13654mlicup3w1l36spsdqnrt,36tfcyns48nfswsk0zh2cod9j89xhg,zNtNWBTH,2020-0188,2020-11-14,23:54:55,00:12:12,NA,incomplete,148,color,1,right,Green_Triangle_Chess_4.jpg,Red_Plus_Chess_1.jpg,Green_Circle_Grid_2.jpg,right,559.6000000368804,true,high,NA,NA,NA,NA,NA,NA,NA,false
zNtNWBTH,3ygyp13654mlicup3w1l36spsdqnrt,36tfcyns48nfswsk0zh2cod9j89xhg,zNtNWBTH,2020-0188,2020-11-14,23:54:55,00:12:12,NA,incomplete,149,color,1,left,Red_Star_Grid_3.jpg,Red_Circle_Stripes_2.jpg,Green_Triangle_Grid_4.jpg,left,603.4600000130013,true,high,NA,NA,NA,NA,NA,NA,NA,false
zNtNWBTH,3ygyp13654mlicup3w1l36spsdqnrt,36tfcyns48nfswsk0zh2cod9j89xhg,zNtNWBTH,2020-0188,2020-11-14,23:54:55,00:12:12,NA,incomplete,150,color,0,left,Green_Triangle_Grid_2.jpg,Green_Plus_Stripes_4.jpg,Blue_Star_Grid_3.jpg,left,604.189999983646,true,high,NA,NA,NA,NA,NA,NA,NA,false
zNtNWBTH,3ygyp13654mlicup3w1l36spsdqnrt,36tfcyns48nfswsk0zh2cod9j89xhg,zNtNWBTH,2020-0188,2020-11-14,23:54:55,00:12:12,NA,incomplete,151,color,1,right,Red_Circle_Stripes_3.jpg,Blue_Star_Stripes_2.jpg,Red_Triangle_Grid_1.jpg,right,558.2050000084564,true,high,NA,NA,NA,NA,NA,NA,NA,false
zNtNWBTH,3ygyp13654mlicup3w1l36spsdqnrt,36tfcyns48nfswsk0zh2cod9j89xhg,zNtNWBTH,2020-0188,2020-11-14,23:54:55,00:12:12,NA,incomplete,152,color,1,left,Green_Triangle_Dots_1.jpg,Green_Star_Stripes_4.jpg,Red_Plus_Dots_3.jpg,left,615.4200000455603,true,high,NA,NA,NA,NA,NA,NA,NA,false
zNtNWBTH,3ygyp13654mlicup3w1l36spsdqnrt,36tfcyns48nfswsk0zh2cod9j89xhg,zNtNWBTH,2020-0188,2020-11-14,23:54:55,00:12:12,NA,incomplete,153,color,1,right,Red_Plus_Chess_4.jpg,Blue_Triangle_Chess_1.jpg,Red_Circle_Stripes_3.jpg,right,522.0749999862164,true,high,NA,NA,NA,NA,NA,NA,NA,false
zNtNWBTH,3ygyp13654mlicup3w1l36spsdqnrt,36tfcyns48nfswsk0zh2cod9j89xhg,zNtNWBTH,2020-0188,2020-11-14,23:54:55,00:12:12,NA,incomplete,154,color,1,right,Blue_Plus_Grid_2.jpg,Red_Star_Grid_1.jpg,Blue_Triangle_Dots_4.jpg,right,577.6600000681356,true,high,NA,NA,NA,NA,NA,NA,NA,false
zNtNWBTH,3ygyp13654mlicup3w1l36spsdqnrt,36tfcyns48nfswsk0zh2cod9j89xhg,zNtNWBTH,2020-0188,2020-11-14,23:54:55,00:12:12,NA,incomplete,155,color,0,left,Green_Triangle_Dots_2.jpg,Green_Circle_Grid_4.jpg,Purple_Star_Dots_3.jpg,left,553.0799999833107,true,high,NA,NA,NA,NA,NA,NA,NA,false
zNtNWBTH,3ygyp13654mlicup3w1l36spsdqnrt,36tfcyns48nfswsk0zh2cod9j89xhg,zNtNWBTH,2020-0188,2020-11-14,23:54:55,00:12:12,NA,incomplete,156,color,1,left,Red_Triangle_Stripes_2.jpg,Red_Circle_Grid_1.jpg,Green_Star_Stripes_4.jpg,left,875.8499999530613,true,high,NA,NA,NA,NA,NA,NA,NA,false
zNtNWBTH,3ygyp13654mlicup3w1l36spsdqnrt,36tfcyns48nfswsk0zh2cod9j89xhg,zNtNWBTH,2020-0188,2020-11-14,23:54:55,00:12:12,NA,incomplete,157,color,1,right,Purple_Circle_Grid_2.jpg,Green_Plus_Grid_4.jpg,Purple_Triangle_Stripes_1.jpg,right,946.0950000211596,true,high,NA,NA,NA,NA,NA,NA,NA,false
zNtNWBTH,3ygyp13654mlicup3w1l36spsdqnrt,36tfcyns48nfswsk0zh2cod9j89xhg,zNtNWBTH,2020-0188,2020-11-14,23:54:55,00:12:12,NA,incomplete,158,color,1,left,Purple_Triangle_Grid_1.jpg,Purple_Circle_Dots_2.jpg,Red_Plus_Grid_4.jpg,left,573.8950000377372,true,high,NA,NA,NA,NA,NA,NA,NA,false
zNtNWBTH,3ygyp13654mlicup3w1l36spsdqnrt,36tfcyns48nfswsk0zh2cod9j89xhg,zNtNWBTH,2020-0188,2020-11-14,23:54:55,00:12:12,NA,incomplete,159,color,1,left,Purple_Triangle_Stripes_3.jpg,Purple_Circle_Dots_2.jpg,Red_Star_Stripes_4.jpg,left,552.7050000382587,true,high,NA,NA,NA,NA,NA,NA,NA,false
zNtNWBTH,3ygyp13654mlicup3w1l36spsdqnrt,36tfcyns48nfswsk0zh2cod9j89xhg,zNtNWBTH,2020-0188,2020-11-14,23:54:55,00:12:12,NA,incomplete,160,filling,1,right,Red_Circle_Dots_1.jpg,Red_Plus_Chess_4.jpg,Blue_Triangle_Dots_2.jpg,left,652.7850000420585,false,high,NA,NA,NA,NA,NA,NA,NA,false
zNtNWBTH,3ygyp13654mlicup3w1l36spsdqnrt,36tfcyns48nfswsk0zh2cod9j89xhg,zNtNWBTH,2020-0188,2020-11-14,23:54:55,00:12:12,NA,incomplete,161,filling,0,right,Blue_Plus_Stripes_1.jpg,Blue_Circle_Grid_2.jpg,Green_Star_Stripes_3.jpg,right,1013.7849999591708,true,high,NA,NA,NA,NA,NA,NA,NA,false
zNtNWBTH,3ygyp13654mlicup3w1l36spsdqnrt,36tfcyns48nfswsk0zh2cod9j89xhg,zNtNWBTH,2020-0188,2020-11-14,23:54:55,00:12:12,NA,incomplete,162,filling,1,right,Blue_Circle_Dots_4.jpg,Blue_Plus_Stripes_2.jpg,Purple_Star_Dots_3.jpg,right,1164.5399999106303,true,high,NA,NA,NA,NA,NA,NA,NA,false
zNtNWBTH,3ygyp13654mlicup3w1l36spsdqnrt,36tfcyns48nfswsk0zh2cod9j89xhg,zNtNWBTH,2020-0188,2020-11-14,23:54:55,00:12:12,NA,incomplete,163,filling,1,left,Red_Plus_Dots_4.jpg,Purple_Star_Dots_3.jpg,Red_Triangle_Grid_1.jpg,left,1107.5549999950454,true,high,NA,NA,NA,NA,NA,NA,NA,false
zNtNWBTH,3ygyp13654mlicup3w1l36spsdqnrt,36tfcyns48nfswsk0zh2cod9j89xhg,zNtNWBTH,2020-0188,2020-11-14,23:54:55,00:12:12,NA,incomplete,164,filling,1,right,Purple_Circle_Dots_2.jpg,Purple_Triangle_Chess_1.jpg,Blue_Plus_Dots_3.jpg,right,1047.565000015311,true,high,NA,NA,NA,NA,NA,NA,NA,false
zNtNWBTH,3ygyp13654mlicup3w1l36spsdqnrt,36tfcyns48nfswsk0zh2cod9j89xhg,zNtNWBTH,2020-0188,2020-11-14,23:54:55,00:12:12,NA,incomplete,165,filling,1,left,Green_Plus_Stripes_1.jpg,Blue_Star_Stripes_2.jpg,Green_Circle_Dots_4.jpg,left,889.4549999386072,true,high,NA,NA,NA,NA,NA,NA,NA,false
zNtNWBTH,3ygyp13654mlicup3w1l36spsdqnrt,36tfcyns48nfswsk0zh2cod9j89xhg,zNtNWBTH,2020-0188,2020-11-14,23:54:55,00:12:12,NA,incomplete,166,filling,1,left,Purple_Triangle_Dots_1.jpg,Green_Plus_Dots_3.jpg,Purple_Circle_Stripes_2.jpg,left,845.4800000181422,true,high,NA,NA,NA,NA,NA,NA,NA,false
zNtNWBTH,3ygyp13654mlicup3w1l36spsdqnrt,36tfcyns48nfswsk0zh2cod9j89xhg,zNtNWBTH,2020-0188,2020-11-14,23:54:55,00:12:12,NA,incomplete,167,filling,1,right,Blue_Plus_Chess_4.jpg,Blue_Star_Stripes_1.jpg,Purple_Triangle_Chess_3.jpg,right,760.3099999250844,true,high,NA,NA,NA,NA,NA,NA,NA,false
zNtNWBTH,3ygyp13654mlicup3w1l36spsdqnrt,36tfcyns48nfswsk0zh2cod9j89xhg,zNtNWBTH,2020-0188,2020-11-14,23:54:55,00:12:12,NA,incomplete,168,filling,0,right,Red_Plus_Chess_4.jpg,Red_Star_Grid_2.jpg,Blue_Triangle_Chess_3.jpg,right,698.0899999616668,true,high,NA,NA,NA,NA,NA,NA,NA,false
zNtNWBTH,3ygyp13654mlicup3w1l36spsdqnrt,36tfcyns48nfswsk0zh2cod9j89xhg,zNtNWBTH,2020-0188,2020-11-14,23:54:55,00:12:12,NA,incomplete,169,filling,1,right,Purple_Star_Stripes_1.jpg,Purple_Triangle_Dots_2.jpg,Red_Circle_Stripes_4.jpg,right,926.0999999241903,true,high,NA,NA,NA,NA,NA,NA,NA,false
zNtNWBTH,3ygyp13654mlicup3w1l36spsdqnrt,36tfcyns48nfswsk0zh2cod9j89xhg,zNtNWBTH,2020-0188,2020-11-14,23:54:55,00:12:12,NA,incomplete,170,filling,1,left,Red_Circle_Stripes_1.jpg,Purple_Plus_Stripes_2.jpg,Red_Star_Chess_3.jpg,left,953.1349999597296,true,high,NA,NA,NA,NA,NA,NA,NA,false
zNtNWBTH,3ygyp13654mlicup3w1l36spsdqnrt,36tfcyns48nfswsk0zh2cod9j89xhg,zNtNWBTH,2020-0188,2020-11-14,23:54:55,00:12:12,NA,incomplete,171,filling,1,right,Blue_Plus_Grid_2.jpg,Blue_Star_Chess_3.jpg,Green_Circle_Grid_4.jpg,right,951.6799999400973,true,high,NA,NA,NA,NA,NA,NA,NA,false
zNtNWBTH,3ygyp13654mlicup3w1l36spsdqnrt,36tfcyns48nfswsk0zh2cod9j89xhg,zNtNWBTH,2020-0188,2020-11-14,23:54:55,00:12:12,NA,incomplete,172,filling,1,left,Purple_Plus_Stripes_4.jpg,Green_Circle_Stripes_2.jpg,Purple_Triangle_Dots_3.jpg,left,847.0299999462441,true,high,NA,NA,NA,NA,NA,NA,NA,false
zNtNWBTH,3ygyp13654mlicup3w1l36spsdqnrt,36tfcyns48nfswsk0zh2cod9j89xhg,zNtNWBTH,2020-0188,2020-11-14,23:54:55,00:12:12,NA,incomplete,173,filling,1,left,Green_Star_Dots_2.jpg,Red_Triangle_Dots_4.jpg,Green_Plus_Stripes_3.jpg,left,710.564999957569,true,high,NA,NA,NA,NA,NA,NA,NA,false
zNtNWBTH,3ygyp13654mlicup3w1l36spsdqnrt,36tfcyns48nfswsk0zh2cod9j89xhg,zNtNWBTH,2020-0188,2020-11-14,23:54:55,00:12:12,NA,incomplete,174,filling,1,left,Green_Triangle_Stripes_1.jpg,Red_Star_Stripes_2.jpg,Green_Plus_Chess_3.jpg,left,926.1100000003353,true,high,NA,NA,NA,NA,NA,NA,NA,false
zNtNWBTH,3ygyp13654mlicup3w1l36spsdqnrt,36tfcyns48nfswsk0zh2cod9j89xhg,zNtNWBTH,2020-0188,2020-11-14,23:54:55,00:12:12,NA,incomplete,175,filling,0,right,Green_Star_Chess_3.jpg,Green_Plus_Stripes_2.jpg,Red_Circle_Chess_4.jpg,left,1360.4500000365078,false,high,NA,NA,NA,NA,NA,NA,NA,false
zNtNWBTH,3ygyp13654mlicup3w1l36spsdqnrt,36tfcyns48nfswsk0zh2cod9j89xhg,zNtNWBTH,2020-0188,2020-11-14,23:54:55,00:12:12,NA,incomplete,176,filling,1,right,Red_Star_Grid_4.jpg,Red_Plus_Dots_1.jpg,Purple_Triangle_Grid_2.jpg,right,1252.15999991633,true,high,NA,NA,NA,NA,NA,NA,NA,false
zNtNWBTH,3ygyp13654mlicup3w1l36spsdqnrt,36tfcyns48nfswsk0zh2cod9j89xhg,zNtNWBTH,2020-0188,2020-11-14,23:54:55,00:12:12,NA,incomplete,177,filling,1,left,Green_Circle_Grid_2.jpg,Red_Plus_Grid_3.jpg,Green_Triangle_Chess_1.jpg,left,904.6999999554828,true,high,NA,NA,NA,NA,NA,NA,NA,false
zNtNWBTH,3ygyp13654mlicup3w1l36spsdqnrt,36tfcyns48nfswsk0zh2cod9j89xhg,zNtNWBTH,2020-0188,2020-11-14,23:54:55,00:12:12,NA,incomplete,178,filling,1,left,Green_Plus_Dots_2.jpg,Red_Star_Dots_1.jpg,Green_Circle_Grid_3.jpg,left,743.4999999823049,true,high,NA,NA,NA,NA,NA,NA,NA,false
zNtNWBTH,3ygyp13654mlicup3w1l36spsdqnrt,36tfcyns48nfswsk0zh2cod9j89xhg,zNtNWBTH,2020-0188,2020-11-14,23:54:55,00:12:12,NA,incomplete,179,filling,1,right,Green_Triangle_Grid_1.jpg,Green_Plus_Chess_2.jpg,Purple_Star_Grid_3.jpg,right,919.6600000141189,true,high,NA,NA,NA,NA,NA,NA,NA,false
zNtNWBTH,3ygyp13654mlicup3w1l36spsdqnrt,36tfcyns48nfswsk0zh2cod9j89xhg,zNtNWBTH,2020-0188,2020-11-14,23:54:55,00:12:12,NA,incomplete,180,color,1,right,Purple_Star_Chess_1.jpg,Red_Circle_Chess_4.jpg,Purple_Plus_Stripes_3.jpg,left,883.3100000629202,false,high,NA,NA,NA,NA,NA,NA,NA,false
zNtNWBTH,3ygyp13654mlicup3w1l36spsdqnrt,36tfcyns48nfswsk0zh2cod9j89xhg,zNtNWBTH,2020-0188,2020-11-14,23:54:55,00:12:12,NA,incomplete,181,color,1,right,Purple_Plus_Stripes_4.jpg,Red_Circle_Stripes_1.jpg,Purple_Triangle_Grid_3.jpg,left,949.0849999710917,false,high,NA,NA,NA,NA,NA,NA,NA,false
zNtNWBTH,3ygyp13654mlicup3w1l36spsdqnrt,36tfcyns48nfswsk0zh2cod9j89xhg,zNtNWBTH,2020-0188,2020-11-14,23:54:55,00:12:12,NA,incomplete,182,color,1,right,Blue_Circle_Stripes_3.jpg,Purple_Star_Stripes_4.jpg,Blue_Triangle_Dots_2.jpg,left,904.1399999987334,false,high,NA,NA,NA,NA,NA,NA,NA,false
zNtNWBTH,3ygyp13654mlicup3w1l36spsdqnrt,36tfcyns48nfswsk0zh2cod9j89xhg,zNtNWBTH,2020-0188,2020-11-14,23:54:55,00:12:12,NA,incomplete,183,color,1,right,Green_Triangle_Stripes_1.jpg,Purple_Plus_Stripes_4.jpg,Green_Circle_Dots_3.jpg,right,740.1949999621138,true,high,NA,NA,NA,NA,NA,NA,NA,false
zNtNWBTH,3ygyp13654mlicup3w1l36spsdqnrt,36tfcyns48nfswsk0zh2cod9j89xhg,zNtNWBTH,2020-0188,2020-11-14,23:54:55,00:12:12,NA,incomplete,184,color,1,left,Purple_Circle_Dots_4.jpg,Purple_Plus_Stripes_2.jpg,Blue_Star_Dots_3.jpg,left,649.0050000138581,true,high,NA,NA,NA,NA,NA,NA,NA,false
zNtNWBTH,3ygyp13654mlicup3w1l36spsdqnrt,36tfcyns48nfswsk0zh2cod9j89xhg,zNtNWBTH,2020-0188,2020-11-14,23:54:55,00:12:12,NA,incomplete,185,color,1,right,Purple_Star_Dots_1.jpg,Green_Triangle_Dots_2.jpg,Purple_Plus_Grid_4.jpg,right,590.4749999754131,true,high,NA,NA,NA,NA,NA,NA,NA,false
zNtNWBTH,3ygyp13654mlicup3w1l36spsdqnrt,36tfcyns48nfswsk0zh2cod9j89xhg,zNtNWBTH,2020-0188,2020-11-14,23:54:55,00:12:12,NA,incomplete,186,color,1,left,Green_Triangle_Dots_1.jpg,Green_Circle_Stripes_2.jpg,Purple_Star_Dots_4.jpg,left,546.9150000717491,true,high,NA,NA,NA,NA,NA,NA,NA,false
zNtNWBTH,3ygyp13654mlicup3w1l36spsdqnrt,36tfcyns48nfswsk0zh2cod9j89xhg,zNtNWBTH,2020-0188,2020-11-14,23:54:55,00:12:12,NA,incomplete,187,color,1,left,Red_Star_Chess_2.jpg,Red_Circle_Dots_1.jpg,Purple_Triangle_Chess_3.jpg,left,686.6549999685958,true,high,NA,NA,NA,NA,NA,NA,NA,false
zNtNWBTH,3ygyp13654mlicup3w1l36spsdqnrt,36tfcyns48nfswsk0zh2cod9j89xhg,zNtNWBTH,2020-0188,2020-11-14,23:54:55,00:12:12,NA,incomplete,188,color,1,left,Blue_Circle_Stripes_1.jpg,Blue_Star_Grid_4.jpg,Red_Triangle_Stripes_2.jpg,left,625.594999990426,true,high,NA,NA,NA,NA,NA,NA,NA,false
zNtNWBTH,3ygyp13654mlicup3w1l36spsdqnrt,36tfcyns48nfswsk0zh2cod9j89xhg,zNtNWBTH,2020-0188,2020-11-14,23:54:55,00:12:12,NA,incomplete,189,color,1,right,Green_Circle_Stripes_4.jpg,Red_Triangle_Stripes_3.jpg,Green_Plus_Chess_1.jpg,right,559.1299999505281,true,high,NA,NA,NA,NA,NA,NA,NA,false
zNtNWBTH,3ygyp13654mlicup3w1l36spsdqnrt,36tfcyns48nfswsk0zh2cod9j89xhg,zNtNWBTH,2020-0188,2020-11-14,23:54:55,00:12:12,NA,incomplete,190,color,1,right,Blue_Plus_Grid_1.jpg,Red_Triangle_Grid_4.jpg,Blue_Star_Chess_2.jpg,right,648.6950000980869,true,high,NA,NA,NA,NA,NA,NA,NA,false
zNtNWBTH,3ygyp13654mlicup3w1l36spsdqnrt,36tfcyns48nfswsk0zh2cod9j89xhg,zNtNWBTH,2020-0188,2020-11-14,23:54:55,00:12:12,NA,incomplete,191,color,1,right,Purple_Triangle_Grid_3.jpg,Green_Plus_Grid_2.jpg,Purple_Circle_Chess_1.jpg,right,577.724999981001,true,high,NA,NA,NA,NA,NA,NA,NA,false
zNtNWBTH,3ygyp13654mlicup3w1l36spsdqnrt,36tfcyns48nfswsk0zh2cod9j89xhg,zNtNWBTH,2020-0188,2020-11-14,23:54:55,00:12:12,NA,incomplete,192,color,1,left,Green_Plus_Grid_1.jpg,Green_Circle_Stripes_2.jpg,Blue_Star_Grid_4.jpg,left,535.0900000194088,true,high,NA,NA,NA,NA,NA,NA,NA,false
zNtNWBTH,3ygyp13654mlicup3w1l36spsdqnrt,36tfcyns48nfswsk0zh2cod9j89xhg,zNtNWBTH,2020-0188,2020-11-14,23:54:55,00:12:12,NA,incomplete,193,color,1,left,Blue_Triangle_Grid_2.jpg,Blue_Plus_Dots_4.jpg,Green_Circle_Grid_1.jpg,left,621.1599999805912,true,high,NA,NA,NA,NA,NA,NA,NA,false
zNtNWBTH,3ygyp13654mlicup3w1l36spsdqnrt,36tfcyns48nfswsk0zh2cod9j89xhg,zNtNWBTH,2020-0188,2020-11-14,23:54:55,00:12:12,NA,incomplete,194,color,1,right,Purple_Circle_Grid_2.jpg,Blue_Triangle_Grid_3.jpg,Purple_Plus_Chess_1.jpg,right,559.099999954924,true,high,NA,NA,NA,NA,NA,NA,NA,false
zNtNWBTH,3ygyp13654mlicup3w1l36spsdqnrt,36tfcyns48nfswsk0zh2cod9j89xhg,zNtNWBTH,2020-0188,2020-11-14,23:54:55,00:12:12,NA,incomplete,195,color,1,right,Green_Triangle_Chess_1.jpg,Purple_Circle_Chess_2.jpg,Green_Star_Stripes_3.jpg,right,657.6249999925494,true,high,NA,NA,NA,NA,NA,NA,NA,false
zNtNWBTH,3ygyp13654mlicup3w1l36spsdqnrt,36tfcyns48nfswsk0zh2cod9j89xhg,zNtNWBTH,2020-0188,2020-11-14,23:54:55,00:12:12,NA,incomplete,196,color,1,left,Red_Star_Chess_3.jpg,Red_Plus_Stripes_2.jpg,Purple_Triangle_Chess_1.jpg,left,574.6499999659136,true,high,NA,NA,NA,NA,NA,NA,NA,false
zNtNWBTH,3ygyp13654mlicup3w1l36spsdqnrt,36tfcyns48nfswsk0zh2cod9j89xhg,zNtNWBTH,2020-0188,2020-11-14,23:54:55,00:12:12,NA,incomplete,197,color,1,left,Green_Star_Stripes_3.jpg,Green_Circle_Grid_4.jpg,Blue_Plus_Stripes_1.jpg,left,615.639999974519,true,high,NA,NA,NA,NA,NA,NA,NA,false
zNtNWBTH,3ygyp13654mlicup3w1l36spsdqnrt,36tfcyns48nfswsk0zh2cod9j89xhg,zNtNWBTH,2020-0188,2020-11-14,23:54:55,00:12:12,NA,incomplete,198,color,1,left,Blue_Plus_Grid_2.jpg,Blue_Triangle_Chess_4.jpg,Red_Star_Grid_3.jpg,left,594.8700000299141,true,high,NA,NA,NA,NA,NA,NA,NA,false
zNtNWBTH,3ygyp13654mlicup3w1l36spsdqnrt,36tfcyns48nfswsk0zh2cod9j89xhg,zNtNWBTH,2020-0188,2020-11-14,23:54:55,00:12:12,NA,incomplete,199,color,0,right,Green_Star_Grid_3.jpg,Red_Circle_Grid_4.jpg,Green_Plus_Chess_2.jpg,right,556.9050000049174,true,high,NA,NA,NA,NA,NA,NA,NA,false
zNtNWBTH,3ygyp13654mlicup3w1l36spsdqnrt,36tfcyns48nfswsk0zh2cod9j89xhg,zNtNWBTH,2020-0188,2020-11-14,23:54:55,00:12:12,NA,incomplete,200,filling,1,right,Purple_Star_Dots_3.jpg,Purple_Circle_Chess_4.jpg,Green_Triangle_Dots_2.jpg,left,734.6949999919161,false,high,NA,NA,NA,NA,NA,NA,NA,false
zNtNWBTH,3ygyp13654mlicup3w1l36spsdqnrt,36tfcyns48nfswsk0zh2cod9j89xhg,zNtNWBTH,2020-0188,2020-11-14,23:54:55,00:12:12,NA,incomplete,201,filling,1,right,Red_Circle_Dots_1.jpg,Red_Star_Chess_4.jpg,Blue_Triangle_Dots_2.jpg,right,803.0799999833107,true,high,NA,NA,NA,NA,NA,NA,NA,false
zNtNWBTH,3ygyp13654mlicup3w1l36spsdqnrt,36tfcyns48nfswsk0zh2cod9j89xhg,zNtNWBTH,2020-0188,2020-11-14,23:54:55,00:12:12,NA,incomplete,202,filling,0,left,Green_Circle_Chess_1.jpg,Blue_Plus_Chess_3.jpg,Green_Star_Stripes_2.jpg,left,761.5550000919029,true,high,NA,NA,NA,NA,NA,NA,NA,false
zNtNWBTH,3ygyp13654mlicup3w1l36spsdqnrt,36tfcyns48nfswsk0zh2cod9j89xhg,zNtNWBTH,2020-0188,2020-11-14,23:54:55,00:12:12,NA,incomplete,203,filling,1,left,Blue_Star_Grid_1.jpg,Red_Plus_Grid_2.jpg,Blue_Circle_Chess_3.jpg,left,732.0199999958277,true,high,NA,NA,NA,NA,NA,NA,NA,false
zNtNWBTH,3ygyp13654mlicup3w1l36spsdqnrt,36tfcyns48nfswsk0zh2cod9j89xhg,zNtNWBTH,2020-0188,2020-11-14,23:54:55,00:12:12,NA,incomplete,204,filling,1,left,Purple_Circle_Grid_2.jpg,Blue_Plus_Grid_1.jpg,Purple_Triangle_Chess_3.jpg,left,905.0000000279397,true,high,NA,NA,NA,NA,NA,NA,NA,false
zNtNWBTH,3ygyp13654mlicup3w1l36spsdqnrt,36tfcyns48nfswsk0zh2cod9j89xhg,zNtNWBTH,2020-0188,2020-11-14,23:54:55,00:12:12,NA,incomplete,205,filling,0,left,Green_Circle_Stripes_4.jpg,Purple_Star_Stripes_2.jpg,Green_Triangle_Grid_3.jpg,left,869.7149999206886,true,high,NA,NA,NA,NA,NA,NA,NA,false
zNtNWBTH,3ygyp13654mlicup3w1l36spsdqnrt,36tfcyns48nfswsk0zh2cod9j89xhg,zNtNWBTH,2020-0188,2020-11-14,23:54:55,00:12:12,NA,incomplete,206,filling,1,left,Blue_Star_Chess_2.jpg,Red_Triangle_Chess_4.jpg,Blue_Circle_Dots_3.jpg,left,791.4500000188127,true,high,NA,NA,NA,NA,NA,NA,NA,false
zNtNWBTH,3ygyp13654mlicup3w1l36spsdqnrt,36tfcyns48nfswsk0zh2cod9j89xhg,zNtNWBTH,2020-0188,2020-11-14,23:54:55,00:12:12,NA,incomplete,207,filling,0,left,Green_Star_Grid_3.jpg,Blue_Triangle_Grid_1.jpg,Green_Plus_Chess_4.jpg,right,795.5699999583885,false,high,NA,NA,NA,NA,NA,NA,NA,false
zNtNWBTH,3ygyp13654mlicup3w1l36spsdqnrt,36tfcyns48nfswsk0zh2cod9j89xhg,zNtNWBTH,2020-0188,2020-11-14,23:54:55,00:12:12,NA,incomplete,208,filling,1,right,Green_Triangle_Stripes_3.jpg,Green_Plus_Dots_4.jpg,Purple_Star_Stripes_1.jpg,left,621.1649999022484,false,high,NA,NA,NA,NA,NA,NA,NA,false
zNtNWBTH,3ygyp13654mlicup3w1l36spsdqnrt,36tfcyns48nfswsk0zh2cod9j89xhg,zNtNWBTH,2020-0188,2020-11-14,23:54:55,00:12:12,NA,incomplete,209,filling,1,right,Red_Circle_Grid_3.jpg,Red_Triangle_Stripes_1.jpg,Green_Star_Grid_2.jpg,left,568.6499999137595,false,high,NA,NA,NA,NA,NA,NA,NA,false
zNtNWBTH,3ygyp13654mlicup3w1l36spsdqnrt,36tfcyns48nfswsk0zh2cod9j89xhg,zNtNWBTH,2020-0188,2020-11-14,23:54:55,00:12:12,NA,incomplete,210,filling,1,right,Green_Star_Dots_3.jpg,Green_Circle_Stripes_2.jpg,Blue_Triangle_Dots_1.jpg,left,762.7750000683591,false,high,NA,NA,NA,NA,NA,NA,NA,false
zNtNWBTH,3ygyp13654mlicup3w1l36spsdqnrt,36tfcyns48nfswsk0zh2cod9j89xhg,zNtNWBTH,2020-0188,2020-11-14,23:54:55,00:12:12,NA,incomplete,211,filling,0,right,Purple_Star_Grid_2.jpg,Purple_Circle_Dots_3.jpg,Red_Plus_Grid_4.jpg,right,986.949999933131,true,high,NA,NA,NA,NA,NA,NA,NA,false
zNtNWBTH,3ygyp13654mlicup3w1l36spsdqnrt,36tfcyns48nfswsk0zh2cod9j89xhg,zNtNWBTH,2020-0188,2020-11-14,23:54:55,00:12:12,NA,incomplete,212,filling,1,left,Red_Circle_Stripes_3.jpg,Purple_Plus_Stripes_4.jpg,Red_Star_Grid_2.jpg,left,822.3099999595433,true,high,NA,NA,NA,NA,NA,NA,NA,false
zNtNWBTH,3ygyp13654mlicup3w1l36spsdqnrt,36tfcyns48nfswsk0zh2cod9j89xhg,zNtNWBTH,2020-0188,2020-11-14,23:54:55,00:12:12,NA,incomplete,213,filling,1,left,Blue_Star_Chess_2.jpg,Red_Circle_Chess_4.jpg,Blue_Triangle_Dots_3.jpg,left,939.795000012964,true,high,NA,NA,NA,NA,NA,NA,NA,false
zNtNWBTH,3ygyp13654mlicup3w1l36spsdqnrt,36tfcyns48nfswsk0zh2cod9j89xhg,zNtNWBTH,2020-0188,2020-11-14,23:54:55,00:12:12,NA,incomplete,214,filling,1,right,Red_Star_Chess_2.jpg,Red_Triangle_Grid_3.jpg,Green_Plus_Chess_1.jpg,right,703.745000064373,true,high,NA,NA,NA,NA,NA,NA,NA,false
zNtNWBTH,3ygyp13654mlicup3w1l36spsdqnrt,36tfcyns48nfswsk0zh2cod9j89xhg,zNtNWBTH,2020-0188,2020-11-14,23:54:55,00:12:12,NA,incomplete,215,filling,1,right,Purple_Circle_Stripes_2.jpg,Purple_Star_Grid_1.jpg,Blue_Triangle_Stripes_3.jpg,right,732.410000055097,true,high,NA,NA,NA,NA,NA,NA,NA,false
zNtNWBTH,3ygyp13654mlicup3w1l36spsdqnrt,36tfcyns48nfswsk0zh2cod9j89xhg,zNtNWBTH,2020-0188,2020-11-14,23:54:55,00:12:12,NA,incomplete,216,filling,0,right,Blue_Circle_Grid_2.jpg,Blue_Triangle_Dots_4.jpg,Purple_Plus_Grid_1.jpg,right,838.2700000656769,true,high,NA,NA,NA,NA,NA,NA,NA,false
zNtNWBTH,3ygyp13654mlicup3w1l36spsdqnrt,36tfcyns48nfswsk0zh2cod9j89xhg,zNtNWBTH,2020-0188,2020-11-14,23:54:55,00:12:12,NA,incomplete,217,filling,1,left,Blue_Circle_Dots_4.jpg,Red_Plus_Dots_3.jpg,Blue_Star_Stripes_2.jpg,left,704.1700000409037,true,high,NA,NA,NA,NA,NA,NA,NA,false
zNtNWBTH,3ygyp13654mlicup3w1l36spsdqnrt,36tfcyns48nfswsk0zh2cod9j89xhg,zNtNWBTH,2020-0188,2020-11-14,23:54:55,00:12:12,NA,incomplete,218,filling,1,right,Green_Star_Stripes_2.jpg,Green_Triangle_Chess_4.jpg,Purple_Circle_Stripes_3.jpg,right,902.2550000809133,true,high,NA,NA,NA,NA,NA,NA,NA,false
zNtNWBTH,3ygyp13654mlicup3w1l36spsdqnrt,36tfcyns48nfswsk0zh2cod9j89xhg,zNtNWBTH,2020-0188,2020-11-14,23:54:55,00:12:12,NA,incomplete,219,filling,1,right,Blue_Plus_Stripes_3.jpg,Blue_Triangle_Dots_2.jpg,Purple_Star_Stripes_4.jpg,right,802.3149999789894,true,high,NA,NA,NA,NA,NA,NA,NA,false
zNtNWBTH,3ygyp13654mlicup3w1l36spsdqnrt,36tfcyns48nfswsk0zh2cod9j89xhg,zNtNWBTH,2020-0188,2020-11-14,23:54:55,00:12:12,NA,incomplete,220,color,1,right,Purple_Star_Grid_2.jpg,Green_Circle_Grid_4.jpg,Purple_Triangle_Stripes_1.jpg,right,648.8450000761077,true,high,NA,NA,NA,NA,NA,NA,NA,false
zNtNWBTH,3ygyp13654mlicup3w1l36spsdqnrt,36tfcyns48nfswsk0zh2cod9j89xhg,zNtNWBTH,2020-0188,2020-11-14,23:54:55,00:12:12,NA,incomplete,221,color,1,left,Purple_Triangle_Grid_1.jpg,Purple_Plus_Chess_4.jpg,Blue_Star_Grid_3.jpg,right,1039.7750000702217,false,high,NA,NA,NA,NA,NA,NA,NA,false
zNtNWBTH,3ygyp13654mlicup3w1l36spsdqnrt,36tfcyns48nfswsk0zh2cod9j89xhg,zNtNWBTH,2020-0188,2020-11-14,23:54:55,00:12:12,NA,incomplete,222,color,1,right,Purple_Triangle_Chess_4.jpg,Green_Star_Chess_3.jpg,Purple_Plus_Grid_2.jpg,right,658.919999958016,true,high,NA,NA,NA,NA,NA,NA,NA,false
zNtNWBTH,3ygyp13654mlicup3w1l36spsdqnrt,36tfcyns48nfswsk0zh2cod9j89xhg,zNtNWBTH,2020-0188,2020-11-14,23:54:55,00:12:12,NA,incomplete,223,color,1,left,Green_Plus_Stripes_3.jpg,Green_Circle_Grid_1.jpg,Red_Star_Stripes_4.jpg,left,568.2999999262393,true,high,NA,NA,NA,NA,NA,NA,NA,false
zNtNWBTH,3ygyp13654mlicup3w1l36spsdqnrt,36tfcyns48nfswsk0zh2cod9j89xhg,zNtNWBTH,2020-0188,2020-11-14,23:54:55,00:12:12,NA,incomplete,224,color,0,right,Green_Plus_Dots_3.jpg,Red_Triangle_Dots_1.jpg,Green_Star_Chess_4.jpg,right,526.2700000312179,true,high,NA,NA,NA,NA,NA,NA,NA,false
zNtNWBTH,3ygyp13654mlicup3w1l36spsdqnrt,36tfcyns48nfswsk0zh2cod9j89xhg,zNtNWBTH,2020-0188,2020-11-14,23:54:55,00:12:12,NA,incomplete,225,color,1,right,Red_Plus_Grid_3.jpg,Blue_Star_Grid_2.jpg,Red_Circle_Chess_4.jpg,right,558.3649999462068,true,high,NA,NA,NA,NA,NA,NA,NA,false
zNtNWBTH,3ygyp13654mlicup3w1l36spsdqnrt,36tfcyns48nfswsk0zh2cod9j89xhg,zNtNWBTH,2020-0188,2020-11-14,23:54:55,00:12:12,NA,incomplete,226,color,0,right,Blue_Star_Grid_2.jpg,Purple_Plus_Grid_4.jpg,Blue_Triangle_Chess_1.jpg,right,618.3400000445545,true,high,NA,NA,NA,NA,NA,NA,NA,false
zNtNWBTH,3ygyp13654mlicup3w1l36spsdqnrt,36tfcyns48nfswsk0zh2cod9j89xhg,zNtNWBTH,2020-0188,2020-11-14,23:54:55,00:12:12,NA,incomplete,227,color,1,right,Purple_Plus_Chess_1.jpg,Blue_Star_Chess_4.jpg,Purple_Triangle_Stripes_3.jpg,left,963.8599999016151,false,high,NA,NA,NA,NA,NA,NA,NA,false
zNtNWBTH,3ygyp13654mlicup3w1l36spsdqnrt,36tfcyns48nfswsk0zh2cod9j89xhg,zNtNWBTH,2020-0188,2020-11-14,23:54:55,00:12:12,NA,incomplete,228,color,1,right,Red_Plus_Chess_2.jpg,Blue_Star_Chess_3.jpg,Red_Triangle_Grid_4.jpg,right,672.0750000094995,true,high,NA,NA,NA,NA,NA,NA,NA,false
zNtNWBTH,3ygyp13654mlicup3w1l36spsdqnrt,36tfcyns48nfswsk0zh2cod9j89xhg,zNtNWBTH,2020-0188,2020-11-14,23:54:55,00:12:12,NA,incomplete,229,color,0,right,Green_Star_Dots_4.jpg,Blue_Circle_Dots_3.jpg,Green_Triangle_Stripes_2.jpg,right,634.0599999530241,true,high,NA,NA,NA,NA,NA,NA,NA,false
zNtNWBTH,3ygyp13654mlicup3w1l36spsdqnrt,36tfcyns48nfswsk0zh2cod9j89xhg,zNtNWBTH,2020-0188,2020-11-14,23:54:55,00:12:12,NA,incomplete,230,color,1,right,Purple_Plus_Chess_4.jpg,Green_Circle_Chess_3.jpg,Purple_Star_Dots_2.jpg,right,688.994999974966,true,high,NA,NA,NA,NA,NA,NA,NA,false
zNtNWBTH,3ygyp13654mlicup3w1l36spsdqnrt,36tfcyns48nfswsk0zh2cod9j89xhg,zNtNWBTH,2020-0188,2020-11-14,23:54:55,00:12:12,NA,incomplete,231,color,1,right,Blue_Star_Chess_2.jpg,Purple_Plus_Chess_1.jpg,Blue_Triangle_Stripes_3.jpg,right,582.2400000179186,true,high,NA,NA,NA,NA,NA,NA,NA,false
zNtNWBTH,3ygyp13654mlicup3w1l36spsdqnrt,36tfcyns48nfswsk0zh2cod9j89xhg,zNtNWBTH,2020-0188,2020-11-14,23:54:55,00:12:12,NA,incomplete,232,color,1,left,Purple_Triangle_Chess_3.jpg,Purple_Star_Stripes_2.jpg,Blue_Circle_Chess_4.jpg,left,669.0200000302866,true,high,NA,NA,NA,NA,NA,NA,NA,false
zNtNWBTH,3ygyp13654mlicup3w1l36spsdqnrt,36tfcyns48nfswsk0zh2cod9j89xhg,zNtNWBTH,2020-0188,2020-11-14,23:54:55,00:12:12,NA,incomplete,233,color,1,left,Red_Circle_Stripes_4.jpg,Red_Star_Chess_3.jpg,Blue_Triangle_Stripes_1.jpg,left,586.9099999545142,true,high,NA,NA,NA,NA,NA,NA,NA,false
zNtNWBTH,3ygyp13654mlicup3w1l36spsdqnrt,36tfcyns48nfswsk0zh2cod9j89xhg,zNtNWBTH,2020-0188,2020-11-14,23:54:55,00:12:12,NA,incomplete,234,color,0,right,Green_Triangle_Grid_1.jpg,Purple_Star_Grid_2.jpg,Green_Circle_Stripes_4.jpg,right,548.2750000664964,true,high,NA,NA,NA,NA,NA,NA,NA,false
zNtNWBTH,3ygyp13654mlicup3w1l36spsdqnrt,36tfcyns48nfswsk0zh2cod9j89xhg,zNtNWBTH,2020-0188,2020-11-14,23:54:55,00:12:12,NA,incomplete,235,color,1,left,Red_Circle_Dots_1.jpg,Red_Triangle_Stripes_3.jpg,Green_Plus_Dots_4.jpg,left,521.1650000419468,true,high,NA,NA,NA,NA,NA,NA,NA,false
zNtNWBTH,3ygyp13654mlicup3w1l36spsdqnrt,36tfcyns48nfswsk0zh2cod9j89xhg,zNtNWBTH,2020-0188,2020-11-14,23:54:55,00:12:12,NA,incomplete,236,color,0,right,Purple_Circle_Chess_3.jpg,Green_Triangle_Chess_1.jpg,Purple_Star_Dots_4.jpg,right,543.7550001079217,true,high,NA,NA,NA,NA,NA,NA,NA,false
zNtNWBTH,3ygyp13654mlicup3w1l36spsdqnrt,36tfcyns48nfswsk0zh2cod9j89xhg,zNtNWBTH,2020-0188,2020-11-14,23:54:55,00:12:12,NA,incomplete,237,color,1,left,Purple_Circle_Grid_2.jpg,Purple_Star_Dots_4.jpg,Blue_Plus_Grid_1.jpg,left,649.7349999845028,true,high,NA,NA,NA,NA,NA,NA,NA,false
zNtNWBTH,3ygyp13654mlicup3w1l36spsdqnrt,36tfcyns48nfswsk0zh2cod9j89xhg,zNtNWBTH,2020-0188,2020-11-14,23:54:55,00:12:12,NA,incomplete,238,color,0,right,Blue_Star_Dots_4.jpg,Green_Triangle_Dots_3.jpg,Blue_Circle_Grid_1.jpg,right,640.2349999407306,true,high,NA,NA,NA,NA,NA,NA,NA,false
zNtNWBTH,3ygyp13654mlicup3w1l36spsdqnrt,36tfcyns48nfswsk0zh2cod9j89xhg,zNtNWBTH,2020-0188,2020-11-14,23:54:55,00:12:12,NA,incomplete,239,color,1,right,Red_Circle_Grid_3.jpg,Purple_Triangle_Grid_2.jpg,Red_Plus_Chess_1.jpg,right,653.4249999094754,true,high,NA,NA,NA,NA,NA,NA,NA,false
zNtNWBTH,3ygyp13654mlicup3w1l36spsdqnrt,36tfcyns48nfswsk0zh2cod9j89xhg,zNtNWBTH,2020-0188,2020-11-14,23:54:55,00:12:12,999742.2050000168,1038019.6899999864,NA,NA,NA,NA,NA,NA,NA,NA,NA,NA,NA,32,White/Caucasian,Male,white,no,no,no,undefined
