workerId,hitId,assignmentId,subject,studyid,exp_date,exp_start,exp_end,time_start,time_end,trial,type,reward_validity,answer,image_top,image_left,image_right,response,response_time,response_acc,volatility,age,race,gender,ethnicity,color,vision,neuro,practice
O6gO8luH,3en4yvuovf59wipgxxflzhxwdchjxp,36w0ob37h0r4xrsz1h5n99tjsguzhh,O6gO8luH,2020-0188,2020-05-08,21:14:45,21:33:57,NA,incomplete,0,color,1,left,Purple_Plus_Grid_2.jpg,Purple_Star_Chess_3.jpg,Red_Plus_Dots_4.jpg,left,936.9000000297092,true,NA,NA,NA,NA,NA,NA,NA,NA,true
O6gO8luH,3en4yvuovf59wipgxxflzhxwdchjxp,36w0ob37h0r4xrsz1h5n99tjsguzhh,O6gO8luH,2020-0188,2020-05-08,21:14:45,21:33:57,NA,incomplete,1,color,0,right,Blue_Star_Dots_4.jpg,Red_Star_Grid_1.jpg,Blue_Circle_Stripes_3.jpg,right,725.9349999949336,true,NA,NA,NA,NA,NA,NA,NA,NA,true
O6gO8luH,3en4yvuovf59wipgxxflzhxwdchjxp,36w0ob37h0r4xrsz1h5n99tjsguzhh,O6gO8luH,2020-0188,2020-05-08,21:14:45,21:33:57,NA,incomplete,2,color,1,right,Green_Circle_Stripes_2.jpg,Red_Circle_Grid_4.jpg,Green_Plus_Dots_1.jpg,right,658.2000000053085,true,NA,NA,NA,NA,NA,NA,NA,NA,true
O6gO8luH,3en4yvuovf59wipgxxflzhxwdchjxp,36w0ob37h0r4xrsz1h5n99tjsguzhh,O6gO8luH,2020-0188,2020-05-08,21:14:45,21:33:57,NA,incomplete,3,color,1,left,Blue_Circle_Grid_4.jpg,Blue_Triangle_Stripes_3.jpg,Purple_Circle_Dots_2.jpg,left,991.5700000128709,true,NA,NA,NA,NA,NA,NA,NA,NA,true
O6gO8luH,3en4yvuovf59wipgxxflzhxwdchjxp,36w0ob37h0r4xrsz1h5n99tjsguzhh,O6gO8luH,2020-0188,2020-05-08,21:14:45,21:33:57,NA,incomplete,4,color,1,right,Blue_Star_Chess_2.jpg,Red_Star_Dots_4.jpg,Blue_Circle_Stripes_3.jpg,right,633.4400000050664,true,NA,NA,NA,NA,NA,NA,NA,NA,true
O6gO8luH,3en4yvuovf59wipgxxflzhxwdchjxp,36w0ob37h0r4xrsz1h5n99tjsguzhh,O6gO8luH,2020-0188,2020-05-08,21:14:45,21:33:57,NA,incomplete,5,color,1,right,Blue_Triangle_Stripes_4.jpg,Green_Triangle_Grid_1.jpg,Blue_Star_Chess_3.jpg,right,552.4750000331551,true,NA,NA,NA,NA,NA,NA,NA,NA,true
O6gO8luH,3en4yvuovf59wipgxxflzhxwdchjxp,36w0ob37h0r4xrsz1h5n99tjsguzhh,O6gO8luH,2020-0188,2020-05-08,21:14:45,21:33:57,NA,incomplete,6,color,1,right,Blue_Circle_Chess_1.jpg,Purple_Circle_Grid_3.jpg,Blue_Triangle_Dots_2.jpg,right,615.094999957364,true,NA,NA,NA,NA,NA,NA,NA,NA,true
O6gO8luH,3en4yvuovf59wipgxxflzhxwdchjxp,36w0ob37h0r4xrsz1h5n99tjsguzhh,O6gO8luH,2020-0188,2020-05-08,21:14:45,21:33:57,NA,incomplete,7,color,1,left,Green_Circle_Grid_1.jpg,Green_Star_Dots_3.jpg,Blue_Circle_Chess_2.jpg,left,1483.0000000074506,true,NA,NA,NA,NA,NA,NA,NA,NA,true
O6gO8luH,3en4yvuovf59wipgxxflzhxwdchjxp,36w0ob37h0r4xrsz1h5n99tjsguzhh,O6gO8luH,2020-0188,2020-05-08,21:14:45,21:33:57,NA,incomplete,8,color,1,right,Purple_Star_Grid_3.jpg,Green_Star_Stripes_1.jpg,Purple_Triangle_Chess_4.jpg,right,761.6999999736436,true,NA,NA,NA,NA,NA,NA,NA,NA,true
O6gO8luH,3en4yvuovf59wipgxxflzhxwdchjxp,36w0ob37h0r4xrsz1h5n99tjsguzhh,O6gO8luH,2020-0188,2020-05-08,21:14:45,21:33:57,NA,incomplete,9,color,1,right,Green_Plus_Stripes_3.jpg,Purple_Plus_Chess_4.jpg,Green_Star_Dots_2.jpg,right,622.1249999944121,true,NA,NA,NA,NA,NA,NA,NA,NA,true
O6gO8luH,3en4yvuovf59wipgxxflzhxwdchjxp,36w0ob37h0r4xrsz1h5n99tjsguzhh,O6gO8luH,2020-0188,2020-05-08,21:14:45,21:33:57,NA,incomplete,10,color,1,right,Purple_Plus_Chess_3.jpg,Blue_Plus_Dots_2.jpg,Purple_Circle_Stripes_1.jpg,right,630.890000029467,true,NA,NA,NA,NA,NA,NA,NA,NA,true
O6gO8luH,3en4yvuovf59wipgxxflzhxwdchjxp,36w0ob37h0r4xrsz1h5n99tjsguzhh,O6gO8luH,2020-0188,2020-05-08,21:14:45,21:33:57,NA,incomplete,11,color,1,right,Purple_Triangle_Stripes_1.jpg,Red_Triangle_Chess_3.jpg,Purple_Star_Dots_4.jpg,right,807.0500000030734,true,NA,NA,NA,NA,NA,NA,NA,NA,true
O6gO8luH,3en4yvuovf59wipgxxflzhxwdchjxp,36w0ob37h0r4xrsz1h5n99tjsguzhh,O6gO8luH,2020-0188,2020-05-08,21:14:45,21:33:57,NA,incomplete,12,color,1,left,Red_Star_Chess_2.jpg,Red_Triangle_Dots_1.jpg,Blue_Star_Stripes_4.jpg,left,1115.5250000301749,true,NA,NA,NA,NA,NA,NA,NA,NA,true
O6gO8luH,3en4yvuovf59wipgxxflzhxwdchjxp,36w0ob37h0r4xrsz1h5n99tjsguzhh,O6gO8luH,2020-0188,2020-05-08,21:14:45,21:33:57,NA,incomplete,13,color,0,left,Green_Plus_Chess_4.jpg,Green_Star_Grid_2.jpg,Purple_Plus_Stripes_3.jpg,left,731.8649999797344,true,NA,NA,NA,NA,NA,NA,NA,NA,true
O6gO8luH,3en4yvuovf59wipgxxflzhxwdchjxp,36w0ob37h0r4xrsz1h5n99tjsguzhh,O6gO8luH,2020-0188,2020-05-08,21:14:45,21:33:57,NA,incomplete,14,color,1,left,Red_Circle_Stripes_1.jpg,Red_Triangle_Dots_4.jpg,Green_Circle_Grid_3.jpg,left,735.2499999688007,true,NA,NA,NA,NA,NA,NA,NA,NA,true
O6gO8luH,3en4yvuovf59wipgxxflzhxwdchjxp,36w0ob37h0r4xrsz1h5n99tjsguzhh,O6gO8luH,2020-0188,2020-05-08,21:14:45,21:33:57,NA,incomplete,15,color,0,right,Green_Plus_Dots_4.jpg,Purple_Plus_Grid_2.jpg,Green_Star_Chess_3.jpg,right,635.5949999997392,true,NA,NA,NA,NA,NA,NA,NA,NA,true
O6gO8luH,3en4yvuovf59wipgxxflzhxwdchjxp,36w0ob37h0r4xrsz1h5n99tjsguzhh,O6gO8luH,2020-0188,2020-05-08,21:14:45,21:33:57,NA,incomplete,16,color,1,left,Red_Plus_Chess_3.jpg,Red_Star_Dots_1.jpg,Purple_Plus_Grid_2.jpg,left,1276.639999996405,true,NA,NA,NA,NA,NA,NA,NA,NA,true
O6gO8luH,3en4yvuovf59wipgxxflzhxwdchjxp,36w0ob37h0r4xrsz1h5n99tjsguzhh,O6gO8luH,2020-0188,2020-05-08,21:14:45,21:33:57,NA,incomplete,17,color,1,left,Blue_Star_Stripes_4.jpg,Blue_Circle_Dots_3.jpg,Green_Star_Chess_1.jpg,left,791.3749999715947,true,NA,NA,NA,NA,NA,NA,NA,NA,true
O6gO8luH,3en4yvuovf59wipgxxflzhxwdchjxp,36w0ob37h0r4xrsz1h5n99tjsguzhh,O6gO8luH,2020-0188,2020-05-08,21:14:45,21:33:57,NA,incomplete,18,color,1,left,Green_Plus_Stripes_1.jpg,Green_Circle_Chess_3.jpg,Blue_Plus_Grid_4.jpg,left,643.6349999858066,true,NA,NA,NA,NA,NA,NA,NA,NA,true
O6gO8luH,3en4yvuovf59wipgxxflzhxwdchjxp,36w0ob37h0r4xrsz1h5n99tjsguzhh,O6gO8luH,2020-0188,2020-05-08,21:14:45,21:33:57,NA,incomplete,19,color,0,left,Green_Star_Stripes_4.jpg,Green_Plus_Grid_3.jpg,Red_Star_Dots_1.jpg,left,570.319999998901,true,NA,NA,NA,NA,NA,NA,NA,NA,true
O6gO8luH,3en4yvuovf59wipgxxflzhxwdchjxp,36w0ob37h0r4xrsz1h5n99tjsguzhh,O6gO8luH,2020-0188,2020-05-08,21:14:45,21:33:57,NA,incomplete,20,shape,1,right,Red_Plus_Stripes_4.jpg,Red_Circle_Dots_2.jpg,Green_Plus_Chess_1.jpg,left,553.9199999766424,false,NA,NA,NA,NA,NA,NA,NA,NA,true
O6gO8luH,3en4yvuovf59wipgxxflzhxwdchjxp,36w0ob37h0r4xrsz1h5n99tjsguzhh,O6gO8luH,2020-0188,2020-05-08,21:14:45,21:33:57,NA,incomplete,21,shape,0,left,Red_Star_Grid_2.jpg,Green_Star_Stripes_4.jpg,Red_Triangle_Chess_3.jpg,left,710.6650000205263,true,NA,NA,NA,NA,NA,NA,NA,NA,true
O6gO8luH,3en4yvuovf59wipgxxflzhxwdchjxp,36w0ob37h0r4xrsz1h5n99tjsguzhh,O6gO8luH,2020-0188,2020-05-08,21:14:45,21:33:57,NA,incomplete,22,shape,0,right,Blue_Circle_Dots_3.jpg,Blue_Plus_Stripes_2.jpg,Green_Circle_Grid_1.jpg,right,1044.2949999705888,true,NA,NA,NA,NA,NA,NA,NA,NA,true
O6gO8luH,3en4yvuovf59wipgxxflzhxwdchjxp,36w0ob37h0r4xrsz1h5n99tjsguzhh,O6gO8luH,2020-0188,2020-05-08,21:14:45,21:33:57,NA,incomplete,23,shape,1,left,Green_Plus_Grid_4.jpg,Blue_Plus_Stripes_3.jpg,Green_Circle_Chess_1.jpg,right,1235.5099999695085,false,NA,NA,NA,NA,NA,NA,NA,NA,true
O6gO8luH,3en4yvuovf59wipgxxflzhxwdchjxp,36w0ob37h0r4xrsz1h5n99tjsguzhh,O6gO8luH,2020-0188,2020-05-08,21:14:45,21:33:57,NA,incomplete,24,shape,1,right,Blue_Plus_Stripes_3.jpg,Blue_Star_Chess_2.jpg,Red_Plus_Dots_4.jpg,right,940.3850000235252,true,NA,NA,NA,NA,NA,NA,NA,NA,true
O6gO8luH,3en4yvuovf59wipgxxflzhxwdchjxp,36w0ob37h0r4xrsz1h5n99tjsguzhh,O6gO8luH,2020-0188,2020-05-08,21:14:45,21:33:57,NA,incomplete,25,shape,1,right,Red_Plus_Chess_2.jpg,Red_Circle_Dots_3.jpg,Purple_Plus_Stripes_4.jpg,right,798.2150000170805,true,NA,NA,NA,NA,NA,NA,NA,NA,true
O6gO8luH,3en4yvuovf59wipgxxflzhxwdchjxp,36w0ob37h0r4xrsz1h5n99tjsguzhh,O6gO8luH,2020-0188,2020-05-08,21:14:45,21:33:57,NA,incomplete,26,shape,1,right,Green_Triangle_Chess_4.jpg,Green_Star_Dots_3.jpg,Purple_Triangle_Stripes_2.jpg,right,784.2799999634735,true,NA,NA,NA,NA,NA,NA,NA,NA,true
O6gO8luH,3en4yvuovf59wipgxxflzhxwdchjxp,36w0ob37h0r4xrsz1h5n99tjsguzhh,O6gO8luH,2020-0188,2020-05-08,21:14:45,21:33:57,NA,incomplete,27,shape,1,left,Green_Star_Chess_2.jpg,Blue_Star_Stripes_1.jpg,Green_Circle_Dots_3.jpg,left,774.6099999640137,true,NA,NA,NA,NA,NA,NA,NA,NA,true
O6gO8luH,3en4yvuovf59wipgxxflzhxwdchjxp,36w0ob37h0r4xrsz1h5n99tjsguzhh,O6gO8luH,2020-0188,2020-05-08,21:14:45,21:33:57,NA,incomplete,28,shape,1,right,Red_Star_Chess_2.jpg,Red_Plus_Dots_1.jpg,Blue_Star_Grid_3.jpg,right,688.1350000039674,true,NA,NA,NA,NA,NA,NA,NA,NA,true
O6gO8luH,3en4yvuovf59wipgxxflzhxwdchjxp,36w0ob37h0r4xrsz1h5n99tjsguzhh,O6gO8luH,2020-0188,2020-05-08,21:14:45,21:33:57,NA,incomplete,29,shape,0,left,Green_Plus_Chess_4.jpg,Blue_Plus_Grid_2.jpg,Green_Star_Stripes_1.jpg,left,891.1400000215508,true,NA,NA,NA,NA,NA,NA,NA,NA,true
O6gO8luH,3en4yvuovf59wipgxxflzhxwdchjxp,36w0ob37h0r4xrsz1h5n99tjsguzhh,O6gO8luH,2020-0188,2020-05-08,21:14:45,21:33:57,NA,incomplete,30,shape,1,right,Green_Triangle_Dots_2.jpg,Green_Circle_Chess_4.jpg,Blue_Triangle_Grid_1.jpg,right,813.5450000409037,true,NA,NA,NA,NA,NA,NA,NA,NA,true
O6gO8luH,3en4yvuovf59wipgxxflzhxwdchjxp,36w0ob37h0r4xrsz1h5n99tjsguzhh,O6gO8luH,2020-0188,2020-05-08,21:14:45,21:33:57,NA,incomplete,31,shape,1,right,Blue_Plus_Dots_4.jpg,Blue_Star_Chess_3.jpg,Purple_Plus_Grid_1.jpg,right,1034.1200000257231,true,NA,NA,NA,NA,NA,NA,NA,NA,true
O6gO8luH,3en4yvuovf59wipgxxflzhxwdchjxp,36w0ob37h0r4xrsz1h5n99tjsguzhh,O6gO8luH,2020-0188,2020-05-08,21:14:45,21:33:57,NA,incomplete,32,shape,1,right,Blue_Star_Grid_1.jpg,Blue_Triangle_Stripes_4.jpg,Green_Star_Dots_3.jpg,right,788.3750000037253,true,NA,NA,NA,NA,NA,NA,NA,NA,true
O6gO8luH,3en4yvuovf59wipgxxflzhxwdchjxp,36w0ob37h0r4xrsz1h5n99tjsguzhh,O6gO8luH,2020-0188,2020-05-08,21:14:45,21:33:57,NA,incomplete,33,shape,1,right,Green_Circle_Grid_2.jpg,Green_Star_Stripes_3.jpg,Red_Circle_Chess_4.jpg,right,900.3500000108033,true,NA,NA,NA,NA,NA,NA,NA,NA,true
O6gO8luH,3en4yvuovf59wipgxxflzhxwdchjxp,36w0ob37h0r4xrsz1h5n99tjsguzhh,O6gO8luH,2020-0188,2020-05-08,21:14:45,21:33:57,NA,incomplete,34,shape,1,right,Red_Circle_Stripes_3.jpg,Red_Triangle_Dots_2.jpg,Green_Circle_Grid_1.jpg,right,663.6650000000373,true,NA,NA,NA,NA,NA,NA,NA,NA,true
O6gO8luH,3en4yvuovf59wipgxxflzhxwdchjxp,36w0ob37h0r4xrsz1h5n99tjsguzhh,O6gO8luH,2020-0188,2020-05-08,21:14:45,21:33:57,NA,incomplete,35,shape,1,left,Blue_Triangle_Stripes_2.jpg,Purple_Triangle_Grid_3.jpg,Blue_Circle_Chess_4.jpg,left,722.8599999798462,true,NA,NA,NA,NA,NA,NA,NA,NA,true
O6gO8luH,3en4yvuovf59wipgxxflzhxwdchjxp,36w0ob37h0r4xrsz1h5n99tjsguzhh,O6gO8luH,2020-0188,2020-05-08,21:14:45,21:33:57,NA,incomplete,36,shape,1,right,Red_Star_Dots_4.jpg,Red_Plus_Stripes_3.jpg,Blue_Star_Chess_2.jpg,right,744.234999991022,true,NA,NA,NA,NA,NA,NA,NA,NA,true
O6gO8luH,3en4yvuovf59wipgxxflzhxwdchjxp,36w0ob37h0r4xrsz1h5n99tjsguzhh,O6gO8luH,2020-0188,2020-05-08,21:14:45,21:33:57,NA,incomplete,37,shape,1,left,Blue_Plus_Dots_1.jpg,Red_Plus_Stripes_4.jpg,Blue_Triangle_Grid_2.jpg,left,912.5299999723211,true,NA,NA,NA,NA,NA,NA,NA,NA,true
O6gO8luH,3en4yvuovf59wipgxxflzhxwdchjxp,36w0ob37h0r4xrsz1h5n99tjsguzhh,O6gO8luH,2020-0188,2020-05-08,21:14:45,21:33:57,NA,incomplete,38,shape,1,left,Blue_Star_Dots_1.jpg,Purple_Star_Chess_4.jpg,Blue_Circle_Stripes_3.jpg,left,729.41000002902,true,NA,NA,NA,NA,NA,NA,NA,NA,true
O6gO8luH,3en4yvuovf59wipgxxflzhxwdchjxp,36w0ob37h0r4xrsz1h5n99tjsguzhh,O6gO8luH,2020-0188,2020-05-08,21:14:45,21:33:57,NA,incomplete,39,shape,0,right,Green_Triangle_Dots_2.jpg,Green_Plus_Stripes_3.jpg,Red_Triangle_Chess_4.jpg,right,730.9050000039861,true,NA,NA,NA,NA,NA,NA,NA,NA,true
O6gO8luH,3en4yvuovf59wipgxxflzhxwdchjxp,36w0ob37h0r4xrsz1h5n99tjsguzhh,O6gO8luH,2020-0188,2020-05-08,21:14:45,21:33:57,NA,incomplete,0,color,0,right,Green_Circle_Dots_3.jpg,Blue_Circle_Stripes_1.jpg,Green_Triangle_Chess_2.jpg,right,714.2149999854155,true,high,NA,NA,NA,NA,NA,NA,NA,false
O6gO8luH,3en4yvuovf59wipgxxflzhxwdchjxp,36w0ob37h0r4xrsz1h5n99tjsguzhh,O6gO8luH,2020-0188,2020-05-08,21:14:45,21:33:57,NA,incomplete,1,color,1,right,Purple_Triangle_Grid_3.jpg,Red_Triangle_Dots_2.jpg,Purple_Plus_Chess_1.jpg,right,588.0050000268966,true,high,NA,NA,NA,NA,NA,NA,NA,false
O6gO8luH,3en4yvuovf59wipgxxflzhxwdchjxp,36w0ob37h0r4xrsz1h5n99tjsguzhh,O6gO8luH,2020-0188,2020-05-08,21:14:45,21:33:57,NA,incomplete,2,color,1,left,Green_Triangle_Chess_4.jpg,Green_Plus_Stripes_2.jpg,Purple_Triangle_Grid_3.jpg,left,602.7950000134297,true,high,NA,NA,NA,NA,NA,NA,NA,false
O6gO8luH,3en4yvuovf59wipgxxflzhxwdchjxp,36w0ob37h0r4xrsz1h5n99tjsguzhh,O6gO8luH,2020-0188,2020-05-08,21:14:45,21:33:57,NA,incomplete,3,color,1,left,Green_Plus_Chess_4.jpg,Green_Circle_Dots_3.jpg,Red_Plus_Grid_2.jpg,left,601.7299999948591,true,high,NA,NA,NA,NA,NA,NA,NA,false
O6gO8luH,3en4yvuovf59wipgxxflzhxwdchjxp,36w0ob37h0r4xrsz1h5n99tjsguzhh,O6gO8luH,2020-0188,2020-05-08,21:14:45,21:33:57,NA,incomplete,4,color,0,right,Blue_Circle_Chess_4.jpg,Red_Circle_Dots_2.jpg,Blue_Triangle_Stripes_3.jpg,right,652.0199999795295,true,high,NA,NA,NA,NA,NA,NA,NA,false
O6gO8luH,3en4yvuovf59wipgxxflzhxwdchjxp,36w0ob37h0r4xrsz1h5n99tjsguzhh,O6gO8luH,2020-0188,2020-05-08,21:14:45,21:33:57,NA,incomplete,5,color,1,left,Purple_Triangle_Chess_1.jpg,Purple_Circle_Grid_3.jpg,Red_Triangle_Dots_2.jpg,left,652.0550000132062,true,high,NA,NA,NA,NA,NA,NA,NA,false
O6gO8luH,3en4yvuovf59wipgxxflzhxwdchjxp,36w0ob37h0r4xrsz1h5n99tjsguzhh,O6gO8luH,2020-0188,2020-05-08,21:14:45,21:33:57,NA,incomplete,6,color,1,right,Purple_Star_Stripes_4.jpg,Green_Star_Dots_1.jpg,Purple_Triangle_Chess_2.jpg,right,572.3700000089593,true,high,NA,NA,NA,NA,NA,NA,NA,false
O6gO8luH,3en4yvuovf59wipgxxflzhxwdchjxp,36w0ob37h0r4xrsz1h5n99tjsguzhh,O6gO8luH,2020-0188,2020-05-08,21:14:45,21:33:57,NA,incomplete,7,color,1,right,Blue_Triangle_Stripes_4.jpg,Purple_Triangle_Dots_1.jpg,Blue_Circle_Chess_2.jpg,right,572.005000023637,true,high,NA,NA,NA,NA,NA,NA,NA,false
O6gO8luH,3en4yvuovf59wipgxxflzhxwdchjxp,36w0ob37h0r4xrsz1h5n99tjsguzhh,O6gO8luH,2020-0188,2020-05-08,21:14:45,21:33:57,NA,incomplete,8,color,1,right,Blue_Star_Chess_1.jpg,Purple_Star_Stripes_4.jpg,Blue_Circle_Dots_2.jpg,right,610.7300000148825,true,high,NA,NA,NA,NA,NA,NA,NA,false
O6gO8luH,3en4yvuovf59wipgxxflzhxwdchjxp,36w0ob37h0r4xrsz1h5n99tjsguzhh,O6gO8luH,2020-0188,2020-05-08,21:14:45,21:33:57,NA,incomplete,9,color,1,right,Green_Star_Grid_1.jpg,Blue_Star_Chess_2.jpg,Green_Plus_Stripes_4.jpg,right,567.9300000192598,true,high,NA,NA,NA,NA,NA,NA,NA,false
O6gO8luH,3en4yvuovf59wipgxxflzhxwdchjxp,36w0ob37h0r4xrsz1h5n99tjsguzhh,O6gO8luH,2020-0188,2020-05-08,21:14:45,21:33:57,NA,incomplete,10,shape,0,right,Red_Circle_Dots_2.jpg,Red_Plus_Stripes_1.jpg,Purple_Circle_Grid_3.jpg,left,915.8799999859184,false,high,NA,NA,NA,NA,NA,NA,NA,false
O6gO8luH,3en4yvuovf59wipgxxflzhxwdchjxp,36w0ob37h0r4xrsz1h5n99tjsguzhh,O6gO8luH,2020-0188,2020-05-08,21:14:45,21:33:57,NA,incomplete,11,shape,0,left,Red_Triangle_Dots_4.jpg,Green_Triangle_Chess_1.jpg,Red_Plus_Grid_2.jpg,right,570.9100000094622,false,high,NA,NA,NA,NA,NA,NA,NA,false
O6gO8luH,3en4yvuovf59wipgxxflzhxwdchjxp,36w0ob37h0r4xrsz1h5n99tjsguzhh,O6gO8luH,2020-0188,2020-05-08,21:14:45,21:33:57,NA,incomplete,12,shape,0,right,Red_Star_Dots_4.jpg,Red_Plus_Grid_1.jpg,Blue_Star_Chess_3.jpg,left,758.4200000273995,false,high,NA,NA,NA,NA,NA,NA,NA,false
O6gO8luH,3en4yvuovf59wipgxxflzhxwdchjxp,36w0ob37h0r4xrsz1h5n99tjsguzhh,O6gO8luH,2020-0188,2020-05-08,21:14:45,21:33:57,NA,incomplete,13,shape,1,right,Red_Circle_Chess_2.jpg,Red_Triangle_Dots_4.jpg,Blue_Circle_Stripes_1.jpg,left,613.8849999988452,false,high,NA,NA,NA,NA,NA,NA,NA,false
O6gO8luH,3en4yvuovf59wipgxxflzhxwdchjxp,36w0ob37h0r4xrsz1h5n99tjsguzhh,O6gO8luH,2020-0188,2020-05-08,21:14:45,21:33:57,NA,incomplete,14,shape,1,right,Purple_Plus_Dots_1.jpg,Purple_Star_Chess_2.jpg,Red_Plus_Stripes_3.jpg,left,705.9700000099838,false,high,NA,NA,NA,NA,NA,NA,NA,false
O6gO8luH,3en4yvuovf59wipgxxflzhxwdchjxp,36w0ob37h0r4xrsz1h5n99tjsguzhh,O6gO8luH,2020-0188,2020-05-08,21:14:45,21:33:57,NA,incomplete,15,shape,1,left,Green_Star_Stripes_1.jpg,Red_Star_Dots_3.jpg,Green_Circle_Grid_4.jpg,right,610.1999999955297,false,high,NA,NA,NA,NA,NA,NA,NA,false
O6gO8luH,3en4yvuovf59wipgxxflzhxwdchjxp,36w0ob37h0r4xrsz1h5n99tjsguzhh,O6gO8luH,2020-0188,2020-05-08,21:14:45,21:33:57,NA,incomplete,16,shape,1,right,Purple_Triangle_Chess_4.jpg,Purple_Plus_Grid_2.jpg,Red_Triangle_Dots_1.jpg,right,808.7499999674037,true,high,NA,NA,NA,NA,NA,NA,NA,false
O6gO8luH,3en4yvuovf59wipgxxflzhxwdchjxp,36w0ob37h0r4xrsz1h5n99tjsguzhh,O6gO8luH,2020-0188,2020-05-08,21:14:45,21:33:57,NA,incomplete,17,shape,1,left,Red_Star_Chess_2.jpg,Green_Star_Stripes_4.jpg,Red_Circle_Grid_3.jpg,left,1006.6750000114553,true,high,NA,NA,NA,NA,NA,NA,NA,false
O6gO8luH,3en4yvuovf59wipgxxflzhxwdchjxp,36w0ob37h0r4xrsz1h5n99tjsguzhh,O6gO8luH,2020-0188,2020-05-08,21:14:45,21:33:57,NA,incomplete,18,shape,1,right,Blue_Triangle_Dots_3.jpg,Blue_Circle_Chess_4.jpg,Purple_Triangle_Stripes_2.jpg,right,889.9349999846891,true,high,NA,NA,NA,NA,NA,NA,NA,false
O6gO8luH,3en4yvuovf59wipgxxflzhxwdchjxp,36w0ob37h0r4xrsz1h5n99tjsguzhh,O6gO8luH,2020-0188,2020-05-08,21:14:45,21:33:57,NA,incomplete,19,shape,0,left,Purple_Star_Stripes_2.jpg,Red_Star_Grid_3.jpg,Purple_Plus_Chess_1.jpg,left,793.5950000537559,true,high,NA,NA,NA,NA,NA,NA,NA,false
O6gO8luH,3en4yvuovf59wipgxxflzhxwdchjxp,36w0ob37h0r4xrsz1h5n99tjsguzhh,O6gO8luH,2020-0188,2020-05-08,21:14:45,21:33:57,NA,incomplete,20,color,1,left,Red_Triangle_Grid_1.jpg,Red_Circle_Chess_2.jpg,Blue_Triangle_Stripes_4.jpg,right,710.8649999718182,false,high,NA,NA,NA,NA,NA,NA,NA,false
O6gO8luH,3en4yvuovf59wipgxxflzhxwdchjxp,36w0ob37h0r4xrsz1h5n99tjsguzhh,O6gO8luH,2020-0188,2020-05-08,21:14:45,21:33:57,NA,incomplete,21,color,1,left,Purple_Star_Stripes_4.jpg,Purple_Triangle_Grid_2.jpg,Blue_Star_Chess_1.jpg,right,1418.2349999900907,false,high,NA,NA,NA,NA,NA,NA,NA,false
O6gO8luH,3en4yvuovf59wipgxxflzhxwdchjxp,36w0ob37h0r4xrsz1h5n99tjsguzhh,O6gO8luH,2020-0188,2020-05-08,21:14:45,21:33:57,NA,incomplete,22,color,1,right,Red_Star_Stripes_1.jpg,Green_Star_Dots_4.jpg,Red_Triangle_Chess_3.jpg,right,569.4700000458397,true,high,NA,NA,NA,NA,NA,NA,NA,false
O6gO8luH,3en4yvuovf59wipgxxflzhxwdchjxp,36w0ob37h0r4xrsz1h5n99tjsguzhh,O6gO8luH,2020-0188,2020-05-08,21:14:45,21:33:57,NA,incomplete,23,color,1,left,Blue_Triangle_Dots_2.jpg,Blue_Plus_Grid_4.jpg,Purple_Triangle_Stripes_1.jpg,right,1049.0199999767356,false,high,NA,NA,NA,NA,NA,NA,NA,false
O6gO8luH,3en4yvuovf59wipgxxflzhxwdchjxp,36w0ob37h0r4xrsz1h5n99tjsguzhh,O6gO8luH,2020-0188,2020-05-08,21:14:45,21:33:57,NA,incomplete,24,color,1,right,Purple_Star_Grid_2.jpg,Green_Star_Stripes_4.jpg,Purple_Circle_Chess_1.jpg,right,955.6650000158697,true,high,NA,NA,NA,NA,NA,NA,NA,false
O6gO8luH,3en4yvuovf59wipgxxflzhxwdchjxp,36w0ob37h0r4xrsz1h5n99tjsguzhh,O6gO8luH,2020-0188,2020-05-08,21:14:45,21:33:57,NA,incomplete,25,color,1,left,Red_Circle_Dots_4.jpg,Red_Triangle_Chess_3.jpg,Purple_Circle_Stripes_1.jpg,left,1241.905000002589,true,high,NA,NA,NA,NA,NA,NA,NA,false
O6gO8luH,3en4yvuovf59wipgxxflzhxwdchjxp,36w0ob37h0r4xrsz1h5n99tjsguzhh,O6gO8luH,2020-0188,2020-05-08,21:14:45,21:33:57,NA,incomplete,26,color,1,left,Red_Circle_Grid_1.jpg,Red_Triangle_Chess_4.jpg,Blue_Circle_Dots_2.jpg,left,1023.9949999959208,true,high,NA,NA,NA,NA,NA,NA,NA,false
O6gO8luH,3en4yvuovf59wipgxxflzhxwdchjxp,36w0ob37h0r4xrsz1h5n99tjsguzhh,O6gO8luH,2020-0188,2020-05-08,21:14:45,21:33:57,NA,incomplete,27,color,1,left,Red_Star_Dots_4.jpg,Red_Circle_Chess_1.jpg,Green_Star_Grid_2.jpg,left,957.9300000332296,true,high,NA,NA,NA,NA,NA,NA,NA,false
O6gO8luH,3en4yvuovf59wipgxxflzhxwdchjxp,36w0ob37h0r4xrsz1h5n99tjsguzhh,O6gO8luH,2020-0188,2020-05-08,21:14:45,21:33:57,NA,incomplete,28,color,1,left,Blue_Star_Chess_1.jpg,Blue_Triangle_Dots_2.jpg,Green_Star_Stripes_3.jpg,left,563.3600000292063,true,high,NA,NA,NA,NA,NA,NA,NA,false
O6gO8luH,3en4yvuovf59wipgxxflzhxwdchjxp,36w0ob37h0r4xrsz1h5n99tjsguzhh,O6gO8luH,2020-0188,2020-05-08,21:14:45,21:33:57,NA,incomplete,29,color,1,left,Red_Star_Dots_4.jpg,Red_Plus_Grid_3.jpg,Green_Star_Stripes_1.jpg,left,597.4049999495037,true,high,NA,NA,NA,NA,NA,NA,NA,false
O6gO8luH,3en4yvuovf59wipgxxflzhxwdchjxp,36w0ob37h0r4xrsz1h5n99tjsguzhh,O6gO8luH,2020-0188,2020-05-08,21:14:45,21:33:57,NA,incomplete,30,shape,1,right,Purple_Plus_Dots_3.jpg,Purple_Star_Grid_2.jpg,Blue_Plus_Chess_4.jpg,left,683.2649999996647,false,high,NA,NA,NA,NA,NA,NA,NA,false
O6gO8luH,3en4yvuovf59wipgxxflzhxwdchjxp,36w0ob37h0r4xrsz1h5n99tjsguzhh,O6gO8luH,2020-0188,2020-05-08,21:14:45,21:33:57,NA,incomplete,31,shape,1,right,Blue_Star_Grid_2.jpg,Blue_Plus_Dots_1.jpg,Red_Star_Chess_4.jpg,left,883.3200000226498,false,high,NA,NA,NA,NA,NA,NA,NA,false
O6gO8luH,3en4yvuovf59wipgxxflzhxwdchjxp,36w0ob37h0r4xrsz1h5n99tjsguzhh,O6gO8luH,2020-0188,2020-05-08,21:14:45,21:33:57,NA,incomplete,32,shape,0,right,Purple_Triangle_Stripes_4.jpg,Purple_Star_Chess_2.jpg,Green_Triangle_Dots_1.jpg,right,846.6699999989942,true,high,NA,NA,NA,NA,NA,NA,NA,false
O6gO8luH,3en4yvuovf59wipgxxflzhxwdchjxp,36w0ob37h0r4xrsz1h5n99tjsguzhh,O6gO8luH,2020-0188,2020-05-08,21:14:45,21:33:57,NA,incomplete,33,shape,1,right,Blue_Circle_Stripes_4.jpg,Blue_Star_Chess_2.jpg,Green_Circle_Dots_1.jpg,right,734.2950000311248,true,high,NA,NA,NA,NA,NA,NA,NA,false
O6gO8luH,3en4yvuovf59wipgxxflzhxwdchjxp,36w0ob37h0r4xrsz1h5n99tjsguzhh,O6gO8luH,2020-0188,2020-05-08,21:14:45,21:33:57,NA,incomplete,34,shape,0,right,Blue_Star_Dots_4.jpg,Blue_Circle_Grid_3.jpg,Purple_Star_Stripes_1.jpg,right,1158.5750000085682,true,high,NA,NA,NA,NA,NA,NA,NA,false
O6gO8luH,3en4yvuovf59wipgxxflzhxwdchjxp,36w0ob37h0r4xrsz1h5n99tjsguzhh,O6gO8luH,2020-0188,2020-05-08,21:14:45,21:33:57,NA,incomplete,35,shape,1,right,Green_Circle_Dots_2.jpg,Green_Star_Chess_4.jpg,Red_Circle_Stripes_3.jpg,right,1000.1850000116974,true,high,NA,NA,NA,NA,NA,NA,NA,false
O6gO8luH,3en4yvuovf59wipgxxflzhxwdchjxp,36w0ob37h0r4xrsz1h5n99tjsguzhh,O6gO8luH,2020-0188,2020-05-08,21:14:45,21:33:57,NA,incomplete,36,shape,1,right,Purple_Star_Stripes_1.jpg,Purple_Circle_Grid_2.jpg,Red_Star_Chess_3.jpg,right,1085.7899999828078,true,high,NA,NA,NA,NA,NA,NA,NA,false
O6gO8luH,3en4yvuovf59wipgxxflzhxwdchjxp,36w0ob37h0r4xrsz1h5n99tjsguzhh,O6gO8luH,2020-0188,2020-05-08,21:14:45,21:33:57,NA,incomplete,37,shape,1,left,Blue_Star_Stripes_2.jpg,Green_Star_Dots_3.jpg,Blue_Triangle_Grid_4.jpg,left,786.0900000086986,true,high,NA,NA,NA,NA,NA,NA,NA,false
O6gO8luH,3en4yvuovf59wipgxxflzhxwdchjxp,36w0ob37h0r4xrsz1h5n99tjsguzhh,O6gO8luH,2020-0188,2020-05-08,21:14:45,21:33:57,NA,incomplete,38,shape,1,right,Blue_Circle_Dots_2.jpg,Blue_Plus_Chess_1.jpg,Green_Circle_Grid_3.jpg,right,882.889999949839,true,high,NA,NA,NA,NA,NA,NA,NA,false
O6gO8luH,3en4yvuovf59wipgxxflzhxwdchjxp,36w0ob37h0r4xrsz1h5n99tjsguzhh,O6gO8luH,2020-0188,2020-05-08,21:14:45,21:33:57,NA,incomplete,39,shape,0,left,Green_Star_Stripes_3.jpg,Red_Star_Dots_1.jpg,Green_Plus_Chess_2.jpg,left,1033.7150000268593,true,high,NA,NA,NA,NA,NA,NA,NA,false
O6gO8luH,3en4yvuovf59wipgxxflzhxwdchjxp,36w0ob37h0r4xrsz1h5n99tjsguzhh,O6gO8luH,2020-0188,2020-05-08,21:14:45,21:33:57,NA,incomplete,40,color,1,right,Green_Plus_Chess_2.jpg,Blue_Plus_Stripes_1.jpg,Green_Star_Grid_4.jpg,left,898.3500000322238,false,high,NA,NA,NA,NA,NA,NA,NA,false
O6gO8luH,3en4yvuovf59wipgxxflzhxwdchjxp,36w0ob37h0r4xrsz1h5n99tjsguzhh,O6gO8luH,2020-0188,2020-05-08,21:14:45,21:33:57,NA,incomplete,41,color,1,right,Red_Circle_Dots_3.jpg,Blue_Circle_Grid_2.jpg,Red_Plus_Chess_4.jpg,right,600.525000016205,true,high,NA,NA,NA,NA,NA,NA,NA,false
O6gO8luH,3en4yvuovf59wipgxxflzhxwdchjxp,36w0ob37h0r4xrsz1h5n99tjsguzhh,O6gO8luH,2020-0188,2020-05-08,21:14:45,21:33:57,NA,incomplete,42,color,1,right,Red_Circle_Chess_3.jpg,Green_Circle_Dots_2.jpg,Red_Plus_Stripes_4.jpg,right,556.4849999500439,true,high,NA,NA,NA,NA,NA,NA,NA,false
O6gO8luH,3en4yvuovf59wipgxxflzhxwdchjxp,36w0ob37h0r4xrsz1h5n99tjsguzhh,O6gO8luH,2020-0188,2020-05-08,21:14:45,21:33:57,NA,incomplete,43,color,1,right,Blue_Plus_Grid_3.jpg,Red_Plus_Chess_2.jpg,Blue_Triangle_Stripes_4.jpg,right,802.8899999917485,true,high,NA,NA,NA,NA,NA,NA,NA,false
O6gO8luH,3en4yvuovf59wipgxxflzhxwdchjxp,36w0ob37h0r4xrsz1h5n99tjsguzhh,O6gO8luH,2020-0188,2020-05-08,21:14:45,21:33:57,NA,incomplete,44,color,1,left,Red_Triangle_Chess_1.jpg,Red_Plus_Stripes_4.jpg,Purple_Triangle_Dots_3.jpg,right,981.4299999852665,false,high,NA,NA,NA,NA,NA,NA,NA,false
O6gO8luH,3en4yvuovf59wipgxxflzhxwdchjxp,36w0ob37h0r4xrsz1h5n99tjsguzhh,O6gO8luH,2020-0188,2020-05-08,21:14:45,21:33:57,NA,incomplete,45,color,0,left,Red_Circle_Stripes_1.jpg,Red_Plus_Chess_2.jpg,Blue_Circle_Dots_4.jpg,left,1014.0450000180863,true,high,NA,NA,NA,NA,NA,NA,NA,false
O6gO8luH,3en4yvuovf59wipgxxflzhxwdchjxp,36w0ob37h0r4xrsz1h5n99tjsguzhh,O6gO8luH,2020-0188,2020-05-08,21:14:45,21:33:57,NA,incomplete,46,color,1,left,Red_Star_Dots_1.jpg,Red_Plus_Chess_4.jpg,Blue_Star_Grid_2.jpg,left,1087.619999947492,true,high,NA,NA,NA,NA,NA,NA,NA,false
O6gO8luH,3en4yvuovf59wipgxxflzhxwdchjxp,36w0ob37h0r4xrsz1h5n99tjsguzhh,O6gO8luH,2020-0188,2020-05-08,21:14:45,21:33:57,NA,incomplete,47,color,1,right,Blue_Circle_Grid_4.jpg,Purple_Circle_Chess_1.jpg,Blue_Star_Dots_3.jpg,right,880.9449999826029,true,high,NA,NA,NA,NA,NA,NA,NA,false
O6gO8luH,3en4yvuovf59wipgxxflzhxwdchjxp,36w0ob37h0r4xrsz1h5n99tjsguzhh,O6gO8luH,2020-0188,2020-05-08,21:14:45,21:33:57,NA,incomplete,48,color,1,right,Blue_Triangle_Dots_4.jpg,Green_Triangle_Stripes_3.jpg,Blue_Star_Chess_2.jpg,right,660.0700000417419,true,high,NA,NA,NA,NA,NA,NA,NA,false
O6gO8luH,3en4yvuovf59wipgxxflzhxwdchjxp,36w0ob37h0r4xrsz1h5n99tjsguzhh,O6gO8luH,2020-0188,2020-05-08,21:14:45,21:33:57,NA,incomplete,49,color,1,left,Blue_Circle_Grid_1.jpg,Blue_Star_Chess_3.jpg,Red_Circle_Dots_4.jpg,left,1061.4249999634922,true,high,NA,NA,NA,NA,NA,NA,NA,false
O6gO8luH,3en4yvuovf59wipgxxflzhxwdchjxp,36w0ob37h0r4xrsz1h5n99tjsguzhh,O6gO8luH,2020-0188,2020-05-08,21:14:45,21:33:57,NA,incomplete,50,shape,1,right,Red_Circle_Grid_4.jpg,Red_Plus_Chess_1.jpg,Purple_Circle_Stripes_2.jpg,left,1176.4449999900535,false,high,NA,NA,NA,NA,NA,NA,NA,false
O6gO8luH,3en4yvuovf59wipgxxflzhxwdchjxp,36w0ob37h0r4xrsz1h5n99tjsguzhh,O6gO8luH,2020-0188,2020-05-08,21:14:45,21:33:57,NA,incomplete,51,shape,0,left,Blue_Plus_Chess_1.jpg,Purple_Plus_Grid_3.jpg,Blue_Triangle_Stripes_2.jpg,right,877.6700000162236,false,high,NA,NA,NA,NA,NA,NA,NA,false
O6gO8luH,3en4yvuovf59wipgxxflzhxwdchjxp,36w0ob37h0r4xrsz1h5n99tjsguzhh,O6gO8luH,2020-0188,2020-05-08,21:14:45,21:33:57,NA,incomplete,52,shape,0,right,Green_Star_Stripes_3.jpg,Green_Plus_Grid_2.jpg,Red_Star_Dots_4.jpg,left,813.3699999889359,false,high,NA,NA,NA,NA,NA,NA,NA,false
O6gO8luH,3en4yvuovf59wipgxxflzhxwdchjxp,36w0ob37h0r4xrsz1h5n99tjsguzhh,O6gO8luH,2020-0188,2020-05-08,21:14:45,21:33:57,NA,incomplete,53,shape,0,left,Purple_Circle_Chess_2.jpg,Blue_Circle_Dots_4.jpg,Purple_Star_Grid_3.jpg,right,595.2750000287779,false,high,NA,NA,NA,NA,NA,NA,NA,false
O6gO8luH,3en4yvuovf59wipgxxflzhxwdchjxp,36w0ob37h0r4xrsz1h5n99tjsguzhh,O6gO8luH,2020-0188,2020-05-08,21:14:45,21:33:57,NA,incomplete,54,shape,1,left,Green_Plus_Dots_1.jpg,Red_Plus_Grid_3.jpg,Green_Star_Chess_2.jpg,right,1033.110000018496,false,high,NA,NA,NA,NA,NA,NA,NA,false
O6gO8luH,3en4yvuovf59wipgxxflzhxwdchjxp,36w0ob37h0r4xrsz1h5n99tjsguzhh,O6gO8luH,2020-0188,2020-05-08,21:14:45,21:33:57,NA,incomplete,55,shape,0,right,Purple_Circle_Grid_4.jpg,Purple_Plus_Dots_1.jpg,Green_Circle_Stripes_3.jpg,left,600.70499998983,false,high,NA,NA,NA,NA,NA,NA,NA,false
O6gO8luH,3en4yvuovf59wipgxxflzhxwdchjxp,36w0ob37h0r4xrsz1h5n99tjsguzhh,O6gO8luH,2020-0188,2020-05-08,21:14:45,21:33:57,NA,incomplete,56,shape,1,left,Green_Triangle_Stripes_1.jpg,Red_Triangle_Chess_4.jpg,Green_Circle_Grid_3.jpg,right,619.4649999961257,false,high,NA,NA,NA,NA,NA,NA,NA,false
O6gO8luH,3en4yvuovf59wipgxxflzhxwdchjxp,36w0ob37h0r4xrsz1h5n99tjsguzhh,O6gO8luH,2020-0188,2020-05-08,21:14:45,21:33:57,NA,incomplete,57,shape,1,left,Red_Triangle_Chess_3.jpg,Green_Triangle_Stripes_4.jpg,Red_Plus_Grid_2.jpg,right,584.6499999752268,false,high,NA,NA,NA,NA,NA,NA,NA,false
O6gO8luH,3en4yvuovf59wipgxxflzhxwdchjxp,36w0ob37h0r4xrsz1h5n99tjsguzhh,O6gO8luH,2020-0188,2020-05-08,21:14:45,21:33:57,NA,incomplete,58,shape,1,left,Red_Star_Chess_1.jpg,Purple_Star_Dots_3.jpg,Red_Circle_Stripes_4.jpg,left,822.0999999903142,true,high,NA,NA,NA,NA,NA,NA,NA,false
O6gO8luH,3en4yvuovf59wipgxxflzhxwdchjxp,36w0ob37h0r4xrsz1h5n99tjsguzhh,O6gO8luH,2020-0188,2020-05-08,21:14:45,21:33:57,NA,incomplete,59,shape,1,right,Blue_Plus_Stripes_4.jpg,Blue_Triangle_Dots_2.jpg,Green_Plus_Chess_3.jpg,right,1085.0150000187568,true,high,NA,NA,NA,NA,NA,NA,NA,false
O6gO8luH,3en4yvuovf59wipgxxflzhxwdchjxp,36w0ob37h0r4xrsz1h5n99tjsguzhh,O6gO8luH,2020-0188,2020-05-08,21:14:45,21:33:57,NA,incomplete,60,color,0,right,Blue_Triangle_Chess_1.jpg,Purple_Triangle_Grid_3.jpg,Blue_Plus_Stripes_4.jpg,left,714.0399999916553,false,high,NA,NA,NA,NA,NA,NA,NA,false
O6gO8luH,3en4yvuovf59wipgxxflzhxwdchjxp,36w0ob37h0r4xrsz1h5n99tjsguzhh,O6gO8luH,2020-0188,2020-05-08,21:14:45,21:33:57,NA,incomplete,61,color,1,right,Green_Star_Dots_1.jpg,Blue_Star_Grid_4.jpg,Green_Triangle_Stripes_2.jpg,left,765.8599999849685,false,high,NA,NA,NA,NA,NA,NA,NA,false
O6gO8luH,3en4yvuovf59wipgxxflzhxwdchjxp,36w0ob37h0r4xrsz1h5n99tjsguzhh,O6gO8luH,2020-0188,2020-05-08,21:14:45,21:33:57,NA,incomplete,62,color,1,right,Blue_Circle_Stripes_4.jpg,Red_Circle_Grid_1.jpg,Blue_Plus_Chess_2.jpg,left,1146.9599999836646,false,high,NA,NA,NA,NA,NA,NA,NA,false
O6gO8luH,3en4yvuovf59wipgxxflzhxwdchjxp,36w0ob37h0r4xrsz1h5n99tjsguzhh,O6gO8luH,2020-0188,2020-05-08,21:14:45,21:33:57,NA,incomplete,63,color,0,right,Red_Triangle_Grid_2.jpg,Green_Triangle_Stripes_3.jpg,Red_Circle_Dots_1.jpg,left,1115.1450000470504,false,high,NA,NA,NA,NA,NA,NA,NA,false
O6gO8luH,3en4yvuovf59wipgxxflzhxwdchjxp,36w0ob37h0r4xrsz1h5n99tjsguzhh,O6gO8luH,2020-0188,2020-05-08,21:14:45,21:33:57,NA,incomplete,64,color,1,left,Purple_Star_Dots_4.jpg,Purple_Plus_Grid_1.jpg,Blue_Star_Chess_2.jpg,right,931.8599999533035,false,high,NA,NA,NA,NA,NA,NA,NA,false
O6gO8luH,3en4yvuovf59wipgxxflzhxwdchjxp,36w0ob37h0r4xrsz1h5n99tjsguzhh,O6gO8luH,2020-0188,2020-05-08,21:14:45,21:33:57,NA,incomplete,65,color,1,right,Purple_Star_Stripes_4.jpg,Green_Star_Dots_2.jpg,Purple_Circle_Grid_3.jpg,right,651.3249999843538,true,high,NA,NA,NA,NA,NA,NA,NA,false
O6gO8luH,3en4yvuovf59wipgxxflzhxwdchjxp,36w0ob37h0r4xrsz1h5n99tjsguzhh,O6gO8luH,2020-0188,2020-05-08,21:14:45,21:33:57,NA,incomplete,66,color,0,right,Green_Plus_Stripes_2.jpg,Red_Plus_Chess_3.jpg,Green_Triangle_Dots_1.jpg,right,639.6799999638461,true,high,NA,NA,NA,NA,NA,NA,NA,false
O6gO8luH,3en4yvuovf59wipgxxflzhxwdchjxp,36w0ob37h0r4xrsz1h5n99tjsguzhh,O6gO8luH,2020-0188,2020-05-08,21:14:45,21:33:57,NA,incomplete,67,color,1,right,Red_Star_Chess_4.jpg,Blue_Star_Stripes_1.jpg,Red_Plus_Grid_3.jpg,right,773.6450000084005,true,high,NA,NA,NA,NA,NA,NA,NA,false
O6gO8luH,3en4yvuovf59wipgxxflzhxwdchjxp,36w0ob37h0r4xrsz1h5n99tjsguzhh,O6gO8luH,2020-0188,2020-05-08,21:14:45,21:33:57,NA,incomplete,68,color,0,left,Purple_Circle_Stripes_3.jpg,Purple_Star_Grid_4.jpg,Blue_Circle_Dots_1.jpg,left,651.3099999865517,true,high,NA,NA,NA,NA,NA,NA,NA,false
O6gO8luH,3en4yvuovf59wipgxxflzhxwdchjxp,36w0ob37h0r4xrsz1h5n99tjsguzhh,O6gO8luH,2020-0188,2020-05-08,21:14:45,21:33:57,NA,incomplete,69,color,1,right,Blue_Star_Chess_2.jpg,Purple_Star_Grid_4.jpg,Blue_Triangle_Stripes_1.jpg,right,765.769999998156,true,high,NA,NA,NA,NA,NA,NA,NA,false
O6gO8luH,3en4yvuovf59wipgxxflzhxwdchjxp,36w0ob37h0r4xrsz1h5n99tjsguzhh,O6gO8luH,2020-0188,2020-05-08,21:14:45,21:33:57,NA,incomplete,70,shape,1,left,Green_Circle_Chess_1.jpg,Blue_Circle_Grid_3.jpg,Green_Star_Dots_4.jpg,right,632.0750000304542,false,high,NA,NA,NA,NA,NA,NA,NA,false
O6gO8luH,3en4yvuovf59wipgxxflzhxwdchjxp,36w0ob37h0r4xrsz1h5n99tjsguzhh,O6gO8luH,2020-0188,2020-05-08,21:14:45,21:33:57,NA,incomplete,71,shape,0,left,Red_Plus_Dots_2.jpg,Purple_Plus_Stripes_1.jpg,Red_Circle_Grid_3.jpg,left,816.0200000274926,true,high,NA,NA,NA,NA,NA,NA,NA,false
O6gO8luH,3en4yvuovf59wipgxxflzhxwdchjxp,36w0ob37h0r4xrsz1h5n99tjsguzhh,O6gO8luH,2020-0188,2020-05-08,21:14:45,21:33:57,NA,incomplete,72,shape,1,left,Green_Plus_Dots_1.jpg,Purple_Plus_Stripes_4.jpg,Green_Circle_Grid_3.jpg,right,584.984999964945,false,high,NA,NA,NA,NA,NA,NA,NA,false
O6gO8luH,3en4yvuovf59wipgxxflzhxwdchjxp,36w0ob37h0r4xrsz1h5n99tjsguzhh,O6gO8luH,2020-0188,2020-05-08,21:14:45,21:33:57,NA,incomplete,73,shape,1,right,Red_Triangle_Grid_3.jpg,Red_Star_Stripes_1.jpg,Blue_Triangle_Dots_4.jpg,right,1027.704999956768,true,high,NA,NA,NA,NA,NA,NA,NA,false
O6gO8luH,3en4yvuovf59wipgxxflzhxwdchjxp,36w0ob37h0r4xrsz1h5n99tjsguzhh,O6gO8luH,2020-0188,2020-05-08,21:14:45,21:33:57,NA,incomplete,74,shape,1,left,Green_Circle_Stripes_4.jpg,Purple_Circle_Chess_3.jpg,Green_Triangle_Grid_1.jpg,left,1314.8349999682978,true,high,NA,NA,NA,NA,NA,NA,NA,false
O6gO8luH,3en4yvuovf59wipgxxflzhxwdchjxp,36w0ob37h0r4xrsz1h5n99tjsguzhh,O6gO8luH,2020-0188,2020-05-08,21:14:45,21:33:57,NA,incomplete,75,shape,1,left,Purple_Star_Stripes_3.jpg,Red_Star_Dots_1.jpg,Purple_Plus_Grid_4.jpg,left,1078.6250000237487,true,high,NA,NA,NA,NA,NA,NA,NA,false
O6gO8luH,3en4yvuovf59wipgxxflzhxwdchjxp,36w0ob37h0r4xrsz1h5n99tjsguzhh,O6gO8luH,2020-0188,2020-05-08,21:14:45,21:33:57,NA,incomplete,76,shape,1,left,Blue_Star_Stripes_2.jpg,Green_Star_Dots_3.jpg,Blue_Triangle_Grid_4.jpg,left,858.3949999883771,true,high,NA,NA,NA,NA,NA,NA,NA,false
O6gO8luH,3en4yvuovf59wipgxxflzhxwdchjxp,36w0ob37h0r4xrsz1h5n99tjsguzhh,O6gO8luH,2020-0188,2020-05-08,21:14:45,21:33:57,NA,incomplete,77,shape,1,left,Purple_Star_Chess_3.jpg,Green_Star_Grid_1.jpg,Purple_Triangle_Stripes_4.jpg,left,942.3499999684282,true,high,NA,NA,NA,NA,NA,NA,NA,false
O6gO8luH,3en4yvuovf59wipgxxflzhxwdchjxp,36w0ob37h0r4xrsz1h5n99tjsguzhh,O6gO8luH,2020-0188,2020-05-08,21:14:45,21:33:57,NA,incomplete,78,shape,1,left,Green_Circle_Stripes_1.jpg,Red_Circle_Chess_3.jpg,Green_Plus_Dots_2.jpg,left,831.5200000070035,true,high,NA,NA,NA,NA,NA,NA,NA,false
O6gO8luH,3en4yvuovf59wipgxxflzhxwdchjxp,36w0ob37h0r4xrsz1h5n99tjsguzhh,O6gO8luH,2020-0188,2020-05-08,21:14:45,21:33:57,NA,incomplete,79,shape,1,right,Blue_Star_Chess_1.jpg,Blue_Circle_Dots_2.jpg,Green_Star_Grid_4.jpg,right,933.2949999952689,true,high,NA,NA,NA,NA,NA,NA,NA,false
O6gO8luH,3en4yvuovf59wipgxxflzhxwdchjxp,36w0ob37h0r4xrsz1h5n99tjsguzhh,O6gO8luH,2020-0188,2020-05-08,21:14:45,21:33:57,NA,incomplete,80,color,1,left,Green_Triangle_Chess_2.jpg,Green_Plus_Dots_4.jpg,Purple_Triangle_Grid_3.jpg,right,1178.0049999943003,false,high,NA,NA,NA,NA,NA,NA,NA,false
O6gO8luH,3en4yvuovf59wipgxxflzhxwdchjxp,36w0ob37h0r4xrsz1h5n99tjsguzhh,O6gO8luH,2020-0188,2020-05-08,21:14:45,21:33:57,NA,incomplete,81,color,1,right,Red_Circle_Stripes_3.jpg,Blue_Circle_Dots_2.jpg,Red_Plus_Chess_4.jpg,none,0,false,high,NA,NA,NA,NA,NA,NA,NA,false
O6gO8luH,3en4yvuovf59wipgxxflzhxwdchjxp,36w0ob37h0r4xrsz1h5n99tjsguzhh,O6gO8luH,2020-0188,2020-05-08,21:14:45,21:33:57,NA,incomplete,82,color,1,right,Purple_Triangle_Chess_2.jpg,Blue_Triangle_Grid_3.jpg,Purple_Plus_Dots_1.jpg,left,1448.5250000143424,false,high,NA,NA,NA,NA,NA,NA,NA,false
O6gO8luH,3en4yvuovf59wipgxxflzhxwdchjxp,36w0ob37h0r4xrsz1h5n99tjsguzhh,O6gO8luH,2020-0188,2020-05-08,21:14:45,21:33:57,NA,incomplete,83,color,1,right,Blue_Triangle_Grid_1.jpg,Red_Triangle_Stripes_2.jpg,Blue_Plus_Dots_4.jpg,right,620.3450000029989,true,high,NA,NA,NA,NA,NA,NA,NA,false
O6gO8luH,3en4yvuovf59wipgxxflzhxwdchjxp,36w0ob37h0r4xrsz1h5n99tjsguzhh,O6gO8luH,2020-0188,2020-05-08,21:14:45,21:33:57,NA,incomplete,84,color,0,right,Green_Star_Grid_3.jpg,Blue_Star_Chess_4.jpg,Green_Triangle_Dots_1.jpg,left,790.3700000024401,false,high,NA,NA,NA,NA,NA,NA,NA,false
O6gO8luH,3en4yvuovf59wipgxxflzhxwdchjxp,36w0ob37h0r4xrsz1h5n99tjsguzhh,O6gO8luH,2020-0188,2020-05-08,21:14:45,21:33:57,NA,incomplete,85,color,1,left,Red_Circle_Stripes_4.jpg,Red_Star_Grid_2.jpg,Green_Circle_Dots_3.jpg,left,874.405000009574,true,high,NA,NA,NA,NA,NA,NA,NA,false
O6gO8luH,3en4yvuovf59wipgxxflzhxwdchjxp,36w0ob37h0r4xrsz1h5n99tjsguzhh,O6gO8luH,2020-0188,2020-05-08,21:14:45,21:33:57,NA,incomplete,86,color,0,right,Purple_Triangle_Stripes_1.jpg,Red_Triangle_Grid_3.jpg,Purple_Plus_Chess_4.jpg,left,807.5949999620207,false,high,NA,NA,NA,NA,NA,NA,NA,false
O6gO8luH,3en4yvuovf59wipgxxflzhxwdchjxp,36w0ob37h0r4xrsz1h5n99tjsguzhh,O6gO8luH,2020-0188,2020-05-08,21:14:45,21:33:57,NA,incomplete,87,color,1,right,Green_Star_Grid_4.jpg,Red_Star_Chess_3.jpg,Green_Plus_Stripes_1.jpg,left,868.625000002794,false,high,NA,NA,NA,NA,NA,NA,NA,false
O6gO8luH,3en4yvuovf59wipgxxflzhxwdchjxp,36w0ob37h0r4xrsz1h5n99tjsguzhh,O6gO8luH,2020-0188,2020-05-08,21:14:45,21:33:57,NA,incomplete,88,color,1,left,Red_Star_Dots_4.jpg,Red_Plus_Chess_2.jpg,Green_Star_Grid_3.jpg,right,805.7600000174716,false,high,NA,NA,NA,NA,NA,NA,NA,false
O6gO8luH,3en4yvuovf59wipgxxflzhxwdchjxp,36w0ob37h0r4xrsz1h5n99tjsguzhh,O6gO8luH,2020-0188,2020-05-08,21:14:45,21:33:57,NA,incomplete,89,color,1,right,Red_Star_Grid_1.jpg,Green_Star_Stripes_3.jpg,Red_Circle_Chess_2.jpg,right,1041.674999985844,true,high,NA,NA,NA,NA,NA,NA,NA,false
O6gO8luH,3en4yvuovf59wipgxxflzhxwdchjxp,36w0ob37h0r4xrsz1h5n99tjsguzhh,O6gO8luH,2020-0188,2020-05-08,21:14:45,21:33:57,NA,incomplete,90,shape,1,left,Green_Plus_Stripes_4.jpg,Purple_Plus_Chess_2.jpg,Green_Triangle_Dots_3.jpg,right,577.350000035949,false,high,NA,NA,NA,NA,NA,NA,NA,false
O6gO8luH,3en4yvuovf59wipgxxflzhxwdchjxp,36w0ob37h0r4xrsz1h5n99tjsguzhh,O6gO8luH,2020-0188,2020-05-08,21:14:45,21:33:57,NA,incomplete,91,shape,1,right,Red_Plus_Dots_3.jpg,Red_Star_Grid_1.jpg,Purple_Plus_Stripes_2.jpg,left,674.0550000104122,false,high,NA,NA,NA,NA,NA,NA,NA,false
O6gO8luH,3en4yvuovf59wipgxxflzhxwdchjxp,36w0ob37h0r4xrsz1h5n99tjsguzhh,O6gO8luH,2020-0188,2020-05-08,21:14:45,21:33:57,NA,incomplete,92,shape,1,right,Green_Circle_Dots_3.jpg,Green_Star_Stripes_4.jpg,Purple_Circle_Chess_1.jpg,left,638.2400000002235,false,high,NA,NA,NA,NA,NA,NA,NA,false
O6gO8luH,3en4yvuovf59wipgxxflzhxwdchjxp,36w0ob37h0r4xrsz1h5n99tjsguzhh,O6gO8luH,2020-0188,2020-05-08,21:14:45,21:33:57,NA,incomplete,93,shape,1,right,Blue_Plus_Stripes_2.jpg,Blue_Star_Grid_3.jpg,Green_Plus_Dots_4.jpg,right,783.1500000320375,true,high,NA,NA,NA,NA,NA,NA,NA,false
O6gO8luH,3en4yvuovf59wipgxxflzhxwdchjxp,36w0ob37h0r4xrsz1h5n99tjsguzhh,O6gO8luH,2020-0188,2020-05-08,21:14:45,21:33:57,NA,incomplete,94,shape,1,right,Blue_Circle_Chess_1.jpg,Blue_Plus_Grid_4.jpg,Red_Circle_Stripes_3.jpg,right,877.2250000038184,true,high,NA,NA,NA,NA,NA,NA,NA,false
O6gO8luH,3en4yvuovf59wipgxxflzhxwdchjxp,36w0ob37h0r4xrsz1h5n99tjsguzhh,O6gO8luH,2020-0188,2020-05-08,21:14:45,21:33:57,NA,incomplete,95,shape,1,left,Red_Circle_Chess_4.jpg,Blue_Circle_Grid_2.jpg,Red_Star_Dots_3.jpg,left,726.4500000164844,true,high,NA,NA,NA,NA,NA,NA,NA,false
O6gO8luH,3en4yvuovf59wipgxxflzhxwdchjxp,36w0ob37h0r4xrsz1h5n99tjsguzhh,O6gO8luH,2020-0188,2020-05-08,21:14:45,21:33:57,NA,incomplete,96,shape,1,right,Green_Triangle_Grid_2.jpg,Green_Plus_Dots_3.jpg,Purple_Triangle_Chess_1.jpg,right,771.9950000173412,true,high,NA,NA,NA,NA,NA,NA,NA,false
O6gO8luH,3en4yvuovf59wipgxxflzhxwdchjxp,36w0ob37h0r4xrsz1h5n99tjsguzhh,O6gO8luH,2020-0188,2020-05-08,21:14:45,21:33:57,NA,incomplete,97,shape,1,left,Purple_Triangle_Stripes_4.jpg,Red_Triangle_Dots_1.jpg,Purple_Circle_Grid_3.jpg,left,947.8250000393018,true,high,NA,NA,NA,NA,NA,NA,NA,false
O6gO8luH,3en4yvuovf59wipgxxflzhxwdchjxp,36w0ob37h0r4xrsz1h5n99tjsguzhh,O6gO8luH,2020-0188,2020-05-08,21:14:45,21:33:57,NA,incomplete,98,shape,1,right,Blue_Plus_Dots_1.jpg,Blue_Circle_Stripes_2.jpg,Green_Plus_Grid_3.jpg,right,735.9799999976531,true,high,NA,NA,NA,NA,NA,NA,NA,false
O6gO8luH,3en4yvuovf59wipgxxflzhxwdchjxp,36w0ob37h0r4xrsz1h5n99tjsguzhh,O6gO8luH,2020-0188,2020-05-08,21:14:45,21:33:57,NA,incomplete,99,shape,1,right,Blue_Plus_Stripes_3.jpg,Blue_Star_Chess_1.jpg,Red_Plus_Grid_4.jpg,right,724.4250000221655,true,high,NA,NA,NA,NA,NA,NA,NA,false
O6gO8luH,3en4yvuovf59wipgxxflzhxwdchjxp,36w0ob37h0r4xrsz1h5n99tjsguzhh,O6gO8luH,2020-0188,2020-05-08,21:14:45,21:33:57,NA,incomplete,100,color,0,right,Red_Plus_Stripes_2.jpg,Blue_Plus_Chess_1.jpg,Red_Star_Grid_4.jpg,left,728.4349999972619,false,high,NA,NA,NA,NA,NA,NA,NA,false
O6gO8luH,3en4yvuovf59wipgxxflzhxwdchjxp,36w0ob37h0r4xrsz1h5n99tjsguzhh,O6gO8luH,2020-0188,2020-05-08,21:14:45,21:33:57,NA,incomplete,101,color,1,left,Green_Triangle_Grid_3.jpg,Green_Star_Stripes_1.jpg,Blue_Triangle_Dots_2.jpg,right,714.0599999693222,false,high,NA,NA,NA,NA,NA,NA,NA,false
O6gO8luH,3en4yvuovf59wipgxxflzhxwdchjxp,36w0ob37h0r4xrsz1h5n99tjsguzhh,O6gO8luH,2020-0188,2020-05-08,21:14:45,21:33:57,NA,incomplete,102,color,1,left,Blue_Plus_Chess_2.jpg,Blue_Triangle_Stripes_1.jpg,Purple_Plus_Dots_4.jpg,right,724.1200000280514,false,high,NA,NA,NA,NA,NA,NA,NA,false
O6gO8luH,3en4yvuovf59wipgxxflzhxwdchjxp,36w0ob37h0r4xrsz1h5n99tjsguzhh,O6gO8luH,2020-0188,2020-05-08,21:14:45,21:33:57,NA,incomplete,103,color,1,right,Green_Circle_Grid_2.jpg,Blue_Circle_Dots_1.jpg,Green_Star_Stripes_4.jpg,right,797.3750000237487,true,high,NA,NA,NA,NA,NA,NA,NA,false
O6gO8luH,3en4yvuovf59wipgxxflzhxwdchjxp,36w0ob37h0r4xrsz1h5n99tjsguzhh,O6gO8luH,2020-0188,2020-05-08,21:14:45,21:33:57,NA,incomplete,104,color,1,left,Blue_Circle_Stripes_2.jpg,Blue_Star_Grid_1.jpg,Red_Circle_Chess_3.jpg,left,847.8899999754503,true,high,NA,NA,NA,NA,NA,NA,NA,false
O6gO8luH,3en4yvuovf59wipgxxflzhxwdchjxp,36w0ob37h0r4xrsz1h5n99tjsguzhh,O6gO8luH,2020-0188,2020-05-08,21:14:45,21:33:57,NA,incomplete,105,color,1,left,Red_Star_Chess_1.jpg,Red_Circle_Stripes_4.jpg,Blue_Star_Dots_3.jpg,left,614.0050000394695,true,high,NA,NA,NA,NA,NA,NA,NA,false
O6gO8luH,3en4yvuovf59wipgxxflzhxwdchjxp,36w0ob37h0r4xrsz1h5n99tjsguzhh,O6gO8luH,2020-0188,2020-05-08,21:14:45,21:33:57,NA,incomplete,106,color,1,right,Purple_Circle_Grid_4.jpg,Green_Circle_Chess_1.jpg,Purple_Plus_Stripes_2.jpg,right,682.4350000242703,true,high,NA,NA,NA,NA,NA,NA,NA,false
O6gO8luH,3en4yvuovf59wipgxxflzhxwdchjxp,36w0ob37h0r4xrsz1h5n99tjsguzhh,O6gO8luH,2020-0188,2020-05-08,21:14:45,21:33:57,NA,incomplete,107,color,1,left,Purple_Circle_Dots_3.jpg,Purple_Triangle_Grid_4.jpg,Blue_Circle_Chess_1.jpg,left,641.8299999786541,true,high,NA,NA,NA,NA,NA,NA,NA,false
O6gO8luH,3en4yvuovf59wipgxxflzhxwdchjxp,36w0ob37h0r4xrsz1h5n99tjsguzhh,O6gO8luH,2020-0188,2020-05-08,21:14:45,21:33:57,NA,incomplete,108,color,1,right,Blue_Plus_Grid_4.jpg,Red_Plus_Dots_1.jpg,Blue_Star_Stripes_3.jpg,right,627.8150000143796,true,high,NA,NA,NA,NA,NA,NA,NA,false
O6gO8luH,3en4yvuovf59wipgxxflzhxwdchjxp,36w0ob37h0r4xrsz1h5n99tjsguzhh,O6gO8luH,2020-0188,2020-05-08,21:14:45,21:33:57,NA,incomplete,109,color,0,right,Purple_Triangle_Dots_4.jpg,Blue_Triangle_Grid_3.jpg,Purple_Star_Chess_1.jpg,right,779.2550000012852,true,high,NA,NA,NA,NA,NA,NA,NA,false
O6gO8luH,3en4yvuovf59wipgxxflzhxwdchjxp,36w0ob37h0r4xrsz1h5n99tjsguzhh,O6gO8luH,2020-0188,2020-05-08,21:14:45,21:33:57,NA,incomplete,110,shape,0,left,Red_Circle_Dots_2.jpg,Blue_Circle_Chess_1.jpg,Red_Star_Stripes_4.jpg,right,609.0250000124797,false,high,NA,NA,NA,NA,NA,NA,NA,false
O6gO8luH,3en4yvuovf59wipgxxflzhxwdchjxp,36w0ob37h0r4xrsz1h5n99tjsguzhh,O6gO8luH,2020-0188,2020-05-08,21:14:45,21:33:57,NA,incomplete,111,shape,1,left,Red_Triangle_Stripes_4.jpg,Blue_Triangle_Dots_3.jpg,Red_Star_Grid_2.jpg,right,514.6349999704398,false,high,NA,NA,NA,NA,NA,NA,NA,false
O6gO8luH,3en4yvuovf59wipgxxflzhxwdchjxp,36w0ob37h0r4xrsz1h5n99tjsguzhh,O6gO8luH,2020-0188,2020-05-08,21:14:45,21:33:57,NA,incomplete,112,shape,1,right,Blue_Star_Chess_2.jpg,Blue_Triangle_Stripes_4.jpg,Purple_Star_Dots_3.jpg,left,991.5299999993294,false,high,NA,NA,NA,NA,NA,NA,NA,false
O6gO8luH,3en4yvuovf59wipgxxflzhxwdchjxp,36w0ob37h0r4xrsz1h5n99tjsguzhh,O6gO8luH,2020-0188,2020-05-08,21:14:45,21:33:57,NA,incomplete,113,shape,1,left,Blue_Triangle_Chess_3.jpg,Red_Triangle_Stripes_1.jpg,Blue_Plus_Dots_4.jpg,left,810.680000053253,true,high,NA,NA,NA,NA,NA,NA,NA,false
O6gO8luH,3en4yvuovf59wipgxxflzhxwdchjxp,36w0ob37h0r4xrsz1h5n99tjsguzhh,O6gO8luH,2020-0188,2020-05-08,21:14:45,21:33:57,NA,incomplete,114,shape,1,right,Blue_Star_Dots_2.jpg,Blue_Triangle_Grid_4.jpg,Purple_Star_Chess_3.jpg,right,848.0949999648146,true,high,NA,NA,NA,NA,NA,NA,NA,false
O6gO8luH,3en4yvuovf59wipgxxflzhxwdchjxp,36w0ob37h0r4xrsz1h5n99tjsguzhh,O6gO8luH,2020-0188,2020-05-08,21:14:45,21:33:57,NA,incomplete,115,shape,1,left,Purple_Plus_Chess_2.jpg,Blue_Plus_Grid_3.jpg,Purple_Triangle_Dots_4.jpg,left,1025.2650000038557,true,high,NA,NA,NA,NA,NA,NA,NA,false
O6gO8luH,3en4yvuovf59wipgxxflzhxwdchjxp,36w0ob37h0r4xrsz1h5n99tjsguzhh,O6gO8luH,2020-0188,2020-05-08,21:14:45,21:33:57,NA,incomplete,116,shape,1,right,Purple_Triangle_Chess_2.jpg,Purple_Star_Dots_1.jpg,Red_Triangle_Grid_4.jpg,right,805.6600000127219,true,high,NA,NA,NA,NA,NA,NA,NA,false
O6gO8luH,3en4yvuovf59wipgxxflzhxwdchjxp,36w0ob37h0r4xrsz1h5n99tjsguzhh,O6gO8luH,2020-0188,2020-05-08,21:14:45,21:33:57,NA,incomplete,117,shape,1,right,Blue_Plus_Stripes_3.jpg,Blue_Star_Dots_2.jpg,Purple_Plus_Grid_1.jpg,right,811.2450000480749,true,high,NA,NA,NA,NA,NA,NA,NA,false
O6gO8luH,3en4yvuovf59wipgxxflzhxwdchjxp,36w0ob37h0r4xrsz1h5n99tjsguzhh,O6gO8luH,2020-0188,2020-05-08,21:14:45,21:33:57,NA,incomplete,118,shape,1,left,Green_Triangle_Dots_3.jpg,Blue_Triangle_Chess_2.jpg,Green_Circle_Grid_4.jpg,left,734.5900000073016,true,high,NA,NA,NA,NA,NA,NA,NA,false
O6gO8luH,3en4yvuovf59wipgxxflzhxwdchjxp,36w0ob37h0r4xrsz1h5n99tjsguzhh,O6gO8luH,2020-0188,2020-05-08,21:14:45,21:33:57,NA,incomplete,119,shape,1,left,Blue_Triangle_Stripes_1.jpg,Purple_Triangle_Chess_3.jpg,Blue_Circle_Grid_2.jpg,left,728.1250000232831,true,high,NA,NA,NA,NA,NA,NA,NA,false
O6gO8luH,3en4yvuovf59wipgxxflzhxwdchjxp,36w0ob37h0r4xrsz1h5n99tjsguzhh,O6gO8luH,2020-0188,2020-05-08,21:14:45,21:33:57,NA,incomplete,120,color,1,left,Purple_Triangle_Dots_3.jpg,Purple_Circle_Chess_1.jpg,Blue_Triangle_Stripes_4.jpg,right,664.2349999747239,false,high,NA,NA,NA,NA,NA,NA,NA,false
O6gO8luH,3en4yvuovf59wipgxxflzhxwdchjxp,36w0ob37h0r4xrsz1h5n99tjsguzhh,O6gO8luH,2020-0188,2020-05-08,21:14:45,21:33:57,NA,incomplete,121,color,0,left,Blue_Triangle_Grid_4.jpg,Blue_Plus_Stripes_2.jpg,Purple_Triangle_Dots_3.jpg,right,603.1549999606796,false,high,NA,NA,NA,NA,NA,NA,NA,false
O6gO8luH,3en4yvuovf59wipgxxflzhxwdchjxp,36w0ob37h0r4xrsz1h5n99tjsguzhh,O6gO8luH,2020-0188,2020-05-08,21:14:45,21:33:57,NA,incomplete,122,color,1,right,Blue_Circle_Grid_1.jpg,Green_Circle_Chess_3.jpg,Blue_Star_Dots_2.jpg,left,747.5950000225566,false,high,NA,NA,NA,NA,NA,NA,NA,false
O6gO8luH,3en4yvuovf59wipgxxflzhxwdchjxp,36w0ob37h0r4xrsz1h5n99tjsguzhh,O6gO8luH,2020-0188,2020-05-08,21:14:45,21:33:57,NA,incomplete,123,color,1,right,Green_Circle_Grid_2.jpg,Blue_Circle_Dots_3.jpg,Green_Plus_Stripes_1.jpg,right,547.9899999918416,true,high,NA,NA,NA,NA,NA,NA,NA,false
O6gO8luH,3en4yvuovf59wipgxxflzhxwdchjxp,36w0ob37h0r4xrsz1h5n99tjsguzhh,O6gO8luH,2020-0188,2020-05-08,21:14:45,21:33:57,NA,incomplete,124,color,0,left,Purple_Circle_Dots_3.jpg,Purple_Star_Chess_4.jpg,Red_Circle_Grid_1.jpg,left,697.9750000173226,true,high,NA,NA,NA,NA,NA,NA,NA,false
O6gO8luH,3en4yvuovf59wipgxxflzhxwdchjxp,36w0ob37h0r4xrsz1h5n99tjsguzhh,O6gO8luH,2020-0188,2020-05-08,21:14:45,21:33:57,NA,incomplete,125,color,1,right,Red_Star_Stripes_3.jpg,Purple_Star_Chess_4.jpg,Red_Plus_Grid_2.jpg,right,630.9800000162795,true,high,NA,NA,NA,NA,NA,NA,NA,false
O6gO8luH,3en4yvuovf59wipgxxflzhxwdchjxp,36w0ob37h0r4xrsz1h5n99tjsguzhh,O6gO8luH,2020-0188,2020-05-08,21:14:45,21:33:57,NA,incomplete,126,color,1,right,Purple_Plus_Chess_3.jpg,Red_Plus_Dots_2.jpg,Purple_Star_Stripes_4.jpg,right,917.1949999872595,true,high,NA,NA,NA,NA,NA,NA,NA,false
O6gO8luH,3en4yvuovf59wipgxxflzhxwdchjxp,36w0ob37h0r4xrsz1h5n99tjsguzhh,O6gO8luH,2020-0188,2020-05-08,21:14:45,21:33:57,NA,incomplete,127,color,1,left,Purple_Circle_Stripes_3.jpg,Purple_Triangle_Grid_1.jpg,Green_Circle_Chess_4.jpg,right,691.4049999904819,false,high,NA,NA,NA,NA,NA,NA,NA,false
O6gO8luH,3en4yvuovf59wipgxxflzhxwdchjxp,36w0ob37h0r4xrsz1h5n99tjsguzhh,O6gO8luH,2020-0188,2020-05-08,21:14:45,21:33:57,NA,incomplete,128,color,0,left,Red_Plus_Dots_3.jpg,Red_Star_Chess_4.jpg,Blue_Plus_Stripes_1.jpg,left,577.67500000773,true,high,NA,NA,NA,NA,NA,NA,NA,false
O6gO8luH,3en4yvuovf59wipgxxflzhxwdchjxp,36w0ob37h0r4xrsz1h5n99tjsguzhh,O6gO8luH,2020-0188,2020-05-08,21:14:45,21:33:57,NA,incomplete,129,color,1,left,Red_Circle_Chess_2.jpg,Red_Star_Dots_3.jpg,Green_Circle_Stripes_1.jpg,left,555.7649999973364,true,high,NA,NA,NA,NA,NA,NA,NA,false
O6gO8luH,3en4yvuovf59wipgxxflzhxwdchjxp,36w0ob37h0r4xrsz1h5n99tjsguzhh,O6gO8luH,2020-0188,2020-05-08,21:14:45,21:33:57,NA,incomplete,130,color,1,left,Red_Triangle_Grid_4.jpg,Red_Circle_Chess_1.jpg,Green_Triangle_Dots_3.jpg,left,689.7299999836832,true,high,NA,NA,NA,NA,NA,NA,NA,false
O6gO8luH,3en4yvuovf59wipgxxflzhxwdchjxp,36w0ob37h0r4xrsz1h5n99tjsguzhh,O6gO8luH,2020-0188,2020-05-08,21:14:45,21:33:57,NA,incomplete,131,color,1,left,Purple_Star_Grid_2.jpg,Purple_Circle_Dots_4.jpg,Blue_Star_Stripes_1.jpg,left,569.1849999711849,true,high,NA,NA,NA,NA,NA,NA,NA,false
O6gO8luH,3en4yvuovf59wipgxxflzhxwdchjxp,36w0ob37h0r4xrsz1h5n99tjsguzhh,O6gO8luH,2020-0188,2020-05-08,21:14:45,21:33:57,NA,incomplete,132,color,0,right,Purple_Star_Chess_4.jpg,Green_Star_Stripes_2.jpg,Purple_Triangle_Dots_3.jpg,right,583.5800000349991,true,high,NA,NA,NA,NA,NA,NA,NA,false
O6gO8luH,3en4yvuovf59wipgxxflzhxwdchjxp,36w0ob37h0r4xrsz1h5n99tjsguzhh,O6gO8luH,2020-0188,2020-05-08,21:14:45,21:33:57,NA,incomplete,133,color,1,right,Green_Circle_Grid_2.jpg,Blue_Circle_Stripes_3.jpg,Green_Star_Dots_1.jpg,left,886.0949999652803,false,high,NA,NA,NA,NA,NA,NA,NA,false
O6gO8luH,3en4yvuovf59wipgxxflzhxwdchjxp,36w0ob37h0r4xrsz1h5n99tjsguzhh,O6gO8luH,2020-0188,2020-05-08,21:14:45,21:33:57,NA,incomplete,134,color,1,right,Red_Star_Dots_1.jpg,Purple_Star_Stripes_3.jpg,Red_Circle_Chess_2.jpg,right,757.77000002563,true,high,NA,NA,NA,NA,NA,NA,NA,false
O6gO8luH,3en4yvuovf59wipgxxflzhxwdchjxp,36w0ob37h0r4xrsz1h5n99tjsguzhh,O6gO8luH,2020-0188,2020-05-08,21:14:45,21:33:57,NA,incomplete,135,color,1,right,Red_Plus_Stripes_4.jpg,Green_Plus_Dots_2.jpg,Red_Star_Grid_3.jpg,right,507.7349999919534,true,high,NA,NA,NA,NA,NA,NA,NA,false
O6gO8luH,3en4yvuovf59wipgxxflzhxwdchjxp,36w0ob37h0r4xrsz1h5n99tjsguzhh,O6gO8luH,2020-0188,2020-05-08,21:14:45,21:33:57,NA,incomplete,136,color,1,left,Green_Triangle_Chess_3.jpg,Green_Star_Grid_2.jpg,Blue_Triangle_Stripes_1.jpg,left,526.4400000451133,true,high,NA,NA,NA,NA,NA,NA,NA,false
O6gO8luH,3en4yvuovf59wipgxxflzhxwdchjxp,36w0ob37h0r4xrsz1h5n99tjsguzhh,O6gO8luH,2020-0188,2020-05-08,21:14:45,21:33:57,NA,incomplete,137,color,1,right,Red_Star_Chess_1.jpg,Blue_Star_Dots_2.jpg,Red_Plus_Grid_3.jpg,right,608.8600000366569,true,high,NA,NA,NA,NA,NA,NA,NA,false
O6gO8luH,3en4yvuovf59wipgxxflzhxwdchjxp,36w0ob37h0r4xrsz1h5n99tjsguzhh,O6gO8luH,2020-0188,2020-05-08,21:14:45,21:33:57,NA,incomplete,138,color,0,left,Blue_Triangle_Stripes_3.jpg,Blue_Plus_Grid_4.jpg,Green_Triangle_Dots_1.jpg,left,511.5349999978207,true,high,NA,NA,NA,NA,NA,NA,NA,false
O6gO8luH,3en4yvuovf59wipgxxflzhxwdchjxp,36w0ob37h0r4xrsz1h5n99tjsguzhh,O6gO8luH,2020-0188,2020-05-08,21:14:45,21:33:57,NA,incomplete,139,color,1,right,Red_Triangle_Grid_3.jpg,Blue_Triangle_Chess_2.jpg,Red_Circle_Stripes_4.jpg,right,762.4950000317767,true,high,NA,NA,NA,NA,NA,NA,NA,false
O6gO8luH,3en4yvuovf59wipgxxflzhxwdchjxp,36w0ob37h0r4xrsz1h5n99tjsguzhh,O6gO8luH,2020-0188,2020-05-08,21:14:45,21:33:57,NA,incomplete,140,shape,1,left,Red_Triangle_Grid_3.jpg,Blue_Triangle_Dots_2.jpg,Red_Plus_Stripes_4.jpg,right,578.5249999607913,false,high,NA,NA,NA,NA,NA,NA,NA,false
O6gO8luH,3en4yvuovf59wipgxxflzhxwdchjxp,36w0ob37h0r4xrsz1h5n99tjsguzhh,O6gO8luH,2020-0188,2020-05-08,21:14:45,21:33:57,NA,incomplete,141,shape,0,right,Red_Triangle_Chess_3.jpg,Red_Circle_Dots_4.jpg,Purple_Triangle_Stripes_2.jpg,left,543.7549999915063,false,high,NA,NA,NA,NA,NA,NA,NA,false
O6gO8luH,3en4yvuovf59wipgxxflzhxwdchjxp,36w0ob37h0r4xrsz1h5n99tjsguzhh,O6gO8luH,2020-0188,2020-05-08,21:14:45,21:33:57,NA,incomplete,142,shape,1,left,Green_Star_Stripes_2.jpg,Red_Star_Chess_3.jpg,Green_Plus_Dots_1.jpg,right,851.5100000076927,false,high,NA,NA,NA,NA,NA,NA,NA,false
O6gO8luH,3en4yvuovf59wipgxxflzhxwdchjxp,36w0ob37h0r4xrsz1h5n99tjsguzhh,O6gO8luH,2020-0188,2020-05-08,21:14:45,21:33:57,NA,incomplete,143,shape,1,right,Green_Plus_Dots_3.jpg,Green_Circle_Grid_4.jpg,Red_Plus_Chess_2.jpg,right,1062.8700000233948,true,high,NA,NA,NA,NA,NA,NA,NA,false
O6gO8luH,3en4yvuovf59wipgxxflzhxwdchjxp,36w0ob37h0r4xrsz1h5n99tjsguzhh,O6gO8luH,2020-0188,2020-05-08,21:14:45,21:33:57,NA,incomplete,144,shape,0,left,Blue_Circle_Grid_4.jpg,Red_Circle_Stripes_1.jpg,Blue_Star_Chess_2.jpg,left,974.6600000071339,true,high,NA,NA,NA,NA,NA,NA,NA,false
O6gO8luH,3en4yvuovf59wipgxxflzhxwdchjxp,36w0ob37h0r4xrsz1h5n99tjsguzhh,O6gO8luH,2020-0188,2020-05-08,21:14:45,21:33:57,NA,incomplete,145,shape,1,right,Blue_Triangle_Dots_4.jpg,Blue_Star_Stripes_3.jpg,Purple_Triangle_Chess_2.jpg,right,1012.4150000046939,true,high,NA,NA,NA,NA,NA,NA,NA,false
O6gO8luH,3en4yvuovf59wipgxxflzhxwdchjxp,36w0ob37h0r4xrsz1h5n99tjsguzhh,O6gO8luH,2020-0188,2020-05-08,21:14:45,21:33:57,NA,incomplete,146,shape,1,left,Blue_Circle_Dots_4.jpg,Purple_Circle_Chess_3.jpg,Blue_Triangle_Stripes_1.jpg,left,807.4500000220723,true,high,NA,NA,NA,NA,NA,NA,NA,false
O6gO8luH,3en4yvuovf59wipgxxflzhxwdchjxp,36w0ob37h0r4xrsz1h5n99tjsguzhh,O6gO8luH,2020-0188,2020-05-08,21:14:45,21:33:57,NA,incomplete,147,shape,1,left,Blue_Circle_Dots_3.jpg,Red_Circle_Chess_2.jpg,Blue_Star_Grid_1.jpg,left,693.7250000191852,true,high,NA,NA,NA,NA,NA,NA,NA,false
O6gO8luH,3en4yvuovf59wipgxxflzhxwdchjxp,36w0ob37h0r4xrsz1h5n99tjsguzhh,O6gO8luH,2020-0188,2020-05-08,21:14:45,21:33:57,NA,incomplete,148,shape,1,left,Red_Star_Grid_4.jpg,Purple_Star_Stripes_1.jpg,Red_Circle_Dots_2.jpg,left,789.4400000222959,true,high,NA,NA,NA,NA,NA,NA,NA,false
O6gO8luH,3en4yvuovf59wipgxxflzhxwdchjxp,36w0ob37h0r4xrsz1h5n99tjsguzhh,O6gO8luH,2020-0188,2020-05-08,21:14:45,21:33:57,NA,incomplete,149,shape,1,right,Red_Triangle_Dots_4.jpg,Red_Circle_Chess_3.jpg,Blue_Triangle_Stripes_1.jpg,right,783.7000000290573,true,high,NA,NA,NA,NA,NA,NA,NA,false
O6gO8luH,3en4yvuovf59wipgxxflzhxwdchjxp,36w0ob37h0r4xrsz1h5n99tjsguzhh,O6gO8luH,2020-0188,2020-05-08,21:14:45,21:33:57,NA,incomplete,150,shape,1,right,Purple_Star_Dots_3.jpg,Purple_Plus_Stripes_4.jpg,Green_Star_Grid_1.jpg,right,959.0050000115298,true,high,NA,NA,NA,NA,NA,NA,NA,false
O6gO8luH,3en4yvuovf59wipgxxflzhxwdchjxp,36w0ob37h0r4xrsz1h5n99tjsguzhh,O6gO8luH,2020-0188,2020-05-08,21:14:45,21:33:57,NA,incomplete,151,shape,0,left,Blue_Triangle_Stripes_1.jpg,Purple_Triangle_Dots_3.jpg,Blue_Star_Grid_4.jpg,left,700.0199999893084,true,high,NA,NA,NA,NA,NA,NA,NA,false
O6gO8luH,3en4yvuovf59wipgxxflzhxwdchjxp,36w0ob37h0r4xrsz1h5n99tjsguzhh,O6gO8luH,2020-0188,2020-05-08,21:14:45,21:33:57,NA,incomplete,152,shape,1,right,Red_Triangle_Grid_3.jpg,Red_Circle_Chess_2.jpg,Green_Triangle_Dots_1.jpg,right,693.4799999580719,true,high,NA,NA,NA,NA,NA,NA,NA,false
O6gO8luH,3en4yvuovf59wipgxxflzhxwdchjxp,36w0ob37h0r4xrsz1h5n99tjsguzhh,O6gO8luH,2020-0188,2020-05-08,21:14:45,21:33:57,NA,incomplete,153,shape,1,left,Green_Circle_Stripes_1.jpg,Blue_Circle_Dots_4.jpg,Green_Triangle_Chess_2.jpg,left,727.2900000098161,true,high,NA,NA,NA,NA,NA,NA,NA,false
O6gO8luH,3en4yvuovf59wipgxxflzhxwdchjxp,36w0ob37h0r4xrsz1h5n99tjsguzhh,O6gO8luH,2020-0188,2020-05-08,21:14:45,21:33:57,NA,incomplete,154,shape,1,right,Purple_Plus_Stripes_4.jpg,Purple_Triangle_Chess_3.jpg,Green_Plus_Dots_1.jpg,right,722.524999990128,true,high,NA,NA,NA,NA,NA,NA,NA,false
O6gO8luH,3en4yvuovf59wipgxxflzhxwdchjxp,36w0ob37h0r4xrsz1h5n99tjsguzhh,O6gO8luH,2020-0188,2020-05-08,21:14:45,21:33:57,NA,incomplete,155,shape,0,right,Green_Plus_Stripes_3.jpg,Green_Circle_Chess_4.jpg,Purple_Plus_Dots_2.jpg,right,639.8550000158139,true,high,NA,NA,NA,NA,NA,NA,NA,false
O6gO8luH,3en4yvuovf59wipgxxflzhxwdchjxp,36w0ob37h0r4xrsz1h5n99tjsguzhh,O6gO8luH,2020-0188,2020-05-08,21:14:45,21:33:57,NA,incomplete,156,shape,1,right,Green_Star_Stripes_2.jpg,Green_Plus_Chess_1.jpg,Blue_Star_Dots_3.jpg,right,613.1850000238046,true,high,NA,NA,NA,NA,NA,NA,NA,false
O6gO8luH,3en4yvuovf59wipgxxflzhxwdchjxp,36w0ob37h0r4xrsz1h5n99tjsguzhh,O6gO8luH,2020-0188,2020-05-08,21:14:45,21:33:57,NA,incomplete,157,shape,1,left,Blue_Circle_Stripes_3.jpg,Red_Circle_Dots_2.jpg,Blue_Plus_Grid_4.jpg,left,694.9150000000373,true,high,NA,NA,NA,NA,NA,NA,NA,false
O6gO8luH,3en4yvuovf59wipgxxflzhxwdchjxp,36w0ob37h0r4xrsz1h5n99tjsguzhh,O6gO8luH,2020-0188,2020-05-08,21:14:45,21:33:57,NA,incomplete,158,shape,1,right,Green_Circle_Chess_1.jpg,Green_Plus_Dots_4.jpg,Purple_Circle_Grid_2.jpg,right,638.5550000122748,true,high,NA,NA,NA,NA,NA,NA,NA,false
O6gO8luH,3en4yvuovf59wipgxxflzhxwdchjxp,36w0ob37h0r4xrsz1h5n99tjsguzhh,O6gO8luH,2020-0188,2020-05-08,21:14:45,21:33:57,NA,incomplete,159,shape,1,right,Blue_Star_Dots_1.jpg,Blue_Triangle_Stripes_2.jpg,Green_Star_Chess_3.jpg,right,785.6000000028871,true,high,NA,NA,NA,NA,NA,NA,NA,false
O6gO8luH,3en4yvuovf59wipgxxflzhxwdchjxp,36w0ob37h0r4xrsz1h5n99tjsguzhh,O6gO8luH,2020-0188,2020-05-08,21:14:45,21:33:57,NA,incomplete,160,color,1,left,Purple_Triangle_Grid_3.jpg,Purple_Circle_Stripes_1.jpg,Blue_Triangle_Chess_4.jpg,right,571.9999999855645,false,high,NA,NA,NA,NA,NA,NA,NA,false
O6gO8luH,3en4yvuovf59wipgxxflzhxwdchjxp,36w0ob37h0r4xrsz1h5n99tjsguzhh,O6gO8luH,2020-0188,2020-05-08,21:14:45,21:33:57,NA,incomplete,161,color,0,left,Blue_Triangle_Stripes_2.jpg,Blue_Plus_Dots_1.jpg,Green_Triangle_Chess_4.jpg,right,614.5849999738857,false,high,NA,NA,NA,NA,NA,NA,NA,false
O6gO8luH,3en4yvuovf59wipgxxflzhxwdchjxp,36w0ob37h0r4xrsz1h5n99tjsguzhh,O6gO8luH,2020-0188,2020-05-08,21:14:45,21:33:57,NA,incomplete,162,color,1,left,Blue_Plus_Dots_4.jpg,Blue_Triangle_Stripes_3.jpg,Red_Plus_Chess_1.jpg,right,623.9049999858253,false,high,NA,NA,NA,NA,NA,NA,NA,false
O6gO8luH,3en4yvuovf59wipgxxflzhxwdchjxp,36w0ob37h0r4xrsz1h5n99tjsguzhh,O6gO8luH,2020-0188,2020-05-08,21:14:45,21:33:57,NA,incomplete,163,color,0,left,Red_Circle_Chess_1.jpg,Red_Plus_Grid_2.jpg,Purple_Circle_Stripes_4.jpg,right,614.655000041239,false,high,NA,NA,NA,NA,NA,NA,NA,false
O6gO8luH,3en4yvuovf59wipgxxflzhxwdchjxp,36w0ob37h0r4xrsz1h5n99tjsguzhh,O6gO8luH,2020-0188,2020-05-08,21:14:45,21:33:57,NA,incomplete,164,color,1,right,Blue_Triangle_Stripes_3.jpg,Purple_Triangle_Grid_4.jpg,Blue_Plus_Chess_2.jpg,left,759.5350000192411,false,high,NA,NA,NA,NA,NA,NA,NA,false
O6gO8luH,3en4yvuovf59wipgxxflzhxwdchjxp,36w0ob37h0r4xrsz1h5n99tjsguzhh,O6gO8luH,2020-0188,2020-05-08,21:14:45,21:33:57,NA,incomplete,165,color,1,left,Red_Circle_Chess_3.jpg,Red_Plus_Grid_4.jpg,Blue_Circle_Stripes_1.jpg,right,593.6799999908544,false,high,NA,NA,NA,NA,NA,NA,NA,false
O6gO8luH,3en4yvuovf59wipgxxflzhxwdchjxp,36w0ob37h0r4xrsz1h5n99tjsguzhh,O6gO8luH,2020-0188,2020-05-08,21:14:45,21:33:57,NA,incomplete,166,color,1,right,Blue_Plus_Stripes_4.jpg,Purple_Plus_Grid_1.jpg,Blue_Triangle_Dots_3.jpg,right,665.3149999910966,true,high,NA,NA,NA,NA,NA,NA,NA,false
O6gO8luH,3en4yvuovf59wipgxxflzhxwdchjxp,36w0ob37h0r4xrsz1h5n99tjsguzhh,O6gO8luH,2020-0188,2020-05-08,21:14:45,21:33:57,NA,incomplete,167,color,1,left,Purple_Plus_Grid_2.jpg,Purple_Circle_Stripes_4.jpg,Green_Plus_Dots_1.jpg,left,558.9700000127777,true,high,NA,NA,NA,NA,NA,NA,NA,false
O6gO8luH,3en4yvuovf59wipgxxflzhxwdchjxp,36w0ob37h0r4xrsz1h5n99tjsguzhh,O6gO8luH,2020-0188,2020-05-08,21:14:45,21:33:57,NA,incomplete,168,color,1,right,Purple_Circle_Chess_2.jpg,Red_Circle_Dots_4.jpg,Purple_Plus_Stripes_3.jpg,right,561.165000020992,true,high,NA,NA,NA,NA,NA,NA,NA,false
O6gO8luH,3en4yvuovf59wipgxxflzhxwdchjxp,36w0ob37h0r4xrsz1h5n99tjsguzhh,O6gO8luH,2020-0188,2020-05-08,21:14:45,21:33:57,NA,incomplete,169,color,1,right,Blue_Triangle_Chess_2.jpg,Red_Triangle_Stripes_3.jpg,Blue_Plus_Dots_4.jpg,right,494.9899999774061,true,high,NA,NA,NA,NA,NA,NA,NA,false
O6gO8luH,3en4yvuovf59wipgxxflzhxwdchjxp,36w0ob37h0r4xrsz1h5n99tjsguzhh,O6gO8luH,2020-0188,2020-05-08,21:14:45,21:33:57,NA,incomplete,170,color,1,right,Red_Star_Dots_4.jpg,Blue_Star_Stripes_2.jpg,Red_Triangle_Chess_1.jpg,right,542.215000023134,true,high,NA,NA,NA,NA,NA,NA,NA,false
O6gO8luH,3en4yvuovf59wipgxxflzhxwdchjxp,36w0ob37h0r4xrsz1h5n99tjsguzhh,O6gO8luH,2020-0188,2020-05-08,21:14:45,21:33:57,NA,incomplete,171,color,1,right,Purple_Triangle_Chess_1.jpg,Blue_Triangle_Grid_2.jpg,Purple_Circle_Stripes_3.jpg,right,622.6599999936298,true,high,NA,NA,NA,NA,NA,NA,NA,false
O6gO8luH,3en4yvuovf59wipgxxflzhxwdchjxp,36w0ob37h0r4xrsz1h5n99tjsguzhh,O6gO8luH,2020-0188,2020-05-08,21:14:45,21:33:57,NA,incomplete,172,color,0,left,Green_Star_Chess_2.jpg,Green_Plus_Stripes_3.jpg,Red_Star_Dots_4.jpg,left,523.8250000402331,true,high,NA,NA,NA,NA,NA,NA,NA,false
O6gO8luH,3en4yvuovf59wipgxxflzhxwdchjxp,36w0ob37h0r4xrsz1h5n99tjsguzhh,O6gO8luH,2020-0188,2020-05-08,21:14:45,21:33:57,NA,incomplete,173,color,1,right,Blue_Circle_Chess_3.jpg,Purple_Circle_Grid_2.jpg,Blue_Triangle_Dots_1.jpg,right,568.7749999924563,true,high,NA,NA,NA,NA,NA,NA,NA,false
O6gO8luH,3en4yvuovf59wipgxxflzhxwdchjxp,36w0ob37h0r4xrsz1h5n99tjsguzhh,O6gO8luH,2020-0188,2020-05-08,21:14:45,21:33:57,NA,incomplete,174,color,1,right,Purple_Plus_Chess_1.jpg,Green_Plus_Stripes_3.jpg,Purple_Circle_Grid_2.jpg,right,539.5150000113063,true,high,NA,NA,NA,NA,NA,NA,NA,false
O6gO8luH,3en4yvuovf59wipgxxflzhxwdchjxp,36w0ob37h0r4xrsz1h5n99tjsguzhh,O6gO8luH,2020-0188,2020-05-08,21:14:45,21:33:57,NA,incomplete,175,color,1,left,Green_Triangle_Chess_1.jpg,Green_Circle_Dots_3.jpg,Purple_Triangle_Stripes_2.jpg,left,790.0149999768473,true,high,NA,NA,NA,NA,NA,NA,NA,false
O6gO8luH,3en4yvuovf59wipgxxflzhxwdchjxp,36w0ob37h0r4xrsz1h5n99tjsguzhh,O6gO8luH,2020-0188,2020-05-08,21:14:45,21:33:57,NA,incomplete,176,color,1,right,Blue_Triangle_Chess_4.jpg,Red_Triangle_Dots_1.jpg,Blue_Star_Stripes_2.jpg,right,570.659999968484,true,high,NA,NA,NA,NA,NA,NA,NA,false
O6gO8luH,3en4yvuovf59wipgxxflzhxwdchjxp,36w0ob37h0r4xrsz1h5n99tjsguzhh,O6gO8luH,2020-0188,2020-05-08,21:14:45,21:33:57,NA,incomplete,177,color,0,left,Purple_Star_Grid_3.jpg,Purple_Plus_Stripes_2.jpg,Blue_Star_Chess_4.jpg,left,571.2400000193156,true,high,NA,NA,NA,NA,NA,NA,NA,false
O6gO8luH,3en4yvuovf59wipgxxflzhxwdchjxp,36w0ob37h0r4xrsz1h5n99tjsguzhh,O6gO8luH,2020-0188,2020-05-08,21:14:45,21:33:57,NA,incomplete,178,color,1,left,Green_Triangle_Grid_1.jpg,Green_Star_Dots_3.jpg,Red_Triangle_Chess_2.jpg,left,713.2550000096671,true,high,NA,NA,NA,NA,NA,NA,NA,false
O6gO8luH,3en4yvuovf59wipgxxflzhxwdchjxp,36w0ob37h0r4xrsz1h5n99tjsguzhh,O6gO8luH,2020-0188,2020-05-08,21:14:45,21:33:57,NA,incomplete,179,color,1,right,Blue_Star_Dots_1.jpg,Purple_Star_Grid_4.jpg,Blue_Circle_Chess_2.jpg,right,545.4100000206381,true,high,NA,NA,NA,NA,NA,NA,NA,false
O6gO8luH,3en4yvuovf59wipgxxflzhxwdchjxp,36w0ob37h0r4xrsz1h5n99tjsguzhh,O6gO8luH,2020-0188,2020-05-08,21:14:45,21:33:57,NA,incomplete,180,shape,1,left,Blue_Plus_Chess_2.jpg,Red_Plus_Grid_4.jpg,Blue_Star_Stripes_3.jpg,right,508.99000000208616,false,high,NA,NA,NA,NA,NA,NA,NA,false
O6gO8luH,3en4yvuovf59wipgxxflzhxwdchjxp,36w0ob37h0r4xrsz1h5n99tjsguzhh,O6gO8luH,2020-0188,2020-05-08,21:14:45,21:33:57,NA,incomplete,181,shape,1,left,Red_Plus_Stripes_2.jpg,Green_Plus_Grid_4.jpg,Red_Triangle_Chess_3.jpg,right,501.79500004742295,false,high,NA,NA,NA,NA,NA,NA,NA,false
O6gO8luH,3en4yvuovf59wipgxxflzhxwdchjxp,36w0ob37h0r4xrsz1h5n99tjsguzhh,O6gO8luH,2020-0188,2020-05-08,21:14:45,21:33:57,NA,incomplete,182,shape,1,right,Purple_Star_Grid_2.jpg,Purple_Triangle_Dots_3.jpg,Blue_Star_Stripes_1.jpg,left,481.76000005332753,false,high,NA,NA,NA,NA,NA,NA,NA,false
O6gO8luH,3en4yvuovf59wipgxxflzhxwdchjxp,36w0ob37h0r4xrsz1h5n99tjsguzhh,O6gO8luH,2020-0188,2020-05-08,21:14:45,21:33:57,NA,incomplete,183,shape,1,right,Blue_Circle_Dots_1.jpg,Blue_Triangle_Grid_2.jpg,Purple_Circle_Chess_4.jpg,left,533.2649999763817,false,high,NA,NA,NA,NA,NA,NA,NA,false
O6gO8luH,3en4yvuovf59wipgxxflzhxwdchjxp,36w0ob37h0r4xrsz1h5n99tjsguzhh,O6gO8luH,2020-0188,2020-05-08,21:14:45,21:33:57,NA,incomplete,184,shape,1,left,Green_Triangle_Grid_2.jpg,Blue_Triangle_Chess_4.jpg,Green_Circle_Dots_1.jpg,left,683.6699999985285,true,high,NA,NA,NA,NA,NA,NA,NA,false
O6gO8luH,3en4yvuovf59wipgxxflzhxwdchjxp,36w0ob37h0r4xrsz1h5n99tjsguzhh,O6gO8luH,2020-0188,2020-05-08,21:14:45,21:33:57,NA,incomplete,185,shape,1,left,Red_Star_Grid_4.jpg,Purple_Star_Chess_2.jpg,Red_Plus_Stripes_3.jpg,left,861.0950000002049,true,high,NA,NA,NA,NA,NA,NA,NA,false
O6gO8luH,3en4yvuovf59wipgxxflzhxwdchjxp,36w0ob37h0r4xrsz1h5n99tjsguzhh,O6gO8luH,2020-0188,2020-05-08,21:14:45,21:33:57,NA,incomplete,186,shape,1,left,Blue_Circle_Grid_3.jpg,Purple_Circle_Stripes_4.jpg,Blue_Plus_Dots_1.jpg,left,719.3299999926239,true,high,NA,NA,NA,NA,NA,NA,NA,false
O6gO8luH,3en4yvuovf59wipgxxflzhxwdchjxp,36w0ob37h0r4xrsz1h5n99tjsguzhh,O6gO8luH,2020-0188,2020-05-08,21:14:45,21:33:57,NA,incomplete,187,shape,1,left,Green_Triangle_Stripes_2.jpg,Red_Triangle_Chess_1.jpg,Green_Plus_Grid_4.jpg,right,626.9750000210479,false,high,NA,NA,NA,NA,NA,NA,NA,false
O6gO8luH,3en4yvuovf59wipgxxflzhxwdchjxp,36w0ob37h0r4xrsz1h5n99tjsguzhh,O6gO8luH,2020-0188,2020-05-08,21:14:45,21:33:57,NA,incomplete,188,shape,0,left,Red_Plus_Dots_3.jpg,Purple_Plus_Stripes_1.jpg,Red_Triangle_Chess_2.jpg,left,798.209999979008,true,high,NA,NA,NA,NA,NA,NA,NA,false
O6gO8luH,3en4yvuovf59wipgxxflzhxwdchjxp,36w0ob37h0r4xrsz1h5n99tjsguzhh,O6gO8luH,2020-0188,2020-05-08,21:14:45,21:33:57,NA,incomplete,189,shape,1,right,Blue_Star_Stripes_4.jpg,Blue_Plus_Dots_3.jpg,Green_Star_Grid_1.jpg,left,514.3000000389293,false,high,NA,NA,NA,NA,NA,NA,NA,false
O6gO8luH,3en4yvuovf59wipgxxflzhxwdchjxp,36w0ob37h0r4xrsz1h5n99tjsguzhh,O6gO8luH,2020-0188,2020-05-08,21:14:45,21:33:57,NA,incomplete,190,shape,1,right,Blue_Circle_Dots_4.jpg,Blue_Plus_Chess_2.jpg,Red_Circle_Grid_3.jpg,left,853.7149999756366,false,high,NA,NA,NA,NA,NA,NA,NA,false
O6gO8luH,3en4yvuovf59wipgxxflzhxwdchjxp,36w0ob37h0r4xrsz1h5n99tjsguzhh,O6gO8luH,2020-0188,2020-05-08,21:14:45,21:33:57,NA,incomplete,191,shape,1,right,Purple_Circle_Dots_4.jpg,Purple_Triangle_Stripes_2.jpg,Red_Circle_Chess_1.jpg,right,744.9500000220723,true,high,NA,NA,NA,NA,NA,NA,NA,false
O6gO8luH,3en4yvuovf59wipgxxflzhxwdchjxp,36w0ob37h0r4xrsz1h5n99tjsguzhh,O6gO8luH,2020-0188,2020-05-08,21:14:45,21:33:57,NA,incomplete,192,shape,1,right,Blue_Star_Grid_2.jpg,Blue_Plus_Chess_1.jpg,Purple_Star_Dots_3.jpg,right,701.839999994263,true,high,NA,NA,NA,NA,NA,NA,NA,false
O6gO8luH,3en4yvuovf59wipgxxflzhxwdchjxp,36w0ob37h0r4xrsz1h5n99tjsguzhh,O6gO8luH,2020-0188,2020-05-08,21:14:45,21:33:57,NA,incomplete,193,shape,1,right,Purple_Circle_Grid_4.jpg,Purple_Plus_Chess_3.jpg,Blue_Circle_Stripes_2.jpg,left,713.5349999880418,false,high,NA,NA,NA,NA,NA,NA,NA,false
O6gO8luH,3en4yvuovf59wipgxxflzhxwdchjxp,36w0ob37h0r4xrsz1h5n99tjsguzhh,O6gO8luH,2020-0188,2020-05-08,21:14:45,21:33:57,NA,incomplete,194,shape,1,left,Green_Circle_Stripes_3.jpg,Purple_Circle_Chess_4.jpg,Green_Plus_Grid_2.jpg,right,628.9099999703467,false,high,NA,NA,NA,NA,NA,NA,NA,false
O6gO8luH,3en4yvuovf59wipgxxflzhxwdchjxp,36w0ob37h0r4xrsz1h5n99tjsguzhh,O6gO8luH,2020-0188,2020-05-08,21:14:45,21:33:57,NA,incomplete,195,shape,1,right,Red_Plus_Grid_3.jpg,Red_Circle_Chess_1.jpg,Green_Plus_Dots_2.jpg,right,779.4500000309199,true,high,NA,NA,NA,NA,NA,NA,NA,false
O6gO8luH,3en4yvuovf59wipgxxflzhxwdchjxp,36w0ob37h0r4xrsz1h5n99tjsguzhh,O6gO8luH,2020-0188,2020-05-08,21:14:45,21:33:57,NA,incomplete,196,shape,1,right,Red_Triangle_Chess_1.jpg,Red_Circle_Grid_3.jpg,Blue_Triangle_Stripes_2.jpg,left,702.6799999875948,false,high,NA,NA,NA,NA,NA,NA,NA,false
O6gO8luH,3en4yvuovf59wipgxxflzhxwdchjxp,36w0ob37h0r4xrsz1h5n99tjsguzhh,O6gO8luH,2020-0188,2020-05-08,21:14:45,21:33:57,NA,incomplete,197,shape,1,right,Red_Triangle_Grid_1.jpg,Red_Star_Chess_3.jpg,Green_Triangle_Stripes_2.jpg,right,753.690000041388,true,high,NA,NA,NA,NA,NA,NA,NA,false
O6gO8luH,3en4yvuovf59wipgxxflzhxwdchjxp,36w0ob37h0r4xrsz1h5n99tjsguzhh,O6gO8luH,2020-0188,2020-05-08,21:14:45,21:33:57,NA,incomplete,198,shape,1,right,Red_Circle_Grid_4.jpg,Red_Triangle_Dots_3.jpg,Purple_Circle_Chess_2.jpg,right,1063.045000017155,true,high,NA,NA,NA,NA,NA,NA,NA,false
O6gO8luH,3en4yvuovf59wipgxxflzhxwdchjxp,36w0ob37h0r4xrsz1h5n99tjsguzhh,O6gO8luH,2020-0188,2020-05-08,21:14:45,21:33:57,NA,incomplete,199,shape,1,right,Green_Star_Stripes_3.jpg,Green_Plus_Dots_2.jpg,Purple_Star_Chess_1.jpg,right,779.5349999796599,true,high,NA,NA,NA,NA,NA,NA,NA,false
O6gO8luH,3en4yvuovf59wipgxxflzhxwdchjxp,36w0ob37h0r4xrsz1h5n99tjsguzhh,O6gO8luH,2020-0188,2020-05-08,21:14:45,21:33:57,NA,incomplete,200,color,1,right,Green_Plus_Chess_4.jpg,Red_Plus_Stripes_3.jpg,Green_Triangle_Grid_2.jpg,right,725.1200000173412,true,high,NA,NA,NA,NA,NA,NA,NA,false
O6gO8luH,3en4yvuovf59wipgxxflzhxwdchjxp,36w0ob37h0r4xrsz1h5n99tjsguzhh,O6gO8luH,2020-0188,2020-05-08,21:14:45,21:33:57,NA,incomplete,201,color,0,right,Red_Star_Stripes_4.jpg,Green_Star_Dots_3.jpg,Red_Triangle_Grid_2.jpg,right,718.0550000048243,true,high,NA,NA,NA,NA,NA,NA,NA,false
O6gO8luH,3en4yvuovf59wipgxxflzhxwdchjxp,36w0ob37h0r4xrsz1h5n99tjsguzhh,O6gO8luH,2020-0188,2020-05-08,21:14:45,21:33:57,NA,incomplete,202,color,1,right,Green_Circle_Chess_2.jpg,Blue_Circle_Stripes_3.jpg,Green_Plus_Grid_4.jpg,left,576.6350000048988,false,high,NA,NA,NA,NA,NA,NA,NA,false
O6gO8luH,3en4yvuovf59wipgxxflzhxwdchjxp,36w0ob37h0r4xrsz1h5n99tjsguzhh,O6gO8luH,2020-0188,2020-05-08,21:14:45,21:33:57,NA,incomplete,203,color,1,left,Red_Plus_Stripes_2.jpg,Red_Circle_Grid_4.jpg,Purple_Plus_Dots_3.jpg,right,454.66000004671514,false,high,NA,NA,NA,NA,NA,NA,NA,false
O6gO8luH,3en4yvuovf59wipgxxflzhxwdchjxp,36w0ob37h0r4xrsz1h5n99tjsguzhh,O6gO8luH,2020-0188,2020-05-08,21:14:45,21:33:57,NA,incomplete,204,color,1,left,Purple_Star_Dots_2.jpg,Purple_Circle_Chess_1.jpg,Blue_Star_Grid_3.jpg,left,734.8350000102073,true,high,NA,NA,NA,NA,NA,NA,NA,false
O6gO8luH,3en4yvuovf59wipgxxflzhxwdchjxp,36w0ob37h0r4xrsz1h5n99tjsguzhh,O6gO8luH,2020-0188,2020-05-08,21:14:45,21:33:57,NA,incomplete,205,color,1,right,Green_Plus_Dots_3.jpg,Red_Plus_Stripes_1.jpg,Green_Star_Chess_2.jpg,right,551.560000050813,true,high,NA,NA,NA,NA,NA,NA,NA,false
O6gO8luH,3en4yvuovf59wipgxxflzhxwdchjxp,36w0ob37h0r4xrsz1h5n99tjsguzhh,O6gO8luH,2020-0188,2020-05-08,21:14:45,21:33:57,NA,incomplete,206,color,0,left,Green_Triangle_Grid_3.jpg,Green_Star_Stripes_1.jpg,Purple_Triangle_Chess_4.jpg,left,561.1899999785237,true,high,NA,NA,NA,NA,NA,NA,NA,false
O6gO8luH,3en4yvuovf59wipgxxflzhxwdchjxp,36w0ob37h0r4xrsz1h5n99tjsguzhh,O6gO8luH,2020-0188,2020-05-08,21:14:45,21:33:57,NA,incomplete,207,color,1,right,Blue_Star_Stripes_4.jpg,Green_Star_Dots_2.jpg,Blue_Triangle_Grid_1.jpg,right,521.5300000272691,true,high,NA,NA,NA,NA,NA,NA,NA,false
O6gO8luH,3en4yvuovf59wipgxxflzhxwdchjxp,36w0ob37h0r4xrsz1h5n99tjsguzhh,O6gO8luH,2020-0188,2020-05-08,21:14:45,21:33:57,NA,incomplete,208,color,0,right,Green_Star_Chess_1.jpg,Blue_Star_Grid_4.jpg,Green_Circle_Dots_3.jpg,right,560.9400000539608,true,high,NA,NA,NA,NA,NA,NA,NA,false
O6gO8luH,3en4yvuovf59wipgxxflzhxwdchjxp,36w0ob37h0r4xrsz1h5n99tjsguzhh,O6gO8luH,2020-0188,2020-05-08,21:14:45,21:33:57,NA,incomplete,209,color,1,right,Purple_Triangle_Dots_1.jpg,Blue_Triangle_Chess_3.jpg,Purple_Star_Grid_2.jpg,right,598.8449999713339,true,high,NA,NA,NA,NA,NA,NA,NA,false
O6gO8luH,3en4yvuovf59wipgxxflzhxwdchjxp,36w0ob37h0r4xrsz1h5n99tjsguzhh,O6gO8luH,2020-0188,2020-05-08,21:14:45,21:33:57,NA,incomplete,210,color,1,right,Blue_Star_Chess_2.jpg,Green_Star_Stripes_1.jpg,Blue_Triangle_Dots_4.jpg,right,534.5600000000559,true,high,NA,NA,NA,NA,NA,NA,NA,false
O6gO8luH,3en4yvuovf59wipgxxflzhxwdchjxp,36w0ob37h0r4xrsz1h5n99tjsguzhh,O6gO8luH,2020-0188,2020-05-08,21:14:45,21:33:57,NA,incomplete,211,color,1,left,Red_Star_Grid_1.jpg,Red_Triangle_Dots_2.jpg,Green_Star_Chess_4.jpg,left,613.4949999977835,true,high,NA,NA,NA,NA,NA,NA,NA,false
O6gO8luH,3en4yvuovf59wipgxxflzhxwdchjxp,36w0ob37h0r4xrsz1h5n99tjsguzhh,O6gO8luH,2020-0188,2020-05-08,21:14:45,21:33:57,NA,incomplete,212,color,0,left,Red_Circle_Dots_1.jpg,Red_Star_Stripes_3.jpg,Blue_Circle_Chess_2.jpg,left,520.0799999875017,true,high,NA,NA,NA,NA,NA,NA,NA,false
O6gO8luH,3en4yvuovf59wipgxxflzhxwdchjxp,36w0ob37h0r4xrsz1h5n99tjsguzhh,O6gO8luH,2020-0188,2020-05-08,21:14:45,21:33:57,NA,incomplete,213,color,1,right,Green_Circle_Stripes_4.jpg,Red_Circle_Grid_2.jpg,Green_Plus_Chess_3.jpg,right,591.5000000386499,true,high,NA,NA,NA,NA,NA,NA,NA,false
O6gO8luH,3en4yvuovf59wipgxxflzhxwdchjxp,36w0ob37h0r4xrsz1h5n99tjsguzhh,O6gO8luH,2020-0188,2020-05-08,21:14:45,21:33:57,NA,incomplete,214,color,0,right,Purple_Circle_Dots_3.jpg,Green_Circle_Stripes_4.jpg,Purple_Star_Chess_1.jpg,right,572.1499999635853,true,high,NA,NA,NA,NA,NA,NA,NA,false
O6gO8luH,3en4yvuovf59wipgxxflzhxwdchjxp,36w0ob37h0r4xrsz1h5n99tjsguzhh,O6gO8luH,2020-0188,2020-05-08,21:14:45,21:33:57,NA,incomplete,215,color,1,right,Red_Star_Stripes_3.jpg,Blue_Star_Chess_4.jpg,Red_Circle_Dots_1.jpg,right,527.3949999827892,true,high,NA,NA,NA,NA,NA,NA,NA,false
O6gO8luH,3en4yvuovf59wipgxxflzhxwdchjxp,36w0ob37h0r4xrsz1h5n99tjsguzhh,O6gO8luH,2020-0188,2020-05-08,21:14:45,21:33:57,NA,incomplete,216,color,1,right,Red_Plus_Dots_2.jpg,Purple_Plus_Chess_3.jpg,Red_Triangle_Grid_1.jpg,right,505.56000001961365,true,high,NA,NA,NA,NA,NA,NA,NA,false
O6gO8luH,3en4yvuovf59wipgxxflzhxwdchjxp,36w0ob37h0r4xrsz1h5n99tjsguzhh,O6gO8luH,2020-0188,2020-05-08,21:14:45,21:33:57,NA,incomplete,217,color,1,right,Purple_Triangle_Grid_1.jpg,Red_Triangle_Dots_4.jpg,Purple_Circle_Chess_3.jpg,right,552.6299999910407,true,high,NA,NA,NA,NA,NA,NA,NA,false
O6gO8luH,3en4yvuovf59wipgxxflzhxwdchjxp,36w0ob37h0r4xrsz1h5n99tjsguzhh,O6gO8luH,2020-0188,2020-05-08,21:14:45,21:33:57,NA,incomplete,218,color,0,left,Green_Plus_Grid_2.jpg,Green_Triangle_Chess_1.jpg,Blue_Plus_Dots_4.jpg,left,623.1400000397116,true,high,NA,NA,NA,NA,NA,NA,NA,false
O6gO8luH,3en4yvuovf59wipgxxflzhxwdchjxp,36w0ob37h0r4xrsz1h5n99tjsguzhh,O6gO8luH,2020-0188,2020-05-08,21:14:45,21:33:57,NA,incomplete,219,color,1,right,Blue_Plus_Grid_4.jpg,Purple_Plus_Chess_3.jpg,Blue_Triangle_Dots_2.jpg,right,633.9099999750033,true,high,NA,NA,NA,NA,NA,NA,NA,false
O6gO8luH,3en4yvuovf59wipgxxflzhxwdchjxp,36w0ob37h0r4xrsz1h5n99tjsguzhh,O6gO8luH,2020-0188,2020-05-08,21:14:45,21:33:57,NA,incomplete,220,shape,1,left,Blue_Circle_Grid_4.jpg,Purple_Circle_Dots_2.jpg,Blue_Star_Chess_3.jpg,right,534.3650000286289,false,high,NA,NA,NA,NA,NA,NA,NA,false
O6gO8luH,3en4yvuovf59wipgxxflzhxwdchjxp,36w0ob37h0r4xrsz1h5n99tjsguzhh,O6gO8luH,2020-0188,2020-05-08,21:14:45,21:33:57,NA,incomplete,221,shape,0,right,Green_Circle_Dots_2.jpg,Green_Star_Stripes_4.jpg,Blue_Circle_Grid_3.jpg,left,583.1499999621883,false,high,NA,NA,NA,NA,NA,NA,NA,false
O6gO8luH,3en4yvuovf59wipgxxflzhxwdchjxp,36w0ob37h0r4xrsz1h5n99tjsguzhh,O6gO8luH,2020-0188,2020-05-08,21:14:45,21:33:57,NA,incomplete,222,shape,1,left,Blue_Star_Stripes_4.jpg,Green_Star_Dots_2.jpg,Blue_Triangle_Grid_3.jpg,right,549.3400000268593,false,high,NA,NA,NA,NA,NA,NA,NA,false
O6gO8luH,3en4yvuovf59wipgxxflzhxwdchjxp,36w0ob37h0r4xrsz1h5n99tjsguzhh,O6gO8luH,2020-0188,2020-05-08,21:14:45,21:33:57,NA,incomplete,223,shape,1,right,Green_Plus_Dots_1.jpg,Green_Star_Stripes_2.jpg,Blue_Plus_Chess_4.jpg,right,733.4849999751896,true,high,NA,NA,NA,NA,NA,NA,NA,false
O6gO8luH,3en4yvuovf59wipgxxflzhxwdchjxp,36w0ob37h0r4xrsz1h5n99tjsguzhh,O6gO8luH,2020-0188,2020-05-08,21:14:45,21:33:57,NA,incomplete,224,shape,1,left,Blue_Triangle_Chess_4.jpg,Red_Triangle_Dots_1.jpg,Blue_Star_Stripes_2.jpg,left,1097.7649999549612,true,high,NA,NA,NA,NA,NA,NA,NA,false
O6gO8luH,3en4yvuovf59wipgxxflzhxwdchjxp,36w0ob37h0r4xrsz1h5n99tjsguzhh,O6gO8luH,2020-0188,2020-05-08,21:14:45,21:33:57,NA,incomplete,225,shape,0,left,Green_Triangle_Dots_4.jpg,Purple_Triangle_Grid_2.jpg,Green_Plus_Chess_3.jpg,left,928.249999997206,true,high,NA,NA,NA,NA,NA,NA,NA,false
O6gO8luH,3en4yvuovf59wipgxxflzhxwdchjxp,36w0ob37h0r4xrsz1h5n99tjsguzhh,O6gO8luH,2020-0188,2020-05-08,21:14:45,21:33:57,NA,incomplete,226,shape,1,right,Red_Circle_Grid_4.jpg,Red_Triangle_Stripes_1.jpg,Purple_Circle_Dots_3.jpg,right,862.7649999689311,true,high,NA,NA,NA,NA,NA,NA,NA,false
O6gO8luH,3en4yvuovf59wipgxxflzhxwdchjxp,36w0ob37h0r4xrsz1h5n99tjsguzhh,O6gO8luH,2020-0188,2020-05-08,21:14:45,21:33:57,NA,incomplete,227,shape,1,left,Red_Plus_Dots_4.jpg,Blue_Plus_Grid_2.jpg,Red_Star_Chess_1.jpg,left,571.1950000259094,true,high,NA,NA,NA,NA,NA,NA,NA,false
O6gO8luH,3en4yvuovf59wipgxxflzhxwdchjxp,36w0ob37h0r4xrsz1h5n99tjsguzhh,O6gO8luH,2020-0188,2020-05-08,21:14:45,21:33:57,NA,incomplete,228,shape,1,right,Green_Circle_Grid_2.jpg,Green_Triangle_Chess_4.jpg,Blue_Circle_Dots_3.jpg,right,1004.9199999775738,true,high,NA,NA,NA,NA,NA,NA,NA,false
O6gO8luH,3en4yvuovf59wipgxxflzhxwdchjxp,36w0ob37h0r4xrsz1h5n99tjsguzhh,O6gO8luH,2020-0188,2020-05-08,21:14:45,21:33:57,NA,incomplete,229,shape,1,left,Blue_Plus_Chess_4.jpg,Purple_Plus_Stripes_1.jpg,Blue_Star_Dots_2.jpg,left,625.2749999985099,true,high,NA,NA,NA,NA,NA,NA,NA,false
O6gO8luH,3en4yvuovf59wipgxxflzhxwdchjxp,36w0ob37h0r4xrsz1h5n99tjsguzhh,O6gO8luH,2020-0188,2020-05-08,21:14:45,21:33:57,NA,incomplete,230,shape,1,left,Purple_Triangle_Grid_1.jpg,Green_Triangle_Chess_3.jpg,Purple_Plus_Dots_2.jpg,left,829.570000001695,true,high,NA,NA,NA,NA,NA,NA,NA,false
O6gO8luH,3en4yvuovf59wipgxxflzhxwdchjxp,36w0ob37h0r4xrsz1h5n99tjsguzhh,O6gO8luH,2020-0188,2020-05-08,21:14:45,21:33:57,NA,incomplete,231,shape,1,right,Red_Circle_Grid_2.jpg,Red_Plus_Chess_1.jpg,Purple_Circle_Stripes_4.jpg,right,740.4349999851547,true,high,NA,NA,NA,NA,NA,NA,NA,false
O6gO8luH,3en4yvuovf59wipgxxflzhxwdchjxp,36w0ob37h0r4xrsz1h5n99tjsguzhh,O6gO8luH,2020-0188,2020-05-08,21:14:45,21:33:57,NA,incomplete,232,shape,1,left,Blue_Triangle_Grid_3.jpg,Purple_Triangle_Dots_2.jpg,Blue_Circle_Stripes_4.jpg,left,631.7849999759346,true,high,NA,NA,NA,NA,NA,NA,NA,false
O6gO8luH,3en4yvuovf59wipgxxflzhxwdchjxp,36w0ob37h0r4xrsz1h5n99tjsguzhh,O6gO8luH,2020-0188,2020-05-08,21:14:45,21:33:57,NA,incomplete,233,shape,0,right,Blue_Triangle_Stripes_1.jpg,Blue_Star_Dots_2.jpg,Red_Triangle_Grid_3.jpg,right,635.4850000352599,true,high,NA,NA,NA,NA,NA,NA,NA,false
O6gO8luH,3en4yvuovf59wipgxxflzhxwdchjxp,36w0ob37h0r4xrsz1h5n99tjsguzhh,O6gO8luH,2020-0188,2020-05-08,21:14:45,21:33:57,NA,incomplete,234,shape,1,left,Blue_Triangle_Stripes_3.jpg,Green_Triangle_Dots_1.jpg,Blue_Circle_Grid_4.jpg,left,651.4200000092387,true,high,NA,NA,NA,NA,NA,NA,NA,false
O6gO8luH,3en4yvuovf59wipgxxflzhxwdchjxp,36w0ob37h0r4xrsz1h5n99tjsguzhh,O6gO8luH,2020-0188,2020-05-08,21:14:45,21:33:57,NA,incomplete,235,shape,1,right,Purple_Circle_Chess_4.jpg,Purple_Star_Stripes_3.jpg,Red_Circle_Dots_1.jpg,right,650.8449999964796,true,high,NA,NA,NA,NA,NA,NA,NA,false
O6gO8luH,3en4yvuovf59wipgxxflzhxwdchjxp,36w0ob37h0r4xrsz1h5n99tjsguzhh,O6gO8luH,2020-0188,2020-05-08,21:14:45,21:33:57,NA,incomplete,236,shape,1,right,Red_Star_Chess_2.jpg,Red_Plus_Grid_4.jpg,Purple_Star_Stripes_3.jpg,right,720.644999993965,true,high,NA,NA,NA,NA,NA,NA,NA,false
O6gO8luH,3en4yvuovf59wipgxxflzhxwdchjxp,36w0ob37h0r4xrsz1h5n99tjsguzhh,O6gO8luH,2020-0188,2020-05-08,21:14:45,21:33:57,NA,incomplete,237,shape,1,right,Purple_Circle_Chess_4.jpg,Purple_Plus_Grid_2.jpg,Red_Circle_Stripes_1.jpg,left,625.9149999823421,false,high,NA,NA,NA,NA,NA,NA,NA,false
O6gO8luH,3en4yvuovf59wipgxxflzhxwdchjxp,36w0ob37h0r4xrsz1h5n99tjsguzhh,O6gO8luH,2020-0188,2020-05-08,21:14:45,21:33:57,NA,incomplete,238,shape,0,left,Purple_Triangle_Grid_2.jpg,Green_Triangle_Dots_1.jpg,Purple_Star_Stripes_4.jpg,left,1186.069999996107,true,high,NA,NA,NA,NA,NA,NA,NA,false
O6gO8luH,3en4yvuovf59wipgxxflzhxwdchjxp,36w0ob37h0r4xrsz1h5n99tjsguzhh,O6gO8luH,2020-0188,2020-05-08,21:14:45,21:33:57,NA,incomplete,239,shape,1,left,Purple_Triangle_Grid_1.jpg,Red_Triangle_Stripes_2.jpg,Purple_Circle_Dots_4.jpg,left,562.7399999648333,true,high,NA,NA,NA,NA,NA,NA,NA,false
O6gO8luH,3en4yvuovf59wipgxxflzhxwdchjxp,36w0ob37h0r4xrsz1h5n99tjsguzhh,O6gO8luH,2020-0188,2020-05-08,21:14:45,21:33:57,1132637.2649999685,1153378.3349999576,NA,NA,NA,NA,NA,NA,NA,NA,NA,NA,NA,q22,White/Caucasian,Female,white,no,yes,no,undefined
