workerId,hitId,assignmentId,subject,studyid,exp_date,exp_start,exp_end,time_start,time_end,trial,type,reward_validity,answer,image_top,image_left,image_right,response,response_time,response_acc,volatility,age,race,gender,ethnicity,color,vision,neuro,practice
QOxAIzWz,30oitawpctgn4gcs6h6m71vz0jeh92,36w0ob37h0r4xrsz1h5n99tks53zh6,QOxAIzWz,2020-0188,2020-11-19,21:28:42,21:47:29,NA,incomplete,0,shape,0,left,Red_Circle_Grid_2.jpg,Blue_Circle_Chess_1.jpg,Purple_Plus_Stripes_2.jpg,left,976.555000001099,true,NA,NA,NA,NA,NA,NA,NA,NA,true
QOxAIzWz,30oitawpctgn4gcs6h6m71vz0jeh92,36w0ob37h0r4xrsz1h5n99tks53zh6,QOxAIzWz,2020-0188,2020-11-19,21:28:42,21:47:29,NA,incomplete,1,shape,1,right,Purple_Circle_Chess_3.jpg,Blue_Star_Stripes_3.jpg,Green_Circle_Dots_2.jpg,left,996.2599999998929,false,NA,NA,NA,NA,NA,NA,NA,NA,true
QOxAIzWz,30oitawpctgn4gcs6h6m71vz0jeh92,36w0ob37h0r4xrsz1h5n99tks53zh6,QOxAIzWz,2020-0188,2020-11-19,21:28:42,21:47:29,NA,incomplete,2,shape,1,right,Purple_Plus_Chess_3.jpg,Green_Star_Dots_3.jpg,Blue_Plus_Stripes_1.jpg,right,1310.6900000002934,true,NA,NA,NA,NA,NA,NA,NA,NA,true
QOxAIzWz,30oitawpctgn4gcs6h6m71vz0jeh92,36w0ob37h0r4xrsz1h5n99tks53zh6,QOxAIzWz,2020-0188,2020-11-19,21:28:42,21:47:29,NA,incomplete,3,shape,0,left,Green_Plus_Grid_2.jpg,Blue_Plus_Stripes_3.jpg,Purple_Circle_Chess_2.jpg,left,1082.6199999992386,true,NA,NA,NA,NA,NA,NA,NA,NA,true
QOxAIzWz,30oitawpctgn4gcs6h6m71vz0jeh92,36w0ob37h0r4xrsz1h5n99tks53zh6,QOxAIzWz,2020-0188,2020-11-19,21:28:42,21:47:29,NA,incomplete,4,shape,0,right,Green_Circle_Dots_3.jpg,Purple_Star_Grid_3.jpg,Red_Circle_Stripes_2.jpg,right,884.0100000016391,true,NA,NA,NA,NA,NA,NA,NA,NA,true
QOxAIzWz,30oitawpctgn4gcs6h6m71vz0jeh92,36w0ob37h0r4xrsz1h5n99tks53zh6,QOxAIzWz,2020-0188,2020-11-19,21:28:42,21:47:29,NA,incomplete,5,shape,1,right,Green_Star_Chess_2.jpg,Blue_Triangle_Dots_2.jpg,Red_Star_Stripes_4.jpg,right,1226.1349999989616,true,NA,NA,NA,NA,NA,NA,NA,NA,true
QOxAIzWz,30oitawpctgn4gcs6h6m71vz0jeh92,36w0ob37h0r4xrsz1h5n99tks53zh6,QOxAIzWz,2020-0188,2020-11-19,21:28:42,21:47:29,NA,incomplete,6,shape,1,right,Purple_Circle_Chess_3.jpg,Red_Star_Grid_3.jpg,Green_Circle_Stripes_4.jpg,right,1235.155000000319,true,NA,NA,NA,NA,NA,NA,NA,NA,true
QOxAIzWz,30oitawpctgn4gcs6h6m71vz0jeh92,36w0ob37h0r4xrsz1h5n99tks53zh6,QOxAIzWz,2020-0188,2020-11-19,21:28:42,21:47:29,NA,incomplete,7,shape,1,right,Green_Plus_Stripes_1.jpg,Purple_Triangle_Grid_1.jpg,Blue_Plus_Dots_2.jpg,right,1451.2700000014156,true,NA,NA,NA,NA,NA,NA,NA,NA,true
QOxAIzWz,30oitawpctgn4gcs6h6m71vz0jeh92,36w0ob37h0r4xrsz1h5n99tks53zh6,QOxAIzWz,2020-0188,2020-11-19,21:28:42,21:47:29,NA,incomplete,8,shape,1,right,Red_Circle_Grid_4.jpg,Green_Triangle_Dots_4.jpg,Purple_Circle_Stripes_1.jpg,right,1219.3650000008056,true,NA,NA,NA,NA,NA,NA,NA,NA,true
QOxAIzWz,30oitawpctgn4gcs6h6m71vz0jeh92,36w0ob37h0r4xrsz1h5n99tks53zh6,QOxAIzWz,2020-0188,2020-11-19,21:28:42,21:47:29,NA,incomplete,9,shape,1,right,Green_Star_Dots_1.jpg,Red_Circle_Chess_1.jpg,Blue_Star_Stripes_2.jpg,right,1163.954999999958,true,NA,NA,NA,NA,NA,NA,NA,NA,true
QOxAIzWz,30oitawpctgn4gcs6h6m71vz0jeh92,36w0ob37h0r4xrsz1h5n99tks53zh6,QOxAIzWz,2020-0188,2020-11-19,21:28:42,21:47:29,NA,incomplete,10,shape,1,right,Green_Star_Stripes_4.jpg,Blue_Plus_Chess_4.jpg,Red_Star_Grid_1.jpg,right,1078.9000000004307,true,NA,NA,NA,NA,NA,NA,NA,NA,true
QOxAIzWz,30oitawpctgn4gcs6h6m71vz0jeh92,36w0ob37h0r4xrsz1h5n99tks53zh6,QOxAIzWz,2020-0188,2020-11-19,21:28:42,21:47:29,NA,incomplete,11,shape,1,right,Green_Circle_Grid_2.jpg,Blue_Triangle_Stripes_2.jpg,Purple_Circle_Chess_1.jpg,right,621.9599999985658,true,NA,NA,NA,NA,NA,NA,NA,NA,true
QOxAIzWz,30oitawpctgn4gcs6h6m71vz0jeh92,36w0ob37h0r4xrsz1h5n99tks53zh6,QOxAIzWz,2020-0188,2020-11-19,21:28:42,21:47:29,NA,incomplete,12,shape,1,left,Purple_Plus_Stripes_1.jpg,Red_Plus_Dots_3.jpg,Blue_Triangle_Grid_1.jpg,left,1096.469999998575,true,NA,NA,NA,NA,NA,NA,NA,NA,true
QOxAIzWz,30oitawpctgn4gcs6h6m71vz0jeh92,36w0ob37h0r4xrsz1h5n99tks53zh6,QOxAIzWz,2020-0188,2020-11-19,21:28:42,21:47:29,NA,incomplete,13,shape,1,left,Red_Plus_Dots_4.jpg,Blue_Plus_Chess_3.jpg,Green_Star_Grid_4.jpg,left,1151.50499999983,true,NA,NA,NA,NA,NA,NA,NA,NA,true
QOxAIzWz,30oitawpctgn4gcs6h6m71vz0jeh92,36w0ob37h0r4xrsz1h5n99tks53zh6,QOxAIzWz,2020-0188,2020-11-19,21:28:42,21:47:29,NA,incomplete,14,shape,1,left,Blue_Plus_Grid_4.jpg,Red_Plus_Dots_2.jpg,Green_Triangle_Stripes_4.jpg,left,1075.9450000005309,true,NA,NA,NA,NA,NA,NA,NA,NA,true
QOxAIzWz,30oitawpctgn4gcs6h6m71vz0jeh92,36w0ob37h0r4xrsz1h5n99tks53zh6,QOxAIzWz,2020-0188,2020-11-19,21:28:42,21:47:29,NA,incomplete,15,shape,1,left,Blue_Star_Stripes_4.jpg,Purple_Star_Dots_2.jpg,Red_Circle_Chess_4.jpg,left,914.4799999994575,true,NA,NA,NA,NA,NA,NA,NA,NA,true
QOxAIzWz,30oitawpctgn4gcs6h6m71vz0jeh92,36w0ob37h0r4xrsz1h5n99tks53zh6,QOxAIzWz,2020-0188,2020-11-19,21:28:42,21:47:29,NA,incomplete,16,shape,1,right,Green_Plus_Dots_4.jpg,Red_Triangle_Stripes_4.jpg,Blue_Plus_Chess_3.jpg,right,1352.7800000010757,true,NA,NA,NA,NA,NA,NA,NA,NA,true
QOxAIzWz,30oitawpctgn4gcs6h6m71vz0jeh92,36w0ob37h0r4xrsz1h5n99tks53zh6,QOxAIzWz,2020-0188,2020-11-19,21:28:42,21:47:29,NA,incomplete,17,shape,1,left,Purple_Star_Stripes_2.jpg,Blue_Star_Grid_3.jpg,Green_Circle_Chess_2.jpg,left,1164.2900000006193,true,NA,NA,NA,NA,NA,NA,NA,NA,true
QOxAIzWz,30oitawpctgn4gcs6h6m71vz0jeh92,36w0ob37h0r4xrsz1h5n99tks53zh6,QOxAIzWz,2020-0188,2020-11-19,21:28:42,21:47:29,NA,incomplete,18,shape,1,right,Purple_Plus_Chess_4.jpg,Red_Triangle_Stripes_4.jpg,Green_Plus_Dots_1.jpg,right,1838.3350000004284,true,NA,NA,NA,NA,NA,NA,NA,NA,true
QOxAIzWz,30oitawpctgn4gcs6h6m71vz0jeh92,36w0ob37h0r4xrsz1h5n99tks53zh6,QOxAIzWz,2020-0188,2020-11-19,21:28:42,21:47:29,NA,incomplete,19,shape,1,right,Green_Plus_Grid_2.jpg,Purple_Triangle_Dots_2.jpg,Blue_Plus_Stripes_3.jpg,right,1030.0299999998533,true,NA,NA,NA,NA,NA,NA,NA,NA,true
QOxAIzWz,30oitawpctgn4gcs6h6m71vz0jeh92,36w0ob37h0r4xrsz1h5n99tks53zh6,QOxAIzWz,2020-0188,2020-11-19,21:28:42,21:47:29,NA,incomplete,20,number,1,right,Green_Plus_Stripes_4.jpg,Purple_Plus_Grid_2.jpg,Red_Triangle_Dots_4.jpg,left,1031.1499999989173,false,NA,NA,NA,NA,NA,NA,NA,NA,true
QOxAIzWz,30oitawpctgn4gcs6h6m71vz0jeh92,36w0ob37h0r4xrsz1h5n99tks53zh6,QOxAIzWz,2020-0188,2020-11-19,21:28:42,21:47:29,NA,incomplete,21,number,0,left,Green_Plus_Stripes_3.jpg,Purple_Triangle_Grid_3.jpg,Red_Plus_Dots_2.jpg,left,1153.4350000001723,true,NA,NA,NA,NA,NA,NA,NA,NA,true
QOxAIzWz,30oitawpctgn4gcs6h6m71vz0jeh92,36w0ob37h0r4xrsz1h5n99tks53zh6,QOxAIzWz,2020-0188,2020-11-19,21:28:42,21:47:29,NA,incomplete,22,number,1,right,Blue_Plus_Grid_1.jpg,Green_Plus_Chess_3.jpg,Red_Circle_Dots_1.jpg,right,939.6500000002561,true,NA,NA,NA,NA,NA,NA,NA,NA,true
QOxAIzWz,30oitawpctgn4gcs6h6m71vz0jeh92,36w0ob37h0r4xrsz1h5n99tks53zh6,QOxAIzWz,2020-0188,2020-11-19,21:28:42,21:47:29,NA,incomplete,23,number,1,right,Purple_Triangle_Dots_1.jpg,Green_Triangle_Chess_3.jpg,Red_Star_Grid_1.jpg,right,1409.3350000002538,true,NA,NA,NA,NA,NA,NA,NA,NA,true
QOxAIzWz,30oitawpctgn4gcs6h6m71vz0jeh92,36w0ob37h0r4xrsz1h5n99tks53zh6,QOxAIzWz,2020-0188,2020-11-19,21:28:42,21:47:29,NA,incomplete,24,number,0,left,Purple_Star_Chess_3.jpg,Red_Triangle_Dots_3.jpg,Green_Star_Grid_1.jpg,left,839.9549999994342,true,NA,NA,NA,NA,NA,NA,NA,NA,true
QOxAIzWz,30oitawpctgn4gcs6h6m71vz0jeh92,36w0ob37h0r4xrsz1h5n99tks53zh6,QOxAIzWz,2020-0188,2020-11-19,21:28:42,21:47:29,NA,incomplete,25,number,1,left,Green_Star_Grid_1.jpg,Blue_Plus_Stripes_1.jpg,Purple_Star_Chess_3.jpg,left,1227.7299999987008,true,NA,NA,NA,NA,NA,NA,NA,NA,true
QOxAIzWz,30oitawpctgn4gcs6h6m71vz0jeh92,36w0ob37h0r4xrsz1h5n99tks53zh6,QOxAIzWz,2020-0188,2020-11-19,21:28:42,21:47:29,NA,incomplete,26,number,0,right,Blue_Triangle_Stripes_4.jpg,Green_Triangle_Grid_2.jpg,Purple_Plus_Dots_4.jpg,right,1130.474999998114,true,NA,NA,NA,NA,NA,NA,NA,NA,true
QOxAIzWz,30oitawpctgn4gcs6h6m71vz0jeh92,36w0ob37h0r4xrsz1h5n99tks53zh6,QOxAIzWz,2020-0188,2020-11-19,21:28:42,21:47:29,NA,incomplete,27,number,1,right,Blue_Star_Grid_1.jpg,Green_Star_Stripes_2.jpg,Purple_Triangle_Dots_1.jpg,left,1303.8650000016787,false,NA,NA,NA,NA,NA,NA,NA,NA,true
QOxAIzWz,30oitawpctgn4gcs6h6m71vz0jeh92,36w0ob37h0r4xrsz1h5n99tks53zh6,QOxAIzWz,2020-0188,2020-11-19,21:28:42,21:47:29,NA,incomplete,28,number,1,right,Purple_Plus_Chess_2.jpg,Green_Plus_Grid_4.jpg,Blue_Star_Stripes_2.jpg,right,1208.0100000021048,true,NA,NA,NA,NA,NA,NA,NA,NA,true
QOxAIzWz,30oitawpctgn4gcs6h6m71vz0jeh92,36w0ob37h0r4xrsz1h5n99tks53zh6,QOxAIzWz,2020-0188,2020-11-19,21:28:42,21:47:29,NA,incomplete,29,number,1,left,Green_Triangle_Chess_3.jpg,Purple_Circle_Dots_3.jpg,Red_Triangle_Stripes_1.jpg,left,1439.3400000008405,true,NA,NA,NA,NA,NA,NA,NA,NA,true
QOxAIzWz,30oitawpctgn4gcs6h6m71vz0jeh92,36w0ob37h0r4xrsz1h5n99tks53zh6,QOxAIzWz,2020-0188,2020-11-19,21:28:42,21:47:29,NA,incomplete,30,number,1,left,Green_Circle_Chess_4.jpg,Purple_Plus_Dots_4.jpg,Red_Circle_Grid_2.jpg,left,1381.164999998873,true,NA,NA,NA,NA,NA,NA,NA,NA,true
QOxAIzWz,30oitawpctgn4gcs6h6m71vz0jeh92,36w0ob37h0r4xrsz1h5n99tks53zh6,QOxAIzWz,2020-0188,2020-11-19,21:28:42,21:47:29,NA,incomplete,31,number,0,right,Red_Star_Grid_2.jpg,Blue_Star_Dots_4.jpg,Purple_Circle_Stripes_2.jpg,right,1312.2450000009849,true,NA,NA,NA,NA,NA,NA,NA,NA,true
QOxAIzWz,30oitawpctgn4gcs6h6m71vz0jeh92,36w0ob37h0r4xrsz1h5n99tks53zh6,QOxAIzWz,2020-0188,2020-11-19,21:28:42,21:47:29,NA,incomplete,32,number,1,left,Green_Triangle_Chess_2.jpg,Purple_Plus_Grid_2.jpg,Red_Triangle_Dots_1.jpg,right,1061.505000001518,false,NA,NA,NA,NA,NA,NA,NA,NA,true
QOxAIzWz,30oitawpctgn4gcs6h6m71vz0jeh92,36w0ob37h0r4xrsz1h5n99tks53zh6,QOxAIzWz,2020-0188,2020-11-19,21:28:42,21:47:29,NA,incomplete,33,number,1,left,Green_Circle_Grid_2.jpg,Blue_Triangle_Stripes_2.jpg,Red_Circle_Chess_1.jpg,left,1085.0250000003143,true,NA,NA,NA,NA,NA,NA,NA,NA,true
QOxAIzWz,30oitawpctgn4gcs6h6m71vz0jeh92,36w0ob37h0r4xrsz1h5n99tks53zh6,QOxAIzWz,2020-0188,2020-11-19,21:28:42,21:47:29,NA,incomplete,34,number,1,right,Green_Triangle_Chess_2.jpg,Purple_Triangle_Grid_1.jpg,Blue_Plus_Dots_2.jpg,right,988.1150000001071,true,NA,NA,NA,NA,NA,NA,NA,NA,true
QOxAIzWz,30oitawpctgn4gcs6h6m71vz0jeh92,36w0ob37h0r4xrsz1h5n99tks53zh6,QOxAIzWz,2020-0188,2020-11-19,21:28:42,21:47:29,NA,incomplete,35,number,1,left,Red_Plus_Stripes_4.jpg,Green_Triangle_Chess_4.jpg,Purple_Plus_Grid_1.jpg,left,1031.1800000017392,true,NA,NA,NA,NA,NA,NA,NA,NA,true
QOxAIzWz,30oitawpctgn4gcs6h6m71vz0jeh92,36w0ob37h0r4xrsz1h5n99tks53zh6,QOxAIzWz,2020-0188,2020-11-19,21:28:42,21:47:29,NA,incomplete,36,number,0,left,Green_Plus_Chess_3.jpg,Blue_Triangle_Grid_3.jpg,Red_Plus_Dots_4.jpg,left,1231.51499999949,true,NA,NA,NA,NA,NA,NA,NA,NA,true
QOxAIzWz,30oitawpctgn4gcs6h6m71vz0jeh92,36w0ob37h0r4xrsz1h5n99tks53zh6,QOxAIzWz,2020-0188,2020-11-19,21:28:42,21:47:29,NA,incomplete,37,number,1,right,Purple_Star_Chess_1.jpg,Green_Star_Stripes_2.jpg,Blue_Plus_Grid_1.jpg,right,695.2649999984424,true,NA,NA,NA,NA,NA,NA,NA,NA,true
QOxAIzWz,30oitawpctgn4gcs6h6m71vz0jeh92,36w0ob37h0r4xrsz1h5n99tks53zh6,QOxAIzWz,2020-0188,2020-11-19,21:28:42,21:47:29,NA,incomplete,38,number,1,right,Red_Circle_Grid_2.jpg,Purple_Circle_Chess_1.jpg,Green_Triangle_Dots_2.jpg,right,936.5599999983096,true,NA,NA,NA,NA,NA,NA,NA,NA,true
QOxAIzWz,30oitawpctgn4gcs6h6m71vz0jeh92,36w0ob37h0r4xrsz1h5n99tks53zh6,QOxAIzWz,2020-0188,2020-11-19,21:28:42,21:47:29,NA,incomplete,39,number,1,right,Purple_Star_Stripes_2.jpg,Blue_Star_Dots_4.jpg,Red_Circle_Chess_2.jpg,right,1083.9750000013737,true,NA,NA,NA,NA,NA,NA,NA,NA,true
QOxAIzWz,30oitawpctgn4gcs6h6m71vz0jeh92,36w0ob37h0r4xrsz1h5n99tks53zh6,QOxAIzWz,2020-0188,2020-11-19,21:28:42,21:47:29,NA,incomplete,0,shape,1,right,Blue_Triangle_Chess_2.jpg,Green_Star_Dots_2.jpg,Red_Triangle_Stripes_1.jpg,left,1254.7300000005635,false,low,NA,NA,NA,NA,NA,NA,NA,false
QOxAIzWz,30oitawpctgn4gcs6h6m71vz0jeh92,36w0ob37h0r4xrsz1h5n99tks53zh6,QOxAIzWz,2020-0188,2020-11-19,21:28:42,21:47:29,NA,incomplete,1,shape,1,left,Green_Plus_Chess_4.jpg,Purple_Plus_Stripes_2.jpg,Red_Circle_Dots_4.jpg,right,1199.5850000021164,false,low,NA,NA,NA,NA,NA,NA,NA,false
QOxAIzWz,30oitawpctgn4gcs6h6m71vz0jeh92,36w0ob37h0r4xrsz1h5n99tks53zh6,QOxAIzWz,2020-0188,2020-11-19,21:28:42,21:47:29,NA,incomplete,2,shape,1,left,Green_Plus_Chess_1.jpg,Purple_Plus_Grid_3.jpg,Blue_Star_Dots_1.jpg,left,1313.815000001341,true,low,NA,NA,NA,NA,NA,NA,NA,false
QOxAIzWz,30oitawpctgn4gcs6h6m71vz0jeh92,36w0ob37h0r4xrsz1h5n99tks53zh6,QOxAIzWz,2020-0188,2020-11-19,21:28:42,21:47:29,NA,incomplete,3,shape,1,right,Purple_Circle_Chess_1.jpg,Green_Star_Dots_1.jpg,Red_Circle_Grid_3.jpg,right,1087.3199999987264,true,low,NA,NA,NA,NA,NA,NA,NA,false
QOxAIzWz,30oitawpctgn4gcs6h6m71vz0jeh92,36w0ob37h0r4xrsz1h5n99tks53zh6,QOxAIzWz,2020-0188,2020-11-19,21:28:42,21:47:29,NA,incomplete,4,shape,1,left,Purple_Circle_Dots_2.jpg,Red_Circle_Stripes_4.jpg,Green_Triangle_Chess_2.jpg,left,981.0700000016368,true,low,NA,NA,NA,NA,NA,NA,NA,false
QOxAIzWz,30oitawpctgn4gcs6h6m71vz0jeh92,36w0ob37h0r4xrsz1h5n99tks53zh6,QOxAIzWz,2020-0188,2020-11-19,21:28:42,21:47:29,NA,incomplete,5,shape,1,right,Purple_Circle_Dots_3.jpg,Green_Triangle_Chess_3.jpg,Blue_Circle_Stripes_1.jpg,right,869.5899999983958,true,low,NA,NA,NA,NA,NA,NA,NA,false
QOxAIzWz,30oitawpctgn4gcs6h6m71vz0jeh92,36w0ob37h0r4xrsz1h5n99tks53zh6,QOxAIzWz,2020-0188,2020-11-19,21:28:42,21:47:29,NA,incomplete,6,shape,1,right,Red_Circle_Stripes_1.jpg,Purple_Star_Dots_1.jpg,Green_Circle_Chess_2.jpg,right,760.5700000022189,true,low,NA,NA,NA,NA,NA,NA,NA,false
QOxAIzWz,30oitawpctgn4gcs6h6m71vz0jeh92,36w0ob37h0r4xrsz1h5n99tks53zh6,QOxAIzWz,2020-0188,2020-11-19,21:28:42,21:47:29,NA,incomplete,7,shape,1,right,Blue_Star_Dots_1.jpg,Red_Plus_Stripes_1.jpg,Purple_Star_Grid_2.jpg,right,932.3699999985984,true,low,NA,NA,NA,NA,NA,NA,NA,false
QOxAIzWz,30oitawpctgn4gcs6h6m71vz0jeh92,36w0ob37h0r4xrsz1h5n99tks53zh6,QOxAIzWz,2020-0188,2020-11-19,21:28:42,21:47:29,NA,incomplete,8,shape,0,right,Purple_Plus_Grid_2.jpg,Green_Triangle_Dots_2.jpg,Blue_Plus_Chess_4.jpg,right,1003.6650000002119,true,low,NA,NA,NA,NA,NA,NA,NA,false
QOxAIzWz,30oitawpctgn4gcs6h6m71vz0jeh92,36w0ob37h0r4xrsz1h5n99tks53zh6,QOxAIzWz,2020-0188,2020-11-19,21:28:42,21:47:29,NA,incomplete,9,shape,0,left,Blue_Star_Grid_3.jpg,Purple_Star_Chess_2.jpg,Green_Triangle_Dots_3.jpg,left,854.0050000010524,true,low,NA,NA,NA,NA,NA,NA,NA,false
QOxAIzWz,30oitawpctgn4gcs6h6m71vz0jeh92,36w0ob37h0r4xrsz1h5n99tks53zh6,QOxAIzWz,2020-0188,2020-11-19,21:28:42,21:47:29,NA,incomplete,10,shape,1,right,Purple_Triangle_Dots_2.jpg,Blue_Circle_Chess_2.jpg,Green_Triangle_Grid_3.jpg,right,767.1950000003562,true,low,NA,NA,NA,NA,NA,NA,NA,false
QOxAIzWz,30oitawpctgn4gcs6h6m71vz0jeh92,36w0ob37h0r4xrsz1h5n99tks53zh6,QOxAIzWz,2020-0188,2020-11-19,21:28:42,21:47:29,NA,incomplete,11,shape,1,right,Blue_Circle_Stripes_4.jpg,Red_Triangle_Chess_4.jpg,Purple_Circle_Dots_3.jpg,right,803.7850000000326,true,low,NA,NA,NA,NA,NA,NA,NA,false
QOxAIzWz,30oitawpctgn4gcs6h6m71vz0jeh92,36w0ob37h0r4xrsz1h5n99tks53zh6,QOxAIzWz,2020-0188,2020-11-19,21:28:42,21:47:29,NA,incomplete,12,shape,1,left,Red_Star_Grid_2.jpg,Purple_Star_Chess_4.jpg,Blue_Triangle_Stripes_2.jpg,left,847.2700000019977,true,low,NA,NA,NA,NA,NA,NA,NA,false
QOxAIzWz,30oitawpctgn4gcs6h6m71vz0jeh92,36w0ob37h0r4xrsz1h5n99tks53zh6,QOxAIzWz,2020-0188,2020-11-19,21:28:42,21:47:29,NA,incomplete,13,shape,0,left,Red_Plus_Dots_3.jpg,Blue_Plus_Chess_4.jpg,Purple_Circle_Grid_3.jpg,left,817.3099999985425,true,low,NA,NA,NA,NA,NA,NA,NA,false
QOxAIzWz,30oitawpctgn4gcs6h6m71vz0jeh92,36w0ob37h0r4xrsz1h5n99tks53zh6,QOxAIzWz,2020-0188,2020-11-19,21:28:42,21:47:29,NA,incomplete,14,shape,1,left,Red_Star_Chess_4.jpg,Green_Star_Grid_3.jpg,Purple_Circle_Stripes_4.jpg,left,803.1350000019302,true,low,NA,NA,NA,NA,NA,NA,NA,false
QOxAIzWz,30oitawpctgn4gcs6h6m71vz0jeh92,36w0ob37h0r4xrsz1h5n99tks53zh6,QOxAIzWz,2020-0188,2020-11-19,21:28:42,21:47:29,NA,incomplete,15,shape,1,right,Blue_Plus_Dots_4.jpg,Red_Circle_Grid_4.jpg,Purple_Plus_Chess_1.jpg,right,838.8300000005984,true,low,NA,NA,NA,NA,NA,NA,NA,false
QOxAIzWz,30oitawpctgn4gcs6h6m71vz0jeh92,36w0ob37h0r4xrsz1h5n99tks53zh6,QOxAIzWz,2020-0188,2020-11-19,21:28:42,21:47:29,NA,incomplete,16,shape,1,left,Red_Star_Chess_3.jpg,Purple_Star_Dots_4.jpg,Green_Plus_Grid_3.jpg,right,1288.2150000004913,false,low,NA,NA,NA,NA,NA,NA,NA,false
QOxAIzWz,30oitawpctgn4gcs6h6m71vz0jeh92,36w0ob37h0r4xrsz1h5n99tks53zh6,QOxAIzWz,2020-0188,2020-11-19,21:28:42,21:47:29,NA,incomplete,17,shape,1,left,Green_Circle_Chess_2.jpg,Red_Circle_Grid_4.jpg,Blue_Triangle_Dots_2.jpg,left,878.0399999995716,true,low,NA,NA,NA,NA,NA,NA,NA,false
QOxAIzWz,30oitawpctgn4gcs6h6m71vz0jeh92,36w0ob37h0r4xrsz1h5n99tks53zh6,QOxAIzWz,2020-0188,2020-11-19,21:28:42,21:47:29,NA,incomplete,18,shape,1,left,Red_Triangle_Grid_4.jpg,Green_Triangle_Chess_1.jpg,Purple_Star_Stripes_4.jpg,right,918.2000000000698,false,low,NA,NA,NA,NA,NA,NA,NA,false
QOxAIzWz,30oitawpctgn4gcs6h6m71vz0jeh92,36w0ob37h0r4xrsz1h5n99tks53zh6,QOxAIzWz,2020-0188,2020-11-19,21:28:42,21:47:29,NA,incomplete,19,shape,0,right,Red_Triangle_Chess_3.jpg,Blue_Plus_Stripes_3.jpg,Purple_Triangle_Grid_4.jpg,right,765.1949999999488,true,low,NA,NA,NA,NA,NA,NA,NA,false
QOxAIzWz,30oitawpctgn4gcs6h6m71vz0jeh92,36w0ob37h0r4xrsz1h5n99tks53zh6,QOxAIzWz,2020-0188,2020-11-19,21:28:42,21:47:29,NA,incomplete,20,shape,1,right,Green_Circle_Dots_3.jpg,Purple_Plus_Chess_3.jpg,Blue_Circle_Stripes_4.jpg,right,785.4700000025332,true,low,NA,NA,NA,NA,NA,NA,NA,false
QOxAIzWz,30oitawpctgn4gcs6h6m71vz0jeh92,36w0ob37h0r4xrsz1h5n99tks53zh6,QOxAIzWz,2020-0188,2020-11-19,21:28:42,21:47:29,NA,incomplete,21,shape,1,left,Purple_Plus_Grid_1.jpg,Green_Plus_Chess_2.jpg,Red_Star_Dots_1.jpg,left,863.7999999991152,true,low,NA,NA,NA,NA,NA,NA,NA,false
QOxAIzWz,30oitawpctgn4gcs6h6m71vz0jeh92,36w0ob37h0r4xrsz1h5n99tks53zh6,QOxAIzWz,2020-0188,2020-11-19,21:28:42,21:47:29,NA,incomplete,22,shape,1,left,Green_Circle_Grid_4.jpg,Blue_Circle_Dots_1.jpg,Red_Triangle_Stripes_4.jpg,left,749.1499999995576,true,low,NA,NA,NA,NA,NA,NA,NA,false
QOxAIzWz,30oitawpctgn4gcs6h6m71vz0jeh92,36w0ob37h0r4xrsz1h5n99tks53zh6,QOxAIzWz,2020-0188,2020-11-19,21:28:42,21:47:29,NA,incomplete,23,shape,1,left,Blue_Plus_Chess_2.jpg,Red_Plus_Dots_4.jpg,Green_Circle_Grid_2.jpg,left,956.6100000010338,true,low,NA,NA,NA,NA,NA,NA,NA,false
QOxAIzWz,30oitawpctgn4gcs6h6m71vz0jeh92,36w0ob37h0r4xrsz1h5n99tks53zh6,QOxAIzWz,2020-0188,2020-11-19,21:28:42,21:47:29,NA,incomplete,24,shape,0,right,Green_Plus_Dots_4.jpg,Red_Circle_Grid_4.jpg,Purple_Plus_Chess_3.jpg,right,1128.3750000002328,true,low,NA,NA,NA,NA,NA,NA,NA,false
QOxAIzWz,30oitawpctgn4gcs6h6m71vz0jeh92,36w0ob37h0r4xrsz1h5n99tks53zh6,QOxAIzWz,2020-0188,2020-11-19,21:28:42,21:47:29,NA,incomplete,25,shape,1,right,Purple_Circle_Stripes_4.jpg,Green_Plus_Grid_4.jpg,Red_Circle_Dots_3.jpg,left,1293.1749999988824,false,low,NA,NA,NA,NA,NA,NA,NA,false
QOxAIzWz,30oitawpctgn4gcs6h6m71vz0jeh92,36w0ob37h0r4xrsz1h5n99tks53zh6,QOxAIzWz,2020-0188,2020-11-19,21:28:42,21:47:29,NA,incomplete,26,shape,1,right,Red_Star_Chess_2.jpg,Blue_Circle_Grid_2.jpg,Purple_Star_Dots_4.jpg,left,1058.440000000759,false,low,NA,NA,NA,NA,NA,NA,NA,false
QOxAIzWz,30oitawpctgn4gcs6h6m71vz0jeh92,36w0ob37h0r4xrsz1h5n99tks53zh6,QOxAIzWz,2020-0188,2020-11-19,21:28:42,21:47:29,NA,incomplete,27,shape,1,left,Red_Circle_Stripes_1.jpg,Blue_Circle_Grid_4.jpg,Purple_Star_Chess_1.jpg,left,1572.2249999998603,true,low,NA,NA,NA,NA,NA,NA,NA,false
QOxAIzWz,30oitawpctgn4gcs6h6m71vz0jeh92,36w0ob37h0r4xrsz1h5n99tks53zh6,QOxAIzWz,2020-0188,2020-11-19,21:28:42,21:47:29,NA,incomplete,28,shape,1,right,Purple_Plus_Stripes_1.jpg,Red_Triangle_Grid_1.jpg,Blue_Plus_Chess_4.jpg,right,884.5949999995064,true,low,NA,NA,NA,NA,NA,NA,NA,false
QOxAIzWz,30oitawpctgn4gcs6h6m71vz0jeh92,36w0ob37h0r4xrsz1h5n99tks53zh6,QOxAIzWz,2020-0188,2020-11-19,21:28:42,21:47:29,NA,incomplete,29,shape,1,right,Purple_Circle_Grid_4.jpg,Green_Star_Stripes_4.jpg,Blue_Circle_Chess_3.jpg,right,1201.2299999988172,true,low,NA,NA,NA,NA,NA,NA,NA,false
QOxAIzWz,30oitawpctgn4gcs6h6m71vz0jeh92,36w0ob37h0r4xrsz1h5n99tks53zh6,QOxAIzWz,2020-0188,2020-11-19,21:28:42,21:47:29,NA,incomplete,30,number,1,right,Red_Star_Stripes_4.jpg,Green_Star_Dots_1.jpg,Blue_Plus_Chess_4.jpg,left,822.2349999996368,false,low,NA,NA,NA,NA,NA,NA,NA,false
QOxAIzWz,30oitawpctgn4gcs6h6m71vz0jeh92,36w0ob37h0r4xrsz1h5n99tks53zh6,QOxAIzWz,2020-0188,2020-11-19,21:28:42,21:47:29,NA,incomplete,31,number,1,right,Red_Plus_Grid_2.jpg,Blue_Plus_Chess_4.jpg,Purple_Star_Dots_2.jpg,left,944.550000000163,false,low,NA,NA,NA,NA,NA,NA,NA,false
QOxAIzWz,30oitawpctgn4gcs6h6m71vz0jeh92,36w0ob37h0r4xrsz1h5n99tks53zh6,QOxAIzWz,2020-0188,2020-11-19,21:28:42,21:47:29,NA,incomplete,32,number,0,left,Blue_Circle_Chess_3.jpg,Purple_Star_Grid_3.jpg,Green_Circle_Stripes_4.jpg,right,1085.5549999978393,false,low,NA,NA,NA,NA,NA,NA,NA,false
QOxAIzWz,30oitawpctgn4gcs6h6m71vz0jeh92,36w0ob37h0r4xrsz1h5n99tks53zh6,QOxAIzWz,2020-0188,2020-11-19,21:28:42,21:47:29,NA,incomplete,33,number,1,right,Blue_Star_Chess_4.jpg,Purple_Star_Grid_3.jpg,Green_Circle_Dots_4.jpg,left,1148.225000000908,false,low,NA,NA,NA,NA,NA,NA,NA,false
QOxAIzWz,30oitawpctgn4gcs6h6m71vz0jeh92,36w0ob37h0r4xrsz1h5n99tks53zh6,QOxAIzWz,2020-0188,2020-11-19,21:28:42,21:47:29,NA,incomplete,34,number,1,left,Purple_Star_Stripes_3.jpg,Blue_Plus_Chess_3.jpg,Red_Star_Grid_1.jpg,right,1097.2499999989523,false,low,NA,NA,NA,NA,NA,NA,NA,false
QOxAIzWz,30oitawpctgn4gcs6h6m71vz0jeh92,36w0ob37h0r4xrsz1h5n99tks53zh6,QOxAIzWz,2020-0188,2020-11-19,21:28:42,21:47:29,NA,incomplete,35,number,1,right,Red_Triangle_Grid_4.jpg,Blue_Triangle_Dots_3.jpg,Purple_Star_Chess_4.jpg,left,984.8099999980768,false,low,NA,NA,NA,NA,NA,NA,NA,false
QOxAIzWz,30oitawpctgn4gcs6h6m71vz0jeh92,36w0ob37h0r4xrsz1h5n99tks53zh6,QOxAIzWz,2020-0188,2020-11-19,21:28:42,21:47:29,NA,incomplete,36,number,1,left,Blue_Plus_Dots_4.jpg,Purple_Circle_Chess_4.jpg,Green_Plus_Stripes_1.jpg,left,1178.8100000013364,true,low,NA,NA,NA,NA,NA,NA,NA,false
QOxAIzWz,30oitawpctgn4gcs6h6m71vz0jeh92,36w0ob37h0r4xrsz1h5n99tks53zh6,QOxAIzWz,2020-0188,2020-11-19,21:28:42,21:47:29,NA,incomplete,37,number,1,right,Red_Triangle_Grid_2.jpg,Green_Triangle_Stripes_3.jpg,Blue_Circle_Chess_2.jpg,left,1004.1700000001583,false,low,NA,NA,NA,NA,NA,NA,NA,false
QOxAIzWz,30oitawpctgn4gcs6h6m71vz0jeh92,36w0ob37h0r4xrsz1h5n99tks53zh6,QOxAIzWz,2020-0188,2020-11-19,21:28:42,21:47:29,NA,incomplete,38,number,1,left,Red_Circle_Dots_2.jpg,Blue_Star_Grid_2.jpg,Green_Circle_Stripes_1.jpg,right,1183.3149999984307,false,low,NA,NA,NA,NA,NA,NA,NA,false
QOxAIzWz,30oitawpctgn4gcs6h6m71vz0jeh92,36w0ob37h0r4xrsz1h5n99tks53zh6,QOxAIzWz,2020-0188,2020-11-19,21:28:42,21:47:29,NA,incomplete,39,number,1,left,Green_Plus_Grid_1.jpg,Blue_Star_Stripes_1.jpg,Purple_Plus_Dots_4.jpg,left,907.7349999970756,true,low,NA,NA,NA,NA,NA,NA,NA,false
QOxAIzWz,30oitawpctgn4gcs6h6m71vz0jeh92,36w0ob37h0r4xrsz1h5n99tks53zh6,QOxAIzWz,2020-0188,2020-11-19,21:28:42,21:47:29,NA,incomplete,40,number,0,right,Purple_Plus_Chess_4.jpg,Green_Plus_Dots_3.jpg,Blue_Circle_Stripes_4.jpg,right,1354.0550000034273,true,low,NA,NA,NA,NA,NA,NA,NA,false
QOxAIzWz,30oitawpctgn4gcs6h6m71vz0jeh92,36w0ob37h0r4xrsz1h5n99tks53zh6,QOxAIzWz,2020-0188,2020-11-19,21:28:42,21:47:29,NA,incomplete,41,number,0,left,Blue_Star_Chess_2.jpg,Green_Circle_Stripes_2.jpg,Purple_Star_Dots_1.jpg,left,1396.5649999991292,true,low,NA,NA,NA,NA,NA,NA,NA,false
QOxAIzWz,30oitawpctgn4gcs6h6m71vz0jeh92,36w0ob37h0r4xrsz1h5n99tks53zh6,QOxAIzWz,2020-0188,2020-11-19,21:28:42,21:47:29,NA,incomplete,42,number,1,left,Purple_Plus_Chess_2.jpg,Red_Circle_Dots_2.jpg,Green_Plus_Grid_3.jpg,right,1067.2149999991525,false,low,NA,NA,NA,NA,NA,NA,NA,false
QOxAIzWz,30oitawpctgn4gcs6h6m71vz0jeh92,36w0ob37h0r4xrsz1h5n99tks53zh6,QOxAIzWz,2020-0188,2020-11-19,21:28:42,21:47:29,NA,incomplete,43,number,0,right,Purple_Circle_Grid_3.jpg,Green_Circle_Chess_1.jpg,Red_Triangle_Stripes_3.jpg,left,1035.2449999991804,false,low,NA,NA,NA,NA,NA,NA,NA,false
QOxAIzWz,30oitawpctgn4gcs6h6m71vz0jeh92,36w0ob37h0r4xrsz1h5n99tks53zh6,QOxAIzWz,2020-0188,2020-11-19,21:28:42,21:47:29,NA,incomplete,44,number,1,right,Blue_Triangle_Dots_1.jpg,Purple_Triangle_Chess_2.jpg,Green_Star_Stripes_1.jpg,right,854.460000002291,true,low,NA,NA,NA,NA,NA,NA,NA,false
QOxAIzWz,30oitawpctgn4gcs6h6m71vz0jeh92,36w0ob37h0r4xrsz1h5n99tks53zh6,QOxAIzWz,2020-0188,2020-11-19,21:28:42,21:47:29,NA,incomplete,45,number,1,left,Red_Circle_Stripes_2.jpg,Blue_Star_Chess_2.jpg,Green_Circle_Grid_1.jpg,left,1046.655000002007,true,low,NA,NA,NA,NA,NA,NA,NA,false
QOxAIzWz,30oitawpctgn4gcs6h6m71vz0jeh92,36w0ob37h0r4xrsz1h5n99tks53zh6,QOxAIzWz,2020-0188,2020-11-19,21:28:42,21:47:29,NA,incomplete,46,number,1,left,Green_Star_Chess_4.jpg,Red_Circle_Dots_4.jpg,Blue_Star_Stripes_1.jpg,left,869.9300000007497,true,low,NA,NA,NA,NA,NA,NA,NA,false
QOxAIzWz,30oitawpctgn4gcs6h6m71vz0jeh92,36w0ob37h0r4xrsz1h5n99tks53zh6,QOxAIzWz,2020-0188,2020-11-19,21:28:42,21:47:29,NA,incomplete,47,number,1,right,Blue_Star_Chess_3.jpg,Red_Star_Stripes_1.jpg,Purple_Circle_Grid_3.jpg,right,855.4299999995856,true,low,NA,NA,NA,NA,NA,NA,NA,false
QOxAIzWz,30oitawpctgn4gcs6h6m71vz0jeh92,36w0ob37h0r4xrsz1h5n99tks53zh6,QOxAIzWz,2020-0188,2020-11-19,21:28:42,21:47:29,NA,incomplete,48,number,1,right,Blue_Triangle_Dots_4.jpg,Purple_Triangle_Chess_1.jpg,Red_Star_Grid_4.jpg,right,1087.1049999987008,true,low,NA,NA,NA,NA,NA,NA,NA,false
QOxAIzWz,30oitawpctgn4gcs6h6m71vz0jeh92,36w0ob37h0r4xrsz1h5n99tks53zh6,QOxAIzWz,2020-0188,2020-11-19,21:28:42,21:47:29,NA,incomplete,49,number,0,left,Green_Triangle_Grid_3.jpg,Purple_Star_Dots_3.jpg,Blue_Triangle_Chess_1.jpg,right,695.6099999988219,false,low,NA,NA,NA,NA,NA,NA,NA,false
QOxAIzWz,30oitawpctgn4gcs6h6m71vz0jeh92,36w0ob37h0r4xrsz1h5n99tks53zh6,QOxAIzWz,2020-0188,2020-11-19,21:28:42,21:47:29,NA,incomplete,50,number,1,left,Purple_Star_Dots_3.jpg,Green_Circle_Chess_3.jpg,Red_Star_Grid_2.jpg,left,917.8000000028405,true,low,NA,NA,NA,NA,NA,NA,NA,false
QOxAIzWz,30oitawpctgn4gcs6h6m71vz0jeh92,36w0ob37h0r4xrsz1h5n99tks53zh6,QOxAIzWz,2020-0188,2020-11-19,21:28:42,21:47:29,NA,incomplete,51,number,0,right,Blue_Star_Grid_2.jpg,Red_Star_Dots_1.jpg,Purple_Circle_Chess_2.jpg,right,923.445000000298,true,low,NA,NA,NA,NA,NA,NA,NA,false
QOxAIzWz,30oitawpctgn4gcs6h6m71vz0jeh92,36w0ob37h0r4xrsz1h5n99tks53zh6,QOxAIzWz,2020-0188,2020-11-19,21:28:42,21:47:29,NA,incomplete,52,number,1,left,Red_Plus_Stripes_2.jpg,Blue_Star_Grid_2.jpg,Green_Plus_Chess_4.jpg,left,1001.684999999241,true,low,NA,NA,NA,NA,NA,NA,NA,false
QOxAIzWz,30oitawpctgn4gcs6h6m71vz0jeh92,36w0ob37h0r4xrsz1h5n99tks53zh6,QOxAIzWz,2020-0188,2020-11-19,21:28:42,21:47:29,NA,incomplete,53,number,1,left,Purple_Circle_Chess_2.jpg,Blue_Star_Dots_2.jpg,Green_Circle_Stripes_4.jpg,right,846.1950000019278,false,low,NA,NA,NA,NA,NA,NA,NA,false
QOxAIzWz,30oitawpctgn4gcs6h6m71vz0jeh92,36w0ob37h0r4xrsz1h5n99tks53zh6,QOxAIzWz,2020-0188,2020-11-19,21:28:42,21:47:29,NA,incomplete,54,number,1,left,Green_Triangle_Grid_3.jpg,Blue_Star_Chess_3.jpg,Red_Triangle_Stripes_2.jpg,left,791.6899999981979,true,low,NA,NA,NA,NA,NA,NA,NA,false
QOxAIzWz,30oitawpctgn4gcs6h6m71vz0jeh92,36w0ob37h0r4xrsz1h5n99tks53zh6,QOxAIzWz,2020-0188,2020-11-19,21:28:42,21:47:29,NA,incomplete,55,number,1,right,Blue_Plus_Stripes_4.jpg,Green_Plus_Chess_3.jpg,Purple_Circle_Dots_4.jpg,left,1065.5149999983842,false,low,NA,NA,NA,NA,NA,NA,NA,false
QOxAIzWz,30oitawpctgn4gcs6h6m71vz0jeh92,36w0ob37h0r4xrsz1h5n99tks53zh6,QOxAIzWz,2020-0188,2020-11-19,21:28:42,21:47:29,NA,incomplete,56,number,1,left,Purple_Circle_Chess_4.jpg,Blue_Star_Grid_4.jpg,Red_Circle_Dots_3.jpg,right,713.3500000018394,false,low,NA,NA,NA,NA,NA,NA,NA,false
QOxAIzWz,30oitawpctgn4gcs6h6m71vz0jeh92,36w0ob37h0r4xrsz1h5n99tks53zh6,QOxAIzWz,2020-0188,2020-11-19,21:28:42,21:47:29,NA,incomplete,57,number,1,right,Blue_Star_Grid_3.jpg,Purple_Star_Stripes_2.jpg,Red_Circle_Dots_3.jpg,left,704.7700000003679,false,low,NA,NA,NA,NA,NA,NA,NA,false
QOxAIzWz,30oitawpctgn4gcs6h6m71vz0jeh92,36w0ob37h0r4xrsz1h5n99tks53zh6,QOxAIzWz,2020-0188,2020-11-19,21:28:42,21:47:29,NA,incomplete,58,number,1,right,Purple_Star_Stripes_4.jpg,Green_Star_Grid_1.jpg,Blue_Plus_Chess_4.jpg,right,640.2599999965169,true,low,NA,NA,NA,NA,NA,NA,NA,false
QOxAIzWz,30oitawpctgn4gcs6h6m71vz0jeh92,36w0ob37h0r4xrsz1h5n99tks53zh6,QOxAIzWz,2020-0188,2020-11-19,21:28:42,21:47:29,NA,incomplete,59,number,1,right,Green_Plus_Dots_1.jpg,Purple_Plus_Grid_4.jpg,Blue_Star_Chess_1.jpg,left,1114.3200000005309,false,low,NA,NA,NA,NA,NA,NA,NA,false
QOxAIzWz,30oitawpctgn4gcs6h6m71vz0jeh92,36w0ob37h0r4xrsz1h5n99tks53zh6,QOxAIzWz,2020-0188,2020-11-19,21:28:42,21:47:29,NA,incomplete,60,shape,1,left,Blue_Triangle_Grid_1.jpg,Red_Triangle_Stripes_2.jpg,Green_Plus_Chess_1.jpg,right,942.9999999993015,false,low,NA,NA,NA,NA,NA,NA,NA,false
QOxAIzWz,30oitawpctgn4gcs6h6m71vz0jeh92,36w0ob37h0r4xrsz1h5n99tks53zh6,QOxAIzWz,2020-0188,2020-11-19,21:28:42,21:47:29,NA,incomplete,61,shape,1,left,Purple_Plus_Grid_3.jpg,Blue_Plus_Chess_2.jpg,Red_Triangle_Dots_3.jpg,left,949.0200000000186,true,low,NA,NA,NA,NA,NA,NA,NA,false
QOxAIzWz,30oitawpctgn4gcs6h6m71vz0jeh92,36w0ob37h0r4xrsz1h5n99tks53zh6,QOxAIzWz,2020-0188,2020-11-19,21:28:42,21:47:29,NA,incomplete,62,shape,1,right,Red_Plus_Dots_1.jpg,Green_Triangle_Chess_1.jpg,Purple_Plus_Grid_3.jpg,left,778.0500000008615,false,low,NA,NA,NA,NA,NA,NA,NA,false
QOxAIzWz,30oitawpctgn4gcs6h6m71vz0jeh92,36w0ob37h0r4xrsz1h5n99tks53zh6,QOxAIzWz,2020-0188,2020-11-19,21:28:42,21:47:29,NA,incomplete,63,shape,1,right,Green_Star_Stripes_3.jpg,Blue_Circle_Grid_3.jpg,Red_Star_Chess_1.jpg,right,797.4099999992177,true,low,NA,NA,NA,NA,NA,NA,NA,false
QOxAIzWz,30oitawpctgn4gcs6h6m71vz0jeh92,36w0ob37h0r4xrsz1h5n99tks53zh6,QOxAIzWz,2020-0188,2020-11-19,21:28:42,21:47:29,NA,incomplete,64,shape,1,left,Blue_Star_Stripes_2.jpg,Purple_Star_Grid_3.jpg,Red_Triangle_Chess_2.jpg,left,882.5450000003912,true,low,NA,NA,NA,NA,NA,NA,NA,false
QOxAIzWz,30oitawpctgn4gcs6h6m71vz0jeh92,36w0ob37h0r4xrsz1h5n99tks53zh6,QOxAIzWz,2020-0188,2020-11-19,21:28:42,21:47:29,NA,incomplete,65,shape,1,right,Blue_Plus_Grid_1.jpg,Green_Circle_Chess_1.jpg,Red_Plus_Dots_3.jpg,right,640.0050000011688,true,low,NA,NA,NA,NA,NA,NA,NA,false
QOxAIzWz,30oitawpctgn4gcs6h6m71vz0jeh92,36w0ob37h0r4xrsz1h5n99tks53zh6,QOxAIzWz,2020-0188,2020-11-19,21:28:42,21:47:29,NA,incomplete,66,shape,1,right,Purple_Plus_Grid_1.jpg,Blue_Circle_Stripes_1.jpg,Green_Plus_Dots_3.jpg,right,730.7000000000698,true,low,NA,NA,NA,NA,NA,NA,NA,false
QOxAIzWz,30oitawpctgn4gcs6h6m71vz0jeh92,36w0ob37h0r4xrsz1h5n99tks53zh6,QOxAIzWz,2020-0188,2020-11-19,21:28:42,21:47:29,NA,incomplete,67,shape,1,right,Green_Plus_Chess_2.jpg,Red_Triangle_Grid_2.jpg,Purple_Plus_Stripes_1.jpg,right,713.8699999995297,true,low,NA,NA,NA,NA,NA,NA,NA,false
QOxAIzWz,30oitawpctgn4gcs6h6m71vz0jeh92,36w0ob37h0r4xrsz1h5n99tks53zh6,QOxAIzWz,2020-0188,2020-11-19,21:28:42,21:47:29,NA,incomplete,68,shape,1,right,Purple_Plus_Chess_4.jpg,Green_Circle_Stripes_4.jpg,Blue_Plus_Grid_1.jpg,right,801.5550000017975,true,low,NA,NA,NA,NA,NA,NA,NA,false
QOxAIzWz,30oitawpctgn4gcs6h6m71vz0jeh92,36w0ob37h0r4xrsz1h5n99tks53zh6,QOxAIzWz,2020-0188,2020-11-19,21:28:42,21:47:29,NA,incomplete,69,shape,0,left,Red_Star_Grid_4.jpg,Blue_Star_Stripes_2.jpg,Purple_Plus_Chess_4.jpg,left,932.730000000447,true,low,NA,NA,NA,NA,NA,NA,NA,false
QOxAIzWz,30oitawpctgn4gcs6h6m71vz0jeh92,36w0ob37h0r4xrsz1h5n99tks53zh6,QOxAIzWz,2020-0188,2020-11-19,21:28:42,21:47:29,NA,incomplete,70,shape,1,left,Purple_Circle_Dots_3.jpg,Red_Circle_Stripes_4.jpg,Green_Triangle_Grid_3.jpg,left,1064.489999996964,true,low,NA,NA,NA,NA,NA,NA,NA,false
QOxAIzWz,30oitawpctgn4gcs6h6m71vz0jeh92,36w0ob37h0r4xrsz1h5n99tks53zh6,QOxAIzWz,2020-0188,2020-11-19,21:28:42,21:47:29,NA,incomplete,71,shape,0,right,Blue_Plus_Chess_3.jpg,Purple_Star_Grid_3.jpg,Red_Plus_Dots_4.jpg,right,1041.6450000011828,true,low,NA,NA,NA,NA,NA,NA,NA,false
QOxAIzWz,30oitawpctgn4gcs6h6m71vz0jeh92,36w0ob37h0r4xrsz1h5n99tks53zh6,QOxAIzWz,2020-0188,2020-11-19,21:28:42,21:47:29,NA,incomplete,72,shape,1,right,Red_Star_Chess_1.jpg,Green_Circle_Stripes_1.jpg,Blue_Star_Grid_4.jpg,left,922.1749999996973,false,low,NA,NA,NA,NA,NA,NA,NA,false
QOxAIzWz,30oitawpctgn4gcs6h6m71vz0jeh92,36w0ob37h0r4xrsz1h5n99tks53zh6,QOxAIzWz,2020-0188,2020-11-19,21:28:42,21:47:29,NA,incomplete,73,shape,1,right,Purple_Circle_Stripes_4.jpg,Red_Plus_Grid_4.jpg,Green_Circle_Dots_3.jpg,right,768.3049999978393,true,low,NA,NA,NA,NA,NA,NA,NA,false
QOxAIzWz,30oitawpctgn4gcs6h6m71vz0jeh92,36w0ob37h0r4xrsz1h5n99tks53zh6,QOxAIzWz,2020-0188,2020-11-19,21:28:42,21:47:29,NA,incomplete,74,shape,1,right,Green_Star_Stripes_1.jpg,Purple_Plus_Grid_1.jpg,Red_Star_Dots_3.jpg,left,741.5450000008568,false,low,NA,NA,NA,NA,NA,NA,NA,false
QOxAIzWz,30oitawpctgn4gcs6h6m71vz0jeh92,36w0ob37h0r4xrsz1h5n99tks53zh6,QOxAIzWz,2020-0188,2020-11-19,21:28:42,21:47:29,NA,incomplete,75,shape,0,right,Green_Plus_Stripes_2.jpg,Purple_Star_Dots_2.jpg,Blue_Plus_Grid_1.jpg,right,722.0300000008428,true,low,NA,NA,NA,NA,NA,NA,NA,false
QOxAIzWz,30oitawpctgn4gcs6h6m71vz0jeh92,36w0ob37h0r4xrsz1h5n99tks53zh6,QOxAIzWz,2020-0188,2020-11-19,21:28:42,21:47:29,NA,incomplete,76,shape,0,right,Green_Circle_Chess_1.jpg,Red_Triangle_Dots_1.jpg,Purple_Circle_Stripes_4.jpg,right,696.7949999998091,true,low,NA,NA,NA,NA,NA,NA,NA,false
QOxAIzWz,30oitawpctgn4gcs6h6m71vz0jeh92,36w0ob37h0r4xrsz1h5n99tks53zh6,QOxAIzWz,2020-0188,2020-11-19,21:28:42,21:47:29,NA,incomplete,77,shape,1,left,Purple_Plus_Stripes_2.jpg,Blue_Plus_Chess_1.jpg,Green_Triangle_Dots_2.jpg,left,753.5800000005402,true,low,NA,NA,NA,NA,NA,NA,NA,false
QOxAIzWz,30oitawpctgn4gcs6h6m71vz0jeh92,36w0ob37h0r4xrsz1h5n99tks53zh6,QOxAIzWz,2020-0188,2020-11-19,21:28:42,21:47:29,NA,incomplete,78,shape,0,right,Blue_Star_Dots_1.jpg,Purple_Plus_Grid_1.jpg,Red_Star_Chess_3.jpg,right,1111.014999998617,true,low,NA,NA,NA,NA,NA,NA,NA,false
QOxAIzWz,30oitawpctgn4gcs6h6m71vz0jeh92,36w0ob37h0r4xrsz1h5n99tks53zh6,QOxAIzWz,2020-0188,2020-11-19,21:28:42,21:47:29,NA,incomplete,79,shape,1,left,Red_Triangle_Grid_1.jpg,Blue_Triangle_Dots_3.jpg,Green_Circle_Stripes_1.jpg,left,961.5850000008941,true,low,NA,NA,NA,NA,NA,NA,NA,false
QOxAIzWz,30oitawpctgn4gcs6h6m71vz0jeh92,36w0ob37h0r4xrsz1h5n99tks53zh6,QOxAIzWz,2020-0188,2020-11-19,21:28:42,21:47:29,NA,incomplete,80,shape,0,right,Blue_Triangle_Stripes_4.jpg,Green_Circle_Grid_4.jpg,Red_Triangle_Chess_1.jpg,right,881.4449999991339,true,low,NA,NA,NA,NA,NA,NA,NA,false
QOxAIzWz,30oitawpctgn4gcs6h6m71vz0jeh92,36w0ob37h0r4xrsz1h5n99tks53zh6,QOxAIzWz,2020-0188,2020-11-19,21:28:42,21:47:29,NA,incomplete,81,shape,1,left,Blue_Plus_Chess_3.jpg,Purple_Plus_Stripes_1.jpg,Red_Triangle_Dots_3.jpg,left,1175.889999998617,true,low,NA,NA,NA,NA,NA,NA,NA,false
QOxAIzWz,30oitawpctgn4gcs6h6m71vz0jeh92,36w0ob37h0r4xrsz1h5n99tks53zh6,QOxAIzWz,2020-0188,2020-11-19,21:28:42,21:47:29,NA,incomplete,82,shape,1,left,Green_Triangle_Dots_1.jpg,Blue_Triangle_Chess_2.jpg,Red_Star_Grid_1.jpg,left,932.1300000010524,true,low,NA,NA,NA,NA,NA,NA,NA,false
QOxAIzWz,30oitawpctgn4gcs6h6m71vz0jeh92,36w0ob37h0r4xrsz1h5n99tks53zh6,QOxAIzWz,2020-0188,2020-11-19,21:28:42,21:47:29,NA,incomplete,83,shape,1,left,Purple_Plus_Dots_1.jpg,Red_Plus_Stripes_3.jpg,Green_Circle_Grid_1.jpg,left,913.7399999998743,true,low,NA,NA,NA,NA,NA,NA,NA,false
QOxAIzWz,30oitawpctgn4gcs6h6m71vz0jeh92,36w0ob37h0r4xrsz1h5n99tks53zh6,QOxAIzWz,2020-0188,2020-11-19,21:28:42,21:47:29,NA,incomplete,84,shape,1,right,Red_Star_Stripes_1.jpg,Purple_Triangle_Dots_1.jpg,Blue_Star_Grid_2.jpg,right,904.8399999992689,true,low,NA,NA,NA,NA,NA,NA,NA,false
QOxAIzWz,30oitawpctgn4gcs6h6m71vz0jeh92,36w0ob37h0r4xrsz1h5n99tks53zh6,QOxAIzWz,2020-0188,2020-11-19,21:28:42,21:47:29,NA,incomplete,85,shape,1,right,Purple_Plus_Stripes_4.jpg,Green_Triangle_Grid_4.jpg,Blue_Plus_Chess_2.jpg,right,861.0900000020629,true,low,NA,NA,NA,NA,NA,NA,NA,false
QOxAIzWz,30oitawpctgn4gcs6h6m71vz0jeh92,36w0ob37h0r4xrsz1h5n99tks53zh6,QOxAIzWz,2020-0188,2020-11-19,21:28:42,21:47:29,NA,incomplete,86,shape,0,right,Green_Star_Grid_3.jpg,Purple_Triangle_Chess_3.jpg,Red_Star_Dots_4.jpg,right,1182.2400000019697,true,low,NA,NA,NA,NA,NA,NA,NA,false
QOxAIzWz,30oitawpctgn4gcs6h6m71vz0jeh92,36w0ob37h0r4xrsz1h5n99tks53zh6,QOxAIzWz,2020-0188,2020-11-19,21:28:42,21:47:29,NA,incomplete,87,shape,1,left,Blue_Circle_Dots_1.jpg,Purple_Circle_Grid_3.jpg,Red_Star_Chess_1.jpg,left,911.4599999993807,true,low,NA,NA,NA,NA,NA,NA,NA,false
QOxAIzWz,30oitawpctgn4gcs6h6m71vz0jeh92,36w0ob37h0r4xrsz1h5n99tks53zh6,QOxAIzWz,2020-0188,2020-11-19,21:28:42,21:47:29,NA,incomplete,88,shape,1,right,Purple_Plus_Stripes_4.jpg,Blue_Star_Dots_4.jpg,Green_Plus_Grid_2.jpg,right,1159.285000001546,true,low,NA,NA,NA,NA,NA,NA,NA,false
QOxAIzWz,30oitawpctgn4gcs6h6m71vz0jeh92,36w0ob37h0r4xrsz1h5n99tks53zh6,QOxAIzWz,2020-0188,2020-11-19,21:28:42,21:47:29,NA,incomplete,89,shape,1,right,Red_Circle_Chess_1.jpg,Blue_Plus_Grid_1.jpg,Green_Circle_Stripes_4.jpg,right,795.2049999985611,true,low,NA,NA,NA,NA,NA,NA,NA,false
QOxAIzWz,30oitawpctgn4gcs6h6m71vz0jeh92,36w0ob37h0r4xrsz1h5n99tks53zh6,QOxAIzWz,2020-0188,2020-11-19,21:28:42,21:47:29,NA,incomplete,90,number,0,left,Purple_Plus_Stripes_1.jpg,Green_Star_Dots_1.jpg,Red_Plus_Chess_2.jpg,right,807.5200000021141,false,low,NA,NA,NA,NA,NA,NA,NA,false
QOxAIzWz,30oitawpctgn4gcs6h6m71vz0jeh92,36w0ob37h0r4xrsz1h5n99tks53zh6,QOxAIzWz,2020-0188,2020-11-19,21:28:42,21:47:29,NA,incomplete,91,number,1,right,Green_Plus_Stripes_2.jpg,Red_Plus_Grid_3.jpg,Blue_Circle_Dots_2.jpg,left,809.339999999851,false,low,NA,NA,NA,NA,NA,NA,NA,false
QOxAIzWz,30oitawpctgn4gcs6h6m71vz0jeh92,36w0ob37h0r4xrsz1h5n99tks53zh6,QOxAIzWz,2020-0188,2020-11-19,21:28:42,21:47:29,NA,incomplete,92,number,1,right,Blue_Circle_Chess_4.jpg,Green_Circle_Stripes_1.jpg,Purple_Star_Grid_4.jpg,left,939.8600000021979,false,low,NA,NA,NA,NA,NA,NA,NA,false
QOxAIzWz,30oitawpctgn4gcs6h6m71vz0jeh92,36w0ob37h0r4xrsz1h5n99tks53zh6,QOxAIzWz,2020-0188,2020-11-19,21:28:42,21:47:29,NA,incomplete,93,number,0,left,Green_Circle_Stripes_3.jpg,Blue_Triangle_Dots_3.jpg,Purple_Circle_Grid_4.jpg,right,753.239999998128,false,low,NA,NA,NA,NA,NA,NA,NA,false
QOxAIzWz,30oitawpctgn4gcs6h6m71vz0jeh92,36w0ob37h0r4xrsz1h5n99tks53zh6,QOxAIzWz,2020-0188,2020-11-19,21:28:42,21:47:29,NA,incomplete,94,number,0,right,Purple_Star_Stripes_2.jpg,Red_Star_Grid_4.jpg,Green_Triangle_Dots_2.jpg,left,1054.8100000014529,false,low,NA,NA,NA,NA,NA,NA,NA,false
QOxAIzWz,30oitawpctgn4gcs6h6m71vz0jeh92,36w0ob37h0r4xrsz1h5n99tks53zh6,QOxAIzWz,2020-0188,2020-11-19,21:28:42,21:47:29,NA,incomplete,95,number,1,left,Blue_Circle_Stripes_3.jpg,Green_Triangle_Grid_3.jpg,Purple_Circle_Chess_4.jpg,right,734.8500000006752,false,low,NA,NA,NA,NA,NA,NA,NA,false
QOxAIzWz,30oitawpctgn4gcs6h6m71vz0jeh92,36w0ob37h0r4xrsz1h5n99tks53zh6,QOxAIzWz,2020-0188,2020-11-19,21:28:42,21:47:29,NA,incomplete,96,number,1,right,Green_Plus_Grid_1.jpg,Red_Plus_Dots_3.jpg,Purple_Star_Stripes_1.jpg,left,813.225000001723,false,low,NA,NA,NA,NA,NA,NA,NA,false
QOxAIzWz,30oitawpctgn4gcs6h6m71vz0jeh92,36w0ob37h0r4xrsz1h5n99tks53zh6,QOxAIzWz,2020-0188,2020-11-19,21:28:42,21:47:29,NA,incomplete,97,number,1,right,Green_Circle_Dots_1.jpg,Purple_Circle_Chess_2.jpg,Blue_Star_Stripes_1.jpg,left,857,false,low,NA,NA,NA,NA,NA,NA,NA,false
QOxAIzWz,30oitawpctgn4gcs6h6m71vz0jeh92,36w0ob37h0r4xrsz1h5n99tks53zh6,QOxAIzWz,2020-0188,2020-11-19,21:28:42,21:47:29,NA,incomplete,98,number,1,right,Purple_Plus_Stripes_4.jpg,Green_Plus_Grid_3.jpg,Blue_Circle_Dots_4.jpg,left,840.8650000019697,false,low,NA,NA,NA,NA,NA,NA,NA,false
QOxAIzWz,30oitawpctgn4gcs6h6m71vz0jeh92,36w0ob37h0r4xrsz1h5n99tks53zh6,QOxAIzWz,2020-0188,2020-11-19,21:28:42,21:47:29,NA,incomplete,99,number,1,left,Blue_Circle_Stripes_3.jpg,Purple_Star_Dots_3.jpg,Red_Circle_Chess_1.jpg,right,714.8099999977276,false,low,NA,NA,NA,NA,NA,NA,NA,false
QOxAIzWz,30oitawpctgn4gcs6h6m71vz0jeh92,36w0ob37h0r4xrsz1h5n99tks53zh6,QOxAIzWz,2020-0188,2020-11-19,21:28:42,21:47:29,NA,incomplete,100,number,1,left,Purple_Plus_Stripes_4.jpg,Green_Star_Dots_4.jpg,Red_Plus_Grid_3.jpg,left,1001.0750000000698,true,low,NA,NA,NA,NA,NA,NA,NA,false
QOxAIzWz,30oitawpctgn4gcs6h6m71vz0jeh92,36w0ob37h0r4xrsz1h5n99tks53zh6,QOxAIzWz,2020-0188,2020-11-19,21:28:42,21:47:29,NA,incomplete,101,number,1,right,Red_Triangle_Stripes_4.jpg,Purple_Triangle_Chess_3.jpg,Blue_Star_Dots_4.jpg,right,932.2299999985844,true,low,NA,NA,NA,NA,NA,NA,NA,false
QOxAIzWz,30oitawpctgn4gcs6h6m71vz0jeh92,36w0ob37h0r4xrsz1h5n99tks53zh6,QOxAIzWz,2020-0188,2020-11-19,21:28:42,21:47:29,NA,incomplete,102,number,0,right,Purple_Circle_Stripes_1.jpg,Blue_Circle_Chess_4.jpg,Green_Triangle_Grid_1.jpg,right,921.1899999972666,true,low,NA,NA,NA,NA,NA,NA,NA,false
QOxAIzWz,30oitawpctgn4gcs6h6m71vz0jeh92,36w0ob37h0r4xrsz1h5n99tks53zh6,QOxAIzWz,2020-0188,2020-11-19,21:28:42,21:47:29,NA,incomplete,103,number,1,left,Purple_Plus_Dots_1.jpg,Blue_Circle_Stripes_1.jpg,Red_Plus_Chess_4.jpg,left,1183.6550000007264,true,low,NA,NA,NA,NA,NA,NA,NA,false
QOxAIzWz,30oitawpctgn4gcs6h6m71vz0jeh92,36w0ob37h0r4xrsz1h5n99tks53zh6,QOxAIzWz,2020-0188,2020-11-19,21:28:42,21:47:29,NA,incomplete,104,number,1,right,Purple_Triangle_Grid_4.jpg,Red_Triangle_Chess_2.jpg,Green_Circle_Dots_4.jpg,right,1178.7050000020536,true,low,NA,NA,NA,NA,NA,NA,NA,false
QOxAIzWz,30oitawpctgn4gcs6h6m71vz0jeh92,36w0ob37h0r4xrsz1h5n99tks53zh6,QOxAIzWz,2020-0188,2020-11-19,21:28:42,21:47:29,NA,incomplete,105,number,1,right,Purple_Star_Stripes_3.jpg,Red_Star_Dots_2.jpg,Green_Plus_Chess_3.jpg,right,1180.2050000006566,true,low,NA,NA,NA,NA,NA,NA,NA,false
QOxAIzWz,30oitawpctgn4gcs6h6m71vz0jeh92,36w0ob37h0r4xrsz1h5n99tks53zh6,QOxAIzWz,2020-0188,2020-11-19,21:28:42,21:47:29,NA,incomplete,106,number,1,left,Red_Plus_Grid_2.jpg,Green_Triangle_Chess_2.jpg,Blue_Plus_Dots_4.jpg,left,928.6299999984913,true,low,NA,NA,NA,NA,NA,NA,NA,false
QOxAIzWz,30oitawpctgn4gcs6h6m71vz0jeh92,36w0ob37h0r4xrsz1h5n99tks53zh6,QOxAIzWz,2020-0188,2020-11-19,21:28:42,21:47:29,NA,incomplete,107,number,1,left,Green_Triangle_Stripes_1.jpg,Purple_Circle_Dots_1.jpg,Blue_Triangle_Grid_2.jpg,left,1150.2050000017043,true,low,NA,NA,NA,NA,NA,NA,NA,false
QOxAIzWz,30oitawpctgn4gcs6h6m71vz0jeh92,36w0ob37h0r4xrsz1h5n99tks53zh6,QOxAIzWz,2020-0188,2020-11-19,21:28:42,21:47:29,NA,incomplete,108,number,1,left,Purple_Triangle_Dots_1.jpg,Green_Star_Grid_1.jpg,Red_Triangle_Chess_3.jpg,left,1105.295000001206,true,low,NA,NA,NA,NA,NA,NA,NA,false
QOxAIzWz,30oitawpctgn4gcs6h6m71vz0jeh92,36w0ob37h0r4xrsz1h5n99tks53zh6,QOxAIzWz,2020-0188,2020-11-19,21:28:42,21:47:29,NA,incomplete,109,number,1,right,Purple_Star_Chess_3.jpg,Red_Star_Stripes_4.jpg,Green_Circle_Dots_3.jpg,right,1023.6599999989849,true,low,NA,NA,NA,NA,NA,NA,NA,false
QOxAIzWz,30oitawpctgn4gcs6h6m71vz0jeh92,36w0ob37h0r4xrsz1h5n99tks53zh6,QOxAIzWz,2020-0188,2020-11-19,21:28:42,21:47:29,NA,incomplete,110,number,0,left,Blue_Triangle_Grid_4.jpg,Green_Star_Dots_4.jpg,Red_Triangle_Stripes_3.jpg,left,1273.0849999970524,true,low,NA,NA,NA,NA,NA,NA,NA,false
QOxAIzWz,30oitawpctgn4gcs6h6m71vz0jeh92,36w0ob37h0r4xrsz1h5n99tks53zh6,QOxAIzWz,2020-0188,2020-11-19,21:28:42,21:47:29,NA,incomplete,111,number,1,right,Blue_Circle_Stripes_4.jpg,Purple_Circle_Dots_3.jpg,Green_Star_Chess_4.jpg,left,1367.855000000447,false,low,NA,NA,NA,NA,NA,NA,NA,false
QOxAIzWz,30oitawpctgn4gcs6h6m71vz0jeh92,36w0ob37h0r4xrsz1h5n99tks53zh6,QOxAIzWz,2020-0188,2020-11-19,21:28:42,21:47:29,NA,incomplete,112,number,1,right,Blue_Circle_Grid_1.jpg,Red_Circle_Dots_3.jpg,Purple_Plus_Stripes_1.jpg,right,842.065000000759,true,low,NA,NA,NA,NA,NA,NA,NA,false
QOxAIzWz,30oitawpctgn4gcs6h6m71vz0jeh92,36w0ob37h0r4xrsz1h5n99tks53zh6,QOxAIzWz,2020-0188,2020-11-19,21:28:42,21:47:29,NA,incomplete,113,number,1,right,Blue_Circle_Chess_3.jpg,Red_Circle_Stripes_1.jpg,Green_Plus_Dots_3.jpg,right,826.4999999991851,true,low,NA,NA,NA,NA,NA,NA,NA,false
QOxAIzWz,30oitawpctgn4gcs6h6m71vz0jeh92,36w0ob37h0r4xrsz1h5n99tks53zh6,QOxAIzWz,2020-0188,2020-11-19,21:28:42,21:47:29,NA,incomplete,114,number,0,left,Red_Star_Chess_1.jpg,Purple_Circle_Stripes_1.jpg,Blue_Star_Grid_3.jpg,left,1156.8350000015926,true,low,NA,NA,NA,NA,NA,NA,NA,false
QOxAIzWz,30oitawpctgn4gcs6h6m71vz0jeh92,36w0ob37h0r4xrsz1h5n99tks53zh6,QOxAIzWz,2020-0188,2020-11-19,21:28:42,21:47:29,NA,incomplete,115,number,1,left,Red_Plus_Dots_2.jpg,Blue_Circle_Chess_2.jpg,Green_Plus_Grid_3.jpg,left,991.330000000773,true,low,NA,NA,NA,NA,NA,NA,NA,false
QOxAIzWz,30oitawpctgn4gcs6h6m71vz0jeh92,36w0ob37h0r4xrsz1h5n99tks53zh6,QOxAIzWz,2020-0188,2020-11-19,21:28:42,21:47:29,NA,incomplete,116,number,1,left,Purple_Triangle_Grid_3.jpg,Red_Circle_Chess_3.jpg,Blue_Triangle_Stripes_4.jpg,left,1051.3599999976577,true,low,NA,NA,NA,NA,NA,NA,NA,false
QOxAIzWz,30oitawpctgn4gcs6h6m71vz0jeh92,36w0ob37h0r4xrsz1h5n99tks53zh6,QOxAIzWz,2020-0188,2020-11-19,21:28:42,21:47:29,NA,incomplete,117,number,1,right,Green_Star_Dots_2.jpg,Purple_Star_Grid_3.jpg,Red_Plus_Stripes_2.jpg,right,802.4350000014529,true,low,NA,NA,NA,NA,NA,NA,NA,false
QOxAIzWz,30oitawpctgn4gcs6h6m71vz0jeh92,36w0ob37h0r4xrsz1h5n99tks53zh6,QOxAIzWz,2020-0188,2020-11-19,21:28:42,21:47:29,NA,incomplete,118,number,1,right,Green_Triangle_Dots_2.jpg,Purple_Triangle_Stripes_1.jpg,Blue_Star_Chess_2.jpg,right,918.3450000018347,true,low,NA,NA,NA,NA,NA,NA,NA,false
QOxAIzWz,30oitawpctgn4gcs6h6m71vz0jeh92,36w0ob37h0r4xrsz1h5n99tks53zh6,QOxAIzWz,2020-0188,2020-11-19,21:28:42,21:47:29,NA,incomplete,119,number,1,left,Red_Triangle_Chess_3.jpg,Blue_Plus_Grid_3.jpg,Purple_Triangle_Dots_4.jpg,left,1037.0199999997858,true,low,NA,NA,NA,NA,NA,NA,NA,false
QOxAIzWz,30oitawpctgn4gcs6h6m71vz0jeh92,36w0ob37h0r4xrsz1h5n99tks53zh6,QOxAIzWz,2020-0188,2020-11-19,21:28:42,21:47:29,NA,incomplete,120,shape,1,right,Purple_Triangle_Dots_3.jpg,Green_Star_Chess_3.jpg,Blue_Triangle_Stripes_2.jpg,right,670.0500000006286,true,low,NA,NA,NA,NA,NA,NA,NA,false
QOxAIzWz,30oitawpctgn4gcs6h6m71vz0jeh92,36w0ob37h0r4xrsz1h5n99tks53zh6,QOxAIzWz,2020-0188,2020-11-19,21:28:42,21:47:29,NA,incomplete,121,shape,1,left,Red_Star_Grid_4.jpg,Purple_Star_Chess_1.jpg,Blue_Circle_Stripes_4.jpg,right,1107.2999999996973,false,low,NA,NA,NA,NA,NA,NA,NA,false
QOxAIzWz,30oitawpctgn4gcs6h6m71vz0jeh92,36w0ob37h0r4xrsz1h5n99tks53zh6,QOxAIzWz,2020-0188,2020-11-19,21:28:42,21:47:29,NA,incomplete,122,shape,1,right,Green_Star_Grid_1.jpg,Blue_Plus_Dots_1.jpg,Purple_Star_Stripes_4.jpg,left,724.6750000012107,false,low,NA,NA,NA,NA,NA,NA,NA,false
QOxAIzWz,30oitawpctgn4gcs6h6m71vz0jeh92,36w0ob37h0r4xrsz1h5n99tks53zh6,QOxAIzWz,2020-0188,2020-11-19,21:28:42,21:47:29,NA,incomplete,123,shape,0,right,Red_Star_Dots_1.jpg,Green_Plus_Grid_1.jpg,Blue_Star_Stripes_4.jpg,left,986.4049999996787,false,low,NA,NA,NA,NA,NA,NA,NA,false
QOxAIzWz,30oitawpctgn4gcs6h6m71vz0jeh92,36w0ob37h0r4xrsz1h5n99tks53zh6,QOxAIzWz,2020-0188,2020-11-19,21:28:42,21:47:29,NA,incomplete,124,shape,1,left,Purple_Triangle_Stripes_3.jpg,Red_Triangle_Chess_1.jpg,Green_Star_Dots_3.jpg,right,766.6649999991059,false,low,NA,NA,NA,NA,NA,NA,NA,false
QOxAIzWz,30oitawpctgn4gcs6h6m71vz0jeh92,36w0ob37h0r4xrsz1h5n99tks53zh6,QOxAIzWz,2020-0188,2020-11-19,21:28:42,21:47:29,NA,incomplete,125,shape,1,left,Red_Circle_Chess_4.jpg,Blue_Circle_Dots_1.jpg,Purple_Plus_Grid_4.jpg,right,992.135000000475,false,low,NA,NA,NA,NA,NA,NA,NA,false
QOxAIzWz,30oitawpctgn4gcs6h6m71vz0jeh92,36w0ob37h0r4xrsz1h5n99tks53zh6,QOxAIzWz,2020-0188,2020-11-19,21:28:42,21:47:29,NA,incomplete,126,shape,0,left,Blue_Circle_Grid_1.jpg,Red_Circle_Dots_3.jpg,Purple_Triangle_Chess_1.jpg,left,1328.900000000489,true,low,NA,NA,NA,NA,NA,NA,NA,false
QOxAIzWz,30oitawpctgn4gcs6h6m71vz0jeh92,36w0ob37h0r4xrsz1h5n99tks53zh6,QOxAIzWz,2020-0188,2020-11-19,21:28:42,21:47:29,NA,incomplete,127,shape,1,left,Blue_Star_Chess_2.jpg,Green_Star_Dots_3.jpg,Purple_Triangle_Grid_2.jpg,right,939.7549999994226,false,low,NA,NA,NA,NA,NA,NA,NA,false
QOxAIzWz,30oitawpctgn4gcs6h6m71vz0jeh92,36w0ob37h0r4xrsz1h5n99tks53zh6,QOxAIzWz,2020-0188,2020-11-19,21:28:42,21:47:29,NA,incomplete,128,shape,1,left,Green_Circle_Grid_3.jpg,Red_Circle_Stripes_4.jpg,Blue_Plus_Dots_3.jpg,left,1041.5900000007823,true,low,NA,NA,NA,NA,NA,NA,NA,false
QOxAIzWz,30oitawpctgn4gcs6h6m71vz0jeh92,36w0ob37h0r4xrsz1h5n99tks53zh6,QOxAIzWz,2020-0188,2020-11-19,21:28:42,21:47:29,NA,incomplete,129,shape,0,right,Green_Star_Grid_2.jpg,Purple_Triangle_Dots_2.jpg,Red_Star_Stripes_3.jpg,left,969.7549999982584,false,low,NA,NA,NA,NA,NA,NA,NA,false
QOxAIzWz,30oitawpctgn4gcs6h6m71vz0jeh92,36w0ob37h0r4xrsz1h5n99tks53zh6,QOxAIzWz,2020-0188,2020-11-19,21:28:42,21:47:29,NA,incomplete,130,shape,1,left,Red_Circle_Grid_3.jpg,Purple_Circle_Chess_2.jpg,Blue_Triangle_Dots_3.jpg,right,909.9999999997672,false,low,NA,NA,NA,NA,NA,NA,NA,false
QOxAIzWz,30oitawpctgn4gcs6h6m71vz0jeh92,36w0ob37h0r4xrsz1h5n99tks53zh6,QOxAIzWz,2020-0188,2020-11-19,21:28:42,21:47:29,NA,incomplete,131,shape,1,left,Blue_Plus_Stripes_2.jpg,Green_Plus_Dots_3.jpg,Purple_Star_Chess_2.jpg,left,940.9349999987753,true,low,NA,NA,NA,NA,NA,NA,NA,false
QOxAIzWz,30oitawpctgn4gcs6h6m71vz0jeh92,36w0ob37h0r4xrsz1h5n99tks53zh6,QOxAIzWz,2020-0188,2020-11-19,21:28:42,21:47:29,NA,incomplete,132,shape,1,left,Red_Triangle_Grid_1.jpg,Purple_Triangle_Stripes_2.jpg,Blue_Circle_Chess_1.jpg,left,1096.7649999983842,true,low,NA,NA,NA,NA,NA,NA,NA,false
QOxAIzWz,30oitawpctgn4gcs6h6m71vz0jeh92,36w0ob37h0r4xrsz1h5n99tks53zh6,QOxAIzWz,2020-0188,2020-11-19,21:28:42,21:47:29,NA,incomplete,133,shape,1,left,Green_Triangle_Chess_2.jpg,Blue_Triangle_Dots_3.jpg,Red_Circle_Stripes_2.jpg,left,838.7900000016671,true,low,NA,NA,NA,NA,NA,NA,NA,false
QOxAIzWz,30oitawpctgn4gcs6h6m71vz0jeh92,36w0ob37h0r4xrsz1h5n99tks53zh6,QOxAIzWz,2020-0188,2020-11-19,21:28:42,21:47:29,NA,incomplete,134,shape,0,left,Red_Triangle_Chess_4.jpg,Green_Triangle_Dots_2.jpg,Blue_Star_Stripes_4.jpg,left,856.9600000008941,true,low,NA,NA,NA,NA,NA,NA,NA,false
QOxAIzWz,30oitawpctgn4gcs6h6m71vz0jeh92,36w0ob37h0r4xrsz1h5n99tks53zh6,QOxAIzWz,2020-0188,2020-11-19,21:28:42,21:47:29,NA,incomplete,135,shape,1,left,Blue_Plus_Chess_4.jpg,Purple_Plus_Dots_3.jpg,Green_Star_Stripes_4.jpg,left,992.6999999987893,true,low,NA,NA,NA,NA,NA,NA,NA,false
QOxAIzWz,30oitawpctgn4gcs6h6m71vz0jeh92,36w0ob37h0r4xrsz1h5n99tks53zh6,QOxAIzWz,2020-0188,2020-11-19,21:28:42,21:47:29,NA,incomplete,136,shape,1,right,Red_Plus_Grid_3.jpg,Blue_Triangle_Stripes_3.jpg,Green_Plus_Dots_1.jpg,right,1020.6849999994738,true,low,NA,NA,NA,NA,NA,NA,NA,false
QOxAIzWz,30oitawpctgn4gcs6h6m71vz0jeh92,36w0ob37h0r4xrsz1h5n99tks53zh6,QOxAIzWz,2020-0188,2020-11-19,21:28:42,21:47:29,NA,incomplete,137,shape,1,left,Purple_Triangle_Chess_1.jpg,Red_Triangle_Stripes_4.jpg,Blue_Circle_Grid_1.jpg,left,1048.6550000022398,true,low,NA,NA,NA,NA,NA,NA,NA,false
QOxAIzWz,30oitawpctgn4gcs6h6m71vz0jeh92,36w0ob37h0r4xrsz1h5n99tks53zh6,QOxAIzWz,2020-0188,2020-11-19,21:28:42,21:47:29,NA,incomplete,138,shape,1,right,Purple_Star_Dots_2.jpg,Red_Plus_Chess_2.jpg,Blue_Star_Stripes_3.jpg,right,958.6899999994785,true,low,NA,NA,NA,NA,NA,NA,NA,false
QOxAIzWz,30oitawpctgn4gcs6h6m71vz0jeh92,36w0ob37h0r4xrsz1h5n99tks53zh6,QOxAIzWz,2020-0188,2020-11-19,21:28:42,21:47:29,NA,incomplete,139,shape,0,left,Green_Plus_Dots_4.jpg,Blue_Plus_Chess_3.jpg,Purple_Star_Stripes_4.jpg,left,1081.6799999992363,true,low,NA,NA,NA,NA,NA,NA,NA,false
QOxAIzWz,30oitawpctgn4gcs6h6m71vz0jeh92,36w0ob37h0r4xrsz1h5n99tks53zh6,QOxAIzWz,2020-0188,2020-11-19,21:28:42,21:47:29,NA,incomplete,140,number,1,left,Green_Triangle_Stripes_1.jpg,Blue_Star_Grid_1.jpg,Purple_Triangle_Chess_4.jpg,right,1089.3100000030827,false,low,NA,NA,NA,NA,NA,NA,NA,false
QOxAIzWz,30oitawpctgn4gcs6h6m71vz0jeh92,36w0ob37h0r4xrsz1h5n99tks53zh6,QOxAIzWz,2020-0188,2020-11-19,21:28:42,21:47:29,NA,incomplete,141,number,0,left,Purple_Star_Grid_4.jpg,Red_Circle_Dots_4.jpg,Blue_Star_Stripes_3.jpg,left,984.2650000026915,true,low,NA,NA,NA,NA,NA,NA,NA,false
QOxAIzWz,30oitawpctgn4gcs6h6m71vz0jeh92,36w0ob37h0r4xrsz1h5n99tks53zh6,QOxAIzWz,2020-0188,2020-11-19,21:28:42,21:47:29,NA,incomplete,142,number,1,left,Red_Star_Dots_3.jpg,Purple_Plus_Chess_3.jpg,Blue_Star_Grid_1.jpg,right,1204.0400000006193,false,low,NA,NA,NA,NA,NA,NA,NA,false
QOxAIzWz,30oitawpctgn4gcs6h6m71vz0jeh92,36w0ob37h0r4xrsz1h5n99tks53zh6,QOxAIzWz,2020-0188,2020-11-19,21:28:42,21:47:29,NA,incomplete,143,number,1,left,Green_Triangle_Chess_4.jpg,Blue_Plus_Grid_4.jpg,Purple_Triangle_Stripes_1.jpg,right,853.865000000922,false,low,NA,NA,NA,NA,NA,NA,NA,false
QOxAIzWz,30oitawpctgn4gcs6h6m71vz0jeh92,36w0ob37h0r4xrsz1h5n99tks53zh6,QOxAIzWz,2020-0188,2020-11-19,21:28:42,21:47:29,NA,incomplete,144,number,1,left,Blue_Star_Dots_3.jpg,Red_Plus_Stripes_3.jpg,Green_Star_Chess_1.jpg,right,1240.009999997681,false,low,NA,NA,NA,NA,NA,NA,NA,false
QOxAIzWz,30oitawpctgn4gcs6h6m71vz0jeh92,36w0ob37h0r4xrsz1h5n99tks53zh6,QOxAIzWz,2020-0188,2020-11-19,21:28:42,21:47:29,NA,incomplete,145,number,1,right,Purple_Triangle_Stripes_2.jpg,Red_Triangle_Dots_3.jpg,Green_Circle_Chess_2.jpg,left,782.05000000156,false,low,NA,NA,NA,NA,NA,NA,NA,false
QOxAIzWz,30oitawpctgn4gcs6h6m71vz0jeh92,36w0ob37h0r4xrsz1h5n99tks53zh6,QOxAIzWz,2020-0188,2020-11-19,21:28:42,21:47:29,NA,incomplete,146,number,1,right,Green_Plus_Grid_2.jpg,Blue_Plus_Stripes_1.jpg,Purple_Triangle_Dots_2.jpg,right,811.3300000004238,true,low,NA,NA,NA,NA,NA,NA,NA,false
QOxAIzWz,30oitawpctgn4gcs6h6m71vz0jeh92,36w0ob37h0r4xrsz1h5n99tks53zh6,QOxAIzWz,2020-0188,2020-11-19,21:28:42,21:47:29,NA,incomplete,147,number,1,right,Red_Triangle_Dots_1.jpg,Green_Triangle_Stripes_3.jpg,Purple_Circle_Chess_1.jpg,right,749.6549999995623,true,low,NA,NA,NA,NA,NA,NA,NA,false
QOxAIzWz,30oitawpctgn4gcs6h6m71vz0jeh92,36w0ob37h0r4xrsz1h5n99tks53zh6,QOxAIzWz,2020-0188,2020-11-19,21:28:42,21:47:29,NA,incomplete,148,number,1,right,Blue_Star_Grid_2.jpg,Red_Star_Stripes_4.jpg,Green_Circle_Dots_2.jpg,right,676.3099999988917,true,low,NA,NA,NA,NA,NA,NA,NA,false
QOxAIzWz,30oitawpctgn4gcs6h6m71vz0jeh92,36w0ob37h0r4xrsz1h5n99tks53zh6,QOxAIzWz,2020-0188,2020-11-19,21:28:42,21:47:29,NA,incomplete,149,number,1,right,Red_Plus_Dots_2.jpg,Purple_Plus_Stripes_3.jpg,Green_Triangle_Chess_2.jpg,right,581.0050000000047,true,low,NA,NA,NA,NA,NA,NA,NA,false
QOxAIzWz,30oitawpctgn4gcs6h6m71vz0jeh92,36w0ob37h0r4xrsz1h5n99tks53zh6,QOxAIzWz,2020-0188,2020-11-19,21:28:42,21:47:29,NA,incomplete,150,number,0,right,Red_Circle_Chess_4.jpg,Purple_Circle_Stripes_3.jpg,Green_Triangle_Dots_4.jpg,right,688.7150000002002,true,low,NA,NA,NA,NA,NA,NA,NA,false
QOxAIzWz,30oitawpctgn4gcs6h6m71vz0jeh92,36w0ob37h0r4xrsz1h5n99tks53zh6,QOxAIzWz,2020-0188,2020-11-19,21:28:42,21:47:29,NA,incomplete,151,number,1,right,Purple_Star_Dots_3.jpg,Red_Star_Grid_2.jpg,Blue_Triangle_Chess_3.jpg,right,888.4749999997439,true,low,NA,NA,NA,NA,NA,NA,NA,false
QOxAIzWz,30oitawpctgn4gcs6h6m71vz0jeh92,36w0ob37h0r4xrsz1h5n99tks53zh6,QOxAIzWz,2020-0188,2020-11-19,21:28:42,21:47:29,NA,incomplete,152,number,0,right,Green_Plus_Stripes_1.jpg,Red_Plus_Grid_3.jpg,Blue_Circle_Dots_1.jpg,right,1167.6899999984307,true,low,NA,NA,NA,NA,NA,NA,NA,false
QOxAIzWz,30oitawpctgn4gcs6h6m71vz0jeh92,36w0ob37h0r4xrsz1h5n99tks53zh6,QOxAIzWz,2020-0188,2020-11-19,21:28:42,21:47:29,NA,incomplete,153,number,1,left,Red_Triangle_Dots_4.jpg,Purple_Plus_Chess_4.jpg,Blue_Triangle_Grid_2.jpg,right,1172.3050000000512,false,low,NA,NA,NA,NA,NA,NA,NA,false
QOxAIzWz,30oitawpctgn4gcs6h6m71vz0jeh92,36w0ob37h0r4xrsz1h5n99tks53zh6,QOxAIzWz,2020-0188,2020-11-19,21:28:42,21:47:29,NA,incomplete,154,number,1,left,Green_Star_Grid_2.jpg,Blue_Circle_Chess_2.jpg,Red_Star_Stripes_4.jpg,left,1048.2599999995437,true,low,NA,NA,NA,NA,NA,NA,NA,false
QOxAIzWz,30oitawpctgn4gcs6h6m71vz0jeh92,36w0ob37h0r4xrsz1h5n99tks53zh6,QOxAIzWz,2020-0188,2020-11-19,21:28:42,21:47:29,NA,incomplete,155,number,1,right,Purple_Plus_Stripes_1.jpg,Blue_Plus_Dots_4.jpg,Red_Circle_Chess_1.jpg,right,911.5399999973597,true,low,NA,NA,NA,NA,NA,NA,NA,false
QOxAIzWz,30oitawpctgn4gcs6h6m71vz0jeh92,36w0ob37h0r4xrsz1h5n99tks53zh6,QOxAIzWz,2020-0188,2020-11-19,21:28:42,21:47:29,NA,incomplete,156,number,1,right,Purple_Circle_Dots_2.jpg,Green_Circle_Grid_1.jpg,Blue_Star_Stripes_2.jpg,right,869.9600000000792,true,low,NA,NA,NA,NA,NA,NA,NA,false
QOxAIzWz,30oitawpctgn4gcs6h6m71vz0jeh92,36w0ob37h0r4xrsz1h5n99tks53zh6,QOxAIzWz,2020-0188,2020-11-19,21:28:42,21:47:29,NA,incomplete,157,number,1,right,Green_Plus_Stripes_1.jpg,Blue_Plus_Chess_3.jpg,Red_Circle_Grid_1.jpg,right,726.5700000025099,true,low,NA,NA,NA,NA,NA,NA,NA,false
QOxAIzWz,30oitawpctgn4gcs6h6m71vz0jeh92,36w0ob37h0r4xrsz1h5n99tks53zh6,QOxAIzWz,2020-0188,2020-11-19,21:28:42,21:47:29,NA,incomplete,158,number,0,right,Green_Triangle_Chess_3.jpg,Purple_Triangle_Dots_1.jpg,Red_Plus_Grid_3.jpg,right,805.1149999991758,true,low,NA,NA,NA,NA,NA,NA,NA,false
QOxAIzWz,30oitawpctgn4gcs6h6m71vz0jeh92,36w0ob37h0r4xrsz1h5n99tks53zh6,QOxAIzWz,2020-0188,2020-11-19,21:28:42,21:47:29,NA,incomplete,159,number,1,left,Blue_Star_Stripes_4.jpg,Green_Plus_Dots_4.jpg,Purple_Star_Chess_1.jpg,left,991.9750000007916,true,low,NA,NA,NA,NA,NA,NA,NA,false
QOxAIzWz,30oitawpctgn4gcs6h6m71vz0jeh92,36w0ob37h0r4xrsz1h5n99tks53zh6,QOxAIzWz,2020-0188,2020-11-19,21:28:42,21:47:29,NA,incomplete,160,shape,1,left,Blue_Plus_Grid_3.jpg,Green_Plus_Dots_4.jpg,Purple_Circle_Chess_3.jpg,right,1146.5499999976018,false,low,NA,NA,NA,NA,NA,NA,NA,false
QOxAIzWz,30oitawpctgn4gcs6h6m71vz0jeh92,36w0ob37h0r4xrsz1h5n99tks53zh6,QOxAIzWz,2020-0188,2020-11-19,21:28:42,21:47:29,NA,incomplete,161,shape,1,right,Purple_Circle_Stripes_4.jpg,Green_Star_Grid_4.jpg,Blue_Circle_Chess_3.jpg,left,1017.7800000018906,false,low,NA,NA,NA,NA,NA,NA,NA,false
QOxAIzWz,30oitawpctgn4gcs6h6m71vz0jeh92,36w0ob37h0r4xrsz1h5n99tks53zh6,QOxAIzWz,2020-0188,2020-11-19,21:28:42,21:47:29,NA,incomplete,162,shape,1,right,Green_Plus_Grid_2.jpg,Blue_Circle_Dots_2.jpg,Purple_Plus_Chess_1.jpg,right,775.835000000312,true,low,NA,NA,NA,NA,NA,NA,NA,false
QOxAIzWz,30oitawpctgn4gcs6h6m71vz0jeh92,36w0ob37h0r4xrsz1h5n99tks53zh6,QOxAIzWz,2020-0188,2020-11-19,21:28:42,21:47:29,NA,incomplete,163,shape,1,left,Red_Circle_Stripes_4.jpg,Purple_Circle_Dots_3.jpg,Blue_Plus_Chess_4.jpg,left,1212.43500000122,true,low,NA,NA,NA,NA,NA,NA,NA,false
QOxAIzWz,30oitawpctgn4gcs6h6m71vz0jeh92,36w0ob37h0r4xrsz1h5n99tks53zh6,QOxAIzWz,2020-0188,2020-11-19,21:28:42,21:47:29,NA,incomplete,164,shape,0,left,Red_Circle_Chess_4.jpg,Green_Circle_Stripes_1.jpg,Purple_Plus_Dots_4.jpg,left,805.65999999817,true,low,NA,NA,NA,NA,NA,NA,NA,false
QOxAIzWz,30oitawpctgn4gcs6h6m71vz0jeh92,36w0ob37h0r4xrsz1h5n99tks53zh6,QOxAIzWz,2020-0188,2020-11-19,21:28:42,21:47:29,NA,incomplete,165,shape,1,right,Blue_Circle_Chess_1.jpg,Red_Triangle_Grid_1.jpg,Green_Circle_Stripes_3.jpg,right,927.1200000002282,true,low,NA,NA,NA,NA,NA,NA,NA,false
QOxAIzWz,30oitawpctgn4gcs6h6m71vz0jeh92,36w0ob37h0r4xrsz1h5n99tks53zh6,QOxAIzWz,2020-0188,2020-11-19,21:28:42,21:47:29,NA,incomplete,166,shape,1,right,Blue_Triangle_Grid_2.jpg,Purple_Plus_Chess_2.jpg,Red_Triangle_Stripes_1.jpg,right,709.4750000033528,true,low,NA,NA,NA,NA,NA,NA,NA,false
QOxAIzWz,30oitawpctgn4gcs6h6m71vz0jeh92,36w0ob37h0r4xrsz1h5n99tks53zh6,QOxAIzWz,2020-0188,2020-11-19,21:28:42,21:47:29,NA,incomplete,167,shape,1,right,Red_Triangle_Dots_2.jpg,Green_Circle_Chess_2.jpg,Blue_Triangle_Grid_4.jpg,right,757.2700000018813,true,low,NA,NA,NA,NA,NA,NA,NA,false
QOxAIzWz,30oitawpctgn4gcs6h6m71vz0jeh92,36w0ob37h0r4xrsz1h5n99tks53zh6,QOxAIzWz,2020-0188,2020-11-19,21:28:42,21:47:29,NA,incomplete,168,shape,1,right,Purple_Star_Chess_4.jpg,Green_Triangle_Stripes_4.jpg,Blue_Star_Dots_3.jpg,left,969.9499999987893,false,low,NA,NA,NA,NA,NA,NA,NA,false
QOxAIzWz,30oitawpctgn4gcs6h6m71vz0jeh92,36w0ob37h0r4xrsz1h5n99tks53zh6,QOxAIzWz,2020-0188,2020-11-19,21:28:42,21:47:29,NA,incomplete,169,shape,1,left,Blue_Plus_Grid_3.jpg,Green_Plus_Chess_2.jpg,Red_Star_Dots_3.jpg,left,1211.650000001071,true,low,NA,NA,NA,NA,NA,NA,NA,false
QOxAIzWz,30oitawpctgn4gcs6h6m71vz0jeh92,36w0ob37h0r4xrsz1h5n99tks53zh6,QOxAIzWz,2020-0188,2020-11-19,21:28:42,21:47:29,NA,incomplete,170,shape,1,left,Green_Plus_Stripes_3.jpg,Red_Plus_Dots_1.jpg,Purple_Circle_Grid_3.jpg,right,934.7250000028871,false,low,NA,NA,NA,NA,NA,NA,NA,false
QOxAIzWz,30oitawpctgn4gcs6h6m71vz0jeh92,36w0ob37h0r4xrsz1h5n99tks53zh6,QOxAIzWz,2020-0188,2020-11-19,21:28:42,21:47:29,NA,incomplete,171,shape,0,right,Red_Plus_Grid_4.jpg,Purple_Circle_Dots_4.jpg,Blue_Plus_Chess_1.jpg,left,844.9150000014342,false,low,NA,NA,NA,NA,NA,NA,NA,false
QOxAIzWz,30oitawpctgn4gcs6h6m71vz0jeh92,36w0ob37h0r4xrsz1h5n99tks53zh6,QOxAIzWz,2020-0188,2020-11-19,21:28:42,21:47:29,NA,incomplete,172,shape,1,left,Purple_Triangle_Chess_1.jpg,Green_Triangle_Stripes_2.jpg,Red_Plus_Dots_1.jpg,left,773.5450000000419,true,low,NA,NA,NA,NA,NA,NA,NA,false
QOxAIzWz,30oitawpctgn4gcs6h6m71vz0jeh92,36w0ob37h0r4xrsz1h5n99tks53zh6,QOxAIzWz,2020-0188,2020-11-19,21:28:42,21:47:29,NA,incomplete,173,shape,1,left,Purple_Triangle_Stripes_2.jpg,Blue_Triangle_Chess_1.jpg,Red_Star_Grid_2.jpg,left,850.9799999992829,true,low,NA,NA,NA,NA,NA,NA,NA,false
QOxAIzWz,30oitawpctgn4gcs6h6m71vz0jeh92,36w0ob37h0r4xrsz1h5n99tks53zh6,QOxAIzWz,2020-0188,2020-11-19,21:28:42,21:47:29,NA,incomplete,174,shape,0,right,Blue_Plus_Dots_3.jpg,Green_Circle_Grid_3.jpg,Purple_Plus_Chess_1.jpg,right,971.4750000020722,true,low,NA,NA,NA,NA,NA,NA,NA,false
QOxAIzWz,30oitawpctgn4gcs6h6m71vz0jeh92,36w0ob37h0r4xrsz1h5n99tks53zh6,QOxAIzWz,2020-0188,2020-11-19,21:28:42,21:47:29,NA,incomplete,175,shape,1,left,Green_Triangle_Stripes_1.jpg,Blue_Triangle_Chess_2.jpg,Purple_Star_Grid_1.jpg,left,806.2300000019604,true,low,NA,NA,NA,NA,NA,NA,NA,false
QOxAIzWz,30oitawpctgn4gcs6h6m71vz0jeh92,36w0ob37h0r4xrsz1h5n99tks53zh6,QOxAIzWz,2020-0188,2020-11-19,21:28:42,21:47:29,NA,incomplete,176,shape,1,right,Green_Triangle_Stripes_4.jpg,Blue_Plus_Grid_4.jpg,Red_Triangle_Dots_2.jpg,right,642.8399999967078,true,low,NA,NA,NA,NA,NA,NA,NA,false
QOxAIzWz,30oitawpctgn4gcs6h6m71vz0jeh92,36w0ob37h0r4xrsz1h5n99tks53zh6,QOxAIzWz,2020-0188,2020-11-19,21:28:42,21:47:29,NA,incomplete,177,shape,1,right,Purple_Triangle_Stripes_1.jpg,Red_Circle_Dots_1.jpg,Blue_Triangle_Chess_2.jpg,right,764.0400000017835,true,low,NA,NA,NA,NA,NA,NA,NA,false
QOxAIzWz,30oitawpctgn4gcs6h6m71vz0jeh92,36w0ob37h0r4xrsz1h5n99tks53zh6,QOxAIzWz,2020-0188,2020-11-19,21:28:42,21:47:29,NA,incomplete,178,shape,1,right,Red_Star_Stripes_2.jpg,Blue_Plus_Chess_2.jpg,Green_Star_Dots_4.jpg,right,1137.4699999978766,true,low,NA,NA,NA,NA,NA,NA,NA,false
QOxAIzWz,30oitawpctgn4gcs6h6m71vz0jeh92,36w0ob37h0r4xrsz1h5n99tks53zh6,QOxAIzWz,2020-0188,2020-11-19,21:28:42,21:47:29,NA,incomplete,179,shape,1,left,Green_Star_Chess_4.jpg,Blue_Star_Dots_3.jpg,Purple_Triangle_Grid_4.jpg,left,1141.7950000031851,true,low,NA,NA,NA,NA,NA,NA,NA,false
QOxAIzWz,30oitawpctgn4gcs6h6m71vz0jeh92,36w0ob37h0r4xrsz1h5n99tks53zh6,QOxAIzWz,2020-0188,2020-11-19,21:28:42,21:47:29,NA,incomplete,180,number,1,right,Green_Star_Chess_2.jpg,Purple_Star_Dots_4.jpg,Blue_Triangle_Grid_2.jpg,left,963.3350000004284,false,low,NA,NA,NA,NA,NA,NA,NA,false
QOxAIzWz,30oitawpctgn4gcs6h6m71vz0jeh92,36w0ob37h0r4xrsz1h5n99tks53zh6,QOxAIzWz,2020-0188,2020-11-19,21:28:42,21:47:29,NA,incomplete,181,number,0,left,Blue_Plus_Chess_1.jpg,Green_Star_Stripes_1.jpg,Red_Plus_Dots_2.jpg,right,813.255000000936,false,low,NA,NA,NA,NA,NA,NA,NA,false
QOxAIzWz,30oitawpctgn4gcs6h6m71vz0jeh92,36w0ob37h0r4xrsz1h5n99tks53zh6,QOxAIzWz,2020-0188,2020-11-19,21:28:42,21:47:29,NA,incomplete,182,number,1,right,Purple_Plus_Grid_3.jpg,Blue_Plus_Chess_1.jpg,Red_Star_Dots_3.jpg,left,976.8149999980815,false,low,NA,NA,NA,NA,NA,NA,NA,false
QOxAIzWz,30oitawpctgn4gcs6h6m71vz0jeh92,36w0ob37h0r4xrsz1h5n99tks53zh6,QOxAIzWz,2020-0188,2020-11-19,21:28:42,21:47:29,NA,incomplete,183,number,0,left,Red_Plus_Dots_1.jpg,Blue_Triangle_Chess_1.jpg,Purple_Plus_Grid_2.jpg,right,645.27000000095,false,low,NA,NA,NA,NA,NA,NA,NA,false
QOxAIzWz,30oitawpctgn4gcs6h6m71vz0jeh92,36w0ob37h0r4xrsz1h5n99tks53zh6,QOxAIzWz,2020-0188,2020-11-19,21:28:42,21:47:29,NA,incomplete,184,number,1,right,Blue_Triangle_Dots_4.jpg,Red_Triangle_Grid_2.jpg,Purple_Circle_Chess_4.jpg,left,1141.6000000026543,false,low,NA,NA,NA,NA,NA,NA,NA,false
QOxAIzWz,30oitawpctgn4gcs6h6m71vz0jeh92,36w0ob37h0r4xrsz1h5n99tks53zh6,QOxAIzWz,2020-0188,2020-11-19,21:28:42,21:47:29,NA,incomplete,185,number,1,left,Purple_Triangle_Stripes_2.jpg,Green_Plus_Dots_2.jpg,Blue_Triangle_Grid_3.jpg,right,624.9199999982957,false,low,NA,NA,NA,NA,NA,NA,NA,false
QOxAIzWz,30oitawpctgn4gcs6h6m71vz0jeh92,36w0ob37h0r4xrsz1h5n99tks53zh6,QOxAIzWz,2020-0188,2020-11-19,21:28:42,21:47:29,NA,incomplete,186,number,1,left,Blue_Star_Stripes_4.jpg,Red_Circle_Dots_4.jpg,Green_Star_Chess_3.jpg,left,789.4500000003027,true,low,NA,NA,NA,NA,NA,NA,NA,false
QOxAIzWz,30oitawpctgn4gcs6h6m71vz0jeh92,36w0ob37h0r4xrsz1h5n99tks53zh6,QOxAIzWz,2020-0188,2020-11-19,21:28:42,21:47:29,NA,incomplete,187,number,0,left,Purple_Plus_Grid_2.jpg,Blue_Star_Dots_2.jpg,Red_Plus_Chess_1.jpg,left,809.4700000002049,true,low,NA,NA,NA,NA,NA,NA,NA,false
QOxAIzWz,30oitawpctgn4gcs6h6m71vz0jeh92,36w0ob37h0r4xrsz1h5n99tks53zh6,QOxAIzWz,2020-0188,2020-11-19,21:28:42,21:47:29,NA,incomplete,188,number,1,left,Purple_Plus_Grid_4.jpg,Red_Star_Stripes_4.jpg,Green_Plus_Dots_1.jpg,right,1083.3649999985937,false,low,NA,NA,NA,NA,NA,NA,NA,false
QOxAIzWz,30oitawpctgn4gcs6h6m71vz0jeh92,36w0ob37h0r4xrsz1h5n99tks53zh6,QOxAIzWz,2020-0188,2020-11-19,21:28:42,21:47:29,NA,incomplete,189,number,1,right,Red_Star_Dots_1.jpg,Blue_Star_Grid_4.jpg,Purple_Triangle_Stripes_1.jpg,right,883.1749999989988,true,low,NA,NA,NA,NA,NA,NA,NA,false
QOxAIzWz,30oitawpctgn4gcs6h6m71vz0jeh92,36w0ob37h0r4xrsz1h5n99tks53zh6,QOxAIzWz,2020-0188,2020-11-19,21:28:42,21:47:29,NA,incomplete,190,number,1,left,Red_Star_Dots_4.jpg,Blue_Triangle_Stripes_4.jpg,Purple_Star_Chess_2.jpg,left,865.9049999987474,true,low,NA,NA,NA,NA,NA,NA,NA,false
QOxAIzWz,30oitawpctgn4gcs6h6m71vz0jeh92,36w0ob37h0r4xrsz1h5n99tks53zh6,QOxAIzWz,2020-0188,2020-11-19,21:28:42,21:47:29,NA,incomplete,191,number,1,right,Purple_Circle_Grid_1.jpg,Green_Circle_Stripes_3.jpg,Red_Triangle_Dots_1.jpg,right,899.2599999982631,true,low,NA,NA,NA,NA,NA,NA,NA,false
QOxAIzWz,30oitawpctgn4gcs6h6m71vz0jeh92,36w0ob37h0r4xrsz1h5n99tks53zh6,QOxAIzWz,2020-0188,2020-11-19,21:28:42,21:47:29,NA,incomplete,192,number,1,left,Red_Circle_Stripes_3.jpg,Blue_Triangle_Chess_3.jpg,Purple_Circle_Dots_2.jpg,right,1043.0999999990454,false,low,NA,NA,NA,NA,NA,NA,NA,false
QOxAIzWz,30oitawpctgn4gcs6h6m71vz0jeh92,36w0ob37h0r4xrsz1h5n99tks53zh6,QOxAIzWz,2020-0188,2020-11-19,21:28:42,21:47:29,NA,incomplete,193,number,1,right,Red_Triangle_Stripes_1.jpg,Purple_Triangle_Grid_3.jpg,Green_Plus_Dots_1.jpg,right,707.4599999978673,true,low,NA,NA,NA,NA,NA,NA,NA,false
QOxAIzWz,30oitawpctgn4gcs6h6m71vz0jeh92,36w0ob37h0r4xrsz1h5n99tks53zh6,QOxAIzWz,2020-0188,2020-11-19,21:28:42,21:47:29,NA,incomplete,194,number,1,left,Red_Triangle_Grid_4.jpg,Green_Circle_Stripes_4.jpg,Blue_Triangle_Chess_3.jpg,left,1018.5099999980303,true,low,NA,NA,NA,NA,NA,NA,NA,false
QOxAIzWz,30oitawpctgn4gcs6h6m71vz0jeh92,36w0ob37h0r4xrsz1h5n99tks53zh6,QOxAIzWz,2020-0188,2020-11-19,21:28:42,21:47:29,NA,incomplete,195,number,1,left,Green_Circle_Dots_1.jpg,Blue_Star_Stripes_1.jpg,Purple_Circle_Grid_4.jpg,right,941.0800000005402,false,low,NA,NA,NA,NA,NA,NA,NA,false
QOxAIzWz,30oitawpctgn4gcs6h6m71vz0jeh92,36w0ob37h0r4xrsz1h5n99tks53zh6,QOxAIzWz,2020-0188,2020-11-19,21:28:42,21:47:29,NA,incomplete,196,number,1,left,Blue_Plus_Chess_4.jpg,Purple_Circle_Grid_4.jpg,Green_Plus_Dots_2.jpg,left,1169.2600000023376,true,low,NA,NA,NA,NA,NA,NA,NA,false
QOxAIzWz,30oitawpctgn4gcs6h6m71vz0jeh92,36w0ob37h0r4xrsz1h5n99tks53zh6,QOxAIzWz,2020-0188,2020-11-19,21:28:42,21:47:29,NA,incomplete,197,number,1,left,Red_Plus_Chess_2.jpg,Green_Star_Stripes_2.jpg,Blue_Plus_Dots_3.jpg,left,1028.5650000005262,true,low,NA,NA,NA,NA,NA,NA,NA,false
QOxAIzWz,30oitawpctgn4gcs6h6m71vz0jeh92,36w0ob37h0r4xrsz1h5n99tks53zh6,QOxAIzWz,2020-0188,2020-11-19,21:28:42,21:47:29,NA,incomplete,198,number,1,right,Green_Star_Stripes_1.jpg,Red_Star_Dots_2.jpg,Blue_Triangle_Chess_1.jpg,right,717.6400000025751,true,low,NA,NA,NA,NA,NA,NA,NA,false
QOxAIzWz,30oitawpctgn4gcs6h6m71vz0jeh92,36w0ob37h0r4xrsz1h5n99tks53zh6,QOxAIzWz,2020-0188,2020-11-19,21:28:42,21:47:29,NA,incomplete,199,number,1,right,Purple_Plus_Grid_3.jpg,Green_Plus_Stripes_1.jpg,Red_Star_Chess_3.jpg,right,749.0699999980861,true,low,NA,NA,NA,NA,NA,NA,NA,false
QOxAIzWz,30oitawpctgn4gcs6h6m71vz0jeh92,36w0ob37h0r4xrsz1h5n99tks53zh6,QOxAIzWz,2020-0188,2020-11-19,21:28:42,21:47:29,NA,incomplete,200,shape,1,left,Blue_Star_Stripes_3.jpg,Red_Star_Chess_1.jpg,Purple_Triangle_Grid_3.jpg,right,754.5949999985751,false,low,NA,NA,NA,NA,NA,NA,NA,false
QOxAIzWz,30oitawpctgn4gcs6h6m71vz0jeh92,36w0ob37h0r4xrsz1h5n99tks53zh6,QOxAIzWz,2020-0188,2020-11-19,21:28:42,21:47:29,NA,incomplete,201,shape,1,right,Blue_Circle_Grid_2.jpg,Purple_Plus_Dots_2.jpg,Green_Circle_Chess_3.jpg,left,913.0149999982677,false,low,NA,NA,NA,NA,NA,NA,NA,false
QOxAIzWz,30oitawpctgn4gcs6h6m71vz0jeh92,36w0ob37h0r4xrsz1h5n99tks53zh6,QOxAIzWz,2020-0188,2020-11-19,21:28:42,21:47:29,NA,incomplete,202,shape,1,right,Blue_Circle_Dots_2.jpg,Purple_Plus_Stripes_2.jpg,Green_Circle_Chess_1.jpg,right,606.3950000025798,true,low,NA,NA,NA,NA,NA,NA,NA,false
QOxAIzWz,30oitawpctgn4gcs6h6m71vz0jeh92,36w0ob37h0r4xrsz1h5n99tks53zh6,QOxAIzWz,2020-0188,2020-11-19,21:28:42,21:47:29,NA,incomplete,203,shape,1,right,Green_Triangle_Grid_2.jpg,Purple_Plus_Chess_2.jpg,Red_Triangle_Stripes_3.jpg,left,1026.3000000013271,false,low,NA,NA,NA,NA,NA,NA,NA,false
QOxAIzWz,30oitawpctgn4gcs6h6m71vz0jeh92,36w0ob37h0r4xrsz1h5n99tks53zh6,QOxAIzWz,2020-0188,2020-11-19,21:28:42,21:47:29,NA,incomplete,204,shape,1,left,Red_Circle_Stripes_2.jpg,Green_Circle_Dots_3.jpg,Blue_Star_Chess_2.jpg,left,879.9299999991199,true,low,NA,NA,NA,NA,NA,NA,NA,false
QOxAIzWz,30oitawpctgn4gcs6h6m71vz0jeh92,36w0ob37h0r4xrsz1h5n99tks53zh6,QOxAIzWz,2020-0188,2020-11-19,21:28:42,21:47:29,NA,incomplete,205,shape,0,right,Red_Plus_Stripes_3.jpg,Purple_Triangle_Chess_3.jpg,Blue_Plus_Grid_2.jpg,right,835.770000001532,true,low,NA,NA,NA,NA,NA,NA,NA,false
QOxAIzWz,30oitawpctgn4gcs6h6m71vz0jeh92,36w0ob37h0r4xrsz1h5n99tks53zh6,QOxAIzWz,2020-0188,2020-11-19,21:28:42,21:47:29,NA,incomplete,206,shape,1,left,Red_Star_Grid_3.jpg,Purple_Star_Chess_4.jpg,Blue_Triangle_Stripes_3.jpg,left,1237.0100000007078,true,low,NA,NA,NA,NA,NA,NA,NA,false
QOxAIzWz,30oitawpctgn4gcs6h6m71vz0jeh92,36w0ob37h0r4xrsz1h5n99tks53zh6,QOxAIzWz,2020-0188,2020-11-19,21:28:42,21:47:29,NA,incomplete,207,shape,1,left,Blue_Plus_Grid_3.jpg,Purple_Plus_Dots_1.jpg,Green_Circle_Stripes_3.jpg,left,1056.9699999978766,true,low,NA,NA,NA,NA,NA,NA,NA,false
QOxAIzWz,30oitawpctgn4gcs6h6m71vz0jeh92,36w0ob37h0r4xrsz1h5n99tks53zh6,QOxAIzWz,2020-0188,2020-11-19,21:28:42,21:47:29,NA,incomplete,208,shape,1,left,Blue_Plus_Stripes_3.jpg,Red_Plus_Grid_1.jpg,Green_Star_Dots_3.jpg,right,942.4150000013178,false,low,NA,NA,NA,NA,NA,NA,NA,false
QOxAIzWz,30oitawpctgn4gcs6h6m71vz0jeh92,36w0ob37h0r4xrsz1h5n99tks53zh6,QOxAIzWz,2020-0188,2020-11-19,21:28:42,21:47:29,NA,incomplete,209,shape,1,right,Red_Star_Stripes_1.jpg,Purple_Triangle_Grid_1.jpg,Green_Star_Chess_3.jpg,left,843.0450000014389,false,low,NA,NA,NA,NA,NA,NA,NA,false
QOxAIzWz,30oitawpctgn4gcs6h6m71vz0jeh92,36w0ob37h0r4xrsz1h5n99tks53zh6,QOxAIzWz,2020-0188,2020-11-19,21:28:42,21:47:29,NA,incomplete,210,shape,1,right,Blue_Star_Dots_4.jpg,Purple_Plus_Chess_4.jpg,Green_Star_Stripes_2.jpg,left,1092.3950000032783,false,low,NA,NA,NA,NA,NA,NA,NA,false
QOxAIzWz,30oitawpctgn4gcs6h6m71vz0jeh92,36w0ob37h0r4xrsz1h5n99tks53zh6,QOxAIzWz,2020-0188,2020-11-19,21:28:42,21:47:29,NA,incomplete,211,shape,0,left,Green_Circle_Dots_3.jpg,Blue_Circle_Stripes_1.jpg,Purple_Star_Chess_3.jpg,right,770.9350000005215,false,low,NA,NA,NA,NA,NA,NA,NA,false
QOxAIzWz,30oitawpctgn4gcs6h6m71vz0jeh92,36w0ob37h0r4xrsz1h5n99tks53zh6,QOxAIzWz,2020-0188,2020-11-19,21:28:42,21:47:29,NA,incomplete,212,shape,1,right,Purple_Circle_Grid_3.jpg,Blue_Star_Stripes_3.jpg,Red_Circle_Chess_1.jpg,right,640.4849999998696,true,low,NA,NA,NA,NA,NA,NA,NA,false
QOxAIzWz,30oitawpctgn4gcs6h6m71vz0jeh92,36w0ob37h0r4xrsz1h5n99tks53zh6,QOxAIzWz,2020-0188,2020-11-19,21:28:42,21:47:29,NA,incomplete,213,shape,1,left,Green_Plus_Grid_4.jpg,Red_Plus_Stripes_2.jpg,Purple_Circle_Dots_4.jpg,right,977.7400000020862,false,low,NA,NA,NA,NA,NA,NA,NA,false
QOxAIzWz,30oitawpctgn4gcs6h6m71vz0jeh92,36w0ob37h0r4xrsz1h5n99tks53zh6,QOxAIzWz,2020-0188,2020-11-19,21:28:42,21:47:29,NA,incomplete,214,shape,1,right,Blue_Circle_Grid_1.jpg,Green_Star_Chess_1.jpg,Red_Circle_Stripes_2.jpg,left,487.08500000066124,false,low,NA,NA,NA,NA,NA,NA,NA,false
QOxAIzWz,30oitawpctgn4gcs6h6m71vz0jeh92,36w0ob37h0r4xrsz1h5n99tks53zh6,QOxAIzWz,2020-0188,2020-11-19,21:28:42,21:47:29,NA,incomplete,215,shape,0,left,Red_Plus_Chess_2.jpg,Purple_Plus_Dots_4.jpg,Blue_Star_Grid_2.jpg,right,838.6299999983748,false,low,NA,NA,NA,NA,NA,NA,NA,false
QOxAIzWz,30oitawpctgn4gcs6h6m71vz0jeh92,36w0ob37h0r4xrsz1h5n99tks53zh6,QOxAIzWz,2020-0188,2020-11-19,21:28:42,21:47:29,NA,incomplete,216,shape,1,left,Red_Circle_Stripes_1.jpg,Blue_Circle_Grid_2.jpg,Green_Plus_Chess_1.jpg,left,839.7349999977741,true,low,NA,NA,NA,NA,NA,NA,NA,false
QOxAIzWz,30oitawpctgn4gcs6h6m71vz0jeh92,36w0ob37h0r4xrsz1h5n99tks53zh6,QOxAIzWz,2020-0188,2020-11-19,21:28:42,21:47:29,NA,incomplete,217,shape,1,left,Purple_Plus_Chess_3.jpg,Green_Plus_Grid_2.jpg,Blue_Triangle_Stripes_3.jpg,left,882.1050000005635,true,low,NA,NA,NA,NA,NA,NA,NA,false
QOxAIzWz,30oitawpctgn4gcs6h6m71vz0jeh92,36w0ob37h0r4xrsz1h5n99tks53zh6,QOxAIzWz,2020-0188,2020-11-19,21:28:42,21:47:29,NA,incomplete,218,shape,1,left,Red_Circle_Stripes_4.jpg,Purple_Circle_Dots_1.jpg,Green_Plus_Chess_4.jpg,left,729.0200000024633,true,low,NA,NA,NA,NA,NA,NA,NA,false
QOxAIzWz,30oitawpctgn4gcs6h6m71vz0jeh92,36w0ob37h0r4xrsz1h5n99tks53zh6,QOxAIzWz,2020-0188,2020-11-19,21:28:42,21:47:29,NA,incomplete,219,shape,1,right,Red_Triangle_Dots_3.jpg,Green_Star_Grid_3.jpg,Blue_Triangle_Stripes_1.jpg,right,688.2900000017835,true,low,NA,NA,NA,NA,NA,NA,NA,false
QOxAIzWz,30oitawpctgn4gcs6h6m71vz0jeh92,36w0ob37h0r4xrsz1h5n99tks53zh6,QOxAIzWz,2020-0188,2020-11-19,21:28:42,21:47:29,NA,incomplete,220,number,0,right,Blue_Circle_Grid_4.jpg,Green_Circle_Dots_3.jpg,Purple_Star_Stripes_4.jpg,left,760.180000001099,false,low,NA,NA,NA,NA,NA,NA,NA,false
QOxAIzWz,30oitawpctgn4gcs6h6m71vz0jeh92,36w0ob37h0r4xrsz1h5n99tks53zh6,QOxAIzWz,2020-0188,2020-11-19,21:28:42,21:47:29,NA,incomplete,221,number,1,left,Purple_Circle_Dots_4.jpg,Blue_Triangle_Stripes_4.jpg,Red_Circle_Grid_2.jpg,right,755.5549999998184,false,low,NA,NA,NA,NA,NA,NA,NA,false
QOxAIzWz,30oitawpctgn4gcs6h6m71vz0jeh92,36w0ob37h0r4xrsz1h5n99tks53zh6,QOxAIzWz,2020-0188,2020-11-19,21:28:42,21:47:29,NA,incomplete,222,number,1,right,Blue_Triangle_Dots_2.jpg,Purple_Triangle_Chess_3.jpg,Green_Plus_Grid_2.jpg,right,812.5050000016345,true,low,NA,NA,NA,NA,NA,NA,NA,false
QOxAIzWz,30oitawpctgn4gcs6h6m71vz0jeh92,36w0ob37h0r4xrsz1h5n99tks53zh6,QOxAIzWz,2020-0188,2020-11-19,21:28:42,21:47:29,NA,incomplete,223,number,0,right,Blue_Circle_Dots_3.jpg,Green_Circle_Grid_1.jpg,Red_Star_Chess_3.jpg,right,1083.7099999990314,true,low,NA,NA,NA,NA,NA,NA,NA,false
QOxAIzWz,30oitawpctgn4gcs6h6m71vz0jeh92,36w0ob37h0r4xrsz1h5n99tks53zh6,QOxAIzWz,2020-0188,2020-11-19,21:28:42,21:47:29,NA,incomplete,224,number,1,left,Blue_Circle_Grid_1.jpg,Purple_Triangle_Stripes_1.jpg,Green_Circle_Dots_2.jpg,left,1043.5600000019185,true,low,NA,NA,NA,NA,NA,NA,NA,false
QOxAIzWz,30oitawpctgn4gcs6h6m71vz0jeh92,36w0ob37h0r4xrsz1h5n99tks53zh6,QOxAIzWz,2020-0188,2020-11-19,21:28:42,21:47:29,NA,incomplete,225,number,1,right,Green_Plus_Grid_4.jpg,Blue_Plus_Stripes_2.jpg,Red_Circle_Chess_4.jpg,right,1196.205000000191,true,low,NA,NA,NA,NA,NA,NA,NA,false
QOxAIzWz,30oitawpctgn4gcs6h6m71vz0jeh92,36w0ob37h0r4xrsz1h5n99tks53zh6,QOxAIzWz,2020-0188,2020-11-19,21:28:42,21:47:29,NA,incomplete,226,number,1,right,Red_Triangle_Chess_1.jpg,Purple_Triangle_Grid_4.jpg,Blue_Plus_Stripes_1.jpg,left,1182.8549999991665,false,low,NA,NA,NA,NA,NA,NA,NA,false
QOxAIzWz,30oitawpctgn4gcs6h6m71vz0jeh92,36w0ob37h0r4xrsz1h5n99tks53zh6,QOxAIzWz,2020-0188,2020-11-19,21:28:42,21:47:29,NA,incomplete,227,number,1,right,Red_Plus_Dots_4.jpg,Blue_Plus_Chess_1.jpg,Green_Triangle_Stripes_4.jpg,left,1192.094999998575,false,low,NA,NA,NA,NA,NA,NA,NA,false
QOxAIzWz,30oitawpctgn4gcs6h6m71vz0jeh92,36w0ob37h0r4xrsz1h5n99tks53zh6,QOxAIzWz,2020-0188,2020-11-19,21:28:42,21:47:29,NA,incomplete,228,number,0,left,Green_Star_Dots_1.jpg,Blue_Circle_Stripes_1.jpg,Red_Star_Grid_3.jpg,left,1218.8099999985425,true,low,NA,NA,NA,NA,NA,NA,NA,false
QOxAIzWz,30oitawpctgn4gcs6h6m71vz0jeh92,36w0ob37h0r4xrsz1h5n99tks53zh6,QOxAIzWz,2020-0188,2020-11-19,21:28:42,21:47:29,NA,incomplete,229,number,1,left,Red_Triangle_Stripes_4.jpg,Green_Star_Dots_4.jpg,Blue_Triangle_Chess_2.jpg,right,1179.9449999998324,false,low,NA,NA,NA,NA,NA,NA,NA,false
QOxAIzWz,30oitawpctgn4gcs6h6m71vz0jeh92,36w0ob37h0r4xrsz1h5n99tks53zh6,QOxAIzWz,2020-0188,2020-11-19,21:28:42,21:47:29,NA,incomplete,230,number,0,right,Green_Star_Chess_2.jpg,Red_Star_Dots_4.jpg,Blue_Circle_Stripes_2.jpg,right,1070.9549999992596,true,low,NA,NA,NA,NA,NA,NA,NA,false
QOxAIzWz,30oitawpctgn4gcs6h6m71vz0jeh92,36w0ob37h0r4xrsz1h5n99tks53zh6,QOxAIzWz,2020-0188,2020-11-19,21:28:42,21:47:29,NA,incomplete,231,number,1,right,Purple_Triangle_Chess_2.jpg,Red_Triangle_Grid_3.jpg,Blue_Circle_Stripes_2.jpg,left,558.2150000010151,false,low,NA,NA,NA,NA,NA,NA,NA,false
QOxAIzWz,30oitawpctgn4gcs6h6m71vz0jeh92,36w0ob37h0r4xrsz1h5n99tks53zh6,QOxAIzWz,2020-0188,2020-11-19,21:28:42,21:47:29,NA,incomplete,232,number,0,left,Red_Triangle_Chess_3.jpg,Purple_Star_Grid_3.jpg,Green_Triangle_Dots_2.jpg,right,731.984999998589,false,low,NA,NA,NA,NA,NA,NA,NA,false
QOxAIzWz,30oitawpctgn4gcs6h6m71vz0jeh92,36w0ob37h0r4xrsz1h5n99tks53zh6,QOxAIzWz,2020-0188,2020-11-19,21:28:42,21:47:29,NA,incomplete,233,number,1,right,Purple_Circle_Chess_2.jpg,Blue_Circle_Dots_4.jpg,Green_Triangle_Grid_2.jpg,left,930.1950000007637,false,low,NA,NA,NA,NA,NA,NA,NA,false
QOxAIzWz,30oitawpctgn4gcs6h6m71vz0jeh92,36w0ob37h0r4xrsz1h5n99tks53zh6,QOxAIzWz,2020-0188,2020-11-19,21:28:42,21:47:29,NA,incomplete,234,number,1,left,Green_Circle_Chess_2.jpg,Purple_Triangle_Dots_2.jpg,Red_Circle_Stripes_1.jpg,left,1031.399999999674,true,low,NA,NA,NA,NA,NA,NA,NA,false
QOxAIzWz,30oitawpctgn4gcs6h6m71vz0jeh92,36w0ob37h0r4xrsz1h5n99tks53zh6,QOxAIzWz,2020-0188,2020-11-19,21:28:42,21:47:29,NA,incomplete,235,number,1,left,Blue_Star_Dots_2.jpg,Purple_Circle_Chess_2.jpg,Red_Star_Grid_4.jpg,left,878.5300000018906,true,low,NA,NA,NA,NA,NA,NA,NA,false
QOxAIzWz,30oitawpctgn4gcs6h6m71vz0jeh92,36w0ob37h0r4xrsz1h5n99tks53zh6,QOxAIzWz,2020-0188,2020-11-19,21:28:42,21:47:29,NA,incomplete,236,number,1,right,Green_Circle_Dots_1.jpg,Red_Circle_Chess_2.jpg,Blue_Triangle_Stripes_1.jpg,right,755.215000001248,true,low,NA,NA,NA,NA,NA,NA,NA,false
QOxAIzWz,30oitawpctgn4gcs6h6m71vz0jeh92,36w0ob37h0r4xrsz1h5n99tks53zh6,QOxAIzWz,2020-0188,2020-11-19,21:28:42,21:47:29,NA,incomplete,237,number,0,left,Green_Circle_Dots_4.jpg,Blue_Plus_Stripes_4.jpg,Red_Circle_Chess_1.jpg,left,1175.1850000000559,true,low,NA,NA,NA,NA,NA,NA,NA,false
QOxAIzWz,30oitawpctgn4gcs6h6m71vz0jeh92,36w0ob37h0r4xrsz1h5n99tks53zh6,QOxAIzWz,2020-0188,2020-11-19,21:28:42,21:47:29,NA,incomplete,238,number,1,right,Purple_Circle_Grid_3.jpg,Green_Circle_Stripes_2.jpg,Red_Triangle_Chess_3.jpg,left,1361.024999998277,false,low,NA,NA,NA,NA,NA,NA,NA,false
QOxAIzWz,30oitawpctgn4gcs6h6m71vz0jeh92,36w0ob37h0r4xrsz1h5n99tks53zh6,QOxAIzWz,2020-0188,2020-11-19,21:28:42,21:47:29,NA,incomplete,239,number,1,right,Red_Circle_Stripes_4.jpg,Blue_Circle_Dots_1.jpg,Green_Triangle_Chess_4.jpg,right,1132.6049999988172,true,low,NA,NA,NA,NA,NA,NA,NA,false
QOxAIzWz,30oitawpctgn4gcs6h6m71vz0jeh92,36w0ob37h0r4xrsz1h5n99tks53zh6,QOxAIzWz,2020-0188,2020-11-19,21:28:42,21:47:29,1075641.0599999998,1127185.524999999,NA,NA,NA,NA,NA,NA,NA,NA,NA,NA,NA,46,White/Caucasian,Female,not hispanic,no,yes,no,undefined
