workerId,hitId,assignmentId,subject,studyid,exp_date,exp_start,exp_end,time_start,time_end,trial,type,reward_validity,answer,image_top,image_left,image_right,response,response_time,response_acc,volatility,practice
SkqcLqeK,3zvpamtjxqgf8kd3gsoqdmjsr77grt,378xpawrugq3sevbv779ss3qkcgiah,SkqcLqeK,2020-0188,2020-11-21,11:56:44,12:10:59,NA,incomplete,0,color,1,left,Green_Plus_Stripes_2.jpg,Green_Circle_Chess_1.jpg,Red_Triangle_Grid_2.jpg,right,1825.8349999996426,false,NA,true
SkqcLqeK,3zvpamtjxqgf8kd3gsoqdmjsr77grt,378xpawrugq3sevbv779ss3qkcgiah,SkqcLqeK,2020-0188,2020-11-21,11:56:44,12:10:59,NA,incomplete,1,color,1,right,Purple_Triangle_Chess_4.jpg,Blue_Plus_Stripes_4.jpg,Purple_Star_Dots_1.jpg,left,1711.2750000005763,false,NA,true
SkqcLqeK,3zvpamtjxqgf8kd3gsoqdmjsr77grt,378xpawrugq3sevbv779ss3qkcgiah,SkqcLqeK,2020-0188,2020-11-21,11:56:44,12:10:59,NA,incomplete,2,color,1,left,Red_Star_Stripes_1.jpg,Red_Plus_Dots_4.jpg,Green_Triangle_Grid_1.jpg,left,951.4349999999395,true,NA,true
SkqcLqeK,3zvpamtjxqgf8kd3gsoqdmjsr77grt,378xpawrugq3sevbv779ss3qkcgiah,SkqcLqeK,2020-0188,2020-11-21,11:56:44,12:10:59,NA,incomplete,3,color,1,right,Blue_Circle_Stripes_4.jpg,Green_Plus_Grid_4.jpg,Blue_Star_Chess_3.jpg,right,978.2599999998638,true,NA,true
SkqcLqeK,3zvpamtjxqgf8kd3gsoqdmjsr77grt,378xpawrugq3sevbv779ss3qkcgiah,SkqcLqeK,2020-0188,2020-11-21,11:56:44,12:10:59,NA,incomplete,4,color,0,left,Red_Circle_Stripes_3.jpg,Red_Triangle_Chess_1.jpg,Purple_Plus_Dots_3.jpg,left,811.8400000003021,true,NA,true
SkqcLqeK,3zvpamtjxqgf8kd3gsoqdmjsr77grt,378xpawrugq3sevbv779ss3qkcgiah,SkqcLqeK,2020-0188,2020-11-21,11:56:44,12:10:59,NA,incomplete,5,color,1,left,Purple_Triangle_Chess_2.jpg,Purple_Star_Stripes_1.jpg,Red_Circle_Grid_2.jpg,left,908.6649999999208,true,NA,true
SkqcLqeK,3zvpamtjxqgf8kd3gsoqdmjsr77grt,378xpawrugq3sevbv779ss3qkcgiah,SkqcLqeK,2020-0188,2020-11-21,11:56:44,12:10:59,NA,incomplete,6,color,1,right,Red_Plus_Dots_2.jpg,Blue_Triangle_Grid_2.jpg,Red_Circle_Stripes_3.jpg,right,659.8350000003993,true,NA,true
SkqcLqeK,3zvpamtjxqgf8kd3gsoqdmjsr77grt,378xpawrugq3sevbv779ss3qkcgiah,SkqcLqeK,2020-0188,2020-11-21,11:56:44,12:10:59,NA,incomplete,7,color,0,right,Red_Star_Stripes_2.jpg,Green_Plus_Grid_2.jpg,Red_Circle_Chess_1.jpg,right,697.2099999993516,true,NA,true
SkqcLqeK,3zvpamtjxqgf8kd3gsoqdmjsr77grt,378xpawrugq3sevbv779ss3qkcgiah,SkqcLqeK,2020-0188,2020-11-21,11:56:44,12:10:59,NA,incomplete,8,color,1,left,Purple_Circle_Stripes_4.jpg,Purple_Plus_Grid_2.jpg,Red_Star_Chess_4.jpg,left,788.7200000004668,true,NA,true
SkqcLqeK,3zvpamtjxqgf8kd3gsoqdmjsr77grt,378xpawrugq3sevbv779ss3qkcgiah,SkqcLqeK,2020-0188,2020-11-21,11:56:44,12:10:59,NA,incomplete,9,color,1,left,Purple_Plus_Chess_4.jpg,Purple_Star_Grid_1.jpg,Blue_Circle_Stripes_4.jpg,left,570.2900000005611,true,NA,true
SkqcLqeK,3zvpamtjxqgf8kd3gsoqdmjsr77grt,378xpawrugq3sevbv779ss3qkcgiah,SkqcLqeK,2020-0188,2020-11-21,11:56:44,12:10:59,NA,incomplete,10,color,0,left,Green_Star_Chess_3.jpg,Green_Circle_Dots_2.jpg,Blue_Plus_Grid_3.jpg,left,749.5649999991874,true,NA,true
SkqcLqeK,3zvpamtjxqgf8kd3gsoqdmjsr77grt,378xpawrugq3sevbv779ss3qkcgiah,SkqcLqeK,2020-0188,2020-11-21,11:56:44,12:10:59,NA,incomplete,11,color,1,right,Blue_Star_Dots_1.jpg,Red_Triangle_Chess_1.jpg,Blue_Circle_Stripes_2.jpg,right,947.3049999996729,true,NA,true
SkqcLqeK,3zvpamtjxqgf8kd3gsoqdmjsr77grt,378xpawrugq3sevbv779ss3qkcgiah,SkqcLqeK,2020-0188,2020-11-21,11:56:44,12:10:59,NA,incomplete,12,color,1,right,Purple_Triangle_Stripes_3.jpg,Green_Star_Chess_3.jpg,Purple_Plus_Grid_2.jpg,right,623.4699999995355,true,NA,true
SkqcLqeK,3zvpamtjxqgf8kd3gsoqdmjsr77grt,378xpawrugq3sevbv779ss3qkcgiah,SkqcLqeK,2020-0188,2020-11-21,11:56:44,12:10:59,NA,incomplete,13,color,0,right,Purple_Circle_Stripes_4.jpg,Blue_Star_Chess_4.jpg,Purple_Plus_Dots_2.jpg,right,628.5250000000815,true,NA,true
SkqcLqeK,3zvpamtjxqgf8kd3gsoqdmjsr77grt,378xpawrugq3sevbv779ss3qkcgiah,SkqcLqeK,2020-0188,2020-11-21,11:56:44,12:10:59,NA,incomplete,14,color,1,right,Red_Plus_Stripes_2.jpg,Blue_Star_Dots_2.jpg,Red_Triangle_Grid_3.jpg,right,778.3950000002806,true,NA,true
SkqcLqeK,3zvpamtjxqgf8kd3gsoqdmjsr77grt,378xpawrugq3sevbv779ss3qkcgiah,SkqcLqeK,2020-0188,2020-11-21,11:56:44,12:10:59,NA,incomplete,15,color,1,left,Red_Triangle_Dots_4.jpg,Red_Circle_Grid_1.jpg,Purple_Plus_Stripes_4.jpg,left,705.7949999998673,true,NA,true
SkqcLqeK,3zvpamtjxqgf8kd3gsoqdmjsr77grt,378xpawrugq3sevbv779ss3qkcgiah,SkqcLqeK,2020-0188,2020-11-21,11:56:44,12:10:59,NA,incomplete,16,color,1,right,Blue_Star_Chess_4.jpg,Green_Triangle_Dots_4.jpg,Blue_Plus_Grid_3.jpg,left,1364.344999999972,false,NA,true
SkqcLqeK,3zvpamtjxqgf8kd3gsoqdmjsr77grt,378xpawrugq3sevbv779ss3qkcgiah,SkqcLqeK,2020-0188,2020-11-21,11:56:44,12:10:59,NA,incomplete,17,color,0,right,Blue_Plus_Stripes_1.jpg,Green_Triangle_Dots_1.jpg,Blue_Circle_Chess_3.jpg,right,1135.9149999998335,true,NA,true
SkqcLqeK,3zvpamtjxqgf8kd3gsoqdmjsr77grt,378xpawrugq3sevbv779ss3qkcgiah,SkqcLqeK,2020-0188,2020-11-21,11:56:44,12:10:59,NA,incomplete,18,color,0,left,Blue_Plus_Grid_1.jpg,Blue_Circle_Chess_4.jpg,Purple_Star_Dots_1.jpg,left,659.0750000004773,true,NA,true
SkqcLqeK,3zvpamtjxqgf8kd3gsoqdmjsr77grt,378xpawrugq3sevbv779ss3qkcgiah,SkqcLqeK,2020-0188,2020-11-21,11:56:44,12:10:59,NA,incomplete,19,color,1,left,Blue_Triangle_Stripes_1.jpg,Blue_Star_Dots_2.jpg,Green_Circle_Grid_1.jpg,left,613.0499999999302,true,NA,true
SkqcLqeK,3zvpamtjxqgf8kd3gsoqdmjsr77grt,378xpawrugq3sevbv779ss3qkcgiah,SkqcLqeK,2020-0188,2020-11-21,11:56:44,12:10:59,NA,incomplete,20,number,1,right,Red_Circle_Chess_4.jpg,Red_Triangle_Dots_2.jpg,Green_Star_Stripes_4.jpg,left,686.9999999999127,false,NA,true
SkqcLqeK,3zvpamtjxqgf8kd3gsoqdmjsr77grt,378xpawrugq3sevbv779ss3qkcgiah,SkqcLqeK,2020-0188,2020-11-21,11:56:44,12:10:59,NA,incomplete,21,number,1,right,Green_Star_Grid_1.jpg,Green_Triangle_Chess_4.jpg,Red_Circle_Dots_1.jpg,right,1029.3500000007043,true,NA,true
SkqcLqeK,3zvpamtjxqgf8kd3gsoqdmjsr77grt,378xpawrugq3sevbv779ss3qkcgiah,SkqcLqeK,2020-0188,2020-11-21,11:56:44,12:10:59,NA,incomplete,22,number,1,left,Purple_Circle_Dots_1.jpg,Blue_Triangle_Grid_1.jpg,Purple_Plus_Chess_4.jpg,left,761.4650000004913,true,NA,true
SkqcLqeK,3zvpamtjxqgf8kd3gsoqdmjsr77grt,378xpawrugq3sevbv779ss3qkcgiah,SkqcLqeK,2020-0188,2020-11-21,11:56:44,12:10:59,NA,incomplete,23,number,1,left,Purple_Triangle_Dots_2.jpg,Blue_Star_Stripes_2.jpg,Purple_Plus_Chess_4.jpg,left,1062.7549999999464,true,NA,true
SkqcLqeK,3zvpamtjxqgf8kd3gsoqdmjsr77grt,378xpawrugq3sevbv779ss3qkcgiah,SkqcLqeK,2020-0188,2020-11-21,11:56:44,12:10:59,NA,incomplete,24,number,0,right,Red_Star_Chess_2.jpg,Red_Plus_Stripes_3.jpg,Blue_Triangle_Grid_2.jpg,right,857.8399999996764,true,NA,true
SkqcLqeK,3zvpamtjxqgf8kd3gsoqdmjsr77grt,378xpawrugq3sevbv779ss3qkcgiah,SkqcLqeK,2020-0188,2020-11-21,11:56:44,12:10:59,NA,incomplete,25,number,1,right,Red_Star_Grid_4.jpg,Red_Triangle_Stripes_1.jpg,Blue_Plus_Dots_4.jpg,right,937.5,true,NA,true
SkqcLqeK,3zvpamtjxqgf8kd3gsoqdmjsr77grt,378xpawrugq3sevbv779ss3qkcgiah,SkqcLqeK,2020-0188,2020-11-21,11:56:44,12:10:59,NA,incomplete,26,number,1,left,Blue_Circle_Stripes_3.jpg,Green_Plus_Chess_3.jpg,Blue_Star_Dots_1.jpg,left,994.690000000468,true,NA,true
SkqcLqeK,3zvpamtjxqgf8kd3gsoqdmjsr77grt,378xpawrugq3sevbv779ss3qkcgiah,SkqcLqeK,2020-0188,2020-11-21,11:56:44,12:10:59,NA,incomplete,27,number,1,left,Red_Triangle_Dots_3.jpg,Blue_Star_Stripes_3.jpg,Red_Plus_Chess_4.jpg,left,925.684999999241,true,NA,true
SkqcLqeK,3zvpamtjxqgf8kd3gsoqdmjsr77grt,378xpawrugq3sevbv779ss3qkcgiah,SkqcLqeK,2020-0188,2020-11-21,11:56:44,12:10:59,NA,incomplete,28,number,1,left,Green_Circle_Dots_1.jpg,Purple_Triangle_Grid_1.jpg,Green_Star_Stripes_2.jpg,left,749.0450000005076,true,NA,true
SkqcLqeK,3zvpamtjxqgf8kd3gsoqdmjsr77grt,378xpawrugq3sevbv779ss3qkcgiah,SkqcLqeK,2020-0188,2020-11-21,11:56:44,12:10:59,NA,incomplete,29,number,1,left,Green_Plus_Chess_4.jpg,Purple_Triangle_Dots_4.jpg,Green_Circle_Grid_3.jpg,left,955.8649999999325,true,NA,true
SkqcLqeK,3zvpamtjxqgf8kd3gsoqdmjsr77grt,378xpawrugq3sevbv779ss3qkcgiah,SkqcLqeK,2020-0188,2020-11-21,11:56:44,12:10:59,NA,incomplete,30,number,0,left,Green_Plus_Stripes_4.jpg,Purple_Star_Grid_4.jpg,Green_Circle_Chess_2.jpg,left,781.8649999999325,true,NA,true
SkqcLqeK,3zvpamtjxqgf8kd3gsoqdmjsr77grt,378xpawrugq3sevbv779ss3qkcgiah,SkqcLqeK,2020-0188,2020-11-21,11:56:44,12:10:59,NA,incomplete,31,number,1,left,Purple_Star_Stripes_3.jpg,Blue_Plus_Dots_3.jpg,Purple_Circle_Chess_2.jpg,left,1293.6499999996158,true,NA,true
SkqcLqeK,3zvpamtjxqgf8kd3gsoqdmjsr77grt,378xpawrugq3sevbv779ss3qkcgiah,SkqcLqeK,2020-0188,2020-11-21,11:56:44,12:10:59,NA,incomplete,32,number,1,left,Red_Circle_Chess_4.jpg,Green_Triangle_Dots_4.jpg,Red_Star_Stripes_3.jpg,left,838.6500000006054,true,NA,true
SkqcLqeK,3zvpamtjxqgf8kd3gsoqdmjsr77grt,378xpawrugq3sevbv779ss3qkcgiah,SkqcLqeK,2020-0188,2020-11-21,11:56:44,12:10:59,NA,incomplete,33,number,1,right,Blue_Triangle_Grid_1.jpg,Blue_Circle_Stripes_4.jpg,Purple_Plus_Dots_1.jpg,right,1159.3300000003946,true,NA,true
SkqcLqeK,3zvpamtjxqgf8kd3gsoqdmjsr77grt,378xpawrugq3sevbv779ss3qkcgiah,SkqcLqeK,2020-0188,2020-11-21,11:56:44,12:10:59,NA,incomplete,34,number,1,left,Green_Star_Chess_3.jpg,Blue_Circle_Grid_3.jpg,Green_Plus_Dots_2.jpg,left,1291.299999999872,true,NA,true
SkqcLqeK,3zvpamtjxqgf8kd3gsoqdmjsr77grt,378xpawrugq3sevbv779ss3qkcgiah,SkqcLqeK,2020-0188,2020-11-21,11:56:44,12:10:59,NA,incomplete,35,number,1,right,Purple_Circle_Dots_4.jpg,Purple_Triangle_Grid_3.jpg,Red_Plus_Stripes_4.jpg,right,1561.8899999999558,true,NA,true
SkqcLqeK,3zvpamtjxqgf8kd3gsoqdmjsr77grt,378xpawrugq3sevbv779ss3qkcgiah,SkqcLqeK,2020-0188,2020-11-21,11:56:44,12:10:59,NA,incomplete,36,number,1,left,Red_Star_Chess_4.jpg,Green_Plus_Stripes_4.jpg,Red_Circle_Dots_1.jpg,left,713.0699999997742,true,NA,true
SkqcLqeK,3zvpamtjxqgf8kd3gsoqdmjsr77grt,378xpawrugq3sevbv779ss3qkcgiah,SkqcLqeK,2020-0188,2020-11-21,11:56:44,12:10:59,NA,incomplete,37,number,1,left,Red_Triangle_Chess_4.jpg,Green_Circle_Stripes_4.jpg,Red_Plus_Dots_1.jpg,left,823.1049999994866,true,NA,true
SkqcLqeK,3zvpamtjxqgf8kd3gsoqdmjsr77grt,378xpawrugq3sevbv779ss3qkcgiah,SkqcLqeK,2020-0188,2020-11-21,11:56:44,12:10:59,NA,incomplete,38,number,1,left,Green_Circle_Stripes_1.jpg,Red_Star_Grid_1.jpg,Green_Triangle_Dots_2.jpg,left,756.6500000002561,true,NA,true
SkqcLqeK,3zvpamtjxqgf8kd3gsoqdmjsr77grt,378xpawrugq3sevbv779ss3qkcgiah,SkqcLqeK,2020-0188,2020-11-21,11:56:44,12:10:59,NA,incomplete,39,number,1,right,Red_Star_Grid_4.jpg,Red_Plus_Chess_2.jpg,Green_Triangle_Stripes_4.jpg,right,884.3600000000151,true,NA,true
SkqcLqeK,3zvpamtjxqgf8kd3gsoqdmjsr77grt,378xpawrugq3sevbv779ss3qkcgiah,SkqcLqeK,2020-0188,2020-11-21,11:56:44,12:10:59,NA,incomplete,0,color,1,right,Blue_Triangle_Grid_4.jpg,Red_Star_Dots_4.jpg,Blue_Circle_Stripes_2.jpg,left,1698.0149999999267,false,high,false
SkqcLqeK,3zvpamtjxqgf8kd3gsoqdmjsr77grt,378xpawrugq3sevbv779ss3qkcgiah,SkqcLqeK,2020-0188,2020-11-21,11:56:44,12:10:59,NA,incomplete,1,color,1,right,Green_Circle_Chess_1.jpg,Purple_Plus_Grid_1.jpg,Green_Triangle_Stripes_3.jpg,right,693.185000000085,true,high,false
SkqcLqeK,3zvpamtjxqgf8kd3gsoqdmjsr77grt,378xpawrugq3sevbv779ss3qkcgiah,SkqcLqeK,2020-0188,2020-11-21,11:56:44,12:10:59,NA,incomplete,2,color,0,right,Blue_Triangle_Stripes_3.jpg,Purple_Circle_Chess_3.jpg,Blue_Plus_Dots_2.jpg,right,844.109999999986,true,high,false
SkqcLqeK,3zvpamtjxqgf8kd3gsoqdmjsr77grt,378xpawrugq3sevbv779ss3qkcgiah,SkqcLqeK,2020-0188,2020-11-21,11:56:44,12:10:59,NA,incomplete,3,color,0,right,Red_Star_Grid_1.jpg,Green_Plus_Chess_1.jpg,Red_Triangle_Dots_3.jpg,right,1018.8099999995902,true,high,false
SkqcLqeK,3zvpamtjxqgf8kd3gsoqdmjsr77grt,378xpawrugq3sevbv779ss3qkcgiah,SkqcLqeK,2020-0188,2020-11-21,11:56:44,12:10:59,NA,incomplete,4,color,0,right,Green_Circle_Stripes_2.jpg,Blue_Plus_Grid_2.jpg,Green_Triangle_Chess_4.jpg,right,947.7500000002619,true,high,false
SkqcLqeK,3zvpamtjxqgf8kd3gsoqdmjsr77grt,378xpawrugq3sevbv779ss3qkcgiah,SkqcLqeK,2020-0188,2020-11-21,11:56:44,12:10:59,NA,incomplete,5,color,1,right,Purple_Star_Stripes_1.jpg,Green_Plus_Grid_1.jpg,Purple_Triangle_Chess_3.jpg,left,868.0249999997322,false,high,false
SkqcLqeK,3zvpamtjxqgf8kd3gsoqdmjsr77grt,378xpawrugq3sevbv779ss3qkcgiah,SkqcLqeK,2020-0188,2020-11-21,11:56:44,12:10:59,NA,incomplete,6,color,1,right,Red_Circle_Stripes_2.jpg,Purple_Triangle_Dots_2.jpg,Red_Plus_Grid_4.jpg,left,825.8949999999313,false,high,false
SkqcLqeK,3zvpamtjxqgf8kd3gsoqdmjsr77grt,378xpawrugq3sevbv779ss3qkcgiah,SkqcLqeK,2020-0188,2020-11-21,11:56:44,12:10:59,NA,incomplete,7,color,0,left,Green_Plus_Dots_1.jpg,Green_Circle_Stripes_2.jpg,Blue_Star_Grid_1.jpg,right,1724.3600000001607,false,high,false
SkqcLqeK,3zvpamtjxqgf8kd3gsoqdmjsr77grt,378xpawrugq3sevbv779ss3qkcgiah,SkqcLqeK,2020-0188,2020-11-21,11:56:44,12:10:59,NA,incomplete,8,color,1,right,Purple_Plus_Grid_2.jpg,Green_Circle_Chess_2.jpg,Purple_Triangle_Stripes_1.jpg,left,941.5550000003132,false,high,false
SkqcLqeK,3zvpamtjxqgf8kd3gsoqdmjsr77grt,378xpawrugq3sevbv779ss3qkcgiah,SkqcLqeK,2020-0188,2020-11-21,11:56:44,12:10:59,NA,incomplete,9,color,1,left,Purple_Triangle_Stripes_1.jpg,Purple_Plus_Chess_2.jpg,Red_Star_Dots_1.jpg,right,1225.6299999999173,false,high,false
SkqcLqeK,3zvpamtjxqgf8kd3gsoqdmjsr77grt,378xpawrugq3sevbv779ss3qkcgiah,SkqcLqeK,2020-0188,2020-11-21,11:56:44,12:10:59,NA,incomplete,10,number,1,right,Green_Circle_Grid_1.jpg,Green_Star_Chess_4.jpg,Red_Triangle_Dots_1.jpg,right,776.545000000624,true,high,false
SkqcLqeK,3zvpamtjxqgf8kd3gsoqdmjsr77grt,378xpawrugq3sevbv779ss3qkcgiah,SkqcLqeK,2020-0188,2020-11-21,11:56:44,12:10:59,NA,incomplete,11,number,1,right,Blue_Plus_Dots_1.jpg,Blue_Star_Chess_2.jpg,Red_Triangle_Stripes_1.jpg,right,550.2800000003772,true,high,false
SkqcLqeK,3zvpamtjxqgf8kd3gsoqdmjsr77grt,378xpawrugq3sevbv779ss3qkcgiah,SkqcLqeK,2020-0188,2020-11-21,11:56:44,12:10:59,NA,incomplete,12,number,1,left,Purple_Triangle_Chess_4.jpg,Red_Star_Stripes_4.jpg,Purple_Circle_Dots_1.jpg,left,980.3799999999756,true,high,false
SkqcLqeK,3zvpamtjxqgf8kd3gsoqdmjsr77grt,378xpawrugq3sevbv779ss3qkcgiah,SkqcLqeK,2020-0188,2020-11-21,11:56:44,12:10:59,NA,incomplete,13,number,1,right,Green_Plus_Grid_2.jpg,Green_Star_Dots_4.jpg,Blue_Circle_Stripes_2.jpg,right,837.3050000000221,true,high,false
SkqcLqeK,3zvpamtjxqgf8kd3gsoqdmjsr77grt,378xpawrugq3sevbv779ss3qkcgiah,SkqcLqeK,2020-0188,2020-11-21,11:56:44,12:10:59,NA,incomplete,14,number,1,left,Red_Triangle_Chess_1.jpg,Blue_Star_Grid_1.jpg,Red_Plus_Stripes_2.jpg,left,860.9849999993457,true,high,false
SkqcLqeK,3zvpamtjxqgf8kd3gsoqdmjsr77grt,378xpawrugq3sevbv779ss3qkcgiah,SkqcLqeK,2020-0188,2020-11-21,11:56:44,12:10:59,NA,incomplete,15,number,1,left,Red_Star_Chess_3.jpg,Purple_Circle_Grid_3.jpg,Red_Plus_Dots_4.jpg,right,824.9299999997602,false,high,false
SkqcLqeK,3zvpamtjxqgf8kd3gsoqdmjsr77grt,378xpawrugq3sevbv779ss3qkcgiah,SkqcLqeK,2020-0188,2020-11-21,11:56:44,12:10:59,NA,incomplete,16,number,1,left,Green_Plus_Dots_1.jpg,Red_Triangle_Stripes_1.jpg,Green_Star_Chess_4.jpg,left,944.0549999999348,true,high,false
SkqcLqeK,3zvpamtjxqgf8kd3gsoqdmjsr77grt,378xpawrugq3sevbv779ss3qkcgiah,SkqcLqeK,2020-0188,2020-11-21,11:56:44,12:10:59,NA,incomplete,17,number,1,right,Red_Triangle_Stripes_3.jpg,Red_Plus_Grid_1.jpg,Green_Star_Dots_3.jpg,right,1220.3700000000536,true,high,false
SkqcLqeK,3zvpamtjxqgf8kd3gsoqdmjsr77grt,378xpawrugq3sevbv779ss3qkcgiah,SkqcLqeK,2020-0188,2020-11-21,11:56:44,12:10:59,NA,incomplete,18,number,1,right,Red_Plus_Dots_2.jpg,Red_Triangle_Chess_3.jpg,Purple_Star_Stripes_2.jpg,right,1195.8400000003166,true,high,false
SkqcLqeK,3zvpamtjxqgf8kd3gsoqdmjsr77grt,378xpawrugq3sevbv779ss3qkcgiah,SkqcLqeK,2020-0188,2020-11-21,11:56:44,12:10:59,NA,incomplete,19,number,1,left,Purple_Circle_Stripes_1.jpg,Blue_Triangle_Grid_1.jpg,Purple_Star_Chess_3.jpg,left,850.9899999999325,true,high,false
SkqcLqeK,3zvpamtjxqgf8kd3gsoqdmjsr77grt,378xpawrugq3sevbv779ss3qkcgiah,SkqcLqeK,2020-0188,2020-11-21,11:56:44,12:10:59,NA,incomplete,20,color,1,right,Blue_Triangle_Dots_2.jpg,Red_Plus_Grid_2.jpg,Blue_Circle_Stripes_3.jpg,left,961.0949999996228,false,high,false
SkqcLqeK,3zvpamtjxqgf8kd3gsoqdmjsr77grt,378xpawrugq3sevbv779ss3qkcgiah,SkqcLqeK,2020-0188,2020-11-21,11:56:44,12:10:59,NA,incomplete,21,color,1,left,Red_Star_Chess_1.jpg,Red_Circle_Grid_2.jpg,Blue_Triangle_Stripes_1.jpg,right,955.8700000006938,false,high,false
SkqcLqeK,3zvpamtjxqgf8kd3gsoqdmjsr77grt,378xpawrugq3sevbv779ss3qkcgiah,SkqcLqeK,2020-0188,2020-11-21,11:56:44,12:10:59,NA,incomplete,22,color,0,right,Purple_Triangle_Chess_4.jpg,Red_Plus_Stripes_4.jpg,Purple_Circle_Dots_1.jpg,left,959.120000000461,false,high,false
SkqcLqeK,3zvpamtjxqgf8kd3gsoqdmjsr77grt,378xpawrugq3sevbv779ss3qkcgiah,SkqcLqeK,2020-0188,2020-11-21,11:56:44,12:10:59,NA,incomplete,23,color,0,right,Purple_Circle_Grid_1.jpg,Red_Plus_Chess_1.jpg,Purple_Star_Stripes_4.jpg,left,927.7949999996345,false,high,false
SkqcLqeK,3zvpamtjxqgf8kd3gsoqdmjsr77grt,378xpawrugq3sevbv779ss3qkcgiah,SkqcLqeK,2020-0188,2020-11-21,11:56:44,12:10:59,NA,incomplete,24,color,1,right,Green_Plus_Grid_4.jpg,Blue_Star_Chess_4.jpg,Green_Triangle_Dots_2.jpg,left,781.3299999997835,false,high,false
SkqcLqeK,3zvpamtjxqgf8kd3gsoqdmjsr77grt,378xpawrugq3sevbv779ss3qkcgiah,SkqcLqeK,2020-0188,2020-11-21,11:56:44,12:10:59,NA,incomplete,25,color,1,left,Blue_Circle_Chess_1.jpg,Blue_Triangle_Stripes_4.jpg,Green_Star_Grid_1.jpg,right,1307.1199999995297,false,high,false
SkqcLqeK,3zvpamtjxqgf8kd3gsoqdmjsr77grt,378xpawrugq3sevbv779ss3qkcgiah,SkqcLqeK,2020-0188,2020-11-21,11:56:44,12:10:59,NA,incomplete,26,color,0,right,Purple_Circle_Chess_3.jpg,Green_Star_Stripes_3.jpg,Purple_Triangle_Grid_1.jpg,left,934.9950000005192,false,high,false
SkqcLqeK,3zvpamtjxqgf8kd3gsoqdmjsr77grt,378xpawrugq3sevbv779ss3qkcgiah,SkqcLqeK,2020-0188,2020-11-21,11:56:44,12:10:59,NA,incomplete,27,color,1,right,Purple_Triangle_Dots_4.jpg,Blue_Circle_Chess_4.jpg,Purple_Star_Stripes_3.jpg,left,891.8949999997858,false,high,false
SkqcLqeK,3zvpamtjxqgf8kd3gsoqdmjsr77grt,378xpawrugq3sevbv779ss3qkcgiah,SkqcLqeK,2020-0188,2020-11-21,11:56:44,12:10:59,NA,incomplete,28,color,0,right,Blue_Star_Dots_2.jpg,Purple_Plus_Grid_2.jpg,Blue_Circle_Chess_3.jpg,right,913.2149999996182,true,high,false
SkqcLqeK,3zvpamtjxqgf8kd3gsoqdmjsr77grt,378xpawrugq3sevbv779ss3qkcgiah,SkqcLqeK,2020-0188,2020-11-21,11:56:44,12:10:59,NA,incomplete,29,color,0,left,Blue_Star_Dots_2.jpg,Blue_Circle_Stripes_1.jpg,Red_Triangle_Grid_2.jpg,left,661.1000000002678,true,high,false
SkqcLqeK,3zvpamtjxqgf8kd3gsoqdmjsr77grt,378xpawrugq3sevbv779ss3qkcgiah,SkqcLqeK,2020-0188,2020-11-21,11:56:44,12:10:59,NA,incomplete,30,number,1,left,Red_Plus_Stripes_1.jpg,Green_Star_Dots_1.jpg,Red_Triangle_Grid_4.jpg,right,1263.070000000007,false,high,false
SkqcLqeK,3zvpamtjxqgf8kd3gsoqdmjsr77grt,378xpawrugq3sevbv779ss3qkcgiah,SkqcLqeK,2020-0188,2020-11-21,11:56:44,12:10:59,NA,incomplete,31,number,1,right,Green_Triangle_Chess_3.jpg,Green_Star_Grid_2.jpg,Blue_Plus_Dots_3.jpg,right,1100.5549999999348,true,high,false
SkqcLqeK,3zvpamtjxqgf8kd3gsoqdmjsr77grt,378xpawrugq3sevbv779ss3qkcgiah,SkqcLqeK,2020-0188,2020-11-21,11:56:44,12:10:59,NA,incomplete,32,number,1,left,Green_Star_Grid_4.jpg,Purple_Circle_Stripes_4.jpg,Green_Plus_Dots_3.jpg,left,928.2599999997183,true,high,false
SkqcLqeK,3zvpamtjxqgf8kd3gsoqdmjsr77grt,378xpawrugq3sevbv779ss3qkcgiah,SkqcLqeK,2020-0188,2020-11-21,11:56:44,12:10:59,NA,incomplete,33,number,1,left,Green_Plus_Chess_3.jpg,Purple_Star_Stripes_3.jpg,Green_Circle_Dots_1.jpg,left,732.0350000000326,true,high,false
SkqcLqeK,3zvpamtjxqgf8kd3gsoqdmjsr77grt,378xpawrugq3sevbv779ss3qkcgiah,SkqcLqeK,2020-0188,2020-11-21,11:56:44,12:10:59,NA,incomplete,34,number,1,right,Red_Star_Chess_2.jpg,Red_Plus_Dots_3.jpg,Blue_Circle_Grid_2.jpg,right,1268.9650000002002,true,high,false
SkqcLqeK,3zvpamtjxqgf8kd3gsoqdmjsr77grt,378xpawrugq3sevbv779ss3qkcgiah,SkqcLqeK,2020-0188,2020-11-21,11:56:44,12:10:59,NA,incomplete,35,number,0,left,Green_Circle_Chess_1.jpg,Red_Star_Grid_1.jpg,Green_Plus_Dots_3.jpg,left,685.8700000002864,true,high,false
SkqcLqeK,3zvpamtjxqgf8kd3gsoqdmjsr77grt,378xpawrugq3sevbv779ss3qkcgiah,SkqcLqeK,2020-0188,2020-11-21,11:56:44,12:10:59,NA,incomplete,36,number,1,left,Red_Triangle_Dots_2.jpg,Purple_Plus_Stripes_2.jpg,Red_Circle_Chess_4.jpg,left,769.0199999997276,true,high,false
SkqcLqeK,3zvpamtjxqgf8kd3gsoqdmjsr77grt,378xpawrugq3sevbv779ss3qkcgiah,SkqcLqeK,2020-0188,2020-11-21,11:56:44,12:10:59,NA,incomplete,37,number,0,right,Green_Star_Grid_3.jpg,Green_Circle_Dots_4.jpg,Blue_Triangle_Chess_3.jpg,right,1446.1349999991944,true,high,false
SkqcLqeK,3zvpamtjxqgf8kd3gsoqdmjsr77grt,378xpawrugq3sevbv779ss3qkcgiah,SkqcLqeK,2020-0188,2020-11-21,11:56:44,12:10:59,NA,incomplete,38,number,1,right,Red_Triangle_Chess_1.jpg,Red_Circle_Grid_2.jpg,Green_Star_Stripes_1.jpg,right,938.2850000002072,true,high,false
SkqcLqeK,3zvpamtjxqgf8kd3gsoqdmjsr77grt,378xpawrugq3sevbv779ss3qkcgiah,SkqcLqeK,2020-0188,2020-11-21,11:56:44,12:10:59,NA,incomplete,39,number,1,right,Purple_Plus_Stripes_4.jpg,Purple_Triangle_Grid_3.jpg,Red_Circle_Dots_4.jpg,right,1002.2300000000978,true,high,false
SkqcLqeK,3zvpamtjxqgf8kd3gsoqdmjsr77grt,378xpawrugq3sevbv779ss3qkcgiah,SkqcLqeK,2020-0188,2020-11-21,11:56:44,12:10:59,NA,incomplete,40,color,1,left,Purple_Star_Stripes_1.jpg,Purple_Circle_Grid_4.jpg,Green_Plus_Dots_1.jpg,right,722.8549999999814,false,high,false
SkqcLqeK,3zvpamtjxqgf8kd3gsoqdmjsr77grt,378xpawrugq3sevbv779ss3qkcgiah,SkqcLqeK,2020-0188,2020-11-21,11:56:44,12:10:59,NA,incomplete,41,color,1,left,Green_Circle_Stripes_1.jpg,Green_Plus_Grid_4.jpg,Blue_Star_Chess_1.jpg,right,809.0949999996228,false,high,false
SkqcLqeK,3zvpamtjxqgf8kd3gsoqdmjsr77grt,378xpawrugq3sevbv779ss3qkcgiah,SkqcLqeK,2020-0188,2020-11-21,11:56:44,12:10:59,NA,incomplete,42,color,0,right,Purple_Triangle_Dots_4.jpg,Green_Plus_Grid_4.jpg,Purple_Star_Stripes_3.jpg,left,1119.0399999996298,false,high,false
SkqcLqeK,3zvpamtjxqgf8kd3gsoqdmjsr77grt,378xpawrugq3sevbv779ss3qkcgiah,SkqcLqeK,2020-0188,2020-11-21,11:56:44,12:10:59,NA,incomplete,43,color,1,right,Blue_Triangle_Grid_2.jpg,Green_Star_Dots_2.jpg,Blue_Circle_Chess_3.jpg,left,733.0250000004307,false,high,false
SkqcLqeK,3zvpamtjxqgf8kd3gsoqdmjsr77grt,378xpawrugq3sevbv779ss3qkcgiah,SkqcLqeK,2020-0188,2020-11-21,11:56:44,12:10:59,NA,incomplete,44,color,1,left,Blue_Triangle_Dots_1.jpg,Blue_Circle_Chess_4.jpg,Green_Plus_Stripes_1.jpg,right,1173.8400000003749,false,high,false
SkqcLqeK,3zvpamtjxqgf8kd3gsoqdmjsr77grt,378xpawrugq3sevbv779ss3qkcgiah,SkqcLqeK,2020-0188,2020-11-21,11:56:44,12:10:59,NA,incomplete,45,color,1,right,Red_Star_Grid_1.jpg,Blue_Triangle_Stripes_1.jpg,Red_Circle_Chess_2.jpg,right,792.1650000007357,true,high,false
SkqcLqeK,3zvpamtjxqgf8kd3gsoqdmjsr77grt,378xpawrugq3sevbv779ss3qkcgiah,SkqcLqeK,2020-0188,2020-11-21,11:56:44,12:10:59,NA,incomplete,46,color,0,left,Red_Circle_Stripes_4.jpg,Red_Triangle_Dots_1.jpg,Purple_Plus_Chess_4.jpg,left,794.2049999992596,true,high,false
SkqcLqeK,3zvpamtjxqgf8kd3gsoqdmjsr77grt,378xpawrugq3sevbv779ss3qkcgiah,SkqcLqeK,2020-0188,2020-11-21,11:56:44,12:10:59,NA,incomplete,47,color,1,right,Blue_Plus_Stripes_4.jpg,Green_Triangle_Grid_4.jpg,Blue_Circle_Dots_2.jpg,right,938.6899999999441,true,high,false
SkqcLqeK,3zvpamtjxqgf8kd3gsoqdmjsr77grt,378xpawrugq3sevbv779ss3qkcgiah,SkqcLqeK,2020-0188,2020-11-21,11:56:44,12:10:59,NA,incomplete,48,color,1,right,Purple_Star_Dots_1.jpg,Blue_Plus_Chess_1.jpg,Purple_Triangle_Stripes_2.jpg,right,917.0250000006636,true,high,false
SkqcLqeK,3zvpamtjxqgf8kd3gsoqdmjsr77grt,378xpawrugq3sevbv779ss3qkcgiah,SkqcLqeK,2020-0188,2020-11-21,11:56:44,12:10:59,NA,incomplete,49,color,1,right,Green_Triangle_Chess_2.jpg,Red_Circle_Grid_2.jpg,Green_Plus_Stripes_3.jpg,right,1088.869999999588,true,high,false
SkqcLqeK,3zvpamtjxqgf8kd3gsoqdmjsr77grt,378xpawrugq3sevbv779ss3qkcgiah,SkqcLqeK,2020-0188,2020-11-21,11:56:44,12:10:59,NA,incomplete,50,number,1,right,Red_Star_Chess_3.jpg,Red_Circle_Dots_1.jpg,Blue_Triangle_Stripes_3.jpg,left,979.5249999997322,false,high,false
SkqcLqeK,3zvpamtjxqgf8kd3gsoqdmjsr77grt,378xpawrugq3sevbv779ss3qkcgiah,SkqcLqeK,2020-0188,2020-11-21,11:56:44,12:10:59,NA,incomplete,51,number,1,right,Green_Circle_Stripes_1.jpg,Green_Plus_Chess_3.jpg,Purple_Star_Dots_1.jpg,left,911.7650000007125,false,high,false
SkqcLqeK,3zvpamtjxqgf8kd3gsoqdmjsr77grt,378xpawrugq3sevbv779ss3qkcgiah,SkqcLqeK,2020-0188,2020-11-21,11:56:44,12:10:59,NA,incomplete,52,number,1,left,Blue_Triangle_Grid_3.jpg,Green_Circle_Stripes_3.jpg,Blue_Plus_Chess_1.jpg,right,721.4050000002608,false,high,false
SkqcLqeK,3zvpamtjxqgf8kd3gsoqdmjsr77grt,378xpawrugq3sevbv779ss3qkcgiah,SkqcLqeK,2020-0188,2020-11-21,11:56:44,12:10:59,NA,incomplete,53,number,1,left,Green_Star_Chess_1.jpg,Red_Circle_Grid_1.jpg,Green_Triangle_Stripes_4.jpg,left,848.670000000333,true,high,false
SkqcLqeK,3zvpamtjxqgf8kd3gsoqdmjsr77grt,378xpawrugq3sevbv779ss3qkcgiah,SkqcLqeK,2020-0188,2020-11-21,11:56:44,12:10:59,NA,incomplete,54,number,1,right,Red_Circle_Dots_2.jpg,Red_Plus_Stripes_3.jpg,Green_Triangle_Chess_2.jpg,right,1098.5250000003143,true,high,false
SkqcLqeK,3zvpamtjxqgf8kd3gsoqdmjsr77grt,378xpawrugq3sevbv779ss3qkcgiah,SkqcLqeK,2020-0188,2020-11-21,11:56:44,12:10:59,NA,incomplete,55,number,1,left,Red_Triangle_Grid_2.jpg,Green_Star_Stripes_2.jpg,Red_Plus_Dots_1.jpg,left,1374.6849999997648,true,high,false
SkqcLqeK,3zvpamtjxqgf8kd3gsoqdmjsr77grt,378xpawrugq3sevbv779ss3qkcgiah,SkqcLqeK,2020-0188,2020-11-21,11:56:44,12:10:59,NA,incomplete,56,number,1,right,Purple_Triangle_Stripes_1.jpg,Purple_Plus_Grid_4.jpg,Blue_Circle_Dots_1.jpg,right,1443.9750000000931,true,high,false
SkqcLqeK,3zvpamtjxqgf8kd3gsoqdmjsr77grt,378xpawrugq3sevbv779ss3qkcgiah,SkqcLqeK,2020-0188,2020-11-21,11:56:44,12:10:59,NA,incomplete,57,number,0,left,Purple_Circle_Grid_3.jpg,Blue_Star_Dots_3.jpg,Purple_Plus_Stripes_2.jpg,left,1741.0549999995274,true,high,false
SkqcLqeK,3zvpamtjxqgf8kd3gsoqdmjsr77grt,378xpawrugq3sevbv779ss3qkcgiah,SkqcLqeK,2020-0188,2020-11-21,11:56:44,12:10:59,NA,incomplete,58,number,1,right,Green_Plus_Stripes_3.jpg,Green_Star_Grid_2.jpg,Red_Circle_Dots_3.jpg,right,1433.5250000003725,true,high,false
SkqcLqeK,3zvpamtjxqgf8kd3gsoqdmjsr77grt,378xpawrugq3sevbv779ss3qkcgiah,SkqcLqeK,2020-0188,2020-11-21,11:56:44,12:10:59,NA,incomplete,59,number,1,right,Blue_Triangle_Stripes_2.jpg,Blue_Circle_Chess_4.jpg,Green_Star_Dots_2.jpg,right,863.875,true,high,false
SkqcLqeK,3zvpamtjxqgf8kd3gsoqdmjsr77grt,378xpawrugq3sevbv779ss3qkcgiah,SkqcLqeK,2020-0188,2020-11-21,11:56:44,12:10:59,NA,incomplete,60,color,1,left,Green_Triangle_Chess_2.jpg,Green_Star_Stripes_1.jpg,Blue_Circle_Grid_2.jpg,right,895.3600000003935,false,high,false
SkqcLqeK,3zvpamtjxqgf8kd3gsoqdmjsr77grt,378xpawrugq3sevbv779ss3qkcgiah,SkqcLqeK,2020-0188,2020-11-21,11:56:44,12:10:59,NA,incomplete,61,color,1,left,Purple_Triangle_Grid_3.jpg,Purple_Circle_Chess_1.jpg,Green_Star_Dots_3.jpg,right,1331.4350000000559,false,high,false
SkqcLqeK,3zvpamtjxqgf8kd3gsoqdmjsr77grt,378xpawrugq3sevbv779ss3qkcgiah,SkqcLqeK,2020-0188,2020-11-21,11:56:44,12:10:59,NA,incomplete,62,color,1,right,Green_Circle_Grid_1.jpg,Red_Triangle_Chess_1.jpg,Green_Plus_Dots_4.jpg,right,824.5300000007846,true,high,false
SkqcLqeK,3zvpamtjxqgf8kd3gsoqdmjsr77grt,378xpawrugq3sevbv779ss3qkcgiah,SkqcLqeK,2020-0188,2020-11-21,11:56:44,12:10:59,NA,incomplete,63,color,1,left,Green_Triangle_Stripes_4.jpg,Green_Circle_Dots_3.jpg,Red_Star_Chess_4.jpg,left,792.1150000001653,true,high,false
SkqcLqeK,3zvpamtjxqgf8kd3gsoqdmjsr77grt,378xpawrugq3sevbv779ss3qkcgiah,SkqcLqeK,2020-0188,2020-11-21,11:56:44,12:10:59,NA,incomplete,64,color,1,right,Green_Triangle_Stripes_3.jpg,Red_Plus_Chess_3.jpg,Green_Star_Dots_2.jpg,right,680.4899999996996,true,high,false
SkqcLqeK,3zvpamtjxqgf8kd3gsoqdmjsr77grt,378xpawrugq3sevbv779ss3qkcgiah,SkqcLqeK,2020-0188,2020-11-21,11:56:44,12:10:59,NA,incomplete,65,color,1,right,Blue_Plus_Grid_4.jpg,Green_Circle_Chess_4.jpg,Blue_Star_Dots_2.jpg,right,1160.8499999993364,true,high,false
SkqcLqeK,3zvpamtjxqgf8kd3gsoqdmjsr77grt,378xpawrugq3sevbv779ss3qkcgiah,SkqcLqeK,2020-0188,2020-11-21,11:56:44,12:10:59,NA,incomplete,66,color,1,right,Purple_Triangle_Stripes_1.jpg,Green_Plus_Chess_1.jpg,Purple_Star_Grid_4.jpg,right,766.8549999998068,true,high,false
SkqcLqeK,3zvpamtjxqgf8kd3gsoqdmjsr77grt,378xpawrugq3sevbv779ss3qkcgiah,SkqcLqeK,2020-0188,2020-11-21,11:56:44,12:10:59,NA,incomplete,67,color,1,right,Blue_Star_Stripes_1.jpg,Green_Triangle_Dots_1.jpg,Blue_Plus_Chess_2.jpg,right,576.7949999999255,true,high,false
SkqcLqeK,3zvpamtjxqgf8kd3gsoqdmjsr77grt,378xpawrugq3sevbv779ss3qkcgiah,SkqcLqeK,2020-0188,2020-11-21,11:56:44,12:10:59,NA,incomplete,68,color,0,right,Red_Star_Grid_1.jpg,Blue_Plus_Stripes_1.jpg,Red_Circle_Dots_3.jpg,right,547.770000000135,true,high,false
SkqcLqeK,3zvpamtjxqgf8kd3gsoqdmjsr77grt,378xpawrugq3sevbv779ss3qkcgiah,SkqcLqeK,2020-0188,2020-11-21,11:56:44,12:10:59,NA,incomplete,69,color,1,right,Green_Star_Grid_4.jpg,Blue_Plus_Stripes_4.jpg,Green_Triangle_Dots_2.jpg,right,530.3800000001793,true,high,false
SkqcLqeK,3zvpamtjxqgf8kd3gsoqdmjsr77grt,378xpawrugq3sevbv779ss3qkcgiah,SkqcLqeK,2020-0188,2020-11-21,11:56:44,12:10:59,NA,incomplete,70,number,1,left,Purple_Star_Chess_2.jpg,Red_Plus_Dots_2.jpg,Purple_Circle_Stripes_4.jpg,right,691.6000000000931,false,high,false
SkqcLqeK,3zvpamtjxqgf8kd3gsoqdmjsr77grt,378xpawrugq3sevbv779ss3qkcgiah,SkqcLqeK,2020-0188,2020-11-21,11:56:44,12:10:59,NA,incomplete,71,number,1,right,Red_Triangle_Stripes_3.jpg,Red_Circle_Grid_4.jpg,Purple_Star_Chess_3.jpg,left,762.9349999997648,false,high,false
SkqcLqeK,3zvpamtjxqgf8kd3gsoqdmjsr77grt,378xpawrugq3sevbv779ss3qkcgiah,SkqcLqeK,2020-0188,2020-11-21,11:56:44,12:10:59,NA,incomplete,72,number,1,left,Blue_Star_Grid_4.jpg,Red_Circle_Dots_4.jpg,Blue_Plus_Chess_1.jpg,right,679.2649999997811,false,high,false
SkqcLqeK,3zvpamtjxqgf8kd3gsoqdmjsr77grt,378xpawrugq3sevbv779ss3qkcgiah,SkqcLqeK,2020-0188,2020-11-21,11:56:44,12:10:59,NA,incomplete,73,number,1,left,Purple_Star_Stripes_1.jpg,Red_Triangle_Dots_1.jpg,Purple_Circle_Grid_3.jpg,left,886.7749999999069,true,high,false
SkqcLqeK,3zvpamtjxqgf8kd3gsoqdmjsr77grt,378xpawrugq3sevbv779ss3qkcgiah,SkqcLqeK,2020-0188,2020-11-21,11:56:44,12:10:59,NA,incomplete,74,number,0,left,Green_Plus_Chess_2.jpg,Purple_Triangle_Stripes_2.jpg,Green_Circle_Dots_4.jpg,left,990.8600000008009,true,high,false
SkqcLqeK,3zvpamtjxqgf8kd3gsoqdmjsr77grt,378xpawrugq3sevbv779ss3qkcgiah,SkqcLqeK,2020-0188,2020-11-21,11:56:44,12:10:59,NA,incomplete,75,number,1,left,Red_Circle_Chess_3.jpg,Blue_Triangle_Stripes_3.jpg,Red_Plus_Dots_1.jpg,left,1827.565000000468,true,high,false
SkqcLqeK,3zvpamtjxqgf8kd3gsoqdmjsr77grt,378xpawrugq3sevbv779ss3qkcgiah,SkqcLqeK,2020-0188,2020-11-21,11:56:44,12:10:59,NA,incomplete,76,number,1,left,Blue_Star_Dots_1.jpg,Purple_Triangle_Grid_1.jpg,Blue_Plus_Stripes_4.jpg,left,773.5899999997928,true,high,false
SkqcLqeK,3zvpamtjxqgf8kd3gsoqdmjsr77grt,378xpawrugq3sevbv779ss3qkcgiah,SkqcLqeK,2020-0188,2020-11-21,11:56:44,12:10:59,NA,incomplete,77,number,1,left,Green_Plus_Chess_2.jpg,Purple_Circle_Grid_2.jpg,Green_Star_Dots_4.jpg,left,728.3849999994854,true,high,false
SkqcLqeK,3zvpamtjxqgf8kd3gsoqdmjsr77grt,378xpawrugq3sevbv779ss3qkcgiah,SkqcLqeK,2020-0188,2020-11-21,11:56:44,12:10:59,NA,incomplete,78,number,1,left,Green_Circle_Chess_4.jpg,Blue_Star_Dots_4.jpg,Green_Plus_Stripes_3.jpg,left,1604.3849999996019,true,high,false
SkqcLqeK,3zvpamtjxqgf8kd3gsoqdmjsr77grt,378xpawrugq3sevbv779ss3qkcgiah,SkqcLqeK,2020-0188,2020-11-21,11:56:44,12:10:59,NA,incomplete,79,number,1,left,Red_Circle_Stripes_4.jpg,Green_Plus_Dots_4.jpg,Red_Star_Grid_1.jpg,left,813.4799999998068,true,high,false
SkqcLqeK,3zvpamtjxqgf8kd3gsoqdmjsr77grt,378xpawrugq3sevbv779ss3qkcgiah,SkqcLqeK,2020-0188,2020-11-21,11:56:44,12:10:59,NA,incomplete,80,color,1,left,Blue_Plus_Stripes_4.jpg,Blue_Circle_Grid_2.jpg,Green_Triangle_Dots_4.jpg,right,899.9650000004913,false,high,false
SkqcLqeK,3zvpamtjxqgf8kd3gsoqdmjsr77grt,378xpawrugq3sevbv779ss3qkcgiah,SkqcLqeK,2020-0188,2020-11-21,11:56:44,12:10:59,NA,incomplete,81,color,1,right,Purple_Plus_Chess_3.jpg,Red_Triangle_Dots_3.jpg,Purple_Star_Stripes_4.jpg,left,1091.5500000001048,false,high,false
SkqcLqeK,3zvpamtjxqgf8kd3gsoqdmjsr77grt,378xpawrugq3sevbv779ss3qkcgiah,SkqcLqeK,2020-0188,2020-11-21,11:56:44,12:10:59,NA,incomplete,82,color,1,left,Blue_Triangle_Stripes_3.jpg,Blue_Star_Chess_4.jpg,Green_Plus_Dots_3.jpg,right,1306.2449999997625,false,high,false
SkqcLqeK,3zvpamtjxqgf8kd3gsoqdmjsr77grt,378xpawrugq3sevbv779ss3qkcgiah,SkqcLqeK,2020-0188,2020-11-21,11:56:44,12:10:59,NA,incomplete,83,color,0,left,Blue_Circle_Stripes_3.jpg,Blue_Plus_Dots_4.jpg,Purple_Triangle_Grid_3.jpg,right,783.8200000005891,false,high,false
SkqcLqeK,3zvpamtjxqgf8kd3gsoqdmjsr77grt,378xpawrugq3sevbv779ss3qkcgiah,SkqcLqeK,2020-0188,2020-11-21,11:56:44,12:10:59,NA,incomplete,84,color,0,left,Blue_Star_Dots_4.jpg,Blue_Plus_Grid_3.jpg,Purple_Circle_Stripes_4.jpg,right,960.8049999997602,false,high,false
SkqcLqeK,3zvpamtjxqgf8kd3gsoqdmjsr77grt,378xpawrugq3sevbv779ss3qkcgiah,SkqcLqeK,2020-0188,2020-11-21,11:56:44,12:10:59,NA,incomplete,85,color,1,left,Blue_Plus_Dots_1.jpg,Blue_Star_Chess_3.jpg,Purple_Circle_Stripes_1.jpg,right,1138.2149999999092,false,high,false
SkqcLqeK,3zvpamtjxqgf8kd3gsoqdmjsr77grt,378xpawrugq3sevbv779ss3qkcgiah,SkqcLqeK,2020-0188,2020-11-21,11:56:44,12:10:59,NA,incomplete,86,color,1,right,Purple_Triangle_Grid_3.jpg,Blue_Star_Chess_3.jpg,Purple_Circle_Dots_4.jpg,right,1277.379999999539,true,high,false
SkqcLqeK,3zvpamtjxqgf8kd3gsoqdmjsr77grt,378xpawrugq3sevbv779ss3qkcgiah,SkqcLqeK,2020-0188,2020-11-21,11:56:44,12:10:59,NA,incomplete,87,color,1,left,Green_Circle_Grid_1.jpg,Green_Plus_Dots_3.jpg,Blue_Star_Stripes_1.jpg,left,686.4299999997602,true,high,false
SkqcLqeK,3zvpamtjxqgf8kd3gsoqdmjsr77grt,378xpawrugq3sevbv779ss3qkcgiah,SkqcLqeK,2020-0188,2020-11-21,11:56:44,12:10:59,NA,incomplete,88,color,1,right,Red_Plus_Stripes_4.jpg,Purple_Triangle_Dots_4.jpg,Red_Star_Chess_1.jpg,left,1719.08999999956,false,high,false
SkqcLqeK,3zvpamtjxqgf8kd3gsoqdmjsr77grt,378xpawrugq3sevbv779ss3qkcgiah,SkqcLqeK,2020-0188,2020-11-21,11:56:44,12:10:59,NA,incomplete,89,color,0,left,Green_Circle_Dots_4.jpg,Green_Triangle_Chess_1.jpg,Blue_Plus_Stripes_4.jpg,right,909.8099999991828,false,high,false
SkqcLqeK,3zvpamtjxqgf8kd3gsoqdmjsr77grt,378xpawrugq3sevbv779ss3qkcgiah,SkqcLqeK,2020-0188,2020-11-21,11:56:44,12:10:59,NA,incomplete,90,number,1,right,Purple_Star_Chess_2.jpg,Purple_Plus_Stripes_4.jpg,Green_Triangle_Grid_2.jpg,right,1174.2449999992969,true,high,false
SkqcLqeK,3zvpamtjxqgf8kd3gsoqdmjsr77grt,378xpawrugq3sevbv779ss3qkcgiah,SkqcLqeK,2020-0188,2020-11-21,11:56:44,12:10:59,NA,incomplete,91,number,1,left,Blue_Star_Dots_3.jpg,Purple_Triangle_Stripes_3.jpg,Blue_Plus_Grid_1.jpg,left,1011.2600000002421,true,high,false
SkqcLqeK,3zvpamtjxqgf8kd3gsoqdmjsr77grt,378xpawrugq3sevbv779ss3qkcgiah,SkqcLqeK,2020-0188,2020-11-21,11:56:44,12:10:59,NA,incomplete,92,number,1,left,Red_Triangle_Dots_1.jpg,Purple_Circle_Stripes_1.jpg,Red_Plus_Grid_2.jpg,left,816.5449999996927,true,high,false
SkqcLqeK,3zvpamtjxqgf8kd3gsoqdmjsr77grt,378xpawrugq3sevbv779ss3qkcgiah,SkqcLqeK,2020-0188,2020-11-21,11:56:44,12:10:59,NA,incomplete,93,number,1,left,Red_Star_Chess_3.jpg,Blue_Triangle_Dots_3.jpg,Red_Plus_Grid_1.jpg,left,818.2100000003702,true,high,false
SkqcLqeK,3zvpamtjxqgf8kd3gsoqdmjsr77grt,378xpawrugq3sevbv779ss3qkcgiah,SkqcLqeK,2020-0188,2020-11-21,11:56:44,12:10:59,NA,incomplete,94,number,1,right,Purple_Plus_Stripes_4.jpg,Purple_Triangle_Dots_2.jpg,Green_Star_Grid_4.jpg,right,764.594999999681,true,high,false
SkqcLqeK,3zvpamtjxqgf8kd3gsoqdmjsr77grt,378xpawrugq3sevbv779ss3qkcgiah,SkqcLqeK,2020-0188,2020-11-21,11:56:44,12:10:59,NA,incomplete,95,number,0,left,Blue_Star_Chess_2.jpg,Green_Plus_Dots_2.jpg,Blue_Circle_Stripes_3.jpg,left,776.5700000009383,true,high,false
SkqcLqeK,3zvpamtjxqgf8kd3gsoqdmjsr77grt,378xpawrugq3sevbv779ss3qkcgiah,SkqcLqeK,2020-0188,2020-11-21,11:56:44,12:10:59,NA,incomplete,96,number,1,right,Purple_Plus_Chess_4.jpg,Purple_Triangle_Dots_2.jpg,Red_Star_Stripes_4.jpg,left,722.8949999999022,false,high,false
SkqcLqeK,3zvpamtjxqgf8kd3gsoqdmjsr77grt,378xpawrugq3sevbv779ss3qkcgiah,SkqcLqeK,2020-0188,2020-11-21,11:56:44,12:10:59,NA,incomplete,97,number,1,left,Purple_Star_Chess_3.jpg,Green_Plus_Grid_3.jpg,Purple_Triangle_Dots_4.jpg,right,750.1900000006426,false,high,false
SkqcLqeK,3zvpamtjxqgf8kd3gsoqdmjsr77grt,378xpawrugq3sevbv779ss3qkcgiah,SkqcLqeK,2020-0188,2020-11-21,11:56:44,12:10:59,NA,incomplete,98,number,1,left,Purple_Circle_Chess_4.jpg,Blue_Plus_Dots_4.jpg,Purple_Triangle_Stripes_1.jpg,left,801.800000000163,true,high,false
SkqcLqeK,3zvpamtjxqgf8kd3gsoqdmjsr77grt,378xpawrugq3sevbv779ss3qkcgiah,SkqcLqeK,2020-0188,2020-11-21,11:56:44,12:10:59,NA,incomplete,99,number,1,right,Green_Star_Grid_3.jpg,Green_Plus_Dots_2.jpg,Blue_Circle_Stripes_3.jpg,right,1789.3250000005937,true,high,false
SkqcLqeK,3zvpamtjxqgf8kd3gsoqdmjsr77grt,378xpawrugq3sevbv779ss3qkcgiah,SkqcLqeK,2020-0188,2020-11-21,11:56:44,12:10:59,NA,incomplete,100,color,1,left,Red_Star_Dots_2.jpg,Red_Plus_Chess_4.jpg,Green_Triangle_Stripes_2.jpg,right,948.0100000000675,false,high,false
SkqcLqeK,3zvpamtjxqgf8kd3gsoqdmjsr77grt,378xpawrugq3sevbv779ss3qkcgiah,SkqcLqeK,2020-0188,2020-11-21,11:56:44,12:10:59,NA,incomplete,101,color,0,left,Blue_Plus_Chess_4.jpg,Blue_Star_Stripes_3.jpg,Green_Circle_Dots_4.jpg,none,0,false,high,false
SkqcLqeK,3zvpamtjxqgf8kd3gsoqdmjsr77grt,378xpawrugq3sevbv779ss3qkcgiah,SkqcLqeK,2020-0188,2020-11-21,11:56:44,12:10:59,NA,incomplete,102,color,1,right,Blue_Circle_Grid_4.jpg,Purple_Triangle_Dots_4.jpg,Blue_Plus_Chess_1.jpg,left,805.3949999993783,false,high,false
SkqcLqeK,3zvpamtjxqgf8kd3gsoqdmjsr77grt,378xpawrugq3sevbv779ss3qkcgiah,SkqcLqeK,2020-0188,2020-11-21,11:56:44,12:10:59,NA,incomplete,103,color,1,right,Purple_Circle_Chess_2.jpg,Green_Triangle_Grid_2.jpg,Purple_Star_Stripes_4.jpg,left,918.9550000001327,false,high,false
SkqcLqeK,3zvpamtjxqgf8kd3gsoqdmjsr77grt,378xpawrugq3sevbv779ss3qkcgiah,SkqcLqeK,2020-0188,2020-11-21,11:56:44,12:10:59,NA,incomplete,104,color,1,right,Green_Triangle_Stripes_2.jpg,Purple_Circle_Dots_2.jpg,Green_Plus_Grid_4.jpg,right,1177.040000000503,true,high,false
SkqcLqeK,3zvpamtjxqgf8kd3gsoqdmjsr77grt,378xpawrugq3sevbv779ss3qkcgiah,SkqcLqeK,2020-0188,2020-11-21,11:56:44,12:10:59,NA,incomplete,105,color,1,right,Purple_Plus_Grid_4.jpg,Red_Circle_Dots_4.jpg,Purple_Triangle_Chess_2.jpg,right,1010.8199999994831,true,high,false
SkqcLqeK,3zvpamtjxqgf8kd3gsoqdmjsr77grt,378xpawrugq3sevbv779ss3qkcgiah,SkqcLqeK,2020-0188,2020-11-21,11:56:44,12:10:59,NA,incomplete,106,color,1,right,Purple_Star_Chess_1.jpg,Green_Plus_Dots_1.jpg,Purple_Circle_Stripes_3.jpg,right,906.5099999997765,true,high,false
SkqcLqeK,3zvpamtjxqgf8kd3gsoqdmjsr77grt,378xpawrugq3sevbv779ss3qkcgiah,SkqcLqeK,2020-0188,2020-11-21,11:56:44,12:10:59,NA,incomplete,107,color,1,left,Blue_Circle_Stripes_4.jpg,Blue_Triangle_Grid_3.jpg,Green_Plus_Dots_4.jpg,left,689.245000000461,true,high,false
SkqcLqeK,3zvpamtjxqgf8kd3gsoqdmjsr77grt,378xpawrugq3sevbv779ss3qkcgiah,SkqcLqeK,2020-0188,2020-11-21,11:56:44,12:10:59,NA,incomplete,108,color,1,right,Red_Star_Grid_2.jpg,Purple_Circle_Dots_2.jpg,Red_Plus_Chess_3.jpg,right,766.0349999996834,true,high,false
SkqcLqeK,3zvpamtjxqgf8kd3gsoqdmjsr77grt,378xpawrugq3sevbv779ss3qkcgiah,SkqcLqeK,2020-0188,2020-11-21,11:56:44,12:10:59,NA,incomplete,109,color,1,left,Blue_Star_Dots_4.jpg,Blue_Circle_Stripes_3.jpg,Purple_Triangle_Chess_4.jpg,left,848.0349999999744,true,high,false
SkqcLqeK,3zvpamtjxqgf8kd3gsoqdmjsr77grt,378xpawrugq3sevbv779ss3qkcgiah,SkqcLqeK,2020-0188,2020-11-21,11:56:44,12:10:59,NA,incomplete,110,number,0,right,Green_Plus_Stripes_1.jpg,Green_Triangle_Chess_2.jpg,Purple_Circle_Dots_1.jpg,left,649.7799999997369,false,high,false
SkqcLqeK,3zvpamtjxqgf8kd3gsoqdmjsr77grt,378xpawrugq3sevbv779ss3qkcgiah,SkqcLqeK,2020-0188,2020-11-21,11:56:44,12:10:59,NA,incomplete,111,number,1,left,Green_Star_Stripes_2.jpg,Purple_Plus_Chess_2.jpg,Green_Triangle_Grid_4.jpg,right,783.4199999997509,false,high,false
SkqcLqeK,3zvpamtjxqgf8kd3gsoqdmjsr77grt,378xpawrugq3sevbv779ss3qkcgiah,SkqcLqeK,2020-0188,2020-11-21,11:56:44,12:10:59,NA,incomplete,112,number,0,right,Purple_Plus_Stripes_1.jpg,Purple_Triangle_Dots_3.jpg,Red_Circle_Chess_1.jpg,left,787.180000000284,false,high,false
SkqcLqeK,3zvpamtjxqgf8kd3gsoqdmjsr77grt,378xpawrugq3sevbv779ss3qkcgiah,SkqcLqeK,2020-0188,2020-11-21,11:56:44,12:10:59,NA,incomplete,113,number,1,left,Red_Circle_Stripes_1.jpg,Green_Star_Grid_1.jpg,Red_Triangle_Chess_3.jpg,right,835.9749999999767,false,high,false
SkqcLqeK,3zvpamtjxqgf8kd3gsoqdmjsr77grt,378xpawrugq3sevbv779ss3qkcgiah,SkqcLqeK,2020-0188,2020-11-21,11:56:44,12:10:59,NA,incomplete,114,number,1,left,Purple_Plus_Dots_1.jpg,Red_Star_Stripes_1.jpg,Purple_Triangle_Grid_4.jpg,right,646.6749999999302,false,high,false
SkqcLqeK,3zvpamtjxqgf8kd3gsoqdmjsr77grt,378xpawrugq3sevbv779ss3qkcgiah,SkqcLqeK,2020-0188,2020-11-21,11:56:44,12:10:59,NA,incomplete,115,number,1,left,Purple_Star_Dots_2.jpg,Blue_Circle_Chess_2.jpg,Purple_Plus_Stripes_4.jpg,left,846.6699999999255,true,high,false
SkqcLqeK,3zvpamtjxqgf8kd3gsoqdmjsr77grt,378xpawrugq3sevbv779ss3qkcgiah,SkqcLqeK,2020-0188,2020-11-21,11:56:44,12:10:59,NA,incomplete,116,number,0,right,Purple_Star_Stripes_3.jpg,Purple_Plus_Grid_2.jpg,Blue_Circle_Chess_3.jpg,right,1951.044999999809,true,high,false
SkqcLqeK,3zvpamtjxqgf8kd3gsoqdmjsr77grt,378xpawrugq3sevbv779ss3qkcgiah,SkqcLqeK,2020-0188,2020-11-21,11:56:44,12:10:59,NA,incomplete,117,number,1,right,Red_Triangle_Dots_4.jpg,Red_Star_Chess_2.jpg,Green_Circle_Grid_4.jpg,right,1263.4600000001374,true,high,false
SkqcLqeK,3zvpamtjxqgf8kd3gsoqdmjsr77grt,378xpawrugq3sevbv779ss3qkcgiah,SkqcLqeK,2020-0188,2020-11-21,11:56:44,12:10:59,NA,incomplete,118,number,1,right,Purple_Plus_Dots_2.jpg,Purple_Circle_Grid_3.jpg,Green_Star_Chess_2.jpg,right,1627.4100000000908,true,high,false
SkqcLqeK,3zvpamtjxqgf8kd3gsoqdmjsr77grt,378xpawrugq3sevbv779ss3qkcgiah,SkqcLqeK,2020-0188,2020-11-21,11:56:44,12:10:59,NA,incomplete,119,number,1,left,Purple_Star_Grid_1.jpg,Blue_Plus_Dots_1.jpg,Purple_Triangle_Chess_2.jpg,left,634.3399999996182,true,high,false
SkqcLqeK,3zvpamtjxqgf8kd3gsoqdmjsr77grt,378xpawrugq3sevbv779ss3qkcgiah,SkqcLqeK,2020-0188,2020-11-21,11:56:44,12:10:59,NA,incomplete,120,color,1,left,Red_Star_Dots_2.jpg,Red_Circle_Chess_4.jpg,Purple_Triangle_Stripes_2.jpg,right,966.1149999992922,false,high,false
SkqcLqeK,3zvpamtjxqgf8kd3gsoqdmjsr77grt,378xpawrugq3sevbv779ss3qkcgiah,SkqcLqeK,2020-0188,2020-11-21,11:56:44,12:10:59,NA,incomplete,121,color,1,left,Green_Plus_Grid_2.jpg,Green_Triangle_Chess_4.jpg,Red_Star_Dots_2.jpg,right,863.5500000000466,false,high,false
SkqcLqeK,3zvpamtjxqgf8kd3gsoqdmjsr77grt,378xpawrugq3sevbv779ss3qkcgiah,SkqcLqeK,2020-0188,2020-11-21,11:56:44,12:10:59,NA,incomplete,122,color,1,right,Green_Plus_Stripes_3.jpg,Blue_Triangle_Grid_3.jpg,Green_Circle_Chess_2.jpg,right,1533.255000000354,true,high,false
SkqcLqeK,3zvpamtjxqgf8kd3gsoqdmjsr77grt,378xpawrugq3sevbv779ss3qkcgiah,SkqcLqeK,2020-0188,2020-11-21,11:56:44,12:10:59,NA,incomplete,123,color,1,right,Green_Circle_Grid_4.jpg,Red_Star_Stripes_4.jpg,Green_Triangle_Dots_2.jpg,right,1343.5199999994365,true,high,false
SkqcLqeK,3zvpamtjxqgf8kd3gsoqdmjsr77grt,378xpawrugq3sevbv779ss3qkcgiah,SkqcLqeK,2020-0188,2020-11-21,11:56:44,12:10:59,NA,incomplete,124,color,1,right,Green_Triangle_Dots_1.jpg,Red_Plus_Grid_1.jpg,Green_Circle_Stripes_4.jpg,right,1049.710000000312,true,high,false
SkqcLqeK,3zvpamtjxqgf8kd3gsoqdmjsr77grt,378xpawrugq3sevbv779ss3qkcgiah,SkqcLqeK,2020-0188,2020-11-21,11:56:44,12:10:59,NA,incomplete,125,color,1,left,Green_Star_Grid_1.jpg,Green_Plus_Chess_3.jpg,Purple_Circle_Stripes_1.jpg,left,902.6300000005867,true,high,false
SkqcLqeK,3zvpamtjxqgf8kd3gsoqdmjsr77grt,378xpawrugq3sevbv779ss3qkcgiah,SkqcLqeK,2020-0188,2020-11-21,11:56:44,12:10:59,NA,incomplete,126,color,1,left,Blue_Circle_Dots_4.jpg,Blue_Plus_Stripes_3.jpg,Red_Star_Chess_4.jpg,left,874.6250000003492,true,high,false
SkqcLqeK,3zvpamtjxqgf8kd3gsoqdmjsr77grt,378xpawrugq3sevbv779ss3qkcgiah,SkqcLqeK,2020-0188,2020-11-21,11:56:44,12:10:59,NA,incomplete,127,color,1,right,Red_Plus_Chess_3.jpg,Purple_Triangle_Grid_3.jpg,Red_Star_Dots_1.jpg,right,1067.9250000002794,true,high,false
SkqcLqeK,3zvpamtjxqgf8kd3gsoqdmjsr77grt,378xpawrugq3sevbv779ss3qkcgiah,SkqcLqeK,2020-0188,2020-11-21,11:56:44,12:10:59,NA,incomplete,128,color,1,right,Red_Triangle_Grid_2.jpg,Green_Circle_Stripes_2.jpg,Red_Plus_Chess_1.jpg,right,858.4650000003166,true,high,false
SkqcLqeK,3zvpamtjxqgf8kd3gsoqdmjsr77grt,378xpawrugq3sevbv779ss3qkcgiah,SkqcLqeK,2020-0188,2020-11-21,11:56:44,12:10:59,NA,incomplete,129,color,0,right,Red_Triangle_Dots_3.jpg,Blue_Star_Chess_3.jpg,Red_Plus_Grid_4.jpg,right,564.3500000005588,true,high,false
SkqcLqeK,3zvpamtjxqgf8kd3gsoqdmjsr77grt,378xpawrugq3sevbv779ss3qkcgiah,SkqcLqeK,2020-0188,2020-11-21,11:56:44,12:10:59,NA,incomplete,130,color,1,right,Red_Star_Dots_3.jpg,Green_Triangle_Grid_3.jpg,Red_Circle_Chess_2.jpg,right,617.479999999865,true,high,false
SkqcLqeK,3zvpamtjxqgf8kd3gsoqdmjsr77grt,378xpawrugq3sevbv779ss3qkcgiah,SkqcLqeK,2020-0188,2020-11-21,11:56:44,12:10:59,NA,incomplete,131,color,1,left,Red_Star_Stripes_3.jpg,Red_Plus_Dots_2.jpg,Green_Triangle_Grid_3.jpg,left,824.3700000002282,true,high,false
SkqcLqeK,3zvpamtjxqgf8kd3gsoqdmjsr77grt,378xpawrugq3sevbv779ss3qkcgiah,SkqcLqeK,2020-0188,2020-11-21,11:56:44,12:10:59,NA,incomplete,132,color,0,left,Red_Star_Stripes_3.jpg,Red_Triangle_Dots_4.jpg,Blue_Plus_Grid_3.jpg,left,694.819999999716,true,high,false
SkqcLqeK,3zvpamtjxqgf8kd3gsoqdmjsr77grt,378xpawrugq3sevbv779ss3qkcgiah,SkqcLqeK,2020-0188,2020-11-21,11:56:44,12:10:59,NA,incomplete,133,color,1,left,Green_Circle_Grid_2.jpg,Green_Triangle_Dots_4.jpg,Purple_Star_Chess_2.jpg,left,682.934999999823,true,high,false
SkqcLqeK,3zvpamtjxqgf8kd3gsoqdmjsr77grt,378xpawrugq3sevbv779ss3qkcgiah,SkqcLqeK,2020-0188,2020-11-21,11:56:44,12:10:59,NA,incomplete,134,color,1,right,Green_Circle_Chess_3.jpg,Blue_Plus_Grid_3.jpg,Green_Triangle_Stripes_2.jpg,right,806.2399999998743,true,high,false
SkqcLqeK,3zvpamtjxqgf8kd3gsoqdmjsr77grt,378xpawrugq3sevbv779ss3qkcgiah,SkqcLqeK,2020-0188,2020-11-21,11:56:44,12:10:59,NA,incomplete,135,color,1,right,Blue_Star_Chess_2.jpg,Purple_Circle_Dots_2.jpg,Blue_Triangle_Stripes_1.jpg,right,690.2399999998743,true,high,false
SkqcLqeK,3zvpamtjxqgf8kd3gsoqdmjsr77grt,378xpawrugq3sevbv779ss3qkcgiah,SkqcLqeK,2020-0188,2020-11-21,11:56:44,12:10:59,NA,incomplete,136,color,1,right,Red_Star_Chess_1.jpg,Purple_Triangle_Stripes_1.jpg,Red_Plus_Grid_3.jpg,right,732.2899999999208,true,high,false
SkqcLqeK,3zvpamtjxqgf8kd3gsoqdmjsr77grt,378xpawrugq3sevbv779ss3qkcgiah,SkqcLqeK,2020-0188,2020-11-21,11:56:44,12:10:59,NA,incomplete,137,color,1,left,Green_Star_Dots_2.jpg,Green_Triangle_Chess_1.jpg,Purple_Plus_Stripes_2.jpg,left,880.9449999999488,true,high,false
SkqcLqeK,3zvpamtjxqgf8kd3gsoqdmjsr77grt,378xpawrugq3sevbv779ss3qkcgiah,SkqcLqeK,2020-0188,2020-11-21,11:56:44,12:10:59,NA,incomplete,138,color,1,right,Blue_Circle_Dots_1.jpg,Red_Triangle_Stripes_1.jpg,Blue_Star_Grid_4.jpg,right,717.6350000000093,true,high,false
SkqcLqeK,3zvpamtjxqgf8kd3gsoqdmjsr77grt,378xpawrugq3sevbv779ss3qkcgiah,SkqcLqeK,2020-0188,2020-11-21,11:56:44,12:10:59,NA,incomplete,139,color,1,left,Green_Circle_Grid_4.jpg,Green_Star_Dots_3.jpg,Blue_Plus_Chess_4.jpg,left,730.2449999997625,true,high,false
SkqcLqeK,3zvpamtjxqgf8kd3gsoqdmjsr77grt,378xpawrugq3sevbv779ss3qkcgiah,SkqcLqeK,2020-0188,2020-11-21,11:56:44,12:10:59,NA,incomplete,140,number,0,left,Blue_Triangle_Dots_2.jpg,Red_Plus_Chess_2.jpg,Blue_Circle_Stripes_3.jpg,right,635.729999999865,false,high,false
SkqcLqeK,3zvpamtjxqgf8kd3gsoqdmjsr77grt,378xpawrugq3sevbv779ss3qkcgiah,SkqcLqeK,2020-0188,2020-11-21,11:56:44,12:10:59,NA,incomplete,141,number,1,right,Green_Plus_Grid_2.jpg,Green_Star_Dots_3.jpg,Purple_Circle_Stripes_2.jpg,left,539.8599999998696,false,high,false
SkqcLqeK,3zvpamtjxqgf8kd3gsoqdmjsr77grt,378xpawrugq3sevbv779ss3qkcgiah,SkqcLqeK,2020-0188,2020-11-21,11:56:44,12:10:59,NA,incomplete,142,number,1,right,Purple_Circle_Dots_2.jpg,Purple_Star_Stripes_1.jpg,Blue_Triangle_Grid_2.jpg,left,593.3399999993853,false,high,false
SkqcLqeK,3zvpamtjxqgf8kd3gsoqdmjsr77grt,378xpawrugq3sevbv779ss3qkcgiah,SkqcLqeK,2020-0188,2020-11-21,11:56:44,12:10:59,NA,incomplete,143,number,1,right,Blue_Circle_Stripes_4.jpg,Blue_Star_Grid_1.jpg,Green_Triangle_Chess_4.jpg,right,794.0250000001397,true,high,false
SkqcLqeK,3zvpamtjxqgf8kd3gsoqdmjsr77grt,378xpawrugq3sevbv779ss3qkcgiah,SkqcLqeK,2020-0188,2020-11-21,11:56:44,12:10:59,NA,incomplete,144,number,1,left,Purple_Plus_Grid_2.jpg,Blue_Star_Stripes_2.jpg,Purple_Circle_Dots_4.jpg,left,1429.2399999994086,true,high,false
SkqcLqeK,3zvpamtjxqgf8kd3gsoqdmjsr77grt,378xpawrugq3sevbv779ss3qkcgiah,SkqcLqeK,2020-0188,2020-11-21,11:56:44,12:10:59,NA,incomplete,145,number,0,right,Purple_Plus_Grid_3.jpg,Purple_Triangle_Chess_4.jpg,Green_Circle_Stripes_3.jpg,right,1812.3800000002375,true,high,false
SkqcLqeK,3zvpamtjxqgf8kd3gsoqdmjsr77grt,378xpawrugq3sevbv779ss3qkcgiah,SkqcLqeK,2020-0188,2020-11-21,11:56:44,12:10:59,NA,incomplete,146,number,1,right,Purple_Plus_Chess_3.jpg,Purple_Triangle_Dots_1.jpg,Blue_Circle_Stripes_3.jpg,right,962.0549999999348,true,high,false
SkqcLqeK,3zvpamtjxqgf8kd3gsoqdmjsr77grt,378xpawrugq3sevbv779ss3qkcgiah,SkqcLqeK,2020-0188,2020-11-21,11:56:44,12:10:59,NA,incomplete,147,number,1,left,Blue_Circle_Chess_3.jpg,Purple_Triangle_Stripes_3.jpg,Blue_Star_Grid_1.jpg,left,1104.9450000000652,true,high,false
SkqcLqeK,3zvpamtjxqgf8kd3gsoqdmjsr77grt,378xpawrugq3sevbv779ss3qkcgiah,SkqcLqeK,2020-0188,2020-11-21,11:56:44,12:10:59,NA,incomplete,148,number,1,right,Green_Circle_Grid_3.jpg,Green_Plus_Dots_2.jpg,Blue_Star_Stripes_3.jpg,right,730.2700000000186,true,high,false
SkqcLqeK,3zvpamtjxqgf8kd3gsoqdmjsr77grt,378xpawrugq3sevbv779ss3qkcgiah,SkqcLqeK,2020-0188,2020-11-21,11:56:44,12:10:59,NA,incomplete,149,number,0,left,Blue_Plus_Stripes_2.jpg,Green_Circle_Chess_2.jpg,Blue_Star_Dots_4.jpg,left,1122.625,true,high,false
SkqcLqeK,3zvpamtjxqgf8kd3gsoqdmjsr77grt,378xpawrugq3sevbv779ss3qkcgiah,SkqcLqeK,2020-0188,2020-11-21,11:56:44,12:10:59,NA,incomplete,150,number,1,left,Red_Star_Dots_1.jpg,Green_Circle_Stripes_1.jpg,Red_Plus_Grid_3.jpg,left,1061.1250000001164,true,high,false
SkqcLqeK,3zvpamtjxqgf8kd3gsoqdmjsr77grt,378xpawrugq3sevbv779ss3qkcgiah,SkqcLqeK,2020-0188,2020-11-21,11:56:44,12:10:59,NA,incomplete,151,number,0,left,Green_Circle_Dots_1.jpg,Red_Triangle_Grid_1.jpg,Green_Plus_Chess_4.jpg,left,590.304999999702,true,high,false
SkqcLqeK,3zvpamtjxqgf8kd3gsoqdmjsr77grt,378xpawrugq3sevbv779ss3qkcgiah,SkqcLqeK,2020-0188,2020-11-21,11:56:44,12:10:59,NA,incomplete,152,number,1,left,Blue_Plus_Stripes_4.jpg,Green_Circle_Dots_4.jpg,Blue_Triangle_Chess_1.jpg,left,1062.6700000002747,true,high,false
SkqcLqeK,3zvpamtjxqgf8kd3gsoqdmjsr77grt,378xpawrugq3sevbv779ss3qkcgiah,SkqcLqeK,2020-0188,2020-11-21,11:56:44,12:10:59,NA,incomplete,153,number,1,right,Green_Star_Dots_4.jpg,Green_Plus_Stripes_1.jpg,Red_Triangle_Chess_4.jpg,right,1005.3550000003306,true,high,false
SkqcLqeK,3zvpamtjxqgf8kd3gsoqdmjsr77grt,378xpawrugq3sevbv779ss3qkcgiah,SkqcLqeK,2020-0188,2020-11-21,11:56:44,12:10:59,NA,incomplete,154,number,1,right,Purple_Plus_Grid_1.jpg,Purple_Star_Chess_4.jpg,Green_Circle_Dots_1.jpg,right,1293.0550000001676,true,high,false
SkqcLqeK,3zvpamtjxqgf8kd3gsoqdmjsr77grt,378xpawrugq3sevbv779ss3qkcgiah,SkqcLqeK,2020-0188,2020-11-21,11:56:44,12:10:59,NA,incomplete,155,number,1,left,Blue_Triangle_Grid_2.jpg,Green_Circle_Stripes_2.jpg,Blue_Star_Chess_3.jpg,none,0,false,high,false
SkqcLqeK,3zvpamtjxqgf8kd3gsoqdmjsr77grt,378xpawrugq3sevbv779ss3qkcgiah,SkqcLqeK,2020-0188,2020-11-21,11:56:44,12:10:59,NA,incomplete,156,number,1,right,Red_Plus_Chess_3.jpg,Red_Star_Grid_4.jpg,Purple_Circle_Stripes_3.jpg,right,1176.6100000004517,true,high,false
SkqcLqeK,3zvpamtjxqgf8kd3gsoqdmjsr77grt,378xpawrugq3sevbv779ss3qkcgiah,SkqcLqeK,2020-0188,2020-11-21,11:56:44,12:10:59,NA,incomplete,157,number,1,left,Purple_Circle_Chess_1.jpg,Blue_Plus_Grid_1.jpg,Purple_Triangle_Stripes_2.jpg,left,1048.2700000002515,true,high,false
SkqcLqeK,3zvpamtjxqgf8kd3gsoqdmjsr77grt,378xpawrugq3sevbv779ss3qkcgiah,SkqcLqeK,2020-0188,2020-11-21,11:56:44,12:10:59,NA,incomplete,158,number,1,left,Blue_Circle_Grid_1.jpg,Red_Star_Stripes_1.jpg,Blue_Plus_Chess_4.jpg,left,644.7199999992736,true,high,false
SkqcLqeK,3zvpamtjxqgf8kd3gsoqdmjsr77grt,378xpawrugq3sevbv779ss3qkcgiah,SkqcLqeK,2020-0188,2020-11-21,11:56:44,12:10:59,NA,incomplete,159,number,1,left,Blue_Plus_Stripes_3.jpg,Red_Circle_Chess_3.jpg,Blue_Star_Dots_4.jpg,left,899.0899999999674,true,high,false
SkqcLqeK,3zvpamtjxqgf8kd3gsoqdmjsr77grt,378xpawrugq3sevbv779ss3qkcgiah,SkqcLqeK,2020-0188,2020-11-21,11:56:44,12:10:59,NA,incomplete,160,color,1,right,Red_Star_Grid_4.jpg,Green_Plus_Stripes_4.jpg,Red_Circle_Dots_1.jpg,left,1150.4500000001863,false,high,false
SkqcLqeK,3zvpamtjxqgf8kd3gsoqdmjsr77grt,378xpawrugq3sevbv779ss3qkcgiah,SkqcLqeK,2020-0188,2020-11-21,11:56:44,12:10:59,NA,incomplete,161,color,1,left,Purple_Circle_Chess_2.jpg,Purple_Star_Grid_3.jpg,Green_Triangle_Dots_2.jpg,right,820.4050000003772,false,high,false
SkqcLqeK,3zvpamtjxqgf8kd3gsoqdmjsr77grt,378xpawrugq3sevbv779ss3qkcgiah,SkqcLqeK,2020-0188,2020-11-21,11:56:44,12:10:59,NA,incomplete,162,color,1,left,Blue_Circle_Stripes_2.jpg,Blue_Triangle_Dots_3.jpg,Purple_Star_Chess_2.jpg,left,744.1650000000373,true,high,false
SkqcLqeK,3zvpamtjxqgf8kd3gsoqdmjsr77grt,378xpawrugq3sevbv779ss3qkcgiah,SkqcLqeK,2020-0188,2020-11-21,11:56:44,12:10:59,NA,incomplete,163,color,1,right,Purple_Triangle_Dots_3.jpg,Red_Plus_Grid_3.jpg,Purple_Star_Stripes_1.jpg,right,737.804999999702,true,high,false
SkqcLqeK,3zvpamtjxqgf8kd3gsoqdmjsr77grt,378xpawrugq3sevbv779ss3qkcgiah,SkqcLqeK,2020-0188,2020-11-21,11:56:44,12:10:59,NA,incomplete,164,color,1,right,Purple_Triangle_Grid_1.jpg,Blue_Circle_Chess_1.jpg,Purple_Star_Stripes_4.jpg,right,569.6800000005169,true,high,false
SkqcLqeK,3zvpamtjxqgf8kd3gsoqdmjsr77grt,378xpawrugq3sevbv779ss3qkcgiah,SkqcLqeK,2020-0188,2020-11-21,11:56:44,12:10:59,NA,incomplete,165,color,0,left,Green_Triangle_Dots_3.jpg,Green_Star_Chess_2.jpg,Purple_Circle_Stripes_3.jpg,left,787.4149999998044,true,high,false
SkqcLqeK,3zvpamtjxqgf8kd3gsoqdmjsr77grt,378xpawrugq3sevbv779ss3qkcgiah,SkqcLqeK,2020-0188,2020-11-21,11:56:44,12:10:59,NA,incomplete,166,color,1,left,Purple_Star_Grid_3.jpg,Purple_Triangle_Dots_1.jpg,Red_Plus_Chess_3.jpg,left,1272.8100000004051,true,high,false
SkqcLqeK,3zvpamtjxqgf8kd3gsoqdmjsr77grt,378xpawrugq3sevbv779ss3qkcgiah,SkqcLqeK,2020-0188,2020-11-21,11:56:44,12:10:59,NA,incomplete,167,color,1,right,Blue_Star_Stripes_4.jpg,Green_Triangle_Dots_4.jpg,Blue_Plus_Chess_1.jpg,right,666.5949999997392,true,high,false
SkqcLqeK,3zvpamtjxqgf8kd3gsoqdmjsr77grt,378xpawrugq3sevbv779ss3qkcgiah,SkqcLqeK,2020-0188,2020-11-21,11:56:44,12:10:59,NA,incomplete,168,color,1,right,Purple_Triangle_Grid_4.jpg,Blue_Plus_Dots_4.jpg,Purple_Circle_Stripes_2.jpg,right,786.3399999996182,true,high,false
SkqcLqeK,3zvpamtjxqgf8kd3gsoqdmjsr77grt,378xpawrugq3sevbv779ss3qkcgiah,SkqcLqeK,2020-0188,2020-11-21,11:56:44,12:10:59,NA,incomplete,169,color,1,left,Red_Triangle_Dots_4.jpg,Red_Circle_Stripes_3.jpg,Green_Star_Chess_4.jpg,left,1082.7600000002421,true,high,false
SkqcLqeK,3zvpamtjxqgf8kd3gsoqdmjsr77grt,378xpawrugq3sevbv779ss3qkcgiah,SkqcLqeK,2020-0188,2020-11-21,11:56:44,12:10:59,NA,incomplete,170,color,1,left,Purple_Circle_Dots_1.jpg,Purple_Triangle_Stripes_2.jpg,Green_Star_Grid_1.jpg,left,923.730000000447,true,high,false
SkqcLqeK,3zvpamtjxqgf8kd3gsoqdmjsr77grt,378xpawrugq3sevbv779ss3qkcgiah,SkqcLqeK,2020-0188,2020-11-21,11:56:44,12:10:59,NA,incomplete,171,color,1,right,Red_Plus_Stripes_2.jpg,Blue_Star_Grid_2.jpg,Red_Circle_Chess_3.jpg,right,691.8699999996461,true,high,false
SkqcLqeK,3zvpamtjxqgf8kd3gsoqdmjsr77grt,378xpawrugq3sevbv779ss3qkcgiah,SkqcLqeK,2020-0188,2020-11-21,11:56:44,12:10:59,NA,incomplete,172,color,0,right,Blue_Star_Dots_2.jpg,Red_Plus_Stripes_2.jpg,Blue_Triangle_Chess_1.jpg,right,765.7900000002701,true,high,false
SkqcLqeK,3zvpamtjxqgf8kd3gsoqdmjsr77grt,378xpawrugq3sevbv779ss3qkcgiah,SkqcLqeK,2020-0188,2020-11-21,11:56:44,12:10:59,NA,incomplete,173,color,1,left,Blue_Triangle_Dots_2.jpg,Blue_Circle_Chess_4.jpg,Green_Plus_Grid_2.jpg,left,666.9149999998044,true,high,false
SkqcLqeK,3zvpamtjxqgf8kd3gsoqdmjsr77grt,378xpawrugq3sevbv779ss3qkcgiah,SkqcLqeK,2020-0188,2020-11-21,11:56:44,12:10:59,NA,incomplete,174,color,1,right,Blue_Plus_Dots_1.jpg,Purple_Circle_Grid_1.jpg,Blue_Star_Chess_4.jpg,right,599.0650000002934,true,high,false
SkqcLqeK,3zvpamtjxqgf8kd3gsoqdmjsr77grt,378xpawrugq3sevbv779ss3qkcgiah,SkqcLqeK,2020-0188,2020-11-21,11:56:44,12:10:59,NA,incomplete,175,color,0,left,Green_Circle_Grid_1.jpg,Green_Plus_Stripes_2.jpg,Blue_Star_Dots_1.jpg,left,607.1549999996787,true,high,false
SkqcLqeK,3zvpamtjxqgf8kd3gsoqdmjsr77grt,378xpawrugq3sevbv779ss3qkcgiah,SkqcLqeK,2020-0188,2020-11-21,11:56:44,12:10:59,NA,incomplete,176,color,1,left,Green_Circle_Grid_1.jpg,Green_Triangle_Dots_3.jpg,Purple_Star_Chess_1.jpg,left,547.6800000005169,true,high,false
SkqcLqeK,3zvpamtjxqgf8kd3gsoqdmjsr77grt,378xpawrugq3sevbv779ss3qkcgiah,SkqcLqeK,2020-0188,2020-11-21,11:56:44,12:10:59,NA,incomplete,177,color,1,right,Purple_Star_Grid_4.jpg,Green_Triangle_Dots_4.jpg,Purple_Circle_Chess_1.jpg,right,752.059999999823,true,high,false
SkqcLqeK,3zvpamtjxqgf8kd3gsoqdmjsr77grt,378xpawrugq3sevbv779ss3qkcgiah,SkqcLqeK,2020-0188,2020-11-21,11:56:44,12:10:59,NA,incomplete,178,color,1,left,Purple_Circle_Stripes_1.jpg,Purple_Star_Grid_3.jpg,Red_Plus_Dots_1.jpg,left,676.3899999995483,true,high,false
SkqcLqeK,3zvpamtjxqgf8kd3gsoqdmjsr77grt,378xpawrugq3sevbv779ss3qkcgiah,SkqcLqeK,2020-0188,2020-11-21,11:56:44,12:10:59,NA,incomplete,179,color,0,right,Green_Triangle_Grid_1.jpg,Red_Plus_Chess_1.jpg,Green_Star_Stripes_2.jpg,right,728.3099999994738,true,high,false
SkqcLqeK,3zvpamtjxqgf8kd3gsoqdmjsr77grt,378xpawrugq3sevbv779ss3qkcgiah,SkqcLqeK,2020-0188,2020-11-21,11:56:44,12:10:59,NA,incomplete,180,number,1,right,Blue_Circle_Grid_2.jpg,Blue_Triangle_Stripes_4.jpg,Red_Star_Chess_2.jpg,left,626.9999999995343,false,high,false
SkqcLqeK,3zvpamtjxqgf8kd3gsoqdmjsr77grt,378xpawrugq3sevbv779ss3qkcgiah,SkqcLqeK,2020-0188,2020-11-21,11:56:44,12:10:59,NA,incomplete,181,number,0,left,Blue_Triangle_Grid_4.jpg,Purple_Circle_Dots_4.jpg,Blue_Plus_Stripes_3.jpg,right,644.8849999997765,false,high,false
SkqcLqeK,3zvpamtjxqgf8kd3gsoqdmjsr77grt,378xpawrugq3sevbv779ss3qkcgiah,SkqcLqeK,2020-0188,2020-11-21,11:56:44,12:10:59,NA,incomplete,182,number,1,left,Green_Circle_Stripes_2.jpg,Red_Star_Dots_2.jpg,Green_Triangle_Chess_3.jpg,right,645.059999999823,false,high,false
SkqcLqeK,3zvpamtjxqgf8kd3gsoqdmjsr77grt,378xpawrugq3sevbv779ss3qkcgiah,SkqcLqeK,2020-0188,2020-11-21,11:56:44,12:10:59,NA,incomplete,183,number,1,left,Purple_Triangle_Grid_1.jpg,Green_Plus_Stripes_1.jpg,Purple_Circle_Dots_3.jpg,right,835.6599999997998,false,high,false
SkqcLqeK,3zvpamtjxqgf8kd3gsoqdmjsr77grt,378xpawrugq3sevbv779ss3qkcgiah,SkqcLqeK,2020-0188,2020-11-21,11:56:44,12:10:59,NA,incomplete,184,number,1,right,Red_Star_Grid_4.jpg,Red_Plus_Stripes_1.jpg,Green_Circle_Dots_4.jpg,right,1734.6250000001164,true,high,false
SkqcLqeK,3zvpamtjxqgf8kd3gsoqdmjsr77grt,378xpawrugq3sevbv779ss3qkcgiah,SkqcLqeK,2020-0188,2020-11-21,11:56:44,12:10:59,NA,incomplete,185,number,0,right,Blue_Circle_Chess_1.jpg,Blue_Triangle_Stripes_4.jpg,Green_Plus_Grid_1.jpg,right,1487.7299999997485,true,high,false
SkqcLqeK,3zvpamtjxqgf8kd3gsoqdmjsr77grt,378xpawrugq3sevbv779ss3qkcgiah,SkqcLqeK,2020-0188,2020-11-21,11:56:44,12:10:59,NA,incomplete,186,number,1,right,Green_Circle_Grid_3.jpg,Green_Plus_Chess_2.jpg,Blue_Star_Dots_3.jpg,right,1132.5449999994598,true,high,false
SkqcLqeK,3zvpamtjxqgf8kd3gsoqdmjsr77grt,378xpawrugq3sevbv779ss3qkcgiah,SkqcLqeK,2020-0188,2020-11-21,11:56:44,12:10:59,NA,incomplete,187,number,0,right,Red_Plus_Stripes_4.jpg,Red_Star_Grid_2.jpg,Blue_Circle_Chess_4.jpg,right,1128.8649999997579,true,high,false
SkqcLqeK,3zvpamtjxqgf8kd3gsoqdmjsr77grt,378xpawrugq3sevbv779ss3qkcgiah,SkqcLqeK,2020-0188,2020-11-21,11:56:44,12:10:59,NA,incomplete,188,number,1,left,Blue_Triangle_Stripes_1.jpg,Red_Circle_Grid_1.jpg,Blue_Star_Chess_2.jpg,left,1216.4800000000978,true,high,false
SkqcLqeK,3zvpamtjxqgf8kd3gsoqdmjsr77grt,378xpawrugq3sevbv779ss3qkcgiah,SkqcLqeK,2020-0188,2020-11-21,11:56:44,12:10:59,NA,incomplete,189,number,1,left,Blue_Triangle_Grid_1.jpg,Green_Circle_Chess_1.jpg,Blue_Star_Stripes_4.jpg,left,792.1600000000326,true,high,false
SkqcLqeK,3zvpamtjxqgf8kd3gsoqdmjsr77grt,378xpawrugq3sevbv779ss3qkcgiah,SkqcLqeK,2020-0188,2020-11-21,11:56:44,12:10:59,NA,incomplete,190,number,1,left,Blue_Star_Stripes_3.jpg,Green_Circle_Grid_3.jpg,Blue_Plus_Dots_2.jpg,left,761.8949999996694,true,high,false
SkqcLqeK,3zvpamtjxqgf8kd3gsoqdmjsr77grt,378xpawrugq3sevbv779ss3qkcgiah,SkqcLqeK,2020-0188,2020-11-21,11:56:44,12:10:59,NA,incomplete,191,number,1,left,Green_Circle_Dots_1.jpg,Purple_Star_Stripes_1.jpg,Green_Triangle_Chess_3.jpg,left,821.9399999998277,true,high,false
SkqcLqeK,3zvpamtjxqgf8kd3gsoqdmjsr77grt,378xpawrugq3sevbv779ss3qkcgiah,SkqcLqeK,2020-0188,2020-11-21,11:56:44,12:10:59,NA,incomplete,192,number,1,left,Purple_Triangle_Stripes_3.jpg,Red_Plus_Grid_3.jpg,Purple_Star_Chess_1.jpg,left,753.7700000002515,true,high,false
SkqcLqeK,3zvpamtjxqgf8kd3gsoqdmjsr77grt,378xpawrugq3sevbv779ss3qkcgiah,SkqcLqeK,2020-0188,2020-11-21,11:56:44,12:10:59,NA,incomplete,193,number,0,left,Purple_Plus_Stripes_4.jpg,Green_Triangle_Dots_4.jpg,Purple_Circle_Chess_2.jpg,left,780.8300000005402,true,high,false
SkqcLqeK,3zvpamtjxqgf8kd3gsoqdmjsr77grt,378xpawrugq3sevbv779ss3qkcgiah,SkqcLqeK,2020-0188,2020-11-21,11:56:44,12:10:59,NA,incomplete,194,number,1,right,Red_Star_Stripes_4.jpg,Red_Circle_Dots_3.jpg,Blue_Triangle_Grid_4.jpg,right,1043.3149999998277,true,high,false
SkqcLqeK,3zvpamtjxqgf8kd3gsoqdmjsr77grt,378xpawrugq3sevbv779ss3qkcgiah,SkqcLqeK,2020-0188,2020-11-21,11:56:44,12:10:59,NA,incomplete,195,number,0,right,Red_Circle_Dots_2.jpg,Red_Triangle_Stripes_4.jpg,Green_Star_Chess_2.jpg,right,914.6150000006892,true,high,false
SkqcLqeK,3zvpamtjxqgf8kd3gsoqdmjsr77grt,378xpawrugq3sevbv779ss3qkcgiah,SkqcLqeK,2020-0188,2020-11-21,11:56:44,12:10:59,NA,incomplete,196,number,1,left,Red_Star_Grid_1.jpg,Blue_Triangle_Stripes_1.jpg,Red_Plus_Chess_2.jpg,left,941.8350000005448,true,high,false
SkqcLqeK,3zvpamtjxqgf8kd3gsoqdmjsr77grt,378xpawrugq3sevbv779ss3qkcgiah,SkqcLqeK,2020-0188,2020-11-21,11:56:44,12:10:59,NA,incomplete,197,number,0,left,Red_Circle_Chess_1.jpg,Blue_Star_Stripes_1.jpg,Red_Plus_Dots_2.jpg,left,800.0650000004098,true,high,false
SkqcLqeK,3zvpamtjxqgf8kd3gsoqdmjsr77grt,378xpawrugq3sevbv779ss3qkcgiah,SkqcLqeK,2020-0188,2020-11-21,11:56:44,12:10:59,NA,incomplete,198,number,1,right,Green_Circle_Grid_3.jpg,Green_Plus_Dots_4.jpg,Blue_Star_Chess_3.jpg,none,0,false,high,false
SkqcLqeK,3zvpamtjxqgf8kd3gsoqdmjsr77grt,378xpawrugq3sevbv779ss3qkcgiah,SkqcLqeK,2020-0188,2020-11-21,11:56:44,12:10:59,NA,incomplete,199,number,1,right,Green_Star_Dots_4.jpg,Green_Plus_Chess_1.jpg,Purple_Triangle_Grid_4.jpg,right,994.2599999995437,true,high,false
SkqcLqeK,3zvpamtjxqgf8kd3gsoqdmjsr77grt,378xpawrugq3sevbv779ss3qkcgiah,SkqcLqeK,2020-0188,2020-11-21,11:56:44,12:10:59,NA,incomplete,200,color,1,right,Red_Triangle_Stripes_1.jpg,Purple_Circle_Dots_1.jpg,Red_Star_Chess_3.jpg,left,917.734999999986,false,high,false
SkqcLqeK,3zvpamtjxqgf8kd3gsoqdmjsr77grt,378xpawrugq3sevbv779ss3qkcgiah,SkqcLqeK,2020-0188,2020-11-21,11:56:44,12:10:59,NA,incomplete,201,color,1,left,Purple_Circle_Grid_3.jpg,Purple_Star_Chess_1.jpg,Blue_Triangle_Dots_3.jpg,right,965.7900000001537,false,high,false
SkqcLqeK,3zvpamtjxqgf8kd3gsoqdmjsr77grt,378xpawrugq3sevbv779ss3qkcgiah,SkqcLqeK,2020-0188,2020-11-21,11:56:44,12:10:59,NA,incomplete,202,color,1,right,Blue_Circle_Grid_2.jpg,Purple_Plus_Chess_2.jpg,Blue_Star_Stripes_1.jpg,right,704.539999999688,true,high,false
SkqcLqeK,3zvpamtjxqgf8kd3gsoqdmjsr77grt,378xpawrugq3sevbv779ss3qkcgiah,SkqcLqeK,2020-0188,2020-11-21,11:56:44,12:10:59,NA,incomplete,203,color,1,right,Blue_Star_Stripes_2.jpg,Purple_Plus_Grid_2.jpg,Blue_Triangle_Dots_1.jpg,right,546.3950000003679,true,high,false
SkqcLqeK,3zvpamtjxqgf8kd3gsoqdmjsr77grt,378xpawrugq3sevbv779ss3qkcgiah,SkqcLqeK,2020-0188,2020-11-21,11:56:44,12:10:59,NA,incomplete,204,color,0,left,Green_Star_Stripes_2.jpg,Green_Triangle_Dots_4.jpg,Purple_Circle_Grid_2.jpg,left,551.4599999996135,true,high,false
SkqcLqeK,3zvpamtjxqgf8kd3gsoqdmjsr77grt,378xpawrugq3sevbv779ss3qkcgiah,SkqcLqeK,2020-0188,2020-11-21,11:56:44,12:10:59,NA,incomplete,205,color,1,right,Red_Circle_Chess_1.jpg,Blue_Triangle_Dots_1.jpg,Red_Star_Grid_2.jpg,right,565.8800000000047,true,high,false
SkqcLqeK,3zvpamtjxqgf8kd3gsoqdmjsr77grt,378xpawrugq3sevbv779ss3qkcgiah,SkqcLqeK,2020-0188,2020-11-21,11:56:44,12:10:59,NA,incomplete,206,color,0,left,Purple_Triangle_Dots_3.jpg,Purple_Star_Stripes_4.jpg,Red_Plus_Grid_3.jpg,left,615.7700000003679,true,high,false
SkqcLqeK,3zvpamtjxqgf8kd3gsoqdmjsr77grt,378xpawrugq3sevbv779ss3qkcgiah,SkqcLqeK,2020-0188,2020-11-21,11:56:44,12:10:59,NA,incomplete,207,color,1,right,Blue_Circle_Chess_3.jpg,Purple_Star_Grid_3.jpg,Blue_Plus_Stripes_1.jpg,right,966.0850000000792,true,high,false
SkqcLqeK,3zvpamtjxqgf8kd3gsoqdmjsr77grt,378xpawrugq3sevbv779ss3qkcgiah,SkqcLqeK,2020-0188,2020-11-21,11:56:44,12:10:59,NA,incomplete,208,color,1,right,Red_Triangle_Grid_1.jpg,Purple_Circle_Dots_1.jpg,Red_Star_Chess_2.jpg,right,665.1149999997579,true,high,false
SkqcLqeK,3zvpamtjxqgf8kd3gsoqdmjsr77grt,378xpawrugq3sevbv779ss3qkcgiah,SkqcLqeK,2020-0188,2020-11-21,11:56:44,12:10:59,NA,incomplete,209,color,1,right,Purple_Plus_Grid_3.jpg,Red_Triangle_Stripes_3.jpg,Purple_Circle_Dots_2.jpg,right,1187.0650000000605,true,high,false
SkqcLqeK,3zvpamtjxqgf8kd3gsoqdmjsr77grt,378xpawrugq3sevbv779ss3qkcgiah,SkqcLqeK,2020-0188,2020-11-21,11:56:44,12:10:59,NA,incomplete,210,color,0,right,Purple_Circle_Grid_2.jpg,Green_Star_Dots_2.jpg,Purple_Triangle_Stripes_4.jpg,right,510.16500000061933,true,high,false
SkqcLqeK,3zvpamtjxqgf8kd3gsoqdmjsr77grt,378xpawrugq3sevbv779ss3qkcgiah,SkqcLqeK,2020-0188,2020-11-21,11:56:44,12:10:59,NA,incomplete,211,color,1,left,Red_Triangle_Grid_3.jpg,Red_Star_Chess_1.jpg,Blue_Plus_Stripes_3.jpg,left,603.4749999998603,true,high,false
SkqcLqeK,3zvpamtjxqgf8kd3gsoqdmjsr77grt,378xpawrugq3sevbv779ss3qkcgiah,SkqcLqeK,2020-0188,2020-11-21,11:56:44,12:10:59,NA,incomplete,212,color,1,left,Blue_Triangle_Grid_3.jpg,Blue_Plus_Dots_4.jpg,Purple_Circle_Stripes_3.jpg,left,609.7799999997951,true,high,false
SkqcLqeK,3zvpamtjxqgf8kd3gsoqdmjsr77grt,378xpawrugq3sevbv779ss3qkcgiah,SkqcLqeK,2020-0188,2020-11-21,11:56:44,12:10:59,NA,incomplete,213,color,1,left,Green_Triangle_Dots_1.jpg,Green_Circle_Grid_2.jpg,Purple_Star_Stripes_1.jpg,left,506.2699999999022,true,high,false
SkqcLqeK,3zvpamtjxqgf8kd3gsoqdmjsr77grt,378xpawrugq3sevbv779ss3qkcgiah,SkqcLqeK,2020-0188,2020-11-21,11:56:44,12:10:59,NA,incomplete,214,color,1,right,Green_Triangle_Chess_1.jpg,Blue_Circle_Dots_1.jpg,Green_Star_Grid_3.jpg,right,718.0650000000605,true,high,false
SkqcLqeK,3zvpamtjxqgf8kd3gsoqdmjsr77grt,378xpawrugq3sevbv779ss3qkcgiah,SkqcLqeK,2020-0188,2020-11-21,11:56:44,12:10:59,NA,incomplete,215,color,1,right,Green_Star_Dots_2.jpg,Blue_Plus_Grid_2.jpg,Green_Triangle_Chess_1.jpg,right,567.0000000001164,true,high,false
SkqcLqeK,3zvpamtjxqgf8kd3gsoqdmjsr77grt,378xpawrugq3sevbv779ss3qkcgiah,SkqcLqeK,2020-0188,2020-11-21,11:56:44,12:10:59,NA,incomplete,216,color,1,right,Green_Star_Stripes_3.jpg,Purple_Circle_Dots_3.jpg,Green_Triangle_Chess_4.jpg,right,567.3200000001816,true,high,false
SkqcLqeK,3zvpamtjxqgf8kd3gsoqdmjsr77grt,378xpawrugq3sevbv779ss3qkcgiah,SkqcLqeK,2020-0188,2020-11-21,11:56:44,12:10:59,NA,incomplete,217,color,1,left,Red_Circle_Grid_2.jpg,Red_Triangle_Dots_4.jpg,Green_Plus_Stripes_2.jpg,left,705.0450000005076,true,high,false
SkqcLqeK,3zvpamtjxqgf8kd3gsoqdmjsr77grt,378xpawrugq3sevbv779ss3qkcgiah,SkqcLqeK,2020-0188,2020-11-21,11:56:44,12:10:59,NA,incomplete,218,color,1,right,Green_Triangle_Dots_1.jpg,Purple_Plus_Chess_1.jpg,Green_Star_Stripes_3.jpg,right,811.7299999993993,true,high,false
SkqcLqeK,3zvpamtjxqgf8kd3gsoqdmjsr77grt,378xpawrugq3sevbv779ss3qkcgiah,SkqcLqeK,2020-0188,2020-11-21,11:56:44,12:10:59,NA,incomplete,219,color,1,left,Purple_Circle_Chess_2.jpg,Purple_Plus_Dots_3.jpg,Red_Triangle_Stripes_2.jpg,left,702.0050000001211,true,high,false
SkqcLqeK,3zvpamtjxqgf8kd3gsoqdmjsr77grt,378xpawrugq3sevbv779ss3qkcgiah,SkqcLqeK,2020-0188,2020-11-21,11:56:44,12:10:59,NA,incomplete,220,number,1,right,Red_Star_Grid_1.jpg,Red_Plus_Stripes_2.jpg,Green_Circle_Chess_1.jpg,left,608.6000000004424,false,high,false
SkqcLqeK,3zvpamtjxqgf8kd3gsoqdmjsr77grt,378xpawrugq3sevbv779ss3qkcgiah,SkqcLqeK,2020-0188,2020-11-21,11:56:44,12:10:59,NA,incomplete,221,number,1,left,Red_Plus_Chess_2.jpg,Purple_Circle_Grid_2.jpg,Red_Star_Dots_4.jpg,right,612.2849999992177,false,high,false
SkqcLqeK,3zvpamtjxqgf8kd3gsoqdmjsr77grt,378xpawrugq3sevbv779ss3qkcgiah,SkqcLqeK,2020-0188,2020-11-21,11:56:44,12:10:59,NA,incomplete,222,number,0,right,Red_Star_Grid_2.jpg,Red_Triangle_Dots_3.jpg,Green_Circle_Stripes_2.jpg,right,1212.9399999994785,true,high,false
SkqcLqeK,3zvpamtjxqgf8kd3gsoqdmjsr77grt,378xpawrugq3sevbv779ss3qkcgiah,SkqcLqeK,2020-0188,2020-11-21,11:56:44,12:10:59,NA,incomplete,223,number,1,right,Purple_Circle_Chess_1.jpg,Purple_Star_Grid_3.jpg,Blue_Plus_Dots_1.jpg,right,842.2899999995716,true,high,false
SkqcLqeK,3zvpamtjxqgf8kd3gsoqdmjsr77grt,378xpawrugq3sevbv779ss3qkcgiah,SkqcLqeK,2020-0188,2020-11-21,11:56:44,12:10:59,NA,incomplete,224,number,1,right,Purple_Triangle_Dots_2.jpg,Purple_Star_Stripes_3.jpg,Red_Plus_Grid_2.jpg,right,848.9099999996834,true,high,false
SkqcLqeK,3zvpamtjxqgf8kd3gsoqdmjsr77grt,378xpawrugq3sevbv779ss3qkcgiah,SkqcLqeK,2020-0188,2020-11-21,11:56:44,12:10:59,NA,incomplete,225,number,1,right,Green_Plus_Stripes_2.jpg,Green_Circle_Dots_4.jpg,Red_Star_Chess_2.jpg,right,709.0099999996601,true,high,false
SkqcLqeK,3zvpamtjxqgf8kd3gsoqdmjsr77grt,378xpawrugq3sevbv779ss3qkcgiah,SkqcLqeK,2020-0188,2020-11-21,11:56:44,12:10:59,NA,incomplete,226,number,0,right,Red_Plus_Grid_1.jpg,Red_Star_Dots_3.jpg,Blue_Triangle_Stripes_1.jpg,right,839.2899999999208,true,high,false
SkqcLqeK,3zvpamtjxqgf8kd3gsoqdmjsr77grt,378xpawrugq3sevbv779ss3qkcgiah,SkqcLqeK,2020-0188,2020-11-21,11:56:44,12:10:59,NA,incomplete,227,number,1,left,Purple_Circle_Stripes_1.jpg,Blue_Triangle_Dots_1.jpg,Purple_Plus_Chess_4.jpg,left,1065.0099999994272,true,high,false
SkqcLqeK,3zvpamtjxqgf8kd3gsoqdmjsr77grt,378xpawrugq3sevbv779ss3qkcgiah,SkqcLqeK,2020-0188,2020-11-21,11:56:44,12:10:59,NA,incomplete,228,number,1,right,Red_Triangle_Chess_3.jpg,Red_Plus_Stripes_2.jpg,Blue_Circle_Dots_3.jpg,right,901.7699999994365,true,high,false
SkqcLqeK,3zvpamtjxqgf8kd3gsoqdmjsr77grt,378xpawrugq3sevbv779ss3qkcgiah,SkqcLqeK,2020-0188,2020-11-21,11:56:44,12:10:59,NA,incomplete,229,number,0,right,Purple_Star_Stripes_1.jpg,Purple_Triangle_Grid_4.jpg,Blue_Plus_Chess_1.jpg,right,676.5649999997113,true,high,false
SkqcLqeK,3zvpamtjxqgf8kd3gsoqdmjsr77grt,378xpawrugq3sevbv779ss3qkcgiah,SkqcLqeK,2020-0188,2020-11-21,11:56:44,12:10:59,NA,incomplete,230,number,1,right,Purple_Circle_Grid_4.jpg,Purple_Plus_Stripes_1.jpg,Blue_Triangle_Dots_4.jpg,right,1727.9600000001956,true,high,false
SkqcLqeK,3zvpamtjxqgf8kd3gsoqdmjsr77grt,378xpawrugq3sevbv779ss3qkcgiah,SkqcLqeK,2020-0188,2020-11-21,11:56:44,12:10:59,NA,incomplete,231,number,1,right,Blue_Star_Stripes_3.jpg,Blue_Plus_Grid_2.jpg,Purple_Circle_Dots_3.jpg,right,1107.9700000000885,true,high,false
SkqcLqeK,3zvpamtjxqgf8kd3gsoqdmjsr77grt,378xpawrugq3sevbv779ss3qkcgiah,SkqcLqeK,2020-0188,2020-11-21,11:56:44,12:10:59,NA,incomplete,232,number,1,right,Green_Circle_Dots_4.jpg,Green_Star_Grid_3.jpg,Red_Triangle_Chess_4.jpg,right,1446.40500000061,true,high,false
SkqcLqeK,3zvpamtjxqgf8kd3gsoqdmjsr77grt,378xpawrugq3sevbv779ss3qkcgiah,SkqcLqeK,2020-0188,2020-11-21,11:56:44,12:10:59,NA,incomplete,233,number,0,left,Red_Triangle_Grid_1.jpg,Green_Star_Stripes_1.jpg,Red_Plus_Chess_4.jpg,left,641.475000000326,true,high,false
SkqcLqeK,3zvpamtjxqgf8kd3gsoqdmjsr77grt,378xpawrugq3sevbv779ss3qkcgiah,SkqcLqeK,2020-0188,2020-11-21,11:56:44,12:10:59,NA,incomplete,234,number,1,left,Red_Star_Chess_3.jpg,Blue_Circle_Grid_3.jpg,Red_Plus_Stripes_4.jpg,left,1042.174999999581,true,high,false
SkqcLqeK,3zvpamtjxqgf8kd3gsoqdmjsr77grt,378xpawrugq3sevbv779ss3qkcgiah,SkqcLqeK,2020-0188,2020-11-21,11:56:44,12:10:59,NA,incomplete,235,number,0,left,Purple_Star_Grid_4.jpg,Red_Plus_Chess_4.jpg,Purple_Triangle_Stripes_3.jpg,left,858.8349999999627,true,high,false
SkqcLqeK,3zvpamtjxqgf8kd3gsoqdmjsr77grt,378xpawrugq3sevbv779ss3qkcgiah,SkqcLqeK,2020-0188,2020-11-21,11:56:44,12:10:59,NA,incomplete,236,number,1,left,Green_Plus_Chess_1.jpg,Blue_Circle_Dots_1.jpg,Green_Star_Stripes_3.jpg,left,862.2300000006799,true,high,false
SkqcLqeK,3zvpamtjxqgf8kd3gsoqdmjsr77grt,378xpawrugq3sevbv779ss3qkcgiah,SkqcLqeK,2020-0188,2020-11-21,11:56:44,12:10:59,NA,incomplete,237,number,1,left,Blue_Circle_Grid_4.jpg,Green_Star_Chess_4.jpg,Blue_Triangle_Dots_1.jpg,left,803.8400000004331,true,high,false
SkqcLqeK,3zvpamtjxqgf8kd3gsoqdmjsr77grt,378xpawrugq3sevbv779ss3qkcgiah,SkqcLqeK,2020-0188,2020-11-21,11:56:44,12:10:59,NA,incomplete,238,number,1,right,Red_Plus_Dots_4.jpg,Red_Circle_Chess_3.jpg,Purple_Star_Grid_4.jpg,right,1009.4500000004191,true,high,false
SkqcLqeK,3zvpamtjxqgf8kd3gsoqdmjsr77grt,378xpawrugq3sevbv779ss3qkcgiah,SkqcLqeK,2020-0188,2020-11-21,11:56:44,12:10:59,NA,incomplete,239,number,1,left,Purple_Circle_Grid_2.jpg,Green_Star_Chess_2.jpg,Purple_Plus_Stripes_4.jpg,left,770.2799999996787,true,high,false
SkqcLqeK,3zvpamtjxqgf8kd3gsoqdmjsr77grt,378xpawrugq3sevbv779ss3qkcgiah,SkqcLqeK,2020-0188,2020-11-21,11:56:44,12:10:59,816305.4849999999,854663.0699999996,NA,NA,NA,NA,NA,NA,NA,NA,NA,NA,NA,undefined
