workerId,hitId,assignmentId,subject,studyid,exp_date,exp_start,exp_end,time_start,time_end,trial,type,reward_validity,answer,image_top,image_left,image_right,response,response_time,response_acc,volatility,age,race,gender,ethnicity,color,vision,neuro,practice
e78KLKEM,3ka7ijsnx9iy5qpdnesn7gsg38gpb3,37trt2x24u446zk9j3s5z42vdxtbjs,e78KLKEM,2020-0188,2020-05-08,01:04:20,01:29:36,NA,incomplete,0,number,1,left,Blue_Plus_Chess_2.jpg,Purple_Star_Stripes_2.jpg,Green_Plus_Dots_3.jpg,left,1037,true,NA,NA,NA,NA,NA,NA,NA,NA,true
e78KLKEM,3ka7ijsnx9iy5qpdnesn7gsg38gpb3,37trt2x24u446zk9j3s5z42vdxtbjs,e78KLKEM,2020-0188,2020-05-08,01:04:20,01:29:36,NA,incomplete,1,number,1,right,Blue_Plus_Grid_1.jpg,Green_Plus_Stripes_2.jpg,Red_Triangle_Dots_1.jpg,right,921,true,NA,NA,NA,NA,NA,NA,NA,NA,true
e78KLKEM,3ka7ijsnx9iy5qpdnesn7gsg38gpb3,37trt2x24u446zk9j3s5z42vdxtbjs,e78KLKEM,2020-0188,2020-05-08,01:04:20,01:29:36,NA,incomplete,2,number,1,right,Blue_Triangle_Grid_2.jpg,Purple_Triangle_Chess_3.jpg,Red_Circle_Dots_2.jpg,right,585,true,NA,NA,NA,NA,NA,NA,NA,NA,true
e78KLKEM,3ka7ijsnx9iy5qpdnesn7gsg38gpb3,37trt2x24u446zk9j3s5z42vdxtbjs,e78KLKEM,2020-0188,2020-05-08,01:04:20,01:29:36,NA,incomplete,3,number,1,left,Green_Triangle_Dots_3.jpg,Purple_Star_Stripes_3.jpg,Red_Triangle_Grid_1.jpg,left,630,true,NA,NA,NA,NA,NA,NA,NA,NA,true
e78KLKEM,3ka7ijsnx9iy5qpdnesn7gsg38gpb3,37trt2x24u446zk9j3s5z42vdxtbjs,e78KLKEM,2020-0188,2020-05-08,01:04:20,01:29:36,NA,incomplete,4,number,1,left,Red_Star_Dots_1.jpg,Green_Circle_Chess_1.jpg,Blue_Star_Grid_2.jpg,left,1050,true,NA,NA,NA,NA,NA,NA,NA,NA,true
e78KLKEM,3ka7ijsnx9iy5qpdnesn7gsg38gpb3,37trt2x24u446zk9j3s5z42vdxtbjs,e78KLKEM,2020-0188,2020-05-08,01:04:20,01:29:36,NA,incomplete,5,number,1,right,Red_Circle_Grid_1.jpg,Purple_Circle_Chess_2.jpg,Blue_Star_Stripes_1.jpg,right,772,true,NA,NA,NA,NA,NA,NA,NA,NA,true
e78KLKEM,3ka7ijsnx9iy5qpdnesn7gsg38gpb3,37trt2x24u446zk9j3s5z42vdxtbjs,e78KLKEM,2020-0188,2020-05-08,01:04:20,01:29:36,NA,incomplete,6,number,1,left,Red_Circle_Chess_2.jpg,Purple_Plus_Stripes_2.jpg,Blue_Circle_Dots_4.jpg,left,851,true,NA,NA,NA,NA,NA,NA,NA,NA,true
e78KLKEM,3ka7ijsnx9iy5qpdnesn7gsg38gpb3,37trt2x24u446zk9j3s5z42vdxtbjs,e78KLKEM,2020-0188,2020-05-08,01:04:20,01:29:36,NA,incomplete,7,number,1,left,Red_Star_Grid_1.jpg,Blue_Plus_Stripes_1.jpg,Green_Star_Chess_3.jpg,left,693,true,NA,NA,NA,NA,NA,NA,NA,NA,true
e78KLKEM,3ka7ijsnx9iy5qpdnesn7gsg38gpb3,37trt2x24u446zk9j3s5z42vdxtbjs,e78KLKEM,2020-0188,2020-05-08,01:04:20,01:29:36,NA,incomplete,8,number,1,left,Blue_Star_Grid_2.jpg,Purple_Circle_Dots_2.jpg,Red_Star_Chess_3.jpg,left,647,true,NA,NA,NA,NA,NA,NA,NA,NA,true
e78KLKEM,3ka7ijsnx9iy5qpdnesn7gsg38gpb3,37trt2x24u446zk9j3s5z42vdxtbjs,e78KLKEM,2020-0188,2020-05-08,01:04:20,01:29:36,NA,incomplete,9,number,1,right,Purple_Circle_Stripes_2.jpg,Red_Circle_Grid_3.jpg,Green_Triangle_Chess_2.jpg,right,698,true,NA,NA,NA,NA,NA,NA,NA,NA,true
e78KLKEM,3ka7ijsnx9iy5qpdnesn7gsg38gpb3,37trt2x24u446zk9j3s5z42vdxtbjs,e78KLKEM,2020-0188,2020-05-08,01:04:20,01:29:36,NA,incomplete,10,number,1,right,Purple_Star_Dots_3.jpg,Red_Star_Grid_1.jpg,Green_Triangle_Stripes_3.jpg,right,1075,true,NA,NA,NA,NA,NA,NA,NA,NA,true
e78KLKEM,3ka7ijsnx9iy5qpdnesn7gsg38gpb3,37trt2x24u446zk9j3s5z42vdxtbjs,e78KLKEM,2020-0188,2020-05-08,01:04:20,01:29:36,NA,incomplete,11,number,1,right,Red_Triangle_Grid_2.jpg,Blue_Triangle_Chess_3.jpg,Purple_Star_Stripes_2.jpg,right,892,true,NA,NA,NA,NA,NA,NA,NA,NA,true
e78KLKEM,3ka7ijsnx9iy5qpdnesn7gsg38gpb3,37trt2x24u446zk9j3s5z42vdxtbjs,e78KLKEM,2020-0188,2020-05-08,01:04:20,01:29:36,NA,incomplete,12,number,1,left,Green_Triangle_Chess_2.jpg,Purple_Circle_Stripes_2.jpg,Blue_Triangle_Dots_3.jpg,left,887,true,NA,NA,NA,NA,NA,NA,NA,NA,true
e78KLKEM,3ka7ijsnx9iy5qpdnesn7gsg38gpb3,37trt2x24u446zk9j3s5z42vdxtbjs,e78KLKEM,2020-0188,2020-05-08,01:04:20,01:29:36,NA,incomplete,13,number,1,left,Purple_Circle_Grid_3.jpg,Red_Star_Chess_3.jpg,Green_Circle_Dots_2.jpg,left,759,true,NA,NA,NA,NA,NA,NA,NA,NA,true
e78KLKEM,3ka7ijsnx9iy5qpdnesn7gsg38gpb3,37trt2x24u446zk9j3s5z42vdxtbjs,e78KLKEM,2020-0188,2020-05-08,01:04:20,01:29:36,NA,incomplete,14,number,1,left,Purple_Star_Stripes_2.jpg,Green_Triangle_Dots_2.jpg,Blue_Star_Chess_1.jpg,left,870,true,NA,NA,NA,NA,NA,NA,NA,NA,true
e78KLKEM,3ka7ijsnx9iy5qpdnesn7gsg38gpb3,37trt2x24u446zk9j3s5z42vdxtbjs,e78KLKEM,2020-0188,2020-05-08,01:04:20,01:29:36,NA,incomplete,15,number,1,right,Purple_Star_Dots_4.jpg,Green_Star_Chess_1.jpg,Blue_Plus_Stripes_4.jpg,right,761,true,NA,NA,NA,NA,NA,NA,NA,NA,true
e78KLKEM,3ka7ijsnx9iy5qpdnesn7gsg38gpb3,37trt2x24u446zk9j3s5z42vdxtbjs,e78KLKEM,2020-0188,2020-05-08,01:04:20,01:29:36,NA,incomplete,16,number,1,right,Green_Triangle_Chess_1.jpg,Purple_Triangle_Dots_2.jpg,Red_Circle_Stripes_1.jpg,right,742,true,NA,NA,NA,NA,NA,NA,NA,NA,true
e78KLKEM,3ka7ijsnx9iy5qpdnesn7gsg38gpb3,37trt2x24u446zk9j3s5z42vdxtbjs,e78KLKEM,2020-0188,2020-05-08,01:04:20,01:29:36,NA,incomplete,17,number,1,left,Purple_Triangle_Chess_1.jpg,Blue_Circle_Dots_1.jpg,Red_Triangle_Grid_4.jpg,left,718,true,NA,NA,NA,NA,NA,NA,NA,NA,true
e78KLKEM,3ka7ijsnx9iy5qpdnesn7gsg38gpb3,37trt2x24u446zk9j3s5z42vdxtbjs,e78KLKEM,2020-0188,2020-05-08,01:04:20,01:29:36,NA,incomplete,18,number,1,right,Red_Plus_Dots_1.jpg,Green_Plus_Grid_4.jpg,Purple_Circle_Chess_1.jpg,right,685,true,NA,NA,NA,NA,NA,NA,NA,NA,true
e78KLKEM,3ka7ijsnx9iy5qpdnesn7gsg38gpb3,37trt2x24u446zk9j3s5z42vdxtbjs,e78KLKEM,2020-0188,2020-05-08,01:04:20,01:29:36,NA,incomplete,19,number,1,left,Green_Circle_Grid_3.jpg,Blue_Star_Chess_3.jpg,Red_Circle_Stripes_1.jpg,left,687,true,NA,NA,NA,NA,NA,NA,NA,NA,true
e78KLKEM,3ka7ijsnx9iy5qpdnesn7gsg38gpb3,37trt2x24u446zk9j3s5z42vdxtbjs,e78KLKEM,2020-0188,2020-05-08,01:04:20,01:29:36,NA,incomplete,20,shape,1,right,Green_Circle_Grid_4.jpg,Blue_Triangle_Dots_4.jpg,Red_Circle_Chess_2.jpg,left,856,false,NA,NA,NA,NA,NA,NA,NA,NA,true
e78KLKEM,3ka7ijsnx9iy5qpdnesn7gsg38gpb3,37trt2x24u446zk9j3s5z42vdxtbjs,e78KLKEM,2020-0188,2020-05-08,01:04:20,01:29:36,NA,incomplete,21,shape,1,left,Green_Triangle_Dots_4.jpg,Purple_Triangle_Grid_1.jpg,Blue_Star_Stripes_4.jpg,left,835,true,NA,NA,NA,NA,NA,NA,NA,NA,true
e78KLKEM,3ka7ijsnx9iy5qpdnesn7gsg38gpb3,37trt2x24u446zk9j3s5z42vdxtbjs,e78KLKEM,2020-0188,2020-05-08,01:04:20,01:29:36,NA,incomplete,22,shape,1,left,Green_Star_Dots_2.jpg,Blue_Star_Grid_3.jpg,Red_Plus_Chess_2.jpg,left,687,true,NA,NA,NA,NA,NA,NA,NA,NA,true
e78KLKEM,3ka7ijsnx9iy5qpdnesn7gsg38gpb3,37trt2x24u446zk9j3s5z42vdxtbjs,e78KLKEM,2020-0188,2020-05-08,01:04:20,01:29:36,NA,incomplete,23,shape,0,left,Red_Plus_Chess_3.jpg,Purple_Plus_Grid_2.jpg,Green_Circle_Dots_3.jpg,left,639,true,NA,NA,NA,NA,NA,NA,NA,NA,true
e78KLKEM,3ka7ijsnx9iy5qpdnesn7gsg38gpb3,37trt2x24u446zk9j3s5z42vdxtbjs,e78KLKEM,2020-0188,2020-05-08,01:04:20,01:29:36,NA,incomplete,24,shape,0,left,Purple_Plus_Dots_1.jpg,Red_Plus_Chess_3.jpg,Green_Triangle_Stripes_1.jpg,left,795,true,NA,NA,NA,NA,NA,NA,NA,NA,true
e78KLKEM,3ka7ijsnx9iy5qpdnesn7gsg38gpb3,37trt2x24u446zk9j3s5z42vdxtbjs,e78KLKEM,2020-0188,2020-05-08,01:04:20,01:29:36,NA,incomplete,25,shape,1,left,Blue_Plus_Grid_2.jpg,Red_Plus_Stripes_4.jpg,Green_Star_Dots_2.jpg,left,809,true,NA,NA,NA,NA,NA,NA,NA,NA,true
e78KLKEM,3ka7ijsnx9iy5qpdnesn7gsg38gpb3,37trt2x24u446zk9j3s5z42vdxtbjs,e78KLKEM,2020-0188,2020-05-08,01:04:20,01:29:36,NA,incomplete,26,shape,1,left,Purple_Circle_Stripes_1.jpg,Red_Circle_Dots_3.jpg,Blue_Triangle_Grid_1.jpg,left,756,true,NA,NA,NA,NA,NA,NA,NA,NA,true
e78KLKEM,3ka7ijsnx9iy5qpdnesn7gsg38gpb3,37trt2x24u446zk9j3s5z42vdxtbjs,e78KLKEM,2020-0188,2020-05-08,01:04:20,01:29:36,NA,incomplete,27,shape,1,right,Green_Plus_Stripes_3.jpg,Purple_Circle_Grid_3.jpg,Red_Plus_Dots_2.jpg,right,659,true,NA,NA,NA,NA,NA,NA,NA,NA,true
e78KLKEM,3ka7ijsnx9iy5qpdnesn7gsg38gpb3,37trt2x24u446zk9j3s5z42vdxtbjs,e78KLKEM,2020-0188,2020-05-08,01:04:20,01:29:36,NA,incomplete,28,shape,1,left,Green_Star_Dots_4.jpg,Purple_Star_Stripes_2.jpg,Red_Plus_Grid_4.jpg,left,677,true,NA,NA,NA,NA,NA,NA,NA,NA,true
e78KLKEM,3ka7ijsnx9iy5qpdnesn7gsg38gpb3,37trt2x24u446zk9j3s5z42vdxtbjs,e78KLKEM,2020-0188,2020-05-08,01:04:20,01:29:36,NA,incomplete,29,shape,0,right,Green_Triangle_Grid_3.jpg,Red_Star_Chess_3.jpg,Purple_Triangle_Stripes_4.jpg,right,959,true,NA,NA,NA,NA,NA,NA,NA,NA,true
e78KLKEM,3ka7ijsnx9iy5qpdnesn7gsg38gpb3,37trt2x24u446zk9j3s5z42vdxtbjs,e78KLKEM,2020-0188,2020-05-08,01:04:20,01:29:36,NA,incomplete,30,shape,0,right,Green_Triangle_Dots_4.jpg,Blue_Circle_Stripes_4.jpg,Red_Triangle_Chess_2.jpg,right,886,true,NA,NA,NA,NA,NA,NA,NA,NA,true
e78KLKEM,3ka7ijsnx9iy5qpdnesn7gsg38gpb3,37trt2x24u446zk9j3s5z42vdxtbjs,e78KLKEM,2020-0188,2020-05-08,01:04:20,01:29:36,NA,incomplete,31,shape,0,left,Red_Plus_Dots_3.jpg,Purple_Plus_Grid_4.jpg,Green_Star_Chess_3.jpg,left,847,true,NA,NA,NA,NA,NA,NA,NA,NA,true
e78KLKEM,3ka7ijsnx9iy5qpdnesn7gsg38gpb3,37trt2x24u446zk9j3s5z42vdxtbjs,e78KLKEM,2020-0188,2020-05-08,01:04:20,01:29:36,NA,incomplete,32,shape,0,left,Red_Plus_Dots_4.jpg,Purple_Plus_Chess_3.jpg,Green_Star_Stripes_4.jpg,left,1363,true,NA,NA,NA,NA,NA,NA,NA,NA,true
e78KLKEM,3ka7ijsnx9iy5qpdnesn7gsg38gpb3,37trt2x24u446zk9j3s5z42vdxtbjs,e78KLKEM,2020-0188,2020-05-08,01:04:20,01:29:36,NA,incomplete,33,shape,1,right,Blue_Star_Chess_3.jpg,Green_Plus_Stripes_3.jpg,Purple_Star_Dots_1.jpg,right,1210,true,NA,NA,NA,NA,NA,NA,NA,NA,true
e78KLKEM,3ka7ijsnx9iy5qpdnesn7gsg38gpb3,37trt2x24u446zk9j3s5z42vdxtbjs,e78KLKEM,2020-0188,2020-05-08,01:04:20,01:29:36,NA,incomplete,34,shape,0,right,Red_Circle_Grid_4.jpg,Purple_Star_Stripes_4.jpg,Blue_Circle_Chess_2.jpg,right,886,true,NA,NA,NA,NA,NA,NA,NA,NA,true
e78KLKEM,3ka7ijsnx9iy5qpdnesn7gsg38gpb3,37trt2x24u446zk9j3s5z42vdxtbjs,e78KLKEM,2020-0188,2020-05-08,01:04:20,01:29:36,NA,incomplete,35,shape,0,right,Red_Triangle_Chess_2.jpg,Purple_Circle_Dots_2.jpg,Green_Triangle_Grid_3.jpg,right,895,true,NA,NA,NA,NA,NA,NA,NA,NA,true
e78KLKEM,3ka7ijsnx9iy5qpdnesn7gsg38gpb3,37trt2x24u446zk9j3s5z42vdxtbjs,e78KLKEM,2020-0188,2020-05-08,01:04:20,01:29:36,NA,incomplete,36,shape,1,left,Green_Circle_Dots_1.jpg,Purple_Circle_Chess_2.jpg,Red_Plus_Stripes_1.jpg,left,856,true,NA,NA,NA,NA,NA,NA,NA,NA,true
e78KLKEM,3ka7ijsnx9iy5qpdnesn7gsg38gpb3,37trt2x24u446zk9j3s5z42vdxtbjs,e78KLKEM,2020-0188,2020-05-08,01:04:20,01:29:36,NA,incomplete,37,shape,1,right,Blue_Star_Grid_3.jpg,Red_Circle_Dots_3.jpg,Green_Star_Stripes_4.jpg,right,1090,true,NA,NA,NA,NA,NA,NA,NA,NA,true
e78KLKEM,3ka7ijsnx9iy5qpdnesn7gsg38gpb3,37trt2x24u446zk9j3s5z42vdxtbjs,e78KLKEM,2020-0188,2020-05-08,01:04:20,01:29:36,NA,incomplete,38,shape,1,left,Green_Plus_Dots_1.jpg,Red_Plus_Chess_4.jpg,Blue_Star_Stripes_1.jpg,left,838,true,NA,NA,NA,NA,NA,NA,NA,NA,true
e78KLKEM,3ka7ijsnx9iy5qpdnesn7gsg38gpb3,37trt2x24u446zk9j3s5z42vdxtbjs,e78KLKEM,2020-0188,2020-05-08,01:04:20,01:29:36,NA,incomplete,39,shape,1,right,Green_Circle_Grid_2.jpg,Blue_Triangle_Dots_2.jpg,Red_Circle_Chess_3.jpg,right,895,true,NA,NA,NA,NA,NA,NA,NA,NA,true
e78KLKEM,3ka7ijsnx9iy5qpdnesn7gsg38gpb3,37trt2x24u446zk9j3s5z42vdxtbjs,e78KLKEM,2020-0188,2020-05-08,01:04:20,01:29:36,NA,incomplete,0,number,1,right,Green_Circle_Chess_2.jpg,Blue_Circle_Dots_3.jpg,Red_Plus_Grid_2.jpg,right,1011,true,high,NA,NA,NA,NA,NA,NA,NA,false
e78KLKEM,3ka7ijsnx9iy5qpdnesn7gsg38gpb3,37trt2x24u446zk9j3s5z42vdxtbjs,e78KLKEM,2020-0188,2020-05-08,01:04:20,01:29:36,NA,incomplete,1,number,1,right,Purple_Plus_Dots_2.jpg,Green_Plus_Grid_4.jpg,Red_Star_Chess_2.jpg,right,790,true,high,NA,NA,NA,NA,NA,NA,NA,false
e78KLKEM,3ka7ijsnx9iy5qpdnesn7gsg38gpb3,37trt2x24u446zk9j3s5z42vdxtbjs,e78KLKEM,2020-0188,2020-05-08,01:04:20,01:29:36,NA,incomplete,2,number,1,left,Green_Circle_Chess_1.jpg,Red_Star_Stripes_1.jpg,Purple_Circle_Grid_3.jpg,left,780,true,high,NA,NA,NA,NA,NA,NA,NA,false
e78KLKEM,3ka7ijsnx9iy5qpdnesn7gsg38gpb3,37trt2x24u446zk9j3s5z42vdxtbjs,e78KLKEM,2020-0188,2020-05-08,01:04:20,01:29:36,NA,incomplete,3,number,1,right,Red_Triangle_Dots_1.jpg,Green_Triangle_Stripes_3.jpg,Blue_Plus_Chess_1.jpg,right,538,true,high,NA,NA,NA,NA,NA,NA,NA,false
e78KLKEM,3ka7ijsnx9iy5qpdnesn7gsg38gpb3,37trt2x24u446zk9j3s5z42vdxtbjs,e78KLKEM,2020-0188,2020-05-08,01:04:20,01:29:36,NA,incomplete,4,number,0,left,Red_Star_Dots_2.jpg,Purple_Triangle_Chess_2.jpg,Blue_Star_Grid_4.jpg,left,616,true,high,NA,NA,NA,NA,NA,NA,NA,false
e78KLKEM,3ka7ijsnx9iy5qpdnesn7gsg38gpb3,37trt2x24u446zk9j3s5z42vdxtbjs,e78KLKEM,2020-0188,2020-05-08,01:04:20,01:29:36,NA,incomplete,5,number,1,right,Purple_Plus_Grid_1.jpg,Green_Plus_Chess_3.jpg,Blue_Circle_Stripes_1.jpg,right,669,true,high,NA,NA,NA,NA,NA,NA,NA,false
e78KLKEM,3ka7ijsnx9iy5qpdnesn7gsg38gpb3,37trt2x24u446zk9j3s5z42vdxtbjs,e78KLKEM,2020-0188,2020-05-08,01:04:20,01:29:36,NA,incomplete,6,number,1,left,Red_Triangle_Stripes_3.jpg,Purple_Plus_Grid_3.jpg,Green_Triangle_Chess_2.jpg,left,750,true,high,NA,NA,NA,NA,NA,NA,NA,false
e78KLKEM,3ka7ijsnx9iy5qpdnesn7gsg38gpb3,37trt2x24u446zk9j3s5z42vdxtbjs,e78KLKEM,2020-0188,2020-05-08,01:04:20,01:29:36,NA,incomplete,7,number,1,left,Red_Star_Dots_3.jpg,Purple_Triangle_Stripes_3.jpg,Blue_Star_Grid_4.jpg,left,630,true,high,NA,NA,NA,NA,NA,NA,NA,false
e78KLKEM,3ka7ijsnx9iy5qpdnesn7gsg38gpb3,37trt2x24u446zk9j3s5z42vdxtbjs,e78KLKEM,2020-0188,2020-05-08,01:04:20,01:29:36,NA,incomplete,8,number,1,right,Red_Triangle_Dots_1.jpg,Purple_Triangle_Chess_2.jpg,Green_Plus_Grid_1.jpg,right,786,true,high,NA,NA,NA,NA,NA,NA,NA,false
e78KLKEM,3ka7ijsnx9iy5qpdnesn7gsg38gpb3,37trt2x24u446zk9j3s5z42vdxtbjs,e78KLKEM,2020-0188,2020-05-08,01:04:20,01:29:36,NA,incomplete,9,number,1,left,Purple_Star_Dots_1.jpg,Green_Plus_Chess_1.jpg,Red_Star_Stripes_3.jpg,left,838,true,high,NA,NA,NA,NA,NA,NA,NA,false
e78KLKEM,3ka7ijsnx9iy5qpdnesn7gsg38gpb3,37trt2x24u446zk9j3s5z42vdxtbjs,e78KLKEM,2020-0188,2020-05-08,01:04:20,01:29:36,NA,incomplete,10,shape,1,right,Red_Triangle_Grid_2.jpg,Blue_Plus_Stripes_2.jpg,Purple_Triangle_Dots_4.jpg,left,746,false,high,NA,NA,NA,NA,NA,NA,NA,false
e78KLKEM,3ka7ijsnx9iy5qpdnesn7gsg38gpb3,37trt2x24u446zk9j3s5z42vdxtbjs,e78KLKEM,2020-0188,2020-05-08,01:04:20,01:29:36,NA,incomplete,11,shape,1,right,Red_Triangle_Stripes_2.jpg,Blue_Plus_Chess_2.jpg,Green_Triangle_Dots_1.jpg,left,737,false,high,NA,NA,NA,NA,NA,NA,NA,false
e78KLKEM,3ka7ijsnx9iy5qpdnesn7gsg38gpb3,37trt2x24u446zk9j3s5z42vdxtbjs,e78KLKEM,2020-0188,2020-05-08,01:04:20,01:29:36,NA,incomplete,12,shape,1,left,Green_Star_Chess_4.jpg,Blue_Star_Grid_2.jpg,Purple_Plus_Dots_4.jpg,left,992,true,high,NA,NA,NA,NA,NA,NA,NA,false
e78KLKEM,3ka7ijsnx9iy5qpdnesn7gsg38gpb3,37trt2x24u446zk9j3s5z42vdxtbjs,e78KLKEM,2020-0188,2020-05-08,01:04:20,01:29:36,NA,incomplete,13,shape,1,right,Purple_Plus_Chess_3.jpg,Red_Triangle_Stripes_3.jpg,Green_Plus_Dots_1.jpg,right,806,true,high,NA,NA,NA,NA,NA,NA,NA,false
e78KLKEM,3ka7ijsnx9iy5qpdnesn7gsg38gpb3,37trt2x24u446zk9j3s5z42vdxtbjs,e78KLKEM,2020-0188,2020-05-08,01:04:20,01:29:36,NA,incomplete,14,shape,0,right,Green_Triangle_Stripes_4.jpg,Blue_Plus_Grid_4.jpg,Red_Triangle_Dots_2.jpg,right,809,true,high,NA,NA,NA,NA,NA,NA,NA,false
e78KLKEM,3ka7ijsnx9iy5qpdnesn7gsg38gpb3,37trt2x24u446zk9j3s5z42vdxtbjs,e78KLKEM,2020-0188,2020-05-08,01:04:20,01:29:36,NA,incomplete,15,shape,1,right,Green_Star_Chess_3.jpg,Red_Plus_Grid_3.jpg,Blue_Star_Dots_4.jpg,right,968,true,high,NA,NA,NA,NA,NA,NA,NA,false
e78KLKEM,3ka7ijsnx9iy5qpdnesn7gsg38gpb3,37trt2x24u446zk9j3s5z42vdxtbjs,e78KLKEM,2020-0188,2020-05-08,01:04:20,01:29:36,NA,incomplete,16,shape,1,left,Green_Triangle_Stripes_3.jpg,Purple_Triangle_Dots_4.jpg,Red_Circle_Chess_3.jpg,left,797,true,high,NA,NA,NA,NA,NA,NA,NA,false
e78KLKEM,3ka7ijsnx9iy5qpdnesn7gsg38gpb3,37trt2x24u446zk9j3s5z42vdxtbjs,e78KLKEM,2020-0188,2020-05-08,01:04:20,01:29:36,NA,incomplete,17,shape,0,right,Red_Triangle_Grid_2.jpg,Purple_Plus_Chess_2.jpg,Green_Triangle_Stripes_4.jpg,right,730,true,high,NA,NA,NA,NA,NA,NA,NA,false
e78KLKEM,3ka7ijsnx9iy5qpdnesn7gsg38gpb3,37trt2x24u446zk9j3s5z42vdxtbjs,e78KLKEM,2020-0188,2020-05-08,01:04:20,01:29:36,NA,incomplete,18,shape,1,right,Purple_Plus_Grid_4.jpg,Blue_Star_Chess_4.jpg,Green_Plus_Stripes_2.jpg,right,779,true,high,NA,NA,NA,NA,NA,NA,NA,false
e78KLKEM,3ka7ijsnx9iy5qpdnesn7gsg38gpb3,37trt2x24u446zk9j3s5z42vdxtbjs,e78KLKEM,2020-0188,2020-05-08,01:04:20,01:29:36,NA,incomplete,19,shape,1,left,Green_Plus_Grid_4.jpg,Red_Plus_Chess_1.jpg,Blue_Circle_Stripes_4.jpg,left,728,true,high,NA,NA,NA,NA,NA,NA,NA,false
e78KLKEM,3ka7ijsnx9iy5qpdnesn7gsg38gpb3,37trt2x24u446zk9j3s5z42vdxtbjs,e78KLKEM,2020-0188,2020-05-08,01:04:20,01:29:36,NA,incomplete,20,number,1,right,Blue_Circle_Grid_1.jpg,Red_Circle_Stripes_4.jpg,Green_Star_Dots_1.jpg,left,751,false,high,NA,NA,NA,NA,NA,NA,NA,false
e78KLKEM,3ka7ijsnx9iy5qpdnesn7gsg38gpb3,37trt2x24u446zk9j3s5z42vdxtbjs,e78KLKEM,2020-0188,2020-05-08,01:04:20,01:29:36,NA,incomplete,21,number,1,right,Purple_Triangle_Grid_2.jpg,Green_Triangle_Dots_4.jpg,Red_Circle_Chess_2.jpg,right,774,true,high,NA,NA,NA,NA,NA,NA,NA,false
e78KLKEM,3ka7ijsnx9iy5qpdnesn7gsg38gpb3,37trt2x24u446zk9j3s5z42vdxtbjs,e78KLKEM,2020-0188,2020-05-08,01:04:20,01:29:36,NA,incomplete,22,number,1,left,Red_Star_Grid_3.jpg,Green_Triangle_Dots_3.jpg,Purple_Star_Chess_1.jpg,right,724,false,high,NA,NA,NA,NA,NA,NA,NA,false
e78KLKEM,3ka7ijsnx9iy5qpdnesn7gsg38gpb3,37trt2x24u446zk9j3s5z42vdxtbjs,e78KLKEM,2020-0188,2020-05-08,01:04:20,01:29:36,NA,incomplete,23,number,1,left,Purple_Circle_Chess_3.jpg,Red_Triangle_Grid_3.jpg,Green_Circle_Stripes_2.jpg,right,668,false,high,NA,NA,NA,NA,NA,NA,NA,false
e78KLKEM,3ka7ijsnx9iy5qpdnesn7gsg38gpb3,37trt2x24u446zk9j3s5z42vdxtbjs,e78KLKEM,2020-0188,2020-05-08,01:04:20,01:29:36,NA,incomplete,24,number,1,left,Blue_Triangle_Dots_2.jpg,Green_Circle_Grid_2.jpg,Red_Triangle_Stripes_3.jpg,left,734,true,high,NA,NA,NA,NA,NA,NA,NA,false
e78KLKEM,3ka7ijsnx9iy5qpdnesn7gsg38gpb3,37trt2x24u446zk9j3s5z42vdxtbjs,e78KLKEM,2020-0188,2020-05-08,01:04:20,01:29:36,NA,incomplete,25,number,1,left,Red_Plus_Grid_1.jpg,Green_Triangle_Stripes_1.jpg,Purple_Plus_Dots_2.jpg,left,798,true,high,NA,NA,NA,NA,NA,NA,NA,false
e78KLKEM,3ka7ijsnx9iy5qpdnesn7gsg38gpb3,37trt2x24u446zk9j3s5z42vdxtbjs,e78KLKEM,2020-0188,2020-05-08,01:04:20,01:29:36,NA,incomplete,26,number,1,left,Red_Triangle_Chess_3.jpg,Purple_Plus_Dots_3.jpg,Green_Triangle_Stripes_4.jpg,left,674,true,high,NA,NA,NA,NA,NA,NA,NA,false
e78KLKEM,3ka7ijsnx9iy5qpdnesn7gsg38gpb3,37trt2x24u446zk9j3s5z42vdxtbjs,e78KLKEM,2020-0188,2020-05-08,01:04:20,01:29:36,NA,incomplete,27,number,1,left,Purple_Star_Grid_1.jpg,Blue_Circle_Stripes_1.jpg,Green_Star_Chess_3.jpg,left,748,true,high,NA,NA,NA,NA,NA,NA,NA,false
e78KLKEM,3ka7ijsnx9iy5qpdnesn7gsg38gpb3,37trt2x24u446zk9j3s5z42vdxtbjs,e78KLKEM,2020-0188,2020-05-08,01:04:20,01:29:36,NA,incomplete,28,number,1,left,Purple_Plus_Stripes_3.jpg,Green_Star_Chess_3.jpg,Red_Plus_Grid_1.jpg,left,795,true,high,NA,NA,NA,NA,NA,NA,NA,false
e78KLKEM,3ka7ijsnx9iy5qpdnesn7gsg38gpb3,37trt2x24u446zk9j3s5z42vdxtbjs,e78KLKEM,2020-0188,2020-05-08,01:04:20,01:29:36,NA,incomplete,29,number,0,right,Green_Star_Grid_4.jpg,Blue_Star_Stripes_1.jpg,Red_Triangle_Dots_4.jpg,right,794,true,high,NA,NA,NA,NA,NA,NA,NA,false
e78KLKEM,3ka7ijsnx9iy5qpdnesn7gsg38gpb3,37trt2x24u446zk9j3s5z42vdxtbjs,e78KLKEM,2020-0188,2020-05-08,01:04:20,01:29:36,NA,incomplete,30,shape,1,right,Green_Triangle_Grid_4.jpg,Blue_Plus_Dots_4.jpg,Purple_Triangle_Chess_3.jpg,left,798,false,high,NA,NA,NA,NA,NA,NA,NA,false
e78KLKEM,3ka7ijsnx9iy5qpdnesn7gsg38gpb3,37trt2x24u446zk9j3s5z42vdxtbjs,e78KLKEM,2020-0188,2020-05-08,01:04:20,01:29:36,NA,incomplete,31,shape,1,right,Blue_Circle_Chess_3.jpg,Red_Star_Dots_3.jpg,Green_Circle_Grid_4.jpg,right,812,true,high,NA,NA,NA,NA,NA,NA,NA,false
e78KLKEM,3ka7ijsnx9iy5qpdnesn7gsg38gpb3,37trt2x24u446zk9j3s5z42vdxtbjs,e78KLKEM,2020-0188,2020-05-08,01:04:20,01:29:36,NA,incomplete,32,shape,1,left,Blue_Star_Stripes_3.jpg,Red_Star_Chess_4.jpg,Green_Plus_Grid_3.jpg,left,1103,true,high,NA,NA,NA,NA,NA,NA,NA,false
e78KLKEM,3ka7ijsnx9iy5qpdnesn7gsg38gpb3,37trt2x24u446zk9j3s5z42vdxtbjs,e78KLKEM,2020-0188,2020-05-08,01:04:20,01:29:36,NA,incomplete,33,shape,1,left,Red_Plus_Grid_3.jpg,Green_Plus_Dots_4.jpg,Purple_Circle_Stripes_3.jpg,left,945,true,high,NA,NA,NA,NA,NA,NA,NA,false
e78KLKEM,3ka7ijsnx9iy5qpdnesn7gsg38gpb3,37trt2x24u446zk9j3s5z42vdxtbjs,e78KLKEM,2020-0188,2020-05-08,01:04:20,01:29:36,NA,incomplete,34,shape,1,right,Blue_Circle_Dots_4.jpg,Red_Star_Chess_4.jpg,Green_Circle_Grid_3.jpg,right,713,true,high,NA,NA,NA,NA,NA,NA,NA,false
e78KLKEM,3ka7ijsnx9iy5qpdnesn7gsg38gpb3,37trt2x24u446zk9j3s5z42vdxtbjs,e78KLKEM,2020-0188,2020-05-08,01:04:20,01:29:36,NA,incomplete,35,shape,0,left,Blue_Plus_Chess_3.jpg,Red_Plus_Grid_4.jpg,Green_Circle_Dots_3.jpg,left,720,true,high,NA,NA,NA,NA,NA,NA,NA,false
e78KLKEM,3ka7ijsnx9iy5qpdnesn7gsg38gpb3,37trt2x24u446zk9j3s5z42vdxtbjs,e78KLKEM,2020-0188,2020-05-08,01:04:20,01:29:36,NA,incomplete,36,shape,1,left,Green_Plus_Dots_2.jpg,Red_Plus_Chess_1.jpg,Blue_Circle_Grid_2.jpg,right,1000,false,high,NA,NA,NA,NA,NA,NA,NA,false
e78KLKEM,3ka7ijsnx9iy5qpdnesn7gsg38gpb3,37trt2x24u446zk9j3s5z42vdxtbjs,e78KLKEM,2020-0188,2020-05-08,01:04:20,01:29:36,NA,incomplete,37,shape,1,right,Green_Plus_Chess_2.jpg,Purple_Circle_Dots_2.jpg,Blue_Plus_Stripes_1.jpg,right,814,true,high,NA,NA,NA,NA,NA,NA,NA,false
e78KLKEM,3ka7ijsnx9iy5qpdnesn7gsg38gpb3,37trt2x24u446zk9j3s5z42vdxtbjs,e78KLKEM,2020-0188,2020-05-08,01:04:20,01:29:36,NA,incomplete,38,shape,0,right,Purple_Circle_Stripes_1.jpg,Blue_Plus_Dots_1.jpg,Green_Circle_Grid_2.jpg,right,849,true,high,NA,NA,NA,NA,NA,NA,NA,false
e78KLKEM,3ka7ijsnx9iy5qpdnesn7gsg38gpb3,37trt2x24u446zk9j3s5z42vdxtbjs,e78KLKEM,2020-0188,2020-05-08,01:04:20,01:29:36,NA,incomplete,39,shape,0,left,Blue_Star_Chess_2.jpg,Green_Star_Stripes_3.jpg,Purple_Plus_Dots_2.jpg,right,837,false,high,NA,NA,NA,NA,NA,NA,NA,false
e78KLKEM,3ka7ijsnx9iy5qpdnesn7gsg38gpb3,37trt2x24u446zk9j3s5z42vdxtbjs,e78KLKEM,2020-0188,2020-05-08,01:04:20,01:29:36,NA,incomplete,40,number,1,left,Purple_Circle_Stripes_3.jpg,Red_Plus_Grid_3.jpg,Blue_Circle_Dots_1.jpg,left,680,true,high,NA,NA,NA,NA,NA,NA,NA,false
e78KLKEM,3ka7ijsnx9iy5qpdnesn7gsg38gpb3,37trt2x24u446zk9j3s5z42vdxtbjs,e78KLKEM,2020-0188,2020-05-08,01:04:20,01:29:36,NA,incomplete,41,number,1,right,Purple_Plus_Grid_1.jpg,Green_Plus_Stripes_2.jpg,Blue_Triangle_Chess_1.jpg,right,762,true,high,NA,NA,NA,NA,NA,NA,NA,false
e78KLKEM,3ka7ijsnx9iy5qpdnesn7gsg38gpb3,37trt2x24u446zk9j3s5z42vdxtbjs,e78KLKEM,2020-0188,2020-05-08,01:04:20,01:29:36,NA,incomplete,42,number,1,right,Red_Star_Chess_4.jpg,Purple_Star_Dots_3.jpg,Green_Circle_Grid_4.jpg,right,744,true,high,NA,NA,NA,NA,NA,NA,NA,false
e78KLKEM,3ka7ijsnx9iy5qpdnesn7gsg38gpb3,37trt2x24u446zk9j3s5z42vdxtbjs,e78KLKEM,2020-0188,2020-05-08,01:04:20,01:29:36,NA,incomplete,43,number,1,right,Purple_Circle_Stripes_3.jpg,Blue_Circle_Dots_4.jpg,Green_Triangle_Chess_3.jpg,left,824,false,high,NA,NA,NA,NA,NA,NA,NA,false
e78KLKEM,3ka7ijsnx9iy5qpdnesn7gsg38gpb3,37trt2x24u446zk9j3s5z42vdxtbjs,e78KLKEM,2020-0188,2020-05-08,01:04:20,01:29:36,NA,incomplete,44,number,1,left,Red_Triangle_Grid_3.jpg,Purple_Plus_Chess_3.jpg,Green_Triangle_Dots_4.jpg,left,740,true,high,NA,NA,NA,NA,NA,NA,NA,false
e78KLKEM,3ka7ijsnx9iy5qpdnesn7gsg38gpb3,37trt2x24u446zk9j3s5z42vdxtbjs,e78KLKEM,2020-0188,2020-05-08,01:04:20,01:29:36,NA,incomplete,45,number,1,left,Blue_Triangle_Grid_3.jpg,Red_Circle_Dots_3.jpg,Purple_Triangle_Chess_2.jpg,left,860,true,high,NA,NA,NA,NA,NA,NA,NA,false
e78KLKEM,3ka7ijsnx9iy5qpdnesn7gsg38gpb3,37trt2x24u446zk9j3s5z42vdxtbjs,e78KLKEM,2020-0188,2020-05-08,01:04:20,01:29:36,NA,incomplete,46,number,1,right,Red_Star_Dots_4.jpg,Purple_Star_Chess_1.jpg,Green_Plus_Grid_4.jpg,right,813,true,high,NA,NA,NA,NA,NA,NA,NA,false
e78KLKEM,3ka7ijsnx9iy5qpdnesn7gsg38gpb3,37trt2x24u446zk9j3s5z42vdxtbjs,e78KLKEM,2020-0188,2020-05-08,01:04:20,01:29:36,NA,incomplete,47,number,1,right,Red_Plus_Stripes_4.jpg,Purple_Plus_Dots_3.jpg,Green_Circle_Grid_4.jpg,right,761,true,high,NA,NA,NA,NA,NA,NA,NA,false
e78KLKEM,3ka7ijsnx9iy5qpdnesn7gsg38gpb3,37trt2x24u446zk9j3s5z42vdxtbjs,e78KLKEM,2020-0188,2020-05-08,01:04:20,01:29:36,NA,incomplete,48,number,1,left,Purple_Star_Chess_3.jpg,Blue_Circle_Dots_3.jpg,Red_Star_Grid_2.jpg,left,833,true,high,NA,NA,NA,NA,NA,NA,NA,false
e78KLKEM,3ka7ijsnx9iy5qpdnesn7gsg38gpb3,37trt2x24u446zk9j3s5z42vdxtbjs,e78KLKEM,2020-0188,2020-05-08,01:04:20,01:29:36,NA,incomplete,49,number,1,right,Green_Star_Stripes_3.jpg,Red_Star_Dots_2.jpg,Blue_Plus_Chess_3.jpg,right,749,true,high,NA,NA,NA,NA,NA,NA,NA,false
e78KLKEM,3ka7ijsnx9iy5qpdnesn7gsg38gpb3,37trt2x24u446zk9j3s5z42vdxtbjs,e78KLKEM,2020-0188,2020-05-08,01:04:20,01:29:36,NA,incomplete,50,shape,1,right,Purple_Triangle_Grid_4.jpg,Blue_Star_Dots_4.jpg,Red_Triangle_Stripes_1.jpg,left,740,false,high,NA,NA,NA,NA,NA,NA,NA,false
e78KLKEM,3ka7ijsnx9iy5qpdnesn7gsg38gpb3,37trt2x24u446zk9j3s5z42vdxtbjs,e78KLKEM,2020-0188,2020-05-08,01:04:20,01:29:36,NA,incomplete,51,shape,1,right,Blue_Plus_Chess_4.jpg,Green_Triangle_Stripes_4.jpg,Purple_Plus_Dots_2.jpg,right,747,true,high,NA,NA,NA,NA,NA,NA,NA,false
e78KLKEM,3ka7ijsnx9iy5qpdnesn7gsg38gpb3,37trt2x24u446zk9j3s5z42vdxtbjs,e78KLKEM,2020-0188,2020-05-08,01:04:20,01:29:36,NA,incomplete,52,shape,1,right,Blue_Triangle_Chess_3.jpg,Red_Star_Stripes_3.jpg,Purple_Triangle_Dots_4.jpg,right,898,true,high,NA,NA,NA,NA,NA,NA,NA,false
e78KLKEM,3ka7ijsnx9iy5qpdnesn7gsg38gpb3,37trt2x24u446zk9j3s5z42vdxtbjs,e78KLKEM,2020-0188,2020-05-08,01:04:20,01:29:36,NA,incomplete,53,shape,1,right,Green_Circle_Grid_1.jpg,Purple_Triangle_Chess_1.jpg,Red_Circle_Dots_4.jpg,left,965,false,high,NA,NA,NA,NA,NA,NA,NA,false
e78KLKEM,3ka7ijsnx9iy5qpdnesn7gsg38gpb3,37trt2x24u446zk9j3s5z42vdxtbjs,e78KLKEM,2020-0188,2020-05-08,01:04:20,01:29:36,NA,incomplete,54,shape,1,right,Red_Star_Grid_3.jpg,Blue_Plus_Stripes_3.jpg,Purple_Star_Chess_2.jpg,right,970,true,high,NA,NA,NA,NA,NA,NA,NA,false
e78KLKEM,3ka7ijsnx9iy5qpdnesn7gsg38gpb3,37trt2x24u446zk9j3s5z42vdxtbjs,e78KLKEM,2020-0188,2020-05-08,01:04:20,01:29:36,NA,incomplete,55,shape,1,left,Green_Star_Grid_1.jpg,Red_Star_Chess_3.jpg,Purple_Plus_Stripes_1.jpg,left,657,true,high,NA,NA,NA,NA,NA,NA,NA,false
e78KLKEM,3ka7ijsnx9iy5qpdnesn7gsg38gpb3,37trt2x24u446zk9j3s5z42vdxtbjs,e78KLKEM,2020-0188,2020-05-08,01:04:20,01:29:36,NA,incomplete,56,shape,1,left,Green_Star_Stripes_2.jpg,Blue_Star_Grid_4.jpg,Purple_Plus_Dots_2.jpg,left,730,true,high,NA,NA,NA,NA,NA,NA,NA,false
e78KLKEM,3ka7ijsnx9iy5qpdnesn7gsg38gpb3,37trt2x24u446zk9j3s5z42vdxtbjs,e78KLKEM,2020-0188,2020-05-08,01:04:20,01:29:36,NA,incomplete,57,shape,0,left,Purple_Star_Grid_2.jpg,Blue_Star_Stripes_1.jpg,Red_Plus_Dots_2.jpg,right,874,false,high,NA,NA,NA,NA,NA,NA,NA,false
e78KLKEM,3ka7ijsnx9iy5qpdnesn7gsg38gpb3,37trt2x24u446zk9j3s5z42vdxtbjs,e78KLKEM,2020-0188,2020-05-08,01:04:20,01:29:36,NA,incomplete,58,shape,0,right,Green_Plus_Dots_3.jpg,Purple_Triangle_Stripes_3.jpg,Blue_Plus_Chess_2.jpg,left,780,false,high,NA,NA,NA,NA,NA,NA,NA,false
e78KLKEM,3ka7ijsnx9iy5qpdnesn7gsg38gpb3,37trt2x24u446zk9j3s5z42vdxtbjs,e78KLKEM,2020-0188,2020-05-08,01:04:20,01:29:36,NA,incomplete,59,shape,1,left,Green_Plus_Chess_1.jpg,Blue_Plus_Stripes_3.jpg,Red_Triangle_Dots_1.jpg,left,809,true,high,NA,NA,NA,NA,NA,NA,NA,false
e78KLKEM,3ka7ijsnx9iy5qpdnesn7gsg38gpb3,37trt2x24u446zk9j3s5z42vdxtbjs,e78KLKEM,2020-0188,2020-05-08,01:04:20,01:29:36,NA,incomplete,60,number,1,left,Green_Plus_Dots_1.jpg,Purple_Star_Stripes_1.jpg,Red_Plus_Chess_2.jpg,left,799,true,high,NA,NA,NA,NA,NA,NA,NA,false
e78KLKEM,3ka7ijsnx9iy5qpdnesn7gsg38gpb3,37trt2x24u446zk9j3s5z42vdxtbjs,e78KLKEM,2020-0188,2020-05-08,01:04:20,01:29:36,NA,incomplete,61,number,1,right,Red_Plus_Chess_1.jpg,Green_Plus_Stripes_2.jpg,Purple_Triangle_Grid_1.jpg,left,933,false,high,NA,NA,NA,NA,NA,NA,NA,false
e78KLKEM,3ka7ijsnx9iy5qpdnesn7gsg38gpb3,37trt2x24u446zk9j3s5z42vdxtbjs,e78KLKEM,2020-0188,2020-05-08,01:04:20,01:29:36,NA,incomplete,62,number,1,right,Red_Star_Dots_2.jpg,Blue_Star_Grid_3.jpg,Purple_Triangle_Stripes_2.jpg,right,747,true,high,NA,NA,NA,NA,NA,NA,NA,false
e78KLKEM,3ka7ijsnx9iy5qpdnesn7gsg38gpb3,37trt2x24u446zk9j3s5z42vdxtbjs,e78KLKEM,2020-0188,2020-05-08,01:04:20,01:29:36,NA,incomplete,63,number,1,right,Red_Circle_Stripes_3.jpg,Purple_Circle_Grid_1.jpg,Blue_Star_Dots_3.jpg,right,691,true,high,NA,NA,NA,NA,NA,NA,NA,false
e78KLKEM,3ka7ijsnx9iy5qpdnesn7gsg38gpb3,37trt2x24u446zk9j3s5z42vdxtbjs,e78KLKEM,2020-0188,2020-05-08,01:04:20,01:29:36,NA,incomplete,64,number,1,left,Green_Star_Grid_2.jpg,Red_Triangle_Stripes_2.jpg,Blue_Star_Chess_4.jpg,left,804,true,high,NA,NA,NA,NA,NA,NA,NA,false
e78KLKEM,3ka7ijsnx9iy5qpdnesn7gsg38gpb3,37trt2x24u446zk9j3s5z42vdxtbjs,e78KLKEM,2020-0188,2020-05-08,01:04:20,01:29:36,NA,incomplete,65,number,1,left,Green_Star_Grid_2.jpg,Red_Circle_Dots_2.jpg,Blue_Star_Chess_1.jpg,left,817,true,high,NA,NA,NA,NA,NA,NA,NA,false
e78KLKEM,3ka7ijsnx9iy5qpdnesn7gsg38gpb3,37trt2x24u446zk9j3s5z42vdxtbjs,e78KLKEM,2020-0188,2020-05-08,01:04:20,01:29:36,NA,incomplete,66,number,0,left,Purple_Circle_Stripes_4.jpg,Blue_Star_Chess_4.jpg,Green_Circle_Grid_1.jpg,left,644,true,high,NA,NA,NA,NA,NA,NA,NA,false
e78KLKEM,3ka7ijsnx9iy5qpdnesn7gsg38gpb3,37trt2x24u446zk9j3s5z42vdxtbjs,e78KLKEM,2020-0188,2020-05-08,01:04:20,01:29:36,NA,incomplete,67,number,0,left,Red_Triangle_Chess_2.jpg,Blue_Plus_Stripes_2.jpg,Purple_Triangle_Dots_3.jpg,right,849,false,high,NA,NA,NA,NA,NA,NA,NA,false
e78KLKEM,3ka7ijsnx9iy5qpdnesn7gsg38gpb3,37trt2x24u446zk9j3s5z42vdxtbjs,e78KLKEM,2020-0188,2020-05-08,01:04:20,01:29:36,NA,incomplete,68,number,1,right,Blue_Triangle_Grid_1.jpg,Red_Triangle_Chess_4.jpg,Green_Circle_Dots_1.jpg,left,915,false,high,NA,NA,NA,NA,NA,NA,NA,false
e78KLKEM,3ka7ijsnx9iy5qpdnesn7gsg38gpb3,37trt2x24u446zk9j3s5z42vdxtbjs,e78KLKEM,2020-0188,2020-05-08,01:04:20,01:29:36,NA,incomplete,69,number,0,right,Red_Triangle_Dots_2.jpg,Blue_Triangle_Grid_3.jpg,Purple_Plus_Stripes_2.jpg,left,1100,false,high,NA,NA,NA,NA,NA,NA,NA,false
e78KLKEM,3ka7ijsnx9iy5qpdnesn7gsg38gpb3,37trt2x24u446zk9j3s5z42vdxtbjs,e78KLKEM,2020-0188,2020-05-08,01:04:20,01:29:36,NA,incomplete,70,shape,0,left,Blue_Plus_Chess_2.jpg,Purple_Plus_Grid_4.jpg,Green_Circle_Dots_2.jpg,left,646,true,high,NA,NA,NA,NA,NA,NA,NA,false
e78KLKEM,3ka7ijsnx9iy5qpdnesn7gsg38gpb3,37trt2x24u446zk9j3s5z42vdxtbjs,e78KLKEM,2020-0188,2020-05-08,01:04:20,01:29:36,NA,incomplete,71,shape,0,right,Green_Triangle_Stripes_3.jpg,Red_Plus_Chess_3.jpg,Blue_Triangle_Grid_1.jpg,left,792,false,high,NA,NA,NA,NA,NA,NA,NA,false
e78KLKEM,3ka7ijsnx9iy5qpdnesn7gsg38gpb3,37trt2x24u446zk9j3s5z42vdxtbjs,e78KLKEM,2020-0188,2020-05-08,01:04:20,01:29:36,NA,incomplete,72,shape,1,right,Red_Circle_Dots_1.jpg,Blue_Star_Stripes_1.jpg,Green_Circle_Chess_3.jpg,right,766,true,high,NA,NA,NA,NA,NA,NA,NA,false
e78KLKEM,3ka7ijsnx9iy5qpdnesn7gsg38gpb3,37trt2x24u446zk9j3s5z42vdxtbjs,e78KLKEM,2020-0188,2020-05-08,01:04:20,01:29:36,NA,incomplete,73,shape,1,right,Red_Plus_Stripes_3.jpg,Purple_Circle_Grid_3.jpg,Green_Plus_Dots_2.jpg,right,892,true,high,NA,NA,NA,NA,NA,NA,NA,false
e78KLKEM,3ka7ijsnx9iy5qpdnesn7gsg38gpb3,37trt2x24u446zk9j3s5z42vdxtbjs,e78KLKEM,2020-0188,2020-05-08,01:04:20,01:29:36,NA,incomplete,74,shape,0,left,Purple_Triangle_Grid_3.jpg,Blue_Triangle_Dots_1.jpg,Green_Plus_Stripes_3.jpg,left,965,true,high,NA,NA,NA,NA,NA,NA,NA,false
e78KLKEM,3ka7ijsnx9iy5qpdnesn7gsg38gpb3,37trt2x24u446zk9j3s5z42vdxtbjs,e78KLKEM,2020-0188,2020-05-08,01:04:20,01:29:36,NA,incomplete,75,shape,1,right,Purple_Star_Grid_4.jpg,Green_Plus_Chess_4.jpg,Blue_Star_Stripes_3.jpg,left,1013,false,high,NA,NA,NA,NA,NA,NA,NA,false
e78KLKEM,3ka7ijsnx9iy5qpdnesn7gsg38gpb3,37trt2x24u446zk9j3s5z42vdxtbjs,e78KLKEM,2020-0188,2020-05-08,01:04:20,01:29:36,NA,incomplete,76,shape,1,left,Red_Triangle_Grid_2.jpg,Blue_Triangle_Stripes_3.jpg,Green_Star_Chess_2.jpg,left,776,true,high,NA,NA,NA,NA,NA,NA,NA,false
e78KLKEM,3ka7ijsnx9iy5qpdnesn7gsg38gpb3,37trt2x24u446zk9j3s5z42vdxtbjs,e78KLKEM,2020-0188,2020-05-08,01:04:20,01:29:36,NA,incomplete,77,shape,0,right,Red_Plus_Stripes_1.jpg,Blue_Triangle_Chess_1.jpg,Green_Plus_Dots_3.jpg,right,838,true,high,NA,NA,NA,NA,NA,NA,NA,false
e78KLKEM,3ka7ijsnx9iy5qpdnesn7gsg38gpb3,37trt2x24u446zk9j3s5z42vdxtbjs,e78KLKEM,2020-0188,2020-05-08,01:04:20,01:29:36,NA,incomplete,78,shape,1,left,Blue_Star_Dots_3.jpg,Purple_Star_Grid_4.jpg,Red_Circle_Stripes_3.jpg,left,802,true,high,NA,NA,NA,NA,NA,NA,NA,false
e78KLKEM,3ka7ijsnx9iy5qpdnesn7gsg38gpb3,37trt2x24u446zk9j3s5z42vdxtbjs,e78KLKEM,2020-0188,2020-05-08,01:04:20,01:29:36,NA,incomplete,79,shape,1,left,Purple_Star_Grid_3.jpg,Green_Star_Stripes_1.jpg,Red_Plus_Dots_3.jpg,left,855,true,high,NA,NA,NA,NA,NA,NA,NA,false
e78KLKEM,3ka7ijsnx9iy5qpdnesn7gsg38gpb3,37trt2x24u446zk9j3s5z42vdxtbjs,e78KLKEM,2020-0188,2020-05-08,01:04:20,01:29:36,NA,incomplete,80,number,1,right,Green_Star_Stripes_2.jpg,Red_Star_Dots_1.jpg,Purple_Plus_Grid_2.jpg,left,545,false,high,NA,NA,NA,NA,NA,NA,NA,false
e78KLKEM,3ka7ijsnx9iy5qpdnesn7gsg38gpb3,37trt2x24u446zk9j3s5z42vdxtbjs,e78KLKEM,2020-0188,2020-05-08,01:04:20,01:29:36,NA,incomplete,81,number,1,left,Blue_Star_Stripes_2.jpg,Purple_Plus_Grid_2.jpg,Green_Star_Chess_3.jpg,right,847,false,high,NA,NA,NA,NA,NA,NA,NA,false
e78KLKEM,3ka7ijsnx9iy5qpdnesn7gsg38gpb3,37trt2x24u446zk9j3s5z42vdxtbjs,e78KLKEM,2020-0188,2020-05-08,01:04:20,01:29:36,NA,incomplete,82,number,1,left,Purple_Star_Stripes_1.jpg,Red_Plus_Grid_1.jpg,Blue_Star_Chess_4.jpg,right,963,false,high,NA,NA,NA,NA,NA,NA,NA,false
e78KLKEM,3ka7ijsnx9iy5qpdnesn7gsg38gpb3,37trt2x24u446zk9j3s5z42vdxtbjs,e78KLKEM,2020-0188,2020-05-08,01:04:20,01:29:36,NA,incomplete,83,number,1,left,Green_Circle_Grid_4.jpg,Blue_Star_Dots_4.jpg,Red_Circle_Stripes_3.jpg,left,747,true,high,NA,NA,NA,NA,NA,NA,NA,false
e78KLKEM,3ka7ijsnx9iy5qpdnesn7gsg38gpb3,37trt2x24u446zk9j3s5z42vdxtbjs,e78KLKEM,2020-0188,2020-05-08,01:04:20,01:29:36,NA,incomplete,84,number,1,right,Blue_Star_Stripes_2.jpg,Purple_Star_Chess_1.jpg,Red_Plus_Grid_2.jpg,right,784,true,high,NA,NA,NA,NA,NA,NA,NA,false
e78KLKEM,3ka7ijsnx9iy5qpdnesn7gsg38gpb3,37trt2x24u446zk9j3s5z42vdxtbjs,e78KLKEM,2020-0188,2020-05-08,01:04:20,01:29:36,NA,incomplete,85,number,1,left,Red_Triangle_Chess_2.jpg,Purple_Plus_Dots_2.jpg,Blue_Triangle_Grid_3.jpg,left,646,true,high,NA,NA,NA,NA,NA,NA,NA,false
e78KLKEM,3ka7ijsnx9iy5qpdnesn7gsg38gpb3,37trt2x24u446zk9j3s5z42vdxtbjs,e78KLKEM,2020-0188,2020-05-08,01:04:20,01:29:36,NA,incomplete,86,number,0,right,Purple_Plus_Grid_3.jpg,Blue_Plus_Stripes_4.jpg,Green_Triangle_Dots_3.jpg,right,1114,true,high,NA,NA,NA,NA,NA,NA,NA,false
e78KLKEM,3ka7ijsnx9iy5qpdnesn7gsg38gpb3,37trt2x24u446zk9j3s5z42vdxtbjs,e78KLKEM,2020-0188,2020-05-08,01:04:20,01:29:36,NA,incomplete,87,number,1,left,Purple_Triangle_Dots_3.jpg,Red_Plus_Grid_3.jpg,Green_Triangle_Chess_1.jpg,right,802,false,high,NA,NA,NA,NA,NA,NA,NA,false
e78KLKEM,3ka7ijsnx9iy5qpdnesn7gsg38gpb3,37trt2x24u446zk9j3s5z42vdxtbjs,e78KLKEM,2020-0188,2020-05-08,01:04:20,01:29:36,NA,incomplete,88,number,1,left,Red_Circle_Chess_1.jpg,Blue_Star_Dots_1.jpg,Purple_Circle_Stripes_2.jpg,right,824,false,high,NA,NA,NA,NA,NA,NA,NA,false
e78KLKEM,3ka7ijsnx9iy5qpdnesn7gsg38gpb3,37trt2x24u446zk9j3s5z42vdxtbjs,e78KLKEM,2020-0188,2020-05-08,01:04:20,01:29:36,NA,incomplete,89,number,1,right,Green_Triangle_Grid_1.jpg,Purple_Triangle_Stripes_3.jpg,Blue_Star_Chess_1.jpg,left,923,false,high,NA,NA,NA,NA,NA,NA,NA,false
e78KLKEM,3ka7ijsnx9iy5qpdnesn7gsg38gpb3,37trt2x24u446zk9j3s5z42vdxtbjs,e78KLKEM,2020-0188,2020-05-08,01:04:20,01:29:36,NA,incomplete,90,shape,1,right,Red_Plus_Stripes_2.jpg,Green_Triangle_Dots_2.jpg,Purple_Plus_Chess_4.jpg,right,899,true,high,NA,NA,NA,NA,NA,NA,NA,false
e78KLKEM,3ka7ijsnx9iy5qpdnesn7gsg38gpb3,37trt2x24u446zk9j3s5z42vdxtbjs,e78KLKEM,2020-0188,2020-05-08,01:04:20,01:29:36,NA,incomplete,91,shape,0,left,Blue_Plus_Dots_1.jpg,Green_Plus_Chess_3.jpg,Red_Star_Stripes_1.jpg,left,692,true,high,NA,NA,NA,NA,NA,NA,NA,false
e78KLKEM,3ka7ijsnx9iy5qpdnesn7gsg38gpb3,37trt2x24u446zk9j3s5z42vdxtbjs,e78KLKEM,2020-0188,2020-05-08,01:04:20,01:29:36,NA,incomplete,92,shape,1,right,Blue_Star_Dots_1.jpg,Purple_Plus_Chess_1.jpg,Green_Star_Stripes_2.jpg,left,701,false,high,NA,NA,NA,NA,NA,NA,NA,false
e78KLKEM,3ka7ijsnx9iy5qpdnesn7gsg38gpb3,37trt2x24u446zk9j3s5z42vdxtbjs,e78KLKEM,2020-0188,2020-05-08,01:04:20,01:29:36,NA,incomplete,93,shape,1,left,Red_Circle_Grid_4.jpg,Purple_Circle_Chess_2.jpg,Blue_Plus_Dots_4.jpg,right,989,false,high,NA,NA,NA,NA,NA,NA,NA,false
e78KLKEM,3ka7ijsnx9iy5qpdnesn7gsg38gpb3,37trt2x24u446zk9j3s5z42vdxtbjs,e78KLKEM,2020-0188,2020-05-08,01:04:20,01:29:36,NA,incomplete,94,shape,1,right,Red_Circle_Grid_2.jpg,Blue_Star_Chess_2.jpg,Purple_Circle_Dots_1.jpg,right,835,true,high,NA,NA,NA,NA,NA,NA,NA,false
e78KLKEM,3ka7ijsnx9iy5qpdnesn7gsg38gpb3,37trt2x24u446zk9j3s5z42vdxtbjs,e78KLKEM,2020-0188,2020-05-08,01:04:20,01:29:36,NA,incomplete,95,shape,1,left,Blue_Triangle_Grid_1.jpg,Green_Triangle_Stripes_3.jpg,Purple_Plus_Chess_1.jpg,left,789,true,high,NA,NA,NA,NA,NA,NA,NA,false
e78KLKEM,3ka7ijsnx9iy5qpdnesn7gsg38gpb3,37trt2x24u446zk9j3s5z42vdxtbjs,e78KLKEM,2020-0188,2020-05-08,01:04:20,01:29:36,NA,incomplete,96,shape,1,right,Purple_Star_Stripes_1.jpg,Green_Circle_Grid_1.jpg,Red_Star_Dots_4.jpg,right,883,true,high,NA,NA,NA,NA,NA,NA,NA,false
e78KLKEM,3ka7ijsnx9iy5qpdnesn7gsg38gpb3,37trt2x24u446zk9j3s5z42vdxtbjs,e78KLKEM,2020-0188,2020-05-08,01:04:20,01:29:36,NA,incomplete,97,shape,1,left,Blue_Star_Stripes_4.jpg,Purple_Star_Chess_2.jpg,Green_Triangle_Dots_4.jpg,left,965,true,high,NA,NA,NA,NA,NA,NA,NA,false
e78KLKEM,3ka7ijsnx9iy5qpdnesn7gsg38gpb3,37trt2x24u446zk9j3s5z42vdxtbjs,e78KLKEM,2020-0188,2020-05-08,01:04:20,01:29:36,NA,incomplete,98,shape,0,right,Purple_Triangle_Chess_1.jpg,Blue_Circle_Grid_1.jpg,Green_Triangle_Stripes_3.jpg,right,884,true,high,NA,NA,NA,NA,NA,NA,NA,false
e78KLKEM,3ka7ijsnx9iy5qpdnesn7gsg38gpb3,37trt2x24u446zk9j3s5z42vdxtbjs,e78KLKEM,2020-0188,2020-05-08,01:04:20,01:29:36,NA,incomplete,99,shape,1,right,Green_Plus_Chess_3.jpg,Red_Circle_Grid_3.jpg,Purple_Plus_Stripes_4.jpg,left,919,false,high,NA,NA,NA,NA,NA,NA,NA,false
e78KLKEM,3ka7ijsnx9iy5qpdnesn7gsg38gpb3,37trt2x24u446zk9j3s5z42vdxtbjs,e78KLKEM,2020-0188,2020-05-08,01:04:20,01:29:36,NA,incomplete,100,number,0,right,Red_Triangle_Dots_3.jpg,Purple_Triangle_Chess_1.jpg,Blue_Plus_Stripes_3.jpg,right,958,true,high,NA,NA,NA,NA,NA,NA,NA,false
e78KLKEM,3ka7ijsnx9iy5qpdnesn7gsg38gpb3,37trt2x24u446zk9j3s5z42vdxtbjs,e78KLKEM,2020-0188,2020-05-08,01:04:20,01:29:36,NA,incomplete,101,number,1,left,Green_Circle_Stripes_2.jpg,Purple_Plus_Grid_2.jpg,Blue_Circle_Chess_4.jpg,right,787,false,high,NA,NA,NA,NA,NA,NA,NA,false
e78KLKEM,3ka7ijsnx9iy5qpdnesn7gsg38gpb3,37trt2x24u446zk9j3s5z42vdxtbjs,e78KLKEM,2020-0188,2020-05-08,01:04:20,01:29:36,NA,incomplete,102,number,1,right,Blue_Plus_Grid_4.jpg,Purple_Plus_Stripes_1.jpg,Red_Circle_Chess_4.jpg,right,801,true,high,NA,NA,NA,NA,NA,NA,NA,false
e78KLKEM,3ka7ijsnx9iy5qpdnesn7gsg38gpb3,37trt2x24u446zk9j3s5z42vdxtbjs,e78KLKEM,2020-0188,2020-05-08,01:04:20,01:29:36,NA,incomplete,103,number,1,right,Red_Plus_Dots_2.jpg,Purple_Plus_Grid_1.jpg,Blue_Triangle_Stripes_2.jpg,left,918,false,high,NA,NA,NA,NA,NA,NA,NA,false
e78KLKEM,3ka7ijsnx9iy5qpdnesn7gsg38gpb3,37trt2x24u446zk9j3s5z42vdxtbjs,e78KLKEM,2020-0188,2020-05-08,01:04:20,01:29:36,NA,incomplete,104,number,0,right,Purple_Plus_Stripes_2.jpg,Red_Plus_Dots_4.jpg,Blue_Star_Grid_2.jpg,right,829,true,high,NA,NA,NA,NA,NA,NA,NA,false
e78KLKEM,3ka7ijsnx9iy5qpdnesn7gsg38gpb3,37trt2x24u446zk9j3s5z42vdxtbjs,e78KLKEM,2020-0188,2020-05-08,01:04:20,01:29:36,NA,incomplete,105,number,0,right,Red_Plus_Chess_2.jpg,Blue_Plus_Grid_3.jpg,Green_Star_Dots_2.jpg,left,1018,false,high,NA,NA,NA,NA,NA,NA,NA,false
e78KLKEM,3ka7ijsnx9iy5qpdnesn7gsg38gpb3,37trt2x24u446zk9j3s5z42vdxtbjs,e78KLKEM,2020-0188,2020-05-08,01:04:20,01:29:36,NA,incomplete,106,number,1,left,Blue_Star_Grid_1.jpg,Purple_Plus_Stripes_1.jpg,Green_Star_Chess_2.jpg,right,806,false,high,NA,NA,NA,NA,NA,NA,NA,false
e78KLKEM,3ka7ijsnx9iy5qpdnesn7gsg38gpb3,37trt2x24u446zk9j3s5z42vdxtbjs,e78KLKEM,2020-0188,2020-05-08,01:04:20,01:29:36,NA,incomplete,107,number,1,right,Red_Circle_Chess_1.jpg,Green_Circle_Stripes_2.jpg,Purple_Triangle_Dots_1.jpg,left,1067,false,high,NA,NA,NA,NA,NA,NA,NA,false
e78KLKEM,3ka7ijsnx9iy5qpdnesn7gsg38gpb3,37trt2x24u446zk9j3s5z42vdxtbjs,e78KLKEM,2020-0188,2020-05-08,01:04:20,01:29:36,NA,incomplete,108,number,1,left,Red_Star_Dots_2.jpg,Blue_Triangle_Stripes_2.jpg,Green_Star_Chess_3.jpg,right,1086,false,high,NA,NA,NA,NA,NA,NA,NA,false
e78KLKEM,3ka7ijsnx9iy5qpdnesn7gsg38gpb3,37trt2x24u446zk9j3s5z42vdxtbjs,e78KLKEM,2020-0188,2020-05-08,01:04:20,01:29:36,NA,incomplete,109,number,1,left,Purple_Circle_Grid_1.jpg,Red_Triangle_Dots_1.jpg,Green_Circle_Chess_3.jpg,right,862,false,high,NA,NA,NA,NA,NA,NA,NA,false
e78KLKEM,3ka7ijsnx9iy5qpdnesn7gsg38gpb3,37trt2x24u446zk9j3s5z42vdxtbjs,e78KLKEM,2020-0188,2020-05-08,01:04:20,01:29:36,NA,incomplete,110,shape,1,right,Green_Triangle_Stripes_1.jpg,Purple_Plus_Chess_1.jpg,Blue_Triangle_Grid_2.jpg,left,744,false,high,NA,NA,NA,NA,NA,NA,NA,false
e78KLKEM,3ka7ijsnx9iy5qpdnesn7gsg38gpb3,37trt2x24u446zk9j3s5z42vdxtbjs,e78KLKEM,2020-0188,2020-05-08,01:04:20,01:29:36,NA,incomplete,111,shape,1,left,Blue_Star_Dots_1.jpg,Purple_Star_Stripes_3.jpg,Red_Plus_Grid_1.jpg,left,1113,true,high,NA,NA,NA,NA,NA,NA,NA,false
e78KLKEM,3ka7ijsnx9iy5qpdnesn7gsg38gpb3,37trt2x24u446zk9j3s5z42vdxtbjs,e78KLKEM,2020-0188,2020-05-08,01:04:20,01:29:36,NA,incomplete,112,shape,1,left,Red_Triangle_Dots_1.jpg,Purple_Triangle_Grid_2.jpg,Green_Plus_Stripes_1.jpg,left,817,true,high,NA,NA,NA,NA,NA,NA,NA,false
e78KLKEM,3ka7ijsnx9iy5qpdnesn7gsg38gpb3,37trt2x24u446zk9j3s5z42vdxtbjs,e78KLKEM,2020-0188,2020-05-08,01:04:20,01:29:36,NA,incomplete,113,shape,1,left,Purple_Star_Chess_3.jpg,Red_Star_Dots_2.jpg,Green_Circle_Stripes_3.jpg,left,941,true,high,NA,NA,NA,NA,NA,NA,NA,false
e78KLKEM,3ka7ijsnx9iy5qpdnesn7gsg38gpb3,37trt2x24u446zk9j3s5z42vdxtbjs,e78KLKEM,2020-0188,2020-05-08,01:04:20,01:29:36,NA,incomplete,114,shape,0,right,Red_Star_Dots_4.jpg,Purple_Plus_Chess_4.jpg,Blue_Star_Stripes_3.jpg,left,771,false,high,NA,NA,NA,NA,NA,NA,NA,false
e78KLKEM,3ka7ijsnx9iy5qpdnesn7gsg38gpb3,37trt2x24u446zk9j3s5z42vdxtbjs,e78KLKEM,2020-0188,2020-05-08,01:04:20,01:29:36,NA,incomplete,115,shape,1,left,Red_Circle_Stripes_2.jpg,Green_Circle_Chess_1.jpg,Blue_Star_Grid_2.jpg,right,810,false,high,NA,NA,NA,NA,NA,NA,NA,false
e78KLKEM,3ka7ijsnx9iy5qpdnesn7gsg38gpb3,37trt2x24u446zk9j3s5z42vdxtbjs,e78KLKEM,2020-0188,2020-05-08,01:04:20,01:29:36,NA,incomplete,116,shape,1,right,Blue_Circle_Grid_3.jpg,Green_Triangle_Chess_3.jpg,Red_Circle_Dots_1.jpg,left,695,false,high,NA,NA,NA,NA,NA,NA,NA,false
e78KLKEM,3ka7ijsnx9iy5qpdnesn7gsg38gpb3,37trt2x24u446zk9j3s5z42vdxtbjs,e78KLKEM,2020-0188,2020-05-08,01:04:20,01:29:36,NA,incomplete,117,shape,1,right,Purple_Star_Stripes_4.jpg,Red_Plus_Chess_4.jpg,Green_Star_Dots_3.jpg,left,840,false,high,NA,NA,NA,NA,NA,NA,NA,false
e78KLKEM,3ka7ijsnx9iy5qpdnesn7gsg38gpb3,37trt2x24u446zk9j3s5z42vdxtbjs,e78KLKEM,2020-0188,2020-05-08,01:04:20,01:29:36,NA,incomplete,118,shape,1,left,Red_Plus_Grid_4.jpg,Blue_Plus_Chess_1.jpg,Green_Star_Dots_4.jpg,right,930,false,high,NA,NA,NA,NA,NA,NA,NA,false
e78KLKEM,3ka7ijsnx9iy5qpdnesn7gsg38gpb3,37trt2x24u446zk9j3s5z42vdxtbjs,e78KLKEM,2020-0188,2020-05-08,01:04:20,01:29:36,NA,incomplete,119,shape,0,left,Purple_Star_Grid_1.jpg,Blue_Star_Chess_3.jpg,Green_Circle_Stripes_1.jpg,left,812,true,high,NA,NA,NA,NA,NA,NA,NA,false
e78KLKEM,3ka7ijsnx9iy5qpdnesn7gsg38gpb3,37trt2x24u446zk9j3s5z42vdxtbjs,e78KLKEM,2020-0188,2020-05-08,01:04:20,01:29:36,NA,incomplete,120,number,0,left,Purple_Plus_Dots_1.jpg,Blue_Circle_Chess_1.jpg,Green_Plus_Stripes_3.jpg,left,959,true,high,NA,NA,NA,NA,NA,NA,NA,false
e78KLKEM,3ka7ijsnx9iy5qpdnesn7gsg38gpb3,37trt2x24u446zk9j3s5z42vdxtbjs,e78KLKEM,2020-0188,2020-05-08,01:04:20,01:29:36,NA,incomplete,121,number,1,right,Red_Circle_Dots_2.jpg,Green_Circle_Grid_3.jpg,Purple_Plus_Chess_2.jpg,right,1072,true,high,NA,NA,NA,NA,NA,NA,NA,false
e78KLKEM,3ka7ijsnx9iy5qpdnesn7gsg38gpb3,37trt2x24u446zk9j3s5z42vdxtbjs,e78KLKEM,2020-0188,2020-05-08,01:04:20,01:29:36,NA,incomplete,122,number,0,left,Purple_Star_Stripes_3.jpg,Green_Circle_Grid_3.jpg,Blue_Star_Dots_1.jpg,left,928,true,high,NA,NA,NA,NA,NA,NA,NA,false
e78KLKEM,3ka7ijsnx9iy5qpdnesn7gsg38gpb3,37trt2x24u446zk9j3s5z42vdxtbjs,e78KLKEM,2020-0188,2020-05-08,01:04:20,01:29:36,NA,incomplete,123,number,1,right,Purple_Triangle_Grid_3.jpg,Red_Triangle_Stripes_2.jpg,Blue_Circle_Dots_3.jpg,left,801,false,high,NA,NA,NA,NA,NA,NA,NA,false
e78KLKEM,3ka7ijsnx9iy5qpdnesn7gsg38gpb3,37trt2x24u446zk9j3s5z42vdxtbjs,e78KLKEM,2020-0188,2020-05-08,01:04:20,01:29:36,NA,incomplete,124,number,1,right,Red_Circle_Dots_3.jpg,Green_Circle_Stripes_1.jpg,Purple_Plus_Grid_3.jpg,left,1013,false,high,NA,NA,NA,NA,NA,NA,NA,false
e78KLKEM,3ka7ijsnx9iy5qpdnesn7gsg38gpb3,37trt2x24u446zk9j3s5z42vdxtbjs,e78KLKEM,2020-0188,2020-05-08,01:04:20,01:29:36,NA,incomplete,125,number,1,left,Purple_Triangle_Grid_3.jpg,Green_Plus_Dots_3.jpg,Red_Triangle_Stripes_2.jpg,right,794,false,high,NA,NA,NA,NA,NA,NA,NA,false
e78KLKEM,3ka7ijsnx9iy5qpdnesn7gsg38gpb3,37trt2x24u446zk9j3s5z42vdxtbjs,e78KLKEM,2020-0188,2020-05-08,01:04:20,01:29:36,NA,incomplete,126,number,1,right,Green_Star_Chess_1.jpg,Purple_Star_Grid_2.jpg,Red_Triangle_Stripes_1.jpg,left,847,false,high,NA,NA,NA,NA,NA,NA,NA,false
e78KLKEM,3ka7ijsnx9iy5qpdnesn7gsg38gpb3,37trt2x24u446zk9j3s5z42vdxtbjs,e78KLKEM,2020-0188,2020-05-08,01:04:20,01:29:36,NA,incomplete,127,number,1,left,Green_Circle_Chess_4.jpg,Purple_Triangle_Stripes_4.jpg,Red_Circle_Grid_2.jpg,left,794,true,high,NA,NA,NA,NA,NA,NA,NA,false
e78KLKEM,3ka7ijsnx9iy5qpdnesn7gsg38gpb3,37trt2x24u446zk9j3s5z42vdxtbjs,e78KLKEM,2020-0188,2020-05-08,01:04:20,01:29:36,NA,incomplete,128,number,0,left,Blue_Star_Chess_2.jpg,Purple_Circle_Stripes_2.jpg,Green_Star_Dots_3.jpg,right,767,false,high,NA,NA,NA,NA,NA,NA,NA,false
e78KLKEM,3ka7ijsnx9iy5qpdnesn7gsg38gpb3,37trt2x24u446zk9j3s5z42vdxtbjs,e78KLKEM,2020-0188,2020-05-08,01:04:20,01:29:36,NA,incomplete,129,number,1,right,Red_Triangle_Grid_2.jpg,Green_Triangle_Stripes_3.jpg,Blue_Circle_Dots_2.jpg,left,646,false,high,NA,NA,NA,NA,NA,NA,NA,false
e78KLKEM,3ka7ijsnx9iy5qpdnesn7gsg38gpb3,37trt2x24u446zk9j3s5z42vdxtbjs,e78KLKEM,2020-0188,2020-05-08,01:04:20,01:29:36,NA,incomplete,130,number,1,right,Purple_Triangle_Dots_4.jpg,Green_Triangle_Grid_1.jpg,Blue_Plus_Chess_4.jpg,right,975,true,high,NA,NA,NA,NA,NA,NA,NA,false
e78KLKEM,3ka7ijsnx9iy5qpdnesn7gsg38gpb3,37trt2x24u446zk9j3s5z42vdxtbjs,e78KLKEM,2020-0188,2020-05-08,01:04:20,01:29:36,NA,incomplete,131,number,1,left,Red_Star_Dots_4.jpg,Green_Triangle_Chess_4.jpg,Purple_Star_Stripes_2.jpg,left,575,true,high,NA,NA,NA,NA,NA,NA,NA,false
e78KLKEM,3ka7ijsnx9iy5qpdnesn7gsg38gpb3,37trt2x24u446zk9j3s5z42vdxtbjs,e78KLKEM,2020-0188,2020-05-08,01:04:20,01:29:36,NA,incomplete,132,number,1,right,Green_Plus_Grid_1.jpg,Purple_Plus_Chess_3.jpg,Red_Circle_Stripes_1.jpg,right,860,true,high,NA,NA,NA,NA,NA,NA,NA,false
e78KLKEM,3ka7ijsnx9iy5qpdnesn7gsg38gpb3,37trt2x24u446zk9j3s5z42vdxtbjs,e78KLKEM,2020-0188,2020-05-08,01:04:20,01:29:36,NA,incomplete,133,number,1,right,Purple_Star_Stripes_4.jpg,Green_Star_Chess_2.jpg,Red_Plus_Grid_4.jpg,right,719,true,high,NA,NA,NA,NA,NA,NA,NA,false
e78KLKEM,3ka7ijsnx9iy5qpdnesn7gsg38gpb3,37trt2x24u446zk9j3s5z42vdxtbjs,e78KLKEM,2020-0188,2020-05-08,01:04:20,01:29:36,NA,incomplete,134,number,1,left,Blue_Circle_Grid_2.jpg,Red_Plus_Stripes_2.jpg,Green_Circle_Chess_1.jpg,left,735,true,high,NA,NA,NA,NA,NA,NA,NA,false
e78KLKEM,3ka7ijsnx9iy5qpdnesn7gsg38gpb3,37trt2x24u446zk9j3s5z42vdxtbjs,e78KLKEM,2020-0188,2020-05-08,01:04:20,01:29:36,NA,incomplete,135,number,1,right,Purple_Circle_Stripes_2.jpg,Green_Circle_Dots_4.jpg,Blue_Star_Chess_2.jpg,right,1054,true,high,NA,NA,NA,NA,NA,NA,NA,false
e78KLKEM,3ka7ijsnx9iy5qpdnesn7gsg38gpb3,37trt2x24u446zk9j3s5z42vdxtbjs,e78KLKEM,2020-0188,2020-05-08,01:04:20,01:29:36,NA,incomplete,136,number,1,left,Green_Star_Chess_1.jpg,Purple_Circle_Grid_1.jpg,Blue_Star_Stripes_4.jpg,left,737,true,high,NA,NA,NA,NA,NA,NA,NA,false
e78KLKEM,3ka7ijsnx9iy5qpdnesn7gsg38gpb3,37trt2x24u446zk9j3s5z42vdxtbjs,e78KLKEM,2020-0188,2020-05-08,01:04:20,01:29:36,NA,incomplete,137,number,1,right,Purple_Circle_Chess_1.jpg,Blue_Circle_Grid_2.jpg,Green_Triangle_Stripes_1.jpg,right,785,true,high,NA,NA,NA,NA,NA,NA,NA,false
e78KLKEM,3ka7ijsnx9iy5qpdnesn7gsg38gpb3,37trt2x24u446zk9j3s5z42vdxtbjs,e78KLKEM,2020-0188,2020-05-08,01:04:20,01:29:36,NA,incomplete,138,number,1,right,Purple_Star_Grid_1.jpg,Red_Star_Chess_2.jpg,Blue_Plus_Stripes_1.jpg,right,684,true,high,NA,NA,NA,NA,NA,NA,NA,false
e78KLKEM,3ka7ijsnx9iy5qpdnesn7gsg38gpb3,37trt2x24u446zk9j3s5z42vdxtbjs,e78KLKEM,2020-0188,2020-05-08,01:04:20,01:29:36,NA,incomplete,139,number,1,right,Purple_Plus_Stripes_2.jpg,Red_Plus_Chess_4.jpg,Blue_Circle_Dots_2.jpg,right,751,true,high,NA,NA,NA,NA,NA,NA,NA,false
e78KLKEM,3ka7ijsnx9iy5qpdnesn7gsg38gpb3,37trt2x24u446zk9j3s5z42vdxtbjs,e78KLKEM,2020-0188,2020-05-08,01:04:20,01:29:36,NA,incomplete,140,shape,1,left,Green_Plus_Stripes_2.jpg,Purple_Plus_Grid_3.jpg,Red_Triangle_Dots_2.jpg,right,790,false,high,NA,NA,NA,NA,NA,NA,NA,false
e78KLKEM,3ka7ijsnx9iy5qpdnesn7gsg38gpb3,37trt2x24u446zk9j3s5z42vdxtbjs,e78KLKEM,2020-0188,2020-05-08,01:04:20,01:29:36,NA,incomplete,141,shape,1,right,Green_Star_Chess_1.jpg,Blue_Plus_Grid_1.jpg,Red_Star_Dots_4.jpg,right,818,true,high,NA,NA,NA,NA,NA,NA,NA,false
e78KLKEM,3ka7ijsnx9iy5qpdnesn7gsg38gpb3,37trt2x24u446zk9j3s5z42vdxtbjs,e78KLKEM,2020-0188,2020-05-08,01:04:20,01:29:36,NA,incomplete,142,shape,1,right,Blue_Plus_Dots_3.jpg,Purple_Circle_Stripes_3.jpg,Red_Plus_Grid_2.jpg,right,862,true,high,NA,NA,NA,NA,NA,NA,NA,false
e78KLKEM,3ka7ijsnx9iy5qpdnesn7gsg38gpb3,37trt2x24u446zk9j3s5z42vdxtbjs,e78KLKEM,2020-0188,2020-05-08,01:04:20,01:29:36,NA,incomplete,143,shape,0,left,Purple_Triangle_Chess_3.jpg,Red_Triangle_Dots_1.jpg,Blue_Plus_Grid_3.jpg,left,1067,true,high,NA,NA,NA,NA,NA,NA,NA,false
e78KLKEM,3ka7ijsnx9iy5qpdnesn7gsg38gpb3,37trt2x24u446zk9j3s5z42vdxtbjs,e78KLKEM,2020-0188,2020-05-08,01:04:20,01:29:36,NA,incomplete,144,shape,1,left,Red_Triangle_Grid_2.jpg,Purple_Triangle_Stripes_1.jpg,Green_Circle_Chess_2.jpg,right,827,false,high,NA,NA,NA,NA,NA,NA,NA,false
e78KLKEM,3ka7ijsnx9iy5qpdnesn7gsg38gpb3,37trt2x24u446zk9j3s5z42vdxtbjs,e78KLKEM,2020-0188,2020-05-08,01:04:20,01:29:36,NA,incomplete,145,shape,1,right,Blue_Triangle_Chess_4.jpg,Red_Star_Stripes_4.jpg,Purple_Triangle_Grid_3.jpg,right,712,true,high,NA,NA,NA,NA,NA,NA,NA,false
e78KLKEM,3ka7ijsnx9iy5qpdnesn7gsg38gpb3,37trt2x24u446zk9j3s5z42vdxtbjs,e78KLKEM,2020-0188,2020-05-08,01:04:20,01:29:36,NA,incomplete,146,shape,1,right,Red_Plus_Dots_3.jpg,Green_Star_Grid_3.jpg,Blue_Plus_Stripes_2.jpg,right,736,true,high,NA,NA,NA,NA,NA,NA,NA,false
e78KLKEM,3ka7ijsnx9iy5qpdnesn7gsg38gpb3,37trt2x24u446zk9j3s5z42vdxtbjs,e78KLKEM,2020-0188,2020-05-08,01:04:20,01:29:36,NA,incomplete,147,shape,1,right,Purple_Star_Dots_4.jpg,Blue_Circle_Stripes_4.jpg,Green_Star_Chess_3.jpg,right,663,true,high,NA,NA,NA,NA,NA,NA,NA,false
e78KLKEM,3ka7ijsnx9iy5qpdnesn7gsg38gpb3,37trt2x24u446zk9j3s5z42vdxtbjs,e78KLKEM,2020-0188,2020-05-08,01:04:20,01:29:36,NA,incomplete,148,shape,1,right,Purple_Circle_Grid_3.jpg,Green_Triangle_Chess_3.jpg,Red_Circle_Dots_4.jpg,right,793,true,high,NA,NA,NA,NA,NA,NA,NA,false
e78KLKEM,3ka7ijsnx9iy5qpdnesn7gsg38gpb3,37trt2x24u446zk9j3s5z42vdxtbjs,e78KLKEM,2020-0188,2020-05-08,01:04:20,01:29:36,NA,incomplete,149,shape,1,right,Green_Circle_Chess_1.jpg,Blue_Plus_Stripes_1.jpg,Purple_Circle_Dots_4.jpg,right,751,true,high,NA,NA,NA,NA,NA,NA,NA,false
e78KLKEM,3ka7ijsnx9iy5qpdnesn7gsg38gpb3,37trt2x24u446zk9j3s5z42vdxtbjs,e78KLKEM,2020-0188,2020-05-08,01:04:20,01:29:36,NA,incomplete,150,shape,0,left,Green_Triangle_Stripes_2.jpg,Purple_Triangle_Grid_4.jpg,Blue_Plus_Dots_2.jpg,left,622,true,high,NA,NA,NA,NA,NA,NA,NA,false
e78KLKEM,3ka7ijsnx9iy5qpdnesn7gsg38gpb3,37trt2x24u446zk9j3s5z42vdxtbjs,e78KLKEM,2020-0188,2020-05-08,01:04:20,01:29:36,NA,incomplete,151,shape,1,right,Blue_Triangle_Dots_2.jpg,Green_Star_Grid_2.jpg,Purple_Triangle_Stripes_4.jpg,left,704,false,high,NA,NA,NA,NA,NA,NA,NA,false
e78KLKEM,3ka7ijsnx9iy5qpdnesn7gsg38gpb3,37trt2x24u446zk9j3s5z42vdxtbjs,e78KLKEM,2020-0188,2020-05-08,01:04:20,01:29:36,NA,incomplete,152,shape,1,right,Purple_Plus_Dots_2.jpg,Red_Circle_Grid_2.jpg,Blue_Plus_Stripes_4.jpg,right,906,true,high,NA,NA,NA,NA,NA,NA,NA,false
e78KLKEM,3ka7ijsnx9iy5qpdnesn7gsg38gpb3,37trt2x24u446zk9j3s5z42vdxtbjs,e78KLKEM,2020-0188,2020-05-08,01:04:20,01:29:36,NA,incomplete,153,shape,1,right,Purple_Triangle_Dots_2.jpg,Green_Star_Stripes_2.jpg,Blue_Triangle_Grid_3.jpg,right,913,true,high,NA,NA,NA,NA,NA,NA,NA,false
e78KLKEM,3ka7ijsnx9iy5qpdnesn7gsg38gpb3,37trt2x24u446zk9j3s5z42vdxtbjs,e78KLKEM,2020-0188,2020-05-08,01:04:20,01:29:36,NA,incomplete,154,shape,0,left,Green_Triangle_Stripes_4.jpg,Red_Triangle_Dots_2.jpg,Blue_Plus_Grid_4.jpg,left,801,true,high,NA,NA,NA,NA,NA,NA,NA,false
e78KLKEM,3ka7ijsnx9iy5qpdnesn7gsg38gpb3,37trt2x24u446zk9j3s5z42vdxtbjs,e78KLKEM,2020-0188,2020-05-08,01:04:20,01:29:36,NA,incomplete,155,shape,1,left,Red_Plus_Dots_3.jpg,Purple_Plus_Chess_1.jpg,Green_Circle_Grid_3.jpg,left,887,true,high,NA,NA,NA,NA,NA,NA,NA,false
e78KLKEM,3ka7ijsnx9iy5qpdnesn7gsg38gpb3,37trt2x24u446zk9j3s5z42vdxtbjs,e78KLKEM,2020-0188,2020-05-08,01:04:20,01:29:36,NA,incomplete,156,shape,1,right,Blue_Triangle_Chess_4.jpg,Green_Plus_Dots_4.jpg,Purple_Triangle_Stripes_2.jpg,left,858,false,high,NA,NA,NA,NA,NA,NA,NA,false
e78KLKEM,3ka7ijsnx9iy5qpdnesn7gsg38gpb3,37trt2x24u446zk9j3s5z42vdxtbjs,e78KLKEM,2020-0188,2020-05-08,01:04:20,01:29:36,NA,incomplete,157,shape,0,right,Red_Circle_Stripes_2.jpg,Purple_Plus_Grid_2.jpg,Blue_Circle_Dots_1.jpg,left,891,false,high,NA,NA,NA,NA,NA,NA,NA,false
e78KLKEM,3ka7ijsnx9iy5qpdnesn7gsg38gpb3,37trt2x24u446zk9j3s5z42vdxtbjs,e78KLKEM,2020-0188,2020-05-08,01:04:20,01:29:36,NA,incomplete,158,shape,1,left,Purple_Plus_Stripes_1.jpg,Blue_Plus_Grid_4.jpg,Green_Triangle_Dots_1.jpg,right,709,false,high,NA,NA,NA,NA,NA,NA,NA,false
e78KLKEM,3ka7ijsnx9iy5qpdnesn7gsg38gpb3,37trt2x24u446zk9j3s5z42vdxtbjs,e78KLKEM,2020-0188,2020-05-08,01:04:20,01:29:36,NA,incomplete,159,shape,1,right,Red_Star_Dots_1.jpg,Green_Plus_Stripes_1.jpg,Purple_Star_Chess_3.jpg,right,901,true,high,NA,NA,NA,NA,NA,NA,NA,false
e78KLKEM,3ka7ijsnx9iy5qpdnesn7gsg38gpb3,37trt2x24u446zk9j3s5z42vdxtbjs,e78KLKEM,2020-0188,2020-05-08,01:04:20,01:29:36,NA,incomplete,160,number,1,right,Purple_Star_Stripes_3.jpg,Green_Star_Chess_2.jpg,Red_Circle_Grid_3.jpg,left,957,false,high,NA,NA,NA,NA,NA,NA,NA,false
e78KLKEM,3ka7ijsnx9iy5qpdnesn7gsg38gpb3,37trt2x24u446zk9j3s5z42vdxtbjs,e78KLKEM,2020-0188,2020-05-08,01:04:20,01:29:36,NA,incomplete,161,number,0,right,Blue_Triangle_Stripes_3.jpg,Purple_Triangle_Dots_1.jpg,Green_Star_Chess_3.jpg,right,939,true,high,NA,NA,NA,NA,NA,NA,NA,false
e78KLKEM,3ka7ijsnx9iy5qpdnesn7gsg38gpb3,37trt2x24u446zk9j3s5z42vdxtbjs,e78KLKEM,2020-0188,2020-05-08,01:04:20,01:29:36,NA,incomplete,162,number,1,right,Green_Circle_Chess_1.jpg,Blue_Circle_Dots_3.jpg,Purple_Triangle_Stripes_1.jpg,right,915,true,high,NA,NA,NA,NA,NA,NA,NA,false
e78KLKEM,3ka7ijsnx9iy5qpdnesn7gsg38gpb3,37trt2x24u446zk9j3s5z42vdxtbjs,e78KLKEM,2020-0188,2020-05-08,01:04:20,01:29:36,NA,incomplete,163,number,1,right,Green_Plus_Stripes_1.jpg,Blue_Plus_Chess_2.jpg,Purple_Circle_Dots_1.jpg,right,717,true,high,NA,NA,NA,NA,NA,NA,NA,false
e78KLKEM,3ka7ijsnx9iy5qpdnesn7gsg38gpb3,37trt2x24u446zk9j3s5z42vdxtbjs,e78KLKEM,2020-0188,2020-05-08,01:04:20,01:29:36,NA,incomplete,164,number,1,right,Red_Triangle_Chess_3.jpg,Green_Triangle_Stripes_1.jpg,Purple_Star_Grid_3.jpg,right,734,true,high,NA,NA,NA,NA,NA,NA,NA,false
e78KLKEM,3ka7ijsnx9iy5qpdnesn7gsg38gpb3,37trt2x24u446zk9j3s5z42vdxtbjs,e78KLKEM,2020-0188,2020-05-08,01:04:20,01:29:36,NA,incomplete,165,number,1,left,Purple_Triangle_Stripes_2.jpg,Blue_Plus_Chess_2.jpg,Red_Triangle_Grid_3.jpg,left,669,true,high,NA,NA,NA,NA,NA,NA,NA,false
e78KLKEM,3ka7ijsnx9iy5qpdnesn7gsg38gpb3,37trt2x24u446zk9j3s5z42vdxtbjs,e78KLKEM,2020-0188,2020-05-08,01:04:20,01:29:36,NA,incomplete,166,number,0,right,Red_Circle_Stripes_3.jpg,Green_Circle_Chess_1.jpg,Purple_Plus_Dots_3.jpg,right,934,true,high,NA,NA,NA,NA,NA,NA,NA,false
e78KLKEM,3ka7ijsnx9iy5qpdnesn7gsg38gpb3,37trt2x24u446zk9j3s5z42vdxtbjs,e78KLKEM,2020-0188,2020-05-08,01:04:20,01:29:36,NA,incomplete,167,number,1,left,Purple_Circle_Dots_4.jpg,Blue_Star_Stripes_4.jpg,Green_Circle_Grid_3.jpg,right,893,false,high,NA,NA,NA,NA,NA,NA,NA,false
e78KLKEM,3ka7ijsnx9iy5qpdnesn7gsg38gpb3,37trt2x24u446zk9j3s5z42vdxtbjs,e78KLKEM,2020-0188,2020-05-08,01:04:20,01:29:36,NA,incomplete,168,number,1,left,Blue_Star_Chess_4.jpg,Red_Plus_Grid_4.jpg,Purple_Star_Stripes_2.jpg,right,999,false,high,NA,NA,NA,NA,NA,NA,NA,false
e78KLKEM,3ka7ijsnx9iy5qpdnesn7gsg38gpb3,37trt2x24u446zk9j3s5z42vdxtbjs,e78KLKEM,2020-0188,2020-05-08,01:04:20,01:29:36,NA,incomplete,169,number,1,left,Purple_Star_Chess_4.jpg,Blue_Triangle_Stripes_4.jpg,Red_Star_Grid_1.jpg,right,1028,false,high,NA,NA,NA,NA,NA,NA,NA,false
e78KLKEM,3ka7ijsnx9iy5qpdnesn7gsg38gpb3,37trt2x24u446zk9j3s5z42vdxtbjs,e78KLKEM,2020-0188,2020-05-08,01:04:20,01:29:36,NA,incomplete,170,number,1,left,Green_Circle_Chess_1.jpg,Blue_Star_Stripes_1.jpg,Red_Circle_Dots_4.jpg,right,825,false,high,NA,NA,NA,NA,NA,NA,NA,false
e78KLKEM,3ka7ijsnx9iy5qpdnesn7gsg38gpb3,37trt2x24u446zk9j3s5z42vdxtbjs,e78KLKEM,2020-0188,2020-05-08,01:04:20,01:29:36,NA,incomplete,171,number,0,left,Blue_Triangle_Chess_2.jpg,Purple_Plus_Dots_2.jpg,Green_Triangle_Stripes_4.jpg,left,988,true,high,NA,NA,NA,NA,NA,NA,NA,false
e78KLKEM,3ka7ijsnx9iy5qpdnesn7gsg38gpb3,37trt2x24u446zk9j3s5z42vdxtbjs,e78KLKEM,2020-0188,2020-05-08,01:04:20,01:29:36,NA,incomplete,172,number,1,left,Purple_Plus_Grid_1.jpg,Blue_Triangle_Stripes_1.jpg,Green_Plus_Chess_4.jpg,right,1160,false,high,NA,NA,NA,NA,NA,NA,NA,false
e78KLKEM,3ka7ijsnx9iy5qpdnesn7gsg38gpb3,37trt2x24u446zk9j3s5z42vdxtbjs,e78KLKEM,2020-0188,2020-05-08,01:04:20,01:29:36,NA,incomplete,173,number,1,left,Purple_Triangle_Dots_4.jpg,Red_Star_Grid_4.jpg,Blue_Triangle_Chess_2.jpg,left,848,true,high,NA,NA,NA,NA,NA,NA,NA,false
e78KLKEM,3ka7ijsnx9iy5qpdnesn7gsg38gpb3,37trt2x24u446zk9j3s5z42vdxtbjs,e78KLKEM,2020-0188,2020-05-08,01:04:20,01:29:36,NA,incomplete,174,number,0,left,Red_Triangle_Dots_4.jpg,Purple_Star_Chess_4.jpg,Green_Triangle_Grid_2.jpg,left,747,true,high,NA,NA,NA,NA,NA,NA,NA,false
e78KLKEM,3ka7ijsnx9iy5qpdnesn7gsg38gpb3,37trt2x24u446zk9j3s5z42vdxtbjs,e78KLKEM,2020-0188,2020-05-08,01:04:20,01:29:36,NA,incomplete,175,number,1,left,Purple_Triangle_Chess_3.jpg,Blue_Plus_Stripes_3.jpg,Red_Triangle_Grid_1.jpg,left,777,true,high,NA,NA,NA,NA,NA,NA,NA,false
e78KLKEM,3ka7ijsnx9iy5qpdnesn7gsg38gpb3,37trt2x24u446zk9j3s5z42vdxtbjs,e78KLKEM,2020-0188,2020-05-08,01:04:20,01:29:36,NA,incomplete,176,number,0,left,Purple_Triangle_Stripes_4.jpg,Red_Star_Dots_4.jpg,Blue_Triangle_Chess_2.jpg,left,712,true,high,NA,NA,NA,NA,NA,NA,NA,false
e78KLKEM,3ka7ijsnx9iy5qpdnesn7gsg38gpb3,37trt2x24u446zk9j3s5z42vdxtbjs,e78KLKEM,2020-0188,2020-05-08,01:04:20,01:29:36,NA,incomplete,177,number,1,left,Blue_Star_Chess_1.jpg,Purple_Plus_Dots_1.jpg,Green_Star_Stripes_4.jpg,left,945,true,high,NA,NA,NA,NA,NA,NA,NA,false
e78KLKEM,3ka7ijsnx9iy5qpdnesn7gsg38gpb3,37trt2x24u446zk9j3s5z42vdxtbjs,e78KLKEM,2020-0188,2020-05-08,01:04:20,01:29:36,NA,incomplete,178,number,0,right,Red_Star_Dots_2.jpg,Blue_Star_Chess_4.jpg,Purple_Triangle_Grid_2.jpg,right,737,true,high,NA,NA,NA,NA,NA,NA,NA,false
e78KLKEM,3ka7ijsnx9iy5qpdnesn7gsg38gpb3,37trt2x24u446zk9j3s5z42vdxtbjs,e78KLKEM,2020-0188,2020-05-08,01:04:20,01:29:36,NA,incomplete,179,number,1,right,Purple_Plus_Grid_1.jpg,Red_Plus_Dots_4.jpg,Green_Star_Stripes_1.jpg,left,856,false,high,NA,NA,NA,NA,NA,NA,NA,false
e78KLKEM,3ka7ijsnx9iy5qpdnesn7gsg38gpb3,37trt2x24u446zk9j3s5z42vdxtbjs,e78KLKEM,2020-0188,2020-05-08,01:04:20,01:29:36,NA,incomplete,180,shape,1,right,Red_Circle_Grid_1.jpg,Purple_Star_Chess_1.jpg,Green_Circle_Dots_3.jpg,right,979,true,high,NA,NA,NA,NA,NA,NA,NA,false
e78KLKEM,3ka7ijsnx9iy5qpdnesn7gsg38gpb3,37trt2x24u446zk9j3s5z42vdxtbjs,e78KLKEM,2020-0188,2020-05-08,01:04:20,01:29:36,NA,incomplete,181,shape,0,right,Red_Star_Chess_1.jpg,Purple_Plus_Grid_1.jpg,Green_Star_Dots_4.jpg,right,761,true,high,NA,NA,NA,NA,NA,NA,NA,false
e78KLKEM,3ka7ijsnx9iy5qpdnesn7gsg38gpb3,37trt2x24u446zk9j3s5z42vdxtbjs,e78KLKEM,2020-0188,2020-05-08,01:04:20,01:29:36,NA,incomplete,182,shape,1,right,Blue_Circle_Grid_2.jpg,Purple_Triangle_Stripes_2.jpg,Green_Circle_Dots_4.jpg,left,998,false,high,NA,NA,NA,NA,NA,NA,NA,false
e78KLKEM,3ka7ijsnx9iy5qpdnesn7gsg38gpb3,37trt2x24u446zk9j3s5z42vdxtbjs,e78KLKEM,2020-0188,2020-05-08,01:04:20,01:29:36,NA,incomplete,183,shape,0,right,Blue_Circle_Chess_3.jpg,Green_Plus_Stripes_3.jpg,Purple_Circle_Dots_4.jpg,right,835,true,high,NA,NA,NA,NA,NA,NA,NA,false
e78KLKEM,3ka7ijsnx9iy5qpdnesn7gsg38gpb3,37trt2x24u446zk9j3s5z42vdxtbjs,e78KLKEM,2020-0188,2020-05-08,01:04:20,01:29:36,NA,incomplete,184,shape,1,right,Blue_Triangle_Dots_3.jpg,Green_Plus_Stripes_3.jpg,Red_Triangle_Grid_4.jpg,left,926,false,high,NA,NA,NA,NA,NA,NA,NA,false
e78KLKEM,3ka7ijsnx9iy5qpdnesn7gsg38gpb3,37trt2x24u446zk9j3s5z42vdxtbjs,e78KLKEM,2020-0188,2020-05-08,01:04:20,01:29:36,NA,incomplete,185,shape,1,right,Red_Star_Stripes_1.jpg,Green_Triangle_Chess_1.jpg,Purple_Star_Dots_4.jpg,right,983,true,high,NA,NA,NA,NA,NA,NA,NA,false
e78KLKEM,3ka7ijsnx9iy5qpdnesn7gsg38gpb3,37trt2x24u446zk9j3s5z42vdxtbjs,e78KLKEM,2020-0188,2020-05-08,01:04:20,01:29:36,NA,incomplete,186,shape,1,left,Red_Circle_Dots_3.jpg,Green_Circle_Grid_1.jpg,Blue_Triangle_Stripes_3.jpg,left,949,true,high,NA,NA,NA,NA,NA,NA,NA,false
e78KLKEM,3ka7ijsnx9iy5qpdnesn7gsg38gpb3,37trt2x24u446zk9j3s5z42vdxtbjs,e78KLKEM,2020-0188,2020-05-08,01:04:20,01:29:36,NA,incomplete,187,shape,1,right,Blue_Triangle_Stripes_2.jpg,Purple_Circle_Chess_2.jpg,Green_Triangle_Grid_1.jpg,right,733,true,high,NA,NA,NA,NA,NA,NA,NA,false
e78KLKEM,3ka7ijsnx9iy5qpdnesn7gsg38gpb3,37trt2x24u446zk9j3s5z42vdxtbjs,e78KLKEM,2020-0188,2020-05-08,01:04:20,01:29:36,NA,incomplete,188,shape,0,right,Green_Star_Stripes_4.jpg,Red_Triangle_Dots_4.jpg,Blue_Star_Chess_1.jpg,left,636,false,high,NA,NA,NA,NA,NA,NA,NA,false
e78KLKEM,3ka7ijsnx9iy5qpdnesn7gsg38gpb3,37trt2x24u446zk9j3s5z42vdxtbjs,e78KLKEM,2020-0188,2020-05-08,01:04:20,01:29:36,NA,incomplete,189,shape,1,right,Green_Circle_Dots_3.jpg,Red_Star_Grid_3.jpg,Blue_Circle_Chess_2.jpg,right,664,true,high,NA,NA,NA,NA,NA,NA,NA,false
e78KLKEM,3ka7ijsnx9iy5qpdnesn7gsg38gpb3,37trt2x24u446zk9j3s5z42vdxtbjs,e78KLKEM,2020-0188,2020-05-08,01:04:20,01:29:36,NA,incomplete,190,shape,1,right,Purple_Triangle_Stripes_4.jpg,Blue_Plus_Grid_4.jpg,Red_Triangle_Dots_3.jpg,left,905,false,high,NA,NA,NA,NA,NA,NA,NA,false
e78KLKEM,3ka7ijsnx9iy5qpdnesn7gsg38gpb3,37trt2x24u446zk9j3s5z42vdxtbjs,e78KLKEM,2020-0188,2020-05-08,01:04:20,01:29:36,NA,incomplete,191,shape,1,right,Green_Star_Dots_1.jpg,Blue_Plus_Stripes_1.jpg,Purple_Star_Grid_4.jpg,right,962,true,high,NA,NA,NA,NA,NA,NA,NA,false
e78KLKEM,3ka7ijsnx9iy5qpdnesn7gsg38gpb3,37trt2x24u446zk9j3s5z42vdxtbjs,e78KLKEM,2020-0188,2020-05-08,01:04:20,01:29:36,NA,incomplete,192,shape,1,left,Blue_Circle_Dots_1.jpg,Green_Circle_Chess_4.jpg,Red_Triangle_Grid_1.jpg,left,753,true,high,NA,NA,NA,NA,NA,NA,NA,false
e78KLKEM,3ka7ijsnx9iy5qpdnesn7gsg38gpb3,37trt2x24u446zk9j3s5z42vdxtbjs,e78KLKEM,2020-0188,2020-05-08,01:04:20,01:29:36,NA,incomplete,193,shape,1,left,Green_Circle_Chess_3.jpg,Purple_Circle_Dots_4.jpg,Blue_Star_Stripes_3.jpg,left,728,true,high,NA,NA,NA,NA,NA,NA,NA,false
e78KLKEM,3ka7ijsnx9iy5qpdnesn7gsg38gpb3,37trt2x24u446zk9j3s5z42vdxtbjs,e78KLKEM,2020-0188,2020-05-08,01:04:20,01:29:36,NA,incomplete,194,shape,0,right,Green_Circle_Dots_3.jpg,Blue_Plus_Grid_3.jpg,Purple_Circle_Stripes_2.jpg,right,631,true,high,NA,NA,NA,NA,NA,NA,NA,false
e78KLKEM,3ka7ijsnx9iy5qpdnesn7gsg38gpb3,37trt2x24u446zk9j3s5z42vdxtbjs,e78KLKEM,2020-0188,2020-05-08,01:04:20,01:29:36,NA,incomplete,195,shape,1,right,Green_Star_Chess_4.jpg,Blue_Circle_Stripes_4.jpg,Purple_Star_Dots_3.jpg,right,867,true,high,NA,NA,NA,NA,NA,NA,NA,false
e78KLKEM,3ka7ijsnx9iy5qpdnesn7gsg38gpb3,37trt2x24u446zk9j3s5z42vdxtbjs,e78KLKEM,2020-0188,2020-05-08,01:04:20,01:29:36,NA,incomplete,196,shape,1,right,Purple_Plus_Chess_4.jpg,Red_Star_Stripes_4.jpg,Green_Plus_Grid_1.jpg,right,910,true,high,NA,NA,NA,NA,NA,NA,NA,false
e78KLKEM,3ka7ijsnx9iy5qpdnesn7gsg38gpb3,37trt2x24u446zk9j3s5z42vdxtbjs,e78KLKEM,2020-0188,2020-05-08,01:04:20,01:29:36,NA,incomplete,197,shape,0,right,Purple_Star_Dots_1.jpg,Red_Circle_Chess_1.jpg,Blue_Star_Grid_4.jpg,right,790,true,high,NA,NA,NA,NA,NA,NA,NA,false
e78KLKEM,3ka7ijsnx9iy5qpdnesn7gsg38gpb3,37trt2x24u446zk9j3s5z42vdxtbjs,e78KLKEM,2020-0188,2020-05-08,01:04:20,01:29:36,NA,incomplete,198,shape,1,right,Green_Plus_Chess_2.jpg,Red_Circle_Dots_2.jpg,Blue_Plus_Grid_1.jpg,right,796,true,high,NA,NA,NA,NA,NA,NA,NA,false
e78KLKEM,3ka7ijsnx9iy5qpdnesn7gsg38gpb3,37trt2x24u446zk9j3s5z42vdxtbjs,e78KLKEM,2020-0188,2020-05-08,01:04:20,01:29:36,NA,incomplete,199,shape,1,left,Purple_Plus_Grid_4.jpg,Red_Plus_Stripes_3.jpg,Green_Star_Chess_4.jpg,left,696,true,high,NA,NA,NA,NA,NA,NA,NA,false
e78KLKEM,3ka7ijsnx9iy5qpdnesn7gsg38gpb3,37trt2x24u446zk9j3s5z42vdxtbjs,e78KLKEM,2020-0188,2020-05-08,01:04:20,01:29:36,NA,incomplete,200,number,1,right,Purple_Star_Chess_2.jpg,Blue_Star_Dots_3.jpg,Red_Circle_Grid_2.jpg,left,643,false,high,NA,NA,NA,NA,NA,NA,NA,false
e78KLKEM,3ka7ijsnx9iy5qpdnesn7gsg38gpb3,37trt2x24u446zk9j3s5z42vdxtbjs,e78KLKEM,2020-0188,2020-05-08,01:04:20,01:29:36,NA,incomplete,201,number,0,right,Purple_Triangle_Chess_3.jpg,Red_Triangle_Dots_4.jpg,Blue_Star_Stripes_3.jpg,right,741,true,high,NA,NA,NA,NA,NA,NA,NA,false
e78KLKEM,3ka7ijsnx9iy5qpdnesn7gsg38gpb3,37trt2x24u446zk9j3s5z42vdxtbjs,e78KLKEM,2020-0188,2020-05-08,01:04:20,01:29:36,NA,incomplete,202,number,1,left,Red_Plus_Chess_3.jpg,Purple_Triangle_Dots_3.jpg,Green_Plus_Stripes_2.jpg,right,891,false,high,NA,NA,NA,NA,NA,NA,NA,false
e78KLKEM,3ka7ijsnx9iy5qpdnesn7gsg38gpb3,37trt2x24u446zk9j3s5z42vdxtbjs,e78KLKEM,2020-0188,2020-05-08,01:04:20,01:29:36,NA,incomplete,203,number,0,left,Red_Circle_Grid_1.jpg,Purple_Plus_Chess_1.jpg,Green_Circle_Dots_4.jpg,right,782,false,high,NA,NA,NA,NA,NA,NA,NA,false
e78KLKEM,3ka7ijsnx9iy5qpdnesn7gsg38gpb3,37trt2x24u446zk9j3s5z42vdxtbjs,e78KLKEM,2020-0188,2020-05-08,01:04:20,01:29:36,NA,incomplete,204,number,1,left,Blue_Circle_Dots_2.jpg,Purple_Triangle_Stripes_2.jpg,Red_Circle_Grid_1.jpg,right,730,false,high,NA,NA,NA,NA,NA,NA,NA,false
e78KLKEM,3ka7ijsnx9iy5qpdnesn7gsg38gpb3,37trt2x24u446zk9j3s5z42vdxtbjs,e78KLKEM,2020-0188,2020-05-08,01:04:20,01:29:36,NA,incomplete,205,number,1,left,Red_Plus_Grid_1.jpg,Blue_Triangle_Chess_1.jpg,Purple_Plus_Stripes_2.jpg,left,772,true,high,NA,NA,NA,NA,NA,NA,NA,false
e78KLKEM,3ka7ijsnx9iy5qpdnesn7gsg38gpb3,37trt2x24u446zk9j3s5z42vdxtbjs,e78KLKEM,2020-0188,2020-05-08,01:04:20,01:29:36,NA,incomplete,206,number,1,right,Purple_Plus_Chess_3.jpg,Red_Plus_Stripes_1.jpg,Blue_Star_Grid_3.jpg,right,577,true,high,NA,NA,NA,NA,NA,NA,NA,false
e78KLKEM,3ka7ijsnx9iy5qpdnesn7gsg38gpb3,37trt2x24u446zk9j3s5z42vdxtbjs,e78KLKEM,2020-0188,2020-05-08,01:04:20,01:29:36,NA,incomplete,207,number,1,left,Green_Plus_Stripes_4.jpg,Blue_Star_Chess_4.jpg,Red_Plus_Grid_3.jpg,left,856,true,high,NA,NA,NA,NA,NA,NA,NA,false
e78KLKEM,3ka7ijsnx9iy5qpdnesn7gsg38gpb3,37trt2x24u446zk9j3s5z42vdxtbjs,e78KLKEM,2020-0188,2020-05-08,01:04:20,01:29:36,NA,incomplete,208,number,1,left,Green_Triangle_Dots_3.jpg,Red_Circle_Grid_3.jpg,Purple_Triangle_Stripes_4.jpg,left,801,true,high,NA,NA,NA,NA,NA,NA,NA,false
e78KLKEM,3ka7ijsnx9iy5qpdnesn7gsg38gpb3,37trt2x24u446zk9j3s5z42vdxtbjs,e78KLKEM,2020-0188,2020-05-08,01:04:20,01:29:36,NA,incomplete,209,number,1,right,Red_Plus_Dots_2.jpg,Blue_Plus_Grid_1.jpg,Purple_Circle_Stripes_2.jpg,right,750,true,high,NA,NA,NA,NA,NA,NA,NA,false
e78KLKEM,3ka7ijsnx9iy5qpdnesn7gsg38gpb3,37trt2x24u446zk9j3s5z42vdxtbjs,e78KLKEM,2020-0188,2020-05-08,01:04:20,01:29:36,NA,incomplete,210,number,1,left,Blue_Plus_Chess_2.jpg,Green_Triangle_Grid_2.jpg,Red_Plus_Dots_1.jpg,left,708,true,high,NA,NA,NA,NA,NA,NA,NA,false
e78KLKEM,3ka7ijsnx9iy5qpdnesn7gsg38gpb3,37trt2x24u446zk9j3s5z42vdxtbjs,e78KLKEM,2020-0188,2020-05-08,01:04:20,01:29:36,NA,incomplete,211,number,0,right,Purple_Circle_Chess_1.jpg,Blue_Circle_Stripes_4.jpg,Red_Star_Grid_1.jpg,left,757,false,high,NA,NA,NA,NA,NA,NA,NA,false
e78KLKEM,3ka7ijsnx9iy5qpdnesn7gsg38gpb3,37trt2x24u446zk9j3s5z42vdxtbjs,e78KLKEM,2020-0188,2020-05-08,01:04:20,01:29:36,NA,incomplete,212,number,1,right,Red_Plus_Stripes_2.jpg,Blue_Plus_Chess_4.jpg,Purple_Triangle_Dots_2.jpg,left,660,false,high,NA,NA,NA,NA,NA,NA,NA,false
e78KLKEM,3ka7ijsnx9iy5qpdnesn7gsg38gpb3,37trt2x24u446zk9j3s5z42vdxtbjs,e78KLKEM,2020-0188,2020-05-08,01:04:20,01:29:36,NA,incomplete,213,number,1,left,Red_Star_Grid_4.jpg,Blue_Circle_Dots_4.jpg,Purple_Star_Chess_2.jpg,left,653,true,high,NA,NA,NA,NA,NA,NA,NA,false
e78KLKEM,3ka7ijsnx9iy5qpdnesn7gsg38gpb3,37trt2x24u446zk9j3s5z42vdxtbjs,e78KLKEM,2020-0188,2020-05-08,01:04:20,01:29:36,NA,incomplete,214,number,1,left,Purple_Triangle_Grid_3.jpg,Green_Star_Chess_3.jpg,Blue_Triangle_Dots_1.jpg,left,658,true,high,NA,NA,NA,NA,NA,NA,NA,false
e78KLKEM,3ka7ijsnx9iy5qpdnesn7gsg38gpb3,37trt2x24u446zk9j3s5z42vdxtbjs,e78KLKEM,2020-0188,2020-05-08,01:04:20,01:29:36,NA,incomplete,215,number,1,right,Green_Circle_Grid_4.jpg,Purple_Circle_Chess_2.jpg,Blue_Triangle_Dots_4.jpg,right,660,true,high,NA,NA,NA,NA,NA,NA,NA,false
e78KLKEM,3ka7ijsnx9iy5qpdnesn7gsg38gpb3,37trt2x24u446zk9j3s5z42vdxtbjs,e78KLKEM,2020-0188,2020-05-08,01:04:20,01:29:36,NA,incomplete,216,number,1,left,Blue_Triangle_Stripes_3.jpg,Green_Circle_Dots_3.jpg,Red_Triangle_Chess_1.jpg,left,495,true,high,NA,NA,NA,NA,NA,NA,NA,false
e78KLKEM,3ka7ijsnx9iy5qpdnesn7gsg38gpb3,37trt2x24u446zk9j3s5z42vdxtbjs,e78KLKEM,2020-0188,2020-05-08,01:04:20,01:29:36,NA,incomplete,217,number,1,left,Blue_Star_Stripes_1.jpg,Green_Triangle_Grid_1.jpg,Purple_Star_Dots_2.jpg,left,695,true,high,NA,NA,NA,NA,NA,NA,NA,false
e78KLKEM,3ka7ijsnx9iy5qpdnesn7gsg38gpb3,37trt2x24u446zk9j3s5z42vdxtbjs,e78KLKEM,2020-0188,2020-05-08,01:04:20,01:29:36,NA,incomplete,218,number,1,left,Green_Triangle_Dots_4.jpg,Blue_Circle_Chess_4.jpg,Red_Triangle_Grid_1.jpg,left,649,true,high,NA,NA,NA,NA,NA,NA,NA,false
e78KLKEM,3ka7ijsnx9iy5qpdnesn7gsg38gpb3,37trt2x24u446zk9j3s5z42vdxtbjs,e78KLKEM,2020-0188,2020-05-08,01:04:20,01:29:36,NA,incomplete,219,number,1,left,Purple_Star_Grid_1.jpg,Blue_Plus_Stripes_1.jpg,Red_Star_Chess_3.jpg,left,797,true,high,NA,NA,NA,NA,NA,NA,NA,false
e78KLKEM,3ka7ijsnx9iy5qpdnesn7gsg38gpb3,37trt2x24u446zk9j3s5z42vdxtbjs,e78KLKEM,2020-0188,2020-05-08,01:04:20,01:29:36,NA,incomplete,220,shape,1,left,Red_Circle_Chess_2.jpg,Blue_Circle_Stripes_4.jpg,Purple_Star_Dots_2.jpg,right,785,false,high,NA,NA,NA,NA,NA,NA,NA,false
e78KLKEM,3ka7ijsnx9iy5qpdnesn7gsg38gpb3,37trt2x24u446zk9j3s5z42vdxtbjs,e78KLKEM,2020-0188,2020-05-08,01:04:20,01:29:36,NA,incomplete,221,shape,1,left,Red_Star_Chess_3.jpg,Purple_Star_Grid_2.jpg,Green_Circle_Dots_3.jpg,left,654,true,high,NA,NA,NA,NA,NA,NA,NA,false
e78KLKEM,3ka7ijsnx9iy5qpdnesn7gsg38gpb3,37trt2x24u446zk9j3s5z42vdxtbjs,e78KLKEM,2020-0188,2020-05-08,01:04:20,01:29:36,NA,incomplete,222,shape,1,left,Purple_Circle_Chess_2.jpg,Blue_Circle_Dots_1.jpg,Red_Triangle_Stripes_2.jpg,right,1081,false,high,NA,NA,NA,NA,NA,NA,NA,false
e78KLKEM,3ka7ijsnx9iy5qpdnesn7gsg38gpb3,37trt2x24u446zk9j3s5z42vdxtbjs,e78KLKEM,2020-0188,2020-05-08,01:04:20,01:29:36,NA,incomplete,223,shape,0,left,Purple_Star_Dots_4.jpg,Green_Star_Stripes_3.jpg,Red_Triangle_Chess_4.jpg,left,787,true,high,NA,NA,NA,NA,NA,NA,NA,false
e78KLKEM,3ka7ijsnx9iy5qpdnesn7gsg38gpb3,37trt2x24u446zk9j3s5z42vdxtbjs,e78KLKEM,2020-0188,2020-05-08,01:04:20,01:29:36,NA,incomplete,224,shape,1,right,Purple_Triangle_Grid_1.jpg,Red_Plus_Stripes_1.jpg,Green_Triangle_Chess_2.jpg,left,873,false,high,NA,NA,NA,NA,NA,NA,NA,false
e78KLKEM,3ka7ijsnx9iy5qpdnesn7gsg38gpb3,37trt2x24u446zk9j3s5z42vdxtbjs,e78KLKEM,2020-0188,2020-05-08,01:04:20,01:29:36,NA,incomplete,225,shape,0,left,Red_Circle_Grid_4.jpg,Purple_Circle_Stripes_1.jpg,Blue_Star_Dots_4.jpg,left,891,true,high,NA,NA,NA,NA,NA,NA,NA,false
e78KLKEM,3ka7ijsnx9iy5qpdnesn7gsg38gpb3,37trt2x24u446zk9j3s5z42vdxtbjs,e78KLKEM,2020-0188,2020-05-08,01:04:20,01:29:36,NA,incomplete,226,shape,1,left,Green_Star_Dots_1.jpg,Purple_Star_Grid_4.jpg,Blue_Plus_Stripes_1.jpg,right,1084,false,high,NA,NA,NA,NA,NA,NA,NA,false
e78KLKEM,3ka7ijsnx9iy5qpdnesn7gsg38gpb3,37trt2x24u446zk9j3s5z42vdxtbjs,e78KLKEM,2020-0188,2020-05-08,01:04:20,01:29:36,NA,incomplete,227,shape,1,right,Red_Triangle_Grid_3.jpg,Purple_Star_Dots_3.jpg,Green_Triangle_Stripes_1.jpg,right,774,true,high,NA,NA,NA,NA,NA,NA,NA,false
e78KLKEM,3ka7ijsnx9iy5qpdnesn7gsg38gpb3,37trt2x24u446zk9j3s5z42vdxtbjs,e78KLKEM,2020-0188,2020-05-08,01:04:20,01:29:36,NA,incomplete,228,shape,0,right,Red_Star_Stripes_2.jpg,Green_Circle_Chess_2.jpg,Blue_Star_Dots_4.jpg,right,739,true,high,NA,NA,NA,NA,NA,NA,NA,false
e78KLKEM,3ka7ijsnx9iy5qpdnesn7gsg38gpb3,37trt2x24u446zk9j3s5z42vdxtbjs,e78KLKEM,2020-0188,2020-05-08,01:04:20,01:29:36,NA,incomplete,229,shape,1,left,Red_Star_Grid_1.jpg,Blue_Star_Stripes_2.jpg,Green_Triangle_Chess_1.jpg,right,778,false,high,NA,NA,NA,NA,NA,NA,NA,false
e78KLKEM,3ka7ijsnx9iy5qpdnesn7gsg38gpb3,37trt2x24u446zk9j3s5z42vdxtbjs,e78KLKEM,2020-0188,2020-05-08,01:04:20,01:29:36,NA,incomplete,230,shape,1,left,Purple_Circle_Grid_4.jpg,Red_Circle_Chess_1.jpg,Green_Triangle_Dots_4.jpg,right,952,false,high,NA,NA,NA,NA,NA,NA,NA,false
e78KLKEM,3ka7ijsnx9iy5qpdnesn7gsg38gpb3,37trt2x24u446zk9j3s5z42vdxtbjs,e78KLKEM,2020-0188,2020-05-08,01:04:20,01:29:36,NA,incomplete,231,shape,1,left,Purple_Star_Chess_2.jpg,Red_Star_Dots_1.jpg,Blue_Circle_Stripes_2.jpg,left,774,true,high,NA,NA,NA,NA,NA,NA,NA,false
e78KLKEM,3ka7ijsnx9iy5qpdnesn7gsg38gpb3,37trt2x24u446zk9j3s5z42vdxtbjs,e78KLKEM,2020-0188,2020-05-08,01:04:20,01:29:36,NA,incomplete,232,shape,1,left,Green_Triangle_Stripes_2.jpg,Red_Triangle_Grid_1.jpg,Purple_Star_Chess_2.jpg,left,628,true,high,NA,NA,NA,NA,NA,NA,NA,false
e78KLKEM,3ka7ijsnx9iy5qpdnesn7gsg38gpb3,37trt2x24u446zk9j3s5z42vdxtbjs,e78KLKEM,2020-0188,2020-05-08,01:04:20,01:29:36,NA,incomplete,233,shape,1,right,Green_Plus_Grid_2.jpg,Red_Triangle_Stripes_2.jpg,Purple_Plus_Chess_1.jpg,right,790,true,high,NA,NA,NA,NA,NA,NA,NA,false
e78KLKEM,3ka7ijsnx9iy5qpdnesn7gsg38gpb3,37trt2x24u446zk9j3s5z42vdxtbjs,e78KLKEM,2020-0188,2020-05-08,01:04:20,01:29:36,NA,incomplete,234,shape,1,right,Blue_Circle_Grid_1.jpg,Green_Triangle_Dots_1.jpg,Red_Circle_Chess_3.jpg,left,726,false,high,NA,NA,NA,NA,NA,NA,NA,false
e78KLKEM,3ka7ijsnx9iy5qpdnesn7gsg38gpb3,37trt2x24u446zk9j3s5z42vdxtbjs,e78KLKEM,2020-0188,2020-05-08,01:04:20,01:29:36,NA,incomplete,235,shape,1,left,Red_Circle_Grid_2.jpg,Green_Circle_Dots_4.jpg,Purple_Triangle_Stripes_2.jpg,left,718,true,high,NA,NA,NA,NA,NA,NA,NA,false
e78KLKEM,3ka7ijsnx9iy5qpdnesn7gsg38gpb3,37trt2x24u446zk9j3s5z42vdxtbjs,e78KLKEM,2020-0188,2020-05-08,01:04:20,01:29:36,NA,incomplete,236,shape,1,left,Blue_Plus_Chess_4.jpg,Red_Plus_Dots_2.jpg,Green_Circle_Grid_4.jpg,left,646,true,high,NA,NA,NA,NA,NA,NA,NA,false
e78KLKEM,3ka7ijsnx9iy5qpdnesn7gsg38gpb3,37trt2x24u446zk9j3s5z42vdxtbjs,e78KLKEM,2020-0188,2020-05-08,01:04:20,01:29:36,NA,incomplete,237,shape,1,right,Red_Plus_Chess_2.jpg,Green_Circle_Stripes_2.jpg,Blue_Plus_Dots_1.jpg,right,698,true,high,NA,NA,NA,NA,NA,NA,NA,false
e78KLKEM,3ka7ijsnx9iy5qpdnesn7gsg38gpb3,37trt2x24u446zk9j3s5z42vdxtbjs,e78KLKEM,2020-0188,2020-05-08,01:04:20,01:29:36,NA,incomplete,238,shape,1,right,Blue_Triangle_Stripes_1.jpg,Purple_Star_Chess_1.jpg,Red_Triangle_Grid_4.jpg,right,802,true,high,NA,NA,NA,NA,NA,NA,NA,false
e78KLKEM,3ka7ijsnx9iy5qpdnesn7gsg38gpb3,37trt2x24u446zk9j3s5z42vdxtbjs,e78KLKEM,2020-0188,2020-05-08,01:04:20,01:29:36,NA,incomplete,239,shape,1,right,Red_Star_Chess_1.jpg,Purple_Plus_Dots_1.jpg,Blue_Star_Stripes_4.jpg,right,735,true,high,NA,NA,NA,NA,NA,NA,NA,false
e78KLKEM,3ka7ijsnx9iy5qpdnesn7gsg38gpb3,37trt2x24u446zk9j3s5z42vdxtbjs,e78KLKEM,2020-0188,2020-05-08,01:04:20,01:29:36,1420810,1517074,NA,NA,NA,NA,NA,NA,NA,NA,NA,NA,NA,32,White/Caucasian,Male,White,no,no,no,undefined
