workerId,hitId,assignmentId,subject,studyid,exp_date,exp_start,exp_end,time_start,time_end,trial,type,reward_validity,answer,image_top,image_left,image_right,response,response_time,response_acc,volatility,practice
tITFTozc,3m67tqbqrk18ut4e0bwuqf8vno09av,37u1utwh9zz22p5fowh4atymhjt8rz,tITFTozc,2020-0188,2020-11-21,02:15:23,02:35:59,NA,incomplete,0,shape,0,left,Purple_Triangle_Chess_4.jpg,Blue_Triangle_Stripes_1.jpg,Red_Circle_Dots_4.jpg,left,1442.5950000295416,true,NA,true
tITFTozc,3m67tqbqrk18ut4e0bwuqf8vno09av,37u1utwh9zz22p5fowh4atymhjt8rz,tITFTozc,2020-0188,2020-11-21,02:15:23,02:35:59,NA,incomplete,1,shape,1,right,Red_Plus_Stripes_2.jpg,Green_Triangle_Dots_2.jpg,Purple_Plus_Chess_3.jpg,right,1046.8150000087917,true,NA,true
tITFTozc,3m67tqbqrk18ut4e0bwuqf8vno09av,37u1utwh9zz22p5fowh4atymhjt8rz,tITFTozc,2020-0188,2020-11-21,02:15:23,02:35:59,NA,incomplete,2,shape,0,right,Red_Plus_Dots_3.jpg,Green_Triangle_Stripes_3.jpg,Blue_Plus_Chess_1.jpg,right,1314.6300000371411,true,NA,true
tITFTozc,3m67tqbqrk18ut4e0bwuqf8vno09av,37u1utwh9zz22p5fowh4atymhjt8rz,tITFTozc,2020-0188,2020-11-21,02:15:23,02:35:59,NA,incomplete,3,shape,1,right,Purple_Circle_Stripes_1.jpg,Green_Star_Dots_1.jpg,Blue_Circle_Chess_4.jpg,right,1543.6449999688193,true,NA,true
tITFTozc,3m67tqbqrk18ut4e0bwuqf8vno09av,37u1utwh9zz22p5fowh4atymhjt8rz,tITFTozc,2020-0188,2020-11-21,02:15:23,02:35:59,NA,incomplete,4,shape,1,left,Green_Circle_Chess_2.jpg,Blue_Circle_Stripes_3.jpg,Red_Star_Dots_2.jpg,left,1317.600000067614,true,NA,true
tITFTozc,3m67tqbqrk18ut4e0bwuqf8vno09av,37u1utwh9zz22p5fowh4atymhjt8rz,tITFTozc,2020-0188,2020-11-21,02:15:23,02:35:59,NA,incomplete,5,shape,1,right,Red_Triangle_Stripes_1.jpg,Blue_Circle_Chess_1.jpg,Purple_Triangle_Grid_2.jpg,right,1057.81000002753,true,NA,true
tITFTozc,3m67tqbqrk18ut4e0bwuqf8vno09av,37u1utwh9zz22p5fowh4atymhjt8rz,tITFTozc,2020-0188,2020-11-21,02:15:23,02:35:59,NA,incomplete,6,shape,1,left,Red_Star_Dots_2.jpg,Purple_Star_Chess_1.jpg,Green_Circle_Stripes_2.jpg,left,1125.1300000585616,true,NA,true
tITFTozc,3m67tqbqrk18ut4e0bwuqf8vno09av,37u1utwh9zz22p5fowh4atymhjt8rz,tITFTozc,2020-0188,2020-11-21,02:15:23,02:35:59,NA,incomplete,7,shape,1,right,Blue_Plus_Dots_3.jpg,Green_Triangle_Stripes_3.jpg,Red_Plus_Chess_4.jpg,right,1221.4549999916926,true,NA,true
tITFTozc,3m67tqbqrk18ut4e0bwuqf8vno09av,37u1utwh9zz22p5fowh4atymhjt8rz,tITFTozc,2020-0188,2020-11-21,02:15:23,02:35:59,NA,incomplete,8,shape,1,left,Red_Triangle_Dots_3.jpg,Blue_Triangle_Chess_1.jpg,Purple_Star_Grid_3.jpg,left,1379.1300000157207,true,NA,true
tITFTozc,3m67tqbqrk18ut4e0bwuqf8vno09av,37u1utwh9zz22p5fowh4atymhjt8rz,tITFTozc,2020-0188,2020-11-21,02:15:23,02:35:59,NA,incomplete,9,shape,1,right,Red_Circle_Chess_1.jpg,Green_Triangle_Dots_1.jpg,Blue_Circle_Stripes_2.jpg,right,1141.9999999925494,true,NA,true
tITFTozc,3m67tqbqrk18ut4e0bwuqf8vno09av,37u1utwh9zz22p5fowh4atymhjt8rz,tITFTozc,2020-0188,2020-11-21,02:15:23,02:35:59,NA,incomplete,10,shape,0,right,Green_Circle_Chess_2.jpg,Red_Star_Stripes_2.jpg,Purple_Circle_Dots_4.jpg,right,1653.785000089556,true,NA,true
tITFTozc,3m67tqbqrk18ut4e0bwuqf8vno09av,37u1utwh9zz22p5fowh4atymhjt8rz,tITFTozc,2020-0188,2020-11-21,02:15:23,02:35:59,NA,incomplete,11,shape,0,left,Red_Triangle_Chess_1.jpg,Green_Triangle_Dots_2.jpg,Blue_Star_Grid_1.jpg,left,1260.7549999374896,true,NA,true
tITFTozc,3m67tqbqrk18ut4e0bwuqf8vno09av,37u1utwh9zz22p5fowh4atymhjt8rz,tITFTozc,2020-0188,2020-11-21,02:15:23,02:35:59,NA,incomplete,12,shape,1,left,Green_Plus_Dots_4.jpg,Purple_Plus_Stripes_3.jpg,Blue_Star_Chess_4.jpg,left,1310.3600000031292,true,NA,true
tITFTozc,3m67tqbqrk18ut4e0bwuqf8vno09av,37u1utwh9zz22p5fowh4atymhjt8rz,tITFTozc,2020-0188,2020-11-21,02:15:23,02:35:59,NA,incomplete,13,shape,1,right,Blue_Circle_Stripes_2.jpg,Purple_Plus_Grid_2.jpg,Red_Circle_Chess_3.jpg,right,977.0499999867752,true,NA,true
tITFTozc,3m67tqbqrk18ut4e0bwuqf8vno09av,37u1utwh9zz22p5fowh4atymhjt8rz,tITFTozc,2020-0188,2020-11-21,02:15:23,02:35:59,NA,incomplete,14,shape,1,left,Purple_Star_Dots_3.jpg,Blue_Star_Grid_2.jpg,Red_Plus_Chess_3.jpg,left,1110.2149999933317,true,NA,true
tITFTozc,3m67tqbqrk18ut4e0bwuqf8vno09av,37u1utwh9zz22p5fowh4atymhjt8rz,tITFTozc,2020-0188,2020-11-21,02:15:23,02:35:59,NA,incomplete,15,shape,1,left,Red_Plus_Chess_1.jpg,Green_Plus_Dots_2.jpg,Purple_Star_Grid_1.jpg,left,1260.9649999067187,true,NA,true
tITFTozc,3m67tqbqrk18ut4e0bwuqf8vno09av,37u1utwh9zz22p5fowh4atymhjt8rz,tITFTozc,2020-0188,2020-11-21,02:15:23,02:35:59,NA,incomplete,16,shape,0,right,Blue_Triangle_Chess_2.jpg,Purple_Plus_Stripes_2.jpg,Green_Triangle_Grid_1.jpg,right,962.085000006482,true,NA,true
tITFTozc,3m67tqbqrk18ut4e0bwuqf8vno09av,37u1utwh9zz22p5fowh4atymhjt8rz,tITFTozc,2020-0188,2020-11-21,02:15:23,02:35:59,NA,incomplete,17,shape,1,left,Purple_Circle_Dots_1.jpg,Blue_Circle_Chess_2.jpg,Green_Star_Stripes_1.jpg,left,1014.1600000206381,true,NA,true
tITFTozc,3m67tqbqrk18ut4e0bwuqf8vno09av,37u1utwh9zz22p5fowh4atymhjt8rz,tITFTozc,2020-0188,2020-11-21,02:15:23,02:35:59,NA,incomplete,18,shape,1,right,Purple_Plus_Dots_4.jpg,Green_Circle_Chess_4.jpg,Red_Plus_Grid_2.jpg,right,1040.485000004992,true,NA,true
tITFTozc,3m67tqbqrk18ut4e0bwuqf8vno09av,37u1utwh9zz22p5fowh4atymhjt8rz,tITFTozc,2020-0188,2020-11-21,02:15:23,02:35:59,NA,incomplete,19,shape,0,right,Blue_Star_Dots_4.jpg,Purple_Triangle_Stripes_4.jpg,Green_Star_Grid_1.jpg,right,1070.3300000168383,true,NA,true
tITFTozc,3m67tqbqrk18ut4e0bwuqf8vno09av,37u1utwh9zz22p5fowh4atymhjt8rz,tITFTozc,2020-0188,2020-11-21,02:15:23,02:35:59,NA,incomplete,20,number,1,left,Red_Circle_Stripes_2.jpg,Blue_Plus_Chess_2.jpg,Purple_Circle_Dots_4.jpg,left,1578.279999899678,true,NA,true
tITFTozc,3m67tqbqrk18ut4e0bwuqf8vno09av,37u1utwh9zz22p5fowh4atymhjt8rz,tITFTozc,2020-0188,2020-11-21,02:15:23,02:35:59,NA,incomplete,21,number,1,left,Blue_Triangle_Dots_3.jpg,Purple_Star_Grid_3.jpg,Red_Triangle_Chess_2.jpg,left,1478.099999949336,true,NA,true
tITFTozc,3m67tqbqrk18ut4e0bwuqf8vno09av,37u1utwh9zz22p5fowh4atymhjt8rz,tITFTozc,2020-0188,2020-11-21,02:15:23,02:35:59,NA,incomplete,22,number,0,right,Red_Star_Grid_2.jpg,Green_Star_Chess_4.jpg,Purple_Triangle_Stripes_2.jpg,right,1494.9900000356138,true,NA,true
tITFTozc,3m67tqbqrk18ut4e0bwuqf8vno09av,37u1utwh9zz22p5fowh4atymhjt8rz,tITFTozc,2020-0188,2020-11-21,02:15:23,02:35:59,NA,incomplete,23,number,1,left,Green_Triangle_Dots_1.jpg,Blue_Plus_Grid_1.jpg,Purple_Triangle_Stripes_2.jpg,right,1211.2799999304116,false,NA,true
tITFTozc,3m67tqbqrk18ut4e0bwuqf8vno09av,37u1utwh9zz22p5fowh4atymhjt8rz,tITFTozc,2020-0188,2020-11-21,02:15:23,02:35:59,NA,incomplete,24,number,1,right,Blue_Star_Grid_1.jpg,Purple_Star_Dots_4.jpg,Red_Plus_Stripes_1.jpg,right,1255.4450000170618,true,NA,true
tITFTozc,3m67tqbqrk18ut4e0bwuqf8vno09av,37u1utwh9zz22p5fowh4atymhjt8rz,tITFTozc,2020-0188,2020-11-21,02:15:23,02:35:59,NA,incomplete,25,number,1,left,Blue_Star_Stripes_4.jpg,Purple_Triangle_Grid_4.jpg,Red_Star_Dots_2.jpg,left,1795.1299999840558,true,NA,true
tITFTozc,3m67tqbqrk18ut4e0bwuqf8vno09av,37u1utwh9zz22p5fowh4atymhjt8rz,tITFTozc,2020-0188,2020-11-21,02:15:23,02:35:59,NA,incomplete,26,number,1,left,Red_Circle_Stripes_2.jpg,Purple_Plus_Grid_2.jpg,Blue_Circle_Chess_4.jpg,left,1699.3700000457466,true,NA,true
tITFTozc,3m67tqbqrk18ut4e0bwuqf8vno09av,37u1utwh9zz22p5fowh4atymhjt8rz,tITFTozc,2020-0188,2020-11-21,02:15:23,02:35:59,NA,incomplete,27,number,1,left,Green_Triangle_Dots_4.jpg,Red_Circle_Grid_4.jpg,Purple_Triangle_Stripes_2.jpg,left,1244.2750000627711,true,NA,true
tITFTozc,3m67tqbqrk18ut4e0bwuqf8vno09av,37u1utwh9zz22p5fowh4atymhjt8rz,tITFTozc,2020-0188,2020-11-21,02:15:23,02:35:59,NA,incomplete,28,number,1,left,Green_Triangle_Grid_4.jpg,Purple_Plus_Dots_4.jpg,Blue_Triangle_Chess_3.jpg,left,1303.0100000323728,true,NA,true
tITFTozc,3m67tqbqrk18ut4e0bwuqf8vno09av,37u1utwh9zz22p5fowh4atymhjt8rz,tITFTozc,2020-0188,2020-11-21,02:15:23,02:35:59,NA,incomplete,29,number,0,left,Blue_Star_Stripes_3.jpg,Red_Triangle_Grid_3.jpg,Green_Star_Chess_2.jpg,left,1506.9899999070913,true,NA,true
tITFTozc,3m67tqbqrk18ut4e0bwuqf8vno09av,37u1utwh9zz22p5fowh4atymhjt8rz,tITFTozc,2020-0188,2020-11-21,02:15:23,02:35:59,NA,incomplete,30,number,1,right,Red_Star_Stripes_3.jpg,Blue_Star_Dots_1.jpg,Purple_Triangle_Chess_3.jpg,none,0,false,NA,true
tITFTozc,3m67tqbqrk18ut4e0bwuqf8vno09av,37u1utwh9zz22p5fowh4atymhjt8rz,tITFTozc,2020-0188,2020-11-21,02:15:23,02:35:59,NA,incomplete,31,number,1,right,Blue_Triangle_Grid_1.jpg,Purple_Triangle_Chess_3.jpg,Green_Star_Dots_1.jpg,right,1242.5900000380352,true,NA,true
tITFTozc,3m67tqbqrk18ut4e0bwuqf8vno09av,37u1utwh9zz22p5fowh4atymhjt8rz,tITFTozc,2020-0188,2020-11-21,02:15:23,02:35:59,NA,incomplete,32,number,1,right,Purple_Plus_Dots_1.jpg,Green_Plus_Grid_3.jpg,Red_Circle_Chess_1.jpg,right,1293.3400000911206,true,NA,true
tITFTozc,3m67tqbqrk18ut4e0bwuqf8vno09av,37u1utwh9zz22p5fowh4atymhjt8rz,tITFTozc,2020-0188,2020-11-21,02:15:23,02:35:59,NA,incomplete,33,number,1,right,Green_Plus_Grid_2.jpg,Purple_Plus_Stripes_1.jpg,Blue_Star_Dots_2.jpg,right,1145.2299999073148,true,NA,true
tITFTozc,3m67tqbqrk18ut4e0bwuqf8vno09av,37u1utwh9zz22p5fowh4atymhjt8rz,tITFTozc,2020-0188,2020-11-21,02:15:23,02:35:59,NA,incomplete,34,number,1,left,Blue_Plus_Chess_1.jpg,Red_Star_Stripes_1.jpg,Green_Plus_Grid_4.jpg,left,1077.904999954626,true,NA,true
tITFTozc,3m67tqbqrk18ut4e0bwuqf8vno09av,37u1utwh9zz22p5fowh4atymhjt8rz,tITFTozc,2020-0188,2020-11-21,02:15:23,02:35:59,NA,incomplete,35,number,1,right,Purple_Circle_Dots_4.jpg,Blue_Circle_Grid_3.jpg,Green_Triangle_Chess_4.jpg,right,1398.259999928996,true,NA,true
tITFTozc,3m67tqbqrk18ut4e0bwuqf8vno09av,37u1utwh9zz22p5fowh4atymhjt8rz,tITFTozc,2020-0188,2020-11-21,02:15:23,02:35:59,NA,incomplete,36,number,1,right,Blue_Star_Grid_2.jpg,Red_Star_Stripes_4.jpg,Purple_Circle_Dots_2.jpg,right,1268.610000028275,true,NA,true
tITFTozc,3m67tqbqrk18ut4e0bwuqf8vno09av,37u1utwh9zz22p5fowh4atymhjt8rz,tITFTozc,2020-0188,2020-11-21,02:15:23,02:35:59,NA,incomplete,37,number,1,left,Purple_Plus_Grid_4.jpg,Red_Triangle_Stripes_4.jpg,Blue_Plus_Chess_1.jpg,left,1132.1149999275804,true,NA,true
tITFTozc,3m67tqbqrk18ut4e0bwuqf8vno09av,37u1utwh9zz22p5fowh4atymhjt8rz,tITFTozc,2020-0188,2020-11-21,02:15:23,02:35:59,NA,incomplete,38,number,1,left,Blue_Triangle_Grid_2.jpg,Red_Plus_Chess_2.jpg,Green_Triangle_Dots_4.jpg,left,1110.5250000255182,true,NA,true
tITFTozc,3m67tqbqrk18ut4e0bwuqf8vno09av,37u1utwh9zz22p5fowh4atymhjt8rz,tITFTozc,2020-0188,2020-11-21,02:15:23,02:35:59,NA,incomplete,39,number,1,right,Red_Triangle_Chess_3.jpg,Purple_Triangle_Stripes_4.jpg,Green_Star_Grid_3.jpg,right,1089.464999968186,true,NA,true
tITFTozc,3m67tqbqrk18ut4e0bwuqf8vno09av,37u1utwh9zz22p5fowh4atymhjt8rz,tITFTozc,2020-0188,2020-11-21,02:15:23,02:35:59,NA,incomplete,0,shape,1,right,Blue_Circle_Chess_1.jpg,Purple_Star_Stripes_1.jpg,Green_Circle_Grid_3.jpg,left,1685.0550000090152,false,low,false
tITFTozc,3m67tqbqrk18ut4e0bwuqf8vno09av,37u1utwh9zz22p5fowh4atymhjt8rz,tITFTozc,2020-0188,2020-11-21,02:15:23,02:35:59,NA,incomplete,1,shape,1,right,Red_Star_Chess_3.jpg,Green_Circle_Grid_3.jpg,Blue_Star_Dots_2.jpg,right,1205.0549999112263,true,low,false
tITFTozc,3m67tqbqrk18ut4e0bwuqf8vno09av,37u1utwh9zz22p5fowh4atymhjt8rz,tITFTozc,2020-0188,2020-11-21,02:15:23,02:35:59,NA,incomplete,2,shape,1,right,Blue_Star_Dots_4.jpg,Purple_Plus_Grid_4.jpg,Red_Star_Stripes_2.jpg,right,1066.0750000970438,true,low,false
tITFTozc,3m67tqbqrk18ut4e0bwuqf8vno09av,37u1utwh9zz22p5fowh4atymhjt8rz,tITFTozc,2020-0188,2020-11-21,02:15:23,02:35:59,NA,incomplete,3,shape,1,left,Blue_Circle_Grid_1.jpg,Green_Circle_Chess_3.jpg,Red_Triangle_Dots_1.jpg,left,1182.8550000209361,true,low,false
tITFTozc,3m67tqbqrk18ut4e0bwuqf8vno09av,37u1utwh9zz22p5fowh4atymhjt8rz,tITFTozc,2020-0188,2020-11-21,02:15:23,02:35:59,NA,incomplete,4,shape,1,left,Blue_Circle_Dots_3.jpg,Green_Circle_Grid_1.jpg,Red_Plus_Chess_3.jpg,left,1053.8050000322983,true,low,false
tITFTozc,3m67tqbqrk18ut4e0bwuqf8vno09av,37u1utwh9zz22p5fowh4atymhjt8rz,tITFTozc,2020-0188,2020-11-21,02:15:23,02:35:59,NA,incomplete,5,shape,1,right,Red_Triangle_Chess_4.jpg,Purple_Circle_Stripes_4.jpg,Green_Triangle_Dots_3.jpg,right,1157.96500002034,true,low,false
tITFTozc,3m67tqbqrk18ut4e0bwuqf8vno09av,37u1utwh9zz22p5fowh4atymhjt8rz,tITFTozc,2020-0188,2020-11-21,02:15:23,02:35:59,NA,incomplete,6,shape,1,right,Purple_Plus_Dots_1.jpg,Blue_Triangle_Grid_1.jpg,Red_Plus_Chess_2.jpg,right,1100.1599999144673,true,low,false
tITFTozc,3m67tqbqrk18ut4e0bwuqf8vno09av,37u1utwh9zz22p5fowh4atymhjt8rz,tITFTozc,2020-0188,2020-11-21,02:15:23,02:35:59,NA,incomplete,7,shape,1,right,Green_Plus_Grid_3.jpg,Red_Triangle_Chess_3.jpg,Purple_Plus_Stripes_4.jpg,right,1027.2349999286234,true,low,false
tITFTozc,3m67tqbqrk18ut4e0bwuqf8vno09av,37u1utwh9zz22p5fowh4atymhjt8rz,tITFTozc,2020-0188,2020-11-21,02:15:23,02:35:59,NA,incomplete,8,shape,1,right,Red_Triangle_Chess_1.jpg,Purple_Circle_Grid_1.jpg,Green_Triangle_Dots_3.jpg,right,973.4150000149384,true,low,false
tITFTozc,3m67tqbqrk18ut4e0bwuqf8vno09av,37u1utwh9zz22p5fowh4atymhjt8rz,tITFTozc,2020-0188,2020-11-21,02:15:23,02:35:59,NA,incomplete,9,shape,0,left,Green_Circle_Dots_3.jpg,Blue_Circle_Stripes_4.jpg,Red_Star_Chess_3.jpg,left,1098.1250000186265,true,low,false
tITFTozc,3m67tqbqrk18ut4e0bwuqf8vno09av,37u1utwh9zz22p5fowh4atymhjt8rz,tITFTozc,2020-0188,2020-11-21,02:15:23,02:35:59,NA,incomplete,10,shape,0,left,Purple_Triangle_Grid_2.jpg,Red_Triangle_Chess_3.jpg,Green_Plus_Stripes_2.jpg,right,1480.3250000113621,false,low,false
tITFTozc,3m67tqbqrk18ut4e0bwuqf8vno09av,37u1utwh9zz22p5fowh4atymhjt8rz,tITFTozc,2020-0188,2020-11-21,02:15:23,02:35:59,NA,incomplete,11,shape,1,right,Green_Circle_Chess_2.jpg,Purple_Star_Dots_2.jpg,Blue_Circle_Stripes_3.jpg,left,1753.8349999813363,false,low,false
tITFTozc,3m67tqbqrk18ut4e0bwuqf8vno09av,37u1utwh9zz22p5fowh4atymhjt8rz,tITFTozc,2020-0188,2020-11-21,02:15:23,02:35:59,NA,incomplete,12,shape,1,right,Blue_Circle_Dots_2.jpg,Purple_Plus_Chess_2.jpg,Green_Circle_Stripes_4.jpg,right,1110.1400000043213,true,low,false
tITFTozc,3m67tqbqrk18ut4e0bwuqf8vno09av,37u1utwh9zz22p5fowh4atymhjt8rz,tITFTozc,2020-0188,2020-11-21,02:15:23,02:35:59,NA,incomplete,13,shape,0,right,Purple_Star_Grid_2.jpg,Blue_Circle_Stripes_2.jpg,Green_Star_Chess_1.jpg,right,1132.1450000395998,true,low,false
tITFTozc,3m67tqbqrk18ut4e0bwuqf8vno09av,37u1utwh9zz22p5fowh4atymhjt8rz,tITFTozc,2020-0188,2020-11-21,02:15:23,02:35:59,NA,incomplete,14,shape,1,left,Purple_Triangle_Dots_2.jpg,Blue_Triangle_Stripes_1.jpg,Red_Circle_Chess_2.jpg,right,1012.3100000200793,false,low,false
tITFTozc,3m67tqbqrk18ut4e0bwuqf8vno09av,37u1utwh9zz22p5fowh4atymhjt8rz,tITFTozc,2020-0188,2020-11-21,02:15:23,02:35:59,NA,incomplete,15,shape,0,right,Red_Triangle_Grid_2.jpg,Purple_Plus_Chess_2.jpg,Green_Triangle_Stripes_3.jpg,right,906.6599999787286,true,low,false
tITFTozc,3m67tqbqrk18ut4e0bwuqf8vno09av,37u1utwh9zz22p5fowh4atymhjt8rz,tITFTozc,2020-0188,2020-11-21,02:15:23,02:35:59,NA,incomplete,16,shape,1,right,Purple_Triangle_Chess_1.jpg,Red_Plus_Grid_1.jpg,Blue_Triangle_Dots_3.jpg,left,1138.6299999430776,false,low,false
tITFTozc,3m67tqbqrk18ut4e0bwuqf8vno09av,37u1utwh9zz22p5fowh4atymhjt8rz,tITFTozc,2020-0188,2020-11-21,02:15:23,02:35:59,NA,incomplete,17,shape,1,left,Blue_Circle_Chess_3.jpg,Red_Circle_Grid_4.jpg,Purple_Plus_Stripes_3.jpg,left,1085.6849999399856,true,low,false
tITFTozc,3m67tqbqrk18ut4e0bwuqf8vno09av,37u1utwh9zz22p5fowh4atymhjt8rz,tITFTozc,2020-0188,2020-11-21,02:15:23,02:35:59,NA,incomplete,18,shape,1,left,Purple_Star_Chess_4.jpg,Red_Star_Grid_1.jpg,Green_Plus_Dots_4.jpg,right,1429.3600000673905,false,low,false
tITFTozc,3m67tqbqrk18ut4e0bwuqf8vno09av,37u1utwh9zz22p5fowh4atymhjt8rz,tITFTozc,2020-0188,2020-11-21,02:15:23,02:35:59,NA,incomplete,19,shape,1,left,Red_Star_Stripes_1.jpg,Blue_Star_Grid_2.jpg,Green_Plus_Chess_1.jpg,left,1015.6900000292808,true,low,false
tITFTozc,3m67tqbqrk18ut4e0bwuqf8vno09av,37u1utwh9zz22p5fowh4atymhjt8rz,tITFTozc,2020-0188,2020-11-21,02:15:23,02:35:59,NA,incomplete,20,shape,1,left,Blue_Triangle_Chess_1.jpg,Purple_Triangle_Grid_4.jpg,Green_Star_Stripes_1.jpg,left,982.7050000894815,true,low,false
tITFTozc,3m67tqbqrk18ut4e0bwuqf8vno09av,37u1utwh9zz22p5fowh4atymhjt8rz,tITFTozc,2020-0188,2020-11-21,02:15:23,02:35:59,NA,incomplete,21,shape,1,right,Green_Plus_Stripes_4.jpg,Purple_Star_Grid_4.jpg,Blue_Plus_Chess_1.jpg,right,1506.2700000125915,true,low,false
tITFTozc,3m67tqbqrk18ut4e0bwuqf8vno09av,37u1utwh9zz22p5fowh4atymhjt8rz,tITFTozc,2020-0188,2020-11-21,02:15:23,02:35:59,NA,incomplete,22,shape,1,left,Red_Triangle_Chess_3.jpg,Green_Triangle_Dots_2.jpg,Blue_Circle_Stripes_3.jpg,left,1202.3400000762194,true,low,false
tITFTozc,3m67tqbqrk18ut4e0bwuqf8vno09av,37u1utwh9zz22p5fowh4atymhjt8rz,tITFTozc,2020-0188,2020-11-21,02:15:23,02:35:59,NA,incomplete,23,shape,1,right,Blue_Star_Grid_1.jpg,Purple_Circle_Stripes_1.jpg,Green_Star_Chess_4.jpg,right,1101.7099999589846,true,low,false
tITFTozc,3m67tqbqrk18ut4e0bwuqf8vno09av,37u1utwh9zz22p5fowh4atymhjt8rz,tITFTozc,2020-0188,2020-11-21,02:15:23,02:35:59,NA,incomplete,24,shape,1,right,Blue_Star_Grid_3.jpg,Green_Triangle_Dots_3.jpg,Red_Star_Stripes_4.jpg,right,988.9050000347197,true,low,false
tITFTozc,3m67tqbqrk18ut4e0bwuqf8vno09av,37u1utwh9zz22p5fowh4atymhjt8rz,tITFTozc,2020-0188,2020-11-21,02:15:23,02:35:59,NA,incomplete,25,shape,1,right,Blue_Circle_Grid_1.jpg,Purple_Star_Dots_1.jpg,Red_Circle_Chess_3.jpg,right,1007.5400000205263,true,low,false
tITFTozc,3m67tqbqrk18ut4e0bwuqf8vno09av,37u1utwh9zz22p5fowh4atymhjt8rz,tITFTozc,2020-0188,2020-11-21,02:15:23,02:35:59,NA,incomplete,26,shape,1,right,Blue_Circle_Stripes_2.jpg,Red_Plus_Dots_2.jpg,Green_Circle_Chess_1.jpg,right,966.4400001056492,true,low,false
tITFTozc,3m67tqbqrk18ut4e0bwuqf8vno09av,37u1utwh9zz22p5fowh4atymhjt8rz,tITFTozc,2020-0188,2020-11-21,02:15:23,02:35:59,NA,incomplete,27,shape,0,left,Red_Triangle_Grid_1.jpg,Green_Triangle_Chess_2.jpg,Purple_Plus_Stripes_1.jpg,left,1196.724999928847,true,low,false
tITFTozc,3m67tqbqrk18ut4e0bwuqf8vno09av,37u1utwh9zz22p5fowh4atymhjt8rz,tITFTozc,2020-0188,2020-11-21,02:15:23,02:35:59,NA,incomplete,28,shape,1,right,Red_Plus_Grid_3.jpg,Green_Triangle_Stripes_3.jpg,Purple_Plus_Dots_4.jpg,left,1448.5550000099465,false,low,false
tITFTozc,3m67tqbqrk18ut4e0bwuqf8vno09av,37u1utwh9zz22p5fowh4atymhjt8rz,tITFTozc,2020-0188,2020-11-21,02:15:23,02:35:59,NA,incomplete,29,shape,1,left,Red_Plus_Chess_3.jpg,Green_Plus_Stripes_2.jpg,Purple_Triangle_Grid_3.jpg,left,1735.2950000204146,true,low,false
tITFTozc,3m67tqbqrk18ut4e0bwuqf8vno09av,37u1utwh9zz22p5fowh4atymhjt8rz,tITFTozc,2020-0188,2020-11-21,02:15:23,02:35:59,NA,incomplete,30,number,1,right,Red_Plus_Dots_3.jpg,Purple_Plus_Stripes_4.jpg,Green_Star_Chess_3.jpg,none,0,false,low,false
tITFTozc,3m67tqbqrk18ut4e0bwuqf8vno09av,37u1utwh9zz22p5fowh4atymhjt8rz,tITFTozc,2020-0188,2020-11-21,02:15:23,02:35:59,NA,incomplete,31,number,0,left,Green_Plus_Chess_2.jpg,Purple_Triangle_Dots_2.jpg,Red_Plus_Stripes_3.jpg,right,1666.7949999682605,false,low,false
tITFTozc,3m67tqbqrk18ut4e0bwuqf8vno09av,37u1utwh9zz22p5fowh4atymhjt8rz,tITFTozc,2020-0188,2020-11-21,02:15:23,02:35:59,NA,incomplete,32,number,1,left,Blue_Star_Stripes_1.jpg,Green_Plus_Grid_1.jpg,Purple_Star_Dots_2.jpg,right,952.7349999407306,false,low,false
tITFTozc,3m67tqbqrk18ut4e0bwuqf8vno09av,37u1utwh9zz22p5fowh4atymhjt8rz,tITFTozc,2020-0188,2020-11-21,02:15:23,02:35:59,NA,incomplete,33,number,1,left,Blue_Triangle_Stripes_2.jpg,Purple_Circle_Grid_2.jpg,Red_Triangle_Chess_3.jpg,left,1898.9950000541285,true,low,false
tITFTozc,3m67tqbqrk18ut4e0bwuqf8vno09av,37u1utwh9zz22p5fowh4atymhjt8rz,tITFTozc,2020-0188,2020-11-21,02:15:23,02:35:59,NA,incomplete,34,number,1,right,Blue_Star_Stripes_2.jpg,Green_Star_Dots_3.jpg,Red_Circle_Chess_2.jpg,right,1609.5399999758229,true,low,false
tITFTozc,3m67tqbqrk18ut4e0bwuqf8vno09av,37u1utwh9zz22p5fowh4atymhjt8rz,tITFTozc,2020-0188,2020-11-21,02:15:23,02:35:59,NA,incomplete,35,number,1,left,Red_Circle_Stripes_2.jpg,Blue_Triangle_Chess_2.jpg,Green_Circle_Grid_3.jpg,left,1241.950000054203,true,low,false
tITFTozc,3m67tqbqrk18ut4e0bwuqf8vno09av,37u1utwh9zz22p5fowh4atymhjt8rz,tITFTozc,2020-0188,2020-11-21,02:15:23,02:35:59,NA,incomplete,36,number,1,right,Purple_Star_Chess_2.jpg,Green_Star_Dots_1.jpg,Red_Plus_Grid_2.jpg,right,1161.2350000068545,true,low,false
tITFTozc,3m67tqbqrk18ut4e0bwuqf8vno09av,37u1utwh9zz22p5fowh4atymhjt8rz,tITFTozc,2020-0188,2020-11-21,02:15:23,02:35:59,NA,incomplete,37,number,0,left,Blue_Star_Chess_1.jpg,Purple_Circle_Dots_1.jpg,Green_Star_Grid_2.jpg,left,928.6449999781325,true,low,false
tITFTozc,3m67tqbqrk18ut4e0bwuqf8vno09av,37u1utwh9zz22p5fowh4atymhjt8rz,tITFTozc,2020-0188,2020-11-21,02:15:23,02:35:59,NA,incomplete,38,number,1,left,Green_Triangle_Dots_3.jpg,Purple_Star_Chess_3.jpg,Blue_Triangle_Stripes_2.jpg,left,1639.8650000337511,true,low,false
tITFTozc,3m67tqbqrk18ut4e0bwuqf8vno09av,37u1utwh9zz22p5fowh4atymhjt8rz,tITFTozc,2020-0188,2020-11-21,02:15:23,02:35:59,NA,incomplete,39,number,1,left,Blue_Triangle_Grid_2.jpg,Green_Plus_Stripes_2.jpg,Purple_Triangle_Dots_1.jpg,left,937.830000068061,true,low,false
tITFTozc,3m67tqbqrk18ut4e0bwuqf8vno09av,37u1utwh9zz22p5fowh4atymhjt8rz,tITFTozc,2020-0188,2020-11-21,02:15:23,02:35:59,NA,incomplete,40,number,0,right,Purple_Plus_Grid_4.jpg,Red_Plus_Chess_2.jpg,Blue_Triangle_Dots_4.jpg,right,1148.7300000153482,true,low,false
tITFTozc,3m67tqbqrk18ut4e0bwuqf8vno09av,37u1utwh9zz22p5fowh4atymhjt8rz,tITFTozc,2020-0188,2020-11-21,02:15:23,02:35:59,NA,incomplete,41,number,1,right,Purple_Star_Chess_1.jpg,Blue_Star_Stripes_2.jpg,Red_Triangle_Grid_1.jpg,right,1197.329999995418,true,low,false
tITFTozc,3m67tqbqrk18ut4e0bwuqf8vno09av,37u1utwh9zz22p5fowh4atymhjt8rz,tITFTozc,2020-0188,2020-11-21,02:15:23,02:35:59,NA,incomplete,42,number,1,right,Blue_Plus_Dots_4.jpg,Green_Plus_Stripes_1.jpg,Red_Star_Grid_4.jpg,right,1019.594999961555,true,low,false
tITFTozc,3m67tqbqrk18ut4e0bwuqf8vno09av,37u1utwh9zz22p5fowh4atymhjt8rz,tITFTozc,2020-0188,2020-11-21,02:15:23,02:35:59,NA,incomplete,43,number,1,right,Green_Plus_Chess_2.jpg,Blue_Plus_Grid_3.jpg,Purple_Triangle_Stripes_2.jpg,right,1154.964999994263,true,low,false
tITFTozc,3m67tqbqrk18ut4e0bwuqf8vno09av,37u1utwh9zz22p5fowh4atymhjt8rz,tITFTozc,2020-0188,2020-11-21,02:15:23,02:35:59,NA,incomplete,44,number,1,right,Blue_Circle_Grid_4.jpg,Purple_Circle_Stripes_3.jpg,Red_Triangle_Chess_4.jpg,right,1174.4050000561401,true,low,false
tITFTozc,3m67tqbqrk18ut4e0bwuqf8vno09av,37u1utwh9zz22p5fowh4atymhjt8rz,tITFTozc,2020-0188,2020-11-21,02:15:23,02:35:59,NA,incomplete,45,number,1,left,Blue_Circle_Stripes_4.jpg,Purple_Star_Chess_4.jpg,Red_Circle_Grid_2.jpg,left,1145.7500000251457,true,low,false
tITFTozc,3m67tqbqrk18ut4e0bwuqf8vno09av,37u1utwh9zz22p5fowh4atymhjt8rz,tITFTozc,2020-0188,2020-11-21,02:15:23,02:35:59,NA,incomplete,46,number,1,right,Red_Plus_Grid_2.jpg,Blue_Plus_Chess_1.jpg,Green_Triangle_Stripes_2.jpg,right,1053.3750000176951,true,low,false
tITFTozc,3m67tqbqrk18ut4e0bwuqf8vno09av,37u1utwh9zz22p5fowh4atymhjt8rz,tITFTozc,2020-0188,2020-11-21,02:15:23,02:35:59,NA,incomplete,47,number,1,left,Green_Star_Stripes_4.jpg,Purple_Triangle_Dots_4.jpg,Red_Star_Chess_1.jpg,left,1009.8650000290945,true,low,false
tITFTozc,3m67tqbqrk18ut4e0bwuqf8vno09av,37u1utwh9zz22p5fowh4atymhjt8rz,tITFTozc,2020-0188,2020-11-21,02:15:23,02:35:59,NA,incomplete,48,number,1,left,Green_Plus_Grid_2.jpg,Blue_Star_Dots_2.jpg,Red_Plus_Stripes_4.jpg,left,1192.2799999592826,true,low,false
tITFTozc,3m67tqbqrk18ut4e0bwuqf8vno09av,37u1utwh9zz22p5fowh4atymhjt8rz,tITFTozc,2020-0188,2020-11-21,02:15:23,02:35:59,NA,incomplete,49,number,0,left,Blue_Triangle_Chess_4.jpg,Green_Star_Grid_4.jpg,Red_Triangle_Dots_2.jpg,left,1051.5149999409914,true,low,false
tITFTozc,3m67tqbqrk18ut4e0bwuqf8vno09av,37u1utwh9zz22p5fowh4atymhjt8rz,tITFTozc,2020-0188,2020-11-21,02:15:23,02:35:59,NA,incomplete,50,number,1,left,Green_Plus_Stripes_3.jpg,Blue_Triangle_Chess_3.jpg,Purple_Plus_Grid_4.jpg,left,1070.6950000021607,true,low,false
tITFTozc,3m67tqbqrk18ut4e0bwuqf8vno09av,37u1utwh9zz22p5fowh4atymhjt8rz,tITFTozc,2020-0188,2020-11-21,02:15:23,02:35:59,NA,incomplete,51,number,1,left,Blue_Circle_Dots_4.jpg,Red_Triangle_Chess_4.jpg,Purple_Circle_Grid_1.jpg,left,915.4799999669194,true,low,false
tITFTozc,3m67tqbqrk18ut4e0bwuqf8vno09av,37u1utwh9zz22p5fowh4atymhjt8rz,tITFTozc,2020-0188,2020-11-21,02:15:23,02:35:59,NA,incomplete,52,number,1,right,Green_Star_Dots_3.jpg,Purple_Star_Grid_1.jpg,Red_Triangle_Chess_3.jpg,right,958.4150000009686,true,low,false
tITFTozc,3m67tqbqrk18ut4e0bwuqf8vno09av,37u1utwh9zz22p5fowh4atymhjt8rz,tITFTozc,2020-0188,2020-11-21,02:15:23,02:35:59,NA,incomplete,53,number,1,left,Green_Circle_Stripes_4.jpg,Red_Triangle_Dots_4.jpg,Blue_Circle_Grid_2.jpg,left,1075.730000040494,true,low,false
tITFTozc,3m67tqbqrk18ut4e0bwuqf8vno09av,37u1utwh9zz22p5fowh4atymhjt8rz,tITFTozc,2020-0188,2020-11-21,02:15:23,02:35:59,NA,incomplete,54,number,1,right,Green_Triangle_Stripes_4.jpg,Blue_Triangle_Grid_2.jpg,Red_Plus_Dots_4.jpg,right,931.1049999669194,true,low,false
tITFTozc,3m67tqbqrk18ut4e0bwuqf8vno09av,37u1utwh9zz22p5fowh4atymhjt8rz,tITFTozc,2020-0188,2020-11-21,02:15:23,02:35:59,NA,incomplete,55,number,0,left,Purple_Circle_Stripes_4.jpg,Green_Triangle_Chess_4.jpg,Blue_Circle_Dots_3.jpg,left,904.6800000360236,true,low,false
tITFTozc,3m67tqbqrk18ut4e0bwuqf8vno09av,37u1utwh9zz22p5fowh4atymhjt8rz,tITFTozc,2020-0188,2020-11-21,02:15:23,02:35:59,NA,incomplete,56,number,1,left,Green_Circle_Stripes_4.jpg,Red_Star_Dots_4.jpg,Blue_Circle_Chess_3.jpg,right,1334.5500000286847,false,low,false
tITFTozc,3m67tqbqrk18ut4e0bwuqf8vno09av,37u1utwh9zz22p5fowh4atymhjt8rz,tITFTozc,2020-0188,2020-11-21,02:15:23,02:35:59,NA,incomplete,57,number,1,left,Blue_Triangle_Chess_3.jpg,Green_Plus_Stripes_3.jpg,Red_Triangle_Grid_4.jpg,left,1037.2199999401346,true,low,false
tITFTozc,3m67tqbqrk18ut4e0bwuqf8vno09av,37u1utwh9zz22p5fowh4atymhjt8rz,tITFTozc,2020-0188,2020-11-21,02:15:23,02:35:59,NA,incomplete,58,number,1,left,Blue_Star_Grid_3.jpg,Green_Triangle_Chess_3.jpg,Red_Star_Dots_1.jpg,left,882.480000029318,true,low,false
tITFTozc,3m67tqbqrk18ut4e0bwuqf8vno09av,37u1utwh9zz22p5fowh4atymhjt8rz,tITFTozc,2020-0188,2020-11-21,02:15:23,02:35:59,NA,incomplete,59,number,1,right,Red_Star_Dots_3.jpg,Purple_Star_Chess_4.jpg,Blue_Triangle_Grid_3.jpg,right,948.0200000107288,true,low,false
tITFTozc,3m67tqbqrk18ut4e0bwuqf8vno09av,37u1utwh9zz22p5fowh4atymhjt8rz,tITFTozc,2020-0188,2020-11-21,02:15:23,02:35:59,NA,incomplete,60,shape,1,left,Purple_Triangle_Stripes_3.jpg,Green_Triangle_Chess_1.jpg,Blue_Circle_Grid_3.jpg,right,835.3600000264123,false,low,false
tITFTozc,3m67tqbqrk18ut4e0bwuqf8vno09av,37u1utwh9zz22p5fowh4atymhjt8rz,tITFTozc,2020-0188,2020-11-21,02:15:23,02:35:59,NA,incomplete,61,shape,0,right,Purple_Triangle_Grid_2.jpg,Green_Plus_Chess_2.jpg,Red_Triangle_Stripes_3.jpg,left,1243.434999953024,false,low,false
tITFTozc,3m67tqbqrk18ut4e0bwuqf8vno09av,37u1utwh9zz22p5fowh4atymhjt8rz,tITFTozc,2020-0188,2020-11-21,02:15:23,02:35:59,NA,incomplete,62,shape,0,left,Red_Circle_Dots_1.jpg,Blue_Circle_Grid_3.jpg,Purple_Triangle_Stripes_1.jpg,right,992.2899999655783,false,low,false
tITFTozc,3m67tqbqrk18ut4e0bwuqf8vno09av,37u1utwh9zz22p5fowh4atymhjt8rz,tITFTozc,2020-0188,2020-11-21,02:15:23,02:35:59,NA,incomplete,63,shape,1,right,Red_Star_Grid_4.jpg,Purple_Plus_Stripes_4.jpg,Green_Star_Dots_2.jpg,left,1026.4550000429153,false,low,false
tITFTozc,3m67tqbqrk18ut4e0bwuqf8vno09av,37u1utwh9zz22p5fowh4atymhjt8rz,tITFTozc,2020-0188,2020-11-21,02:15:23,02:35:59,NA,incomplete,64,shape,1,left,Red_Circle_Stripes_3.jpg,Green_Circle_Dots_1.jpg,Purple_Star_Chess_3.jpg,right,930.3050000453368,false,low,false
tITFTozc,3m67tqbqrk18ut4e0bwuqf8vno09av,37u1utwh9zz22p5fowh4atymhjt8rz,tITFTozc,2020-0188,2020-11-21,02:15:23,02:35:59,NA,incomplete,65,shape,1,left,Blue_Triangle_Stripes_1.jpg,Purple_Triangle_Grid_4.jpg,Green_Star_Dots_1.jpg,right,1047.0649999333546,false,low,false
tITFTozc,3m67tqbqrk18ut4e0bwuqf8vno09av,37u1utwh9zz22p5fowh4atymhjt8rz,tITFTozc,2020-0188,2020-11-21,02:15:23,02:35:59,NA,incomplete,66,shape,0,right,Blue_Star_Grid_1.jpg,Purple_Plus_Chess_1.jpg,Red_Star_Dots_2.jpg,right,1266.3399999728426,true,low,false
tITFTozc,3m67tqbqrk18ut4e0bwuqf8vno09av,37u1utwh9zz22p5fowh4atymhjt8rz,tITFTozc,2020-0188,2020-11-21,02:15:23,02:35:59,NA,incomplete,67,shape,0,right,Purple_Triangle_Chess_2.jpg,Red_Star_Dots_2.jpg,Green_Triangle_Stripes_4.jpg,left,922.4399999948218,false,low,false
tITFTozc,3m67tqbqrk18ut4e0bwuqf8vno09av,37u1utwh9zz22p5fowh4atymhjt8rz,tITFTozc,2020-0188,2020-11-21,02:15:23,02:35:59,NA,incomplete,68,shape,1,left,Green_Star_Chess_4.jpg,Red_Star_Stripes_1.jpg,Purple_Triangle_Dots_4.jpg,right,1009.154999977909,false,low,false
tITFTozc,3m67tqbqrk18ut4e0bwuqf8vno09av,37u1utwh9zz22p5fowh4atymhjt8rz,tITFTozc,2020-0188,2020-11-21,02:15:23,02:35:59,NA,incomplete,69,shape,1,right,Blue_Triangle_Stripes_3.jpg,Purple_Circle_Grid_3.jpg,Red_Triangle_Dots_1.jpg,right,1079.2649999493733,true,low,false
tITFTozc,3m67tqbqrk18ut4e0bwuqf8vno09av,37u1utwh9zz22p5fowh4atymhjt8rz,tITFTozc,2020-0188,2020-11-21,02:15:23,02:35:59,NA,incomplete,70,shape,1,left,Blue_Circle_Stripes_4.jpg,Green_Circle_Chess_1.jpg,Purple_Star_Grid_4.jpg,left,1092.5800000550225,true,low,false
tITFTozc,3m67tqbqrk18ut4e0bwuqf8vno09av,37u1utwh9zz22p5fowh4atymhjt8rz,tITFTozc,2020-0188,2020-11-21,02:15:23,02:35:59,NA,incomplete,71,shape,1,right,Green_Plus_Dots_3.jpg,Blue_Triangle_Grid_3.jpg,Red_Plus_Chess_4.jpg,right,1225.6150000030175,true,low,false
tITFTozc,3m67tqbqrk18ut4e0bwuqf8vno09av,37u1utwh9zz22p5fowh4atymhjt8rz,tITFTozc,2020-0188,2020-11-21,02:15:23,02:35:59,NA,incomplete,72,shape,1,right,Red_Plus_Grid_1.jpg,Blue_Circle_Dots_1.jpg,Purple_Plus_Stripes_4.jpg,right,1087.459999951534,true,low,false
tITFTozc,3m67tqbqrk18ut4e0bwuqf8vno09av,37u1utwh9zz22p5fowh4atymhjt8rz,tITFTozc,2020-0188,2020-11-21,02:15:23,02:35:59,NA,incomplete,73,shape,1,left,Green_Star_Dots_4.jpg,Red_Star_Chess_2.jpg,Purple_Triangle_Stripes_4.jpg,left,1143.6299999477342,true,low,false
tITFTozc,3m67tqbqrk18ut4e0bwuqf8vno09av,37u1utwh9zz22p5fowh4atymhjt8rz,tITFTozc,2020-0188,2020-11-21,02:15:23,02:35:59,NA,incomplete,74,shape,1,left,Blue_Star_Chess_4.jpg,Red_Star_Dots_3.jpg,Green_Triangle_Stripes_4.jpg,left,1135.66000002902,true,low,false
tITFTozc,3m67tqbqrk18ut4e0bwuqf8vno09av,37u1utwh9zz22p5fowh4atymhjt8rz,tITFTozc,2020-0188,2020-11-21,02:15:23,02:35:59,NA,incomplete,75,shape,1,left,Green_Star_Chess_4.jpg,Purple_Star_Stripes_1.jpg,Red_Triangle_Dots_4.jpg,left,1110.744999954477,true,low,false
tITFTozc,3m67tqbqrk18ut4e0bwuqf8vno09av,37u1utwh9zz22p5fowh4atymhjt8rz,tITFTozc,2020-0188,2020-11-21,02:15:23,02:35:59,NA,incomplete,76,shape,1,left,Purple_Triangle_Dots_4.jpg,Green_Triangle_Grid_1.jpg,Blue_Plus_Stripes_4.jpg,left,1019.0050000092015,true,low,false
tITFTozc,3m67tqbqrk18ut4e0bwuqf8vno09av,37u1utwh9zz22p5fowh4atymhjt8rz,tITFTozc,2020-0188,2020-11-21,02:15:23,02:35:59,NA,incomplete,77,shape,1,right,Purple_Triangle_Dots_1.jpg,Green_Star_Grid_1.jpg,Red_Triangle_Stripes_2.jpg,right,1017.0950000174344,true,low,false
tITFTozc,3m67tqbqrk18ut4e0bwuqf8vno09av,37u1utwh9zz22p5fowh4atymhjt8rz,tITFTozc,2020-0188,2020-11-21,02:15:23,02:35:59,NA,incomplete,78,shape,0,right,Red_Triangle_Chess_1.jpg,Green_Star_Dots_1.jpg,Purple_Triangle_Grid_2.jpg,right,923.4149999683723,true,low,false
tITFTozc,3m67tqbqrk18ut4e0bwuqf8vno09av,37u1utwh9zz22p5fowh4atymhjt8rz,tITFTozc,2020-0188,2020-11-21,02:15:23,02:35:59,NA,incomplete,79,shape,1,right,Blue_Plus_Grid_3.jpg,Purple_Triangle_Dots_3.jpg,Red_Plus_Stripes_2.jpg,right,1299.834999954328,true,low,false
tITFTozc,3m67tqbqrk18ut4e0bwuqf8vno09av,37u1utwh9zz22p5fowh4atymhjt8rz,tITFTozc,2020-0188,2020-11-21,02:15:23,02:35:59,NA,incomplete,80,shape,1,left,Blue_Triangle_Dots_1.jpg,Green_Triangle_Stripes_3.jpg,Purple_Plus_Grid_1.jpg,left,1064.8700000019744,true,low,false
tITFTozc,3m67tqbqrk18ut4e0bwuqf8vno09av,37u1utwh9zz22p5fowh4atymhjt8rz,tITFTozc,2020-0188,2020-11-21,02:15:23,02:35:59,NA,incomplete,81,shape,1,right,Green_Plus_Grid_1.jpg,Red_Star_Stripes_1.jpg,Blue_Plus_Dots_2.jpg,right,1088.0849999375641,true,low,false
tITFTozc,3m67tqbqrk18ut4e0bwuqf8vno09av,37u1utwh9zz22p5fowh4atymhjt8rz,tITFTozc,2020-0188,2020-11-21,02:15:23,02:35:59,NA,incomplete,82,shape,1,left,Blue_Plus_Chess_4.jpg,Green_Plus_Dots_3.jpg,Red_Triangle_Stripes_4.jpg,left,994.9049999704584,true,low,false
tITFTozc,3m67tqbqrk18ut4e0bwuqf8vno09av,37u1utwh9zz22p5fowh4atymhjt8rz,tITFTozc,2020-0188,2020-11-21,02:15:23,02:35:59,NA,incomplete,83,shape,1,right,Green_Plus_Chess_4.jpg,Blue_Triangle_Dots_4.jpg,Red_Plus_Stripes_1.jpg,right,979.8299999674782,true,low,false
tITFTozc,3m67tqbqrk18ut4e0bwuqf8vno09av,37u1utwh9zz22p5fowh4atymhjt8rz,tITFTozc,2020-0188,2020-11-21,02:15:23,02:35:59,NA,incomplete,84,shape,1,left,Blue_Star_Chess_3.jpg,Red_Star_Grid_4.jpg,Green_Triangle_Stripes_3.jpg,left,1051.5049999812618,true,low,false
tITFTozc,3m67tqbqrk18ut4e0bwuqf8vno09av,37u1utwh9zz22p5fowh4atymhjt8rz,tITFTozc,2020-0188,2020-11-21,02:15:23,02:35:59,NA,incomplete,85,shape,1,right,Purple_Triangle_Grid_2.jpg,Red_Circle_Chess_2.jpg,Green_Triangle_Stripes_3.jpg,right,1038.6799999978393,true,low,false
tITFTozc,3m67tqbqrk18ut4e0bwuqf8vno09av,37u1utwh9zz22p5fowh4atymhjt8rz,tITFTozc,2020-0188,2020-11-21,02:15:23,02:35:59,NA,incomplete,86,shape,0,left,Green_Circle_Stripes_4.jpg,Red_Circle_Chess_1.jpg,Blue_Plus_Dots_4.jpg,left,1620.4750000033528,true,low,false
tITFTozc,3m67tqbqrk18ut4e0bwuqf8vno09av,37u1utwh9zz22p5fowh4atymhjt8rz,tITFTozc,2020-0188,2020-11-21,02:15:23,02:35:59,NA,incomplete,87,shape,0,left,Green_Circle_Grid_3.jpg,Red_Circle_Stripes_4.jpg,Purple_Triangle_Chess_3.jpg,right,1065.8800000092015,false,low,false
tITFTozc,3m67tqbqrk18ut4e0bwuqf8vno09av,37u1utwh9zz22p5fowh4atymhjt8rz,tITFTozc,2020-0188,2020-11-21,02:15:23,02:35:59,NA,incomplete,88,shape,1,right,Blue_Star_Dots_4.jpg,Green_Circle_Chess_4.jpg,Red_Star_Stripes_1.jpg,left,1295.5549999605864,false,low,false
tITFTozc,3m67tqbqrk18ut4e0bwuqf8vno09av,37u1utwh9zz22p5fowh4atymhjt8rz,tITFTozc,2020-0188,2020-11-21,02:15:23,02:35:59,NA,incomplete,89,shape,1,right,Green_Plus_Dots_2.jpg,Purple_Star_Stripes_2.jpg,Blue_Plus_Grid_1.jpg,right,1620.5750000663102,true,low,false
tITFTozc,3m67tqbqrk18ut4e0bwuqf8vno09av,37u1utwh9zz22p5fowh4atymhjt8rz,tITFTozc,2020-0188,2020-11-21,02:15:23,02:35:59,NA,incomplete,90,number,1,left,Blue_Star_Stripes_1.jpg,Green_Circle_Dots_1.jpg,Red_Star_Grid_2.jpg,right,1058.4599999710917,false,low,false
tITFTozc,3m67tqbqrk18ut4e0bwuqf8vno09av,37u1utwh9zz22p5fowh4atymhjt8rz,tITFTozc,2020-0188,2020-11-21,02:15:23,02:35:59,NA,incomplete,91,number,0,left,Blue_Triangle_Grid_2.jpg,Purple_Circle_Chess_2.jpg,Green_Triangle_Dots_3.jpg,left,1440.3349999338388,true,low,false
tITFTozc,3m67tqbqrk18ut4e0bwuqf8vno09av,37u1utwh9zz22p5fowh4atymhjt8rz,tITFTozc,2020-0188,2020-11-21,02:15:23,02:35:59,NA,incomplete,92,number,0,right,Red_Star_Grid_2.jpg,Green_Star_Chess_1.jpg,Blue_Plus_Dots_2.jpg,none,0,false,low,false
tITFTozc,3m67tqbqrk18ut4e0bwuqf8vno09av,37u1utwh9zz22p5fowh4atymhjt8rz,tITFTozc,2020-0188,2020-11-21,02:15:23,02:35:59,NA,incomplete,93,number,1,right,Red_Triangle_Stripes_2.jpg,Blue_Triangle_Grid_4.jpg,Green_Circle_Chess_2.jpg,right,1588.8249999843538,true,low,false
tITFTozc,3m67tqbqrk18ut4e0bwuqf8vno09av,37u1utwh9zz22p5fowh4atymhjt8rz,tITFTozc,2020-0188,2020-11-21,02:15:23,02:35:59,NA,incomplete,94,number,1,left,Red_Triangle_Grid_4.jpg,Purple_Plus_Chess_4.jpg,Blue_Triangle_Stripes_1.jpg,left,1083.9550000382587,true,low,false
tITFTozc,3m67tqbqrk18ut4e0bwuqf8vno09av,37u1utwh9zz22p5fowh4atymhjt8rz,tITFTozc,2020-0188,2020-11-21,02:15:23,02:35:59,NA,incomplete,95,number,0,left,Green_Plus_Stripes_1.jpg,Blue_Circle_Dots_1.jpg,Purple_Plus_Grid_3.jpg,right,1591.7400000616908,false,low,false
tITFTozc,3m67tqbqrk18ut4e0bwuqf8vno09av,37u1utwh9zz22p5fowh4atymhjt8rz,tITFTozc,2020-0188,2020-11-21,02:15:23,02:35:59,NA,incomplete,96,number,1,right,Purple_Star_Stripes_1.jpg,Red_Star_Dots_4.jpg,Blue_Circle_Chess_1.jpg,left,1012.6349999336526,false,low,false
tITFTozc,3m67tqbqrk18ut4e0bwuqf8vno09av,37u1utwh9zz22p5fowh4atymhjt8rz,tITFTozc,2020-0188,2020-11-21,02:15:23,02:35:59,NA,incomplete,97,number,1,left,Purple_Triangle_Grid_4.jpg,Red_Star_Chess_4.jpg,Blue_Triangle_Dots_3.jpg,left,1353.9800000144169,true,low,false
tITFTozc,3m67tqbqrk18ut4e0bwuqf8vno09av,37u1utwh9zz22p5fowh4atymhjt8rz,tITFTozc,2020-0188,2020-11-21,02:15:23,02:35:59,NA,incomplete,98,number,1,left,Green_Star_Chess_4.jpg,Red_Triangle_Stripes_4.jpg,Purple_Star_Dots_3.jpg,left,940.9750000340864,true,low,false
tITFTozc,3m67tqbqrk18ut4e0bwuqf8vno09av,37u1utwh9zz22p5fowh4atymhjt8rz,tITFTozc,2020-0188,2020-11-21,02:15:23,02:35:59,NA,incomplete,99,number,1,right,Red_Plus_Dots_2.jpg,Green_Plus_Chess_4.jpg,Blue_Triangle_Grid_2.jpg,right,1295.15999997966,true,low,false
tITFTozc,3m67tqbqrk18ut4e0bwuqf8vno09av,37u1utwh9zz22p5fowh4atymhjt8rz,tITFTozc,2020-0188,2020-11-21,02:15:23,02:35:59,NA,incomplete,100,number,1,left,Purple_Star_Dots_2.jpg,Red_Plus_Grid_2.jpg,Green_Star_Chess_3.jpg,left,968.4849999612197,true,low,false
tITFTozc,3m67tqbqrk18ut4e0bwuqf8vno09av,37u1utwh9zz22p5fowh4atymhjt8rz,tITFTozc,2020-0188,2020-11-21,02:15:23,02:35:59,NA,incomplete,101,number,1,left,Red_Triangle_Dots_4.jpg,Purple_Plus_Chess_4.jpg,Blue_Triangle_Stripes_3.jpg,left,1063.4050000226125,true,low,false
tITFTozc,3m67tqbqrk18ut4e0bwuqf8vno09av,37u1utwh9zz22p5fowh4atymhjt8rz,tITFTozc,2020-0188,2020-11-21,02:15:23,02:35:59,NA,incomplete,102,number,0,right,Green_Plus_Grid_2.jpg,Blue_Plus_Dots_3.jpg,Purple_Triangle_Chess_2.jpg,right,1247.8899999987334,true,low,false
tITFTozc,3m67tqbqrk18ut4e0bwuqf8vno09av,37u1utwh9zz22p5fowh4atymhjt8rz,tITFTozc,2020-0188,2020-11-21,02:15:23,02:35:59,NA,incomplete,103,number,0,left,Blue_Plus_Chess_4.jpg,Green_Circle_Stripes_4.jpg,Purple_Plus_Grid_1.jpg,right,924.6000000275671,false,low,false
tITFTozc,3m67tqbqrk18ut4e0bwuqf8vno09av,37u1utwh9zz22p5fowh4atymhjt8rz,tITFTozc,2020-0188,2020-11-21,02:15:23,02:35:59,NA,incomplete,104,number,1,left,Red_Triangle_Grid_1.jpg,Green_Plus_Dots_1.jpg,Purple_Triangle_Chess_3.jpg,right,1065.5049999477342,false,low,false
tITFTozc,3m67tqbqrk18ut4e0bwuqf8vno09av,37u1utwh9zz22p5fowh4atymhjt8rz,tITFTozc,2020-0188,2020-11-21,02:15:23,02:35:59,NA,incomplete,105,number,1,right,Green_Star_Dots_2.jpg,Purple_Star_Chess_1.jpg,Red_Plus_Grid_2.jpg,right,1986.9250000920147,true,low,false
tITFTozc,3m67tqbqrk18ut4e0bwuqf8vno09av,37u1utwh9zz22p5fowh4atymhjt8rz,tITFTozc,2020-0188,2020-11-21,02:15:23,02:35:59,NA,incomplete,106,number,1,right,Red_Triangle_Stripes_2.jpg,Purple_Triangle_Grid_1.jpg,Blue_Star_Chess_2.jpg,right,881.4849999034777,true,low,false
tITFTozc,3m67tqbqrk18ut4e0bwuqf8vno09av,37u1utwh9zz22p5fowh4atymhjt8rz,tITFTozc,2020-0188,2020-11-21,02:15:23,02:35:59,NA,incomplete,107,number,1,left,Red_Circle_Dots_2.jpg,Purple_Star_Stripes_2.jpg,Green_Circle_Chess_3.jpg,left,1099.9750000191852,true,low,false
tITFTozc,3m67tqbqrk18ut4e0bwuqf8vno09av,37u1utwh9zz22p5fowh4atymhjt8rz,tITFTozc,2020-0188,2020-11-21,02:15:23,02:35:59,NA,incomplete,108,number,1,left,Blue_Plus_Dots_3.jpg,Red_Circle_Chess_3.jpg,Green_Plus_Stripes_2.jpg,left,1218.7599999597296,true,low,false
tITFTozc,3m67tqbqrk18ut4e0bwuqf8vno09av,37u1utwh9zz22p5fowh4atymhjt8rz,tITFTozc,2020-0188,2020-11-21,02:15:23,02:35:59,NA,incomplete,109,number,1,right,Red_Plus_Stripes_2.jpg,Blue_Plus_Dots_4.jpg,Purple_Star_Grid_2.jpg,right,961.4249999867752,true,low,false
tITFTozc,3m67tqbqrk18ut4e0bwuqf8vno09av,37u1utwh9zz22p5fowh4atymhjt8rz,tITFTozc,2020-0188,2020-11-21,02:15:23,02:35:59,NA,incomplete,110,number,1,left,Purple_Circle_Stripes_4.jpg,Red_Triangle_Grid_4.jpg,Green_Circle_Dots_1.jpg,left,810.6949999928474,true,low,false
tITFTozc,3m67tqbqrk18ut4e0bwuqf8vno09av,37u1utwh9zz22p5fowh4atymhjt8rz,tITFTozc,2020-0188,2020-11-21,02:15:23,02:35:59,NA,incomplete,111,number,1,left,Red_Star_Grid_3.jpg,Purple_Plus_Stripes_3.jpg,Blue_Star_Chess_1.jpg,left,921.764999977313,true,low,false
tITFTozc,3m67tqbqrk18ut4e0bwuqf8vno09av,37u1utwh9zz22p5fowh4atymhjt8rz,tITFTozc,2020-0188,2020-11-21,02:15:23,02:35:59,NA,incomplete,112,number,1,left,Blue_Star_Dots_4.jpg,Green_Triangle_Grid_4.jpg,Purple_Star_Stripes_1.jpg,left,908.7799999397248,true,low,false
tITFTozc,3m67tqbqrk18ut4e0bwuqf8vno09av,37u1utwh9zz22p5fowh4atymhjt8rz,tITFTozc,2020-0188,2020-11-21,02:15:23,02:35:59,NA,incomplete,113,number,1,left,Red_Plus_Grid_4.jpg,Purple_Triangle_Dots_4.jpg,Blue_Plus_Stripes_1.jpg,left,793.294999981299,true,low,false
tITFTozc,3m67tqbqrk18ut4e0bwuqf8vno09av,37u1utwh9zz22p5fowh4atymhjt8rz,tITFTozc,2020-0188,2020-11-21,02:15:23,02:35:59,NA,incomplete,114,number,0,left,Blue_Star_Stripes_3.jpg,Purple_Circle_Grid_3.jpg,Red_Star_Dots_4.jpg,left,960.7649999670684,true,low,false
tITFTozc,3m67tqbqrk18ut4e0bwuqf8vno09av,37u1utwh9zz22p5fowh4atymhjt8rz,tITFTozc,2020-0188,2020-11-21,02:15:23,02:35:59,NA,incomplete,115,number,1,left,Purple_Triangle_Dots_1.jpg,Red_Circle_Chess_1.jpg,Green_Triangle_Grid_4.jpg,right,969.4549998966977,false,low,false
tITFTozc,3m67tqbqrk18ut4e0bwuqf8vno09av,37u1utwh9zz22p5fowh4atymhjt8rz,tITFTozc,2020-0188,2020-11-21,02:15:23,02:35:59,NA,incomplete,116,number,1,right,Purple_Triangle_Stripes_4.jpg,Green_Triangle_Chess_3.jpg,Red_Circle_Grid_4.jpg,right,1067.0800000661984,true,low,false
tITFTozc,3m67tqbqrk18ut4e0bwuqf8vno09av,37u1utwh9zz22p5fowh4atymhjt8rz,tITFTozc,2020-0188,2020-11-21,02:15:23,02:35:59,NA,incomplete,117,number,1,left,Purple_Star_Dots_1.jpg,Green_Circle_Stripes_1.jpg,Blue_Star_Chess_3.jpg,left,958.9100000448525,true,low,false
tITFTozc,3m67tqbqrk18ut4e0bwuqf8vno09av,37u1utwh9zz22p5fowh4atymhjt8rz,tITFTozc,2020-0188,2020-11-21,02:15:23,02:35:59,NA,incomplete,118,number,0,left,Blue_Circle_Chess_2.jpg,Green_Triangle_Grid_2.jpg,Purple_Circle_Stripes_4.jpg,left,999.5099999941885,true,low,false
tITFTozc,3m67tqbqrk18ut4e0bwuqf8vno09av,37u1utwh9zz22p5fowh4atymhjt8rz,tITFTozc,2020-0188,2020-11-21,02:15:23,02:35:59,NA,incomplete,119,number,1,left,Red_Triangle_Grid_1.jpg,Green_Star_Stripes_1.jpg,Purple_Triangle_Dots_2.jpg,right,1560.6350000016391,false,low,false
tITFTozc,3m67tqbqrk18ut4e0bwuqf8vno09av,37u1utwh9zz22p5fowh4atymhjt8rz,tITFTozc,2020-0188,2020-11-21,02:15:23,02:35:59,NA,incomplete,120,shape,1,right,Green_Circle_Grid_3.jpg,Blue_Star_Stripes_3.jpg,Red_Circle_Dots_2.jpg,left,951.7899999627843,false,low,false
tITFTozc,3m67tqbqrk18ut4e0bwuqf8vno09av,37u1utwh9zz22p5fowh4atymhjt8rz,tITFTozc,2020-0188,2020-11-21,02:15:23,02:35:59,NA,incomplete,121,shape,0,left,Blue_Triangle_Grid_2.jpg,Purple_Triangle_Chess_3.jpg,Green_Star_Stripes_2.jpg,right,1014.6449999883771,false,low,false
tITFTozc,3m67tqbqrk18ut4e0bwuqf8vno09av,37u1utwh9zz22p5fowh4atymhjt8rz,tITFTozc,2020-0188,2020-11-21,02:15:23,02:35:59,NA,incomplete,122,shape,1,left,Purple_Circle_Grid_3.jpg,Blue_Circle_Stripes_4.jpg,Red_Plus_Dots_3.jpg,right,1187.294999952428,false,low,false
tITFTozc,3m67tqbqrk18ut4e0bwuqf8vno09av,37u1utwh9zz22p5fowh4atymhjt8rz,tITFTozc,2020-0188,2020-11-21,02:15:23,02:35:59,NA,incomplete,123,shape,1,left,Red_Plus_Dots_1.jpg,Purple_Plus_Grid_3.jpg,Green_Triangle_Chess_1.jpg,right,1818.5500000836328,false,low,false
tITFTozc,3m67tqbqrk18ut4e0bwuqf8vno09av,37u1utwh9zz22p5fowh4atymhjt8rz,tITFTozc,2020-0188,2020-11-21,02:15:23,02:35:59,NA,incomplete,124,shape,1,right,Purple_Circle_Stripes_2.jpg,Blue_Star_Dots_2.jpg,Red_Circle_Chess_3.jpg,right,1505.5099999299273,true,low,false
tITFTozc,3m67tqbqrk18ut4e0bwuqf8vno09av,37u1utwh9zz22p5fowh4atymhjt8rz,tITFTozc,2020-0188,2020-11-21,02:15:23,02:35:59,NA,incomplete,125,shape,1,right,Blue_Star_Dots_1.jpg,Green_Plus_Grid_1.jpg,Red_Star_Stripes_3.jpg,right,1665.500000002794,true,low,false
tITFTozc,3m67tqbqrk18ut4e0bwuqf8vno09av,37u1utwh9zz22p5fowh4atymhjt8rz,tITFTozc,2020-0188,2020-11-21,02:15:23,02:35:59,NA,incomplete,126,shape,1,left,Purple_Star_Dots_3.jpg,Green_Star_Chess_4.jpg,Blue_Plus_Stripes_3.jpg,none,0,false,low,false
tITFTozc,3m67tqbqrk18ut4e0bwuqf8vno09av,37u1utwh9zz22p5fowh4atymhjt8rz,tITFTozc,2020-0188,2020-11-21,02:15:23,02:35:59,NA,incomplete,127,shape,1,left,Purple_Star_Dots_4.jpg,Green_Star_Grid_2.jpg,Blue_Circle_Chess_4.jpg,right,1345.1750000240281,false,low,false
tITFTozc,3m67tqbqrk18ut4e0bwuqf8vno09av,37u1utwh9zz22p5fowh4atymhjt8rz,tITFTozc,2020-0188,2020-11-21,02:15:23,02:35:59,NA,incomplete,128,shape,0,left,Purple_Plus_Grid_4.jpg,Red_Plus_Dots_2.jpg,Green_Star_Stripes_4.jpg,left,1941.0899999784306,true,low,false
tITFTozc,3m67tqbqrk18ut4e0bwuqf8vno09av,37u1utwh9zz22p5fowh4atymhjt8rz,tITFTozc,2020-0188,2020-11-21,02:15:23,02:35:59,NA,incomplete,129,shape,1,right,Red_Plus_Stripes_3.jpg,Blue_Triangle_Chess_3.jpg,Purple_Plus_Grid_4.jpg,left,1085.910000023432,false,low,false
tITFTozc,3m67tqbqrk18ut4e0bwuqf8vno09av,37u1utwh9zz22p5fowh4atymhjt8rz,tITFTozc,2020-0188,2020-11-21,02:15:23,02:35:59,NA,incomplete,130,shape,1,left,Green_Triangle_Chess_1.jpg,Blue_Triangle_Stripes_4.jpg,Purple_Circle_Grid_1.jpg,right,1124.8249999480322,false,low,false
tITFTozc,3m67tqbqrk18ut4e0bwuqf8vno09av,37u1utwh9zz22p5fowh4atymhjt8rz,tITFTozc,2020-0188,2020-11-21,02:15:23,02:35:59,NA,incomplete,131,shape,0,left,Purple_Circle_Grid_4.jpg,Red_Circle_Dots_2.jpg,Blue_Star_Chess_4.jpg,left,1159.1699999989942,true,low,false
tITFTozc,3m67tqbqrk18ut4e0bwuqf8vno09av,37u1utwh9zz22p5fowh4atymhjt8rz,tITFTozc,2020-0188,2020-11-21,02:15:23,02:35:59,NA,incomplete,132,shape,1,left,Green_Plus_Dots_3.jpg,Blue_Plus_Grid_2.jpg,Purple_Circle_Stripes_3.jpg,right,1069.205000065267,false,low,false
tITFTozc,3m67tqbqrk18ut4e0bwuqf8vno09av,37u1utwh9zz22p5fowh4atymhjt8rz,tITFTozc,2020-0188,2020-11-21,02:15:23,02:35:59,NA,incomplete,133,shape,1,left,Purple_Star_Stripes_2.jpg,Blue_Star_Chess_3.jpg,Green_Circle_Dots_2.jpg,right,1031.1699999729171,false,low,false
tITFTozc,3m67tqbqrk18ut4e0bwuqf8vno09av,37u1utwh9zz22p5fowh4atymhjt8rz,tITFTozc,2020-0188,2020-11-21,02:15:23,02:35:59,NA,incomplete,134,shape,1,right,Purple_Triangle_Chess_4.jpg,Green_Star_Stripes_4.jpg,Red_Triangle_Grid_3.jpg,right,1013.745000003837,true,low,false
tITFTozc,3m67tqbqrk18ut4e0bwuqf8vno09av,37u1utwh9zz22p5fowh4atymhjt8rz,tITFTozc,2020-0188,2020-11-21,02:15:23,02:35:59,NA,incomplete,135,shape,1,right,Blue_Plus_Grid_1.jpg,Purple_Triangle_Chess_1.jpg,Green_Plus_Dots_3.jpg,right,1093.9050000160933,true,low,false
tITFTozc,3m67tqbqrk18ut4e0bwuqf8vno09av,37u1utwh9zz22p5fowh4atymhjt8rz,tITFTozc,2020-0188,2020-11-21,02:15:23,02:35:59,NA,incomplete,136,shape,0,left,Red_Plus_Stripes_1.jpg,Green_Plus_Dots_2.jpg,Purple_Circle_Chess_1.jpg,left,882.6050000498071,true,low,false
tITFTozc,3m67tqbqrk18ut4e0bwuqf8vno09av,37u1utwh9zz22p5fowh4atymhjt8rz,tITFTozc,2020-0188,2020-11-21,02:15:23,02:35:59,NA,incomplete,137,shape,1,right,Blue_Triangle_Dots_4.jpg,Purple_Circle_Chess_4.jpg,Green_Triangle_Stripes_3.jpg,right,1586.2650000490248,true,low,false
tITFTozc,3m67tqbqrk18ut4e0bwuqf8vno09av,37u1utwh9zz22p5fowh4atymhjt8rz,tITFTozc,2020-0188,2020-11-21,02:15:23,02:35:59,NA,incomplete,138,shape,1,left,Blue_Star_Stripes_2.jpg,Red_Star_Grid_4.jpg,Green_Triangle_Chess_2.jpg,left,1213.5150000685826,true,low,false
tITFTozc,3m67tqbqrk18ut4e0bwuqf8vno09av,37u1utwh9zz22p5fowh4atymhjt8rz,tITFTozc,2020-0188,2020-11-21,02:15:23,02:35:59,NA,incomplete,139,shape,1,left,Blue_Plus_Chess_2.jpg,Purple_Plus_Grid_1.jpg,Green_Circle_Dots_2.jpg,left,1242.0300000812858,true,low,false
tITFTozc,3m67tqbqrk18ut4e0bwuqf8vno09av,37u1utwh9zz22p5fowh4atymhjt8rz,tITFTozc,2020-0188,2020-11-21,02:15:23,02:35:59,NA,incomplete,140,number,0,left,Green_Star_Dots_2.jpg,Blue_Triangle_Chess_2.jpg,Purple_Star_Grid_1.jpg,right,1229.2550000129268,false,low,false
tITFTozc,3m67tqbqrk18ut4e0bwuqf8vno09av,37u1utwh9zz22p5fowh4atymhjt8rz,tITFTozc,2020-0188,2020-11-21,02:15:23,02:35:59,NA,incomplete,141,number,1,right,Blue_Star_Grid_2.jpg,Red_Star_Chess_3.jpg,Green_Triangle_Stripes_2.jpg,right,1064.1499999910593,true,low,false
tITFTozc,3m67tqbqrk18ut4e0bwuqf8vno09av,37u1utwh9zz22p5fowh4atymhjt8rz,tITFTozc,2020-0188,2020-11-21,02:15:23,02:35:59,NA,incomplete,142,number,1,left,Blue_Circle_Grid_3.jpg,Green_Triangle_Stripes_3.jpg,Red_Circle_Dots_2.jpg,right,1553.1699999701232,false,low,false
tITFTozc,3m67tqbqrk18ut4e0bwuqf8vno09av,37u1utwh9zz22p5fowh4atymhjt8rz,tITFTozc,2020-0188,2020-11-21,02:15:23,02:35:59,NA,incomplete,143,number,1,left,Green_Star_Grid_1.jpg,Purple_Circle_Chess_1.jpg,Blue_Star_Stripes_2.jpg,left,1200.194999924861,true,low,false
tITFTozc,3m67tqbqrk18ut4e0bwuqf8vno09av,37u1utwh9zz22p5fowh4atymhjt8rz,tITFTozc,2020-0188,2020-11-21,02:15:23,02:35:59,NA,incomplete,144,number,1,right,Red_Plus_Stripes_1.jpg,Green_Plus_Grid_3.jpg,Blue_Circle_Chess_1.jpg,right,945.7649999530986,true,low,false
tITFTozc,3m67tqbqrk18ut4e0bwuqf8vno09av,37u1utwh9zz22p5fowh4atymhjt8rz,tITFTozc,2020-0188,2020-11-21,02:15:23,02:35:59,NA,incomplete,145,number,1,left,Purple_Circle_Grid_1.jpg,Green_Plus_Dots_1.jpg,Blue_Circle_Chess_4.jpg,left,974.0100000053644,true,low,false
tITFTozc,3m67tqbqrk18ut4e0bwuqf8vno09av,37u1utwh9zz22p5fowh4atymhjt8rz,tITFTozc,2020-0188,2020-11-21,02:15:23,02:35:59,NA,incomplete,146,number,1,left,Red_Star_Stripes_3.jpg,Green_Circle_Dots_3.jpg,Purple_Star_Chess_2.jpg,right,1065.4700000304729,false,low,false
tITFTozc,3m67tqbqrk18ut4e0bwuqf8vno09av,37u1utwh9zz22p5fowh4atymhjt8rz,tITFTozc,2020-0188,2020-11-21,02:15:23,02:35:59,NA,incomplete,147,number,1,right,Red_Plus_Stripes_1.jpg,Blue_Plus_Dots_2.jpg,Purple_Star_Grid_1.jpg,right,874.7250000014901,true,low,false
tITFTozc,3m67tqbqrk18ut4e0bwuqf8vno09av,37u1utwh9zz22p5fowh4atymhjt8rz,tITFTozc,2020-0188,2020-11-21,02:15:23,02:35:59,NA,incomplete,148,number,1,right,Green_Star_Dots_3.jpg,Blue_Star_Chess_1.jpg,Red_Circle_Grid_3.jpg,right,953.8250000914559,true,low,false
tITFTozc,3m67tqbqrk18ut4e0bwuqf8vno09av,37u1utwh9zz22p5fowh4atymhjt8rz,tITFTozc,2020-0188,2020-11-21,02:15:23,02:35:59,NA,incomplete,149,number,1,right,Blue_Star_Dots_2.jpg,Red_Star_Grid_3.jpg,Purple_Plus_Stripes_2.jpg,right,1145.8700000075623,true,low,false
tITFTozc,3m67tqbqrk18ut4e0bwuqf8vno09av,37u1utwh9zz22p5fowh4atymhjt8rz,tITFTozc,2020-0188,2020-11-21,02:15:23,02:35:59,NA,incomplete,150,number,0,right,Green_Plus_Grid_4.jpg,Blue_Plus_Stripes_3.jpg,Purple_Star_Chess_4.jpg,right,1113.2699999725446,true,low,false
tITFTozc,3m67tqbqrk18ut4e0bwuqf8vno09av,37u1utwh9zz22p5fowh4atymhjt8rz,tITFTozc,2020-0188,2020-11-21,02:15:23,02:35:59,NA,incomplete,151,number,1,left,Red_Star_Dots_3.jpg,Purple_Plus_Grid_3.jpg,Blue_Star_Stripes_2.jpg,left,1305.4649999830872,true,low,false
tITFTozc,3m67tqbqrk18ut4e0bwuqf8vno09av,37u1utwh9zz22p5fowh4atymhjt8rz,tITFTozc,2020-0188,2020-11-21,02:15:23,02:35:59,NA,incomplete,152,number,1,left,Blue_Plus_Stripes_4.jpg,Green_Triangle_Dots_4.jpg,Purple_Plus_Chess_3.jpg,left,1110.7100000372157,true,low,false
tITFTozc,3m67tqbqrk18ut4e0bwuqf8vno09av,37u1utwh9zz22p5fowh4atymhjt8rz,tITFTozc,2020-0188,2020-11-21,02:15:23,02:35:59,NA,incomplete,153,number,0,left,Blue_Star_Grid_4.jpg,Purple_Circle_Dots_4.jpg,Green_Star_Stripes_3.jpg,left,1085.2250000461936,true,low,false
tITFTozc,3m67tqbqrk18ut4e0bwuqf8vno09av,37u1utwh9zz22p5fowh4atymhjt8rz,tITFTozc,2020-0188,2020-11-21,02:15:23,02:35:59,NA,incomplete,154,number,1,right,Red_Triangle_Chess_1.jpg,Purple_Triangle_Grid_2.jpg,Blue_Plus_Stripes_1.jpg,right,1079.2949999449775,true,low,false
tITFTozc,3m67tqbqrk18ut4e0bwuqf8vno09av,37u1utwh9zz22p5fowh4atymhjt8rz,tITFTozc,2020-0188,2020-11-21,02:15:23,02:35:59,NA,incomplete,155,number,1,right,Green_Circle_Stripes_1.jpg,Blue_Circle_Chess_4.jpg,Red_Plus_Grid_1.jpg,left,1363.0899999989197,false,low,false
tITFTozc,3m67tqbqrk18ut4e0bwuqf8vno09av,37u1utwh9zz22p5fowh4atymhjt8rz,tITFTozc,2020-0188,2020-11-21,02:15:23,02:35:59,NA,incomplete,156,number,1,left,Blue_Triangle_Stripes_4.jpg,Green_Star_Dots_4.jpg,Red_Triangle_Grid_3.jpg,left,1034.1249998891726,true,low,false
tITFTozc,3m67tqbqrk18ut4e0bwuqf8vno09av,37u1utwh9zz22p5fowh4atymhjt8rz,tITFTozc,2020-0188,2020-11-21,02:15:23,02:35:59,NA,incomplete,157,number,1,left,Purple_Star_Grid_4.jpg,Blue_Plus_Stripes_4.jpg,Green_Star_Chess_1.jpg,left,822.8850000305101,true,low,false
tITFTozc,3m67tqbqrk18ut4e0bwuqf8vno09av,37u1utwh9zz22p5fowh4atymhjt8rz,tITFTozc,2020-0188,2020-11-21,02:15:23,02:35:59,NA,incomplete,158,number,1,left,Red_Triangle_Grid_3.jpg,Green_Circle_Stripes_3.jpg,Purple_Triangle_Chess_1.jpg,left,941.1599999293685,true,low,false
tITFTozc,3m67tqbqrk18ut4e0bwuqf8vno09av,37u1utwh9zz22p5fowh4atymhjt8rz,tITFTozc,2020-0188,2020-11-21,02:15:23,02:35:59,NA,incomplete,159,number,1,left,Purple_Triangle_Grid_1.jpg,Blue_Plus_Dots_1.jpg,Green_Triangle_Chess_2.jpg,left,1026.5450000297278,true,low,false
tITFTozc,3m67tqbqrk18ut4e0bwuqf8vno09av,37u1utwh9zz22p5fowh4atymhjt8rz,tITFTozc,2020-0188,2020-11-21,02:15:23,02:35:59,NA,incomplete,160,shape,1,left,Red_Triangle_Stripes_2.jpg,Blue_Triangle_Chess_4.jpg,Green_Circle_Dots_2.jpg,right,1214.5299999974668,false,low,false
tITFTozc,3m67tqbqrk18ut4e0bwuqf8vno09av,37u1utwh9zz22p5fowh4atymhjt8rz,tITFTozc,2020-0188,2020-11-21,02:15:23,02:35:59,NA,incomplete,161,shape,1,right,Purple_Star_Stripes_2.jpg,Red_Circle_Grid_2.jpg,Green_Star_Chess_1.jpg,left,1039.4549999618903,false,low,false
tITFTozc,3m67tqbqrk18ut4e0bwuqf8vno09av,37u1utwh9zz22p5fowh4atymhjt8rz,tITFTozc,2020-0188,2020-11-21,02:15:23,02:35:59,NA,incomplete,162,shape,1,left,Purple_Plus_Grid_1.jpg,Blue_Plus_Chess_3.jpg,Red_Circle_Dots_1.jpg,left,1217.2899999422953,true,low,false
tITFTozc,3m67tqbqrk18ut4e0bwuqf8vno09av,37u1utwh9zz22p5fowh4atymhjt8rz,tITFTozc,2020-0188,2020-11-21,02:15:23,02:35:59,NA,incomplete,163,shape,1,left,Blue_Star_Dots_4.jpg,Red_Star_Grid_3.jpg,Purple_Triangle_Stripes_4.jpg,left,1236.6150000598282,true,low,false
tITFTozc,3m67tqbqrk18ut4e0bwuqf8vno09av,37u1utwh9zz22p5fowh4atymhjt8rz,tITFTozc,2020-0188,2020-11-21,02:15:23,02:35:59,NA,incomplete,164,shape,1,left,Green_Plus_Stripes_4.jpg,Purple_Plus_Dots_3.jpg,Blue_Triangle_Chess_4.jpg,left,1199.7849999461323,true,low,false
tITFTozc,3m67tqbqrk18ut4e0bwuqf8vno09av,37u1utwh9zz22p5fowh4atymhjt8rz,tITFTozc,2020-0188,2020-11-21,02:15:23,02:35:59,NA,incomplete,165,shape,1,right,Green_Star_Grid_1.jpg,Red_Circle_Dots_1.jpg,Blue_Star_Chess_2.jpg,right,1130.4150000214577,true,low,false
tITFTozc,3m67tqbqrk18ut4e0bwuqf8vno09av,37u1utwh9zz22p5fowh4atymhjt8rz,tITFTozc,2020-0188,2020-11-21,02:15:23,02:35:59,NA,incomplete,166,shape,1,right,Purple_Circle_Stripes_4.jpg,Red_Triangle_Grid_4.jpg,Green_Circle_Chess_1.jpg,right,1114.9299999233335,true,low,false
tITFTozc,3m67tqbqrk18ut4e0bwuqf8vno09av,37u1utwh9zz22p5fowh4atymhjt8rz,tITFTozc,2020-0188,2020-11-21,02:15:23,02:35:59,NA,incomplete,167,shape,0,left,Green_Triangle_Chess_3.jpg,Blue_Triangle_Dots_4.jpg,Purple_Star_Stripes_3.jpg,right,1194.2949999356642,false,low,false
tITFTozc,3m67tqbqrk18ut4e0bwuqf8vno09av,37u1utwh9zz22p5fowh4atymhjt8rz,tITFTozc,2020-0188,2020-11-21,02:15:23,02:35:59,NA,incomplete,168,shape,1,left,Red_Circle_Grid_2.jpg,Green_Circle_Stripes_1.jpg,Blue_Plus_Dots_2.jpg,left,1323.9100000355393,true,low,false
tITFTozc,3m67tqbqrk18ut4e0bwuqf8vno09av,37u1utwh9zz22p5fowh4atymhjt8rz,tITFTozc,2020-0188,2020-11-21,02:15:23,02:35:59,NA,incomplete,169,shape,1,right,Blue_Circle_Grid_3.jpg,Green_Triangle_Stripes_3.jpg,Red_Circle_Chess_1.jpg,right,1149.0750000812113,true,low,false
tITFTozc,3m67tqbqrk18ut4e0bwuqf8vno09av,37u1utwh9zz22p5fowh4atymhjt8rz,tITFTozc,2020-0188,2020-11-21,02:15:23,02:35:59,NA,incomplete,170,shape,0,left,Blue_Star_Dots_2.jpg,Red_Star_Chess_4.jpg,Purple_Circle_Stripes_2.jpg,left,996.5499999234453,true,low,false
tITFTozc,3m67tqbqrk18ut4e0bwuqf8vno09av,37u1utwh9zz22p5fowh4atymhjt8rz,tITFTozc,2020-0188,2020-11-21,02:15:23,02:35:59,NA,incomplete,171,shape,1,right,Purple_Triangle_Grid_1.jpg,Blue_Circle_Chess_1.jpg,Red_Triangle_Dots_3.jpg,left,1019.0249999286607,false,low,false
tITFTozc,3m67tqbqrk18ut4e0bwuqf8vno09av,37u1utwh9zz22p5fowh4atymhjt8rz,tITFTozc,2020-0188,2020-11-21,02:15:23,02:35:59,NA,incomplete,172,shape,1,left,Blue_Triangle_Stripes_2.jpg,Purple_Triangle_Grid_4.jpg,Red_Star_Dots_2.jpg,left,968.7900000717491,true,low,false
tITFTozc,3m67tqbqrk18ut4e0bwuqf8vno09av,37u1utwh9zz22p5fowh4atymhjt8rz,tITFTozc,2020-0188,2020-11-21,02:15:23,02:35:59,NA,incomplete,173,shape,0,right,Red_Plus_Stripes_4.jpg,Green_Triangle_Dots_4.jpg,Purple_Plus_Grid_3.jpg,right,1123.3850000426173,true,low,false
tITFTozc,3m67tqbqrk18ut4e0bwuqf8vno09av,37u1utwh9zz22p5fowh4atymhjt8rz,tITFTozc,2020-0188,2020-11-21,02:15:23,02:35:59,NA,incomplete,174,shape,1,left,Green_Triangle_Stripes_4.jpg,Purple_Triangle_Dots_3.jpg,Blue_Star_Chess_4.jpg,left,1125.525000039488,true,low,false
tITFTozc,3m67tqbqrk18ut4e0bwuqf8vno09av,37u1utwh9zz22p5fowh4atymhjt8rz,tITFTozc,2020-0188,2020-11-21,02:15:23,02:35:59,NA,incomplete,175,shape,1,right,Purple_Triangle_Dots_4.jpg,Green_Circle_Stripes_4.jpg,Blue_Triangle_Grid_2.jpg,right,1085.590000031516,true,low,false
tITFTozc,3m67tqbqrk18ut4e0bwuqf8vno09av,37u1utwh9zz22p5fowh4atymhjt8rz,tITFTozc,2020-0188,2020-11-21,02:15:23,02:35:59,NA,incomplete,176,shape,1,right,Blue_Triangle_Grid_1.jpg,Purple_Circle_Stripes_1.jpg,Green_Triangle_Chess_4.jpg,right,1059.735000017099,true,low,false
tITFTozc,3m67tqbqrk18ut4e0bwuqf8vno09av,37u1utwh9zz22p5fowh4atymhjt8rz,tITFTozc,2020-0188,2020-11-21,02:15:23,02:35:59,NA,incomplete,177,shape,1,right,Purple_Plus_Dots_1.jpg,Blue_Circle_Chess_1.jpg,Red_Plus_Grid_4.jpg,right,971.3050000136718,true,low,false
tITFTozc,3m67tqbqrk18ut4e0bwuqf8vno09av,37u1utwh9zz22p5fowh4atymhjt8rz,tITFTozc,2020-0188,2020-11-21,02:15:23,02:35:59,NA,incomplete,178,shape,1,left,Purple_Circle_Stripes_4.jpg,Blue_Circle_Dots_1.jpg,Red_Plus_Chess_4.jpg,left,935.1649999152869,true,low,false
tITFTozc,3m67tqbqrk18ut4e0bwuqf8vno09av,37u1utwh9zz22p5fowh4atymhjt8rz,tITFTozc,2020-0188,2020-11-21,02:15:23,02:35:59,NA,incomplete,179,shape,1,right,Purple_Plus_Dots_1.jpg,Green_Star_Grid_1.jpg,Blue_Plus_Stripes_3.jpg,right,1770.1799999922514,true,low,false
tITFTozc,3m67tqbqrk18ut4e0bwuqf8vno09av,37u1utwh9zz22p5fowh4atymhjt8rz,tITFTozc,2020-0188,2020-11-21,02:15:23,02:35:59,NA,incomplete,180,number,0,right,Green_Triangle_Grid_4.jpg,Purple_Triangle_Chess_3.jpg,Blue_Star_Dots_4.jpg,left,977.5650000665337,false,low,false
tITFTozc,3m67tqbqrk18ut4e0bwuqf8vno09av,37u1utwh9zz22p5fowh4atymhjt8rz,tITFTozc,2020-0188,2020-11-21,02:15:23,02:35:59,NA,incomplete,181,number,1,right,Green_Star_Stripes_1.jpg,Red_Star_Grid_2.jpg,Blue_Triangle_Chess_1.jpg,left,924.6000000275671,false,low,false
tITFTozc,3m67tqbqrk18ut4e0bwuqf8vno09av,37u1utwh9zz22p5fowh4atymhjt8rz,tITFTozc,2020-0188,2020-11-21,02:15:23,02:35:59,NA,incomplete,182,number,0,right,Purple_Star_Chess_4.jpg,Red_Star_Dots_1.jpg,Green_Circle_Grid_4.jpg,right,1099.1749999811873,true,low,false
tITFTozc,3m67tqbqrk18ut4e0bwuqf8vno09av,37u1utwh9zz22p5fowh4atymhjt8rz,tITFTozc,2020-0188,2020-11-21,02:15:23,02:35:59,NA,incomplete,183,number,1,right,Green_Circle_Chess_4.jpg,Purple_Circle_Grid_1.jpg,Blue_Star_Dots_4.jpg,right,979.4750000583008,true,low,false
tITFTozc,3m67tqbqrk18ut4e0bwuqf8vno09av,37u1utwh9zz22p5fowh4atymhjt8rz,tITFTozc,2020-0188,2020-11-21,02:15:23,02:35:59,NA,incomplete,184,number,1,left,Blue_Triangle_Dots_1.jpg,Red_Circle_Grid_1.jpg,Purple_Triangle_Stripes_4.jpg,left,1022.6899998961017,true,low,false
tITFTozc,3m67tqbqrk18ut4e0bwuqf8vno09av,37u1utwh9zz22p5fowh4atymhjt8rz,tITFTozc,2020-0188,2020-11-21,02:15:23,02:35:59,NA,incomplete,185,number,1,right,Green_Circle_Chess_4.jpg,Blue_Circle_Stripes_2.jpg,Red_Plus_Dots_4.jpg,right,962.5099999830127,true,low,false
tITFTozc,3m67tqbqrk18ut4e0bwuqf8vno09av,37u1utwh9zz22p5fowh4atymhjt8rz,tITFTozc,2020-0188,2020-11-21,02:15:23,02:35:59,NA,incomplete,186,number,0,left,Red_Star_Chess_1.jpg,Purple_Plus_Dots_1.jpg,Green_Star_Grid_2.jpg,left,942.7200000500306,true,low,false
tITFTozc,3m67tqbqrk18ut4e0bwuqf8vno09av,37u1utwh9zz22p5fowh4atymhjt8rz,tITFTozc,2020-0188,2020-11-21,02:15:23,02:35:59,NA,incomplete,187,number,1,right,Purple_Circle_Stripes_2.jpg,Green_Circle_Chess_1.jpg,Red_Triangle_Dots_2.jpg,right,1217.5900000147521,true,low,false
tITFTozc,3m67tqbqrk18ut4e0bwuqf8vno09av,37u1utwh9zz22p5fowh4atymhjt8rz,tITFTozc,2020-0188,2020-11-21,02:15:23,02:35:59,NA,incomplete,188,number,0,left,Purple_Circle_Dots_2.jpg,Blue_Plus_Grid_2.jpg,Green_Circle_Chess_4.jpg,left,998.5549999400973,true,low,false
tITFTozc,3m67tqbqrk18ut4e0bwuqf8vno09av,37u1utwh9zz22p5fowh4atymhjt8rz,tITFTozc,2020-0188,2020-11-21,02:15:23,02:35:59,NA,incomplete,189,number,1,right,Purple_Star_Stripes_3.jpg,Green_Star_Dots_2.jpg,Blue_Triangle_Chess_3.jpg,right,1185.5999999679625,true,low,false
tITFTozc,3m67tqbqrk18ut4e0bwuqf8vno09av,37u1utwh9zz22p5fowh4atymhjt8rz,tITFTozc,2020-0188,2020-11-21,02:15:23,02:35:59,NA,incomplete,190,number,0,right,Purple_Plus_Dots_3.jpg,Blue_Plus_Chess_4.jpg,Red_Triangle_Stripes_3.jpg,left,1045.005000079982,false,low,false
tITFTozc,3m67tqbqrk18ut4e0bwuqf8vno09av,37u1utwh9zz22p5fowh4atymhjt8rz,tITFTozc,2020-0188,2020-11-21,02:15:23,02:35:59,NA,incomplete,191,number,1,left,Green_Triangle_Grid_4.jpg,Red_Star_Dots_4.jpg,Purple_Triangle_Chess_3.jpg,right,1764.4100000616163,false,low,false
tITFTozc,3m67tqbqrk18ut4e0bwuqf8vno09av,37u1utwh9zz22p5fowh4atymhjt8rz,tITFTozc,2020-0188,2020-11-21,02:15:23,02:35:59,NA,incomplete,192,number,1,left,Purple_Circle_Dots_2.jpg,Green_Plus_Stripes_2.jpg,Blue_Circle_Grid_3.jpg,left,1207.0900000398979,true,low,false
tITFTozc,3m67tqbqrk18ut4e0bwuqf8vno09av,37u1utwh9zz22p5fowh4atymhjt8rz,tITFTozc,2020-0188,2020-11-21,02:15:23,02:35:59,NA,incomplete,193,number,1,left,Red_Triangle_Dots_2.jpg,Blue_Circle_Grid_2.jpg,Purple_Triangle_Chess_4.jpg,left,1063.5149999288842,true,low,false
tITFTozc,3m67tqbqrk18ut4e0bwuqf8vno09av,37u1utwh9zz22p5fowh4atymhjt8rz,tITFTozc,2020-0188,2020-11-21,02:15:23,02:35:59,NA,incomplete,194,number,1,right,Purple_Triangle_Stripes_4.jpg,Green_Triangle_Dots_2.jpg,Red_Plus_Chess_4.jpg,right,1132.9899999545887,true,low,false
tITFTozc,3m67tqbqrk18ut4e0bwuqf8vno09av,37u1utwh9zz22p5fowh4atymhjt8rz,tITFTozc,2020-0188,2020-11-21,02:15:23,02:35:59,NA,incomplete,195,number,1,right,Red_Circle_Grid_2.jpg,Purple_Circle_Stripes_3.jpg,Blue_Triangle_Chess_2.jpg,right,1089.864999987185,true,low,false
tITFTozc,3m67tqbqrk18ut4e0bwuqf8vno09av,37u1utwh9zz22p5fowh4atymhjt8rz,tITFTozc,2020-0188,2020-11-21,02:15:23,02:35:59,NA,incomplete,196,number,1,left,Purple_Star_Chess_1.jpg,Red_Circle_Stripes_1.jpg,Green_Star_Grid_3.jpg,left,1009.554999996908,true,low,false
tITFTozc,3m67tqbqrk18ut4e0bwuqf8vno09av,37u1utwh9zz22p5fowh4atymhjt8rz,tITFTozc,2020-0188,2020-11-21,02:15:23,02:35:59,NA,incomplete,197,number,1,right,Green_Star_Dots_3.jpg,Blue_Star_Stripes_1.jpg,Red_Plus_Chess_3.jpg,right,1020.0199999380857,true,low,false
tITFTozc,3m67tqbqrk18ut4e0bwuqf8vno09av,37u1utwh9zz22p5fowh4atymhjt8rz,tITFTozc,2020-0188,2020-11-21,02:15:23,02:35:59,NA,incomplete,198,number,0,left,Green_Triangle_Stripes_1.jpg,Purple_Circle_Dots_1.jpg,Red_Triangle_Grid_3.jpg,left,888.9400000916794,true,low,false
tITFTozc,3m67tqbqrk18ut4e0bwuqf8vno09av,37u1utwh9zz22p5fowh4atymhjt8rz,tITFTozc,2020-0188,2020-11-21,02:15:23,02:35:59,NA,incomplete,199,number,1,right,Purple_Plus_Grid_1.jpg,Green_Plus_Chess_3.jpg,Red_Circle_Dots_1.jpg,right,943.6449999921024,true,low,false
tITFTozc,3m67tqbqrk18ut4e0bwuqf8vno09av,37u1utwh9zz22p5fowh4atymhjt8rz,tITFTozc,2020-0188,2020-11-21,02:15:23,02:35:59,NA,incomplete,200,shape,1,right,Blue_Plus_Dots_4.jpg,Green_Circle_Stripes_4.jpg,Red_Plus_Grid_2.jpg,left,888.1950000068173,false,low,false
tITFTozc,3m67tqbqrk18ut4e0bwuqf8vno09av,37u1utwh9zz22p5fowh4atymhjt8rz,tITFTozc,2020-0188,2020-11-21,02:15:23,02:35:59,NA,incomplete,201,shape,1,left,Purple_Circle_Dots_4.jpg,Red_Circle_Chess_3.jpg,Blue_Plus_Stripes_4.jpg,left,1138.1149999797344,true,low,false
tITFTozc,3m67tqbqrk18ut4e0bwuqf8vno09av,37u1utwh9zz22p5fowh4atymhjt8rz,tITFTozc,2020-0188,2020-11-21,02:15:23,02:35:59,NA,incomplete,202,shape,1,right,Purple_Triangle_Stripes_1.jpg,Blue_Circle_Chess_1.jpg,Green_Triangle_Dots_3.jpg,right,1364.7899999050424,true,low,false
tITFTozc,3m67tqbqrk18ut4e0bwuqf8vno09av,37u1utwh9zz22p5fowh4atymhjt8rz,tITFTozc,2020-0188,2020-11-21,02:15:23,02:35:59,NA,incomplete,203,shape,1,left,Blue_Plus_Chess_2.jpg,Green_Plus_Dots_3.jpg,Purple_Triangle_Stripes_2.jpg,left,1140.9850000636652,true,low,false
tITFTozc,3m67tqbqrk18ut4e0bwuqf8vno09av,37u1utwh9zz22p5fowh4atymhjt8rz,tITFTozc,2020-0188,2020-11-21,02:15:23,02:35:59,NA,incomplete,204,shape,1,right,Green_Circle_Stripes_1.jpg,Blue_Star_Chess_1.jpg,Purple_Circle_Grid_2.jpg,right,1078.0699999304488,true,low,false
tITFTozc,3m67tqbqrk18ut4e0bwuqf8vno09av,37u1utwh9zz22p5fowh4atymhjt8rz,tITFTozc,2020-0188,2020-11-21,02:15:23,02:35:59,NA,incomplete,205,shape,1,left,Red_Circle_Stripes_4.jpg,Green_Circle_Grid_2.jpg,Blue_Star_Dots_4.jpg,left,1060.535000055097,true,low,false
tITFTozc,3m67tqbqrk18ut4e0bwuqf8vno09av,37u1utwh9zz22p5fowh4atymhjt8rz,tITFTozc,2020-0188,2020-11-21,02:15:23,02:35:59,NA,incomplete,206,shape,1,right,Blue_Triangle_Stripes_3.jpg,Purple_Plus_Dots_3.jpg,Green_Triangle_Chess_1.jpg,right,1154.5350000960752,true,low,false
tITFTozc,3m67tqbqrk18ut4e0bwuqf8vno09av,37u1utwh9zz22p5fowh4atymhjt8rz,tITFTozc,2020-0188,2020-11-21,02:15:23,02:35:59,NA,incomplete,207,shape,0,right,Blue_Plus_Chess_2.jpg,Red_Star_Stripes_2.jpg,Green_Plus_Dots_1.jpg,right,1049.7949999989942,true,low,false
tITFTozc,3m67tqbqrk18ut4e0bwuqf8vno09av,37u1utwh9zz22p5fowh4atymhjt8rz,tITFTozc,2020-0188,2020-11-21,02:15:23,02:35:59,NA,incomplete,208,shape,1,left,Green_Circle_Dots_4.jpg,Blue_Circle_Stripes_2.jpg,Purple_Star_Grid_4.jpg,right,965.1749999029562,false,low,false
tITFTozc,3m67tqbqrk18ut4e0bwuqf8vno09av,37u1utwh9zz22p5fowh4atymhjt8rz,tITFTozc,2020-0188,2020-11-21,02:15:23,02:35:59,NA,incomplete,209,shape,1,left,Blue_Triangle_Stripes_1.jpg,Red_Triangle_Dots_2.jpg,Green_Star_Grid_1.jpg,left,1015.7550000585616,true,low,false
tITFTozc,3m67tqbqrk18ut4e0bwuqf8vno09av,37u1utwh9zz22p5fowh4atymhjt8rz,tITFTozc,2020-0188,2020-11-21,02:15:23,02:35:59,NA,incomplete,210,shape,1,left,Red_Triangle_Chess_1.jpg,Blue_Triangle_Grid_4.jpg,Purple_Plus_Stripes_1.jpg,left,939.0600000042468,true,low,false
tITFTozc,3m67tqbqrk18ut4e0bwuqf8vno09av,37u1utwh9zz22p5fowh4atymhjt8rz,tITFTozc,2020-0188,2020-11-21,02:15:23,02:35:59,NA,incomplete,211,shape,1,left,Green_Star_Stripes_3.jpg,Blue_Star_Grid_1.jpg,Red_Plus_Dots_3.jpg,left,1230.0699999323115,true,low,false
tITFTozc,3m67tqbqrk18ut4e0bwuqf8vno09av,37u1utwh9zz22p5fowh4atymhjt8rz,tITFTozc,2020-0188,2020-11-21,02:15:23,02:35:59,NA,incomplete,212,shape,1,left,Green_Triangle_Stripes_2.jpg,Blue_Triangle_Chess_4.jpg,Purple_Circle_Grid_2.jpg,left,989.2899999395013,true,low,false
tITFTozc,3m67tqbqrk18ut4e0bwuqf8vno09av,37u1utwh9zz22p5fowh4atymhjt8rz,tITFTozc,2020-0188,2020-11-21,02:15:23,02:35:59,NA,incomplete,213,shape,1,right,Purple_Triangle_Grid_1.jpg,Red_Plus_Stripes_1.jpg,Blue_Triangle_Dots_4.jpg,right,1156.9099999032915,true,low,false
tITFTozc,3m67tqbqrk18ut4e0bwuqf8vno09av,37u1utwh9zz22p5fowh4atymhjt8rz,tITFTozc,2020-0188,2020-11-21,02:15:23,02:35:59,NA,incomplete,214,shape,1,right,Purple_Star_Grid_4.jpg,Blue_Plus_Chess_4.jpg,Green_Star_Stripes_2.jpg,right,1197.2050000913441,true,low,false
tITFTozc,3m67tqbqrk18ut4e0bwuqf8vno09av,37u1utwh9zz22p5fowh4atymhjt8rz,tITFTozc,2020-0188,2020-11-21,02:15:23,02:35:59,NA,incomplete,215,shape,1,right,Green_Circle_Grid_3.jpg,Blue_Star_Stripes_3.jpg,Red_Circle_Chess_4.jpg,none,0,false,low,false
tITFTozc,3m67tqbqrk18ut4e0bwuqf8vno09av,37u1utwh9zz22p5fowh4atymhjt8rz,tITFTozc,2020-0188,2020-11-21,02:15:23,02:35:59,NA,incomplete,216,shape,0,left,Purple_Triangle_Chess_1.jpg,Blue_Triangle_Dots_2.jpg,Green_Plus_Grid_1.jpg,left,1108.6999999824911,true,low,false
tITFTozc,3m67tqbqrk18ut4e0bwuqf8vno09av,37u1utwh9zz22p5fowh4atymhjt8rz,tITFTozc,2020-0188,2020-11-21,02:15:23,02:35:59,NA,incomplete,217,shape,1,left,Blue_Circle_Chess_3.jpg,Green_Circle_Stripes_2.jpg,Red_Triangle_Dots_3.jpg,left,1164.1900000395253,true,low,false
tITFTozc,3m67tqbqrk18ut4e0bwuqf8vno09av,37u1utwh9zz22p5fowh4atymhjt8rz,tITFTozc,2020-0188,2020-11-21,02:15:23,02:35:59,NA,incomplete,218,shape,1,right,Blue_Plus_Dots_1.jpg,Purple_Triangle_Chess_1.jpg,Green_Plus_Stripes_3.jpg,right,946.2349999230355,true,low,false
tITFTozc,3m67tqbqrk18ut4e0bwuqf8vno09av,37u1utwh9zz22p5fowh4atymhjt8rz,tITFTozc,2020-0188,2020-11-21,02:15:23,02:35:59,NA,incomplete,219,shape,0,right,Purple_Plus_Stripes_4.jpg,Green_Star_Dots_4.jpg,Red_Plus_Grid_1.jpg,right,953.5349999787286,true,low,false
tITFTozc,3m67tqbqrk18ut4e0bwuqf8vno09av,37u1utwh9zz22p5fowh4atymhjt8rz,tITFTozc,2020-0188,2020-11-21,02:15:23,02:35:59,NA,incomplete,220,number,1,right,Purple_Circle_Dots_3.jpg,Blue_Circle_Chess_4.jpg,Red_Plus_Stripes_3.jpg,right,1146.0699999006465,true,low,false
tITFTozc,3m67tqbqrk18ut4e0bwuqf8vno09av,37u1utwh9zz22p5fowh4atymhjt8rz,tITFTozc,2020-0188,2020-11-21,02:15:23,02:35:59,NA,incomplete,221,number,1,right,Purple_Triangle_Chess_1.jpg,Blue_Triangle_Stripes_3.jpg,Red_Plus_Dots_1.jpg,left,1118.2950000511482,false,low,false
tITFTozc,3m67tqbqrk18ut4e0bwuqf8vno09av,37u1utwh9zz22p5fowh4atymhjt8rz,tITFTozc,2020-0188,2020-11-21,02:15:23,02:35:59,NA,incomplete,222,number,0,left,Purple_Triangle_Chess_3.jpg,Green_Star_Dots_3.jpg,Red_Triangle_Grid_4.jpg,left,1234.4199999934062,true,low,false
tITFTozc,3m67tqbqrk18ut4e0bwuqf8vno09av,37u1utwh9zz22p5fowh4atymhjt8rz,tITFTozc,2020-0188,2020-11-21,02:15:23,02:35:59,NA,incomplete,223,number,1,left,Purple_Star_Stripes_2.jpg,Green_Triangle_Dots_2.jpg,Blue_Star_Grid_4.jpg,left,1081.510000047274,true,low,false
tITFTozc,3m67tqbqrk18ut4e0bwuqf8vno09av,37u1utwh9zz22p5fowh4atymhjt8rz,tITFTozc,2020-0188,2020-11-21,02:15:23,02:35:59,NA,incomplete,224,number,1,right,Red_Star_Dots_2.jpg,Purple_Star_Chess_3.jpg,Green_Triangle_Stripes_2.jpg,right,1371.6899999417365,true,low,false
tITFTozc,3m67tqbqrk18ut4e0bwuqf8vno09av,37u1utwh9zz22p5fowh4atymhjt8rz,tITFTozc,2020-0188,2020-11-21,02:15:23,02:35:59,NA,incomplete,225,number,1,right,Purple_Plus_Stripes_1.jpg,Red_Plus_Grid_3.jpg,Blue_Circle_Dots_1.jpg,right,1066.3600000552833,true,low,false
tITFTozc,3m67tqbqrk18ut4e0bwuqf8vno09av,37u1utwh9zz22p5fowh4atymhjt8rz,tITFTozc,2020-0188,2020-11-21,02:15:23,02:35:59,NA,incomplete,226,number,1,left,Red_Plus_Stripes_3.jpg,Blue_Triangle_Chess_3.jpg,Green_Plus_Grid_2.jpg,left,1256.0749999247491,true,low,false
tITFTozc,3m67tqbqrk18ut4e0bwuqf8vno09av,37u1utwh9zz22p5fowh4atymhjt8rz,tITFTozc,2020-0188,2020-11-21,02:15:23,02:35:59,NA,incomplete,227,number,0,left,Blue_Triangle_Chess_2.jpg,Green_Plus_Stripes_2.jpg,Purple_Triangle_Dots_4.jpg,left,908.5350000532344,true,low,false
tITFTozc,3m67tqbqrk18ut4e0bwuqf8vno09av,37u1utwh9zz22p5fowh4atymhjt8rz,tITFTozc,2020-0188,2020-11-21,02:15:23,02:35:59,NA,incomplete,228,number,1,left,Purple_Plus_Chess_3.jpg,Blue_Circle_Dots_3.jpg,Green_Plus_Stripes_2.jpg,left,1173.2899999478832,true,low,false
tITFTozc,3m67tqbqrk18ut4e0bwuqf8vno09av,37u1utwh9zz22p5fowh4atymhjt8rz,tITFTozc,2020-0188,2020-11-21,02:15:23,02:35:59,NA,incomplete,229,number,0,left,Blue_Triangle_Stripes_1.jpg,Green_Circle_Grid_1.jpg,Red_Triangle_Chess_4.jpg,left,860.4699999559671,true,low,false
tITFTozc,3m67tqbqrk18ut4e0bwuqf8vno09av,37u1utwh9zz22p5fowh4atymhjt8rz,tITFTozc,2020-0188,2020-11-21,02:15:23,02:35:59,NA,incomplete,230,number,1,left,Purple_Plus_Grid_1.jpg,Green_Circle_Dots_1.jpg,Blue_Plus_Stripes_4.jpg,right,1103.2650000415742,false,low,false
tITFTozc,3m67tqbqrk18ut4e0bwuqf8vno09av,37u1utwh9zz22p5fowh4atymhjt8rz,tITFTozc,2020-0188,2020-11-21,02:15:23,02:35:59,NA,incomplete,231,number,1,left,Purple_Plus_Dots_4.jpg,Red_Circle_Chess_4.jpg,Green_Plus_Grid_3.jpg,left,1175.5200000479817,true,low,false
tITFTozc,3m67tqbqrk18ut4e0bwuqf8vno09av,37u1utwh9zz22p5fowh4atymhjt8rz,tITFTozc,2020-0188,2020-11-21,02:15:23,02:35:59,NA,incomplete,232,number,0,right,Red_Star_Chess_3.jpg,Blue_Star_Stripes_4.jpg,Green_Triangle_Grid_3.jpg,right,1173.8899999763817,true,low,false
tITFTozc,3m67tqbqrk18ut4e0bwuqf8vno09av,37u1utwh9zz22p5fowh4atymhjt8rz,tITFTozc,2020-0188,2020-11-21,02:15:23,02:35:59,NA,incomplete,233,number,1,left,Green_Triangle_Grid_1.jpg,Blue_Plus_Chess_1.jpg,Red_Triangle_Stripes_2.jpg,left,1342.754999990575,true,low,false
tITFTozc,3m67tqbqrk18ut4e0bwuqf8vno09av,37u1utwh9zz22p5fowh4atymhjt8rz,tITFTozc,2020-0188,2020-11-21,02:15:23,02:35:59,NA,incomplete,234,number,1,left,Blue_Star_Chess_2.jpg,Purple_Circle_Grid_2.jpg,Green_Star_Stripes_3.jpg,left,1096.4800000656396,true,low,false
tITFTozc,3m67tqbqrk18ut4e0bwuqf8vno09av,37u1utwh9zz22p5fowh4atymhjt8rz,tITFTozc,2020-0188,2020-11-21,02:15:23,02:35:59,NA,incomplete,235,number,0,left,Purple_Plus_Grid_2.jpg,Red_Triangle_Chess_2.jpg,Green_Plus_Stripes_1.jpg,left,971.4500000700355,true,low,false
tITFTozc,3m67tqbqrk18ut4e0bwuqf8vno09av,37u1utwh9zz22p5fowh4atymhjt8rz,tITFTozc,2020-0188,2020-11-21,02:15:23,02:35:59,NA,incomplete,236,number,1,left,Red_Plus_Grid_2.jpg,Blue_Circle_Dots_2.jpg,Green_Plus_Chess_3.jpg,left,1259.4149999786168,true,low,false
tITFTozc,3m67tqbqrk18ut4e0bwuqf8vno09av,37u1utwh9zz22p5fowh4atymhjt8rz,tITFTozc,2020-0188,2020-11-21,02:15:23,02:35:59,NA,incomplete,237,number,1,right,Green_Plus_Chess_2.jpg,Purple_Plus_Grid_1.jpg,Blue_Star_Stripes_2.jpg,right,1053.63999994006,true,low,false
tITFTozc,3m67tqbqrk18ut4e0bwuqf8vno09av,37u1utwh9zz22p5fowh4atymhjt8rz,tITFTozc,2020-0188,2020-11-21,02:15:23,02:35:59,NA,incomplete,238,number,1,left,Purple_Circle_Grid_3.jpg,Red_Plus_Stripes_3.jpg,Green_Circle_Chess_2.jpg,left,1145.3350000083447,true,low,false
tITFTozc,3m67tqbqrk18ut4e0bwuqf8vno09av,37u1utwh9zz22p5fowh4atymhjt8rz,tITFTozc,2020-0188,2020-11-21,02:15:23,02:35:59,NA,incomplete,239,number,1,left,Red_Triangle_Chess_4.jpg,Blue_Star_Grid_4.jpg,Green_Triangle_Stripes_1.jpg,left,860.8050000621006,true,low,false
tITFTozc,3m67tqbqrk18ut4e0bwuqf8vno09av,37u1utwh9zz22p5fowh4atymhjt8rz,tITFTozc,2020-0188,2020-11-21,02:15:23,02:35:59,1122872.4049999146,1236743.7149999896,NA,NA,NA,NA,NA,NA,NA,NA,NA,NA,NA,undefined
