workerId,hitId,assignmentId,subject,studyid,exp_date,exp_start,exp_end,time_start,time_end,trial,type,reward_validity,answer,image_top,image_left,image_right,response,response_time,response_acc,volatility,practice
MxROombs,33cla8o0nlo9ukh858i8v1jgjowfr3,37uqdcyh618qvihdnbu8xqrtpr6v72,MxROombs,2020-0188,2020-05-07,18:56:49,19:13:00,NA,incomplete,0,number,0,left,Red_Circle_Chess_1.jpg,Purple_Triangle_Stripes_1.jpg,Blue_Circle_Grid_4.jpg,left,1274.6500000357628,true,NA,true
MxROombs,33cla8o0nlo9ukh858i8v1jgjowfr3,37uqdcyh618qvihdnbu8xqrtpr6v72,MxROombs,2020-0188,2020-05-07,18:56:49,19:13:00,NA,incomplete,1,number,1,right,Red_Star_Chess_3.jpg,Purple_Star_Grid_4.jpg,Green_Plus_Dots_3.jpg,left,1223.0400000698864,false,NA,true
MxROombs,33cla8o0nlo9ukh858i8v1jgjowfr3,37uqdcyh618qvihdnbu8xqrtpr6v72,MxROombs,2020-0188,2020-05-07,18:56:49,19:13:00,NA,incomplete,2,number,0,right,Purple_Star_Chess_4.jpg,Blue_Star_Stripes_2.jpg,Green_Plus_Dots_4.jpg,right,905.91000020504,true,NA,true
MxROombs,33cla8o0nlo9ukh858i8v1jgjowfr3,37uqdcyh618qvihdnbu8xqrtpr6v72,MxROombs,2020-0188,2020-05-07,18:56:49,19:13:00,NA,incomplete,3,number,1,right,Red_Circle_Grid_3.jpg,Green_Circle_Dots_4.jpg,Purple_Plus_Stripes_3.jpg,right,1148.700000019744,true,NA,true
MxROombs,33cla8o0nlo9ukh858i8v1jgjowfr3,37uqdcyh618qvihdnbu8xqrtpr6v72,MxROombs,2020-0188,2020-05-07,18:56:49,19:13:00,NA,incomplete,4,number,1,left,Blue_Plus_Stripes_3.jpg,Purple_Triangle_Dots_3.jpg,Green_Plus_Chess_1.jpg,left,1041.9400001410395,true,NA,true
MxROombs,33cla8o0nlo9ukh858i8v1jgjowfr3,37uqdcyh618qvihdnbu8xqrtpr6v72,MxROombs,2020-0188,2020-05-07,18:56:49,19:13:00,NA,incomplete,5,number,1,right,Blue_Triangle_Chess_3.jpg,Red_Triangle_Dots_1.jpg,Purple_Plus_Grid_3.jpg,right,743.2599999010563,true,NA,true
MxROombs,33cla8o0nlo9ukh858i8v1jgjowfr3,37uqdcyh618qvihdnbu8xqrtpr6v72,MxROombs,2020-0188,2020-05-07,18:56:49,19:13:00,NA,incomplete,6,number,1,left,Purple_Triangle_Dots_3.jpg,Blue_Star_Chess_3.jpg,Red_Triangle_Grid_1.jpg,left,745.1599999330938,true,NA,true
MxROombs,33cla8o0nlo9ukh858i8v1jgjowfr3,37uqdcyh618qvihdnbu8xqrtpr6v72,MxROombs,2020-0188,2020-05-07,18:56:49,19:13:00,NA,incomplete,7,number,1,right,Blue_Triangle_Chess_3.jpg,Red_Triangle_Dots_1.jpg,Green_Plus_Stripes_3.jpg,right,864.0900000464171,true,NA,true
MxROombs,33cla8o0nlo9ukh858i8v1jgjowfr3,37uqdcyh618qvihdnbu8xqrtpr6v72,MxROombs,2020-0188,2020-05-07,18:56:49,19:13:00,NA,incomplete,8,number,1,right,Red_Plus_Dots_3.jpg,Purple_Plus_Chess_1.jpg,Blue_Triangle_Stripes_3.jpg,right,703.0150000937283,true,NA,true
MxROombs,33cla8o0nlo9ukh858i8v1jgjowfr3,37uqdcyh618qvihdnbu8xqrtpr6v72,MxROombs,2020-0188,2020-05-07,18:56:49,19:13:00,NA,incomplete,9,number,1,left,Blue_Triangle_Chess_4.jpg,Red_Plus_Dots_4.jpg,Purple_Triangle_Grid_1.jpg,left,827.6100000366569,true,NA,true
MxROombs,33cla8o0nlo9ukh858i8v1jgjowfr3,37uqdcyh618qvihdnbu8xqrtpr6v72,MxROombs,2020-0188,2020-05-07,18:56:49,19:13:00,NA,incomplete,10,number,1,right,Red_Plus_Dots_4.jpg,Blue_Plus_Stripes_3.jpg,Purple_Triangle_Chess_4.jpg,right,746.1949998978525,true,NA,true
MxROombs,33cla8o0nlo9ukh858i8v1jgjowfr3,37uqdcyh618qvihdnbu8xqrtpr6v72,MxROombs,2020-0188,2020-05-07,18:56:49,19:13:00,NA,incomplete,11,number,1,left,Purple_Plus_Dots_3.jpg,Blue_Circle_Stripes_3.jpg,Green_Plus_Chess_1.jpg,left,749.8800000175834,true,NA,true
MxROombs,33cla8o0nlo9ukh858i8v1jgjowfr3,37uqdcyh618qvihdnbu8xqrtpr6v72,MxROombs,2020-0188,2020-05-07,18:56:49,19:13:00,NA,incomplete,12,number,1,left,Blue_Star_Grid_1.jpg,Purple_Circle_Dots_1.jpg,Green_Star_Chess_2.jpg,left,668.559999903664,true,NA,true
MxROombs,33cla8o0nlo9ukh858i8v1jgjowfr3,37uqdcyh618qvihdnbu8xqrtpr6v72,MxROombs,2020-0188,2020-05-07,18:56:49,19:13:00,NA,incomplete,13,number,1,left,Purple_Circle_Grid_3.jpg,Blue_Plus_Chess_3.jpg,Red_Circle_Stripes_2.jpg,left,808.6200000252575,true,NA,true
MxROombs,33cla8o0nlo9ukh858i8v1jgjowfr3,37uqdcyh618qvihdnbu8xqrtpr6v72,MxROombs,2020-0188,2020-05-07,18:56:49,19:13:00,NA,incomplete,14,number,1,right,Red_Circle_Grid_2.jpg,Green_Circle_Dots_4.jpg,Blue_Plus_Chess_2.jpg,right,816.20500003919,true,NA,true
MxROombs,33cla8o0nlo9ukh858i8v1jgjowfr3,37uqdcyh618qvihdnbu8xqrtpr6v72,MxROombs,2020-0188,2020-05-07,18:56:49,19:13:00,NA,incomplete,15,number,0,left,Blue_Circle_Dots_1.jpg,Purple_Star_Stripes_1.jpg,Green_Circle_Chess_4.jpg,left,601.4250000007451,true,NA,true
MxROombs,33cla8o0nlo9ukh858i8v1jgjowfr3,37uqdcyh618qvihdnbu8xqrtpr6v72,MxROombs,2020-0188,2020-05-07,18:56:49,19:13:00,NA,incomplete,16,number,1,right,Purple_Star_Dots_4.jpg,Green_Star_Grid_2.jpg,Blue_Triangle_Stripes_4.jpg,right,970.7149998284876,true,NA,true
MxROombs,33cla8o0nlo9ukh858i8v1jgjowfr3,37uqdcyh618qvihdnbu8xqrtpr6v72,MxROombs,2020-0188,2020-05-07,18:56:49,19:13:00,NA,incomplete,17,number,1,left,Green_Circle_Stripes_4.jpg,Blue_Star_Grid_4.jpg,Purple_Circle_Dots_1.jpg,left,819.9849999509752,true,NA,true
MxROombs,33cla8o0nlo9ukh858i8v1jgjowfr3,37uqdcyh618qvihdnbu8xqrtpr6v72,MxROombs,2020-0188,2020-05-07,18:56:49,19:13:00,NA,incomplete,18,number,1,left,Blue_Plus_Dots_1.jpg,Green_Circle_Chess_1.jpg,Red_Plus_Grid_4.jpg,left,781.1950000468642,true,NA,true
MxROombs,33cla8o0nlo9ukh858i8v1jgjowfr3,37uqdcyh618qvihdnbu8xqrtpr6v72,MxROombs,2020-0188,2020-05-07,18:56:49,19:13:00,NA,incomplete,19,number,1,left,Blue_Plus_Dots_2.jpg,Red_Circle_Grid_2.jpg,Green_Plus_Stripes_1.jpg,left,773.3700000680983,true,NA,true
MxROombs,33cla8o0nlo9ukh858i8v1jgjowfr3,37uqdcyh618qvihdnbu8xqrtpr6v72,MxROombs,2020-0188,2020-05-07,18:56:49,19:13:00,NA,incomplete,20,shape,0,left,Green_Triangle_Grid_4.jpg,Red_Triangle_Dots_2.jpg,Blue_Plus_Stripes_4.jpg,left,986.7599999997765,true,NA,true
MxROombs,33cla8o0nlo9ukh858i8v1jgjowfr3,37uqdcyh618qvihdnbu8xqrtpr6v72,MxROombs,2020-0188,2020-05-07,18:56:49,19:13:00,NA,incomplete,21,shape,0,right,Purple_Circle_Grid_2.jpg,Red_Triangle_Stripes_2.jpg,Green_Circle_Chess_4.jpg,right,676.6049999278039,true,NA,true
MxROombs,33cla8o0nlo9ukh858i8v1jgjowfr3,37uqdcyh618qvihdnbu8xqrtpr6v72,MxROombs,2020-0188,2020-05-07,18:56:49,19:13:00,NA,incomplete,22,shape,1,left,Purple_Star_Stripes_4.jpg,Blue_Star_Dots_3.jpg,Red_Circle_Chess_4.jpg,left,875.4450001288205,true,NA,true
MxROombs,33cla8o0nlo9ukh858i8v1jgjowfr3,37uqdcyh618qvihdnbu8xqrtpr6v72,MxROombs,2020-0188,2020-05-07,18:56:49,19:13:00,NA,incomplete,23,shape,1,right,Purple_Triangle_Dots_1.jpg,Blue_Plus_Chess_1.jpg,Red_Triangle_Grid_3.jpg,right,647.5849999114871,true,NA,true
MxROombs,33cla8o0nlo9ukh858i8v1jgjowfr3,37uqdcyh618qvihdnbu8xqrtpr6v72,MxROombs,2020-0188,2020-05-07,18:56:49,19:13:00,NA,incomplete,24,shape,1,right,Green_Star_Grid_4.jpg,Purple_Plus_Chess_4.jpg,Red_Star_Stripes_3.jpg,right,752.2899999748915,true,NA,true
MxROombs,33cla8o0nlo9ukh858i8v1jgjowfr3,37uqdcyh618qvihdnbu8xqrtpr6v72,MxROombs,2020-0188,2020-05-07,18:56:49,19:13:00,NA,incomplete,25,shape,1,right,Purple_Triangle_Dots_4.jpg,Blue_Plus_Chess_4.jpg,Red_Triangle_Grid_2.jpg,right,662.7050000242889,true,NA,true
MxROombs,33cla8o0nlo9ukh858i8v1jgjowfr3,37uqdcyh618qvihdnbu8xqrtpr6v72,MxROombs,2020-0188,2020-05-07,18:56:49,19:13:00,NA,incomplete,26,shape,1,right,Blue_Star_Dots_4.jpg,Green_Plus_Chess_4.jpg,Red_Star_Stripes_3.jpg,right,690.1750001125038,true,NA,true
MxROombs,33cla8o0nlo9ukh858i8v1jgjowfr3,37uqdcyh618qvihdnbu8xqrtpr6v72,MxROombs,2020-0188,2020-05-07,18:56:49,19:13:00,NA,incomplete,27,shape,1,left,Red_Triangle_Chess_2.jpg,Blue_Triangle_Grid_4.jpg,Green_Plus_Stripes_2.jpg,left,785.1249999366701,true,NA,true
MxROombs,33cla8o0nlo9ukh858i8v1jgjowfr3,37uqdcyh618qvihdnbu8xqrtpr6v72,MxROombs,2020-0188,2020-05-07,18:56:49,19:13:00,NA,incomplete,28,shape,0,right,Red_Star_Stripes_4.jpg,Blue_Circle_Dots_4.jpg,Purple_Star_Grid_3.jpg,right,648.6700000241399,true,NA,true
MxROombs,33cla8o0nlo9ukh858i8v1jgjowfr3,37uqdcyh618qvihdnbu8xqrtpr6v72,MxROombs,2020-0188,2020-05-07,18:56:49,19:13:00,NA,incomplete,29,shape,0,right,Red_Circle_Grid_4.jpg,Blue_Triangle_Chess_4.jpg,Green_Circle_Stripes_2.jpg,right,705.3149999119341,true,NA,true
MxROombs,33cla8o0nlo9ukh858i8v1jgjowfr3,37uqdcyh618qvihdnbu8xqrtpr6v72,MxROombs,2020-0188,2020-05-07,18:56:49,19:13:00,NA,incomplete,30,shape,1,left,Green_Plus_Stripes_2.jpg,Blue_Plus_Grid_3.jpg,Red_Triangle_Chess_2.jpg,left,850.3049998544157,true,NA,true
MxROombs,33cla8o0nlo9ukh858i8v1jgjowfr3,37uqdcyh618qvihdnbu8xqrtpr6v72,MxROombs,2020-0188,2020-05-07,18:56:49,19:13:00,NA,incomplete,31,shape,1,left,Green_Triangle_Chess_2.jpg,Red_Triangle_Dots_3.jpg,Blue_Star_Grid_2.jpg,left,939.9149999953806,true,NA,true
MxROombs,33cla8o0nlo9ukh858i8v1jgjowfr3,37uqdcyh618qvihdnbu8xqrtpr6v72,MxROombs,2020-0188,2020-05-07,18:56:49,19:13:00,NA,incomplete,32,shape,1,left,Purple_Triangle_Chess_4.jpg,Green_Triangle_Dots_2.jpg,Red_Star_Grid_4.jpg,left,1445.839999942109,true,NA,true
MxROombs,33cla8o0nlo9ukh858i8v1jgjowfr3,37uqdcyh618qvihdnbu8xqrtpr6v72,MxROombs,2020-0188,2020-05-07,18:56:49,19:13:00,NA,incomplete,33,shape,1,right,Blue_Triangle_Grid_2.jpg,Green_Circle_Stripes_2.jpg,Purple_Triangle_Chess_1.jpg,right,839.0049999579787,true,NA,true
MxROombs,33cla8o0nlo9ukh858i8v1jgjowfr3,37uqdcyh618qvihdnbu8xqrtpr6v72,MxROombs,2020-0188,2020-05-07,18:56:49,19:13:00,NA,incomplete,34,shape,1,left,Blue_Star_Stripes_1.jpg,Purple_Star_Grid_3.jpg,Red_Plus_Dots_1.jpg,left,756.495000096038,true,NA,true
MxROombs,33cla8o0nlo9ukh858i8v1jgjowfr3,37uqdcyh618qvihdnbu8xqrtpr6v72,MxROombs,2020-0188,2020-05-07,18:56:49,19:13:00,NA,incomplete,35,shape,1,right,Green_Star_Dots_2.jpg,Blue_Triangle_Chess_2.jpg,Purple_Star_Grid_1.jpg,right,618.6599999200553,true,NA,true
MxROombs,33cla8o0nlo9ukh858i8v1jgjowfr3,37uqdcyh618qvihdnbu8xqrtpr6v72,MxROombs,2020-0188,2020-05-07,18:56:49,19:13:00,NA,incomplete,36,shape,0,left,Purple_Star_Stripes_3.jpg,Green_Star_Chess_4.jpg,Blue_Plus_Grid_3.jpg,left,1086.634999839589,true,NA,true
MxROombs,33cla8o0nlo9ukh858i8v1jgjowfr3,37uqdcyh618qvihdnbu8xqrtpr6v72,MxROombs,2020-0188,2020-05-07,18:56:49,19:13:00,NA,incomplete,37,shape,1,right,Red_Star_Stripes_1.jpg,Blue_Plus_Dots_1.jpg,Purple_Star_Chess_4.jpg,right,1878.169999923557,true,NA,true
MxROombs,33cla8o0nlo9ukh858i8v1jgjowfr3,37uqdcyh618qvihdnbu8xqrtpr6v72,MxROombs,2020-0188,2020-05-07,18:56:49,19:13:00,NA,incomplete,38,shape,1,left,Purple_Triangle_Stripes_3.jpg,Blue_Triangle_Grid_1.jpg,Green_Plus_Dots_3.jpg,left,857.5900001451373,true,NA,true
MxROombs,33cla8o0nlo9ukh858i8v1jgjowfr3,37uqdcyh618qvihdnbu8xqrtpr6v72,MxROombs,2020-0188,2020-05-07,18:56:49,19:13:00,NA,incomplete,39,shape,1,left,Red_Plus_Grid_3.jpg,Blue_Plus_Stripes_4.jpg,Purple_Triangle_Dots_3.jpg,left,718.0250000674278,true,NA,true
MxROombs,33cla8o0nlo9ukh858i8v1jgjowfr3,37uqdcyh618qvihdnbu8xqrtpr6v72,MxROombs,2020-0188,2020-05-07,18:56:49,19:13:00,NA,incomplete,0,number,1,left,Red_Circle_Chess_4.jpg,Purple_Star_Dots_4.jpg,Green_Circle_Grid_1.jpg,right,780.1500000059605,false,low,false
MxROombs,33cla8o0nlo9ukh858i8v1jgjowfr3,37uqdcyh618qvihdnbu8xqrtpr6v72,MxROombs,2020-0188,2020-05-07,18:56:49,19:13:00,NA,incomplete,1,number,1,left,Red_Plus_Grid_1.jpg,Green_Star_Stripes_1.jpg,Purple_Plus_Dots_2.jpg,right,1218.5100000351667,false,low,false
MxROombs,33cla8o0nlo9ukh858i8v1jgjowfr3,37uqdcyh618qvihdnbu8xqrtpr6v72,MxROombs,2020-0188,2020-05-07,18:56:49,19:13:00,NA,incomplete,2,number,1,right,Red_Star_Stripes_2.jpg,Green_Star_Chess_1.jpg,Blue_Triangle_Dots_2.jpg,right,850.9450000710785,true,low,false
MxROombs,33cla8o0nlo9ukh858i8v1jgjowfr3,37uqdcyh618qvihdnbu8xqrtpr6v72,MxROombs,2020-0188,2020-05-07,18:56:49,19:13:00,NA,incomplete,3,number,1,left,Green_Triangle_Chess_1.jpg,Blue_Star_Grid_1.jpg,Red_Triangle_Dots_4.jpg,left,544.9400001671165,true,low,false
MxROombs,33cla8o0nlo9ukh858i8v1jgjowfr3,37uqdcyh618qvihdnbu8xqrtpr6v72,MxROombs,2020-0188,2020-05-07,18:56:49,19:13:00,NA,incomplete,4,number,1,right,Purple_Triangle_Dots_3.jpg,Blue_Triangle_Stripes_1.jpg,Red_Circle_Grid_3.jpg,right,853.67999994196,true,low,false
MxROombs,33cla8o0nlo9ukh858i8v1jgjowfr3,37uqdcyh618qvihdnbu8xqrtpr6v72,MxROombs,2020-0188,2020-05-07,18:56:49,19:13:00,NA,incomplete,5,number,0,left,Blue_Star_Dots_3.jpg,Purple_Triangle_Grid_3.jpg,Red_Star_Chess_2.jpg,left,652.1749999374151,true,low,false
MxROombs,33cla8o0nlo9ukh858i8v1jgjowfr3,37uqdcyh618qvihdnbu8xqrtpr6v72,MxROombs,2020-0188,2020-05-07,18:56:49,19:13:00,NA,incomplete,6,number,1,right,Purple_Plus_Dots_4.jpg,Blue_Plus_Grid_3.jpg,Green_Star_Stripes_4.jpg,right,876.8350000027567,true,low,false
MxROombs,33cla8o0nlo9ukh858i8v1jgjowfr3,37uqdcyh618qvihdnbu8xqrtpr6v72,MxROombs,2020-0188,2020-05-07,18:56:49,19:13:00,NA,incomplete,7,number,1,left,Purple_Triangle_Stripes_1.jpg,Blue_Star_Chess_1.jpg,Green_Triangle_Grid_2.jpg,left,686.0549999400973,true,low,false
MxROombs,33cla8o0nlo9ukh858i8v1jgjowfr3,37uqdcyh618qvihdnbu8xqrtpr6v72,MxROombs,2020-0188,2020-05-07,18:56:49,19:13:00,NA,incomplete,8,number,1,right,Blue_Triangle_Dots_4.jpg,Red_Triangle_Chess_1.jpg,Green_Plus_Grid_4.jpg,right,828.0200001318008,true,low,false
MxROombs,33cla8o0nlo9ukh858i8v1jgjowfr3,37uqdcyh618qvihdnbu8xqrtpr6v72,MxROombs,2020-0188,2020-05-07,18:56:49,19:13:00,NA,incomplete,9,number,1,left,Green_Triangle_Chess_4.jpg,Blue_Circle_Stripes_4.jpg,Red_Triangle_Dots_2.jpg,left,746.8000000808388,true,low,false
MxROombs,33cla8o0nlo9ukh858i8v1jgjowfr3,37uqdcyh618qvihdnbu8xqrtpr6v72,MxROombs,2020-0188,2020-05-07,18:56:49,19:13:00,NA,incomplete,10,number,1,right,Purple_Star_Grid_3.jpg,Blue_Star_Stripes_1.jpg,Green_Circle_Chess_3.jpg,right,600.7850000169128,true,low,false
MxROombs,33cla8o0nlo9ukh858i8v1jgjowfr3,37uqdcyh618qvihdnbu8xqrtpr6v72,MxROombs,2020-0188,2020-05-07,18:56:49,19:13:00,NA,incomplete,11,number,0,left,Green_Plus_Chess_3.jpg,Purple_Triangle_Grid_3.jpg,Red_Plus_Stripes_2.jpg,left,821.8000000342727,true,low,false
MxROombs,33cla8o0nlo9ukh858i8v1jgjowfr3,37uqdcyh618qvihdnbu8xqrtpr6v72,MxROombs,2020-0188,2020-05-07,18:56:49,19:13:00,NA,incomplete,12,number,1,right,Purple_Plus_Stripes_3.jpg,Blue_Plus_Dots_2.jpg,Red_Star_Chess_3.jpg,right,630.4800000507385,true,low,false
MxROombs,33cla8o0nlo9ukh858i8v1jgjowfr3,37uqdcyh618qvihdnbu8xqrtpr6v72,MxROombs,2020-0188,2020-05-07,18:56:49,19:13:00,NA,incomplete,13,number,1,right,Purple_Star_Stripes_3.jpg,Red_Star_Dots_4.jpg,Green_Plus_Grid_3.jpg,right,766.1250000819564,true,low,false
MxROombs,33cla8o0nlo9ukh858i8v1jgjowfr3,37uqdcyh618qvihdnbu8xqrtpr6v72,MxROombs,2020-0188,2020-05-07,18:56:49,19:13:00,NA,incomplete,14,number,1,right,Purple_Triangle_Stripes_4.jpg,Red_Triangle_Chess_3.jpg,Blue_Circle_Dots_4.jpg,right,734.7150000277907,true,low,false
MxROombs,33cla8o0nlo9ukh858i8v1jgjowfr3,37uqdcyh618qvihdnbu8xqrtpr6v72,MxROombs,2020-0188,2020-05-07,18:56:49,19:13:00,NA,incomplete,15,number,0,left,Blue_Plus_Grid_4.jpg,Purple_Triangle_Stripes_4.jpg,Green_Plus_Chess_2.jpg,left,816.0950001329184,true,low,false
MxROombs,33cla8o0nlo9ukh858i8v1jgjowfr3,37uqdcyh618qvihdnbu8xqrtpr6v72,MxROombs,2020-0188,2020-05-07,18:56:49,19:13:00,NA,incomplete,16,number,0,right,Green_Circle_Chess_2.jpg,Purple_Circle_Grid_1.jpg,Blue_Triangle_Dots_2.jpg,right,741.8949999846518,true,low,false
MxROombs,33cla8o0nlo9ukh858i8v1jgjowfr3,37uqdcyh618qvihdnbu8xqrtpr6v72,MxROombs,2020-0188,2020-05-07,18:56:49,19:13:00,NA,incomplete,17,number,1,left,Green_Plus_Grid_1.jpg,Red_Circle_Chess_1.jpg,Blue_Plus_Stripes_3.jpg,right,740.9850000403821,false,low,false
MxROombs,33cla8o0nlo9ukh858i8v1jgjowfr3,37uqdcyh618qvihdnbu8xqrtpr6v72,MxROombs,2020-0188,2020-05-07,18:56:49,19:13:00,NA,incomplete,18,number,1,left,Blue_Plus_Chess_3.jpg,Purple_Circle_Stripes_3.jpg,Green_Plus_Dots_2.jpg,left,1030.4300000425428,true,low,false
MxROombs,33cla8o0nlo9ukh858i8v1jgjowfr3,37uqdcyh618qvihdnbu8xqrtpr6v72,MxROombs,2020-0188,2020-05-07,18:56:49,19:13:00,NA,incomplete,19,number,1,left,Green_Circle_Stripes_4.jpg,Blue_Star_Chess_4.jpg,Purple_Circle_Dots_3.jpg,left,935.8349998947233,true,low,false
MxROombs,33cla8o0nlo9ukh858i8v1jgjowfr3,37uqdcyh618qvihdnbu8xqrtpr6v72,MxROombs,2020-0188,2020-05-07,18:56:49,19:13:00,NA,incomplete,20,number,1,right,Purple_Star_Chess_2.jpg,Blue_Star_Stripes_1.jpg,Green_Plus_Dots_2.jpg,right,730.100000044331,true,low,false
MxROombs,33cla8o0nlo9ukh858i8v1jgjowfr3,37uqdcyh618qvihdnbu8xqrtpr6v72,MxROombs,2020-0188,2020-05-07,18:56:49,19:13:00,NA,incomplete,21,number,1,left,Purple_Plus_Grid_3.jpg,Blue_Circle_Stripes_3.jpg,Green_Plus_Chess_1.jpg,left,746.0199999623001,true,low,false
MxROombs,33cla8o0nlo9ukh858i8v1jgjowfr3,37uqdcyh618qvihdnbu8xqrtpr6v72,MxROombs,2020-0188,2020-05-07,18:56:49,19:13:00,NA,incomplete,22,number,1,right,Blue_Star_Chess_3.jpg,Green_Star_Stripes_4.jpg,Purple_Triangle_Dots_3.jpg,right,710.9699998982251,true,low,false
MxROombs,33cla8o0nlo9ukh858i8v1jgjowfr3,37uqdcyh618qvihdnbu8xqrtpr6v72,MxROombs,2020-0188,2020-05-07,18:56:49,19:13:00,NA,incomplete,23,number,0,left,Green_Plus_Stripes_1.jpg,Blue_Triangle_Dots_1.jpg,Purple_Plus_Grid_4.jpg,left,741.5000000037253,true,low,false
MxROombs,33cla8o0nlo9ukh858i8v1jgjowfr3,37uqdcyh618qvihdnbu8xqrtpr6v72,MxROombs,2020-0188,2020-05-07,18:56:49,19:13:00,NA,incomplete,24,number,1,left,Purple_Circle_Chess_1.jpg,Green_Plus_Dots_1.jpg,Blue_Circle_Grid_3.jpg,left,721.665000077337,true,low,false
MxROombs,33cla8o0nlo9ukh858i8v1jgjowfr3,37uqdcyh618qvihdnbu8xqrtpr6v72,MxROombs,2020-0188,2020-05-07,18:56:49,19:13:00,NA,incomplete,25,number,1,right,Red_Triangle_Grid_4.jpg,Purple_Triangle_Chess_2.jpg,Green_Circle_Dots_4.jpg,right,722.4350001197308,true,low,false
MxROombs,33cla8o0nlo9ukh858i8v1jgjowfr3,37uqdcyh618qvihdnbu8xqrtpr6v72,MxROombs,2020-0188,2020-05-07,18:56:49,19:13:00,NA,incomplete,26,number,1,right,Purple_Triangle_Grid_4.jpg,Blue_Triangle_Chess_2.jpg,Red_Star_Dots_4.jpg,right,654.1650001890957,true,low,false
MxROombs,33cla8o0nlo9ukh858i8v1jgjowfr3,37uqdcyh618qvihdnbu8xqrtpr6v72,MxROombs,2020-0188,2020-05-07,18:56:49,19:13:00,NA,incomplete,27,number,1,right,Purple_Triangle_Grid_1.jpg,Blue_Triangle_Dots_4.jpg,Red_Star_Chess_1.jpg,right,743.5250000562519,true,low,false
MxROombs,33cla8o0nlo9ukh858i8v1jgjowfr3,37uqdcyh618qvihdnbu8xqrtpr6v72,MxROombs,2020-0188,2020-05-07,18:56:49,19:13:00,NA,incomplete,28,number,1,left,Green_Circle_Grid_1.jpg,Blue_Star_Dots_1.jpg,Red_Circle_Stripes_3.jpg,left,697.3749999888241,true,low,false
MxROombs,33cla8o0nlo9ukh858i8v1jgjowfr3,37uqdcyh618qvihdnbu8xqrtpr6v72,MxROombs,2020-0188,2020-05-07,18:56:49,19:13:00,NA,incomplete,29,number,0,left,Red_Plus_Dots_2.jpg,Blue_Star_Chess_2.jpg,Green_Plus_Stripes_4.jpg,left,735.869999974966,true,low,false
MxROombs,33cla8o0nlo9ukh858i8v1jgjowfr3,37uqdcyh618qvihdnbu8xqrtpr6v72,MxROombs,2020-0188,2020-05-07,18:56:49,19:13:00,NA,incomplete,30,shape,1,right,Blue_Plus_Chess_3.jpg,Green_Star_Dots_3.jpg,Purple_Plus_Stripes_1.jpg,left,776.6299999784678,false,low,false
MxROombs,33cla8o0nlo9ukh858i8v1jgjowfr3,37uqdcyh618qvihdnbu8xqrtpr6v72,MxROombs,2020-0188,2020-05-07,18:56:49,19:13:00,NA,incomplete,31,shape,1,right,Red_Star_Stripes_4.jpg,Green_Circle_Dots_4.jpg,Blue_Star_Chess_3.jpg,right,1359.8950000014156,true,low,false
MxROombs,33cla8o0nlo9ukh858i8v1jgjowfr3,37uqdcyh618qvihdnbu8xqrtpr6v72,MxROombs,2020-0188,2020-05-07,18:56:49,19:13:00,NA,incomplete,32,shape,1,left,Purple_Star_Dots_3.jpg,Red_Star_Chess_1.jpg,Blue_Plus_Stripes_3.jpg,left,752.1850001066923,true,low,false
MxROombs,33cla8o0nlo9ukh858i8v1jgjowfr3,37uqdcyh618qvihdnbu8xqrtpr6v72,MxROombs,2020-0188,2020-05-07,18:56:49,19:13:00,NA,incomplete,33,shape,1,right,Red_Triangle_Chess_2.jpg,Green_Star_Dots_2.jpg,Blue_Triangle_Grid_3.jpg,right,645.5299998633564,true,low,false
MxROombs,33cla8o0nlo9ukh858i8v1jgjowfr3,37uqdcyh618qvihdnbu8xqrtpr6v72,MxROombs,2020-0188,2020-05-07,18:56:49,19:13:00,NA,incomplete,34,shape,1,left,Green_Plus_Chess_3.jpg,Blue_Plus_Grid_2.jpg,Red_Circle_Stripes_3.jpg,left,632.8150001354516,true,low,false
MxROombs,33cla8o0nlo9ukh858i8v1jgjowfr3,37uqdcyh618qvihdnbu8xqrtpr6v72,MxROombs,2020-0188,2020-05-07,18:56:49,19:13:00,NA,incomplete,35,shape,1,right,Red_Circle_Chess_1.jpg,Green_Star_Stripes_1.jpg,Blue_Circle_Dots_4.jpg,right,515.5849999282509,true,low,false
MxROombs,33cla8o0nlo9ukh858i8v1jgjowfr3,37uqdcyh618qvihdnbu8xqrtpr6v72,MxROombs,2020-0188,2020-05-07,18:56:49,19:13:00,NA,incomplete,36,shape,1,right,Blue_Star_Stripes_3.jpg,Red_Triangle_Grid_3.jpg,Green_Star_Chess_2.jpg,right,561.2099999561906,true,low,false
MxROombs,33cla8o0nlo9ukh858i8v1jgjowfr3,37uqdcyh618qvihdnbu8xqrtpr6v72,MxROombs,2020-0188,2020-05-07,18:56:49,19:13:00,NA,incomplete,37,shape,1,left,Red_Circle_Dots_4.jpg,Blue_Circle_Stripes_3.jpg,Green_Plus_Grid_4.jpg,right,925.7050000596792,false,low,false
MxROombs,33cla8o0nlo9ukh858i8v1jgjowfr3,37uqdcyh618qvihdnbu8xqrtpr6v72,MxROombs,2020-0188,2020-05-07,18:56:49,19:13:00,NA,incomplete,38,shape,1,left,Blue_Triangle_Dots_2.jpg,Green_Triangle_Chess_4.jpg,Purple_Circle_Stripes_2.jpg,left,621.0500001907349,true,low,false
MxROombs,33cla8o0nlo9ukh858i8v1jgjowfr3,37uqdcyh618qvihdnbu8xqrtpr6v72,MxROombs,2020-0188,2020-05-07,18:56:49,19:13:00,NA,incomplete,39,shape,0,right,Red_Circle_Chess_3.jpg,Blue_Triangle_Stripes_3.jpg,Green_Circle_Grid_2.jpg,right,824.5749999769032,true,low,false
MxROombs,33cla8o0nlo9ukh858i8v1jgjowfr3,37uqdcyh618qvihdnbu8xqrtpr6v72,MxROombs,2020-0188,2020-05-07,18:56:49,19:13:00,NA,incomplete,40,shape,1,left,Green_Plus_Stripes_3.jpg,Purple_Plus_Chess_4.jpg,Blue_Star_Grid_3.jpg,left,718.970000045374,true,low,false
MxROombs,33cla8o0nlo9ukh858i8v1jgjowfr3,37uqdcyh618qvihdnbu8xqrtpr6v72,MxROombs,2020-0188,2020-05-07,18:56:49,19:13:00,NA,incomplete,41,shape,1,left,Green_Plus_Chess_2.jpg,Blue_Plus_Grid_4.jpg,Red_Triangle_Stripes_2.jpg,left,650.9599999990314,true,low,false
MxROombs,33cla8o0nlo9ukh858i8v1jgjowfr3,37uqdcyh618qvihdnbu8xqrtpr6v72,MxROombs,2020-0188,2020-05-07,18:56:49,19:13:00,NA,incomplete,42,shape,1,left,Blue_Plus_Chess_2.jpg,Purple_Plus_Dots_3.jpg,Green_Circle_Stripes_2.jpg,left,621.114999987185,true,low,false
MxROombs,33cla8o0nlo9ukh858i8v1jgjowfr3,37uqdcyh618qvihdnbu8xqrtpr6v72,MxROombs,2020-0188,2020-05-07,18:56:49,19:13:00,NA,incomplete,43,shape,1,right,Purple_Star_Dots_1.jpg,Green_Circle_Grid_1.jpg,Red_Star_Stripes_3.jpg,right,545.1849999371916,true,low,false
MxROombs,33cla8o0nlo9ukh858i8v1jgjowfr3,37uqdcyh618qvihdnbu8xqrtpr6v72,MxROombs,2020-0188,2020-05-07,18:56:49,19:13:00,NA,incomplete,44,shape,1,right,Purple_Star_Dots_1.jpg,Green_Triangle_Grid_1.jpg,Blue_Star_Chess_2.jpg,right,584.1900000814348,true,low,false
MxROombs,33cla8o0nlo9ukh858i8v1jgjowfr3,37uqdcyh618qvihdnbu8xqrtpr6v72,MxROombs,2020-0188,2020-05-07,18:56:49,19:13:00,NA,incomplete,45,shape,0,left,Purple_Triangle_Grid_3.jpg,Red_Triangle_Stripes_1.jpg,Blue_Star_Chess_3.jpg,left,714.2799999564886,true,low,false
MxROombs,33cla8o0nlo9ukh858i8v1jgjowfr3,37uqdcyh618qvihdnbu8xqrtpr6v72,MxROombs,2020-0188,2020-05-07,18:56:49,19:13:00,NA,incomplete,46,shape,0,right,Red_Triangle_Stripes_3.jpg,Purple_Circle_Grid_3.jpg,Blue_Triangle_Dots_1.jpg,right,726.3950000051409,true,low,false
MxROombs,33cla8o0nlo9ukh858i8v1jgjowfr3,37uqdcyh618qvihdnbu8xqrtpr6v72,MxROombs,2020-0188,2020-05-07,18:56:49,19:13:00,NA,incomplete,47,shape,1,right,Green_Star_Stripes_3.jpg,Blue_Plus_Chess_3.jpg,Red_Star_Grid_2.jpg,left,1019.6100000757724,false,low,false
MxROombs,33cla8o0nlo9ukh858i8v1jgjowfr3,37uqdcyh618qvihdnbu8xqrtpr6v72,MxROombs,2020-0188,2020-05-07,18:56:49,19:13:00,NA,incomplete,48,shape,0,right,Red_Plus_Chess_3.jpg,Blue_Star_Grid_3.jpg,Purple_Plus_Stripes_1.jpg,right,635.0799999199808,true,low,false
MxROombs,33cla8o0nlo9ukh858i8v1jgjowfr3,37uqdcyh618qvihdnbu8xqrtpr6v72,MxROombs,2020-0188,2020-05-07,18:56:49,19:13:00,NA,incomplete,49,shape,1,left,Blue_Circle_Stripes_1.jpg,Green_Circle_Chess_2.jpg,Red_Plus_Grid_1.jpg,right,835.2650001179427,false,low,false
MxROombs,33cla8o0nlo9ukh858i8v1jgjowfr3,37uqdcyh618qvihdnbu8xqrtpr6v72,MxROombs,2020-0188,2020-05-07,18:56:49,19:13:00,NA,incomplete,50,shape,1,left,Blue_Star_Stripes_3.jpg,Red_Star_Chess_1.jpg,Purple_Triangle_Dots_3.jpg,right,1075.874999864027,false,low,false
MxROombs,33cla8o0nlo9ukh858i8v1jgjowfr3,37uqdcyh618qvihdnbu8xqrtpr6v72,MxROombs,2020-0188,2020-05-07,18:56:49,19:13:00,NA,incomplete,51,shape,1,right,Purple_Triangle_Dots_4.jpg,Blue_Star_Chess_4.jpg,Red_Triangle_Stripes_1.jpg,right,979.3249999638647,true,low,false
MxROombs,33cla8o0nlo9ukh858i8v1jgjowfr3,37uqdcyh618qvihdnbu8xqrtpr6v72,MxROombs,2020-0188,2020-05-07,18:56:49,19:13:00,NA,incomplete,52,shape,1,left,Purple_Circle_Chess_1.jpg,Red_Circle_Grid_3.jpg,Blue_Star_Dots_1.jpg,right,803.5550001077354,false,low,false
MxROombs,33cla8o0nlo9ukh858i8v1jgjowfr3,37uqdcyh618qvihdnbu8xqrtpr6v72,MxROombs,2020-0188,2020-05-07,18:56:49,19:13:00,NA,incomplete,53,shape,1,right,Purple_Plus_Dots_3.jpg,Green_Triangle_Chess_3.jpg,Blue_Plus_Grid_1.jpg,right,695.6249999348074,true,low,false
MxROombs,33cla8o0nlo9ukh858i8v1jgjowfr3,37uqdcyh618qvihdnbu8xqrtpr6v72,MxROombs,2020-0188,2020-05-07,18:56:49,19:13:00,NA,incomplete,54,shape,0,right,Green_Star_Dots_3.jpg,Red_Triangle_Stripes_3.jpg,Purple_Star_Grid_2.jpg,right,694.4900001399219,true,low,false
MxROombs,33cla8o0nlo9ukh858i8v1jgjowfr3,37uqdcyh618qvihdnbu8xqrtpr6v72,MxROombs,2020-0188,2020-05-07,18:56:49,19:13:00,NA,incomplete,55,shape,1,right,Blue_Star_Stripes_3.jpg,Green_Circle_Chess_3.jpg,Red_Star_Dots_4.jpg,right,651.8600000999868,true,low,false
MxROombs,33cla8o0nlo9ukh858i8v1jgjowfr3,37uqdcyh618qvihdnbu8xqrtpr6v72,MxROombs,2020-0188,2020-05-07,18:56:49,19:13:00,NA,incomplete,56,shape,1,left,Red_Plus_Stripes_4.jpg,Blue_Plus_Grid_2.jpg,Purple_Star_Dots_4.jpg,left,731.7099999636412,true,low,false
MxROombs,33cla8o0nlo9ukh858i8v1jgjowfr3,37uqdcyh618qvihdnbu8xqrtpr6v72,MxROombs,2020-0188,2020-05-07,18:56:49,19:13:00,NA,incomplete,57,shape,1,right,Green_Triangle_Stripes_2.jpg,Blue_Star_Grid_2.jpg,Purple_Triangle_Dots_4.jpg,right,580.650000134483,true,low,false
MxROombs,33cla8o0nlo9ukh858i8v1jgjowfr3,37uqdcyh618qvihdnbu8xqrtpr6v72,MxROombs,2020-0188,2020-05-07,18:56:49,19:13:00,NA,incomplete,58,shape,1,right,Blue_Star_Grid_3.jpg,Red_Plus_Stripes_3.jpg,Green_Star_Chess_4.jpg,right,586.7899998556823,true,low,false
MxROombs,33cla8o0nlo9ukh858i8v1jgjowfr3,37uqdcyh618qvihdnbu8xqrtpr6v72,MxROombs,2020-0188,2020-05-07,18:56:49,19:13:00,NA,incomplete,59,shape,1,left,Green_Circle_Chess_2.jpg,Blue_Circle_Dots_3.jpg,Purple_Star_Grid_2.jpg,left,594.0349998418242,true,low,false
MxROombs,33cla8o0nlo9ukh858i8v1jgjowfr3,37uqdcyh618qvihdnbu8xqrtpr6v72,MxROombs,2020-0188,2020-05-07,18:56:49,19:13:00,NA,incomplete,60,number,1,left,Red_Star_Stripes_3.jpg,Green_Triangle_Chess_3.jpg,Purple_Star_Grid_4.jpg,right,547.495000064373,false,low,false
MxROombs,33cla8o0nlo9ukh858i8v1jgjowfr3,37uqdcyh618qvihdnbu8xqrtpr6v72,MxROombs,2020-0188,2020-05-07,18:56:49,19:13:00,NA,incomplete,61,number,1,right,Red_Triangle_Stripes_2.jpg,Purple_Triangle_Grid_1.jpg,Blue_Plus_Dots_2.jpg,left,534.4049998093396,false,low,false
MxROombs,33cla8o0nlo9ukh858i8v1jgjowfr3,37uqdcyh618qvihdnbu8xqrtpr6v72,MxROombs,2020-0188,2020-05-07,18:56:49,19:13:00,NA,incomplete,62,number,1,right,Blue_Circle_Chess_1.jpg,Red_Circle_Dots_4.jpg,Purple_Plus_Stripes_1.jpg,left,622.8750001173466,false,low,false
MxROombs,33cla8o0nlo9ukh858i8v1jgjowfr3,37uqdcyh618qvihdnbu8xqrtpr6v72,MxROombs,2020-0188,2020-05-07,18:56:49,19:13:00,NA,incomplete,63,number,1,right,Blue_Circle_Dots_4.jpg,Purple_Circle_Stripes_1.jpg,Green_Plus_Chess_4.jpg,right,626.494999974966,true,low,false
MxROombs,33cla8o0nlo9ukh858i8v1jgjowfr3,37uqdcyh618qvihdnbu8xqrtpr6v72,MxROombs,2020-0188,2020-05-07,18:56:49,19:13:00,NA,incomplete,64,number,0,left,Green_Star_Dots_3.jpg,Blue_Plus_Chess_3.jpg,Purple_Star_Grid_1.jpg,left,679.0800001472235,true,low,false
MxROombs,33cla8o0nlo9ukh858i8v1jgjowfr3,37uqdcyh618qvihdnbu8xqrtpr6v72,MxROombs,2020-0188,2020-05-07,18:56:49,19:13:00,NA,incomplete,65,number,1,left,Purple_Triangle_Chess_2.jpg,Blue_Plus_Grid_2.jpg,Green_Triangle_Stripes_3.jpg,left,723.7350000068545,true,low,false
MxROombs,33cla8o0nlo9ukh858i8v1jgjowfr3,37uqdcyh618qvihdnbu8xqrtpr6v72,MxROombs,2020-0188,2020-05-07,18:56:49,19:13:00,NA,incomplete,66,number,1,right,Green_Circle_Stripes_2.jpg,Blue_Circle_Grid_1.jpg,Purple_Plus_Dots_2.jpg,right,856.8100000265986,true,low,false
MxROombs,33cla8o0nlo9ukh858i8v1jgjowfr3,37uqdcyh618qvihdnbu8xqrtpr6v72,MxROombs,2020-0188,2020-05-07,18:56:49,19:13:00,NA,incomplete,67,number,1,right,Blue_Circle_Stripes_3.jpg,Purple_Circle_Dots_2.jpg,Green_Star_Grid_3.jpg,right,610.2249999530613,true,low,false
MxROombs,33cla8o0nlo9ukh858i8v1jgjowfr3,37uqdcyh618qvihdnbu8xqrtpr6v72,MxROombs,2020-0188,2020-05-07,18:56:49,19:13:00,NA,incomplete,68,number,1,right,Red_Plus_Grid_1.jpg,Green_Plus_Chess_4.jpg,Purple_Circle_Dots_1.jpg,right,679.8600000329316,true,low,false
MxROombs,33cla8o0nlo9ukh858i8v1jgjowfr3,37uqdcyh618qvihdnbu8xqrtpr6v72,MxROombs,2020-0188,2020-05-07,18:56:49,19:13:00,NA,incomplete,69,number,1,left,Red_Circle_Stripes_2.jpg,Green_Plus_Dots_2.jpg,Purple_Circle_Grid_3.jpg,right,691.920000128448,false,low,false
MxROombs,33cla8o0nlo9ukh858i8v1jgjowfr3,37uqdcyh618qvihdnbu8xqrtpr6v72,MxROombs,2020-0188,2020-05-07,18:56:49,19:13:00,NA,incomplete,70,number,0,right,Blue_Plus_Dots_4.jpg,Red_Plus_Grid_3.jpg,Purple_Star_Stripes_4.jpg,right,823.1599999126047,true,low,false
MxROombs,33cla8o0nlo9ukh858i8v1jgjowfr3,37uqdcyh618qvihdnbu8xqrtpr6v72,MxROombs,2020-0188,2020-05-07,18:56:49,19:13:00,NA,incomplete,71,number,1,left,Red_Triangle_Stripes_3.jpg,Purple_Circle_Grid_3.jpg,Green_Triangle_Chess_4.jpg,left,883.2849999889731,true,low,false
MxROombs,33cla8o0nlo9ukh858i8v1jgjowfr3,37uqdcyh618qvihdnbu8xqrtpr6v72,MxROombs,2020-0188,2020-05-07,18:56:49,19:13:00,NA,incomplete,72,number,1,left,Red_Circle_Chess_3.jpg,Purple_Triangle_Dots_3.jpg,Blue_Circle_Grid_1.jpg,left,663.0949999671429,true,low,false
MxROombs,33cla8o0nlo9ukh858i8v1jgjowfr3,37uqdcyh618qvihdnbu8xqrtpr6v72,MxROombs,2020-0188,2020-05-07,18:56:49,19:13:00,NA,incomplete,73,number,1,right,Purple_Circle_Chess_2.jpg,Red_Circle_Stripes_3.jpg,Green_Triangle_Grid_2.jpg,right,772.825000109151,true,low,false
MxROombs,33cla8o0nlo9ukh858i8v1jgjowfr3,37uqdcyh618qvihdnbu8xqrtpr6v72,MxROombs,2020-0188,2020-05-07,18:56:49,19:13:00,NA,incomplete,74,number,0,right,Blue_Circle_Stripes_3.jpg,Purple_Circle_Dots_2.jpg,Red_Star_Grid_3.jpg,right,686.0199999064207,true,low,false
MxROombs,33cla8o0nlo9ukh858i8v1jgjowfr3,37uqdcyh618qvihdnbu8xqrtpr6v72,MxROombs,2020-0188,2020-05-07,18:56:49,19:13:00,NA,incomplete,75,number,1,left,Red_Plus_Chess_3.jpg,Purple_Circle_Dots_3.jpg,Blue_Plus_Grid_1.jpg,left,671.1300001479685,true,low,false
MxROombs,33cla8o0nlo9ukh858i8v1jgjowfr3,37uqdcyh618qvihdnbu8xqrtpr6v72,MxROombs,2020-0188,2020-05-07,18:56:49,19:13:00,NA,incomplete,76,number,1,left,Green_Triangle_Dots_4.jpg,Purple_Circle_Chess_4.jpg,Blue_Triangle_Grid_1.jpg,left,750.2350001595914,true,low,false
MxROombs,33cla8o0nlo9ukh858i8v1jgjowfr3,37uqdcyh618qvihdnbu8xqrtpr6v72,MxROombs,2020-0188,2020-05-07,18:56:49,19:13:00,NA,incomplete,77,number,1,right,Purple_Plus_Chess_4.jpg,Blue_Plus_Stripes_2.jpg,Green_Triangle_Grid_4.jpg,right,827.2199998609722,true,low,false
MxROombs,33cla8o0nlo9ukh858i8v1jgjowfr3,37uqdcyh618qvihdnbu8xqrtpr6v72,MxROombs,2020-0188,2020-05-07,18:56:49,19:13:00,NA,incomplete,78,number,1,right,Purple_Star_Dots_2.jpg,Blue_Star_Grid_3.jpg,Green_Triangle_Chess_2.jpg,right,813.4450002107769,true,low,false
MxROombs,33cla8o0nlo9ukh858i8v1jgjowfr3,37uqdcyh618qvihdnbu8xqrtpr6v72,MxROombs,2020-0188,2020-05-07,18:56:49,19:13:00,NA,incomplete,79,number,1,left,Red_Triangle_Dots_1.jpg,Green_Plus_Grid_1.jpg,Blue_Triangle_Chess_4.jpg,left,654.1499998420477,true,low,false
MxROombs,33cla8o0nlo9ukh858i8v1jgjowfr3,37uqdcyh618qvihdnbu8xqrtpr6v72,MxROombs,2020-0188,2020-05-07,18:56:49,19:13:00,NA,incomplete,80,number,1,right,Purple_Star_Dots_4.jpg,Red_Star_Chess_2.jpg,Green_Triangle_Stripes_4.jpg,right,616.4450000505894,true,low,false
MxROombs,33cla8o0nlo9ukh858i8v1jgjowfr3,37uqdcyh618qvihdnbu8xqrtpr6v72,MxROombs,2020-0188,2020-05-07,18:56:49,19:13:00,NA,incomplete,81,number,0,left,Blue_Circle_Stripes_1.jpg,Green_Star_Dots_1.jpg,Red_Circle_Chess_3.jpg,left,567.4000000581145,true,low,false
MxROombs,33cla8o0nlo9ukh858i8v1jgjowfr3,37uqdcyh618qvihdnbu8xqrtpr6v72,MxROombs,2020-0188,2020-05-07,18:56:49,19:13:00,NA,incomplete,82,number,1,left,Red_Circle_Dots_3.jpg,Green_Triangle_Chess_3.jpg,Purple_Circle_Stripes_1.jpg,left,681.9249999243766,true,low,false
MxROombs,33cla8o0nlo9ukh858i8v1jgjowfr3,37uqdcyh618qvihdnbu8xqrtpr6v72,MxROombs,2020-0188,2020-05-07,18:56:49,19:13:00,NA,incomplete,83,number,1,left,Blue_Circle_Dots_4.jpg,Green_Star_Grid_4.jpg,Purple_Circle_Stripes_1.jpg,left,589.9749998934567,true,low,false
MxROombs,33cla8o0nlo9ukh858i8v1jgjowfr3,37uqdcyh618qvihdnbu8xqrtpr6v72,MxROombs,2020-0188,2020-05-07,18:56:49,19:13:00,NA,incomplete,84,number,1,left,Blue_Triangle_Chess_2.jpg,Purple_Circle_Grid_2.jpg,Red_Triangle_Stripes_4.jpg,left,628.5949999000877,true,low,false
MxROombs,33cla8o0nlo9ukh858i8v1jgjowfr3,37uqdcyh618qvihdnbu8xqrtpr6v72,MxROombs,2020-0188,2020-05-07,18:56:49,19:13:00,NA,incomplete,85,number,1,left,Red_Triangle_Dots_3.jpg,Purple_Star_Stripes_3.jpg,Green_Triangle_Chess_1.jpg,left,676.8350000493228,true,low,false
MxROombs,33cla8o0nlo9ukh858i8v1jgjowfr3,37uqdcyh618qvihdnbu8xqrtpr6v72,MxROombs,2020-0188,2020-05-07,18:56:49,19:13:00,NA,incomplete,86,number,1,left,Green_Plus_Dots_3.jpg,Red_Star_Grid_3.jpg,Purple_Plus_Stripes_2.jpg,left,705.1950001623482,true,low,false
MxROombs,33cla8o0nlo9ukh858i8v1jgjowfr3,37uqdcyh618qvihdnbu8xqrtpr6v72,MxROombs,2020-0188,2020-05-07,18:56:49,19:13:00,NA,incomplete,87,number,0,right,Red_Triangle_Stripes_4.jpg,Purple_Triangle_Chess_1.jpg,Green_Plus_Dots_4.jpg,right,569.8499998543411,true,low,false
MxROombs,33cla8o0nlo9ukh858i8v1jgjowfr3,37uqdcyh618qvihdnbu8xqrtpr6v72,MxROombs,2020-0188,2020-05-07,18:56:49,19:13:00,NA,incomplete,88,number,0,left,Purple_Plus_Stripes_1.jpg,Red_Circle_Dots_1.jpg,Blue_Plus_Grid_4.jpg,left,559.5249999314547,true,low,false
MxROombs,33cla8o0nlo9ukh858i8v1jgjowfr3,37uqdcyh618qvihdnbu8xqrtpr6v72,MxROombs,2020-0188,2020-05-07,18:56:49,19:13:00,NA,incomplete,89,number,1,right,Purple_Triangle_Dots_2.jpg,Blue_Triangle_Chess_4.jpg,Green_Star_Grid_2.jpg,left,841.7899999767542,false,low,false
MxROombs,33cla8o0nlo9ukh858i8v1jgjowfr3,37uqdcyh618qvihdnbu8xqrtpr6v72,MxROombs,2020-0188,2020-05-07,18:56:49,19:13:00,NA,incomplete,90,shape,1,right,Blue_Triangle_Chess_1.jpg,Purple_Star_Grid_1.jpg,Red_Triangle_Stripes_2.jpg,left,790.5500000342727,false,low,false
MxROombs,33cla8o0nlo9ukh858i8v1jgjowfr3,37uqdcyh618qvihdnbu8xqrtpr6v72,MxROombs,2020-0188,2020-05-07,18:56:49,19:13:00,NA,incomplete,91,shape,1,left,Purple_Circle_Chess_1.jpg,Green_Circle_Grid_3.jpg,Red_Triangle_Stripes_1.jpg,left,689.0850001946092,true,low,false
MxROombs,33cla8o0nlo9ukh858i8v1jgjowfr3,37uqdcyh618qvihdnbu8xqrtpr6v72,MxROombs,2020-0188,2020-05-07,18:56:49,19:13:00,NA,incomplete,92,shape,1,left,Purple_Triangle_Chess_4.jpg,Blue_Triangle_Dots_2.jpg,Green_Star_Grid_4.jpg,left,667.6499999593943,true,low,false
MxROombs,33cla8o0nlo9ukh858i8v1jgjowfr3,37uqdcyh618qvihdnbu8xqrtpr6v72,MxROombs,2020-0188,2020-05-07,18:56:49,19:13:00,NA,incomplete,93,shape,0,left,Blue_Plus_Grid_3.jpg,Green_Plus_Chess_1.jpg,Purple_Star_Stripes_3.jpg,left,760.2049999404699,true,low,false
MxROombs,33cla8o0nlo9ukh858i8v1jgjowfr3,37uqdcyh618qvihdnbu8xqrtpr6v72,MxROombs,2020-0188,2020-05-07,18:56:49,19:13:00,NA,incomplete,94,shape,1,left,Blue_Circle_Chess_1.jpg,Purple_Circle_Grid_2.jpg,Red_Plus_Dots_1.jpg,left,546.7699998989701,true,low,false
MxROombs,33cla8o0nlo9ukh858i8v1jgjowfr3,37uqdcyh618qvihdnbu8xqrtpr6v72,MxROombs,2020-0188,2020-05-07,18:56:49,19:13:00,NA,incomplete,95,shape,0,right,Purple_Triangle_Grid_2.jpg,Red_Star_Dots_2.jpg,Blue_Triangle_Chess_3.jpg,right,530.4500001948327,true,low,false
MxROombs,33cla8o0nlo9ukh858i8v1jgjowfr3,37uqdcyh618qvihdnbu8xqrtpr6v72,MxROombs,2020-0188,2020-05-07,18:56:49,19:13:00,NA,incomplete,96,shape,1,right,Green_Plus_Chess_1.jpg,Red_Circle_Grid_1.jpg,Purple_Plus_Stripes_4.jpg,right,722.2400000318885,true,low,false
MxROombs,33cla8o0nlo9ukh858i8v1jgjowfr3,37uqdcyh618qvihdnbu8xqrtpr6v72,MxROombs,2020-0188,2020-05-07,18:56:49,19:13:00,NA,incomplete,97,shape,1,left,Purple_Triangle_Grid_4.jpg,Green_Triangle_Chess_3.jpg,Blue_Circle_Stripes_4.jpg,left,642.604999942705,true,low,false
MxROombs,33cla8o0nlo9ukh858i8v1jgjowfr3,37uqdcyh618qvihdnbu8xqrtpr6v72,MxROombs,2020-0188,2020-05-07,18:56:49,19:13:00,NA,incomplete,98,shape,1,left,Blue_Circle_Stripes_2.jpg,Green_Circle_Dots_3.jpg,Purple_Star_Grid_2.jpg,left,708.1449998077005,true,low,false
MxROombs,33cla8o0nlo9ukh858i8v1jgjowfr3,37uqdcyh618qvihdnbu8xqrtpr6v72,MxROombs,2020-0188,2020-05-07,18:56:49,19:13:00,NA,incomplete,99,shape,1,right,Purple_Triangle_Dots_3.jpg,Blue_Circle_Stripes_3.jpg,Green_Triangle_Grid_4.jpg,right,554.594999877736,true,low,false
MxROombs,33cla8o0nlo9ukh858i8v1jgjowfr3,37uqdcyh618qvihdnbu8xqrtpr6v72,MxROombs,2020-0188,2020-05-07,18:56:49,19:13:00,NA,incomplete,100,shape,1,left,Red_Triangle_Chess_1.jpg,Purple_Triangle_Dots_4.jpg,Blue_Circle_Stripes_1.jpg,left,532.6799999456853,true,low,false
MxROombs,33cla8o0nlo9ukh858i8v1jgjowfr3,37uqdcyh618qvihdnbu8xqrtpr6v72,MxROombs,2020-0188,2020-05-07,18:56:49,19:13:00,NA,incomplete,101,shape,1,left,Purple_Star_Stripes_1.jpg,Green_Star_Chess_4.jpg,Blue_Circle_Dots_1.jpg,left,853.9700000546873,true,low,false
MxROombs,33cla8o0nlo9ukh858i8v1jgjowfr3,37uqdcyh618qvihdnbu8xqrtpr6v72,MxROombs,2020-0188,2020-05-07,18:56:49,19:13:00,NA,incomplete,102,shape,1,left,Green_Triangle_Dots_1.jpg,Purple_Triangle_Chess_2.jpg,Blue_Star_Stripes_1.jpg,left,588.325000135228,true,low,false
MxROombs,33cla8o0nlo9ukh858i8v1jgjowfr3,37uqdcyh618qvihdnbu8xqrtpr6v72,MxROombs,2020-0188,2020-05-07,18:56:49,19:13:00,NA,incomplete,103,shape,1,right,Blue_Star_Grid_3.jpg,Red_Plus_Dots_3.jpg,Green_Star_Chess_1.jpg,right,491.6049998719245,true,low,false
MxROombs,33cla8o0nlo9ukh858i8v1jgjowfr3,37uqdcyh618qvihdnbu8xqrtpr6v72,MxROombs,2020-0188,2020-05-07,18:56:49,19:13:00,NA,incomplete,104,shape,1,right,Green_Circle_Chess_2.jpg,Purple_Star_Stripes_2.jpg,Blue_Circle_Dots_3.jpg,right,534.5799999777228,true,low,false
MxROombs,33cla8o0nlo9ukh858i8v1jgjowfr3,37uqdcyh618qvihdnbu8xqrtpr6v72,MxROombs,2020-0188,2020-05-07,18:56:49,19:13:00,NA,incomplete,105,shape,1,left,Green_Triangle_Stripes_3.jpg,Red_Triangle_Chess_4.jpg,Purple_Plus_Dots_3.jpg,left,604.2100000195205,true,low,false
MxROombs,33cla8o0nlo9ukh858i8v1jgjowfr3,37uqdcyh618qvihdnbu8xqrtpr6v72,MxROombs,2020-0188,2020-05-07,18:56:49,19:13:00,NA,incomplete,106,shape,1,right,Red_Star_Grid_2.jpg,Green_Plus_Dots_2.jpg,Purple_Star_Stripes_3.jpg,right,497.3350001964718,true,low,false
MxROombs,33cla8o0nlo9ukh858i8v1jgjowfr3,37uqdcyh618qvihdnbu8xqrtpr6v72,MxROombs,2020-0188,2020-05-07,18:56:49,19:13:00,NA,incomplete,107,shape,0,left,Purple_Circle_Grid_3.jpg,Green_Circle_Dots_1.jpg,Blue_Plus_Stripes_3.jpg,left,556.3950000796467,true,low,false
MxROombs,33cla8o0nlo9ukh858i8v1jgjowfr3,37uqdcyh618qvihdnbu8xqrtpr6v72,MxROombs,2020-0188,2020-05-07,18:56:49,19:13:00,NA,incomplete,108,shape,0,right,Green_Star_Grid_2.jpg,Blue_Triangle_Stripes_2.jpg,Red_Star_Dots_1.jpg,right,623.7800000235438,true,low,false
MxROombs,33cla8o0nlo9ukh858i8v1jgjowfr3,37uqdcyh618qvihdnbu8xqrtpr6v72,MxROombs,2020-0188,2020-05-07,18:56:49,19:13:00,NA,incomplete,109,shape,1,right,Purple_Triangle_Chess_2.jpg,Green_Star_Dots_2.jpg,Blue_Triangle_Stripes_4.jpg,right,586.600000038743,true,low,false
MxROombs,33cla8o0nlo9ukh858i8v1jgjowfr3,37uqdcyh618qvihdnbu8xqrtpr6v72,MxROombs,2020-0188,2020-05-07,18:56:49,19:13:00,NA,incomplete,110,shape,1,right,Purple_Plus_Stripes_1.jpg,Red_Circle_Chess_1.jpg,Green_Plus_Dots_3.jpg,right,533.3799999207258,true,low,false
MxROombs,33cla8o0nlo9ukh858i8v1jgjowfr3,37uqdcyh618qvihdnbu8xqrtpr6v72,MxROombs,2020-0188,2020-05-07,18:56:49,19:13:00,NA,incomplete,111,shape,1,left,Purple_Circle_Dots_2.jpg,Green_Circle_Grid_1.jpg,Blue_Plus_Stripes_2.jpg,left,492.2450000885874,true,low,false
MxROombs,33cla8o0nlo9ukh858i8v1jgjowfr3,37uqdcyh618qvihdnbu8xqrtpr6v72,MxROombs,2020-0188,2020-05-07,18:56:49,19:13:00,NA,incomplete,112,shape,0,right,Purple_Circle_Dots_4.jpg,Red_Star_Chess_4.jpg,Green_Circle_Stripes_2.jpg,right,501.92000018432736,true,low,false
MxROombs,33cla8o0nlo9ukh858i8v1jgjowfr3,37uqdcyh618qvihdnbu8xqrtpr6v72,MxROombs,2020-0188,2020-05-07,18:56:49,19:13:00,NA,incomplete,113,shape,1,left,Green_Star_Grid_2.jpg,Blue_Star_Chess_3.jpg,Red_Circle_Stripes_2.jpg,left,521.6850000433624,true,low,false
MxROombs,33cla8o0nlo9ukh858i8v1jgjowfr3,37uqdcyh618qvihdnbu8xqrtpr6v72,MxROombs,2020-0188,2020-05-07,18:56:49,19:13:00,NA,incomplete,114,shape,0,right,Red_Circle_Dots_4.jpg,Purple_Star_Chess_4.jpg,Green_Circle_Grid_3.jpg,right,490.8249999862164,true,low,false
MxROombs,33cla8o0nlo9ukh858i8v1jgjowfr3,37uqdcyh618qvihdnbu8xqrtpr6v72,MxROombs,2020-0188,2020-05-07,18:56:49,19:13:00,NA,incomplete,115,shape,0,left,Blue_Triangle_Dots_3.jpg,Purple_Triangle_Stripes_4.jpg,Green_Star_Grid_3.jpg,left,725.730000063777,true,low,false
MxROombs,33cla8o0nlo9ukh858i8v1jgjowfr3,37uqdcyh618qvihdnbu8xqrtpr6v72,MxROombs,2020-0188,2020-05-07,18:56:49,19:13:00,NA,incomplete,116,shape,1,left,Green_Plus_Chess_4.jpg,Purple_Plus_Grid_3.jpg,Red_Triangle_Dots_4.jpg,right,826.8950001802295,false,low,false
MxROombs,33cla8o0nlo9ukh858i8v1jgjowfr3,37uqdcyh618qvihdnbu8xqrtpr6v72,MxROombs,2020-0188,2020-05-07,18:56:49,19:13:00,NA,incomplete,117,shape,1,right,Red_Plus_Stripes_2.jpg,Purple_Triangle_Dots_2.jpg,Blue_Plus_Chess_4.jpg,right,662.9549998324364,true,low,false
MxROombs,33cla8o0nlo9ukh858i8v1jgjowfr3,37uqdcyh618qvihdnbu8xqrtpr6v72,MxROombs,2020-0188,2020-05-07,18:56:49,19:13:00,NA,incomplete,118,shape,1,left,Purple_Triangle_Chess_2.jpg,Red_Triangle_Dots_1.jpg,Green_Circle_Grid_2.jpg,left,617.8299998864532,true,low,false
MxROombs,33cla8o0nlo9ukh858i8v1jgjowfr3,37uqdcyh618qvihdnbu8xqrtpr6v72,MxROombs,2020-0188,2020-05-07,18:56:49,19:13:00,NA,incomplete,119,shape,1,left,Purple_Plus_Stripes_2.jpg,Green_Plus_Grid_3.jpg,Blue_Circle_Dots_2.jpg,left,545.515000121668,true,low,false
MxROombs,33cla8o0nlo9ukh858i8v1jgjowfr3,37uqdcyh618qvihdnbu8xqrtpr6v72,MxROombs,2020-0188,2020-05-07,18:56:49,19:13:00,NA,incomplete,120,number,0,right,Blue_Star_Chess_2.jpg,Green_Star_Stripes_1.jpg,Purple_Plus_Grid_2.jpg,left,565.5450001358986,false,low,false
MxROombs,33cla8o0nlo9ukh858i8v1jgjowfr3,37uqdcyh618qvihdnbu8xqrtpr6v72,MxROombs,2020-0188,2020-05-07,18:56:49,19:13:00,NA,incomplete,121,number,1,left,Red_Star_Grid_1.jpg,Blue_Plus_Stripes_1.jpg,Purple_Star_Dots_3.jpg,right,485.91999989002943,false,low,false
MxROombs,33cla8o0nlo9ukh858i8v1jgjowfr3,37uqdcyh618qvihdnbu8xqrtpr6v72,MxROombs,2020-0188,2020-05-07,18:56:49,19:13:00,NA,incomplete,122,number,1,right,Red_Triangle_Stripes_4.jpg,Blue_Triangle_Dots_1.jpg,Purple_Star_Chess_4.jpg,left,507.8149999026209,false,low,false
MxROombs,33cla8o0nlo9ukh858i8v1jgjowfr3,37uqdcyh618qvihdnbu8xqrtpr6v72,MxROombs,2020-0188,2020-05-07,18:56:49,19:13:00,NA,incomplete,123,number,1,right,Green_Circle_Dots_2.jpg,Red_Circle_Grid_3.jpg,Purple_Star_Chess_2.jpg,right,949.0750001277775,true,low,false
MxROombs,33cla8o0nlo9ukh858i8v1jgjowfr3,37uqdcyh618qvihdnbu8xqrtpr6v72,MxROombs,2020-0188,2020-05-07,18:56:49,19:13:00,NA,incomplete,124,number,1,left,Blue_Triangle_Chess_3.jpg,Purple_Circle_Dots_3.jpg,Red_Triangle_Grid_2.jpg,left,679.8000000417233,true,low,false
MxROombs,33cla8o0nlo9ukh858i8v1jgjowfr3,37uqdcyh618qvihdnbu8xqrtpr6v72,MxROombs,2020-0188,2020-05-07,18:56:49,19:13:00,NA,incomplete,125,number,1,right,Red_Circle_Chess_2.jpg,Green_Circle_Grid_1.jpg,Purple_Star_Dots_2.jpg,right,692.9850000888109,true,low,false
MxROombs,33cla8o0nlo9ukh858i8v1jgjowfr3,37uqdcyh618qvihdnbu8xqrtpr6v72,MxROombs,2020-0188,2020-05-07,18:56:49,19:13:00,NA,incomplete,126,number,1,right,Blue_Plus_Grid_1.jpg,Purple_Plus_Stripes_2.jpg,Red_Circle_Dots_1.jpg,right,612.0149998459965,true,low,false
MxROombs,33cla8o0nlo9ukh858i8v1jgjowfr3,37uqdcyh618qvihdnbu8xqrtpr6v72,MxROombs,2020-0188,2020-05-07,18:56:49,19:13:00,NA,incomplete,127,number,1,left,Purple_Triangle_Stripes_1.jpg,Red_Star_Chess_1.jpg,Green_Triangle_Dots_4.jpg,left,626.5350000467151,true,low,false
MxROombs,33cla8o0nlo9ukh858i8v1jgjowfr3,37uqdcyh618qvihdnbu8xqrtpr6v72,MxROombs,2020-0188,2020-05-07,18:56:49,19:13:00,NA,incomplete,128,number,1,left,Blue_Star_Chess_1.jpg,Purple_Circle_Grid_1.jpg,Red_Star_Dots_3.jpg,left,650.7699999492615,true,low,false
MxROombs,33cla8o0nlo9ukh858i8v1jgjowfr3,37uqdcyh618qvihdnbu8xqrtpr6v72,MxROombs,2020-0188,2020-05-07,18:56:49,19:13:00,NA,incomplete,129,number,0,left,Green_Triangle_Chess_2.jpg,Blue_Circle_Dots_2.jpg,Red_Triangle_Grid_3.jpg,left,972.7400001138449,true,low,false
MxROombs,33cla8o0nlo9ukh858i8v1jgjowfr3,37uqdcyh618qvihdnbu8xqrtpr6v72,MxROombs,2020-0188,2020-05-07,18:56:49,19:13:00,NA,incomplete,130,number,1,right,Blue_Star_Grid_1.jpg,Purple_Star_Dots_4.jpg,Red_Circle_Stripes_1.jpg,right,736.7449998855591,true,low,false
MxROombs,33cla8o0nlo9ukh858i8v1jgjowfr3,37uqdcyh618qvihdnbu8xqrtpr6v72,MxROombs,2020-0188,2020-05-07,18:56:49,19:13:00,NA,incomplete,131,number,1,right,Green_Star_Grid_4.jpg,Blue_Star_Chess_3.jpg,Red_Triangle_Stripes_4.jpg,left,1669.5400001481175,false,low,false
MxROombs,33cla8o0nlo9ukh858i8v1jgjowfr3,37uqdcyh618qvihdnbu8xqrtpr6v72,MxROombs,2020-0188,2020-05-07,18:56:49,19:13:00,NA,incomplete,132,number,1,right,Blue_Star_Stripes_1.jpg,Purple_Star_Grid_3.jpg,Green_Triangle_Dots_1.jpg,right,693.36499995552,true,low,false
MxROombs,33cla8o0nlo9ukh858i8v1jgjowfr3,37uqdcyh618qvihdnbu8xqrtpr6v72,MxROombs,2020-0188,2020-05-07,18:56:49,19:13:00,NA,incomplete,133,number,1,left,Purple_Plus_Dots_2.jpg,Green_Triangle_Chess_2.jpg,Red_Plus_Grid_4.jpg,left,734.5249999780208,true,low,false
MxROombs,33cla8o0nlo9ukh858i8v1jgjowfr3,37uqdcyh618qvihdnbu8xqrtpr6v72,MxROombs,2020-0188,2020-05-07,18:56:49,19:13:00,NA,incomplete,134,number,1,right,Red_Circle_Dots_1.jpg,Green_Circle_Stripes_4.jpg,Purple_Star_Chess_1.jpg,right,879.3549998663366,true,low,false
MxROombs,33cla8o0nlo9ukh858i8v1jgjowfr3,37uqdcyh618qvihdnbu8xqrtpr6v72,MxROombs,2020-0188,2020-05-07,18:56:49,19:13:00,NA,incomplete,135,number,1,right,Green_Plus_Dots_1.jpg,Red_Plus_Grid_4.jpg,Blue_Star_Chess_1.jpg,right,674.7300000861287,true,low,false
MxROombs,33cla8o0nlo9ukh858i8v1jgjowfr3,37uqdcyh618qvihdnbu8xqrtpr6v72,MxROombs,2020-0188,2020-05-07,18:56:49,19:13:00,NA,incomplete,136,number,0,right,Blue_Circle_Chess_1.jpg,Purple_Circle_Dots_3.jpg,Green_Plus_Grid_1.jpg,right,705.7100001256913,true,low,false
MxROombs,33cla8o0nlo9ukh858i8v1jgjowfr3,37uqdcyh618qvihdnbu8xqrtpr6v72,MxROombs,2020-0188,2020-05-07,18:56:49,19:13:00,NA,incomplete,137,number,1,right,Red_Star_Grid_3.jpg,Green_Star_Dots_2.jpg,Purple_Triangle_Chess_3.jpg,right,1545.6049998756498,true,low,false
MxROombs,33cla8o0nlo9ukh858i8v1jgjowfr3,37uqdcyh618qvihdnbu8xqrtpr6v72,MxROombs,2020-0188,2020-05-07,18:56:49,19:13:00,NA,incomplete,138,number,1,left,Green_Star_Stripes_4.jpg,Red_Triangle_Chess_4.jpg,Purple_Star_Dots_3.jpg,left,953.8950000423938,true,low,false
MxROombs,33cla8o0nlo9ukh858i8v1jgjowfr3,37uqdcyh618qvihdnbu8xqrtpr6v72,MxROombs,2020-0188,2020-05-07,18:56:49,19:13:00,NA,incomplete,139,number,1,left,Blue_Circle_Stripes_4.jpg,Green_Plus_Grid_4.jpg,Red_Circle_Dots_1.jpg,left,628.7100000772625,true,low,false
MxROombs,33cla8o0nlo9ukh858i8v1jgjowfr3,37uqdcyh618qvihdnbu8xqrtpr6v72,MxROombs,2020-0188,2020-05-07,18:56:49,19:13:00,NA,incomplete,140,shape,1,left,Green_Triangle_Stripes_2.jpg,Purple_Triangle_Dots_4.jpg,Blue_Circle_Grid_2.jpg,right,658.9299999177456,false,low,false
MxROombs,33cla8o0nlo9ukh858i8v1jgjowfr3,37uqdcyh618qvihdnbu8xqrtpr6v72,MxROombs,2020-0188,2020-05-07,18:56:49,19:13:00,NA,incomplete,141,shape,1,right,Red_Plus_Chess_1.jpg,Purple_Circle_Grid_1.jpg,Blue_Plus_Dots_2.jpg,left,643.2700001168996,false,low,false
MxROombs,33cla8o0nlo9ukh858i8v1jgjowfr3,37uqdcyh618qvihdnbu8xqrtpr6v72,MxROombs,2020-0188,2020-05-07,18:56:49,19:13:00,NA,incomplete,142,shape,1,right,Green_Star_Stripes_3.jpg,Purple_Triangle_Dots_3.jpg,Red_Star_Chess_2.jpg,right,851.6249998938292,true,low,false
MxROombs,33cla8o0nlo9ukh858i8v1jgjowfr3,37uqdcyh618qvihdnbu8xqrtpr6v72,MxROombs,2020-0188,2020-05-07,18:56:49,19:13:00,NA,incomplete,143,shape,1,right,Green_Circle_Dots_4.jpg,Blue_Triangle_Chess_4.jpg,Purple_Circle_Grid_1.jpg,right,469.1350001376122,true,low,false
MxROombs,33cla8o0nlo9ukh858i8v1jgjowfr3,37uqdcyh618qvihdnbu8xqrtpr6v72,MxROombs,2020-0188,2020-05-07,18:56:49,19:13:00,NA,incomplete,144,shape,1,right,Purple_Star_Stripes_3.jpg,Green_Triangle_Chess_3.jpg,Red_Star_Dots_1.jpg,right,522.1400000154972,true,low,false
MxROombs,33cla8o0nlo9ukh858i8v1jgjowfr3,37uqdcyh618qvihdnbu8xqrtpr6v72,MxROombs,2020-0188,2020-05-07,18:56:49,19:13:00,NA,incomplete,145,shape,1,right,Purple_Triangle_Grid_2.jpg,Green_Star_Chess_2.jpg,Red_Triangle_Stripes_1.jpg,right,544.4149998947978,true,low,false
MxROombs,33cla8o0nlo9ukh858i8v1jgjowfr3,37uqdcyh618qvihdnbu8xqrtpr6v72,MxROombs,2020-0188,2020-05-07,18:56:49,19:13:00,NA,incomplete,146,shape,1,right,Purple_Plus_Dots_3.jpg,Red_Star_Chess_3.jpg,Green_Plus_Stripes_2.jpg,right,574.8199999798089,true,low,false
MxROombs,33cla8o0nlo9ukh858i8v1jgjowfr3,37uqdcyh618qvihdnbu8xqrtpr6v72,MxROombs,2020-0188,2020-05-07,18:56:49,19:13:00,NA,incomplete,147,shape,1,left,Red_Star_Dots_1.jpg,Blue_Star_Chess_4.jpg,Purple_Circle_Stripes_1.jpg,left,546.7649998608977,true,low,false
MxROombs,33cla8o0nlo9ukh858i8v1jgjowfr3,37uqdcyh618qvihdnbu8xqrtpr6v72,MxROombs,2020-0188,2020-05-07,18:56:49,19:13:00,NA,incomplete,148,shape,1,right,Purple_Circle_Dots_3.jpg,Red_Triangle_Grid_3.jpg,Blue_Circle_Stripes_2.jpg,right,824.0750001277775,true,low,false
MxROombs,33cla8o0nlo9ukh858i8v1jgjowfr3,37uqdcyh618qvihdnbu8xqrtpr6v72,MxROombs,2020-0188,2020-05-07,18:56:49,19:13:00,NA,incomplete,149,shape,1,left,Blue_Star_Dots_3.jpg,Red_Star_Grid_4.jpg,Green_Plus_Chess_3.jpg,left,631.2849998939782,true,low,false
MxROombs,33cla8o0nlo9ukh858i8v1jgjowfr3,37uqdcyh618qvihdnbu8xqrtpr6v72,MxROombs,2020-0188,2020-05-07,18:56:49,19:13:00,NA,incomplete,150,shape,1,left,Blue_Plus_Stripes_2.jpg,Green_Plus_Dots_4.jpg,Purple_Circle_Chess_2.jpg,left,568.2950001209974,true,low,false
MxROombs,33cla8o0nlo9ukh858i8v1jgjowfr3,37uqdcyh618qvihdnbu8xqrtpr6v72,MxROombs,2020-0188,2020-05-07,18:56:49,19:13:00,NA,incomplete,151,shape,1,right,Purple_Star_Dots_1.jpg,Green_Circle_Chess_1.jpg,Blue_Star_Stripes_2.jpg,right,521.7299999203533,true,low,false
MxROombs,33cla8o0nlo9ukh858i8v1jgjowfr3,37uqdcyh618qvihdnbu8xqrtpr6v72,MxROombs,2020-0188,2020-05-07,18:56:49,19:13:00,NA,incomplete,152,shape,1,right,Red_Circle_Chess_2.jpg,Purple_Plus_Dots_2.jpg,Green_Circle_Stripes_3.jpg,right,466.7050000280142,true,low,false
MxROombs,33cla8o0nlo9ukh858i8v1jgjowfr3,37uqdcyh618qvihdnbu8xqrtpr6v72,MxROombs,2020-0188,2020-05-07,18:56:49,19:13:00,NA,incomplete,153,shape,1,right,Blue_Triangle_Stripes_4.jpg,Green_Plus_Grid_4.jpg,Purple_Triangle_Dots_1.jpg,right,522.289999993518,true,low,false
MxROombs,33cla8o0nlo9ukh858i8v1jgjowfr3,37uqdcyh618qvihdnbu8xqrtpr6v72,MxROombs,2020-0188,2020-05-07,18:56:49,19:13:00,NA,incomplete,154,shape,0,right,Purple_Star_Chess_3.jpg,Blue_Plus_Dots_3.jpg,Red_Star_Stripes_1.jpg,right,555.9149999171495,true,low,false
MxROombs,33cla8o0nlo9ukh858i8v1jgjowfr3,37uqdcyh618qvihdnbu8xqrtpr6v72,MxROombs,2020-0188,2020-05-07,18:56:49,19:13:00,NA,incomplete,155,shape,1,left,Red_Plus_Stripes_4.jpg,Purple_Plus_Dots_2.jpg,Blue_Circle_Grid_4.jpg,left,530.629999935627,true,low,false
MxROombs,33cla8o0nlo9ukh858i8v1jgjowfr3,37uqdcyh618qvihdnbu8xqrtpr6v72,MxROombs,2020-0188,2020-05-07,18:56:49,19:13:00,NA,incomplete,156,shape,1,left,Blue_Star_Stripes_4.jpg,Purple_Star_Grid_2.jpg,Green_Plus_Chess_4.jpg,left,614.7350000683218,true,low,false
MxROombs,33cla8o0nlo9ukh858i8v1jgjowfr3,37uqdcyh618qvihdnbu8xqrtpr6v72,MxROombs,2020-0188,2020-05-07,18:56:49,19:13:00,NA,incomplete,157,shape,1,left,Red_Plus_Stripes_1.jpg,Purple_Plus_Grid_4.jpg,Blue_Star_Dots_1.jpg,left,808.6349999066442,true,low,false
MxROombs,33cla8o0nlo9ukh858i8v1jgjowfr3,37uqdcyh618qvihdnbu8xqrtpr6v72,MxROombs,2020-0188,2020-05-07,18:56:49,19:13:00,NA,incomplete,158,shape,1,left,Blue_Plus_Chess_4.jpg,Red_Plus_Stripes_1.jpg,Green_Circle_Grid_4.jpg,left,647.4099999759346,true,low,false
MxROombs,33cla8o0nlo9ukh858i8v1jgjowfr3,37uqdcyh618qvihdnbu8xqrtpr6v72,MxROombs,2020-0188,2020-05-07,18:56:49,19:13:00,NA,incomplete,159,shape,0,left,Green_Circle_Stripes_2.jpg,Purple_Circle_Dots_3.jpg,Blue_Plus_Grid_2.jpg,left,487.56999988108873,true,low,false
MxROombs,33cla8o0nlo9ukh858i8v1jgjowfr3,37uqdcyh618qvihdnbu8xqrtpr6v72,MxROombs,2020-0188,2020-05-07,18:56:49,19:13:00,NA,incomplete,160,number,1,left,Blue_Circle_Stripes_3.jpg,Green_Star_Dots_3.jpg,Purple_Circle_Grid_2.jpg,right,676.4249999541789,false,low,false
MxROombs,33cla8o0nlo9ukh858i8v1jgjowfr3,37uqdcyh618qvihdnbu8xqrtpr6v72,MxROombs,2020-0188,2020-05-07,18:56:49,19:13:00,NA,incomplete,161,number,1,left,Green_Triangle_Chess_2.jpg,Purple_Star_Dots_2.jpg,Blue_Triangle_Stripes_1.jpg,right,531.1450001318008,false,low,false
MxROombs,33cla8o0nlo9ukh858i8v1jgjowfr3,37uqdcyh618qvihdnbu8xqrtpr6v72,MxROombs,2020-0188,2020-05-07,18:56:49,19:13:00,NA,incomplete,162,number,1,right,Purple_Triangle_Grid_1.jpg,Red_Triangle_Stripes_3.jpg,Blue_Circle_Chess_1.jpg,right,765.2700000908226,true,low,false
MxROombs,33cla8o0nlo9ukh858i8v1jgjowfr3,37uqdcyh618qvihdnbu8xqrtpr6v72,MxROombs,2020-0188,2020-05-07,18:56:49,19:13:00,NA,incomplete,163,number,1,right,Green_Circle_Chess_4.jpg,Purple_Circle_Grid_1.jpg,Red_Star_Stripes_4.jpg,right,816.8249998707324,true,low,false
MxROombs,33cla8o0nlo9ukh858i8v1jgjowfr3,37uqdcyh618qvihdnbu8xqrtpr6v72,MxROombs,2020-0188,2020-05-07,18:56:49,19:13:00,NA,incomplete,164,number,1,left,Green_Star_Dots_1.jpg,Purple_Triangle_Chess_1.jpg,Blue_Star_Stripes_3.jpg,left,531.4599999692291,true,low,false
MxROombs,33cla8o0nlo9ukh858i8v1jgjowfr3,37uqdcyh618qvihdnbu8xqrtpr6v72,MxROombs,2020-0188,2020-05-07,18:56:49,19:13:00,NA,incomplete,165,number,1,left,Green_Plus_Grid_2.jpg,Red_Circle_Chess_2.jpg,Blue_Plus_Stripes_3.jpg,left,996.5700001921505,true,low,false
MxROombs,33cla8o0nlo9ukh858i8v1jgjowfr3,37uqdcyh618qvihdnbu8xqrtpr6v72,MxROombs,2020-0188,2020-05-07,18:56:49,19:13:00,NA,incomplete,166,number,1,right,Green_Circle_Grid_4.jpg,Blue_Circle_Dots_2.jpg,Purple_Triangle_Stripes_4.jpg,right,800.0600000377744,true,low,false
MxROombs,33cla8o0nlo9ukh858i8v1jgjowfr3,37uqdcyh618qvihdnbu8xqrtpr6v72,MxROombs,2020-0188,2020-05-07,18:56:49,19:13:00,NA,incomplete,167,number,1,right,Green_Triangle_Dots_4.jpg,Red_Triangle_Chess_1.jpg,Purple_Star_Stripes_4.jpg,right,544.1850000061095,true,low,false
MxROombs,33cla8o0nlo9ukh858i8v1jgjowfr3,37uqdcyh618qvihdnbu8xqrtpr6v72,MxROombs,2020-0188,2020-05-07,18:56:49,19:13:00,NA,incomplete,168,number,1,left,Blue_Triangle_Dots_4.jpg,Red_Circle_Grid_4.jpg,Purple_Triangle_Stripes_3.jpg,right,801.7250001430511,false,low,false
MxROombs,33cla8o0nlo9ukh858i8v1jgjowfr3,37uqdcyh618qvihdnbu8xqrtpr6v72,MxROombs,2020-0188,2020-05-07,18:56:49,19:13:00,NA,incomplete,169,number,0,left,Blue_Star_Dots_1.jpg,Purple_Circle_Grid_1.jpg,Red_Star_Chess_2.jpg,left,611.934999935329,true,low,false
MxROombs,33cla8o0nlo9ukh858i8v1jgjowfr3,37uqdcyh618qvihdnbu8xqrtpr6v72,MxROombs,2020-0188,2020-05-07,18:56:49,19:13:00,NA,incomplete,170,number,1,right,Purple_Triangle_Chess_2.jpg,Red_Triangle_Dots_1.jpg,Blue_Star_Stripes_2.jpg,right,645.445000147447,true,low,false
MxROombs,33cla8o0nlo9ukh858i8v1jgjowfr3,37uqdcyh618qvihdnbu8xqrtpr6v72,MxROombs,2020-0188,2020-05-07,18:56:49,19:13:00,NA,incomplete,171,number,1,left,Blue_Triangle_Chess_4.jpg,Red_Circle_Stripes_4.jpg,Green_Triangle_Grid_3.jpg,right,702.945000026375,false,low,false
MxROombs,33cla8o0nlo9ukh858i8v1jgjowfr3,37uqdcyh618qvihdnbu8xqrtpr6v72,MxROombs,2020-0188,2020-05-07,18:56:49,19:13:00,NA,incomplete,172,number,1,right,Purple_Star_Stripes_3.jpg,Green_Star_Grid_2.jpg,Blue_Plus_Dots_3.jpg,right,960.2550000417978,true,low,false
MxROombs,33cla8o0nlo9ukh858i8v1jgjowfr3,37uqdcyh618qvihdnbu8xqrtpr6v72,MxROombs,2020-0188,2020-05-07,18:56:49,19:13:00,NA,incomplete,173,number,0,right,Purple_Plus_Grid_3.jpg,Green_Plus_Stripes_1.jpg,Red_Triangle_Dots_3.jpg,right,636.8449998553842,true,low,false
MxROombs,33cla8o0nlo9ukh858i8v1jgjowfr3,37uqdcyh618qvihdnbu8xqrtpr6v72,MxROombs,2020-0188,2020-05-07,18:56:49,19:13:00,NA,incomplete,174,number,1,left,Red_Triangle_Dots_4.jpg,Green_Plus_Grid_4.jpg,Blue_Triangle_Chess_1.jpg,left,641.7100001126528,true,low,false
MxROombs,33cla8o0nlo9ukh858i8v1jgjowfr3,37uqdcyh618qvihdnbu8xqrtpr6v72,MxROombs,2020-0188,2020-05-07,18:56:49,19:13:00,NA,incomplete,175,number,1,right,Purple_Circle_Dots_3.jpg,Green_Circle_Stripes_1.jpg,Blue_Star_Chess_3.jpg,right,772.4099999759346,true,low,false
MxROombs,33cla8o0nlo9ukh858i8v1jgjowfr3,37uqdcyh618qvihdnbu8xqrtpr6v72,MxROombs,2020-0188,2020-05-07,18:56:49,19:13:00,NA,incomplete,176,number,0,right,Red_Plus_Stripes_1.jpg,Green_Plus_Chess_3.jpg,Purple_Triangle_Dots_1.jpg,right,687.0800000615418,true,low,false
MxROombs,33cla8o0nlo9ukh858i8v1jgjowfr3,37uqdcyh618qvihdnbu8xqrtpr6v72,MxROombs,2020-0188,2020-05-07,18:56:49,19:13:00,NA,incomplete,177,number,1,left,Red_Star_Grid_3.jpg,Green_Plus_Dots_3.jpg,Purple_Star_Stripes_4.jpg,left,838.9650001190603,true,low,false
MxROombs,33cla8o0nlo9ukh858i8v1jgjowfr3,37uqdcyh618qvihdnbu8xqrtpr6v72,MxROombs,2020-0188,2020-05-07,18:56:49,19:13:00,NA,incomplete,178,number,1,left,Blue_Circle_Grid_1.jpg,Red_Star_Dots_1.jpg,Green_Circle_Stripes_2.jpg,left,803.5249998793006,true,low,false
MxROombs,33cla8o0nlo9ukh858i8v1jgjowfr3,37uqdcyh618qvihdnbu8xqrtpr6v72,MxROombs,2020-0188,2020-05-07,18:56:49,19:13:00,NA,incomplete,179,number,1,right,Purple_Triangle_Chess_4.jpg,Blue_Triangle_Dots_2.jpg,Green_Circle_Stripes_4.jpg,right,705.6299999821931,true,low,false
MxROombs,33cla8o0nlo9ukh858i8v1jgjowfr3,37uqdcyh618qvihdnbu8xqrtpr6v72,MxROombs,2020-0188,2020-05-07,18:56:49,19:13:00,NA,incomplete,180,shape,1,right,Blue_Triangle_Dots_1.jpg,Purple_Circle_Stripes_1.jpg,Red_Triangle_Chess_4.jpg,left,548.1500001624227,false,low,false
MxROombs,33cla8o0nlo9ukh858i8v1jgjowfr3,37uqdcyh618qvihdnbu8xqrtpr6v72,MxROombs,2020-0188,2020-05-07,18:56:49,19:13:00,NA,incomplete,181,shape,1,left,Blue_Star_Chess_1.jpg,Purple_Star_Grid_3.jpg,Green_Triangle_Stripes_1.jpg,right,602.0750000607222,false,low,false
MxROombs,33cla8o0nlo9ukh858i8v1jgjowfr3,37uqdcyh618qvihdnbu8xqrtpr6v72,MxROombs,2020-0188,2020-05-07,18:56:49,19:13:00,NA,incomplete,182,shape,1,right,Green_Plus_Grid_2.jpg,Purple_Triangle_Stripes_2.jpg,Red_Plus_Dots_4.jpg,right,668.050000211224,true,low,false
MxROombs,33cla8o0nlo9ukh858i8v1jgjowfr3,37uqdcyh618qvihdnbu8xqrtpr6v72,MxROombs,2020-0188,2020-05-07,18:56:49,19:13:00,NA,incomplete,183,shape,0,left,Purple_Plus_Grid_3.jpg,Red_Plus_Chess_4.jpg,Blue_Triangle_Stripes_3.jpg,left,728.8649999536574,true,low,false
MxROombs,33cla8o0nlo9ukh858i8v1jgjowfr3,37uqdcyh618qvihdnbu8xqrtpr6v72,MxROombs,2020-0188,2020-05-07,18:56:49,19:13:00,NA,incomplete,184,shape,1,right,Green_Plus_Stripes_1.jpg,Red_Circle_Chess_1.jpg,Blue_Plus_Grid_3.jpg,right,822.8549999184906,true,low,false
MxROombs,33cla8o0nlo9ukh858i8v1jgjowfr3,37uqdcyh618qvihdnbu8xqrtpr6v72,MxROombs,2020-0188,2020-05-07,18:56:49,19:13:00,NA,incomplete,185,shape,1,right,Red_Plus_Chess_1.jpg,Blue_Triangle_Stripes_1.jpg,Green_Plus_Dots_4.jpg,right,603.8200000766665,true,low,false
MxROombs,33cla8o0nlo9ukh858i8v1jgjowfr3,37uqdcyh618qvihdnbu8xqrtpr6v72,MxROombs,2020-0188,2020-05-07,18:56:49,19:13:00,NA,incomplete,186,shape,1,left,Green_Plus_Stripes_1.jpg,Blue_Plus_Dots_3.jpg,Purple_Circle_Grid_1.jpg,left,541.884999955073,true,low,false
MxROombs,33cla8o0nlo9ukh858i8v1jgjowfr3,37uqdcyh618qvihdnbu8xqrtpr6v72,MxROombs,2020-0188,2020-05-07,18:56:49,19:13:00,NA,incomplete,187,shape,0,right,Purple_Plus_Grid_3.jpg,Green_Circle_Chess_3.jpg,Red_Plus_Dots_4.jpg,right,517.4799999222159,true,low,false
MxROombs,33cla8o0nlo9ukh858i8v1jgjowfr3,37uqdcyh618qvihdnbu8xqrtpr6v72,MxROombs,2020-0188,2020-05-07,18:56:49,19:13:00,NA,incomplete,188,shape,1,right,Green_Star_Stripes_4.jpg,Blue_Triangle_Chess_4.jpg,Red_Star_Grid_2.jpg,right,631.6800001077354,true,low,false
MxROombs,33cla8o0nlo9ukh858i8v1jgjowfr3,37uqdcyh618qvihdnbu8xqrtpr6v72,MxROombs,2020-0188,2020-05-07,18:56:49,19:13:00,NA,incomplete,189,shape,1,left,Purple_Triangle_Grid_3.jpg,Green_Triangle_Chess_4.jpg,Red_Circle_Dots_3.jpg,left,634.9500000942498,true,low,false
MxROombs,33cla8o0nlo9ukh858i8v1jgjowfr3,37uqdcyh618qvihdnbu8xqrtpr6v72,MxROombs,2020-0188,2020-05-07,18:56:49,19:13:00,NA,incomplete,190,shape,1,left,Purple_Star_Chess_4.jpg,Blue_Star_Grid_2.jpg,Red_Triangle_Stripes_4.jpg,left,789.5649999845773,true,low,false
MxROombs,33cla8o0nlo9ukh858i8v1jgjowfr3,37uqdcyh618qvihdnbu8xqrtpr6v72,MxROombs,2020-0188,2020-05-07,18:56:49,19:13:00,NA,incomplete,191,shape,1,left,Purple_Circle_Stripes_1.jpg,Blue_Circle_Dots_2.jpg,Green_Triangle_Grid_1.jpg,left,559.7049999050796,true,low,false
MxROombs,33cla8o0nlo9ukh858i8v1jgjowfr3,37uqdcyh618qvihdnbu8xqrtpr6v72,MxROombs,2020-0188,2020-05-07,18:56:49,19:13:00,NA,incomplete,192,shape,1,left,Purple_Star_Dots_2.jpg,Blue_Star_Stripes_1.jpg,Red_Circle_Chess_2.jpg,left,765.7200000248849,true,low,false
MxROombs,33cla8o0nlo9ukh858i8v1jgjowfr3,37uqdcyh618qvihdnbu8xqrtpr6v72,MxROombs,2020-0188,2020-05-07,18:56:49,19:13:00,NA,incomplete,193,shape,1,left,Blue_Star_Chess_3.jpg,Purple_Star_Grid_1.jpg,Green_Circle_Stripes_3.jpg,left,1398.2449998147786,true,low,false
MxROombs,33cla8o0nlo9ukh858i8v1jgjowfr3,37uqdcyh618qvihdnbu8xqrtpr6v72,MxROombs,2020-0188,2020-05-07,18:56:49,19:13:00,NA,incomplete,194,shape,1,right,Red_Plus_Chess_3.jpg,Purple_Triangle_Dots_3.jpg,Green_Plus_Grid_1.jpg,right,688.2249999325722,true,low,false
MxROombs,33cla8o0nlo9ukh858i8v1jgjowfr3,37uqdcyh618qvihdnbu8xqrtpr6v72,MxROombs,2020-0188,2020-05-07,18:56:49,19:13:00,NA,incomplete,195,shape,1,right,Blue_Triangle_Grid_2.jpg,Green_Star_Chess_2.jpg,Red_Triangle_Stripes_3.jpg,right,575.4199998918921,true,low,false
MxROombs,33cla8o0nlo9ukh858i8v1jgjowfr3,37uqdcyh618qvihdnbu8xqrtpr6v72,MxROombs,2020-0188,2020-05-07,18:56:49,19:13:00,NA,incomplete,196,shape,0,right,Green_Star_Grid_3.jpg,Blue_Triangle_Stripes_3.jpg,Red_Star_Chess_1.jpg,right,596.3200000114739,true,low,false
MxROombs,33cla8o0nlo9ukh858i8v1jgjowfr3,37uqdcyh618qvihdnbu8xqrtpr6v72,MxROombs,2020-0188,2020-05-07,18:56:49,19:13:00,NA,incomplete,197,shape,1,left,Blue_Triangle_Dots_2.jpg,Purple_Triangle_Grid_4.jpg,Red_Plus_Stripes_2.jpg,left,596.2549999821931,true,low,false
MxROombs,33cla8o0nlo9ukh858i8v1jgjowfr3,37uqdcyh618qvihdnbu8xqrtpr6v72,MxROombs,2020-0188,2020-05-07,18:56:49,19:13:00,NA,incomplete,198,shape,0,right,Purple_Triangle_Grid_3.jpg,Blue_Plus_Chess_3.jpg,Green_Triangle_Stripes_2.jpg,right,483.09999983757734,true,low,false
MxROombs,33cla8o0nlo9ukh858i8v1jgjowfr3,37uqdcyh618qvihdnbu8xqrtpr6v72,MxROombs,2020-0188,2020-05-07,18:56:49,19:13:00,NA,incomplete,199,shape,1,right,Green_Plus_Dots_1.jpg,Blue_Triangle_Stripes_1.jpg,Red_Plus_Chess_3.jpg,left,545.3099999576807,false,low,false
MxROombs,33cla8o0nlo9ukh858i8v1jgjowfr3,37uqdcyh618qvihdnbu8xqrtpr6v72,MxROombs,2020-0188,2020-05-07,18:56:49,19:13:00,NA,incomplete,200,number,1,left,Purple_Plus_Chess_4.jpg,Green_Triangle_Stripes_4.jpg,Blue_Plus_Grid_3.jpg,right,634.2450000811368,false,low,false
MxROombs,33cla8o0nlo9ukh858i8v1jgjowfr3,37uqdcyh618qvihdnbu8xqrtpr6v72,MxROombs,2020-0188,2020-05-07,18:56:49,19:13:00,NA,incomplete,201,number,0,left,Green_Plus_Dots_2.jpg,Blue_Star_Stripes_2.jpg,Red_Plus_Grid_3.jpg,right,639.1600000206381,false,low,false
MxROombs,33cla8o0nlo9ukh858i8v1jgjowfr3,37uqdcyh618qvihdnbu8xqrtpr6v72,MxROombs,2020-0188,2020-05-07,18:56:49,19:13:00,NA,incomplete,202,number,1,right,Green_Triangle_Chess_3.jpg,Red_Triangle_Grid_1.jpg,Blue_Circle_Dots_3.jpg,left,496.58000003546476,false,low,false
MxROombs,33cla8o0nlo9ukh858i8v1jgjowfr3,37uqdcyh618qvihdnbu8xqrtpr6v72,MxROombs,2020-0188,2020-05-07,18:56:49,19:13:00,NA,incomplete,203,number,0,right,Purple_Plus_Grid_2.jpg,Green_Plus_Dots_3.jpg,Blue_Circle_Chess_2.jpg,left,578.5150001756847,false,low,false
MxROombs,33cla8o0nlo9ukh858i8v1jgjowfr3,37uqdcyh618qvihdnbu8xqrtpr6v72,MxROombs,2020-0188,2020-05-07,18:56:49,19:13:00,NA,incomplete,204,number,1,left,Purple_Triangle_Chess_3.jpg,Red_Star_Stripes_3.jpg,Green_Triangle_Dots_2.jpg,right,545.0999999884516,false,low,false
MxROombs,33cla8o0nlo9ukh858i8v1jgjowfr3,37uqdcyh618qvihdnbu8xqrtpr6v72,MxROombs,2020-0188,2020-05-07,18:56:49,19:13:00,NA,incomplete,205,number,0,left,Purple_Plus_Dots_4.jpg,Red_Star_Chess_4.jpg,Green_Plus_Stripes_2.jpg,right,745.274999877438,false,low,false
MxROombs,33cla8o0nlo9ukh858i8v1jgjowfr3,37uqdcyh618qvihdnbu8xqrtpr6v72,MxROombs,2020-0188,2020-05-07,18:56:49,19:13:00,NA,incomplete,206,number,1,right,Purple_Plus_Stripes_3.jpg,Green_Plus_Grid_1.jpg,Red_Circle_Dots_3.jpg,left,662.8400001209229,false,low,false
MxROombs,33cla8o0nlo9ukh858i8v1jgjowfr3,37uqdcyh618qvihdnbu8xqrtpr6v72,MxROombs,2020-0188,2020-05-07,18:56:49,19:13:00,NA,incomplete,207,number,0,right,Red_Triangle_Grid_3.jpg,Blue_Triangle_Stripes_2.jpg,Green_Circle_Chess_3.jpg,left,624.8599998652935,false,low,false
MxROombs,33cla8o0nlo9ukh858i8v1jgjowfr3,37uqdcyh618qvihdnbu8xqrtpr6v72,MxROombs,2020-0188,2020-05-07,18:56:49,19:13:00,NA,incomplete,208,number,1,left,Red_Triangle_Dots_2.jpg,Purple_Circle_Chess_2.jpg,Green_Triangle_Grid_1.jpg,right,872.1099998801947,false,low,false
MxROombs,33cla8o0nlo9ukh858i8v1jgjowfr3,37uqdcyh618qvihdnbu8xqrtpr6v72,MxROombs,2020-0188,2020-05-07,18:56:49,19:13:00,NA,incomplete,209,number,1,left,Red_Plus_Grid_2.jpg,Purple_Circle_Chess_2.jpg,Green_Plus_Stripes_3.jpg,right,691.2500001490116,false,low,false
MxROombs,33cla8o0nlo9ukh858i8v1jgjowfr3,37uqdcyh618qvihdnbu8xqrtpr6v72,MxROombs,2020-0188,2020-05-07,18:56:49,19:13:00,NA,incomplete,210,number,1,right,Purple_Plus_Dots_2.jpg,Blue_Plus_Stripes_1.jpg,Red_Triangle_Grid_2.jpg,right,841.7050000280142,true,low,false
MxROombs,33cla8o0nlo9ukh858i8v1jgjowfr3,37uqdcyh618qvihdnbu8xqrtpr6v72,MxROombs,2020-0188,2020-05-07,18:56:49,19:13:00,NA,incomplete,211,number,1,right,Blue_Plus_Grid_1.jpg,Purple_Plus_Chess_3.jpg,Green_Star_Dots_1.jpg,right,672.2500000614673,true,low,false
MxROombs,33cla8o0nlo9ukh858i8v1jgjowfr3,37uqdcyh618qvihdnbu8xqrtpr6v72,MxROombs,2020-0188,2020-05-07,18:56:49,19:13:00,NA,incomplete,212,number,1,right,Green_Plus_Chess_4.jpg,Purple_Plus_Dots_1.jpg,Blue_Circle_Stripes_4.jpg,right,594.9150000233203,true,low,false
MxROombs,33cla8o0nlo9ukh858i8v1jgjowfr3,37uqdcyh618qvihdnbu8xqrtpr6v72,MxROombs,2020-0188,2020-05-07,18:56:49,19:13:00,NA,incomplete,213,number,1,right,Blue_Plus_Grid_2.jpg,Purple_Plus_Stripes_4.jpg,Green_Circle_Dots_2.jpg,left,664.6700000856072,false,low,false
MxROombs,33cla8o0nlo9ukh858i8v1jgjowfr3,37uqdcyh618qvihdnbu8xqrtpr6v72,MxROombs,2020-0188,2020-05-07,18:56:49,19:13:00,NA,incomplete,214,number,0,right,Purple_Plus_Chess_2.jpg,Green_Plus_Stripes_1.jpg,Blue_Star_Grid_2.jpg,right,728.2650000415742,true,low,false
MxROombs,33cla8o0nlo9ukh858i8v1jgjowfr3,37uqdcyh618qvihdnbu8xqrtpr6v72,MxROombs,2020-0188,2020-05-07,18:56:49,19:13:00,NA,incomplete,215,number,1,left,Red_Plus_Grid_2.jpg,Blue_Triangle_Stripes_2.jpg,Green_Plus_Dots_1.jpg,left,952.7400000952184,true,low,false
MxROombs,33cla8o0nlo9ukh858i8v1jgjowfr3,37uqdcyh618qvihdnbu8xqrtpr6v72,MxROombs,2020-0188,2020-05-07,18:56:49,19:13:00,NA,incomplete,216,number,0,left,Green_Plus_Chess_2.jpg,Red_Circle_Dots_2.jpg,Purple_Plus_Grid_3.jpg,left,669.7900001890957,true,low,false
MxROombs,33cla8o0nlo9ukh858i8v1jgjowfr3,37uqdcyh618qvihdnbu8xqrtpr6v72,MxROombs,2020-0188,2020-05-07,18:56:49,19:13:00,NA,incomplete,217,number,1,left,Blue_Circle_Dots_4.jpg,Red_Plus_Grid_4.jpg,Purple_Circle_Chess_3.jpg,left,728.194999974221,true,low,false
MxROombs,33cla8o0nlo9ukh858i8v1jgjowfr3,37uqdcyh618qvihdnbu8xqrtpr6v72,MxROombs,2020-0188,2020-05-07,18:56:49,19:13:00,NA,incomplete,218,number,0,left,Blue_Triangle_Chess_3.jpg,Purple_Plus_Stripes_3.jpg,Green_Triangle_Dots_4.jpg,left,1080.7499999646097,true,low,false
MxROombs,33cla8o0nlo9ukh858i8v1jgjowfr3,37uqdcyh618qvihdnbu8xqrtpr6v72,MxROombs,2020-0188,2020-05-07,18:56:49,19:13:00,NA,incomplete,219,number,1,left,Purple_Triangle_Dots_2.jpg,Red_Plus_Stripes_2.jpg,Green_Triangle_Grid_1.jpg,left,692.3050000332296,true,low,false
MxROombs,33cla8o0nlo9ukh858i8v1jgjowfr3,37uqdcyh618qvihdnbu8xqrtpr6v72,MxROombs,2020-0188,2020-05-07,18:56:49,19:13:00,NA,incomplete,220,shape,1,left,Red_Plus_Stripes_2.jpg,Blue_Plus_Dots_1.jpg,Purple_Triangle_Chess_2.jpg,right,669.5149999577552,false,low,false
MxROombs,33cla8o0nlo9ukh858i8v1jgjowfr3,37uqdcyh618qvihdnbu8xqrtpr6v72,MxROombs,2020-0188,2020-05-07,18:56:49,19:13:00,NA,incomplete,221,shape,1,right,Blue_Triangle_Chess_3.jpg,Purple_Star_Dots_3.jpg,Green_Triangle_Grid_1.jpg,left,689.3849999178201,false,low,false
MxROombs,33cla8o0nlo9ukh858i8v1jgjowfr3,37uqdcyh618qvihdnbu8xqrtpr6v72,MxROombs,2020-0188,2020-05-07,18:56:49,19:13:00,NA,incomplete,222,shape,0,left,Purple_Plus_Stripes_4.jpg,Blue_Plus_Chess_3.jpg,Red_Circle_Dots_4.jpg,left,632.7000001911074,true,low,false
MxROombs,33cla8o0nlo9ukh858i8v1jgjowfr3,37uqdcyh618qvihdnbu8xqrtpr6v72,MxROombs,2020-0188,2020-05-07,18:56:49,19:13:00,NA,incomplete,223,shape,1,right,Purple_Plus_Grid_4.jpg,Blue_Triangle_Dots_4.jpg,Red_Plus_Stripes_2.jpg,left,777.8650000691414,false,low,false
MxROombs,33cla8o0nlo9ukh858i8v1jgjowfr3,37uqdcyh618qvihdnbu8xqrtpr6v72,MxROombs,2020-0188,2020-05-07,18:56:49,19:13:00,NA,incomplete,224,shape,1,right,Blue_Triangle_Grid_3.jpg,Purple_Star_Chess_3.jpg,Red_Triangle_Stripes_2.jpg,right,558.0149998422712,true,low,false
MxROombs,33cla8o0nlo9ukh858i8v1jgjowfr3,37uqdcyh618qvihdnbu8xqrtpr6v72,MxROombs,2020-0188,2020-05-07,18:56:49,19:13:00,NA,incomplete,225,shape,1,right,Blue_Plus_Grid_2.jpg,Green_Star_Dots_2.jpg,Purple_Plus_Chess_3.jpg,right,633.1849999260157,true,low,false
MxROombs,33cla8o0nlo9ukh858i8v1jgjowfr3,37uqdcyh618qvihdnbu8xqrtpr6v72,MxROombs,2020-0188,2020-05-07,18:56:49,19:13:00,NA,incomplete,226,shape,1,left,Green_Plus_Stripes_1.jpg,Blue_Plus_Grid_4.jpg,Purple_Triangle_Dots_1.jpg,left,945.8349999040365,true,low,false
MxROombs,33cla8o0nlo9ukh858i8v1jgjowfr3,37uqdcyh618qvihdnbu8xqrtpr6v72,MxROombs,2020-0188,2020-05-07,18:56:49,19:13:00,NA,incomplete,227,shape,1,right,Purple_Star_Chess_2.jpg,Red_Circle_Stripes_2.jpg,Blue_Star_Dots_4.jpg,right,585.81000007689,true,low,false
MxROombs,33cla8o0nlo9ukh858i8v1jgjowfr3,37uqdcyh618qvihdnbu8xqrtpr6v72,MxROombs,2020-0188,2020-05-07,18:56:49,19:13:00,NA,incomplete,228,shape,0,right,Red_Triangle_Stripes_2.jpg,Purple_Plus_Grid_2.jpg,Blue_Triangle_Dots_4.jpg,right,528.4249999094754,true,low,false
MxROombs,33cla8o0nlo9ukh858i8v1jgjowfr3,37uqdcyh618qvihdnbu8xqrtpr6v72,MxROombs,2020-0188,2020-05-07,18:56:49,19:13:00,NA,incomplete,229,shape,1,left,Red_Circle_Chess_1.jpg,Green_Circle_Grid_4.jpg,Blue_Star_Dots_1.jpg,left,461.1550001427531,true,low,false
MxROombs,33cla8o0nlo9ukh858i8v1jgjowfr3,37uqdcyh618qvihdnbu8xqrtpr6v72,MxROombs,2020-0188,2020-05-07,18:56:49,19:13:00,NA,incomplete,230,shape,1,left,Red_Circle_Chess_1.jpg,Green_Circle_Stripes_3.jpg,Blue_Triangle_Grid_1.jpg,left,523.3800001442432,true,low,false
MxROombs,33cla8o0nlo9ukh858i8v1jgjowfr3,37uqdcyh618qvihdnbu8xqrtpr6v72,MxROombs,2020-0188,2020-05-07,18:56:49,19:13:00,NA,incomplete,231,shape,1,left,Blue_Triangle_Chess_4.jpg,Green_Triangle_Dots_3.jpg,Red_Plus_Stripes_4.jpg,left,711.5450000856072,true,low,false
MxROombs,33cla8o0nlo9ukh858i8v1jgjowfr3,37uqdcyh618qvihdnbu8xqrtpr6v72,MxROombs,2020-0188,2020-05-07,18:56:49,19:13:00,NA,incomplete,232,shape,1,left,Green_Triangle_Grid_1.jpg,Red_Triangle_Dots_3.jpg,Blue_Circle_Stripes_1.jpg,left,573.9450000692159,true,low,false
MxROombs,33cla8o0nlo9ukh858i8v1jgjowfr3,37uqdcyh618qvihdnbu8xqrtpr6v72,MxROombs,2020-0188,2020-05-07,18:56:49,19:13:00,NA,incomplete,233,shape,0,left,Purple_Circle_Grid_4.jpg,Blue_Circle_Chess_2.jpg,Red_Star_Stripes_4.jpg,left,777.8350000735372,true,low,false
MxROombs,33cla8o0nlo9ukh858i8v1jgjowfr3,37uqdcyh618qvihdnbu8xqrtpr6v72,MxROombs,2020-0188,2020-05-07,18:56:49,19:13:00,NA,incomplete,234,shape,1,right,Green_Triangle_Dots_2.jpg,Purple_Star_Chess_2.jpg,Red_Triangle_Stripes_3.jpg,right,505.7949998881668,true,low,false
MxROombs,33cla8o0nlo9ukh858i8v1jgjowfr3,37uqdcyh618qvihdnbu8xqrtpr6v72,MxROombs,2020-0188,2020-05-07,18:56:49,19:13:00,NA,incomplete,235,shape,1,right,Blue_Plus_Dots_1.jpg,Green_Circle_Grid_1.jpg,Red_Plus_Stripes_2.jpg,right,487.35000006854534,true,low,false
MxROombs,33cla8o0nlo9ukh858i8v1jgjowfr3,37uqdcyh618qvihdnbu8xqrtpr6v72,MxROombs,2020-0188,2020-05-07,18:56:49,19:13:00,NA,incomplete,236,shape,0,right,Purple_Star_Grid_3.jpg,Blue_Plus_Stripes_3.jpg,Green_Star_Dots_2.jpg,left,564.4849999807775,false,low,false
MxROombs,33cla8o0nlo9ukh858i8v1jgjowfr3,37uqdcyh618qvihdnbu8xqrtpr6v72,MxROombs,2020-0188,2020-05-07,18:56:49,19:13:00,NA,incomplete,237,shape,1,right,Purple_Triangle_Grid_1.jpg,Red_Circle_Stripes_1.jpg,Blue_Triangle_Chess_4.jpg,left,807.3599999770522,false,low,false
MxROombs,33cla8o0nlo9ukh858i8v1jgjowfr3,37uqdcyh618qvihdnbu8xqrtpr6v72,MxROombs,2020-0188,2020-05-07,18:56:49,19:13:00,NA,incomplete,238,shape,0,left,Red_Star_Grid_3.jpg,Purple_Star_Chess_2.jpg,Green_Plus_Dots_3.jpg,left,845.4300002194941,true,low,false
MxROombs,33cla8o0nlo9ukh858i8v1jgjowfr3,37uqdcyh618qvihdnbu8xqrtpr6v72,MxROombs,2020-0188,2020-05-07,18:56:49,19:13:00,NA,incomplete,239,shape,1,left,Red_Triangle_Dots_3.jpg,Purple_Triangle_Grid_4.jpg,Blue_Plus_Chess_3.jpg,right,809.7050001379102,false,low,false
MxROombs,33cla8o0nlo9ukh858i8v1jgjowfr3,37uqdcyh618qvihdnbu8xqrtpr6v72,MxROombs,2020-0188,2020-05-07,18:56:49,19:13:00,921152.5449999608,971079.6650000848,NA,NA,NA,NA,NA,NA,NA,NA,NA,NA,NA,undefined
