workerId,hitId,assignmentId,subject,studyid,exp_date,exp_start,exp_end,time_start,time_end,trial,type,reward_validity,answer,image_top,image_left,image_right,response,response_time,response_acc,volatility,practice
TBuPGpfu,36818z1kw6qmfrfyj2vkz259guma30,39dd6s19jtosdh1xbgxho6w60uhze4,TBuPGpfu,2020-0188,2020-05-08,09:36:33,09:55:33,NA,incomplete,0,shape,0,left,Red_Circle_Chess_2.jpg,Green_Circle_Dots_1.jpg,Blue_Star_Grid_2.jpg,right,1056.9999997969717,false,NA,true
TBuPGpfu,36818z1kw6qmfrfyj2vkz259guma30,39dd6s19jtosdh1xbgxho6w60uhze4,TBuPGpfu,2020-0188,2020-05-08,09:36:33,09:55:33,NA,incomplete,1,shape,1,right,Blue_Triangle_Grid_4.jpg,Red_Star_Stripes_4.jpg,Green_Triangle_Dots_3.jpg,right,1129.9999998882413,true,NA,true
TBuPGpfu,36818z1kw6qmfrfyj2vkz259guma30,39dd6s19jtosdh1xbgxho6w60uhze4,TBuPGpfu,2020-0188,2020-05-08,09:36:33,09:55:33,NA,incomplete,2,shape,1,left,Red_Triangle_Dots_2.jpg,Purple_Triangle_Grid_3.jpg,Green_Star_Chess_2.jpg,left,1035.0000001490116,true,NA,true
TBuPGpfu,36818z1kw6qmfrfyj2vkz259guma30,39dd6s19jtosdh1xbgxho6w60uhze4,TBuPGpfu,2020-0188,2020-05-08,09:36:33,09:55:33,NA,incomplete,3,shape,0,left,Red_Star_Chess_3.jpg,Blue_Star_Dots_4.jpg,Green_Triangle_Grid_3.jpg,left,1418.999999994412,true,NA,true
TBuPGpfu,36818z1kw6qmfrfyj2vkz259guma30,39dd6s19jtosdh1xbgxho6w60uhze4,TBuPGpfu,2020-0188,2020-05-08,09:36:33,09:55:33,NA,incomplete,4,shape,0,left,Blue_Plus_Chess_2.jpg,Purple_Plus_Dots_4.jpg,Red_Triangle_Stripes_2.jpg,left,1015.0000001303852,true,NA,true
TBuPGpfu,36818z1kw6qmfrfyj2vkz259guma30,39dd6s19jtosdh1xbgxho6w60uhze4,TBuPGpfu,2020-0188,2020-05-08,09:36:33,09:55:33,NA,incomplete,5,shape,1,left,Green_Circle_Grid_4.jpg,Red_Circle_Dots_2.jpg,Purple_Star_Stripes_4.jpg,left,1114.9999999906868,true,NA,true
TBuPGpfu,36818z1kw6qmfrfyj2vkz259guma30,39dd6s19jtosdh1xbgxho6w60uhze4,TBuPGpfu,2020-0188,2020-05-08,09:36:33,09:55:33,NA,incomplete,6,shape,1,left,Red_Circle_Grid_3.jpg,Purple_Circle_Stripes_2.jpg,Blue_Star_Dots_3.jpg,left,1275.0000001396984,true,NA,true
TBuPGpfu,36818z1kw6qmfrfyj2vkz259guma30,39dd6s19jtosdh1xbgxho6w60uhze4,TBuPGpfu,2020-0188,2020-05-08,09:36:33,09:55:33,NA,incomplete,7,shape,1,right,Purple_Star_Grid_2.jpg,Red_Circle_Chess_2.jpg,Green_Star_Stripes_3.jpg,right,972.9999999981374,true,NA,true
TBuPGpfu,36818z1kw6qmfrfyj2vkz259guma30,39dd6s19jtosdh1xbgxho6w60uhze4,TBuPGpfu,2020-0188,2020-05-08,09:36:33,09:55:33,NA,incomplete,8,shape,1,left,Blue_Plus_Chess_3.jpg,Purple_Plus_Stripes_1.jpg,Red_Circle_Dots_3.jpg,left,843.9999998081475,true,NA,true
TBuPGpfu,36818z1kw6qmfrfyj2vkz259guma30,39dd6s19jtosdh1xbgxho6w60uhze4,TBuPGpfu,2020-0188,2020-05-08,09:36:33,09:55:33,NA,incomplete,9,shape,1,right,Blue_Triangle_Chess_1.jpg,Red_Plus_Dots_1.jpg,Green_Triangle_Grid_4.jpg,right,902.0000000018626,true,NA,true
TBuPGpfu,36818z1kw6qmfrfyj2vkz259guma30,39dd6s19jtosdh1xbgxho6w60uhze4,TBuPGpfu,2020-0188,2020-05-08,09:36:33,09:55:33,NA,incomplete,10,shape,0,left,Blue_Plus_Chess_3.jpg,Purple_Plus_Dots_1.jpg,Green_Star_Stripes_3.jpg,left,932.0000000298023,true,NA,true
TBuPGpfu,36818z1kw6qmfrfyj2vkz259guma30,39dd6s19jtosdh1xbgxho6w60uhze4,TBuPGpfu,2020-0188,2020-05-08,09:36:33,09:55:33,NA,incomplete,11,shape,1,right,Purple_Circle_Stripes_2.jpg,Blue_Star_Chess_2.jpg,Green_Circle_Dots_4.jpg,right,783.9999999850988,true,NA,true
TBuPGpfu,36818z1kw6qmfrfyj2vkz259guma30,39dd6s19jtosdh1xbgxho6w60uhze4,TBuPGpfu,2020-0188,2020-05-08,09:36:33,09:55:33,NA,incomplete,12,shape,1,right,Blue_Star_Grid_1.jpg,Green_Triangle_Chess_1.jpg,Purple_Star_Dots_2.jpg,right,776.0000000707805,true,NA,true
TBuPGpfu,36818z1kw6qmfrfyj2vkz259guma30,39dd6s19jtosdh1xbgxho6w60uhze4,TBuPGpfu,2020-0188,2020-05-08,09:36:33,09:55:33,NA,incomplete,13,shape,1,left,Blue_Triangle_Stripes_2.jpg,Red_Triangle_Chess_1.jpg,Purple_Plus_Grid_2.jpg,left,834.000000031665,true,NA,true
TBuPGpfu,36818z1kw6qmfrfyj2vkz259guma30,39dd6s19jtosdh1xbgxho6w60uhze4,TBuPGpfu,2020-0188,2020-05-08,09:36:33,09:55:33,NA,incomplete,14,shape,1,left,Purple_Plus_Chess_1.jpg,Green_Plus_Stripes_3.jpg,Red_Star_Dots_1.jpg,left,1002.0000000949949,true,NA,true
TBuPGpfu,36818z1kw6qmfrfyj2vkz259guma30,39dd6s19jtosdh1xbgxho6w60uhze4,TBuPGpfu,2020-0188,2020-05-08,09:36:33,09:55:33,NA,incomplete,15,shape,1,left,Purple_Star_Dots_2.jpg,Blue_Star_Chess_3.jpg,Green_Triangle_Stripes_2.jpg,left,802.9999998398125,true,NA,true
TBuPGpfu,36818z1kw6qmfrfyj2vkz259guma30,39dd6s19jtosdh1xbgxho6w60uhze4,TBuPGpfu,2020-0188,2020-05-08,09:36:33,09:55:33,NA,incomplete,16,shape,1,right,Red_Circle_Grid_2.jpg,Purple_Triangle_Chess_2.jpg,Blue_Circle_Stripes_1.jpg,right,820.0000000651926,true,NA,true
TBuPGpfu,36818z1kw6qmfrfyj2vkz259guma30,39dd6s19jtosdh1xbgxho6w60uhze4,TBuPGpfu,2020-0188,2020-05-08,09:36:33,09:55:33,NA,incomplete,17,shape,1,left,Purple_Plus_Dots_4.jpg,Green_Plus_Stripes_3.jpg,Red_Star_Chess_4.jpg,left,864.9999999906868,true,NA,true
TBuPGpfu,36818z1kw6qmfrfyj2vkz259guma30,39dd6s19jtosdh1xbgxho6w60uhze4,TBuPGpfu,2020-0188,2020-05-08,09:36:33,09:55:33,NA,incomplete,18,shape,1,left,Red_Circle_Stripes_4.jpg,Green_Circle_Chess_2.jpg,Purple_Star_Dots_4.jpg,left,725.0000000931323,true,NA,true
TBuPGpfu,36818z1kw6qmfrfyj2vkz259guma30,39dd6s19jtosdh1xbgxho6w60uhze4,TBuPGpfu,2020-0188,2020-05-08,09:36:33,09:55:33,NA,incomplete,19,shape,1,left,Blue_Plus_Chess_4.jpg,Green_Plus_Stripes_1.jpg,Red_Triangle_Grid_4.jpg,left,864.9999999906868,true,NA,true
TBuPGpfu,36818z1kw6qmfrfyj2vkz259guma30,39dd6s19jtosdh1xbgxho6w60uhze4,TBuPGpfu,2020-0188,2020-05-08,09:36:33,09:55:33,NA,incomplete,20,number,1,left,Blue_Plus_Dots_4.jpg,Red_Star_Stripes_4.jpg,Green_Plus_Chess_2.jpg,left,1135.0000000093132,true,NA,true
TBuPGpfu,36818z1kw6qmfrfyj2vkz259guma30,39dd6s19jtosdh1xbgxho6w60uhze4,TBuPGpfu,2020-0188,2020-05-08,09:36:33,09:55:33,NA,incomplete,21,number,1,left,Purple_Circle_Dots_3.jpg,Green_Triangle_Chess_3.jpg,Red_Circle_Stripes_4.jpg,left,986.9999999646097,true,NA,true
TBuPGpfu,36818z1kw6qmfrfyj2vkz259guma30,39dd6s19jtosdh1xbgxho6w60uhze4,TBuPGpfu,2020-0188,2020-05-08,09:36:33,09:55:33,NA,incomplete,22,number,1,right,Green_Triangle_Stripes_2.jpg,Blue_Triangle_Dots_1.jpg,Purple_Plus_Chess_2.jpg,right,894.9999997857958,true,NA,true
TBuPGpfu,36818z1kw6qmfrfyj2vkz259guma30,39dd6s19jtosdh1xbgxho6w60uhze4,TBuPGpfu,2020-0188,2020-05-08,09:36:33,09:55:33,NA,incomplete,23,number,0,left,Purple_Star_Stripes_2.jpg,Green_Plus_Grid_2.jpg,Blue_Star_Dots_4.jpg,left,858.0000000074506,true,NA,true
TBuPGpfu,36818z1kw6qmfrfyj2vkz259guma30,39dd6s19jtosdh1xbgxho6w60uhze4,TBuPGpfu,2020-0188,2020-05-08,09:36:33,09:55:33,NA,incomplete,24,number,1,right,Green_Plus_Stripes_4.jpg,Purple_Plus_Grid_2.jpg,Blue_Circle_Chess_4.jpg,left,1037.999999942258,false,NA,true
TBuPGpfu,36818z1kw6qmfrfyj2vkz259guma30,39dd6s19jtosdh1xbgxho6w60uhze4,TBuPGpfu,2020-0188,2020-05-08,09:36:33,09:55:33,NA,incomplete,25,number,0,left,Green_Star_Stripes_4.jpg,Red_Plus_Chess_4.jpg,Blue_Star_Grid_2.jpg,left,912.0000000111759,true,NA,true
TBuPGpfu,36818z1kw6qmfrfyj2vkz259guma30,39dd6s19jtosdh1xbgxho6w60uhze4,TBuPGpfu,2020-0188,2020-05-08,09:36:33,09:55:33,NA,incomplete,26,number,0,left,Purple_Triangle_Stripes_3.jpg,Red_Circle_Grid_3.jpg,Blue_Triangle_Chess_1.jpg,left,901.0000000707805,true,NA,true
TBuPGpfu,36818z1kw6qmfrfyj2vkz259guma30,39dd6s19jtosdh1xbgxho6w60uhze4,TBuPGpfu,2020-0188,2020-05-08,09:36:33,09:55:33,NA,incomplete,27,number,1,left,Blue_Circle_Dots_3.jpg,Red_Triangle_Grid_3.jpg,Purple_Circle_Stripes_4.jpg,left,1194.0000001341105,true,NA,true
TBuPGpfu,36818z1kw6qmfrfyj2vkz259guma30,39dd6s19jtosdh1xbgxho6w60uhze4,TBuPGpfu,2020-0188,2020-05-08,09:36:33,09:55:33,NA,incomplete,28,number,1,left,Blue_Star_Dots_3.jpg,Red_Triangle_Stripes_3.jpg,Green_Star_Grid_2.jpg,left,1084.000000031665,true,NA,true
TBuPGpfu,36818z1kw6qmfrfyj2vkz259guma30,39dd6s19jtosdh1xbgxho6w60uhze4,TBuPGpfu,2020-0188,2020-05-08,09:36:33,09:55:33,NA,incomplete,29,number,1,left,Red_Star_Dots_2.jpg,Purple_Triangle_Grid_2.jpg,Blue_Star_Stripes_1.jpg,left,1110.999999800697,true,NA,true
TBuPGpfu,36818z1kw6qmfrfyj2vkz259guma30,39dd6s19jtosdh1xbgxho6w60uhze4,TBuPGpfu,2020-0188,2020-05-08,09:36:33,09:55:33,NA,incomplete,30,number,1,left,Blue_Triangle_Chess_1.jpg,Green_Circle_Grid_1.jpg,Purple_Triangle_Dots_3.jpg,left,1338.9999999199063,true,NA,true
TBuPGpfu,36818z1kw6qmfrfyj2vkz259guma30,39dd6s19jtosdh1xbgxho6w60uhze4,TBuPGpfu,2020-0188,2020-05-08,09:36:33,09:55:33,NA,incomplete,31,number,1,right,Purple_Circle_Dots_1.jpg,Red_Circle_Stripes_3.jpg,Blue_Triangle_Grid_1.jpg,right,760.9999999403954,true,NA,true
TBuPGpfu,36818z1kw6qmfrfyj2vkz259guma30,39dd6s19jtosdh1xbgxho6w60uhze4,TBuPGpfu,2020-0188,2020-05-08,09:36:33,09:55:33,NA,incomplete,32,number,1,right,Purple_Triangle_Stripes_2.jpg,Blue_Triangle_Chess_3.jpg,Green_Circle_Grid_2.jpg,right,1037.0000000111759,true,NA,true
TBuPGpfu,36818z1kw6qmfrfyj2vkz259guma30,39dd6s19jtosdh1xbgxho6w60uhze4,TBuPGpfu,2020-0188,2020-05-08,09:36:33,09:55:33,NA,incomplete,33,number,1,left,Green_Star_Dots_2.jpg,Blue_Triangle_Grid_2.jpg,Purple_Star_Chess_1.jpg,left,815.9999998752028,true,NA,true
TBuPGpfu,36818z1kw6qmfrfyj2vkz259guma30,39dd6s19jtosdh1xbgxho6w60uhze4,TBuPGpfu,2020-0188,2020-05-08,09:36:33,09:55:33,NA,incomplete,34,number,1,left,Green_Plus_Dots_3.jpg,Purple_Circle_Chess_3.jpg,Blue_Plus_Grid_4.jpg,left,881.0000000521541,true,NA,true
TBuPGpfu,36818z1kw6qmfrfyj2vkz259guma30,39dd6s19jtosdh1xbgxho6w60uhze4,TBuPGpfu,2020-0188,2020-05-08,09:36:33,09:55:33,NA,incomplete,35,number,1,right,Purple_Triangle_Chess_1.jpg,Blue_Triangle_Dots_3.jpg,Green_Plus_Grid_1.jpg,right,932.0000000298023,true,NA,true
TBuPGpfu,36818z1kw6qmfrfyj2vkz259guma30,39dd6s19jtosdh1xbgxho6w60uhze4,TBuPGpfu,2020-0188,2020-05-08,09:36:33,09:55:33,NA,incomplete,36,number,1,left,Blue_Triangle_Dots_2.jpg,Red_Circle_Chess_2.jpg,Purple_Triangle_Stripes_4.jpg,left,792.0000001322478,true,NA,true
TBuPGpfu,36818z1kw6qmfrfyj2vkz259guma30,39dd6s19jtosdh1xbgxho6w60uhze4,TBuPGpfu,2020-0188,2020-05-08,09:36:33,09:55:33,NA,incomplete,37,number,1,right,Purple_Circle_Grid_1.jpg,Green_Circle_Dots_4.jpg,Blue_Plus_Stripes_1.jpg,right,949.9999999534339,true,NA,true
TBuPGpfu,36818z1kw6qmfrfyj2vkz259guma30,39dd6s19jtosdh1xbgxho6w60uhze4,TBuPGpfu,2020-0188,2020-05-08,09:36:33,09:55:33,NA,incomplete,38,number,1,left,Red_Plus_Dots_2.jpg,Green_Star_Stripes_2.jpg,Blue_Plus_Chess_4.jpg,left,783.0000000540167,true,NA,true
TBuPGpfu,36818z1kw6qmfrfyj2vkz259guma30,39dd6s19jtosdh1xbgxho6w60uhze4,TBuPGpfu,2020-0188,2020-05-08,09:36:33,09:55:33,NA,incomplete,39,number,0,left,Red_Triangle_Grid_3.jpg,Green_Circle_Dots_3.jpg,Blue_Triangle_Stripes_4.jpg,left,826.9999998155981,true,NA,true
TBuPGpfu,36818z1kw6qmfrfyj2vkz259guma30,39dd6s19jtosdh1xbgxho6w60uhze4,TBuPGpfu,2020-0188,2020-05-08,09:36:33,09:55:33,NA,incomplete,0,shape,0,right,Purple_Plus_Grid_1.jpg,Green_Star_Dots_1.jpg,Blue_Plus_Stripes_3.jpg,left,803.0000000726432,false,high,false
TBuPGpfu,36818z1kw6qmfrfyj2vkz259guma30,39dd6s19jtosdh1xbgxho6w60uhze4,TBuPGpfu,2020-0188,2020-05-08,09:36:33,09:55:33,NA,incomplete,1,shape,0,right,Green_Circle_Dots_2.jpg,Blue_Plus_Grid_2.jpg,Red_Circle_Chess_3.jpg,left,1034.0000002179295,false,high,false
TBuPGpfu,36818z1kw6qmfrfyj2vkz259guma30,39dd6s19jtosdh1xbgxho6w60uhze4,TBuPGpfu,2020-0188,2020-05-08,09:36:33,09:55:33,NA,incomplete,2,shape,1,right,Green_Triangle_Stripes_1.jpg,Purple_Star_Grid_1.jpg,Blue_Triangle_Chess_2.jpg,left,834.9999999627471,false,high,false
TBuPGpfu,36818z1kw6qmfrfyj2vkz259guma30,39dd6s19jtosdh1xbgxho6w60uhze4,TBuPGpfu,2020-0188,2020-05-08,09:36:33,09:55:33,NA,incomplete,3,shape,1,right,Green_Star_Dots_2.jpg,Purple_Plus_Chess_2.jpg,Red_Star_Stripes_1.jpg,left,892.9999999236315,false,high,false
TBuPGpfu,36818z1kw6qmfrfyj2vkz259guma30,39dd6s19jtosdh1xbgxho6w60uhze4,TBuPGpfu,2020-0188,2020-05-08,09:36:33,09:55:33,NA,incomplete,4,shape,1,right,Green_Triangle_Grid_2.jpg,Red_Circle_Stripes_2.jpg,Blue_Triangle_Dots_1.jpg,right,695.0000000651926,true,high,false
TBuPGpfu,36818z1kw6qmfrfyj2vkz259guma30,39dd6s19jtosdh1xbgxho6w60uhze4,TBuPGpfu,2020-0188,2020-05-08,09:36:33,09:55:33,NA,incomplete,5,shape,1,right,Red_Triangle_Chess_4.jpg,Blue_Star_Grid_4.jpg,Green_Triangle_Stripes_1.jpg,right,1480.9999999124557,true,high,false
TBuPGpfu,36818z1kw6qmfrfyj2vkz259guma30,39dd6s19jtosdh1xbgxho6w60uhze4,TBuPGpfu,2020-0188,2020-05-08,09:36:33,09:55:33,NA,incomplete,6,shape,1,left,Purple_Triangle_Stripes_2.jpg,Blue_Triangle_Dots_4.jpg,Red_Star_Grid_2.jpg,left,736.9999999646097,true,high,false
TBuPGpfu,36818z1kw6qmfrfyj2vkz259guma30,39dd6s19jtosdh1xbgxho6w60uhze4,TBuPGpfu,2020-0188,2020-05-08,09:36:33,09:55:33,NA,incomplete,7,shape,0,left,Green_Star_Grid_2.jpg,Red_Star_Chess_3.jpg,Blue_Circle_Dots_2.jpg,left,1124.0000000689179,true,high,false
TBuPGpfu,36818z1kw6qmfrfyj2vkz259guma30,39dd6s19jtosdh1xbgxho6w60uhze4,TBuPGpfu,2020-0188,2020-05-08,09:36:33,09:55:33,NA,incomplete,8,shape,1,right,Red_Triangle_Stripes_1.jpg,Blue_Star_Dots_1.jpg,Green_Triangle_Chess_4.jpg,right,1140.0000001303852,true,high,false
TBuPGpfu,36818z1kw6qmfrfyj2vkz259guma30,39dd6s19jtosdh1xbgxho6w60uhze4,TBuPGpfu,2020-0188,2020-05-08,09:36:33,09:55:33,NA,incomplete,9,shape,1,right,Purple_Circle_Chess_2.jpg,Red_Star_Grid_2.jpg,Blue_Circle_Stripes_4.jpg,right,787.0000000111759,true,high,false
TBuPGpfu,36818z1kw6qmfrfyj2vkz259guma30,39dd6s19jtosdh1xbgxho6w60uhze4,TBuPGpfu,2020-0188,2020-05-08,09:36:33,09:55:33,NA,incomplete,10,number,1,left,Green_Triangle_Grid_1.jpg,Blue_Plus_Stripes_1.jpg,Red_Triangle_Dots_2.jpg,right,791.9999998994172,false,high,false
TBuPGpfu,36818z1kw6qmfrfyj2vkz259guma30,39dd6s19jtosdh1xbgxho6w60uhze4,TBuPGpfu,2020-0188,2020-05-08,09:36:33,09:55:33,NA,incomplete,11,number,1,left,Purple_Circle_Grid_2.jpg,Blue_Star_Chess_2.jpg,Red_Circle_Stripes_1.jpg,right,804.0000000037253,false,high,false
TBuPGpfu,36818z1kw6qmfrfyj2vkz259guma30,39dd6s19jtosdh1xbgxho6w60uhze4,TBuPGpfu,2020-0188,2020-05-08,09:36:33,09:55:33,NA,incomplete,12,number,1,left,Green_Star_Stripes_1.jpg,Red_Plus_Dots_1.jpg,Blue_Star_Grid_4.jpg,left,659.999999916181,true,high,false
TBuPGpfu,36818z1kw6qmfrfyj2vkz259guma30,39dd6s19jtosdh1xbgxho6w60uhze4,TBuPGpfu,2020-0188,2020-05-08,09:36:33,09:55:33,NA,incomplete,13,number,1,left,Blue_Circle_Chess_4.jpg,Red_Triangle_Grid_4.jpg,Green_Circle_Dots_3.jpg,left,933.0000001937151,true,high,false
TBuPGpfu,36818z1kw6qmfrfyj2vkz259guma30,39dd6s19jtosdh1xbgxho6w60uhze4,TBuPGpfu,2020-0188,2020-05-08,09:36:33,09:55:33,NA,incomplete,14,number,1,right,Red_Circle_Grid_1.jpg,Blue_Circle_Dots_2.jpg,Green_Triangle_Chess_1.jpg,right,930.0000001676381,true,high,false
TBuPGpfu,36818z1kw6qmfrfyj2vkz259guma30,39dd6s19jtosdh1xbgxho6w60uhze4,TBuPGpfu,2020-0188,2020-05-08,09:36:33,09:55:33,NA,incomplete,15,number,1,right,Green_Circle_Stripes_2.jpg,Red_Circle_Dots_3.jpg,Purple_Star_Chess_2.jpg,right,775.0000001396984,true,high,false
TBuPGpfu,36818z1kw6qmfrfyj2vkz259guma30,39dd6s19jtosdh1xbgxho6w60uhze4,TBuPGpfu,2020-0188,2020-05-08,09:36:33,09:55:33,NA,incomplete,16,number,1,right,Blue_Plus_Grid_4.jpg,Green_Plus_Chess_2.jpg,Red_Circle_Dots_4.jpg,right,952.0000000484288,true,high,false
TBuPGpfu,36818z1kw6qmfrfyj2vkz259guma30,39dd6s19jtosdh1xbgxho6w60uhze4,TBuPGpfu,2020-0188,2020-05-08,09:36:33,09:55:33,NA,incomplete,17,number,1,left,Red_Plus_Stripes_1.jpg,Green_Circle_Chess_1.jpg,Purple_Plus_Grid_2.jpg,left,584.9999999627471,true,high,false
TBuPGpfu,36818z1kw6qmfrfyj2vkz259guma30,39dd6s19jtosdh1xbgxho6w60uhze4,TBuPGpfu,2020-0188,2020-05-08,09:36:33,09:55:33,NA,incomplete,18,number,0,right,Purple_Triangle_Grid_1.jpg,Red_Triangle_Dots_3.jpg,Blue_Star_Stripes_1.jpg,right,973.9999999292195,true,high,false
TBuPGpfu,36818z1kw6qmfrfyj2vkz259guma30,39dd6s19jtosdh1xbgxho6w60uhze4,TBuPGpfu,2020-0188,2020-05-08,09:36:33,09:55:33,NA,incomplete,19,number,1,right,Green_Circle_Chess_3.jpg,Red_Circle_Grid_4.jpg,Blue_Triangle_Stripes_3.jpg,right,1098.9999999292195,true,high,false
TBuPGpfu,36818z1kw6qmfrfyj2vkz259guma30,39dd6s19jtosdh1xbgxho6w60uhze4,TBuPGpfu,2020-0188,2020-05-08,09:36:33,09:55:33,NA,incomplete,20,shape,0,right,Green_Plus_Chess_4.jpg,Purple_Triangle_Dots_4.jpg,Red_Plus_Grid_3.jpg,left,1188.0000000819564,false,high,false
TBuPGpfu,36818z1kw6qmfrfyj2vkz259guma30,39dd6s19jtosdh1xbgxho6w60uhze4,TBuPGpfu,2020-0188,2020-05-08,09:36:33,09:55:33,NA,incomplete,21,shape,0,right,Blue_Star_Dots_4.jpg,Purple_Triangle_Chess_4.jpg,Green_Star_Stripes_3.jpg,left,949.0000000223517,false,high,false
TBuPGpfu,36818z1kw6qmfrfyj2vkz259guma30,39dd6s19jtosdh1xbgxho6w60uhze4,TBuPGpfu,2020-0188,2020-05-08,09:36:33,09:55:33,NA,incomplete,22,shape,1,left,Red_Circle_Dots_3.jpg,Blue_Circle_Grid_4.jpg,Purple_Triangle_Stripes_3.jpg,right,831.0000000055879,false,high,false
TBuPGpfu,36818z1kw6qmfrfyj2vkz259guma30,39dd6s19jtosdh1xbgxho6w60uhze4,TBuPGpfu,2020-0188,2020-05-08,09:36:33,09:55:33,NA,incomplete,23,shape,0,left,Purple_Plus_Dots_4.jpg,Red_Plus_Stripes_1.jpg,Blue_Triangle_Chess_4.jpg,right,833.0000001005828,false,high,false
TBuPGpfu,36818z1kw6qmfrfyj2vkz259guma30,39dd6s19jtosdh1xbgxho6w60uhze4,TBuPGpfu,2020-0188,2020-05-08,09:36:33,09:55:33,NA,incomplete,24,shape,1,left,Red_Star_Dots_1.jpg,Green_Star_Stripes_2.jpg,Blue_Triangle_Chess_1.jpg,right,684.9999998230487,false,high,false
TBuPGpfu,36818z1kw6qmfrfyj2vkz259guma30,39dd6s19jtosdh1xbgxho6w60uhze4,TBuPGpfu,2020-0188,2020-05-08,09:36:33,09:55:33,NA,incomplete,25,shape,1,right,Purple_Triangle_Stripes_4.jpg,Green_Circle_Dots_4.jpg,Red_Triangle_Grid_1.jpg,left,818.9999999012798,false,high,false
TBuPGpfu,36818z1kw6qmfrfyj2vkz259guma30,39dd6s19jtosdh1xbgxho6w60uhze4,TBuPGpfu,2020-0188,2020-05-08,09:36:33,09:55:33,NA,incomplete,26,shape,1,right,Purple_Star_Grid_2.jpg,Red_Triangle_Chess_2.jpg,Green_Star_Stripes_3.jpg,right,914.0000001061708,true,high,false
TBuPGpfu,36818z1kw6qmfrfyj2vkz259guma30,39dd6s19jtosdh1xbgxho6w60uhze4,TBuPGpfu,2020-0188,2020-05-08,09:36:33,09:55:33,NA,incomplete,27,shape,1,left,Blue_Circle_Grid_4.jpg,Red_Circle_Dots_3.jpg,Green_Plus_Chess_4.jpg,left,800.0000000465661,true,high,false
TBuPGpfu,36818z1kw6qmfrfyj2vkz259guma30,39dd6s19jtosdh1xbgxho6w60uhze4,TBuPGpfu,2020-0188,2020-05-08,09:36:33,09:55:33,NA,incomplete,28,shape,1,left,Green_Star_Dots_3.jpg,Blue_Star_Grid_1.jpg,Purple_Plus_Chess_3.jpg,left,878.9999999571592,true,high,false
TBuPGpfu,36818z1kw6qmfrfyj2vkz259guma30,39dd6s19jtosdh1xbgxho6w60uhze4,TBuPGpfu,2020-0188,2020-05-08,09:36:33,09:55:33,NA,incomplete,29,shape,1,right,Green_Circle_Chess_1.jpg,Red_Triangle_Stripes_1.jpg,Blue_Circle_Grid_2.jpg,right,658.0000000540167,true,high,false
TBuPGpfu,36818z1kw6qmfrfyj2vkz259guma30,39dd6s19jtosdh1xbgxho6w60uhze4,TBuPGpfu,2020-0188,2020-05-08,09:36:33,09:55:33,NA,incomplete,30,number,0,right,Blue_Circle_Dots_2.jpg,Green_Circle_Grid_3.jpg,Red_Star_Chess_2.jpg,left,667.9999998304993,false,high,false
TBuPGpfu,36818z1kw6qmfrfyj2vkz259guma30,39dd6s19jtosdh1xbgxho6w60uhze4,TBuPGpfu,2020-0188,2020-05-08,09:36:33,09:55:33,NA,incomplete,31,number,0,right,Red_Plus_Chess_2.jpg,Purple_Plus_Dots_3.jpg,Green_Star_Grid_2.jpg,left,736.9999999646097,false,high,false
TBuPGpfu,36818z1kw6qmfrfyj2vkz259guma30,39dd6s19jtosdh1xbgxho6w60uhze4,TBuPGpfu,2020-0188,2020-05-08,09:36:33,09:55:33,NA,incomplete,32,number,1,right,Red_Plus_Chess_2.jpg,Blue_Plus_Dots_4.jpg,Green_Triangle_Stripes_2.jpg,left,657.0000001229346,false,high,false
TBuPGpfu,36818z1kw6qmfrfyj2vkz259guma30,39dd6s19jtosdh1xbgxho6w60uhze4,TBuPGpfu,2020-0188,2020-05-08,09:36:33,09:55:33,NA,incomplete,33,number,1,left,Blue_Plus_Dots_4.jpg,Green_Circle_Stripes_4.jpg,Purple_Plus_Grid_1.jpg,right,641.9999999925494,false,high,false
TBuPGpfu,36818z1kw6qmfrfyj2vkz259guma30,39dd6s19jtosdh1xbgxho6w60uhze4,TBuPGpfu,2020-0188,2020-05-08,09:36:33,09:55:33,NA,incomplete,34,number,0,right,Blue_Triangle_Chess_4.jpg,Green_Triangle_Dots_1.jpg,Red_Plus_Grid_4.jpg,right,667.9999998304993,true,high,false
TBuPGpfu,36818z1kw6qmfrfyj2vkz259guma30,39dd6s19jtosdh1xbgxho6w60uhze4,TBuPGpfu,2020-0188,2020-05-08,09:36:33,09:55:33,NA,incomplete,35,number,0,left,Green_Triangle_Grid_2.jpg,Red_Circle_Stripes_2.jpg,Purple_Triangle_Chess_3.jpg,left,770.9999999497086,true,high,false
TBuPGpfu,36818z1kw6qmfrfyj2vkz259guma30,39dd6s19jtosdh1xbgxho6w60uhze4,TBuPGpfu,2020-0188,2020-05-08,09:36:33,09:55:33,NA,incomplete,36,number,1,right,Green_Circle_Grid_2.jpg,Blue_Circle_Chess_1.jpg,Red_Plus_Stripes_2.jpg,left,665.0000000372529,false,high,false
TBuPGpfu,36818z1kw6qmfrfyj2vkz259guma30,39dd6s19jtosdh1xbgxho6w60uhze4,TBuPGpfu,2020-0188,2020-05-08,09:36:33,09:55:33,NA,incomplete,37,number,0,right,Purple_Star_Chess_3.jpg,Green_Star_Grid_1.jpg,Blue_Triangle_Dots_3.jpg,right,886.000000173226,true,high,false
TBuPGpfu,36818z1kw6qmfrfyj2vkz259guma30,39dd6s19jtosdh1xbgxho6w60uhze4,TBuPGpfu,2020-0188,2020-05-08,09:36:33,09:55:33,NA,incomplete,38,number,1,right,Blue_Triangle_Grid_1.jpg,Green_Triangle_Stripes_2.jpg,Red_Plus_Chess_1.jpg,left,908.9999999850988,false,high,false
TBuPGpfu,36818z1kw6qmfrfyj2vkz259guma30,39dd6s19jtosdh1xbgxho6w60uhze4,TBuPGpfu,2020-0188,2020-05-08,09:36:33,09:55:33,NA,incomplete,39,number,1,right,Green_Circle_Stripes_1.jpg,Blue_Circle_Chess_3.jpg,Purple_Triangle_Grid_1.jpg,right,633.9999998454005,true,high,false
TBuPGpfu,36818z1kw6qmfrfyj2vkz259guma30,39dd6s19jtosdh1xbgxho6w60uhze4,TBuPGpfu,2020-0188,2020-05-08,09:36:33,09:55:33,NA,incomplete,40,shape,1,right,Red_Circle_Stripes_3.jpg,Green_Star_Grid_3.jpg,Purple_Circle_Chess_1.jpg,left,641.9999999925494,false,high,false
TBuPGpfu,36818z1kw6qmfrfyj2vkz259guma30,39dd6s19jtosdh1xbgxho6w60uhze4,TBuPGpfu,2020-0188,2020-05-08,09:36:33,09:55:33,NA,incomplete,41,shape,1,right,Red_Triangle_Chess_2.jpg,Purple_Star_Grid_2.jpg,Green_Triangle_Stripes_4.jpg,left,712.000000057742,false,high,false
TBuPGpfu,36818z1kw6qmfrfyj2vkz259guma30,39dd6s19jtosdh1xbgxho6w60uhze4,TBuPGpfu,2020-0188,2020-05-08,09:36:33,09:55:33,NA,incomplete,42,shape,1,right,Red_Star_Dots_4.jpg,Blue_Circle_Grid_4.jpg,Purple_Star_Chess_1.jpg,right,653.9999998640269,true,high,false
TBuPGpfu,36818z1kw6qmfrfyj2vkz259guma30,39dd6s19jtosdh1xbgxho6w60uhze4,TBuPGpfu,2020-0188,2020-05-08,09:36:33,09:55:33,NA,incomplete,43,shape,1,left,Green_Star_Stripes_2.jpg,Red_Star_Grid_1.jpg,Blue_Plus_Dots_2.jpg,left,650.0000001396984,true,high,false
TBuPGpfu,36818z1kw6qmfrfyj2vkz259guma30,39dd6s19jtosdh1xbgxho6w60uhze4,TBuPGpfu,2020-0188,2020-05-08,09:36:33,09:55:33,NA,incomplete,44,shape,1,right,Purple_Circle_Dots_4.jpg,Green_Plus_Chess_4.jpg,Red_Circle_Stripes_3.jpg,right,810.9999999869615,true,high,false
TBuPGpfu,36818z1kw6qmfrfyj2vkz259guma30,39dd6s19jtosdh1xbgxho6w60uhze4,TBuPGpfu,2020-0188,2020-05-08,09:36:33,09:55:33,NA,incomplete,45,shape,1,left,Purple_Triangle_Chess_2.jpg,Blue_Triangle_Dots_4.jpg,Red_Circle_Stripes_2.jpg,left,638.0000000353903,true,high,false
TBuPGpfu,36818z1kw6qmfrfyj2vkz259guma30,39dd6s19jtosdh1xbgxho6w60uhze4,TBuPGpfu,2020-0188,2020-05-08,09:36:33,09:55:33,NA,incomplete,46,shape,1,right,Green_Circle_Chess_3.jpg,Blue_Plus_Grid_3.jpg,Red_Circle_Dots_4.jpg,right,766.0000000614673,true,high,false
TBuPGpfu,36818z1kw6qmfrfyj2vkz259guma30,39dd6s19jtosdh1xbgxho6w60uhze4,TBuPGpfu,2020-0188,2020-05-08,09:36:33,09:55:33,NA,incomplete,47,shape,1,right,Purple_Plus_Stripes_3.jpg,Blue_Circle_Chess_3.jpg,Green_Plus_Dots_4.jpg,right,733.9999999385327,true,high,false
TBuPGpfu,36818z1kw6qmfrfyj2vkz259guma30,39dd6s19jtosdh1xbgxho6w60uhze4,TBuPGpfu,2020-0188,2020-05-08,09:36:33,09:55:33,NA,incomplete,48,shape,1,right,Green_Circle_Grid_3.jpg,Red_Plus_Dots_3.jpg,Purple_Circle_Chess_4.jpg,right,589.9999998509884,true,high,false
TBuPGpfu,36818z1kw6qmfrfyj2vkz259guma30,39dd6s19jtosdh1xbgxho6w60uhze4,TBuPGpfu,2020-0188,2020-05-08,09:36:33,09:55:33,NA,incomplete,49,shape,1,right,Blue_Plus_Stripes_2.jpg,Green_Circle_Chess_2.jpg,Red_Plus_Dots_1.jpg,right,594.0000000409782,true,high,false
TBuPGpfu,36818z1kw6qmfrfyj2vkz259guma30,39dd6s19jtosdh1xbgxho6w60uhze4,TBuPGpfu,2020-0188,2020-05-08,09:36:33,09:55:33,NA,incomplete,50,number,1,left,Green_Triangle_Chess_3.jpg,Purple_Plus_Grid_3.jpg,Blue_Triangle_Dots_4.jpg,right,628.9999999571592,false,high,false
TBuPGpfu,36818z1kw6qmfrfyj2vkz259guma30,39dd6s19jtosdh1xbgxho6w60uhze4,TBuPGpfu,2020-0188,2020-05-08,09:36:33,09:55:33,NA,incomplete,51,number,1,right,Purple_Triangle_Grid_1.jpg,Green_Triangle_Stripes_4.jpg,Blue_Plus_Chess_1.jpg,left,819.0000001341105,false,high,false
TBuPGpfu,36818z1kw6qmfrfyj2vkz259guma30,39dd6s19jtosdh1xbgxho6w60uhze4,TBuPGpfu,2020-0188,2020-05-08,09:36:33,09:55:33,NA,incomplete,52,number,1,left,Red_Plus_Chess_2.jpg,Purple_Triangle_Stripes_2.jpg,Blue_Plus_Dots_1.jpg,left,697.999999858439,true,high,false
TBuPGpfu,36818z1kw6qmfrfyj2vkz259guma30,39dd6s19jtosdh1xbgxho6w60uhze4,TBuPGpfu,2020-0188,2020-05-08,09:36:33,09:55:33,NA,incomplete,53,number,0,right,Purple_Triangle_Dots_1.jpg,Red_Triangle_Stripes_4.jpg,Blue_Plus_Chess_1.jpg,right,1033.9999999850988,true,high,false
TBuPGpfu,36818z1kw6qmfrfyj2vkz259guma30,39dd6s19jtosdh1xbgxho6w60uhze4,TBuPGpfu,2020-0188,2020-05-08,09:36:33,09:55:33,NA,incomplete,54,number,1,left,Green_Triangle_Grid_4.jpg,Purple_Circle_Dots_4.jpg,Red_Triangle_Chess_1.jpg,right,655.0000000279397,false,high,false
TBuPGpfu,36818z1kw6qmfrfyj2vkz259guma30,39dd6s19jtosdh1xbgxho6w60uhze4,TBuPGpfu,2020-0188,2020-05-08,09:36:33,09:55:33,NA,incomplete,55,number,1,right,Red_Star_Chess_1.jpg,Purple_Star_Dots_3.jpg,Green_Plus_Stripes_1.jpg,left,1225.0000000931323,false,high,false
TBuPGpfu,36818z1kw6qmfrfyj2vkz259guma30,39dd6s19jtosdh1xbgxho6w60uhze4,TBuPGpfu,2020-0188,2020-05-08,09:36:33,09:55:33,NA,incomplete,56,number,1,right,Purple_Circle_Chess_2.jpg,Green_Circle_Dots_4.jpg,Red_Triangle_Grid_2.jpg,right,764.000000199303,true,high,false
TBuPGpfu,36818z1kw6qmfrfyj2vkz259guma30,39dd6s19jtosdh1xbgxho6w60uhze4,TBuPGpfu,2020-0188,2020-05-08,09:36:33,09:55:33,NA,incomplete,57,number,1,left,Green_Circle_Dots_2.jpg,Blue_Triangle_Chess_2.jpg,Red_Circle_Grid_1.jpg,left,712.9999999888241,true,high,false
TBuPGpfu,36818z1kw6qmfrfyj2vkz259guma30,39dd6s19jtosdh1xbgxho6w60uhze4,TBuPGpfu,2020-0188,2020-05-08,09:36:33,09:55:33,NA,incomplete,58,number,1,left,Red_Star_Chess_2.jpg,Blue_Triangle_Stripes_2.jpg,Green_Star_Dots_3.jpg,left,628.000000026077,true,high,false
TBuPGpfu,36818z1kw6qmfrfyj2vkz259guma30,39dd6s19jtosdh1xbgxho6w60uhze4,TBuPGpfu,2020-0188,2020-05-08,09:36:33,09:55:33,NA,incomplete,59,number,1,right,Green_Star_Stripes_4.jpg,Purple_Star_Grid_1.jpg,Blue_Circle_Dots_4.jpg,right,675.9999999776483,true,high,false
TBuPGpfu,36818z1kw6qmfrfyj2vkz259guma30,39dd6s19jtosdh1xbgxho6w60uhze4,TBuPGpfu,2020-0188,2020-05-08,09:36:33,09:55:33,NA,incomplete,60,shape,1,right,Blue_Triangle_Grid_3.jpg,Purple_Circle_Dots_3.jpg,Red_Triangle_Chess_2.jpg,left,831.0000000055879,false,high,false
TBuPGpfu,36818z1kw6qmfrfyj2vkz259guma30,39dd6s19jtosdh1xbgxho6w60uhze4,TBuPGpfu,2020-0188,2020-05-08,09:36:33,09:55:33,NA,incomplete,61,shape,1,right,Blue_Circle_Grid_4.jpg,Green_Triangle_Chess_4.jpg,Purple_Circle_Dots_2.jpg,right,807.9999999608845,true,high,false
TBuPGpfu,36818z1kw6qmfrfyj2vkz259guma30,39dd6s19jtosdh1xbgxho6w60uhze4,TBuPGpfu,2020-0188,2020-05-08,09:36:33,09:55:33,NA,incomplete,62,shape,1,left,Purple_Circle_Dots_4.jpg,Blue_Circle_Chess_2.jpg,Red_Star_Grid_4.jpg,left,641.0000000614673,true,high,false
TBuPGpfu,36818z1kw6qmfrfyj2vkz259guma30,39dd6s19jtosdh1xbgxho6w60uhze4,TBuPGpfu,2020-0188,2020-05-08,09:36:33,09:55:33,NA,incomplete,63,shape,0,right,Green_Triangle_Stripes_2.jpg,Blue_Star_Dots_2.jpg,Purple_Triangle_Grid_3.jpg,right,658.0000000540167,true,high,false
TBuPGpfu,36818z1kw6qmfrfyj2vkz259guma30,39dd6s19jtosdh1xbgxho6w60uhze4,TBuPGpfu,2020-0188,2020-05-08,09:36:33,09:55:33,NA,incomplete,64,shape,1,right,Green_Triangle_Stripes_1.jpg,Purple_Plus_Chess_1.jpg,Blue_Triangle_Dots_3.jpg,right,689.0000000130385,true,high,false
TBuPGpfu,36818z1kw6qmfrfyj2vkz259guma30,39dd6s19jtosdh1xbgxho6w60uhze4,TBuPGpfu,2020-0188,2020-05-08,09:36:33,09:55:33,NA,incomplete,65,shape,1,right,Purple_Star_Grid_3.jpg,Green_Plus_Chess_3.jpg,Blue_Star_Dots_4.jpg,right,770.9999999497086,true,high,false
TBuPGpfu,36818z1kw6qmfrfyj2vkz259guma30,39dd6s19jtosdh1xbgxho6w60uhze4,TBuPGpfu,2020-0188,2020-05-08,09:36:33,09:55:33,NA,incomplete,66,shape,1,right,Purple_Star_Grid_2.jpg,Blue_Triangle_Stripes_2.jpg,Red_Star_Chess_3.jpg,right,576.0000001173466,true,high,false
TBuPGpfu,36818z1kw6qmfrfyj2vkz259guma30,39dd6s19jtosdh1xbgxho6w60uhze4,TBuPGpfu,2020-0188,2020-05-08,09:36:33,09:55:33,NA,incomplete,67,shape,1,right,Blue_Circle_Grid_4.jpg,Purple_Star_Stripes_4.jpg,Red_Circle_Dots_3.jpg,right,533.0000000540167,true,high,false
TBuPGpfu,36818z1kw6qmfrfyj2vkz259guma30,39dd6s19jtosdh1xbgxho6w60uhze4,TBuPGpfu,2020-0188,2020-05-08,09:36:33,09:55:33,NA,incomplete,68,shape,1,right,Blue_Circle_Stripes_2.jpg,Red_Triangle_Grid_2.jpg,Purple_Circle_Dots_1.jpg,right,615.9999999217689,true,high,false
TBuPGpfu,36818z1kw6qmfrfyj2vkz259guma30,39dd6s19jtosdh1xbgxho6w60uhze4,TBuPGpfu,2020-0188,2020-05-08,09:36:33,09:55:33,NA,incomplete,69,shape,0,left,Purple_Triangle_Stripes_3.jpg,Blue_Triangle_Chess_1.jpg,Green_Circle_Dots_3.jpg,left,651.0000000707805,true,high,false
TBuPGpfu,36818z1kw6qmfrfyj2vkz259guma30,39dd6s19jtosdh1xbgxho6w60uhze4,TBuPGpfu,2020-0188,2020-05-08,09:36:33,09:55:33,NA,incomplete,70,number,1,left,Green_Star_Grid_2.jpg,Red_Circle_Dots_2.jpg,Blue_Star_Stripes_1.jpg,left,737.0000001974404,true,high,false
TBuPGpfu,36818z1kw6qmfrfyj2vkz259guma30,39dd6s19jtosdh1xbgxho6w60uhze4,TBuPGpfu,2020-0188,2020-05-08,09:36:33,09:55:33,NA,incomplete,71,number,0,right,Red_Circle_Dots_2.jpg,Green_Circle_Stripes_3.jpg,Blue_Star_Grid_2.jpg,right,1287.999999942258,true,high,false
TBuPGpfu,36818z1kw6qmfrfyj2vkz259guma30,39dd6s19jtosdh1xbgxho6w60uhze4,TBuPGpfu,2020-0188,2020-05-08,09:36:33,09:55:33,NA,incomplete,72,number,0,right,Blue_Plus_Stripes_1.jpg,Green_Plus_Chess_3.jpg,Red_Star_Grid_1.jpg,right,554.9999999348074,true,high,false
TBuPGpfu,36818z1kw6qmfrfyj2vkz259guma30,39dd6s19jtosdh1xbgxho6w60uhze4,TBuPGpfu,2020-0188,2020-05-08,09:36:33,09:55:33,NA,incomplete,73,number,1,right,Blue_Plus_Grid_2.jpg,Purple_Plus_Dots_1.jpg,Red_Circle_Chess_2.jpg,left,648.0000000447035,false,high,false
TBuPGpfu,36818z1kw6qmfrfyj2vkz259guma30,39dd6s19jtosdh1xbgxho6w60uhze4,TBuPGpfu,2020-0188,2020-05-08,09:36:33,09:55:33,NA,incomplete,74,number,1,left,Red_Circle_Dots_3.jpg,Purple_Plus_Stripes_3.jpg,Blue_Circle_Chess_4.jpg,left,1010.0000000093132,true,high,false
TBuPGpfu,36818z1kw6qmfrfyj2vkz259guma30,39dd6s19jtosdh1xbgxho6w60uhze4,TBuPGpfu,2020-0188,2020-05-08,09:36:33,09:55:33,NA,incomplete,75,number,1,left,Blue_Star_Stripes_4.jpg,Purple_Plus_Grid_4.jpg,Green_Star_Dots_3.jpg,left,1292.0000001322478,true,high,false
TBuPGpfu,36818z1kw6qmfrfyj2vkz259guma30,39dd6s19jtosdh1xbgxho6w60uhze4,TBuPGpfu,2020-0188,2020-05-08,09:36:33,09:55:33,NA,incomplete,76,number,1,left,Blue_Plus_Dots_4.jpg,Red_Circle_Chess_4.jpg,Green_Plus_Stripes_1.jpg,left,641.9999999925494,true,high,false
TBuPGpfu,36818z1kw6qmfrfyj2vkz259guma30,39dd6s19jtosdh1xbgxho6w60uhze4,TBuPGpfu,2020-0188,2020-05-08,09:36:33,09:55:33,NA,incomplete,77,number,1,left,Blue_Star_Dots_1.jpg,Green_Circle_Chess_1.jpg,Red_Star_Grid_3.jpg,left,639.000000199303,true,high,false
TBuPGpfu,36818z1kw6qmfrfyj2vkz259guma30,39dd6s19jtosdh1xbgxho6w60uhze4,TBuPGpfu,2020-0188,2020-05-08,09:36:33,09:55:33,NA,incomplete,78,number,1,left,Blue_Star_Grid_3.jpg,Green_Plus_Stripes_3.jpg,Red_Star_Dots_4.jpg,left,807.9999999608845,true,high,false
TBuPGpfu,36818z1kw6qmfrfyj2vkz259guma30,39dd6s19jtosdh1xbgxho6w60uhze4,TBuPGpfu,2020-0188,2020-05-08,09:36:33,09:55:33,NA,incomplete,79,number,1,left,Green_Plus_Dots_1.jpg,Blue_Star_Grid_1.jpg,Red_Plus_Chess_4.jpg,left,556.0000000987202,true,high,false
TBuPGpfu,36818z1kw6qmfrfyj2vkz259guma30,39dd6s19jtosdh1xbgxho6w60uhze4,TBuPGpfu,2020-0188,2020-05-08,09:36:33,09:55:33,NA,incomplete,80,shape,1,left,Blue_Star_Chess_3.jpg,Red_Star_Stripes_2.jpg,Green_Circle_Grid_3.jpg,right,766.9999999925494,false,high,false
TBuPGpfu,36818z1kw6qmfrfyj2vkz259guma30,39dd6s19jtosdh1xbgxho6w60uhze4,TBuPGpfu,2020-0188,2020-05-08,09:36:33,09:55:33,NA,incomplete,81,shape,1,left,Blue_Plus_Grid_1.jpg,Green_Plus_Stripes_2.jpg,Purple_Star_Chess_1.jpg,left,812.0000001508743,true,high,false
TBuPGpfu,36818z1kw6qmfrfyj2vkz259guma30,39dd6s19jtosdh1xbgxho6w60uhze4,TBuPGpfu,2020-0188,2020-05-08,09:36:33,09:55:33,NA,incomplete,82,shape,1,right,Purple_Plus_Chess_1.jpg,Red_Circle_Grid_1.jpg,Blue_Plus_Dots_4.jpg,right,674.000000115484,true,high,false
TBuPGpfu,36818z1kw6qmfrfyj2vkz259guma30,39dd6s19jtosdh1xbgxho6w60uhze4,TBuPGpfu,2020-0188,2020-05-08,09:36:33,09:55:33,NA,incomplete,83,shape,0,left,Green_Plus_Grid_2.jpg,Red_Plus_Dots_1.jpg,Purple_Triangle_Chess_2.jpg,right,945.0000000651926,false,high,false
TBuPGpfu,36818z1kw6qmfrfyj2vkz259guma30,39dd6s19jtosdh1xbgxho6w60uhze4,TBuPGpfu,2020-0188,2020-05-08,09:36:33,09:55:33,NA,incomplete,84,shape,0,right,Red_Plus_Dots_1.jpg,Blue_Triangle_Stripes_1.jpg,Purple_Plus_Grid_2.jpg,right,804.9999999348074,true,high,false
TBuPGpfu,36818z1kw6qmfrfyj2vkz259guma30,39dd6s19jtosdh1xbgxho6w60uhze4,TBuPGpfu,2020-0188,2020-05-08,09:36:33,09:55:33,NA,incomplete,85,shape,1,left,Green_Circle_Dots_3.jpg,Purple_Circle_Chess_1.jpg,Red_Triangle_Grid_3.jpg,right,834.9999999627471,false,high,false
TBuPGpfu,36818z1kw6qmfrfyj2vkz259guma30,39dd6s19jtosdh1xbgxho6w60uhze4,TBuPGpfu,2020-0188,2020-05-08,09:36:33,09:55:33,NA,incomplete,86,shape,1,left,Green_Star_Stripes_2.jpg,Purple_Star_Chess_1.jpg,Blue_Plus_Dots_2.jpg,right,875,false,high,false
TBuPGpfu,36818z1kw6qmfrfyj2vkz259guma30,39dd6s19jtosdh1xbgxho6w60uhze4,TBuPGpfu,2020-0188,2020-05-08,09:36:33,09:55:33,NA,incomplete,87,shape,1,left,Purple_Triangle_Stripes_3.jpg,Blue_Triangle_Grid_1.jpg,Red_Circle_Chess_3.jpg,left,797.9999999515712,true,high,false
TBuPGpfu,36818z1kw6qmfrfyj2vkz259guma30,39dd6s19jtosdh1xbgxho6w60uhze4,TBuPGpfu,2020-0188,2020-05-08,09:36:33,09:55:33,NA,incomplete,88,shape,1,left,Green_Plus_Chess_1.jpg,Blue_Plus_Stripes_2.jpg,Purple_Triangle_Grid_1.jpg,left,705.0000000745058,true,high,false
TBuPGpfu,36818z1kw6qmfrfyj2vkz259guma30,39dd6s19jtosdh1xbgxho6w60uhze4,TBuPGpfu,2020-0188,2020-05-08,09:36:33,09:55:33,NA,incomplete,89,shape,1,left,Red_Plus_Dots_2.jpg,Green_Plus_Grid_1.jpg,Blue_Star_Stripes_2.jpg,left,1251.0000001639128,true,high,false
TBuPGpfu,36818z1kw6qmfrfyj2vkz259guma30,39dd6s19jtosdh1xbgxho6w60uhze4,TBuPGpfu,2020-0188,2020-05-08,09:36:33,09:55:33,NA,incomplete,90,number,1,left,Red_Star_Chess_4.jpg,Blue_Triangle_Stripes_4.jpg,Purple_Star_Grid_1.jpg,right,1021.9999998807907,false,high,false
TBuPGpfu,36818z1kw6qmfrfyj2vkz259guma30,39dd6s19jtosdh1xbgxho6w60uhze4,TBuPGpfu,2020-0188,2020-05-08,09:36:33,09:55:33,NA,incomplete,91,number,1,right,Purple_Star_Dots_3.jpg,Blue_Star_Grid_1.jpg,Green_Circle_Stripes_3.jpg,right,702.9999999795109,true,high,false
TBuPGpfu,36818z1kw6qmfrfyj2vkz259guma30,39dd6s19jtosdh1xbgxho6w60uhze4,TBuPGpfu,2020-0188,2020-05-08,09:36:33,09:55:33,NA,incomplete,92,number,1,right,Green_Triangle_Dots_1.jpg,Red_Triangle_Grid_4.jpg,Blue_Circle_Stripes_1.jpg,right,648.0000000447035,true,high,false
TBuPGpfu,36818z1kw6qmfrfyj2vkz259guma30,39dd6s19jtosdh1xbgxho6w60uhze4,TBuPGpfu,2020-0188,2020-05-08,09:36:33,09:55:33,NA,incomplete,93,number,1,right,Green_Star_Chess_1.jpg,Purple_Star_Grid_4.jpg,Blue_Circle_Stripes_1.jpg,right,616.0000001545995,true,high,false
TBuPGpfu,36818z1kw6qmfrfyj2vkz259guma30,39dd6s19jtosdh1xbgxho6w60uhze4,TBuPGpfu,2020-0188,2020-05-08,09:36:33,09:55:33,NA,incomplete,94,number,1,right,Red_Star_Grid_2.jpg,Green_Star_Dots_3.jpg,Purple_Triangle_Stripes_2.jpg,right,729.9999999813735,true,high,false
TBuPGpfu,36818z1kw6qmfrfyj2vkz259guma30,39dd6s19jtosdh1xbgxho6w60uhze4,TBuPGpfu,2020-0188,2020-05-08,09:36:33,09:55:33,NA,incomplete,95,number,1,left,Purple_Circle_Dots_1.jpg,Red_Triangle_Chess_1.jpg,Blue_Circle_Stripes_2.jpg,left,707.9999998677522,true,high,false
TBuPGpfu,36818z1kw6qmfrfyj2vkz259guma30,39dd6s19jtosdh1xbgxho6w60uhze4,TBuPGpfu,2020-0188,2020-05-08,09:36:33,09:55:33,NA,incomplete,96,number,1,right,Red_Circle_Dots_4.jpg,Green_Circle_Stripes_1.jpg,Blue_Triangle_Grid_4.jpg,right,888.9999999664724,true,high,false
TBuPGpfu,36818z1kw6qmfrfyj2vkz259guma30,39dd6s19jtosdh1xbgxho6w60uhze4,TBuPGpfu,2020-0188,2020-05-08,09:36:33,09:55:33,NA,incomplete,97,number,1,left,Green_Triangle_Chess_1.jpg,Purple_Star_Dots_1.jpg,Blue_Triangle_Grid_4.jpg,left,581.0000000055879,true,high,false
TBuPGpfu,36818z1kw6qmfrfyj2vkz259guma30,39dd6s19jtosdh1xbgxho6w60uhze4,TBuPGpfu,2020-0188,2020-05-08,09:36:33,09:55:33,NA,incomplete,98,number,1,left,Green_Triangle_Dots_1.jpg,Blue_Star_Chess_1.jpg,Red_Triangle_Stripes_3.jpg,left,587.000000057742,true,high,false
TBuPGpfu,36818z1kw6qmfrfyj2vkz259guma30,39dd6s19jtosdh1xbgxho6w60uhze4,TBuPGpfu,2020-0188,2020-05-08,09:36:33,09:55:33,NA,incomplete,99,number,1,left,Red_Circle_Grid_2.jpg,Purple_Plus_Stripes_2.jpg,Green_Circle_Dots_3.jpg,left,936.9999999180436,true,high,false
TBuPGpfu,36818z1kw6qmfrfyj2vkz259guma30,39dd6s19jtosdh1xbgxho6w60uhze4,TBuPGpfu,2020-0188,2020-05-08,09:36:33,09:55:33,NA,incomplete,100,shape,0,right,Purple_Triangle_Dots_1.jpg,Blue_Plus_Grid_1.jpg,Green_Triangle_Stripes_3.jpg,left,697.999999858439,false,high,false
TBuPGpfu,36818z1kw6qmfrfyj2vkz259guma30,39dd6s19jtosdh1xbgxho6w60uhze4,TBuPGpfu,2020-0188,2020-05-08,09:36:33,09:55:33,NA,incomplete,101,shape,1,left,Green_Star_Chess_2.jpg,Red_Star_Grid_1.jpg,Blue_Plus_Dots_2.jpg,right,657.0000001229346,false,high,false
TBuPGpfu,36818z1kw6qmfrfyj2vkz259guma30,39dd6s19jtosdh1xbgxho6w60uhze4,TBuPGpfu,2020-0188,2020-05-08,09:36:33,09:55:33,NA,incomplete,102,shape,0,left,Purple_Triangle_Chess_1.jpg,Red_Triangle_Stripes_2.jpg,Blue_Plus_Grid_1.jpg,left,621.999999973923,true,high,false
TBuPGpfu,36818z1kw6qmfrfyj2vkz259guma30,39dd6s19jtosdh1xbgxho6w60uhze4,TBuPGpfu,2020-0188,2020-05-08,09:36:33,09:55:33,NA,incomplete,103,shape,1,left,Green_Star_Dots_1.jpg,Red_Star_Stripes_2.jpg,Blue_Triangle_Grid_1.jpg,right,685.0000000558794,false,high,false
TBuPGpfu,36818z1kw6qmfrfyj2vkz259guma30,39dd6s19jtosdh1xbgxho6w60uhze4,TBuPGpfu,2020-0188,2020-05-08,09:36:33,09:55:33,NA,incomplete,104,shape,0,right,Red_Triangle_Chess_2.jpg,Purple_Star_Stripes_2.jpg,Green_Triangle_Dots_4.jpg,right,977.9999998863786,true,high,false
TBuPGpfu,36818z1kw6qmfrfyj2vkz259guma30,39dd6s19jtosdh1xbgxho6w60uhze4,TBuPGpfu,2020-0188,2020-05-08,09:36:33,09:55:33,NA,incomplete,105,shape,1,left,Blue_Star_Stripes_2.jpg,Green_Star_Dots_3.jpg,Red_Triangle_Grid_2.jpg,right,948.0000000912696,false,high,false
TBuPGpfu,36818z1kw6qmfrfyj2vkz259guma30,39dd6s19jtosdh1xbgxho6w60uhze4,TBuPGpfu,2020-0188,2020-05-08,09:36:33,09:55:33,NA,incomplete,106,shape,1,right,Blue_Plus_Dots_2.jpg,Purple_Circle_Chess_2.jpg,Red_Plus_Stripes_4.jpg,right,1098.9999999292195,true,high,false
TBuPGpfu,36818z1kw6qmfrfyj2vkz259guma30,39dd6s19jtosdh1xbgxho6w60uhze4,TBuPGpfu,2020-0188,2020-05-08,09:36:33,09:55:33,NA,incomplete,107,shape,1,right,Purple_Plus_Stripes_2.jpg,Red_Triangle_Dots_2.jpg,Blue_Plus_Grid_3.jpg,right,910.0000001490116,true,high,false
TBuPGpfu,36818z1kw6qmfrfyj2vkz259guma30,39dd6s19jtosdh1xbgxho6w60uhze4,TBuPGpfu,2020-0188,2020-05-08,09:36:33,09:55:33,NA,incomplete,108,shape,1,right,Green_Star_Grid_3.jpg,Red_Circle_Dots_3.jpg,Purple_Star_Stripes_1.jpg,right,900.0000001396984,true,high,false
TBuPGpfu,36818z1kw6qmfrfyj2vkz259guma30,39dd6s19jtosdh1xbgxho6w60uhze4,TBuPGpfu,2020-0188,2020-05-08,09:36:33,09:55:33,NA,incomplete,109,shape,1,left,Red_Triangle_Stripes_1.jpg,Blue_Triangle_Dots_2.jpg,Purple_Circle_Chess_1.jpg,left,768.9999998547137,true,high,false
TBuPGpfu,36818z1kw6qmfrfyj2vkz259guma30,39dd6s19jtosdh1xbgxho6w60uhze4,TBuPGpfu,2020-0188,2020-05-08,09:36:33,09:55:33,NA,incomplete,110,number,1,left,Red_Star_Grid_2.jpg,Purple_Triangle_Chess_2.jpg,Blue_Star_Dots_3.jpg,right,665.999999968335,false,high,false
TBuPGpfu,36818z1kw6qmfrfyj2vkz259guma30,39dd6s19jtosdh1xbgxho6w60uhze4,TBuPGpfu,2020-0188,2020-05-08,09:36:33,09:55:33,NA,incomplete,111,number,1,left,Green_Triangle_Chess_4.jpg,Blue_Plus_Dots_4.jpg,Purple_Triangle_Stripes_1.jpg,left,651.0000000707805,true,high,false
TBuPGpfu,36818z1kw6qmfrfyj2vkz259guma30,39dd6s19jtosdh1xbgxho6w60uhze4,TBuPGpfu,2020-0188,2020-05-08,09:36:33,09:55:33,NA,incomplete,112,number,0,right,Green_Star_Stripes_2.jpg,Red_Star_Grid_4.jpg,Purple_Circle_Chess_2.jpg,right,717.0000001788139,true,high,false
TBuPGpfu,36818z1kw6qmfrfyj2vkz259guma30,39dd6s19jtosdh1xbgxho6w60uhze4,TBuPGpfu,2020-0188,2020-05-08,09:36:33,09:55:33,NA,incomplete,113,number,0,left,Purple_Triangle_Stripes_2.jpg,Blue_Circle_Chess_2.jpg,Green_Triangle_Dots_3.jpg,left,868.0000000167638,true,high,false
TBuPGpfu,36818z1kw6qmfrfyj2vkz259guma30,39dd6s19jtosdh1xbgxho6w60uhze4,TBuPGpfu,2020-0188,2020-05-08,09:36:33,09:55:33,NA,incomplete,114,number,1,left,Red_Star_Grid_1.jpg,Purple_Triangle_Dots_1.jpg,Green_Star_Chess_2.jpg,right,705.0000000745058,false,high,false
TBuPGpfu,36818z1kw6qmfrfyj2vkz259guma30,39dd6s19jtosdh1xbgxho6w60uhze4,TBuPGpfu,2020-0188,2020-05-08,09:36:33,09:55:33,NA,incomplete,115,number,1,left,Green_Triangle_Chess_3.jpg,Purple_Circle_Grid_3.jpg,Blue_Triangle_Stripes_4.jpg,right,831.9999999366701,false,high,false
TBuPGpfu,36818z1kw6qmfrfyj2vkz259guma30,39dd6s19jtosdh1xbgxho6w60uhze4,TBuPGpfu,2020-0188,2020-05-08,09:36:33,09:55:33,NA,incomplete,116,number,1,right,Purple_Triangle_Stripes_1.jpg,Blue_Triangle_Grid_4.jpg,Red_Star_Dots_1.jpg,right,1170.0000001583248,true,high,false
TBuPGpfu,36818z1kw6qmfrfyj2vkz259guma30,39dd6s19jtosdh1xbgxho6w60uhze4,TBuPGpfu,2020-0188,2020-05-08,09:36:33,09:55:33,NA,incomplete,117,number,1,right,Green_Triangle_Grid_2.jpg,Purple_Triangle_Dots_4.jpg,Blue_Circle_Chess_2.jpg,right,861.0000000335276,true,high,false
TBuPGpfu,36818z1kw6qmfrfyj2vkz259guma30,39dd6s19jtosdh1xbgxho6w60uhze4,TBuPGpfu,2020-0188,2020-05-08,09:36:33,09:55:33,NA,incomplete,118,number,1,right,Green_Star_Grid_2.jpg,Red_Star_Chess_3.jpg,Purple_Plus_Stripes_2.jpg,right,933.9999998919666,true,high,false
TBuPGpfu,36818z1kw6qmfrfyj2vkz259guma30,39dd6s19jtosdh1xbgxho6w60uhze4,TBuPGpfu,2020-0188,2020-05-08,09:36:33,09:55:33,NA,incomplete,119,number,1,left,Green_Triangle_Grid_1.jpg,Red_Circle_Chess_1.jpg,Purple_Triangle_Dots_4.jpg,left,608.0000000074506,true,high,false
TBuPGpfu,36818z1kw6qmfrfyj2vkz259guma30,39dd6s19jtosdh1xbgxho6w60uhze4,TBuPGpfu,2020-0188,2020-05-08,09:36:33,09:55:33,NA,incomplete,120,shape,1,right,Purple_Circle_Dots_2.jpg,Green_Triangle_Stripes_2.jpg,Blue_Circle_Grid_3.jpg,left,817.9999999701977,false,high,false
TBuPGpfu,36818z1kw6qmfrfyj2vkz259guma30,39dd6s19jtosdh1xbgxho6w60uhze4,TBuPGpfu,2020-0188,2020-05-08,09:36:33,09:55:33,NA,incomplete,121,shape,0,right,Green_Triangle_Chess_3.jpg,Red_Plus_Dots_3.jpg,Purple_Triangle_Stripes_4.jpg,right,644.0000000875443,true,high,false
TBuPGpfu,36818z1kw6qmfrfyj2vkz259guma30,39dd6s19jtosdh1xbgxho6w60uhze4,TBuPGpfu,2020-0188,2020-05-08,09:36:33,09:55:33,NA,incomplete,122,shape,1,right,Blue_Plus_Chess_3.jpg,Purple_Circle_Stripes_3.jpg,Green_Plus_Grid_1.jpg,left,729.9999999813735,false,high,false
TBuPGpfu,36818z1kw6qmfrfyj2vkz259guma30,39dd6s19jtosdh1xbgxho6w60uhze4,TBuPGpfu,2020-0188,2020-05-08,09:36:33,09:55:33,NA,incomplete,123,shape,1,left,Purple_Triangle_Chess_2.jpg,Red_Triangle_Grid_3.jpg,Blue_Circle_Dots_2.jpg,left,753.9999999571592,true,high,false
TBuPGpfu,36818z1kw6qmfrfyj2vkz259guma30,39dd6s19jtosdh1xbgxho6w60uhze4,TBuPGpfu,2020-0188,2020-05-08,09:36:33,09:55:33,NA,incomplete,124,shape,1,right,Blue_Plus_Dots_2.jpg,Green_Star_Stripes_2.jpg,Red_Plus_Chess_1.jpg,right,775.9999998379499,true,high,false
TBuPGpfu,36818z1kw6qmfrfyj2vkz259guma30,39dd6s19jtosdh1xbgxho6w60uhze4,TBuPGpfu,2020-0188,2020-05-08,09:36:33,09:55:33,NA,incomplete,125,shape,1,left,Red_Circle_Dots_3.jpg,Purple_Circle_Chess_4.jpg,Green_Star_Stripes_3.jpg,left,792.0000001322478,true,high,false
TBuPGpfu,36818z1kw6qmfrfyj2vkz259guma30,39dd6s19jtosdh1xbgxho6w60uhze4,TBuPGpfu,2020-0188,2020-05-08,09:36:33,09:55:33,NA,incomplete,126,shape,1,left,Blue_Circle_Stripes_1.jpg,Purple_Circle_Chess_3.jpg,Red_Plus_Dots_1.jpg,left,611.9999999646097,true,high,false
TBuPGpfu,36818z1kw6qmfrfyj2vkz259guma30,39dd6s19jtosdh1xbgxho6w60uhze4,TBuPGpfu,2020-0188,2020-05-08,09:36:33,09:55:33,NA,incomplete,127,shape,1,left,Purple_Triangle_Chess_4.jpg,Blue_Triangle_Stripes_3.jpg,Red_Circle_Grid_4.jpg,left,719.9999999720603,true,high,false
TBuPGpfu,36818z1kw6qmfrfyj2vkz259guma30,39dd6s19jtosdh1xbgxho6w60uhze4,TBuPGpfu,2020-0188,2020-05-08,09:36:33,09:55:33,NA,incomplete,128,shape,1,right,Red_Plus_Stripes_4.jpg,Blue_Triangle_Grid_4.jpg,Purple_Plus_Chess_3.jpg,right,586.0000001266599,true,high,false
TBuPGpfu,36818z1kw6qmfrfyj2vkz259guma30,39dd6s19jtosdh1xbgxho6w60uhze4,TBuPGpfu,2020-0188,2020-05-08,09:36:33,09:55:33,NA,incomplete,129,shape,1,left,Green_Plus_Stripes_3.jpg,Blue_Plus_Chess_1.jpg,Red_Circle_Dots_3.jpg,left,655.9999999590218,true,high,false
TBuPGpfu,36818z1kw6qmfrfyj2vkz259guma30,39dd6s19jtosdh1xbgxho6w60uhze4,TBuPGpfu,2020-0188,2020-05-08,09:36:33,09:55:33,NA,incomplete,130,shape,1,right,Green_Plus_Stripes_2.jpg,Blue_Triangle_Dots_2.jpg,Red_Plus_Grid_1.jpg,right,775.9999998379499,true,high,false
TBuPGpfu,36818z1kw6qmfrfyj2vkz259guma30,39dd6s19jtosdh1xbgxho6w60uhze4,TBuPGpfu,2020-0188,2020-05-08,09:36:33,09:55:33,NA,incomplete,131,shape,0,left,Blue_Plus_Dots_1.jpg,Red_Plus_Grid_2.jpg,Purple_Triangle_Stripes_1.jpg,left,629.9999998882413,true,high,false
TBuPGpfu,36818z1kw6qmfrfyj2vkz259guma30,39dd6s19jtosdh1xbgxho6w60uhze4,TBuPGpfu,2020-0188,2020-05-08,09:36:33,09:55:33,NA,incomplete,132,shape,1,right,Purple_Star_Chess_3.jpg,Blue_Circle_Grid_3.jpg,Green_Star_Stripes_2.jpg,left,745.0000001117587,false,high,false
TBuPGpfu,36818z1kw6qmfrfyj2vkz259guma30,39dd6s19jtosdh1xbgxho6w60uhze4,TBuPGpfu,2020-0188,2020-05-08,09:36:33,09:55:33,NA,incomplete,133,shape,1,left,Red_Star_Stripes_1.jpg,Green_Star_Grid_3.jpg,Blue_Plus_Dots_1.jpg,left,746.999999973923,true,high,false
TBuPGpfu,36818z1kw6qmfrfyj2vkz259guma30,39dd6s19jtosdh1xbgxho6w60uhze4,TBuPGpfu,2020-0188,2020-05-08,09:36:33,09:55:33,NA,incomplete,134,shape,1,left,Blue_Triangle_Chess_3.jpg,Green_Triangle_Dots_1.jpg,Purple_Star_Stripes_3.jpg,left,921.000000089407,true,high,false
TBuPGpfu,36818z1kw6qmfrfyj2vkz259guma30,39dd6s19jtosdh1xbgxho6w60uhze4,TBuPGpfu,2020-0188,2020-05-08,09:36:33,09:55:33,NA,incomplete,135,shape,1,left,Purple_Circle_Stripes_2.jpg,Green_Circle_Chess_3.jpg,Blue_Triangle_Dots_2.jpg,left,629.9999998882413,true,high,false
TBuPGpfu,36818z1kw6qmfrfyj2vkz259guma30,39dd6s19jtosdh1xbgxho6w60uhze4,TBuPGpfu,2020-0188,2020-05-08,09:36:33,09:55:33,NA,incomplete,136,shape,1,left,Purple_Plus_Stripes_4.jpg,Red_Plus_Chess_1.jpg,Green_Circle_Grid_4.jpg,left,726.9999999552965,true,high,false
TBuPGpfu,36818z1kw6qmfrfyj2vkz259guma30,39dd6s19jtosdh1xbgxho6w60uhze4,TBuPGpfu,2020-0188,2020-05-08,09:36:33,09:55:33,NA,incomplete,137,shape,0,left,Purple_Plus_Grid_4.jpg,Blue_Plus_Dots_1.jpg,Red_Triangle_Stripes_4.jpg,left,941.9999998062849,true,high,false
TBuPGpfu,36818z1kw6qmfrfyj2vkz259guma30,39dd6s19jtosdh1xbgxho6w60uhze4,TBuPGpfu,2020-0188,2020-05-08,09:36:33,09:55:33,NA,incomplete,138,shape,1,right,Red_Plus_Grid_4.jpg,Purple_Triangle_Stripes_4.jpg,Green_Plus_Dots_3.jpg,right,959.9999999627471,true,high,false
TBuPGpfu,36818z1kw6qmfrfyj2vkz259guma30,39dd6s19jtosdh1xbgxho6w60uhze4,TBuPGpfu,2020-0188,2020-05-08,09:36:33,09:55:33,NA,incomplete,139,shape,1,left,Blue_Star_Stripes_2.jpg,Green_Star_Grid_1.jpg,Red_Triangle_Chess_2.jpg,left,724.0000001620501,true,high,false
TBuPGpfu,36818z1kw6qmfrfyj2vkz259guma30,39dd6s19jtosdh1xbgxho6w60uhze4,TBuPGpfu,2020-0188,2020-05-08,09:36:33,09:55:33,NA,incomplete,140,number,0,right,Purple_Star_Dots_3.jpg,Green_Star_Stripes_4.jpg,Red_Circle_Chess_3.jpg,left,604.0000000502914,false,high,false
TBuPGpfu,36818z1kw6qmfrfyj2vkz259guma30,39dd6s19jtosdh1xbgxho6w60uhze4,TBuPGpfu,2020-0188,2020-05-08,09:36:33,09:55:33,NA,incomplete,141,number,1,right,Blue_Circle_Grid_1.jpg,Purple_Circle_Stripes_3.jpg,Green_Star_Chess_1.jpg,left,593.0000001098961,false,high,false
TBuPGpfu,36818z1kw6qmfrfyj2vkz259guma30,39dd6s19jtosdh1xbgxho6w60uhze4,TBuPGpfu,2020-0188,2020-05-08,09:36:33,09:55:33,NA,incomplete,142,number,1,left,Purple_Triangle_Grid_4.jpg,Blue_Star_Dots_4.jpg,Green_Triangle_Stripes_1.jpg,right,622.9999999050051,false,high,false
TBuPGpfu,36818z1kw6qmfrfyj2vkz259guma30,39dd6s19jtosdh1xbgxho6w60uhze4,TBuPGpfu,2020-0188,2020-05-08,09:36:33,09:55:33,NA,incomplete,143,number,1,left,Purple_Star_Grid_2.jpg,Blue_Triangle_Chess_2.jpg,Green_Star_Stripes_4.jpg,left,604.9999999813735,true,high,false
TBuPGpfu,36818z1kw6qmfrfyj2vkz259guma30,39dd6s19jtosdh1xbgxho6w60uhze4,TBuPGpfu,2020-0188,2020-05-08,09:36:33,09:55:33,NA,incomplete,144,number,1,right,Purple_Star_Chess_3.jpg,Red_Star_Grid_4.jpg,Green_Plus_Stripes_3.jpg,right,942.9999999701977,true,high,false
TBuPGpfu,36818z1kw6qmfrfyj2vkz259guma30,39dd6s19jtosdh1xbgxho6w60uhze4,TBuPGpfu,2020-0188,2020-05-08,09:36:33,09:55:33,NA,incomplete,145,number,1,right,Green_Triangle_Stripes_4.jpg,Blue_Triangle_Chess_2.jpg,Red_Star_Grid_4.jpg,right,747.9999999050051,true,high,false
TBuPGpfu,36818z1kw6qmfrfyj2vkz259guma30,39dd6s19jtosdh1xbgxho6w60uhze4,TBuPGpfu,2020-0188,2020-05-08,09:36:33,09:55:33,NA,incomplete,146,number,0,right,Blue_Triangle_Grid_3.jpg,Red_Triangle_Dots_2.jpg,Purple_Circle_Chess_3.jpg,right,870.0000001117587,true,high,false
TBuPGpfu,36818z1kw6qmfrfyj2vkz259guma30,39dd6s19jtosdh1xbgxho6w60uhze4,TBuPGpfu,2020-0188,2020-05-08,09:36:33,09:55:33,NA,incomplete,147,number,1,right,Red_Circle_Chess_4.jpg,Green_Circle_Dots_1.jpg,Purple_Plus_Grid_4.jpg,right,685.9999999869615,true,high,false
TBuPGpfu,36818z1kw6qmfrfyj2vkz259guma30,39dd6s19jtosdh1xbgxho6w60uhze4,TBuPGpfu,2020-0188,2020-05-08,09:36:33,09:55:33,NA,incomplete,148,number,0,left,Red_Circle_Grid_4.jpg,Green_Star_Dots_4.jpg,Purple_Circle_Chess_3.jpg,left,912.0000000111759,true,high,false
TBuPGpfu,36818z1kw6qmfrfyj2vkz259guma30,39dd6s19jtosdh1xbgxho6w60uhze4,TBuPGpfu,2020-0188,2020-05-08,09:36:33,09:55:33,NA,incomplete,149,number,1,left,Purple_Plus_Grid_3.jpg,Red_Star_Dots_3.jpg,Green_Plus_Chess_4.jpg,right,891.9999999925494,false,high,false
TBuPGpfu,36818z1kw6qmfrfyj2vkz259guma30,39dd6s19jtosdh1xbgxho6w60uhze4,TBuPGpfu,2020-0188,2020-05-08,09:36:33,09:55:33,NA,incomplete,150,number,1,left,Green_Triangle_Stripes_4.jpg,Blue_Plus_Chess_4.jpg,Red_Triangle_Grid_1.jpg,left,682.0000000298023,true,high,false
TBuPGpfu,36818z1kw6qmfrfyj2vkz259guma30,39dd6s19jtosdh1xbgxho6w60uhze4,TBuPGpfu,2020-0188,2020-05-08,09:36:33,09:55:33,NA,incomplete,151,number,1,right,Blue_Triangle_Dots_1.jpg,Purple_Triangle_Chess_3.jpg,Red_Star_Stripes_1.jpg,right,824.0000000223517,true,high,false
TBuPGpfu,36818z1kw6qmfrfyj2vkz259guma30,39dd6s19jtosdh1xbgxho6w60uhze4,TBuPGpfu,2020-0188,2020-05-08,09:36:33,09:55:33,NA,incomplete,152,number,1,left,Blue_Circle_Stripes_2.jpg,Green_Star_Dots_2.jpg,Red_Circle_Grid_1.jpg,left,704.0000001434237,true,high,false
TBuPGpfu,36818z1kw6qmfrfyj2vkz259guma30,39dd6s19jtosdh1xbgxho6w60uhze4,TBuPGpfu,2020-0188,2020-05-08,09:36:33,09:55:33,NA,incomplete,153,number,0,right,Purple_Star_Grid_3.jpg,Red_Star_Dots_1.jpg,Blue_Circle_Chess_3.jpg,right,712.000000057742,true,high,false
TBuPGpfu,36818z1kw6qmfrfyj2vkz259guma30,39dd6s19jtosdh1xbgxho6w60uhze4,TBuPGpfu,2020-0188,2020-05-08,09:36:33,09:55:33,NA,incomplete,154,number,1,right,Red_Star_Grid_1.jpg,Green_Star_Stripes_4.jpg,Purple_Plus_Chess_1.jpg,right,628.000000026077,true,high,false
TBuPGpfu,36818z1kw6qmfrfyj2vkz259guma30,39dd6s19jtosdh1xbgxho6w60uhze4,TBuPGpfu,2020-0188,2020-05-08,09:36:33,09:55:33,NA,incomplete,155,number,1,left,Purple_Plus_Chess_2.jpg,Blue_Star_Dots_2.jpg,Red_Plus_Stripes_1.jpg,left,643.0000001564622,true,high,false
TBuPGpfu,36818z1kw6qmfrfyj2vkz259guma30,39dd6s19jtosdh1xbgxho6w60uhze4,TBuPGpfu,2020-0188,2020-05-08,09:36:33,09:55:33,NA,incomplete,156,number,1,left,Red_Plus_Chess_3.jpg,Purple_Triangle_Stripes_3.jpg,Blue_Plus_Grid_4.jpg,left,766.0000000614673,true,high,false
TBuPGpfu,36818z1kw6qmfrfyj2vkz259guma30,39dd6s19jtosdh1xbgxho6w60uhze4,TBuPGpfu,2020-0188,2020-05-08,09:36:33,09:55:33,NA,incomplete,157,number,0,left,Green_Plus_Stripes_4.jpg,Red_Star_Dots_4.jpg,Purple_Plus_Chess_3.jpg,left,745.9999998100102,true,high,false
TBuPGpfu,36818z1kw6qmfrfyj2vkz259guma30,39dd6s19jtosdh1xbgxho6w60uhze4,TBuPGpfu,2020-0188,2020-05-08,09:36:33,09:55:33,NA,incomplete,158,number,1,left,Blue_Plus_Stripes_2.jpg,Green_Circle_Chess_2.jpg,Purple_Plus_Dots_4.jpg,left,871.0000000428408,true,high,false
TBuPGpfu,36818z1kw6qmfrfyj2vkz259guma30,39dd6s19jtosdh1xbgxho6w60uhze4,TBuPGpfu,2020-0188,2020-05-08,09:36:33,09:55:33,NA,incomplete,159,number,0,left,Blue_Star_Chess_3.jpg,Red_Triangle_Dots_3.jpg,Green_Star_Stripes_2.jpg,left,854.9999999813735,true,high,false
TBuPGpfu,36818z1kw6qmfrfyj2vkz259guma30,39dd6s19jtosdh1xbgxho6w60uhze4,TBuPGpfu,2020-0188,2020-05-08,09:36:33,09:55:33,NA,incomplete,160,shape,1,left,Blue_Plus_Grid_3.jpg,Red_Plus_Stripes_2.jpg,Purple_Star_Chess_3.jpg,right,1074.0000000223517,false,high,false
TBuPGpfu,36818z1kw6qmfrfyj2vkz259guma30,39dd6s19jtosdh1xbgxho6w60uhze4,TBuPGpfu,2020-0188,2020-05-08,09:36:33,09:55:33,NA,incomplete,161,shape,1,right,Red_Circle_Grid_1.jpg,Blue_Plus_Dots_1.jpg,Purple_Circle_Stripes_2.jpg,right,557.9999999608845,true,high,false
TBuPGpfu,36818z1kw6qmfrfyj2vkz259guma30,39dd6s19jtosdh1xbgxho6w60uhze4,TBuPGpfu,2020-0188,2020-05-08,09:36:33,09:55:33,NA,incomplete,162,shape,1,left,Red_Circle_Grid_2.jpg,Green_Circle_Stripes_3.jpg,Purple_Triangle_Dots_2.jpg,left,611.9999999646097,true,high,false
TBuPGpfu,36818z1kw6qmfrfyj2vkz259guma30,39dd6s19jtosdh1xbgxho6w60uhze4,TBuPGpfu,2020-0188,2020-05-08,09:36:33,09:55:33,NA,incomplete,163,shape,1,right,Green_Star_Chess_3.jpg,Red_Triangle_Grid_3.jpg,Purple_Star_Stripes_1.jpg,left,679.9999999348074,false,high,false
TBuPGpfu,36818z1kw6qmfrfyj2vkz259guma30,39dd6s19jtosdh1xbgxho6w60uhze4,TBuPGpfu,2020-0188,2020-05-08,09:36:33,09:55:33,NA,incomplete,164,shape,1,left,Green_Triangle_Stripes_3.jpg,Blue_Triangle_Dots_4.jpg,Red_Star_Chess_3.jpg,left,725.0000000931323,true,high,false
TBuPGpfu,36818z1kw6qmfrfyj2vkz259guma30,39dd6s19jtosdh1xbgxho6w60uhze4,TBuPGpfu,2020-0188,2020-05-08,09:36:33,09:55:33,NA,incomplete,165,shape,0,right,Purple_Circle_Dots_4.jpg,Blue_Star_Grid_4.jpg,Red_Circle_Stripes_2.jpg,right,807.9999999608845,true,high,false
TBuPGpfu,36818z1kw6qmfrfyj2vkz259guma30,39dd6s19jtosdh1xbgxho6w60uhze4,TBuPGpfu,2020-0188,2020-05-08,09:36:33,09:55:33,NA,incomplete,166,shape,1,right,Red_Circle_Chess_3.jpg,Purple_Star_Stripes_3.jpg,Blue_Circle_Grid_4.jpg,right,618.0000000167638,true,high,false
TBuPGpfu,36818z1kw6qmfrfyj2vkz259guma30,39dd6s19jtosdh1xbgxho6w60uhze4,TBuPGpfu,2020-0188,2020-05-08,09:36:33,09:55:33,NA,incomplete,167,shape,1,right,Blue_Circle_Stripes_3.jpg,Purple_Triangle_Chess_3.jpg,Green_Circle_Grid_4.jpg,right,660.9999998472631,true,high,false
TBuPGpfu,36818z1kw6qmfrfyj2vkz259guma30,39dd6s19jtosdh1xbgxho6w60uhze4,TBuPGpfu,2020-0188,2020-05-08,09:36:33,09:55:33,NA,incomplete,168,shape,1,left,Purple_Star_Grid_4.jpg,Blue_Star_Chess_3.jpg,Green_Plus_Stripes_4.jpg,left,885.0000000093132,true,high,false
TBuPGpfu,36818z1kw6qmfrfyj2vkz259guma30,39dd6s19jtosdh1xbgxho6w60uhze4,TBuPGpfu,2020-0188,2020-05-08,09:36:33,09:55:33,NA,incomplete,169,shape,0,left,Blue_Triangle_Chess_2.jpg,Red_Triangle_Stripes_1.jpg,Green_Plus_Grid_2.jpg,left,692.9999999701977,true,high,false
TBuPGpfu,36818z1kw6qmfrfyj2vkz259guma30,39dd6s19jtosdh1xbgxho6w60uhze4,TBuPGpfu,2020-0188,2020-05-08,09:36:33,09:55:33,NA,incomplete,170,shape,1,left,Blue_Triangle_Grid_3.jpg,Green_Triangle_Stripes_4.jpg,Red_Star_Chess_3.jpg,right,719.0000000409782,false,high,false
TBuPGpfu,36818z1kw6qmfrfyj2vkz259guma30,39dd6s19jtosdh1xbgxho6w60uhze4,TBuPGpfu,2020-0188,2020-05-08,09:36:33,09:55:33,NA,incomplete,171,shape,1,left,Green_Star_Stripes_2.jpg,Purple_Star_Dots_1.jpg,Red_Circle_Chess_2.jpg,left,774.9999999068677,true,high,false
TBuPGpfu,36818z1kw6qmfrfyj2vkz259guma30,39dd6s19jtosdh1xbgxho6w60uhze4,TBuPGpfu,2020-0188,2020-05-08,09:36:33,09:55:33,NA,incomplete,172,shape,1,left,Red_Circle_Stripes_2.jpg,Purple_Circle_Grid_3.jpg,Blue_Plus_Chess_2.jpg,left,672.0000000204891,true,high,false
TBuPGpfu,36818z1kw6qmfrfyj2vkz259guma30,39dd6s19jtosdh1xbgxho6w60uhze4,TBuPGpfu,2020-0188,2020-05-08,09:36:33,09:55:33,NA,incomplete,173,shape,1,left,Red_Plus_Chess_3.jpg,Blue_Plus_Stripes_4.jpg,Purple_Star_Dots_3.jpg,left,756.0000000521541,true,high,false
TBuPGpfu,36818z1kw6qmfrfyj2vkz259guma30,39dd6s19jtosdh1xbgxho6w60uhze4,TBuPGpfu,2020-0188,2020-05-08,09:36:33,09:55:33,NA,incomplete,174,shape,1,left,Blue_Circle_Dots_4.jpg,Red_Circle_Stripes_2.jpg,Green_Plus_Grid_4.jpg,left,706.9999999366701,true,high,false
TBuPGpfu,36818z1kw6qmfrfyj2vkz259guma30,39dd6s19jtosdh1xbgxho6w60uhze4,TBuPGpfu,2020-0188,2020-05-08,09:36:33,09:55:33,NA,incomplete,175,shape,1,left,Purple_Circle_Stripes_4.jpg,Red_Circle_Chess_1.jpg,Blue_Plus_Dots_4.jpg,left,626.0000001639128,true,high,false
TBuPGpfu,36818z1kw6qmfrfyj2vkz259guma30,39dd6s19jtosdh1xbgxho6w60uhze4,TBuPGpfu,2020-0188,2020-05-08,09:36:33,09:55:33,NA,incomplete,176,shape,1,left,Purple_Circle_Stripes_3.jpg,Red_Circle_Chess_2.jpg,Green_Plus_Grid_3.jpg,right,714.0000001527369,false,high,false
TBuPGpfu,36818z1kw6qmfrfyj2vkz259guma30,39dd6s19jtosdh1xbgxho6w60uhze4,TBuPGpfu,2020-0188,2020-05-08,09:36:33,09:55:33,NA,incomplete,177,shape,1,right,Green_Plus_Dots_2.jpg,Red_Star_Stripes_2.jpg,Purple_Plus_Grid_1.jpg,right,854.9999999813735,true,high,false
TBuPGpfu,36818z1kw6qmfrfyj2vkz259guma30,39dd6s19jtosdh1xbgxho6w60uhze4,TBuPGpfu,2020-0188,2020-05-08,09:36:33,09:55:33,NA,incomplete,178,shape,1,left,Green_Circle_Stripes_3.jpg,Purple_Circle_Chess_1.jpg,Blue_Plus_Grid_3.jpg,left,762.0000001043081,true,high,false
TBuPGpfu,36818z1kw6qmfrfyj2vkz259guma30,39dd6s19jtosdh1xbgxho6w60uhze4,TBuPGpfu,2020-0188,2020-05-08,09:36:33,09:55:33,NA,incomplete,179,shape,1,left,Green_Triangle_Stripes_1.jpg,Purple_Triangle_Chess_2.jpg,Red_Circle_Dots_1.jpg,left,590.000000083819,true,high,false
TBuPGpfu,36818z1kw6qmfrfyj2vkz259guma30,39dd6s19jtosdh1xbgxho6w60uhze4,TBuPGpfu,2020-0188,2020-05-08,09:36:33,09:55:33,NA,incomplete,180,number,1,left,Green_Circle_Chess_4.jpg,Purple_Plus_Dots_4.jpg,Red_Circle_Grid_2.jpg,right,594.0000000409782,false,high,false
TBuPGpfu,36818z1kw6qmfrfyj2vkz259guma30,39dd6s19jtosdh1xbgxho6w60uhze4,TBuPGpfu,2020-0188,2020-05-08,09:36:33,09:55:33,NA,incomplete,181,number,1,left,Blue_Plus_Dots_4.jpg,Green_Triangle_Grid_4.jpg,Red_Plus_Chess_3.jpg,left,787.999999942258,true,high,false
TBuPGpfu,36818z1kw6qmfrfyj2vkz259guma30,39dd6s19jtosdh1xbgxho6w60uhze4,TBuPGpfu,2020-0188,2020-05-08,09:36:33,09:55:33,NA,incomplete,182,number,1,left,Red_Star_Grid_2.jpg,Green_Triangle_Chess_2.jpg,Purple_Star_Dots_4.jpg,left,739.9999999906868,true,high,false
TBuPGpfu,36818z1kw6qmfrfyj2vkz259guma30,39dd6s19jtosdh1xbgxho6w60uhze4,TBuPGpfu,2020-0188,2020-05-08,09:36:33,09:55:33,NA,incomplete,183,number,1,left,Blue_Triangle_Grid_2.jpg,Purple_Star_Chess_2.jpg,Green_Triangle_Dots_3.jpg,left,695.0000000651926,true,high,false
TBuPGpfu,36818z1kw6qmfrfyj2vkz259guma30,39dd6s19jtosdh1xbgxho6w60uhze4,TBuPGpfu,2020-0188,2020-05-08,09:36:33,09:55:33,NA,incomplete,184,number,1,left,Purple_Star_Stripes_2.jpg,Red_Plus_Grid_2.jpg,Blue_Star_Chess_1.jpg,left,816.0000001080334,true,high,false
TBuPGpfu,36818z1kw6qmfrfyj2vkz259guma30,39dd6s19jtosdh1xbgxho6w60uhze4,TBuPGpfu,2020-0188,2020-05-08,09:36:33,09:55:33,NA,incomplete,185,number,1,left,Purple_Star_Grid_3.jpg,Red_Triangle_Dots_3.jpg,Blue_Star_Stripes_1.jpg,left,843.0000001098961,true,high,false
TBuPGpfu,36818z1kw6qmfrfyj2vkz259guma30,39dd6s19jtosdh1xbgxho6w60uhze4,TBuPGpfu,2020-0188,2020-05-08,09:36:33,09:55:33,NA,incomplete,186,number,1,left,Green_Plus_Stripes_1.jpg,Purple_Triangle_Grid_1.jpg,Red_Plus_Dots_4.jpg,left,1385.9999999403954,true,high,false
TBuPGpfu,36818z1kw6qmfrfyj2vkz259guma30,39dd6s19jtosdh1xbgxho6w60uhze4,TBuPGpfu,2020-0188,2020-05-08,09:36:33,09:55:33,NA,incomplete,187,number,1,left,Green_Circle_Dots_4.jpg,Blue_Star_Chess_4.jpg,Purple_Circle_Grid_1.jpg,left,925.9999999776483,true,high,false
TBuPGpfu,36818z1kw6qmfrfyj2vkz259guma30,39dd6s19jtosdh1xbgxho6w60uhze4,TBuPGpfu,2020-0188,2020-05-08,09:36:33,09:55:33,NA,incomplete,188,number,1,right,Green_Plus_Stripes_1.jpg,Purple_Plus_Grid_4.jpg,Red_Triangle_Dots_1.jpg,right,551.9999999087304,true,high,false
TBuPGpfu,36818z1kw6qmfrfyj2vkz259guma30,39dd6s19jtosdh1xbgxho6w60uhze4,TBuPGpfu,2020-0188,2020-05-08,09:36:33,09:55:33,NA,incomplete,189,number,0,right,Green_Star_Stripes_1.jpg,Purple_Star_Chess_4.jpg,Blue_Plus_Grid_1.jpg,right,569.9999998323619,true,high,false
TBuPGpfu,36818z1kw6qmfrfyj2vkz259guma30,39dd6s19jtosdh1xbgxho6w60uhze4,TBuPGpfu,2020-0188,2020-05-08,09:36:33,09:55:33,NA,incomplete,190,number,1,left,Green_Plus_Grid_4.jpg,Red_Triangle_Chess_4.jpg,Blue_Plus_Dots_1.jpg,left,619.9999998789281,true,high,false
TBuPGpfu,36818z1kw6qmfrfyj2vkz259guma30,39dd6s19jtosdh1xbgxho6w60uhze4,TBuPGpfu,2020-0188,2020-05-08,09:36:33,09:55:33,NA,incomplete,191,number,1,left,Blue_Circle_Grid_1.jpg,Purple_Triangle_Chess_1.jpg,Green_Circle_Stripes_2.jpg,left,675.9999999776483,true,high,false
TBuPGpfu,36818z1kw6qmfrfyj2vkz259guma30,39dd6s19jtosdh1xbgxho6w60uhze4,TBuPGpfu,2020-0188,2020-05-08,09:36:33,09:55:33,NA,incomplete,192,number,1,left,Green_Plus_Stripes_1.jpg,Red_Circle_Grid_1.jpg,Blue_Plus_Dots_3.jpg,left,603.0000001192093,true,high,false
TBuPGpfu,36818z1kw6qmfrfyj2vkz259guma30,39dd6s19jtosdh1xbgxho6w60uhze4,TBuPGpfu,2020-0188,2020-05-08,09:36:33,09:55:33,NA,incomplete,193,number,1,right,Green_Triangle_Stripes_2.jpg,Purple_Triangle_Chess_3.jpg,Blue_Plus_Grid_2.jpg,right,777.9999999329448,true,high,false
TBuPGpfu,36818z1kw6qmfrfyj2vkz259guma30,39dd6s19jtosdh1xbgxho6w60uhze4,TBuPGpfu,2020-0188,2020-05-08,09:36:33,09:55:33,NA,incomplete,194,number,1,right,Purple_Triangle_Stripes_3.jpg,Green_Triangle_Grid_1.jpg,Red_Plus_Chess_3.jpg,right,644.0000000875443,true,high,false
TBuPGpfu,36818z1kw6qmfrfyj2vkz259guma30,39dd6s19jtosdh1xbgxho6w60uhze4,TBuPGpfu,2020-0188,2020-05-08,09:36:33,09:55:33,NA,incomplete,195,number,0,right,Purple_Plus_Stripes_3.jpg,Green_Plus_Chess_1.jpg,Blue_Star_Grid_3.jpg,right,640.0000001303852,true,high,false
TBuPGpfu,36818z1kw6qmfrfyj2vkz259guma30,39dd6s19jtosdh1xbgxho6w60uhze4,TBuPGpfu,2020-0188,2020-05-08,09:36:33,09:55:33,NA,incomplete,196,number,1,right,Purple_Circle_Stripes_2.jpg,Red_Circle_Grid_3.jpg,Green_Triangle_Dots_2.jpg,left,637.0000001043081,false,high,false
TBuPGpfu,36818z1kw6qmfrfyj2vkz259guma30,39dd6s19jtosdh1xbgxho6w60uhze4,TBuPGpfu,2020-0188,2020-05-08,09:36:33,09:55:33,NA,incomplete,197,number,1,right,Green_Circle_Stripes_2.jpg,Blue_Circle_Dots_3.jpg,Purple_Star_Chess_2.jpg,right,702.0000000484288,true,high,false
TBuPGpfu,36818z1kw6qmfrfyj2vkz259guma30,39dd6s19jtosdh1xbgxho6w60uhze4,TBuPGpfu,2020-0188,2020-05-08,09:36:33,09:55:33,NA,incomplete,198,number,1,left,Blue_Circle_Dots_3.jpg,Red_Triangle_Stripes_3.jpg,Purple_Circle_Grid_1.jpg,left,1171.000000089407,true,high,false
TBuPGpfu,36818z1kw6qmfrfyj2vkz259guma30,39dd6s19jtosdh1xbgxho6w60uhze4,TBuPGpfu,2020-0188,2020-05-08,09:36:33,09:55:33,NA,incomplete,199,number,1,left,Blue_Triangle_Stripes_2.jpg,Purple_Star_Grid_2.jpg,Green_Triangle_Dots_3.jpg,left,688.0000000819564,true,high,false
TBuPGpfu,36818z1kw6qmfrfyj2vkz259guma30,39dd6s19jtosdh1xbgxho6w60uhze4,TBuPGpfu,2020-0188,2020-05-08,09:36:33,09:55:33,NA,incomplete,200,shape,1,right,Green_Plus_Grid_1.jpg,Blue_Star_Chess_1.jpg,Red_Plus_Dots_3.jpg,left,543.9999999944121,false,high,false
TBuPGpfu,36818z1kw6qmfrfyj2vkz259guma30,39dd6s19jtosdh1xbgxho6w60uhze4,TBuPGpfu,2020-0188,2020-05-08,09:36:33,09:55:33,NA,incomplete,201,shape,1,left,Red_Star_Chess_4.jpg,Blue_Star_Grid_1.jpg,Purple_Circle_Dots_4.jpg,left,834.000000031665,true,high,false
TBuPGpfu,36818z1kw6qmfrfyj2vkz259guma30,39dd6s19jtosdh1xbgxho6w60uhze4,TBuPGpfu,2020-0188,2020-05-08,09:36:33,09:55:33,NA,incomplete,202,shape,0,left,Blue_Triangle_Dots_1.jpg,Green_Triangle_Chess_3.jpg,Red_Star_Grid_1.jpg,left,719.9999999720603,true,high,false
TBuPGpfu,36818z1kw6qmfrfyj2vkz259guma30,39dd6s19jtosdh1xbgxho6w60uhze4,TBuPGpfu,2020-0188,2020-05-08,09:36:33,09:55:33,NA,incomplete,203,shape,1,left,Blue_Triangle_Grid_2.jpg,Purple_Triangle_Stripes_1.jpg,Green_Plus_Dots_2.jpg,left,604.9999999813735,true,high,false
TBuPGpfu,36818z1kw6qmfrfyj2vkz259guma30,39dd6s19jtosdh1xbgxho6w60uhze4,TBuPGpfu,2020-0188,2020-05-08,09:36:33,09:55:33,NA,incomplete,204,shape,0,left,Blue_Star_Grid_3.jpg,Red_Star_Stripes_1.jpg,Purple_Circle_Dots_3.jpg,left,719.0000000409782,true,high,false
TBuPGpfu,36818z1kw6qmfrfyj2vkz259guma30,39dd6s19jtosdh1xbgxho6w60uhze4,TBuPGpfu,2020-0188,2020-05-08,09:36:33,09:55:33,NA,incomplete,205,shape,1,left,Red_Triangle_Chess_1.jpg,Purple_Triangle_Grid_2.jpg,Blue_Star_Stripes_1.jpg,left,676.9999999087304,true,high,false
TBuPGpfu,36818z1kw6qmfrfyj2vkz259guma30,39dd6s19jtosdh1xbgxho6w60uhze4,TBuPGpfu,2020-0188,2020-05-08,09:36:33,09:55:33,NA,incomplete,206,shape,1,left,Blue_Plus_Chess_4.jpg,Green_Plus_Stripes_3.jpg,Red_Triangle_Grid_4.jpg,left,797.9999999515712,true,high,false
TBuPGpfu,36818z1kw6qmfrfyj2vkz259guma30,39dd6s19jtosdh1xbgxho6w60uhze4,TBuPGpfu,2020-0188,2020-05-08,09:36:33,09:55:33,NA,incomplete,207,shape,0,right,Purple_Star_Dots_1.jpg,Blue_Circle_Stripes_1.jpg,Green_Star_Grid_4.jpg,right,670.0000001583248,true,high,false
TBuPGpfu,36818z1kw6qmfrfyj2vkz259guma30,39dd6s19jtosdh1xbgxho6w60uhze4,TBuPGpfu,2020-0188,2020-05-08,09:36:33,09:55:33,NA,incomplete,208,shape,1,left,Green_Circle_Chess_3.jpg,Purple_Circle_Dots_4.jpg,Blue_Plus_Stripes_3.jpg,right,739.9999999906868,false,high,false
TBuPGpfu,36818z1kw6qmfrfyj2vkz259guma30,39dd6s19jtosdh1xbgxho6w60uhze4,TBuPGpfu,2020-0188,2020-05-08,09:36:33,09:55:33,NA,incomplete,209,shape,1,right,Green_Circle_Grid_1.jpg,Purple_Plus_Stripes_1.jpg,Blue_Circle_Chess_3.jpg,right,797.9999999515712,true,high,false
TBuPGpfu,36818z1kw6qmfrfyj2vkz259guma30,39dd6s19jtosdh1xbgxho6w60uhze4,TBuPGpfu,2020-0188,2020-05-08,09:36:33,09:55:33,NA,incomplete,210,shape,1,right,Green_Circle_Dots_3.jpg,Red_Triangle_Grid_3.jpg,Blue_Circle_Stripes_1.jpg,right,1034.0000002179295,true,high,false
TBuPGpfu,36818z1kw6qmfrfyj2vkz259guma30,39dd6s19jtosdh1xbgxho6w60uhze4,TBuPGpfu,2020-0188,2020-05-08,09:36:33,09:55:33,NA,incomplete,211,shape,1,right,Red_Star_Stripes_1.jpg,Green_Triangle_Dots_1.jpg,Blue_Star_Grid_3.jpg,right,692.9999999701977,true,high,false
TBuPGpfu,36818z1kw6qmfrfyj2vkz259guma30,39dd6s19jtosdh1xbgxho6w60uhze4,TBuPGpfu,2020-0188,2020-05-08,09:36:33,09:55:33,NA,incomplete,212,shape,0,right,Red_Star_Dots_4.jpg,Purple_Plus_Grid_4.jpg,Blue_Star_Chess_2.jpg,right,807.9999999608845,true,high,false
TBuPGpfu,36818z1kw6qmfrfyj2vkz259guma30,39dd6s19jtosdh1xbgxho6w60uhze4,TBuPGpfu,2020-0188,2020-05-08,09:36:33,09:55:33,NA,incomplete,213,shape,1,right,Green_Star_Dots_2.jpg,Blue_Triangle_Stripes_2.jpg,Purple_Star_Grid_4.jpg,left,729.0000000502914,false,high,false
TBuPGpfu,36818z1kw6qmfrfyj2vkz259guma30,39dd6s19jtosdh1xbgxho6w60uhze4,TBuPGpfu,2020-0188,2020-05-08,09:36:33,09:55:33,NA,incomplete,214,shape,1,right,Green_Plus_Grid_4.jpg,Blue_Triangle_Chess_4.jpg,Red_Plus_Dots_2.jpg,right,872.0000002067536,true,high,false
TBuPGpfu,36818z1kw6qmfrfyj2vkz259guma30,39dd6s19jtosdh1xbgxho6w60uhze4,TBuPGpfu,2020-0188,2020-05-08,09:36:33,09:55:33,NA,incomplete,215,shape,0,left,Red_Star_Dots_1.jpg,Green_Star_Stripes_4.jpg,Purple_Triangle_Grid_1.jpg,left,729.9999999813735,true,high,false
TBuPGpfu,36818z1kw6qmfrfyj2vkz259guma30,39dd6s19jtosdh1xbgxho6w60uhze4,TBuPGpfu,2020-0188,2020-05-08,09:36:33,09:55:33,NA,incomplete,216,shape,1,right,Red_Triangle_Chess_3.jpg,Green_Star_Dots_3.jpg,Purple_Triangle_Grid_4.jpg,right,728.0000001192093,true,high,false
TBuPGpfu,36818z1kw6qmfrfyj2vkz259guma30,39dd6s19jtosdh1xbgxho6w60uhze4,TBuPGpfu,2020-0188,2020-05-08,09:36:33,09:55:33,NA,incomplete,217,shape,0,right,Green_Triangle_Dots_1.jpg,Purple_Star_Stripes_1.jpg,Blue_Triangle_Chess_4.jpg,right,729.0000000502914,true,high,false
TBuPGpfu,36818z1kw6qmfrfyj2vkz259guma30,39dd6s19jtosdh1xbgxho6w60uhze4,TBuPGpfu,2020-0188,2020-05-08,09:36:33,09:55:33,NA,incomplete,218,shape,1,left,Red_Triangle_Dots_4.jpg,Purple_Triangle_Grid_1.jpg,Blue_Star_Chess_4.jpg,right,723.000000230968,false,high,false
TBuPGpfu,36818z1kw6qmfrfyj2vkz259guma30,39dd6s19jtosdh1xbgxho6w60uhze4,TBuPGpfu,2020-0188,2020-05-08,09:36:33,09:55:33,NA,incomplete,219,shape,1,left,Blue_Plus_Stripes_4.jpg,Red_Plus_Grid_2.jpg,Green_Triangle_Dots_4.jpg,left,736.9999999646097,true,high,false
TBuPGpfu,36818z1kw6qmfrfyj2vkz259guma30,39dd6s19jtosdh1xbgxho6w60uhze4,TBuPGpfu,2020-0188,2020-05-08,09:36:33,09:55:33,NA,incomplete,220,number,0,right,Purple_Star_Dots_1.jpg,Blue_Star_Grid_2.jpg,Red_Circle_Chess_1.jpg,left,658.0000000540167,false,high,false
TBuPGpfu,36818z1kw6qmfrfyj2vkz259guma30,39dd6s19jtosdh1xbgxho6w60uhze4,TBuPGpfu,2020-0188,2020-05-08,09:36:33,09:55:33,NA,incomplete,221,number,1,left,Green_Plus_Dots_4.jpg,Purple_Circle_Stripes_4.jpg,Red_Plus_Chess_1.jpg,right,780.0000000279397,false,high,false
TBuPGpfu,36818z1kw6qmfrfyj2vkz259guma30,39dd6s19jtosdh1xbgxho6w60uhze4,TBuPGpfu,2020-0188,2020-05-08,09:36:33,09:55:33,NA,incomplete,222,number,0,left,Purple_Circle_Chess_1.jpg,Blue_Star_Dots_1.jpg,Red_Circle_Stripes_4.jpg,left,756.9999999832362,true,high,false
TBuPGpfu,36818z1kw6qmfrfyj2vkz259guma30,39dd6s19jtosdh1xbgxho6w60uhze4,TBuPGpfu,2020-0188,2020-05-08,09:36:33,09:55:33,NA,incomplete,223,number,1,left,Green_Plus_Stripes_1.jpg,Red_Circle_Dots_1.jpg,Blue_Plus_Grid_3.jpg,right,695.0000000651926,false,high,false
TBuPGpfu,36818z1kw6qmfrfyj2vkz259guma30,39dd6s19jtosdh1xbgxho6w60uhze4,TBuPGpfu,2020-0188,2020-05-08,09:36:33,09:55:33,NA,incomplete,224,number,1,right,Green_Circle_Grid_1.jpg,Red_Circle_Chess_3.jpg,Purple_Plus_Dots_1.jpg,right,683.0000001937151,true,high,false
TBuPGpfu,36818z1kw6qmfrfyj2vkz259guma30,39dd6s19jtosdh1xbgxho6w60uhze4,TBuPGpfu,2020-0188,2020-05-08,09:36:33,09:55:33,NA,incomplete,225,number,0,left,Green_Plus_Dots_2.jpg,Red_Triangle_Stripes_2.jpg,Blue_Plus_Chess_3.jpg,left,640.0000001303852,true,high,false
TBuPGpfu,36818z1kw6qmfrfyj2vkz259guma30,39dd6s19jtosdh1xbgxho6w60uhze4,TBuPGpfu,2020-0188,2020-05-08,09:36:33,09:55:33,NA,incomplete,226,number,1,right,Red_Star_Chess_1.jpg,Blue_Star_Grid_3.jpg,Green_Triangle_Stripes_1.jpg,right,769.0000000875443,true,high,false
TBuPGpfu,36818z1kw6qmfrfyj2vkz259guma30,39dd6s19jtosdh1xbgxho6w60uhze4,TBuPGpfu,2020-0188,2020-05-08,09:36:33,09:55:33,NA,incomplete,227,number,1,left,Red_Star_Chess_3.jpg,Purple_Circle_Stripes_3.jpg,Blue_Star_Dots_4.jpg,left,901.0000000707805,true,high,false
TBuPGpfu,36818z1kw6qmfrfyj2vkz259guma30,39dd6s19jtosdh1xbgxho6w60uhze4,TBuPGpfu,2020-0188,2020-05-08,09:36:33,09:55:33,NA,incomplete,228,number,1,right,Red_Star_Chess_1.jpg,Blue_Star_Stripes_2.jpg,Green_Circle_Grid_1.jpg,right,903.0000001657754,true,high,false
TBuPGpfu,36818z1kw6qmfrfyj2vkz259guma30,39dd6s19jtosdh1xbgxho6w60uhze4,TBuPGpfu,2020-0188,2020-05-08,09:36:33,09:55:33,NA,incomplete,229,number,1,right,Blue_Circle_Grid_1.jpg,Purple_Circle_Chess_4.jpg,Red_Triangle_Dots_1.jpg,right,534.999999916181,true,high,false
TBuPGpfu,36818z1kw6qmfrfyj2vkz259guma30,39dd6s19jtosdh1xbgxho6w60uhze4,TBuPGpfu,2020-0188,2020-05-08,09:36:33,09:55:33,NA,incomplete,230,number,1,left,Blue_Star_Grid_4.jpg,Green_Plus_Chess_4.jpg,Purple_Star_Dots_1.jpg,left,1158.9999999850988,true,high,false
TBuPGpfu,36818z1kw6qmfrfyj2vkz259guma30,39dd6s19jtosdh1xbgxho6w60uhze4,TBuPGpfu,2020-0188,2020-05-08,09:36:33,09:55:33,NA,incomplete,231,number,1,right,Blue_Triangle_Grid_2.jpg,Red_Triangle_Dots_4.jpg,Purple_Plus_Chess_2.jpg,right,729.0000000502914,true,high,false
TBuPGpfu,36818z1kw6qmfrfyj2vkz259guma30,39dd6s19jtosdh1xbgxho6w60uhze4,TBuPGpfu,2020-0188,2020-05-08,09:36:33,09:55:33,NA,incomplete,232,number,1,right,Purple_Star_Grid_1.jpg,Blue_Star_Chess_2.jpg,Green_Circle_Dots_1.jpg,right,638.9999999664724,true,high,false
TBuPGpfu,36818z1kw6qmfrfyj2vkz259guma30,39dd6s19jtosdh1xbgxho6w60uhze4,TBuPGpfu,2020-0188,2020-05-08,09:36:33,09:55:33,NA,incomplete,233,number,1,left,Blue_Triangle_Grid_4.jpg,Red_Circle_Stripes_4.jpg,Purple_Triangle_Dots_1.jpg,left,625,true,high,false
TBuPGpfu,36818z1kw6qmfrfyj2vkz259guma30,39dd6s19jtosdh1xbgxho6w60uhze4,TBuPGpfu,2020-0188,2020-05-08,09:36:33,09:55:33,NA,incomplete,234,number,0,left,Purple_Circle_Stripes_3.jpg,Red_Triangle_Chess_3.jpg,Green_Circle_Dots_2.jpg,left,844.9999999720603,true,high,false
TBuPGpfu,36818z1kw6qmfrfyj2vkz259guma30,39dd6s19jtosdh1xbgxho6w60uhze4,TBuPGpfu,2020-0188,2020-05-08,09:36:33,09:55:33,NA,incomplete,235,number,1,right,Purple_Plus_Dots_1.jpg,Red_Plus_Stripes_4.jpg,Green_Triangle_Chess_1.jpg,right,606.0000001452863,true,high,false
TBuPGpfu,36818z1kw6qmfrfyj2vkz259guma30,39dd6s19jtosdh1xbgxho6w60uhze4,TBuPGpfu,2020-0188,2020-05-08,09:36:33,09:55:33,NA,incomplete,236,number,1,right,Purple_Circle_Grid_4.jpg,Red_Circle_Chess_1.jpg,Green_Star_Dots_4.jpg,right,890.0000001303852,true,high,false
TBuPGpfu,36818z1kw6qmfrfyj2vkz259guma30,39dd6s19jtosdh1xbgxho6w60uhze4,TBuPGpfu,2020-0188,2020-05-08,09:36:33,09:55:33,NA,incomplete,237,number,0,right,Red_Triangle_Dots_1.jpg,Blue_Triangle_Stripes_4.jpg,Green_Star_Chess_1.jpg,right,560.9999999869615,true,high,false
TBuPGpfu,36818z1kw6qmfrfyj2vkz259guma30,39dd6s19jtosdh1xbgxho6w60uhze4,TBuPGpfu,2020-0188,2020-05-08,09:36:33,09:55:33,NA,incomplete,238,number,1,left,Green_Triangle_Chess_3.jpg,Blue_Circle_Grid_3.jpg,Red_Triangle_Stripes_4.jpg,left,916.9999998994172,true,high,false
TBuPGpfu,36818z1kw6qmfrfyj2vkz259guma30,39dd6s19jtosdh1xbgxho6w60uhze4,TBuPGpfu,2020-0188,2020-05-08,09:36:33,09:55:33,NA,incomplete,239,number,1,left,Green_Star_Chess_4.jpg,Red_Plus_Dots_4.jpg,Blue_Star_Grid_3.jpg,left,756.0000000521541,true,high,false
TBuPGpfu,36818z1kw6qmfrfyj2vkz259guma30,39dd6s19jtosdh1xbgxho6w60uhze4,TBuPGpfu,2020-0188,2020-05-08,09:36:33,09:55:33,1070262.0000001043,1141504.00000019,NA,NA,NA,NA,NA,NA,NA,NA,NA,NA,NA,undefined
