workerId,hitId,assignmentId,subject,studyid,exp_date,exp_start,exp_end,time_start,time_end,trial,type,reward_validity,answer,image_top,image_left,image_right,response,response_time,response_acc,volatility,age,race,gender,ethnicity,color,vision,neuro,practice
5tQBpd7N,33cla8o0nlo9ukh858i8v1jgjowfr3,39o5d9o87x5cvqaquiwduhroziz3c1,5tQBpd7N,2020-0188,2020-05-07,15:38:03,15:58:46,NA,incomplete,0,filling,1,left,Green_Triangle_Grid_2.jpg,Purple_Plus_Grid_3.jpg,Red_Circle_Dots_2.jpg,left,1311.214999994263,true,NA,NA,NA,NA,NA,NA,NA,NA,true
5tQBpd7N,33cla8o0nlo9ukh858i8v1jgjowfr3,39o5d9o87x5cvqaquiwduhroziz3c1,5tQBpd7N,2020-0188,2020-05-07,15:38:03,15:58:46,NA,incomplete,1,filling,1,right,Green_Circle_Chess_2.jpg,Purple_Plus_Grid_2.jpg,Red_Star_Chess_1.jpg,right,795.4049999825656,true,NA,NA,NA,NA,NA,NA,NA,NA,true
5tQBpd7N,33cla8o0nlo9ukh858i8v1jgjowfr3,39o5d9o87x5cvqaquiwduhroziz3c1,5tQBpd7N,2020-0188,2020-05-07,15:38:03,15:58:46,NA,incomplete,2,filling,1,left,Purple_Plus_Dots_4.jpg,Red_Triangle_Dots_2.jpg,Green_Star_Stripes_4.jpg,left,967.8149999817833,true,NA,NA,NA,NA,NA,NA,NA,NA,true
5tQBpd7N,33cla8o0nlo9ukh858i8v1jgjowfr3,39o5d9o87x5cvqaquiwduhroziz3c1,5tQBpd7N,2020-0188,2020-05-07,15:38:03,15:58:46,NA,incomplete,3,filling,1,right,Green_Plus_Chess_4.jpg,Red_Star_Dots_4.jpg,Purple_Circle_Chess_3.jpg,right,701.0400000144728,true,NA,NA,NA,NA,NA,NA,NA,NA,true
5tQBpd7N,33cla8o0nlo9ukh858i8v1jgjowfr3,39o5d9o87x5cvqaquiwduhroziz3c1,5tQBpd7N,2020-0188,2020-05-07,15:38:03,15:58:46,NA,incomplete,4,filling,1,right,Green_Circle_Stripes_2.jpg,Red_Plus_Grid_2.jpg,Purple_Triangle_Stripes_4.jpg,right,965.4500000178814,true,NA,NA,NA,NA,NA,NA,NA,NA,true
5tQBpd7N,33cla8o0nlo9ukh858i8v1jgjowfr3,39o5d9o87x5cvqaquiwduhroziz3c1,5tQBpd7N,2020-0188,2020-05-07,15:38:03,15:58:46,NA,incomplete,5,filling,1,left,Blue_Plus_Stripes_2.jpg,Red_Circle_Stripes_1.jpg,Green_Star_Dots_2.jpg,left,751.62499997532,true,NA,NA,NA,NA,NA,NA,NA,NA,true
5tQBpd7N,33cla8o0nlo9ukh858i8v1jgjowfr3,39o5d9o87x5cvqaquiwduhroziz3c1,5tQBpd7N,2020-0188,2020-05-07,15:38:03,15:58:46,NA,incomplete,6,filling,1,right,Red_Circle_Dots_2.jpg,Purple_Triangle_Chess_2.jpg,Blue_Star_Dots_1.jpg,right,714.1900000278838,true,NA,NA,NA,NA,NA,NA,NA,NA,true
5tQBpd7N,33cla8o0nlo9ukh858i8v1jgjowfr3,39o5d9o87x5cvqaquiwduhroziz3c1,5tQBpd7N,2020-0188,2020-05-07,15:38:03,15:58:46,NA,incomplete,7,filling,1,left,Red_Triangle_Grid_1.jpg,Purple_Star_Grid_4.jpg,Green_Circle_Dots_1.jpg,left,656.9249999593012,true,NA,NA,NA,NA,NA,NA,NA,NA,true
5tQBpd7N,33cla8o0nlo9ukh858i8v1jgjowfr3,39o5d9o87x5cvqaquiwduhroziz3c1,5tQBpd7N,2020-0188,2020-05-07,15:38:03,15:58:46,NA,incomplete,8,filling,1,right,Red_Star_Stripes_2.jpg,Purple_Plus_Chess_2.jpg,Green_Circle_Stripes_4.jpg,right,784.4550000154413,true,NA,NA,NA,NA,NA,NA,NA,NA,true
5tQBpd7N,33cla8o0nlo9ukh858i8v1jgjowfr3,39o5d9o87x5cvqaquiwduhroziz3c1,5tQBpd7N,2020-0188,2020-05-07,15:38:03,15:58:46,NA,incomplete,9,filling,1,right,Red_Star_Chess_2.jpg,Green_Plus_Grid_2.jpg,Purple_Circle_Chess_4.jpg,right,779.0449999738485,true,NA,NA,NA,NA,NA,NA,NA,NA,true
5tQBpd7N,33cla8o0nlo9ukh858i8v1jgjowfr3,39o5d9o87x5cvqaquiwduhroziz3c1,5tQBpd7N,2020-0188,2020-05-07,15:38:03,15:58:46,NA,incomplete,10,filling,1,left,Red_Circle_Stripes_4.jpg,Green_Triangle_Stripes_2.jpg,Blue_Plus_Dots_4.jpg,left,712.4499999918044,true,NA,NA,NA,NA,NA,NA,NA,NA,true
5tQBpd7N,33cla8o0nlo9ukh858i8v1jgjowfr3,39o5d9o87x5cvqaquiwduhroziz3c1,5tQBpd7N,2020-0188,2020-05-07,15:38:03,15:58:46,NA,incomplete,11,filling,0,right,Green_Triangle_Dots_3.jpg,Purple_Plus_Stripes_3.jpg,Red_Circle_Dots_1.jpg,right,668.3150000171736,true,NA,NA,NA,NA,NA,NA,NA,NA,true
5tQBpd7N,33cla8o0nlo9ukh858i8v1jgjowfr3,39o5d9o87x5cvqaquiwduhroziz3c1,5tQBpd7N,2020-0188,2020-05-07,15:38:03,15:58:46,NA,incomplete,12,filling,1,left,Green_Plus_Stripes_3.jpg,Red_Star_Stripes_4.jpg,Blue_Triangle_Dots_3.jpg,left,835.6700000003912,true,NA,NA,NA,NA,NA,NA,NA,NA,true
5tQBpd7N,33cla8o0nlo9ukh858i8v1jgjowfr3,39o5d9o87x5cvqaquiwduhroziz3c1,5tQBpd7N,2020-0188,2020-05-07,15:38:03,15:58:46,NA,incomplete,13,filling,1,left,Green_Plus_Stripes_2.jpg,Blue_Circle_Stripes_1.jpg,Red_Star_Chess_2.jpg,left,812.0200000121258,true,NA,NA,NA,NA,NA,NA,NA,NA,true
5tQBpd7N,33cla8o0nlo9ukh858i8v1jgjowfr3,39o5d9o87x5cvqaquiwduhroziz3c1,5tQBpd7N,2020-0188,2020-05-07,15:38:03,15:58:46,NA,incomplete,14,filling,1,right,Purple_Star_Stripes_2.jpg,Green_Plus_Grid_2.jpg,Red_Triangle_Stripes_4.jpg,right,726.7950000241399,true,NA,NA,NA,NA,NA,NA,NA,NA,true
5tQBpd7N,33cla8o0nlo9ukh858i8v1jgjowfr3,39o5d9o87x5cvqaquiwduhroziz3c1,5tQBpd7N,2020-0188,2020-05-07,15:38:03,15:58:46,NA,incomplete,15,filling,1,left,Green_Plus_Chess_3.jpg,Purple_Circle_Chess_1.jpg,Blue_Triangle_Stripes_3.jpg,left,814.974999986589,true,NA,NA,NA,NA,NA,NA,NA,NA,true
5tQBpd7N,33cla8o0nlo9ukh858i8v1jgjowfr3,39o5d9o87x5cvqaquiwduhroziz3c1,5tQBpd7N,2020-0188,2020-05-07,15:38:03,15:58:46,NA,incomplete,16,filling,0,left,Blue_Circle_Grid_1.jpg,Red_Plus_Grid_4.jpg,Green_Star_Dots_1.jpg,left,736.3699999987148,true,NA,NA,NA,NA,NA,NA,NA,NA,true
5tQBpd7N,33cla8o0nlo9ukh858i8v1jgjowfr3,39o5d9o87x5cvqaquiwduhroziz3c1,5tQBpd7N,2020-0188,2020-05-07,15:38:03,15:58:46,NA,incomplete,17,filling,0,left,Green_Star_Grid_4.jpg,Purple_Triangle_Grid_3.jpg,Red_Circle_Chess_4.jpg,left,1044.2349999793805,true,NA,NA,NA,NA,NA,NA,NA,NA,true
5tQBpd7N,33cla8o0nlo9ukh858i8v1jgjowfr3,39o5d9o87x5cvqaquiwduhroziz3c1,5tQBpd7N,2020-0188,2020-05-07,15:38:03,15:58:46,NA,incomplete,18,filling,1,left,Red_Triangle_Chess_2.jpg,Green_Plus_Chess_3.jpg,Blue_Star_Grid_2.jpg,left,700.829999987036,true,NA,NA,NA,NA,NA,NA,NA,NA,true
5tQBpd7N,33cla8o0nlo9ukh858i8v1jgjowfr3,39o5d9o87x5cvqaquiwduhroziz3c1,5tQBpd7N,2020-0188,2020-05-07,15:38:03,15:58:46,NA,incomplete,19,filling,1,right,Purple_Triangle_Grid_3.jpg,Green_Plus_Stripes_3.jpg,Red_Star_Grid_4.jpg,right,1252.1249999990687,true,NA,NA,NA,NA,NA,NA,NA,NA,true
5tQBpd7N,33cla8o0nlo9ukh858i8v1jgjowfr3,39o5d9o87x5cvqaquiwduhroziz3c1,5tQBpd7N,2020-0188,2020-05-07,15:38:03,15:58:46,NA,incomplete,20,number,1,right,Green_Plus_Chess_1.jpg,Purple_Star_Chess_3.jpg,Red_Circle_Grid_1.jpg,left,898.7400000332855,false,NA,NA,NA,NA,NA,NA,NA,NA,true
5tQBpd7N,33cla8o0nlo9ukh858i8v1jgjowfr3,39o5d9o87x5cvqaquiwduhroziz3c1,5tQBpd7N,2020-0188,2020-05-07,15:38:03,15:58:46,NA,incomplete,21,number,1,right,Blue_Triangle_Grid_2.jpg,Green_Star_Grid_3.jpg,Red_Plus_Dots_2.jpg,left,1058.740000007674,false,NA,NA,NA,NA,NA,NA,NA,NA,true
5tQBpd7N,33cla8o0nlo9ukh858i8v1jgjowfr3,39o5d9o87x5cvqaquiwduhroziz3c1,5tQBpd7N,2020-0188,2020-05-07,15:38:03,15:58:46,NA,incomplete,22,number,0,right,Red_Triangle_Stripes_3.jpg,Blue_Plus_Stripes_1.jpg,Green_Circle_Grid_3.jpg,left,905.8850000146776,false,NA,NA,NA,NA,NA,NA,NA,NA,true
5tQBpd7N,33cla8o0nlo9ukh858i8v1jgjowfr3,39o5d9o87x5cvqaquiwduhroziz3c1,5tQBpd7N,2020-0188,2020-05-07,15:38:03,15:58:46,NA,incomplete,23,number,1,left,Green_Triangle_Chess_1.jpg,Blue_Circle_Grid_1.jpg,Purple_Star_Chess_3.jpg,right,855.4350000340492,false,NA,NA,NA,NA,NA,NA,NA,NA,true
5tQBpd7N,33cla8o0nlo9ukh858i8v1jgjowfr3,39o5d9o87x5cvqaquiwduhroziz3c1,5tQBpd7N,2020-0188,2020-05-07,15:38:03,15:58:46,NA,incomplete,24,number,0,right,Purple_Plus_Dots_2.jpg,Green_Circle_Dots_4.jpg,Blue_Star_Stripes_2.jpg,right,689.3600000184961,true,NA,NA,NA,NA,NA,NA,NA,NA,true
5tQBpd7N,33cla8o0nlo9ukh858i8v1jgjowfr3,39o5d9o87x5cvqaquiwduhroziz3c1,5tQBpd7N,2020-0188,2020-05-07,15:38:03,15:58:46,NA,incomplete,25,number,1,right,Blue_Star_Chess_3.jpg,Red_Triangle_Chess_2.jpg,Purple_Plus_Dots_3.jpg,right,983.7900000275113,true,NA,NA,NA,NA,NA,NA,NA,NA,true
5tQBpd7N,33cla8o0nlo9ukh858i8v1jgjowfr3,39o5d9o87x5cvqaquiwduhroziz3c1,5tQBpd7N,2020-0188,2020-05-07,15:38:03,15:58:46,NA,incomplete,26,number,1,right,Green_Triangle_Grid_3.jpg,Blue_Circle_Grid_1.jpg,Purple_Plus_Chess_3.jpg,right,617.6549999509007,true,NA,NA,NA,NA,NA,NA,NA,NA,true
5tQBpd7N,33cla8o0nlo9ukh858i8v1jgjowfr3,39o5d9o87x5cvqaquiwduhroziz3c1,5tQBpd7N,2020-0188,2020-05-07,15:38:03,15:58:46,NA,incomplete,27,number,0,right,Green_Star_Dots_2.jpg,Blue_Plus_Dots_1.jpg,Red_Circle_Chess_2.jpg,right,771.294999984093,true,NA,NA,NA,NA,NA,NA,NA,NA,true
5tQBpd7N,33cla8o0nlo9ukh858i8v1jgjowfr3,39o5d9o87x5cvqaquiwduhroziz3c1,5tQBpd7N,2020-0188,2020-05-07,15:38:03,15:58:46,NA,incomplete,28,number,1,right,Blue_Star_Stripes_2.jpg,Purple_Circle_Stripes_4.jpg,Green_Plus_Grid_2.jpg,right,628.8049999857321,true,NA,NA,NA,NA,NA,NA,NA,NA,true
5tQBpd7N,33cla8o0nlo9ukh858i8v1jgjowfr3,39o5d9o87x5cvqaquiwduhroziz3c1,5tQBpd7N,2020-0188,2020-05-07,15:38:03,15:58:46,NA,incomplete,29,number,1,right,Blue_Triangle_Grid_3.jpg,Red_Plus_Grid_4.jpg,Purple_Star_Stripes_3.jpg,right,839.1350000165403,true,NA,NA,NA,NA,NA,NA,NA,NA,true
5tQBpd7N,33cla8o0nlo9ukh858i8v1jgjowfr3,39o5d9o87x5cvqaquiwduhroziz3c1,5tQBpd7N,2020-0188,2020-05-07,15:38:03,15:58:46,NA,incomplete,30,number,1,right,Red_Star_Grid_1.jpg,Green_Triangle_Grid_2.jpg,Blue_Circle_Dots_1.jpg,right,729.5249999733642,true,NA,NA,NA,NA,NA,NA,NA,NA,true
5tQBpd7N,33cla8o0nlo9ukh858i8v1jgjowfr3,39o5d9o87x5cvqaquiwduhroziz3c1,5tQBpd7N,2020-0188,2020-05-07,15:38:03,15:58:46,NA,incomplete,31,number,0,left,Purple_Circle_Dots_3.jpg,Blue_Triangle_Stripes_3.jpg,Red_Plus_Dots_2.jpg,left,572.4499999778345,true,NA,NA,NA,NA,NA,NA,NA,NA,true
5tQBpd7N,33cla8o0nlo9ukh858i8v1jgjowfr3,39o5d9o87x5cvqaquiwduhroziz3c1,5tQBpd7N,2020-0188,2020-05-07,15:38:03,15:58:46,NA,incomplete,32,number,0,right,Purple_Star_Grid_4.jpg,Red_Plus_Grid_3.jpg,Green_Triangle_Dots_4.jpg,right,785.7399999629706,true,NA,NA,NA,NA,NA,NA,NA,NA,true
5tQBpd7N,33cla8o0nlo9ukh858i8v1jgjowfr3,39o5d9o87x5cvqaquiwduhroziz3c1,5tQBpd7N,2020-0188,2020-05-07,15:38:03,15:58:46,NA,incomplete,33,number,1,left,Green_Circle_Dots_2.jpg,Blue_Triangle_Chess_2.jpg,Purple_Plus_Dots_1.jpg,left,687.3599999817088,true,NA,NA,NA,NA,NA,NA,NA,NA,true
5tQBpd7N,33cla8o0nlo9ukh858i8v1jgjowfr3,39o5d9o87x5cvqaquiwduhroziz3c1,5tQBpd7N,2020-0188,2020-05-07,15:38:03,15:58:46,NA,incomplete,34,number,1,right,Purple_Plus_Dots_4.jpg,Blue_Star_Dots_2.jpg,Green_Triangle_Grid_4.jpg,right,683.530000038445,true,NA,NA,NA,NA,NA,NA,NA,NA,true
5tQBpd7N,33cla8o0nlo9ukh858i8v1jgjowfr3,39o5d9o87x5cvqaquiwduhroziz3c1,5tQBpd7N,2020-0188,2020-05-07,15:38:03,15:58:46,NA,incomplete,35,number,1,left,Green_Plus_Dots_3.jpg,Purple_Triangle_Stripes_3.jpg,Red_Circle_Dots_1.jpg,left,603.1549999606796,true,NA,NA,NA,NA,NA,NA,NA,NA,true
5tQBpd7N,33cla8o0nlo9ukh858i8v1jgjowfr3,39o5d9o87x5cvqaquiwduhroziz3c1,5tQBpd7N,2020-0188,2020-05-07,15:38:03,15:58:46,NA,incomplete,36,number,1,right,Blue_Triangle_Stripes_2.jpg,Green_Star_Stripes_1.jpg,Red_Plus_Dots_2.jpg,right,702.0499999634922,true,NA,NA,NA,NA,NA,NA,NA,NA,true
5tQBpd7N,33cla8o0nlo9ukh858i8v1jgjowfr3,39o5d9o87x5cvqaquiwduhroziz3c1,5tQBpd7N,2020-0188,2020-05-07,15:38:03,15:58:46,NA,incomplete,37,number,1,right,Purple_Triangle_Chess_1.jpg,Green_Circle_Chess_4.jpg,Red_Plus_Grid_1.jpg,right,595.9450000082143,true,NA,NA,NA,NA,NA,NA,NA,NA,true
5tQBpd7N,33cla8o0nlo9ukh858i8v1jgjowfr3,39o5d9o87x5cvqaquiwduhroziz3c1,5tQBpd7N,2020-0188,2020-05-07,15:38:03,15:58:46,NA,incomplete,38,number,1,left,Purple_Plus_Dots_3.jpg,Red_Circle_Chess_3.jpg,Blue_Triangle_Dots_1.jpg,left,559.7349999588914,true,NA,NA,NA,NA,NA,NA,NA,NA,true
5tQBpd7N,33cla8o0nlo9ukh858i8v1jgjowfr3,39o5d9o87x5cvqaquiwduhroziz3c1,5tQBpd7N,2020-0188,2020-05-07,15:38:03,15:58:46,NA,incomplete,39,number,1,left,Blue_Triangle_Dots_2.jpg,Green_Star_Chess_2.jpg,Red_Plus_Dots_4.jpg,left,537.3350000008941,true,NA,NA,NA,NA,NA,NA,NA,NA,true
5tQBpd7N,33cla8o0nlo9ukh858i8v1jgjowfr3,39o5d9o87x5cvqaquiwduhroziz3c1,5tQBpd7N,2020-0188,2020-05-07,15:38:03,15:58:46,NA,incomplete,0,filling,1,right,Green_Triangle_Dots_3.jpg,Purple_Plus_Grid_3.jpg,Blue_Circle_Dots_1.jpg,left,888.7550000217743,false,low,NA,NA,NA,NA,NA,NA,NA,false
5tQBpd7N,33cla8o0nlo9ukh858i8v1jgjowfr3,39o5d9o87x5cvqaquiwduhroziz3c1,5tQBpd7N,2020-0188,2020-05-07,15:38:03,15:58:46,NA,incomplete,1,filling,1,right,Green_Star_Grid_3.jpg,Red_Plus_Chess_3.jpg,Blue_Circle_Grid_2.jpg,left,646.0150000057183,false,low,NA,NA,NA,NA,NA,NA,NA,false
5tQBpd7N,33cla8o0nlo9ukh858i8v1jgjowfr3,39o5d9o87x5cvqaquiwduhroziz3c1,5tQBpd7N,2020-0188,2020-05-07,15:38:03,15:58:46,NA,incomplete,2,filling,1,left,Purple_Plus_Chess_2.jpg,Green_Triangle_Chess_1.jpg,Blue_Circle_Dots_2.jpg,left,894.8649999802001,true,low,NA,NA,NA,NA,NA,NA,NA,false
5tQBpd7N,33cla8o0nlo9ukh858i8v1jgjowfr3,39o5d9o87x5cvqaquiwduhroziz3c1,5tQBpd7N,2020-0188,2020-05-07,15:38:03,15:58:46,NA,incomplete,3,filling,1,left,Red_Triangle_Dots_4.jpg,Purple_Plus_Dots_3.jpg,Blue_Circle_Grid_4.jpg,left,814.4800000009127,true,low,NA,NA,NA,NA,NA,NA,NA,false
5tQBpd7N,33cla8o0nlo9ukh858i8v1jgjowfr3,39o5d9o87x5cvqaquiwduhroziz3c1,5tQBpd7N,2020-0188,2020-05-07,15:38:03,15:58:46,NA,incomplete,4,filling,1,left,Green_Triangle_Chess_2.jpg,Purple_Star_Chess_4.jpg,Blue_Plus_Stripes_2.jpg,left,810.6249999837019,true,low,NA,NA,NA,NA,NA,NA,NA,false
5tQBpd7N,33cla8o0nlo9ukh858i8v1jgjowfr3,39o5d9o87x5cvqaquiwduhroziz3c1,5tQBpd7N,2020-0188,2020-05-07,15:38:03,15:58:46,NA,incomplete,5,filling,1,left,Purple_Star_Dots_1.jpg,Blue_Plus_Dots_4.jpg,Green_Triangle_Grid_1.jpg,left,787.1450000093319,true,low,NA,NA,NA,NA,NA,NA,NA,false
5tQBpd7N,33cla8o0nlo9ukh858i8v1jgjowfr3,39o5d9o87x5cvqaquiwduhroziz3c1,5tQBpd7N,2020-0188,2020-05-07,15:38:03,15:58:46,NA,incomplete,6,filling,1,left,Green_Plus_Stripes_2.jpg,Red_Circle_Stripes_4.jpg,Blue_Triangle_Dots_2.jpg,left,638.5800000280142,true,low,NA,NA,NA,NA,NA,NA,NA,false
5tQBpd7N,33cla8o0nlo9ukh858i8v1jgjowfr3,39o5d9o87x5cvqaquiwduhroziz3c1,5tQBpd7N,2020-0188,2020-05-07,15:38:03,15:58:46,NA,incomplete,7,filling,0,right,Red_Triangle_Stripes_3.jpg,Green_Star_Grid_3.jpg,Purple_Circle_Stripes_1.jpg,right,1711.4799999981187,true,low,NA,NA,NA,NA,NA,NA,NA,false
5tQBpd7N,33cla8o0nlo9ukh858i8v1jgjowfr3,39o5d9o87x5cvqaquiwduhroziz3c1,5tQBpd7N,2020-0188,2020-05-07,15:38:03,15:58:46,NA,incomplete,8,filling,1,left,Purple_Circle_Chess_2.jpg,Green_Plus_Chess_3.jpg,Blue_Star_Stripes_2.jpg,left,731.9499999866821,true,low,NA,NA,NA,NA,NA,NA,NA,false
5tQBpd7N,33cla8o0nlo9ukh858i8v1jgjowfr3,39o5d9o87x5cvqaquiwduhroziz3c1,5tQBpd7N,2020-0188,2020-05-07,15:38:03,15:58:46,NA,incomplete,9,filling,1,left,Red_Star_Dots_3.jpg,Green_Circle_Dots_1.jpg,Purple_Plus_Grid_3.jpg,left,760.9950000187382,true,low,NA,NA,NA,NA,NA,NA,NA,false
5tQBpd7N,33cla8o0nlo9ukh858i8v1jgjowfr3,39o5d9o87x5cvqaquiwduhroziz3c1,5tQBpd7N,2020-0188,2020-05-07,15:38:03,15:58:46,NA,incomplete,10,filling,1,right,Blue_Triangle_Chess_4.jpg,Red_Star_Dots_4.jpg,Purple_Plus_Chess_3.jpg,right,740.749999997206,true,low,NA,NA,NA,NA,NA,NA,NA,false
5tQBpd7N,33cla8o0nlo9ukh858i8v1jgjowfr3,39o5d9o87x5cvqaquiwduhroziz3c1,5tQBpd7N,2020-0188,2020-05-07,15:38:03,15:58:46,NA,incomplete,11,filling,0,right,Green_Triangle_Stripes_4.jpg,Blue_Star_Dots_4.jpg,Purple_Plus_Stripes_2.jpg,right,730.5300000007264,true,low,NA,NA,NA,NA,NA,NA,NA,false
5tQBpd7N,33cla8o0nlo9ukh858i8v1jgjowfr3,39o5d9o87x5cvqaquiwduhroziz3c1,5tQBpd7N,2020-0188,2020-05-07,15:38:03,15:58:46,NA,incomplete,12,filling,1,right,Green_Triangle_Stripes_3.jpg,Blue_Star_Chess_3.jpg,Red_Plus_Stripes_4.jpg,right,693.8650000374764,true,low,NA,NA,NA,NA,NA,NA,NA,false
5tQBpd7N,33cla8o0nlo9ukh858i8v1jgjowfr3,39o5d9o87x5cvqaquiwduhroziz3c1,5tQBpd7N,2020-0188,2020-05-07,15:38:03,15:58:46,NA,incomplete,13,filling,1,left,Purple_Triangle_Stripes_4.jpg,Blue_Circle_Stripes_1.jpg,Red_Plus_Dots_4.jpg,left,566.5399999707006,true,low,NA,NA,NA,NA,NA,NA,NA,false
5tQBpd7N,33cla8o0nlo9ukh858i8v1jgjowfr3,39o5d9o87x5cvqaquiwduhroziz3c1,5tQBpd7N,2020-0188,2020-05-07,15:38:03,15:58:46,NA,incomplete,14,filling,0,right,Red_Star_Chess_3.jpg,Green_Circle_Stripes_3.jpg,Blue_Triangle_Chess_2.jpg,left,705.2399999811314,false,low,NA,NA,NA,NA,NA,NA,NA,false
5tQBpd7N,33cla8o0nlo9ukh858i8v1jgjowfr3,39o5d9o87x5cvqaquiwduhroziz3c1,5tQBpd7N,2020-0188,2020-05-07,15:38:03,15:58:46,NA,incomplete,15,filling,0,right,Red_Plus_Grid_3.jpg,Green_Circle_Chess_3.jpg,Blue_Triangle_Grid_2.jpg,left,904.0800000075251,false,low,NA,NA,NA,NA,NA,NA,NA,false
5tQBpd7N,33cla8o0nlo9ukh858i8v1jgjowfr3,39o5d9o87x5cvqaquiwduhroziz3c1,5tQBpd7N,2020-0188,2020-05-07,15:38:03,15:58:46,NA,incomplete,16,filling,1,right,Blue_Plus_Dots_2.jpg,Red_Circle_Stripes_2.jpg,Green_Triangle_Dots_4.jpg,left,653.0750000383705,false,low,NA,NA,NA,NA,NA,NA,NA,false
5tQBpd7N,33cla8o0nlo9ukh858i8v1jgjowfr3,39o5d9o87x5cvqaquiwduhroziz3c1,5tQBpd7N,2020-0188,2020-05-07,15:38:03,15:58:46,NA,incomplete,17,filling,1,right,Purple_Circle_Grid_4.jpg,Red_Triangle_Stripes_4.jpg,Green_Star_Grid_1.jpg,left,574.5250000036322,false,low,NA,NA,NA,NA,NA,NA,NA,false
5tQBpd7N,33cla8o0nlo9ukh858i8v1jgjowfr3,39o5d9o87x5cvqaquiwduhroziz3c1,5tQBpd7N,2020-0188,2020-05-07,15:38:03,15:58:46,NA,incomplete,18,filling,1,right,Green_Triangle_Chess_1.jpg,Purple_Circle_Dots_1.jpg,Red_Plus_Chess_3.jpg,right,744.6950000012293,true,low,NA,NA,NA,NA,NA,NA,NA,false
5tQBpd7N,33cla8o0nlo9ukh858i8v1jgjowfr3,39o5d9o87x5cvqaquiwduhroziz3c1,5tQBpd7N,2020-0188,2020-05-07,15:38:03,15:58:46,NA,incomplete,19,filling,0,left,Green_Triangle_Grid_3.jpg,Blue_Star_Grid_2.jpg,Red_Plus_Dots_3.jpg,left,919.2099999636412,true,low,NA,NA,NA,NA,NA,NA,NA,false
5tQBpd7N,33cla8o0nlo9ukh858i8v1jgjowfr3,39o5d9o87x5cvqaquiwduhroziz3c1,5tQBpd7N,2020-0188,2020-05-07,15:38:03,15:58:46,NA,incomplete,20,filling,1,right,Blue_Triangle_Stripes_4.jpg,Red_Circle_Chess_4.jpg,Purple_Plus_Stripes_3.jpg,right,822.4800000316463,true,low,NA,NA,NA,NA,NA,NA,NA,false
5tQBpd7N,33cla8o0nlo9ukh858i8v1jgjowfr3,39o5d9o87x5cvqaquiwduhroziz3c1,5tQBpd7N,2020-0188,2020-05-07,15:38:03,15:58:46,NA,incomplete,21,filling,1,left,Blue_Star_Chess_1.jpg,Red_Plus_Chess_2.jpg,Purple_Circle_Stripes_1.jpg,left,573.4550000051968,true,low,NA,NA,NA,NA,NA,NA,NA,false
5tQBpd7N,33cla8o0nlo9ukh858i8v1jgjowfr3,39o5d9o87x5cvqaquiwduhroziz3c1,5tQBpd7N,2020-0188,2020-05-07,15:38:03,15:58:46,NA,incomplete,22,filling,1,left,Red_Circle_Dots_4.jpg,Purple_Triangle_Dots_2.jpg,Blue_Plus_Stripes_4.jpg,left,779.210000007879,true,low,NA,NA,NA,NA,NA,NA,NA,false
5tQBpd7N,33cla8o0nlo9ukh858i8v1jgjowfr3,39o5d9o87x5cvqaquiwduhroziz3c1,5tQBpd7N,2020-0188,2020-05-07,15:38:03,15:58:46,NA,incomplete,23,filling,1,left,Purple_Plus_Chess_4.jpg,Red_Triangle_Chess_3.jpg,Blue_Star_Stripes_4.jpg,left,781.9499999750406,true,low,NA,NA,NA,NA,NA,NA,NA,false
5tQBpd7N,33cla8o0nlo9ukh858i8v1jgjowfr3,39o5d9o87x5cvqaquiwduhroziz3c1,5tQBpd7N,2020-0188,2020-05-07,15:38:03,15:58:46,NA,incomplete,24,filling,1,right,Green_Plus_Dots_1.jpg,Red_Circle_Stripes_1.jpg,Blue_Star_Dots_4.jpg,right,704.6349999727681,true,low,NA,NA,NA,NA,NA,NA,NA,false
5tQBpd7N,33cla8o0nlo9ukh858i8v1jgjowfr3,39o5d9o87x5cvqaquiwduhroziz3c1,5tQBpd7N,2020-0188,2020-05-07,15:38:03,15:58:46,NA,incomplete,25,filling,1,left,Red_Star_Stripes_4.jpg,Green_Plus_Stripes_1.jpg,Blue_Triangle_Dots_4.jpg,left,798.86500001885,true,low,NA,NA,NA,NA,NA,NA,NA,false
5tQBpd7N,33cla8o0nlo9ukh858i8v1jgjowfr3,39o5d9o87x5cvqaquiwduhroziz3c1,5tQBpd7N,2020-0188,2020-05-07,15:38:03,15:58:46,NA,incomplete,26,filling,1,left,Red_Star_Dots_2.jpg,Purple_Circle_Dots_4.jpg,Green_Triangle_Chess_2.jpg,left,744.1150000086054,true,low,NA,NA,NA,NA,NA,NA,NA,false
5tQBpd7N,33cla8o0nlo9ukh858i8v1jgjowfr3,39o5d9o87x5cvqaquiwduhroziz3c1,5tQBpd7N,2020-0188,2020-05-07,15:38:03,15:58:46,NA,incomplete,27,filling,1,right,Red_Triangle_Grid_3.jpg,Blue_Plus_Stripes_3.jpg,Purple_Circle_Grid_2.jpg,right,1222.959999984596,true,low,NA,NA,NA,NA,NA,NA,NA,false
5tQBpd7N,33cla8o0nlo9ukh858i8v1jgjowfr3,39o5d9o87x5cvqaquiwduhroziz3c1,5tQBpd7N,2020-0188,2020-05-07,15:38:03,15:58:46,NA,incomplete,28,filling,1,right,Green_Circle_Chess_2.jpg,Purple_Star_Grid_2.jpg,Blue_Triangle_Chess_3.jpg,right,752.234999963548,true,low,NA,NA,NA,NA,NA,NA,NA,false
5tQBpd7N,33cla8o0nlo9ukh858i8v1jgjowfr3,39o5d9o87x5cvqaquiwduhroziz3c1,5tQBpd7N,2020-0188,2020-05-07,15:38:03,15:58:46,NA,incomplete,29,filling,1,left,Blue_Circle_Dots_4.jpg,Purple_Star_Dots_3.jpg,Red_Plus_Stripes_4.jpg,left,747.0249999896623,true,low,NA,NA,NA,NA,NA,NA,NA,false
5tQBpd7N,33cla8o0nlo9ukh858i8v1jgjowfr3,39o5d9o87x5cvqaquiwduhroziz3c1,5tQBpd7N,2020-0188,2020-05-07,15:38:03,15:58:46,NA,incomplete,30,number,1,left,Green_Triangle_Grid_3.jpg,Red_Circle_Dots_3.jpg,Blue_Star_Grid_2.jpg,right,902.2099999710917,false,low,NA,NA,NA,NA,NA,NA,NA,false
5tQBpd7N,33cla8o0nlo9ukh858i8v1jgjowfr3,39o5d9o87x5cvqaquiwduhroziz3c1,5tQBpd7N,2020-0188,2020-05-07,15:38:03,15:58:46,NA,incomplete,31,number,1,left,Green_Triangle_Dots_4.jpg,Red_Star_Stripes_4.jpg,Blue_Circle_Dots_3.jpg,right,750.289999996312,false,low,NA,NA,NA,NA,NA,NA,NA,false
5tQBpd7N,33cla8o0nlo9ukh858i8v1jgjowfr3,39o5d9o87x5cvqaquiwduhroziz3c1,5tQBpd7N,2020-0188,2020-05-07,15:38:03,15:58:46,NA,incomplete,32,number,1,left,Purple_Plus_Chess_2.jpg,Green_Circle_Dots_2.jpg,Red_Star_Chess_4.jpg,left,715.4200000222772,true,low,NA,NA,NA,NA,NA,NA,NA,false
5tQBpd7N,33cla8o0nlo9ukh858i8v1jgjowfr3,39o5d9o87x5cvqaquiwduhroziz3c1,5tQBpd7N,2020-0188,2020-05-07,15:38:03,15:58:46,NA,incomplete,33,number,0,right,Red_Circle_Grid_3.jpg,Green_Triangle_Grid_4.jpg,Blue_Plus_Dots_3.jpg,right,673.8100000075065,true,low,NA,NA,NA,NA,NA,NA,NA,false
5tQBpd7N,33cla8o0nlo9ukh858i8v1jgjowfr3,39o5d9o87x5cvqaquiwduhroziz3c1,5tQBpd7N,2020-0188,2020-05-07,15:38:03,15:58:46,NA,incomplete,34,number,1,left,Red_Plus_Grid_2.jpg,Green_Star_Chess_2.jpg,Blue_Circle_Grid_1.jpg,left,839.6250000223517,true,low,NA,NA,NA,NA,NA,NA,NA,false
5tQBpd7N,33cla8o0nlo9ukh858i8v1jgjowfr3,39o5d9o87x5cvqaquiwduhroziz3c1,5tQBpd7N,2020-0188,2020-05-07,15:38:03,15:58:46,NA,incomplete,35,number,1,left,Purple_Star_Dots_3.jpg,Blue_Triangle_Chess_3.jpg,Green_Plus_Dots_4.jpg,left,680.7549999793991,true,low,NA,NA,NA,NA,NA,NA,NA,false
5tQBpd7N,33cla8o0nlo9ukh858i8v1jgjowfr3,39o5d9o87x5cvqaquiwduhroziz3c1,5tQBpd7N,2020-0188,2020-05-07,15:38:03,15:58:46,NA,incomplete,36,number,0,right,Purple_Circle_Chess_3.jpg,Green_Triangle_Chess_2.jpg,Red_Plus_Grid_3.jpg,right,625.3499999875203,true,low,NA,NA,NA,NA,NA,NA,NA,false
5tQBpd7N,33cla8o0nlo9ukh858i8v1jgjowfr3,39o5d9o87x5cvqaquiwduhroziz3c1,5tQBpd7N,2020-0188,2020-05-07,15:38:03,15:58:46,NA,incomplete,37,number,0,left,Green_Star_Dots_1.jpg,Red_Triangle_Stripes_1.jpg,Purple_Circle_Dots_3.jpg,left,553.2400000374764,true,low,NA,NA,NA,NA,NA,NA,NA,false
5tQBpd7N,33cla8o0nlo9ukh858i8v1jgjowfr3,39o5d9o87x5cvqaquiwduhroziz3c1,5tQBpd7N,2020-0188,2020-05-07,15:38:03,15:58:46,NA,incomplete,38,number,1,right,Green_Plus_Dots_1.jpg,Red_Triangle_Dots_3.jpg,Purple_Star_Chess_1.jpg,left,741.1599999759346,false,low,NA,NA,NA,NA,NA,NA,NA,false
5tQBpd7N,33cla8o0nlo9ukh858i8v1jgjowfr3,39o5d9o87x5cvqaquiwduhroziz3c1,5tQBpd7N,2020-0188,2020-05-07,15:38:03,15:58:46,NA,incomplete,39,number,0,right,Red_Star_Dots_2.jpg,Purple_Circle_Dots_4.jpg,Blue_Triangle_Stripes_2.jpg,right,899.6000000042841,true,low,NA,NA,NA,NA,NA,NA,NA,false
5tQBpd7N,33cla8o0nlo9ukh858i8v1jgjowfr3,39o5d9o87x5cvqaquiwduhroziz3c1,5tQBpd7N,2020-0188,2020-05-07,15:38:03,15:58:46,NA,incomplete,40,number,1,right,Green_Triangle_Dots_3.jpg,Purple_Star_Dots_4.jpg,Red_Plus_Chess_3.jpg,left,906.1799999908544,false,low,NA,NA,NA,NA,NA,NA,NA,false
5tQBpd7N,33cla8o0nlo9ukh858i8v1jgjowfr3,39o5d9o87x5cvqaquiwduhroziz3c1,5tQBpd7N,2020-0188,2020-05-07,15:38:03,15:58:46,NA,incomplete,41,number,1,right,Red_Star_Grid_2.jpg,Purple_Plus_Grid_1.jpg,Green_Circle_Chess_2.jpg,left,1024.890000000596,false,low,NA,NA,NA,NA,NA,NA,NA,false
5tQBpd7N,33cla8o0nlo9ukh858i8v1jgjowfr3,39o5d9o87x5cvqaquiwduhroziz3c1,5tQBpd7N,2020-0188,2020-05-07,15:38:03,15:58:46,NA,incomplete,42,number,1,left,Green_Circle_Grid_2.jpg,Red_Triangle_Chess_2.jpg,Blue_Star_Grid_1.jpg,left,673.4500000020489,true,low,NA,NA,NA,NA,NA,NA,NA,false
5tQBpd7N,33cla8o0nlo9ukh858i8v1jgjowfr3,39o5d9o87x5cvqaquiwduhroziz3c1,5tQBpd7N,2020-0188,2020-05-07,15:38:03,15:58:46,NA,incomplete,43,number,0,right,Purple_Star_Grid_4.jpg,Red_Circle_Grid_2.jpg,Blue_Triangle_Dots_4.jpg,right,623.859999992419,true,low,NA,NA,NA,NA,NA,NA,NA,false
5tQBpd7N,33cla8o0nlo9ukh858i8v1jgjowfr3,39o5d9o87x5cvqaquiwduhroziz3c1,5tQBpd7N,2020-0188,2020-05-07,15:38:03,15:58:46,NA,incomplete,44,number,0,right,Blue_Star_Chess_2.jpg,Green_Plus_Chess_1.jpg,Purple_Triangle_Dots_2.jpg,right,694.8149999952875,true,low,NA,NA,NA,NA,NA,NA,NA,false
5tQBpd7N,33cla8o0nlo9ukh858i8v1jgjowfr3,39o5d9o87x5cvqaquiwduhroziz3c1,5tQBpd7N,2020-0188,2020-05-07,15:38:03,15:58:46,NA,incomplete,45,number,0,right,Green_Plus_Grid_4.jpg,Purple_Triangle_Grid_3.jpg,Blue_Circle_Stripes_4.jpg,left,1017.4650000408292,false,low,NA,NA,NA,NA,NA,NA,NA,false
5tQBpd7N,33cla8o0nlo9ukh858i8v1jgjowfr3,39o5d9o87x5cvqaquiwduhroziz3c1,5tQBpd7N,2020-0188,2020-05-07,15:38:03,15:58:46,NA,incomplete,46,number,1,left,Blue_Plus_Grid_3.jpg,Purple_Star_Chess_3.jpg,Red_Triangle_Grid_1.jpg,right,699.3550000479445,false,low,NA,NA,NA,NA,NA,NA,NA,false
5tQBpd7N,33cla8o0nlo9ukh858i8v1jgjowfr3,39o5d9o87x5cvqaquiwduhroziz3c1,5tQBpd7N,2020-0188,2020-05-07,15:38:03,15:58:46,NA,incomplete,47,number,1,right,Purple_Star_Chess_2.jpg,Blue_Triangle_Chess_3.jpg,Green_Plus_Dots_2.jpg,left,930.3250000230037,false,low,NA,NA,NA,NA,NA,NA,NA,false
5tQBpd7N,33cla8o0nlo9ukh858i8v1jgjowfr3,39o5d9o87x5cvqaquiwduhroziz3c1,5tQBpd7N,2020-0188,2020-05-07,15:38:03,15:58:46,NA,incomplete,48,number,1,right,Blue_Star_Grid_3.jpg,Green_Circle_Grid_4.jpg,Purple_Triangle_Stripes_3.jpg,right,752.0549999899231,true,low,NA,NA,NA,NA,NA,NA,NA,false
5tQBpd7N,33cla8o0nlo9ukh858i8v1jgjowfr3,39o5d9o87x5cvqaquiwduhroziz3c1,5tQBpd7N,2020-0188,2020-05-07,15:38:03,15:58:46,NA,incomplete,49,number,0,left,Blue_Circle_Dots_4.jpg,Green_Star_Grid_4.jpg,Red_Plus_Dots_2.jpg,left,604.9600000260398,true,low,NA,NA,NA,NA,NA,NA,NA,false
5tQBpd7N,33cla8o0nlo9ukh858i8v1jgjowfr3,39o5d9o87x5cvqaquiwduhroziz3c1,5tQBpd7N,2020-0188,2020-05-07,15:38:03,15:58:46,NA,incomplete,50,number,1,right,Purple_Triangle_Chess_3.jpg,Green_Circle_Chess_4.jpg,Red_Plus_Grid_3.jpg,right,613.039999967441,true,low,NA,NA,NA,NA,NA,NA,NA,false
5tQBpd7N,33cla8o0nlo9ukh858i8v1jgjowfr3,39o5d9o87x5cvqaquiwduhroziz3c1,5tQBpd7N,2020-0188,2020-05-07,15:38:03,15:58:46,NA,incomplete,51,number,1,right,Green_Circle_Stripes_1.jpg,Blue_Triangle_Stripes_3.jpg,Red_Plus_Grid_1.jpg,right,601.6999999992549,true,low,NA,NA,NA,NA,NA,NA,NA,false
5tQBpd7N,33cla8o0nlo9ukh858i8v1jgjowfr3,39o5d9o87x5cvqaquiwduhroziz3c1,5tQBpd7N,2020-0188,2020-05-07,15:38:03,15:58:46,NA,incomplete,52,number,1,left,Red_Circle_Stripes_4.jpg,Blue_Plus_Chess_4.jpg,Purple_Star_Stripes_3.jpg,left,650.435000017751,true,low,NA,NA,NA,NA,NA,NA,NA,false
5tQBpd7N,33cla8o0nlo9ukh858i8v1jgjowfr3,39o5d9o87x5cvqaquiwduhroziz3c1,5tQBpd7N,2020-0188,2020-05-07,15:38:03,15:58:46,NA,incomplete,53,number,1,left,Red_Circle_Dots_4.jpg,Blue_Star_Grid_4.jpg,Purple_Triangle_Dots_3.jpg,left,723.1650000321679,true,low,NA,NA,NA,NA,NA,NA,NA,false
5tQBpd7N,33cla8o0nlo9ukh858i8v1jgjowfr3,39o5d9o87x5cvqaquiwduhroziz3c1,5tQBpd7N,2020-0188,2020-05-07,15:38:03,15:58:46,NA,incomplete,54,number,1,right,Green_Triangle_Chess_3.jpg,Blue_Circle_Chess_1.jpg,Purple_Star_Stripes_3.jpg,right,511.7500000051223,true,low,NA,NA,NA,NA,NA,NA,NA,false
5tQBpd7N,33cla8o0nlo9ukh858i8v1jgjowfr3,39o5d9o87x5cvqaquiwduhroziz3c1,5tQBpd7N,2020-0188,2020-05-07,15:38:03,15:58:46,NA,incomplete,55,number,1,left,Red_Triangle_Stripes_1.jpg,Purple_Circle_Dots_1.jpg,Blue_Plus_Stripes_4.jpg,left,484.93500001495704,true,low,NA,NA,NA,NA,NA,NA,NA,false
5tQBpd7N,33cla8o0nlo9ukh858i8v1jgjowfr3,39o5d9o87x5cvqaquiwduhroziz3c1,5tQBpd7N,2020-0188,2020-05-07,15:38:03,15:58:46,NA,incomplete,56,number,0,left,Red_Star_Grid_2.jpg,Purple_Plus_Stripes_2.jpg,Green_Circle_Grid_1.jpg,left,550.7850000285544,true,low,NA,NA,NA,NA,NA,NA,NA,false
5tQBpd7N,33cla8o0nlo9ukh858i8v1jgjowfr3,39o5d9o87x5cvqaquiwduhroziz3c1,5tQBpd7N,2020-0188,2020-05-07,15:38:03,15:58:46,NA,incomplete,57,number,1,left,Green_Circle_Stripes_2.jpg,Blue_Star_Dots_2.jpg,Red_Plus_Stripes_3.jpg,left,530.1749999634922,true,low,NA,NA,NA,NA,NA,NA,NA,false
5tQBpd7N,33cla8o0nlo9ukh858i8v1jgjowfr3,39o5d9o87x5cvqaquiwduhroziz3c1,5tQBpd7N,2020-0188,2020-05-07,15:38:03,15:58:46,NA,incomplete,58,number,1,right,Green_Plus_Dots_3.jpg,Red_Triangle_Dots_4.jpg,Purple_Circle_Grid_3.jpg,right,615.5600000056438,true,low,NA,NA,NA,NA,NA,NA,NA,false
5tQBpd7N,33cla8o0nlo9ukh858i8v1jgjowfr3,39o5d9o87x5cvqaquiwduhroziz3c1,5tQBpd7N,2020-0188,2020-05-07,15:38:03,15:58:46,NA,incomplete,59,number,1,left,Green_Plus_Stripes_4.jpg,Purple_Star_Chess_4.jpg,Red_Triangle_Stripes_1.jpg,left,456.6550000454299,true,low,NA,NA,NA,NA,NA,NA,NA,false
5tQBpd7N,33cla8o0nlo9ukh858i8v1jgjowfr3,39o5d9o87x5cvqaquiwduhroziz3c1,5tQBpd7N,2020-0188,2020-05-07,15:38:03,15:58:46,NA,incomplete,60,filling,1,left,Blue_Plus_Stripes_3.jpg,Red_Triangle_Stripes_1.jpg,Green_Circle_Chess_3.jpg,right,553.8850000011735,false,low,NA,NA,NA,NA,NA,NA,NA,false
5tQBpd7N,33cla8o0nlo9ukh858i8v1jgjowfr3,39o5d9o87x5cvqaquiwduhroziz3c1,5tQBpd7N,2020-0188,2020-05-07,15:38:03,15:58:46,NA,incomplete,61,filling,1,left,Red_Circle_Dots_4.jpg,Blue_Triangle_Dots_1.jpg,Purple_Plus_Stripes_4.jpg,right,621.3850000058301,false,low,NA,NA,NA,NA,NA,NA,NA,false
5tQBpd7N,33cla8o0nlo9ukh858i8v1jgjowfr3,39o5d9o87x5cvqaquiwduhroziz3c1,5tQBpd7N,2020-0188,2020-05-07,15:38:03,15:58:46,NA,incomplete,62,filling,1,right,Blue_Triangle_Dots_2.jpg,Green_Circle_Grid_2.jpg,Purple_Star_Dots_4.jpg,left,543.0300000007264,false,low,NA,NA,NA,NA,NA,NA,NA,false
5tQBpd7N,33cla8o0nlo9ukh858i8v1jgjowfr3,39o5d9o87x5cvqaquiwduhroziz3c1,5tQBpd7N,2020-0188,2020-05-07,15:38:03,15:58:46,NA,incomplete,63,filling,1,left,Green_Star_Grid_4.jpg,Blue_Triangle_Grid_2.jpg,Purple_Plus_Chess_4.jpg,left,862.0699999737553,true,low,NA,NA,NA,NA,NA,NA,NA,false
5tQBpd7N,33cla8o0nlo9ukh858i8v1jgjowfr3,39o5d9o87x5cvqaquiwduhroziz3c1,5tQBpd7N,2020-0188,2020-05-07,15:38:03,15:58:46,NA,incomplete,64,filling,1,right,Green_Star_Chess_2.jpg,Purple_Triangle_Grid_2.jpg,Blue_Plus_Chess_3.jpg,right,892.6250000367872,true,low,NA,NA,NA,NA,NA,NA,NA,false
5tQBpd7N,33cla8o0nlo9ukh858i8v1jgjowfr3,39o5d9o87x5cvqaquiwduhroziz3c1,5tQBpd7N,2020-0188,2020-05-07,15:38:03,15:58:46,NA,incomplete,65,filling,1,left,Red_Triangle_Stripes_1.jpg,Blue_Circle_Stripes_2.jpg,Purple_Plus_Grid_1.jpg,left,610.6549999676645,true,low,NA,NA,NA,NA,NA,NA,NA,false
5tQBpd7N,33cla8o0nlo9ukh858i8v1jgjowfr3,39o5d9o87x5cvqaquiwduhroziz3c1,5tQBpd7N,2020-0188,2020-05-07,15:38:03,15:58:46,NA,incomplete,66,filling,1,right,Blue_Star_Grid_1.jpg,Red_Triangle_Dots_1.jpg,Purple_Plus_Grid_4.jpg,right,667.9149999981746,true,low,NA,NA,NA,NA,NA,NA,NA,false
5tQBpd7N,33cla8o0nlo9ukh858i8v1jgjowfr3,39o5d9o87x5cvqaquiwduhroziz3c1,5tQBpd7N,2020-0188,2020-05-07,15:38:03,15:58:46,NA,incomplete,67,filling,1,right,Red_Star_Chess_2.jpg,Purple_Plus_Grid_2.jpg,Blue_Triangle_Chess_1.jpg,left,597.5099999923259,false,low,NA,NA,NA,NA,NA,NA,NA,false
5tQBpd7N,33cla8o0nlo9ukh858i8v1jgjowfr3,39o5d9o87x5cvqaquiwduhroziz3c1,5tQBpd7N,2020-0188,2020-05-07,15:38:03,15:58:46,NA,incomplete,68,filling,1,left,Green_Circle_Stripes_4.jpg,Red_Star_Stripes_1.jpg,Blue_Triangle_Grid_4.jpg,left,742.1700000413693,true,low,NA,NA,NA,NA,NA,NA,NA,false
5tQBpd7N,33cla8o0nlo9ukh858i8v1jgjowfr3,39o5d9o87x5cvqaquiwduhroziz3c1,5tQBpd7N,2020-0188,2020-05-07,15:38:03,15:58:46,NA,incomplete,69,filling,1,right,Red_Triangle_Stripes_3.jpg,Green_Circle_Dots_3.jpg,Purple_Plus_Stripes_2.jpg,right,733.1150000100024,true,low,NA,NA,NA,NA,NA,NA,NA,false
5tQBpd7N,33cla8o0nlo9ukh858i8v1jgjowfr3,39o5d9o87x5cvqaquiwduhroziz3c1,5tQBpd7N,2020-0188,2020-05-07,15:38:03,15:58:46,NA,incomplete,70,filling,1,left,Red_Triangle_Dots_2.jpg,Purple_Plus_Dots_1.jpg,Green_Star_Grid_2.jpg,left,793.3149999589659,true,low,NA,NA,NA,NA,NA,NA,NA,false
5tQBpd7N,33cla8o0nlo9ukh858i8v1jgjowfr3,39o5d9o87x5cvqaquiwduhroziz3c1,5tQBpd7N,2020-0188,2020-05-07,15:38:03,15:58:46,NA,incomplete,71,filling,1,right,Blue_Triangle_Dots_1.jpg,Red_Star_Grid_1.jpg,Purple_Plus_Dots_4.jpg,right,749.8749999795109,true,low,NA,NA,NA,NA,NA,NA,NA,false
5tQBpd7N,33cla8o0nlo9ukh858i8v1jgjowfr3,39o5d9o87x5cvqaquiwduhroziz3c1,5tQBpd7N,2020-0188,2020-05-07,15:38:03,15:58:46,NA,incomplete,72,filling,1,left,Purple_Circle_Chess_3.jpg,Red_Plus_Chess_2.jpg,Green_Star_Grid_3.jpg,left,681.1050000251271,true,low,NA,NA,NA,NA,NA,NA,NA,false
5tQBpd7N,33cla8o0nlo9ukh858i8v1jgjowfr3,39o5d9o87x5cvqaquiwduhroziz3c1,5tQBpd7N,2020-0188,2020-05-07,15:38:03,15:58:46,NA,incomplete,73,filling,1,right,Blue_Circle_Dots_1.jpg,Purple_Star_Grid_1.jpg,Red_Plus_Dots_2.jpg,right,664.3449999974109,true,low,NA,NA,NA,NA,NA,NA,NA,false
5tQBpd7N,33cla8o0nlo9ukh858i8v1jgjowfr3,39o5d9o87x5cvqaquiwduhroziz3c1,5tQBpd7N,2020-0188,2020-05-07,15:38:03,15:58:46,NA,incomplete,74,filling,1,left,Purple_Circle_Chess_4.jpg,Red_Triangle_Chess_2.jpg,Blue_Plus_Stripes_4.jpg,left,682.1800000034273,true,low,NA,NA,NA,NA,NA,NA,NA,false
5tQBpd7N,33cla8o0nlo9ukh858i8v1jgjowfr3,39o5d9o87x5cvqaquiwduhroziz3c1,5tQBpd7N,2020-0188,2020-05-07,15:38:03,15:58:46,NA,incomplete,75,filling,1,right,Green_Star_Grid_3.jpg,Red_Triangle_Stripes_3.jpg,Purple_Plus_Grid_4.jpg,right,698.0249999905936,true,low,NA,NA,NA,NA,NA,NA,NA,false
5tQBpd7N,33cla8o0nlo9ukh858i8v1jgjowfr3,39o5d9o87x5cvqaquiwduhroziz3c1,5tQBpd7N,2020-0188,2020-05-07,15:38:03,15:58:46,NA,incomplete,76,filling,1,left,Red_Circle_Grid_1.jpg,Blue_Triangle_Grid_3.jpg,Purple_Plus_Stripes_1.jpg,left,654.6150000067428,true,low,NA,NA,NA,NA,NA,NA,NA,false
5tQBpd7N,33cla8o0nlo9ukh858i8v1jgjowfr3,39o5d9o87x5cvqaquiwduhroziz3c1,5tQBpd7N,2020-0188,2020-05-07,15:38:03,15:58:46,NA,incomplete,77,filling,0,right,Red_Plus_Dots_4.jpg,Blue_Star_Stripes_4.jpg,Green_Triangle_Dots_1.jpg,right,694.8449999908917,true,low,NA,NA,NA,NA,NA,NA,NA,false
5tQBpd7N,33cla8o0nlo9ukh858i8v1jgjowfr3,39o5d9o87x5cvqaquiwduhroziz3c1,5tQBpd7N,2020-0188,2020-05-07,15:38:03,15:58:46,NA,incomplete,78,filling,0,right,Purple_Star_Chess_2.jpg,Red_Plus_Grid_2.jpg,Green_Circle_Chess_4.jpg,right,918.7249999959022,true,low,NA,NA,NA,NA,NA,NA,NA,false
5tQBpd7N,33cla8o0nlo9ukh858i8v1jgjowfr3,39o5d9o87x5cvqaquiwduhroziz3c1,5tQBpd7N,2020-0188,2020-05-07,15:38:03,15:58:46,NA,incomplete,79,filling,0,right,Blue_Circle_Chess_3.jpg,Purple_Plus_Dots_3.jpg,Green_Star_Chess_2.jpg,left,764.7100000176579,false,low,NA,NA,NA,NA,NA,NA,NA,false
5tQBpd7N,33cla8o0nlo9ukh858i8v1jgjowfr3,39o5d9o87x5cvqaquiwduhroziz3c1,5tQBpd7N,2020-0188,2020-05-07,15:38:03,15:58:46,NA,incomplete,80,filling,1,right,Red_Plus_Stripes_2.jpg,Purple_Triangle_Chess_2.jpg,Green_Star_Stripes_1.jpg,left,632.114999985788,false,low,NA,NA,NA,NA,NA,NA,NA,false
5tQBpd7N,33cla8o0nlo9ukh858i8v1jgjowfr3,39o5d9o87x5cvqaquiwduhroziz3c1,5tQBpd7N,2020-0188,2020-05-07,15:38:03,15:58:46,NA,incomplete,81,filling,1,right,Red_Circle_Grid_4.jpg,Blue_Star_Dots_4.jpg,Purple_Triangle_Grid_1.jpg,left,633.7749999947846,false,low,NA,NA,NA,NA,NA,NA,NA,false
5tQBpd7N,33cla8o0nlo9ukh858i8v1jgjowfr3,39o5d9o87x5cvqaquiwduhroziz3c1,5tQBpd7N,2020-0188,2020-05-07,15:38:03,15:58:46,NA,incomplete,82,filling,1,left,Green_Triangle_Dots_1.jpg,Red_Plus_Dots_2.jpg,Blue_Star_Grid_1.jpg,left,779.1900000302121,true,low,NA,NA,NA,NA,NA,NA,NA,false
5tQBpd7N,33cla8o0nlo9ukh858i8v1jgjowfr3,39o5d9o87x5cvqaquiwduhroziz3c1,5tQBpd7N,2020-0188,2020-05-07,15:38:03,15:58:46,NA,incomplete,83,filling,0,right,Green_Plus_Grid_3.jpg,Red_Star_Stripes_3.jpg,Purple_Circle_Grid_4.jpg,right,726.5499999630265,true,low,NA,NA,NA,NA,NA,NA,NA,false
5tQBpd7N,33cla8o0nlo9ukh858i8v1jgjowfr3,39o5d9o87x5cvqaquiwduhroziz3c1,5tQBpd7N,2020-0188,2020-05-07,15:38:03,15:58:46,NA,incomplete,84,filling,1,left,Green_Triangle_Stripes_3.jpg,Red_Star_Stripes_2.jpg,Purple_Circle_Chess_3.jpg,left,1260.7549999956973,true,low,NA,NA,NA,NA,NA,NA,NA,false
5tQBpd7N,33cla8o0nlo9ukh858i8v1jgjowfr3,39o5d9o87x5cvqaquiwduhroziz3c1,5tQBpd7N,2020-0188,2020-05-07,15:38:03,15:58:46,NA,incomplete,85,filling,1,left,Blue_Circle_Chess_1.jpg,Purple_Triangle_Chess_3.jpg,Green_Plus_Stripes_1.jpg,left,671.024999988731,true,low,NA,NA,NA,NA,NA,NA,NA,false
5tQBpd7N,33cla8o0nlo9ukh858i8v1jgjowfr3,39o5d9o87x5cvqaquiwduhroziz3c1,5tQBpd7N,2020-0188,2020-05-07,15:38:03,15:58:46,NA,incomplete,86,filling,1,left,Green_Circle_Stripes_4.jpg,Purple_Plus_Stripes_1.jpg,Blue_Triangle_Chess_4.jpg,left,842.4349999986589,true,low,NA,NA,NA,NA,NA,NA,NA,false
5tQBpd7N,33cla8o0nlo9ukh858i8v1jgjowfr3,39o5d9o87x5cvqaquiwduhroziz3c1,5tQBpd7N,2020-0188,2020-05-07,15:38:03,15:58:46,NA,incomplete,87,filling,1,left,Purple_Star_Chess_2.jpg,Green_Triangle_Chess_1.jpg,Red_Circle_Grid_2.jpg,left,843.5150000150315,true,low,NA,NA,NA,NA,NA,NA,NA,false
5tQBpd7N,33cla8o0nlo9ukh858i8v1jgjowfr3,39o5d9o87x5cvqaquiwduhroziz3c1,5tQBpd7N,2020-0188,2020-05-07,15:38:03,15:58:46,NA,incomplete,88,filling,1,right,Blue_Triangle_Stripes_1.jpg,Purple_Plus_Chess_1.jpg,Green_Star_Stripes_2.jpg,right,619.6149999741465,true,low,NA,NA,NA,NA,NA,NA,NA,false
5tQBpd7N,33cla8o0nlo9ukh858i8v1jgjowfr3,39o5d9o87x5cvqaquiwduhroziz3c1,5tQBpd7N,2020-0188,2020-05-07,15:38:03,15:58:46,NA,incomplete,89,filling,1,right,Purple_Circle_Grid_2.jpg,Red_Plus_Dots_2.jpg,Green_Triangle_Grid_3.jpg,right,838.2050000363961,true,low,NA,NA,NA,NA,NA,NA,NA,false
5tQBpd7N,33cla8o0nlo9ukh858i8v1jgjowfr3,39o5d9o87x5cvqaquiwduhroziz3c1,5tQBpd7N,2020-0188,2020-05-07,15:38:03,15:58:46,NA,incomplete,90,number,1,right,Red_Plus_Stripes_4.jpg,Green_Triangle_Stripes_2.jpg,Blue_Star_Dots_4.jpg,left,829.4699999969453,false,low,NA,NA,NA,NA,NA,NA,NA,false
5tQBpd7N,33cla8o0nlo9ukh858i8v1jgjowfr3,39o5d9o87x5cvqaquiwduhroziz3c1,5tQBpd7N,2020-0188,2020-05-07,15:38:03,15:58:46,NA,incomplete,91,number,1,right,Purple_Triangle_Dots_3.jpg,Blue_Circle_Dots_4.jpg,Red_Star_Stripes_3.jpg,left,855.2000000490807,false,low,NA,NA,NA,NA,NA,NA,NA,false
5tQBpd7N,33cla8o0nlo9ukh858i8v1jgjowfr3,39o5d9o87x5cvqaquiwduhroziz3c1,5tQBpd7N,2020-0188,2020-05-07,15:38:03,15:58:46,NA,incomplete,92,number,0,left,Purple_Circle_Dots_1.jpg,Blue_Star_Grid_1.jpg,Green_Triangle_Dots_2.jpg,left,688.5350000229664,true,low,NA,NA,NA,NA,NA,NA,NA,false
5tQBpd7N,33cla8o0nlo9ukh858i8v1jgjowfr3,39o5d9o87x5cvqaquiwduhroziz3c1,5tQBpd7N,2020-0188,2020-05-07,15:38:03,15:58:46,NA,incomplete,93,number,1,left,Blue_Plus_Chess_3.jpg,Green_Circle_Grid_3.jpg,Red_Star_Chess_4.jpg,left,821.2350000394508,true,low,NA,NA,NA,NA,NA,NA,NA,false
5tQBpd7N,33cla8o0nlo9ukh858i8v1jgjowfr3,39o5d9o87x5cvqaquiwduhroziz3c1,5tQBpd7N,2020-0188,2020-05-07,15:38:03,15:58:46,NA,incomplete,94,number,1,right,Red_Plus_Stripes_4.jpg,Green_Circle_Stripes_1.jpg,Blue_Triangle_Dots_4.jpg,right,618.175000010524,true,low,NA,NA,NA,NA,NA,NA,NA,false
5tQBpd7N,33cla8o0nlo9ukh858i8v1jgjowfr3,39o5d9o87x5cvqaquiwduhroziz3c1,5tQBpd7N,2020-0188,2020-05-07,15:38:03,15:58:46,NA,incomplete,95,number,1,left,Green_Plus_Dots_3.jpg,Red_Triangle_Grid_3.jpg,Blue_Star_Dots_4.jpg,left,586.5699999849312,true,low,NA,NA,NA,NA,NA,NA,NA,false
5tQBpd7N,33cla8o0nlo9ukh858i8v1jgjowfr3,39o5d9o87x5cvqaquiwduhroziz3c1,5tQBpd7N,2020-0188,2020-05-07,15:38:03,15:58:46,NA,incomplete,96,number,1,left,Red_Circle_Chess_2.jpg,Purple_Plus_Grid_2.jpg,Green_Triangle_Chess_4.jpg,left,605.184999993071,true,low,NA,NA,NA,NA,NA,NA,NA,false
5tQBpd7N,33cla8o0nlo9ukh858i8v1jgjowfr3,39o5d9o87x5cvqaquiwduhroziz3c1,5tQBpd7N,2020-0188,2020-05-07,15:38:03,15:58:46,NA,incomplete,97,number,1,left,Red_Plus_Stripes_3.jpg,Green_Circle_Grid_3.jpg,Purple_Triangle_Stripes_1.jpg,left,560.0400000112131,true,low,NA,NA,NA,NA,NA,NA,NA,false
5tQBpd7N,33cla8o0nlo9ukh858i8v1jgjowfr3,39o5d9o87x5cvqaquiwduhroziz3c1,5tQBpd7N,2020-0188,2020-05-07,15:38:03,15:58:46,NA,incomplete,98,number,1,right,Blue_Circle_Grid_3.jpg,Purple_Star_Grid_4.jpg,Green_Plus_Stripes_3.jpg,right,674.8950000037439,true,low,NA,NA,NA,NA,NA,NA,NA,false
5tQBpd7N,33cla8o0nlo9ukh858i8v1jgjowfr3,39o5d9o87x5cvqaquiwduhroziz3c1,5tQBpd7N,2020-0188,2020-05-07,15:38:03,15:58:46,NA,incomplete,99,number,1,left,Purple_Plus_Grid_4.jpg,Green_Circle_Chess_4.jpg,Blue_Triangle_Grid_1.jpg,left,548.3499999972992,true,low,NA,NA,NA,NA,NA,NA,NA,false
5tQBpd7N,33cla8o0nlo9ukh858i8v1jgjowfr3,39o5d9o87x5cvqaquiwduhroziz3c1,5tQBpd7N,2020-0188,2020-05-07,15:38:03,15:58:46,NA,incomplete,100,number,1,left,Green_Triangle_Stripes_3.jpg,Purple_Star_Dots_3.jpg,Blue_Plus_Stripes_4.jpg,left,567.2599999816157,true,low,NA,NA,NA,NA,NA,NA,NA,false
5tQBpd7N,33cla8o0nlo9ukh858i8v1jgjowfr3,39o5d9o87x5cvqaquiwduhroziz3c1,5tQBpd7N,2020-0188,2020-05-07,15:38:03,15:58:46,NA,incomplete,101,number,1,left,Green_Star_Dots_1.jpg,Red_Circle_Chess_1.jpg,Blue_Plus_Dots_4.jpg,left,554.3450000113808,true,low,NA,NA,NA,NA,NA,NA,NA,false
5tQBpd7N,33cla8o0nlo9ukh858i8v1jgjowfr3,39o5d9o87x5cvqaquiwduhroziz3c1,5tQBpd7N,2020-0188,2020-05-07,15:38:03,15:58:46,NA,incomplete,102,number,0,left,Purple_Circle_Dots_1.jpg,Red_Star_Chess_1.jpg,Blue_Plus_Dots_3.jpg,left,506.28999999025837,true,low,NA,NA,NA,NA,NA,NA,NA,false
5tQBpd7N,33cla8o0nlo9ukh858i8v1jgjowfr3,39o5d9o87x5cvqaquiwduhroziz3c1,5tQBpd7N,2020-0188,2020-05-07,15:38:03,15:58:46,NA,incomplete,103,number,1,left,Blue_Plus_Dots_4.jpg,Green_Star_Chess_4.jpg,Red_Circle_Dots_2.jpg,left,558.054999972228,true,low,NA,NA,NA,NA,NA,NA,NA,false
5tQBpd7N,33cla8o0nlo9ukh858i8v1jgjowfr3,39o5d9o87x5cvqaquiwduhroziz3c1,5tQBpd7N,2020-0188,2020-05-07,15:38:03,15:58:46,NA,incomplete,104,number,1,right,Red_Star_Dots_2.jpg,Green_Triangle_Dots_4.jpg,Blue_Plus_Stripes_2.jpg,right,652.4499999941327,true,low,NA,NA,NA,NA,NA,NA,NA,false
5tQBpd7N,33cla8o0nlo9ukh858i8v1jgjowfr3,39o5d9o87x5cvqaquiwduhroziz3c1,5tQBpd7N,2020-0188,2020-05-07,15:38:03,15:58:46,NA,incomplete,105,number,0,left,Green_Triangle_Chess_1.jpg,Blue_Circle_Stripes_1.jpg,Red_Star_Chess_3.jpg,left,522.8200000128709,true,low,NA,NA,NA,NA,NA,NA,NA,false
5tQBpd7N,33cla8o0nlo9ukh858i8v1jgjowfr3,39o5d9o87x5cvqaquiwduhroziz3c1,5tQBpd7N,2020-0188,2020-05-07,15:38:03,15:58:46,NA,incomplete,106,number,1,left,Green_Circle_Dots_4.jpg,Purple_Star_Stripes_4.jpg,Red_Plus_Dots_1.jpg,left,568.0500000016764,true,low,NA,NA,NA,NA,NA,NA,NA,false
5tQBpd7N,33cla8o0nlo9ukh858i8v1jgjowfr3,39o5d9o87x5cvqaquiwduhroziz3c1,5tQBpd7N,2020-0188,2020-05-07,15:38:03,15:58:46,NA,incomplete,107,number,0,left,Blue_Triangle_Dots_4.jpg,Purple_Circle_Stripes_4.jpg,Green_Plus_Dots_3.jpg,left,564.505000016652,true,low,NA,NA,NA,NA,NA,NA,NA,false
5tQBpd7N,33cla8o0nlo9ukh858i8v1jgjowfr3,39o5d9o87x5cvqaquiwduhroziz3c1,5tQBpd7N,2020-0188,2020-05-07,15:38:03,15:58:46,NA,incomplete,108,number,1,left,Red_Plus_Chess_2.jpg,Purple_Triangle_Stripes_2.jpg,Green_Star_Chess_1.jpg,left,609.0250000124797,true,low,NA,NA,NA,NA,NA,NA,NA,false
5tQBpd7N,33cla8o0nlo9ukh858i8v1jgjowfr3,39o5d9o87x5cvqaquiwduhroziz3c1,5tQBpd7N,2020-0188,2020-05-07,15:38:03,15:58:46,NA,incomplete,109,number,1,right,Blue_Plus_Grid_1.jpg,Red_Circle_Grid_4.jpg,Purple_Triangle_Dots_1.jpg,right,626.6049999976531,true,low,NA,NA,NA,NA,NA,NA,NA,false
5tQBpd7N,33cla8o0nlo9ukh858i8v1jgjowfr3,39o5d9o87x5cvqaquiwduhroziz3c1,5tQBpd7N,2020-0188,2020-05-07,15:38:03,15:58:46,NA,incomplete,110,number,1,right,Purple_Triangle_Grid_4.jpg,Red_Star_Grid_3.jpg,Blue_Plus_Stripes_4.jpg,right,613.4749999619089,true,low,NA,NA,NA,NA,NA,NA,NA,false
5tQBpd7N,33cla8o0nlo9ukh858i8v1jgjowfr3,39o5d9o87x5cvqaquiwduhroziz3c1,5tQBpd7N,2020-0188,2020-05-07,15:38:03,15:58:46,NA,incomplete,111,number,1,left,Red_Circle_Chess_4.jpg,Blue_Star_Grid_4.jpg,Green_Triangle_Chess_3.jpg,left,552.1000000298955,true,low,NA,NA,NA,NA,NA,NA,NA,false
5tQBpd7N,33cla8o0nlo9ukh858i8v1jgjowfr3,39o5d9o87x5cvqaquiwduhroziz3c1,5tQBpd7N,2020-0188,2020-05-07,15:38:03,15:58:46,NA,incomplete,112,number,1,left,Blue_Circle_Grid_4.jpg,Green_Star_Dots_4.jpg,Red_Triangle_Grid_2.jpg,left,573.0650000041351,true,low,NA,NA,NA,NA,NA,NA,NA,false
5tQBpd7N,33cla8o0nlo9ukh858i8v1jgjowfr3,39o5d9o87x5cvqaquiwduhroziz3c1,5tQBpd7N,2020-0188,2020-05-07,15:38:03,15:58:46,NA,incomplete,113,number,0,right,Purple_Plus_Stripes_4.jpg,Green_Circle_Stripes_2.jpg,Red_Triangle_Chess_4.jpg,right,542.4050000146963,true,low,NA,NA,NA,NA,NA,NA,NA,false
5tQBpd7N,33cla8o0nlo9ukh858i8v1jgjowfr3,39o5d9o87x5cvqaquiwduhroziz3c1,5tQBpd7N,2020-0188,2020-05-07,15:38:03,15:58:46,NA,incomplete,114,number,0,left,Green_Triangle_Grid_3.jpg,Blue_Star_Chess_3.jpg,Red_Plus_Grid_4.jpg,left,613.0600000033155,true,low,NA,NA,NA,NA,NA,NA,NA,false
5tQBpd7N,33cla8o0nlo9ukh858i8v1jgjowfr3,39o5d9o87x5cvqaquiwduhroziz3c1,5tQBpd7N,2020-0188,2020-05-07,15:38:03,15:58:46,NA,incomplete,115,number,1,right,Blue_Plus_Chess_3.jpg,Purple_Circle_Chess_4.jpg,Green_Star_Grid_3.jpg,left,861.4599999855272,false,low,NA,NA,NA,NA,NA,NA,NA,false
5tQBpd7N,33cla8o0nlo9ukh858i8v1jgjowfr3,39o5d9o87x5cvqaquiwduhroziz3c1,5tQBpd7N,2020-0188,2020-05-07,15:38:03,15:58:46,NA,incomplete,116,number,1,left,Blue_Circle_Stripes_1.jpg,Green_Triangle_Grid_1.jpg,Red_Plus_Stripes_4.jpg,right,870.664999994915,false,low,NA,NA,NA,NA,NA,NA,NA,false
5tQBpd7N,33cla8o0nlo9ukh858i8v1jgjowfr3,39o5d9o87x5cvqaquiwduhroziz3c1,5tQBpd7N,2020-0188,2020-05-07,15:38:03,15:58:46,NA,incomplete,117,number,1,left,Blue_Circle_Chess_3.jpg,Purple_Triangle_Dots_3.jpg,Green_Plus_Chess_2.jpg,left,708.3500000298955,true,low,NA,NA,NA,NA,NA,NA,NA,false
5tQBpd7N,33cla8o0nlo9ukh858i8v1jgjowfr3,39o5d9o87x5cvqaquiwduhroziz3c1,5tQBpd7N,2020-0188,2020-05-07,15:38:03,15:58:46,NA,incomplete,118,number,1,right,Red_Plus_Chess_3.jpg,Blue_Circle_Chess_1.jpg,Green_Triangle_Stripes_3.jpg,right,570.3750000102445,true,low,NA,NA,NA,NA,NA,NA,NA,false
5tQBpd7N,33cla8o0nlo9ukh858i8v1jgjowfr3,39o5d9o87x5cvqaquiwduhroziz3c1,5tQBpd7N,2020-0188,2020-05-07,15:38:03,15:58:46,NA,incomplete,119,number,1,right,Green_Plus_Dots_4.jpg,Red_Circle_Dots_3.jpg,Blue_Triangle_Chess_4.jpg,left,704.195000056643,false,low,NA,NA,NA,NA,NA,NA,NA,false
5tQBpd7N,33cla8o0nlo9ukh858i8v1jgjowfr3,39o5d9o87x5cvqaquiwduhroziz3c1,5tQBpd7N,2020-0188,2020-05-07,15:38:03,15:58:46,NA,incomplete,120,filling,0,right,Red_Triangle_Stripes_2.jpg,Green_Plus_Dots_2.jpg,Purple_Star_Stripes_4.jpg,left,589.2049999674782,false,low,NA,NA,NA,NA,NA,NA,NA,false
5tQBpd7N,33cla8o0nlo9ukh858i8v1jgjowfr3,39o5d9o87x5cvqaquiwduhroziz3c1,5tQBpd7N,2020-0188,2020-05-07,15:38:03,15:58:46,NA,incomplete,121,filling,1,right,Purple_Plus_Dots_4.jpg,Red_Circle_Grid_4.jpg,Blue_Triangle_Dots_2.jpg,left,560.4499999899417,false,low,NA,NA,NA,NA,NA,NA,NA,false
5tQBpd7N,33cla8o0nlo9ukh858i8v1jgjowfr3,39o5d9o87x5cvqaquiwduhroziz3c1,5tQBpd7N,2020-0188,2020-05-07,15:38:03,15:58:46,NA,incomplete,122,filling,1,left,Red_Circle_Chess_3.jpg,Blue_Triangle_Chess_4.jpg,Green_Star_Dots_3.jpg,right,629.0150000131689,false,low,NA,NA,NA,NA,NA,NA,NA,false
5tQBpd7N,33cla8o0nlo9ukh858i8v1jgjowfr3,39o5d9o87x5cvqaquiwduhroziz3c1,5tQBpd7N,2020-0188,2020-05-07,15:38:03,15:58:46,NA,incomplete,123,filling,1,right,Purple_Triangle_Chess_2.jpg,Red_Plus_Dots_2.jpg,Blue_Star_Chess_4.jpg,left,605.5899999919347,false,low,NA,NA,NA,NA,NA,NA,NA,false
5tQBpd7N,33cla8o0nlo9ukh858i8v1jgjowfr3,39o5d9o87x5cvqaquiwduhroziz3c1,5tQBpd7N,2020-0188,2020-05-07,15:38:03,15:58:46,NA,incomplete,124,filling,0,left,Purple_Triangle_Stripes_2.jpg,Red_Plus_Stripes_1.jpg,Green_Star_Dots_2.jpg,left,737.4800000106916,true,low,NA,NA,NA,NA,NA,NA,NA,false
5tQBpd7N,33cla8o0nlo9ukh858i8v1jgjowfr3,39o5d9o87x5cvqaquiwduhroziz3c1,5tQBpd7N,2020-0188,2020-05-07,15:38:03,15:58:46,NA,incomplete,125,filling,1,left,Blue_Circle_Grid_2.jpg,Green_Star_Grid_3.jpg,Red_Triangle_Stripes_2.jpg,left,1302.094999991823,true,low,NA,NA,NA,NA,NA,NA,NA,false
5tQBpd7N,33cla8o0nlo9ukh858i8v1jgjowfr3,39o5d9o87x5cvqaquiwduhroziz3c1,5tQBpd7N,2020-0188,2020-05-07,15:38:03,15:58:46,NA,incomplete,126,filling,1,right,Red_Circle_Dots_4.jpg,Blue_Star_Chess_4.jpg,Green_Plus_Dots_3.jpg,right,779.1350000188686,true,low,NA,NA,NA,NA,NA,NA,NA,false
5tQBpd7N,33cla8o0nlo9ukh858i8v1jgjowfr3,39o5d9o87x5cvqaquiwduhroziz3c1,5tQBpd7N,2020-0188,2020-05-07,15:38:03,15:58:46,NA,incomplete,127,filling,1,left,Blue_Star_Chess_1.jpg,Red_Circle_Chess_4.jpg,Green_Plus_Stripes_1.jpg,left,744.0350000397302,true,low,NA,NA,NA,NA,NA,NA,NA,false
5tQBpd7N,33cla8o0nlo9ukh858i8v1jgjowfr3,39o5d9o87x5cvqaquiwduhroziz3c1,5tQBpd7N,2020-0188,2020-05-07,15:38:03,15:58:46,NA,incomplete,128,filling,1,left,Blue_Triangle_Dots_1.jpg,Green_Circle_Dots_3.jpg,Red_Plus_Grid_1.jpg,left,982.2200000053272,true,low,NA,NA,NA,NA,NA,NA,NA,false
5tQBpd7N,33cla8o0nlo9ukh858i8v1jgjowfr3,39o5d9o87x5cvqaquiwduhroziz3c1,5tQBpd7N,2020-0188,2020-05-07,15:38:03,15:58:46,NA,incomplete,129,filling,1,right,Blue_Plus_Chess_1.jpg,Green_Triangle_Stripes_1.jpg,Purple_Circle_Chess_2.jpg,right,742.7250000182539,true,low,NA,NA,NA,NA,NA,NA,NA,false
5tQBpd7N,33cla8o0nlo9ukh858i8v1jgjowfr3,39o5d9o87x5cvqaquiwduhroziz3c1,5tQBpd7N,2020-0188,2020-05-07,15:38:03,15:58:46,NA,incomplete,130,filling,1,left,Red_Triangle_Grid_4.jpg,Purple_Plus_Grid_1.jpg,Blue_Star_Stripes_4.jpg,left,762.7149999607354,true,low,NA,NA,NA,NA,NA,NA,NA,false
5tQBpd7N,33cla8o0nlo9ukh858i8v1jgjowfr3,39o5d9o87x5cvqaquiwduhroziz3c1,5tQBpd7N,2020-0188,2020-05-07,15:38:03,15:58:46,NA,incomplete,131,filling,1,right,Green_Circle_Dots_4.jpg,Blue_Triangle_Chess_4.jpg,Red_Star_Dots_3.jpg,right,711.4799999981187,true,low,NA,NA,NA,NA,NA,NA,NA,false
5tQBpd7N,33cla8o0nlo9ukh858i8v1jgjowfr3,39o5d9o87x5cvqaquiwduhroziz3c1,5tQBpd7N,2020-0188,2020-05-07,15:38:03,15:58:46,NA,incomplete,132,filling,1,left,Red_Triangle_Dots_4.jpg,Blue_Circle_Dots_3.jpg,Purple_Plus_Chess_4.jpg,left,614.2150000086986,true,low,NA,NA,NA,NA,NA,NA,NA,false
5tQBpd7N,33cla8o0nlo9ukh858i8v1jgjowfr3,39o5d9o87x5cvqaquiwduhroziz3c1,5tQBpd7N,2020-0188,2020-05-07,15:38:03,15:58:46,NA,incomplete,133,filling,1,left,Purple_Plus_Grid_1.jpg,Red_Star_Grid_4.jpg,Blue_Triangle_Dots_1.jpg,left,838.9699999825098,true,low,NA,NA,NA,NA,NA,NA,NA,false
5tQBpd7N,33cla8o0nlo9ukh858i8v1jgjowfr3,39o5d9o87x5cvqaquiwduhroziz3c1,5tQBpd7N,2020-0188,2020-05-07,15:38:03,15:58:46,NA,incomplete,134,filling,1,right,Red_Star_Dots_1.jpg,Green_Triangle_Stripes_1.jpg,Blue_Plus_Dots_4.jpg,right,688.4100000024773,true,low,NA,NA,NA,NA,NA,NA,NA,false
5tQBpd7N,33cla8o0nlo9ukh858i8v1jgjowfr3,39o5d9o87x5cvqaquiwduhroziz3c1,5tQBpd7N,2020-0188,2020-05-07,15:38:03,15:58:46,NA,incomplete,135,filling,1,right,Red_Plus_Grid_3.jpg,Blue_Star_Stripes_3.jpg,Green_Circle_Grid_4.jpg,right,1005.6099999928847,true,low,NA,NA,NA,NA,NA,NA,NA,false
5tQBpd7N,33cla8o0nlo9ukh858i8v1jgjowfr3,39o5d9o87x5cvqaquiwduhroziz3c1,5tQBpd7N,2020-0188,2020-05-07,15:38:03,15:58:46,NA,incomplete,136,filling,1,right,Blue_Plus_Dots_1.jpg,Purple_Triangle_Grid_1.jpg,Green_Star_Dots_2.jpg,right,712.679999996908,true,low,NA,NA,NA,NA,NA,NA,NA,false
5tQBpd7N,33cla8o0nlo9ukh858i8v1jgjowfr3,39o5d9o87x5cvqaquiwduhroziz3c1,5tQBpd7N,2020-0188,2020-05-07,15:38:03,15:58:46,NA,incomplete,137,filling,1,left,Red_Plus_Grid_4.jpg,Blue_Triangle_Grid_1.jpg,Green_Circle_Stripes_4.jpg,left,774.0650000050664,true,low,NA,NA,NA,NA,NA,NA,NA,false
5tQBpd7N,33cla8o0nlo9ukh858i8v1jgjowfr3,39o5d9o87x5cvqaquiwduhroziz3c1,5tQBpd7N,2020-0188,2020-05-07,15:38:03,15:58:46,NA,incomplete,138,filling,1,right,Blue_Triangle_Grid_4.jpg,Green_Circle_Dots_4.jpg,Red_Plus_Grid_2.jpg,right,755.4450000170618,true,low,NA,NA,NA,NA,NA,NA,NA,false
5tQBpd7N,33cla8o0nlo9ukh858i8v1jgjowfr3,39o5d9o87x5cvqaquiwduhroziz3c1,5tQBpd7N,2020-0188,2020-05-07,15:38:03,15:58:46,NA,incomplete,139,filling,1,right,Red_Plus_Chess_1.jpg,Green_Triangle_Stripes_1.jpg,Blue_Circle_Chess_4.jpg,right,733.7599999736995,true,low,NA,NA,NA,NA,NA,NA,NA,false
5tQBpd7N,33cla8o0nlo9ukh858i8v1jgjowfr3,39o5d9o87x5cvqaquiwduhroziz3c1,5tQBpd7N,2020-0188,2020-05-07,15:38:03,15:58:46,NA,incomplete,140,number,1,left,Red_Star_Dots_1.jpg,Blue_Plus_Grid_1.jpg,Green_Circle_Dots_3.jpg,right,707.8399999882095,false,low,NA,NA,NA,NA,NA,NA,NA,false
5tQBpd7N,33cla8o0nlo9ukh858i8v1jgjowfr3,39o5d9o87x5cvqaquiwduhroziz3c1,5tQBpd7N,2020-0188,2020-05-07,15:38:03,15:58:46,NA,incomplete,141,number,1,left,Red_Triangle_Dots_4.jpg,Purple_Plus_Grid_4.jpg,Green_Star_Dots_1.jpg,right,882.7699999674223,false,low,NA,NA,NA,NA,NA,NA,NA,false
5tQBpd7N,33cla8o0nlo9ukh858i8v1jgjowfr3,39o5d9o87x5cvqaquiwduhroziz3c1,5tQBpd7N,2020-0188,2020-05-07,15:38:03,15:58:46,NA,incomplete,142,number,0,left,Green_Circle_Stripes_3.jpg,Red_Triangle_Dots_3.jpg,Purple_Plus_Stripes_4.jpg,left,657.2300000116229,true,low,NA,NA,NA,NA,NA,NA,NA,false
5tQBpd7N,33cla8o0nlo9ukh858i8v1jgjowfr3,39o5d9o87x5cvqaquiwduhroziz3c1,5tQBpd7N,2020-0188,2020-05-07,15:38:03,15:58:46,NA,incomplete,143,number,1,right,Blue_Triangle_Grid_4.jpg,Green_Star_Grid_3.jpg,Purple_Plus_Dots_4.jpg,right,752.1149999811314,true,low,NA,NA,NA,NA,NA,NA,NA,false
5tQBpd7N,33cla8o0nlo9ukh858i8v1jgjowfr3,39o5d9o87x5cvqaquiwduhroziz3c1,5tQBpd7N,2020-0188,2020-05-07,15:38:03,15:58:46,NA,incomplete,144,number,1,right,Blue_Plus_Chess_2.jpg,Purple_Triangle_Chess_3.jpg,Red_Circle_Grid_2.jpg,right,647.4549999693409,true,low,NA,NA,NA,NA,NA,NA,NA,false
5tQBpd7N,33cla8o0nlo9ukh858i8v1jgjowfr3,39o5d9o87x5cvqaquiwduhroziz3c1,5tQBpd7N,2020-0188,2020-05-07,15:38:03,15:58:46,NA,incomplete,145,number,0,left,Green_Circle_Chess_2.jpg,Blue_Plus_Dots_2.jpg,Red_Triangle_Chess_3.jpg,left,574.5650000171736,true,low,NA,NA,NA,NA,NA,NA,NA,false
5tQBpd7N,33cla8o0nlo9ukh858i8v1jgjowfr3,39o5d9o87x5cvqaquiwduhroziz3c1,5tQBpd7N,2020-0188,2020-05-07,15:38:03,15:58:46,NA,incomplete,146,number,1,left,Blue_Circle_Grid_4.jpg,Red_Plus_Dots_4.jpg,Green_Star_Grid_2.jpg,left,603.4600000130013,true,low,NA,NA,NA,NA,NA,NA,NA,false
5tQBpd7N,33cla8o0nlo9ukh858i8v1jgjowfr3,39o5d9o87x5cvqaquiwduhroziz3c1,5tQBpd7N,2020-0188,2020-05-07,15:38:03,15:58:46,NA,incomplete,147,number,0,right,Green_Triangle_Dots_3.jpg,Purple_Plus_Dots_2.jpg,Blue_Star_Stripes_3.jpg,right,611.1750000272878,true,low,NA,NA,NA,NA,NA,NA,NA,false
5tQBpd7N,33cla8o0nlo9ukh858i8v1jgjowfr3,39o5d9o87x5cvqaquiwduhroziz3c1,5tQBpd7N,2020-0188,2020-05-07,15:38:03,15:58:46,NA,incomplete,148,number,1,right,Blue_Star_Stripes_1.jpg,Purple_Triangle_Stripes_2.jpg,Green_Circle_Grid_1.jpg,right,614.7349999519065,true,low,NA,NA,NA,NA,NA,NA,NA,false
5tQBpd7N,33cla8o0nlo9ukh858i8v1jgjowfr3,39o5d9o87x5cvqaquiwduhroziz3c1,5tQBpd7N,2020-0188,2020-05-07,15:38:03,15:58:46,NA,incomplete,149,number,1,right,Green_Plus_Stripes_1.jpg,Purple_Star_Stripes_3.jpg,Red_Triangle_Grid_1.jpg,right,567.8750000079162,true,low,NA,NA,NA,NA,NA,NA,NA,false
5tQBpd7N,33cla8o0nlo9ukh858i8v1jgjowfr3,39o5d9o87x5cvqaquiwduhroziz3c1,5tQBpd7N,2020-0188,2020-05-07,15:38:03,15:58:46,NA,incomplete,150,number,1,right,Purple_Plus_Stripes_1.jpg,Blue_Star_Stripes_3.jpg,Green_Circle_Dots_1.jpg,right,532.2249999735504,true,low,NA,NA,NA,NA,NA,NA,NA,false
5tQBpd7N,33cla8o0nlo9ukh858i8v1jgjowfr3,39o5d9o87x5cvqaquiwduhroziz3c1,5tQBpd7N,2020-0188,2020-05-07,15:38:03,15:58:46,NA,incomplete,151,number,1,right,Green_Circle_Chess_2.jpg,Red_Plus_Chess_1.jpg,Purple_Triangle_Stripes_2.jpg,right,649.634999979753,true,low,NA,NA,NA,NA,NA,NA,NA,false
5tQBpd7N,33cla8o0nlo9ukh858i8v1jgjowfr3,39o5d9o87x5cvqaquiwduhroziz3c1,5tQBpd7N,2020-0188,2020-05-07,15:38:03,15:58:46,NA,incomplete,152,number,1,right,Blue_Star_Chess_3.jpg,Red_Circle_Chess_2.jpg,Purple_Plus_Stripes_3.jpg,right,596.4050000184216,true,low,NA,NA,NA,NA,NA,NA,NA,false
5tQBpd7N,33cla8o0nlo9ukh858i8v1jgjowfr3,39o5d9o87x5cvqaquiwduhroziz3c1,5tQBpd7N,2020-0188,2020-05-07,15:38:03,15:58:46,NA,incomplete,153,number,1,left,Purple_Circle_Chess_4.jpg,Blue_Triangle_Stripes_4.jpg,Green_Star_Chess_2.jpg,left,533.850000007078,true,low,NA,NA,NA,NA,NA,NA,NA,false
5tQBpd7N,33cla8o0nlo9ukh858i8v1jgjowfr3,39o5d9o87x5cvqaquiwduhroziz3c1,5tQBpd7N,2020-0188,2020-05-07,15:38:03,15:58:46,NA,incomplete,154,number,0,right,Blue_Star_Chess_3.jpg,Purple_Circle_Chess_1.jpg,Green_Triangle_Dots_3.jpg,right,540.4149999958463,true,low,NA,NA,NA,NA,NA,NA,NA,false
5tQBpd7N,33cla8o0nlo9ukh858i8v1jgjowfr3,39o5d9o87x5cvqaquiwduhroziz3c1,5tQBpd7N,2020-0188,2020-05-07,15:38:03,15:58:46,NA,incomplete,155,number,1,left,Red_Triangle_Chess_2.jpg,Green_Plus_Grid_2.jpg,Purple_Star_Chess_4.jpg,left,576.8800000078045,true,low,NA,NA,NA,NA,NA,NA,NA,false
5tQBpd7N,33cla8o0nlo9ukh858i8v1jgjowfr3,39o5d9o87x5cvqaquiwduhroziz3c1,5tQBpd7N,2020-0188,2020-05-07,15:38:03,15:58:46,NA,incomplete,156,number,1,left,Green_Plus_Grid_3.jpg,Purple_Star_Chess_3.jpg,Red_Triangle_Grid_2.jpg,left,643.6450000037439,true,low,NA,NA,NA,NA,NA,NA,NA,false
5tQBpd7N,33cla8o0nlo9ukh858i8v1jgjowfr3,39o5d9o87x5cvqaquiwduhroziz3c1,5tQBpd7N,2020-0188,2020-05-07,15:38:03,15:58:46,NA,incomplete,157,number,0,left,Blue_Triangle_Chess_3.jpg,Purple_Star_Grid_3.jpg,Red_Circle_Chess_4.jpg,left,606.3549999962561,true,low,NA,NA,NA,NA,NA,NA,NA,false
5tQBpd7N,33cla8o0nlo9ukh858i8v1jgjowfr3,39o5d9o87x5cvqaquiwduhroziz3c1,5tQBpd7N,2020-0188,2020-05-07,15:38:03,15:58:46,NA,incomplete,158,number,1,right,Green_Circle_Chess_2.jpg,Purple_Plus_Chess_1.jpg,Blue_Star_Stripes_2.jpg,right,589.7349999868311,true,low,NA,NA,NA,NA,NA,NA,NA,false
5tQBpd7N,33cla8o0nlo9ukh858i8v1jgjowfr3,39o5d9o87x5cvqaquiwduhroziz3c1,5tQBpd7N,2020-0188,2020-05-07,15:38:03,15:58:46,NA,incomplete,159,number,1,left,Purple_Plus_Dots_4.jpg,Red_Triangle_Grid_4.jpg,Blue_Star_Dots_3.jpg,left,586.2600000109524,true,low,NA,NA,NA,NA,NA,NA,NA,false
5tQBpd7N,33cla8o0nlo9ukh858i8v1jgjowfr3,39o5d9o87x5cvqaquiwduhroziz3c1,5tQBpd7N,2020-0188,2020-05-07,15:38:03,15:58:46,NA,incomplete,160,filling,1,left,Red_Triangle_Chess_2.jpg,Green_Circle_Chess_1.jpg,Purple_Plus_Grid_2.jpg,right,588.1349999690428,false,low,NA,NA,NA,NA,NA,NA,NA,false
5tQBpd7N,33cla8o0nlo9ukh858i8v1jgjowfr3,39o5d9o87x5cvqaquiwduhroziz3c1,5tQBpd7N,2020-0188,2020-05-07,15:38:03,15:58:46,NA,incomplete,161,filling,1,right,Red_Plus_Dots_3.jpg,Green_Star_Stripes_3.jpg,Purple_Triangle_Dots_1.jpg,left,536.7799999658018,false,low,NA,NA,NA,NA,NA,NA,NA,false
5tQBpd7N,33cla8o0nlo9ukh858i8v1jgjowfr3,39o5d9o87x5cvqaquiwduhroziz3c1,5tQBpd7N,2020-0188,2020-05-07,15:38:03,15:58:46,NA,incomplete,162,filling,0,right,Purple_Plus_Grid_1.jpg,Green_Star_Dots_1.jpg,Red_Triangle_Grid_2.jpg,right,771.7849999899045,true,low,NA,NA,NA,NA,NA,NA,NA,false
5tQBpd7N,33cla8o0nlo9ukh858i8v1jgjowfr3,39o5d9o87x5cvqaquiwduhroziz3c1,5tQBpd7N,2020-0188,2020-05-07,15:38:03,15:58:46,NA,incomplete,163,filling,1,left,Green_Plus_Dots_2.jpg,Blue_Triangle_Dots_3.jpg,Purple_Circle_Chess_2.jpg,left,760.6850000447594,true,low,NA,NA,NA,NA,NA,NA,NA,false
5tQBpd7N,33cla8o0nlo9ukh858i8v1jgjowfr3,39o5d9o87x5cvqaquiwduhroziz3c1,5tQBpd7N,2020-0188,2020-05-07,15:38:03,15:58:46,NA,incomplete,164,filling,1,left,Red_Circle_Stripes_1.jpg,Purple_Plus_Stripes_4.jpg,Blue_Star_Dots_1.jpg,left,708.2200000295416,true,low,NA,NA,NA,NA,NA,NA,NA,false
5tQBpd7N,33cla8o0nlo9ukh858i8v1jgjowfr3,39o5d9o87x5cvqaquiwduhroziz3c1,5tQBpd7N,2020-0188,2020-05-07,15:38:03,15:58:46,NA,incomplete,165,filling,1,left,Blue_Star_Stripes_4.jpg,Red_Plus_Stripes_1.jpg,Purple_Triangle_Grid_4.jpg,left,962.9950000089593,true,low,NA,NA,NA,NA,NA,NA,NA,false
5tQBpd7N,33cla8o0nlo9ukh858i8v1jgjowfr3,39o5d9o87x5cvqaquiwduhroziz3c1,5tQBpd7N,2020-0188,2020-05-07,15:38:03,15:58:46,NA,incomplete,166,filling,0,left,Purple_Triangle_Grid_3.jpg,Red_Star_Grid_1.jpg,Green_Circle_Stripes_3.jpg,left,854.555000027176,true,low,NA,NA,NA,NA,NA,NA,NA,false
5tQBpd7N,33cla8o0nlo9ukh858i8v1jgjowfr3,39o5d9o87x5cvqaquiwduhroziz3c1,5tQBpd7N,2020-0188,2020-05-07,15:38:03,15:58:46,NA,incomplete,167,filling,1,right,Purple_Star_Grid_3.jpg,Blue_Circle_Stripes_3.jpg,Red_Triangle_Grid_2.jpg,right,790.3850000002421,true,low,NA,NA,NA,NA,NA,NA,NA,false
5tQBpd7N,33cla8o0nlo9ukh858i8v1jgjowfr3,39o5d9o87x5cvqaquiwduhroziz3c1,5tQBpd7N,2020-0188,2020-05-07,15:38:03,15:58:46,NA,incomplete,168,filling,1,right,Blue_Plus_Grid_4.jpg,Red_Triangle_Chess_4.jpg,Purple_Circle_Grid_1.jpg,right,824.0649999934249,true,low,NA,NA,NA,NA,NA,NA,NA,false
5tQBpd7N,33cla8o0nlo9ukh858i8v1jgjowfr3,39o5d9o87x5cvqaquiwduhroziz3c1,5tQBpd7N,2020-0188,2020-05-07,15:38:03,15:58:46,NA,incomplete,169,filling,1,left,Green_Triangle_Stripes_2.jpg,Red_Circle_Stripes_4.jpg,Purple_Star_Chess_2.jpg,left,714.3149999901652,true,low,NA,NA,NA,NA,NA,NA,NA,false
5tQBpd7N,33cla8o0nlo9ukh858i8v1jgjowfr3,39o5d9o87x5cvqaquiwduhroziz3c1,5tQBpd7N,2020-0188,2020-05-07,15:38:03,15:58:46,NA,incomplete,170,filling,1,right,Blue_Plus_Stripes_2.jpg,Green_Triangle_Dots_2.jpg,Purple_Star_Stripes_4.jpg,right,745.4600000055507,true,low,NA,NA,NA,NA,NA,NA,NA,false
5tQBpd7N,33cla8o0nlo9ukh858i8v1jgjowfr3,39o5d9o87x5cvqaquiwduhroziz3c1,5tQBpd7N,2020-0188,2020-05-07,15:38:03,15:58:46,NA,incomplete,171,filling,1,left,Blue_Triangle_Grid_4.jpg,Red_Star_Grid_1.jpg,Purple_Circle_Stripes_4.jpg,left,812.3599999817088,true,low,NA,NA,NA,NA,NA,NA,NA,false
5tQBpd7N,33cla8o0nlo9ukh858i8v1jgjowfr3,39o5d9o87x5cvqaquiwduhroziz3c1,5tQBpd7N,2020-0188,2020-05-07,15:38:03,15:58:46,NA,incomplete,172,filling,0,right,Green_Triangle_Stripes_4.jpg,Purple_Plus_Chess_4.jpg,Red_Circle_Stripes_3.jpg,right,791.1650000023656,true,low,NA,NA,NA,NA,NA,NA,NA,false
5tQBpd7N,33cla8o0nlo9ukh858i8v1jgjowfr3,39o5d9o87x5cvqaquiwduhroziz3c1,5tQBpd7N,2020-0188,2020-05-07,15:38:03,15:58:46,NA,incomplete,173,filling,1,right,Purple_Triangle_Dots_4.jpg,Green_Star_Stripes_4.jpg,Red_Plus_Dots_3.jpg,right,801.999999966938,true,low,NA,NA,NA,NA,NA,NA,NA,false
5tQBpd7N,33cla8o0nlo9ukh858i8v1jgjowfr3,39o5d9o87x5cvqaquiwduhroziz3c1,5tQBpd7N,2020-0188,2020-05-07,15:38:03,15:58:46,NA,incomplete,174,filling,0,right,Purple_Circle_Chess_2.jpg,Blue_Triangle_Stripes_2.jpg,Green_Plus_Chess_4.jpg,right,803.9850000059232,true,low,NA,NA,NA,NA,NA,NA,NA,false
5tQBpd7N,33cla8o0nlo9ukh858i8v1jgjowfr3,39o5d9o87x5cvqaquiwduhroziz3c1,5tQBpd7N,2020-0188,2020-05-07,15:38:03,15:58:46,NA,incomplete,175,filling,1,right,Green_Star_Grid_3.jpg,Red_Circle_Stripes_3.jpg,Blue_Triangle_Grid_2.jpg,right,767.519999993965,true,low,NA,NA,NA,NA,NA,NA,NA,false
5tQBpd7N,33cla8o0nlo9ukh858i8v1jgjowfr3,39o5d9o87x5cvqaquiwduhroziz3c1,5tQBpd7N,2020-0188,2020-05-07,15:38:03,15:58:46,NA,incomplete,176,filling,1,left,Red_Plus_Dots_2.jpg,Green_Circle_Dots_1.jpg,Blue_Triangle_Grid_2.jpg,left,642.4400000250898,true,low,NA,NA,NA,NA,NA,NA,NA,false
5tQBpd7N,33cla8o0nlo9ukh858i8v1jgjowfr3,39o5d9o87x5cvqaquiwduhroziz3c1,5tQBpd7N,2020-0188,2020-05-07,15:38:03,15:58:46,NA,incomplete,177,filling,1,right,Red_Star_Stripes_3.jpg,Purple_Plus_Chess_3.jpg,Green_Circle_Stripes_4.jpg,right,691.3150000036694,true,low,NA,NA,NA,NA,NA,NA,NA,false
5tQBpd7N,33cla8o0nlo9ukh858i8v1jgjowfr3,39o5d9o87x5cvqaquiwduhroziz3c1,5tQBpd7N,2020-0188,2020-05-07,15:38:03,15:58:46,NA,incomplete,178,filling,1,left,Red_Star_Chess_1.jpg,Blue_Plus_Chess_4.jpg,Purple_Circle_Grid_1.jpg,left,649.4050000328571,true,low,NA,NA,NA,NA,NA,NA,NA,false
5tQBpd7N,33cla8o0nlo9ukh858i8v1jgjowfr3,39o5d9o87x5cvqaquiwduhroziz3c1,5tQBpd7N,2020-0188,2020-05-07,15:38:03,15:58:46,NA,incomplete,179,filling,1,left,Purple_Plus_Grid_2.jpg,Red_Circle_Grid_1.jpg,Green_Triangle_Dots_2.jpg,left,714.0699999872595,true,low,NA,NA,NA,NA,NA,NA,NA,false
5tQBpd7N,33cla8o0nlo9ukh858i8v1jgjowfr3,39o5d9o87x5cvqaquiwduhroziz3c1,5tQBpd7N,2020-0188,2020-05-07,15:38:03,15:58:46,NA,incomplete,180,number,1,left,Purple_Circle_Stripes_4.jpg,Green_Star_Dots_4.jpg,Red_Plus_Stripes_2.jpg,right,722.234999993816,false,low,NA,NA,NA,NA,NA,NA,NA,false
5tQBpd7N,33cla8o0nlo9ukh858i8v1jgjowfr3,39o5d9o87x5cvqaquiwduhroziz3c1,5tQBpd7N,2020-0188,2020-05-07,15:38:03,15:58:46,NA,incomplete,181,number,1,right,Green_Plus_Chess_1.jpg,Purple_Circle_Chess_2.jpg,Blue_Triangle_Grid_1.jpg,left,703.8000000175089,false,low,NA,NA,NA,NA,NA,NA,NA,false
5tQBpd7N,33cla8o0nlo9ukh858i8v1jgjowfr3,39o5d9o87x5cvqaquiwduhroziz3c1,5tQBpd7N,2020-0188,2020-05-07,15:38:03,15:58:46,NA,incomplete,182,number,1,right,Green_Circle_Grid_1.jpg,Blue_Star_Grid_2.jpg,Red_Plus_Chess_1.jpg,right,662.1000000159256,true,low,NA,NA,NA,NA,NA,NA,NA,false
5tQBpd7N,33cla8o0nlo9ukh858i8v1jgjowfr3,39o5d9o87x5cvqaquiwduhroziz3c1,5tQBpd7N,2020-0188,2020-05-07,15:38:03,15:58:46,NA,incomplete,183,number,0,left,Red_Circle_Grid_1.jpg,Green_Star_Dots_1.jpg,Blue_Plus_Grid_2.jpg,left,589.719999989029,true,low,NA,NA,NA,NA,NA,NA,NA,false
5tQBpd7N,33cla8o0nlo9ukh858i8v1jgjowfr3,39o5d9o87x5cvqaquiwduhroziz3c1,5tQBpd7N,2020-0188,2020-05-07,15:38:03,15:58:46,NA,incomplete,184,number,1,left,Green_Plus_Stripes_4.jpg,Purple_Triangle_Dots_4.jpg,Red_Circle_Stripes_3.jpg,left,752.9400000348687,true,low,NA,NA,NA,NA,NA,NA,NA,false
5tQBpd7N,33cla8o0nlo9ukh858i8v1jgjowfr3,39o5d9o87x5cvqaquiwduhroziz3c1,5tQBpd7N,2020-0188,2020-05-07,15:38:03,15:58:46,NA,incomplete,185,number,1,right,Green_Star_Dots_2.jpg,Purple_Triangle_Dots_1.jpg,Blue_Circle_Grid_2.jpg,right,635.9550000051968,true,low,NA,NA,NA,NA,NA,NA,NA,false
5tQBpd7N,33cla8o0nlo9ukh858i8v1jgjowfr3,39o5d9o87x5cvqaquiwduhroziz3c1,5tQBpd7N,2020-0188,2020-05-07,15:38:03,15:58:46,NA,incomplete,186,number,0,right,Red_Circle_Stripes_2.jpg,Green_Plus_Stripes_4.jpg,Purple_Star_Grid_2.jpg,right,622.3800000152551,true,low,NA,NA,NA,NA,NA,NA,NA,false
5tQBpd7N,33cla8o0nlo9ukh858i8v1jgjowfr3,39o5d9o87x5cvqaquiwduhroziz3c1,5tQBpd7N,2020-0188,2020-05-07,15:38:03,15:58:46,NA,incomplete,187,number,1,right,Green_Circle_Chess_1.jpg,Purple_Plus_Chess_2.jpg,Red_Star_Stripes_1.jpg,right,605.6150000076741,true,low,NA,NA,NA,NA,NA,NA,NA,false
5tQBpd7N,33cla8o0nlo9ukh858i8v1jgjowfr3,39o5d9o87x5cvqaquiwduhroziz3c1,5tQBpd7N,2020-0188,2020-05-07,15:38:03,15:58:46,NA,incomplete,188,number,1,left,Red_Triangle_Stripes_4.jpg,Green_Plus_Grid_4.jpg,Blue_Circle_Stripes_1.jpg,left,544.4099999731407,true,low,NA,NA,NA,NA,NA,NA,NA,false
5tQBpd7N,33cla8o0nlo9ukh858i8v1jgjowfr3,39o5d9o87x5cvqaquiwduhroziz3c1,5tQBpd7N,2020-0188,2020-05-07,15:38:03,15:58:46,NA,incomplete,189,number,1,right,Green_Star_Chess_2.jpg,Purple_Triangle_Chess_3.jpg,Red_Plus_Dots_2.jpg,right,511.04000001214445,true,low,NA,NA,NA,NA,NA,NA,NA,false
5tQBpd7N,33cla8o0nlo9ukh858i8v1jgjowfr3,39o5d9o87x5cvqaquiwduhroziz3c1,5tQBpd7N,2020-0188,2020-05-07,15:38:03,15:58:46,NA,incomplete,190,number,1,right,Green_Triangle_Grid_3.jpg,Blue_Star_Grid_4.jpg,Red_Circle_Chess_3.jpg,right,829.280000005383,true,low,NA,NA,NA,NA,NA,NA,NA,false
5tQBpd7N,33cla8o0nlo9ukh858i8v1jgjowfr3,39o5d9o87x5cvqaquiwduhroziz3c1,5tQBpd7N,2020-0188,2020-05-07,15:38:03,15:58:46,NA,incomplete,191,number,1,left,Red_Circle_Dots_3.jpg,Blue_Triangle_Chess_3.jpg,Purple_Plus_Dots_4.jpg,left,596.8149999971502,true,low,NA,NA,NA,NA,NA,NA,NA,false
5tQBpd7N,33cla8o0nlo9ukh858i8v1jgjowfr3,39o5d9o87x5cvqaquiwduhroziz3c1,5tQBpd7N,2020-0188,2020-05-07,15:38:03,15:58:46,NA,incomplete,192,number,0,left,Blue_Triangle_Stripes_4.jpg,Green_Circle_Chess_4.jpg,Purple_Plus_Stripes_3.jpg,left,639.7100000176579,true,low,NA,NA,NA,NA,NA,NA,NA,false
5tQBpd7N,33cla8o0nlo9ukh858i8v1jgjowfr3,39o5d9o87x5cvqaquiwduhroziz3c1,5tQBpd7N,2020-0188,2020-05-07,15:38:03,15:58:46,NA,incomplete,193,number,1,right,Purple_Plus_Dots_1.jpg,Blue_Triangle_Dots_3.jpg,Red_Star_Chess_1.jpg,right,553.4850000403821,true,low,NA,NA,NA,NA,NA,NA,NA,false
5tQBpd7N,33cla8o0nlo9ukh858i8v1jgjowfr3,39o5d9o87x5cvqaquiwduhroziz3c1,5tQBpd7N,2020-0188,2020-05-07,15:38:03,15:58:46,NA,incomplete,194,number,1,left,Green_Plus_Grid_1.jpg,Blue_Star_Dots_1.jpg,Red_Circle_Grid_3.jpg,left,551.5649999724701,true,low,NA,NA,NA,NA,NA,NA,NA,false
5tQBpd7N,33cla8o0nlo9ukh858i8v1jgjowfr3,39o5d9o87x5cvqaquiwduhroziz3c1,5tQBpd7N,2020-0188,2020-05-07,15:38:03,15:58:46,NA,incomplete,195,number,1,right,Blue_Circle_Stripes_2.jpg,Red_Triangle_Stripes_3.jpg,Purple_Star_Grid_2.jpg,right,611.6799999726936,true,low,NA,NA,NA,NA,NA,NA,NA,false
5tQBpd7N,33cla8o0nlo9ukh858i8v1jgjowfr3,39o5d9o87x5cvqaquiwduhroziz3c1,5tQBpd7N,2020-0188,2020-05-07,15:38:03,15:58:46,NA,incomplete,196,number,1,right,Blue_Plus_Stripes_3.jpg,Purple_Star_Stripes_1.jpg,Green_Triangle_Chess_3.jpg,right,549.1150000016205,true,low,NA,NA,NA,NA,NA,NA,NA,false
5tQBpd7N,33cla8o0nlo9ukh858i8v1jgjowfr3,39o5d9o87x5cvqaquiwduhroziz3c1,5tQBpd7N,2020-0188,2020-05-07,15:38:03,15:58:46,NA,incomplete,197,number,1,right,Red_Star_Dots_2.jpg,Purple_Plus_Dots_1.jpg,Blue_Circle_Chess_2.jpg,right,587.2849999577738,true,low,NA,NA,NA,NA,NA,NA,NA,false
5tQBpd7N,33cla8o0nlo9ukh858i8v1jgjowfr3,39o5d9o87x5cvqaquiwduhroziz3c1,5tQBpd7N,2020-0188,2020-05-07,15:38:03,15:58:46,NA,incomplete,198,number,0,left,Green_Triangle_Stripes_4.jpg,Blue_Circle_Grid_4.jpg,Purple_Star_Stripes_3.jpg,left,594.9649999965914,true,low,NA,NA,NA,NA,NA,NA,NA,false
5tQBpd7N,33cla8o0nlo9ukh858i8v1jgjowfr3,39o5d9o87x5cvqaquiwduhroziz3c1,5tQBpd7N,2020-0188,2020-05-07,15:38:03,15:58:46,NA,incomplete,199,number,1,left,Red_Plus_Grid_4.jpg,Purple_Star_Dots_4.jpg,Blue_Triangle_Grid_2.jpg,left,559.8299999837764,true,low,NA,NA,NA,NA,NA,NA,NA,false
5tQBpd7N,33cla8o0nlo9ukh858i8v1jgjowfr3,39o5d9o87x5cvqaquiwduhroziz3c1,5tQBpd7N,2020-0188,2020-05-07,15:38:03,15:58:46,NA,incomplete,200,filling,0,left,Purple_Triangle_Chess_1.jpg,Blue_Circle_Chess_2.jpg,Green_Plus_Grid_1.jpg,right,550.3799999714829,false,low,NA,NA,NA,NA,NA,NA,NA,false
5tQBpd7N,33cla8o0nlo9ukh858i8v1jgjowfr3,39o5d9o87x5cvqaquiwduhroziz3c1,5tQBpd7N,2020-0188,2020-05-07,15:38:03,15:58:46,NA,incomplete,201,filling,1,left,Blue_Circle_Stripes_1.jpg,Purple_Triangle_Stripes_4.jpg,Red_Star_Grid_1.jpg,right,513.6100000236183,false,low,NA,NA,NA,NA,NA,NA,NA,false
5tQBpd7N,33cla8o0nlo9ukh858i8v1jgjowfr3,39o5d9o87x5cvqaquiwduhroziz3c1,5tQBpd7N,2020-0188,2020-05-07,15:38:03,15:58:46,NA,incomplete,202,filling,1,right,Blue_Triangle_Dots_1.jpg,Green_Plus_Stripes_1.jpg,Red_Star_Dots_3.jpg,left,695.3449999564327,false,low,NA,NA,NA,NA,NA,NA,NA,false
5tQBpd7N,33cla8o0nlo9ukh858i8v1jgjowfr3,39o5d9o87x5cvqaquiwduhroziz3c1,5tQBpd7N,2020-0188,2020-05-07,15:38:03,15:58:46,NA,incomplete,203,filling,0,right,Red_Plus_Chess_3.jpg,Blue_Triangle_Grid_3.jpg,Green_Star_Chess_1.jpg,right,788.7500000069849,true,low,NA,NA,NA,NA,NA,NA,NA,false
5tQBpd7N,33cla8o0nlo9ukh858i8v1jgjowfr3,39o5d9o87x5cvqaquiwduhroziz3c1,5tQBpd7N,2020-0188,2020-05-07,15:38:03,15:58:46,NA,incomplete,204,filling,1,right,Red_Star_Dots_1.jpg,Green_Circle_Grid_1.jpg,Purple_Triangle_Dots_3.jpg,right,736.2950000097044,true,low,NA,NA,NA,NA,NA,NA,NA,false
5tQBpd7N,33cla8o0nlo9ukh858i8v1jgjowfr3,39o5d9o87x5cvqaquiwduhroziz3c1,5tQBpd7N,2020-0188,2020-05-07,15:38:03,15:58:46,NA,incomplete,205,filling,1,left,Red_Triangle_Chess_2.jpg,Purple_Star_Chess_1.jpg,Blue_Plus_Stripes_2.jpg,left,855.9299999615178,true,low,NA,NA,NA,NA,NA,NA,NA,false
5tQBpd7N,33cla8o0nlo9ukh858i8v1jgjowfr3,39o5d9o87x5cvqaquiwduhroziz3c1,5tQBpd7N,2020-0188,2020-05-07,15:38:03,15:58:46,NA,incomplete,206,filling,1,right,Red_Circle_Stripes_2.jpg,Blue_Star_Dots_2.jpg,Purple_Plus_Stripes_4.jpg,right,668.5150000266731,true,low,NA,NA,NA,NA,NA,NA,NA,false
5tQBpd7N,33cla8o0nlo9ukh858i8v1jgjowfr3,39o5d9o87x5cvqaquiwduhroziz3c1,5tQBpd7N,2020-0188,2020-05-07,15:38:03,15:58:46,NA,incomplete,207,filling,1,right,Red_Star_Chess_4.jpg,Purple_Triangle_Grid_4.jpg,Blue_Circle_Chess_1.jpg,right,771.9200000283308,true,low,NA,NA,NA,NA,NA,NA,NA,false
5tQBpd7N,33cla8o0nlo9ukh858i8v1jgjowfr3,39o5d9o87x5cvqaquiwduhroziz3c1,5tQBpd7N,2020-0188,2020-05-07,15:38:03,15:58:46,NA,incomplete,208,filling,1,right,Purple_Plus_Stripes_1.jpg,Green_Star_Chess_1.jpg,Red_Triangle_Stripes_3.jpg,right,727.7999999932945,true,low,NA,NA,NA,NA,NA,NA,NA,false
5tQBpd7N,33cla8o0nlo9ukh858i8v1jgjowfr3,39o5d9o87x5cvqaquiwduhroziz3c1,5tQBpd7N,2020-0188,2020-05-07,15:38:03,15:58:46,NA,incomplete,209,filling,0,left,Red_Star_Dots_2.jpg,Purple_Plus_Dots_4.jpg,Green_Circle_Chess_2.jpg,left,757.210000010673,true,low,NA,NA,NA,NA,NA,NA,NA,false
5tQBpd7N,33cla8o0nlo9ukh858i8v1jgjowfr3,39o5d9o87x5cvqaquiwduhroziz3c1,5tQBpd7N,2020-0188,2020-05-07,15:38:03,15:58:46,NA,incomplete,210,filling,1,left,Purple_Star_Chess_1.jpg,Green_Plus_Chess_3.jpg,Blue_Circle_Grid_1.jpg,left,801.3100000098348,true,low,NA,NA,NA,NA,NA,NA,NA,false
5tQBpd7N,33cla8o0nlo9ukh858i8v1jgjowfr3,39o5d9o87x5cvqaquiwduhroziz3c1,5tQBpd7N,2020-0188,2020-05-07,15:38:03,15:58:46,NA,incomplete,211,filling,1,right,Blue_Triangle_Stripes_2.jpg,Red_Circle_Dots_2.jpg,Purple_Star_Stripes_3.jpg,right,699.2099999915808,true,low,NA,NA,NA,NA,NA,NA,NA,false
5tQBpd7N,33cla8o0nlo9ukh858i8v1jgjowfr3,39o5d9o87x5cvqaquiwduhroziz3c1,5tQBpd7N,2020-0188,2020-05-07,15:38:03,15:58:46,NA,incomplete,212,filling,1,left,Purple_Triangle_Stripes_1.jpg,Green_Circle_Stripes_3.jpg,Red_Star_Chess_1.jpg,left,764.0450000180863,true,low,NA,NA,NA,NA,NA,NA,NA,false
5tQBpd7N,33cla8o0nlo9ukh858i8v1jgjowfr3,39o5d9o87x5cvqaquiwduhroziz3c1,5tQBpd7N,2020-0188,2020-05-07,15:38:03,15:58:46,NA,incomplete,213,filling,1,left,Green_Star_Chess_2.jpg,Red_Plus_Chess_4.jpg,Purple_Circle_Dots_2.jpg,left,663.4049999993294,true,low,NA,NA,NA,NA,NA,NA,NA,false
5tQBpd7N,33cla8o0nlo9ukh858i8v1jgjowfr3,39o5d9o87x5cvqaquiwduhroziz3c1,5tQBpd7N,2020-0188,2020-05-07,15:38:03,15:58:46,NA,incomplete,214,filling,1,left,Green_Star_Grid_3.jpg,Red_Triangle_Grid_1.jpg,Blue_Circle_Chess_3.jpg,left,742.374999972526,true,low,NA,NA,NA,NA,NA,NA,NA,false
5tQBpd7N,33cla8o0nlo9ukh858i8v1jgjowfr3,39o5d9o87x5cvqaquiwduhroziz3c1,5tQBpd7N,2020-0188,2020-05-07,15:38:03,15:58:46,NA,incomplete,215,filling,0,right,Purple_Plus_Dots_2.jpg,Red_Star_Chess_2.jpg,Blue_Triangle_Dots_3.jpg,right,667.8149999934249,true,low,NA,NA,NA,NA,NA,NA,NA,false
5tQBpd7N,33cla8o0nlo9ukh858i8v1jgjowfr3,39o5d9o87x5cvqaquiwduhroziz3c1,5tQBpd7N,2020-0188,2020-05-07,15:38:03,15:58:46,NA,incomplete,216,filling,1,right,Blue_Triangle_Grid_4.jpg,Purple_Star_Dots_4.jpg,Green_Plus_Grid_3.jpg,right,841.5600000298582,true,low,NA,NA,NA,NA,NA,NA,NA,false
5tQBpd7N,33cla8o0nlo9ukh858i8v1jgjowfr3,39o5d9o87x5cvqaquiwduhroziz3c1,5tQBpd7N,2020-0188,2020-05-07,15:38:03,15:58:46,NA,incomplete,217,filling,0,left,Red_Plus_Stripes_2.jpg,Blue_Triangle_Stripes_3.jpg,Purple_Circle_Grid_2.jpg,left,690.6599999638274,true,low,NA,NA,NA,NA,NA,NA,NA,false
5tQBpd7N,33cla8o0nlo9ukh858i8v1jgjowfr3,39o5d9o87x5cvqaquiwduhroziz3c1,5tQBpd7N,2020-0188,2020-05-07,15:38:03,15:58:46,NA,incomplete,218,filling,1,left,Green_Circle_Grid_4.jpg,Red_Star_Grid_3.jpg,Purple_Plus_Chess_4.jpg,left,794.9600000283681,true,low,NA,NA,NA,NA,NA,NA,NA,false
5tQBpd7N,33cla8o0nlo9ukh858i8v1jgjowfr3,39o5d9o87x5cvqaquiwduhroziz3c1,5tQBpd7N,2020-0188,2020-05-07,15:38:03,15:58:46,NA,incomplete,219,filling,1,left,Purple_Circle_Chess_2.jpg,Blue_Star_Chess_3.jpg,Green_Triangle_Dots_2.jpg,left,764.740000013262,true,low,NA,NA,NA,NA,NA,NA,NA,false
5tQBpd7N,33cla8o0nlo9ukh858i8v1jgjowfr3,39o5d9o87x5cvqaquiwduhroziz3c1,5tQBpd7N,2020-0188,2020-05-07,15:38:03,15:58:46,NA,incomplete,220,number,1,left,Red_Plus_Stripes_1.jpg,Purple_Triangle_Grid_1.jpg,Blue_Circle_Stripes_2.jpg,right,752.6649999781512,false,low,NA,NA,NA,NA,NA,NA,NA,false
5tQBpd7N,33cla8o0nlo9ukh858i8v1jgjowfr3,39o5d9o87x5cvqaquiwduhroziz3c1,5tQBpd7N,2020-0188,2020-05-07,15:38:03,15:58:46,NA,incomplete,221,number,1,left,Red_Circle_Dots_2.jpg,Green_Triangle_Chess_2.jpg,Blue_Plus_Dots_4.jpg,right,749.9749999842606,false,low,NA,NA,NA,NA,NA,NA,NA,false
5tQBpd7N,33cla8o0nlo9ukh858i8v1jgjowfr3,39o5d9o87x5cvqaquiwduhroziz3c1,5tQBpd7N,2020-0188,2020-05-07,15:38:03,15:58:46,NA,incomplete,222,number,0,left,Red_Star_Stripes_2.jpg,Purple_Plus_Grid_2.jpg,Blue_Circle_Stripes_4.jpg,right,740.4000000096858,false,low,NA,NA,NA,NA,NA,NA,NA,false
5tQBpd7N,33cla8o0nlo9ukh858i8v1jgjowfr3,39o5d9o87x5cvqaquiwduhroziz3c1,5tQBpd7N,2020-0188,2020-05-07,15:38:03,15:58:46,NA,incomplete,223,number,1,right,Blue_Star_Chess_2.jpg,Green_Plus_Chess_1.jpg,Red_Triangle_Grid_2.jpg,left,734.5900000073016,false,low,NA,NA,NA,NA,NA,NA,NA,false
5tQBpd7N,33cla8o0nlo9ukh858i8v1jgjowfr3,39o5d9o87x5cvqaquiwduhroziz3c1,5tQBpd7N,2020-0188,2020-05-07,15:38:03,15:58:46,NA,incomplete,224,number,1,right,Green_Star_Dots_1.jpg,Red_Triangle_Dots_3.jpg,Blue_Circle_Chess_1.jpg,right,707.799999974668,true,low,NA,NA,NA,NA,NA,NA,NA,false
5tQBpd7N,33cla8o0nlo9ukh858i8v1jgjowfr3,39o5d9o87x5cvqaquiwduhroziz3c1,5tQBpd7N,2020-0188,2020-05-07,15:38:03,15:58:46,NA,incomplete,225,number,0,right,Blue_Plus_Chess_3.jpg,Green_Circle_Chess_2.jpg,Purple_Triangle_Stripes_3.jpg,right,593.9800000051036,true,low,NA,NA,NA,NA,NA,NA,NA,false
5tQBpd7N,33cla8o0nlo9ukh858i8v1jgjowfr3,39o5d9o87x5cvqaquiwduhroziz3c1,5tQBpd7N,2020-0188,2020-05-07,15:38:03,15:58:46,NA,incomplete,226,number,1,left,Green_Plus_Stripes_1.jpg,Purple_Triangle_Grid_1.jpg,Blue_Star_Stripes_3.jpg,left,524.1650000098161,true,low,NA,NA,NA,NA,NA,NA,NA,false
5tQBpd7N,33cla8o0nlo9ukh858i8v1jgjowfr3,39o5d9o87x5cvqaquiwduhroziz3c1,5tQBpd7N,2020-0188,2020-05-07,15:38:03,15:58:46,NA,incomplete,227,number,1,right,Blue_Triangle_Chess_2.jpg,Purple_Circle_Chess_4.jpg,Red_Star_Dots_2.jpg,right,578.609999967739,true,low,NA,NA,NA,NA,NA,NA,NA,false
5tQBpd7N,33cla8o0nlo9ukh858i8v1jgjowfr3,39o5d9o87x5cvqaquiwduhroziz3c1,5tQBpd7N,2020-0188,2020-05-07,15:38:03,15:58:46,NA,incomplete,228,number,1,left,Blue_Star_Chess_4.jpg,Red_Circle_Dots_4.jpg,Green_Triangle_Chess_1.jpg,left,533.400000014808,true,low,NA,NA,NA,NA,NA,NA,NA,false
5tQBpd7N,33cla8o0nlo9ukh858i8v1jgjowfr3,39o5d9o87x5cvqaquiwduhroziz3c1,5tQBpd7N,2020-0188,2020-05-07,15:38:03,15:58:46,NA,incomplete,229,number,1,right,Green_Star_Stripes_3.jpg,Blue_Circle_Stripes_1.jpg,Red_Plus_Grid_3.jpg,right,533.77499995986,true,low,NA,NA,NA,NA,NA,NA,NA,false
5tQBpd7N,33cla8o0nlo9ukh858i8v1jgjowfr3,39o5d9o87x5cvqaquiwduhroziz3c1,5tQBpd7N,2020-0188,2020-05-07,15:38:03,15:58:46,NA,incomplete,230,number,1,right,Red_Triangle_Chess_2.jpg,Blue_Circle_Chess_1.jpg,Purple_Star_Dots_2.jpg,right,609.1050000395626,true,low,NA,NA,NA,NA,NA,NA,NA,false
5tQBpd7N,33cla8o0nlo9ukh858i8v1jgjowfr3,39o5d9o87x5cvqaquiwduhroziz3c1,5tQBpd7N,2020-0188,2020-05-07,15:38:03,15:58:46,NA,incomplete,231,number,1,right,Green_Circle_Stripes_2.jpg,Red_Triangle_Stripes_1.jpg,Blue_Star_Chess_2.jpg,right,626.7699999734759,true,low,NA,NA,NA,NA,NA,NA,NA,false
5tQBpd7N,33cla8o0nlo9ukh858i8v1jgjowfr3,39o5d9o87x5cvqaquiwduhroziz3c1,5tQBpd7N,2020-0188,2020-05-07,15:38:03,15:58:46,NA,incomplete,232,number,0,left,Purple_Circle_Chess_4.jpg,Green_Star_Dots_4.jpg,Red_Plus_Chess_1.jpg,left,564.8099999525584,true,low,NA,NA,NA,NA,NA,NA,NA,false
5tQBpd7N,33cla8o0nlo9ukh858i8v1jgjowfr3,39o5d9o87x5cvqaquiwduhroziz3c1,5tQBpd7N,2020-0188,2020-05-07,15:38:03,15:58:46,NA,incomplete,233,number,1,left,Purple_Circle_Chess_2.jpg,Red_Plus_Grid_2.jpg,Blue_Star_Chess_4.jpg,left,623.4300000360236,true,low,NA,NA,NA,NA,NA,NA,NA,false
5tQBpd7N,33cla8o0nlo9ukh858i8v1jgjowfr3,39o5d9o87x5cvqaquiwduhroziz3c1,5tQBpd7N,2020-0188,2020-05-07,15:38:03,15:58:46,NA,incomplete,234,number,1,left,Blue_Circle_Stripes_3.jpg,Green_Star_Grid_3.jpg,Red_Plus_Stripes_4.jpg,left,579.6500000287779,true,low,NA,NA,NA,NA,NA,NA,NA,false
5tQBpd7N,33cla8o0nlo9ukh858i8v1jgjowfr3,39o5d9o87x5cvqaquiwduhroziz3c1,5tQBpd7N,2020-0188,2020-05-07,15:38:03,15:58:46,NA,incomplete,235,number,0,left,Red_Triangle_Grid_4.jpg,Green_Circle_Chess_4.jpg,Blue_Star_Grid_1.jpg,left,519.0849999780767,true,low,NA,NA,NA,NA,NA,NA,NA,false
5tQBpd7N,33cla8o0nlo9ukh858i8v1jgjowfr3,39o5d9o87x5cvqaquiwduhroziz3c1,5tQBpd7N,2020-0188,2020-05-07,15:38:03,15:58:46,NA,incomplete,236,number,1,left,Green_Plus_Stripes_3.jpg,Blue_Circle_Grid_3.jpg,Red_Triangle_Stripes_4.jpg,left,626.3949999702163,true,low,NA,NA,NA,NA,NA,NA,NA,false
5tQBpd7N,33cla8o0nlo9ukh858i8v1jgjowfr3,39o5d9o87x5cvqaquiwduhroziz3c1,5tQBpd7N,2020-0188,2020-05-07,15:38:03,15:58:46,NA,incomplete,237,number,1,left,Blue_Star_Dots_2.jpg,Purple_Triangle_Chess_2.jpg,Green_Circle_Dots_1.jpg,left,612.9799999762326,true,low,NA,NA,NA,NA,NA,NA,NA,false
5tQBpd7N,33cla8o0nlo9ukh858i8v1jgjowfr3,39o5d9o87x5cvqaquiwduhroziz3c1,5tQBpd7N,2020-0188,2020-05-07,15:38:03,15:58:46,NA,incomplete,238,number,1,right,Green_Circle_Dots_1.jpg,Blue_Star_Dots_2.jpg,Red_Plus_Stripes_1.jpg,right,526.8700000015087,true,low,NA,NA,NA,NA,NA,NA,NA,false
5tQBpd7N,33cla8o0nlo9ukh858i8v1jgjowfr3,39o5d9o87x5cvqaquiwduhroziz3c1,5tQBpd7N,2020-0188,2020-05-07,15:38:03,15:58:46,NA,incomplete,239,number,1,left,Purple_Plus_Dots_2.jpg,Green_Circle_Chess_2.jpg,Blue_Star_Dots_1.jpg,left,556.6700000199489,true,low,NA,NA,NA,NA,NA,NA,NA,false
5tQBpd7N,33cla8o0nlo9ukh858i8v1jgjowfr3,39o5d9o87x5cvqaquiwduhroziz3c1,5tQBpd7N,2020-0188,2020-05-07,15:38:03,15:58:46,1222813.8850000105,1243873.3900000225,NA,NA,NA,NA,NA,NA,NA,NA,NA,NA,NA,36,Asian,Female,Korean,no,yes,no,undefined
