workerId,hitId,assignmentId,subject,studyid,exp_date,exp_start,exp_end,time_start,time_end,trial,type,reward_validity,answer,image_top,image_left,image_right,response,response_time,response_acc,volatility,age,race,gender,ethnicity,color,vision,neuro,practice
CisNqNAd,33cla8o0nlo9ukh858i8v1jgjowfr3,3a4nixbj7ac6kgc6ddurtzqhtl6mly,CisNqNAd,2020-0188,2020-05-08,01:45:17,02:03:11,NA,incomplete,0,filling,1,left,Green_Triangle_Grid_4.jpg,Blue_Plus_Grid_1.jpg,Red_Star_Chess_4.jpg,left,1157.0899999933317,true,NA,NA,NA,NA,NA,NA,NA,NA,true
CisNqNAd,33cla8o0nlo9ukh858i8v1jgjowfr3,3a4nixbj7ac6kgc6ddurtzqhtl6mly,CisNqNAd,2020-0188,2020-05-08,01:45:17,02:03:11,NA,incomplete,1,filling,0,right,Red_Triangle_Grid_4.jpg,Blue_Plus_Stripes_4.jpg,Green_Circle_Grid_2.jpg,left,1190.0300000561401,false,NA,NA,NA,NA,NA,NA,NA,NA,true
CisNqNAd,33cla8o0nlo9ukh858i8v1jgjowfr3,3a4nixbj7ac6kgc6ddurtzqhtl6mly,CisNqNAd,2020-0188,2020-05-08,01:45:17,02:03:11,NA,incomplete,2,filling,1,left,Blue_Triangle_Stripes_1.jpg,Purple_Plus_Stripes_2.jpg,Green_Circle_Chess_1.jpg,left,1232.8299999935552,true,NA,NA,NA,NA,NA,NA,NA,NA,true
CisNqNAd,33cla8o0nlo9ukh858i8v1jgjowfr3,3a4nixbj7ac6kgc6ddurtzqhtl6mly,CisNqNAd,2020-0188,2020-05-08,01:45:17,02:03:11,NA,incomplete,3,filling,1,left,Red_Plus_Chess_4.jpg,Green_Star_Chess_2.jpg,Blue_Triangle_Grid_4.jpg,left,1247.7799999760464,true,NA,NA,NA,NA,NA,NA,NA,NA,true
CisNqNAd,33cla8o0nlo9ukh858i8v1jgjowfr3,3a4nixbj7ac6kgc6ddurtzqhtl6mly,CisNqNAd,2020-0188,2020-05-08,01:45:17,02:03:11,NA,incomplete,4,filling,1,left,Blue_Star_Dots_4.jpg,Red_Triangle_Dots_1.jpg,Green_Circle_Chess_4.jpg,left,1653.044999926351,true,NA,NA,NA,NA,NA,NA,NA,NA,true
CisNqNAd,33cla8o0nlo9ukh858i8v1jgjowfr3,3a4nixbj7ac6kgc6ddurtzqhtl6mly,CisNqNAd,2020-0188,2020-05-08,01:45:17,02:03:11,NA,incomplete,5,filling,1,right,Purple_Circle_Dots_2.jpg,Blue_Star_Chess_2.jpg,Green_Triangle_Dots_4.jpg,right,1318.5100000118837,true,NA,NA,NA,NA,NA,NA,NA,NA,true
CisNqNAd,33cla8o0nlo9ukh858i8v1jgjowfr3,3a4nixbj7ac6kgc6ddurtzqhtl6mly,CisNqNAd,2020-0188,2020-05-08,01:45:17,02:03:11,NA,incomplete,6,filling,1,right,Green_Triangle_Grid_2.jpg,Purple_Plus_Dots_2.jpg,Blue_Circle_Grid_1.jpg,right,1561.9599999627098,true,NA,NA,NA,NA,NA,NA,NA,NA,true
CisNqNAd,33cla8o0nlo9ukh858i8v1jgjowfr3,3a4nixbj7ac6kgc6ddurtzqhtl6mly,CisNqNAd,2020-0188,2020-05-08,01:45:17,02:03:11,NA,incomplete,7,filling,1,right,Blue_Triangle_Stripes_1.jpg,Green_Plus_Dots_1.jpg,Purple_Circle_Stripes_3.jpg,right,1512.2549999505281,true,NA,NA,NA,NA,NA,NA,NA,NA,true
CisNqNAd,33cla8o0nlo9ukh858i8v1jgjowfr3,3a4nixbj7ac6kgc6ddurtzqhtl6mly,CisNqNAd,2020-0188,2020-05-08,01:45:17,02:03:11,NA,incomplete,8,filling,1,left,Blue_Plus_Grid_4.jpg,Green_Star_Grid_1.jpg,Purple_Triangle_Chess_4.jpg,left,1418.9550000010058,true,NA,NA,NA,NA,NA,NA,NA,NA,true
CisNqNAd,33cla8o0nlo9ukh858i8v1jgjowfr3,3a4nixbj7ac6kgc6ddurtzqhtl6mly,CisNqNAd,2020-0188,2020-05-08,01:45:17,02:03:11,NA,incomplete,9,filling,1,right,Green_Plus_Stripes_3.jpg,Purple_Triangle_Dots_3.jpg,Blue_Star_Stripes_2.jpg,right,1411.7300000507385,true,NA,NA,NA,NA,NA,NA,NA,NA,true
CisNqNAd,33cla8o0nlo9ukh858i8v1jgjowfr3,3a4nixbj7ac6kgc6ddurtzqhtl6mly,CisNqNAd,2020-0188,2020-05-08,01:45:17,02:03:11,NA,incomplete,10,filling,1,left,Purple_Star_Stripes_3.jpg,Green_Circle_Stripes_2.jpg,Blue_Plus_Grid_3.jpg,left,1893.3250000700355,true,NA,NA,NA,NA,NA,NA,NA,NA,true
CisNqNAd,33cla8o0nlo9ukh858i8v1jgjowfr3,3a4nixbj7ac6kgc6ddurtzqhtl6mly,CisNqNAd,2020-0188,2020-05-08,01:45:17,02:03:11,NA,incomplete,11,filling,1,left,Red_Triangle_Grid_1.jpg,Blue_Plus_Grid_4.jpg,Green_Circle_Chess_1.jpg,left,1345.8050000481308,true,NA,NA,NA,NA,NA,NA,NA,NA,true
CisNqNAd,33cla8o0nlo9ukh858i8v1jgjowfr3,3a4nixbj7ac6kgc6ddurtzqhtl6mly,CisNqNAd,2020-0188,2020-05-08,01:45:17,02:03:11,NA,incomplete,12,filling,1,right,Red_Triangle_Dots_4.jpg,Green_Star_Chess_4.jpg,Blue_Circle_Dots_3.jpg,right,1382.2800000198185,true,NA,NA,NA,NA,NA,NA,NA,NA,true
CisNqNAd,33cla8o0nlo9ukh858i8v1jgjowfr3,3a4nixbj7ac6kgc6ddurtzqhtl6mly,CisNqNAd,2020-0188,2020-05-08,01:45:17,02:03:11,NA,incomplete,13,filling,1,left,Blue_Plus_Stripes_4.jpg,Red_Star_Stripes_3.jpg,Green_Triangle_Dots_4.jpg,left,1570.3099999809638,true,NA,NA,NA,NA,NA,NA,NA,NA,true
CisNqNAd,33cla8o0nlo9ukh858i8v1jgjowfr3,3a4nixbj7ac6kgc6ddurtzqhtl6mly,CisNqNAd,2020-0188,2020-05-08,01:45:17,02:03:11,NA,incomplete,14,filling,1,right,Purple_Plus_Dots_4.jpg,Red_Circle_Stripes_4.jpg,Green_Triangle_Dots_1.jpg,right,1357.5450000353158,true,NA,NA,NA,NA,NA,NA,NA,NA,true
CisNqNAd,33cla8o0nlo9ukh858i8v1jgjowfr3,3a4nixbj7ac6kgc6ddurtzqhtl6mly,CisNqNAd,2020-0188,2020-05-08,01:45:17,02:03:11,NA,incomplete,15,filling,1,left,Blue_Star_Chess_1.jpg,Purple_Circle_Chess_3.jpg,Red_Plus_Grid_1.jpg,left,1399.5049999793991,true,NA,NA,NA,NA,NA,NA,NA,NA,true
CisNqNAd,33cla8o0nlo9ukh858i8v1jgjowfr3,3a4nixbj7ac6kgc6ddurtzqhtl6mly,CisNqNAd,2020-0188,2020-05-08,01:45:17,02:03:11,NA,incomplete,16,filling,1,right,Red_Circle_Dots_2.jpg,Purple_Star_Chess_2.jpg,Green_Plus_Dots_1.jpg,right,1283.754999982193,true,NA,NA,NA,NA,NA,NA,NA,NA,true
CisNqNAd,33cla8o0nlo9ukh858i8v1jgjowfr3,3a4nixbj7ac6kgc6ddurtzqhtl6mly,CisNqNAd,2020-0188,2020-05-08,01:45:17,02:03:11,NA,incomplete,17,filling,0,right,Red_Star_Stripes_3.jpg,Green_Triangle_Chess_3.jpg,Blue_Circle_Stripes_4.jpg,right,1380.0400000764057,true,NA,NA,NA,NA,NA,NA,NA,NA,true
CisNqNAd,33cla8o0nlo9ukh858i8v1jgjowfr3,3a4nixbj7ac6kgc6ddurtzqhtl6mly,CisNqNAd,2020-0188,2020-05-08,01:45:17,02:03:11,NA,incomplete,18,filling,1,right,Purple_Triangle_Dots_4.jpg,Red_Star_Chess_4.jpg,Blue_Plus_Dots_2.jpg,right,1356.9500000448897,true,NA,NA,NA,NA,NA,NA,NA,NA,true
CisNqNAd,33cla8o0nlo9ukh858i8v1jgjowfr3,3a4nixbj7ac6kgc6ddurtzqhtl6mly,CisNqNAd,2020-0188,2020-05-08,01:45:17,02:03:11,NA,incomplete,19,filling,1,right,Green_Triangle_Stripes_1.jpg,Blue_Star_Dots_1.jpg,Red_Plus_Stripes_4.jpg,right,924.2599999997765,true,NA,NA,NA,NA,NA,NA,NA,NA,true
CisNqNAd,33cla8o0nlo9ukh858i8v1jgjowfr3,3a4nixbj7ac6kgc6ddurtzqhtl6mly,CisNqNAd,2020-0188,2020-05-08,01:45:17,02:03:11,NA,incomplete,20,number,1,left,Green_Plus_Stripes_2.jpg,Red_Triangle_Chess_2.jpg,Blue_Star_Stripes_4.jpg,none,0,false,NA,NA,NA,NA,NA,NA,NA,NA,true
CisNqNAd,33cla8o0nlo9ukh858i8v1jgjowfr3,3a4nixbj7ac6kgc6ddurtzqhtl6mly,CisNqNAd,2020-0188,2020-05-08,01:45:17,02:03:11,NA,incomplete,21,number,0,right,Blue_Triangle_Grid_2.jpg,Green_Star_Grid_4.jpg,Purple_Circle_Dots_2.jpg,right,1128.0900000128895,true,NA,NA,NA,NA,NA,NA,NA,NA,true
CisNqNAd,33cla8o0nlo9ukh858i8v1jgjowfr3,3a4nixbj7ac6kgc6ddurtzqhtl6mly,CisNqNAd,2020-0188,2020-05-08,01:45:17,02:03:11,NA,incomplete,22,number,1,left,Red_Triangle_Stripes_3.jpg,Purple_Plus_Grid_3.jpg,Green_Circle_Stripes_2.jpg,left,1511.3450000062585,true,NA,NA,NA,NA,NA,NA,NA,NA,true
CisNqNAd,33cla8o0nlo9ukh858i8v1jgjowfr3,3a4nixbj7ac6kgc6ddurtzqhtl6mly,CisNqNAd,2020-0188,2020-05-08,01:45:17,02:03:11,NA,incomplete,23,number,1,left,Red_Triangle_Stripes_4.jpg,Green_Star_Chess_4.jpg,Blue_Circle_Stripes_2.jpg,left,1242.185000097379,true,NA,NA,NA,NA,NA,NA,NA,NA,true
CisNqNAd,33cla8o0nlo9ukh858i8v1jgjowfr3,3a4nixbj7ac6kgc6ddurtzqhtl6mly,CisNqNAd,2020-0188,2020-05-08,01:45:17,02:03:11,NA,incomplete,24,number,1,right,Red_Plus_Stripes_4.jpg,Purple_Circle_Stripes_3.jpg,Green_Triangle_Dots_4.jpg,left,1642.2449999954551,false,NA,NA,NA,NA,NA,NA,NA,NA,true
CisNqNAd,33cla8o0nlo9ukh858i8v1jgjowfr3,3a4nixbj7ac6kgc6ddurtzqhtl6mly,CisNqNAd,2020-0188,2020-05-08,01:45:17,02:03:11,NA,incomplete,25,number,1,right,Red_Star_Grid_1.jpg,Purple_Circle_Grid_4.jpg,Blue_Plus_Chess_1.jpg,right,1358.7999999290332,true,NA,NA,NA,NA,NA,NA,NA,NA,true
CisNqNAd,33cla8o0nlo9ukh858i8v1jgjowfr3,3a4nixbj7ac6kgc6ddurtzqhtl6mly,CisNqNAd,2020-0188,2020-05-08,01:45:17,02:03:11,NA,incomplete,26,number,0,right,Green_Circle_Stripes_2.jpg,Red_Triangle_Stripes_1.jpg,Blue_Plus_Dots_2.jpg,right,1269.5450000464916,true,NA,NA,NA,NA,NA,NA,NA,NA,true
CisNqNAd,33cla8o0nlo9ukh858i8v1jgjowfr3,3a4nixbj7ac6kgc6ddurtzqhtl6mly,CisNqNAd,2020-0188,2020-05-08,01:45:17,02:03:11,NA,incomplete,27,number,1,right,Red_Triangle_Dots_1.jpg,Green_Circle_Dots_4.jpg,Blue_Star_Grid_1.jpg,right,1579.7549999551848,true,NA,NA,NA,NA,NA,NA,NA,NA,true
CisNqNAd,33cla8o0nlo9ukh858i8v1jgjowfr3,3a4nixbj7ac6kgc6ddurtzqhtl6mly,CisNqNAd,2020-0188,2020-05-08,01:45:17,02:03:11,NA,incomplete,28,number,0,left,Green_Star_Stripes_4.jpg,Purple_Circle_Chess_4.jpg,Red_Plus_Stripes_1.jpg,left,1388.2000000448897,true,NA,NA,NA,NA,NA,NA,NA,NA,true
CisNqNAd,33cla8o0nlo9ukh858i8v1jgjowfr3,3a4nixbj7ac6kgc6ddurtzqhtl6mly,CisNqNAd,2020-0188,2020-05-08,01:45:17,02:03:11,NA,incomplete,29,number,0,left,Purple_Plus_Grid_3.jpg,Red_Star_Dots_3.jpg,Green_Triangle_Grid_2.jpg,left,1192.9049999453127,true,NA,NA,NA,NA,NA,NA,NA,NA,true
CisNqNAd,33cla8o0nlo9ukh858i8v1jgjowfr3,3a4nixbj7ac6kgc6ddurtzqhtl6mly,CisNqNAd,2020-0188,2020-05-08,01:45:17,02:03:11,NA,incomplete,30,number,0,right,Blue_Star_Stripes_3.jpg,Green_Triangle_Stripes_1.jpg,Purple_Circle_Dots_3.jpg,right,1181.6499999258667,true,NA,NA,NA,NA,NA,NA,NA,NA,true
CisNqNAd,33cla8o0nlo9ukh858i8v1jgjowfr3,3a4nixbj7ac6kgc6ddurtzqhtl6mly,CisNqNAd,2020-0188,2020-05-08,01:45:17,02:03:11,NA,incomplete,31,number,1,right,Green_Triangle_Stripes_4.jpg,Purple_Circle_Stripes_3.jpg,Blue_Plus_Chess_4.jpg,right,1573.175000026822,true,NA,NA,NA,NA,NA,NA,NA,NA,true
CisNqNAd,33cla8o0nlo9ukh858i8v1jgjowfr3,3a4nixbj7ac6kgc6ddurtzqhtl6mly,CisNqNAd,2020-0188,2020-05-08,01:45:17,02:03:11,NA,incomplete,32,number,1,right,Purple_Star_Stripes_2.jpg,Blue_Circle_Stripes_3.jpg,Red_Plus_Dots_2.jpg,right,1160.5899999849498,true,NA,NA,NA,NA,NA,NA,NA,NA,true
CisNqNAd,33cla8o0nlo9ukh858i8v1jgjowfr3,3a4nixbj7ac6kgc6ddurtzqhtl6mly,CisNqNAd,2020-0188,2020-05-08,01:45:17,02:03:11,NA,incomplete,33,number,1,right,Purple_Triangle_Chess_3.jpg,Red_Plus_Chess_4.jpg,Green_Star_Grid_3.jpg,right,1356.995000038296,true,NA,NA,NA,NA,NA,NA,NA,NA,true
CisNqNAd,33cla8o0nlo9ukh858i8v1jgjowfr3,3a4nixbj7ac6kgc6ddurtzqhtl6mly,CisNqNAd,2020-0188,2020-05-08,01:45:17,02:03:11,NA,incomplete,34,number,0,right,Green_Star_Grid_1.jpg,Red_Plus_Grid_4.jpg,Purple_Triangle_Chess_1.jpg,right,946.0949999047443,true,NA,NA,NA,NA,NA,NA,NA,NA,true
CisNqNAd,33cla8o0nlo9ukh858i8v1jgjowfr3,3a4nixbj7ac6kgc6ddurtzqhtl6mly,CisNqNAd,2020-0188,2020-05-08,01:45:17,02:03:11,NA,incomplete,35,number,1,left,Green_Star_Stripes_2.jpg,Purple_Triangle_Grid_2.jpg,Blue_Circle_Stripes_3.jpg,left,1218.5649999883026,true,NA,NA,NA,NA,NA,NA,NA,NA,true
CisNqNAd,33cla8o0nlo9ukh858i8v1jgjowfr3,3a4nixbj7ac6kgc6ddurtzqhtl6mly,CisNqNAd,2020-0188,2020-05-08,01:45:17,02:03:11,NA,incomplete,36,number,1,left,Blue_Plus_Chess_4.jpg,Green_Triangle_Grid_4.jpg,Purple_Circle_Chess_2.jpg,left,1131.7399999825284,true,NA,NA,NA,NA,NA,NA,NA,NA,true
CisNqNAd,33cla8o0nlo9ukh858i8v1jgjowfr3,3a4nixbj7ac6kgc6ddurtzqhtl6mly,CisNqNAd,2020-0188,2020-05-08,01:45:17,02:03:11,NA,incomplete,37,number,1,left,Red_Plus_Stripes_4.jpg,Blue_Circle_Dots_4.jpg,Purple_Triangle_Stripes_3.jpg,left,976.8850000109524,true,NA,NA,NA,NA,NA,NA,NA,NA,true
CisNqNAd,33cla8o0nlo9ukh858i8v1jgjowfr3,3a4nixbj7ac6kgc6ddurtzqhtl6mly,CisNqNAd,2020-0188,2020-05-08,01:45:17,02:03:11,NA,incomplete,38,number,1,left,Red_Star_Stripes_1.jpg,Green_Circle_Dots_1.jpg,Purple_Triangle_Stripes_2.jpg,left,1167.5350000150502,true,NA,NA,NA,NA,NA,NA,NA,NA,true
CisNqNAd,33cla8o0nlo9ukh858i8v1jgjowfr3,3a4nixbj7ac6kgc6ddurtzqhtl6mly,CisNqNAd,2020-0188,2020-05-08,01:45:17,02:03:11,NA,incomplete,39,number,1,left,Red_Plus_Dots_2.jpg,Blue_Circle_Chess_2.jpg,Green_Triangle_Dots_3.jpg,left,1036.030000075698,true,NA,NA,NA,NA,NA,NA,NA,NA,true
CisNqNAd,33cla8o0nlo9ukh858i8v1jgjowfr3,3a4nixbj7ac6kgc6ddurtzqhtl6mly,CisNqNAd,2020-0188,2020-05-08,01:45:17,02:03:11,NA,incomplete,0,filling,1,left,Purple_Triangle_Dots_1.jpg,Green_Circle_Dots_3.jpg,Red_Plus_Chess_1.jpg,right,1348.5800001071766,false,low,NA,NA,NA,NA,NA,NA,NA,false
CisNqNAd,33cla8o0nlo9ukh858i8v1jgjowfr3,3a4nixbj7ac6kgc6ddurtzqhtl6mly,CisNqNAd,2020-0188,2020-05-08,01:45:17,02:03:11,NA,incomplete,1,filling,1,left,Purple_Triangle_Dots_3.jpg,Red_Plus_Dots_2.jpg,Green_Circle_Chess_3.jpg,left,1004.8749999841675,true,low,NA,NA,NA,NA,NA,NA,NA,false
CisNqNAd,33cla8o0nlo9ukh858i8v1jgjowfr3,3a4nixbj7ac6kgc6ddurtzqhtl6mly,CisNqNAd,2020-0188,2020-05-08,01:45:17,02:03:11,NA,incomplete,2,filling,0,right,Blue_Triangle_Stripes_1.jpg,Green_Plus_Dots_1.jpg,Purple_Circle_Stripes_2.jpg,right,943.1650000624359,true,low,NA,NA,NA,NA,NA,NA,NA,false
CisNqNAd,33cla8o0nlo9ukh858i8v1jgjowfr3,3a4nixbj7ac6kgc6ddurtzqhtl6mly,CisNqNAd,2020-0188,2020-05-08,01:45:17,02:03:11,NA,incomplete,3,filling,1,right,Green_Circle_Chess_2.jpg,Blue_Plus_Grid_2.jpg,Red_Star_Chess_3.jpg,right,1099.430000060238,true,low,NA,NA,NA,NA,NA,NA,NA,false
CisNqNAd,33cla8o0nlo9ukh858i8v1jgjowfr3,3a4nixbj7ac6kgc6ddurtzqhtl6mly,CisNqNAd,2020-0188,2020-05-08,01:45:17,02:03:11,NA,incomplete,4,filling,1,left,Blue_Plus_Dots_3.jpg,Purple_Triangle_Dots_2.jpg,Green_Circle_Stripes_3.jpg,left,1155.3550000535324,true,low,NA,NA,NA,NA,NA,NA,NA,false
CisNqNAd,33cla8o0nlo9ukh858i8v1jgjowfr3,3a4nixbj7ac6kgc6ddurtzqhtl6mly,CisNqNAd,2020-0188,2020-05-08,01:45:17,02:03:11,NA,incomplete,5,filling,1,right,Red_Triangle_Grid_1.jpg,Green_Star_Chess_1.jpg,Blue_Plus_Grid_3.jpg,right,942.5249999621883,true,low,NA,NA,NA,NA,NA,NA,NA,false
CisNqNAd,33cla8o0nlo9ukh858i8v1jgjowfr3,3a4nixbj7ac6kgc6ddurtzqhtl6mly,CisNqNAd,2020-0188,2020-05-08,01:45:17,02:03:11,NA,incomplete,6,filling,1,right,Green_Star_Stripes_4.jpg,Purple_Circle_Dots_4.jpg,Red_Triangle_Stripes_3.jpg,right,972.9600000428036,true,low,NA,NA,NA,NA,NA,NA,NA,false
CisNqNAd,33cla8o0nlo9ukh858i8v1jgjowfr3,3a4nixbj7ac6kgc6ddurtzqhtl6mly,CisNqNAd,2020-0188,2020-05-08,01:45:17,02:03:11,NA,incomplete,7,filling,0,right,Blue_Circle_Stripes_4.jpg,Red_Plus_Chess_4.jpg,Purple_Triangle_Stripes_2.jpg,right,983.780000009574,true,low,NA,NA,NA,NA,NA,NA,NA,false
CisNqNAd,33cla8o0nlo9ukh858i8v1jgjowfr3,3a4nixbj7ac6kgc6ddurtzqhtl6mly,CisNqNAd,2020-0188,2020-05-08,01:45:17,02:03:11,NA,incomplete,8,filling,1,left,Red_Triangle_Dots_2.jpg,Blue_Star_Dots_1.jpg,Green_Circle_Chess_2.jpg,left,1111.36500001885,true,low,NA,NA,NA,NA,NA,NA,NA,false
CisNqNAd,33cla8o0nlo9ukh858i8v1jgjowfr3,3a4nixbj7ac6kgc6ddurtzqhtl6mly,CisNqNAd,2020-0188,2020-05-08,01:45:17,02:03:11,NA,incomplete,9,filling,0,right,Red_Triangle_Grid_2.jpg,Green_Circle_Chess_2.jpg,Purple_Plus_Grid_3.jpg,right,966.0750000039116,true,low,NA,NA,NA,NA,NA,NA,NA,false
CisNqNAd,33cla8o0nlo9ukh858i8v1jgjowfr3,3a4nixbj7ac6kgc6ddurtzqhtl6mly,CisNqNAd,2020-0188,2020-05-08,01:45:17,02:03:11,NA,incomplete,10,filling,1,left,Blue_Circle_Grid_4.jpg,Green_Star_Grid_2.jpg,Purple_Plus_Chess_4.jpg,left,1332.81499997247,true,low,NA,NA,NA,NA,NA,NA,NA,false
CisNqNAd,33cla8o0nlo9ukh858i8v1jgjowfr3,3a4nixbj7ac6kgc6ddurtzqhtl6mly,CisNqNAd,2020-0188,2020-05-08,01:45:17,02:03:11,NA,incomplete,11,filling,1,left,Blue_Plus_Dots_3.jpg,Red_Circle_Dots_1.jpg,Green_Star_Chess_3.jpg,left,1073.6800000304356,true,low,NA,NA,NA,NA,NA,NA,NA,false
CisNqNAd,33cla8o0nlo9ukh858i8v1jgjowfr3,3a4nixbj7ac6kgc6ddurtzqhtl6mly,CisNqNAd,2020-0188,2020-05-08,01:45:17,02:03:11,NA,incomplete,12,filling,0,right,Green_Triangle_Dots_3.jpg,Blue_Plus_Chess_3.jpg,Red_Star_Dots_1.jpg,right,1027.405000058934,true,low,NA,NA,NA,NA,NA,NA,NA,false
CisNqNAd,33cla8o0nlo9ukh858i8v1jgjowfr3,3a4nixbj7ac6kgc6ddurtzqhtl6mly,CisNqNAd,2020-0188,2020-05-08,01:45:17,02:03:11,NA,incomplete,13,filling,1,right,Purple_Plus_Chess_3.jpg,Red_Circle_Grid_3.jpg,Blue_Star_Chess_4.jpg,right,1043.8399999402463,true,low,NA,NA,NA,NA,NA,NA,NA,false
CisNqNAd,33cla8o0nlo9ukh858i8v1jgjowfr3,3a4nixbj7ac6kgc6ddurtzqhtl6mly,CisNqNAd,2020-0188,2020-05-08,01:45:17,02:03:11,NA,incomplete,14,filling,1,left,Blue_Plus_Grid_2.jpg,Red_Circle_Grid_4.jpg,Green_Star_Dots_2.jpg,left,1180.4850000189617,true,low,NA,NA,NA,NA,NA,NA,NA,false
CisNqNAd,33cla8o0nlo9ukh858i8v1jgjowfr3,3a4nixbj7ac6kgc6ddurtzqhtl6mly,CisNqNAd,2020-0188,2020-05-08,01:45:17,02:03:11,NA,incomplete,15,filling,1,left,Red_Circle_Chess_4.jpg,Green_Plus_Chess_1.jpg,Purple_Triangle_Stripes_4.jpg,left,1065.5999999726191,true,low,NA,NA,NA,NA,NA,NA,NA,false
CisNqNAd,33cla8o0nlo9ukh858i8v1jgjowfr3,3a4nixbj7ac6kgc6ddurtzqhtl6mly,CisNqNAd,2020-0188,2020-05-08,01:45:17,02:03:11,NA,incomplete,16,filling,1,left,Blue_Circle_Stripes_3.jpg,Red_Star_Stripes_2.jpg,Green_Triangle_Grid_3.jpg,right,1058.6800000164658,false,low,NA,NA,NA,NA,NA,NA,NA,false
CisNqNAd,33cla8o0nlo9ukh858i8v1jgjowfr3,3a4nixbj7ac6kgc6ddurtzqhtl6mly,CisNqNAd,2020-0188,2020-05-08,01:45:17,02:03:11,NA,incomplete,17,filling,1,left,Blue_Plus_Dots_2.jpg,Red_Circle_Dots_4.jpg,Purple_Star_Stripes_2.jpg,left,1055.6949999881908,true,low,NA,NA,NA,NA,NA,NA,NA,false
CisNqNAd,33cla8o0nlo9ukh858i8v1jgjowfr3,3a4nixbj7ac6kgc6ddurtzqhtl6mly,CisNqNAd,2020-0188,2020-05-08,01:45:17,02:03:11,NA,incomplete,18,filling,1,right,Red_Circle_Stripes_2.jpg,Green_Star_Dots_2.jpg,Purple_Triangle_Stripes_4.jpg,right,858.3550000330433,true,low,NA,NA,NA,NA,NA,NA,NA,false
CisNqNAd,33cla8o0nlo9ukh858i8v1jgjowfr3,3a4nixbj7ac6kgc6ddurtzqhtl6mly,CisNqNAd,2020-0188,2020-05-08,01:45:17,02:03:11,NA,incomplete,19,filling,1,right,Green_Star_Dots_3.jpg,Purple_Plus_Chess_3.jpg,Blue_Triangle_Dots_4.jpg,right,1013.575000106357,true,low,NA,NA,NA,NA,NA,NA,NA,false
CisNqNAd,33cla8o0nlo9ukh858i8v1jgjowfr3,3a4nixbj7ac6kgc6ddurtzqhtl6mly,CisNqNAd,2020-0188,2020-05-08,01:45:17,02:03:11,NA,incomplete,20,filling,1,left,Purple_Star_Dots_4.jpg,Green_Triangle_Dots_2.jpg,Blue_Plus_Grid_4.jpg,left,1010.0500000407919,true,low,NA,NA,NA,NA,NA,NA,NA,false
CisNqNAd,33cla8o0nlo9ukh858i8v1jgjowfr3,3a4nixbj7ac6kgc6ddurtzqhtl6mly,CisNqNAd,2020-0188,2020-05-08,01:45:17,02:03:11,NA,incomplete,21,filling,1,right,Purple_Triangle_Dots_4.jpg,Red_Star_Grid_4.jpg,Blue_Circle_Dots_3.jpg,right,908.3749999990687,true,low,NA,NA,NA,NA,NA,NA,NA,false
CisNqNAd,33cla8o0nlo9ukh858i8v1jgjowfr3,3a4nixbj7ac6kgc6ddurtzqhtl6mly,CisNqNAd,2020-0188,2020-05-08,01:45:17,02:03:11,NA,incomplete,22,filling,1,right,Purple_Circle_Grid_3.jpg,Blue_Star_Dots_3.jpg,Red_Triangle_Grid_2.jpg,right,877.5049999821931,true,low,NA,NA,NA,NA,NA,NA,NA,false
CisNqNAd,33cla8o0nlo9ukh858i8v1jgjowfr3,3a4nixbj7ac6kgc6ddurtzqhtl6mly,CisNqNAd,2020-0188,2020-05-08,01:45:17,02:03:11,NA,incomplete,23,filling,1,left,Red_Triangle_Grid_1.jpg,Purple_Star_Grid_2.jpg,Blue_Plus_Stripes_1.jpg,right,922.0900000073016,false,low,NA,NA,NA,NA,NA,NA,NA,false
CisNqNAd,33cla8o0nlo9ukh858i8v1jgjowfr3,3a4nixbj7ac6kgc6ddurtzqhtl6mly,CisNqNAd,2020-0188,2020-05-08,01:45:17,02:03:11,NA,incomplete,24,filling,1,left,Red_Star_Dots_3.jpg,Purple_Triangle_Dots_2.jpg,Green_Circle_Chess_3.jpg,left,933.2649999996647,true,low,NA,NA,NA,NA,NA,NA,NA,false
CisNqNAd,33cla8o0nlo9ukh858i8v1jgjowfr3,3a4nixbj7ac6kgc6ddurtzqhtl6mly,CisNqNAd,2020-0188,2020-05-08,01:45:17,02:03:11,NA,incomplete,25,filling,0,right,Purple_Circle_Grid_4.jpg,Red_Star_Stripes_4.jpg,Blue_Plus_Grid_1.jpg,right,998.4249999979511,true,low,NA,NA,NA,NA,NA,NA,NA,false
CisNqNAd,33cla8o0nlo9ukh858i8v1jgjowfr3,3a4nixbj7ac6kgc6ddurtzqhtl6mly,CisNqNAd,2020-0188,2020-05-08,01:45:17,02:03:11,NA,incomplete,26,filling,1,right,Red_Star_Grid_4.jpg,Green_Plus_Chess_4.jpg,Blue_Triangle_Grid_1.jpg,right,1070.3150000190362,true,low,NA,NA,NA,NA,NA,NA,NA,false
CisNqNAd,33cla8o0nlo9ukh858i8v1jgjowfr3,3a4nixbj7ac6kgc6ddurtzqhtl6mly,CisNqNAd,2020-0188,2020-05-08,01:45:17,02:03:11,NA,incomplete,27,filling,0,right,Blue_Triangle_Chess_4.jpg,Red_Circle_Dots_4.jpg,Purple_Star_Chess_3.jpg,right,873.2949999393895,true,low,NA,NA,NA,NA,NA,NA,NA,false
CisNqNAd,33cla8o0nlo9ukh858i8v1jgjowfr3,3a4nixbj7ac6kgc6ddurtzqhtl6mly,CisNqNAd,2020-0188,2020-05-08,01:45:17,02:03:11,NA,incomplete,28,filling,0,left,Purple_Star_Chess_2.jpg,Green_Plus_Chess_3.jpg,Red_Circle_Grid_2.jpg,left,883.1200000131503,true,low,NA,NA,NA,NA,NA,NA,NA,false
CisNqNAd,33cla8o0nlo9ukh858i8v1jgjowfr3,3a4nixbj7ac6kgc6ddurtzqhtl6mly,CisNqNAd,2020-0188,2020-05-08,01:45:17,02:03:11,NA,incomplete,29,filling,1,left,Green_Triangle_Dots_3.jpg,Purple_Circle_Dots_4.jpg,Red_Star_Chess_3.jpg,right,870.8449999103323,false,low,NA,NA,NA,NA,NA,NA,NA,false
CisNqNAd,33cla8o0nlo9ukh858i8v1jgjowfr3,3a4nixbj7ac6kgc6ddurtzqhtl6mly,CisNqNAd,2020-0188,2020-05-08,01:45:17,02:03:11,NA,incomplete,30,number,1,right,Green_Plus_Stripes_3.jpg,Purple_Star_Stripes_4.jpg,Blue_Triangle_Grid_3.jpg,left,958.3400000119582,false,low,NA,NA,NA,NA,NA,NA,NA,false
CisNqNAd,33cla8o0nlo9ukh858i8v1jgjowfr3,3a4nixbj7ac6kgc6ddurtzqhtl6mly,CisNqNAd,2020-0188,2020-05-08,01:45:17,02:03:11,NA,incomplete,31,number,1,right,Red_Plus_Grid_3.jpg,Blue_Circle_Grid_1.jpg,Purple_Star_Chess_3.jpg,right,821.4450000086799,true,low,NA,NA,NA,NA,NA,NA,NA,false
CisNqNAd,33cla8o0nlo9ukh858i8v1jgjowfr3,3a4nixbj7ac6kgc6ddurtzqhtl6mly,CisNqNAd,2020-0188,2020-05-08,01:45:17,02:03:11,NA,incomplete,32,number,0,right,Purple_Plus_Grid_3.jpg,Blue_Star_Grid_4.jpg,Red_Circle_Stripes_3.jpg,right,854.9350000685081,true,low,NA,NA,NA,NA,NA,NA,NA,false
CisNqNAd,33cla8o0nlo9ukh858i8v1jgjowfr3,3a4nixbj7ac6kgc6ddurtzqhtl6mly,CisNqNAd,2020-0188,2020-05-08,01:45:17,02:03:11,NA,incomplete,33,number,1,right,Purple_Triangle_Chess_1.jpg,Red_Plus_Chess_2.jpg,Green_Star_Dots_1.jpg,right,1178.7649999605492,true,low,NA,NA,NA,NA,NA,NA,NA,false
CisNqNAd,33cla8o0nlo9ukh858i8v1jgjowfr3,3a4nixbj7ac6kgc6ddurtzqhtl6mly,CisNqNAd,2020-0188,2020-05-08,01:45:17,02:03:11,NA,incomplete,34,number,1,left,Red_Triangle_Grid_4.jpg,Purple_Circle_Chess_4.jpg,Blue_Star_Grid_1.jpg,right,958.0199999036267,false,low,NA,NA,NA,NA,NA,NA,NA,false
CisNqNAd,33cla8o0nlo9ukh858i8v1jgjowfr3,3a4nixbj7ac6kgc6ddurtzqhtl6mly,CisNqNAd,2020-0188,2020-05-08,01:45:17,02:03:11,NA,incomplete,35,number,1,right,Purple_Star_Dots_3.jpg,Red_Plus_Dots_4.jpg,Green_Triangle_Grid_3.jpg,right,1288.6799999978393,true,low,NA,NA,NA,NA,NA,NA,NA,false
CisNqNAd,33cla8o0nlo9ukh858i8v1jgjowfr3,3a4nixbj7ac6kgc6ddurtzqhtl6mly,CisNqNAd,2020-0188,2020-05-08,01:45:17,02:03:11,NA,incomplete,36,number,1,left,Blue_Star_Dots_1.jpg,Green_Circle_Stripes_1.jpg,Red_Triangle_Dots_4.jpg,right,972.9600000428036,false,low,NA,NA,NA,NA,NA,NA,NA,false
CisNqNAd,33cla8o0nlo9ukh858i8v1jgjowfr3,3a4nixbj7ac6kgc6ddurtzqhtl6mly,CisNqNAd,2020-0188,2020-05-08,01:45:17,02:03:11,NA,incomplete,37,number,1,right,Green_Star_Grid_2.jpg,Purple_Plus_Grid_1.jpg,Blue_Circle_Chess_2.jpg,right,1114.8450000910088,true,low,NA,NA,NA,NA,NA,NA,NA,false
CisNqNAd,33cla8o0nlo9ukh858i8v1jgjowfr3,3a4nixbj7ac6kgc6ddurtzqhtl6mly,CisNqNAd,2020-0188,2020-05-08,01:45:17,02:03:11,NA,incomplete,38,number,1,right,Blue_Star_Stripes_4.jpg,Green_Circle_Stripes_2.jpg,Red_Triangle_Grid_4.jpg,right,835.6249999487773,true,low,NA,NA,NA,NA,NA,NA,NA,false
CisNqNAd,33cla8o0nlo9ukh858i8v1jgjowfr3,3a4nixbj7ac6kgc6ddurtzqhtl6mly,CisNqNAd,2020-0188,2020-05-08,01:45:17,02:03:11,NA,incomplete,39,number,1,right,Purple_Triangle_Stripes_3.jpg,Green_Plus_Stripes_4.jpg,Blue_Circle_Dots_3.jpg,right,799.6049999492243,true,low,NA,NA,NA,NA,NA,NA,NA,false
CisNqNAd,33cla8o0nlo9ukh858i8v1jgjowfr3,3a4nixbj7ac6kgc6ddurtzqhtl6mly,CisNqNAd,2020-0188,2020-05-08,01:45:17,02:03:11,NA,incomplete,40,number,1,left,Purple_Triangle_Chess_4.jpg,Green_Plus_Grid_4.jpg,Blue_Star_Chess_2.jpg,left,836.8000000482425,true,low,NA,NA,NA,NA,NA,NA,NA,false
CisNqNAd,33cla8o0nlo9ukh858i8v1jgjowfr3,3a4nixbj7ac6kgc6ddurtzqhtl6mly,CisNqNAd,2020-0188,2020-05-08,01:45:17,02:03:11,NA,incomplete,41,number,1,right,Red_Plus_Stripes_2.jpg,Purple_Star_Stripes_4.jpg,Blue_Circle_Grid_2.jpg,right,837.2700000181794,true,low,NA,NA,NA,NA,NA,NA,NA,false
CisNqNAd,33cla8o0nlo9ukh858i8v1jgjowfr3,3a4nixbj7ac6kgc6ddurtzqhtl6mly,CisNqNAd,2020-0188,2020-05-08,01:45:17,02:03:11,NA,incomplete,42,number,1,left,Red_Circle_Dots_2.jpg,Blue_Triangle_Grid_2.jpg,Purple_Star_Dots_4.jpg,left,791.8950000312179,true,low,NA,NA,NA,NA,NA,NA,NA,false
CisNqNAd,33cla8o0nlo9ukh858i8v1jgjowfr3,3a4nixbj7ac6kgc6ddurtzqhtl6mly,CisNqNAd,2020-0188,2020-05-08,01:45:17,02:03:11,NA,incomplete,43,number,1,left,Green_Plus_Dots_3.jpg,Red_Star_Stripes_3.jpg,Purple_Circle_Dots_2.jpg,left,845.8650000393391,true,low,NA,NA,NA,NA,NA,NA,NA,false
CisNqNAd,33cla8o0nlo9ukh858i8v1jgjowfr3,3a4nixbj7ac6kgc6ddurtzqhtl6mly,CisNqNAd,2020-0188,2020-05-08,01:45:17,02:03:11,NA,incomplete,44,number,1,right,Blue_Star_Stripes_1.jpg,Purple_Circle_Stripes_3.jpg,Green_Triangle_Chess_1.jpg,right,853.3599999500439,true,low,NA,NA,NA,NA,NA,NA,NA,false
CisNqNAd,33cla8o0nlo9ukh858i8v1jgjowfr3,3a4nixbj7ac6kgc6ddurtzqhtl6mly,CisNqNAd,2020-0188,2020-05-08,01:45:17,02:03:11,NA,incomplete,45,number,0,left,Blue_Circle_Grid_1.jpg,Red_Plus_Stripes_1.jpg,Green_Star_Grid_3.jpg,left,851.5449999831617,true,low,NA,NA,NA,NA,NA,NA,NA,false
CisNqNAd,33cla8o0nlo9ukh858i8v1jgjowfr3,3a4nixbj7ac6kgc6ddurtzqhtl6mly,CisNqNAd,2020-0188,2020-05-08,01:45:17,02:03:11,NA,incomplete,46,number,1,left,Blue_Circle_Dots_4.jpg,Red_Star_Stripes_4.jpg,Green_Triangle_Dots_1.jpg,left,682.4750000378117,true,low,NA,NA,NA,NA,NA,NA,NA,false
CisNqNAd,33cla8o0nlo9ukh858i8v1jgjowfr3,3a4nixbj7ac6kgc6ddurtzqhtl6mly,CisNqNAd,2020-0188,2020-05-08,01:45:17,02:03:11,NA,incomplete,47,number,1,left,Blue_Triangle_Dots_4.jpg,Purple_Plus_Stripes_4.jpg,Green_Circle_Dots_1.jpg,left,902.5899999542162,true,low,NA,NA,NA,NA,NA,NA,NA,false
CisNqNAd,33cla8o0nlo9ukh858i8v1jgjowfr3,3a4nixbj7ac6kgc6ddurtzqhtl6mly,CisNqNAd,2020-0188,2020-05-08,01:45:17,02:03:11,NA,incomplete,48,number,1,left,Purple_Circle_Chess_2.jpg,Blue_Star_Grid_2.jpg,Red_Plus_Chess_1.jpg,left,1012.1100000105798,true,low,NA,NA,NA,NA,NA,NA,NA,false
CisNqNAd,33cla8o0nlo9ukh858i8v1jgjowfr3,3a4nixbj7ac6kgc6ddurtzqhtl6mly,CisNqNAd,2020-0188,2020-05-08,01:45:17,02:03:11,NA,incomplete,49,number,0,right,Red_Star_Dots_2.jpg,Blue_Triangle_Dots_4.jpg,Purple_Plus_Stripes_2.jpg,right,992.9649999830872,true,low,NA,NA,NA,NA,NA,NA,NA,false
CisNqNAd,33cla8o0nlo9ukh858i8v1jgjowfr3,3a4nixbj7ac6kgc6ddurtzqhtl6mly,CisNqNAd,2020-0188,2020-05-08,01:45:17,02:03:11,NA,incomplete,50,number,1,left,Green_Triangle_Stripes_4.jpg,Blue_Plus_Dots_4.jpg,Purple_Circle_Stripes_1.jpg,left,765.140000032261,true,low,NA,NA,NA,NA,NA,NA,NA,false
CisNqNAd,33cla8o0nlo9ukh858i8v1jgjowfr3,3a4nixbj7ac6kgc6ddurtzqhtl6mly,CisNqNAd,2020-0188,2020-05-08,01:45:17,02:03:11,NA,incomplete,51,number,1,right,Purple_Circle_Stripes_4.jpg,Red_Triangle_Stripes_3.jpg,Green_Star_Grid_4.jpg,right,865.8850000938401,true,low,NA,NA,NA,NA,NA,NA,NA,false
CisNqNAd,33cla8o0nlo9ukh858i8v1jgjowfr3,3a4nixbj7ac6kgc6ddurtzqhtl6mly,CisNqNAd,2020-0188,2020-05-08,01:45:17,02:03:11,NA,incomplete,52,number,1,right,Purple_Triangle_Stripes_3.jpg,Blue_Circle_Stripes_2.jpg,Red_Plus_Dots_3.jpg,right,740.4950000345707,true,low,NA,NA,NA,NA,NA,NA,NA,false
CisNqNAd,33cla8o0nlo9ukh858i8v1jgjowfr3,3a4nixbj7ac6kgc6ddurtzqhtl6mly,CisNqNAd,2020-0188,2020-05-08,01:45:17,02:03:11,NA,incomplete,53,number,0,left,Red_Star_Stripes_3.jpg,Green_Triangle_Grid_3.jpg,Purple_Plus_Stripes_4.jpg,left,742.9499999852851,true,low,NA,NA,NA,NA,NA,NA,NA,false
CisNqNAd,33cla8o0nlo9ukh858i8v1jgjowfr3,3a4nixbj7ac6kgc6ddurtzqhtl6mly,CisNqNAd,2020-0188,2020-05-08,01:45:17,02:03:11,NA,incomplete,54,number,1,left,Purple_Plus_Stripes_1.jpg,Green_Triangle_Dots_1.jpg,Red_Circle_Stripes_4.jpg,left,737.8299999982119,true,low,NA,NA,NA,NA,NA,NA,NA,false
CisNqNAd,33cla8o0nlo9ukh858i8v1jgjowfr3,3a4nixbj7ac6kgc6ddurtzqhtl6mly,CisNqNAd,2020-0188,2020-05-08,01:45:17,02:03:11,NA,incomplete,55,number,1,left,Purple_Star_Dots_2.jpg,Green_Plus_Grid_2.jpg,Blue_Circle_Dots_4.jpg,left,738.9249999541789,true,low,NA,NA,NA,NA,NA,NA,NA,false
CisNqNAd,33cla8o0nlo9ukh858i8v1jgjowfr3,3a4nixbj7ac6kgc6ddurtzqhtl6mly,CisNqNAd,2020-0188,2020-05-08,01:45:17,02:03:11,NA,incomplete,56,number,1,right,Red_Plus_Chess_2.jpg,Green_Star_Chess_1.jpg,Purple_Triangle_Grid_2.jpg,right,684.320000000298,true,low,NA,NA,NA,NA,NA,NA,NA,false
CisNqNAd,33cla8o0nlo9ukh858i8v1jgjowfr3,3a4nixbj7ac6kgc6ddurtzqhtl6mly,CisNqNAd,2020-0188,2020-05-08,01:45:17,02:03:11,NA,incomplete,57,number,1,left,Green_Plus_Chess_3.jpg,Blue_Triangle_Stripes_3.jpg,Purple_Star_Chess_2.jpg,left,720.670000067912,true,low,NA,NA,NA,NA,NA,NA,NA,false
CisNqNAd,33cla8o0nlo9ukh858i8v1jgjowfr3,3a4nixbj7ac6kgc6ddurtzqhtl6mly,CisNqNAd,2020-0188,2020-05-08,01:45:17,02:03:11,NA,incomplete,58,number,0,right,Red_Triangle_Grid_3.jpg,Green_Star_Grid_2.jpg,Purple_Plus_Stripes_3.jpg,right,675.4400000208989,true,low,NA,NA,NA,NA,NA,NA,NA,false
CisNqNAd,33cla8o0nlo9ukh858i8v1jgjowfr3,3a4nixbj7ac6kgc6ddurtzqhtl6mly,CisNqNAd,2020-0188,2020-05-08,01:45:17,02:03:11,NA,incomplete,59,number,1,right,Purple_Triangle_Chess_3.jpg,Green_Circle_Chess_2.jpg,Blue_Star_Stripes_3.jpg,right,682.2749999118969,true,low,NA,NA,NA,NA,NA,NA,NA,false
CisNqNAd,33cla8o0nlo9ukh858i8v1jgjowfr3,3a4nixbj7ac6kgc6ddurtzqhtl6mly,CisNqNAd,2020-0188,2020-05-08,01:45:17,02:03:11,NA,incomplete,60,filling,1,left,Blue_Triangle_Stripes_2.jpg,Red_Circle_Stripes_1.jpg,Green_Plus_Dots_2.jpg,right,687.0000000344589,false,low,NA,NA,NA,NA,NA,NA,NA,false
CisNqNAd,33cla8o0nlo9ukh858i8v1jgjowfr3,3a4nixbj7ac6kgc6ddurtzqhtl6mly,CisNqNAd,2020-0188,2020-05-08,01:45:17,02:03:11,NA,incomplete,61,filling,1,left,Green_Plus_Chess_2.jpg,Blue_Circle_Chess_4.jpg,Red_Triangle_Dots_2.jpg,left,909.6549999667332,true,low,NA,NA,NA,NA,NA,NA,NA,false
CisNqNAd,33cla8o0nlo9ukh858i8v1jgjowfr3,3a4nixbj7ac6kgc6ddurtzqhtl6mly,CisNqNAd,2020-0188,2020-05-08,01:45:17,02:03:11,NA,incomplete,62,filling,1,left,Green_Circle_Stripes_1.jpg,Red_Plus_Stripes_4.jpg,Purple_Triangle_Grid_1.jpg,right,699.7599999886006,false,low,NA,NA,NA,NA,NA,NA,NA,false
CisNqNAd,33cla8o0nlo9ukh858i8v1jgjowfr3,3a4nixbj7ac6kgc6ddurtzqhtl6mly,CisNqNAd,2020-0188,2020-05-08,01:45:17,02:03:11,NA,incomplete,63,filling,1,right,Green_Triangle_Dots_1.jpg,Purple_Plus_Chess_1.jpg,Blue_Circle_Dots_2.jpg,left,962.8500000108033,false,low,NA,NA,NA,NA,NA,NA,NA,false
CisNqNAd,33cla8o0nlo9ukh858i8v1jgjowfr3,3a4nixbj7ac6kgc6ddurtzqhtl6mly,CisNqNAd,2020-0188,2020-05-08,01:45:17,02:03:11,NA,incomplete,64,filling,1,right,Blue_Circle_Grid_2.jpg,Red_Plus_Stripes_2.jpg,Green_Triangle_Grid_1.jpg,right,857.9550000140443,true,low,NA,NA,NA,NA,NA,NA,NA,false
CisNqNAd,33cla8o0nlo9ukh858i8v1jgjowfr3,3a4nixbj7ac6kgc6ddurtzqhtl6mly,CisNqNAd,2020-0188,2020-05-08,01:45:17,02:03:11,NA,incomplete,65,filling,0,left,Purple_Star_Chess_3.jpg,Red_Triangle_Chess_4.jpg,Green_Plus_Grid_3.jpg,left,911.0700000310317,true,low,NA,NA,NA,NA,NA,NA,NA,false
CisNqNAd,33cla8o0nlo9ukh858i8v1jgjowfr3,3a4nixbj7ac6kgc6ddurtzqhtl6mly,CisNqNAd,2020-0188,2020-05-08,01:45:17,02:03:11,NA,incomplete,66,filling,1,right,Purple_Triangle_Stripes_3.jpg,Blue_Star_Grid_3.jpg,Red_Circle_Stripes_4.jpg,right,886.2799999769777,true,low,NA,NA,NA,NA,NA,NA,NA,false
CisNqNAd,33cla8o0nlo9ukh858i8v1jgjowfr3,3a4nixbj7ac6kgc6ddurtzqhtl6mly,CisNqNAd,2020-0188,2020-05-08,01:45:17,02:03:11,NA,incomplete,67,filling,1,left,Green_Star_Dots_2.jpg,Purple_Circle_Dots_3.jpg,Blue_Plus_Chess_2.jpg,left,910.2049999637529,true,low,NA,NA,NA,NA,NA,NA,NA,false
CisNqNAd,33cla8o0nlo9ukh858i8v1jgjowfr3,3a4nixbj7ac6kgc6ddurtzqhtl6mly,CisNqNAd,2020-0188,2020-05-08,01:45:17,02:03:11,NA,incomplete,68,filling,1,left,Green_Plus_Stripes_1.jpg,Blue_Triangle_Stripes_2.jpg,Purple_Star_Grid_1.jpg,left,926.2899999739602,true,low,NA,NA,NA,NA,NA,NA,NA,false
CisNqNAd,33cla8o0nlo9ukh858i8v1jgjowfr3,3a4nixbj7ac6kgc6ddurtzqhtl6mly,CisNqNAd,2020-0188,2020-05-08,01:45:17,02:03:11,NA,incomplete,69,filling,1,left,Red_Star_Dots_2.jpg,Purple_Triangle_Dots_1.jpg,Green_Circle_Stripes_2.jpg,left,1014.9799999780953,true,low,NA,NA,NA,NA,NA,NA,NA,false
CisNqNAd,33cla8o0nlo9ukh858i8v1jgjowfr3,3a4nixbj7ac6kgc6ddurtzqhtl6mly,CisNqNAd,2020-0188,2020-05-08,01:45:17,02:03:11,NA,incomplete,70,filling,0,right,Purple_Circle_Chess_3.jpg,Green_Star_Stripes_3.jpg,Blue_Plus_Chess_4.jpg,right,827.6550000300631,true,low,NA,NA,NA,NA,NA,NA,NA,false
CisNqNAd,33cla8o0nlo9ukh858i8v1jgjowfr3,3a4nixbj7ac6kgc6ddurtzqhtl6mly,CisNqNAd,2020-0188,2020-05-08,01:45:17,02:03:11,NA,incomplete,71,filling,1,right,Blue_Triangle_Grid_3.jpg,Red_Star_Dots_3.jpg,Purple_Plus_Grid_1.jpg,right,857.164999935776,true,low,NA,NA,NA,NA,NA,NA,NA,false
CisNqNAd,33cla8o0nlo9ukh858i8v1jgjowfr3,3a4nixbj7ac6kgc6ddurtzqhtl6mly,CisNqNAd,2020-0188,2020-05-08,01:45:17,02:03:11,NA,incomplete,72,filling,1,right,Blue_Circle_Grid_3.jpg,Green_Star_Chess_3.jpg,Red_Triangle_Grid_1.jpg,right,826.9599999766797,true,low,NA,NA,NA,NA,NA,NA,NA,false
CisNqNAd,33cla8o0nlo9ukh858i8v1jgjowfr3,3a4nixbj7ac6kgc6ddurtzqhtl6mly,CisNqNAd,2020-0188,2020-05-08,01:45:17,02:03:11,NA,incomplete,73,filling,1,right,Purple_Plus_Dots_3.jpg,Blue_Circle_Chess_3.jpg,Red_Star_Dots_2.jpg,right,896.3549999753013,true,low,NA,NA,NA,NA,NA,NA,NA,false
CisNqNAd,33cla8o0nlo9ukh858i8v1jgjowfr3,3a4nixbj7ac6kgc6ddurtzqhtl6mly,CisNqNAd,2020-0188,2020-05-08,01:45:17,02:03:11,NA,incomplete,74,filling,0,right,Purple_Circle_Dots_1.jpg,Green_Star_Chess_1.jpg,Blue_Plus_Dots_4.jpg,right,961.1400000285357,true,low,NA,NA,NA,NA,NA,NA,NA,false
CisNqNAd,33cla8o0nlo9ukh858i8v1jgjowfr3,3a4nixbj7ac6kgc6ddurtzqhtl6mly,CisNqNAd,2020-0188,2020-05-08,01:45:17,02:03:11,NA,incomplete,75,filling,1,left,Red_Star_Dots_2.jpg,Blue_Plus_Dots_1.jpg,Purple_Circle_Chess_2.jpg,left,884.2600000789389,true,low,NA,NA,NA,NA,NA,NA,NA,false
CisNqNAd,33cla8o0nlo9ukh858i8v1jgjowfr3,3a4nixbj7ac6kgc6ddurtzqhtl6mly,CisNqNAd,2020-0188,2020-05-08,01:45:17,02:03:11,NA,incomplete,76,filling,1,right,Blue_Circle_Stripes_1.jpg,Purple_Triangle_Chess_1.jpg,Red_Plus_Stripes_3.jpg,left,969.3950000219047,false,low,NA,NA,NA,NA,NA,NA,NA,false
CisNqNAd,33cla8o0nlo9ukh858i8v1jgjowfr3,3a4nixbj7ac6kgc6ddurtzqhtl6mly,CisNqNAd,2020-0188,2020-05-08,01:45:17,02:03:11,NA,incomplete,77,filling,1,right,Purple_Star_Dots_3.jpg,Red_Plus_Grid_3.jpg,Blue_Triangle_Dots_4.jpg,right,921.4299999875948,true,low,NA,NA,NA,NA,NA,NA,NA,false
CisNqNAd,33cla8o0nlo9ukh858i8v1jgjowfr3,3a4nixbj7ac6kgc6ddurtzqhtl6mly,CisNqNAd,2020-0188,2020-05-08,01:45:17,02:03:11,NA,incomplete,78,filling,1,left,Blue_Triangle_Dots_4.jpg,Purple_Circle_Dots_1.jpg,Red_Star_Grid_4.jpg,left,995.6949999323115,true,low,NA,NA,NA,NA,NA,NA,NA,false
CisNqNAd,33cla8o0nlo9ukh858i8v1jgjowfr3,3a4nixbj7ac6kgc6ddurtzqhtl6mly,CisNqNAd,2020-0188,2020-05-08,01:45:17,02:03:11,NA,incomplete,79,filling,0,right,Red_Circle_Stripes_1.jpg,Purple_Plus_Chess_1.jpg,Green_Star_Stripes_2.jpg,right,811.0599999781698,true,low,NA,NA,NA,NA,NA,NA,NA,false
CisNqNAd,33cla8o0nlo9ukh858i8v1jgjowfr3,3a4nixbj7ac6kgc6ddurtzqhtl6mly,CisNqNAd,2020-0188,2020-05-08,01:45:17,02:03:11,NA,incomplete,80,filling,0,right,Blue_Star_Dots_3.jpg,Purple_Circle_Stripes_3.jpg,Red_Triangle_Dots_2.jpg,right,841.3400000426918,true,low,NA,NA,NA,NA,NA,NA,NA,false
CisNqNAd,33cla8o0nlo9ukh858i8v1jgjowfr3,3a4nixbj7ac6kgc6ddurtzqhtl6mly,CisNqNAd,2020-0188,2020-05-08,01:45:17,02:03:11,NA,incomplete,81,filling,1,left,Green_Plus_Dots_1.jpg,Blue_Triangle_Dots_3.jpg,Purple_Circle_Stripes_1.jpg,right,843.4099999722093,false,low,NA,NA,NA,NA,NA,NA,NA,false
CisNqNAd,33cla8o0nlo9ukh858i8v1jgjowfr3,3a4nixbj7ac6kgc6ddurtzqhtl6mly,CisNqNAd,2020-0188,2020-05-08,01:45:17,02:03:11,NA,incomplete,82,filling,1,left,Blue_Star_Chess_3.jpg,Purple_Circle_Chess_4.jpg,Red_Plus_Stripes_3.jpg,right,818.3849999913946,false,low,NA,NA,NA,NA,NA,NA,NA,false
CisNqNAd,33cla8o0nlo9ukh858i8v1jgjowfr3,3a4nixbj7ac6kgc6ddurtzqhtl6mly,CisNqNAd,2020-0188,2020-05-08,01:45:17,02:03:11,NA,incomplete,83,filling,1,right,Blue_Plus_Grid_3.jpg,Purple_Triangle_Chess_3.jpg,Red_Circle_Grid_1.jpg,left,1045.5300000030547,false,low,NA,NA,NA,NA,NA,NA,NA,false
CisNqNAd,33cla8o0nlo9ukh858i8v1jgjowfr3,3a4nixbj7ac6kgc6ddurtzqhtl6mly,CisNqNAd,2020-0188,2020-05-08,01:45:17,02:03:11,NA,incomplete,84,filling,1,right,Blue_Triangle_Dots_2.jpg,Purple_Circle_Chess_2.jpg,Red_Star_Dots_4.jpg,left,826.3349999906495,false,low,NA,NA,NA,NA,NA,NA,NA,false
CisNqNAd,33cla8o0nlo9ukh858i8v1jgjowfr3,3a4nixbj7ac6kgc6ddurtzqhtl6mly,CisNqNAd,2020-0188,2020-05-08,01:45:17,02:03:11,NA,incomplete,85,filling,1,left,Blue_Circle_Grid_4.jpg,Green_Plus_Grid_3.jpg,Purple_Star_Chess_4.jpg,left,828.9349999977276,true,low,NA,NA,NA,NA,NA,NA,NA,false
CisNqNAd,33cla8o0nlo9ukh858i8v1jgjowfr3,3a4nixbj7ac6kgc6ddurtzqhtl6mly,CisNqNAd,2020-0188,2020-05-08,01:45:17,02:03:11,NA,incomplete,86,filling,1,right,Green_Circle_Grid_2.jpg,Red_Star_Chess_2.jpg,Blue_Plus_Grid_4.jpg,right,799.4500000495464,true,low,NA,NA,NA,NA,NA,NA,NA,false
CisNqNAd,33cla8o0nlo9ukh858i8v1jgjowfr3,3a4nixbj7ac6kgc6ddurtzqhtl6mly,CisNqNAd,2020-0188,2020-05-08,01:45:17,02:03:11,NA,incomplete,87,filling,1,right,Green_Triangle_Stripes_2.jpg,Blue_Star_Grid_2.jpg,Red_Circle_Stripes_4.jpg,right,833.4099999628961,true,low,NA,NA,NA,NA,NA,NA,NA,false
CisNqNAd,33cla8o0nlo9ukh858i8v1jgjowfr3,3a4nixbj7ac6kgc6ddurtzqhtl6mly,CisNqNAd,2020-0188,2020-05-08,01:45:17,02:03:11,NA,incomplete,88,filling,1,right,Green_Circle_Grid_3.jpg,Purple_Plus_Stripes_3.jpg,Red_Triangle_Grid_1.jpg,right,812.9999999655411,true,low,NA,NA,NA,NA,NA,NA,NA,false
CisNqNAd,33cla8o0nlo9ukh858i8v1jgjowfr3,3a4nixbj7ac6kgc6ddurtzqhtl6mly,CisNqNAd,2020-0188,2020-05-08,01:45:17,02:03:11,NA,incomplete,89,filling,0,right,Purple_Star_Stripes_2.jpg,Green_Circle_Dots_2.jpg,Red_Triangle_Stripes_3.jpg,right,828.804999939166,true,low,NA,NA,NA,NA,NA,NA,NA,false
CisNqNAd,33cla8o0nlo9ukh858i8v1jgjowfr3,3a4nixbj7ac6kgc6ddurtzqhtl6mly,CisNqNAd,2020-0188,2020-05-08,01:45:17,02:03:11,NA,incomplete,90,number,1,left,Green_Plus_Chess_4.jpg,Blue_Star_Dots_4.jpg,Purple_Triangle_Chess_1.jpg,right,828.7649999838322,false,low,NA,NA,NA,NA,NA,NA,NA,false
CisNqNAd,33cla8o0nlo9ukh858i8v1jgjowfr3,3a4nixbj7ac6kgc6ddurtzqhtl6mly,CisNqNAd,2020-0188,2020-05-08,01:45:17,02:03:11,NA,incomplete,91,number,1,right,Purple_Star_Chess_2.jpg,Blue_Triangle_Chess_4.jpg,Red_Circle_Grid_2.jpg,left,851.5299999853596,false,low,NA,NA,NA,NA,NA,NA,NA,false
CisNqNAd,33cla8o0nlo9ukh858i8v1jgjowfr3,3a4nixbj7ac6kgc6ddurtzqhtl6mly,CisNqNAd,2020-0188,2020-05-08,01:45:17,02:03:11,NA,incomplete,92,number,1,right,Purple_Star_Grid_2.jpg,Green_Plus_Grid_3.jpg,Red_Triangle_Chess_2.jpg,right,863.5000000940636,true,low,NA,NA,NA,NA,NA,NA,NA,false
CisNqNAd,33cla8o0nlo9ukh858i8v1jgjowfr3,3a4nixbj7ac6kgc6ddurtzqhtl6mly,CisNqNAd,2020-0188,2020-05-08,01:45:17,02:03:11,NA,incomplete,93,number,0,right,Red_Plus_Stripes_1.jpg,Blue_Triangle_Stripes_4.jpg,Green_Star_Grid_1.jpg,right,742.8799999179319,true,low,NA,NA,NA,NA,NA,NA,NA,false
CisNqNAd,33cla8o0nlo9ukh858i8v1jgjowfr3,3a4nixbj7ac6kgc6ddurtzqhtl6mly,CisNqNAd,2020-0188,2020-05-08,01:45:17,02:03:11,NA,incomplete,94,number,1,right,Green_Triangle_Stripes_4.jpg,Purple_Circle_Stripes_3.jpg,Red_Plus_Dots_4.jpg,right,729.8599999630824,true,low,NA,NA,NA,NA,NA,NA,NA,false
CisNqNAd,33cla8o0nlo9ukh858i8v1jgjowfr3,3a4nixbj7ac6kgc6ddurtzqhtl6mly,CisNqNAd,2020-0188,2020-05-08,01:45:17,02:03:11,NA,incomplete,95,number,0,right,Purple_Star_Stripes_3.jpg,Green_Plus_Stripes_1.jpg,Blue_Circle_Chess_3.jpg,right,826.6849999781698,true,low,NA,NA,NA,NA,NA,NA,NA,false
CisNqNAd,33cla8o0nlo9ukh858i8v1jgjowfr3,3a4nixbj7ac6kgc6ddurtzqhtl6mly,CisNqNAd,2020-0188,2020-05-08,01:45:17,02:03:11,NA,incomplete,96,number,1,right,Green_Triangle_Chess_1.jpg,Blue_Circle_Chess_4.jpg,Purple_Plus_Stripes_1.jpg,right,835.1150000235066,true,low,NA,NA,NA,NA,NA,NA,NA,false
CisNqNAd,33cla8o0nlo9ukh858i8v1jgjowfr3,3a4nixbj7ac6kgc6ddurtzqhtl6mly,CisNqNAd,2020-0188,2020-05-08,01:45:17,02:03:11,NA,incomplete,97,number,1,left,Red_Circle_Grid_1.jpg,Blue_Star_Dots_1.jpg,Purple_Plus_Grid_2.jpg,left,743.1199999991804,true,low,NA,NA,NA,NA,NA,NA,NA,false
CisNqNAd,33cla8o0nlo9ukh858i8v1jgjowfr3,3a4nixbj7ac6kgc6ddurtzqhtl6mly,CisNqNAd,2020-0188,2020-05-08,01:45:17,02:03:11,NA,incomplete,98,number,1,right,Blue_Star_Dots_4.jpg,Green_Triangle_Dots_2.jpg,Purple_Plus_Chess_4.jpg,right,791.8899999931455,true,low,NA,NA,NA,NA,NA,NA,NA,false
CisNqNAd,33cla8o0nlo9ukh858i8v1jgjowfr3,3a4nixbj7ac6kgc6ddurtzqhtl6mly,CisNqNAd,2020-0188,2020-05-08,01:45:17,02:03:11,NA,incomplete,99,number,1,right,Blue_Star_Dots_3.jpg,Green_Plus_Dots_4.jpg,Purple_Triangle_Chess_3.jpg,right,752.0400000503287,true,low,NA,NA,NA,NA,NA,NA,NA,false
CisNqNAd,33cla8o0nlo9ukh858i8v1jgjowfr3,3a4nixbj7ac6kgc6ddurtzqhtl6mly,CisNqNAd,2020-0188,2020-05-08,01:45:17,02:03:11,NA,incomplete,100,number,1,left,Red_Plus_Dots_1.jpg,Purple_Circle_Stripes_1.jpg,Green_Triangle_Dots_2.jpg,left,740.8949999371544,true,low,NA,NA,NA,NA,NA,NA,NA,false
CisNqNAd,33cla8o0nlo9ukh858i8v1jgjowfr3,3a4nixbj7ac6kgc6ddurtzqhtl6mly,CisNqNAd,2020-0188,2020-05-08,01:45:17,02:03:11,NA,incomplete,101,number,1,right,Blue_Plus_Grid_3.jpg,Purple_Circle_Grid_4.jpg,Green_Triangle_Stripes_3.jpg,right,758.3200000226498,true,low,NA,NA,NA,NA,NA,NA,NA,false
CisNqNAd,33cla8o0nlo9ukh858i8v1jgjowfr3,3a4nixbj7ac6kgc6ddurtzqhtl6mly,CisNqNAd,2020-0188,2020-05-08,01:45:17,02:03:11,NA,incomplete,102,number,1,right,Green_Circle_Chess_1.jpg,Blue_Star_Chess_4.jpg,Red_Plus_Dots_1.jpg,right,644.4650000194088,true,low,NA,NA,NA,NA,NA,NA,NA,false
CisNqNAd,33cla8o0nlo9ukh858i8v1jgjowfr3,3a4nixbj7ac6kgc6ddurtzqhtl6mly,CisNqNAd,2020-0188,2020-05-08,01:45:17,02:03:11,NA,incomplete,103,number,1,left,Green_Plus_Dots_1.jpg,Red_Circle_Chess_1.jpg,Blue_Triangle_Dots_3.jpg,left,671.2650000117719,true,low,NA,NA,NA,NA,NA,NA,NA,false
CisNqNAd,33cla8o0nlo9ukh858i8v1jgjowfr3,3a4nixbj7ac6kgc6ddurtzqhtl6mly,CisNqNAd,2020-0188,2020-05-08,01:45:17,02:03:11,NA,incomplete,104,number,1,left,Blue_Circle_Chess_1.jpg,Green_Triangle_Grid_1.jpg,Red_Star_Chess_4.jpg,left,588.8249999843538,true,low,NA,NA,NA,NA,NA,NA,NA,false
CisNqNAd,33cla8o0nlo9ukh858i8v1jgjowfr3,3a4nixbj7ac6kgc6ddurtzqhtl6mly,CisNqNAd,2020-0188,2020-05-08,01:45:17,02:03:11,NA,incomplete,105,number,1,left,Red_Circle_Stripes_1.jpg,Blue_Plus_Grid_1.jpg,Green_Star_Stripes_2.jpg,left,810.2950000902638,true,low,NA,NA,NA,NA,NA,NA,NA,false
CisNqNAd,33cla8o0nlo9ukh858i8v1jgjowfr3,3a4nixbj7ac6kgc6ddurtzqhtl6mly,CisNqNAd,2020-0188,2020-05-08,01:45:17,02:03:11,NA,incomplete,106,number,1,right,Purple_Triangle_Grid_4.jpg,Blue_Circle_Grid_3.jpg,Green_Star_Chess_4.jpg,right,935.1449999958277,true,low,NA,NA,NA,NA,NA,NA,NA,false
CisNqNAd,33cla8o0nlo9ukh858i8v1jgjowfr3,3a4nixbj7ac6kgc6ddurtzqhtl6mly,CisNqNAd,2020-0188,2020-05-08,01:45:17,02:03:11,NA,incomplete,107,number,1,left,Purple_Plus_Grid_3.jpg,Red_Circle_Chess_3.jpg,Blue_Star_Grid_2.jpg,left,908.5399999748915,true,low,NA,NA,NA,NA,NA,NA,NA,false
CisNqNAd,33cla8o0nlo9ukh858i8v1jgjowfr3,3a4nixbj7ac6kgc6ddurtzqhtl6mly,CisNqNAd,2020-0188,2020-05-08,01:45:17,02:03:11,NA,incomplete,108,number,1,left,Blue_Triangle_Grid_3.jpg,Green_Star_Dots_3.jpg,Purple_Plus_Grid_4.jpg,left,772.690000012517,true,low,NA,NA,NA,NA,NA,NA,NA,false
CisNqNAd,33cla8o0nlo9ukh858i8v1jgjowfr3,3a4nixbj7ac6kgc6ddurtzqhtl6mly,CisNqNAd,2020-0188,2020-05-08,01:45:17,02:03:11,NA,incomplete,109,number,1,right,Purple_Plus_Dots_2.jpg,Green_Circle_Dots_1.jpg,Blue_Triangle_Chess_2.jpg,right,779.8049999400973,true,low,NA,NA,NA,NA,NA,NA,NA,false
CisNqNAd,33cla8o0nlo9ukh858i8v1jgjowfr3,3a4nixbj7ac6kgc6ddurtzqhtl6mly,CisNqNAd,2020-0188,2020-05-08,01:45:17,02:03:11,NA,incomplete,110,number,0,left,Purple_Star_Dots_4.jpg,Red_Triangle_Chess_4.jpg,Green_Circle_Dots_3.jpg,left,727.6600000914186,true,low,NA,NA,NA,NA,NA,NA,NA,false
CisNqNAd,33cla8o0nlo9ukh858i8v1jgjowfr3,3a4nixbj7ac6kgc6ddurtzqhtl6mly,CisNqNAd,2020-0188,2020-05-08,01:45:17,02:03:11,NA,incomplete,111,number,0,right,Green_Triangle_Stripes_4.jpg,Blue_Circle_Stripes_2.jpg,Purple_Star_Grid_4.jpg,right,644.8500000406057,true,low,NA,NA,NA,NA,NA,NA,NA,false
CisNqNAd,33cla8o0nlo9ukh858i8v1jgjowfr3,3a4nixbj7ac6kgc6ddurtzqhtl6mly,CisNqNAd,2020-0188,2020-05-08,01:45:17,02:03:11,NA,incomplete,112,number,1,left,Red_Triangle_Grid_3.jpg,Purple_Circle_Stripes_3.jpg,Blue_Star_Grid_2.jpg,left,776.3300000224262,true,low,NA,NA,NA,NA,NA,NA,NA,false
CisNqNAd,33cla8o0nlo9ukh858i8v1jgjowfr3,3a4nixbj7ac6kgc6ddurtzqhtl6mly,CisNqNAd,2020-0188,2020-05-08,01:45:17,02:03:11,NA,incomplete,113,number,1,right,Green_Circle_Stripes_1.jpg,Purple_Star_Stripes_4.jpg,Red_Plus_Chess_1.jpg,right,625.3900000592694,true,low,NA,NA,NA,NA,NA,NA,NA,false
CisNqNAd,33cla8o0nlo9ukh858i8v1jgjowfr3,3a4nixbj7ac6kgc6ddurtzqhtl6mly,CisNqNAd,2020-0188,2020-05-08,01:45:17,02:03:11,NA,incomplete,114,number,0,right,Red_Triangle_Grid_1.jpg,Green_Star_Grid_2.jpg,Purple_Circle_Stripes_1.jpg,right,649.6400000760332,true,low,NA,NA,NA,NA,NA,NA,NA,false
CisNqNAd,33cla8o0nlo9ukh858i8v1jgjowfr3,3a4nixbj7ac6kgc6ddurtzqhtl6mly,CisNqNAd,2020-0188,2020-05-08,01:45:17,02:03:11,NA,incomplete,115,number,1,right,Red_Circle_Grid_4.jpg,Green_Triangle_Grid_2.jpg,Blue_Plus_Dots_4.jpg,left,850.7449999451637,false,low,NA,NA,NA,NA,NA,NA,NA,false
CisNqNAd,33cla8o0nlo9ukh858i8v1jgjowfr3,3a4nixbj7ac6kgc6ddurtzqhtl6mly,CisNqNAd,2020-0188,2020-05-08,01:45:17,02:03:11,NA,incomplete,116,number,0,left,Red_Circle_Grid_4.jpg,Blue_Star_Stripes_4.jpg,Green_Triangle_Grid_2.jpg,left,699.8299999395385,true,low,NA,NA,NA,NA,NA,NA,NA,false
CisNqNAd,33cla8o0nlo9ukh858i8v1jgjowfr3,3a4nixbj7ac6kgc6ddurtzqhtl6mly,CisNqNAd,2020-0188,2020-05-08,01:45:17,02:03:11,NA,incomplete,117,number,1,left,Blue_Circle_Chess_3.jpg,Purple_Star_Dots_3.jpg,Red_Triangle_Chess_2.jpg,right,778.8050000090152,false,low,NA,NA,NA,NA,NA,NA,NA,false
CisNqNAd,33cla8o0nlo9ukh858i8v1jgjowfr3,3a4nixbj7ac6kgc6ddurtzqhtl6mly,CisNqNAd,2020-0188,2020-05-08,01:45:17,02:03:11,NA,incomplete,118,number,1,left,Red_Plus_Chess_4.jpg,Green_Triangle_Dots_4.jpg,Blue_Circle_Chess_2.jpg,right,732.6550000580028,false,low,NA,NA,NA,NA,NA,NA,NA,false
CisNqNAd,33cla8o0nlo9ukh858i8v1jgjowfr3,3a4nixbj7ac6kgc6ddurtzqhtl6mly,CisNqNAd,2020-0188,2020-05-08,01:45:17,02:03:11,NA,incomplete,119,number,1,right,Purple_Plus_Grid_2.jpg,Blue_Star_Grid_4.jpg,Green_Circle_Dots_2.jpg,left,927.6499999687076,false,low,NA,NA,NA,NA,NA,NA,NA,false
CisNqNAd,33cla8o0nlo9ukh858i8v1jgjowfr3,3a4nixbj7ac6kgc6ddurtzqhtl6mly,CisNqNAd,2020-0188,2020-05-08,01:45:17,02:03:11,NA,incomplete,120,filling,1,right,Blue_Plus_Dots_4.jpg,Purple_Star_Chess_4.jpg,Red_Triangle_Dots_2.jpg,left,633.8549999054521,false,low,NA,NA,NA,NA,NA,NA,NA,false
CisNqNAd,33cla8o0nlo9ukh858i8v1jgjowfr3,3a4nixbj7ac6kgc6ddurtzqhtl6mly,CisNqNAd,2020-0188,2020-05-08,01:45:17,02:03:11,NA,incomplete,121,filling,1,left,Blue_Star_Grid_4.jpg,Green_Triangle_Grid_1.jpg,Red_Circle_Chess_4.jpg,left,849.4049999862909,true,low,NA,NA,NA,NA,NA,NA,NA,false
CisNqNAd,33cla8o0nlo9ukh858i8v1jgjowfr3,3a4nixbj7ac6kgc6ddurtzqhtl6mly,CisNqNAd,2020-0188,2020-05-08,01:45:17,02:03:11,NA,incomplete,122,filling,0,right,Red_Star_Grid_2.jpg,Green_Plus_Dots_2.jpg,Blue_Triangle_Grid_4.jpg,right,781.3049999531358,true,low,NA,NA,NA,NA,NA,NA,NA,false
CisNqNAd,33cla8o0nlo9ukh858i8v1jgjowfr3,3a4nixbj7ac6kgc6ddurtzqhtl6mly,CisNqNAd,2020-0188,2020-05-08,01:45:17,02:03:11,NA,incomplete,123,filling,1,left,Green_Circle_Stripes_3.jpg,Purple_Triangle_Stripes_1.jpg,Blue_Plus_Dots_3.jpg,left,888.9849999686703,true,low,NA,NA,NA,NA,NA,NA,NA,false
CisNqNAd,33cla8o0nlo9ukh858i8v1jgjowfr3,3a4nixbj7ac6kgc6ddurtzqhtl6mly,CisNqNAd,2020-0188,2020-05-08,01:45:17,02:03:11,NA,incomplete,124,filling,1,left,Red_Plus_Chess_4.jpg,Purple_Star_Chess_2.jpg,Green_Circle_Stripes_4.jpg,left,916.1399999866262,true,low,NA,NA,NA,NA,NA,NA,NA,false
CisNqNAd,33cla8o0nlo9ukh858i8v1jgjowfr3,3a4nixbj7ac6kgc6ddurtzqhtl6mly,CisNqNAd,2020-0188,2020-05-08,01:45:17,02:03:11,NA,incomplete,125,filling,0,left,Blue_Triangle_Stripes_3.jpg,Purple_Plus_Stripes_4.jpg,Red_Star_Grid_3.jpg,left,1221.47000010591,true,low,NA,NA,NA,NA,NA,NA,NA,false
CisNqNAd,33cla8o0nlo9ukh858i8v1jgjowfr3,3a4nixbj7ac6kgc6ddurtzqhtl6mly,CisNqNAd,2020-0188,2020-05-08,01:45:17,02:03:11,NA,incomplete,126,filling,1,right,Green_Star_Dots_3.jpg,Purple_Circle_Stripes_3.jpg,Red_Plus_Dots_1.jpg,right,977.820000029169,true,low,NA,NA,NA,NA,NA,NA,NA,false
CisNqNAd,33cla8o0nlo9ukh858i8v1jgjowfr3,3a4nixbj7ac6kgc6ddurtzqhtl6mly,CisNqNAd,2020-0188,2020-05-08,01:45:17,02:03:11,NA,incomplete,127,filling,1,right,Red_Star_Grid_3.jpg,Blue_Plus_Stripes_3.jpg,Green_Circle_Grid_4.jpg,right,942.7199999336153,true,low,NA,NA,NA,NA,NA,NA,NA,false
CisNqNAd,33cla8o0nlo9ukh858i8v1jgjowfr3,3a4nixbj7ac6kgc6ddurtzqhtl6mly,CisNqNAd,2020-0188,2020-05-08,01:45:17,02:03:11,NA,incomplete,128,filling,0,left,Purple_Star_Dots_1.jpg,Red_Circle_Dots_3.jpg,Green_Plus_Stripes_1.jpg,left,899.5800000848249,true,low,NA,NA,NA,NA,NA,NA,NA,false
CisNqNAd,33cla8o0nlo9ukh858i8v1jgjowfr3,3a4nixbj7ac6kgc6ddurtzqhtl6mly,CisNqNAd,2020-0188,2020-05-08,01:45:17,02:03:11,NA,incomplete,129,filling,1,left,Blue_Plus_Chess_1.jpg,Green_Triangle_Chess_3.jpg,Purple_Circle_Dots_1.jpg,left,952.8050000080839,true,low,NA,NA,NA,NA,NA,NA,NA,false
CisNqNAd,33cla8o0nlo9ukh858i8v1jgjowfr3,3a4nixbj7ac6kgc6ddurtzqhtl6mly,CisNqNAd,2020-0188,2020-05-08,01:45:17,02:03:11,NA,incomplete,130,filling,0,left,Red_Star_Stripes_4.jpg,Blue_Circle_Stripes_3.jpg,Green_Plus_Chess_4.jpg,right,1030.9350000461563,false,low,NA,NA,NA,NA,NA,NA,NA,false
CisNqNAd,33cla8o0nlo9ukh858i8v1jgjowfr3,3a4nixbj7ac6kgc6ddurtzqhtl6mly,CisNqNAd,2020-0188,2020-05-08,01:45:17,02:03:11,NA,incomplete,131,filling,1,right,Green_Circle_Chess_1.jpg,Red_Plus_Dots_1.jpg,Blue_Star_Chess_4.jpg,right,795.7250000908971,true,low,NA,NA,NA,NA,NA,NA,NA,false
CisNqNAd,33cla8o0nlo9ukh858i8v1jgjowfr3,3a4nixbj7ac6kgc6ddurtzqhtl6mly,CisNqNAd,2020-0188,2020-05-08,01:45:17,02:03:11,NA,incomplete,132,filling,1,left,Green_Star_Stripes_2.jpg,Red_Plus_Stripes_4.jpg,Purple_Triangle_Grid_2.jpg,left,954.204999958165,true,low,NA,NA,NA,NA,NA,NA,NA,false
CisNqNAd,33cla8o0nlo9ukh858i8v1jgjowfr3,3a4nixbj7ac6kgc6ddurtzqhtl6mly,CisNqNAd,2020-0188,2020-05-08,01:45:17,02:03:11,NA,incomplete,133,filling,0,left,Green_Triangle_Chess_4.jpg,Purple_Star_Chess_1.jpg,Blue_Circle_Grid_4.jpg,left,831.8399999989197,true,low,NA,NA,NA,NA,NA,NA,NA,false
CisNqNAd,33cla8o0nlo9ukh858i8v1jgjowfr3,3a4nixbj7ac6kgc6ddurtzqhtl6mly,CisNqNAd,2020-0188,2020-05-08,01:45:17,02:03:11,NA,incomplete,134,filling,1,right,Red_Triangle_Stripes_1.jpg,Purple_Plus_Dots_1.jpg,Green_Circle_Stripes_2.jpg,right,739.5799999358132,true,low,NA,NA,NA,NA,NA,NA,NA,false
CisNqNAd,33cla8o0nlo9ukh858i8v1jgjowfr3,3a4nixbj7ac6kgc6ddurtzqhtl6mly,CisNqNAd,2020-0188,2020-05-08,01:45:17,02:03:11,NA,incomplete,135,filling,1,left,Blue_Triangle_Grid_4.jpg,Green_Plus_Grid_2.jpg,Red_Circle_Chess_4.jpg,left,772.2450000001118,true,low,NA,NA,NA,NA,NA,NA,NA,false
CisNqNAd,33cla8o0nlo9ukh858i8v1jgjowfr3,3a4nixbj7ac6kgc6ddurtzqhtl6mly,CisNqNAd,2020-0188,2020-05-08,01:45:17,02:03:11,NA,incomplete,136,filling,1,left,Green_Circle_Stripes_1.jpg,Purple_Star_Stripes_2.jpg,Red_Plus_Dots_1.jpg,left,909.0150000993162,true,low,NA,NA,NA,NA,NA,NA,NA,false
CisNqNAd,33cla8o0nlo9ukh858i8v1jgjowfr3,3a4nixbj7ac6kgc6ddurtzqhtl6mly,CisNqNAd,2020-0188,2020-05-08,01:45:17,02:03:11,NA,incomplete,137,filling,1,left,Green_Plus_Chess_4.jpg,Purple_Circle_Chess_1.jpg,Red_Star_Stripes_4.jpg,left,863.344999961555,true,low,NA,NA,NA,NA,NA,NA,NA,false
CisNqNAd,33cla8o0nlo9ukh858i8v1jgjowfr3,3a4nixbj7ac6kgc6ddurtzqhtl6mly,CisNqNAd,2020-0188,2020-05-08,01:45:17,02:03:11,NA,incomplete,138,filling,0,right,Purple_Star_Dots_3.jpg,Green_Plus_Grid_3.jpg,Red_Triangle_Dots_1.jpg,right,856.2600000295788,true,low,NA,NA,NA,NA,NA,NA,NA,false
CisNqNAd,33cla8o0nlo9ukh858i8v1jgjowfr3,3a4nixbj7ac6kgc6ddurtzqhtl6mly,CisNqNAd,2020-0188,2020-05-08,01:45:17,02:03:11,NA,incomplete,139,filling,1,right,Green_Star_Grid_2.jpg,Red_Circle_Dots_2.jpg,Blue_Triangle_Grid_3.jpg,right,771.9100000103936,true,low,NA,NA,NA,NA,NA,NA,NA,false
CisNqNAd,33cla8o0nlo9ukh858i8v1jgjowfr3,3a4nixbj7ac6kgc6ddurtzqhtl6mly,CisNqNAd,2020-0188,2020-05-08,01:45:17,02:03:11,NA,incomplete,140,number,1,left,Green_Star_Dots_1.jpg,Purple_Circle_Grid_1.jpg,Blue_Plus_Dots_4.jpg,left,763.1050000200048,true,low,NA,NA,NA,NA,NA,NA,NA,false
CisNqNAd,33cla8o0nlo9ukh858i8v1jgjowfr3,3a4nixbj7ac6kgc6ddurtzqhtl6mly,CisNqNAd,2020-0188,2020-05-08,01:45:17,02:03:11,NA,incomplete,141,number,1,right,Purple_Plus_Grid_1.jpg,Red_Triangle_Grid_2.jpg,Blue_Star_Chess_1.jpg,left,831.705000018701,false,low,NA,NA,NA,NA,NA,NA,NA,false
CisNqNAd,33cla8o0nlo9ukh858i8v1jgjowfr3,3a4nixbj7ac6kgc6ddurtzqhtl6mly,CisNqNAd,2020-0188,2020-05-08,01:45:17,02:03:11,NA,incomplete,142,number,1,right,Green_Circle_Stripes_2.jpg,Purple_Triangle_Stripes_3.jpg,Blue_Plus_Dots_2.jpg,left,838.5299999499694,false,low,NA,NA,NA,NA,NA,NA,NA,false
CisNqNAd,33cla8o0nlo9ukh858i8v1jgjowfr3,3a4nixbj7ac6kgc6ddurtzqhtl6mly,CisNqNAd,2020-0188,2020-05-08,01:45:17,02:03:11,NA,incomplete,143,number,1,right,Purple_Star_Dots_4.jpg,Red_Triangle_Dots_3.jpg,Blue_Plus_Grid_4.jpg,right,702.8500000014901,true,low,NA,NA,NA,NA,NA,NA,NA,false
CisNqNAd,33cla8o0nlo9ukh858i8v1jgjowfr3,3a4nixbj7ac6kgc6ddurtzqhtl6mly,CisNqNAd,2020-0188,2020-05-08,01:45:17,02:03:11,NA,incomplete,144,number,1,left,Green_Plus_Grid_3.jpg,Red_Triangle_Stripes_3.jpg,Blue_Star_Grid_1.jpg,left,620.03500002902,true,low,NA,NA,NA,NA,NA,NA,NA,false
CisNqNAd,33cla8o0nlo9ukh858i8v1jgjowfr3,3a4nixbj7ac6kgc6ddurtzqhtl6mly,CisNqNAd,2020-0188,2020-05-08,01:45:17,02:03:11,NA,incomplete,145,number,1,left,Blue_Triangle_Grid_2.jpg,Green_Plus_Dots_2.jpg,Purple_Star_Grid_3.jpg,left,801.2400000588968,true,low,NA,NA,NA,NA,NA,NA,NA,false
CisNqNAd,33cla8o0nlo9ukh858i8v1jgjowfr3,3a4nixbj7ac6kgc6ddurtzqhtl6mly,CisNqNAd,2020-0188,2020-05-08,01:45:17,02:03:11,NA,incomplete,146,number,1,right,Purple_Star_Grid_2.jpg,Red_Circle_Grid_1.jpg,Blue_Plus_Chess_2.jpg,right,708.6700000800192,true,low,NA,NA,NA,NA,NA,NA,NA,false
CisNqNAd,33cla8o0nlo9ukh858i8v1jgjowfr3,3a4nixbj7ac6kgc6ddurtzqhtl6mly,CisNqNAd,2020-0188,2020-05-08,01:45:17,02:03:11,NA,incomplete,147,number,1,left,Blue_Triangle_Dots_1.jpg,Green_Circle_Grid_1.jpg,Purple_Star_Dots_4.jpg,left,801.1199999600649,true,low,NA,NA,NA,NA,NA,NA,NA,false
CisNqNAd,33cla8o0nlo9ukh858i8v1jgjowfr3,3a4nixbj7ac6kgc6ddurtzqhtl6mly,CisNqNAd,2020-0188,2020-05-08,01:45:17,02:03:11,NA,incomplete,148,number,1,right,Purple_Plus_Stripes_3.jpg,Blue_Circle_Stripes_4.jpg,Green_Star_Grid_3.jpg,right,800.3299999982119,true,low,NA,NA,NA,NA,NA,NA,NA,false
CisNqNAd,33cla8o0nlo9ukh858i8v1jgjowfr3,3a4nixbj7ac6kgc6ddurtzqhtl6mly,CisNqNAd,2020-0188,2020-05-08,01:45:17,02:03:11,NA,incomplete,149,number,1,left,Green_Plus_Stripes_2.jpg,Purple_Triangle_Dots_2.jpg,Red_Star_Stripes_3.jpg,left,743.7749999808148,true,low,NA,NA,NA,NA,NA,NA,NA,false
CisNqNAd,33cla8o0nlo9ukh858i8v1jgjowfr3,3a4nixbj7ac6kgc6ddurtzqhtl6mly,CisNqNAd,2020-0188,2020-05-08,01:45:17,02:03:11,NA,incomplete,150,number,1,right,Red_Circle_Chess_3.jpg,Green_Triangle_Chess_4.jpg,Purple_Star_Dots_3.jpg,right,823.8950000377372,true,low,NA,NA,NA,NA,NA,NA,NA,false
CisNqNAd,33cla8o0nlo9ukh858i8v1jgjowfr3,3a4nixbj7ac6kgc6ddurtzqhtl6mly,CisNqNAd,2020-0188,2020-05-08,01:45:17,02:03:11,NA,incomplete,151,number,0,left,Red_Triangle_Chess_4.jpg,Green_Circle_Stripes_4.jpg,Purple_Star_Chess_3.jpg,left,776.0450000641868,true,low,NA,NA,NA,NA,NA,NA,NA,false
CisNqNAd,33cla8o0nlo9ukh858i8v1jgjowfr3,3a4nixbj7ac6kgc6ddurtzqhtl6mly,CisNqNAd,2020-0188,2020-05-08,01:45:17,02:03:11,NA,incomplete,152,number,1,left,Red_Plus_Stripes_4.jpg,Purple_Triangle_Chess_4.jpg,Green_Star_Stripes_3.jpg,left,823.0999999213964,true,low,NA,NA,NA,NA,NA,NA,NA,false
CisNqNAd,33cla8o0nlo9ukh858i8v1jgjowfr3,3a4nixbj7ac6kgc6ddurtzqhtl6mly,CisNqNAd,2020-0188,2020-05-08,01:45:17,02:03:11,NA,incomplete,153,number,1,left,Red_Plus_Grid_3.jpg,Green_Triangle_Chess_3.jpg,Blue_Circle_Grid_2.jpg,left,704.5299999881536,true,low,NA,NA,NA,NA,NA,NA,NA,false
CisNqNAd,33cla8o0nlo9ukh858i8v1jgjowfr3,3a4nixbj7ac6kgc6ddurtzqhtl6mly,CisNqNAd,2020-0188,2020-05-08,01:45:17,02:03:11,NA,incomplete,154,number,1,right,Red_Circle_Chess_4.jpg,Blue_Triangle_Chess_3.jpg,Purple_Plus_Dots_4.jpg,right,715.5400000046939,true,low,NA,NA,NA,NA,NA,NA,NA,false
CisNqNAd,33cla8o0nlo9ukh858i8v1jgjowfr3,3a4nixbj7ac6kgc6ddurtzqhtl6mly,CisNqNAd,2020-0188,2020-05-08,01:45:17,02:03:11,NA,incomplete,155,number,1,right,Green_Triangle_Dots_1.jpg,Blue_Circle_Dots_2.jpg,Red_Star_Stripes_1.jpg,right,670.3049999196082,true,low,NA,NA,NA,NA,NA,NA,NA,false
CisNqNAd,33cla8o0nlo9ukh858i8v1jgjowfr3,3a4nixbj7ac6kgc6ddurtzqhtl6mly,CisNqNAd,2020-0188,2020-05-08,01:45:17,02:03:11,NA,incomplete,156,number,1,right,Red_Star_Stripes_3.jpg,Purple_Circle_Stripes_4.jpg,Green_Plus_Chess_3.jpg,right,660.6250000186265,true,low,NA,NA,NA,NA,NA,NA,NA,false
CisNqNAd,33cla8o0nlo9ukh858i8v1jgjowfr3,3a4nixbj7ac6kgc6ddurtzqhtl6mly,CisNqNAd,2020-0188,2020-05-08,01:45:17,02:03:11,NA,incomplete,157,number,1,left,Blue_Star_Stripes_4.jpg,Red_Plus_Chess_4.jpg,Purple_Triangle_Stripes_3.jpg,left,921.3799999561161,true,low,NA,NA,NA,NA,NA,NA,NA,false
CisNqNAd,33cla8o0nlo9ukh858i8v1jgjowfr3,3a4nixbj7ac6kgc6ddurtzqhtl6mly,CisNqNAd,2020-0188,2020-05-08,01:45:17,02:03:11,NA,incomplete,158,number,1,right,Blue_Circle_Grid_2.jpg,Green_Triangle_Grid_4.jpg,Purple_Star_Chess_2.jpg,right,900.1500000013039,true,low,NA,NA,NA,NA,NA,NA,NA,false
CisNqNAd,33cla8o0nlo9ukh858i8v1jgjowfr3,3a4nixbj7ac6kgc6ddurtzqhtl6mly,CisNqNAd,2020-0188,2020-05-08,01:45:17,02:03:11,NA,incomplete,159,number,1,left,Blue_Circle_Grid_4.jpg,Green_Triangle_Dots_4.jpg,Purple_Star_Grid_2.jpg,left,865.6349999364465,true,low,NA,NA,NA,NA,NA,NA,NA,false
CisNqNAd,33cla8o0nlo9ukh858i8v1jgjowfr3,3a4nixbj7ac6kgc6ddurtzqhtl6mly,CisNqNAd,2020-0188,2020-05-08,01:45:17,02:03:11,NA,incomplete,160,filling,1,right,Purple_Plus_Chess_3.jpg,Red_Triangle_Dots_3.jpg,Green_Star_Chess_1.jpg,left,753.7299999967217,false,low,NA,NA,NA,NA,NA,NA,NA,false
CisNqNAd,33cla8o0nlo9ukh858i8v1jgjowfr3,3a4nixbj7ac6kgc6ddurtzqhtl6mly,CisNqNAd,2020-0188,2020-05-08,01:45:17,02:03:11,NA,incomplete,161,filling,1,left,Green_Circle_Grid_2.jpg,Purple_Plus_Grid_3.jpg,Red_Star_Dots_2.jpg,right,767.6750000100583,false,low,NA,NA,NA,NA,NA,NA,NA,false
CisNqNAd,33cla8o0nlo9ukh858i8v1jgjowfr3,3a4nixbj7ac6kgc6ddurtzqhtl6mly,CisNqNAd,2020-0188,2020-05-08,01:45:17,02:03:11,NA,incomplete,162,filling,1,left,Red_Circle_Grid_1.jpg,Blue_Triangle_Grid_3.jpg,Purple_Plus_Stripes_1.jpg,right,602.8449999867007,false,low,NA,NA,NA,NA,NA,NA,NA,false
CisNqNAd,33cla8o0nlo9ukh858i8v1jgjowfr3,3a4nixbj7ac6kgc6ddurtzqhtl6mly,CisNqNAd,2020-0188,2020-05-08,01:45:17,02:03:11,NA,incomplete,163,filling,1,left,Purple_Plus_Dots_4.jpg,Blue_Triangle_Dots_1.jpg,Green_Circle_Stripes_4.jpg,left,848.424999974668,true,low,NA,NA,NA,NA,NA,NA,NA,false
CisNqNAd,33cla8o0nlo9ukh858i8v1jgjowfr3,3a4nixbj7ac6kgc6ddurtzqhtl6mly,CisNqNAd,2020-0188,2020-05-08,01:45:17,02:03:11,NA,incomplete,164,filling,0,right,Red_Star_Stripes_4.jpg,Green_Plus_Dots_4.jpg,Blue_Circle_Stripes_1.jpg,right,843.7899999553338,true,low,NA,NA,NA,NA,NA,NA,NA,false
CisNqNAd,33cla8o0nlo9ukh858i8v1jgjowfr3,3a4nixbj7ac6kgc6ddurtzqhtl6mly,CisNqNAd,2020-0188,2020-05-08,01:45:17,02:03:11,NA,incomplete,165,filling,1,right,Green_Triangle_Chess_1.jpg,Red_Circle_Stripes_1.jpg,Purple_Star_Chess_3.jpg,right,922.6349999662489,true,low,NA,NA,NA,NA,NA,NA,NA,false
CisNqNAd,33cla8o0nlo9ukh858i8v1jgjowfr3,3a4nixbj7ac6kgc6ddurtzqhtl6mly,CisNqNAd,2020-0188,2020-05-08,01:45:17,02:03:11,NA,incomplete,166,filling,1,right,Purple_Plus_Stripes_1.jpg,Red_Star_Grid_1.jpg,Blue_Triangle_Stripes_3.jpg,right,771.984999999404,true,low,NA,NA,NA,NA,NA,NA,NA,false
CisNqNAd,33cla8o0nlo9ukh858i8v1jgjowfr3,3a4nixbj7ac6kgc6ddurtzqhtl6mly,CisNqNAd,2020-0188,2020-05-08,01:45:17,02:03:11,NA,incomplete,167,filling,1,right,Blue_Plus_Grid_1.jpg,Purple_Circle_Stripes_1.jpg,Green_Triangle_Grid_4.jpg,right,747.7299999445677,true,low,NA,NA,NA,NA,NA,NA,NA,false
CisNqNAd,33cla8o0nlo9ukh858i8v1jgjowfr3,3a4nixbj7ac6kgc6ddurtzqhtl6mly,CisNqNAd,2020-0188,2020-05-08,01:45:17,02:03:11,NA,incomplete,168,filling,1,right,Green_Triangle_Grid_2.jpg,Purple_Circle_Chess_2.jpg,Red_Plus_Grid_4.jpg,right,809.9749999819323,true,low,NA,NA,NA,NA,NA,NA,NA,false
CisNqNAd,33cla8o0nlo9ukh858i8v1jgjowfr3,3a4nixbj7ac6kgc6ddurtzqhtl6mly,CisNqNAd,2020-0188,2020-05-08,01:45:17,02:03:11,NA,incomplete,169,filling,0,left,Green_Plus_Dots_4.jpg,Red_Circle_Dots_3.jpg,Purple_Star_Chess_4.jpg,left,882.9149999655783,true,low,NA,NA,NA,NA,NA,NA,NA,false
CisNqNAd,33cla8o0nlo9ukh858i8v1jgjowfr3,3a4nixbj7ac6kgc6ddurtzqhtl6mly,CisNqNAd,2020-0188,2020-05-08,01:45:17,02:03:11,NA,incomplete,170,filling,1,left,Green_Circle_Grid_1.jpg,Blue_Triangle_Grid_4.jpg,Red_Star_Chess_1.jpg,left,838.7499999953434,true,low,NA,NA,NA,NA,NA,NA,NA,false
CisNqNAd,33cla8o0nlo9ukh858i8v1jgjowfr3,3a4nixbj7ac6kgc6ddurtzqhtl6mly,CisNqNAd,2020-0188,2020-05-08,01:45:17,02:03:11,NA,incomplete,171,filling,1,right,Purple_Star_Grid_4.jpg,Red_Triangle_Dots_4.jpg,Green_Plus_Grid_2.jpg,right,819.9599999934435,true,low,NA,NA,NA,NA,NA,NA,NA,false
CisNqNAd,33cla8o0nlo9ukh858i8v1jgjowfr3,3a4nixbj7ac6kgc6ddurtzqhtl6mly,CisNqNAd,2020-0188,2020-05-08,01:45:17,02:03:11,NA,incomplete,172,filling,1,right,Green_Triangle_Grid_2.jpg,Blue_Plus_Dots_2.jpg,Red_Circle_Grid_1.jpg,right,852.5549999903888,true,low,NA,NA,NA,NA,NA,NA,NA,false
CisNqNAd,33cla8o0nlo9ukh858i8v1jgjowfr3,3a4nixbj7ac6kgc6ddurtzqhtl6mly,CisNqNAd,2020-0188,2020-05-08,01:45:17,02:03:11,NA,incomplete,173,filling,1,right,Purple_Circle_Dots_1.jpg,Red_Plus_Chess_1.jpg,Green_Triangle_Dots_2.jpg,right,903.35999999661,true,low,NA,NA,NA,NA,NA,NA,NA,false
CisNqNAd,33cla8o0nlo9ukh858i8v1jgjowfr3,3a4nixbj7ac6kgc6ddurtzqhtl6mly,CisNqNAd,2020-0188,2020-05-08,01:45:17,02:03:11,NA,incomplete,174,filling,1,left,Green_Circle_Chess_4.jpg,Blue_Star_Chess_3.jpg,Purple_Triangle_Stripes_4.jpg,left,891.0600000526756,true,low,NA,NA,NA,NA,NA,NA,NA,false
CisNqNAd,33cla8o0nlo9ukh858i8v1jgjowfr3,3a4nixbj7ac6kgc6ddurtzqhtl6mly,CisNqNAd,2020-0188,2020-05-08,01:45:17,02:03:11,NA,incomplete,175,filling,0,left,Blue_Plus_Grid_3.jpg,Red_Triangle_Grid_2.jpg,Green_Circle_Chess_3.jpg,left,846.4150000363588,true,low,NA,NA,NA,NA,NA,NA,NA,false
CisNqNAd,33cla8o0nlo9ukh858i8v1jgjowfr3,3a4nixbj7ac6kgc6ddurtzqhtl6mly,CisNqNAd,2020-0188,2020-05-08,01:45:17,02:03:11,NA,incomplete,176,filling,1,left,Purple_Plus_Dots_2.jpg,Red_Circle_Dots_4.jpg,Green_Star_Stripes_2.jpg,left,898.8400000380352,true,low,NA,NA,NA,NA,NA,NA,NA,false
CisNqNAd,33cla8o0nlo9ukh858i8v1jgjowfr3,3a4nixbj7ac6kgc6ddurtzqhtl6mly,CisNqNAd,2020-0188,2020-05-08,01:45:17,02:03:11,NA,incomplete,177,filling,1,right,Green_Circle_Grid_1.jpg,Purple_Triangle_Dots_1.jpg,Red_Star_Grid_3.jpg,right,784.4650000333786,true,low,NA,NA,NA,NA,NA,NA,NA,false
CisNqNAd,33cla8o0nlo9ukh858i8v1jgjowfr3,3a4nixbj7ac6kgc6ddurtzqhtl6mly,CisNqNAd,2020-0188,2020-05-08,01:45:17,02:03:11,NA,incomplete,178,filling,1,left,Green_Plus_Stripes_3.jpg,Red_Triangle_Stripes_4.jpg,Blue_Circle_Dots_3.jpg,left,762.8150000236928,true,low,NA,NA,NA,NA,NA,NA,NA,false
CisNqNAd,33cla8o0nlo9ukh858i8v1jgjowfr3,3a4nixbj7ac6kgc6ddurtzqhtl6mly,CisNqNAd,2020-0188,2020-05-08,01:45:17,02:03:11,NA,incomplete,179,filling,0,right,Blue_Star_Chess_3.jpg,Green_Circle_Dots_3.jpg,Purple_Triangle_Chess_2.jpg,right,911.9549999013543,true,low,NA,NA,NA,NA,NA,NA,NA,false
CisNqNAd,33cla8o0nlo9ukh858i8v1jgjowfr3,3a4nixbj7ac6kgc6ddurtzqhtl6mly,CisNqNAd,2020-0188,2020-05-08,01:45:17,02:03:11,NA,incomplete,180,number,1,left,Blue_Triangle_Dots_4.jpg,Purple_Star_Stripes_4.jpg,Red_Plus_Dots_3.jpg,right,784.7700000274926,false,low,NA,NA,NA,NA,NA,NA,NA,false
CisNqNAd,33cla8o0nlo9ukh858i8v1jgjowfr3,3a4nixbj7ac6kgc6ddurtzqhtl6mly,CisNqNAd,2020-0188,2020-05-08,01:45:17,02:03:11,NA,incomplete,181,number,1,left,Purple_Circle_Grid_2.jpg,Blue_Star_Chess_2.jpg,Green_Plus_Grid_3.jpg,left,792.7850000560284,true,low,NA,NA,NA,NA,NA,NA,NA,false
CisNqNAd,33cla8o0nlo9ukh858i8v1jgjowfr3,3a4nixbj7ac6kgc6ddurtzqhtl6mly,CisNqNAd,2020-0188,2020-05-08,01:45:17,02:03:11,NA,incomplete,182,number,0,left,Red_Star_Grid_1.jpg,Purple_Plus_Dots_1.jpg,Blue_Triangle_Grid_3.jpg,left,655.170000041835,true,low,NA,NA,NA,NA,NA,NA,NA,false
CisNqNAd,33cla8o0nlo9ukh858i8v1jgjowfr3,3a4nixbj7ac6kgc6ddurtzqhtl6mly,CisNqNAd,2020-0188,2020-05-08,01:45:17,02:03:11,NA,incomplete,183,number,1,right,Green_Circle_Grid_4.jpg,Purple_Star_Grid_3.jpg,Red_Triangle_Chess_4.jpg,right,722.6849999278784,true,low,NA,NA,NA,NA,NA,NA,NA,false
CisNqNAd,33cla8o0nlo9ukh858i8v1jgjowfr3,3a4nixbj7ac6kgc6ddurtzqhtl6mly,CisNqNAd,2020-0188,2020-05-08,01:45:17,02:03:11,NA,incomplete,184,number,1,left,Green_Circle_Dots_1.jpg,Purple_Star_Chess_1.jpg,Red_Triangle_Dots_2.jpg,left,730.1600000355393,true,low,NA,NA,NA,NA,NA,NA,NA,false
CisNqNAd,33cla8o0nlo9ukh858i8v1jgjowfr3,3a4nixbj7ac6kgc6ddurtzqhtl6mly,CisNqNAd,2020-0188,2020-05-08,01:45:17,02:03:11,NA,incomplete,185,number,0,right,Purple_Circle_Chess_3.jpg,Red_Triangle_Chess_1.jpg,Blue_Star_Dots_3.jpg,right,705.7700000004843,true,low,NA,NA,NA,NA,NA,NA,NA,false
CisNqNAd,33cla8o0nlo9ukh858i8v1jgjowfr3,3a4nixbj7ac6kgc6ddurtzqhtl6mly,CisNqNAd,2020-0188,2020-05-08,01:45:17,02:03:11,NA,incomplete,186,number,1,right,Purple_Triangle_Stripes_3.jpg,Green_Circle_Stripes_1.jpg,Blue_Star_Grid_3.jpg,right,608.9950000168756,true,low,NA,NA,NA,NA,NA,NA,NA,false
CisNqNAd,33cla8o0nlo9ukh858i8v1jgjowfr3,3a4nixbj7ac6kgc6ddurtzqhtl6mly,CisNqNAd,2020-0188,2020-05-08,01:45:17,02:03:11,NA,incomplete,187,number,1,right,Red_Circle_Grid_1.jpg,Green_Triangle_Grid_4.jpg,Blue_Star_Chess_1.jpg,right,561.2950000213459,true,low,NA,NA,NA,NA,NA,NA,NA,false
CisNqNAd,33cla8o0nlo9ukh858i8v1jgjowfr3,3a4nixbj7ac6kgc6ddurtzqhtl6mly,CisNqNAd,2020-0188,2020-05-08,01:45:17,02:03:11,NA,incomplete,188,number,0,left,Green_Triangle_Stripes_4.jpg,Red_Circle_Grid_4.jpg,Purple_Plus_Stripes_1.jpg,left,618.5650000115857,true,low,NA,NA,NA,NA,NA,NA,NA,false
CisNqNAd,33cla8o0nlo9ukh858i8v1jgjowfr3,3a4nixbj7ac6kgc6ddurtzqhtl6mly,CisNqNAd,2020-0188,2020-05-08,01:45:17,02:03:11,NA,incomplete,189,number,1,right,Blue_Star_Chess_3.jpg,Red_Circle_Chess_4.jpg,Green_Triangle_Stripes_3.jpg,right,646.3300000177696,true,low,NA,NA,NA,NA,NA,NA,NA,false
CisNqNAd,33cla8o0nlo9ukh858i8v1jgjowfr3,3a4nixbj7ac6kgc6ddurtzqhtl6mly,CisNqNAd,2020-0188,2020-05-08,01:45:17,02:03:11,NA,incomplete,190,number,1,left,Purple_Triangle_Chess_3.jpg,Blue_Circle_Grid_3.jpg,Green_Plus_Chess_2.jpg,left,854.9949999433011,true,low,NA,NA,NA,NA,NA,NA,NA,false
CisNqNAd,33cla8o0nlo9ukh858i8v1jgjowfr3,3a4nixbj7ac6kgc6ddurtzqhtl6mly,CisNqNAd,2020-0188,2020-05-08,01:45:17,02:03:11,NA,incomplete,191,number,1,left,Purple_Plus_Chess_1.jpg,Green_Star_Stripes_1.jpg,Blue_Triangle_Chess_3.jpg,left,727.7400000020862,true,low,NA,NA,NA,NA,NA,NA,NA,false
CisNqNAd,33cla8o0nlo9ukh858i8v1jgjowfr3,3a4nixbj7ac6kgc6ddurtzqhtl6mly,CisNqNAd,2020-0188,2020-05-08,01:45:17,02:03:11,NA,incomplete,192,number,1,left,Red_Plus_Grid_3.jpg,Blue_Circle_Chess_3.jpg,Green_Triangle_Grid_2.jpg,left,830.4100000532344,true,low,NA,NA,NA,NA,NA,NA,NA,false
CisNqNAd,33cla8o0nlo9ukh858i8v1jgjowfr3,3a4nixbj7ac6kgc6ddurtzqhtl6mly,CisNqNAd,2020-0188,2020-05-08,01:45:17,02:03:11,NA,incomplete,193,number,1,left,Purple_Star_Dots_2.jpg,Green_Plus_Stripes_2.jpg,Blue_Circle_Dots_1.jpg,left,690.6650000018999,true,low,NA,NA,NA,NA,NA,NA,NA,false
CisNqNAd,33cla8o0nlo9ukh858i8v1jgjowfr3,3a4nixbj7ac6kgc6ddurtzqhtl6mly,CisNqNAd,2020-0188,2020-05-08,01:45:17,02:03:11,NA,incomplete,194,number,0,right,Purple_Plus_Chess_1.jpg,Red_Triangle_Chess_4.jpg,Blue_Star_Stripes_1.jpg,right,670.5399999627843,true,low,NA,NA,NA,NA,NA,NA,NA,false
CisNqNAd,33cla8o0nlo9ukh858i8v1jgjowfr3,3a4nixbj7ac6kgc6ddurtzqhtl6mly,CisNqNAd,2020-0188,2020-05-08,01:45:17,02:03:11,NA,incomplete,195,number,1,left,Blue_Triangle_Dots_4.jpg,Red_Plus_Grid_4.jpg,Green_Circle_Dots_1.jpg,left,589.7349999286234,true,low,NA,NA,NA,NA,NA,NA,NA,false
CisNqNAd,33cla8o0nlo9ukh858i8v1jgjowfr3,3a4nixbj7ac6kgc6ddurtzqhtl6mly,CisNqNAd,2020-0188,2020-05-08,01:45:17,02:03:11,NA,incomplete,196,number,0,right,Blue_Star_Chess_2.jpg,Red_Triangle_Chess_1.jpg,Purple_Circle_Dots_2.jpg,right,653.0150000471622,true,low,NA,NA,NA,NA,NA,NA,NA,false
CisNqNAd,33cla8o0nlo9ukh858i8v1jgjowfr3,3a4nixbj7ac6kgc6ddurtzqhtl6mly,CisNqNAd,2020-0188,2020-05-08,01:45:17,02:03:11,NA,incomplete,197,number,1,left,Green_Triangle_Chess_4.jpg,Red_Circle_Grid_4.jpg,Blue_Plus_Chess_1.jpg,left,680.045000044629,true,low,NA,NA,NA,NA,NA,NA,NA,false
CisNqNAd,33cla8o0nlo9ukh858i8v1jgjowfr3,3a4nixbj7ac6kgc6ddurtzqhtl6mly,CisNqNAd,2020-0188,2020-05-08,01:45:17,02:03:11,NA,incomplete,198,number,1,left,Blue_Triangle_Chess_2.jpg,Green_Star_Grid_2.jpg,Purple_Plus_Chess_3.jpg,left,662.5399999320507,true,low,NA,NA,NA,NA,NA,NA,NA,false
CisNqNAd,33cla8o0nlo9ukh858i8v1jgjowfr3,3a4nixbj7ac6kgc6ddurtzqhtl6mly,CisNqNAd,2020-0188,2020-05-08,01:45:17,02:03:11,NA,incomplete,199,number,0,left,Green_Plus_Grid_4.jpg,Blue_Star_Dots_4.jpg,Red_Triangle_Grid_3.jpg,left,713.5400000261143,true,low,NA,NA,NA,NA,NA,NA,NA,false
CisNqNAd,33cla8o0nlo9ukh858i8v1jgjowfr3,3a4nixbj7ac6kgc6ddurtzqhtl6mly,CisNqNAd,2020-0188,2020-05-08,01:45:17,02:03:11,NA,incomplete,200,filling,1,left,Blue_Plus_Grid_4.jpg,Red_Triangle_Grid_1.jpg,Purple_Circle_Chess_4.jpg,right,875.6500000599772,false,low,NA,NA,NA,NA,NA,NA,NA,false
CisNqNAd,33cla8o0nlo9ukh858i8v1jgjowfr3,3a4nixbj7ac6kgc6ddurtzqhtl6mly,CisNqNAd,2020-0188,2020-05-08,01:45:17,02:03:11,NA,incomplete,201,filling,1,right,Purple_Circle_Dots_3.jpg,Green_Plus_Stripes_3.jpg,Red_Triangle_Dots_4.jpg,right,737.7200000919402,true,low,NA,NA,NA,NA,NA,NA,NA,false
CisNqNAd,33cla8o0nlo9ukh858i8v1jgjowfr3,3a4nixbj7ac6kgc6ddurtzqhtl6mly,CisNqNAd,2020-0188,2020-05-08,01:45:17,02:03:11,NA,incomplete,202,filling,1,left,Purple_Plus_Stripes_1.jpg,Red_Star_Stripes_3.jpg,Green_Circle_Dots_1.jpg,left,848.8499999511987,true,low,NA,NA,NA,NA,NA,NA,NA,false
CisNqNAd,33cla8o0nlo9ukh858i8v1jgjowfr3,3a4nixbj7ac6kgc6ddurtzqhtl6mly,CisNqNAd,2020-0188,2020-05-08,01:45:17,02:03:11,NA,incomplete,203,filling,1,left,Blue_Triangle_Dots_3.jpg,Purple_Circle_Dots_4.jpg,Red_Plus_Stripes_3.jpg,left,803.7049999693409,true,low,NA,NA,NA,NA,NA,NA,NA,false
CisNqNAd,33cla8o0nlo9ukh858i8v1jgjowfr3,3a4nixbj7ac6kgc6ddurtzqhtl6mly,CisNqNAd,2020-0188,2020-05-08,01:45:17,02:03:11,NA,incomplete,204,filling,1,right,Purple_Circle_Chess_4.jpg,Green_Plus_Stripes_4.jpg,Blue_Triangle_Chess_1.jpg,right,679.9049999099225,true,low,NA,NA,NA,NA,NA,NA,NA,false
CisNqNAd,33cla8o0nlo9ukh858i8v1jgjowfr3,3a4nixbj7ac6kgc6ddurtzqhtl6mly,CisNqNAd,2020-0188,2020-05-08,01:45:17,02:03:11,NA,incomplete,205,filling,1,right,Blue_Star_Stripes_4.jpg,Purple_Circle_Dots_4.jpg,Red_Triangle_Stripes_2.jpg,right,813.1699999794364,true,low,NA,NA,NA,NA,NA,NA,NA,false
CisNqNAd,33cla8o0nlo9ukh858i8v1jgjowfr3,3a4nixbj7ac6kgc6ddurtzqhtl6mly,CisNqNAd,2020-0188,2020-05-08,01:45:17,02:03:11,NA,incomplete,206,filling,0,left,Blue_Plus_Chess_1.jpg,Purple_Star_Chess_3.jpg,Red_Circle_Stripes_1.jpg,left,912.5150000909343,true,low,NA,NA,NA,NA,NA,NA,NA,false
CisNqNAd,33cla8o0nlo9ukh858i8v1jgjowfr3,3a4nixbj7ac6kgc6ddurtzqhtl6mly,CisNqNAd,2020-0188,2020-05-08,01:45:17,02:03:11,NA,incomplete,207,filling,1,left,Blue_Star_Stripes_3.jpg,Purple_Plus_Stripes_1.jpg,Red_Circle_Grid_3.jpg,left,913.1850000703707,true,low,NA,NA,NA,NA,NA,NA,NA,false
CisNqNAd,33cla8o0nlo9ukh858i8v1jgjowfr3,3a4nixbj7ac6kgc6ddurtzqhtl6mly,CisNqNAd,2020-0188,2020-05-08,01:45:17,02:03:11,NA,incomplete,208,filling,1,right,Blue_Triangle_Grid_4.jpg,Purple_Star_Chess_4.jpg,Red_Circle_Grid_3.jpg,right,808.335000067018,true,low,NA,NA,NA,NA,NA,NA,NA,false
CisNqNAd,33cla8o0nlo9ukh858i8v1jgjowfr3,3a4nixbj7ac6kgc6ddurtzqhtl6mly,CisNqNAd,2020-0188,2020-05-08,01:45:17,02:03:11,NA,incomplete,209,filling,1,left,Green_Circle_Grid_4.jpg,Red_Star_Grid_3.jpg,Blue_Triangle_Chess_4.jpg,right,759.4200000166893,false,low,NA,NA,NA,NA,NA,NA,NA,false
CisNqNAd,33cla8o0nlo9ukh858i8v1jgjowfr3,3a4nixbj7ac6kgc6ddurtzqhtl6mly,CisNqNAd,2020-0188,2020-05-08,01:45:17,02:03:11,NA,incomplete,210,filling,0,left,Red_Circle_Chess_3.jpg,Purple_Triangle_Chess_2.jpg,Green_Plus_Stripes_3.jpg,left,758.9250000892207,true,low,NA,NA,NA,NA,NA,NA,NA,false
CisNqNAd,33cla8o0nlo9ukh858i8v1jgjowfr3,3a4nixbj7ac6kgc6ddurtzqhtl6mly,CisNqNAd,2020-0188,2020-05-08,01:45:17,02:03:11,NA,incomplete,211,filling,1,left,Purple_Star_Dots_4.jpg,Blue_Plus_Dots_1.jpg,Red_Triangle_Grid_4.jpg,right,923.7349999602884,false,low,NA,NA,NA,NA,NA,NA,NA,false
CisNqNAd,33cla8o0nlo9ukh858i8v1jgjowfr3,3a4nixbj7ac6kgc6ddurtzqhtl6mly,CisNqNAd,2020-0188,2020-05-08,01:45:17,02:03:11,NA,incomplete,212,filling,0,left,Red_Triangle_Chess_2.jpg,Blue_Star_Chess_4.jpg,Green_Plus_Stripes_2.jpg,left,824.2950000567362,true,low,NA,NA,NA,NA,NA,NA,NA,false
CisNqNAd,33cla8o0nlo9ukh858i8v1jgjowfr3,3a4nixbj7ac6kgc6ddurtzqhtl6mly,CisNqNAd,2020-0188,2020-05-08,01:45:17,02:03:11,NA,incomplete,213,filling,1,right,Red_Star_Dots_4.jpg,Green_Triangle_Chess_4.jpg,Purple_Plus_Dots_3.jpg,left,710.2249999297783,false,low,NA,NA,NA,NA,NA,NA,NA,false
CisNqNAd,33cla8o0nlo9ukh858i8v1jgjowfr3,3a4nixbj7ac6kgc6ddurtzqhtl6mly,CisNqNAd,2020-0188,2020-05-08,01:45:17,02:03:11,NA,incomplete,214,filling,1,left,Red_Triangle_Grid_4.jpg,Blue_Plus_Grid_1.jpg,Purple_Circle_Chess_4.jpg,right,660.1500000106171,false,low,NA,NA,NA,NA,NA,NA,NA,false
CisNqNAd,33cla8o0nlo9ukh858i8v1jgjowfr3,3a4nixbj7ac6kgc6ddurtzqhtl6mly,CisNqNAd,2020-0188,2020-05-08,01:45:17,02:03:11,NA,incomplete,215,filling,0,right,Blue_Plus_Dots_4.jpg,Red_Star_Chess_4.jpg,Purple_Circle_Dots_2.jpg,right,851.5900000929832,true,low,NA,NA,NA,NA,NA,NA,NA,false
CisNqNAd,33cla8o0nlo9ukh858i8v1jgjowfr3,3a4nixbj7ac6kgc6ddurtzqhtl6mly,CisNqNAd,2020-0188,2020-05-08,01:45:17,02:03:11,NA,incomplete,216,filling,1,left,Purple_Circle_Dots_1.jpg,Red_Plus_Dots_4.jpg,Green_Triangle_Stripes_1.jpg,right,827.8599999612197,false,low,NA,NA,NA,NA,NA,NA,NA,false
CisNqNAd,33cla8o0nlo9ukh858i8v1jgjowfr3,3a4nixbj7ac6kgc6ddurtzqhtl6mly,CisNqNAd,2020-0188,2020-05-08,01:45:17,02:03:11,NA,incomplete,217,filling,1,left,Green_Triangle_Grid_2.jpg,Red_Circle_Grid_3.jpg,Purple_Plus_Dots_2.jpg,left,770.2750000171363,true,low,NA,NA,NA,NA,NA,NA,NA,false
CisNqNAd,33cla8o0nlo9ukh858i8v1jgjowfr3,3a4nixbj7ac6kgc6ddurtzqhtl6mly,CisNqNAd,2020-0188,2020-05-08,01:45:17,02:03:11,NA,incomplete,218,filling,1,right,Purple_Triangle_Chess_4.jpg,Red_Star_Stripes_4.jpg,Green_Plus_Chess_2.jpg,right,740.4050000477582,true,low,NA,NA,NA,NA,NA,NA,NA,false
CisNqNAd,33cla8o0nlo9ukh858i8v1jgjowfr3,3a4nixbj7ac6kgc6ddurtzqhtl6mly,CisNqNAd,2020-0188,2020-05-08,01:45:17,02:03:11,NA,incomplete,219,filling,1,right,Purple_Star_Dots_1.jpg,Red_Triangle_Chess_1.jpg,Green_Circle_Dots_2.jpg,right,809.8600000375882,true,low,NA,NA,NA,NA,NA,NA,NA,false
CisNqNAd,33cla8o0nlo9ukh858i8v1jgjowfr3,3a4nixbj7ac6kgc6ddurtzqhtl6mly,CisNqNAd,2020-0188,2020-05-08,01:45:17,02:03:11,NA,incomplete,220,number,1,right,Blue_Plus_Stripes_2.jpg,Red_Triangle_Stripes_4.jpg,Green_Star_Chess_2.jpg,left,855.4199999198318,false,low,NA,NA,NA,NA,NA,NA,NA,false
CisNqNAd,33cla8o0nlo9ukh858i8v1jgjowfr3,3a4nixbj7ac6kgc6ddurtzqhtl6mly,CisNqNAd,2020-0188,2020-05-08,01:45:17,02:03:11,NA,incomplete,221,number,1,right,Purple_Circle_Grid_1.jpg,Blue_Triangle_Grid_2.jpg,Green_Star_Stripes_1.jpg,left,803.0399999115616,false,low,NA,NA,NA,NA,NA,NA,NA,false
CisNqNAd,33cla8o0nlo9ukh858i8v1jgjowfr3,3a4nixbj7ac6kgc6ddurtzqhtl6mly,CisNqNAd,2020-0188,2020-05-08,01:45:17,02:03:11,NA,incomplete,222,number,0,left,Blue_Triangle_Chess_1.jpg,Purple_Plus_Grid_1.jpg,Green_Circle_Chess_3.jpg,right,738.1400000303984,false,low,NA,NA,NA,NA,NA,NA,NA,false
CisNqNAd,33cla8o0nlo9ukh858i8v1jgjowfr3,3a4nixbj7ac6kgc6ddurtzqhtl6mly,CisNqNAd,2020-0188,2020-05-08,01:45:17,02:03:11,NA,incomplete,223,number,1,right,Purple_Star_Dots_3.jpg,Blue_Circle_Dots_2.jpg,Green_Plus_Stripes_3.jpg,left,800.3650000318885,false,low,NA,NA,NA,NA,NA,NA,NA,false
CisNqNAd,33cla8o0nlo9ukh858i8v1jgjowfr3,3a4nixbj7ac6kgc6ddurtzqhtl6mly,CisNqNAd,2020-0188,2020-05-08,01:45:17,02:03:11,NA,incomplete,224,number,1,left,Green_Plus_Stripes_1.jpg,Red_Triangle_Grid_1.jpg,Blue_Circle_Stripes_3.jpg,left,729.0999999968335,true,low,NA,NA,NA,NA,NA,NA,NA,false
CisNqNAd,33cla8o0nlo9ukh858i8v1jgjowfr3,3a4nixbj7ac6kgc6ddurtzqhtl6mly,CisNqNAd,2020-0188,2020-05-08,01:45:17,02:03:11,NA,incomplete,225,number,1,left,Green_Star_Dots_4.jpg,Blue_Plus_Stripes_4.jpg,Red_Triangle_Dots_3.jpg,left,639.1050000675023,true,low,NA,NA,NA,NA,NA,NA,NA,false
CisNqNAd,33cla8o0nlo9ukh858i8v1jgjowfr3,3a4nixbj7ac6kgc6ddurtzqhtl6mly,CisNqNAd,2020-0188,2020-05-08,01:45:17,02:03:11,NA,incomplete,226,number,1,left,Green_Triangle_Dots_4.jpg,Blue_Plus_Stripes_4.jpg,Red_Star_Dots_3.jpg,left,711.4350000629202,true,low,NA,NA,NA,NA,NA,NA,NA,false
CisNqNAd,33cla8o0nlo9ukh858i8v1jgjowfr3,3a4nixbj7ac6kgc6ddurtzqhtl6mly,CisNqNAd,2020-0188,2020-05-08,01:45:17,02:03:11,NA,incomplete,227,number,0,left,Green_Triangle_Stripes_1.jpg,Red_Circle_Grid_1.jpg,Blue_Plus_Stripes_4.jpg,right,808.1949999323115,false,low,NA,NA,NA,NA,NA,NA,NA,false
CisNqNAd,33cla8o0nlo9ukh858i8v1jgjowfr3,3a4nixbj7ac6kgc6ddurtzqhtl6mly,CisNqNAd,2020-0188,2020-05-08,01:45:17,02:03:11,NA,incomplete,228,number,1,right,Green_Plus_Stripes_1.jpg,Blue_Triangle_Stripes_4.jpg,Red_Star_Chess_1.jpg,right,666.6500000283122,true,low,NA,NA,NA,NA,NA,NA,NA,false
CisNqNAd,33cla8o0nlo9ukh858i8v1jgjowfr3,3a4nixbj7ac6kgc6ddurtzqhtl6mly,CisNqNAd,2020-0188,2020-05-08,01:45:17,02:03:11,NA,incomplete,229,number,1,right,Purple_Triangle_Stripes_2.jpg,Blue_Circle_Stripes_1.jpg,Green_Plus_Grid_2.jpg,right,695.0199999846518,true,low,NA,NA,NA,NA,NA,NA,NA,false
CisNqNAd,33cla8o0nlo9ukh858i8v1jgjowfr3,3a4nixbj7ac6kgc6ddurtzqhtl6mly,CisNqNAd,2020-0188,2020-05-08,01:45:17,02:03:11,NA,incomplete,230,number,1,left,Blue_Plus_Grid_4.jpg,Red_Circle_Stripes_4.jpg,Green_Triangle_Grid_3.jpg,left,872.2899999702349,true,low,NA,NA,NA,NA,NA,NA,NA,false
CisNqNAd,33cla8o0nlo9ukh858i8v1jgjowfr3,3a4nixbj7ac6kgc6ddurtzqhtl6mly,CisNqNAd,2020-0188,2020-05-08,01:45:17,02:03:11,NA,incomplete,231,number,0,right,Red_Star_Chess_1.jpg,Blue_Circle_Chess_3.jpg,Green_Plus_Dots_1.jpg,right,725.8249999722466,true,low,NA,NA,NA,NA,NA,NA,NA,false
CisNqNAd,33cla8o0nlo9ukh858i8v1jgjowfr3,3a4nixbj7ac6kgc6ddurtzqhtl6mly,CisNqNAd,2020-0188,2020-05-08,01:45:17,02:03:11,NA,incomplete,232,number,1,left,Blue_Plus_Chess_4.jpg,Purple_Circle_Stripes_4.jpg,Green_Triangle_Chess_2.jpg,left,667.5250000553206,true,low,NA,NA,NA,NA,NA,NA,NA,false
CisNqNAd,33cla8o0nlo9ukh858i8v1jgjowfr3,3a4nixbj7ac6kgc6ddurtzqhtl6mly,CisNqNAd,2020-0188,2020-05-08,01:45:17,02:03:11,NA,incomplete,233,number,1,right,Red_Star_Stripes_1.jpg,Purple_Plus_Stripes_2.jpg,Green_Triangle_Dots_1.jpg,right,532.3649999918416,true,low,NA,NA,NA,NA,NA,NA,NA,false
CisNqNAd,33cla8o0nlo9ukh858i8v1jgjowfr3,3a4nixbj7ac6kgc6ddurtzqhtl6mly,CisNqNAd,2020-0188,2020-05-08,01:45:17,02:03:11,NA,incomplete,234,number,1,right,Green_Star_Chess_4.jpg,Purple_Plus_Chess_2.jpg,Red_Triangle_Dots_4.jpg,right,738.4750000201166,true,low,NA,NA,NA,NA,NA,NA,NA,false
CisNqNAd,33cla8o0nlo9ukh858i8v1jgjowfr3,3a4nixbj7ac6kgc6ddurtzqhtl6mly,CisNqNAd,2020-0188,2020-05-08,01:45:17,02:03:11,NA,incomplete,235,number,1,left,Blue_Star_Dots_1.jpg,Red_Triangle_Stripes_1.jpg,Purple_Plus_Dots_4.jpg,left,551.83999997098,true,low,NA,NA,NA,NA,NA,NA,NA,false
CisNqNAd,33cla8o0nlo9ukh858i8v1jgjowfr3,3a4nixbj7ac6kgc6ddurtzqhtl6mly,CisNqNAd,2020-0188,2020-05-08,01:45:17,02:03:11,NA,incomplete,236,number,1,right,Green_Star_Stripes_2.jpg,Purple_Triangle_Stripes_1.jpg,Red_Circle_Dots_2.jpg,right,666.6350000305101,true,low,NA,NA,NA,NA,NA,NA,NA,false
CisNqNAd,33cla8o0nlo9ukh858i8v1jgjowfr3,3a4nixbj7ac6kgc6ddurtzqhtl6mly,CisNqNAd,2020-0188,2020-05-08,01:45:17,02:03:11,NA,incomplete,237,number,1,right,Purple_Triangle_Dots_3.jpg,Blue_Circle_Dots_2.jpg,Green_Plus_Chess_3.jpg,right,620.1650000875816,true,low,NA,NA,NA,NA,NA,NA,NA,false
CisNqNAd,33cla8o0nlo9ukh858i8v1jgjowfr3,3a4nixbj7ac6kgc6ddurtzqhtl6mly,CisNqNAd,2020-0188,2020-05-08,01:45:17,02:03:11,NA,incomplete,238,number,1,left,Red_Triangle_Chess_4.jpg,Purple_Plus_Grid_4.jpg,Blue_Circle_Chess_3.jpg,left,731.3449999783188,true,low,NA,NA,NA,NA,NA,NA,NA,false
CisNqNAd,33cla8o0nlo9ukh858i8v1jgjowfr3,3a4nixbj7ac6kgc6ddurtzqhtl6mly,CisNqNAd,2020-0188,2020-05-08,01:45:17,02:03:11,NA,incomplete,239,number,1,left,Green_Plus_Grid_1.jpg,Red_Triangle_Stripes_1.jpg,Purple_Star_Grid_3.jpg,left,624.2700000293553,true,low,NA,NA,NA,NA,NA,NA,NA,false
CisNqNAd,33cla8o0nlo9ukh858i8v1jgjowfr3,3a4nixbj7ac6kgc6ddurtzqhtl6mly,CisNqNAd,2020-0188,2020-05-08,01:45:17,02:03:11,930415.6499999808,1074430.5249999743,NA,NA,NA,NA,NA,NA,NA,NA,NA,NA,NA,33,Asian,Female,Vietnamese,no,yes,no,undefined
