workerId,hitId,assignmentId,subject,studyid,exp_date,exp_start,exp_end,time_start,time_end,trial,type,reward_validity,answer,image_top,image_left,image_right,response,response_time,response_acc,volatility,age,race,gender,ethnicity,color,vision,neuro,practice
TWbqg6Bp,3fhtjgyt9qduw7xo30k18rjdqjggpm,3bf51chdtzn7v6m9xnsv3aqy91p0hp,TWbqg6Bp,2020-0188,2020-11-15,03:17:06,03:34:58,NA,incomplete,0,number,1,left,Red_Star_Chess_4.jpg,Blue_Plus_Stripes_4.jpg,Purple_Star_Dots_3.jpg,left,1016,true,NA,NA,NA,NA,NA,NA,NA,NA,true
TWbqg6Bp,3fhtjgyt9qduw7xo30k18rjdqjggpm,3bf51chdtzn7v6m9xnsv3aqy91p0hp,TWbqg6Bp,2020-0188,2020-11-15,03:17:06,03:34:58,NA,incomplete,1,number,1,right,Red_Triangle_Dots_1.jpg,Purple_Triangle_Stripes_2.jpg,Blue_Plus_Chess_1.jpg,right,778,true,NA,NA,NA,NA,NA,NA,NA,NA,true
TWbqg6Bp,3fhtjgyt9qduw7xo30k18rjdqjggpm,3bf51chdtzn7v6m9xnsv3aqy91p0hp,TWbqg6Bp,2020-0188,2020-11-15,03:17:06,03:34:58,NA,incomplete,2,number,1,left,Blue_Triangle_Dots_2.jpg,Green_Star_Stripes_2.jpg,Purple_Triangle_Grid_3.jpg,left,1265,true,NA,NA,NA,NA,NA,NA,NA,NA,true
TWbqg6Bp,3fhtjgyt9qduw7xo30k18rjdqjggpm,3bf51chdtzn7v6m9xnsv3aqy91p0hp,TWbqg6Bp,2020-0188,2020-11-15,03:17:06,03:34:58,NA,incomplete,3,number,0,left,Blue_Star_Grid_3.jpg,Green_Triangle_Dots_3.jpg,Purple_Star_Stripes_2.jpg,left,970,true,NA,NA,NA,NA,NA,NA,NA,NA,true
TWbqg6Bp,3fhtjgyt9qduw7xo30k18rjdqjggpm,3bf51chdtzn7v6m9xnsv3aqy91p0hp,TWbqg6Bp,2020-0188,2020-11-15,03:17:06,03:34:58,NA,incomplete,4,number,0,right,Red_Triangle_Stripes_4.jpg,Blue_Triangle_Chess_3.jpg,Purple_Star_Grid_4.jpg,right,886,true,NA,NA,NA,NA,NA,NA,NA,NA,true
TWbqg6Bp,3fhtjgyt9qduw7xo30k18rjdqjggpm,3bf51chdtzn7v6m9xnsv3aqy91p0hp,TWbqg6Bp,2020-0188,2020-11-15,03:17:06,03:34:58,NA,incomplete,5,number,0,left,Blue_Plus_Dots_4.jpg,Green_Circle_Stripes_4.jpg,Purple_Plus_Chess_2.jpg,left,960,true,NA,NA,NA,NA,NA,NA,NA,NA,true
TWbqg6Bp,3fhtjgyt9qduw7xo30k18rjdqjggpm,3bf51chdtzn7v6m9xnsv3aqy91p0hp,TWbqg6Bp,2020-0188,2020-11-15,03:17:06,03:34:58,NA,incomplete,6,number,1,right,Red_Circle_Grid_1.jpg,Blue_Circle_Stripes_2.jpg,Green_Plus_Dots_1.jpg,right,838,true,NA,NA,NA,NA,NA,NA,NA,NA,true
TWbqg6Bp,3fhtjgyt9qduw7xo30k18rjdqjggpm,3bf51chdtzn7v6m9xnsv3aqy91p0hp,TWbqg6Bp,2020-0188,2020-11-15,03:17:06,03:34:58,NA,incomplete,7,number,1,right,Blue_Star_Stripes_1.jpg,Green_Star_Chess_2.jpg,Purple_Circle_Grid_1.jpg,right,833,true,NA,NA,NA,NA,NA,NA,NA,NA,true
TWbqg6Bp,3fhtjgyt9qduw7xo30k18rjdqjggpm,3bf51chdtzn7v6m9xnsv3aqy91p0hp,TWbqg6Bp,2020-0188,2020-11-15,03:17:06,03:34:58,NA,incomplete,8,number,1,left,Green_Star_Grid_1.jpg,Blue_Circle_Chess_1.jpg,Red_Star_Dots_4.jpg,left,636,true,NA,NA,NA,NA,NA,NA,NA,NA,true
TWbqg6Bp,3fhtjgyt9qduw7xo30k18rjdqjggpm,3bf51chdtzn7v6m9xnsv3aqy91p0hp,TWbqg6Bp,2020-0188,2020-11-15,03:17:06,03:34:58,NA,incomplete,9,number,0,right,Purple_Triangle_Grid_3.jpg,Green_Triangle_Dots_1.jpg,Red_Circle_Stripes_3.jpg,right,719,true,NA,NA,NA,NA,NA,NA,NA,NA,true
TWbqg6Bp,3fhtjgyt9qduw7xo30k18rjdqjggpm,3bf51chdtzn7v6m9xnsv3aqy91p0hp,TWbqg6Bp,2020-0188,2020-11-15,03:17:06,03:34:58,NA,incomplete,10,number,1,right,Green_Triangle_Dots_2.jpg,Purple_Triangle_Stripes_1.jpg,Red_Circle_Grid_2.jpg,left,794,false,NA,NA,NA,NA,NA,NA,NA,NA,true
TWbqg6Bp,3fhtjgyt9qduw7xo30k18rjdqjggpm,3bf51chdtzn7v6m9xnsv3aqy91p0hp,TWbqg6Bp,2020-0188,2020-11-15,03:17:06,03:34:58,NA,incomplete,11,number,1,left,Green_Circle_Chess_2.jpg,Purple_Plus_Stripes_2.jpg,Red_Circle_Dots_3.jpg,left,1282,true,NA,NA,NA,NA,NA,NA,NA,NA,true
TWbqg6Bp,3fhtjgyt9qduw7xo30k18rjdqjggpm,3bf51chdtzn7v6m9xnsv3aqy91p0hp,TWbqg6Bp,2020-0188,2020-11-15,03:17:06,03:34:58,NA,incomplete,12,number,1,right,Green_Triangle_Grid_2.jpg,Blue_Triangle_Chess_1.jpg,Red_Circle_Stripes_2.jpg,right,901,true,NA,NA,NA,NA,NA,NA,NA,NA,true
TWbqg6Bp,3fhtjgyt9qduw7xo30k18rjdqjggpm,3bf51chdtzn7v6m9xnsv3aqy91p0hp,TWbqg6Bp,2020-0188,2020-11-15,03:17:06,03:34:58,NA,incomplete,13,number,1,right,Green_Triangle_Stripes_3.jpg,Red_Triangle_Chess_1.jpg,Purple_Star_Grid_3.jpg,right,1605,true,NA,NA,NA,NA,NA,NA,NA,NA,true
TWbqg6Bp,3fhtjgyt9qduw7xo30k18rjdqjggpm,3bf51chdtzn7v6m9xnsv3aqy91p0hp,TWbqg6Bp,2020-0188,2020-11-15,03:17:06,03:34:58,NA,incomplete,14,number,1,right,Red_Star_Grid_1.jpg,Purple_Star_Dots_3.jpg,Blue_Circle_Stripes_1.jpg,right,1457,true,NA,NA,NA,NA,NA,NA,NA,NA,true
TWbqg6Bp,3fhtjgyt9qduw7xo30k18rjdqjggpm,3bf51chdtzn7v6m9xnsv3aqy91p0hp,TWbqg6Bp,2020-0188,2020-11-15,03:17:06,03:34:58,NA,incomplete,15,number,0,left,Purple_Triangle_Chess_2.jpg,Red_Circle_Dots_2.jpg,Green_Triangle_Grid_1.jpg,left,1210,true,NA,NA,NA,NA,NA,NA,NA,NA,true
TWbqg6Bp,3fhtjgyt9qduw7xo30k18rjdqjggpm,3bf51chdtzn7v6m9xnsv3aqy91p0hp,TWbqg6Bp,2020-0188,2020-11-15,03:17:06,03:34:58,NA,incomplete,16,number,1,left,Blue_Circle_Stripes_3.jpg,Red_Plus_Chess_3.jpg,Purple_Circle_Grid_2.jpg,left,743,true,NA,NA,NA,NA,NA,NA,NA,NA,true
TWbqg6Bp,3fhtjgyt9qduw7xo30k18rjdqjggpm,3bf51chdtzn7v6m9xnsv3aqy91p0hp,TWbqg6Bp,2020-0188,2020-11-15,03:17:06,03:34:58,NA,incomplete,17,number,1,left,Green_Triangle_Chess_1.jpg,Blue_Star_Dots_1.jpg,Purple_Triangle_Stripes_2.jpg,left,765,true,NA,NA,NA,NA,NA,NA,NA,NA,true
TWbqg6Bp,3fhtjgyt9qduw7xo30k18rjdqjggpm,3bf51chdtzn7v6m9xnsv3aqy91p0hp,TWbqg6Bp,2020-0188,2020-11-15,03:17:06,03:34:58,NA,incomplete,18,number,1,right,Red_Circle_Dots_3.jpg,Purple_Circle_Stripes_1.jpg,Blue_Triangle_Grid_3.jpg,right,732,true,NA,NA,NA,NA,NA,NA,NA,NA,true
TWbqg6Bp,3fhtjgyt9qduw7xo30k18rjdqjggpm,3bf51chdtzn7v6m9xnsv3aqy91p0hp,TWbqg6Bp,2020-0188,2020-11-15,03:17:06,03:34:58,NA,incomplete,19,number,0,right,Purple_Circle_Grid_1.jpg,Green_Circle_Stripes_2.jpg,Blue_Triangle_Dots_1.jpg,right,1050,true,NA,NA,NA,NA,NA,NA,NA,NA,true
TWbqg6Bp,3fhtjgyt9qduw7xo30k18rjdqjggpm,3bf51chdtzn7v6m9xnsv3aqy91p0hp,TWbqg6Bp,2020-0188,2020-11-15,03:17:06,03:34:58,NA,incomplete,20,shape,1,right,Green_Star_Dots_2.jpg,Purple_Triangle_Chess_2.jpg,Blue_Star_Stripes_4.jpg,left,1125,false,NA,NA,NA,NA,NA,NA,NA,NA,true
TWbqg6Bp,3fhtjgyt9qduw7xo30k18rjdqjggpm,3bf51chdtzn7v6m9xnsv3aqy91p0hp,TWbqg6Bp,2020-0188,2020-11-15,03:17:06,03:34:58,NA,incomplete,21,shape,1,left,Blue_Plus_Stripes_3.jpg,Purple_Plus_Dots_4.jpg,Red_Circle_Grid_3.jpg,left,996,true,NA,NA,NA,NA,NA,NA,NA,NA,true
TWbqg6Bp,3fhtjgyt9qduw7xo30k18rjdqjggpm,3bf51chdtzn7v6m9xnsv3aqy91p0hp,TWbqg6Bp,2020-0188,2020-11-15,03:17:06,03:34:58,NA,incomplete,22,shape,1,right,Purple_Triangle_Stripes_4.jpg,Blue_Circle_Chess_4.jpg,Red_Triangle_Dots_1.jpg,right,914,true,NA,NA,NA,NA,NA,NA,NA,NA,true
TWbqg6Bp,3fhtjgyt9qduw7xo30k18rjdqjggpm,3bf51chdtzn7v6m9xnsv3aqy91p0hp,TWbqg6Bp,2020-0188,2020-11-15,03:17:06,03:34:58,NA,incomplete,23,shape,1,left,Green_Circle_Stripes_4.jpg,Red_Circle_Chess_1.jpg,Blue_Triangle_Grid_4.jpg,right,736,false,NA,NA,NA,NA,NA,NA,NA,NA,true
TWbqg6Bp,3fhtjgyt9qduw7xo30k18rjdqjggpm,3bf51chdtzn7v6m9xnsv3aqy91p0hp,TWbqg6Bp,2020-0188,2020-11-15,03:17:06,03:34:58,NA,incomplete,24,shape,1,right,Blue_Circle_Chess_3.jpg,Green_Plus_Dots_3.jpg,Red_Circle_Grid_4.jpg,right,832,true,NA,NA,NA,NA,NA,NA,NA,NA,true
TWbqg6Bp,3fhtjgyt9qduw7xo30k18rjdqjggpm,3bf51chdtzn7v6m9xnsv3aqy91p0hp,TWbqg6Bp,2020-0188,2020-11-15,03:17:06,03:34:58,NA,incomplete,25,shape,1,left,Green_Triangle_Stripes_4.jpg,Red_Triangle_Chess_1.jpg,Purple_Plus_Dots_4.jpg,left,906,true,NA,NA,NA,NA,NA,NA,NA,NA,true
TWbqg6Bp,3fhtjgyt9qduw7xo30k18rjdqjggpm,3bf51chdtzn7v6m9xnsv3aqy91p0hp,TWbqg6Bp,2020-0188,2020-11-15,03:17:06,03:34:58,NA,incomplete,26,shape,1,right,Blue_Plus_Stripes_1.jpg,Red_Circle_Grid_1.jpg,Purple_Plus_Dots_4.jpg,right,746,true,NA,NA,NA,NA,NA,NA,NA,NA,true
TWbqg6Bp,3fhtjgyt9qduw7xo30k18rjdqjggpm,3bf51chdtzn7v6m9xnsv3aqy91p0hp,TWbqg6Bp,2020-0188,2020-11-15,03:17:06,03:34:58,NA,incomplete,27,shape,0,left,Blue_Triangle_Dots_1.jpg,Purple_Triangle_Grid_3.jpg,Red_Plus_Stripes_1.jpg,left,657,true,NA,NA,NA,NA,NA,NA,NA,NA,true
TWbqg6Bp,3fhtjgyt9qduw7xo30k18rjdqjggpm,3bf51chdtzn7v6m9xnsv3aqy91p0hp,TWbqg6Bp,2020-0188,2020-11-15,03:17:06,03:34:58,NA,incomplete,28,shape,1,right,Green_Star_Chess_4.jpg,Purple_Plus_Dots_4.jpg,Red_Star_Stripes_3.jpg,right,796,true,NA,NA,NA,NA,NA,NA,NA,NA,true
TWbqg6Bp,3fhtjgyt9qduw7xo30k18rjdqjggpm,3bf51chdtzn7v6m9xnsv3aqy91p0hp,TWbqg6Bp,2020-0188,2020-11-15,03:17:06,03:34:58,NA,incomplete,29,shape,0,left,Purple_Circle_Stripes_1.jpg,Red_Circle_Chess_4.jpg,Blue_Plus_Dots_1.jpg,left,718,true,NA,NA,NA,NA,NA,NA,NA,NA,true
TWbqg6Bp,3fhtjgyt9qduw7xo30k18rjdqjggpm,3bf51chdtzn7v6m9xnsv3aqy91p0hp,TWbqg6Bp,2020-0188,2020-11-15,03:17:06,03:34:58,NA,incomplete,30,shape,1,right,Blue_Circle_Grid_4.jpg,Purple_Star_Dots_4.jpg,Green_Circle_Chess_2.jpg,right,919,true,NA,NA,NA,NA,NA,NA,NA,NA,true
TWbqg6Bp,3fhtjgyt9qduw7xo30k18rjdqjggpm,3bf51chdtzn7v6m9xnsv3aqy91p0hp,TWbqg6Bp,2020-0188,2020-11-15,03:17:06,03:34:58,NA,incomplete,31,shape,1,left,Purple_Plus_Stripes_1.jpg,Blue_Plus_Dots_2.jpg,Green_Circle_Grid_1.jpg,left,648,true,NA,NA,NA,NA,NA,NA,NA,NA,true
TWbqg6Bp,3fhtjgyt9qduw7xo30k18rjdqjggpm,3bf51chdtzn7v6m9xnsv3aqy91p0hp,TWbqg6Bp,2020-0188,2020-11-15,03:17:06,03:34:58,NA,incomplete,32,shape,1,left,Red_Circle_Stripes_2.jpg,Blue_Circle_Dots_4.jpg,Green_Star_Chess_2.jpg,left,793,true,NA,NA,NA,NA,NA,NA,NA,NA,true
TWbqg6Bp,3fhtjgyt9qduw7xo30k18rjdqjggpm,3bf51chdtzn7v6m9xnsv3aqy91p0hp,TWbqg6Bp,2020-0188,2020-11-15,03:17:06,03:34:58,NA,incomplete,33,shape,1,right,Purple_Star_Stripes_3.jpg,Blue_Circle_Chess_3.jpg,Green_Star_Grid_1.jpg,right,846,true,NA,NA,NA,NA,NA,NA,NA,NA,true
TWbqg6Bp,3fhtjgyt9qduw7xo30k18rjdqjggpm,3bf51chdtzn7v6m9xnsv3aqy91p0hp,TWbqg6Bp,2020-0188,2020-11-15,03:17:06,03:34:58,NA,incomplete,34,shape,1,left,Blue_Circle_Chess_4.jpg,Green_Circle_Stripes_1.jpg,Red_Star_Grid_4.jpg,left,680,true,NA,NA,NA,NA,NA,NA,NA,NA,true
TWbqg6Bp,3fhtjgyt9qduw7xo30k18rjdqjggpm,3bf51chdtzn7v6m9xnsv3aqy91p0hp,TWbqg6Bp,2020-0188,2020-11-15,03:17:06,03:34:58,NA,incomplete,35,shape,1,right,Red_Circle_Stripes_3.jpg,Blue_Plus_Grid_3.jpg,Purple_Circle_Chess_1.jpg,right,650,true,NA,NA,NA,NA,NA,NA,NA,NA,true
TWbqg6Bp,3fhtjgyt9qduw7xo30k18rjdqjggpm,3bf51chdtzn7v6m9xnsv3aqy91p0hp,TWbqg6Bp,2020-0188,2020-11-15,03:17:06,03:34:58,NA,incomplete,36,shape,1,left,Green_Plus_Chess_1.jpg,Purple_Plus_Dots_2.jpg,Blue_Star_Grid_1.jpg,left,908,true,NA,NA,NA,NA,NA,NA,NA,NA,true
TWbqg6Bp,3fhtjgyt9qduw7xo30k18rjdqjggpm,3bf51chdtzn7v6m9xnsv3aqy91p0hp,TWbqg6Bp,2020-0188,2020-11-15,03:17:06,03:34:58,NA,incomplete,37,shape,1,right,Green_Triangle_Stripes_4.jpg,Red_Star_Grid_4.jpg,Blue_Triangle_Chess_2.jpg,right,725,true,NA,NA,NA,NA,NA,NA,NA,NA,true
TWbqg6Bp,3fhtjgyt9qduw7xo30k18rjdqjggpm,3bf51chdtzn7v6m9xnsv3aqy91p0hp,TWbqg6Bp,2020-0188,2020-11-15,03:17:06,03:34:58,NA,incomplete,38,shape,1,left,Green_Star_Grid_2.jpg,Red_Star_Stripes_3.jpg,Purple_Triangle_Chess_2.jpg,left,924,true,NA,NA,NA,NA,NA,NA,NA,NA,true
TWbqg6Bp,3fhtjgyt9qduw7xo30k18rjdqjggpm,3bf51chdtzn7v6m9xnsv3aqy91p0hp,TWbqg6Bp,2020-0188,2020-11-15,03:17:06,03:34:58,NA,incomplete,39,shape,1,right,Green_Circle_Dots_4.jpg,Red_Plus_Chess_4.jpg,Purple_Circle_Grid_2.jpg,right,971,true,NA,NA,NA,NA,NA,NA,NA,NA,true
TWbqg6Bp,3fhtjgyt9qduw7xo30k18rjdqjggpm,3bf51chdtzn7v6m9xnsv3aqy91p0hp,TWbqg6Bp,2020-0188,2020-11-15,03:17:06,03:34:58,NA,incomplete,0,number,1,left,Purple_Star_Stripes_2.jpg,Green_Triangle_Grid_2.jpg,Red_Star_Dots_3.jpg,right,748,false,high,NA,NA,NA,NA,NA,NA,NA,false
TWbqg6Bp,3fhtjgyt9qduw7xo30k18rjdqjggpm,3bf51chdtzn7v6m9xnsv3aqy91p0hp,TWbqg6Bp,2020-0188,2020-11-15,03:17:06,03:34:58,NA,incomplete,1,number,1,right,Purple_Triangle_Dots_1.jpg,Blue_Triangle_Stripes_3.jpg,Green_Star_Grid_1.jpg,left,906,false,high,NA,NA,NA,NA,NA,NA,NA,false
TWbqg6Bp,3fhtjgyt9qduw7xo30k18rjdqjggpm,3bf51chdtzn7v6m9xnsv3aqy91p0hp,TWbqg6Bp,2020-0188,2020-11-15,03:17:06,03:34:58,NA,incomplete,2,number,1,left,Purple_Plus_Chess_4.jpg,Blue_Circle_Stripes_4.jpg,Green_Plus_Grid_3.jpg,left,1115,true,high,NA,NA,NA,NA,NA,NA,NA,false
TWbqg6Bp,3fhtjgyt9qduw7xo30k18rjdqjggpm,3bf51chdtzn7v6m9xnsv3aqy91p0hp,TWbqg6Bp,2020-0188,2020-11-15,03:17:06,03:34:58,NA,incomplete,3,number,1,left,Red_Circle_Stripes_2.jpg,Green_Plus_Dots_2.jpg,Purple_Circle_Chess_3.jpg,left,667,true,high,NA,NA,NA,NA,NA,NA,NA,false
TWbqg6Bp,3fhtjgyt9qduw7xo30k18rjdqjggpm,3bf51chdtzn7v6m9xnsv3aqy91p0hp,TWbqg6Bp,2020-0188,2020-11-15,03:17:06,03:34:58,NA,incomplete,4,number,1,left,Green_Plus_Stripes_2.jpg,Purple_Circle_Dots_2.jpg,Red_Plus_Grid_1.jpg,right,844,false,high,NA,NA,NA,NA,NA,NA,NA,false
TWbqg6Bp,3fhtjgyt9qduw7xo30k18rjdqjggpm,3bf51chdtzn7v6m9xnsv3aqy91p0hp,TWbqg6Bp,2020-0188,2020-11-15,03:17:06,03:34:58,NA,incomplete,5,number,1,left,Red_Plus_Chess_1.jpg,Blue_Circle_Dots_1.jpg,Purple_Plus_Grid_3.jpg,left,711,true,high,NA,NA,NA,NA,NA,NA,NA,false
TWbqg6Bp,3fhtjgyt9qduw7xo30k18rjdqjggpm,3bf51chdtzn7v6m9xnsv3aqy91p0hp,TWbqg6Bp,2020-0188,2020-11-15,03:17:06,03:34:58,NA,incomplete,6,number,1,left,Red_Circle_Chess_3.jpg,Purple_Star_Stripes_3.jpg,Blue_Circle_Dots_2.jpg,left,903,true,high,NA,NA,NA,NA,NA,NA,NA,false
TWbqg6Bp,3fhtjgyt9qduw7xo30k18rjdqjggpm,3bf51chdtzn7v6m9xnsv3aqy91p0hp,TWbqg6Bp,2020-0188,2020-11-15,03:17:06,03:34:58,NA,incomplete,7,number,1,right,Blue_Circle_Chess_4.jpg,Green_Circle_Grid_3.jpg,Red_Plus_Stripes_4.jpg,right,816,true,high,NA,NA,NA,NA,NA,NA,NA,false
TWbqg6Bp,3fhtjgyt9qduw7xo30k18rjdqjggpm,3bf51chdtzn7v6m9xnsv3aqy91p0hp,TWbqg6Bp,2020-0188,2020-11-15,03:17:06,03:34:58,NA,incomplete,8,number,1,right,Blue_Star_Dots_1.jpg,Green_Star_Stripes_2.jpg,Red_Triangle_Grid_1.jpg,right,1019,true,high,NA,NA,NA,NA,NA,NA,NA,false
TWbqg6Bp,3fhtjgyt9qduw7xo30k18rjdqjggpm,3bf51chdtzn7v6m9xnsv3aqy91p0hp,TWbqg6Bp,2020-0188,2020-11-15,03:17:06,03:34:58,NA,incomplete,9,number,1,left,Green_Star_Dots_4.jpg,Red_Triangle_Stripes_4.jpg,Blue_Star_Chess_1.jpg,left,631,true,high,NA,NA,NA,NA,NA,NA,NA,false
TWbqg6Bp,3fhtjgyt9qduw7xo30k18rjdqjggpm,3bf51chdtzn7v6m9xnsv3aqy91p0hp,TWbqg6Bp,2020-0188,2020-11-15,03:17:06,03:34:58,NA,incomplete,10,shape,1,right,Blue_Triangle_Stripes_2.jpg,Purple_Star_Dots_2.jpg,Red_Triangle_Grid_4.jpg,left,778,false,high,NA,NA,NA,NA,NA,NA,NA,false
TWbqg6Bp,3fhtjgyt9qduw7xo30k18rjdqjggpm,3bf51chdtzn7v6m9xnsv3aqy91p0hp,TWbqg6Bp,2020-0188,2020-11-15,03:17:06,03:34:58,NA,incomplete,11,shape,1,right,Red_Triangle_Chess_3.jpg,Purple_Circle_Grid_3.jpg,Blue_Triangle_Stripes_4.jpg,left,695,false,high,NA,NA,NA,NA,NA,NA,NA,false
TWbqg6Bp,3fhtjgyt9qduw7xo30k18rjdqjggpm,3bf51chdtzn7v6m9xnsv3aqy91p0hp,TWbqg6Bp,2020-0188,2020-11-15,03:17:06,03:34:58,NA,incomplete,12,shape,1,right,Green_Star_Stripes_4.jpg,Purple_Triangle_Dots_4.jpg,Red_Star_Grid_3.jpg,right,689,true,high,NA,NA,NA,NA,NA,NA,NA,false
TWbqg6Bp,3fhtjgyt9qduw7xo30k18rjdqjggpm,3bf51chdtzn7v6m9xnsv3aqy91p0hp,TWbqg6Bp,2020-0188,2020-11-15,03:17:06,03:34:58,NA,incomplete,13,shape,1,left,Green_Circle_Grid_2.jpg,Blue_Circle_Chess_4.jpg,Red_Star_Stripes_2.jpg,right,1112,false,high,NA,NA,NA,NA,NA,NA,NA,false
TWbqg6Bp,3fhtjgyt9qduw7xo30k18rjdqjggpm,3bf51chdtzn7v6m9xnsv3aqy91p0hp,TWbqg6Bp,2020-0188,2020-11-15,03:17:06,03:34:58,NA,incomplete,14,shape,1,right,Green_Star_Stripes_3.jpg,Blue_Triangle_Dots_3.jpg,Purple_Star_Grid_1.jpg,left,761,false,high,NA,NA,NA,NA,NA,NA,NA,false
TWbqg6Bp,3fhtjgyt9qduw7xo30k18rjdqjggpm,3bf51chdtzn7v6m9xnsv3aqy91p0hp,TWbqg6Bp,2020-0188,2020-11-15,03:17:06,03:34:58,NA,incomplete,15,shape,1,right,Blue_Triangle_Chess_4.jpg,Red_Circle_Grid_4.jpg,Purple_Triangle_Dots_2.jpg,right,606,true,high,NA,NA,NA,NA,NA,NA,NA,false
TWbqg6Bp,3fhtjgyt9qduw7xo30k18rjdqjggpm,3bf51chdtzn7v6m9xnsv3aqy91p0hp,TWbqg6Bp,2020-0188,2020-11-15,03:17:06,03:34:58,NA,incomplete,16,shape,1,left,Red_Star_Chess_1.jpg,Green_Star_Grid_3.jpg,Purple_Plus_Dots_1.jpg,left,971,true,high,NA,NA,NA,NA,NA,NA,NA,false
TWbqg6Bp,3fhtjgyt9qduw7xo30k18rjdqjggpm,3bf51chdtzn7v6m9xnsv3aqy91p0hp,TWbqg6Bp,2020-0188,2020-11-15,03:17:06,03:34:58,NA,incomplete,17,shape,0,right,Blue_Circle_Grid_2.jpg,Green_Triangle_Stripes_2.jpg,Purple_Circle_Dots_4.jpg,right,695,true,high,NA,NA,NA,NA,NA,NA,NA,false
TWbqg6Bp,3fhtjgyt9qduw7xo30k18rjdqjggpm,3bf51chdtzn7v6m9xnsv3aqy91p0hp,TWbqg6Bp,2020-0188,2020-11-15,03:17:06,03:34:58,NA,incomplete,18,shape,1,left,Red_Circle_Chess_1.jpg,Green_Circle_Stripes_2.jpg,Blue_Star_Dots_1.jpg,left,736,true,high,NA,NA,NA,NA,NA,NA,NA,false
TWbqg6Bp,3fhtjgyt9qduw7xo30k18rjdqjggpm,3bf51chdtzn7v6m9xnsv3aqy91p0hp,TWbqg6Bp,2020-0188,2020-11-15,03:17:06,03:34:58,NA,incomplete,19,shape,1,left,Red_Triangle_Dots_3.jpg,Green_Triangle_Grid_4.jpg,Purple_Star_Chess_3.jpg,left,806,true,high,NA,NA,NA,NA,NA,NA,NA,false
TWbqg6Bp,3fhtjgyt9qduw7xo30k18rjdqjggpm,3bf51chdtzn7v6m9xnsv3aqy91p0hp,TWbqg6Bp,2020-0188,2020-11-15,03:17:06,03:34:58,NA,incomplete,20,number,0,right,Green_Star_Stripes_2.jpg,Purple_Star_Dots_1.jpg,Blue_Plus_Grid_2.jpg,left,859,false,high,NA,NA,NA,NA,NA,NA,NA,false
TWbqg6Bp,3fhtjgyt9qduw7xo30k18rjdqjggpm,3bf51chdtzn7v6m9xnsv3aqy91p0hp,TWbqg6Bp,2020-0188,2020-11-15,03:17:06,03:34:58,NA,incomplete,21,number,1,right,Blue_Triangle_Grid_4.jpg,Purple_Triangle_Stripes_1.jpg,Green_Star_Dots_4.jpg,left,716,false,high,NA,NA,NA,NA,NA,NA,NA,false
TWbqg6Bp,3fhtjgyt9qduw7xo30k18rjdqjggpm,3bf51chdtzn7v6m9xnsv3aqy91p0hp,TWbqg6Bp,2020-0188,2020-11-15,03:17:06,03:34:58,NA,incomplete,22,number,0,left,Blue_Plus_Grid_3.jpg,Purple_Star_Chess_3.jpg,Green_Plus_Stripes_4.jpg,left,668,true,high,NA,NA,NA,NA,NA,NA,NA,false
TWbqg6Bp,3fhtjgyt9qduw7xo30k18rjdqjggpm,3bf51chdtzn7v6m9xnsv3aqy91p0hp,TWbqg6Bp,2020-0188,2020-11-15,03:17:06,03:34:58,NA,incomplete,23,number,1,left,Green_Circle_Stripes_4.jpg,Purple_Triangle_Grid_4.jpg,Blue_Circle_Chess_2.jpg,right,1190,false,high,NA,NA,NA,NA,NA,NA,NA,false
TWbqg6Bp,3fhtjgyt9qduw7xo30k18rjdqjggpm,3bf51chdtzn7v6m9xnsv3aqy91p0hp,TWbqg6Bp,2020-0188,2020-11-15,03:17:06,03:34:58,NA,incomplete,24,number,0,left,Red_Plus_Dots_2.jpg,Blue_Circle_Grid_2.jpg,Purple_Plus_Stripes_4.jpg,right,738,false,high,NA,NA,NA,NA,NA,NA,NA,false
TWbqg6Bp,3fhtjgyt9qduw7xo30k18rjdqjggpm,3bf51chdtzn7v6m9xnsv3aqy91p0hp,TWbqg6Bp,2020-0188,2020-11-15,03:17:06,03:34:58,NA,incomplete,25,number,1,right,Purple_Circle_Grid_1.jpg,Blue_Circle_Stripes_3.jpg,Green_Plus_Chess_1.jpg,left,665,false,high,NA,NA,NA,NA,NA,NA,NA,false
TWbqg6Bp,3fhtjgyt9qduw7xo30k18rjdqjggpm,3bf51chdtzn7v6m9xnsv3aqy91p0hp,TWbqg6Bp,2020-0188,2020-11-15,03:17:06,03:34:58,NA,incomplete,26,number,1,right,Blue_Plus_Grid_1.jpg,Green_Plus_Stripes_4.jpg,Red_Triangle_Dots_1.jpg,left,607,false,high,NA,NA,NA,NA,NA,NA,NA,false
TWbqg6Bp,3fhtjgyt9qduw7xo30k18rjdqjggpm,3bf51chdtzn7v6m9xnsv3aqy91p0hp,TWbqg6Bp,2020-0188,2020-11-15,03:17:06,03:34:58,NA,incomplete,27,number,0,left,Blue_Plus_Dots_1.jpg,Green_Triangle_Grid_1.jpg,Red_Plus_Chess_4.jpg,right,1032,false,high,NA,NA,NA,NA,NA,NA,NA,false
TWbqg6Bp,3fhtjgyt9qduw7xo30k18rjdqjggpm,3bf51chdtzn7v6m9xnsv3aqy91p0hp,TWbqg6Bp,2020-0188,2020-11-15,03:17:06,03:34:58,NA,incomplete,28,number,1,right,Purple_Circle_Dots_3.jpg,Blue_Circle_Stripes_4.jpg,Red_Triangle_Chess_3.jpg,left,626,false,high,NA,NA,NA,NA,NA,NA,NA,false
TWbqg6Bp,3fhtjgyt9qduw7xo30k18rjdqjggpm,3bf51chdtzn7v6m9xnsv3aqy91p0hp,TWbqg6Bp,2020-0188,2020-11-15,03:17:06,03:34:58,NA,incomplete,29,number,1,right,Purple_Triangle_Grid_2.jpg,Green_Triangle_Dots_1.jpg,Red_Circle_Stripes_2.jpg,left,710,false,high,NA,NA,NA,NA,NA,NA,NA,false
TWbqg6Bp,3fhtjgyt9qduw7xo30k18rjdqjggpm,3bf51chdtzn7v6m9xnsv3aqy91p0hp,TWbqg6Bp,2020-0188,2020-11-15,03:17:06,03:34:58,NA,incomplete,30,shape,1,left,Red_Plus_Stripes_3.jpg,Blue_Plus_Dots_4.jpg,Purple_Triangle_Grid_3.jpg,left,885,true,high,NA,NA,NA,NA,NA,NA,NA,false
TWbqg6Bp,3fhtjgyt9qduw7xo30k18rjdqjggpm,3bf51chdtzn7v6m9xnsv3aqy91p0hp,TWbqg6Bp,2020-0188,2020-11-15,03:17:06,03:34:58,NA,incomplete,31,shape,1,right,Purple_Plus_Stripes_3.jpg,Red_Star_Chess_3.jpg,Blue_Plus_Grid_2.jpg,right,1143,true,high,NA,NA,NA,NA,NA,NA,NA,false
TWbqg6Bp,3fhtjgyt9qduw7xo30k18rjdqjggpm,3bf51chdtzn7v6m9xnsv3aqy91p0hp,TWbqg6Bp,2020-0188,2020-11-15,03:17:06,03:34:58,NA,incomplete,32,shape,1,left,Red_Circle_Grid_1.jpg,Purple_Circle_Chess_3.jpg,Green_Star_Dots_1.jpg,left,654,true,high,NA,NA,NA,NA,NA,NA,NA,false
TWbqg6Bp,3fhtjgyt9qduw7xo30k18rjdqjggpm,3bf51chdtzn7v6m9xnsv3aqy91p0hp,TWbqg6Bp,2020-0188,2020-11-15,03:17:06,03:34:58,NA,incomplete,33,shape,1,left,Green_Star_Chess_1.jpg,Red_Star_Grid_4.jpg,Purple_Triangle_Dots_1.jpg,left,703,true,high,NA,NA,NA,NA,NA,NA,NA,false
TWbqg6Bp,3fhtjgyt9qduw7xo30k18rjdqjggpm,3bf51chdtzn7v6m9xnsv3aqy91p0hp,TWbqg6Bp,2020-0188,2020-11-15,03:17:06,03:34:58,NA,incomplete,34,shape,0,right,Green_Circle_Stripes_1.jpg,Red_Star_Grid_1.jpg,Purple_Circle_Chess_4.jpg,right,790,true,high,NA,NA,NA,NA,NA,NA,NA,false
TWbqg6Bp,3fhtjgyt9qduw7xo30k18rjdqjggpm,3bf51chdtzn7v6m9xnsv3aqy91p0hp,TWbqg6Bp,2020-0188,2020-11-15,03:17:06,03:34:58,NA,incomplete,35,shape,1,right,Red_Triangle_Dots_3.jpg,Green_Circle_Grid_3.jpg,Purple_Triangle_Chess_4.jpg,right,1012,true,high,NA,NA,NA,NA,NA,NA,NA,false
TWbqg6Bp,3fhtjgyt9qduw7xo30k18rjdqjggpm,3bf51chdtzn7v6m9xnsv3aqy91p0hp,TWbqg6Bp,2020-0188,2020-11-15,03:17:06,03:34:58,NA,incomplete,36,shape,0,left,Red_Star_Dots_1.jpg,Purple_Star_Chess_4.jpg,Blue_Triangle_Stripes_1.jpg,left,639,true,high,NA,NA,NA,NA,NA,NA,NA,false
TWbqg6Bp,3fhtjgyt9qduw7xo30k18rjdqjggpm,3bf51chdtzn7v6m9xnsv3aqy91p0hp,TWbqg6Bp,2020-0188,2020-11-15,03:17:06,03:34:58,NA,incomplete,37,shape,0,right,Red_Triangle_Chess_4.jpg,Blue_Circle_Stripes_4.jpg,Purple_Triangle_Grid_1.jpg,right,706,true,high,NA,NA,NA,NA,NA,NA,NA,false
TWbqg6Bp,3fhtjgyt9qduw7xo30k18rjdqjggpm,3bf51chdtzn7v6m9xnsv3aqy91p0hp,TWbqg6Bp,2020-0188,2020-11-15,03:17:06,03:34:58,NA,incomplete,38,shape,1,right,Green_Plus_Chess_2.jpg,Red_Circle_Grid_2.jpg,Blue_Plus_Stripes_1.jpg,right,762,true,high,NA,NA,NA,NA,NA,NA,NA,false
TWbqg6Bp,3fhtjgyt9qduw7xo30k18rjdqjggpm,3bf51chdtzn7v6m9xnsv3aqy91p0hp,TWbqg6Bp,2020-0188,2020-11-15,03:17:06,03:34:58,NA,incomplete,39,shape,1,left,Purple_Circle_Chess_4.jpg,Blue_Circle_Dots_3.jpg,Green_Star_Grid_4.jpg,left,616,true,high,NA,NA,NA,NA,NA,NA,NA,false
TWbqg6Bp,3fhtjgyt9qduw7xo30k18rjdqjggpm,3bf51chdtzn7v6m9xnsv3aqy91p0hp,TWbqg6Bp,2020-0188,2020-11-15,03:17:06,03:34:58,NA,incomplete,40,number,0,right,Red_Star_Dots_2.jpg,Purple_Star_Stripes_4.jpg,Blue_Plus_Grid_2.jpg,left,715,false,high,NA,NA,NA,NA,NA,NA,NA,false
TWbqg6Bp,3fhtjgyt9qduw7xo30k18rjdqjggpm,3bf51chdtzn7v6m9xnsv3aqy91p0hp,TWbqg6Bp,2020-0188,2020-11-15,03:17:06,03:34:58,NA,incomplete,41,number,1,right,Green_Star_Chess_3.jpg,Purple_Star_Dots_1.jpg,Blue_Circle_Grid_3.jpg,left,643,false,high,NA,NA,NA,NA,NA,NA,NA,false
TWbqg6Bp,3fhtjgyt9qduw7xo30k18rjdqjggpm,3bf51chdtzn7v6m9xnsv3aqy91p0hp,TWbqg6Bp,2020-0188,2020-11-15,03:17:06,03:34:58,NA,incomplete,42,number,1,left,Blue_Circle_Chess_4.jpg,Red_Star_Dots_4.jpg,Green_Circle_Grid_1.jpg,right,599,false,high,NA,NA,NA,NA,NA,NA,NA,false
TWbqg6Bp,3fhtjgyt9qduw7xo30k18rjdqjggpm,3bf51chdtzn7v6m9xnsv3aqy91p0hp,TWbqg6Bp,2020-0188,2020-11-15,03:17:06,03:34:58,NA,incomplete,43,number,1,left,Red_Circle_Chess_4.jpg,Green_Star_Dots_4.jpg,Blue_Circle_Stripes_3.jpg,right,602,false,high,NA,NA,NA,NA,NA,NA,NA,false
TWbqg6Bp,3fhtjgyt9qduw7xo30k18rjdqjggpm,3bf51chdtzn7v6m9xnsv3aqy91p0hp,TWbqg6Bp,2020-0188,2020-11-15,03:17:06,03:34:58,NA,incomplete,44,number,1,left,Red_Circle_Grid_1.jpg,Green_Triangle_Chess_1.jpg,Blue_Circle_Dots_3.jpg,right,567,false,high,NA,NA,NA,NA,NA,NA,NA,false
TWbqg6Bp,3fhtjgyt9qduw7xo30k18rjdqjggpm,3bf51chdtzn7v6m9xnsv3aqy91p0hp,TWbqg6Bp,2020-0188,2020-11-15,03:17:06,03:34:58,NA,incomplete,45,number,1,left,Blue_Plus_Grid_1.jpg,Green_Circle_Dots_1.jpg,Red_Plus_Chess_4.jpg,left,573,true,high,NA,NA,NA,NA,NA,NA,NA,false
TWbqg6Bp,3fhtjgyt9qduw7xo30k18rjdqjggpm,3bf51chdtzn7v6m9xnsv3aqy91p0hp,TWbqg6Bp,2020-0188,2020-11-15,03:17:06,03:34:58,NA,incomplete,46,number,1,left,Purple_Circle_Dots_3.jpg,Red_Triangle_Chess_3.jpg,Blue_Circle_Stripes_1.jpg,left,626,true,high,NA,NA,NA,NA,NA,NA,NA,false
TWbqg6Bp,3fhtjgyt9qduw7xo30k18rjdqjggpm,3bf51chdtzn7v6m9xnsv3aqy91p0hp,TWbqg6Bp,2020-0188,2020-11-15,03:17:06,03:34:58,NA,incomplete,47,number,1,right,Purple_Star_Dots_4.jpg,Blue_Star_Chess_2.jpg,Green_Plus_Grid_4.jpg,right,733,true,high,NA,NA,NA,NA,NA,NA,NA,false
TWbqg6Bp,3fhtjgyt9qduw7xo30k18rjdqjggpm,3bf51chdtzn7v6m9xnsv3aqy91p0hp,TWbqg6Bp,2020-0188,2020-11-15,03:17:06,03:34:58,NA,incomplete,48,number,0,left,Blue_Plus_Dots_4.jpg,Red_Star_Chess_4.jpg,Green_Plus_Stripes_2.jpg,left,556,true,high,NA,NA,NA,NA,NA,NA,NA,false
TWbqg6Bp,3fhtjgyt9qduw7xo30k18rjdqjggpm,3bf51chdtzn7v6m9xnsv3aqy91p0hp,TWbqg6Bp,2020-0188,2020-11-15,03:17:06,03:34:58,NA,incomplete,49,number,1,right,Purple_Star_Grid_3.jpg,Red_Star_Dots_1.jpg,Blue_Plus_Chess_3.jpg,right,587,true,high,NA,NA,NA,NA,NA,NA,NA,false
TWbqg6Bp,3fhtjgyt9qduw7xo30k18rjdqjggpm,3bf51chdtzn7v6m9xnsv3aqy91p0hp,TWbqg6Bp,2020-0188,2020-11-15,03:17:06,03:34:58,NA,incomplete,50,shape,1,right,Red_Triangle_Dots_3.jpg,Green_Circle_Chess_3.jpg,Purple_Triangle_Stripes_4.jpg,left,911,false,high,NA,NA,NA,NA,NA,NA,NA,false
TWbqg6Bp,3fhtjgyt9qduw7xo30k18rjdqjggpm,3bf51chdtzn7v6m9xnsv3aqy91p0hp,TWbqg6Bp,2020-0188,2020-11-15,03:17:06,03:34:58,NA,incomplete,51,shape,1,right,Green_Star_Grid_1.jpg,Blue_Plus_Dots_1.jpg,Purple_Star_Chess_3.jpg,left,791,false,high,NA,NA,NA,NA,NA,NA,NA,false
TWbqg6Bp,3fhtjgyt9qduw7xo30k18rjdqjggpm,3bf51chdtzn7v6m9xnsv3aqy91p0hp,TWbqg6Bp,2020-0188,2020-11-15,03:17:06,03:34:58,NA,incomplete,52,shape,1,left,Purple_Circle_Dots_2.jpg,Blue_Circle_Chess_3.jpg,Red_Triangle_Grid_2.jpg,left,1378,true,high,NA,NA,NA,NA,NA,NA,NA,false
TWbqg6Bp,3fhtjgyt9qduw7xo30k18rjdqjggpm,3bf51chdtzn7v6m9xnsv3aqy91p0hp,TWbqg6Bp,2020-0188,2020-11-15,03:17:06,03:34:58,NA,incomplete,53,shape,1,right,Green_Triangle_Grid_4.jpg,Purple_Star_Dots_4.jpg,Red_Triangle_Chess_1.jpg,right,1018,true,high,NA,NA,NA,NA,NA,NA,NA,false
TWbqg6Bp,3fhtjgyt9qduw7xo30k18rjdqjggpm,3bf51chdtzn7v6m9xnsv3aqy91p0hp,TWbqg6Bp,2020-0188,2020-11-15,03:17:06,03:34:58,NA,incomplete,54,shape,1,left,Purple_Triangle_Chess_3.jpg,Green_Triangle_Dots_4.jpg,Red_Plus_Stripes_3.jpg,left,844,true,high,NA,NA,NA,NA,NA,NA,NA,false
TWbqg6Bp,3fhtjgyt9qduw7xo30k18rjdqjggpm,3bf51chdtzn7v6m9xnsv3aqy91p0hp,TWbqg6Bp,2020-0188,2020-11-15,03:17:06,03:34:58,NA,incomplete,55,shape,1,left,Purple_Circle_Chess_3.jpg,Green_Circle_Grid_2.jpg,Blue_Plus_Stripes_3.jpg,left,863,true,high,NA,NA,NA,NA,NA,NA,NA,false
TWbqg6Bp,3fhtjgyt9qduw7xo30k18rjdqjggpm,3bf51chdtzn7v6m9xnsv3aqy91p0hp,TWbqg6Bp,2020-0188,2020-11-15,03:17:06,03:34:58,NA,incomplete,56,shape,1,left,Red_Circle_Chess_1.jpg,Green_Circle_Dots_4.jpg,Purple_Plus_Stripes_1.jpg,left,673,true,high,NA,NA,NA,NA,NA,NA,NA,false
TWbqg6Bp,3fhtjgyt9qduw7xo30k18rjdqjggpm,3bf51chdtzn7v6m9xnsv3aqy91p0hp,TWbqg6Bp,2020-0188,2020-11-15,03:17:06,03:34:58,NA,incomplete,57,shape,0,left,Purple_Triangle_Grid_2.jpg,Green_Triangle_Chess_1.jpg,Blue_Plus_Stripes_2.jpg,left,731,true,high,NA,NA,NA,NA,NA,NA,NA,false
TWbqg6Bp,3fhtjgyt9qduw7xo30k18rjdqjggpm,3bf51chdtzn7v6m9xnsv3aqy91p0hp,TWbqg6Bp,2020-0188,2020-11-15,03:17:06,03:34:58,NA,incomplete,58,shape,1,left,Green_Plus_Dots_3.jpg,Purple_Plus_Grid_4.jpg,Red_Circle_Chess_3.jpg,left,1545,true,high,NA,NA,NA,NA,NA,NA,NA,false
TWbqg6Bp,3fhtjgyt9qduw7xo30k18rjdqjggpm,3bf51chdtzn7v6m9xnsv3aqy91p0hp,TWbqg6Bp,2020-0188,2020-11-15,03:17:06,03:34:58,NA,incomplete,59,shape,1,left,Green_Plus_Grid_3.jpg,Red_Plus_Stripes_1.jpg,Purple_Star_Chess_3.jpg,left,945,true,high,NA,NA,NA,NA,NA,NA,NA,false
TWbqg6Bp,3fhtjgyt9qduw7xo30k18rjdqjggpm,3bf51chdtzn7v6m9xnsv3aqy91p0hp,TWbqg6Bp,2020-0188,2020-11-15,03:17:06,03:34:58,NA,incomplete,60,number,1,right,Red_Triangle_Grid_3.jpg,Blue_Triangle_Stripes_4.jpg,Green_Star_Dots_3.jpg,left,711,false,high,NA,NA,NA,NA,NA,NA,NA,false
TWbqg6Bp,3fhtjgyt9qduw7xo30k18rjdqjggpm,3bf51chdtzn7v6m9xnsv3aqy91p0hp,TWbqg6Bp,2020-0188,2020-11-15,03:17:06,03:34:58,NA,incomplete,61,number,1,left,Purple_Plus_Chess_3.jpg,Red_Circle_Dots_3.jpg,Blue_Plus_Stripes_1.jpg,left,775,true,high,NA,NA,NA,NA,NA,NA,NA,false
TWbqg6Bp,3fhtjgyt9qduw7xo30k18rjdqjggpm,3bf51chdtzn7v6m9xnsv3aqy91p0hp,TWbqg6Bp,2020-0188,2020-11-15,03:17:06,03:34:58,NA,incomplete,62,number,0,right,Blue_Star_Dots_2.jpg,Purple_Star_Chess_3.jpg,Red_Circle_Stripes_2.jpg,right,917,true,high,NA,NA,NA,NA,NA,NA,NA,false
TWbqg6Bp,3fhtjgyt9qduw7xo30k18rjdqjggpm,3bf51chdtzn7v6m9xnsv3aqy91p0hp,TWbqg6Bp,2020-0188,2020-11-15,03:17:06,03:34:58,NA,incomplete,63,number,1,right,Red_Plus_Chess_1.jpg,Green_Plus_Dots_3.jpg,Purple_Triangle_Stripes_1.jpg,left,923,false,high,NA,NA,NA,NA,NA,NA,NA,false
TWbqg6Bp,3fhtjgyt9qduw7xo30k18rjdqjggpm,3bf51chdtzn7v6m9xnsv3aqy91p0hp,TWbqg6Bp,2020-0188,2020-11-15,03:17:06,03:34:58,NA,incomplete,64,number,1,left,Red_Plus_Dots_4.jpg,Blue_Circle_Stripes_4.jpg,Green_Plus_Grid_1.jpg,left,858,true,high,NA,NA,NA,NA,NA,NA,NA,false
TWbqg6Bp,3fhtjgyt9qduw7xo30k18rjdqjggpm,3bf51chdtzn7v6m9xnsv3aqy91p0hp,TWbqg6Bp,2020-0188,2020-11-15,03:17:06,03:34:58,NA,incomplete,65,number,1,left,Green_Triangle_Dots_1.jpg,Purple_Circle_Chess_1.jpg,Blue_Triangle_Stripes_3.jpg,left,788,true,high,NA,NA,NA,NA,NA,NA,NA,false
TWbqg6Bp,3fhtjgyt9qduw7xo30k18rjdqjggpm,3bf51chdtzn7v6m9xnsv3aqy91p0hp,TWbqg6Bp,2020-0188,2020-11-15,03:17:06,03:34:58,NA,incomplete,66,number,1,left,Blue_Plus_Dots_2.jpg,Green_Star_Grid_2.jpg,Red_Plus_Chess_3.jpg,left,738,true,high,NA,NA,NA,NA,NA,NA,NA,false
TWbqg6Bp,3fhtjgyt9qduw7xo30k18rjdqjggpm,3bf51chdtzn7v6m9xnsv3aqy91p0hp,TWbqg6Bp,2020-0188,2020-11-15,03:17:06,03:34:58,NA,incomplete,67,number,1,left,Red_Circle_Stripes_2.jpg,Purple_Plus_Dots_2.jpg,Green_Circle_Grid_4.jpg,right,752,false,high,NA,NA,NA,NA,NA,NA,NA,false
TWbqg6Bp,3fhtjgyt9qduw7xo30k18rjdqjggpm,3bf51chdtzn7v6m9xnsv3aqy91p0hp,TWbqg6Bp,2020-0188,2020-11-15,03:17:06,03:34:58,NA,incomplete,68,number,1,right,Purple_Triangle_Grid_2.jpg,Red_Triangle_Stripes_1.jpg,Blue_Star_Dots_2.jpg,right,1095,true,high,NA,NA,NA,NA,NA,NA,NA,false
TWbqg6Bp,3fhtjgyt9qduw7xo30k18rjdqjggpm,3bf51chdtzn7v6m9xnsv3aqy91p0hp,TWbqg6Bp,2020-0188,2020-11-15,03:17:06,03:34:58,NA,incomplete,69,number,0,left,Purple_Circle_Grid_2.jpg,Blue_Triangle_Stripes_2.jpg,Red_Circle_Dots_1.jpg,left,751,true,high,NA,NA,NA,NA,NA,NA,NA,false
TWbqg6Bp,3fhtjgyt9qduw7xo30k18rjdqjggpm,3bf51chdtzn7v6m9xnsv3aqy91p0hp,TWbqg6Bp,2020-0188,2020-11-15,03:17:06,03:34:58,NA,incomplete,70,shape,1,left,Red_Star_Grid_1.jpg,Blue_Star_Dots_2.jpg,Green_Triangle_Stripes_1.jpg,right,1094,false,high,NA,NA,NA,NA,NA,NA,NA,false
TWbqg6Bp,3fhtjgyt9qduw7xo30k18rjdqjggpm,3bf51chdtzn7v6m9xnsv3aqy91p0hp,TWbqg6Bp,2020-0188,2020-11-15,03:17:06,03:34:58,NA,incomplete,71,shape,1,right,Green_Circle_Stripes_2.jpg,Purple_Plus_Dots_2.jpg,Red_Circle_Grid_4.jpg,right,774,true,high,NA,NA,NA,NA,NA,NA,NA,false
TWbqg6Bp,3fhtjgyt9qduw7xo30k18rjdqjggpm,3bf51chdtzn7v6m9xnsv3aqy91p0hp,TWbqg6Bp,2020-0188,2020-11-15,03:17:06,03:34:58,NA,incomplete,72,shape,1,right,Blue_Plus_Chess_2.jpg,Purple_Triangle_Stripes_2.jpg,Green_Plus_Grid_3.jpg,right,803,true,high,NA,NA,NA,NA,NA,NA,NA,false
TWbqg6Bp,3fhtjgyt9qduw7xo30k18rjdqjggpm,3bf51chdtzn7v6m9xnsv3aqy91p0hp,TWbqg6Bp,2020-0188,2020-11-15,03:17:06,03:34:58,NA,incomplete,73,shape,1,left,Purple_Triangle_Dots_2.jpg,Blue_Triangle_Chess_4.jpg,Green_Star_Grid_2.jpg,right,664,false,high,NA,NA,NA,NA,NA,NA,NA,false
TWbqg6Bp,3fhtjgyt9qduw7xo30k18rjdqjggpm,3bf51chdtzn7v6m9xnsv3aqy91p0hp,TWbqg6Bp,2020-0188,2020-11-15,03:17:06,03:34:58,NA,incomplete,74,shape,1,right,Green_Star_Stripes_4.jpg,Red_Circle_Grid_4.jpg,Blue_Star_Dots_1.jpg,left,706,false,high,NA,NA,NA,NA,NA,NA,NA,false
TWbqg6Bp,3fhtjgyt9qduw7xo30k18rjdqjggpm,3bf51chdtzn7v6m9xnsv3aqy91p0hp,TWbqg6Bp,2020-0188,2020-11-15,03:17:06,03:34:58,NA,incomplete,75,shape,1,left,Green_Triangle_Chess_1.jpg,Blue_Triangle_Dots_3.jpg,Purple_Circle_Grid_1.jpg,left,1082,true,high,NA,NA,NA,NA,NA,NA,NA,false
TWbqg6Bp,3fhtjgyt9qduw7xo30k18rjdqjggpm,3bf51chdtzn7v6m9xnsv3aqy91p0hp,TWbqg6Bp,2020-0188,2020-11-15,03:17:06,03:34:58,NA,incomplete,76,shape,1,right,Purple_Star_Grid_1.jpg,Blue_Circle_Stripes_1.jpg,Red_Star_Dots_3.jpg,right,994,true,high,NA,NA,NA,NA,NA,NA,NA,false
TWbqg6Bp,3fhtjgyt9qduw7xo30k18rjdqjggpm,3bf51chdtzn7v6m9xnsv3aqy91p0hp,TWbqg6Bp,2020-0188,2020-11-15,03:17:06,03:34:58,NA,incomplete,77,shape,1,left,Purple_Plus_Grid_2.jpg,Green_Plus_Stripes_1.jpg,Red_Star_Chess_2.jpg,right,831,false,high,NA,NA,NA,NA,NA,NA,NA,false
TWbqg6Bp,3fhtjgyt9qduw7xo30k18rjdqjggpm,3bf51chdtzn7v6m9xnsv3aqy91p0hp,TWbqg6Bp,2020-0188,2020-11-15,03:17:06,03:34:58,NA,incomplete,78,shape,1,left,Red_Circle_Dots_4.jpg,Blue_Circle_Chess_2.jpg,Purple_Triangle_Grid_4.jpg,left,930,true,high,NA,NA,NA,NA,NA,NA,NA,false
TWbqg6Bp,3fhtjgyt9qduw7xo30k18rjdqjggpm,3bf51chdtzn7v6m9xnsv3aqy91p0hp,TWbqg6Bp,2020-0188,2020-11-15,03:17:06,03:34:58,NA,incomplete,79,shape,1,right,Green_Circle_Chess_3.jpg,Blue_Star_Grid_3.jpg,Red_Circle_Dots_4.jpg,right,721,true,high,NA,NA,NA,NA,NA,NA,NA,false
TWbqg6Bp,3fhtjgyt9qduw7xo30k18rjdqjggpm,3bf51chdtzn7v6m9xnsv3aqy91p0hp,TWbqg6Bp,2020-0188,2020-11-15,03:17:06,03:34:58,NA,incomplete,80,number,1,right,Red_Circle_Grid_2.jpg,Blue_Circle_Dots_4.jpg,Purple_Triangle_Chess_2.jpg,left,634,false,high,NA,NA,NA,NA,NA,NA,NA,false
TWbqg6Bp,3fhtjgyt9qduw7xo30k18rjdqjggpm,3bf51chdtzn7v6m9xnsv3aqy91p0hp,TWbqg6Bp,2020-0188,2020-11-15,03:17:06,03:34:58,NA,incomplete,81,number,1,left,Purple_Plus_Stripes_3.jpg,Red_Triangle_Chess_3.jpg,Green_Plus_Dots_4.jpg,right,844,false,high,NA,NA,NA,NA,NA,NA,NA,false
TWbqg6Bp,3fhtjgyt9qduw7xo30k18rjdqjggpm,3bf51chdtzn7v6m9xnsv3aqy91p0hp,TWbqg6Bp,2020-0188,2020-11-15,03:17:06,03:34:58,NA,incomplete,82,number,1,left,Green_Triangle_Chess_3.jpg,Blue_Plus_Grid_3.jpg,Purple_Triangle_Dots_4.jpg,left,720,true,high,NA,NA,NA,NA,NA,NA,NA,false
TWbqg6Bp,3fhtjgyt9qduw7xo30k18rjdqjggpm,3bf51chdtzn7v6m9xnsv3aqy91p0hp,TWbqg6Bp,2020-0188,2020-11-15,03:17:06,03:34:58,NA,incomplete,83,number,1,right,Blue_Circle_Dots_4.jpg,Green_Circle_Stripes_2.jpg,Purple_Plus_Chess_4.jpg,right,789,true,high,NA,NA,NA,NA,NA,NA,NA,false
TWbqg6Bp,3fhtjgyt9qduw7xo30k18rjdqjggpm,3bf51chdtzn7v6m9xnsv3aqy91p0hp,TWbqg6Bp,2020-0188,2020-11-15,03:17:06,03:34:58,NA,incomplete,84,number,1,left,Green_Triangle_Grid_2.jpg,Red_Star_Chess_2.jpg,Purple_Triangle_Stripes_4.jpg,left,789,true,high,NA,NA,NA,NA,NA,NA,NA,false
TWbqg6Bp,3fhtjgyt9qduw7xo30k18rjdqjggpm,3bf51chdtzn7v6m9xnsv3aqy91p0hp,TWbqg6Bp,2020-0188,2020-11-15,03:17:06,03:34:58,NA,incomplete,85,number,1,right,Red_Star_Grid_4.jpg,Green_Star_Chess_2.jpg,Blue_Plus_Stripes_4.jpg,left,912,false,high,NA,NA,NA,NA,NA,NA,NA,false
TWbqg6Bp,3fhtjgyt9qduw7xo30k18rjdqjggpm,3bf51chdtzn7v6m9xnsv3aqy91p0hp,TWbqg6Bp,2020-0188,2020-11-15,03:17:06,03:34:58,NA,incomplete,86,number,1,right,Green_Circle_Stripes_2.jpg,Blue_Circle_Chess_1.jpg,Red_Plus_Grid_2.jpg,left,759,false,high,NA,NA,NA,NA,NA,NA,NA,false
TWbqg6Bp,3fhtjgyt9qduw7xo30k18rjdqjggpm,3bf51chdtzn7v6m9xnsv3aqy91p0hp,TWbqg6Bp,2020-0188,2020-11-15,03:17:06,03:34:58,NA,incomplete,87,number,1,left,Purple_Triangle_Chess_3.jpg,Green_Plus_Dots_3.jpg,Red_Triangle_Grid_4.jpg,left,669,true,high,NA,NA,NA,NA,NA,NA,NA,false
TWbqg6Bp,3fhtjgyt9qduw7xo30k18rjdqjggpm,3bf51chdtzn7v6m9xnsv3aqy91p0hp,TWbqg6Bp,2020-0188,2020-11-15,03:17:06,03:34:58,NA,incomplete,88,number,1,right,Purple_Star_Chess_3.jpg,Red_Star_Stripes_1.jpg,Green_Triangle_Grid_3.jpg,right,671,true,high,NA,NA,NA,NA,NA,NA,NA,false
TWbqg6Bp,3fhtjgyt9qduw7xo30k18rjdqjggpm,3bf51chdtzn7v6m9xnsv3aqy91p0hp,TWbqg6Bp,2020-0188,2020-11-15,03:17:06,03:34:58,NA,incomplete,89,number,1,left,Blue_Star_Grid_3.jpg,Red_Triangle_Stripes_3.jpg,Green_Star_Chess_1.jpg,left,600,true,high,NA,NA,NA,NA,NA,NA,NA,false
TWbqg6Bp,3fhtjgyt9qduw7xo30k18rjdqjggpm,3bf51chdtzn7v6m9xnsv3aqy91p0hp,TWbqg6Bp,2020-0188,2020-11-15,03:17:06,03:34:58,NA,incomplete,90,shape,1,right,Blue_Circle_Stripes_1.jpg,Purple_Plus_Chess_1.jpg,Red_Circle_Dots_3.jpg,left,1301,false,high,NA,NA,NA,NA,NA,NA,NA,false
TWbqg6Bp,3fhtjgyt9qduw7xo30k18rjdqjggpm,3bf51chdtzn7v6m9xnsv3aqy91p0hp,TWbqg6Bp,2020-0188,2020-11-15,03:17:06,03:34:58,NA,incomplete,91,shape,1,right,Green_Circle_Dots_4.jpg,Purple_Star_Stripes_4.jpg,Red_Circle_Grid_3.jpg,right,934,true,high,NA,NA,NA,NA,NA,NA,NA,false
TWbqg6Bp,3fhtjgyt9qduw7xo30k18rjdqjggpm,3bf51chdtzn7v6m9xnsv3aqy91p0hp,TWbqg6Bp,2020-0188,2020-11-15,03:17:06,03:34:58,NA,incomplete,92,shape,1,right,Green_Star_Dots_2.jpg,Red_Plus_Chess_2.jpg,Blue_Star_Grid_3.jpg,right,941,true,high,NA,NA,NA,NA,NA,NA,NA,false
TWbqg6Bp,3fhtjgyt9qduw7xo30k18rjdqjggpm,3bf51chdtzn7v6m9xnsv3aqy91p0hp,TWbqg6Bp,2020-0188,2020-11-15,03:17:06,03:34:58,NA,incomplete,93,shape,0,left,Purple_Circle_Chess_2.jpg,Red_Circle_Dots_1.jpg,Green_Triangle_Stripes_2.jpg,left,708,true,high,NA,NA,NA,NA,NA,NA,NA,false
TWbqg6Bp,3fhtjgyt9qduw7xo30k18rjdqjggpm,3bf51chdtzn7v6m9xnsv3aqy91p0hp,TWbqg6Bp,2020-0188,2020-11-15,03:17:06,03:34:58,NA,incomplete,94,shape,0,right,Purple_Star_Grid_4.jpg,Blue_Circle_Dots_4.jpg,Red_Star_Chess_3.jpg,left,868,false,high,NA,NA,NA,NA,NA,NA,NA,false
TWbqg6Bp,3fhtjgyt9qduw7xo30k18rjdqjggpm,3bf51chdtzn7v6m9xnsv3aqy91p0hp,TWbqg6Bp,2020-0188,2020-11-15,03:17:06,03:34:58,NA,incomplete,95,shape,1,right,Green_Star_Chess_1.jpg,Purple_Plus_Stripes_1.jpg,Red_Star_Dots_3.jpg,left,644,false,high,NA,NA,NA,NA,NA,NA,NA,false
TWbqg6Bp,3fhtjgyt9qduw7xo30k18rjdqjggpm,3bf51chdtzn7v6m9xnsv3aqy91p0hp,TWbqg6Bp,2020-0188,2020-11-15,03:17:06,03:34:58,NA,incomplete,96,shape,0,left,Green_Circle_Chess_1.jpg,Red_Circle_Grid_4.jpg,Purple_Triangle_Dots_1.jpg,right,744,false,high,NA,NA,NA,NA,NA,NA,NA,false
TWbqg6Bp,3fhtjgyt9qduw7xo30k18rjdqjggpm,3bf51chdtzn7v6m9xnsv3aqy91p0hp,TWbqg6Bp,2020-0188,2020-11-15,03:17:06,03:34:58,NA,incomplete,97,shape,1,left,Red_Plus_Stripes_3.jpg,Green_Plus_Dots_2.jpg,Purple_Triangle_Grid_3.jpg,right,895,false,high,NA,NA,NA,NA,NA,NA,NA,false
TWbqg6Bp,3fhtjgyt9qduw7xo30k18rjdqjggpm,3bf51chdtzn7v6m9xnsv3aqy91p0hp,TWbqg6Bp,2020-0188,2020-11-15,03:17:06,03:34:58,NA,incomplete,98,shape,1,right,Purple_Plus_Stripes_4.jpg,Blue_Circle_Dots_4.jpg,Red_Plus_Chess_2.jpg,left,654,false,high,NA,NA,NA,NA,NA,NA,NA,false
TWbqg6Bp,3fhtjgyt9qduw7xo30k18rjdqjggpm,3bf51chdtzn7v6m9xnsv3aqy91p0hp,TWbqg6Bp,2020-0188,2020-11-15,03:17:06,03:34:58,NA,incomplete,99,shape,1,left,Red_Triangle_Chess_4.jpg,Blue_Triangle_Dots_2.jpg,Purple_Circle_Grid_4.jpg,right,1481,false,high,NA,NA,NA,NA,NA,NA,NA,false
TWbqg6Bp,3fhtjgyt9qduw7xo30k18rjdqjggpm,3bf51chdtzn7v6m9xnsv3aqy91p0hp,TWbqg6Bp,2020-0188,2020-11-15,03:17:06,03:34:58,NA,incomplete,100,number,1,right,Purple_Triangle_Chess_2.jpg,Red_Triangle_Stripes_3.jpg,Blue_Plus_Dots_2.jpg,right,835,true,high,NA,NA,NA,NA,NA,NA,NA,false
TWbqg6Bp,3fhtjgyt9qduw7xo30k18rjdqjggpm,3bf51chdtzn7v6m9xnsv3aqy91p0hp,TWbqg6Bp,2020-0188,2020-11-15,03:17:06,03:34:58,NA,incomplete,101,number,0,right,Purple_Triangle_Chess_3.jpg,Blue_Triangle_Grid_2.jpg,Green_Circle_Stripes_3.jpg,left,565,false,high,NA,NA,NA,NA,NA,NA,NA,false
TWbqg6Bp,3fhtjgyt9qduw7xo30k18rjdqjggpm,3bf51chdtzn7v6m9xnsv3aqy91p0hp,TWbqg6Bp,2020-0188,2020-11-15,03:17:06,03:34:58,NA,incomplete,102,number,0,left,Red_Triangle_Grid_1.jpg,Green_Plus_Stripes_1.jpg,Purple_Triangle_Dots_4.jpg,right,980,false,high,NA,NA,NA,NA,NA,NA,NA,false
TWbqg6Bp,3fhtjgyt9qduw7xo30k18rjdqjggpm,3bf51chdtzn7v6m9xnsv3aqy91p0hp,TWbqg6Bp,2020-0188,2020-11-15,03:17:06,03:34:58,NA,incomplete,103,number,0,right,Green_Circle_Stripes_4.jpg,Purple_Circle_Dots_2.jpg,Red_Triangle_Chess_4.jpg,left,817,false,high,NA,NA,NA,NA,NA,NA,NA,false
TWbqg6Bp,3fhtjgyt9qduw7xo30k18rjdqjggpm,3bf51chdtzn7v6m9xnsv3aqy91p0hp,TWbqg6Bp,2020-0188,2020-11-15,03:17:06,03:34:58,NA,incomplete,104,number,1,left,Blue_Circle_Chess_1.jpg,Red_Plus_Grid_1.jpg,Purple_Circle_Dots_2.jpg,right,604,false,high,NA,NA,NA,NA,NA,NA,NA,false
TWbqg6Bp,3fhtjgyt9qduw7xo30k18rjdqjggpm,3bf51chdtzn7v6m9xnsv3aqy91p0hp,TWbqg6Bp,2020-0188,2020-11-15,03:17:06,03:34:58,NA,incomplete,105,number,0,left,Red_Triangle_Grid_4.jpg,Blue_Circle_Dots_4.jpg,Green_Triangle_Stripes_2.jpg,left,720,true,high,NA,NA,NA,NA,NA,NA,NA,false
TWbqg6Bp,3fhtjgyt9qduw7xo30k18rjdqjggpm,3bf51chdtzn7v6m9xnsv3aqy91p0hp,TWbqg6Bp,2020-0188,2020-11-15,03:17:06,03:34:58,NA,incomplete,106,number,0,right,Purple_Triangle_Dots_2.jpg,Green_Triangle_Chess_4.jpg,Blue_Plus_Grid_2.jpg,right,825,true,high,NA,NA,NA,NA,NA,NA,NA,false
TWbqg6Bp,3fhtjgyt9qduw7xo30k18rjdqjggpm,3bf51chdtzn7v6m9xnsv3aqy91p0hp,TWbqg6Bp,2020-0188,2020-11-15,03:17:06,03:34:58,NA,incomplete,107,number,0,right,Green_Plus_Dots_1.jpg,Purple_Plus_Stripes_3.jpg,Red_Star_Chess_1.jpg,right,867,true,high,NA,NA,NA,NA,NA,NA,NA,false
TWbqg6Bp,3fhtjgyt9qduw7xo30k18rjdqjggpm,3bf51chdtzn7v6m9xnsv3aqy91p0hp,TWbqg6Bp,2020-0188,2020-11-15,03:17:06,03:34:58,NA,incomplete,108,number,1,left,Purple_Star_Stripes_2.jpg,Blue_Circle_Dots_2.jpg,Red_Star_Grid_1.jpg,right,700,false,high,NA,NA,NA,NA,NA,NA,NA,false
TWbqg6Bp,3fhtjgyt9qduw7xo30k18rjdqjggpm,3bf51chdtzn7v6m9xnsv3aqy91p0hp,TWbqg6Bp,2020-0188,2020-11-15,03:17:06,03:34:58,NA,incomplete,109,number,0,left,Green_Circle_Grid_1.jpg,Red_Plus_Chess_1.jpg,Blue_Circle_Dots_4.jpg,right,758,false,high,NA,NA,NA,NA,NA,NA,NA,false
TWbqg6Bp,3fhtjgyt9qduw7xo30k18rjdqjggpm,3bf51chdtzn7v6m9xnsv3aqy91p0hp,TWbqg6Bp,2020-0188,2020-11-15,03:17:06,03:34:58,NA,incomplete,110,shape,1,left,Blue_Triangle_Dots_1.jpg,Green_Triangle_Grid_2.jpg,Red_Star_Stripes_1.jpg,left,635,true,high,NA,NA,NA,NA,NA,NA,NA,false
TWbqg6Bp,3fhtjgyt9qduw7xo30k18rjdqjggpm,3bf51chdtzn7v6m9xnsv3aqy91p0hp,TWbqg6Bp,2020-0188,2020-11-15,03:17:06,03:34:58,NA,incomplete,111,shape,1,right,Red_Plus_Stripes_2.jpg,Blue_Triangle_Dots_2.jpg,Purple_Plus_Chess_4.jpg,right,1358,true,high,NA,NA,NA,NA,NA,NA,NA,false
TWbqg6Bp,3fhtjgyt9qduw7xo30k18rjdqjggpm,3bf51chdtzn7v6m9xnsv3aqy91p0hp,TWbqg6Bp,2020-0188,2020-11-15,03:17:06,03:34:58,NA,incomplete,112,shape,1,right,Red_Circle_Stripes_1.jpg,Blue_Triangle_Chess_1.jpg,Green_Circle_Dots_2.jpg,right,717,true,high,NA,NA,NA,NA,NA,NA,NA,false
TWbqg6Bp,3fhtjgyt9qduw7xo30k18rjdqjggpm,3bf51chdtzn7v6m9xnsv3aqy91p0hp,TWbqg6Bp,2020-0188,2020-11-15,03:17:06,03:34:58,NA,incomplete,113,shape,1,right,Red_Plus_Chess_1.jpg,Blue_Triangle_Grid_1.jpg,Green_Plus_Stripes_3.jpg,right,805,true,high,NA,NA,NA,NA,NA,NA,NA,false
TWbqg6Bp,3fhtjgyt9qduw7xo30k18rjdqjggpm,3bf51chdtzn7v6m9xnsv3aqy91p0hp,TWbqg6Bp,2020-0188,2020-11-15,03:17:06,03:34:58,NA,incomplete,114,shape,1,right,Red_Circle_Chess_2.jpg,Purple_Star_Stripes_2.jpg,Blue_Circle_Grid_1.jpg,right,817,true,high,NA,NA,NA,NA,NA,NA,NA,false
TWbqg6Bp,3fhtjgyt9qduw7xo30k18rjdqjggpm,3bf51chdtzn7v6m9xnsv3aqy91p0hp,TWbqg6Bp,2020-0188,2020-11-15,03:17:06,03:34:58,NA,incomplete,115,shape,0,right,Green_Plus_Dots_2.jpg,Purple_Circle_Grid_2.jpg,Red_Plus_Stripes_1.jpg,right,684,true,high,NA,NA,NA,NA,NA,NA,NA,false
TWbqg6Bp,3fhtjgyt9qduw7xo30k18rjdqjggpm,3bf51chdtzn7v6m9xnsv3aqy91p0hp,TWbqg6Bp,2020-0188,2020-11-15,03:17:06,03:34:58,NA,incomplete,116,shape,1,right,Red_Plus_Chess_4.jpg,Purple_Circle_Dots_4.jpg,Green_Plus_Stripes_1.jpg,right,701,true,high,NA,NA,NA,NA,NA,NA,NA,false
TWbqg6Bp,3fhtjgyt9qduw7xo30k18rjdqjggpm,3bf51chdtzn7v6m9xnsv3aqy91p0hp,TWbqg6Bp,2020-0188,2020-11-15,03:17:06,03:34:58,NA,incomplete,117,shape,1,right,Red_Star_Dots_1.jpg,Green_Circle_Chess_1.jpg,Blue_Star_Grid_3.jpg,right,863,true,high,NA,NA,NA,NA,NA,NA,NA,false
TWbqg6Bp,3fhtjgyt9qduw7xo30k18rjdqjggpm,3bf51chdtzn7v6m9xnsv3aqy91p0hp,TWbqg6Bp,2020-0188,2020-11-15,03:17:06,03:34:58,NA,incomplete,118,shape,1,left,Red_Circle_Chess_2.jpg,Purple_Circle_Grid_1.jpg,Blue_Star_Dots_2.jpg,left,712,true,high,NA,NA,NA,NA,NA,NA,NA,false
TWbqg6Bp,3fhtjgyt9qduw7xo30k18rjdqjggpm,3bf51chdtzn7v6m9xnsv3aqy91p0hp,TWbqg6Bp,2020-0188,2020-11-15,03:17:06,03:34:58,NA,incomplete,119,shape,1,right,Red_Star_Stripes_1.jpg,Green_Plus_Grid_1.jpg,Blue_Star_Dots_2.jpg,right,728,true,high,NA,NA,NA,NA,NA,NA,NA,false
TWbqg6Bp,3fhtjgyt9qduw7xo30k18rjdqjggpm,3bf51chdtzn7v6m9xnsv3aqy91p0hp,TWbqg6Bp,2020-0188,2020-11-15,03:17:06,03:34:58,NA,incomplete,120,number,1,right,Purple_Plus_Grid_4.jpg,Blue_Plus_Stripes_3.jpg,Green_Star_Dots_4.jpg,left,719,false,high,NA,NA,NA,NA,NA,NA,NA,false
TWbqg6Bp,3fhtjgyt9qduw7xo30k18rjdqjggpm,3bf51chdtzn7v6m9xnsv3aqy91p0hp,TWbqg6Bp,2020-0188,2020-11-15,03:17:06,03:34:58,NA,incomplete,121,number,1,right,Green_Plus_Dots_3.jpg,Blue_Plus_Grid_1.jpg,Red_Triangle_Stripes_3.jpg,left,768,false,high,NA,NA,NA,NA,NA,NA,NA,false
TWbqg6Bp,3fhtjgyt9qduw7xo30k18rjdqjggpm,3bf51chdtzn7v6m9xnsv3aqy91p0hp,TWbqg6Bp,2020-0188,2020-11-15,03:17:06,03:34:58,NA,incomplete,122,number,1,left,Purple_Star_Dots_1.jpg,Blue_Plus_Chess_1.jpg,Green_Star_Stripes_2.jpg,left,757,true,high,NA,NA,NA,NA,NA,NA,NA,false
TWbqg6Bp,3fhtjgyt9qduw7xo30k18rjdqjggpm,3bf51chdtzn7v6m9xnsv3aqy91p0hp,TWbqg6Bp,2020-0188,2020-11-15,03:17:06,03:34:58,NA,incomplete,123,number,1,left,Blue_Circle_Chess_4.jpg,Purple_Star_Dots_4.jpg,Red_Circle_Stripes_1.jpg,left,1108,true,high,NA,NA,NA,NA,NA,NA,NA,false
TWbqg6Bp,3fhtjgyt9qduw7xo30k18rjdqjggpm,3bf51chdtzn7v6m9xnsv3aqy91p0hp,TWbqg6Bp,2020-0188,2020-11-15,03:17:06,03:34:58,NA,incomplete,124,number,1,right,Blue_Plus_Dots_1.jpg,Green_Plus_Grid_4.jpg,Red_Triangle_Chess_1.jpg,right,716,true,high,NA,NA,NA,NA,NA,NA,NA,false
TWbqg6Bp,3fhtjgyt9qduw7xo30k18rjdqjggpm,3bf51chdtzn7v6m9xnsv3aqy91p0hp,TWbqg6Bp,2020-0188,2020-11-15,03:17:06,03:34:58,NA,incomplete,125,number,1,right,Red_Plus_Stripes_3.jpg,Green_Plus_Chess_4.jpg,Purple_Circle_Grid_3.jpg,left,1019,false,high,NA,NA,NA,NA,NA,NA,NA,false
TWbqg6Bp,3fhtjgyt9qduw7xo30k18rjdqjggpm,3bf51chdtzn7v6m9xnsv3aqy91p0hp,TWbqg6Bp,2020-0188,2020-11-15,03:17:06,03:34:58,NA,incomplete,126,number,1,left,Red_Plus_Chess_1.jpg,Blue_Star_Stripes_1.jpg,Purple_Plus_Grid_4.jpg,left,551,true,high,NA,NA,NA,NA,NA,NA,NA,false
TWbqg6Bp,3fhtjgyt9qduw7xo30k18rjdqjggpm,3bf51chdtzn7v6m9xnsv3aqy91p0hp,TWbqg6Bp,2020-0188,2020-11-15,03:17:06,03:34:58,NA,incomplete,127,number,1,left,Green_Plus_Chess_3.jpg,Blue_Star_Grid_3.jpg,Red_Plus_Stripes_2.jpg,left,766,true,high,NA,NA,NA,NA,NA,NA,NA,false
TWbqg6Bp,3fhtjgyt9qduw7xo30k18rjdqjggpm,3bf51chdtzn7v6m9xnsv3aqy91p0hp,TWbqg6Bp,2020-0188,2020-11-15,03:17:06,03:34:58,NA,incomplete,128,number,1,right,Green_Star_Stripes_3.jpg,Red_Star_Dots_4.jpg,Purple_Circle_Chess_3.jpg,right,875,true,high,NA,NA,NA,NA,NA,NA,NA,false
TWbqg6Bp,3fhtjgyt9qduw7xo30k18rjdqjggpm,3bf51chdtzn7v6m9xnsv3aqy91p0hp,TWbqg6Bp,2020-0188,2020-11-15,03:17:06,03:34:58,NA,incomplete,129,number,1,left,Blue_Plus_Chess_4.jpg,Purple_Star_Dots_4.jpg,Red_Plus_Stripes_1.jpg,left,670,true,high,NA,NA,NA,NA,NA,NA,NA,false
TWbqg6Bp,3fhtjgyt9qduw7xo30k18rjdqjggpm,3bf51chdtzn7v6m9xnsv3aqy91p0hp,TWbqg6Bp,2020-0188,2020-11-15,03:17:06,03:34:58,NA,incomplete,130,number,0,right,Red_Plus_Chess_2.jpg,Green_Plus_Stripes_3.jpg,Blue_Star_Grid_2.jpg,right,895,true,high,NA,NA,NA,NA,NA,NA,NA,false
TWbqg6Bp,3fhtjgyt9qduw7xo30k18rjdqjggpm,3bf51chdtzn7v6m9xnsv3aqy91p0hp,TWbqg6Bp,2020-0188,2020-11-15,03:17:06,03:34:58,NA,incomplete,131,number,1,right,Red_Triangle_Grid_4.jpg,Green_Triangle_Dots_3.jpg,Blue_Plus_Stripes_4.jpg,right,943,true,high,NA,NA,NA,NA,NA,NA,NA,false
TWbqg6Bp,3fhtjgyt9qduw7xo30k18rjdqjggpm,3bf51chdtzn7v6m9xnsv3aqy91p0hp,TWbqg6Bp,2020-0188,2020-11-15,03:17:06,03:34:58,NA,incomplete,132,number,1,left,Green_Star_Chess_2.jpg,Red_Plus_Dots_2.jpg,Purple_Star_Grid_4.jpg,left,693,true,high,NA,NA,NA,NA,NA,NA,NA,false
TWbqg6Bp,3fhtjgyt9qduw7xo30k18rjdqjggpm,3bf51chdtzn7v6m9xnsv3aqy91p0hp,TWbqg6Bp,2020-0188,2020-11-15,03:17:06,03:34:58,NA,incomplete,133,number,1,right,Green_Star_Dots_3.jpg,Blue_Star_Grid_4.jpg,Red_Plus_Stripes_3.jpg,right,767,true,high,NA,NA,NA,NA,NA,NA,NA,false
TWbqg6Bp,3fhtjgyt9qduw7xo30k18rjdqjggpm,3bf51chdtzn7v6m9xnsv3aqy91p0hp,TWbqg6Bp,2020-0188,2020-11-15,03:17:06,03:34:58,NA,incomplete,134,number,1,right,Blue_Circle_Grid_1.jpg,Purple_Circle_Dots_4.jpg,Red_Triangle_Chess_1.jpg,right,701,true,high,NA,NA,NA,NA,NA,NA,NA,false
TWbqg6Bp,3fhtjgyt9qduw7xo30k18rjdqjggpm,3bf51chdtzn7v6m9xnsv3aqy91p0hp,TWbqg6Bp,2020-0188,2020-11-15,03:17:06,03:34:58,NA,incomplete,135,number,1,right,Blue_Circle_Grid_3.jpg,Green_Circle_Stripes_2.jpg,Red_Triangle_Chess_3.jpg,right,621,true,high,NA,NA,NA,NA,NA,NA,NA,false
TWbqg6Bp,3fhtjgyt9qduw7xo30k18rjdqjggpm,3bf51chdtzn7v6m9xnsv3aqy91p0hp,TWbqg6Bp,2020-0188,2020-11-15,03:17:06,03:34:58,NA,incomplete,136,number,0,right,Red_Plus_Chess_4.jpg,Green_Plus_Dots_2.jpg,Blue_Triangle_Stripes_4.jpg,right,816,true,high,NA,NA,NA,NA,NA,NA,NA,false
TWbqg6Bp,3fhtjgyt9qduw7xo30k18rjdqjggpm,3bf51chdtzn7v6m9xnsv3aqy91p0hp,TWbqg6Bp,2020-0188,2020-11-15,03:17:06,03:34:58,NA,incomplete,137,number,1,left,Blue_Star_Dots_4.jpg,Purple_Triangle_Chess_4.jpg,Red_Star_Grid_2.jpg,left,709,true,high,NA,NA,NA,NA,NA,NA,NA,false
TWbqg6Bp,3fhtjgyt9qduw7xo30k18rjdqjggpm,3bf51chdtzn7v6m9xnsv3aqy91p0hp,TWbqg6Bp,2020-0188,2020-11-15,03:17:06,03:34:58,NA,incomplete,138,number,0,left,Green_Star_Dots_2.jpg,Purple_Triangle_Chess_2.jpg,Blue_Star_Stripes_3.jpg,left,652,true,high,NA,NA,NA,NA,NA,NA,NA,false
TWbqg6Bp,3fhtjgyt9qduw7xo30k18rjdqjggpm,3bf51chdtzn7v6m9xnsv3aqy91p0hp,TWbqg6Bp,2020-0188,2020-11-15,03:17:06,03:34:58,NA,incomplete,139,number,1,left,Blue_Circle_Stripes_4.jpg,Red_Star_Chess_4.jpg,Green_Circle_Dots_3.jpg,left,870,true,high,NA,NA,NA,NA,NA,NA,NA,false
TWbqg6Bp,3fhtjgyt9qduw7xo30k18rjdqjggpm,3bf51chdtzn7v6m9xnsv3aqy91p0hp,TWbqg6Bp,2020-0188,2020-11-15,03:17:06,03:34:58,NA,incomplete,140,shape,1,right,Blue_Circle_Dots_2.jpg,Green_Plus_Grid_2.jpg,Purple_Circle_Stripes_3.jpg,left,760,false,high,NA,NA,NA,NA,NA,NA,NA,false
TWbqg6Bp,3fhtjgyt9qduw7xo30k18rjdqjggpm,3bf51chdtzn7v6m9xnsv3aqy91p0hp,TWbqg6Bp,2020-0188,2020-11-15,03:17:06,03:34:58,NA,incomplete,141,shape,1,right,Blue_Star_Chess_2.jpg,Purple_Circle_Dots_2.jpg,Green_Star_Grid_4.jpg,left,525,false,high,NA,NA,NA,NA,NA,NA,NA,false
TWbqg6Bp,3fhtjgyt9qduw7xo30k18rjdqjggpm,3bf51chdtzn7v6m9xnsv3aqy91p0hp,TWbqg6Bp,2020-0188,2020-11-15,03:17:06,03:34:58,NA,incomplete,142,shape,0,right,Purple_Triangle_Stripes_4.jpg,Green_Circle_Chess_4.jpg,Blue_Triangle_Dots_1.jpg,left,829,false,high,NA,NA,NA,NA,NA,NA,NA,false
TWbqg6Bp,3fhtjgyt9qduw7xo30k18rjdqjggpm,3bf51chdtzn7v6m9xnsv3aqy91p0hp,TWbqg6Bp,2020-0188,2020-11-15,03:17:06,03:34:58,NA,incomplete,143,shape,1,right,Red_Star_Stripes_4.jpg,Blue_Plus_Chess_4.jpg,Purple_Star_Grid_1.jpg,left,672,false,high,NA,NA,NA,NA,NA,NA,NA,false
TWbqg6Bp,3fhtjgyt9qduw7xo30k18rjdqjggpm,3bf51chdtzn7v6m9xnsv3aqy91p0hp,TWbqg6Bp,2020-0188,2020-11-15,03:17:06,03:34:58,NA,incomplete,144,shape,1,left,Blue_Star_Chess_4.jpg,Green_Star_Dots_2.jpg,Purple_Triangle_Stripes_4.jpg,right,698,false,high,NA,NA,NA,NA,NA,NA,NA,false
TWbqg6Bp,3fhtjgyt9qduw7xo30k18rjdqjggpm,3bf51chdtzn7v6m9xnsv3aqy91p0hp,TWbqg6Bp,2020-0188,2020-11-15,03:17:06,03:34:58,NA,incomplete,145,shape,0,left,Purple_Plus_Dots_1.jpg,Blue_Plus_Stripes_4.jpg,Red_Star_Chess_1.jpg,right,714,false,high,NA,NA,NA,NA,NA,NA,NA,false
TWbqg6Bp,3fhtjgyt9qduw7xo30k18rjdqjggpm,3bf51chdtzn7v6m9xnsv3aqy91p0hp,TWbqg6Bp,2020-0188,2020-11-15,03:17:06,03:34:58,NA,incomplete,146,shape,1,right,Green_Triangle_Dots_3.jpg,Purple_Plus_Grid_3.jpg,Blue_Triangle_Stripes_2.jpg,left,626,false,high,NA,NA,NA,NA,NA,NA,NA,false
TWbqg6Bp,3fhtjgyt9qduw7xo30k18rjdqjggpm,3bf51chdtzn7v6m9xnsv3aqy91p0hp,TWbqg6Bp,2020-0188,2020-11-15,03:17:06,03:34:58,NA,incomplete,147,shape,0,left,Purple_Circle_Stripes_2.jpg,Blue_Circle_Grid_1.jpg,Green_Star_Dots_2.jpg,right,765,false,high,NA,NA,NA,NA,NA,NA,NA,false
TWbqg6Bp,3fhtjgyt9qduw7xo30k18rjdqjggpm,3bf51chdtzn7v6m9xnsv3aqy91p0hp,TWbqg6Bp,2020-0188,2020-11-15,03:17:06,03:34:58,NA,incomplete,148,shape,1,right,Blue_Star_Dots_3.jpg,Green_Plus_Chess_3.jpg,Red_Star_Stripes_1.jpg,left,603,false,high,NA,NA,NA,NA,NA,NA,NA,false
TWbqg6Bp,3fhtjgyt9qduw7xo30k18rjdqjggpm,3bf51chdtzn7v6m9xnsv3aqy91p0hp,TWbqg6Bp,2020-0188,2020-11-15,03:17:06,03:34:58,NA,incomplete,149,shape,1,left,Red_Star_Chess_2.jpg,Blue_Star_Stripes_4.jpg,Green_Circle_Grid_2.jpg,right,777,false,high,NA,NA,NA,NA,NA,NA,NA,false
TWbqg6Bp,3fhtjgyt9qduw7xo30k18rjdqjggpm,3bf51chdtzn7v6m9xnsv3aqy91p0hp,TWbqg6Bp,2020-0188,2020-11-15,03:17:06,03:34:58,NA,incomplete,150,shape,1,right,Red_Triangle_Chess_4.jpg,Green_Plus_Stripes_4.jpg,Purple_Triangle_Dots_3.jpg,left,724,false,high,NA,NA,NA,NA,NA,NA,NA,false
TWbqg6Bp,3fhtjgyt9qduw7xo30k18rjdqjggpm,3bf51chdtzn7v6m9xnsv3aqy91p0hp,TWbqg6Bp,2020-0188,2020-11-15,03:17:06,03:34:58,NA,incomplete,151,shape,0,left,Purple_Plus_Dots_3.jpg,Green_Plus_Grid_4.jpg,Red_Star_Chess_3.jpg,left,885,true,high,NA,NA,NA,NA,NA,NA,NA,false
TWbqg6Bp,3fhtjgyt9qduw7xo30k18rjdqjggpm,3bf51chdtzn7v6m9xnsv3aqy91p0hp,TWbqg6Bp,2020-0188,2020-11-15,03:17:06,03:34:58,NA,incomplete,152,shape,1,left,Purple_Star_Grid_1.jpg,Green_Star_Dots_2.jpg,Red_Circle_Stripes_1.jpg,left,1116,true,high,NA,NA,NA,NA,NA,NA,NA,false
TWbqg6Bp,3fhtjgyt9qduw7xo30k18rjdqjggpm,3bf51chdtzn7v6m9xnsv3aqy91p0hp,TWbqg6Bp,2020-0188,2020-11-15,03:17:06,03:34:58,NA,incomplete,153,shape,1,right,Red_Star_Stripes_3.jpg,Green_Triangle_Chess_3.jpg,Purple_Star_Dots_1.jpg,right,932,true,high,NA,NA,NA,NA,NA,NA,NA,false
TWbqg6Bp,3fhtjgyt9qduw7xo30k18rjdqjggpm,3bf51chdtzn7v6m9xnsv3aqy91p0hp,TWbqg6Bp,2020-0188,2020-11-15,03:17:06,03:34:58,NA,incomplete,154,shape,0,left,Red_Circle_Grid_3.jpg,Green_Circle_Chess_2.jpg,Purple_Star_Dots_3.jpg,left,772,true,high,NA,NA,NA,NA,NA,NA,NA,false
TWbqg6Bp,3fhtjgyt9qduw7xo30k18rjdqjggpm,3bf51chdtzn7v6m9xnsv3aqy91p0hp,TWbqg6Bp,2020-0188,2020-11-15,03:17:06,03:34:58,NA,incomplete,155,shape,1,right,Blue_Plus_Grid_1.jpg,Red_Circle_Dots_1.jpg,Green_Plus_Stripes_4.jpg,right,777,true,high,NA,NA,NA,NA,NA,NA,NA,false
TWbqg6Bp,3fhtjgyt9qduw7xo30k18rjdqjggpm,3bf51chdtzn7v6m9xnsv3aqy91p0hp,TWbqg6Bp,2020-0188,2020-11-15,03:17:06,03:34:58,NA,incomplete,156,shape,1,left,Blue_Star_Stripes_3.jpg,Purple_Star_Dots_1.jpg,Green_Circle_Grid_3.jpg,left,1015,true,high,NA,NA,NA,NA,NA,NA,NA,false
TWbqg6Bp,3fhtjgyt9qduw7xo30k18rjdqjggpm,3bf51chdtzn7v6m9xnsv3aqy91p0hp,TWbqg6Bp,2020-0188,2020-11-15,03:17:06,03:34:58,NA,incomplete,157,shape,1,left,Green_Plus_Stripes_4.jpg,Purple_Plus_Chess_3.jpg,Blue_Circle_Dots_4.jpg,left,787,true,high,NA,NA,NA,NA,NA,NA,NA,false
TWbqg6Bp,3fhtjgyt9qduw7xo30k18rjdqjggpm,3bf51chdtzn7v6m9xnsv3aqy91p0hp,TWbqg6Bp,2020-0188,2020-11-15,03:17:06,03:34:58,NA,incomplete,158,shape,0,right,Red_Star_Chess_3.jpg,Purple_Plus_Stripes_3.jpg,Blue_Star_Dots_1.jpg,right,927,true,high,NA,NA,NA,NA,NA,NA,NA,false
TWbqg6Bp,3fhtjgyt9qduw7xo30k18rjdqjggpm,3bf51chdtzn7v6m9xnsv3aqy91p0hp,TWbqg6Bp,2020-0188,2020-11-15,03:17:06,03:34:58,NA,incomplete,159,shape,1,left,Green_Plus_Dots_2.jpg,Red_Plus_Stripes_3.jpg,Blue_Circle_Chess_2.jpg,left,1175,true,high,NA,NA,NA,NA,NA,NA,NA,false
TWbqg6Bp,3fhtjgyt9qduw7xo30k18rjdqjggpm,3bf51chdtzn7v6m9xnsv3aqy91p0hp,TWbqg6Bp,2020-0188,2020-11-15,03:17:06,03:34:58,NA,incomplete,160,number,0,right,Purple_Star_Chess_2.jpg,Green_Star_Dots_4.jpg,Red_Triangle_Grid_2.jpg,left,819,false,high,NA,NA,NA,NA,NA,NA,NA,false
TWbqg6Bp,3fhtjgyt9qduw7xo30k18rjdqjggpm,3bf51chdtzn7v6m9xnsv3aqy91p0hp,TWbqg6Bp,2020-0188,2020-11-15,03:17:06,03:34:58,NA,incomplete,161,number,1,right,Purple_Triangle_Stripes_1.jpg,Green_Triangle_Grid_3.jpg,Red_Star_Chess_1.jpg,left,744,false,high,NA,NA,NA,NA,NA,NA,NA,false
TWbqg6Bp,3fhtjgyt9qduw7xo30k18rjdqjggpm,3bf51chdtzn7v6m9xnsv3aqy91p0hp,TWbqg6Bp,2020-0188,2020-11-15,03:17:06,03:34:58,NA,incomplete,162,number,1,right,Green_Star_Chess_4.jpg,Blue_Star_Dots_2.jpg,Red_Circle_Stripes_4.jpg,left,821,false,high,NA,NA,NA,NA,NA,NA,NA,false
TWbqg6Bp,3fhtjgyt9qduw7xo30k18rjdqjggpm,3bf51chdtzn7v6m9xnsv3aqy91p0hp,TWbqg6Bp,2020-0188,2020-11-15,03:17:06,03:34:58,NA,incomplete,163,number,1,left,Blue_Star_Stripes_4.jpg,Green_Circle_Grid_4.jpg,Purple_Star_Chess_2.jpg,right,969,false,high,NA,NA,NA,NA,NA,NA,NA,false
TWbqg6Bp,3fhtjgyt9qduw7xo30k18rjdqjggpm,3bf51chdtzn7v6m9xnsv3aqy91p0hp,TWbqg6Bp,2020-0188,2020-11-15,03:17:06,03:34:58,NA,incomplete,164,number,0,left,Green_Circle_Grid_1.jpg,Red_Plus_Chess_1.jpg,Blue_Circle_Dots_4.jpg,left,719,true,high,NA,NA,NA,NA,NA,NA,NA,false
TWbqg6Bp,3fhtjgyt9qduw7xo30k18rjdqjggpm,3bf51chdtzn7v6m9xnsv3aqy91p0hp,TWbqg6Bp,2020-0188,2020-11-15,03:17:06,03:34:58,NA,incomplete,165,number,1,right,Blue_Plus_Grid_3.jpg,Green_Plus_Chess_1.jpg,Red_Triangle_Stripes_3.jpg,right,647,true,high,NA,NA,NA,NA,NA,NA,NA,false
TWbqg6Bp,3fhtjgyt9qduw7xo30k18rjdqjggpm,3bf51chdtzn7v6m9xnsv3aqy91p0hp,TWbqg6Bp,2020-0188,2020-11-15,03:17:06,03:34:58,NA,incomplete,166,number,1,right,Purple_Circle_Chess_3.jpg,Green_Circle_Stripes_2.jpg,Blue_Plus_Dots_3.jpg,right,697,true,high,NA,NA,NA,NA,NA,NA,NA,false
TWbqg6Bp,3fhtjgyt9qduw7xo30k18rjdqjggpm,3bf51chdtzn7v6m9xnsv3aqy91p0hp,TWbqg6Bp,2020-0188,2020-11-15,03:17:06,03:34:58,NA,incomplete,167,number,1,right,Green_Circle_Chess_3.jpg,Blue_Circle_Dots_4.jpg,Purple_Plus_Grid_3.jpg,right,714,true,high,NA,NA,NA,NA,NA,NA,NA,false
TWbqg6Bp,3fhtjgyt9qduw7xo30k18rjdqjggpm,3bf51chdtzn7v6m9xnsv3aqy91p0hp,TWbqg6Bp,2020-0188,2020-11-15,03:17:06,03:34:58,NA,incomplete,168,number,0,left,Red_Plus_Grid_2.jpg,Blue_Star_Dots_2.jpg,Purple_Plus_Chess_3.jpg,left,730,true,high,NA,NA,NA,NA,NA,NA,NA,false
TWbqg6Bp,3fhtjgyt9qduw7xo30k18rjdqjggpm,3bf51chdtzn7v6m9xnsv3aqy91p0hp,TWbqg6Bp,2020-0188,2020-11-15,03:17:06,03:34:58,NA,incomplete,169,number,1,right,Red_Circle_Stripes_2.jpg,Blue_Circle_Grid_4.jpg,Green_Star_Dots_2.jpg,right,681,true,high,NA,NA,NA,NA,NA,NA,NA,false
TWbqg6Bp,3fhtjgyt9qduw7xo30k18rjdqjggpm,3bf51chdtzn7v6m9xnsv3aqy91p0hp,TWbqg6Bp,2020-0188,2020-11-15,03:17:06,03:34:58,NA,incomplete,170,number,1,left,Purple_Triangle_Grid_3.jpg,Green_Plus_Dots_3.jpg,Red_Triangle_Stripes_1.jpg,left,635,true,high,NA,NA,NA,NA,NA,NA,NA,false
TWbqg6Bp,3fhtjgyt9qduw7xo30k18rjdqjggpm,3bf51chdtzn7v6m9xnsv3aqy91p0hp,TWbqg6Bp,2020-0188,2020-11-15,03:17:06,03:34:58,NA,incomplete,171,number,1,right,Red_Star_Grid_1.jpg,Green_Star_Dots_3.jpg,Blue_Triangle_Stripes_1.jpg,right,686,true,high,NA,NA,NA,NA,NA,NA,NA,false
TWbqg6Bp,3fhtjgyt9qduw7xo30k18rjdqjggpm,3bf51chdtzn7v6m9xnsv3aqy91p0hp,TWbqg6Bp,2020-0188,2020-11-15,03:17:06,03:34:58,NA,incomplete,172,number,0,right,Purple_Star_Chess_1.jpg,Blue_Star_Stripes_3.jpg,Red_Plus_Grid_1.jpg,right,671,true,high,NA,NA,NA,NA,NA,NA,NA,false
TWbqg6Bp,3fhtjgyt9qduw7xo30k18rjdqjggpm,3bf51chdtzn7v6m9xnsv3aqy91p0hp,TWbqg6Bp,2020-0188,2020-11-15,03:17:06,03:34:58,NA,incomplete,173,number,1,right,Blue_Star_Grid_1.jpg,Purple_Star_Chess_2.jpg,Red_Plus_Stripes_1.jpg,right,713,true,high,NA,NA,NA,NA,NA,NA,NA,false
TWbqg6Bp,3fhtjgyt9qduw7xo30k18rjdqjggpm,3bf51chdtzn7v6m9xnsv3aqy91p0hp,TWbqg6Bp,2020-0188,2020-11-15,03:17:06,03:34:58,NA,incomplete,174,number,1,left,Blue_Plus_Chess_1.jpg,Red_Star_Dots_1.jpg,Purple_Plus_Grid_4.jpg,left,687,true,high,NA,NA,NA,NA,NA,NA,NA,false
TWbqg6Bp,3fhtjgyt9qduw7xo30k18rjdqjggpm,3bf51chdtzn7v6m9xnsv3aqy91p0hp,TWbqg6Bp,2020-0188,2020-11-15,03:17:06,03:34:58,NA,incomplete,175,number,1,left,Green_Star_Stripes_2.jpg,Red_Triangle_Grid_2.jpg,Blue_Star_Dots_1.jpg,left,698,true,high,NA,NA,NA,NA,NA,NA,NA,false
TWbqg6Bp,3fhtjgyt9qduw7xo30k18rjdqjggpm,3bf51chdtzn7v6m9xnsv3aqy91p0hp,TWbqg6Bp,2020-0188,2020-11-15,03:17:06,03:34:58,NA,incomplete,176,number,1,left,Green_Plus_Dots_3.jpg,Purple_Triangle_Chess_3.jpg,Red_Plus_Grid_1.jpg,left,689,true,high,NA,NA,NA,NA,NA,NA,NA,false
TWbqg6Bp,3fhtjgyt9qduw7xo30k18rjdqjggpm,3bf51chdtzn7v6m9xnsv3aqy91p0hp,TWbqg6Bp,2020-0188,2020-11-15,03:17:06,03:34:58,NA,incomplete,177,number,1,left,Purple_Circle_Grid_4.jpg,Red_Triangle_Stripes_4.jpg,Blue_Circle_Chess_3.jpg,left,970,true,high,NA,NA,NA,NA,NA,NA,NA,false
TWbqg6Bp,3fhtjgyt9qduw7xo30k18rjdqjggpm,3bf51chdtzn7v6m9xnsv3aqy91p0hp,TWbqg6Bp,2020-0188,2020-11-15,03:17:06,03:34:58,NA,incomplete,178,number,0,right,Green_Triangle_Stripes_3.jpg,Purple_Triangle_Grid_2.jpg,Red_Plus_Dots_3.jpg,right,704,true,high,NA,NA,NA,NA,NA,NA,NA,false
TWbqg6Bp,3fhtjgyt9qduw7xo30k18rjdqjggpm,3bf51chdtzn7v6m9xnsv3aqy91p0hp,TWbqg6Bp,2020-0188,2020-11-15,03:17:06,03:34:58,NA,incomplete,179,number,1,right,Red_Plus_Dots_2.jpg,Blue_Plus_Stripes_1.jpg,Green_Circle_Chess_2.jpg,left,568,false,high,NA,NA,NA,NA,NA,NA,NA,false
TWbqg6Bp,3fhtjgyt9qduw7xo30k18rjdqjggpm,3bf51chdtzn7v6m9xnsv3aqy91p0hp,TWbqg6Bp,2020-0188,2020-11-15,03:17:06,03:34:58,NA,incomplete,180,shape,1,left,Red_Circle_Grid_3.jpg,Green_Circle_Dots_4.jpg,Purple_Triangle_Chess_3.jpg,right,854,false,high,NA,NA,NA,NA,NA,NA,NA,false
TWbqg6Bp,3fhtjgyt9qduw7xo30k18rjdqjggpm,3bf51chdtzn7v6m9xnsv3aqy91p0hp,TWbqg6Bp,2020-0188,2020-11-15,03:17:06,03:34:58,NA,incomplete,181,shape,1,right,Purple_Plus_Chess_2.jpg,Red_Star_Dots_2.jpg,Blue_Plus_Grid_1.jpg,right,1127,true,high,NA,NA,NA,NA,NA,NA,NA,false
TWbqg6Bp,3fhtjgyt9qduw7xo30k18rjdqjggpm,3bf51chdtzn7v6m9xnsv3aqy91p0hp,TWbqg6Bp,2020-0188,2020-11-15,03:17:06,03:34:58,NA,incomplete,182,shape,1,right,Green_Circle_Stripes_1.jpg,Blue_Triangle_Dots_1.jpg,Red_Circle_Grid_3.jpg,right,702,true,high,NA,NA,NA,NA,NA,NA,NA,false
TWbqg6Bp,3fhtjgyt9qduw7xo30k18rjdqjggpm,3bf51chdtzn7v6m9xnsv3aqy91p0hp,TWbqg6Bp,2020-0188,2020-11-15,03:17:06,03:34:58,NA,incomplete,183,shape,1,right,Purple_Triangle_Dots_2.jpg,Blue_Circle_Chess_2.jpg,Red_Triangle_Grid_1.jpg,right,575,true,high,NA,NA,NA,NA,NA,NA,NA,false
TWbqg6Bp,3fhtjgyt9qduw7xo30k18rjdqjggpm,3bf51chdtzn7v6m9xnsv3aqy91p0hp,TWbqg6Bp,2020-0188,2020-11-15,03:17:06,03:34:58,NA,incomplete,184,shape,1,right,Green_Plus_Grid_4.jpg,Blue_Triangle_Chess_4.jpg,Red_Plus_Stripes_2.jpg,right,829,true,high,NA,NA,NA,NA,NA,NA,NA,false
TWbqg6Bp,3fhtjgyt9qduw7xo30k18rjdqjggpm,3bf51chdtzn7v6m9xnsv3aqy91p0hp,TWbqg6Bp,2020-0188,2020-11-15,03:17:06,03:34:58,NA,incomplete,185,shape,1,right,Purple_Circle_Dots_2.jpg,Green_Triangle_Chess_2.jpg,Blue_Circle_Stripes_4.jpg,right,735,true,high,NA,NA,NA,NA,NA,NA,NA,false
TWbqg6Bp,3fhtjgyt9qduw7xo30k18rjdqjggpm,3bf51chdtzn7v6m9xnsv3aqy91p0hp,TWbqg6Bp,2020-0188,2020-11-15,03:17:06,03:34:58,NA,incomplete,186,shape,1,right,Green_Triangle_Dots_3.jpg,Blue_Plus_Stripes_3.jpg,Red_Triangle_Chess_1.jpg,right,887,true,high,NA,NA,NA,NA,NA,NA,NA,false
TWbqg6Bp,3fhtjgyt9qduw7xo30k18rjdqjggpm,3bf51chdtzn7v6m9xnsv3aqy91p0hp,TWbqg6Bp,2020-0188,2020-11-15,03:17:06,03:34:58,NA,incomplete,187,shape,1,left,Purple_Circle_Grid_2.jpg,Blue_Circle_Chess_4.jpg,Red_Star_Stripes_2.jpg,left,895,true,high,NA,NA,NA,NA,NA,NA,NA,false
TWbqg6Bp,3fhtjgyt9qduw7xo30k18rjdqjggpm,3bf51chdtzn7v6m9xnsv3aqy91p0hp,TWbqg6Bp,2020-0188,2020-11-15,03:17:06,03:34:58,NA,incomplete,188,shape,1,left,Blue_Triangle_Grid_2.jpg,Green_Triangle_Dots_3.jpg,Purple_Star_Chess_2.jpg,left,879,true,high,NA,NA,NA,NA,NA,NA,NA,false
TWbqg6Bp,3fhtjgyt9qduw7xo30k18rjdqjggpm,3bf51chdtzn7v6m9xnsv3aqy91p0hp,TWbqg6Bp,2020-0188,2020-11-15,03:17:06,03:34:58,NA,incomplete,189,shape,1,left,Green_Star_Stripes_4.jpg,Blue_Star_Dots_3.jpg,Red_Circle_Chess_4.jpg,left,1049,true,high,NA,NA,NA,NA,NA,NA,NA,false
TWbqg6Bp,3fhtjgyt9qduw7xo30k18rjdqjggpm,3bf51chdtzn7v6m9xnsv3aqy91p0hp,TWbqg6Bp,2020-0188,2020-11-15,03:17:06,03:34:58,NA,incomplete,190,shape,1,left,Green_Triangle_Chess_1.jpg,Blue_Triangle_Dots_2.jpg,Purple_Star_Stripes_1.jpg,left,1043,true,high,NA,NA,NA,NA,NA,NA,NA,false
TWbqg6Bp,3fhtjgyt9qduw7xo30k18rjdqjggpm,3bf51chdtzn7v6m9xnsv3aqy91p0hp,TWbqg6Bp,2020-0188,2020-11-15,03:17:06,03:34:58,NA,incomplete,191,shape,0,left,Green_Plus_Stripes_4.jpg,Blue_Plus_Grid_1.jpg,Red_Triangle_Chess_4.jpg,left,758,true,high,NA,NA,NA,NA,NA,NA,NA,false
TWbqg6Bp,3fhtjgyt9qduw7xo30k18rjdqjggpm,3bf51chdtzn7v6m9xnsv3aqy91p0hp,TWbqg6Bp,2020-0188,2020-11-15,03:17:06,03:34:58,NA,incomplete,192,shape,1,right,Blue_Circle_Chess_1.jpg,Green_Triangle_Stripes_1.jpg,Purple_Circle_Grid_4.jpg,right,676,true,high,NA,NA,NA,NA,NA,NA,NA,false
TWbqg6Bp,3fhtjgyt9qduw7xo30k18rjdqjggpm,3bf51chdtzn7v6m9xnsv3aqy91p0hp,TWbqg6Bp,2020-0188,2020-11-15,03:17:06,03:34:58,NA,incomplete,193,shape,1,left,Red_Circle_Dots_1.jpg,Blue_Circle_Chess_3.jpg,Green_Star_Grid_1.jpg,left,828,true,high,NA,NA,NA,NA,NA,NA,NA,false
TWbqg6Bp,3fhtjgyt9qduw7xo30k18rjdqjggpm,3bf51chdtzn7v6m9xnsv3aqy91p0hp,TWbqg6Bp,2020-0188,2020-11-15,03:17:06,03:34:58,NA,incomplete,194,shape,0,left,Purple_Triangle_Dots_1.jpg,Green_Triangle_Grid_2.jpg,Blue_Circle_Stripes_1.jpg,left,696,true,high,NA,NA,NA,NA,NA,NA,NA,false
TWbqg6Bp,3fhtjgyt9qduw7xo30k18rjdqjggpm,3bf51chdtzn7v6m9xnsv3aqy91p0hp,TWbqg6Bp,2020-0188,2020-11-15,03:17:06,03:34:58,NA,incomplete,195,shape,1,right,Blue_Circle_Dots_3.jpg,Purple_Triangle_Stripes_3.jpg,Green_Circle_Chess_4.jpg,right,697,true,high,NA,NA,NA,NA,NA,NA,NA,false
TWbqg6Bp,3fhtjgyt9qduw7xo30k18rjdqjggpm,3bf51chdtzn7v6m9xnsv3aqy91p0hp,TWbqg6Bp,2020-0188,2020-11-15,03:17:06,03:34:58,NA,incomplete,196,shape,1,left,Green_Star_Stripes_4.jpg,Purple_Star_Dots_3.jpg,Red_Circle_Chess_4.jpg,left,665,true,high,NA,NA,NA,NA,NA,NA,NA,false
TWbqg6Bp,3fhtjgyt9qduw7xo30k18rjdqjggpm,3bf51chdtzn7v6m9xnsv3aqy91p0hp,TWbqg6Bp,2020-0188,2020-11-15,03:17:06,03:34:58,NA,incomplete,197,shape,0,right,Red_Circle_Stripes_2.jpg,Blue_Triangle_Grid_2.jpg,Green_Circle_Chess_1.jpg,right,610,true,high,NA,NA,NA,NA,NA,NA,NA,false
TWbqg6Bp,3fhtjgyt9qduw7xo30k18rjdqjggpm,3bf51chdtzn7v6m9xnsv3aqy91p0hp,TWbqg6Bp,2020-0188,2020-11-15,03:17:06,03:34:58,NA,incomplete,198,shape,1,right,Green_Star_Stripes_3.jpg,Red_Plus_Dots_3.jpg,Blue_Star_Chess_4.jpg,right,799,true,high,NA,NA,NA,NA,NA,NA,NA,false
TWbqg6Bp,3fhtjgyt9qduw7xo30k18rjdqjggpm,3bf51chdtzn7v6m9xnsv3aqy91p0hp,TWbqg6Bp,2020-0188,2020-11-15,03:17:06,03:34:58,NA,incomplete,199,shape,1,right,Green_Circle_Stripes_3.jpg,Blue_Plus_Chess_3.jpg,Purple_Circle_Dots_4.jpg,right,628,true,high,NA,NA,NA,NA,NA,NA,NA,false
TWbqg6Bp,3fhtjgyt9qduw7xo30k18rjdqjggpm,3bf51chdtzn7v6m9xnsv3aqy91p0hp,TWbqg6Bp,2020-0188,2020-11-15,03:17:06,03:34:58,NA,incomplete,200,number,1,left,Blue_Triangle_Chess_1.jpg,Purple_Plus_Grid_1.jpg,Red_Triangle_Dots_4.jpg,right,839,false,high,NA,NA,NA,NA,NA,NA,NA,false
TWbqg6Bp,3fhtjgyt9qduw7xo30k18rjdqjggpm,3bf51chdtzn7v6m9xnsv3aqy91p0hp,TWbqg6Bp,2020-0188,2020-11-15,03:17:06,03:34:58,NA,incomplete,201,number,1,left,Purple_Circle_Chess_1.jpg,Green_Star_Stripes_1.jpg,Red_Circle_Grid_3.jpg,right,554,false,high,NA,NA,NA,NA,NA,NA,NA,false
TWbqg6Bp,3fhtjgyt9qduw7xo30k18rjdqjggpm,3bf51chdtzn7v6m9xnsv3aqy91p0hp,TWbqg6Bp,2020-0188,2020-11-15,03:17:06,03:34:58,NA,incomplete,202,number,1,left,Green_Triangle_Chess_3.jpg,Purple_Circle_Stripes_3.jpg,Red_Triangle_Grid_2.jpg,left,1015,true,high,NA,NA,NA,NA,NA,NA,NA,false
TWbqg6Bp,3fhtjgyt9qduw7xo30k18rjdqjggpm,3bf51chdtzn7v6m9xnsv3aqy91p0hp,TWbqg6Bp,2020-0188,2020-11-15,03:17:06,03:34:58,NA,incomplete,203,number,1,right,Green_Circle_Dots_1.jpg,Purple_Circle_Stripes_2.jpg,Red_Star_Chess_1.jpg,right,1651,true,high,NA,NA,NA,NA,NA,NA,NA,false
TWbqg6Bp,3fhtjgyt9qduw7xo30k18rjdqjggpm,3bf51chdtzn7v6m9xnsv3aqy91p0hp,TWbqg6Bp,2020-0188,2020-11-15,03:17:06,03:34:58,NA,incomplete,204,number,0,right,Purple_Plus_Stripes_3.jpg,Red_Plus_Chess_4.jpg,Green_Circle_Dots_3.jpg,left,693,false,high,NA,NA,NA,NA,NA,NA,NA,false
TWbqg6Bp,3fhtjgyt9qduw7xo30k18rjdqjggpm,3bf51chdtzn7v6m9xnsv3aqy91p0hp,TWbqg6Bp,2020-0188,2020-11-15,03:17:06,03:34:58,NA,incomplete,205,number,1,right,Blue_Circle_Stripes_3.jpg,Green_Circle_Dots_1.jpg,Purple_Plus_Chess_3.jpg,left,878,false,high,NA,NA,NA,NA,NA,NA,NA,false
TWbqg6Bp,3fhtjgyt9qduw7xo30k18rjdqjggpm,3bf51chdtzn7v6m9xnsv3aqy91p0hp,TWbqg6Bp,2020-0188,2020-11-15,03:17:06,03:34:58,NA,incomplete,206,number,1,left,Purple_Plus_Grid_4.jpg,Red_Triangle_Chess_4.jpg,Blue_Plus_Dots_2.jpg,left,839,true,high,NA,NA,NA,NA,NA,NA,NA,false
TWbqg6Bp,3fhtjgyt9qduw7xo30k18rjdqjggpm,3bf51chdtzn7v6m9xnsv3aqy91p0hp,TWbqg6Bp,2020-0188,2020-11-15,03:17:06,03:34:58,NA,incomplete,207,number,0,right,Red_Triangle_Chess_2.jpg,Green_Triangle_Dots_3.jpg,Blue_Star_Stripes_2.jpg,right,771,true,high,NA,NA,NA,NA,NA,NA,NA,false
TWbqg6Bp,3fhtjgyt9qduw7xo30k18rjdqjggpm,3bf51chdtzn7v6m9xnsv3aqy91p0hp,TWbqg6Bp,2020-0188,2020-11-15,03:17:06,03:34:58,NA,incomplete,208,number,1,left,Blue_Star_Grid_3.jpg,Purple_Plus_Stripes_3.jpg,Green_Star_Chess_4.jpg,left,1911,true,high,NA,NA,NA,NA,NA,NA,NA,false
TWbqg6Bp,3fhtjgyt9qduw7xo30k18rjdqjggpm,3bf51chdtzn7v6m9xnsv3aqy91p0hp,TWbqg6Bp,2020-0188,2020-11-15,03:17:06,03:34:58,NA,incomplete,209,number,1,right,Blue_Plus_Chess_2.jpg,Green_Plus_Dots_1.jpg,Red_Circle_Stripes_2.jpg,right,1174,true,high,NA,NA,NA,NA,NA,NA,NA,false
TWbqg6Bp,3fhtjgyt9qduw7xo30k18rjdqjggpm,3bf51chdtzn7v6m9xnsv3aqy91p0hp,TWbqg6Bp,2020-0188,2020-11-15,03:17:06,03:34:58,NA,incomplete,210,number,1,left,Red_Star_Stripes_1.jpg,Blue_Triangle_Grid_1.jpg,Green_Star_Dots_3.jpg,left,1301,true,high,NA,NA,NA,NA,NA,NA,NA,false
TWbqg6Bp,3fhtjgyt9qduw7xo30k18rjdqjggpm,3bf51chdtzn7v6m9xnsv3aqy91p0hp,TWbqg6Bp,2020-0188,2020-11-15,03:17:06,03:34:58,NA,incomplete,211,number,1,left,Green_Circle_Chess_4.jpg,Purple_Plus_Stripes_4.jpg,Blue_Circle_Grid_1.jpg,left,845,true,high,NA,NA,NA,NA,NA,NA,NA,false
TWbqg6Bp,3fhtjgyt9qduw7xo30k18rjdqjggpm,3bf51chdtzn7v6m9xnsv3aqy91p0hp,TWbqg6Bp,2020-0188,2020-11-15,03:17:06,03:34:58,NA,incomplete,212,number,1,left,Blue_Triangle_Stripes_2.jpg,Purple_Star_Dots_2.jpg,Red_Triangle_Chess_4.jpg,left,736,true,high,NA,NA,NA,NA,NA,NA,NA,false
TWbqg6Bp,3fhtjgyt9qduw7xo30k18rjdqjggpm,3bf51chdtzn7v6m9xnsv3aqy91p0hp,TWbqg6Bp,2020-0188,2020-11-15,03:17:06,03:34:58,NA,incomplete,213,number,1,right,Green_Circle_Stripes_4.jpg,Red_Circle_Dots_1.jpg,Purple_Star_Chess_4.jpg,right,743,true,high,NA,NA,NA,NA,NA,NA,NA,false
TWbqg6Bp,3fhtjgyt9qduw7xo30k18rjdqjggpm,3bf51chdtzn7v6m9xnsv3aqy91p0hp,TWbqg6Bp,2020-0188,2020-11-15,03:17:06,03:34:58,NA,incomplete,214,number,1,left,Purple_Triangle_Chess_2.jpg,Green_Star_Dots_2.jpg,Red_Triangle_Grid_4.jpg,left,718,true,high,NA,NA,NA,NA,NA,NA,NA,false
TWbqg6Bp,3fhtjgyt9qduw7xo30k18rjdqjggpm,3bf51chdtzn7v6m9xnsv3aqy91p0hp,TWbqg6Bp,2020-0188,2020-11-15,03:17:06,03:34:58,NA,incomplete,215,number,1,left,Purple_Plus_Dots_2.jpg,Green_Star_Grid_2.jpg,Blue_Plus_Stripes_3.jpg,left,719,true,high,NA,NA,NA,NA,NA,NA,NA,false
TWbqg6Bp,3fhtjgyt9qduw7xo30k18rjdqjggpm,3bf51chdtzn7v6m9xnsv3aqy91p0hp,TWbqg6Bp,2020-0188,2020-11-15,03:17:06,03:34:58,NA,incomplete,216,number,0,right,Purple_Plus_Stripes_3.jpg,Red_Plus_Chess_4.jpg,Blue_Star_Grid_3.jpg,right,838,true,high,NA,NA,NA,NA,NA,NA,NA,false
TWbqg6Bp,3fhtjgyt9qduw7xo30k18rjdqjggpm,3bf51chdtzn7v6m9xnsv3aqy91p0hp,TWbqg6Bp,2020-0188,2020-11-15,03:17:06,03:34:58,NA,incomplete,217,number,1,left,Purple_Circle_Grid_3.jpg,Blue_Plus_Chess_3.jpg,Green_Circle_Dots_2.jpg,left,640,true,high,NA,NA,NA,NA,NA,NA,NA,false
TWbqg6Bp,3fhtjgyt9qduw7xo30k18rjdqjggpm,3bf51chdtzn7v6m9xnsv3aqy91p0hp,TWbqg6Bp,2020-0188,2020-11-15,03:17:06,03:34:58,NA,incomplete,218,number,1,left,Purple_Star_Grid_1.jpg,Blue_Plus_Dots_1.jpg,Red_Star_Chess_2.jpg,left,670,true,high,NA,NA,NA,NA,NA,NA,NA,false
TWbqg6Bp,3fhtjgyt9qduw7xo30k18rjdqjggpm,3bf51chdtzn7v6m9xnsv3aqy91p0hp,TWbqg6Bp,2020-0188,2020-11-15,03:17:06,03:34:58,NA,incomplete,219,number,1,left,Green_Circle_Dots_4.jpg,Purple_Triangle_Chess_4.jpg,Blue_Circle_Stripes_1.jpg,left,739,true,high,NA,NA,NA,NA,NA,NA,NA,false
TWbqg6Bp,3fhtjgyt9qduw7xo30k18rjdqjggpm,3bf51chdtzn7v6m9xnsv3aqy91p0hp,TWbqg6Bp,2020-0188,2020-11-15,03:17:06,03:34:58,NA,incomplete,220,shape,1,right,Purple_Circle_Grid_2.jpg,Red_Plus_Chess_2.jpg,Green_Circle_Stripes_1.jpg,left,754,false,high,NA,NA,NA,NA,NA,NA,NA,false
TWbqg6Bp,3fhtjgyt9qduw7xo30k18rjdqjggpm,3bf51chdtzn7v6m9xnsv3aqy91p0hp,TWbqg6Bp,2020-0188,2020-11-15,03:17:06,03:34:58,NA,incomplete,221,shape,1,right,Purple_Triangle_Dots_2.jpg,Blue_Star_Stripes_2.jpg,Green_Triangle_Chess_1.jpg,left,752,false,high,NA,NA,NA,NA,NA,NA,NA,false
TWbqg6Bp,3fhtjgyt9qduw7xo30k18rjdqjggpm,3bf51chdtzn7v6m9xnsv3aqy91p0hp,TWbqg6Bp,2020-0188,2020-11-15,03:17:06,03:34:58,NA,incomplete,222,shape,1,left,Blue_Plus_Chess_2.jpg,Red_Plus_Grid_3.jpg,Purple_Triangle_Dots_2.jpg,left,1432,true,high,NA,NA,NA,NA,NA,NA,NA,false
TWbqg6Bp,3fhtjgyt9qduw7xo30k18rjdqjggpm,3bf51chdtzn7v6m9xnsv3aqy91p0hp,TWbqg6Bp,2020-0188,2020-11-15,03:17:06,03:34:58,NA,incomplete,223,shape,1,left,Purple_Circle_Chess_2.jpg,Blue_Circle_Grid_4.jpg,Green_Star_Stripes_2.jpg,left,745,true,high,NA,NA,NA,NA,NA,NA,NA,false
TWbqg6Bp,3fhtjgyt9qduw7xo30k18rjdqjggpm,3bf51chdtzn7v6m9xnsv3aqy91p0hp,TWbqg6Bp,2020-0188,2020-11-15,03:17:06,03:34:58,NA,incomplete,224,shape,1,right,Green_Triangle_Stripes_1.jpg,Purple_Plus_Grid_1.jpg,Blue_Triangle_Chess_3.jpg,right,760,true,high,NA,NA,NA,NA,NA,NA,NA,false
TWbqg6Bp,3fhtjgyt9qduw7xo30k18rjdqjggpm,3bf51chdtzn7v6m9xnsv3aqy91p0hp,TWbqg6Bp,2020-0188,2020-11-15,03:17:06,03:34:58,NA,incomplete,225,shape,1,right,Purple_Plus_Grid_4.jpg,Blue_Circle_Stripes_4.jpg,Green_Plus_Chess_2.jpg,right,831,true,high,NA,NA,NA,NA,NA,NA,NA,false
TWbqg6Bp,3fhtjgyt9qduw7xo30k18rjdqjggpm,3bf51chdtzn7v6m9xnsv3aqy91p0hp,TWbqg6Bp,2020-0188,2020-11-15,03:17:06,03:34:58,NA,incomplete,226,shape,0,left,Purple_Circle_Stripes_1.jpg,Blue_Circle_Dots_4.jpg,Red_Plus_Grid_1.jpg,left,889,true,high,NA,NA,NA,NA,NA,NA,NA,false
TWbqg6Bp,3fhtjgyt9qduw7xo30k18rjdqjggpm,3bf51chdtzn7v6m9xnsv3aqy91p0hp,TWbqg6Bp,2020-0188,2020-11-15,03:17:06,03:34:58,NA,incomplete,227,shape,1,left,Red_Circle_Stripes_4.jpg,Blue_Circle_Dots_2.jpg,Purple_Triangle_Grid_4.jpg,left,706,true,high,NA,NA,NA,NA,NA,NA,NA,false
TWbqg6Bp,3fhtjgyt9qduw7xo30k18rjdqjggpm,3bf51chdtzn7v6m9xnsv3aqy91p0hp,TWbqg6Bp,2020-0188,2020-11-15,03:17:06,03:34:58,NA,incomplete,228,shape,0,right,Green_Plus_Stripes_4.jpg,Red_Star_Dots_4.jpg,Purple_Plus_Grid_1.jpg,right,875,true,high,NA,NA,NA,NA,NA,NA,NA,false
TWbqg6Bp,3fhtjgyt9qduw7xo30k18rjdqjggpm,3bf51chdtzn7v6m9xnsv3aqy91p0hp,TWbqg6Bp,2020-0188,2020-11-15,03:17:06,03:34:58,NA,incomplete,229,shape,1,left,Purple_Circle_Chess_2.jpg,Red_Circle_Grid_4.jpg,Blue_Plus_Stripes_2.jpg,left,788,true,high,NA,NA,NA,NA,NA,NA,NA,false
TWbqg6Bp,3fhtjgyt9qduw7xo30k18rjdqjggpm,3bf51chdtzn7v6m9xnsv3aqy91p0hp,TWbqg6Bp,2020-0188,2020-11-15,03:17:06,03:34:58,NA,incomplete,230,shape,1,left,Purple_Plus_Grid_2.jpg,Red_Plus_Dots_1.jpg,Green_Triangle_Chess_2.jpg,left,632,true,high,NA,NA,NA,NA,NA,NA,NA,false
TWbqg6Bp,3fhtjgyt9qduw7xo30k18rjdqjggpm,3bf51chdtzn7v6m9xnsv3aqy91p0hp,TWbqg6Bp,2020-0188,2020-11-15,03:17:06,03:34:58,NA,incomplete,231,shape,0,right,Blue_Triangle_Dots_1.jpg,Purple_Star_Chess_1.jpg,Green_Triangle_Stripes_3.jpg,right,709,true,high,NA,NA,NA,NA,NA,NA,NA,false
TWbqg6Bp,3fhtjgyt9qduw7xo30k18rjdqjggpm,3bf51chdtzn7v6m9xnsv3aqy91p0hp,TWbqg6Bp,2020-0188,2020-11-15,03:17:06,03:34:58,NA,incomplete,232,shape,1,right,Red_Triangle_Stripes_1.jpg,Green_Star_Grid_1.jpg,Purple_Triangle_Chess_4.jpg,right,883,true,high,NA,NA,NA,NA,NA,NA,NA,false
TWbqg6Bp,3fhtjgyt9qduw7xo30k18rjdqjggpm,3bf51chdtzn7v6m9xnsv3aqy91p0hp,TWbqg6Bp,2020-0188,2020-11-15,03:17:06,03:34:58,NA,incomplete,233,shape,1,right,Green_Star_Dots_2.jpg,Blue_Triangle_Chess_2.jpg,Red_Star_Stripes_4.jpg,right,687,true,high,NA,NA,NA,NA,NA,NA,NA,false
TWbqg6Bp,3fhtjgyt9qduw7xo30k18rjdqjggpm,3bf51chdtzn7v6m9xnsv3aqy91p0hp,TWbqg6Bp,2020-0188,2020-11-15,03:17:06,03:34:58,NA,incomplete,234,shape,1,left,Green_Triangle_Stripes_4.jpg,Purple_Triangle_Chess_2.jpg,Blue_Star_Grid_4.jpg,left,750,true,high,NA,NA,NA,NA,NA,NA,NA,false
TWbqg6Bp,3fhtjgyt9qduw7xo30k18rjdqjggpm,3bf51chdtzn7v6m9xnsv3aqy91p0hp,TWbqg6Bp,2020-0188,2020-11-15,03:17:06,03:34:58,NA,incomplete,235,shape,1,right,Green_Triangle_Stripes_1.jpg,Red_Plus_Chess_1.jpg,Blue_Triangle_Dots_2.jpg,right,724,true,high,NA,NA,NA,NA,NA,NA,NA,false
TWbqg6Bp,3fhtjgyt9qduw7xo30k18rjdqjggpm,3bf51chdtzn7v6m9xnsv3aqy91p0hp,TWbqg6Bp,2020-0188,2020-11-15,03:17:06,03:34:58,NA,incomplete,236,shape,1,left,Blue_Star_Chess_2.jpg,Purple_Star_Stripes_4.jpg,Green_Circle_Grid_2.jpg,left,747,true,high,NA,NA,NA,NA,NA,NA,NA,false
TWbqg6Bp,3fhtjgyt9qduw7xo30k18rjdqjggpm,3bf51chdtzn7v6m9xnsv3aqy91p0hp,TWbqg6Bp,2020-0188,2020-11-15,03:17:06,03:34:58,NA,incomplete,237,shape,0,right,Red_Plus_Grid_4.jpg,Green_Triangle_Dots_4.jpg,Purple_Plus_Stripes_2.jpg,right,1019,true,high,NA,NA,NA,NA,NA,NA,NA,false
TWbqg6Bp,3fhtjgyt9qduw7xo30k18rjdqjggpm,3bf51chdtzn7v6m9xnsv3aqy91p0hp,TWbqg6Bp,2020-0188,2020-11-15,03:17:06,03:34:58,NA,incomplete,238,shape,1,right,Green_Star_Stripes_3.jpg,Blue_Triangle_Grid_3.jpg,Red_Star_Chess_4.jpg,right,749,true,high,NA,NA,NA,NA,NA,NA,NA,false
TWbqg6Bp,3fhtjgyt9qduw7xo30k18rjdqjggpm,3bf51chdtzn7v6m9xnsv3aqy91p0hp,TWbqg6Bp,2020-0188,2020-11-15,03:17:06,03:34:58,NA,incomplete,239,shape,1,right,Green_Plus_Stripes_3.jpg,Red_Star_Dots_3.jpg,Blue_Plus_Grid_1.jpg,right,749,true,high,NA,NA,NA,NA,NA,NA,NA,false
TWbqg6Bp,3fhtjgyt9qduw7xo30k18rjdqjggpm,3bf51chdtzn7v6m9xnsv3aqy91p0hp,TWbqg6Bp,2020-0188,2020-11-15,03:17:06,03:34:58,1043477,1072264,NA,NA,NA,NA,NA,NA,NA,NA,NA,NA,NA,28,White/Caucasian,Male,Do not wish to repyly,no,no,no,undefined
