workerId,hitId,assignmentId,subject,studyid,exp_date,exp_start,exp_end,time_start,time_end,trial,type,reward_validity,answer,image_top,image_left,image_right,response,response_time,response_acc,volatility,age,race,gender,ethnicity,color,vision,neuro,practice
NeQQ34xn,33ixyhizc8v0km0rv7j1cbq82t9e2g,3bqu611vftxwcus3z7nwj4t3ttx998,NeQQ34xn,2020-0188,2020-11-15,12:05:37,12:25:43,NA,incomplete,0,filling,1,left,Purple_Triangle_Chess_4.jpg,Red_Circle_Chess_1.jpg,Blue_Star_Grid_4.jpg,left,1934.7349999879953,true,NA,NA,NA,NA,NA,NA,NA,NA,true
NeQQ34xn,33ixyhizc8v0km0rv7j1cbq82t9e2g,3bqu611vftxwcus3z7nwj4t3ttx998,NeQQ34xn,2020-0188,2020-11-15,12:05:37,12:25:43,NA,incomplete,1,filling,1,right,Blue_Star_Grid_3.jpg,Green_Plus_Chess_3.jpg,Purple_Circle_Grid_2.jpg,right,1624.7950000106357,true,NA,NA,NA,NA,NA,NA,NA,NA,true
NeQQ34xn,33ixyhizc8v0km0rv7j1cbq82t9e2g,3bqu611vftxwcus3z7nwj4t3ttx998,NeQQ34xn,2020-0188,2020-11-15,12:05:37,12:25:43,NA,incomplete,2,filling,1,left,Green_Triangle_Dots_4.jpg,Red_Circle_Dots_3.jpg,Blue_Plus_Grid_4.jpg,left,1562.6499999780208,true,NA,NA,NA,NA,NA,NA,NA,NA,true
NeQQ34xn,33ixyhizc8v0km0rv7j1cbq82t9e2g,3bqu611vftxwcus3z7nwj4t3ttx998,NeQQ34xn,2020-0188,2020-11-15,12:05:37,12:25:43,NA,incomplete,3,filling,1,right,Green_Star_Chess_1.jpg,Purple_Triangle_Grid_1.jpg,Red_Circle_Chess_4.jpg,right,1326.919999992242,true,NA,NA,NA,NA,NA,NA,NA,NA,true
NeQQ34xn,33ixyhizc8v0km0rv7j1cbq82t9e2g,3bqu611vftxwcus3z7nwj4t3ttx998,NeQQ34xn,2020-0188,2020-11-15,12:05:37,12:25:43,NA,incomplete,4,filling,1,left,Purple_Plus_Dots_1.jpg,Red_Triangle_Dots_2.jpg,Green_Star_Chess_1.jpg,left,1660.7050000166055,true,NA,NA,NA,NA,NA,NA,NA,NA,true
NeQQ34xn,33ixyhizc8v0km0rv7j1cbq82t9e2g,3bqu611vftxwcus3z7nwj4t3ttx998,NeQQ34xn,2020-0188,2020-11-15,12:05:37,12:25:43,NA,incomplete,5,filling,1,right,Blue_Circle_Grid_3.jpg,Green_Star_Stripes_3.jpg,Red_Triangle_Grid_1.jpg,right,1025.5049999977928,true,NA,NA,NA,NA,NA,NA,NA,NA,true
NeQQ34xn,33ixyhizc8v0km0rv7j1cbq82t9e2g,3bqu611vftxwcus3z7nwj4t3ttx998,NeQQ34xn,2020-0188,2020-11-15,12:05:37,12:25:43,NA,incomplete,6,filling,1,right,Purple_Circle_Dots_2.jpg,Green_Star_Chess_2.jpg,Red_Triangle_Dots_1.jpg,right,1273.1849999981932,true,NA,NA,NA,NA,NA,NA,NA,NA,true
NeQQ34xn,33ixyhizc8v0km0rv7j1cbq82t9e2g,3bqu611vftxwcus3z7nwj4t3ttx998,NeQQ34xn,2020-0188,2020-11-15,12:05:37,12:25:43,NA,incomplete,7,filling,1,right,Green_Star_Chess_2.jpg,Purple_Triangle_Stripes_2.jpg,Red_Plus_Chess_4.jpg,right,1022.1700000111014,true,NA,NA,NA,NA,NA,NA,NA,NA,true
NeQQ34xn,33ixyhizc8v0km0rv7j1cbq82t9e2g,3bqu611vftxwcus3z7nwj4t3ttx998,NeQQ34xn,2020-0188,2020-11-15,12:05:37,12:25:43,NA,incomplete,8,filling,1,left,Purple_Circle_Stripes_3.jpg,Blue_Star_Stripes_4.jpg,Red_Plus_Dots_3.jpg,left,1315.4199999989942,true,NA,NA,NA,NA,NA,NA,NA,NA,true
NeQQ34xn,33ixyhizc8v0km0rv7j1cbq82t9e2g,3bqu611vftxwcus3z7nwj4t3ttx998,NeQQ34xn,2020-0188,2020-11-15,12:05:37,12:25:43,NA,incomplete,9,filling,0,right,Red_Star_Grid_4.jpg,Blue_Circle_Stripes_4.jpg,Purple_Triangle_Grid_1.jpg,right,1157.7700000198092,true,NA,NA,NA,NA,NA,NA,NA,NA,true
NeQQ34xn,33ixyhizc8v0km0rv7j1cbq82t9e2g,3bqu611vftxwcus3z7nwj4t3ttx998,NeQQ34xn,2020-0188,2020-11-15,12:05:37,12:25:43,NA,incomplete,10,filling,1,right,Blue_Plus_Dots_3.jpg,Purple_Triangle_Chess_3.jpg,Red_Circle_Dots_4.jpg,right,1644.094999996014,true,NA,NA,NA,NA,NA,NA,NA,NA,true
NeQQ34xn,33ixyhizc8v0km0rv7j1cbq82t9e2g,3bqu611vftxwcus3z7nwj4t3ttx998,NeQQ34xn,2020-0188,2020-11-15,12:05:37,12:25:43,NA,incomplete,11,filling,1,right,Green_Star_Grid_4.jpg,Red_Plus_Chess_4.jpg,Blue_Triangle_Grid_3.jpg,right,1188.8200000103097,true,NA,NA,NA,NA,NA,NA,NA,NA,true
NeQQ34xn,33ixyhizc8v0km0rv7j1cbq82t9e2g,3bqu611vftxwcus3z7nwj4t3ttx998,NeQQ34xn,2020-0188,2020-11-15,12:05:37,12:25:43,NA,incomplete,12,filling,1,right,Purple_Plus_Dots_4.jpg,Green_Circle_Chess_4.jpg,Red_Triangle_Dots_3.jpg,right,1499.7649999859277,true,NA,NA,NA,NA,NA,NA,NA,NA,true
NeQQ34xn,33ixyhizc8v0km0rv7j1cbq82t9e2g,3bqu611vftxwcus3z7nwj4t3ttx998,NeQQ34xn,2020-0188,2020-11-15,12:05:37,12:25:43,NA,incomplete,13,filling,1,left,Green_Star_Grid_3.jpg,Red_Triangle_Grid_4.jpg,Purple_Plus_Stripes_3.jpg,left,1261.1000000033528,true,NA,NA,NA,NA,NA,NA,NA,NA,true
NeQQ34xn,33ixyhizc8v0km0rv7j1cbq82t9e2g,3bqu611vftxwcus3z7nwj4t3ttx998,NeQQ34xn,2020-0188,2020-11-15,12:05:37,12:25:43,NA,incomplete,14,filling,0,left,Purple_Star_Chess_4.jpg,Blue_Triangle_Chess_3.jpg,Red_Plus_Stripes_4.jpg,left,1486.2649999849964,true,NA,NA,NA,NA,NA,NA,NA,NA,true
NeQQ34xn,33ixyhizc8v0km0rv7j1cbq82t9e2g,3bqu611vftxwcus3z7nwj4t3ttx998,NeQQ34xn,2020-0188,2020-11-15,12:05:37,12:25:43,NA,incomplete,15,filling,1,left,Green_Plus_Chess_1.jpg,Blue_Triangle_Chess_3.jpg,Purple_Star_Stripes_1.jpg,left,1140.4599999950733,true,NA,NA,NA,NA,NA,NA,NA,NA,true
NeQQ34xn,33ixyhizc8v0km0rv7j1cbq82t9e2g,3bqu611vftxwcus3z7nwj4t3ttx998,NeQQ34xn,2020-0188,2020-11-15,12:05:37,12:25:43,NA,incomplete,16,filling,1,right,Purple_Star_Grid_1.jpg,Red_Circle_Chess_1.jpg,Green_Triangle_Grid_2.jpg,right,1025.4600000043865,true,NA,NA,NA,NA,NA,NA,NA,NA,true
NeQQ34xn,33ixyhizc8v0km0rv7j1cbq82t9e2g,3bqu611vftxwcus3z7nwj4t3ttx998,NeQQ34xn,2020-0188,2020-11-15,12:05:37,12:25:43,NA,incomplete,17,filling,0,left,Blue_Circle_Dots_2.jpg,Green_Plus_Dots_1.jpg,Purple_Triangle_Grid_2.jpg,left,1214.0849999850616,true,NA,NA,NA,NA,NA,NA,NA,NA,true
NeQQ34xn,33ixyhizc8v0km0rv7j1cbq82t9e2g,3bqu611vftxwcus3z7nwj4t3ttx998,NeQQ34xn,2020-0188,2020-11-15,12:05:37,12:25:43,NA,incomplete,18,filling,1,left,Red_Star_Grid_4.jpg,Purple_Triangle_Grid_1.jpg,Green_Plus_Chess_4.jpg,right,1225.5799999984447,false,NA,NA,NA,NA,NA,NA,NA,NA,true
NeQQ34xn,33ixyhizc8v0km0rv7j1cbq82t9e2g,3bqu611vftxwcus3z7nwj4t3ttx998,NeQQ34xn,2020-0188,2020-11-15,12:05:37,12:25:43,NA,incomplete,19,filling,1,left,Red_Circle_Dots_4.jpg,Blue_Triangle_Dots_3.jpg,Green_Plus_Stripes_4.jpg,left,1013.3499999938067,true,NA,NA,NA,NA,NA,NA,NA,NA,true
NeQQ34xn,33ixyhizc8v0km0rv7j1cbq82t9e2g,3bqu611vftxwcus3z7nwj4t3ttx998,NeQQ34xn,2020-0188,2020-11-15,12:05:37,12:25:43,NA,incomplete,20,number,0,left,Green_Plus_Grid_1.jpg,Purple_Circle_Dots_1.jpg,Blue_Star_Grid_2.jpg,left,1387.8250000125263,true,NA,NA,NA,NA,NA,NA,NA,NA,true
NeQQ34xn,33ixyhizc8v0km0rv7j1cbq82t9e2g,3bqu611vftxwcus3z7nwj4t3ttx998,NeQQ34xn,2020-0188,2020-11-15,12:05:37,12:25:43,NA,incomplete,21,number,1,right,Blue_Triangle_Dots_4.jpg,Red_Circle_Dots_2.jpg,Green_Star_Grid_4.jpg,left,1462.2000000090338,false,NA,NA,NA,NA,NA,NA,NA,NA,true
NeQQ34xn,33ixyhizc8v0km0rv7j1cbq82t9e2g,3bqu611vftxwcus3z7nwj4t3ttx998,NeQQ34xn,2020-0188,2020-11-15,12:05:37,12:25:43,NA,incomplete,22,number,1,right,Red_Plus_Grid_2.jpg,Blue_Star_Grid_3.jpg,Purple_Circle_Stripes_2.jpg,right,745.584999996936,true,NA,NA,NA,NA,NA,NA,NA,NA,true
NeQQ34xn,33ixyhizc8v0km0rv7j1cbq82t9e2g,3bqu611vftxwcus3z7nwj4t3ttx998,NeQQ34xn,2020-0188,2020-11-15,12:05:37,12:25:43,NA,incomplete,23,number,0,right,Red_Star_Chess_4.jpg,Purple_Circle_Chess_2.jpg,Green_Triangle_Dots_4.jpg,right,915.3900000092108,true,NA,NA,NA,NA,NA,NA,NA,NA,true
NeQQ34xn,33ixyhizc8v0km0rv7j1cbq82t9e2g,3bqu611vftxwcus3z7nwj4t3ttx998,NeQQ34xn,2020-0188,2020-11-15,12:05:37,12:25:43,NA,incomplete,24,number,1,right,Green_Circle_Grid_4.jpg,Red_Triangle_Grid_2.jpg,Purple_Star_Stripes_4.jpg,right,1275.3150000062305,true,NA,NA,NA,NA,NA,NA,NA,NA,true
NeQQ34xn,33ixyhizc8v0km0rv7j1cbq82t9e2g,3bqu611vftxwcus3z7nwj4t3ttx998,NeQQ34xn,2020-0188,2020-11-15,12:05:37,12:25:43,NA,incomplete,25,number,1,left,Red_Plus_Chess_4.jpg,Blue_Circle_Grid_4.jpg,Green_Triangle_Chess_1.jpg,left,1224.0199999941979,true,NA,NA,NA,NA,NA,NA,NA,NA,true
NeQQ34xn,33ixyhizc8v0km0rv7j1cbq82t9e2g,3bqu611vftxwcus3z7nwj4t3ttx998,NeQQ34xn,2020-0188,2020-11-15,12:05:37,12:25:43,NA,incomplete,26,number,0,left,Red_Circle_Grid_1.jpg,Blue_Triangle_Chess_1.jpg,Green_Plus_Grid_2.jpg,left,943.6249999853317,true,NA,NA,NA,NA,NA,NA,NA,NA,true
NeQQ34xn,33ixyhizc8v0km0rv7j1cbq82t9e2g,3bqu611vftxwcus3z7nwj4t3ttx998,NeQQ34xn,2020-0188,2020-11-15,12:05:37,12:25:43,NA,incomplete,27,number,1,right,Purple_Triangle_Stripes_3.jpg,Green_Plus_Stripes_4.jpg,Blue_Star_Dots_3.jpg,right,1131.4600000041537,true,NA,NA,NA,NA,NA,NA,NA,NA,true
NeQQ34xn,33ixyhizc8v0km0rv7j1cbq82t9e2g,3bqu611vftxwcus3z7nwj4t3ttx998,NeQQ34xn,2020-0188,2020-11-15,12:05:37,12:25:43,NA,incomplete,28,number,1,left,Red_Star_Dots_4.jpg,Green_Plus_Stripes_4.jpg,Purple_Triangle_Dots_3.jpg,left,1037.3449999897275,true,NA,NA,NA,NA,NA,NA,NA,NA,true
NeQQ34xn,33ixyhizc8v0km0rv7j1cbq82t9e2g,3bqu611vftxwcus3z7nwj4t3ttx998,NeQQ34xn,2020-0188,2020-11-15,12:05:37,12:25:43,NA,incomplete,29,number,0,left,Purple_Star_Chess_2.jpg,Green_Plus_Dots_2.jpg,Blue_Triangle_Chess_1.jpg,left,1106.3499999872874,true,NA,NA,NA,NA,NA,NA,NA,NA,true
NeQQ34xn,33ixyhizc8v0km0rv7j1cbq82t9e2g,3bqu611vftxwcus3z7nwj4t3ttx998,NeQQ34xn,2020-0188,2020-11-15,12:05:37,12:25:43,NA,incomplete,30,number,1,left,Blue_Star_Dots_4.jpg,Green_Circle_Stripes_4.jpg,Red_Plus_Dots_2.jpg,left,973.0949999939185,true,NA,NA,NA,NA,NA,NA,NA,NA,true
NeQQ34xn,33ixyhizc8v0km0rv7j1cbq82t9e2g,3bqu611vftxwcus3z7nwj4t3ttx998,NeQQ34xn,2020-0188,2020-11-15,12:05:37,12:25:43,NA,incomplete,31,number,1,right,Green_Plus_Stripes_3.jpg,Purple_Star_Stripes_1.jpg,Blue_Triangle_Chess_3.jpg,right,835.1499999989755,true,NA,NA,NA,NA,NA,NA,NA,NA,true
NeQQ34xn,33ixyhizc8v0km0rv7j1cbq82t9e2g,3bqu611vftxwcus3z7nwj4t3ttx998,NeQQ34xn,2020-0188,2020-11-15,12:05:37,12:25:43,NA,incomplete,32,number,1,left,Blue_Triangle_Stripes_3.jpg,Purple_Plus_Grid_3.jpg,Green_Star_Stripes_2.jpg,left,1020.3350000083447,true,NA,NA,NA,NA,NA,NA,NA,NA,true
NeQQ34xn,33ixyhizc8v0km0rv7j1cbq82t9e2g,3bqu611vftxwcus3z7nwj4t3ttx998,NeQQ34xn,2020-0188,2020-11-15,12:05:37,12:25:43,NA,incomplete,33,number,0,right,Green_Triangle_Grid_4.jpg,Blue_Circle_Grid_3.jpg,Purple_Star_Dots_4.jpg,right,906.9449999951757,true,NA,NA,NA,NA,NA,NA,NA,NA,true
NeQQ34xn,33ixyhizc8v0km0rv7j1cbq82t9e2g,3bqu611vftxwcus3z7nwj4t3ttx998,NeQQ34xn,2020-0188,2020-11-15,12:05:37,12:25:43,NA,incomplete,34,number,1,right,Blue_Plus_Dots_3.jpg,Red_Star_Dots_4.jpg,Green_Circle_Stripes_3.jpg,right,988.4149999998044,true,NA,NA,NA,NA,NA,NA,NA,NA,true
NeQQ34xn,33ixyhizc8v0km0rv7j1cbq82t9e2g,3bqu611vftxwcus3z7nwj4t3ttx998,NeQQ34xn,2020-0188,2020-11-15,12:05:37,12:25:43,NA,incomplete,35,number,1,right,Purple_Plus_Dots_1.jpg,Blue_Circle_Dots_2.jpg,Green_Star_Chess_1.jpg,right,1008.0650000018068,true,NA,NA,NA,NA,NA,NA,NA,NA,true
NeQQ34xn,33ixyhizc8v0km0rv7j1cbq82t9e2g,3bqu611vftxwcus3z7nwj4t3ttx998,NeQQ34xn,2020-0188,2020-11-15,12:05:37,12:25:43,NA,incomplete,36,number,1,right,Purple_Star_Grid_2.jpg,Green_Plus_Grid_4.jpg,Red_Circle_Chess_2.jpg,right,1155.4849999956787,true,NA,NA,NA,NA,NA,NA,NA,NA,true
NeQQ34xn,33ixyhizc8v0km0rv7j1cbq82t9e2g,3bqu611vftxwcus3z7nwj4t3ttx998,NeQQ34xn,2020-0188,2020-11-15,12:05:37,12:25:43,NA,incomplete,37,number,1,left,Blue_Star_Dots_1.jpg,Purple_Circle_Grid_1.jpg,Green_Plus_Dots_3.jpg,left,848.9800000097603,true,NA,NA,NA,NA,NA,NA,NA,NA,true
NeQQ34xn,33ixyhizc8v0km0rv7j1cbq82t9e2g,3bqu611vftxwcus3z7nwj4t3ttx998,NeQQ34xn,2020-0188,2020-11-15,12:05:37,12:25:43,NA,incomplete,38,number,1,left,Purple_Plus_Dots_4.jpg,Blue_Star_Stripes_4.jpg,Green_Circle_Dots_3.jpg,left,1074.2600000230595,true,NA,NA,NA,NA,NA,NA,NA,NA,true
NeQQ34xn,33ixyhizc8v0km0rv7j1cbq82t9e2g,3bqu611vftxwcus3z7nwj4t3ttx998,NeQQ34xn,2020-0188,2020-11-15,12:05:37,12:25:43,NA,incomplete,39,number,1,left,Red_Triangle_Stripes_3.jpg,Blue_Star_Chess_3.jpg,Green_Circle_Stripes_4.jpg,left,972.1499999868684,true,NA,NA,NA,NA,NA,NA,NA,NA,true
NeQQ34xn,33ixyhizc8v0km0rv7j1cbq82t9e2g,3bqu611vftxwcus3z7nwj4t3ttx998,NeQQ34xn,2020-0188,2020-11-15,12:05:37,12:25:43,NA,incomplete,0,filling,1,right,Purple_Triangle_Stripes_3.jpg,Green_Star_Dots_3.jpg,Blue_Plus_Stripes_1.jpg,left,973.5649999929592,false,low,NA,NA,NA,NA,NA,NA,NA,false
NeQQ34xn,33ixyhizc8v0km0rv7j1cbq82t9e2g,3bqu611vftxwcus3z7nwj4t3ttx998,NeQQ34xn,2020-0188,2020-11-15,12:05:37,12:25:43,NA,incomplete,1,filling,0,right,Green_Triangle_Chess_2.jpg,Blue_Circle_Dots_2.jpg,Red_Star_Chess_3.jpg,right,884.0149999887217,true,low,NA,NA,NA,NA,NA,NA,NA,false
NeQQ34xn,33ixyhizc8v0km0rv7j1cbq82t9e2g,3bqu611vftxwcus3z7nwj4t3ttx998,NeQQ34xn,2020-0188,2020-11-15,12:05:37,12:25:43,NA,incomplete,2,filling,1,right,Red_Circle_Dots_2.jpg,Blue_Star_Stripes_2.jpg,Purple_Triangle_Dots_4.jpg,left,670.0499999860767,false,low,NA,NA,NA,NA,NA,NA,NA,false
NeQQ34xn,33ixyhizc8v0km0rv7j1cbq82t9e2g,3bqu611vftxwcus3z7nwj4t3ttx998,NeQQ34xn,2020-0188,2020-11-15,12:05:37,12:25:43,NA,incomplete,3,filling,1,left,Blue_Circle_Dots_1.jpg,Green_Plus_Dots_2.jpg,Red_Star_Chess_1.jpg,left,969.1600000078324,true,low,NA,NA,NA,NA,NA,NA,NA,false
NeQQ34xn,33ixyhizc8v0km0rv7j1cbq82t9e2g,3bqu611vftxwcus3z7nwj4t3ttx998,NeQQ34xn,2020-0188,2020-11-15,12:05:37,12:25:43,NA,incomplete,4,filling,1,left,Blue_Circle_Chess_1.jpg,Green_Star_Chess_2.jpg,Red_Plus_Stripes_1.jpg,left,854.5300000114366,true,low,NA,NA,NA,NA,NA,NA,NA,false
NeQQ34xn,33ixyhizc8v0km0rv7j1cbq82t9e2g,3bqu611vftxwcus3z7nwj4t3ttx998,NeQQ34xn,2020-0188,2020-11-15,12:05:37,12:25:43,NA,incomplete,5,filling,1,right,Red_Triangle_Grid_1.jpg,Green_Circle_Stripes_1.jpg,Blue_Plus_Grid_4.jpg,right,825.379999994766,true,low,NA,NA,NA,NA,NA,NA,NA,false
NeQQ34xn,33ixyhizc8v0km0rv7j1cbq82t9e2g,3bqu611vftxwcus3z7nwj4t3ttx998,NeQQ34xn,2020-0188,2020-11-15,12:05:37,12:25:43,NA,incomplete,6,filling,1,left,Red_Star_Stripes_1.jpg,Green_Circle_Stripes_4.jpg,Purple_Plus_Grid_1.jpg,left,945.4599999880884,true,low,NA,NA,NA,NA,NA,NA,NA,false
NeQQ34xn,33ixyhizc8v0km0rv7j1cbq82t9e2g,3bqu611vftxwcus3z7nwj4t3ttx998,NeQQ34xn,2020-0188,2020-11-15,12:05:37,12:25:43,NA,incomplete,7,filling,1,left,Green_Triangle_Dots_2.jpg,Red_Circle_Dots_4.jpg,Blue_Plus_Grid_2.jpg,left,871.7150000156835,true,low,NA,NA,NA,NA,NA,NA,NA,false
NeQQ34xn,33ixyhizc8v0km0rv7j1cbq82t9e2g,3bqu611vftxwcus3z7nwj4t3ttx998,NeQQ34xn,2020-0188,2020-11-15,12:05:37,12:25:43,NA,incomplete,8,filling,1,right,Green_Circle_Grid_2.jpg,Purple_Triangle_Chess_2.jpg,Red_Star_Grid_4.jpg,right,912.2199999983422,true,low,NA,NA,NA,NA,NA,NA,NA,false
NeQQ34xn,33ixyhizc8v0km0rv7j1cbq82t9e2g,3bqu611vftxwcus3z7nwj4t3ttx998,NeQQ34xn,2020-0188,2020-11-15,12:05:37,12:25:43,NA,incomplete,9,filling,1,left,Blue_Triangle_Chess_3.jpg,Green_Plus_Chess_4.jpg,Purple_Star_Stripes_3.jpg,left,775.2099999925122,true,low,NA,NA,NA,NA,NA,NA,NA,false
NeQQ34xn,33ixyhizc8v0km0rv7j1cbq82t9e2g,3bqu611vftxwcus3z7nwj4t3ttx998,NeQQ34xn,2020-0188,2020-11-15,12:05:37,12:25:43,NA,incomplete,10,filling,1,right,Blue_Star_Grid_1.jpg,Purple_Plus_Dots_1.jpg,Green_Circle_Grid_2.jpg,right,790.145000006305,true,low,NA,NA,NA,NA,NA,NA,NA,false
NeQQ34xn,33ixyhizc8v0km0rv7j1cbq82t9e2g,3bqu611vftxwcus3z7nwj4t3ttx998,NeQQ34xn,2020-0188,2020-11-15,12:05:37,12:25:43,NA,incomplete,11,filling,1,right,Blue_Circle_Dots_2.jpg,Red_Triangle_Stripes_2.jpg,Green_Star_Dots_1.jpg,right,805.8450000244193,true,low,NA,NA,NA,NA,NA,NA,NA,false
NeQQ34xn,33ixyhizc8v0km0rv7j1cbq82t9e2g,3bqu611vftxwcus3z7nwj4t3ttx998,NeQQ34xn,2020-0188,2020-11-15,12:05:37,12:25:43,NA,incomplete,12,filling,1,right,Purple_Star_Grid_4.jpg,Blue_Plus_Stripes_4.jpg,Green_Circle_Grid_3.jpg,left,835.1499999989755,false,low,NA,NA,NA,NA,NA,NA,NA,false
NeQQ34xn,33ixyhizc8v0km0rv7j1cbq82t9e2g,3bqu611vftxwcus3z7nwj4t3ttx998,NeQQ34xn,2020-0188,2020-11-15,12:05:37,12:25:43,NA,incomplete,13,filling,0,left,Blue_Triangle_Stripes_1.jpg,Purple_Plus_Stripes_4.jpg,Green_Star_Grid_1.jpg,left,940.1550000184216,true,low,NA,NA,NA,NA,NA,NA,NA,false
NeQQ34xn,33ixyhizc8v0km0rv7j1cbq82t9e2g,3bqu611vftxwcus3z7nwj4t3ttx998,NeQQ34xn,2020-0188,2020-11-15,12:05:37,12:25:43,NA,incomplete,14,filling,1,right,Green_Circle_Chess_2.jpg,Blue_Triangle_Grid_2.jpg,Purple_Plus_Chess_4.jpg,right,796.5150000236463,true,low,NA,NA,NA,NA,NA,NA,NA,false
NeQQ34xn,33ixyhizc8v0km0rv7j1cbq82t9e2g,3bqu611vftxwcus3z7nwj4t3ttx998,NeQQ34xn,2020-0188,2020-11-15,12:05:37,12:25:43,NA,incomplete,15,filling,1,left,Green_Circle_Stripes_1.jpg,Purple_Plus_Stripes_4.jpg,Red_Triangle_Chess_1.jpg,left,839.8750000051223,true,low,NA,NA,NA,NA,NA,NA,NA,false
NeQQ34xn,33ixyhizc8v0km0rv7j1cbq82t9e2g,3bqu611vftxwcus3z7nwj4t3ttx998,NeQQ34xn,2020-0188,2020-11-15,12:05:37,12:25:43,NA,incomplete,16,filling,0,left,Purple_Star_Stripes_2.jpg,Red_Circle_Stripes_3.jpg,Green_Plus_Grid_2.jpg,left,882.4599999934435,true,low,NA,NA,NA,NA,NA,NA,NA,false
NeQQ34xn,33ixyhizc8v0km0rv7j1cbq82t9e2g,3bqu611vftxwcus3z7nwj4t3ttx998,NeQQ34xn,2020-0188,2020-11-15,12:05:37,12:25:43,NA,incomplete,17,filling,0,right,Red_Plus_Chess_4.jpg,Blue_Circle_Dots_4.jpg,Purple_Triangle_Chess_3.jpg,right,727.309999987483,true,low,NA,NA,NA,NA,NA,NA,NA,false
NeQQ34xn,33ixyhizc8v0km0rv7j1cbq82t9e2g,3bqu611vftxwcus3z7nwj4t3ttx998,NeQQ34xn,2020-0188,2020-11-15,12:05:37,12:25:43,NA,incomplete,18,filling,1,right,Purple_Circle_Grid_2.jpg,Blue_Star_Stripes_2.jpg,Red_Plus_Grid_1.jpg,left,721.4099999982864,false,low,NA,NA,NA,NA,NA,NA,NA,false
NeQQ34xn,33ixyhizc8v0km0rv7j1cbq82t9e2g,3bqu611vftxwcus3z7nwj4t3ttx998,NeQQ34xn,2020-0188,2020-11-15,12:05:37,12:25:43,NA,incomplete,19,filling,0,right,Blue_Plus_Stripes_2.jpg,Red_Triangle_Grid_2.jpg,Green_Star_Stripes_3.jpg,right,924.090000014985,true,low,NA,NA,NA,NA,NA,NA,NA,false
NeQQ34xn,33ixyhizc8v0km0rv7j1cbq82t9e2g,3bqu611vftxwcus3z7nwj4t3ttx998,NeQQ34xn,2020-0188,2020-11-15,12:05:37,12:25:43,NA,incomplete,20,filling,0,right,Purple_Star_Chess_3.jpg,Green_Circle_Stripes_3.jpg,Red_Plus_Chess_2.jpg,left,1199.4849999900907,false,low,NA,NA,NA,NA,NA,NA,NA,false
NeQQ34xn,33ixyhizc8v0km0rv7j1cbq82t9e2g,3bqu611vftxwcus3z7nwj4t3ttx998,NeQQ34xn,2020-0188,2020-11-15,12:05:37,12:25:43,NA,incomplete,21,filling,0,left,Red_Plus_Chess_2.jpg,Green_Triangle_Chess_1.jpg,Blue_Star_Stripes_2.jpg,right,846.6250000055879,false,low,NA,NA,NA,NA,NA,NA,NA,false
NeQQ34xn,33ixyhizc8v0km0rv7j1cbq82t9e2g,3bqu611vftxwcus3z7nwj4t3ttx998,NeQQ34xn,2020-0188,2020-11-15,12:05:37,12:25:43,NA,incomplete,22,filling,0,left,Blue_Plus_Dots_4.jpg,Red_Triangle_Dots_1.jpg,Purple_Star_Stripes_4.jpg,right,729.9849999835715,false,low,NA,NA,NA,NA,NA,NA,NA,false
NeQQ34xn,33ixyhizc8v0km0rv7j1cbq82t9e2g,3bqu611vftxwcus3z7nwj4t3ttx998,NeQQ34xn,2020-0188,2020-11-15,12:05:37,12:25:43,NA,incomplete,23,filling,1,right,Blue_Triangle_Stripes_3.jpg,Red_Circle_Dots_3.jpg,Green_Star_Stripes_4.jpg,left,684.4500000006519,false,low,NA,NA,NA,NA,NA,NA,NA,false
NeQQ34xn,33ixyhizc8v0km0rv7j1cbq82t9e2g,3bqu611vftxwcus3z7nwj4t3ttx998,NeQQ34xn,2020-0188,2020-11-15,12:05:37,12:25:43,NA,incomplete,24,filling,1,left,Blue_Star_Stripes_4.jpg,Red_Plus_Stripes_1.jpg,Purple_Triangle_Chess_4.jpg,right,724.6949999826029,false,low,NA,NA,NA,NA,NA,NA,NA,false
NeQQ34xn,33ixyhizc8v0km0rv7j1cbq82t9e2g,3bqu611vftxwcus3z7nwj4t3ttx998,NeQQ34xn,2020-0188,2020-11-15,12:05:37,12:25:43,NA,incomplete,25,filling,1,right,Green_Star_Stripes_2.jpg,Red_Circle_Chess_2.jpg,Purple_Plus_Stripes_4.jpg,left,672.5299999816343,false,low,NA,NA,NA,NA,NA,NA,NA,false
NeQQ34xn,33ixyhizc8v0km0rv7j1cbq82t9e2g,3bqu611vftxwcus3z7nwj4t3ttx998,NeQQ34xn,2020-0188,2020-11-15,12:05:37,12:25:43,NA,incomplete,26,filling,1,right,Purple_Star_Dots_2.jpg,Red_Circle_Chess_2.jpg,Green_Plus_Dots_1.jpg,right,899.4300000194926,true,low,NA,NA,NA,NA,NA,NA,NA,false
NeQQ34xn,33ixyhizc8v0km0rv7j1cbq82t9e2g,3bqu611vftxwcus3z7nwj4t3ttx998,NeQQ34xn,2020-0188,2020-11-15,12:05:37,12:25:43,NA,incomplete,27,filling,1,right,Red_Star_Stripes_3.jpg,Green_Circle_Chess_3.jpg,Blue_Triangle_Stripes_1.jpg,right,1081.6500000073574,true,low,NA,NA,NA,NA,NA,NA,NA,false
NeQQ34xn,33ixyhizc8v0km0rv7j1cbq82t9e2g,3bqu611vftxwcus3z7nwj4t3ttx998,NeQQ34xn,2020-0188,2020-11-15,12:05:37,12:25:43,NA,incomplete,28,filling,1,left,Red_Plus_Stripes_2.jpg,Purple_Circle_Stripes_1.jpg,Green_Star_Grid_2.jpg,left,832.2850000113249,true,low,NA,NA,NA,NA,NA,NA,NA,false
NeQQ34xn,33ixyhizc8v0km0rv7j1cbq82t9e2g,3bqu611vftxwcus3z7nwj4t3ttx998,NeQQ34xn,2020-0188,2020-11-15,12:05:37,12:25:43,NA,incomplete,29,filling,1,right,Purple_Triangle_Chess_2.jpg,Red_Circle_Stripes_2.jpg,Green_Star_Chess_3.jpg,right,746.4949999994133,true,low,NA,NA,NA,NA,NA,NA,NA,false
NeQQ34xn,33ixyhizc8v0km0rv7j1cbq82t9e2g,3bqu611vftxwcus3z7nwj4t3ttx998,NeQQ34xn,2020-0188,2020-11-15,12:05:37,12:25:43,NA,incomplete,30,number,1,right,Red_Plus_Stripes_3.jpg,Green_Circle_Stripes_4.jpg,Blue_Star_Grid_3.jpg,left,1049.7750000213273,false,low,NA,NA,NA,NA,NA,NA,NA,false
NeQQ34xn,33ixyhizc8v0km0rv7j1cbq82t9e2g,3bqu611vftxwcus3z7nwj4t3ttx998,NeQQ34xn,2020-0188,2020-11-15,12:05:37,12:25:43,NA,incomplete,31,number,0,left,Red_Circle_Chess_1.jpg,Purple_Star_Dots_1.jpg,Blue_Plus_Chess_3.jpg,right,866.1800000118092,false,low,NA,NA,NA,NA,NA,NA,NA,false
NeQQ34xn,33ixyhizc8v0km0rv7j1cbq82t9e2g,3bqu611vftxwcus3z7nwj4t3ttx998,NeQQ34xn,2020-0188,2020-11-15,12:05:37,12:25:43,NA,incomplete,32,number,1,left,Green_Star_Stripes_2.jpg,Purple_Circle_Grid_2.jpg,Blue_Plus_Stripes_3.jpg,right,854.5000000158325,false,low,NA,NA,NA,NA,NA,NA,NA,false
NeQQ34xn,33ixyhizc8v0km0rv7j1cbq82t9e2g,3bqu611vftxwcus3z7nwj4t3ttx998,NeQQ34xn,2020-0188,2020-11-15,12:05:37,12:25:43,NA,incomplete,33,number,1,right,Red_Triangle_Dots_3.jpg,Blue_Circle_Dots_2.jpg,Green_Plus_Chess_3.jpg,right,837.310000002617,true,low,NA,NA,NA,NA,NA,NA,NA,false
NeQQ34xn,33ixyhizc8v0km0rv7j1cbq82t9e2g,3bqu611vftxwcus3z7nwj4t3ttx998,NeQQ34xn,2020-0188,2020-11-15,12:05:37,12:25:43,NA,incomplete,34,number,1,left,Purple_Star_Grid_2.jpg,Blue_Plus_Stripes_2.jpg,Green_Circle_Grid_3.jpg,left,961.6600000008475,true,low,NA,NA,NA,NA,NA,NA,NA,false
NeQQ34xn,33ixyhizc8v0km0rv7j1cbq82t9e2g,3bqu611vftxwcus3z7nwj4t3ttx998,NeQQ34xn,2020-0188,2020-11-15,12:05:37,12:25:43,NA,incomplete,35,number,1,right,Purple_Plus_Chess_2.jpg,Green_Triangle_Chess_3.jpg,Blue_Circle_Dots_2.jpg,left,878.0749999859836,false,low,NA,NA,NA,NA,NA,NA,NA,false
NeQQ34xn,33ixyhizc8v0km0rv7j1cbq82t9e2g,3bqu611vftxwcus3z7nwj4t3ttx998,NeQQ34xn,2020-0188,2020-11-15,12:05:37,12:25:43,NA,incomplete,36,number,1,left,Red_Star_Chess_3.jpg,Green_Triangle_Stripes_3.jpg,Purple_Circle_Chess_1.jpg,right,837.5900000100955,false,low,NA,NA,NA,NA,NA,NA,NA,false
NeQQ34xn,33ixyhizc8v0km0rv7j1cbq82t9e2g,3bqu611vftxwcus3z7nwj4t3ttx998,NeQQ34xn,2020-0188,2020-11-15,12:05:37,12:25:43,NA,incomplete,37,number,1,right,Blue_Triangle_Dots_4.jpg,Purple_Star_Dots_3.jpg,Green_Plus_Stripes_4.jpg,right,706.1899999971502,true,low,NA,NA,NA,NA,NA,NA,NA,false
NeQQ34xn,33ixyhizc8v0km0rv7j1cbq82t9e2g,3bqu611vftxwcus3z7nwj4t3ttx998,NeQQ34xn,2020-0188,2020-11-15,12:05:37,12:25:43,NA,incomplete,38,number,1,right,Blue_Plus_Stripes_1.jpg,Red_Star_Stripes_3.jpg,Green_Triangle_Grid_1.jpg,right,596.5699999942444,true,low,NA,NA,NA,NA,NA,NA,NA,false
NeQQ34xn,33ixyhizc8v0km0rv7j1cbq82t9e2g,3bqu611vftxwcus3z7nwj4t3ttx998,NeQQ34xn,2020-0188,2020-11-15,12:05:37,12:25:43,NA,incomplete,39,number,0,right,Purple_Triangle_Dots_3.jpg,Green_Star_Dots_4.jpg,Red_Circle_Grid_3.jpg,right,652.7249999926426,true,low,NA,NA,NA,NA,NA,NA,NA,false
NeQQ34xn,33ixyhizc8v0km0rv7j1cbq82t9e2g,3bqu611vftxwcus3z7nwj4t3ttx998,NeQQ34xn,2020-0188,2020-11-15,12:05:37,12:25:43,NA,incomplete,40,number,0,left,Green_Star_Stripes_3.jpg,Blue_Plus_Grid_3.jpg,Purple_Triangle_Stripes_2.jpg,left,660.1450000016484,true,low,NA,NA,NA,NA,NA,NA,NA,false
NeQQ34xn,33ixyhizc8v0km0rv7j1cbq82t9e2g,3bqu611vftxwcus3z7nwj4t3ttx998,NeQQ34xn,2020-0188,2020-11-15,12:05:37,12:25:43,NA,incomplete,41,number,1,left,Red_Triangle_Stripes_4.jpg,Green_Circle_Dots_4.jpg,Purple_Star_Stripes_1.jpg,right,1058.88500000583,false,low,NA,NA,NA,NA,NA,NA,NA,false
NeQQ34xn,33ixyhizc8v0km0rv7j1cbq82t9e2g,3bqu611vftxwcus3z7nwj4t3ttx998,NeQQ34xn,2020-0188,2020-11-15,12:05:37,12:25:43,NA,incomplete,42,number,1,right,Red_Triangle_Stripes_3.jpg,Blue_Star_Stripes_4.jpg,Green_Circle_Dots_3.jpg,right,651.4200000092387,true,low,NA,NA,NA,NA,NA,NA,NA,false
NeQQ34xn,33ixyhizc8v0km0rv7j1cbq82t9e2g,3bqu611vftxwcus3z7nwj4t3ttx998,NeQQ34xn,2020-0188,2020-11-15,12:05:37,12:25:43,NA,incomplete,43,number,1,left,Red_Triangle_Dots_1.jpg,Purple_Circle_Chess_1.jpg,Green_Star_Dots_4.jpg,left,604.7700000053737,true,low,NA,NA,NA,NA,NA,NA,NA,false
NeQQ34xn,33ixyhizc8v0km0rv7j1cbq82t9e2g,3bqu611vftxwcus3z7nwj4t3ttx998,NeQQ34xn,2020-0188,2020-11-15,12:05:37,12:25:43,NA,incomplete,44,number,1,left,Red_Star_Grid_3.jpg,Green_Triangle_Stripes_3.jpg,Purple_Plus_Grid_2.jpg,left,661.9599999976344,true,low,NA,NA,NA,NA,NA,NA,NA,false
NeQQ34xn,33ixyhizc8v0km0rv7j1cbq82t9e2g,3bqu611vftxwcus3z7nwj4t3ttx998,NeQQ34xn,2020-0188,2020-11-15,12:05:37,12:25:43,NA,incomplete,45,number,0,left,Purple_Triangle_Chess_4.jpg,Red_Star_Stripes_4.jpg,Blue_Circle_Chess_2.jpg,left,703.9550000044983,true,low,NA,NA,NA,NA,NA,NA,NA,false
NeQQ34xn,33ixyhizc8v0km0rv7j1cbq82t9e2g,3bqu611vftxwcus3z7nwj4t3ttx998,NeQQ34xn,2020-0188,2020-11-15,12:05:37,12:25:43,NA,incomplete,46,number,1,right,Blue_Triangle_Dots_3.jpg,Purple_Plus_Dots_1.jpg,Green_Star_Chess_3.jpg,right,550.4649999784306,true,low,NA,NA,NA,NA,NA,NA,NA,false
NeQQ34xn,33ixyhizc8v0km0rv7j1cbq82t9e2g,3bqu611vftxwcus3z7nwj4t3ttx998,NeQQ34xn,2020-0188,2020-11-15,12:05:37,12:25:43,NA,incomplete,47,number,1,left,Blue_Triangle_Dots_2.jpg,Red_Circle_Chess_2.jpg,Purple_Star_Dots_1.jpg,left,647.3100000002887,true,low,NA,NA,NA,NA,NA,NA,NA,false
NeQQ34xn,33ixyhizc8v0km0rv7j1cbq82t9e2g,3bqu611vftxwcus3z7nwj4t3ttx998,NeQQ34xn,2020-0188,2020-11-15,12:05:37,12:25:43,NA,incomplete,48,number,1,left,Red_Circle_Grid_4.jpg,Green_Plus_Dots_4.jpg,Purple_Triangle_Grid_1.jpg,left,596.350000007078,true,low,NA,NA,NA,NA,NA,NA,NA,false
NeQQ34xn,33ixyhizc8v0km0rv7j1cbq82t9e2g,3bqu611vftxwcus3z7nwj4t3ttx998,NeQQ34xn,2020-0188,2020-11-15,12:05:37,12:25:43,NA,incomplete,49,number,1,left,Green_Triangle_Grid_3.jpg,Red_Star_Dots_3.jpg,Blue_Circle_Grid_2.jpg,left,698.1249999953434,true,low,NA,NA,NA,NA,NA,NA,NA,false
NeQQ34xn,33ixyhizc8v0km0rv7j1cbq82t9e2g,3bqu611vftxwcus3z7nwj4t3ttx998,NeQQ34xn,2020-0188,2020-11-15,12:05:37,12:25:43,NA,incomplete,50,number,1,left,Blue_Star_Grid_3.jpg,Green_Triangle_Chess_3.jpg,Purple_Circle_Grid_1.jpg,left,593.6750000109896,true,low,NA,NA,NA,NA,NA,NA,NA,false
NeQQ34xn,33ixyhizc8v0km0rv7j1cbq82t9e2g,3bqu611vftxwcus3z7nwj4t3ttx998,NeQQ34xn,2020-0188,2020-11-15,12:05:37,12:25:43,NA,incomplete,51,number,0,right,Purple_Circle_Grid_4.jpg,Red_Triangle_Grid_3.jpg,Blue_Star_Chess_4.jpg,right,631.3900000241119,true,low,NA,NA,NA,NA,NA,NA,NA,false
NeQQ34xn,33ixyhizc8v0km0rv7j1cbq82t9e2g,3bqu611vftxwcus3z7nwj4t3ttx998,NeQQ34xn,2020-0188,2020-11-15,12:05:37,12:25:43,NA,incomplete,52,number,1,left,Purple_Circle_Dots_2.jpg,Red_Plus_Stripes_2.jpg,Green_Star_Dots_1.jpg,left,680.4750000010245,true,low,NA,NA,NA,NA,NA,NA,NA,false
NeQQ34xn,33ixyhizc8v0km0rv7j1cbq82t9e2g,3bqu611vftxwcus3z7nwj4t3ttx998,NeQQ34xn,2020-0188,2020-11-15,12:05:37,12:25:43,NA,incomplete,53,number,1,right,Red_Triangle_Grid_1.jpg,Blue_Circle_Grid_2.jpg,Purple_Star_Dots_1.jpg,right,715.7250000163913,true,low,NA,NA,NA,NA,NA,NA,NA,false
NeQQ34xn,33ixyhizc8v0km0rv7j1cbq82t9e2g,3bqu611vftxwcus3z7nwj4t3ttx998,NeQQ34xn,2020-0188,2020-11-15,12:05:37,12:25:43,NA,incomplete,54,number,1,left,Blue_Triangle_Chess_1.jpg,Purple_Circle_Stripes_1.jpg,Red_Star_Chess_2.jpg,left,540.9349999972619,true,low,NA,NA,NA,NA,NA,NA,NA,false
NeQQ34xn,33ixyhizc8v0km0rv7j1cbq82t9e2g,3bqu611vftxwcus3z7nwj4t3ttx998,NeQQ34xn,2020-0188,2020-11-15,12:05:37,12:25:43,NA,incomplete,55,number,1,left,Purple_Circle_Chess_3.jpg,Blue_Plus_Grid_3.jpg,Green_Star_Chess_4.jpg,left,751.9100000208709,true,low,NA,NA,NA,NA,NA,NA,NA,false
NeQQ34xn,33ixyhizc8v0km0rv7j1cbq82t9e2g,3bqu611vftxwcus3z7nwj4t3ttx998,NeQQ34xn,2020-0188,2020-11-15,12:05:37,12:25:43,NA,incomplete,56,number,1,right,Blue_Plus_Stripes_2.jpg,Green_Triangle_Stripes_4.jpg,Red_Star_Chess_2.jpg,right,543.8450000074226,true,low,NA,NA,NA,NA,NA,NA,NA,false
NeQQ34xn,33ixyhizc8v0km0rv7j1cbq82t9e2g,3bqu611vftxwcus3z7nwj4t3ttx998,NeQQ34xn,2020-0188,2020-11-15,12:05:37,12:25:43,NA,incomplete,57,number,1,left,Red_Plus_Stripes_2.jpg,Purple_Circle_Dots_2.jpg,Green_Star_Stripes_4.jpg,left,548.5550000157673,true,low,NA,NA,NA,NA,NA,NA,NA,false
NeQQ34xn,33ixyhizc8v0km0rv7j1cbq82t9e2g,3bqu611vftxwcus3z7nwj4t3ttx998,NeQQ34xn,2020-0188,2020-11-15,12:05:37,12:25:43,NA,incomplete,58,number,1,right,Red_Plus_Chess_2.jpg,Purple_Triangle_Chess_3.jpg,Green_Circle_Grid_2.jpg,right,700.2950000169221,true,low,NA,NA,NA,NA,NA,NA,NA,false
NeQQ34xn,33ixyhizc8v0km0rv7j1cbq82t9e2g,3bqu611vftxwcus3z7nwj4t3ttx998,NeQQ34xn,2020-0188,2020-11-15,12:05:37,12:25:43,NA,incomplete,59,number,1,left,Red_Circle_Grid_2.jpg,Purple_Plus_Stripes_2.jpg,Blue_Triangle_Grid_1.jpg,left,646.984999999404,true,low,NA,NA,NA,NA,NA,NA,NA,false
NeQQ34xn,33ixyhizc8v0km0rv7j1cbq82t9e2g,3bqu611vftxwcus3z7nwj4t3ttx998,NeQQ34xn,2020-0188,2020-11-15,12:05:37,12:25:43,NA,incomplete,60,filling,1,right,Blue_Star_Chess_1.jpg,Red_Circle_Stripes_1.jpg,Green_Plus_Chess_2.jpg,left,550.7349999970756,false,low,NA,NA,NA,NA,NA,NA,NA,false
NeQQ34xn,33ixyhizc8v0km0rv7j1cbq82t9e2g,3bqu611vftxwcus3z7nwj4t3ttx998,NeQQ34xn,2020-0188,2020-11-15,12:05:37,12:25:43,NA,incomplete,61,filling,1,left,Green_Circle_Dots_3.jpg,Blue_Triangle_Dots_1.jpg,Red_Plus_Grid_3.jpg,right,609.5849999983329,false,low,NA,NA,NA,NA,NA,NA,NA,false
NeQQ34xn,33ixyhizc8v0km0rv7j1cbq82t9e2g,3bqu611vftxwcus3z7nwj4t3ttx998,NeQQ34xn,2020-0188,2020-11-15,12:05:37,12:25:43,NA,incomplete,62,filling,1,left,Blue_Plus_Chess_3.jpg,Purple_Star_Chess_2.jpg,Red_Circle_Grid_3.jpg,right,728.6899999890011,false,low,NA,NA,NA,NA,NA,NA,NA,false
NeQQ34xn,33ixyhizc8v0km0rv7j1cbq82t9e2g,3bqu611vftxwcus3z7nwj4t3ttx998,NeQQ34xn,2020-0188,2020-11-15,12:05:37,12:25:43,NA,incomplete,63,filling,1,right,Red_Star_Stripes_1.jpg,Purple_Plus_Chess_1.jpg,Green_Circle_Stripes_4.jpg,right,926.244999980554,true,low,NA,NA,NA,NA,NA,NA,NA,false
NeQQ34xn,33ixyhizc8v0km0rv7j1cbq82t9e2g,3bqu611vftxwcus3z7nwj4t3ttx998,NeQQ34xn,2020-0188,2020-11-15,12:05:37,12:25:43,NA,incomplete,64,filling,0,left,Green_Triangle_Stripes_1.jpg,Blue_Circle_Stripes_4.jpg,Purple_Plus_Dots_1.jpg,left,661.4399999962188,true,low,NA,NA,NA,NA,NA,NA,NA,false
NeQQ34xn,33ixyhizc8v0km0rv7j1cbq82t9e2g,3bqu611vftxwcus3z7nwj4t3ttx998,NeQQ34xn,2020-0188,2020-11-15,12:05:37,12:25:43,NA,incomplete,65,filling,1,right,Green_Circle_Grid_1.jpg,Purple_Triangle_Dots_1.jpg,Red_Star_Grid_2.jpg,right,659.6350000181701,true,low,NA,NA,NA,NA,NA,NA,NA,false
NeQQ34xn,33ixyhizc8v0km0rv7j1cbq82t9e2g,3bqu611vftxwcus3z7nwj4t3ttx998,NeQQ34xn,2020-0188,2020-11-15,12:05:37,12:25:43,NA,incomplete,66,filling,0,left,Red_Circle_Chess_2.jpg,Purple_Triangle_Chess_3.jpg,Green_Plus_Grid_2.jpg,left,674.8749999969732,true,low,NA,NA,NA,NA,NA,NA,NA,false
NeQQ34xn,33ixyhizc8v0km0rv7j1cbq82t9e2g,3bqu611vftxwcus3z7nwj4t3ttx998,NeQQ34xn,2020-0188,2020-11-15,12:05:37,12:25:43,NA,incomplete,67,filling,0,left,Blue_Circle_Chess_1.jpg,Green_Plus_Chess_2.jpg,Purple_Star_Grid_1.jpg,left,992.6700000069104,true,low,NA,NA,NA,NA,NA,NA,NA,false
NeQQ34xn,33ixyhizc8v0km0rv7j1cbq82t9e2g,3bqu611vftxwcus3z7nwj4t3ttx998,NeQQ34xn,2020-0188,2020-11-15,12:05:37,12:25:43,NA,incomplete,68,filling,1,right,Green_Star_Chess_2.jpg,Blue_Circle_Grid_2.jpg,Red_Plus_Chess_1.jpg,right,921.2999999872409,true,low,NA,NA,NA,NA,NA,NA,NA,false
NeQQ34xn,33ixyhizc8v0km0rv7j1cbq82t9e2g,3bqu611vftxwcus3z7nwj4t3ttx998,NeQQ34xn,2020-0188,2020-11-15,12:05:37,12:25:43,NA,incomplete,69,filling,1,right,Purple_Star_Chess_2.jpg,Red_Triangle_Stripes_2.jpg,Blue_Circle_Chess_1.jpg,right,791.0850000043865,true,low,NA,NA,NA,NA,NA,NA,NA,false
NeQQ34xn,33ixyhizc8v0km0rv7j1cbq82t9e2g,3bqu611vftxwcus3z7nwj4t3ttx998,NeQQ34xn,2020-0188,2020-11-15,12:05:37,12:25:43,NA,incomplete,70,filling,0,right,Green_Star_Grid_1.jpg,Purple_Plus_Chess_1.jpg,Blue_Triangle_Grid_2.jpg,right,789.840000012191,true,low,NA,NA,NA,NA,NA,NA,NA,false
NeQQ34xn,33ixyhizc8v0km0rv7j1cbq82t9e2g,3bqu611vftxwcus3z7nwj4t3ttx998,NeQQ34xn,2020-0188,2020-11-15,12:05:37,12:25:43,NA,incomplete,71,filling,1,right,Green_Circle_Grid_4.jpg,Red_Plus_Stripes_4.jpg,Blue_Triangle_Grid_2.jpg,right,821.6800000227522,true,low,NA,NA,NA,NA,NA,NA,NA,false
NeQQ34xn,33ixyhizc8v0km0rv7j1cbq82t9e2g,3bqu611vftxwcus3z7nwj4t3ttx998,NeQQ34xn,2020-0188,2020-11-15,12:05:37,12:25:43,NA,incomplete,72,filling,1,left,Red_Star_Chess_1.jpg,Green_Plus_Chess_2.jpg,Purple_Circle_Stripes_1.jpg,left,851.5650000190362,true,low,NA,NA,NA,NA,NA,NA,NA,false
NeQQ34xn,33ixyhizc8v0km0rv7j1cbq82t9e2g,3bqu611vftxwcus3z7nwj4t3ttx998,NeQQ34xn,2020-0188,2020-11-15,12:05:37,12:25:43,NA,incomplete,73,filling,1,left,Green_Triangle_Dots_3.jpg,Red_Circle_Dots_4.jpg,Blue_Plus_Chess_3.jpg,left,1067.784999992,true,low,NA,NA,NA,NA,NA,NA,NA,false
NeQQ34xn,33ixyhizc8v0km0rv7j1cbq82t9e2g,3bqu611vftxwcus3z7nwj4t3ttx998,NeQQ34xn,2020-0188,2020-11-15,12:05:37,12:25:43,NA,incomplete,74,filling,1,left,Purple_Triangle_Stripes_1.jpg,Green_Star_Stripes_3.jpg,Red_Plus_Grid_1.jpg,left,924.9450000061188,true,low,NA,NA,NA,NA,NA,NA,NA,false
NeQQ34xn,33ixyhizc8v0km0rv7j1cbq82t9e2g,3bqu611vftxwcus3z7nwj4t3ttx998,NeQQ34xn,2020-0188,2020-11-15,12:05:37,12:25:43,NA,incomplete,75,filling,1,left,Blue_Plus_Grid_3.jpg,Red_Triangle_Grid_4.jpg,Purple_Star_Chess_3.jpg,left,731.5099999832455,true,low,NA,NA,NA,NA,NA,NA,NA,false
NeQQ34xn,33ixyhizc8v0km0rv7j1cbq82t9e2g,3bqu611vftxwcus3z7nwj4t3ttx998,NeQQ34xn,2020-0188,2020-11-15,12:05:37,12:25:43,NA,incomplete,76,filling,0,right,Red_Triangle_Chess_4.jpg,Blue_Plus_Stripes_4.jpg,Green_Circle_Chess_2.jpg,right,641.219999990426,true,low,NA,NA,NA,NA,NA,NA,NA,false
NeQQ34xn,33ixyhizc8v0km0rv7j1cbq82t9e2g,3bqu611vftxwcus3z7nwj4t3ttx998,NeQQ34xn,2020-0188,2020-11-15,12:05:37,12:25:43,NA,incomplete,77,filling,1,right,Purple_Plus_Stripes_1.jpg,Red_Circle_Chess_1.jpg,Blue_Star_Stripes_4.jpg,right,816.4300000062212,true,low,NA,NA,NA,NA,NA,NA,NA,false
NeQQ34xn,33ixyhizc8v0km0rv7j1cbq82t9e2g,3bqu611vftxwcus3z7nwj4t3ttx998,NeQQ34xn,2020-0188,2020-11-15,12:05:37,12:25:43,NA,incomplete,78,filling,1,left,Green_Plus_Stripes_1.jpg,Purple_Circle_Stripes_3.jpg,Red_Triangle_Grid_1.jpg,left,806.6550000221469,true,low,NA,NA,NA,NA,NA,NA,NA,false
NeQQ34xn,33ixyhizc8v0km0rv7j1cbq82t9e2g,3bqu611vftxwcus3z7nwj4t3ttx998,NeQQ34xn,2020-0188,2020-11-15,12:05:37,12:25:43,NA,incomplete,79,filling,1,right,Green_Plus_Stripes_1.jpg,Blue_Triangle_Dots_1.jpg,Red_Star_Stripes_3.jpg,right,605.924999981653,true,low,NA,NA,NA,NA,NA,NA,NA,false
NeQQ34xn,33ixyhizc8v0km0rv7j1cbq82t9e2g,3bqu611vftxwcus3z7nwj4t3ttx998,NeQQ34xn,2020-0188,2020-11-15,12:05:37,12:25:43,NA,incomplete,80,filling,1,left,Green_Plus_Chess_4.jpg,Blue_Triangle_Chess_3.jpg,Red_Circle_Grid_4.jpg,left,703.6749999970198,true,low,NA,NA,NA,NA,NA,NA,NA,false
NeQQ34xn,33ixyhizc8v0km0rv7j1cbq82t9e2g,3bqu611vftxwcus3z7nwj4t3ttx998,NeQQ34xn,2020-0188,2020-11-15,12:05:37,12:25:43,NA,incomplete,81,filling,1,right,Red_Star_Stripes_3.jpg,Green_Triangle_Chess_3.jpg,Blue_Circle_Stripes_4.jpg,right,625.7999999797903,true,low,NA,NA,NA,NA,NA,NA,NA,false
NeQQ34xn,33ixyhizc8v0km0rv7j1cbq82t9e2g,3bqu611vftxwcus3z7nwj4t3ttx998,NeQQ34xn,2020-0188,2020-11-15,12:05:37,12:25:43,NA,incomplete,82,filling,1,right,Purple_Circle_Grid_3.jpg,Blue_Plus_Dots_3.jpg,Red_Star_Grid_1.jpg,right,747.510000015609,true,low,NA,NA,NA,NA,NA,NA,NA,false
NeQQ34xn,33ixyhizc8v0km0rv7j1cbq82t9e2g,3bqu611vftxwcus3z7nwj4t3ttx998,NeQQ34xn,2020-0188,2020-11-15,12:05:37,12:25:43,NA,incomplete,83,filling,1,right,Green_Plus_Chess_1.jpg,Blue_Triangle_Grid_1.jpg,Red_Star_Chess_3.jpg,right,669.2800000018906,true,low,NA,NA,NA,NA,NA,NA,NA,false
NeQQ34xn,33ixyhizc8v0km0rv7j1cbq82t9e2g,3bqu611vftxwcus3z7nwj4t3ttx998,NeQQ34xn,2020-0188,2020-11-15,12:05:37,12:25:43,NA,incomplete,84,filling,1,right,Blue_Star_Chess_3.jpg,Green_Triangle_Grid_3.jpg,Red_Circle_Chess_2.jpg,right,820.2950000122655,true,low,NA,NA,NA,NA,NA,NA,NA,false
NeQQ34xn,33ixyhizc8v0km0rv7j1cbq82t9e2g,3bqu611vftxwcus3z7nwj4t3ttx998,NeQQ34xn,2020-0188,2020-11-15,12:05:37,12:25:43,NA,incomplete,85,filling,1,left,Blue_Star_Stripes_2.jpg,Green_Plus_Stripes_4.jpg,Red_Triangle_Grid_2.jpg,left,723.0999999737833,true,low,NA,NA,NA,NA,NA,NA,NA,false
NeQQ34xn,33ixyhizc8v0km0rv7j1cbq82t9e2g,3bqu611vftxwcus3z7nwj4t3ttx998,NeQQ34xn,2020-0188,2020-11-15,12:05:37,12:25:43,NA,incomplete,86,filling,1,left,Green_Circle_Dots_2.jpg,Purple_Triangle_Dots_1.jpg,Red_Plus_Chess_2.jpg,right,826.6649999713991,false,low,NA,NA,NA,NA,NA,NA,NA,false
NeQQ34xn,33ixyhizc8v0km0rv7j1cbq82t9e2g,3bqu611vftxwcus3z7nwj4t3ttx998,NeQQ34xn,2020-0188,2020-11-15,12:05:37,12:25:43,NA,incomplete,87,filling,1,left,Red_Triangle_Dots_1.jpg,Purple_Star_Dots_2.jpg,Green_Circle_Chess_1.jpg,left,681.4000000013039,true,low,NA,NA,NA,NA,NA,NA,NA,false
NeQQ34xn,33ixyhizc8v0km0rv7j1cbq82t9e2g,3bqu611vftxwcus3z7nwj4t3ttx998,NeQQ34xn,2020-0188,2020-11-15,12:05:37,12:25:43,NA,incomplete,88,filling,1,left,Purple_Triangle_Dots_4.jpg,Green_Star_Dots_2.jpg,Blue_Circle_Chess_4.jpg,left,775.8849999809172,true,low,NA,NA,NA,NA,NA,NA,NA,false
NeQQ34xn,33ixyhizc8v0km0rv7j1cbq82t9e2g,3bqu611vftxwcus3z7nwj4t3ttx998,NeQQ34xn,2020-0188,2020-11-15,12:05:37,12:25:43,NA,incomplete,89,filling,1,left,Red_Plus_Grid_1.jpg,Green_Circle_Grid_3.jpg,Purple_Star_Dots_1.jpg,left,813.0550000059884,true,low,NA,NA,NA,NA,NA,NA,NA,false
NeQQ34xn,33ixyhizc8v0km0rv7j1cbq82t9e2g,3bqu611vftxwcus3z7nwj4t3ttx998,NeQQ34xn,2020-0188,2020-11-15,12:05:37,12:25:43,NA,incomplete,90,number,1,left,Red_Plus_Stripes_2.jpg,Green_Triangle_Grid_2.jpg,Purple_Star_Stripes_1.jpg,right,796.650000003865,false,low,NA,NA,NA,NA,NA,NA,NA,false
NeQQ34xn,33ixyhizc8v0km0rv7j1cbq82t9e2g,3bqu611vftxwcus3z7nwj4t3ttx998,NeQQ34xn,2020-0188,2020-11-15,12:05:37,12:25:43,NA,incomplete,91,number,1,left,Purple_Circle_Chess_4.jpg,Green_Star_Dots_4.jpg,Blue_Plus_Chess_1.jpg,right,731.9799999822862,false,low,NA,NA,NA,NA,NA,NA,NA,false
NeQQ34xn,33ixyhizc8v0km0rv7j1cbq82t9e2g,3bqu611vftxwcus3z7nwj4t3ttx998,NeQQ34xn,2020-0188,2020-11-15,12:05:37,12:25:43,NA,incomplete,92,number,1,right,Blue_Circle_Stripes_3.jpg,Purple_Star_Stripes_1.jpg,Green_Triangle_Dots_3.jpg,right,627.8800000145566,true,low,NA,NA,NA,NA,NA,NA,NA,false
NeQQ34xn,33ixyhizc8v0km0rv7j1cbq82t9e2g,3bqu611vftxwcus3z7nwj4t3ttx998,NeQQ34xn,2020-0188,2020-11-15,12:05:37,12:25:43,NA,incomplete,93,number,0,left,Red_Star_Dots_1.jpg,Blue_Triangle_Stripes_1.jpg,Green_Plus_Dots_3.jpg,left,719.1600000078324,true,low,NA,NA,NA,NA,NA,NA,NA,false
NeQQ34xn,33ixyhizc8v0km0rv7j1cbq82t9e2g,3bqu611vftxwcus3z7nwj4t3ttx998,NeQQ34xn,2020-0188,2020-11-15,12:05:37,12:25:43,NA,incomplete,94,number,1,right,Blue_Triangle_Dots_4.jpg,Green_Plus_Dots_3.jpg,Purple_Circle_Chess_4.jpg,right,655.8500000101048,true,low,NA,NA,NA,NA,NA,NA,NA,false
NeQQ34xn,33ixyhizc8v0km0rv7j1cbq82t9e2g,3bqu611vftxwcus3z7nwj4t3ttx998,NeQQ34xn,2020-0188,2020-11-15,12:05:37,12:25:43,NA,incomplete,95,number,1,right,Green_Star_Dots_1.jpg,Red_Plus_Dots_4.jpg,Blue_Triangle_Chess_1.jpg,right,678.2599999860395,true,low,NA,NA,NA,NA,NA,NA,NA,false
NeQQ34xn,33ixyhizc8v0km0rv7j1cbq82t9e2g,3bqu611vftxwcus3z7nwj4t3ttx998,NeQQ34xn,2020-0188,2020-11-15,12:05:37,12:25:43,NA,incomplete,96,number,1,right,Green_Circle_Dots_3.jpg,Purple_Plus_Dots_4.jpg,Red_Star_Grid_3.jpg,right,722.5449999968987,true,low,NA,NA,NA,NA,NA,NA,NA,false
NeQQ34xn,33ixyhizc8v0km0rv7j1cbq82t9e2g,3bqu611vftxwcus3z7nwj4t3ttx998,NeQQ34xn,2020-0188,2020-11-15,12:05:37,12:25:43,NA,incomplete,97,number,1,left,Red_Plus_Grid_3.jpg,Blue_Star_Chess_3.jpg,Green_Triangle_Grid_2.jpg,left,628.7299999967217,true,low,NA,NA,NA,NA,NA,NA,NA,false
NeQQ34xn,33ixyhizc8v0km0rv7j1cbq82t9e2g,3bqu611vftxwcus3z7nwj4t3ttx998,NeQQ34xn,2020-0188,2020-11-15,12:05:37,12:25:43,NA,incomplete,98,number,1,right,Purple_Triangle_Stripes_1.jpg,Green_Plus_Stripes_3.jpg,Red_Circle_Dots_1.jpg,right,714.3450000148732,true,low,NA,NA,NA,NA,NA,NA,NA,false
NeQQ34xn,33ixyhizc8v0km0rv7j1cbq82t9e2g,3bqu611vftxwcus3z7nwj4t3ttx998,NeQQ34xn,2020-0188,2020-11-15,12:05:37,12:25:43,NA,incomplete,99,number,1,right,Blue_Triangle_Chess_2.jpg,Green_Star_Chess_4.jpg,Purple_Circle_Stripes_2.jpg,right,516.1150000058115,true,low,NA,NA,NA,NA,NA,NA,NA,false
NeQQ34xn,33ixyhizc8v0km0rv7j1cbq82t9e2g,3bqu611vftxwcus3z7nwj4t3ttx998,NeQQ34xn,2020-0188,2020-11-15,12:05:37,12:25:43,NA,incomplete,100,number,1,left,Red_Circle_Dots_4.jpg,Blue_Plus_Grid_4.jpg,Green_Triangle_Dots_1.jpg,left,567.3250000108965,true,low,NA,NA,NA,NA,NA,NA,NA,false
NeQQ34xn,33ixyhizc8v0km0rv7j1cbq82t9e2g,3bqu611vftxwcus3z7nwj4t3ttx998,NeQQ34xn,2020-0188,2020-11-15,12:05:37,12:25:43,NA,incomplete,101,number,0,right,Blue_Plus_Chess_1.jpg,Green_Circle_Chess_2.jpg,Purple_Triangle_Dots_1.jpg,right,570.0450000003912,true,low,NA,NA,NA,NA,NA,NA,NA,false
NeQQ34xn,33ixyhizc8v0km0rv7j1cbq82t9e2g,3bqu611vftxwcus3z7nwj4t3ttx998,NeQQ34xn,2020-0188,2020-11-15,12:05:37,12:25:43,NA,incomplete,102,number,1,right,Green_Star_Dots_2.jpg,Red_Triangle_Dots_3.jpg,Blue_Plus_Grid_2.jpg,right,695.1849999895785,true,low,NA,NA,NA,NA,NA,NA,NA,false
NeQQ34xn,33ixyhizc8v0km0rv7j1cbq82t9e2g,3bqu611vftxwcus3z7nwj4t3ttx998,NeQQ34xn,2020-0188,2020-11-15,12:05:37,12:25:43,NA,incomplete,103,number,1,left,Red_Circle_Chess_1.jpg,Blue_Star_Dots_1.jpg,Green_Triangle_Chess_4.jpg,left,543.7050000182353,true,low,NA,NA,NA,NA,NA,NA,NA,false
NeQQ34xn,33ixyhizc8v0km0rv7j1cbq82t9e2g,3bqu611vftxwcus3z7nwj4t3ttx998,NeQQ34xn,2020-0188,2020-11-15,12:05:37,12:25:43,NA,incomplete,104,number,1,left,Red_Triangle_Grid_2.jpg,Blue_Star_Dots_2.jpg,Purple_Circle_Grid_4.jpg,left,661.7900000128429,true,low,NA,NA,NA,NA,NA,NA,NA,false
NeQQ34xn,33ixyhizc8v0km0rv7j1cbq82t9e2g,3bqu611vftxwcus3z7nwj4t3ttx998,NeQQ34xn,2020-0188,2020-11-15,12:05:37,12:25:43,NA,incomplete,105,number,1,left,Green_Triangle_Stripes_1.jpg,Blue_Star_Chess_1.jpg,Purple_Plus_Stripes_4.jpg,left,665.3949999890756,true,low,NA,NA,NA,NA,NA,NA,NA,false
NeQQ34xn,33ixyhizc8v0km0rv7j1cbq82t9e2g,3bqu611vftxwcus3z7nwj4t3ttx998,NeQQ34xn,2020-0188,2020-11-15,12:05:37,12:25:43,NA,incomplete,106,number,1,right,Red_Star_Stripes_4.jpg,Purple_Plus_Stripes_3.jpg,Blue_Triangle_Grid_4.jpg,right,751.1649999942165,true,low,NA,NA,NA,NA,NA,NA,NA,false
NeQQ34xn,33ixyhizc8v0km0rv7j1cbq82t9e2g,3bqu611vftxwcus3z7nwj4t3ttx998,NeQQ34xn,2020-0188,2020-11-15,12:05:37,12:25:43,NA,incomplete,107,number,1,right,Red_Triangle_Dots_2.jpg,Blue_Star_Dots_4.jpg,Purple_Circle_Grid_2.jpg,right,705.0549999985378,true,low,NA,NA,NA,NA,NA,NA,NA,false
NeQQ34xn,33ixyhizc8v0km0rv7j1cbq82t9e2g,3bqu611vftxwcus3z7nwj4t3ttx998,NeQQ34xn,2020-0188,2020-11-15,12:05:37,12:25:43,NA,incomplete,108,number,1,right,Purple_Star_Dots_1.jpg,Red_Plus_Dots_2.jpg,Green_Triangle_Stripes_1.jpg,right,685.2749999961816,true,low,NA,NA,NA,NA,NA,NA,NA,false
NeQQ34xn,33ixyhizc8v0km0rv7j1cbq82t9e2g,3bqu611vftxwcus3z7nwj4t3ttx998,NeQQ34xn,2020-0188,2020-11-15,12:05:37,12:25:43,NA,incomplete,109,number,1,left,Purple_Plus_Grid_1.jpg,Green_Triangle_Chess_1.jpg,Red_Circle_Grid_2.jpg,left,694.8200000042561,true,low,NA,NA,NA,NA,NA,NA,NA,false
NeQQ34xn,33ixyhizc8v0km0rv7j1cbq82t9e2g,3bqu611vftxwcus3z7nwj4t3ttx998,NeQQ34xn,2020-0188,2020-11-15,12:05:37,12:25:43,NA,incomplete,110,number,0,left,Blue_Plus_Dots_4.jpg,Green_Star_Stripes_4.jpg,Purple_Circle_Dots_2.jpg,left,838.0650000181049,true,low,NA,NA,NA,NA,NA,NA,NA,false
NeQQ34xn,33ixyhizc8v0km0rv7j1cbq82t9e2g,3bqu611vftxwcus3z7nwj4t3ttx998,NeQQ34xn,2020-0188,2020-11-15,12:05:37,12:25:43,NA,incomplete,111,number,1,right,Purple_Plus_Stripes_4.jpg,Red_Triangle_Stripes_1.jpg,Green_Circle_Grid_4.jpg,right,698.7400000216439,true,low,NA,NA,NA,NA,NA,NA,NA,false
NeQQ34xn,33ixyhizc8v0km0rv7j1cbq82t9e2g,3bqu611vftxwcus3z7nwj4t3ttx998,NeQQ34xn,2020-0188,2020-11-15,12:05:37,12:25:43,NA,incomplete,112,number,0,right,Purple_Star_Stripes_3.jpg,Blue_Circle_Stripes_4.jpg,Green_Plus_Grid_3.jpg,right,608.6950000026263,true,low,NA,NA,NA,NA,NA,NA,NA,false
NeQQ34xn,33ixyhizc8v0km0rv7j1cbq82t9e2g,3bqu611vftxwcus3z7nwj4t3ttx998,NeQQ34xn,2020-0188,2020-11-15,12:05:37,12:25:43,NA,incomplete,113,number,1,left,Blue_Triangle_Chess_1.jpg,Green_Circle_Stripes_1.jpg,Purple_Star_Chess_2.jpg,left,562.6850000116974,true,low,NA,NA,NA,NA,NA,NA,NA,false
NeQQ34xn,33ixyhizc8v0km0rv7j1cbq82t9e2g,3bqu611vftxwcus3z7nwj4t3ttx998,NeQQ34xn,2020-0188,2020-11-15,12:05:37,12:25:43,NA,incomplete,114,number,0,left,Red_Circle_Stripes_2.jpg,Purple_Star_Grid_2.jpg,Green_Triangle_Stripes_3.jpg,left,740.6499999924563,true,low,NA,NA,NA,NA,NA,NA,NA,false
NeQQ34xn,33ixyhizc8v0km0rv7j1cbq82t9e2g,3bqu611vftxwcus3z7nwj4t3ttx998,NeQQ34xn,2020-0188,2020-11-15,12:05:37,12:25:43,NA,incomplete,115,number,1,left,Purple_Plus_Stripes_4.jpg,Green_Triangle_Grid_4.jpg,Red_Circle_Stripes_2.jpg,left,995.8350000088103,true,low,NA,NA,NA,NA,NA,NA,NA,false
NeQQ34xn,33ixyhizc8v0km0rv7j1cbq82t9e2g,3bqu611vftxwcus3z7nwj4t3ttx998,NeQQ34xn,2020-0188,2020-11-15,12:05:37,12:25:43,NA,incomplete,116,number,0,left,Blue_Triangle_Dots_3.jpg,Green_Circle_Stripes_3.jpg,Red_Star_Dots_2.jpg,left,812.7150000073016,true,low,NA,NA,NA,NA,NA,NA,NA,false
NeQQ34xn,33ixyhizc8v0km0rv7j1cbq82t9e2g,3bqu611vftxwcus3z7nwj4t3ttx998,NeQQ34xn,2020-0188,2020-11-15,12:05:37,12:25:43,NA,incomplete,117,number,1,left,Blue_Circle_Stripes_1.jpg,Green_Triangle_Chess_1.jpg,Purple_Star_Stripes_4.jpg,left,678.4249999909662,true,low,NA,NA,NA,NA,NA,NA,NA,false
NeQQ34xn,33ixyhizc8v0km0rv7j1cbq82t9e2g,3bqu611vftxwcus3z7nwj4t3ttx998,NeQQ34xn,2020-0188,2020-11-15,12:05:37,12:25:43,NA,incomplete,118,number,1,right,Red_Triangle_Stripes_4.jpg,Blue_Circle_Stripes_1.jpg,Purple_Plus_Grid_4.jpg,right,597.9050000023562,true,low,NA,NA,NA,NA,NA,NA,NA,false
NeQQ34xn,33ixyhizc8v0km0rv7j1cbq82t9e2g,3bqu611vftxwcus3z7nwj4t3ttx998,NeQQ34xn,2020-0188,2020-11-15,12:05:37,12:25:43,NA,incomplete,119,number,1,right,Green_Circle_Grid_4.jpg,Red_Plus_Grid_1.jpg,Blue_Star_Chess_4.jpg,right,604.5999999914784,true,low,NA,NA,NA,NA,NA,NA,NA,false
NeQQ34xn,33ixyhizc8v0km0rv7j1cbq82t9e2g,3bqu611vftxwcus3z7nwj4t3ttx998,NeQQ34xn,2020-0188,2020-11-15,12:05:37,12:25:43,NA,incomplete,120,filling,1,right,Purple_Triangle_Grid_3.jpg,Green_Star_Dots_3.jpg,Red_Plus_Grid_1.jpg,left,646.3799999910407,false,low,NA,NA,NA,NA,NA,NA,NA,false
NeQQ34xn,33ixyhizc8v0km0rv7j1cbq82t9e2g,3bqu611vftxwcus3z7nwj4t3ttx998,NeQQ34xn,2020-0188,2020-11-15,12:05:37,12:25:43,NA,incomplete,121,filling,1,right,Green_Plus_Grid_4.jpg,Blue_Star_Dots_4.jpg,Red_Triangle_Grid_1.jpg,left,638.1999999866821,false,low,NA,NA,NA,NA,NA,NA,NA,false
NeQQ34xn,33ixyhizc8v0km0rv7j1cbq82t9e2g,3bqu611vftxwcus3z7nwj4t3ttx998,NeQQ34xn,2020-0188,2020-11-15,12:05:37,12:25:43,NA,incomplete,122,filling,1,right,Red_Star_Grid_2.jpg,Blue_Plus_Dots_2.jpg,Green_Triangle_Grid_4.jpg,right,967.1950000047218,true,low,NA,NA,NA,NA,NA,NA,NA,false
NeQQ34xn,33ixyhizc8v0km0rv7j1cbq82t9e2g,3bqu611vftxwcus3z7nwj4t3ttx998,NeQQ34xn,2020-0188,2020-11-15,12:05:37,12:25:43,NA,incomplete,123,filling,1,left,Purple_Circle_Chess_4.jpg,Red_Star_Chess_2.jpg,Green_Plus_Dots_4.jpg,left,818.9150000107475,true,low,NA,NA,NA,NA,NA,NA,NA,false
NeQQ34xn,33ixyhizc8v0km0rv7j1cbq82t9e2g,3bqu611vftxwcus3z7nwj4t3ttx998,NeQQ34xn,2020-0188,2020-11-15,12:05:37,12:25:43,NA,incomplete,124,filling,1,right,Green_Star_Grid_3.jpg,Blue_Triangle_Chess_3.jpg,Purple_Plus_Grid_4.jpg,right,767.0800000196323,true,low,NA,NA,NA,NA,NA,NA,NA,false
NeQQ34xn,33ixyhizc8v0km0rv7j1cbq82t9e2g,3bqu611vftxwcus3z7nwj4t3ttx998,NeQQ34xn,2020-0188,2020-11-15,12:05:37,12:25:43,NA,incomplete,125,filling,1,left,Green_Triangle_Chess_2.jpg,Red_Plus_Chess_3.jpg,Blue_Star_Dots_2.jpg,left,704.6899999841116,true,low,NA,NA,NA,NA,NA,NA,NA,false
NeQQ34xn,33ixyhizc8v0km0rv7j1cbq82t9e2g,3bqu611vftxwcus3z7nwj4t3ttx998,NeQQ34xn,2020-0188,2020-11-15,12:05:37,12:25:43,NA,incomplete,126,filling,0,right,Green_Plus_Grid_2.jpg,Purple_Triangle_Dots_2.jpg,Red_Circle_Grid_1.jpg,right,849.0049999963958,true,low,NA,NA,NA,NA,NA,NA,NA,false
NeQQ34xn,33ixyhizc8v0km0rv7j1cbq82t9e2g,3bqu611vftxwcus3z7nwj4t3ttx998,NeQQ34xn,2020-0188,2020-11-15,12:05:37,12:25:43,NA,incomplete,127,filling,1,right,Green_Triangle_Grid_2.jpg,Purple_Circle_Chess_2.jpg,Red_Plus_Grid_3.jpg,right,734.9349999858532,true,low,NA,NA,NA,NA,NA,NA,NA,false
NeQQ34xn,33ixyhizc8v0km0rv7j1cbq82t9e2g,3bqu611vftxwcus3z7nwj4t3ttx998,NeQQ34xn,2020-0188,2020-11-15,12:05:37,12:25:43,NA,incomplete,128,filling,0,right,Purple_Plus_Stripes_4.jpg,Red_Circle_Dots_4.jpg,Blue_Star_Stripes_3.jpg,left,691.1850000033155,false,low,NA,NA,NA,NA,NA,NA,NA,false
NeQQ34xn,33ixyhizc8v0km0rv7j1cbq82t9e2g,3bqu611vftxwcus3z7nwj4t3ttx998,NeQQ34xn,2020-0188,2020-11-15,12:05:37,12:25:43,NA,incomplete,129,filling,1,right,Purple_Star_Grid_1.jpg,Blue_Plus_Dots_1.jpg,Green_Circle_Grid_3.jpg,left,791.5800000191666,false,low,NA,NA,NA,NA,NA,NA,NA,false
NeQQ34xn,33ixyhizc8v0km0rv7j1cbq82t9e2g,3bqu611vftxwcus3z7nwj4t3ttx998,NeQQ34xn,2020-0188,2020-11-15,12:05:37,12:25:43,NA,incomplete,130,filling,0,right,Purple_Circle_Stripes_2.jpg,Red_Triangle_Grid_2.jpg,Green_Star_Stripes_1.jpg,right,832.3900000250433,true,low,NA,NA,NA,NA,NA,NA,NA,false
NeQQ34xn,33ixyhizc8v0km0rv7j1cbq82t9e2g,3bqu611vftxwcus3z7nwj4t3ttx998,NeQQ34xn,2020-0188,2020-11-15,12:05:37,12:25:43,NA,incomplete,131,filling,1,left,Purple_Triangle_Chess_3.jpg,Green_Star_Chess_2.jpg,Blue_Circle_Grid_3.jpg,left,799.0350000036415,true,low,NA,NA,NA,NA,NA,NA,NA,false
NeQQ34xn,33ixyhizc8v0km0rv7j1cbq82t9e2g,3bqu611vftxwcus3z7nwj4t3ttx998,NeQQ34xn,2020-0188,2020-11-15,12:05:37,12:25:43,NA,incomplete,132,filling,1,left,Red_Plus_Stripes_2.jpg,Blue_Circle_Stripes_1.jpg,Purple_Star_Grid_2.jpg,left,948.5350000031758,true,low,NA,NA,NA,NA,NA,NA,NA,false
NeQQ34xn,33ixyhizc8v0km0rv7j1cbq82t9e2g,3bqu611vftxwcus3z7nwj4t3ttx998,NeQQ34xn,2020-0188,2020-11-15,12:05:37,12:25:43,NA,incomplete,133,filling,1,right,Red_Triangle_Chess_4.jpg,Green_Circle_Stripes_4.jpg,Blue_Plus_Chess_3.jpg,left,861.6749999928288,false,low,NA,NA,NA,NA,NA,NA,NA,false
NeQQ34xn,33ixyhizc8v0km0rv7j1cbq82t9e2g,3bqu611vftxwcus3z7nwj4t3ttx998,NeQQ34xn,2020-0188,2020-11-15,12:05:37,12:25:43,NA,incomplete,134,filling,1,right,Blue_Circle_Stripes_1.jpg,Red_Star_Grid_1.jpg,Purple_Plus_Stripes_4.jpg,right,791.7850000085309,true,low,NA,NA,NA,NA,NA,NA,NA,false
NeQQ34xn,33ixyhizc8v0km0rv7j1cbq82t9e2g,3bqu611vftxwcus3z7nwj4t3ttx998,NeQQ34xn,2020-0188,2020-11-15,12:05:37,12:25:43,NA,incomplete,135,filling,1,right,Blue_Star_Stripes_1.jpg,Red_Plus_Chess_1.jpg,Green_Circle_Stripes_2.jpg,right,831.5550000115763,true,low,NA,NA,NA,NA,NA,NA,NA,false
NeQQ34xn,33ixyhizc8v0km0rv7j1cbq82t9e2g,3bqu611vftxwcus3z7nwj4t3ttx998,NeQQ34xn,2020-0188,2020-11-15,12:05:37,12:25:43,NA,incomplete,136,filling,1,left,Red_Star_Grid_3.jpg,Blue_Circle_Grid_2.jpg,Purple_Plus_Chess_3.jpg,left,1017.5100000051316,true,low,NA,NA,NA,NA,NA,NA,NA,false
NeQQ34xn,33ixyhizc8v0km0rv7j1cbq82t9e2g,3bqu611vftxwcus3z7nwj4t3ttx998,NeQQ34xn,2020-0188,2020-11-15,12:05:37,12:25:43,NA,incomplete,137,filling,1,left,Green_Circle_Chess_1.jpg,Red_Plus_Chess_4.jpg,Blue_Triangle_Dots_1.jpg,left,800.2449999912642,true,low,NA,NA,NA,NA,NA,NA,NA,false
NeQQ34xn,33ixyhizc8v0km0rv7j1cbq82t9e2g,3bqu611vftxwcus3z7nwj4t3ttx998,NeQQ34xn,2020-0188,2020-11-15,12:05:37,12:25:43,NA,incomplete,138,filling,0,right,Green_Circle_Chess_2.jpg,Red_Triangle_Dots_2.jpg,Blue_Star_Chess_4.jpg,right,789.9899999902118,true,low,NA,NA,NA,NA,NA,NA,NA,false
NeQQ34xn,33ixyhizc8v0km0rv7j1cbq82t9e2g,3bqu611vftxwcus3z7nwj4t3ttx998,NeQQ34xn,2020-0188,2020-11-15,12:05:37,12:25:43,NA,incomplete,139,filling,1,left,Blue_Star_Dots_2.jpg,Purple_Triangle_Dots_1.jpg,Green_Plus_Stripes_2.jpg,right,998.2899999886286,false,low,NA,NA,NA,NA,NA,NA,NA,false
NeQQ34xn,33ixyhizc8v0km0rv7j1cbq82t9e2g,3bqu611vftxwcus3z7nwj4t3ttx998,NeQQ34xn,2020-0188,2020-11-15,12:05:37,12:25:43,NA,incomplete,140,number,1,left,Red_Triangle_Dots_2.jpg,Purple_Circle_Chess_2.jpg,Blue_Star_Dots_1.jpg,right,1033.0149999936111,false,low,NA,NA,NA,NA,NA,NA,NA,false
NeQQ34xn,33ixyhizc8v0km0rv7j1cbq82t9e2g,3bqu611vftxwcus3z7nwj4t3ttx998,NeQQ34xn,2020-0188,2020-11-15,12:05:37,12:25:43,NA,incomplete,141,number,1,left,Green_Triangle_Chess_3.jpg,Red_Plus_Stripes_3.jpg,Purple_Star_Chess_1.jpg,left,745.6149999925401,true,low,NA,NA,NA,NA,NA,NA,NA,false
NeQQ34xn,33ixyhizc8v0km0rv7j1cbq82t9e2g,3bqu611vftxwcus3z7nwj4t3ttx998,NeQQ34xn,2020-0188,2020-11-15,12:05:37,12:25:43,NA,incomplete,142,number,0,left,Purple_Circle_Chess_2.jpg,Green_Triangle_Stripes_2.jpg,Red_Star_Chess_4.jpg,left,700.23499999661,true,low,NA,NA,NA,NA,NA,NA,NA,false
NeQQ34xn,33ixyhizc8v0km0rv7j1cbq82t9e2g,3bqu611vftxwcus3z7nwj4t3ttx998,NeQQ34xn,2020-0188,2020-11-15,12:05:37,12:25:43,NA,incomplete,143,number,1,right,Purple_Triangle_Stripes_2.jpg,Green_Star_Stripes_3.jpg,Red_Plus_Dots_2.jpg,right,661.2200000090525,true,low,NA,NA,NA,NA,NA,NA,NA,false
NeQQ34xn,33ixyhizc8v0km0rv7j1cbq82t9e2g,3bqu611vftxwcus3z7nwj4t3ttx998,NeQQ34xn,2020-0188,2020-11-15,12:05:37,12:25:43,NA,incomplete,144,number,0,right,Green_Plus_Grid_3.jpg,Red_Triangle_Grid_2.jpg,Purple_Star_Dots_3.jpg,right,731.4400000032037,true,low,NA,NA,NA,NA,NA,NA,NA,false
NeQQ34xn,33ixyhizc8v0km0rv7j1cbq82t9e2g,3bqu611vftxwcus3z7nwj4t3ttx998,NeQQ34xn,2020-0188,2020-11-15,12:05:37,12:25:43,NA,incomplete,145,number,1,right,Green_Circle_Stripes_2.jpg,Blue_Triangle_Stripes_3.jpg,Red_Star_Chess_2.jpg,right,682.8150000073947,true,low,NA,NA,NA,NA,NA,NA,NA,false
NeQQ34xn,33ixyhizc8v0km0rv7j1cbq82t9e2g,3bqu611vftxwcus3z7nwj4t3ttx998,NeQQ34xn,2020-0188,2020-11-15,12:05:37,12:25:43,NA,incomplete,146,number,1,left,Purple_Circle_Stripes_4.jpg,Blue_Star_Grid_4.jpg,Red_Triangle_Stripes_1.jpg,left,660.2450000063982,true,low,NA,NA,NA,NA,NA,NA,NA,false
NeQQ34xn,33ixyhizc8v0km0rv7j1cbq82t9e2g,3bqu611vftxwcus3z7nwj4t3ttx998,NeQQ34xn,2020-0188,2020-11-15,12:05:37,12:25:43,NA,incomplete,147,number,1,right,Purple_Star_Chess_4.jpg,Green_Triangle_Chess_2.jpg,Red_Plus_Grid_4.jpg,right,673.2000000192784,true,low,NA,NA,NA,NA,NA,NA,NA,false
NeQQ34xn,33ixyhizc8v0km0rv7j1cbq82t9e2g,3bqu611vftxwcus3z7nwj4t3ttx998,NeQQ34xn,2020-0188,2020-11-15,12:05:37,12:25:43,NA,incomplete,148,number,1,left,Green_Plus_Grid_3.jpg,Red_Star_Dots_3.jpg,Purple_Triangle_Grid_1.jpg,left,534.8700000031386,true,low,NA,NA,NA,NA,NA,NA,NA,false
NeQQ34xn,33ixyhizc8v0km0rv7j1cbq82t9e2g,3bqu611vftxwcus3z7nwj4t3ttx998,NeQQ34xn,2020-0188,2020-11-15,12:05:37,12:25:43,NA,incomplete,149,number,1,right,Green_Star_Stripes_1.jpg,Blue_Circle_Stripes_3.jpg,Red_Plus_Chess_1.jpg,right,562.3149999883026,true,low,NA,NA,NA,NA,NA,NA,NA,false
NeQQ34xn,33ixyhizc8v0km0rv7j1cbq82t9e2g,3bqu611vftxwcus3z7nwj4t3ttx998,NeQQ34xn,2020-0188,2020-11-15,12:05:37,12:25:43,NA,incomplete,150,number,1,left,Blue_Plus_Stripes_3.jpg,Green_Circle_Grid_3.jpg,Red_Triangle_Stripes_1.jpg,left,551.4150000235531,true,low,NA,NA,NA,NA,NA,NA,NA,false
NeQQ34xn,33ixyhizc8v0km0rv7j1cbq82t9e2g,3bqu611vftxwcus3z7nwj4t3ttx998,NeQQ34xn,2020-0188,2020-11-15,12:05:37,12:25:43,NA,incomplete,151,number,1,right,Purple_Plus_Dots_2.jpg,Blue_Circle_Dots_4.jpg,Red_Triangle_Grid_2.jpg,right,608.1950000079814,true,low,NA,NA,NA,NA,NA,NA,NA,false
NeQQ34xn,33ixyhizc8v0km0rv7j1cbq82t9e2g,3bqu611vftxwcus3z7nwj4t3ttx998,NeQQ34xn,2020-0188,2020-11-15,12:05:37,12:25:43,NA,incomplete,152,number,1,left,Blue_Circle_Grid_2.jpg,Purple_Star_Stripes_2.jpg,Green_Triangle_Grid_3.jpg,left,797.984999982873,true,low,NA,NA,NA,NA,NA,NA,NA,false
NeQQ34xn,33ixyhizc8v0km0rv7j1cbq82t9e2g,3bqu611vftxwcus3z7nwj4t3ttx998,NeQQ34xn,2020-0188,2020-11-15,12:05:37,12:25:43,NA,incomplete,153,number,0,left,Red_Star_Chess_4.jpg,Green_Plus_Dots_4.jpg,Blue_Triangle_Chess_1.jpg,left,585.5349999910686,true,low,NA,NA,NA,NA,NA,NA,NA,false
NeQQ34xn,33ixyhizc8v0km0rv7j1cbq82t9e2g,3bqu611vftxwcus3z7nwj4t3ttx998,NeQQ34xn,2020-0188,2020-11-15,12:05:37,12:25:43,NA,incomplete,154,number,1,left,Blue_Circle_Stripes_4.jpg,Red_Star_Grid_4.jpg,Green_Triangle_Stripes_2.jpg,left,644.9699999939185,true,low,NA,NA,NA,NA,NA,NA,NA,false
NeQQ34xn,33ixyhizc8v0km0rv7j1cbq82t9e2g,3bqu611vftxwcus3z7nwj4t3ttx998,NeQQ34xn,2020-0188,2020-11-15,12:05:37,12:25:43,NA,incomplete,155,number,1,right,Red_Plus_Grid_2.jpg,Blue_Triangle_Grid_3.jpg,Green_Star_Chess_2.jpg,right,567.7600000053644,true,low,NA,NA,NA,NA,NA,NA,NA,false
NeQQ34xn,33ixyhizc8v0km0rv7j1cbq82t9e2g,3bqu611vftxwcus3z7nwj4t3ttx998,NeQQ34xn,2020-0188,2020-11-15,12:05:37,12:25:43,NA,incomplete,156,number,1,right,Purple_Circle_Chess_1.jpg,Red_Triangle_Chess_3.jpg,Blue_Star_Grid_1.jpg,right,606.8399999930989,true,low,NA,NA,NA,NA,NA,NA,NA,false
NeQQ34xn,33ixyhizc8v0km0rv7j1cbq82t9e2g,3bqu611vftxwcus3z7nwj4t3ttx998,NeQQ34xn,2020-0188,2020-11-15,12:05:37,12:25:43,NA,incomplete,157,number,1,right,Red_Triangle_Dots_2.jpg,Blue_Circle_Dots_3.jpg,Purple_Star_Chess_2.jpg,left,574.754999979632,false,low,NA,NA,NA,NA,NA,NA,NA,false
NeQQ34xn,33ixyhizc8v0km0rv7j1cbq82t9e2g,3bqu611vftxwcus3z7nwj4t3ttx998,NeQQ34xn,2020-0188,2020-11-15,12:05:37,12:25:43,NA,incomplete,158,number,1,left,Purple_Star_Stripes_4.jpg,Blue_Plus_Dots_4.jpg,Red_Circle_Stripes_3.jpg,left,673.030000005383,true,low,NA,NA,NA,NA,NA,NA,NA,false
NeQQ34xn,33ixyhizc8v0km0rv7j1cbq82t9e2g,3bqu611vftxwcus3z7nwj4t3ttx998,NeQQ34xn,2020-0188,2020-11-15,12:05:37,12:25:43,NA,incomplete,159,number,1,right,Green_Star_Grid_3.jpg,Red_Circle_Grid_1.jpg,Purple_Plus_Chess_3.jpg,right,657.3100000096019,true,low,NA,NA,NA,NA,NA,NA,NA,false
NeQQ34xn,33ixyhizc8v0km0rv7j1cbq82t9e2g,3bqu611vftxwcus3z7nwj4t3ttx998,NeQQ34xn,2020-0188,2020-11-15,12:05:37,12:25:43,NA,incomplete,160,filling,1,left,Purple_Circle_Chess_4.jpg,Blue_Plus_Chess_3.jpg,Green_Star_Dots_4.jpg,right,670.3350000025239,false,low,NA,NA,NA,NA,NA,NA,NA,false
NeQQ34xn,33ixyhizc8v0km0rv7j1cbq82t9e2g,3bqu611vftxwcus3z7nwj4t3ttx998,NeQQ34xn,2020-0188,2020-11-15,12:05:37,12:25:43,NA,incomplete,161,filling,0,left,Blue_Circle_Chess_4.jpg,Purple_Triangle_Chess_2.jpg,Green_Star_Dots_4.jpg,right,652.5299999921117,false,low,NA,NA,NA,NA,NA,NA,NA,false
NeQQ34xn,33ixyhizc8v0km0rv7j1cbq82t9e2g,3bqu611vftxwcus3z7nwj4t3ttx998,NeQQ34xn,2020-0188,2020-11-15,12:05:37,12:25:43,NA,incomplete,162,filling,1,left,Green_Circle_Grid_1.jpg,Blue_Plus_Grid_2.jpg,Red_Star_Chess_1.jpg,right,990.4550000210293,false,low,NA,NA,NA,NA,NA,NA,NA,false
NeQQ34xn,33ixyhizc8v0km0rv7j1cbq82t9e2g,3bqu611vftxwcus3z7nwj4t3ttx998,NeQQ34xn,2020-0188,2020-11-15,12:05:37,12:25:43,NA,incomplete,163,filling,1,right,Green_Circle_Stripes_4.jpg,Purple_Triangle_Chess_4.jpg,Blue_Plus_Stripes_1.jpg,left,688.8549999857787,false,low,NA,NA,NA,NA,NA,NA,NA,false
NeQQ34xn,33ixyhizc8v0km0rv7j1cbq82t9e2g,3bqu611vftxwcus3z7nwj4t3ttx998,NeQQ34xn,2020-0188,2020-11-15,12:05:37,12:25:43,NA,incomplete,164,filling,1,left,Green_Triangle_Grid_3.jpg,Blue_Circle_Grid_1.jpg,Red_Plus_Chess_3.jpg,left,771.5900000184774,true,low,NA,NA,NA,NA,NA,NA,NA,false
NeQQ34xn,33ixyhizc8v0km0rv7j1cbq82t9e2g,3bqu611vftxwcus3z7nwj4t3ttx998,NeQQ34xn,2020-0188,2020-11-15,12:05:37,12:25:43,NA,incomplete,165,filling,1,right,Purple_Star_Stripes_2.jpg,Red_Circle_Grid_2.jpg,Green_Triangle_Stripes_4.jpg,right,761.1500000057276,true,low,NA,NA,NA,NA,NA,NA,NA,false
NeQQ34xn,33ixyhizc8v0km0rv7j1cbq82t9e2g,3bqu611vftxwcus3z7nwj4t3ttx998,NeQQ34xn,2020-0188,2020-11-15,12:05:37,12:25:43,NA,incomplete,166,filling,1,right,Purple_Triangle_Stripes_4.jpg,Blue_Plus_Dots_4.jpg,Green_Circle_Stripes_1.jpg,right,647.1999999776017,true,low,NA,NA,NA,NA,NA,NA,NA,false
NeQQ34xn,33ixyhizc8v0km0rv7j1cbq82t9e2g,3bqu611vftxwcus3z7nwj4t3ttx998,NeQQ34xn,2020-0188,2020-11-15,12:05:37,12:25:43,NA,incomplete,167,filling,0,right,Green_Triangle_Chess_1.jpg,Blue_Plus_Grid_1.jpg,Red_Star_Chess_2.jpg,right,678.2900000107475,true,low,NA,NA,NA,NA,NA,NA,NA,false
NeQQ34xn,33ixyhizc8v0km0rv7j1cbq82t9e2g,3bqu611vftxwcus3z7nwj4t3ttx998,NeQQ34xn,2020-0188,2020-11-15,12:05:37,12:25:43,NA,incomplete,168,filling,1,left,Purple_Circle_Grid_3.jpg,Red_Star_Grid_2.jpg,Blue_Plus_Stripes_3.jpg,left,606.7650000040885,true,low,NA,NA,NA,NA,NA,NA,NA,false
NeQQ34xn,33ixyhizc8v0km0rv7j1cbq82t9e2g,3bqu611vftxwcus3z7nwj4t3ttx998,NeQQ34xn,2020-0188,2020-11-15,12:05:37,12:25:43,NA,incomplete,169,filling,0,left,Blue_Triangle_Chess_1.jpg,Purple_Star_Chess_3.jpg,Red_Circle_Dots_1.jpg,left,742.1250000188593,true,low,NA,NA,NA,NA,NA,NA,NA,false
NeQQ34xn,33ixyhizc8v0km0rv7j1cbq82t9e2g,3bqu611vftxwcus3z7nwj4t3ttx998,NeQQ34xn,2020-0188,2020-11-15,12:05:37,12:25:43,NA,incomplete,170,filling,1,left,Green_Circle_Grid_4.jpg,Red_Plus_Grid_2.jpg,Blue_Star_Stripes_4.jpg,left,818.1299999996554,true,low,NA,NA,NA,NA,NA,NA,NA,false
NeQQ34xn,33ixyhizc8v0km0rv7j1cbq82t9e2g,3bqu611vftxwcus3z7nwj4t3ttx998,NeQQ34xn,2020-0188,2020-11-15,12:05:37,12:25:43,NA,incomplete,171,filling,1,left,Red_Triangle_Chess_4.jpg,Purple_Plus_Chess_1.jpg,Green_Circle_Dots_4.jpg,left,704.9550000228919,true,low,NA,NA,NA,NA,NA,NA,NA,false
NeQQ34xn,33ixyhizc8v0km0rv7j1cbq82t9e2g,3bqu611vftxwcus3z7nwj4t3ttx998,NeQQ34xn,2020-0188,2020-11-15,12:05:37,12:25:43,NA,incomplete,172,filling,0,left,Red_Circle_Grid_2.jpg,Green_Triangle_Grid_4.jpg,Purple_Star_Dots_2.jpg,left,843.9000000071246,true,low,NA,NA,NA,NA,NA,NA,NA,false
NeQQ34xn,33ixyhizc8v0km0rv7j1cbq82t9e2g,3bqu611vftxwcus3z7nwj4t3ttx998,NeQQ34xn,2020-0188,2020-11-15,12:05:37,12:25:43,NA,incomplete,173,filling,1,left,Blue_Plus_Stripes_4.jpg,Purple_Circle_Stripes_2.jpg,Red_Star_Dots_4.jpg,left,690.5200000037439,true,low,NA,NA,NA,NA,NA,NA,NA,false
NeQQ34xn,33ixyhizc8v0km0rv7j1cbq82t9e2g,3bqu611vftxwcus3z7nwj4t3ttx998,NeQQ34xn,2020-0188,2020-11-15,12:05:37,12:25:43,NA,incomplete,174,filling,1,right,Red_Circle_Grid_2.jpg,Purple_Triangle_Dots_2.jpg,Blue_Star_Grid_1.jpg,right,932.7900000207592,true,low,NA,NA,NA,NA,NA,NA,NA,false
NeQQ34xn,33ixyhizc8v0km0rv7j1cbq82t9e2g,3bqu611vftxwcus3z7nwj4t3ttx998,NeQQ34xn,2020-0188,2020-11-15,12:05:37,12:25:43,NA,incomplete,175,filling,1,left,Red_Star_Chess_2.jpg,Green_Circle_Chess_4.jpg,Blue_Plus_Grid_2.jpg,left,781.3250000181142,true,low,NA,NA,NA,NA,NA,NA,NA,false
NeQQ34xn,33ixyhizc8v0km0rv7j1cbq82t9e2g,3bqu611vftxwcus3z7nwj4t3ttx998,NeQQ34xn,2020-0188,2020-11-15,12:05:37,12:25:43,NA,incomplete,176,filling,1,right,Green_Star_Grid_1.jpg,Purple_Triangle_Dots_1.jpg,Red_Circle_Grid_2.jpg,right,675.4150000051595,true,low,NA,NA,NA,NA,NA,NA,NA,false
NeQQ34xn,33ixyhizc8v0km0rv7j1cbq82t9e2g,3bqu611vftxwcus3z7nwj4t3ttx998,NeQQ34xn,2020-0188,2020-11-15,12:05:37,12:25:43,NA,incomplete,177,filling,1,left,Blue_Star_Grid_2.jpg,Purple_Plus_Grid_4.jpg,Green_Triangle_Dots_2.jpg,left,763.7600000016391,true,low,NA,NA,NA,NA,NA,NA,NA,false
NeQQ34xn,33ixyhizc8v0km0rv7j1cbq82t9e2g,3bqu611vftxwcus3z7nwj4t3ttx998,NeQQ34xn,2020-0188,2020-11-15,12:05:37,12:25:43,NA,incomplete,178,filling,0,right,Red_Circle_Grid_3.jpg,Purple_Star_Stripes_3.jpg,Green_Triangle_Grid_4.jpg,right,583.970000006957,true,low,NA,NA,NA,NA,NA,NA,NA,false
NeQQ34xn,33ixyhizc8v0km0rv7j1cbq82t9e2g,3bqu611vftxwcus3z7nwj4t3ttx998,NeQQ34xn,2020-0188,2020-11-15,12:05:37,12:25:43,NA,incomplete,179,filling,1,right,Blue_Circle_Chess_3.jpg,Purple_Triangle_Dots_3.jpg,Green_Plus_Chess_4.jpg,right,741.7500000155997,true,low,NA,NA,NA,NA,NA,NA,NA,false
NeQQ34xn,33ixyhizc8v0km0rv7j1cbq82t9e2g,3bqu611vftxwcus3z7nwj4t3ttx998,NeQQ34xn,2020-0188,2020-11-15,12:05:37,12:25:43,NA,incomplete,180,number,1,left,Blue_Circle_Stripes_1.jpg,Green_Plus_Chess_1.jpg,Red_Star_Stripes_4.jpg,right,746.3949999946635,false,low,NA,NA,NA,NA,NA,NA,NA,false
NeQQ34xn,33ixyhizc8v0km0rv7j1cbq82t9e2g,3bqu611vftxwcus3z7nwj4t3ttx998,NeQQ34xn,2020-0188,2020-11-15,12:05:37,12:25:43,NA,incomplete,181,number,1,left,Blue_Plus_Chess_1.jpg,Red_Star_Dots_1.jpg,Green_Circle_Chess_3.jpg,right,867.8199999849312,false,low,NA,NA,NA,NA,NA,NA,NA,false
NeQQ34xn,33ixyhizc8v0km0rv7j1cbq82t9e2g,3bqu611vftxwcus3z7nwj4t3ttx998,NeQQ34xn,2020-0188,2020-11-15,12:05:37,12:25:43,NA,incomplete,182,number,0,right,Blue_Plus_Dots_2.jpg,Red_Circle_Dots_3.jpg,Purple_Triangle_Stripes_2.jpg,right,614.9199999927077,true,low,NA,NA,NA,NA,NA,NA,NA,false
NeQQ34xn,33ixyhizc8v0km0rv7j1cbq82t9e2g,3bqu611vftxwcus3z7nwj4t3ttx998,NeQQ34xn,2020-0188,2020-11-15,12:05:37,12:25:43,NA,incomplete,183,number,1,right,Red_Plus_Stripes_2.jpg,Green_Circle_Stripes_1.jpg,Blue_Triangle_Grid_2.jpg,right,691.644999984419,true,low,NA,NA,NA,NA,NA,NA,NA,false
NeQQ34xn,33ixyhizc8v0km0rv7j1cbq82t9e2g,3bqu611vftxwcus3z7nwj4t3ttx998,NeQQ34xn,2020-0188,2020-11-15,12:05:37,12:25:43,NA,incomplete,184,number,1,left,Red_Triangle_Stripes_3.jpg,Blue_Circle_Grid_3.jpg,Green_Star_Stripes_1.jpg,left,627.6700000162236,true,low,NA,NA,NA,NA,NA,NA,NA,false
NeQQ34xn,33ixyhizc8v0km0rv7j1cbq82t9e2g,3bqu611vftxwcus3z7nwj4t3ttx998,NeQQ34xn,2020-0188,2020-11-15,12:05:37,12:25:43,NA,incomplete,185,number,1,right,Green_Star_Stripes_3.jpg,Red_Triangle_Stripes_4.jpg,Blue_Plus_Grid_3.jpg,right,559.16000000434,true,low,NA,NA,NA,NA,NA,NA,NA,false
NeQQ34xn,33ixyhizc8v0km0rv7j1cbq82t9e2g,3bqu611vftxwcus3z7nwj4t3ttx998,NeQQ34xn,2020-0188,2020-11-15,12:05:37,12:25:43,NA,incomplete,186,number,1,right,Green_Star_Chess_4.jpg,Blue_Plus_Chess_2.jpg,Red_Triangle_Stripes_4.jpg,right,576.9800000125542,true,low,NA,NA,NA,NA,NA,NA,NA,false
NeQQ34xn,33ixyhizc8v0km0rv7j1cbq82t9e2g,3bqu611vftxwcus3z7nwj4t3ttx998,NeQQ34xn,2020-0188,2020-11-15,12:05:37,12:25:43,NA,incomplete,187,number,1,left,Red_Star_Dots_2.jpg,Purple_Triangle_Grid_2.jpg,Blue_Circle_Dots_3.jpg,left,760.9300000185613,true,low,NA,NA,NA,NA,NA,NA,NA,false
NeQQ34xn,33ixyhizc8v0km0rv7j1cbq82t9e2g,3bqu611vftxwcus3z7nwj4t3ttx998,NeQQ34xn,2020-0188,2020-11-15,12:05:37,12:25:43,NA,incomplete,188,number,1,left,Green_Plus_Chess_1.jpg,Blue_Triangle_Stripes_1.jpg,Purple_Star_Chess_4.jpg,left,569.3650000030175,true,low,NA,NA,NA,NA,NA,NA,NA,false
NeQQ34xn,33ixyhizc8v0km0rv7j1cbq82t9e2g,3bqu611vftxwcus3z7nwj4t3ttx998,NeQQ34xn,2020-0188,2020-11-15,12:05:37,12:25:43,NA,incomplete,189,number,1,right,Blue_Plus_Chess_2.jpg,Red_Circle_Chess_4.jpg,Green_Star_Stripes_2.jpg,right,590.6149999937043,true,low,NA,NA,NA,NA,NA,NA,NA,false
NeQQ34xn,33ixyhizc8v0km0rv7j1cbq82t9e2g,3bqu611vftxwcus3z7nwj4t3ttx998,NeQQ34xn,2020-0188,2020-11-15,12:05:37,12:25:43,NA,incomplete,190,number,1,right,Blue_Plus_Chess_4.jpg,Green_Triangle_Chess_2.jpg,Red_Circle_Dots_4.jpg,right,646.999999997206,true,low,NA,NA,NA,NA,NA,NA,NA,false
NeQQ34xn,33ixyhizc8v0km0rv7j1cbq82t9e2g,3bqu611vftxwcus3z7nwj4t3ttx998,NeQQ34xn,2020-0188,2020-11-15,12:05:37,12:25:43,NA,incomplete,191,number,1,left,Purple_Circle_Dots_4.jpg,Green_Triangle_Stripes_4.jpg,Blue_Star_Dots_3.jpg,left,633.3600000070874,true,low,NA,NA,NA,NA,NA,NA,NA,false
NeQQ34xn,33ixyhizc8v0km0rv7j1cbq82t9e2g,3bqu611vftxwcus3z7nwj4t3ttx998,NeQQ34xn,2020-0188,2020-11-15,12:05:37,12:25:43,NA,incomplete,192,number,0,right,Green_Circle_Stripes_2.jpg,Red_Triangle_Stripes_4.jpg,Blue_Plus_Dots_2.jpg,right,667.4900000216439,true,low,NA,NA,NA,NA,NA,NA,NA,false
NeQQ34xn,33ixyhizc8v0km0rv7j1cbq82t9e2g,3bqu611vftxwcus3z7nwj4t3ttx998,NeQQ34xn,2020-0188,2020-11-15,12:05:37,12:25:43,NA,incomplete,193,number,1,left,Green_Circle_Stripes_4.jpg,Blue_Plus_Grid_4.jpg,Purple_Star_Stripes_2.jpg,left,606.7949999996927,true,low,NA,NA,NA,NA,NA,NA,NA,false
NeQQ34xn,33ixyhizc8v0km0rv7j1cbq82t9e2g,3bqu611vftxwcus3z7nwj4t3ttx998,NeQQ34xn,2020-0188,2020-11-15,12:05:37,12:25:43,NA,incomplete,194,number,1,right,Blue_Circle_Stripes_2.jpg,Red_Star_Stripes_1.jpg,Purple_Triangle_Chess_2.jpg,right,539.8550000099931,true,low,NA,NA,NA,NA,NA,NA,NA,false
NeQQ34xn,33ixyhizc8v0km0rv7j1cbq82t9e2g,3bqu611vftxwcus3z7nwj4t3ttx998,NeQQ34xn,2020-0188,2020-11-15,12:05:37,12:25:43,NA,incomplete,195,number,1,left,Red_Plus_Grid_4.jpg,Green_Circle_Stripes_4.jpg,Purple_Triangle_Grid_1.jpg,left,508.58000002335757,true,low,NA,NA,NA,NA,NA,NA,NA,false
NeQQ34xn,33ixyhizc8v0km0rv7j1cbq82t9e2g,3bqu611vftxwcus3z7nwj4t3ttx998,NeQQ34xn,2020-0188,2020-11-15,12:05:37,12:25:43,NA,incomplete,196,number,1,right,Green_Plus_Stripes_3.jpg,Purple_Circle_Stripes_1.jpg,Blue_Triangle_Chess_3.jpg,right,573.1399999931455,true,low,NA,NA,NA,NA,NA,NA,NA,false
NeQQ34xn,33ixyhizc8v0km0rv7j1cbq82t9e2g,3bqu611vftxwcus3z7nwj4t3ttx998,NeQQ34xn,2020-0188,2020-11-15,12:05:37,12:25:43,NA,incomplete,197,number,1,right,Purple_Circle_Grid_4.jpg,Blue_Star_Grid_2.jpg,Green_Triangle_Dots_4.jpg,right,542.8799999936018,true,low,NA,NA,NA,NA,NA,NA,NA,false
NeQQ34xn,33ixyhizc8v0km0rv7j1cbq82t9e2g,3bqu611vftxwcus3z7nwj4t3ttx998,NeQQ34xn,2020-0188,2020-11-15,12:05:37,12:25:43,NA,incomplete,198,number,0,left,Purple_Triangle_Chess_4.jpg,Blue_Plus_Stripes_4.jpg,Green_Circle_Chess_1.jpg,left,521.2999999930616,true,low,NA,NA,NA,NA,NA,NA,NA,false
NeQQ34xn,33ixyhizc8v0km0rv7j1cbq82t9e2g,3bqu611vftxwcus3z7nwj4t3ttx998,NeQQ34xn,2020-0188,2020-11-15,12:05:37,12:25:43,NA,incomplete,199,number,1,right,Red_Circle_Grid_1.jpg,Purple_Triangle_Grid_4.jpg,Blue_Star_Chess_1.jpg,right,526.1549999995623,true,low,NA,NA,NA,NA,NA,NA,NA,false
NeQQ34xn,33ixyhizc8v0km0rv7j1cbq82t9e2g,3bqu611vftxwcus3z7nwj4t3ttx998,NeQQ34xn,2020-0188,2020-11-15,12:05:37,12:25:43,NA,incomplete,200,filling,1,right,Purple_Circle_Grid_4.jpg,Red_Plus_Dots_4.jpg,Green_Star_Grid_1.jpg,left,490.2750000183005,false,low,NA,NA,NA,NA,NA,NA,NA,false
NeQQ34xn,33ixyhizc8v0km0rv7j1cbq82t9e2g,3bqu611vftxwcus3z7nwj4t3ttx998,NeQQ34xn,2020-0188,2020-11-15,12:05:37,12:25:43,NA,incomplete,201,filling,1,right,Red_Circle_Dots_4.jpg,Blue_Star_Stripes_4.jpg,Purple_Triangle_Dots_3.jpg,left,611.6049999836832,false,low,NA,NA,NA,NA,NA,NA,NA,false
NeQQ34xn,33ixyhizc8v0km0rv7j1cbq82t9e2g,3bqu611vftxwcus3z7nwj4t3ttx998,NeQQ34xn,2020-0188,2020-11-15,12:05:37,12:25:43,NA,incomplete,202,filling,1,right,Purple_Triangle_Grid_3.jpg,Red_Circle_Chess_3.jpg,Green_Plus_Grid_1.jpg,right,763.2149999844842,true,low,NA,NA,NA,NA,NA,NA,NA,false
NeQQ34xn,33ixyhizc8v0km0rv7j1cbq82t9e2g,3bqu611vftxwcus3z7nwj4t3ttx998,NeQQ34xn,2020-0188,2020-11-15,12:05:37,12:25:43,NA,incomplete,203,filling,0,right,Green_Plus_Stripes_4.jpg,Red_Circle_Chess_4.jpg,Purple_Triangle_Stripes_1.jpg,right,750.3000000142492,true,low,NA,NA,NA,NA,NA,NA,NA,false
NeQQ34xn,33ixyhizc8v0km0rv7j1cbq82t9e2g,3bqu611vftxwcus3z7nwj4t3ttx998,NeQQ34xn,2020-0188,2020-11-15,12:05:37,12:25:43,NA,incomplete,204,filling,1,right,Red_Triangle_Grid_2.jpg,Green_Plus_Stripes_2.jpg,Purple_Star_Grid_3.jpg,left,732.3850000102539,false,low,NA,NA,NA,NA,NA,NA,NA,false
NeQQ34xn,33ixyhizc8v0km0rv7j1cbq82t9e2g,3bqu611vftxwcus3z7nwj4t3ttx998,NeQQ34xn,2020-0188,2020-11-15,12:05:37,12:25:43,NA,incomplete,205,filling,1,right,Blue_Triangle_Grid_4.jpg,Red_Star_Dots_4.jpg,Green_Plus_Grid_3.jpg,right,864.5250000117812,true,low,NA,NA,NA,NA,NA,NA,NA,false
NeQQ34xn,33ixyhizc8v0km0rv7j1cbq82t9e2g,3bqu611vftxwcus3z7nwj4t3ttx998,NeQQ34xn,2020-0188,2020-11-15,12:05:37,12:25:43,NA,incomplete,206,filling,1,right,Blue_Triangle_Stripes_4.jpg,Green_Star_Chess_4.jpg,Purple_Plus_Stripes_3.jpg,right,725.6749999942258,true,low,NA,NA,NA,NA,NA,NA,NA,false
NeQQ34xn,33ixyhizc8v0km0rv7j1cbq82t9e2g,3bqu611vftxwcus3z7nwj4t3ttx998,NeQQ34xn,2020-0188,2020-11-15,12:05:37,12:25:43,NA,incomplete,207,filling,1,right,Blue_Plus_Grid_4.jpg,Purple_Circle_Chess_4.jpg,Green_Triangle_Grid_2.jpg,right,869.7050000191666,true,low,NA,NA,NA,NA,NA,NA,NA,false
NeQQ34xn,33ixyhizc8v0km0rv7j1cbq82t9e2g,3bqu611vftxwcus3z7nwj4t3ttx998,NeQQ34xn,2020-0188,2020-11-15,12:05:37,12:25:43,NA,incomplete,208,filling,1,left,Purple_Star_Dots_3.jpg,Red_Circle_Dots_2.jpg,Blue_Plus_Grid_3.jpg,left,782.1949999779463,true,low,NA,NA,NA,NA,NA,NA,NA,false
NeQQ34xn,33ixyhizc8v0km0rv7j1cbq82t9e2g,3bqu611vftxwcus3z7nwj4t3ttx998,NeQQ34xn,2020-0188,2020-11-15,12:05:37,12:25:43,NA,incomplete,209,filling,0,left,Green_Circle_Grid_1.jpg,Purple_Star_Grid_3.jpg,Red_Triangle_Chess_1.jpg,left,738.4350000065751,true,low,NA,NA,NA,NA,NA,NA,NA,false
NeQQ34xn,33ixyhizc8v0km0rv7j1cbq82t9e2g,3bqu611vftxwcus3z7nwj4t3ttx998,NeQQ34xn,2020-0188,2020-11-15,12:05:37,12:25:43,NA,incomplete,210,filling,1,right,Blue_Plus_Chess_3.jpg,Green_Triangle_Dots_3.jpg,Purple_Circle_Chess_4.jpg,right,666.2649999780115,true,low,NA,NA,NA,NA,NA,NA,NA,false
NeQQ34xn,33ixyhizc8v0km0rv7j1cbq82t9e2g,3bqu611vftxwcus3z7nwj4t3ttx998,NeQQ34xn,2020-0188,2020-11-15,12:05:37,12:25:43,NA,incomplete,211,filling,1,left,Purple_Plus_Dots_4.jpg,Green_Circle_Dots_3.jpg,Red_Star_Stripes_4.jpg,left,775.7949999941047,true,low,NA,NA,NA,NA,NA,NA,NA,false
NeQQ34xn,33ixyhizc8v0km0rv7j1cbq82t9e2g,3bqu611vftxwcus3z7nwj4t3ttx998,NeQQ34xn,2020-0188,2020-11-15,12:05:37,12:25:43,NA,incomplete,212,filling,1,right,Green_Star_Stripes_3.jpg,Red_Triangle_Chess_3.jpg,Blue_Plus_Stripes_2.jpg,right,756.0800000210293,true,low,NA,NA,NA,NA,NA,NA,NA,false
NeQQ34xn,33ixyhizc8v0km0rv7j1cbq82t9e2g,3bqu611vftxwcus3z7nwj4t3ttx998,NeQQ34xn,2020-0188,2020-11-15,12:05:37,12:25:43,NA,incomplete,213,filling,1,left,Purple_Triangle_Stripes_4.jpg,Red_Star_Stripes_2.jpg,Blue_Circle_Chess_4.jpg,left,745.005000004312,true,low,NA,NA,NA,NA,NA,NA,NA,false
NeQQ34xn,33ixyhizc8v0km0rv7j1cbq82t9e2g,3bqu611vftxwcus3z7nwj4t3ttx998,NeQQ34xn,2020-0188,2020-11-15,12:05:37,12:25:43,NA,incomplete,214,filling,1,left,Blue_Star_Chess_4.jpg,Green_Plus_Chess_3.jpg,Purple_Circle_Grid_4.jpg,left,784.5200000156183,true,low,NA,NA,NA,NA,NA,NA,NA,false
NeQQ34xn,33ixyhizc8v0km0rv7j1cbq82t9e2g,3bqu611vftxwcus3z7nwj4t3ttx998,NeQQ34xn,2020-0188,2020-11-15,12:05:37,12:25:43,NA,incomplete,215,filling,1,left,Red_Triangle_Stripes_2.jpg,Green_Plus_Stripes_3.jpg,Purple_Circle_Grid_2.jpg,left,784.7950000141282,true,low,NA,NA,NA,NA,NA,NA,NA,false
NeQQ34xn,33ixyhizc8v0km0rv7j1cbq82t9e2g,3bqu611vftxwcus3z7nwj4t3ttx998,NeQQ34xn,2020-0188,2020-11-15,12:05:37,12:25:43,NA,incomplete,216,filling,1,right,Purple_Star_Stripes_3.jpg,Blue_Triangle_Dots_3.jpg,Green_Plus_Stripes_1.jpg,right,706.0399999900255,true,low,NA,NA,NA,NA,NA,NA,NA,false
NeQQ34xn,33ixyhizc8v0km0rv7j1cbq82t9e2g,3bqu611vftxwcus3z7nwj4t3ttx998,NeQQ34xn,2020-0188,2020-11-15,12:05:37,12:25:43,NA,incomplete,217,filling,1,left,Green_Plus_Dots_4.jpg,Purple_Circle_Dots_3.jpg,Blue_Star_Grid_4.jpg,left,732.1400000073481,true,low,NA,NA,NA,NA,NA,NA,NA,false
NeQQ34xn,33ixyhizc8v0km0rv7j1cbq82t9e2g,3bqu611vftxwcus3z7nwj4t3ttx998,NeQQ34xn,2020-0188,2020-11-15,12:05:37,12:25:43,NA,incomplete,218,filling,1,left,Blue_Plus_Dots_4.jpg,Purple_Circle_Dots_1.jpg,Red_Star_Stripes_4.jpg,left,693.2649999798741,true,low,NA,NA,NA,NA,NA,NA,NA,false
NeQQ34xn,33ixyhizc8v0km0rv7j1cbq82t9e2g,3bqu611vftxwcus3z7nwj4t3ttx998,NeQQ34xn,2020-0188,2020-11-15,12:05:37,12:25:43,NA,incomplete,219,filling,0,left,Blue_Star_Dots_3.jpg,Purple_Triangle_Dots_2.jpg,Green_Circle_Grid_3.jpg,left,864.8600000014994,true,low,NA,NA,NA,NA,NA,NA,NA,false
NeQQ34xn,33ixyhizc8v0km0rv7j1cbq82t9e2g,3bqu611vftxwcus3z7nwj4t3ttx998,NeQQ34xn,2020-0188,2020-11-15,12:05:37,12:25:43,NA,incomplete,220,number,1,left,Red_Plus_Stripes_3.jpg,Blue_Triangle_Dots_3.jpg,Purple_Star_Stripes_2.jpg,right,694.1050000023097,false,low,NA,NA,NA,NA,NA,NA,NA,false
NeQQ34xn,33ixyhizc8v0km0rv7j1cbq82t9e2g,3bqu611vftxwcus3z7nwj4t3ttx998,NeQQ34xn,2020-0188,2020-11-15,12:05:37,12:25:43,NA,incomplete,221,number,0,left,Purple_Plus_Dots_4.jpg,Green_Circle_Stripes_4.jpg,Red_Triangle_Dots_2.jpg,right,780.3049999929499,false,low,NA,NA,NA,NA,NA,NA,NA,false
NeQQ34xn,33ixyhizc8v0km0rv7j1cbq82t9e2g,3bqu611vftxwcus3z7nwj4t3ttx998,NeQQ34xn,2020-0188,2020-11-15,12:05:37,12:25:43,NA,incomplete,222,number,1,left,Blue_Triangle_Dots_2.jpg,Purple_Plus_Grid_2.jpg,Red_Circle_Dots_3.jpg,right,778.2200000074226,false,low,NA,NA,NA,NA,NA,NA,NA,false
NeQQ34xn,33ixyhizc8v0km0rv7j1cbq82t9e2g,3bqu611vftxwcus3z7nwj4t3ttx998,NeQQ34xn,2020-0188,2020-11-15,12:05:37,12:25:43,NA,incomplete,223,number,0,right,Purple_Triangle_Chess_4.jpg,Red_Star_Chess_1.jpg,Green_Circle_Stripes_4.jpg,right,734.0250000124797,true,low,NA,NA,NA,NA,NA,NA,NA,false
NeQQ34xn,33ixyhizc8v0km0rv7j1cbq82t9e2g,3bqu611vftxwcus3z7nwj4t3ttx998,NeQQ34xn,2020-0188,2020-11-15,12:05:37,12:25:43,NA,incomplete,224,number,1,left,Green_Triangle_Grid_1.jpg,Purple_Plus_Stripes_1.jpg,Blue_Circle_Grid_2.jpg,left,701.2099999992643,true,low,NA,NA,NA,NA,NA,NA,NA,false
NeQQ34xn,33ixyhizc8v0km0rv7j1cbq82t9e2g,3bqu611vftxwcus3z7nwj4t3ttx998,NeQQ34xn,2020-0188,2020-11-15,12:05:37,12:25:43,NA,incomplete,225,number,1,left,Blue_Plus_Dots_1.jpg,Green_Star_Chess_1.jpg,Purple_Triangle_Dots_4.jpg,left,580.9250000165775,true,low,NA,NA,NA,NA,NA,NA,NA,false
NeQQ34xn,33ixyhizc8v0km0rv7j1cbq82t9e2g,3bqu611vftxwcus3z7nwj4t3ttx998,NeQQ34xn,2020-0188,2020-11-15,12:05:37,12:25:43,NA,incomplete,226,number,1,left,Green_Star_Dots_4.jpg,Blue_Circle_Grid_4.jpg,Red_Triangle_Dots_1.jpg,right,562.3449999839067,false,low,NA,NA,NA,NA,NA,NA,NA,false
NeQQ34xn,33ixyhizc8v0km0rv7j1cbq82t9e2g,3bqu611vftxwcus3z7nwj4t3ttx998,NeQQ34xn,2020-0188,2020-11-15,12:05:37,12:25:43,NA,incomplete,227,number,0,right,Red_Plus_Chess_1.jpg,Purple_Star_Chess_3.jpg,Green_Triangle_Grid_1.jpg,right,641.7749999964144,true,low,NA,NA,NA,NA,NA,NA,NA,false
NeQQ34xn,33ixyhizc8v0km0rv7j1cbq82t9e2g,3bqu611vftxwcus3z7nwj4t3ttx998,NeQQ34xn,2020-0188,2020-11-15,12:05:37,12:25:43,NA,incomplete,228,number,1,right,Red_Star_Grid_3.jpg,Green_Circle_Grid_2.jpg,Blue_Triangle_Chess_3.jpg,right,789.214999997057,true,low,NA,NA,NA,NA,NA,NA,NA,false
NeQQ34xn,33ixyhizc8v0km0rv7j1cbq82t9e2g,3bqu611vftxwcus3z7nwj4t3ttx998,NeQQ34xn,2020-0188,2020-11-15,12:05:37,12:25:43,NA,incomplete,229,number,1,left,Green_Star_Stripes_3.jpg,Blue_Triangle_Grid_3.jpg,Purple_Circle_Stripes_2.jpg,left,591.4449999982025,true,low,NA,NA,NA,NA,NA,NA,NA,false
NeQQ34xn,33ixyhizc8v0km0rv7j1cbq82t9e2g,3bqu611vftxwcus3z7nwj4t3ttx998,NeQQ34xn,2020-0188,2020-11-15,12:05:37,12:25:43,NA,incomplete,230,number,1,left,Purple_Star_Chess_1.jpg,Blue_Triangle_Dots_1.jpg,Red_Plus_Chess_2.jpg,left,659.7250000049826,true,low,NA,NA,NA,NA,NA,NA,NA,false
NeQQ34xn,33ixyhizc8v0km0rv7j1cbq82t9e2g,3bqu611vftxwcus3z7nwj4t3ttx998,NeQQ34xn,2020-0188,2020-11-15,12:05:37,12:25:43,NA,incomplete,231,number,1,right,Green_Triangle_Dots_1.jpg,Red_Star_Dots_3.jpg,Purple_Circle_Chess_1.jpg,right,522.8749999951106,true,low,NA,NA,NA,NA,NA,NA,NA,false
NeQQ34xn,33ixyhizc8v0km0rv7j1cbq82t9e2g,3bqu611vftxwcus3z7nwj4t3ttx998,NeQQ34xn,2020-0188,2020-11-15,12:05:37,12:25:43,NA,incomplete,232,number,0,right,Blue_Triangle_Grid_2.jpg,Green_Plus_Grid_1.jpg,Purple_Circle_Chess_2.jpg,right,570.2250000031199,true,low,NA,NA,NA,NA,NA,NA,NA,false
NeQQ34xn,33ixyhizc8v0km0rv7j1cbq82t9e2g,3bqu611vftxwcus3z7nwj4t3ttx998,NeQQ34xn,2020-0188,2020-11-15,12:05:37,12:25:43,NA,incomplete,233,number,1,right,Red_Star_Chess_2.jpg,Purple_Circle_Chess_4.jpg,Green_Triangle_Grid_2.jpg,right,539.6049999981187,true,low,NA,NA,NA,NA,NA,NA,NA,false
NeQQ34xn,33ixyhizc8v0km0rv7j1cbq82t9e2g,3bqu611vftxwcus3z7nwj4t3ttx998,NeQQ34xn,2020-0188,2020-11-15,12:05:37,12:25:43,NA,incomplete,234,number,0,left,Red_Star_Chess_4.jpg,Blue_Circle_Stripes_4.jpg,Green_Plus_Chess_3.jpg,left,731.0749999887776,true,low,NA,NA,NA,NA,NA,NA,NA,false
NeQQ34xn,33ixyhizc8v0km0rv7j1cbq82t9e2g,3bqu611vftxwcus3z7nwj4t3ttx998,NeQQ34xn,2020-0188,2020-11-15,12:05:37,12:25:43,NA,incomplete,235,number,1,left,Blue_Star_Dots_1.jpg,Purple_Triangle_Stripes_1.jpg,Red_Plus_Dots_2.jpg,left,531.9199999794364,true,low,NA,NA,NA,NA,NA,NA,NA,false
NeQQ34xn,33ixyhizc8v0km0rv7j1cbq82t9e2g,3bqu611vftxwcus3z7nwj4t3ttx998,NeQQ34xn,2020-0188,2020-11-15,12:05:37,12:25:43,NA,incomplete,236,number,0,right,Purple_Star_Dots_4.jpg,Red_Triangle_Dots_2.jpg,Green_Plus_Chess_4.jpg,right,658.9000000094529,true,low,NA,NA,NA,NA,NA,NA,NA,false
NeQQ34xn,33ixyhizc8v0km0rv7j1cbq82t9e2g,3bqu611vftxwcus3z7nwj4t3ttx998,NeQQ34xn,2020-0188,2020-11-15,12:05:37,12:25:43,NA,incomplete,237,number,1,right,Red_Triangle_Grid_3.jpg,Green_Circle_Grid_2.jpg,Purple_Star_Stripes_3.jpg,left,571.8200000119396,false,low,NA,NA,NA,NA,NA,NA,NA,false
NeQQ34xn,33ixyhizc8v0km0rv7j1cbq82t9e2g,3bqu611vftxwcus3z7nwj4t3ttx998,NeQQ34xn,2020-0188,2020-11-15,12:05:37,12:25:43,NA,incomplete,238,number,1,right,Purple_Plus_Stripes_2.jpg,Blue_Star_Stripes_3.jpg,Red_Triangle_Grid_2.jpg,right,649.5350000041071,true,low,NA,NA,NA,NA,NA,NA,NA,false
NeQQ34xn,33ixyhizc8v0km0rv7j1cbq82t9e2g,3bqu611vftxwcus3z7nwj4t3ttx998,NeQQ34xn,2020-0188,2020-11-15,12:05:37,12:25:43,NA,incomplete,239,number,1,right,Purple_Plus_Stripes_3.jpg,Green_Triangle_Stripes_4.jpg,Red_Star_Chess_3.jpg,right,710.335000010673,true,low,NA,NA,NA,NA,NA,NA,NA,false
NeQQ34xn,33ixyhizc8v0km0rv7j1cbq82t9e2g,3bqu611vftxwcus3z7nwj4t3ttx998,NeQQ34xn,2020-0188,2020-11-15,12:05:37,12:25:43,1085181.7900000024,1208876.3200000103,NA,NA,NA,NA,NA,NA,NA,NA,NA,NA,NA,34,White/Caucasian,Male,Do not wish to reply,no,yes,no,undefined
