workerId,hitId,assignmentId,subject,studyid,exp_date,exp_start,exp_end,time_start,time_end,trial,type,reward_validity,answer,image_top,image_left,image_right,response,response_time,response_acc,volatility,practice
d7Mowim2,33ixyhizc8v0km0rv7j1cbq82t9e2g,3bwi6rsp7km9t7vrsl5yxm38pzoe78,d7Mowim2,2020-0188,2020-11-15,00:50:01,01:21:04,NA,incomplete,0,filling,1,left,Blue_Triangle_Chess_3.jpg,Red_Plus_Chess_4.jpg,Green_Circle_Dots_3.jpg,right,574.9150000000373,false,NA,true
d7Mowim2,33ixyhizc8v0km0rv7j1cbq82t9e2g,3bwi6rsp7km9t7vrsl5yxm38pzoe78,d7Mowim2,2020-0188,2020-11-15,00:50:01,01:21:04,NA,incomplete,1,filling,1,right,Blue_Star_Grid_1.jpg,Purple_Triangle_Dots_1.jpg,Red_Plus_Grid_2.jpg,right,569.6949999992503,true,NA,true
d7Mowim2,33ixyhizc8v0km0rv7j1cbq82t9e2g,3bwi6rsp7km9t7vrsl5yxm38pzoe78,d7Mowim2,2020-0188,2020-11-15,00:50:01,01:21:04,NA,incomplete,2,filling,1,right,Green_Plus_Grid_1.jpg,Blue_Triangle_Dots_1.jpg,Red_Circle_Grid_3.jpg,none,0,false,NA,true
d7Mowim2,33ixyhizc8v0km0rv7j1cbq82t9e2g,3bwi6rsp7km9t7vrsl5yxm38pzoe78,d7Mowim2,2020-0188,2020-11-15,00:50:01,01:21:04,NA,incomplete,3,filling,1,right,Red_Circle_Chess_4.jpg,Purple_Plus_Grid_4.jpg,Blue_Star_Chess_1.jpg,left,23.119999999878928,false,NA,true
d7Mowim2,33ixyhizc8v0km0rv7j1cbq82t9e2g,3bwi6rsp7km9t7vrsl5yxm38pzoe78,d7Mowim2,2020-0188,2020-11-15,00:50:01,01:21:04,NA,incomplete,4,filling,1,right,Green_Circle_Stripes_2.jpg,Purple_Triangle_Grid_2.jpg,Red_Star_Stripes_1.jpg,none,0,false,NA,true
d7Mowim2,33ixyhizc8v0km0rv7j1cbq82t9e2g,3bwi6rsp7km9t7vrsl5yxm38pzoe78,d7Mowim2,2020-0188,2020-11-15,00:50:01,01:21:04,NA,incomplete,5,filling,1,right,Green_Star_Stripes_3.jpg,Purple_Circle_Dots_3.jpg,Red_Plus_Stripes_1.jpg,left,5.785000000265427,false,NA,true
d7Mowim2,33ixyhizc8v0km0rv7j1cbq82t9e2g,3bwi6rsp7km9t7vrsl5yxm38pzoe78,d7Mowim2,2020-0188,2020-11-15,00:50:01,01:21:04,NA,incomplete,6,filling,1,left,Blue_Star_Stripes_1.jpg,Green_Triangle_Stripes_2.jpg,Red_Plus_Dots_1.jpg,right,359.9350000004051,false,NA,true
d7Mowim2,33ixyhizc8v0km0rv7j1cbq82t9e2g,3bwi6rsp7km9t7vrsl5yxm38pzoe78,d7Mowim2,2020-0188,2020-11-15,00:50:01,01:21:04,NA,incomplete,7,filling,0,left,Blue_Circle_Chess_1.jpg,Purple_Star_Chess_4.jpg,Green_Plus_Stripes_1.jpg,right,388.32999999972526,false,NA,true
d7Mowim2,33ixyhizc8v0km0rv7j1cbq82t9e2g,3bwi6rsp7km9t7vrsl5yxm38pzoe78,d7Mowim2,2020-0188,2020-11-15,00:50:01,01:21:04,NA,incomplete,8,filling,1,right,Green_Star_Chess_2.jpg,Blue_Triangle_Stripes_2.jpg,Red_Circle_Chess_1.jpg,right,1807.0999999999767,true,NA,true
d7Mowim2,33ixyhizc8v0km0rv7j1cbq82t9e2g,3bwi6rsp7km9t7vrsl5yxm38pzoe78,d7Mowim2,2020-0188,2020-11-15,00:50:01,01:21:04,NA,incomplete,9,filling,1,right,Green_Triangle_Stripes_1.jpg,Purple_Circle_Chess_1.jpg,Blue_Star_Stripes_2.jpg,none,0,false,NA,true
d7Mowim2,33ixyhizc8v0km0rv7j1cbq82t9e2g,3bwi6rsp7km9t7vrsl5yxm38pzoe78,d7Mowim2,2020-0188,2020-11-15,00:50:01,01:21:04,NA,incomplete,10,filling,1,left,Blue_Circle_Grid_2.jpg,Red_Triangle_Grid_4.jpg,Green_Star_Chess_2.jpg,right,1863.1699999996927,false,NA,true
d7Mowim2,33ixyhizc8v0km0rv7j1cbq82t9e2g,3bwi6rsp7km9t7vrsl5yxm38pzoe78,d7Mowim2,2020-0188,2020-11-15,00:50:01,01:21:04,NA,incomplete,11,filling,0,left,Green_Star_Stripes_1.jpg,Red_Plus_Stripes_2.jpg,Blue_Triangle_Chess_1.jpg,left,325.65500000061,true,NA,true
d7Mowim2,33ixyhizc8v0km0rv7j1cbq82t9e2g,3bwi6rsp7km9t7vrsl5yxm38pzoe78,d7Mowim2,2020-0188,2020-11-15,00:50:01,01:21:04,NA,incomplete,12,filling,1,left,Blue_Circle_Dots_4.jpg,Red_Triangle_Dots_3.jpg,Green_Star_Chess_4.jpg,left,331.3699999998789,true,NA,true
d7Mowim2,33ixyhizc8v0km0rv7j1cbq82t9e2g,3bwi6rsp7km9t7vrsl5yxm38pzoe78,d7Mowim2,2020-0188,2020-11-15,00:50:01,01:21:04,NA,incomplete,13,filling,1,left,Blue_Triangle_Chess_4.jpg,Red_Star_Chess_3.jpg,Green_Circle_Stripes_4.jpg,right,1169.3850000001257,false,NA,true
d7Mowim2,33ixyhizc8v0km0rv7j1cbq82t9e2g,3bwi6rsp7km9t7vrsl5yxm38pzoe78,d7Mowim2,2020-0188,2020-11-15,00:50:01,01:21:04,NA,incomplete,14,filling,1,right,Blue_Triangle_Chess_4.jpg,Purple_Plus_Grid_4.jpg,Red_Circle_Chess_3.jpg,right,876.320000000298,true,NA,true
d7Mowim2,33ixyhizc8v0km0rv7j1cbq82t9e2g,3bwi6rsp7km9t7vrsl5yxm38pzoe78,d7Mowim2,2020-0188,2020-11-15,00:50:01,01:21:04,NA,incomplete,15,filling,0,right,Green_Star_Stripes_2.jpg,Blue_Triangle_Dots_2.jpg,Purple_Circle_Stripes_4.jpg,right,1378.3499999999767,true,NA,true
d7Mowim2,33ixyhizc8v0km0rv7j1cbq82t9e2g,3bwi6rsp7km9t7vrsl5yxm38pzoe78,d7Mowim2,2020-0188,2020-11-15,00:50:01,01:21:04,NA,incomplete,16,filling,1,left,Green_Star_Chess_1.jpg,Blue_Triangle_Chess_4.jpg,Red_Circle_Grid_1.jpg,none,0,false,NA,true
d7Mowim2,33ixyhizc8v0km0rv7j1cbq82t9e2g,3bwi6rsp7km9t7vrsl5yxm38pzoe78,d7Mowim2,2020-0188,2020-11-15,00:50:01,01:21:04,NA,incomplete,17,filling,0,right,Blue_Plus_Chess_3.jpg,Red_Star_Stripes_3.jpg,Green_Circle_Chess_4.jpg,left,149.75999999931082,false,NA,true
d7Mowim2,33ixyhizc8v0km0rv7j1cbq82t9e2g,3bwi6rsp7km9t7vrsl5yxm38pzoe78,d7Mowim2,2020-0188,2020-11-15,00:50:01,01:21:04,NA,incomplete,18,filling,1,right,Red_Star_Chess_1.jpg,Green_Plus_Dots_1.jpg,Purple_Triangle_Chess_4.jpg,left,211.41999999969266,false,NA,true
d7Mowim2,33ixyhizc8v0km0rv7j1cbq82t9e2g,3bwi6rsp7km9t7vrsl5yxm38pzoe78,d7Mowim2,2020-0188,2020-11-15,00:50:01,01:21:04,NA,incomplete,19,filling,1,left,Red_Plus_Grid_4.jpg,Green_Triangle_Grid_2.jpg,Blue_Circle_Dots_4.jpg,right,860.6900000004098,false,NA,true
d7Mowim2,33ixyhizc8v0km0rv7j1cbq82t9e2g,3bwi6rsp7km9t7vrsl5yxm38pzoe78,d7Mowim2,2020-0188,2020-11-15,00:50:01,01:21:04,NA,incomplete,20,number,1,right,Green_Triangle_Chess_4.jpg,Blue_Star_Chess_1.jpg,Purple_Plus_Dots_4.jpg,right,420.4100000006147,true,NA,true
d7Mowim2,33ixyhizc8v0km0rv7j1cbq82t9e2g,3bwi6rsp7km9t7vrsl5yxm38pzoe78,d7Mowim2,2020-0188,2020-11-15,00:50:01,01:21:04,NA,incomplete,21,number,1,left,Green_Star_Chess_1.jpg,Purple_Triangle_Stripes_1.jpg,Blue_Circle_Chess_2.jpg,left,213.26000000035856,true,NA,true
d7Mowim2,33ixyhizc8v0km0rv7j1cbq82t9e2g,3bwi6rsp7km9t7vrsl5yxm38pzoe78,d7Mowim2,2020-0188,2020-11-15,00:50:01,01:21:04,NA,incomplete,22,number,1,left,Purple_Star_Dots_3.jpg,Green_Circle_Chess_3.jpg,Red_Plus_Dots_4.jpg,right,615.9649999999674,false,NA,true
d7Mowim2,33ixyhizc8v0km0rv7j1cbq82t9e2g,3bwi6rsp7km9t7vrsl5yxm38pzoe78,d7Mowim2,2020-0188,2020-11-15,00:50:01,01:21:04,NA,incomplete,23,number,1,right,Blue_Plus_Grid_2.jpg,Green_Star_Grid_3.jpg,Purple_Triangle_Chess_2.jpg,left,490.0150000002468,false,NA,true
d7Mowim2,33ixyhizc8v0km0rv7j1cbq82t9e2g,3bwi6rsp7km9t7vrsl5yxm38pzoe78,d7Mowim2,2020-0188,2020-11-15,00:50:01,01:21:04,NA,incomplete,24,number,1,left,Blue_Circle_Stripes_3.jpg,Green_Star_Grid_3.jpg,Red_Plus_Stripes_2.jpg,none,0,false,NA,true
d7Mowim2,33ixyhizc8v0km0rv7j1cbq82t9e2g,3bwi6rsp7km9t7vrsl5yxm38pzoe78,d7Mowim2,2020-0188,2020-11-15,00:50:01,01:21:04,NA,incomplete,25,number,0,left,Purple_Star_Dots_3.jpg,Green_Circle_Chess_3.jpg,Red_Triangle_Dots_4.jpg,none,0,false,NA,true
d7Mowim2,33ixyhizc8v0km0rv7j1cbq82t9e2g,3bwi6rsp7km9t7vrsl5yxm38pzoe78,d7Mowim2,2020-0188,2020-11-15,00:50:01,01:21:04,NA,incomplete,26,number,1,right,Purple_Plus_Stripes_1.jpg,Red_Star_Stripes_2.jpg,Blue_Triangle_Dots_1.jpg,none,0,false,NA,true
d7Mowim2,33ixyhizc8v0km0rv7j1cbq82t9e2g,3bwi6rsp7km9t7vrsl5yxm38pzoe78,d7Mowim2,2020-0188,2020-11-15,00:50:01,01:21:04,NA,incomplete,27,number,0,left,Green_Circle_Chess_2.jpg,Red_Triangle_Dots_2.jpg,Purple_Star_Chess_3.jpg,left,85.56000000040513,true,NA,true
d7Mowim2,33ixyhizc8v0km0rv7j1cbq82t9e2g,3bwi6rsp7km9t7vrsl5yxm38pzoe78,d7Mowim2,2020-0188,2020-11-15,00:50:01,01:21:04,NA,incomplete,28,number,1,right,Green_Triangle_Stripes_1.jpg,Blue_Plus_Stripes_4.jpg,Red_Star_Chess_1.jpg,right,1748.4500000000698,true,NA,true
d7Mowim2,33ixyhizc8v0km0rv7j1cbq82t9e2g,3bwi6rsp7km9t7vrsl5yxm38pzoe78,d7Mowim2,2020-0188,2020-11-15,00:50:01,01:21:04,NA,incomplete,29,number,1,right,Red_Star_Chess_2.jpg,Purple_Triangle_Chess_1.jpg,Blue_Circle_Dots_2.jpg,right,304.9049999999115,true,NA,true
d7Mowim2,33ixyhizc8v0km0rv7j1cbq82t9e2g,3bwi6rsp7km9t7vrsl5yxm38pzoe78,d7Mowim2,2020-0188,2020-11-15,00:50:01,01:21:04,NA,incomplete,30,number,1,right,Blue_Triangle_Stripes_2.jpg,Red_Circle_Stripes_1.jpg,Purple_Plus_Grid_2.jpg,right,637.2099999998463,true,NA,true
d7Mowim2,33ixyhizc8v0km0rv7j1cbq82t9e2g,3bwi6rsp7km9t7vrsl5yxm38pzoe78,d7Mowim2,2020-0188,2020-11-15,00:50:01,01:21:04,NA,incomplete,31,number,1,left,Green_Star_Dots_1.jpg,Blue_Plus_Stripes_1.jpg,Purple_Triangle_Dots_3.jpg,left,390.75000000046566,true,NA,true
d7Mowim2,33ixyhizc8v0km0rv7j1cbq82t9e2g,3bwi6rsp7km9t7vrsl5yxm38pzoe78,d7Mowim2,2020-0188,2020-11-15,00:50:01,01:21:04,NA,incomplete,32,number,1,right,Green_Circle_Stripes_3.jpg,Purple_Triangle_Stripes_4.jpg,Red_Star_Dots_3.jpg,right,456.6850000001723,true,NA,true
d7Mowim2,33ixyhizc8v0km0rv7j1cbq82t9e2g,3bwi6rsp7km9t7vrsl5yxm38pzoe78,d7Mowim2,2020-0188,2020-11-15,00:50:01,01:21:04,NA,incomplete,33,number,1,left,Blue_Star_Stripes_1.jpg,Green_Plus_Chess_1.jpg,Red_Circle_Stripes_2.jpg,right,1321.9799999997485,false,NA,true
d7Mowim2,33ixyhizc8v0km0rv7j1cbq82t9e2g,3bwi6rsp7km9t7vrsl5yxm38pzoe78,d7Mowim2,2020-0188,2020-11-15,00:50:01,01:21:04,NA,incomplete,34,number,1,left,Purple_Star_Chess_2.jpg,Blue_Plus_Dots_2.jpg,Red_Triangle_Chess_4.jpg,right,381.91499999992084,false,NA,true
d7Mowim2,33ixyhizc8v0km0rv7j1cbq82t9e2g,3bwi6rsp7km9t7vrsl5yxm38pzoe78,d7Mowim2,2020-0188,2020-11-15,00:50:01,01:21:04,NA,incomplete,35,number,0,left,Blue_Circle_Chess_4.jpg,Purple_Star_Grid_4.jpg,Green_Plus_Chess_1.jpg,right,1121.285000000149,false,NA,true
d7Mowim2,33ixyhizc8v0km0rv7j1cbq82t9e2g,3bwi6rsp7km9t7vrsl5yxm38pzoe78,d7Mowim2,2020-0188,2020-11-15,00:50:01,01:21:04,NA,incomplete,36,number,1,right,Blue_Circle_Stripes_2.jpg,Red_Star_Stripes_4.jpg,Green_Plus_Chess_2.jpg,none,0,false,NA,true
d7Mowim2,33ixyhizc8v0km0rv7j1cbq82t9e2g,3bwi6rsp7km9t7vrsl5yxm38pzoe78,d7Mowim2,2020-0188,2020-11-15,00:50:01,01:21:04,NA,incomplete,37,number,1,right,Purple_Plus_Chess_2.jpg,Red_Star_Chess_1.jpg,Green_Circle_Dots_2.jpg,left,793.4800000003306,false,NA,true
d7Mowim2,33ixyhizc8v0km0rv7j1cbq82t9e2g,3bwi6rsp7km9t7vrsl5yxm38pzoe78,d7Mowim2,2020-0188,2020-11-15,00:50:01,01:21:04,NA,incomplete,38,number,0,right,Green_Circle_Chess_4.jpg,Purple_Triangle_Chess_2.jpg,Red_Plus_Grid_4.jpg,right,307.9049999996787,true,NA,true
d7Mowim2,33ixyhizc8v0km0rv7j1cbq82t9e2g,3bwi6rsp7km9t7vrsl5yxm38pzoe78,d7Mowim2,2020-0188,2020-11-15,00:50:01,01:21:04,NA,incomplete,39,number,1,right,Red_Triangle_Stripes_1.jpg,Green_Star_Stripes_3.jpg,Purple_Circle_Dots_1.jpg,none,0,false,NA,true
d7Mowim2,33ixyhizc8v0km0rv7j1cbq82t9e2g,3bwi6rsp7km9t7vrsl5yxm38pzoe78,d7Mowim2,2020-0188,2020-11-15,00:50:01,01:21:04,NA,incomplete,0,filling,1,left,Green_Circle_Dots_3.jpg,Blue_Plus_Dots_2.jpg,Purple_Star_Chess_3.jpg,left,70.38500000000931,true,low,false
d7Mowim2,33ixyhizc8v0km0rv7j1cbq82t9e2g,3bwi6rsp7km9t7vrsl5yxm38pzoe78,d7Mowim2,2020-0188,2020-11-15,00:50:01,01:21:04,NA,incomplete,1,filling,1,left,Green_Circle_Grid_2.jpg,Purple_Star_Grid_3.jpg,Red_Triangle_Chess_2.jpg,right,823.515000000014,false,low,false
d7Mowim2,33ixyhizc8v0km0rv7j1cbq82t9e2g,3bwi6rsp7km9t7vrsl5yxm38pzoe78,d7Mowim2,2020-0188,2020-11-15,00:50:01,01:21:04,NA,incomplete,2,filling,1,right,Red_Circle_Dots_1.jpg,Green_Triangle_Stripes_1.jpg,Purple_Star_Dots_4.jpg,right,1600.559999999823,true,low,false
d7Mowim2,33ixyhizc8v0km0rv7j1cbq82t9e2g,3bwi6rsp7km9t7vrsl5yxm38pzoe78,d7Mowim2,2020-0188,2020-11-15,00:50:01,01:21:04,NA,incomplete,3,filling,1,right,Purple_Circle_Dots_4.jpg,Blue_Triangle_Grid_4.jpg,Green_Plus_Dots_1.jpg,none,0,false,low,false
d7Mowim2,33ixyhizc8v0km0rv7j1cbq82t9e2g,3bwi6rsp7km9t7vrsl5yxm38pzoe78,d7Mowim2,2020-0188,2020-11-15,00:50:01,01:21:04,NA,incomplete,4,filling,1,right,Purple_Circle_Dots_1.jpg,Blue_Triangle_Grid_1.jpg,Green_Star_Dots_3.jpg,left,143.97999999986496,false,low,false
d7Mowim2,33ixyhizc8v0km0rv7j1cbq82t9e2g,3bwi6rsp7km9t7vrsl5yxm38pzoe78,d7Mowim2,2020-0188,2020-11-15,00:50:01,01:21:04,NA,incomplete,5,filling,1,right,Red_Triangle_Dots_4.jpg,Blue_Plus_Grid_4.jpg,Green_Star_Dots_3.jpg,right,469.589999999851,true,low,false
d7Mowim2,33ixyhizc8v0km0rv7j1cbq82t9e2g,3bwi6rsp7km9t7vrsl5yxm38pzoe78,d7Mowim2,2020-0188,2020-11-15,00:50:01,01:21:04,NA,incomplete,6,filling,1,right,Green_Triangle_Chess_4.jpg,Blue_Plus_Stripes_4.jpg,Red_Circle_Chess_2.jpg,left,580.3499999991618,false,low,false
d7Mowim2,33ixyhizc8v0km0rv7j1cbq82t9e2g,3bwi6rsp7km9t7vrsl5yxm38pzoe78,d7Mowim2,2020-0188,2020-11-15,00:50:01,01:21:04,NA,incomplete,7,filling,1,left,Purple_Star_Dots_1.jpg,Green_Circle_Dots_2.jpg,Blue_Triangle_Grid_1.jpg,right,800.6750000005122,false,low,false
d7Mowim2,33ixyhizc8v0km0rv7j1cbq82t9e2g,3bwi6rsp7km9t7vrsl5yxm38pzoe78,d7Mowim2,2020-0188,2020-11-15,00:50:01,01:21:04,NA,incomplete,8,filling,1,left,Red_Triangle_Dots_1.jpg,Green_Plus_Dots_4.jpg,Purple_Star_Chess_1.jpg,left,281.76499999989755,true,low,false
d7Mowim2,33ixyhizc8v0km0rv7j1cbq82t9e2g,3bwi6rsp7km9t7vrsl5yxm38pzoe78,d7Mowim2,2020-0188,2020-11-15,00:50:01,01:21:04,NA,incomplete,9,filling,1,left,Red_Circle_Grid_2.jpg,Purple_Triangle_Grid_3.jpg,Green_Star_Chess_2.jpg,left,737.1650000002701,true,low,false
d7Mowim2,33ixyhizc8v0km0rv7j1cbq82t9e2g,3bwi6rsp7km9t7vrsl5yxm38pzoe78,d7Mowim2,2020-0188,2020-11-15,00:50:01,01:21:04,NA,incomplete,10,filling,1,left,Blue_Plus_Chess_1.jpg,Red_Star_Chess_4.jpg,Purple_Circle_Dots_1.jpg,right,990.1699999999255,false,low,false
d7Mowim2,33ixyhizc8v0km0rv7j1cbq82t9e2g,3bwi6rsp7km9t7vrsl5yxm38pzoe78,d7Mowim2,2020-0188,2020-11-15,00:50:01,01:21:04,NA,incomplete,11,filling,1,left,Green_Star_Grid_4.jpg,Red_Circle_Grid_1.jpg,Blue_Triangle_Chess_4.jpg,right,360.3850000000093,false,low,false
d7Mowim2,33ixyhizc8v0km0rv7j1cbq82t9e2g,3bwi6rsp7km9t7vrsl5yxm38pzoe78,d7Mowim2,2020-0188,2020-11-15,00:50:01,01:21:04,NA,incomplete,12,filling,1,right,Blue_Triangle_Chess_3.jpg,Red_Star_Dots_3.jpg,Green_Plus_Chess_4.jpg,right,220.5800000000745,true,low,false
d7Mowim2,33ixyhizc8v0km0rv7j1cbq82t9e2g,3bwi6rsp7km9t7vrsl5yxm38pzoe78,d7Mowim2,2020-0188,2020-11-15,00:50:01,01:21:04,NA,incomplete,13,filling,1,left,Red_Star_Grid_4.jpg,Purple_Plus_Grid_2.jpg,Green_Circle_Dots_4.jpg,left,166.41499999980442,true,low,false
d7Mowim2,33ixyhizc8v0km0rv7j1cbq82t9e2g,3bwi6rsp7km9t7vrsl5yxm38pzoe78,d7Mowim2,2020-0188,2020-11-15,00:50:01,01:21:04,NA,incomplete,14,filling,1,left,Blue_Plus_Stripes_4.jpg,Red_Circle_Stripes_2.jpg,Purple_Triangle_Grid_4.jpg,right,875.5749999990221,false,low,false
d7Mowim2,33ixyhizc8v0km0rv7j1cbq82t9e2g,3bwi6rsp7km9t7vrsl5yxm38pzoe78,d7Mowim2,2020-0188,2020-11-15,00:50:01,01:21:04,NA,incomplete,15,filling,1,left,Red_Plus_Stripes_1.jpg,Purple_Star_Stripes_4.jpg,Blue_Triangle_Grid_1.jpg,left,712.9699999995064,true,low,false
d7Mowim2,33ixyhizc8v0km0rv7j1cbq82t9e2g,3bwi6rsp7km9t7vrsl5yxm38pzoe78,d7Mowim2,2020-0188,2020-11-15,00:50:01,01:21:04,NA,incomplete,16,filling,1,right,Blue_Triangle_Dots_2.jpg,Purple_Star_Grid_2.jpg,Green_Circle_Dots_1.jpg,right,1432.0000000006985,true,low,false
d7Mowim2,33ixyhizc8v0km0rv7j1cbq82t9e2g,3bwi6rsp7km9t7vrsl5yxm38pzoe78,d7Mowim2,2020-0188,2020-11-15,00:50:01,01:21:04,NA,incomplete,17,filling,0,left,Red_Triangle_Grid_1.jpg,Blue_Star_Grid_2.jpg,Green_Plus_Stripes_1.jpg,none,0,false,low,false
d7Mowim2,33ixyhizc8v0km0rv7j1cbq82t9e2g,3bwi6rsp7km9t7vrsl5yxm38pzoe78,d7Mowim2,2020-0188,2020-11-15,00:50:01,01:21:04,NA,incomplete,18,filling,0,left,Blue_Plus_Stripes_4.jpg,Purple_Triangle_Stripes_2.jpg,Red_Star_Grid_4.jpg,left,221.03499999968335,true,low,false
d7Mowim2,33ixyhizc8v0km0rv7j1cbq82t9e2g,3bwi6rsp7km9t7vrsl5yxm38pzoe78,d7Mowim2,2020-0188,2020-11-15,00:50:01,01:21:04,NA,incomplete,19,filling,1,right,Purple_Plus_Grid_1.jpg,Green_Circle_Dots_1.jpg,Red_Star_Grid_3.jpg,left,262.46999999973923,false,low,false
d7Mowim2,33ixyhizc8v0km0rv7j1cbq82t9e2g,3bwi6rsp7km9t7vrsl5yxm38pzoe78,d7Mowim2,2020-0188,2020-11-15,00:50:01,01:21:04,NA,incomplete,20,filling,1,left,Blue_Plus_Chess_4.jpg,Purple_Circle_Chess_3.jpg,Green_Star_Grid_4.jpg,right,440.2900000005029,false,low,false
d7Mowim2,33ixyhizc8v0km0rv7j1cbq82t9e2g,3bwi6rsp7km9t7vrsl5yxm38pzoe78,d7Mowim2,2020-0188,2020-11-15,00:50:01,01:21:04,NA,incomplete,21,filling,1,left,Red_Plus_Grid_1.jpg,Purple_Circle_Grid_4.jpg,Blue_Triangle_Chess_1.jpg,left,343.61000000080094,true,low,false
d7Mowim2,33ixyhizc8v0km0rv7j1cbq82t9e2g,3bwi6rsp7km9t7vrsl5yxm38pzoe78,d7Mowim2,2020-0188,2020-11-15,00:50:01,01:21:04,NA,incomplete,22,filling,1,right,Purple_Plus_Chess_4.jpg,Blue_Triangle_Dots_4.jpg,Green_Circle_Chess_2.jpg,right,644.2049999996088,true,low,false
d7Mowim2,33ixyhizc8v0km0rv7j1cbq82t9e2g,3bwi6rsp7km9t7vrsl5yxm38pzoe78,d7Mowim2,2020-0188,2020-11-15,00:50:01,01:21:04,NA,incomplete,23,filling,1,right,Blue_Circle_Dots_3.jpg,Green_Plus_Grid_3.jpg,Red_Triangle_Dots_1.jpg,left,364.84499999997206,false,low,false
d7Mowim2,33ixyhizc8v0km0rv7j1cbq82t9e2g,3bwi6rsp7km9t7vrsl5yxm38pzoe78,d7Mowim2,2020-0188,2020-11-15,00:50:01,01:21:04,NA,incomplete,24,filling,1,right,Purple_Plus_Stripes_1.jpg,Red_Circle_Grid_1.jpg,Blue_Star_Stripes_4.jpg,right,1129.2350000003353,true,low,false
d7Mowim2,33ixyhizc8v0km0rv7j1cbq82t9e2g,3bwi6rsp7km9t7vrsl5yxm38pzoe78,d7Mowim2,2020-0188,2020-11-15,00:50:01,01:21:04,NA,incomplete,25,filling,1,right,Blue_Star_Dots_1.jpg,Purple_Circle_Grid_1.jpg,Red_Plus_Dots_2.jpg,right,1734.3049999999348,true,low,false
d7Mowim2,33ixyhizc8v0km0rv7j1cbq82t9e2g,3bwi6rsp7km9t7vrsl5yxm38pzoe78,d7Mowim2,2020-0188,2020-11-15,00:50:01,01:21:04,NA,incomplete,26,filling,1,right,Green_Plus_Stripes_1.jpg,Blue_Star_Chess_1.jpg,Purple_Triangle_Stripes_4.jpg,right,1970.170000000624,true,low,false
d7Mowim2,33ixyhizc8v0km0rv7j1cbq82t9e2g,3bwi6rsp7km9t7vrsl5yxm38pzoe78,d7Mowim2,2020-0188,2020-11-15,00:50:01,01:21:04,NA,incomplete,27,filling,0,right,Green_Plus_Stripes_2.jpg,Red_Circle_Dots_2.jpg,Blue_Triangle_Stripes_3.jpg,right,332.05000000004657,true,low,false
d7Mowim2,33ixyhizc8v0km0rv7j1cbq82t9e2g,3bwi6rsp7km9t7vrsl5yxm38pzoe78,d7Mowim2,2020-0188,2020-11-15,00:50:01,01:21:04,NA,incomplete,28,filling,0,right,Green_Plus_Chess_4.jpg,Blue_Star_Dots_4.jpg,Purple_Triangle_Chess_1.jpg,left,89.69499999959953,false,low,false
d7Mowim2,33ixyhizc8v0km0rv7j1cbq82t9e2g,3bwi6rsp7km9t7vrsl5yxm38pzoe78,d7Mowim2,2020-0188,2020-11-15,00:50:01,01:21:04,NA,incomplete,29,filling,1,right,Green_Triangle_Grid_3.jpg,Red_Circle_Chess_3.jpg,Blue_Plus_Grid_4.jpg,left,248.36500000022352,false,low,false
d7Mowim2,33ixyhizc8v0km0rv7j1cbq82t9e2g,3bwi6rsp7km9t7vrsl5yxm38pzoe78,d7Mowim2,2020-0188,2020-11-15,00:50:01,01:21:04,NA,incomplete,30,number,1,right,Blue_Plus_Grid_2.jpg,Green_Star_Grid_1.jpg,Red_Circle_Chess_2.jpg,right,945.4850000003353,true,low,false
d7Mowim2,33ixyhizc8v0km0rv7j1cbq82t9e2g,3bwi6rsp7km9t7vrsl5yxm38pzoe78,d7Mowim2,2020-0188,2020-11-15,00:50:01,01:21:04,NA,incomplete,31,number,1,left,Red_Star_Stripes_4.jpg,Green_Plus_Chess_4.jpg,Blue_Triangle_Stripes_3.jpg,right,1222.8750000004657,false,low,false
d7Mowim2,33ixyhizc8v0km0rv7j1cbq82t9e2g,3bwi6rsp7km9t7vrsl5yxm38pzoe78,d7Mowim2,2020-0188,2020-11-15,00:50:01,01:21:04,NA,incomplete,32,number,0,right,Green_Triangle_Grid_3.jpg,Blue_Circle_Grid_4.jpg,Red_Plus_Stripes_3.jpg,none,0,false,low,false
d7Mowim2,33ixyhizc8v0km0rv7j1cbq82t9e2g,3bwi6rsp7km9t7vrsl5yxm38pzoe78,d7Mowim2,2020-0188,2020-11-15,00:50:01,01:21:04,NA,incomplete,33,number,1,right,Red_Star_Grid_2.jpg,Green_Circle_Grid_3.jpg,Purple_Triangle_Stripes_2.jpg,right,417.205000000773,true,low,false
d7Mowim2,33ixyhizc8v0km0rv7j1cbq82t9e2g,3bwi6rsp7km9t7vrsl5yxm38pzoe78,d7Mowim2,2020-0188,2020-11-15,00:50:01,01:21:04,NA,incomplete,34,number,1,right,Blue_Star_Dots_2.jpg,Red_Circle_Dots_3.jpg,Green_Triangle_Stripes_2.jpg,right,458.6849999995902,true,low,false
d7Mowim2,33ixyhizc8v0km0rv7j1cbq82t9e2g,3bwi6rsp7km9t7vrsl5yxm38pzoe78,d7Mowim2,2020-0188,2020-11-15,00:50:01,01:21:04,NA,incomplete,35,number,1,left,Green_Plus_Grid_1.jpg,Red_Triangle_Dots_1.jpg,Blue_Circle_Grid_4.jpg,left,402.3400000005495,true,low,false
d7Mowim2,33ixyhizc8v0km0rv7j1cbq82t9e2g,3bwi6rsp7km9t7vrsl5yxm38pzoe78,d7Mowim2,2020-0188,2020-11-15,00:50:01,01:21:04,NA,incomplete,36,number,1,left,Green_Triangle_Stripes_2.jpg,Red_Circle_Grid_2.jpg,Blue_Plus_Stripes_4.jpg,left,508.4050000004936,true,low,false
d7Mowim2,33ixyhizc8v0km0rv7j1cbq82t9e2g,3bwi6rsp7km9t7vrsl5yxm38pzoe78,d7Mowim2,2020-0188,2020-11-15,00:50:01,01:21:04,NA,incomplete,37,number,1,left,Red_Circle_Stripes_3.jpg,Purple_Triangle_Chess_3.jpg,Blue_Plus_Stripes_2.jpg,right,361.9399999997113,false,low,false
d7Mowim2,33ixyhizc8v0km0rv7j1cbq82t9e2g,3bwi6rsp7km9t7vrsl5yxm38pzoe78,d7Mowim2,2020-0188,2020-11-15,00:50:01,01:21:04,NA,incomplete,38,number,1,right,Green_Triangle_Stripes_2.jpg,Purple_Plus_Stripes_3.jpg,Red_Circle_Grid_2.jpg,right,86.08499999972992,true,low,false
d7Mowim2,33ixyhizc8v0km0rv7j1cbq82t9e2g,3bwi6rsp7km9t7vrsl5yxm38pzoe78,d7Mowim2,2020-0188,2020-11-15,00:50:01,01:21:04,NA,incomplete,39,number,1,right,Blue_Circle_Chess_2.jpg,Green_Star_Chess_4.jpg,Purple_Triangle_Dots_2.jpg,right,1917.9050000002608,true,low,false
d7Mowim2,33ixyhizc8v0km0rv7j1cbq82t9e2g,3bwi6rsp7km9t7vrsl5yxm38pzoe78,d7Mowim2,2020-0188,2020-11-15,00:50:01,01:21:04,NA,incomplete,40,number,1,left,Purple_Star_Chess_1.jpg,Green_Plus_Stripes_1.jpg,Red_Circle_Chess_4.jpg,left,378.05500000016764,true,low,false
d7Mowim2,33ixyhizc8v0km0rv7j1cbq82t9e2g,3bwi6rsp7km9t7vrsl5yxm38pzoe78,d7Mowim2,2020-0188,2020-11-15,00:50:01,01:21:04,NA,incomplete,41,number,1,right,Purple_Plus_Grid_2.jpg,Red_Circle_Grid_4.jpg,Green_Star_Dots_2.jpg,right,701.8150000004098,true,low,false
d7Mowim2,33ixyhizc8v0km0rv7j1cbq82t9e2g,3bwi6rsp7km9t7vrsl5yxm38pzoe78,d7Mowim2,2020-0188,2020-11-15,00:50:01,01:21:04,NA,incomplete,42,number,1,left,Blue_Triangle_Dots_4.jpg,Purple_Star_Stripes_4.jpg,Red_Plus_Dots_2.jpg,right,371.4799999999814,false,low,false
d7Mowim2,33ixyhizc8v0km0rv7j1cbq82t9e2g,3bwi6rsp7km9t7vrsl5yxm38pzoe78,d7Mowim2,2020-0188,2020-11-15,00:50:01,01:21:04,NA,incomplete,43,number,0,right,Green_Star_Chess_3.jpg,Purple_Triangle_Chess_2.jpg,Red_Circle_Stripes_3.jpg,left,39.27000000025146,false,low,false
d7Mowim2,33ixyhizc8v0km0rv7j1cbq82t9e2g,3bwi6rsp7km9t7vrsl5yxm38pzoe78,d7Mowim2,2020-0188,2020-11-15,00:50:01,01:21:04,NA,incomplete,44,number,1,left,Blue_Circle_Dots_4.jpg,Red_Star_Grid_4.jpg,Green_Plus_Dots_1.jpg,right,1513.084999999497,false,low,false
d7Mowim2,33ixyhizc8v0km0rv7j1cbq82t9e2g,3bwi6rsp7km9t7vrsl5yxm38pzoe78,d7Mowim2,2020-0188,2020-11-15,00:50:01,01:21:04,NA,incomplete,45,number,0,left,Blue_Circle_Dots_3.jpg,Purple_Star_Grid_3.jpg,Green_Triangle_Dots_4.jpg,right,37.29000000027008,false,low,false
d7Mowim2,33ixyhizc8v0km0rv7j1cbq82t9e2g,3bwi6rsp7km9t7vrsl5yxm38pzoe78,d7Mowim2,2020-0188,2020-11-15,00:50:01,01:21:04,NA,incomplete,46,number,1,left,Green_Triangle_Grid_3.jpg,Purple_Circle_Chess_3.jpg,Red_Star_Grid_1.jpg,right,478.04999999981374,false,low,false
d7Mowim2,33ixyhizc8v0km0rv7j1cbq82t9e2g,3bwi6rsp7km9t7vrsl5yxm38pzoe78,d7Mowim2,2020-0188,2020-11-15,00:50:01,01:21:04,NA,incomplete,47,number,1,left,Red_Plus_Grid_3.jpg,Green_Triangle_Dots_3.jpg,Purple_Circle_Grid_2.jpg,right,494.714999999851,false,low,false
d7Mowim2,33ixyhizc8v0km0rv7j1cbq82t9e2g,3bwi6rsp7km9t7vrsl5yxm38pzoe78,d7Mowim2,2020-0188,2020-11-15,00:50:01,01:21:04,NA,incomplete,48,number,1,left,Blue_Star_Stripes_1.jpg,Purple_Circle_Grid_1.jpg,Red_Triangle_Stripes_3.jpg,none,0,false,low,false
d7Mowim2,33ixyhizc8v0km0rv7j1cbq82t9e2g,3bwi6rsp7km9t7vrsl5yxm38pzoe78,d7Mowim2,2020-0188,2020-11-15,00:50:01,01:21:04,NA,incomplete,49,number,1,right,Blue_Plus_Stripes_3.jpg,Purple_Circle_Stripes_1.jpg,Red_Star_Chess_3.jpg,right,831.4200000003912,true,low,false
d7Mowim2,33ixyhizc8v0km0rv7j1cbq82t9e2g,3bwi6rsp7km9t7vrsl5yxm38pzoe78,d7Mowim2,2020-0188,2020-11-15,00:50:01,01:21:04,NA,incomplete,50,number,0,left,Blue_Plus_Grid_4.jpg,Red_Triangle_Dots_4.jpg,Purple_Star_Grid_3.jpg,right,751.5800000000745,false,low,false
d7Mowim2,33ixyhizc8v0km0rv7j1cbq82t9e2g,3bwi6rsp7km9t7vrsl5yxm38pzoe78,d7Mowim2,2020-0188,2020-11-15,00:50:01,01:21:04,NA,incomplete,51,number,1,left,Blue_Circle_Stripes_3.jpg,Red_Triangle_Grid_3.jpg,Purple_Star_Stripes_2.jpg,left,355.2299999999814,true,low,false
d7Mowim2,33ixyhizc8v0km0rv7j1cbq82t9e2g,3bwi6rsp7km9t7vrsl5yxm38pzoe78,d7Mowim2,2020-0188,2020-11-15,00:50:01,01:21:04,NA,incomplete,52,number,0,right,Green_Circle_Stripes_3.jpg,Red_Star_Stripes_1.jpg,Purple_Triangle_Grid_3.jpg,right,1815.7199999995064,true,low,false
d7Mowim2,33ixyhizc8v0km0rv7j1cbq82t9e2g,3bwi6rsp7km9t7vrsl5yxm38pzoe78,d7Mowim2,2020-0188,2020-11-15,00:50:01,01:21:04,NA,incomplete,53,number,1,right,Green_Plus_Dots_2.jpg,Red_Circle_Dots_4.jpg,Purple_Triangle_Stripes_2.jpg,right,1816.1350000000093,true,low,false
d7Mowim2,33ixyhizc8v0km0rv7j1cbq82t9e2g,3bwi6rsp7km9t7vrsl5yxm38pzoe78,d7Mowim2,2020-0188,2020-11-15,00:50:01,01:21:04,NA,incomplete,54,number,0,left,Red_Triangle_Dots_2.jpg,Green_Star_Stripes_2.jpg,Purple_Circle_Dots_1.jpg,right,633.5449999996927,false,low,false
d7Mowim2,33ixyhizc8v0km0rv7j1cbq82t9e2g,3bwi6rsp7km9t7vrsl5yxm38pzoe78,d7Mowim2,2020-0188,2020-11-15,00:50:01,01:21:04,NA,incomplete,55,number,0,left,Purple_Star_Grid_1.jpg,Red_Plus_Stripes_1.jpg,Blue_Triangle_Grid_3.jpg,right,482.26500000059605,false,low,false
d7Mowim2,33ixyhizc8v0km0rv7j1cbq82t9e2g,3bwi6rsp7km9t7vrsl5yxm38pzoe78,d7Mowim2,2020-0188,2020-11-15,00:50:01,01:21:04,NA,incomplete,56,number,1,right,Green_Circle_Stripes_2.jpg,Purple_Triangle_Stripes_4.jpg,Blue_Star_Grid_2.jpg,right,601.6749999998137,true,low,false
d7Mowim2,33ixyhizc8v0km0rv7j1cbq82t9e2g,3bwi6rsp7km9t7vrsl5yxm38pzoe78,d7Mowim2,2020-0188,2020-11-15,00:50:01,01:21:04,NA,incomplete,57,number,1,right,Green_Plus_Chess_2.jpg,Blue_Circle_Chess_3.jpg,Red_Star_Stripes_2.jpg,right,1308.639999999199,true,low,false
d7Mowim2,33ixyhizc8v0km0rv7j1cbq82t9e2g,3bwi6rsp7km9t7vrsl5yxm38pzoe78,d7Mowim2,2020-0188,2020-11-15,00:50:01,01:21:04,NA,incomplete,58,number,1,left,Red_Star_Stripes_2.jpg,Purple_Circle_Grid_2.jpg,Blue_Plus_Stripes_4.jpg,none,0,false,low,false
d7Mowim2,33ixyhizc8v0km0rv7j1cbq82t9e2g,3bwi6rsp7km9t7vrsl5yxm38pzoe78,d7Mowim2,2020-0188,2020-11-15,00:50:01,01:21:04,NA,incomplete,59,number,1,right,Red_Star_Stripes_1.jpg,Purple_Plus_Stripes_2.jpg,Blue_Circle_Grid_1.jpg,left,444.74999999976717,false,low,false
d7Mowim2,33ixyhizc8v0km0rv7j1cbq82t9e2g,3bwi6rsp7km9t7vrsl5yxm38pzoe78,d7Mowim2,2020-0188,2020-11-15,00:50:01,01:21:04,NA,incomplete,60,filling,0,right,Purple_Circle_Dots_3.jpg,Blue_Star_Grid_3.jpg,Red_Triangle_Dots_4.jpg,left,44.045000000623986,false,low,false
d7Mowim2,33ixyhizc8v0km0rv7j1cbq82t9e2g,3bwi6rsp7km9t7vrsl5yxm38pzoe78,d7Mowim2,2020-0188,2020-11-15,00:50:01,01:21:04,NA,incomplete,61,filling,1,left,Purple_Circle_Grid_4.jpg,Blue_Triangle_Grid_2.jpg,Red_Plus_Dots_4.jpg,none,0,false,low,false
d7Mowim2,33ixyhizc8v0km0rv7j1cbq82t9e2g,3bwi6rsp7km9t7vrsl5yxm38pzoe78,d7Mowim2,2020-0188,2020-11-15,00:50:01,01:21:04,NA,incomplete,62,filling,1,left,Purple_Plus_Stripes_2.jpg,Blue_Circle_Stripes_4.jpg,Green_Triangle_Dots_2.jpg,right,105.7300000002142,false,low,false
d7Mowim2,33ixyhizc8v0km0rv7j1cbq82t9e2g,3bwi6rsp7km9t7vrsl5yxm38pzoe78,d7Mowim2,2020-0188,2020-11-15,00:50:01,01:21:04,NA,incomplete,63,filling,1,left,Purple_Plus_Chess_4.jpg,Green_Triangle_Chess_3.jpg,Blue_Star_Grid_4.jpg,right,169.07999999960884,false,low,false
d7Mowim2,33ixyhizc8v0km0rv7j1cbq82t9e2g,3bwi6rsp7km9t7vrsl5yxm38pzoe78,d7Mowim2,2020-0188,2020-11-15,00:50:01,01:21:04,NA,incomplete,64,filling,1,right,Red_Circle_Chess_4.jpg,Blue_Plus_Dots_4.jpg,Green_Star_Chess_2.jpg,right,388.44500000053085,true,low,false
d7Mowim2,33ixyhizc8v0km0rv7j1cbq82t9e2g,3bwi6rsp7km9t7vrsl5yxm38pzoe78,d7Mowim2,2020-0188,2020-11-15,00:50:01,01:21:04,NA,incomplete,65,filling,1,left,Blue_Plus_Dots_4.jpg,Green_Circle_Dots_1.jpg,Purple_Triangle_Stripes_4.jpg,right,645.9049999993294,false,low,false
d7Mowim2,33ixyhizc8v0km0rv7j1cbq82t9e2g,3bwi6rsp7km9t7vrsl5yxm38pzoe78,d7Mowim2,2020-0188,2020-11-15,00:50:01,01:21:04,NA,incomplete,66,filling,1,left,Blue_Triangle_Chess_1.jpg,Green_Star_Chess_4.jpg,Purple_Plus_Dots_1.jpg,right,1711.420000000624,false,low,false
d7Mowim2,33ixyhizc8v0km0rv7j1cbq82t9e2g,3bwi6rsp7km9t7vrsl5yxm38pzoe78,d7Mowim2,2020-0188,2020-11-15,00:50:01,01:21:04,NA,incomplete,67,filling,1,left,Green_Triangle_Dots_3.jpg,Purple_Star_Dots_1.jpg,Blue_Circle_Grid_3.jpg,right,427.7650000003632,false,low,false
d7Mowim2,33ixyhizc8v0km0rv7j1cbq82t9e2g,3bwi6rsp7km9t7vrsl5yxm38pzoe78,d7Mowim2,2020-0188,2020-11-15,00:50:01,01:21:04,NA,incomplete,68,filling,1,right,Red_Circle_Dots_2.jpg,Blue_Star_Chess_2.jpg,Purple_Plus_Dots_1.jpg,left,53.40000000060536,false,low,false
d7Mowim2,33ixyhizc8v0km0rv7j1cbq82t9e2g,3bwi6rsp7km9t7vrsl5yxm38pzoe78,d7Mowim2,2020-0188,2020-11-15,00:50:01,01:21:04,NA,incomplete,69,filling,1,right,Green_Triangle_Dots_4.jpg,Purple_Star_Chess_4.jpg,Red_Plus_Dots_1.jpg,right,341.23999999975786,true,low,false
d7Mowim2,33ixyhizc8v0km0rv7j1cbq82t9e2g,3bwi6rsp7km9t7vrsl5yxm38pzoe78,d7Mowim2,2020-0188,2020-11-15,00:50:01,01:21:04,NA,incomplete,70,filling,0,right,Purple_Circle_Stripes_1.jpg,Blue_Star_Dots_1.jpg,Green_Triangle_Stripes_4.jpg,left,411.1650000005029,false,low,false
d7Mowim2,33ixyhizc8v0km0rv7j1cbq82t9e2g,3bwi6rsp7km9t7vrsl5yxm38pzoe78,d7Mowim2,2020-0188,2020-11-15,00:50:01,01:21:04,NA,incomplete,71,filling,1,left,Blue_Plus_Grid_2.jpg,Red_Circle_Grid_3.jpg,Purple_Triangle_Dots_2.jpg,right,924.4950000001118,false,low,false
d7Mowim2,33ixyhizc8v0km0rv7j1cbq82t9e2g,3bwi6rsp7km9t7vrsl5yxm38pzoe78,d7Mowim2,2020-0188,2020-11-15,00:50:01,01:21:04,NA,incomplete,72,filling,1,left,Blue_Plus_Stripes_1.jpg,Green_Triangle_Stripes_4.jpg,Red_Circle_Chess_1.jpg,right,1482.0299999990966,false,low,false
d7Mowim2,33ixyhizc8v0km0rv7j1cbq82t9e2g,3bwi6rsp7km9t7vrsl5yxm38pzoe78,d7Mowim2,2020-0188,2020-11-15,00:50:01,01:21:04,NA,incomplete,73,filling,0,right,Red_Plus_Stripes_1.jpg,Blue_Triangle_Chess_1.jpg,Green_Circle_Stripes_4.jpg,none,0,false,low,false
d7Mowim2,33ixyhizc8v0km0rv7j1cbq82t9e2g,3bwi6rsp7km9t7vrsl5yxm38pzoe78,d7Mowim2,2020-0188,2020-11-15,00:50:01,01:21:04,NA,incomplete,74,filling,1,right,Blue_Plus_Stripes_4.jpg,Green_Star_Grid_4.jpg,Red_Circle_Stripes_2.jpg,right,347.6550000004936,true,low,false
d7Mowim2,33ixyhizc8v0km0rv7j1cbq82t9e2g,3bwi6rsp7km9t7vrsl5yxm38pzoe78,d7Mowim2,2020-0188,2020-11-15,00:50:01,01:21:04,NA,incomplete,75,filling,1,right,Red_Star_Grid_1.jpg,Blue_Circle_Stripes_1.jpg,Green_Triangle_Grid_3.jpg,none,0,false,low,false
d7Mowim2,33ixyhizc8v0km0rv7j1cbq82t9e2g,3bwi6rsp7km9t7vrsl5yxm38pzoe78,d7Mowim2,2020-0188,2020-11-15,00:50:01,01:21:04,NA,incomplete,76,filling,0,right,Red_Circle_Stripes_3.jpg,Green_Plus_Chess_3.jpg,Purple_Star_Stripes_2.jpg,left,514.0650000004098,false,low,false
d7Mowim2,33ixyhizc8v0km0rv7j1cbq82t9e2g,3bwi6rsp7km9t7vrsl5yxm38pzoe78,d7Mowim2,2020-0188,2020-11-15,00:50:01,01:21:04,NA,incomplete,77,filling,1,right,Blue_Triangle_Grid_4.jpg,Purple_Star_Chess_4.jpg,Green_Plus_Grid_2.jpg,right,20.169999999692664,true,low,false
d7Mowim2,33ixyhizc8v0km0rv7j1cbq82t9e2g,3bwi6rsp7km9t7vrsl5yxm38pzoe78,d7Mowim2,2020-0188,2020-11-15,00:50:01,01:21:04,NA,incomplete,78,filling,1,right,Purple_Circle_Dots_3.jpg,Red_Plus_Stripes_3.jpg,Green_Triangle_Dots_1.jpg,left,433.37499999953434,false,low,false
d7Mowim2,33ixyhizc8v0km0rv7j1cbq82t9e2g,3bwi6rsp7km9t7vrsl5yxm38pzoe78,d7Mowim2,2020-0188,2020-11-15,00:50:01,01:21:04,NA,incomplete,79,filling,1,right,Green_Star_Chess_3.jpg,Red_Triangle_Stripes_3.jpg,Purple_Plus_Chess_1.jpg,none,0,false,low,false
d7Mowim2,33ixyhizc8v0km0rv7j1cbq82t9e2g,3bwi6rsp7km9t7vrsl5yxm38pzoe78,d7Mowim2,2020-0188,2020-11-15,00:50:01,01:21:04,NA,incomplete,80,filling,1,right,Green_Plus_Stripes_2.jpg,Blue_Circle_Dots_2.jpg,Purple_Triangle_Stripes_3.jpg,left,450.77000000025146,false,low,false
d7Mowim2,33ixyhizc8v0km0rv7j1cbq82t9e2g,3bwi6rsp7km9t7vrsl5yxm38pzoe78,d7Mowim2,2020-0188,2020-11-15,00:50:01,01:21:04,NA,incomplete,81,filling,0,left,Blue_Plus_Dots_2.jpg,Red_Triangle_Dots_4.jpg,Green_Star_Grid_2.jpg,none,0,false,low,false
d7Mowim2,33ixyhizc8v0km0rv7j1cbq82t9e2g,3bwi6rsp7km9t7vrsl5yxm38pzoe78,d7Mowim2,2020-0188,2020-11-15,00:50:01,01:21:04,NA,incomplete,82,filling,1,left,Red_Plus_Chess_1.jpg,Blue_Triangle_Chess_2.jpg,Purple_Circle_Stripes_1.jpg,right,24.345000000903383,false,low,false
d7Mowim2,33ixyhizc8v0km0rv7j1cbq82t9e2g,3bwi6rsp7km9t7vrsl5yxm38pzoe78,d7Mowim2,2020-0188,2020-11-15,00:50:01,01:21:04,NA,incomplete,83,filling,1,right,Purple_Circle_Grid_1.jpg,Red_Triangle_Stripes_1.jpg,Green_Plus_Grid_3.jpg,left,418.32999999960884,false,low,false
d7Mowim2,33ixyhizc8v0km0rv7j1cbq82t9e2g,3bwi6rsp7km9t7vrsl5yxm38pzoe78,d7Mowim2,2020-0188,2020-11-15,00:50:01,01:21:04,NA,incomplete,84,filling,1,right,Purple_Triangle_Chess_4.jpg,Blue_Circle_Dots_4.jpg,Red_Plus_Chess_3.jpg,right,84.68499999982305,true,low,false
d7Mowim2,33ixyhizc8v0km0rv7j1cbq82t9e2g,3bwi6rsp7km9t7vrsl5yxm38pzoe78,d7Mowim2,2020-0188,2020-11-15,00:50:01,01:21:04,NA,incomplete,85,filling,1,left,Red_Plus_Chess_3.jpg,Green_Star_Chess_2.jpg,Purple_Triangle_Grid_3.jpg,none,0,false,low,false
d7Mowim2,33ixyhizc8v0km0rv7j1cbq82t9e2g,3bwi6rsp7km9t7vrsl5yxm38pzoe78,d7Mowim2,2020-0188,2020-11-15,00:50:01,01:21:04,NA,incomplete,86,filling,0,right,Blue_Plus_Dots_1.jpg,Purple_Star_Grid_1.jpg,Green_Circle_Dots_4.jpg,left,566.5850000004284,false,low,false
d7Mowim2,33ixyhizc8v0km0rv7j1cbq82t9e2g,3bwi6rsp7km9t7vrsl5yxm38pzoe78,d7Mowim2,2020-0188,2020-11-15,00:50:01,01:21:04,NA,incomplete,87,filling,1,left,Green_Triangle_Grid_3.jpg,Purple_Star_Grid_2.jpg,Red_Plus_Stripes_3.jpg,left,1251.9099999999162,true,low,false
d7Mowim2,33ixyhizc8v0km0rv7j1cbq82t9e2g,3bwi6rsp7km9t7vrsl5yxm38pzoe78,d7Mowim2,2020-0188,2020-11-15,00:50:01,01:21:04,NA,incomplete,88,filling,1,left,Green_Circle_Dots_3.jpg,Purple_Star_Dots_2.jpg,Red_Plus_Grid_3.jpg,none,0,false,low,false
d7Mowim2,33ixyhizc8v0km0rv7j1cbq82t9e2g,3bwi6rsp7km9t7vrsl5yxm38pzoe78,d7Mowim2,2020-0188,2020-11-15,00:50:01,01:21:04,NA,incomplete,89,filling,1,right,Blue_Circle_Grid_1.jpg,Purple_Triangle_Chess_1.jpg,Red_Plus_Grid_2.jpg,right,797.4350000002887,true,low,false
d7Mowim2,33ixyhizc8v0km0rv7j1cbq82t9e2g,3bwi6rsp7km9t7vrsl5yxm38pzoe78,d7Mowim2,2020-0188,2020-11-15,00:50:01,01:21:04,NA,incomplete,90,number,0,right,Green_Star_Grid_1.jpg,Red_Plus_Grid_4.jpg,Blue_Circle_Stripes_1.jpg,left,321.4200000001583,false,low,false
d7Mowim2,33ixyhizc8v0km0rv7j1cbq82t9e2g,3bwi6rsp7km9t7vrsl5yxm38pzoe78,d7Mowim2,2020-0188,2020-11-15,00:50:01,01:21:04,NA,incomplete,91,number,1,right,Red_Circle_Dots_3.jpg,Blue_Star_Dots_2.jpg,Purple_Plus_Chess_3.jpg,right,822.5449999999255,true,low,false
d7Mowim2,33ixyhizc8v0km0rv7j1cbq82t9e2g,3bwi6rsp7km9t7vrsl5yxm38pzoe78,d7Mowim2,2020-0188,2020-11-15,00:50:01,01:21:04,NA,incomplete,92,number,1,left,Green_Star_Stripes_1.jpg,Purple_Plus_Grid_1.jpg,Red_Circle_Stripes_2.jpg,left,526.6400000001304,true,low,false
d7Mowim2,33ixyhizc8v0km0rv7j1cbq82t9e2g,3bwi6rsp7km9t7vrsl5yxm38pzoe78,d7Mowim2,2020-0188,2020-11-15,00:50:01,01:21:04,NA,incomplete,93,number,1,left,Red_Plus_Grid_3.jpg,Purple_Triangle_Chess_3.jpg,Blue_Circle_Grid_2.jpg,right,299.7949999999255,false,low,false
d7Mowim2,33ixyhizc8v0km0rv7j1cbq82t9e2g,3bwi6rsp7km9t7vrsl5yxm38pzoe78,d7Mowim2,2020-0188,2020-11-15,00:50:01,01:21:04,NA,incomplete,94,number,1,right,Green_Triangle_Chess_4.jpg,Purple_Plus_Chess_2.jpg,Red_Circle_Grid_4.jpg,right,338.64999999990687,true,low,false
d7Mowim2,33ixyhizc8v0km0rv7j1cbq82t9e2g,3bwi6rsp7km9t7vrsl5yxm38pzoe78,d7Mowim2,2020-0188,2020-11-15,00:50:01,01:21:04,NA,incomplete,95,number,1,left,Red_Star_Chess_4.jpg,Blue_Circle_Grid_4.jpg,Purple_Plus_Chess_1.jpg,right,327.80000000004657,false,low,false
d7Mowim2,33ixyhizc8v0km0rv7j1cbq82t9e2g,3bwi6rsp7km9t7vrsl5yxm38pzoe78,d7Mowim2,2020-0188,2020-11-15,00:50:01,01:21:04,NA,incomplete,96,number,0,left,Green_Plus_Grid_4.jpg,Red_Circle_Chess_4.jpg,Purple_Triangle_Grid_3.jpg,right,62.139999999897555,false,low,false
d7Mowim2,33ixyhizc8v0km0rv7j1cbq82t9e2g,3bwi6rsp7km9t7vrsl5yxm38pzoe78,d7Mowim2,2020-0188,2020-11-15,00:50:01,01:21:04,NA,incomplete,97,number,1,left,Purple_Star_Chess_2.jpg,Red_Circle_Dots_2.jpg,Blue_Triangle_Chess_4.jpg,right,110.15499999932945,false,low,false
d7Mowim2,33ixyhizc8v0km0rv7j1cbq82t9e2g,3bwi6rsp7km9t7vrsl5yxm38pzoe78,d7Mowim2,2020-0188,2020-11-15,00:50:01,01:21:04,NA,incomplete,98,number,0,right,Purple_Star_Stripes_4.jpg,Blue_Plus_Stripes_3.jpg,Green_Triangle_Chess_4.jpg,left,83.81000000005588,false,low,false
d7Mowim2,33ixyhizc8v0km0rv7j1cbq82t9e2g,3bwi6rsp7km9t7vrsl5yxm38pzoe78,d7Mowim2,2020-0188,2020-11-15,00:50:01,01:21:04,NA,incomplete,99,number,1,right,Green_Circle_Dots_4.jpg,Blue_Triangle_Dots_3.jpg,Red_Plus_Stripes_4.jpg,right,107.55000000051223,true,low,false
d7Mowim2,33ixyhizc8v0km0rv7j1cbq82t9e2g,3bwi6rsp7km9t7vrsl5yxm38pzoe78,d7Mowim2,2020-0188,2020-11-15,00:50:01,01:21:04,NA,incomplete,100,number,0,left,Red_Triangle_Grid_4.jpg,Purple_Plus_Chess_4.jpg,Green_Star_Grid_3.jpg,left,1.694999999832362,true,low,false
d7Mowim2,33ixyhizc8v0km0rv7j1cbq82t9e2g,3bwi6rsp7km9t7vrsl5yxm38pzoe78,d7Mowim2,2020-0188,2020-11-15,00:50:01,01:21:04,NA,incomplete,101,number,0,right,Blue_Circle_Grid_3.jpg,Red_Triangle_Grid_2.jpg,Green_Star_Stripes_3.jpg,right,356.40499999932945,true,low,false
d7Mowim2,33ixyhizc8v0km0rv7j1cbq82t9e2g,3bwi6rsp7km9t7vrsl5yxm38pzoe78,d7Mowim2,2020-0188,2020-11-15,00:50:01,01:21:04,NA,incomplete,102,number,1,right,Red_Triangle_Stripes_2.jpg,Purple_Star_Stripes_3.jpg,Green_Circle_Dots_2.jpg,right,384.5900000005495,true,low,false
d7Mowim2,33ixyhizc8v0km0rv7j1cbq82t9e2g,3bwi6rsp7km9t7vrsl5yxm38pzoe78,d7Mowim2,2020-0188,2020-11-15,00:50:01,01:21:04,NA,incomplete,103,number,0,right,Purple_Star_Chess_3.jpg,Red_Circle_Chess_2.jpg,Blue_Plus_Grid_3.jpg,right,59.15499999979511,true,low,false
d7Mowim2,33ixyhizc8v0km0rv7j1cbq82t9e2g,3bwi6rsp7km9t7vrsl5yxm38pzoe78,d7Mowim2,2020-0188,2020-11-15,00:50:01,01:21:04,NA,incomplete,104,number,1,left,Green_Star_Stripes_2.jpg,Red_Triangle_Dots_2.jpg,Blue_Circle_Stripes_4.jpg,right,555.0950000006706,false,low,false
d7Mowim2,33ixyhizc8v0km0rv7j1cbq82t9e2g,3bwi6rsp7km9t7vrsl5yxm38pzoe78,d7Mowim2,2020-0188,2020-11-15,00:50:01,01:21:04,NA,incomplete,105,number,1,left,Red_Plus_Grid_1.jpg,Blue_Triangle_Stripes_1.jpg,Green_Circle_Grid_4.jpg,left,367.75000000023283,true,low,false
d7Mowim2,33ixyhizc8v0km0rv7j1cbq82t9e2g,3bwi6rsp7km9t7vrsl5yxm38pzoe78,d7Mowim2,2020-0188,2020-11-15,00:50:01,01:21:04,NA,incomplete,106,number,1,left,Blue_Plus_Dots_1.jpg,Purple_Star_Stripes_1.jpg,Red_Circle_Dots_2.jpg,left,19.890000000363216,true,low,false
d7Mowim2,33ixyhizc8v0km0rv7j1cbq82t9e2g,3bwi6rsp7km9t7vrsl5yxm38pzoe78,d7Mowim2,2020-0188,2020-11-15,00:50:01,01:21:04,NA,incomplete,107,number,1,left,Green_Star_Stripes_3.jpg,Blue_Triangle_Chess_3.jpg,Red_Circle_Stripes_1.jpg,right,1876.4149999995716,false,low,false
d7Mowim2,33ixyhizc8v0km0rv7j1cbq82t9e2g,3bwi6rsp7km9t7vrsl5yxm38pzoe78,d7Mowim2,2020-0188,2020-11-15,00:50:01,01:21:04,NA,incomplete,108,number,0,left,Green_Star_Grid_2.jpg,Purple_Plus_Stripes_2.jpg,Blue_Circle_Grid_4.jpg,right,1091.45999999973,false,low,false
d7Mowim2,33ixyhizc8v0km0rv7j1cbq82t9e2g,3bwi6rsp7km9t7vrsl5yxm38pzoe78,d7Mowim2,2020-0188,2020-11-15,00:50:01,01:21:04,NA,incomplete,109,number,1,right,Green_Star_Grid_2.jpg,Red_Plus_Grid_1.jpg,Purple_Circle_Chess_2.jpg,right,306.05999999982305,true,low,false
d7Mowim2,33ixyhizc8v0km0rv7j1cbq82t9e2g,3bwi6rsp7km9t7vrsl5yxm38pzoe78,d7Mowim2,2020-0188,2020-11-15,00:50:01,01:21:04,NA,incomplete,110,number,1,right,Red_Circle_Stripes_3.jpg,Blue_Triangle_Stripes_4.jpg,Purple_Star_Dots_3.jpg,right,54.98500000056811,true,low,false
d7Mowim2,33ixyhizc8v0km0rv7j1cbq82t9e2g,3bwi6rsp7km9t7vrsl5yxm38pzoe78,d7Mowim2,2020-0188,2020-11-15,00:50:01,01:21:04,NA,incomplete,111,number,1,left,Blue_Star_Chess_1.jpg,Green_Plus_Grid_1.jpg,Red_Triangle_Chess_3.jpg,right,8.270000000251457,false,low,false
d7Mowim2,33ixyhizc8v0km0rv7j1cbq82t9e2g,3bwi6rsp7km9t7vrsl5yxm38pzoe78,d7Mowim2,2020-0188,2020-11-15,00:50:01,01:21:04,NA,incomplete,112,number,1,right,Green_Circle_Dots_2.jpg,Blue_Triangle_Dots_4.jpg,Purple_Plus_Grid_2.jpg,left,42.78000000072643,false,low,false
d7Mowim2,33ixyhizc8v0km0rv7j1cbq82t9e2g,3bwi6rsp7km9t7vrsl5yxm38pzoe78,d7Mowim2,2020-0188,2020-11-15,00:50:01,01:21:04,NA,incomplete,113,number,1,right,Red_Circle_Chess_3.jpg,Blue_Plus_Chess_4.jpg,Purple_Star_Dots_3.jpg,right,91.54500000039116,true,low,false
d7Mowim2,33ixyhizc8v0km0rv7j1cbq82t9e2g,3bwi6rsp7km9t7vrsl5yxm38pzoe78,d7Mowim2,2020-0188,2020-11-15,00:50:01,01:21:04,NA,incomplete,114,number,1,left,Red_Plus_Stripes_4.jpg,Blue_Circle_Grid_4.jpg,Purple_Triangle_Stripes_1.jpg,right,34.88500000000931,false,low,false
d7Mowim2,33ixyhizc8v0km0rv7j1cbq82t9e2g,3bwi6rsp7km9t7vrsl5yxm38pzoe78,d7Mowim2,2020-0188,2020-11-15,00:50:01,01:21:04,NA,incomplete,115,number,1,left,Purple_Circle_Stripes_2.jpg,Blue_Triangle_Chess_2.jpg,Green_Star_Stripes_4.jpg,right,131.46500000054948,false,low,false
d7Mowim2,33ixyhizc8v0km0rv7j1cbq82t9e2g,3bwi6rsp7km9t7vrsl5yxm38pzoe78,d7Mowim2,2020-0188,2020-11-15,00:50:01,01:21:04,NA,incomplete,116,number,1,right,Blue_Plus_Dots_4.jpg,Purple_Triangle_Dots_1.jpg,Red_Circle_Stripes_4.jpg,left,97.73999999999069,false,low,false
d7Mowim2,33ixyhizc8v0km0rv7j1cbq82t9e2g,3bwi6rsp7km9t7vrsl5yxm38pzoe78,d7Mowim2,2020-0188,2020-11-15,00:50:01,01:21:04,NA,incomplete,117,number,1,right,Blue_Circle_Dots_4.jpg,Red_Plus_Dots_3.jpg,Purple_Triangle_Stripes_4.jpg,right,352.67000000039116,true,low,false
d7Mowim2,33ixyhizc8v0km0rv7j1cbq82t9e2g,3bwi6rsp7km9t7vrsl5yxm38pzoe78,d7Mowim2,2020-0188,2020-11-15,00:50:01,01:21:04,NA,incomplete,118,number,1,right,Blue_Circle_Grid_2.jpg,Red_Plus_Grid_1.jpg,Purple_Triangle_Dots_2.jpg,right,204.06000000005588,true,low,false
d7Mowim2,33ixyhizc8v0km0rv7j1cbq82t9e2g,3bwi6rsp7km9t7vrsl5yxm38pzoe78,d7Mowim2,2020-0188,2020-11-15,00:50:01,01:21:04,NA,incomplete,119,number,1,right,Purple_Triangle_Grid_2.jpg,Red_Star_Grid_1.jpg,Green_Circle_Chess_2.jpg,left,86.19499999983236,false,low,false
d7Mowim2,33ixyhizc8v0km0rv7j1cbq82t9e2g,3bwi6rsp7km9t7vrsl5yxm38pzoe78,d7Mowim2,2020-0188,2020-11-15,00:50:01,01:21:04,NA,incomplete,120,filling,0,left,Red_Circle_Grid_2.jpg,Green_Star_Grid_3.jpg,Purple_Triangle_Dots_2.jpg,left,661.7300000006799,true,low,false
d7Mowim2,33ixyhizc8v0km0rv7j1cbq82t9e2g,3bwi6rsp7km9t7vrsl5yxm38pzoe78,d7Mowim2,2020-0188,2020-11-15,00:50:01,01:21:04,NA,incomplete,121,filling,1,left,Green_Plus_Dots_4.jpg,Purple_Circle_Dots_2.jpg,Blue_Triangle_Stripes_4.jpg,right,109.55499999993481,false,low,false
d7Mowim2,33ixyhizc8v0km0rv7j1cbq82t9e2g,3bwi6rsp7km9t7vrsl5yxm38pzoe78,d7Mowim2,2020-0188,2020-11-15,00:50:01,01:21:04,NA,incomplete,122,filling,1,left,Purple_Star_Grid_1.jpg,Green_Plus_Grid_2.jpg,Red_Triangle_Dots_1.jpg,left,196.32999999984168,true,low,false
d7Mowim2,33ixyhizc8v0km0rv7j1cbq82t9e2g,3bwi6rsp7km9t7vrsl5yxm38pzoe78,d7Mowim2,2020-0188,2020-11-15,00:50:01,01:21:04,NA,incomplete,123,filling,1,right,Purple_Star_Stripes_3.jpg,Blue_Plus_Chess_3.jpg,Red_Triangle_Stripes_4.jpg,right,999.9500000004191,true,low,false
d7Mowim2,33ixyhizc8v0km0rv7j1cbq82t9e2g,3bwi6rsp7km9t7vrsl5yxm38pzoe78,d7Mowim2,2020-0188,2020-11-15,00:50:01,01:21:04,NA,incomplete,124,filling,1,left,Red_Star_Grid_3.jpg,Blue_Circle_Grid_1.jpg,Purple_Triangle_Chess_3.jpg,left,720.5100000000093,true,low,false
d7Mowim2,33ixyhizc8v0km0rv7j1cbq82t9e2g,3bwi6rsp7km9t7vrsl5yxm38pzoe78,d7Mowim2,2020-0188,2020-11-15,00:50:01,01:21:04,NA,incomplete,125,filling,1,left,Purple_Triangle_Grid_2.jpg,Blue_Plus_Grid_4.jpg,Green_Star_Dots_2.jpg,left,430.7799999995623,true,low,false
d7Mowim2,33ixyhizc8v0km0rv7j1cbq82t9e2g,3bwi6rsp7km9t7vrsl5yxm38pzoe78,d7Mowim2,2020-0188,2020-11-15,00:50:01,01:21:04,NA,incomplete,126,filling,0,left,Purple_Star_Stripes_1.jpg,Red_Plus_Stripes_3.jpg,Blue_Triangle_Dots_1.jpg,none,0,false,low,false
d7Mowim2,33ixyhizc8v0km0rv7j1cbq82t9e2g,3bwi6rsp7km9t7vrsl5yxm38pzoe78,d7Mowim2,2020-0188,2020-11-15,00:50:01,01:21:04,NA,incomplete,127,filling,1,right,Red_Triangle_Chess_3.jpg,Purple_Circle_Grid_3.jpg,Green_Star_Chess_2.jpg,right,734.7900000002701,true,low,false
d7Mowim2,33ixyhizc8v0km0rv7j1cbq82t9e2g,3bwi6rsp7km9t7vrsl5yxm38pzoe78,d7Mowim2,2020-0188,2020-11-15,00:50:01,01:21:04,NA,incomplete,128,filling,1,right,Green_Star_Stripes_2.jpg,Blue_Plus_Dots_2.jpg,Red_Circle_Stripes_1.jpg,right,859.2650000001304,true,low,false
d7Mowim2,33ixyhizc8v0km0rv7j1cbq82t9e2g,3bwi6rsp7km9t7vrsl5yxm38pzoe78,d7Mowim2,2020-0188,2020-11-15,00:50:01,01:21:04,NA,incomplete,129,filling,1,right,Purple_Star_Stripes_2.jpg,Red_Plus_Grid_2.jpg,Blue_Circle_Stripes_1.jpg,left,587.1550000002608,false,low,false
d7Mowim2,33ixyhizc8v0km0rv7j1cbq82t9e2g,3bwi6rsp7km9t7vrsl5yxm38pzoe78,d7Mowim2,2020-0188,2020-11-15,00:50:01,01:21:04,NA,incomplete,130,filling,0,right,Purple_Plus_Grid_3.jpg,Red_Circle_Dots_3.jpg,Blue_Star_Grid_2.jpg,right,1486.3300000005402,true,low,false
d7Mowim2,33ixyhizc8v0km0rv7j1cbq82t9e2g,3bwi6rsp7km9t7vrsl5yxm38pzoe78,d7Mowim2,2020-0188,2020-11-15,00:50:01,01:21:04,NA,incomplete,131,filling,1,right,Green_Plus_Stripes_3.jpg,Red_Circle_Dots_3.jpg,Blue_Star_Stripes_2.jpg,none,0,false,low,false
d7Mowim2,33ixyhizc8v0km0rv7j1cbq82t9e2g,3bwi6rsp7km9t7vrsl5yxm38pzoe78,d7Mowim2,2020-0188,2020-11-15,00:50:01,01:21:04,NA,incomplete,132,filling,1,left,Green_Star_Dots_4.jpg,Red_Circle_Dots_1.jpg,Purple_Triangle_Grid_4.jpg,left,571.0349999999162,true,low,false
d7Mowim2,33ixyhizc8v0km0rv7j1cbq82t9e2g,3bwi6rsp7km9t7vrsl5yxm38pzoe78,d7Mowim2,2020-0188,2020-11-15,00:50:01,01:21:04,NA,incomplete,133,filling,1,right,Green_Star_Chess_3.jpg,Purple_Plus_Stripes_3.jpg,Blue_Triangle_Chess_4.jpg,right,84.13500000000931,true,low,false
d7Mowim2,33ixyhizc8v0km0rv7j1cbq82t9e2g,3bwi6rsp7km9t7vrsl5yxm38pzoe78,d7Mowim2,2020-0188,2020-11-15,00:50:01,01:21:04,NA,incomplete,134,filling,0,right,Blue_Plus_Dots_4.jpg,Red_Circle_Stripes_4.jpg,Purple_Star_Dots_1.jpg,right,99.41500000050291,true,low,false
d7Mowim2,33ixyhizc8v0km0rv7j1cbq82t9e2g,3bwi6rsp7km9t7vrsl5yxm38pzoe78,d7Mowim2,2020-0188,2020-11-15,00:50:01,01:21:04,NA,incomplete,135,filling,1,right,Red_Circle_Stripes_1.jpg,Blue_Star_Dots_1.jpg,Purple_Plus_Stripes_3.jpg,left,451.76499999989755,false,low,false
d7Mowim2,33ixyhizc8v0km0rv7j1cbq82t9e2g,3bwi6rsp7km9t7vrsl5yxm38pzoe78,d7Mowim2,2020-0188,2020-11-15,00:50:01,01:21:04,NA,incomplete,136,filling,1,left,Green_Plus_Stripes_2.jpg,Purple_Circle_Stripes_1.jpg,Red_Triangle_Chess_2.jpg,right,50.71499999938533,false,low,false
d7Mowim2,33ixyhizc8v0km0rv7j1cbq82t9e2g,3bwi6rsp7km9t7vrsl5yxm38pzoe78,d7Mowim2,2020-0188,2020-11-15,00:50:01,01:21:04,NA,incomplete,137,filling,0,left,Purple_Triangle_Dots_1.jpg,Green_Circle_Dots_2.jpg,Blue_Star_Grid_1.jpg,right,1612.6800000001676,false,low,false
d7Mowim2,33ixyhizc8v0km0rv7j1cbq82t9e2g,3bwi6rsp7km9t7vrsl5yxm38pzoe78,d7Mowim2,2020-0188,2020-11-15,00:50:01,01:21:04,NA,incomplete,138,filling,1,left,Blue_Plus_Grid_1.jpg,Green_Star_Grid_3.jpg,Purple_Circle_Chess_1.jpg,right,380.4000000001397,false,low,false
d7Mowim2,33ixyhizc8v0km0rv7j1cbq82t9e2g,3bwi6rsp7km9t7vrsl5yxm38pzoe78,d7Mowim2,2020-0188,2020-11-15,00:50:01,01:21:04,NA,incomplete,139,filling,1,right,Green_Star_Chess_1.jpg,Purple_Plus_Grid_1.jpg,Blue_Triangle_Chess_2.jpg,right,353.70499999960884,true,low,false
d7Mowim2,33ixyhizc8v0km0rv7j1cbq82t9e2g,3bwi6rsp7km9t7vrsl5yxm38pzoe78,d7Mowim2,2020-0188,2020-11-15,00:50:01,01:21:04,NA,incomplete,140,number,1,right,Purple_Plus_Chess_4.jpg,Red_Star_Chess_1.jpg,Green_Triangle_Stripes_4.jpg,left,212.2799999997951,false,low,false
d7Mowim2,33ixyhizc8v0km0rv7j1cbq82t9e2g,3bwi6rsp7km9t7vrsl5yxm38pzoe78,d7Mowim2,2020-0188,2020-11-15,00:50:01,01:21:04,NA,incomplete,141,number,1,left,Blue_Star_Stripes_3.jpg,Red_Circle_Dots_3.jpg,Purple_Triangle_Stripes_2.jpg,right,1061.8799999991897,false,low,false
d7Mowim2,33ixyhizc8v0km0rv7j1cbq82t9e2g,3bwi6rsp7km9t7vrsl5yxm38pzoe78,d7Mowim2,2020-0188,2020-11-15,00:50:01,01:21:04,NA,incomplete,142,number,1,left,Blue_Plus_Stripes_1.jpg,Red_Star_Dots_1.jpg,Purple_Triangle_Stripes_4.jpg,none,0,false,low,false
d7Mowim2,33ixyhizc8v0km0rv7j1cbq82t9e2g,3bwi6rsp7km9t7vrsl5yxm38pzoe78,d7Mowim2,2020-0188,2020-11-15,00:50:01,01:21:04,NA,incomplete,143,number,1,right,Green_Triangle_Grid_4.jpg,Purple_Circle_Grid_1.jpg,Blue_Star_Stripes_4.jpg,none,0,false,low,false
d7Mowim2,33ixyhizc8v0km0rv7j1cbq82t9e2g,3bwi6rsp7km9t7vrsl5yxm38pzoe78,d7Mowim2,2020-0188,2020-11-15,00:50:01,01:21:04,NA,incomplete,144,number,0,right,Blue_Circle_Chess_2.jpg,Purple_Plus_Chess_4.jpg,Red_Triangle_Dots_2.jpg,left,1851.725000000326,false,low,false
d7Mowim2,33ixyhizc8v0km0rv7j1cbq82t9e2g,3bwi6rsp7km9t7vrsl5yxm38pzoe78,d7Mowim2,2020-0188,2020-11-15,00:50:01,01:21:04,NA,incomplete,145,number,1,left,Blue_Star_Grid_4.jpg,Red_Circle_Dots_4.jpg,Purple_Plus_Grid_2.jpg,right,395.6099999996368,false,low,false
d7Mowim2,33ixyhizc8v0km0rv7j1cbq82t9e2g,3bwi6rsp7km9t7vrsl5yxm38pzoe78,d7Mowim2,2020-0188,2020-11-15,00:50:01,01:21:04,NA,incomplete,146,number,1,right,Green_Triangle_Dots_3.jpg,Blue_Star_Dots_1.jpg,Purple_Plus_Grid_3.jpg,left,534.2449999998789,false,low,false
d7Mowim2,33ixyhizc8v0km0rv7j1cbq82t9e2g,3bwi6rsp7km9t7vrsl5yxm38pzoe78,d7Mowim2,2020-0188,2020-11-15,00:50:01,01:21:04,NA,incomplete,147,number,1,left,Green_Triangle_Stripes_2.jpg,Blue_Circle_Dots_2.jpg,Purple_Plus_Stripes_1.jpg,right,1819.3300000003073,false,low,false
d7Mowim2,33ixyhizc8v0km0rv7j1cbq82t9e2g,3bwi6rsp7km9t7vrsl5yxm38pzoe78,d7Mowim2,2020-0188,2020-11-15,00:50:01,01:21:04,NA,incomplete,148,number,1,left,Purple_Star_Dots_2.jpg,Green_Triangle_Grid_2.jpg,Blue_Plus_Dots_3.jpg,none,0,false,low,false
d7Mowim2,33ixyhizc8v0km0rv7j1cbq82t9e2g,3bwi6rsp7km9t7vrsl5yxm38pzoe78,d7Mowim2,2020-0188,2020-11-15,00:50:01,01:21:04,NA,incomplete,149,number,1,right,Purple_Circle_Stripes_1.jpg,Blue_Star_Stripes_4.jpg,Red_Triangle_Dots_1.jpg,left,497.3400000007823,false,low,false
d7Mowim2,33ixyhizc8v0km0rv7j1cbq82t9e2g,3bwi6rsp7km9t7vrsl5yxm38pzoe78,d7Mowim2,2020-0188,2020-11-15,00:50:01,01:21:04,NA,incomplete,150,number,0,left,Green_Star_Stripes_3.jpg,Blue_Plus_Chess_3.jpg,Purple_Triangle_Stripes_2.jpg,right,489.2199999995064,false,low,false
d7Mowim2,33ixyhizc8v0km0rv7j1cbq82t9e2g,3bwi6rsp7km9t7vrsl5yxm38pzoe78,d7Mowim2,2020-0188,2020-11-15,00:50:01,01:21:04,NA,incomplete,151,number,1,left,Purple_Circle_Grid_1.jpg,Green_Plus_Chess_1.jpg,Blue_Triangle_Grid_4.jpg,right,455.62500000046566,false,low,false
d7Mowim2,33ixyhizc8v0km0rv7j1cbq82t9e2g,3bwi6rsp7km9t7vrsl5yxm38pzoe78,d7Mowim2,2020-0188,2020-11-15,00:50:01,01:21:04,NA,incomplete,152,number,0,left,Red_Star_Chess_1.jpg,Blue_Circle_Grid_1.jpg,Purple_Plus_Chess_2.jpg,left,167.670000000624,true,low,false
d7Mowim2,33ixyhizc8v0km0rv7j1cbq82t9e2g,3bwi6rsp7km9t7vrsl5yxm38pzoe78,d7Mowim2,2020-0188,2020-11-15,00:50:01,01:21:04,NA,incomplete,153,number,1,right,Green_Circle_Grid_1.jpg,Red_Triangle_Grid_2.jpg,Blue_Plus_Dots_1.jpg,left,315.64999999967404,false,low,false
d7Mowim2,33ixyhizc8v0km0rv7j1cbq82t9e2g,3bwi6rsp7km9t7vrsl5yxm38pzoe78,d7Mowim2,2020-0188,2020-11-15,00:50:01,01:21:04,NA,incomplete,154,number,1,right,Purple_Plus_Grid_1.jpg,Green_Triangle_Grid_3.jpg,Blue_Star_Stripes_1.jpg,right,304.8300000000745,true,low,false
d7Mowim2,33ixyhizc8v0km0rv7j1cbq82t9e2g,3bwi6rsp7km9t7vrsl5yxm38pzoe78,d7Mowim2,2020-0188,2020-11-15,00:50:01,01:21:04,NA,incomplete,155,number,1,right,Blue_Triangle_Dots_1.jpg,Red_Plus_Dots_3.jpg,Purple_Star_Chess_1.jpg,right,480.4450000000652,true,low,false
d7Mowim2,33ixyhizc8v0km0rv7j1cbq82t9e2g,3bwi6rsp7km9t7vrsl5yxm38pzoe78,d7Mowim2,2020-0188,2020-11-15,00:50:01,01:21:04,NA,incomplete,156,number,1,right,Red_Triangle_Dots_4.jpg,Blue_Circle_Dots_3.jpg,Purple_Plus_Stripes_4.jpg,right,1005.1800000001676,true,low,false
d7Mowim2,33ixyhizc8v0km0rv7j1cbq82t9e2g,3bwi6rsp7km9t7vrsl5yxm38pzoe78,d7Mowim2,2020-0188,2020-11-15,00:50:01,01:21:04,NA,incomplete,157,number,1,left,Blue_Star_Grid_1.jpg,Purple_Circle_Chess_1.jpg,Red_Triangle_Grid_2.jpg,none,0,false,low,false
d7Mowim2,33ixyhizc8v0km0rv7j1cbq82t9e2g,3bwi6rsp7km9t7vrsl5yxm38pzoe78,d7Mowim2,2020-0188,2020-11-15,00:50:01,01:21:04,NA,incomplete,158,number,1,left,Blue_Star_Chess_4.jpg,Purple_Circle_Stripes_4.jpg,Green_Triangle_Chess_2.jpg,left,1289.4899999999907,true,low,false
d7Mowim2,33ixyhizc8v0km0rv7j1cbq82t9e2g,3bwi6rsp7km9t7vrsl5yxm38pzoe78,d7Mowim2,2020-0188,2020-11-15,00:50:01,01:21:04,NA,incomplete,159,number,0,left,Red_Plus_Chess_1.jpg,Purple_Circle_Grid_1.jpg,Blue_Star_Chess_3.jpg,right,606.9400000004098,false,low,false
d7Mowim2,33ixyhizc8v0km0rv7j1cbq82t9e2g,3bwi6rsp7km9t7vrsl5yxm38pzoe78,d7Mowim2,2020-0188,2020-11-15,00:50:01,01:21:04,NA,incomplete,160,filling,1,right,Blue_Plus_Chess_1.jpg,Purple_Star_Grid_1.jpg,Green_Circle_Chess_2.jpg,right,393.51999999955297,true,low,false
d7Mowim2,33ixyhizc8v0km0rv7j1cbq82t9e2g,3bwi6rsp7km9t7vrsl5yxm38pzoe78,d7Mowim2,2020-0188,2020-11-15,00:50:01,01:21:04,NA,incomplete,161,filling,1,left,Red_Circle_Stripes_4.jpg,Blue_Plus_Stripes_3.jpg,Purple_Triangle_Dots_4.jpg,right,484.88999999989755,false,low,false
d7Mowim2,33ixyhizc8v0km0rv7j1cbq82t9e2g,3bwi6rsp7km9t7vrsl5yxm38pzoe78,d7Mowim2,2020-0188,2020-11-15,00:50:01,01:21:04,NA,incomplete,162,filling,0,right,Red_Star_Dots_2.jpg,Purple_Plus_Stripes_2.jpg,Green_Circle_Dots_1.jpg,left,306.910000000149,false,low,false
d7Mowim2,33ixyhizc8v0km0rv7j1cbq82t9e2g,3bwi6rsp7km9t7vrsl5yxm38pzoe78,d7Mowim2,2020-0188,2020-11-15,00:50:01,01:21:04,NA,incomplete,163,filling,1,right,Red_Star_Chess_4.jpg,Blue_Circle_Dots_4.jpg,Green_Triangle_Chess_3.jpg,left,616.6649999995716,false,low,false
d7Mowim2,33ixyhizc8v0km0rv7j1cbq82t9e2g,3bwi6rsp7km9t7vrsl5yxm38pzoe78,d7Mowim2,2020-0188,2020-11-15,00:50:01,01:21:04,NA,incomplete,164,filling,0,left,Purple_Circle_Dots_2.jpg,Red_Star_Dots_4.jpg,Green_Plus_Grid_2.jpg,right,474.55000000004657,false,low,false
d7Mowim2,33ixyhizc8v0km0rv7j1cbq82t9e2g,3bwi6rsp7km9t7vrsl5yxm38pzoe78,d7Mowim2,2020-0188,2020-11-15,00:50:01,01:21:04,NA,incomplete,165,filling,1,left,Blue_Plus_Dots_3.jpg,Red_Star_Dots_2.jpg,Purple_Triangle_Grid_3.jpg,right,353.5849999997299,false,low,false
d7Mowim2,33ixyhizc8v0km0rv7j1cbq82t9e2g,3bwi6rsp7km9t7vrsl5yxm38pzoe78,d7Mowim2,2020-0188,2020-11-15,00:50:01,01:21:04,NA,incomplete,166,filling,0,left,Purple_Triangle_Dots_4.jpg,Blue_Circle_Dots_1.jpg,Red_Star_Grid_4.jpg,left,213.90999999945052,true,low,false
d7Mowim2,33ixyhizc8v0km0rv7j1cbq82t9e2g,3bwi6rsp7km9t7vrsl5yxm38pzoe78,d7Mowim2,2020-0188,2020-11-15,00:50:01,01:21:04,NA,incomplete,167,filling,1,left,Purple_Plus_Stripes_2.jpg,Green_Triangle_Stripes_4.jpg,Red_Star_Grid_2.jpg,right,352.1300000003539,false,low,false
d7Mowim2,33ixyhizc8v0km0rv7j1cbq82t9e2g,3bwi6rsp7km9t7vrsl5yxm38pzoe78,d7Mowim2,2020-0188,2020-11-15,00:50:01,01:21:04,NA,incomplete,168,filling,1,right,Green_Triangle_Grid_1.jpg,Red_Plus_Chess_1.jpg,Purple_Star_Grid_4.jpg,left,1342.5399999995716,false,low,false
d7Mowim2,33ixyhizc8v0km0rv7j1cbq82t9e2g,3bwi6rsp7km9t7vrsl5yxm38pzoe78,d7Mowim2,2020-0188,2020-11-15,00:50:01,01:21:04,NA,incomplete,169,filling,1,left,Blue_Star_Dots_2.jpg,Red_Circle_Dots_4.jpg,Purple_Triangle_Stripes_2.jpg,right,352.4749999998603,false,low,false
d7Mowim2,33ixyhizc8v0km0rv7j1cbq82t9e2g,3bwi6rsp7km9t7vrsl5yxm38pzoe78,d7Mowim2,2020-0188,2020-11-15,00:50:01,01:21:04,NA,incomplete,170,filling,1,left,Purple_Star_Stripes_3.jpg,Blue_Triangle_Stripes_2.jpg,Green_Plus_Chess_3.jpg,left,988.9750000000931,true,low,false
d7Mowim2,33ixyhizc8v0km0rv7j1cbq82t9e2g,3bwi6rsp7km9t7vrsl5yxm38pzoe78,d7Mowim2,2020-0188,2020-11-15,00:50:01,01:21:04,NA,incomplete,171,filling,1,left,Purple_Plus_Grid_1.jpg,Green_Circle_Grid_4.jpg,Blue_Triangle_Stripes_1.jpg,left,832.1400000003632,true,low,false
d7Mowim2,33ixyhizc8v0km0rv7j1cbq82t9e2g,3bwi6rsp7km9t7vrsl5yxm38pzoe78,d7Mowim2,2020-0188,2020-11-15,00:50:01,01:21:04,NA,incomplete,172,filling,1,right,Blue_Triangle_Chess_1.jpg,Red_Plus_Dots_1.jpg,Purple_Circle_Chess_4.jpg,left,351.92500000074506,false,low,false
d7Mowim2,33ixyhizc8v0km0rv7j1cbq82t9e2g,3bwi6rsp7km9t7vrsl5yxm38pzoe78,d7Mowim2,2020-0188,2020-11-15,00:50:01,01:21:04,NA,incomplete,173,filling,1,left,Blue_Plus_Grid_4.jpg,Red_Circle_Grid_3.jpg,Green_Triangle_Chess_4.jpg,left,804.269999999553,true,low,false
d7Mowim2,33ixyhizc8v0km0rv7j1cbq82t9e2g,3bwi6rsp7km9t7vrsl5yxm38pzoe78,d7Mowim2,2020-0188,2020-11-15,00:50:01,01:21:04,NA,incomplete,174,filling,1,right,Purple_Circle_Chess_2.jpg,Red_Triangle_Dots_2.jpg,Blue_Star_Chess_1.jpg,right,326.6450000000186,true,low,false
d7Mowim2,33ixyhizc8v0km0rv7j1cbq82t9e2g,3bwi6rsp7km9t7vrsl5yxm38pzoe78,d7Mowim2,2020-0188,2020-11-15,00:50:01,01:21:04,NA,incomplete,175,filling,1,left,Red_Triangle_Dots_3.jpg,Blue_Plus_Dots_2.jpg,Purple_Circle_Stripes_3.jpg,left,306.85500000067987,true,low,false
d7Mowim2,33ixyhizc8v0km0rv7j1cbq82t9e2g,3bwi6rsp7km9t7vrsl5yxm38pzoe78,d7Mowim2,2020-0188,2020-11-15,00:50:01,01:21:04,NA,incomplete,176,filling,1,right,Red_Triangle_Dots_4.jpg,Green_Plus_Stripes_4.jpg,Purple_Circle_Dots_2.jpg,right,281.27000000025146,true,low,false
d7Mowim2,33ixyhizc8v0km0rv7j1cbq82t9e2g,3bwi6rsp7km9t7vrsl5yxm38pzoe78,d7Mowim2,2020-0188,2020-11-15,00:50:01,01:21:04,NA,incomplete,177,filling,1,right,Blue_Plus_Dots_2.jpg,Purple_Triangle_Stripes_2.jpg,Red_Circle_Dots_1.jpg,left,328.7199999995064,false,low,false
d7Mowim2,33ixyhizc8v0km0rv7j1cbq82t9e2g,3bwi6rsp7km9t7vrsl5yxm38pzoe78,d7Mowim2,2020-0188,2020-11-15,00:50:01,01:21:04,NA,incomplete,178,filling,1,left,Blue_Circle_Dots_1.jpg,Purple_Triangle_Dots_4.jpg,Green_Star_Chess_1.jpg,right,126.83999999985099,false,low,false
d7Mowim2,33ixyhizc8v0km0rv7j1cbq82t9e2g,3bwi6rsp7km9t7vrsl5yxm38pzoe78,d7Mowim2,2020-0188,2020-11-15,00:50:01,01:21:04,NA,incomplete,179,filling,1,right,Purple_Circle_Stripes_3.jpg,Blue_Triangle_Chess_3.jpg,Red_Plus_Stripes_2.jpg,left,372.3649999992922,false,low,false
d7Mowim2,33ixyhizc8v0km0rv7j1cbq82t9e2g,3bwi6rsp7km9t7vrsl5yxm38pzoe78,d7Mowim2,2020-0188,2020-11-15,00:50:01,01:21:04,NA,incomplete,180,number,1,left,Green_Triangle_Grid_1.jpg,Red_Plus_Chess_1.jpg,Purple_Star_Grid_4.jpg,right,376.2550000001211,false,low,false
d7Mowim2,33ixyhizc8v0km0rv7j1cbq82t9e2g,3bwi6rsp7km9t7vrsl5yxm38pzoe78,d7Mowim2,2020-0188,2020-11-15,00:50:01,01:21:04,NA,incomplete,181,number,0,right,Purple_Triangle_Grid_4.jpg,Red_Circle_Grid_3.jpg,Green_Star_Stripes_4.jpg,left,59.53999999933876,false,low,false
d7Mowim2,33ixyhizc8v0km0rv7j1cbq82t9e2g,3bwi6rsp7km9t7vrsl5yxm38pzoe78,d7Mowim2,2020-0188,2020-11-15,00:50:01,01:21:04,NA,incomplete,182,number,1,left,Green_Triangle_Grid_2.jpg,Purple_Plus_Dots_2.jpg,Red_Circle_Grid_3.jpg,left,892.4949999998789,true,low,false
d7Mowim2,33ixyhizc8v0km0rv7j1cbq82t9e2g,3bwi6rsp7km9t7vrsl5yxm38pzoe78,d7Mowim2,2020-0188,2020-11-15,00:50:01,01:21:04,NA,incomplete,183,number,0,right,Green_Circle_Stripes_2.jpg,Blue_Star_Stripes_1.jpg,Red_Triangle_Dots_2.jpg,right,187.37999999942258,true,low,false
d7Mowim2,33ixyhizc8v0km0rv7j1cbq82t9e2g,3bwi6rsp7km9t7vrsl5yxm38pzoe78,d7Mowim2,2020-0188,2020-11-15,00:50:01,01:21:04,NA,incomplete,184,number,1,left,Blue_Star_Chess_3.jpg,Green_Plus_Dots_3.jpg,Purple_Circle_Chess_4.jpg,left,180.99000000068918,true,low,false
d7Mowim2,33ixyhizc8v0km0rv7j1cbq82t9e2g,3bwi6rsp7km9t7vrsl5yxm38pzoe78,d7Mowim2,2020-0188,2020-11-15,00:50:01,01:21:04,NA,incomplete,185,number,0,left,Red_Triangle_Grid_3.jpg,Green_Star_Stripes_3.jpg,Purple_Plus_Grid_4.jpg,left,186.44000000040978,true,low,false
d7Mowim2,33ixyhizc8v0km0rv7j1cbq82t9e2g,3bwi6rsp7km9t7vrsl5yxm38pzoe78,d7Mowim2,2020-0188,2020-11-15,00:50:01,01:21:04,NA,incomplete,186,number,1,left,Green_Star_Chess_4.jpg,Red_Triangle_Dots_4.jpg,Purple_Plus_Chess_3.jpg,right,500.13500000024214,false,low,false
d7Mowim2,33ixyhizc8v0km0rv7j1cbq82t9e2g,3bwi6rsp7km9t7vrsl5yxm38pzoe78,d7Mowim2,2020-0188,2020-11-15,00:50:01,01:21:04,NA,incomplete,187,number,1,left,Purple_Circle_Chess_3.jpg,Green_Star_Stripes_3.jpg,Red_Triangle_Chess_2.jpg,left,250.75000000023283,true,low,false
d7Mowim2,33ixyhizc8v0km0rv7j1cbq82t9e2g,3bwi6rsp7km9t7vrsl5yxm38pzoe78,d7Mowim2,2020-0188,2020-11-15,00:50:01,01:21:04,NA,incomplete,188,number,0,left,Green_Star_Chess_2.jpg,Red_Plus_Grid_2.jpg,Purple_Circle_Chess_3.jpg,none,0,false,low,false
d7Mowim2,33ixyhizc8v0km0rv7j1cbq82t9e2g,3bwi6rsp7km9t7vrsl5yxm38pzoe78,d7Mowim2,2020-0188,2020-11-15,00:50:01,01:21:04,NA,incomplete,189,number,1,left,Green_Circle_Dots_1.jpg,Red_Triangle_Stripes_1.jpg,Purple_Star_Dots_3.jpg,left,156.51499999966472,true,low,false
d7Mowim2,33ixyhizc8v0km0rv7j1cbq82t9e2g,3bwi6rsp7km9t7vrsl5yxm38pzoe78,d7Mowim2,2020-0188,2020-11-15,00:50:01,01:21:04,NA,incomplete,190,number,1,left,Green_Plus_Chess_2.jpg,Purple_Star_Dots_2.jpg,Red_Circle_Chess_3.jpg,right,855.2199999995064,false,low,false
d7Mowim2,33ixyhizc8v0km0rv7j1cbq82t9e2g,3bwi6rsp7km9t7vrsl5yxm38pzoe78,d7Mowim2,2020-0188,2020-11-15,00:50:01,01:21:04,NA,incomplete,191,number,0,left,Red_Circle_Dots_1.jpg,Blue_Triangle_Grid_1.jpg,Green_Plus_Dots_4.jpg,left,1079.0699999995995,true,low,false
d7Mowim2,33ixyhizc8v0km0rv7j1cbq82t9e2g,3bwi6rsp7km9t7vrsl5yxm38pzoe78,d7Mowim2,2020-0188,2020-11-15,00:50:01,01:21:04,NA,incomplete,192,number,1,left,Red_Plus_Chess_4.jpg,Purple_Star_Grid_4.jpg,Blue_Triangle_Chess_2.jpg,right,925.7099999994971,false,low,false
d7Mowim2,33ixyhizc8v0km0rv7j1cbq82t9e2g,3bwi6rsp7km9t7vrsl5yxm38pzoe78,d7Mowim2,2020-0188,2020-11-15,00:50:01,01:21:04,NA,incomplete,193,number,1,right,Green_Circle_Grid_3.jpg,Purple_Star_Grid_4.jpg,Red_Plus_Dots_3.jpg,left,26.820000000065193,false,low,false
d7Mowim2,33ixyhizc8v0km0rv7j1cbq82t9e2g,3bwi6rsp7km9t7vrsl5yxm38pzoe78,d7Mowim2,2020-0188,2020-11-15,00:50:01,01:21:04,NA,incomplete,194,number,0,right,Purple_Triangle_Grid_3.jpg,Green_Star_Grid_2.jpg,Red_Plus_Dots_3.jpg,none,0,false,low,false
d7Mowim2,33ixyhizc8v0km0rv7j1cbq82t9e2g,3bwi6rsp7km9t7vrsl5yxm38pzoe78,d7Mowim2,2020-0188,2020-11-15,00:50:01,01:21:04,NA,incomplete,195,number,1,right,Red_Triangle_Dots_2.jpg,Blue_Star_Dots_3.jpg,Purple_Circle_Stripes_2.jpg,left,460.9299999992363,false,low,false
d7Mowim2,33ixyhizc8v0km0rv7j1cbq82t9e2g,3bwi6rsp7km9t7vrsl5yxm38pzoe78,d7Mowim2,2020-0188,2020-11-15,00:50:01,01:21:04,NA,incomplete,196,number,1,right,Purple_Triangle_Chess_3.jpg,Blue_Star_Chess_1.jpg,Red_Circle_Stripes_3.jpg,right,564.8799999998882,true,low,false
d7Mowim2,33ixyhizc8v0km0rv7j1cbq82t9e2g,3bwi6rsp7km9t7vrsl5yxm38pzoe78,d7Mowim2,2020-0188,2020-11-15,00:50:01,01:21:04,NA,incomplete,197,number,1,right,Green_Circle_Stripes_1.jpg,Red_Triangle_Stripes_4.jpg,Blue_Plus_Dots_1.jpg,none,0,false,low,false
d7Mowim2,33ixyhizc8v0km0rv7j1cbq82t9e2g,3bwi6rsp7km9t7vrsl5yxm38pzoe78,d7Mowim2,2020-0188,2020-11-15,00:50:01,01:21:04,NA,incomplete,198,number,1,left,Red_Star_Grid_4.jpg,Purple_Circle_Stripes_4.jpg,Green_Plus_Grid_1.jpg,left,1409.0150000003632,true,low,false
d7Mowim2,33ixyhizc8v0km0rv7j1cbq82t9e2g,3bwi6rsp7km9t7vrsl5yxm38pzoe78,d7Mowim2,2020-0188,2020-11-15,00:50:01,01:21:04,NA,incomplete,199,number,1,left,Blue_Star_Stripes_3.jpg,Purple_Triangle_Chess_3.jpg,Red_Plus_Stripes_4.jpg,left,330.010000000475,true,low,false
d7Mowim2,33ixyhizc8v0km0rv7j1cbq82t9e2g,3bwi6rsp7km9t7vrsl5yxm38pzoe78,d7Mowim2,2020-0188,2020-11-15,00:50:01,01:21:04,NA,incomplete,200,filling,1,left,Red_Star_Chess_2.jpg,Purple_Triangle_Chess_3.jpg,Green_Plus_Dots_2.jpg,left,1839.1949999995995,true,low,false
d7Mowim2,33ixyhizc8v0km0rv7j1cbq82t9e2g,3bwi6rsp7km9t7vrsl5yxm38pzoe78,d7Mowim2,2020-0188,2020-11-15,00:50:01,01:21:04,NA,incomplete,201,filling,0,left,Green_Star_Grid_1.jpg,Blue_Circle_Grid_3.jpg,Purple_Triangle_Dots_1.jpg,left,382.99500000011176,true,low,false
d7Mowim2,33ixyhizc8v0km0rv7j1cbq82t9e2g,3bwi6rsp7km9t7vrsl5yxm38pzoe78,d7Mowim2,2020-0188,2020-11-15,00:50:01,01:21:04,NA,incomplete,202,filling,1,left,Purple_Triangle_Chess_3.jpg,Red_Circle_Chess_2.jpg,Blue_Plus_Stripes_3.jpg,left,185.9699999995064,true,low,false
d7Mowim2,33ixyhizc8v0km0rv7j1cbq82t9e2g,3bwi6rsp7km9t7vrsl5yxm38pzoe78,d7Mowim2,2020-0188,2020-11-15,00:50:01,01:21:04,NA,incomplete,203,filling,1,left,Red_Plus_Dots_4.jpg,Purple_Star_Dots_1.jpg,Green_Triangle_Chess_4.jpg,right,654.1100000005681,false,low,false
d7Mowim2,33ixyhizc8v0km0rv7j1cbq82t9e2g,3bwi6rsp7km9t7vrsl5yxm38pzoe78,d7Mowim2,2020-0188,2020-11-15,00:50:01,01:21:04,NA,incomplete,204,filling,0,left,Purple_Circle_Chess_1.jpg,Green_Plus_Chess_2.jpg,Red_Triangle_Grid_1.jpg,left,1493.1350000007078,true,low,false
d7Mowim2,33ixyhizc8v0km0rv7j1cbq82t9e2g,3bwi6rsp7km9t7vrsl5yxm38pzoe78,d7Mowim2,2020-0188,2020-11-15,00:50:01,01:21:04,NA,incomplete,205,filling,1,right,Blue_Plus_Grid_1.jpg,Red_Star_Stripes_1.jpg,Purple_Circle_Grid_2.jpg,right,546.8250000004191,true,low,false
d7Mowim2,33ixyhizc8v0km0rv7j1cbq82t9e2g,3bwi6rsp7km9t7vrsl5yxm38pzoe78,d7Mowim2,2020-0188,2020-11-15,00:50:01,01:21:04,NA,incomplete,206,filling,0,right,Blue_Star_Stripes_1.jpg,Red_Plus_Dots_1.jpg,Green_Circle_Stripes_3.jpg,left,935.864999999525,false,low,false
d7Mowim2,33ixyhizc8v0km0rv7j1cbq82t9e2g,3bwi6rsp7km9t7vrsl5yxm38pzoe78,d7Mowim2,2020-0188,2020-11-15,00:50:01,01:21:04,NA,incomplete,207,filling,1,right,Purple_Plus_Dots_4.jpg,Blue_Star_Chess_4.jpg,Green_Circle_Dots_2.jpg,none,0,false,low,false
d7Mowim2,33ixyhizc8v0km0rv7j1cbq82t9e2g,3bwi6rsp7km9t7vrsl5yxm38pzoe78,d7Mowim2,2020-0188,2020-11-15,00:50:01,01:21:04,NA,incomplete,208,filling,1,right,Green_Triangle_Stripes_1.jpg,Blue_Star_Grid_1.jpg,Red_Plus_Stripes_3.jpg,left,383.3000000005122,false,low,false
d7Mowim2,33ixyhizc8v0km0rv7j1cbq82t9e2g,3bwi6rsp7km9t7vrsl5yxm38pzoe78,d7Mowim2,2020-0188,2020-11-15,00:50:01,01:21:04,NA,incomplete,209,filling,1,right,Blue_Plus_Dots_3.jpg,Red_Star_Chess_3.jpg,Green_Circle_Dots_1.jpg,none,0,false,low,false
d7Mowim2,33ixyhizc8v0km0rv7j1cbq82t9e2g,3bwi6rsp7km9t7vrsl5yxm38pzoe78,d7Mowim2,2020-0188,2020-11-15,00:50:01,01:21:04,NA,incomplete,210,filling,1,left,Red_Plus_Stripes_4.jpg,Purple_Star_Stripes_3.jpg,Blue_Circle_Grid_4.jpg,left,474.13499999954365,true,low,false
d7Mowim2,33ixyhizc8v0km0rv7j1cbq82t9e2g,3bwi6rsp7km9t7vrsl5yxm38pzoe78,d7Mowim2,2020-0188,2020-11-15,00:50:01,01:21:04,NA,incomplete,211,filling,1,left,Red_Triangle_Stripes_3.jpg,Green_Plus_Stripes_2.jpg,Blue_Star_Grid_3.jpg,right,753.6200000003446,false,low,false
d7Mowim2,33ixyhizc8v0km0rv7j1cbq82t9e2g,3bwi6rsp7km9t7vrsl5yxm38pzoe78,d7Mowim2,2020-0188,2020-11-15,00:50:01,01:21:04,NA,incomplete,212,filling,1,right,Blue_Plus_Chess_1.jpg,Purple_Star_Dots_1.jpg,Red_Triangle_Chess_3.jpg,left,822.0500000007451,false,low,false
d7Mowim2,33ixyhizc8v0km0rv7j1cbq82t9e2g,3bwi6rsp7km9t7vrsl5yxm38pzoe78,d7Mowim2,2020-0188,2020-11-15,00:50:01,01:21:04,NA,incomplete,213,filling,1,right,Purple_Plus_Stripes_2.jpg,Green_Triangle_Dots_2.jpg,Blue_Circle_Stripes_1.jpg,right,382.11999999918044,true,low,false
d7Mowim2,33ixyhizc8v0km0rv7j1cbq82t9e2g,3bwi6rsp7km9t7vrsl5yxm38pzoe78,d7Mowim2,2020-0188,2020-11-15,00:50:01,01:21:04,NA,incomplete,214,filling,1,left,Green_Star_Stripes_1.jpg,Blue_Plus_Stripes_4.jpg,Purple_Circle_Chess_1.jpg,right,571.3599999998696,false,low,false
d7Mowim2,33ixyhizc8v0km0rv7j1cbq82t9e2g,3bwi6rsp7km9t7vrsl5yxm38pzoe78,d7Mowim2,2020-0188,2020-11-15,00:50:01,01:21:04,NA,incomplete,215,filling,1,left,Blue_Triangle_Chess_4.jpg,Purple_Circle_Chess_3.jpg,Green_Star_Stripes_4.jpg,right,749.6650000002701,false,low,false
d7Mowim2,33ixyhizc8v0km0rv7j1cbq82t9e2g,3bwi6rsp7km9t7vrsl5yxm38pzoe78,d7Mowim2,2020-0188,2020-11-15,00:50:01,01:21:04,NA,incomplete,216,filling,1,left,Blue_Star_Chess_4.jpg,Red_Triangle_Chess_3.jpg,Green_Plus_Dots_4.jpg,left,1202.574999999255,true,low,false
d7Mowim2,33ixyhizc8v0km0rv7j1cbq82t9e2g,3bwi6rsp7km9t7vrsl5yxm38pzoe78,d7Mowim2,2020-0188,2020-11-15,00:50:01,01:21:04,NA,incomplete,217,filling,1,right,Red_Plus_Chess_1.jpg,Purple_Star_Dots_1.jpg,Green_Circle_Chess_3.jpg,right,466.875,true,low,false
d7Mowim2,33ixyhizc8v0km0rv7j1cbq82t9e2g,3bwi6rsp7km9t7vrsl5yxm38pzoe78,d7Mowim2,2020-0188,2020-11-15,00:50:01,01:21:04,NA,incomplete,218,filling,0,right,Green_Star_Stripes_4.jpg,Blue_Plus_Chess_4.jpg,Red_Triangle_Stripes_3.jpg,left,154.70000000018626,false,low,false
d7Mowim2,33ixyhizc8v0km0rv7j1cbq82t9e2g,3bwi6rsp7km9t7vrsl5yxm38pzoe78,d7Mowim2,2020-0188,2020-11-15,00:50:01,01:21:04,NA,incomplete,219,filling,1,right,Purple_Triangle_Dots_3.jpg,Green_Star_Grid_3.jpg,Red_Circle_Dots_2.jpg,left,296.1000000005588,false,low,false
d7Mowim2,33ixyhizc8v0km0rv7j1cbq82t9e2g,3bwi6rsp7km9t7vrsl5yxm38pzoe78,d7Mowim2,2020-0188,2020-11-15,00:50:01,01:21:04,NA,incomplete,220,number,1,left,Purple_Star_Dots_1.jpg,Red_Triangle_Stripes_1.jpg,Blue_Circle_Dots_4.jpg,right,590.8900000003632,false,low,false
d7Mowim2,33ixyhizc8v0km0rv7j1cbq82t9e2g,3bwi6rsp7km9t7vrsl5yxm38pzoe78,d7Mowim2,2020-0188,2020-11-15,00:50:01,01:21:04,NA,incomplete,221,number,1,right,Red_Circle_Dots_4.jpg,Purple_Star_Dots_2.jpg,Green_Plus_Grid_4.jpg,right,335.88500000024214,true,low,false
d7Mowim2,33ixyhizc8v0km0rv7j1cbq82t9e2g,3bwi6rsp7km9t7vrsl5yxm38pzoe78,d7Mowim2,2020-0188,2020-11-15,00:50:01,01:21:04,NA,incomplete,222,number,1,left,Green_Star_Chess_1.jpg,Red_Triangle_Grid_1.jpg,Blue_Plus_Chess_3.jpg,right,581.1149999997579,false,low,false
d7Mowim2,33ixyhizc8v0km0rv7j1cbq82t9e2g,3bwi6rsp7km9t7vrsl5yxm38pzoe78,d7Mowim2,2020-0188,2020-11-15,00:50:01,01:21:04,NA,incomplete,223,number,1,right,Purple_Plus_Chess_1.jpg,Green_Circle_Chess_2.jpg,Blue_Star_Grid_1.jpg,left,216.90000000037253,false,low,false
d7Mowim2,33ixyhizc8v0km0rv7j1cbq82t9e2g,3bwi6rsp7km9t7vrsl5yxm38pzoe78,d7Mowim2,2020-0188,2020-11-15,00:50:01,01:21:04,NA,incomplete,224,number,1,left,Blue_Plus_Chess_2.jpg,Purple_Star_Stripes_2.jpg,Red_Triangle_Chess_4.jpg,none,0,false,low,false
d7Mowim2,33ixyhizc8v0km0rv7j1cbq82t9e2g,3bwi6rsp7km9t7vrsl5yxm38pzoe78,d7Mowim2,2020-0188,2020-11-15,00:50:01,01:21:04,NA,incomplete,225,number,1,left,Green_Triangle_Stripes_4.jpg,Blue_Circle_Grid_4.jpg,Red_Plus_Stripes_1.jpg,left,342.31999999983236,true,low,false
d7Mowim2,33ixyhizc8v0km0rv7j1cbq82t9e2g,3bwi6rsp7km9t7vrsl5yxm38pzoe78,d7Mowim2,2020-0188,2020-11-15,00:50:01,01:21:04,NA,incomplete,226,number,1,right,Red_Star_Chess_1.jpg,Blue_Triangle_Chess_2.jpg,Purple_Plus_Stripes_1.jpg,left,50.87000000011176,false,low,false
d7Mowim2,33ixyhizc8v0km0rv7j1cbq82t9e2g,3bwi6rsp7km9t7vrsl5yxm38pzoe78,d7Mowim2,2020-0188,2020-11-15,00:50:01,01:21:04,NA,incomplete,227,number,1,left,Green_Star_Grid_3.jpg,Purple_Circle_Chess_3.jpg,Red_Triangle_Grid_4.jpg,right,356.510000000475,false,low,false
d7Mowim2,33ixyhizc8v0km0rv7j1cbq82t9e2g,3bwi6rsp7km9t7vrsl5yxm38pzoe78,d7Mowim2,2020-0188,2020-11-15,00:50:01,01:21:04,NA,incomplete,228,number,1,right,Purple_Star_Dots_1.jpg,Green_Plus_Dots_3.jpg,Blue_Circle_Grid_1.jpg,right,9.025000000372529,true,low,false
d7Mowim2,33ixyhizc8v0km0rv7j1cbq82t9e2g,3bwi6rsp7km9t7vrsl5yxm38pzoe78,d7Mowim2,2020-0188,2020-11-15,00:50:01,01:21:04,NA,incomplete,229,number,1,right,Purple_Circle_Dots_2.jpg,Blue_Star_Dots_1.jpg,Red_Plus_Grid_2.jpg,right,11.294999999459833,true,low,false
d7Mowim2,33ixyhizc8v0km0rv7j1cbq82t9e2g,3bwi6rsp7km9t7vrsl5yxm38pzoe78,d7Mowim2,2020-0188,2020-11-15,00:50:01,01:21:04,NA,incomplete,230,number,1,right,Green_Star_Grid_1.jpg,Purple_Plus_Grid_4.jpg,Red_Triangle_Dots_1.jpg,right,133.23000000044703,true,low,false
d7Mowim2,33ixyhizc8v0km0rv7j1cbq82t9e2g,3bwi6rsp7km9t7vrsl5yxm38pzoe78,d7Mowim2,2020-0188,2020-11-15,00:50:01,01:21:04,NA,incomplete,231,number,0,right,Purple_Triangle_Dots_1.jpg,Red_Star_Dots_3.jpg,Blue_Plus_Grid_1.jpg,right,163.12999999988824,true,low,false
d7Mowim2,33ixyhizc8v0km0rv7j1cbq82t9e2g,3bwi6rsp7km9t7vrsl5yxm38pzoe78,d7Mowim2,2020-0188,2020-11-15,00:50:01,01:21:04,NA,incomplete,232,number,1,left,Blue_Triangle_Chess_3.jpg,Purple_Circle_Stripes_3.jpg,Red_Star_Chess_1.jpg,left,54.799999999813735,true,low,false
d7Mowim2,33ixyhizc8v0km0rv7j1cbq82t9e2g,3bwi6rsp7km9t7vrsl5yxm38pzoe78,d7Mowim2,2020-0188,2020-11-15,00:50:01,01:21:04,NA,incomplete,233,number,1,right,Red_Plus_Grid_3.jpg,Blue_Star_Grid_2.jpg,Purple_Circle_Stripes_3.jpg,left,78.9199999999255,false,low,false
d7Mowim2,33ixyhizc8v0km0rv7j1cbq82t9e2g,3bwi6rsp7km9t7vrsl5yxm38pzoe78,d7Mowim2,2020-0188,2020-11-15,00:50:01,01:21:04,NA,incomplete,234,number,1,left,Purple_Circle_Stripes_1.jpg,Green_Triangle_Dots_1.jpg,Red_Plus_Stripes_2.jpg,left,151.42500000004657,true,low,false
d7Mowim2,33ixyhizc8v0km0rv7j1cbq82t9e2g,3bwi6rsp7km9t7vrsl5yxm38pzoe78,d7Mowim2,2020-0188,2020-11-15,00:50:01,01:21:04,NA,incomplete,235,number,0,left,Red_Star_Stripes_1.jpg,Green_Plus_Chess_1.jpg,Purple_Triangle_Stripes_4.jpg,left,1172.309999999823,true,low,false
d7Mowim2,33ixyhizc8v0km0rv7j1cbq82t9e2g,3bwi6rsp7km9t7vrsl5yxm38pzoe78,d7Mowim2,2020-0188,2020-11-15,00:50:01,01:21:04,NA,incomplete,236,number,1,right,Purple_Circle_Dots_1.jpg,Blue_Plus_Dots_2.jpg,Green_Triangle_Chess_1.jpg,left,558.7199999999721,false,low,false
d7Mowim2,33ixyhizc8v0km0rv7j1cbq82t9e2g,3bwi6rsp7km9t7vrsl5yxm38pzoe78,d7Mowim2,2020-0188,2020-11-15,00:50:01,01:21:04,NA,incomplete,237,number,1,left,Green_Star_Stripes_2.jpg,Red_Plus_Grid_2.jpg,Purple_Circle_Stripes_1.jpg,left,1017.9449999995995,true,low,false
d7Mowim2,33ixyhizc8v0km0rv7j1cbq82t9e2g,3bwi6rsp7km9t7vrsl5yxm38pzoe78,d7Mowim2,2020-0188,2020-11-15,00:50:01,01:21:04,NA,incomplete,238,number,1,right,Purple_Plus_Chess_3.jpg,Green_Triangle_Chess_4.jpg,Red_Star_Grid_3.jpg,left,1331.8499999996275,false,low,false
d7Mowim2,33ixyhizc8v0km0rv7j1cbq82t9e2g,3bwi6rsp7km9t7vrsl5yxm38pzoe78,d7Mowim2,2020-0188,2020-11-15,00:50:01,01:21:04,NA,incomplete,239,number,1,left,Green_Circle_Dots_1.jpg,Blue_Star_Chess_1.jpg,Red_Triangle_Dots_2.jpg,right,263.7299999995157,false,low,false
d7Mowim2,33ixyhizc8v0km0rv7j1cbq82t9e2g,3bwi6rsp7km9t7vrsl5yxm38pzoe78,d7Mowim2,2020-0188,2020-11-15,00:50:01,01:21:04,1671307.8850000002,1863699.02,NA,NA,NA,NA,NA,NA,NA,NA,NA,NA,NA,undefined
