workerId,hitId,assignmentId,subject,studyid,exp_date,exp_start,exp_end,time_start,time_end,trial,type,reward_validity,answer,image_top,image_left,image_right,response,response_time,response_acc,volatility,practice
AeRpSGDf,3hy86pzxq1vtv1ivc3jn7sg3anve1z,3d8you6s9ix7e3e8zbfbvqpfgcxu65,AeRpSGDf,2020-0188,2020-11-14,23:36:01,23:50:52,NA,incomplete,0,color,1,left,Green_Triangle_Chess_3.jpg,Green_Star_Grid_4.jpg,Purple_Plus_Dots_3.jpg,left,1030.1050003618002,true,NA,true
AeRpSGDf,3hy86pzxq1vtv1ivc3jn7sg3anve1z,3d8you6s9ix7e3e8zbfbvqpfgcxu65,AeRpSGDf,2020-0188,2020-11-14,23:36:01,23:50:52,NA,incomplete,1,color,1,right,Green_Star_Stripes_2.jpg,Blue_Plus_Chess_2.jpg,Green_Circle_Grid_3.jpg,right,792.9949997924268,true,NA,true
AeRpSGDf,3hy86pzxq1vtv1ivc3jn7sg3anve1z,3d8you6s9ix7e3e8zbfbvqpfgcxu65,AeRpSGDf,2020-0188,2020-11-14,23:36:01,23:50:52,NA,incomplete,2,color,0,right,Purple_Circle_Grid_2.jpg,Green_Triangle_Chess_2.jpg,Purple_Star_Dots_1.jpg,right,685.0100001320243,true,NA,true
AeRpSGDf,3hy86pzxq1vtv1ivc3jn7sg3anve1z,3d8you6s9ix7e3e8zbfbvqpfgcxu65,AeRpSGDf,2020-0188,2020-11-14,23:36:01,23:50:52,NA,incomplete,3,color,1,left,Blue_Circle_Chess_2.jpg,Blue_Star_Stripes_1.jpg,Red_Triangle_Dots_2.jpg,left,773.5250000841916,true,NA,true
AeRpSGDf,3hy86pzxq1vtv1ivc3jn7sg3anve1z,3d8you6s9ix7e3e8zbfbvqpfgcxu65,AeRpSGDf,2020-0188,2020-11-14,23:36:01,23:50:52,NA,incomplete,4,color,1,right,Purple_Triangle_Stripes_2.jpg,Red_Plus_Grid_2.jpg,Purple_Circle_Chess_4.jpg,right,949.4650000706315,true,NA,true
AeRpSGDf,3hy86pzxq1vtv1ivc3jn7sg3anve1z,3d8you6s9ix7e3e8zbfbvqpfgcxu65,AeRpSGDf,2020-0188,2020-11-14,23:36:01,23:50:52,NA,incomplete,5,color,1,right,Green_Circle_Grid_4.jpg,Purple_Plus_Chess_4.jpg,Green_Star_Dots_3.jpg,right,594.380000140518,true,NA,true
AeRpSGDf,3hy86pzxq1vtv1ivc3jn7sg3anve1z,3d8you6s9ix7e3e8zbfbvqpfgcxu65,AeRpSGDf,2020-0188,2020-11-14,23:36:01,23:50:52,NA,incomplete,6,color,0,right,Blue_Circle_Chess_2.jpg,Purple_Star_Stripes_2.jpg,Blue_Plus_Dots_4.jpg,right,671.4149997569621,true,NA,true
AeRpSGDf,3hy86pzxq1vtv1ivc3jn7sg3anve1z,3d8you6s9ix7e3e8zbfbvqpfgcxu65,AeRpSGDf,2020-0188,2020-11-14,23:36:01,23:50:52,NA,incomplete,7,color,1,left,Red_Plus_Chess_2.jpg,Red_Circle_Dots_1.jpg,Blue_Triangle_Grid_2.jpg,left,727.3800000548363,true,NA,true
AeRpSGDf,3hy86pzxq1vtv1ivc3jn7sg3anve1z,3d8you6s9ix7e3e8zbfbvqpfgcxu65,AeRpSGDf,2020-0188,2020-11-14,23:36:01,23:50:52,NA,incomplete,8,color,1,left,Blue_Circle_Grid_4.jpg,Blue_Star_Chess_1.jpg,Red_Plus_Stripes_4.jpg,left,622.0249999314547,true,NA,true
AeRpSGDf,3hy86pzxq1vtv1ivc3jn7sg3anve1z,3d8you6s9ix7e3e8zbfbvqpfgcxu65,AeRpSGDf,2020-0188,2020-11-14,23:36:01,23:50:52,NA,incomplete,9,color,1,left,Green_Circle_Grid_1.jpg,Green_Triangle_Chess_3.jpg,Red_Plus_Dots_1.jpg,left,662.5749999657273,true,NA,true
AeRpSGDf,3hy86pzxq1vtv1ivc3jn7sg3anve1z,3d8you6s9ix7e3e8zbfbvqpfgcxu65,AeRpSGDf,2020-0188,2020-11-14,23:36:01,23:50:52,NA,incomplete,10,color,1,left,Green_Circle_Chess_4.jpg,Green_Star_Stripes_3.jpg,Red_Triangle_Grid_4.jpg,left,530.365000013262,true,NA,true
AeRpSGDf,3hy86pzxq1vtv1ivc3jn7sg3anve1z,3d8you6s9ix7e3e8zbfbvqpfgcxu65,AeRpSGDf,2020-0188,2020-11-14,23:36:01,23:50:52,NA,incomplete,11,color,0,left,Green_Triangle_Stripes_1.jpg,Green_Plus_Chess_2.jpg,Red_Circle_Grid_1.jpg,left,577.7400000952184,true,NA,true
AeRpSGDf,3hy86pzxq1vtv1ivc3jn7sg3anve1z,3d8you6s9ix7e3e8zbfbvqpfgcxu65,AeRpSGDf,2020-0188,2020-11-14,23:36:01,23:50:52,NA,incomplete,12,color,1,right,Green_Plus_Dots_4.jpg,Red_Circle_Stripes_4.jpg,Green_Star_Grid_2.jpg,right,647.7500000037253,true,NA,true
AeRpSGDf,3hy86pzxq1vtv1ivc3jn7sg3anve1z,3d8you6s9ix7e3e8zbfbvqpfgcxu65,AeRpSGDf,2020-0188,2020-11-14,23:36:01,23:50:52,NA,incomplete,13,color,1,left,Blue_Plus_Chess_4.jpg,Blue_Circle_Dots_3.jpg,Green_Triangle_Grid_4.jpg,left,721.919999923557,true,NA,true
AeRpSGDf,3hy86pzxq1vtv1ivc3jn7sg3anve1z,3d8you6s9ix7e3e8zbfbvqpfgcxu65,AeRpSGDf,2020-0188,2020-11-14,23:36:01,23:50:52,NA,incomplete,14,color,1,left,Green_Circle_Dots_4.jpg,Green_Triangle_Chess_3.jpg,Red_Star_Stripes_4.jpg,left,475.00000009313226,true,NA,true
AeRpSGDf,3hy86pzxq1vtv1ivc3jn7sg3anve1z,3d8you6s9ix7e3e8zbfbvqpfgcxu65,AeRpSGDf,2020-0188,2020-11-14,23:36:01,23:50:52,NA,incomplete,15,color,1,right,Red_Circle_Grid_1.jpg,Purple_Star_Stripes_1.jpg,Red_Triangle_Dots_3.jpg,right,512.8949997015297,true,NA,true
AeRpSGDf,3hy86pzxq1vtv1ivc3jn7sg3anve1z,3d8you6s9ix7e3e8zbfbvqpfgcxu65,AeRpSGDf,2020-0188,2020-11-14,23:36:01,23:50:52,NA,incomplete,16,color,1,right,Blue_Plus_Dots_3.jpg,Red_Circle_Stripes_3.jpg,Blue_Triangle_Grid_1.jpg,right,601.4250000007451,true,NA,true
AeRpSGDf,3hy86pzxq1vtv1ivc3jn7sg3anve1z,3d8you6s9ix7e3e8zbfbvqpfgcxu65,AeRpSGDf,2020-0188,2020-11-14,23:36:01,23:50:52,NA,incomplete,17,color,1,left,Green_Triangle_Chess_2.jpg,Green_Circle_Dots_1.jpg,Purple_Plus_Stripes_2.jpg,left,515.8500000834465,true,NA,true
AeRpSGDf,3hy86pzxq1vtv1ivc3jn7sg3anve1z,3d8you6s9ix7e3e8zbfbvqpfgcxu65,AeRpSGDf,2020-0188,2020-11-14,23:36:01,23:50:52,NA,incomplete,18,color,1,right,Blue_Triangle_Grid_4.jpg,Purple_Circle_Stripes_4.jpg,Blue_Star_Dots_1.jpg,right,523.9349999465048,true,NA,true
AeRpSGDf,3hy86pzxq1vtv1ivc3jn7sg3anve1z,3d8you6s9ix7e3e8zbfbvqpfgcxu65,AeRpSGDf,2020-0188,2020-11-14,23:36:01,23:50:52,NA,incomplete,19,color,1,right,Red_Plus_Dots_4.jpg,Green_Triangle_Grid_4.jpg,Red_Star_Stripes_3.jpg,right,566.6149999015033,true,NA,true
AeRpSGDf,3hy86pzxq1vtv1ivc3jn7sg3anve1z,3d8you6s9ix7e3e8zbfbvqpfgcxu65,AeRpSGDf,2020-0188,2020-11-14,23:36:01,23:50:52,NA,incomplete,20,number,0,right,Blue_Circle_Grid_4.jpg,Blue_Plus_Dots_2.jpg,Green_Star_Chess_4.jpg,right,961.5299999713898,true,NA,true
AeRpSGDf,3hy86pzxq1vtv1ivc3jn7sg3anve1z,3d8you6s9ix7e3e8zbfbvqpfgcxu65,AeRpSGDf,2020-0188,2020-11-14,23:36:01,23:50:52,NA,incomplete,21,number,1,left,Blue_Circle_Dots_3.jpg,Purple_Plus_Grid_3.jpg,Blue_Triangle_Stripes_4.jpg,left,1432.3249999433756,true,NA,true
AeRpSGDf,3hy86pzxq1vtv1ivc3jn7sg3anve1z,3d8you6s9ix7e3e8zbfbvqpfgcxu65,AeRpSGDf,2020-0188,2020-11-14,23:36:01,23:50:52,NA,incomplete,22,number,1,right,Green_Circle_Dots_2.jpg,Green_Star_Stripes_1.jpg,Red_Triangle_Grid_2.jpg,right,861.7050000466406,true,NA,true
AeRpSGDf,3hy86pzxq1vtv1ivc3jn7sg3anve1z,3d8you6s9ix7e3e8zbfbvqpfgcxu65,AeRpSGDf,2020-0188,2020-11-14,23:36:01,23:50:52,NA,incomplete,23,number,0,right,Purple_Plus_Grid_1.jpg,Purple_Triangle_Dots_2.jpg,Blue_Star_Chess_1.jpg,right,846.7549998313189,true,NA,true
AeRpSGDf,3hy86pzxq1vtv1ivc3jn7sg3anve1z,3d8you6s9ix7e3e8zbfbvqpfgcxu65,AeRpSGDf,2020-0188,2020-11-14,23:36:01,23:50:52,NA,incomplete,24,number,1,right,Blue_Plus_Stripes_1.jpg,Blue_Star_Chess_4.jpg,Purple_Circle_Dots_1.jpg,right,797.3899999633431,true,NA,true
AeRpSGDf,3hy86pzxq1vtv1ivc3jn7sg3anve1z,3d8you6s9ix7e3e8zbfbvqpfgcxu65,AeRpSGDf,2020-0188,2020-11-14,23:36:01,23:50:52,NA,incomplete,25,number,0,right,Purple_Circle_Stripes_1.jpg,Purple_Plus_Grid_4.jpg,Blue_Star_Dots_1.jpg,right,730.3700000047684,true,NA,true
AeRpSGDf,3hy86pzxq1vtv1ivc3jn7sg3anve1z,3d8you6s9ix7e3e8zbfbvqpfgcxu65,AeRpSGDf,2020-0188,2020-11-14,23:36:01,23:50:52,NA,incomplete,26,number,1,right,Green_Plus_Stripes_4.jpg,Green_Triangle_Dots_1.jpg,Blue_Circle_Grid_4.jpg,right,936.0749996267259,true,NA,true
AeRpSGDf,3hy86pzxq1vtv1ivc3jn7sg3anve1z,3d8you6s9ix7e3e8zbfbvqpfgcxu65,AeRpSGDf,2020-0188,2020-11-14,23:36:01,23:50:52,NA,incomplete,27,number,1,left,Purple_Triangle_Grid_4.jpg,Blue_Star_Dots_4.jpg,Purple_Circle_Stripes_3.jpg,left,1032.3649998754263,true,NA,true
AeRpSGDf,3hy86pzxq1vtv1ivc3jn7sg3anve1z,3d8you6s9ix7e3e8zbfbvqpfgcxu65,AeRpSGDf,2020-0188,2020-11-14,23:36:01,23:50:52,NA,incomplete,28,number,1,left,Red_Star_Stripes_4.jpg,Blue_Circle_Dots_4.jpg,Red_Triangle_Grid_2.jpg,left,878.1200000084937,true,NA,true
AeRpSGDf,3hy86pzxq1vtv1ivc3jn7sg3anve1z,3d8you6s9ix7e3e8zbfbvqpfgcxu65,AeRpSGDf,2020-0188,2020-11-14,23:36:01,23:50:52,NA,incomplete,29,number,1,left,Green_Plus_Grid_2.jpg,Purple_Circle_Stripes_2.jpg,Green_Triangle_Chess_1.jpg,left,1171.5750000439584,true,NA,true
AeRpSGDf,3hy86pzxq1vtv1ivc3jn7sg3anve1z,3d8you6s9ix7e3e8zbfbvqpfgcxu65,AeRpSGDf,2020-0188,2020-11-14,23:36:01,23:50:52,NA,incomplete,30,number,1,right,Purple_Star_Dots_3.jpg,Purple_Plus_Chess_2.jpg,Red_Circle_Stripes_3.jpg,right,856.0450002551079,true,NA,true
AeRpSGDf,3hy86pzxq1vtv1ivc3jn7sg3anve1z,3d8you6s9ix7e3e8zbfbvqpfgcxu65,AeRpSGDf,2020-0188,2020-11-14,23:36:01,23:50:52,NA,incomplete,31,number,1,right,Red_Plus_Dots_3.jpg,Red_Star_Chess_4.jpg,Green_Circle_Stripes_3.jpg,right,850.3899998031557,true,NA,true
AeRpSGDf,3hy86pzxq1vtv1ivc3jn7sg3anve1z,3d8you6s9ix7e3e8zbfbvqpfgcxu65,AeRpSGDf,2020-0188,2020-11-14,23:36:01,23:50:52,NA,incomplete,32,number,0,left,Purple_Star_Dots_3.jpg,Red_Circle_Stripes_3.jpg,Purple_Triangle_Grid_2.jpg,left,844.455000013113,true,NA,true
AeRpSGDf,3hy86pzxq1vtv1ivc3jn7sg3anve1z,3d8you6s9ix7e3e8zbfbvqpfgcxu65,AeRpSGDf,2020-0188,2020-11-14,23:36:01,23:50:52,NA,incomplete,33,number,1,right,Purple_Triangle_Dots_4.jpg,Purple_Star_Stripes_1.jpg,Green_Plus_Grid_4.jpg,right,794.484999962151,true,NA,true
AeRpSGDf,3hy86pzxq1vtv1ivc3jn7sg3anve1z,3d8you6s9ix7e3e8zbfbvqpfgcxu65,AeRpSGDf,2020-0188,2020-11-14,23:36:01,23:50:52,NA,incomplete,34,number,1,right,Blue_Triangle_Grid_1.jpg,Blue_Plus_Chess_2.jpg,Green_Star_Dots_1.jpg,right,682.2550003416836,true,NA,true
AeRpSGDf,3hy86pzxq1vtv1ivc3jn7sg3anve1z,3d8you6s9ix7e3e8zbfbvqpfgcxu65,AeRpSGDf,2020-0188,2020-11-14,23:36:01,23:50:52,NA,incomplete,35,number,1,right,Blue_Plus_Stripes_1.jpg,Blue_Triangle_Grid_4.jpg,Green_Circle_Dots_1.jpg,right,747.084999922663,true,NA,true
AeRpSGDf,3hy86pzxq1vtv1ivc3jn7sg3anve1z,3d8you6s9ix7e3e8zbfbvqpfgcxu65,AeRpSGDf,2020-0188,2020-11-14,23:36:01,23:50:52,NA,incomplete,36,number,1,left,Blue_Star_Dots_4.jpg,Green_Triangle_Chess_4.jpg,Blue_Circle_Stripes_3.jpg,left,843.119999859482,true,NA,true
AeRpSGDf,3hy86pzxq1vtv1ivc3jn7sg3anve1z,3d8you6s9ix7e3e8zbfbvqpfgcxu65,AeRpSGDf,2020-0188,2020-11-14,23:36:01,23:50:52,NA,incomplete,37,number,1,left,Red_Triangle_Grid_3.jpg,Blue_Plus_Chess_3.jpg,Red_Circle_Dots_4.jpg,left,765.7550000585616,true,NA,true
AeRpSGDf,3hy86pzxq1vtv1ivc3jn7sg3anve1z,3d8you6s9ix7e3e8zbfbvqpfgcxu65,AeRpSGDf,2020-0188,2020-11-14,23:36:01,23:50:52,NA,incomplete,38,number,1,right,Purple_Plus_Stripes_4.jpg,Purple_Star_Grid_2.jpg,Red_Circle_Chess_4.jpg,right,749.0099999122322,true,NA,true
AeRpSGDf,3hy86pzxq1vtv1ivc3jn7sg3anve1z,3d8you6s9ix7e3e8zbfbvqpfgcxu65,AeRpSGDf,2020-0188,2020-11-14,23:36:01,23:50:52,NA,incomplete,39,number,0,left,Purple_Star_Chess_4.jpg,Red_Triangle_Stripes_4.jpg,Purple_Plus_Dots_2.jpg,left,648.73499982059,true,NA,true
AeRpSGDf,3hy86pzxq1vtv1ivc3jn7sg3anve1z,3d8you6s9ix7e3e8zbfbvqpfgcxu65,AeRpSGDf,2020-0188,2020-11-14,23:36:01,23:50:52,NA,incomplete,0,color,1,right,Blue_Star_Dots_1.jpg,Green_Triangle_Chess_1.jpg,Blue_Circle_Grid_3.jpg,right,552.4449995718896,true,low,false
AeRpSGDf,3hy86pzxq1vtv1ivc3jn7sg3anve1z,3d8you6s9ix7e3e8zbfbvqpfgcxu65,AeRpSGDf,2020-0188,2020-11-14,23:36:01,23:50:52,NA,incomplete,1,color,1,right,Green_Triangle_Stripes_3.jpg,Purple_Circle_Grid_3.jpg,Green_Star_Dots_1.jpg,right,495.945000089705,true,low,false
AeRpSGDf,3hy86pzxq1vtv1ivc3jn7sg3anve1z,3d8you6s9ix7e3e8zbfbvqpfgcxu65,AeRpSGDf,2020-0188,2020-11-14,23:36:01,23:50:52,NA,incomplete,2,color,1,right,Purple_Triangle_Chess_2.jpg,Red_Plus_Stripes_2.jpg,Purple_Circle_Grid_3.jpg,right,439.8699998855591,true,low,false
AeRpSGDf,3hy86pzxq1vtv1ivc3jn7sg3anve1z,3d8you6s9ix7e3e8zbfbvqpfgcxu65,AeRpSGDf,2020-0188,2020-11-14,23:36:01,23:50:52,NA,incomplete,3,color,0,right,Green_Star_Chess_3.jpg,Red_Triangle_Dots_3.jpg,Green_Plus_Grid_2.jpg,right,410.17500031739473,true,low,false
AeRpSGDf,3hy86pzxq1vtv1ivc3jn7sg3anve1z,3d8you6s9ix7e3e8zbfbvqpfgcxu65,AeRpSGDf,2020-0188,2020-11-14,23:36:01,23:50:52,NA,incomplete,4,color,1,left,Green_Plus_Chess_2.jpg,Green_Star_Stripes_4.jpg,Red_Circle_Dots_2.jpg,left,398.8750004209578,true,low,false
AeRpSGDf,3hy86pzxq1vtv1ivc3jn7sg3anve1z,3d8you6s9ix7e3e8zbfbvqpfgcxu65,AeRpSGDf,2020-0188,2020-11-14,23:36:01,23:50:52,NA,incomplete,5,color,1,left,Blue_Triangle_Dots_1.jpg,Blue_Star_Stripes_2.jpg,Red_Plus_Grid_1.jpg,left,453.22000002488494,true,low,false
AeRpSGDf,3hy86pzxq1vtv1ivc3jn7sg3anve1z,3d8you6s9ix7e3e8zbfbvqpfgcxu65,AeRpSGDf,2020-0188,2020-11-14,23:36:01,23:50:52,NA,incomplete,6,color,1,left,Green_Plus_Chess_1.jpg,Green_Triangle_Grid_3.jpg,Blue_Star_Dots_1.jpg,left,396.2399996817112,true,low,false
AeRpSGDf,3hy86pzxq1vtv1ivc3jn7sg3anve1z,3d8you6s9ix7e3e8zbfbvqpfgcxu65,AeRpSGDf,2020-0188,2020-11-14,23:36:01,23:50:52,NA,incomplete,7,color,1,right,Red_Plus_Chess_2.jpg,Blue_Star_Stripes_2.jpg,Red_Circle_Dots_4.jpg,right,352.92499978095293,true,low,false
AeRpSGDf,3hy86pzxq1vtv1ivc3jn7sg3anve1z,3d8you6s9ix7e3e8zbfbvqpfgcxu65,AeRpSGDf,2020-0188,2020-11-14,23:36:01,23:50:52,NA,incomplete,8,color,1,left,Blue_Star_Stripes_3.jpg,Blue_Plus_Chess_4.jpg,Green_Circle_Dots_3.jpg,left,445.6950002349913,true,low,false
AeRpSGDf,3hy86pzxq1vtv1ivc3jn7sg3anve1z,3d8you6s9ix7e3e8zbfbvqpfgcxu65,AeRpSGDf,2020-0188,2020-11-14,23:36:01,23:50:52,NA,incomplete,9,color,0,right,Purple_Circle_Grid_1.jpg,Blue_Triangle_Chess_1.jpg,Purple_Plus_Dots_4.jpg,right,407.9849999397993,true,low,false
AeRpSGDf,3hy86pzxq1vtv1ivc3jn7sg3anve1z,3d8you6s9ix7e3e8zbfbvqpfgcxu65,AeRpSGDf,2020-0188,2020-11-14,23:36:01,23:50:52,NA,incomplete,10,color,1,left,Green_Star_Grid_4.jpg,Green_Plus_Chess_1.jpg,Blue_Circle_Dots_4.jpg,left,371.7249999754131,true,low,false
AeRpSGDf,3hy86pzxq1vtv1ivc3jn7sg3anve1z,3d8you6s9ix7e3e8zbfbvqpfgcxu65,AeRpSGDf,2020-0188,2020-11-14,23:36:01,23:50:52,NA,incomplete,11,color,1,right,Green_Star_Grid_1.jpg,Purple_Plus_Stripes_1.jpg,Green_Triangle_Chess_2.jpg,right,412.8700001165271,true,low,false
AeRpSGDf,3hy86pzxq1vtv1ivc3jn7sg3anve1z,3d8you6s9ix7e3e8zbfbvqpfgcxu65,AeRpSGDf,2020-0188,2020-11-14,23:36:01,23:50:52,NA,incomplete,12,color,1,right,Purple_Plus_Grid_3.jpg,Blue_Triangle_Stripes_3.jpg,Purple_Circle_Dots_4.jpg,right,405.56999994441867,true,low,false
AeRpSGDf,3hy86pzxq1vtv1ivc3jn7sg3anve1z,3d8you6s9ix7e3e8zbfbvqpfgcxu65,AeRpSGDf,2020-0188,2020-11-14,23:36:01,23:50:52,NA,incomplete,13,color,0,left,Red_Plus_Grid_3.jpg,Red_Circle_Chess_4.jpg,Purple_Star_Stripes_3.jpg,left,440.32999966293573,true,low,false
AeRpSGDf,3hy86pzxq1vtv1ivc3jn7sg3anve1z,3d8you6s9ix7e3e8zbfbvqpfgcxu65,AeRpSGDf,2020-0188,2020-11-14,23:36:01,23:50:52,NA,incomplete,14,color,0,right,Purple_Plus_Dots_3.jpg,Red_Star_Chess_3.jpg,Purple_Triangle_Stripes_4.jpg,right,450.48499992117286,true,low,false
AeRpSGDf,3hy86pzxq1vtv1ivc3jn7sg3anve1z,3d8you6s9ix7e3e8zbfbvqpfgcxu65,AeRpSGDf,2020-0188,2020-11-14,23:36:01,23:50:52,NA,incomplete,15,color,1,left,Red_Plus_Dots_4.jpg,Red_Triangle_Chess_3.jpg,Blue_Star_Grid_4.jpg,left,379.83000045642257,true,low,false
AeRpSGDf,3hy86pzxq1vtv1ivc3jn7sg3anve1z,3d8you6s9ix7e3e8zbfbvqpfgcxu65,AeRpSGDf,2020-0188,2020-11-14,23:36:01,23:50:52,NA,incomplete,16,color,1,left,Purple_Star_Chess_2.jpg,Purple_Triangle_Stripes_1.jpg,Blue_Circle_Dots_2.jpg,left,642.2399999573827,true,low,false
AeRpSGDf,3hy86pzxq1vtv1ivc3jn7sg3anve1z,3d8you6s9ix7e3e8zbfbvqpfgcxu65,AeRpSGDf,2020-0188,2020-11-14,23:36:01,23:50:52,NA,incomplete,17,color,1,right,Red_Circle_Stripes_3.jpg,Purple_Triangle_Chess_3.jpg,Red_Plus_Dots_2.jpg,right,376.41000002622604,true,low,false
AeRpSGDf,3hy86pzxq1vtv1ivc3jn7sg3anve1z,3d8you6s9ix7e3e8zbfbvqpfgcxu65,AeRpSGDf,2020-0188,2020-11-14,23:36:01,23:50:52,NA,incomplete,18,color,1,right,Blue_Triangle_Chess_3.jpg,Green_Star_Dots_3.jpg,Blue_Plus_Grid_2.jpg,right,353.8950001820922,true,low,false
AeRpSGDf,3hy86pzxq1vtv1ivc3jn7sg3anve1z,3d8you6s9ix7e3e8zbfbvqpfgcxu65,AeRpSGDf,2020-0188,2020-11-14,23:36:01,23:50:52,NA,incomplete,19,color,1,right,Red_Star_Chess_2.jpg,Purple_Plus_Grid_2.jpg,Red_Triangle_Dots_1.jpg,right,406.8350000306964,true,low,false
AeRpSGDf,3hy86pzxq1vtv1ivc3jn7sg3anve1z,3d8you6s9ix7e3e8zbfbvqpfgcxu65,AeRpSGDf,2020-0188,2020-11-14,23:36:01,23:50:52,NA,incomplete,20,color,1,right,Red_Plus_Grid_1.jpg,Purple_Triangle_Dots_1.jpg,Red_Circle_Stripes_4.jpg,right,402.56999991834164,true,low,false
AeRpSGDf,3hy86pzxq1vtv1ivc3jn7sg3anve1z,3d8you6s9ix7e3e8zbfbvqpfgcxu65,AeRpSGDf,2020-0188,2020-11-14,23:36:01,23:50:52,NA,incomplete,21,color,1,right,Blue_Circle_Grid_4.jpg,Purple_Star_Stripes_4.jpg,Blue_Plus_Dots_3.jpg,right,351.18000023067,true,low,false
AeRpSGDf,3hy86pzxq1vtv1ivc3jn7sg3anve1z,3d8you6s9ix7e3e8zbfbvqpfgcxu65,AeRpSGDf,2020-0188,2020-11-14,23:36:01,23:50:52,NA,incomplete,22,color,1,right,Red_Circle_Stripes_2.jpg,Green_Plus_Grid_2.jpg,Red_Triangle_Dots_1.jpg,right,341.5899998508394,true,low,false
AeRpSGDf,3hy86pzxq1vtv1ivc3jn7sg3anve1z,3d8you6s9ix7e3e8zbfbvqpfgcxu65,AeRpSGDf,2020-0188,2020-11-14,23:36:01,23:50:52,NA,incomplete,23,color,1,left,Green_Star_Stripes_2.jpg,Green_Triangle_Dots_4.jpg,Blue_Circle_Grid_2.jpg,left,388.8900000602007,true,low,false
AeRpSGDf,3hy86pzxq1vtv1ivc3jn7sg3anve1z,3d8you6s9ix7e3e8zbfbvqpfgcxu65,AeRpSGDf,2020-0188,2020-11-14,23:36:01,23:50:52,NA,incomplete,24,color,1,left,Purple_Triangle_Grid_2.jpg,Purple_Star_Dots_4.jpg,Blue_Circle_Stripes_2.jpg,left,383.8150002993643,true,low,false
AeRpSGDf,3hy86pzxq1vtv1ivc3jn7sg3anve1z,3d8you6s9ix7e3e8zbfbvqpfgcxu65,AeRpSGDf,2020-0188,2020-11-14,23:36:01,23:50:52,NA,incomplete,25,color,1,right,Red_Circle_Dots_3.jpg,Green_Plus_Chess_3.jpg,Red_Star_Stripes_1.jpg,right,388.15500028431416,true,low,false
AeRpSGDf,3hy86pzxq1vtv1ivc3jn7sg3anve1z,3d8you6s9ix7e3e8zbfbvqpfgcxu65,AeRpSGDf,2020-0188,2020-11-14,23:36:01,23:50:52,NA,incomplete,26,color,1,left,Purple_Plus_Grid_1.jpg,Purple_Star_Dots_4.jpg,Green_Circle_Chess_1.jpg,left,385.69499971345067,true,low,false
AeRpSGDf,3hy86pzxq1vtv1ivc3jn7sg3anve1z,3d8you6s9ix7e3e8zbfbvqpfgcxu65,AeRpSGDf,2020-0188,2020-11-14,23:36:01,23:50:52,NA,incomplete,27,color,0,right,Blue_Triangle_Stripes_3.jpg,Green_Star_Dots_3.jpg,Blue_Circle_Chess_2.jpg,right,372.19500029459596,true,low,false
AeRpSGDf,3hy86pzxq1vtv1ivc3jn7sg3anve1z,3d8you6s9ix7e3e8zbfbvqpfgcxu65,AeRpSGDf,2020-0188,2020-11-14,23:36:01,23:50:52,NA,incomplete,28,color,1,right,Green_Circle_Grid_4.jpg,Blue_Star_Stripes_4.jpg,Green_Plus_Chess_2.jpg,right,377.2900002077222,true,low,false
AeRpSGDf,3hy86pzxq1vtv1ivc3jn7sg3anve1z,3d8you6s9ix7e3e8zbfbvqpfgcxu65,AeRpSGDf,2020-0188,2020-11-14,23:36:01,23:50:52,NA,incomplete,29,color,1,left,Purple_Star_Chess_1.jpg,Purple_Plus_Stripes_2.jpg,Green_Circle_Grid_1.jpg,left,378.3300002105534,true,low,false
AeRpSGDf,3hy86pzxq1vtv1ivc3jn7sg3anve1z,3d8you6s9ix7e3e8zbfbvqpfgcxu65,AeRpSGDf,2020-0188,2020-11-14,23:36:01,23:50:52,NA,incomplete,30,number,1,left,Green_Circle_Dots_1.jpg,Blue_Star_Chess_1.jpg,Green_Triangle_Stripes_3.jpg,right,331.559999845922,false,low,false
AeRpSGDf,3hy86pzxq1vtv1ivc3jn7sg3anve1z,3d8you6s9ix7e3e8zbfbvqpfgcxu65,AeRpSGDf,2020-0188,2020-11-14,23:36:01,23:50:52,NA,incomplete,31,number,0,left,Purple_Plus_Dots_3.jpg,Green_Circle_Stripes_3.jpg,Purple_Triangle_Chess_1.jpg,right,395.0650002807379,false,low,false
AeRpSGDf,3hy86pzxq1vtv1ivc3jn7sg3anve1z,3d8you6s9ix7e3e8zbfbvqpfgcxu65,AeRpSGDf,2020-0188,2020-11-14,23:36:01,23:50:52,NA,incomplete,32,number,1,left,Purple_Plus_Stripes_3.jpg,Blue_Triangle_Grid_3.jpg,Purple_Circle_Dots_4.jpg,right,351.4900002628565,false,low,false
AeRpSGDf,3hy86pzxq1vtv1ivc3jn7sg3anve1z,3d8you6s9ix7e3e8zbfbvqpfgcxu65,AeRpSGDf,2020-0188,2020-11-14,23:36:01,23:50:52,NA,incomplete,33,number,1,right,Purple_Plus_Grid_4.jpg,Purple_Circle_Stripes_2.jpg,Blue_Star_Chess_4.jpg,left,461.8199998512864,false,low,false
AeRpSGDf,3hy86pzxq1vtv1ivc3jn7sg3anve1z,3d8you6s9ix7e3e8zbfbvqpfgcxu65,AeRpSGDf,2020-0188,2020-11-14,23:36:01,23:50:52,NA,incomplete,34,number,1,left,Purple_Star_Chess_1.jpg,Red_Plus_Stripes_1.jpg,Purple_Circle_Dots_3.jpg,right,470.9649998694658,false,low,false
AeRpSGDf,3hy86pzxq1vtv1ivc3jn7sg3anve1z,3d8you6s9ix7e3e8zbfbvqpfgcxu65,AeRpSGDf,2020-0188,2020-11-14,23:36:01,23:50:52,NA,incomplete,35,number,1,left,Green_Circle_Dots_4.jpg,Purple_Triangle_Grid_4.jpg,Green_Star_Stripes_3.jpg,left,644.2399998195469,true,low,false
AeRpSGDf,3hy86pzxq1vtv1ivc3jn7sg3anve1z,3d8you6s9ix7e3e8zbfbvqpfgcxu65,AeRpSGDf,2020-0188,2020-11-14,23:36:01,23:50:52,NA,incomplete,36,number,1,left,Purple_Star_Stripes_2.jpg,Green_Plus_Dots_2.jpg,Purple_Circle_Chess_1.jpg,left,522.1500000916421,true,low,false
AeRpSGDf,3hy86pzxq1vtv1ivc3jn7sg3anve1z,3d8you6s9ix7e3e8zbfbvqpfgcxu65,AeRpSGDf,2020-0188,2020-11-14,23:36:01,23:50:52,NA,incomplete,37,number,1,right,Blue_Circle_Chess_3.jpg,Blue_Triangle_Grid_4.jpg,Purple_Plus_Dots_3.jpg,right,584.8900000564754,true,low,false
AeRpSGDf,3hy86pzxq1vtv1ivc3jn7sg3anve1z,3d8you6s9ix7e3e8zbfbvqpfgcxu65,AeRpSGDf,2020-0188,2020-11-14,23:36:01,23:50:52,NA,incomplete,38,number,0,right,Red_Circle_Chess_2.jpg,Red_Plus_Dots_3.jpg,Green_Star_Grid_2.jpg,right,486.71000031754375,true,low,false
AeRpSGDf,3hy86pzxq1vtv1ivc3jn7sg3anve1z,3d8you6s9ix7e3e8zbfbvqpfgcxu65,AeRpSGDf,2020-0188,2020-11-14,23:36:01,23:50:52,NA,incomplete,39,number,1,right,Red_Circle_Grid_3.jpg,Red_Star_Stripes_1.jpg,Blue_Triangle_Chess_3.jpg,right,502.7700001373887,true,low,false
AeRpSGDf,3hy86pzxq1vtv1ivc3jn7sg3anve1z,3d8you6s9ix7e3e8zbfbvqpfgcxu65,AeRpSGDf,2020-0188,2020-11-14,23:36:01,23:50:52,NA,incomplete,40,number,0,right,Red_Star_Grid_2.jpg,Red_Plus_Dots_3.jpg,Purple_Triangle_Chess_2.jpg,right,512.8999999724329,true,low,false
AeRpSGDf,3hy86pzxq1vtv1ivc3jn7sg3anve1z,3d8you6s9ix7e3e8zbfbvqpfgcxu65,AeRpSGDf,2020-0188,2020-11-14,23:36:01,23:50:52,NA,incomplete,41,number,1,right,Red_Circle_Stripes_4.jpg,Red_Star_Dots_2.jpg,Blue_Triangle_Chess_4.jpg,right,564.7399998269975,true,low,false
AeRpSGDf,3hy86pzxq1vtv1ivc3jn7sg3anve1z,3d8you6s9ix7e3e8zbfbvqpfgcxu65,AeRpSGDf,2020-0188,2020-11-14,23:36:01,23:50:52,NA,incomplete,42,number,1,right,Green_Star_Dots_2.jpg,Green_Triangle_Grid_4.jpg,Purple_Circle_Stripes_2.jpg,right,563.2549999281764,true,low,false
AeRpSGDf,3hy86pzxq1vtv1ivc3jn7sg3anve1z,3d8you6s9ix7e3e8zbfbvqpfgcxu65,AeRpSGDf,2020-0188,2020-11-14,23:36:01,23:50:52,NA,incomplete,43,number,0,right,Red_Circle_Chess_2.jpg,Red_Plus_Dots_4.jpg,Green_Star_Stripes_2.jpg,right,754.2699999175966,true,low,false
AeRpSGDf,3hy86pzxq1vtv1ivc3jn7sg3anve1z,3d8you6s9ix7e3e8zbfbvqpfgcxu65,AeRpSGDf,2020-0188,2020-11-14,23:36:01,23:50:52,NA,incomplete,44,number,1,left,Green_Triangle_Chess_3.jpg,Purple_Circle_Stripes_3.jpg,Green_Plus_Grid_1.jpg,left,600.380000192672,true,low,false
AeRpSGDf,3hy86pzxq1vtv1ivc3jn7sg3anve1z,3d8you6s9ix7e3e8zbfbvqpfgcxu65,AeRpSGDf,2020-0188,2020-11-14,23:36:01,23:50:52,NA,incomplete,45,number,1,left,Blue_Plus_Dots_1.jpg,Green_Star_Grid_1.jpg,Blue_Circle_Stripes_3.jpg,left,510.37999987602234,true,low,false
AeRpSGDf,3hy86pzxq1vtv1ivc3jn7sg3anve1z,3d8you6s9ix7e3e8zbfbvqpfgcxu65,AeRpSGDf,2020-0188,2020-11-14,23:36:01,23:50:52,NA,incomplete,46,number,1,left,Blue_Plus_Dots_3.jpg,Red_Triangle_Stripes_3.jpg,Blue_Star_Chess_2.jpg,left,625.7250001654029,true,low,false
AeRpSGDf,3hy86pzxq1vtv1ivc3jn7sg3anve1z,3d8you6s9ix7e3e8zbfbvqpfgcxu65,AeRpSGDf,2020-0188,2020-11-14,23:36:01,23:50:52,NA,incomplete,47,number,1,left,Purple_Plus_Stripes_2.jpg,Green_Circle_Dots_2.jpg,Purple_Star_Chess_4.jpg,left,670.1199999079108,true,low,false
AeRpSGDf,3hy86pzxq1vtv1ivc3jn7sg3anve1z,3d8you6s9ix7e3e8zbfbvqpfgcxu65,AeRpSGDf,2020-0188,2020-11-14,23:36:01,23:50:52,NA,incomplete,48,number,1,left,Blue_Circle_Grid_3.jpg,Purple_Plus_Dots_3.jpg,Blue_Triangle_Chess_1.jpg,left,591.3350000046194,true,low,false
AeRpSGDf,3hy86pzxq1vtv1ivc3jn7sg3anve1z,3d8you6s9ix7e3e8zbfbvqpfgcxu65,AeRpSGDf,2020-0188,2020-11-14,23:36:01,23:50:52,NA,incomplete,49,number,1,left,Red_Star_Stripes_3.jpg,Blue_Triangle_Dots_3.jpg,Red_Circle_Grid_2.jpg,left,571.6949999332428,true,low,false
AeRpSGDf,3hy86pzxq1vtv1ivc3jn7sg3anve1z,3d8you6s9ix7e3e8zbfbvqpfgcxu65,AeRpSGDf,2020-0188,2020-11-14,23:36:01,23:50:52,NA,incomplete,50,number,1,right,Green_Circle_Grid_2.jpg,Green_Triangle_Chess_4.jpg,Red_Plus_Dots_2.jpg,right,612.9099996760488,true,low,false
AeRpSGDf,3hy86pzxq1vtv1ivc3jn7sg3anve1z,3d8you6s9ix7e3e8zbfbvqpfgcxu65,AeRpSGDf,2020-0188,2020-11-14,23:36:01,23:50:52,NA,incomplete,51,number,1,right,Blue_Plus_Chess_2.jpg,Blue_Circle_Dots_4.jpg,Purple_Star_Stripes_2.jpg,right,613.0400002002716,true,low,false
AeRpSGDf,3hy86pzxq1vtv1ivc3jn7sg3anve1z,3d8you6s9ix7e3e8zbfbvqpfgcxu65,AeRpSGDf,2020-0188,2020-11-14,23:36:01,23:50:52,NA,incomplete,52,number,1,right,Blue_Star_Grid_1.jpg,Blue_Plus_Chess_4.jpg,Green_Circle_Stripes_1.jpg,right,528.3050001598895,true,low,false
AeRpSGDf,3hy86pzxq1vtv1ivc3jn7sg3anve1z,3d8you6s9ix7e3e8zbfbvqpfgcxu65,AeRpSGDf,2020-0188,2020-11-14,23:36:01,23:50:52,NA,incomplete,53,number,1,left,Blue_Star_Stripes_3.jpg,Purple_Triangle_Chess_3.jpg,Blue_Circle_Grid_4.jpg,left,518.7900001183152,true,low,false
AeRpSGDf,3hy86pzxq1vtv1ivc3jn7sg3anve1z,3d8you6s9ix7e3e8zbfbvqpfgcxu65,AeRpSGDf,2020-0188,2020-11-14,23:36:01,23:50:52,NA,incomplete,54,number,1,right,Blue_Star_Stripes_4.jpg,Blue_Plus_Grid_1.jpg,Green_Circle_Dots_4.jpg,right,534.5000000670552,true,low,false
AeRpSGDf,3hy86pzxq1vtv1ivc3jn7sg3anve1z,3d8you6s9ix7e3e8zbfbvqpfgcxu65,AeRpSGDf,2020-0188,2020-11-14,23:36:01,23:50:52,NA,incomplete,55,number,1,left,Red_Circle_Chess_4.jpg,Blue_Star_Dots_4.jpg,Red_Triangle_Grid_3.jpg,left,559.6549999900162,true,low,false
AeRpSGDf,3hy86pzxq1vtv1ivc3jn7sg3anve1z,3d8you6s9ix7e3e8zbfbvqpfgcxu65,AeRpSGDf,2020-0188,2020-11-14,23:36:01,23:50:52,NA,incomplete,56,number,1,left,Red_Circle_Grid_3.jpg,Blue_Plus_Dots_3.jpg,Red_Star_Stripes_4.jpg,left,529.6800001524389,true,low,false
AeRpSGDf,3hy86pzxq1vtv1ivc3jn7sg3anve1z,3d8you6s9ix7e3e8zbfbvqpfgcxu65,AeRpSGDf,2020-0188,2020-11-14,23:36:01,23:50:52,NA,incomplete,57,number,1,left,Green_Plus_Stripes_4.jpg,Purple_Triangle_Dots_4.jpg,Green_Circle_Chess_1.jpg,left,505.68499974906445,true,low,false
AeRpSGDf,3hy86pzxq1vtv1ivc3jn7sg3anve1z,3d8you6s9ix7e3e8zbfbvqpfgcxu65,AeRpSGDf,2020-0188,2020-11-14,23:36:01,23:50:52,NA,incomplete,58,number,1,right,Green_Triangle_Grid_1.jpg,Green_Circle_Dots_4.jpg,Purple_Plus_Chess_1.jpg,right,488.7850000523031,true,low,false
AeRpSGDf,3hy86pzxq1vtv1ivc3jn7sg3anve1z,3d8you6s9ix7e3e8zbfbvqpfgcxu65,AeRpSGDf,2020-0188,2020-11-14,23:36:01,23:50:52,NA,incomplete,59,number,1,left,Blue_Triangle_Grid_4.jpg,Red_Circle_Dots_4.jpg,Blue_Star_Stripes_2.jpg,left,497.5100001320243,true,low,false
AeRpSGDf,3hy86pzxq1vtv1ivc3jn7sg3anve1z,3d8you6s9ix7e3e8zbfbvqpfgcxu65,AeRpSGDf,2020-0188,2020-11-14,23:36:01,23:50:52,NA,incomplete,60,color,0,left,Purple_Circle_Dots_1.jpg,Purple_Triangle_Grid_2.jpg,Red_Star_Chess_1.jpg,right,475.3999998793006,false,low,false
AeRpSGDf,3hy86pzxq1vtv1ivc3jn7sg3anve1z,3d8you6s9ix7e3e8zbfbvqpfgcxu65,AeRpSGDf,2020-0188,2020-11-14,23:36:01,23:50:52,NA,incomplete,61,color,1,left,Purple_Plus_Stripes_4.jpg,Purple_Triangle_Dots_2.jpg,Blue_Star_Grid_4.jpg,right,494.609999936074,false,low,false
AeRpSGDf,3hy86pzxq1vtv1ivc3jn7sg3anve1z,3d8you6s9ix7e3e8zbfbvqpfgcxu65,AeRpSGDf,2020-0188,2020-11-14,23:36:01,23:50:52,NA,incomplete,62,color,1,left,Blue_Plus_Grid_2.jpg,Blue_Circle_Chess_4.jpg,Red_Star_Stripes_2.jpg,right,548.1650000438094,false,low,false
AeRpSGDf,3hy86pzxq1vtv1ivc3jn7sg3anve1z,3d8you6s9ix7e3e8zbfbvqpfgcxu65,AeRpSGDf,2020-0188,2020-11-14,23:36:01,23:50:52,NA,incomplete,63,color,1,right,Red_Circle_Stripes_1.jpg,Purple_Triangle_Chess_1.jpg,Red_Plus_Grid_2.jpg,left,553.6199999041855,false,low,false
AeRpSGDf,3hy86pzxq1vtv1ivc3jn7sg3anve1z,3d8you6s9ix7e3e8zbfbvqpfgcxu65,AeRpSGDf,2020-0188,2020-11-14,23:36:01,23:50:52,NA,incomplete,64,color,1,left,Blue_Triangle_Stripes_4.jpg,Blue_Plus_Chess_1.jpg,Green_Star_Grid_4.jpg,left,800.760000012815,true,low,false
AeRpSGDf,3hy86pzxq1vtv1ivc3jn7sg3anve1z,3d8you6s9ix7e3e8zbfbvqpfgcxu65,AeRpSGDf,2020-0188,2020-11-14,23:36:01,23:50:52,NA,incomplete,65,color,1,left,Blue_Circle_Stripes_3.jpg,Blue_Star_Dots_1.jpg,Purple_Triangle_Grid_3.jpg,left,395.80499986186624,true,low,false
AeRpSGDf,3hy86pzxq1vtv1ivc3jn7sg3anve1z,3d8you6s9ix7e3e8zbfbvqpfgcxu65,AeRpSGDf,2020-0188,2020-11-14,23:36:01,23:50:52,NA,incomplete,66,color,1,left,Green_Triangle_Dots_3.jpg,Green_Circle_Stripes_2.jpg,Blue_Plus_Grid_3.jpg,left,402.6649999432266,true,low,false
AeRpSGDf,3hy86pzxq1vtv1ivc3jn7sg3anve1z,3d8you6s9ix7e3e8zbfbvqpfgcxu65,AeRpSGDf,2020-0188,2020-11-14,23:36:01,23:50:52,NA,incomplete,67,color,0,right,Red_Triangle_Chess_2.jpg,Blue_Star_Grid_2.jpg,Red_Circle_Stripes_1.jpg,right,379.5000002719462,true,low,false
AeRpSGDf,3hy86pzxq1vtv1ivc3jn7sg3anve1z,3d8you6s9ix7e3e8zbfbvqpfgcxu65,AeRpSGDf,2020-0188,2020-11-14,23:36:01,23:50:52,NA,incomplete,68,color,1,right,Red_Triangle_Dots_2.jpg,Blue_Star_Stripes_2.jpg,Red_Plus_Chess_3.jpg,right,401.23500023037195,true,low,false
AeRpSGDf,3hy86pzxq1vtv1ivc3jn7sg3anve1z,3d8you6s9ix7e3e8zbfbvqpfgcxu65,AeRpSGDf,2020-0188,2020-11-14,23:36:01,23:50:52,NA,incomplete,69,color,1,right,Blue_Star_Dots_2.jpg,Red_Plus_Grid_2.jpg,Blue_Triangle_Stripes_3.jpg,right,366.35500006377697,true,low,false
AeRpSGDf,3hy86pzxq1vtv1ivc3jn7sg3anve1z,3d8you6s9ix7e3e8zbfbvqpfgcxu65,AeRpSGDf,2020-0188,2020-11-14,23:36:01,23:50:52,NA,incomplete,70,color,1,left,Purple_Triangle_Grid_4.jpg,Purple_Star_Chess_2.jpg,Red_Plus_Stripes_4.jpg,left,474.82999972999096,true,low,false
AeRpSGDf,3hy86pzxq1vtv1ivc3jn7sg3anve1z,3d8you6s9ix7e3e8zbfbvqpfgcxu65,AeRpSGDf,2020-0188,2020-11-14,23:36:01,23:50:52,NA,incomplete,71,color,1,left,Green_Triangle_Stripes_2.jpg,Green_Plus_Chess_4.jpg,Purple_Circle_Dots_2.jpg,left,395.19499987363815,true,low,false
AeRpSGDf,3hy86pzxq1vtv1ivc3jn7sg3anve1z,3d8you6s9ix7e3e8zbfbvqpfgcxu65,AeRpSGDf,2020-0188,2020-11-14,23:36:01,23:50:52,NA,incomplete,72,color,1,left,Blue_Triangle_Dots_1.jpg,Blue_Plus_Grid_2.jpg,Red_Star_Chess_1.jpg,left,402.5550000369549,true,low,false
AeRpSGDf,3hy86pzxq1vtv1ivc3jn7sg3anve1z,3d8you6s9ix7e3e8zbfbvqpfgcxu65,AeRpSGDf,2020-0188,2020-11-14,23:36:01,23:50:52,NA,incomplete,73,color,0,left,Purple_Plus_Chess_2.jpg,Purple_Star_Stripes_3.jpg,Green_Triangle_Grid_2.jpg,left,387.8349997103214,true,low,false
AeRpSGDf,3hy86pzxq1vtv1ivc3jn7sg3anve1z,3d8you6s9ix7e3e8zbfbvqpfgcxu65,AeRpSGDf,2020-0188,2020-11-14,23:36:01,23:50:52,NA,incomplete,74,color,1,left,Green_Circle_Dots_2.jpg,Green_Star_Chess_3.jpg,Blue_Plus_Stripes_2.jpg,left,408.629999961704,true,low,false
AeRpSGDf,3hy86pzxq1vtv1ivc3jn7sg3anve1z,3d8you6s9ix7e3e8zbfbvqpfgcxu65,AeRpSGDf,2020-0188,2020-11-14,23:36:01,23:50:52,NA,incomplete,75,color,1,left,Purple_Triangle_Dots_3.jpg,Purple_Star_Grid_1.jpg,Green_Plus_Stripes_3.jpg,left,420.60000030323863,true,low,false
AeRpSGDf,3hy86pzxq1vtv1ivc3jn7sg3anve1z,3d8you6s9ix7e3e8zbfbvqpfgcxu65,AeRpSGDf,2020-0188,2020-11-14,23:36:01,23:50:52,NA,incomplete,76,color,1,right,Green_Circle_Chess_2.jpg,Red_Triangle_Dots_2.jpg,Green_Plus_Stripes_4.jpg,right,392.299999948591,true,low,false
AeRpSGDf,3hy86pzxq1vtv1ivc3jn7sg3anve1z,3d8you6s9ix7e3e8zbfbvqpfgcxu65,AeRpSGDf,2020-0188,2020-11-14,23:36:01,23:50:52,NA,incomplete,77,color,0,left,Blue_Plus_Stripes_2.jpg,Blue_Triangle_Grid_1.jpg,Red_Star_Dots_2.jpg,left,355.92499980702996,true,low,false
AeRpSGDf,3hy86pzxq1vtv1ivc3jn7sg3anve1z,3d8you6s9ix7e3e8zbfbvqpfgcxu65,AeRpSGDf,2020-0188,2020-11-14,23:36:01,23:50:52,NA,incomplete,78,color,0,left,Purple_Triangle_Chess_1.jpg,Purple_Star_Grid_2.jpg,Blue_Plus_Stripes_1.jpg,left,413.53000001981854,true,low,false
AeRpSGDf,3hy86pzxq1vtv1ivc3jn7sg3anve1z,3d8you6s9ix7e3e8zbfbvqpfgcxu65,AeRpSGDf,2020-0188,2020-11-14,23:36:01,23:50:52,NA,incomplete,79,color,0,right,Green_Star_Grid_2.jpg,Red_Plus_Dots_2.jpg,Green_Circle_Chess_1.jpg,right,397.54500007256866,true,low,false
AeRpSGDf,3hy86pzxq1vtv1ivc3jn7sg3anve1z,3d8you6s9ix7e3e8zbfbvqpfgcxu65,AeRpSGDf,2020-0188,2020-11-14,23:36:01,23:50:52,NA,incomplete,80,color,1,left,Blue_Plus_Chess_3.jpg,Blue_Circle_Stripes_1.jpg,Red_Triangle_Dots_3.jpg,right,546.0600000806153,false,low,false
AeRpSGDf,3hy86pzxq1vtv1ivc3jn7sg3anve1z,3d8you6s9ix7e3e8zbfbvqpfgcxu65,AeRpSGDf,2020-0188,2020-11-14,23:36:01,23:50:52,NA,incomplete,81,color,1,left,Green_Triangle_Dots_4.jpg,Green_Circle_Chess_2.jpg,Red_Plus_Stripes_4.jpg,right,768.879999872297,false,low,false
AeRpSGDf,3hy86pzxq1vtv1ivc3jn7sg3anve1z,3d8you6s9ix7e3e8zbfbvqpfgcxu65,AeRpSGDf,2020-0188,2020-11-14,23:36:01,23:50:52,NA,incomplete,82,color,1,left,Blue_Plus_Chess_1.jpg,Blue_Circle_Stripes_4.jpg,Purple_Star_Dots_1.jpg,left,1542.2650002874434,true,low,false
AeRpSGDf,3hy86pzxq1vtv1ivc3jn7sg3anve1z,3d8you6s9ix7e3e8zbfbvqpfgcxu65,AeRpSGDf,2020-0188,2020-11-14,23:36:01,23:50:52,NA,incomplete,83,color,1,left,Purple_Plus_Stripes_2.jpg,Purple_Circle_Grid_3.jpg,Green_Star_Dots_2.jpg,left,423.0200001038611,true,low,false
AeRpSGDf,3hy86pzxq1vtv1ivc3jn7sg3anve1z,3d8you6s9ix7e3e8zbfbvqpfgcxu65,AeRpSGDf,2020-0188,2020-11-14,23:36:01,23:50:52,NA,incomplete,84,color,1,right,Purple_Star_Dots_1.jpg,Blue_Circle_Chess_1.jpg,Purple_Triangle_Stripes_3.jpg,right,422.2299996763468,true,low,false
AeRpSGDf,3hy86pzxq1vtv1ivc3jn7sg3anve1z,3d8you6s9ix7e3e8zbfbvqpfgcxu65,AeRpSGDf,2020-0188,2020-11-14,23:36:01,23:50:52,NA,incomplete,85,color,0,right,Red_Star_Chess_3.jpg,Purple_Plus_Stripes_3.jpg,Red_Circle_Dots_1.jpg,right,505.83500042557716,true,low,false
AeRpSGDf,3hy86pzxq1vtv1ivc3jn7sg3anve1z,3d8you6s9ix7e3e8zbfbvqpfgcxu65,AeRpSGDf,2020-0188,2020-11-14,23:36:01,23:50:52,NA,incomplete,86,color,1,right,Blue_Circle_Chess_2.jpg,Red_Triangle_Grid_2.jpg,Blue_Star_Stripes_3.jpg,right,417.89499996230006,true,low,false
AeRpSGDf,3hy86pzxq1vtv1ivc3jn7sg3anve1z,3d8you6s9ix7e3e8zbfbvqpfgcxu65,AeRpSGDf,2020-0188,2020-11-14,23:36:01,23:50:52,NA,incomplete,87,color,1,left,Purple_Star_Grid_4.jpg,Purple_Triangle_Chess_1.jpg,Blue_Circle_Dots_4.jpg,left,396.7249998822808,true,low,false
AeRpSGDf,3hy86pzxq1vtv1ivc3jn7sg3anve1z,3d8you6s9ix7e3e8zbfbvqpfgcxu65,AeRpSGDf,2020-0188,2020-11-14,23:36:01,23:50:52,NA,incomplete,88,color,1,left,Red_Triangle_Grid_2.jpg,Red_Star_Stripes_4.jpg,Purple_Circle_Chess_2.jpg,left,401.79499983787537,true,low,false
AeRpSGDf,3hy86pzxq1vtv1ivc3jn7sg3anve1z,3d8you6s9ix7e3e8zbfbvqpfgcxu65,AeRpSGDf,2020-0188,2020-11-14,23:36:01,23:50:52,NA,incomplete,89,color,1,right,Purple_Circle_Stripes_3.jpg,Blue_Triangle_Dots_3.jpg,Purple_Plus_Chess_1.jpg,right,430.9849999845028,true,low,false
AeRpSGDf,3hy86pzxq1vtv1ivc3jn7sg3anve1z,3d8you6s9ix7e3e8zbfbvqpfgcxu65,AeRpSGDf,2020-0188,2020-11-14,23:36:01,23:50:52,NA,incomplete,90,number,1,right,Blue_Star_Stripes_1.jpg,Blue_Plus_Grid_4.jpg,Purple_Triangle_Chess_1.jpg,left,375.8350000716746,false,low,false
AeRpSGDf,3hy86pzxq1vtv1ivc3jn7sg3anve1z,3d8you6s9ix7e3e8zbfbvqpfgcxu65,AeRpSGDf,2020-0188,2020-11-14,23:36:01,23:50:52,NA,incomplete,91,number,1,left,Blue_Star_Stripes_2.jpg,Green_Plus_Grid_2.jpg,Blue_Circle_Chess_3.jpg,right,397.5899997167289,false,low,false
AeRpSGDf,3hy86pzxq1vtv1ivc3jn7sg3anve1z,3d8you6s9ix7e3e8zbfbvqpfgcxu65,AeRpSGDf,2020-0188,2020-11-14,23:36:01,23:50:52,NA,incomplete,92,number,1,right,Purple_Plus_Grid_1.jpg,Purple_Triangle_Dots_2.jpg,Green_Circle_Chess_1.jpg,left,425.4549997858703,false,low,false
AeRpSGDf,3hy86pzxq1vtv1ivc3jn7sg3anve1z,3d8you6s9ix7e3e8zbfbvqpfgcxu65,AeRpSGDf,2020-0188,2020-11-14,23:36:01,23:50:52,NA,incomplete,93,number,1,right,Green_Triangle_Dots_1.jpg,Green_Star_Stripes_3.jpg,Blue_Plus_Grid_1.jpg,left,355.3700000047684,false,low,false
AeRpSGDf,3hy86pzxq1vtv1ivc3jn7sg3anve1z,3d8you6s9ix7e3e8zbfbvqpfgcxu65,AeRpSGDf,2020-0188,2020-11-14,23:36:01,23:50:52,NA,incomplete,94,number,1,left,Red_Plus_Dots_4.jpg,Green_Circle_Grid_4.jpg,Red_Star_Stripes_1.jpg,left,570.3650000505149,true,low,false
AeRpSGDf,3hy86pzxq1vtv1ivc3jn7sg3anve1z,3d8you6s9ix7e3e8zbfbvqpfgcxu65,AeRpSGDf,2020-0188,2020-11-14,23:36:01,23:50:52,NA,incomplete,95,number,1,left,Purple_Plus_Grid_3.jpg,Blue_Circle_Dots_3.jpg,Purple_Star_Chess_1.jpg,left,585.010000038892,true,low,false
AeRpSGDf,3hy86pzxq1vtv1ivc3jn7sg3anve1z,3d8you6s9ix7e3e8zbfbvqpfgcxu65,AeRpSGDf,2020-0188,2020-11-14,23:36:01,23:50:52,NA,incomplete,96,number,1,left,Blue_Triangle_Dots_3.jpg,Red_Star_Stripes_3.jpg,Blue_Circle_Chess_4.jpg,left,556.4800002612174,true,low,false
AeRpSGDf,3hy86pzxq1vtv1ivc3jn7sg3anve1z,3d8you6s9ix7e3e8zbfbvqpfgcxu65,AeRpSGDf,2020-0188,2020-11-14,23:36:01,23:50:52,NA,incomplete,97,number,1,right,Red_Plus_Chess_3.jpg,Red_Star_Grid_4.jpg,Purple_Triangle_Dots_3.jpg,right,601.885000243783,true,low,false
AeRpSGDf,3hy86pzxq1vtv1ivc3jn7sg3anve1z,3d8you6s9ix7e3e8zbfbvqpfgcxu65,AeRpSGDf,2020-0188,2020-11-14,23:36:01,23:50:52,NA,incomplete,98,number,0,right,Purple_Circle_Dots_3.jpg,Purple_Star_Chess_4.jpg,Blue_Triangle_Stripes_3.jpg,right,517.8400003351271,true,low,false
AeRpSGDf,3hy86pzxq1vtv1ivc3jn7sg3anve1z,3d8you6s9ix7e3e8zbfbvqpfgcxu65,AeRpSGDf,2020-0188,2020-11-14,23:36:01,23:50:52,NA,incomplete,99,number,1,right,Blue_Circle_Grid_4.jpg,Blue_Star_Stripes_1.jpg,Red_Plus_Dots_4.jpg,right,563.6300002224743,true,low,false
AeRpSGDf,3hy86pzxq1vtv1ivc3jn7sg3anve1z,3d8you6s9ix7e3e8zbfbvqpfgcxu65,AeRpSGDf,2020-0188,2020-11-14,23:36:01,23:50:52,NA,incomplete,100,number,1,left,Blue_Triangle_Grid_4.jpg,Purple_Star_Stripes_4.jpg,Blue_Circle_Dots_2.jpg,left,565.3900001198053,true,low,false
AeRpSGDf,3hy86pzxq1vtv1ivc3jn7sg3anve1z,3d8you6s9ix7e3e8zbfbvqpfgcxu65,AeRpSGDf,2020-0188,2020-11-14,23:36:01,23:50:52,NA,incomplete,101,number,1,left,Green_Plus_Grid_3.jpg,Blue_Circle_Stripes_3.jpg,Green_Star_Dots_2.jpg,left,672.6350001990795,true,low,false
AeRpSGDf,3hy86pzxq1vtv1ivc3jn7sg3anve1z,3d8you6s9ix7e3e8zbfbvqpfgcxu65,AeRpSGDf,2020-0188,2020-11-14,23:36:01,23:50:52,NA,incomplete,102,number,1,right,Red_Triangle_Stripes_4.jpg,Red_Circle_Chess_3.jpg,Purple_Star_Grid_4.jpg,right,609.7550000995398,true,low,false
AeRpSGDf,3hy86pzxq1vtv1ivc3jn7sg3anve1z,3d8you6s9ix7e3e8zbfbvqpfgcxu65,AeRpSGDf,2020-0188,2020-11-14,23:36:01,23:50:52,NA,incomplete,103,number,1,right,Red_Plus_Dots_2.jpg,Red_Star_Stripes_3.jpg,Blue_Circle_Grid_2.jpg,right,677.0600001327693,true,low,false
AeRpSGDf,3hy86pzxq1vtv1ivc3jn7sg3anve1z,3d8you6s9ix7e3e8zbfbvqpfgcxu65,AeRpSGDf,2020-0188,2020-11-14,23:36:01,23:50:52,NA,incomplete,104,number,0,right,Blue_Circle_Stripes_4.jpg,Blue_Star_Dots_2.jpg,Green_Triangle_Grid_4.jpg,right,533.6699998006225,true,low,false
AeRpSGDf,3hy86pzxq1vtv1ivc3jn7sg3anve1z,3d8you6s9ix7e3e8zbfbvqpfgcxu65,AeRpSGDf,2020-0188,2020-11-14,23:36:01,23:50:52,NA,incomplete,105,number,1,right,Blue_Circle_Grid_2.jpg,Blue_Plus_Dots_4.jpg,Purple_Triangle_Chess_2.jpg,right,558.7450000457466,true,low,false
AeRpSGDf,3hy86pzxq1vtv1ivc3jn7sg3anve1z,3d8you6s9ix7e3e8zbfbvqpfgcxu65,AeRpSGDf,2020-0188,2020-11-14,23:36:01,23:50:52,NA,incomplete,106,number,1,right,Purple_Plus_Grid_1.jpg,Purple_Star_Stripes_4.jpg,Red_Circle_Dots_1.jpg,right,531.3849998638034,true,low,false
AeRpSGDf,3hy86pzxq1vtv1ivc3jn7sg3anve1z,3d8you6s9ix7e3e8zbfbvqpfgcxu65,AeRpSGDf,2020-0188,2020-11-14,23:36:01,23:50:52,NA,incomplete,107,number,1,right,Green_Plus_Dots_3.jpg,Green_Circle_Chess_2.jpg,Red_Triangle_Grid_3.jpg,right,578.1299998052418,true,low,false
AeRpSGDf,3hy86pzxq1vtv1ivc3jn7sg3anve1z,3d8you6s9ix7e3e8zbfbvqpfgcxu65,AeRpSGDf,2020-0188,2020-11-14,23:36:01,23:50:52,NA,incomplete,108,number,1,right,Blue_Triangle_Dots_1.jpg,Blue_Circle_Grid_2.jpg,Red_Plus_Chess_1.jpg,right,760.3050000034273,true,low,false
AeRpSGDf,3hy86pzxq1vtv1ivc3jn7sg3anve1z,3d8you6s9ix7e3e8zbfbvqpfgcxu65,AeRpSGDf,2020-0188,2020-11-14,23:36:01,23:50:52,NA,incomplete,109,number,0,left,Red_Plus_Stripes_1.jpg,Green_Star_Grid_1.jpg,Red_Triangle_Dots_3.jpg,left,484.0700002387166,true,low,false
AeRpSGDf,3hy86pzxq1vtv1ivc3jn7sg3anve1z,3d8you6s9ix7e3e8zbfbvqpfgcxu65,AeRpSGDf,2020-0188,2020-11-14,23:36:01,23:50:52,NA,incomplete,110,number,1,left,Red_Circle_Chess_3.jpg,Blue_Plus_Dots_3.jpg,Red_Star_Grid_2.jpg,left,584.2550001107156,true,low,false
AeRpSGDf,3hy86pzxq1vtv1ivc3jn7sg3anve1z,3d8you6s9ix7e3e8zbfbvqpfgcxu65,AeRpSGDf,2020-0188,2020-11-14,23:36:01,23:50:52,NA,incomplete,111,number,1,right,Blue_Plus_Stripes_2.jpg,Blue_Triangle_Dots_1.jpg,Green_Star_Grid_2.jpg,right,617.0300003141165,true,low,false
AeRpSGDf,3hy86pzxq1vtv1ivc3jn7sg3anve1z,3d8you6s9ix7e3e8zbfbvqpfgcxu65,AeRpSGDf,2020-0188,2020-11-14,23:36:01,23:50:52,NA,incomplete,112,number,1,right,Red_Star_Dots_4.jpg,Red_Circle_Chess_3.jpg,Blue_Triangle_Stripes_4.jpg,left,820.1399999670684,false,low,false
AeRpSGDf,3hy86pzxq1vtv1ivc3jn7sg3anve1z,3d8you6s9ix7e3e8zbfbvqpfgcxu65,AeRpSGDf,2020-0188,2020-11-14,23:36:01,23:50:52,NA,incomplete,113,number,0,right,Green_Plus_Grid_3.jpg,Green_Circle_Stripes_4.jpg,Purple_Star_Chess_3.jpg,right,806.924999691546,true,low,false
AeRpSGDf,3hy86pzxq1vtv1ivc3jn7sg3anve1z,3d8you6s9ix7e3e8zbfbvqpfgcxu65,AeRpSGDf,2020-0188,2020-11-14,23:36:01,23:50:52,NA,incomplete,114,number,0,left,Blue_Triangle_Grid_3.jpg,Red_Circle_Chess_3.jpg,Blue_Plus_Dots_1.jpg,left,754.9300002865493,true,low,false
AeRpSGDf,3hy86pzxq1vtv1ivc3jn7sg3anve1z,3d8you6s9ix7e3e8zbfbvqpfgcxu65,AeRpSGDf,2020-0188,2020-11-14,23:36:01,23:50:52,NA,incomplete,115,number,0,left,Purple_Star_Stripes_4.jpg,Blue_Plus_Dots_4.jpg,Purple_Triangle_Grid_2.jpg,right,556.6249997355044,false,low,false
AeRpSGDf,3hy86pzxq1vtv1ivc3jn7sg3anve1z,3d8you6s9ix7e3e8zbfbvqpfgcxu65,AeRpSGDf,2020-0188,2020-11-14,23:36:01,23:50:52,NA,incomplete,116,number,0,left,Red_Plus_Stripes_4.jpg,Green_Triangle_Dots_4.jpg,Red_Circle_Grid_1.jpg,right,525.970000308007,false,low,false
AeRpSGDf,3hy86pzxq1vtv1ivc3jn7sg3anve1z,3d8you6s9ix7e3e8zbfbvqpfgcxu65,AeRpSGDf,2020-0188,2020-11-14,23:36:01,23:50:52,NA,incomplete,117,number,1,right,Green_Plus_Grid_2.jpg,Green_Triangle_Chess_4.jpg,Red_Circle_Stripes_2.jpg,left,580.5700002238154,false,low,false
AeRpSGDf,3hy86pzxq1vtv1ivc3jn7sg3anve1z,3d8you6s9ix7e3e8zbfbvqpfgcxu65,AeRpSGDf,2020-0188,2020-11-14,23:36:01,23:50:52,NA,incomplete,118,number,0,right,Blue_Star_Grid_2.jpg,Blue_Circle_Dots_4.jpg,Green_Triangle_Stripes_2.jpg,left,419.0299999900162,false,low,false
AeRpSGDf,3hy86pzxq1vtv1ivc3jn7sg3anve1z,3d8you6s9ix7e3e8zbfbvqpfgcxu65,AeRpSGDf,2020-0188,2020-11-14,23:36:01,23:50:52,NA,incomplete,119,number,1,left,Green_Triangle_Grid_1.jpg,Red_Circle_Chess_1.jpg,Green_Plus_Dots_2.jpg,right,374.34000009670854,false,low,false
AeRpSGDf,3hy86pzxq1vtv1ivc3jn7sg3anve1z,3d8you6s9ix7e3e8zbfbvqpfgcxu65,AeRpSGDf,2020-0188,2020-11-14,23:36:01,23:50:52,NA,incomplete,120,color,1,right,Purple_Plus_Chess_2.jpg,Blue_Circle_Stripes_2.jpg,Purple_Triangle_Grid_4.jpg,right,394.72000021487474,true,low,false
AeRpSGDf,3hy86pzxq1vtv1ivc3jn7sg3anve1z,3d8you6s9ix7e3e8zbfbvqpfgcxu65,AeRpSGDf,2020-0188,2020-11-14,23:36:01,23:50:52,NA,incomplete,121,color,0,left,Green_Star_Stripes_3.jpg,Green_Triangle_Chess_2.jpg,Purple_Plus_Grid_3.jpg,left,410.8700002543628,true,low,false
AeRpSGDf,3hy86pzxq1vtv1ivc3jn7sg3anve1z,3d8you6s9ix7e3e8zbfbvqpfgcxu65,AeRpSGDf,2020-0188,2020-11-14,23:36:01,23:50:52,NA,incomplete,122,color,1,right,Purple_Circle_Stripes_3.jpg,Blue_Plus_Chess_3.jpg,Purple_Triangle_Dots_2.jpg,right,468.29500002786517,true,low,false
AeRpSGDf,3hy86pzxq1vtv1ivc3jn7sg3anve1z,3d8you6s9ix7e3e8zbfbvqpfgcxu65,AeRpSGDf,2020-0188,2020-11-14,23:36:01,23:50:52,NA,incomplete,123,color,1,left,Red_Star_Dots_1.jpg,Red_Plus_Stripes_3.jpg,Green_Triangle_Grid_1.jpg,left,548.115000128746,true,low,false
AeRpSGDf,3hy86pzxq1vtv1ivc3jn7sg3anve1z,3d8you6s9ix7e3e8zbfbvqpfgcxu65,AeRpSGDf,2020-0188,2020-11-14,23:36:01,23:50:52,NA,incomplete,124,color,1,right,Purple_Triangle_Grid_1.jpg,Blue_Circle_Stripes_1.jpg,Purple_Plus_Chess_4.jpg,right,386.5399998612702,true,low,false
AeRpSGDf,3hy86pzxq1vtv1ivc3jn7sg3anve1z,3d8you6s9ix7e3e8zbfbvqpfgcxu65,AeRpSGDf,2020-0188,2020-11-14,23:36:01,23:50:52,NA,incomplete,125,color,1,left,Purple_Plus_Chess_2.jpg,Purple_Circle_Stripes_1.jpg,Green_Triangle_Dots_2.jpg,left,526.7549999989569,true,low,false
AeRpSGDf,3hy86pzxq1vtv1ivc3jn7sg3anve1z,3d8you6s9ix7e3e8zbfbvqpfgcxu65,AeRpSGDf,2020-0188,2020-11-14,23:36:01,23:50:52,NA,incomplete,126,color,0,left,Green_Triangle_Dots_1.jpg,Green_Star_Chess_3.jpg,Red_Plus_Stripes_1.jpg,left,390.3399999253452,true,low,false
AeRpSGDf,3hy86pzxq1vtv1ivc3jn7sg3anve1z,3d8you6s9ix7e3e8zbfbvqpfgcxu65,AeRpSGDf,2020-0188,2020-11-14,23:36:01,23:50:52,NA,incomplete,127,color,1,right,Blue_Circle_Chess_3.jpg,Purple_Star_Grid_3.jpg,Blue_Triangle_Stripes_1.jpg,right,420.9449999034405,true,low,false
AeRpSGDf,3hy86pzxq1vtv1ivc3jn7sg3anve1z,3d8you6s9ix7e3e8zbfbvqpfgcxu65,AeRpSGDf,2020-0188,2020-11-14,23:36:01,23:50:52,NA,incomplete,128,color,1,right,Green_Circle_Dots_3.jpg,Blue_Star_Grid_3.jpg,Green_Triangle_Stripes_2.jpg,right,391.4600000716746,true,low,false
AeRpSGDf,3hy86pzxq1vtv1ivc3jn7sg3anve1z,3d8you6s9ix7e3e8zbfbvqpfgcxu65,AeRpSGDf,2020-0188,2020-11-14,23:36:01,23:50:52,NA,incomplete,129,color,1,right,Purple_Circle_Grid_4.jpg,Blue_Triangle_Chess_4.jpg,Purple_Plus_Stripes_1.jpg,right,587.1399999596179,true,low,false
AeRpSGDf,3hy86pzxq1vtv1ivc3jn7sg3anve1z,3d8you6s9ix7e3e8zbfbvqpfgcxu65,AeRpSGDf,2020-0188,2020-11-14,23:36:01,23:50:52,NA,incomplete,130,color,0,left,Green_Star_Stripes_3.jpg,Green_Circle_Dots_1.jpg,Blue_Triangle_Chess_3.jpg,left,509.9550001323223,true,low,false
AeRpSGDf,3hy86pzxq1vtv1ivc3jn7sg3anve1z,3d8you6s9ix7e3e8zbfbvqpfgcxu65,AeRpSGDf,2020-0188,2020-11-14,23:36:01,23:50:52,NA,incomplete,131,color,1,right,Red_Plus_Dots_4.jpg,Green_Circle_Chess_4.jpg,Red_Star_Grid_2.jpg,right,405.5249998345971,true,low,false
AeRpSGDf,3hy86pzxq1vtv1ivc3jn7sg3anve1z,3d8you6s9ix7e3e8zbfbvqpfgcxu65,AeRpSGDf,2020-0188,2020-11-14,23:36:01,23:50:52,NA,incomplete,132,color,1,left,Blue_Star_Grid_1.jpg,Blue_Triangle_Stripes_3.jpg,Purple_Plus_Dots_1.jpg,left,433.39999997988343,true,low,false
AeRpSGDf,3hy86pzxq1vtv1ivc3jn7sg3anve1z,3d8you6s9ix7e3e8zbfbvqpfgcxu65,AeRpSGDf,2020-0188,2020-11-14,23:36:01,23:50:52,NA,incomplete,133,color,1,right,Purple_Plus_Chess_1.jpg,Red_Star_Stripes_1.jpg,Purple_Triangle_Grid_4.jpg,right,470.7899997010827,true,low,false
AeRpSGDf,3hy86pzxq1vtv1ivc3jn7sg3anve1z,3d8you6s9ix7e3e8zbfbvqpfgcxu65,AeRpSGDf,2020-0188,2020-11-14,23:36:01,23:50:52,NA,incomplete,134,color,1,left,Purple_Star_Stripes_3.jpg,Purple_Triangle_Dots_1.jpg,Green_Plus_Grid_3.jpg,left,485.4150000028312,true,low,false
AeRpSGDf,3hy86pzxq1vtv1ivc3jn7sg3anve1z,3d8you6s9ix7e3e8zbfbvqpfgcxu65,AeRpSGDf,2020-0188,2020-11-14,23:36:01,23:50:52,NA,incomplete,135,color,0,right,Blue_Plus_Dots_1.jpg,Green_Triangle_Grid_1.jpg,Blue_Circle_Stripes_4.jpg,right,398.90499971807003,true,low,false
AeRpSGDf,3hy86pzxq1vtv1ivc3jn7sg3anve1z,3d8you6s9ix7e3e8zbfbvqpfgcxu65,AeRpSGDf,2020-0188,2020-11-14,23:36:01,23:50:52,NA,incomplete,136,color,1,right,Purple_Triangle_Dots_2.jpg,Blue_Plus_Grid_2.jpg,Purple_Star_Stripes_4.jpg,right,435.21999986842275,true,low,false
AeRpSGDf,3hy86pzxq1vtv1ivc3jn7sg3anve1z,3d8you6s9ix7e3e8zbfbvqpfgcxu65,AeRpSGDf,2020-0188,2020-11-14,23:36:01,23:50:52,NA,incomplete,137,color,1,left,Blue_Star_Chess_4.jpg,Blue_Circle_Stripes_2.jpg,Green_Plus_Dots_4.jpg,left,412.65999991446733,true,low,false
AeRpSGDf,3hy86pzxq1vtv1ivc3jn7sg3anve1z,3d8you6s9ix7e3e8zbfbvqpfgcxu65,AeRpSGDf,2020-0188,2020-11-14,23:36:01,23:50:52,NA,incomplete,138,color,0,left,Green_Triangle_Chess_3.jpg,Green_Plus_Stripes_4.jpg,Purple_Star_Grid_3.jpg,left,391.78500045090914,true,low,false
AeRpSGDf,3hy86pzxq1vtv1ivc3jn7sg3anve1z,3d8you6s9ix7e3e8zbfbvqpfgcxu65,AeRpSGDf,2020-0188,2020-11-14,23:36:01,23:50:52,NA,incomplete,139,color,1,left,Green_Triangle_Stripes_1.jpg,Green_Star_Dots_2.jpg,Blue_Plus_Grid_1.jpg,left,393.18000013008714,true,low,false
AeRpSGDf,3hy86pzxq1vtv1ivc3jn7sg3anve1z,3d8you6s9ix7e3e8zbfbvqpfgcxu65,AeRpSGDf,2020-0188,2020-11-14,23:36:01,23:50:52,NA,incomplete,140,number,1,left,Red_Circle_Grid_2.jpg,Purple_Plus_Chess_2.jpg,Red_Star_Stripes_4.jpg,right,433.74500004574656,false,low,false
AeRpSGDf,3hy86pzxq1vtv1ivc3jn7sg3anve1z,3d8you6s9ix7e3e8zbfbvqpfgcxu65,AeRpSGDf,2020-0188,2020-11-14,23:36:01,23:50:52,NA,incomplete,141,number,0,right,Purple_Triangle_Dots_4.jpg,Purple_Star_Grid_3.jpg,Green_Plus_Stripes_4.jpg,left,388.22999969124794,false,low,false
AeRpSGDf,3hy86pzxq1vtv1ivc3jn7sg3anve1z,3d8you6s9ix7e3e8zbfbvqpfgcxu65,AeRpSGDf,2020-0188,2020-11-14,23:36:01,23:50:52,NA,incomplete,142,number,1,left,Purple_Circle_Grid_3.jpg,Blue_Triangle_Dots_3.jpg,Purple_Plus_Stripes_4.jpg,right,480.5950000882149,false,low,false
AeRpSGDf,3hy86pzxq1vtv1ivc3jn7sg3anve1z,3d8you6s9ix7e3e8zbfbvqpfgcxu65,AeRpSGDf,2020-0188,2020-11-14,23:36:01,23:50:52,NA,incomplete,143,number,1,left,Blue_Triangle_Stripes_1.jpg,Purple_Circle_Grid_1.jpg,Blue_Star_Dots_3.jpg,right,394.3199999630451,false,low,false
AeRpSGDf,3hy86pzxq1vtv1ivc3jn7sg3anve1z,3d8you6s9ix7e3e8zbfbvqpfgcxu65,AeRpSGDf,2020-0188,2020-11-14,23:36:01,23:50:52,NA,incomplete,144,number,0,left,Green_Star_Grid_2.jpg,Purple_Circle_Dots_2.jpg,Green_Triangle_Stripes_4.jpg,left,663.3500000461936,true,low,false
AeRpSGDf,3hy86pzxq1vtv1ivc3jn7sg3anve1z,3d8you6s9ix7e3e8zbfbvqpfgcxu65,AeRpSGDf,2020-0188,2020-11-14,23:36:01,23:50:52,NA,incomplete,145,number,1,left,Blue_Circle_Grid_2.jpg,Purple_Star_Dots_2.jpg,Blue_Plus_Stripes_3.jpg,left,579.0300001390278,true,low,false
AeRpSGDf,3hy86pzxq1vtv1ivc3jn7sg3anve1z,3d8you6s9ix7e3e8zbfbvqpfgcxu65,AeRpSGDf,2020-0188,2020-11-14,23:36:01,23:50:52,NA,incomplete,146,number,1,left,Blue_Plus_Chess_2.jpg,Red_Triangle_Grid_2.jpg,Blue_Star_Dots_4.jpg,left,581.7800001241267,true,low,false
AeRpSGDf,3hy86pzxq1vtv1ivc3jn7sg3anve1z,3d8you6s9ix7e3e8zbfbvqpfgcxu65,AeRpSGDf,2020-0188,2020-11-14,23:36:01,23:50:52,NA,incomplete,147,number,0,right,Red_Triangle_Chess_3.jpg,Red_Star_Stripes_1.jpg,Purple_Plus_Grid_3.jpg,right,921.9849999062717,true,low,false
AeRpSGDf,3hy86pzxq1vtv1ivc3jn7sg3anve1z,3d8you6s9ix7e3e8zbfbvqpfgcxu65,AeRpSGDf,2020-0188,2020-11-14,23:36:01,23:50:52,NA,incomplete,148,number,1,right,Red_Triangle_Stripes_3.jpg,Red_Star_Grid_1.jpg,Green_Plus_Chess_3.jpg,right,592.6350001245737,true,low,false
AeRpSGDf,3hy86pzxq1vtv1ivc3jn7sg3anve1z,3d8you6s9ix7e3e8zbfbvqpfgcxu65,AeRpSGDf,2020-0188,2020-11-14,23:36:01,23:50:52,NA,incomplete,149,number,0,right,Red_Triangle_Chess_2.jpg,Red_Star_Dots_1.jpg,Green_Plus_Stripes_2.jpg,right,724.4450002908707,true,low,false
AeRpSGDf,3hy86pzxq1vtv1ivc3jn7sg3anve1z,3d8you6s9ix7e3e8zbfbvqpfgcxu65,AeRpSGDf,2020-0188,2020-11-14,23:36:01,23:50:52,NA,incomplete,150,number,1,right,Red_Plus_Grid_1.jpg,Red_Triangle_Dots_4.jpg,Blue_Circle_Chess_1.jpg,right,550.2150002866983,true,low,false
AeRpSGDf,3hy86pzxq1vtv1ivc3jn7sg3anve1z,3d8you6s9ix7e3e8zbfbvqpfgcxu65,AeRpSGDf,2020-0188,2020-11-14,23:36:01,23:50:52,NA,incomplete,151,number,1,left,Green_Triangle_Grid_1.jpg,Red_Plus_Chess_1.jpg,Green_Star_Stripes_2.jpg,left,1082.624999806285,true,low,false
AeRpSGDf,3hy86pzxq1vtv1ivc3jn7sg3anve1z,3d8you6s9ix7e3e8zbfbvqpfgcxu65,AeRpSGDf,2020-0188,2020-11-14,23:36:01,23:50:52,NA,incomplete,152,number,0,left,Green_Circle_Chess_1.jpg,Red_Plus_Stripes_1.jpg,Green_Star_Grid_4.jpg,left,556.1100002378225,true,low,false
AeRpSGDf,3hy86pzxq1vtv1ivc3jn7sg3anve1z,3d8you6s9ix7e3e8zbfbvqpfgcxu65,AeRpSGDf,2020-0188,2020-11-14,23:36:01,23:50:52,NA,incomplete,153,number,1,right,Purple_Star_Stripes_2.jpg,Purple_Triangle_Dots_1.jpg,Red_Plus_Grid_2.jpg,right,520.9800000302494,true,low,false
AeRpSGDf,3hy86pzxq1vtv1ivc3jn7sg3anve1z,3d8you6s9ix7e3e8zbfbvqpfgcxu65,AeRpSGDf,2020-0188,2020-11-14,23:36:01,23:50:52,NA,incomplete,154,number,1,left,Red_Circle_Grid_3.jpg,Green_Plus_Stripes_3.jpg,Red_Star_Chess_1.jpg,left,616.064999718219,true,low,false
AeRpSGDf,3hy86pzxq1vtv1ivc3jn7sg3anve1z,3d8you6s9ix7e3e8zbfbvqpfgcxu65,AeRpSGDf,2020-0188,2020-11-14,23:36:01,23:50:52,NA,incomplete,155,number,0,right,Purple_Circle_Stripes_1.jpg,Purple_Plus_Grid_4.jpg,Red_Star_Chess_1.jpg,right,486.94000020623207,true,low,false
AeRpSGDf,3hy86pzxq1vtv1ivc3jn7sg3anve1z,3d8you6s9ix7e3e8zbfbvqpfgcxu65,AeRpSGDf,2020-0188,2020-11-14,23:36:01,23:50:52,NA,incomplete,156,number,1,right,Purple_Plus_Grid_1.jpg,Purple_Star_Dots_2.jpg,Red_Circle_Chess_1.jpg,right,579.7500000335276,true,low,false
AeRpSGDf,3hy86pzxq1vtv1ivc3jn7sg3anve1z,3d8you6s9ix7e3e8zbfbvqpfgcxu65,AeRpSGDf,2020-0188,2020-11-14,23:36:01,23:50:52,NA,incomplete,157,number,1,left,Red_Circle_Stripes_3.jpg,Green_Plus_Chess_3.jpg,Red_Star_Dots_2.jpg,left,536.4299998618662,true,low,false
AeRpSGDf,3hy86pzxq1vtv1ivc3jn7sg3anve1z,3d8you6s9ix7e3e8zbfbvqpfgcxu65,AeRpSGDf,2020-0188,2020-11-14,23:36:01,23:50:52,NA,incomplete,158,number,1,right,Purple_Plus_Dots_1.jpg,Purple_Star_Grid_4.jpg,Blue_Triangle_Stripes_1.jpg,right,472.34000032767653,true,low,false
AeRpSGDf,3hy86pzxq1vtv1ivc3jn7sg3anve1z,3d8you6s9ix7e3e8zbfbvqpfgcxu65,AeRpSGDf,2020-0188,2020-11-14,23:36:01,23:50:52,NA,incomplete,159,number,1,right,Red_Plus_Dots_2.jpg,Red_Circle_Grid_1.jpg,Blue_Star_Stripes_2.jpg,right,552.0150000229478,true,low,false
AeRpSGDf,3hy86pzxq1vtv1ivc3jn7sg3anve1z,3d8you6s9ix7e3e8zbfbvqpfgcxu65,AeRpSGDf,2020-0188,2020-11-14,23:36:01,23:50:52,NA,incomplete,160,color,1,left,Green_Circle_Chess_2.jpg,Green_Plus_Dots_1.jpg,Red_Star_Grid_2.jpg,right,568.9699999056756,false,low,false
AeRpSGDf,3hy86pzxq1vtv1ivc3jn7sg3anve1z,3d8you6s9ix7e3e8zbfbvqpfgcxu65,AeRpSGDf,2020-0188,2020-11-14,23:36:01,23:50:52,NA,incomplete,161,color,1,right,Red_Triangle_Dots_3.jpg,Green_Circle_Stripes_3.jpg,Red_Plus_Grid_1.jpg,left,523.4050001017749,false,low,false
AeRpSGDf,3hy86pzxq1vtv1ivc3jn7sg3anve1z,3d8you6s9ix7e3e8zbfbvqpfgcxu65,AeRpSGDf,2020-0188,2020-11-14,23:36:01,23:50:52,NA,incomplete,162,color,1,left,Green_Triangle_Grid_1.jpg,Green_Circle_Dots_4.jpg,Blue_Star_Stripes_1.jpg,left,377.8249998576939,true,low,false
AeRpSGDf,3hy86pzxq1vtv1ivc3jn7sg3anve1z,3d8you6s9ix7e3e8zbfbvqpfgcxu65,AeRpSGDf,2020-0188,2020-11-14,23:36:01,23:50:52,NA,incomplete,163,color,1,left,Red_Star_Stripes_1.jpg,Red_Plus_Dots_2.jpg,Blue_Circle_Grid_1.jpg,left,358.7350002489984,true,low,false
AeRpSGDf,3hy86pzxq1vtv1ivc3jn7sg3anve1z,3d8you6s9ix7e3e8zbfbvqpfgcxu65,AeRpSGDf,2020-0188,2020-11-14,23:36:01,23:50:52,NA,incomplete,164,color,1,left,Purple_Triangle_Grid_4.jpg,Purple_Plus_Chess_2.jpg,Blue_Circle_Dots_4.jpg,left,477.08999970927835,true,low,false
AeRpSGDf,3hy86pzxq1vtv1ivc3jn7sg3anve1z,3d8you6s9ix7e3e8zbfbvqpfgcxu65,AeRpSGDf,2020-0188,2020-11-14,23:36:01,23:50:52,NA,incomplete,165,color,1,right,Green_Triangle_Stripes_3.jpg,Blue_Plus_Grid_3.jpg,Green_Circle_Dots_4.jpg,right,405.7749998755753,true,low,false
AeRpSGDf,3hy86pzxq1vtv1ivc3jn7sg3anve1z,3d8you6s9ix7e3e8zbfbvqpfgcxu65,AeRpSGDf,2020-0188,2020-11-14,23:36:01,23:50:52,NA,incomplete,166,color,1,right,Purple_Star_Chess_2.jpg,Red_Plus_Dots_2.jpg,Purple_Triangle_Stripes_4.jpg,right,445.5800000578165,true,low,false
AeRpSGDf,3hy86pzxq1vtv1ivc3jn7sg3anve1z,3d8you6s9ix7e3e8zbfbvqpfgcxu65,AeRpSGDf,2020-0188,2020-11-14,23:36:01,23:50:52,NA,incomplete,167,color,1,right,Green_Triangle_Grid_4.jpg,Blue_Star_Chess_4.jpg,Green_Plus_Stripes_3.jpg,right,413.824999704957,true,low,false
AeRpSGDf,3hy86pzxq1vtv1ivc3jn7sg3anve1z,3d8you6s9ix7e3e8zbfbvqpfgcxu65,AeRpSGDf,2020-0188,2020-11-14,23:36:01,23:50:52,NA,incomplete,168,color,1,right,Green_Star_Chess_4.jpg,Purple_Triangle_Dots_4.jpg,Green_Plus_Stripes_2.jpg,right,368.6600001528859,true,low,false
AeRpSGDf,3hy86pzxq1vtv1ivc3jn7sg3anve1z,3d8you6s9ix7e3e8zbfbvqpfgcxu65,AeRpSGDf,2020-0188,2020-11-14,23:36:01,23:50:52,NA,incomplete,169,color,1,left,Green_Star_Grid_4.jpg,Green_Circle_Dots_2.jpg,Blue_Plus_Chess_4.jpg,left,479.0849997662008,true,low,false
AeRpSGDf,3hy86pzxq1vtv1ivc3jn7sg3anve1z,3d8you6s9ix7e3e8zbfbvqpfgcxu65,AeRpSGDf,2020-0188,2020-11-14,23:36:01,23:50:52,NA,incomplete,170,color,1,right,Purple_Plus_Dots_1.jpg,Blue_Triangle_Grid_1.jpg,Purple_Circle_Chess_3.jpg,right,374.40000008791685,true,low,false
AeRpSGDf,3hy86pzxq1vtv1ivc3jn7sg3anve1z,3d8you6s9ix7e3e8zbfbvqpfgcxu65,AeRpSGDf,2020-0188,2020-11-14,23:36:01,23:50:52,NA,incomplete,171,color,1,left,Red_Triangle_Chess_3.jpg,Red_Plus_Stripes_4.jpg,Purple_Circle_Grid_3.jpg,left,404.98000010848045,true,low,false
AeRpSGDf,3hy86pzxq1vtv1ivc3jn7sg3anve1z,3d8you6s9ix7e3e8zbfbvqpfgcxu65,AeRpSGDf,2020-0188,2020-11-14,23:36:01,23:50:52,NA,incomplete,172,color,0,right,Blue_Circle_Stripes_2.jpg,Purple_Star_Grid_2.jpg,Blue_Plus_Dots_1.jpg,right,370.14999985694885,true,low,false
AeRpSGDf,3hy86pzxq1vtv1ivc3jn7sg3anve1z,3d8you6s9ix7e3e8zbfbvqpfgcxu65,AeRpSGDf,2020-0188,2020-11-14,23:36:01,23:50:52,NA,incomplete,173,color,1,left,Blue_Star_Grid_2.jpg,Blue_Plus_Dots_3.jpg,Green_Circle_Stripes_2.jpg,left,388.1100001744926,true,low,false
AeRpSGDf,3hy86pzxq1vtv1ivc3jn7sg3anve1z,3d8you6s9ix7e3e8zbfbvqpfgcxu65,AeRpSGDf,2020-0188,2020-11-14,23:36:01,23:50:52,NA,incomplete,174,color,1,right,Blue_Star_Chess_2.jpg,Green_Circle_Stripes_2.jpg,Blue_Plus_Grid_4.jpg,right,392.14999973773956,true,low,false
AeRpSGDf,3hy86pzxq1vtv1ivc3jn7sg3anve1z,3d8you6s9ix7e3e8zbfbvqpfgcxu65,AeRpSGDf,2020-0188,2020-11-14,23:36:01,23:50:52,NA,incomplete,175,color,1,right,Red_Star_Dots_3.jpg,Purple_Triangle_Grid_3.jpg,Red_Plus_Chess_2.jpg,right,405.17499996349216,true,low,false
AeRpSGDf,3hy86pzxq1vtv1ivc3jn7sg3anve1z,3d8you6s9ix7e3e8zbfbvqpfgcxu65,AeRpSGDf,2020-0188,2020-11-14,23:36:01,23:50:52,NA,incomplete,176,color,1,right,Red_Plus_Grid_2.jpg,Green_Circle_Chess_2.jpg,Red_Triangle_Dots_1.jpg,right,361.31999967619777,true,low,false
AeRpSGDf,3hy86pzxq1vtv1ivc3jn7sg3anve1z,3d8you6s9ix7e3e8zbfbvqpfgcxu65,AeRpSGDf,2020-0188,2020-11-14,23:36:01,23:50:52,NA,incomplete,177,color,1,right,Purple_Triangle_Dots_3.jpg,Green_Plus_Grid_3.jpg,Purple_Circle_Chess_4.jpg,right,383.11999989673495,true,low,false
AeRpSGDf,3hy86pzxq1vtv1ivc3jn7sg3anve1z,3d8you6s9ix7e3e8zbfbvqpfgcxu65,AeRpSGDf,2020-0188,2020-11-14,23:36:01,23:50:52,NA,incomplete,178,color,1,right,Purple_Plus_Stripes_1.jpg,Green_Circle_Dots_1.jpg,Purple_Triangle_Grid_3.jpg,right,366.5849999524653,true,low,false
AeRpSGDf,3hy86pzxq1vtv1ivc3jn7sg3anve1z,3d8you6s9ix7e3e8zbfbvqpfgcxu65,AeRpSGDf,2020-0188,2020-11-14,23:36:01,23:50:52,NA,incomplete,179,color,1,right,Green_Circle_Stripes_2.jpg,Blue_Star_Grid_2.jpg,Green_Triangle_Dots_4.jpg,right,424.51999988406897,true,low,false
AeRpSGDf,3hy86pzxq1vtv1ivc3jn7sg3anve1z,3d8you6s9ix7e3e8zbfbvqpfgcxu65,AeRpSGDf,2020-0188,2020-11-14,23:36:01,23:50:52,NA,incomplete,180,number,1,left,Red_Plus_Stripes_2.jpg,Blue_Circle_Grid_2.jpg,Red_Star_Chess_3.jpg,right,427.1350000053644,false,low,false
AeRpSGDf,3hy86pzxq1vtv1ivc3jn7sg3anve1z,3d8you6s9ix7e3e8zbfbvqpfgcxu65,AeRpSGDf,2020-0188,2020-11-14,23:36:01,23:50:52,NA,incomplete,181,number,1,right,Purple_Star_Grid_1.jpg,Purple_Plus_Chess_4.jpg,Red_Triangle_Dots_1.jpg,right,526.0200002230704,true,low,false
AeRpSGDf,3hy86pzxq1vtv1ivc3jn7sg3anve1z,3d8you6s9ix7e3e8zbfbvqpfgcxu65,AeRpSGDf,2020-0188,2020-11-14,23:36:01,23:50:52,NA,incomplete,182,number,0,right,Purple_Circle_Chess_3.jpg,Purple_Star_Stripes_2.jpg,Green_Triangle_Grid_3.jpg,right,790.3950000181794,true,low,false
AeRpSGDf,3hy86pzxq1vtv1ivc3jn7sg3anve1z,3d8you6s9ix7e3e8zbfbvqpfgcxu65,AeRpSGDf,2020-0188,2020-11-14,23:36:01,23:50:52,NA,incomplete,183,number,1,right,Green_Plus_Dots_2.jpg,Green_Circle_Grid_4.jpg,Blue_Triangle_Chess_2.jpg,left,462.25000033155084,false,low,false
AeRpSGDf,3hy86pzxq1vtv1ivc3jn7sg3anve1z,3d8you6s9ix7e3e8zbfbvqpfgcxu65,AeRpSGDf,2020-0188,2020-11-14,23:36:01,23:50:52,NA,incomplete,184,number,1,right,Blue_Star_Stripes_3.jpg,Blue_Circle_Grid_1.jpg,Green_Triangle_Chess_3.jpg,right,516.2100000306964,true,low,false
AeRpSGDf,3hy86pzxq1vtv1ivc3jn7sg3anve1z,3d8you6s9ix7e3e8zbfbvqpfgcxu65,AeRpSGDf,2020-0188,2020-11-14,23:36:01,23:50:52,NA,incomplete,185,number,1,left,Blue_Star_Dots_4.jpg,Green_Circle_Grid_4.jpg,Blue_Plus_Stripes_1.jpg,left,549.1849998943508,true,low,false
AeRpSGDf,3hy86pzxq1vtv1ivc3jn7sg3anve1z,3d8you6s9ix7e3e8zbfbvqpfgcxu65,AeRpSGDf,2020-0188,2020-11-14,23:36:01,23:50:52,NA,incomplete,186,number,0,left,Red_Triangle_Chess_1.jpg,Purple_Star_Dots_1.jpg,Red_Circle_Grid_4.jpg,left,554.3499998748302,true,low,false
AeRpSGDf,3hy86pzxq1vtv1ivc3jn7sg3anve1z,3d8you6s9ix7e3e8zbfbvqpfgcxu65,AeRpSGDf,2020-0188,2020-11-14,23:36:01,23:50:52,NA,incomplete,187,number,1,right,Green_Plus_Chess_1.jpg,Green_Circle_Grid_2.jpg,Purple_Triangle_Stripes_1.jpg,right,503.7449998781085,true,low,false
AeRpSGDf,3hy86pzxq1vtv1ivc3jn7sg3anve1z,3d8you6s9ix7e3e8zbfbvqpfgcxu65,AeRpSGDf,2020-0188,2020-11-14,23:36:01,23:50:52,NA,incomplete,188,number,1,right,Green_Circle_Dots_3.jpg,Green_Star_Chess_2.jpg,Red_Triangle_Grid_3.jpg,right,515.3800002299249,true,low,false
AeRpSGDf,3hy86pzxq1vtv1ivc3jn7sg3anve1z,3d8you6s9ix7e3e8zbfbvqpfgcxu65,AeRpSGDf,2020-0188,2020-11-14,23:36:01,23:50:52,NA,incomplete,189,number,1,right,Purple_Circle_Dots_4.jpg,Purple_Star_Stripes_3.jpg,Blue_Triangle_Grid_4.jpg,right,631.6450000740588,true,low,false
AeRpSGDf,3hy86pzxq1vtv1ivc3jn7sg3anve1z,3d8you6s9ix7e3e8zbfbvqpfgcxu65,AeRpSGDf,2020-0188,2020-11-14,23:36:01,23:50:52,NA,incomplete,190,number,1,left,Green_Star_Chess_1.jpg,Purple_Plus_Grid_1.jpg,Green_Circle_Stripes_2.jpg,left,555.0449998117983,true,low,false
AeRpSGDf,3hy86pzxq1vtv1ivc3jn7sg3anve1z,3d8you6s9ix7e3e8zbfbvqpfgcxu65,AeRpSGDf,2020-0188,2020-11-14,23:36:01,23:50:52,NA,incomplete,191,number,1,left,Purple_Plus_Grid_4.jpg,Blue_Circle_Chess_4.jpg,Purple_Star_Dots_1.jpg,left,496.63499975576997,true,low,false
AeRpSGDf,3hy86pzxq1vtv1ivc3jn7sg3anve1z,3d8you6s9ix7e3e8zbfbvqpfgcxu65,AeRpSGDf,2020-0188,2020-11-14,23:36:01,23:50:52,NA,incomplete,192,number,1,left,Red_Star_Grid_1.jpg,Purple_Triangle_Dots_1.jpg,Red_Plus_Stripes_3.jpg,left,553.5099999979138,true,low,false
AeRpSGDf,3hy86pzxq1vtv1ivc3jn7sg3anve1z,3d8you6s9ix7e3e8zbfbvqpfgcxu65,AeRpSGDf,2020-0188,2020-11-14,23:36:01,23:50:52,NA,incomplete,193,number,0,right,Green_Triangle_Chess_1.jpg,Green_Star_Grid_2.jpg,Red_Plus_Stripes_1.jpg,right,545.9099998697639,true,low,false
AeRpSGDf,3hy86pzxq1vtv1ivc3jn7sg3anve1z,3d8you6s9ix7e3e8zbfbvqpfgcxu65,AeRpSGDf,2020-0188,2020-11-14,23:36:01,23:50:52,NA,incomplete,194,number,1,right,Blue_Plus_Dots_4.jpg,Blue_Star_Chess_2.jpg,Purple_Triangle_Grid_4.jpg,right,557.1800000034273,true,low,false
AeRpSGDf,3hy86pzxq1vtv1ivc3jn7sg3anve1z,3d8you6s9ix7e3e8zbfbvqpfgcxu65,AeRpSGDf,2020-0188,2020-11-14,23:36:01,23:50:52,NA,incomplete,195,number,1,right,Blue_Circle_Grid_3.jpg,Blue_Triangle_Chess_2.jpg,Red_Star_Dots_3.jpg,left,482.8099999576807,false,low,false
AeRpSGDf,3hy86pzxq1vtv1ivc3jn7sg3anve1z,3d8you6s9ix7e3e8zbfbvqpfgcxu65,AeRpSGDf,2020-0188,2020-11-14,23:36:01,23:50:52,NA,incomplete,196,number,1,right,Purple_Plus_Dots_1.jpg,Purple_Triangle_Stripes_2.jpg,Green_Circle_Grid_1.jpg,right,610.1950001902878,true,low,false
AeRpSGDf,3hy86pzxq1vtv1ivc3jn7sg3anve1z,3d8you6s9ix7e3e8zbfbvqpfgcxu65,AeRpSGDf,2020-0188,2020-11-14,23:36:01,23:50:52,NA,incomplete,197,number,1,right,Blue_Star_Chess_1.jpg,Blue_Plus_Grid_4.jpg,Red_Triangle_Stripes_1.jpg,right,560.3499999269843,true,low,false
AeRpSGDf,3hy86pzxq1vtv1ivc3jn7sg3anve1z,3d8you6s9ix7e3e8zbfbvqpfgcxu65,AeRpSGDf,2020-0188,2020-11-14,23:36:01,23:50:52,NA,incomplete,198,number,1,left,Blue_Triangle_Stripes_1.jpg,Green_Plus_Chess_1.jpg,Blue_Circle_Dots_4.jpg,left,550.4749999381602,true,low,false
AeRpSGDf,3hy86pzxq1vtv1ivc3jn7sg3anve1z,3d8you6s9ix7e3e8zbfbvqpfgcxu65,AeRpSGDf,2020-0188,2020-11-14,23:36:01,23:50:52,NA,incomplete,199,number,0,left,Green_Plus_Chess_4.jpg,Red_Triangle_Dots_4.jpg,Green_Circle_Stripes_3.jpg,left,585.715000052005,true,low,false
AeRpSGDf,3hy86pzxq1vtv1ivc3jn7sg3anve1z,3d8you6s9ix7e3e8zbfbvqpfgcxu65,AeRpSGDf,2020-0188,2020-11-14,23:36:01,23:50:52,NA,incomplete,200,color,1,right,Red_Triangle_Grid_4.jpg,Green_Star_Dots_4.jpg,Red_Circle_Stripes_2.jpg,left,631.3049998134375,false,low,false
AeRpSGDf,3hy86pzxq1vtv1ivc3jn7sg3anve1z,3d8you6s9ix7e3e8zbfbvqpfgcxu65,AeRpSGDf,2020-0188,2020-11-14,23:36:01,23:50:52,NA,incomplete,201,color,1,right,Red_Star_Grid_4.jpg,Green_Triangle_Chess_4.jpg,Red_Circle_Stripes_3.jpg,left,480.9050001204014,false,low,false
AeRpSGDf,3hy86pzxq1vtv1ivc3jn7sg3anve1z,3d8you6s9ix7e3e8zbfbvqpfgcxu65,AeRpSGDf,2020-0188,2020-11-14,23:36:01,23:50:52,NA,incomplete,202,color,1,left,Red_Star_Grid_3.jpg,Red_Circle_Chess_2.jpg,Purple_Triangle_Dots_3.jpg,left,396.73499995842576,true,low,false
AeRpSGDf,3hy86pzxq1vtv1ivc3jn7sg3anve1z,3d8you6s9ix7e3e8zbfbvqpfgcxu65,AeRpSGDf,2020-0188,2020-11-14,23:36:01,23:50:52,NA,incomplete,203,color,0,left,Blue_Plus_Dots_1.jpg,Blue_Circle_Stripes_4.jpg,Red_Triangle_Grid_1.jpg,left,423.58999978750944,true,low,false
AeRpSGDf,3hy86pzxq1vtv1ivc3jn7sg3anve1z,3d8you6s9ix7e3e8zbfbvqpfgcxu65,AeRpSGDf,2020-0188,2020-11-14,23:36:01,23:50:52,NA,incomplete,204,color,1,left,Green_Triangle_Grid_2.jpg,Green_Circle_Dots_3.jpg,Red_Star_Chess_2.jpg,right,839.4950004294515,false,low,false
AeRpSGDf,3hy86pzxq1vtv1ivc3jn7sg3anve1z,3d8you6s9ix7e3e8zbfbvqpfgcxu65,AeRpSGDf,2020-0188,2020-11-14,23:36:01,23:50:52,NA,incomplete,205,color,1,right,Purple_Circle_Chess_1.jpg,Red_Plus_Grid_1.jpg,Purple_Triangle_Stripes_2.jpg,right,469.07499991357327,true,low,false
AeRpSGDf,3hy86pzxq1vtv1ivc3jn7sg3anve1z,3d8you6s9ix7e3e8zbfbvqpfgcxu65,AeRpSGDf,2020-0188,2020-11-14,23:36:01,23:50:52,NA,incomplete,206,color,1,right,Green_Circle_Dots_2.jpg,Purple_Star_Grid_2.jpg,Green_Triangle_Chess_3.jpg,right,430.21999998018146,true,low,false
AeRpSGDf,3hy86pzxq1vtv1ivc3jn7sg3anve1z,3d8you6s9ix7e3e8zbfbvqpfgcxu65,AeRpSGDf,2020-0188,2020-11-14,23:36:01,23:50:52,NA,incomplete,207,color,1,left,Red_Plus_Dots_4.jpg,Red_Circle_Stripes_2.jpg,Purple_Triangle_Grid_4.jpg,left,400.0500002875924,true,low,false
AeRpSGDf,3hy86pzxq1vtv1ivc3jn7sg3anve1z,3d8you6s9ix7e3e8zbfbvqpfgcxu65,AeRpSGDf,2020-0188,2020-11-14,23:36:01,23:50:52,NA,incomplete,208,color,1,left,Purple_Star_Stripes_4.jpg,Purple_Triangle_Dots_1.jpg,Blue_Circle_Grid_4.jpg,left,507.53500033169985,true,low,false
AeRpSGDf,3hy86pzxq1vtv1ivc3jn7sg3anve1z,3d8you6s9ix7e3e8zbfbvqpfgcxu65,AeRpSGDf,2020-0188,2020-11-14,23:36:01,23:50:52,NA,incomplete,209,color,0,right,Purple_Triangle_Chess_1.jpg,Blue_Circle_Stripes_1.jpg,Purple_Star_Dots_2.jpg,right,444.14500007405877,true,low,false
AeRpSGDf,3hy86pzxq1vtv1ivc3jn7sg3anve1z,3d8you6s9ix7e3e8zbfbvqpfgcxu65,AeRpSGDf,2020-0188,2020-11-14,23:36:01,23:50:52,NA,incomplete,210,color,1,left,Green_Star_Grid_1.jpg,Green_Circle_Stripes_3.jpg,Blue_Plus_Dots_1.jpg,left,466.7899999767542,true,low,false
AeRpSGDf,3hy86pzxq1vtv1ivc3jn7sg3anve1z,3d8you6s9ix7e3e8zbfbvqpfgcxu65,AeRpSGDf,2020-0188,2020-11-14,23:36:01,23:50:52,NA,incomplete,211,color,1,right,Blue_Triangle_Chess_4.jpg,Purple_Plus_Grid_4.jpg,Blue_Star_Stripes_2.jpg,right,393.03999999538064,true,low,false
AeRpSGDf,3hy86pzxq1vtv1ivc3jn7sg3anve1z,3d8you6s9ix7e3e8zbfbvqpfgcxu65,AeRpSGDf,2020-0188,2020-11-14,23:36:01,23:50:52,NA,incomplete,212,color,1,right,Blue_Circle_Dots_4.jpg,Purple_Triangle_Stripes_4.jpg,Blue_Star_Grid_3.jpg,right,380.6000002659857,true,low,false
AeRpSGDf,3hy86pzxq1vtv1ivc3jn7sg3anve1z,3d8you6s9ix7e3e8zbfbvqpfgcxu65,AeRpSGDf,2020-0188,2020-11-14,23:36:01,23:50:52,NA,incomplete,213,color,1,right,Green_Plus_Grid_3.jpg,Purple_Star_Chess_3.jpg,Green_Triangle_Stripes_4.jpg,right,425.26499973610044,true,low,false
AeRpSGDf,3hy86pzxq1vtv1ivc3jn7sg3anve1z,3d8you6s9ix7e3e8zbfbvqpfgcxu65,AeRpSGDf,2020-0188,2020-11-14,23:36:01,23:50:52,NA,incomplete,214,color,1,right,Purple_Plus_Stripes_3.jpg,Red_Circle_Grid_3.jpg,Purple_Star_Dots_1.jpg,right,701.874999795109,true,low,false
AeRpSGDf,3hy86pzxq1vtv1ivc3jn7sg3anve1z,3d8you6s9ix7e3e8zbfbvqpfgcxu65,AeRpSGDf,2020-0188,2020-11-14,23:36:01,23:50:52,NA,incomplete,215,color,1,right,Red_Star_Chess_3.jpg,Purple_Circle_Dots_3.jpg,Red_Triangle_Stripes_2.jpg,right,444.9849999509752,true,low,false
AeRpSGDf,3hy86pzxq1vtv1ivc3jn7sg3anve1z,3d8you6s9ix7e3e8zbfbvqpfgcxu65,AeRpSGDf,2020-0188,2020-11-14,23:36:01,23:50:52,NA,incomplete,216,color,1,left,Red_Star_Grid_2.jpg,Red_Triangle_Dots_1.jpg,Green_Circle_Stripes_2.jpg,left,713.5200002230704,true,low,false
AeRpSGDf,3hy86pzxq1vtv1ivc3jn7sg3anve1z,3d8you6s9ix7e3e8zbfbvqpfgcxu65,AeRpSGDf,2020-0188,2020-11-14,23:36:01,23:50:52,NA,incomplete,217,color,0,left,Blue_Plus_Dots_4.jpg,Blue_Triangle_Grid_3.jpg,Purple_Circle_Stripes_4.jpg,left,423.04000025615096,true,low,false
AeRpSGDf,3hy86pzxq1vtv1ivc3jn7sg3anve1z,3d8you6s9ix7e3e8zbfbvqpfgcxu65,AeRpSGDf,2020-0188,2020-11-14,23:36:01,23:50:52,NA,incomplete,218,color,1,left,Purple_Plus_Grid_4.jpg,Purple_Triangle_Stripes_3.jpg,Red_Star_Dots_4.jpg,left,418.62000012770295,true,low,false
AeRpSGDf,3hy86pzxq1vtv1ivc3jn7sg3anve1z,3d8you6s9ix7e3e8zbfbvqpfgcxu65,AeRpSGDf,2020-0188,2020-11-14,23:36:01,23:50:52,NA,incomplete,219,color,1,left,Blue_Circle_Chess_4.jpg,Blue_Star_Dots_2.jpg,Green_Triangle_Stripes_4.jpg,left,365.359999705106,true,low,false
AeRpSGDf,3hy86pzxq1vtv1ivc3jn7sg3anve1z,3d8you6s9ix7e3e8zbfbvqpfgcxu65,AeRpSGDf,2020-0188,2020-11-14,23:36:01,23:50:52,NA,incomplete,220,number,0,left,Blue_Triangle_Chess_3.jpg,Purple_Star_Grid_3.jpg,Blue_Circle_Stripes_2.jpg,right,795.6149997189641,false,low,false
AeRpSGDf,3hy86pzxq1vtv1ivc3jn7sg3anve1z,3d8you6s9ix7e3e8zbfbvqpfgcxu65,AeRpSGDf,2020-0188,2020-11-14,23:36:01,23:50:52,NA,incomplete,221,number,1,right,Green_Circle_Dots_4.jpg,Green_Plus_Chess_3.jpg,Red_Triangle_Stripes_4.jpg,left,406.33499994874,false,low,false
AeRpSGDf,3hy86pzxq1vtv1ivc3jn7sg3anve1z,3d8you6s9ix7e3e8zbfbvqpfgcxu65,AeRpSGDf,2020-0188,2020-11-14,23:36:01,23:50:52,NA,incomplete,222,number,0,left,Blue_Triangle_Stripes_3.jpg,Purple_Plus_Grid_3.jpg,Blue_Circle_Chess_4.jpg,right,388.8099999167025,false,low,false
AeRpSGDf,3hy86pzxq1vtv1ivc3jn7sg3anve1z,3d8you6s9ix7e3e8zbfbvqpfgcxu65,AeRpSGDf,2020-0188,2020-11-14,23:36:01,23:50:52,NA,incomplete,223,number,1,right,Blue_Star_Grid_2.jpg,Blue_Plus_Dots_4.jpg,Red_Circle_Chess_2.jpg,left,376.32500007748604,false,low,false
AeRpSGDf,3hy86pzxq1vtv1ivc3jn7sg3anve1z,3d8you6s9ix7e3e8zbfbvqpfgcxu65,AeRpSGDf,2020-0188,2020-11-14,23:36:01,23:50:52,NA,incomplete,224,number,1,left,Blue_Triangle_Stripes_3.jpg,Green_Star_Dots_3.jpg,Blue_Circle_Chess_1.jpg,right,413.41499984264374,false,low,false
AeRpSGDf,3hy86pzxq1vtv1ivc3jn7sg3anve1z,3d8you6s9ix7e3e8zbfbvqpfgcxu65,AeRpSGDf,2020-0188,2020-11-14,23:36:01,23:50:52,NA,incomplete,225,number,1,left,Red_Circle_Stripes_3.jpg,Green_Plus_Grid_3.jpg,Red_Star_Chess_2.jpg,left,535.4949999600649,true,low,false
AeRpSGDf,3hy86pzxq1vtv1ivc3jn7sg3anve1z,3d8you6s9ix7e3e8zbfbvqpfgcxu65,AeRpSGDf,2020-0188,2020-11-14,23:36:01,23:50:52,NA,incomplete,226,number,1,left,Red_Triangle_Chess_2.jpg,Green_Circle_Stripes_2.jpg,Red_Star_Grid_4.jpg,left,502.43999995291233,true,low,false
AeRpSGDf,3hy86pzxq1vtv1ivc3jn7sg3anve1z,3d8you6s9ix7e3e8zbfbvqpfgcxu65,AeRpSGDf,2020-0188,2020-11-14,23:36:01,23:50:52,NA,incomplete,227,number,1,right,Purple_Triangle_Dots_2.jpg,Purple_Circle_Chess_3.jpg,Red_Plus_Grid_2.jpg,right,590.3250002302229,true,low,false
AeRpSGDf,3hy86pzxq1vtv1ivc3jn7sg3anve1z,3d8you6s9ix7e3e8zbfbvqpfgcxu65,AeRpSGDf,2020-0188,2020-11-14,23:36:01,23:50:52,NA,incomplete,228,number,1,left,Purple_Triangle_Stripes_1.jpg,Blue_Plus_Chess_1.jpg,Purple_Star_Dots_2.jpg,left,453.49999982863665,true,low,false
AeRpSGDf,3hy86pzxq1vtv1ivc3jn7sg3anve1z,3d8you6s9ix7e3e8zbfbvqpfgcxu65,AeRpSGDf,2020-0188,2020-11-14,23:36:01,23:50:52,NA,incomplete,229,number,0,left,Red_Star_Grid_4.jpg,Green_Circle_Stripes_4.jpg,Red_Plus_Dots_2.jpg,left,612.2949998825788,true,low,false
AeRpSGDf,3hy86pzxq1vtv1ivc3jn7sg3anve1z,3d8you6s9ix7e3e8zbfbvqpfgcxu65,AeRpSGDf,2020-0188,2020-11-14,23:36:01,23:50:52,NA,incomplete,230,number,1,right,Red_Plus_Chess_2.jpg,Red_Star_Stripes_1.jpg,Green_Triangle_Dots_2.jpg,right,584.8499997518957,true,low,false
AeRpSGDf,3hy86pzxq1vtv1ivc3jn7sg3anve1z,3d8you6s9ix7e3e8zbfbvqpfgcxu65,AeRpSGDf,2020-0188,2020-11-14,23:36:01,23:50:52,NA,incomplete,231,number,1,left,Green_Circle_Dots_1.jpg,Red_Triangle_Chess_1.jpg,Green_Plus_Stripes_4.jpg,left,469.2200003191829,true,low,false
AeRpSGDf,3hy86pzxq1vtv1ivc3jn7sg3anve1z,3d8you6s9ix7e3e8zbfbvqpfgcxu65,AeRpSGDf,2020-0188,2020-11-14,23:36:01,23:50:52,NA,incomplete,232,number,1,right,Blue_Plus_Chess_2.jpg,Blue_Circle_Grid_1.jpg,Red_Triangle_Dots_2.jpg,right,502.0449999719858,true,low,false
AeRpSGDf,3hy86pzxq1vtv1ivc3jn7sg3anve1z,3d8you6s9ix7e3e8zbfbvqpfgcxu65,AeRpSGDf,2020-0188,2020-11-14,23:36:01,23:50:52,NA,incomplete,233,number,1,left,Blue_Circle_Dots_2.jpg,Purple_Plus_Stripes_2.jpg,Blue_Triangle_Chess_4.jpg,left,559.695000294596,true,low,false
AeRpSGDf,3hy86pzxq1vtv1ivc3jn7sg3anve1z,3d8you6s9ix7e3e8zbfbvqpfgcxu65,AeRpSGDf,2020-0188,2020-11-14,23:36:01,23:50:52,NA,incomplete,234,number,1,left,Red_Star_Dots_2.jpg,Blue_Circle_Grid_2.jpg,Red_Plus_Chess_1.jpg,left,507.1849999949336,true,low,false
AeRpSGDf,3hy86pzxq1vtv1ivc3jn7sg3anve1z,3d8you6s9ix7e3e8zbfbvqpfgcxu65,AeRpSGDf,2020-0188,2020-11-14,23:36:01,23:50:52,NA,incomplete,235,number,1,right,Blue_Star_Dots_1.jpg,Blue_Circle_Chess_4.jpg,Purple_Plus_Stripes_1.jpg,right,546.3800001889467,true,low,false
AeRpSGDf,3hy86pzxq1vtv1ivc3jn7sg3anve1z,3d8you6s9ix7e3e8zbfbvqpfgcxu65,AeRpSGDf,2020-0188,2020-11-14,23:36:01,23:50:52,NA,incomplete,236,number,0,left,Red_Circle_Stripes_4.jpg,Green_Star_Dots_4.jpg,Red_Plus_Grid_3.jpg,left,608.9449999853969,true,low,false
AeRpSGDf,3hy86pzxq1vtv1ivc3jn7sg3anve1z,3d8you6s9ix7e3e8zbfbvqpfgcxu65,AeRpSGDf,2020-0188,2020-11-14,23:36:01,23:50:52,NA,incomplete,237,number,1,left,Green_Circle_Chess_4.jpg,Purple_Triangle_Grid_4.jpg,Green_Star_Stripes_2.jpg,left,541.399999987334,true,low,false
AeRpSGDf,3hy86pzxq1vtv1ivc3jn7sg3anve1z,3d8you6s9ix7e3e8zbfbvqpfgcxu65,AeRpSGDf,2020-0188,2020-11-14,23:36:01,23:50:52,NA,incomplete,238,number,0,right,Red_Circle_Chess_4.jpg,Red_Plus_Stripes_2.jpg,Green_Star_Grid_4.jpg,right,653.7999999709427,true,low,false
AeRpSGDf,3hy86pzxq1vtv1ivc3jn7sg3anve1z,3d8you6s9ix7e3e8zbfbvqpfgcxu65,AeRpSGDf,2020-0188,2020-11-14,23:36:01,23:50:52,NA,incomplete,239,number,1,left,Red_Plus_Grid_2.jpg,Purple_Triangle_Stripes_2.jpg,Red_Circle_Dots_1.jpg,right,589.5899999886751,false,low,false
AeRpSGDf,3hy86pzxq1vtv1ivc3jn7sg3anve1z,3d8you6s9ix7e3e8zbfbvqpfgcxu65,AeRpSGDf,2020-0188,2020-11-14,23:36:01,23:50:52,869037.1550000273,891400.0699999742,NA,NA,NA,NA,NA,NA,NA,NA,NA,NA,NA,undefined
