workerId,hitId,assignmentId,subject,studyid,exp_date,exp_start,exp_end,time_start,time_end,trial,type,reward_validity,answer,image_top,image_left,image_right,response,response_time,response_acc,volatility,practice
mDUQoVED,3r6rzgk0yip7nifkjif6ljfzh9ayv2,3dbqwde4yaby09ulxrtkppjlexhn54,mDUQoVED,2020-0188,2020-11-21,11:46:50,12:24:28,NA,incomplete,0,filling,1,left,Blue_Triangle_Stripes_2.jpg,Purple_Star_Stripes_1.jpg,Blue_Circle_Dots_3.jpg,left,1045.15999997966,true,NA,true
mDUQoVED,3r6rzgk0yip7nifkjif6ljfzh9ayv2,3dbqwde4yaby09ulxrtkppjlexhn54,mDUQoVED,2020-0188,2020-11-21,11:46:50,12:24:28,NA,incomplete,1,filling,1,right,Green_Star_Grid_1.jpg,Green_Plus_Chess_4.jpg,Red_Triangle_Grid_3.jpg,right,820.949999964796,true,NA,true
mDUQoVED,3r6rzgk0yip7nifkjif6ljfzh9ayv2,3dbqwde4yaby09ulxrtkppjlexhn54,mDUQoVED,2020-0188,2020-11-21,11:46:50,12:24:28,NA,incomplete,2,filling,0,left,Purple_Circle_Stripes_1.jpg,Blue_Plus_Stripes_2.jpg,Purple_Triangle_Dots_4.jpg,left,765.5599999707192,true,NA,true
mDUQoVED,3r6rzgk0yip7nifkjif6ljfzh9ayv2,3dbqwde4yaby09ulxrtkppjlexhn54,mDUQoVED,2020-0188,2020-11-21,11:46:50,12:24:28,NA,incomplete,3,filling,1,right,Green_Triangle_Stripes_4.jpg,Green_Circle_Grid_1.jpg,Blue_Star_Stripes_2.jpg,right,840.5150000471622,true,NA,true
mDUQoVED,3r6rzgk0yip7nifkjif6ljfzh9ayv2,3dbqwde4yaby09ulxrtkppjlexhn54,mDUQoVED,2020-0188,2020-11-21,11:46:50,12:24:28,NA,incomplete,4,filling,0,right,Purple_Triangle_Stripes_1.jpg,Purple_Circle_Grid_2.jpg,Blue_Plus_Stripes_3.jpg,right,832.5650000479072,true,NA,true
mDUQoVED,3r6rzgk0yip7nifkjif6ljfzh9ayv2,3dbqwde4yaby09ulxrtkppjlexhn54,mDUQoVED,2020-0188,2020-11-21,11:46:50,12:24:28,NA,incomplete,5,filling,1,right,Red_Triangle_Stripes_2.jpg,Red_Plus_Grid_3.jpg,Blue_Circle_Stripes_4.jpg,right,753.8450000574812,true,NA,true
mDUQoVED,3r6rzgk0yip7nifkjif6ljfzh9ayv2,3dbqwde4yaby09ulxrtkppjlexhn54,mDUQoVED,2020-0188,2020-11-21,11:46:50,12:24:28,NA,incomplete,6,filling,1,left,Red_Circle_Dots_3.jpg,Blue_Triangle_Dots_1.jpg,Red_Plus_Chess_2.jpg,left,708.6399999679998,true,NA,true
mDUQoVED,3r6rzgk0yip7nifkjif6ljfzh9ayv2,3dbqwde4yaby09ulxrtkppjlexhn54,mDUQoVED,2020-0188,2020-11-21,11:46:50,12:24:28,NA,incomplete,7,filling,1,left,Green_Plus_Stripes_4.jpg,Purple_Triangle_Stripes_2.jpg,Green_Star_Chess_3.jpg,left,818.1949999416247,true,NA,true
mDUQoVED,3r6rzgk0yip7nifkjif6ljfzh9ayv2,3dbqwde4yaby09ulxrtkppjlexhn54,mDUQoVED,2020-0188,2020-11-21,11:46:50,12:24:28,NA,incomplete,8,filling,1,right,Green_Plus_Dots_3.jpg,Green_Circle_Stripes_1.jpg,Red_Star_Dots_2.jpg,right,819.5700000505894,true,NA,true
mDUQoVED,3r6rzgk0yip7nifkjif6ljfzh9ayv2,3dbqwde4yaby09ulxrtkppjlexhn54,mDUQoVED,2020-0188,2020-11-21,11:46:50,12:24:28,NA,incomplete,9,filling,1,left,Red_Star_Dots_3.jpg,Purple_Plus_Dots_1.jpg,Red_Triangle_Grid_4.jpg,left,789.4150000065565,true,NA,true
mDUQoVED,3r6rzgk0yip7nifkjif6ljfzh9ayv2,3dbqwde4yaby09ulxrtkppjlexhn54,mDUQoVED,2020-0188,2020-11-21,11:46:50,12:24:28,NA,incomplete,10,filling,0,left,Blue_Circle_Grid_3.jpg,Purple_Triangle_Grid_4.jpg,Blue_Plus_Chess_1.jpg,left,749.0750000579283,true,NA,true
mDUQoVED,3r6rzgk0yip7nifkjif6ljfzh9ayv2,3dbqwde4yaby09ulxrtkppjlexhn54,mDUQoVED,2020-0188,2020-11-21,11:46:50,12:24:28,NA,incomplete,11,filling,1,right,Purple_Plus_Stripes_4.jpg,Purple_Triangle_Grid_1.jpg,Green_Circle_Stripes_3.jpg,right,786.1500000581145,true,NA,true
mDUQoVED,3r6rzgk0yip7nifkjif6ljfzh9ayv2,3dbqwde4yaby09ulxrtkppjlexhn54,mDUQoVED,2020-0188,2020-11-21,11:46:50,12:24:28,NA,incomplete,12,filling,1,left,Purple_Circle_Dots_4.jpg,Blue_Star_Dots_2.jpg,Purple_Plus_Chess_1.jpg,left,748.2800000580028,true,NA,true
mDUQoVED,3r6rzgk0yip7nifkjif6ljfzh9ayv2,3dbqwde4yaby09ulxrtkppjlexhn54,mDUQoVED,2020-0188,2020-11-21,11:46:50,12:24:28,NA,incomplete,13,filling,1,left,Green_Star_Dots_4.jpg,Purple_Triangle_Dots_3.jpg,Green_Circle_Stripes_1.jpg,left,920.3500000294298,true,NA,true
mDUQoVED,3r6rzgk0yip7nifkjif6ljfzh9ayv2,3dbqwde4yaby09ulxrtkppjlexhn54,mDUQoVED,2020-0188,2020-11-21,11:46:50,12:24:28,NA,incomplete,14,filling,1,left,Purple_Plus_Dots_3.jpg,Blue_Circle_Dots_4.jpg,Purple_Triangle_Stripes_2.jpg,left,782.3000000789762,true,NA,true
mDUQoVED,3r6rzgk0yip7nifkjif6ljfzh9ayv2,3dbqwde4yaby09ulxrtkppjlexhn54,mDUQoVED,2020-0188,2020-11-21,11:46:50,12:24:28,NA,incomplete,15,filling,0,right,Red_Star_Grid_2.jpg,Red_Circle_Chess_1.jpg,Blue_Triangle_Grid_3.jpg,right,854.8249999294057,true,NA,true
mDUQoVED,3r6rzgk0yip7nifkjif6ljfzh9ayv2,3dbqwde4yaby09ulxrtkppjlexhn54,mDUQoVED,2020-0188,2020-11-21,11:46:50,12:24:28,NA,incomplete,16,filling,1,left,Blue_Circle_Chess_2.jpg,Purple_Plus_Chess_4.jpg,Blue_Star_Grid_1.jpg,left,782.7000000979751,true,NA,true
mDUQoVED,3r6rzgk0yip7nifkjif6ljfzh9ayv2,3dbqwde4yaby09ulxrtkppjlexhn54,mDUQoVED,2020-0188,2020-11-21,11:46:50,12:24:28,NA,incomplete,17,filling,1,right,Purple_Circle_Chess_3.jpg,Purple_Star_Grid_4.jpg,Green_Plus_Chess_1.jpg,right,905.6400000117719,true,NA,true
mDUQoVED,3r6rzgk0yip7nifkjif6ljfzh9ayv2,3dbqwde4yaby09ulxrtkppjlexhn54,mDUQoVED,2020-0188,2020-11-21,11:46:50,12:24:28,NA,incomplete,18,filling,1,right,Blue_Star_Dots_4.jpg,Blue_Circle_Grid_2.jpg,Green_Triangle_Dots_1.jpg,right,902.0999999484047,true,NA,true
mDUQoVED,3r6rzgk0yip7nifkjif6ljfzh9ayv2,3dbqwde4yaby09ulxrtkppjlexhn54,mDUQoVED,2020-0188,2020-11-21,11:46:50,12:24:28,NA,incomplete,19,filling,1,left,Green_Triangle_Dots_1.jpg,Blue_Star_Dots_2.jpg,Green_Circle_Stripes_4.jpg,left,740.224999957718,true,NA,true
mDUQoVED,3r6rzgk0yip7nifkjif6ljfzh9ayv2,3dbqwde4yaby09ulxrtkppjlexhn54,mDUQoVED,2020-0188,2020-11-21,11:46:50,12:24:28,NA,incomplete,20,color,1,left,Blue_Circle_Dots_1.jpg,Blue_Star_Grid_2.jpg,Red_Triangle_Dots_4.jpg,right,799.5099999243394,false,NA,true
mDUQoVED,3r6rzgk0yip7nifkjif6ljfzh9ayv2,3dbqwde4yaby09ulxrtkppjlexhn54,mDUQoVED,2020-0188,2020-11-21,11:46:50,12:24:28,NA,incomplete,21,color,1,right,Green_Circle_Chess_4.jpg,Red_Star_Chess_2.jpg,Green_Plus_Dots_3.jpg,left,705.4700000444427,false,NA,true
mDUQoVED,3r6rzgk0yip7nifkjif6ljfzh9ayv2,3dbqwde4yaby09ulxrtkppjlexhn54,mDUQoVED,2020-0188,2020-11-21,11:46:50,12:24:28,NA,incomplete,22,color,1,left,Blue_Star_Chess_2.jpg,Blue_Plus_Grid_4.jpg,Red_Circle_Chess_3.jpg,left,479.274999932386,true,NA,true
mDUQoVED,3r6rzgk0yip7nifkjif6ljfzh9ayv2,3dbqwde4yaby09ulxrtkppjlexhn54,mDUQoVED,2020-0188,2020-11-21,11:46:50,12:24:28,NA,incomplete,23,color,1,right,Red_Circle_Dots_4.jpg,Blue_Star_Dots_1.jpg,Red_Plus_Grid_3.jpg,right,365.63500005286187,true,NA,true
mDUQoVED,3r6rzgk0yip7nifkjif6ljfzh9ayv2,3dbqwde4yaby09ulxrtkppjlexhn54,mDUQoVED,2020-0188,2020-11-21,11:46:50,12:24:28,NA,incomplete,24,color,1,right,Purple_Plus_Grid_1.jpg,Blue_Circle_Grid_3.jpg,Purple_Triangle_Dots_4.jpg,right,403.1500000273809,true,NA,true
mDUQoVED,3r6rzgk0yip7nifkjif6ljfzh9ayv2,3dbqwde4yaby09ulxrtkppjlexhn54,mDUQoVED,2020-0188,2020-11-21,11:46:50,12:24:28,NA,incomplete,25,color,1,left,Red_Plus_Chess_3.jpg,Red_Triangle_Grid_1.jpg,Purple_Circle_Chess_4.jpg,left,506.94500003010035,true,NA,true
mDUQoVED,3r6rzgk0yip7nifkjif6ljfzh9ayv2,3dbqwde4yaby09ulxrtkppjlexhn54,mDUQoVED,2020-0188,2020-11-21,11:46:50,12:24:28,NA,incomplete,26,color,1,right,Blue_Triangle_Grid_1.jpg,Red_Circle_Grid_2.jpg,Blue_Plus_Dots_3.jpg,right,425.334999919869,true,NA,true
mDUQoVED,3r6rzgk0yip7nifkjif6ljfzh9ayv2,3dbqwde4yaby09ulxrtkppjlexhn54,mDUQoVED,2020-0188,2020-11-21,11:46:50,12:24:28,NA,incomplete,27,color,1,right,Green_Star_Dots_2.jpg,Blue_Triangle_Dots_1.jpg,Green_Circle_Stripes_4.jpg,right,546.8400000827387,true,NA,true
mDUQoVED,3r6rzgk0yip7nifkjif6ljfzh9ayv2,3dbqwde4yaby09ulxrtkppjlexhn54,mDUQoVED,2020-0188,2020-11-21,11:46:50,12:24:28,NA,incomplete,28,color,1,left,Purple_Triangle_Chess_4.jpg,Purple_Circle_Grid_3.jpg,Blue_Plus_Chess_2.jpg,left,502.72500002756715,true,NA,true
mDUQoVED,3r6rzgk0yip7nifkjif6ljfzh9ayv2,3dbqwde4yaby09ulxrtkppjlexhn54,mDUQoVED,2020-0188,2020-11-21,11:46:50,12:24:28,NA,incomplete,29,color,1,right,Red_Star_Grid_4.jpg,Purple_Triangle_Grid_1.jpg,Red_Circle_Dots_2.jpg,right,484.06000004615635,true,NA,true
mDUQoVED,3r6rzgk0yip7nifkjif6ljfzh9ayv2,3dbqwde4yaby09ulxrtkppjlexhn54,mDUQoVED,2020-0188,2020-11-21,11:46:50,12:24:28,NA,incomplete,30,color,0,right,Red_Triangle_Dots_1.jpg,Purple_Star_Dots_4.jpg,Red_Circle_Chess_3.jpg,right,500.56499999482185,true,NA,true
mDUQoVED,3r6rzgk0yip7nifkjif6ljfzh9ayv2,3dbqwde4yaby09ulxrtkppjlexhn54,mDUQoVED,2020-0188,2020-11-21,11:46:50,12:24:28,NA,incomplete,31,color,1,left,Purple_Plus_Dots_2.jpg,Purple_Star_Grid_1.jpg,Blue_Triangle_Dots_4.jpg,left,569.2349999444559,true,NA,true
mDUQoVED,3r6rzgk0yip7nifkjif6ljfzh9ayv2,3dbqwde4yaby09ulxrtkppjlexhn54,mDUQoVED,2020-0188,2020-11-21,11:46:50,12:24:28,NA,incomplete,32,color,1,right,Red_Circle_Dots_2.jpg,Purple_Star_Dots_1.jpg,Red_Triangle_Stripes_4.jpg,right,444.8299999348819,true,NA,true
mDUQoVED,3r6rzgk0yip7nifkjif6ljfzh9ayv2,3dbqwde4yaby09ulxrtkppjlexhn54,mDUQoVED,2020-0188,2020-11-21,11:46:50,12:24:28,NA,incomplete,33,color,1,right,Green_Star_Chess_1.jpg,Red_Triangle_Chess_4.jpg,Green_Circle_Dots_3.jpg,right,565.3150000143796,true,NA,true
mDUQoVED,3r6rzgk0yip7nifkjif6ljfzh9ayv2,3dbqwde4yaby09ulxrtkppjlexhn54,mDUQoVED,2020-0188,2020-11-21,11:46:50,12:24:28,NA,incomplete,34,color,0,left,Green_Plus_Dots_2.jpg,Green_Circle_Stripes_3.jpg,Blue_Triangle_Dots_4.jpg,left,417.1850000275299,true,NA,true
mDUQoVED,3r6rzgk0yip7nifkjif6ljfzh9ayv2,3dbqwde4yaby09ulxrtkppjlexhn54,mDUQoVED,2020-0188,2020-11-21,11:46:50,12:24:28,NA,incomplete,35,color,0,right,Purple_Triangle_Stripes_4.jpg,Green_Plus_Stripes_1.jpg,Purple_Circle_Chess_2.jpg,right,418.47000003326684,true,NA,true
mDUQoVED,3r6rzgk0yip7nifkjif6ljfzh9ayv2,3dbqwde4yaby09ulxrtkppjlexhn54,mDUQoVED,2020-0188,2020-11-21,11:46:50,12:24:28,NA,incomplete,36,color,1,right,Red_Circle_Dots_2.jpg,Blue_Star_Dots_1.jpg,Red_Plus_Grid_4.jpg,right,1005.0800000317395,true,NA,true
mDUQoVED,3r6rzgk0yip7nifkjif6ljfzh9ayv2,3dbqwde4yaby09ulxrtkppjlexhn54,mDUQoVED,2020-0188,2020-11-21,11:46:50,12:24:28,NA,incomplete,37,color,1,right,Red_Triangle_Chess_2.jpg,Purple_Plus_Chess_3.jpg,Red_Circle_Stripes_1.jpg,right,635.550000006333,true,NA,true
mDUQoVED,3r6rzgk0yip7nifkjif6ljfzh9ayv2,3dbqwde4yaby09ulxrtkppjlexhn54,mDUQoVED,2020-0188,2020-11-21,11:46:50,12:24:28,NA,incomplete,38,color,0,right,Red_Plus_Stripes_3.jpg,Blue_Circle_Stripes_2.jpg,Red_Triangle_Grid_1.jpg,right,461.0049999319017,true,NA,true
mDUQoVED,3r6rzgk0yip7nifkjif6ljfzh9ayv2,3dbqwde4yaby09ulxrtkppjlexhn54,mDUQoVED,2020-0188,2020-11-21,11:46:50,12:24:28,NA,incomplete,39,color,1,right,Blue_Star_Chess_4.jpg,Red_Triangle_Chess_3.jpg,Blue_Circle_Stripes_1.jpg,right,492.0850000344217,true,NA,true
mDUQoVED,3r6rzgk0yip7nifkjif6ljfzh9ayv2,3dbqwde4yaby09ulxrtkppjlexhn54,mDUQoVED,2020-0188,2020-11-21,11:46:50,12:24:28,NA,incomplete,0,filling,1,right,Blue_Circle_Chess_2.jpg,Blue_Plus_Stripes_3.jpg,Purple_Star_Chess_4.jpg,right,1070.2349999919534,true,high,false
mDUQoVED,3r6rzgk0yip7nifkjif6ljfzh9ayv2,3dbqwde4yaby09ulxrtkppjlexhn54,mDUQoVED,2020-0188,2020-11-21,11:46:50,12:24:28,NA,incomplete,1,filling,1,left,Blue_Star_Grid_1.jpg,Green_Circle_Grid_2.jpg,Blue_Plus_Stripes_4.jpg,left,1316.3650000933558,true,high,false
mDUQoVED,3r6rzgk0yip7nifkjif6ljfzh9ayv2,3dbqwde4yaby09ulxrtkppjlexhn54,mDUQoVED,2020-0188,2020-11-21,11:46:50,12:24:28,NA,incomplete,2,filling,1,right,Green_Circle_Dots_4.jpg,Green_Plus_Grid_1.jpg,Purple_Triangle_Dots_2.jpg,right,801.7499999841675,true,high,false
mDUQoVED,3r6rzgk0yip7nifkjif6ljfzh9ayv2,3dbqwde4yaby09ulxrtkppjlexhn54,mDUQoVED,2020-0188,2020-11-21,11:46:50,12:24:28,NA,incomplete,3,filling,1,left,Blue_Plus_Chess_3.jpg,Green_Circle_Chess_2.jpg,Blue_Star_Stripes_1.jpg,left,874.3349999422207,true,high,false
mDUQoVED,3r6rzgk0yip7nifkjif6ljfzh9ayv2,3dbqwde4yaby09ulxrtkppjlexhn54,mDUQoVED,2020-0188,2020-11-21,11:46:50,12:24:28,NA,incomplete,4,filling,0,left,Red_Circle_Chess_1.jpg,Blue_Triangle_Chess_2.jpg,Red_Star_Grid_3.jpg,left,802.4649999570101,true,high,false
mDUQoVED,3r6rzgk0yip7nifkjif6ljfzh9ayv2,3dbqwde4yaby09ulxrtkppjlexhn54,mDUQoVED,2020-0188,2020-11-21,11:46:50,12:24:28,NA,incomplete,5,filling,1,right,Red_Circle_Grid_2.jpg,Red_Star_Stripes_3.jpg,Blue_Plus_Grid_4.jpg,right,794.605000060983,true,high,false
mDUQoVED,3r6rzgk0yip7nifkjif6ljfzh9ayv2,3dbqwde4yaby09ulxrtkppjlexhn54,mDUQoVED,2020-0188,2020-11-21,11:46:50,12:24:28,NA,incomplete,6,filling,1,left,Red_Star_Stripes_1.jpg,Blue_Circle_Stripes_3.jpg,Red_Triangle_Grid_2.jpg,left,884.239999926649,true,high,false
mDUQoVED,3r6rzgk0yip7nifkjif6ljfzh9ayv2,3dbqwde4yaby09ulxrtkppjlexhn54,mDUQoVED,2020-0188,2020-11-21,11:46:50,12:24:28,NA,incomplete,7,filling,1,left,Blue_Triangle_Dots_3.jpg,Purple_Star_Dots_2.jpg,Blue_Plus_Chess_1.jpg,left,899.0550000453368,true,high,false
mDUQoVED,3r6rzgk0yip7nifkjif6ljfzh9ayv2,3dbqwde4yaby09ulxrtkppjlexhn54,mDUQoVED,2020-0188,2020-11-21,11:46:50,12:24:28,NA,incomplete,8,filling,1,left,Red_Star_Grid_3.jpg,Purple_Triangle_Grid_4.jpg,Red_Plus_Stripes_2.jpg,left,913.0850000074133,true,high,false
mDUQoVED,3r6rzgk0yip7nifkjif6ljfzh9ayv2,3dbqwde4yaby09ulxrtkppjlexhn54,mDUQoVED,2020-0188,2020-11-21,11:46:50,12:24:28,NA,incomplete,9,filling,1,right,Green_Circle_Dots_1.jpg,Green_Plus_Chess_3.jpg,Blue_Star_Dots_4.jpg,right,775.7899999851361,true,high,false
mDUQoVED,3r6rzgk0yip7nifkjif6ljfzh9ayv2,3dbqwde4yaby09ulxrtkppjlexhn54,mDUQoVED,2020-0188,2020-11-21,11:46:50,12:24:28,NA,incomplete,10,color,0,right,Purple_Circle_Stripes_2.jpg,Blue_Star_Stripes_3.jpg,Purple_Triangle_Chess_4.jpg,left,865.2549999533221,false,high,false
mDUQoVED,3r6rzgk0yip7nifkjif6ljfzh9ayv2,3dbqwde4yaby09ulxrtkppjlexhn54,mDUQoVED,2020-0188,2020-11-21,11:46:50,12:24:28,NA,incomplete,11,color,1,right,Green_Triangle_Stripes_4.jpg,Red_Plus_Stripes_3.jpg,Green_Star_Dots_2.jpg,left,801.7750000581145,false,high,false
mDUQoVED,3r6rzgk0yip7nifkjif6ljfzh9ayv2,3dbqwde4yaby09ulxrtkppjlexhn54,mDUQoVED,2020-0188,2020-11-21,11:46:50,12:24:28,NA,incomplete,12,color,1,right,Blue_Plus_Stripes_1.jpg,Red_Circle_Stripes_2.jpg,Blue_Star_Grid_3.jpg,left,802.4150000419468,false,high,false
mDUQoVED,3r6rzgk0yip7nifkjif6ljfzh9ayv2,3dbqwde4yaby09ulxrtkppjlexhn54,mDUQoVED,2020-0188,2020-11-21,11:46:50,12:24:28,NA,incomplete,13,color,1,left,Red_Triangle_Stripes_2.jpg,Red_Plus_Grid_4.jpg,Blue_Circle_Stripes_3.jpg,right,859.0299999341369,false,high,false
mDUQoVED,3r6rzgk0yip7nifkjif6ljfzh9ayv2,3dbqwde4yaby09ulxrtkppjlexhn54,mDUQoVED,2020-0188,2020-11-21,11:46:50,12:24:28,NA,incomplete,14,color,1,right,Green_Star_Stripes_2.jpg,Blue_Triangle_Stripes_1.jpg,Green_Plus_Dots_4.jpg,right,499.61000005714595,true,high,false
mDUQoVED,3r6rzgk0yip7nifkjif6ljfzh9ayv2,3dbqwde4yaby09ulxrtkppjlexhn54,mDUQoVED,2020-0188,2020-11-21,11:46:50,12:24:28,NA,incomplete,15,color,1,left,Green_Plus_Dots_2.jpg,Green_Star_Chess_4.jpg,Red_Circle_Dots_3.jpg,left,472.51500003039837,true,high,false
mDUQoVED,3r6rzgk0yip7nifkjif6ljfzh9ayv2,3dbqwde4yaby09ulxrtkppjlexhn54,mDUQoVED,2020-0188,2020-11-21,11:46:50,12:24:28,NA,incomplete,16,color,1,right,Blue_Circle_Dots_4.jpg,Green_Plus_Dots_1.jpg,Blue_Star_Stripes_2.jpg,right,487.9400000208989,true,high,false
mDUQoVED,3r6rzgk0yip7nifkjif6ljfzh9ayv2,3dbqwde4yaby09ulxrtkppjlexhn54,mDUQoVED,2020-0188,2020-11-21,11:46:50,12:24:28,NA,incomplete,17,color,1,right,Purple_Plus_Stripes_1.jpg,Blue_Triangle_Stripes_3.jpg,Purple_Star_Chess_4.jpg,right,510.6000000378117,true,high,false
mDUQoVED,3r6rzgk0yip7nifkjif6ljfzh9ayv2,3dbqwde4yaby09ulxrtkppjlexhn54,mDUQoVED,2020-0188,2020-11-21,11:46:50,12:24:28,NA,incomplete,18,color,1,right,Red_Circle_Dots_3.jpg,Blue_Star_Dots_1.jpg,Red_Plus_Grid_4.jpg,right,468.2050000410527,true,high,false
mDUQoVED,3r6rzgk0yip7nifkjif6ljfzh9ayv2,3dbqwde4yaby09ulxrtkppjlexhn54,mDUQoVED,2020-0188,2020-11-21,11:46:50,12:24:28,NA,incomplete,19,color,1,left,Red_Circle_Dots_1.jpg,Red_Plus_Stripes_4.jpg,Green_Triangle_Dots_2.jpg,left,531.9249999010935,true,high,false
mDUQoVED,3r6rzgk0yip7nifkjif6ljfzh9ayv2,3dbqwde4yaby09ulxrtkppjlexhn54,mDUQoVED,2020-0188,2020-11-21,11:46:50,12:24:28,NA,incomplete,20,filling,1,left,Blue_Star_Dots_2.jpg,Green_Plus_Dots_4.jpg,Blue_Triangle_Stripes_3.jpg,right,561.7199999978766,false,high,false
mDUQoVED,3r6rzgk0yip7nifkjif6ljfzh9ayv2,3dbqwde4yaby09ulxrtkppjlexhn54,mDUQoVED,2020-0188,2020-11-21,11:46:50,12:24:28,NA,incomplete,21,filling,0,right,Green_Circle_Grid_1.jpg,Green_Triangle_Stripes_2.jpg,Purple_Plus_Grid_3.jpg,left,451.91499998327345,false,high,false
mDUQoVED,3r6rzgk0yip7nifkjif6ljfzh9ayv2,3dbqwde4yaby09ulxrtkppjlexhn54,mDUQoVED,2020-0188,2020-11-21,11:46:50,12:24:28,NA,incomplete,22,filling,1,left,Purple_Plus_Chess_2.jpg,Red_Triangle_Chess_3.jpg,Purple_Star_Dots_1.jpg,right,532.2950000409037,false,high,false
mDUQoVED,3r6rzgk0yip7nifkjif6ljfzh9ayv2,3dbqwde4yaby09ulxrtkppjlexhn54,mDUQoVED,2020-0188,2020-11-21,11:46:50,12:24:28,NA,incomplete,23,filling,1,right,Green_Plus_Dots_1.jpg,Green_Triangle_Chess_2.jpg,Purple_Star_Dots_3.jpg,left,496.50499993003905,false,high,false
mDUQoVED,3r6rzgk0yip7nifkjif6ljfzh9ayv2,3dbqwde4yaby09ulxrtkppjlexhn54,mDUQoVED,2020-0188,2020-11-21,11:46:50,12:24:28,NA,incomplete,24,filling,1,left,Green_Circle_Dots_3.jpg,Red_Plus_Dots_4.jpg,Green_Triangle_Chess_2.jpg,right,511.2199999857694,false,high,false
mDUQoVED,3r6rzgk0yip7nifkjif6ljfzh9ayv2,3dbqwde4yaby09ulxrtkppjlexhn54,mDUQoVED,2020-0188,2020-11-21,11:46:50,12:24:28,NA,incomplete,25,filling,0,right,Green_Triangle_Stripes_3.jpg,Green_Circle_Grid_4.jpg,Blue_Star_Stripes_2.jpg,right,781.7649999633431,true,high,false
mDUQoVED,3r6rzgk0yip7nifkjif6ljfzh9ayv2,3dbqwde4yaby09ulxrtkppjlexhn54,mDUQoVED,2020-0188,2020-11-21,11:46:50,12:24:28,NA,incomplete,26,filling,1,left,Purple_Star_Dots_4.jpg,Red_Circle_Dots_1.jpg,Purple_Triangle_Chess_3.jpg,left,807.7800000319257,true,high,false
mDUQoVED,3r6rzgk0yip7nifkjif6ljfzh9ayv2,3dbqwde4yaby09ulxrtkppjlexhn54,mDUQoVED,2020-0188,2020-11-21,11:46:50,12:24:28,NA,incomplete,27,filling,0,left,Purple_Circle_Stripes_3.jpg,Red_Plus_Stripes_4.jpg,Purple_Star_Chess_2.jpg,left,913.399999961257,true,high,false
mDUQoVED,3r6rzgk0yip7nifkjif6ljfzh9ayv2,3dbqwde4yaby09ulxrtkppjlexhn54,mDUQoVED,2020-0188,2020-11-21,11:46:50,12:24:28,NA,incomplete,28,filling,1,right,Green_Star_Grid_1.jpg,Green_Triangle_Stripes_2.jpg,Purple_Circle_Grid_3.jpg,right,878.7299999967217,true,high,false
mDUQoVED,3r6rzgk0yip7nifkjif6ljfzh9ayv2,3dbqwde4yaby09ulxrtkppjlexhn54,mDUQoVED,2020-0188,2020-11-21,11:46:50,12:24:28,NA,incomplete,29,filling,1,right,Green_Plus_Chess_3.jpg,Green_Circle_Stripes_2.jpg,Blue_Triangle_Chess_1.jpg,right,820.7600000314415,true,high,false
mDUQoVED,3r6rzgk0yip7nifkjif6ljfzh9ayv2,3dbqwde4yaby09ulxrtkppjlexhn54,mDUQoVED,2020-0188,2020-11-21,11:46:50,12:24:28,NA,incomplete,30,color,1,right,Blue_Circle_Chess_2.jpg,Red_Star_Chess_3.jpg,Blue_Triangle_Dots_4.jpg,left,671.5649999678135,false,high,false
mDUQoVED,3r6rzgk0yip7nifkjif6ljfzh9ayv2,3dbqwde4yaby09ulxrtkppjlexhn54,mDUQoVED,2020-0188,2020-11-21,11:46:50,12:24:28,NA,incomplete,31,color,1,right,Blue_Plus_Stripes_1.jpg,Green_Star_Stripes_2.jpg,Blue_Circle_Grid_3.jpg,left,948.4299999894574,false,high,false
mDUQoVED,3r6rzgk0yip7nifkjif6ljfzh9ayv2,3dbqwde4yaby09ulxrtkppjlexhn54,mDUQoVED,2020-0188,2020-11-21,11:46:50,12:24:28,NA,incomplete,32,color,1,right,Red_Circle_Grid_4.jpg,Blue_Star_Grid_3.jpg,Red_Plus_Chess_1.jpg,right,791.8400000780821,true,high,false
mDUQoVED,3r6rzgk0yip7nifkjif6ljfzh9ayv2,3dbqwde4yaby09ulxrtkppjlexhn54,mDUQoVED,2020-0188,2020-11-21,11:46:50,12:24:28,NA,incomplete,33,color,1,left,Purple_Plus_Chess_2.jpg,Purple_Circle_Dots_4.jpg,Red_Triangle_Chess_3.jpg,left,633.8300000643358,true,high,false
mDUQoVED,3r6rzgk0yip7nifkjif6ljfzh9ayv2,3dbqwde4yaby09ulxrtkppjlexhn54,mDUQoVED,2020-0188,2020-11-21,11:46:50,12:24:28,NA,incomplete,34,color,1,right,Purple_Triangle_Stripes_4.jpg,Blue_Plus_Stripes_3.jpg,Purple_Star_Chess_1.jpg,right,538.5550000937656,true,high,false
mDUQoVED,3r6rzgk0yip7nifkjif6ljfzh9ayv2,3dbqwde4yaby09ulxrtkppjlexhn54,mDUQoVED,2020-0188,2020-11-21,11:46:50,12:24:28,NA,incomplete,35,color,1,right,Red_Star_Dots_1.jpg,Green_Triangle_Dots_3.jpg,Red_Plus_Grid_2.jpg,right,495.7100000465289,true,high,false
mDUQoVED,3r6rzgk0yip7nifkjif6ljfzh9ayv2,3dbqwde4yaby09ulxrtkppjlexhn54,mDUQoVED,2020-0188,2020-11-21,11:46:50,12:24:28,NA,incomplete,36,color,1,right,Blue_Plus_Dots_1.jpg,Purple_Circle_Dots_4.jpg,Blue_Star_Stripes_2.jpg,right,461.8100000079721,true,high,false
mDUQoVED,3r6rzgk0yip7nifkjif6ljfzh9ayv2,3dbqwde4yaby09ulxrtkppjlexhn54,mDUQoVED,2020-0188,2020-11-21,11:46:50,12:24:28,NA,incomplete,37,color,1,left,Green_Star_Stripes_3.jpg,Green_Plus_Grid_4.jpg,Red_Triangle_Stripes_2.jpg,left,428.8749999832362,true,high,false
mDUQoVED,3r6rzgk0yip7nifkjif6ljfzh9ayv2,3dbqwde4yaby09ulxrtkppjlexhn54,mDUQoVED,2020-0188,2020-11-21,11:46:50,12:24:28,NA,incomplete,38,color,1,left,Green_Triangle_Stripes_3.jpg,Green_Circle_Grid_4.jpg,Blue_Star_Stripes_1.jpg,left,501.8750000745058,true,high,false
mDUQoVED,3r6rzgk0yip7nifkjif6ljfzh9ayv2,3dbqwde4yaby09ulxrtkppjlexhn54,mDUQoVED,2020-0188,2020-11-21,11:46:50,12:24:28,NA,incomplete,39,color,1,left,Green_Triangle_Dots_2.jpg,Green_Plus_Grid_1.jpg,Red_Circle_Dots_3.jpg,left,475.57999996934086,true,high,false
mDUQoVED,3r6rzgk0yip7nifkjif6ljfzh9ayv2,3dbqwde4yaby09ulxrtkppjlexhn54,mDUQoVED,2020-0188,2020-11-21,11:46:50,12:24:28,NA,incomplete,40,filling,1,left,Green_Triangle_Chess_2.jpg,Purple_Star_Chess_1.jpg,Green_Plus_Grid_4.jpg,right,491.07999994885176,false,high,false
mDUQoVED,3r6rzgk0yip7nifkjif6ljfzh9ayv2,3dbqwde4yaby09ulxrtkppjlexhn54,mDUQoVED,2020-0188,2020-11-21,11:46:50,12:24:28,NA,incomplete,41,filling,0,right,Purple_Circle_Chess_4.jpg,Purple_Plus_Dots_1.jpg,Green_Triangle_Chess_3.jpg,left,707.2250000201166,false,high,false
mDUQoVED,3r6rzgk0yip7nifkjif6ljfzh9ayv2,3dbqwde4yaby09ulxrtkppjlexhn54,mDUQoVED,2020-0188,2020-11-21,11:46:50,12:24:28,NA,incomplete,42,filling,1,left,Blue_Star_Stripes_3.jpg,Green_Plus_Stripes_2.jpg,Blue_Triangle_Dots_4.jpg,right,487.1300000231713,false,high,false
mDUQoVED,3r6rzgk0yip7nifkjif6ljfzh9ayv2,3dbqwde4yaby09ulxrtkppjlexhn54,mDUQoVED,2020-0188,2020-11-21,11:46:50,12:24:28,NA,incomplete,43,filling,0,right,Red_Star_Dots_4.jpg,Red_Plus_Grid_3.jpg,Purple_Triangle_Dots_1.jpg,left,557.3800000129268,false,high,false
mDUQoVED,3r6rzgk0yip7nifkjif6ljfzh9ayv2,3dbqwde4yaby09ulxrtkppjlexhn54,mDUQoVED,2020-0188,2020-11-21,11:46:50,12:24:28,NA,incomplete,44,filling,1,right,Blue_Triangle_Dots_2.jpg,Blue_Circle_Chess_1.jpg,Red_Star_Dots_3.jpg,left,504.7300000442192,false,high,false
mDUQoVED,3r6rzgk0yip7nifkjif6ljfzh9ayv2,3dbqwde4yaby09ulxrtkppjlexhn54,mDUQoVED,2020-0188,2020-11-21,11:46:50,12:24:28,NA,incomplete,45,filling,1,left,Purple_Triangle_Stripes_3.jpg,Red_Circle_Stripes_2.jpg,Purple_Plus_Dots_1.jpg,right,494.88999997265637,false,high,false
mDUQoVED,3r6rzgk0yip7nifkjif6ljfzh9ayv2,3dbqwde4yaby09ulxrtkppjlexhn54,mDUQoVED,2020-0188,2020-11-21,11:46:50,12:24:28,NA,incomplete,46,filling,1,right,Red_Circle_Grid_1.jpg,Red_Triangle_Stripes_2.jpg,Purple_Plus_Grid_3.jpg,left,452.82000000588596,false,high,false
mDUQoVED,3r6rzgk0yip7nifkjif6ljfzh9ayv2,3dbqwde4yaby09ulxrtkppjlexhn54,mDUQoVED,2020-0188,2020-11-21,11:46:50,12:24:28,NA,incomplete,47,filling,1,right,Blue_Star_Dots_4.jpg,Blue_Triangle_Stripes_2.jpg,Red_Plus_Dots_3.jpg,right,796.7149999458343,true,high,false
mDUQoVED,3r6rzgk0yip7nifkjif6ljfzh9ayv2,3dbqwde4yaby09ulxrtkppjlexhn54,mDUQoVED,2020-0188,2020-11-21,11:46:50,12:24:28,NA,incomplete,48,filling,1,right,Red_Star_Stripes_2.jpg,Red_Triangle_Grid_4.jpg,Blue_Plus_Stripes_3.jpg,right,814.2799999332055,true,high,false
mDUQoVED,3r6rzgk0yip7nifkjif6ljfzh9ayv2,3dbqwde4yaby09ulxrtkppjlexhn54,mDUQoVED,2020-0188,2020-11-21,11:46:50,12:24:28,NA,incomplete,49,filling,0,left,Blue_Circle_Grid_1.jpg,Red_Star_Grid_2.jpg,Blue_Plus_Stripes_4.jpg,left,855.5349999805912,true,high,false
mDUQoVED,3r6rzgk0yip7nifkjif6ljfzh9ayv2,3dbqwde4yaby09ulxrtkppjlexhn54,mDUQoVED,2020-0188,2020-11-21,11:46:50,12:24:28,NA,incomplete,50,color,1,left,Blue_Star_Dots_1.jpg,Blue_Circle_Grid_2.jpg,Red_Triangle_Dots_3.jpg,right,807.4750000378117,false,high,false
mDUQoVED,3r6rzgk0yip7nifkjif6ljfzh9ayv2,3dbqwde4yaby09ulxrtkppjlexhn54,mDUQoVED,2020-0188,2020-11-21,11:46:50,12:24:28,NA,incomplete,51,color,1,left,Green_Star_Grid_4.jpg,Green_Triangle_Stripes_2.jpg,Red_Circle_Grid_1.jpg,left,1152.464999933727,true,high,false
mDUQoVED,3r6rzgk0yip7nifkjif6ljfzh9ayv2,3dbqwde4yaby09ulxrtkppjlexhn54,mDUQoVED,2020-0188,2020-11-21,11:46:50,12:24:28,NA,incomplete,52,color,0,right,Red_Triangle_Dots_3.jpg,Purple_Circle_Dots_2.jpg,Red_Plus_Chess_4.jpg,right,540.3250000672415,true,high,false
mDUQoVED,3r6rzgk0yip7nifkjif6ljfzh9ayv2,3dbqwde4yaby09ulxrtkppjlexhn54,mDUQoVED,2020-0188,2020-11-21,11:46:50,12:24:28,NA,incomplete,53,color,1,right,Green_Circle_Chess_1.jpg,Blue_Triangle_Chess_4.jpg,Green_Star_Stripes_2.jpg,right,486.85999994631857,true,high,false
mDUQoVED,3r6rzgk0yip7nifkjif6ljfzh9ayv2,3dbqwde4yaby09ulxrtkppjlexhn54,mDUQoVED,2020-0188,2020-11-21,11:46:50,12:24:28,NA,incomplete,54,color,1,left,Purple_Triangle_Chess_2.jpg,Purple_Star_Dots_4.jpg,Blue_Plus_Chess_3.jpg,left,525.2200000686571,true,high,false
mDUQoVED,3r6rzgk0yip7nifkjif6ljfzh9ayv2,3dbqwde4yaby09ulxrtkppjlexhn54,mDUQoVED,2020-0188,2020-11-21,11:46:50,12:24:28,NA,incomplete,55,color,1,right,Red_Plus_Chess_4.jpg,Green_Circle_Chess_1.jpg,Red_Star_Grid_2.jpg,right,498.5099999466911,true,high,false
mDUQoVED,3r6rzgk0yip7nifkjif6ljfzh9ayv2,3dbqwde4yaby09ulxrtkppjlexhn54,mDUQoVED,2020-0188,2020-11-21,11:46:50,12:24:28,NA,incomplete,56,color,1,left,Red_Plus_Grid_2.jpg,Red_Star_Stripes_3.jpg,Purple_Triangle_Grid_4.jpg,left,497.7450000587851,true,high,false
mDUQoVED,3r6rzgk0yip7nifkjif6ljfzh9ayv2,3dbqwde4yaby09ulxrtkppjlexhn54,mDUQoVED,2020-0188,2020-11-21,11:46:50,12:24:28,NA,incomplete,57,color,1,right,Green_Plus_Grid_1.jpg,Red_Triangle_Grid_3.jpg,Green_Circle_Dots_2.jpg,right,478.73500001151115,true,high,false
mDUQoVED,3r6rzgk0yip7nifkjif6ljfzh9ayv2,3dbqwde4yaby09ulxrtkppjlexhn54,mDUQoVED,2020-0188,2020-11-21,11:46:50,12:24:28,NA,incomplete,58,color,1,left,Blue_Circle_Chess_2.jpg,Blue_Triangle_Dots_3.jpg,Purple_Star_Chess_4.jpg,left,519.9249999132007,true,high,false
mDUQoVED,3r6rzgk0yip7nifkjif6ljfzh9ayv2,3dbqwde4yaby09ulxrtkppjlexhn54,mDUQoVED,2020-0188,2020-11-21,11:46:50,12:24:28,NA,incomplete,59,color,0,left,Green_Circle_Chess_2.jpg,Green_Plus_Dots_4.jpg,Blue_Star_Chess_1.jpg,left,476.0000000242144,true,high,false
mDUQoVED,3r6rzgk0yip7nifkjif6ljfzh9ayv2,3dbqwde4yaby09ulxrtkppjlexhn54,mDUQoVED,2020-0188,2020-11-21,11:46:50,12:24:28,NA,incomplete,60,filling,1,right,Red_Circle_Dots_4.jpg,Red_Plus_Chess_3.jpg,Blue_Triangle_Dots_1.jpg,left,498.4900000272319,false,high,false
mDUQoVED,3r6rzgk0yip7nifkjif6ljfzh9ayv2,3dbqwde4yaby09ulxrtkppjlexhn54,mDUQoVED,2020-0188,2020-11-21,11:46:50,12:24:28,NA,incomplete,61,filling,0,right,Red_Plus_Chess_1.jpg,Red_Circle_Stripes_4.jpg,Green_Star_Chess_3.jpg,right,850.294999894686,true,high,false
mDUQoVED,3r6rzgk0yip7nifkjif6ljfzh9ayv2,3dbqwde4yaby09ulxrtkppjlexhn54,mDUQoVED,2020-0188,2020-11-21,11:46:50,12:24:28,NA,incomplete,62,filling,1,left,Purple_Circle_Stripes_2.jpg,Blue_Star_Stripes_3.jpg,Purple_Triangle_Dots_4.jpg,left,697.2649999661371,true,high,false
mDUQoVED,3r6rzgk0yip7nifkjif6ljfzh9ayv2,3dbqwde4yaby09ulxrtkppjlexhn54,mDUQoVED,2020-0188,2020-11-21,11:46:50,12:24:28,NA,incomplete,63,filling,1,left,Red_Triangle_Dots_4.jpg,Green_Star_Dots_3.jpg,Red_Plus_Grid_2.jpg,left,864.2099999124184,true,high,false
mDUQoVED,3r6rzgk0yip7nifkjif6ljfzh9ayv2,3dbqwde4yaby09ulxrtkppjlexhn54,mDUQoVED,2020-0188,2020-11-21,11:46:50,12:24:28,NA,incomplete,64,filling,1,right,Purple_Triangle_Stripes_2.jpg,Purple_Plus_Chess_4.jpg,Green_Star_Stripes_3.jpg,right,614.4799999892712,true,high,false
mDUQoVED,3r6rzgk0yip7nifkjif6ljfzh9ayv2,3dbqwde4yaby09ulxrtkppjlexhn54,mDUQoVED,2020-0188,2020-11-21,11:46:50,12:24:28,NA,incomplete,65,filling,1,right,Blue_Plus_Stripes_1.jpg,Blue_Circle_Grid_3.jpg,Green_Star_Stripes_2.jpg,right,928.1000000191852,true,high,false
mDUQoVED,3r6rzgk0yip7nifkjif6ljfzh9ayv2,3dbqwde4yaby09ulxrtkppjlexhn54,mDUQoVED,2020-0188,2020-11-21,11:46:50,12:24:28,NA,incomplete,66,filling,1,left,Green_Circle_Grid_4.jpg,Blue_Triangle_Grid_3.jpg,Green_Star_Dots_1.jpg,left,685.6299999635667,true,high,false
mDUQoVED,3r6rzgk0yip7nifkjif6ljfzh9ayv2,3dbqwde4yaby09ulxrtkppjlexhn54,mDUQoVED,2020-0188,2020-11-21,11:46:50,12:24:28,NA,incomplete,67,filling,1,right,Blue_Triangle_Stripes_3.jpg,Blue_Circle_Grid_1.jpg,Purple_Star_Stripes_4.jpg,right,843.2749999919906,true,high,false
mDUQoVED,3r6rzgk0yip7nifkjif6ljfzh9ayv2,3dbqwde4yaby09ulxrtkppjlexhn54,mDUQoVED,2020-0188,2020-11-21,11:46:50,12:24:28,NA,incomplete,68,filling,1,right,Purple_Triangle_Stripes_3.jpg,Purple_Star_Dots_1.jpg,Red_Plus_Stripes_2.jpg,right,827.6300000725314,true,high,false
mDUQoVED,3r6rzgk0yip7nifkjif6ljfzh9ayv2,3dbqwde4yaby09ulxrtkppjlexhn54,mDUQoVED,2020-0188,2020-11-21,11:46:50,12:24:28,NA,incomplete,69,filling,1,right,Blue_Circle_Dots_1.jpg,Blue_Plus_Chess_3.jpg,Purple_Triangle_Dots_4.jpg,right,771.6500000096858,true,high,false
mDUQoVED,3r6rzgk0yip7nifkjif6ljfzh9ayv2,3dbqwde4yaby09ulxrtkppjlexhn54,mDUQoVED,2020-0188,2020-11-21,11:46:50,12:24:28,NA,incomplete,70,color,0,left,Red_Triangle_Dots_3.jpg,Red_Circle_Chess_2.jpg,Green_Plus_Dots_1.jpg,right,710.6249999487773,false,high,false
mDUQoVED,3r6rzgk0yip7nifkjif6ljfzh9ayv2,3dbqwde4yaby09ulxrtkppjlexhn54,mDUQoVED,2020-0188,2020-11-21,11:46:50,12:24:28,NA,incomplete,71,color,0,right,Blue_Star_Chess_2.jpg,Red_Circle_Chess_3.jpg,Blue_Plus_Grid_1.jpg,left,724.6799999848008,false,high,false
mDUQoVED,3r6rzgk0yip7nifkjif6ljfzh9ayv2,3dbqwde4yaby09ulxrtkppjlexhn54,mDUQoVED,2020-0188,2020-11-21,11:46:50,12:24:28,NA,incomplete,72,color,1,right,Green_Circle_Grid_2.jpg,Purple_Triangle_Grid_4.jpg,Green_Plus_Stripes_1.jpg,left,809.3499999959022,false,high,false
mDUQoVED,3r6rzgk0yip7nifkjif6ljfzh9ayv2,3dbqwde4yaby09ulxrtkppjlexhn54,mDUQoVED,2020-0188,2020-11-21,11:46:50,12:24:28,NA,incomplete,73,color,1,left,Red_Circle_Chess_4.jpg,Red_Triangle_Grid_2.jpg,Blue_Star_Chess_3.jpg,right,778.5400000866503,false,high,false
mDUQoVED,3r6rzgk0yip7nifkjif6ljfzh9ayv2,3dbqwde4yaby09ulxrtkppjlexhn54,mDUQoVED,2020-0188,2020-11-21,11:46:50,12:24:28,NA,incomplete,74,color,1,left,Purple_Triangle_Chess_4.jpg,Purple_Plus_Dots_3.jpg,Blue_Circle_Chess_2.jpg,left,565.0199999799952,true,high,false
mDUQoVED,3r6rzgk0yip7nifkjif6ljfzh9ayv2,3dbqwde4yaby09ulxrtkppjlexhn54,mDUQoVED,2020-0188,2020-11-21,11:46:50,12:24:28,NA,incomplete,75,color,0,right,Purple_Circle_Stripes_3.jpg,Blue_Star_Stripes_1.jpg,Purple_Triangle_Chess_2.jpg,right,481.83499998413026,true,high,false
mDUQoVED,3r6rzgk0yip7nifkjif6ljfzh9ayv2,3dbqwde4yaby09ulxrtkppjlexhn54,mDUQoVED,2020-0188,2020-11-21,11:46:50,12:24:28,NA,incomplete,76,color,1,right,Blue_Triangle_Chess_1.jpg,Green_Star_Chess_4.jpg,Blue_Circle_Grid_2.jpg,right,487.4399999389425,true,high,false
mDUQoVED,3r6rzgk0yip7nifkjif6ljfzh9ayv2,3dbqwde4yaby09ulxrtkppjlexhn54,mDUQoVED,2020-0188,2020-11-21,11:46:50,12:24:28,NA,incomplete,77,color,0,right,Purple_Triangle_Dots_1.jpg,Blue_Plus_Dots_2.jpg,Purple_Circle_Stripes_3.jpg,right,461.9949999032542,true,high,false
mDUQoVED,3r6rzgk0yip7nifkjif6ljfzh9ayv2,3dbqwde4yaby09ulxrtkppjlexhn54,mDUQoVED,2020-0188,2020-11-21,11:46:50,12:24:28,NA,incomplete,78,color,1,right,Blue_Plus_Stripes_4.jpg,Purple_Circle_Stripes_2.jpg,Blue_Star_Chess_1.jpg,right,534.5699999015778,true,high,false
mDUQoVED,3r6rzgk0yip7nifkjif6ljfzh9ayv2,3dbqwde4yaby09ulxrtkppjlexhn54,mDUQoVED,2020-0188,2020-11-21,11:46:50,12:24:28,NA,incomplete,79,color,1,right,Blue_Star_Stripes_3.jpg,Red_Triangle_Stripes_2.jpg,Blue_Circle_Chess_4.jpg,right,540.1649998966604,true,high,false
mDUQoVED,3r6rzgk0yip7nifkjif6ljfzh9ayv2,3dbqwde4yaby09ulxrtkppjlexhn54,mDUQoVED,2020-0188,2020-11-21,11:46:50,12:24:28,NA,incomplete,80,filling,1,left,Red_Star_Grid_2.jpg,Blue_Circle_Grid_3.jpg,Red_Plus_Stripes_1.jpg,right,487.044999958016,false,high,false
mDUQoVED,3r6rzgk0yip7nifkjif6ljfzh9ayv2,3dbqwde4yaby09ulxrtkppjlexhn54,mDUQoVED,2020-0188,2020-11-21,11:46:50,12:24:28,NA,incomplete,81,filling,1,left,Purple_Plus_Stripes_2.jpg,Green_Star_Stripes_3.jpg,Purple_Circle_Dots_1.jpg,right,517.0100000686944,false,high,false
mDUQoVED,3r6rzgk0yip7nifkjif6ljfzh9ayv2,3dbqwde4yaby09ulxrtkppjlexhn54,mDUQoVED,2020-0188,2020-11-21,11:46:50,12:24:28,NA,incomplete,82,filling,1,right,Red_Triangle_Chess_2.jpg,Red_Plus_Stripes_1.jpg,Blue_Circle_Chess_3.jpg,right,866.8750000651926,true,high,false
mDUQoVED,3r6rzgk0yip7nifkjif6ljfzh9ayv2,3dbqwde4yaby09ulxrtkppjlexhn54,mDUQoVED,2020-0188,2020-11-21,11:46:50,12:24:28,NA,incomplete,83,filling,1,right,Blue_Star_Dots_2.jpg,Blue_Plus_Grid_3.jpg,Green_Triangle_Dots_1.jpg,right,721.9000000040978,true,high,false
mDUQoVED,3r6rzgk0yip7nifkjif6ljfzh9ayv2,3dbqwde4yaby09ulxrtkppjlexhn54,mDUQoVED,2020-0188,2020-11-21,11:46:50,12:24:28,NA,incomplete,84,filling,1,left,Red_Plus_Stripes_3.jpg,Blue_Triangle_Stripes_2.jpg,Red_Star_Grid_1.jpg,left,679.6900000190362,true,high,false
mDUQoVED,3r6rzgk0yip7nifkjif6ljfzh9ayv2,3dbqwde4yaby09ulxrtkppjlexhn54,mDUQoVED,2020-0188,2020-11-21,11:46:50,12:24:28,NA,incomplete,85,filling,1,right,Blue_Circle_Chess_3.jpg,Blue_Plus_Dots_4.jpg,Red_Triangle_Chess_1.jpg,right,765.54000005126,true,high,false
mDUQoVED,3r6rzgk0yip7nifkjif6ljfzh9ayv2,3dbqwde4yaby09ulxrtkppjlexhn54,mDUQoVED,2020-0188,2020-11-21,11:46:50,12:24:28,NA,incomplete,86,filling,0,left,Red_Circle_Dots_1.jpg,Green_Triangle_Dots_2.jpg,Red_Star_Grid_4.jpg,left,929.1700000176206,true,high,false
mDUQoVED,3r6rzgk0yip7nifkjif6ljfzh9ayv2,3dbqwde4yaby09ulxrtkppjlexhn54,mDUQoVED,2020-0188,2020-11-21,11:46:50,12:24:28,NA,incomplete,87,filling,0,right,Red_Circle_Dots_1.jpg,Red_Triangle_Grid_4.jpg,Green_Plus_Dots_2.jpg,right,798.2249999186024,true,high,false
mDUQoVED,3r6rzgk0yip7nifkjif6ljfzh9ayv2,3dbqwde4yaby09ulxrtkppjlexhn54,mDUQoVED,2020-0188,2020-11-21,11:46:50,12:24:28,NA,incomplete,88,filling,0,right,Blue_Star_Stripes_1.jpg,Blue_Plus_Chess_2.jpg,Green_Circle_Stripes_3.jpg,right,934.9699999438599,true,high,false
mDUQoVED,3r6rzgk0yip7nifkjif6ljfzh9ayv2,3dbqwde4yaby09ulxrtkppjlexhn54,mDUQoVED,2020-0188,2020-11-21,11:46:50,12:24:28,NA,incomplete,89,filling,1,left,Red_Star_Grid_2.jpg,Blue_Triangle_Grid_3.jpg,Red_Circle_Stripes_1.jpg,right,500.1250000204891,false,high,false
mDUQoVED,3r6rzgk0yip7nifkjif6ljfzh9ayv2,3dbqwde4yaby09ulxrtkppjlexhn54,mDUQoVED,2020-0188,2020-11-21,11:46:50,12:24:28,NA,incomplete,90,color,1,left,Blue_Circle_Grid_4.jpg,Blue_Star_Stripes_1.jpg,Red_Plus_Grid_3.jpg,left,505.75000001117587,true,high,false
mDUQoVED,3r6rzgk0yip7nifkjif6ljfzh9ayv2,3dbqwde4yaby09ulxrtkppjlexhn54,mDUQoVED,2020-0188,2020-11-21,11:46:50,12:24:28,NA,incomplete,91,color,1,right,Blue_Circle_Stripes_2.jpg,Red_Triangle_Stripes_3.jpg,Blue_Plus_Grid_4.jpg,right,415.2999999932945,true,high,false
mDUQoVED,3r6rzgk0yip7nifkjif6ljfzh9ayv2,3dbqwde4yaby09ulxrtkppjlexhn54,mDUQoVED,2020-0188,2020-11-21,11:46:50,12:24:28,NA,incomplete,92,color,1,right,Blue_Circle_Dots_3.jpg,Red_Triangle_Dots_1.jpg,Blue_Star_Grid_2.jpg,right,432.86499998066574,true,high,false
mDUQoVED,3r6rzgk0yip7nifkjif6ljfzh9ayv2,3dbqwde4yaby09ulxrtkppjlexhn54,mDUQoVED,2020-0188,2020-11-21,11:46:50,12:24:28,NA,incomplete,93,color,1,left,Green_Plus_Stripes_4.jpg,Green_Star_Chess_2.jpg,Blue_Triangle_Stripes_1.jpg,left,425.8799999952316,true,high,false
mDUQoVED,3r6rzgk0yip7nifkjif6ljfzh9ayv2,3dbqwde4yaby09ulxrtkppjlexhn54,mDUQoVED,2020-0188,2020-11-21,11:46:50,12:24:28,NA,incomplete,94,color,1,right,Blue_Plus_Dots_2.jpg,Purple_Circle_Dots_3.jpg,Blue_Triangle_Grid_4.jpg,right,395.5650000134483,true,high,false
mDUQoVED,3r6rzgk0yip7nifkjif6ljfzh9ayv2,3dbqwde4yaby09ulxrtkppjlexhn54,mDUQoVED,2020-0188,2020-11-21,11:46:50,12:24:28,NA,incomplete,95,color,1,right,Red_Triangle_Stripes_2.jpg,Green_Star_Stripes_1.jpg,Red_Plus_Chess_3.jpg,right,454.22499999403954,true,high,false
mDUQoVED,3r6rzgk0yip7nifkjif6ljfzh9ayv2,3dbqwde4yaby09ulxrtkppjlexhn54,mDUQoVED,2020-0188,2020-11-21,11:46:50,12:24:28,NA,incomplete,96,color,1,right,Green_Plus_Stripes_2.jpg,Blue_Star_Stripes_4.jpg,Green_Circle_Chess_1.jpg,right,435.6399999232963,true,high,false
mDUQoVED,3r6rzgk0yip7nifkjif6ljfzh9ayv2,3dbqwde4yaby09ulxrtkppjlexhn54,mDUQoVED,2020-0188,2020-11-21,11:46:50,12:24:28,NA,incomplete,97,color,1,right,Green_Circle_Dots_2.jpg,Red_Triangle_Dots_1.jpg,Green_Plus_Grid_3.jpg,right,430.3000000072643,true,high,false
mDUQoVED,3r6rzgk0yip7nifkjif6ljfzh9ayv2,3dbqwde4yaby09ulxrtkppjlexhn54,mDUQoVED,2020-0188,2020-11-21,11:46:50,12:24:28,NA,incomplete,98,color,1,left,Purple_Triangle_Grid_1.jpg,Purple_Plus_Chess_3.jpg,Red_Star_Grid_4.jpg,left,559.4699999783188,true,high,false
mDUQoVED,3r6rzgk0yip7nifkjif6ljfzh9ayv2,3dbqwde4yaby09ulxrtkppjlexhn54,mDUQoVED,2020-0188,2020-11-21,11:46:50,12:24:28,NA,incomplete,99,color,1,left,Blue_Circle_Grid_4.jpg,Blue_Plus_Stripes_3.jpg,Purple_Triangle_Grid_2.jpg,left,521.3399999774992,true,high,false
mDUQoVED,3r6rzgk0yip7nifkjif6ljfzh9ayv2,3dbqwde4yaby09ulxrtkppjlexhn54,mDUQoVED,2020-0188,2020-11-21,11:46:50,12:24:28,NA,incomplete,100,filling,1,right,Purple_Plus_Dots_4.jpg,Purple_Triangle_Grid_2.jpg,Blue_Circle_Dots_1.jpg,left,519.7199999820441,false,high,false
mDUQoVED,3r6rzgk0yip7nifkjif6ljfzh9ayv2,3dbqwde4yaby09ulxrtkppjlexhn54,mDUQoVED,2020-0188,2020-11-21,11:46:50,12:24:28,NA,incomplete,101,filling,1,right,Red_Plus_Grid_1.jpg,Red_Star_Stripes_3.jpg,Green_Circle_Grid_2.jpg,left,581.3550000311807,false,high,false
mDUQoVED,3r6rzgk0yip7nifkjif6ljfzh9ayv2,3dbqwde4yaby09ulxrtkppjlexhn54,mDUQoVED,2020-0188,2020-11-21,11:46:50,12:24:28,NA,incomplete,102,filling,1,right,Blue_Circle_Dots_3.jpg,Blue_Plus_Grid_2.jpg,Red_Triangle_Dots_4.jpg,right,687.6349999802187,true,high,false
mDUQoVED,3r6rzgk0yip7nifkjif6ljfzh9ayv2,3dbqwde4yaby09ulxrtkppjlexhn54,mDUQoVED,2020-0188,2020-11-21,11:46:50,12:24:28,NA,incomplete,103,filling,0,left,Purple_Star_Dots_4.jpg,Red_Plus_Dots_1.jpg,Purple_Circle_Stripes_2.jpg,left,764.9349999846891,true,high,false
mDUQoVED,3r6rzgk0yip7nifkjif6ljfzh9ayv2,3dbqwde4yaby09ulxrtkppjlexhn54,mDUQoVED,2020-0188,2020-11-21,11:46:50,12:24:28,NA,incomplete,104,filling,1,left,Purple_Plus_Dots_3.jpg,Red_Circle_Dots_2.jpg,Purple_Triangle_Grid_1.jpg,left,840.9550000214949,true,high,false
mDUQoVED,3r6rzgk0yip7nifkjif6ljfzh9ayv2,3dbqwde4yaby09ulxrtkppjlexhn54,mDUQoVED,2020-0188,2020-11-21,11:46:50,12:24:28,NA,incomplete,105,filling,1,right,Red_Plus_Grid_4.jpg,Red_Star_Dots_2.jpg,Blue_Circle_Grid_1.jpg,right,672.954999958165,true,high,false
mDUQoVED,3r6rzgk0yip7nifkjif6ljfzh9ayv2,3dbqwde4yaby09ulxrtkppjlexhn54,mDUQoVED,2020-0188,2020-11-21,11:46:50,12:24:28,NA,incomplete,106,filling,1,left,Green_Triangle_Grid_2.jpg,Blue_Circle_Grid_1.jpg,Green_Plus_Stripes_3.jpg,left,753.1200000084937,true,high,false
mDUQoVED,3r6rzgk0yip7nifkjif6ljfzh9ayv2,3dbqwde4yaby09ulxrtkppjlexhn54,mDUQoVED,2020-0188,2020-11-21,11:46:50,12:24:28,NA,incomplete,107,filling,1,right,Purple_Circle_Grid_3.jpg,Purple_Triangle_Stripes_4.jpg,Green_Plus_Grid_1.jpg,right,867.3349999589846,true,high,false
mDUQoVED,3r6rzgk0yip7nifkjif6ljfzh9ayv2,3dbqwde4yaby09ulxrtkppjlexhn54,mDUQoVED,2020-0188,2020-11-21,11:46:50,12:24:28,NA,incomplete,108,filling,1,right,Blue_Star_Stripes_3.jpg,Blue_Plus_Chess_2.jpg,Red_Triangle_Stripes_1.jpg,right,738.2249999791384,true,high,false
mDUQoVED,3r6rzgk0yip7nifkjif6ljfzh9ayv2,3dbqwde4yaby09ulxrtkppjlexhn54,mDUQoVED,2020-0188,2020-11-21,11:46:50,12:24:28,NA,incomplete,109,filling,0,left,Green_Plus_Stripes_1.jpg,Red_Circle_Stripes_2.jpg,Green_Star_Dots_3.jpg,left,710.3900000220165,true,high,false
mDUQoVED,3r6rzgk0yip7nifkjif6ljfzh9ayv2,3dbqwde4yaby09ulxrtkppjlexhn54,mDUQoVED,2020-0188,2020-11-21,11:46:50,12:24:28,NA,incomplete,110,color,1,left,Blue_Star_Chess_2.jpg,Blue_Circle_Dots_1.jpg,Purple_Plus_Chess_3.jpg,right,771.984999999404,false,high,false
mDUQoVED,3r6rzgk0yip7nifkjif6ljfzh9ayv2,3dbqwde4yaby09ulxrtkppjlexhn54,mDUQoVED,2020-0188,2020-11-21,11:46:50,12:24:28,NA,incomplete,111,color,1,left,Red_Plus_Stripes_4.jpg,Red_Star_Chess_1.jpg,Green_Triangle_Stripes_3.jpg,right,999.1499999305233,false,high,false
mDUQoVED,3r6rzgk0yip7nifkjif6ljfzh9ayv2,3dbqwde4yaby09ulxrtkppjlexhn54,mDUQoVED,2020-0188,2020-11-21,11:46:50,12:24:28,NA,incomplete,112,color,0,left,Purple_Star_Stripes_4.jpg,Purple_Plus_Dots_3.jpg,Green_Triangle_Stripes_2.jpg,right,1336.754999938421,false,high,false
mDUQoVED,3r6rzgk0yip7nifkjif6ljfzh9ayv2,3dbqwde4yaby09ulxrtkppjlexhn54,mDUQoVED,2020-0188,2020-11-21,11:46:50,12:24:28,NA,incomplete,113,color,0,right,Red_Star_Chess_3.jpg,Blue_Circle_Chess_1.jpg,Red_Triangle_Dots_4.jpg,left,836.8749999208376,false,high,false
mDUQoVED,3r6rzgk0yip7nifkjif6ljfzh9ayv2,3dbqwde4yaby09ulxrtkppjlexhn54,mDUQoVED,2020-0188,2020-11-21,11:46:50,12:24:28,NA,incomplete,114,color,1,left,Red_Plus_Grid_1.jpg,Red_Circle_Stripes_4.jpg,Green_Star_Grid_2.jpg,right,947.0999999903142,false,high,false
mDUQoVED,3r6rzgk0yip7nifkjif6ljfzh9ayv2,3dbqwde4yaby09ulxrtkppjlexhn54,mDUQoVED,2020-0188,2020-11-21,11:46:50,12:24:28,NA,incomplete,115,color,0,right,Blue_Star_Grid_4.jpg,Red_Plus_Grid_3.jpg,Blue_Triangle_Dots_2.jpg,left,1224.1749999811873,false,high,false
mDUQoVED,3r6rzgk0yip7nifkjif6ljfzh9ayv2,3dbqwde4yaby09ulxrtkppjlexhn54,mDUQoVED,2020-0188,2020-11-21,11:46:50,12:24:28,NA,incomplete,116,color,1,left,Green_Triangle_Chess_2.jpg,Green_Star_Grid_4.jpg,Blue_Plus_Chess_3.jpg,left,1127.3250000085682,true,high,false
mDUQoVED,3r6rzgk0yip7nifkjif6ljfzh9ayv2,3dbqwde4yaby09ulxrtkppjlexhn54,mDUQoVED,2020-0188,2020-11-21,11:46:50,12:24:28,NA,incomplete,117,color,1,right,Green_Star_Dots_2.jpg,Purple_Circle_Dots_1.jpg,Green_Plus_Stripes_4.jpg,right,755.1749999402091,true,high,false
mDUQoVED,3r6rzgk0yip7nifkjif6ljfzh9ayv2,3dbqwde4yaby09ulxrtkppjlexhn54,mDUQoVED,2020-0188,2020-11-21,11:46:50,12:24:28,NA,incomplete,118,color,0,right,Red_Star_Grid_2.jpg,Purple_Circle_Grid_3.jpg,Red_Triangle_Dots_1.jpg,left,1430.8400000445545,false,high,false
mDUQoVED,3r6rzgk0yip7nifkjif6ljfzh9ayv2,3dbqwde4yaby09ulxrtkppjlexhn54,mDUQoVED,2020-0188,2020-11-21,11:46:50,12:24:28,NA,incomplete,119,color,1,left,Blue_Star_Dots_3.jpg,Blue_Circle_Grid_2.jpg,Red_Plus_Dots_1.jpg,left,736.6450000554323,true,high,false
mDUQoVED,3r6rzgk0yip7nifkjif6ljfzh9ayv2,3dbqwde4yaby09ulxrtkppjlexhn54,mDUQoVED,2020-0188,2020-11-21,11:46:50,12:24:28,NA,incomplete,120,filling,1,right,Green_Plus_Stripes_2.jpg,Green_Triangle_Dots_4.jpg,Red_Star_Stripes_1.jpg,right,1258.4100000094622,true,high,false
mDUQoVED,3r6rzgk0yip7nifkjif6ljfzh9ayv2,3dbqwde4yaby09ulxrtkppjlexhn54,mDUQoVED,2020-0188,2020-11-21,11:46:50,12:24:28,NA,incomplete,121,filling,1,left,Red_Plus_Chess_1.jpg,Blue_Triangle_Chess_4.jpg,Red_Star_Grid_3.jpg,left,945.2049999963492,true,high,false
mDUQoVED,3r6rzgk0yip7nifkjif6ljfzh9ayv2,3dbqwde4yaby09ulxrtkppjlexhn54,mDUQoVED,2020-0188,2020-11-21,11:46:50,12:24:28,NA,incomplete,122,filling,1,left,Green_Star_Stripes_4.jpg,Blue_Circle_Stripes_1.jpg,Green_Plus_Grid_3.jpg,left,925.2350000897422,true,high,false
mDUQoVED,3r6rzgk0yip7nifkjif6ljfzh9ayv2,3dbqwde4yaby09ulxrtkppjlexhn54,mDUQoVED,2020-0188,2020-11-21,11:46:50,12:24:28,NA,incomplete,123,filling,0,left,Green_Plus_Stripes_1.jpg,Red_Star_Stripes_4.jpg,Green_Circle_Dots_2.jpg,left,842.2599999466911,true,high,false
mDUQoVED,3r6rzgk0yip7nifkjif6ljfzh9ayv2,3dbqwde4yaby09ulxrtkppjlexhn54,mDUQoVED,2020-0188,2020-11-21,11:46:50,12:24:28,NA,incomplete,124,filling,1,right,Blue_Plus_Dots_1.jpg,Blue_Triangle_Chess_4.jpg,Purple_Circle_Dots_3.jpg,right,794.6199999423698,true,high,false
mDUQoVED,3r6rzgk0yip7nifkjif6ljfzh9ayv2,3dbqwde4yaby09ulxrtkppjlexhn54,mDUQoVED,2020-0188,2020-11-21,11:46:50,12:24:28,NA,incomplete,125,filling,1,left,Purple_Circle_Grid_4.jpg,Blue_Star_Grid_3.jpg,Purple_Triangle_Chess_1.jpg,right,779.6249999664724,false,high,false
mDUQoVED,3r6rzgk0yip7nifkjif6ljfzh9ayv2,3dbqwde4yaby09ulxrtkppjlexhn54,mDUQoVED,2020-0188,2020-11-21,11:46:50,12:24:28,NA,incomplete,126,filling,1,right,Purple_Plus_Chess_4.jpg,Purple_Triangle_Dots_2.jpg,Red_Circle_Chess_1.jpg,right,814.9350000312552,true,high,false
mDUQoVED,3r6rzgk0yip7nifkjif6ljfzh9ayv2,3dbqwde4yaby09ulxrtkppjlexhn54,mDUQoVED,2020-0188,2020-11-21,11:46:50,12:24:28,NA,incomplete,127,filling,0,left,Purple_Triangle_Grid_3.jpg,Red_Circle_Grid_2.jpg,Purple_Plus_Chess_4.jpg,left,703.0700000468642,true,high,false
mDUQoVED,3r6rzgk0yip7nifkjif6ljfzh9ayv2,3dbqwde4yaby09ulxrtkppjlexhn54,mDUQoVED,2020-0188,2020-11-21,11:46:50,12:24:28,NA,incomplete,128,filling,1,left,Blue_Triangle_Stripes_4.jpg,Red_Circle_Stripes_2.jpg,Blue_Plus_Dots_1.jpg,left,837.2449999442324,true,high,false
mDUQoVED,3r6rzgk0yip7nifkjif6ljfzh9ayv2,3dbqwde4yaby09ulxrtkppjlexhn54,mDUQoVED,2020-0188,2020-11-21,11:46:50,12:24:28,NA,incomplete,129,filling,1,left,Blue_Circle_Grid_4.jpg,Purple_Plus_Grid_2.jpg,Blue_Star_Dots_3.jpg,left,869.9750000378117,true,high,false
mDUQoVED,3r6rzgk0yip7nifkjif6ljfzh9ayv2,3dbqwde4yaby09ulxrtkppjlexhn54,mDUQoVED,2020-0188,2020-11-21,11:46:50,12:24:28,NA,incomplete,130,filling,1,left,Green_Plus_Stripes_2.jpg,Blue_Triangle_Stripes_4.jpg,Green_Circle_Chess_1.jpg,left,691.0099999513477,true,high,false
mDUQoVED,3r6rzgk0yip7nifkjif6ljfzh9ayv2,3dbqwde4yaby09ulxrtkppjlexhn54,mDUQoVED,2020-0188,2020-11-21,11:46:50,12:24:28,NA,incomplete,131,filling,0,left,Purple_Circle_Dots_1.jpg,Blue_Plus_Dots_2.jpg,Purple_Star_Grid_4.jpg,left,785.7400000793859,true,high,false
mDUQoVED,3r6rzgk0yip7nifkjif6ljfzh9ayv2,3dbqwde4yaby09ulxrtkppjlexhn54,mDUQoVED,2020-0188,2020-11-21,11:46:50,12:24:28,NA,incomplete,132,filling,1,left,Green_Star_Stripes_1.jpg,Red_Plus_Stripes_4.jpg,Green_Circle_Dots_2.jpg,left,700.0449999468401,true,high,false
mDUQoVED,3r6rzgk0yip7nifkjif6ljfzh9ayv2,3dbqwde4yaby09ulxrtkppjlexhn54,mDUQoVED,2020-0188,2020-11-21,11:46:50,12:24:28,NA,incomplete,133,filling,1,left,Red_Circle_Dots_1.jpg,Blue_Triangle_Dots_3.jpg,Red_Plus_Chess_2.jpg,left,738.2099999813363,true,high,false
mDUQoVED,3r6rzgk0yip7nifkjif6ljfzh9ayv2,3dbqwde4yaby09ulxrtkppjlexhn54,mDUQoVED,2020-0188,2020-11-21,11:46:50,12:24:28,NA,incomplete,134,filling,1,right,Green_Triangle_Dots_2.jpg,Green_Plus_Stripes_3.jpg,Purple_Circle_Dots_4.jpg,right,759.1700000921264,true,high,false
mDUQoVED,3r6rzgk0yip7nifkjif6ljfzh9ayv2,3dbqwde4yaby09ulxrtkppjlexhn54,mDUQoVED,2020-0188,2020-11-21,11:46:50,12:24:28,NA,incomplete,135,filling,1,right,Red_Plus_Dots_3.jpg,Red_Circle_Chess_1.jpg,Purple_Star_Dots_4.jpg,right,929.1900000534952,true,high,false
mDUQoVED,3r6rzgk0yip7nifkjif6ljfzh9ayv2,3dbqwde4yaby09ulxrtkppjlexhn54,mDUQoVED,2020-0188,2020-11-21,11:46:50,12:24:28,NA,incomplete,136,filling,1,left,Blue_Triangle_Grid_2.jpg,Red_Plus_Grid_3.jpg,Blue_Star_Stripes_1.jpg,left,757.454999955371,true,high,false
mDUQoVED,3r6rzgk0yip7nifkjif6ljfzh9ayv2,3dbqwde4yaby09ulxrtkppjlexhn54,mDUQoVED,2020-0188,2020-11-21,11:46:50,12:24:28,NA,incomplete,137,filling,0,left,Green_Circle_Grid_2.jpg,Red_Plus_Grid_4.jpg,Green_Triangle_Chess_3.jpg,left,937.4300000490621,true,high,false
mDUQoVED,3r6rzgk0yip7nifkjif6ljfzh9ayv2,3dbqwde4yaby09ulxrtkppjlexhn54,mDUQoVED,2020-0188,2020-11-21,11:46:50,12:24:28,NA,incomplete,138,filling,1,left,Blue_Circle_Grid_3.jpg,Purple_Triangle_Grid_1.jpg,Blue_Plus_Stripes_4.jpg,left,972.330000018701,true,high,false
mDUQoVED,3r6rzgk0yip7nifkjif6ljfzh9ayv2,3dbqwde4yaby09ulxrtkppjlexhn54,mDUQoVED,2020-0188,2020-11-21,11:46:50,12:24:28,NA,incomplete,139,filling,0,left,Red_Triangle_Stripes_4.jpg,Purple_Star_Stripes_2.jpg,Red_Plus_Dots_1.jpg,left,712.6250000437722,true,high,false
mDUQoVED,3r6rzgk0yip7nifkjif6ljfzh9ayv2,3dbqwde4yaby09ulxrtkppjlexhn54,mDUQoVED,2020-0188,2020-11-21,11:46:50,12:24:28,NA,incomplete,140,color,1,right,Red_Triangle_Grid_3.jpg,Green_Plus_Grid_4.jpg,Red_Star_Stripes_1.jpg,left,813.4099999442697,false,high,false
mDUQoVED,3r6rzgk0yip7nifkjif6ljfzh9ayv2,3dbqwde4yaby09ulxrtkppjlexhn54,mDUQoVED,2020-0188,2020-11-21,11:46:50,12:24:28,NA,incomplete,141,color,1,left,Purple_Plus_Dots_3.jpg,Purple_Star_Grid_1.jpg,Green_Triangle_Dots_4.jpg,left,614.0700000105426,true,high,false
mDUQoVED,3r6rzgk0yip7nifkjif6ljfzh9ayv2,3dbqwde4yaby09ulxrtkppjlexhn54,mDUQoVED,2020-0188,2020-11-21,11:46:50,12:24:28,NA,incomplete,142,color,1,left,Green_Star_Chess_4.jpg,Green_Circle_Dots_1.jpg,Red_Plus_Chess_3.jpg,left,479.9549999879673,true,high,false
mDUQoVED,3r6rzgk0yip7nifkjif6ljfzh9ayv2,3dbqwde4yaby09ulxrtkppjlexhn54,mDUQoVED,2020-0188,2020-11-21,11:46:50,12:24:28,NA,incomplete,143,color,1,left,Purple_Circle_Dots_1.jpg,Purple_Plus_Grid_3.jpg,Green_Star_Dots_2.jpg,left,591.4599999086931,true,high,false
mDUQoVED,3r6rzgk0yip7nifkjif6ljfzh9ayv2,3dbqwde4yaby09ulxrtkppjlexhn54,mDUQoVED,2020-0188,2020-11-21,11:46:50,12:24:28,NA,incomplete,144,color,1,right,Red_Triangle_Grid_4.jpg,Green_Circle_Grid_1.jpg,Red_Star_Dots_3.jpg,right,523.2600000454113,true,high,false
mDUQoVED,3r6rzgk0yip7nifkjif6ljfzh9ayv2,3dbqwde4yaby09ulxrtkppjlexhn54,mDUQoVED,2020-0188,2020-11-21,11:46:50,12:24:28,NA,incomplete,145,color,0,right,Red_Plus_Grid_1.jpg,Green_Triangle_Grid_4.jpg,Red_Circle_Stripes_3.jpg,right,581.0599999967963,true,high,false
mDUQoVED,3r6rzgk0yip7nifkjif6ljfzh9ayv2,3dbqwde4yaby09ulxrtkppjlexhn54,mDUQoVED,2020-0188,2020-11-21,11:46:50,12:24:28,NA,incomplete,146,color,1,right,Red_Plus_Grid_3.jpg,Green_Star_Grid_1.jpg,Red_Circle_Dots_4.jpg,right,920.564999920316,true,high,false
mDUQoVED,3r6rzgk0yip7nifkjif6ljfzh9ayv2,3dbqwde4yaby09ulxrtkppjlexhn54,mDUQoVED,2020-0188,2020-11-21,11:46:50,12:24:28,NA,incomplete,147,color,1,right,Purple_Star_Chess_3.jpg,Blue_Triangle_Chess_4.jpg,Purple_Circle_Stripes_1.jpg,right,573.7250000238419,true,high,false
mDUQoVED,3r6rzgk0yip7nifkjif6ljfzh9ayv2,3dbqwde4yaby09ulxrtkppjlexhn54,mDUQoVED,2020-0188,2020-11-21,11:46:50,12:24:28,NA,incomplete,148,color,1,right,Blue_Circle_Stripes_2.jpg,Green_Plus_Stripes_4.jpg,Blue_Star_Grid_3.jpg,right,544.5850000251085,true,high,false
mDUQoVED,3r6rzgk0yip7nifkjif6ljfzh9ayv2,3dbqwde4yaby09ulxrtkppjlexhn54,mDUQoVED,2020-0188,2020-11-21,11:46:50,12:24:28,NA,incomplete,149,color,1,left,Purple_Star_Grid_2.jpg,Purple_Circle_Stripes_3.jpg,Green_Plus_Grid_1.jpg,left,515.9699999494478,true,high,false
mDUQoVED,3r6rzgk0yip7nifkjif6ljfzh9ayv2,3dbqwde4yaby09ulxrtkppjlexhn54,mDUQoVED,2020-0188,2020-11-21,11:46:50,12:24:28,NA,incomplete,150,color,1,left,Red_Star_Stripes_3.jpg,Red_Plus_Chess_2.jpg,Blue_Triangle_Stripes_1.jpg,left,522.4999999627471,true,high,false
mDUQoVED,3r6rzgk0yip7nifkjif6ljfzh9ayv2,3dbqwde4yaby09ulxrtkppjlexhn54,mDUQoVED,2020-0188,2020-11-21,11:46:50,12:24:28,NA,incomplete,151,color,1,left,Purple_Circle_Dots_3.jpg,Purple_Star_Grid_1.jpg,Red_Triangle_Dots_2.jpg,left,566.6800000471994,true,high,false
mDUQoVED,3r6rzgk0yip7nifkjif6ljfzh9ayv2,3dbqwde4yaby09ulxrtkppjlexhn54,mDUQoVED,2020-0188,2020-11-21,11:46:50,12:24:28,NA,incomplete,152,color,1,right,Blue_Circle_Stripes_2.jpg,Red_Triangle_Stripes_1.jpg,Blue_Plus_Dots_3.jpg,right,468.0149999912828,true,high,false
mDUQoVED,3r6rzgk0yip7nifkjif6ljfzh9ayv2,3dbqwde4yaby09ulxrtkppjlexhn54,mDUQoVED,2020-0188,2020-11-21,11:46:50,12:24:28,NA,incomplete,153,color,1,right,Red_Triangle_Stripes_3.jpg,Blue_Plus_Stripes_2.jpg,Red_Star_Dots_4.jpg,right,418.91500004567206,true,high,false
mDUQoVED,3r6rzgk0yip7nifkjif6ljfzh9ayv2,3dbqwde4yaby09ulxrtkppjlexhn54,mDUQoVED,2020-0188,2020-11-21,11:46:50,12:24:28,NA,incomplete,154,color,1,left,Blue_Triangle_Grid_4.jpg,Blue_Circle_Chess_2.jpg,Green_Plus_Grid_1.jpg,left,476.0849999729544,true,high,false
mDUQoVED,3r6rzgk0yip7nifkjif6ljfzh9ayv2,3dbqwde4yaby09ulxrtkppjlexhn54,mDUQoVED,2020-0188,2020-11-21,11:46:50,12:24:28,NA,incomplete,155,color,0,left,Purple_Plus_Grid_2.jpg,Purple_Star_Stripes_3.jpg,Blue_Circle_Grid_1.jpg,left,484.07000000588596,true,high,false
mDUQoVED,3r6rzgk0yip7nifkjif6ljfzh9ayv2,3dbqwde4yaby09ulxrtkppjlexhn54,mDUQoVED,2020-0188,2020-11-21,11:46:50,12:24:28,NA,incomplete,156,color,1,left,Green_Plus_Stripes_1.jpg,Green_Triangle_Dots_3.jpg,Blue_Star_Stripes_2.jpg,left,473.65000005811453,true,high,false
mDUQoVED,3r6rzgk0yip7nifkjif6ljfzh9ayv2,3dbqwde4yaby09ulxrtkppjlexhn54,mDUQoVED,2020-0188,2020-11-21,11:46:50,12:24:28,NA,incomplete,157,color,1,left,Red_Plus_Stripes_2.jpg,Red_Circle_Dots_1.jpg,Purple_Star_Stripes_4.jpg,left,585.3300000308082,true,high,false
mDUQoVED,3r6rzgk0yip7nifkjif6ljfzh9ayv2,3dbqwde4yaby09ulxrtkppjlexhn54,mDUQoVED,2020-0188,2020-11-21,11:46:50,12:24:28,NA,incomplete,158,color,1,right,Blue_Plus_Stripes_4.jpg,Purple_Star_Stripes_1.jpg,Blue_Triangle_Chess_2.jpg,right,508.790000109002,true,high,false
mDUQoVED,3r6rzgk0yip7nifkjif6ljfzh9ayv2,3dbqwde4yaby09ulxrtkppjlexhn54,mDUQoVED,2020-0188,2020-11-21,11:46:50,12:24:28,NA,incomplete,159,color,1,left,Green_Circle_Grid_4.jpg,Green_Star_Stripes_2.jpg,Red_Plus_Grid_1.jpg,left,553.6050000227988,true,high,false
mDUQoVED,3r6rzgk0yip7nifkjif6ljfzh9ayv2,3dbqwde4yaby09ulxrtkppjlexhn54,mDUQoVED,2020-0188,2020-11-21,11:46:50,12:24:28,NA,incomplete,160,filling,1,left,Blue_Circle_Grid_4.jpg,Green_Triangle_Grid_2.jpg,Blue_Plus_Stripes_1.jpg,right,421.2799998931587,false,high,false
mDUQoVED,3r6rzgk0yip7nifkjif6ljfzh9ayv2,3dbqwde4yaby09ulxrtkppjlexhn54,mDUQoVED,2020-0188,2020-11-21,11:46:50,12:24:28,NA,incomplete,161,filling,0,right,Purple_Star_Chess_2.jpg,Purple_Circle_Grid_1.jpg,Blue_Plus_Chess_4.jpg,left,486.47999996319413,false,high,false
mDUQoVED,3r6rzgk0yip7nifkjif6ljfzh9ayv2,3dbqwde4yaby09ulxrtkppjlexhn54,mDUQoVED,2020-0188,2020-11-21,11:46:50,12:24:28,NA,incomplete,162,filling,1,right,Blue_Star_Dots_4.jpg,Blue_Triangle_Chess_1.jpg,Green_Plus_Dots_3.jpg,left,587.8700000466779,false,high,false
mDUQoVED,3r6rzgk0yip7nifkjif6ljfzh9ayv2,3dbqwde4yaby09ulxrtkppjlexhn54,mDUQoVED,2020-0188,2020-11-21,11:46:50,12:24:28,NA,incomplete,163,filling,1,left,Blue_Circle_Chess_4.jpg,Purple_Plus_Chess_1.jpg,Blue_Triangle_Grid_3.jpg,right,478.18000009283423,false,high,false
mDUQoVED,3r6rzgk0yip7nifkjif6ljfzh9ayv2,3dbqwde4yaby09ulxrtkppjlexhn54,mDUQoVED,2020-0188,2020-11-21,11:46:50,12:24:28,NA,incomplete,164,filling,1,right,Red_Plus_Chess_1.jpg,Red_Circle_Dots_3.jpg,Blue_Triangle_Chess_2.jpg,right,749.7849999926984,true,high,false
mDUQoVED,3r6rzgk0yip7nifkjif6ljfzh9ayv2,3dbqwde4yaby09ulxrtkppjlexhn54,mDUQoVED,2020-0188,2020-11-21,11:46:50,12:24:28,NA,incomplete,165,filling,1,left,Purple_Star_Dots_4.jpg,Green_Circle_Dots_1.jpg,Purple_Triangle_Stripes_3.jpg,left,817.5599999958649,true,high,false
mDUQoVED,3r6rzgk0yip7nifkjif6ljfzh9ayv2,3dbqwde4yaby09ulxrtkppjlexhn54,mDUQoVED,2020-0188,2020-11-21,11:46:50,12:24:28,NA,incomplete,166,filling,1,left,Red_Triangle_Dots_2.jpg,Purple_Star_Dots_4.jpg,Red_Plus_Chess_3.jpg,left,732.6550000580028,true,high,false
mDUQoVED,3r6rzgk0yip7nifkjif6ljfzh9ayv2,3dbqwde4yaby09ulxrtkppjlexhn54,mDUQoVED,2020-0188,2020-11-21,11:46:50,12:24:28,NA,incomplete,167,filling,1,right,Green_Triangle_Grid_1.jpg,Green_Star_Chess_2.jpg,Red_Circle_Grid_4.jpg,right,888.0099999951199,true,high,false
mDUQoVED,3r6rzgk0yip7nifkjif6ljfzh9ayv2,3dbqwde4yaby09ulxrtkppjlexhn54,mDUQoVED,2020-0188,2020-11-21,11:46:50,12:24:28,NA,incomplete,168,filling,0,left,Blue_Plus_Grid_4.jpg,Red_Triangle_Grid_1.jpg,Blue_Circle_Chess_3.jpg,left,958.0500000156462,true,high,false
mDUQoVED,3r6rzgk0yip7nifkjif6ljfzh9ayv2,3dbqwde4yaby09ulxrtkppjlexhn54,mDUQoVED,2020-0188,2020-11-21,11:46:50,12:24:28,NA,incomplete,169,filling,1,right,Red_Star_Grid_2.jpg,Red_Triangle_Stripes_1.jpg,Blue_Plus_Grid_4.jpg,right,840.2599999681115,true,high,false
mDUQoVED,3r6rzgk0yip7nifkjif6ljfzh9ayv2,3dbqwde4yaby09ulxrtkppjlexhn54,mDUQoVED,2020-0188,2020-11-21,11:46:50,12:24:28,NA,incomplete,170,filling,1,left,Green_Plus_Grid_1.jpg,Purple_Circle_Grid_3.jpg,Green_Triangle_Dots_2.jpg,left,680.9499999508262,true,high,false
mDUQoVED,3r6rzgk0yip7nifkjif6ljfzh9ayv2,3dbqwde4yaby09ulxrtkppjlexhn54,mDUQoVED,2020-0188,2020-11-21,11:46:50,12:24:28,NA,incomplete,171,filling,1,left,Purple_Plus_Dots_4.jpg,Red_Star_Dots_3.jpg,Purple_Triangle_Grid_1.jpg,left,1024.3950000731274,true,high,false
mDUQoVED,3r6rzgk0yip7nifkjif6ljfzh9ayv2,3dbqwde4yaby09ulxrtkppjlexhn54,mDUQoVED,2020-0188,2020-11-21,11:46:50,12:24:28,NA,incomplete,172,filling,1,right,Purple_Circle_Stripes_4.jpg,Purple_Star_Grid_2.jpg,Blue_Triangle_Stripes_1.jpg,right,686.8499999400228,true,high,false
mDUQoVED,3r6rzgk0yip7nifkjif6ljfzh9ayv2,3dbqwde4yaby09ulxrtkppjlexhn54,mDUQoVED,2020-0188,2020-11-21,11:46:50,12:24:28,NA,incomplete,173,filling,1,left,Purple_Circle_Grid_1.jpg,Green_Star_Grid_3.jpg,Purple_Plus_Chess_4.jpg,left,870.5250000348315,true,high,false
mDUQoVED,3r6rzgk0yip7nifkjif6ljfzh9ayv2,3dbqwde4yaby09ulxrtkppjlexhn54,mDUQoVED,2020-0188,2020-11-21,11:46:50,12:24:28,NA,incomplete,174,filling,1,left,Green_Plus_Stripes_4.jpg,Purple_Star_Stripes_2.jpg,Green_Circle_Chess_3.jpg,left,852.5350000709295,true,high,false
mDUQoVED,3r6rzgk0yip7nifkjif6ljfzh9ayv2,3dbqwde4yaby09ulxrtkppjlexhn54,mDUQoVED,2020-0188,2020-11-21,11:46:50,12:24:28,NA,incomplete,175,filling,0,right,Purple_Plus_Chess_2.jpg,Purple_Star_Grid_4.jpg,Blue_Circle_Chess_1.jpg,right,859.6050000051036,true,high,false
mDUQoVED,3r6rzgk0yip7nifkjif6ljfzh9ayv2,3dbqwde4yaby09ulxrtkppjlexhn54,mDUQoVED,2020-0188,2020-11-21,11:46:50,12:24:28,NA,incomplete,176,filling,1,left,Purple_Plus_Chess_2.jpg,Green_Star_Chess_3.jpg,Purple_Circle_Dots_1.jpg,left,763.3449999848381,true,high,false
mDUQoVED,3r6rzgk0yip7nifkjif6ljfzh9ayv2,3dbqwde4yaby09ulxrtkppjlexhn54,mDUQoVED,2020-0188,2020-11-21,11:46:50,12:24:28,NA,incomplete,177,filling,0,left,Blue_Triangle_Chess_3.jpg,Green_Star_Chess_1.jpg,Blue_Plus_Dots_4.jpg,left,734.7699999809265,true,high,false
mDUQoVED,3r6rzgk0yip7nifkjif6ljfzh9ayv2,3dbqwde4yaby09ulxrtkppjlexhn54,mDUQoVED,2020-0188,2020-11-21,11:46:50,12:24:28,NA,incomplete,178,filling,1,left,Purple_Plus_Stripes_4.jpg,Red_Circle_Stripes_1.jpg,Purple_Star_Chess_3.jpg,left,794.7200000053272,true,high,false
mDUQoVED,3r6rzgk0yip7nifkjif6ljfzh9ayv2,3dbqwde4yaby09ulxrtkppjlexhn54,mDUQoVED,2020-0188,2020-11-21,11:46:50,12:24:28,NA,incomplete,179,filling,0,right,Blue_Star_Dots_2.jpg,Blue_Triangle_Stripes_4.jpg,Green_Circle_Dots_3.jpg,right,685.6750000733882,true,high,false
mDUQoVED,3r6rzgk0yip7nifkjif6ljfzh9ayv2,3dbqwde4yaby09ulxrtkppjlexhn54,mDUQoVED,2020-0188,2020-11-21,11:46:50,12:24:28,NA,incomplete,180,color,1,left,Green_Star_Chess_1.jpg,Green_Circle_Stripes_4.jpg,Blue_Plus_Chess_3.jpg,right,747.399999992922,false,high,false
mDUQoVED,3r6rzgk0yip7nifkjif6ljfzh9ayv2,3dbqwde4yaby09ulxrtkppjlexhn54,mDUQoVED,2020-0188,2020-11-21,11:46:50,12:24:28,NA,incomplete,181,color,1,left,Red_Plus_Dots_1.jpg,Red_Circle_Grid_4.jpg,Purple_Triangle_Dots_3.jpg,left,512.4000000068918,true,high,false
mDUQoVED,3r6rzgk0yip7nifkjif6ljfzh9ayv2,3dbqwde4yaby09ulxrtkppjlexhn54,mDUQoVED,2020-0188,2020-11-21,11:46:50,12:24:28,NA,incomplete,182,color,1,right,Purple_Plus_Dots_3.jpg,Blue_Star_Dots_2.jpg,Purple_Circle_Chess_4.jpg,right,398.8899999530986,true,high,false
mDUQoVED,3r6rzgk0yip7nifkjif6ljfzh9ayv2,3dbqwde4yaby09ulxrtkppjlexhn54,mDUQoVED,2020-0188,2020-11-21,11:46:50,12:24:28,NA,incomplete,183,color,1,left,Purple_Star_Grid_2.jpg,Purple_Plus_Chess_3.jpg,Blue_Circle_Grid_4.jpg,left,456.304999999702,true,high,false
mDUQoVED,3r6rzgk0yip7nifkjif6ljfzh9ayv2,3dbqwde4yaby09ulxrtkppjlexhn54,mDUQoVED,2020-0188,2020-11-21,11:46:50,12:24:28,NA,incomplete,184,color,1,right,Green_Plus_Stripes_3.jpg,Red_Circle_Stripes_1.jpg,Green_Triangle_Chess_4.jpg,right,479.41000002902,true,high,false
mDUQoVED,3r6rzgk0yip7nifkjif6ljfzh9ayv2,3dbqwde4yaby09ulxrtkppjlexhn54,mDUQoVED,2020-0188,2020-11-21,11:46:50,12:24:28,NA,incomplete,185,color,1,left,Blue_Triangle_Dots_4.jpg,Blue_Star_Grid_2.jpg,Purple_Plus_Dots_1.jpg,left,496.625000028871,true,high,false
mDUQoVED,3r6rzgk0yip7nifkjif6ljfzh9ayv2,3dbqwde4yaby09ulxrtkppjlexhn54,mDUQoVED,2020-0188,2020-11-21,11:46:50,12:24:28,NA,incomplete,186,color,0,right,Blue_Triangle_Chess_1.jpg,Green_Star_Chess_2.jpg,Blue_Plus_Stripes_4.jpg,right,429.04999991878867,true,high,false
mDUQoVED,3r6rzgk0yip7nifkjif6ljfzh9ayv2,3dbqwde4yaby09ulxrtkppjlexhn54,mDUQoVED,2020-0188,2020-11-21,11:46:50,12:24:28,NA,incomplete,187,color,1,left,Purple_Plus_Grid_1.jpg,Purple_Star_Stripes_3.jpg,Blue_Triangle_Grid_2.jpg,left,471.40999999828637,true,high,false
mDUQoVED,3r6rzgk0yip7nifkjif6ljfzh9ayv2,3dbqwde4yaby09ulxrtkppjlexhn54,mDUQoVED,2020-0188,2020-11-21,11:46:50,12:24:28,NA,incomplete,188,color,0,left,Green_Star_Chess_3.jpg,Green_Triangle_Dots_2.jpg,Red_Plus_Chess_1.jpg,left,492.69500002264977,true,high,false
mDUQoVED,3r6rzgk0yip7nifkjif6ljfzh9ayv2,3dbqwde4yaby09ulxrtkppjlexhn54,mDUQoVED,2020-0188,2020-11-21,11:46:50,12:24:28,NA,incomplete,189,color,1,left,Blue_Circle_Chess_1.jpg,Blue_Triangle_Grid_3.jpg,Green_Plus_Chess_2.jpg,right,971.5599999763072,false,high,false
mDUQoVED,3r6rzgk0yip7nifkjif6ljfzh9ayv2,3dbqwde4yaby09ulxrtkppjlexhn54,mDUQoVED,2020-0188,2020-11-21,11:46:50,12:24:28,NA,incomplete,190,color,0,left,Purple_Circle_Grid_1.jpg,Purple_Star_Dots_4.jpg,Blue_Plus_Grid_2.jpg,right,941.6399999754503,false,high,false
mDUQoVED,3r6rzgk0yip7nifkjif6ljfzh9ayv2,3dbqwde4yaby09ulxrtkppjlexhn54,mDUQoVED,2020-0188,2020-11-21,11:46:50,12:24:28,NA,incomplete,191,color,1,left,Purple_Star_Dots_2.jpg,Purple_Circle_Chess_3.jpg,Green_Plus_Dots_1.jpg,right,770.0950000435114,false,high,false
mDUQoVED,3r6rzgk0yip7nifkjif6ljfzh9ayv2,3dbqwde4yaby09ulxrtkppjlexhn54,mDUQoVED,2020-0188,2020-11-21,11:46:50,12:24:28,NA,incomplete,192,color,1,left,Red_Star_Grid_1.jpg,Red_Plus_Dots_2.jpg,Green_Triangle_Grid_3.jpg,right,750.6849999772385,false,high,false
mDUQoVED,3r6rzgk0yip7nifkjif6ljfzh9ayv2,3dbqwde4yaby09ulxrtkppjlexhn54,mDUQoVED,2020-0188,2020-11-21,11:46:50,12:24:28,NA,incomplete,193,color,1,right,Red_Plus_Chess_1.jpg,Green_Circle_Chess_2.jpg,Red_Star_Stripes_4.jpg,right,512.929999968037,true,high,false
mDUQoVED,3r6rzgk0yip7nifkjif6ljfzh9ayv2,3dbqwde4yaby09ulxrtkppjlexhn54,mDUQoVED,2020-0188,2020-11-21,11:46:50,12:24:28,NA,incomplete,194,color,0,left,Blue_Triangle_Chess_1.jpg,Blue_Plus_Stripes_4.jpg,Green_Circle_Chess_2.jpg,left,429.88499999046326,true,high,false
mDUQoVED,3r6rzgk0yip7nifkjif6ljfzh9ayv2,3dbqwde4yaby09ulxrtkppjlexhn54,mDUQoVED,2020-0188,2020-11-21,11:46:50,12:24:28,NA,incomplete,195,color,1,left,Purple_Plus_Stripes_1.jpg,Purple_Triangle_Chess_4.jpg,Green_Star_Stripes_3.jpg,left,511.8399999337271,true,high,false
mDUQoVED,3r6rzgk0yip7nifkjif6ljfzh9ayv2,3dbqwde4yaby09ulxrtkppjlexhn54,mDUQoVED,2020-0188,2020-11-21,11:46:50,12:24:28,NA,incomplete,196,color,1,left,Purple_Triangle_Stripes_1.jpg,Purple_Circle_Dots_4.jpg,Green_Plus_Stripes_2.jpg,left,470.01000004820526,true,high,false
mDUQoVED,3r6rzgk0yip7nifkjif6ljfzh9ayv2,3dbqwde4yaby09ulxrtkppjlexhn54,mDUQoVED,2020-0188,2020-11-21,11:46:50,12:24:28,NA,incomplete,197,color,1,left,Purple_Star_Grid_1.jpg,Purple_Triangle_Chess_4.jpg,Blue_Plus_Grid_2.jpg,left,467.97499991953373,true,high,false
mDUQoVED,3r6rzgk0yip7nifkjif6ljfzh9ayv2,3dbqwde4yaby09ulxrtkppjlexhn54,mDUQoVED,2020-0188,2020-11-21,11:46:50,12:24:28,NA,incomplete,198,color,1,left,Green_Circle_Stripes_3.jpg,Green_Star_Dots_1.jpg,Purple_Triangle_Stripes_2.jpg,left,661.6200000280514,true,high,false
mDUQoVED,3r6rzgk0yip7nifkjif6ljfzh9ayv2,3dbqwde4yaby09ulxrtkppjlexhn54,mDUQoVED,2020-0188,2020-11-21,11:46:50,12:24:28,NA,incomplete,199,color,1,right,Blue_Triangle_Stripes_4.jpg,Red_Plus_Stripes_2.jpg,Blue_Circle_Grid_1.jpg,right,706.889999913983,true,high,false
mDUQoVED,3r6rzgk0yip7nifkjif6ljfzh9ayv2,3dbqwde4yaby09ulxrtkppjlexhn54,mDUQoVED,2020-0188,2020-11-21,11:46:50,12:24:28,NA,incomplete,200,filling,1,left,Purple_Plus_Grid_2.jpg,Green_Circle_Grid_4.jpg,Purple_Triangle_Chess_1.jpg,right,416.33500007446855,false,high,false
mDUQoVED,3r6rzgk0yip7nifkjif6ljfzh9ayv2,3dbqwde4yaby09ulxrtkppjlexhn54,mDUQoVED,2020-0188,2020-11-21,11:46:50,12:24:28,NA,incomplete,201,filling,1,right,Blue_Triangle_Chess_3.jpg,Blue_Plus_Grid_4.jpg,Green_Circle_Chess_2.jpg,left,579.2699999874458,false,high,false
mDUQoVED,3r6rzgk0yip7nifkjif6ljfzh9ayv2,3dbqwde4yaby09ulxrtkppjlexhn54,mDUQoVED,2020-0188,2020-11-21,11:46:50,12:24:28,NA,incomplete,202,filling,1,left,Green_Circle_Stripes_1.jpg,Red_Triangle_Stripes_4.jpg,Green_Plus_Dots_2.jpg,left,757.5299999443814,true,high,false
mDUQoVED,3r6rzgk0yip7nifkjif6ljfzh9ayv2,3dbqwde4yaby09ulxrtkppjlexhn54,mDUQoVED,2020-0188,2020-11-21,11:46:50,12:24:28,NA,incomplete,203,filling,1,right,Blue_Star_Dots_2.jpg,Blue_Circle_Chess_1.jpg,Red_Plus_Dots_3.jpg,right,944.9449999956414,true,high,false
mDUQoVED,3r6rzgk0yip7nifkjif6ljfzh9ayv2,3dbqwde4yaby09ulxrtkppjlexhn54,mDUQoVED,2020-0188,2020-11-21,11:46:50,12:24:28,NA,incomplete,204,filling,0,right,Red_Circle_Dots_3.jpg,Red_Star_Chess_1.jpg,Green_Triangle_Dots_4.jpg,right,772.2949999151751,true,high,false
mDUQoVED,3r6rzgk0yip7nifkjif6ljfzh9ayv2,3dbqwde4yaby09ulxrtkppjlexhn54,mDUQoVED,2020-0188,2020-11-21,11:46:50,12:24:28,NA,incomplete,205,filling,1,left,Red_Triangle_Dots_2.jpg,Purple_Circle_Dots_4.jpg,Red_Star_Stripes_3.jpg,left,863.5250000515953,true,high,false
mDUQoVED,3r6rzgk0yip7nifkjif6ljfzh9ayv2,3dbqwde4yaby09ulxrtkppjlexhn54,mDUQoVED,2020-0188,2020-11-21,11:46:50,12:24:28,NA,incomplete,206,filling,1,left,Purple_Triangle_Grid_1.jpg,Blue_Circle_Grid_4.jpg,Purple_Star_Chess_3.jpg,left,718.9350000116974,true,high,false
mDUQoVED,3r6rzgk0yip7nifkjif6ljfzh9ayv2,3dbqwde4yaby09ulxrtkppjlexhn54,mDUQoVED,2020-0188,2020-11-21,11:46:50,12:24:28,NA,incomplete,207,filling,0,left,Green_Circle_Chess_4.jpg,Red_Star_Chess_2.jpg,Green_Plus_Stripes_1.jpg,left,746.235000086017,true,high,false
mDUQoVED,3r6rzgk0yip7nifkjif6ljfzh9ayv2,3dbqwde4yaby09ulxrtkppjlexhn54,mDUQoVED,2020-0188,2020-11-21,11:46:50,12:24:28,NA,incomplete,208,filling,1,right,Purple_Plus_Stripes_4.jpg,Purple_Circle_Dots_3.jpg,Green_Triangle_Stripes_1.jpg,right,743.6999999918044,true,high,false
mDUQoVED,3r6rzgk0yip7nifkjif6ljfzh9ayv2,3dbqwde4yaby09ulxrtkppjlexhn54,mDUQoVED,2020-0188,2020-11-21,11:46:50,12:24:28,NA,incomplete,209,filling,1,right,Purple_Triangle_Stripes_2.jpg,Purple_Circle_Dots_4.jpg,Green_Star_Stripes_3.jpg,right,802.9649999225512,true,high,false
mDUQoVED,3r6rzgk0yip7nifkjif6ljfzh9ayv2,3dbqwde4yaby09ulxrtkppjlexhn54,mDUQoVED,2020-0188,2020-11-21,11:46:50,12:24:28,NA,incomplete,210,filling,1,left,Purple_Star_Chess_2.jpg,Blue_Plus_Chess_4.jpg,Purple_Triangle_Grid_3.jpg,left,716.4600000251085,true,high,false
mDUQoVED,3r6rzgk0yip7nifkjif6ljfzh9ayv2,3dbqwde4yaby09ulxrtkppjlexhn54,mDUQoVED,2020-0188,2020-11-21,11:46:50,12:24:28,NA,incomplete,211,filling,0,right,Blue_Star_Stripes_1.jpg,Blue_Triangle_Chess_2.jpg,Purple_Circle_Stripes_3.jpg,right,721.6849999967963,true,high,false
mDUQoVED,3r6rzgk0yip7nifkjif6ljfzh9ayv2,3dbqwde4yaby09ulxrtkppjlexhn54,mDUQoVED,2020-0188,2020-11-21,11:46:50,12:24:28,NA,incomplete,212,filling,1,right,Red_Star_Grid_2.jpg,Red_Circle_Chess_1.jpg,Green_Triangle_Grid_3.jpg,right,766.7600000277162,true,high,false
mDUQoVED,3r6rzgk0yip7nifkjif6ljfzh9ayv2,3dbqwde4yaby09ulxrtkppjlexhn54,mDUQoVED,2020-0188,2020-11-21,11:46:50,12:24:28,NA,incomplete,213,filling,0,left,Purple_Star_Grid_1.jpg,Blue_Circle_Grid_4.jpg,Purple_Plus_Chess_2.jpg,left,779.1799999540672,true,high,false
mDUQoVED,3r6rzgk0yip7nifkjif6ljfzh9ayv2,3dbqwde4yaby09ulxrtkppjlexhn54,mDUQoVED,2020-0188,2020-11-21,11:46:50,12:24:28,NA,incomplete,214,filling,1,right,Green_Triangle_Chess_1.jpg,Green_Plus_Dots_3.jpg,Red_Circle_Chess_4.jpg,right,700.7799999555573,true,high,false
mDUQoVED,3r6rzgk0yip7nifkjif6ljfzh9ayv2,3dbqwde4yaby09ulxrtkppjlexhn54,mDUQoVED,2020-0188,2020-11-21,11:46:50,12:24:28,NA,incomplete,215,filling,1,left,Blue_Star_Stripes_3.jpg,Green_Plus_Stripes_1.jpg,Blue_Triangle_Chess_2.jpg,left,826.9249999430031,true,high,false
mDUQoVED,3r6rzgk0yip7nifkjif6ljfzh9ayv2,3dbqwde4yaby09ulxrtkppjlexhn54,mDUQoVED,2020-0188,2020-11-21,11:46:50,12:24:28,NA,incomplete,216,filling,1,left,Red_Star_Grid_4.jpg,Purple_Circle_Grid_3.jpg,Red_Plus_Stripes_1.jpg,left,812.2699999948964,true,high,false
mDUQoVED,3r6rzgk0yip7nifkjif6ljfzh9ayv2,3dbqwde4yaby09ulxrtkppjlexhn54,mDUQoVED,2020-0188,2020-11-21,11:46:50,12:24:28,NA,incomplete,217,filling,1,left,Green_Circle_Dots_3.jpg,Red_Triangle_Dots_1.jpg,Green_Plus_Stripes_2.jpg,left,709.195000003092,true,high,false
mDUQoVED,3r6rzgk0yip7nifkjif6ljfzh9ayv2,3dbqwde4yaby09ulxrtkppjlexhn54,mDUQoVED,2020-0188,2020-11-21,11:46:50,12:24:28,NA,incomplete,218,filling,1,left,Green_Plus_Stripes_2.jpg,Red_Triangle_Stripes_1.jpg,Green_Star_Grid_3.jpg,left,986.9900000048801,true,high,false
mDUQoVED,3r6rzgk0yip7nifkjif6ljfzh9ayv2,3dbqwde4yaby09ulxrtkppjlexhn54,mDUQoVED,2020-0188,2020-11-21,11:46:50,12:24:28,NA,incomplete,219,filling,1,left,Red_Circle_Stripes_4.jpg,Blue_Plus_Stripes_3.jpg,Red_Triangle_Dots_2.jpg,left,820.2699999092147,true,high,false
mDUQoVED,3r6rzgk0yip7nifkjif6ljfzh9ayv2,3dbqwde4yaby09ulxrtkppjlexhn54,mDUQoVED,2020-0188,2020-11-21,11:46:50,12:24:28,NA,incomplete,220,color,0,right,Purple_Plus_Chess_4.jpg,Blue_Star_Chess_3.jpg,Purple_Triangle_Dots_2.jpg,left,653.3849999541417,false,high,false
mDUQoVED,3r6rzgk0yip7nifkjif6ljfzh9ayv2,3dbqwde4yaby09ulxrtkppjlexhn54,mDUQoVED,2020-0188,2020-11-21,11:46:50,12:24:28,NA,incomplete,221,color,1,right,Purple_Circle_Grid_2.jpg,Blue_Star_Grid_1.jpg,Purple_Plus_Dots_4.jpg,left,892.0599999837577,false,high,false
mDUQoVED,3r6rzgk0yip7nifkjif6ljfzh9ayv2,3dbqwde4yaby09ulxrtkppjlexhn54,mDUQoVED,2020-0188,2020-11-21,11:46:50,12:24:28,NA,incomplete,222,color,0,left,Blue_Star_Grid_2.jpg,Blue_Circle_Dots_1.jpg,Purple_Triangle_Grid_4.jpg,right,730.2300001028925,false,high,false
mDUQoVED,3r6rzgk0yip7nifkjif6ljfzh9ayv2,3dbqwde4yaby09ulxrtkppjlexhn54,mDUQoVED,2020-0188,2020-11-21,11:46:50,12:24:28,NA,incomplete,223,color,1,left,Purple_Plus_Chess_4.jpg,Purple_Triangle_Dots_1.jpg,Blue_Circle_Chess_3.jpg,right,719.7250000899658,false,high,false
mDUQoVED,3r6rzgk0yip7nifkjif6ljfzh9ayv2,3dbqwde4yaby09ulxrtkppjlexhn54,mDUQoVED,2020-0188,2020-11-21,11:46:50,12:24:28,NA,incomplete,224,color,1,left,Green_Plus_Stripes_1.jpg,Green_Star_Grid_2.jpg,Blue_Triangle_Stripes_3.jpg,right,699.5799998985603,false,high,false
mDUQoVED,3r6rzgk0yip7nifkjif6ljfzh9ayv2,3dbqwde4yaby09ulxrtkppjlexhn54,mDUQoVED,2020-0188,2020-11-21,11:46:50,12:24:28,NA,incomplete,225,color,0,right,Purple_Plus_Dots_3.jpg,Blue_Triangle_Dots_2.jpg,Purple_Star_Chess_4.jpg,right,561.3700000103563,true,high,false
mDUQoVED,3r6rzgk0yip7nifkjif6ljfzh9ayv2,3dbqwde4yaby09ulxrtkppjlexhn54,mDUQoVED,2020-0188,2020-11-21,11:46:50,12:24:28,NA,incomplete,226,color,1,right,Blue_Star_Grid_1.jpg,Green_Circle_Grid_2.jpg,Blue_Triangle_Stripes_4.jpg,right,557.3449999792501,true,high,false
mDUQoVED,3r6rzgk0yip7nifkjif6ljfzh9ayv2,3dbqwde4yaby09ulxrtkppjlexhn54,mDUQoVED,2020-0188,2020-11-21,11:46:50,12:24:28,NA,incomplete,227,color,1,right,Red_Star_Stripes_1.jpg,Purple_Plus_Stripes_3.jpg,Red_Circle_Grid_2.jpg,right,497.19499994535,true,high,false
mDUQoVED,3r6rzgk0yip7nifkjif6ljfzh9ayv2,3dbqwde4yaby09ulxrtkppjlexhn54,mDUQoVED,2020-0188,2020-11-21,11:46:50,12:24:28,NA,incomplete,228,color,1,right,Red_Star_Chess_2.jpg,Blue_Triangle_Chess_4.jpg,Red_Plus_Grid_1.jpg,right,535.4450000450015,true,high,false
mDUQoVED,3r6rzgk0yip7nifkjif6ljfzh9ayv2,3dbqwde4yaby09ulxrtkppjlexhn54,mDUQoVED,2020-0188,2020-11-21,11:46:50,12:24:28,NA,incomplete,229,color,1,left,Blue_Star_Dots_4.jpg,Blue_Circle_Chess_1.jpg,Green_Plus_Dots_3.jpg,left,507.6950000366196,true,high,false
mDUQoVED,3r6rzgk0yip7nifkjif6ljfzh9ayv2,3dbqwde4yaby09ulxrtkppjlexhn54,mDUQoVED,2020-0188,2020-11-21,11:46:50,12:24:28,NA,incomplete,230,color,1,left,Purple_Triangle_Grid_3.jpg,Purple_Star_Dots_4.jpg,Green_Plus_Grid_1.jpg,left,489.2499999841675,true,high,false
mDUQoVED,3r6rzgk0yip7nifkjif6ljfzh9ayv2,3dbqwde4yaby09ulxrtkppjlexhn54,mDUQoVED,2020-0188,2020-11-21,11:46:50,12:24:28,NA,incomplete,231,color,1,right,Green_Plus_Dots_3.jpg,Purple_Star_Dots_2.jpg,Green_Triangle_Grid_4.jpg,right,408.04500004742295,true,high,false
mDUQoVED,3r6rzgk0yip7nifkjif6ljfzh9ayv2,3dbqwde4yaby09ulxrtkppjlexhn54,mDUQoVED,2020-0188,2020-11-21,11:46:50,12:24:28,NA,incomplete,232,color,1,right,Purple_Triangle_Grid_4.jpg,Green_Plus_Grid_2.jpg,Purple_Star_Dots_1.jpg,right,521.3450000155717,true,high,false
mDUQoVED,3r6rzgk0yip7nifkjif6ljfzh9ayv2,3dbqwde4yaby09ulxrtkppjlexhn54,mDUQoVED,2020-0188,2020-11-21,11:46:50,12:24:28,NA,incomplete,233,color,1,right,Red_Plus_Dots_2.jpg,Green_Triangle_Dots_3.jpg,Red_Star_Grid_1.jpg,right,494.36999997124076,true,high,false
mDUQoVED,3r6rzgk0yip7nifkjif6ljfzh9ayv2,3dbqwde4yaby09ulxrtkppjlexhn54,mDUQoVED,2020-0188,2020-11-21,11:46:50,12:24:28,NA,incomplete,234,color,1,right,Purple_Triangle_Dots_2.jpg,Red_Star_Dots_1.jpg,Purple_Plus_Grid_4.jpg,right,461.3899999530986,true,high,false
mDUQoVED,3r6rzgk0yip7nifkjif6ljfzh9ayv2,3dbqwde4yaby09ulxrtkppjlexhn54,mDUQoVED,2020-0188,2020-11-21,11:46:50,12:24:28,NA,incomplete,235,color,0,left,Red_Star_Dots_4.jpg,Red_Circle_Chess_3.jpg,Green_Triangle_Dots_1.jpg,left,491.76499992609024,true,high,false
mDUQoVED,3r6rzgk0yip7nifkjif6ljfzh9ayv2,3dbqwde4yaby09ulxrtkppjlexhn54,mDUQoVED,2020-0188,2020-11-21,11:46:50,12:24:28,NA,incomplete,236,color,1,right,Blue_Plus_Dots_3.jpg,Red_Triangle_Dots_1.jpg,Blue_Circle_Chess_4.jpg,right,498.215000028722,true,high,false
mDUQoVED,3r6rzgk0yip7nifkjif6ljfzh9ayv2,3dbqwde4yaby09ulxrtkppjlexhn54,mDUQoVED,2020-0188,2020-11-21,11:46:50,12:24:28,NA,incomplete,237,color,1,left,Blue_Circle_Dots_2.jpg,Blue_Star_Chess_3.jpg,Green_Triangle_Dots_4.jpg,left,464.5449999952689,true,high,false
mDUQoVED,3r6rzgk0yip7nifkjif6ljfzh9ayv2,3dbqwde4yaby09ulxrtkppjlexhn54,mDUQoVED,2020-0188,2020-11-21,11:46:50,12:24:28,NA,incomplete,238,color,1,right,Green_Plus_Grid_1.jpg,Blue_Triangle_Grid_4.jpg,Green_Star_Stripes_2.jpg,right,432.58999998215586,true,high,false
mDUQoVED,3r6rzgk0yip7nifkjif6ljfzh9ayv2,3dbqwde4yaby09ulxrtkppjlexhn54,mDUQoVED,2020-0188,2020-11-21,11:46:50,12:24:28,NA,incomplete,239,color,1,left,Green_Plus_Chess_1.jpg,Green_Circle_Dots_3.jpg,Blue_Star_Chess_2.jpg,left,481.31499998271465,true,high,false
mDUQoVED,3r6rzgk0yip7nifkjif6ljfzh9ayv2,3dbqwde4yaby09ulxrtkppjlexhn54,mDUQoVED,2020-0188,2020-11-21,11:46:50,12:24:28,2204083.02000002,2259012.1149999322,NA,NA,NA,NA,NA,NA,NA,NA,NA,NA,NA,undefined
