workerId,hitId,assignmentId,subject,studyid,exp_date,exp_start,exp_end,time_start,time_end,trial,type,reward_validity,answer,image_top,image_left,image_right,response,response_time,response_acc,volatility,practice
cfD1mp5Z,3b6f54kms5pu5knddy3sw9ki4gws13,3del4x4elay1eri9azlqyo8b91hxy2,cfD1mp5Z,2020-0188,2020-05-07,17:26:41,17:44:53,NA,incomplete,0,color,1,left,Purple_Star_Grid_1.jpg,Purple_Circle_Stripes_3.jpg,Green_Triangle_Chess_1.jpg,right,824.4249999988824,false,NA,true
cfD1mp5Z,3b6f54kms5pu5knddy3sw9ki4gws13,3del4x4elay1eri9azlqyo8b91hxy2,cfD1mp5Z,2020-0188,2020-05-07,17:26:41,17:44:53,NA,incomplete,1,color,1,right,Purple_Star_Chess_2.jpg,Blue_Plus_Stripes_2.jpg,Purple_Circle_Dots_1.jpg,right,719.1100000054576,true,NA,true
cfD1mp5Z,3b6f54kms5pu5knddy3sw9ki4gws13,3del4x4elay1eri9azlqyo8b91hxy2,cfD1mp5Z,2020-0188,2020-05-07,17:26:41,17:44:53,NA,incomplete,2,color,1,left,Red_Star_Grid_4.jpg,Red_Circle_Chess_2.jpg,Green_Triangle_Dots_4.jpg,left,931.0150000092108,true,NA,true
cfD1mp5Z,3b6f54kms5pu5knddy3sw9ki4gws13,3del4x4elay1eri9azlqyo8b91hxy2,cfD1mp5Z,2020-0188,2020-05-07,17:26:41,17:44:53,NA,incomplete,3,color,1,right,Green_Star_Chess_4.jpg,Blue_Plus_Grid_4.jpg,Green_Triangle_Stripes_3.jpg,right,600.1550000073621,true,NA,true
cfD1mp5Z,3b6f54kms5pu5knddy3sw9ki4gws13,3del4x4elay1eri9azlqyo8b91hxy2,cfD1mp5Z,2020-0188,2020-05-07,17:26:41,17:44:53,NA,incomplete,4,color,1,left,Purple_Circle_Dots_4.jpg,Purple_Plus_Stripes_2.jpg,Green_Star_Grid_4.jpg,left,1174.8700000025565,true,NA,true
cfD1mp5Z,3b6f54kms5pu5knddy3sw9ki4gws13,3del4x4elay1eri9azlqyo8b91hxy2,cfD1mp5Z,2020-0188,2020-05-07,17:26:41,17:44:53,NA,incomplete,5,color,1,left,Red_Triangle_Dots_1.jpg,Red_Plus_Stripes_3.jpg,Blue_Circle_Chess_1.jpg,left,531.25,true,NA,true
cfD1mp5Z,3b6f54kms5pu5knddy3sw9ki4gws13,3del4x4elay1eri9azlqyo8b91hxy2,cfD1mp5Z,2020-0188,2020-05-07,17:26:41,17:44:53,NA,incomplete,6,color,1,right,Blue_Plus_Dots_2.jpg,Green_Triangle_Grid_2.jpg,Blue_Circle_Chess_4.jpg,right,475.4749999992782,true,NA,true
cfD1mp5Z,3b6f54kms5pu5knddy3sw9ki4gws13,3del4x4elay1eri9azlqyo8b91hxy2,cfD1mp5Z,2020-0188,2020-05-07,17:26:41,17:44:53,NA,incomplete,7,color,0,right,Blue_Plus_Chess_1.jpg,Purple_Triangle_Stripes_1.jpg,Blue_Circle_Grid_3.jpg,right,508.61999999324325,true,NA,true
cfD1mp5Z,3b6f54kms5pu5knddy3sw9ki4gws13,3del4x4elay1eri9azlqyo8b91hxy2,cfD1mp5Z,2020-0188,2020-05-07,17:26:41,17:44:53,NA,incomplete,8,color,1,right,Red_Plus_Grid_4.jpg,Green_Triangle_Stripes_4.jpg,Red_Circle_Dots_2.jpg,right,619.1600000020117,true,NA,true
cfD1mp5Z,3b6f54kms5pu5knddy3sw9ki4gws13,3del4x4elay1eri9azlqyo8b91hxy2,cfD1mp5Z,2020-0188,2020-05-07,17:26:41,17:44:53,NA,incomplete,9,color,1,right,Red_Triangle_Dots_2.jpg,Purple_Circle_Stripes_2.jpg,Red_Plus_Grid_3.jpg,right,554.1349999984959,true,NA,true
cfD1mp5Z,3b6f54kms5pu5knddy3sw9ki4gws13,3del4x4elay1eri9azlqyo8b91hxy2,cfD1mp5Z,2020-0188,2020-05-07,17:26:41,17:44:53,NA,incomplete,10,color,0,left,Red_Circle_Dots_1.jpg,Red_Star_Grid_2.jpg,Purple_Plus_Stripes_1.jpg,left,583.1650000036461,true,NA,true
cfD1mp5Z,3b6f54kms5pu5knddy3sw9ki4gws13,3del4x4elay1eri9azlqyo8b91hxy2,cfD1mp5Z,2020-0188,2020-05-07,17:26:41,17:44:53,NA,incomplete,11,color,1,right,Purple_Circle_Dots_1.jpg,Blue_Triangle_Chess_1.jpg,Purple_Star_Grid_2.jpg,right,504.24999999813735,true,NA,true
cfD1mp5Z,3b6f54kms5pu5knddy3sw9ki4gws13,3del4x4elay1eri9azlqyo8b91hxy2,cfD1mp5Z,2020-0188,2020-05-07,17:26:41,17:44:53,NA,incomplete,12,color,1,right,Purple_Star_Chess_3.jpg,Red_Triangle_Grid_3.jpg,Purple_Circle_Stripes_2.jpg,right,941.2650000012945,true,NA,true
cfD1mp5Z,3b6f54kms5pu5knddy3sw9ki4gws13,3del4x4elay1eri9azlqyo8b91hxy2,cfD1mp5Z,2020-0188,2020-05-07,17:26:41,17:44:53,NA,incomplete,13,color,1,right,Green_Star_Chess_1.jpg,Purple_Circle_Grid_1.jpg,Green_Triangle_Stripes_2.jpg,right,735.7199999969453,true,NA,true
cfD1mp5Z,3b6f54kms5pu5knddy3sw9ki4gws13,3del4x4elay1eri9azlqyo8b91hxy2,cfD1mp5Z,2020-0188,2020-05-07,17:26:41,17:44:53,NA,incomplete,14,color,1,right,Purple_Star_Stripes_4.jpg,Red_Triangle_Grid_4.jpg,Purple_Plus_Chess_3.jpg,right,619.4300000061048,true,NA,true
cfD1mp5Z,3b6f54kms5pu5knddy3sw9ki4gws13,3del4x4elay1eri9azlqyo8b91hxy2,cfD1mp5Z,2020-0188,2020-05-07,17:26:41,17:44:53,NA,incomplete,15,color,1,right,Blue_Triangle_Chess_2.jpg,Purple_Plus_Grid_2.jpg,Blue_Star_Stripes_1.jpg,right,532.5250000023516,true,NA,true
cfD1mp5Z,3b6f54kms5pu5knddy3sw9ki4gws13,3del4x4elay1eri9azlqyo8b91hxy2,cfD1mp5Z,2020-0188,2020-05-07,17:26:41,17:44:53,NA,incomplete,16,color,1,left,Green_Triangle_Chess_3.jpg,Green_Plus_Dots_2.jpg,Red_Circle_Grid_3.jpg,left,504.82499999634456,true,NA,true
cfD1mp5Z,3b6f54kms5pu5knddy3sw9ki4gws13,3del4x4elay1eri9azlqyo8b91hxy2,cfD1mp5Z,2020-0188,2020-05-07,17:26:41,17:44:53,NA,incomplete,17,color,1,right,Blue_Star_Stripes_4.jpg,Red_Triangle_Grid_4.jpg,Blue_Plus_Dots_2.jpg,right,528.2750000042142,true,NA,true
cfD1mp5Z,3b6f54kms5pu5knddy3sw9ki4gws13,3del4x4elay1eri9azlqyo8b91hxy2,cfD1mp5Z,2020-0188,2020-05-07,17:26:41,17:44:53,NA,incomplete,18,color,1,left,Blue_Circle_Grid_3.jpg,Blue_Triangle_Dots_4.jpg,Purple_Plus_Stripes_3.jpg,left,744.1600000020117,true,NA,true
cfD1mp5Z,3b6f54kms5pu5knddy3sw9ki4gws13,3del4x4elay1eri9azlqyo8b91hxy2,cfD1mp5Z,2020-0188,2020-05-07,17:26:41,17:44:53,NA,incomplete,19,color,1,right,Purple_Triangle_Chess_1.jpg,Blue_Star_Stripes_1.jpg,Purple_Plus_Dots_2.jpg,right,486.4499999966938,true,NA,true
cfD1mp5Z,3b6f54kms5pu5knddy3sw9ki4gws13,3del4x4elay1eri9azlqyo8b91hxy2,cfD1mp5Z,2020-0188,2020-05-07,17:26:41,17:44:53,NA,incomplete,20,number,0,left,Blue_Star_Chess_1.jpg,Green_Plus_Grid_1.jpg,Blue_Triangle_Dots_4.jpg,right,650.8800000010524,false,NA,true
cfD1mp5Z,3b6f54kms5pu5knddy3sw9ki4gws13,3del4x4elay1eri9azlqyo8b91hxy2,cfD1mp5Z,2020-0188,2020-05-07,17:26:41,17:44:53,NA,incomplete,21,number,1,left,Red_Star_Chess_2.jpg,Green_Circle_Grid_2.jpg,Red_Triangle_Stripes_4.jpg,right,766.6949999984354,false,NA,true
cfD1mp5Z,3b6f54kms5pu5knddy3sw9ki4gws13,3del4x4elay1eri9azlqyo8b91hxy2,cfD1mp5Z,2020-0188,2020-05-07,17:26:41,17:44:53,NA,incomplete,22,number,1,left,Red_Star_Chess_3.jpg,Green_Circle_Stripes_3.jpg,Red_Plus_Dots_1.jpg,right,788.7300000002142,false,NA,true
cfD1mp5Z,3b6f54kms5pu5knddy3sw9ki4gws13,3del4x4elay1eri9azlqyo8b91hxy2,cfD1mp5Z,2020-0188,2020-05-07,17:26:41,17:44:53,NA,incomplete,23,number,0,right,Red_Plus_Grid_3.jpg,Red_Triangle_Stripes_4.jpg,Green_Star_Dots_3.jpg,right,1222.4700000078883,true,NA,true
cfD1mp5Z,3b6f54kms5pu5knddy3sw9ki4gws13,3del4x4elay1eri9azlqyo8b91hxy2,cfD1mp5Z,2020-0188,2020-05-07,17:26:41,17:44:53,NA,incomplete,24,number,1,right,Purple_Circle_Dots_1.jpg,Purple_Plus_Chess_3.jpg,Blue_Triangle_Stripes_1.jpg,right,792.0849999936763,true,NA,true
cfD1mp5Z,3b6f54kms5pu5knddy3sw9ki4gws13,3del4x4elay1eri9azlqyo8b91hxy2,cfD1mp5Z,2020-0188,2020-05-07,17:26:41,17:44:53,NA,incomplete,25,number,1,right,Blue_Star_Stripes_4.jpg,Blue_Circle_Chess_1.jpg,Purple_Plus_Dots_4.jpg,right,639.7050000086892,true,NA,true
cfD1mp5Z,3b6f54kms5pu5knddy3sw9ki4gws13,3del4x4elay1eri9azlqyo8b91hxy2,cfD1mp5Z,2020-0188,2020-05-07,17:26:41,17:44:53,NA,incomplete,26,number,0,right,Green_Plus_Dots_4.jpg,Green_Circle_Stripes_2.jpg,Red_Star_Chess_4.jpg,right,679.149999996298,true,NA,true
cfD1mp5Z,3b6f54kms5pu5knddy3sw9ki4gws13,3del4x4elay1eri9azlqyo8b91hxy2,cfD1mp5Z,2020-0188,2020-05-07,17:26:41,17:44:53,NA,incomplete,27,number,1,left,Purple_Plus_Chess_4.jpg,Red_Star_Stripes_4.jpg,Purple_Circle_Grid_3.jpg,left,1149.699999994482,true,NA,true
cfD1mp5Z,3b6f54kms5pu5knddy3sw9ki4gws13,3del4x4elay1eri9azlqyo8b91hxy2,cfD1mp5Z,2020-0188,2020-05-07,17:26:41,17:44:53,NA,incomplete,28,number,0,left,Red_Star_Chess_4.jpg,Purple_Plus_Stripes_4.jpg,Red_Circle_Dots_2.jpg,left,1071.1699999956181,true,NA,true
cfD1mp5Z,3b6f54kms5pu5knddy3sw9ki4gws13,3del4x4elay1eri9azlqyo8b91hxy2,cfD1mp5Z,2020-0188,2020-05-07,17:26:41,17:44:53,NA,incomplete,29,number,1,right,Red_Plus_Chess_4.jpg,Red_Circle_Grid_1.jpg,Green_Star_Stripes_4.jpg,right,796.5049999911571,true,NA,true
cfD1mp5Z,3b6f54kms5pu5knddy3sw9ki4gws13,3del4x4elay1eri9azlqyo8b91hxy2,cfD1mp5Z,2020-0188,2020-05-07,17:26:41,17:44:53,NA,incomplete,30,number,1,right,Purple_Plus_Chess_3.jpg,Purple_Triangle_Stripes_2.jpg,Red_Star_Grid_3.jpg,right,880.0399999890942,true,NA,true
cfD1mp5Z,3b6f54kms5pu5knddy3sw9ki4gws13,3del4x4elay1eri9azlqyo8b91hxy2,cfD1mp5Z,2020-0188,2020-05-07,17:26:41,17:44:53,NA,incomplete,31,number,0,right,Purple_Circle_Chess_1.jpg,Purple_Plus_Dots_3.jpg,Red_Triangle_Grid_1.jpg,right,767.4700000061421,true,NA,true
cfD1mp5Z,3b6f54kms5pu5knddy3sw9ki4gws13,3del4x4elay1eri9azlqyo8b91hxy2,cfD1mp5Z,2020-0188,2020-05-07,17:26:41,17:44:53,NA,incomplete,32,number,1,right,Blue_Plus_Dots_1.jpg,Blue_Star_Grid_2.jpg,Red_Circle_Stripes_1.jpg,right,878.8150000036694,true,NA,true
cfD1mp5Z,3b6f54kms5pu5knddy3sw9ki4gws13,3del4x4elay1eri9azlqyo8b91hxy2,cfD1mp5Z,2020-0188,2020-05-07,17:26:41,17:44:53,NA,incomplete,33,number,0,left,Red_Plus_Dots_3.jpg,Green_Triangle_Stripes_3.jpg,Red_Circle_Grid_1.jpg,left,1181.0499999992317,true,NA,true
cfD1mp5Z,3b6f54kms5pu5knddy3sw9ki4gws13,3del4x4elay1eri9azlqyo8b91hxy2,cfD1mp5Z,2020-0188,2020-05-07,17:26:41,17:44:53,NA,incomplete,34,number,1,right,Green_Plus_Grid_1.jpg,Green_Star_Stripes_2.jpg,Purple_Circle_Dots_1.jpg,right,779.9200000008568,true,NA,true
cfD1mp5Z,3b6f54kms5pu5knddy3sw9ki4gws13,3del4x4elay1eri9azlqyo8b91hxy2,cfD1mp5Z,2020-0188,2020-05-07,17:26:41,17:44:53,NA,incomplete,35,number,1,right,Green_Plus_Chess_2.jpg,Green_Triangle_Grid_1.jpg,Purple_Star_Stripes_2.jpg,right,782.7049999905284,true,NA,true
cfD1mp5Z,3b6f54kms5pu5knddy3sw9ki4gws13,3del4x4elay1eri9azlqyo8b91hxy2,cfD1mp5Z,2020-0188,2020-05-07,17:26:41,17:44:53,NA,incomplete,36,number,1,right,Blue_Circle_Stripes_3.jpg,Blue_Triangle_Grid_4.jpg,Purple_Star_Dots_3.jpg,right,916.9150000088848,true,NA,true
cfD1mp5Z,3b6f54kms5pu5knddy3sw9ki4gws13,3del4x4elay1eri9azlqyo8b91hxy2,cfD1mp5Z,2020-0188,2020-05-07,17:26:41,17:44:53,NA,incomplete,37,number,1,left,Green_Circle_Grid_2.jpg,Red_Triangle_Stripes_2.jpg,Green_Plus_Dots_4.jpg,left,715.7049999950686,true,NA,true
cfD1mp5Z,3b6f54kms5pu5knddy3sw9ki4gws13,3del4x4elay1eri9azlqyo8b91hxy2,cfD1mp5Z,2020-0188,2020-05-07,17:26:41,17:44:53,NA,incomplete,38,number,1,left,Purple_Plus_Stripes_1.jpg,Green_Star_Grid_1.jpg,Purple_Triangle_Dots_4.jpg,left,750.4250000056345,true,NA,true
cfD1mp5Z,3b6f54kms5pu5knddy3sw9ki4gws13,3del4x4elay1eri9azlqyo8b91hxy2,cfD1mp5Z,2020-0188,2020-05-07,17:26:41,17:44:53,NA,incomplete,39,number,1,right,Blue_Star_Stripes_1.jpg,Blue_Triangle_Dots_2.jpg,Red_Plus_Chess_1.jpg,right,747.7649999927962,true,NA,true
cfD1mp5Z,3b6f54kms5pu5knddy3sw9ki4gws13,3del4x4elay1eri9azlqyo8b91hxy2,cfD1mp5Z,2020-0188,2020-05-07,17:26:41,17:44:53,NA,incomplete,0,color,1,left,Purple_Triangle_Stripes_1.jpg,Purple_Star_Grid_4.jpg,Blue_Plus_Dots_1.jpg,left,1160.8050000068033,true,high,false
cfD1mp5Z,3b6f54kms5pu5knddy3sw9ki4gws13,3del4x4elay1eri9azlqyo8b91hxy2,cfD1mp5Z,2020-0188,2020-05-07,17:26:41,17:44:53,NA,incomplete,1,color,1,left,Blue_Circle_Grid_2.jpg,Blue_Plus_Stripes_3.jpg,Purple_Star_Chess_2.jpg,left,524.9900000053458,true,high,false
cfD1mp5Z,3b6f54kms5pu5knddy3sw9ki4gws13,3del4x4elay1eri9azlqyo8b91hxy2,cfD1mp5Z,2020-0188,2020-05-07,17:26:41,17:44:53,NA,incomplete,2,color,1,right,Blue_Circle_Chess_2.jpg,Purple_Plus_Grid_2.jpg,Blue_Star_Stripes_1.jpg,right,506.760000003851,true,high,false
cfD1mp5Z,3b6f54kms5pu5knddy3sw9ki4gws13,3del4x4elay1eri9azlqyo8b91hxy2,cfD1mp5Z,2020-0188,2020-05-07,17:26:41,17:44:53,NA,incomplete,3,color,1,right,Purple_Plus_Stripes_2.jpg,Green_Triangle_Dots_2.jpg,Purple_Star_Chess_4.jpg,right,981.8800000066403,true,high,false
cfD1mp5Z,3b6f54kms5pu5knddy3sw9ki4gws13,3del4x4elay1eri9azlqyo8b91hxy2,cfD1mp5Z,2020-0188,2020-05-07,17:26:41,17:44:53,NA,incomplete,4,color,1,right,Red_Triangle_Stripes_4.jpg,Purple_Circle_Chess_4.jpg,Red_Plus_Grid_2.jpg,right,686.8799999938346,true,high,false
cfD1mp5Z,3b6f54kms5pu5knddy3sw9ki4gws13,3del4x4elay1eri9azlqyo8b91hxy2,cfD1mp5Z,2020-0188,2020-05-07,17:26:41,17:44:53,NA,incomplete,5,color,0,left,Purple_Plus_Dots_4.jpg,Purple_Star_Chess_3.jpg,Red_Triangle_Stripes_4.jpg,left,541.5899999934481,true,high,false
cfD1mp5Z,3b6f54kms5pu5knddy3sw9ki4gws13,3del4x4elay1eri9azlqyo8b91hxy2,cfD1mp5Z,2020-0188,2020-05-07,17:26:41,17:44:53,NA,incomplete,6,color,1,left,Blue_Triangle_Dots_3.jpg,Blue_Plus_Chess_1.jpg,Purple_Star_Grid_3.jpg,left,597.315000006347,true,high,false
cfD1mp5Z,3b6f54kms5pu5knddy3sw9ki4gws13,3del4x4elay1eri9azlqyo8b91hxy2,cfD1mp5Z,2020-0188,2020-05-07,17:26:41,17:44:53,NA,incomplete,7,color,1,right,Purple_Star_Grid_1.jpg,Red_Circle_Chess_1.jpg,Purple_Triangle_Dots_2.jpg,right,610.820000001695,true,high,false
cfD1mp5Z,3b6f54kms5pu5knddy3sw9ki4gws13,3del4x4elay1eri9azlqyo8b91hxy2,cfD1mp5Z,2020-0188,2020-05-07,17:26:41,17:44:53,NA,incomplete,8,color,1,left,Purple_Plus_Stripes_1.jpg,Purple_Star_Chess_4.jpg,Red_Triangle_Dots_1.jpg,left,541.8100000097184,true,high,false
cfD1mp5Z,3b6f54kms5pu5knddy3sw9ki4gws13,3del4x4elay1eri9azlqyo8b91hxy2,cfD1mp5Z,2020-0188,2020-05-07,17:26:41,17:44:53,NA,incomplete,9,color,1,left,Green_Circle_Stripes_2.jpg,Green_Star_Chess_1.jpg,Red_Plus_Grid_2.jpg,left,678.3399999985704,true,high,false
cfD1mp5Z,3b6f54kms5pu5knddy3sw9ki4gws13,3del4x4elay1eri9azlqyo8b91hxy2,cfD1mp5Z,2020-0188,2020-05-07,17:26:41,17:44:53,NA,incomplete,10,number,0,left,Red_Circle_Chess_2.jpg,Green_Plus_Stripes_2.jpg,Red_Triangle_Dots_3.jpg,right,481.8949999898905,false,high,false
cfD1mp5Z,3b6f54kms5pu5knddy3sw9ki4gws13,3del4x4elay1eri9azlqyo8b91hxy2,cfD1mp5Z,2020-0188,2020-05-07,17:26:41,17:44:53,NA,incomplete,11,number,1,left,Red_Star_Grid_4.jpg,Green_Circle_Stripes_4.jpg,Red_Plus_Dots_1.jpg,right,542.3900000023423,false,high,false
cfD1mp5Z,3b6f54kms5pu5knddy3sw9ki4gws13,3del4x4elay1eri9azlqyo8b91hxy2,cfD1mp5Z,2020-0188,2020-05-07,17:26:41,17:44:53,NA,incomplete,12,number,1,right,Red_Circle_Grid_2.jpg,Red_Triangle_Chess_3.jpg,Green_Star_Stripes_2.jpg,left,504.07999999879394,false,high,false
cfD1mp5Z,3b6f54kms5pu5knddy3sw9ki4gws13,3del4x4elay1eri9azlqyo8b91hxy2,cfD1mp5Z,2020-0188,2020-05-07,17:26:41,17:44:53,NA,incomplete,13,number,1,left,Blue_Plus_Chess_1.jpg,Purple_Star_Grid_1.jpg,Blue_Triangle_Stripes_4.jpg,left,606.644999992568,true,high,false
cfD1mp5Z,3b6f54kms5pu5knddy3sw9ki4gws13,3del4x4elay1eri9azlqyo8b91hxy2,cfD1mp5Z,2020-0188,2020-05-07,17:26:41,17:44:53,NA,incomplete,14,number,1,right,Red_Plus_Chess_3.jpg,Red_Star_Grid_1.jpg,Green_Circle_Dots_3.jpg,right,724.514999994426,true,high,false
cfD1mp5Z,3b6f54kms5pu5knddy3sw9ki4gws13,3del4x4elay1eri9azlqyo8b91hxy2,cfD1mp5Z,2020-0188,2020-05-07,17:26:41,17:44:53,NA,incomplete,15,number,0,left,Blue_Star_Dots_4.jpg,Red_Circle_Grid_4.jpg,Blue_Triangle_Chess_2.jpg,left,780.3600000042934,true,high,false
cfD1mp5Z,3b6f54kms5pu5knddy3sw9ki4gws13,3del4x4elay1eri9azlqyo8b91hxy2,cfD1mp5Z,2020-0188,2020-05-07,17:26:41,17:44:53,NA,incomplete,16,number,0,right,Red_Triangle_Stripes_2.jpg,Red_Plus_Dots_4.jpg,Green_Circle_Chess_2.jpg,right,772.7199999935692,true,high,false
cfD1mp5Z,3b6f54kms5pu5knddy3sw9ki4gws13,3del4x4elay1eri9azlqyo8b91hxy2,cfD1mp5Z,2020-0188,2020-05-07,17:26:41,17:44:53,NA,incomplete,17,number,1,right,Red_Star_Chess_2.jpg,Red_Plus_Stripes_1.jpg,Blue_Circle_Dots_2.jpg,left,593.6100000108127,false,high,false
cfD1mp5Z,3b6f54kms5pu5knddy3sw9ki4gws13,3del4x4elay1eri9azlqyo8b91hxy2,cfD1mp5Z,2020-0188,2020-05-07,17:26:41,17:44:53,NA,incomplete,18,number,1,left,Blue_Triangle_Grid_2.jpg,Red_Plus_Dots_2.jpg,Blue_Star_Stripes_4.jpg,left,811.2649999966379,true,high,false
cfD1mp5Z,3b6f54kms5pu5knddy3sw9ki4gws13,3del4x4elay1eri9azlqyo8b91hxy2,cfD1mp5Z,2020-0188,2020-05-07,17:26:41,17:44:53,NA,incomplete,19,number,1,left,Green_Triangle_Dots_1.jpg,Blue_Star_Grid_1.jpg,Green_Circle_Chess_3.jpg,left,651.8599999981234,true,high,false
cfD1mp5Z,3b6f54kms5pu5knddy3sw9ki4gws13,3del4x4elay1eri9azlqyo8b91hxy2,cfD1mp5Z,2020-0188,2020-05-07,17:26:41,17:44:53,NA,incomplete,20,color,1,right,Red_Plus_Grid_2.jpg,Green_Circle_Stripes_2.jpg,Red_Triangle_Chess_1.jpg,left,1004.0000000008149,false,high,false
cfD1mp5Z,3b6f54kms5pu5knddy3sw9ki4gws13,3del4x4elay1eri9azlqyo8b91hxy2,cfD1mp5Z,2020-0188,2020-05-07,17:26:41,17:44:53,NA,incomplete,21,color,0,left,Purple_Plus_Chess_2.jpg,Purple_Triangle_Dots_4.jpg,Green_Star_Stripes_2.jpg,right,718.2249999896158,false,high,false
cfD1mp5Z,3b6f54kms5pu5knddy3sw9ki4gws13,3del4x4elay1eri9azlqyo8b91hxy2,cfD1mp5Z,2020-0188,2020-05-07,17:26:41,17:44:53,NA,incomplete,22,color,1,left,Purple_Star_Grid_1.jpg,Purple_Triangle_Stripes_4.jpg,Green_Circle_Chess_1.jpg,right,682.4950000009267,false,high,false
cfD1mp5Z,3b6f54kms5pu5knddy3sw9ki4gws13,3del4x4elay1eri9azlqyo8b91hxy2,cfD1mp5Z,2020-0188,2020-05-07,17:26:41,17:44:53,NA,incomplete,23,color,1,left,Green_Plus_Grid_2.jpg,Green_Star_Chess_4.jpg,Blue_Circle_Stripes_2.jpg,right,965.1100000046426,false,high,false
cfD1mp5Z,3b6f54kms5pu5knddy3sw9ki4gws13,3del4x4elay1eri9azlqyo8b91hxy2,cfD1mp5Z,2020-0188,2020-05-07,17:26:41,17:44:53,NA,incomplete,24,color,1,left,Red_Triangle_Grid_3.jpg,Red_Star_Chess_2.jpg,Green_Plus_Dots_3.jpg,left,621.7049999977462,true,high,false
cfD1mp5Z,3b6f54kms5pu5knddy3sw9ki4gws13,3del4x4elay1eri9azlqyo8b91hxy2,cfD1mp5Z,2020-0188,2020-05-07,17:26:41,17:44:53,NA,incomplete,25,color,0,left,Red_Star_Grid_4.jpg,Red_Circle_Dots_2.jpg,Blue_Plus_Chess_4.jpg,left,642.8750000050059,true,high,false
cfD1mp5Z,3b6f54kms5pu5knddy3sw9ki4gws13,3del4x4elay1eri9azlqyo8b91hxy2,cfD1mp5Z,2020-0188,2020-05-07,17:26:41,17:44:53,NA,incomplete,26,color,1,left,Red_Star_Dots_2.jpg,Red_Triangle_Grid_3.jpg,Blue_Plus_Chess_2.jpg,left,510.87500000721775,true,high,false
cfD1mp5Z,3b6f54kms5pu5knddy3sw9ki4gws13,3del4x4elay1eri9azlqyo8b91hxy2,cfD1mp5Z,2020-0188,2020-05-07,17:26:41,17:44:53,NA,incomplete,27,color,0,right,Red_Star_Chess_2.jpg,Blue_Plus_Stripes_2.jpg,Red_Circle_Dots_1.jpg,right,584.6049999963725,true,high,false
cfD1mp5Z,3b6f54kms5pu5knddy3sw9ki4gws13,3del4x4elay1eri9azlqyo8b91hxy2,cfD1mp5Z,2020-0188,2020-05-07,17:26:41,17:44:53,NA,incomplete,28,color,0,right,Blue_Triangle_Chess_4.jpg,Purple_Star_Dots_4.jpg,Blue_Circle_Stripes_1.jpg,right,793.2100000034552,true,high,false
cfD1mp5Z,3b6f54kms5pu5knddy3sw9ki4gws13,3del4x4elay1eri9azlqyo8b91hxy2,cfD1mp5Z,2020-0188,2020-05-07,17:26:41,17:44:53,NA,incomplete,29,color,1,left,Red_Triangle_Dots_2.jpg,Red_Star_Stripes_3.jpg,Blue_Plus_Grid_2.jpg,right,818.7850000103936,false,high,false
cfD1mp5Z,3b6f54kms5pu5knddy3sw9ki4gws13,3del4x4elay1eri9azlqyo8b91hxy2,cfD1mp5Z,2020-0188,2020-05-07,17:26:41,17:44:53,NA,incomplete,30,number,1,right,Purple_Star_Chess_4.jpg,Purple_Triangle_Stripes_1.jpg,Red_Circle_Grid_4.jpg,right,799.8099999967963,true,high,false
cfD1mp5Z,3b6f54kms5pu5knddy3sw9ki4gws13,3del4x4elay1eri9azlqyo8b91hxy2,cfD1mp5Z,2020-0188,2020-05-07,17:26:41,17:44:53,NA,incomplete,31,number,1,right,Blue_Circle_Chess_1.jpg,Blue_Plus_Dots_4.jpg,Purple_Triangle_Grid_1.jpg,right,690.6400000007125,true,high,false
cfD1mp5Z,3b6f54kms5pu5knddy3sw9ki4gws13,3del4x4elay1eri9azlqyo8b91hxy2,cfD1mp5Z,2020-0188,2020-05-07,17:26:41,17:44:53,NA,incomplete,32,number,0,right,Blue_Star_Grid_2.jpg,Blue_Triangle_Chess_3.jpg,Green_Circle_Stripes_2.jpg,right,750.3999999898952,true,high,false
cfD1mp5Z,3b6f54kms5pu5knddy3sw9ki4gws13,3del4x4elay1eri9azlqyo8b91hxy2,cfD1mp5Z,2020-0188,2020-05-07,17:26:41,17:44:53,NA,incomplete,33,number,1,left,Purple_Circle_Chess_2.jpg,Green_Star_Dots_2.jpg,Purple_Plus_Grid_1.jpg,left,784.2750000127126,true,high,false
cfD1mp5Z,3b6f54kms5pu5knddy3sw9ki4gws13,3del4x4elay1eri9azlqyo8b91hxy2,cfD1mp5Z,2020-0188,2020-05-07,17:26:41,17:44:53,NA,incomplete,34,number,1,right,Purple_Circle_Dots_2.jpg,Purple_Plus_Chess_1.jpg,Blue_Triangle_Stripes_2.jpg,right,696.0350000008475,true,high,false
cfD1mp5Z,3b6f54kms5pu5knddy3sw9ki4gws13,3del4x4elay1eri9azlqyo8b91hxy2,cfD1mp5Z,2020-0188,2020-05-07,17:26:41,17:44:53,NA,incomplete,35,number,1,right,Blue_Plus_Chess_3.jpg,Blue_Star_Dots_4.jpg,Red_Circle_Stripes_3.jpg,right,884.1350000002421,true,high,false
cfD1mp5Z,3b6f54kms5pu5knddy3sw9ki4gws13,3del4x4elay1eri9azlqyo8b91hxy2,cfD1mp5Z,2020-0188,2020-05-07,17:26:41,17:44:53,NA,incomplete,36,number,1,left,Red_Triangle_Chess_3.jpg,Green_Plus_Dots_3.jpg,Red_Star_Grid_1.jpg,left,751.1599999997998,true,high,false
cfD1mp5Z,3b6f54kms5pu5knddy3sw9ki4gws13,3del4x4elay1eri9azlqyo8b91hxy2,cfD1mp5Z,2020-0188,2020-05-07,17:26:41,17:44:53,NA,incomplete,37,number,1,left,Red_Triangle_Dots_4.jpg,Green_Star_Stripes_4.jpg,Red_Plus_Grid_1.jpg,left,687.2650000004796,true,high,false
cfD1mp5Z,3b6f54kms5pu5knddy3sw9ki4gws13,3del4x4elay1eri9azlqyo8b91hxy2,cfD1mp5Z,2020-0188,2020-05-07,17:26:41,17:44:53,NA,incomplete,38,number,1,left,Green_Plus_Stripes_1.jpg,Red_Circle_Chess_1.jpg,Green_Star_Grid_2.jpg,left,675.7599999982631,true,high,false
cfD1mp5Z,3b6f54kms5pu5knddy3sw9ki4gws13,3del4x4elay1eri9azlqyo8b91hxy2,cfD1mp5Z,2020-0188,2020-05-07,17:26:41,17:44:53,NA,incomplete,39,number,1,right,Red_Star_Grid_2.jpg,Red_Plus_Stripes_4.jpg,Purple_Triangle_Dots_2.jpg,right,748.234999991837,true,high,false
cfD1mp5Z,3b6f54kms5pu5knddy3sw9ki4gws13,3del4x4elay1eri9azlqyo8b91hxy2,cfD1mp5Z,2020-0188,2020-05-07,17:26:41,17:44:53,NA,incomplete,40,color,1,right,Green_Circle_Chess_4.jpg,Purple_Triangle_Dots_4.jpg,Green_Star_Stripes_2.jpg,left,682.49000000651,false,high,false
cfD1mp5Z,3b6f54kms5pu5knddy3sw9ki4gws13,3del4x4elay1eri9azlqyo8b91hxy2,cfD1mp5Z,2020-0188,2020-05-07,17:26:41,17:44:53,NA,incomplete,41,color,1,right,Blue_Star_Stripes_2.jpg,Purple_Triangle_Chess_2.jpg,Blue_Plus_Grid_4.jpg,left,740.3349999949569,false,high,false
cfD1mp5Z,3b6f54kms5pu5knddy3sw9ki4gws13,3del4x4elay1eri9azlqyo8b91hxy2,cfD1mp5Z,2020-0188,2020-05-07,17:26:41,17:44:53,NA,incomplete,42,color,0,left,Green_Plus_Grid_1.jpg,Green_Triangle_Chess_4.jpg,Purple_Star_Dots_1.jpg,left,619.8750000039581,true,high,false
cfD1mp5Z,3b6f54kms5pu5knddy3sw9ki4gws13,3del4x4elay1eri9azlqyo8b91hxy2,cfD1mp5Z,2020-0188,2020-05-07,17:26:41,17:44:53,NA,incomplete,43,color,0,left,Blue_Plus_Dots_3.jpg,Blue_Circle_Chess_4.jpg,Purple_Star_Stripes_3.jpg,left,552.9349999997066,true,high,false
cfD1mp5Z,3b6f54kms5pu5knddy3sw9ki4gws13,3del4x4elay1eri9azlqyo8b91hxy2,cfD1mp5Z,2020-0188,2020-05-07,17:26:41,17:44:53,NA,incomplete,44,color,0,left,Green_Star_Dots_2.jpg,Green_Circle_Stripes_4.jpg,Purple_Plus_Grid_2.jpg,right,752.9950000025565,false,high,false
cfD1mp5Z,3b6f54kms5pu5knddy3sw9ki4gws13,3del4x4elay1eri9azlqyo8b91hxy2,cfD1mp5Z,2020-0188,2020-05-07,17:26:41,17:44:53,NA,incomplete,45,color,1,left,Green_Triangle_Grid_4.jpg,Green_Circle_Chess_3.jpg,Blue_Star_Dots_4.jpg,right,820.8900000026915,false,high,false
cfD1mp5Z,3b6f54kms5pu5knddy3sw9ki4gws13,3del4x4elay1eri9azlqyo8b91hxy2,cfD1mp5Z,2020-0188,2020-05-07,17:26:41,17:44:53,NA,incomplete,46,color,1,left,Purple_Plus_Dots_1.jpg,Purple_Triangle_Stripes_2.jpg,Blue_Star_Chess_1.jpg,right,599.4849999988219,false,high,false
cfD1mp5Z,3b6f54kms5pu5knddy3sw9ki4gws13,3del4x4elay1eri9azlqyo8b91hxy2,cfD1mp5Z,2020-0188,2020-05-07,17:26:41,17:44:53,NA,incomplete,47,color,0,right,Purple_Star_Grid_2.jpg,Red_Plus_Stripes_2.jpg,Purple_Triangle_Dots_4.jpg,left,668.1200000020908,false,high,false
cfD1mp5Z,3b6f54kms5pu5knddy3sw9ki4gws13,3del4x4elay1eri9azlqyo8b91hxy2,cfD1mp5Z,2020-0188,2020-05-07,17:26:41,17:44:53,NA,incomplete,48,color,1,right,Purple_Plus_Stripes_4.jpg,Green_Circle_Grid_4.jpg,Purple_Star_Chess_3.jpg,left,1151.2450000009267,false,high,false
cfD1mp5Z,3b6f54kms5pu5knddy3sw9ki4gws13,3del4x4elay1eri9azlqyo8b91hxy2,cfD1mp5Z,2020-0188,2020-05-07,17:26:41,17:44:53,NA,incomplete,49,color,1,left,Blue_Star_Dots_4.jpg,Blue_Circle_Stripes_3.jpg,Green_Plus_Grid_4.jpg,left,608.6649999924703,true,high,false
cfD1mp5Z,3b6f54kms5pu5knddy3sw9ki4gws13,3del4x4elay1eri9azlqyo8b91hxy2,cfD1mp5Z,2020-0188,2020-05-07,17:26:41,17:44:53,NA,incomplete,50,number,1,left,Blue_Plus_Stripes_4.jpg,Purple_Triangle_Grid_4.jpg,Blue_Star_Dots_2.jpg,right,803.9399999979651,false,high,false
cfD1mp5Z,3b6f54kms5pu5knddy3sw9ki4gws13,3del4x4elay1eri9azlqyo8b91hxy2,cfD1mp5Z,2020-0188,2020-05-07,17:26:41,17:44:53,NA,incomplete,51,number,1,left,Purple_Plus_Chess_1.jpg,Green_Circle_Stripes_1.jpg,Purple_Star_Dots_4.jpg,right,675.2100000012433,false,high,false
cfD1mp5Z,3b6f54kms5pu5knddy3sw9ki4gws13,3del4x4elay1eri9azlqyo8b91hxy2,cfD1mp5Z,2020-0188,2020-05-07,17:26:41,17:44:53,NA,incomplete,52,number,1,right,Purple_Circle_Chess_2.jpg,Purple_Plus_Stripes_1.jpg,Green_Star_Grid_2.jpg,right,753.6000000109198,true,high,false
cfD1mp5Z,3b6f54kms5pu5knddy3sw9ki4gws13,3del4x4elay1eri9azlqyo8b91hxy2,cfD1mp5Z,2020-0188,2020-05-07,17:26:41,17:44:53,NA,incomplete,53,number,0,right,Green_Circle_Stripes_2.jpg,Green_Triangle_Grid_1.jpg,Red_Star_Dots_2.jpg,right,659.4900000054622,true,high,false
cfD1mp5Z,3b6f54kms5pu5knddy3sw9ki4gws13,3del4x4elay1eri9azlqyo8b91hxy2,cfD1mp5Z,2020-0188,2020-05-07,17:26:41,17:44:53,NA,incomplete,54,number,1,left,Green_Triangle_Stripes_2.jpg,Blue_Star_Grid_2.jpg,Green_Circle_Dots_1.jpg,left,684.9400000064634,true,high,false
cfD1mp5Z,3b6f54kms5pu5knddy3sw9ki4gws13,3del4x4elay1eri9azlqyo8b91hxy2,cfD1mp5Z,2020-0188,2020-05-07,17:26:41,17:44:53,NA,incomplete,55,number,0,right,Green_Circle_Stripes_4.jpg,Green_Star_Grid_1.jpg,Purple_Plus_Dots_4.jpg,right,609.9799999938114,true,high,false
cfD1mp5Z,3b6f54kms5pu5knddy3sw9ki4gws13,3del4x4elay1eri9azlqyo8b91hxy2,cfD1mp5Z,2020-0188,2020-05-07,17:26:41,17:44:53,NA,incomplete,56,number,1,left,Red_Triangle_Grid_2.jpg,Green_Circle_Stripes_2.jpg,Red_Star_Dots_4.jpg,left,612.3899999947753,true,high,false
cfD1mp5Z,3b6f54kms5pu5knddy3sw9ki4gws13,3del4x4elay1eri9azlqyo8b91hxy2,cfD1mp5Z,2020-0188,2020-05-07,17:26:41,17:44:53,NA,incomplete,57,number,1,left,Purple_Circle_Stripes_1.jpg,Blue_Triangle_Dots_1.jpg,Purple_Plus_Grid_2.jpg,left,594.3400000105612,true,high,false
cfD1mp5Z,3b6f54kms5pu5knddy3sw9ki4gws13,3del4x4elay1eri9azlqyo8b91hxy2,cfD1mp5Z,2020-0188,2020-05-07,17:26:41,17:44:53,NA,incomplete,58,number,1,right,Green_Triangle_Stripes_1.jpg,Green_Star_Dots_3.jpg,Red_Circle_Grid_1.jpg,right,604.9400000047171,true,high,false
cfD1mp5Z,3b6f54kms5pu5knddy3sw9ki4gws13,3del4x4elay1eri9azlqyo8b91hxy2,cfD1mp5Z,2020-0188,2020-05-07,17:26:41,17:44:53,NA,incomplete,59,number,1,right,Red_Triangle_Stripes_3.jpg,Red_Plus_Grid_2.jpg,Blue_Star_Chess_3.jpg,right,908.4700000094017,true,high,false
cfD1mp5Z,3b6f54kms5pu5knddy3sw9ki4gws13,3del4x4elay1eri9azlqyo8b91hxy2,cfD1mp5Z,2020-0188,2020-05-07,17:26:41,17:44:53,NA,incomplete,60,color,1,right,Purple_Triangle_Dots_1.jpg,Blue_Star_Grid_1.jpg,Purple_Plus_Stripes_2.jpg,left,650.5049999977928,false,high,false
cfD1mp5Z,3b6f54kms5pu5knddy3sw9ki4gws13,3del4x4elay1eri9azlqyo8b91hxy2,cfD1mp5Z,2020-0188,2020-05-07,17:26:41,17:44:53,NA,incomplete,61,color,1,right,Green_Circle_Grid_4.jpg,Blue_Star_Dots_4.jpg,Green_Triangle_Chess_3.jpg,left,622.8949999931501,false,high,false
cfD1mp5Z,3b6f54kms5pu5knddy3sw9ki4gws13,3del4x4elay1eri9azlqyo8b91hxy2,cfD1mp5Z,2020-0188,2020-05-07,17:26:41,17:44:53,NA,incomplete,62,color,1,left,Red_Triangle_Chess_3.jpg,Red_Plus_Stripes_2.jpg,Blue_Circle_Dots_3.jpg,right,793.2500000024447,false,high,false
cfD1mp5Z,3b6f54kms5pu5knddy3sw9ki4gws13,3del4x4elay1eri9azlqyo8b91hxy2,cfD1mp5Z,2020-0188,2020-05-07,17:26:41,17:44:53,NA,incomplete,63,color,1,right,Blue_Triangle_Grid_4.jpg,Green_Plus_Chess_4.jpg,Blue_Circle_Stripes_1.jpg,right,647.0100000005914,true,high,false
cfD1mp5Z,3b6f54kms5pu5knddy3sw9ki4gws13,3del4x4elay1eri9azlqyo8b91hxy2,cfD1mp5Z,2020-0188,2020-05-07,17:26:41,17:44:53,NA,incomplete,64,color,0,right,Red_Star_Dots_3.jpg,Green_Plus_Stripes_3.jpg,Red_Triangle_Chess_2.jpg,right,983.940000005532,true,high,false
cfD1mp5Z,3b6f54kms5pu5knddy3sw9ki4gws13,3del4x4elay1eri9azlqyo8b91hxy2,cfD1mp5Z,2020-0188,2020-05-07,17:26:41,17:44:53,NA,incomplete,65,color,1,left,Blue_Star_Dots_4.jpg,Blue_Plus_Chess_2.jpg,Red_Circle_Grid_4.jpg,left,721.8350000039209,true,high,false
cfD1mp5Z,3b6f54kms5pu5knddy3sw9ki4gws13,3del4x4elay1eri9azlqyo8b91hxy2,cfD1mp5Z,2020-0188,2020-05-07,17:26:41,17:44:53,NA,incomplete,66,color,0,right,Blue_Plus_Chess_4.jpg,Green_Star_Grid_4.jpg,Blue_Triangle_Dots_2.jpg,right,629.3100000038976,true,high,false
cfD1mp5Z,3b6f54kms5pu5knddy3sw9ki4gws13,3del4x4elay1eri9azlqyo8b91hxy2,cfD1mp5Z,2020-0188,2020-05-07,17:26:41,17:44:53,NA,incomplete,67,color,1,right,Red_Circle_Chess_4.jpg,Purple_Plus_Grid_4.jpg,Red_Triangle_Dots_2.jpg,right,959.4099999958416,true,high,false
cfD1mp5Z,3b6f54kms5pu5knddy3sw9ki4gws13,3del4x4elay1eri9azlqyo8b91hxy2,cfD1mp5Z,2020-0188,2020-05-07,17:26:41,17:44:53,NA,incomplete,68,color,1,left,Blue_Plus_Grid_3.jpg,Blue_Circle_Chess_1.jpg,Red_Star_Dots_3.jpg,left,747.9899999889312,true,high,false
cfD1mp5Z,3b6f54kms5pu5knddy3sw9ki4gws13,3del4x4elay1eri9azlqyo8b91hxy2,cfD1mp5Z,2020-0188,2020-05-07,17:26:41,17:44:53,NA,incomplete,69,color,1,right,Purple_Triangle_Dots_1.jpg,Red_Plus_Stripes_1.jpg,Purple_Circle_Chess_2.jpg,right,598.2150000054389,true,high,false
cfD1mp5Z,3b6f54kms5pu5knddy3sw9ki4gws13,3del4x4elay1eri9azlqyo8b91hxy2,cfD1mp5Z,2020-0188,2020-05-07,17:26:41,17:44:53,NA,incomplete,70,number,1,right,Green_Star_Dots_2.jpg,Green_Triangle_Chess_4.jpg,Purple_Circle_Grid_2.jpg,left,724.0500000043539,false,high,false
cfD1mp5Z,3b6f54kms5pu5knddy3sw9ki4gws13,3del4x4elay1eri9azlqyo8b91hxy2,cfD1mp5Z,2020-0188,2020-05-07,17:26:41,17:44:53,NA,incomplete,71,number,1,left,Red_Plus_Grid_3.jpg,Purple_Triangle_Stripes_3.jpg,Red_Star_Chess_1.jpg,right,494.04499999945983,false,high,false
cfD1mp5Z,3b6f54kms5pu5knddy3sw9ki4gws13,3del4x4elay1eri9azlqyo8b91hxy2,cfD1mp5Z,2020-0188,2020-05-07,17:26:41,17:44:53,NA,incomplete,72,number,1,left,Green_Star_Grid_2.jpg,Purple_Triangle_Chess_2.jpg,Green_Plus_Stripes_3.jpg,right,680.674999995972,false,high,false
cfD1mp5Z,3b6f54kms5pu5knddy3sw9ki4gws13,3del4x4elay1eri9azlqyo8b91hxy2,cfD1mp5Z,2020-0188,2020-05-07,17:26:41,17:44:53,NA,incomplete,73,number,0,left,Purple_Star_Grid_4.jpg,Red_Plus_Stripes_4.jpg,Purple_Triangle_Chess_2.jpg,right,817.8100000077393,false,high,false
cfD1mp5Z,3b6f54kms5pu5knddy3sw9ki4gws13,3del4x4elay1eri9azlqyo8b91hxy2,cfD1mp5Z,2020-0188,2020-05-07,17:26:41,17:44:53,NA,incomplete,74,number,1,right,Red_Circle_Chess_1.jpg,Red_Plus_Grid_2.jpg,Purple_Star_Dots_1.jpg,left,1043.3650000049965,false,high,false
cfD1mp5Z,3b6f54kms5pu5knddy3sw9ki4gws13,3del4x4elay1eri9azlqyo8b91hxy2,cfD1mp5Z,2020-0188,2020-05-07,17:26:41,17:44:53,NA,incomplete,75,number,1,right,Red_Star_Stripes_4.jpg,Red_Plus_Dots_3.jpg,Blue_Circle_Grid_4.jpg,right,696.2099999946076,true,high,false
cfD1mp5Z,3b6f54kms5pu5knddy3sw9ki4gws13,3del4x4elay1eri9azlqyo8b91hxy2,cfD1mp5Z,2020-0188,2020-05-07,17:26:41,17:44:53,NA,incomplete,76,number,1,left,Green_Plus_Stripes_4.jpg,Purple_Circle_Chess_4.jpg,Green_Star_Grid_1.jpg,left,1060.460000007879,true,high,false
cfD1mp5Z,3b6f54kms5pu5knddy3sw9ki4gws13,3del4x4elay1eri9azlqyo8b91hxy2,cfD1mp5Z,2020-0188,2020-05-07,17:26:41,17:44:53,NA,incomplete,77,number,1,left,Red_Star_Stripes_2.jpg,Blue_Plus_Grid_2.jpg,Red_Triangle_Chess_1.jpg,left,729.5499999891035,true,high,false
cfD1mp5Z,3b6f54kms5pu5knddy3sw9ki4gws13,3del4x4elay1eri9azlqyo8b91hxy2,cfD1mp5Z,2020-0188,2020-05-07,17:26:41,17:44:53,NA,incomplete,78,number,1,left,Green_Triangle_Grid_3.jpg,Red_Star_Stripes_3.jpg,Green_Plus_Dots_1.jpg,left,679.0749999927357,true,high,false
cfD1mp5Z,3b6f54kms5pu5knddy3sw9ki4gws13,3del4x4elay1eri9azlqyo8b91hxy2,cfD1mp5Z,2020-0188,2020-05-07,17:26:41,17:44:53,NA,incomplete,79,number,1,right,Blue_Star_Dots_1.jpg,Blue_Plus_Stripes_3.jpg,Green_Circle_Chess_1.jpg,right,1046.135000011418,true,high,false
cfD1mp5Z,3b6f54kms5pu5knddy3sw9ki4gws13,3del4x4elay1eri9azlqyo8b91hxy2,cfD1mp5Z,2020-0188,2020-05-07,17:26:41,17:44:53,NA,incomplete,80,color,1,right,Purple_Circle_Stripes_2.jpg,Green_Star_Grid_2.jpg,Purple_Triangle_Dots_1.jpg,left,575.779999999213,false,high,false
cfD1mp5Z,3b6f54kms5pu5knddy3sw9ki4gws13,3del4x4elay1eri9azlqyo8b91hxy2,cfD1mp5Z,2020-0188,2020-05-07,17:26:41,17:44:53,NA,incomplete,81,color,1,right,Red_Circle_Grid_1.jpg,Purple_Plus_Chess_1.jpg,Red_Star_Dots_2.jpg,left,632.6550000085263,false,high,false
cfD1mp5Z,3b6f54kms5pu5knddy3sw9ki4gws13,3del4x4elay1eri9azlqyo8b91hxy2,cfD1mp5Z,2020-0188,2020-05-07,17:26:41,17:44:53,NA,incomplete,82,color,1,right,Blue_Star_Grid_2.jpg,Green_Circle_Chess_2.jpg,Blue_Plus_Stripes_1.jpg,left,724.0849999943748,false,high,false
cfD1mp5Z,3b6f54kms5pu5knddy3sw9ki4gws13,3del4x4elay1eri9azlqyo8b91hxy2,cfD1mp5Z,2020-0188,2020-05-07,17:26:41,17:44:53,NA,incomplete,83,color,1,right,Red_Star_Dots_1.jpg,Blue_Triangle_Stripes_1.jpg,Red_Circle_Grid_4.jpg,right,755.4249999957392,true,high,false
cfD1mp5Z,3b6f54kms5pu5knddy3sw9ki4gws13,3del4x4elay1eri9azlqyo8b91hxy2,cfD1mp5Z,2020-0188,2020-05-07,17:26:41,17:44:53,NA,incomplete,84,color,1,left,Purple_Triangle_Chess_2.jpg,Purple_Plus_Stripes_3.jpg,Red_Star_Dots_2.jpg,left,786.8100000050617,true,high,false
cfD1mp5Z,3b6f54kms5pu5knddy3sw9ki4gws13,3del4x4elay1eri9azlqyo8b91hxy2,cfD1mp5Z,2020-0188,2020-05-07,17:26:41,17:44:53,NA,incomplete,85,color,1,left,Blue_Plus_Dots_4.jpg,Blue_Circle_Chess_2.jpg,Purple_Triangle_Stripes_4.jpg,left,614.2749999999069,true,high,false
cfD1mp5Z,3b6f54kms5pu5knddy3sw9ki4gws13,3del4x4elay1eri9azlqyo8b91hxy2,cfD1mp5Z,2020-0188,2020-05-07,17:26:41,17:44:53,NA,incomplete,86,color,1,left,Blue_Plus_Stripes_1.jpg,Blue_Star_Chess_2.jpg,Green_Circle_Dots_1.jpg,left,1006.5749999921536,true,high,false
cfD1mp5Z,3b6f54kms5pu5knddy3sw9ki4gws13,3del4x4elay1eri9azlqyo8b91hxy2,cfD1mp5Z,2020-0188,2020-05-07,17:26:41,17:44:53,NA,incomplete,87,color,1,left,Green_Plus_Stripes_4.jpg,Green_Triangle_Chess_3.jpg,Blue_Circle_Grid_4.jpg,left,435.3300000075251,true,high,false
cfD1mp5Z,3b6f54kms5pu5knddy3sw9ki4gws13,3del4x4elay1eri9azlqyo8b91hxy2,cfD1mp5Z,2020-0188,2020-05-07,17:26:41,17:44:53,NA,incomplete,88,color,1,left,Green_Triangle_Dots_4.jpg,Green_Plus_Chess_2.jpg,Purple_Star_Grid_4.jpg,left,559.0599999995902,true,high,false
cfD1mp5Z,3b6f54kms5pu5knddy3sw9ki4gws13,3del4x4elay1eri9azlqyo8b91hxy2,cfD1mp5Z,2020-0188,2020-05-07,17:26:41,17:44:53,NA,incomplete,89,color,1,left,Blue_Star_Grid_2.jpg,Blue_Triangle_Stripes_4.jpg,Purple_Plus_Dots_2.jpg,left,545.7549999991897,true,high,false
cfD1mp5Z,3b6f54kms5pu5knddy3sw9ki4gws13,3del4x4elay1eri9azlqyo8b91hxy2,cfD1mp5Z,2020-0188,2020-05-07,17:26:41,17:44:53,NA,incomplete,90,number,1,right,Green_Circle_Stripes_2.jpg,Green_Star_Chess_3.jpg,Blue_Plus_Grid_2.jpg,left,603.1650000077207,false,high,false
cfD1mp5Z,3b6f54kms5pu5knddy3sw9ki4gws13,3del4x4elay1eri9azlqyo8b91hxy2,cfD1mp5Z,2020-0188,2020-05-07,17:26:41,17:44:53,NA,incomplete,91,number,1,left,Red_Triangle_Dots_1.jpg,Blue_Circle_Stripes_1.jpg,Red_Plus_Chess_3.jpg,right,613.9449999900535,false,high,false
cfD1mp5Z,3b6f54kms5pu5knddy3sw9ki4gws13,3del4x4elay1eri9azlqyo8b91hxy2,cfD1mp5Z,2020-0188,2020-05-07,17:26:41,17:44:53,NA,incomplete,92,number,1,right,Red_Plus_Stripes_1.jpg,Red_Circle_Grid_3.jpg,Blue_Triangle_Dots_1.jpg,left,499.4999999908032,false,high,false
cfD1mp5Z,3b6f54kms5pu5knddy3sw9ki4gws13,3del4x4elay1eri9azlqyo8b91hxy2,cfD1mp5Z,2020-0188,2020-05-07,17:26:41,17:44:53,NA,incomplete,93,number,1,right,Purple_Triangle_Dots_4.jpg,Purple_Star_Grid_1.jpg,Blue_Plus_Chess_4.jpg,right,706.979999988107,true,high,false
cfD1mp5Z,3b6f54kms5pu5knddy3sw9ki4gws13,3del4x4elay1eri9azlqyo8b91hxy2,cfD1mp5Z,2020-0188,2020-05-07,17:26:41,17:44:53,NA,incomplete,94,number,1,right,Green_Star_Grid_1.jpg,Green_Plus_Chess_2.jpg,Blue_Triangle_Dots_1.jpg,right,1180.8050000108778,true,high,false
cfD1mp5Z,3b6f54kms5pu5knddy3sw9ki4gws13,3del4x4elay1eri9azlqyo8b91hxy2,cfD1mp5Z,2020-0188,2020-05-07,17:26:41,17:44:53,NA,incomplete,95,number,1,right,Purple_Plus_Chess_3.jpg,Purple_Star_Stripes_2.jpg,Red_Triangle_Dots_3.jpg,right,695.8750000048894,true,high,false
cfD1mp5Z,3b6f54kms5pu5knddy3sw9ki4gws13,3del4x4elay1eri9azlqyo8b91hxy2,cfD1mp5Z,2020-0188,2020-05-07,17:26:41,17:44:53,NA,incomplete,96,number,1,left,Blue_Circle_Stripes_2.jpg,Purple_Star_Grid_2.jpg,Blue_Plus_Dots_1.jpg,left,824.2349999927683,true,high,false
cfD1mp5Z,3b6f54kms5pu5knddy3sw9ki4gws13,3del4x4elay1eri9azlqyo8b91hxy2,cfD1mp5Z,2020-0188,2020-05-07,17:26:41,17:44:53,NA,incomplete,97,number,0,left,Purple_Triangle_Grid_2.jpg,Red_Star_Dots_2.jpg,Purple_Circle_Stripes_4.jpg,left,742.2349999978906,true,high,false
cfD1mp5Z,3b6f54kms5pu5knddy3sw9ki4gws13,3del4x4elay1eri9azlqyo8b91hxy2,cfD1mp5Z,2020-0188,2020-05-07,17:26:41,17:44:53,NA,incomplete,98,number,1,right,Green_Plus_Dots_2.jpg,Green_Circle_Grid_3.jpg,Blue_Star_Stripes_2.jpg,right,775.2099999925122,true,high,false
cfD1mp5Z,3b6f54kms5pu5knddy3sw9ki4gws13,3del4x4elay1eri9azlqyo8b91hxy2,cfD1mp5Z,2020-0188,2020-05-07,17:26:41,17:44:53,NA,incomplete,99,number,1,right,Blue_Circle_Chess_2.jpg,Blue_Star_Stripes_1.jpg,Red_Plus_Dots_2.jpg,right,762.0050000114134,true,high,false
cfD1mp5Z,3b6f54kms5pu5knddy3sw9ki4gws13,3del4x4elay1eri9azlqyo8b91hxy2,cfD1mp5Z,2020-0188,2020-05-07,17:26:41,17:44:53,NA,incomplete,100,color,1,left,Purple_Triangle_Dots_2.jpg,Purple_Circle_Chess_4.jpg,Red_Plus_Grid_2.jpg,right,758.9799999987008,false,high,false
cfD1mp5Z,3b6f54kms5pu5knddy3sw9ki4gws13,3del4x4elay1eri9azlqyo8b91hxy2,cfD1mp5Z,2020-0188,2020-05-07,17:26:41,17:44:53,NA,incomplete,101,color,1,right,Green_Triangle_Grid_2.jpg,Purple_Plus_Stripes_2.jpg,Green_Circle_Chess_3.jpg,left,811.2500000133878,false,high,false
cfD1mp5Z,3b6f54kms5pu5knddy3sw9ki4gws13,3del4x4elay1eri9azlqyo8b91hxy2,cfD1mp5Z,2020-0188,2020-05-07,17:26:41,17:44:53,NA,incomplete,102,color,1,right,Red_Plus_Stripes_4.jpg,Green_Circle_Dots_4.jpg,Red_Triangle_Grid_2.jpg,right,732.0000000036089,true,high,false
cfD1mp5Z,3b6f54kms5pu5knddy3sw9ki4gws13,3del4x4elay1eri9azlqyo8b91hxy2,cfD1mp5Z,2020-0188,2020-05-07,17:26:41,17:44:53,NA,incomplete,103,color,1,left,Blue_Plus_Grid_2.jpg,Blue_Triangle_Dots_1.jpg,Purple_Circle_Stripes_2.jpg,left,463.3650000032503,true,high,false
cfD1mp5Z,3b6f54kms5pu5knddy3sw9ki4gws13,3del4x4elay1eri9azlqyo8b91hxy2,cfD1mp5Z,2020-0188,2020-05-07,17:26:41,17:44:53,NA,incomplete,104,color,1,left,Green_Circle_Chess_3.jpg,Green_Plus_Grid_2.jpg,Blue_Star_Dots_3.jpg,left,572.1100000082515,true,high,false
cfD1mp5Z,3b6f54kms5pu5knddy3sw9ki4gws13,3del4x4elay1eri9azlqyo8b91hxy2,cfD1mp5Z,2020-0188,2020-05-07,17:26:41,17:44:53,NA,incomplete,105,color,1,right,Red_Circle_Stripes_3.jpg,Blue_Triangle_Chess_3.jpg,Red_Star_Dots_2.jpg,right,601.634999999078,true,high,false
cfD1mp5Z,3b6f54kms5pu5knddy3sw9ki4gws13,3del4x4elay1eri9azlqyo8b91hxy2,cfD1mp5Z,2020-0188,2020-05-07,17:26:41,17:44:53,NA,incomplete,106,color,1,right,Red_Circle_Stripes_1.jpg,Blue_Star_Dots_1.jpg,Red_Triangle_Chess_2.jpg,right,653.2299999962561,true,high,false
cfD1mp5Z,3b6f54kms5pu5knddy3sw9ki4gws13,3del4x4elay1eri9azlqyo8b91hxy2,cfD1mp5Z,2020-0188,2020-05-07,17:26:41,17:44:53,NA,incomplete,107,color,0,left,Green_Circle_Grid_2.jpg,Green_Plus_Stripes_3.jpg,Purple_Star_Dots_2.jpg,left,518.4850000077859,true,high,false
cfD1mp5Z,3b6f54kms5pu5knddy3sw9ki4gws13,3del4x4elay1eri9azlqyo8b91hxy2,cfD1mp5Z,2020-0188,2020-05-07,17:26:41,17:44:53,NA,incomplete,108,color,1,right,Green_Triangle_Chess_2.jpg,Red_Plus_Grid_2.jpg,Green_Star_Stripes_4.jpg,right,527.7950000017881,true,high,false
cfD1mp5Z,3b6f54kms5pu5knddy3sw9ki4gws13,3del4x4elay1eri9azlqyo8b91hxy2,cfD1mp5Z,2020-0188,2020-05-07,17:26:41,17:44:53,NA,incomplete,109,color,1,right,Purple_Plus_Grid_1.jpg,Green_Circle_Chess_1.jpg,Purple_Star_Stripes_4.jpg,right,576.3500000030035,true,high,false
cfD1mp5Z,3b6f54kms5pu5knddy3sw9ki4gws13,3del4x4elay1eri9azlqyo8b91hxy2,cfD1mp5Z,2020-0188,2020-05-07,17:26:41,17:44:53,NA,incomplete,110,number,1,right,Purple_Circle_Grid_4.jpg,Purple_Plus_Dots_1.jpg,Blue_Triangle_Stripes_4.jpg,left,513.6300000012852,false,high,false
cfD1mp5Z,3b6f54kms5pu5knddy3sw9ki4gws13,3del4x4elay1eri9azlqyo8b91hxy2,cfD1mp5Z,2020-0188,2020-05-07,17:26:41,17:44:53,NA,incomplete,111,number,1,right,Blue_Plus_Chess_1.jpg,Blue_Star_Grid_4.jpg,Green_Triangle_Dots_1.jpg,left,704.2150000052061,false,high,false
cfD1mp5Z,3b6f54kms5pu5knddy3sw9ki4gws13,3del4x4elay1eri9azlqyo8b91hxy2,cfD1mp5Z,2020-0188,2020-05-07,17:26:41,17:44:53,NA,incomplete,112,number,0,left,Purple_Circle_Grid_2.jpg,Blue_Plus_Chess_2.jpg,Purple_Triangle_Dots_3.jpg,left,686.4200000127312,true,high,false
cfD1mp5Z,3b6f54kms5pu5knddy3sw9ki4gws13,3del4x4elay1eri9azlqyo8b91hxy2,cfD1mp5Z,2020-0188,2020-05-07,17:26:41,17:44:53,NA,incomplete,113,number,1,right,Red_Circle_Grid_1.jpg,Red_Triangle_Stripes_3.jpg,Purple_Plus_Dots_1.jpg,right,1532.119999988936,true,high,false
cfD1mp5Z,3b6f54kms5pu5knddy3sw9ki4gws13,3del4x4elay1eri9azlqyo8b91hxy2,cfD1mp5Z,2020-0188,2020-05-07,17:26:41,17:44:53,NA,incomplete,114,number,1,right,Red_Triangle_Grid_2.jpg,Red_Plus_Chess_4.jpg,Purple_Circle_Stripes_2.jpg,right,765.5500000109896,true,high,false
cfD1mp5Z,3b6f54kms5pu5knddy3sw9ki4gws13,3del4x4elay1eri9azlqyo8b91hxy2,cfD1mp5Z,2020-0188,2020-05-07,17:26:41,17:44:53,NA,incomplete,115,number,0,right,Purple_Triangle_Grid_4.jpg,Purple_Plus_Chess_3.jpg,Red_Circle_Stripes_4.jpg,right,811.6699999955017,true,high,false
cfD1mp5Z,3b6f54kms5pu5knddy3sw9ki4gws13,3del4x4elay1eri9azlqyo8b91hxy2,cfD1mp5Z,2020-0188,2020-05-07,17:26:41,17:44:53,NA,incomplete,116,number,1,left,Blue_Circle_Dots_1.jpg,Purple_Star_Grid_1.jpg,Blue_Plus_Stripes_4.jpg,left,842.4749999976484,true,high,false
cfD1mp5Z,3b6f54kms5pu5knddy3sw9ki4gws13,3del4x4elay1eri9azlqyo8b91hxy2,cfD1mp5Z,2020-0188,2020-05-07,17:26:41,17:44:53,NA,incomplete,117,number,0,left,Green_Star_Grid_4.jpg,Purple_Triangle_Chess_4.jpg,Green_Circle_Dots_2.jpg,left,679.0599999949336,true,high,false
cfD1mp5Z,3b6f54kms5pu5knddy3sw9ki4gws13,3del4x4elay1eri9azlqyo8b91hxy2,cfD1mp5Z,2020-0188,2020-05-07,17:26:41,17:44:53,NA,incomplete,118,number,0,right,Blue_Star_Chess_1.jpg,Blue_Circle_Dots_3.jpg,Red_Plus_Stripes_1.jpg,right,843.3899999945424,true,high,false
cfD1mp5Z,3b6f54kms5pu5knddy3sw9ki4gws13,3del4x4elay1eri9azlqyo8b91hxy2,cfD1mp5Z,2020-0188,2020-05-07,17:26:41,17:44:53,NA,incomplete,119,number,1,right,Red_Star_Chess_4.jpg,Red_Plus_Grid_1.jpg,Green_Triangle_Stripes_4.jpg,left,638.2999999914318,false,high,false
cfD1mp5Z,3b6f54kms5pu5knddy3sw9ki4gws13,3del4x4elay1eri9azlqyo8b91hxy2,cfD1mp5Z,2020-0188,2020-05-07,17:26:41,17:44:53,NA,incomplete,120,color,1,right,Green_Triangle_Dots_4.jpg,Blue_Star_Stripes_4.jpg,Green_Plus_Chess_1.jpg,right,708.0050000076881,true,high,false
cfD1mp5Z,3b6f54kms5pu5knddy3sw9ki4gws13,3del4x4elay1eri9azlqyo8b91hxy2,cfD1mp5Z,2020-0188,2020-05-07,17:26:41,17:44:53,NA,incomplete,121,color,1,right,Green_Circle_Chess_3.jpg,Purple_Triangle_Stripes_3.jpg,Green_Star_Grid_1.jpg,right,871.7849999957252,true,high,false
cfD1mp5Z,3b6f54kms5pu5knddy3sw9ki4gws13,3del4x4elay1eri9azlqyo8b91hxy2,cfD1mp5Z,2020-0188,2020-05-07,17:26:41,17:44:53,NA,incomplete,122,color,0,right,Purple_Star_Grid_3.jpg,Green_Triangle_Chess_3.jpg,Purple_Plus_Stripes_2.jpg,right,616.3200000009965,true,high,false
cfD1mp5Z,3b6f54kms5pu5knddy3sw9ki4gws13,3del4x4elay1eri9azlqyo8b91hxy2,cfD1mp5Z,2020-0188,2020-05-07,17:26:41,17:44:53,NA,incomplete,123,color,1,right,Red_Circle_Chess_2.jpg,Green_Star_Dots_2.jpg,Red_Triangle_Stripes_4.jpg,left,906.8850000039674,false,high,false
cfD1mp5Z,3b6f54kms5pu5knddy3sw9ki4gws13,3del4x4elay1eri9azlqyo8b91hxy2,cfD1mp5Z,2020-0188,2020-05-07,17:26:41,17:44:53,NA,incomplete,124,color,1,right,Green_Star_Dots_3.jpg,Purple_Plus_Grid_3.jpg,Green_Circle_Stripes_4.jpg,right,679.374999992433,true,high,false
cfD1mp5Z,3b6f54kms5pu5knddy3sw9ki4gws13,3del4x4elay1eri9azlqyo8b91hxy2,cfD1mp5Z,2020-0188,2020-05-07,17:26:41,17:44:53,NA,incomplete,125,color,0,right,Blue_Plus_Grid_3.jpg,Red_Circle_Stripes_3.jpg,Blue_Triangle_Chess_1.jpg,right,676.0300000023562,true,high,false
cfD1mp5Z,3b6f54kms5pu5knddy3sw9ki4gws13,3del4x4elay1eri9azlqyo8b91hxy2,cfD1mp5Z,2020-0188,2020-05-07,17:26:41,17:44:53,NA,incomplete,126,color,1,right,Blue_Circle_Chess_1.jpg,Green_Triangle_Grid_1.jpg,Blue_Plus_Dots_2.jpg,right,565.7199999986915,true,high,false
cfD1mp5Z,3b6f54kms5pu5knddy3sw9ki4gws13,3del4x4elay1eri9azlqyo8b91hxy2,cfD1mp5Z,2020-0188,2020-05-07,17:26:41,17:44:53,NA,incomplete,127,color,1,right,Red_Plus_Chess_2.jpg,Blue_Triangle_Stripes_2.jpg,Red_Star_Dots_1.jpg,right,1094.440000000759,true,high,false
cfD1mp5Z,3b6f54kms5pu5knddy3sw9ki4gws13,3del4x4elay1eri9azlqyo8b91hxy2,cfD1mp5Z,2020-0188,2020-05-07,17:26:41,17:44:53,NA,incomplete,128,color,0,right,Purple_Plus_Dots_2.jpg,Red_Star_Stripes_2.jpg,Purple_Triangle_Grid_1.jpg,right,561.0500000038883,true,high,false
cfD1mp5Z,3b6f54kms5pu5knddy3sw9ki4gws13,3del4x4elay1eri9azlqyo8b91hxy2,cfD1mp5Z,2020-0188,2020-05-07,17:26:41,17:44:53,NA,incomplete,129,color,1,left,Green_Star_Stripes_2.jpg,Green_Triangle_Dots_1.jpg,Purple_Circle_Chess_2.jpg,left,617.9950000077952,true,high,false
cfD1mp5Z,3b6f54kms5pu5knddy3sw9ki4gws13,3del4x4elay1eri9azlqyo8b91hxy2,cfD1mp5Z,2020-0188,2020-05-07,17:26:41,17:44:53,NA,incomplete,130,color,0,right,Green_Circle_Stripes_4.jpg,Purple_Triangle_Chess_4.jpg,Green_Plus_Dots_2.jpg,right,630.3900000057183,true,high,false
cfD1mp5Z,3b6f54kms5pu5knddy3sw9ki4gws13,3del4x4elay1eri9azlqyo8b91hxy2,cfD1mp5Z,2020-0188,2020-05-07,17:26:41,17:44:53,NA,incomplete,131,color,1,right,Purple_Star_Grid_1.jpg,Blue_Plus_Stripes_1.jpg,Purple_Circle_Dots_3.jpg,right,588.4700000024168,true,high,false
cfD1mp5Z,3b6f54kms5pu5knddy3sw9ki4gws13,3del4x4elay1eri9azlqyo8b91hxy2,cfD1mp5Z,2020-0188,2020-05-07,17:26:41,17:44:53,NA,incomplete,132,color,0,right,Purple_Plus_Dots_2.jpg,Red_Circle_Grid_2.jpg,Purple_Star_Chess_4.jpg,right,520.989999989979,true,high,false
cfD1mp5Z,3b6f54kms5pu5knddy3sw9ki4gws13,3del4x4elay1eri9azlqyo8b91hxy2,cfD1mp5Z,2020-0188,2020-05-07,17:26:41,17:44:53,NA,incomplete,133,color,1,right,Blue_Star_Grid_3.jpg,Red_Plus_Stripes_3.jpg,Blue_Triangle_Chess_4.jpg,right,638.4499999985565,true,high,false
cfD1mp5Z,3b6f54kms5pu5knddy3sw9ki4gws13,3del4x4elay1eri9azlqyo8b91hxy2,cfD1mp5Z,2020-0188,2020-05-07,17:26:41,17:44:53,NA,incomplete,134,color,1,right,Red_Triangle_Grid_1.jpg,Green_Circle_Dots_1.jpg,Red_Star_Stripes_2.jpg,right,725.944999998319,true,high,false
cfD1mp5Z,3b6f54kms5pu5knddy3sw9ki4gws13,3del4x4elay1eri9azlqyo8b91hxy2,cfD1mp5Z,2020-0188,2020-05-07,17:26:41,17:44:53,NA,incomplete,135,color,1,right,Red_Triangle_Grid_3.jpg,Purple_Plus_Stripes_3.jpg,Red_Star_Dots_4.jpg,right,570.7350000011502,true,high,false
cfD1mp5Z,3b6f54kms5pu5knddy3sw9ki4gws13,3del4x4elay1eri9azlqyo8b91hxy2,cfD1mp5Z,2020-0188,2020-05-07,17:26:41,17:44:53,NA,incomplete,136,color,1,right,Blue_Triangle_Chess_1.jpg,Red_Star_Grid_1.jpg,Blue_Circle_Dots_3.jpg,right,512.7149999898393,true,high,false
cfD1mp5Z,3b6f54kms5pu5knddy3sw9ki4gws13,3del4x4elay1eri9azlqyo8b91hxy2,cfD1mp5Z,2020-0188,2020-05-07,17:26:41,17:44:53,NA,incomplete,137,color,1,left,Green_Circle_Stripes_2.jpg,Green_Plus_Grid_3.jpg,Blue_Triangle_Chess_2.jpg,left,1254.8950000054901,true,high,false
cfD1mp5Z,3b6f54kms5pu5knddy3sw9ki4gws13,3del4x4elay1eri9azlqyo8b91hxy2,cfD1mp5Z,2020-0188,2020-05-07,17:26:41,17:44:53,NA,incomplete,138,color,1,right,Purple_Triangle_Stripes_3.jpg,Red_Star_Grid_3.jpg,Purple_Plus_Dots_2.jpg,right,533.2199999975273,true,high,false
cfD1mp5Z,3b6f54kms5pu5knddy3sw9ki4gws13,3del4x4elay1eri9azlqyo8b91hxy2,cfD1mp5Z,2020-0188,2020-05-07,17:26:41,17:44:53,NA,incomplete,139,color,1,left,Purple_Circle_Dots_2.jpg,Purple_Star_Stripes_4.jpg,Green_Plus_Grid_2.jpg,left,556.2199999985751,true,high,false
cfD1mp5Z,3b6f54kms5pu5knddy3sw9ki4gws13,3del4x4elay1eri9azlqyo8b91hxy2,cfD1mp5Z,2020-0188,2020-05-07,17:26:41,17:44:53,NA,incomplete,140,number,1,right,Purple_Star_Chess_1.jpg,Purple_Circle_Stripes_2.jpg,Green_Triangle_Dots_1.jpg,left,500.2199999871664,false,high,false
cfD1mp5Z,3b6f54kms5pu5knddy3sw9ki4gws13,3del4x4elay1eri9azlqyo8b91hxy2,cfD1mp5Z,2020-0188,2020-05-07,17:26:41,17:44:53,NA,incomplete,141,number,1,right,Green_Triangle_Grid_1.jpg,Green_Star_Stripes_2.jpg,Purple_Plus_Chess_1.jpg,left,588.9299999980722,false,high,false
cfD1mp5Z,3b6f54kms5pu5knddy3sw9ki4gws13,3del4x4elay1eri9azlqyo8b91hxy2,cfD1mp5Z,2020-0188,2020-05-07,17:26:41,17:44:53,NA,incomplete,142,number,0,right,Purple_Plus_Chess_1.jpg,Purple_Circle_Stripes_2.jpg,Red_Star_Dots_1.jpg,right,1066.7200000025332,true,high,false
cfD1mp5Z,3b6f54kms5pu5knddy3sw9ki4gws13,3del4x4elay1eri9azlqyo8b91hxy2,cfD1mp5Z,2020-0188,2020-05-07,17:26:41,17:44:53,NA,incomplete,143,number,1,left,Red_Star_Chess_2.jpg,Green_Plus_Grid_2.jpg,Red_Circle_Stripes_3.jpg,right,566.145000004326,false,high,false
cfD1mp5Z,3b6f54kms5pu5knddy3sw9ki4gws13,3del4x4elay1eri9azlqyo8b91hxy2,cfD1mp5Z,2020-0188,2020-05-07,17:26:41,17:44:53,NA,incomplete,144,number,1,left,Green_Plus_Dots_1.jpg,Blue_Star_Stripes_1.jpg,Green_Circle_Chess_4.jpg,left,778.6699999996927,true,high,false
cfD1mp5Z,3b6f54kms5pu5knddy3sw9ki4gws13,3del4x4elay1eri9azlqyo8b91hxy2,cfD1mp5Z,2020-0188,2020-05-07,17:26:41,17:44:53,NA,incomplete,145,number,0,left,Purple_Circle_Chess_2.jpg,Green_Star_Stripes_2.jpg,Purple_Triangle_Dots_4.jpg,left,693.7849999958416,true,high,false
cfD1mp5Z,3b6f54kms5pu5knddy3sw9ki4gws13,3del4x4elay1eri9azlqyo8b91hxy2,cfD1mp5Z,2020-0188,2020-05-07,17:26:41,17:44:53,NA,incomplete,146,number,1,left,Red_Star_Grid_1.jpg,Purple_Circle_Stripes_1.jpg,Red_Plus_Chess_2.jpg,left,615.3049999993527,true,high,false
cfD1mp5Z,3b6f54kms5pu5knddy3sw9ki4gws13,3del4x4elay1eri9azlqyo8b91hxy2,cfD1mp5Z,2020-0188,2020-05-07,17:26:41,17:44:53,NA,incomplete,147,number,0,left,Green_Plus_Grid_1.jpg,Purple_Triangle_Stripes_1.jpg,Green_Star_Dots_2.jpg,left,580.1249999931315,true,high,false
cfD1mp5Z,3b6f54kms5pu5knddy3sw9ki4gws13,3del4x4elay1eri9azlqyo8b91hxy2,cfD1mp5Z,2020-0188,2020-05-07,17:26:41,17:44:53,NA,incomplete,148,number,1,left,Red_Plus_Grid_2.jpg,Blue_Circle_Stripes_2.jpg,Red_Triangle_Dots_1.jpg,left,870.7749999884982,true,high,false
cfD1mp5Z,3b6f54kms5pu5knddy3sw9ki4gws13,3del4x4elay1eri9azlqyo8b91hxy2,cfD1mp5Z,2020-0188,2020-05-07,17:26:41,17:44:53,NA,incomplete,149,number,1,right,Blue_Triangle_Dots_1.jpg,Blue_Plus_Chess_3.jpg,Purple_Circle_Stripes_1.jpg,right,713.3000000030734,true,high,false
cfD1mp5Z,3b6f54kms5pu5knddy3sw9ki4gws13,3del4x4elay1eri9azlqyo8b91hxy2,cfD1mp5Z,2020-0188,2020-05-07,17:26:41,17:44:53,NA,incomplete,150,number,1,left,Purple_Triangle_Grid_1.jpg,Green_Circle_Chess_1.jpg,Purple_Plus_Stripes_4.jpg,left,541.1350000067614,true,high,false
cfD1mp5Z,3b6f54kms5pu5knddy3sw9ki4gws13,3del4x4elay1eri9azlqyo8b91hxy2,cfD1mp5Z,2020-0188,2020-05-07,17:26:41,17:44:53,NA,incomplete,151,number,0,left,Purple_Plus_Grid_2.jpg,Blue_Star_Chess_2.jpg,Purple_Triangle_Stripes_3.jpg,left,760.00500000373,true,high,false
cfD1mp5Z,3b6f54kms5pu5knddy3sw9ki4gws13,3del4x4elay1eri9azlqyo8b91hxy2,cfD1mp5Z,2020-0188,2020-05-07,17:26:41,17:44:53,NA,incomplete,152,number,1,left,Blue_Triangle_Stripes_4.jpg,Green_Star_Chess_4.jpg,Blue_Plus_Dots_2.jpg,left,649.6250000054715,true,high,false
cfD1mp5Z,3b6f54kms5pu5knddy3sw9ki4gws13,3del4x4elay1eri9azlqyo8b91hxy2,cfD1mp5Z,2020-0188,2020-05-07,17:26:41,17:44:53,NA,incomplete,153,number,1,left,Green_Plus_Chess_3.jpg,Red_Triangle_Grid_3.jpg,Green_Circle_Dots_2.jpg,left,849.6350000059465,true,high,false
cfD1mp5Z,3b6f54kms5pu5knddy3sw9ki4gws13,3del4x4elay1eri9azlqyo8b91hxy2,cfD1mp5Z,2020-0188,2020-05-07,17:26:41,17:44:53,NA,incomplete,154,number,1,left,Red_Plus_Stripes_2.jpg,Purple_Star_Chess_2.jpg,Red_Triangle_Dots_1.jpg,left,732.1249999949941,true,high,false
cfD1mp5Z,3b6f54kms5pu5knddy3sw9ki4gws13,3del4x4elay1eri9azlqyo8b91hxy2,cfD1mp5Z,2020-0188,2020-05-07,17:26:41,17:44:53,NA,incomplete,155,number,1,right,Red_Circle_Stripes_2.jpg,Red_Star_Chess_1.jpg,Green_Plus_Dots_2.jpg,right,650.1200000056997,true,high,false
cfD1mp5Z,3b6f54kms5pu5knddy3sw9ki4gws13,3del4x4elay1eri9azlqyo8b91hxy2,cfD1mp5Z,2020-0188,2020-05-07,17:26:41,17:44:53,NA,incomplete,156,number,1,left,Red_Plus_Dots_1.jpg,Blue_Triangle_Stripes_1.jpg,Red_Star_Grid_3.jpg,left,770.9499999909895,true,high,false
cfD1mp5Z,3b6f54kms5pu5knddy3sw9ki4gws13,3del4x4elay1eri9azlqyo8b91hxy2,cfD1mp5Z,2020-0188,2020-05-07,17:26:41,17:44:53,NA,incomplete,157,number,1,left,Purple_Circle_Dots_2.jpg,Red_Plus_Stripes_2.jpg,Purple_Star_Chess_3.jpg,left,664.0150000021094,true,high,false
cfD1mp5Z,3b6f54kms5pu5knddy3sw9ki4gws13,3del4x4elay1eri9azlqyo8b91hxy2,cfD1mp5Z,2020-0188,2020-05-07,17:26:41,17:44:53,NA,incomplete,158,number,1,right,Green_Star_Grid_4.jpg,Green_Plus_Chess_1.jpg,Blue_Triangle_Stripes_4.jpg,right,615.990000005695,true,high,false
cfD1mp5Z,3b6f54kms5pu5knddy3sw9ki4gws13,3del4x4elay1eri9azlqyo8b91hxy2,cfD1mp5Z,2020-0188,2020-05-07,17:26:41,17:44:53,NA,incomplete,159,number,1,left,Purple_Triangle_Stripes_3.jpg,Blue_Star_Dots_3.jpg,Purple_Plus_Chess_4.jpg,left,748.7649999966379,true,high,false
cfD1mp5Z,3b6f54kms5pu5knddy3sw9ki4gws13,3del4x4elay1eri9azlqyo8b91hxy2,cfD1mp5Z,2020-0188,2020-05-07,17:26:41,17:44:53,NA,incomplete,160,color,1,left,Green_Star_Dots_3.jpg,Green_Plus_Grid_1.jpg,Purple_Circle_Stripes_3.jpg,right,659.0999999898486,false,high,false
cfD1mp5Z,3b6f54kms5pu5knddy3sw9ki4gws13,3del4x4elay1eri9azlqyo8b91hxy2,cfD1mp5Z,2020-0188,2020-05-07,17:26:41,17:44:53,NA,incomplete,161,color,1,left,Blue_Circle_Grid_3.jpg,Blue_Plus_Stripes_2.jpg,Purple_Star_Dots_3.jpg,right,802.2800000035204,false,high,false
cfD1mp5Z,3b6f54kms5pu5knddy3sw9ki4gws13,3del4x4elay1eri9azlqyo8b91hxy2,cfD1mp5Z,2020-0188,2020-05-07,17:26:41,17:44:53,NA,incomplete,162,color,1,left,Green_Triangle_Grid_4.jpg,Green_Plus_Stripes_2.jpg,Red_Star_Dots_4.jpg,right,702.5399999984074,false,high,false
cfD1mp5Z,3b6f54kms5pu5knddy3sw9ki4gws13,3del4x4elay1eri9azlqyo8b91hxy2,cfD1mp5Z,2020-0188,2020-05-07,17:26:41,17:44:53,NA,incomplete,163,color,0,left,Purple_Triangle_Stripes_2.jpg,Purple_Star_Grid_3.jpg,Blue_Circle_Dots_2.jpg,left,533.0500000127358,true,high,false
cfD1mp5Z,3b6f54kms5pu5knddy3sw9ki4gws13,3del4x4elay1eri9azlqyo8b91hxy2,cfD1mp5Z,2020-0188,2020-05-07,17:26:41,17:44:53,NA,incomplete,164,color,1,left,Green_Circle_Dots_1.jpg,Green_Plus_Stripes_2.jpg,Blue_Star_Grid_1.jpg,left,967.5750000023982,true,high,false
cfD1mp5Z,3b6f54kms5pu5knddy3sw9ki4gws13,3del4x4elay1eri9azlqyo8b91hxy2,cfD1mp5Z,2020-0188,2020-05-07,17:26:41,17:44:53,NA,incomplete,165,color,1,right,Red_Circle_Grid_4.jpg,Purple_Star_Dots_4.jpg,Red_Plus_Chess_3.jpg,right,489.90000000048894,true,high,false
cfD1mp5Z,3b6f54kms5pu5knddy3sw9ki4gws13,3del4x4elay1eri9azlqyo8b91hxy2,cfD1mp5Z,2020-0188,2020-05-07,17:26:41,17:44:53,NA,incomplete,166,color,1,right,Blue_Star_Dots_4.jpg,Green_Plus_Chess_4.jpg,Blue_Triangle_Stripes_3.jpg,right,714.5949999976438,true,high,false
cfD1mp5Z,3b6f54kms5pu5knddy3sw9ki4gws13,3del4x4elay1eri9azlqyo8b91hxy2,cfD1mp5Z,2020-0188,2020-05-07,17:26:41,17:44:53,NA,incomplete,167,color,1,left,Purple_Circle_Chess_1.jpg,Purple_Triangle_Grid_4.jpg,Green_Star_Dots_1.jpg,left,552.6199999876553,true,high,false
cfD1mp5Z,3b6f54kms5pu5knddy3sw9ki4gws13,3del4x4elay1eri9azlqyo8b91hxy2,cfD1mp5Z,2020-0188,2020-05-07,17:26:41,17:44:53,NA,incomplete,168,color,1,left,Red_Triangle_Dots_1.jpg,Red_Circle_Stripes_4.jpg,Purple_Star_Chess_1.jpg,left,678.5450000024866,true,high,false
cfD1mp5Z,3b6f54kms5pu5knddy3sw9ki4gws13,3del4x4elay1eri9azlqyo8b91hxy2,cfD1mp5Z,2020-0188,2020-05-07,17:26:41,17:44:53,NA,incomplete,169,color,1,left,Purple_Triangle_Dots_3.jpg,Purple_Plus_Grid_1.jpg,Green_Star_Stripes_3.jpg,left,529.8249999905238,true,high,false
cfD1mp5Z,3b6f54kms5pu5knddy3sw9ki4gws13,3del4x4elay1eri9azlqyo8b91hxy2,cfD1mp5Z,2020-0188,2020-05-07,17:26:41,17:44:53,NA,incomplete,170,color,0,right,Green_Star_Chess_4.jpg,Purple_Triangle_Dots_4.jpg,Green_Circle_Stripes_2.jpg,right,833.0450000066776,true,high,false
cfD1mp5Z,3b6f54kms5pu5knddy3sw9ki4gws13,3del4x4elay1eri9azlqyo8b91hxy2,cfD1mp5Z,2020-0188,2020-05-07,17:26:41,17:44:53,NA,incomplete,171,color,1,left,Blue_Triangle_Dots_2.jpg,Blue_Circle_Stripes_4.jpg,Green_Plus_Chess_2.jpg,left,506.11500001105014,true,high,false
cfD1mp5Z,3b6f54kms5pu5knddy3sw9ki4gws13,3del4x4elay1eri9azlqyo8b91hxy2,cfD1mp5Z,2020-0188,2020-05-07,17:26:41,17:44:53,NA,incomplete,172,color,1,left,Green_Plus_Grid_3.jpg,Green_Triangle_Chess_1.jpg,Blue_Star_Stripes_3.jpg,left,570.4449999902863,true,high,false
cfD1mp5Z,3b6f54kms5pu5knddy3sw9ki4gws13,3del4x4elay1eri9azlqyo8b91hxy2,cfD1mp5Z,2020-0188,2020-05-07,17:26:41,17:44:53,NA,incomplete,173,color,0,right,Purple_Circle_Stripes_3.jpg,Blue_Star_Grid_3.jpg,Purple_Triangle_Dots_2.jpg,right,477.82500000903383,true,high,false
cfD1mp5Z,3b6f54kms5pu5knddy3sw9ki4gws13,3del4x4elay1eri9azlqyo8b91hxy2,cfD1mp5Z,2020-0188,2020-05-07,17:26:41,17:44:53,NA,incomplete,174,color,1,left,Red_Triangle_Grid_3.jpg,Red_Plus_Dots_1.jpg,Purple_Star_Stripes_3.jpg,left,589.3099999957485,true,high,false
cfD1mp5Z,3b6f54kms5pu5knddy3sw9ki4gws13,3del4x4elay1eri9azlqyo8b91hxy2,cfD1mp5Z,2020-0188,2020-05-07,17:26:41,17:44:53,NA,incomplete,175,color,1,left,Red_Star_Stripes_2.jpg,Red_Plus_Chess_1.jpg,Blue_Circle_Grid_2.jpg,left,567.285000011907,true,high,false
cfD1mp5Z,3b6f54kms5pu5knddy3sw9ki4gws13,3del4x4elay1eri9azlqyo8b91hxy2,cfD1mp5Z,2020-0188,2020-05-07,17:26:41,17:44:53,NA,incomplete,176,color,1,right,Blue_Circle_Dots_3.jpg,Purple_Plus_Stripes_3.jpg,Blue_Triangle_Grid_1.jpg,right,500.04499999340624,true,high,false
cfD1mp5Z,3b6f54kms5pu5knddy3sw9ki4gws13,3del4x4elay1eri9azlqyo8b91hxy2,cfD1mp5Z,2020-0188,2020-05-07,17:26:41,17:44:53,NA,incomplete,177,color,0,left,Blue_Star_Chess_3.jpg,Blue_Circle_Dots_2.jpg,Purple_Plus_Stripes_3.jpg,left,587.7949999994598,true,high,false
cfD1mp5Z,3b6f54kms5pu5knddy3sw9ki4gws13,3del4x4elay1eri9azlqyo8b91hxy2,cfD1mp5Z,2020-0188,2020-05-07,17:26:41,17:44:53,NA,incomplete,178,color,1,left,Blue_Circle_Dots_4.jpg,Blue_Triangle_Grid_1.jpg,Purple_Star_Stripes_4.jpg,left,510.58000000193715,true,high,false
cfD1mp5Z,3b6f54kms5pu5knddy3sw9ki4gws13,3del4x4elay1eri9azlqyo8b91hxy2,cfD1mp5Z,2020-0188,2020-05-07,17:26:41,17:44:53,NA,incomplete,179,color,0,right,Red_Circle_Chess_2.jpg,Green_Triangle_Stripes_2.jpg,Red_Star_Dots_3.jpg,right,468.38500000012573,true,high,false
cfD1mp5Z,3b6f54kms5pu5knddy3sw9ki4gws13,3del4x4elay1eri9azlqyo8b91hxy2,cfD1mp5Z,2020-0188,2020-05-07,17:26:41,17:44:53,NA,incomplete,180,number,1,right,Red_Plus_Chess_2.jpg,Red_Triangle_Stripes_3.jpg,Blue_Star_Dots_2.jpg,left,529.3599999858998,false,high,false
cfD1mp5Z,3b6f54kms5pu5knddy3sw9ki4gws13,3del4x4elay1eri9azlqyo8b91hxy2,cfD1mp5Z,2020-0188,2020-05-07,17:26:41,17:44:53,NA,incomplete,181,number,1,right,Red_Star_Grid_3.jpg,Red_Triangle_Dots_4.jpg,Purple_Plus_Chess_3.jpg,right,710.6800000037765,true,high,false
cfD1mp5Z,3b6f54kms5pu5knddy3sw9ki4gws13,3del4x4elay1eri9azlqyo8b91hxy2,cfD1mp5Z,2020-0188,2020-05-07,17:26:41,17:44:53,NA,incomplete,182,number,1,right,Green_Star_Dots_2.jpg,Green_Circle_Stripes_1.jpg,Purple_Triangle_Grid_2.jpg,right,682.0749999897089,true,high,false
cfD1mp5Z,3b6f54kms5pu5knddy3sw9ki4gws13,3del4x4elay1eri9azlqyo8b91hxy2,cfD1mp5Z,2020-0188,2020-05-07,17:26:41,17:44:53,NA,incomplete,183,number,1,right,Blue_Star_Stripes_1.jpg,Blue_Plus_Chess_2.jpg,Green_Circle_Grid_1.jpg,right,658.4299999958603,true,high,false
cfD1mp5Z,3b6f54kms5pu5knddy3sw9ki4gws13,3del4x4elay1eri9azlqyo8b91hxy2,cfD1mp5Z,2020-0188,2020-05-07,17:26:41,17:44:53,NA,incomplete,184,number,1,left,Purple_Star_Chess_3.jpg,Blue_Circle_Dots_3.jpg,Purple_Plus_Grid_2.jpg,left,786.6650000069058,true,high,false
cfD1mp5Z,3b6f54kms5pu5knddy3sw9ki4gws13,3del4x4elay1eri9azlqyo8b91hxy2,cfD1mp5Z,2020-0188,2020-05-07,17:26:41,17:44:53,NA,incomplete,185,number,1,left,Purple_Star_Dots_3.jpg,Red_Circle_Chess_3.jpg,Purple_Triangle_Stripes_1.jpg,left,787.9099999991013,true,high,false
cfD1mp5Z,3b6f54kms5pu5knddy3sw9ki4gws13,3del4x4elay1eri9azlqyo8b91hxy2,cfD1mp5Z,2020-0188,2020-05-07,17:26:41,17:44:53,NA,incomplete,186,number,0,left,Green_Triangle_Grid_4.jpg,Purple_Plus_Chess_4.jpg,Green_Star_Stripes_3.jpg,left,1224.289999998291,true,high,false
cfD1mp5Z,3b6f54kms5pu5knddy3sw9ki4gws13,3del4x4elay1eri9azlqyo8b91hxy2,cfD1mp5Z,2020-0188,2020-05-07,17:26:41,17:44:53,NA,incomplete,187,number,1,right,Blue_Circle_Grid_4.jpg,Blue_Plus_Dots_2.jpg,Red_Star_Chess_4.jpg,right,743.9500000036787,true,high,false
cfD1mp5Z,3b6f54kms5pu5knddy3sw9ki4gws13,3del4x4elay1eri9azlqyo8b91hxy2,cfD1mp5Z,2020-0188,2020-05-07,17:26:41,17:44:53,NA,incomplete,188,number,1,right,Blue_Circle_Grid_4.jpg,Blue_Plus_Stripes_2.jpg,Green_Star_Dots_4.jpg,right,715.2099999948405,true,high,false
cfD1mp5Z,3b6f54kms5pu5knddy3sw9ki4gws13,3del4x4elay1eri9azlqyo8b91hxy2,cfD1mp5Z,2020-0188,2020-05-07,17:26:41,17:44:53,NA,incomplete,189,number,1,left,Blue_Triangle_Dots_4.jpg,Green_Plus_Grid_4.jpg,Blue_Star_Chess_1.jpg,left,591.2249999964843,true,high,false
cfD1mp5Z,3b6f54kms5pu5knddy3sw9ki4gws13,3del4x4elay1eri9azlqyo8b91hxy2,cfD1mp5Z,2020-0188,2020-05-07,17:26:41,17:44:53,NA,incomplete,190,number,1,left,Purple_Circle_Dots_2.jpg,Blue_Triangle_Grid_2.jpg,Purple_Star_Stripes_1.jpg,left,699.6999999973923,true,high,false
cfD1mp5Z,3b6f54kms5pu5knddy3sw9ki4gws13,3del4x4elay1eri9azlqyo8b91hxy2,cfD1mp5Z,2020-0188,2020-05-07,17:26:41,17:44:53,NA,incomplete,191,number,1,left,Blue_Triangle_Chess_3.jpg,Green_Plus_Grid_3.jpg,Blue_Circle_Dots_2.jpg,left,788.0199999926845,true,high,false
cfD1mp5Z,3b6f54kms5pu5knddy3sw9ki4gws13,3del4x4elay1eri9azlqyo8b91hxy2,cfD1mp5Z,2020-0188,2020-05-07,17:26:41,17:44:53,NA,incomplete,192,number,0,right,Blue_Star_Chess_3.jpg,Blue_Triangle_Dots_4.jpg,Purple_Circle_Grid_3.jpg,right,762.3999999923399,true,high,false
cfD1mp5Z,3b6f54kms5pu5knddy3sw9ki4gws13,3del4x4elay1eri9azlqyo8b91hxy2,cfD1mp5Z,2020-0188,2020-05-07,17:26:41,17:44:53,NA,incomplete,193,number,1,left,Green_Circle_Grid_4.jpg,Purple_Triangle_Chess_4.jpg,Green_Plus_Dots_2.jpg,left,1042.5850000028731,true,high,false
cfD1mp5Z,3b6f54kms5pu5knddy3sw9ki4gws13,3del4x4elay1eri9azlqyo8b91hxy2,cfD1mp5Z,2020-0188,2020-05-07,17:26:41,17:44:53,NA,incomplete,194,number,1,right,Purple_Triangle_Stripes_4.jpg,Purple_Plus_Grid_2.jpg,Green_Star_Dots_4.jpg,right,695.4600000026403,true,high,false
cfD1mp5Z,3b6f54kms5pu5knddy3sw9ki4gws13,3del4x4elay1eri9azlqyo8b91hxy2,cfD1mp5Z,2020-0188,2020-05-07,17:26:41,17:44:53,NA,incomplete,195,number,0,left,Blue_Star_Grid_1.jpg,Green_Triangle_Chess_1.jpg,Blue_Circle_Stripes_4.jpg,left,602.4749999924097,true,high,false
cfD1mp5Z,3b6f54kms5pu5knddy3sw9ki4gws13,3del4x4elay1eri9azlqyo8b91hxy2,cfD1mp5Z,2020-0188,2020-05-07,17:26:41,17:44:53,NA,incomplete,196,number,1,left,Blue_Plus_Stripes_2.jpg,Green_Circle_Grid_2.jpg,Blue_Star_Dots_3.jpg,left,637.5200000038603,true,high,false
cfD1mp5Z,3b6f54kms5pu5knddy3sw9ki4gws13,3del4x4elay1eri9azlqyo8b91hxy2,cfD1mp5Z,2020-0188,2020-05-07,17:26:41,17:44:53,NA,incomplete,197,number,1,left,Purple_Triangle_Stripes_4.jpg,Blue_Plus_Dots_4.jpg,Purple_Star_Grid_3.jpg,left,698.8949999940814,true,high,false
cfD1mp5Z,3b6f54kms5pu5knddy3sw9ki4gws13,3del4x4elay1eri9azlqyo8b91hxy2,cfD1mp5Z,2020-0188,2020-05-07,17:26:41,17:44:53,NA,incomplete,198,number,1,left,Red_Circle_Chess_3.jpg,Green_Plus_Stripes_3.jpg,Red_Star_Dots_4.jpg,left,860.8449999883305,true,high,false
cfD1mp5Z,3b6f54kms5pu5knddy3sw9ki4gws13,3del4x4elay1eri9azlqyo8b91hxy2,cfD1mp5Z,2020-0188,2020-05-07,17:26:41,17:44:53,NA,incomplete,199,number,1,left,Red_Star_Stripes_3.jpg,Green_Circle_Chess_3.jpg,Red_Plus_Dots_2.jpg,left,1227.3949999944307,true,high,false
cfD1mp5Z,3b6f54kms5pu5knddy3sw9ki4gws13,3del4x4elay1eri9azlqyo8b91hxy2,cfD1mp5Z,2020-0188,2020-05-07,17:26:41,17:44:53,NA,incomplete,200,color,1,right,Red_Plus_Dots_3.jpg,Blue_Triangle_Chess_3.jpg,Red_Circle_Grid_4.jpg,left,632.1899999893503,false,high,false
cfD1mp5Z,3b6f54kms5pu5knddy3sw9ki4gws13,3del4x4elay1eri9azlqyo8b91hxy2,cfD1mp5Z,2020-0188,2020-05-07,17:26:41,17:44:53,NA,incomplete,201,color,1,left,Purple_Plus_Grid_3.jpg,Purple_Star_Dots_2.jpg,Red_Circle_Chess_3.jpg,right,719.5599999977276,false,high,false
cfD1mp5Z,3b6f54kms5pu5knddy3sw9ki4gws13,3del4x4elay1eri9azlqyo8b91hxy2,cfD1mp5Z,2020-0188,2020-05-07,17:26:41,17:44:53,NA,incomplete,202,color,1,left,Red_Circle_Grid_3.jpg,Red_Plus_Chess_2.jpg,Green_Star_Dots_3.jpg,left,740.2350000047591,true,high,false
cfD1mp5Z,3b6f54kms5pu5knddy3sw9ki4gws13,3del4x4elay1eri9azlqyo8b91hxy2,cfD1mp5Z,2020-0188,2020-05-07,17:26:41,17:44:53,NA,incomplete,203,color,1,left,Purple_Triangle_Stripes_2.jpg,Purple_Circle_Grid_1.jpg,Green_Plus_Dots_2.jpg,left,632.8900000080466,true,high,false
cfD1mp5Z,3b6f54kms5pu5knddy3sw9ki4gws13,3del4x4elay1eri9azlqyo8b91hxy2,cfD1mp5Z,2020-0188,2020-05-07,17:26:41,17:44:53,NA,incomplete,204,color,1,left,Blue_Plus_Chess_3.jpg,Blue_Circle_Dots_4.jpg,Red_Triangle_Grid_3.jpg,left,797.0900000073016,true,high,false
cfD1mp5Z,3b6f54kms5pu5knddy3sw9ki4gws13,3del4x4elay1eri9azlqyo8b91hxy2,cfD1mp5Z,2020-0188,2020-05-07,17:26:41,17:44:53,NA,incomplete,205,color,1,right,Blue_Star_Stripes_2.jpg,Purple_Plus_Grid_2.jpg,Blue_Circle_Chess_3.jpg,right,489.23000000650063,true,high,false
cfD1mp5Z,3b6f54kms5pu5knddy3sw9ki4gws13,3del4x4elay1eri9azlqyo8b91hxy2,cfD1mp5Z,2020-0188,2020-05-07,17:26:41,17:44:53,NA,incomplete,206,color,1,right,Blue_Circle_Dots_2.jpg,Green_Triangle_Grid_2.jpg,Blue_Plus_Chess_4.jpg,right,515.4949999996461,true,high,false
cfD1mp5Z,3b6f54kms5pu5knddy3sw9ki4gws13,3del4x4elay1eri9azlqyo8b91hxy2,cfD1mp5Z,2020-0188,2020-05-07,17:26:41,17:44:53,NA,incomplete,207,color,0,right,Blue_Plus_Grid_1.jpg,Red_Triangle_Dots_1.jpg,Blue_Circle_Chess_2.jpg,right,526.1600000085309,true,high,false
cfD1mp5Z,3b6f54kms5pu5knddy3sw9ki4gws13,3del4x4elay1eri9azlqyo8b91hxy2,cfD1mp5Z,2020-0188,2020-05-07,17:26:41,17:44:53,NA,incomplete,208,color,1,left,Purple_Plus_Dots_2.jpg,Purple_Star_Stripes_1.jpg,Green_Triangle_Chess_2.jpg,left,472.26000000955537,true,high,false
cfD1mp5Z,3b6f54kms5pu5knddy3sw9ki4gws13,3del4x4elay1eri9azlqyo8b91hxy2,cfD1mp5Z,2020-0188,2020-05-07,17:26:41,17:44:53,NA,incomplete,209,color,1,right,Purple_Plus_Stripes_2.jpg,Green_Circle_Grid_2.jpg,Purple_Triangle_Dots_1.jpg,right,473.1350000074599,true,high,false
cfD1mp5Z,3b6f54kms5pu5knddy3sw9ki4gws13,3del4x4elay1eri9azlqyo8b91hxy2,cfD1mp5Z,2020-0188,2020-05-07,17:26:41,17:44:53,NA,incomplete,210,color,1,right,Green_Triangle_Stripes_1.jpg,Purple_Circle_Dots_1.jpg,Green_Plus_Chess_4.jpg,right,654.4100000028266,true,high,false
cfD1mp5Z,3b6f54kms5pu5knddy3sw9ki4gws13,3del4x4elay1eri9azlqyo8b91hxy2,cfD1mp5Z,2020-0188,2020-05-07,17:26:41,17:44:53,NA,incomplete,211,color,1,right,Blue_Plus_Chess_2.jpg,Green_Triangle_Grid_2.jpg,Blue_Star_Dots_1.jpg,right,471.31500000250526,true,high,false
cfD1mp5Z,3b6f54kms5pu5knddy3sw9ki4gws13,3del4x4elay1eri9azlqyo8b91hxy2,cfD1mp5Z,2020-0188,2020-05-07,17:26:41,17:44:53,NA,incomplete,212,color,1,left,Red_Plus_Chess_3.jpg,Red_Star_Stripes_1.jpg,Blue_Circle_Grid_3.jpg,left,460.31500000390224,true,high,false
cfD1mp5Z,3b6f54kms5pu5knddy3sw9ki4gws13,3del4x4elay1eri9azlqyo8b91hxy2,cfD1mp5Z,2020-0188,2020-05-07,17:26:41,17:44:53,NA,incomplete,213,color,0,left,Red_Triangle_Chess_4.jpg,Red_Circle_Stripes_3.jpg,Purple_Star_Dots_4.jpg,left,578.9300000033109,true,high,false
cfD1mp5Z,3b6f54kms5pu5knddy3sw9ki4gws13,3del4x4elay1eri9azlqyo8b91hxy2,cfD1mp5Z,2020-0188,2020-05-07,17:26:41,17:44:53,NA,incomplete,214,color,1,left,Purple_Star_Chess_4.jpg,Purple_Plus_Stripes_2.jpg,Blue_Triangle_Grid_4.jpg,left,519.0200000070035,true,high,false
cfD1mp5Z,3b6f54kms5pu5knddy3sw9ki4gws13,3del4x4elay1eri9azlqyo8b91hxy2,cfD1mp5Z,2020-0188,2020-05-07,17:26:41,17:44:53,NA,incomplete,215,color,1,left,Red_Plus_Chess_1.jpg,Red_Triangle_Grid_4.jpg,Blue_Star_Stripes_1.jpg,left,486.5250000002561,true,high,false
cfD1mp5Z,3b6f54kms5pu5knddy3sw9ki4gws13,3del4x4elay1eri9azlqyo8b91hxy2,cfD1mp5Z,2020-0188,2020-05-07,17:26:41,17:44:53,NA,incomplete,216,color,1,left,Purple_Circle_Chess_2.jpg,Purple_Star_Stripes_4.jpg,Red_Plus_Dots_2.jpg,left,595.8649999956833,true,high,false
cfD1mp5Z,3b6f54kms5pu5knddy3sw9ki4gws13,3del4x4elay1eri9azlqyo8b91hxy2,cfD1mp5Z,2020-0188,2020-05-07,17:26:41,17:44:53,NA,incomplete,217,color,0,left,Purple_Circle_Stripes_1.jpg,Purple_Plus_Chess_3.jpg,Green_Star_Grid_1.jpg,left,463.6049999971874,true,high,false
cfD1mp5Z,3b6f54kms5pu5knddy3sw9ki4gws13,3del4x4elay1eri9azlqyo8b91hxy2,cfD1mp5Z,2020-0188,2020-05-07,17:26:41,17:44:53,NA,incomplete,218,color,1,right,Green_Star_Grid_1.jpg,Blue_Plus_Chess_1.jpg,Green_Triangle_Dots_2.jpg,right,457.8499999915948,true,high,false
cfD1mp5Z,3b6f54kms5pu5knddy3sw9ki4gws13,3del4x4elay1eri9azlqyo8b91hxy2,cfD1mp5Z,2020-0188,2020-05-07,17:26:41,17:44:53,NA,incomplete,219,color,1,left,Red_Circle_Dots_3.jpg,Red_Star_Stripes_2.jpg,Green_Plus_Grid_3.jpg,left,524.3300000001909,true,high,false
cfD1mp5Z,3b6f54kms5pu5knddy3sw9ki4gws13,3del4x4elay1eri9azlqyo8b91hxy2,cfD1mp5Z,2020-0188,2020-05-07,17:26:41,17:44:53,NA,incomplete,220,number,1,right,Blue_Star_Stripes_2.jpg,Blue_Triangle_Grid_4.jpg,Red_Plus_Dots_2.jpg,left,500.53000000480097,false,high,false
cfD1mp5Z,3b6f54kms5pu5knddy3sw9ki4gws13,3del4x4elay1eri9azlqyo8b91hxy2,cfD1mp5Z,2020-0188,2020-05-07,17:26:41,17:44:53,NA,incomplete,221,number,0,right,Red_Plus_Chess_1.jpg,Red_Triangle_Stripes_4.jpg,Blue_Star_Dots_1.jpg,left,602.759999994305,false,high,false
cfD1mp5Z,3b6f54kms5pu5knddy3sw9ki4gws13,3del4x4elay1eri9azlqyo8b91hxy2,cfD1mp5Z,2020-0188,2020-05-07,17:26:41,17:44:53,NA,incomplete,222,number,1,right,Red_Circle_Dots_4.jpg,Red_Triangle_Chess_1.jpg,Blue_Star_Grid_4.jpg,left,621.4850000105798,false,high,false
cfD1mp5Z,3b6f54kms5pu5knddy3sw9ki4gws13,3del4x4elay1eri9azlqyo8b91hxy2,cfD1mp5Z,2020-0188,2020-05-07,17:26:41,17:44:53,NA,incomplete,223,number,0,left,Green_Star_Stripes_1.jpg,Purple_Plus_Dots_1.jpg,Green_Circle_Chess_3.jpg,right,467.38999999070074,false,high,false
cfD1mp5Z,3b6f54kms5pu5knddy3sw9ki4gws13,3del4x4elay1eri9azlqyo8b91hxy2,cfD1mp5Z,2020-0188,2020-05-07,17:26:41,17:44:53,NA,incomplete,224,number,1,right,Purple_Plus_Stripes_2.jpg,Purple_Star_Chess_3.jpg,Blue_Circle_Dots_2.jpg,left,502.5000000023283,false,high,false
cfD1mp5Z,3b6f54kms5pu5knddy3sw9ki4gws13,3del4x4elay1eri9azlqyo8b91hxy2,cfD1mp5Z,2020-0188,2020-05-07,17:26:41,17:44:53,NA,incomplete,225,number,1,left,Green_Plus_Grid_3.jpg,Purple_Circle_Dots_3.jpg,Green_Star_Chess_4.jpg,right,483.15499999444,false,high,false
cfD1mp5Z,3b6f54kms5pu5knddy3sw9ki4gws13,3del4x4elay1eri9azlqyo8b91hxy2,cfD1mp5Z,2020-0188,2020-05-07,17:26:41,17:44:53,NA,incomplete,226,number,1,left,Red_Plus_Chess_2.jpg,Green_Triangle_Dots_2.jpg,Red_Star_Grid_4.jpg,left,688.655000005383,true,high,false
cfD1mp5Z,3b6f54kms5pu5knddy3sw9ki4gws13,3del4x4elay1eri9azlqyo8b91hxy2,cfD1mp5Z,2020-0188,2020-05-07,17:26:41,17:44:53,NA,incomplete,227,number,1,left,Purple_Circle_Stripes_4.jpg,Green_Star_Chess_4.jpg,Purple_Plus_Dots_1.jpg,left,703.5250000044471,true,high,false
cfD1mp5Z,3b6f54kms5pu5knddy3sw9ki4gws13,3del4x4elay1eri9azlqyo8b91hxy2,cfD1mp5Z,2020-0188,2020-05-07,17:26:41,17:44:53,NA,incomplete,228,number,1,right,Red_Circle_Stripes_4.jpg,Red_Star_Dots_2.jpg,Blue_Triangle_Chess_4.jpg,right,683.1050000037067,true,high,false
cfD1mp5Z,3b6f54kms5pu5knddy3sw9ki4gws13,3del4x4elay1eri9azlqyo8b91hxy2,cfD1mp5Z,2020-0188,2020-05-07,17:26:41,17:44:53,NA,incomplete,229,number,1,right,Purple_Circle_Stripes_1.jpg,Purple_Plus_Dots_4.jpg,Red_Star_Chess_1.jpg,left,590.6550000072457,false,high,false
cfD1mp5Z,3b6f54kms5pu5knddy3sw9ki4gws13,3del4x4elay1eri9azlqyo8b91hxy2,cfD1mp5Z,2020-0188,2020-05-07,17:26:41,17:44:53,NA,incomplete,230,number,0,right,Purple_Star_Dots_1.jpg,Purple_Triangle_Grid_3.jpg,Red_Circle_Chess_1.jpg,right,694.4999999977881,true,high,false
cfD1mp5Z,3b6f54kms5pu5knddy3sw9ki4gws13,3del4x4elay1eri9azlqyo8b91hxy2,cfD1mp5Z,2020-0188,2020-05-07,17:26:41,17:44:53,NA,incomplete,231,number,1,left,Red_Triangle_Stripes_4.jpg,Purple_Star_Dots_4.jpg,Red_Circle_Grid_3.jpg,left,731.6850000061095,true,high,false
cfD1mp5Z,3b6f54kms5pu5knddy3sw9ki4gws13,3del4x4elay1eri9azlqyo8b91hxy2,cfD1mp5Z,2020-0188,2020-05-07,17:26:41,17:44:53,NA,incomplete,232,number,0,right,Red_Triangle_Chess_1.jpg,Red_Star_Stripes_3.jpg,Green_Circle_Grid_1.jpg,right,589.9399999907473,true,high,false
cfD1mp5Z,3b6f54kms5pu5knddy3sw9ki4gws13,3del4x4elay1eri9azlqyo8b91hxy2,cfD1mp5Z,2020-0188,2020-05-07,17:26:41,17:44:53,NA,incomplete,233,number,1,left,Purple_Triangle_Dots_3.jpg,Green_Star_Grid_3.jpg,Purple_Plus_Stripes_4.jpg,left,753.7349999911385,true,high,false
cfD1mp5Z,3b6f54kms5pu5knddy3sw9ki4gws13,3del4x4elay1eri9azlqyo8b91hxy2,cfD1mp5Z,2020-0188,2020-05-07,17:26:41,17:44:53,NA,incomplete,234,number,1,left,Purple_Triangle_Chess_1.jpg,Green_Circle_Stripes_1.jpg,Purple_Star_Dots_3.jpg,left,585.7199999882141,true,high,false
cfD1mp5Z,3b6f54kms5pu5knddy3sw9ki4gws13,3del4x4elay1eri9azlqyo8b91hxy2,cfD1mp5Z,2020-0188,2020-05-07,17:26:41,17:44:53,NA,incomplete,235,number,1,right,Purple_Plus_Grid_2.jpg,Purple_Star_Dots_3.jpg,Red_Triangle_Stripes_2.jpg,right,581.8250000011176,true,high,false
cfD1mp5Z,3b6f54kms5pu5knddy3sw9ki4gws13,3del4x4elay1eri9azlqyo8b91hxy2,cfD1mp5Z,2020-0188,2020-05-07,17:26:41,17:44:53,NA,incomplete,236,number,1,left,Blue_Circle_Stripes_1.jpg,Purple_Plus_Grid_1.jpg,Blue_Triangle_Dots_4.jpg,left,662.8150000033202,true,high,false
cfD1mp5Z,3b6f54kms5pu5knddy3sw9ki4gws13,3del4x4elay1eri9azlqyo8b91hxy2,cfD1mp5Z,2020-0188,2020-05-07,17:26:41,17:44:53,NA,incomplete,237,number,1,left,Green_Circle_Grid_2.jpg,Red_Star_Chess_2.jpg,Green_Plus_Dots_4.jpg,left,697.6849999919068,true,high,false
cfD1mp5Z,3b6f54kms5pu5knddy3sw9ki4gws13,3del4x4elay1eri9azlqyo8b91hxy2,cfD1mp5Z,2020-0188,2020-05-07,17:26:41,17:44:53,NA,incomplete,238,number,1,left,Purple_Star_Grid_1.jpg,Blue_Plus_Chess_1.jpg,Purple_Triangle_Dots_3.jpg,left,614.7750000091037,true,high,false
cfD1mp5Z,3b6f54kms5pu5knddy3sw9ki4gws13,3del4x4elay1eri9azlqyo8b91hxy2,cfD1mp5Z,2020-0188,2020-05-07,17:26:41,17:44:53,NA,incomplete,239,number,1,right,Green_Circle_Dots_4.jpg,Green_Star_Chess_2.jpg,Purple_Triangle_Stripes_4.jpg,right,872.3750000062864,true,high,false
cfD1mp5Z,3b6f54kms5pu5knddy3sw9ki4gws13,3del4x4elay1eri9azlqyo8b91hxy2,cfD1mp5Z,2020-0188,2020-05-07,17:26:41,17:44:53,1032575.205000001,1092055.8900000034,NA,NA,NA,NA,NA,NA,NA,NA,NA,NA,NA,undefined
