workerId,hitId,assignmentId,subject,studyid,exp_date,exp_start,exp_end,time_start,time_end,trial,type,reward_validity,answer,image_top,image_left,image_right,response,response_time,response_acc,volatility,age,race,gender,ethnicity,color,vision,neuro,practice
MndBfPl7,36d1bwbeiqeywas4c57kpjvh4xs2mi,3dqq64tankysgdli97tlje1swu8pw7,MndBfPl7,2020-0188,2020-05-07,14:37:07,15:00:08,NA,incomplete,0,color,1,left,Red_Triangle_Stripes_2.jpg,Red_Circle_Chess_3.jpg,Blue_Triangle_Grid_1.jpg,right,1002,false,NA,NA,NA,NA,NA,NA,NA,NA,true
MndBfPl7,36d1bwbeiqeywas4c57kpjvh4xs2mi,3dqq64tankysgdli97tlje1swu8pw7,MndBfPl7,2020-0188,2020-05-07,14:37:07,15:00:08,NA,incomplete,1,color,0,right,Red_Circle_Stripes_2.jpg,Blue_Circle_Chess_4.jpg,Red_Triangle_Grid_3.jpg,right,758,true,NA,NA,NA,NA,NA,NA,NA,NA,true
MndBfPl7,36d1bwbeiqeywas4c57kpjvh4xs2mi,3dqq64tankysgdli97tlje1swu8pw7,MndBfPl7,2020-0188,2020-05-07,14:37:07,15:00:08,NA,incomplete,2,color,1,right,Blue_Circle_Grid_4.jpg,Purple_Circle_Chess_2.jpg,Blue_Plus_Stripes_3.jpg,right,1820,true,NA,NA,NA,NA,NA,NA,NA,NA,true
MndBfPl7,36d1bwbeiqeywas4c57kpjvh4xs2mi,3dqq64tankysgdli97tlje1swu8pw7,MndBfPl7,2020-0188,2020-05-07,14:37:07,15:00:08,NA,incomplete,3,color,1,left,Blue_Plus_Grid_1.jpg,Blue_Triangle_Dots_4.jpg,Red_Plus_Chess_2.jpg,left,773,true,NA,NA,NA,NA,NA,NA,NA,NA,true
MndBfPl7,36d1bwbeiqeywas4c57kpjvh4xs2mi,3dqq64tankysgdli97tlje1swu8pw7,MndBfPl7,2020-0188,2020-05-07,14:37:07,15:00:08,NA,incomplete,4,color,1,left,Blue_Triangle_Dots_1.jpg,Blue_Plus_Grid_4.jpg,Red_Triangle_Chess_3.jpg,left,930,true,NA,NA,NA,NA,NA,NA,NA,NA,true
MndBfPl7,36d1bwbeiqeywas4c57kpjvh4xs2mi,3dqq64tankysgdli97tlje1swu8pw7,MndBfPl7,2020-0188,2020-05-07,14:37:07,15:00:08,NA,incomplete,5,color,0,right,Red_Star_Stripes_3.jpg,Blue_Star_Dots_4.jpg,Red_Plus_Grid_1.jpg,right,617,true,NA,NA,NA,NA,NA,NA,NA,NA,true
MndBfPl7,36d1bwbeiqeywas4c57kpjvh4xs2mi,3dqq64tankysgdli97tlje1swu8pw7,MndBfPl7,2020-0188,2020-05-07,14:37:07,15:00:08,NA,incomplete,6,color,1,right,Blue_Plus_Chess_3.jpg,Green_Plus_Stripes_4.jpg,Blue_Star_Dots_2.jpg,right,798,true,NA,NA,NA,NA,NA,NA,NA,NA,true
MndBfPl7,36d1bwbeiqeywas4c57kpjvh4xs2mi,3dqq64tankysgdli97tlje1swu8pw7,MndBfPl7,2020-0188,2020-05-07,14:37:07,15:00:08,NA,incomplete,7,color,1,right,Blue_Star_Stripes_2.jpg,Purple_Star_Chess_3.jpg,Blue_Triangle_Grid_1.jpg,right,642,true,NA,NA,NA,NA,NA,NA,NA,NA,true
MndBfPl7,36d1bwbeiqeywas4c57kpjvh4xs2mi,3dqq64tankysgdli97tlje1swu8pw7,MndBfPl7,2020-0188,2020-05-07,14:37:07,15:00:08,NA,incomplete,8,color,1,left,Purple_Star_Chess_4.jpg,Purple_Circle_Stripes_2.jpg,Green_Star_Dots_3.jpg,left,758,true,NA,NA,NA,NA,NA,NA,NA,NA,true
MndBfPl7,36d1bwbeiqeywas4c57kpjvh4xs2mi,3dqq64tankysgdli97tlje1swu8pw7,MndBfPl7,2020-0188,2020-05-07,14:37:07,15:00:08,NA,incomplete,9,color,0,right,Green_Star_Stripes_4.jpg,Red_Star_Grid_2.jpg,Green_Plus_Dots_3.jpg,right,755,true,NA,NA,NA,NA,NA,NA,NA,NA,true
MndBfPl7,36d1bwbeiqeywas4c57kpjvh4xs2mi,3dqq64tankysgdli97tlje1swu8pw7,MndBfPl7,2020-0188,2020-05-07,14:37:07,15:00:08,NA,incomplete,10,color,1,left,Green_Triangle_Dots_2.jpg,Green_Star_Chess_1.jpg,Red_Triangle_Grid_4.jpg,left,1665,true,NA,NA,NA,NA,NA,NA,NA,NA,true
MndBfPl7,36d1bwbeiqeywas4c57kpjvh4xs2mi,3dqq64tankysgdli97tlje1swu8pw7,MndBfPl7,2020-0188,2020-05-07,14:37:07,15:00:08,NA,incomplete,11,color,1,right,Green_Triangle_Grid_3.jpg,Purple_Triangle_Stripes_2.jpg,Green_Plus_Chess_1.jpg,right,1240,true,NA,NA,NA,NA,NA,NA,NA,NA,true
MndBfPl7,36d1bwbeiqeywas4c57kpjvh4xs2mi,3dqq64tankysgdli97tlje1swu8pw7,MndBfPl7,2020-0188,2020-05-07,14:37:07,15:00:08,NA,incomplete,12,color,1,right,Green_Plus_Dots_1.jpg,Red_Plus_Grid_2.jpg,Green_Star_Stripes_4.jpg,right,1289,true,NA,NA,NA,NA,NA,NA,NA,NA,true
MndBfPl7,36d1bwbeiqeywas4c57kpjvh4xs2mi,3dqq64tankysgdli97tlje1swu8pw7,MndBfPl7,2020-0188,2020-05-07,14:37:07,15:00:08,NA,incomplete,13,color,0,left,Blue_Plus_Grid_1.jpg,Blue_Circle_Dots_4.jpg,Purple_Plus_Stripes_2.jpg,none,0,false,NA,NA,NA,NA,NA,NA,NA,NA,true
MndBfPl7,36d1bwbeiqeywas4c57kpjvh4xs2mi,3dqq64tankysgdli97tlje1swu8pw7,MndBfPl7,2020-0188,2020-05-07,14:37:07,15:00:08,NA,incomplete,14,color,1,right,Red_Circle_Grid_4.jpg,Green_Circle_Stripes_3.jpg,Red_Plus_Dots_2.jpg,right,1473,true,NA,NA,NA,NA,NA,NA,NA,NA,true
MndBfPl7,36d1bwbeiqeywas4c57kpjvh4xs2mi,3dqq64tankysgdli97tlje1swu8pw7,MndBfPl7,2020-0188,2020-05-07,14:37:07,15:00:08,NA,incomplete,15,color,1,right,Green_Circle_Stripes_2.jpg,Red_Circle_Chess_4.jpg,Green_Triangle_Dots_1.jpg,right,616,true,NA,NA,NA,NA,NA,NA,NA,NA,true
MndBfPl7,36d1bwbeiqeywas4c57kpjvh4xs2mi,3dqq64tankysgdli97tlje1swu8pw7,MndBfPl7,2020-0188,2020-05-07,14:37:07,15:00:08,NA,incomplete,16,color,0,left,Green_Plus_Grid_2.jpg,Green_Circle_Stripes_4.jpg,Blue_Plus_Dots_3.jpg,left,764,true,NA,NA,NA,NA,NA,NA,NA,NA,true
MndBfPl7,36d1bwbeiqeywas4c57kpjvh4xs2mi,3dqq64tankysgdli97tlje1swu8pw7,MndBfPl7,2020-0188,2020-05-07,14:37:07,15:00:08,NA,incomplete,17,color,0,left,Purple_Star_Chess_3.jpg,Purple_Triangle_Dots_2.jpg,Blue_Star_Stripes_1.jpg,left,714,true,NA,NA,NA,NA,NA,NA,NA,NA,true
MndBfPl7,36d1bwbeiqeywas4c57kpjvh4xs2mi,3dqq64tankysgdli97tlje1swu8pw7,MndBfPl7,2020-0188,2020-05-07,14:37:07,15:00:08,NA,incomplete,18,color,1,right,Purple_Triangle_Grid_1.jpg,Red_Triangle_Dots_4.jpg,Purple_Plus_Chess_3.jpg,right,675,true,NA,NA,NA,NA,NA,NA,NA,NA,true
MndBfPl7,36d1bwbeiqeywas4c57kpjvh4xs2mi,3dqq64tankysgdli97tlje1swu8pw7,MndBfPl7,2020-0188,2020-05-07,14:37:07,15:00:08,NA,incomplete,19,color,1,left,Purple_Triangle_Stripes_1.jpg,Purple_Plus_Dots_3.jpg,Green_Triangle_Chess_2.jpg,left,756,true,NA,NA,NA,NA,NA,NA,NA,NA,true
MndBfPl7,36d1bwbeiqeywas4c57kpjvh4xs2mi,3dqq64tankysgdli97tlje1swu8pw7,MndBfPl7,2020-0188,2020-05-07,14:37:07,15:00:08,NA,incomplete,20,shape,0,left,Blue_Triangle_Grid_4.jpg,Purple_Triangle_Chess_2.jpg,Blue_Plus_Stripes_3.jpg,none,0,false,NA,NA,NA,NA,NA,NA,NA,NA,true
MndBfPl7,36d1bwbeiqeywas4c57kpjvh4xs2mi,3dqq64tankysgdli97tlje1swu8pw7,MndBfPl7,2020-0188,2020-05-07,14:37:07,15:00:08,NA,incomplete,21,shape,1,left,Green_Plus_Stripes_2.jpg,Blue_Plus_Chess_1.jpg,Green_Circle_Dots_4.jpg,left,1140,true,NA,NA,NA,NA,NA,NA,NA,NA,true
MndBfPl7,36d1bwbeiqeywas4c57kpjvh4xs2mi,3dqq64tankysgdli97tlje1swu8pw7,MndBfPl7,2020-0188,2020-05-07,14:37:07,15:00:08,NA,incomplete,22,shape,1,right,Red_Circle_Grid_2.jpg,Red_Star_Chess_1.jpg,Green_Circle_Stripes_3.jpg,right,1016,true,NA,NA,NA,NA,NA,NA,NA,NA,true
MndBfPl7,36d1bwbeiqeywas4c57kpjvh4xs2mi,3dqq64tankysgdli97tlje1swu8pw7,MndBfPl7,2020-0188,2020-05-07,14:37:07,15:00:08,NA,incomplete,23,shape,1,right,Red_Circle_Stripes_2.jpg,Red_Triangle_Chess_3.jpg,Green_Circle_Dots_4.jpg,right,1028,true,NA,NA,NA,NA,NA,NA,NA,NA,true
MndBfPl7,36d1bwbeiqeywas4c57kpjvh4xs2mi,3dqq64tankysgdli97tlje1swu8pw7,MndBfPl7,2020-0188,2020-05-07,14:37:07,15:00:08,NA,incomplete,24,shape,1,left,Purple_Plus_Grid_3.jpg,Red_Plus_Chess_4.jpg,Purple_Circle_Dots_2.jpg,left,943,true,NA,NA,NA,NA,NA,NA,NA,NA,true
MndBfPl7,36d1bwbeiqeywas4c57kpjvh4xs2mi,3dqq64tankysgdli97tlje1swu8pw7,MndBfPl7,2020-0188,2020-05-07,14:37:07,15:00:08,NA,incomplete,25,shape,1,left,Blue_Plus_Dots_4.jpg,Green_Plus_Chess_3.jpg,Blue_Triangle_Grid_1.jpg,left,1005,true,NA,NA,NA,NA,NA,NA,NA,NA,true
MndBfPl7,36d1bwbeiqeywas4c57kpjvh4xs2mi,3dqq64tankysgdli97tlje1swu8pw7,MndBfPl7,2020-0188,2020-05-07,14:37:07,15:00:08,NA,incomplete,26,shape,1,right,Red_Plus_Grid_1.jpg,Red_Circle_Dots_4.jpg,Blue_Plus_Stripes_3.jpg,right,1216,true,NA,NA,NA,NA,NA,NA,NA,NA,true
MndBfPl7,36d1bwbeiqeywas4c57kpjvh4xs2mi,3dqq64tankysgdli97tlje1swu8pw7,MndBfPl7,2020-0188,2020-05-07,14:37:07,15:00:08,NA,incomplete,27,shape,0,right,Red_Star_Grid_2.jpg,Red_Triangle_Chess_1.jpg,Green_Star_Dots_4.jpg,right,1115,true,NA,NA,NA,NA,NA,NA,NA,NA,true
MndBfPl7,36d1bwbeiqeywas4c57kpjvh4xs2mi,3dqq64tankysgdli97tlje1swu8pw7,MndBfPl7,2020-0188,2020-05-07,14:37:07,15:00:08,NA,incomplete,28,shape,1,left,Blue_Triangle_Stripes_2.jpg,Red_Triangle_Grid_3.jpg,Blue_Circle_Chess_4.jpg,left,929,true,NA,NA,NA,NA,NA,NA,NA,NA,true
MndBfPl7,36d1bwbeiqeywas4c57kpjvh4xs2mi,3dqq64tankysgdli97tlje1swu8pw7,MndBfPl7,2020-0188,2020-05-07,14:37:07,15:00:08,NA,incomplete,29,shape,1,right,Blue_Triangle_Grid_3.jpg,Blue_Star_Stripes_4.jpg,Green_Triangle_Chess_1.jpg,right,856,true,NA,NA,NA,NA,NA,NA,NA,NA,true
MndBfPl7,36d1bwbeiqeywas4c57kpjvh4xs2mi,3dqq64tankysgdli97tlje1swu8pw7,MndBfPl7,2020-0188,2020-05-07,14:37:07,15:00:08,NA,incomplete,30,shape,1,left,Red_Circle_Chess_2.jpg,Green_Circle_Stripes_1.jpg,Red_Plus_Dots_4.jpg,left,858,true,NA,NA,NA,NA,NA,NA,NA,NA,true
MndBfPl7,36d1bwbeiqeywas4c57kpjvh4xs2mi,3dqq64tankysgdli97tlje1swu8pw7,MndBfPl7,2020-0188,2020-05-07,14:37:07,15:00:08,NA,incomplete,31,shape,1,left,Blue_Star_Chess_3.jpg,Green_Star_Grid_2.jpg,Blue_Plus_Dots_1.jpg,left,948,true,NA,NA,NA,NA,NA,NA,NA,NA,true
MndBfPl7,36d1bwbeiqeywas4c57kpjvh4xs2mi,3dqq64tankysgdli97tlje1swu8pw7,MndBfPl7,2020-0188,2020-05-07,14:37:07,15:00:08,NA,incomplete,32,shape,1,left,Red_Triangle_Dots_1.jpg,Purple_Triangle_Chess_3.jpg,Red_Plus_Grid_4.jpg,left,833,true,NA,NA,NA,NA,NA,NA,NA,NA,true
MndBfPl7,36d1bwbeiqeywas4c57kpjvh4xs2mi,3dqq64tankysgdli97tlje1swu8pw7,MndBfPl7,2020-0188,2020-05-07,14:37:07,15:00:08,NA,incomplete,33,shape,1,right,Green_Plus_Grid_1.jpg,Green_Triangle_Dots_2.jpg,Blue_Plus_Chess_3.jpg,right,948,true,NA,NA,NA,NA,NA,NA,NA,NA,true
MndBfPl7,36d1bwbeiqeywas4c57kpjvh4xs2mi,3dqq64tankysgdli97tlje1swu8pw7,MndBfPl7,2020-0188,2020-05-07,14:37:07,15:00:08,NA,incomplete,34,shape,1,right,Red_Star_Chess_4.jpg,Red_Plus_Stripes_1.jpg,Purple_Star_Dots_2.jpg,right,835,true,NA,NA,NA,NA,NA,NA,NA,NA,true
MndBfPl7,36d1bwbeiqeywas4c57kpjvh4xs2mi,3dqq64tankysgdli97tlje1swu8pw7,MndBfPl7,2020-0188,2020-05-07,14:37:07,15:00:08,NA,incomplete,35,shape,1,right,Red_Plus_Stripes_4.jpg,Red_Triangle_Grid_3.jpg,Purple_Plus_Chess_1.jpg,right,887,true,NA,NA,NA,NA,NA,NA,NA,NA,true
MndBfPl7,36d1bwbeiqeywas4c57kpjvh4xs2mi,3dqq64tankysgdli97tlje1swu8pw7,MndBfPl7,2020-0188,2020-05-07,14:37:07,15:00:08,NA,incomplete,36,shape,1,right,Green_Plus_Stripes_2.jpg,Green_Circle_Dots_4.jpg,Red_Plus_Grid_3.jpg,right,687,true,NA,NA,NA,NA,NA,NA,NA,NA,true
MndBfPl7,36d1bwbeiqeywas4c57kpjvh4xs2mi,3dqq64tankysgdli97tlje1swu8pw7,MndBfPl7,2020-0188,2020-05-07,14:37:07,15:00:08,NA,incomplete,37,shape,1,right,Blue_Plus_Dots_3.jpg,Blue_Circle_Stripes_1.jpg,Green_Plus_Chess_4.jpg,right,784,true,NA,NA,NA,NA,NA,NA,NA,NA,true
MndBfPl7,36d1bwbeiqeywas4c57kpjvh4xs2mi,3dqq64tankysgdli97tlje1swu8pw7,MndBfPl7,2020-0188,2020-05-07,14:37:07,15:00:08,NA,incomplete,38,shape,1,right,Red_Circle_Grid_4.jpg,Red_Plus_Dots_2.jpg,Purple_Circle_Chess_3.jpg,right,701,true,NA,NA,NA,NA,NA,NA,NA,NA,true
MndBfPl7,36d1bwbeiqeywas4c57kpjvh4xs2mi,3dqq64tankysgdli97tlje1swu8pw7,MndBfPl7,2020-0188,2020-05-07,14:37:07,15:00:08,NA,incomplete,39,shape,1,left,Green_Plus_Grid_3.jpg,Purple_Plus_Stripes_1.jpg,Green_Star_Dots_4.jpg,left,807,true,NA,NA,NA,NA,NA,NA,NA,NA,true
MndBfPl7,36d1bwbeiqeywas4c57kpjvh4xs2mi,3dqq64tankysgdli97tlje1swu8pw7,MndBfPl7,2020-0188,2020-05-07,14:37:07,15:00:08,NA,incomplete,0,color,1,left,Green_Triangle_Chess_3.jpg,Green_Star_Stripes_2.jpg,Purple_Triangle_Dots_4.jpg,left,745,true,low,NA,NA,NA,NA,NA,NA,NA,false
MndBfPl7,36d1bwbeiqeywas4c57kpjvh4xs2mi,3dqq64tankysgdli97tlje1swu8pw7,MndBfPl7,2020-0188,2020-05-07,14:37:07,15:00:08,NA,incomplete,1,color,1,right,Blue_Plus_Chess_4.jpg,Purple_Plus_Grid_3.jpg,Blue_Circle_Dots_1.jpg,right,690,true,low,NA,NA,NA,NA,NA,NA,NA,false
MndBfPl7,36d1bwbeiqeywas4c57kpjvh4xs2mi,3dqq64tankysgdli97tlje1swu8pw7,MndBfPl7,2020-0188,2020-05-07,14:37:07,15:00:08,NA,incomplete,2,color,0,right,Green_Triangle_Dots_2.jpg,Purple_Triangle_Chess_3.jpg,Green_Star_Stripes_1.jpg,right,1082,true,low,NA,NA,NA,NA,NA,NA,NA,false
MndBfPl7,36d1bwbeiqeywas4c57kpjvh4xs2mi,3dqq64tankysgdli97tlje1swu8pw7,MndBfPl7,2020-0188,2020-05-07,14:37:07,15:00:08,NA,incomplete,3,color,1,left,Purple_Triangle_Grid_1.jpg,Purple_Plus_Dots_2.jpg,Red_Triangle_Chess_3.jpg,left,811,true,low,NA,NA,NA,NA,NA,NA,NA,false
MndBfPl7,36d1bwbeiqeywas4c57kpjvh4xs2mi,3dqq64tankysgdli97tlje1swu8pw7,MndBfPl7,2020-0188,2020-05-07,14:37:07,15:00:08,NA,incomplete,4,color,1,left,Red_Triangle_Dots_4.jpg,Red_Plus_Grid_3.jpg,Green_Triangle_Stripes_1.jpg,left,663,true,low,NA,NA,NA,NA,NA,NA,NA,false
MndBfPl7,36d1bwbeiqeywas4c57kpjvh4xs2mi,3dqq64tankysgdli97tlje1swu8pw7,MndBfPl7,2020-0188,2020-05-07,14:37:07,15:00:08,NA,incomplete,5,color,1,left,Blue_Triangle_Stripes_3.jpg,Blue_Star_Dots_2.jpg,Green_Triangle_Chess_4.jpg,left,617,true,low,NA,NA,NA,NA,NA,NA,NA,false
MndBfPl7,36d1bwbeiqeywas4c57kpjvh4xs2mi,3dqq64tankysgdli97tlje1swu8pw7,MndBfPl7,2020-0188,2020-05-07,14:37:07,15:00:08,NA,incomplete,6,color,0,left,Blue_Plus_Stripes_2.jpg,Blue_Triangle_Grid_1.jpg,Red_Plus_Chess_4.jpg,left,614,true,low,NA,NA,NA,NA,NA,NA,NA,false
MndBfPl7,36d1bwbeiqeywas4c57kpjvh4xs2mi,3dqq64tankysgdli97tlje1swu8pw7,MndBfPl7,2020-0188,2020-05-07,14:37:07,15:00:08,NA,incomplete,7,color,1,left,Green_Star_Dots_1.jpg,Green_Plus_Stripes_2.jpg,Red_Star_Grid_3.jpg,left,666,true,low,NA,NA,NA,NA,NA,NA,NA,false
MndBfPl7,36d1bwbeiqeywas4c57kpjvh4xs2mi,3dqq64tankysgdli97tlje1swu8pw7,MndBfPl7,2020-0188,2020-05-07,14:37:07,15:00:08,NA,incomplete,8,color,1,right,Red_Triangle_Chess_3.jpg,Purple_Triangle_Dots_4.jpg,Red_Plus_Stripes_1.jpg,right,573,true,low,NA,NA,NA,NA,NA,NA,NA,false
MndBfPl7,36d1bwbeiqeywas4c57kpjvh4xs2mi,3dqq64tankysgdli97tlje1swu8pw7,MndBfPl7,2020-0188,2020-05-07,14:37:07,15:00:08,NA,incomplete,9,color,1,left,Red_Circle_Chess_2.jpg,Red_Triangle_Dots_1.jpg,Purple_Circle_Stripes_4.jpg,left,539,true,low,NA,NA,NA,NA,NA,NA,NA,false
MndBfPl7,36d1bwbeiqeywas4c57kpjvh4xs2mi,3dqq64tankysgdli97tlje1swu8pw7,MndBfPl7,2020-0188,2020-05-07,14:37:07,15:00:08,NA,incomplete,10,color,0,left,Purple_Triangle_Stripes_1.jpg,Purple_Star_Chess_2.jpg,Red_Triangle_Grid_4.jpg,left,650,true,low,NA,NA,NA,NA,NA,NA,NA,false
MndBfPl7,36d1bwbeiqeywas4c57kpjvh4xs2mi,3dqq64tankysgdli97tlje1swu8pw7,MndBfPl7,2020-0188,2020-05-07,14:37:07,15:00:08,NA,incomplete,11,color,1,right,Red_Plus_Dots_4.jpg,Blue_Plus_Stripes_3.jpg,Red_Circle_Grid_1.jpg,right,582,true,low,NA,NA,NA,NA,NA,NA,NA,false
MndBfPl7,36d1bwbeiqeywas4c57kpjvh4xs2mi,3dqq64tankysgdli97tlje1swu8pw7,MndBfPl7,2020-0188,2020-05-07,14:37:07,15:00:08,NA,incomplete,12,color,1,left,Blue_Star_Chess_1.jpg,Blue_Triangle_Dots_2.jpg,Green_Star_Stripes_4.jpg,left,603,true,low,NA,NA,NA,NA,NA,NA,NA,false
MndBfPl7,36d1bwbeiqeywas4c57kpjvh4xs2mi,3dqq64tankysgdli97tlje1swu8pw7,MndBfPl7,2020-0188,2020-05-07,14:37:07,15:00:08,NA,incomplete,13,color,1,right,Green_Plus_Chess_1.jpg,Red_Plus_Dots_4.jpg,Green_Triangle_Grid_3.jpg,right,528,true,low,NA,NA,NA,NA,NA,NA,NA,false
MndBfPl7,36d1bwbeiqeywas4c57kpjvh4xs2mi,3dqq64tankysgdli97tlje1swu8pw7,MndBfPl7,2020-0188,2020-05-07,14:37:07,15:00:08,NA,incomplete,14,color,1,left,Red_Plus_Grid_2.jpg,Red_Circle_Stripes_4.jpg,Purple_Plus_Dots_1.jpg,left,529,true,low,NA,NA,NA,NA,NA,NA,NA,false
MndBfPl7,36d1bwbeiqeywas4c57kpjvh4xs2mi,3dqq64tankysgdli97tlje1swu8pw7,MndBfPl7,2020-0188,2020-05-07,14:37:07,15:00:08,NA,incomplete,15,color,0,left,Red_Star_Chess_4.jpg,Red_Triangle_Stripes_2.jpg,Green_Star_Grid_1.jpg,left,537,true,low,NA,NA,NA,NA,NA,NA,NA,false
MndBfPl7,36d1bwbeiqeywas4c57kpjvh4xs2mi,3dqq64tankysgdli97tlje1swu8pw7,MndBfPl7,2020-0188,2020-05-07,14:37:07,15:00:08,NA,incomplete,16,color,1,left,Red_Triangle_Grid_3.jpg,Red_Star_Stripes_1.jpg,Blue_Triangle_Chess_4.jpg,left,472,true,low,NA,NA,NA,NA,NA,NA,NA,false
MndBfPl7,36d1bwbeiqeywas4c57kpjvh4xs2mi,3dqq64tankysgdli97tlje1swu8pw7,MndBfPl7,2020-0188,2020-05-07,14:37:07,15:00:08,NA,incomplete,17,color,1,left,Red_Circle_Stripes_2.jpg,Red_Star_Grid_3.jpg,Purple_Circle_Chess_1.jpg,left,451,true,low,NA,NA,NA,NA,NA,NA,NA,false
MndBfPl7,36d1bwbeiqeywas4c57kpjvh4xs2mi,3dqq64tankysgdli97tlje1swu8pw7,MndBfPl7,2020-0188,2020-05-07,14:37:07,15:00:08,NA,incomplete,18,color,1,left,Blue_Star_Grid_3.jpg,Blue_Circle_Chess_1.jpg,Purple_Star_Stripes_4.jpg,left,614,true,low,NA,NA,NA,NA,NA,NA,NA,false
MndBfPl7,36d1bwbeiqeywas4c57kpjvh4xs2mi,3dqq64tankysgdli97tlje1swu8pw7,MndBfPl7,2020-0188,2020-05-07,14:37:07,15:00:08,NA,incomplete,19,color,1,right,Purple_Star_Grid_3.jpg,Green_Star_Stripes_1.jpg,Purple_Circle_Chess_4.jpg,right,531,true,low,NA,NA,NA,NA,NA,NA,NA,false
MndBfPl7,36d1bwbeiqeywas4c57kpjvh4xs2mi,3dqq64tankysgdli97tlje1swu8pw7,MndBfPl7,2020-0188,2020-05-07,14:37:07,15:00:08,NA,incomplete,20,color,1,left,Green_Triangle_Dots_3.jpg,Green_Circle_Grid_1.jpg,Blue_Triangle_Chess_4.jpg,left,579,true,low,NA,NA,NA,NA,NA,NA,NA,false
MndBfPl7,36d1bwbeiqeywas4c57kpjvh4xs2mi,3dqq64tankysgdli97tlje1swu8pw7,MndBfPl7,2020-0188,2020-05-07,14:37:07,15:00:08,NA,incomplete,21,color,1,right,Red_Plus_Stripes_1.jpg,Purple_Plus_Grid_2.jpg,Red_Triangle_Chess_4.jpg,right,466,true,low,NA,NA,NA,NA,NA,NA,NA,false
MndBfPl7,36d1bwbeiqeywas4c57kpjvh4xs2mi,3dqq64tankysgdli97tlje1swu8pw7,MndBfPl7,2020-0188,2020-05-07,14:37:07,15:00:08,NA,incomplete,22,color,1,left,Red_Circle_Grid_1.jpg,Red_Plus_Dots_4.jpg,Purple_Circle_Stripes_3.jpg,left,516,true,low,NA,NA,NA,NA,NA,NA,NA,false
MndBfPl7,36d1bwbeiqeywas4c57kpjvh4xs2mi,3dqq64tankysgdli97tlje1swu8pw7,MndBfPl7,2020-0188,2020-05-07,14:37:07,15:00:08,NA,incomplete,23,color,1,left,Blue_Circle_Grid_4.jpg,Blue_Plus_Stripes_1.jpg,Purple_Circle_Chess_2.jpg,left,486,true,low,NA,NA,NA,NA,NA,NA,NA,false
MndBfPl7,36d1bwbeiqeywas4c57kpjvh4xs2mi,3dqq64tankysgdli97tlje1swu8pw7,MndBfPl7,2020-0188,2020-05-07,14:37:07,15:00:08,NA,incomplete,24,color,1,right,Purple_Star_Dots_1.jpg,Blue_Star_Stripes_3.jpg,Purple_Plus_Grid_4.jpg,right,512,true,low,NA,NA,NA,NA,NA,NA,NA,false
MndBfPl7,36d1bwbeiqeywas4c57kpjvh4xs2mi,3dqq64tankysgdli97tlje1swu8pw7,MndBfPl7,2020-0188,2020-05-07,14:37:07,15:00:08,NA,incomplete,25,color,1,left,Purple_Circle_Grid_1.jpg,Purple_Star_Dots_3.jpg,Red_Circle_Stripes_4.jpg,left,439,true,low,NA,NA,NA,NA,NA,NA,NA,false
MndBfPl7,36d1bwbeiqeywas4c57kpjvh4xs2mi,3dqq64tankysgdli97tlje1swu8pw7,MndBfPl7,2020-0188,2020-05-07,14:37:07,15:00:08,NA,incomplete,26,color,1,right,Green_Star_Grid_2.jpg,Purple_Star_Stripes_4.jpg,Green_Circle_Chess_1.jpg,right,460,true,low,NA,NA,NA,NA,NA,NA,NA,false
MndBfPl7,36d1bwbeiqeywas4c57kpjvh4xs2mi,3dqq64tankysgdli97tlje1swu8pw7,MndBfPl7,2020-0188,2020-05-07,14:37:07,15:00:08,NA,incomplete,27,color,0,right,Blue_Star_Chess_2.jpg,Red_Star_Grid_1.jpg,Blue_Triangle_Stripes_3.jpg,right,479,true,low,NA,NA,NA,NA,NA,NA,NA,false
MndBfPl7,36d1bwbeiqeywas4c57kpjvh4xs2mi,3dqq64tankysgdli97tlje1swu8pw7,MndBfPl7,2020-0188,2020-05-07,14:37:07,15:00:08,NA,incomplete,28,color,1,right,Blue_Circle_Chess_4.jpg,Purple_Circle_Grid_3.jpg,Blue_Plus_Dots_1.jpg,right,450,true,low,NA,NA,NA,NA,NA,NA,NA,false
MndBfPl7,36d1bwbeiqeywas4c57kpjvh4xs2mi,3dqq64tankysgdli97tlje1swu8pw7,MndBfPl7,2020-0188,2020-05-07,14:37:07,15:00:08,NA,incomplete,29,color,1,left,Red_Triangle_Chess_2.jpg,Red_Star_Grid_4.jpg,Blue_Triangle_Dots_3.jpg,left,518,true,low,NA,NA,NA,NA,NA,NA,NA,false
MndBfPl7,36d1bwbeiqeywas4c57kpjvh4xs2mi,3dqq64tankysgdli97tlje1swu8pw7,MndBfPl7,2020-0188,2020-05-07,14:37:07,15:00:08,NA,incomplete,30,shape,1,left,Red_Star_Grid_1.jpg,Green_Star_Chess_3.jpg,Red_Circle_Dots_2.jpg,right,534,false,low,NA,NA,NA,NA,NA,NA,NA,false
MndBfPl7,36d1bwbeiqeywas4c57kpjvh4xs2mi,3dqq64tankysgdli97tlje1swu8pw7,MndBfPl7,2020-0188,2020-05-07,14:37:07,15:00:08,NA,incomplete,31,shape,1,left,Red_Circle_Dots_2.jpg,Green_Circle_Stripes_4.jpg,Red_Triangle_Chess_1.jpg,right,463,false,low,NA,NA,NA,NA,NA,NA,NA,false
MndBfPl7,36d1bwbeiqeywas4c57kpjvh4xs2mi,3dqq64tankysgdli97tlje1swu8pw7,MndBfPl7,2020-0188,2020-05-07,14:37:07,15:00:08,NA,incomplete,32,shape,1,right,Blue_Triangle_Grid_3.jpg,Blue_Circle_Chess_1.jpg,Purple_Triangle_Dots_2.jpg,left,537,false,low,NA,NA,NA,NA,NA,NA,NA,false
MndBfPl7,36d1bwbeiqeywas4c57kpjvh4xs2mi,3dqq64tankysgdli97tlje1swu8pw7,MndBfPl7,2020-0188,2020-05-07,14:37:07,15:00:08,NA,incomplete,33,shape,1,right,Green_Star_Chess_3.jpg,Green_Circle_Dots_1.jpg,Purple_Star_Stripes_2.jpg,right,737,true,low,NA,NA,NA,NA,NA,NA,NA,false
MndBfPl7,36d1bwbeiqeywas4c57kpjvh4xs2mi,3dqq64tankysgdli97tlje1swu8pw7,MndBfPl7,2020-0188,2020-05-07,14:37:07,15:00:08,NA,incomplete,34,shape,1,left,Green_Star_Grid_4.jpg,Blue_Star_Dots_1.jpg,Green_Triangle_Chess_3.jpg,left,783,true,low,NA,NA,NA,NA,NA,NA,NA,false
MndBfPl7,36d1bwbeiqeywas4c57kpjvh4xs2mi,3dqq64tankysgdli97tlje1swu8pw7,MndBfPl7,2020-0188,2020-05-07,14:37:07,15:00:08,NA,incomplete,35,shape,0,left,Blue_Star_Dots_2.jpg,Green_Star_Stripes_4.jpg,Blue_Circle_Grid_3.jpg,left,733,true,low,NA,NA,NA,NA,NA,NA,NA,false
MndBfPl7,36d1bwbeiqeywas4c57kpjvh4xs2mi,3dqq64tankysgdli97tlje1swu8pw7,MndBfPl7,2020-0188,2020-05-07,14:37:07,15:00:08,NA,incomplete,36,shape,1,right,Purple_Triangle_Stripes_4.jpg,Purple_Plus_Dots_2.jpg,Blue_Triangle_Chess_3.jpg,right,725,true,low,NA,NA,NA,NA,NA,NA,NA,false
MndBfPl7,36d1bwbeiqeywas4c57kpjvh4xs2mi,3dqq64tankysgdli97tlje1swu8pw7,MndBfPl7,2020-0188,2020-05-07,14:37:07,15:00:08,NA,incomplete,37,shape,0,right,Green_Star_Stripes_3.jpg,Green_Triangle_Grid_1.jpg,Blue_Star_Dots_2.jpg,right,844,true,low,NA,NA,NA,NA,NA,NA,NA,false
MndBfPl7,36d1bwbeiqeywas4c57kpjvh4xs2mi,3dqq64tankysgdli97tlje1swu8pw7,MndBfPl7,2020-0188,2020-05-07,14:37:07,15:00:08,NA,incomplete,38,shape,1,right,Blue_Triangle_Dots_1.jpg,Blue_Star_Grid_3.jpg,Green_Triangle_Chess_2.jpg,right,839,true,low,NA,NA,NA,NA,NA,NA,NA,false
MndBfPl7,36d1bwbeiqeywas4c57kpjvh4xs2mi,3dqq64tankysgdli97tlje1swu8pw7,MndBfPl7,2020-0188,2020-05-07,14:37:07,15:00:08,NA,incomplete,39,shape,0,right,Purple_Plus_Grid_1.jpg,Purple_Triangle_Chess_3.jpg,Green_Plus_Stripes_2.jpg,left,1145,false,low,NA,NA,NA,NA,NA,NA,NA,false
MndBfPl7,36d1bwbeiqeywas4c57kpjvh4xs2mi,3dqq64tankysgdli97tlje1swu8pw7,MndBfPl7,2020-0188,2020-05-07,14:37:07,15:00:08,NA,incomplete,40,shape,1,left,Blue_Triangle_Grid_1.jpg,Green_Triangle_Stripes_2.jpg,Blue_Circle_Dots_4.jpg,right,630,false,low,NA,NA,NA,NA,NA,NA,NA,false
MndBfPl7,36d1bwbeiqeywas4c57kpjvh4xs2mi,3dqq64tankysgdli97tlje1swu8pw7,MndBfPl7,2020-0188,2020-05-07,14:37:07,15:00:08,NA,incomplete,41,shape,1,right,Red_Plus_Stripes_4.jpg,Red_Circle_Chess_2.jpg,Blue_Plus_Dots_1.jpg,left,714,false,low,NA,NA,NA,NA,NA,NA,NA,false
MndBfPl7,36d1bwbeiqeywas4c57kpjvh4xs2mi,3dqq64tankysgdli97tlje1swu8pw7,MndBfPl7,2020-0188,2020-05-07,14:37:07,15:00:08,NA,incomplete,42,shape,1,left,Purple_Circle_Stripes_2.jpg,Green_Circle_Chess_1.jpg,Purple_Plus_Dots_3.jpg,left,867,true,low,NA,NA,NA,NA,NA,NA,NA,false
MndBfPl7,36d1bwbeiqeywas4c57kpjvh4xs2mi,3dqq64tankysgdli97tlje1swu8pw7,MndBfPl7,2020-0188,2020-05-07,14:37:07,15:00:08,NA,incomplete,43,shape,1,left,Red_Star_Grid_4.jpg,Blue_Star_Stripes_1.jpg,Red_Circle_Chess_3.jpg,left,740,true,low,NA,NA,NA,NA,NA,NA,NA,false
MndBfPl7,36d1bwbeiqeywas4c57kpjvh4xs2mi,3dqq64tankysgdli97tlje1swu8pw7,MndBfPl7,2020-0188,2020-05-07,14:37:07,15:00:08,NA,incomplete,44,shape,1,right,Blue_Plus_Stripes_2.jpg,Blue_Star_Dots_4.jpg,Red_Plus_Grid_3.jpg,right,836,true,low,NA,NA,NA,NA,NA,NA,NA,false
MndBfPl7,36d1bwbeiqeywas4c57kpjvh4xs2mi,3dqq64tankysgdli97tlje1swu8pw7,MndBfPl7,2020-0188,2020-05-07,14:37:07,15:00:08,NA,incomplete,45,shape,1,left,Green_Circle_Stripes_4.jpg,Red_Circle_Grid_1.jpg,Green_Triangle_Chess_3.jpg,left,729,true,low,NA,NA,NA,NA,NA,NA,NA,false
MndBfPl7,36d1bwbeiqeywas4c57kpjvh4xs2mi,3dqq64tankysgdli97tlje1swu8pw7,MndBfPl7,2020-0188,2020-05-07,14:37:07,15:00:08,NA,incomplete,46,shape,1,right,Purple_Plus_Grid_4.jpg,Purple_Star_Stripes_1.jpg,Green_Plus_Dots_3.jpg,left,760,false,low,NA,NA,NA,NA,NA,NA,NA,false
MndBfPl7,36d1bwbeiqeywas4c57kpjvh4xs2mi,3dqq64tankysgdli97tlje1swu8pw7,MndBfPl7,2020-0188,2020-05-07,14:37:07,15:00:08,NA,incomplete,47,shape,1,left,Green_Triangle_Dots_1.jpg,Purple_Triangle_Chess_4.jpg,Green_Star_Grid_3.jpg,left,805,true,low,NA,NA,NA,NA,NA,NA,NA,false
MndBfPl7,36d1bwbeiqeywas4c57kpjvh4xs2mi,3dqq64tankysgdli97tlje1swu8pw7,MndBfPl7,2020-0188,2020-05-07,14:37:07,15:00:08,NA,incomplete,48,shape,1,left,Blue_Plus_Chess_4.jpg,Red_Plus_Stripes_1.jpg,Blue_Circle_Dots_3.jpg,left,816,true,low,NA,NA,NA,NA,NA,NA,NA,false
MndBfPl7,36d1bwbeiqeywas4c57kpjvh4xs2mi,3dqq64tankysgdli97tlje1swu8pw7,MndBfPl7,2020-0188,2020-05-07,14:37:07,15:00:08,NA,incomplete,49,shape,0,right,Green_Plus_Stripes_4.jpg,Green_Circle_Dots_2.jpg,Red_Plus_Chess_3.jpg,right,716,true,low,NA,NA,NA,NA,NA,NA,NA,false
MndBfPl7,36d1bwbeiqeywas4c57kpjvh4xs2mi,3dqq64tankysgdli97tlje1swu8pw7,MndBfPl7,2020-0188,2020-05-07,14:37:07,15:00:08,NA,incomplete,50,shape,1,left,Green_Circle_Grid_4.jpg,Purple_Circle_Dots_2.jpg,Green_Plus_Stripes_1.jpg,left,732,true,low,NA,NA,NA,NA,NA,NA,NA,false
MndBfPl7,36d1bwbeiqeywas4c57kpjvh4xs2mi,3dqq64tankysgdli97tlje1swu8pw7,MndBfPl7,2020-0188,2020-05-07,14:37:07,15:00:08,NA,incomplete,51,shape,1,right,Green_Star_Chess_4.jpg,Green_Plus_Dots_2.jpg,Red_Star_Grid_1.jpg,right,756,true,low,NA,NA,NA,NA,NA,NA,NA,false
MndBfPl7,36d1bwbeiqeywas4c57kpjvh4xs2mi,3dqq64tankysgdli97tlje1swu8pw7,MndBfPl7,2020-0188,2020-05-07,14:37:07,15:00:08,NA,incomplete,52,shape,1,left,Red_Triangle_Grid_3.jpg,Purple_Triangle_Stripes_1.jpg,Red_Plus_Dots_4.jpg,left,698,true,low,NA,NA,NA,NA,NA,NA,NA,false
MndBfPl7,36d1bwbeiqeywas4c57kpjvh4xs2mi,3dqq64tankysgdli97tlje1swu8pw7,MndBfPl7,2020-0188,2020-05-07,14:37:07,15:00:08,NA,incomplete,53,shape,1,left,Purple_Circle_Grid_1.jpg,Red_Circle_Dots_3.jpg,Purple_Plus_Chess_2.jpg,left,698,true,low,NA,NA,NA,NA,NA,NA,NA,false
MndBfPl7,36d1bwbeiqeywas4c57kpjvh4xs2mi,3dqq64tankysgdli97tlje1swu8pw7,MndBfPl7,2020-0188,2020-05-07,14:37:07,15:00:08,NA,incomplete,54,shape,1,left,Green_Circle_Stripes_3.jpg,Red_Circle_Chess_4.jpg,Green_Star_Dots_1.jpg,left,724,true,low,NA,NA,NA,NA,NA,NA,NA,false
MndBfPl7,36d1bwbeiqeywas4c57kpjvh4xs2mi,3dqq64tankysgdli97tlje1swu8pw7,MndBfPl7,2020-0188,2020-05-07,14:37:07,15:00:08,NA,incomplete,55,shape,0,left,Green_Triangle_Chess_4.jpg,Purple_Triangle_Grid_1.jpg,Green_Star_Stripes_3.jpg,left,747,true,low,NA,NA,NA,NA,NA,NA,NA,false
MndBfPl7,36d1bwbeiqeywas4c57kpjvh4xs2mi,3dqq64tankysgdli97tlje1swu8pw7,MndBfPl7,2020-0188,2020-05-07,14:37:07,15:00:08,NA,incomplete,56,shape,1,left,Red_Star_Dots_1.jpg,Green_Star_Grid_4.jpg,Red_Circle_Chess_2.jpg,left,697,true,low,NA,NA,NA,NA,NA,NA,NA,false
MndBfPl7,36d1bwbeiqeywas4c57kpjvh4xs2mi,3dqq64tankysgdli97tlje1swu8pw7,MndBfPl7,2020-0188,2020-05-07,14:37:07,15:00:08,NA,incomplete,57,shape,1,left,Green_Triangle_Dots_4.jpg,Purple_Triangle_Chess_2.jpg,Green_Plus_Stripes_3.jpg,left,842,true,low,NA,NA,NA,NA,NA,NA,NA,false
MndBfPl7,36d1bwbeiqeywas4c57kpjvh4xs2mi,3dqq64tankysgdli97tlje1swu8pw7,MndBfPl7,2020-0188,2020-05-07,14:37:07,15:00:08,NA,incomplete,58,shape,1,left,Purple_Plus_Grid_3.jpg,Green_Plus_Chess_2.jpg,Purple_Triangle_Stripes_4.jpg,left,654,true,low,NA,NA,NA,NA,NA,NA,NA,false
MndBfPl7,36d1bwbeiqeywas4c57kpjvh4xs2mi,3dqq64tankysgdli97tlje1swu8pw7,MndBfPl7,2020-0188,2020-05-07,14:37:07,15:00:08,NA,incomplete,59,shape,1,left,Red_Triangle_Dots_4.jpg,Green_Triangle_Grid_3.jpg,Red_Star_Chess_1.jpg,left,752,true,low,NA,NA,NA,NA,NA,NA,NA,false
MndBfPl7,36d1bwbeiqeywas4c57kpjvh4xs2mi,3dqq64tankysgdli97tlje1swu8pw7,MndBfPl7,2020-0188,2020-05-07,14:37:07,15:00:08,NA,incomplete,60,color,1,right,Red_Plus_Grid_3.jpg,Blue_Plus_Dots_2.jpg,Red_Circle_Chess_4.jpg,left,703,false,low,NA,NA,NA,NA,NA,NA,NA,false
MndBfPl7,36d1bwbeiqeywas4c57kpjvh4xs2mi,3dqq64tankysgdli97tlje1swu8pw7,MndBfPl7,2020-0188,2020-05-07,14:37:07,15:00:08,NA,incomplete,61,color,1,right,Purple_Star_Grid_2.jpg,Red_Star_Stripes_4.jpg,Purple_Triangle_Dots_3.jpg,left,711,false,low,NA,NA,NA,NA,NA,NA,NA,false
MndBfPl7,36d1bwbeiqeywas4c57kpjvh4xs2mi,3dqq64tankysgdli97tlje1swu8pw7,MndBfPl7,2020-0188,2020-05-07,14:37:07,15:00:08,NA,incomplete,62,color,1,right,Purple_Plus_Dots_4.jpg,Blue_Plus_Stripes_3.jpg,Purple_Triangle_Chess_1.jpg,right,735,true,low,NA,NA,NA,NA,NA,NA,NA,false
MndBfPl7,36d1bwbeiqeywas4c57kpjvh4xs2mi,3dqq64tankysgdli97tlje1swu8pw7,MndBfPl7,2020-0188,2020-05-07,14:37:07,15:00:08,NA,incomplete,63,color,1,right,Green_Triangle_Stripes_2.jpg,Blue_Triangle_Grid_3.jpg,Green_Plus_Chess_1.jpg,right,590,true,low,NA,NA,NA,NA,NA,NA,NA,false
MndBfPl7,36d1bwbeiqeywas4c57kpjvh4xs2mi,3dqq64tankysgdli97tlje1swu8pw7,MndBfPl7,2020-0188,2020-05-07,14:37:07,15:00:08,NA,incomplete,64,color,1,right,Purple_Circle_Dots_2.jpg,Red_Circle_Stripes_4.jpg,Purple_Triangle_Chess_3.jpg,right,964,true,low,NA,NA,NA,NA,NA,NA,NA,false
MndBfPl7,36d1bwbeiqeywas4c57kpjvh4xs2mi,3dqq64tankysgdli97tlje1swu8pw7,MndBfPl7,2020-0188,2020-05-07,14:37:07,15:00:08,NA,incomplete,65,color,0,left,Blue_Star_Stripes_3.jpg,Blue_Circle_Dots_4.jpg,Purple_Star_Chess_2.jpg,left,578,true,low,NA,NA,NA,NA,NA,NA,NA,false
MndBfPl7,36d1bwbeiqeywas4c57kpjvh4xs2mi,3dqq64tankysgdli97tlje1swu8pw7,MndBfPl7,2020-0188,2020-05-07,14:37:07,15:00:08,NA,incomplete,66,color,1,left,Green_Star_Chess_1.jpg,Green_Plus_Stripes_3.jpg,Purple_Star_Grid_4.jpg,left,679,true,low,NA,NA,NA,NA,NA,NA,NA,false
MndBfPl7,36d1bwbeiqeywas4c57kpjvh4xs2mi,3dqq64tankysgdli97tlje1swu8pw7,MndBfPl7,2020-0188,2020-05-07,14:37:07,15:00:08,NA,incomplete,67,color,1,left,Blue_Star_Stripes_4.jpg,Blue_Circle_Dots_2.jpg,Green_Star_Grid_1.jpg,left,690,true,low,NA,NA,NA,NA,NA,NA,NA,false
MndBfPl7,36d1bwbeiqeywas4c57kpjvh4xs2mi,3dqq64tankysgdli97tlje1swu8pw7,MndBfPl7,2020-0188,2020-05-07,14:37:07,15:00:08,NA,incomplete,68,color,0,left,Blue_Plus_Grid_1.jpg,Blue_Triangle_Chess_2.jpg,Green_Plus_Stripes_4.jpg,left,513,true,low,NA,NA,NA,NA,NA,NA,NA,false
MndBfPl7,36d1bwbeiqeywas4c57kpjvh4xs2mi,3dqq64tankysgdli97tlje1swu8pw7,MndBfPl7,2020-0188,2020-05-07,14:37:07,15:00:08,NA,incomplete,69,color,0,right,Green_Star_Dots_4.jpg,Red_Star_Stripes_1.jpg,Green_Circle_Chess_3.jpg,right,603,true,low,NA,NA,NA,NA,NA,NA,NA,false
MndBfPl7,36d1bwbeiqeywas4c57kpjvh4xs2mi,3dqq64tankysgdli97tlje1swu8pw7,MndBfPl7,2020-0188,2020-05-07,14:37:07,15:00:08,NA,incomplete,70,color,0,right,Purple_Circle_Grid_1.jpg,Blue_Circle_Stripes_3.jpg,Purple_Plus_Chess_4.jpg,right,656,true,low,NA,NA,NA,NA,NA,NA,NA,false
MndBfPl7,36d1bwbeiqeywas4c57kpjvh4xs2mi,3dqq64tankysgdli97tlje1swu8pw7,MndBfPl7,2020-0188,2020-05-07,14:37:07,15:00:08,NA,incomplete,71,color,0,right,Red_Plus_Grid_4.jpg,Blue_Plus_Stripes_1.jpg,Red_Triangle_Chess_3.jpg,left,787,false,low,NA,NA,NA,NA,NA,NA,NA,false
MndBfPl7,36d1bwbeiqeywas4c57kpjvh4xs2mi,3dqq64tankysgdli97tlje1swu8pw7,MndBfPl7,2020-0188,2020-05-07,14:37:07,15:00:08,NA,incomplete,72,color,1,right,Red_Star_Dots_1.jpg,Green_Star_Grid_2.jpg,Red_Circle_Chess_3.jpg,left,839,false,low,NA,NA,NA,NA,NA,NA,NA,false
MndBfPl7,36d1bwbeiqeywas4c57kpjvh4xs2mi,3dqq64tankysgdli97tlje1swu8pw7,MndBfPl7,2020-0188,2020-05-07,14:37:07,15:00:08,NA,incomplete,73,color,1,right,Red_Star_Dots_3.jpg,Blue_Star_Stripes_2.jpg,Red_Triangle_Chess_4.jpg,left,713,false,low,NA,NA,NA,NA,NA,NA,NA,false
MndBfPl7,36d1bwbeiqeywas4c57kpjvh4xs2mi,3dqq64tankysgdli97tlje1swu8pw7,MndBfPl7,2020-0188,2020-05-07,14:37:07,15:00:08,NA,incomplete,74,color,1,left,Purple_Star_Stripes_4.jpg,Purple_Circle_Dots_3.jpg,Red_Star_Grid_2.jpg,left,770,true,low,NA,NA,NA,NA,NA,NA,NA,false
MndBfPl7,36d1bwbeiqeywas4c57kpjvh4xs2mi,3dqq64tankysgdli97tlje1swu8pw7,MndBfPl7,2020-0188,2020-05-07,14:37:07,15:00:08,NA,incomplete,75,color,1,left,Blue_Triangle_Grid_2.jpg,Blue_Star_Dots_3.jpg,Green_Triangle_Chess_1.jpg,left,671,true,low,NA,NA,NA,NA,NA,NA,NA,false
MndBfPl7,36d1bwbeiqeywas4c57kpjvh4xs2mi,3dqq64tankysgdli97tlje1swu8pw7,MndBfPl7,2020-0188,2020-05-07,14:37:07,15:00:08,NA,incomplete,76,color,0,right,Purple_Circle_Stripes_4.jpg,Red_Circle_Chess_1.jpg,Purple_Triangle_Grid_2.jpg,right,1352,true,low,NA,NA,NA,NA,NA,NA,NA,false
MndBfPl7,36d1bwbeiqeywas4c57kpjvh4xs2mi,3dqq64tankysgdli97tlje1swu8pw7,MndBfPl7,2020-0188,2020-05-07,14:37:07,15:00:08,NA,incomplete,77,color,1,right,Green_Triangle_Stripes_4.jpg,Purple_Triangle_Chess_3.jpg,Green_Circle_Dots_1.jpg,right,717,true,low,NA,NA,NA,NA,NA,NA,NA,false
MndBfPl7,36d1bwbeiqeywas4c57kpjvh4xs2mi,3dqq64tankysgdli97tlje1swu8pw7,MndBfPl7,2020-0188,2020-05-07,14:37:07,15:00:08,NA,incomplete,78,color,1,right,Purple_Plus_Stripes_4.jpg,Red_Plus_Dots_3.jpg,Purple_Triangle_Grid_2.jpg,right,750,true,low,NA,NA,NA,NA,NA,NA,NA,false
MndBfPl7,36d1bwbeiqeywas4c57kpjvh4xs2mi,3dqq64tankysgdli97tlje1swu8pw7,MndBfPl7,2020-0188,2020-05-07,14:37:07,15:00:08,NA,incomplete,79,color,1,left,Purple_Triangle_Dots_2.jpg,Purple_Star_Stripes_3.jpg,Blue_Triangle_Chess_4.jpg,left,644,true,low,NA,NA,NA,NA,NA,NA,NA,false
MndBfPl7,36d1bwbeiqeywas4c57kpjvh4xs2mi,3dqq64tankysgdli97tlje1swu8pw7,MndBfPl7,2020-0188,2020-05-07,14:37:07,15:00:08,NA,incomplete,80,color,1,left,Green_Star_Stripes_1.jpg,Green_Triangle_Dots_4.jpg,Blue_Star_Chess_3.jpg,left,1072,true,low,NA,NA,NA,NA,NA,NA,NA,false
MndBfPl7,36d1bwbeiqeywas4c57kpjvh4xs2mi,3dqq64tankysgdli97tlje1swu8pw7,MndBfPl7,2020-0188,2020-05-07,14:37:07,15:00:08,NA,incomplete,81,color,1,left,Blue_Star_Dots_1.jpg,Blue_Plus_Stripes_4.jpg,Purple_Star_Chess_2.jpg,left,527,true,low,NA,NA,NA,NA,NA,NA,NA,false
MndBfPl7,36d1bwbeiqeywas4c57kpjvh4xs2mi,3dqq64tankysgdli97tlje1swu8pw7,MndBfPl7,2020-0188,2020-05-07,14:37:07,15:00:08,NA,incomplete,82,color,1,left,Blue_Star_Chess_4.jpg,Blue_Triangle_Stripes_2.jpg,Green_Star_Grid_3.jpg,left,583,true,low,NA,NA,NA,NA,NA,NA,NA,false
MndBfPl7,36d1bwbeiqeywas4c57kpjvh4xs2mi,3dqq64tankysgdli97tlje1swu8pw7,MndBfPl7,2020-0188,2020-05-07,14:37:07,15:00:08,NA,incomplete,83,color,1,right,Red_Star_Chess_2.jpg,Blue_Star_Stripes_4.jpg,Red_Plus_Dots_1.jpg,right,541,true,low,NA,NA,NA,NA,NA,NA,NA,false
MndBfPl7,36d1bwbeiqeywas4c57kpjvh4xs2mi,3dqq64tankysgdli97tlje1swu8pw7,MndBfPl7,2020-0188,2020-05-07,14:37:07,15:00:08,NA,incomplete,84,color,1,left,Blue_Star_Grid_3.jpg,Blue_Triangle_Dots_1.jpg,Purple_Star_Stripes_2.jpg,left,550,true,low,NA,NA,NA,NA,NA,NA,NA,false
MndBfPl7,36d1bwbeiqeywas4c57kpjvh4xs2mi,3dqq64tankysgdli97tlje1swu8pw7,MndBfPl7,2020-0188,2020-05-07,14:37:07,15:00:08,NA,incomplete,85,color,1,right,Purple_Circle_Stripes_2.jpg,Red_Circle_Chess_4.jpg,Purple_Star_Grid_1.jpg,right,573,true,low,NA,NA,NA,NA,NA,NA,NA,false
MndBfPl7,36d1bwbeiqeywas4c57kpjvh4xs2mi,3dqq64tankysgdli97tlje1swu8pw7,MndBfPl7,2020-0188,2020-05-07,14:37:07,15:00:08,NA,incomplete,86,color,1,left,Red_Circle_Stripes_1.jpg,Red_Star_Dots_3.jpg,Blue_Circle_Chess_2.jpg,left,547,true,low,NA,NA,NA,NA,NA,NA,NA,false
MndBfPl7,36d1bwbeiqeywas4c57kpjvh4xs2mi,3dqq64tankysgdli97tlje1swu8pw7,MndBfPl7,2020-0188,2020-05-07,14:37:07,15:00:08,NA,incomplete,87,color,1,right,Green_Triangle_Chess_1.jpg,Purple_Triangle_Grid_4.jpg,Green_Circle_Stripes_2.jpg,right,530,true,low,NA,NA,NA,NA,NA,NA,NA,false
MndBfPl7,36d1bwbeiqeywas4c57kpjvh4xs2mi,3dqq64tankysgdli97tlje1swu8pw7,MndBfPl7,2020-0188,2020-05-07,14:37:07,15:00:08,NA,incomplete,88,color,1,left,Blue_Plus_Chess_4.jpg,Blue_Circle_Dots_1.jpg,Red_Plus_Grid_3.jpg,left,603,true,low,NA,NA,NA,NA,NA,NA,NA,false
MndBfPl7,36d1bwbeiqeywas4c57kpjvh4xs2mi,3dqq64tankysgdli97tlje1swu8pw7,MndBfPl7,2020-0188,2020-05-07,14:37:07,15:00:08,NA,incomplete,89,color,1,right,Purple_Circle_Grid_4.jpg,Red_Circle_Stripes_3.jpg,Purple_Triangle_Dots_2.jpg,right,567,true,low,NA,NA,NA,NA,NA,NA,NA,false
MndBfPl7,36d1bwbeiqeywas4c57kpjvh4xs2mi,3dqq64tankysgdli97tlje1swu8pw7,MndBfPl7,2020-0188,2020-05-07,14:37:07,15:00:08,NA,incomplete,90,shape,1,left,Blue_Circle_Stripes_4.jpg,Purple_Circle_Dots_3.jpg,Blue_Triangle_Grid_1.jpg,right,622,false,low,NA,NA,NA,NA,NA,NA,NA,false
MndBfPl7,36d1bwbeiqeywas4c57kpjvh4xs2mi,3dqq64tankysgdli97tlje1swu8pw7,MndBfPl7,2020-0188,2020-05-07,14:37:07,15:00:08,NA,incomplete,91,shape,1,right,Green_Triangle_Dots_2.jpg,Green_Star_Grid_4.jpg,Blue_Triangle_Stripes_1.jpg,left,562,false,low,NA,NA,NA,NA,NA,NA,NA,false
MndBfPl7,36d1bwbeiqeywas4c57kpjvh4xs2mi,3dqq64tankysgdli97tlje1swu8pw7,MndBfPl7,2020-0188,2020-05-07,14:37:07,15:00:08,NA,incomplete,92,shape,1,right,Blue_Circle_Dots_3.jpg,Blue_Star_Grid_4.jpg,Green_Circle_Chess_1.jpg,left,601,false,low,NA,NA,NA,NA,NA,NA,NA,false
MndBfPl7,36d1bwbeiqeywas4c57kpjvh4xs2mi,3dqq64tankysgdli97tlje1swu8pw7,MndBfPl7,2020-0188,2020-05-07,14:37:07,15:00:08,NA,incomplete,93,shape,1,right,Green_Triangle_Grid_2.jpg,Green_Star_Stripes_3.jpg,Red_Triangle_Chess_4.jpg,right,775,true,low,NA,NA,NA,NA,NA,NA,NA,false
MndBfPl7,36d1bwbeiqeywas4c57kpjvh4xs2mi,3dqq64tankysgdli97tlje1swu8pw7,MndBfPl7,2020-0188,2020-05-07,14:37:07,15:00:08,NA,incomplete,94,shape,1,left,Red_Plus_Dots_3.jpg,Purple_Plus_Chess_2.jpg,Red_Star_Grid_4.jpg,left,1003,true,low,NA,NA,NA,NA,NA,NA,NA,false
MndBfPl7,36d1bwbeiqeywas4c57kpjvh4xs2mi,3dqq64tankysgdli97tlje1swu8pw7,MndBfPl7,2020-0188,2020-05-07,14:37:07,15:00:08,NA,incomplete,95,shape,1,right,Green_Circle_Dots_1.jpg,Green_Plus_Chess_3.jpg,Red_Circle_Stripes_4.jpg,right,679,true,low,NA,NA,NA,NA,NA,NA,NA,false
MndBfPl7,36d1bwbeiqeywas4c57kpjvh4xs2mi,3dqq64tankysgdli97tlje1swu8pw7,MndBfPl7,2020-0188,2020-05-07,14:37:07,15:00:08,NA,incomplete,96,shape,1,right,Green_Circle_Dots_3.jpg,Green_Star_Grid_4.jpg,Red_Circle_Stripes_1.jpg,right,665,true,low,NA,NA,NA,NA,NA,NA,NA,false
MndBfPl7,36d1bwbeiqeywas4c57kpjvh4xs2mi,3dqq64tankysgdli97tlje1swu8pw7,MndBfPl7,2020-0188,2020-05-07,14:37:07,15:00:08,NA,incomplete,97,shape,1,left,Red_Circle_Chess_2.jpg,Green_Circle_Dots_3.jpg,Red_Triangle_Grid_4.jpg,left,684,true,low,NA,NA,NA,NA,NA,NA,NA,false
MndBfPl7,36d1bwbeiqeywas4c57kpjvh4xs2mi,3dqq64tankysgdli97tlje1swu8pw7,MndBfPl7,2020-0188,2020-05-07,14:37:07,15:00:08,NA,incomplete,98,shape,1,right,Blue_Triangle_Grid_1.jpg,Blue_Star_Stripes_3.jpg,Purple_Triangle_Chess_4.jpg,right,661,true,low,NA,NA,NA,NA,NA,NA,NA,false
MndBfPl7,36d1bwbeiqeywas4c57kpjvh4xs2mi,3dqq64tankysgdli97tlje1swu8pw7,MndBfPl7,2020-0188,2020-05-07,14:37:07,15:00:08,NA,incomplete,99,shape,1,left,Blue_Star_Chess_1.jpg,Red_Star_Stripes_3.jpg,Blue_Triangle_Grid_2.jpg,left,623,true,low,NA,NA,NA,NA,NA,NA,NA,false
MndBfPl7,36d1bwbeiqeywas4c57kpjvh4xs2mi,3dqq64tankysgdli97tlje1swu8pw7,MndBfPl7,2020-0188,2020-05-07,14:37:07,15:00:08,NA,incomplete,100,shape,0,right,Blue_Plus_Dots_2.jpg,Blue_Circle_Grid_1.jpg,Purple_Plus_Stripes_4.jpg,right,604,true,low,NA,NA,NA,NA,NA,NA,NA,false
MndBfPl7,36d1bwbeiqeywas4c57kpjvh4xs2mi,3dqq64tankysgdli97tlje1swu8pw7,MndBfPl7,2020-0188,2020-05-07,14:37:07,15:00:08,NA,incomplete,101,shape,1,right,Blue_Star_Chess_4.jpg,Blue_Plus_Grid_1.jpg,Green_Star_Stripes_3.jpg,right,641,true,low,NA,NA,NA,NA,NA,NA,NA,false
MndBfPl7,36d1bwbeiqeywas4c57kpjvh4xs2mi,3dqq64tankysgdli97tlje1swu8pw7,MndBfPl7,2020-0188,2020-05-07,14:37:07,15:00:08,NA,incomplete,102,shape,1,right,Blue_Star_Stripes_1.jpg,Blue_Plus_Grid_4.jpg,Green_Star_Dots_2.jpg,right,690,true,low,NA,NA,NA,NA,NA,NA,NA,false
MndBfPl7,36d1bwbeiqeywas4c57kpjvh4xs2mi,3dqq64tankysgdli97tlje1swu8pw7,MndBfPl7,2020-0188,2020-05-07,14:37:07,15:00:08,NA,incomplete,103,shape,1,left,Red_Circle_Stripes_2.jpg,Green_Circle_Grid_1.jpg,Red_Plus_Dots_3.jpg,left,669,true,low,NA,NA,NA,NA,NA,NA,NA,false
MndBfPl7,36d1bwbeiqeywas4c57kpjvh4xs2mi,3dqq64tankysgdli97tlje1swu8pw7,MndBfPl7,2020-0188,2020-05-07,14:37:07,15:00:08,NA,incomplete,104,shape,1,left,Green_Circle_Grid_4.jpg,Blue_Circle_Stripes_1.jpg,Green_Star_Dots_2.jpg,left,631,true,low,NA,NA,NA,NA,NA,NA,NA,false
MndBfPl7,36d1bwbeiqeywas4c57kpjvh4xs2mi,3dqq64tankysgdli97tlje1swu8pw7,MndBfPl7,2020-0188,2020-05-07,14:37:07,15:00:08,NA,incomplete,105,shape,1,left,Red_Plus_Dots_2.jpg,Purple_Plus_Grid_4.jpg,Red_Triangle_Chess_3.jpg,left,755,true,low,NA,NA,NA,NA,NA,NA,NA,false
MndBfPl7,36d1bwbeiqeywas4c57kpjvh4xs2mi,3dqq64tankysgdli97tlje1swu8pw7,MndBfPl7,2020-0188,2020-05-07,14:37:07,15:00:08,NA,incomplete,106,shape,1,right,Green_Triangle_Chess_4.jpg,Green_Star_Stripes_2.jpg,Purple_Triangle_Dots_1.jpg,right,759,true,low,NA,NA,NA,NA,NA,NA,NA,false
MndBfPl7,36d1bwbeiqeywas4c57kpjvh4xs2mi,3dqq64tankysgdli97tlje1swu8pw7,MndBfPl7,2020-0188,2020-05-07,14:37:07,15:00:08,NA,incomplete,107,shape,0,left,Green_Triangle_Chess_2.jpg,Red_Triangle_Grid_1.jpg,Green_Plus_Stripes_3.jpg,left,655,true,low,NA,NA,NA,NA,NA,NA,NA,false
MndBfPl7,36d1bwbeiqeywas4c57kpjvh4xs2mi,3dqq64tankysgdli97tlje1swu8pw7,MndBfPl7,2020-0188,2020-05-07,14:37:07,15:00:08,NA,incomplete,108,shape,1,left,Green_Plus_Chess_3.jpg,Red_Plus_Dots_2.jpg,Green_Star_Grid_1.jpg,left,761,true,low,NA,NA,NA,NA,NA,NA,NA,false
MndBfPl7,36d1bwbeiqeywas4c57kpjvh4xs2mi,3dqq64tankysgdli97tlje1swu8pw7,MndBfPl7,2020-0188,2020-05-07,14:37:07,15:00:08,NA,incomplete,109,shape,1,left,Purple_Star_Stripes_1.jpg,Green_Star_Grid_4.jpg,Purple_Triangle_Dots_3.jpg,left,663,true,low,NA,NA,NA,NA,NA,NA,NA,false
MndBfPl7,36d1bwbeiqeywas4c57kpjvh4xs2mi,3dqq64tankysgdli97tlje1swu8pw7,MndBfPl7,2020-0188,2020-05-07,14:37:07,15:00:08,NA,incomplete,110,shape,1,left,Blue_Plus_Grid_4.jpg,Purple_Plus_Dots_3.jpg,Blue_Star_Chess_2.jpg,left,720,true,low,NA,NA,NA,NA,NA,NA,NA,false
MndBfPl7,36d1bwbeiqeywas4c57kpjvh4xs2mi,3dqq64tankysgdli97tlje1swu8pw7,MndBfPl7,2020-0188,2020-05-07,14:37:07,15:00:08,NA,incomplete,111,shape,1,left,Blue_Plus_Dots_1.jpg,Red_Plus_Stripes_2.jpg,Blue_Circle_Chess_3.jpg,left,673,true,low,NA,NA,NA,NA,NA,NA,NA,false
MndBfPl7,36d1bwbeiqeywas4c57kpjvh4xs2mi,3dqq64tankysgdli97tlje1swu8pw7,MndBfPl7,2020-0188,2020-05-07,14:37:07,15:00:08,NA,incomplete,112,shape,0,left,Green_Plus_Chess_3.jpg,Purple_Plus_Dots_1.jpg,Green_Circle_Stripes_4.jpg,left,698,true,low,NA,NA,NA,NA,NA,NA,NA,false
MndBfPl7,36d1bwbeiqeywas4c57kpjvh4xs2mi,3dqq64tankysgdli97tlje1swu8pw7,MndBfPl7,2020-0188,2020-05-07,14:37:07,15:00:08,NA,incomplete,113,shape,0,right,Green_Circle_Dots_1.jpg,Green_Star_Stripes_2.jpg,Blue_Circle_Grid_3.jpg,right,572,true,low,NA,NA,NA,NA,NA,NA,NA,false
MndBfPl7,36d1bwbeiqeywas4c57kpjvh4xs2mi,3dqq64tankysgdli97tlje1swu8pw7,MndBfPl7,2020-0188,2020-05-07,14:37:07,15:00:08,NA,incomplete,114,shape,0,left,Blue_Star_Chess_4.jpg,Green_Star_Grid_2.jpg,Blue_Circle_Stripes_3.jpg,left,818,true,low,NA,NA,NA,NA,NA,NA,NA,false
MndBfPl7,36d1bwbeiqeywas4c57kpjvh4xs2mi,3dqq64tankysgdli97tlje1swu8pw7,MndBfPl7,2020-0188,2020-05-07,14:37:07,15:00:08,NA,incomplete,115,shape,1,right,Green_Plus_Chess_2.jpg,Green_Triangle_Dots_1.jpg,Purple_Plus_Stripes_4.jpg,left,710,false,low,NA,NA,NA,NA,NA,NA,NA,false
MndBfPl7,36d1bwbeiqeywas4c57kpjvh4xs2mi,3dqq64tankysgdli97tlje1swu8pw7,MndBfPl7,2020-0188,2020-05-07,14:37:07,15:00:08,NA,incomplete,116,shape,0,left,Green_Circle_Grid_2.jpg,Red_Circle_Dots_1.jpg,Green_Plus_Chess_4.jpg,left,686,true,low,NA,NA,NA,NA,NA,NA,NA,false
MndBfPl7,36d1bwbeiqeywas4c57kpjvh4xs2mi,3dqq64tankysgdli97tlje1swu8pw7,MndBfPl7,2020-0188,2020-05-07,14:37:07,15:00:08,NA,incomplete,117,shape,0,right,Blue_Star_Stripes_2.jpg,Blue_Plus_Chess_1.jpg,Red_Star_Grid_3.jpg,left,1104,false,low,NA,NA,NA,NA,NA,NA,NA,false
MndBfPl7,36d1bwbeiqeywas4c57kpjvh4xs2mi,3dqq64tankysgdli97tlje1swu8pw7,MndBfPl7,2020-0188,2020-05-07,14:37:07,15:00:08,NA,incomplete,118,shape,1,right,Green_Triangle_Grid_3.jpg,Green_Plus_Dots_4.jpg,Red_Triangle_Chess_1.jpg,left,765,false,low,NA,NA,NA,NA,NA,NA,NA,false
MndBfPl7,36d1bwbeiqeywas4c57kpjvh4xs2mi,3dqq64tankysgdli97tlje1swu8pw7,MndBfPl7,2020-0188,2020-05-07,14:37:07,15:00:08,NA,incomplete,119,shape,0,left,Red_Star_Chess_4.jpg,Purple_Star_Dots_2.jpg,Red_Circle_Stripes_1.jpg,right,699,false,low,NA,NA,NA,NA,NA,NA,NA,false
MndBfPl7,36d1bwbeiqeywas4c57kpjvh4xs2mi,3dqq64tankysgdli97tlje1swu8pw7,MndBfPl7,2020-0188,2020-05-07,14:37:07,15:00:08,NA,incomplete,120,color,1,left,Purple_Star_Chess_1.jpg,Purple_Plus_Grid_2.jpg,Green_Star_Stripes_4.jpg,left,638,true,low,NA,NA,NA,NA,NA,NA,NA,false
MndBfPl7,36d1bwbeiqeywas4c57kpjvh4xs2mi,3dqq64tankysgdli97tlje1swu8pw7,MndBfPl7,2020-0188,2020-05-07,14:37:07,15:00:08,NA,incomplete,121,color,1,right,Blue_Triangle_Dots_3.jpg,Red_Triangle_Stripes_1.jpg,Blue_Plus_Chess_4.jpg,right,729,true,low,NA,NA,NA,NA,NA,NA,NA,false
MndBfPl7,36d1bwbeiqeywas4c57kpjvh4xs2mi,3dqq64tankysgdli97tlje1swu8pw7,MndBfPl7,2020-0188,2020-05-07,14:37:07,15:00:08,NA,incomplete,122,color,0,left,Blue_Triangle_Stripes_4.jpg,Blue_Plus_Dots_3.jpg,Purple_Triangle_Chess_2.jpg,left,576,true,low,NA,NA,NA,NA,NA,NA,NA,false
MndBfPl7,36d1bwbeiqeywas4c57kpjvh4xs2mi,3dqq64tankysgdli97tlje1swu8pw7,MndBfPl7,2020-0188,2020-05-07,14:37:07,15:00:08,NA,incomplete,123,color,1,right,Green_Triangle_Grid_2.jpg,Purple_Triangle_Dots_1.jpg,Green_Plus_Stripes_3.jpg,right,542,true,low,NA,NA,NA,NA,NA,NA,NA,false
MndBfPl7,36d1bwbeiqeywas4c57kpjvh4xs2mi,3dqq64tankysgdli97tlje1swu8pw7,MndBfPl7,2020-0188,2020-05-07,14:37:07,15:00:08,NA,incomplete,124,color,0,left,Green_Circle_Dots_3.jpg,Green_Star_Stripes_2.jpg,Blue_Circle_Chess_1.jpg,left,558,true,low,NA,NA,NA,NA,NA,NA,NA,false
MndBfPl7,36d1bwbeiqeywas4c57kpjvh4xs2mi,3dqq64tankysgdli97tlje1swu8pw7,MndBfPl7,2020-0188,2020-05-07,14:37:07,15:00:08,NA,incomplete,125,color,1,right,Blue_Circle_Chess_3.jpg,Red_Circle_Stripes_2.jpg,Blue_Triangle_Grid_1.jpg,right,885,true,low,NA,NA,NA,NA,NA,NA,NA,false
MndBfPl7,36d1bwbeiqeywas4c57kpjvh4xs2mi,3dqq64tankysgdli97tlje1swu8pw7,MndBfPl7,2020-0188,2020-05-07,14:37:07,15:00:08,NA,incomplete,126,color,0,right,Red_Plus_Dots_3.jpg,Purple_Plus_Grid_2.jpg,Red_Triangle_Stripes_1.jpg,right,557,true,low,NA,NA,NA,NA,NA,NA,NA,false
MndBfPl7,36d1bwbeiqeywas4c57kpjvh4xs2mi,3dqq64tankysgdli97tlje1swu8pw7,MndBfPl7,2020-0188,2020-05-07,14:37:07,15:00:08,NA,incomplete,127,color,1,right,Blue_Plus_Grid_3.jpg,Purple_Plus_Chess_2.jpg,Blue_Star_Stripes_4.jpg,right,597,true,low,NA,NA,NA,NA,NA,NA,NA,false
MndBfPl7,36d1bwbeiqeywas4c57kpjvh4xs2mi,3dqq64tankysgdli97tlje1swu8pw7,MndBfPl7,2020-0188,2020-05-07,14:37:07,15:00:08,NA,incomplete,128,color,1,right,Red_Plus_Stripes_2.jpg,Blue_Plus_Chess_1.jpg,Red_Star_Grid_3.jpg,right,521,true,low,NA,NA,NA,NA,NA,NA,NA,false
MndBfPl7,36d1bwbeiqeywas4c57kpjvh4xs2mi,3dqq64tankysgdli97tlje1swu8pw7,MndBfPl7,2020-0188,2020-05-07,14:37:07,15:00:08,NA,incomplete,129,color,1,right,Blue_Plus_Stripes_3.jpg,Purple_Plus_Dots_2.jpg,Blue_Star_Chess_1.jpg,right,578,true,low,NA,NA,NA,NA,NA,NA,NA,false
MndBfPl7,36d1bwbeiqeywas4c57kpjvh4xs2mi,3dqq64tankysgdli97tlje1swu8pw7,MndBfPl7,2020-0188,2020-05-07,14:37:07,15:00:08,NA,incomplete,130,color,1,right,Green_Circle_Chess_3.jpg,Red_Circle_Stripes_1.jpg,Green_Triangle_Grid_4.jpg,right,632,true,low,NA,NA,NA,NA,NA,NA,NA,false
MndBfPl7,36d1bwbeiqeywas4c57kpjvh4xs2mi,3dqq64tankysgdli97tlje1swu8pw7,MndBfPl7,2020-0188,2020-05-07,14:37:07,15:00:08,NA,incomplete,131,color,1,left,Purple_Star_Dots_4.jpg,Purple_Circle_Chess_3.jpg,Green_Star_Stripes_2.jpg,left,587,true,low,NA,NA,NA,NA,NA,NA,NA,false
MndBfPl7,36d1bwbeiqeywas4c57kpjvh4xs2mi,3dqq64tankysgdli97tlje1swu8pw7,MndBfPl7,2020-0188,2020-05-07,14:37:07,15:00:08,NA,incomplete,132,color,1,right,Blue_Star_Grid_4.jpg,Purple_Star_Dots_2.jpg,Blue_Circle_Chess_1.jpg,right,625,true,low,NA,NA,NA,NA,NA,NA,NA,false
MndBfPl7,36d1bwbeiqeywas4c57kpjvh4xs2mi,3dqq64tankysgdli97tlje1swu8pw7,MndBfPl7,2020-0188,2020-05-07,14:37:07,15:00:08,NA,incomplete,133,color,1,left,Blue_Star_Grid_3.jpg,Blue_Plus_Dots_1.jpg,Green_Star_Chess_4.jpg,left,630,true,low,NA,NA,NA,NA,NA,NA,NA,false
MndBfPl7,36d1bwbeiqeywas4c57kpjvh4xs2mi,3dqq64tankysgdli97tlje1swu8pw7,MndBfPl7,2020-0188,2020-05-07,14:37:07,15:00:08,NA,incomplete,134,color,0,left,Red_Star_Chess_1.jpg,Red_Circle_Stripes_3.jpg,Purple_Star_Dots_2.jpg,left,481,true,low,NA,NA,NA,NA,NA,NA,NA,false
MndBfPl7,36d1bwbeiqeywas4c57kpjvh4xs2mi,3dqq64tankysgdli97tlje1swu8pw7,MndBfPl7,2020-0188,2020-05-07,14:37:07,15:00:08,NA,incomplete,135,color,1,right,Red_Triangle_Dots_4.jpg,Green_Triangle_Stripes_1.jpg,Red_Star_Chess_3.jpg,right,595,true,low,NA,NA,NA,NA,NA,NA,NA,false
MndBfPl7,36d1bwbeiqeywas4c57kpjvh4xs2mi,3dqq64tankysgdli97tlje1swu8pw7,MndBfPl7,2020-0188,2020-05-07,14:37:07,15:00:08,NA,incomplete,136,color,0,left,Purple_Circle_Chess_4.jpg,Purple_Triangle_Dots_1.jpg,Red_Circle_Grid_3.jpg,left,649,true,low,NA,NA,NA,NA,NA,NA,NA,false
MndBfPl7,36d1bwbeiqeywas4c57kpjvh4xs2mi,3dqq64tankysgdli97tlje1swu8pw7,MndBfPl7,2020-0188,2020-05-07,14:37:07,15:00:08,NA,incomplete,137,color,1,left,Blue_Plus_Stripes_4.jpg,Blue_Triangle_Chess_2.jpg,Purple_Plus_Grid_1.jpg,left,987,true,low,NA,NA,NA,NA,NA,NA,NA,false
MndBfPl7,36d1bwbeiqeywas4c57kpjvh4xs2mi,3dqq64tankysgdli97tlje1swu8pw7,MndBfPl7,2020-0188,2020-05-07,14:37:07,15:00:08,NA,incomplete,138,color,1,right,Purple_Triangle_Grid_3.jpg,Red_Triangle_Stripes_2.jpg,Purple_Circle_Chess_4.jpg,right,583,true,low,NA,NA,NA,NA,NA,NA,NA,false
MndBfPl7,36d1bwbeiqeywas4c57kpjvh4xs2mi,3dqq64tankysgdli97tlje1swu8pw7,MndBfPl7,2020-0188,2020-05-07,14:37:07,15:00:08,NA,incomplete,139,color,1,left,Purple_Triangle_Dots_3.jpg,Purple_Circle_Chess_2.jpg,Red_Triangle_Stripes_1.jpg,left,590,true,low,NA,NA,NA,NA,NA,NA,NA,false
MndBfPl7,36d1bwbeiqeywas4c57kpjvh4xs2mi,3dqq64tankysgdli97tlje1swu8pw7,MndBfPl7,2020-0188,2020-05-07,14:37:07,15:00:08,NA,incomplete,140,shape,1,right,Red_Plus_Chess_4.jpg,Red_Circle_Dots_1.jpg,Blue_Plus_Stripes_2.jpg,left,626,false,low,NA,NA,NA,NA,NA,NA,NA,false
MndBfPl7,36d1bwbeiqeywas4c57kpjvh4xs2mi,3dqq64tankysgdli97tlje1swu8pw7,MndBfPl7,2020-0188,2020-05-07,14:37:07,15:00:08,NA,incomplete,141,shape,1,right,Purple_Triangle_Chess_2.jpg,Purple_Plus_Grid_4.jpg,Blue_Triangle_Stripes_1.jpg,left,583,false,low,NA,NA,NA,NA,NA,NA,NA,false
MndBfPl7,36d1bwbeiqeywas4c57kpjvh4xs2mi,3dqq64tankysgdli97tlje1swu8pw7,MndBfPl7,2020-0188,2020-05-07,14:37:07,15:00:08,NA,incomplete,142,shape,0,right,Purple_Star_Grid_3.jpg,Purple_Circle_Chess_4.jpg,Green_Star_Stripes_1.jpg,right,812,true,low,NA,NA,NA,NA,NA,NA,NA,false
MndBfPl7,36d1bwbeiqeywas4c57kpjvh4xs2mi,3dqq64tankysgdli97tlje1swu8pw7,MndBfPl7,2020-0188,2020-05-07,14:37:07,15:00:08,NA,incomplete,143,shape,1,right,Green_Circle_Dots_1.jpg,Green_Plus_Stripes_4.jpg,Blue_Circle_Chess_3.jpg,right,833,true,low,NA,NA,NA,NA,NA,NA,NA,false
MndBfPl7,36d1bwbeiqeywas4c57kpjvh4xs2mi,3dqq64tankysgdli97tlje1swu8pw7,MndBfPl7,2020-0188,2020-05-07,14:37:07,15:00:08,NA,incomplete,144,shape,0,left,Blue_Plus_Grid_1.jpg,Purple_Plus_Dots_3.jpg,Blue_Star_Chess_4.jpg,right,788,false,low,NA,NA,NA,NA,NA,NA,NA,false
MndBfPl7,36d1bwbeiqeywas4c57kpjvh4xs2mi,3dqq64tankysgdli97tlje1swu8pw7,MndBfPl7,2020-0188,2020-05-07,14:37:07,15:00:08,NA,incomplete,145,shape,1,right,Red_Star_Chess_3.jpg,Red_Plus_Stripes_2.jpg,Green_Star_Dots_4.jpg,left,824,false,low,NA,NA,NA,NA,NA,NA,NA,false
MndBfPl7,36d1bwbeiqeywas4c57kpjvh4xs2mi,3dqq64tankysgdli97tlje1swu8pw7,MndBfPl7,2020-0188,2020-05-07,14:37:07,15:00:08,NA,incomplete,146,shape,1,right,Purple_Circle_Stripes_4.jpg,Purple_Plus_Chess_3.jpg,Red_Circle_Grid_2.jpg,right,724,true,low,NA,NA,NA,NA,NA,NA,NA,false
MndBfPl7,36d1bwbeiqeywas4c57kpjvh4xs2mi,3dqq64tankysgdli97tlje1swu8pw7,MndBfPl7,2020-0188,2020-05-07,14:37:07,15:00:08,NA,incomplete,147,shape,0,right,Blue_Triangle_Grid_4.jpg,Blue_Star_Chess_1.jpg,Green_Triangle_Stripes_2.jpg,right,684,true,low,NA,NA,NA,NA,NA,NA,NA,false
MndBfPl7,36d1bwbeiqeywas4c57kpjvh4xs2mi,3dqq64tankysgdli97tlje1swu8pw7,MndBfPl7,2020-0188,2020-05-07,14:37:07,15:00:08,NA,incomplete,148,shape,1,left,Purple_Plus_Dots_2.jpg,Blue_Plus_Grid_1.jpg,Purple_Triangle_Chess_3.jpg,left,757,true,low,NA,NA,NA,NA,NA,NA,NA,false
MndBfPl7,36d1bwbeiqeywas4c57kpjvh4xs2mi,3dqq64tankysgdli97tlje1swu8pw7,MndBfPl7,2020-0188,2020-05-07,14:37:07,15:00:08,NA,incomplete,149,shape,1,right,Green_Triangle_Dots_3.jpg,Green_Star_Stripes_4.jpg,Red_Triangle_Grid_1.jpg,right,858,true,low,NA,NA,NA,NA,NA,NA,NA,false
MndBfPl7,36d1bwbeiqeywas4c57kpjvh4xs2mi,3dqq64tankysgdli97tlje1swu8pw7,MndBfPl7,2020-0188,2020-05-07,14:37:07,15:00:08,NA,incomplete,150,shape,1,right,Purple_Triangle_Dots_3.jpg,Purple_Plus_Chess_2.jpg,Green_Triangle_Grid_4.jpg,right,725,true,low,NA,NA,NA,NA,NA,NA,NA,false
MndBfPl7,36d1bwbeiqeywas4c57kpjvh4xs2mi,3dqq64tankysgdli97tlje1swu8pw7,MndBfPl7,2020-0188,2020-05-07,14:37:07,15:00:08,NA,incomplete,151,shape,0,right,Red_Circle_Chess_1.jpg,Red_Triangle_Stripes_4.jpg,Blue_Circle_Dots_2.jpg,right,1004,true,low,NA,NA,NA,NA,NA,NA,NA,false
MndBfPl7,36d1bwbeiqeywas4c57kpjvh4xs2mi,3dqq64tankysgdli97tlje1swu8pw7,MndBfPl7,2020-0188,2020-05-07,14:37:07,15:00:08,NA,incomplete,152,shape,1,right,Blue_Plus_Grid_3.jpg,Blue_Star_Dots_2.jpg,Red_Plus_Stripes_1.jpg,right,912,true,low,NA,NA,NA,NA,NA,NA,NA,false
MndBfPl7,36d1bwbeiqeywas4c57kpjvh4xs2mi,3dqq64tankysgdli97tlje1swu8pw7,MndBfPl7,2020-0188,2020-05-07,14:37:07,15:00:08,NA,incomplete,153,shape,1,left,Red_Circle_Stripes_1.jpg,Purple_Circle_Chess_3.jpg,Red_Star_Grid_4.jpg,left,704,true,low,NA,NA,NA,NA,NA,NA,NA,false
MndBfPl7,36d1bwbeiqeywas4c57kpjvh4xs2mi,3dqq64tankysgdli97tlje1swu8pw7,MndBfPl7,2020-0188,2020-05-07,14:37:07,15:00:08,NA,incomplete,154,shape,0,left,Purple_Plus_Dots_1.jpg,Red_Plus_Stripes_4.jpg,Purple_Triangle_Grid_2.jpg,left,863,true,low,NA,NA,NA,NA,NA,NA,NA,false
MndBfPl7,36d1bwbeiqeywas4c57kpjvh4xs2mi,3dqq64tankysgdli97tlje1swu8pw7,MndBfPl7,2020-0188,2020-05-07,14:37:07,15:00:08,NA,incomplete,155,shape,1,right,Blue_Circle_Chess_2.jpg,Blue_Triangle_Grid_4.jpg,Purple_Circle_Dots_3.jpg,right,826,true,low,NA,NA,NA,NA,NA,NA,NA,false
MndBfPl7,36d1bwbeiqeywas4c57kpjvh4xs2mi,3dqq64tankysgdli97tlje1swu8pw7,MndBfPl7,2020-0188,2020-05-07,14:37:07,15:00:08,NA,incomplete,156,shape,0,right,Blue_Triangle_Chess_4.jpg,Blue_Plus_Grid_3.jpg,Purple_Triangle_Stripes_1.jpg,right,780,true,low,NA,NA,NA,NA,NA,NA,NA,false
MndBfPl7,36d1bwbeiqeywas4c57kpjvh4xs2mi,3dqq64tankysgdli97tlje1swu8pw7,MndBfPl7,2020-0188,2020-05-07,14:37:07,15:00:08,NA,incomplete,157,shape,1,left,Green_Triangle_Grid_1.jpg,Red_Triangle_Chess_3.jpg,Green_Circle_Dots_4.jpg,left,738,true,low,NA,NA,NA,NA,NA,NA,NA,false
MndBfPl7,36d1bwbeiqeywas4c57kpjvh4xs2mi,3dqq64tankysgdli97tlje1swu8pw7,MndBfPl7,2020-0188,2020-05-07,14:37:07,15:00:08,NA,incomplete,158,shape,1,right,Blue_Star_Grid_2.jpg,Blue_Triangle_Chess_3.jpg,Green_Star_Stripes_1.jpg,right,880,true,low,NA,NA,NA,NA,NA,NA,NA,false
MndBfPl7,36d1bwbeiqeywas4c57kpjvh4xs2mi,3dqq64tankysgdli97tlje1swu8pw7,MndBfPl7,2020-0188,2020-05-07,14:37:07,15:00:08,NA,incomplete,159,shape,1,right,Green_Star_Stripes_4.jpg,Green_Triangle_Dots_3.jpg,Red_Star_Chess_1.jpg,right,681,true,low,NA,NA,NA,NA,NA,NA,NA,false
MndBfPl7,36d1bwbeiqeywas4c57kpjvh4xs2mi,3dqq64tankysgdli97tlje1swu8pw7,MndBfPl7,2020-0188,2020-05-07,14:37:07,15:00:08,NA,incomplete,160,color,1,right,Blue_Plus_Stripes_3.jpg,Purple_Plus_Grid_2.jpg,Blue_Triangle_Chess_1.jpg,left,756,false,low,NA,NA,NA,NA,NA,NA,NA,false
MndBfPl7,36d1bwbeiqeywas4c57kpjvh4xs2mi,3dqq64tankysgdli97tlje1swu8pw7,MndBfPl7,2020-0188,2020-05-07,14:37:07,15:00:08,NA,incomplete,161,color,0,right,Green_Plus_Stripes_4.jpg,Purple_Plus_Chess_3.jpg,Green_Triangle_Grid_1.jpg,left,809,false,low,NA,NA,NA,NA,NA,NA,NA,false
MndBfPl7,36d1bwbeiqeywas4c57kpjvh4xs2mi,3dqq64tankysgdli97tlje1swu8pw7,MndBfPl7,2020-0188,2020-05-07,14:37:07,15:00:08,NA,incomplete,162,color,1,right,Red_Circle_Stripes_1.jpg,Purple_Circle_Dots_3.jpg,Red_Plus_Chess_2.jpg,left,709,false,low,NA,NA,NA,NA,NA,NA,NA,false
MndBfPl7,36d1bwbeiqeywas4c57kpjvh4xs2mi,3dqq64tankysgdli97tlje1swu8pw7,MndBfPl7,2020-0188,2020-05-07,14:37:07,15:00:08,NA,incomplete,163,color,1,right,Purple_Triangle_Stripes_1.jpg,Blue_Triangle_Grid_4.jpg,Purple_Star_Chess_2.jpg,left,741,false,low,NA,NA,NA,NA,NA,NA,NA,false
MndBfPl7,36d1bwbeiqeywas4c57kpjvh4xs2mi,3dqq64tankysgdli97tlje1swu8pw7,MndBfPl7,2020-0188,2020-05-07,14:37:07,15:00:08,NA,incomplete,164,color,0,left,Purple_Triangle_Chess_1.jpg,Purple_Plus_Stripes_3.jpg,Red_Triangle_Grid_4.jpg,right,1133,false,low,NA,NA,NA,NA,NA,NA,NA,false
MndBfPl7,36d1bwbeiqeywas4c57kpjvh4xs2mi,3dqq64tankysgdli97tlje1swu8pw7,MndBfPl7,2020-0188,2020-05-07,14:37:07,15:00:08,NA,incomplete,165,color,1,left,Blue_Circle_Grid_3.jpg,Blue_Star_Chess_1.jpg,Green_Circle_Stripes_2.jpg,right,722,false,low,NA,NA,NA,NA,NA,NA,NA,false
MndBfPl7,36d1bwbeiqeywas4c57kpjvh4xs2mi,3dqq64tankysgdli97tlje1swu8pw7,MndBfPl7,2020-0188,2020-05-07,14:37:07,15:00:08,NA,incomplete,166,color,1,left,Green_Triangle_Dots_2.jpg,Green_Circle_Grid_4.jpg,Purple_Triangle_Chess_1.jpg,left,721,true,low,NA,NA,NA,NA,NA,NA,NA,false
MndBfPl7,36d1bwbeiqeywas4c57kpjvh4xs2mi,3dqq64tankysgdli97tlje1swu8pw7,MndBfPl7,2020-0188,2020-05-07,14:37:07,15:00:08,NA,incomplete,167,color,1,right,Red_Star_Dots_1.jpg,Purple_Star_Stripes_3.jpg,Red_Plus_Grid_2.jpg,right,1169,true,low,NA,NA,NA,NA,NA,NA,NA,false
MndBfPl7,36d1bwbeiqeywas4c57kpjvh4xs2mi,3dqq64tankysgdli97tlje1swu8pw7,MndBfPl7,2020-0188,2020-05-07,14:37:07,15:00:08,NA,incomplete,168,color,1,right,Red_Circle_Stripes_2.jpg,Blue_Circle_Chess_1.jpg,Red_Star_Grid_3.jpg,right,606,true,low,NA,NA,NA,NA,NA,NA,NA,false
MndBfPl7,36d1bwbeiqeywas4c57kpjvh4xs2mi,3dqq64tankysgdli97tlje1swu8pw7,MndBfPl7,2020-0188,2020-05-07,14:37:07,15:00:08,NA,incomplete,169,color,1,left,Red_Star_Stripes_4.jpg,Red_Plus_Chess_3.jpg,Green_Star_Dots_1.jpg,left,682,true,low,NA,NA,NA,NA,NA,NA,NA,false
MndBfPl7,36d1bwbeiqeywas4c57kpjvh4xs2mi,3dqq64tankysgdli97tlje1swu8pw7,MndBfPl7,2020-0188,2020-05-07,14:37:07,15:00:08,NA,incomplete,170,color,0,left,Red_Plus_Grid_4.jpg,Red_Circle_Chess_1.jpg,Green_Plus_Stripes_2.jpg,left,877,true,low,NA,NA,NA,NA,NA,NA,NA,false
MndBfPl7,36d1bwbeiqeywas4c57kpjvh4xs2mi,3dqq64tankysgdli97tlje1swu8pw7,MndBfPl7,2020-0188,2020-05-07,14:37:07,15:00:08,NA,incomplete,171,color,1,left,Red_Triangle_Dots_3.jpg,Red_Plus_Grid_1.jpg,Blue_Triangle_Stripes_2.jpg,left,718,true,low,NA,NA,NA,NA,NA,NA,NA,false
MndBfPl7,36d1bwbeiqeywas4c57kpjvh4xs2mi,3dqq64tankysgdli97tlje1swu8pw7,MndBfPl7,2020-0188,2020-05-07,14:37:07,15:00:08,NA,incomplete,172,color,1,left,Green_Circle_Chess_1.jpg,Green_Plus_Grid_2.jpg,Purple_Circle_Dots_4.jpg,left,670,true,low,NA,NA,NA,NA,NA,NA,NA,false
MndBfPl7,36d1bwbeiqeywas4c57kpjvh4xs2mi,3dqq64tankysgdli97tlje1swu8pw7,MndBfPl7,2020-0188,2020-05-07,14:37:07,15:00:08,NA,incomplete,173,color,1,left,Red_Circle_Dots_3.jpg,Red_Triangle_Stripes_4.jpg,Blue_Circle_Grid_1.jpg,left,600,true,low,NA,NA,NA,NA,NA,NA,NA,false
MndBfPl7,36d1bwbeiqeywas4c57kpjvh4xs2mi,3dqq64tankysgdli97tlje1swu8pw7,MndBfPl7,2020-0188,2020-05-07,14:37:07,15:00:08,NA,incomplete,174,color,1,left,Blue_Star_Grid_3.jpg,Blue_Circle_Stripes_2.jpg,Red_Star_Chess_4.jpg,left,612,true,low,NA,NA,NA,NA,NA,NA,NA,false
MndBfPl7,36d1bwbeiqeywas4c57kpjvh4xs2mi,3dqq64tankysgdli97tlje1swu8pw7,MndBfPl7,2020-0188,2020-05-07,14:37:07,15:00:08,NA,incomplete,175,color,0,right,Red_Star_Grid_2.jpg,Blue_Star_Dots_4.jpg,Red_Circle_Stripes_1.jpg,right,562,true,low,NA,NA,NA,NA,NA,NA,NA,false
MndBfPl7,36d1bwbeiqeywas4c57kpjvh4xs2mi,3dqq64tankysgdli97tlje1swu8pw7,MndBfPl7,2020-0188,2020-05-07,14:37:07,15:00:08,NA,incomplete,176,color,1,right,Purple_Plus_Grid_1.jpg,Blue_Plus_Dots_3.jpg,Purple_Star_Stripes_2.jpg,right,536,true,low,NA,NA,NA,NA,NA,NA,NA,false
MndBfPl7,36d1bwbeiqeywas4c57kpjvh4xs2mi,3dqq64tankysgdli97tlje1swu8pw7,MndBfPl7,2020-0188,2020-05-07,14:37:07,15:00:08,NA,incomplete,177,color,1,right,Purple_Star_Dots_1.jpg,Blue_Star_Grid_4.jpg,Purple_Circle_Stripes_2.jpg,right,599,true,low,NA,NA,NA,NA,NA,NA,NA,false
MndBfPl7,36d1bwbeiqeywas4c57kpjvh4xs2mi,3dqq64tankysgdli97tlje1swu8pw7,MndBfPl7,2020-0188,2020-05-07,14:37:07,15:00:08,NA,incomplete,178,color,1,left,Blue_Star_Dots_4.jpg,Blue_Triangle_Stripes_3.jpg,Red_Star_Grid_1.jpg,left,581,true,low,NA,NA,NA,NA,NA,NA,NA,false
MndBfPl7,36d1bwbeiqeywas4c57kpjvh4xs2mi,3dqq64tankysgdli97tlje1swu8pw7,MndBfPl7,2020-0188,2020-05-07,14:37:07,15:00:08,NA,incomplete,179,color,0,left,Green_Star_Stripes_3.jpg,Green_Circle_Chess_2.jpg,Blue_Star_Dots_1.jpg,left,619,true,low,NA,NA,NA,NA,NA,NA,NA,false
MndBfPl7,36d1bwbeiqeywas4c57kpjvh4xs2mi,3dqq64tankysgdli97tlje1swu8pw7,MndBfPl7,2020-0188,2020-05-07,14:37:07,15:00:08,NA,incomplete,180,shape,1,left,Green_Circle_Dots_1.jpg,Red_Circle_Chess_2.jpg,Green_Star_Stripes_4.jpg,right,584,false,low,NA,NA,NA,NA,NA,NA,NA,false
MndBfPl7,36d1bwbeiqeywas4c57kpjvh4xs2mi,3dqq64tankysgdli97tlje1swu8pw7,MndBfPl7,2020-0188,2020-05-07,14:37:07,15:00:08,NA,incomplete,181,shape,0,right,Blue_Plus_Grid_1.jpg,Blue_Circle_Chess_3.jpg,Green_Plus_Dots_4.jpg,right,812,true,low,NA,NA,NA,NA,NA,NA,NA,false
MndBfPl7,36d1bwbeiqeywas4c57kpjvh4xs2mi,3dqq64tankysgdli97tlje1swu8pw7,MndBfPl7,2020-0188,2020-05-07,14:37:07,15:00:08,NA,incomplete,182,shape,1,left,Blue_Circle_Dots_4.jpg,Purple_Circle_Chess_1.jpg,Blue_Star_Grid_3.jpg,left,736,true,low,NA,NA,NA,NA,NA,NA,NA,false
MndBfPl7,36d1bwbeiqeywas4c57kpjvh4xs2mi,3dqq64tankysgdli97tlje1swu8pw7,MndBfPl7,2020-0188,2020-05-07,14:37:07,15:00:08,NA,incomplete,183,shape,1,right,Red_Circle_Chess_4.jpg,Red_Plus_Grid_1.jpg,Blue_Circle_Dots_3.jpg,right,865,true,low,NA,NA,NA,NA,NA,NA,NA,false
MndBfPl7,36d1bwbeiqeywas4c57kpjvh4xs2mi,3dqq64tankysgdli97tlje1swu8pw7,MndBfPl7,2020-0188,2020-05-07,14:37:07,15:00:08,NA,incomplete,184,shape,1,left,Green_Circle_Dots_4.jpg,Purple_Circle_Grid_2.jpg,Green_Star_Chess_3.jpg,left,706,true,low,NA,NA,NA,NA,NA,NA,NA,false
MndBfPl7,36d1bwbeiqeywas4c57kpjvh4xs2mi,3dqq64tankysgdli97tlje1swu8pw7,MndBfPl7,2020-0188,2020-05-07,14:37:07,15:00:08,NA,incomplete,185,shape,1,right,Red_Triangle_Chess_1.jpg,Red_Plus_Stripes_3.jpg,Green_Triangle_Dots_4.jpg,right,745,true,low,NA,NA,NA,NA,NA,NA,NA,false
MndBfPl7,36d1bwbeiqeywas4c57kpjvh4xs2mi,3dqq64tankysgdli97tlje1swu8pw7,MndBfPl7,2020-0188,2020-05-07,14:37:07,15:00:08,NA,incomplete,186,shape,0,right,Purple_Circle_Grid_1.jpg,Purple_Triangle_Chess_3.jpg,Blue_Circle_Dots_4.jpg,right,609,true,low,NA,NA,NA,NA,NA,NA,NA,false
MndBfPl7,36d1bwbeiqeywas4c57kpjvh4xs2mi,3dqq64tankysgdli97tlje1swu8pw7,MndBfPl7,2020-0188,2020-05-07,14:37:07,15:00:08,NA,incomplete,187,shape,1,right,Red_Circle_Dots_3.jpg,Red_Triangle_Chess_1.jpg,Green_Circle_Grid_4.jpg,right,638,true,low,NA,NA,NA,NA,NA,NA,NA,false
MndBfPl7,36d1bwbeiqeywas4c57kpjvh4xs2mi,3dqq64tankysgdli97tlje1swu8pw7,MndBfPl7,2020-0188,2020-05-07,14:37:07,15:00:08,NA,incomplete,188,shape,1,right,Blue_Star_Stripes_1.jpg,Blue_Circle_Chess_3.jpg,Purple_Star_Dots_2.jpg,right,649,true,low,NA,NA,NA,NA,NA,NA,NA,false
MndBfPl7,36d1bwbeiqeywas4c57kpjvh4xs2mi,3dqq64tankysgdli97tlje1swu8pw7,MndBfPl7,2020-0188,2020-05-07,14:37:07,15:00:08,NA,incomplete,189,shape,1,left,Green_Plus_Stripes_4.jpg,Blue_Plus_Dots_1.jpg,Green_Star_Grid_2.jpg,left,691,true,low,NA,NA,NA,NA,NA,NA,NA,false
MndBfPl7,36d1bwbeiqeywas4c57kpjvh4xs2mi,3dqq64tankysgdli97tlje1swu8pw7,MndBfPl7,2020-0188,2020-05-07,14:37:07,15:00:08,NA,incomplete,190,shape,1,right,Green_Circle_Grid_3.jpg,Green_Triangle_Dots_4.jpg,Blue_Circle_Chess_1.jpg,right,541,true,low,NA,NA,NA,NA,NA,NA,NA,false
MndBfPl7,36d1bwbeiqeywas4c57kpjvh4xs2mi,3dqq64tankysgdli97tlje1swu8pw7,MndBfPl7,2020-0188,2020-05-07,14:37:07,15:00:08,NA,incomplete,191,shape,1,left,Red_Circle_Dots_4.jpg,Purple_Circle_Grid_1.jpg,Red_Star_Chess_2.jpg,left,643,true,low,NA,NA,NA,NA,NA,NA,NA,false
MndBfPl7,36d1bwbeiqeywas4c57kpjvh4xs2mi,3dqq64tankysgdli97tlje1swu8pw7,MndBfPl7,2020-0188,2020-05-07,14:37:07,15:00:08,NA,incomplete,192,shape,1,right,Purple_Plus_Stripes_3.jpg,Purple_Circle_Grid_1.jpg,Blue_Plus_Dots_4.jpg,right,671,true,low,NA,NA,NA,NA,NA,NA,NA,false
MndBfPl7,36d1bwbeiqeywas4c57kpjvh4xs2mi,3dqq64tankysgdli97tlje1swu8pw7,MndBfPl7,2020-0188,2020-05-07,14:37:07,15:00:08,NA,incomplete,193,shape,1,left,Purple_Plus_Dots_3.jpg,Red_Plus_Chess_4.jpg,Purple_Triangle_Grid_1.jpg,right,632,false,low,NA,NA,NA,NA,NA,NA,NA,false
MndBfPl7,36d1bwbeiqeywas4c57kpjvh4xs2mi,3dqq64tankysgdli97tlje1swu8pw7,MndBfPl7,2020-0188,2020-05-07,14:37:07,15:00:08,NA,incomplete,194,shape,1,right,Green_Plus_Grid_1.jpg,Green_Star_Stripes_3.jpg,Purple_Plus_Chess_2.jpg,right,709,true,low,NA,NA,NA,NA,NA,NA,NA,false
MndBfPl7,36d1bwbeiqeywas4c57kpjvh4xs2mi,3dqq64tankysgdli97tlje1swu8pw7,MndBfPl7,2020-0188,2020-05-07,14:37:07,15:00:08,NA,incomplete,195,shape,1,right,Blue_Circle_Chess_3.jpg,Blue_Triangle_Dots_1.jpg,Purple_Circle_Stripes_4.jpg,right,613,true,low,NA,NA,NA,NA,NA,NA,NA,false
MndBfPl7,36d1bwbeiqeywas4c57kpjvh4xs2mi,3dqq64tankysgdli97tlje1swu8pw7,MndBfPl7,2020-0188,2020-05-07,14:37:07,15:00:08,NA,incomplete,196,shape,0,right,Purple_Plus_Stripes_4.jpg,Purple_Star_Chess_2.jpg,Red_Plus_Dots_1.jpg,right,794,true,low,NA,NA,NA,NA,NA,NA,NA,false
MndBfPl7,36d1bwbeiqeywas4c57kpjvh4xs2mi,3dqq64tankysgdli97tlje1swu8pw7,MndBfPl7,2020-0188,2020-05-07,14:37:07,15:00:08,NA,incomplete,197,shape,1,left,Purple_Triangle_Stripes_1.jpg,Green_Triangle_Chess_4.jpg,Purple_Circle_Dots_3.jpg,left,727,true,low,NA,NA,NA,NA,NA,NA,NA,false
MndBfPl7,36d1bwbeiqeywas4c57kpjvh4xs2mi,3dqq64tankysgdli97tlje1swu8pw7,MndBfPl7,2020-0188,2020-05-07,14:37:07,15:00:08,NA,incomplete,198,shape,1,right,Blue_Plus_Grid_4.jpg,Blue_Circle_Stripes_2.jpg,Green_Plus_Dots_1.jpg,right,765,true,low,NA,NA,NA,NA,NA,NA,NA,false
MndBfPl7,36d1bwbeiqeywas4c57kpjvh4xs2mi,3dqq64tankysgdli97tlje1swu8pw7,MndBfPl7,2020-0188,2020-05-07,14:37:07,15:00:08,NA,incomplete,199,shape,1,left,Red_Star_Chess_4.jpg,Green_Star_Dots_2.jpg,Red_Triangle_Stripes_3.jpg,left,715,true,low,NA,NA,NA,NA,NA,NA,NA,false
MndBfPl7,36d1bwbeiqeywas4c57kpjvh4xs2mi,3dqq64tankysgdli97tlje1swu8pw7,MndBfPl7,2020-0188,2020-05-07,14:37:07,15:00:08,NA,incomplete,200,color,1,right,Blue_Triangle_Dots_1.jpg,Green_Triangle_Stripes_3.jpg,Blue_Circle_Chess_2.jpg,left,755,false,low,NA,NA,NA,NA,NA,NA,NA,false
MndBfPl7,36d1bwbeiqeywas4c57kpjvh4xs2mi,3dqq64tankysgdli97tlje1swu8pw7,MndBfPl7,2020-0188,2020-05-07,14:37:07,15:00:08,NA,incomplete,201,color,1,right,Green_Circle_Chess_3.jpg,Purple_Circle_Grid_1.jpg,Green_Triangle_Stripes_2.jpg,left,715,false,low,NA,NA,NA,NA,NA,NA,NA,false
MndBfPl7,36d1bwbeiqeywas4c57kpjvh4xs2mi,3dqq64tankysgdli97tlje1swu8pw7,MndBfPl7,2020-0188,2020-05-07,14:37:07,15:00:08,NA,incomplete,202,color,1,left,Green_Circle_Stripes_3.jpg,Green_Plus_Dots_4.jpg,Purple_Circle_Chess_2.jpg,left,970,true,low,NA,NA,NA,NA,NA,NA,NA,false
MndBfPl7,36d1bwbeiqeywas4c57kpjvh4xs2mi,3dqq64tankysgdli97tlje1swu8pw7,MndBfPl7,2020-0188,2020-05-07,14:37:07,15:00:08,NA,incomplete,203,color,1,right,Green_Plus_Dots_2.jpg,Red_Plus_Chess_3.jpg,Green_Star_Stripes_4.jpg,right,1056,true,low,NA,NA,NA,NA,NA,NA,NA,false
MndBfPl7,36d1bwbeiqeywas4c57kpjvh4xs2mi,3dqq64tankysgdli97tlje1swu8pw7,MndBfPl7,2020-0188,2020-05-07,14:37:07,15:00:08,NA,incomplete,204,color,1,right,Green_Triangle_Chess_1.jpg,Red_Triangle_Grid_3.jpg,Green_Star_Stripes_2.jpg,right,544,true,low,NA,NA,NA,NA,NA,NA,NA,false
MndBfPl7,36d1bwbeiqeywas4c57kpjvh4xs2mi,3dqq64tankysgdli97tlje1swu8pw7,MndBfPl7,2020-0188,2020-05-07,14:37:07,15:00:08,NA,incomplete,205,color,0,right,Purple_Plus_Stripes_1.jpg,Green_Plus_Dots_4.jpg,Purple_Star_Grid_3.jpg,right,592,true,low,NA,NA,NA,NA,NA,NA,NA,false
MndBfPl7,36d1bwbeiqeywas4c57kpjvh4xs2mi,3dqq64tankysgdli97tlje1swu8pw7,MndBfPl7,2020-0188,2020-05-07,14:37:07,15:00:08,NA,incomplete,206,color,1,right,Purple_Plus_Stripes_4.jpg,Blue_Plus_Grid_2.jpg,Purple_Triangle_Dots_3.jpg,right,589,true,low,NA,NA,NA,NA,NA,NA,NA,false
MndBfPl7,36d1bwbeiqeywas4c57kpjvh4xs2mi,3dqq64tankysgdli97tlje1swu8pw7,MndBfPl7,2020-0188,2020-05-07,14:37:07,15:00:08,NA,incomplete,207,color,0,right,Purple_Plus_Grid_1.jpg,Blue_Plus_Chess_3.jpg,Purple_Star_Stripes_2.jpg,right,594,true,low,NA,NA,NA,NA,NA,NA,NA,false
MndBfPl7,36d1bwbeiqeywas4c57kpjvh4xs2mi,3dqq64tankysgdli97tlje1swu8pw7,MndBfPl7,2020-0188,2020-05-07,14:37:07,15:00:08,NA,incomplete,208,color,1,left,Green_Circle_Chess_3.jpg,Green_Triangle_Dots_2.jpg,Blue_Circle_Stripes_1.jpg,left,568,true,low,NA,NA,NA,NA,NA,NA,NA,false
MndBfPl7,36d1bwbeiqeywas4c57kpjvh4xs2mi,3dqq64tankysgdli97tlje1swu8pw7,MndBfPl7,2020-0188,2020-05-07,14:37:07,15:00:08,NA,incomplete,209,color,1,right,Purple_Star_Stripes_2.jpg,Blue_Star_Chess_1.jpg,Purple_Circle_Grid_4.jpg,right,566,true,low,NA,NA,NA,NA,NA,NA,NA,false
MndBfPl7,36d1bwbeiqeywas4c57kpjvh4xs2mi,3dqq64tankysgdli97tlje1swu8pw7,MndBfPl7,2020-0188,2020-05-07,14:37:07,15:00:08,NA,incomplete,210,color,1,right,Red_Plus_Dots_3.jpg,Purple_Plus_Grid_1.jpg,Red_Star_Chess_2.jpg,right,573,true,low,NA,NA,NA,NA,NA,NA,NA,false
MndBfPl7,36d1bwbeiqeywas4c57kpjvh4xs2mi,3dqq64tankysgdli97tlje1swu8pw7,MndBfPl7,2020-0188,2020-05-07,14:37:07,15:00:08,NA,incomplete,211,color,1,left,Purple_Triangle_Grid_3.jpg,Purple_Plus_Dots_4.jpg,Red_Triangle_Chess_2.jpg,left,628,true,low,NA,NA,NA,NA,NA,NA,NA,false
MndBfPl7,36d1bwbeiqeywas4c57kpjvh4xs2mi,3dqq64tankysgdli97tlje1swu8pw7,MndBfPl7,2020-0188,2020-05-07,14:37:07,15:00:08,NA,incomplete,212,color,0,left,Blue_Plus_Grid_4.jpg,Blue_Circle_Stripes_2.jpg,Red_Plus_Chess_3.jpg,left,630,true,low,NA,NA,NA,NA,NA,NA,NA,false
MndBfPl7,36d1bwbeiqeywas4c57kpjvh4xs2mi,3dqq64tankysgdli97tlje1swu8pw7,MndBfPl7,2020-0188,2020-05-07,14:37:07,15:00:08,NA,incomplete,213,color,1,right,Green_Circle_Dots_1.jpg,Blue_Circle_Stripes_2.jpg,Green_Star_Grid_3.jpg,right,707,true,low,NA,NA,NA,NA,NA,NA,NA,false
MndBfPl7,36d1bwbeiqeywas4c57kpjvh4xs2mi,3dqq64tankysgdli97tlje1swu8pw7,MndBfPl7,2020-0188,2020-05-07,14:37:07,15:00:08,NA,incomplete,214,color,1,left,Blue_Triangle_Grid_3.jpg,Blue_Star_Stripes_1.jpg,Purple_Triangle_Chess_4.jpg,left,604,true,low,NA,NA,NA,NA,NA,NA,NA,false
MndBfPl7,36d1bwbeiqeywas4c57kpjvh4xs2mi,3dqq64tankysgdli97tlje1swu8pw7,MndBfPl7,2020-0188,2020-05-07,14:37:07,15:00:08,NA,incomplete,215,color,1,right,Purple_Plus_Chess_3.jpg,Blue_Plus_Stripes_1.jpg,Purple_Star_Grid_4.jpg,right,513,true,low,NA,NA,NA,NA,NA,NA,NA,false
MndBfPl7,36d1bwbeiqeywas4c57kpjvh4xs2mi,3dqq64tankysgdli97tlje1swu8pw7,MndBfPl7,2020-0188,2020-05-07,14:37:07,15:00:08,NA,incomplete,216,color,1,right,Red_Triangle_Dots_2.jpg,Purple_Triangle_Chess_3.jpg,Red_Circle_Stripes_4.jpg,right,529,true,low,NA,NA,NA,NA,NA,NA,NA,false
MndBfPl7,36d1bwbeiqeywas4c57kpjvh4xs2mi,3dqq64tankysgdli97tlje1swu8pw7,MndBfPl7,2020-0188,2020-05-07,14:37:07,15:00:08,NA,incomplete,217,color,0,left,Blue_Plus_Grid_2.jpg,Blue_Triangle_Dots_1.jpg,Red_Plus_Stripes_4.jpg,left,513,true,low,NA,NA,NA,NA,NA,NA,NA,false
MndBfPl7,36d1bwbeiqeywas4c57kpjvh4xs2mi,3dqq64tankysgdli97tlje1swu8pw7,MndBfPl7,2020-0188,2020-05-07,14:37:07,15:00:08,NA,incomplete,218,color,1,right,Red_Plus_Grid_1.jpg,Blue_Plus_Stripes_2.jpg,Red_Circle_Dots_3.jpg,right,722,true,low,NA,NA,NA,NA,NA,NA,NA,false
MndBfPl7,36d1bwbeiqeywas4c57kpjvh4xs2mi,3dqq64tankysgdli97tlje1swu8pw7,MndBfPl7,2020-0188,2020-05-07,14:37:07,15:00:08,NA,incomplete,219,color,1,left,Red_Circle_Grid_2.jpg,Red_Triangle_Chess_3.jpg,Green_Circle_Stripes_4.jpg,left,1193,true,low,NA,NA,NA,NA,NA,NA,NA,false
MndBfPl7,36d1bwbeiqeywas4c57kpjvh4xs2mi,3dqq64tankysgdli97tlje1swu8pw7,MndBfPl7,2020-0188,2020-05-07,14:37:07,15:00:08,NA,incomplete,220,shape,1,right,Red_Triangle_Dots_2.jpg,Red_Star_Stripes_4.jpg,Green_Triangle_Chess_3.jpg,left,731,false,low,NA,NA,NA,NA,NA,NA,NA,false
MndBfPl7,36d1bwbeiqeywas4c57kpjvh4xs2mi,3dqq64tankysgdli97tlje1swu8pw7,MndBfPl7,2020-0188,2020-05-07,14:37:07,15:00:08,NA,incomplete,221,shape,1,right,Purple_Plus_Grid_4.jpg,Purple_Circle_Stripes_1.jpg,Green_Plus_Dots_3.jpg,right,1339,true,low,NA,NA,NA,NA,NA,NA,NA,false
MndBfPl7,36d1bwbeiqeywas4c57kpjvh4xs2mi,3dqq64tankysgdli97tlje1swu8pw7,MndBfPl7,2020-0188,2020-05-07,14:37:07,15:00:08,NA,incomplete,222,shape,1,right,Blue_Circle_Chess_4.jpg,Blue_Plus_Grid_3.jpg,Green_Circle_Stripes_1.jpg,right,1076,true,low,NA,NA,NA,NA,NA,NA,NA,false
MndBfPl7,36d1bwbeiqeywas4c57kpjvh4xs2mi,3dqq64tankysgdli97tlje1swu8pw7,MndBfPl7,2020-0188,2020-05-07,14:37:07,15:00:08,NA,incomplete,223,shape,1,left,Blue_Circle_Stripes_1.jpg,Green_Circle_Dots_3.jpg,Blue_Star_Chess_2.jpg,left,999,true,low,NA,NA,NA,NA,NA,NA,NA,false
MndBfPl7,36d1bwbeiqeywas4c57kpjvh4xs2mi,3dqq64tankysgdli97tlje1swu8pw7,MndBfPl7,2020-0188,2020-05-07,14:37:07,15:00:08,NA,incomplete,224,shape,1,right,Red_Circle_Grid_3.jpg,Red_Triangle_Dots_2.jpg,Purple_Circle_Chess_4.jpg,right,657,true,low,NA,NA,NA,NA,NA,NA,NA,false
MndBfPl7,36d1bwbeiqeywas4c57kpjvh4xs2mi,3dqq64tankysgdli97tlje1swu8pw7,MndBfPl7,2020-0188,2020-05-07,14:37:07,15:00:08,NA,incomplete,225,shape,1,right,Blue_Triangle_Chess_1.jpg,Blue_Plus_Grid_3.jpg,Red_Triangle_Dots_2.jpg,left,1012,false,low,NA,NA,NA,NA,NA,NA,NA,false
MndBfPl7,36d1bwbeiqeywas4c57kpjvh4xs2mi,3dqq64tankysgdli97tlje1swu8pw7,MndBfPl7,2020-0188,2020-05-07,14:37:07,15:00:08,NA,incomplete,226,shape,1,left,Blue_Star_Grid_2.jpg,Green_Star_Stripes_3.jpg,Blue_Triangle_Chess_4.jpg,left,822,true,low,NA,NA,NA,NA,NA,NA,NA,false
MndBfPl7,36d1bwbeiqeywas4c57kpjvh4xs2mi,3dqq64tankysgdli97tlje1swu8pw7,MndBfPl7,2020-0188,2020-05-07,14:37:07,15:00:08,NA,incomplete,227,shape,1,right,Purple_Triangle_Chess_3.jpg,Purple_Plus_Grid_1.jpg,Red_Triangle_Dots_2.jpg,right,793,true,low,NA,NA,NA,NA,NA,NA,NA,false
MndBfPl7,36d1bwbeiqeywas4c57kpjvh4xs2mi,3dqq64tankysgdli97tlje1swu8pw7,MndBfPl7,2020-0188,2020-05-07,14:37:07,15:00:08,NA,incomplete,228,shape,1,left,Red_Star_Chess_4.jpg,Green_Star_Grid_2.jpg,Red_Circle_Stripes_1.jpg,left,751,true,low,NA,NA,NA,NA,NA,NA,NA,false
MndBfPl7,36d1bwbeiqeywas4c57kpjvh4xs2mi,3dqq64tankysgdli97tlje1swu8pw7,MndBfPl7,2020-0188,2020-05-07,14:37:07,15:00:08,NA,incomplete,229,shape,1,right,Purple_Triangle_Stripes_2.jpg,Purple_Circle_Grid_1.jpg,Green_Triangle_Dots_3.jpg,right,701,true,low,NA,NA,NA,NA,NA,NA,NA,false
MndBfPl7,36d1bwbeiqeywas4c57kpjvh4xs2mi,3dqq64tankysgdli97tlje1swu8pw7,MndBfPl7,2020-0188,2020-05-07,14:37:07,15:00:08,NA,incomplete,230,shape,1,left,Blue_Star_Grid_1.jpg,Green_Star_Dots_4.jpg,Blue_Plus_Stripes_2.jpg,left,797,true,low,NA,NA,NA,NA,NA,NA,NA,false
MndBfPl7,36d1bwbeiqeywas4c57kpjvh4xs2mi,3dqq64tankysgdli97tlje1swu8pw7,MndBfPl7,2020-0188,2020-05-07,14:37:07,15:00:08,NA,incomplete,231,shape,1,left,Green_Circle_Grid_2.jpg,Red_Circle_Stripes_1.jpg,Green_Triangle_Chess_3.jpg,left,691,true,low,NA,NA,NA,NA,NA,NA,NA,false
MndBfPl7,36d1bwbeiqeywas4c57kpjvh4xs2mi,3dqq64tankysgdli97tlje1swu8pw7,MndBfPl7,2020-0188,2020-05-07,14:37:07,15:00:08,NA,incomplete,232,shape,1,left,Green_Triangle_Chess_2.jpg,Purple_Triangle_Grid_4.jpg,Green_Star_Dots_1.jpg,left,1211,true,low,NA,NA,NA,NA,NA,NA,NA,false
MndBfPl7,36d1bwbeiqeywas4c57kpjvh4xs2mi,3dqq64tankysgdli97tlje1swu8pw7,MndBfPl7,2020-0188,2020-05-07,14:37:07,15:00:08,NA,incomplete,233,shape,1,right,Purple_Triangle_Stripes_2.jpg,Purple_Plus_Chess_4.jpg,Green_Triangle_Grid_1.jpg,left,798,false,low,NA,NA,NA,NA,NA,NA,NA,false
MndBfPl7,36d1bwbeiqeywas4c57kpjvh4xs2mi,3dqq64tankysgdli97tlje1swu8pw7,MndBfPl7,2020-0188,2020-05-07,14:37:07,15:00:08,NA,incomplete,234,shape,1,left,Blue_Triangle_Stripes_4.jpg,Green_Triangle_Dots_2.jpg,Blue_Circle_Chess_1.jpg,left,1140,true,low,NA,NA,NA,NA,NA,NA,NA,false
MndBfPl7,36d1bwbeiqeywas4c57kpjvh4xs2mi,3dqq64tankysgdli97tlje1swu8pw7,MndBfPl7,2020-0188,2020-05-07,14:37:07,15:00:08,NA,incomplete,235,shape,0,right,Red_Triangle_Stripes_3.jpg,Red_Circle_Grid_1.jpg,Green_Triangle_Chess_4.jpg,right,601,true,low,NA,NA,NA,NA,NA,NA,NA,false
MndBfPl7,36d1bwbeiqeywas4c57kpjvh4xs2mi,3dqq64tankysgdli97tlje1swu8pw7,MndBfPl7,2020-0188,2020-05-07,14:37:07,15:00:08,NA,incomplete,236,shape,1,right,Green_Plus_Dots_1.jpg,Green_Circle_Stripes_3.jpg,Blue_Plus_Grid_2.jpg,right,702,true,low,NA,NA,NA,NA,NA,NA,NA,false
MndBfPl7,36d1bwbeiqeywas4c57kpjvh4xs2mi,3dqq64tankysgdli97tlje1swu8pw7,MndBfPl7,2020-0188,2020-05-07,14:37:07,15:00:08,NA,incomplete,237,shape,1,right,Blue_Triangle_Stripes_3.jpg,Blue_Star_Grid_4.jpg,Green_Triangle_Dots_2.jpg,right,766,true,low,NA,NA,NA,NA,NA,NA,NA,false
MndBfPl7,36d1bwbeiqeywas4c57kpjvh4xs2mi,3dqq64tankysgdli97tlje1swu8pw7,MndBfPl7,2020-0188,2020-05-07,14:37:07,15:00:08,NA,incomplete,238,shape,1,right,Purple_Triangle_Stripes_4.jpg,Purple_Circle_Grid_3.jpg,Green_Triangle_Chess_2.jpg,right,692,true,low,NA,NA,NA,NA,NA,NA,NA,false
MndBfPl7,36d1bwbeiqeywas4c57kpjvh4xs2mi,3dqq64tankysgdli97tlje1swu8pw7,MndBfPl7,2020-0188,2020-05-07,14:37:07,15:00:08,NA,incomplete,239,shape,1,left,Blue_Circle_Chess_2.jpg,Green_Circle_Grid_3.jpg,Blue_Star_Stripes_4.jpg,left,629,true,low,NA,NA,NA,NA,NA,NA,NA,false
MndBfPl7,36d1bwbeiqeywas4c57kpjvh4xs2mi,3dqq64tankysgdli97tlje1swu8pw7,MndBfPl7,2020-0188,2020-05-07,14:37:07,15:00:08,1311496,1384950,NA,NA,NA,NA,NA,NA,NA,NA,NA,NA,NA,34,White/Caucasian,Female,white,no,yes,no,undefined
