workerId,hitId,assignmentId,subject,studyid,exp_date,exp_start,exp_end,time_start,time_end,trial,type,reward_validity,answer,image_top,image_left,image_right,response,response_time,response_acc,volatility,practice
dU2o0sJ8,3vll1pieot1c2ogsesvb4yutk6poza,3ea3qwiz4m887auk17yqnxth7rkti9,dU2o0sJ8,2020-0188,2020-05-08,09:43:32,10:06:22,NA,incomplete,0,filling,1,left,Red_Star_Stripes_2.jpg,Purple_Circle_Stripes_4.jpg,Green_Star_Chess_3.jpg,left,700.8800000185147,true,NA,true
dU2o0sJ8,3vll1pieot1c2ogsesvb4yutk6poza,3ea3qwiz4m887auk17yqnxth7rkti9,dU2o0sJ8,2020-0188,2020-05-08,09:43:32,10:06:22,NA,incomplete,1,filling,1,right,Blue_Triangle_Dots_3.jpg,Green_Triangle_Stripes_1.jpg,Purple_Star_Dots_4.jpg,right,1150.7650000276044,true,NA,true
dU2o0sJ8,3vll1pieot1c2ogsesvb4yutk6poza,3ea3qwiz4m887auk17yqnxth7rkti9,dU2o0sJ8,2020-0188,2020-05-08,09:43:32,10:06:22,NA,incomplete,2,filling,1,right,Purple_Circle_Chess_2.jpg,Red_Circle_Grid_1.jpg,Blue_Triangle_Chess_3.jpg,right,1216.5149999782443,true,NA,true
dU2o0sJ8,3vll1pieot1c2ogsesvb4yutk6poza,3ea3qwiz4m887auk17yqnxth7rkti9,dU2o0sJ8,2020-0188,2020-05-08,09:43:32,10:06:22,NA,incomplete,3,filling,1,right,Green_Star_Stripes_4.jpg,Blue_Star_Chess_2.jpg,Red_Circle_Stripes_1.jpg,right,1021.2249999167398,true,NA,true
dU2o0sJ8,3vll1pieot1c2ogsesvb4yutk6poza,3ea3qwiz4m887auk17yqnxth7rkti9,dU2o0sJ8,2020-0188,2020-05-08,09:43:32,10:06:22,NA,incomplete,4,filling,0,right,Purple_Circle_Chess_1.jpg,Red_Circle_Grid_3.jpg,Blue_Star_Chess_4.jpg,right,1082.1999999461696,true,NA,true
dU2o0sJ8,3vll1pieot1c2ogsesvb4yutk6poza,3ea3qwiz4m887auk17yqnxth7rkti9,dU2o0sJ8,2020-0188,2020-05-08,09:43:32,10:06:22,NA,incomplete,5,filling,1,left,Purple_Star_Dots_3.jpg,Red_Plus_Dots_1.jpg,Blue_Star_Stripes_2.jpg,right,1083.2449999870732,false,NA,true
dU2o0sJ8,3vll1pieot1c2ogsesvb4yutk6poza,3ea3qwiz4m887auk17yqnxth7rkti9,dU2o0sJ8,2020-0188,2020-05-08,09:43:32,10:06:22,NA,incomplete,6,filling,1,left,Purple_Circle_Dots_1.jpg,Red_Star_Dots_4.jpg,Blue_Circle_Stripes_2.jpg,left,1232.6100000645965,true,NA,true
dU2o0sJ8,3vll1pieot1c2ogsesvb4yutk6poza,3ea3qwiz4m887auk17yqnxth7rkti9,dU2o0sJ8,2020-0188,2020-05-08,09:43:32,10:06:22,NA,incomplete,7,filling,1,right,Purple_Star_Chess_4.jpg,Red_Star_Stripes_1.jpg,Blue_Plus_Chess_2.jpg,right,1095.435000024736,true,NA,true
dU2o0sJ8,3vll1pieot1c2ogsesvb4yutk6poza,3ea3qwiz4m887auk17yqnxth7rkti9,dU2o0sJ8,2020-0188,2020-05-08,09:43:32,10:06:22,NA,incomplete,8,filling,1,right,Green_Circle_Stripes_3.jpg,Red_Circle_Dots_1.jpg,Blue_Star_Stripes_2.jpg,right,1121.7699999688193,true,NA,true
dU2o0sJ8,3vll1pieot1c2ogsesvb4yutk6poza,3ea3qwiz4m887auk17yqnxth7rkti9,dU2o0sJ8,2020-0188,2020-05-08,09:43:32,10:06:22,NA,incomplete,9,filling,1,left,Purple_Plus_Dots_2.jpg,Blue_Circle_Dots_1.jpg,Red_Plus_Stripes_4.jpg,left,838.0599999800324,true,NA,true
dU2o0sJ8,3vll1pieot1c2ogsesvb4yutk6poza,3ea3qwiz4m887auk17yqnxth7rkti9,dU2o0sJ8,2020-0188,2020-05-08,09:43:32,10:06:22,NA,incomplete,10,filling,1,left,Green_Circle_Stripes_3.jpg,Purple_Plus_Stripes_2.jpg,Red_Circle_Dots_1.jpg,left,922.3650000058115,true,NA,true
dU2o0sJ8,3vll1pieot1c2ogsesvb4yutk6poza,3ea3qwiz4m887auk17yqnxth7rkti9,dU2o0sJ8,2020-0188,2020-05-08,09:43:32,10:06:22,NA,incomplete,11,filling,0,left,Blue_Plus_Stripes_4.jpg,Red_Circle_Stripes_1.jpg,Purple_Plus_Chess_3.jpg,left,1120.230000000447,true,NA,true
dU2o0sJ8,3vll1pieot1c2ogsesvb4yutk6poza,3ea3qwiz4m887auk17yqnxth7rkti9,dU2o0sJ8,2020-0188,2020-05-08,09:43:32,10:06:22,NA,incomplete,12,filling,1,right,Red_Star_Grid_2.jpg,Blue_Star_Dots_3.jpg,Green_Circle_Grid_4.jpg,right,994.7249999968335,true,NA,true
dU2o0sJ8,3vll1pieot1c2ogsesvb4yutk6poza,3ea3qwiz4m887auk17yqnxth7rkti9,dU2o0sJ8,2020-0188,2020-05-08,09:43:32,10:06:22,NA,incomplete,13,filling,1,left,Red_Triangle_Stripes_1.jpg,Blue_Circle_Stripes_3.jpg,Purple_Triangle_Grid_2.jpg,left,1054.2499999282882,true,NA,true
dU2o0sJ8,3vll1pieot1c2ogsesvb4yutk6poza,3ea3qwiz4m887auk17yqnxth7rkti9,dU2o0sJ8,2020-0188,2020-05-08,09:43:32,10:06:22,NA,incomplete,14,filling,0,right,Blue_Circle_Chess_2.jpg,Red_Circle_Stripes_4.jpg,Green_Plus_Chess_3.jpg,right,1024.2449999786913,true,NA,true
dU2o0sJ8,3vll1pieot1c2ogsesvb4yutk6poza,3ea3qwiz4m887auk17yqnxth7rkti9,dU2o0sJ8,2020-0188,2020-05-08,09:43:32,10:06:22,NA,incomplete,15,filling,1,left,Red_Plus_Stripes_1.jpg,Green_Circle_Stripes_3.jpg,Purple_Plus_Dots_4.jpg,left,887.1100000105798,true,NA,true
dU2o0sJ8,3vll1pieot1c2ogsesvb4yutk6poza,3ea3qwiz4m887auk17yqnxth7rkti9,dU2o0sJ8,2020-0188,2020-05-08,09:43:32,10:06:22,NA,incomplete,16,filling,0,left,Purple_Triangle_Dots_1.jpg,Blue_Circle_Dots_4.jpg,Green_Triangle_Chess_3.jpg,left,861.8550000246614,true,NA,true
dU2o0sJ8,3vll1pieot1c2ogsesvb4yutk6poza,3ea3qwiz4m887auk17yqnxth7rkti9,dU2o0sJ8,2020-0188,2020-05-08,09:43:32,10:06:22,NA,incomplete,17,filling,1,right,Green_Plus_Dots_3.jpg,Red_Plus_Grid_1.jpg,Purple_Triangle_Dots_4.jpg,right,1162.925000069663,true,NA,true
dU2o0sJ8,3vll1pieot1c2ogsesvb4yutk6poza,3ea3qwiz4m887auk17yqnxth7rkti9,dU2o0sJ8,2020-0188,2020-05-08,09:43:32,10:06:22,NA,incomplete,18,filling,1,left,Green_Star_Stripes_4.jpg,Blue_Circle_Stripes_1.jpg,Purple_Star_Dots_2.jpg,left,892.1100000152364,true,NA,true
dU2o0sJ8,3vll1pieot1c2ogsesvb4yutk6poza,3ea3qwiz4m887auk17yqnxth7rkti9,dU2o0sJ8,2020-0188,2020-05-08,09:43:32,10:06:22,NA,incomplete,19,filling,1,left,Blue_Star_Dots_4.jpg,Red_Plus_Dots_1.jpg,Green_Star_Stripes_2.jpg,left,1138.7899999972433,true,NA,true
dU2o0sJ8,3vll1pieot1c2ogsesvb4yutk6poza,3ea3qwiz4m887auk17yqnxth7rkti9,dU2o0sJ8,2020-0188,2020-05-08,09:43:32,10:06:22,NA,incomplete,20,shape,1,right,Purple_Plus_Chess_2.jpg,Green_Triangle_Chess_4.jpg,Red_Plus_Grid_1.jpg,left,1044.8799999430776,false,NA,true
dU2o0sJ8,3vll1pieot1c2ogsesvb4yutk6poza,3ea3qwiz4m887auk17yqnxth7rkti9,dU2o0sJ8,2020-0188,2020-05-08,09:43:32,10:06:22,NA,incomplete,21,shape,1,right,Red_Circle_Dots_4.jpg,Blue_Triangle_Dots_1.jpg,Green_Circle_Chess_2.jpg,left,1144.1499999491498,false,NA,true
dU2o0sJ8,3vll1pieot1c2ogsesvb4yutk6poza,3ea3qwiz4m887auk17yqnxth7rkti9,dU2o0sJ8,2020-0188,2020-05-08,09:43:32,10:06:22,NA,incomplete,22,shape,1,left,Purple_Circle_Chess_4.jpg,Green_Circle_Dots_2.jpg,Blue_Star_Chess_3.jpg,right,1197.1550000598654,false,NA,true
dU2o0sJ8,3vll1pieot1c2ogsesvb4yutk6poza,3ea3qwiz4m887auk17yqnxth7rkti9,dU2o0sJ8,2020-0188,2020-05-08,09:43:32,10:06:22,NA,incomplete,23,shape,1,right,Purple_Plus_Grid_3.jpg,Green_Star_Grid_1.jpg,Blue_Plus_Stripes_2.jpg,right,870.0849999440834,true,NA,true
dU2o0sJ8,3vll1pieot1c2ogsesvb4yutk6poza,3ea3qwiz4m887auk17yqnxth7rkti9,dU2o0sJ8,2020-0188,2020-05-08,09:43:32,10:06:22,NA,incomplete,24,shape,1,left,Purple_Plus_Stripes_1.jpg,Green_Plus_Chess_3.jpg,Red_Circle_Stripes_4.jpg,left,590.8550000749528,true,NA,true
dU2o0sJ8,3vll1pieot1c2ogsesvb4yutk6poza,3ea3qwiz4m887auk17yqnxth7rkti9,dU2o0sJ8,2020-0188,2020-05-08,09:43:32,10:06:22,NA,incomplete,25,shape,1,right,Purple_Plus_Stripes_2.jpg,Blue_Circle_Stripes_3.jpg,Green_Plus_Grid_4.jpg,right,1098.534999997355,true,NA,true
dU2o0sJ8,3vll1pieot1c2ogsesvb4yutk6poza,3ea3qwiz4m887auk17yqnxth7rkti9,dU2o0sJ8,2020-0188,2020-05-08,09:43:32,10:06:22,NA,incomplete,26,shape,1,left,Purple_Plus_Grid_3.jpg,Red_Plus_Dots_4.jpg,Green_Circle_Grid_2.jpg,left,640.6450000358745,true,NA,true
dU2o0sJ8,3vll1pieot1c2ogsesvb4yutk6poza,3ea3qwiz4m887auk17yqnxth7rkti9,dU2o0sJ8,2020-0188,2020-05-08,09:43:32,10:06:22,NA,incomplete,27,shape,0,right,Red_Triangle_Chess_3.jpg,Blue_Circle_Chess_4.jpg,Green_Triangle_Stripes_2.jpg,right,644.0550000406802,true,NA,true
dU2o0sJ8,3vll1pieot1c2ogsesvb4yutk6poza,3ea3qwiz4m887auk17yqnxth7rkti9,dU2o0sJ8,2020-0188,2020-05-08,09:43:32,10:06:22,NA,incomplete,28,shape,1,right,Red_Plus_Dots_3.jpg,Green_Triangle_Dots_2.jpg,Purple_Plus_Stripes_4.jpg,right,638.9999999664724,true,NA,true
dU2o0sJ8,3vll1pieot1c2ogsesvb4yutk6poza,3ea3qwiz4m887auk17yqnxth7rkti9,dU2o0sJ8,2020-0188,2020-05-08,09:43:32,10:06:22,NA,incomplete,29,shape,0,right,Purple_Circle_Chess_2.jpg,Green_Plus_Chess_3.jpg,Red_Circle_Dots_4.jpg,right,670.5550000770018,true,NA,true
dU2o0sJ8,3vll1pieot1c2ogsesvb4yutk6poza,3ea3qwiz4m887auk17yqnxth7rkti9,dU2o0sJ8,2020-0188,2020-05-08,09:43:32,10:06:22,NA,incomplete,30,shape,1,left,Red_Plus_Dots_3.jpg,Purple_Plus_Stripes_2.jpg,Green_Circle_Dots_1.jpg,left,659.0599999763072,true,NA,true
dU2o0sJ8,3vll1pieot1c2ogsesvb4yutk6poza,3ea3qwiz4m887auk17yqnxth7rkti9,dU2o0sJ8,2020-0188,2020-05-08,09:43:32,10:06:22,NA,incomplete,31,shape,1,right,Purple_Plus_Grid_4.jpg,Red_Circle_Grid_2.jpg,Green_Plus_Dots_3.jpg,right,851.1949999956414,true,NA,true
dU2o0sJ8,3vll1pieot1c2ogsesvb4yutk6poza,3ea3qwiz4m887auk17yqnxth7rkti9,dU2o0sJ8,2020-0188,2020-05-08,09:43:32,10:06:22,NA,incomplete,32,shape,1,left,Red_Plus_Grid_4.jpg,Green_Plus_Stripes_2.jpg,Blue_Triangle_Grid_3.jpg,left,738.2000000216067,true,NA,true
dU2o0sJ8,3vll1pieot1c2ogsesvb4yutk6poza,3ea3qwiz4m887auk17yqnxth7rkti9,dU2o0sJ8,2020-0188,2020-05-08,09:43:32,10:06:22,NA,incomplete,33,shape,1,left,Red_Triangle_Chess_3.jpg,Green_Triangle_Stripes_2.jpg,Purple_Star_Chess_4.jpg,left,630.0450001144782,true,NA,true
dU2o0sJ8,3vll1pieot1c2ogsesvb4yutk6poza,3ea3qwiz4m887auk17yqnxth7rkti9,dU2o0sJ8,2020-0188,2020-05-08,09:43:32,10:06:22,NA,incomplete,34,shape,0,left,Red_Plus_Dots_2.jpg,Purple_Plus_Grid_4.jpg,Blue_Circle_Dots_3.jpg,left,462.8899999661371,true,NA,true
dU2o0sJ8,3vll1pieot1c2ogsesvb4yutk6poza,3ea3qwiz4m887auk17yqnxth7rkti9,dU2o0sJ8,2020-0188,2020-05-08,09:43:32,10:06:22,NA,incomplete,35,shape,1,left,Blue_Star_Chess_4.jpg,Purple_Star_Stripes_2.jpg,Green_Triangle_Chess_1.jpg,left,867.1249999897555,true,NA,true
dU2o0sJ8,3vll1pieot1c2ogsesvb4yutk6poza,3ea3qwiz4m887auk17yqnxth7rkti9,dU2o0sJ8,2020-0188,2020-05-08,09:43:32,10:06:22,NA,incomplete,36,shape,1,left,Purple_Circle_Chess_2.jpg,Blue_Circle_Dots_4.jpg,Red_Triangle_Chess_3.jpg,left,580.4100000532344,true,NA,true
dU2o0sJ8,3vll1pieot1c2ogsesvb4yutk6poza,3ea3qwiz4m887auk17yqnxth7rkti9,dU2o0sJ8,2020-0188,2020-05-08,09:43:32,10:06:22,NA,incomplete,37,shape,1,right,Blue_Triangle_Dots_1.jpg,Red_Plus_Dots_4.jpg,Purple_Triangle_Chess_3.jpg,right,658.9800000656396,true,NA,true
dU2o0sJ8,3vll1pieot1c2ogsesvb4yutk6poza,3ea3qwiz4m887auk17yqnxth7rkti9,dU2o0sJ8,2020-0188,2020-05-08,09:43:32,10:06:22,NA,incomplete,38,shape,1,right,Blue_Circle_Grid_2.jpg,Green_Star_Grid_3.jpg,Red_Circle_Dots_1.jpg,right,740.3450000565499,true,NA,true
dU2o0sJ8,3vll1pieot1c2ogsesvb4yutk6poza,3ea3qwiz4m887auk17yqnxth7rkti9,dU2o0sJ8,2020-0188,2020-05-08,09:43:32,10:06:22,NA,incomplete,39,shape,0,left,Purple_Plus_Chess_3.jpg,Green_Plus_Dots_2.jpg,Blue_Star_Chess_4.jpg,left,867.1500000637025,true,NA,true
dU2o0sJ8,3vll1pieot1c2ogsesvb4yutk6poza,3ea3qwiz4m887auk17yqnxth7rkti9,dU2o0sJ8,2020-0188,2020-05-08,09:43:32,10:06:22,NA,incomplete,0,filling,1,right,Purple_Triangle_Chess_3.jpg,Green_Triangle_Stripes_4.jpg,Blue_Plus_Chess_2.jpg,left,1192.990000010468,false,low,false
dU2o0sJ8,3vll1pieot1c2ogsesvb4yutk6poza,3ea3qwiz4m887auk17yqnxth7rkti9,dU2o0sJ8,2020-0188,2020-05-08,09:43:32,10:06:22,NA,incomplete,1,filling,0,right,Red_Triangle_Grid_2.jpg,Blue_Triangle_Stripes_4.jpg,Purple_Plus_Grid_1.jpg,left,964.9649999337271,false,low,false
dU2o0sJ8,3vll1pieot1c2ogsesvb4yutk6poza,3ea3qwiz4m887auk17yqnxth7rkti9,dU2o0sJ8,2020-0188,2020-05-08,09:43:32,10:06:22,NA,incomplete,2,filling,1,right,Blue_Circle_Dots_2.jpg,Green_Circle_Chess_4.jpg,Purple_Star_Dots_1.jpg,left,759.1200000606477,false,low,false
dU2o0sJ8,3vll1pieot1c2ogsesvb4yutk6poza,3ea3qwiz4m887auk17yqnxth7rkti9,dU2o0sJ8,2020-0188,2020-05-08,09:43:32,10:06:22,NA,incomplete,3,filling,1,left,Blue_Triangle_Stripes_1.jpg,Green_Plus_Stripes_2.jpg,Red_Triangle_Chess_4.jpg,left,999.1649999283254,true,low,false
dU2o0sJ8,3vll1pieot1c2ogsesvb4yutk6poza,3ea3qwiz4m887auk17yqnxth7rkti9,dU2o0sJ8,2020-0188,2020-05-08,09:43:32,10:06:22,NA,incomplete,4,filling,1,right,Green_Plus_Chess_4.jpg,Red_Plus_Dots_3.jpg,Purple_Triangle_Chess_2.jpg,right,1143.4500000905246,true,low,false
dU2o0sJ8,3vll1pieot1c2ogsesvb4yutk6poza,3ea3qwiz4m887auk17yqnxth7rkti9,dU2o0sJ8,2020-0188,2020-05-08,09:43:32,10:06:22,NA,incomplete,5,filling,1,right,Blue_Triangle_Grid_4.jpg,Red_Triangle_Dots_3.jpg,Green_Plus_Grid_1.jpg,right,1098.2650000369176,true,low,false
dU2o0sJ8,3vll1pieot1c2ogsesvb4yutk6poza,3ea3qwiz4m887auk17yqnxth7rkti9,dU2o0sJ8,2020-0188,2020-05-08,09:43:32,10:06:22,NA,incomplete,6,filling,1,left,Blue_Plus_Stripes_1.jpg,Red_Star_Stripes_4.jpg,Green_Plus_Dots_2.jpg,left,996.9949999358505,true,low,false
dU2o0sJ8,3vll1pieot1c2ogsesvb4yutk6poza,3ea3qwiz4m887auk17yqnxth7rkti9,dU2o0sJ8,2020-0188,2020-05-08,09:43:32,10:06:22,NA,incomplete,7,filling,1,right,Red_Triangle_Stripes_2.jpg,Green_Triangle_Chess_1.jpg,Purple_Circle_Stripes_4.jpg,right,917.6049999659881,true,low,false
dU2o0sJ8,3vll1pieot1c2ogsesvb4yutk6poza,3ea3qwiz4m887auk17yqnxth7rkti9,dU2o0sJ8,2020-0188,2020-05-08,09:43:32,10:06:22,NA,incomplete,8,filling,1,right,Red_Triangle_Grid_2.jpg,Purple_Triangle_Dots_1.jpg,Blue_Circle_Grid_4.jpg,right,1132.160000037402,true,low,false
dU2o0sJ8,3vll1pieot1c2ogsesvb4yutk6poza,3ea3qwiz4m887auk17yqnxth7rkti9,dU2o0sJ8,2020-0188,2020-05-08,09:43:32,10:06:22,NA,incomplete,9,filling,1,right,Green_Star_Grid_2.jpg,Blue_Star_Dots_4.jpg,Purple_Plus_Grid_3.jpg,right,1133.3350000204518,true,low,false
dU2o0sJ8,3vll1pieot1c2ogsesvb4yutk6poza,3ea3qwiz4m887auk17yqnxth7rkti9,dU2o0sJ8,2020-0188,2020-05-08,09:43:32,10:06:22,NA,incomplete,10,filling,1,left,Green_Star_Grid_1.jpg,Purple_Circle_Grid_4.jpg,Red_Star_Dots_2.jpg,left,1071.364999981597,true,low,false
dU2o0sJ8,3vll1pieot1c2ogsesvb4yutk6poza,3ea3qwiz4m887auk17yqnxth7rkti9,dU2o0sJ8,2020-0188,2020-05-08,09:43:32,10:06:22,NA,incomplete,11,filling,1,right,Green_Triangle_Grid_4.jpg,Purple_Triangle_Stripes_2.jpg,Red_Circle_Grid_1.jpg,right,1131.3249999657273,true,low,false
dU2o0sJ8,3vll1pieot1c2ogsesvb4yutk6poza,3ea3qwiz4m887auk17yqnxth7rkti9,dU2o0sJ8,2020-0188,2020-05-08,09:43:32,10:06:22,NA,incomplete,12,filling,1,left,Green_Triangle_Dots_4.jpg,Red_Circle_Dots_2.jpg,Blue_Triangle_Chess_1.jpg,left,1133.574999985285,true,low,false
dU2o0sJ8,3vll1pieot1c2ogsesvb4yutk6poza,3ea3qwiz4m887auk17yqnxth7rkti9,dU2o0sJ8,2020-0188,2020-05-08,09:43:32,10:06:22,NA,incomplete,13,filling,0,left,Green_Circle_Grid_2.jpg,Red_Star_Grid_3.jpg,Blue_Circle_Stripes_4.jpg,left,1032.3499999940395,true,low,false
dU2o0sJ8,3vll1pieot1c2ogsesvb4yutk6poza,3ea3qwiz4m887auk17yqnxth7rkti9,dU2o0sJ8,2020-0188,2020-05-08,09:43:32,10:06:22,NA,incomplete,14,filling,1,right,Green_Triangle_Grid_1.jpg,Purple_Triangle_Chess_2.jpg,Blue_Star_Grid_3.jpg,right,1509.0199999976903,true,low,false
dU2o0sJ8,3vll1pieot1c2ogsesvb4yutk6poza,3ea3qwiz4m887auk17yqnxth7rkti9,dU2o0sJ8,2020-0188,2020-05-08,09:43:32,10:06:22,NA,incomplete,15,filling,1,right,Purple_Triangle_Grid_1.jpg,Green_Triangle_Stripes_3.jpg,Blue_Plus_Grid_2.jpg,left,886.739999987185,false,low,false
dU2o0sJ8,3vll1pieot1c2ogsesvb4yutk6poza,3ea3qwiz4m887auk17yqnxth7rkti9,dU2o0sJ8,2020-0188,2020-05-08,09:43:32,10:06:22,NA,incomplete,16,filling,0,right,Purple_Star_Dots_4.jpg,Blue_Star_Chess_1.jpg,Green_Triangle_Dots_3.jpg,right,1331.0200000414625,true,low,false
dU2o0sJ8,3vll1pieot1c2ogsesvb4yutk6poza,3ea3qwiz4m887auk17yqnxth7rkti9,dU2o0sJ8,2020-0188,2020-05-08,09:43:32,10:06:22,NA,incomplete,17,filling,1,left,Blue_Triangle_Stripes_3.jpg,Purple_Circle_Stripes_4.jpg,Red_Triangle_Grid_2.jpg,left,916.5150000480935,true,low,false
dU2o0sJ8,3vll1pieot1c2ogsesvb4yutk6poza,3ea3qwiz4m887auk17yqnxth7rkti9,dU2o0sJ8,2020-0188,2020-05-08,09:43:32,10:06:22,NA,incomplete,18,filling,1,right,Purple_Star_Dots_4.jpg,Green_Star_Grid_1.jpg,Red_Circle_Dots_2.jpg,right,1202.9249999905005,true,low,false
dU2o0sJ8,3vll1pieot1c2ogsesvb4yutk6poza,3ea3qwiz4m887auk17yqnxth7rkti9,dU2o0sJ8,2020-0188,2020-05-08,09:43:32,10:06:22,NA,incomplete,19,filling,1,left,Red_Triangle_Dots_3.jpg,Blue_Plus_Dots_1.jpg,Purple_Triangle_Stripes_4.jpg,left,1259.3549999874085,true,low,false
dU2o0sJ8,3vll1pieot1c2ogsesvb4yutk6poza,3ea3qwiz4m887auk17yqnxth7rkti9,dU2o0sJ8,2020-0188,2020-05-08,09:43:32,10:06:22,NA,incomplete,20,filling,0,right,Red_Star_Grid_2.jpg,Purple_Star_Chess_3.jpg,Blue_Circle_Grid_4.jpg,right,1008.4149999311194,true,low,false
dU2o0sJ8,3vll1pieot1c2ogsesvb4yutk6poza,3ea3qwiz4m887auk17yqnxth7rkti9,dU2o0sJ8,2020-0188,2020-05-08,09:43:32,10:06:22,NA,incomplete,21,filling,1,right,Red_Triangle_Chess_4.jpg,Green_Triangle_Stripes_1.jpg,Purple_Circle_Chess_2.jpg,right,1038.2399999070913,true,low,false
dU2o0sJ8,3vll1pieot1c2ogsesvb4yutk6poza,3ea3qwiz4m887auk17yqnxth7rkti9,dU2o0sJ8,2020-0188,2020-05-08,09:43:32,10:06:22,NA,incomplete,22,filling,1,right,Blue_Circle_Stripes_1.jpg,Red_Circle_Chess_2.jpg,Green_Triangle_Stripes_4.jpg,right,1034.4500000355765,true,low,false
dU2o0sJ8,3vll1pieot1c2ogsesvb4yutk6poza,3ea3qwiz4m887auk17yqnxth7rkti9,dU2o0sJ8,2020-0188,2020-05-08,09:43:32,10:06:22,NA,incomplete,23,filling,1,left,Purple_Circle_Stripes_3.jpg,Red_Star_Stripes_4.jpg,Green_Circle_Dots_2.jpg,left,1021.5199999511242,true,low,false
dU2o0sJ8,3vll1pieot1c2ogsesvb4yutk6poza,3ea3qwiz4m887auk17yqnxth7rkti9,dU2o0sJ8,2020-0188,2020-05-08,09:43:32,10:06:22,NA,incomplete,24,filling,0,left,Red_Star_Stripes_2.jpg,Blue_Triangle_Stripes_4.jpg,Green_Star_Grid_1.jpg,left,891.925000003539,true,low,false
dU2o0sJ8,3vll1pieot1c2ogsesvb4yutk6poza,3ea3qwiz4m887auk17yqnxth7rkti9,dU2o0sJ8,2020-0188,2020-05-08,09:43:32,10:06:22,NA,incomplete,25,filling,1,left,Red_Star_Stripes_4.jpg,Purple_Triangle_Stripes_3.jpg,Blue_Star_Grid_1.jpg,left,935.1999999489635,true,low,false
dU2o0sJ8,3vll1pieot1c2ogsesvb4yutk6poza,3ea3qwiz4m887auk17yqnxth7rkti9,dU2o0sJ8,2020-0188,2020-05-08,09:43:32,10:06:22,NA,incomplete,26,filling,1,left,Red_Circle_Chess_1.jpg,Purple_Triangle_Chess_4.jpg,Green_Circle_Dots_2.jpg,left,1155.0999999744818,true,low,false
dU2o0sJ8,3vll1pieot1c2ogsesvb4yutk6poza,3ea3qwiz4m887auk17yqnxth7rkti9,dU2o0sJ8,2020-0188,2020-05-08,09:43:32,10:06:22,NA,incomplete,27,filling,0,left,Green_Triangle_Dots_2.jpg,Purple_Star_Dots_1.jpg,Blue_Triangle_Chess_3.jpg,left,1303.5900000249967,true,low,false
dU2o0sJ8,3vll1pieot1c2ogsesvb4yutk6poza,3ea3qwiz4m887auk17yqnxth7rkti9,dU2o0sJ8,2020-0188,2020-05-08,09:43:32,10:06:22,NA,incomplete,28,filling,1,right,Purple_Triangle_Chess_4.jpg,Blue_Triangle_Grid_3.jpg,Red_Plus_Chess_1.jpg,right,1167.8400000091642,true,low,false
dU2o0sJ8,3vll1pieot1c2ogsesvb4yutk6poza,3ea3qwiz4m887auk17yqnxth7rkti9,dU2o0sJ8,2020-0188,2020-05-08,09:43:32,10:06:22,NA,incomplete,29,filling,0,right,Green_Triangle_Stripes_4.jpg,Blue_Triangle_Grid_3.jpg,Red_Star_Stripes_1.jpg,right,1096.9699999550357,true,low,false
dU2o0sJ8,3vll1pieot1c2ogsesvb4yutk6poza,3ea3qwiz4m887auk17yqnxth7rkti9,dU2o0sJ8,2020-0188,2020-05-08,09:43:32,10:06:22,NA,incomplete,30,shape,1,right,Purple_Star_Grid_4.jpg,Green_Triangle_Grid_2.jpg,Blue_Star_Dots_1.jpg,left,932.035000063479,false,low,false
dU2o0sJ8,3vll1pieot1c2ogsesvb4yutk6poza,3ea3qwiz4m887auk17yqnxth7rkti9,dU2o0sJ8,2020-0188,2020-05-08,09:43:32,10:06:22,NA,incomplete,31,shape,0,left,Red_Triangle_Chess_2.jpg,Green_Triangle_Grid_1.jpg,Purple_Plus_Chess_3.jpg,left,841.2549999775365,true,low,false
dU2o0sJ8,3vll1pieot1c2ogsesvb4yutk6poza,3ea3qwiz4m887auk17yqnxth7rkti9,dU2o0sJ8,2020-0188,2020-05-08,09:43:32,10:06:22,NA,incomplete,32,shape,0,left,Red_Plus_Stripes_3.jpg,Blue_Plus_Chess_2.jpg,Purple_Star_Stripes_1.jpg,left,660.0450000260025,true,low,false
dU2o0sJ8,3vll1pieot1c2ogsesvb4yutk6poza,3ea3qwiz4m887auk17yqnxth7rkti9,dU2o0sJ8,2020-0188,2020-05-08,09:43:32,10:06:22,NA,incomplete,33,shape,1,left,Green_Plus_Stripes_4.jpg,Red_Plus_Chess_1.jpg,Blue_Triangle_Stripes_3.jpg,right,898.2600000454113,false,low,false
dU2o0sJ8,3vll1pieot1c2ogsesvb4yutk6poza,3ea3qwiz4m887auk17yqnxth7rkti9,dU2o0sJ8,2020-0188,2020-05-08,09:43:32,10:06:22,NA,incomplete,34,shape,0,left,Blue_Circle_Dots_4.jpg,Purple_Circle_Stripes_1.jpg,Red_Triangle_Dots_3.jpg,right,1016.2749999435619,false,low,false
dU2o0sJ8,3vll1pieot1c2ogsesvb4yutk6poza,3ea3qwiz4m887auk17yqnxth7rkti9,dU2o0sJ8,2020-0188,2020-05-08,09:43:32,10:06:22,NA,incomplete,35,shape,1,left,Green_Circle_Chess_2.jpg,Red_Circle_Grid_3.jpg,Purple_Triangle_Chess_1.jpg,right,988.1850000238046,false,low,false
dU2o0sJ8,3vll1pieot1c2ogsesvb4yutk6poza,3ea3qwiz4m887auk17yqnxth7rkti9,dU2o0sJ8,2020-0188,2020-05-08,09:43:32,10:06:22,NA,incomplete,36,shape,1,right,Red_Star_Stripes_4.jpg,Green_Plus_Stripes_1.jpg,Blue_Star_Grid_2.jpg,right,750.6100001046434,true,low,false
dU2o0sJ8,3vll1pieot1c2ogsesvb4yutk6poza,3ea3qwiz4m887auk17yqnxth7rkti9,dU2o0sJ8,2020-0188,2020-05-08,09:43:32,10:06:22,NA,incomplete,37,shape,1,left,Green_Circle_Chess_3.jpg,Purple_Circle_Grid_2.jpg,Red_Triangle_Chess_4.jpg,left,627.7849999023601,true,low,false
dU2o0sJ8,3vll1pieot1c2ogsesvb4yutk6poza,3ea3qwiz4m887auk17yqnxth7rkti9,dU2o0sJ8,2020-0188,2020-05-08,09:43:32,10:06:22,NA,incomplete,38,shape,1,left,Red_Star_Dots_1.jpg,Green_Star_Chess_4.jpg,Blue_Triangle_Dots_3.jpg,left,753.5749999806285,true,low,false
dU2o0sJ8,3vll1pieot1c2ogsesvb4yutk6poza,3ea3qwiz4m887auk17yqnxth7rkti9,dU2o0sJ8,2020-0188,2020-05-08,09:43:32,10:06:22,NA,incomplete,39,shape,1,right,Blue_Plus_Dots_2.jpg,Red_Triangle_Dots_1.jpg,Purple_Plus_Chess_3.jpg,right,707.5649999314919,true,low,false
dU2o0sJ8,3vll1pieot1c2ogsesvb4yutk6poza,3ea3qwiz4m887auk17yqnxth7rkti9,dU2o0sJ8,2020-0188,2020-05-08,09:43:32,10:06:22,NA,incomplete,40,shape,1,left,Green_Triangle_Grid_1.jpg,Blue_Triangle_Dots_2.jpg,Red_Circle_Grid_3.jpg,left,597.8549999417737,true,low,false
dU2o0sJ8,3vll1pieot1c2ogsesvb4yutk6poza,3ea3qwiz4m887auk17yqnxth7rkti9,dU2o0sJ8,2020-0188,2020-05-08,09:43:32,10:06:22,NA,incomplete,41,shape,1,left,Red_Triangle_Dots_2.jpg,Green_Triangle_Grid_1.jpg,Purple_Circle_Dots_4.jpg,left,595.9250000305474,true,low,false
dU2o0sJ8,3vll1pieot1c2ogsesvb4yutk6poza,3ea3qwiz4m887auk17yqnxth7rkti9,dU2o0sJ8,2020-0188,2020-05-08,09:43:32,10:06:22,NA,incomplete,42,shape,1,right,Purple_Plus_Stripes_1.jpg,Blue_Circle_Stripes_4.jpg,Red_Plus_Chess_2.jpg,right,624.3300000205636,true,low,false
dU2o0sJ8,3vll1pieot1c2ogsesvb4yutk6poza,3ea3qwiz4m887auk17yqnxth7rkti9,dU2o0sJ8,2020-0188,2020-05-08,09:43:32,10:06:22,NA,incomplete,43,shape,1,left,Red_Triangle_Stripes_3.jpg,Blue_Triangle_Grid_4.jpg,Green_Circle_Stripes_1.jpg,left,555.7649999391288,true,low,false
dU2o0sJ8,3vll1pieot1c2ogsesvb4yutk6poza,3ea3qwiz4m887auk17yqnxth7rkti9,dU2o0sJ8,2020-0188,2020-05-08,09:43:32,10:06:22,NA,incomplete,44,shape,1,right,Purple_Star_Chess_4.jpg,Green_Triangle_Chess_2.jpg,Blue_Star_Stripes_3.jpg,right,654.9949999898672,true,low,false
dU2o0sJ8,3vll1pieot1c2ogsesvb4yutk6poza,3ea3qwiz4m887auk17yqnxth7rkti9,dU2o0sJ8,2020-0188,2020-05-08,09:43:32,10:06:22,NA,incomplete,45,shape,1,right,Red_Star_Dots_3.jpg,Green_Triangle_Dots_4.jpg,Blue_Star_Grid_2.jpg,right,622.2600000910461,true,low,false
dU2o0sJ8,3vll1pieot1c2ogsesvb4yutk6poza,3ea3qwiz4m887auk17yqnxth7rkti9,dU2o0sJ8,2020-0188,2020-05-08,09:43:32,10:06:22,NA,incomplete,46,shape,1,left,Green_Triangle_Dots_1.jpg,Red_Triangle_Grid_4.jpg,Blue_Star_Dots_2.jpg,left,749.1950000403449,true,low,false
dU2o0sJ8,3vll1pieot1c2ogsesvb4yutk6poza,3ea3qwiz4m887auk17yqnxth7rkti9,dU2o0sJ8,2020-0188,2020-05-08,09:43:32,10:06:22,NA,incomplete,47,shape,1,left,Purple_Triangle_Dots_1.jpg,Green_Triangle_Stripes_2.jpg,Blue_Circle_Dots_3.jpg,left,704.6450000489131,true,low,false
dU2o0sJ8,3vll1pieot1c2ogsesvb4yutk6poza,3ea3qwiz4m887auk17yqnxth7rkti9,dU2o0sJ8,2020-0188,2020-05-08,09:43:32,10:06:22,NA,incomplete,48,shape,1,left,Red_Circle_Chess_3.jpg,Green_Circle_Stripes_4.jpg,Blue_Plus_Chess_1.jpg,left,749.7650000732392,true,low,false
dU2o0sJ8,3vll1pieot1c2ogsesvb4yutk6poza,3ea3qwiz4m887auk17yqnxth7rkti9,dU2o0sJ8,2020-0188,2020-05-08,09:43:32,10:06:22,NA,incomplete,49,shape,1,left,Blue_Plus_Chess_4.jpg,Red_Plus_Grid_1.jpg,Purple_Triangle_Chess_3.jpg,left,799.0749999880791,true,low,false
dU2o0sJ8,3vll1pieot1c2ogsesvb4yutk6poza,3ea3qwiz4m887auk17yqnxth7rkti9,dU2o0sJ8,2020-0188,2020-05-08,09:43:32,10:06:22,NA,incomplete,50,shape,1,right,Blue_Triangle_Dots_1.jpg,Green_Circle_Dots_2.jpg,Purple_Triangle_Grid_4.jpg,right,695.9400000050664,true,low,false
dU2o0sJ8,3vll1pieot1c2ogsesvb4yutk6poza,3ea3qwiz4m887auk17yqnxth7rkti9,dU2o0sJ8,2020-0188,2020-05-08,09:43:32,10:06:22,NA,incomplete,51,shape,1,right,Purple_Star_Chess_4.jpg,Green_Plus_Chess_2.jpg,Red_Star_Dots_1.jpg,right,862.6800000201911,true,low,false
dU2o0sJ8,3vll1pieot1c2ogsesvb4yutk6poza,3ea3qwiz4m887auk17yqnxth7rkti9,dU2o0sJ8,2020-0188,2020-05-08,09:43:32,10:06:22,NA,incomplete,52,shape,1,left,Blue_Star_Chess_2.jpg,Green_Star_Grid_3.jpg,Red_Circle_Chess_1.jpg,left,596.8800000846386,true,low,false
dU2o0sJ8,3vll1pieot1c2ogsesvb4yutk6poza,3ea3qwiz4m887auk17yqnxth7rkti9,dU2o0sJ8,2020-0188,2020-05-08,09:43:32,10:06:22,NA,incomplete,53,shape,1,left,Red_Circle_Stripes_1.jpg,Green_Circle_Chess_4.jpg,Blue_Triangle_Stripes_3.jpg,left,761.449999990873,true,low,false
dU2o0sJ8,3vll1pieot1c2ogsesvb4yutk6poza,3ea3qwiz4m887auk17yqnxth7rkti9,dU2o0sJ8,2020-0188,2020-05-08,09:43:32,10:06:22,NA,incomplete,54,shape,0,right,Green_Star_Stripes_1.jpg,Red_Circle_Stripes_2.jpg,Purple_Star_Grid_4.jpg,right,704.9899999983609,true,low,false
dU2o0sJ8,3vll1pieot1c2ogsesvb4yutk6poza,3ea3qwiz4m887auk17yqnxth7rkti9,dU2o0sJ8,2020-0188,2020-05-08,09:43:32,10:06:22,NA,incomplete,55,shape,1,left,Green_Plus_Dots_2.jpg,Purple_Plus_Chess_4.jpg,Blue_Triangle_Dots_3.jpg,right,1044.7649999987334,false,low,false
dU2o0sJ8,3vll1pieot1c2ogsesvb4yutk6poza,3ea3qwiz4m887auk17yqnxth7rkti9,dU2o0sJ8,2020-0188,2020-05-08,09:43:32,10:06:22,NA,incomplete,56,shape,0,right,Red_Star_Chess_2.jpg,Blue_Plus_Chess_1.jpg,Purple_Star_Stripes_4.jpg,right,817.6550000207499,true,low,false
dU2o0sJ8,3vll1pieot1c2ogsesvb4yutk6poza,3ea3qwiz4m887auk17yqnxth7rkti9,dU2o0sJ8,2020-0188,2020-05-08,09:43:32,10:06:22,NA,incomplete,57,shape,0,left,Purple_Triangle_Grid_4.jpg,Blue_Triangle_Chess_1.jpg,Green_Circle_Grid_2.jpg,right,1129.3499999446794,false,low,false
dU2o0sJ8,3vll1pieot1c2ogsesvb4yutk6poza,3ea3qwiz4m887auk17yqnxth7rkti9,dU2o0sJ8,2020-0188,2020-05-08,09:43:32,10:06:22,NA,incomplete,58,shape,1,left,Green_Star_Dots_4.jpg,Purple_Star_Chess_1.jpg,Blue_Plus_Dots_2.jpg,right,1338.2500000298023,false,low,false
dU2o0sJ8,3vll1pieot1c2ogsesvb4yutk6poza,3ea3qwiz4m887auk17yqnxth7rkti9,dU2o0sJ8,2020-0188,2020-05-08,09:43:32,10:06:22,NA,incomplete,59,shape,1,right,Green_Plus_Grid_4.jpg,Purple_Star_Grid_1.jpg,Red_Plus_Dots_2.jpg,left,967.8100000601262,false,low,false
dU2o0sJ8,3vll1pieot1c2ogsesvb4yutk6poza,3ea3qwiz4m887auk17yqnxth7rkti9,dU2o0sJ8,2020-0188,2020-05-08,09:43:32,10:06:22,NA,incomplete,60,filling,1,right,Purple_Star_Chess_3.jpg,Blue_Star_Stripes_1.jpg,Red_Plus_Chess_2.jpg,left,714.7600000025705,false,low,false
dU2o0sJ8,3vll1pieot1c2ogsesvb4yutk6poza,3ea3qwiz4m887auk17yqnxth7rkti9,dU2o0sJ8,2020-0188,2020-05-08,09:43:32,10:06:22,NA,incomplete,61,filling,1,right,Red_Star_Grid_4.jpg,Blue_Star_Dots_1.jpg,Green_Triangle_Grid_2.jpg,left,812.3650000197813,false,low,false
dU2o0sJ8,3vll1pieot1c2ogsesvb4yutk6poza,3ea3qwiz4m887auk17yqnxth7rkti9,dU2o0sJ8,2020-0188,2020-05-08,09:43:32,10:06:22,NA,incomplete,62,filling,1,right,Purple_Circle_Chess_3.jpg,Green_Circle_Dots_1.jpg,Blue_Triangle_Chess_2.jpg,right,827.8100000461563,true,low,false
dU2o0sJ8,3vll1pieot1c2ogsesvb4yutk6poza,3ea3qwiz4m887auk17yqnxth7rkti9,dU2o0sJ8,2020-0188,2020-05-08,09:43:32,10:06:22,NA,incomplete,63,filling,1,left,Purple_Circle_Dots_3.jpg,Blue_Triangle_Dots_4.jpg,Red_Circle_Grid_1.jpg,left,942.5999999511987,true,low,false
dU2o0sJ8,3vll1pieot1c2ogsesvb4yutk6poza,3ea3qwiz4m887auk17yqnxth7rkti9,dU2o0sJ8,2020-0188,2020-05-08,09:43:32,10:06:22,NA,incomplete,64,filling,1,left,Green_Star_Chess_2.jpg,Red_Plus_Chess_1.jpg,Blue_Star_Stripes_4.jpg,left,1020.5299999797717,true,low,false
dU2o0sJ8,3vll1pieot1c2ogsesvb4yutk6poza,3ea3qwiz4m887auk17yqnxth7rkti9,dU2o0sJ8,2020-0188,2020-05-08,09:43:32,10:06:22,NA,incomplete,65,filling,1,left,Green_Triangle_Stripes_1.jpg,Red_Plus_Stripes_4.jpg,Blue_Triangle_Chess_3.jpg,left,943.5199999716133,true,low,false
dU2o0sJ8,3vll1pieot1c2ogsesvb4yutk6poza,3ea3qwiz4m887auk17yqnxth7rkti9,dU2o0sJ8,2020-0188,2020-05-08,09:43:32,10:06:22,NA,incomplete,66,filling,1,right,Green_Plus_Chess_2.jpg,Red_Plus_Stripes_1.jpg,Blue_Triangle_Chess_4.jpg,right,928.5900000249967,true,low,false
dU2o0sJ8,3vll1pieot1c2ogsesvb4yutk6poza,3ea3qwiz4m887auk17yqnxth7rkti9,dU2o0sJ8,2020-0188,2020-05-08,09:43:32,10:06:22,NA,incomplete,67,filling,0,right,Blue_Triangle_Chess_4.jpg,Purple_Triangle_Dots_1.jpg,Green_Plus_Chess_3.jpg,right,892.2050000401214,true,low,false
dU2o0sJ8,3vll1pieot1c2ogsesvb4yutk6poza,3ea3qwiz4m887auk17yqnxth7rkti9,dU2o0sJ8,2020-0188,2020-05-08,09:43:32,10:06:22,NA,incomplete,68,filling,1,left,Purple_Star_Stripes_1.jpg,Green_Plus_Stripes_4.jpg,Blue_Star_Chess_2.jpg,left,1059.279999928549,true,low,false
dU2o0sJ8,3vll1pieot1c2ogsesvb4yutk6poza,3ea3qwiz4m887auk17yqnxth7rkti9,dU2o0sJ8,2020-0188,2020-05-08,09:43:32,10:06:22,NA,incomplete,69,filling,1,right,Blue_Plus_Grid_4.jpg,Purple_Plus_Stripes_1.jpg,Red_Triangle_Grid_2.jpg,right,1005.5249999277294,true,low,false
dU2o0sJ8,3vll1pieot1c2ogsesvb4yutk6poza,3ea3qwiz4m887auk17yqnxth7rkti9,dU2o0sJ8,2020-0188,2020-05-08,09:43:32,10:06:22,NA,incomplete,70,filling,1,right,Green_Plus_Grid_4.jpg,Blue_Plus_Dots_1.jpg,Red_Circle_Grid_2.jpg,right,1051.1200000764802,true,low,false
dU2o0sJ8,3vll1pieot1c2ogsesvb4yutk6poza,3ea3qwiz4m887auk17yqnxth7rkti9,dU2o0sJ8,2020-0188,2020-05-08,09:43:32,10:06:22,NA,incomplete,71,filling,1,left,Red_Circle_Stripes_4.jpg,Green_Triangle_Stripes_1.jpg,Blue_Circle_Chess_3.jpg,left,960.7649999670684,true,low,false
dU2o0sJ8,3vll1pieot1c2ogsesvb4yutk6poza,3ea3qwiz4m887auk17yqnxth7rkti9,dU2o0sJ8,2020-0188,2020-05-08,09:43:32,10:06:22,NA,incomplete,72,filling,1,right,Green_Circle_Stripes_1.jpg,Purple_Circle_Dots_3.jpg,Blue_Star_Stripes_4.jpg,right,989.4799999892712,true,low,false
dU2o0sJ8,3vll1pieot1c2ogsesvb4yutk6poza,3ea3qwiz4m887auk17yqnxth7rkti9,dU2o0sJ8,2020-0188,2020-05-08,09:43:32,10:06:22,NA,incomplete,73,filling,0,left,Purple_Circle_Dots_3.jpg,Red_Triangle_Dots_4.jpg,Green_Circle_Grid_1.jpg,left,1037.3749999562278,true,low,false
dU2o0sJ8,3vll1pieot1c2ogsesvb4yutk6poza,3ea3qwiz4m887auk17yqnxth7rkti9,dU2o0sJ8,2020-0188,2020-05-08,09:43:32,10:06:22,NA,incomplete,74,filling,0,right,Red_Circle_Grid_3.jpg,Blue_Circle_Dots_2.jpg,Purple_Star_Grid_4.jpg,right,992.1649999450892,true,low,false
dU2o0sJ8,3vll1pieot1c2ogsesvb4yutk6poza,3ea3qwiz4m887auk17yqnxth7rkti9,dU2o0sJ8,2020-0188,2020-05-08,09:43:32,10:06:22,NA,incomplete,75,filling,0,left,Red_Plus_Stripes_2.jpg,Green_Star_Stripes_4.jpg,Blue_Plus_Dots_3.jpg,left,1367.6100000739098,true,low,false
dU2o0sJ8,3vll1pieot1c2ogsesvb4yutk6poza,3ea3qwiz4m887auk17yqnxth7rkti9,dU2o0sJ8,2020-0188,2020-05-08,09:43:32,10:06:22,NA,incomplete,76,filling,1,right,Purple_Star_Stripes_3.jpg,Green_Star_Dots_2.jpg,Red_Plus_Stripes_1.jpg,left,731.2849999871105,false,low,false
dU2o0sJ8,3vll1pieot1c2ogsesvb4yutk6poza,3ea3qwiz4m887auk17yqnxth7rkti9,dU2o0sJ8,2020-0188,2020-05-08,09:43:32,10:06:22,NA,incomplete,77,filling,0,left,Blue_Star_Stripes_2.jpg,Green_Circle_Stripes_3.jpg,Red_Star_Chess_4.jpg,right,711.3499999977648,false,low,false
dU2o0sJ8,3vll1pieot1c2ogsesvb4yutk6poza,3ea3qwiz4m887auk17yqnxth7rkti9,dU2o0sJ8,2020-0188,2020-05-08,09:43:32,10:06:22,NA,incomplete,78,filling,1,left,Green_Circle_Dots_2.jpg,Blue_Star_Dots_3.jpg,Purple_Circle_Grid_1.jpg,left,898.5600000014529,true,low,false
dU2o0sJ8,3vll1pieot1c2ogsesvb4yutk6poza,3ea3qwiz4m887auk17yqnxth7rkti9,dU2o0sJ8,2020-0188,2020-05-08,09:43:32,10:06:22,NA,incomplete,79,filling,1,right,Green_Triangle_Chess_1.jpg,Red_Triangle_Dots_4.jpg,Purple_Plus_Chess_3.jpg,right,736.5449999924749,true,low,false
dU2o0sJ8,3vll1pieot1c2ogsesvb4yutk6poza,3ea3qwiz4m887auk17yqnxth7rkti9,dU2o0sJ8,2020-0188,2020-05-08,09:43:32,10:06:22,NA,incomplete,80,filling,1,left,Blue_Triangle_Dots_2.jpg,Purple_Plus_Dots_3.jpg,Red_Triangle_Chess_4.jpg,left,1066.4999999571592,true,low,false
dU2o0sJ8,3vll1pieot1c2ogsesvb4yutk6poza,3ea3qwiz4m887auk17yqnxth7rkti9,dU2o0sJ8,2020-0188,2020-05-08,09:43:32,10:06:22,NA,incomplete,81,filling,1,right,Blue_Star_Stripes_3.jpg,Red_Star_Dots_2.jpg,Purple_Plus_Stripes_4.jpg,right,1022.1850000089034,true,low,false
dU2o0sJ8,3vll1pieot1c2ogsesvb4yutk6poza,3ea3qwiz4m887auk17yqnxth7rkti9,dU2o0sJ8,2020-0188,2020-05-08,09:43:32,10:06:22,NA,incomplete,82,filling,1,right,Red_Plus_Dots_4.jpg,Purple_Plus_Chess_3.jpg,Green_Star_Dots_1.jpg,right,1192.3149999929592,true,low,false
dU2o0sJ8,3vll1pieot1c2ogsesvb4yutk6poza,3ea3qwiz4m887auk17yqnxth7rkti9,dU2o0sJ8,2020-0188,2020-05-08,09:43:32,10:06:22,NA,incomplete,83,filling,1,left,Purple_Triangle_Chess_4.jpg,Blue_Plus_Chess_3.jpg,Red_Triangle_Dots_1.jpg,left,915.125000057742,true,low,false
dU2o0sJ8,3vll1pieot1c2ogsesvb4yutk6poza,3ea3qwiz4m887auk17yqnxth7rkti9,dU2o0sJ8,2020-0188,2020-05-08,09:43:32,10:06:22,NA,incomplete,84,filling,1,left,Green_Triangle_Chess_2.jpg,Red_Circle_Chess_4.jpg,Blue_Triangle_Dots_3.jpg,left,799.5599999558181,true,low,false
dU2o0sJ8,3vll1pieot1c2ogsesvb4yutk6poza,3ea3qwiz4m887auk17yqnxth7rkti9,dU2o0sJ8,2020-0188,2020-05-08,09:43:32,10:06:22,NA,incomplete,85,filling,1,right,Purple_Triangle_Grid_2.jpg,Blue_Triangle_Stripes_1.jpg,Green_Circle_Grid_3.jpg,right,1076.0400000726804,true,low,false
dU2o0sJ8,3vll1pieot1c2ogsesvb4yutk6poza,3ea3qwiz4m887auk17yqnxth7rkti9,dU2o0sJ8,2020-0188,2020-05-08,09:43:32,10:06:22,NA,incomplete,86,filling,1,right,Purple_Star_Stripes_1.jpg,Blue_Star_Chess_2.jpg,Red_Circle_Stripes_3.jpg,right,915.515000000596,true,low,false
dU2o0sJ8,3vll1pieot1c2ogsesvb4yutk6poza,3ea3qwiz4m887auk17yqnxth7rkti9,dU2o0sJ8,2020-0188,2020-05-08,09:43:32,10:06:22,NA,incomplete,87,filling,1,left,Red_Star_Chess_4.jpg,Green_Circle_Chess_1.jpg,Purple_Star_Stripes_2.jpg,left,937.9600000102073,true,low,false
dU2o0sJ8,3vll1pieot1c2ogsesvb4yutk6poza,3ea3qwiz4m887auk17yqnxth7rkti9,dU2o0sJ8,2020-0188,2020-05-08,09:43:32,10:06:22,NA,incomplete,88,filling,0,right,Red_Star_Stripes_4.jpg,Blue_Star_Dots_3.jpg,Green_Circle_Stripes_2.jpg,right,1062.305000028573,true,low,false
dU2o0sJ8,3vll1pieot1c2ogsesvb4yutk6poza,3ea3qwiz4m887auk17yqnxth7rkti9,dU2o0sJ8,2020-0188,2020-05-08,09:43:32,10:06:22,NA,incomplete,89,filling,1,right,Purple_Plus_Chess_1.jpg,Red_Plus_Dots_4.jpg,Blue_Circle_Chess_3.jpg,right,1164.625000092201,true,low,false
dU2o0sJ8,3vll1pieot1c2ogsesvb4yutk6poza,3ea3qwiz4m887auk17yqnxth7rkti9,dU2o0sJ8,2020-0188,2020-05-08,09:43:32,10:06:22,NA,incomplete,90,shape,1,left,Red_Triangle_Grid_1.jpg,Blue_Triangle_Dots_4.jpg,Green_Star_Grid_3.jpg,left,839.0600000275299,true,low,false
dU2o0sJ8,3vll1pieot1c2ogsesvb4yutk6poza,3ea3qwiz4m887auk17yqnxth7rkti9,dU2o0sJ8,2020-0188,2020-05-08,09:43:32,10:06:22,NA,incomplete,91,shape,1,right,Green_Circle_Chess_4.jpg,Blue_Plus_Chess_3.jpg,Red_Circle_Stripes_1.jpg,right,805.4499999852851,true,low,false
dU2o0sJ8,3vll1pieot1c2ogsesvb4yutk6poza,3ea3qwiz4m887auk17yqnxth7rkti9,dU2o0sJ8,2020-0188,2020-05-08,09:43:32,10:06:22,NA,incomplete,92,shape,1,right,Purple_Triangle_Dots_1.jpg,Red_Plus_Dots_3.jpg,Green_Triangle_Stripes_4.jpg,right,791.2500000093132,true,low,false
dU2o0sJ8,3vll1pieot1c2ogsesvb4yutk6poza,3ea3qwiz4m887auk17yqnxth7rkti9,dU2o0sJ8,2020-0188,2020-05-08,09:43:32,10:06:22,NA,incomplete,93,shape,1,left,Green_Plus_Stripes_2.jpg,Blue_Plus_Chess_1.jpg,Purple_Triangle_Stripes_4.jpg,left,658.8899999624118,true,low,false
dU2o0sJ8,3vll1pieot1c2ogsesvb4yutk6poza,3ea3qwiz4m887auk17yqnxth7rkti9,dU2o0sJ8,2020-0188,2020-05-08,09:43:32,10:06:22,NA,incomplete,94,shape,1,right,Blue_Triangle_Dots_2.jpg,Purple_Plus_Dots_1.jpg,Red_Triangle_Grid_4.jpg,right,734.3250000849366,true,low,false
dU2o0sJ8,3vll1pieot1c2ogsesvb4yutk6poza,3ea3qwiz4m887auk17yqnxth7rkti9,dU2o0sJ8,2020-0188,2020-05-08,09:43:32,10:06:22,NA,incomplete,95,shape,1,left,Red_Star_Chess_3.jpg,Green_Star_Stripes_4.jpg,Blue_Circle_Chess_1.jpg,left,633.1650000065565,true,low,false
dU2o0sJ8,3vll1pieot1c2ogsesvb4yutk6poza,3ea3qwiz4m887auk17yqnxth7rkti9,dU2o0sJ8,2020-0188,2020-05-08,09:43:32,10:06:22,NA,incomplete,96,shape,0,right,Red_Circle_Dots_3.jpg,Purple_Triangle_Dots_1.jpg,Green_Circle_Stripes_4.jpg,right,574.6599999256432,true,low,false
dU2o0sJ8,3vll1pieot1c2ogsesvb4yutk6poza,3ea3qwiz4m887auk17yqnxth7rkti9,dU2o0sJ8,2020-0188,2020-05-08,09:43:32,10:06:22,NA,incomplete,97,shape,1,right,Blue_Circle_Grid_2.jpg,Purple_Triangle_Grid_1.jpg,Green_Circle_Stripes_4.jpg,left,803.6999999312684,false,low,false
dU2o0sJ8,3vll1pieot1c2ogsesvb4yutk6poza,3ea3qwiz4m887auk17yqnxth7rkti9,dU2o0sJ8,2020-0188,2020-05-08,09:43:32,10:06:22,NA,incomplete,98,shape,1,right,Blue_Triangle_Grid_4.jpg,Green_Plus_Grid_3.jpg,Purple_Triangle_Dots_1.jpg,left,617.119999951683,false,low,false
dU2o0sJ8,3vll1pieot1c2ogsesvb4yutk6poza,3ea3qwiz4m887auk17yqnxth7rkti9,dU2o0sJ8,2020-0188,2020-05-08,09:43:32,10:06:22,NA,incomplete,99,shape,1,right,Blue_Triangle_Grid_4.jpg,Purple_Star_Grid_3.jpg,Green_Triangle_Dots_1.jpg,right,865.1100000133738,true,low,false
dU2o0sJ8,3vll1pieot1c2ogsesvb4yutk6poza,3ea3qwiz4m887auk17yqnxth7rkti9,dU2o0sJ8,2020-0188,2020-05-08,09:43:32,10:06:22,NA,incomplete,100,shape,1,right,Red_Star_Dots_2.jpg,Green_Triangle_Dots_1.jpg,Purple_Star_Stripes_3.jpg,right,562.0099999941885,true,low,false
dU2o0sJ8,3vll1pieot1c2ogsesvb4yutk6poza,3ea3qwiz4m887auk17yqnxth7rkti9,dU2o0sJ8,2020-0188,2020-05-08,09:43:32,10:06:22,NA,incomplete,101,shape,1,right,Red_Plus_Chess_2.jpg,Green_Circle_Chess_3.jpg,Blue_Plus_Stripes_4.jpg,right,560.5450000148267,true,low,false
dU2o0sJ8,3vll1pieot1c2ogsesvb4yutk6poza,3ea3qwiz4m887auk17yqnxth7rkti9,dU2o0sJ8,2020-0188,2020-05-08,09:43:32,10:06:22,NA,incomplete,102,shape,0,left,Blue_Circle_Stripes_3.jpg,Green_Circle_Grid_4.jpg,Purple_Triangle_Stripes_1.jpg,left,640.6450000358745,true,low,false
dU2o0sJ8,3vll1pieot1c2ogsesvb4yutk6poza,3ea3qwiz4m887auk17yqnxth7rkti9,dU2o0sJ8,2020-0188,2020-05-08,09:43:32,10:06:22,NA,incomplete,103,shape,1,right,Green_Plus_Grid_3.jpg,Red_Star_Grid_1.jpg,Blue_Plus_Stripes_4.jpg,right,682.5100000714883,true,low,false
dU2o0sJ8,3vll1pieot1c2ogsesvb4yutk6poza,3ea3qwiz4m887auk17yqnxth7rkti9,dU2o0sJ8,2020-0188,2020-05-08,09:43:32,10:06:22,NA,incomplete,104,shape,1,left,Green_Plus_Dots_1.jpg,Blue_Plus_Grid_3.jpg,Purple_Star_Dots_4.jpg,left,630.3949999855831,true,low,false
dU2o0sJ8,3vll1pieot1c2ogsesvb4yutk6poza,3ea3qwiz4m887auk17yqnxth7rkti9,dU2o0sJ8,2020-0188,2020-05-08,09:43:32,10:06:22,NA,incomplete,105,shape,1,right,Green_Star_Chess_2.jpg,Red_Triangle_Chess_1.jpg,Blue_Star_Grid_3.jpg,right,542.710000067018,true,low,false
dU2o0sJ8,3vll1pieot1c2ogsesvb4yutk6poza,3ea3qwiz4m887auk17yqnxth7rkti9,dU2o0sJ8,2020-0188,2020-05-08,09:43:32,10:06:22,NA,incomplete,106,shape,1,left,Purple_Triangle_Dots_2.jpg,Green_Triangle_Stripes_1.jpg,Red_Circle_Dots_3.jpg,left,661.9250000221655,true,low,false
dU2o0sJ8,3vll1pieot1c2ogsesvb4yutk6poza,3ea3qwiz4m887auk17yqnxth7rkti9,dU2o0sJ8,2020-0188,2020-05-08,09:43:32,10:06:22,NA,incomplete,107,shape,1,left,Green_Triangle_Dots_3.jpg,Purple_Triangle_Chess_1.jpg,Blue_Plus_Dots_2.jpg,right,513.3099999511614,false,low,false
dU2o0sJ8,3vll1pieot1c2ogsesvb4yutk6poza,3ea3qwiz4m887auk17yqnxth7rkti9,dU2o0sJ8,2020-0188,2020-05-08,09:43:32,10:06:22,NA,incomplete,108,shape,1,right,Green_Triangle_Dots_2.jpg,Purple_Plus_Dots_1.jpg,Red_Triangle_Stripes_3.jpg,right,540.8649999881163,true,low,false
dU2o0sJ8,3vll1pieot1c2ogsesvb4yutk6poza,3ea3qwiz4m887auk17yqnxth7rkti9,dU2o0sJ8,2020-0188,2020-05-08,09:43:32,10:06:22,NA,incomplete,109,shape,1,right,Red_Plus_Stripes_1.jpg,Blue_Triangle_Stripes_3.jpg,Purple_Plus_Dots_2.jpg,right,868.1499999947846,true,low,false
dU2o0sJ8,3vll1pieot1c2ogsesvb4yutk6poza,3ea3qwiz4m887auk17yqnxth7rkti9,dU2o0sJ8,2020-0188,2020-05-08,09:43:32,10:06:22,NA,incomplete,110,shape,1,left,Red_Star_Chess_4.jpg,Blue_Star_Dots_3.jpg,Purple_Plus_Chess_1.jpg,left,553.8599999854341,true,low,false
dU2o0sJ8,3vll1pieot1c2ogsesvb4yutk6poza,3ea3qwiz4m887auk17yqnxth7rkti9,dU2o0sJ8,2020-0188,2020-05-08,09:43:32,10:06:22,NA,incomplete,111,shape,1,left,Green_Star_Dots_3.jpg,Blue_Star_Stripes_2.jpg,Red_Plus_Dots_4.jpg,left,675.0750000355765,true,low,false
dU2o0sJ8,3vll1pieot1c2ogsesvb4yutk6poza,3ea3qwiz4m887auk17yqnxth7rkti9,dU2o0sJ8,2020-0188,2020-05-08,09:43:32,10:06:22,NA,incomplete,112,shape,0,left,Purple_Triangle_Grid_2.jpg,Green_Triangle_Stripes_1.jpg,Red_Circle_Grid_4.jpg,left,714.1150000970811,true,low,false
dU2o0sJ8,3vll1pieot1c2ogsesvb4yutk6poza,3ea3qwiz4m887auk17yqnxth7rkti9,dU2o0sJ8,2020-0188,2020-05-08,09:43:32,10:06:22,NA,incomplete,113,shape,1,right,Purple_Star_Chess_2.jpg,Blue_Circle_Chess_3.jpg,Red_Star_Grid_1.jpg,right,681.6600000020117,true,low,false
dU2o0sJ8,3vll1pieot1c2ogsesvb4yutk6poza,3ea3qwiz4m887auk17yqnxth7rkti9,dU2o0sJ8,2020-0188,2020-05-08,09:43:32,10:06:22,NA,incomplete,114,shape,0,left,Blue_Plus_Stripes_1.jpg,Green_Plus_Grid_3.jpg,Purple_Circle_Stripes_4.jpg,left,1031.859999988228,true,low,false
dU2o0sJ8,3vll1pieot1c2ogsesvb4yutk6poza,3ea3qwiz4m887auk17yqnxth7rkti9,dU2o0sJ8,2020-0188,2020-05-08,09:43:32,10:06:22,NA,incomplete,115,shape,1,right,Blue_Plus_Grid_1.jpg,Purple_Circle_Grid_4.jpg,Green_Plus_Chess_3.jpg,right,729.1950000217184,true,low,false
dU2o0sJ8,3vll1pieot1c2ogsesvb4yutk6poza,3ea3qwiz4m887auk17yqnxth7rkti9,dU2o0sJ8,2020-0188,2020-05-08,09:43:32,10:06:22,NA,incomplete,116,shape,1,right,Green_Star_Stripes_2.jpg,Purple_Circle_Stripes_1.jpg,Blue_Star_Grid_4.jpg,right,766.8749999720603,true,low,false
dU2o0sJ8,3vll1pieot1c2ogsesvb4yutk6poza,3ea3qwiz4m887auk17yqnxth7rkti9,dU2o0sJ8,2020-0188,2020-05-08,09:43:32,10:06:22,NA,incomplete,117,shape,1,left,Red_Circle_Dots_2.jpg,Purple_Circle_Grid_4.jpg,Blue_Triangle_Dots_1.jpg,left,621.1350000230595,true,low,false
dU2o0sJ8,3vll1pieot1c2ogsesvb4yutk6poza,3ea3qwiz4m887auk17yqnxth7rkti9,dU2o0sJ8,2020-0188,2020-05-08,09:43:32,10:06:22,NA,incomplete,118,shape,0,right,Green_Plus_Chess_2.jpg,Purple_Star_Chess_1.jpg,Red_Plus_Grid_3.jpg,right,506.4799999818206,true,low,false
dU2o0sJ8,3vll1pieot1c2ogsesvb4yutk6poza,3ea3qwiz4m887auk17yqnxth7rkti9,dU2o0sJ8,2020-0188,2020-05-08,09:43:32,10:06:22,NA,incomplete,119,shape,1,left,Blue_Circle_Chess_2.jpg,Purple_Circle_Dots_4.jpg,Green_Plus_Chess_3.jpg,left,673.7350000767037,true,low,false
dU2o0sJ8,3vll1pieot1c2ogsesvb4yutk6poza,3ea3qwiz4m887auk17yqnxth7rkti9,dU2o0sJ8,2020-0188,2020-05-08,09:43:32,10:06:22,NA,incomplete,120,filling,1,right,Purple_Circle_Stripes_1.jpg,Blue_Circle_Dots_3.jpg,Red_Triangle_Stripes_2.jpg,left,486.36500001884997,false,low,false
dU2o0sJ8,3vll1pieot1c2ogsesvb4yutk6poza,3ea3qwiz4m887auk17yqnxth7rkti9,dU2o0sJ8,2020-0188,2020-05-08,09:43:32,10:06:22,NA,incomplete,121,filling,1,left,Purple_Circle_Dots_2.jpg,Red_Plus_Dots_1.jpg,Blue_Circle_Grid_3.jpg,left,1334.0099999913946,true,low,false
dU2o0sJ8,3vll1pieot1c2ogsesvb4yutk6poza,3ea3qwiz4m887auk17yqnxth7rkti9,dU2o0sJ8,2020-0188,2020-05-08,09:43:32,10:06:22,NA,incomplete,122,filling,1,right,Blue_Circle_Grid_4.jpg,Purple_Circle_Dots_1.jpg,Red_Star_Grid_3.jpg,left,820.6650000065565,false,low,false
dU2o0sJ8,3vll1pieot1c2ogsesvb4yutk6poza,3ea3qwiz4m887auk17yqnxth7rkti9,dU2o0sJ8,2020-0188,2020-05-08,09:43:32,10:06:22,NA,incomplete,123,filling,1,left,Blue_Star_Stripes_2.jpg,Purple_Plus_Stripes_1.jpg,Green_Star_Grid_4.jpg,left,1162.0000000111759,true,low,false
dU2o0sJ8,3vll1pieot1c2ogsesvb4yutk6poza,3ea3qwiz4m887auk17yqnxth7rkti9,dU2o0sJ8,2020-0188,2020-05-08,09:43:32,10:06:22,NA,incomplete,124,filling,0,left,Green_Plus_Dots_4.jpg,Red_Star_Dots_2.jpg,Purple_Plus_Grid_1.jpg,left,1100.4399999510497,true,low,false
dU2o0sJ8,3vll1pieot1c2ogsesvb4yutk6poza,3ea3qwiz4m887auk17yqnxth7rkti9,dU2o0sJ8,2020-0188,2020-05-08,09:43:32,10:06:22,NA,incomplete,125,filling,1,left,Green_Plus_Dots_3.jpg,Purple_Star_Dots_4.jpg,Blue_Plus_Chess_2.jpg,left,1539.8399999830872,true,low,false
dU2o0sJ8,3vll1pieot1c2ogsesvb4yutk6poza,3ea3qwiz4m887auk17yqnxth7rkti9,dU2o0sJ8,2020-0188,2020-05-08,09:43:32,10:06:22,NA,incomplete,126,filling,0,right,Purple_Triangle_Stripes_3.jpg,Green_Triangle_Grid_2.jpg,Blue_Plus_Stripes_1.jpg,right,1147.3549999063835,true,low,false
dU2o0sJ8,3vll1pieot1c2ogsesvb4yutk6poza,3ea3qwiz4m887auk17yqnxth7rkti9,dU2o0sJ8,2020-0188,2020-05-08,09:43:32,10:06:22,NA,incomplete,127,filling,1,left,Green_Circle_Grid_4.jpg,Purple_Star_Grid_3.jpg,Blue_Circle_Dots_1.jpg,right,1203.6850000731647,false,low,false
dU2o0sJ8,3vll1pieot1c2ogsesvb4yutk6poza,3ea3qwiz4m887auk17yqnxth7rkti9,dU2o0sJ8,2020-0188,2020-05-08,09:43:32,10:06:22,NA,incomplete,128,filling,1,left,Purple_Plus_Stripes_2.jpg,Green_Star_Stripes_4.jpg,Red_Plus_Grid_3.jpg,left,967.9949999554083,true,low,false
dU2o0sJ8,3vll1pieot1c2ogsesvb4yutk6poza,3ea3qwiz4m887auk17yqnxth7rkti9,dU2o0sJ8,2020-0188,2020-05-08,09:43:32,10:06:22,NA,incomplete,129,filling,1,right,Green_Plus_Dots_3.jpg,Blue_Plus_Chess_4.jpg,Red_Circle_Dots_2.jpg,right,926.6000000061467,true,low,false
dU2o0sJ8,3vll1pieot1c2ogsesvb4yutk6poza,3ea3qwiz4m887auk17yqnxth7rkti9,dU2o0sJ8,2020-0188,2020-05-08,09:43:32,10:06:22,NA,incomplete,130,filling,1,left,Red_Star_Stripes_3.jpg,Purple_Triangle_Stripes_2.jpg,Blue_Star_Grid_1.jpg,left,798.4149999683723,true,low,false
dU2o0sJ8,3vll1pieot1c2ogsesvb4yutk6poza,3ea3qwiz4m887auk17yqnxth7rkti9,dU2o0sJ8,2020-0188,2020-05-08,09:43:32,10:06:22,NA,incomplete,131,filling,1,left,Purple_Triangle_Dots_3.jpg,Green_Star_Dots_1.jpg,Blue_Triangle_Stripes_4.jpg,left,990.2549999533221,true,low,false
dU2o0sJ8,3vll1pieot1c2ogsesvb4yutk6poza,3ea3qwiz4m887auk17yqnxth7rkti9,dU2o0sJ8,2020-0188,2020-05-08,09:43:32,10:06:22,NA,incomplete,132,filling,1,left,Red_Triangle_Dots_4.jpg,Purple_Circle_Dots_3.jpg,Blue_Triangle_Chess_1.jpg,left,868.0900000035763,true,low,false
dU2o0sJ8,3vll1pieot1c2ogsesvb4yutk6poza,3ea3qwiz4m887auk17yqnxth7rkti9,dU2o0sJ8,2020-0188,2020-05-08,09:43:32,10:06:22,NA,incomplete,133,filling,1,right,Blue_Triangle_Grid_3.jpg,Green_Triangle_Dots_4.jpg,Purple_Circle_Grid_2.jpg,right,1048.8149999873713,true,low,false
dU2o0sJ8,3vll1pieot1c2ogsesvb4yutk6poza,3ea3qwiz4m887auk17yqnxth7rkti9,dU2o0sJ8,2020-0188,2020-05-08,09:43:32,10:06:22,NA,incomplete,134,filling,1,left,Blue_Triangle_Dots_4.jpg,Red_Circle_Dots_1.jpg,Green_Triangle_Stripes_3.jpg,left,937.9300000146031,true,low,false
dU2o0sJ8,3vll1pieot1c2ogsesvb4yutk6poza,3ea3qwiz4m887auk17yqnxth7rkti9,dU2o0sJ8,2020-0188,2020-05-08,09:43:32,10:06:22,NA,incomplete,135,filling,1,right,Green_Triangle_Grid_2.jpg,Purple_Triangle_Chess_4.jpg,Blue_Circle_Grid_3.jpg,right,1095.5000000540167,true,low,false
dU2o0sJ8,3vll1pieot1c2ogsesvb4yutk6poza,3ea3qwiz4m887auk17yqnxth7rkti9,dU2o0sJ8,2020-0188,2020-05-08,09:43:32,10:06:22,NA,incomplete,136,filling,0,left,Red_Plus_Stripes_3.jpg,Blue_Circle_Stripes_2.jpg,Purple_Plus_Dots_4.jpg,left,1063.2550000445917,true,low,false
dU2o0sJ8,3vll1pieot1c2ogsesvb4yutk6poza,3ea3qwiz4m887auk17yqnxth7rkti9,dU2o0sJ8,2020-0188,2020-05-08,09:43:32,10:06:22,NA,incomplete,137,filling,1,left,Purple_Triangle_Dots_3.jpg,Green_Plus_Dots_1.jpg,Red_Triangle_Grid_2.jpg,left,1122.9850000236183,true,low,false
dU2o0sJ8,3vll1pieot1c2ogsesvb4yutk6poza,3ea3qwiz4m887auk17yqnxth7rkti9,dU2o0sJ8,2020-0188,2020-05-08,09:43:32,10:06:22,NA,incomplete,138,filling,1,left,Purple_Circle_Dots_3.jpg,Red_Star_Dots_4.jpg,Blue_Circle_Chess_1.jpg,left,1072.5950000341982,true,low,false
dU2o0sJ8,3vll1pieot1c2ogsesvb4yutk6poza,3ea3qwiz4m887auk17yqnxth7rkti9,dU2o0sJ8,2020-0188,2020-05-08,09:43:32,10:06:22,NA,incomplete,139,filling,1,right,Purple_Star_Stripes_1.jpg,Blue_Star_Grid_4.jpg,Green_Circle_Stripes_3.jpg,left,890.3949999948964,false,low,false
dU2o0sJ8,3vll1pieot1c2ogsesvb4yutk6poza,3ea3qwiz4m887auk17yqnxth7rkti9,dU2o0sJ8,2020-0188,2020-05-08,09:43:32,10:06:22,NA,incomplete,140,shape,1,right,Red_Star_Dots_1.jpg,Green_Circle_Dots_4.jpg,Blue_Star_Chess_2.jpg,left,874.140000087209,false,low,false
dU2o0sJ8,3vll1pieot1c2ogsesvb4yutk6poza,3ea3qwiz4m887auk17yqnxth7rkti9,dU2o0sJ8,2020-0188,2020-05-08,09:43:32,10:06:22,NA,incomplete,141,shape,1,left,Red_Triangle_Stripes_2.jpg,Purple_Triangle_Chess_4.jpg,Green_Circle_Stripes_3.jpg,right,1346.55500005465,false,low,false
dU2o0sJ8,3vll1pieot1c2ogsesvb4yutk6poza,3ea3qwiz4m887auk17yqnxth7rkti9,dU2o0sJ8,2020-0188,2020-05-08,09:43:32,10:06:22,NA,incomplete,142,shape,1,left,Purple_Triangle_Stripes_4.jpg,Green_Triangle_Dots_2.jpg,Blue_Circle_Stripes_1.jpg,left,792.0199999352917,true,low,false
dU2o0sJ8,3vll1pieot1c2ogsesvb4yutk6poza,3ea3qwiz4m887auk17yqnxth7rkti9,dU2o0sJ8,2020-0188,2020-05-08,09:43:32,10:06:22,NA,incomplete,143,shape,1,left,Red_Star_Dots_2.jpg,Purple_Star_Chess_3.jpg,Green_Plus_Dots_1.jpg,left,671.6299999970943,true,low,false
dU2o0sJ8,3vll1pieot1c2ogsesvb4yutk6poza,3ea3qwiz4m887auk17yqnxth7rkti9,dU2o0sJ8,2020-0188,2020-05-08,09:43:32,10:06:22,NA,incomplete,144,shape,1,right,Green_Plus_Grid_2.jpg,Purple_Star_Grid_1.jpg,Red_Plus_Stripes_4.jpg,left,720.4850000562146,false,low,false
dU2o0sJ8,3vll1pieot1c2ogsesvb4yutk6poza,3ea3qwiz4m887auk17yqnxth7rkti9,dU2o0sJ8,2020-0188,2020-05-08,09:43:32,10:06:22,NA,incomplete,145,shape,1,right,Blue_Circle_Stripes_2.jpg,Purple_Plus_Stripes_3.jpg,Red_Circle_Chess_4.jpg,right,1452.3549999576062,true,low,false
dU2o0sJ8,3vll1pieot1c2ogsesvb4yutk6poza,3ea3qwiz4m887auk17yqnxth7rkti9,dU2o0sJ8,2020-0188,2020-05-08,09:43:32,10:06:22,NA,incomplete,146,shape,1,left,Green_Circle_Dots_3.jpg,Purple_Circle_Chess_2.jpg,Red_Triangle_Dots_1.jpg,left,604.3300000019372,true,low,false
dU2o0sJ8,3vll1pieot1c2ogsesvb4yutk6poza,3ea3qwiz4m887auk17yqnxth7rkti9,dU2o0sJ8,2020-0188,2020-05-08,09:43:32,10:06:22,NA,incomplete,147,shape,1,right,Green_Star_Stripes_2.jpg,Purple_Circle_Stripes_1.jpg,Red_Star_Chess_4.jpg,right,583.4650000324473,true,low,false
dU2o0sJ8,3vll1pieot1c2ogsesvb4yutk6poza,3ea3qwiz4m887auk17yqnxth7rkti9,dU2o0sJ8,2020-0188,2020-05-08,09:43:32,10:06:22,NA,incomplete,148,shape,1,right,Blue_Circle_Grid_2.jpg,Green_Plus_Grid_4.jpg,Red_Circle_Stripes_1.jpg,right,753.7149999989197,true,low,false
dU2o0sJ8,3vll1pieot1c2ogsesvb4yutk6poza,3ea3qwiz4m887auk17yqnxth7rkti9,dU2o0sJ8,2020-0188,2020-05-08,09:43:32,10:06:22,NA,incomplete,149,shape,1,right,Purple_Plus_Stripes_3.jpg,Blue_Circle_Stripes_2.jpg,Green_Plus_Chess_4.jpg,right,635.7950000092387,true,low,false
dU2o0sJ8,3vll1pieot1c2ogsesvb4yutk6poza,3ea3qwiz4m887auk17yqnxth7rkti9,dU2o0sJ8,2020-0188,2020-05-08,09:43:32,10:06:22,NA,incomplete,150,shape,1,right,Purple_Plus_Dots_1.jpg,Blue_Circle_Dots_3.jpg,Green_Plus_Stripes_4.jpg,right,572.2000000532717,true,low,false
dU2o0sJ8,3vll1pieot1c2ogsesvb4yutk6poza,3ea3qwiz4m887auk17yqnxth7rkti9,dU2o0sJ8,2020-0188,2020-05-08,09:43:32,10:06:22,NA,incomplete,151,shape,1,left,Green_Plus_Chess_2.jpg,Red_Plus_Stripes_3.jpg,Blue_Circle_Chess_1.jpg,left,546.2200000183657,true,low,false
dU2o0sJ8,3vll1pieot1c2ogsesvb4yutk6poza,3ea3qwiz4m887auk17yqnxth7rkti9,dU2o0sJ8,2020-0188,2020-05-08,09:43:32,10:06:22,NA,incomplete,152,shape,0,left,Blue_Circle_Grid_1.jpg,Green_Circle_Stripes_2.jpg,Purple_Plus_Grid_3.jpg,left,767.0549999456853,true,low,false
dU2o0sJ8,3vll1pieot1c2ogsesvb4yutk6poza,3ea3qwiz4m887auk17yqnxth7rkti9,dU2o0sJ8,2020-0188,2020-05-08,09:43:32,10:06:22,NA,incomplete,153,shape,1,right,Green_Circle_Chess_4.jpg,Blue_Star_Chess_3.jpg,Red_Circle_Grid_1.jpg,right,1221.3299999712035,true,low,false
dU2o0sJ8,3vll1pieot1c2ogsesvb4yutk6poza,3ea3qwiz4m887auk17yqnxth7rkti9,dU2o0sJ8,2020-0188,2020-05-08,09:43:32,10:06:22,NA,incomplete,154,shape,0,left,Purple_Circle_Grid_1.jpg,Blue_Circle_Chess_3.jpg,Red_Triangle_Grid_4.jpg,right,946.739999926649,false,low,false
dU2o0sJ8,3vll1pieot1c2ogsesvb4yutk6poza,3ea3qwiz4m887auk17yqnxth7rkti9,dU2o0sJ8,2020-0188,2020-05-08,09:43:32,10:06:22,NA,incomplete,155,shape,1,right,Green_Circle_Stripes_4.jpg,Blue_Triangle_Stripes_2.jpg,Red_Circle_Dots_1.jpg,right,1043.5249999864027,true,low,false
dU2o0sJ8,3vll1pieot1c2ogsesvb4yutk6poza,3ea3qwiz4m887auk17yqnxth7rkti9,dU2o0sJ8,2020-0188,2020-05-08,09:43:32,10:06:22,NA,incomplete,156,shape,1,left,Red_Plus_Grid_2.jpg,Blue_Plus_Dots_1.jpg,Green_Star_Grid_4.jpg,left,630.9899999760091,true,low,false
dU2o0sJ8,3vll1pieot1c2ogsesvb4yutk6poza,3ea3qwiz4m887auk17yqnxth7rkti9,dU2o0sJ8,2020-0188,2020-05-08,09:43:32,10:06:22,NA,incomplete,157,shape,1,left,Blue_Plus_Grid_1.jpg,Red_Plus_Dots_2.jpg,Purple_Circle_Grid_4.jpg,left,702.4049999890849,true,low,false
dU2o0sJ8,3vll1pieot1c2ogsesvb4yutk6poza,3ea3qwiz4m887auk17yqnxth7rkti9,dU2o0sJ8,2020-0188,2020-05-08,09:43:32,10:06:22,NA,incomplete,158,shape,1,right,Green_Star_Chess_2.jpg,Purple_Circle_Chess_3.jpg,Blue_Star_Stripes_1.jpg,right,778.27500004787,true,low,false
dU2o0sJ8,3vll1pieot1c2ogsesvb4yutk6poza,3ea3qwiz4m887auk17yqnxth7rkti9,dU2o0sJ8,2020-0188,2020-05-08,09:43:32,10:06:22,NA,incomplete,159,shape,0,right,Green_Triangle_Chess_1.jpg,Red_Circle_Chess_3.jpg,Blue_Triangle_Stripes_4.jpg,right,1001.1599999852479,true,low,false
dU2o0sJ8,3vll1pieot1c2ogsesvb4yutk6poza,3ea3qwiz4m887auk17yqnxth7rkti9,dU2o0sJ8,2020-0188,2020-05-08,09:43:32,10:06:22,NA,incomplete,160,filling,1,right,Blue_Plus_Dots_4.jpg,Red_Plus_Stripes_2.jpg,Purple_Triangle_Dots_3.jpg,left,686.5349999861792,false,low,false
dU2o0sJ8,3vll1pieot1c2ogsesvb4yutk6poza,3ea3qwiz4m887auk17yqnxth7rkti9,dU2o0sJ8,2020-0188,2020-05-08,09:43:32,10:06:22,NA,incomplete,161,filling,1,right,Purple_Triangle_Grid_4.jpg,Green_Triangle_Stripes_1.jpg,Blue_Circle_Grid_3.jpg,left,804.7900000819936,false,low,false
dU2o0sJ8,3vll1pieot1c2ogsesvb4yutk6poza,3ea3qwiz4m887auk17yqnxth7rkti9,dU2o0sJ8,2020-0188,2020-05-08,09:43:32,10:06:22,NA,incomplete,162,filling,1,left,Blue_Circle_Chess_3.jpg,Purple_Star_Chess_1.jpg,Red_Circle_Grid_4.jpg,left,1013.9350000536069,true,low,false
dU2o0sJ8,3vll1pieot1c2ogsesvb4yutk6poza,3ea3qwiz4m887auk17yqnxth7rkti9,dU2o0sJ8,2020-0188,2020-05-08,09:43:32,10:06:22,NA,incomplete,163,filling,1,left,Green_Circle_Grid_4.jpg,Red_Star_Grid_1.jpg,Blue_Circle_Dots_3.jpg,right,810.3500000433996,false,low,false
dU2o0sJ8,3vll1pieot1c2ogsesvb4yutk6poza,3ea3qwiz4m887auk17yqnxth7rkti9,dU2o0sJ8,2020-0188,2020-05-08,09:43:32,10:06:22,NA,incomplete,164,filling,0,right,Green_Star_Stripes_3.jpg,Purple_Star_Chess_2.jpg,Red_Circle_Stripes_4.jpg,left,1125.3799999831244,false,low,false
dU2o0sJ8,3vll1pieot1c2ogsesvb4yutk6poza,3ea3qwiz4m887auk17yqnxth7rkti9,dU2o0sJ8,2020-0188,2020-05-08,09:43:32,10:06:22,NA,incomplete,165,filling,1,right,Purple_Plus_Chess_1.jpg,Red_Plus_Grid_4.jpg,Blue_Star_Chess_2.jpg,right,1130.5100000463426,true,low,false
dU2o0sJ8,3vll1pieot1c2ogsesvb4yutk6poza,3ea3qwiz4m887auk17yqnxth7rkti9,dU2o0sJ8,2020-0188,2020-05-08,09:43:32,10:06:22,NA,incomplete,166,filling,1,left,Blue_Triangle_Stripes_3.jpg,Red_Plus_Stripes_4.jpg,Purple_Triangle_Dots_2.jpg,left,859.8500000080094,true,low,false
dU2o0sJ8,3vll1pieot1c2ogsesvb4yutk6poza,3ea3qwiz4m887auk17yqnxth7rkti9,dU2o0sJ8,2020-0188,2020-05-08,09:43:32,10:06:22,NA,incomplete,167,filling,1,left,Red_Triangle_Stripes_4.jpg,Purple_Plus_Stripes_3.jpg,Green_Triangle_Chess_2.jpg,left,944.4450000301003,true,low,false
dU2o0sJ8,3vll1pieot1c2ogsesvb4yutk6poza,3ea3qwiz4m887auk17yqnxth7rkti9,dU2o0sJ8,2020-0188,2020-05-08,09:43:32,10:06:22,NA,incomplete,168,filling,1,left,Red_Star_Stripes_2.jpg,Blue_Triangle_Stripes_3.jpg,Green_Star_Chess_4.jpg,left,773.4049999853596,true,low,false
dU2o0sJ8,3vll1pieot1c2ogsesvb4yutk6poza,3ea3qwiz4m887auk17yqnxth7rkti9,dU2o0sJ8,2020-0188,2020-05-08,09:43:32,10:06:22,NA,incomplete,169,filling,1,left,Blue_Triangle_Grid_2.jpg,Green_Star_Grid_1.jpg,Purple_Triangle_Chess_4.jpg,right,698.5399998957291,false,low,false
dU2o0sJ8,3vll1pieot1c2ogsesvb4yutk6poza,3ea3qwiz4m887auk17yqnxth7rkti9,dU2o0sJ8,2020-0188,2020-05-08,09:43:32,10:06:22,NA,incomplete,170,filling,1,right,Purple_Plus_Grid_2.jpg,Blue_Plus_Dots_1.jpg,Green_Circle_Grid_4.jpg,right,1056.440000073053,true,low,false
dU2o0sJ8,3vll1pieot1c2ogsesvb4yutk6poza,3ea3qwiz4m887auk17yqnxth7rkti9,dU2o0sJ8,2020-0188,2020-05-08,09:43:32,10:06:22,NA,incomplete,171,filling,1,left,Green_Triangle_Stripes_4.jpg,Blue_Circle_Stripes_2.jpg,Purple_Triangle_Dots_1.jpg,left,755.1949999760836,true,low,false
dU2o0sJ8,3vll1pieot1c2ogsesvb4yutk6poza,3ea3qwiz4m887auk17yqnxth7rkti9,dU2o0sJ8,2020-0188,2020-05-08,09:43:32,10:06:22,NA,incomplete,172,filling,0,right,Blue_Circle_Chess_1.jpg,Purple_Circle_Grid_3.jpg,Red_Plus_Chess_4.jpg,right,933.7199999717996,true,low,false
dU2o0sJ8,3vll1pieot1c2ogsesvb4yutk6poza,3ea3qwiz4m887auk17yqnxth7rkti9,dU2o0sJ8,2020-0188,2020-05-08,09:43:32,10:06:22,NA,incomplete,173,filling,1,left,Purple_Circle_Chess_3.jpg,Green_Triangle_Chess_2.jpg,Blue_Circle_Grid_1.jpg,left,1019.9049999937415,true,low,false
dU2o0sJ8,3vll1pieot1c2ogsesvb4yutk6poza,3ea3qwiz4m887auk17yqnxth7rkti9,dU2o0sJ8,2020-0188,2020-05-08,09:43:32,10:06:22,NA,incomplete,174,filling,1,left,Green_Circle_Grid_2.jpg,Red_Triangle_Grid_3.jpg,Purple_Circle_Chess_4.jpg,right,888.7050000485033,false,low,false
dU2o0sJ8,3vll1pieot1c2ogsesvb4yutk6poza,3ea3qwiz4m887auk17yqnxth7rkti9,dU2o0sJ8,2020-0188,2020-05-08,09:43:32,10:06:22,NA,incomplete,175,filling,0,right,Red_Plus_Chess_2.jpg,Green_Plus_Grid_4.jpg,Purple_Star_Chess_3.jpg,right,857.3200000682846,true,low,false
dU2o0sJ8,3vll1pieot1c2ogsesvb4yutk6poza,3ea3qwiz4m887auk17yqnxth7rkti9,dU2o0sJ8,2020-0188,2020-05-08,09:43:32,10:06:22,NA,incomplete,176,filling,1,right,Blue_Circle_Grid_1.jpg,Purple_Circle_Chess_2.jpg,Green_Plus_Grid_3.jpg,right,973.935000016354,true,low,false
dU2o0sJ8,3vll1pieot1c2ogsesvb4yutk6poza,3ea3qwiz4m887auk17yqnxth7rkti9,dU2o0sJ8,2020-0188,2020-05-08,09:43:32,10:06:22,NA,incomplete,177,filling,1,left,Purple_Star_Stripes_3.jpg,Blue_Plus_Stripes_4.jpg,Green_Star_Chess_2.jpg,left,1002.3349999682978,true,low,false
dU2o0sJ8,3vll1pieot1c2ogsesvb4yutk6poza,3ea3qwiz4m887auk17yqnxth7rkti9,dU2o0sJ8,2020-0188,2020-05-08,09:43:32,10:06:22,NA,incomplete,178,filling,1,left,Green_Star_Dots_4.jpg,Red_Circle_Dots_1.jpg,Purple_Star_Chess_2.jpg,right,1077.2749999305233,false,low,false
dU2o0sJ8,3vll1pieot1c2ogsesvb4yutk6poza,3ea3qwiz4m887auk17yqnxth7rkti9,dU2o0sJ8,2020-0188,2020-05-08,09:43:32,10:06:22,NA,incomplete,179,filling,0,right,Purple_Plus_Chess_4.jpg,Blue_Plus_Stripes_3.jpg,Red_Triangle_Chess_1.jpg,right,966.4850000990555,true,low,false
dU2o0sJ8,3vll1pieot1c2ogsesvb4yutk6poza,3ea3qwiz4m887auk17yqnxth7rkti9,dU2o0sJ8,2020-0188,2020-05-08,09:43:32,10:06:22,NA,incomplete,180,shape,1,right,Blue_Star_Grid_3.jpg,Purple_Circle_Grid_1.jpg,Red_Star_Chess_4.jpg,left,863.2499999366701,false,low,false
dU2o0sJ8,3vll1pieot1c2ogsesvb4yutk6poza,3ea3qwiz4m887auk17yqnxth7rkti9,dU2o0sJ8,2020-0188,2020-05-08,09:43:32,10:06:22,NA,incomplete,181,shape,1,right,Red_Star_Grid_1.jpg,Green_Triangle_Grid_2.jpg,Blue_Star_Dots_3.jpg,left,601.0400000959635,false,low,false
dU2o0sJ8,3vll1pieot1c2ogsesvb4yutk6poza,3ea3qwiz4m887auk17yqnxth7rkti9,dU2o0sJ8,2020-0188,2020-05-08,09:43:32,10:06:22,NA,incomplete,182,shape,1,left,Red_Circle_Grid_1.jpg,Green_Circle_Dots_2.jpg,Purple_Star_Grid_4.jpg,left,614.9750000331551,true,low,false
dU2o0sJ8,3vll1pieot1c2ogsesvb4yutk6poza,3ea3qwiz4m887auk17yqnxth7rkti9,dU2o0sJ8,2020-0188,2020-05-08,09:43:32,10:06:22,NA,incomplete,183,shape,1,left,Blue_Circle_Stripes_1.jpg,Purple_Circle_Grid_2.jpg,Green_Plus_Stripes_3.jpg,left,582.3350000428036,true,low,false
dU2o0sJ8,3vll1pieot1c2ogsesvb4yutk6poza,3ea3qwiz4m887auk17yqnxth7rkti9,dU2o0sJ8,2020-0188,2020-05-08,09:43:32,10:06:22,NA,incomplete,184,shape,1,left,Blue_Star_Dots_3.jpg,Purple_Star_Chess_4.jpg,Green_Plus_Dots_1.jpg,left,650.9749999968335,true,low,false
dU2o0sJ8,3vll1pieot1c2ogsesvb4yutk6poza,3ea3qwiz4m887auk17yqnxth7rkti9,dU2o0sJ8,2020-0188,2020-05-08,09:43:32,10:06:22,NA,incomplete,185,shape,1,left,Blue_Circle_Grid_2.jpg,Purple_Circle_Stripes_3.jpg,Red_Star_Grid_4.jpg,left,567.8950001019984,true,low,false
dU2o0sJ8,3vll1pieot1c2ogsesvb4yutk6poza,3ea3qwiz4m887auk17yqnxth7rkti9,dU2o0sJ8,2020-0188,2020-05-08,09:43:32,10:06:22,NA,incomplete,186,shape,1,right,Red_Star_Dots_3.jpg,Purple_Triangle_Dots_2.jpg,Green_Star_Stripes_4.jpg,right,657.8200000803918,true,low,false
dU2o0sJ8,3vll1pieot1c2ogsesvb4yutk6poza,3ea3qwiz4m887auk17yqnxth7rkti9,dU2o0sJ8,2020-0188,2020-05-08,09:43:32,10:06:22,NA,incomplete,187,shape,1,right,Red_Plus_Grid_4.jpg,Green_Circle_Grid_2.jpg,Blue_Plus_Dots_1.jpg,right,787.9599999869242,true,low,false
dU2o0sJ8,3vll1pieot1c2ogsesvb4yutk6poza,3ea3qwiz4m887auk17yqnxth7rkti9,dU2o0sJ8,2020-0188,2020-05-08,09:43:32,10:06:22,NA,incomplete,188,shape,1,right,Purple_Plus_Stripes_1.jpg,Red_Triangle_Stripes_2.jpg,Green_Plus_Chess_4.jpg,right,746.4050000999123,true,low,false
dU2o0sJ8,3vll1pieot1c2ogsesvb4yutk6poza,3ea3qwiz4m887auk17yqnxth7rkti9,dU2o0sJ8,2020-0188,2020-05-08,09:43:32,10:06:22,NA,incomplete,189,shape,1,right,Green_Triangle_Dots_3.jpg,Blue_Star_Dots_2.jpg,Red_Triangle_Stripes_4.jpg,right,653.2599999336526,true,low,false
dU2o0sJ8,3vll1pieot1c2ogsesvb4yutk6poza,3ea3qwiz4m887auk17yqnxth7rkti9,dU2o0sJ8,2020-0188,2020-05-08,09:43:32,10:06:22,NA,incomplete,190,shape,1,right,Purple_Triangle_Chess_3.jpg,Blue_Star_Chess_2.jpg,Red_Triangle_Grid_4.jpg,right,539.3499999772757,true,low,false
dU2o0sJ8,3vll1pieot1c2ogsesvb4yutk6poza,3ea3qwiz4m887auk17yqnxth7rkti9,dU2o0sJ8,2020-0188,2020-05-08,09:43:32,10:06:22,NA,incomplete,191,shape,0,left,Red_Triangle_Grid_4.jpg,Green_Triangle_Chess_1.jpg,Blue_Circle_Grid_2.jpg,left,596.5200000209734,true,low,false
dU2o0sJ8,3vll1pieot1c2ogsesvb4yutk6poza,3ea3qwiz4m887auk17yqnxth7rkti9,dU2o0sJ8,2020-0188,2020-05-08,09:43:32,10:06:22,NA,incomplete,192,shape,1,right,Purple_Triangle_Grid_1.jpg,Green_Star_Grid_4.jpg,Red_Triangle_Stripes_3.jpg,right,602.9850000049919,true,low,false
dU2o0sJ8,3vll1pieot1c2ogsesvb4yutk6poza,3ea3qwiz4m887auk17yqnxth7rkti9,dU2o0sJ8,2020-0188,2020-05-08,09:43:32,10:06:22,NA,incomplete,193,shape,0,left,Red_Triangle_Dots_4.jpg,Blue_Triangle_Chess_1.jpg,Green_Plus_Dots_2.jpg,left,633.8949999772012,true,low,false
dU2o0sJ8,3vll1pieot1c2ogsesvb4yutk6poza,3ea3qwiz4m887auk17yqnxth7rkti9,dU2o0sJ8,2020-0188,2020-05-08,09:43:32,10:06:22,NA,incomplete,194,shape,1,right,Red_Triangle_Dots_3.jpg,Purple_Plus_Dots_4.jpg,Green_Triangle_Stripes_2.jpg,right,614.1749999951571,true,low,false
dU2o0sJ8,3vll1pieot1c2ogsesvb4yutk6poza,3ea3qwiz4m887auk17yqnxth7rkti9,dU2o0sJ8,2020-0188,2020-05-08,09:43:32,10:06:22,NA,incomplete,195,shape,0,right,Red_Triangle_Grid_4.jpg,Green_Plus_Grid_1.jpg,Purple_Triangle_Chess_3.jpg,right,585.2449999656528,true,low,false
dU2o0sJ8,3vll1pieot1c2ogsesvb4yutk6poza,3ea3qwiz4m887auk17yqnxth7rkti9,dU2o0sJ8,2020-0188,2020-05-08,09:43:32,10:06:22,NA,incomplete,196,shape,1,right,Purple_Plus_Stripes_3.jpg,Green_Triangle_Stripes_4.jpg,Red_Plus_Chess_1.jpg,left,785.8599999453872,false,low,false
dU2o0sJ8,3vll1pieot1c2ogsesvb4yutk6poza,3ea3qwiz4m887auk17yqnxth7rkti9,dU2o0sJ8,2020-0188,2020-05-08,09:43:32,10:06:22,NA,incomplete,197,shape,0,right,Red_Circle_Dots_2.jpg,Purple_Triangle_Dots_1.jpg,Green_Circle_Chess_4.jpg,right,637.3949999688193,true,low,false
dU2o0sJ8,3vll1pieot1c2ogsesvb4yutk6poza,3ea3qwiz4m887auk17yqnxth7rkti9,dU2o0sJ8,2020-0188,2020-05-08,09:43:32,10:06:22,NA,incomplete,198,shape,1,left,Green_Circle_Stripes_4.jpg,Red_Circle_Grid_2.jpg,Purple_Triangle_Stripes_3.jpg,right,859.6499999985099,false,low,false
dU2o0sJ8,3vll1pieot1c2ogsesvb4yutk6poza,3ea3qwiz4m887auk17yqnxth7rkti9,dU2o0sJ8,2020-0188,2020-05-08,09:43:32,10:06:22,NA,incomplete,199,shape,1,left,Green_Circle_Chess_2.jpg,Red_Circle_Grid_4.jpg,Purple_Plus_Chess_1.jpg,right,985.2700000628829,false,low,false
dU2o0sJ8,3vll1pieot1c2ogsesvb4yutk6poza,3ea3qwiz4m887auk17yqnxth7rkti9,dU2o0sJ8,2020-0188,2020-05-08,09:43:32,10:06:22,NA,incomplete,200,filling,0,right,Blue_Circle_Chess_4.jpg,Purple_Circle_Dots_3.jpg,Green_Star_Chess_2.jpg,left,534.624999971129,false,low,false
dU2o0sJ8,3vll1pieot1c2ogsesvb4yutk6poza,3ea3qwiz4m887auk17yqnxth7rkti9,dU2o0sJ8,2020-0188,2020-05-08,09:43:32,10:06:22,NA,incomplete,201,filling,1,right,Blue_Plus_Stripes_3.jpg,Purple_Plus_Dots_2.jpg,Red_Triangle_Stripes_4.jpg,left,545.4700000118464,false,low,false
dU2o0sJ8,3vll1pieot1c2ogsesvb4yutk6poza,3ea3qwiz4m887auk17yqnxth7rkti9,dU2o0sJ8,2020-0188,2020-05-08,09:43:32,10:06:22,NA,incomplete,202,filling,1,right,Blue_Triangle_Dots_1.jpg,Red_Triangle_Chess_4.jpg,Green_Plus_Dots_2.jpg,left,945.244999951683,false,low,false
dU2o0sJ8,3vll1pieot1c2ogsesvb4yutk6poza,3ea3qwiz4m887auk17yqnxth7rkti9,dU2o0sJ8,2020-0188,2020-05-08,09:43:32,10:06:22,NA,incomplete,203,filling,1,right,Red_Circle_Dots_3.jpg,Blue_Circle_Chess_1.jpg,Green_Star_Dots_2.jpg,right,820.7349999574944,true,low,false
dU2o0sJ8,3vll1pieot1c2ogsesvb4yutk6poza,3ea3qwiz4m887auk17yqnxth7rkti9,dU2o0sJ8,2020-0188,2020-05-08,09:43:32,10:06:22,NA,incomplete,204,filling,0,right,Purple_Plus_Chess_2.jpg,Red_Plus_Grid_4.jpg,Blue_Triangle_Chess_1.jpg,left,729.6400000341237,false,low,false
dU2o0sJ8,3vll1pieot1c2ogsesvb4yutk6poza,3ea3qwiz4m887auk17yqnxth7rkti9,dU2o0sJ8,2020-0188,2020-05-08,09:43:32,10:06:22,NA,incomplete,205,filling,1,left,Purple_Circle_Grid_2.jpg,Red_Star_Grid_4.jpg,Green_Circle_Dots_1.jpg,left,859.2550000175834,true,low,false
dU2o0sJ8,3vll1pieot1c2ogsesvb4yutk6poza,3ea3qwiz4m887auk17yqnxth7rkti9,dU2o0sJ8,2020-0188,2020-05-08,09:43:32,10:06:22,NA,incomplete,206,filling,1,left,Green_Star_Chess_2.jpg,Red_Plus_Chess_4.jpg,Blue_Star_Dots_1.jpg,left,958.6199999321252,true,low,false
dU2o0sJ8,3vll1pieot1c2ogsesvb4yutk6poza,3ea3qwiz4m887auk17yqnxth7rkti9,dU2o0sJ8,2020-0188,2020-05-08,09:43:32,10:06:22,NA,incomplete,207,filling,1,left,Blue_Circle_Grid_2.jpg,Purple_Plus_Grid_3.jpg,Green_Circle_Dots_4.jpg,left,820.6550000468269,true,low,false
dU2o0sJ8,3vll1pieot1c2ogsesvb4yutk6poza,3ea3qwiz4m887auk17yqnxth7rkti9,dU2o0sJ8,2020-0188,2020-05-08,09:43:32,10:06:22,NA,incomplete,208,filling,1,left,Purple_Star_Stripes_4.jpg,Blue_Plus_Stripes_1.jpg,Red_Star_Dots_2.jpg,left,929.8549999948591,true,low,false
dU2o0sJ8,3vll1pieot1c2ogsesvb4yutk6poza,3ea3qwiz4m887auk17yqnxth7rkti9,dU2o0sJ8,2020-0188,2020-05-08,09:43:32,10:06:22,NA,incomplete,209,filling,1,right,Blue_Circle_Dots_1.jpg,Green_Circle_Grid_3.jpg,Purple_Triangle_Dots_2.jpg,right,1098.024999955669,true,low,false
dU2o0sJ8,3vll1pieot1c2ogsesvb4yutk6poza,3ea3qwiz4m887auk17yqnxth7rkti9,dU2o0sJ8,2020-0188,2020-05-08,09:43:32,10:06:22,NA,incomplete,210,filling,1,right,Green_Plus_Grid_1.jpg,Red_Plus_Stripes_2.jpg,Blue_Triangle_Grid_3.jpg,right,1011.7600000230595,true,low,false
dU2o0sJ8,3vll1pieot1c2ogsesvb4yutk6poza,3ea3qwiz4m887auk17yqnxth7rkti9,dU2o0sJ8,2020-0188,2020-05-08,09:43:32,10:06:22,NA,incomplete,211,filling,0,right,Green_Plus_Grid_2.jpg,Red_Plus_Chess_1.jpg,Blue_Circle_Grid_3.jpg,left,753.5999999381602,false,low,false
dU2o0sJ8,3vll1pieot1c2ogsesvb4yutk6poza,3ea3qwiz4m887auk17yqnxth7rkti9,dU2o0sJ8,2020-0188,2020-05-08,09:43:32,10:06:22,NA,incomplete,212,filling,1,left,Blue_Plus_Stripes_4.jpg,Green_Star_Stripes_2.jpg,Purple_Plus_Grid_1.jpg,right,1079.0600000182167,false,low,false
dU2o0sJ8,3vll1pieot1c2ogsesvb4yutk6poza,3ea3qwiz4m887auk17yqnxth7rkti9,dU2o0sJ8,2020-0188,2020-05-08,09:43:32,10:06:22,NA,incomplete,213,filling,1,right,Green_Triangle_Dots_4.jpg,Purple_Triangle_Chess_1.jpg,Red_Circle_Dots_3.jpg,right,954.7599999932572,true,low,false
dU2o0sJ8,3vll1pieot1c2ogsesvb4yutk6poza,3ea3qwiz4m887auk17yqnxth7rkti9,dU2o0sJ8,2020-0188,2020-05-08,09:43:32,10:06:22,NA,incomplete,214,filling,1,left,Blue_Triangle_Dots_4.jpg,Red_Star_Dots_3.jpg,Purple_Triangle_Grid_1.jpg,left,877.390000037849,true,low,false
dU2o0sJ8,3vll1pieot1c2ogsesvb4yutk6poza,3ea3qwiz4m887auk17yqnxth7rkti9,dU2o0sJ8,2020-0188,2020-05-08,09:43:32,10:06:22,NA,incomplete,215,filling,0,right,Purple_Triangle_Dots_1.jpg,Red_Triangle_Chess_4.jpg,Blue_Circle_Dots_3.jpg,right,928.5050000762567,true,low,false
dU2o0sJ8,3vll1pieot1c2ogsesvb4yutk6poza,3ea3qwiz4m887auk17yqnxth7rkti9,dU2o0sJ8,2020-0188,2020-05-08,09:43:32,10:06:22,NA,incomplete,216,filling,1,right,Purple_Triangle_Dots_2.jpg,Blue_Triangle_Grid_3.jpg,Red_Circle_Dots_1.jpg,right,954.5550000621006,true,low,false
dU2o0sJ8,3vll1pieot1c2ogsesvb4yutk6poza,3ea3qwiz4m887auk17yqnxth7rkti9,dU2o0sJ8,2020-0188,2020-05-08,09:43:32,10:06:22,NA,incomplete,217,filling,0,left,Green_Circle_Stripes_4.jpg,Red_Triangle_Stripes_1.jpg,Purple_Circle_Grid_2.jpg,left,1076.314999954775,true,low,false
dU2o0sJ8,3vll1pieot1c2ogsesvb4yutk6poza,3ea3qwiz4m887auk17yqnxth7rkti9,dU2o0sJ8,2020-0188,2020-05-08,09:43:32,10:06:22,NA,incomplete,218,filling,1,left,Red_Circle_Dots_1.jpg,Purple_Star_Dots_2.jpg,Green_Circle_Stripes_3.jpg,left,1165.5599999940023,true,low,false
dU2o0sJ8,3vll1pieot1c2ogsesvb4yutk6poza,3ea3qwiz4m887auk17yqnxth7rkti9,dU2o0sJ8,2020-0188,2020-05-08,09:43:32,10:06:22,NA,incomplete,219,filling,1,right,Red_Circle_Dots_1.jpg,Purple_Circle_Grid_3.jpg,Blue_Triangle_Dots_4.jpg,right,887.5949999783188,true,low,false
dU2o0sJ8,3vll1pieot1c2ogsesvb4yutk6poza,3ea3qwiz4m887auk17yqnxth7rkti9,dU2o0sJ8,2020-0188,2020-05-08,09:43:32,10:06:22,NA,incomplete,220,shape,1,right,Red_Plus_Stripes_4.jpg,Blue_Triangle_Stripes_2.jpg,Purple_Plus_Dots_3.jpg,left,910.6349999783561,false,low,false
dU2o0sJ8,3vll1pieot1c2ogsesvb4yutk6poza,3ea3qwiz4m887auk17yqnxth7rkti9,dU2o0sJ8,2020-0188,2020-05-08,09:43:32,10:06:22,NA,incomplete,221,shape,1,left,Blue_Plus_Stripes_1.jpg,Green_Plus_Dots_4.jpg,Purple_Star_Stripes_2.jpg,right,1111.5299999946728,false,low,false
dU2o0sJ8,3vll1pieot1c2ogsesvb4yutk6poza,3ea3qwiz4m887auk17yqnxth7rkti9,dU2o0sJ8,2020-0188,2020-05-08,09:43:32,10:06:22,NA,incomplete,222,shape,1,left,Green_Plus_Chess_4.jpg,Red_Plus_Dots_3.jpg,Purple_Triangle_Chess_1.jpg,right,877.3949999595061,false,low,false
dU2o0sJ8,3vll1pieot1c2ogsesvb4yutk6poza,3ea3qwiz4m887auk17yqnxth7rkti9,dU2o0sJ8,2020-0188,2020-05-08,09:43:32,10:06:22,NA,incomplete,223,shape,1,right,Red_Star_Chess_4.jpg,Green_Plus_Chess_2.jpg,Blue_Star_Dots_3.jpg,right,1037.2849999694154,true,low,false
dU2o0sJ8,3vll1pieot1c2ogsesvb4yutk6poza,3ea3qwiz4m887auk17yqnxth7rkti9,dU2o0sJ8,2020-0188,2020-05-08,09:43:32,10:06:22,NA,incomplete,224,shape,1,right,Purple_Star_Stripes_1.jpg,Red_Triangle_Stripes_3.jpg,Green_Star_Chess_4.jpg,left,964.5449999952689,false,low,false
dU2o0sJ8,3vll1pieot1c2ogsesvb4yutk6poza,3ea3qwiz4m887auk17yqnxth7rkti9,dU2o0sJ8,2020-0188,2020-05-08,09:43:32,10:06:22,NA,incomplete,225,shape,1,left,Green_Triangle_Dots_4.jpg,Blue_Triangle_Stripes_2.jpg,Red_Star_Dots_1.jpg,left,569.0200000535697,true,low,false
dU2o0sJ8,3vll1pieot1c2ogsesvb4yutk6poza,3ea3qwiz4m887auk17yqnxth7rkti9,dU2o0sJ8,2020-0188,2020-05-08,09:43:32,10:06:22,NA,incomplete,226,shape,1,left,Red_Circle_Dots_2.jpg,Green_Circle_Grid_4.jpg,Purple_Triangle_Dots_1.jpg,left,576.3099999167025,true,low,false
dU2o0sJ8,3vll1pieot1c2ogsesvb4yutk6poza,3ea3qwiz4m887auk17yqnxth7rkti9,dU2o0sJ8,2020-0188,2020-05-08,09:43:32,10:06:22,NA,incomplete,227,shape,1,right,Purple_Plus_Chess_4.jpg,Red_Circle_Chess_1.jpg,Blue_Plus_Dots_2.jpg,right,671.7949999729171,true,low,false
dU2o0sJ8,3vll1pieot1c2ogsesvb4yutk6poza,3ea3qwiz4m887auk17yqnxth7rkti9,dU2o0sJ8,2020-0188,2020-05-08,09:43:32,10:06:22,NA,incomplete,228,shape,1,left,Blue_Circle_Dots_3.jpg,Purple_Circle_Chess_2.jpg,Red_Triangle_Dots_1.jpg,left,531.5500000724569,true,low,false
dU2o0sJ8,3vll1pieot1c2ogsesvb4yutk6poza,3ea3qwiz4m887auk17yqnxth7rkti9,dU2o0sJ8,2020-0188,2020-05-08,09:43:32,10:06:22,NA,incomplete,229,shape,0,left,Green_Star_Grid_2.jpg,Blue_Star_Dots_3.jpg,Red_Circle_Grid_4.jpg,left,588.1250000093132,true,low,false
dU2o0sJ8,3vll1pieot1c2ogsesvb4yutk6poza,3ea3qwiz4m887auk17yqnxth7rkti9,dU2o0sJ8,2020-0188,2020-05-08,09:43:32,10:06:22,NA,incomplete,230,shape,1,left,Green_Triangle_Chess_2.jpg,Red_Triangle_Dots_4.jpg,Blue_Star_Chess_1.jpg,left,791.9299999484792,true,low,false
dU2o0sJ8,3vll1pieot1c2ogsesvb4yutk6poza,3ea3qwiz4m887auk17yqnxth7rkti9,dU2o0sJ8,2020-0188,2020-05-08,09:43:32,10:06:22,NA,incomplete,231,shape,0,right,Green_Star_Stripes_3.jpg,Red_Plus_Stripes_1.jpg,Blue_Star_Chess_2.jpg,right,654.0549999335781,true,low,false
dU2o0sJ8,3vll1pieot1c2ogsesvb4yutk6poza,3ea3qwiz4m887auk17yqnxth7rkti9,dU2o0sJ8,2020-0188,2020-05-08,09:43:32,10:06:22,NA,incomplete,232,shape,1,right,Red_Plus_Grid_3.jpg,Green_Star_Grid_1.jpg,Blue_Plus_Stripes_2.jpg,right,925.9900000179186,true,low,false
dU2o0sJ8,3vll1pieot1c2ogsesvb4yutk6poza,3ea3qwiz4m887auk17yqnxth7rkti9,dU2o0sJ8,2020-0188,2020-05-08,09:43:32,10:06:22,NA,incomplete,233,shape,0,left,Blue_Plus_Chess_4.jpg,Red_Plus_Dots_2.jpg,Green_Star_Chess_3.jpg,left,737.3949999455363,true,low,false
dU2o0sJ8,3vll1pieot1c2ogsesvb4yutk6poza,3ea3qwiz4m887auk17yqnxth7rkti9,dU2o0sJ8,2020-0188,2020-05-08,09:43:32,10:06:22,NA,incomplete,234,shape,1,right,Blue_Plus_Dots_1.jpg,Red_Triangle_Dots_3.jpg,Green_Plus_Stripes_2.jpg,right,884.1150000225753,true,low,false
dU2o0sJ8,3vll1pieot1c2ogsesvb4yutk6poza,3ea3qwiz4m887auk17yqnxth7rkti9,dU2o0sJ8,2020-0188,2020-05-08,09:43:32,10:06:22,NA,incomplete,235,shape,0,left,Blue_Circle_Dots_1.jpg,Purple_Circle_Chess_2.jpg,Red_Triangle_Dots_4.jpg,left,646.0750000551343,true,low,false
dU2o0sJ8,3vll1pieot1c2ogsesvb4yutk6poza,3ea3qwiz4m887auk17yqnxth7rkti9,dU2o0sJ8,2020-0188,2020-05-08,09:43:32,10:06:22,NA,incomplete,236,shape,1,right,Red_Triangle_Stripes_1.jpg,Blue_Plus_Stripes_3.jpg,Green_Triangle_Grid_4.jpg,left,1157.7150000957772,false,low,false
dU2o0sJ8,3vll1pieot1c2ogsesvb4yutk6poza,3ea3qwiz4m887auk17yqnxth7rkti9,dU2o0sJ8,2020-0188,2020-05-08,09:43:32,10:06:22,NA,incomplete,237,shape,0,right,Blue_Triangle_Chess_3.jpg,Purple_Circle_Chess_4.jpg,Red_Triangle_Stripes_1.jpg,right,954.6950000803918,true,low,false
dU2o0sJ8,3vll1pieot1c2ogsesvb4yutk6poza,3ea3qwiz4m887auk17yqnxth7rkti9,dU2o0sJ8,2020-0188,2020-05-08,09:43:32,10:06:22,NA,incomplete,238,shape,1,left,Green_Plus_Dots_4.jpg,Blue_Plus_Grid_3.jpg,Red_Star_Dots_2.jpg,left,801.7750000581145,true,low,false
dU2o0sJ8,3vll1pieot1c2ogsesvb4yutk6poza,3ea3qwiz4m887auk17yqnxth7rkti9,dU2o0sJ8,2020-0188,2020-05-08,09:43:32,10:06:22,NA,incomplete,239,shape,1,left,Red_Star_Chess_1.jpg,Green_Star_Stripes_4.jpg,Blue_Plus_Chess_2.jpg,left,839.7999999579042,true,low,false
dU2o0sJ8,3vll1pieot1c2ogsesvb4yutk6poza,3ea3qwiz4m887auk17yqnxth7rkti9,dU2o0sJ8,2020-0188,2020-05-08,09:43:32,10:06:22,1310097.7849999908,1372235.9899999574,NA,NA,NA,NA,NA,NA,NA,NA,NA,NA,NA,undefined
