workerId,hitId,assignmentId,subject,studyid,exp_date,exp_start,exp_end,time_start,time_end,trial,type,reward_validity,answer,image_top,image_left,image_right,response,response_time,response_acc,volatility,age,race,gender,ethnicity,color,vision,neuro,practice
neSrdRyh,3r6rzgk0yip7nifkjif6ljfzh9ayv2,3efvcay5l7ml41m2gr8v82cv75j8jx,neSrdRyh,2020-0188,2020-11-21,18:00:00,18:24:21,NA,incomplete,0,filling,1,left,Green_Circle_Chess_4.jpg,Blue_Star_Chess_2.jpg,Green_Triangle_Stripes_1.jpg,right,718.9550000003073,false,NA,NA,NA,NA,NA,NA,NA,NA,true
neSrdRyh,3r6rzgk0yip7nifkjif6ljfzh9ayv2,3efvcay5l7ml41m2gr8v82cv75j8jx,neSrdRyh,2020-0188,2020-11-21,18:00:00,18:24:21,NA,incomplete,1,filling,0,right,Purple_Plus_Grid_4.jpg,Purple_Triangle_Dots_2.jpg,Green_Circle_Grid_1.jpg,right,1232.425000000163,true,NA,NA,NA,NA,NA,NA,NA,NA,true
neSrdRyh,3r6rzgk0yip7nifkjif6ljfzh9ayv2,3efvcay5l7ml41m2gr8v82cv75j8jx,neSrdRyh,2020-0188,2020-11-21,18:00:00,18:24:21,NA,incomplete,2,filling,1,left,Blue_Triangle_Grid_2.jpg,Purple_Plus_Grid_1.jpg,Blue_Star_Dots_3.jpg,left,1079.079999999958,true,NA,NA,NA,NA,NA,NA,NA,NA,true
neSrdRyh,3r6rzgk0yip7nifkjif6ljfzh9ayv2,3efvcay5l7ml41m2gr8v82cv75j8jx,neSrdRyh,2020-0188,2020-11-21,18:00:00,18:24:21,NA,incomplete,3,filling,1,left,Purple_Triangle_Dots_4.jpg,Green_Star_Dots_1.jpg,Purple_Plus_Chess_3.jpg,left,994.7399999999907,true,NA,NA,NA,NA,NA,NA,NA,NA,true
neSrdRyh,3r6rzgk0yip7nifkjif6ljfzh9ayv2,3efvcay5l7ml41m2gr8v82cv75j8jx,neSrdRyh,2020-0188,2020-11-21,18:00:00,18:24:21,NA,incomplete,4,filling,1,left,Blue_Circle_Dots_1.jpg,Green_Plus_Dots_2.jpg,Blue_Star_Chess_3.jpg,left,731.0400000001537,true,NA,NA,NA,NA,NA,NA,NA,NA,true
neSrdRyh,3r6rzgk0yip7nifkjif6ljfzh9ayv2,3efvcay5l7ml41m2gr8v82cv75j8jx,neSrdRyh,2020-0188,2020-11-21,18:00:00,18:24:21,NA,incomplete,5,filling,1,right,Blue_Plus_Chess_1.jpg,Blue_Star_Stripes_4.jpg,Green_Circle_Chess_2.jpg,right,1326.0500000000466,true,NA,NA,NA,NA,NA,NA,NA,NA,true
neSrdRyh,3r6rzgk0yip7nifkjif6ljfzh9ayv2,3efvcay5l7ml41m2gr8v82cv75j8jx,neSrdRyh,2020-0188,2020-11-21,18:00:00,18:24:21,NA,incomplete,6,filling,0,left,Red_Circle_Chess_1.jpg,Blue_Triangle_Chess_3.jpg,Red_Plus_Grid_4.jpg,left,1079.5699999999488,true,NA,NA,NA,NA,NA,NA,NA,NA,true
neSrdRyh,3r6rzgk0yip7nifkjif6ljfzh9ayv2,3efvcay5l7ml41m2gr8v82cv75j8jx,neSrdRyh,2020-0188,2020-11-21,18:00:00,18:24:21,NA,incomplete,7,filling,1,left,Purple_Circle_Dots_2.jpg,Green_Star_Dots_1.jpg,Purple_Plus_Chess_3.jpg,left,1130.2949999999255,true,NA,NA,NA,NA,NA,NA,NA,NA,true
neSrdRyh,3r6rzgk0yip7nifkjif6ljfzh9ayv2,3efvcay5l7ml41m2gr8v82cv75j8jx,neSrdRyh,2020-0188,2020-11-21,18:00:00,18:24:21,NA,incomplete,8,filling,1,left,Blue_Plus_Grid_4.jpg,Red_Circle_Grid_3.jpg,Blue_Triangle_Dots_1.jpg,left,1011.5850000001956,true,NA,NA,NA,NA,NA,NA,NA,NA,true
neSrdRyh,3r6rzgk0yip7nifkjif6ljfzh9ayv2,3efvcay5l7ml41m2gr8v82cv75j8jx,neSrdRyh,2020-0188,2020-11-21,18:00:00,18:24:21,NA,incomplete,9,filling,1,left,Green_Circle_Grid_3.jpg,Purple_Plus_Grid_2.jpg,Green_Star_Chess_1.jpg,none,0,false,NA,NA,NA,NA,NA,NA,NA,NA,true
neSrdRyh,3r6rzgk0yip7nifkjif6ljfzh9ayv2,3efvcay5l7ml41m2gr8v82cv75j8jx,neSrdRyh,2020-0188,2020-11-21,18:00:00,18:24:21,NA,incomplete,10,filling,1,right,Purple_Triangle_Chess_4.jpg,Purple_Plus_Stripes_3.jpg,Green_Star_Chess_2.jpg,right,878.1549999997951,true,NA,NA,NA,NA,NA,NA,NA,NA,true
neSrdRyh,3r6rzgk0yip7nifkjif6ljfzh9ayv2,3efvcay5l7ml41m2gr8v82cv75j8jx,neSrdRyh,2020-0188,2020-11-21,18:00:00,18:24:21,NA,incomplete,11,filling,1,right,Blue_Circle_Grid_2.jpg,Blue_Triangle_Chess_4.jpg,Red_Star_Grid_1.jpg,right,1137.780000000028,true,NA,NA,NA,NA,NA,NA,NA,NA,true
neSrdRyh,3r6rzgk0yip7nifkjif6ljfzh9ayv2,3efvcay5l7ml41m2gr8v82cv75j8jx,neSrdRyh,2020-0188,2020-11-21,18:00:00,18:24:21,NA,incomplete,12,filling,1,left,Blue_Plus_Chess_4.jpg,Green_Triangle_Chess_3.jpg,Blue_Circle_Dots_1.jpg,left,820.7499999998836,true,NA,NA,NA,NA,NA,NA,NA,NA,true
neSrdRyh,3r6rzgk0yip7nifkjif6ljfzh9ayv2,3efvcay5l7ml41m2gr8v82cv75j8jx,neSrdRyh,2020-0188,2020-11-21,18:00:00,18:24:21,NA,incomplete,13,filling,1,right,Blue_Star_Grid_1.jpg,Blue_Circle_Chess_3.jpg,Red_Plus_Grid_2.jpg,right,1147.2700000000186,true,NA,NA,NA,NA,NA,NA,NA,NA,true
neSrdRyh,3r6rzgk0yip7nifkjif6ljfzh9ayv2,3efvcay5l7ml41m2gr8v82cv75j8jx,neSrdRyh,2020-0188,2020-11-21,18:00:00,18:24:21,NA,incomplete,14,filling,1,right,Purple_Circle_Dots_3.jpg,Purple_Star_Stripes_1.jpg,Red_Triangle_Dots_4.jpg,right,951.5150000001304,true,NA,NA,NA,NA,NA,NA,NA,NA,true
neSrdRyh,3r6rzgk0yip7nifkjif6ljfzh9ayv2,3efvcay5l7ml41m2gr8v82cv75j8jx,neSrdRyh,2020-0188,2020-11-21,18:00:00,18:24:21,NA,incomplete,15,filling,1,left,Green_Circle_Chess_3.jpg,Blue_Star_Chess_4.jpg,Green_Plus_Stripes_2.jpg,right,1731.1499999995576,false,NA,NA,NA,NA,NA,NA,NA,NA,true
neSrdRyh,3r6rzgk0yip7nifkjif6ljfzh9ayv2,3efvcay5l7ml41m2gr8v82cv75j8jx,neSrdRyh,2020-0188,2020-11-21,18:00:00,18:24:21,NA,incomplete,16,filling,1,left,Red_Circle_Dots_2.jpg,Green_Plus_Dots_1.jpg,Red_Star_Chess_4.jpg,left,1002.7550000000047,true,NA,NA,NA,NA,NA,NA,NA,NA,true
neSrdRyh,3r6rzgk0yip7nifkjif6ljfzh9ayv2,3efvcay5l7ml41m2gr8v82cv75j8jx,neSrdRyh,2020-0188,2020-11-21,18:00:00,18:24:21,NA,incomplete,17,filling,1,right,Purple_Star_Dots_3.jpg,Purple_Triangle_Chess_2.jpg,Green_Plus_Dots_1.jpg,right,1084.4200000001583,true,NA,NA,NA,NA,NA,NA,NA,NA,true
neSrdRyh,3r6rzgk0yip7nifkjif6ljfzh9ayv2,3efvcay5l7ml41m2gr8v82cv75j8jx,neSrdRyh,2020-0188,2020-11-21,18:00:00,18:24:21,NA,incomplete,18,filling,0,left,Purple_Star_Dots_2.jpg,Red_Plus_Dots_4.jpg,Purple_Circle_Grid_3.jpg,left,1064.3650000002235,true,NA,NA,NA,NA,NA,NA,NA,NA,true
neSrdRyh,3r6rzgk0yip7nifkjif6ljfzh9ayv2,3efvcay5l7ml41m2gr8v82cv75j8jx,neSrdRyh,2020-0188,2020-11-21,18:00:00,18:24:21,NA,incomplete,19,filling,1,right,Red_Star_Dots_2.jpg,Red_Triangle_Chess_1.jpg,Purple_Plus_Dots_4.jpg,right,1709.2099999999627,true,NA,NA,NA,NA,NA,NA,NA,NA,true
neSrdRyh,3r6rzgk0yip7nifkjif6ljfzh9ayv2,3efvcay5l7ml41m2gr8v82cv75j8jx,neSrdRyh,2020-0188,2020-11-21,18:00:00,18:24:21,NA,incomplete,20,color,1,right,Purple_Circle_Dots_1.jpg,Red_Star_Dots_3.jpg,Purple_Triangle_Stripes_2.jpg,left,1124.7799999996787,false,NA,NA,NA,NA,NA,NA,NA,NA,true
neSrdRyh,3r6rzgk0yip7nifkjif6ljfzh9ayv2,3efvcay5l7ml41m2gr8v82cv75j8jx,neSrdRyh,2020-0188,2020-11-21,18:00:00,18:24:21,NA,incomplete,21,color,1,right,Purple_Circle_Dots_1.jpg,Red_Plus_Dots_2.jpg,Purple_Triangle_Chess_4.jpg,right,1309.020000000135,true,NA,NA,NA,NA,NA,NA,NA,NA,true
neSrdRyh,3r6rzgk0yip7nifkjif6ljfzh9ayv2,3efvcay5l7ml41m2gr8v82cv75j8jx,neSrdRyh,2020-0188,2020-11-21,18:00:00,18:24:21,NA,incomplete,22,color,1,left,Blue_Plus_Dots_3.jpg,Blue_Star_Chess_2.jpg,Green_Circle_Dots_4.jpg,left,707.9450000001816,true,NA,NA,NA,NA,NA,NA,NA,NA,true
neSrdRyh,3r6rzgk0yip7nifkjif6ljfzh9ayv2,3efvcay5l7ml41m2gr8v82cv75j8jx,neSrdRyh,2020-0188,2020-11-21,18:00:00,18:24:21,NA,incomplete,23,color,0,left,Green_Circle_Stripes_1.jpg,Green_Star_Dots_4.jpg,Red_Plus_Stripes_2.jpg,left,1024.3949999999022,true,NA,NA,NA,NA,NA,NA,NA,NA,true
neSrdRyh,3r6rzgk0yip7nifkjif6ljfzh9ayv2,3efvcay5l7ml41m2gr8v82cv75j8jx,neSrdRyh,2020-0188,2020-11-21,18:00:00,18:24:21,NA,incomplete,24,color,1,right,Blue_Plus_Dots_2.jpg,Green_Star_Dots_4.jpg,Blue_Triangle_Chess_1.jpg,right,866.1550000001444,true,NA,NA,NA,NA,NA,NA,NA,NA,true
neSrdRyh,3r6rzgk0yip7nifkjif6ljfzh9ayv2,3efvcay5l7ml41m2gr8v82cv75j8jx,neSrdRyh,2020-0188,2020-11-21,18:00:00,18:24:21,NA,incomplete,25,color,1,left,Red_Plus_Grid_2.jpg,Red_Triangle_Dots_3.jpg,Blue_Star_Grid_4.jpg,left,797.7999999998137,true,NA,NA,NA,NA,NA,NA,NA,NA,true
neSrdRyh,3r6rzgk0yip7nifkjif6ljfzh9ayv2,3efvcay5l7ml41m2gr8v82cv75j8jx,neSrdRyh,2020-0188,2020-11-21,18:00:00,18:24:21,NA,incomplete,26,color,0,right,Purple_Triangle_Stripes_2.jpg,Green_Circle_Stripes_1.jpg,Purple_Plus_Chess_4.jpg,right,709.0649999995949,true,NA,NA,NA,NA,NA,NA,NA,NA,true
neSrdRyh,3r6rzgk0yip7nifkjif6ljfzh9ayv2,3efvcay5l7ml41m2gr8v82cv75j8jx,neSrdRyh,2020-0188,2020-11-21,18:00:00,18:24:21,NA,incomplete,27,color,0,left,Green_Star_Stripes_4.jpg,Green_Circle_Grid_1.jpg,Red_Triangle_Stripes_2.jpg,left,1064.984999999986,true,NA,NA,NA,NA,NA,NA,NA,NA,true
neSrdRyh,3r6rzgk0yip7nifkjif6ljfzh9ayv2,3efvcay5l7ml41m2gr8v82cv75j8jx,neSrdRyh,2020-0188,2020-11-21,18:00:00,18:24:21,NA,incomplete,28,color,1,right,Purple_Plus_Stripes_3.jpg,Green_Circle_Stripes_1.jpg,Purple_Star_Grid_4.jpg,right,1216.0299999995623,true,NA,NA,NA,NA,NA,NA,NA,NA,true
neSrdRyh,3r6rzgk0yip7nifkjif6ljfzh9ayv2,3efvcay5l7ml41m2gr8v82cv75j8jx,neSrdRyh,2020-0188,2020-11-21,18:00:00,18:24:21,NA,incomplete,29,color,1,right,Purple_Circle_Stripes_4.jpg,Red_Plus_Stripes_1.jpg,Purple_Triangle_Dots_3.jpg,right,1247.7100000000792,true,NA,NA,NA,NA,NA,NA,NA,NA,true
neSrdRyh,3r6rzgk0yip7nifkjif6ljfzh9ayv2,3efvcay5l7ml41m2gr8v82cv75j8jx,neSrdRyh,2020-0188,2020-11-21,18:00:00,18:24:21,NA,incomplete,30,color,1,left,Blue_Plus_Grid_3.jpg,Blue_Star_Chess_2.jpg,Purple_Triangle_Grid_4.jpg,left,1299.7500000001164,true,NA,NA,NA,NA,NA,NA,NA,NA,true
neSrdRyh,3r6rzgk0yip7nifkjif6ljfzh9ayv2,3efvcay5l7ml41m2gr8v82cv75j8jx,neSrdRyh,2020-0188,2020-11-21,18:00:00,18:24:21,NA,incomplete,31,color,1,left,Blue_Circle_Grid_3.jpg,Blue_Triangle_Chess_2.jpg,Purple_Star_Grid_1.jpg,left,1303.5850000001956,true,NA,NA,NA,NA,NA,NA,NA,NA,true
neSrdRyh,3r6rzgk0yip7nifkjif6ljfzh9ayv2,3efvcay5l7ml41m2gr8v82cv75j8jx,neSrdRyh,2020-0188,2020-11-21,18:00:00,18:24:21,NA,incomplete,32,color,1,right,Blue_Circle_Dots_1.jpg,Purple_Plus_Dots_3.jpg,Blue_Star_Stripes_4.jpg,right,1127.8949999996694,true,NA,NA,NA,NA,NA,NA,NA,NA,true
neSrdRyh,3r6rzgk0yip7nifkjif6ljfzh9ayv2,3efvcay5l7ml41m2gr8v82cv75j8jx,neSrdRyh,2020-0188,2020-11-21,18:00:00,18:24:21,NA,incomplete,33,color,1,left,Purple_Triangle_Chess_2.jpg,Purple_Circle_Grid_1.jpg,Blue_Star_Chess_4.jpg,left,848.3250000003027,true,NA,NA,NA,NA,NA,NA,NA,NA,true
neSrdRyh,3r6rzgk0yip7nifkjif6ljfzh9ayv2,3efvcay5l7ml41m2gr8v82cv75j8jx,neSrdRyh,2020-0188,2020-11-21,18:00:00,18:24:21,NA,incomplete,34,color,1,left,Purple_Star_Dots_4.jpg,Purple_Triangle_Chess_2.jpg,Blue_Plus_Dots_3.jpg,left,746.2250000002095,true,NA,NA,NA,NA,NA,NA,NA,NA,true
neSrdRyh,3r6rzgk0yip7nifkjif6ljfzh9ayv2,3efvcay5l7ml41m2gr8v82cv75j8jx,neSrdRyh,2020-0188,2020-11-21,18:00:00,18:24:21,NA,incomplete,35,color,1,left,Blue_Plus_Chess_2.jpg,Blue_Star_Dots_4.jpg,Red_Circle_Chess_1.jpg,left,900.6800000001676,true,NA,NA,NA,NA,NA,NA,NA,NA,true
neSrdRyh,3r6rzgk0yip7nifkjif6ljfzh9ayv2,3efvcay5l7ml41m2gr8v82cv75j8jx,neSrdRyh,2020-0188,2020-11-21,18:00:00,18:24:21,NA,incomplete,36,color,1,right,Green_Star_Dots_3.jpg,Purple_Triangle_Dots_2.jpg,Green_Circle_Grid_4.jpg,right,866.2649999996647,true,NA,NA,NA,NA,NA,NA,NA,NA,true
neSrdRyh,3r6rzgk0yip7nifkjif6ljfzh9ayv2,3efvcay5l7ml41m2gr8v82cv75j8jx,neSrdRyh,2020-0188,2020-11-21,18:00:00,18:24:21,NA,incomplete,37,color,1,left,Purple_Circle_Chess_3.jpg,Purple_Triangle_Stripes_4.jpg,Red_Plus_Chess_2.jpg,left,710.1199999997625,true,NA,NA,NA,NA,NA,NA,NA,NA,true
neSrdRyh,3r6rzgk0yip7nifkjif6ljfzh9ayv2,3efvcay5l7ml41m2gr8v82cv75j8jx,neSrdRyh,2020-0188,2020-11-21,18:00:00,18:24:21,NA,incomplete,38,color,0,left,Purple_Star_Chess_1.jpg,Purple_Triangle_Grid_4.jpg,Blue_Circle_Chess_2.jpg,left,752.550000000163,true,NA,NA,NA,NA,NA,NA,NA,NA,true
neSrdRyh,3r6rzgk0yip7nifkjif6ljfzh9ayv2,3efvcay5l7ml41m2gr8v82cv75j8jx,neSrdRyh,2020-0188,2020-11-21,18:00:00,18:24:21,NA,incomplete,39,color,0,right,Green_Triangle_Dots_1.jpg,Blue_Plus_Dots_3.jpg,Green_Circle_Chess_2.jpg,right,1023.789999999688,true,NA,NA,NA,NA,NA,NA,NA,NA,true
neSrdRyh,3r6rzgk0yip7nifkjif6ljfzh9ayv2,3efvcay5l7ml41m2gr8v82cv75j8jx,neSrdRyh,2020-0188,2020-11-21,18:00:00,18:24:21,NA,incomplete,0,filling,1,left,Red_Circle_Chess_3.jpg,Purple_Triangle_Chess_1.jpg,Red_Star_Dots_2.jpg,right,1143.2049999998417,false,high,NA,NA,NA,NA,NA,NA,NA,false
neSrdRyh,3r6rzgk0yip7nifkjif6ljfzh9ayv2,3efvcay5l7ml41m2gr8v82cv75j8jx,neSrdRyh,2020-0188,2020-11-21,18:00:00,18:24:21,NA,incomplete,1,filling,1,right,Blue_Triangle_Chess_3.jpg,Blue_Plus_Stripes_1.jpg,Red_Circle_Chess_4.jpg,left,923.6649999998044,false,high,NA,NA,NA,NA,NA,NA,NA,false
neSrdRyh,3r6rzgk0yip7nifkjif6ljfzh9ayv2,3efvcay5l7ml41m2gr8v82cv75j8jx,neSrdRyh,2020-0188,2020-11-21,18:00:00,18:24:21,NA,incomplete,2,filling,1,right,Green_Plus_Chess_1.jpg,Green_Triangle_Grid_3.jpg,Red_Circle_Chess_2.jpg,left,740.9299999999348,false,high,NA,NA,NA,NA,NA,NA,NA,false
neSrdRyh,3r6rzgk0yip7nifkjif6ljfzh9ayv2,3efvcay5l7ml41m2gr8v82cv75j8jx,neSrdRyh,2020-0188,2020-11-21,18:00:00,18:24:21,NA,incomplete,3,filling,1,left,Blue_Star_Grid_4.jpg,Purple_Circle_Grid_3.jpg,Blue_Triangle_Chess_1.jpg,left,1093.925000000163,true,high,NA,NA,NA,NA,NA,NA,NA,false
neSrdRyh,3r6rzgk0yip7nifkjif6ljfzh9ayv2,3efvcay5l7ml41m2gr8v82cv75j8jx,neSrdRyh,2020-0188,2020-11-21,18:00:00,18:24:21,NA,incomplete,4,filling,1,left,Blue_Triangle_Stripes_4.jpg,Red_Star_Stripes_2.jpg,Blue_Plus_Grid_1.jpg,left,1122.1750000000466,true,high,NA,NA,NA,NA,NA,NA,NA,false
neSrdRyh,3r6rzgk0yip7nifkjif6ljfzh9ayv2,3efvcay5l7ml41m2gr8v82cv75j8jx,neSrdRyh,2020-0188,2020-11-21,18:00:00,18:24:21,NA,incomplete,5,filling,1,left,Purple_Triangle_Stripes_2.jpg,Green_Star_Stripes_3.jpg,Purple_Plus_Grid_4.jpg,left,1052.0150000002468,true,high,NA,NA,NA,NA,NA,NA,NA,false
neSrdRyh,3r6rzgk0yip7nifkjif6ljfzh9ayv2,3efvcay5l7ml41m2gr8v82cv75j8jx,neSrdRyh,2020-0188,2020-11-21,18:00:00,18:24:21,NA,incomplete,6,filling,1,left,Green_Triangle_Chess_1.jpg,Blue_Star_Chess_4.jpg,Green_Plus_Grid_3.jpg,left,817.1050000000978,true,high,NA,NA,NA,NA,NA,NA,NA,false
neSrdRyh,3r6rzgk0yip7nifkjif6ljfzh9ayv2,3efvcay5l7ml41m2gr8v82cv75j8jx,neSrdRyh,2020-0188,2020-11-21,18:00:00,18:24:21,NA,incomplete,7,filling,1,left,Green_Triangle_Chess_2.jpg,Blue_Plus_Chess_3.jpg,Green_Circle_Grid_4.jpg,left,796.1000000000931,true,high,NA,NA,NA,NA,NA,NA,NA,false
neSrdRyh,3r6rzgk0yip7nifkjif6ljfzh9ayv2,3efvcay5l7ml41m2gr8v82cv75j8jx,neSrdRyh,2020-0188,2020-11-21,18:00:00,18:24:21,NA,incomplete,8,filling,1,left,Blue_Triangle_Grid_4.jpg,Purple_Star_Grid_1.jpg,Blue_Circle_Dots_3.jpg,left,879.1500000001397,true,high,NA,NA,NA,NA,NA,NA,NA,false
neSrdRyh,3r6rzgk0yip7nifkjif6ljfzh9ayv2,3efvcay5l7ml41m2gr8v82cv75j8jx,neSrdRyh,2020-0188,2020-11-21,18:00:00,18:24:21,NA,incomplete,9,filling,1,left,Blue_Circle_Stripes_2.jpg,Red_Star_Stripes_3.jpg,Blue_Triangle_Grid_4.jpg,left,699.0099999997765,true,high,NA,NA,NA,NA,NA,NA,NA,false
neSrdRyh,3r6rzgk0yip7nifkjif6ljfzh9ayv2,3efvcay5l7ml41m2gr8v82cv75j8jx,neSrdRyh,2020-0188,2020-11-21,18:00:00,18:24:21,NA,incomplete,10,color,1,right,Purple_Plus_Chess_4.jpg,Red_Star_Chess_2.jpg,Purple_Triangle_Stripes_1.jpg,right,898.5650000000605,true,high,NA,NA,NA,NA,NA,NA,NA,false
neSrdRyh,3r6rzgk0yip7nifkjif6ljfzh9ayv2,3efvcay5l7ml41m2gr8v82cv75j8jx,neSrdRyh,2020-0188,2020-11-21,18:00:00,18:24:21,NA,incomplete,11,color,1,right,Purple_Plus_Chess_1.jpg,Red_Circle_Chess_3.jpg,Purple_Triangle_Stripes_4.jpg,left,1009.7300000002142,false,high,NA,NA,NA,NA,NA,NA,NA,false
neSrdRyh,3r6rzgk0yip7nifkjif6ljfzh9ayv2,3efvcay5l7ml41m2gr8v82cv75j8jx,neSrdRyh,2020-0188,2020-11-21,18:00:00,18:24:21,NA,incomplete,12,color,1,right,Purple_Star_Grid_4.jpg,Blue_Triangle_Grid_1.jpg,Purple_Circle_Stripes_3.jpg,right,672.8800000000047,true,high,NA,NA,NA,NA,NA,NA,NA,false
neSrdRyh,3r6rzgk0yip7nifkjif6ljfzh9ayv2,3efvcay5l7ml41m2gr8v82cv75j8jx,neSrdRyh,2020-0188,2020-11-21,18:00:00,18:24:21,NA,incomplete,13,color,1,right,Red_Circle_Stripes_4.jpg,Purple_Plus_Stripes_2.jpg,Red_Triangle_Grid_1.jpg,right,755.7849999997998,true,high,NA,NA,NA,NA,NA,NA,NA,false
neSrdRyh,3r6rzgk0yip7nifkjif6ljfzh9ayv2,3efvcay5l7ml41m2gr8v82cv75j8jx,neSrdRyh,2020-0188,2020-11-21,18:00:00,18:24:21,NA,incomplete,14,color,1,right,Red_Star_Chess_4.jpg,Purple_Triangle_Chess_1.jpg,Red_Circle_Dots_3.jpg,right,645.2300000000978,true,high,NA,NA,NA,NA,NA,NA,NA,false
neSrdRyh,3r6rzgk0yip7nifkjif6ljfzh9ayv2,3efvcay5l7ml41m2gr8v82cv75j8jx,neSrdRyh,2020-0188,2020-11-21,18:00:00,18:24:21,NA,incomplete,15,color,0,left,Red_Plus_Chess_2.jpg,Red_Circle_Grid_1.jpg,Purple_Triangle_Chess_3.jpg,left,584.0900000002002,true,high,NA,NA,NA,NA,NA,NA,NA,false
neSrdRyh,3r6rzgk0yip7nifkjif6ljfzh9ayv2,3efvcay5l7ml41m2gr8v82cv75j8jx,neSrdRyh,2020-0188,2020-11-21,18:00:00,18:24:21,NA,incomplete,16,color,1,left,Blue_Circle_Dots_1.jpg,Blue_Star_Grid_4.jpg,Green_Plus_Dots_2.jpg,left,739.9949999998789,true,high,NA,NA,NA,NA,NA,NA,NA,false
neSrdRyh,3r6rzgk0yip7nifkjif6ljfzh9ayv2,3efvcay5l7ml41m2gr8v82cv75j8jx,neSrdRyh,2020-0188,2020-11-21,18:00:00,18:24:21,NA,incomplete,17,color,1,right,Purple_Triangle_Chess_3.jpg,Red_Circle_Chess_2.jpg,Purple_Star_Stripes_4.jpg,right,673.2150000002002,true,high,NA,NA,NA,NA,NA,NA,NA,false
neSrdRyh,3r6rzgk0yip7nifkjif6ljfzh9ayv2,3efvcay5l7ml41m2gr8v82cv75j8jx,neSrdRyh,2020-0188,2020-11-21,18:00:00,18:24:21,NA,incomplete,18,color,1,right,Blue_Star_Dots_4.jpg,Green_Circle_Dots_3.jpg,Blue_Plus_Chess_2.jpg,right,640.1049999999814,true,high,NA,NA,NA,NA,NA,NA,NA,false
neSrdRyh,3r6rzgk0yip7nifkjif6ljfzh9ayv2,3efvcay5l7ml41m2gr8v82cv75j8jx,neSrdRyh,2020-0188,2020-11-21,18:00:00,18:24:21,NA,incomplete,19,color,1,right,Purple_Star_Chess_1.jpg,Green_Plus_Chess_2.jpg,Purple_Triangle_Dots_4.jpg,right,758.5650000000605,true,high,NA,NA,NA,NA,NA,NA,NA,false
neSrdRyh,3r6rzgk0yip7nifkjif6ljfzh9ayv2,3efvcay5l7ml41m2gr8v82cv75j8jx,neSrdRyh,2020-0188,2020-11-21,18:00:00,18:24:21,NA,incomplete,20,filling,1,right,Red_Triangle_Grid_4.jpg,Red_Plus_Stripes_1.jpg,Purple_Circle_Grid_3.jpg,left,681.1200000002282,false,high,NA,NA,NA,NA,NA,NA,NA,false
neSrdRyh,3r6rzgk0yip7nifkjif6ljfzh9ayv2,3efvcay5l7ml41m2gr8v82cv75j8jx,neSrdRyh,2020-0188,2020-11-21,18:00:00,18:24:21,NA,incomplete,21,filling,1,right,Blue_Triangle_Grid_1.jpg,Blue_Circle_Stripes_3.jpg,Red_Plus_Grid_2.jpg,right,878.729999999865,true,high,NA,NA,NA,NA,NA,NA,NA,false
neSrdRyh,3r6rzgk0yip7nifkjif6ljfzh9ayv2,3efvcay5l7ml41m2gr8v82cv75j8jx,neSrdRyh,2020-0188,2020-11-21,18:00:00,18:24:21,NA,incomplete,22,filling,1,right,Red_Circle_Dots_4.jpg,Red_Triangle_Stripes_3.jpg,Blue_Plus_Dots_1.jpg,right,1097.204999999958,true,high,NA,NA,NA,NA,NA,NA,NA,false
neSrdRyh,3r6rzgk0yip7nifkjif6ljfzh9ayv2,3efvcay5l7ml41m2gr8v82cv75j8jx,neSrdRyh,2020-0188,2020-11-21,18:00:00,18:24:21,NA,incomplete,23,filling,1,left,Green_Plus_Stripes_1.jpg,Purple_Circle_Stripes_3.jpg,Green_Triangle_Dots_4.jpg,left,1257.2500000001164,true,high,NA,NA,NA,NA,NA,NA,NA,false
neSrdRyh,3r6rzgk0yip7nifkjif6ljfzh9ayv2,3efvcay5l7ml41m2gr8v82cv75j8jx,neSrdRyh,2020-0188,2020-11-21,18:00:00,18:24:21,NA,incomplete,24,filling,1,right,Red_Triangle_Chess_3.jpg,Red_Circle_Stripes_4.jpg,Green_Plus_Chess_1.jpg,left,791.890000000014,false,high,NA,NA,NA,NA,NA,NA,NA,false
neSrdRyh,3r6rzgk0yip7nifkjif6ljfzh9ayv2,3efvcay5l7ml41m2gr8v82cv75j8jx,neSrdRyh,2020-0188,2020-11-21,18:00:00,18:24:21,NA,incomplete,25,filling,1,left,Red_Plus_Chess_2.jpg,Purple_Triangle_Chess_1.jpg,Red_Star_Dots_4.jpg,left,969.1050000000978,true,high,NA,NA,NA,NA,NA,NA,NA,false
neSrdRyh,3r6rzgk0yip7nifkjif6ljfzh9ayv2,3efvcay5l7ml41m2gr8v82cv75j8jx,neSrdRyh,2020-0188,2020-11-21,18:00:00,18:24:21,NA,incomplete,26,filling,1,left,Green_Circle_Chess_2.jpg,Red_Triangle_Chess_1.jpg,Green_Plus_Grid_4.jpg,left,1606.4850000003353,true,high,NA,NA,NA,NA,NA,NA,NA,false
neSrdRyh,3r6rzgk0yip7nifkjif6ljfzh9ayv2,3efvcay5l7ml41m2gr8v82cv75j8jx,neSrdRyh,2020-0188,2020-11-21,18:00:00,18:24:21,NA,incomplete,27,filling,0,right,Purple_Circle_Dots_2.jpg,Purple_Triangle_Grid_4.jpg,Red_Plus_Dots_1.jpg,right,873.175000000163,true,high,NA,NA,NA,NA,NA,NA,NA,false
neSrdRyh,3r6rzgk0yip7nifkjif6ljfzh9ayv2,3efvcay5l7ml41m2gr8v82cv75j8jx,neSrdRyh,2020-0188,2020-11-21,18:00:00,18:24:21,NA,incomplete,28,filling,1,right,Green_Triangle_Grid_2.jpg,Green_Circle_Dots_4.jpg,Purple_Plus_Grid_1.jpg,left,533.7100000001956,false,high,NA,NA,NA,NA,NA,NA,NA,false
neSrdRyh,3r6rzgk0yip7nifkjif6ljfzh9ayv2,3efvcay5l7ml41m2gr8v82cv75j8jx,neSrdRyh,2020-0188,2020-11-21,18:00:00,18:24:21,NA,incomplete,29,filling,0,right,Green_Triangle_Dots_3.jpg,Green_Star_Grid_1.jpg,Blue_Circle_Dots_2.jpg,left,807.5650000000605,false,high,NA,NA,NA,NA,NA,NA,NA,false
neSrdRyh,3r6rzgk0yip7nifkjif6ljfzh9ayv2,3efvcay5l7ml41m2gr8v82cv75j8jx,neSrdRyh,2020-0188,2020-11-21,18:00:00,18:24:21,NA,incomplete,30,color,1,left,Purple_Plus_Dots_2.jpg,Purple_Star_Chess_4.jpg,Green_Circle_Dots_1.jpg,left,604.6949999999488,true,high,NA,NA,NA,NA,NA,NA,NA,false
neSrdRyh,3r6rzgk0yip7nifkjif6ljfzh9ayv2,3efvcay5l7ml41m2gr8v82cv75j8jx,neSrdRyh,2020-0188,2020-11-21,18:00:00,18:24:21,NA,incomplete,31,color,1,left,Green_Plus_Chess_1.jpg,Green_Triangle_Stripes_3.jpg,Red_Circle_Chess_2.jpg,left,563.4249999998137,true,high,NA,NA,NA,NA,NA,NA,NA,false
neSrdRyh,3r6rzgk0yip7nifkjif6ljfzh9ayv2,3efvcay5l7ml41m2gr8v82cv75j8jx,neSrdRyh,2020-0188,2020-11-21,18:00:00,18:24:21,NA,incomplete,32,color,1,right,Purple_Plus_Chess_1.jpg,Green_Triangle_Chess_3.jpg,Purple_Circle_Grid_2.jpg,right,754.1550000000279,true,high,NA,NA,NA,NA,NA,NA,NA,false
neSrdRyh,3r6rzgk0yip7nifkjif6ljfzh9ayv2,3efvcay5l7ml41m2gr8v82cv75j8jx,neSrdRyh,2020-0188,2020-11-21,18:00:00,18:24:21,NA,incomplete,33,color,1,right,Red_Star_Chess_2.jpg,Green_Plus_Chess_4.jpg,Red_Circle_Stripes_1.jpg,right,745.5150000001304,true,high,NA,NA,NA,NA,NA,NA,NA,false
neSrdRyh,3r6rzgk0yip7nifkjif6ljfzh9ayv2,3efvcay5l7ml41m2gr8v82cv75j8jx,neSrdRyh,2020-0188,2020-11-21,18:00:00,18:24:21,NA,incomplete,34,color,0,left,Blue_Circle_Dots_4.jpg,Blue_Star_Stripes_3.jpg,Purple_Plus_Dots_2.jpg,left,652.1050000002142,true,high,NA,NA,NA,NA,NA,NA,NA,false
neSrdRyh,3r6rzgk0yip7nifkjif6ljfzh9ayv2,3efvcay5l7ml41m2gr8v82cv75j8jx,neSrdRyh,2020-0188,2020-11-21,18:00:00,18:24:21,NA,incomplete,35,color,1,left,Green_Star_Chess_1.jpg,Green_Triangle_Grid_2.jpg,Red_Plus_Chess_4.jpg,right,990.320000000298,false,high,NA,NA,NA,NA,NA,NA,NA,false
neSrdRyh,3r6rzgk0yip7nifkjif6ljfzh9ayv2,3efvcay5l7ml41m2gr8v82cv75j8jx,neSrdRyh,2020-0188,2020-11-21,18:00:00,18:24:21,NA,incomplete,36,color,1,right,Green_Circle_Dots_4.jpg,Blue_Plus_Dots_3.jpg,Green_Triangle_Stripes_2.jpg,right,641.9300000001676,true,high,NA,NA,NA,NA,NA,NA,NA,false
neSrdRyh,3r6rzgk0yip7nifkjif6ljfzh9ayv2,3efvcay5l7ml41m2gr8v82cv75j8jx,neSrdRyh,2020-0188,2020-11-21,18:00:00,18:24:21,NA,incomplete,37,color,0,left,Blue_Circle_Dots_2.jpg,Blue_Triangle_Grid_4.jpg,Purple_Star_Dots_1.jpg,left,545.8749999997672,true,high,NA,NA,NA,NA,NA,NA,NA,false
neSrdRyh,3r6rzgk0yip7nifkjif6ljfzh9ayv2,3efvcay5l7ml41m2gr8v82cv75j8jx,neSrdRyh,2020-0188,2020-11-21,18:00:00,18:24:21,NA,incomplete,38,color,0,right,Green_Circle_Grid_2.jpg,Blue_Triangle_Grid_4.jpg,Green_Star_Chess_1.jpg,right,823.0399999998044,true,high,NA,NA,NA,NA,NA,NA,NA,false
neSrdRyh,3r6rzgk0yip7nifkjif6ljfzh9ayv2,3efvcay5l7ml41m2gr8v82cv75j8jx,neSrdRyh,2020-0188,2020-11-21,18:00:00,18:24:21,NA,incomplete,39,color,1,right,Purple_Star_Stripes_4.jpg,Green_Circle_Stripes_3.jpg,Purple_Plus_Grid_2.jpg,left,940.5400000000373,false,high,NA,NA,NA,NA,NA,NA,NA,false
neSrdRyh,3r6rzgk0yip7nifkjif6ljfzh9ayv2,3efvcay5l7ml41m2gr8v82cv75j8jx,neSrdRyh,2020-0188,2020-11-21,18:00:00,18:24:21,NA,incomplete,40,filling,1,right,Blue_Plus_Chess_1.jpg,Blue_Triangle_Dots_4.jpg,Green_Star_Chess_2.jpg,left,728.2049999999581,false,high,NA,NA,NA,NA,NA,NA,NA,false
neSrdRyh,3r6rzgk0yip7nifkjif6ljfzh9ayv2,3efvcay5l7ml41m2gr8v82cv75j8jx,neSrdRyh,2020-0188,2020-11-21,18:00:00,18:24:21,NA,incomplete,41,filling,1,left,Blue_Plus_Dots_2.jpg,Green_Star_Dots_1.jpg,Blue_Circle_Chess_4.jpg,left,896.6199999999953,true,high,NA,NA,NA,NA,NA,NA,NA,false
neSrdRyh,3r6rzgk0yip7nifkjif6ljfzh9ayv2,3efvcay5l7ml41m2gr8v82cv75j8jx,neSrdRyh,2020-0188,2020-11-21,18:00:00,18:24:21,NA,incomplete,42,filling,1,left,Blue_Circle_Chess_3.jpg,Purple_Star_Chess_1.jpg,Blue_Triangle_Stripes_4.jpg,left,1078.3649999998743,true,high,NA,NA,NA,NA,NA,NA,NA,false
neSrdRyh,3r6rzgk0yip7nifkjif6ljfzh9ayv2,3efvcay5l7ml41m2gr8v82cv75j8jx,neSrdRyh,2020-0188,2020-11-21,18:00:00,18:24:21,NA,incomplete,43,filling,1,left,Red_Plus_Dots_3.jpg,Green_Star_Dots_2.jpg,Red_Circle_Grid_1.jpg,left,1105.9850000001024,true,high,NA,NA,NA,NA,NA,NA,NA,false
neSrdRyh,3r6rzgk0yip7nifkjif6ljfzh9ayv2,3efvcay5l7ml41m2gr8v82cv75j8jx,neSrdRyh,2020-0188,2020-11-21,18:00:00,18:24:21,NA,incomplete,44,filling,1,right,Purple_Star_Grid_1.jpg,Purple_Plus_Dots_3.jpg,Blue_Circle_Grid_4.jpg,right,994.0699999998324,true,high,NA,NA,NA,NA,NA,NA,NA,false
neSrdRyh,3r6rzgk0yip7nifkjif6ljfzh9ayv2,3efvcay5l7ml41m2gr8v82cv75j8jx,neSrdRyh,2020-0188,2020-11-21,18:00:00,18:24:21,NA,incomplete,45,filling,0,right,Green_Plus_Chess_3.jpg,Green_Circle_Grid_2.jpg,Red_Triangle_Chess_4.jpg,right,1045.3850000003586,true,high,NA,NA,NA,NA,NA,NA,NA,false
neSrdRyh,3r6rzgk0yip7nifkjif6ljfzh9ayv2,3efvcay5l7ml41m2gr8v82cv75j8jx,neSrdRyh,2020-0188,2020-11-21,18:00:00,18:24:21,NA,incomplete,46,filling,1,right,Red_Plus_Grid_3.jpg,Red_Star_Stripes_4.jpg,Blue_Circle_Grid_1.jpg,right,1353.679999999702,true,high,NA,NA,NA,NA,NA,NA,NA,false
neSrdRyh,3r6rzgk0yip7nifkjif6ljfzh9ayv2,3efvcay5l7ml41m2gr8v82cv75j8jx,neSrdRyh,2020-0188,2020-11-21,18:00:00,18:24:21,NA,incomplete,47,filling,1,left,Green_Circle_Dots_3.jpg,Blue_Plus_Dots_4.jpg,Green_Triangle_Chess_1.jpg,left,930.0250000001397,true,high,NA,NA,NA,NA,NA,NA,NA,false
neSrdRyh,3r6rzgk0yip7nifkjif6ljfzh9ayv2,3efvcay5l7ml41m2gr8v82cv75j8jx,neSrdRyh,2020-0188,2020-11-21,18:00:00,18:24:21,NA,incomplete,48,filling,1,right,Red_Triangle_Stripes_2.jpg,Red_Circle_Grid_3.jpg,Purple_Plus_Stripes_1.jpg,right,1027.0200000003679,true,high,NA,NA,NA,NA,NA,NA,NA,false
neSrdRyh,3r6rzgk0yip7nifkjif6ljfzh9ayv2,3efvcay5l7ml41m2gr8v82cv75j8jx,neSrdRyh,2020-0188,2020-11-21,18:00:00,18:24:21,NA,incomplete,49,filling,1,left,Purple_Circle_Stripes_4.jpg,Red_Triangle_Stripes_3.jpg,Purple_Star_Grid_2.jpg,left,850.0699999999488,true,high,NA,NA,NA,NA,NA,NA,NA,false
neSrdRyh,3r6rzgk0yip7nifkjif6ljfzh9ayv2,3efvcay5l7ml41m2gr8v82cv75j8jx,neSrdRyh,2020-0188,2020-11-21,18:00:00,18:24:21,NA,incomplete,50,color,1,left,Red_Plus_Stripes_3.jpg,Red_Star_Grid_2.jpg,Green_Triangle_Stripes_4.jpg,right,994.4900000001071,false,high,NA,NA,NA,NA,NA,NA,NA,false
neSrdRyh,3r6rzgk0yip7nifkjif6ljfzh9ayv2,3efvcay5l7ml41m2gr8v82cv75j8jx,neSrdRyh,2020-0188,2020-11-21,18:00:00,18:24:21,NA,incomplete,51,color,1,right,Blue_Star_Stripes_4.jpg,Purple_Triangle_Stripes_3.jpg,Blue_Circle_Grid_1.jpg,left,736.8799999998882,false,high,NA,NA,NA,NA,NA,NA,NA,false
neSrdRyh,3r6rzgk0yip7nifkjif6ljfzh9ayv2,3efvcay5l7ml41m2gr8v82cv75j8jx,neSrdRyh,2020-0188,2020-11-21,18:00:00,18:24:21,NA,incomplete,52,color,1,left,Purple_Plus_Grid_3.jpg,Purple_Star_Dots_4.jpg,Blue_Circle_Grid_2.jpg,right,1046.465000000433,false,high,NA,NA,NA,NA,NA,NA,NA,false
neSrdRyh,3r6rzgk0yip7nifkjif6ljfzh9ayv2,3efvcay5l7ml41m2gr8v82cv75j8jx,neSrdRyh,2020-0188,2020-11-21,18:00:00,18:24:21,NA,incomplete,53,color,1,right,Green_Star_Chess_2.jpg,Blue_Triangle_Chess_1.jpg,Green_Plus_Grid_4.jpg,right,580.9199999999255,true,high,NA,NA,NA,NA,NA,NA,NA,false
neSrdRyh,3r6rzgk0yip7nifkjif6ljfzh9ayv2,3efvcay5l7ml41m2gr8v82cv75j8jx,neSrdRyh,2020-0188,2020-11-21,18:00:00,18:24:21,NA,incomplete,54,color,1,left,Red_Star_Stripes_2.jpg,Red_Plus_Dots_1.jpg,Green_Circle_Stripes_3.jpg,left,729.5500000000466,true,high,NA,NA,NA,NA,NA,NA,NA,false
neSrdRyh,3r6rzgk0yip7nifkjif6ljfzh9ayv2,3efvcay5l7ml41m2gr8v82cv75j8jx,neSrdRyh,2020-0188,2020-11-21,18:00:00,18:24:21,NA,incomplete,55,color,0,left,Blue_Triangle_Chess_1.jpg,Blue_Circle_Dots_3.jpg,Purple_Star_Chess_2.jpg,left,620.8050000000512,true,high,NA,NA,NA,NA,NA,NA,NA,false
neSrdRyh,3r6rzgk0yip7nifkjif6ljfzh9ayv2,3efvcay5l7ml41m2gr8v82cv75j8jx,neSrdRyh,2020-0188,2020-11-21,18:00:00,18:24:21,NA,incomplete,56,color,1,right,Blue_Circle_Dots_2.jpg,Green_Plus_Dots_4.jpg,Blue_Star_Stripes_1.jpg,right,550.3800000001211,true,high,NA,NA,NA,NA,NA,NA,NA,false
neSrdRyh,3r6rzgk0yip7nifkjif6ljfzh9ayv2,3efvcay5l7ml41m2gr8v82cv75j8jx,neSrdRyh,2020-0188,2020-11-21,18:00:00,18:24:21,NA,incomplete,57,color,1,right,Purple_Plus_Dots_1.jpg,Red_Star_Dots_4.jpg,Purple_Triangle_Stripes_3.jpg,right,1124.9500000003027,true,high,NA,NA,NA,NA,NA,NA,NA,false
neSrdRyh,3r6rzgk0yip7nifkjif6ljfzh9ayv2,3efvcay5l7ml41m2gr8v82cv75j8jx,neSrdRyh,2020-0188,2020-11-21,18:00:00,18:24:21,NA,incomplete,58,color,1,left,Green_Star_Dots_1.jpg,Green_Plus_Grid_4.jpg,Red_Triangle_Dots_2.jpg,right,1071.0350000000326,false,high,NA,NA,NA,NA,NA,NA,NA,false
neSrdRyh,3r6rzgk0yip7nifkjif6ljfzh9ayv2,3efvcay5l7ml41m2gr8v82cv75j8jx,neSrdRyh,2020-0188,2020-11-21,18:00:00,18:24:21,NA,incomplete,59,color,0,left,Blue_Triangle_Stripes_1.jpg,Blue_Circle_Chess_2.jpg,Green_Star_Stripes_4.jpg,left,720.6099999998696,true,high,NA,NA,NA,NA,NA,NA,NA,false
neSrdRyh,3r6rzgk0yip7nifkjif6ljfzh9ayv2,3efvcay5l7ml41m2gr8v82cv75j8jx,neSrdRyh,2020-0188,2020-11-21,18:00:00,18:24:21,NA,incomplete,60,filling,0,right,Red_Triangle_Grid_2.jpg,Red_Circle_Chess_3.jpg,Purple_Plus_Grid_4.jpg,right,988.984999999986,true,high,NA,NA,NA,NA,NA,NA,NA,false
neSrdRyh,3r6rzgk0yip7nifkjif6ljfzh9ayv2,3efvcay5l7ml41m2gr8v82cv75j8jx,neSrdRyh,2020-0188,2020-11-21,18:00:00,18:24:21,NA,incomplete,61,filling,1,right,Purple_Circle_Dots_2.jpg,Purple_Triangle_Grid_1.jpg,Red_Star_Dots_4.jpg,left,651.5399999999208,false,high,NA,NA,NA,NA,NA,NA,NA,false
neSrdRyh,3r6rzgk0yip7nifkjif6ljfzh9ayv2,3efvcay5l7ml41m2gr8v82cv75j8jx,neSrdRyh,2020-0188,2020-11-21,18:00:00,18:24:21,NA,incomplete,62,filling,1,left,Blue_Plus_Dots_4.jpg,Green_Star_Dots_2.jpg,Blue_Triangle_Grid_3.jpg,right,380.5250000001397,false,high,NA,NA,NA,NA,NA,NA,NA,false
neSrdRyh,3r6rzgk0yip7nifkjif6ljfzh9ayv2,3efvcay5l7ml41m2gr8v82cv75j8jx,neSrdRyh,2020-0188,2020-11-21,18:00:00,18:24:21,NA,incomplete,63,filling,0,left,Blue_Circle_Dots_3.jpg,Purple_Star_Dots_2.jpg,Blue_Triangle_Chess_4.jpg,left,692.0850000000792,true,high,NA,NA,NA,NA,NA,NA,NA,false
neSrdRyh,3r6rzgk0yip7nifkjif6ljfzh9ayv2,3efvcay5l7ml41m2gr8v82cv75j8jx,neSrdRyh,2020-0188,2020-11-21,18:00:00,18:24:21,NA,incomplete,64,filling,0,left,Blue_Triangle_Dots_4.jpg,Green_Circle_Dots_2.jpg,Blue_Plus_Chess_1.jpg,right,746.5299999999115,false,high,NA,NA,NA,NA,NA,NA,NA,false
neSrdRyh,3r6rzgk0yip7nifkjif6ljfzh9ayv2,3efvcay5l7ml41m2gr8v82cv75j8jx,neSrdRyh,2020-0188,2020-11-21,18:00:00,18:24:21,NA,incomplete,65,filling,1,left,Red_Plus_Chess_3.jpg,Green_Triangle_Chess_4.jpg,Red_Circle_Dots_1.jpg,right,716.1650000002701,false,high,NA,NA,NA,NA,NA,NA,NA,false
neSrdRyh,3r6rzgk0yip7nifkjif6ljfzh9ayv2,3efvcay5l7ml41m2gr8v82cv75j8jx,neSrdRyh,2020-0188,2020-11-21,18:00:00,18:24:21,NA,incomplete,66,filling,1,right,Blue_Triangle_Chess_1.jpg,Blue_Plus_Stripes_4.jpg,Green_Circle_Chess_2.jpg,right,1057.0800000000745,true,high,NA,NA,NA,NA,NA,NA,NA,false
neSrdRyh,3r6rzgk0yip7nifkjif6ljfzh9ayv2,3efvcay5l7ml41m2gr8v82cv75j8jx,neSrdRyh,2020-0188,2020-11-21,18:00:00,18:24:21,NA,incomplete,67,filling,1,right,Blue_Triangle_Dots_4.jpg,Blue_Star_Stripes_2.jpg,Green_Circle_Dots_3.jpg,right,1308.3700000001118,true,high,NA,NA,NA,NA,NA,NA,NA,false
neSrdRyh,3r6rzgk0yip7nifkjif6ljfzh9ayv2,3efvcay5l7ml41m2gr8v82cv75j8jx,neSrdRyh,2020-0188,2020-11-21,18:00:00,18:24:21,NA,incomplete,68,filling,1,right,Green_Star_Chess_1.jpg,Green_Plus_Dots_2.jpg,Blue_Circle_Chess_3.jpg,right,1172.2399999998743,true,high,NA,NA,NA,NA,NA,NA,NA,false
neSrdRyh,3r6rzgk0yip7nifkjif6ljfzh9ayv2,3efvcay5l7ml41m2gr8v82cv75j8jx,neSrdRyh,2020-0188,2020-11-21,18:00:00,18:24:21,NA,incomplete,69,filling,0,left,Red_Triangle_Dots_4.jpg,Green_Star_Dots_3.jpg,Red_Plus_Stripes_1.jpg,left,1045.1849999999395,true,high,NA,NA,NA,NA,NA,NA,NA,false
neSrdRyh,3r6rzgk0yip7nifkjif6ljfzh9ayv2,3efvcay5l7ml41m2gr8v82cv75j8jx,neSrdRyh,2020-0188,2020-11-21,18:00:00,18:24:21,NA,incomplete,70,color,0,left,Blue_Plus_Dots_1.jpg,Blue_Circle_Chess_2.jpg,Red_Triangle_Dots_3.jpg,right,1274.640000000014,false,high,NA,NA,NA,NA,NA,NA,NA,false
neSrdRyh,3r6rzgk0yip7nifkjif6ljfzh9ayv2,3efvcay5l7ml41m2gr8v82cv75j8jx,neSrdRyh,2020-0188,2020-11-21,18:00:00,18:24:21,NA,incomplete,71,color,1,left,Purple_Star_Stripes_2.jpg,Purple_Triangle_Dots_1.jpg,Red_Plus_Stripes_3.jpg,right,1146.380000000121,false,high,NA,NA,NA,NA,NA,NA,NA,false
neSrdRyh,3r6rzgk0yip7nifkjif6ljfzh9ayv2,3efvcay5l7ml41m2gr8v82cv75j8jx,neSrdRyh,2020-0188,2020-11-21,18:00:00,18:24:21,NA,incomplete,72,color,1,right,Red_Plus_Stripes_1.jpg,Purple_Triangle_Stripes_3.jpg,Red_Star_Dots_4.jpg,right,707.4999999998836,true,high,NA,NA,NA,NA,NA,NA,NA,false
neSrdRyh,3r6rzgk0yip7nifkjif6ljfzh9ayv2,3efvcay5l7ml41m2gr8v82cv75j8jx,neSrdRyh,2020-0188,2020-11-21,18:00:00,18:24:21,NA,incomplete,73,color,1,right,Red_Circle_Stripes_3.jpg,Purple_Triangle_Stripes_2.jpg,Red_Plus_Grid_1.jpg,left,742.7350000002189,false,high,NA,NA,NA,NA,NA,NA,NA,false
neSrdRyh,3r6rzgk0yip7nifkjif6ljfzh9ayv2,3efvcay5l7ml41m2gr8v82cv75j8jx,neSrdRyh,2020-0188,2020-11-21,18:00:00,18:24:21,NA,incomplete,74,color,1,left,Purple_Star_Grid_2.jpg,Purple_Plus_Stripes_1.jpg,Red_Triangle_Grid_4.jpg,left,1591.214999999851,true,high,NA,NA,NA,NA,NA,NA,NA,false
neSrdRyh,3r6rzgk0yip7nifkjif6ljfzh9ayv2,3efvcay5l7ml41m2gr8v82cv75j8jx,neSrdRyh,2020-0188,2020-11-21,18:00:00,18:24:21,NA,incomplete,75,color,1,right,Blue_Circle_Stripes_3.jpg,Purple_Triangle_Stripes_2.jpg,Blue_Plus_Grid_4.jpg,left,1004.9899999999907,false,high,NA,NA,NA,NA,NA,NA,NA,false
neSrdRyh,3r6rzgk0yip7nifkjif6ljfzh9ayv2,3efvcay5l7ml41m2gr8v82cv75j8jx,neSrdRyh,2020-0188,2020-11-21,18:00:00,18:24:21,NA,incomplete,76,color,1,left,Green_Triangle_Dots_1.jpg,Green_Circle_Grid_4.jpg,Red_Star_Dots_2.jpg,right,1482.4300000000512,false,high,NA,NA,NA,NA,NA,NA,NA,false
neSrdRyh,3r6rzgk0yip7nifkjif6ljfzh9ayv2,3efvcay5l7ml41m2gr8v82cv75j8jx,neSrdRyh,2020-0188,2020-11-21,18:00:00,18:24:21,NA,incomplete,77,color,1,left,Blue_Triangle_Chess_1.jpg,Blue_Circle_Grid_3.jpg,Purple_Plus_Chess_2.jpg,left,769.589999999851,true,high,NA,NA,NA,NA,NA,NA,NA,false
neSrdRyh,3r6rzgk0yip7nifkjif6ljfzh9ayv2,3efvcay5l7ml41m2gr8v82cv75j8jx,neSrdRyh,2020-0188,2020-11-21,18:00:00,18:24:21,NA,incomplete,78,color,1,left,Blue_Triangle_Dots_4.jpg,Blue_Plus_Stripes_2.jpg,Red_Star_Dots_3.jpg,right,897.609999999986,false,high,NA,NA,NA,NA,NA,NA,NA,false
neSrdRyh,3r6rzgk0yip7nifkjif6ljfzh9ayv2,3efvcay5l7ml41m2gr8v82cv75j8jx,neSrdRyh,2020-0188,2020-11-21,18:00:00,18:24:21,NA,incomplete,79,color,1,left,Green_Star_Stripes_1.jpg,Green_Circle_Grid_2.jpg,Red_Plus_Stripes_4.jpg,right,1047.4850000001024,false,high,NA,NA,NA,NA,NA,NA,NA,false
neSrdRyh,3r6rzgk0yip7nifkjif6ljfzh9ayv2,3efvcay5l7ml41m2gr8v82cv75j8jx,neSrdRyh,2020-0188,2020-11-21,18:00:00,18:24:21,NA,incomplete,80,filling,1,left,Red_Circle_Grid_2.jpg,Green_Triangle_Grid_1.jpg,Red_Plus_Stripes_3.jpg,left,836.9149999998044,true,high,NA,NA,NA,NA,NA,NA,NA,false
neSrdRyh,3r6rzgk0yip7nifkjif6ljfzh9ayv2,3efvcay5l7ml41m2gr8v82cv75j8jx,neSrdRyh,2020-0188,2020-11-21,18:00:00,18:24:21,NA,incomplete,81,filling,1,right,Red_Star_Stripes_2.jpg,Red_Circle_Dots_4.jpg,Purple_Triangle_Stripes_3.jpg,right,904.475000000326,true,high,NA,NA,NA,NA,NA,NA,NA,false
neSrdRyh,3r6rzgk0yip7nifkjif6ljfzh9ayv2,3efvcay5l7ml41m2gr8v82cv75j8jx,neSrdRyh,2020-0188,2020-11-21,18:00:00,18:24:21,NA,incomplete,82,filling,1,right,Green_Star_Grid_4.jpg,Green_Plus_Chess_1.jpg,Blue_Triangle_Grid_2.jpg,right,818.5450000000419,true,high,NA,NA,NA,NA,NA,NA,NA,false
neSrdRyh,3r6rzgk0yip7nifkjif6ljfzh9ayv2,3efvcay5l7ml41m2gr8v82cv75j8jx,neSrdRyh,2020-0188,2020-11-21,18:00:00,18:24:21,NA,incomplete,83,filling,1,right,Red_Plus_Chess_4.jpg,Red_Triangle_Grid_1.jpg,Purple_Circle_Chess_3.jpg,right,651.6200000001118,true,high,NA,NA,NA,NA,NA,NA,NA,false
neSrdRyh,3r6rzgk0yip7nifkjif6ljfzh9ayv2,3efvcay5l7ml41m2gr8v82cv75j8jx,neSrdRyh,2020-0188,2020-11-21,18:00:00,18:24:21,NA,incomplete,84,filling,1,right,Purple_Circle_Grid_1.jpg,Purple_Star_Dots_3.jpg,Green_Plus_Grid_4.jpg,right,747.559999999823,true,high,NA,NA,NA,NA,NA,NA,NA,false
neSrdRyh,3r6rzgk0yip7nifkjif6ljfzh9ayv2,3efvcay5l7ml41m2gr8v82cv75j8jx,neSrdRyh,2020-0188,2020-11-21,18:00:00,18:24:21,NA,incomplete,85,filling,1,right,Red_Circle_Stripes_1.jpg,Red_Triangle_Grid_4.jpg,Blue_Star_Stripes_3.jpg,right,359.375,true,high,NA,NA,NA,NA,NA,NA,NA,false
neSrdRyh,3r6rzgk0yip7nifkjif6ljfzh9ayv2,3efvcay5l7ml41m2gr8v82cv75j8jx,neSrdRyh,2020-0188,2020-11-21,18:00:00,18:24:21,NA,incomplete,86,filling,1,left,Green_Plus_Grid_1.jpg,Purple_Circle_Grid_4.jpg,Green_Triangle_Dots_3.jpg,right,301.50499999988824,false,high,NA,NA,NA,NA,NA,NA,NA,false
neSrdRyh,3r6rzgk0yip7nifkjif6ljfzh9ayv2,3efvcay5l7ml41m2gr8v82cv75j8jx,neSrdRyh,2020-0188,2020-11-21,18:00:00,18:24:21,NA,incomplete,87,filling,1,right,Green_Plus_Dots_3.jpg,Green_Star_Chess_1.jpg,Red_Triangle_Dots_2.jpg,left,578.7900000000373,false,high,NA,NA,NA,NA,NA,NA,NA,false
neSrdRyh,3r6rzgk0yip7nifkjif6ljfzh9ayv2,3efvcay5l7ml41m2gr8v82cv75j8jx,neSrdRyh,2020-0188,2020-11-21,18:00:00,18:24:21,NA,incomplete,88,filling,1,left,Green_Star_Stripes_2.jpg,Blue_Plus_Stripes_3.jpg,Green_Circle_Grid_1.jpg,left,925.2150000002002,true,high,NA,NA,NA,NA,NA,NA,NA,false
neSrdRyh,3r6rzgk0yip7nifkjif6ljfzh9ayv2,3efvcay5l7ml41m2gr8v82cv75j8jx,neSrdRyh,2020-0188,2020-11-21,18:00:00,18:24:21,NA,incomplete,89,filling,0,left,Blue_Star_Chess_1.jpg,Green_Circle_Chess_2.jpg,Blue_Plus_Stripes_4.jpg,right,1063.1650000000373,false,high,NA,NA,NA,NA,NA,NA,NA,false
neSrdRyh,3r6rzgk0yip7nifkjif6ljfzh9ayv2,3efvcay5l7ml41m2gr8v82cv75j8jx,neSrdRyh,2020-0188,2020-11-21,18:00:00,18:24:21,NA,incomplete,90,color,1,right,Red_Plus_Chess_4.jpg,Blue_Triangle_Chess_2.jpg,Red_Circle_Dots_1.jpg,left,804.0300000002608,false,high,NA,NA,NA,NA,NA,NA,NA,false
neSrdRyh,3r6rzgk0yip7nifkjif6ljfzh9ayv2,3efvcay5l7ml41m2gr8v82cv75j8jx,neSrdRyh,2020-0188,2020-11-21,18:00:00,18:24:21,NA,incomplete,91,color,1,right,Green_Star_Stripes_2.jpg,Purple_Triangle_Stripes_1.jpg,Green_Circle_Dots_4.jpg,right,1028.7549999997718,true,high,NA,NA,NA,NA,NA,NA,NA,false
neSrdRyh,3r6rzgk0yip7nifkjif6ljfzh9ayv2,3efvcay5l7ml41m2gr8v82cv75j8jx,neSrdRyh,2020-0188,2020-11-21,18:00:00,18:24:21,NA,incomplete,92,color,1,left,Green_Plus_Dots_1.jpg,Green_Triangle_Stripes_3.jpg,Red_Star_Dots_4.jpg,left,893.5850000001956,true,high,NA,NA,NA,NA,NA,NA,NA,false
neSrdRyh,3r6rzgk0yip7nifkjif6ljfzh9ayv2,3efvcay5l7ml41m2gr8v82cv75j8jx,neSrdRyh,2020-0188,2020-11-21,18:00:00,18:24:21,NA,incomplete,93,color,1,right,Red_Star_Stripes_3.jpg,Green_Plus_Stripes_1.jpg,Red_Triangle_Dots_4.jpg,right,715.339999999851,true,high,NA,NA,NA,NA,NA,NA,NA,false
neSrdRyh,3r6rzgk0yip7nifkjif6ljfzh9ayv2,3efvcay5l7ml41m2gr8v82cv75j8jx,neSrdRyh,2020-0188,2020-11-21,18:00:00,18:24:21,NA,incomplete,94,color,0,left,Purple_Star_Grid_4.jpg,Purple_Triangle_Chess_1.jpg,Blue_Plus_Grid_2.jpg,left,734.4949999996461,true,high,NA,NA,NA,NA,NA,NA,NA,false
neSrdRyh,3r6rzgk0yip7nifkjif6ljfzh9ayv2,3efvcay5l7ml41m2gr8v82cv75j8jx,neSrdRyh,2020-0188,2020-11-21,18:00:00,18:24:21,NA,incomplete,95,color,1,right,Purple_Plus_Dots_3.jpg,Red_Star_Dots_2.jpg,Purple_Triangle_Stripes_4.jpg,left,1319.149999999674,false,high,NA,NA,NA,NA,NA,NA,NA,false
neSrdRyh,3r6rzgk0yip7nifkjif6ljfzh9ayv2,3efvcay5l7ml41m2gr8v82cv75j8jx,neSrdRyh,2020-0188,2020-11-21,18:00:00,18:24:21,NA,incomplete,96,color,0,left,Green_Circle_Chess_1.jpg,Green_Triangle_Dots_4.jpg,Blue_Star_Chess_3.jpg,right,803.1699999996927,false,high,NA,NA,NA,NA,NA,NA,NA,false
neSrdRyh,3r6rzgk0yip7nifkjif6ljfzh9ayv2,3efvcay5l7ml41m2gr8v82cv75j8jx,neSrdRyh,2020-0188,2020-11-21,18:00:00,18:24:21,NA,incomplete,97,color,1,right,Red_Plus_Dots_3.jpg,Purple_Star_Dots_4.jpg,Red_Circle_Chess_2.jpg,right,596.3149999999441,true,high,NA,NA,NA,NA,NA,NA,NA,false
neSrdRyh,3r6rzgk0yip7nifkjif6ljfzh9ayv2,3efvcay5l7ml41m2gr8v82cv75j8jx,neSrdRyh,2020-0188,2020-11-21,18:00:00,18:24:21,NA,incomplete,98,color,0,right,Purple_Triangle_Chess_4.jpg,Blue_Plus_Chess_3.jpg,Purple_Star_Dots_2.jpg,right,524.725000000326,true,high,NA,NA,NA,NA,NA,NA,NA,false
neSrdRyh,3r6rzgk0yip7nifkjif6ljfzh9ayv2,3efvcay5l7ml41m2gr8v82cv75j8jx,neSrdRyh,2020-0188,2020-11-21,18:00:00,18:24:21,NA,incomplete,99,color,1,left,Red_Triangle_Stripes_2.jpg,Red_Plus_Chess_3.jpg,Purple_Star_Stripes_4.jpg,right,966.5600000002887,false,high,NA,NA,NA,NA,NA,NA,NA,false
neSrdRyh,3r6rzgk0yip7nifkjif6ljfzh9ayv2,3efvcay5l7ml41m2gr8v82cv75j8jx,neSrdRyh,2020-0188,2020-11-21,18:00:00,18:24:21,NA,incomplete,100,filling,0,right,Purple_Star_Chess_4.jpg,Purple_Circle_Grid_2.jpg,Blue_Triangle_Chess_1.jpg,left,626.0699999998324,false,high,NA,NA,NA,NA,NA,NA,NA,false
neSrdRyh,3r6rzgk0yip7nifkjif6ljfzh9ayv2,3efvcay5l7ml41m2gr8v82cv75j8jx,neSrdRyh,2020-0188,2020-11-21,18:00:00,18:24:21,NA,incomplete,101,filling,0,left,Blue_Circle_Stripes_3.jpg,Green_Star_Stripes_1.jpg,Blue_Plus_Grid_2.jpg,right,612.7200000002049,false,high,NA,NA,NA,NA,NA,NA,NA,false
neSrdRyh,3r6rzgk0yip7nifkjif6ljfzh9ayv2,3efvcay5l7ml41m2gr8v82cv75j8jx,neSrdRyh,2020-0188,2020-11-21,18:00:00,18:24:21,NA,incomplete,102,filling,1,left,Green_Triangle_Stripes_2.jpg,Purple_Plus_Stripes_3.jpg,Green_Circle_Dots_1.jpg,right,647.0850000001956,false,high,NA,NA,NA,NA,NA,NA,NA,false
neSrdRyh,3r6rzgk0yip7nifkjif6ljfzh9ayv2,3efvcay5l7ml41m2gr8v82cv75j8jx,neSrdRyh,2020-0188,2020-11-21,18:00:00,18:24:21,NA,incomplete,103,filling,1,right,Blue_Plus_Dots_1.jpg,Blue_Circle_Stripes_3.jpg,Purple_Triangle_Dots_4.jpg,left,550.6049999997485,false,high,NA,NA,NA,NA,NA,NA,NA,false
neSrdRyh,3r6rzgk0yip7nifkjif6ljfzh9ayv2,3efvcay5l7ml41m2gr8v82cv75j8jx,neSrdRyh,2020-0188,2020-11-21,18:00:00,18:24:21,NA,incomplete,104,filling,0,right,Blue_Plus_Dots_3.jpg,Blue_Triangle_Chess_1.jpg,Green_Circle_Dots_2.jpg,left,698.7150000000838,false,high,NA,NA,NA,NA,NA,NA,NA,false
neSrdRyh,3r6rzgk0yip7nifkjif6ljfzh9ayv2,3efvcay5l7ml41m2gr8v82cv75j8jx,neSrdRyh,2020-0188,2020-11-21,18:00:00,18:24:21,NA,incomplete,105,filling,1,left,Blue_Triangle_Dots_3.jpg,Purple_Star_Dots_2.jpg,Blue_Plus_Grid_4.jpg,right,549.9099999996834,false,high,NA,NA,NA,NA,NA,NA,NA,false
neSrdRyh,3r6rzgk0yip7nifkjif6ljfzh9ayv2,3efvcay5l7ml41m2gr8v82cv75j8jx,neSrdRyh,2020-0188,2020-11-21,18:00:00,18:24:21,NA,incomplete,106,filling,1,left,Blue_Triangle_Stripes_3.jpg,Red_Plus_Stripes_1.jpg,Blue_Circle_Dots_4.jpg,right,532.7449999998789,false,high,NA,NA,NA,NA,NA,NA,NA,false
neSrdRyh,3r6rzgk0yip7nifkjif6ljfzh9ayv2,3efvcay5l7ml41m2gr8v82cv75j8jx,neSrdRyh,2020-0188,2020-11-21,18:00:00,18:24:21,NA,incomplete,107,filling,1,left,Red_Circle_Chess_4.jpg,Blue_Triangle_Chess_3.jpg,Red_Star_Dots_1.jpg,right,568.7650000001304,false,high,NA,NA,NA,NA,NA,NA,NA,false
neSrdRyh,3r6rzgk0yip7nifkjif6ljfzh9ayv2,3efvcay5l7ml41m2gr8v82cv75j8jx,neSrdRyh,2020-0188,2020-11-21,18:00:00,18:24:21,NA,incomplete,108,filling,1,left,Red_Triangle_Dots_1.jpg,Green_Plus_Dots_2.jpg,Red_Star_Stripes_4.jpg,left,747.7299999999814,true,high,NA,NA,NA,NA,NA,NA,NA,false
neSrdRyh,3r6rzgk0yip7nifkjif6ljfzh9ayv2,3efvcay5l7ml41m2gr8v82cv75j8jx,neSrdRyh,2020-0188,2020-11-21,18:00:00,18:24:21,NA,incomplete,109,filling,1,left,Purple_Star_Dots_2.jpg,Red_Circle_Dots_4.jpg,Purple_Plus_Grid_3.jpg,left,689.6950000000652,true,high,NA,NA,NA,NA,NA,NA,NA,false
neSrdRyh,3r6rzgk0yip7nifkjif6ljfzh9ayv2,3efvcay5l7ml41m2gr8v82cv75j8jx,neSrdRyh,2020-0188,2020-11-21,18:00:00,18:24:21,NA,incomplete,110,color,0,left,Purple_Star_Grid_2.jpg,Purple_Plus_Dots_3.jpg,Red_Triangle_Grid_4.jpg,right,699.4399999999441,false,high,NA,NA,NA,NA,NA,NA,NA,false
neSrdRyh,3r6rzgk0yip7nifkjif6ljfzh9ayv2,3efvcay5l7ml41m2gr8v82cv75j8jx,neSrdRyh,2020-0188,2020-11-21,18:00:00,18:24:21,NA,incomplete,111,color,1,right,Purple_Triangle_Chess_2.jpg,Green_Star_Chess_4.jpg,Purple_Plus_Grid_3.jpg,left,1073.6049999999814,false,high,NA,NA,NA,NA,NA,NA,NA,false
neSrdRyh,3r6rzgk0yip7nifkjif6ljfzh9ayv2,3efvcay5l7ml41m2gr8v82cv75j8jx,neSrdRyh,2020-0188,2020-11-21,18:00:00,18:24:21,NA,incomplete,112,color,1,right,Purple_Plus_Stripes_3.jpg,Blue_Star_Stripes_4.jpg,Purple_Circle_Dots_1.jpg,right,641.8800000001211,true,high,NA,NA,NA,NA,NA,NA,NA,false
neSrdRyh,3r6rzgk0yip7nifkjif6ljfzh9ayv2,3efvcay5l7ml41m2gr8v82cv75j8jx,neSrdRyh,2020-0188,2020-11-21,18:00:00,18:24:21,NA,incomplete,113,color,1,right,Red_Star_Grid_3.jpg,Purple_Plus_Grid_2.jpg,Red_Circle_Stripes_1.jpg,right,594.9349999995902,true,high,NA,NA,NA,NA,NA,NA,NA,false
neSrdRyh,3r6rzgk0yip7nifkjif6ljfzh9ayv2,3efvcay5l7ml41m2gr8v82cv75j8jx,neSrdRyh,2020-0188,2020-11-21,18:00:00,18:24:21,NA,incomplete,114,color,0,right,Green_Circle_Stripes_4.jpg,Purple_Plus_Stripes_3.jpg,Green_Star_Grid_1.jpg,right,530.3349999999627,true,high,NA,NA,NA,NA,NA,NA,NA,false
neSrdRyh,3r6rzgk0yip7nifkjif6ljfzh9ayv2,3efvcay5l7ml41m2gr8v82cv75j8jx,neSrdRyh,2020-0188,2020-11-21,18:00:00,18:24:21,NA,incomplete,115,color,1,right,Purple_Star_Dots_2.jpg,Red_Triangle_Dots_3.jpg,Purple_Plus_Chess_1.jpg,left,742.8350000001956,false,high,NA,NA,NA,NA,NA,NA,NA,false
neSrdRyh,3r6rzgk0yip7nifkjif6ljfzh9ayv2,3efvcay5l7ml41m2gr8v82cv75j8jx,neSrdRyh,2020-0188,2020-11-21,18:00:00,18:24:21,NA,incomplete,116,color,1,right,Blue_Circle_Chess_4.jpg,Green_Triangle_Chess_1.jpg,Blue_Star_Grid_3.jpg,right,519.1749999998137,true,high,NA,NA,NA,NA,NA,NA,NA,false
neSrdRyh,3r6rzgk0yip7nifkjif6ljfzh9ayv2,3efvcay5l7ml41m2gr8v82cv75j8jx,neSrdRyh,2020-0188,2020-11-21,18:00:00,18:24:21,NA,incomplete,117,color,1,left,Purple_Star_Dots_1.jpg,Purple_Triangle_Grid_3.jpg,Red_Circle_Dots_2.jpg,left,637.4249999998137,true,high,NA,NA,NA,NA,NA,NA,NA,false
neSrdRyh,3r6rzgk0yip7nifkjif6ljfzh9ayv2,3efvcay5l7ml41m2gr8v82cv75j8jx,neSrdRyh,2020-0188,2020-11-21,18:00:00,18:24:21,NA,incomplete,118,color,0,right,Purple_Plus_Chess_1.jpg,Green_Star_Chess_3.jpg,Purple_Triangle_Dots_2.jpg,right,543.0800000000745,true,high,NA,NA,NA,NA,NA,NA,NA,false
neSrdRyh,3r6rzgk0yip7nifkjif6ljfzh9ayv2,3efvcay5l7ml41m2gr8v82cv75j8jx,neSrdRyh,2020-0188,2020-11-21,18:00:00,18:24:21,NA,incomplete,119,color,1,right,Blue_Star_Chess_3.jpg,Purple_Triangle_Chess_2.jpg,Blue_Circle_Dots_1.jpg,right,562.5450000001583,true,high,NA,NA,NA,NA,NA,NA,NA,false
neSrdRyh,3r6rzgk0yip7nifkjif6ljfzh9ayv2,3efvcay5l7ml41m2gr8v82cv75j8jx,neSrdRyh,2020-0188,2020-11-21,18:00:00,18:24:21,NA,incomplete,120,filling,1,left,Purple_Triangle_Stripes_2.jpg,Green_Circle_Stripes_4.jpg,Purple_Star_Grid_1.jpg,right,890.0750000001863,false,high,NA,NA,NA,NA,NA,NA,NA,false
neSrdRyh,3r6rzgk0yip7nifkjif6ljfzh9ayv2,3efvcay5l7ml41m2gr8v82cv75j8jx,neSrdRyh,2020-0188,2020-11-21,18:00:00,18:24:21,NA,incomplete,121,filling,1,right,Red_Star_Stripes_3.jpg,Red_Circle_Chess_2.jpg,Purple_Plus_Stripes_4.jpg,right,911.5299999997951,true,high,NA,NA,NA,NA,NA,NA,NA,false
neSrdRyh,3r6rzgk0yip7nifkjif6ljfzh9ayv2,3efvcay5l7ml41m2gr8v82cv75j8jx,neSrdRyh,2020-0188,2020-11-21,18:00:00,18:24:21,NA,incomplete,122,filling,0,left,Purple_Star_Dots_2.jpg,Green_Plus_Dots_3.jpg,Purple_Triangle_Stripes_4.jpg,left,1043.0450000003912,true,high,NA,NA,NA,NA,NA,NA,NA,false
neSrdRyh,3r6rzgk0yip7nifkjif6ljfzh9ayv2,3efvcay5l7ml41m2gr8v82cv75j8jx,neSrdRyh,2020-0188,2020-11-21,18:00:00,18:24:21,NA,incomplete,123,filling,1,left,Blue_Triangle_Stripes_4.jpg,Purple_Circle_Stripes_1.jpg,Blue_Star_Dots_2.jpg,right,573.0100000000093,false,high,NA,NA,NA,NA,NA,NA,NA,false
neSrdRyh,3r6rzgk0yip7nifkjif6ljfzh9ayv2,3efvcay5l7ml41m2gr8v82cv75j8jx,neSrdRyh,2020-0188,2020-11-21,18:00:00,18:24:21,NA,incomplete,124,filling,1,right,Red_Circle_Dots_4.jpg,Red_Plus_Stripes_1.jpg,Purple_Triangle_Dots_3.jpg,right,1391.3599999996368,true,high,NA,NA,NA,NA,NA,NA,NA,false
neSrdRyh,3r6rzgk0yip7nifkjif6ljfzh9ayv2,3efvcay5l7ml41m2gr8v82cv75j8jx,neSrdRyh,2020-0188,2020-11-21,18:00:00,18:24:21,NA,incomplete,125,filling,0,right,Green_Plus_Grid_4.jpg,Green_Circle_Dots_1.jpg,Blue_Triangle_Grid_3.jpg,right,1176.4950000001118,true,high,NA,NA,NA,NA,NA,NA,NA,false
neSrdRyh,3r6rzgk0yip7nifkjif6ljfzh9ayv2,3efvcay5l7ml41m2gr8v82cv75j8jx,neSrdRyh,2020-0188,2020-11-21,18:00:00,18:24:21,NA,incomplete,126,filling,1,right,Red_Triangle_Grid_4.jpg,Red_Circle_Stripes_2.jpg,Blue_Star_Grid_1.jpg,left,772.6549999997951,false,high,NA,NA,NA,NA,NA,NA,NA,false
neSrdRyh,3r6rzgk0yip7nifkjif6ljfzh9ayv2,3efvcay5l7ml41m2gr8v82cv75j8jx,neSrdRyh,2020-0188,2020-11-21,18:00:00,18:24:21,NA,incomplete,127,filling,0,left,Green_Plus_Grid_3.jpg,Blue_Circle_Grid_1.jpg,Green_Star_Stripes_4.jpg,right,1106.0900000000838,false,high,NA,NA,NA,NA,NA,NA,NA,false
neSrdRyh,3r6rzgk0yip7nifkjif6ljfzh9ayv2,3efvcay5l7ml41m2gr8v82cv75j8jx,neSrdRyh,2020-0188,2020-11-21,18:00:00,18:24:21,NA,incomplete,128,filling,1,right,Green_Star_Dots_4.jpg,Green_Triangle_Chess_3.jpg,Blue_Plus_Dots_2.jpg,left,600.464999999851,false,high,NA,NA,NA,NA,NA,NA,NA,false
neSrdRyh,3r6rzgk0yip7nifkjif6ljfzh9ayv2,3efvcay5l7ml41m2gr8v82cv75j8jx,neSrdRyh,2020-0188,2020-11-21,18:00:00,18:24:21,NA,incomplete,129,filling,1,left,Blue_Plus_Grid_2.jpg,Purple_Star_Grid_3.jpg,Blue_Circle_Dots_1.jpg,right,579.7849999999162,false,high,NA,NA,NA,NA,NA,NA,NA,false
neSrdRyh,3r6rzgk0yip7nifkjif6ljfzh9ayv2,3efvcay5l7ml41m2gr8v82cv75j8jx,neSrdRyh,2020-0188,2020-11-21,18:00:00,18:24:21,NA,incomplete,130,filling,0,right,Red_Plus_Chess_4.jpg,Red_Circle_Grid_3.jpg,Green_Triangle_Chess_2.jpg,left,729.4200000001583,false,high,NA,NA,NA,NA,NA,NA,NA,false
neSrdRyh,3r6rzgk0yip7nifkjif6ljfzh9ayv2,3efvcay5l7ml41m2gr8v82cv75j8jx,neSrdRyh,2020-0188,2020-11-21,18:00:00,18:24:21,NA,incomplete,131,filling,1,right,Green_Circle_Dots_2.jpg,Green_Plus_Stripes_4.jpg,Red_Triangle_Dots_3.jpg,left,400.01000000024214,false,high,NA,NA,NA,NA,NA,NA,NA,false
neSrdRyh,3r6rzgk0yip7nifkjif6ljfzh9ayv2,3efvcay5l7ml41m2gr8v82cv75j8jx,neSrdRyh,2020-0188,2020-11-21,18:00:00,18:24:21,NA,incomplete,132,filling,1,left,Red_Triangle_Grid_3.jpg,Blue_Plus_Grid_1.jpg,Red_Circle_Stripes_4.jpg,right,544.9549999998417,false,high,NA,NA,NA,NA,NA,NA,NA,false
neSrdRyh,3r6rzgk0yip7nifkjif6ljfzh9ayv2,3efvcay5l7ml41m2gr8v82cv75j8jx,neSrdRyh,2020-0188,2020-11-21,18:00:00,18:24:21,NA,incomplete,133,filling,1,right,Purple_Star_Stripes_1.jpg,Purple_Triangle_Grid_2.jpg,Red_Plus_Stripes_4.jpg,left,615.195000000298,false,high,NA,NA,NA,NA,NA,NA,NA,false
neSrdRyh,3r6rzgk0yip7nifkjif6ljfzh9ayv2,3efvcay5l7ml41m2gr8v82cv75j8jx,neSrdRyh,2020-0188,2020-11-21,18:00:00,18:24:21,NA,incomplete,134,filling,1,right,Red_Circle_Dots_4.jpg,Red_Plus_Stripes_1.jpg,Green_Triangle_Dots_2.jpg,right,1001.8450000002049,true,high,NA,NA,NA,NA,NA,NA,NA,false
neSrdRyh,3r6rzgk0yip7nifkjif6ljfzh9ayv2,3efvcay5l7ml41m2gr8v82cv75j8jx,neSrdRyh,2020-0188,2020-11-21,18:00:00,18:24:21,NA,incomplete,135,filling,0,right,Blue_Plus_Stripes_2.jpg,Blue_Star_Dots_3.jpg,Green_Circle_Stripes_1.jpg,right,968.2800000000279,true,high,NA,NA,NA,NA,NA,NA,NA,false
neSrdRyh,3r6rzgk0yip7nifkjif6ljfzh9ayv2,3efvcay5l7ml41m2gr8v82cv75j8jx,neSrdRyh,2020-0188,2020-11-21,18:00:00,18:24:21,NA,incomplete,136,filling,1,left,Blue_Triangle_Dots_1.jpg,Purple_Circle_Dots_2.jpg,Blue_Star_Chess_3.jpg,right,464.32999999960884,false,high,NA,NA,NA,NA,NA,NA,NA,false
neSrdRyh,3r6rzgk0yip7nifkjif6ljfzh9ayv2,3efvcay5l7ml41m2gr8v82cv75j8jx,neSrdRyh,2020-0188,2020-11-21,18:00:00,18:24:21,NA,incomplete,137,filling,0,right,Blue_Triangle_Grid_3.jpg,Blue_Circle_Stripes_2.jpg,Green_Plus_Grid_4.jpg,right,1416.0249999999069,true,high,NA,NA,NA,NA,NA,NA,NA,false
neSrdRyh,3r6rzgk0yip7nifkjif6ljfzh9ayv2,3efvcay5l7ml41m2gr8v82cv75j8jx,neSrdRyh,2020-0188,2020-11-21,18:00:00,18:24:21,NA,incomplete,138,filling,1,right,Green_Circle_Dots_1.jpg,Green_Plus_Stripes_4.jpg,Purple_Triangle_Dots_3.jpg,left,518.8449999995064,false,high,NA,NA,NA,NA,NA,NA,NA,false
neSrdRyh,3r6rzgk0yip7nifkjif6ljfzh9ayv2,3efvcay5l7ml41m2gr8v82cv75j8jx,neSrdRyh,2020-0188,2020-11-21,18:00:00,18:24:21,NA,incomplete,139,filling,0,left,Red_Circle_Stripes_1.jpg,Blue_Triangle_Stripes_2.jpg,Red_Plus_Grid_3.jpg,right,293.10499999974854,false,high,NA,NA,NA,NA,NA,NA,NA,false
neSrdRyh,3r6rzgk0yip7nifkjif6ljfzh9ayv2,3efvcay5l7ml41m2gr8v82cv75j8jx,neSrdRyh,2020-0188,2020-11-21,18:00:00,18:24:21,NA,incomplete,140,color,1,left,Purple_Star_Grid_4.jpg,Purple_Circle_Chess_1.jpg,Blue_Plus_Grid_2.jpg,right,335.61000000010245,false,high,NA,NA,NA,NA,NA,NA,NA,false
neSrdRyh,3r6rzgk0yip7nifkjif6ljfzh9ayv2,3efvcay5l7ml41m2gr8v82cv75j8jx,neSrdRyh,2020-0188,2020-11-21,18:00:00,18:24:21,NA,incomplete,141,color,1,right,Purple_Triangle_Chess_2.jpg,Red_Star_Chess_4.jpg,Purple_Plus_Stripes_1.jpg,left,312.86500000045635,false,high,NA,NA,NA,NA,NA,NA,NA,false
neSrdRyh,3r6rzgk0yip7nifkjif6ljfzh9ayv2,3efvcay5l7ml41m2gr8v82cv75j8jx,neSrdRyh,2020-0188,2020-11-21,18:00:00,18:24:21,NA,incomplete,142,color,1,left,Blue_Circle_Chess_3.jpg,Blue_Triangle_Grid_1.jpg,Purple_Plus_Chess_2.jpg,right,950.625,false,high,NA,NA,NA,NA,NA,NA,NA,false
neSrdRyh,3r6rzgk0yip7nifkjif6ljfzh9ayv2,3efvcay5l7ml41m2gr8v82cv75j8jx,neSrdRyh,2020-0188,2020-11-21,18:00:00,18:24:21,NA,incomplete,143,color,1,left,Purple_Plus_Dots_4.jpg,Purple_Star_Chess_3.jpg,Green_Circle_Dots_1.jpg,right,1058.6149999999907,false,high,NA,NA,NA,NA,NA,NA,NA,false
neSrdRyh,3r6rzgk0yip7nifkjif6ljfzh9ayv2,3efvcay5l7ml41m2gr8v82cv75j8jx,neSrdRyh,2020-0188,2020-11-21,18:00:00,18:24:21,NA,incomplete,144,color,1,right,Red_Circle_Grid_4.jpg,Green_Star_Grid_3.jpg,Red_Plus_Dots_1.jpg,left,1098.625,false,high,NA,NA,NA,NA,NA,NA,NA,false
neSrdRyh,3r6rzgk0yip7nifkjif6ljfzh9ayv2,3efvcay5l7ml41m2gr8v82cv75j8jx,neSrdRyh,2020-0188,2020-11-21,18:00:00,18:24:21,NA,incomplete,145,color,1,left,Purple_Triangle_Stripes_3.jpg,Purple_Circle_Grid_4.jpg,Red_Plus_Stripes_1.jpg,left,1035.369999999879,true,high,NA,NA,NA,NA,NA,NA,NA,false
neSrdRyh,3r6rzgk0yip7nifkjif6ljfzh9ayv2,3efvcay5l7ml41m2gr8v82cv75j8jx,neSrdRyh,2020-0188,2020-11-21,18:00:00,18:24:21,NA,incomplete,146,color,1,left,Purple_Plus_Stripes_4.jpg,Purple_Star_Dots_1.jpg,Blue_Circle_Stripes_2.jpg,left,536.9749999998603,true,high,NA,NA,NA,NA,NA,NA,NA,false
neSrdRyh,3r6rzgk0yip7nifkjif6ljfzh9ayv2,3efvcay5l7ml41m2gr8v82cv75j8jx,neSrdRyh,2020-0188,2020-11-21,18:00:00,18:24:21,NA,incomplete,147,color,1,left,Blue_Triangle_Stripes_3.jpg,Blue_Circle_Grid_4.jpg,Purple_Plus_Stripes_1.jpg,left,518.8600000001024,true,high,NA,NA,NA,NA,NA,NA,NA,false
neSrdRyh,3r6rzgk0yip7nifkjif6ljfzh9ayv2,3efvcay5l7ml41m2gr8v82cv75j8jx,neSrdRyh,2020-0188,2020-11-21,18:00:00,18:24:21,NA,incomplete,148,color,1,right,Red_Circle_Grid_2.jpg,Blue_Star_Grid_4.jpg,Red_Plus_Dots_1.jpg,right,590.7450000001118,true,high,NA,NA,NA,NA,NA,NA,NA,false
neSrdRyh,3r6rzgk0yip7nifkjif6ljfzh9ayv2,3efvcay5l7ml41m2gr8v82cv75j8jx,neSrdRyh,2020-0188,2020-11-21,18:00:00,18:24:21,NA,incomplete,149,color,1,right,Green_Plus_Dots_2.jpg,Purple_Star_Dots_3.jpg,Green_Triangle_Grid_1.jpg,right,510.47999999974854,true,high,NA,NA,NA,NA,NA,NA,NA,false
neSrdRyh,3r6rzgk0yip7nifkjif6ljfzh9ayv2,3efvcay5l7ml41m2gr8v82cv75j8jx,neSrdRyh,2020-0188,2020-11-21,18:00:00,18:24:21,NA,incomplete,150,color,1,left,Blue_Plus_Chess_2.jpg,Blue_Star_Grid_3.jpg,Green_Triangle_Chess_1.jpg,left,659.0349999996834,true,high,NA,NA,NA,NA,NA,NA,NA,false
neSrdRyh,3r6rzgk0yip7nifkjif6ljfzh9ayv2,3efvcay5l7ml41m2gr8v82cv75j8jx,neSrdRyh,2020-0188,2020-11-21,18:00:00,18:24:21,NA,incomplete,151,color,1,left,Blue_Circle_Dots_2.jpg,Blue_Plus_Chess_4.jpg,Green_Star_Dots_1.jpg,left,754.875,true,high,NA,NA,NA,NA,NA,NA,NA,false
neSrdRyh,3r6rzgk0yip7nifkjif6ljfzh9ayv2,3efvcay5l7ml41m2gr8v82cv75j8jx,neSrdRyh,2020-0188,2020-11-21,18:00:00,18:24:21,NA,incomplete,152,color,1,right,Blue_Triangle_Grid_2.jpg,Green_Plus_Grid_3.jpg,Blue_Circle_Dots_4.jpg,right,573.6000000000931,true,high,NA,NA,NA,NA,NA,NA,NA,false
neSrdRyh,3r6rzgk0yip7nifkjif6ljfzh9ayv2,3efvcay5l7ml41m2gr8v82cv75j8jx,neSrdRyh,2020-0188,2020-11-21,18:00:00,18:24:21,NA,incomplete,153,color,0,right,Blue_Circle_Stripes_4.jpg,Red_Plus_Stripes_3.jpg,Blue_Star_Chess_1.jpg,right,666.6650000002701,true,high,NA,NA,NA,NA,NA,NA,NA,false
neSrdRyh,3r6rzgk0yip7nifkjif6ljfzh9ayv2,3efvcay5l7ml41m2gr8v82cv75j8jx,neSrdRyh,2020-0188,2020-11-21,18:00:00,18:24:21,NA,incomplete,154,color,1,right,Purple_Plus_Stripes_4.jpg,Green_Triangle_Stripes_2.jpg,Purple_Circle_Dots_1.jpg,left,899.7249999998603,false,high,NA,NA,NA,NA,NA,NA,NA,false
neSrdRyh,3r6rzgk0yip7nifkjif6ljfzh9ayv2,3efvcay5l7ml41m2gr8v82cv75j8jx,neSrdRyh,2020-0188,2020-11-21,18:00:00,18:24:21,NA,incomplete,155,color,0,right,Blue_Triangle_Grid_2.jpg,Green_Star_Grid_1.jpg,Blue_Circle_Stripes_3.jpg,right,498.9399999999441,true,high,NA,NA,NA,NA,NA,NA,NA,false
neSrdRyh,3r6rzgk0yip7nifkjif6ljfzh9ayv2,3efvcay5l7ml41m2gr8v82cv75j8jx,neSrdRyh,2020-0188,2020-11-21,18:00:00,18:24:21,NA,incomplete,156,color,1,left,Purple_Circle_Chess_2.jpg,Purple_Triangle_Grid_1.jpg,Red_Star_Chess_4.jpg,right,1022.934999999823,false,high,NA,NA,NA,NA,NA,NA,NA,false
neSrdRyh,3r6rzgk0yip7nifkjif6ljfzh9ayv2,3efvcay5l7ml41m2gr8v82cv75j8jx,neSrdRyh,2020-0188,2020-11-21,18:00:00,18:24:21,NA,incomplete,157,color,1,right,Green_Plus_Dots_3.jpg,Blue_Star_Dots_4.jpg,Green_Triangle_Stripes_1.jpg,right,690.5849999999627,true,high,NA,NA,NA,NA,NA,NA,NA,false
neSrdRyh,3r6rzgk0yip7nifkjif6ljfzh9ayv2,3efvcay5l7ml41m2gr8v82cv75j8jx,neSrdRyh,2020-0188,2020-11-21,18:00:00,18:24:21,NA,incomplete,158,color,1,right,Purple_Circle_Chess_4.jpg,Red_Star_Chess_1.jpg,Purple_Triangle_Stripes_2.jpg,right,521.6599999999162,true,high,NA,NA,NA,NA,NA,NA,NA,false
neSrdRyh,3r6rzgk0yip7nifkjif6ljfzh9ayv2,3efvcay5l7ml41m2gr8v82cv75j8jx,neSrdRyh,2020-0188,2020-11-21,18:00:00,18:24:21,NA,incomplete,159,color,1,right,Blue_Star_Stripes_3.jpg,Purple_Triangle_Stripes_4.jpg,Blue_Circle_Chess_2.jpg,right,484.51499999989755,true,high,NA,NA,NA,NA,NA,NA,NA,false
neSrdRyh,3r6rzgk0yip7nifkjif6ljfzh9ayv2,3efvcay5l7ml41m2gr8v82cv75j8jx,neSrdRyh,2020-0188,2020-11-21,18:00:00,18:24:21,NA,incomplete,160,filling,1,left,Blue_Star_Chess_1.jpg,Purple_Circle_Chess_4.jpg,Blue_Plus_Stripes_2.jpg,right,508.9399999997113,false,high,NA,NA,NA,NA,NA,NA,NA,false
neSrdRyh,3r6rzgk0yip7nifkjif6ljfzh9ayv2,3efvcay5l7ml41m2gr8v82cv75j8jx,neSrdRyh,2020-0188,2020-11-21,18:00:00,18:24:21,NA,incomplete,161,filling,0,left,Green_Plus_Chess_1.jpg,Purple_Circle_Chess_4.jpg,Green_Triangle_Dots_2.jpg,left,846.8350000001956,true,high,NA,NA,NA,NA,NA,NA,NA,false
neSrdRyh,3r6rzgk0yip7nifkjif6ljfzh9ayv2,3efvcay5l7ml41m2gr8v82cv75j8jx,neSrdRyh,2020-0188,2020-11-21,18:00:00,18:24:21,NA,incomplete,162,filling,1,left,Purple_Triangle_Dots_2.jpg,Green_Plus_Dots_3.jpg,Purple_Star_Chess_4.jpg,right,617.4200000001583,false,high,NA,NA,NA,NA,NA,NA,NA,false
neSrdRyh,3r6rzgk0yip7nifkjif6ljfzh9ayv2,3efvcay5l7ml41m2gr8v82cv75j8jx,neSrdRyh,2020-0188,2020-11-21,18:00:00,18:24:21,NA,incomplete,163,filling,1,right,Purple_Circle_Chess_4.jpg,Purple_Triangle_Grid_3.jpg,Green_Plus_Chess_1.jpg,left,434.0150000001304,false,high,NA,NA,NA,NA,NA,NA,NA,false
neSrdRyh,3r6rzgk0yip7nifkjif6ljfzh9ayv2,3efvcay5l7ml41m2gr8v82cv75j8jx,neSrdRyh,2020-0188,2020-11-21,18:00:00,18:24:21,NA,incomplete,164,filling,1,left,Red_Triangle_Dots_1.jpg,Purple_Plus_Dots_3.jpg,Red_Circle_Chess_2.jpg,left,969.7249999998603,true,high,NA,NA,NA,NA,NA,NA,NA,false
neSrdRyh,3r6rzgk0yip7nifkjif6ljfzh9ayv2,3efvcay5l7ml41m2gr8v82cv75j8jx,neSrdRyh,2020-0188,2020-11-21,18:00:00,18:24:21,NA,incomplete,165,filling,0,right,Red_Star_Chess_1.jpg,Red_Triangle_Stripes_2.jpg,Blue_Plus_Chess_3.jpg,right,801.5099999997765,true,high,NA,NA,NA,NA,NA,NA,NA,false
neSrdRyh,3r6rzgk0yip7nifkjif6ljfzh9ayv2,3efvcay5l7ml41m2gr8v82cv75j8jx,neSrdRyh,2020-0188,2020-11-21,18:00:00,18:24:21,NA,incomplete,166,filling,1,right,Green_Star_Grid_3.jpg,Green_Triangle_Chess_4.jpg,Blue_Plus_Grid_2.jpg,right,1227.6599999999162,true,high,NA,NA,NA,NA,NA,NA,NA,false
neSrdRyh,3r6rzgk0yip7nifkjif6ljfzh9ayv2,3efvcay5l7ml41m2gr8v82cv75j8jx,neSrdRyh,2020-0188,2020-11-21,18:00:00,18:24:21,NA,incomplete,167,filling,1,right,Blue_Circle_Grid_1.jpg,Blue_Plus_Chess_4.jpg,Green_Star_Grid_3.jpg,right,1028.3749999997672,true,high,NA,NA,NA,NA,NA,NA,NA,false
neSrdRyh,3r6rzgk0yip7nifkjif6ljfzh9ayv2,3efvcay5l7ml41m2gr8v82cv75j8jx,neSrdRyh,2020-0188,2020-11-21,18:00:00,18:24:21,NA,incomplete,168,filling,1,right,Green_Triangle_Chess_2.jpg,Green_Plus_Stripes_1.jpg,Purple_Circle_Chess_4.jpg,right,1095.0500000005122,true,high,NA,NA,NA,NA,NA,NA,NA,false
neSrdRyh,3r6rzgk0yip7nifkjif6ljfzh9ayv2,3efvcay5l7ml41m2gr8v82cv75j8jx,neSrdRyh,2020-0188,2020-11-21,18:00:00,18:24:21,NA,incomplete,169,filling,1,left,Green_Circle_Dots_4.jpg,Red_Triangle_Dots_3.jpg,Green_Star_Chess_2.jpg,left,853.5900000000838,true,high,NA,NA,NA,NA,NA,NA,NA,false
neSrdRyh,3r6rzgk0yip7nifkjif6ljfzh9ayv2,3efvcay5l7ml41m2gr8v82cv75j8jx,neSrdRyh,2020-0188,2020-11-21,18:00:00,18:24:21,NA,incomplete,170,filling,1,right,Purple_Star_Stripes_4.jpg,Purple_Triangle_Grid_3.jpg,Green_Plus_Stripes_2.jpg,right,1111.7700000000186,true,high,NA,NA,NA,NA,NA,NA,NA,false
neSrdRyh,3r6rzgk0yip7nifkjif6ljfzh9ayv2,3efvcay5l7ml41m2gr8v82cv75j8jx,neSrdRyh,2020-0188,2020-11-21,18:00:00,18:24:21,NA,incomplete,171,filling,0,left,Blue_Star_Dots_2.jpg,Red_Circle_Dots_3.jpg,Blue_Plus_Grid_4.jpg,left,860.0900000003166,true,high,NA,NA,NA,NA,NA,NA,NA,false
neSrdRyh,3r6rzgk0yip7nifkjif6ljfzh9ayv2,3efvcay5l7ml41m2gr8v82cv75j8jx,neSrdRyh,2020-0188,2020-11-21,18:00:00,18:24:21,NA,incomplete,172,filling,1,left,Blue_Triangle_Grid_1.jpg,Green_Star_Grid_3.jpg,Blue_Circle_Dots_2.jpg,left,1002.6150000002235,true,high,NA,NA,NA,NA,NA,NA,NA,false
neSrdRyh,3r6rzgk0yip7nifkjif6ljfzh9ayv2,3efvcay5l7ml41m2gr8v82cv75j8jx,neSrdRyh,2020-0188,2020-11-21,18:00:00,18:24:21,NA,incomplete,173,filling,1,left,Purple_Triangle_Chess_2.jpg,Green_Plus_Chess_3.jpg,Purple_Star_Dots_4.jpg,left,1013.4250000002794,true,high,NA,NA,NA,NA,NA,NA,NA,false
neSrdRyh,3r6rzgk0yip7nifkjif6ljfzh9ayv2,3efvcay5l7ml41m2gr8v82cv75j8jx,neSrdRyh,2020-0188,2020-11-21,18:00:00,18:24:21,NA,incomplete,174,filling,1,right,Green_Circle_Grid_1.jpg,Green_Star_Chess_3.jpg,Purple_Plus_Grid_2.jpg,right,976.5100000000093,true,high,NA,NA,NA,NA,NA,NA,NA,false
neSrdRyh,3r6rzgk0yip7nifkjif6ljfzh9ayv2,3efvcay5l7ml41m2gr8v82cv75j8jx,neSrdRyh,2020-0188,2020-11-21,18:00:00,18:24:21,NA,incomplete,175,filling,1,left,Green_Circle_Grid_4.jpg,Purple_Star_Grid_3.jpg,Green_Triangle_Dots_2.jpg,left,946.0349999999162,true,high,NA,NA,NA,NA,NA,NA,NA,false
neSrdRyh,3r6rzgk0yip7nifkjif6ljfzh9ayv2,3efvcay5l7ml41m2gr8v82cv75j8jx,neSrdRyh,2020-0188,2020-11-21,18:00:00,18:24:21,NA,incomplete,176,filling,1,left,Blue_Circle_Chess_1.jpg,Red_Plus_Chess_3.jpg,Blue_Star_Grid_2.jpg,left,891.4699999999721,true,high,NA,NA,NA,NA,NA,NA,NA,false
neSrdRyh,3r6rzgk0yip7nifkjif6ljfzh9ayv2,3efvcay5l7ml41m2gr8v82cv75j8jx,neSrdRyh,2020-0188,2020-11-21,18:00:00,18:24:21,NA,incomplete,177,filling,1,right,Purple_Circle_Stripes_2.jpg,Purple_Plus_Grid_3.jpg,Green_Triangle_Stripes_1.jpg,right,987.3349999999627,true,high,NA,NA,NA,NA,NA,NA,NA,false
neSrdRyh,3r6rzgk0yip7nifkjif6ljfzh9ayv2,3efvcay5l7ml41m2gr8v82cv75j8jx,neSrdRyh,2020-0188,2020-11-21,18:00:00,18:24:21,NA,incomplete,178,filling,1,left,Green_Plus_Stripes_3.jpg,Red_Triangle_Stripes_2.jpg,Green_Star_Chess_4.jpg,left,877.589999999851,true,high,NA,NA,NA,NA,NA,NA,NA,false
neSrdRyh,3r6rzgk0yip7nifkjif6ljfzh9ayv2,3efvcay5l7ml41m2gr8v82cv75j8jx,neSrdRyh,2020-0188,2020-11-21,18:00:00,18:24:21,NA,incomplete,179,filling,0,left,Purple_Plus_Stripes_3.jpg,Green_Star_Stripes_1.jpg,Purple_Triangle_Grid_4.jpg,left,992.2050000000745,true,high,NA,NA,NA,NA,NA,NA,NA,false
neSrdRyh,3r6rzgk0yip7nifkjif6ljfzh9ayv2,3efvcay5l7ml41m2gr8v82cv75j8jx,neSrdRyh,2020-0188,2020-11-21,18:00:00,18:24:21,NA,incomplete,180,color,1,left,Purple_Plus_Dots_2.jpg,Purple_Circle_Grid_3.jpg,Red_Triangle_Dots_4.jpg,left,906.1850000002887,true,high,NA,NA,NA,NA,NA,NA,NA,false
neSrdRyh,3r6rzgk0yip7nifkjif6ljfzh9ayv2,3efvcay5l7ml41m2gr8v82cv75j8jx,neSrdRyh,2020-0188,2020-11-21,18:00:00,18:24:21,NA,incomplete,181,color,1,left,Green_Circle_Grid_3.jpg,Green_Plus_Chess_1.jpg,Purple_Triangle_Grid_4.jpg,right,931.2050000005402,false,high,NA,NA,NA,NA,NA,NA,NA,false
neSrdRyh,3r6rzgk0yip7nifkjif6ljfzh9ayv2,3efvcay5l7ml41m2gr8v82cv75j8jx,neSrdRyh,2020-0188,2020-11-21,18:00:00,18:24:21,NA,incomplete,182,color,1,right,Red_Circle_Stripes_1.jpg,Blue_Triangle_Stripes_3.jpg,Red_Star_Grid_2.jpg,right,673.2449999998789,true,high,NA,NA,NA,NA,NA,NA,NA,false
neSrdRyh,3r6rzgk0yip7nifkjif6ljfzh9ayv2,3efvcay5l7ml41m2gr8v82cv75j8jx,neSrdRyh,2020-0188,2020-11-21,18:00:00,18:24:21,NA,incomplete,183,color,1,right,Red_Circle_Grid_1.jpg,Green_Triangle_Grid_3.jpg,Red_Plus_Stripes_4.jpg,right,1521.494999999879,true,high,NA,NA,NA,NA,NA,NA,NA,false
neSrdRyh,3r6rzgk0yip7nifkjif6ljfzh9ayv2,3efvcay5l7ml41m2gr8v82cv75j8jx,neSrdRyh,2020-0188,2020-11-21,18:00:00,18:24:21,NA,incomplete,184,color,1,left,Purple_Plus_Dots_2.jpg,Purple_Triangle_Grid_3.jpg,Green_Star_Dots_4.jpg,left,503.37499999976717,true,high,NA,NA,NA,NA,NA,NA,NA,false
neSrdRyh,3r6rzgk0yip7nifkjif6ljfzh9ayv2,3efvcay5l7ml41m2gr8v82cv75j8jx,neSrdRyh,2020-0188,2020-11-21,18:00:00,18:24:21,NA,incomplete,185,color,1,left,Purple_Circle_Chess_1.jpg,Purple_Star_Dots_3.jpg,Red_Plus_Chess_2.jpg,left,635.0800000000745,true,high,NA,NA,NA,NA,NA,NA,NA,false
neSrdRyh,3r6rzgk0yip7nifkjif6ljfzh9ayv2,3efvcay5l7ml41m2gr8v82cv75j8jx,neSrdRyh,2020-0188,2020-11-21,18:00:00,18:24:21,NA,incomplete,186,color,1,left,Purple_Plus_Grid_3.jpg,Purple_Star_Dots_4.jpg,Red_Circle_Grid_2.jpg,left,597.3950000002515,true,high,NA,NA,NA,NA,NA,NA,NA,false
neSrdRyh,3r6rzgk0yip7nifkjif6ljfzh9ayv2,3efvcay5l7ml41m2gr8v82cv75j8jx,neSrdRyh,2020-0188,2020-11-21,18:00:00,18:24:21,NA,incomplete,187,color,1,left,Red_Star_Grid_4.jpg,Red_Triangle_Dots_2.jpg,Purple_Plus_Grid_1.jpg,left,593.2200000002049,true,high,NA,NA,NA,NA,NA,NA,NA,false
neSrdRyh,3r6rzgk0yip7nifkjif6ljfzh9ayv2,3efvcay5l7ml41m2gr8v82cv75j8jx,neSrdRyh,2020-0188,2020-11-21,18:00:00,18:24:21,NA,incomplete,188,color,1,left,Blue_Triangle_Grid_1.jpg,Blue_Circle_Stripes_4.jpg,Green_Plus_Grid_3.jpg,left,495.09000000031665,true,high,NA,NA,NA,NA,NA,NA,NA,false
neSrdRyh,3r6rzgk0yip7nifkjif6ljfzh9ayv2,3efvcay5l7ml41m2gr8v82cv75j8jx,neSrdRyh,2020-0188,2020-11-21,18:00:00,18:24:21,NA,incomplete,189,color,0,right,Red_Star_Chess_3.jpg,Blue_Triangle_Chess_1.jpg,Red_Circle_Grid_2.jpg,right,553.9799999999814,true,high,NA,NA,NA,NA,NA,NA,NA,false
neSrdRyh,3r6rzgk0yip7nifkjif6ljfzh9ayv2,3efvcay5l7ml41m2gr8v82cv75j8jx,neSrdRyh,2020-0188,2020-11-21,18:00:00,18:24:21,NA,incomplete,190,color,1,right,Green_Circle_Grid_3.jpg,Red_Plus_Grid_4.jpg,Green_Star_Dots_1.jpg,right,742.4350000000559,true,high,NA,NA,NA,NA,NA,NA,NA,false
neSrdRyh,3r6rzgk0yip7nifkjif6ljfzh9ayv2,3efvcay5l7ml41m2gr8v82cv75j8jx,neSrdRyh,2020-0188,2020-11-21,18:00:00,18:24:21,NA,incomplete,191,color,0,right,Blue_Plus_Chess_2.jpg,Green_Circle_Chess_3.jpg,Blue_Triangle_Dots_1.jpg,right,514.4199999999255,true,high,NA,NA,NA,NA,NA,NA,NA,false
neSrdRyh,3r6rzgk0yip7nifkjif6ljfzh9ayv2,3efvcay5l7ml41m2gr8v82cv75j8jx,neSrdRyh,2020-0188,2020-11-21,18:00:00,18:24:21,NA,incomplete,192,color,1,left,Blue_Triangle_Stripes_2.jpg,Blue_Circle_Grid_1.jpg,Green_Plus_Stripes_4.jpg,left,570.5900000003166,true,high,NA,NA,NA,NA,NA,NA,NA,false
neSrdRyh,3r6rzgk0yip7nifkjif6ljfzh9ayv2,3efvcay5l7ml41m2gr8v82cv75j8jx,neSrdRyh,2020-0188,2020-11-21,18:00:00,18:24:21,NA,incomplete,193,color,1,right,Green_Triangle_Stripes_3.jpg,Red_Circle_Stripes_1.jpg,Green_Star_Chess_2.jpg,right,532.809999999823,true,high,NA,NA,NA,NA,NA,NA,NA,false
neSrdRyh,3r6rzgk0yip7nifkjif6ljfzh9ayv2,3efvcay5l7ml41m2gr8v82cv75j8jx,neSrdRyh,2020-0188,2020-11-21,18:00:00,18:24:21,NA,incomplete,194,color,1,right,Green_Plus_Dots_2.jpg,Red_Triangle_Dots_4.jpg,Green_Star_Grid_3.jpg,right,476.76499999989755,true,high,NA,NA,NA,NA,NA,NA,NA,false
neSrdRyh,3r6rzgk0yip7nifkjif6ljfzh9ayv2,3efvcay5l7ml41m2gr8v82cv75j8jx,neSrdRyh,2020-0188,2020-11-21,18:00:00,18:24:21,NA,incomplete,195,color,1,left,Red_Circle_Stripes_4.jpg,Red_Triangle_Dots_3.jpg,Green_Star_Stripes_2.jpg,left,729.809999999823,true,high,NA,NA,NA,NA,NA,NA,NA,false
neSrdRyh,3r6rzgk0yip7nifkjif6ljfzh9ayv2,3efvcay5l7ml41m2gr8v82cv75j8jx,neSrdRyh,2020-0188,2020-11-21,18:00:00,18:24:21,NA,incomplete,196,color,1,right,Red_Star_Grid_3.jpg,Blue_Plus_Grid_4.jpg,Red_Circle_Dots_2.jpg,right,612.9550000000745,true,high,NA,NA,NA,NA,NA,NA,NA,false
neSrdRyh,3r6rzgk0yip7nifkjif6ljfzh9ayv2,3efvcay5l7ml41m2gr8v82cv75j8jx,neSrdRyh,2020-0188,2020-11-21,18:00:00,18:24:21,NA,incomplete,197,color,1,right,Red_Triangle_Grid_1.jpg,Green_Circle_Grid_2.jpg,Red_Plus_Chess_4.jpg,right,455.85000000032596,true,high,NA,NA,NA,NA,NA,NA,NA,false
neSrdRyh,3r6rzgk0yip7nifkjif6ljfzh9ayv2,3efvcay5l7ml41m2gr8v82cv75j8jx,neSrdRyh,2020-0188,2020-11-21,18:00:00,18:24:21,NA,incomplete,198,color,1,left,Red_Plus_Grid_3.jpg,Red_Circle_Dots_4.jpg,Purple_Triangle_Grid_1.jpg,left,621.0900000000838,true,high,NA,NA,NA,NA,NA,NA,NA,false
neSrdRyh,3r6rzgk0yip7nifkjif6ljfzh9ayv2,3efvcay5l7ml41m2gr8v82cv75j8jx,neSrdRyh,2020-0188,2020-11-21,18:00:00,18:24:21,NA,incomplete,199,color,1,right,Green_Circle_Chess_3.jpg,Red_Triangle_Chess_1.jpg,Green_Plus_Grid_4.jpg,right,531.0700000000652,true,high,NA,NA,NA,NA,NA,NA,NA,false
neSrdRyh,3r6rzgk0yip7nifkjif6ljfzh9ayv2,3efvcay5l7ml41m2gr8v82cv75j8jx,neSrdRyh,2020-0188,2020-11-21,18:00:00,18:24:21,NA,incomplete,200,filling,1,left,Green_Star_Chess_3.jpg,Purple_Plus_Chess_1.jpg,Green_Triangle_Grid_4.jpg,right,601.0949999999721,false,high,NA,NA,NA,NA,NA,NA,NA,false
neSrdRyh,3r6rzgk0yip7nifkjif6ljfzh9ayv2,3efvcay5l7ml41m2gr8v82cv75j8jx,neSrdRyh,2020-0188,2020-11-21,18:00:00,18:24:21,NA,incomplete,201,filling,1,right,Purple_Circle_Stripes_1.jpg,Purple_Star_Dots_4.jpg,Green_Triangle_Stripes_3.jpg,right,791.4200000001583,true,high,NA,NA,NA,NA,NA,NA,NA,false
neSrdRyh,3r6rzgk0yip7nifkjif6ljfzh9ayv2,3efvcay5l7ml41m2gr8v82cv75j8jx,neSrdRyh,2020-0188,2020-11-21,18:00:00,18:24:21,NA,incomplete,202,filling,1,right,Purple_Plus_Grid_3.jpg,Purple_Star_Dots_2.jpg,Green_Triangle_Grid_1.jpg,right,1026.0300000004936,true,high,NA,NA,NA,NA,NA,NA,NA,false
neSrdRyh,3r6rzgk0yip7nifkjif6ljfzh9ayv2,3efvcay5l7ml41m2gr8v82cv75j8jx,neSrdRyh,2020-0188,2020-11-21,18:00:00,18:24:21,NA,incomplete,203,filling,1,right,Blue_Plus_Dots_3.jpg,Blue_Triangle_Grid_1.jpg,Purple_Circle_Dots_2.jpg,right,1042.725000000326,true,high,NA,NA,NA,NA,NA,NA,NA,false
neSrdRyh,3r6rzgk0yip7nifkjif6ljfzh9ayv2,3efvcay5l7ml41m2gr8v82cv75j8jx,neSrdRyh,2020-0188,2020-11-21,18:00:00,18:24:21,NA,incomplete,204,filling,0,right,Purple_Triangle_Grid_4.jpg,Purple_Circle_Dots_3.jpg,Red_Plus_Grid_1.jpg,right,931.5200000000186,true,high,NA,NA,NA,NA,NA,NA,NA,false
neSrdRyh,3r6rzgk0yip7nifkjif6ljfzh9ayv2,3efvcay5l7ml41m2gr8v82cv75j8jx,neSrdRyh,2020-0188,2020-11-21,18:00:00,18:24:21,NA,incomplete,205,filling,1,left,Red_Plus_Grid_3.jpg,Green_Circle_Grid_2.jpg,Red_Star_Dots_1.jpg,right,594.4499999999534,false,high,NA,NA,NA,NA,NA,NA,NA,false
neSrdRyh,3r6rzgk0yip7nifkjif6ljfzh9ayv2,3efvcay5l7ml41m2gr8v82cv75j8jx,neSrdRyh,2020-0188,2020-11-21,18:00:00,18:24:21,NA,incomplete,206,filling,0,left,Purple_Triangle_Stripes_2.jpg,Blue_Plus_Stripes_3.jpg,Purple_Circle_Dots_1.jpg,left,711.7349999998696,true,high,NA,NA,NA,NA,NA,NA,NA,false
neSrdRyh,3r6rzgk0yip7nifkjif6ljfzh9ayv2,3efvcay5l7ml41m2gr8v82cv75j8jx,neSrdRyh,2020-0188,2020-11-21,18:00:00,18:24:21,NA,incomplete,207,filling,1,right,Purple_Star_Stripes_1.jpg,Purple_Plus_Grid_4.jpg,Blue_Triangle_Stripes_3.jpg,left,656.4099999999162,false,high,NA,NA,NA,NA,NA,NA,NA,false
neSrdRyh,3r6rzgk0yip7nifkjif6ljfzh9ayv2,3efvcay5l7ml41m2gr8v82cv75j8jx,neSrdRyh,2020-0188,2020-11-21,18:00:00,18:24:21,NA,incomplete,208,filling,0,right,Blue_Circle_Stripes_4.jpg,Blue_Star_Grid_2.jpg,Green_Plus_Stripes_3.jpg,right,1160.9200000003912,true,high,NA,NA,NA,NA,NA,NA,NA,false
neSrdRyh,3r6rzgk0yip7nifkjif6ljfzh9ayv2,3efvcay5l7ml41m2gr8v82cv75j8jx,neSrdRyh,2020-0188,2020-11-21,18:00:00,18:24:21,NA,incomplete,209,filling,1,left,Purple_Star_Dots_2.jpg,Blue_Circle_Dots_1.jpg,Purple_Triangle_Stripes_3.jpg,right,576.5500000000466,false,high,NA,NA,NA,NA,NA,NA,NA,false
neSrdRyh,3r6rzgk0yip7nifkjif6ljfzh9ayv2,3efvcay5l7ml41m2gr8v82cv75j8jx,neSrdRyh,2020-0188,2020-11-21,18:00:00,18:24:21,NA,incomplete,210,filling,1,right,Red_Circle_Stripes_3.jpg,Red_Triangle_Dots_2.jpg,Purple_Star_Stripes_1.jpg,left,637.3699999998789,false,high,NA,NA,NA,NA,NA,NA,NA,false
neSrdRyh,3r6rzgk0yip7nifkjif6ljfzh9ayv2,3efvcay5l7ml41m2gr8v82cv75j8jx,neSrdRyh,2020-0188,2020-11-21,18:00:00,18:24:21,NA,incomplete,211,filling,1,right,Red_Triangle_Dots_1.jpg,Red_Circle_Grid_4.jpg,Blue_Star_Dots_2.jpg,right,916.1199999998789,true,high,NA,NA,NA,NA,NA,NA,NA,false
neSrdRyh,3r6rzgk0yip7nifkjif6ljfzh9ayv2,3efvcay5l7ml41m2gr8v82cv75j8jx,neSrdRyh,2020-0188,2020-11-21,18:00:00,18:24:21,NA,incomplete,212,filling,1,right,Blue_Star_Grid_4.jpg,Blue_Plus_Stripes_3.jpg,Red_Circle_Grid_2.jpg,left,1009.785000000149,false,high,NA,NA,NA,NA,NA,NA,NA,false
neSrdRyh,3r6rzgk0yip7nifkjif6ljfzh9ayv2,3efvcay5l7ml41m2gr8v82cv75j8jx,neSrdRyh,2020-0188,2020-11-21,18:00:00,18:24:21,NA,incomplete,213,filling,0,right,Purple_Circle_Dots_4.jpg,Purple_Triangle_Stripes_2.jpg,Green_Plus_Dots_1.jpg,right,981.5300000000279,true,high,NA,NA,NA,NA,NA,NA,NA,false
neSrdRyh,3r6rzgk0yip7nifkjif6ljfzh9ayv2,3efvcay5l7ml41m2gr8v82cv75j8jx,neSrdRyh,2020-0188,2020-11-21,18:00:00,18:24:21,NA,incomplete,214,filling,1,left,Red_Star_Chess_4.jpg,Purple_Triangle_Chess_2.jpg,Red_Plus_Stripes_1.jpg,right,612.2399999999907,false,high,NA,NA,NA,NA,NA,NA,NA,false
neSrdRyh,3r6rzgk0yip7nifkjif6ljfzh9ayv2,3efvcay5l7ml41m2gr8v82cv75j8jx,neSrdRyh,2020-0188,2020-11-21,18:00:00,18:24:21,NA,incomplete,215,filling,1,right,Green_Plus_Grid_2.jpg,Green_Triangle_Dots_1.jpg,Blue_Circle_Grid_4.jpg,right,987.3550000002142,true,high,NA,NA,NA,NA,NA,NA,NA,false
neSrdRyh,3r6rzgk0yip7nifkjif6ljfzh9ayv2,3efvcay5l7ml41m2gr8v82cv75j8jx,neSrdRyh,2020-0188,2020-11-21,18:00:00,18:24:21,NA,incomplete,216,filling,0,left,Red_Triangle_Dots_4.jpg,Green_Circle_Dots_3.jpg,Red_Star_Stripes_1.jpg,left,761.7399999999907,true,high,NA,NA,NA,NA,NA,NA,NA,false
neSrdRyh,3r6rzgk0yip7nifkjif6ljfzh9ayv2,3efvcay5l7ml41m2gr8v82cv75j8jx,neSrdRyh,2020-0188,2020-11-21,18:00:00,18:24:21,NA,incomplete,217,filling,1,right,Purple_Circle_Stripes_4.jpg,Purple_Triangle_Chess_3.jpg,Green_Star_Stripes_1.jpg,left,1448.9399999997113,false,high,NA,NA,NA,NA,NA,NA,NA,false
neSrdRyh,3r6rzgk0yip7nifkjif6ljfzh9ayv2,3efvcay5l7ml41m2gr8v82cv75j8jx,neSrdRyh,2020-0188,2020-11-21,18:00:00,18:24:21,NA,incomplete,218,filling,1,right,Green_Plus_Grid_2.jpg,Green_Triangle_Stripes_4.jpg,Purple_Star_Grid_3.jpg,right,1087.9399999999441,true,high,NA,NA,NA,NA,NA,NA,NA,false
neSrdRyh,3r6rzgk0yip7nifkjif6ljfzh9ayv2,3efvcay5l7ml41m2gr8v82cv75j8jx,neSrdRyh,2020-0188,2020-11-21,18:00:00,18:24:21,NA,incomplete,219,filling,0,left,Red_Star_Chess_3.jpg,Green_Plus_Chess_2.jpg,Red_Triangle_Dots_4.jpg,left,891.1750000002794,true,high,NA,NA,NA,NA,NA,NA,NA,false
neSrdRyh,3r6rzgk0yip7nifkjif6ljfzh9ayv2,3efvcay5l7ml41m2gr8v82cv75j8jx,neSrdRyh,2020-0188,2020-11-21,18:00:00,18:24:21,NA,incomplete,220,color,1,right,Blue_Circle_Grid_1.jpg,Green_Star_Grid_4.jpg,Blue_Plus_Stripes_3.jpg,right,638.625,true,high,NA,NA,NA,NA,NA,NA,NA,false
neSrdRyh,3r6rzgk0yip7nifkjif6ljfzh9ayv2,3efvcay5l7ml41m2gr8v82cv75j8jx,neSrdRyh,2020-0188,2020-11-21,18:00:00,18:24:21,NA,incomplete,221,color,1,right,Green_Circle_Stripes_3.jpg,Purple_Triangle_Stripes_2.jpg,Green_Plus_Chess_4.jpg,right,959.1850000002887,true,high,NA,NA,NA,NA,NA,NA,NA,false
neSrdRyh,3r6rzgk0yip7nifkjif6ljfzh9ayv2,3efvcay5l7ml41m2gr8v82cv75j8jx,neSrdRyh,2020-0188,2020-11-21,18:00:00,18:24:21,NA,incomplete,222,color,1,left,Blue_Circle_Chess_3.jpg,Blue_Plus_Dots_4.jpg,Purple_Star_Chess_1.jpg,left,643.3049999999348,true,high,NA,NA,NA,NA,NA,NA,NA,false
neSrdRyh,3r6rzgk0yip7nifkjif6ljfzh9ayv2,3efvcay5l7ml41m2gr8v82cv75j8jx,neSrdRyh,2020-0188,2020-11-21,18:00:00,18:24:21,NA,incomplete,223,color,1,right,Purple_Star_Stripes_2.jpg,Blue_Circle_Stripes_4.jpg,Purple_Plus_Chess_1.jpg,right,697.1300000001211,true,high,NA,NA,NA,NA,NA,NA,NA,false
neSrdRyh,3r6rzgk0yip7nifkjif6ljfzh9ayv2,3efvcay5l7ml41m2gr8v82cv75j8jx,neSrdRyh,2020-0188,2020-11-21,18:00:00,18:24:21,NA,incomplete,224,color,0,right,Purple_Plus_Stripes_1.jpg,Red_Star_Stripes_2.jpg,Purple_Circle_Grid_4.jpg,right,590.3900000003632,true,high,NA,NA,NA,NA,NA,NA,NA,false
neSrdRyh,3r6rzgk0yip7nifkjif6ljfzh9ayv2,3efvcay5l7ml41m2gr8v82cv75j8jx,neSrdRyh,2020-0188,2020-11-21,18:00:00,18:24:21,NA,incomplete,225,color,1,right,Blue_Circle_Chess_1.jpg,Purple_Plus_Chess_4.jpg,Blue_Triangle_Dots_2.jpg,left,830.2800000002608,false,high,NA,NA,NA,NA,NA,NA,NA,false
neSrdRyh,3r6rzgk0yip7nifkjif6ljfzh9ayv2,3efvcay5l7ml41m2gr8v82cv75j8jx,neSrdRyh,2020-0188,2020-11-21,18:00:00,18:24:21,NA,incomplete,226,color,1,left,Blue_Circle_Chess_4.jpg,Blue_Triangle_Grid_1.jpg,Green_Plus_Chess_2.jpg,left,784.6300000001211,true,high,NA,NA,NA,NA,NA,NA,NA,false
neSrdRyh,3r6rzgk0yip7nifkjif6ljfzh9ayv2,3efvcay5l7ml41m2gr8v82cv75j8jx,neSrdRyh,2020-0188,2020-11-21,18:00:00,18:24:21,NA,incomplete,227,color,0,left,Red_Plus_Grid_4.jpg,Red_Triangle_Chess_3.jpg,Blue_Circle_Grid_1.jpg,left,673.7550000003539,true,high,NA,NA,NA,NA,NA,NA,NA,false
neSrdRyh,3r6rzgk0yip7nifkjif6ljfzh9ayv2,3efvcay5l7ml41m2gr8v82cv75j8jx,neSrdRyh,2020-0188,2020-11-21,18:00:00,18:24:21,NA,incomplete,228,color,1,left,Purple_Triangle_Grid_4.jpg,Purple_Circle_Dots_1.jpg,Blue_Plus_Grid_2.jpg,left,723.5299999995623,true,high,NA,NA,NA,NA,NA,NA,NA,false
neSrdRyh,3r6rzgk0yip7nifkjif6ljfzh9ayv2,3efvcay5l7ml41m2gr8v82cv75j8jx,neSrdRyh,2020-0188,2020-11-21,18:00:00,18:24:21,NA,incomplete,229,color,1,right,Blue_Plus_Chess_3.jpg,Red_Circle_Chess_2.jpg,Blue_Star_Stripes_4.jpg,right,602.0500000005122,true,high,NA,NA,NA,NA,NA,NA,NA,false
neSrdRyh,3r6rzgk0yip7nifkjif6ljfzh9ayv2,3efvcay5l7ml41m2gr8v82cv75j8jx,neSrdRyh,2020-0188,2020-11-21,18:00:00,18:24:21,NA,incomplete,230,color,1,left,Green_Circle_Stripes_2.jpg,Green_Star_Grid_1.jpg,Blue_Plus_Stripes_4.jpg,left,568.5,true,high,NA,NA,NA,NA,NA,NA,NA,false
neSrdRyh,3r6rzgk0yip7nifkjif6ljfzh9ayv2,3efvcay5l7ml41m2gr8v82cv75j8jx,neSrdRyh,2020-0188,2020-11-21,18:00:00,18:24:21,NA,incomplete,231,color,1,left,Blue_Plus_Stripes_4.jpg,Blue_Circle_Grid_3.jpg,Red_Triangle_Stripes_2.jpg,left,451.58999999961816,true,high,NA,NA,NA,NA,NA,NA,NA,false
neSrdRyh,3r6rzgk0yip7nifkjif6ljfzh9ayv2,3efvcay5l7ml41m2gr8v82cv75j8jx,neSrdRyh,2020-0188,2020-11-21,18:00:00,18:24:21,NA,incomplete,232,color,1,left,Red_Triangle_Grid_4.jpg,Red_Star_Stripes_3.jpg,Green_Circle_Grid_2.jpg,left,589.309999999823,true,high,NA,NA,NA,NA,NA,NA,NA,false
neSrdRyh,3r6rzgk0yip7nifkjif6ljfzh9ayv2,3efvcay5l7ml41m2gr8v82cv75j8jx,neSrdRyh,2020-0188,2020-11-21,18:00:00,18:24:21,NA,incomplete,233,color,0,right,Blue_Plus_Dots_2.jpg,Green_Circle_Dots_3.jpg,Blue_Triangle_Grid_4.jpg,right,608.0499999998137,true,high,NA,NA,NA,NA,NA,NA,NA,false
neSrdRyh,3r6rzgk0yip7nifkjif6ljfzh9ayv2,3efvcay5l7ml41m2gr8v82cv75j8jx,neSrdRyh,2020-0188,2020-11-21,18:00:00,18:24:21,NA,incomplete,234,color,1,left,Red_Circle_Grid_4.jpg,Red_Star_Dots_2.jpg,Blue_Plus_Grid_1.jpg,right,929.9300000001676,false,high,NA,NA,NA,NA,NA,NA,NA,false
neSrdRyh,3r6rzgk0yip7nifkjif6ljfzh9ayv2,3efvcay5l7ml41m2gr8v82cv75j8jx,neSrdRyh,2020-0188,2020-11-21,18:00:00,18:24:21,NA,incomplete,235,color,1,right,Blue_Triangle_Stripes_4.jpg,Purple_Star_Stripes_2.jpg,Blue_Circle_Grid_3.jpg,right,584.3650000002235,true,high,NA,NA,NA,NA,NA,NA,NA,false
neSrdRyh,3r6rzgk0yip7nifkjif6ljfzh9ayv2,3efvcay5l7ml41m2gr8v82cv75j8jx,neSrdRyh,2020-0188,2020-11-21,18:00:00,18:24:21,NA,incomplete,236,color,1,right,Red_Triangle_Grid_2.jpg,Purple_Star_Grid_3.jpg,Red_Plus_Dots_4.jpg,right,586.4300000001676,true,high,NA,NA,NA,NA,NA,NA,NA,false
neSrdRyh,3r6rzgk0yip7nifkjif6ljfzh9ayv2,3efvcay5l7ml41m2gr8v82cv75j8jx,neSrdRyh,2020-0188,2020-11-21,18:00:00,18:24:21,NA,incomplete,237,color,1,left,Purple_Triangle_Stripes_4.jpg,Purple_Circle_Dots_1.jpg,Red_Plus_Stripes_3.jpg,left,647.2749999999069,true,high,NA,NA,NA,NA,NA,NA,NA,false
neSrdRyh,3r6rzgk0yip7nifkjif6ljfzh9ayv2,3efvcay5l7ml41m2gr8v82cv75j8jx,neSrdRyh,2020-0188,2020-11-21,18:00:00,18:24:21,NA,incomplete,238,color,1,left,Green_Circle_Dots_4.jpg,Green_Triangle_Stripes_2.jpg,Red_Plus_Dots_1.jpg,left,739.4549999998417,true,high,NA,NA,NA,NA,NA,NA,NA,false
neSrdRyh,3r6rzgk0yip7nifkjif6ljfzh9ayv2,3efvcay5l7ml41m2gr8v82cv75j8jx,neSrdRyh,2020-0188,2020-11-21,18:00:00,18:24:21,NA,incomplete,239,color,1,right,Red_Triangle_Dots_3.jpg,Purple_Plus_Dots_1.jpg,Red_Star_Grid_2.jpg,right,466.17500000004657,true,high,NA,NA,NA,NA,NA,NA,NA,false
neSrdRyh,3r6rzgk0yip7nifkjif6ljfzh9ayv2,3efvcay5l7ml41m2gr8v82cv75j8jx,neSrdRyh,2020-0188,2020-11-21,18:00:00,18:24:21,1394919.8099999998,1461356.085,NA,NA,NA,NA,NA,NA,NA,NA,NA,NA,NA,45,White/Caucasian,Male,White/Caucasian,no,yes,no,undefined
