workerId,hitId,assignmentId,subject,studyid,exp_date,exp_start,exp_end,time_start,time_end,trial,type,reward_validity,answer,image_top,image_left,image_right,response,response_time,response_acc,volatility,age,race,gender,ethnicity,color,vision,neuro,practice
nAlmlGiz,33ixyhizc8v0km0rv7j1cbq82t9e2g,3f6hpjw4jhdwo6kc79i9n1t0lnm2wb,nAlmlGiz,2020-0188,2020-11-11,01:05:48,01:51:33,NA,incomplete,0,filling,1,left,Blue_Circle_Dots_4.jpg,Purple_Plus_Dots_1.jpg,Red_Star_Chess_4.jpg,left,971.0800000028685,true,NA,NA,NA,NA,NA,NA,NA,NA,true
nAlmlGiz,33ixyhizc8v0km0rv7j1cbq82t9e2g,3f6hpjw4jhdwo6kc79i9n1t0lnm2wb,nAlmlGiz,2020-0188,2020-11-11,01:05:48,01:51:33,NA,incomplete,1,filling,1,right,Blue_Circle_Dots_1.jpg,Red_Plus_Chess_1.jpg,Green_Triangle_Dots_4.jpg,left,1013.0199999983888,false,NA,NA,NA,NA,NA,NA,NA,NA,true
nAlmlGiz,33ixyhizc8v0km0rv7j1cbq82t9e2g,3f6hpjw4jhdwo6kc79i9n1t0lnm2wb,nAlmlGiz,2020-0188,2020-11-11,01:05:48,01:51:33,NA,incomplete,2,filling,1,right,Blue_Star_Dots_3.jpg,Purple_Triangle_Stripes_3.jpg,Green_Plus_Dots_1.jpg,right,898.4849999977741,true,NA,NA,NA,NA,NA,NA,NA,NA,true
nAlmlGiz,33ixyhizc8v0km0rv7j1cbq82t9e2g,3f6hpjw4jhdwo6kc79i9n1t0lnm2wb,nAlmlGiz,2020-0188,2020-11-11,01:05:48,01:51:33,NA,incomplete,3,filling,1,right,Blue_Star_Chess_4.jpg,Purple_Triangle_Dots_4.jpg,Green_Plus_Chess_2.jpg,right,1226.2199999967124,true,NA,NA,NA,NA,NA,NA,NA,NA,true
nAlmlGiz,33ixyhizc8v0km0rv7j1cbq82t9e2g,3f6hpjw4jhdwo6kc79i9n1t0lnm2wb,nAlmlGiz,2020-0188,2020-11-11,01:05:48,01:51:33,NA,incomplete,4,filling,1,right,Blue_Star_Stripes_3.jpg,Purple_Triangle_Dots_3.jpg,Green_Circle_Stripes_4.jpg,right,884.9900000058115,true,NA,NA,NA,NA,NA,NA,NA,NA,true
nAlmlGiz,33ixyhizc8v0km0rv7j1cbq82t9e2g,3f6hpjw4jhdwo6kc79i9n1t0lnm2wb,nAlmlGiz,2020-0188,2020-11-11,01:05:48,01:51:33,NA,incomplete,5,filling,0,right,Red_Star_Stripes_1.jpg,Purple_Triangle_Chess_1.jpg,Blue_Plus_Stripes_2.jpg,right,963.014999993844,true,NA,NA,NA,NA,NA,NA,NA,NA,true
nAlmlGiz,33ixyhizc8v0km0rv7j1cbq82t9e2g,3f6hpjw4jhdwo6kc79i9n1t0lnm2wb,nAlmlGiz,2020-0188,2020-11-11,01:05:48,01:51:33,NA,incomplete,6,filling,1,left,Green_Plus_Chess_1.jpg,Red_Triangle_Chess_3.jpg,Blue_Circle_Stripes_1.jpg,left,915.2699999976903,true,NA,NA,NA,NA,NA,NA,NA,NA,true
nAlmlGiz,33ixyhizc8v0km0rv7j1cbq82t9e2g,3f6hpjw4jhdwo6kc79i9n1t0lnm2wb,nAlmlGiz,2020-0188,2020-11-11,01:05:48,01:51:33,NA,incomplete,7,filling,1,left,Blue_Star_Grid_3.jpg,Red_Plus_Grid_2.jpg,Purple_Circle_Chess_3.jpg,left,1326.959999998333,true,NA,NA,NA,NA,NA,NA,NA,NA,true
nAlmlGiz,33ixyhizc8v0km0rv7j1cbq82t9e2g,3f6hpjw4jhdwo6kc79i9n1t0lnm2wb,nAlmlGiz,2020-0188,2020-11-11,01:05:48,01:51:33,NA,incomplete,8,filling,1,right,Blue_Triangle_Stripes_2.jpg,Purple_Circle_Chess_2.jpg,Red_Star_Stripes_4.jpg,right,1239.5050000050105,true,NA,NA,NA,NA,NA,NA,NA,NA,true
nAlmlGiz,33ixyhizc8v0km0rv7j1cbq82t9e2g,3f6hpjw4jhdwo6kc79i9n1t0lnm2wb,nAlmlGiz,2020-0188,2020-11-11,01:05:48,01:51:33,NA,incomplete,9,filling,1,left,Blue_Star_Chess_3.jpg,Green_Plus_Chess_2.jpg,Purple_Circle_Stripes_3.jpg,left,1003.3350000011269,true,NA,NA,NA,NA,NA,NA,NA,NA,true
nAlmlGiz,33ixyhizc8v0km0rv7j1cbq82t9e2g,3f6hpjw4jhdwo6kc79i9n1t0lnm2wb,nAlmlGiz,2020-0188,2020-11-11,01:05:48,01:51:33,NA,incomplete,10,filling,1,left,Green_Plus_Dots_4.jpg,Purple_Star_Dots_2.jpg,Blue_Circle_Chess_4.jpg,left,963.4799999985844,true,NA,NA,NA,NA,NA,NA,NA,NA,true
nAlmlGiz,33ixyhizc8v0km0rv7j1cbq82t9e2g,3f6hpjw4jhdwo6kc79i9n1t0lnm2wb,nAlmlGiz,2020-0188,2020-11-11,01:05:48,01:51:33,NA,incomplete,11,filling,1,left,Blue_Triangle_Dots_3.jpg,Purple_Star_Dots_1.jpg,Red_Circle_Grid_3.jpg,left,1010.0349999994505,true,NA,NA,NA,NA,NA,NA,NA,NA,true
nAlmlGiz,33ixyhizc8v0km0rv7j1cbq82t9e2g,3f6hpjw4jhdwo6kc79i9n1t0lnm2wb,nAlmlGiz,2020-0188,2020-11-11,01:05:48,01:51:33,NA,incomplete,12,filling,1,left,Red_Circle_Stripes_3.jpg,Purple_Triangle_Stripes_2.jpg,Blue_Star_Chess_3.jpg,left,731.5100000051316,true,NA,NA,NA,NA,NA,NA,NA,NA,true
nAlmlGiz,33ixyhizc8v0km0rv7j1cbq82t9e2g,3f6hpjw4jhdwo6kc79i9n1t0lnm2wb,nAlmlGiz,2020-0188,2020-11-11,01:05:48,01:51:33,NA,incomplete,13,filling,1,left,Green_Plus_Dots_2.jpg,Purple_Star_Dots_1.jpg,Red_Circle_Chess_2.jpg,left,1030.9899999992922,true,NA,NA,NA,NA,NA,NA,NA,NA,true
nAlmlGiz,33ixyhizc8v0km0rv7j1cbq82t9e2g,3f6hpjw4jhdwo6kc79i9n1t0lnm2wb,nAlmlGiz,2020-0188,2020-11-11,01:05:48,01:51:33,NA,incomplete,14,filling,1,left,Purple_Plus_Grid_2.jpg,Blue_Circle_Grid_1.jpg,Green_Star_Dots_2.jpg,left,736.7199999934528,true,NA,NA,NA,NA,NA,NA,NA,NA,true
nAlmlGiz,33ixyhizc8v0km0rv7j1cbq82t9e2g,3f6hpjw4jhdwo6kc79i9n1t0lnm2wb,nAlmlGiz,2020-0188,2020-11-11,01:05:48,01:51:33,NA,incomplete,15,filling,1,right,Red_Circle_Chess_3.jpg,Blue_Plus_Stripes_3.jpg,Green_Triangle_Chess_4.jpg,right,1056.8950000014156,true,NA,NA,NA,NA,NA,NA,NA,NA,true
nAlmlGiz,33ixyhizc8v0km0rv7j1cbq82t9e2g,3f6hpjw4jhdwo6kc79i9n1t0lnm2wb,nAlmlGiz,2020-0188,2020-11-11,01:05:48,01:51:33,NA,incomplete,16,filling,1,right,Purple_Plus_Stripes_2.jpg,Blue_Triangle_Grid_2.jpg,Green_Star_Stripes_3.jpg,right,926.1850000037812,true,NA,NA,NA,NA,NA,NA,NA,NA,true
nAlmlGiz,33ixyhizc8v0km0rv7j1cbq82t9e2g,3f6hpjw4jhdwo6kc79i9n1t0lnm2wb,nAlmlGiz,2020-0188,2020-11-11,01:05:48,01:51:33,NA,incomplete,17,filling,1,left,Green_Circle_Dots_1.jpg,Purple_Triangle_Dots_2.jpg,Blue_Star_Stripes_1.jpg,left,683.2199999988079,true,NA,NA,NA,NA,NA,NA,NA,NA,true
nAlmlGiz,33ixyhizc8v0km0rv7j1cbq82t9e2g,3f6hpjw4jhdwo6kc79i9n1t0lnm2wb,nAlmlGiz,2020-0188,2020-11-11,01:05:48,01:51:33,NA,incomplete,18,filling,1,right,Blue_Triangle_Dots_2.jpg,Green_Star_Grid_2.jpg,Purple_Circle_Dots_1.jpg,right,805.4550000014715,true,NA,NA,NA,NA,NA,NA,NA,NA,true
nAlmlGiz,33ixyhizc8v0km0rv7j1cbq82t9e2g,3f6hpjw4jhdwo6kc79i9n1t0lnm2wb,nAlmlGiz,2020-0188,2020-11-11,01:05:48,01:51:33,NA,incomplete,19,filling,0,right,Green_Circle_Stripes_4.jpg,Purple_Plus_Dots_4.jpg,Red_Star_Stripes_3.jpg,right,995.43999999878,true,NA,NA,NA,NA,NA,NA,NA,NA,true
nAlmlGiz,33ixyhizc8v0km0rv7j1cbq82t9e2g,3f6hpjw4jhdwo6kc79i9n1t0lnm2wb,nAlmlGiz,2020-0188,2020-11-11,01:05:48,01:51:33,NA,incomplete,20,number,1,right,Red_Circle_Stripes_1.jpg,Blue_Star_Stripes_2.jpg,Green_Triangle_Dots_1.jpg,left,845.9799999983516,false,NA,NA,NA,NA,NA,NA,NA,NA,true
nAlmlGiz,33ixyhizc8v0km0rv7j1cbq82t9e2g,3f6hpjw4jhdwo6kc79i9n1t0lnm2wb,nAlmlGiz,2020-0188,2020-11-11,01:05:48,01:51:33,NA,incomplete,21,number,1,left,Red_Circle_Chess_3.jpg,Blue_Plus_Stripes_3.jpg,Purple_Triangle_Chess_2.jpg,left,1043.2299999955576,true,NA,NA,NA,NA,NA,NA,NA,NA,true
nAlmlGiz,33ixyhizc8v0km0rv7j1cbq82t9e2g,3f6hpjw4jhdwo6kc79i9n1t0lnm2wb,nAlmlGiz,2020-0188,2020-11-11,01:05:48,01:51:33,NA,incomplete,22,number,0,right,Blue_Plus_Chess_2.jpg,Purple_Circle_Chess_1.jpg,Red_Star_Dots_2.jpg,left,1157.6050000002142,false,NA,NA,NA,NA,NA,NA,NA,NA,true
nAlmlGiz,33ixyhizc8v0km0rv7j1cbq82t9e2g,3f6hpjw4jhdwo6kc79i9n1t0lnm2wb,nAlmlGiz,2020-0188,2020-11-11,01:05:48,01:51:33,NA,incomplete,23,number,0,left,Blue_Circle_Grid_4.jpg,Red_Star_Dots_4.jpg,Purple_Triangle_Grid_3.jpg,right,1484.2250000000931,false,NA,NA,NA,NA,NA,NA,NA,NA,true
nAlmlGiz,33ixyhizc8v0km0rv7j1cbq82t9e2g,3f6hpjw4jhdwo6kc79i9n1t0lnm2wb,nAlmlGiz,2020-0188,2020-11-11,01:05:48,01:51:33,NA,incomplete,24,number,0,left,Red_Plus_Chess_2.jpg,Blue_Triangle_Stripes_2.jpg,Green_Star_Chess_4.jpg,right,1305.6300000026822,false,NA,NA,NA,NA,NA,NA,NA,NA,true
nAlmlGiz,33ixyhizc8v0km0rv7j1cbq82t9e2g,3f6hpjw4jhdwo6kc79i9n1t0lnm2wb,nAlmlGiz,2020-0188,2020-11-11,01:05:48,01:51:33,NA,incomplete,25,number,1,left,Green_Star_Grid_3.jpg,Purple_Plus_Stripes_3.jpg,Blue_Triangle_Grid_2.jpg,right,1193.1799999948125,false,NA,NA,NA,NA,NA,NA,NA,NA,true
nAlmlGiz,33ixyhizc8v0km0rv7j1cbq82t9e2g,3f6hpjw4jhdwo6kc79i9n1t0lnm2wb,nAlmlGiz,2020-0188,2020-11-11,01:05:48,01:51:33,NA,incomplete,26,number,0,left,Green_Star_Stripes_2.jpg,Purple_Plus_Grid_2.jpg,Blue_Circle_Stripes_1.jpg,right,736.9150000012014,false,NA,NA,NA,NA,NA,NA,NA,NA,true
nAlmlGiz,33ixyhizc8v0km0rv7j1cbq82t9e2g,3f6hpjw4jhdwo6kc79i9n1t0lnm2wb,nAlmlGiz,2020-0188,2020-11-11,01:05:48,01:51:33,NA,incomplete,27,number,1,left,Purple_Triangle_Dots_1.jpg,Green_Star_Stripes_1.jpg,Blue_Circle_Dots_4.jpg,right,962.0750000029802,false,NA,NA,NA,NA,NA,NA,NA,NA,true
nAlmlGiz,33ixyhizc8v0km0rv7j1cbq82t9e2g,3f6hpjw4jhdwo6kc79i9n1t0lnm2wb,nAlmlGiz,2020-0188,2020-11-11,01:05:48,01:51:33,NA,incomplete,28,number,1,left,Purple_Circle_Grid_1.jpg,Red_Star_Dots_1.jpg,Green_Plus_Grid_2.jpg,right,798.445000000298,false,NA,NA,NA,NA,NA,NA,NA,NA,true
nAlmlGiz,33ixyhizc8v0km0rv7j1cbq82t9e2g,3f6hpjw4jhdwo6kc79i9n1t0lnm2wb,nAlmlGiz,2020-0188,2020-11-11,01:05:48,01:51:33,NA,incomplete,29,number,1,right,Blue_Triangle_Dots_1.jpg,Green_Star_Dots_4.jpg,Red_Plus_Stripes_1.jpg,left,1157.4049999981653,false,NA,NA,NA,NA,NA,NA,NA,NA,true
nAlmlGiz,33ixyhizc8v0km0rv7j1cbq82t9e2g,3f6hpjw4jhdwo6kc79i9n1t0lnm2wb,nAlmlGiz,2020-0188,2020-11-11,01:05:48,01:51:33,NA,incomplete,30,number,1,right,Blue_Triangle_Chess_4.jpg,Red_Circle_Chess_1.jpg,Green_Plus_Dots_4.jpg,left,895.2399999978952,false,NA,NA,NA,NA,NA,NA,NA,NA,true
nAlmlGiz,33ixyhizc8v0km0rv7j1cbq82t9e2g,3f6hpjw4jhdwo6kc79i9n1t0lnm2wb,nAlmlGiz,2020-0188,2020-11-11,01:05:48,01:51:33,NA,incomplete,31,number,1,left,Red_Circle_Dots_2.jpg,Blue_Plus_Grid_2.jpg,Purple_Star_Dots_4.jpg,left,712.1849999967963,true,NA,NA,NA,NA,NA,NA,NA,NA,true
nAlmlGiz,33ixyhizc8v0km0rv7j1cbq82t9e2g,3f6hpjw4jhdwo6kc79i9n1t0lnm2wb,nAlmlGiz,2020-0188,2020-11-11,01:05:48,01:51:33,NA,incomplete,32,number,1,left,Purple_Circle_Stripes_4.jpg,Blue_Star_Chess_4.jpg,Green_Plus_Stripes_1.jpg,right,1000.7450000047684,false,NA,NA,NA,NA,NA,NA,NA,NA,true
nAlmlGiz,33ixyhizc8v0km0rv7j1cbq82t9e2g,3f6hpjw4jhdwo6kc79i9n1t0lnm2wb,nAlmlGiz,2020-0188,2020-11-11,01:05:48,01:51:33,NA,incomplete,33,number,1,right,Purple_Triangle_Grid_3.jpg,Red_Star_Grid_2.jpg,Blue_Plus_Chess_3.jpg,left,986.4150000065565,false,NA,NA,NA,NA,NA,NA,NA,NA,true
nAlmlGiz,33ixyhizc8v0km0rv7j1cbq82t9e2g,3f6hpjw4jhdwo6kc79i9n1t0lnm2wb,nAlmlGiz,2020-0188,2020-11-11,01:05:48,01:51:33,NA,incomplete,34,number,1,right,Red_Plus_Dots_3.jpg,Green_Star_Dots_1.jpg,Blue_Circle_Chess_3.jpg,right,148.91000000340864,true,NA,NA,NA,NA,NA,NA,NA,NA,true
nAlmlGiz,33ixyhizc8v0km0rv7j1cbq82t9e2g,3f6hpjw4jhdwo6kc79i9n1t0lnm2wb,nAlmlGiz,2020-0188,2020-11-11,01:05:48,01:51:33,NA,incomplete,35,number,1,right,Red_Plus_Grid_1.jpg,Purple_Triangle_Grid_3.jpg,Green_Star_Dots_1.jpg,left,899.560000005411,false,NA,NA,NA,NA,NA,NA,NA,NA,true
nAlmlGiz,33ixyhizc8v0km0rv7j1cbq82t9e2g,3f6hpjw4jhdwo6kc79i9n1t0lnm2wb,nAlmlGiz,2020-0188,2020-11-11,01:05:48,01:51:33,NA,incomplete,36,number,1,right,Blue_Circle_Stripes_3.jpg,Red_Triangle_Stripes_4.jpg,Purple_Plus_Dots_3.jpg,right,281.5599999958649,true,NA,NA,NA,NA,NA,NA,NA,NA,true
nAlmlGiz,33ixyhizc8v0km0rv7j1cbq82t9e2g,3f6hpjw4jhdwo6kc79i9n1t0lnm2wb,nAlmlGiz,2020-0188,2020-11-11,01:05:48,01:51:33,NA,incomplete,37,number,0,left,Blue_Star_Dots_2.jpg,Purple_Circle_Grid_2.jpg,Green_Triangle_Dots_1.jpg,right,583.8750000039581,false,NA,NA,NA,NA,NA,NA,NA,NA,true
nAlmlGiz,33ixyhizc8v0km0rv7j1cbq82t9e2g,3f6hpjw4jhdwo6kc79i9n1t0lnm2wb,nAlmlGiz,2020-0188,2020-11-11,01:05:48,01:51:33,NA,incomplete,38,number,1,right,Blue_Star_Chess_4.jpg,Red_Plus_Chess_2.jpg,Purple_Triangle_Dots_4.jpg,right,977.4449999968056,true,NA,NA,NA,NA,NA,NA,NA,NA,true
nAlmlGiz,33ixyhizc8v0km0rv7j1cbq82t9e2g,3f6hpjw4jhdwo6kc79i9n1t0lnm2wb,nAlmlGiz,2020-0188,2020-11-11,01:05:48,01:51:33,NA,incomplete,39,number,0,left,Green_Star_Chess_2.jpg,Red_Circle_Grid_2.jpg,Blue_Triangle_Chess_1.jpg,none,0,false,NA,NA,NA,NA,NA,NA,NA,NA,true
nAlmlGiz,33ixyhizc8v0km0rv7j1cbq82t9e2g,3f6hpjw4jhdwo6kc79i9n1t0lnm2wb,nAlmlGiz,2020-0188,2020-11-11,01:05:48,01:51:33,NA,incomplete,0,filling,1,right,Red_Plus_Stripes_1.jpg,Blue_Circle_Chess_1.jpg,Green_Triangle_Stripes_2.jpg,right,569.7999999974854,true,low,NA,NA,NA,NA,NA,NA,NA,false
nAlmlGiz,33ixyhizc8v0km0rv7j1cbq82t9e2g,3f6hpjw4jhdwo6kc79i9n1t0lnm2wb,nAlmlGiz,2020-0188,2020-11-11,01:05:48,01:51:33,NA,incomplete,1,filling,1,left,Blue_Plus_Grid_3.jpg,Red_Triangle_Grid_1.jpg,Green_Circle_Chess_3.jpg,right,732.9950000059325,false,low,NA,NA,NA,NA,NA,NA,NA,false
nAlmlGiz,33ixyhizc8v0km0rv7j1cbq82t9e2g,3f6hpjw4jhdwo6kc79i9n1t0lnm2wb,nAlmlGiz,2020-0188,2020-11-11,01:05:48,01:51:33,NA,incomplete,2,filling,1,right,Purple_Triangle_Dots_3.jpg,Blue_Star_Grid_3.jpg,Red_Circle_Dots_2.jpg,right,809.3000000007451,true,low,NA,NA,NA,NA,NA,NA,NA,false
nAlmlGiz,33ixyhizc8v0km0rv7j1cbq82t9e2g,3f6hpjw4jhdwo6kc79i9n1t0lnm2wb,nAlmlGiz,2020-0188,2020-11-11,01:05:48,01:51:33,NA,incomplete,3,filling,1,right,Blue_Triangle_Grid_4.jpg,Green_Plus_Chess_4.jpg,Purple_Circle_Grid_2.jpg,left,104.43999999552034,false,low,NA,NA,NA,NA,NA,NA,NA,false
nAlmlGiz,33ixyhizc8v0km0rv7j1cbq82t9e2g,3f6hpjw4jhdwo6kc79i9n1t0lnm2wb,nAlmlGiz,2020-0188,2020-11-11,01:05:48,01:51:33,NA,incomplete,4,filling,1,right,Red_Plus_Stripes_2.jpg,Blue_Star_Chess_2.jpg,Green_Triangle_Stripes_3.jpg,right,244.52000000001863,true,low,NA,NA,NA,NA,NA,NA,NA,false
nAlmlGiz,33ixyhizc8v0km0rv7j1cbq82t9e2g,3f6hpjw4jhdwo6kc79i9n1t0lnm2wb,nAlmlGiz,2020-0188,2020-11-11,01:05:48,01:51:33,NA,incomplete,5,filling,1,right,Blue_Triangle_Chess_1.jpg,Red_Plus_Stripes_1.jpg,Green_Circle_Chess_2.jpg,right,814.9399999964517,true,low,NA,NA,NA,NA,NA,NA,NA,false
nAlmlGiz,33ixyhizc8v0km0rv7j1cbq82t9e2g,3f6hpjw4jhdwo6kc79i9n1t0lnm2wb,nAlmlGiz,2020-0188,2020-11-11,01:05:48,01:51:33,NA,incomplete,6,filling,1,right,Red_Plus_Dots_3.jpg,Purple_Star_Stripes_3.jpg,Blue_Circle_Dots_4.jpg,right,969.5999999968335,true,low,NA,NA,NA,NA,NA,NA,NA,false
nAlmlGiz,33ixyhizc8v0km0rv7j1cbq82t9e2g,3f6hpjw4jhdwo6kc79i9n1t0lnm2wb,nAlmlGiz,2020-0188,2020-11-11,01:05:48,01:51:33,NA,incomplete,7,filling,1,right,Red_Plus_Grid_4.jpg,Green_Star_Dots_4.jpg,Purple_Circle_Grid_2.jpg,right,780.2849999933969,true,low,NA,NA,NA,NA,NA,NA,NA,false
nAlmlGiz,33ixyhizc8v0km0rv7j1cbq82t9e2g,3f6hpjw4jhdwo6kc79i9n1t0lnm2wb,nAlmlGiz,2020-0188,2020-11-11,01:05:48,01:51:33,NA,incomplete,8,filling,1,left,Blue_Star_Dots_3.jpg,Green_Circle_Dots_4.jpg,Red_Plus_Grid_3.jpg,left,934.6399999994319,true,low,NA,NA,NA,NA,NA,NA,NA,false
nAlmlGiz,33ixyhizc8v0km0rv7j1cbq82t9e2g,3f6hpjw4jhdwo6kc79i9n1t0lnm2wb,nAlmlGiz,2020-0188,2020-11-11,01:05:48,01:51:33,NA,incomplete,9,filling,0,right,Purple_Circle_Grid_2.jpg,Red_Star_Chess_2.jpg,Blue_Triangle_Grid_3.jpg,right,817.125000001397,true,low,NA,NA,NA,NA,NA,NA,NA,false
nAlmlGiz,33ixyhizc8v0km0rv7j1cbq82t9e2g,3f6hpjw4jhdwo6kc79i9n1t0lnm2wb,nAlmlGiz,2020-0188,2020-11-11,01:05:48,01:51:33,NA,incomplete,10,filling,1,left,Green_Triangle_Chess_2.jpg,Blue_Star_Chess_1.jpg,Purple_Plus_Stripes_2.jpg,right,729.3150000041351,false,low,NA,NA,NA,NA,NA,NA,NA,false
nAlmlGiz,33ixyhizc8v0km0rv7j1cbq82t9e2g,3f6hpjw4jhdwo6kc79i9n1t0lnm2wb,nAlmlGiz,2020-0188,2020-11-11,01:05:48,01:51:33,NA,incomplete,11,filling,1,right,Red_Triangle_Stripes_4.jpg,Green_Star_Dots_4.jpg,Purple_Circle_Stripes_1.jpg,right,705.6400000001304,true,low,NA,NA,NA,NA,NA,NA,NA,false
nAlmlGiz,33ixyhizc8v0km0rv7j1cbq82t9e2g,3f6hpjw4jhdwo6kc79i9n1t0lnm2wb,nAlmlGiz,2020-0188,2020-11-11,01:05:48,01:51:33,NA,incomplete,12,filling,1,right,Purple_Triangle_Grid_2.jpg,Green_Circle_Stripes_2.jpg,Blue_Plus_Grid_1.jpg,right,922.099999996135,true,low,NA,NA,NA,NA,NA,NA,NA,false
nAlmlGiz,33ixyhizc8v0km0rv7j1cbq82t9e2g,3f6hpjw4jhdwo6kc79i9n1t0lnm2wb,nAlmlGiz,2020-0188,2020-11-11,01:05:48,01:51:33,NA,incomplete,13,filling,1,right,Red_Plus_Grid_3.jpg,Blue_Star_Dots_3.jpg,Green_Circle_Grid_2.jpg,right,724.3200000009965,true,low,NA,NA,NA,NA,NA,NA,NA,false
nAlmlGiz,33ixyhizc8v0km0rv7j1cbq82t9e2g,3f6hpjw4jhdwo6kc79i9n1t0lnm2wb,nAlmlGiz,2020-0188,2020-11-11,01:05:48,01:51:33,NA,incomplete,14,filling,1,left,Blue_Star_Grid_1.jpg,Green_Plus_Grid_2.jpg,Red_Triangle_Dots_1.jpg,left,804.2399999976624,true,low,NA,NA,NA,NA,NA,NA,NA,false
nAlmlGiz,33ixyhizc8v0km0rv7j1cbq82t9e2g,3f6hpjw4jhdwo6kc79i9n1t0lnm2wb,nAlmlGiz,2020-0188,2020-11-11,01:05:48,01:51:33,NA,incomplete,15,filling,0,right,Red_Circle_Stripes_3.jpg,Purple_Star_Dots_3.jpg,Green_Plus_Stripes_2.jpg,right,646.605000001844,true,low,NA,NA,NA,NA,NA,NA,NA,false
nAlmlGiz,33ixyhizc8v0km0rv7j1cbq82t9e2g,3f6hpjw4jhdwo6kc79i9n1t0lnm2wb,nAlmlGiz,2020-0188,2020-11-11,01:05:48,01:51:33,NA,incomplete,16,filling,1,right,Green_Circle_Grid_1.jpg,Purple_Star_Chess_1.jpg,Blue_Triangle_Grid_4.jpg,right,721.0600000033155,true,low,NA,NA,NA,NA,NA,NA,NA,false
nAlmlGiz,33ixyhizc8v0km0rv7j1cbq82t9e2g,3f6hpjw4jhdwo6kc79i9n1t0lnm2wb,nAlmlGiz,2020-0188,2020-11-11,01:05:48,01:51:33,NA,incomplete,17,filling,1,left,Purple_Triangle_Grid_3.jpg,Green_Plus_Grid_1.jpg,Red_Circle_Chess_3.jpg,left,1183.1250000032596,true,low,NA,NA,NA,NA,NA,NA,NA,false
nAlmlGiz,33ixyhizc8v0km0rv7j1cbq82t9e2g,3f6hpjw4jhdwo6kc79i9n1t0lnm2wb,nAlmlGiz,2020-0188,2020-11-11,01:05:48,01:51:33,NA,incomplete,18,filling,1,left,Blue_Star_Stripes_2.jpg,Green_Plus_Stripes_4.jpg,Purple_Circle_Dots_2.jpg,left,933.7050000028685,true,low,NA,NA,NA,NA,NA,NA,NA,false
nAlmlGiz,33ixyhizc8v0km0rv7j1cbq82t9e2g,3f6hpjw4jhdwo6kc79i9n1t0lnm2wb,nAlmlGiz,2020-0188,2020-11-11,01:05:48,01:51:33,NA,incomplete,19,filling,1,left,Red_Star_Dots_4.jpg,Blue_Circle_Dots_2.jpg,Purple_Triangle_Stripes_4.jpg,left,786.8099999977276,true,low,NA,NA,NA,NA,NA,NA,NA,false
nAlmlGiz,33ixyhizc8v0km0rv7j1cbq82t9e2g,3f6hpjw4jhdwo6kc79i9n1t0lnm2wb,nAlmlGiz,2020-0188,2020-11-11,01:05:48,01:51:33,NA,incomplete,20,filling,1,right,Purple_Plus_Grid_3.jpg,Red_Triangle_Chess_3.jpg,Blue_Star_Grid_1.jpg,left,693.964999998454,false,low,NA,NA,NA,NA,NA,NA,NA,false
nAlmlGiz,33ixyhizc8v0km0rv7j1cbq82t9e2g,3f6hpjw4jhdwo6kc79i9n1t0lnm2wb,nAlmlGiz,2020-0188,2020-11-11,01:05:48,01:51:33,NA,incomplete,21,filling,1,left,Green_Star_Chess_1.jpg,Purple_Plus_Chess_3.jpg,Red_Triangle_Stripes_1.jpg,left,816.0700000007637,true,low,NA,NA,NA,NA,NA,NA,NA,false
nAlmlGiz,33ixyhizc8v0km0rv7j1cbq82t9e2g,3f6hpjw4jhdwo6kc79i9n1t0lnm2wb,nAlmlGiz,2020-0188,2020-11-11,01:05:48,01:51:33,NA,incomplete,22,filling,0,right,Red_Plus_Chess_3.jpg,Purple_Circle_Grid_3.jpg,Blue_Star_Chess_1.jpg,right,773.5850000025239,true,low,NA,NA,NA,NA,NA,NA,NA,false
nAlmlGiz,33ixyhizc8v0km0rv7j1cbq82t9e2g,3f6hpjw4jhdwo6kc79i9n1t0lnm2wb,nAlmlGiz,2020-0188,2020-11-11,01:05:48,01:51:33,NA,incomplete,23,filling,1,right,Green_Star_Chess_1.jpg,Blue_Circle_Stripes_1.jpg,Purple_Triangle_Chess_3.jpg,right,576.0249999947846,true,low,NA,NA,NA,NA,NA,NA,NA,false
nAlmlGiz,33ixyhizc8v0km0rv7j1cbq82t9e2g,3f6hpjw4jhdwo6kc79i9n1t0lnm2wb,nAlmlGiz,2020-0188,2020-11-11,01:05:48,01:51:33,NA,incomplete,24,filling,0,right,Red_Plus_Dots_2.jpg,Green_Circle_Stripes_2.jpg,Blue_Star_Dots_3.jpg,right,940.2199999967124,true,low,NA,NA,NA,NA,NA,NA,NA,false
nAlmlGiz,33ixyhizc8v0km0rv7j1cbq82t9e2g,3f6hpjw4jhdwo6kc79i9n1t0lnm2wb,nAlmlGiz,2020-0188,2020-11-11,01:05:48,01:51:33,NA,incomplete,25,filling,1,right,Purple_Circle_Dots_1.jpg,Red_Plus_Grid_1.jpg,Green_Triangle_Dots_2.jpg,right,555.0000000002328,true,low,NA,NA,NA,NA,NA,NA,NA,false
nAlmlGiz,33ixyhizc8v0km0rv7j1cbq82t9e2g,3f6hpjw4jhdwo6kc79i9n1t0lnm2wb,nAlmlGiz,2020-0188,2020-11-11,01:05:48,01:51:33,NA,incomplete,26,filling,1,right,Purple_Plus_Stripes_3.jpg,Green_Triangle_Grid_3.jpg,Blue_Circle_Stripes_2.jpg,right,799.6550000023562,true,low,NA,NA,NA,NA,NA,NA,NA,false
nAlmlGiz,33ixyhizc8v0km0rv7j1cbq82t9e2g,3f6hpjw4jhdwo6kc79i9n1t0lnm2wb,nAlmlGiz,2020-0188,2020-11-11,01:05:48,01:51:33,NA,incomplete,27,filling,1,left,Green_Circle_Dots_3.jpg,Red_Star_Dots_1.jpg,Purple_Plus_Grid_3.jpg,left,752.1350000025705,true,low,NA,NA,NA,NA,NA,NA,NA,false
nAlmlGiz,33ixyhizc8v0km0rv7j1cbq82t9e2g,3f6hpjw4jhdwo6kc79i9n1t0lnm2wb,nAlmlGiz,2020-0188,2020-11-11,01:05:48,01:51:33,NA,incomplete,28,filling,1,right,Green_Triangle_Chess_2.jpg,Purple_Plus_Grid_2.jpg,Red_Circle_Chess_1.jpg,right,623.1049999985844,true,low,NA,NA,NA,NA,NA,NA,NA,false
nAlmlGiz,33ixyhizc8v0km0rv7j1cbq82t9e2g,3f6hpjw4jhdwo6kc79i9n1t0lnm2wb,nAlmlGiz,2020-0188,2020-11-11,01:05:48,01:51:33,NA,incomplete,29,filling,0,left,Purple_Plus_Dots_2.jpg,Red_Circle_Dots_1.jpg,Green_Triangle_Stripes_2.jpg,left,678.1199999968521,true,low,NA,NA,NA,NA,NA,NA,NA,false
nAlmlGiz,33ixyhizc8v0km0rv7j1cbq82t9e2g,3f6hpjw4jhdwo6kc79i9n1t0lnm2wb,nAlmlGiz,2020-0188,2020-11-11,01:05:48,01:51:33,NA,incomplete,30,number,1,right,Red_Plus_Stripes_2.jpg,Blue_Triangle_Stripes_4.jpg,Purple_Circle_Dots_2.jpg,left,1092.7900000025984,false,low,NA,NA,NA,NA,NA,NA,NA,false
nAlmlGiz,33ixyhizc8v0km0rv7j1cbq82t9e2g,3f6hpjw4jhdwo6kc79i9n1t0lnm2wb,nAlmlGiz,2020-0188,2020-11-11,01:05:48,01:51:33,NA,incomplete,31,number,1,right,Purple_Star_Dots_4.jpg,Blue_Plus_Dots_2.jpg,Green_Circle_Stripes_4.jpg,right,744.7549999998882,true,low,NA,NA,NA,NA,NA,NA,NA,false
nAlmlGiz,33ixyhizc8v0km0rv7j1cbq82t9e2g,3f6hpjw4jhdwo6kc79i9n1t0lnm2wb,nAlmlGiz,2020-0188,2020-11-11,01:05:48,01:51:33,NA,incomplete,32,number,1,right,Purple_Triangle_Chess_3.jpg,Blue_Circle_Chess_2.jpg,Green_Star_Dots_3.jpg,right,265.73500000103377,true,low,NA,NA,NA,NA,NA,NA,NA,false
nAlmlGiz,33ixyhizc8v0km0rv7j1cbq82t9e2g,3f6hpjw4jhdwo6kc79i9n1t0lnm2wb,nAlmlGiz,2020-0188,2020-11-11,01:05:48,01:51:33,NA,incomplete,33,number,1,right,Blue_Star_Chess_1.jpg,Red_Triangle_Chess_3.jpg,Purple_Plus_Stripes_1.jpg,right,543.3249999985565,true,low,NA,NA,NA,NA,NA,NA,NA,false
nAlmlGiz,33ixyhizc8v0km0rv7j1cbq82t9e2g,3f6hpjw4jhdwo6kc79i9n1t0lnm2wb,nAlmlGiz,2020-0188,2020-11-11,01:05:48,01:51:33,NA,incomplete,34,number,1,left,Blue_Circle_Stripes_3.jpg,Green_Star_Chess_3.jpg,Red_Plus_Stripes_1.jpg,right,669.7199999981094,false,low,NA,NA,NA,NA,NA,NA,NA,false
nAlmlGiz,33ixyhizc8v0km0rv7j1cbq82t9e2g,3f6hpjw4jhdwo6kc79i9n1t0lnm2wb,nAlmlGiz,2020-0188,2020-11-11,01:05:48,01:51:33,NA,incomplete,35,number,1,right,Red_Plus_Grid_3.jpg,Green_Star_Grid_2.jpg,Blue_Triangle_Chess_3.jpg,left,1485.1449999988545,false,low,NA,NA,NA,NA,NA,NA,NA,false
nAlmlGiz,33ixyhizc8v0km0rv7j1cbq82t9e2g,3f6hpjw4jhdwo6kc79i9n1t0lnm2wb,nAlmlGiz,2020-0188,2020-11-11,01:05:48,01:51:33,NA,incomplete,36,number,1,left,Green_Triangle_Dots_3.jpg,Red_Star_Stripes_3.jpg,Purple_Plus_Dots_4.jpg,right,309.5900000045076,false,low,NA,NA,NA,NA,NA,NA,NA,false
nAlmlGiz,33ixyhizc8v0km0rv7j1cbq82t9e2g,3f6hpjw4jhdwo6kc79i9n1t0lnm2wb,nAlmlGiz,2020-0188,2020-11-11,01:05:48,01:51:33,NA,incomplete,37,number,0,right,Green_Circle_Stripes_2.jpg,Red_Star_Stripes_1.jpg,Blue_Plus_Chess_2.jpg,right,724.0600000005215,true,low,NA,NA,NA,NA,NA,NA,NA,false
nAlmlGiz,33ixyhizc8v0km0rv7j1cbq82t9e2g,3f6hpjw4jhdwo6kc79i9n1t0lnm2wb,nAlmlGiz,2020-0188,2020-11-11,01:05:48,01:51:33,NA,incomplete,38,number,0,left,Green_Star_Grid_2.jpg,Blue_Circle_Stripes_2.jpg,Red_Plus_Grid_4.jpg,left,760.940000000177,true,low,NA,NA,NA,NA,NA,NA,NA,false
nAlmlGiz,33ixyhizc8v0km0rv7j1cbq82t9e2g,3f6hpjw4jhdwo6kc79i9n1t0lnm2wb,nAlmlGiz,2020-0188,2020-11-11,01:05:48,01:51:33,NA,incomplete,39,number,1,left,Blue_Circle_Grid_1.jpg,Purple_Star_Dots_1.jpg,Red_Plus_Grid_2.jpg,right,586.8849999969825,false,low,NA,NA,NA,NA,NA,NA,NA,false
nAlmlGiz,33ixyhizc8v0km0rv7j1cbq82t9e2g,3f6hpjw4jhdwo6kc79i9n1t0lnm2wb,nAlmlGiz,2020-0188,2020-11-11,01:05:48,01:51:33,NA,incomplete,40,number,0,left,Purple_Star_Grid_1.jpg,Blue_Plus_Dots_1.jpg,Red_Triangle_Grid_4.jpg,right,1556.420000000624,false,low,NA,NA,NA,NA,NA,NA,NA,false
nAlmlGiz,33ixyhizc8v0km0rv7j1cbq82t9e2g,3f6hpjw4jhdwo6kc79i9n1t0lnm2wb,nAlmlGiz,2020-0188,2020-11-11,01:05:48,01:51:33,NA,incomplete,41,number,1,right,Blue_Circle_Grid_3.jpg,Red_Triangle_Grid_4.jpg,Green_Star_Dots_3.jpg,right,702.1600000006147,true,low,NA,NA,NA,NA,NA,NA,NA,false
nAlmlGiz,33ixyhizc8v0km0rv7j1cbq82t9e2g,3f6hpjw4jhdwo6kc79i9n1t0lnm2wb,nAlmlGiz,2020-0188,2020-11-11,01:05:48,01:51:33,NA,incomplete,42,number,1,left,Blue_Plus_Stripes_4.jpg,Green_Star_Dots_4.jpg,Red_Circle_Stripes_2.jpg,right,818.0650000066962,false,low,NA,NA,NA,NA,NA,NA,NA,false
nAlmlGiz,33ixyhizc8v0km0rv7j1cbq82t9e2g,3f6hpjw4jhdwo6kc79i9n1t0lnm2wb,nAlmlGiz,2020-0188,2020-11-11,01:05:48,01:51:33,NA,incomplete,43,number,1,left,Green_Plus_Chess_4.jpg,Purple_Triangle_Stripes_4.jpg,Red_Star_Chess_3.jpg,left,1264.6899999964517,true,low,NA,NA,NA,NA,NA,NA,NA,false
nAlmlGiz,33ixyhizc8v0km0rv7j1cbq82t9e2g,3f6hpjw4jhdwo6kc79i9n1t0lnm2wb,nAlmlGiz,2020-0188,2020-11-11,01:05:48,01:51:33,NA,incomplete,44,number,1,right,Blue_Triangle_Grid_4.jpg,Red_Star_Grid_1.jpg,Green_Plus_Stripes_4.jpg,right,1639.9700000034645,true,low,NA,NA,NA,NA,NA,NA,NA,false
nAlmlGiz,33ixyhizc8v0km0rv7j1cbq82t9e2g,3f6hpjw4jhdwo6kc79i9n1t0lnm2wb,nAlmlGiz,2020-0188,2020-11-11,01:05:48,01:51:33,NA,incomplete,45,number,1,right,Blue_Circle_Stripes_3.jpg,Purple_Star_Stripes_4.jpg,Red_Plus_Dots_3.jpg,right,427.2249999991618,true,low,NA,NA,NA,NA,NA,NA,NA,false
nAlmlGiz,33ixyhizc8v0km0rv7j1cbq82t9e2g,3f6hpjw4jhdwo6kc79i9n1t0lnm2wb,nAlmlGiz,2020-0188,2020-11-11,01:05:48,01:51:33,NA,incomplete,46,number,0,right,Purple_Triangle_Dots_4.jpg,Red_Circle_Dots_3.jpg,Blue_Star_Stripes_4.jpg,right,431.09499999973923,true,low,NA,NA,NA,NA,NA,NA,NA,false
nAlmlGiz,33ixyhizc8v0km0rv7j1cbq82t9e2g,3f6hpjw4jhdwo6kc79i9n1t0lnm2wb,nAlmlGiz,2020-0188,2020-11-11,01:05:48,01:51:33,NA,incomplete,47,number,1,left,Blue_Triangle_Chess_2.jpg,Green_Circle_Stripes_2.jpg,Red_Plus_Chess_4.jpg,left,1608.7399999960326,true,low,NA,NA,NA,NA,NA,NA,NA,false
nAlmlGiz,33ixyhizc8v0km0rv7j1cbq82t9e2g,3f6hpjw4jhdwo6kc79i9n1t0lnm2wb,nAlmlGiz,2020-0188,2020-11-11,01:05:48,01:51:33,NA,incomplete,48,number,0,left,Green_Triangle_Chess_1.jpg,Purple_Star_Grid_1.jpg,Blue_Circle_Chess_3.jpg,none,0,false,low,NA,NA,NA,NA,NA,NA,NA,false
nAlmlGiz,33ixyhizc8v0km0rv7j1cbq82t9e2g,3f6hpjw4jhdwo6kc79i9n1t0lnm2wb,nAlmlGiz,2020-0188,2020-11-11,01:05:48,01:51:33,NA,incomplete,49,number,0,right,Purple_Circle_Chess_2.jpg,Blue_Star_Chess_3.jpg,Green_Triangle_Dots_2.jpg,right,472.76000000396743,true,low,NA,NA,NA,NA,NA,NA,NA,false
nAlmlGiz,33ixyhizc8v0km0rv7j1cbq82t9e2g,3f6hpjw4jhdwo6kc79i9n1t0lnm2wb,nAlmlGiz,2020-0188,2020-11-11,01:05:48,01:51:33,NA,incomplete,50,number,1,left,Red_Plus_Chess_1.jpg,Purple_Star_Dots_1.jpg,Blue_Circle_Chess_4.jpg,right,409.34499999973923,false,low,NA,NA,NA,NA,NA,NA,NA,false
nAlmlGiz,33ixyhizc8v0km0rv7j1cbq82t9e2g,3f6hpjw4jhdwo6kc79i9n1t0lnm2wb,nAlmlGiz,2020-0188,2020-11-11,01:05:48,01:51:33,NA,incomplete,51,number,1,left,Blue_Circle_Dots_1.jpg,Purple_Star_Chess_1.jpg,Green_Triangle_Dots_3.jpg,left,183.23499999661,true,low,NA,NA,NA,NA,NA,NA,NA,false
nAlmlGiz,33ixyhizc8v0km0rv7j1cbq82t9e2g,3f6hpjw4jhdwo6kc79i9n1t0lnm2wb,nAlmlGiz,2020-0188,2020-11-11,01:05:48,01:51:33,NA,incomplete,52,number,1,left,Green_Triangle_Grid_3.jpg,Blue_Plus_Stripes_3.jpg,Purple_Star_Grid_2.jpg,left,1248.0299999951385,true,low,NA,NA,NA,NA,NA,NA,NA,false
nAlmlGiz,33ixyhizc8v0km0rv7j1cbq82t9e2g,3f6hpjw4jhdwo6kc79i9n1t0lnm2wb,nAlmlGiz,2020-0188,2020-11-11,01:05:48,01:51:33,NA,incomplete,53,number,1,right,Red_Circle_Stripes_1.jpg,Purple_Star_Stripes_4.jpg,Blue_Plus_Dots_1.jpg,left,675.9349999995902,false,low,NA,NA,NA,NA,NA,NA,NA,false
nAlmlGiz,33ixyhizc8v0km0rv7j1cbq82t9e2g,3f6hpjw4jhdwo6kc79i9n1t0lnm2wb,nAlmlGiz,2020-0188,2020-11-11,01:05:48,01:51:33,NA,incomplete,54,number,1,right,Blue_Star_Stripes_3.jpg,Green_Triangle_Stripes_2.jpg,Red_Plus_Dots_3.jpg,left,801.7049999982119,false,low,NA,NA,NA,NA,NA,NA,NA,false
nAlmlGiz,33ixyhizc8v0km0rv7j1cbq82t9e2g,3f6hpjw4jhdwo6kc79i9n1t0lnm2wb,nAlmlGiz,2020-0188,2020-11-11,01:05:48,01:51:33,NA,incomplete,55,number,1,right,Blue_Plus_Grid_1.jpg,Purple_Star_Grid_4.jpg,Green_Triangle_Dots_1.jpg,right,632.3750000009313,true,low,NA,NA,NA,NA,NA,NA,NA,false
nAlmlGiz,33ixyhizc8v0km0rv7j1cbq82t9e2g,3f6hpjw4jhdwo6kc79i9n1t0lnm2wb,nAlmlGiz,2020-0188,2020-11-11,01:05:48,01:51:33,NA,incomplete,56,number,1,right,Red_Triangle_Grid_4.jpg,Purple_Star_Grid_2.jpg,Blue_Plus_Dots_4.jpg,right,623.699999996461,true,low,NA,NA,NA,NA,NA,NA,NA,false
nAlmlGiz,33ixyhizc8v0km0rv7j1cbq82t9e2g,3f6hpjw4jhdwo6kc79i9n1t0lnm2wb,nAlmlGiz,2020-0188,2020-11-11,01:05:48,01:51:33,NA,incomplete,57,number,0,left,Red_Triangle_Dots_4.jpg,Green_Star_Grid_4.jpg,Purple_Circle_Dots_2.jpg,right,622.0449999962002,false,low,NA,NA,NA,NA,NA,NA,NA,false
nAlmlGiz,33ixyhizc8v0km0rv7j1cbq82t9e2g,3f6hpjw4jhdwo6kc79i9n1t0lnm2wb,nAlmlGiz,2020-0188,2020-11-11,01:05:48,01:51:33,NA,incomplete,58,number,1,left,Red_Plus_Chess_4.jpg,Purple_Circle_Dots_4.jpg,Green_Star_Chess_3.jpg,right,350.83000000333413,false,low,NA,NA,NA,NA,NA,NA,NA,false
nAlmlGiz,33ixyhizc8v0km0rv7j1cbq82t9e2g,3f6hpjw4jhdwo6kc79i9n1t0lnm2wb,nAlmlGiz,2020-0188,2020-11-11,01:05:48,01:51:33,NA,incomplete,59,number,1,left,Green_Triangle_Stripes_2.jpg,Purple_Circle_Dots_2.jpg,Red_Plus_Stripes_1.jpg,left,278.83999999891967,true,low,NA,NA,NA,NA,NA,NA,NA,false
nAlmlGiz,33ixyhizc8v0km0rv7j1cbq82t9e2g,3f6hpjw4jhdwo6kc79i9n1t0lnm2wb,nAlmlGiz,2020-0188,2020-11-11,01:05:48,01:51:33,NA,incomplete,60,filling,1,left,Purple_Plus_Dots_3.jpg,Green_Star_Dots_2.jpg,Red_Triangle_Stripes_3.jpg,left,389.3850000021048,true,low,NA,NA,NA,NA,NA,NA,NA,false
nAlmlGiz,33ixyhizc8v0km0rv7j1cbq82t9e2g,3f6hpjw4jhdwo6kc79i9n1t0lnm2wb,nAlmlGiz,2020-0188,2020-11-11,01:05:48,01:51:33,NA,incomplete,61,filling,1,right,Green_Circle_Dots_2.jpg,Red_Star_Grid_2.jpg,Blue_Triangle_Dots_3.jpg,right,599.5099999997765,true,low,NA,NA,NA,NA,NA,NA,NA,false
nAlmlGiz,33ixyhizc8v0km0rv7j1cbq82t9e2g,3f6hpjw4jhdwo6kc79i9n1t0lnm2wb,nAlmlGiz,2020-0188,2020-11-11,01:05:48,01:51:33,NA,incomplete,62,filling,0,right,Blue_Plus_Grid_1.jpg,Purple_Circle_Stripes_1.jpg,Red_Star_Grid_2.jpg,left,626.85999999661,false,low,NA,NA,NA,NA,NA,NA,NA,false
nAlmlGiz,33ixyhizc8v0km0rv7j1cbq82t9e2g,3f6hpjw4jhdwo6kc79i9n1t0lnm2wb,nAlmlGiz,2020-0188,2020-11-11,01:05:48,01:51:33,NA,incomplete,63,filling,1,right,Purple_Triangle_Grid_1.jpg,Red_Plus_Dots_1.jpg,Green_Circle_Grid_2.jpg,right,1255.8400000049733,true,low,NA,NA,NA,NA,NA,NA,NA,false
nAlmlGiz,33ixyhizc8v0km0rv7j1cbq82t9e2g,3f6hpjw4jhdwo6kc79i9n1t0lnm2wb,nAlmlGiz,2020-0188,2020-11-11,01:05:48,01:51:33,NA,incomplete,64,filling,1,left,Purple_Plus_Stripes_3.jpg,Green_Star_Stripes_4.jpg,Red_Circle_Chess_3.jpg,left,1048.2200000039302,true,low,NA,NA,NA,NA,NA,NA,NA,false
nAlmlGiz,33ixyhizc8v0km0rv7j1cbq82t9e2g,3f6hpjw4jhdwo6kc79i9n1t0lnm2wb,nAlmlGiz,2020-0188,2020-11-11,01:05:48,01:51:33,NA,incomplete,65,filling,1,right,Purple_Triangle_Chess_4.jpg,Red_Plus_Dots_4.jpg,Blue_Circle_Chess_2.jpg,right,713.2499999934807,true,low,NA,NA,NA,NA,NA,NA,NA,false
nAlmlGiz,33ixyhizc8v0km0rv7j1cbq82t9e2g,3f6hpjw4jhdwo6kc79i9n1t0lnm2wb,nAlmlGiz,2020-0188,2020-11-11,01:05:48,01:51:33,NA,incomplete,66,filling,1,right,Purple_Circle_Stripes_4.jpg,Green_Plus_Dots_4.jpg,Red_Star_Stripes_1.jpg,right,703.3900000024587,true,low,NA,NA,NA,NA,NA,NA,NA,false
nAlmlGiz,33ixyhizc8v0km0rv7j1cbq82t9e2g,3f6hpjw4jhdwo6kc79i9n1t0lnm2wb,nAlmlGiz,2020-0188,2020-11-11,01:05:48,01:51:33,NA,incomplete,67,filling,0,left,Green_Circle_Stripes_3.jpg,Blue_Star_Stripes_1.jpg,Red_Plus_Chess_3.jpg,right,1173.5849999967031,false,low,NA,NA,NA,NA,NA,NA,NA,false
nAlmlGiz,33ixyhizc8v0km0rv7j1cbq82t9e2g,3f6hpjw4jhdwo6kc79i9n1t0lnm2wb,nAlmlGiz,2020-0188,2020-11-11,01:05:48,01:51:33,NA,incomplete,68,filling,1,left,Green_Triangle_Grid_3.jpg,Blue_Star_Grid_2.jpg,Purple_Circle_Stripes_3.jpg,right,1183.3350000013597,false,low,NA,NA,NA,NA,NA,NA,NA,false
nAlmlGiz,33ixyhizc8v0km0rv7j1cbq82t9e2g,3f6hpjw4jhdwo6kc79i9n1t0lnm2wb,nAlmlGiz,2020-0188,2020-11-11,01:05:48,01:51:33,NA,incomplete,69,filling,1,left,Purple_Triangle_Grid_4.jpg,Green_Circle_Grid_1.jpg,Red_Star_Dots_4.jpg,left,1252.1449999986216,true,low,NA,NA,NA,NA,NA,NA,NA,false
nAlmlGiz,33ixyhizc8v0km0rv7j1cbq82t9e2g,3f6hpjw4jhdwo6kc79i9n1t0lnm2wb,nAlmlGiz,2020-0188,2020-11-11,01:05:48,01:51:33,NA,incomplete,70,filling,1,right,Green_Circle_Stripes_3.jpg,Blue_Star_Chess_3.jpg,Purple_Plus_Stripes_4.jpg,left,783.6350000072271,false,low,NA,NA,NA,NA,NA,NA,NA,false
nAlmlGiz,33ixyhizc8v0km0rv7j1cbq82t9e2g,3f6hpjw4jhdwo6kc79i9n1t0lnm2wb,nAlmlGiz,2020-0188,2020-11-11,01:05:48,01:51:33,NA,incomplete,71,filling,1,left,Green_Star_Grid_3.jpg,Blue_Plus_Grid_4.jpg,Purple_Triangle_Chess_3.jpg,right,249.84499999834225,false,low,NA,NA,NA,NA,NA,NA,NA,false
nAlmlGiz,33ixyhizc8v0km0rv7j1cbq82t9e2g,3f6hpjw4jhdwo6kc79i9n1t0lnm2wb,nAlmlGiz,2020-0188,2020-11-11,01:05:48,01:51:33,NA,incomplete,72,filling,1,left,Purple_Triangle_Grid_3.jpg,Red_Star_Grid_4.jpg,Green_Circle_Stripes_3.jpg,right,391.0699999979697,false,low,NA,NA,NA,NA,NA,NA,NA,false
nAlmlGiz,33ixyhizc8v0km0rv7j1cbq82t9e2g,3f6hpjw4jhdwo6kc79i9n1t0lnm2wb,nAlmlGiz,2020-0188,2020-11-11,01:05:48,01:51:33,NA,incomplete,73,filling,1,left,Blue_Star_Grid_3.jpg,Green_Circle_Grid_2.jpg,Purple_Triangle_Dots_3.jpg,left,233.73500000173226,true,low,NA,NA,NA,NA,NA,NA,NA,false
nAlmlGiz,33ixyhizc8v0km0rv7j1cbq82t9e2g,3f6hpjw4jhdwo6kc79i9n1t0lnm2wb,nAlmlGiz,2020-0188,2020-11-11,01:05:48,01:51:33,NA,incomplete,74,filling,1,left,Purple_Plus_Chess_1.jpg,Blue_Triangle_Chess_3.jpg,Green_Circle_Stripes_1.jpg,right,1055.2800000007264,false,low,NA,NA,NA,NA,NA,NA,NA,false
nAlmlGiz,33ixyhizc8v0km0rv7j1cbq82t9e2g,3f6hpjw4jhdwo6kc79i9n1t0lnm2wb,nAlmlGiz,2020-0188,2020-11-11,01:05:48,01:51:33,NA,incomplete,75,filling,1,right,Blue_Triangle_Stripes_2.jpg,Green_Star_Dots_2.jpg,Red_Plus_Stripes_3.jpg,left,601.3849999946542,false,low,NA,NA,NA,NA,NA,NA,NA,false
nAlmlGiz,33ixyhizc8v0km0rv7j1cbq82t9e2g,3f6hpjw4jhdwo6kc79i9n1t0lnm2wb,nAlmlGiz,2020-0188,2020-11-11,01:05:48,01:51:33,NA,incomplete,76,filling,1,right,Purple_Star_Chess_4.jpg,Blue_Plus_Dots_4.jpg,Green_Triangle_Chess_3.jpg,left,1216.8250000029802,false,low,NA,NA,NA,NA,NA,NA,NA,false
nAlmlGiz,33ixyhizc8v0km0rv7j1cbq82t9e2g,3f6hpjw4jhdwo6kc79i9n1t0lnm2wb,nAlmlGiz,2020-0188,2020-11-11,01:05:48,01:51:33,NA,incomplete,77,filling,1,left,Purple_Plus_Dots_1.jpg,Blue_Triangle_Dots_3.jpg,Green_Circle_Chess_1.jpg,right,1463.0499999984168,false,low,NA,NA,NA,NA,NA,NA,NA,false
nAlmlGiz,33ixyhizc8v0km0rv7j1cbq82t9e2g,3f6hpjw4jhdwo6kc79i9n1t0lnm2wb,nAlmlGiz,2020-0188,2020-11-11,01:05:48,01:51:33,NA,incomplete,78,filling,1,right,Purple_Star_Dots_4.jpg,Blue_Plus_Chess_4.jpg,Red_Circle_Dots_3.jpg,right,1392.9150000042282,true,low,NA,NA,NA,NA,NA,NA,NA,false
nAlmlGiz,33ixyhizc8v0km0rv7j1cbq82t9e2g,3f6hpjw4jhdwo6kc79i9n1t0lnm2wb,nAlmlGiz,2020-0188,2020-11-11,01:05:48,01:51:33,NA,incomplete,79,filling,1,right,Red_Triangle_Chess_4.jpg,Blue_Star_Dots_4.jpg,Green_Circle_Chess_2.jpg,right,399.1000000019558,true,low,NA,NA,NA,NA,NA,NA,NA,false
nAlmlGiz,33ixyhizc8v0km0rv7j1cbq82t9e2g,3f6hpjw4jhdwo6kc79i9n1t0lnm2wb,nAlmlGiz,2020-0188,2020-11-11,01:05:48,01:51:33,NA,incomplete,80,filling,1,right,Green_Circle_Dots_3.jpg,Blue_Star_Stripes_3.jpg,Purple_Plus_Dots_2.jpg,right,899.7149999993853,true,low,NA,NA,NA,NA,NA,NA,NA,false
nAlmlGiz,33ixyhizc8v0km0rv7j1cbq82t9e2g,3f6hpjw4jhdwo6kc79i9n1t0lnm2wb,nAlmlGiz,2020-0188,2020-11-11,01:05:48,01:51:33,NA,incomplete,81,filling,1,right,Purple_Plus_Grid_1.jpg,Green_Star_Dots_1.jpg,Red_Circle_Grid_4.jpg,right,927.8800000026822,true,low,NA,NA,NA,NA,NA,NA,NA,false
nAlmlGiz,33ixyhizc8v0km0rv7j1cbq82t9e2g,3f6hpjw4jhdwo6kc79i9n1t0lnm2wb,nAlmlGiz,2020-0188,2020-11-11,01:05:48,01:51:33,NA,incomplete,82,filling,0,right,Purple_Circle_Dots_4.jpg,Red_Triangle_Grid_4.jpg,Green_Star_Dots_2.jpg,right,900.3950000042096,true,low,NA,NA,NA,NA,NA,NA,NA,false
nAlmlGiz,33ixyhizc8v0km0rv7j1cbq82t9e2g,3f6hpjw4jhdwo6kc79i9n1t0lnm2wb,nAlmlGiz,2020-0188,2020-11-11,01:05:48,01:51:33,NA,incomplete,83,filling,1,right,Green_Star_Dots_4.jpg,Blue_Plus_Grid_4.jpg,Red_Triangle_Dots_3.jpg,right,316.48500000312924,true,low,NA,NA,NA,NA,NA,NA,NA,false
nAlmlGiz,33ixyhizc8v0km0rv7j1cbq82t9e2g,3f6hpjw4jhdwo6kc79i9n1t0lnm2wb,nAlmlGiz,2020-0188,2020-11-11,01:05:48,01:51:33,NA,incomplete,84,filling,1,right,Green_Plus_Stripes_4.jpg,Blue_Star_Grid_4.jpg,Red_Triangle_Stripes_3.jpg,right,913.8800000003539,true,low,NA,NA,NA,NA,NA,NA,NA,false
nAlmlGiz,33ixyhizc8v0km0rv7j1cbq82t9e2g,3f6hpjw4jhdwo6kc79i9n1t0lnm2wb,nAlmlGiz,2020-0188,2020-11-11,01:05:48,01:51:33,NA,incomplete,85,filling,0,left,Red_Triangle_Grid_4.jpg,Blue_Star_Grid_1.jpg,Purple_Plus_Dots_4.jpg,none,0,false,low,NA,NA,NA,NA,NA,NA,NA,false
nAlmlGiz,33ixyhizc8v0km0rv7j1cbq82t9e2g,3f6hpjw4jhdwo6kc79i9n1t0lnm2wb,nAlmlGiz,2020-0188,2020-11-11,01:05:48,01:51:33,NA,incomplete,86,filling,1,right,Red_Plus_Chess_3.jpg,Purple_Circle_Stripes_3.jpg,Green_Triangle_Chess_1.jpg,right,871.480000001844,true,low,NA,NA,NA,NA,NA,NA,NA,false
nAlmlGiz,33ixyhizc8v0km0rv7j1cbq82t9e2g,3f6hpjw4jhdwo6kc79i9n1t0lnm2wb,nAlmlGiz,2020-0188,2020-11-11,01:05:48,01:51:33,NA,incomplete,87,filling,1,left,Red_Circle_Dots_1.jpg,Blue_Star_Dots_2.jpg,Green_Triangle_Grid_1.jpg,left,828.2849999959581,true,low,NA,NA,NA,NA,NA,NA,NA,false
nAlmlGiz,33ixyhizc8v0km0rv7j1cbq82t9e2g,3f6hpjw4jhdwo6kc79i9n1t0lnm2wb,nAlmlGiz,2020-0188,2020-11-11,01:05:48,01:51:33,NA,incomplete,88,filling,1,left,Blue_Star_Chess_2.jpg,Red_Triangle_Chess_4.jpg,Green_Circle_Dots_2.jpg,left,747.7949999957345,true,low,NA,NA,NA,NA,NA,NA,NA,false
nAlmlGiz,33ixyhizc8v0km0rv7j1cbq82t9e2g,3f6hpjw4jhdwo6kc79i9n1t0lnm2wb,nAlmlGiz,2020-0188,2020-11-11,01:05:48,01:51:33,NA,incomplete,89,filling,0,right,Red_Star_Chess_1.jpg,Purple_Triangle_Stripes_1.jpg,Blue_Plus_Chess_2.jpg,right,832.6650000014342,true,low,NA,NA,NA,NA,NA,NA,NA,false
nAlmlGiz,33ixyhizc8v0km0rv7j1cbq82t9e2g,3f6hpjw4jhdwo6kc79i9n1t0lnm2wb,nAlmlGiz,2020-0188,2020-11-11,01:05:48,01:51:33,NA,incomplete,90,number,1,right,Red_Star_Grid_3.jpg,Blue_Triangle_Grid_1.jpg,Purple_Plus_Stripes_3.jpg,left,1100.194999998901,false,low,NA,NA,NA,NA,NA,NA,NA,false
nAlmlGiz,33ixyhizc8v0km0rv7j1cbq82t9e2g,3f6hpjw4jhdwo6kc79i9n1t0lnm2wb,nAlmlGiz,2020-0188,2020-11-11,01:05:48,01:51:33,NA,incomplete,91,number,0,left,Purple_Triangle_Chess_1.jpg,Blue_Star_Stripes_1.jpg,Green_Plus_Chess_3.jpg,right,640.7650000038557,false,low,NA,NA,NA,NA,NA,NA,NA,false
nAlmlGiz,33ixyhizc8v0km0rv7j1cbq82t9e2g,3f6hpjw4jhdwo6kc79i9n1t0lnm2wb,nAlmlGiz,2020-0188,2020-11-11,01:05:48,01:51:33,NA,incomplete,92,number,1,right,Red_Circle_Grid_4.jpg,Green_Triangle_Grid_3.jpg,Blue_Plus_Stripes_4.jpg,left,1275.269999998156,false,low,NA,NA,NA,NA,NA,NA,NA,false
nAlmlGiz,33ixyhizc8v0km0rv7j1cbq82t9e2g,3f6hpjw4jhdwo6kc79i9n1t0lnm2wb,nAlmlGiz,2020-0188,2020-11-11,01:05:48,01:51:33,NA,incomplete,93,number,0,left,Blue_Triangle_Dots_3.jpg,Purple_Star_Stripes_3.jpg,Green_Plus_Dots_1.jpg,right,896.5250000036322,false,low,NA,NA,NA,NA,NA,NA,NA,false
nAlmlGiz,33ixyhizc8v0km0rv7j1cbq82t9e2g,3f6hpjw4jhdwo6kc79i9n1t0lnm2wb,nAlmlGiz,2020-0188,2020-11-11,01:05:48,01:51:33,NA,incomplete,94,number,1,left,Blue_Triangle_Stripes_2.jpg,Purple_Plus_Dots_2.jpg,Green_Circle_Stripes_1.jpg,right,589.4000000045635,false,low,NA,NA,NA,NA,NA,NA,NA,false
nAlmlGiz,33ixyhizc8v0km0rv7j1cbq82t9e2g,3f6hpjw4jhdwo6kc79i9n1t0lnm2wb,nAlmlGiz,2020-0188,2020-11-11,01:05:48,01:51:33,NA,incomplete,95,number,0,left,Purple_Star_Stripes_2.jpg,Blue_Plus_Chess_2.jpg,Red_Circle_Stripes_4.jpg,none,0,false,low,NA,NA,NA,NA,NA,NA,NA,false
nAlmlGiz,33ixyhizc8v0km0rv7j1cbq82t9e2g,3f6hpjw4jhdwo6kc79i9n1t0lnm2wb,nAlmlGiz,2020-0188,2020-11-11,01:05:48,01:51:33,NA,incomplete,96,number,1,right,Green_Triangle_Chess_3.jpg,Blue_Star_Chess_4.jpg,Purple_Circle_Grid_3.jpg,right,993.8600000021979,true,low,NA,NA,NA,NA,NA,NA,NA,false
nAlmlGiz,33ixyhizc8v0km0rv7j1cbq82t9e2g,3f6hpjw4jhdwo6kc79i9n1t0lnm2wb,nAlmlGiz,2020-0188,2020-11-11,01:05:48,01:51:33,NA,incomplete,97,number,0,right,Purple_Circle_Dots_2.jpg,Red_Triangle_Dots_4.jpg,Green_Star_Stripes_2.jpg,right,351.49500000244007,true,low,NA,NA,NA,NA,NA,NA,NA,false
nAlmlGiz,33ixyhizc8v0km0rv7j1cbq82t9e2g,3f6hpjw4jhdwo6kc79i9n1t0lnm2wb,nAlmlGiz,2020-0188,2020-11-11,01:05:48,01:51:33,NA,incomplete,98,number,0,right,Red_Triangle_Dots_1.jpg,Green_Plus_Dots_3.jpg,Blue_Star_Stripes_1.jpg,left,209.08000000054017,false,low,NA,NA,NA,NA,NA,NA,NA,false
nAlmlGiz,33ixyhizc8v0km0rv7j1cbq82t9e2g,3f6hpjw4jhdwo6kc79i9n1t0lnm2wb,nAlmlGiz,2020-0188,2020-11-11,01:05:48,01:51:33,NA,incomplete,99,number,1,right,Purple_Triangle_Chess_3.jpg,Green_Circle_Chess_1.jpg,Blue_Plus_Dots_3.jpg,left,593.0849999929778,false,low,NA,NA,NA,NA,NA,NA,NA,false
nAlmlGiz,33ixyhizc8v0km0rv7j1cbq82t9e2g,3f6hpjw4jhdwo6kc79i9n1t0lnm2wb,nAlmlGiz,2020-0188,2020-11-11,01:05:48,01:51:33,NA,incomplete,100,number,1,left,Green_Triangle_Chess_1.jpg,Purple_Plus_Dots_1.jpg,Red_Star_Chess_3.jpg,right,170.2949999962002,false,low,NA,NA,NA,NA,NA,NA,NA,false
nAlmlGiz,33ixyhizc8v0km0rv7j1cbq82t9e2g,3f6hpjw4jhdwo6kc79i9n1t0lnm2wb,nAlmlGiz,2020-0188,2020-11-11,01:05:48,01:51:33,NA,incomplete,101,number,1,right,Blue_Triangle_Chess_3.jpg,Green_Star_Chess_4.jpg,Red_Circle_Dots_3.jpg,left,464.214999999851,false,low,NA,NA,NA,NA,NA,NA,NA,false
nAlmlGiz,33ixyhizc8v0km0rv7j1cbq82t9e2g,3f6hpjw4jhdwo6kc79i9n1t0lnm2wb,nAlmlGiz,2020-0188,2020-11-11,01:05:48,01:51:33,NA,incomplete,102,number,1,left,Purple_Plus_Dots_4.jpg,Blue_Star_Stripes_4.jpg,Green_Circle_Dots_3.jpg,right,431.6350000007078,false,low,NA,NA,NA,NA,NA,NA,NA,false
nAlmlGiz,33ixyhizc8v0km0rv7j1cbq82t9e2g,3f6hpjw4jhdwo6kc79i9n1t0lnm2wb,nAlmlGiz,2020-0188,2020-11-11,01:05:48,01:51:33,NA,incomplete,103,number,0,left,Purple_Circle_Dots_1.jpg,Green_Star_Stripes_1.jpg,Red_Triangle_Dots_2.jpg,left,1472.3299999968149,true,low,NA,NA,NA,NA,NA,NA,NA,false
nAlmlGiz,33ixyhizc8v0km0rv7j1cbq82t9e2g,3f6hpjw4jhdwo6kc79i9n1t0lnm2wb,nAlmlGiz,2020-0188,2020-11-11,01:05:48,01:51:33,NA,incomplete,104,number,0,right,Green_Plus_Chess_4.jpg,Red_Circle_Chess_3.jpg,Blue_Star_Grid_4.jpg,left,838.4150000056252,false,low,NA,NA,NA,NA,NA,NA,NA,false
nAlmlGiz,33ixyhizc8v0km0rv7j1cbq82t9e2g,3f6hpjw4jhdwo6kc79i9n1t0lnm2wb,nAlmlGiz,2020-0188,2020-11-11,01:05:48,01:51:33,NA,incomplete,105,number,1,right,Blue_Plus_Dots_1.jpg,Red_Triangle_Dots_4.jpg,Green_Star_Chess_1.jpg,left,941.5499999960884,false,low,NA,NA,NA,NA,NA,NA,NA,false
nAlmlGiz,33ixyhizc8v0km0rv7j1cbq82t9e2g,3f6hpjw4jhdwo6kc79i9n1t0lnm2wb,nAlmlGiz,2020-0188,2020-11-11,01:05:48,01:51:33,NA,incomplete,106,number,1,right,Blue_Triangle_Chess_2.jpg,Green_Circle_Chess_3.jpg,Red_Plus_Stripes_2.jpg,left,1642.940000005532,false,low,NA,NA,NA,NA,NA,NA,NA,false
nAlmlGiz,33ixyhizc8v0km0rv7j1cbq82t9e2g,3f6hpjw4jhdwo6kc79i9n1t0lnm2wb,nAlmlGiz,2020-0188,2020-11-11,01:05:48,01:51:33,NA,incomplete,107,number,1,left,Red_Triangle_Dots_3.jpg,Purple_Circle_Stripes_3.jpg,Green_Plus_Dots_1.jpg,right,1012.0949999983422,false,low,NA,NA,NA,NA,NA,NA,NA,false
nAlmlGiz,33ixyhizc8v0km0rv7j1cbq82t9e2g,3f6hpjw4jhdwo6kc79i9n1t0lnm2wb,nAlmlGiz,2020-0188,2020-11-11,01:05:48,01:51:33,NA,incomplete,108,number,1,right,Red_Star_Grid_3.jpg,Blue_Triangle_Grid_2.jpg,Green_Circle_Dots_3.jpg,left,832.3950000046752,false,low,NA,NA,NA,NA,NA,NA,NA,false
nAlmlGiz,33ixyhizc8v0km0rv7j1cbq82t9e2g,3f6hpjw4jhdwo6kc79i9n1t0lnm2wb,nAlmlGiz,2020-0188,2020-11-11,01:05:48,01:51:33,NA,incomplete,109,number,1,right,Blue_Plus_Grid_1.jpg,Green_Triangle_Grid_2.jpg,Purple_Star_Chess_1.jpg,left,395.1299999970943,false,low,NA,NA,NA,NA,NA,NA,NA,false
nAlmlGiz,33ixyhizc8v0km0rv7j1cbq82t9e2g,3f6hpjw4jhdwo6kc79i9n1t0lnm2wb,nAlmlGiz,2020-0188,2020-11-11,01:05:48,01:51:33,NA,incomplete,110,number,1,left,Blue_Circle_Stripes_2.jpg,Purple_Triangle_Dots_2.jpg,Red_Star_Stripes_4.jpg,none,0,false,low,NA,NA,NA,NA,NA,NA,NA,false
nAlmlGiz,33ixyhizc8v0km0rv7j1cbq82t9e2g,3f6hpjw4jhdwo6kc79i9n1t0lnm2wb,nAlmlGiz,2020-0188,2020-11-11,01:05:48,01:51:33,NA,incomplete,111,number,1,right,Red_Star_Stripes_3.jpg,Blue_Plus_Stripes_1.jpg,Green_Triangle_Dots_3.jpg,right,403.79999999981374,true,low,NA,NA,NA,NA,NA,NA,NA,false
nAlmlGiz,33ixyhizc8v0km0rv7j1cbq82t9e2g,3f6hpjw4jhdwo6kc79i9n1t0lnm2wb,nAlmlGiz,2020-0188,2020-11-11,01:05:48,01:51:33,NA,incomplete,112,number,1,left,Red_Star_Chess_4.jpg,Green_Triangle_Grid_4.jpg,Blue_Circle_Chess_3.jpg,right,1228.4249999942258,false,low,NA,NA,NA,NA,NA,NA,NA,false
nAlmlGiz,33ixyhizc8v0km0rv7j1cbq82t9e2g,3f6hpjw4jhdwo6kc79i9n1t0lnm2wb,nAlmlGiz,2020-0188,2020-11-11,01:05:48,01:51:33,NA,incomplete,113,number,1,right,Red_Circle_Stripes_3.jpg,Green_Triangle_Stripes_1.jpg,Blue_Plus_Grid_3.jpg,right,291.64500000467524,true,low,NA,NA,NA,NA,NA,NA,NA,false
nAlmlGiz,33ixyhizc8v0km0rv7j1cbq82t9e2g,3f6hpjw4jhdwo6kc79i9n1t0lnm2wb,nAlmlGiz,2020-0188,2020-11-11,01:05:48,01:51:33,NA,incomplete,114,number,1,right,Green_Triangle_Dots_3.jpg,Blue_Circle_Dots_4.jpg,Red_Plus_Chess_3.jpg,right,833.2149999989197,true,low,NA,NA,NA,NA,NA,NA,NA,false
nAlmlGiz,33ixyhizc8v0km0rv7j1cbq82t9e2g,3f6hpjw4jhdwo6kc79i9n1t0lnm2wb,nAlmlGiz,2020-0188,2020-11-11,01:05:48,01:51:33,NA,incomplete,115,number,1,right,Purple_Triangle_Chess_4.jpg,Green_Circle_Chess_2.jpg,Blue_Star_Grid_4.jpg,none,0,false,low,NA,NA,NA,NA,NA,NA,NA,false
nAlmlGiz,33ixyhizc8v0km0rv7j1cbq82t9e2g,3f6hpjw4jhdwo6kc79i9n1t0lnm2wb,nAlmlGiz,2020-0188,2020-11-11,01:05:48,01:51:33,NA,incomplete,116,number,1,left,Red_Plus_Stripes_1.jpg,Green_Circle_Dots_1.jpg,Blue_Triangle_Stripes_4.jpg,right,313.10500000137836,false,low,NA,NA,NA,NA,NA,NA,NA,false
nAlmlGiz,33ixyhizc8v0km0rv7j1cbq82t9e2g,3f6hpjw4jhdwo6kc79i9n1t0lnm2wb,nAlmlGiz,2020-0188,2020-11-11,01:05:48,01:51:33,NA,incomplete,117,number,1,left,Green_Circle_Chess_3.jpg,Blue_Triangle_Stripes_3.jpg,Red_Star_Chess_4.jpg,right,291.14000000152737,false,low,NA,NA,NA,NA,NA,NA,NA,false
nAlmlGiz,33ixyhizc8v0km0rv7j1cbq82t9e2g,3f6hpjw4jhdwo6kc79i9n1t0lnm2wb,nAlmlGiz,2020-0188,2020-11-11,01:05:48,01:51:33,NA,incomplete,118,number,1,left,Purple_Plus_Grid_3.jpg,Red_Circle_Chess_3.jpg,Blue_Star_Grid_2.jpg,left,389.0449999962002,true,low,NA,NA,NA,NA,NA,NA,NA,false
nAlmlGiz,33ixyhizc8v0km0rv7j1cbq82t9e2g,3f6hpjw4jhdwo6kc79i9n1t0lnm2wb,nAlmlGiz,2020-0188,2020-11-11,01:05:48,01:51:33,NA,incomplete,119,number,1,right,Green_Plus_Stripes_1.jpg,Red_Circle_Stripes_2.jpg,Blue_Star_Grid_1.jpg,left,426.5650000013411,false,low,NA,NA,NA,NA,NA,NA,NA,false
nAlmlGiz,33ixyhizc8v0km0rv7j1cbq82t9e2g,3f6hpjw4jhdwo6kc79i9n1t0lnm2wb,nAlmlGiz,2020-0188,2020-11-11,01:05:48,01:51:33,NA,incomplete,120,filling,0,right,Red_Triangle_Grid_2.jpg,Purple_Star_Dots_2.jpg,Blue_Plus_Grid_3.jpg,right,514.2899999991059,true,low,NA,NA,NA,NA,NA,NA,NA,false
nAlmlGiz,33ixyhizc8v0km0rv7j1cbq82t9e2g,3f6hpjw4jhdwo6kc79i9n1t0lnm2wb,nAlmlGiz,2020-0188,2020-11-11,01:05:48,01:51:33,NA,incomplete,121,filling,1,right,Red_Triangle_Chess_1.jpg,Purple_Plus_Dots_1.jpg,Blue_Star_Chess_4.jpg,left,718.1100000012666,false,low,NA,NA,NA,NA,NA,NA,NA,false
nAlmlGiz,33ixyhizc8v0km0rv7j1cbq82t9e2g,3f6hpjw4jhdwo6kc79i9n1t0lnm2wb,nAlmlGiz,2020-0188,2020-11-11,01:05:48,01:51:33,NA,incomplete,122,filling,1,left,Blue_Star_Grid_4.jpg,Green_Triangle_Grid_3.jpg,Purple_Circle_Stripes_4.jpg,left,312.91999999666587,true,low,NA,NA,NA,NA,NA,NA,NA,false
nAlmlGiz,33ixyhizc8v0km0rv7j1cbq82t9e2g,3f6hpjw4jhdwo6kc79i9n1t0lnm2wb,nAlmlGiz,2020-0188,2020-11-11,01:05:48,01:51:33,NA,incomplete,123,filling,0,right,Red_Plus_Dots_2.jpg,Green_Triangle_Stripes_2.jpg,Blue_Circle_Dots_4.jpg,left,500.9700000011362,false,low,NA,NA,NA,NA,NA,NA,NA,false
nAlmlGiz,33ixyhizc8v0km0rv7j1cbq82t9e2g,3f6hpjw4jhdwo6kc79i9n1t0lnm2wb,nAlmlGiz,2020-0188,2020-11-11,01:05:48,01:51:33,NA,incomplete,124,filling,1,left,Green_Triangle_Grid_3.jpg,Blue_Plus_Grid_1.jpg,Purple_Star_Dots_3.jpg,left,753.1899999957532,true,low,NA,NA,NA,NA,NA,NA,NA,false
nAlmlGiz,33ixyhizc8v0km0rv7j1cbq82t9e2g,3f6hpjw4jhdwo6kc79i9n1t0lnm2wb,nAlmlGiz,2020-0188,2020-11-11,01:05:48,01:51:33,NA,incomplete,125,filling,1,right,Green_Triangle_Grid_2.jpg,Blue_Star_Stripes_2.jpg,Red_Circle_Grid_1.jpg,none,0,false,low,NA,NA,NA,NA,NA,NA,NA,false
nAlmlGiz,33ixyhizc8v0km0rv7j1cbq82t9e2g,3f6hpjw4jhdwo6kc79i9n1t0lnm2wb,nAlmlGiz,2020-0188,2020-11-11,01:05:48,01:51:33,NA,incomplete,126,filling,0,right,Purple_Plus_Stripes_2.jpg,Red_Circle_Grid_2.jpg,Green_Triangle_Stripes_3.jpg,left,264.374999998603,false,low,NA,NA,NA,NA,NA,NA,NA,false
nAlmlGiz,33ixyhizc8v0km0rv7j1cbq82t9e2g,3f6hpjw4jhdwo6kc79i9n1t0lnm2wb,nAlmlGiz,2020-0188,2020-11-11,01:05:48,01:51:33,NA,incomplete,127,filling,1,right,Red_Plus_Grid_1.jpg,Purple_Triangle_Stripes_1.jpg,Green_Circle_Grid_2.jpg,right,1198.7500000032596,true,low,NA,NA,NA,NA,NA,NA,NA,false
nAlmlGiz,33ixyhizc8v0km0rv7j1cbq82t9e2g,3f6hpjw4jhdwo6kc79i9n1t0lnm2wb,nAlmlGiz,2020-0188,2020-11-11,01:05:48,01:51:33,NA,incomplete,128,filling,1,left,Green_Circle_Grid_1.jpg,Red_Plus_Grid_3.jpg,Blue_Star_Dots_1.jpg,right,1320.6700000008568,false,low,NA,NA,NA,NA,NA,NA,NA,false
nAlmlGiz,33ixyhizc8v0km0rv7j1cbq82t9e2g,3f6hpjw4jhdwo6kc79i9n1t0lnm2wb,nAlmlGiz,2020-0188,2020-11-11,01:05:48,01:51:33,NA,incomplete,129,filling,0,right,Blue_Plus_Stripes_3.jpg,Purple_Circle_Dots_3.jpg,Red_Star_Stripes_2.jpg,left,52.110000004060566,false,low,NA,NA,NA,NA,NA,NA,NA,false
nAlmlGiz,33ixyhizc8v0km0rv7j1cbq82t9e2g,3f6hpjw4jhdwo6kc79i9n1t0lnm2wb,nAlmlGiz,2020-0188,2020-11-11,01:05:48,01:51:33,NA,incomplete,130,filling,1,right,Blue_Plus_Grid_3.jpg,Red_Star_Chess_3.jpg,Purple_Triangle_Grid_4.jpg,left,1208.1050000051036,false,low,NA,NA,NA,NA,NA,NA,NA,false
nAlmlGiz,33ixyhizc8v0km0rv7j1cbq82t9e2g,3f6hpjw4jhdwo6kc79i9n1t0lnm2wb,nAlmlGiz,2020-0188,2020-11-11,01:05:48,01:51:33,NA,incomplete,131,filling,1,left,Red_Triangle_Grid_3.jpg,Purple_Circle_Grid_4.jpg,Green_Star_Chess_3.jpg,right,434.320000000298,false,low,NA,NA,NA,NA,NA,NA,NA,false
nAlmlGiz,33ixyhizc8v0km0rv7j1cbq82t9e2g,3f6hpjw4jhdwo6kc79i9n1t0lnm2wb,nAlmlGiz,2020-0188,2020-11-11,01:05:48,01:51:33,NA,incomplete,132,filling,1,left,Blue_Star_Grid_2.jpg,Red_Plus_Grid_4.jpg,Purple_Triangle_Dots_2.jpg,right,732.3549999999814,false,low,NA,NA,NA,NA,NA,NA,NA,false
nAlmlGiz,33ixyhizc8v0km0rv7j1cbq82t9e2g,3f6hpjw4jhdwo6kc79i9n1t0lnm2wb,nAlmlGiz,2020-0188,2020-11-11,01:05:48,01:51:33,NA,incomplete,133,filling,0,left,Blue_Plus_Dots_4.jpg,Purple_Circle_Dots_1.jpg,Green_Star_Stripes_4.jpg,right,1849.3349999990314,false,low,NA,NA,NA,NA,NA,NA,NA,false
nAlmlGiz,33ixyhizc8v0km0rv7j1cbq82t9e2g,3f6hpjw4jhdwo6kc79i9n1t0lnm2wb,nAlmlGiz,2020-0188,2020-11-11,01:05:48,01:51:33,NA,incomplete,134,filling,1,right,Blue_Plus_Stripes_2.jpg,Red_Triangle_Grid_2.jpg,Green_Circle_Stripes_4.jpg,none,0,false,low,NA,NA,NA,NA,NA,NA,NA,false
nAlmlGiz,33ixyhizc8v0km0rv7j1cbq82t9e2g,3f6hpjw4jhdwo6kc79i9n1t0lnm2wb,nAlmlGiz,2020-0188,2020-11-11,01:05:48,01:51:33,NA,incomplete,135,filling,1,right,Red_Triangle_Chess_2.jpg,Green_Star_Stripes_2.jpg,Blue_Plus_Chess_1.jpg,left,685.2250000010245,false,low,NA,NA,NA,NA,NA,NA,NA,false
nAlmlGiz,33ixyhizc8v0km0rv7j1cbq82t9e2g,3f6hpjw4jhdwo6kc79i9n1t0lnm2wb,nAlmlGiz,2020-0188,2020-11-11,01:05:48,01:51:33,NA,incomplete,136,filling,1,left,Purple_Plus_Dots_4.jpg,Green_Triangle_Dots_2.jpg,Blue_Circle_Chess_4.jpg,right,1385.894999999553,false,low,NA,NA,NA,NA,NA,NA,NA,false
nAlmlGiz,33ixyhizc8v0km0rv7j1cbq82t9e2g,3f6hpjw4jhdwo6kc79i9n1t0lnm2wb,nAlmlGiz,2020-0188,2020-11-11,01:05:48,01:51:33,NA,incomplete,137,filling,0,right,Red_Star_Grid_1.jpg,Purple_Plus_Dots_1.jpg,Blue_Circle_Grid_3.jpg,left,84.01999999489635,false,low,NA,NA,NA,NA,NA,NA,NA,false
nAlmlGiz,33ixyhizc8v0km0rv7j1cbq82t9e2g,3f6hpjw4jhdwo6kc79i9n1t0lnm2wb,nAlmlGiz,2020-0188,2020-11-11,01:05:48,01:51:33,NA,incomplete,138,filling,1,right,Red_Triangle_Grid_1.jpg,Green_Circle_Stripes_1.jpg,Blue_Plus_Grid_4.jpg,left,1057.6000000000931,false,low,NA,NA,NA,NA,NA,NA,NA,false
nAlmlGiz,33ixyhizc8v0km0rv7j1cbq82t9e2g,3f6hpjw4jhdwo6kc79i9n1t0lnm2wb,nAlmlGiz,2020-0188,2020-11-11,01:05:48,01:51:33,NA,incomplete,139,filling,1,right,Green_Plus_Stripes_3.jpg,Red_Circle_Dots_3.jpg,Purple_Star_Stripes_2.jpg,right,284.77999999467283,true,low,NA,NA,NA,NA,NA,NA,NA,false
nAlmlGiz,33ixyhizc8v0km0rv7j1cbq82t9e2g,3f6hpjw4jhdwo6kc79i9n1t0lnm2wb,nAlmlGiz,2020-0188,2020-11-11,01:05:48,01:51:33,NA,incomplete,140,number,1,right,Green_Circle_Grid_4.jpg,Purple_Triangle_Grid_1.jpg,Red_Star_Stripes_4.jpg,left,479.46000000229105,false,low,NA,NA,NA,NA,NA,NA,NA,false
nAlmlGiz,33ixyhizc8v0km0rv7j1cbq82t9e2g,3f6hpjw4jhdwo6kc79i9n1t0lnm2wb,nAlmlGiz,2020-0188,2020-11-11,01:05:48,01:51:33,NA,incomplete,141,number,0,left,Purple_Plus_Grid_2.jpg,Blue_Star_Dots_2.jpg,Green_Triangle_Grid_4.jpg,right,391.054999999702,false,low,NA,NA,NA,NA,NA,NA,NA,false
nAlmlGiz,33ixyhizc8v0km0rv7j1cbq82t9e2g,3f6hpjw4jhdwo6kc79i9n1t0lnm2wb,nAlmlGiz,2020-0188,2020-11-11,01:05:48,01:51:33,NA,incomplete,142,number,1,right,Blue_Plus_Stripes_1.jpg,Green_Circle_Stripes_4.jpg,Purple_Star_Chess_1.jpg,left,481.65999999735504,false,low,NA,NA,NA,NA,NA,NA,NA,false
nAlmlGiz,33ixyhizc8v0km0rv7j1cbq82t9e2g,3f6hpjw4jhdwo6kc79i9n1t0lnm2wb,nAlmlGiz,2020-0188,2020-11-11,01:05:48,01:51:33,NA,incomplete,143,number,0,left,Purple_Circle_Dots_2.jpg,Green_Plus_Chess_2.jpg,Blue_Triangle_Dots_3.jpg,right,543.280000005383,false,low,NA,NA,NA,NA,NA,NA,NA,false
nAlmlGiz,33ixyhizc8v0km0rv7j1cbq82t9e2g,3f6hpjw4jhdwo6kc79i9n1t0lnm2wb,nAlmlGiz,2020-0188,2020-11-11,01:05:48,01:51:33,NA,incomplete,144,number,1,right,Blue_Star_Chess_3.jpg,Purple_Plus_Chess_1.jpg,Red_Circle_Stripes_3.jpg,right,446.2950000013225,true,low,NA,NA,NA,NA,NA,NA,NA,false
nAlmlGiz,33ixyhizc8v0km0rv7j1cbq82t9e2g,3f6hpjw4jhdwo6kc79i9n1t0lnm2wb,nAlmlGiz,2020-0188,2020-11-11,01:05:48,01:51:33,NA,incomplete,145,number,1,left,Red_Plus_Chess_4.jpg,Green_Circle_Grid_4.jpg,Blue_Star_Chess_1.jpg,right,249.9150000005029,false,low,NA,NA,NA,NA,NA,NA,NA,false
nAlmlGiz,33ixyhizc8v0km0rv7j1cbq82t9e2g,3f6hpjw4jhdwo6kc79i9n1t0lnm2wb,nAlmlGiz,2020-0188,2020-11-11,01:05:48,01:51:33,NA,incomplete,146,number,1,left,Purple_Star_Chess_4.jpg,Red_Plus_Grid_4.jpg,Blue_Circle_Chess_3.jpg,left,229.13000000687316,true,low,NA,NA,NA,NA,NA,NA,NA,false
nAlmlGiz,33ixyhizc8v0km0rv7j1cbq82t9e2g,3f6hpjw4jhdwo6kc79i9n1t0lnm2wb,nAlmlGiz,2020-0188,2020-11-11,01:05:48,01:51:33,NA,incomplete,147,number,1,right,Blue_Plus_Chess_2.jpg,Purple_Circle_Chess_4.jpg,Green_Star_Stripes_2.jpg,left,406.68499999446794,false,low,NA,NA,NA,NA,NA,NA,NA,false
nAlmlGiz,33ixyhizc8v0km0rv7j1cbq82t9e2g,3f6hpjw4jhdwo6kc79i9n1t0lnm2wb,nAlmlGiz,2020-0188,2020-11-11,01:05:48,01:51:33,NA,incomplete,148,number,0,left,Green_Star_Dots_4.jpg,Blue_Plus_Stripes_4.jpg,Red_Triangle_Dots_1.jpg,right,231.0799999977462,false,low,NA,NA,NA,NA,NA,NA,NA,false
nAlmlGiz,33ixyhizc8v0km0rv7j1cbq82t9e2g,3f6hpjw4jhdwo6kc79i9n1t0lnm2wb,nAlmlGiz,2020-0188,2020-11-11,01:05:48,01:51:33,NA,incomplete,149,number,1,left,Purple_Circle_Chess_3.jpg,Green_Triangle_Stripes_3.jpg,Blue_Plus_Chess_1.jpg,right,171.77000000094995,false,low,NA,NA,NA,NA,NA,NA,NA,false
nAlmlGiz,33ixyhizc8v0km0rv7j1cbq82t9e2g,3f6hpjw4jhdwo6kc79i9n1t0lnm2wb,nAlmlGiz,2020-0188,2020-11-11,01:05:48,01:51:33,NA,incomplete,150,number,1,left,Purple_Triangle_Dots_2.jpg,Red_Star_Stripes_2.jpg,Green_Plus_Dots_4.jpg,left,415.73000000044703,true,low,NA,NA,NA,NA,NA,NA,NA,false
nAlmlGiz,33ixyhizc8v0km0rv7j1cbq82t9e2g,3f6hpjw4jhdwo6kc79i9n1t0lnm2wb,nAlmlGiz,2020-0188,2020-11-11,01:05:48,01:51:33,NA,incomplete,151,number,1,left,Blue_Circle_Grid_3.jpg,Red_Triangle_Dots_3.jpg,Purple_Plus_Grid_4.jpg,right,670.9950000005774,false,low,NA,NA,NA,NA,NA,NA,NA,false
nAlmlGiz,33ixyhizc8v0km0rv7j1cbq82t9e2g,3f6hpjw4jhdwo6kc79i9n1t0lnm2wb,nAlmlGiz,2020-0188,2020-11-11,01:05:48,01:51:33,NA,incomplete,152,number,1,left,Blue_Triangle_Dots_2.jpg,Green_Star_Grid_2.jpg,Red_Plus_Dots_4.jpg,left,272.9499999987893,true,low,NA,NA,NA,NA,NA,NA,NA,false
nAlmlGiz,33ixyhizc8v0km0rv7j1cbq82t9e2g,3f6hpjw4jhdwo6kc79i9n1t0lnm2wb,nAlmlGiz,2020-0188,2020-11-11,01:05:48,01:51:33,NA,incomplete,153,number,1,right,Purple_Plus_Grid_4.jpg,Blue_Triangle_Grid_1.jpg,Green_Circle_Chess_4.jpg,left,594.6000000038184,false,low,NA,NA,NA,NA,NA,NA,NA,false
nAlmlGiz,33ixyhizc8v0km0rv7j1cbq82t9e2g,3f6hpjw4jhdwo6kc79i9n1t0lnm2wb,nAlmlGiz,2020-0188,2020-11-11,01:05:48,01:51:33,NA,incomplete,154,number,1,right,Red_Triangle_Grid_4.jpg,Green_Circle_Grid_1.jpg,Purple_Plus_Stripes_4.jpg,right,496.35500000277534,true,low,NA,NA,NA,NA,NA,NA,NA,false
nAlmlGiz,33ixyhizc8v0km0rv7j1cbq82t9e2g,3f6hpjw4jhdwo6kc79i9n1t0lnm2wb,nAlmlGiz,2020-0188,2020-11-11,01:05:48,01:51:33,NA,incomplete,155,number,1,right,Red_Star_Chess_3.jpg,Purple_Circle_Chess_1.jpg,Green_Triangle_Dots_3.jpg,right,467.49499999685213,true,low,NA,NA,NA,NA,NA,NA,NA,false
nAlmlGiz,33ixyhizc8v0km0rv7j1cbq82t9e2g,3f6hpjw4jhdwo6kc79i9n1t0lnm2wb,nAlmlGiz,2020-0188,2020-11-11,01:05:48,01:51:33,NA,incomplete,156,number,0,right,Blue_Star_Dots_2.jpg,Red_Circle_Dots_1.jpg,Green_Triangle_Grid_2.jpg,right,828.9099999964237,true,low,NA,NA,NA,NA,NA,NA,NA,false
nAlmlGiz,33ixyhizc8v0km0rv7j1cbq82t9e2g,3f6hpjw4jhdwo6kc79i9n1t0lnm2wb,nAlmlGiz,2020-0188,2020-11-11,01:05:48,01:51:33,NA,incomplete,157,number,1,left,Purple_Triangle_Grid_2.jpg,Green_Plus_Stripes_2.jpg,Blue_Circle_Grid_1.jpg,right,986.6600000024773,false,low,NA,NA,NA,NA,NA,NA,NA,false
nAlmlGiz,33ixyhizc8v0km0rv7j1cbq82t9e2g,3f6hpjw4jhdwo6kc79i9n1t0lnm2wb,nAlmlGiz,2020-0188,2020-11-11,01:05:48,01:51:33,NA,incomplete,158,number,1,left,Red_Triangle_Stripes_3.jpg,Purple_Circle_Chess_3.jpg,Blue_Star_Stripes_4.jpg,left,268.56000000424683,true,low,NA,NA,NA,NA,NA,NA,NA,false
nAlmlGiz,33ixyhizc8v0km0rv7j1cbq82t9e2g,3f6hpjw4jhdwo6kc79i9n1t0lnm2wb,nAlmlGiz,2020-0188,2020-11-11,01:05:48,01:51:33,NA,incomplete,159,number,0,right,Purple_Plus_Stripes_3.jpg,Blue_Circle_Stripes_4.jpg,Green_Star_Grid_3.jpg,left,562.4899999964982,false,low,NA,NA,NA,NA,NA,NA,NA,false
nAlmlGiz,33ixyhizc8v0km0rv7j1cbq82t9e2g,3f6hpjw4jhdwo6kc79i9n1t0lnm2wb,nAlmlGiz,2020-0188,2020-11-11,01:05:48,01:51:33,NA,incomplete,160,filling,1,left,Green_Star_Grid_2.jpg,Purple_Plus_Grid_4.jpg,Blue_Triangle_Chess_2.jpg,none,0,false,low,NA,NA,NA,NA,NA,NA,NA,false
nAlmlGiz,33ixyhizc8v0km0rv7j1cbq82t9e2g,3f6hpjw4jhdwo6kc79i9n1t0lnm2wb,nAlmlGiz,2020-0188,2020-11-11,01:05:48,01:51:33,NA,incomplete,161,filling,1,left,Purple_Triangle_Stripes_2.jpg,Green_Plus_Stripes_3.jpg,Red_Star_Dots_2.jpg,left,678.3400000059046,true,low,NA,NA,NA,NA,NA,NA,NA,false
nAlmlGiz,33ixyhizc8v0km0rv7j1cbq82t9e2g,3f6hpjw4jhdwo6kc79i9n1t0lnm2wb,nAlmlGiz,2020-0188,2020-11-11,01:05:48,01:51:33,NA,incomplete,162,filling,1,right,Purple_Circle_Dots_1.jpg,Blue_Triangle_Grid_1.jpg,Red_Star_Dots_4.jpg,none,0,false,low,NA,NA,NA,NA,NA,NA,NA,false
nAlmlGiz,33ixyhizc8v0km0rv7j1cbq82t9e2g,3f6hpjw4jhdwo6kc79i9n1t0lnm2wb,nAlmlGiz,2020-0188,2020-11-11,01:05:48,01:51:33,NA,incomplete,163,filling,0,right,Blue_Plus_Chess_1.jpg,Purple_Circle_Dots_1.jpg,Red_Star_Chess_4.jpg,none,0,false,low,NA,NA,NA,NA,NA,NA,NA,false
nAlmlGiz,33ixyhizc8v0km0rv7j1cbq82t9e2g,3f6hpjw4jhdwo6kc79i9n1t0lnm2wb,nAlmlGiz,2020-0188,2020-11-11,01:05:48,01:51:33,NA,incomplete,164,filling,1,left,Blue_Plus_Stripes_1.jpg,Green_Star_Stripes_2.jpg,Purple_Circle_Dots_1.jpg,right,924.0999999963678,false,low,NA,NA,NA,NA,NA,NA,NA,false
nAlmlGiz,33ixyhizc8v0km0rv7j1cbq82t9e2g,3f6hpjw4jhdwo6kc79i9n1t0lnm2wb,nAlmlGiz,2020-0188,2020-11-11,01:05:48,01:51:33,NA,incomplete,165,filling,1,left,Red_Star_Dots_2.jpg,Purple_Triangle_Dots_3.jpg,Green_Plus_Stripes_2.jpg,left,285.89500000094995,true,low,NA,NA,NA,NA,NA,NA,NA,false
nAlmlGiz,33ixyhizc8v0km0rv7j1cbq82t9e2g,3f6hpjw4jhdwo6kc79i9n1t0lnm2wb,nAlmlGiz,2020-0188,2020-11-11,01:05:48,01:51:33,NA,incomplete,166,filling,0,right,Green_Triangle_Grid_4.jpg,Blue_Star_Stripes_4.jpg,Red_Plus_Grid_1.jpg,left,390.83499999856576,false,low,NA,NA,NA,NA,NA,NA,NA,false
nAlmlGiz,33ixyhizc8v0km0rv7j1cbq82t9e2g,3f6hpjw4jhdwo6kc79i9n1t0lnm2wb,nAlmlGiz,2020-0188,2020-11-11,01:05:48,01:51:33,NA,incomplete,167,filling,1,left,Red_Circle_Grid_2.jpg,Purple_Plus_Grid_1.jpg,Blue_Triangle_Dots_2.jpg,none,0,false,low,NA,NA,NA,NA,NA,NA,NA,false
nAlmlGiz,33ixyhizc8v0km0rv7j1cbq82t9e2g,3f6hpjw4jhdwo6kc79i9n1t0lnm2wb,nAlmlGiz,2020-0188,2020-11-11,01:05:48,01:51:33,NA,incomplete,168,filling,1,right,Red_Plus_Chess_1.jpg,Blue_Triangle_Stripes_1.jpg,Green_Circle_Chess_3.jpg,none,0,false,low,NA,NA,NA,NA,NA,NA,NA,false
nAlmlGiz,33ixyhizc8v0km0rv7j1cbq82t9e2g,3f6hpjw4jhdwo6kc79i9n1t0lnm2wb,nAlmlGiz,2020-0188,2020-11-11,01:05:48,01:51:33,NA,incomplete,169,filling,1,right,Blue_Circle_Chess_4.jpg,Purple_Plus_Grid_4.jpg,Green_Star_Chess_3.jpg,right,327.01999999722466,true,low,NA,NA,NA,NA,NA,NA,NA,false
nAlmlGiz,33ixyhizc8v0km0rv7j1cbq82t9e2g,3f6hpjw4jhdwo6kc79i9n1t0lnm2wb,nAlmlGiz,2020-0188,2020-11-11,01:05:48,01:51:33,NA,incomplete,170,filling,1,right,Blue_Plus_Dots_2.jpg,Green_Star_Chess_2.jpg,Red_Triangle_Dots_4.jpg,right,868.8650000039488,true,low,NA,NA,NA,NA,NA,NA,NA,false
nAlmlGiz,33ixyhizc8v0km0rv7j1cbq82t9e2g,3f6hpjw4jhdwo6kc79i9n1t0lnm2wb,nAlmlGiz,2020-0188,2020-11-11,01:05:48,01:51:33,NA,incomplete,171,filling,1,left,Blue_Circle_Dots_3.jpg,Green_Star_Dots_2.jpg,Red_Triangle_Stripes_3.jpg,right,1470.7400000044145,false,low,NA,NA,NA,NA,NA,NA,NA,false
nAlmlGiz,33ixyhizc8v0km0rv7j1cbq82t9e2g,3f6hpjw4jhdwo6kc79i9n1t0lnm2wb,nAlmlGiz,2020-0188,2020-11-11,01:05:48,01:51:33,NA,incomplete,172,filling,1,left,Green_Plus_Stripes_4.jpg,Blue_Circle_Stripes_1.jpg,Purple_Triangle_Chess_4.jpg,none,0,false,low,NA,NA,NA,NA,NA,NA,NA,false
nAlmlGiz,33ixyhizc8v0km0rv7j1cbq82t9e2g,3f6hpjw4jhdwo6kc79i9n1t0lnm2wb,nAlmlGiz,2020-0188,2020-11-11,01:05:48,01:51:33,NA,incomplete,173,filling,1,left,Blue_Plus_Stripes_3.jpg,Purple_Star_Stripes_4.jpg,Red_Triangle_Grid_3.jpg,right,771.6049999943934,false,low,NA,NA,NA,NA,NA,NA,NA,false
nAlmlGiz,33ixyhizc8v0km0rv7j1cbq82t9e2g,3f6hpjw4jhdwo6kc79i9n1t0lnm2wb,nAlmlGiz,2020-0188,2020-11-11,01:05:48,01:51:33,NA,incomplete,174,filling,1,left,Purple_Circle_Chess_1.jpg,Blue_Triangle_Chess_3.jpg,Red_Plus_Stripes_1.jpg,left,151.35500000184402,true,low,NA,NA,NA,NA,NA,NA,NA,false
nAlmlGiz,33ixyhizc8v0km0rv7j1cbq82t9e2g,3f6hpjw4jhdwo6kc79i9n1t0lnm2wb,nAlmlGiz,2020-0188,2020-11-11,01:05:48,01:51:33,NA,incomplete,175,filling,1,left,Blue_Star_Grid_3.jpg,Red_Plus_Grid_2.jpg,Green_Circle_Stripes_3.jpg,right,777.9999999981374,false,low,NA,NA,NA,NA,NA,NA,NA,false
nAlmlGiz,33ixyhizc8v0km0rv7j1cbq82t9e2g,3f6hpjw4jhdwo6kc79i9n1t0lnm2wb,nAlmlGiz,2020-0188,2020-11-11,01:05:48,01:51:33,NA,incomplete,176,filling,0,right,Green_Circle_Grid_1.jpg,Blue_Triangle_Stripes_1.jpg,Purple_Star_Grid_4.jpg,none,0,false,low,NA,NA,NA,NA,NA,NA,NA,false
nAlmlGiz,33ixyhizc8v0km0rv7j1cbq82t9e2g,3f6hpjw4jhdwo6kc79i9n1t0lnm2wb,nAlmlGiz,2020-0188,2020-11-11,01:05:48,01:51:33,NA,incomplete,177,filling,1,right,Purple_Plus_Dots_2.jpg,Blue_Star_Stripes_2.jpg,Green_Triangle_Dots_3.jpg,left,215.1150000062771,false,low,NA,NA,NA,NA,NA,NA,NA,false
nAlmlGiz,33ixyhizc8v0km0rv7j1cbq82t9e2g,3f6hpjw4jhdwo6kc79i9n1t0lnm2wb,nAlmlGiz,2020-0188,2020-11-11,01:05:48,01:51:33,NA,incomplete,178,filling,1,right,Purple_Star_Grid_2.jpg,Green_Circle_Chess_2.jpg,Red_Plus_Grid_4.jpg,right,249.40999999688938,true,low,NA,NA,NA,NA,NA,NA,NA,false
nAlmlGiz,33ixyhizc8v0km0rv7j1cbq82t9e2g,3f6hpjw4jhdwo6kc79i9n1t0lnm2wb,nAlmlGiz,2020-0188,2020-11-11,01:05:48,01:51:33,NA,incomplete,179,filling,1,left,Blue_Triangle_Stripes_3.jpg,Red_Star_Stripes_4.jpg,Purple_Circle_Grid_3.jpg,right,296.4949999949895,false,low,NA,NA,NA,NA,NA,NA,NA,false
nAlmlGiz,33ixyhizc8v0km0rv7j1cbq82t9e2g,3f6hpjw4jhdwo6kc79i9n1t0lnm2wb,nAlmlGiz,2020-0188,2020-11-11,01:05:48,01:51:33,NA,incomplete,180,number,1,right,Blue_Plus_Stripes_3.jpg,Purple_Star_Stripes_1.jpg,Green_Triangle_Dots_3.jpg,right,139.4999999976717,true,low,NA,NA,NA,NA,NA,NA,NA,false
nAlmlGiz,33ixyhizc8v0km0rv7j1cbq82t9e2g,3f6hpjw4jhdwo6kc79i9n1t0lnm2wb,nAlmlGiz,2020-0188,2020-11-11,01:05:48,01:51:33,NA,incomplete,181,number,1,right,Green_Circle_Dots_1.jpg,Purple_Triangle_Dots_4.jpg,Red_Plus_Stripes_1.jpg,right,492.0949999941513,true,low,NA,NA,NA,NA,NA,NA,NA,false
nAlmlGiz,33ixyhizc8v0km0rv7j1cbq82t9e2g,3f6hpjw4jhdwo6kc79i9n1t0lnm2wb,nAlmlGiz,2020-0188,2020-11-11,01:05:48,01:51:33,NA,incomplete,182,number,0,right,Green_Circle_Dots_4.jpg,Red_Plus_Dots_3.jpg,Blue_Triangle_Stripes_4.jpg,right,653.0100000016391,true,low,NA,NA,NA,NA,NA,NA,NA,false
nAlmlGiz,33ixyhizc8v0km0rv7j1cbq82t9e2g,3f6hpjw4jhdwo6kc79i9n1t0lnm2wb,nAlmlGiz,2020-0188,2020-11-11,01:05:48,01:51:33,NA,incomplete,183,number,1,right,Blue_Plus_Stripes_4.jpg,Purple_Triangle_Stripes_2.jpg,Red_Circle_Chess_4.jpg,left,423.53000000026077,false,low,NA,NA,NA,NA,NA,NA,NA,false
nAlmlGiz,33ixyhizc8v0km0rv7j1cbq82t9e2g,3f6hpjw4jhdwo6kc79i9n1t0lnm2wb,nAlmlGiz,2020-0188,2020-11-11,01:05:48,01:51:33,NA,incomplete,184,number,1,right,Purple_Plus_Stripes_1.jpg,Blue_Circle_Stripes_2.jpg,Red_Star_Dots_1.jpg,right,246.2950000045821,true,low,NA,NA,NA,NA,NA,NA,NA,false
nAlmlGiz,33ixyhizc8v0km0rv7j1cbq82t9e2g,3f6hpjw4jhdwo6kc79i9n1t0lnm2wb,nAlmlGiz,2020-0188,2020-11-11,01:05:48,01:51:33,NA,incomplete,185,number,1,left,Blue_Circle_Stripes_2.jpg,Green_Plus_Chess_2.jpg,Purple_Triangle_Stripes_4.jpg,left,256.01999999349937,true,low,NA,NA,NA,NA,NA,NA,NA,false
nAlmlGiz,33ixyhizc8v0km0rv7j1cbq82t9e2g,3f6hpjw4jhdwo6kc79i9n1t0lnm2wb,nAlmlGiz,2020-0188,2020-11-11,01:05:48,01:51:33,NA,incomplete,186,number,0,left,Purple_Triangle_Grid_4.jpg,Red_Circle_Dots_4.jpg,Green_Plus_Grid_3.jpg,left,252.41500000283122,true,low,NA,NA,NA,NA,NA,NA,NA,false
nAlmlGiz,33ixyhizc8v0km0rv7j1cbq82t9e2g,3f6hpjw4jhdwo6kc79i9n1t0lnm2wb,nAlmlGiz,2020-0188,2020-11-11,01:05:48,01:51:33,NA,incomplete,187,number,1,right,Blue_Star_Chess_4.jpg,Green_Circle_Chess_2.jpg,Purple_Triangle_Grid_4.jpg,right,207.92500000214204,true,low,NA,NA,NA,NA,NA,NA,NA,false
nAlmlGiz,33ixyhizc8v0km0rv7j1cbq82t9e2g,3f6hpjw4jhdwo6kc79i9n1t0lnm2wb,nAlmlGiz,2020-0188,2020-11-11,01:05:48,01:51:33,NA,incomplete,188,number,1,left,Red_Circle_Dots_1.jpg,Purple_Triangle_Chess_1.jpg,Blue_Star_Dots_3.jpg,left,236.2799999974668,true,low,NA,NA,NA,NA,NA,NA,NA,false
nAlmlGiz,33ixyhizc8v0km0rv7j1cbq82t9e2g,3f6hpjw4jhdwo6kc79i9n1t0lnm2wb,nAlmlGiz,2020-0188,2020-11-11,01:05:48,01:51:33,NA,incomplete,189,number,1,right,Purple_Triangle_Chess_3.jpg,Green_Circle_Chess_2.jpg,Red_Star_Stripes_3.jpg,right,143.34500000393018,true,low,NA,NA,NA,NA,NA,NA,NA,false
nAlmlGiz,33ixyhizc8v0km0rv7j1cbq82t9e2g,3f6hpjw4jhdwo6kc79i9n1t0lnm2wb,nAlmlGiz,2020-0188,2020-11-11,01:05:48,01:51:33,NA,incomplete,190,number,1,left,Red_Triangle_Chess_2.jpg,Green_Star_Dots_2.jpg,Purple_Circle_Chess_4.jpg,right,225.78499999502674,false,low,NA,NA,NA,NA,NA,NA,NA,false
nAlmlGiz,33ixyhizc8v0km0rv7j1cbq82t9e2g,3f6hpjw4jhdwo6kc79i9n1t0lnm2wb,nAlmlGiz,2020-0188,2020-11-11,01:05:48,01:51:33,NA,incomplete,191,number,1,right,Purple_Plus_Dots_1.jpg,Red_Triangle_Dots_4.jpg,Blue_Circle_Chess_1.jpg,right,36.90500000072643,true,low,NA,NA,NA,NA,NA,NA,NA,false
nAlmlGiz,33ixyhizc8v0km0rv7j1cbq82t9e2g,3f6hpjw4jhdwo6kc79i9n1t0lnm2wb,nAlmlGiz,2020-0188,2020-11-11,01:05:48,01:51:33,NA,incomplete,192,number,1,left,Purple_Star_Stripes_2.jpg,Red_Plus_Grid_2.jpg,Blue_Triangle_Stripes_1.jpg,right,52.79999999795109,false,low,NA,NA,NA,NA,NA,NA,NA,false
nAlmlGiz,33ixyhizc8v0km0rv7j1cbq82t9e2g,3f6hpjw4jhdwo6kc79i9n1t0lnm2wb,nAlmlGiz,2020-0188,2020-11-11,01:05:48,01:51:33,NA,incomplete,193,number,0,left,Red_Circle_Dots_2.jpg,Purple_Triangle_Chess_2.jpg,Blue_Star_Dots_4.jpg,right,74.93999999854714,false,low,NA,NA,NA,NA,NA,NA,NA,false
nAlmlGiz,33ixyhizc8v0km0rv7j1cbq82t9e2g,3f6hpjw4jhdwo6kc79i9n1t0lnm2wb,nAlmlGiz,2020-0188,2020-11-11,01:05:48,01:51:33,NA,incomplete,194,number,1,left,Red_Triangle_Dots_1.jpg,Purple_Star_Grid_1.jpg,Blue_Circle_Dots_3.jpg,right,96.00499999942258,false,low,NA,NA,NA,NA,NA,NA,NA,false
nAlmlGiz,33ixyhizc8v0km0rv7j1cbq82t9e2g,3f6hpjw4jhdwo6kc79i9n1t0lnm2wb,nAlmlGiz,2020-0188,2020-11-11,01:05:48,01:51:33,NA,incomplete,195,number,1,left,Blue_Triangle_Chess_1.jpg,Purple_Circle_Dots_1.jpg,Green_Star_Chess_2.jpg,right,222.890000004787,false,low,NA,NA,NA,NA,NA,NA,NA,false
nAlmlGiz,33ixyhizc8v0km0rv7j1cbq82t9e2g,3f6hpjw4jhdwo6kc79i9n1t0lnm2wb,nAlmlGiz,2020-0188,2020-11-11,01:05:48,01:51:33,NA,incomplete,196,number,1,right,Purple_Circle_Chess_1.jpg,Green_Triangle_Chess_4.jpg,Blue_Plus_Stripes_1.jpg,right,154.09499999787658,true,low,NA,NA,NA,NA,NA,NA,NA,false
nAlmlGiz,33ixyhizc8v0km0rv7j1cbq82t9e2g,3f6hpjw4jhdwo6kc79i9n1t0lnm2wb,nAlmlGiz,2020-0188,2020-11-11,01:05:48,01:51:33,NA,incomplete,197,number,1,right,Green_Circle_Dots_1.jpg,Purple_Triangle_Dots_2.jpg,Red_Plus_Chess_1.jpg,right,76.53500000014901,true,low,NA,NA,NA,NA,NA,NA,NA,false
nAlmlGiz,33ixyhizc8v0km0rv7j1cbq82t9e2g,3f6hpjw4jhdwo6kc79i9n1t0lnm2wb,nAlmlGiz,2020-0188,2020-11-11,01:05:48,01:51:33,NA,incomplete,198,number,0,right,Red_Circle_Stripes_2.jpg,Purple_Star_Stripes_1.jpg,Green_Triangle_Chess_2.jpg,right,151.01500000292435,true,low,NA,NA,NA,NA,NA,NA,NA,false
nAlmlGiz,33ixyhizc8v0km0rv7j1cbq82t9e2g,3f6hpjw4jhdwo6kc79i9n1t0lnm2wb,nAlmlGiz,2020-0188,2020-11-11,01:05:48,01:51:33,NA,incomplete,199,number,1,left,Purple_Triangle_Stripes_2.jpg,Red_Star_Dots_2.jpg,Blue_Plus_Stripes_1.jpg,right,216.4849999975413,false,low,NA,NA,NA,NA,NA,NA,NA,false
nAlmlGiz,33ixyhizc8v0km0rv7j1cbq82t9e2g,3f6hpjw4jhdwo6kc79i9n1t0lnm2wb,nAlmlGiz,2020-0188,2020-11-11,01:05:48,01:51:33,NA,incomplete,200,filling,1,right,Red_Triangle_Chess_4.jpg,Purple_Star_Stripes_4.jpg,Green_Circle_Chess_3.jpg,left,75.83000000147149,false,low,NA,NA,NA,NA,NA,NA,NA,false
nAlmlGiz,33ixyhizc8v0km0rv7j1cbq82t9e2g,3f6hpjw4jhdwo6kc79i9n1t0lnm2wb,nAlmlGiz,2020-0188,2020-11-11,01:05:48,01:51:33,NA,incomplete,201,filling,0,right,Blue_Circle_Dots_4.jpg,Red_Plus_Stripes_4.jpg,Green_Triangle_Dots_2.jpg,left,177.929999998305,false,low,NA,NA,NA,NA,NA,NA,NA,false
nAlmlGiz,33ixyhizc8v0km0rv7j1cbq82t9e2g,3f6hpjw4jhdwo6kc79i9n1t0lnm2wb,nAlmlGiz,2020-0188,2020-11-11,01:05:48,01:51:33,NA,incomplete,202,filling,1,left,Green_Star_Chess_4.jpg,Blue_Circle_Chess_2.jpg,Purple_Plus_Stripes_4.jpg,left,160.23999999742955,true,low,NA,NA,NA,NA,NA,NA,NA,false
nAlmlGiz,33ixyhizc8v0km0rv7j1cbq82t9e2g,3f6hpjw4jhdwo6kc79i9n1t0lnm2wb,nAlmlGiz,2020-0188,2020-11-11,01:05:48,01:51:33,NA,incomplete,203,filling,1,right,Purple_Circle_Dots_4.jpg,Blue_Triangle_Grid_4.jpg,Red_Plus_Dots_2.jpg,left,24.11000000545755,false,low,NA,NA,NA,NA,NA,NA,NA,false
nAlmlGiz,33ixyhizc8v0km0rv7j1cbq82t9e2g,3f6hpjw4jhdwo6kc79i9n1t0lnm2wb,nAlmlGiz,2020-0188,2020-11-11,01:05:48,01:51:33,NA,incomplete,204,filling,1,left,Blue_Plus_Chess_1.jpg,Purple_Circle_Chess_2.jpg,Green_Triangle_Dots_1.jpg,right,1066.2749999975786,false,low,NA,NA,NA,NA,NA,NA,NA,false
nAlmlGiz,33ixyhizc8v0km0rv7j1cbq82t9e2g,3f6hpjw4jhdwo6kc79i9n1t0lnm2wb,nAlmlGiz,2020-0188,2020-11-11,01:05:48,01:51:33,NA,incomplete,205,filling,1,left,Green_Star_Dots_4.jpg,Purple_Plus_Dots_1.jpg,Blue_Circle_Grid_4.jpg,left,617.5149999982677,true,low,NA,NA,NA,NA,NA,NA,NA,false
nAlmlGiz,33ixyhizc8v0km0rv7j1cbq82t9e2g,3f6hpjw4jhdwo6kc79i9n1t0lnm2wb,nAlmlGiz,2020-0188,2020-11-11,01:05:48,01:51:33,NA,incomplete,206,filling,0,left,Red_Circle_Stripes_3.jpg,Green_Star_Stripes_4.jpg,Purple_Triangle_Chess_3.jpg,left,283.97499999869615,true,low,NA,NA,NA,NA,NA,NA,NA,false
nAlmlGiz,33ixyhizc8v0km0rv7j1cbq82t9e2g,3f6hpjw4jhdwo6kc79i9n1t0lnm2wb,nAlmlGiz,2020-0188,2020-11-11,01:05:48,01:51:33,NA,incomplete,207,filling,1,right,Red_Circle_Chess_2.jpg,Green_Plus_Dots_2.jpg,Purple_Star_Chess_4.jpg,left,400.8749999990687,false,low,NA,NA,NA,NA,NA,NA,NA,false
nAlmlGiz,33ixyhizc8v0km0rv7j1cbq82t9e2g,3f6hpjw4jhdwo6kc79i9n1t0lnm2wb,nAlmlGiz,2020-0188,2020-11-11,01:05:48,01:51:33,NA,incomplete,208,filling,1,right,Blue_Star_Grid_1.jpg,Red_Triangle_Stripes_1.jpg,Purple_Circle_Grid_3.jpg,right,261.5200000000186,true,low,NA,NA,NA,NA,NA,NA,NA,false
nAlmlGiz,33ixyhizc8v0km0rv7j1cbq82t9e2g,3f6hpjw4jhdwo6kc79i9n1t0lnm2wb,nAlmlGiz,2020-0188,2020-11-11,01:05:48,01:51:33,NA,incomplete,209,filling,0,right,Red_Star_Stripes_3.jpg,Blue_Circle_Chess_3.jpg,Green_Plus_Stripes_4.jpg,right,428.4000000040978,true,low,NA,NA,NA,NA,NA,NA,NA,false
nAlmlGiz,33ixyhizc8v0km0rv7j1cbq82t9e2g,3f6hpjw4jhdwo6kc79i9n1t0lnm2wb,nAlmlGiz,2020-0188,2020-11-11,01:05:48,01:51:33,NA,incomplete,210,filling,1,left,Green_Triangle_Dots_2.jpg,Blue_Plus_Dots_1.jpg,Purple_Circle_Grid_2.jpg,none,0,false,low,NA,NA,NA,NA,NA,NA,NA,false
nAlmlGiz,33ixyhizc8v0km0rv7j1cbq82t9e2g,3f6hpjw4jhdwo6kc79i9n1t0lnm2wb,nAlmlGiz,2020-0188,2020-11-11,01:05:48,01:51:33,NA,incomplete,211,filling,1,left,Purple_Plus_Grid_3.jpg,Green_Triangle_Grid_1.jpg,Red_Circle_Dots_3.jpg,right,301.339999998454,false,low,NA,NA,NA,NA,NA,NA,NA,false
nAlmlGiz,33ixyhizc8v0km0rv7j1cbq82t9e2g,3f6hpjw4jhdwo6kc79i9n1t0lnm2wb,nAlmlGiz,2020-0188,2020-11-11,01:05:48,01:51:33,NA,incomplete,212,filling,1,left,Purple_Circle_Dots_1.jpg,Red_Plus_Dots_3.jpg,Blue_Star_Chess_1.jpg,left,351.1900000013411,true,low,NA,NA,NA,NA,NA,NA,NA,false
nAlmlGiz,33ixyhizc8v0km0rv7j1cbq82t9e2g,3f6hpjw4jhdwo6kc79i9n1t0lnm2wb,nAlmlGiz,2020-0188,2020-11-11,01:05:48,01:51:33,NA,incomplete,213,filling,1,right,Red_Circle_Grid_4.jpg,Blue_Star_Dots_4.jpg,Purple_Triangle_Grid_1.jpg,none,0,false,low,NA,NA,NA,NA,NA,NA,NA,false
nAlmlGiz,33ixyhizc8v0km0rv7j1cbq82t9e2g,3f6hpjw4jhdwo6kc79i9n1t0lnm2wb,nAlmlGiz,2020-0188,2020-11-11,01:05:48,01:51:33,NA,incomplete,214,filling,1,right,Blue_Triangle_Dots_2.jpg,Purple_Circle_Stripes_2.jpg,Red_Star_Dots_4.jpg,left,279.95999999996275,false,low,NA,NA,NA,NA,NA,NA,NA,false
nAlmlGiz,33ixyhizc8v0km0rv7j1cbq82t9e2g,3f6hpjw4jhdwo6kc79i9n1t0lnm2wb,nAlmlGiz,2020-0188,2020-11-11,01:05:48,01:51:33,NA,incomplete,215,filling,1,left,Blue_Circle_Stripes_3.jpg,Red_Plus_Stripes_2.jpg,Green_Star_Dots_3.jpg,right,820.0599999981932,false,low,NA,NA,NA,NA,NA,NA,NA,false
nAlmlGiz,33ixyhizc8v0km0rv7j1cbq82t9e2g,3f6hpjw4jhdwo6kc79i9n1t0lnm2wb,nAlmlGiz,2020-0188,2020-11-11,01:05:48,01:51:33,NA,incomplete,216,filling,1,right,Red_Plus_Chess_4.jpg,Purple_Star_Stripes_4.jpg,Green_Circle_Chess_1.jpg,left,251.07500000018626,false,low,NA,NA,NA,NA,NA,NA,NA,false
nAlmlGiz,33ixyhizc8v0km0rv7j1cbq82t9e2g,3f6hpjw4jhdwo6kc79i9n1t0lnm2wb,nAlmlGiz,2020-0188,2020-11-11,01:05:48,01:51:33,NA,incomplete,217,filling,1,right,Red_Circle_Stripes_2.jpg,Blue_Star_Grid_2.jpg,Green_Triangle_Stripes_3.jpg,right,33.565000005066395,true,low,NA,NA,NA,NA,NA,NA,NA,false
nAlmlGiz,33ixyhizc8v0km0rv7j1cbq82t9e2g,3f6hpjw4jhdwo6kc79i9n1t0lnm2wb,nAlmlGiz,2020-0188,2020-11-11,01:05:48,01:51:33,NA,incomplete,218,filling,1,right,Purple_Star_Grid_3.jpg,Red_Triangle_Dots_3.jpg,Blue_Plus_Grid_2.jpg,right,632.8149999971502,true,low,NA,NA,NA,NA,NA,NA,NA,false
nAlmlGiz,33ixyhizc8v0km0rv7j1cbq82t9e2g,3f6hpjw4jhdwo6kc79i9n1t0lnm2wb,nAlmlGiz,2020-0188,2020-11-11,01:05:48,01:51:33,NA,incomplete,219,filling,1,left,Red_Triangle_Chess_2.jpg,Purple_Plus_Chess_3.jpg,Green_Star_Stripes_2.jpg,right,188.50499999849126,false,low,NA,NA,NA,NA,NA,NA,NA,false
nAlmlGiz,33ixyhizc8v0km0rv7j1cbq82t9e2g,3f6hpjw4jhdwo6kc79i9n1t0lnm2wb,nAlmlGiz,2020-0188,2020-11-11,01:05:48,01:51:33,NA,incomplete,220,number,1,right,Purple_Triangle_Dots_3.jpg,Red_Circle_Dots_1.jpg,Blue_Plus_Chess_3.jpg,right,191.9350000023842,true,low,NA,NA,NA,NA,NA,NA,NA,false
nAlmlGiz,33ixyhizc8v0km0rv7j1cbq82t9e2g,3f6hpjw4jhdwo6kc79i9n1t0lnm2wb,nAlmlGiz,2020-0188,2020-11-11,01:05:48,01:51:33,NA,incomplete,221,number,1,right,Blue_Plus_Chess_2.jpg,Green_Circle_Chess_3.jpg,Red_Star_Dots_2.jpg,right,292.7199999974109,true,low,NA,NA,NA,NA,NA,NA,NA,false
nAlmlGiz,33ixyhizc8v0km0rv7j1cbq82t9e2g,3f6hpjw4jhdwo6kc79i9n1t0lnm2wb,nAlmlGiz,2020-0188,2020-11-11,01:05:48,01:51:33,NA,incomplete,222,number,0,left,Green_Circle_Chess_2.jpg,Blue_Star_Grid_2.jpg,Purple_Plus_Chess_1.jpg,right,789.2649999996647,false,low,NA,NA,NA,NA,NA,NA,NA,false
nAlmlGiz,33ixyhizc8v0km0rv7j1cbq82t9e2g,3f6hpjw4jhdwo6kc79i9n1t0lnm2wb,nAlmlGiz,2020-0188,2020-11-11,01:05:48,01:51:33,NA,incomplete,223,number,1,right,Green_Circle_Dots_3.jpg,Purple_Star_Dots_2.jpg,Red_Triangle_Stripes_3.jpg,left,1211.7150000049733,false,low,NA,NA,NA,NA,NA,NA,NA,false
nAlmlGiz,33ixyhizc8v0km0rv7j1cbq82t9e2g,3f6hpjw4jhdwo6kc79i9n1t0lnm2wb,nAlmlGiz,2020-0188,2020-11-11,01:05:48,01:51:33,NA,incomplete,224,number,1,right,Blue_Triangle_Stripes_2.jpg,Green_Circle_Stripes_3.jpg,Purple_Plus_Chess_2.jpg,right,400.6500000031665,true,low,NA,NA,NA,NA,NA,NA,NA,false
nAlmlGiz,33ixyhizc8v0km0rv7j1cbq82t9e2g,3f6hpjw4jhdwo6kc79i9n1t0lnm2wb,nAlmlGiz,2020-0188,2020-11-11,01:05:48,01:51:33,NA,incomplete,225,number,1,right,Red_Plus_Chess_2.jpg,Green_Circle_Chess_3.jpg,Blue_Triangle_Stripes_2.jpg,right,354.28999999538064,true,low,NA,NA,NA,NA,NA,NA,NA,false
nAlmlGiz,33ixyhizc8v0km0rv7j1cbq82t9e2g,3f6hpjw4jhdwo6kc79i9n1t0lnm2wb,nAlmlGiz,2020-0188,2020-11-11,01:05:48,01:51:33,NA,incomplete,226,number,1,left,Green_Plus_Chess_2.jpg,Red_Triangle_Stripes_2.jpg,Blue_Star_Chess_4.jpg,right,243.43999999808148,false,low,NA,NA,NA,NA,NA,NA,NA,false
nAlmlGiz,33ixyhizc8v0km0rv7j1cbq82t9e2g,3f6hpjw4jhdwo6kc79i9n1t0lnm2wb,nAlmlGiz,2020-0188,2020-11-11,01:05:48,01:51:33,NA,incomplete,227,number,1,left,Blue_Circle_Grid_3.jpg,Purple_Triangle_Stripes_3.jpg,Green_Plus_Grid_4.jpg,right,336.3000000026077,false,low,NA,NA,NA,NA,NA,NA,NA,false
nAlmlGiz,33ixyhizc8v0km0rv7j1cbq82t9e2g,3f6hpjw4jhdwo6kc79i9n1t0lnm2wb,nAlmlGiz,2020-0188,2020-11-11,01:05:48,01:51:33,NA,incomplete,228,number,1,right,Purple_Star_Grid_3.jpg,Green_Triangle_Grid_2.jpg,Blue_Circle_Chess_3.jpg,right,259.1549999997951,true,low,NA,NA,NA,NA,NA,NA,NA,false
nAlmlGiz,33ixyhizc8v0km0rv7j1cbq82t9e2g,3f6hpjw4jhdwo6kc79i9n1t0lnm2wb,nAlmlGiz,2020-0188,2020-11-11,01:05:48,01:51:33,NA,incomplete,229,number,0,left,Blue_Star_Grid_2.jpg,Purple_Circle_Dots_2.jpg,Red_Triangle_Grid_3.jpg,right,776.6399999964051,false,low,NA,NA,NA,NA,NA,NA,NA,false
nAlmlGiz,33ixyhizc8v0km0rv7j1cbq82t9e2g,3f6hpjw4jhdwo6kc79i9n1t0lnm2wb,nAlmlGiz,2020-0188,2020-11-11,01:05:48,01:51:33,NA,incomplete,230,number,1,right,Red_Plus_Chess_2.jpg,Blue_Triangle_Chess_4.jpg,Purple_Star_Grid_2.jpg,right,580.3749999976717,true,low,NA,NA,NA,NA,NA,NA,NA,false
nAlmlGiz,33ixyhizc8v0km0rv7j1cbq82t9e2g,3f6hpjw4jhdwo6kc79i9n1t0lnm2wb,nAlmlGiz,2020-0188,2020-11-11,01:05:48,01:51:33,NA,incomplete,231,number,1,left,Purple_Star_Grid_2.jpg,Green_Circle_Dots_2.jpg,Blue_Plus_Grid_3.jpg,right,828.3850000007078,false,low,NA,NA,NA,NA,NA,NA,NA,false
nAlmlGiz,33ixyhizc8v0km0rv7j1cbq82t9e2g,3f6hpjw4jhdwo6kc79i9n1t0lnm2wb,nAlmlGiz,2020-0188,2020-11-11,01:05:48,01:51:33,NA,incomplete,232,number,1,right,Green_Circle_Grid_3.jpg,Purple_Plus_Grid_2.jpg,Blue_Triangle_Stripes_3.jpg,left,405.16500000376254,false,low,NA,NA,NA,NA,NA,NA,NA,false
nAlmlGiz,33ixyhizc8v0km0rv7j1cbq82t9e2g,3f6hpjw4jhdwo6kc79i9n1t0lnm2wb,nAlmlGiz,2020-0188,2020-11-11,01:05:48,01:51:33,NA,incomplete,233,number,1,right,Red_Circle_Dots_3.jpg,Purple_Triangle_Dots_1.jpg,Blue_Star_Stripes_3.jpg,right,229.87000000290573,true,low,NA,NA,NA,NA,NA,NA,NA,false
nAlmlGiz,33ixyhizc8v0km0rv7j1cbq82t9e2g,3f6hpjw4jhdwo6kc79i9n1t0lnm2wb,nAlmlGiz,2020-0188,2020-11-11,01:05:48,01:51:33,NA,incomplete,234,number,1,left,Purple_Star_Stripes_4.jpg,Red_Triangle_Grid_4.jpg,Blue_Circle_Stripes_2.jpg,right,471.9499999987893,false,low,NA,NA,NA,NA,NA,NA,NA,false
nAlmlGiz,33ixyhizc8v0km0rv7j1cbq82t9e2g,3f6hpjw4jhdwo6kc79i9n1t0lnm2wb,nAlmlGiz,2020-0188,2020-11-11,01:05:48,01:51:33,NA,incomplete,235,number,1,left,Red_Circle_Stripes_4.jpg,Blue_Triangle_Dots_4.jpg,Green_Plus_Stripes_2.jpg,left,409.77500000037253,true,low,NA,NA,NA,NA,NA,NA,NA,false
nAlmlGiz,33ixyhizc8v0km0rv7j1cbq82t9e2g,3f6hpjw4jhdwo6kc79i9n1t0lnm2wb,nAlmlGiz,2020-0188,2020-11-11,01:05:48,01:51:33,NA,incomplete,236,number,1,left,Purple_Plus_Grid_3.jpg,Green_Star_Dots_3.jpg,Blue_Circle_Grid_2.jpg,left,516.9449999956414,true,low,NA,NA,NA,NA,NA,NA,NA,false
nAlmlGiz,33ixyhizc8v0km0rv7j1cbq82t9e2g,3f6hpjw4jhdwo6kc79i9n1t0lnm2wb,nAlmlGiz,2020-0188,2020-11-11,01:05:48,01:51:33,NA,incomplete,237,number,0,right,Green_Plus_Chess_2.jpg,Purple_Star_Chess_3.jpg,Red_Triangle_Stripes_2.jpg,left,237.2249999968335,false,low,NA,NA,NA,NA,NA,NA,NA,false
nAlmlGiz,33ixyhizc8v0km0rv7j1cbq82t9e2g,3f6hpjw4jhdwo6kc79i9n1t0lnm2wb,nAlmlGiz,2020-0188,2020-11-11,01:05:48,01:51:33,NA,incomplete,238,number,1,left,Blue_Star_Grid_3.jpg,Red_Triangle_Stripes_3.jpg,Green_Plus_Grid_1.jpg,left,340.3249999973923,true,low,NA,NA,NA,NA,NA,NA,NA,false
nAlmlGiz,33ixyhizc8v0km0rv7j1cbq82t9e2g,3f6hpjw4jhdwo6kc79i9n1t0lnm2wb,nAlmlGiz,2020-0188,2020-11-11,01:05:48,01:51:33,NA,incomplete,239,number,1,right,Purple_Triangle_Grid_3.jpg,Green_Plus_Grid_2.jpg,Blue_Circle_Dots_3.jpg,left,283.6899999966845,false,low,NA,NA,NA,NA,NA,NA,NA,false
nAlmlGiz,33ixyhizc8v0km0rv7j1cbq82t9e2g,3f6hpjw4jhdwo6kc79i9n1t0lnm2wb,nAlmlGiz,2020-0188,2020-11-11,01:05:48,01:51:33,2684672.4250000045,2748277.1150000044,NA,NA,NA,NA,NA,NA,NA,NA,NA,NA,NA,40,White/Caucasian,Male,American,no,Do not wish to reply,no,undefined
