workerId,hitId,assignmentId,subject,studyid,exp_date,exp_start,exp_end,time_start,time_end,trial,type,reward_validity,answer,image_top,image_left,image_right,response,response_time,response_acc,volatility,practice
gDrIn6mv,3hy86pzxq1vtv1ivc3jn7sg3anve1z,3g5f9dbfotano7np0kgko3go3xnvhx,gDrIn6mv,2020-0188,2020-11-14,23:16:01,23:33:55,NA,incomplete,0,shape,1,left,Blue_Star_Chess_2.jpg,Green_Star_Grid_1.jpg,Purple_Circle_Chess_4.jpg,none,0,false,NA,true
gDrIn6mv,3hy86pzxq1vtv1ivc3jn7sg3anve1z,3g5f9dbfotano7np0kgko3go3xnvhx,gDrIn6mv,2020-0188,2020-11-14,23:16:01,23:33:55,NA,incomplete,1,shape,1,right,Green_Star_Stripes_3.jpg,Red_Plus_Stripes_4.jpg,Purple_Star_Chess_1.jpg,none,0,false,NA,true
gDrIn6mv,3hy86pzxq1vtv1ivc3jn7sg3anve1z,3g5f9dbfotano7np0kgko3go3xnvhx,gDrIn6mv,2020-0188,2020-11-14,23:16:01,23:33:55,NA,incomplete,2,shape,1,left,Green_Triangle_Dots_2.jpg,Purple_Triangle_Chess_4.jpg,Blue_Circle_Dots_3.jpg,none,0,false,NA,true
gDrIn6mv,3hy86pzxq1vtv1ivc3jn7sg3anve1z,3g5f9dbfotano7np0kgko3go3xnvhx,gDrIn6mv,2020-0188,2020-11-14,23:16:01,23:33:55,NA,incomplete,3,shape,1,left,Green_Triangle_Stripes_4.jpg,Red_Triangle_Chess_3.jpg,Purple_Circle_Stripes_2.jpg,none,0,false,NA,true
gDrIn6mv,3hy86pzxq1vtv1ivc3jn7sg3anve1z,3g5f9dbfotano7np0kgko3go3xnvhx,gDrIn6mv,2020-0188,2020-11-14,23:16:01,23:33:55,NA,incomplete,4,shape,0,right,Purple_Plus_Dots_1.jpg,Blue_Circle_Dots_2.jpg,Red_Plus_Stripes_4.jpg,none,0,false,NA,true
gDrIn6mv,3hy86pzxq1vtv1ivc3jn7sg3anve1z,3g5f9dbfotano7np0kgko3go3xnvhx,gDrIn6mv,2020-0188,2020-11-14,23:16:01,23:33:55,NA,incomplete,5,shape,1,right,Green_Star_Chess_1.jpg,Purple_Plus_Chess_3.jpg,Red_Star_Stripes_2.jpg,none,0,false,NA,true
gDrIn6mv,3hy86pzxq1vtv1ivc3jn7sg3anve1z,3g5f9dbfotano7np0kgko3go3xnvhx,gDrIn6mv,2020-0188,2020-11-14,23:16:01,23:33:55,NA,incomplete,6,shape,1,left,Red_Circle_Dots_1.jpg,Blue_Circle_Stripes_4.jpg,Purple_Star_Dots_3.jpg,none,0,false,NA,true
gDrIn6mv,3hy86pzxq1vtv1ivc3jn7sg3anve1z,3g5f9dbfotano7np0kgko3go3xnvhx,gDrIn6mv,2020-0188,2020-11-14,23:16:01,23:33:55,NA,incomplete,7,shape,1,right,Purple_Plus_Dots_2.jpg,Red_Star_Dots_4.jpg,Blue_Plus_Grid_1.jpg,none,0,false,NA,true
gDrIn6mv,3hy86pzxq1vtv1ivc3jn7sg3anve1z,3g5f9dbfotano7np0kgko3go3xnvhx,gDrIn6mv,2020-0188,2020-11-14,23:16:01,23:33:55,NA,incomplete,8,shape,0,left,Purple_Plus_Grid_3.jpg,Green_Plus_Dots_2.jpg,Blue_Star_Grid_1.jpg,none,0,false,NA,true
gDrIn6mv,3hy86pzxq1vtv1ivc3jn7sg3anve1z,3g5f9dbfotano7np0kgko3go3xnvhx,gDrIn6mv,2020-0188,2020-11-14,23:16:01,23:33:55,NA,incomplete,9,shape,1,left,Blue_Plus_Stripes_1.jpg,Green_Plus_Dots_4.jpg,Red_Star_Stripes_3.jpg,none,0,false,NA,true
gDrIn6mv,3hy86pzxq1vtv1ivc3jn7sg3anve1z,3g5f9dbfotano7np0kgko3go3xnvhx,gDrIn6mv,2020-0188,2020-11-14,23:16:01,23:33:55,NA,incomplete,10,shape,1,left,Green_Star_Dots_1.jpg,Red_Star_Grid_3.jpg,Blue_Triangle_Dots_4.jpg,none,0,false,NA,true
gDrIn6mv,3hy86pzxq1vtv1ivc3jn7sg3anve1z,3g5f9dbfotano7np0kgko3go3xnvhx,gDrIn6mv,2020-0188,2020-11-14,23:16:01,23:33:55,NA,incomplete,11,shape,0,left,Green_Circle_Grid_3.jpg,Blue_Circle_Dots_2.jpg,Red_Star_Grid_4.jpg,none,0,false,NA,true
gDrIn6mv,3hy86pzxq1vtv1ivc3jn7sg3anve1z,3g5f9dbfotano7np0kgko3go3xnvhx,gDrIn6mv,2020-0188,2020-11-14,23:16:01,23:33:55,NA,incomplete,12,shape,0,left,Red_Plus_Stripes_3.jpg,Green_Plus_Chess_2.jpg,Blue_Triangle_Stripes_4.jpg,none,0,false,NA,true
gDrIn6mv,3hy86pzxq1vtv1ivc3jn7sg3anve1z,3g5f9dbfotano7np0kgko3go3xnvhx,gDrIn6mv,2020-0188,2020-11-14,23:16:01,23:33:55,NA,incomplete,13,shape,1,left,Green_Star_Grid_3.jpg,Red_Star_Stripes_1.jpg,Blue_Triangle_Grid_4.jpg,none,0,false,NA,true
gDrIn6mv,3hy86pzxq1vtv1ivc3jn7sg3anve1z,3g5f9dbfotano7np0kgko3go3xnvhx,gDrIn6mv,2020-0188,2020-11-14,23:16:01,23:33:55,NA,incomplete,14,shape,1,right,Blue_Circle_Chess_1.jpg,Red_Plus_Chess_2.jpg,Purple_Circle_Grid_3.jpg,none,0,false,NA,true
gDrIn6mv,3hy86pzxq1vtv1ivc3jn7sg3anve1z,3g5f9dbfotano7np0kgko3go3xnvhx,gDrIn6mv,2020-0188,2020-11-14,23:16:01,23:33:55,NA,incomplete,15,shape,1,left,Purple_Star_Stripes_3.jpg,Green_Star_Dots_1.jpg,Red_Plus_Stripes_2.jpg,none,0,false,NA,true
gDrIn6mv,3hy86pzxq1vtv1ivc3jn7sg3anve1z,3g5f9dbfotano7np0kgko3go3xnvhx,gDrIn6mv,2020-0188,2020-11-14,23:16:01,23:33:55,NA,incomplete,16,shape,1,left,Green_Star_Stripes_2.jpg,Purple_Star_Chess_3.jpg,Red_Plus_Stripes_4.jpg,none,0,false,NA,true
gDrIn6mv,3hy86pzxq1vtv1ivc3jn7sg3anve1z,3g5f9dbfotano7np0kgko3go3xnvhx,gDrIn6mv,2020-0188,2020-11-14,23:16:01,23:33:55,NA,incomplete,17,shape,1,right,Red_Circle_Dots_4.jpg,Purple_Plus_Dots_3.jpg,Green_Circle_Stripes_2.jpg,none,0,false,NA,true
gDrIn6mv,3hy86pzxq1vtv1ivc3jn7sg3anve1z,3g5f9dbfotano7np0kgko3go3xnvhx,gDrIn6mv,2020-0188,2020-11-14,23:16:01,23:33:55,NA,incomplete,18,shape,0,right,Green_Triangle_Stripes_4.jpg,Red_Plus_Stripes_2.jpg,Blue_Triangle_Chess_1.jpg,none,0,false,NA,true
gDrIn6mv,3hy86pzxq1vtv1ivc3jn7sg3anve1z,3g5f9dbfotano7np0kgko3go3xnvhx,gDrIn6mv,2020-0188,2020-11-14,23:16:01,23:33:55,NA,incomplete,19,shape,1,right,Blue_Triangle_Chess_2.jpg,Green_Star_Chess_3.jpg,Purple_Triangle_Grid_1.jpg,none,0,false,NA,true
gDrIn6mv,3hy86pzxq1vtv1ivc3jn7sg3anve1z,3g5f9dbfotano7np0kgko3go3xnvhx,gDrIn6mv,2020-0188,2020-11-14,23:16:01,23:33:55,NA,incomplete,20,filling,1,right,Green_Star_Dots_1.jpg,Red_Star_Grid_4.jpg,Purple_Circle_Dots_2.jpg,none,0,false,NA,true
gDrIn6mv,3hy86pzxq1vtv1ivc3jn7sg3anve1z,3g5f9dbfotano7np0kgko3go3xnvhx,gDrIn6mv,2020-0188,2020-11-14,23:16:01,23:33:55,NA,incomplete,21,filling,1,left,Red_Circle_Grid_2.jpg,Purple_Plus_Grid_1.jpg,Blue_Circle_Stripes_4.jpg,none,0,false,NA,true
gDrIn6mv,3hy86pzxq1vtv1ivc3jn7sg3anve1z,3g5f9dbfotano7np0kgko3go3xnvhx,gDrIn6mv,2020-0188,2020-11-14,23:16:01,23:33:55,NA,incomplete,22,filling,0,right,Purple_Star_Grid_4.jpg,Green_Star_Stripes_1.jpg,Blue_Plus_Grid_3.jpg,none,0,false,NA,true
gDrIn6mv,3hy86pzxq1vtv1ivc3jn7sg3anve1z,3g5f9dbfotano7np0kgko3go3xnvhx,gDrIn6mv,2020-0188,2020-11-14,23:16:01,23:33:55,NA,incomplete,23,filling,1,right,Blue_Triangle_Dots_1.jpg,Purple_Triangle_Chess_4.jpg,Green_Plus_Dots_3.jpg,none,0,false,NA,true
gDrIn6mv,3hy86pzxq1vtv1ivc3jn7sg3anve1z,3g5f9dbfotano7np0kgko3go3xnvhx,gDrIn6mv,2020-0188,2020-11-14,23:16:01,23:33:55,NA,incomplete,24,filling,1,right,Red_Star_Stripes_1.jpg,Green_Star_Grid_3.jpg,Purple_Plus_Stripes_2.jpg,none,0,false,NA,true
gDrIn6mv,3hy86pzxq1vtv1ivc3jn7sg3anve1z,3g5f9dbfotano7np0kgko3go3xnvhx,gDrIn6mv,2020-0188,2020-11-14,23:16:01,23:33:55,NA,incomplete,25,filling,0,right,Blue_Star_Chess_3.jpg,Purple_Star_Dots_4.jpg,Red_Circle_Chess_2.jpg,none,0,false,NA,true
gDrIn6mv,3hy86pzxq1vtv1ivc3jn7sg3anve1z,3g5f9dbfotano7np0kgko3go3xnvhx,gDrIn6mv,2020-0188,2020-11-14,23:16:01,23:33:55,NA,incomplete,26,filling,1,right,Purple_Star_Dots_1.jpg,Red_Star_Grid_2.jpg,Blue_Circle_Dots_3.jpg,none,0,false,NA,true
gDrIn6mv,3hy86pzxq1vtv1ivc3jn7sg3anve1z,3g5f9dbfotano7np0kgko3go3xnvhx,gDrIn6mv,2020-0188,2020-11-14,23:16:01,23:33:55,NA,incomplete,27,filling,1,right,Blue_Triangle_Grid_2.jpg,Green_Triangle_Dots_4.jpg,Red_Plus_Grid_1.jpg,none,0,false,NA,true
gDrIn6mv,3hy86pzxq1vtv1ivc3jn7sg3anve1z,3g5f9dbfotano7np0kgko3go3xnvhx,gDrIn6mv,2020-0188,2020-11-14,23:16:01,23:33:55,NA,incomplete,28,filling,1,left,Red_Star_Chess_4.jpg,Green_Circle_Chess_3.jpg,Purple_Star_Stripes_2.jpg,none,0,false,NA,true
gDrIn6mv,3hy86pzxq1vtv1ivc3jn7sg3anve1z,3g5f9dbfotano7np0kgko3go3xnvhx,gDrIn6mv,2020-0188,2020-11-14,23:16:01,23:33:55,NA,incomplete,29,filling,0,right,Purple_Triangle_Chess_4.jpg,Green_Triangle_Dots_3.jpg,Blue_Star_Chess_2.jpg,none,0,false,NA,true
gDrIn6mv,3hy86pzxq1vtv1ivc3jn7sg3anve1z,3g5f9dbfotano7np0kgko3go3xnvhx,gDrIn6mv,2020-0188,2020-11-14,23:16:01,23:33:55,NA,incomplete,30,filling,1,left,Green_Triangle_Stripes_2.jpg,Blue_Plus_Stripes_4.jpg,Purple_Triangle_Chess_1.jpg,none,0,false,NA,true
gDrIn6mv,3hy86pzxq1vtv1ivc3jn7sg3anve1z,3g5f9dbfotano7np0kgko3go3xnvhx,gDrIn6mv,2020-0188,2020-11-14,23:16:01,23:33:55,NA,incomplete,31,filling,1,left,Green_Plus_Stripes_2.jpg,Blue_Circle_Stripes_4.jpg,Purple_Plus_Dots_1.jpg,none,0,false,NA,true
gDrIn6mv,3hy86pzxq1vtv1ivc3jn7sg3anve1z,3g5f9dbfotano7np0kgko3go3xnvhx,gDrIn6mv,2020-0188,2020-11-14,23:16:01,23:33:55,NA,incomplete,32,filling,1,left,Blue_Star_Dots_4.jpg,Purple_Circle_Dots_2.jpg,Red_Star_Chess_3.jpg,none,0,false,NA,true
gDrIn6mv,3hy86pzxq1vtv1ivc3jn7sg3anve1z,3g5f9dbfotano7np0kgko3go3xnvhx,gDrIn6mv,2020-0188,2020-11-14,23:16:01,23:33:55,NA,incomplete,33,filling,1,right,Red_Circle_Stripes_2.jpg,Blue_Circle_Dots_3.jpg,Green_Plus_Stripes_4.jpg,none,0,false,NA,true
gDrIn6mv,3hy86pzxq1vtv1ivc3jn7sg3anve1z,3g5f9dbfotano7np0kgko3go3xnvhx,gDrIn6mv,2020-0188,2020-11-14,23:16:01,23:33:55,NA,incomplete,34,filling,1,left,Purple_Circle_Grid_3.jpg,Blue_Star_Grid_1.jpg,Green_Circle_Stripes_4.jpg,none,0,false,NA,true
gDrIn6mv,3hy86pzxq1vtv1ivc3jn7sg3anve1z,3g5f9dbfotano7np0kgko3go3xnvhx,gDrIn6mv,2020-0188,2020-11-14,23:16:01,23:33:55,NA,incomplete,35,filling,1,left,Red_Circle_Dots_2.jpg,Blue_Plus_Dots_3.jpg,Green_Circle_Grid_1.jpg,none,0,false,NA,true
gDrIn6mv,3hy86pzxq1vtv1ivc3jn7sg3anve1z,3g5f9dbfotano7np0kgko3go3xnvhx,gDrIn6mv,2020-0188,2020-11-14,23:16:01,23:33:55,NA,incomplete,36,filling,1,left,Blue_Plus_Stripes_4.jpg,Red_Triangle_Stripes_2.jpg,Green_Plus_Grid_3.jpg,none,0,false,NA,true
gDrIn6mv,3hy86pzxq1vtv1ivc3jn7sg3anve1z,3g5f9dbfotano7np0kgko3go3xnvhx,gDrIn6mv,2020-0188,2020-11-14,23:16:01,23:33:55,NA,incomplete,37,filling,1,left,Green_Circle_Dots_3.jpg,Red_Plus_Dots_1.jpg,Blue_Circle_Chess_4.jpg,none,0,false,NA,true
gDrIn6mv,3hy86pzxq1vtv1ivc3jn7sg3anve1z,3g5f9dbfotano7np0kgko3go3xnvhx,gDrIn6mv,2020-0188,2020-11-14,23:16:01,23:33:55,NA,incomplete,38,filling,1,right,Green_Circle_Stripes_1.jpg,Red_Circle_Dots_2.jpg,Blue_Triangle_Stripes_3.jpg,none,0,false,NA,true
gDrIn6mv,3hy86pzxq1vtv1ivc3jn7sg3anve1z,3g5f9dbfotano7np0kgko3go3xnvhx,gDrIn6mv,2020-0188,2020-11-14,23:16:01,23:33:55,NA,incomplete,39,filling,1,right,Green_Circle_Stripes_1.jpg,Purple_Circle_Chess_4.jpg,Blue_Plus_Stripes_2.jpg,none,0,false,NA,true
gDrIn6mv,3hy86pzxq1vtv1ivc3jn7sg3anve1z,3g5f9dbfotano7np0kgko3go3xnvhx,gDrIn6mv,2020-0188,2020-11-14,23:16:01,23:33:55,NA,incomplete,0,shape,1,left,Blue_Plus_Chess_2.jpg,Green_Plus_Stripes_4.jpg,Red_Star_Chess_1.jpg,none,0,false,low,false
gDrIn6mv,3hy86pzxq1vtv1ivc3jn7sg3anve1z,3g5f9dbfotano7np0kgko3go3xnvhx,gDrIn6mv,2020-0188,2020-11-14,23:16:01,23:33:55,NA,incomplete,1,shape,1,left,Red_Triangle_Dots_2.jpg,Purple_Triangle_Stripes_3.jpg,Green_Circle_Dots_4.jpg,none,0,false,low,false
gDrIn6mv,3hy86pzxq1vtv1ivc3jn7sg3anve1z,3g5f9dbfotano7np0kgko3go3xnvhx,gDrIn6mv,2020-0188,2020-11-14,23:16:01,23:33:55,NA,incomplete,2,shape,1,right,Purple_Plus_Grid_1.jpg,Blue_Circle_Grid_4.jpg,Green_Plus_Stripes_2.jpg,none,0,false,low,false
gDrIn6mv,3hy86pzxq1vtv1ivc3jn7sg3anve1z,3g5f9dbfotano7np0kgko3go3xnvhx,gDrIn6mv,2020-0188,2020-11-14,23:16:01,23:33:55,NA,incomplete,3,shape,1,right,Green_Triangle_Chess_1.jpg,Blue_Plus_Chess_2.jpg,Purple_Triangle_Dots_4.jpg,none,0,false,low,false
gDrIn6mv,3hy86pzxq1vtv1ivc3jn7sg3anve1z,3g5f9dbfotano7np0kgko3go3xnvhx,gDrIn6mv,2020-0188,2020-11-14,23:16:01,23:33:55,NA,incomplete,4,shape,1,left,Blue_Plus_Chess_4.jpg,Purple_Plus_Dots_1.jpg,Red_Circle_Chess_2.jpg,none,0,false,low,false
gDrIn6mv,3hy86pzxq1vtv1ivc3jn7sg3anve1z,3g5f9dbfotano7np0kgko3go3xnvhx,gDrIn6mv,2020-0188,2020-11-14,23:16:01,23:33:55,NA,incomplete,5,shape,1,right,Green_Circle_Dots_1.jpg,Red_Plus_Dots_4.jpg,Purple_Circle_Grid_3.jpg,none,0,false,low,false
gDrIn6mv,3hy86pzxq1vtv1ivc3jn7sg3anve1z,3g5f9dbfotano7np0kgko3go3xnvhx,gDrIn6mv,2020-0188,2020-11-14,23:16:01,23:33:55,NA,incomplete,6,shape,1,left,Green_Star_Chess_4.jpg,Red_Star_Stripes_2.jpg,Purple_Circle_Chess_3.jpg,none,0,false,low,false
gDrIn6mv,3hy86pzxq1vtv1ivc3jn7sg3anve1z,3g5f9dbfotano7np0kgko3go3xnvhx,gDrIn6mv,2020-0188,2020-11-14,23:16:01,23:33:55,NA,incomplete,7,shape,1,right,Purple_Triangle_Dots_4.jpg,Blue_Plus_Dots_1.jpg,Red_Triangle_Stripes_2.jpg,none,0,false,low,false
gDrIn6mv,3hy86pzxq1vtv1ivc3jn7sg3anve1z,3g5f9dbfotano7np0kgko3go3xnvhx,gDrIn6mv,2020-0188,2020-11-14,23:16:01,23:33:55,NA,incomplete,8,shape,0,left,Green_Circle_Grid_3.jpg,Purple_Circle_Chess_2.jpg,Red_Plus_Grid_4.jpg,none,0,false,low,false
gDrIn6mv,3hy86pzxq1vtv1ivc3jn7sg3anve1z,3g5f9dbfotano7np0kgko3go3xnvhx,gDrIn6mv,2020-0188,2020-11-14,23:16:01,23:33:55,NA,incomplete,9,shape,1,left,Purple_Plus_Grid_1.jpg,Green_Plus_Dots_2.jpg,Red_Circle_Grid_3.jpg,none,0,false,low,false
gDrIn6mv,3hy86pzxq1vtv1ivc3jn7sg3anve1z,3g5f9dbfotano7np0kgko3go3xnvhx,gDrIn6mv,2020-0188,2020-11-14,23:16:01,23:33:55,NA,incomplete,10,shape,1,left,Green_Star_Stripes_3.jpg,Blue_Star_Chess_2.jpg,Red_Triangle_Stripes_4.jpg,none,0,false,low,false
gDrIn6mv,3hy86pzxq1vtv1ivc3jn7sg3anve1z,3g5f9dbfotano7np0kgko3go3xnvhx,gDrIn6mv,2020-0188,2020-11-14,23:16:01,23:33:55,NA,incomplete,11,shape,0,left,Blue_Circle_Stripes_1.jpg,Red_Circle_Grid_3.jpg,Purple_Triangle_Stripes_4.jpg,none,0,false,low,false
gDrIn6mv,3hy86pzxq1vtv1ivc3jn7sg3anve1z,3g5f9dbfotano7np0kgko3go3xnvhx,gDrIn6mv,2020-0188,2020-11-14,23:16:01,23:33:55,NA,incomplete,12,shape,1,right,Red_Plus_Chess_1.jpg,Purple_Circle_Chess_2.jpg,Blue_Plus_Dots_4.jpg,none,0,false,low,false
gDrIn6mv,3hy86pzxq1vtv1ivc3jn7sg3anve1z,3g5f9dbfotano7np0kgko3go3xnvhx,gDrIn6mv,2020-0188,2020-11-14,23:16:01,23:33:55,NA,incomplete,13,shape,1,right,Blue_Circle_Stripes_1.jpg,Purple_Plus_Stripes_2.jpg,Red_Circle_Grid_4.jpg,none,0,false,low,false
gDrIn6mv,3hy86pzxq1vtv1ivc3jn7sg3anve1z,3g5f9dbfotano7np0kgko3go3xnvhx,gDrIn6mv,2020-0188,2020-11-14,23:16:01,23:33:55,NA,incomplete,14,shape,1,right,Green_Circle_Dots_2.jpg,Blue_Plus_Dots_3.jpg,Red_Circle_Stripes_4.jpg,none,0,false,low,false
gDrIn6mv,3hy86pzxq1vtv1ivc3jn7sg3anve1z,3g5f9dbfotano7np0kgko3go3xnvhx,gDrIn6mv,2020-0188,2020-11-14,23:16:01,23:33:55,NA,incomplete,15,shape,1,left,Purple_Circle_Grid_4.jpg,Blue_Circle_Chess_1.jpg,Red_Plus_Grid_3.jpg,none,0,false,low,false
gDrIn6mv,3hy86pzxq1vtv1ivc3jn7sg3anve1z,3g5f9dbfotano7np0kgko3go3xnvhx,gDrIn6mv,2020-0188,2020-11-14,23:16:01,23:33:55,NA,incomplete,16,shape,1,right,Purple_Star_Dots_1.jpg,Blue_Plus_Dots_2.jpg,Green_Star_Grid_4.jpg,none,0,false,low,false
gDrIn6mv,3hy86pzxq1vtv1ivc3jn7sg3anve1z,3g5f9dbfotano7np0kgko3go3xnvhx,gDrIn6mv,2020-0188,2020-11-14,23:16:01,23:33:55,NA,incomplete,17,shape,1,right,Blue_Triangle_Chess_3.jpg,Red_Circle_Chess_1.jpg,Green_Triangle_Stripes_2.jpg,none,0,false,low,false
gDrIn6mv,3hy86pzxq1vtv1ivc3jn7sg3anve1z,3g5f9dbfotano7np0kgko3go3xnvhx,gDrIn6mv,2020-0188,2020-11-14,23:16:01,23:33:55,NA,incomplete,18,shape,1,right,Blue_Circle_Grid_2.jpg,Green_Star_Grid_1.jpg,Red_Circle_Dots_3.jpg,none,0,false,low,false
gDrIn6mv,3hy86pzxq1vtv1ivc3jn7sg3anve1z,3g5f9dbfotano7np0kgko3go3xnvhx,gDrIn6mv,2020-0188,2020-11-14,23:16:01,23:33:55,NA,incomplete,19,shape,1,right,Green_Star_Dots_1.jpg,Blue_Plus_Dots_2.jpg,Red_Star_Grid_3.jpg,none,0,false,low,false
gDrIn6mv,3hy86pzxq1vtv1ivc3jn7sg3anve1z,3g5f9dbfotano7np0kgko3go3xnvhx,gDrIn6mv,2020-0188,2020-11-14,23:16:01,23:33:55,NA,incomplete,20,shape,1,left,Green_Plus_Stripes_1.jpg,Blue_Plus_Grid_4.jpg,Purple_Star_Stripes_3.jpg,none,0,false,low,false
gDrIn6mv,3hy86pzxq1vtv1ivc3jn7sg3anve1z,3g5f9dbfotano7np0kgko3go3xnvhx,gDrIn6mv,2020-0188,2020-11-14,23:16:01,23:33:55,NA,incomplete,21,shape,1,left,Red_Star_Grid_1.jpg,Blue_Star_Chess_3.jpg,Green_Plus_Grid_4.jpg,none,0,false,low,false
gDrIn6mv,3hy86pzxq1vtv1ivc3jn7sg3anve1z,3g5f9dbfotano7np0kgko3go3xnvhx,gDrIn6mv,2020-0188,2020-11-14,23:16:01,23:33:55,NA,incomplete,22,shape,1,right,Red_Circle_Grid_1.jpg,Blue_Triangle_Grid_4.jpg,Purple_Circle_Chess_2.jpg,none,0,false,low,false
gDrIn6mv,3hy86pzxq1vtv1ivc3jn7sg3anve1z,3g5f9dbfotano7np0kgko3go3xnvhx,gDrIn6mv,2020-0188,2020-11-14,23:16:01,23:33:55,NA,incomplete,23,shape,1,left,Blue_Triangle_Stripes_2.jpg,Purple_Triangle_Chess_1.jpg,Red_Circle_Stripes_3.jpg,none,0,false,low,false
gDrIn6mv,3hy86pzxq1vtv1ivc3jn7sg3anve1z,3g5f9dbfotano7np0kgko3go3xnvhx,gDrIn6mv,2020-0188,2020-11-14,23:16:01,23:33:55,NA,incomplete,24,shape,1,right,Purple_Plus_Chess_3.jpg,Green_Star_Chess_1.jpg,Blue_Plus_Dots_2.jpg,none,0,false,low,false
gDrIn6mv,3hy86pzxq1vtv1ivc3jn7sg3anve1z,3g5f9dbfotano7np0kgko3go3xnvhx,gDrIn6mv,2020-0188,2020-11-14,23:16:01,23:33:55,NA,incomplete,25,shape,1,left,Red_Circle_Dots_4.jpg,Green_Circle_Stripes_3.jpg,Purple_Plus_Dots_1.jpg,none,0,false,low,false
gDrIn6mv,3hy86pzxq1vtv1ivc3jn7sg3anve1z,3g5f9dbfotano7np0kgko3go3xnvhx,gDrIn6mv,2020-0188,2020-11-14,23:16:01,23:33:55,NA,incomplete,26,shape,1,left,Green_Triangle_Grid_2.jpg,Purple_Triangle_Chess_4.jpg,Blue_Plus_Grid_1.jpg,none,0,false,low,false
gDrIn6mv,3hy86pzxq1vtv1ivc3jn7sg3anve1z,3g5f9dbfotano7np0kgko3go3xnvhx,gDrIn6mv,2020-0188,2020-11-14,23:16:01,23:33:55,NA,incomplete,27,shape,1,right,Red_Triangle_Grid_4.jpg,Purple_Star_Grid_2.jpg,Green_Triangle_Chess_1.jpg,none,0,false,low,false
gDrIn6mv,3hy86pzxq1vtv1ivc3jn7sg3anve1z,3g5f9dbfotano7np0kgko3go3xnvhx,gDrIn6mv,2020-0188,2020-11-14,23:16:01,23:33:55,NA,incomplete,28,shape,1,left,Green_Circle_Dots_2.jpg,Purple_Circle_Grid_1.jpg,Blue_Star_Dots_4.jpg,none,0,false,low,false
gDrIn6mv,3hy86pzxq1vtv1ivc3jn7sg3anve1z,3g5f9dbfotano7np0kgko3go3xnvhx,gDrIn6mv,2020-0188,2020-11-14,23:16:01,23:33:55,NA,incomplete,29,shape,1,left,Red_Plus_Chess_2.jpg,Blue_Plus_Grid_1.jpg,Green_Circle_Chess_3.jpg,none,0,false,low,false
gDrIn6mv,3hy86pzxq1vtv1ivc3jn7sg3anve1z,3g5f9dbfotano7np0kgko3go3xnvhx,gDrIn6mv,2020-0188,2020-11-14,23:16:01,23:33:55,NA,incomplete,30,filling,1,right,Purple_Plus_Grid_2.jpg,Blue_Plus_Chess_4.jpg,Red_Star_Grid_3.jpg,none,0,false,low,false
gDrIn6mv,3hy86pzxq1vtv1ivc3jn7sg3anve1z,3g5f9dbfotano7np0kgko3go3xnvhx,gDrIn6mv,2020-0188,2020-11-14,23:16:01,23:33:55,NA,incomplete,31,filling,0,right,Blue_Star_Stripes_4.jpg,Red_Star_Chess_1.jpg,Purple_Circle_Stripes_2.jpg,none,0,false,low,false
gDrIn6mv,3hy86pzxq1vtv1ivc3jn7sg3anve1z,3g5f9dbfotano7np0kgko3go3xnvhx,gDrIn6mv,2020-0188,2020-11-14,23:16:01,23:33:55,NA,incomplete,32,filling,1,left,Red_Circle_Chess_4.jpg,Purple_Star_Chess_3.jpg,Green_Circle_Stripes_1.jpg,none,0,false,low,false
gDrIn6mv,3hy86pzxq1vtv1ivc3jn7sg3anve1z,3g5f9dbfotano7np0kgko3go3xnvhx,gDrIn6mv,2020-0188,2020-11-14,23:16:01,23:33:55,NA,incomplete,33,filling,0,left,Green_Circle_Grid_2.jpg,Red_Triangle_Grid_3.jpg,Blue_Circle_Dots_1.jpg,none,0,false,low,false
gDrIn6mv,3hy86pzxq1vtv1ivc3jn7sg3anve1z,3g5f9dbfotano7np0kgko3go3xnvhx,gDrIn6mv,2020-0188,2020-11-14,23:16:01,23:33:55,NA,incomplete,34,filling,0,left,Blue_Star_Chess_1.jpg,Purple_Triangle_Chess_4.jpg,Red_Star_Stripes_2.jpg,none,0,false,low,false
gDrIn6mv,3hy86pzxq1vtv1ivc3jn7sg3anve1z,3g5f9dbfotano7np0kgko3go3xnvhx,gDrIn6mv,2020-0188,2020-11-14,23:16:01,23:33:55,NA,incomplete,35,filling,0,left,Purple_Plus_Chess_2.jpg,Green_Triangle_Chess_1.jpg,Blue_Plus_Grid_4.jpg,none,0,false,low,false
gDrIn6mv,3hy86pzxq1vtv1ivc3jn7sg3anve1z,3g5f9dbfotano7np0kgko3go3xnvhx,gDrIn6mv,2020-0188,2020-11-14,23:16:01,23:33:55,NA,incomplete,36,filling,0,left,Blue_Plus_Stripes_1.jpg,Green_Triangle_Stripes_2.jpg,Red_Plus_Chess_4.jpg,none,0,false,low,false
gDrIn6mv,3hy86pzxq1vtv1ivc3jn7sg3anve1z,3g5f9dbfotano7np0kgko3go3xnvhx,gDrIn6mv,2020-0188,2020-11-14,23:16:01,23:33:55,NA,incomplete,37,filling,1,left,Green_Triangle_Grid_3.jpg,Red_Plus_Grid_2.jpg,Purple_Triangle_Stripes_4.jpg,none,0,false,low,false
gDrIn6mv,3hy86pzxq1vtv1ivc3jn7sg3anve1z,3g5f9dbfotano7np0kgko3go3xnvhx,gDrIn6mv,2020-0188,2020-11-14,23:16:01,23:33:55,NA,incomplete,38,filling,0,right,Green_Circle_Chess_4.jpg,Purple_Circle_Stripes_2.jpg,Red_Plus_Chess_3.jpg,none,0,false,low,false
gDrIn6mv,3hy86pzxq1vtv1ivc3jn7sg3anve1z,3g5f9dbfotano7np0kgko3go3xnvhx,gDrIn6mv,2020-0188,2020-11-14,23:16:01,23:33:55,NA,incomplete,39,filling,1,left,Red_Circle_Grid_1.jpg,Green_Star_Grid_3.jpg,Purple_Circle_Chess_4.jpg,none,0,false,low,false
gDrIn6mv,3hy86pzxq1vtv1ivc3jn7sg3anve1z,3g5f9dbfotano7np0kgko3go3xnvhx,gDrIn6mv,2020-0188,2020-11-14,23:16:01,23:33:55,NA,incomplete,40,filling,1,left,Blue_Plus_Dots_2.jpg,Purple_Star_Dots_1.jpg,Red_Plus_Grid_3.jpg,none,0,false,low,false
gDrIn6mv,3hy86pzxq1vtv1ivc3jn7sg3anve1z,3g5f9dbfotano7np0kgko3go3xnvhx,gDrIn6mv,2020-0188,2020-11-14,23:16:01,23:33:55,NA,incomplete,41,filling,1,right,Red_Circle_Chess_4.jpg,Green_Circle_Grid_2.jpg,Blue_Triangle_Chess_1.jpg,none,0,false,low,false
gDrIn6mv,3hy86pzxq1vtv1ivc3jn7sg3anve1z,3g5f9dbfotano7np0kgko3go3xnvhx,gDrIn6mv,2020-0188,2020-11-14,23:16:01,23:33:55,NA,incomplete,42,filling,1,left,Blue_Star_Stripes_3.jpg,Red_Plus_Stripes_1.jpg,Purple_Star_Chess_4.jpg,none,0,false,low,false
gDrIn6mv,3hy86pzxq1vtv1ivc3jn7sg3anve1z,3g5f9dbfotano7np0kgko3go3xnvhx,gDrIn6mv,2020-0188,2020-11-14,23:16:01,23:33:55,NA,incomplete,43,filling,1,left,Blue_Star_Dots_3.jpg,Purple_Circle_Dots_4.jpg,Green_Star_Chess_1.jpg,none,0,false,low,false
gDrIn6mv,3hy86pzxq1vtv1ivc3jn7sg3anve1z,3g5f9dbfotano7np0kgko3go3xnvhx,gDrIn6mv,2020-0188,2020-11-14,23:16:01,23:33:55,NA,incomplete,44,filling,1,left,Green_Circle_Grid_3.jpg,Purple_Triangle_Grid_1.jpg,Blue_Circle_Stripes_4.jpg,none,0,false,low,false
gDrIn6mv,3hy86pzxq1vtv1ivc3jn7sg3anve1z,3g5f9dbfotano7np0kgko3go3xnvhx,gDrIn6mv,2020-0188,2020-11-14,23:16:01,23:33:55,NA,incomplete,45,filling,1,left,Blue_Plus_Stripes_4.jpg,Red_Triangle_Stripes_2.jpg,Purple_Plus_Dots_3.jpg,none,0,false,low,false
gDrIn6mv,3hy86pzxq1vtv1ivc3jn7sg3anve1z,3g5f9dbfotano7np0kgko3go3xnvhx,gDrIn6mv,2020-0188,2020-11-14,23:16:01,23:33:55,NA,incomplete,46,filling,0,left,Purple_Triangle_Dots_4.jpg,Green_Plus_Dots_2.jpg,Blue_Triangle_Stripes_1.jpg,none,0,false,low,false
gDrIn6mv,3hy86pzxq1vtv1ivc3jn7sg3anve1z,3g5f9dbfotano7np0kgko3go3xnvhx,gDrIn6mv,2020-0188,2020-11-14,23:16:01,23:33:55,NA,incomplete,47,filling,1,right,Blue_Star_Chess_3.jpg,Red_Star_Dots_4.jpg,Purple_Triangle_Chess_2.jpg,none,0,false,low,false
gDrIn6mv,3hy86pzxq1vtv1ivc3jn7sg3anve1z,3g5f9dbfotano7np0kgko3go3xnvhx,gDrIn6mv,2020-0188,2020-11-14,23:16:01,23:33:55,NA,incomplete,48,filling,1,left,Blue_Plus_Dots_2.jpg,Red_Star_Dots_3.jpg,Purple_Plus_Chess_1.jpg,none,0,false,low,false
gDrIn6mv,3hy86pzxq1vtv1ivc3jn7sg3anve1z,3g5f9dbfotano7np0kgko3go3xnvhx,gDrIn6mv,2020-0188,2020-11-14,23:16:01,23:33:55,NA,incomplete,49,filling,1,left,Green_Circle_Chess_3.jpg,Blue_Star_Chess_1.jpg,Red_Circle_Dots_2.jpg,none,0,false,low,false
gDrIn6mv,3hy86pzxq1vtv1ivc3jn7sg3anve1z,3g5f9dbfotano7np0kgko3go3xnvhx,gDrIn6mv,2020-0188,2020-11-14,23:16:01,23:33:55,NA,incomplete,50,filling,0,right,Red_Circle_Grid_4.jpg,Green_Circle_Stripes_2.jpg,Purple_Plus_Grid_3.jpg,none,0,false,low,false
gDrIn6mv,3hy86pzxq1vtv1ivc3jn7sg3anve1z,3g5f9dbfotano7np0kgko3go3xnvhx,gDrIn6mv,2020-0188,2020-11-14,23:16:01,23:33:55,NA,incomplete,51,filling,0,left,Blue_Circle_Stripes_2.jpg,Green_Plus_Stripes_1.jpg,Red_Circle_Dots_4.jpg,none,0,false,low,false
gDrIn6mv,3hy86pzxq1vtv1ivc3jn7sg3anve1z,3g5f9dbfotano7np0kgko3go3xnvhx,gDrIn6mv,2020-0188,2020-11-14,23:16:01,23:33:55,NA,incomplete,52,filling,1,left,Red_Plus_Chess_4.jpg,Blue_Circle_Chess_1.jpg,Purple_Plus_Grid_3.jpg,none,0,false,low,false
gDrIn6mv,3hy86pzxq1vtv1ivc3jn7sg3anve1z,3g5f9dbfotano7np0kgko3go3xnvhx,gDrIn6mv,2020-0188,2020-11-14,23:16:01,23:33:55,NA,incomplete,53,filling,1,right,Green_Triangle_Chess_3.jpg,Red_Triangle_Dots_1.jpg,Purple_Circle_Chess_4.jpg,none,0,false,low,false
gDrIn6mv,3hy86pzxq1vtv1ivc3jn7sg3anve1z,3g5f9dbfotano7np0kgko3go3xnvhx,gDrIn6mv,2020-0188,2020-11-14,23:16:01,23:33:55,NA,incomplete,54,filling,1,right,Red_Star_Dots_1.jpg,Green_Star_Chess_4.jpg,Blue_Circle_Dots_3.jpg,none,0,false,low,false
gDrIn6mv,3hy86pzxq1vtv1ivc3jn7sg3anve1z,3g5f9dbfotano7np0kgko3go3xnvhx,gDrIn6mv,2020-0188,2020-11-14,23:16:01,23:33:55,NA,incomplete,55,filling,1,right,Green_Plus_Stripes_1.jpg,Blue_Plus_Grid_4.jpg,Red_Circle_Stripes_2.jpg,none,0,false,low,false
gDrIn6mv,3hy86pzxq1vtv1ivc3jn7sg3anve1z,3g5f9dbfotano7np0kgko3go3xnvhx,gDrIn6mv,2020-0188,2020-11-14,23:16:01,23:33:55,NA,incomplete,56,filling,0,right,Purple_Triangle_Grid_1.jpg,Blue_Triangle_Stripes_2.jpg,Green_Plus_Grid_4.jpg,none,0,false,low,false
gDrIn6mv,3hy86pzxq1vtv1ivc3jn7sg3anve1z,3g5f9dbfotano7np0kgko3go3xnvhx,gDrIn6mv,2020-0188,2020-11-14,23:16:01,23:33:55,NA,incomplete,57,filling,0,left,Purple_Star_Grid_3.jpg,Red_Triangle_Grid_1.jpg,Green_Star_Stripes_4.jpg,none,0,false,low,false
gDrIn6mv,3hy86pzxq1vtv1ivc3jn7sg3anve1z,3g5f9dbfotano7np0kgko3go3xnvhx,gDrIn6mv,2020-0188,2020-11-14,23:16:01,23:33:55,NA,incomplete,58,filling,1,right,Blue_Triangle_Grid_1.jpg,Purple_Triangle_Chess_3.jpg,Green_Plus_Grid_4.jpg,none,0,false,low,false
gDrIn6mv,3hy86pzxq1vtv1ivc3jn7sg3anve1z,3g5f9dbfotano7np0kgko3go3xnvhx,gDrIn6mv,2020-0188,2020-11-14,23:16:01,23:33:55,NA,incomplete,59,filling,1,right,Purple_Triangle_Chess_4.jpg,Red_Triangle_Stripes_3.jpg,Blue_Plus_Chess_2.jpg,none,0,false,low,false
gDrIn6mv,3hy86pzxq1vtv1ivc3jn7sg3anve1z,3g5f9dbfotano7np0kgko3go3xnvhx,gDrIn6mv,2020-0188,2020-11-14,23:16:01,23:33:55,NA,incomplete,60,shape,1,left,Green_Star_Chess_3.jpg,Purple_Star_Stripes_2.jpg,Red_Circle_Chess_1.jpg,none,0,false,low,false
gDrIn6mv,3hy86pzxq1vtv1ivc3jn7sg3anve1z,3g5f9dbfotano7np0kgko3go3xnvhx,gDrIn6mv,2020-0188,2020-11-14,23:16:01,23:33:55,NA,incomplete,61,shape,1,left,Red_Circle_Grid_3.jpg,Green_Circle_Chess_4.jpg,Blue_Star_Grid_2.jpg,none,0,false,low,false
gDrIn6mv,3hy86pzxq1vtv1ivc3jn7sg3anve1z,3g5f9dbfotano7np0kgko3go3xnvhx,gDrIn6mv,2020-0188,2020-11-14,23:16:01,23:33:55,NA,incomplete,62,shape,0,right,Green_Plus_Dots_2.jpg,Purple_Triangle_Dots_4.jpg,Red_Plus_Stripes_3.jpg,none,0,false,low,false
gDrIn6mv,3hy86pzxq1vtv1ivc3jn7sg3anve1z,3g5f9dbfotano7np0kgko3go3xnvhx,gDrIn6mv,2020-0188,2020-11-14,23:16:01,23:33:55,NA,incomplete,63,shape,1,left,Blue_Triangle_Dots_2.jpg,Purple_Triangle_Chess_1.jpg,Red_Plus_Dots_3.jpg,none,0,false,low,false
gDrIn6mv,3hy86pzxq1vtv1ivc3jn7sg3anve1z,3g5f9dbfotano7np0kgko3go3xnvhx,gDrIn6mv,2020-0188,2020-11-14,23:16:01,23:33:55,NA,incomplete,64,shape,1,right,Red_Triangle_Chess_2.jpg,Purple_Plus_Chess_1.jpg,Blue_Triangle_Stripes_3.jpg,none,0,false,low,false
gDrIn6mv,3hy86pzxq1vtv1ivc3jn7sg3anve1z,3g5f9dbfotano7np0kgko3go3xnvhx,gDrIn6mv,2020-0188,2020-11-14,23:16:01,23:33:55,NA,incomplete,65,shape,1,right,Blue_Circle_Grid_4.jpg,Purple_Star_Grid_2.jpg,Red_Circle_Chess_1.jpg,none,0,false,low,false
gDrIn6mv,3hy86pzxq1vtv1ivc3jn7sg3anve1z,3g5f9dbfotano7np0kgko3go3xnvhx,gDrIn6mv,2020-0188,2020-11-14,23:16:01,23:33:55,NA,incomplete,66,shape,0,right,Blue_Star_Dots_2.jpg,Purple_Plus_Dots_3.jpg,Red_Star_Grid_4.jpg,none,0,false,low,false
gDrIn6mv,3hy86pzxq1vtv1ivc3jn7sg3anve1z,3g5f9dbfotano7np0kgko3go3xnvhx,gDrIn6mv,2020-0188,2020-11-14,23:16:01,23:33:55,NA,incomplete,67,shape,1,right,Green_Triangle_Grid_4.jpg,Purple_Circle_Grid_1.jpg,Red_Triangle_Stripes_3.jpg,none,0,false,low,false
gDrIn6mv,3hy86pzxq1vtv1ivc3jn7sg3anve1z,3g5f9dbfotano7np0kgko3go3xnvhx,gDrIn6mv,2020-0188,2020-11-14,23:16:01,23:33:55,NA,incomplete,68,shape,1,left,Red_Circle_Grid_1.jpg,Blue_Circle_Chess_4.jpg,Green_Star_Grid_2.jpg,none,0,false,low,false
gDrIn6mv,3hy86pzxq1vtv1ivc3jn7sg3anve1z,3g5f9dbfotano7np0kgko3go3xnvhx,gDrIn6mv,2020-0188,2020-11-14,23:16:01,23:33:55,NA,incomplete,69,shape,1,right,Blue_Plus_Grid_1.jpg,Red_Circle_Grid_4.jpg,Purple_Plus_Stripes_2.jpg,none,0,false,low,false
gDrIn6mv,3hy86pzxq1vtv1ivc3jn7sg3anve1z,3g5f9dbfotano7np0kgko3go3xnvhx,gDrIn6mv,2020-0188,2020-11-14,23:16:01,23:33:55,NA,incomplete,70,shape,0,right,Blue_Circle_Grid_1.jpg,Red_Plus_Grid_4.jpg,Green_Circle_Chess_3.jpg,none,0,false,low,false
gDrIn6mv,3hy86pzxq1vtv1ivc3jn7sg3anve1z,3g5f9dbfotano7np0kgko3go3xnvhx,gDrIn6mv,2020-0188,2020-11-14,23:16:01,23:33:55,NA,incomplete,71,shape,1,right,Green_Circle_Chess_3.jpg,Purple_Star_Chess_2.jpg,Blue_Circle_Dots_4.jpg,none,0,false,low,false
gDrIn6mv,3hy86pzxq1vtv1ivc3jn7sg3anve1z,3g5f9dbfotano7np0kgko3go3xnvhx,gDrIn6mv,2020-0188,2020-11-14,23:16:01,23:33:55,NA,incomplete,72,shape,1,right,Green_Triangle_Dots_1.jpg,Blue_Plus_Dots_3.jpg,Purple_Triangle_Grid_2.jpg,none,0,false,low,false
gDrIn6mv,3hy86pzxq1vtv1ivc3jn7sg3anve1z,3g5f9dbfotano7np0kgko3go3xnvhx,gDrIn6mv,2020-0188,2020-11-14,23:16:01,23:33:55,NA,incomplete,73,shape,1,right,Green_Circle_Chess_2.jpg,Purple_Triangle_Chess_3.jpg,Red_Circle_Grid_4.jpg,none,0,false,low,false
gDrIn6mv,3hy86pzxq1vtv1ivc3jn7sg3anve1z,3g5f9dbfotano7np0kgko3go3xnvhx,gDrIn6mv,2020-0188,2020-11-14,23:16:01,23:33:55,NA,incomplete,74,shape,0,right,Green_Circle_Grid_4.jpg,Blue_Star_Grid_2.jpg,Purple_Circle_Stripes_1.jpg,none,0,false,low,false
gDrIn6mv,3hy86pzxq1vtv1ivc3jn7sg3anve1z,3g5f9dbfotano7np0kgko3go3xnvhx,gDrIn6mv,2020-0188,2020-11-14,23:16:01,23:33:55,NA,incomplete,75,shape,1,right,Purple_Circle_Stripes_3.jpg,Red_Plus_Stripes_1.jpg,Green_Circle_Chess_4.jpg,none,0,false,low,false
gDrIn6mv,3hy86pzxq1vtv1ivc3jn7sg3anve1z,3g5f9dbfotano7np0kgko3go3xnvhx,gDrIn6mv,2020-0188,2020-11-14,23:16:01,23:33:55,NA,incomplete,76,shape,0,left,Green_Circle_Stripes_1.jpg,Red_Circle_Chess_3.jpg,Purple_Triangle_Stripes_2.jpg,none,0,false,low,false
gDrIn6mv,3hy86pzxq1vtv1ivc3jn7sg3anve1z,3g5f9dbfotano7np0kgko3go3xnvhx,gDrIn6mv,2020-0188,2020-11-14,23:16:01,23:33:55,NA,incomplete,77,shape,0,right,Green_Triangle_Stripes_3.jpg,Red_Circle_Stripes_4.jpg,Purple_Triangle_Dots_1.jpg,none,0,false,low,false
gDrIn6mv,3hy86pzxq1vtv1ivc3jn7sg3anve1z,3g5f9dbfotano7np0kgko3go3xnvhx,gDrIn6mv,2020-0188,2020-11-14,23:16:01,23:33:55,NA,incomplete,78,shape,1,left,Purple_Star_Dots_4.jpg,Blue_Star_Grid_3.jpg,Green_Triangle_Dots_1.jpg,none,0,false,low,false
gDrIn6mv,3hy86pzxq1vtv1ivc3jn7sg3anve1z,3g5f9dbfotano7np0kgko3go3xnvhx,gDrIn6mv,2020-0188,2020-11-14,23:16:01,23:33:55,NA,incomplete,79,shape,1,left,Green_Triangle_Grid_3.jpg,Blue_Triangle_Dots_1.jpg,Red_Circle_Grid_2.jpg,none,0,false,low,false
gDrIn6mv,3hy86pzxq1vtv1ivc3jn7sg3anve1z,3g5f9dbfotano7np0kgko3go3xnvhx,gDrIn6mv,2020-0188,2020-11-14,23:16:01,23:33:55,NA,incomplete,80,shape,1,left,Green_Plus_Grid_2.jpg,Red_Plus_Stripes_1.jpg,Purple_Star_Grid_4.jpg,none,0,false,low,false
gDrIn6mv,3hy86pzxq1vtv1ivc3jn7sg3anve1z,3g5f9dbfotano7np0kgko3go3xnvhx,gDrIn6mv,2020-0188,2020-11-14,23:16:01,23:33:55,NA,incomplete,81,shape,0,left,Purple_Triangle_Grid_1.jpg,Green_Triangle_Chess_2.jpg,Blue_Plus_Grid_4.jpg,none,0,false,low,false
gDrIn6mv,3hy86pzxq1vtv1ivc3jn7sg3anve1z,3g5f9dbfotano7np0kgko3go3xnvhx,gDrIn6mv,2020-0188,2020-11-14,23:16:01,23:33:55,NA,incomplete,82,shape,1,right,Red_Circle_Grid_3.jpg,Blue_Plus_Grid_4.jpg,Green_Circle_Dots_1.jpg,none,0,false,low,false
gDrIn6mv,3hy86pzxq1vtv1ivc3jn7sg3anve1z,3g5f9dbfotano7np0kgko3go3xnvhx,gDrIn6mv,2020-0188,2020-11-14,23:16:01,23:33:55,NA,incomplete,83,shape,1,right,Purple_Plus_Grid_4.jpg,Blue_Triangle_Grid_2.jpg,Red_Plus_Stripes_1.jpg,none,0,false,low,false
gDrIn6mv,3hy86pzxq1vtv1ivc3jn7sg3anve1z,3g5f9dbfotano7np0kgko3go3xnvhx,gDrIn6mv,2020-0188,2020-11-14,23:16:01,23:33:55,NA,incomplete,84,shape,1,left,Blue_Star_Grid_2.jpg,Purple_Star_Chess_1.jpg,Green_Circle_Grid_4.jpg,none,0,false,low,false
gDrIn6mv,3hy86pzxq1vtv1ivc3jn7sg3anve1z,3g5f9dbfotano7np0kgko3go3xnvhx,gDrIn6mv,2020-0188,2020-11-14,23:16:01,23:33:55,NA,incomplete,85,shape,1,right,Green_Circle_Dots_2.jpg,Red_Plus_Dots_4.jpg,Blue_Circle_Chess_3.jpg,none,0,false,low,false
gDrIn6mv,3hy86pzxq1vtv1ivc3jn7sg3anve1z,3g5f9dbfotano7np0kgko3go3xnvhx,gDrIn6mv,2020-0188,2020-11-14,23:16:01,23:33:55,NA,incomplete,86,shape,1,left,Green_Plus_Grid_2.jpg,Blue_Plus_Chess_1.jpg,Red_Star_Grid_4.jpg,none,0,false,low,false
gDrIn6mv,3hy86pzxq1vtv1ivc3jn7sg3anve1z,3g5f9dbfotano7np0kgko3go3xnvhx,gDrIn6mv,2020-0188,2020-11-14,23:16:01,23:33:55,NA,incomplete,87,shape,1,left,Purple_Circle_Chess_4.jpg,Blue_Circle_Stripes_2.jpg,Green_Star_Chess_3.jpg,none,0,false,low,false
gDrIn6mv,3hy86pzxq1vtv1ivc3jn7sg3anve1z,3g5f9dbfotano7np0kgko3go3xnvhx,gDrIn6mv,2020-0188,2020-11-14,23:16:01,23:33:55,NA,incomplete,88,shape,1,left,Purple_Star_Stripes_3.jpg,Green_Star_Grid_1.jpg,Blue_Circle_Stripes_2.jpg,none,0,false,low,false
gDrIn6mv,3hy86pzxq1vtv1ivc3jn7sg3anve1z,3g5f9dbfotano7np0kgko3go3xnvhx,gDrIn6mv,2020-0188,2020-11-14,23:16:01,23:33:55,NA,incomplete,89,shape,0,right,Purple_Plus_Dots_1.jpg,Blue_Circle_Dots_3.jpg,Red_Plus_Grid_2.jpg,none,0,false,low,false
gDrIn6mv,3hy86pzxq1vtv1ivc3jn7sg3anve1z,3g5f9dbfotano7np0kgko3go3xnvhx,gDrIn6mv,2020-0188,2020-11-14,23:16:01,23:33:55,NA,incomplete,90,filling,1,left,Blue_Plus_Dots_4.jpg,Green_Circle_Dots_1.jpg,Purple_Plus_Chess_3.jpg,none,0,false,low,false
gDrIn6mv,3hy86pzxq1vtv1ivc3jn7sg3anve1z,3g5f9dbfotano7np0kgko3go3xnvhx,gDrIn6mv,2020-0188,2020-11-14,23:16:01,23:33:55,NA,incomplete,91,filling,1,left,Blue_Circle_Grid_4.jpg,Green_Star_Grid_3.jpg,Purple_Circle_Dots_2.jpg,none,0,false,low,false
gDrIn6mv,3hy86pzxq1vtv1ivc3jn7sg3anve1z,3g5f9dbfotano7np0kgko3go3xnvhx,gDrIn6mv,2020-0188,2020-11-14,23:16:01,23:33:55,NA,incomplete,92,filling,1,right,Green_Triangle_Stripes_3.jpg,Red_Triangle_Dots_1.jpg,Purple_Circle_Stripes_2.jpg,none,0,false,low,false
gDrIn6mv,3hy86pzxq1vtv1ivc3jn7sg3anve1z,3g5f9dbfotano7np0kgko3go3xnvhx,gDrIn6mv,2020-0188,2020-11-14,23:16:01,23:33:55,NA,incomplete,93,filling,0,left,Green_Circle_Stripes_4.jpg,Blue_Star_Stripes_1.jpg,Red_Circle_Dots_2.jpg,none,0,false,low,false
gDrIn6mv,3hy86pzxq1vtv1ivc3jn7sg3anve1z,3g5f9dbfotano7np0kgko3go3xnvhx,gDrIn6mv,2020-0188,2020-11-14,23:16:01,23:33:55,NA,incomplete,94,filling,1,right,Red_Plus_Grid_3.jpg,Green_Plus_Chess_2.jpg,Blue_Star_Grid_1.jpg,none,0,false,low,false
gDrIn6mv,3hy86pzxq1vtv1ivc3jn7sg3anve1z,3g5f9dbfotano7np0kgko3go3xnvhx,gDrIn6mv,2020-0188,2020-11-14,23:16:01,23:33:55,NA,incomplete,95,filling,1,right,Red_Circle_Dots_4.jpg,Blue_Circle_Grid_3.jpg,Purple_Triangle_Dots_1.jpg,none,0,false,low,false
gDrIn6mv,3hy86pzxq1vtv1ivc3jn7sg3anve1z,3g5f9dbfotano7np0kgko3go3xnvhx,gDrIn6mv,2020-0188,2020-11-14,23:16:01,23:33:55,NA,incomplete,96,filling,0,left,Green_Circle_Stripes_3.jpg,Red_Plus_Stripes_1.jpg,Blue_Circle_Chess_2.jpg,none,0,false,low,false
gDrIn6mv,3hy86pzxq1vtv1ivc3jn7sg3anve1z,3g5f9dbfotano7np0kgko3go3xnvhx,gDrIn6mv,2020-0188,2020-11-14,23:16:01,23:33:55,NA,incomplete,97,filling,1,left,Green_Plus_Stripes_4.jpg,Blue_Circle_Stripes_1.jpg,Purple_Plus_Dots_3.jpg,none,0,false,low,false
gDrIn6mv,3hy86pzxq1vtv1ivc3jn7sg3anve1z,3g5f9dbfotano7np0kgko3go3xnvhx,gDrIn6mv,2020-0188,2020-11-14,23:16:01,23:33:55,NA,incomplete,98,filling,0,right,Green_Triangle_Stripes_4.jpg,Purple_Triangle_Dots_2.jpg,Red_Circle_Stripes_1.jpg,none,0,false,low,false
gDrIn6mv,3hy86pzxq1vtv1ivc3jn7sg3anve1z,3g5f9dbfotano7np0kgko3go3xnvhx,gDrIn6mv,2020-0188,2020-11-14,23:16:01,23:33:55,NA,incomplete,99,filling,1,right,Blue_Circle_Grid_3.jpg,Purple_Circle_Stripes_4.jpg,Green_Triangle_Grid_1.jpg,none,0,false,low,false
gDrIn6mv,3hy86pzxq1vtv1ivc3jn7sg3anve1z,3g5f9dbfotano7np0kgko3go3xnvhx,gDrIn6mv,2020-0188,2020-11-14,23:16:01,23:33:55,NA,incomplete,100,filling,1,right,Green_Star_Grid_4.jpg,Red_Star_Chess_3.jpg,Purple_Plus_Grid_1.jpg,none,0,false,low,false
gDrIn6mv,3hy86pzxq1vtv1ivc3jn7sg3anve1z,3g5f9dbfotano7np0kgko3go3xnvhx,gDrIn6mv,2020-0188,2020-11-14,23:16:01,23:33:55,NA,incomplete,101,filling,1,right,Green_Star_Stripes_1.jpg,Purple_Star_Grid_4.jpg,Blue_Plus_Stripes_2.jpg,none,0,false,low,false
gDrIn6mv,3hy86pzxq1vtv1ivc3jn7sg3anve1z,3g5f9dbfotano7np0kgko3go3xnvhx,gDrIn6mv,2020-0188,2020-11-14,23:16:01,23:33:55,NA,incomplete,102,filling,1,left,Green_Triangle_Grid_3.jpg,Red_Plus_Grid_4.jpg,Blue_Triangle_Stripes_1.jpg,none,0,false,low,false
gDrIn6mv,3hy86pzxq1vtv1ivc3jn7sg3anve1z,3g5f9dbfotano7np0kgko3go3xnvhx,gDrIn6mv,2020-0188,2020-11-14,23:16:01,23:33:55,NA,incomplete,103,filling,1,left,Blue_Triangle_Chess_1.jpg,Purple_Plus_Chess_4.jpg,Red_Triangle_Grid_3.jpg,none,0,false,low,false
gDrIn6mv,3hy86pzxq1vtv1ivc3jn7sg3anve1z,3g5f9dbfotano7np0kgko3go3xnvhx,gDrIn6mv,2020-0188,2020-11-14,23:16:01,23:33:55,NA,incomplete,104,filling,1,left,Blue_Star_Stripes_1.jpg,Purple_Triangle_Stripes_4.jpg,Green_Star_Chess_3.jpg,none,0,false,low,false
gDrIn6mv,3hy86pzxq1vtv1ivc3jn7sg3anve1z,3g5f9dbfotano7np0kgko3go3xnvhx,gDrIn6mv,2020-0188,2020-11-14,23:16:01,23:33:55,NA,incomplete,105,filling,1,right,Red_Triangle_Dots_1.jpg,Green_Triangle_Grid_4.jpg,Purple_Star_Dots_3.jpg,none,0,false,low,false
gDrIn6mv,3hy86pzxq1vtv1ivc3jn7sg3anve1z,3g5f9dbfotano7np0kgko3go3xnvhx,gDrIn6mv,2020-0188,2020-11-14,23:16:01,23:33:55,NA,incomplete,106,filling,1,right,Purple_Star_Grid_3.jpg,Green_Star_Dots_4.jpg,Blue_Plus_Grid_2.jpg,none,0,false,low,false
gDrIn6mv,3hy86pzxq1vtv1ivc3jn7sg3anve1z,3g5f9dbfotano7np0kgko3go3xnvhx,gDrIn6mv,2020-0188,2020-11-14,23:16:01,23:33:55,NA,incomplete,107,filling,1,left,Red_Circle_Chess_3.jpg,Blue_Plus_Chess_4.jpg,Green_Circle_Grid_2.jpg,none,0,false,low,false
gDrIn6mv,3hy86pzxq1vtv1ivc3jn7sg3anve1z,3g5f9dbfotano7np0kgko3go3xnvhx,gDrIn6mv,2020-0188,2020-11-14,23:16:01,23:33:55,NA,incomplete,108,filling,1,left,Purple_Circle_Dots_3.jpg,Blue_Plus_Dots_4.jpg,Red_Circle_Chess_2.jpg,none,0,false,low,false
gDrIn6mv,3hy86pzxq1vtv1ivc3jn7sg3anve1z,3g5f9dbfotano7np0kgko3go3xnvhx,gDrIn6mv,2020-0188,2020-11-14,23:16:01,23:33:55,NA,incomplete,109,filling,1,right,Green_Triangle_Grid_2.jpg,Purple_Triangle_Stripes_4.jpg,Blue_Plus_Grid_1.jpg,none,0,false,low,false
gDrIn6mv,3hy86pzxq1vtv1ivc3jn7sg3anve1z,3g5f9dbfotano7np0kgko3go3xnvhx,gDrIn6mv,2020-0188,2020-11-14,23:16:01,23:33:55,NA,incomplete,110,filling,1,right,Green_Triangle_Chess_1.jpg,Red_Triangle_Grid_4.jpg,Purple_Plus_Chess_2.jpg,none,0,false,low,false
gDrIn6mv,3hy86pzxq1vtv1ivc3jn7sg3anve1z,3g5f9dbfotano7np0kgko3go3xnvhx,gDrIn6mv,2020-0188,2020-11-14,23:16:01,23:33:55,NA,incomplete,111,filling,1,right,Green_Plus_Chess_3.jpg,Blue_Plus_Grid_2.jpg,Red_Circle_Chess_4.jpg,none,0,false,low,false
gDrIn6mv,3hy86pzxq1vtv1ivc3jn7sg3anve1z,3g5f9dbfotano7np0kgko3go3xnvhx,gDrIn6mv,2020-0188,2020-11-14,23:16:01,23:33:55,NA,incomplete,112,filling,1,right,Blue_Triangle_Chess_1.jpg,Green_Triangle_Stripes_3.jpg,Red_Circle_Chess_4.jpg,none,0,false,low,false
gDrIn6mv,3hy86pzxq1vtv1ivc3jn7sg3anve1z,3g5f9dbfotano7np0kgko3go3xnvhx,gDrIn6mv,2020-0188,2020-11-14,23:16:01,23:33:55,NA,incomplete,113,filling,1,left,Purple_Triangle_Grid_4.jpg,Blue_Star_Grid_1.jpg,Green_Triangle_Dots_2.jpg,none,0,false,low,false
gDrIn6mv,3hy86pzxq1vtv1ivc3jn7sg3anve1z,3g5f9dbfotano7np0kgko3go3xnvhx,gDrIn6mv,2020-0188,2020-11-14,23:16:01,23:33:55,NA,incomplete,114,filling,1,left,Green_Circle_Dots_1.jpg,Purple_Triangle_Dots_3.jpg,Red_Circle_Chess_4.jpg,none,0,false,low,false
gDrIn6mv,3hy86pzxq1vtv1ivc3jn7sg3anve1z,3g5f9dbfotano7np0kgko3go3xnvhx,gDrIn6mv,2020-0188,2020-11-14,23:16:01,23:33:55,NA,incomplete,115,filling,1,left,Purple_Plus_Stripes_1.jpg,Blue_Triangle_Stripes_2.jpg,Red_Plus_Grid_3.jpg,none,0,false,low,false
gDrIn6mv,3hy86pzxq1vtv1ivc3jn7sg3anve1z,3g5f9dbfotano7np0kgko3go3xnvhx,gDrIn6mv,2020-0188,2020-11-14,23:16:01,23:33:55,NA,incomplete,116,filling,1,right,Blue_Star_Grid_2.jpg,Purple_Star_Chess_4.jpg,Green_Plus_Grid_3.jpg,none,0,false,low,false
gDrIn6mv,3hy86pzxq1vtv1ivc3jn7sg3anve1z,3g5f9dbfotano7np0kgko3go3xnvhx,gDrIn6mv,2020-0188,2020-11-14,23:16:01,23:33:55,NA,incomplete,117,filling,1,right,Red_Plus_Grid_3.jpg,Purple_Plus_Stripes_4.jpg,Green_Triangle_Grid_1.jpg,none,0,false,low,false
gDrIn6mv,3hy86pzxq1vtv1ivc3jn7sg3anve1z,3g5f9dbfotano7np0kgko3go3xnvhx,gDrIn6mv,2020-0188,2020-11-14,23:16:01,23:33:55,NA,incomplete,118,filling,1,right,Red_Triangle_Stripes_4.jpg,Purple_Triangle_Grid_1.jpg,Green_Circle_Stripes_3.jpg,none,0,false,low,false
gDrIn6mv,3hy86pzxq1vtv1ivc3jn7sg3anve1z,3g5f9dbfotano7np0kgko3go3xnvhx,gDrIn6mv,2020-0188,2020-11-14,23:16:01,23:33:55,NA,incomplete,119,filling,1,left,Red_Triangle_Chess_2.jpg,Purple_Circle_Chess_1.jpg,Blue_Triangle_Dots_3.jpg,none,0,false,low,false
gDrIn6mv,3hy86pzxq1vtv1ivc3jn7sg3anve1z,3g5f9dbfotano7np0kgko3go3xnvhx,gDrIn6mv,2020-0188,2020-11-14,23:16:01,23:33:55,NA,incomplete,120,shape,1,right,Purple_Triangle_Stripes_1.jpg,Blue_Circle_Stripes_4.jpg,Red_Triangle_Dots_3.jpg,none,0,false,low,false
gDrIn6mv,3hy86pzxq1vtv1ivc3jn7sg3anve1z,3g5f9dbfotano7np0kgko3go3xnvhx,gDrIn6mv,2020-0188,2020-11-14,23:16:01,23:33:55,NA,incomplete,121,shape,1,left,Green_Plus_Stripes_4.jpg,Red_Plus_Chess_1.jpg,Purple_Triangle_Stripes_2.jpg,none,0,false,low,false
gDrIn6mv,3hy86pzxq1vtv1ivc3jn7sg3anve1z,3g5f9dbfotano7np0kgko3go3xnvhx,gDrIn6mv,2020-0188,2020-11-14,23:16:01,23:33:55,NA,incomplete,122,shape,0,left,Blue_Triangle_Dots_1.jpg,Purple_Triangle_Grid_4.jpg,Green_Plus_Dots_2.jpg,none,0,false,low,false
gDrIn6mv,3hy86pzxq1vtv1ivc3jn7sg3anve1z,3g5f9dbfotano7np0kgko3go3xnvhx,gDrIn6mv,2020-0188,2020-11-14,23:16:01,23:33:55,NA,incomplete,123,shape,1,right,Purple_Star_Chess_3.jpg,Red_Circle_Chess_1.jpg,Green_Star_Grid_2.jpg,none,0,false,low,false
gDrIn6mv,3hy86pzxq1vtv1ivc3jn7sg3anve1z,3g5f9dbfotano7np0kgko3go3xnvhx,gDrIn6mv,2020-0188,2020-11-14,23:16:01,23:33:55,NA,incomplete,124,shape,0,right,Red_Triangle_Dots_4.jpg,Green_Star_Dots_2.jpg,Blue_Triangle_Stripes_1.jpg,none,0,false,low,false
gDrIn6mv,3hy86pzxq1vtv1ivc3jn7sg3anve1z,3g5f9dbfotano7np0kgko3go3xnvhx,gDrIn6mv,2020-0188,2020-11-14,23:16:01,23:33:55,NA,incomplete,125,shape,1,right,Green_Circle_Chess_1.jpg,Blue_Triangle_Chess_4.jpg,Red_Circle_Dots_3.jpg,none,0,false,low,false
gDrIn6mv,3hy86pzxq1vtv1ivc3jn7sg3anve1z,3g5f9dbfotano7np0kgko3go3xnvhx,gDrIn6mv,2020-0188,2020-11-14,23:16:01,23:33:55,NA,incomplete,126,shape,1,left,Green_Plus_Chess_1.jpg,Purple_Plus_Grid_4.jpg,Blue_Triangle_Chess_3.jpg,none,0,false,low,false
gDrIn6mv,3hy86pzxq1vtv1ivc3jn7sg3anve1z,3g5f9dbfotano7np0kgko3go3xnvhx,gDrIn6mv,2020-0188,2020-11-14,23:16:01,23:33:55,NA,incomplete,127,shape,1,left,Green_Plus_Chess_4.jpg,Red_Plus_Stripes_3.jpg,Blue_Circle_Chess_1.jpg,none,0,false,low,false
gDrIn6mv,3hy86pzxq1vtv1ivc3jn7sg3anve1z,3g5f9dbfotano7np0kgko3go3xnvhx,gDrIn6mv,2020-0188,2020-11-14,23:16:01,23:33:55,NA,incomplete,128,shape,1,right,Blue_Plus_Chess_2.jpg,Green_Circle_Chess_1.jpg,Purple_Plus_Dots_3.jpg,none,0,false,low,false
gDrIn6mv,3hy86pzxq1vtv1ivc3jn7sg3anve1z,3g5f9dbfotano7np0kgko3go3xnvhx,gDrIn6mv,2020-0188,2020-11-14,23:16:01,23:33:55,NA,incomplete,129,shape,1,right,Red_Circle_Stripes_3.jpg,Green_Star_Stripes_2.jpg,Blue_Circle_Dots_1.jpg,none,0,false,low,false
gDrIn6mv,3hy86pzxq1vtv1ivc3jn7sg3anve1z,3g5f9dbfotano7np0kgko3go3xnvhx,gDrIn6mv,2020-0188,2020-11-14,23:16:01,23:33:55,NA,incomplete,130,shape,1,left,Blue_Plus_Chess_2.jpg,Red_Plus_Grid_3.jpg,Green_Circle_Chess_4.jpg,none,0,false,low,false
gDrIn6mv,3hy86pzxq1vtv1ivc3jn7sg3anve1z,3g5f9dbfotano7np0kgko3go3xnvhx,gDrIn6mv,2020-0188,2020-11-14,23:16:01,23:33:55,NA,incomplete,131,shape,1,left,Red_Circle_Chess_2.jpg,Blue_Circle_Dots_1.jpg,Purple_Triangle_Chess_4.jpg,none,0,false,low,false
gDrIn6mv,3hy86pzxq1vtv1ivc3jn7sg3anve1z,3g5f9dbfotano7np0kgko3go3xnvhx,gDrIn6mv,2020-0188,2020-11-14,23:16:01,23:33:55,NA,incomplete,132,shape,0,left,Green_Star_Grid_1.jpg,Red_Star_Stripes_3.jpg,Blue_Circle_Grid_4.jpg,none,0,false,low,false
gDrIn6mv,3hy86pzxq1vtv1ivc3jn7sg3anve1z,3g5f9dbfotano7np0kgko3go3xnvhx,gDrIn6mv,2020-0188,2020-11-14,23:16:01,23:33:55,NA,incomplete,133,shape,1,left,Purple_Triangle_Grid_2.jpg,Green_Triangle_Dots_3.jpg,Red_Circle_Grid_1.jpg,none,0,false,low,false
gDrIn6mv,3hy86pzxq1vtv1ivc3jn7sg3anve1z,3g5f9dbfotano7np0kgko3go3xnvhx,gDrIn6mv,2020-0188,2020-11-14,23:16:01,23:33:55,NA,incomplete,134,shape,1,left,Red_Triangle_Stripes_1.jpg,Purple_Triangle_Dots_3.jpg,Blue_Circle_Stripes_4.jpg,none,0,false,low,false
gDrIn6mv,3hy86pzxq1vtv1ivc3jn7sg3anve1z,3g5f9dbfotano7np0kgko3go3xnvhx,gDrIn6mv,2020-0188,2020-11-14,23:16:01,23:33:55,NA,incomplete,135,shape,1,right,Red_Plus_Chess_4.jpg,Green_Star_Chess_2.jpg,Purple_Plus_Dots_1.jpg,none,0,false,low,false
gDrIn6mv,3hy86pzxq1vtv1ivc3jn7sg3anve1z,3g5f9dbfotano7np0kgko3go3xnvhx,gDrIn6mv,2020-0188,2020-11-14,23:16:01,23:33:55,NA,incomplete,136,shape,0,left,Purple_Triangle_Dots_3.jpg,Blue_Triangle_Stripes_2.jpg,Red_Plus_Dots_1.jpg,none,0,false,low,false
gDrIn6mv,3hy86pzxq1vtv1ivc3jn7sg3anve1z,3g5f9dbfotano7np0kgko3go3xnvhx,gDrIn6mv,2020-0188,2020-11-14,23:16:01,23:33:55,NA,incomplete,137,shape,1,right,Red_Star_Dots_4.jpg,Green_Plus_Dots_3.jpg,Blue_Star_Grid_2.jpg,none,0,false,low,false
gDrIn6mv,3hy86pzxq1vtv1ivc3jn7sg3anve1z,3g5f9dbfotano7np0kgko3go3xnvhx,gDrIn6mv,2020-0188,2020-11-14,23:16:01,23:33:55,NA,incomplete,138,shape,1,right,Red_Star_Dots_4.jpg,Blue_Triangle_Dots_1.jpg,Green_Star_Stripes_2.jpg,none,0,false,low,false
gDrIn6mv,3hy86pzxq1vtv1ivc3jn7sg3anve1z,3g5f9dbfotano7np0kgko3go3xnvhx,gDrIn6mv,2020-0188,2020-11-14,23:16:01,23:33:55,NA,incomplete,139,shape,1,left,Purple_Star_Grid_1.jpg,Red_Star_Dots_3.jpg,Green_Circle_Grid_4.jpg,none,0,false,low,false
gDrIn6mv,3hy86pzxq1vtv1ivc3jn7sg3anve1z,3g5f9dbfotano7np0kgko3go3xnvhx,gDrIn6mv,2020-0188,2020-11-14,23:16:01,23:33:55,NA,incomplete,140,filling,0,right,Red_Triangle_Dots_1.jpg,Purple_Triangle_Stripes_3.jpg,Blue_Plus_Dots_4.jpg,none,0,false,low,false
gDrIn6mv,3hy86pzxq1vtv1ivc3jn7sg3anve1z,3g5f9dbfotano7np0kgko3go3xnvhx,gDrIn6mv,2020-0188,2020-11-14,23:16:01,23:33:55,NA,incomplete,141,filling,1,left,Green_Star_Dots_1.jpg,Blue_Circle_Dots_3.jpg,Purple_Star_Stripes_4.jpg,none,0,false,low,false
gDrIn6mv,3hy86pzxq1vtv1ivc3jn7sg3anve1z,3g5f9dbfotano7np0kgko3go3xnvhx,gDrIn6mv,2020-0188,2020-11-14,23:16:01,23:33:55,NA,incomplete,142,filling,1,left,Red_Triangle_Chess_2.jpg,Green_Plus_Chess_3.jpg,Purple_Triangle_Grid_1.jpg,none,0,false,low,false
gDrIn6mv,3hy86pzxq1vtv1ivc3jn7sg3anve1z,3g5f9dbfotano7np0kgko3go3xnvhx,gDrIn6mv,2020-0188,2020-11-14,23:16:01,23:33:55,NA,incomplete,143,filling,0,right,Purple_Triangle_Stripes_1.jpg,Blue_Triangle_Grid_2.jpg,Red_Star_Stripes_3.jpg,none,0,false,low,false
gDrIn6mv,3hy86pzxq1vtv1ivc3jn7sg3anve1z,3g5f9dbfotano7np0kgko3go3xnvhx,gDrIn6mv,2020-0188,2020-11-14,23:16:01,23:33:55,NA,incomplete,144,filling,1,left,Blue_Triangle_Chess_3.jpg,Red_Plus_Chess_1.jpg,Purple_Triangle_Dots_2.jpg,none,0,false,low,false
gDrIn6mv,3hy86pzxq1vtv1ivc3jn7sg3anve1z,3g5f9dbfotano7np0kgko3go3xnvhx,gDrIn6mv,2020-0188,2020-11-14,23:16:01,23:33:55,NA,incomplete,145,filling,1,left,Red_Circle_Stripes_2.jpg,Green_Star_Stripes_1.jpg,Purple_Circle_Chess_3.jpg,none,0,false,low,false
gDrIn6mv,3hy86pzxq1vtv1ivc3jn7sg3anve1z,3g5f9dbfotano7np0kgko3go3xnvhx,gDrIn6mv,2020-0188,2020-11-14,23:16:01,23:33:55,NA,incomplete,146,filling,1,right,Green_Triangle_Chess_1.jpg,Purple_Triangle_Dots_2.jpg,Blue_Star_Chess_3.jpg,none,0,false,low,false
gDrIn6mv,3hy86pzxq1vtv1ivc3jn7sg3anve1z,3g5f9dbfotano7np0kgko3go3xnvhx,gDrIn6mv,2020-0188,2020-11-14,23:16:01,23:33:55,NA,incomplete,147,filling,1,right,Purple_Circle_Stripes_4.jpg,Blue_Circle_Grid_3.jpg,Red_Star_Stripes_1.jpg,none,0,false,low,false
gDrIn6mv,3hy86pzxq1vtv1ivc3jn7sg3anve1z,3g5f9dbfotano7np0kgko3go3xnvhx,gDrIn6mv,2020-0188,2020-11-14,23:16:01,23:33:55,NA,incomplete,148,filling,1,right,Blue_Circle_Grid_1.jpg,Green_Circle_Chess_3.jpg,Purple_Star_Grid_2.jpg,none,0,false,low,false
gDrIn6mv,3hy86pzxq1vtv1ivc3jn7sg3anve1z,3g5f9dbfotano7np0kgko3go3xnvhx,gDrIn6mv,2020-0188,2020-11-14,23:16:01,23:33:55,NA,incomplete,149,filling,1,right,Purple_Circle_Grid_4.jpg,Red_Circle_Dots_2.jpg,Green_Star_Grid_1.jpg,none,0,false,low,false
gDrIn6mv,3hy86pzxq1vtv1ivc3jn7sg3anve1z,3g5f9dbfotano7np0kgko3go3xnvhx,gDrIn6mv,2020-0188,2020-11-14,23:16:01,23:33:55,NA,incomplete,150,filling,1,left,Purple_Triangle_Stripes_2.jpg,Blue_Star_Stripes_4.jpg,Red_Triangle_Dots_1.jpg,none,0,false,low,false
gDrIn6mv,3hy86pzxq1vtv1ivc3jn7sg3anve1z,3g5f9dbfotano7np0kgko3go3xnvhx,gDrIn6mv,2020-0188,2020-11-14,23:16:01,23:33:55,NA,incomplete,151,filling,1,right,Red_Star_Dots_3.jpg,Blue_Star_Stripes_4.jpg,Green_Circle_Dots_2.jpg,none,0,false,low,false
gDrIn6mv,3hy86pzxq1vtv1ivc3jn7sg3anve1z,3g5f9dbfotano7np0kgko3go3xnvhx,gDrIn6mv,2020-0188,2020-11-14,23:16:01,23:33:55,NA,incomplete,152,filling,1,left,Red_Plus_Chess_4.jpg,Purple_Circle_Chess_3.jpg,Blue_Plus_Dots_2.jpg,none,0,false,low,false
gDrIn6mv,3hy86pzxq1vtv1ivc3jn7sg3anve1z,3g5f9dbfotano7np0kgko3go3xnvhx,gDrIn6mv,2020-0188,2020-11-14,23:16:01,23:33:55,NA,incomplete,153,filling,1,left,Red_Plus_Stripes_2.jpg,Blue_Triangle_Stripes_1.jpg,Purple_Plus_Dots_3.jpg,none,0,false,low,false
gDrIn6mv,3hy86pzxq1vtv1ivc3jn7sg3anve1z,3g5f9dbfotano7np0kgko3go3xnvhx,gDrIn6mv,2020-0188,2020-11-14,23:16:01,23:33:55,NA,incomplete,154,filling,0,right,Blue_Star_Chess_2.jpg,Green_Star_Dots_3.jpg,Purple_Circle_Chess_1.jpg,none,0,false,low,false
gDrIn6mv,3hy86pzxq1vtv1ivc3jn7sg3anve1z,3g5f9dbfotano7np0kgko3go3xnvhx,gDrIn6mv,2020-0188,2020-11-14,23:16:01,23:33:55,NA,incomplete,155,filling,1,left,Purple_Circle_Dots_3.jpg,Red_Star_Dots_2.jpg,Blue_Circle_Chess_1.jpg,none,0,false,low,false
gDrIn6mv,3hy86pzxq1vtv1ivc3jn7sg3anve1z,3g5f9dbfotano7np0kgko3go3xnvhx,gDrIn6mv,2020-0188,2020-11-14,23:16:01,23:33:55,NA,incomplete,156,filling,1,left,Purple_Star_Dots_1.jpg,Blue_Circle_Dots_2.jpg,Green_Star_Chess_3.jpg,none,0,false,low,false
gDrIn6mv,3hy86pzxq1vtv1ivc3jn7sg3anve1z,3g5f9dbfotano7np0kgko3go3xnvhx,gDrIn6mv,2020-0188,2020-11-14,23:16:01,23:33:55,NA,incomplete,157,filling,1,left,Purple_Circle_Dots_2.jpg,Green_Triangle_Dots_3.jpg,Red_Circle_Chess_4.jpg,none,0,false,low,false
gDrIn6mv,3hy86pzxq1vtv1ivc3jn7sg3anve1z,3g5f9dbfotano7np0kgko3go3xnvhx,gDrIn6mv,2020-0188,2020-11-14,23:16:01,23:33:55,NA,incomplete,158,filling,1,right,Purple_Star_Stripes_1.jpg,Red_Star_Chess_2.jpg,Green_Plus_Stripes_4.jpg,right,632.194999998319,true,low,false
gDrIn6mv,3hy86pzxq1vtv1ivc3jn7sg3anve1z,3g5f9dbfotano7np0kgko3go3xnvhx,gDrIn6mv,2020-0188,2020-11-14,23:16:01,23:33:55,NA,incomplete,159,filling,1,left,Purple_Triangle_Grid_4.jpg,Green_Plus_Grid_1.jpg,Red_Triangle_Chess_3.jpg,right,1123.9849999983562,false,low,false
gDrIn6mv,3hy86pzxq1vtv1ivc3jn7sg3anve1z,3g5f9dbfotano7np0kgko3go3xnvhx,gDrIn6mv,2020-0188,2020-11-14,23:16:01,23:33:55,NA,incomplete,160,shape,1,left,Purple_Star_Chess_1.jpg,Red_Star_Grid_2.jpg,Green_Circle_Chess_4.jpg,none,0,false,low,false
gDrIn6mv,3hy86pzxq1vtv1ivc3jn7sg3anve1z,3g5f9dbfotano7np0kgko3go3xnvhx,gDrIn6mv,2020-0188,2020-11-14,23:16:01,23:33:55,NA,incomplete,161,shape,1,right,Purple_Triangle_Dots_3.jpg,Blue_Star_Dots_4.jpg,Red_Triangle_Chess_2.jpg,none,0,false,low,false
gDrIn6mv,3hy86pzxq1vtv1ivc3jn7sg3anve1z,3g5f9dbfotano7np0kgko3go3xnvhx,gDrIn6mv,2020-0188,2020-11-14,23:16:01,23:33:55,NA,incomplete,162,shape,0,right,Purple_Star_Dots_3.jpg,Red_Triangle_Dots_4.jpg,Green_Star_Chess_2.jpg,none,0,false,low,false
gDrIn6mv,3hy86pzxq1vtv1ivc3jn7sg3anve1z,3g5f9dbfotano7np0kgko3go3xnvhx,gDrIn6mv,2020-0188,2020-11-14,23:16:01,23:33:55,NA,incomplete,163,shape,1,right,Purple_Circle_Dots_2.jpg,Green_Plus_Dots_4.jpg,Blue_Circle_Chess_3.jpg,none,0,false,low,false
gDrIn6mv,3hy86pzxq1vtv1ivc3jn7sg3anve1z,3g5f9dbfotano7np0kgko3go3xnvhx,gDrIn6mv,2020-0188,2020-11-14,23:16:01,23:33:55,NA,incomplete,164,shape,1,right,Green_Star_Grid_1.jpg,Red_Circle_Grid_3.jpg,Blue_Star_Dots_4.jpg,none,0,false,low,false
gDrIn6mv,3hy86pzxq1vtv1ivc3jn7sg3anve1z,3g5f9dbfotano7np0kgko3go3xnvhx,gDrIn6mv,2020-0188,2020-11-14,23:16:01,23:33:55,NA,incomplete,165,shape,1,right,Red_Circle_Grid_3.jpg,Blue_Triangle_Grid_2.jpg,Green_Circle_Chess_1.jpg,none,0,false,low,false
gDrIn6mv,3hy86pzxq1vtv1ivc3jn7sg3anve1z,3g5f9dbfotano7np0kgko3go3xnvhx,gDrIn6mv,2020-0188,2020-11-14,23:16:01,23:33:55,NA,incomplete,166,shape,1,left,Green_Star_Dots_4.jpg,Red_Star_Chess_1.jpg,Purple_Circle_Dots_2.jpg,none,0,false,low,false
gDrIn6mv,3hy86pzxq1vtv1ivc3jn7sg3anve1z,3g5f9dbfotano7np0kgko3go3xnvhx,gDrIn6mv,2020-0188,2020-11-14,23:16:01,23:33:55,NA,incomplete,167,shape,0,right,Purple_Star_Dots_4.jpg,Green_Plus_Dots_2.jpg,Blue_Star_Stripes_1.jpg,none,0,false,low,false
gDrIn6mv,3hy86pzxq1vtv1ivc3jn7sg3anve1z,3g5f9dbfotano7np0kgko3go3xnvhx,gDrIn6mv,2020-0188,2020-11-14,23:16:01,23:33:55,NA,incomplete,168,shape,1,right,Purple_Triangle_Dots_3.jpg,Red_Plus_Dots_4.jpg,Green_Triangle_Stripes_2.jpg,none,0,false,low,false
gDrIn6mv,3hy86pzxq1vtv1ivc3jn7sg3anve1z,3g5f9dbfotano7np0kgko3go3xnvhx,gDrIn6mv,2020-0188,2020-11-14,23:16:01,23:33:55,NA,incomplete,169,shape,0,right,Purple_Star_Grid_4.jpg,Blue_Circle_Grid_2.jpg,Green_Star_Chess_1.jpg,none,0,false,low,false
gDrIn6mv,3hy86pzxq1vtv1ivc3jn7sg3anve1z,3g5f9dbfotano7np0kgko3go3xnvhx,gDrIn6mv,2020-0188,2020-11-14,23:16:01,23:33:55,NA,incomplete,170,shape,1,right,Purple_Circle_Chess_1.jpg,Green_Plus_Chess_3.jpg,Red_Circle_Grid_2.jpg,none,0,false,low,false
gDrIn6mv,3hy86pzxq1vtv1ivc3jn7sg3anve1z,3g5f9dbfotano7np0kgko3go3xnvhx,gDrIn6mv,2020-0188,2020-11-14,23:16:01,23:33:55,NA,incomplete,171,shape,0,right,Blue_Star_Grid_1.jpg,Purple_Triangle_Grid_4.jpg,Green_Star_Stripes_3.jpg,none,0,false,low,false
gDrIn6mv,3hy86pzxq1vtv1ivc3jn7sg3anve1z,3g5f9dbfotano7np0kgko3go3xnvhx,gDrIn6mv,2020-0188,2020-11-14,23:16:01,23:33:55,NA,incomplete,172,shape,1,left,Purple_Triangle_Chess_2.jpg,Green_Triangle_Stripes_1.jpg,Blue_Circle_Chess_3.jpg,none,0,false,low,false
gDrIn6mv,3hy86pzxq1vtv1ivc3jn7sg3anve1z,3g5f9dbfotano7np0kgko3go3xnvhx,gDrIn6mv,2020-0188,2020-11-14,23:16:01,23:33:55,NA,incomplete,173,shape,1,left,Green_Plus_Dots_1.jpg,Blue_Plus_Grid_2.jpg,Purple_Star_Dots_3.jpg,none,0,false,low,false
gDrIn6mv,3hy86pzxq1vtv1ivc3jn7sg3anve1z,3g5f9dbfotano7np0kgko3go3xnvhx,gDrIn6mv,2020-0188,2020-11-14,23:16:01,23:33:55,NA,incomplete,174,shape,1,left,Blue_Triangle_Stripes_3.jpg,Red_Triangle_Grid_1.jpg,Purple_Circle_Stripes_4.jpg,none,0,false,low,false
gDrIn6mv,3hy86pzxq1vtv1ivc3jn7sg3anve1z,3g5f9dbfotano7np0kgko3go3xnvhx,gDrIn6mv,2020-0188,2020-11-14,23:16:01,23:33:55,NA,incomplete,175,shape,1,left,Blue_Circle_Dots_1.jpg,Red_Circle_Grid_4.jpg,Green_Plus_Dots_2.jpg,none,0,false,low,false
gDrIn6mv,3hy86pzxq1vtv1ivc3jn7sg3anve1z,3g5f9dbfotano7np0kgko3go3xnvhx,gDrIn6mv,2020-0188,2020-11-14,23:16:01,23:33:55,NA,incomplete,176,shape,1,right,Purple_Star_Chess_2.jpg,Green_Plus_Chess_3.jpg,Blue_Star_Stripes_1.jpg,none,0,false,low,false
gDrIn6mv,3hy86pzxq1vtv1ivc3jn7sg3anve1z,3g5f9dbfotano7np0kgko3go3xnvhx,gDrIn6mv,2020-0188,2020-11-14,23:16:01,23:33:55,NA,incomplete,177,shape,1,left,Purple_Plus_Chess_3.jpg,Blue_Plus_Dots_1.jpg,Red_Circle_Chess_4.jpg,none,0,false,low,false
gDrIn6mv,3hy86pzxq1vtv1ivc3jn7sg3anve1z,3g5f9dbfotano7np0kgko3go3xnvhx,gDrIn6mv,2020-0188,2020-11-14,23:16:01,23:33:55,NA,incomplete,178,shape,1,right,Green_Triangle_Chess_2.jpg,Blue_Circle_Chess_3.jpg,Red_Triangle_Dots_4.jpg,none,0,false,low,false
gDrIn6mv,3hy86pzxq1vtv1ivc3jn7sg3anve1z,3g5f9dbfotano7np0kgko3go3xnvhx,gDrIn6mv,2020-0188,2020-11-14,23:16:01,23:33:55,NA,incomplete,179,shape,1,right,Green_Triangle_Stripes_4.jpg,Red_Star_Stripes_1.jpg,Blue_Triangle_Chess_2.jpg,none,0,false,low,false
gDrIn6mv,3hy86pzxq1vtv1ivc3jn7sg3anve1z,3g5f9dbfotano7np0kgko3go3xnvhx,gDrIn6mv,2020-0188,2020-11-14,23:16:01,23:33:55,NA,incomplete,180,filling,1,right,Blue_Star_Grid_4.jpg,Red_Star_Stripes_1.jpg,Purple_Triangle_Grid_3.jpg,none,0,false,low,false
gDrIn6mv,3hy86pzxq1vtv1ivc3jn7sg3anve1z,3g5f9dbfotano7np0kgko3go3xnvhx,gDrIn6mv,2020-0188,2020-11-14,23:16:01,23:33:55,NA,incomplete,181,filling,0,right,Blue_Plus_Grid_2.jpg,Red_Plus_Stripes_4.jpg,Green_Circle_Grid_3.jpg,none,0,false,low,false
gDrIn6mv,3hy86pzxq1vtv1ivc3jn7sg3anve1z,3g5f9dbfotano7np0kgko3go3xnvhx,gDrIn6mv,2020-0188,2020-11-14,23:16:01,23:33:55,NA,incomplete,182,filling,1,left,Blue_Triangle_Chess_2.jpg,Red_Star_Chess_4.jpg,Purple_Triangle_Stripes_3.jpg,none,0,false,low,false
gDrIn6mv,3hy86pzxq1vtv1ivc3jn7sg3anve1z,3g5f9dbfotano7np0kgko3go3xnvhx,gDrIn6mv,2020-0188,2020-11-14,23:16:01,23:33:55,NA,incomplete,183,filling,1,right,Purple_Star_Grid_1.jpg,Green_Star_Chess_3.jpg,Blue_Circle_Grid_4.jpg,none,0,false,low,false
gDrIn6mv,3hy86pzxq1vtv1ivc3jn7sg3anve1z,3g5f9dbfotano7np0kgko3go3xnvhx,gDrIn6mv,2020-0188,2020-11-14,23:16:01,23:33:55,NA,incomplete,184,filling,1,right,Purple_Star_Dots_2.jpg,Green_Star_Grid_4.jpg,Blue_Plus_Dots_3.jpg,none,0,false,low,false
gDrIn6mv,3hy86pzxq1vtv1ivc3jn7sg3anve1z,3g5f9dbfotano7np0kgko3go3xnvhx,gDrIn6mv,2020-0188,2020-11-14,23:16:01,23:33:55,NA,incomplete,185,filling,1,right,Blue_Triangle_Stripes_3.jpg,Purple_Triangle_Grid_4.jpg,Red_Plus_Stripes_2.jpg,none,0,false,low,false
gDrIn6mv,3hy86pzxq1vtv1ivc3jn7sg3anve1z,3g5f9dbfotano7np0kgko3go3xnvhx,gDrIn6mv,2020-0188,2020-11-14,23:16:01,23:33:55,NA,incomplete,186,filling,0,right,Red_Star_Dots_4.jpg,Blue_Star_Chess_3.jpg,Purple_Circle_Dots_2.jpg,none,0,false,low,false
gDrIn6mv,3hy86pzxq1vtv1ivc3jn7sg3anve1z,3g5f9dbfotano7np0kgko3go3xnvhx,gDrIn6mv,2020-0188,2020-11-14,23:16:01,23:33:55,NA,incomplete,187,filling,1,left,Red_Star_Stripes_3.jpg,Green_Circle_Stripes_2.jpg,Blue_Star_Grid_1.jpg,none,0,false,low,false
gDrIn6mv,3hy86pzxq1vtv1ivc3jn7sg3anve1z,3g5f9dbfotano7np0kgko3go3xnvhx,gDrIn6mv,2020-0188,2020-11-14,23:16:01,23:33:55,NA,incomplete,188,filling,0,right,Green_Triangle_Chess_2.jpg,Red_Triangle_Dots_4.jpg,Blue_Star_Chess_1.jpg,none,0,false,low,false
gDrIn6mv,3hy86pzxq1vtv1ivc3jn7sg3anve1z,3g5f9dbfotano7np0kgko3go3xnvhx,gDrIn6mv,2020-0188,2020-11-14,23:16:01,23:33:55,NA,incomplete,189,filling,1,right,Green_Star_Grid_2.jpg,Purple_Star_Dots_1.jpg,Red_Triangle_Grid_4.jpg,none,0,false,low,false
gDrIn6mv,3hy86pzxq1vtv1ivc3jn7sg3anve1z,3g5f9dbfotano7np0kgko3go3xnvhx,gDrIn6mv,2020-0188,2020-11-14,23:16:01,23:33:55,NA,incomplete,190,filling,1,right,Blue_Star_Dots_1.jpg,Green_Star_Grid_2.jpg,Red_Circle_Dots_3.jpg,none,0,false,low,false
gDrIn6mv,3hy86pzxq1vtv1ivc3jn7sg3anve1z,3g5f9dbfotano7np0kgko3go3xnvhx,gDrIn6mv,2020-0188,2020-11-14,23:16:01,23:33:55,NA,incomplete,191,filling,1,left,Green_Circle_Chess_4.jpg,Blue_Star_Chess_3.jpg,Red_Circle_Grid_1.jpg,none,0,false,low,false
gDrIn6mv,3hy86pzxq1vtv1ivc3jn7sg3anve1z,3g5f9dbfotano7np0kgko3go3xnvhx,gDrIn6mv,2020-0188,2020-11-14,23:16:01,23:33:55,NA,incomplete,192,filling,1,left,Purple_Plus_Stripes_3.jpg,Red_Triangle_Stripes_1.jpg,Green_Plus_Dots_4.jpg,none,0,false,low,false
gDrIn6mv,3hy86pzxq1vtv1ivc3jn7sg3anve1z,3g5f9dbfotano7np0kgko3go3xnvhx,gDrIn6mv,2020-0188,2020-11-14,23:16:01,23:33:55,NA,incomplete,193,filling,1,right,Red_Triangle_Chess_4.jpg,Green_Triangle_Stripes_1.jpg,Purple_Circle_Chess_2.jpg,none,0,false,low,false
gDrIn6mv,3hy86pzxq1vtv1ivc3jn7sg3anve1z,3g5f9dbfotano7np0kgko3go3xnvhx,gDrIn6mv,2020-0188,2020-11-14,23:16:01,23:33:55,NA,incomplete,194,filling,0,right,Purple_Circle_Dots_1.jpg,Green_Circle_Grid_2.jpg,Red_Plus_Dots_4.jpg,none,0,false,low,false
gDrIn6mv,3hy86pzxq1vtv1ivc3jn7sg3anve1z,3g5f9dbfotano7np0kgko3go3xnvhx,gDrIn6mv,2020-0188,2020-11-14,23:16:01,23:33:55,NA,incomplete,195,filling,1,right,Blue_Plus_Stripes_3.jpg,Red_Plus_Dots_2.jpg,Green_Circle_Stripes_4.jpg,none,0,false,low,false
gDrIn6mv,3hy86pzxq1vtv1ivc3jn7sg3anve1z,3g5f9dbfotano7np0kgko3go3xnvhx,gDrIn6mv,2020-0188,2020-11-14,23:16:01,23:33:55,NA,incomplete,196,filling,1,right,Red_Circle_Grid_2.jpg,Green_Circle_Dots_4.jpg,Blue_Star_Grid_3.jpg,none,0,false,low,false
gDrIn6mv,3hy86pzxq1vtv1ivc3jn7sg3anve1z,3g5f9dbfotano7np0kgko3go3xnvhx,gDrIn6mv,2020-0188,2020-11-14,23:16:01,23:33:55,NA,incomplete,197,filling,1,left,Red_Plus_Dots_1.jpg,Green_Triangle_Dots_4.jpg,Purple_Plus_Stripes_2.jpg,none,0,false,low,false
gDrIn6mv,3hy86pzxq1vtv1ivc3jn7sg3anve1z,3g5f9dbfotano7np0kgko3go3xnvhx,gDrIn6mv,2020-0188,2020-11-14,23:16:01,23:33:55,NA,incomplete,198,filling,0,left,Blue_Triangle_Stripes_3.jpg,Green_Star_Stripes_2.jpg,Red_Triangle_Grid_4.jpg,none,0,false,low,false
gDrIn6mv,3hy86pzxq1vtv1ivc3jn7sg3anve1z,3g5f9dbfotano7np0kgko3go3xnvhx,gDrIn6mv,2020-0188,2020-11-14,23:16:01,23:33:55,NA,incomplete,199,filling,1,left,Red_Plus_Grid_2.jpg,Purple_Triangle_Grid_3.jpg,Green_Plus_Stripes_4.jpg,none,0,false,low,false
gDrIn6mv,3hy86pzxq1vtv1ivc3jn7sg3anve1z,3g5f9dbfotano7np0kgko3go3xnvhx,gDrIn6mv,2020-0188,2020-11-14,23:16:01,23:33:55,NA,incomplete,200,shape,1,left,Purple_Triangle_Dots_4.jpg,Green_Triangle_Chess_3.jpg,Blue_Star_Dots_2.jpg,none,0,false,low,false
gDrIn6mv,3hy86pzxq1vtv1ivc3jn7sg3anve1z,3g5f9dbfotano7np0kgko3go3xnvhx,gDrIn6mv,2020-0188,2020-11-14,23:16:01,23:33:55,NA,incomplete,201,shape,1,left,Green_Plus_Chess_4.jpg,Purple_Plus_Stripes_3.jpg,Blue_Triangle_Chess_1.jpg,none,0,false,low,false
gDrIn6mv,3hy86pzxq1vtv1ivc3jn7sg3anve1z,3g5f9dbfotano7np0kgko3go3xnvhx,gDrIn6mv,2020-0188,2020-11-14,23:16:01,23:33:55,NA,incomplete,202,shape,1,left,Purple_Triangle_Stripes_4.jpg,Green_Triangle_Grid_1.jpg,Red_Circle_Stripes_3.jpg,none,0,false,low,false
gDrIn6mv,3hy86pzxq1vtv1ivc3jn7sg3anve1z,3g5f9dbfotano7np0kgko3go3xnvhx,gDrIn6mv,2020-0188,2020-11-14,23:16:01,23:33:55,NA,incomplete,203,shape,1,left,Purple_Circle_Grid_3.jpg,Red_Circle_Dots_4.jpg,Blue_Triangle_Grid_2.jpg,none,0,false,low,false
gDrIn6mv,3hy86pzxq1vtv1ivc3jn7sg3anve1z,3g5f9dbfotano7np0kgko3go3xnvhx,gDrIn6mv,2020-0188,2020-11-14,23:16:01,23:33:55,NA,incomplete,204,shape,0,left,Purple_Circle_Stripes_4.jpg,Green_Circle_Chess_3.jpg,Red_Triangle_Stripes_1.jpg,none,0,false,low,false
gDrIn6mv,3hy86pzxq1vtv1ivc3jn7sg3anve1z,3g5f9dbfotano7np0kgko3go3xnvhx,gDrIn6mv,2020-0188,2020-11-14,23:16:01,23:33:55,NA,incomplete,205,shape,1,left,Red_Plus_Grid_2.jpg,Green_Plus_Chess_1.jpg,Blue_Triangle_Grid_3.jpg,none,0,false,low,false
gDrIn6mv,3hy86pzxq1vtv1ivc3jn7sg3anve1z,3g5f9dbfotano7np0kgko3go3xnvhx,gDrIn6mv,2020-0188,2020-11-14,23:16:01,23:33:55,NA,incomplete,206,shape,0,right,Green_Star_Grid_4.jpg,Blue_Triangle_Grid_1.jpg,Red_Star_Dots_3.jpg,none,0,false,low,false
gDrIn6mv,3hy86pzxq1vtv1ivc3jn7sg3anve1z,3g5f9dbfotano7np0kgko3go3xnvhx,gDrIn6mv,2020-0188,2020-11-14,23:16:01,23:33:55,NA,incomplete,207,shape,1,right,Blue_Star_Stripes_3.jpg,Purple_Circle_Stripes_4.jpg,Green_Star_Grid_1.jpg,none,0,false,low,false
gDrIn6mv,3hy86pzxq1vtv1ivc3jn7sg3anve1z,3g5f9dbfotano7np0kgko3go3xnvhx,gDrIn6mv,2020-0188,2020-11-14,23:16:01,23:33:55,NA,incomplete,208,shape,1,right,Red_Circle_Chess_2.jpg,Blue_Plus_Chess_3.jpg,Purple_Circle_Dots_1.jpg,none,0,false,low,false
gDrIn6mv,3hy86pzxq1vtv1ivc3jn7sg3anve1z,3g5f9dbfotano7np0kgko3go3xnvhx,gDrIn6mv,2020-0188,2020-11-14,23:16:01,23:33:55,NA,incomplete,209,shape,0,right,Purple_Circle_Grid_4.jpg,Green_Plus_Grid_1.jpg,Red_Circle_Dots_3.jpg,none,0,false,low,false
gDrIn6mv,3hy86pzxq1vtv1ivc3jn7sg3anve1z,3g5f9dbfotano7np0kgko3go3xnvhx,gDrIn6mv,2020-0188,2020-11-14,23:16:01,23:33:55,NA,incomplete,210,shape,1,left,Green_Star_Chess_3.jpg,Purple_Star_Stripes_1.jpg,Blue_Plus_Chess_4.jpg,none,0,false,low,false
gDrIn6mv,3hy86pzxq1vtv1ivc3jn7sg3anve1z,3g5f9dbfotano7np0kgko3go3xnvhx,gDrIn6mv,2020-0188,2020-11-14,23:16:01,23:33:55,NA,incomplete,211,shape,0,left,Purple_Star_Grid_3.jpg,Red_Star_Dots_2.jpg,Green_Plus_Grid_1.jpg,none,0,false,low,false
gDrIn6mv,3hy86pzxq1vtv1ivc3jn7sg3anve1z,3g5f9dbfotano7np0kgko3go3xnvhx,gDrIn6mv,2020-0188,2020-11-14,23:16:01,23:33:55,NA,incomplete,212,shape,1,right,Blue_Plus_Dots_4.jpg,Purple_Triangle_Dots_2.jpg,Green_Plus_Grid_3.jpg,none,0,false,low,false
gDrIn6mv,3hy86pzxq1vtv1ivc3jn7sg3anve1z,3g5f9dbfotano7np0kgko3go3xnvhx,gDrIn6mv,2020-0188,2020-11-14,23:16:01,23:33:55,NA,incomplete,213,shape,0,left,Green_Triangle_Stripes_4.jpg,Purple_Triangle_Chess_1.jpg,Red_Plus_Stripes_2.jpg,none,0,false,low,false
gDrIn6mv,3hy86pzxq1vtv1ivc3jn7sg3anve1z,3g5f9dbfotano7np0kgko3go3xnvhx,gDrIn6mv,2020-0188,2020-11-14,23:16:01,23:33:55,NA,incomplete,214,shape,1,right,Red_Star_Grid_1.jpg,Blue_Triangle_Grid_3.jpg,Green_Star_Chess_4.jpg,none,0,false,low,false
gDrIn6mv,3hy86pzxq1vtv1ivc3jn7sg3anve1z,3g5f9dbfotano7np0kgko3go3xnvhx,gDrIn6mv,2020-0188,2020-11-14,23:16:01,23:33:55,NA,incomplete,215,shape,1,left,Green_Plus_Chess_3.jpg,Red_Plus_Stripes_1.jpg,Blue_Star_Chess_2.jpg,none,0,false,low,false
gDrIn6mv,3hy86pzxq1vtv1ivc3jn7sg3anve1z,3g5f9dbfotano7np0kgko3go3xnvhx,gDrIn6mv,2020-0188,2020-11-14,23:16:01,23:33:55,NA,incomplete,216,shape,1,left,Green_Triangle_Dots_4.jpg,Purple_Triangle_Grid_3.jpg,Red_Circle_Dots_1.jpg,none,0,false,low,false
gDrIn6mv,3hy86pzxq1vtv1ivc3jn7sg3anve1z,3g5f9dbfotano7np0kgko3go3xnvhx,gDrIn6mv,2020-0188,2020-11-14,23:16:01,23:33:55,NA,incomplete,217,shape,1,right,Green_Circle_Stripes_4.jpg,Red_Plus_Stripes_3.jpg,Blue_Circle_Dots_1.jpg,none,0,false,low,false
gDrIn6mv,3hy86pzxq1vtv1ivc3jn7sg3anve1z,3g5f9dbfotano7np0kgko3go3xnvhx,gDrIn6mv,2020-0188,2020-11-14,23:16:01,23:33:55,NA,incomplete,218,shape,1,right,Red_Triangle_Grid_1.jpg,Blue_Star_Grid_2.jpg,Green_Triangle_Stripes_3.jpg,none,0,false,low,false
gDrIn6mv,3hy86pzxq1vtv1ivc3jn7sg3anve1z,3g5f9dbfotano7np0kgko3go3xnvhx,gDrIn6mv,2020-0188,2020-11-14,23:16:01,23:33:55,NA,incomplete,219,shape,0,right,Green_Triangle_Stripes_4.jpg,Blue_Circle_Stripes_2.jpg,Purple_Triangle_Dots_3.jpg,none,0,false,low,false
gDrIn6mv,3hy86pzxq1vtv1ivc3jn7sg3anve1z,3g5f9dbfotano7np0kgko3go3xnvhx,gDrIn6mv,2020-0188,2020-11-14,23:16:01,23:33:55,NA,incomplete,220,filling,1,right,Red_Triangle_Dots_3.jpg,Blue_Triangle_Grid_1.jpg,Purple_Star_Dots_2.jpg,none,0,false,low,false
gDrIn6mv,3hy86pzxq1vtv1ivc3jn7sg3anve1z,3g5f9dbfotano7np0kgko3go3xnvhx,gDrIn6mv,2020-0188,2020-11-14,23:16:01,23:33:55,NA,incomplete,221,filling,1,left,Purple_Plus_Chess_1.jpg,Green_Triangle_Chess_4.jpg,Red_Plus_Dots_3.jpg,none,0,false,low,false
gDrIn6mv,3hy86pzxq1vtv1ivc3jn7sg3anve1z,3g5f9dbfotano7np0kgko3go3xnvhx,gDrIn6mv,2020-0188,2020-11-14,23:16:01,23:33:55,NA,incomplete,222,filling,1,right,Blue_Plus_Chess_4.jpg,Purple_Plus_Stripes_1.jpg,Red_Triangle_Chess_2.jpg,none,0,false,low,false
gDrIn6mv,3hy86pzxq1vtv1ivc3jn7sg3anve1z,3g5f9dbfotano7np0kgko3go3xnvhx,gDrIn6mv,2020-0188,2020-11-14,23:16:01,23:33:55,NA,incomplete,223,filling,1,left,Red_Triangle_Dots_2.jpg,Green_Star_Dots_1.jpg,Blue_Triangle_Grid_3.jpg,none,0,false,low,false
gDrIn6mv,3hy86pzxq1vtv1ivc3jn7sg3anve1z,3g5f9dbfotano7np0kgko3go3xnvhx,gDrIn6mv,2020-0188,2020-11-14,23:16:01,23:33:55,NA,incomplete,224,filling,1,right,Red_Triangle_Stripes_3.jpg,Purple_Triangle_Chess_2.jpg,Green_Circle_Stripes_1.jpg,none,0,false,low,false
gDrIn6mv,3hy86pzxq1vtv1ivc3jn7sg3anve1z,3g5f9dbfotano7np0kgko3go3xnvhx,gDrIn6mv,2020-0188,2020-11-14,23:16:01,23:33:55,NA,incomplete,225,filling,1,left,Purple_Plus_Dots_4.jpg,Red_Triangle_Dots_3.jpg,Green_Plus_Stripes_2.jpg,none,0,false,low,false
gDrIn6mv,3hy86pzxq1vtv1ivc3jn7sg3anve1z,3g5f9dbfotano7np0kgko3go3xnvhx,gDrIn6mv,2020-0188,2020-11-14,23:16:01,23:33:55,NA,incomplete,226,filling,0,right,Blue_Circle_Chess_4.jpg,Purple_Circle_Grid_3.jpg,Green_Plus_Chess_2.jpg,none,0,false,low,false
gDrIn6mv,3hy86pzxq1vtv1ivc3jn7sg3anve1z,3g5f9dbfotano7np0kgko3go3xnvhx,gDrIn6mv,2020-0188,2020-11-14,23:16:01,23:33:55,NA,incomplete,227,filling,1,left,Purple_Circle_Chess_1.jpg,Red_Plus_Chess_2.jpg,Green_Circle_Grid_4.jpg,none,0,false,low,false
gDrIn6mv,3hy86pzxq1vtv1ivc3jn7sg3anve1z,3g5f9dbfotano7np0kgko3go3xnvhx,gDrIn6mv,2020-0188,2020-11-14,23:16:01,23:33:55,NA,incomplete,228,filling,1,left,Purple_Star_Stripes_1.jpg,Blue_Circle_Stripes_3.jpg,Green_Star_Dots_4.jpg,none,0,false,low,false
gDrIn6mv,3hy86pzxq1vtv1ivc3jn7sg3anve1z,3g5f9dbfotano7np0kgko3go3xnvhx,gDrIn6mv,2020-0188,2020-11-14,23:16:01,23:33:55,NA,incomplete,229,filling,1,right,Blue_Plus_Stripes_1.jpg,Red_Plus_Grid_4.jpg,Purple_Star_Stripes_2.jpg,none,0,false,low,false
gDrIn6mv,3hy86pzxq1vtv1ivc3jn7sg3anve1z,3g5f9dbfotano7np0kgko3go3xnvhx,gDrIn6mv,2020-0188,2020-11-14,23:16:01,23:33:55,NA,incomplete,230,filling,1,left,Red_Triangle_Chess_3.jpg,Green_Star_Chess_4.jpg,Purple_Triangle_Grid_1.jpg,none,0,false,low,false
gDrIn6mv,3hy86pzxq1vtv1ivc3jn7sg3anve1z,3g5f9dbfotano7np0kgko3go3xnvhx,gDrIn6mv,2020-0188,2020-11-14,23:16:01,23:33:55,NA,incomplete,231,filling,1,left,Green_Plus_Dots_2.jpg,Red_Circle_Dots_1.jpg,Blue_Plus_Grid_4.jpg,none,0,false,low,false
gDrIn6mv,3hy86pzxq1vtv1ivc3jn7sg3anve1z,3g5f9dbfotano7np0kgko3go3xnvhx,gDrIn6mv,2020-0188,2020-11-14,23:16:01,23:33:55,NA,incomplete,232,filling,0,right,Blue_Star_Chess_1.jpg,Green_Star_Stripes_2.jpg,Purple_Triangle_Chess_4.jpg,none,0,false,low,false
gDrIn6mv,3hy86pzxq1vtv1ivc3jn7sg3anve1z,3g5f9dbfotano7np0kgko3go3xnvhx,gDrIn6mv,2020-0188,2020-11-14,23:16:01,23:33:55,NA,incomplete,233,filling,1,right,Blue_Circle_Dots_3.jpg,Green_Circle_Stripes_4.jpg,Red_Plus_Dots_2.jpg,none,0,false,low,false
gDrIn6mv,3hy86pzxq1vtv1ivc3jn7sg3anve1z,3g5f9dbfotano7np0kgko3go3xnvhx,gDrIn6mv,2020-0188,2020-11-14,23:16:01,23:33:55,NA,incomplete,234,filling,1,left,Blue_Circle_Dots_1.jpg,Purple_Star_Dots_2.jpg,Red_Circle_Grid_3.jpg,none,0,false,low,false
gDrIn6mv,3hy86pzxq1vtv1ivc3jn7sg3anve1z,3g5f9dbfotano7np0kgko3go3xnvhx,gDrIn6mv,2020-0188,2020-11-14,23:16:01,23:33:55,NA,incomplete,235,filling,1,right,Red_Circle_Stripes_4.jpg,Blue_Circle_Grid_1.jpg,Green_Plus_Stripes_3.jpg,none,0,false,low,false
gDrIn6mv,3hy86pzxq1vtv1ivc3jn7sg3anve1z,3g5f9dbfotano7np0kgko3go3xnvhx,gDrIn6mv,2020-0188,2020-11-14,23:16:01,23:33:55,NA,incomplete,236,filling,1,left,Blue_Circle_Grid_1.jpg,Red_Triangle_Grid_2.jpg,Green_Circle_Stripes_4.jpg,none,0,false,low,false
gDrIn6mv,3hy86pzxq1vtv1ivc3jn7sg3anve1z,3g5f9dbfotano7np0kgko3go3xnvhx,gDrIn6mv,2020-0188,2020-11-14,23:16:01,23:33:55,NA,incomplete,237,filling,1,right,Red_Triangle_Grid_2.jpg,Blue_Triangle_Chess_3.jpg,Purple_Star_Grid_4.jpg,none,0,false,low,false
gDrIn6mv,3hy86pzxq1vtv1ivc3jn7sg3anve1z,3g5f9dbfotano7np0kgko3go3xnvhx,gDrIn6mv,2020-0188,2020-11-14,23:16:01,23:33:55,NA,incomplete,238,filling,1,right,Green_Plus_Grid_2.jpg,Red_Plus_Stripes_3.jpg,Blue_Triangle_Grid_1.jpg,none,0,false,low,false
gDrIn6mv,3hy86pzxq1vtv1ivc3jn7sg3anve1z,3g5f9dbfotano7np0kgko3go3xnvhx,gDrIn6mv,2020-0188,2020-11-14,23:16:01,23:33:55,NA,incomplete,239,filling,1,left,Blue_Circle_Dots_2.jpg,Red_Triangle_Dots_4.jpg,Purple_Circle_Grid_3.jpg,none,0,false,low,false
gDrIn6mv,3hy86pzxq1vtv1ivc3jn7sg3anve1z,3g5f9dbfotano7np0kgko3go3xnvhx,gDrIn6mv,2020-0188,2020-11-14,23:16:01,23:33:55,1052384.005,1074357.2649999987,NA,NA,NA,NA,NA,NA,NA,NA,NA,NA,NA,undefined
