workerId,hitId,assignmentId,subject,studyid,exp_date,exp_start,exp_end,time_start,time_end,trial,type,reward_validity,answer,image_top,image_left,image_right,response,response_time,response_acc,volatility,age,race,gender,ethnicity,color,vision,neuro,practice
nip9Of4P,33cla8o0nlo9ukh858i8v1jgjoffrm,3gd6l00d3watu982k3c89kh3wjqm1q,nip9Of4P,2020-0188,2020-05-08,16:20:17,16:35:31,NA,incomplete,0,shape,1,left,Green_Plus_Stripes_2.jpg,Purple_Plus_Grid_4.jpg,Red_Star_Stripes_3.jpg,left,1133.3700000541285,true,NA,NA,NA,NA,NA,NA,NA,NA,true
nip9Of4P,33cla8o0nlo9ukh858i8v1jgjoffrm,3gd6l00d3watu982k3c89kh3wjqm1q,nip9Of4P,2020-0188,2020-05-08,16:20:17,16:35:31,NA,incomplete,1,shape,1,right,Purple_Star_Chess_1.jpg,Blue_Plus_Chess_2.jpg,Red_Star_Grid_4.jpg,right,1217.0799999730662,true,NA,NA,NA,NA,NA,NA,NA,NA,true
nip9Of4P,33cla8o0nlo9ukh858i8v1jgjoffrm,3gd6l00d3watu982k3c89kh3wjqm1q,nip9Of4P,2020-0188,2020-05-08,16:20:17,16:35:31,NA,incomplete,2,shape,0,right,Purple_Plus_Grid_3.jpg,Red_Circle_Grid_4.jpg,Blue_Plus_Chess_1.jpg,right,874.9300000490621,true,NA,NA,NA,NA,NA,NA,NA,NA,true
nip9Of4P,33cla8o0nlo9ukh858i8v1jgjoffrm,3gd6l00d3watu982k3c89kh3wjqm1q,nip9Of4P,2020-0188,2020-05-08,16:20:17,16:35:31,NA,incomplete,3,shape,1,left,Red_Circle_Dots_3.jpg,Green_Circle_Grid_1.jpg,Purple_Plus_Dots_2.jpg,left,761.9900000281632,true,NA,NA,NA,NA,NA,NA,NA,NA,true
nip9Of4P,33cla8o0nlo9ukh858i8v1jgjoffrm,3gd6l00d3watu982k3c89kh3wjqm1q,nip9Of4P,2020-0188,2020-05-08,16:20:17,16:35:31,NA,incomplete,4,shape,0,left,Purple_Star_Chess_1.jpg,Red_Star_Stripes_3.jpg,Blue_Plus_Chess_4.jpg,left,901.6550000524148,true,NA,NA,NA,NA,NA,NA,NA,NA,true
nip9Of4P,33cla8o0nlo9ukh858i8v1jgjoffrm,3gd6l00d3watu982k3c89kh3wjqm1q,nip9Of4P,2020-0188,2020-05-08,16:20:17,16:35:31,NA,incomplete,5,shape,1,left,Red_Circle_Grid_1.jpg,Green_Circle_Chess_4.jpg,Blue_Plus_Grid_3.jpg,left,795.1149999862537,true,NA,NA,NA,NA,NA,NA,NA,NA,true
nip9Of4P,33cla8o0nlo9ukh858i8v1jgjoffrm,3gd6l00d3watu982k3c89kh3wjqm1q,nip9Of4P,2020-0188,2020-05-08,16:20:17,16:35:31,NA,incomplete,6,shape,1,left,Blue_Circle_Grid_1.jpg,Green_Circle_Stripes_4.jpg,Purple_Star_Grid_2.jpg,left,717.270000022836,true,NA,NA,NA,NA,NA,NA,NA,NA,true
nip9Of4P,33cla8o0nlo9ukh858i8v1jgjoffrm,3gd6l00d3watu982k3c89kh3wjqm1q,nip9Of4P,2020-0188,2020-05-08,16:20:17,16:35:31,NA,incomplete,7,shape,1,left,Blue_Plus_Dots_3.jpg,Red_Plus_Chess_4.jpg,Purple_Triangle_Dots_1.jpg,left,843.0100000696257,true,NA,NA,NA,NA,NA,NA,NA,NA,true
nip9Of4P,33cla8o0nlo9ukh858i8v1jgjoffrm,3gd6l00d3watu982k3c89kh3wjqm1q,nip9Of4P,2020-0188,2020-05-08,16:20:17,16:35:31,NA,incomplete,8,shape,1,left,Blue_Circle_Stripes_4.jpg,Green_Circle_Grid_2.jpg,Purple_Star_Stripes_3.jpg,left,811.1499999649823,true,NA,NA,NA,NA,NA,NA,NA,NA,true
nip9Of4P,33cla8o0nlo9ukh858i8v1jgjoffrm,3gd6l00d3watu982k3c89kh3wjqm1q,nip9Of4P,2020-0188,2020-05-08,16:20:17,16:35:31,NA,incomplete,9,shape,1,left,Purple_Star_Stripes_4.jpg,Green_Star_Grid_2.jpg,Blue_Plus_Stripes_3.jpg,left,941.4249999681488,true,NA,NA,NA,NA,NA,NA,NA,NA,true
nip9Of4P,33cla8o0nlo9ukh858i8v1jgjoffrm,3gd6l00d3watu982k3c89kh3wjqm1q,nip9Of4P,2020-0188,2020-05-08,16:20:17,16:35:31,NA,incomplete,10,shape,1,left,Green_Plus_Dots_1.jpg,Blue_Plus_Stripes_4.jpg,Red_Circle_Dots_2.jpg,left,632.9150000819936,true,NA,NA,NA,NA,NA,NA,NA,NA,true
nip9Of4P,33cla8o0nlo9ukh858i8v1jgjoffrm,3gd6l00d3watu982k3c89kh3wjqm1q,nip9Of4P,2020-0188,2020-05-08,16:20:17,16:35:31,NA,incomplete,11,shape,0,left,Purple_Star_Stripes_3.jpg,Blue_Star_Grid_4.jpg,Red_Triangle_Stripes_2.jpg,left,842.3450000118464,true,NA,NA,NA,NA,NA,NA,NA,NA,true
nip9Of4P,33cla8o0nlo9ukh858i8v1jgjoffrm,3gd6l00d3watu982k3c89kh3wjqm1q,nip9Of4P,2020-0188,2020-05-08,16:20:17,16:35:31,NA,incomplete,12,shape,1,left,Green_Circle_Dots_1.jpg,Purple_Circle_Grid_4.jpg,Blue_Star_Dots_3.jpg,left,682.8550000209361,true,NA,NA,NA,NA,NA,NA,NA,NA,true
nip9Of4P,33cla8o0nlo9ukh858i8v1jgjoffrm,3gd6l00d3watu982k3c89kh3wjqm1q,nip9Of4P,2020-0188,2020-05-08,16:20:17,16:35:31,NA,incomplete,13,shape,1,left,Blue_Triangle_Grid_4.jpg,Red_Triangle_Chess_2.jpg,Purple_Plus_Grid_1.jpg,left,801.149999955669,true,NA,NA,NA,NA,NA,NA,NA,NA,true
nip9Of4P,33cla8o0nlo9ukh858i8v1jgjoffrm,3gd6l00d3watu982k3c89kh3wjqm1q,nip9Of4P,2020-0188,2020-05-08,16:20:17,16:35:31,NA,incomplete,14,shape,0,left,Green_Plus_Chess_2.jpg,Purple_Plus_Grid_3.jpg,Red_Star_Chess_1.jpg,left,724.309999961406,true,NA,NA,NA,NA,NA,NA,NA,NA,true
nip9Of4P,33cla8o0nlo9ukh858i8v1jgjoffrm,3gd6l00d3watu982k3c89kh3wjqm1q,nip9Of4P,2020-0188,2020-05-08,16:20:17,16:35:31,NA,incomplete,15,shape,1,left,Blue_Plus_Dots_2.jpg,Purple_Plus_Chess_3.jpg,Red_Star_Dots_1.jpg,left,720.5700000049546,true,NA,NA,NA,NA,NA,NA,NA,NA,true
nip9Of4P,33cla8o0nlo9ukh858i8v1jgjoffrm,3gd6l00d3watu982k3c89kh3wjqm1q,nip9Of4P,2020-0188,2020-05-08,16:20:17,16:35:31,NA,incomplete,16,shape,1,right,Red_Circle_Chess_1.jpg,Blue_Plus_Chess_3.jpg,Purple_Circle_Stripes_2.jpg,right,781.650000018999,true,NA,NA,NA,NA,NA,NA,NA,NA,true
nip9Of4P,33cla8o0nlo9ukh858i8v1jgjoffrm,3gd6l00d3watu982k3c89kh3wjqm1q,nip9Of4P,2020-0188,2020-05-08,16:20:17,16:35:31,NA,incomplete,17,shape,1,right,Purple_Plus_Dots_4.jpg,Green_Star_Dots_2.jpg,Red_Plus_Grid_3.jpg,right,839.8699999088421,true,NA,NA,NA,NA,NA,NA,NA,NA,true
nip9Of4P,33cla8o0nlo9ukh858i8v1jgjoffrm,3gd6l00d3watu982k3c89kh3wjqm1q,nip9Of4P,2020-0188,2020-05-08,16:20:17,16:35:31,NA,incomplete,18,shape,1,left,Blue_Circle_Dots_2.jpg,Purple_Circle_Grid_4.jpg,Green_Plus_Dots_1.jpg,left,721.2850000942126,true,NA,NA,NA,NA,NA,NA,NA,NA,true
nip9Of4P,33cla8o0nlo9ukh858i8v1jgjoffrm,3gd6l00d3watu982k3c89kh3wjqm1q,nip9Of4P,2020-0188,2020-05-08,16:20:17,16:35:31,NA,incomplete,19,shape,0,left,Purple_Triangle_Stripes_3.jpg,Blue_Triangle_Grid_1.jpg,Red_Plus_Stripes_2.jpg,left,846.2000000290573,true,NA,NA,NA,NA,NA,NA,NA,NA,true
nip9Of4P,33cla8o0nlo9ukh858i8v1jgjoffrm,3gd6l00d3watu982k3c89kh3wjqm1q,nip9Of4P,2020-0188,2020-05-08,16:20:17,16:35:31,NA,incomplete,20,filling,1,right,Blue_Triangle_Stripes_2.jpg,Purple_Triangle_Chess_3.jpg,Red_Circle_Stripes_4.jpg,left,599.1050000302494,false,NA,NA,NA,NA,NA,NA,NA,NA,true
nip9Of4P,33cla8o0nlo9ukh858i8v1jgjoffrm,3gd6l00d3watu982k3c89kh3wjqm1q,nip9Of4P,2020-0188,2020-05-08,16:20:17,16:35:31,NA,incomplete,21,filling,1,left,Purple_Star_Stripes_4.jpg,Red_Triangle_Stripes_3.jpg,Blue_Star_Dots_2.jpg,right,921.085000038147,false,NA,NA,NA,NA,NA,NA,NA,NA,true
nip9Of4P,33cla8o0nlo9ukh858i8v1jgjoffrm,3gd6l00d3watu982k3c89kh3wjqm1q,nip9Of4P,2020-0188,2020-05-08,16:20:17,16:35:31,NA,incomplete,22,filling,1,right,Blue_Circle_Stripes_3.jpg,Red_Circle_Grid_4.jpg,Green_Plus_Stripes_2.jpg,right,1109.3699999619275,true,NA,NA,NA,NA,NA,NA,NA,NA,true
nip9Of4P,33cla8o0nlo9ukh858i8v1jgjoffrm,3gd6l00d3watu982k3c89kh3wjqm1q,nip9Of4P,2020-0188,2020-05-08,16:20:17,16:35:31,NA,incomplete,23,filling,1,right,Red_Star_Grid_2.jpg,Green_Star_Chess_3.jpg,Purple_Triangle_Grid_1.jpg,right,1875.3299999516457,true,NA,NA,NA,NA,NA,NA,NA,NA,true
nip9Of4P,33cla8o0nlo9ukh858i8v1jgjoffrm,3gd6l00d3watu982k3c89kh3wjqm1q,nip9Of4P,2020-0188,2020-05-08,16:20:17,16:35:31,NA,incomplete,24,filling,1,left,Red_Plus_Dots_3.jpg,Blue_Triangle_Dots_4.jpg,Purple_Plus_Grid_2.jpg,left,1201.8600000301376,true,NA,NA,NA,NA,NA,NA,NA,NA,true
nip9Of4P,33cla8o0nlo9ukh858i8v1jgjoffrm,3gd6l00d3watu982k3c89kh3wjqm1q,nip9Of4P,2020-0188,2020-05-08,16:20:17,16:35:31,NA,incomplete,25,filling,1,right,Red_Plus_Stripes_1.jpg,Blue_Plus_Chess_3.jpg,Purple_Star_Stripes_4.jpg,right,1211.4350000629202,true,NA,NA,NA,NA,NA,NA,NA,NA,true
nip9Of4P,33cla8o0nlo9ukh858i8v1jgjoffrm,3gd6l00d3watu982k3c89kh3wjqm1q,nip9Of4P,2020-0188,2020-05-08,16:20:17,16:35:31,NA,incomplete,26,filling,1,left,Purple_Circle_Chess_1.jpg,Green_Star_Chess_3.jpg,Blue_Circle_Grid_4.jpg,left,1092.1300000045449,true,NA,NA,NA,NA,NA,NA,NA,NA,true
nip9Of4P,33cla8o0nlo9ukh858i8v1jgjoffrm,3gd6l00d3watu982k3c89kh3wjqm1q,nip9Of4P,2020-0188,2020-05-08,16:20:17,16:35:31,NA,incomplete,27,filling,1,left,Red_Triangle_Chess_2.jpg,Purple_Star_Chess_1.jpg,Blue_Triangle_Dots_4.jpg,left,962.6599999610335,true,NA,NA,NA,NA,NA,NA,NA,NA,true
nip9Of4P,33cla8o0nlo9ukh858i8v1jgjoffrm,3gd6l00d3watu982k3c89kh3wjqm1q,nip9Of4P,2020-0188,2020-05-08,16:20:17,16:35:31,NA,incomplete,28,filling,0,left,Red_Triangle_Dots_1.jpg,Blue_Circle_Dots_4.jpg,Purple_Triangle_Chess_2.jpg,left,1126.4600000577047,true,NA,NA,NA,NA,NA,NA,NA,NA,true
nip9Of4P,33cla8o0nlo9ukh858i8v1jgjoffrm,3gd6l00d3watu982k3c89kh3wjqm1q,nip9Of4P,2020-0188,2020-05-08,16:20:17,16:35:31,NA,incomplete,29,filling,1,right,Green_Circle_Chess_1.jpg,Blue_Circle_Dots_4.jpg,Red_Triangle_Chess_2.jpg,right,1050.6799999857321,true,NA,NA,NA,NA,NA,NA,NA,NA,true
nip9Of4P,33cla8o0nlo9ukh858i8v1jgjoffrm,3gd6l00d3watu982k3c89kh3wjqm1q,nip9Of4P,2020-0188,2020-05-08,16:20:17,16:35:31,NA,incomplete,30,filling,0,left,Red_Plus_Stripes_4.jpg,Blue_Triangle_Stripes_3.jpg,Green_Plus_Grid_1.jpg,left,906.8399999523535,true,NA,NA,NA,NA,NA,NA,NA,NA,true
nip9Of4P,33cla8o0nlo9ukh858i8v1jgjoffrm,3gd6l00d3watu982k3c89kh3wjqm1q,nip9Of4P,2020-0188,2020-05-08,16:20:17,16:35:31,NA,incomplete,31,filling,1,left,Blue_Triangle_Grid_3.jpg,Red_Circle_Grid_4.jpg,Purple_Triangle_Chess_2.jpg,left,1296.7450000578538,true,NA,NA,NA,NA,NA,NA,NA,NA,true
nip9Of4P,33cla8o0nlo9ukh858i8v1jgjoffrm,3gd6l00d3watu982k3c89kh3wjqm1q,nip9Of4P,2020-0188,2020-05-08,16:20:17,16:35:31,NA,incomplete,32,filling,1,left,Purple_Plus_Dots_4.jpg,Blue_Triangle_Dots_2.jpg,Green_Plus_Chess_3.jpg,left,1094.359999988228,true,NA,NA,NA,NA,NA,NA,NA,NA,true
nip9Of4P,33cla8o0nlo9ukh858i8v1jgjoffrm,3gd6l00d3watu982k3c89kh3wjqm1q,nip9Of4P,2020-0188,2020-05-08,16:20:17,16:35:31,NA,incomplete,33,filling,1,right,Green_Star_Grid_4.jpg,Purple_Star_Dots_3.jpg,Blue_Plus_Grid_1.jpg,right,1137.224999954924,true,NA,NA,NA,NA,NA,NA,NA,NA,true
nip9Of4P,33cla8o0nlo9ukh858i8v1jgjoffrm,3gd6l00d3watu982k3c89kh3wjqm1q,nip9Of4P,2020-0188,2020-05-08,16:20:17,16:35:31,NA,incomplete,34,filling,1,right,Red_Triangle_Stripes_1.jpg,Green_Triangle_Dots_3.jpg,Purple_Star_Stripes_4.jpg,right,1111.6750000510365,true,NA,NA,NA,NA,NA,NA,NA,NA,true
nip9Of4P,33cla8o0nlo9ukh858i8v1jgjoffrm,3gd6l00d3watu982k3c89kh3wjqm1q,nip9Of4P,2020-0188,2020-05-08,16:20:17,16:35:31,NA,incomplete,35,filling,1,left,Purple_Star_Dots_3.jpg,Green_Plus_Dots_2.jpg,Blue_Star_Stripes_4.jpg,left,1118.335000006482,true,NA,NA,NA,NA,NA,NA,NA,NA,true
nip9Of4P,33cla8o0nlo9ukh858i8v1jgjoffrm,3gd6l00d3watu982k3c89kh3wjqm1q,nip9Of4P,2020-0188,2020-05-08,16:20:17,16:35:31,NA,incomplete,36,filling,1,left,Red_Star_Dots_2.jpg,Blue_Triangle_Dots_4.jpg,Purple_Star_Grid_1.jpg,left,1179.0449999971315,true,NA,NA,NA,NA,NA,NA,NA,NA,true
nip9Of4P,33cla8o0nlo9ukh858i8v1jgjoffrm,3gd6l00d3watu982k3c89kh3wjqm1q,nip9Of4P,2020-0188,2020-05-08,16:20:17,16:35:31,NA,incomplete,37,filling,0,right,Green_Plus_Dots_2.jpg,Blue_Plus_Stripes_4.jpg,Red_Circle_Dots_3.jpg,right,1197.8200000012293,true,NA,NA,NA,NA,NA,NA,NA,NA,true
nip9Of4P,33cla8o0nlo9ukh858i8v1jgjoffrm,3gd6l00d3watu982k3c89kh3wjqm1q,nip9Of4P,2020-0188,2020-05-08,16:20:17,16:35:31,NA,incomplete,38,filling,1,right,Blue_Circle_Dots_1.jpg,Green_Circle_Chess_3.jpg,Purple_Triangle_Dots_4.jpg,right,1111.9000000180677,true,NA,NA,NA,NA,NA,NA,NA,NA,true
nip9Of4P,33cla8o0nlo9ukh858i8v1jgjoffrm,3gd6l00d3watu982k3c89kh3wjqm1q,nip9Of4P,2020-0188,2020-05-08,16:20:17,16:35:31,NA,incomplete,39,filling,1,left,Purple_Star_Dots_2.jpg,Blue_Circle_Dots_1.jpg,Green_Star_Chess_3.jpg,left,1045.6949999788776,true,NA,NA,NA,NA,NA,NA,NA,NA,true
nip9Of4P,33cla8o0nlo9ukh858i8v1jgjoffrm,3gd6l00d3watu982k3c89kh3wjqm1q,nip9Of4P,2020-0188,2020-05-08,16:20:17,16:35:31,NA,incomplete,0,shape,1,left,Green_Triangle_Grid_4.jpg,Blue_Triangle_Dots_3.jpg,Red_Plus_Grid_1.jpg,left,1498.9199999254197,true,low,NA,NA,NA,NA,NA,NA,NA,false
nip9Of4P,33cla8o0nlo9ukh858i8v1jgjoffrm,3gd6l00d3watu982k3c89kh3wjqm1q,nip9Of4P,2020-0188,2020-05-08,16:20:17,16:35:31,NA,incomplete,1,shape,1,right,Purple_Star_Dots_2.jpg,Blue_Plus_Dots_1.jpg,Red_Star_Stripes_4.jpg,right,841.4249999914318,true,low,NA,NA,NA,NA,NA,NA,NA,false
nip9Of4P,33cla8o0nlo9ukh858i8v1jgjoffrm,3gd6l00d3watu982k3c89kh3wjqm1q,nip9Of4P,2020-0188,2020-05-08,16:20:17,16:35:31,NA,incomplete,2,shape,1,left,Red_Plus_Dots_3.jpg,Green_Plus_Stripes_2.jpg,Blue_Triangle_Dots_4.jpg,left,809.1049999929965,true,low,NA,NA,NA,NA,NA,NA,NA,false
nip9Of4P,33cla8o0nlo9ukh858i8v1jgjoffrm,3gd6l00d3watu982k3c89kh3wjqm1q,nip9Of4P,2020-0188,2020-05-08,16:20:17,16:35:31,NA,incomplete,3,shape,1,left,Red_Plus_Grid_2.jpg,Blue_Plus_Stripes_1.jpg,Purple_Circle_Grid_4.jpg,left,739.4100000383332,true,low,NA,NA,NA,NA,NA,NA,NA,false
nip9Of4P,33cla8o0nlo9ukh858i8v1jgjoffrm,3gd6l00d3watu982k3c89kh3wjqm1q,nip9Of4P,2020-0188,2020-05-08,16:20:17,16:35:31,NA,incomplete,4,shape,1,right,Blue_Star_Stripes_2.jpg,Red_Plus_Stripes_1.jpg,Purple_Star_Chess_4.jpg,right,856.8400000222027,true,low,NA,NA,NA,NA,NA,NA,NA,false
nip9Of4P,33cla8o0nlo9ukh858i8v1jgjoffrm,3gd6l00d3watu982k3c89kh3wjqm1q,nip9Of4P,2020-0188,2020-05-08,16:20:17,16:35:31,NA,incomplete,5,shape,1,left,Red_Triangle_Grid_4.jpg,Green_Triangle_Chess_1.jpg,Blue_Circle_Grid_3.jpg,left,806.9350000005215,true,low,NA,NA,NA,NA,NA,NA,NA,false
nip9Of4P,33cla8o0nlo9ukh858i8v1jgjoffrm,3gd6l00d3watu982k3c89kh3wjqm1q,nip9Of4P,2020-0188,2020-05-08,16:20:17,16:35:31,NA,incomplete,6,shape,1,left,Green_Plus_Stripes_4.jpg,Purple_Plus_Chess_1.jpg,Red_Circle_Stripes_3.jpg,left,817.0549999922514,true,low,NA,NA,NA,NA,NA,NA,NA,false
nip9Of4P,33cla8o0nlo9ukh858i8v1jgjoffrm,3gd6l00d3watu982k3c89kh3wjqm1q,nip9Of4P,2020-0188,2020-05-08,16:20:17,16:35:31,NA,incomplete,7,shape,1,right,Blue_Circle_Chess_4.jpg,Red_Star_Chess_1.jpg,Green_Circle_Stripes_2.jpg,right,714.5000000018626,true,low,NA,NA,NA,NA,NA,NA,NA,false
nip9Of4P,33cla8o0nlo9ukh858i8v1jgjoffrm,3gd6l00d3watu982k3c89kh3wjqm1q,nip9Of4P,2020-0188,2020-05-08,16:20:17,16:35:31,NA,incomplete,8,shape,1,right,Green_Circle_Dots_1.jpg,Purple_Plus_Dots_3.jpg,Red_Circle_Stripes_2.jpg,right,880.6399999884889,true,low,NA,NA,NA,NA,NA,NA,NA,false
nip9Of4P,33cla8o0nlo9ukh858i8v1jgjoffrm,3gd6l00d3watu982k3c89kh3wjqm1q,nip9Of4P,2020-0188,2020-05-08,16:20:17,16:35:31,NA,incomplete,9,shape,1,left,Purple_Triangle_Dots_1.jpg,Blue_Triangle_Stripes_4.jpg,Red_Plus_Dots_3.jpg,left,767.5799999851733,true,low,NA,NA,NA,NA,NA,NA,NA,false
nip9Of4P,33cla8o0nlo9ukh858i8v1jgjoffrm,3gd6l00d3watu982k3c89kh3wjqm1q,nip9Of4P,2020-0188,2020-05-08,16:20:17,16:35:31,NA,incomplete,10,shape,0,left,Purple_Plus_Stripes_4.jpg,Blue_Plus_Grid_2.jpg,Red_Triangle_Stripes_3.jpg,left,811.0749999759719,true,low,NA,NA,NA,NA,NA,NA,NA,false
nip9Of4P,33cla8o0nlo9ukh858i8v1jgjoffrm,3gd6l00d3watu982k3c89kh3wjqm1q,nip9Of4P,2020-0188,2020-05-08,16:20:17,16:35:31,NA,incomplete,11,shape,1,right,Green_Circle_Stripes_2.jpg,Blue_Plus_Stripes_1.jpg,Purple_Circle_Grid_4.jpg,right,700.6399999372661,true,low,NA,NA,NA,NA,NA,NA,NA,false
nip9Of4P,33cla8o0nlo9ukh858i8v1jgjoffrm,3gd6l00d3watu982k3c89kh3wjqm1q,nip9Of4P,2020-0188,2020-05-08,16:20:17,16:35:31,NA,incomplete,12,shape,1,right,Green_Plus_Grid_2.jpg,Blue_Circle_Grid_4.jpg,Purple_Plus_Stripes_1.jpg,right,795.7450000103563,true,low,NA,NA,NA,NA,NA,NA,NA,false
nip9Of4P,33cla8o0nlo9ukh858i8v1jgjoffrm,3gd6l00d3watu982k3c89kh3wjqm1q,nip9Of4P,2020-0188,2020-05-08,16:20:17,16:35:31,NA,incomplete,13,shape,1,right,Purple_Triangle_Grid_2.jpg,Red_Plus_Grid_4.jpg,Green_Triangle_Chess_3.jpg,right,869.6050000144169,true,low,NA,NA,NA,NA,NA,NA,NA,false
nip9Of4P,33cla8o0nlo9ukh858i8v1jgjoffrm,3gd6l00d3watu982k3c89kh3wjqm1q,nip9Of4P,2020-0188,2020-05-08,16:20:17,16:35:31,NA,incomplete,14,shape,1,right,Purple_Triangle_Stripes_1.jpg,Blue_Plus_Stripes_3.jpg,Green_Triangle_Chess_2.jpg,right,773.3449999941513,true,low,NA,NA,NA,NA,NA,NA,NA,false
nip9Of4P,33cla8o0nlo9ukh858i8v1jgjoffrm,3gd6l00d3watu982k3c89kh3wjqm1q,nip9Of4P,2020-0188,2020-05-08,16:20:17,16:35:31,NA,incomplete,15,shape,0,right,Blue_Plus_Dots_2.jpg,Green_Star_Dots_1.jpg,Purple_Plus_Grid_3.jpg,right,848.3799999812618,true,low,NA,NA,NA,NA,NA,NA,NA,false
nip9Of4P,33cla8o0nlo9ukh858i8v1jgjoffrm,3gd6l00d3watu982k3c89kh3wjqm1q,nip9Of4P,2020-0188,2020-05-08,16:20:17,16:35:31,NA,incomplete,16,shape,1,left,Purple_Triangle_Grid_4.jpg,Blue_Triangle_Dots_2.jpg,Green_Star_Grid_3.jpg,left,696.0550000658259,true,low,NA,NA,NA,NA,NA,NA,NA,false
nip9Of4P,33cla8o0nlo9ukh858i8v1jgjoffrm,3gd6l00d3watu982k3c89kh3wjqm1q,nip9Of4P,2020-0188,2020-05-08,16:20:17,16:35:31,NA,incomplete,17,shape,1,left,Green_Plus_Chess_3.jpg,Red_Plus_Grid_2.jpg,Blue_Star_Chess_1.jpg,left,806.3349999720231,true,low,NA,NA,NA,NA,NA,NA,NA,false
nip9Of4P,33cla8o0nlo9ukh858i8v1jgjoffrm,3gd6l00d3watu982k3c89kh3wjqm1q,nip9Of4P,2020-0188,2020-05-08,16:20:17,16:35:31,NA,incomplete,18,shape,1,left,Blue_Circle_Chess_1.jpg,Green_Circle_Stripes_4.jpg,Purple_Triangle_Chess_2.jpg,left,728.5450000781566,true,low,NA,NA,NA,NA,NA,NA,NA,false
nip9Of4P,33cla8o0nlo9ukh858i8v1jgjoffrm,3gd6l00d3watu982k3c89kh3wjqm1q,nip9Of4P,2020-0188,2020-05-08,16:20:17,16:35:31,NA,incomplete,19,shape,1,left,Purple_Plus_Chess_4.jpg,Green_Plus_Dots_3.jpg,Blue_Star_Chess_2.jpg,left,797.1350000007078,true,low,NA,NA,NA,NA,NA,NA,NA,false
nip9Of4P,33cla8o0nlo9ukh858i8v1jgjoffrm,3gd6l00d3watu982k3c89kh3wjqm1q,nip9Of4P,2020-0188,2020-05-08,16:20:17,16:35:31,NA,incomplete,20,shape,1,left,Red_Plus_Chess_1.jpg,Green_Plus_Grid_3.jpg,Blue_Circle_Chess_2.jpg,left,727.5699999881908,true,low,NA,NA,NA,NA,NA,NA,NA,false
nip9Of4P,33cla8o0nlo9ukh858i8v1jgjoffrm,3gd6l00d3watu982k3c89kh3wjqm1q,nip9Of4P,2020-0188,2020-05-08,16:20:17,16:35:31,NA,incomplete,21,shape,1,right,Red_Circle_Chess_4.jpg,Green_Plus_Chess_1.jpg,Blue_Circle_Dots_3.jpg,right,731.595000019297,true,low,NA,NA,NA,NA,NA,NA,NA,false
nip9Of4P,33cla8o0nlo9ukh858i8v1jgjoffrm,3gd6l00d3watu982k3c89kh3wjqm1q,nip9Of4P,2020-0188,2020-05-08,16:20:17,16:35:31,NA,incomplete,22,shape,1,left,Blue_Star_Dots_1.jpg,Green_Star_Grid_3.jpg,Red_Plus_Dots_4.jpg,left,707.1050000376999,true,low,NA,NA,NA,NA,NA,NA,NA,false
nip9Of4P,33cla8o0nlo9ukh858i8v1jgjoffrm,3gd6l00d3watu982k3c89kh3wjqm1q,nip9Of4P,2020-0188,2020-05-08,16:20:17,16:35:31,NA,incomplete,23,shape,0,right,Red_Plus_Grid_4.jpg,Blue_Circle_Grid_3.jpg,Green_Plus_Chess_2.jpg,right,799.7549999272451,true,low,NA,NA,NA,NA,NA,NA,NA,false
nip9Of4P,33cla8o0nlo9ukh858i8v1jgjoffrm,3gd6l00d3watu982k3c89kh3wjqm1q,nip9Of4P,2020-0188,2020-05-08,16:20:17,16:35:31,NA,incomplete,24,shape,0,right,Red_Circle_Chess_2.jpg,Blue_Triangle_Chess_4.jpg,Green_Circle_Grid_1.jpg,right,882.7100000344217,true,low,NA,NA,NA,NA,NA,NA,NA,false
nip9Of4P,33cla8o0nlo9ukh858i8v1jgjoffrm,3gd6l00d3watu982k3c89kh3wjqm1q,nip9Of4P,2020-0188,2020-05-08,16:20:17,16:35:31,NA,incomplete,25,shape,1,right,Red_Triangle_Chess_3.jpg,Blue_Plus_Chess_4.jpg,Purple_Triangle_Grid_1.jpg,left,1201.009999960661,false,low,NA,NA,NA,NA,NA,NA,NA,false
nip9Of4P,33cla8o0nlo9ukh858i8v1jgjoffrm,3gd6l00d3watu982k3c89kh3wjqm1q,nip9Of4P,2020-0188,2020-05-08,16:20:17,16:35:31,NA,incomplete,26,shape,1,right,Green_Plus_Chess_1.jpg,Blue_Star_Chess_2.jpg,Purple_Plus_Dots_3.jpg,none,0,false,low,NA,NA,NA,NA,NA,NA,NA,false
nip9Of4P,33cla8o0nlo9ukh858i8v1jgjoffrm,3gd6l00d3watu982k3c89kh3wjqm1q,nip9Of4P,2020-0188,2020-05-08,16:20:17,16:35:31,NA,incomplete,27,shape,1,left,Blue_Circle_Dots_1.jpg,Green_Circle_Chess_3.jpg,Purple_Plus_Dots_4.jpg,right,1029.3899999232963,false,low,NA,NA,NA,NA,NA,NA,NA,false
nip9Of4P,33cla8o0nlo9ukh858i8v1jgjoffrm,3gd6l00d3watu982k3c89kh3wjqm1q,nip9Of4P,2020-0188,2020-05-08,16:20:17,16:35:31,NA,incomplete,28,shape,1,left,Purple_Triangle_Grid_4.jpg,Red_Triangle_Stripes_3.jpg,Green_Star_Grid_2.jpg,left,822.1249999478459,true,low,NA,NA,NA,NA,NA,NA,NA,false
nip9Of4P,33cla8o0nlo9ukh858i8v1jgjoffrm,3gd6l00d3watu982k3c89kh3wjqm1q,nip9Of4P,2020-0188,2020-05-08,16:20:17,16:35:31,NA,incomplete,29,shape,0,right,Blue_Triangle_Grid_4.jpg,Red_Plus_Grid_3.jpg,Green_Triangle_Dots_2.jpg,right,798.754999996163,true,low,NA,NA,NA,NA,NA,NA,NA,false
nip9Of4P,33cla8o0nlo9ukh858i8v1jgjoffrm,3gd6l00d3watu982k3c89kh3wjqm1q,nip9Of4P,2020-0188,2020-05-08,16:20:17,16:35:31,NA,incomplete,30,filling,1,left,Blue_Triangle_Chess_1.jpg,Purple_Plus_Chess_4.jpg,Green_Triangle_Dots_2.jpg,right,721.1099999258295,false,low,NA,NA,NA,NA,NA,NA,NA,false
nip9Of4P,33cla8o0nlo9ukh858i8v1jgjoffrm,3gd6l00d3watu982k3c89kh3wjqm1q,nip9Of4P,2020-0188,2020-05-08,16:20:17,16:35:31,NA,incomplete,31,filling,1,right,Blue_Plus_Stripes_1.jpg,Purple_Plus_Grid_4.jpg,Green_Circle_Stripes_3.jpg,left,1126.9300000276417,false,low,NA,NA,NA,NA,NA,NA,NA,false
nip9Of4P,33cla8o0nlo9ukh858i8v1jgjoffrm,3gd6l00d3watu982k3c89kh3wjqm1q,nip9Of4P,2020-0188,2020-05-08,16:20:17,16:35:31,NA,incomplete,32,filling,1,right,Red_Circle_Stripes_4.jpg,Purple_Circle_Grid_1.jpg,Blue_Plus_Stripes_2.jpg,right,1027.1400000201538,true,low,NA,NA,NA,NA,NA,NA,NA,false
nip9Of4P,33cla8o0nlo9ukh858i8v1jgjoffrm,3gd6l00d3watu982k3c89kh3wjqm1q,nip9Of4P,2020-0188,2020-05-08,16:20:17,16:35:31,NA,incomplete,33,filling,1,right,Purple_Triangle_Grid_1.jpg,Green_Triangle_Stripes_3.jpg,Red_Plus_Grid_4.jpg,right,980.9900000691414,true,low,NA,NA,NA,NA,NA,NA,NA,false
nip9Of4P,33cla8o0nlo9ukh858i8v1jgjoffrm,3gd6l00d3watu982k3c89kh3wjqm1q,nip9Of4P,2020-0188,2020-05-08,16:20:17,16:35:31,NA,incomplete,34,filling,1,left,Green_Plus_Dots_2.jpg,Red_Triangle_Dots_4.jpg,Blue_Plus_Stripes_3.jpg,left,1007.8199999406934,true,low,NA,NA,NA,NA,NA,NA,NA,false
nip9Of4P,33cla8o0nlo9ukh858i8v1jgjoffrm,3gd6l00d3watu982k3c89kh3wjqm1q,nip9Of4P,2020-0188,2020-05-08,16:20:17,16:35:31,NA,incomplete,35,filling,1,left,Green_Plus_Dots_4.jpg,Red_Star_Dots_1.jpg,Purple_Plus_Grid_2.jpg,left,1064.394999993965,true,low,NA,NA,NA,NA,NA,NA,NA,false
nip9Of4P,33cla8o0nlo9ukh858i8v1jgjoffrm,3gd6l00d3watu982k3c89kh3wjqm1q,nip9Of4P,2020-0188,2020-05-08,16:20:17,16:35:31,NA,incomplete,36,filling,0,right,Purple_Star_Stripes_4.jpg,Red_Star_Chess_2.jpg,Green_Triangle_Stripes_3.jpg,right,895.7449999870732,true,low,NA,NA,NA,NA,NA,NA,NA,false
nip9Of4P,33cla8o0nlo9ukh858i8v1jgjoffrm,3gd6l00d3watu982k3c89kh3wjqm1q,nip9Of4P,2020-0188,2020-05-08,16:20:17,16:35:31,NA,incomplete,37,filling,1,left,Blue_Plus_Grid_4.jpg,Red_Circle_Grid_2.jpg,Green_Plus_Dots_1.jpg,left,974.3050000397488,true,low,NA,NA,NA,NA,NA,NA,NA,false
nip9Of4P,33cla8o0nlo9ukh858i8v1jgjoffrm,3gd6l00d3watu982k3c89kh3wjqm1q,nip9Of4P,2020-0188,2020-05-08,16:20:17,16:35:31,NA,incomplete,38,filling,0,right,Blue_Plus_Grid_3.jpg,Purple_Plus_Stripes_4.jpg,Green_Star_Grid_1.jpg,left,953.2850000541657,false,low,NA,NA,NA,NA,NA,NA,NA,false
nip9Of4P,33cla8o0nlo9ukh858i8v1jgjoffrm,3gd6l00d3watu982k3c89kh3wjqm1q,nip9Of4P,2020-0188,2020-05-08,16:20:17,16:35:31,NA,incomplete,39,filling,0,right,Red_Circle_Grid_3.jpg,Green_Circle_Stripes_1.jpg,Blue_Triangle_Grid_2.jpg,right,1020.4849999863654,true,low,NA,NA,NA,NA,NA,NA,NA,false
nip9Of4P,33cla8o0nlo9ukh858i8v1jgjoffrm,3gd6l00d3watu982k3c89kh3wjqm1q,nip9Of4P,2020-0188,2020-05-08,16:20:17,16:35:31,NA,incomplete,40,filling,0,right,Purple_Star_Grid_1.jpg,Blue_Star_Chess_4.jpg,Green_Circle_Grid_3.jpg,right,1141.5699999779463,true,low,NA,NA,NA,NA,NA,NA,NA,false
nip9Of4P,33cla8o0nlo9ukh858i8v1jgjoffrm,3gd6l00d3watu982k3c89kh3wjqm1q,nip9Of4P,2020-0188,2020-05-08,16:20:17,16:35:31,NA,incomplete,41,filling,0,left,Blue_Plus_Stripes_2.jpg,Green_Triangle_Stripes_1.jpg,Red_Plus_Chess_3.jpg,right,745.4650000436231,false,low,NA,NA,NA,NA,NA,NA,NA,false
nip9Of4P,33cla8o0nlo9ukh858i8v1jgjoffrm,3gd6l00d3watu982k3c89kh3wjqm1q,nip9Of4P,2020-0188,2020-05-08,16:20:17,16:35:31,NA,incomplete,42,filling,0,right,Green_Triangle_Chess_1.jpg,Purple_Triangle_Stripes_2.jpg,Red_Circle_Chess_4.jpg,left,766.0199999809265,false,low,NA,NA,NA,NA,NA,NA,NA,false
nip9Of4P,33cla8o0nlo9ukh858i8v1jgjoffrm,3gd6l00d3watu982k3c89kh3wjqm1q,nip9Of4P,2020-0188,2020-05-08,16:20:17,16:35:31,NA,incomplete,43,filling,1,left,Purple_Triangle_Grid_1.jpg,Blue_Circle_Grid_4.jpg,Red_Triangle_Chess_3.jpg,right,809.7499998984858,false,low,NA,NA,NA,NA,NA,NA,NA,false
nip9Of4P,33cla8o0nlo9ukh858i8v1jgjoffrm,3gd6l00d3watu982k3c89kh3wjqm1q,nip9Of4P,2020-0188,2020-05-08,16:20:17,16:35:31,NA,incomplete,44,filling,1,left,Blue_Star_Chess_3.jpg,Purple_Triangle_Chess_1.jpg,Red_Star_Grid_4.jpg,right,931.514999945648,false,low,NA,NA,NA,NA,NA,NA,NA,false
nip9Of4P,33cla8o0nlo9ukh858i8v1jgjoffrm,3gd6l00d3watu982k3c89kh3wjqm1q,nip9Of4P,2020-0188,2020-05-08,16:20:17,16:35:31,NA,incomplete,45,filling,1,left,Green_Triangle_Grid_1.jpg,Red_Circle_Grid_4.jpg,Purple_Triangle_Chess_3.jpg,left,921.2750000879169,true,low,NA,NA,NA,NA,NA,NA,NA,false
nip9Of4P,33cla8o0nlo9ukh858i8v1jgjoffrm,3gd6l00d3watu982k3c89kh3wjqm1q,nip9Of4P,2020-0188,2020-05-08,16:20:17,16:35:31,NA,incomplete,46,filling,1,left,Blue_Circle_Dots_3.jpg,Green_Plus_Dots_1.jpg,Purple_Circle_Grid_2.jpg,left,996.8949999893084,true,low,NA,NA,NA,NA,NA,NA,NA,false
nip9Of4P,33cla8o0nlo9ukh858i8v1jgjoffrm,3gd6l00d3watu982k3c89kh3wjqm1q,nip9Of4P,2020-0188,2020-05-08,16:20:17,16:35:31,NA,incomplete,47,filling,1,right,Blue_Circle_Grid_3.jpg,Green_Circle_Dots_1.jpg,Red_Triangle_Grid_4.jpg,right,887.0149999856949,true,low,NA,NA,NA,NA,NA,NA,NA,false
nip9Of4P,33cla8o0nlo9ukh858i8v1jgjoffrm,3gd6l00d3watu982k3c89kh3wjqm1q,nip9Of4P,2020-0188,2020-05-08,16:20:17,16:35:31,NA,incomplete,48,filling,1,left,Blue_Star_Stripes_1.jpg,Green_Circle_Stripes_2.jpg,Red_Star_Chess_4.jpg,left,861.9150000158697,true,low,NA,NA,NA,NA,NA,NA,NA,false
nip9Of4P,33cla8o0nlo9ukh858i8v1jgjoffrm,3gd6l00d3watu982k3c89kh3wjqm1q,nip9Of4P,2020-0188,2020-05-08,16:20:17,16:35:31,NA,incomplete,49,filling,1,right,Blue_Star_Chess_2.jpg,Red_Star_Grid_1.jpg,Green_Triangle_Chess_3.jpg,right,949.4249999988824,true,low,NA,NA,NA,NA,NA,NA,NA,false
nip9Of4P,33cla8o0nlo9ukh858i8v1jgjoffrm,3gd6l00d3watu982k3c89kh3wjqm1q,nip9Of4P,2020-0188,2020-05-08,16:20:17,16:35:31,NA,incomplete,50,filling,1,left,Blue_Star_Chess_3.jpg,Red_Circle_Chess_4.jpg,Purple_Star_Grid_2.jpg,left,905.8049999875948,true,low,NA,NA,NA,NA,NA,NA,NA,false
nip9Of4P,33cla8o0nlo9ukh858i8v1jgjoffrm,3gd6l00d3watu982k3c89kh3wjqm1q,nip9Of4P,2020-0188,2020-05-08,16:20:17,16:35:31,NA,incomplete,51,filling,1,left,Red_Plus_Grid_2.jpg,Purple_Star_Grid_4.jpg,Green_Plus_Stripes_1.jpg,left,1031.8200000328943,true,low,NA,NA,NA,NA,NA,NA,NA,false
nip9Of4P,33cla8o0nlo9ukh858i8v1jgjoffrm,3gd6l00d3watu982k3c89kh3wjqm1q,nip9Of4P,2020-0188,2020-05-08,16:20:17,16:35:31,NA,incomplete,52,filling,1,right,Red_Plus_Chess_1.jpg,Blue_Plus_Grid_3.jpg,Green_Triangle_Chess_4.jpg,right,864.2150000669062,true,low,NA,NA,NA,NA,NA,NA,NA,false
nip9Of4P,33cla8o0nlo9ukh858i8v1jgjoffrm,3gd6l00d3watu982k3c89kh3wjqm1q,nip9Of4P,2020-0188,2020-05-08,16:20:17,16:35:31,NA,incomplete,53,filling,0,left,Blue_Circle_Dots_4.jpg,Green_Star_Dots_3.jpg,Purple_Circle_Grid_2.jpg,left,1032.3250000365078,true,low,NA,NA,NA,NA,NA,NA,NA,false
nip9Of4P,33cla8o0nlo9ukh858i8v1jgjoffrm,3gd6l00d3watu982k3c89kh3wjqm1q,nip9Of4P,2020-0188,2020-05-08,16:20:17,16:35:31,NA,incomplete,54,filling,1,right,Blue_Star_Dots_3.jpg,Purple_Star_Stripes_4.jpg,Red_Plus_Dots_2.jpg,right,912.5900000799447,true,low,NA,NA,NA,NA,NA,NA,NA,false
nip9Of4P,33cla8o0nlo9ukh858i8v1jgjoffrm,3gd6l00d3watu982k3c89kh3wjqm1q,nip9Of4P,2020-0188,2020-05-08,16:20:17,16:35:31,NA,incomplete,55,filling,1,left,Green_Circle_Grid_3.jpg,Blue_Star_Grid_2.jpg,Purple_Circle_Dots_4.jpg,left,918.3999999659136,true,low,NA,NA,NA,NA,NA,NA,NA,false
nip9Of4P,33cla8o0nlo9ukh858i8v1jgjoffrm,3gd6l00d3watu982k3c89kh3wjqm1q,nip9Of4P,2020-0188,2020-05-08,16:20:17,16:35:31,NA,incomplete,56,filling,1,left,Red_Star_Chess_3.jpg,Purple_Triangle_Chess_4.jpg,Green_Star_Stripes_2.jpg,left,907.8600000357255,true,low,NA,NA,NA,NA,NA,NA,NA,false
nip9Of4P,33cla8o0nlo9ukh858i8v1jgjoffrm,3gd6l00d3watu982k3c89kh3wjqm1q,nip9Of4P,2020-0188,2020-05-08,16:20:17,16:35:31,NA,incomplete,57,filling,1,left,Red_Triangle_Stripes_4.jpg,Green_Star_Stripes_2.jpg,Blue_Triangle_Grid_3.jpg,left,985.2500000270084,true,low,NA,NA,NA,NA,NA,NA,NA,false
nip9Of4P,33cla8o0nlo9ukh858i8v1jgjoffrm,3gd6l00d3watu982k3c89kh3wjqm1q,nip9Of4P,2020-0188,2020-05-08,16:20:17,16:35:31,NA,incomplete,58,filling,0,left,Green_Circle_Dots_3.jpg,Red_Star_Dots_1.jpg,Purple_Circle_Stripes_2.jpg,right,987.5300000421703,false,low,NA,NA,NA,NA,NA,NA,NA,false
nip9Of4P,33cla8o0nlo9ukh858i8v1jgjoffrm,3gd6l00d3watu982k3c89kh3wjqm1q,nip9Of4P,2020-0188,2020-05-08,16:20:17,16:35:31,NA,incomplete,59,filling,1,right,Blue_Triangle_Stripes_4.jpg,Purple_Triangle_Grid_3.jpg,Red_Circle_Stripes_1.jpg,right,1428.7550000008196,true,low,NA,NA,NA,NA,NA,NA,NA,false
nip9Of4P,33cla8o0nlo9ukh858i8v1jgjoffrm,3gd6l00d3watu982k3c89kh3wjqm1q,nip9Of4P,2020-0188,2020-05-08,16:20:17,16:35:31,NA,incomplete,60,shape,0,right,Purple_Circle_Dots_4.jpg,Green_Triangle_Dots_3.jpg,Red_Circle_Chess_2.jpg,left,877.5799999712035,false,low,NA,NA,NA,NA,NA,NA,NA,false
nip9Of4P,33cla8o0nlo9ukh858i8v1jgjoffrm,3gd6l00d3watu982k3c89kh3wjqm1q,nip9Of4P,2020-0188,2020-05-08,16:20:17,16:35:31,NA,incomplete,61,shape,1,left,Blue_Triangle_Stripes_3.jpg,Purple_Triangle_Grid_2.jpg,Green_Circle_Stripes_4.jpg,right,949.019999941811,false,low,NA,NA,NA,NA,NA,NA,NA,false
nip9Of4P,33cla8o0nlo9ukh858i8v1jgjoffrm,3gd6l00d3watu982k3c89kh3wjqm1q,nip9Of4P,2020-0188,2020-05-08,16:20:17,16:35:31,NA,incomplete,62,shape,1,left,Green_Triangle_Grid_3.jpg,Red_Triangle_Stripes_1.jpg,Purple_Circle_Grid_2.jpg,right,969.1400000592694,false,low,NA,NA,NA,NA,NA,NA,NA,false
nip9Of4P,33cla8o0nlo9ukh858i8v1jgjoffrm,3gd6l00d3watu982k3c89kh3wjqm1q,nip9Of4P,2020-0188,2020-05-08,16:20:17,16:35:31,NA,incomplete,63,shape,1,left,Purple_Circle_Chess_1.jpg,Blue_Circle_Dots_3.jpg,Green_Star_Chess_2.jpg,left,731.7950000287965,true,low,NA,NA,NA,NA,NA,NA,NA,false
nip9Of4P,33cla8o0nlo9ukh858i8v1jgjoffrm,3gd6l00d3watu982k3c89kh3wjqm1q,nip9Of4P,2020-0188,2020-05-08,16:20:17,16:35:31,NA,incomplete,64,shape,1,left,Blue_Triangle_Dots_4.jpg,Green_Triangle_Chess_2.jpg,Red_Circle_Dots_3.jpg,left,800.5150000099093,true,low,NA,NA,NA,NA,NA,NA,NA,false
nip9Of4P,33cla8o0nlo9ukh858i8v1jgjoffrm,3gd6l00d3watu982k3c89kh3wjqm1q,nip9Of4P,2020-0188,2020-05-08,16:20:17,16:35:31,NA,incomplete,65,shape,1,left,Purple_Plus_Chess_1.jpg,Red_Plus_Dots_3.jpg,Blue_Triangle_Chess_4.jpg,left,715.3699999907985,true,low,NA,NA,NA,NA,NA,NA,NA,false
nip9Of4P,33cla8o0nlo9ukh858i8v1jgjoffrm,3gd6l00d3watu982k3c89kh3wjqm1q,nip9Of4P,2020-0188,2020-05-08,16:20:17,16:35:31,NA,incomplete,66,shape,1,left,Red_Star_Stripes_3.jpg,Green_Star_Chess_2.jpg,Blue_Triangle_Stripes_1.jpg,left,672.4499999545515,true,low,NA,NA,NA,NA,NA,NA,NA,false
nip9Of4P,33cla8o0nlo9ukh858i8v1jgjoffrm,3gd6l00d3watu982k3c89kh3wjqm1q,nip9Of4P,2020-0188,2020-05-08,16:20:17,16:35:31,NA,incomplete,67,shape,1,right,Purple_Triangle_Stripes_1.jpg,Green_Plus_Stripes_4.jpg,Blue_Triangle_Dots_3.jpg,right,704.3700000504032,true,low,NA,NA,NA,NA,NA,NA,NA,false
nip9Of4P,33cla8o0nlo9ukh858i8v1jgjoffrm,3gd6l00d3watu982k3c89kh3wjqm1q,nip9Of4P,2020-0188,2020-05-08,16:20:17,16:35:31,NA,incomplete,68,shape,1,left,Red_Star_Stripes_1.jpg,Purple_Star_Chess_2.jpg,Green_Triangle_Stripes_4.jpg,left,597.2100000362843,true,low,NA,NA,NA,NA,NA,NA,NA,false
nip9Of4P,33cla8o0nlo9ukh858i8v1jgjoffrm,3gd6l00d3watu982k3c89kh3wjqm1q,nip9Of4P,2020-0188,2020-05-08,16:20:17,16:35:31,NA,incomplete,69,shape,0,left,Purple_Triangle_Chess_1.jpg,Red_Triangle_Grid_2.jpg,Green_Star_Chess_3.jpg,left,696.349999983795,true,low,NA,NA,NA,NA,NA,NA,NA,false
nip9Of4P,33cla8o0nlo9ukh858i8v1jgjoffrm,3gd6l00d3watu982k3c89kh3wjqm1q,nip9Of4P,2020-0188,2020-05-08,16:20:17,16:35:31,NA,incomplete,70,shape,1,left,Green_Triangle_Grid_1.jpg,Blue_Triangle_Dots_4.jpg,Red_Circle_Grid_3.jpg,left,974.3249999592081,true,low,NA,NA,NA,NA,NA,NA,NA,false
nip9Of4P,33cla8o0nlo9ukh858i8v1jgjoffrm,3gd6l00d3watu982k3c89kh3wjqm1q,nip9Of4P,2020-0188,2020-05-08,16:20:17,16:35:31,NA,incomplete,71,shape,1,left,Green_Circle_Grid_3.jpg,Purple_Circle_Stripes_1.jpg,Blue_Star_Grid_2.jpg,left,713.4899999946356,true,low,NA,NA,NA,NA,NA,NA,NA,false
nip9Of4P,33cla8o0nlo9ukh858i8v1jgjoffrm,3gd6l00d3watu982k3c89kh3wjqm1q,nip9Of4P,2020-0188,2020-05-08,16:20:17,16:35:31,NA,incomplete,72,shape,1,right,Green_Plus_Dots_1.jpg,Red_Star_Dots_2.jpg,Blue_Plus_Grid_4.jpg,right,752.3550000041723,true,low,NA,NA,NA,NA,NA,NA,NA,false
nip9Of4P,33cla8o0nlo9ukh858i8v1jgjoffrm,3gd6l00d3watu982k3c89kh3wjqm1q,nip9Of4P,2020-0188,2020-05-08,16:20:17,16:35:31,NA,incomplete,73,shape,1,left,Green_Star_Stripes_1.jpg,Blue_Star_Chess_3.jpg,Red_Triangle_Stripes_4.jpg,left,635.2000000188127,true,low,NA,NA,NA,NA,NA,NA,NA,false
nip9Of4P,33cla8o0nlo9ukh858i8v1jgjoffrm,3gd6l00d3watu982k3c89kh3wjqm1q,nip9Of4P,2020-0188,2020-05-08,16:20:17,16:35:31,NA,incomplete,74,shape,1,right,Purple_Triangle_Stripes_2.jpg,Green_Plus_Stripes_4.jpg,Red_Triangle_Dots_1.jpg,right,787.6200000755489,true,low,NA,NA,NA,NA,NA,NA,NA,false
nip9Of4P,33cla8o0nlo9ukh858i8v1jgjoffrm,3gd6l00d3watu982k3c89kh3wjqm1q,nip9Of4P,2020-0188,2020-05-08,16:20:17,16:35:31,NA,incomplete,75,shape,0,left,Red_Triangle_Stripes_4.jpg,Blue_Triangle_Dots_3.jpg,Green_Star_Stripes_1.jpg,left,637.8999999724329,true,low,NA,NA,NA,NA,NA,NA,NA,false
nip9Of4P,33cla8o0nlo9ukh858i8v1jgjoffrm,3gd6l00d3watu982k3c89kh3wjqm1q,nip9Of4P,2020-0188,2020-05-08,16:20:17,16:35:31,NA,incomplete,76,shape,1,left,Blue_Triangle_Grid_3.jpg,Red_Triangle_Stripes_2.jpg,Purple_Star_Grid_1.jpg,left,638.8349999906495,true,low,NA,NA,NA,NA,NA,NA,NA,false
nip9Of4P,33cla8o0nlo9ukh858i8v1jgjoffrm,3gd6l00d3watu982k3c89kh3wjqm1q,nip9Of4P,2020-0188,2020-05-08,16:20:17,16:35:31,NA,incomplete,77,shape,1,right,Red_Plus_Chess_2.jpg,Purple_Circle_Chess_3.jpg,Blue_Plus_Dots_1.jpg,right,648.4999998938292,true,low,NA,NA,NA,NA,NA,NA,NA,false
nip9Of4P,33cla8o0nlo9ukh858i8v1jgjoffrm,3gd6l00d3watu982k3c89kh3wjqm1q,nip9Of4P,2020-0188,2020-05-08,16:20:17,16:35:31,NA,incomplete,78,shape,1,left,Purple_Plus_Dots_1.jpg,Blue_Plus_Chess_4.jpg,Green_Circle_Dots_3.jpg,left,584.1750000836328,true,low,NA,NA,NA,NA,NA,NA,NA,false
nip9Of4P,33cla8o0nlo9ukh858i8v1jgjoffrm,3gd6l00d3watu982k3c89kh3wjqm1q,nip9Of4P,2020-0188,2020-05-08,16:20:17,16:35:31,NA,incomplete,79,shape,1,right,Purple_Plus_Dots_3.jpg,Blue_Circle_Dots_2.jpg,Red_Plus_Chess_4.jpg,right,676.4599999878556,true,low,NA,NA,NA,NA,NA,NA,NA,false
nip9Of4P,33cla8o0nlo9ukh858i8v1jgjoffrm,3gd6l00d3watu982k3c89kh3wjqm1q,nip9Of4P,2020-0188,2020-05-08,16:20:17,16:35:31,NA,incomplete,80,shape,0,right,Green_Circle_Dots_2.jpg,Blue_Triangle_Dots_1.jpg,Purple_Circle_Grid_3.jpg,right,594.4300000555813,true,low,NA,NA,NA,NA,NA,NA,NA,false
nip9Of4P,33cla8o0nlo9ukh858i8v1jgjoffrm,3gd6l00d3watu982k3c89kh3wjqm1q,nip9Of4P,2020-0188,2020-05-08,16:20:17,16:35:31,NA,incomplete,81,shape,1,left,Purple_Triangle_Grid_1.jpg,Blue_Triangle_Chess_2.jpg,Red_Star_Grid_3.jpg,left,556.80499994196,true,low,NA,NA,NA,NA,NA,NA,NA,false
nip9Of4P,33cla8o0nlo9ukh858i8v1jgjoffrm,3gd6l00d3watu982k3c89kh3wjqm1q,nip9Of4P,2020-0188,2020-05-08,16:20:17,16:35:31,NA,incomplete,82,shape,0,left,Green_Star_Chess_1.jpg,Blue_Star_Grid_4.jpg,Red_Circle_Chess_2.jpg,left,625.4049999406561,true,low,NA,NA,NA,NA,NA,NA,NA,false
nip9Of4P,33cla8o0nlo9ukh858i8v1jgjoffrm,3gd6l00d3watu982k3c89kh3wjqm1q,nip9Of4P,2020-0188,2020-05-08,16:20:17,16:35:31,NA,incomplete,83,shape,1,left,Red_Star_Chess_4.jpg,Blue_Star_Grid_1.jpg,Purple_Plus_Chess_2.jpg,left,730.0100000575185,true,low,NA,NA,NA,NA,NA,NA,NA,false
nip9Of4P,33cla8o0nlo9ukh858i8v1jgjoffrm,3gd6l00d3watu982k3c89kh3wjqm1q,nip9Of4P,2020-0188,2020-05-08,16:20:17,16:35:31,NA,incomplete,84,shape,1,left,Blue_Triangle_Stripes_4.jpg,Green_Triangle_Grid_2.jpg,Purple_Star_Stripes_1.jpg,left,641.0649999743327,true,low,NA,NA,NA,NA,NA,NA,NA,false
nip9Of4P,33cla8o0nlo9ukh858i8v1jgjoffrm,3gd6l00d3watu982k3c89kh3wjqm1q,nip9Of4P,2020-0188,2020-05-08,16:20:17,16:35:31,NA,incomplete,85,shape,1,left,Purple_Star_Stripes_4.jpg,Green_Star_Grid_1.jpg,Red_Plus_Stripes_3.jpg,right,735.9050000086427,false,low,NA,NA,NA,NA,NA,NA,NA,false
nip9Of4P,33cla8o0nlo9ukh858i8v1jgjoffrm,3gd6l00d3watu982k3c89kh3wjqm1q,nip9Of4P,2020-0188,2020-05-08,16:20:17,16:35:31,NA,incomplete,86,shape,0,right,Purple_Circle_Dots_4.jpg,Red_Star_Dots_3.jpg,Blue_Circle_Chess_2.jpg,right,787.9600001033396,true,low,NA,NA,NA,NA,NA,NA,NA,false
nip9Of4P,33cla8o0nlo9ukh858i8v1jgjoffrm,3gd6l00d3watu982k3c89kh3wjqm1q,nip9Of4P,2020-0188,2020-05-08,16:20:17,16:35:31,NA,incomplete,87,shape,1,left,Purple_Triangle_Stripes_2.jpg,Red_Triangle_Chess_3.jpg,Blue_Circle_Stripes_1.jpg,left,758.0900000175461,true,low,NA,NA,NA,NA,NA,NA,NA,false
nip9Of4P,33cla8o0nlo9ukh858i8v1jgjoffrm,3gd6l00d3watu982k3c89kh3wjqm1q,nip9Of4P,2020-0188,2020-05-08,16:20:17,16:35:31,NA,incomplete,88,shape,1,left,Purple_Triangle_Chess_1.jpg,Red_Triangle_Grid_2.jpg,Green_Circle_Chess_3.jpg,left,674.1450000554323,true,low,NA,NA,NA,NA,NA,NA,NA,false
nip9Of4P,33cla8o0nlo9ukh858i8v1jgjoffrm,3gd6l00d3watu982k3c89kh3wjqm1q,nip9Of4P,2020-0188,2020-05-08,16:20:17,16:35:31,NA,incomplete,89,shape,1,right,Red_Star_Chess_2.jpg,Purple_Circle_Chess_3.jpg,Blue_Star_Grid_1.jpg,right,633.170000044629,true,low,NA,NA,NA,NA,NA,NA,NA,false
nip9Of4P,33cla8o0nlo9ukh858i8v1jgjoffrm,3gd6l00d3watu982k3c89kh3wjqm1q,nip9Of4P,2020-0188,2020-05-08,16:20:17,16:35:31,NA,incomplete,90,filling,1,right,Green_Circle_Dots_3.jpg,Purple_Circle_Stripes_2.jpg,Blue_Triangle_Dots_4.jpg,left,602.9550000093877,false,low,NA,NA,NA,NA,NA,NA,NA,false
nip9Of4P,33cla8o0nlo9ukh858i8v1jgjoffrm,3gd6l00d3watu982k3c89kh3wjqm1q,nip9Of4P,2020-0188,2020-05-08,16:20:17,16:35:31,NA,incomplete,91,filling,0,right,Purple_Plus_Dots_4.jpg,Green_Plus_Grid_3.jpg,Blue_Circle_Dots_1.jpg,left,620.6000000238419,false,low,NA,NA,NA,NA,NA,NA,NA,false
nip9Of4P,33cla8o0nlo9ukh858i8v1jgjoffrm,3gd6l00d3watu982k3c89kh3wjqm1q,nip9Of4P,2020-0188,2020-05-08,16:20:17,16:35:31,NA,incomplete,92,filling,1,right,Green_Triangle_Grid_3.jpg,Blue_Triangle_Dots_1.jpg,Red_Star_Grid_4.jpg,left,621.9549999805167,false,low,NA,NA,NA,NA,NA,NA,NA,false
nip9Of4P,33cla8o0nlo9ukh858i8v1jgjoffrm,3gd6l00d3watu982k3c89kh3wjqm1q,nip9Of4P,2020-0188,2020-05-08,16:20:17,16:35:31,NA,incomplete,93,filling,1,right,Blue_Plus_Stripes_3.jpg,Green_Plus_Dots_1.jpg,Purple_Star_Stripes_2.jpg,left,670.6199999898672,false,low,NA,NA,NA,NA,NA,NA,NA,false
nip9Of4P,33cla8o0nlo9ukh858i8v1jgjoffrm,3gd6l00d3watu982k3c89kh3wjqm1q,nip9Of4P,2020-0188,2020-05-08,16:20:17,16:35:31,NA,incomplete,94,filling,1,left,Blue_Plus_Stripes_4.jpg,Green_Star_Stripes_1.jpg,Red_Plus_Grid_3.jpg,left,894.4299999857321,true,low,NA,NA,NA,NA,NA,NA,NA,false
nip9Of4P,33cla8o0nlo9ukh858i8v1jgjoffrm,3gd6l00d3watu982k3c89kh3wjqm1q,nip9Of4P,2020-0188,2020-05-08,16:20:17,16:35:31,NA,incomplete,95,filling,0,left,Green_Circle_Grid_4.jpg,Purple_Plus_Grid_3.jpg,Blue_Circle_Dots_2.jpg,left,908.1599999917671,true,low,NA,NA,NA,NA,NA,NA,NA,false
nip9Of4P,33cla8o0nlo9ukh858i8v1jgjoffrm,3gd6l00d3watu982k3c89kh3wjqm1q,nip9Of4P,2020-0188,2020-05-08,16:20:17,16:35:31,NA,incomplete,96,filling,1,left,Blue_Star_Dots_2.jpg,Purple_Triangle_Dots_4.jpg,Red_Star_Stripes_3.jpg,left,937.7399999648333,true,low,NA,NA,NA,NA,NA,NA,NA,false
nip9Of4P,33cla8o0nlo9ukh858i8v1jgjoffrm,3gd6l00d3watu982k3c89kh3wjqm1q,nip9Of4P,2020-0188,2020-05-08,16:20:17,16:35:31,NA,incomplete,97,filling,1,right,Blue_Circle_Dots_4.jpg,Red_Circle_Grid_3.jpg,Green_Star_Dots_1.jpg,right,975.2050000242889,true,low,NA,NA,NA,NA,NA,NA,NA,false
nip9Of4P,33cla8o0nlo9ukh858i8v1jgjoffrm,3gd6l00d3watu982k3c89kh3wjqm1q,nip9Of4P,2020-0188,2020-05-08,16:20:17,16:35:31,NA,incomplete,98,filling,1,right,Blue_Circle_Chess_4.jpg,Green_Circle_Grid_3.jpg,Purple_Triangle_Chess_1.jpg,right,864.9849999928847,true,low,NA,NA,NA,NA,NA,NA,NA,false
nip9Of4P,33cla8o0nlo9ukh858i8v1jgjoffrm,3gd6l00d3watu982k3c89kh3wjqm1q,nip9Of4P,2020-0188,2020-05-08,16:20:17,16:35:31,NA,incomplete,99,filling,1,left,Green_Plus_Chess_4.jpg,Purple_Circle_Chess_3.jpg,Blue_Plus_Dots_1.jpg,left,888.63499998115,true,low,NA,NA,NA,NA,NA,NA,NA,false
nip9Of4P,33cla8o0nlo9ukh858i8v1jgjoffrm,3gd6l00d3watu982k3c89kh3wjqm1q,nip9Of4P,2020-0188,2020-05-08,16:20:17,16:35:31,NA,incomplete,100,filling,1,left,Purple_Star_Chess_4.jpg,Red_Triangle_Chess_1.jpg,Green_Star_Stripes_2.jpg,left,887.3649999732152,true,low,NA,NA,NA,NA,NA,NA,NA,false
nip9Of4P,33cla8o0nlo9ukh858i8v1jgjoffrm,3gd6l00d3watu982k3c89kh3wjqm1q,nip9Of4P,2020-0188,2020-05-08,16:20:17,16:35:31,NA,incomplete,101,filling,1,left,Blue_Star_Dots_2.jpg,Green_Circle_Dots_4.jpg,Purple_Star_Grid_1.jpg,left,820.7749999128282,true,low,NA,NA,NA,NA,NA,NA,NA,false
nip9Of4P,33cla8o0nlo9ukh858i8v1jgjoffrm,3gd6l00d3watu982k3c89kh3wjqm1q,nip9Of4P,2020-0188,2020-05-08,16:20:17,16:35:31,NA,incomplete,102,filling,1,right,Blue_Plus_Stripes_4.jpg,Green_Plus_Grid_2.jpg,Red_Circle_Stripes_3.jpg,right,934.8649999592453,true,low,NA,NA,NA,NA,NA,NA,NA,false
nip9Of4P,33cla8o0nlo9ukh858i8v1jgjoffrm,3gd6l00d3watu982k3c89kh3wjqm1q,nip9Of4P,2020-0188,2020-05-08,16:20:17,16:35:31,NA,incomplete,103,filling,0,right,Red_Plus_Dots_2.jpg,Blue_Plus_Stripes_4.jpg,Purple_Circle_Dots_3.jpg,right,955.11500001885,true,low,NA,NA,NA,NA,NA,NA,NA,false
nip9Of4P,33cla8o0nlo9ukh858i8v1jgjoffrm,3gd6l00d3watu982k3c89kh3wjqm1q,nip9Of4P,2020-0188,2020-05-08,16:20:17,16:35:31,NA,incomplete,104,filling,1,right,Blue_Circle_Chess_1.jpg,Green_Circle_Dots_4.jpg,Red_Star_Chess_3.jpg,right,958.3700000075623,true,low,NA,NA,NA,NA,NA,NA,NA,false
nip9Of4P,33cla8o0nlo9ukh858i8v1jgjoffrm,3gd6l00d3watu982k3c89kh3wjqm1q,nip9Of4P,2020-0188,2020-05-08,16:20:17,16:35:31,NA,incomplete,105,filling,1,left,Red_Plus_Stripes_2.jpg,Purple_Star_Stripes_4.jpg,Blue_Plus_Dots_1.jpg,left,875.304999994114,true,low,NA,NA,NA,NA,NA,NA,NA,false
nip9Of4P,33cla8o0nlo9ukh858i8v1jgjoffrm,3gd6l00d3watu982k3c89kh3wjqm1q,nip9Of4P,2020-0188,2020-05-08,16:20:17,16:35:31,NA,incomplete,106,filling,1,right,Purple_Plus_Grid_2.jpg,Red_Plus_Chess_4.jpg,Blue_Triangle_Grid_3.jpg,right,841.3550000404939,true,low,NA,NA,NA,NA,NA,NA,NA,false
nip9Of4P,33cla8o0nlo9ukh858i8v1jgjoffrm,3gd6l00d3watu982k3c89kh3wjqm1q,nip9Of4P,2020-0188,2020-05-08,16:20:17,16:35:31,NA,incomplete,107,filling,1,left,Green_Triangle_Dots_3.jpg,Purple_Circle_Dots_1.jpg,Blue_Triangle_Grid_4.jpg,left,834.6000000601634,true,low,NA,NA,NA,NA,NA,NA,NA,false
nip9Of4P,33cla8o0nlo9ukh858i8v1jgjoffrm,3gd6l00d3watu982k3c89kh3wjqm1q,nip9Of4P,2020-0188,2020-05-08,16:20:17,16:35:31,NA,incomplete,108,filling,1,right,Red_Triangle_Chess_3.jpg,Blue_Triangle_Stripes_1.jpg,Purple_Star_Chess_2.jpg,right,850.6650000344962,true,low,NA,NA,NA,NA,NA,NA,NA,false
nip9Of4P,33cla8o0nlo9ukh858i8v1jgjoffrm,3gd6l00d3watu982k3c89kh3wjqm1q,nip9Of4P,2020-0188,2020-05-08,16:20:17,16:35:31,NA,incomplete,109,filling,1,right,Red_Plus_Grid_3.jpg,Green_Plus_Stripes_4.jpg,Blue_Triangle_Grid_1.jpg,right,1250.4300000146031,true,low,NA,NA,NA,NA,NA,NA,NA,false
nip9Of4P,33cla8o0nlo9ukh858i8v1jgjoffrm,3gd6l00d3watu982k3c89kh3wjqm1q,nip9Of4P,2020-0188,2020-05-08,16:20:17,16:35:31,NA,incomplete,110,filling,1,left,Purple_Triangle_Stripes_2.jpg,Blue_Circle_Stripes_1.jpg,Green_Triangle_Grid_4.jpg,left,762.430000002496,true,low,NA,NA,NA,NA,NA,NA,NA,false
nip9Of4P,33cla8o0nlo9ukh858i8v1jgjoffrm,3gd6l00d3watu982k3c89kh3wjqm1q,nip9Of4P,2020-0188,2020-05-08,16:20:17,16:35:31,NA,incomplete,111,filling,1,right,Red_Star_Grid_3.jpg,Blue_Star_Chess_2.jpg,Purple_Triangle_Grid_4.jpg,right,862.6899999799207,true,low,NA,NA,NA,NA,NA,NA,NA,false
nip9Of4P,33cla8o0nlo9ukh858i8v1jgjoffrm,3gd6l00d3watu982k3c89kh3wjqm1q,nip9Of4P,2020-0188,2020-05-08,16:20:17,16:35:31,NA,incomplete,112,filling,1,right,Blue_Triangle_Stripes_3.jpg,Green_Triangle_Grid_4.jpg,Red_Star_Stripes_1.jpg,right,918.0899999337271,true,low,NA,NA,NA,NA,NA,NA,NA,false
nip9Of4P,33cla8o0nlo9ukh858i8v1jgjoffrm,3gd6l00d3watu982k3c89kh3wjqm1q,nip9Of4P,2020-0188,2020-05-08,16:20:17,16:35:31,NA,incomplete,113,filling,1,left,Red_Triangle_Grid_2.jpg,Purple_Star_Grid_4.jpg,Green_Triangle_Chess_1.jpg,left,971.350000007078,true,low,NA,NA,NA,NA,NA,NA,NA,false
nip9Of4P,33cla8o0nlo9ukh858i8v1jgjoffrm,3gd6l00d3watu982k3c89kh3wjqm1q,nip9Of4P,2020-0188,2020-05-08,16:20:17,16:35:31,NA,incomplete,114,filling,1,right,Purple_Circle_Stripes_2.jpg,Blue_Circle_Dots_3.jpg,Red_Plus_Stripes_1.jpg,right,893.3350000297651,true,low,NA,NA,NA,NA,NA,NA,NA,false
nip9Of4P,33cla8o0nlo9ukh858i8v1jgjoffrm,3gd6l00d3watu982k3c89kh3wjqm1q,nip9Of4P,2020-0188,2020-05-08,16:20:17,16:35:31,NA,incomplete,115,filling,1,left,Red_Circle_Stripes_3.jpg,Purple_Plus_Stripes_4.jpg,Blue_Circle_Dots_2.jpg,left,859.6200000029057,true,low,NA,NA,NA,NA,NA,NA,NA,false
nip9Of4P,33cla8o0nlo9ukh858i8v1jgjoffrm,3gd6l00d3watu982k3c89kh3wjqm1q,nip9Of4P,2020-0188,2020-05-08,16:20:17,16:35:31,NA,incomplete,116,filling,1,right,Purple_Circle_Dots_4.jpg,Green_Circle_Chess_3.jpg,Blue_Star_Dots_1.jpg,right,844.4949999684468,true,low,NA,NA,NA,NA,NA,NA,NA,false
nip9Of4P,33cla8o0nlo9ukh858i8v1jgjoffrm,3gd6l00d3watu982k3c89kh3wjqm1q,nip9Of4P,2020-0188,2020-05-08,16:20:17,16:35:31,NA,incomplete,117,filling,0,left,Blue_Triangle_Stripes_4.jpg,Red_Circle_Stripes_1.jpg,Purple_Triangle_Dots_3.jpg,left,748.0750000104308,true,low,NA,NA,NA,NA,NA,NA,NA,false
nip9Of4P,33cla8o0nlo9ukh858i8v1jgjoffrm,3gd6l00d3watu982k3c89kh3wjqm1q,nip9Of4P,2020-0188,2020-05-08,16:20:17,16:35:31,NA,incomplete,118,filling,0,left,Green_Star_Stripes_1.jpg,Purple_Circle_Stripes_3.jpg,Blue_Star_Dots_2.jpg,left,840.5849999981001,true,low,NA,NA,NA,NA,NA,NA,NA,false
nip9Of4P,33cla8o0nlo9ukh858i8v1jgjoffrm,3gd6l00d3watu982k3c89kh3wjqm1q,nip9Of4P,2020-0188,2020-05-08,16:20:17,16:35:31,NA,incomplete,119,filling,1,left,Blue_Circle_Dots_1.jpg,Purple_Plus_Dots_3.jpg,Red_Circle_Chess_2.jpg,right,616.344999987632,false,low,NA,NA,NA,NA,NA,NA,NA,false
nip9Of4P,33cla8o0nlo9ukh858i8v1jgjoffrm,3gd6l00d3watu982k3c89kh3wjqm1q,nip9Of4P,2020-0188,2020-05-08,16:20:17,16:35:31,NA,incomplete,120,shape,1,right,Green_Plus_Stripes_1.jpg,Red_Triangle_Stripes_2.jpg,Purple_Plus_Dots_4.jpg,right,810.7800000580028,true,low,NA,NA,NA,NA,NA,NA,NA,false
nip9Of4P,33cla8o0nlo9ukh858i8v1jgjoffrm,3gd6l00d3watu982k3c89kh3wjqm1q,nip9Of4P,2020-0188,2020-05-08,16:20:17,16:35:31,NA,incomplete,121,shape,1,left,Red_Triangle_Chess_4.jpg,Green_Triangle_Grid_2.jpg,Purple_Star_Chess_1.jpg,left,748.7700000638142,true,low,NA,NA,NA,NA,NA,NA,NA,false
nip9Of4P,33cla8o0nlo9ukh858i8v1jgjoffrm,3gd6l00d3watu982k3c89kh3wjqm1q,nip9Of4P,2020-0188,2020-05-08,16:20:17,16:35:31,NA,incomplete,122,shape,0,right,Red_Plus_Dots_3.jpg,Purple_Triangle_Dots_4.jpg,Green_Plus_Stripes_2.jpg,right,777.0500000333413,true,low,NA,NA,NA,NA,NA,NA,NA,false
nip9Of4P,33cla8o0nlo9ukh858i8v1jgjoffrm,3gd6l00d3watu982k3c89kh3wjqm1q,nip9Of4P,2020-0188,2020-05-08,16:20:17,16:35:31,NA,incomplete,123,shape,1,right,Blue_Triangle_Stripes_2.jpg,Green_Plus_Stripes_3.jpg,Purple_Triangle_Dots_1.jpg,right,883.8349999859929,true,low,NA,NA,NA,NA,NA,NA,NA,false
nip9Of4P,33cla8o0nlo9ukh858i8v1jgjoffrm,3gd6l00d3watu982k3c89kh3wjqm1q,nip9Of4P,2020-0188,2020-05-08,16:20:17,16:35:31,NA,incomplete,124,shape,1,left,Purple_Plus_Dots_4.jpg,Red_Plus_Chess_1.jpg,Green_Star_Dots_2.jpg,left,866.6900000534952,true,low,NA,NA,NA,NA,NA,NA,NA,false
nip9Of4P,33cla8o0nlo9ukh858i8v1jgjoffrm,3gd6l00d3watu982k3c89kh3wjqm1q,nip9Of4P,2020-0188,2020-05-08,16:20:17,16:35:31,NA,incomplete,125,shape,1,left,Purple_Triangle_Stripes_1.jpg,Blue_Triangle_Grid_3.jpg,Green_Star_Stripes_4.jpg,left,771.8749999767169,true,low,NA,NA,NA,NA,NA,NA,NA,false
nip9Of4P,33cla8o0nlo9ukh858i8v1jgjoffrm,3gd6l00d3watu982k3c89kh3wjqm1q,nip9Of4P,2020-0188,2020-05-08,16:20:17,16:35:31,NA,incomplete,126,shape,1,left,Red_Circle_Grid_2.jpg,Purple_Circle_Dots_3.jpg,Green_Plus_Grid_1.jpg,left,637.470000074245,true,low,NA,NA,NA,NA,NA,NA,NA,false
nip9Of4P,33cla8o0nlo9ukh858i8v1jgjoffrm,3gd6l00d3watu982k3c89kh3wjqm1q,nip9Of4P,2020-0188,2020-05-08,16:20:17,16:35:31,NA,incomplete,127,shape,1,left,Blue_Plus_Chess_1.jpg,Red_Plus_Grid_3.jpg,Purple_Star_Chess_4.jpg,left,845.8850000752136,true,low,NA,NA,NA,NA,NA,NA,NA,false
nip9Of4P,33cla8o0nlo9ukh858i8v1jgjoffrm,3gd6l00d3watu982k3c89kh3wjqm1q,nip9Of4P,2020-0188,2020-05-08,16:20:17,16:35:31,NA,incomplete,128,shape,0,left,Purple_Circle_Stripes_3.jpg,Red_Circle_Grid_4.jpg,Blue_Plus_Stripes_1.jpg,left,694.6999999927357,true,low,NA,NA,NA,NA,NA,NA,NA,false
nip9Of4P,33cla8o0nlo9ukh858i8v1jgjoffrm,3gd6l00d3watu982k3c89kh3wjqm1q,nip9Of4P,2020-0188,2020-05-08,16:20:17,16:35:31,NA,incomplete,129,shape,1,left,Red_Circle_Dots_3.jpg,Purple_Circle_Stripes_4.jpg,Blue_Triangle_Dots_2.jpg,left,596.4699999894947,true,low,NA,NA,NA,NA,NA,NA,NA,false
nip9Of4P,33cla8o0nlo9ukh858i8v1jgjoffrm,3gd6l00d3watu982k3c89kh3wjqm1q,nip9Of4P,2020-0188,2020-05-08,16:20:17,16:35:31,NA,incomplete,130,shape,1,right,Red_Star_Stripes_2.jpg,Purple_Circle_Stripes_3.jpg,Blue_Star_Chess_1.jpg,right,726.810000021942,true,low,NA,NA,NA,NA,NA,NA,NA,false
nip9Of4P,33cla8o0nlo9ukh858i8v1jgjoffrm,3gd6l00d3watu982k3c89kh3wjqm1q,nip9Of4P,2020-0188,2020-05-08,16:20:17,16:35:31,NA,incomplete,131,shape,1,left,Red_Plus_Grid_1.jpg,Green_Plus_Chess_3.jpg,Purple_Star_Grid_2.jpg,left,932.4900000356138,true,low,NA,NA,NA,NA,NA,NA,NA,false
nip9Of4P,33cla8o0nlo9ukh858i8v1jgjoffrm,3gd6l00d3watu982k3c89kh3wjqm1q,nip9Of4P,2020-0188,2020-05-08,16:20:17,16:35:31,NA,incomplete,132,shape,1,left,Purple_Star_Dots_1.jpg,Blue_Star_Stripes_3.jpg,Green_Plus_Dots_4.jpg,left,673.6449999734759,true,low,NA,NA,NA,NA,NA,NA,NA,false
nip9Of4P,33cla8o0nlo9ukh858i8v1jgjoffrm,3gd6l00d3watu982k3c89kh3wjqm1q,nip9Of4P,2020-0188,2020-05-08,16:20:17,16:35:31,NA,incomplete,133,shape,1,left,Green_Plus_Dots_1.jpg,Purple_Plus_Grid_2.jpg,Blue_Star_Dots_3.jpg,left,664.4399999640882,true,low,NA,NA,NA,NA,NA,NA,NA,false
nip9Of4P,33cla8o0nlo9ukh858i8v1jgjoffrm,3gd6l00d3watu982k3c89kh3wjqm1q,nip9Of4P,2020-0188,2020-05-08,16:20:17,16:35:31,NA,incomplete,134,shape,0,right,Red_Star_Stripes_3.jpg,Green_Circle_Stripes_1.jpg,Blue_Star_Grid_4.jpg,right,727.7649999596179,true,low,NA,NA,NA,NA,NA,NA,NA,false
nip9Of4P,33cla8o0nlo9ukh858i8v1jgjoffrm,3gd6l00d3watu982k3c89kh3wjqm1q,nip9Of4P,2020-0188,2020-05-08,16:20:17,16:35:31,NA,incomplete,135,shape,1,right,Blue_Star_Grid_3.jpg,Red_Plus_Grid_2.jpg,Green_Star_Stripes_4.jpg,right,733.2800000440329,true,low,NA,NA,NA,NA,NA,NA,NA,false
nip9Of4P,33cla8o0nlo9ukh858i8v1jgjoffrm,3gd6l00d3watu982k3c89kh3wjqm1q,nip9Of4P,2020-0188,2020-05-08,16:20:17,16:35:31,NA,incomplete,136,shape,1,left,Purple_Plus_Dots_1.jpg,Green_Plus_Chess_4.jpg,Red_Triangle_Dots_3.jpg,left,682.8799999784678,true,low,NA,NA,NA,NA,NA,NA,NA,false
nip9Of4P,33cla8o0nlo9ukh858i8v1jgjoffrm,3gd6l00d3watu982k3c89kh3wjqm1q,nip9Of4P,2020-0188,2020-05-08,16:20:17,16:35:31,NA,incomplete,137,shape,1,right,Purple_Circle_Chess_4.jpg,Green_Star_Chess_3.jpg,Blue_Circle_Stripes_2.jpg,right,601.920000044629,true,low,NA,NA,NA,NA,NA,NA,NA,false
nip9Of4P,33cla8o0nlo9ukh858i8v1jgjoffrm,3gd6l00d3watu982k3c89kh3wjqm1q,nip9Of4P,2020-0188,2020-05-08,16:20:17,16:35:31,NA,incomplete,138,shape,1,left,Purple_Star_Grid_1.jpg,Green_Star_Stripes_2.jpg,Red_Triangle_Grid_4.jpg,left,675.1899999799207,true,low,NA,NA,NA,NA,NA,NA,NA,false
nip9Of4P,33cla8o0nlo9ukh858i8v1jgjoffrm,3gd6l00d3watu982k3c89kh3wjqm1q,nip9Of4P,2020-0188,2020-05-08,16:20:17,16:35:31,NA,incomplete,139,shape,1,left,Purple_Circle_Chess_1.jpg,Red_Circle_Grid_4.jpg,Blue_Plus_Chess_2.jpg,left,643.9350000582635,true,low,NA,NA,NA,NA,NA,NA,NA,false
nip9Of4P,33cla8o0nlo9ukh858i8v1jgjoffrm,3gd6l00d3watu982k3c89kh3wjqm1q,nip9Of4P,2020-0188,2020-05-08,16:20:17,16:35:31,NA,incomplete,140,filling,1,left,Green_Plus_Dots_1.jpg,Red_Triangle_Dots_4.jpg,Purple_Plus_Stripes_3.jpg,right,594.9699999764562,false,low,NA,NA,NA,NA,NA,NA,NA,false
nip9Of4P,33cla8o0nlo9ukh858i8v1jgjoffrm,3gd6l00d3watu982k3c89kh3wjqm1q,nip9Of4P,2020-0188,2020-05-08,16:20:17,16:35:31,NA,incomplete,141,filling,1,right,Blue_Circle_Stripes_2.jpg,Red_Circle_Dots_1.jpg,Purple_Star_Stripes_4.jpg,left,517.7550000371411,false,low,NA,NA,NA,NA,NA,NA,NA,false
nip9Of4P,33cla8o0nlo9ukh858i8v1jgjoffrm,3gd6l00d3watu982k3c89kh3wjqm1q,nip9Of4P,2020-0188,2020-05-08,16:20:17,16:35:31,NA,incomplete,142,filling,0,left,Purple_Circle_Chess_3.jpg,Blue_Star_Chess_1.jpg,Red_Circle_Stripes_2.jpg,left,811.1550000030547,true,low,NA,NA,NA,NA,NA,NA,NA,false
nip9Of4P,33cla8o0nlo9ukh858i8v1jgjoffrm,3gd6l00d3watu982k3c89kh3wjqm1q,nip9Of4P,2020-0188,2020-05-08,16:20:17,16:35:31,NA,incomplete,143,filling,1,right,Green_Plus_Grid_3.jpg,Blue_Plus_Dots_2.jpg,Red_Circle_Grid_4.jpg,right,1013.0299999145791,true,low,NA,NA,NA,NA,NA,NA,NA,false
nip9Of4P,33cla8o0nlo9ukh858i8v1jgjoffrm,3gd6l00d3watu982k3c89kh3wjqm1q,nip9Of4P,2020-0188,2020-05-08,16:20:17,16:35:31,NA,incomplete,144,filling,1,left,Red_Triangle_Grid_2.jpg,Purple_Circle_Grid_4.jpg,Green_Triangle_Dots_3.jpg,left,814.7099999478087,true,low,NA,NA,NA,NA,NA,NA,NA,false
nip9Of4P,33cla8o0nlo9ukh858i8v1jgjoffrm,3gd6l00d3watu982k3c89kh3wjqm1q,nip9Of4P,2020-0188,2020-05-08,16:20:17,16:35:31,NA,incomplete,145,filling,1,left,Blue_Circle_Dots_4.jpg,Purple_Plus_Dots_1.jpg,Green_Circle_Chess_3.jpg,left,1056.0599999735132,true,low,NA,NA,NA,NA,NA,NA,NA,false
nip9Of4P,33cla8o0nlo9ukh858i8v1jgjoffrm,3gd6l00d3watu982k3c89kh3wjqm1q,nip9Of4P,2020-0188,2020-05-08,16:20:17,16:35:31,NA,incomplete,146,filling,1,left,Green_Star_Chess_4.jpg,Red_Circle_Chess_3.jpg,Purple_Star_Stripes_1.jpg,left,910.9700000844896,true,low,NA,NA,NA,NA,NA,NA,NA,false
nip9Of4P,33cla8o0nlo9ukh858i8v1jgjoffrm,3gd6l00d3watu982k3c89kh3wjqm1q,nip9Of4P,2020-0188,2020-05-08,16:20:17,16:35:31,NA,incomplete,147,filling,0,left,Blue_Circle_Chess_3.jpg,Purple_Triangle_Chess_1.jpg,Green_Circle_Grid_2.jpg,left,916.9649999821559,true,low,NA,NA,NA,NA,NA,NA,NA,false
nip9Of4P,33cla8o0nlo9ukh858i8v1jgjoffrm,3gd6l00d3watu982k3c89kh3wjqm1q,nip9Of4P,2020-0188,2020-05-08,16:20:17,16:35:31,NA,incomplete,148,filling,1,right,Green_Star_Grid_2.jpg,Red_Star_Stripes_1.jpg,Blue_Triangle_Grid_4.jpg,right,994.7650000685826,true,low,NA,NA,NA,NA,NA,NA,NA,false
nip9Of4P,33cla8o0nlo9ukh858i8v1jgjoffrm,3gd6l00d3watu982k3c89kh3wjqm1q,nip9Of4P,2020-0188,2020-05-08,16:20:17,16:35:31,NA,incomplete,149,filling,1,right,Green_Circle_Chess_3.jpg,Purple_Circle_Grid_2.jpg,Blue_Triangle_Chess_4.jpg,right,956.8950000684708,true,low,NA,NA,NA,NA,NA,NA,NA,false
nip9Of4P,33cla8o0nlo9ukh858i8v1jgjoffrm,3gd6l00d3watu982k3c89kh3wjqm1q,nip9Of4P,2020-0188,2020-05-08,16:20:17,16:35:31,NA,incomplete,150,filling,1,left,Blue_Circle_Grid_4.jpg,Green_Star_Grid_3.jpg,Purple_Circle_Chess_2.jpg,left,1032.0749999955297,true,low,NA,NA,NA,NA,NA,NA,NA,false
nip9Of4P,33cla8o0nlo9ukh858i8v1jgjoffrm,3gd6l00d3watu982k3c89kh3wjqm1q,nip9Of4P,2020-0188,2020-05-08,16:20:17,16:35:31,NA,incomplete,151,filling,1,left,Red_Star_Stripes_3.jpg,Green_Plus_Stripes_1.jpg,Blue_Star_Dots_2.jpg,left,912.8999999957159,true,low,NA,NA,NA,NA,NA,NA,NA,false
nip9Of4P,33cla8o0nlo9ukh858i8v1jgjoffrm,3gd6l00d3watu982k3c89kh3wjqm1q,nip9Of4P,2020-0188,2020-05-08,16:20:17,16:35:31,NA,incomplete,152,filling,1,left,Red_Triangle_Grid_4.jpg,Purple_Circle_Grid_3.jpg,Green_Triangle_Chess_2.jpg,left,904.2950000148267,true,low,NA,NA,NA,NA,NA,NA,NA,false
nip9Of4P,33cla8o0nlo9ukh858i8v1jgjoffrm,3gd6l00d3watu982k3c89kh3wjqm1q,nip9Of4P,2020-0188,2020-05-08,16:20:17,16:35:31,NA,incomplete,153,filling,1,left,Purple_Circle_Stripes_1.jpg,Blue_Triangle_Stripes_3.jpg,Red_Circle_Dots_2.jpg,left,771.9550000037998,true,low,NA,NA,NA,NA,NA,NA,NA,false
nip9Of4P,33cla8o0nlo9ukh858i8v1jgjoffrm,3gd6l00d3watu982k3c89kh3wjqm1q,nip9Of4P,2020-0188,2020-05-08,16:20:17,16:35:31,NA,incomplete,154,filling,1,left,Red_Star_Dots_4.jpg,Purple_Plus_Dots_2.jpg,Green_Star_Grid_1.jpg,left,831.6749999066815,true,low,NA,NA,NA,NA,NA,NA,NA,false
nip9Of4P,33cla8o0nlo9ukh858i8v1jgjoffrm,3gd6l00d3watu982k3c89kh3wjqm1q,nip9Of4P,2020-0188,2020-05-08,16:20:17,16:35:31,NA,incomplete,155,filling,0,left,Red_Triangle_Grid_2.jpg,Blue_Circle_Grid_3.jpg,Purple_Triangle_Stripes_4.jpg,left,888.2499999599531,true,low,NA,NA,NA,NA,NA,NA,NA,false
nip9Of4P,33cla8o0nlo9ukh858i8v1jgjoffrm,3gd6l00d3watu982k3c89kh3wjqm1q,nip9Of4P,2020-0188,2020-05-08,16:20:17,16:35:31,NA,incomplete,156,filling,1,left,Blue_Plus_Dots_3.jpg,Green_Star_Dots_1.jpg,Purple_Plus_Chess_4.jpg,left,822.6950000971556,true,low,NA,NA,NA,NA,NA,NA,NA,false
nip9Of4P,33cla8o0nlo9ukh858i8v1jgjoffrm,3gd6l00d3watu982k3c89kh3wjqm1q,nip9Of4P,2020-0188,2020-05-08,16:20:17,16:35:31,NA,incomplete,157,filling,1,right,Blue_Triangle_Stripes_1.jpg,Red_Triangle_Chess_4.jpg,Green_Circle_Stripes_2.jpg,right,807.840000023134,true,low,NA,NA,NA,NA,NA,NA,NA,false
nip9Of4P,33cla8o0nlo9ukh858i8v1jgjoffrm,3gd6l00d3watu982k3c89kh3wjqm1q,nip9Of4P,2020-0188,2020-05-08,16:20:17,16:35:31,NA,incomplete,158,filling,1,left,Blue_Plus_Dots_2.jpg,Green_Circle_Dots_1.jpg,Red_Plus_Stripes_3.jpg,left,921.5749999275431,true,low,NA,NA,NA,NA,NA,NA,NA,false
nip9Of4P,33cla8o0nlo9ukh858i8v1jgjoffrm,3gd6l00d3watu982k3c89kh3wjqm1q,nip9Of4P,2020-0188,2020-05-08,16:20:17,16:35:31,NA,incomplete,159,filling,1,left,Purple_Plus_Dots_4.jpg,Green_Star_Dots_1.jpg,Blue_Plus_Grid_3.jpg,left,822.1549999434501,true,low,NA,NA,NA,NA,NA,NA,NA,false
nip9Of4P,33cla8o0nlo9ukh858i8v1jgjoffrm,3gd6l00d3watu982k3c89kh3wjqm1q,nip9Of4P,2020-0188,2020-05-08,16:20:17,16:35:31,NA,incomplete,160,shape,1,right,Red_Circle_Chess_2.jpg,Green_Star_Chess_4.jpg,Blue_Circle_Stripes_1.jpg,left,879.7799999592826,false,low,NA,NA,NA,NA,NA,NA,NA,false
nip9Of4P,33cla8o0nlo9ukh858i8v1jgjoffrm,3gd6l00d3watu982k3c89kh3wjqm1q,nip9Of4P,2020-0188,2020-05-08,16:20:17,16:35:31,NA,incomplete,161,shape,1,left,Purple_Triangle_Stripes_4.jpg,Green_Triangle_Chess_1.jpg,Blue_Plus_Stripes_2.jpg,right,790.5800000298768,false,low,NA,NA,NA,NA,NA,NA,NA,false
nip9Of4P,33cla8o0nlo9ukh858i8v1jgjoffrm,3gd6l00d3watu982k3c89kh3wjqm1q,nip9Of4P,2020-0188,2020-05-08,16:20:17,16:35:31,NA,incomplete,162,shape,1,left,Purple_Star_Grid_3.jpg,Green_Star_Chess_4.jpg,Blue_Plus_Grid_2.jpg,right,912.9599999869242,false,low,NA,NA,NA,NA,NA,NA,NA,false
nip9Of4P,33cla8o0nlo9ukh858i8v1jgjoffrm,3gd6l00d3watu982k3c89kh3wjqm1q,nip9Of4P,2020-0188,2020-05-08,16:20:17,16:35:31,NA,incomplete,163,shape,1,left,Green_Star_Grid_2.jpg,Red_Star_Chess_3.jpg,Purple_Triangle_Grid_4.jpg,left,646.3650000514463,true,low,NA,NA,NA,NA,NA,NA,NA,false
nip9Of4P,33cla8o0nlo9ukh858i8v1jgjoffrm,3gd6l00d3watu982k3c89kh3wjqm1q,nip9Of4P,2020-0188,2020-05-08,16:20:17,16:35:31,NA,incomplete,164,shape,1,right,Green_Circle_Chess_3.jpg,Red_Triangle_Chess_4.jpg,Purple_Circle_Grid_2.jpg,left,887.4099999666214,false,low,NA,NA,NA,NA,NA,NA,NA,false
nip9Of4P,33cla8o0nlo9ukh858i8v1jgjoffrm,3gd6l00d3watu982k3c89kh3wjqm1q,nip9Of4P,2020-0188,2020-05-08,16:20:17,16:35:31,NA,incomplete,165,shape,1,left,Red_Plus_Chess_4.jpg,Blue_Plus_Grid_2.jpg,Purple_Circle_Chess_1.jpg,left,668.6050000134856,true,low,NA,NA,NA,NA,NA,NA,NA,false
nip9Of4P,33cla8o0nlo9ukh858i8v1jgjoffrm,3gd6l00d3watu982k3c89kh3wjqm1q,nip9Of4P,2020-0188,2020-05-08,16:20:17,16:35:31,NA,incomplete,166,shape,1,left,Blue_Star_Grid_4.jpg,Purple_Star_Dots_1.jpg,Green_Circle_Grid_3.jpg,left,660.2350000757724,true,low,NA,NA,NA,NA,NA,NA,NA,false
nip9Of4P,33cla8o0nlo9ukh858i8v1jgjoffrm,3gd6l00d3watu982k3c89kh3wjqm1q,nip9Of4P,2020-0188,2020-05-08,16:20:17,16:35:31,NA,incomplete,167,shape,0,right,Blue_Circle_Chess_2.jpg,Purple_Plus_Chess_3.jpg,Red_Circle_Dots_1.jpg,right,676.2699999380857,true,low,NA,NA,NA,NA,NA,NA,NA,false
nip9Of4P,33cla8o0nlo9ukh858i8v1jgjoffrm,3gd6l00d3watu982k3c89kh3wjqm1q,nip9Of4P,2020-0188,2020-05-08,16:20:17,16:35:31,NA,incomplete,168,shape,1,left,Green_Triangle_Dots_2.jpg,Red_Triangle_Grid_1.jpg,Blue_Plus_Dots_4.jpg,left,547.8150000562891,true,low,NA,NA,NA,NA,NA,NA,NA,false
nip9Of4P,33cla8o0nlo9ukh858i8v1jgjoffrm,3gd6l00d3watu982k3c89kh3wjqm1q,nip9Of4P,2020-0188,2020-05-08,16:20:17,16:35:31,NA,incomplete,169,shape,1,right,Green_Star_Dots_1.jpg,Blue_Circle_Dots_3.jpg,Red_Star_Grid_4.jpg,right,672.7249999530613,true,low,NA,NA,NA,NA,NA,NA,NA,false
nip9Of4P,33cla8o0nlo9ukh858i8v1jgjoffrm,3gd6l00d3watu982k3c89kh3wjqm1q,nip9Of4P,2020-0188,2020-05-08,16:20:17,16:35:31,NA,incomplete,170,shape,1,left,Blue_Plus_Chess_2.jpg,Green_Plus_Dots_1.jpg,Red_Star_Chess_4.jpg,left,823.5000000568107,true,low,NA,NA,NA,NA,NA,NA,NA,false
nip9Of4P,33cla8o0nlo9ukh858i8v1jgjoffrm,3gd6l00d3watu982k3c89kh3wjqm1q,nip9Of4P,2020-0188,2020-05-08,16:20:17,16:35:31,NA,incomplete,171,shape,0,right,Purple_Star_Dots_1.jpg,Blue_Triangle_Dots_3.jpg,Red_Star_Chess_2.jpg,right,696.059999987483,true,low,NA,NA,NA,NA,NA,NA,NA,false
nip9Of4P,33cla8o0nlo9ukh858i8v1jgjoffrm,3gd6l00d3watu982k3c89kh3wjqm1q,nip9Of4P,2020-0188,2020-05-08,16:20:17,16:35:31,NA,incomplete,172,shape,1,left,Purple_Star_Chess_3.jpg,Green_Star_Grid_2.jpg,Red_Plus_Chess_1.jpg,left,679.3649999890476,true,low,NA,NA,NA,NA,NA,NA,NA,false
nip9Of4P,33cla8o0nlo9ukh858i8v1jgjoffrm,3gd6l00d3watu982k3c89kh3wjqm1q,nip9Of4P,2020-0188,2020-05-08,16:20:17,16:35:31,NA,incomplete,173,shape,1,left,Blue_Plus_Stripes_2.jpg,Green_Plus_Dots_3.jpg,Purple_Star_Stripes_1.jpg,left,653.870000038296,true,low,NA,NA,NA,NA,NA,NA,NA,false
nip9Of4P,33cla8o0nlo9ukh858i8v1jgjoffrm,3gd6l00d3watu982k3c89kh3wjqm1q,nip9Of4P,2020-0188,2020-05-08,16:20:17,16:35:31,NA,incomplete,174,shape,1,right,Blue_Plus_Stripes_2.jpg,Purple_Star_Stripes_4.jpg,Red_Plus_Dots_1.jpg,right,598.6450000200421,true,low,NA,NA,NA,NA,NA,NA,NA,false
nip9Of4P,33cla8o0nlo9ukh858i8v1jgjoffrm,3gd6l00d3watu982k3c89kh3wjqm1q,nip9Of4P,2020-0188,2020-05-08,16:20:17,16:35:31,NA,incomplete,175,shape,0,left,Green_Plus_Grid_3.jpg,Blue_Plus_Stripes_4.jpg,Purple_Star_Grid_2.jpg,left,1040.7249999698251,true,low,NA,NA,NA,NA,NA,NA,NA,false
nip9Of4P,33cla8o0nlo9ukh858i8v1jgjoffrm,3gd6l00d3watu982k3c89kh3wjqm1q,nip9Of4P,2020-0188,2020-05-08,16:20:17,16:35:31,NA,incomplete,176,shape,1,right,Blue_Circle_Chess_2.jpg,Green_Star_Chess_3.jpg,Red_Circle_Grid_1.jpg,right,792.7499999059364,true,low,NA,NA,NA,NA,NA,NA,NA,false
nip9Of4P,33cla8o0nlo9ukh858i8v1jgjoffrm,3gd6l00d3watu982k3c89kh3wjqm1q,nip9Of4P,2020-0188,2020-05-08,16:20:17,16:35:31,NA,incomplete,177,shape,1,left,Green_Plus_Dots_3.jpg,Blue_Plus_Grid_2.jpg,Purple_Circle_Dots_4.jpg,left,579.4899999164045,true,low,NA,NA,NA,NA,NA,NA,NA,false
nip9Of4P,33cla8o0nlo9ukh858i8v1jgjoffrm,3gd6l00d3watu982k3c89kh3wjqm1q,nip9Of4P,2020-0188,2020-05-08,16:20:17,16:35:31,NA,incomplete,178,shape,1,right,Red_Star_Chess_1.jpg,Green_Plus_Chess_4.jpg,Purple_Star_Grid_3.jpg,right,702.1200000308454,true,low,NA,NA,NA,NA,NA,NA,NA,false
nip9Of4P,33cla8o0nlo9ukh858i8v1jgjoffrm,3gd6l00d3watu982k3c89kh3wjqm1q,nip9Of4P,2020-0188,2020-05-08,16:20:17,16:35:31,NA,incomplete,179,shape,1,left,Red_Circle_Grid_2.jpg,Blue_Circle_Stripes_1.jpg,Purple_Triangle_Grid_3.jpg,left,604.3399999616668,true,low,NA,NA,NA,NA,NA,NA,NA,false
nip9Of4P,33cla8o0nlo9ukh858i8v1jgjoffrm,3gd6l00d3watu982k3c89kh3wjqm1q,nip9Of4P,2020-0188,2020-05-08,16:20:17,16:35:31,NA,incomplete,180,filling,1,left,Red_Circle_Dots_4.jpg,Green_Triangle_Dots_2.jpg,Purple_Circle_Grid_1.jpg,right,637.5450000632554,false,low,NA,NA,NA,NA,NA,NA,NA,false
nip9Of4P,33cla8o0nlo9ukh858i8v1jgjoffrm,3gd6l00d3watu982k3c89kh3wjqm1q,nip9Of4P,2020-0188,2020-05-08,16:20:17,16:35:31,NA,incomplete,181,filling,0,left,Red_Triangle_Chess_3.jpg,Green_Circle_Chess_2.jpg,Purple_Triangle_Grid_1.jpg,right,758.3699999377131,false,low,NA,NA,NA,NA,NA,NA,NA,false
nip9Of4P,33cla8o0nlo9ukh858i8v1jgjoffrm,3gd6l00d3watu982k3c89kh3wjqm1q,nip9Of4P,2020-0188,2020-05-08,16:20:17,16:35:31,NA,incomplete,182,filling,1,right,Green_Star_Grid_2.jpg,Red_Star_Dots_4.jpg,Blue_Circle_Grid_3.jpg,left,618.1499999947846,false,low,NA,NA,NA,NA,NA,NA,NA,false
nip9Of4P,33cla8o0nlo9ukh858i8v1jgjoffrm,3gd6l00d3watu982k3c89kh3wjqm1q,nip9Of4P,2020-0188,2020-05-08,16:20:17,16:35:31,NA,incomplete,183,filling,1,left,Purple_Plus_Chess_3.jpg,Red_Triangle_Chess_2.jpg,Blue_Plus_Stripes_4.jpg,right,539.6500000497326,false,low,NA,NA,NA,NA,NA,NA,NA,false
nip9Of4P,33cla8o0nlo9ukh858i8v1jgjoffrm,3gd6l00d3watu982k3c89kh3wjqm1q,nip9Of4P,2020-0188,2020-05-08,16:20:17,16:35:31,NA,incomplete,184,filling,0,right,Blue_Circle_Chess_1.jpg,Green_Circle_Grid_3.jpg,Purple_Star_Chess_4.jpg,right,768.0299999192357,true,low,NA,NA,NA,NA,NA,NA,NA,false
nip9Of4P,33cla8o0nlo9ukh858i8v1jgjoffrm,3gd6l00d3watu982k3c89kh3wjqm1q,nip9Of4P,2020-0188,2020-05-08,16:20:17,16:35:31,NA,incomplete,185,filling,1,right,Blue_Circle_Chess_1.jpg,Purple_Circle_Grid_2.jpg,Red_Star_Chess_4.jpg,right,907.4199999449775,true,low,NA,NA,NA,NA,NA,NA,NA,false
nip9Of4P,33cla8o0nlo9ukh858i8v1jgjoffrm,3gd6l00d3watu982k3c89kh3wjqm1q,nip9Of4P,2020-0188,2020-05-08,16:20:17,16:35:31,NA,incomplete,186,filling,0,right,Purple_Triangle_Chess_2.jpg,Green_Triangle_Dots_3.jpg,Red_Circle_Chess_4.jpg,right,912.5850000418723,true,low,NA,NA,NA,NA,NA,NA,NA,false
nip9Of4P,33cla8o0nlo9ukh858i8v1jgjoffrm,3gd6l00d3watu982k3c89kh3wjqm1q,nip9Of4P,2020-0188,2020-05-08,16:20:17,16:35:31,NA,incomplete,187,filling,1,left,Green_Circle_Dots_3.jpg,Red_Plus_Dots_1.jpg,Blue_Circle_Stripes_4.jpg,left,822.17500009574,true,low,NA,NA,NA,NA,NA,NA,NA,false
nip9Of4P,33cla8o0nlo9ukh858i8v1jgjoffrm,3gd6l00d3watu982k3c89kh3wjqm1q,nip9Of4P,2020-0188,2020-05-08,16:20:17,16:35:31,NA,incomplete,188,filling,1,left,Red_Circle_Dots_1.jpg,Blue_Plus_Dots_3.jpg,Green_Circle_Chess_2.jpg,left,1024.2599999764934,true,low,NA,NA,NA,NA,NA,NA,NA,false
nip9Of4P,33cla8o0nlo9ukh858i8v1jgjoffrm,3gd6l00d3watu982k3c89kh3wjqm1q,nip9Of4P,2020-0188,2020-05-08,16:20:17,16:35:31,NA,incomplete,189,filling,1,right,Red_Circle_Stripes_4.jpg,Purple_Circle_Dots_1.jpg,Blue_Star_Stripes_3.jpg,right,919.7799999965355,true,low,NA,NA,NA,NA,NA,NA,NA,false
nip9Of4P,33cla8o0nlo9ukh858i8v1jgjoffrm,3gd6l00d3watu982k3c89kh3wjqm1q,nip9Of4P,2020-0188,2020-05-08,16:20:17,16:35:31,NA,incomplete,190,filling,1,right,Blue_Star_Stripes_3.jpg,Purple_Star_Chess_4.jpg,Green_Triangle_Stripes_2.jpg,right,852.7600000379607,true,low,NA,NA,NA,NA,NA,NA,NA,false
nip9Of4P,33cla8o0nlo9ukh858i8v1jgjoffrm,3gd6l00d3watu982k3c89kh3wjqm1q,nip9Of4P,2020-0188,2020-05-08,16:20:17,16:35:31,NA,incomplete,191,filling,0,left,Red_Triangle_Grid_3.jpg,Blue_Circle_Grid_2.jpg,Purple_Triangle_Chess_1.jpg,left,948.3150000451133,true,low,NA,NA,NA,NA,NA,NA,NA,false
nip9Of4P,33cla8o0nlo9ukh858i8v1jgjoffrm,3gd6l00d3watu982k3c89kh3wjqm1q,nip9Of4P,2020-0188,2020-05-08,16:20:17,16:35:31,NA,incomplete,192,filling,1,right,Red_Star_Chess_4.jpg,Green_Star_Grid_1.jpg,Purple_Circle_Chess_3.jpg,right,960.7649999670684,true,low,NA,NA,NA,NA,NA,NA,NA,false
nip9Of4P,33cla8o0nlo9ukh858i8v1jgjoffrm,3gd6l00d3watu982k3c89kh3wjqm1q,nip9Of4P,2020-0188,2020-05-08,16:20:17,16:35:31,NA,incomplete,193,filling,1,left,Blue_Circle_Stripes_2.jpg,Red_Plus_Stripes_3.jpg,Purple_Circle_Dots_1.jpg,left,844.5000000065193,true,low,NA,NA,NA,NA,NA,NA,NA,false
nip9Of4P,33cla8o0nlo9ukh858i8v1jgjoffrm,3gd6l00d3watu982k3c89kh3wjqm1q,nip9Of4P,2020-0188,2020-05-08,16:20:17,16:35:31,NA,incomplete,194,filling,1,left,Blue_Star_Dots_4.jpg,Purple_Triangle_Dots_2.jpg,Green_Star_Chess_1.jpg,left,925.7800000486895,true,low,NA,NA,NA,NA,NA,NA,NA,false
nip9Of4P,33cla8o0nlo9ukh858i8v1jgjoffrm,3gd6l00d3watu982k3c89kh3wjqm1q,nip9Of4P,2020-0188,2020-05-08,16:20:17,16:35:31,NA,incomplete,195,filling,1,left,Red_Star_Grid_3.jpg,Green_Triangle_Grid_2.jpg,Blue_Star_Dots_4.jpg,left,930.2500000922009,true,low,NA,NA,NA,NA,NA,NA,NA,false
nip9Of4P,33cla8o0nlo9ukh858i8v1jgjoffrm,3gd6l00d3watu982k3c89kh3wjqm1q,nip9Of4P,2020-0188,2020-05-08,16:20:17,16:35:31,NA,incomplete,196,filling,1,right,Purple_Plus_Chess_1.jpg,Red_Plus_Stripes_4.jpg,Green_Triangle_Chess_3.jpg,right,886.5300000179559,true,low,NA,NA,NA,NA,NA,NA,NA,false
nip9Of4P,33cla8o0nlo9ukh858i8v1jgjoffrm,3gd6l00d3watu982k3c89kh3wjqm1q,nip9Of4P,2020-0188,2020-05-08,16:20:17,16:35:31,NA,incomplete,197,filling,0,left,Purple_Plus_Chess_1.jpg,Red_Circle_Chess_4.jpg,Blue_Plus_Dots_3.jpg,left,925.9499999461696,true,low,NA,NA,NA,NA,NA,NA,NA,false
nip9Of4P,33cla8o0nlo9ukh858i8v1jgjoffrm,3gd6l00d3watu982k3c89kh3wjqm1q,nip9Of4P,2020-0188,2020-05-08,16:20:17,16:35:31,NA,incomplete,198,filling,1,left,Blue_Plus_Grid_3.jpg,Green_Circle_Grid_4.jpg,Red_Plus_Stripes_1.jpg,left,953.1799999531358,true,low,NA,NA,NA,NA,NA,NA,NA,false
nip9Of4P,33cla8o0nlo9ukh858i8v1jgjoffrm,3gd6l00d3watu982k3c89kh3wjqm1q,nip9Of4P,2020-0188,2020-05-08,16:20:17,16:35:31,NA,incomplete,199,filling,0,right,Red_Star_Stripes_1.jpg,Blue_Star_Chess_2.jpg,Green_Plus_Stripes_3.jpg,right,925.3100000787526,true,low,NA,NA,NA,NA,NA,NA,NA,false
nip9Of4P,33cla8o0nlo9ukh858i8v1jgjoffrm,3gd6l00d3watu982k3c89kh3wjqm1q,nip9Of4P,2020-0188,2020-05-08,16:20:17,16:35:31,NA,incomplete,200,shape,1,right,Purple_Plus_Grid_4.jpg,Blue_Star_Grid_2.jpg,Green_Plus_Dots_1.jpg,left,890.4050000710413,false,low,NA,NA,NA,NA,NA,NA,NA,false
nip9Of4P,33cla8o0nlo9ukh858i8v1jgjoffrm,3gd6l00d3watu982k3c89kh3wjqm1q,nip9Of4P,2020-0188,2020-05-08,16:20:17,16:35:31,NA,incomplete,201,shape,0,right,Blue_Circle_Chess_1.jpg,Green_Plus_Chess_2.jpg,Purple_Circle_Grid_3.jpg,right,720.2549999346957,true,low,NA,NA,NA,NA,NA,NA,NA,false
nip9Of4P,33cla8o0nlo9ukh858i8v1jgjoffrm,3gd6l00d3watu982k3c89kh3wjqm1q,nip9Of4P,2020-0188,2020-05-08,16:20:17,16:35:31,NA,incomplete,202,shape,1,left,Blue_Star_Dots_4.jpg,Red_Star_Chess_3.jpg,Green_Triangle_Dots_2.jpg,left,727.1799999289215,true,low,NA,NA,NA,NA,NA,NA,NA,false
nip9Of4P,33cla8o0nlo9ukh858i8v1jgjoffrm,3gd6l00d3watu982k3c89kh3wjqm1q,nip9Of4P,2020-0188,2020-05-08,16:20:17,16:35:31,NA,incomplete,203,shape,0,right,Purple_Circle_Chess_3.jpg,Red_Triangle_Chess_2.jpg,Green_Circle_Stripes_1.jpg,right,810.4749999474734,true,low,NA,NA,NA,NA,NA,NA,NA,false
nip9Of4P,33cla8o0nlo9ukh858i8v1jgjoffrm,3gd6l00d3watu982k3c89kh3wjqm1q,nip9Of4P,2020-0188,2020-05-08,16:20:17,16:35:31,NA,incomplete,204,shape,1,right,Blue_Star_Dots_1.jpg,Green_Plus_Dots_4.jpg,Red_Star_Chess_2.jpg,right,668.1749999988824,true,low,NA,NA,NA,NA,NA,NA,NA,false
nip9Of4P,33cla8o0nlo9ukh858i8v1jgjoffrm,3gd6l00d3watu982k3c89kh3wjqm1q,nip9Of4P,2020-0188,2020-05-08,16:20:17,16:35:31,NA,incomplete,205,shape,1,left,Red_Star_Stripes_1.jpg,Blue_Star_Dots_3.jpg,Green_Triangle_Stripes_4.jpg,left,667.7449999842793,true,low,NA,NA,NA,NA,NA,NA,NA,false
nip9Of4P,33cla8o0nlo9ukh858i8v1jgjoffrm,3gd6l00d3watu982k3c89kh3wjqm1q,nip9Of4P,2020-0188,2020-05-08,16:20:17,16:35:31,NA,incomplete,206,shape,1,right,Red_Triangle_Dots_1.jpg,Green_Star_Dots_4.jpg,Blue_Triangle_Grid_2.jpg,right,571.8750000232831,true,low,NA,NA,NA,NA,NA,NA,NA,false
nip9Of4P,33cla8o0nlo9ukh858i8v1jgjoffrm,3gd6l00d3watu982k3c89kh3wjqm1q,nip9Of4P,2020-0188,2020-05-08,16:20:17,16:35:31,NA,incomplete,207,shape,1,left,Green_Star_Stripes_3.jpg,Blue_Star_Grid_4.jpg,Purple_Circle_Stripes_1.jpg,left,575.0799999805167,true,low,NA,NA,NA,NA,NA,NA,NA,false
nip9Of4P,33cla8o0nlo9ukh858i8v1jgjoffrm,3gd6l00d3watu982k3c89kh3wjqm1q,nip9Of4P,2020-0188,2020-05-08,16:20:17,16:35:31,NA,incomplete,208,shape,1,left,Purple_Triangle_Stripes_2.jpg,Green_Triangle_Grid_3.jpg,Blue_Plus_Stripes_1.jpg,left,617.9400000255555,true,low,NA,NA,NA,NA,NA,NA,NA,false
nip9Of4P,33cla8o0nlo9ukh858i8v1jgjoffrm,3gd6l00d3watu982k3c89kh3wjqm1q,nip9Of4P,2020-0188,2020-05-08,16:20:17,16:35:31,NA,incomplete,209,shape,0,left,Purple_Star_Stripes_2.jpg,Blue_Star_Grid_4.jpg,Red_Triangle_Stripes_1.jpg,left,723.5699999146163,true,low,NA,NA,NA,NA,NA,NA,NA,false
nip9Of4P,33cla8o0nlo9ukh858i8v1jgjoffrm,3gd6l00d3watu982k3c89kh3wjqm1q,nip9Of4P,2020-0188,2020-05-08,16:20:17,16:35:31,NA,incomplete,210,shape,1,left,Green_Star_Grid_3.jpg,Red_Star_Stripes_2.jpg,Blue_Triangle_Grid_1.jpg,left,711.6750000277534,true,low,NA,NA,NA,NA,NA,NA,NA,false
nip9Of4P,33cla8o0nlo9ukh858i8v1jgjoffrm,3gd6l00d3watu982k3c89kh3wjqm1q,nip9Of4P,2020-0188,2020-05-08,16:20:17,16:35:31,NA,incomplete,211,shape,1,left,Green_Circle_Grid_4.jpg,Purple_Circle_Chess_3.jpg,Blue_Star_Grid_1.jpg,left,1190.489999949932,true,low,NA,NA,NA,NA,NA,NA,NA,false
nip9Of4P,33cla8o0nlo9ukh858i8v1jgjoffrm,3gd6l00d3watu982k3c89kh3wjqm1q,nip9Of4P,2020-0188,2020-05-08,16:20:17,16:35:31,NA,incomplete,212,shape,1,left,Purple_Circle_Grid_3.jpg,Green_Circle_Stripes_2.jpg,Blue_Plus_Grid_1.jpg,left,624.4400000432506,true,low,NA,NA,NA,NA,NA,NA,NA,false
nip9Of4P,33cla8o0nlo9ukh858i8v1jgjoffrm,3gd6l00d3watu982k3c89kh3wjqm1q,nip9Of4P,2020-0188,2020-05-08,16:20:17,16:35:31,NA,incomplete,213,shape,0,right,Red_Circle_Grid_4.jpg,Green_Plus_Grid_1.jpg,Blue_Circle_Dots_3.jpg,right,545.5150000052527,true,low,NA,NA,NA,NA,NA,NA,NA,false
nip9Of4P,33cla8o0nlo9ukh858i8v1jgjoffrm,3gd6l00d3watu982k3c89kh3wjqm1q,nip9Of4P,2020-0188,2020-05-08,16:20:17,16:35:31,NA,incomplete,214,shape,1,left,Blue_Plus_Stripes_1.jpg,Purple_Plus_Grid_2.jpg,Red_Triangle_Stripes_3.jpg,left,686.1100000096485,true,low,NA,NA,NA,NA,NA,NA,NA,false
nip9Of4P,33cla8o0nlo9ukh858i8v1jgjoffrm,3gd6l00d3watu982k3c89kh3wjqm1q,nip9Of4P,2020-0188,2020-05-08,16:20:17,16:35:31,NA,incomplete,215,shape,0,right,Green_Plus_Dots_1.jpg,Red_Triangle_Dots_3.jpg,Purple_Plus_Grid_4.jpg,right,764.4400000572205,true,low,NA,NA,NA,NA,NA,NA,NA,false
nip9Of4P,33cla8o0nlo9ukh858i8v1jgjoffrm,3gd6l00d3watu982k3c89kh3wjqm1q,nip9Of4P,2020-0188,2020-05-08,16:20:17,16:35:31,NA,incomplete,216,shape,1,left,Red_Triangle_Stripes_3.jpg,Blue_Triangle_Grid_2.jpg,Green_Circle_Stripes_1.jpg,left,720.5599999288097,true,low,NA,NA,NA,NA,NA,NA,NA,false
nip9Of4P,33cla8o0nlo9ukh858i8v1jgjoffrm,3gd6l00d3watu982k3c89kh3wjqm1q,nip9Of4P,2020-0188,2020-05-08,16:20:17,16:35:31,NA,incomplete,217,shape,1,right,Blue_Triangle_Grid_4.jpg,Purple_Star_Grid_3.jpg,Red_Triangle_Stripes_2.jpg,right,813.3350000716746,true,low,NA,NA,NA,NA,NA,NA,NA,false
nip9Of4P,33cla8o0nlo9ukh858i8v1jgjoffrm,3gd6l00d3watu982k3c89kh3wjqm1q,nip9Of4P,2020-0188,2020-05-08,16:20:17,16:35:31,NA,incomplete,218,shape,0,right,Blue_Triangle_Grid_3.jpg,Purple_Star_Grid_2.jpg,Red_Triangle_Stripes_4.jpg,right,663.1400000769645,true,low,NA,NA,NA,NA,NA,NA,NA,false
nip9Of4P,33cla8o0nlo9ukh858i8v1jgjoffrm,3gd6l00d3watu982k3c89kh3wjqm1q,nip9Of4P,2020-0188,2020-05-08,16:20:17,16:35:31,NA,incomplete,219,shape,1,left,Blue_Triangle_Grid_4.jpg,Red_Triangle_Stripes_1.jpg,Purple_Plus_Grid_2.jpg,left,542.5149999791756,true,low,NA,NA,NA,NA,NA,NA,NA,false
nip9Of4P,33cla8o0nlo9ukh858i8v1jgjoffrm,3gd6l00d3watu982k3c89kh3wjqm1q,nip9Of4P,2020-0188,2020-05-08,16:20:17,16:35:31,NA,incomplete,220,filling,1,right,Red_Star_Chess_2.jpg,Green_Star_Stripes_3.jpg,Purple_Circle_Chess_4.jpg,left,548.2199999969453,false,low,NA,NA,NA,NA,NA,NA,NA,false
nip9Of4P,33cla8o0nlo9ukh858i8v1jgjoffrm,3gd6l00d3watu982k3c89kh3wjqm1q,nip9Of4P,2020-0188,2020-05-08,16:20:17,16:35:31,NA,incomplete,221,filling,1,left,Red_Plus_Chess_4.jpg,Green_Triangle_Chess_2.jpg,Blue_Plus_Stripes_3.jpg,right,567.9450000170618,false,low,NA,NA,NA,NA,NA,NA,NA,false
nip9Of4P,33cla8o0nlo9ukh858i8v1jgjoffrm,3gd6l00d3watu982k3c89kh3wjqm1q,nip9Of4P,2020-0188,2020-05-08,16:20:17,16:35:31,NA,incomplete,222,filling,1,right,Purple_Star_Dots_1.jpg,Red_Star_Grid_4.jpg,Green_Circle_Dots_2.jpg,right,923.8149999873713,true,low,NA,NA,NA,NA,NA,NA,NA,false
nip9Of4P,33cla8o0nlo9ukh858i8v1jgjoffrm,3gd6l00d3watu982k3c89kh3wjqm1q,nip9Of4P,2020-0188,2020-05-08,16:20:17,16:35:31,NA,incomplete,223,filling,1,left,Purple_Triangle_Grid_4.jpg,Red_Star_Grid_1.jpg,Green_Triangle_Stripes_2.jpg,left,960.8700000680983,true,low,NA,NA,NA,NA,NA,NA,NA,false
nip9Of4P,33cla8o0nlo9ukh858i8v1jgjoffrm,3gd6l00d3watu982k3c89kh3wjqm1q,nip9Of4P,2020-0188,2020-05-08,16:20:17,16:35:31,NA,incomplete,224,filling,1,right,Blue_Triangle_Dots_2.jpg,Purple_Triangle_Stripes_1.jpg,Green_Circle_Dots_3.jpg,right,860.7249999186024,true,low,NA,NA,NA,NA,NA,NA,NA,false
nip9Of4P,33cla8o0nlo9ukh858i8v1jgjoffrm,3gd6l00d3watu982k3c89kh3wjqm1q,nip9Of4P,2020-0188,2020-05-08,16:20:17,16:35:31,NA,incomplete,225,filling,0,left,Green_Triangle_Dots_3.jpg,Blue_Star_Dots_2.jpg,Red_Triangle_Chess_4.jpg,left,963.4300000034273,true,low,NA,NA,NA,NA,NA,NA,NA,false
nip9Of4P,33cla8o0nlo9ukh858i8v1jgjoffrm,3gd6l00d3watu982k3c89kh3wjqm1q,nip9Of4P,2020-0188,2020-05-08,16:20:17,16:35:31,NA,incomplete,226,filling,1,right,Purple_Circle_Stripes_4.jpg,Red_Circle_Chess_1.jpg,Green_Plus_Stripes_2.jpg,right,855.0699999323115,true,low,NA,NA,NA,NA,NA,NA,NA,false
nip9Of4P,33cla8o0nlo9ukh858i8v1jgjoffrm,3gd6l00d3watu982k3c89kh3wjqm1q,nip9Of4P,2020-0188,2020-05-08,16:20:17,16:35:31,NA,incomplete,227,filling,1,left,Blue_Triangle_Grid_1.jpg,Green_Star_Grid_3.jpg,Red_Triangle_Stripes_4.jpg,right,871.0950000677258,false,low,NA,NA,NA,NA,NA,NA,NA,false
nip9Of4P,33cla8o0nlo9ukh858i8v1jgjoffrm,3gd6l00d3watu982k3c89kh3wjqm1q,nip9Of4P,2020-0188,2020-05-08,16:20:17,16:35:31,NA,incomplete,228,filling,1,left,Red_Circle_Dots_4.jpg,Blue_Triangle_Dots_1.jpg,Purple_Circle_Stripes_2.jpg,left,837.6850000349805,true,low,NA,NA,NA,NA,NA,NA,NA,false
nip9Of4P,33cla8o0nlo9ukh858i8v1jgjoffrm,3gd6l00d3watu982k3c89kh3wjqm1q,nip9Of4P,2020-0188,2020-05-08,16:20:17,16:35:31,NA,incomplete,229,filling,1,left,Purple_Triangle_Grid_4.jpg,Green_Circle_Grid_3.jpg,Red_Triangle_Chess_1.jpg,left,949.4549999944866,true,low,NA,NA,NA,NA,NA,NA,NA,false
nip9Of4P,33cla8o0nlo9ukh858i8v1jgjoffrm,3gd6l00d3watu982k3c89kh3wjqm1q,nip9Of4P,2020-0188,2020-05-08,16:20:17,16:35:31,NA,incomplete,230,filling,1,left,Green_Triangle_Dots_2.jpg,Red_Star_Dots_4.jpg,Blue_Triangle_Grid_3.jpg,left,945.9000000497326,true,low,NA,NA,NA,NA,NA,NA,NA,false
nip9Of4P,33cla8o0nlo9ukh858i8v1jgjoffrm,3gd6l00d3watu982k3c89kh3wjqm1q,nip9Of4P,2020-0188,2020-05-08,16:20:17,16:35:31,NA,incomplete,231,filling,0,left,Purple_Plus_Chess_3.jpg,Green_Star_Chess_4.jpg,Red_Plus_Stripes_2.jpg,left,1070.739999995567,true,low,NA,NA,NA,NA,NA,NA,NA,false
nip9Of4P,33cla8o0nlo9ukh858i8v1jgjoffrm,3gd6l00d3watu982k3c89kh3wjqm1q,nip9Of4P,2020-0188,2020-05-08,16:20:17,16:35:31,NA,incomplete,232,filling,1,left,Purple_Circle_Grid_3.jpg,Blue_Plus_Grid_4.jpg,Red_Circle_Chess_2.jpg,left,893.5300000011921,true,low,NA,NA,NA,NA,NA,NA,NA,false
nip9Of4P,33cla8o0nlo9ukh858i8v1jgjoffrm,3gd6l00d3watu982k3c89kh3wjqm1q,nip9Of4P,2020-0188,2020-05-08,16:20:17,16:35:31,NA,incomplete,233,filling,1,left,Red_Triangle_Stripes_2.jpg,Green_Star_Stripes_1.jpg,Purple_Triangle_Dots_3.jpg,left,907.0649999193847,true,low,NA,NA,NA,NA,NA,NA,NA,false
nip9Of4P,33cla8o0nlo9ukh858i8v1jgjoffrm,3gd6l00d3watu982k3c89kh3wjqm1q,nip9Of4P,2020-0188,2020-05-08,16:20:17,16:35:31,NA,incomplete,234,filling,1,left,Blue_Plus_Stripes_2.jpg,Green_Circle_Stripes_3.jpg,Red_Plus_Grid_1.jpg,left,825.1799999270588,true,low,NA,NA,NA,NA,NA,NA,NA,false
nip9Of4P,33cla8o0nlo9ukh858i8v1jgjoffrm,3gd6l00d3watu982k3c89kh3wjqm1q,nip9Of4P,2020-0188,2020-05-08,16:20:17,16:35:31,NA,incomplete,235,filling,1,right,Red_Circle_Stripes_1.jpg,Green_Circle_Dots_4.jpg,Blue_Star_Stripes_2.jpg,right,850.1849999884143,true,low,NA,NA,NA,NA,NA,NA,NA,false
nip9Of4P,33cla8o0nlo9ukh858i8v1jgjoffrm,3gd6l00d3watu982k3c89kh3wjqm1q,nip9Of4P,2020-0188,2020-05-08,16:20:17,16:35:31,NA,incomplete,236,filling,1,right,Purple_Triangle_Chess_3.jpg,Green_Triangle_Stripes_4.jpg,Blue_Plus_Chess_2.jpg,right,786.4050000207499,true,low,NA,NA,NA,NA,NA,NA,NA,false
nip9Of4P,33cla8o0nlo9ukh858i8v1jgjoffrm,3gd6l00d3watu982k3c89kh3wjqm1q,nip9Of4P,2020-0188,2020-05-08,16:20:17,16:35:31,NA,incomplete,237,filling,1,right,Red_Triangle_Dots_1.jpg,Green_Triangle_Stripes_4.jpg,Purple_Circle_Dots_3.jpg,right,837.5750000122935,true,low,NA,NA,NA,NA,NA,NA,NA,false
nip9Of4P,33cla8o0nlo9ukh858i8v1jgjoffrm,3gd6l00d3watu982k3c89kh3wjqm1q,nip9Of4P,2020-0188,2020-05-08,16:20:17,16:35:31,NA,incomplete,238,filling,0,right,Red_Circle_Dots_1.jpg,Green_Circle_Stripes_2.jpg,Blue_Plus_Dots_3.jpg,right,772.9449999751523,true,low,NA,NA,NA,NA,NA,NA,NA,false
nip9Of4P,33cla8o0nlo9ukh858i8v1jgjoffrm,3gd6l00d3watu982k3c89kh3wjqm1q,nip9Of4P,2020-0188,2020-05-08,16:20:17,16:35:31,NA,incomplete,239,filling,1,right,Blue_Circle_Grid_3.jpg,Red_Circle_Stripes_2.jpg,Purple_Triangle_Grid_1.jpg,left,687.9099999787286,false,low,NA,NA,NA,NA,NA,NA,NA,false
nip9Of4P,33cla8o0nlo9ukh858i8v1jgjoffrm,3gd6l00d3watu982k3c89kh3wjqm1q,nip9Of4P,2020-0188,2020-05-08,16:20:17,16:35:31,890174.645000021,914622.330000042,NA,NA,NA,NA,NA,NA,NA,NA,NA,NA,NA,36,White/Caucasian,Male,White,no,yes,no,undefined
