workerId,hitId,assignmentId,subject,studyid,exp_date,exp_start,exp_end,time_start,time_end,trial,type,reward_validity,answer,image_top,image_left,image_right,response,response_time,response_acc,volatility,age,race,gender,ethnicity,color,vision,neuro,practice
GK3VOSQB,385mdvingfsu7ikqnsjzxyjp4abjww,3glb5jmzf18nuusspty8xhyforvdg6,GK3VOSQB,2020-0188,2020-05-08,10:24:00,10:39:28,NA,incomplete,0,filling,1,left,Red_Triangle_Grid_2.jpg,Green_Plus_Grid_4.jpg,Purple_Star_Stripes_2.jpg,left,1751.3049999251962,true,NA,NA,NA,NA,NA,NA,NA,NA,true
GK3VOSQB,385mdvingfsu7ikqnsjzxyjp4abjww,3glb5jmzf18nuusspty8xhyforvdg6,GK3VOSQB,2020-0188,2020-05-08,10:24:00,10:39:28,NA,incomplete,1,filling,1,right,Blue_Plus_Dots_2.jpg,Purple_Circle_Stripes_2.jpg,Red_Star_Dots_4.jpg,right,1689.585000043735,true,NA,NA,NA,NA,NA,NA,NA,NA,true
GK3VOSQB,385mdvingfsu7ikqnsjzxyjp4abjww,3glb5jmzf18nuusspty8xhyforvdg6,GK3VOSQB,2020-0188,2020-05-08,10:24:00,10:39:28,NA,incomplete,2,filling,1,right,Green_Star_Dots_1.jpg,Purple_Triangle_Chess_1.jpg,Red_Circle_Dots_4.jpg,right,1455.695000011474,true,NA,NA,NA,NA,NA,NA,NA,NA,true
GK3VOSQB,385mdvingfsu7ikqnsjzxyjp4abjww,3glb5jmzf18nuusspty8xhyforvdg6,GK3VOSQB,2020-0188,2020-05-08,10:24:00,10:39:28,NA,incomplete,3,filling,1,left,Blue_Star_Stripes_4.jpg,Red_Circle_Stripes_2.jpg,Purple_Triangle_Dots_4.jpg,left,1141.3949998095632,true,NA,NA,NA,NA,NA,NA,NA,NA,true
GK3VOSQB,385mdvingfsu7ikqnsjzxyjp4abjww,3glb5jmzf18nuusspty8xhyforvdg6,GK3VOSQB,2020-0188,2020-05-08,10:24:00,10:39:28,NA,incomplete,4,filling,1,right,Purple_Triangle_Chess_4.jpg,Red_Star_Grid_4.jpg,Green_Plus_Chess_3.jpg,right,1122.9049998801202,true,NA,NA,NA,NA,NA,NA,NA,NA,true
GK3VOSQB,385mdvingfsu7ikqnsjzxyjp4abjww,3glb5jmzf18nuusspty8xhyforvdg6,GK3VOSQB,2020-0188,2020-05-08,10:24:00,10:39:28,NA,incomplete,5,filling,1,right,Blue_Circle_Chess_3.jpg,Red_Star_Dots_3.jpg,Purple_Triangle_Chess_2.jpg,right,778.0250001233071,true,NA,NA,NA,NA,NA,NA,NA,NA,true
GK3VOSQB,385mdvingfsu7ikqnsjzxyjp4abjww,3glb5jmzf18nuusspty8xhyforvdg6,GK3VOSQB,2020-0188,2020-05-08,10:24:00,10:39:28,NA,incomplete,6,filling,1,left,Red_Star_Chess_3.jpg,Blue_Triangle_Chess_4.jpg,Purple_Plus_Stripes_3.jpg,left,900.205000070855,true,NA,NA,NA,NA,NA,NA,NA,NA,true
GK3VOSQB,385mdvingfsu7ikqnsjzxyjp4abjww,3glb5jmzf18nuusspty8xhyforvdg6,GK3VOSQB,2020-0188,2020-05-08,10:24:00,10:39:28,NA,incomplete,7,filling,0,right,Blue_Plus_Dots_1.jpg,Purple_Circle_Grid_1.jpg,Green_Star_Dots_4.jpg,right,888.2199998479337,true,NA,NA,NA,NA,NA,NA,NA,NA,true
GK3VOSQB,385mdvingfsu7ikqnsjzxyjp4abjww,3glb5jmzf18nuusspty8xhyforvdg6,GK3VOSQB,2020-0188,2020-05-08,10:24:00,10:39:28,NA,incomplete,8,filling,1,right,Green_Triangle_Stripes_4.jpg,Red_Circle_Grid_4.jpg,Purple_Star_Stripes_3.jpg,right,1339.8599999491125,true,NA,NA,NA,NA,NA,NA,NA,NA,true
GK3VOSQB,385mdvingfsu7ikqnsjzxyjp4abjww,3glb5jmzf18nuusspty8xhyforvdg6,GK3VOSQB,2020-0188,2020-05-08,10:24:00,10:39:28,NA,incomplete,9,filling,1,left,Blue_Plus_Chess_4.jpg,Purple_Circle_Chess_1.jpg,Red_Star_Stripes_4.jpg,left,1041.6349999140948,true,NA,NA,NA,NA,NA,NA,NA,NA,true
GK3VOSQB,385mdvingfsu7ikqnsjzxyjp4abjww,3glb5jmzf18nuusspty8xhyforvdg6,GK3VOSQB,2020-0188,2020-05-08,10:24:00,10:39:28,NA,incomplete,10,filling,0,right,Blue_Plus_Stripes_1.jpg,Green_Star_Grid_1.jpg,Red_Triangle_Stripes_2.jpg,right,1012.5250001437962,true,NA,NA,NA,NA,NA,NA,NA,NA,true
GK3VOSQB,385mdvingfsu7ikqnsjzxyjp4abjww,3glb5jmzf18nuusspty8xhyforvdg6,GK3VOSQB,2020-0188,2020-05-08,10:24:00,10:39:28,NA,incomplete,11,filling,0,left,Purple_Circle_Dots_4.jpg,Green_Triangle_Dots_1.jpg,Blue_Plus_Grid_4.jpg,left,1261.0100000165403,true,NA,NA,NA,NA,NA,NA,NA,NA,true
GK3VOSQB,385mdvingfsu7ikqnsjzxyjp4abjww,3glb5jmzf18nuusspty8xhyforvdg6,GK3VOSQB,2020-0188,2020-05-08,10:24:00,10:39:28,NA,incomplete,12,filling,1,right,Red_Circle_Dots_1.jpg,Green_Plus_Grid_1.jpg,Purple_Star_Dots_4.jpg,right,1049.610000103712,true,NA,NA,NA,NA,NA,NA,NA,NA,true
GK3VOSQB,385mdvingfsu7ikqnsjzxyjp4abjww,3glb5jmzf18nuusspty8xhyforvdg6,GK3VOSQB,2020-0188,2020-05-08,10:24:00,10:39:28,NA,incomplete,13,filling,1,left,Blue_Circle_Dots_1.jpg,Green_Star_Dots_3.jpg,Purple_Plus_Grid_1.jpg,left,940.8750000875443,true,NA,NA,NA,NA,NA,NA,NA,NA,true
GK3VOSQB,385mdvingfsu7ikqnsjzxyjp4abjww,3glb5jmzf18nuusspty8xhyforvdg6,GK3VOSQB,2020-0188,2020-05-08,10:24:00,10:39:28,NA,incomplete,14,filling,1,left,Red_Triangle_Grid_3.jpg,Blue_Circle_Grid_2.jpg,Green_Star_Stripes_3.jpg,left,743.1199999991804,true,NA,NA,NA,NA,NA,NA,NA,NA,true
GK3VOSQB,385mdvingfsu7ikqnsjzxyjp4abjww,3glb5jmzf18nuusspty8xhyforvdg6,GK3VOSQB,2020-0188,2020-05-08,10:24:00,10:39:28,NA,incomplete,15,filling,0,left,Purple_Star_Dots_4.jpg,Red_Plus_Dots_2.jpg,Green_Circle_Chess_4.jpg,left,977.4599999655038,true,NA,NA,NA,NA,NA,NA,NA,NA,true
GK3VOSQB,385mdvingfsu7ikqnsjzxyjp4abjww,3glb5jmzf18nuusspty8xhyforvdg6,GK3VOSQB,2020-0188,2020-05-08,10:24:00,10:39:28,NA,incomplete,16,filling,1,right,Green_Plus_Chess_1.jpg,Red_Star_Grid_1.jpg,Purple_Triangle_Chess_2.jpg,right,885.4449999053031,true,NA,NA,NA,NA,NA,NA,NA,NA,true
GK3VOSQB,385mdvingfsu7ikqnsjzxyjp4abjww,3glb5jmzf18nuusspty8xhyforvdg6,GK3VOSQB,2020-0188,2020-05-08,10:24:00,10:39:28,NA,incomplete,17,filling,1,right,Blue_Triangle_Dots_1.jpg,Purple_Circle_Stripes_1.jpg,Green_Plus_Dots_4.jpg,right,1227.500000037253,true,NA,NA,NA,NA,NA,NA,NA,NA,true
GK3VOSQB,385mdvingfsu7ikqnsjzxyjp4abjww,3glb5jmzf18nuusspty8xhyforvdg6,GK3VOSQB,2020-0188,2020-05-08,10:24:00,10:39:28,NA,incomplete,18,filling,1,left,Purple_Triangle_Chess_4.jpg,Red_Circle_Chess_1.jpg,Green_Plus_Stripes_4.jpg,left,1064.265000168234,true,NA,NA,NA,NA,NA,NA,NA,NA,true
GK3VOSQB,385mdvingfsu7ikqnsjzxyjp4abjww,3glb5jmzf18nuusspty8xhyforvdg6,GK3VOSQB,2020-0188,2020-05-08,10:24:00,10:39:28,NA,incomplete,19,filling,1,left,Blue_Plus_Grid_1.jpg,Purple_Star_Grid_2.jpg,Red_Triangle_Dots_1.jpg,left,975.5700000096112,true,NA,NA,NA,NA,NA,NA,NA,NA,true
GK3VOSQB,385mdvingfsu7ikqnsjzxyjp4abjww,3glb5jmzf18nuusspty8xhyforvdg6,GK3VOSQB,2020-0188,2020-05-08,10:24:00,10:39:28,NA,incomplete,20,number,1,left,Red_Plus_Dots_3.jpg,Purple_Star_Stripes_3.jpg,Green_Triangle_Dots_1.jpg,right,1225.6749998778105,false,NA,NA,NA,NA,NA,NA,NA,NA,true
GK3VOSQB,385mdvingfsu7ikqnsjzxyjp4abjww,3glb5jmzf18nuusspty8xhyforvdg6,GK3VOSQB,2020-0188,2020-05-08,10:24:00,10:39:28,NA,incomplete,21,number,0,left,Purple_Plus_Stripes_3.jpg,Red_Circle_Dots_3.jpg,Green_Star_Stripes_2.jpg,left,1800.1149999909103,true,NA,NA,NA,NA,NA,NA,NA,NA,true
GK3VOSQB,385mdvingfsu7ikqnsjzxyjp4abjww,3glb5jmzf18nuusspty8xhyforvdg6,GK3VOSQB,2020-0188,2020-05-08,10:24:00,10:39:28,NA,incomplete,22,number,1,right,Green_Triangle_Grid_3.jpg,Blue_Circle_Grid_2.jpg,Red_Plus_Dots_3.jpg,right,1374.5600001420826,true,NA,NA,NA,NA,NA,NA,NA,NA,true
GK3VOSQB,385mdvingfsu7ikqnsjzxyjp4abjww,3glb5jmzf18nuusspty8xhyforvdg6,GK3VOSQB,2020-0188,2020-05-08,10:24:00,10:39:28,NA,incomplete,23,number,1,right,Red_Triangle_Dots_1.jpg,Purple_Plus_Dots_3.jpg,Blue_Star_Chess_1.jpg,right,976.2800000607967,true,NA,NA,NA,NA,NA,NA,NA,NA,true
GK3VOSQB,385mdvingfsu7ikqnsjzxyjp4abjww,3glb5jmzf18nuusspty8xhyforvdg6,GK3VOSQB,2020-0188,2020-05-08,10:24:00,10:39:28,NA,incomplete,24,number,0,right,Purple_Star_Chess_3.jpg,Green_Plus_Chess_1.jpg,Red_Triangle_Dots_3.jpg,right,670.5950000323355,true,NA,NA,NA,NA,NA,NA,NA,NA,true
GK3VOSQB,385mdvingfsu7ikqnsjzxyjp4abjww,3glb5jmzf18nuusspty8xhyforvdg6,GK3VOSQB,2020-0188,2020-05-08,10:24:00,10:39:28,NA,incomplete,25,number,0,right,Blue_Star_Grid_2.jpg,Purple_Circle_Grid_4.jpg,Red_Triangle_Dots_2.jpg,right,885.0800001528114,true,NA,NA,NA,NA,NA,NA,NA,NA,true
GK3VOSQB,385mdvingfsu7ikqnsjzxyjp4abjww,3glb5jmzf18nuusspty8xhyforvdg6,GK3VOSQB,2020-0188,2020-05-08,10:24:00,10:39:28,NA,incomplete,26,number,1,left,Red_Triangle_Chess_3.jpg,Green_Star_Grid_3.jpg,Purple_Plus_Chess_2.jpg,left,1190.2149999514222,true,NA,NA,NA,NA,NA,NA,NA,NA,true
GK3VOSQB,385mdvingfsu7ikqnsjzxyjp4abjww,3glb5jmzf18nuusspty8xhyforvdg6,GK3VOSQB,2020-0188,2020-05-08,10:24:00,10:39:28,NA,incomplete,27,number,1,left,Green_Circle_Stripes_1.jpg,Red_Plus_Dots_1.jpg,Blue_Triangle_Stripes_3.jpg,left,1113.1100000347942,true,NA,NA,NA,NA,NA,NA,NA,NA,true
GK3VOSQB,385mdvingfsu7ikqnsjzxyjp4abjww,3glb5jmzf18nuusspty8xhyforvdg6,GK3VOSQB,2020-0188,2020-05-08,10:24:00,10:39:28,NA,incomplete,28,number,1,right,Purple_Plus_Stripes_1.jpg,Red_Circle_Stripes_2.jpg,Blue_Star_Chess_1.jpg,right,825.0649999827147,true,NA,NA,NA,NA,NA,NA,NA,NA,true
GK3VOSQB,385mdvingfsu7ikqnsjzxyjp4abjww,3glb5jmzf18nuusspty8xhyforvdg6,GK3VOSQB,2020-0188,2020-05-08,10:24:00,10:39:28,NA,incomplete,29,number,1,right,Green_Plus_Grid_4.jpg,Red_Star_Grid_3.jpg,Blue_Triangle_Stripes_4.jpg,right,607.0300000719726,true,NA,NA,NA,NA,NA,NA,NA,NA,true
GK3VOSQB,385mdvingfsu7ikqnsjzxyjp4abjww,3glb5jmzf18nuusspty8xhyforvdg6,GK3VOSQB,2020-0188,2020-05-08,10:24:00,10:39:28,NA,incomplete,30,number,1,left,Blue_Circle_Dots_4.jpg,Purple_Triangle_Chess_4.jpg,Green_Star_Dots_3.jpg,left,649.6150000020862,true,NA,NA,NA,NA,NA,NA,NA,NA,true
GK3VOSQB,385mdvingfsu7ikqnsjzxyjp4abjww,3glb5jmzf18nuusspty8xhyforvdg6,GK3VOSQB,2020-0188,2020-05-08,10:24:00,10:39:28,NA,incomplete,31,number,1,left,Purple_Triangle_Stripes_2.jpg,Blue_Star_Grid_2.jpg,Green_Circle_Stripes_4.jpg,left,934.7550000529736,true,NA,NA,NA,NA,NA,NA,NA,NA,true
GK3VOSQB,385mdvingfsu7ikqnsjzxyjp4abjww,3glb5jmzf18nuusspty8xhyforvdg6,GK3VOSQB,2020-0188,2020-05-08,10:24:00,10:39:28,NA,incomplete,32,number,1,left,Blue_Triangle_Dots_3.jpg,Red_Plus_Grid_3.jpg,Green_Circle_Dots_1.jpg,left,740.23999995552,true,NA,NA,NA,NA,NA,NA,NA,NA,true
GK3VOSQB,385mdvingfsu7ikqnsjzxyjp4abjww,3glb5jmzf18nuusspty8xhyforvdg6,GK3VOSQB,2020-0188,2020-05-08,10:24:00,10:39:28,NA,incomplete,33,number,1,left,Red_Triangle_Dots_4.jpg,Purple_Plus_Stripes_4.jpg,Blue_Star_Dots_1.jpg,left,696.5750001836568,true,NA,NA,NA,NA,NA,NA,NA,NA,true
GK3VOSQB,385mdvingfsu7ikqnsjzxyjp4abjww,3glb5jmzf18nuusspty8xhyforvdg6,GK3VOSQB,2020-0188,2020-05-08,10:24:00,10:39:28,NA,incomplete,34,number,1,left,Red_Circle_Chess_1.jpg,Purple_Triangle_Stripes_1.jpg,Blue_Plus_Chess_3.jpg,left,655.9649999253452,true,NA,NA,NA,NA,NA,NA,NA,NA,true
GK3VOSQB,385mdvingfsu7ikqnsjzxyjp4abjww,3glb5jmzf18nuusspty8xhyforvdg6,GK3VOSQB,2020-0188,2020-05-08,10:24:00,10:39:28,NA,incomplete,35,number,1,right,Purple_Star_Chess_1.jpg,Green_Circle_Chess_2.jpg,Blue_Triangle_Stripes_1.jpg,right,627.2150001022965,true,NA,NA,NA,NA,NA,NA,NA,NA,true
GK3VOSQB,385mdvingfsu7ikqnsjzxyjp4abjww,3glb5jmzf18nuusspty8xhyforvdg6,GK3VOSQB,2020-0188,2020-05-08,10:24:00,10:39:28,NA,incomplete,36,number,1,left,Blue_Plus_Stripes_3.jpg,Green_Star_Dots_3.jpg,Red_Triangle_Stripes_4.jpg,left,670.1200001407415,true,NA,NA,NA,NA,NA,NA,NA,NA,true
GK3VOSQB,385mdvingfsu7ikqnsjzxyjp4abjww,3glb5jmzf18nuusspty8xhyforvdg6,GK3VOSQB,2020-0188,2020-05-08,10:24:00,10:39:28,NA,incomplete,37,number,1,left,Red_Triangle_Stripes_1.jpg,Green_Circle_Dots_1.jpg,Purple_Plus_Stripes_2.jpg,left,636.8899999652058,true,NA,NA,NA,NA,NA,NA,NA,NA,true
GK3VOSQB,385mdvingfsu7ikqnsjzxyjp4abjww,3glb5jmzf18nuusspty8xhyforvdg6,GK3VOSQB,2020-0188,2020-05-08,10:24:00,10:39:28,NA,incomplete,38,number,1,right,Green_Circle_Stripes_2.jpg,Purple_Triangle_Stripes_4.jpg,Red_Star_Chess_2.jpg,right,778.8400000426918,true,NA,NA,NA,NA,NA,NA,NA,NA,true
GK3VOSQB,385mdvingfsu7ikqnsjzxyjp4abjww,3glb5jmzf18nuusspty8xhyforvdg6,GK3VOSQB,2020-0188,2020-05-08,10:24:00,10:39:28,NA,incomplete,39,number,0,left,Blue_Triangle_Dots_3.jpg,Red_Circle_Grid_3.jpg,Green_Star_Dots_1.jpg,left,607.7799999620765,true,NA,NA,NA,NA,NA,NA,NA,NA,true
GK3VOSQB,385mdvingfsu7ikqnsjzxyjp4abjww,3glb5jmzf18nuusspty8xhyforvdg6,GK3VOSQB,2020-0188,2020-05-08,10:24:00,10:39:28,NA,incomplete,0,filling,1,left,Green_Triangle_Grid_3.jpg,Blue_Plus_Grid_4.jpg,Purple_Circle_Dots_3.jpg,right,1649.0400000475347,false,high,NA,NA,NA,NA,NA,NA,NA,false
GK3VOSQB,385mdvingfsu7ikqnsjzxyjp4abjww,3glb5jmzf18nuusspty8xhyforvdg6,GK3VOSQB,2020-0188,2020-05-08,10:24:00,10:39:28,NA,incomplete,1,filling,1,left,Red_Circle_Grid_1.jpg,Blue_Star_Grid_4.jpg,Green_Triangle_Chess_1.jpg,left,861.8149999529123,true,high,NA,NA,NA,NA,NA,NA,NA,false
GK3VOSQB,385mdvingfsu7ikqnsjzxyjp4abjww,3glb5jmzf18nuusspty8xhyforvdg6,GK3VOSQB,2020-0188,2020-05-08,10:24:00,10:39:28,NA,incomplete,2,filling,1,right,Green_Star_Dots_2.jpg,Blue_Plus_Chess_2.jpg,Red_Circle_Dots_1.jpg,right,1036.854999838397,true,high,NA,NA,NA,NA,NA,NA,NA,false
GK3VOSQB,385mdvingfsu7ikqnsjzxyjp4abjww,3glb5jmzf18nuusspty8xhyforvdg6,GK3VOSQB,2020-0188,2020-05-08,10:24:00,10:39:28,NA,incomplete,3,filling,1,left,Blue_Triangle_Stripes_2.jpg,Red_Star_Stripes_4.jpg,Green_Plus_Chess_2.jpg,left,874.9450000468642,true,high,NA,NA,NA,NA,NA,NA,NA,false
GK3VOSQB,385mdvingfsu7ikqnsjzxyjp4abjww,3glb5jmzf18nuusspty8xhyforvdg6,GK3VOSQB,2020-0188,2020-05-08,10:24:00,10:39:28,NA,incomplete,4,filling,1,right,Blue_Star_Stripes_4.jpg,Red_Plus_Dots_4.jpg,Green_Triangle_Stripes_3.jpg,right,1094.6199998725206,true,high,NA,NA,NA,NA,NA,NA,NA,false
GK3VOSQB,385mdvingfsu7ikqnsjzxyjp4abjww,3glb5jmzf18nuusspty8xhyforvdg6,GK3VOSQB,2020-0188,2020-05-08,10:24:00,10:39:28,NA,incomplete,5,filling,1,right,Red_Star_Grid_4.jpg,Blue_Circle_Dots_4.jpg,Purple_Triangle_Grid_3.jpg,right,1038.925000000745,true,high,NA,NA,NA,NA,NA,NA,NA,false
GK3VOSQB,385mdvingfsu7ikqnsjzxyjp4abjww,3glb5jmzf18nuusspty8xhyforvdg6,GK3VOSQB,2020-0188,2020-05-08,10:24:00,10:39:28,NA,incomplete,6,filling,1,right,Blue_Circle_Dots_1.jpg,Red_Star_Stripes_1.jpg,Green_Plus_Dots_2.jpg,left,672.2800000570714,false,high,NA,NA,NA,NA,NA,NA,NA,false
GK3VOSQB,385mdvingfsu7ikqnsjzxyjp4abjww,3glb5jmzf18nuusspty8xhyforvdg6,GK3VOSQB,2020-0188,2020-05-08,10:24:00,10:39:28,NA,incomplete,7,filling,0,left,Red_Star_Chess_1.jpg,Blue_Plus_Chess_3.jpg,Green_Triangle_Stripes_1.jpg,left,951.0249998420477,true,high,NA,NA,NA,NA,NA,NA,NA,false
GK3VOSQB,385mdvingfsu7ikqnsjzxyjp4abjww,3glb5jmzf18nuusspty8xhyforvdg6,GK3VOSQB,2020-0188,2020-05-08,10:24:00,10:39:28,NA,incomplete,8,filling,1,left,Purple_Circle_Stripes_3.jpg,Green_Plus_Stripes_1.jpg,Red_Triangle_Chess_3.jpg,left,833.1299999263138,true,high,NA,NA,NA,NA,NA,NA,NA,false
GK3VOSQB,385mdvingfsu7ikqnsjzxyjp4abjww,3glb5jmzf18nuusspty8xhyforvdg6,GK3VOSQB,2020-0188,2020-05-08,10:24:00,10:39:28,NA,incomplete,9,filling,1,left,Blue_Triangle_Chess_1.jpg,Green_Plus_Chess_3.jpg,Red_Circle_Grid_1.jpg,left,889.2699999269098,true,high,NA,NA,NA,NA,NA,NA,NA,false
GK3VOSQB,385mdvingfsu7ikqnsjzxyjp4abjww,3glb5jmzf18nuusspty8xhyforvdg6,GK3VOSQB,2020-0188,2020-05-08,10:24:00,10:39:28,NA,incomplete,10,number,0,left,Green_Triangle_Dots_4.jpg,Blue_Plus_Grid_4.jpg,Purple_Star_Dots_2.jpg,right,981.0000001452863,false,high,NA,NA,NA,NA,NA,NA,NA,false
GK3VOSQB,385mdvingfsu7ikqnsjzxyjp4abjww,3glb5jmzf18nuusspty8xhyforvdg6,GK3VOSQB,2020-0188,2020-05-08,10:24:00,10:39:28,NA,incomplete,11,number,1,left,Red_Star_Dots_1.jpg,Green_Circle_Stripes_1.jpg,Blue_Plus_Dots_2.jpg,right,795.3000001143664,false,high,NA,NA,NA,NA,NA,NA,NA,false
GK3VOSQB,385mdvingfsu7ikqnsjzxyjp4abjww,3glb5jmzf18nuusspty8xhyforvdg6,GK3VOSQB,2020-0188,2020-05-08,10:24:00,10:39:28,NA,incomplete,12,number,1,left,Blue_Plus_Grid_2.jpg,Green_Star_Stripes_2.jpg,Red_Triangle_Grid_3.jpg,right,953.5899998154491,false,high,NA,NA,NA,NA,NA,NA,NA,false
GK3VOSQB,385mdvingfsu7ikqnsjzxyjp4abjww,3glb5jmzf18nuusspty8xhyforvdg6,GK3VOSQB,2020-0188,2020-05-08,10:24:00,10:39:28,NA,incomplete,13,number,1,left,Purple_Circle_Grid_3.jpg,Red_Triangle_Chess_3.jpg,Green_Star_Grid_1.jpg,left,748.714999994263,true,high,NA,NA,NA,NA,NA,NA,NA,false
GK3VOSQB,385mdvingfsu7ikqnsjzxyjp4abjww,3glb5jmzf18nuusspty8xhyforvdg6,GK3VOSQB,2020-0188,2020-05-08,10:24:00,10:39:28,NA,incomplete,14,number,1,left,Red_Star_Dots_1.jpg,Purple_Circle_Stripes_1.jpg,Blue_Triangle_Dots_2.jpg,left,651.9700000062585,true,high,NA,NA,NA,NA,NA,NA,NA,false
GK3VOSQB,385mdvingfsu7ikqnsjzxyjp4abjww,3glb5jmzf18nuusspty8xhyforvdg6,GK3VOSQB,2020-0188,2020-05-08,10:24:00,10:39:28,NA,incomplete,15,number,1,right,Green_Circle_Stripes_4.jpg,Red_Star_Stripes_1.jpg,Blue_Triangle_Chess_4.jpg,right,642.8949998226017,true,high,NA,NA,NA,NA,NA,NA,NA,false
GK3VOSQB,385mdvingfsu7ikqnsjzxyjp4abjww,3glb5jmzf18nuusspty8xhyforvdg6,GK3VOSQB,2020-0188,2020-05-08,10:24:00,10:39:28,NA,incomplete,16,number,0,right,Blue_Star_Chess_4.jpg,Purple_Triangle_Chess_1.jpg,Red_Circle_Stripes_4.jpg,right,661.1299999058247,true,high,NA,NA,NA,NA,NA,NA,NA,false
GK3VOSQB,385mdvingfsu7ikqnsjzxyjp4abjww,3glb5jmzf18nuusspty8xhyforvdg6,GK3VOSQB,2020-0188,2020-05-08,10:24:00,10:39:28,NA,incomplete,17,number,0,left,Green_Star_Stripes_3.jpg,Purple_Circle_Grid_3.jpg,Red_Plus_Stripes_2.jpg,left,664.8699999786913,true,high,NA,NA,NA,NA,NA,NA,NA,false
GK3VOSQB,385mdvingfsu7ikqnsjzxyjp4abjww,3glb5jmzf18nuusspty8xhyforvdg6,GK3VOSQB,2020-0188,2020-05-08,10:24:00,10:39:28,NA,incomplete,18,number,1,left,Blue_Triangle_Grid_3.jpg,Red_Plus_Dots_3.jpg,Purple_Star_Grid_2.jpg,right,1547.980000032112,false,high,NA,NA,NA,NA,NA,NA,NA,false
GK3VOSQB,385mdvingfsu7ikqnsjzxyjp4abjww,3glb5jmzf18nuusspty8xhyforvdg6,GK3VOSQB,2020-0188,2020-05-08,10:24:00,10:39:28,NA,incomplete,19,number,1,right,Green_Triangle_Grid_4.jpg,Red_Star_Grid_2.jpg,Blue_Plus_Chess_4.jpg,right,784.8150001373142,true,high,NA,NA,NA,NA,NA,NA,NA,false
GK3VOSQB,385mdvingfsu7ikqnsjzxyjp4abjww,3glb5jmzf18nuusspty8xhyforvdg6,GK3VOSQB,2020-0188,2020-05-08,10:24:00,10:39:28,NA,incomplete,20,filling,1,left,Green_Plus_Stripes_4.jpg,Blue_Circle_Stripes_3.jpg,Purple_Star_Chess_4.jpg,right,908.3699998445809,false,high,NA,NA,NA,NA,NA,NA,NA,false
GK3VOSQB,385mdvingfsu7ikqnsjzxyjp4abjww,3glb5jmzf18nuusspty8xhyforvdg6,GK3VOSQB,2020-0188,2020-05-08,10:24:00,10:39:28,NA,incomplete,21,filling,1,right,Blue_Plus_Chess_1.jpg,Green_Circle_Dots_1.jpg,Red_Star_Chess_4.jpg,right,917.9950000252575,true,high,NA,NA,NA,NA,NA,NA,NA,false
GK3VOSQB,385mdvingfsu7ikqnsjzxyjp4abjww,3glb5jmzf18nuusspty8xhyforvdg6,GK3VOSQB,2020-0188,2020-05-08,10:24:00,10:39:28,NA,incomplete,22,filling,1,right,Blue_Star_Stripes_4.jpg,Red_Circle_Chess_4.jpg,Purple_Plus_Stripes_3.jpg,right,1528.9399998728186,true,high,NA,NA,NA,NA,NA,NA,NA,false
GK3VOSQB,385mdvingfsu7ikqnsjzxyjp4abjww,3glb5jmzf18nuusspty8xhyforvdg6,GK3VOSQB,2020-0188,2020-05-08,10:24:00,10:39:28,NA,incomplete,23,filling,1,right,Blue_Circle_Stripes_2.jpg,Red_Triangle_Dots_2.jpg,Green_Star_Stripes_3.jpg,right,1095.2250000555068,true,high,NA,NA,NA,NA,NA,NA,NA,false
GK3VOSQB,385mdvingfsu7ikqnsjzxyjp4abjww,3glb5jmzf18nuusspty8xhyforvdg6,GK3VOSQB,2020-0188,2020-05-08,10:24:00,10:39:28,NA,incomplete,24,filling,1,right,Red_Triangle_Chess_1.jpg,Purple_Star_Dots_1.jpg,Green_Plus_Chess_4.jpg,right,861.7100000847131,true,high,NA,NA,NA,NA,NA,NA,NA,false
GK3VOSQB,385mdvingfsu7ikqnsjzxyjp4abjww,3glb5jmzf18nuusspty8xhyforvdg6,GK3VOSQB,2020-0188,2020-05-08,10:24:00,10:39:28,NA,incomplete,25,filling,0,left,Red_Triangle_Chess_4.jpg,Purple_Star_Chess_1.jpg,Green_Plus_Dots_4.jpg,left,1010.5850000400096,true,high,NA,NA,NA,NA,NA,NA,NA,false
GK3VOSQB,385mdvingfsu7ikqnsjzxyjp4abjww,3glb5jmzf18nuusspty8xhyforvdg6,GK3VOSQB,2020-0188,2020-05-08,10:24:00,10:39:28,NA,incomplete,26,filling,1,left,Blue_Star_Chess_1.jpg,Green_Plus_Chess_2.jpg,Red_Circle_Dots_1.jpg,left,808.5749999154359,true,high,NA,NA,NA,NA,NA,NA,NA,false
GK3VOSQB,385mdvingfsu7ikqnsjzxyjp4abjww,3glb5jmzf18nuusspty8xhyforvdg6,GK3VOSQB,2020-0188,2020-05-08,10:24:00,10:39:28,NA,incomplete,27,filling,1,right,Green_Circle_Stripes_2.jpg,Red_Plus_Chess_2.jpg,Purple_Triangle_Stripes_3.jpg,right,694.6199999656528,true,high,NA,NA,NA,NA,NA,NA,NA,false
GK3VOSQB,385mdvingfsu7ikqnsjzxyjp4abjww,3glb5jmzf18nuusspty8xhyforvdg6,GK3VOSQB,2020-0188,2020-05-08,10:24:00,10:39:28,NA,incomplete,28,filling,1,right,Red_Plus_Stripes_1.jpg,Green_Triangle_Dots_1.jpg,Purple_Circle_Stripes_4.jpg,right,1097.3350000567734,true,high,NA,NA,NA,NA,NA,NA,NA,false
GK3VOSQB,385mdvingfsu7ikqnsjzxyjp4abjww,3glb5jmzf18nuusspty8xhyforvdg6,GK3VOSQB,2020-0188,2020-05-08,10:24:00,10:39:28,NA,incomplete,29,filling,1,right,Purple_Plus_Dots_1.jpg,Green_Star_Stripes_1.jpg,Red_Triangle_Dots_4.jpg,right,972.5450000260025,true,high,NA,NA,NA,NA,NA,NA,NA,false
GK3VOSQB,385mdvingfsu7ikqnsjzxyjp4abjww,3glb5jmzf18nuusspty8xhyforvdg6,GK3VOSQB,2020-0188,2020-05-08,10:24:00,10:39:28,NA,incomplete,30,number,0,left,Purple_Star_Chess_2.jpg,Blue_Plus_Stripes_2.jpg,Green_Circle_Chess_4.jpg,right,923.3449997846037,false,high,NA,NA,NA,NA,NA,NA,NA,false
GK3VOSQB,385mdvingfsu7ikqnsjzxyjp4abjww,3glb5jmzf18nuusspty8xhyforvdg6,GK3VOSQB,2020-0188,2020-05-08,10:24:00,10:39:28,NA,incomplete,31,number,0,right,Purple_Triangle_Dots_2.jpg,Blue_Star_Dots_1.jpg,Red_Circle_Stripes_2.jpg,left,820.9949999582022,false,high,NA,NA,NA,NA,NA,NA,NA,false
GK3VOSQB,385mdvingfsu7ikqnsjzxyjp4abjww,3glb5jmzf18nuusspty8xhyforvdg6,GK3VOSQB,2020-0188,2020-05-08,10:24:00,10:39:28,NA,incomplete,32,number,1,right,Red_Plus_Chess_2.jpg,Green_Star_Chess_4.jpg,Blue_Triangle_Grid_2.jpg,left,833.7100001517683,false,high,NA,NA,NA,NA,NA,NA,NA,false
GK3VOSQB,385mdvingfsu7ikqnsjzxyjp4abjww,3glb5jmzf18nuusspty8xhyforvdg6,GK3VOSQB,2020-0188,2020-05-08,10:24:00,10:39:28,NA,incomplete,33,number,1,left,Purple_Triangle_Chess_2.jpg,Red_Star_Grid_2.jpg,Blue_Plus_Chess_3.jpg,right,1211.3449999596924,false,high,NA,NA,NA,NA,NA,NA,NA,false
GK3VOSQB,385mdvingfsu7ikqnsjzxyjp4abjww,3glb5jmzf18nuusspty8xhyforvdg6,GK3VOSQB,2020-0188,2020-05-08,10:24:00,10:39:28,NA,incomplete,34,number,0,left,Red_Circle_Stripes_2.jpg,Blue_Star_Chess_2.jpg,Purple_Triangle_Stripes_3.jpg,left,1446.449999930337,true,high,NA,NA,NA,NA,NA,NA,NA,false
GK3VOSQB,385mdvingfsu7ikqnsjzxyjp4abjww,3glb5jmzf18nuusspty8xhyforvdg6,GK3VOSQB,2020-0188,2020-05-08,10:24:00,10:39:28,NA,incomplete,35,number,1,left,Green_Plus_Chess_2.jpg,Purple_Star_Stripes_2.jpg,Red_Circle_Chess_1.jpg,left,796.0299998521805,true,high,NA,NA,NA,NA,NA,NA,NA,false
GK3VOSQB,385mdvingfsu7ikqnsjzxyjp4abjww,3glb5jmzf18nuusspty8xhyforvdg6,GK3VOSQB,2020-0188,2020-05-08,10:24:00,10:39:28,NA,incomplete,36,number,1,right,Green_Star_Dots_1.jpg,Red_Circle_Dots_4.jpg,Purple_Triangle_Grid_1.jpg,right,669.3850001320243,true,high,NA,NA,NA,NA,NA,NA,NA,false
GK3VOSQB,385mdvingfsu7ikqnsjzxyjp4abjww,3glb5jmzf18nuusspty8xhyforvdg6,GK3VOSQB,2020-0188,2020-05-08,10:24:00,10:39:28,NA,incomplete,37,number,1,left,Red_Plus_Stripes_2.jpg,Blue_Circle_Dots_2.jpg,Purple_Triangle_Stripes_4.jpg,left,1209.9850000813603,true,high,NA,NA,NA,NA,NA,NA,NA,false
GK3VOSQB,385mdvingfsu7ikqnsjzxyjp4abjww,3glb5jmzf18nuusspty8xhyforvdg6,GK3VOSQB,2020-0188,2020-05-08,10:24:00,10:39:28,NA,incomplete,38,number,1,left,Blue_Plus_Chess_1.jpg,Purple_Circle_Stripes_1.jpg,Red_Star_Chess_2.jpg,left,652.2300001233816,true,high,NA,NA,NA,NA,NA,NA,NA,false
GK3VOSQB,385mdvingfsu7ikqnsjzxyjp4abjww,3glb5jmzf18nuusspty8xhyforvdg6,GK3VOSQB,2020-0188,2020-05-08,10:24:00,10:39:28,NA,incomplete,39,number,1,right,Blue_Plus_Stripes_4.jpg,Purple_Star_Stripes_3.jpg,Green_Triangle_Chess_4.jpg,right,789.6450001280755,true,high,NA,NA,NA,NA,NA,NA,NA,false
GK3VOSQB,385mdvingfsu7ikqnsjzxyjp4abjww,3glb5jmzf18nuusspty8xhyforvdg6,GK3VOSQB,2020-0188,2020-05-08,10:24:00,10:39:28,NA,incomplete,40,filling,1,right,Purple_Circle_Stripes_3.jpg,Blue_Plus_Chess_3.jpg,Green_Star_Stripes_2.jpg,left,804.0749998763204,false,high,NA,NA,NA,NA,NA,NA,NA,false
GK3VOSQB,385mdvingfsu7ikqnsjzxyjp4abjww,3glb5jmzf18nuusspty8xhyforvdg6,GK3VOSQB,2020-0188,2020-05-08,10:24:00,10:39:28,NA,incomplete,41,filling,1,right,Green_Plus_Chess_2.jpg,Blue_Star_Grid_2.jpg,Purple_Circle_Chess_3.jpg,left,677.9500001575798,false,high,NA,NA,NA,NA,NA,NA,NA,false
GK3VOSQB,385mdvingfsu7ikqnsjzxyjp4abjww,3glb5jmzf18nuusspty8xhyforvdg6,GK3VOSQB,2020-0188,2020-05-08,10:24:00,10:39:28,NA,incomplete,42,filling,1,right,Green_Star_Chess_3.jpg,Red_Plus_Stripes_3.jpg,Purple_Circle_Chess_4.jpg,right,1083.4850000683218,true,high,NA,NA,NA,NA,NA,NA,NA,false
GK3VOSQB,385mdvingfsu7ikqnsjzxyjp4abjww,3glb5jmzf18nuusspty8xhyforvdg6,GK3VOSQB,2020-0188,2020-05-08,10:24:00,10:39:28,NA,incomplete,43,filling,1,left,Red_Plus_Stripes_4.jpg,Green_Triangle_Stripes_1.jpg,Blue_Circle_Grid_4.jpg,none,0,false,high,NA,NA,NA,NA,NA,NA,NA,false
GK3VOSQB,385mdvingfsu7ikqnsjzxyjp4abjww,3glb5jmzf18nuusspty8xhyforvdg6,GK3VOSQB,2020-0188,2020-05-08,10:24:00,10:39:28,NA,incomplete,44,filling,0,left,Red_Triangle_Dots_3.jpg,Purple_Plus_Dots_4.jpg,Green_Star_Stripes_3.jpg,left,1173.0900001712143,true,high,NA,NA,NA,NA,NA,NA,NA,false
GK3VOSQB,385mdvingfsu7ikqnsjzxyjp4abjww,3glb5jmzf18nuusspty8xhyforvdg6,GK3VOSQB,2020-0188,2020-05-08,10:24:00,10:39:28,NA,incomplete,45,filling,1,left,Red_Triangle_Grid_2.jpg,Blue_Circle_Grid_4.jpg,Green_Star_Chess_2.jpg,right,706.1700001358986,false,high,NA,NA,NA,NA,NA,NA,NA,false
GK3VOSQB,385mdvingfsu7ikqnsjzxyjp4abjww,3glb5jmzf18nuusspty8xhyforvdg6,GK3VOSQB,2020-0188,2020-05-08,10:24:00,10:39:28,NA,incomplete,46,filling,1,left,Blue_Triangle_Dots_2.jpg,Purple_Star_Dots_3.jpg,Green_Circle_Chess_2.jpg,right,944.4099999964237,false,high,NA,NA,NA,NA,NA,NA,NA,false
GK3VOSQB,385mdvingfsu7ikqnsjzxyjp4abjww,3glb5jmzf18nuusspty8xhyforvdg6,GK3VOSQB,2020-0188,2020-05-08,10:24:00,10:39:28,NA,incomplete,47,filling,1,left,Red_Circle_Dots_3.jpg,Green_Triangle_Dots_1.jpg,Purple_Star_Stripes_3.jpg,left,1117.3849999904633,true,high,NA,NA,NA,NA,NA,NA,NA,false
GK3VOSQB,385mdvingfsu7ikqnsjzxyjp4abjww,3glb5jmzf18nuusspty8xhyforvdg6,GK3VOSQB,2020-0188,2020-05-08,10:24:00,10:39:28,NA,incomplete,48,filling,0,left,Purple_Plus_Chess_2.jpg,Blue_Triangle_Chess_4.jpg,Red_Star_Stripes_2.jpg,right,849.3399999570101,false,high,NA,NA,NA,NA,NA,NA,NA,false
GK3VOSQB,385mdvingfsu7ikqnsjzxyjp4abjww,3glb5jmzf18nuusspty8xhyforvdg6,GK3VOSQB,2020-0188,2020-05-08,10:24:00,10:39:28,NA,incomplete,49,filling,1,left,Purple_Plus_Dots_3.jpg,Blue_Star_Dots_2.jpg,Red_Circle_Grid_3.jpg,right,1463.0849999375641,false,high,NA,NA,NA,NA,NA,NA,NA,false
GK3VOSQB,385mdvingfsu7ikqnsjzxyjp4abjww,3glb5jmzf18nuusspty8xhyforvdg6,GK3VOSQB,2020-0188,2020-05-08,10:24:00,10:39:28,NA,incomplete,50,number,1,right,Red_Circle_Grid_1.jpg,Green_Star_Grid_3.jpg,Purple_Triangle_Dots_1.jpg,left,954.6400001272559,false,high,NA,NA,NA,NA,NA,NA,NA,false
GK3VOSQB,385mdvingfsu7ikqnsjzxyjp4abjww,3glb5jmzf18nuusspty8xhyforvdg6,GK3VOSQB,2020-0188,2020-05-08,10:24:00,10:39:28,NA,incomplete,51,number,1,right,Blue_Plus_Stripes_1.jpg,Purple_Triangle_Stripes_4.jpg,Red_Star_Grid_1.jpg,right,591.139999916777,true,high,NA,NA,NA,NA,NA,NA,NA,false
GK3VOSQB,385mdvingfsu7ikqnsjzxyjp4abjww,3glb5jmzf18nuusspty8xhyforvdg6,GK3VOSQB,2020-0188,2020-05-08,10:24:00,10:39:28,NA,incomplete,52,number,1,left,Purple_Triangle_Chess_4.jpg,Red_Plus_Grid_4.jpg,Blue_Circle_Chess_1.jpg,left,630.2300000097603,true,high,NA,NA,NA,NA,NA,NA,NA,false
GK3VOSQB,385mdvingfsu7ikqnsjzxyjp4abjww,3glb5jmzf18nuusspty8xhyforvdg6,GK3VOSQB,2020-0188,2020-05-08,10:24:00,10:39:28,NA,incomplete,53,number,1,right,Blue_Circle_Stripes_2.jpg,Green_Plus_Stripes_1.jpg,Purple_Triangle_Grid_2.jpg,right,664.6450001280755,true,high,NA,NA,NA,NA,NA,NA,NA,false
GK3VOSQB,385mdvingfsu7ikqnsjzxyjp4abjww,3glb5jmzf18nuusspty8xhyforvdg6,GK3VOSQB,2020-0188,2020-05-08,10:24:00,10:39:28,NA,incomplete,54,number,1,right,Purple_Circle_Dots_4.jpg,Green_Triangle_Dots_2.jpg,Blue_Star_Stripes_4.jpg,right,648.1249998323619,true,high,NA,NA,NA,NA,NA,NA,NA,false
GK3VOSQB,385mdvingfsu7ikqnsjzxyjp4abjww,3glb5jmzf18nuusspty8xhyforvdg6,GK3VOSQB,2020-0188,2020-05-08,10:24:00,10:39:28,NA,incomplete,55,number,1,left,Green_Triangle_Grid_1.jpg,Purple_Circle_Chess_1.jpg,Red_Star_Grid_4.jpg,left,615.4799999203533,true,high,NA,NA,NA,NA,NA,NA,NA,false
GK3VOSQB,385mdvingfsu7ikqnsjzxyjp4abjww,3glb5jmzf18nuusspty8xhyforvdg6,GK3VOSQB,2020-0188,2020-05-08,10:24:00,10:39:28,NA,incomplete,56,number,1,right,Purple_Plus_Dots_4.jpg,Red_Circle_Dots_3.jpg,Green_Triangle_Stripes_4.jpg,right,753.7299999967217,true,high,NA,NA,NA,NA,NA,NA,NA,false
GK3VOSQB,385mdvingfsu7ikqnsjzxyjp4abjww,3glb5jmzf18nuusspty8xhyforvdg6,GK3VOSQB,2020-0188,2020-05-08,10:24:00,10:39:28,NA,incomplete,57,number,1,right,Blue_Plus_Chess_2.jpg,Green_Triangle_Chess_4.jpg,Red_Circle_Stripes_2.jpg,right,597.28500014171,true,high,NA,NA,NA,NA,NA,NA,NA,false
GK3VOSQB,385mdvingfsu7ikqnsjzxyjp4abjww,3glb5jmzf18nuusspty8xhyforvdg6,GK3VOSQB,2020-0188,2020-05-08,10:24:00,10:39:28,NA,incomplete,58,number,1,left,Red_Circle_Dots_3.jpg,Blue_Star_Grid_3.jpg,Purple_Triangle_Dots_2.jpg,left,616.9449998997152,true,high,NA,NA,NA,NA,NA,NA,NA,false
GK3VOSQB,385mdvingfsu7ikqnsjzxyjp4abjww,3glb5jmzf18nuusspty8xhyforvdg6,GK3VOSQB,2020-0188,2020-05-08,10:24:00,10:39:28,NA,incomplete,59,number,1,right,Blue_Circle_Dots_4.jpg,Green_Plus_Dots_1.jpg,Red_Star_Stripes_4.jpg,right,567.7300000097603,true,high,NA,NA,NA,NA,NA,NA,NA,false
GK3VOSQB,385mdvingfsu7ikqnsjzxyjp4abjww,3glb5jmzf18nuusspty8xhyforvdg6,GK3VOSQB,2020-0188,2020-05-08,10:24:00,10:39:28,NA,incomplete,60,filling,0,right,Blue_Circle_Dots_3.jpg,Green_Star_Stripes_3.jpg,Red_Triangle_Dots_4.jpg,left,701.0649999137968,false,high,NA,NA,NA,NA,NA,NA,NA,false
GK3VOSQB,385mdvingfsu7ikqnsjzxyjp4abjww,3glb5jmzf18nuusspty8xhyforvdg6,GK3VOSQB,2020-0188,2020-05-08,10:24:00,10:39:28,NA,incomplete,61,filling,1,right,Red_Triangle_Grid_4.jpg,Purple_Circle_Dots_4.jpg,Green_Star_Grid_2.jpg,left,754.2149999644607,false,high,NA,NA,NA,NA,NA,NA,NA,false
GK3VOSQB,385mdvingfsu7ikqnsjzxyjp4abjww,3glb5jmzf18nuusspty8xhyforvdg6,GK3VOSQB,2020-0188,2020-05-08,10:24:00,10:39:28,NA,incomplete,62,filling,1,right,Blue_Circle_Dots_3.jpg,Purple_Triangle_Chess_3.jpg,Red_Star_Dots_1.jpg,left,1049.424999859184,false,high,NA,NA,NA,NA,NA,NA,NA,false
GK3VOSQB,385mdvingfsu7ikqnsjzxyjp4abjww,3glb5jmzf18nuusspty8xhyforvdg6,GK3VOSQB,2020-0188,2020-05-08,10:24:00,10:39:28,NA,incomplete,63,filling,1,right,Blue_Triangle_Dots_1.jpg,Red_Star_Chess_1.jpg,Green_Circle_Dots_2.jpg,right,890.0099999736995,true,high,NA,NA,NA,NA,NA,NA,NA,false
GK3VOSQB,385mdvingfsu7ikqnsjzxyjp4abjww,3glb5jmzf18nuusspty8xhyforvdg6,GK3VOSQB,2020-0188,2020-05-08,10:24:00,10:39:28,NA,incomplete,64,filling,1,left,Red_Triangle_Chess_2.jpg,Green_Circle_Chess_1.jpg,Purple_Plus_Grid_2.jpg,left,1000.0599999912083,true,high,NA,NA,NA,NA,NA,NA,NA,false
GK3VOSQB,385mdvingfsu7ikqnsjzxyjp4abjww,3glb5jmzf18nuusspty8xhyforvdg6,GK3VOSQB,2020-0188,2020-05-08,10:24:00,10:39:28,NA,incomplete,65,filling,1,right,Red_Star_Dots_4.jpg,Blue_Plus_Stripes_4.jpg,Green_Triangle_Dots_3.jpg,right,939.7300002165139,true,high,NA,NA,NA,NA,NA,NA,NA,false
GK3VOSQB,385mdvingfsu7ikqnsjzxyjp4abjww,3glb5jmzf18nuusspty8xhyforvdg6,GK3VOSQB,2020-0188,2020-05-08,10:24:00,10:39:28,NA,incomplete,66,filling,1,right,Purple_Star_Dots_4.jpg,Red_Circle_Stripes_4.jpg,Blue_Plus_Dots_2.jpg,right,1033.5849998518825,true,high,NA,NA,NA,NA,NA,NA,NA,false
GK3VOSQB,385mdvingfsu7ikqnsjzxyjp4abjww,3glb5jmzf18nuusspty8xhyforvdg6,GK3VOSQB,2020-0188,2020-05-08,10:24:00,10:39:28,NA,incomplete,67,filling,1,right,Red_Plus_Stripes_3.jpg,Green_Circle_Grid_3.jpg,Purple_Star_Stripes_2.jpg,left,776.5449997968972,false,high,NA,NA,NA,NA,NA,NA,NA,false
GK3VOSQB,385mdvingfsu7ikqnsjzxyjp4abjww,3glb5jmzf18nuusspty8xhyforvdg6,GK3VOSQB,2020-0188,2020-05-08,10:24:00,10:39:28,NA,incomplete,68,filling,1,right,Blue_Triangle_Grid_1.jpg,Purple_Plus_Chess_1.jpg,Green_Circle_Grid_2.jpg,right,1228.1349999830127,true,high,NA,NA,NA,NA,NA,NA,NA,false
GK3VOSQB,385mdvingfsu7ikqnsjzxyjp4abjww,3glb5jmzf18nuusspty8xhyforvdg6,GK3VOSQB,2020-0188,2020-05-08,10:24:00,10:39:28,NA,incomplete,69,filling,1,right,Green_Star_Stripes_3.jpg,Purple_Circle_Chess_3.jpg,Blue_Plus_Stripes_2.jpg,right,896.7599999159575,true,high,NA,NA,NA,NA,NA,NA,NA,false
GK3VOSQB,385mdvingfsu7ikqnsjzxyjp4abjww,3glb5jmzf18nuusspty8xhyforvdg6,GK3VOSQB,2020-0188,2020-05-08,10:24:00,10:39:28,NA,incomplete,70,number,0,right,Purple_Star_Dots_1.jpg,Green_Circle_Dots_4.jpg,Blue_Plus_Stripes_1.jpg,left,1006.9550001062453,false,high,NA,NA,NA,NA,NA,NA,NA,false
GK3VOSQB,385mdvingfsu7ikqnsjzxyjp4abjww,3glb5jmzf18nuusspty8xhyforvdg6,GK3VOSQB,2020-0188,2020-05-08,10:24:00,10:39:28,NA,incomplete,71,number,1,right,Blue_Circle_Stripes_3.jpg,Purple_Star_Stripes_2.jpg,Green_Plus_Dots_3.jpg,left,1057.3899999726564,false,high,NA,NA,NA,NA,NA,NA,NA,false
GK3VOSQB,385mdvingfsu7ikqnsjzxyjp4abjww,3glb5jmzf18nuusspty8xhyforvdg6,GK3VOSQB,2020-0188,2020-05-08,10:24:00,10:39:28,NA,incomplete,72,number,1,right,Red_Star_Stripes_3.jpg,Purple_Circle_Stripes_2.jpg,Blue_Plus_Grid_3.jpg,right,773.930000141263,true,high,NA,NA,NA,NA,NA,NA,NA,false
GK3VOSQB,385mdvingfsu7ikqnsjzxyjp4abjww,3glb5jmzf18nuusspty8xhyforvdg6,GK3VOSQB,2020-0188,2020-05-08,10:24:00,10:39:28,NA,incomplete,73,number,1,left,Blue_Triangle_Grid_2.jpg,Green_Plus_Dots_2.jpg,Red_Star_Grid_4.jpg,left,1186.5050001069903,true,high,NA,NA,NA,NA,NA,NA,NA,false
GK3VOSQB,385mdvingfsu7ikqnsjzxyjp4abjww,3glb5jmzf18nuusspty8xhyforvdg6,GK3VOSQB,2020-0188,2020-05-08,10:24:00,10:39:28,NA,incomplete,74,number,1,left,Purple_Star_Chess_2.jpg,Green_Circle_Grid_2.jpg,Blue_Plus_Chess_1.jpg,left,1179.4300000183284,true,high,NA,NA,NA,NA,NA,NA,NA,false
GK3VOSQB,385mdvingfsu7ikqnsjzxyjp4abjww,3glb5jmzf18nuusspty8xhyforvdg6,GK3VOSQB,2020-0188,2020-05-08,10:24:00,10:39:28,NA,incomplete,75,number,1,right,Blue_Triangle_Grid_1.jpg,Red_Circle_Grid_3.jpg,Green_Plus_Dots_1.jpg,right,667.4900001380593,true,high,NA,NA,NA,NA,NA,NA,NA,false
GK3VOSQB,385mdvingfsu7ikqnsjzxyjp4abjww,3glb5jmzf18nuusspty8xhyforvdg6,GK3VOSQB,2020-0188,2020-05-08,10:24:00,10:39:28,NA,incomplete,76,number,1,left,Blue_Plus_Chess_4.jpg,Purple_Circle_Stripes_4.jpg,Green_Triangle_Chess_2.jpg,left,786.955000134185,true,high,NA,NA,NA,NA,NA,NA,NA,false
GK3VOSQB,385mdvingfsu7ikqnsjzxyjp4abjww,3glb5jmzf18nuusspty8xhyforvdg6,GK3VOSQB,2020-0188,2020-05-08,10:24:00,10:39:28,NA,incomplete,77,number,0,left,Purple_Plus_Grid_3.jpg,Green_Circle_Chess_3.jpg,Blue_Triangle_Grid_1.jpg,left,745.8150000311434,true,high,NA,NA,NA,NA,NA,NA,NA,false
GK3VOSQB,385mdvingfsu7ikqnsjzxyjp4abjww,3glb5jmzf18nuusspty8xhyforvdg6,GK3VOSQB,2020-0188,2020-05-08,10:24:00,10:39:28,NA,incomplete,78,number,1,left,Green_Star_Chess_1.jpg,Red_Plus_Grid_1.jpg,Purple_Triangle_Chess_3.jpg,left,825.4300002008677,true,high,NA,NA,NA,NA,NA,NA,NA,false
GK3VOSQB,385mdvingfsu7ikqnsjzxyjp4abjww,3glb5jmzf18nuusspty8xhyforvdg6,GK3VOSQB,2020-0188,2020-05-08,10:24:00,10:39:28,NA,incomplete,79,number,1,right,Purple_Star_Grid_1.jpg,Green_Circle_Grid_2.jpg,Red_Plus_Stripes_1.jpg,right,748.579999897629,true,high,NA,NA,NA,NA,NA,NA,NA,false
GK3VOSQB,385mdvingfsu7ikqnsjzxyjp4abjww,3glb5jmzf18nuusspty8xhyforvdg6,GK3VOSQB,2020-0188,2020-05-08,10:24:00,10:39:28,NA,incomplete,80,filling,1,left,Blue_Circle_Stripes_1.jpg,Red_Plus_Stripes_3.jpg,Green_Triangle_Dots_1.jpg,right,627.6200001593679,false,high,NA,NA,NA,NA,NA,NA,NA,false
GK3VOSQB,385mdvingfsu7ikqnsjzxyjp4abjww,3glb5jmzf18nuusspty8xhyforvdg6,GK3VOSQB,2020-0188,2020-05-08,10:24:00,10:39:28,NA,incomplete,81,filling,0,right,Blue_Plus_Stripes_2.jpg,Purple_Triangle_Chess_2.jpg,Green_Circle_Stripes_3.jpg,left,690.2150001842529,false,high,NA,NA,NA,NA,NA,NA,NA,false
GK3VOSQB,385mdvingfsu7ikqnsjzxyjp4abjww,3glb5jmzf18nuusspty8xhyforvdg6,GK3VOSQB,2020-0188,2020-05-08,10:24:00,10:39:28,NA,incomplete,82,filling,1,left,Purple_Triangle_Grid_4.jpg,Red_Circle_Grid_3.jpg,Blue_Plus_Dots_4.jpg,right,788.0649999715388,false,high,NA,NA,NA,NA,NA,NA,NA,false
GK3VOSQB,385mdvingfsu7ikqnsjzxyjp4abjww,3glb5jmzf18nuusspty8xhyforvdg6,GK3VOSQB,2020-0188,2020-05-08,10:24:00,10:39:28,NA,incomplete,83,filling,1,right,Green_Circle_Dots_4.jpg,Purple_Star_Stripes_4.jpg,Blue_Triangle_Dots_2.jpg,right,991.3200000301003,true,high,NA,NA,NA,NA,NA,NA,NA,false
GK3VOSQB,385mdvingfsu7ikqnsjzxyjp4abjww,3glb5jmzf18nuusspty8xhyforvdg6,GK3VOSQB,2020-0188,2020-05-08,10:24:00,10:39:28,NA,incomplete,84,filling,1,right,Green_Triangle_Grid_1.jpg,Red_Plus_Dots_1.jpg,Blue_Star_Grid_2.jpg,right,862.0899999514222,true,high,NA,NA,NA,NA,NA,NA,NA,false
GK3VOSQB,385mdvingfsu7ikqnsjzxyjp4abjww,3glb5jmzf18nuusspty8xhyforvdg6,GK3VOSQB,2020-0188,2020-05-08,10:24:00,10:39:28,NA,incomplete,85,filling,0,left,Red_Plus_Stripes_3.jpg,Green_Circle_Stripes_2.jpg,Blue_Triangle_Dots_3.jpg,right,989.8550000507385,false,high,NA,NA,NA,NA,NA,NA,NA,false
GK3VOSQB,385mdvingfsu7ikqnsjzxyjp4abjww,3glb5jmzf18nuusspty8xhyforvdg6,GK3VOSQB,2020-0188,2020-05-08,10:24:00,10:39:28,NA,incomplete,86,filling,1,left,Purple_Circle_Grid_1.jpg,Red_Plus_Grid_4.jpg,Green_Triangle_Stripes_1.jpg,left,1274.7450000606477,true,high,NA,NA,NA,NA,NA,NA,NA,false
GK3VOSQB,385mdvingfsu7ikqnsjzxyjp4abjww,3glb5jmzf18nuusspty8xhyforvdg6,GK3VOSQB,2020-0188,2020-05-08,10:24:00,10:39:28,NA,incomplete,87,filling,1,right,Purple_Plus_Dots_4.jpg,Green_Star_Grid_4.jpg,Red_Circle_Dots_1.jpg,right,1014.1399998683482,true,high,NA,NA,NA,NA,NA,NA,NA,false
GK3VOSQB,385mdvingfsu7ikqnsjzxyjp4abjww,3glb5jmzf18nuusspty8xhyforvdg6,GK3VOSQB,2020-0188,2020-05-08,10:24:00,10:39:28,NA,incomplete,88,filling,1,left,Green_Star_Dots_1.jpg,Red_Triangle_Dots_2.jpg,Purple_Circle_Stripes_1.jpg,left,1075.3699999768287,true,high,NA,NA,NA,NA,NA,NA,NA,false
GK3VOSQB,385mdvingfsu7ikqnsjzxyjp4abjww,3glb5jmzf18nuusspty8xhyforvdg6,GK3VOSQB,2020-0188,2020-05-08,10:24:00,10:39:28,NA,incomplete,89,filling,0,left,Green_Plus_Stripes_1.jpg,Red_Triangle_Stripes_4.jpg,Purple_Circle_Dots_1.jpg,left,918.3549999725074,true,high,NA,NA,NA,NA,NA,NA,NA,false
GK3VOSQB,385mdvingfsu7ikqnsjzxyjp4abjww,3glb5jmzf18nuusspty8xhyforvdg6,GK3VOSQB,2020-0188,2020-05-08,10:24:00,10:39:28,NA,incomplete,90,number,1,right,Red_Triangle_Chess_4.jpg,Blue_Plus_Chess_2.jpg,Green_Star_Grid_4.jpg,left,1032.5050000101328,false,high,NA,NA,NA,NA,NA,NA,NA,false
GK3VOSQB,385mdvingfsu7ikqnsjzxyjp4abjww,3glb5jmzf18nuusspty8xhyforvdg6,GK3VOSQB,2020-0188,2020-05-08,10:24:00,10:39:28,NA,incomplete,91,number,1,right,Purple_Plus_Dots_3.jpg,Blue_Circle_Dots_1.jpg,Green_Triangle_Grid_3.jpg,left,1236.1250000540167,false,high,NA,NA,NA,NA,NA,NA,NA,false
GK3VOSQB,385mdvingfsu7ikqnsjzxyjp4abjww,3glb5jmzf18nuusspty8xhyforvdg6,GK3VOSQB,2020-0188,2020-05-08,10:24:00,10:39:28,NA,incomplete,92,number,1,right,Purple_Triangle_Grid_2.jpg,Green_Circle_Grid_3.jpg,Blue_Plus_Dots_2.jpg,right,669.1900000441819,true,high,NA,NA,NA,NA,NA,NA,NA,false
GK3VOSQB,385mdvingfsu7ikqnsjzxyjp4abjww,3glb5jmzf18nuusspty8xhyforvdg6,GK3VOSQB,2020-0188,2020-05-08,10:24:00,10:39:28,NA,incomplete,93,number,1,right,Green_Star_Chess_3.jpg,Purple_Plus_Chess_4.jpg,Red_Circle_Stripes_3.jpg,right,1240.5799999833107,true,high,NA,NA,NA,NA,NA,NA,NA,false
GK3VOSQB,385mdvingfsu7ikqnsjzxyjp4abjww,3glb5jmzf18nuusspty8xhyforvdg6,GK3VOSQB,2020-0188,2020-05-08,10:24:00,10:39:28,NA,incomplete,94,number,1,right,Red_Star_Dots_4.jpg,Purple_Triangle_Dots_3.jpg,Green_Circle_Grid_4.jpg,right,644.6449998766184,true,high,NA,NA,NA,NA,NA,NA,NA,false
GK3VOSQB,385mdvingfsu7ikqnsjzxyjp4abjww,3glb5jmzf18nuusspty8xhyforvdg6,GK3VOSQB,2020-0188,2020-05-08,10:24:00,10:39:28,NA,incomplete,95,number,0,left,Blue_Plus_Stripes_1.jpg,Green_Triangle_Chess_1.jpg,Red_Circle_Stripes_4.jpg,left,530.7350000366569,true,high,NA,NA,NA,NA,NA,NA,NA,false
GK3VOSQB,385mdvingfsu7ikqnsjzxyjp4abjww,3glb5jmzf18nuusspty8xhyforvdg6,GK3VOSQB,2020-0188,2020-05-08,10:24:00,10:39:28,NA,incomplete,96,number,1,right,Green_Circle_Chess_3.jpg,Purple_Star_Chess_2.jpg,Red_Triangle_Dots_3.jpg,right,648.5150000080466,true,high,NA,NA,NA,NA,NA,NA,NA,false
GK3VOSQB,385mdvingfsu7ikqnsjzxyjp4abjww,3glb5jmzf18nuusspty8xhyforvdg6,GK3VOSQB,2020-0188,2020-05-08,10:24:00,10:39:28,NA,incomplete,97,number,0,left,Red_Circle_Chess_2.jpg,Purple_Star_Dots_2.jpg,Green_Triangle_Chess_1.jpg,left,699.9399999622256,true,high,NA,NA,NA,NA,NA,NA,NA,false
GK3VOSQB,385mdvingfsu7ikqnsjzxyjp4abjww,3glb5jmzf18nuusspty8xhyforvdg6,GK3VOSQB,2020-0188,2020-05-08,10:24:00,10:39:28,NA,incomplete,98,number,1,left,Green_Plus_Chess_2.jpg,Blue_Circle_Stripes_2.jpg,Red_Triangle_Chess_3.jpg,right,1073.2549999374896,false,high,NA,NA,NA,NA,NA,NA,NA,false
GK3VOSQB,385mdvingfsu7ikqnsjzxyjp4abjww,3glb5jmzf18nuusspty8xhyforvdg6,GK3VOSQB,2020-0188,2020-05-08,10:24:00,10:39:28,NA,incomplete,99,number,1,right,Green_Circle_Dots_1.jpg,Purple_Triangle_Dots_3.jpg,Red_Star_Grid_1.jpg,left,797.3449998535216,false,high,NA,NA,NA,NA,NA,NA,NA,false
GK3VOSQB,385mdvingfsu7ikqnsjzxyjp4abjww,3glb5jmzf18nuusspty8xhyforvdg6,GK3VOSQB,2020-0188,2020-05-08,10:24:00,10:39:28,NA,incomplete,100,filling,1,right,Blue_Triangle_Chess_3.jpg,Purple_Plus_Stripes_3.jpg,Red_Star_Chess_4.jpg,left,703.7449998315424,false,high,NA,NA,NA,NA,NA,NA,NA,false
GK3VOSQB,385mdvingfsu7ikqnsjzxyjp4abjww,3glb5jmzf18nuusspty8xhyforvdg6,GK3VOSQB,2020-0188,2020-05-08,10:24:00,10:39:28,NA,incomplete,101,filling,1,right,Green_Star_Chess_2.jpg,Blue_Circle_Stripes_2.jpg,Red_Triangle_Chess_1.jpg,right,620.3550000209361,true,high,NA,NA,NA,NA,NA,NA,NA,false
GK3VOSQB,385mdvingfsu7ikqnsjzxyjp4abjww,3glb5jmzf18nuusspty8xhyforvdg6,GK3VOSQB,2020-0188,2020-05-08,10:24:00,10:39:28,NA,incomplete,102,filling,1,right,Green_Star_Grid_3.jpg,Purple_Triangle_Stripes_3.jpg,Red_Plus_Grid_1.jpg,right,1787.840000120923,true,high,NA,NA,NA,NA,NA,NA,NA,false
GK3VOSQB,385mdvingfsu7ikqnsjzxyjp4abjww,3glb5jmzf18nuusspty8xhyforvdg6,GK3VOSQB,2020-0188,2020-05-08,10:24:00,10:39:28,NA,incomplete,103,filling,1,left,Blue_Triangle_Stripes_4.jpg,Red_Star_Stripes_2.jpg,Purple_Plus_Grid_4.jpg,left,824.0149999037385,true,high,NA,NA,NA,NA,NA,NA,NA,false
GK3VOSQB,385mdvingfsu7ikqnsjzxyjp4abjww,3glb5jmzf18nuusspty8xhyforvdg6,GK3VOSQB,2020-0188,2020-05-08,10:24:00,10:39:28,NA,incomplete,104,filling,0,right,Blue_Star_Stripes_3.jpg,Red_Plus_Grid_3.jpg,Green_Circle_Stripes_4.jpg,right,1062.540000071749,true,high,NA,NA,NA,NA,NA,NA,NA,false
GK3VOSQB,385mdvingfsu7ikqnsjzxyjp4abjww,3glb5jmzf18nuusspty8xhyforvdg6,GK3VOSQB,2020-0188,2020-05-08,10:24:00,10:39:28,NA,incomplete,105,filling,1,right,Blue_Star_Dots_4.jpg,Green_Triangle_Stripes_4.jpg,Purple_Plus_Dots_1.jpg,right,644.7850000113249,true,high,NA,NA,NA,NA,NA,NA,NA,false
GK3VOSQB,385mdvingfsu7ikqnsjzxyjp4abjww,3glb5jmzf18nuusspty8xhyforvdg6,GK3VOSQB,2020-0188,2020-05-08,10:24:00,10:39:28,NA,incomplete,106,filling,0,right,Purple_Circle_Dots_2.jpg,Blue_Star_Grid_2.jpg,Red_Triangle_Dots_3.jpg,right,641.7900000233203,true,high,NA,NA,NA,NA,NA,NA,NA,false
GK3VOSQB,385mdvingfsu7ikqnsjzxyjp4abjww,3glb5jmzf18nuusspty8xhyforvdg6,GK3VOSQB,2020-0188,2020-05-08,10:24:00,10:39:28,NA,incomplete,107,filling,0,right,Red_Circle_Grid_1.jpg,Purple_Triangle_Chess_1.jpg,Green_Plus_Grid_4.jpg,left,607.9849998932332,false,high,NA,NA,NA,NA,NA,NA,NA,false
GK3VOSQB,385mdvingfsu7ikqnsjzxyjp4abjww,3glb5jmzf18nuusspty8xhyforvdg6,GK3VOSQB,2020-0188,2020-05-08,10:24:00,10:39:28,NA,incomplete,108,filling,1,right,Green_Triangle_Dots_4.jpg,Purple_Plus_Stripes_4.jpg,Blue_Circle_Dots_2.jpg,left,534.0200001373887,false,high,NA,NA,NA,NA,NA,NA,NA,false
GK3VOSQB,385mdvingfsu7ikqnsjzxyjp4abjww,3glb5jmzf18nuusspty8xhyforvdg6,GK3VOSQB,2020-0188,2020-05-08,10:24:00,10:39:28,NA,incomplete,109,filling,0,left,Red_Star_Stripes_3.jpg,Green_Triangle_Stripes_2.jpg,Blue_Plus_Grid_3.jpg,right,623.9149998873472,false,high,NA,NA,NA,NA,NA,NA,NA,false
GK3VOSQB,385mdvingfsu7ikqnsjzxyjp4abjww,3glb5jmzf18nuusspty8xhyforvdg6,GK3VOSQB,2020-0188,2020-05-08,10:24:00,10:39:28,NA,incomplete,110,number,1,left,Green_Triangle_Stripes_3.jpg,Blue_Plus_Dots_3.jpg,Red_Circle_Stripes_4.jpg,left,667.9599999915808,true,high,NA,NA,NA,NA,NA,NA,NA,false
GK3VOSQB,385mdvingfsu7ikqnsjzxyjp4abjww,3glb5jmzf18nuusspty8xhyforvdg6,GK3VOSQB,2020-0188,2020-05-08,10:24:00,10:39:28,NA,incomplete,111,number,0,left,Green_Circle_Stripes_3.jpg,Red_Triangle_Grid_3.jpg,Purple_Star_Stripes_2.jpg,left,496.26500019803643,true,high,NA,NA,NA,NA,NA,NA,NA,false
GK3VOSQB,385mdvingfsu7ikqnsjzxyjp4abjww,3glb5jmzf18nuusspty8xhyforvdg6,GK3VOSQB,2020-0188,2020-05-08,10:24:00,10:39:28,NA,incomplete,112,number,1,right,Purple_Plus_Stripes_2.jpg,Red_Triangle_Stripes_1.jpg,Green_Star_Chess_2.jpg,right,677.885000128299,true,high,NA,NA,NA,NA,NA,NA,NA,false
GK3VOSQB,385mdvingfsu7ikqnsjzxyjp4abjww,3glb5jmzf18nuusspty8xhyforvdg6,GK3VOSQB,2020-0188,2020-05-08,10:24:00,10:39:28,NA,incomplete,113,number,1,left,Blue_Star_Stripes_3.jpg,Red_Plus_Grid_3.jpg,Purple_Triangle_Stripes_4.jpg,left,590.654999949038,true,high,NA,NA,NA,NA,NA,NA,NA,false
GK3VOSQB,385mdvingfsu7ikqnsjzxyjp4abjww,3glb5jmzf18nuusspty8xhyforvdg6,GK3VOSQB,2020-0188,2020-05-08,10:24:00,10:39:28,NA,incomplete,114,number,1,right,Purple_Star_Grid_1.jpg,Blue_Triangle_Grid_4.jpg,Red_Plus_Stripes_1.jpg,right,553.0649998690933,true,high,NA,NA,NA,NA,NA,NA,NA,false
GK3VOSQB,385mdvingfsu7ikqnsjzxyjp4abjww,3glb5jmzf18nuusspty8xhyforvdg6,GK3VOSQB,2020-0188,2020-05-08,10:24:00,10:39:28,NA,incomplete,115,number,1,left,Purple_Star_Stripes_2.jpg,Red_Triangle_Grid_2.jpg,Blue_Circle_Stripes_1.jpg,left,673.2250000350177,true,high,NA,NA,NA,NA,NA,NA,NA,false
GK3VOSQB,385mdvingfsu7ikqnsjzxyjp4abjww,3glb5jmzf18nuusspty8xhyforvdg6,GK3VOSQB,2020-0188,2020-05-08,10:24:00,10:39:28,NA,incomplete,116,number,1,right,Green_Triangle_Stripes_1.jpg,Blue_Star_Stripes_3.jpg,Purple_Circle_Chess_1.jpg,right,672.0000000204891,true,high,NA,NA,NA,NA,NA,NA,NA,false
GK3VOSQB,385mdvingfsu7ikqnsjzxyjp4abjww,3glb5jmzf18nuusspty8xhyforvdg6,GK3VOSQB,2020-0188,2020-05-08,10:24:00,10:39:28,NA,incomplete,117,number,1,left,Green_Star_Stripes_4.jpg,Red_Triangle_Dots_4.jpg,Purple_Circle_Stripes_3.jpg,left,707.7249998692423,true,high,NA,NA,NA,NA,NA,NA,NA,false
GK3VOSQB,385mdvingfsu7ikqnsjzxyjp4abjww,3glb5jmzf18nuusspty8xhyforvdg6,GK3VOSQB,2020-0188,2020-05-08,10:24:00,10:39:28,NA,incomplete,118,number,0,left,Blue_Star_Stripes_4.jpg,Green_Circle_Chess_4.jpg,Red_Triangle_Stripes_2.jpg,left,804.6750000212342,true,high,NA,NA,NA,NA,NA,NA,NA,false
GK3VOSQB,385mdvingfsu7ikqnsjzxyjp4abjww,3glb5jmzf18nuusspty8xhyforvdg6,GK3VOSQB,2020-0188,2020-05-08,10:24:00,10:39:28,NA,incomplete,119,number,1,left,Red_Triangle_Chess_2.jpg,Purple_Star_Stripes_2.jpg,Green_Plus_Chess_4.jpg,right,663.6250000447035,false,high,NA,NA,NA,NA,NA,NA,NA,false
GK3VOSQB,385mdvingfsu7ikqnsjzxyjp4abjww,3glb5jmzf18nuusspty8xhyforvdg6,GK3VOSQB,2020-0188,2020-05-08,10:24:00,10:39:28,NA,incomplete,120,filling,0,right,Red_Star_Stripes_3.jpg,Blue_Circle_Grid_3.jpg,Green_Triangle_Stripes_4.jpg,right,636.4649999886751,true,high,NA,NA,NA,NA,NA,NA,NA,false
GK3VOSQB,385mdvingfsu7ikqnsjzxyjp4abjww,3glb5jmzf18nuusspty8xhyforvdg6,GK3VOSQB,2020-0188,2020-05-08,10:24:00,10:39:28,NA,incomplete,121,filling,1,left,Purple_Plus_Grid_1.jpg,Red_Circle_Grid_3.jpg,Blue_Triangle_Dots_1.jpg,right,633.0450000241399,false,high,NA,NA,NA,NA,NA,NA,NA,false
GK3VOSQB,385mdvingfsu7ikqnsjzxyjp4abjww,3glb5jmzf18nuusspty8xhyforvdg6,GK3VOSQB,2020-0188,2020-05-08,10:24:00,10:39:28,NA,incomplete,122,filling,0,right,Red_Circle_Grid_1.jpg,Green_Triangle_Stripes_1.jpg,Blue_Star_Grid_3.jpg,left,535.0399999879301,false,high,NA,NA,NA,NA,NA,NA,NA,false
GK3VOSQB,385mdvingfsu7ikqnsjzxyjp4abjww,3glb5jmzf18nuusspty8xhyforvdg6,GK3VOSQB,2020-0188,2020-05-08,10:24:00,10:39:28,NA,incomplete,123,filling,1,left,Green_Plus_Dots_2.jpg,Red_Star_Dots_3.jpg,Blue_Triangle_Stripes_2.jpg,right,654.6050000470132,false,high,NA,NA,NA,NA,NA,NA,NA,false
GK3VOSQB,385mdvingfsu7ikqnsjzxyjp4abjww,3glb5jmzf18nuusspty8xhyforvdg6,GK3VOSQB,2020-0188,2020-05-08,10:24:00,10:39:28,NA,incomplete,124,filling,0,right,Purple_Plus_Stripes_4.jpg,Red_Triangle_Grid_4.jpg,Blue_Circle_Stripes_2.jpg,right,1259.5750000327826,true,high,NA,NA,NA,NA,NA,NA,NA,false
GK3VOSQB,385mdvingfsu7ikqnsjzxyjp4abjww,3glb5jmzf18nuusspty8xhyforvdg6,GK3VOSQB,2020-0188,2020-05-08,10:24:00,10:39:28,NA,incomplete,125,filling,1,right,Purple_Star_Stripes_4.jpg,Green_Plus_Dots_4.jpg,Red_Triangle_Stripes_2.jpg,left,715.5999999959022,false,high,NA,NA,NA,NA,NA,NA,NA,false
GK3VOSQB,385mdvingfsu7ikqnsjzxyjp4abjww,3glb5jmzf18nuusspty8xhyforvdg6,GK3VOSQB,2020-0188,2020-05-08,10:24:00,10:39:28,NA,incomplete,126,filling,0,left,Green_Triangle_Dots_3.jpg,Red_Circle_Dots_1.jpg,Purple_Plus_Chess_3.jpg,left,1380.2700000815094,true,high,NA,NA,NA,NA,NA,NA,NA,false
GK3VOSQB,385mdvingfsu7ikqnsjzxyjp4abjww,3glb5jmzf18nuusspty8xhyforvdg6,GK3VOSQB,2020-0188,2020-05-08,10:24:00,10:39:28,NA,incomplete,127,filling,1,left,Purple_Triangle_Chess_4.jpg,Blue_Circle_Chess_3.jpg,Green_Plus_Stripes_4.jpg,right,647.0899998676032,false,high,NA,NA,NA,NA,NA,NA,NA,false
GK3VOSQB,385mdvingfsu7ikqnsjzxyjp4abjww,3glb5jmzf18nuusspty8xhyforvdg6,GK3VOSQB,2020-0188,2020-05-08,10:24:00,10:39:28,NA,incomplete,128,filling,1,right,Green_Triangle_Grid_1.jpg,Red_Plus_Chess_1.jpg,Purple_Circle_Grid_4.jpg,right,936.1699998844415,true,high,NA,NA,NA,NA,NA,NA,NA,false
GK3VOSQB,385mdvingfsu7ikqnsjzxyjp4abjww,3glb5jmzf18nuusspty8xhyforvdg6,GK3VOSQB,2020-0188,2020-05-08,10:24:00,10:39:28,NA,incomplete,129,filling,1,right,Blue_Star_Stripes_4.jpg,Red_Circle_Grid_4.jpg,Purple_Triangle_Stripes_3.jpg,right,1567.8950001019984,true,high,NA,NA,NA,NA,NA,NA,NA,false
GK3VOSQB,385mdvingfsu7ikqnsjzxyjp4abjww,3glb5jmzf18nuusspty8xhyforvdg6,GK3VOSQB,2020-0188,2020-05-08,10:24:00,10:39:28,NA,incomplete,130,filling,0,right,Green_Plus_Chess_4.jpg,Red_Triangle_Dots_4.jpg,Blue_Star_Chess_3.jpg,right,1050.2499998547137,true,high,NA,NA,NA,NA,NA,NA,NA,false
GK3VOSQB,385mdvingfsu7ikqnsjzxyjp4abjww,3glb5jmzf18nuusspty8xhyforvdg6,GK3VOSQB,2020-0188,2020-05-08,10:24:00,10:39:28,NA,incomplete,131,filling,1,right,Green_Circle_Dots_4.jpg,Red_Triangle_Stripes_4.jpg,Blue_Plus_Dots_1.jpg,right,1069.4150000344962,true,high,NA,NA,NA,NA,NA,NA,NA,false
GK3VOSQB,385mdvingfsu7ikqnsjzxyjp4abjww,3glb5jmzf18nuusspty8xhyforvdg6,GK3VOSQB,2020-0188,2020-05-08,10:24:00,10:39:28,NA,incomplete,132,filling,1,left,Purple_Circle_Grid_3.jpg,Red_Star_Grid_1.jpg,Green_Plus_Stripes_3.jpg,left,1037.040000082925,true,high,NA,NA,NA,NA,NA,NA,NA,false
GK3VOSQB,385mdvingfsu7ikqnsjzxyjp4abjww,3glb5jmzf18nuusspty8xhyforvdg6,GK3VOSQB,2020-0188,2020-05-08,10:24:00,10:39:28,NA,incomplete,133,filling,0,right,Purple_Star_Grid_2.jpg,Green_Circle_Stripes_2.jpg,Red_Triangle_Grid_1.jpg,right,699.155000038445,true,high,NA,NA,NA,NA,NA,NA,NA,false
GK3VOSQB,385mdvingfsu7ikqnsjzxyjp4abjww,3glb5jmzf18nuusspty8xhyforvdg6,GK3VOSQB,2020-0188,2020-05-08,10:24:00,10:39:28,NA,incomplete,134,filling,1,left,Red_Plus_Grid_3.jpg,Blue_Circle_Grid_4.jpg,Purple_Star_Chess_3.jpg,left,1525.3200000151992,true,high,NA,NA,NA,NA,NA,NA,NA,false
GK3VOSQB,385mdvingfsu7ikqnsjzxyjp4abjww,3glb5jmzf18nuusspty8xhyforvdg6,GK3VOSQB,2020-0188,2020-05-08,10:24:00,10:39:28,NA,incomplete,135,filling,1,left,Red_Plus_Grid_2.jpg,Green_Circle_Grid_4.jpg,Blue_Triangle_Dots_2.jpg,left,1016.4049998857081,true,high,NA,NA,NA,NA,NA,NA,NA,false
GK3VOSQB,385mdvingfsu7ikqnsjzxyjp4abjww,3glb5jmzf18nuusspty8xhyforvdg6,GK3VOSQB,2020-0188,2020-05-08,10:24:00,10:39:28,NA,incomplete,136,filling,1,right,Blue_Circle_Dots_3.jpg,Red_Triangle_Chess_3.jpg,Purple_Plus_Dots_1.jpg,right,1445.5450000241399,true,high,NA,NA,NA,NA,NA,NA,NA,false
GK3VOSQB,385mdvingfsu7ikqnsjzxyjp4abjww,3glb5jmzf18nuusspty8xhyforvdg6,GK3VOSQB,2020-0188,2020-05-08,10:24:00,10:39:28,NA,incomplete,137,filling,1,left,Red_Circle_Stripes_2.jpg,Green_Triangle_Stripes_3.jpg,Blue_Plus_Grid_2.jpg,right,1223.3250001445413,false,high,NA,NA,NA,NA,NA,NA,NA,false
GK3VOSQB,385mdvingfsu7ikqnsjzxyjp4abjww,3glb5jmzf18nuusspty8xhyforvdg6,GK3VOSQB,2020-0188,2020-05-08,10:24:00,10:39:28,NA,incomplete,138,filling,1,left,Green_Plus_Dots_3.jpg,Red_Star_Dots_1.jpg,Blue_Triangle_Chess_3.jpg,left,1344.5949999149889,true,high,NA,NA,NA,NA,NA,NA,NA,false
GK3VOSQB,385mdvingfsu7ikqnsjzxyjp4abjww,3glb5jmzf18nuusspty8xhyforvdg6,GK3VOSQB,2020-0188,2020-05-08,10:24:00,10:39:28,NA,incomplete,139,filling,0,right,Purple_Star_Dots_4.jpg,Green_Triangle_Grid_4.jpg,Red_Circle_Dots_2.jpg,right,1120.8950001746416,true,high,NA,NA,NA,NA,NA,NA,NA,false
GK3VOSQB,385mdvingfsu7ikqnsjzxyjp4abjww,3glb5jmzf18nuusspty8xhyforvdg6,GK3VOSQB,2020-0188,2020-05-08,10:24:00,10:39:28,NA,incomplete,140,number,1,right,Green_Triangle_Grid_4.jpg,Purple_Plus_Grid_2.jpg,Red_Circle_Chess_4.jpg,left,1609.385000076145,false,high,NA,NA,NA,NA,NA,NA,NA,false
GK3VOSQB,385mdvingfsu7ikqnsjzxyjp4abjww,3glb5jmzf18nuusspty8xhyforvdg6,GK3VOSQB,2020-0188,2020-05-08,10:24:00,10:39:28,NA,incomplete,141,number,1,left,Green_Circle_Grid_2.jpg,Red_Plus_Dots_2.jpg,Purple_Triangle_Grid_3.jpg,left,882.3899999260902,true,high,NA,NA,NA,NA,NA,NA,NA,false
GK3VOSQB,385mdvingfsu7ikqnsjzxyjp4abjww,3glb5jmzf18nuusspty8xhyforvdg6,GK3VOSQB,2020-0188,2020-05-08,10:24:00,10:39:28,NA,incomplete,142,number,1,left,Purple_Circle_Dots_2.jpg,Green_Plus_Stripes_2.jpg,Blue_Triangle_Dots_3.jpg,left,707.5499999336898,true,high,NA,NA,NA,NA,NA,NA,NA,false
GK3VOSQB,385mdvingfsu7ikqnsjzxyjp4abjww,3glb5jmzf18nuusspty8xhyforvdg6,GK3VOSQB,2020-0188,2020-05-08,10:24:00,10:39:28,NA,incomplete,143,number,1,right,Purple_Star_Dots_1.jpg,Blue_Plus_Dots_4.jpg,Red_Triangle_Stripes_1.jpg,right,605.8650000486523,true,high,NA,NA,NA,NA,NA,NA,NA,false
GK3VOSQB,385mdvingfsu7ikqnsjzxyjp4abjww,3glb5jmzf18nuusspty8xhyforvdg6,GK3VOSQB,2020-0188,2020-05-08,10:24:00,10:39:28,NA,incomplete,144,number,1,left,Red_Star_Dots_3.jpg,Purple_Triangle_Grid_3.jpg,Green_Circle_Dots_2.jpg,left,1416.3399999961257,true,high,NA,NA,NA,NA,NA,NA,NA,false
GK3VOSQB,385mdvingfsu7ikqnsjzxyjp4abjww,3glb5jmzf18nuusspty8xhyforvdg6,GK3VOSQB,2020-0188,2020-05-08,10:24:00,10:39:28,NA,incomplete,145,number,1,right,Blue_Triangle_Grid_4.jpg,Red_Plus_Grid_2.jpg,Green_Circle_Stripes_4.jpg,left,1209.1149999760091,false,high,NA,NA,NA,NA,NA,NA,NA,false
GK3VOSQB,385mdvingfsu7ikqnsjzxyjp4abjww,3glb5jmzf18nuusspty8xhyforvdg6,GK3VOSQB,2020-0188,2020-05-08,10:24:00,10:39:28,NA,incomplete,146,number,1,left,Blue_Star_Chess_4.jpg,Purple_Circle_Dots_4.jpg,Green_Triangle_Chess_3.jpg,left,856.0399999842048,true,high,NA,NA,NA,NA,NA,NA,NA,false
GK3VOSQB,385mdvingfsu7ikqnsjzxyjp4abjww,3glb5jmzf18nuusspty8xhyforvdg6,GK3VOSQB,2020-0188,2020-05-08,10:24:00,10:39:28,NA,incomplete,147,number,0,left,Purple_Circle_Grid_2.jpg,Red_Plus_Dots_2.jpg,Blue_Star_Grid_3.jpg,right,859.4700000248849,false,high,NA,NA,NA,NA,NA,NA,NA,false
GK3VOSQB,385mdvingfsu7ikqnsjzxyjp4abjww,3glb5jmzf18nuusspty8xhyforvdg6,GK3VOSQB,2020-0188,2020-05-08,10:24:00,10:39:28,NA,incomplete,148,number,1,left,Purple_Star_Dots_3.jpg,Blue_Plus_Stripes_3.jpg,Green_Circle_Dots_4.jpg,left,700.6399999372661,true,high,NA,NA,NA,NA,NA,NA,NA,false
GK3VOSQB,385mdvingfsu7ikqnsjzxyjp4abjww,3glb5jmzf18nuusspty8xhyforvdg6,GK3VOSQB,2020-0188,2020-05-08,10:24:00,10:39:28,NA,incomplete,149,number,0,left,Red_Star_Chess_3.jpg,Purple_Circle_Grid_3.jpg,Green_Plus_Chess_4.jpg,left,566.5599999483675,true,high,NA,NA,NA,NA,NA,NA,NA,false
GK3VOSQB,385mdvingfsu7ikqnsjzxyjp4abjww,3glb5jmzf18nuusspty8xhyforvdg6,GK3VOSQB,2020-0188,2020-05-08,10:24:00,10:39:28,NA,incomplete,150,number,1,right,Purple_Circle_Stripes_1.jpg,Green_Plus_Stripes_4.jpg,Red_Triangle_Chess_1.jpg,right,741.3149999920279,true,high,NA,NA,NA,NA,NA,NA,NA,false
GK3VOSQB,385mdvingfsu7ikqnsjzxyjp4abjww,3glb5jmzf18nuusspty8xhyforvdg6,GK3VOSQB,2020-0188,2020-05-08,10:24:00,10:39:28,NA,incomplete,151,number,0,left,Purple_Star_Dots_3.jpg,Green_Circle_Grid_3.jpg,Blue_Triangle_Dots_2.jpg,left,635.0399998482317,true,high,NA,NA,NA,NA,NA,NA,NA,false
GK3VOSQB,385mdvingfsu7ikqnsjzxyjp4abjww,3glb5jmzf18nuusspty8xhyforvdg6,GK3VOSQB,2020-0188,2020-05-08,10:24:00,10:39:28,NA,incomplete,152,number,1,right,Blue_Triangle_Dots_3.jpg,Purple_Star_Dots_1.jpg,Green_Plus_Chess_3.jpg,right,666.8950000312179,true,high,NA,NA,NA,NA,NA,NA,NA,false
GK3VOSQB,385mdvingfsu7ikqnsjzxyjp4abjww,3glb5jmzf18nuusspty8xhyforvdg6,GK3VOSQB,2020-0188,2020-05-08,10:24:00,10:39:28,NA,incomplete,153,number,1,left,Green_Triangle_Dots_3.jpg,Red_Star_Grid_3.jpg,Blue_Plus_Dots_1.jpg,left,685.7549999840558,true,high,NA,NA,NA,NA,NA,NA,NA,false
GK3VOSQB,385mdvingfsu7ikqnsjzxyjp4abjww,3glb5jmzf18nuusspty8xhyforvdg6,GK3VOSQB,2020-0188,2020-05-08,10:24:00,10:39:28,NA,incomplete,154,number,1,left,Green_Circle_Dots_1.jpg,Purple_Triangle_Chess_1.jpg,Red_Star_Dots_3.jpg,left,655.0300000235438,true,high,NA,NA,NA,NA,NA,NA,NA,false
GK3VOSQB,385mdvingfsu7ikqnsjzxyjp4abjww,3glb5jmzf18nuusspty8xhyforvdg6,GK3VOSQB,2020-0188,2020-05-08,10:24:00,10:39:28,NA,incomplete,155,number,0,right,Blue_Star_Dots_2.jpg,Green_Plus_Dots_4.jpg,Red_Triangle_Grid_2.jpg,right,636.424999916926,true,high,NA,NA,NA,NA,NA,NA,NA,false
GK3VOSQB,385mdvingfsu7ikqnsjzxyjp4abjww,3glb5jmzf18nuusspty8xhyforvdg6,GK3VOSQB,2020-0188,2020-05-08,10:24:00,10:39:28,NA,incomplete,156,number,1,right,Green_Circle_Grid_2.jpg,Red_Star_Grid_1.jpg,Blue_Triangle_Stripes_2.jpg,left,1420.6099999137223,false,high,NA,NA,NA,NA,NA,NA,NA,false
GK3VOSQB,385mdvingfsu7ikqnsjzxyjp4abjww,3glb5jmzf18nuusspty8xhyforvdg6,GK3VOSQB,2020-0188,2020-05-08,10:24:00,10:39:28,NA,incomplete,157,number,1,right,Green_Triangle_Grid_3.jpg,Purple_Star_Grid_4.jpg,Red_Plus_Stripes_3.jpg,left,1038.9300000388175,false,high,NA,NA,NA,NA,NA,NA,NA,false
GK3VOSQB,385mdvingfsu7ikqnsjzxyjp4abjww,3glb5jmzf18nuusspty8xhyforvdg6,GK3VOSQB,2020-0188,2020-05-08,10:24:00,10:39:28,NA,incomplete,158,number,1,right,Purple_Star_Chess_1.jpg,Blue_Plus_Chess_2.jpg,Green_Triangle_Grid_1.jpg,right,701.2099998537451,true,high,NA,NA,NA,NA,NA,NA,NA,false
GK3VOSQB,385mdvingfsu7ikqnsjzxyjp4abjww,3glb5jmzf18nuusspty8xhyforvdg6,GK3VOSQB,2020-0188,2020-05-08,10:24:00,10:39:28,NA,incomplete,159,number,0,left,Red_Circle_Chess_1.jpg,Blue_Plus_Stripes_1.jpg,Purple_Triangle_Chess_4.jpg,left,588.6500000488013,true,high,NA,NA,NA,NA,NA,NA,NA,false
GK3VOSQB,385mdvingfsu7ikqnsjzxyjp4abjww,3glb5jmzf18nuusspty8xhyforvdg6,GK3VOSQB,2020-0188,2020-05-08,10:24:00,10:39:28,NA,incomplete,160,filling,1,left,Purple_Circle_Grid_1.jpg,Green_Plus_Grid_2.jpg,Blue_Triangle_Dots_1.jpg,right,542.5700000487268,false,high,NA,NA,NA,NA,NA,NA,NA,false
GK3VOSQB,385mdvingfsu7ikqnsjzxyjp4abjww,3glb5jmzf18nuusspty8xhyforvdg6,GK3VOSQB,2020-0188,2020-05-08,10:24:00,10:39:28,NA,incomplete,161,filling,1,right,Blue_Plus_Stripes_1.jpg,Green_Circle_Dots_1.jpg,Purple_Star_Stripes_2.jpg,right,578.3400000073016,true,high,NA,NA,NA,NA,NA,NA,NA,false
GK3VOSQB,385mdvingfsu7ikqnsjzxyjp4abjww,3glb5jmzf18nuusspty8xhyforvdg6,GK3VOSQB,2020-0188,2020-05-08,10:24:00,10:39:28,NA,incomplete,162,filling,1,right,Green_Circle_Grid_2.jpg,Blue_Triangle_Dots_2.jpg,Red_Plus_Grid_1.jpg,left,657.8200000803918,false,high,NA,NA,NA,NA,NA,NA,NA,false
GK3VOSQB,385mdvingfsu7ikqnsjzxyjp4abjww,3glb5jmzf18nuusspty8xhyforvdg6,GK3VOSQB,2020-0188,2020-05-08,10:24:00,10:39:28,NA,incomplete,163,filling,1,right,Purple_Star_Grid_2.jpg,Blue_Triangle_Stripes_2.jpg,Green_Circle_Grid_1.jpg,right,757.5749999377877,true,high,NA,NA,NA,NA,NA,NA,NA,false
GK3VOSQB,385mdvingfsu7ikqnsjzxyjp4abjww,3glb5jmzf18nuusspty8xhyforvdg6,GK3VOSQB,2020-0188,2020-05-08,10:24:00,10:39:28,NA,incomplete,164,filling,1,left,Purple_Star_Chess_3.jpg,Red_Triangle_Chess_2.jpg,Green_Circle_Grid_3.jpg,left,999.8749999795109,true,high,NA,NA,NA,NA,NA,NA,NA,false
GK3VOSQB,385mdvingfsu7ikqnsjzxyjp4abjww,3glb5jmzf18nuusspty8xhyforvdg6,GK3VOSQB,2020-0188,2020-05-08,10:24:00,10:39:28,NA,incomplete,165,filling,1,left,Red_Triangle_Grid_1.jpg,Purple_Plus_Grid_2.jpg,Green_Circle_Dots_1.jpg,left,737.2149999719113,true,high,NA,NA,NA,NA,NA,NA,NA,false
GK3VOSQB,385mdvingfsu7ikqnsjzxyjp4abjww,3glb5jmzf18nuusspty8xhyforvdg6,GK3VOSQB,2020-0188,2020-05-08,10:24:00,10:39:28,NA,incomplete,166,filling,1,right,Red_Star_Grid_3.jpg,Purple_Triangle_Chess_3.jpg,Green_Circle_Grid_4.jpg,right,841.4600000251085,true,high,NA,NA,NA,NA,NA,NA,NA,false
GK3VOSQB,385mdvingfsu7ikqnsjzxyjp4abjww,3glb5jmzf18nuusspty8xhyforvdg6,GK3VOSQB,2020-0188,2020-05-08,10:24:00,10:39:28,NA,incomplete,167,filling,1,right,Purple_Star_Stripes_3.jpg,Green_Plus_Chess_3.jpg,Red_Triangle_Stripes_1.jpg,right,753.8799999747425,true,high,NA,NA,NA,NA,NA,NA,NA,false
GK3VOSQB,385mdvingfsu7ikqnsjzxyjp4abjww,3glb5jmzf18nuusspty8xhyforvdg6,GK3VOSQB,2020-0188,2020-05-08,10:24:00,10:39:28,NA,incomplete,168,filling,1,right,Blue_Circle_Dots_1.jpg,Purple_Triangle_Stripes_1.jpg,Red_Plus_Dots_4.jpg,right,623.6750001553446,true,high,NA,NA,NA,NA,NA,NA,NA,false
GK3VOSQB,385mdvingfsu7ikqnsjzxyjp4abjww,3glb5jmzf18nuusspty8xhyforvdg6,GK3VOSQB,2020-0188,2020-05-08,10:24:00,10:39:28,NA,incomplete,169,filling,1,left,Green_Plus_Stripes_4.jpg,Red_Triangle_Stripes_2.jpg,Blue_Star_Chess_4.jpg,left,795.295000076294,true,high,NA,NA,NA,NA,NA,NA,NA,false
GK3VOSQB,385mdvingfsu7ikqnsjzxyjp4abjww,3glb5jmzf18nuusspty8xhyforvdg6,GK3VOSQB,2020-0188,2020-05-08,10:24:00,10:39:28,NA,incomplete,170,filling,0,left,Green_Star_Chess_2.jpg,Blue_Circle_Chess_1.jpg,Purple_Triangle_Grid_2.jpg,left,700.565000064671,true,high,NA,NA,NA,NA,NA,NA,NA,false
GK3VOSQB,385mdvingfsu7ikqnsjzxyjp4abjww,3glb5jmzf18nuusspty8xhyforvdg6,GK3VOSQB,2020-0188,2020-05-08,10:24:00,10:39:28,NA,incomplete,171,filling,1,left,Green_Star_Dots_4.jpg,Purple_Triangle_Dots_2.jpg,Blue_Circle_Grid_4.jpg,right,681.770000141114,false,high,NA,NA,NA,NA,NA,NA,NA,false
GK3VOSQB,385mdvingfsu7ikqnsjzxyjp4abjww,3glb5jmzf18nuusspty8xhyforvdg6,GK3VOSQB,2020-0188,2020-05-08,10:24:00,10:39:28,NA,incomplete,172,filling,0,left,Purple_Star_Grid_1.jpg,Blue_Triangle_Grid_3.jpg,Red_Plus_Dots_1.jpg,right,950.9449999313802,false,high,NA,NA,NA,NA,NA,NA,NA,false
GK3VOSQB,385mdvingfsu7ikqnsjzxyjp4abjww,3glb5jmzf18nuusspty8xhyforvdg6,GK3VOSQB,2020-0188,2020-05-08,10:24:00,10:39:28,NA,incomplete,173,filling,1,right,Red_Circle_Grid_1.jpg,Green_Plus_Stripes_1.jpg,Blue_Star_Grid_2.jpg,left,520.1799999922514,false,high,NA,NA,NA,NA,NA,NA,NA,false
GK3VOSQB,385mdvingfsu7ikqnsjzxyjp4abjww,3glb5jmzf18nuusspty8xhyforvdg6,GK3VOSQB,2020-0188,2020-05-08,10:24:00,10:39:28,NA,incomplete,174,filling,1,left,Green_Plus_Grid_4.jpg,Blue_Circle_Grid_2.jpg,Red_Star_Stripes_4.jpg,right,680.8550001587719,false,high,NA,NA,NA,NA,NA,NA,NA,false
GK3VOSQB,385mdvingfsu7ikqnsjzxyjp4abjww,3glb5jmzf18nuusspty8xhyforvdg6,GK3VOSQB,2020-0188,2020-05-08,10:24:00,10:39:28,NA,incomplete,175,filling,1,right,Blue_Plus_Chess_3.jpg,Red_Triangle_Stripes_3.jpg,Purple_Circle_Chess_1.jpg,right,1009.2150000855327,true,high,NA,NA,NA,NA,NA,NA,NA,false
GK3VOSQB,385mdvingfsu7ikqnsjzxyjp4abjww,3glb5jmzf18nuusspty8xhyforvdg6,GK3VOSQB,2020-0188,2020-05-08,10:24:00,10:39:28,NA,incomplete,176,filling,1,right,Red_Triangle_Chess_3.jpg,Blue_Star_Stripes_3.jpg,Purple_Plus_Chess_1.jpg,right,854.5399999711663,true,high,NA,NA,NA,NA,NA,NA,NA,false
GK3VOSQB,385mdvingfsu7ikqnsjzxyjp4abjww,3glb5jmzf18nuusspty8xhyforvdg6,GK3VOSQB,2020-0188,2020-05-08,10:24:00,10:39:28,NA,incomplete,177,filling,1,right,Green_Triangle_Stripes_2.jpg,Purple_Circle_Chess_2.jpg,Blue_Star_Stripes_1.jpg,right,806.3850000035018,true,high,NA,NA,NA,NA,NA,NA,NA,false
GK3VOSQB,385mdvingfsu7ikqnsjzxyjp4abjww,3glb5jmzf18nuusspty8xhyforvdg6,GK3VOSQB,2020-0188,2020-05-08,10:24:00,10:39:28,NA,incomplete,178,filling,1,left,Purple_Circle_Grid_4.jpg,Red_Triangle_Grid_2.jpg,Blue_Plus_Stripes_4.jpg,left,727.7300001587719,true,high,NA,NA,NA,NA,NA,NA,NA,false
GK3VOSQB,385mdvingfsu7ikqnsjzxyjp4abjww,3glb5jmzf18nuusspty8xhyforvdg6,GK3VOSQB,2020-0188,2020-05-08,10:24:00,10:39:28,NA,incomplete,179,filling,1,right,Purple_Triangle_Chess_2.jpg,Green_Star_Dots_2.jpg,Red_Circle_Chess_1.jpg,right,806.6050000488758,true,high,NA,NA,NA,NA,NA,NA,NA,false
GK3VOSQB,385mdvingfsu7ikqnsjzxyjp4abjww,3glb5jmzf18nuusspty8xhyforvdg6,GK3VOSQB,2020-0188,2020-05-08,10:24:00,10:39:28,NA,incomplete,180,number,1,left,Green_Triangle_Chess_2.jpg,Blue_Plus_Dots_2.jpg,Red_Circle_Chess_4.jpg,left,1043.3849999681115,true,high,NA,NA,NA,NA,NA,NA,NA,false
GK3VOSQB,385mdvingfsu7ikqnsjzxyjp4abjww,3glb5jmzf18nuusspty8xhyforvdg6,GK3VOSQB,2020-0188,2020-05-08,10:24:00,10:39:28,NA,incomplete,181,number,1,left,Green_Triangle_Grid_2.jpg,Purple_Plus_Dots_2.jpg,Blue_Circle_Grid_3.jpg,right,1201.9499999005347,false,high,NA,NA,NA,NA,NA,NA,NA,false
GK3VOSQB,385mdvingfsu7ikqnsjzxyjp4abjww,3glb5jmzf18nuusspty8xhyforvdg6,GK3VOSQB,2020-0188,2020-05-08,10:24:00,10:39:28,NA,incomplete,182,number,1,left,Purple_Plus_Dots_2.jpg,Green_Triangle_Stripes_2.jpg,Red_Circle_Dots_1.jpg,right,844.5150000043213,false,high,NA,NA,NA,NA,NA,NA,NA,false
GK3VOSQB,385mdvingfsu7ikqnsjzxyjp4abjww,3glb5jmzf18nuusspty8xhyforvdg6,GK3VOSQB,2020-0188,2020-05-08,10:24:00,10:39:28,NA,incomplete,183,number,1,right,Green_Plus_Grid_1.jpg,Red_Star_Grid_3.jpg,Purple_Circle_Chess_1.jpg,left,1394.5800000801682,false,high,NA,NA,NA,NA,NA,NA,NA,false
GK3VOSQB,385mdvingfsu7ikqnsjzxyjp4abjww,3glb5jmzf18nuusspty8xhyforvdg6,GK3VOSQB,2020-0188,2020-05-08,10:24:00,10:39:28,NA,incomplete,184,number,0,left,Red_Plus_Dots_1.jpg,Purple_Star_Chess_1.jpg,Green_Circle_Dots_2.jpg,left,555.0049999728799,true,high,NA,NA,NA,NA,NA,NA,NA,false
GK3VOSQB,385mdvingfsu7ikqnsjzxyjp4abjww,3glb5jmzf18nuusspty8xhyforvdg6,GK3VOSQB,2020-0188,2020-05-08,10:24:00,10:39:28,NA,incomplete,185,number,1,right,Green_Triangle_Chess_3.jpg,Red_Circle_Chess_1.jpg,Blue_Star_Stripes_3.jpg,right,860.8900001272559,true,high,NA,NA,NA,NA,NA,NA,NA,false
GK3VOSQB,385mdvingfsu7ikqnsjzxyjp4abjww,3glb5jmzf18nuusspty8xhyforvdg6,GK3VOSQB,2020-0188,2020-05-08,10:24:00,10:39:28,NA,incomplete,186,number,1,left,Green_Triangle_Grid_3.jpg,Red_Star_Stripes_3.jpg,Purple_Circle_Grid_2.jpg,left,579.4400000013411,true,high,NA,NA,NA,NA,NA,NA,NA,false
GK3VOSQB,385mdvingfsu7ikqnsjzxyjp4abjww,3glb5jmzf18nuusspty8xhyforvdg6,GK3VOSQB,2020-0188,2020-05-08,10:24:00,10:39:28,NA,incomplete,187,number,1,left,Purple_Plus_Grid_1.jpg,Green_Star_Stripes_1.jpg,Blue_Circle_Grid_3.jpg,left,1085.9899998176843,true,high,NA,NA,NA,NA,NA,NA,NA,false
GK3VOSQB,385mdvingfsu7ikqnsjzxyjp4abjww,3glb5jmzf18nuusspty8xhyforvdg6,GK3VOSQB,2020-0188,2020-05-08,10:24:00,10:39:28,NA,incomplete,188,number,1,left,Blue_Star_Dots_3.jpg,Red_Circle_Grid_3.jpg,Green_Triangle_Dots_2.jpg,left,678.5049999598414,true,high,NA,NA,NA,NA,NA,NA,NA,false
GK3VOSQB,385mdvingfsu7ikqnsjzxyjp4abjww,3glb5jmzf18nuusspty8xhyforvdg6,GK3VOSQB,2020-0188,2020-05-08,10:24:00,10:39:28,NA,incomplete,189,number,1,left,Blue_Star_Chess_1.jpg,Green_Triangle_Stripes_1.jpg,Red_Circle_Chess_3.jpg,left,1195.3000000212342,true,high,NA,NA,NA,NA,NA,NA,NA,false
GK3VOSQB,385mdvingfsu7ikqnsjzxyjp4abjww,3glb5jmzf18nuusspty8xhyforvdg6,GK3VOSQB,2020-0188,2020-05-08,10:24:00,10:39:28,NA,incomplete,190,number,1,right,Purple_Plus_Dots_4.jpg,Green_Star_Dots_2.jpg,Red_Triangle_Chess_4.jpg,right,653.2250000163913,true,high,NA,NA,NA,NA,NA,NA,NA,false
GK3VOSQB,385mdvingfsu7ikqnsjzxyjp4abjww,3glb5jmzf18nuusspty8xhyforvdg6,GK3VOSQB,2020-0188,2020-05-08,10:24:00,10:39:28,NA,incomplete,191,number,1,right,Green_Circle_Grid_2.jpg,Red_Triangle_Grid_4.jpg,Blue_Star_Stripes_2.jpg,right,741.9849999714643,true,high,NA,NA,NA,NA,NA,NA,NA,false
GK3VOSQB,385mdvingfsu7ikqnsjzxyjp4abjww,3glb5jmzf18nuusspty8xhyforvdg6,GK3VOSQB,2020-0188,2020-05-08,10:24:00,10:39:28,NA,incomplete,192,number,1,left,Blue_Triangle_Chess_2.jpg,Purple_Plus_Grid_2.jpg,Red_Star_Chess_1.jpg,right,574.2249998729676,false,high,NA,NA,NA,NA,NA,NA,NA,false
GK3VOSQB,385mdvingfsu7ikqnsjzxyjp4abjww,3glb5jmzf18nuusspty8xhyforvdg6,GK3VOSQB,2020-0188,2020-05-08,10:24:00,10:39:28,NA,incomplete,193,number,1,right,Blue_Triangle_Stripes_1.jpg,Red_Circle_Stripes_2.jpg,Purple_Star_Grid_1.jpg,right,586.200000019744,true,high,NA,NA,NA,NA,NA,NA,NA,false
GK3VOSQB,385mdvingfsu7ikqnsjzxyjp4abjww,3glb5jmzf18nuusspty8xhyforvdg6,GK3VOSQB,2020-0188,2020-05-08,10:24:00,10:39:28,NA,incomplete,194,number,1,right,Red_Circle_Grid_4.jpg,Green_Star_Grid_1.jpg,Blue_Plus_Dots_4.jpg,right,952.5200000498444,true,high,NA,NA,NA,NA,NA,NA,NA,false
GK3VOSQB,385mdvingfsu7ikqnsjzxyjp4abjww,3glb5jmzf18nuusspty8xhyforvdg6,GK3VOSQB,2020-0188,2020-05-08,10:24:00,10:39:28,NA,incomplete,195,number,1,right,Red_Triangle_Chess_4.jpg,Green_Plus_Chess_1.jpg,Blue_Circle_Grid_4.jpg,right,590.0699999183416,true,high,NA,NA,NA,NA,NA,NA,NA,false
GK3VOSQB,385mdvingfsu7ikqnsjzxyjp4abjww,3glb5jmzf18nuusspty8xhyforvdg6,GK3VOSQB,2020-0188,2020-05-08,10:24:00,10:39:28,NA,incomplete,196,number,1,right,Red_Star_Stripes_1.jpg,Green_Circle_Stripes_2.jpg,Blue_Triangle_Chess_1.jpg,right,496.08499999158084,true,high,NA,NA,NA,NA,NA,NA,NA,false
GK3VOSQB,385mdvingfsu7ikqnsjzxyjp4abjww,3glb5jmzf18nuusspty8xhyforvdg6,GK3VOSQB,2020-0188,2020-05-08,10:24:00,10:39:28,NA,incomplete,197,number,1,left,Green_Star_Chess_2.jpg,Purple_Plus_Dots_2.jpg,Blue_Circle_Chess_1.jpg,left,637.1899999212474,true,high,NA,NA,NA,NA,NA,NA,NA,false
GK3VOSQB,385mdvingfsu7ikqnsjzxyjp4abjww,3glb5jmzf18nuusspty8xhyforvdg6,GK3VOSQB,2020-0188,2020-05-08,10:24:00,10:39:28,NA,incomplete,198,number,0,right,Purple_Circle_Chess_2.jpg,Red_Plus_Chess_4.jpg,Blue_Star_Stripes_2.jpg,right,687.33000010252,true,high,NA,NA,NA,NA,NA,NA,NA,false
GK3VOSQB,385mdvingfsu7ikqnsjzxyjp4abjww,3glb5jmzf18nuusspty8xhyforvdg6,GK3VOSQB,2020-0188,2020-05-08,10:24:00,10:39:28,NA,incomplete,199,number,1,right,Red_Circle_Dots_2.jpg,Green_Star_Dots_1.jpg,Purple_Triangle_Stripes_2.jpg,right,667.6099998876452,true,high,NA,NA,NA,NA,NA,NA,NA,false
GK3VOSQB,385mdvingfsu7ikqnsjzxyjp4abjww,3glb5jmzf18nuusspty8xhyforvdg6,GK3VOSQB,2020-0188,2020-05-08,10:24:00,10:39:28,NA,incomplete,200,filling,1,left,Green_Plus_Chess_3.jpg,Purple_Circle_Chess_1.jpg,Blue_Star_Stripes_3.jpg,right,1016.6249999310821,false,high,NA,NA,NA,NA,NA,NA,NA,false
GK3VOSQB,385mdvingfsu7ikqnsjzxyjp4abjww,3glb5jmzf18nuusspty8xhyforvdg6,GK3VOSQB,2020-0188,2020-05-08,10:24:00,10:39:28,NA,incomplete,201,filling,1,right,Red_Triangle_Grid_1.jpg,Blue_Plus_Chess_1.jpg,Green_Circle_Grid_2.jpg,right,865.2200000360608,true,high,NA,NA,NA,NA,NA,NA,NA,false
GK3VOSQB,385mdvingfsu7ikqnsjzxyjp4abjww,3glb5jmzf18nuusspty8xhyforvdg6,GK3VOSQB,2020-0188,2020-05-08,10:24:00,10:39:28,NA,incomplete,202,filling,1,right,Purple_Plus_Chess_1.jpg,Blue_Star_Dots_1.jpg,Green_Triangle_Chess_3.jpg,right,927.73999995552,true,high,NA,NA,NA,NA,NA,NA,NA,false
GK3VOSQB,385mdvingfsu7ikqnsjzxyjp4abjww,3glb5jmzf18nuusspty8xhyforvdg6,GK3VOSQB,2020-0188,2020-05-08,10:24:00,10:39:28,NA,incomplete,203,filling,1,left,Purple_Circle_Dots_3.jpg,Blue_Triangle_Dots_1.jpg,Green_Star_Stripes_3.jpg,left,1332.2600000537932,true,high,NA,NA,NA,NA,NA,NA,NA,false
GK3VOSQB,385mdvingfsu7ikqnsjzxyjp4abjww,3glb5jmzf18nuusspty8xhyforvdg6,GK3VOSQB,2020-0188,2020-05-08,10:24:00,10:39:28,NA,incomplete,204,filling,1,left,Green_Circle_Stripes_4.jpg,Blue_Triangle_Stripes_1.jpg,Red_Star_Dots_4.jpg,left,787.19999990426,true,high,NA,NA,NA,NA,NA,NA,NA,false
GK3VOSQB,385mdvingfsu7ikqnsjzxyjp4abjww,3glb5jmzf18nuusspty8xhyforvdg6,GK3VOSQB,2020-0188,2020-05-08,10:24:00,10:39:28,NA,incomplete,205,filling,1,left,Red_Triangle_Stripes_4.jpg,Blue_Plus_Stripes_3.jpg,Green_Star_Grid_4.jpg,left,881.7699998617172,true,high,NA,NA,NA,NA,NA,NA,NA,false
GK3VOSQB,385mdvingfsu7ikqnsjzxyjp4abjww,3glb5jmzf18nuusspty8xhyforvdg6,GK3VOSQB,2020-0188,2020-05-08,10:24:00,10:39:28,NA,incomplete,206,filling,1,left,Purple_Triangle_Chess_1.jpg,Red_Circle_Chess_4.jpg,Blue_Plus_Stripes_1.jpg,right,1598.950000014156,false,high,NA,NA,NA,NA,NA,NA,NA,false
GK3VOSQB,385mdvingfsu7ikqnsjzxyjp4abjww,3glb5jmzf18nuusspty8xhyforvdg6,GK3VOSQB,2020-0188,2020-05-08,10:24:00,10:39:28,NA,incomplete,207,filling,1,left,Blue_Circle_Chess_4.jpg,Red_Triangle_Chess_1.jpg,Purple_Star_Grid_4.jpg,left,1209.0549999848008,true,high,NA,NA,NA,NA,NA,NA,NA,false
GK3VOSQB,385mdvingfsu7ikqnsjzxyjp4abjww,3glb5jmzf18nuusspty8xhyforvdg6,GK3VOSQB,2020-0188,2020-05-08,10:24:00,10:39:28,NA,incomplete,208,filling,1,right,Blue_Star_Dots_2.jpg,Green_Circle_Grid_2.jpg,Red_Plus_Dots_1.jpg,right,1061.9349998887628,true,high,NA,NA,NA,NA,NA,NA,NA,false
GK3VOSQB,385mdvingfsu7ikqnsjzxyjp4abjww,3glb5jmzf18nuusspty8xhyforvdg6,GK3VOSQB,2020-0188,2020-05-08,10:24:00,10:39:28,NA,incomplete,209,filling,1,left,Purple_Triangle_Grid_1.jpg,Blue_Plus_Grid_2.jpg,Green_Star_Dots_1.jpg,left,1043.294999981299,true,high,NA,NA,NA,NA,NA,NA,NA,false
GK3VOSQB,385mdvingfsu7ikqnsjzxyjp4abjww,3glb5jmzf18nuusspty8xhyforvdg6,GK3VOSQB,2020-0188,2020-05-08,10:24:00,10:39:28,NA,incomplete,210,filling,1,right,Purple_Triangle_Chess_2.jpg,Red_Star_Dots_2.jpg,Blue_Circle_Chess_4.jpg,right,814.8399998899549,true,high,NA,NA,NA,NA,NA,NA,NA,false
GK3VOSQB,385mdvingfsu7ikqnsjzxyjp4abjww,3glb5jmzf18nuusspty8xhyforvdg6,GK3VOSQB,2020-0188,2020-05-08,10:24:00,10:39:28,NA,incomplete,211,filling,1,left,Purple_Plus_Stripes_2.jpg,Red_Circle_Stripes_4.jpg,Blue_Star_Chess_2.jpg,left,849.6199999935925,true,high,NA,NA,NA,NA,NA,NA,NA,false
GK3VOSQB,385mdvingfsu7ikqnsjzxyjp4abjww,3glb5jmzf18nuusspty8xhyforvdg6,GK3VOSQB,2020-0188,2020-05-08,10:24:00,10:39:28,NA,incomplete,212,filling,1,left,Green_Triangle_Chess_2.jpg,Red_Circle_Chess_1.jpg,Blue_Star_Grid_2.jpg,left,992.0550000388175,true,high,NA,NA,NA,NA,NA,NA,NA,false
GK3VOSQB,385mdvingfsu7ikqnsjzxyjp4abjww,3glb5jmzf18nuusspty8xhyforvdg6,GK3VOSQB,2020-0188,2020-05-08,10:24:00,10:39:28,NA,incomplete,213,filling,0,left,Purple_Plus_Dots_2.jpg,Blue_Circle_Dots_1.jpg,Red_Star_Chess_2.jpg,left,1013.7100000865757,true,high,NA,NA,NA,NA,NA,NA,NA,false
GK3VOSQB,385mdvingfsu7ikqnsjzxyjp4abjww,3glb5jmzf18nuusspty8xhyforvdg6,GK3VOSQB,2020-0188,2020-05-08,10:24:00,10:39:28,NA,incomplete,214,filling,1,right,Red_Triangle_Dots_1.jpg,Blue_Star_Stripes_1.jpg,Green_Plus_Dots_2.jpg,right,898.9699999801815,true,high,NA,NA,NA,NA,NA,NA,NA,false
GK3VOSQB,385mdvingfsu7ikqnsjzxyjp4abjww,3glb5jmzf18nuusspty8xhyforvdg6,GK3VOSQB,2020-0188,2020-05-08,10:24:00,10:39:28,NA,incomplete,215,filling,1,left,Red_Plus_Chess_2.jpg,Purple_Star_Chess_4.jpg,Green_Circle_Stripes_2.jpg,left,1014.3600001465529,true,high,NA,NA,NA,NA,NA,NA,NA,false
GK3VOSQB,385mdvingfsu7ikqnsjzxyjp4abjww,3glb5jmzf18nuusspty8xhyforvdg6,GK3VOSQB,2020-0188,2020-05-08,10:24:00,10:39:28,NA,incomplete,216,filling,0,right,Red_Star_Dots_2.jpg,Purple_Circle_Stripes_2.jpg,Blue_Plus_Dots_3.jpg,right,858.2600001245737,true,high,NA,NA,NA,NA,NA,NA,NA,false
GK3VOSQB,385mdvingfsu7ikqnsjzxyjp4abjww,3glb5jmzf18nuusspty8xhyforvdg6,GK3VOSQB,2020-0188,2020-05-08,10:24:00,10:39:28,NA,incomplete,217,filling,1,right,Purple_Star_Grid_2.jpg,Green_Circle_Stripes_2.jpg,Red_Plus_Grid_3.jpg,right,1251.6799999866635,true,high,NA,NA,NA,NA,NA,NA,NA,false
GK3VOSQB,385mdvingfsu7ikqnsjzxyjp4abjww,3glb5jmzf18nuusspty8xhyforvdg6,GK3VOSQB,2020-0188,2020-05-08,10:24:00,10:39:28,NA,incomplete,218,filling,1,left,Purple_Triangle_Stripes_1.jpg,Red_Plus_Stripes_3.jpg,Blue_Circle_Chess_1.jpg,left,939.9349999148399,true,high,NA,NA,NA,NA,NA,NA,NA,false
GK3VOSQB,385mdvingfsu7ikqnsjzxyjp4abjww,3glb5jmzf18nuusspty8xhyforvdg6,GK3VOSQB,2020-0188,2020-05-08,10:24:00,10:39:28,NA,incomplete,219,filling,0,left,Green_Plus_Dots_4.jpg,Blue_Circle_Dots_1.jpg,Red_Star_Chess_4.jpg,left,857.1599998977035,true,high,NA,NA,NA,NA,NA,NA,NA,false
GK3VOSQB,385mdvingfsu7ikqnsjzxyjp4abjww,3glb5jmzf18nuusspty8xhyforvdg6,GK3VOSQB,2020-0188,2020-05-08,10:24:00,10:39:28,NA,incomplete,220,number,1,left,Green_Star_Grid_4.jpg,Purple_Circle_Stripes_4.jpg,Blue_Triangle_Grid_3.jpg,right,1034.5699999015778,false,high,NA,NA,NA,NA,NA,NA,NA,false
GK3VOSQB,385mdvingfsu7ikqnsjzxyjp4abjww,3glb5jmzf18nuusspty8xhyforvdg6,GK3VOSQB,2020-0188,2020-05-08,10:24:00,10:39:28,NA,incomplete,221,number,0,right,Red_Triangle_Grid_4.jpg,Green_Circle_Grid_2.jpg,Blue_Plus_Dots_4.jpg,right,700.575000140816,true,high,NA,NA,NA,NA,NA,NA,NA,false
GK3VOSQB,385mdvingfsu7ikqnsjzxyjp4abjww,3glb5jmzf18nuusspty8xhyforvdg6,GK3VOSQB,2020-0188,2020-05-08,10:24:00,10:39:28,NA,incomplete,222,number,1,left,Red_Triangle_Stripes_3.jpg,Green_Star_Grid_3.jpg,Blue_Circle_Stripes_2.jpg,left,662.3599999584258,true,high,NA,NA,NA,NA,NA,NA,NA,false
GK3VOSQB,385mdvingfsu7ikqnsjzxyjp4abjww,3glb5jmzf18nuusspty8xhyforvdg6,GK3VOSQB,2020-0188,2020-05-08,10:24:00,10:39:28,NA,incomplete,223,number,1,right,Green_Plus_Chess_3.jpg,Purple_Triangle_Chess_2.jpg,Blue_Circle_Stripes_3.jpg,none,0,false,high,NA,NA,NA,NA,NA,NA,NA,false
GK3VOSQB,385mdvingfsu7ikqnsjzxyjp4abjww,3glb5jmzf18nuusspty8xhyforvdg6,GK3VOSQB,2020-0188,2020-05-08,10:24:00,10:39:28,NA,incomplete,224,number,0,left,Purple_Circle_Stripes_4.jpg,Red_Plus_Dots_4.jpg,Green_Triangle_Stripes_2.jpg,right,1344.020000193268,false,high,NA,NA,NA,NA,NA,NA,NA,false
GK3VOSQB,385mdvingfsu7ikqnsjzxyjp4abjww,3glb5jmzf18nuusspty8xhyforvdg6,GK3VOSQB,2020-0188,2020-05-08,10:24:00,10:39:28,NA,incomplete,225,number,1,left,Blue_Plus_Stripes_3.jpg,Purple_Circle_Grid_3.jpg,Green_Star_Stripes_1.jpg,right,687.1599999722093,false,high,NA,NA,NA,NA,NA,NA,NA,false
GK3VOSQB,385mdvingfsu7ikqnsjzxyjp4abjww,3glb5jmzf18nuusspty8xhyforvdg6,GK3VOSQB,2020-0188,2020-05-08,10:24:00,10:39:28,NA,incomplete,226,number,1,left,Green_Triangle_Stripes_1.jpg,Purple_Star_Dots_1.jpg,Blue_Circle_Stripes_2.jpg,right,1107.4949998874217,false,high,NA,NA,NA,NA,NA,NA,NA,false
GK3VOSQB,385mdvingfsu7ikqnsjzxyjp4abjww,3glb5jmzf18nuusspty8xhyforvdg6,GK3VOSQB,2020-0188,2020-05-08,10:24:00,10:39:28,NA,incomplete,227,number,1,right,Green_Triangle_Grid_2.jpg,Purple_Circle_Grid_1.jpg,Red_Plus_Stripes_2.jpg,right,687.4250001274049,true,high,NA,NA,NA,NA,NA,NA,NA,false
GK3VOSQB,385mdvingfsu7ikqnsjzxyjp4abjww,3glb5jmzf18nuusspty8xhyforvdg6,GK3VOSQB,2020-0188,2020-05-08,10:24:00,10:39:28,NA,incomplete,228,number,1,right,Red_Circle_Chess_3.jpg,Green_Star_Chess_2.jpg,Blue_Plus_Stripes_3.jpg,right,797.9600001126528,true,high,NA,NA,NA,NA,NA,NA,NA,false
GK3VOSQB,385mdvingfsu7ikqnsjzxyjp4abjww,3glb5jmzf18nuusspty8xhyforvdg6,GK3VOSQB,2020-0188,2020-05-08,10:24:00,10:39:28,NA,incomplete,229,number,0,left,Red_Triangle_Dots_1.jpg,Purple_Star_Grid_1.jpg,Green_Plus_Dots_3.jpg,left,492.1850000973791,true,high,NA,NA,NA,NA,NA,NA,NA,false
GK3VOSQB,385mdvingfsu7ikqnsjzxyjp4abjww,3glb5jmzf18nuusspty8xhyforvdg6,GK3VOSQB,2020-0188,2020-05-08,10:24:00,10:39:28,NA,incomplete,230,number,1,right,Green_Circle_Chess_1.jpg,Purple_Star_Chess_3.jpg,Blue_Plus_Stripes_1.jpg,right,557.3100000619888,true,high,NA,NA,NA,NA,NA,NA,NA,false
GK3VOSQB,385mdvingfsu7ikqnsjzxyjp4abjww,3glb5jmzf18nuusspty8xhyforvdg6,GK3VOSQB,2020-0188,2020-05-08,10:24:00,10:39:28,NA,incomplete,231,number,1,right,Green_Circle_Dots_4.jpg,Purple_Star_Dots_1.jpg,Blue_Triangle_Chess_4.jpg,right,658.195000141859,true,high,NA,NA,NA,NA,NA,NA,NA,false
GK3VOSQB,385mdvingfsu7ikqnsjzxyjp4abjww,3glb5jmzf18nuusspty8xhyforvdg6,GK3VOSQB,2020-0188,2020-05-08,10:24:00,10:39:28,NA,incomplete,232,number,1,right,Purple_Plus_Grid_1.jpg,Blue_Triangle_Grid_4.jpg,Green_Star_Dots_1.jpg,right,502.28999997489154,true,high,NA,NA,NA,NA,NA,NA,NA,false
GK3VOSQB,385mdvingfsu7ikqnsjzxyjp4abjww,3glb5jmzf18nuusspty8xhyforvdg6,GK3VOSQB,2020-0188,2020-05-08,10:24:00,10:39:28,NA,incomplete,233,number,1,right,Green_Circle_Stripes_4.jpg,Purple_Triangle_Stripes_2.jpg,Red_Star_Grid_4.jpg,right,551.0350000113249,true,high,NA,NA,NA,NA,NA,NA,NA,false
GK3VOSQB,385mdvingfsu7ikqnsjzxyjp4abjww,3glb5jmzf18nuusspty8xhyforvdg6,GK3VOSQB,2020-0188,2020-05-08,10:24:00,10:39:28,NA,incomplete,234,number,1,left,Purple_Triangle_Dots_2.jpg,Red_Circle_Stripes_2.jpg,Blue_Plus_Dots_4.jpg,left,648.8999999128282,true,high,NA,NA,NA,NA,NA,NA,NA,false
GK3VOSQB,385mdvingfsu7ikqnsjzxyjp4abjww,3glb5jmzf18nuusspty8xhyforvdg6,GK3VOSQB,2020-0188,2020-05-08,10:24:00,10:39:28,NA,incomplete,235,number,0,right,Red_Circle_Stripes_1.jpg,Green_Triangle_Stripes_2.jpg,Blue_Plus_Chess_1.jpg,right,579.6100001316518,true,high,NA,NA,NA,NA,NA,NA,NA,false
GK3VOSQB,385mdvingfsu7ikqnsjzxyjp4abjww,3glb5jmzf18nuusspty8xhyforvdg6,GK3VOSQB,2020-0188,2020-05-08,10:24:00,10:39:28,NA,incomplete,236,number,1,left,Purple_Triangle_Grid_4.jpg,Blue_Plus_Stripes_4.jpg,Red_Circle_Grid_3.jpg,left,726.1949998792261,true,high,NA,NA,NA,NA,NA,NA,NA,false
GK3VOSQB,385mdvingfsu7ikqnsjzxyjp4abjww,3glb5jmzf18nuusspty8xhyforvdg6,GK3VOSQB,2020-0188,2020-05-08,10:24:00,10:39:28,NA,incomplete,237,number,0,right,Purple_Circle_Grid_1.jpg,Red_Triangle_Grid_2.jpg,Green_Plus_Stripes_1.jpg,right,534.6949999220669,true,high,NA,NA,NA,NA,NA,NA,NA,false
GK3VOSQB,385mdvingfsu7ikqnsjzxyjp4abjww,3glb5jmzf18nuusspty8xhyforvdg6,GK3VOSQB,2020-0188,2020-05-08,10:24:00,10:39:28,NA,incomplete,238,number,1,left,Green_Triangle_Grid_1.jpg,Blue_Plus_Chess_1.jpg,Purple_Star_Grid_3.jpg,left,545.2550000045449,true,high,NA,NA,NA,NA,NA,NA,NA,false
GK3VOSQB,385mdvingfsu7ikqnsjzxyjp4abjww,3glb5jmzf18nuusspty8xhyforvdg6,GK3VOSQB,2020-0188,2020-05-08,10:24:00,10:39:28,NA,incomplete,239,number,1,left,Green_Triangle_Stripes_3.jpg,Blue_Circle_Chess_3.jpg,Purple_Plus_Stripes_2.jpg,left,665.694999974221,true,high,NA,NA,NA,NA,NA,NA,NA,false
GK3VOSQB,385mdvingfsu7ikqnsjzxyjp4abjww,3glb5jmzf18nuusspty8xhyforvdg6,GK3VOSQB,2020-0188,2020-05-08,10:24:00,10:39:28,849973.7400000449,928669.574999949,NA,NA,NA,NA,NA,NA,NA,NA,NA,NA,NA,32,White/Caucasian,Male,European,no,yes,no,undefined
