workerId,hitId,assignmentId,subject,studyid,exp_date,exp_start,exp_end,time_start,time_end,trial,type,reward_validity,answer,image_top,image_left,image_right,response,response_time,response_acc,volatility,practice
IeHopwR4,30oitawpctgn4gcs6h6m71vz0jeh92,3gna64guzihj367ddjl1tjeqium5qy,IeHopwR4,2020-0188,2020-11-20,03:55:28,04:28:57,NA,incomplete,0,shape,0,left,Blue_Star_Stripes_4.jpg,Red_Star_Grid_3.jpg,Blue_Circle_Chess_1.jpg,left,979.8900000168942,true,NA,true
IeHopwR4,30oitawpctgn4gcs6h6m71vz0jeh92,3gna64guzihj367ddjl1tjeqium5qy,IeHopwR4,2020-0188,2020-11-20,03:55:28,04:28:57,NA,incomplete,1,shape,1,right,Green_Circle_Stripes_3.jpg,Green_Triangle_Dots_2.jpg,Red_Circle_Grid_1.jpg,right,918.5799999977462,true,NA,true
IeHopwR4,30oitawpctgn4gcs6h6m71vz0jeh92,3gna64guzihj367ddjl1tjeqium5qy,IeHopwR4,2020-0188,2020-11-20,03:55:28,04:28:57,NA,incomplete,2,shape,1,left,Green_Plus_Stripes_1.jpg,Purple_Plus_Dots_4.jpg,Green_Circle_Chess_3.jpg,left,978.865000011865,true,NA,true
IeHopwR4,30oitawpctgn4gcs6h6m71vz0jeh92,3gna64guzihj367ddjl1tjeqium5qy,IeHopwR4,2020-0188,2020-11-20,03:55:28,04:28:57,NA,incomplete,3,shape,1,left,Red_Circle_Grid_3.jpg,Blue_Circle_Dots_2.jpg,Red_Star_Stripes_1.jpg,left,937.2149999835528,true,NA,true
IeHopwR4,30oitawpctgn4gcs6h6m71vz0jeh92,3gna64guzihj367ddjl1tjeqium5qy,IeHopwR4,2020-0188,2020-11-20,03:55:28,04:28:57,NA,incomplete,4,shape,1,right,Green_Circle_Dots_2.jpg,Green_Triangle_Stripes_3.jpg,Purple_Circle_Chess_1.jpg,right,1220.1549999881536,true,NA,true
IeHopwR4,30oitawpctgn4gcs6h6m71vz0jeh92,3gna64guzihj367ddjl1tjeqium5qy,IeHopwR4,2020-0188,2020-11-20,03:55:28,04:28:57,NA,incomplete,5,shape,1,right,Red_Star_Grid_4.jpg,Red_Triangle_Dots_2.jpg,Purple_Star_Stripes_3.jpg,right,1034.9399999831803,true,NA,true
IeHopwR4,30oitawpctgn4gcs6h6m71vz0jeh92,3gna64guzihj367ddjl1tjeqium5qy,IeHopwR4,2020-0188,2020-11-20,03:55:28,04:28:57,NA,incomplete,6,shape,1,right,Blue_Star_Grid_1.jpg,Blue_Triangle_Dots_4.jpg,Red_Star_Chess_2.jpg,right,767.6900000078604,true,NA,true
IeHopwR4,30oitawpctgn4gcs6h6m71vz0jeh92,3gna64guzihj367ddjl1tjeqium5qy,IeHopwR4,2020-0188,2020-11-20,03:55:28,04:28:57,NA,incomplete,7,shape,1,right,Blue_Star_Chess_1.jpg,Blue_Triangle_Grid_4.jpg,Purple_Star_Stripes_2.jpg,right,806.284999998752,true,NA,true
IeHopwR4,30oitawpctgn4gcs6h6m71vz0jeh92,3gna64guzihj367ddjl1tjeqium5qy,IeHopwR4,2020-0188,2020-11-20,03:55:28,04:28:57,NA,incomplete,8,shape,1,right,Purple_Plus_Dots_4.jpg,Purple_Triangle_Grid_3.jpg,Green_Plus_Stripes_2.jpg,right,786.3450000295416,true,NA,true
IeHopwR4,30oitawpctgn4gcs6h6m71vz0jeh92,3gna64guzihj367ddjl1tjeqium5qy,IeHopwR4,2020-0188,2020-11-20,03:55:28,04:28:57,NA,incomplete,9,shape,1,right,Blue_Triangle_Dots_1.jpg,Blue_Plus_Stripes_2.jpg,Red_Triangle_Chess_4.jpg,right,1019.3149999831803,true,NA,true
IeHopwR4,30oitawpctgn4gcs6h6m71vz0jeh92,3gna64guzihj367ddjl1tjeqium5qy,IeHopwR4,2020-0188,2020-11-20,03:55:28,04:28:57,NA,incomplete,10,shape,1,left,Green_Circle_Stripes_4.jpg,Red_Circle_Chess_2.jpg,Green_Plus_Dots_3.jpg,left,803.1450000125915,true,NA,true
IeHopwR4,30oitawpctgn4gcs6h6m71vz0jeh92,3gna64guzihj367ddjl1tjeqium5qy,IeHopwR4,2020-0188,2020-11-20,03:55:28,04:28:57,NA,incomplete,11,shape,0,right,Blue_Star_Dots_2.jpg,Blue_Circle_Chess_1.jpg,Purple_Star_Grid_3.jpg,right,809.0800000354648,true,NA,true
IeHopwR4,30oitawpctgn4gcs6h6m71vz0jeh92,3gna64guzihj367ddjl1tjeqium5qy,IeHopwR4,2020-0188,2020-11-20,03:55:28,04:28:57,NA,incomplete,12,shape,1,left,Blue_Star_Grid_1.jpg,Green_Star_Chess_4.jpg,Blue_Circle_Dots_2.jpg,left,684.4250000431202,true,NA,true
IeHopwR4,30oitawpctgn4gcs6h6m71vz0jeh92,3gna64guzihj367ddjl1tjeqium5qy,IeHopwR4,2020-0188,2020-11-20,03:55:28,04:28:57,NA,incomplete,13,shape,1,right,Blue_Star_Stripes_1.jpg,Blue_Plus_Chess_3.jpg,Green_Star_Dots_4.jpg,right,956.8500000168569,true,NA,true
IeHopwR4,30oitawpctgn4gcs6h6m71vz0jeh92,3gna64guzihj367ddjl1tjeqium5qy,IeHopwR4,2020-0188,2020-11-20,03:55:28,04:28:57,NA,incomplete,14,shape,0,right,Red_Plus_Grid_4.jpg,Red_Star_Dots_2.jpg,Blue_Plus_Chess_1.jpg,right,817.574999993667,true,NA,true
IeHopwR4,30oitawpctgn4gcs6h6m71vz0jeh92,3gna64guzihj367ddjl1tjeqium5qy,IeHopwR4,2020-0188,2020-11-20,03:55:28,04:28:57,NA,incomplete,15,shape,0,left,Purple_Plus_Dots_1.jpg,Blue_Plus_Stripes_3.jpg,Purple_Star_Grid_2.jpg,left,851.3549999915995,true,NA,true
IeHopwR4,30oitawpctgn4gcs6h6m71vz0jeh92,3gna64guzihj367ddjl1tjeqium5qy,IeHopwR4,2020-0188,2020-11-20,03:55:28,04:28:57,NA,incomplete,16,shape,1,right,Purple_Star_Stripes_2.jpg,Purple_Plus_Chess_3.jpg,Red_Star_Grid_4.jpg,right,747.4049999727868,true,NA,true
IeHopwR4,30oitawpctgn4gcs6h6m71vz0jeh92,3gna64guzihj367ddjl1tjeqium5qy,IeHopwR4,2020-0188,2020-11-20,03:55:28,04:28:57,NA,incomplete,17,shape,1,right,Green_Star_Grid_4.jpg,Green_Plus_Stripes_2.jpg,Red_Star_Dots_3.jpg,right,704.619999974966,true,NA,true
IeHopwR4,30oitawpctgn4gcs6h6m71vz0jeh92,3gna64guzihj367ddjl1tjeqium5qy,IeHopwR4,2020-0188,2020-11-20,03:55:28,04:28:57,NA,incomplete,18,shape,1,right,Red_Star_Dots_3.jpg,Red_Circle_Stripes_4.jpg,Purple_Star_Grid_1.jpg,right,753.919999988284,true,NA,true
IeHopwR4,30oitawpctgn4gcs6h6m71vz0jeh92,3gna64guzihj367ddjl1tjeqium5qy,IeHopwR4,2020-0188,2020-11-20,03:55:28,04:28:57,NA,incomplete,19,shape,1,left,Green_Triangle_Dots_2.jpg,Purple_Triangle_Chess_4.jpg,Green_Plus_Stripes_1.jpg,left,829.8649999778718,true,NA,true
IeHopwR4,30oitawpctgn4gcs6h6m71vz0jeh92,3gna64guzihj367ddjl1tjeqium5qy,IeHopwR4,2020-0188,2020-11-20,03:55:28,04:28:57,NA,incomplete,20,color,1,right,Red_Triangle_Dots_2.jpg,Blue_Triangle_Grid_3.jpg,Red_Star_Stripes_1.jpg,right,1691.835000005085,true,NA,true
IeHopwR4,30oitawpctgn4gcs6h6m71vz0jeh92,3gna64guzihj367ddjl1tjeqium5qy,IeHopwR4,2020-0188,2020-11-20,03:55:28,04:28:57,NA,incomplete,21,color,1,right,Red_Circle_Chess_3.jpg,Purple_Circle_Stripes_2.jpg,Red_Plus_Dots_1.jpg,right,1049.9350000172853,true,NA,true
IeHopwR4,30oitawpctgn4gcs6h6m71vz0jeh92,3gna64guzihj367ddjl1tjeqium5qy,IeHopwR4,2020-0188,2020-11-20,03:55:28,04:28:57,NA,incomplete,22,color,1,left,Purple_Star_Grid_1.jpg,Purple_Circle_Stripes_2.jpg,Blue_Star_Dots_3.jpg,left,1271.4350000023842,true,NA,true
IeHopwR4,30oitawpctgn4gcs6h6m71vz0jeh92,3gna64guzihj367ddjl1tjeqium5qy,IeHopwR4,2020-0188,2020-11-20,03:55:28,04:28:57,NA,incomplete,23,color,0,left,Red_Plus_Stripes_2.jpg,Red_Circle_Chess_4.jpg,Green_Plus_Grid_1.jpg,left,666.3100000005215,true,NA,true
IeHopwR4,30oitawpctgn4gcs6h6m71vz0jeh92,3gna64guzihj367ddjl1tjeqium5qy,IeHopwR4,2020-0188,2020-11-20,03:55:28,04:28:57,NA,incomplete,24,color,1,right,Red_Star_Grid_4.jpg,Green_Star_Chess_1.jpg,Red_Triangle_Stripes_2.jpg,right,580.9100000187755,true,NA,true
IeHopwR4,30oitawpctgn4gcs6h6m71vz0jeh92,3gna64guzihj367ddjl1tjeqium5qy,IeHopwR4,2020-0188,2020-11-20,03:55:28,04:28:57,NA,incomplete,25,color,1,right,Green_Triangle_Dots_3.jpg,Red_Triangle_Grid_1.jpg,Green_Plus_Stripes_2.jpg,right,614.8350000148639,true,NA,true
IeHopwR4,30oitawpctgn4gcs6h6m71vz0jeh92,3gna64guzihj367ddjl1tjeqium5qy,IeHopwR4,2020-0188,2020-11-20,03:55:28,04:28:57,NA,incomplete,26,color,1,left,Red_Triangle_Stripes_3.jpg,Red_Plus_Dots_2.jpg,Purple_Triangle_Chess_1.jpg,left,620.2200000407174,true,NA,true
IeHopwR4,30oitawpctgn4gcs6h6m71vz0jeh92,3gna64guzihj367ddjl1tjeqium5qy,IeHopwR4,2020-0188,2020-11-20,03:55:28,04:28:57,NA,incomplete,27,color,1,right,Purple_Circle_Chess_3.jpg,Blue_Circle_Stripes_1.jpg,Purple_Star_Dots_4.jpg,right,607.8650000272319,true,NA,true
IeHopwR4,30oitawpctgn4gcs6h6m71vz0jeh92,3gna64guzihj367ddjl1tjeqium5qy,IeHopwR4,2020-0188,2020-11-20,03:55:28,04:28:57,NA,incomplete,28,color,0,right,Green_Star_Dots_4.jpg,Purple_Star_Grid_1.jpg,Green_Circle_Chess_3.jpg,right,683.4900000249036,true,NA,true
IeHopwR4,30oitawpctgn4gcs6h6m71vz0jeh92,3gna64guzihj367ddjl1tjeqium5qy,IeHopwR4,2020-0188,2020-11-20,03:55:28,04:28:57,NA,incomplete,29,color,1,right,Purple_Plus_Dots_3.jpg,Green_Plus_Stripes_1.jpg,Purple_Circle_Chess_2.jpg,right,571.3049999903888,true,NA,true
IeHopwR4,30oitawpctgn4gcs6h6m71vz0jeh92,3gna64guzihj367ddjl1tjeqium5qy,IeHopwR4,2020-0188,2020-11-20,03:55:28,04:28:57,NA,incomplete,30,color,1,left,Blue_Triangle_Chess_2.jpg,Blue_Plus_Grid_3.jpg,Red_Triangle_Dots_1.jpg,left,685.2749999961816,true,NA,true
IeHopwR4,30oitawpctgn4gcs6h6m71vz0jeh92,3gna64guzihj367ddjl1tjeqium5qy,IeHopwR4,2020-0188,2020-11-20,03:55:28,04:28:57,NA,incomplete,31,color,1,left,Purple_Triangle_Chess_2.jpg,Purple_Plus_Stripes_3.jpg,Green_Triangle_Grid_4.jpg,left,697.6649999851361,true,NA,true
IeHopwR4,30oitawpctgn4gcs6h6m71vz0jeh92,3gna64guzihj367ddjl1tjeqium5qy,IeHopwR4,2020-0188,2020-11-20,03:55:28,04:28:57,NA,incomplete,32,color,1,left,Red_Circle_Stripes_3.jpg,Red_Star_Grid_4.jpg,Blue_Circle_Chess_2.jpg,left,634.5800000126474,true,NA,true
IeHopwR4,30oitawpctgn4gcs6h6m71vz0jeh92,3gna64guzihj367ddjl1tjeqium5qy,IeHopwR4,2020-0188,2020-11-20,03:55:28,04:28:57,NA,incomplete,33,color,1,right,Blue_Plus_Dots_1.jpg,Purple_Plus_Chess_4.jpg,Blue_Triangle_Grid_2.jpg,right,517.7200000034645,true,NA,true
IeHopwR4,30oitawpctgn4gcs6h6m71vz0jeh92,3gna64guzihj367ddjl1tjeqium5qy,IeHopwR4,2020-0188,2020-11-20,03:55:28,04:28:57,NA,incomplete,34,color,1,left,Blue_Triangle_Grid_4.jpg,Blue_Star_Dots_2.jpg,Red_Triangle_Stripes_1.jpg,left,615.8150000264868,true,NA,true
IeHopwR4,30oitawpctgn4gcs6h6m71vz0jeh92,3gna64guzihj367ddjl1tjeqium5qy,IeHopwR4,2020-0188,2020-11-20,03:55:28,04:28:57,NA,incomplete,35,color,1,left,Green_Star_Dots_4.jpg,Green_Triangle_Grid_3.jpg,Blue_Star_Stripes_1.jpg,left,565.5900000128895,true,NA,true
IeHopwR4,30oitawpctgn4gcs6h6m71vz0jeh92,3gna64guzihj367ddjl1tjeqium5qy,IeHopwR4,2020-0188,2020-11-20,03:55:28,04:28:57,NA,incomplete,36,color,1,left,Green_Star_Grid_1.jpg,Green_Circle_Dots_3.jpg,Purple_Star_Stripes_2.jpg,left,561.9450000231154,true,NA,true
IeHopwR4,30oitawpctgn4gcs6h6m71vz0jeh92,3gna64guzihj367ddjl1tjeqium5qy,IeHopwR4,2020-0188,2020-11-20,03:55:28,04:28:57,NA,incomplete,37,color,0,left,Purple_Star_Dots_4.jpg,Purple_Plus_Chess_1.jpg,Blue_Star_Grid_2.jpg,left,631.3300000037998,true,NA,true
IeHopwR4,30oitawpctgn4gcs6h6m71vz0jeh92,3gna64guzihj367ddjl1tjeqium5qy,IeHopwR4,2020-0188,2020-11-20,03:55:28,04:28:57,NA,incomplete,38,color,0,right,Purple_Plus_Grid_3.jpg,Green_Plus_Stripes_1.jpg,Purple_Triangle_Dots_4.jpg,right,754.1999999666587,true,NA,true
IeHopwR4,30oitawpctgn4gcs6h6m71vz0jeh92,3gna64guzihj367ddjl1tjeqium5qy,IeHopwR4,2020-0188,2020-11-20,03:55:28,04:28:57,NA,incomplete,39,color,1,right,Purple_Triangle_Grid_4.jpg,Blue_Triangle_Chess_1.jpg,Purple_Circle_Stripes_2.jpg,right,563.8499999768101,true,NA,true
IeHopwR4,30oitawpctgn4gcs6h6m71vz0jeh92,3gna64guzihj367ddjl1tjeqium5qy,IeHopwR4,2020-0188,2020-11-20,03:55:28,04:28:57,NA,incomplete,0,shape,1,left,Green_Triangle_Stripes_3.jpg,Red_Triangle_Chess_2.jpg,Green_Plus_Dots_4.jpg,right,1245.4399999696761,false,low,false
IeHopwR4,30oitawpctgn4gcs6h6m71vz0jeh92,3gna64guzihj367ddjl1tjeqium5qy,IeHopwR4,2020-0188,2020-11-20,03:55:28,04:28:57,NA,incomplete,1,shape,1,left,Green_Triangle_Chess_3.jpg,Red_Triangle_Stripes_2.jpg,Green_Star_Dots_4.jpg,right,778.1400000094436,false,low,false
IeHopwR4,30oitawpctgn4gcs6h6m71vz0jeh92,3gna64guzihj367ddjl1tjeqium5qy,IeHopwR4,2020-0188,2020-11-20,03:55:28,04:28:57,NA,incomplete,2,shape,1,right,Red_Triangle_Stripes_4.jpg,Red_Circle_Grid_1.jpg,Blue_Triangle_Chess_2.jpg,right,691.1400000099093,true,low,false
IeHopwR4,30oitawpctgn4gcs6h6m71vz0jeh92,3gna64guzihj367ddjl1tjeqium5qy,IeHopwR4,2020-0188,2020-11-20,03:55:28,04:28:57,NA,incomplete,3,shape,1,right,Blue_Circle_Grid_3.jpg,Blue_Plus_Stripes_1.jpg,Purple_Circle_Dots_4.jpg,right,623.3800000045449,true,low,false
IeHopwR4,30oitawpctgn4gcs6h6m71vz0jeh92,3gna64guzihj367ddjl1tjeqium5qy,IeHopwR4,2020-0188,2020-11-20,03:55:28,04:28:57,NA,incomplete,4,shape,1,left,Red_Star_Stripes_3.jpg,Green_Star_Chess_4.jpg,Red_Circle_Dots_2.jpg,left,761.6099999868311,true,low,false
IeHopwR4,30oitawpctgn4gcs6h6m71vz0jeh92,3gna64guzihj367ddjl1tjeqium5qy,IeHopwR4,2020-0188,2020-11-20,03:55:28,04:28:57,NA,incomplete,5,shape,1,left,Blue_Circle_Stripes_1.jpg,Red_Circle_Grid_3.jpg,Blue_Star_Chess_2.jpg,left,702.5499999872409,true,low,false
IeHopwR4,30oitawpctgn4gcs6h6m71vz0jeh92,3gna64guzihj367ddjl1tjeqium5qy,IeHopwR4,2020-0188,2020-11-20,03:55:28,04:28:57,NA,incomplete,6,shape,1,left,Green_Circle_Dots_1.jpg,Purple_Circle_Chess_4.jpg,Green_Star_Grid_3.jpg,left,632.4850000091828,true,low,false
IeHopwR4,30oitawpctgn4gcs6h6m71vz0jeh92,3gna64guzihj367ddjl1tjeqium5qy,IeHopwR4,2020-0188,2020-11-20,03:55:28,04:28:57,NA,incomplete,7,shape,1,right,Blue_Plus_Grid_3.jpg,Blue_Star_Dots_2.jpg,Purple_Plus_Stripes_4.jpg,right,641.2750000017695,true,low,false
IeHopwR4,30oitawpctgn4gcs6h6m71vz0jeh92,3gna64guzihj367ddjl1tjeqium5qy,IeHopwR4,2020-0188,2020-11-20,03:55:28,04:28:57,NA,incomplete,8,shape,1,right,Green_Triangle_Chess_4.jpg,Green_Circle_Stripes_2.jpg,Red_Triangle_Dots_3.jpg,right,592.7399999927729,true,low,false
IeHopwR4,30oitawpctgn4gcs6h6m71vz0jeh92,3gna64guzihj367ddjl1tjeqium5qy,IeHopwR4,2020-0188,2020-11-20,03:55:28,04:28:57,NA,incomplete,9,shape,1,right,Red_Star_Grid_1.jpg,Red_Circle_Stripes_3.jpg,Purple_Star_Dots_4.jpg,right,679.2249999707565,true,low,false
IeHopwR4,30oitawpctgn4gcs6h6m71vz0jeh92,3gna64guzihj367ddjl1tjeqium5qy,IeHopwR4,2020-0188,2020-11-20,03:55:28,04:28:57,NA,incomplete,10,shape,1,right,Red_Circle_Stripes_4.jpg,Red_Triangle_Grid_2.jpg,Purple_Circle_Chess_3.jpg,right,828.9499999955297,true,low,false
IeHopwR4,30oitawpctgn4gcs6h6m71vz0jeh92,3gna64guzihj367ddjl1tjeqium5qy,IeHopwR4,2020-0188,2020-11-20,03:55:28,04:28:57,NA,incomplete,11,shape,1,right,Purple_Triangle_Chess_3.jpg,Purple_Star_Stripes_4.jpg,Red_Triangle_Dots_1.jpg,right,1102.7049999684095,true,low,false
IeHopwR4,30oitawpctgn4gcs6h6m71vz0jeh92,3gna64guzihj367ddjl1tjeqium5qy,IeHopwR4,2020-0188,2020-11-20,03:55:28,04:28:57,NA,incomplete,12,shape,1,left,Purple_Plus_Dots_4.jpg,Blue_Plus_Stripes_1.jpg,Purple_Triangle_Grid_2.jpg,left,747.6499999756925,true,low,false
IeHopwR4,30oitawpctgn4gcs6h6m71vz0jeh92,3gna64guzihj367ddjl1tjeqium5qy,IeHopwR4,2020-0188,2020-11-20,03:55:28,04:28:57,NA,incomplete,13,shape,0,right,Red_Circle_Chess_2.jpg,Red_Star_Stripes_1.jpg,Green_Circle_Grid_3.jpg,right,510.0000000093132,true,low,false
IeHopwR4,30oitawpctgn4gcs6h6m71vz0jeh92,3gna64guzihj367ddjl1tjeqium5qy,IeHopwR4,2020-0188,2020-11-20,03:55:28,04:28:57,NA,incomplete,14,shape,0,right,Blue_Plus_Stripes_2.jpg,Blue_Circle_Grid_3.jpg,Red_Plus_Chess_4.jpg,right,585.2699999813922,true,low,false
IeHopwR4,30oitawpctgn4gcs6h6m71vz0jeh92,3gna64guzihj367ddjl1tjeqium5qy,IeHopwR4,2020-0188,2020-11-20,03:55:28,04:28:57,NA,incomplete,15,shape,1,left,Blue_Circle_Dots_1.jpg,Red_Circle_Stripes_2.jpg,Blue_Star_Chess_4.jpg,left,596.1300000199117,true,low,false
IeHopwR4,30oitawpctgn4gcs6h6m71vz0jeh92,3gna64guzihj367ddjl1tjeqium5qy,IeHopwR4,2020-0188,2020-11-20,03:55:28,04:28:57,NA,incomplete,16,shape,1,right,Blue_Circle_Dots_1.jpg,Blue_Triangle_Stripes_4.jpg,Green_Circle_Grid_3.jpg,right,528.1149999937043,true,low,false
IeHopwR4,30oitawpctgn4gcs6h6m71vz0jeh92,3gna64guzihj367ddjl1tjeqium5qy,IeHopwR4,2020-0188,2020-11-20,03:55:28,04:28:57,NA,incomplete,17,shape,0,left,Purple_Triangle_Dots_1.jpg,Green_Triangle_Stripes_3.jpg,Purple_Circle_Grid_2.jpg,left,716.8100000126287,true,low,false
IeHopwR4,30oitawpctgn4gcs6h6m71vz0jeh92,3gna64guzihj367ddjl1tjeqium5qy,IeHopwR4,2020-0188,2020-11-20,03:55:28,04:28:57,NA,incomplete,18,shape,1,left,Blue_Triangle_Stripes_1.jpg,Red_Triangle_Dots_4.jpg,Blue_Circle_Grid_2.jpg,left,893.2950000162236,true,low,false
IeHopwR4,30oitawpctgn4gcs6h6m71vz0jeh92,3gna64guzihj367ddjl1tjeqium5qy,IeHopwR4,2020-0188,2020-11-20,03:55:28,04:28:57,NA,incomplete,19,shape,1,right,Purple_Plus_Chess_4.jpg,Purple_Triangle_Stripes_2.jpg,Red_Plus_Dots_3.jpg,right,639.6650000242516,true,low,false
IeHopwR4,30oitawpctgn4gcs6h6m71vz0jeh92,3gna64guzihj367ddjl1tjeqium5qy,IeHopwR4,2020-0188,2020-11-20,03:55:28,04:28:57,NA,incomplete,20,shape,1,left,Green_Star_Dots_2.jpg,Blue_Star_Stripes_3.jpg,Green_Triangle_Chess_4.jpg,left,812.6350000384264,true,low,false
IeHopwR4,30oitawpctgn4gcs6h6m71vz0jeh92,3gna64guzihj367ddjl1tjeqium5qy,IeHopwR4,2020-0188,2020-11-20,03:55:28,04:28:57,NA,incomplete,21,shape,0,left,Green_Star_Stripes_4.jpg,Red_Star_Dots_1.jpg,Green_Plus_Chess_3.jpg,left,1018.3100000140257,true,low,false
IeHopwR4,30oitawpctgn4gcs6h6m71vz0jeh92,3gna64guzihj367ddjl1tjeqium5qy,IeHopwR4,2020-0188,2020-11-20,03:55:28,04:28:57,NA,incomplete,22,shape,1,left,Purple_Plus_Stripes_3.jpg,Green_Plus_Dots_2.jpg,Purple_Circle_Chess_1.jpg,left,726.2299999711104,true,low,false
IeHopwR4,30oitawpctgn4gcs6h6m71vz0jeh92,3gna64guzihj367ddjl1tjeqium5qy,IeHopwR4,2020-0188,2020-11-20,03:55:28,04:28:57,NA,incomplete,23,shape,1,right,Purple_Star_Dots_2.jpg,Purple_Plus_Chess_4.jpg,Red_Star_Grid_3.jpg,right,670.4700000118464,true,low,false
IeHopwR4,30oitawpctgn4gcs6h6m71vz0jeh92,3gna64guzihj367ddjl1tjeqium5qy,IeHopwR4,2020-0188,2020-11-20,03:55:28,04:28:57,NA,incomplete,24,shape,0,right,Purple_Plus_Grid_3.jpg,Purple_Triangle_Dots_4.jpg,Green_Plus_Stripes_1.jpg,right,808.9649999747053,true,low,false
IeHopwR4,30oitawpctgn4gcs6h6m71vz0jeh92,3gna64guzihj367ddjl1tjeqium5qy,IeHopwR4,2020-0188,2020-11-20,03:55:28,04:28:57,NA,incomplete,25,shape,1,right,Green_Star_Grid_1.jpg,Green_Plus_Chess_4.jpg,Blue_Star_Stripes_3.jpg,right,834.569999948144,true,low,false
IeHopwR4,30oitawpctgn4gcs6h6m71vz0jeh92,3gna64guzihj367ddjl1tjeqium5qy,IeHopwR4,2020-0188,2020-11-20,03:55:28,04:28:57,NA,incomplete,26,shape,1,left,Green_Star_Dots_2.jpg,Blue_Star_Stripes_3.jpg,Green_Circle_Chess_1.jpg,left,636.5400000358932,true,low,false
IeHopwR4,30oitawpctgn4gcs6h6m71vz0jeh92,3gna64guzihj367ddjl1tjeqium5qy,IeHopwR4,2020-0188,2020-11-20,03:55:28,04:28:57,NA,incomplete,27,shape,1,right,Blue_Plus_Chess_3.jpg,Blue_Circle_Grid_2.jpg,Purple_Plus_Stripes_1.jpg,right,603.3000000170432,true,low,false
IeHopwR4,30oitawpctgn4gcs6h6m71vz0jeh92,3gna64guzihj367ddjl1tjeqium5qy,IeHopwR4,2020-0188,2020-11-20,03:55:28,04:28:57,NA,incomplete,28,shape,1,right,Green_Triangle_Grid_1.jpg,Green_Plus_Chess_4.jpg,Red_Triangle_Dots_2.jpg,right,628.9850000175647,true,low,false
IeHopwR4,30oitawpctgn4gcs6h6m71vz0jeh92,3gna64guzihj367ddjl1tjeqium5qy,IeHopwR4,2020-0188,2020-11-20,03:55:28,04:28:57,NA,incomplete,29,shape,1,right,Red_Star_Stripes_4.jpg,Red_Circle_Grid_3.jpg,Green_Star_Dots_1.jpg,right,597.5800000014715,true,low,false
IeHopwR4,30oitawpctgn4gcs6h6m71vz0jeh92,3gna64guzihj367ddjl1tjeqium5qy,IeHopwR4,2020-0188,2020-11-20,03:55:28,04:28:57,NA,incomplete,30,color,1,right,Green_Star_Dots_3.jpg,Blue_Star_Stripes_2.jpg,Green_Circle_Grid_4.jpg,left,553.9499999722466,false,low,false
IeHopwR4,30oitawpctgn4gcs6h6m71vz0jeh92,3gna64guzihj367ddjl1tjeqium5qy,IeHopwR4,2020-0188,2020-11-20,03:55:28,04:28:57,NA,incomplete,31,color,1,left,Blue_Circle_Stripes_2.jpg,Blue_Triangle_Grid_3.jpg,Green_Circle_Chess_1.jpg,right,578.9150000200607,false,low,false
IeHopwR4,30oitawpctgn4gcs6h6m71vz0jeh92,3gna64guzihj367ddjl1tjeqium5qy,IeHopwR4,2020-0188,2020-11-20,03:55:28,04:28:57,NA,incomplete,32,color,1,right,Blue_Circle_Grid_1.jpg,Green_Circle_Dots_4.jpg,Blue_Star_Stripes_2.jpg,left,696.8599999672733,false,low,false
IeHopwR4,30oitawpctgn4gcs6h6m71vz0jeh92,3gna64guzihj367ddjl1tjeqium5qy,IeHopwR4,2020-0188,2020-11-20,03:55:28,04:28:57,NA,incomplete,33,color,1,left,Green_Plus_Stripes_2.jpg,Green_Star_Chess_1.jpg,Red_Plus_Dots_3.jpg,left,619.1949999774806,true,low,false
IeHopwR4,30oitawpctgn4gcs6h6m71vz0jeh92,3gna64guzihj367ddjl1tjeqium5qy,IeHopwR4,2020-0188,2020-11-20,03:55:28,04:28:57,NA,incomplete,34,color,1,right,Blue_Plus_Stripes_3.jpg,Purple_Plus_Chess_4.jpg,Blue_Triangle_Dots_2.jpg,right,437.4200000311248,true,low,false
IeHopwR4,30oitawpctgn4gcs6h6m71vz0jeh92,3gna64guzihj367ddjl1tjeqium5qy,IeHopwR4,2020-0188,2020-11-20,03:55:28,04:28:57,NA,incomplete,35,color,1,left,Purple_Plus_Stripes_4.jpg,Purple_Star_Chess_2.jpg,Green_Plus_Grid_1.jpg,left,493.50500002037734,true,low,false
IeHopwR4,30oitawpctgn4gcs6h6m71vz0jeh92,3gna64guzihj367ddjl1tjeqium5qy,IeHopwR4,2020-0188,2020-11-20,03:55:28,04:28:57,NA,incomplete,36,color,1,left,Blue_Triangle_Stripes_2.jpg,Blue_Plus_Dots_1.jpg,Green_Triangle_Grid_3.jpg,left,535.1299999747425,true,low,false
IeHopwR4,30oitawpctgn4gcs6h6m71vz0jeh92,3gna64guzihj367ddjl1tjeqium5qy,IeHopwR4,2020-0188,2020-11-20,03:55:28,04:28:57,NA,incomplete,37,color,1,right,Purple_Star_Grid_1.jpg,Red_Star_Stripes_2.jpg,Purple_Plus_Dots_3.jpg,right,501.0699999984354,true,low,false
IeHopwR4,30oitawpctgn4gcs6h6m71vz0jeh92,3gna64guzihj367ddjl1tjeqium5qy,IeHopwR4,2020-0188,2020-11-20,03:55:28,04:28:57,NA,incomplete,38,color,0,left,Green_Star_Stripes_4.jpg,Green_Plus_Dots_3.jpg,Purple_Star_Grid_2.jpg,left,617.5749999820255,true,low,false
IeHopwR4,30oitawpctgn4gcs6h6m71vz0jeh92,3gna64guzihj367ddjl1tjeqium5qy,IeHopwR4,2020-0188,2020-11-20,03:55:28,04:28:57,NA,incomplete,39,color,1,right,Red_Triangle_Chess_4.jpg,Purple_Triangle_Stripes_3.jpg,Red_Circle_Grid_1.jpg,right,509.9000000045635,true,low,false
IeHopwR4,30oitawpctgn4gcs6h6m71vz0jeh92,3gna64guzihj367ddjl1tjeqium5qy,IeHopwR4,2020-0188,2020-11-20,03:55:28,04:28:57,NA,incomplete,40,color,1,right,Blue_Circle_Chess_1.jpg,Green_Circle_Stripes_4.jpg,Blue_Triangle_Dots_3.jpg,right,720.7199999829754,true,low,false
IeHopwR4,30oitawpctgn4gcs6h6m71vz0jeh92,3gna64guzihj367ddjl1tjeqium5qy,IeHopwR4,2020-0188,2020-11-20,03:55:28,04:28:57,NA,incomplete,41,color,1,left,Blue_Circle_Stripes_4.jpg,Blue_Triangle_Grid_3.jpg,Green_Circle_Dots_1.jpg,left,437.60999996447936,true,low,false
IeHopwR4,30oitawpctgn4gcs6h6m71vz0jeh92,3gna64guzihj367ddjl1tjeqium5qy,IeHopwR4,2020-0188,2020-11-20,03:55:28,04:28:57,NA,incomplete,42,color,0,left,Green_Plus_Chess_4.jpg,Green_Triangle_Dots_2.jpg,Red_Plus_Grid_3.jpg,left,439.4849999807775,true,low,false
IeHopwR4,30oitawpctgn4gcs6h6m71vz0jeh92,3gna64guzihj367ddjl1tjeqium5qy,IeHopwR4,2020-0188,2020-11-20,03:55:28,04:28:57,NA,incomplete,43,color,0,right,Purple_Star_Stripes_2.jpg,Green_Star_Dots_1.jpg,Purple_Circle_Chess_4.jpg,right,586.8149999878369,true,low,false
IeHopwR4,30oitawpctgn4gcs6h6m71vz0jeh92,3gna64guzihj367ddjl1tjeqium5qy,IeHopwR4,2020-0188,2020-11-20,03:55:28,04:28:57,NA,incomplete,44,color,0,right,Red_Circle_Dots_2.jpg,Blue_Circle_Stripes_3.jpg,Red_Triangle_Grid_1.jpg,right,488.30000002635643,true,low,false
IeHopwR4,30oitawpctgn4gcs6h6m71vz0jeh92,3gna64guzihj367ddjl1tjeqium5qy,IeHopwR4,2020-0188,2020-11-20,03:55:28,04:28:57,NA,incomplete,45,color,1,left,Purple_Triangle_Chess_2.jpg,Purple_Plus_Grid_1.jpg,Blue_Triangle_Stripes_3.jpg,right,565.1250000228174,false,low,false
IeHopwR4,30oitawpctgn4gcs6h6m71vz0jeh92,3gna64guzihj367ddjl1tjeqium5qy,IeHopwR4,2020-0188,2020-11-20,03:55:28,04:28:57,NA,incomplete,46,color,0,left,Red_Triangle_Stripes_3.jpg,Red_Star_Dots_2.jpg,Green_Triangle_Chess_4.jpg,right,1386.9100000010803,false,low,false
IeHopwR4,30oitawpctgn4gcs6h6m71vz0jeh92,3gna64guzihj367ddjl1tjeqium5qy,IeHopwR4,2020-0188,2020-11-20,03:55:28,04:28:57,NA,incomplete,47,color,1,left,Green_Plus_Grid_3.jpg,Green_Star_Dots_4.jpg,Blue_Plus_Stripes_1.jpg,right,798.8199999672361,false,low,false
IeHopwR4,30oitawpctgn4gcs6h6m71vz0jeh92,3gna64guzihj367ddjl1tjeqium5qy,IeHopwR4,2020-0188,2020-11-20,03:55:28,04:28:57,NA,incomplete,48,color,1,right,Red_Triangle_Dots_2.jpg,Purple_Triangle_Chess_4.jpg,Red_Star_Stripes_1.jpg,right,576.8350000143982,true,low,false
IeHopwR4,30oitawpctgn4gcs6h6m71vz0jeh92,3gna64guzihj367ddjl1tjeqium5qy,IeHopwR4,2020-0188,2020-11-20,03:55:28,04:28:57,NA,incomplete,49,color,0,right,Green_Plus_Grid_3.jpg,Purple_Plus_Chess_2.jpg,Green_Triangle_Stripes_4.jpg,right,548.5449999687262,true,low,false
IeHopwR4,30oitawpctgn4gcs6h6m71vz0jeh92,3gna64guzihj367ddjl1tjeqium5qy,IeHopwR4,2020-0188,2020-11-20,03:55:28,04:28:57,NA,incomplete,50,color,1,left,Red_Star_Grid_2.jpg,Red_Triangle_Chess_3.jpg,Green_Star_Stripes_4.jpg,right,831.4350000000559,false,low,false
IeHopwR4,30oitawpctgn4gcs6h6m71vz0jeh92,3gna64guzihj367ddjl1tjeqium5qy,IeHopwR4,2020-0188,2020-11-20,03:55:28,04:28:57,NA,incomplete,51,color,1,right,Blue_Plus_Dots_4.jpg,Red_Plus_Stripes_3.jpg,Blue_Star_Grid_2.jpg,right,569.0799999865703,true,low,false
IeHopwR4,30oitawpctgn4gcs6h6m71vz0jeh92,3gna64guzihj367ddjl1tjeqium5qy,IeHopwR4,2020-0188,2020-11-20,03:55:28,04:28:57,NA,incomplete,52,color,1,left,Purple_Plus_Chess_2.jpg,Purple_Star_Grid_1.jpg,Red_Plus_Dots_3.jpg,left,1089.0200000139885,true,low,false
IeHopwR4,30oitawpctgn4gcs6h6m71vz0jeh92,3gna64guzihj367ddjl1tjeqium5qy,IeHopwR4,2020-0188,2020-11-20,03:55:28,04:28:57,NA,incomplete,53,color,0,right,Purple_Star_Stripes_3.jpg,Green_Star_Dots_2.jpg,Purple_Triangle_Chess_4.jpg,right,466.4300000295043,true,low,false
IeHopwR4,30oitawpctgn4gcs6h6m71vz0jeh92,3gna64guzihj367ddjl1tjeqium5qy,IeHopwR4,2020-0188,2020-11-20,03:55:28,04:28:57,NA,incomplete,54,color,1,left,Red_Triangle_Grid_1.jpg,Red_Plus_Dots_4.jpg,Green_Triangle_Chess_2.jpg,left,991.7199999908917,true,low,false
IeHopwR4,30oitawpctgn4gcs6h6m71vz0jeh92,3gna64guzihj367ddjl1tjeqium5qy,IeHopwR4,2020-0188,2020-11-20,03:55:28,04:28:57,NA,incomplete,55,color,1,left,Green_Circle_Dots_1.jpg,Green_Triangle_Grid_4.jpg,Red_Circle_Chess_3.jpg,left,823.5500000300817,true,low,false
IeHopwR4,30oitawpctgn4gcs6h6m71vz0jeh92,3gna64guzihj367ddjl1tjeqium5qy,IeHopwR4,2020-0188,2020-11-20,03:55:28,04:28:57,NA,incomplete,56,color,1,right,Green_Star_Stripes_2.jpg,Red_Star_Dots_1.jpg,Green_Circle_Grid_4.jpg,right,742.6099999574944,true,low,false
IeHopwR4,30oitawpctgn4gcs6h6m71vz0jeh92,3gna64guzihj367ddjl1tjeqium5qy,IeHopwR4,2020-0188,2020-11-20,03:55:28,04:28:57,NA,incomplete,57,color,1,left,Red_Plus_Chess_1.jpg,Red_Circle_Grid_2.jpg,Purple_Plus_Dots_3.jpg,left,574.2900000186637,true,low,false
IeHopwR4,30oitawpctgn4gcs6h6m71vz0jeh92,3gna64guzihj367ddjl1tjeqium5qy,IeHopwR4,2020-0188,2020-11-20,03:55:28,04:28:57,NA,incomplete,58,color,0,right,Blue_Triangle_Chess_3.jpg,Purple_Triangle_Dots_1.jpg,Blue_Circle_Stripes_2.jpg,right,718.6550000333227,true,low,false
IeHopwR4,30oitawpctgn4gcs6h6m71vz0jeh92,3gna64guzihj367ddjl1tjeqium5qy,IeHopwR4,2020-0188,2020-11-20,03:55:28,04:28:57,NA,incomplete,59,color,0,left,Red_Plus_Dots_4.jpg,Red_Triangle_Grid_3.jpg,Blue_Plus_Stripes_1.jpg,left,546.1099999956787,true,low,false
IeHopwR4,30oitawpctgn4gcs6h6m71vz0jeh92,3gna64guzihj367ddjl1tjeqium5qy,IeHopwR4,2020-0188,2020-11-20,03:55:28,04:28:57,NA,incomplete,60,shape,1,left,Purple_Plus_Stripes_3.jpg,Blue_Plus_Grid_2.jpg,Purple_Triangle_Dots_1.jpg,right,612.9300000029616,false,low,false
IeHopwR4,30oitawpctgn4gcs6h6m71vz0jeh92,3gna64guzihj367ddjl1tjeqium5qy,IeHopwR4,2020-0188,2020-11-20,03:55:28,04:28:57,NA,incomplete,61,shape,1,right,Blue_Plus_Grid_3.jpg,Blue_Star_Dots_2.jpg,Purple_Plus_Chess_4.jpg,right,637.7499999944121,true,low,false
IeHopwR4,30oitawpctgn4gcs6h6m71vz0jeh92,3gna64guzihj367ddjl1tjeqium5qy,IeHopwR4,2020-0188,2020-11-20,03:55:28,04:28:57,NA,incomplete,62,shape,1,right,Green_Circle_Grid_4.jpg,Green_Star_Dots_2.jpg,Blue_Circle_Chess_3.jpg,right,679.6000000322238,true,low,false
IeHopwR4,30oitawpctgn4gcs6h6m71vz0jeh92,3gna64guzihj367ddjl1tjeqium5qy,IeHopwR4,2020-0188,2020-11-20,03:55:28,04:28:57,NA,incomplete,63,shape,1,right,Purple_Star_Dots_1.jpg,Purple_Plus_Stripes_4.jpg,Green_Star_Chess_2.jpg,right,695.0300000025891,true,low,false
IeHopwR4,30oitawpctgn4gcs6h6m71vz0jeh92,3gna64guzihj367ddjl1tjeqium5qy,IeHopwR4,2020-0188,2020-11-20,03:55:28,04:28:57,NA,incomplete,64,shape,1,right,Purple_Triangle_Grid_2.jpg,Purple_Circle_Chess_1.jpg,Blue_Triangle_Stripes_3.jpg,right,1156.3700000406243,true,low,false
IeHopwR4,30oitawpctgn4gcs6h6m71vz0jeh92,3gna64guzihj367ddjl1tjeqium5qy,IeHopwR4,2020-0188,2020-11-20,03:55:28,04:28:57,NA,incomplete,65,shape,1,left,Purple_Triangle_Dots_3.jpg,Red_Triangle_Chess_2.jpg,Purple_Plus_Grid_4.jpg,left,848.2349999831058,true,low,false
IeHopwR4,30oitawpctgn4gcs6h6m71vz0jeh92,3gna64guzihj367ddjl1tjeqium5qy,IeHopwR4,2020-0188,2020-11-20,03:55:28,04:28:57,NA,incomplete,66,shape,0,left,Red_Star_Dots_3.jpg,Blue_Star_Stripes_4.jpg,Red_Triangle_Grid_1.jpg,left,1250.159999995958,true,low,false
IeHopwR4,30oitawpctgn4gcs6h6m71vz0jeh92,3gna64guzihj367ddjl1tjeqium5qy,IeHopwR4,2020-0188,2020-11-20,03:55:28,04:28:57,NA,incomplete,67,shape,1,left,Red_Triangle_Dots_1.jpg,Purple_Triangle_Grid_2.jpg,Red_Plus_Stripes_4.jpg,left,655.8199999853969,true,low,false
IeHopwR4,30oitawpctgn4gcs6h6m71vz0jeh92,3gna64guzihj367ddjl1tjeqium5qy,IeHopwR4,2020-0188,2020-11-20,03:55:28,04:28:57,NA,incomplete,68,shape,0,left,Red_Circle_Stripes_4.jpg,Green_Circle_Chess_2.jpg,Red_Triangle_Dots_1.jpg,left,611.2299999804236,true,low,false
IeHopwR4,30oitawpctgn4gcs6h6m71vz0jeh92,3gna64guzihj367ddjl1tjeqium5qy,IeHopwR4,2020-0188,2020-11-20,03:55:28,04:28:57,NA,incomplete,69,shape,0,left,Green_Star_Stripes_3.jpg,Blue_Star_Dots_2.jpg,Green_Plus_Grid_4.jpg,left,711.684999987483,true,low,false
IeHopwR4,30oitawpctgn4gcs6h6m71vz0jeh92,3gna64guzihj367ddjl1tjeqium5qy,IeHopwR4,2020-0188,2020-11-20,03:55:28,04:28:57,NA,incomplete,70,shape,1,right,Green_Circle_Stripes_3.jpg,Green_Star_Grid_1.jpg,Blue_Circle_Dots_4.jpg,left,566.5349999908358,false,low,false
IeHopwR4,30oitawpctgn4gcs6h6m71vz0jeh92,3gna64guzihj367ddjl1tjeqium5qy,IeHopwR4,2020-0188,2020-11-20,03:55:28,04:28:57,NA,incomplete,71,shape,1,left,Blue_Star_Grid_1.jpg,Red_Star_Stripes_2.jpg,Blue_Triangle_Chess_3.jpg,right,485.38999998709187,false,low,false
IeHopwR4,30oitawpctgn4gcs6h6m71vz0jeh92,3gna64guzihj367ddjl1tjeqium5qy,IeHopwR4,2020-0188,2020-11-20,03:55:28,04:28:57,NA,incomplete,72,shape,1,right,Purple_Triangle_Grid_4.jpg,Purple_Star_Dots_1.jpg,Red_Triangle_Stripes_3.jpg,left,1523.285000002943,false,low,false
IeHopwR4,30oitawpctgn4gcs6h6m71vz0jeh92,3gna64guzihj367ddjl1tjeqium5qy,IeHopwR4,2020-0188,2020-11-20,03:55:28,04:28:57,NA,incomplete,73,shape,1,left,Red_Triangle_Chess_3.jpg,Green_Triangle_Stripes_1.jpg,Red_Plus_Grid_4.jpg,left,953.5899999900721,true,low,false
IeHopwR4,30oitawpctgn4gcs6h6m71vz0jeh92,3gna64guzihj367ddjl1tjeqium5qy,IeHopwR4,2020-0188,2020-11-20,03:55:28,04:28:57,NA,incomplete,74,shape,1,right,Blue_Triangle_Dots_3.jpg,Blue_Circle_Chess_4.jpg,Red_Triangle_Grid_1.jpg,right,893.8550000311807,true,low,false
IeHopwR4,30oitawpctgn4gcs6h6m71vz0jeh92,3gna64guzihj367ddjl1tjeqium5qy,IeHopwR4,2020-0188,2020-11-20,03:55:28,04:28:57,NA,incomplete,75,shape,1,right,Red_Star_Dots_4.jpg,Red_Plus_Chess_2.jpg,Green_Star_Stripes_1.jpg,right,1607.7899999800138,true,low,false
IeHopwR4,30oitawpctgn4gcs6h6m71vz0jeh92,3gna64guzihj367ddjl1tjeqium5qy,IeHopwR4,2020-0188,2020-11-20,03:55:28,04:28:57,NA,incomplete,76,shape,1,right,Green_Triangle_Dots_3.jpg,Green_Star_Stripes_2.jpg,Blue_Triangle_Chess_1.jpg,right,803.4300000290386,true,low,false
IeHopwR4,30oitawpctgn4gcs6h6m71vz0jeh92,3gna64guzihj367ddjl1tjeqium5qy,IeHopwR4,2020-0188,2020-11-20,03:55:28,04:28:57,NA,incomplete,77,shape,1,left,Blue_Plus_Dots_4.jpg,Red_Plus_Stripes_1.jpg,Blue_Triangle_Grid_2.jpg,left,869.7249999968335,true,low,false
IeHopwR4,30oitawpctgn4gcs6h6m71vz0jeh92,3gna64guzihj367ddjl1tjeqium5qy,IeHopwR4,2020-0188,2020-11-20,03:55:28,04:28:57,NA,incomplete,78,shape,1,right,Red_Star_Chess_1.jpg,Red_Triangle_Stripes_3.jpg,Blue_Star_Dots_2.jpg,right,1048.259999952279,true,low,false
IeHopwR4,30oitawpctgn4gcs6h6m71vz0jeh92,3gna64guzihj367ddjl1tjeqium5qy,IeHopwR4,2020-0188,2020-11-20,03:55:28,04:28:57,NA,incomplete,79,shape,1,left,Purple_Star_Dots_1.jpg,Green_Star_Chess_2.jpg,Purple_Circle_Grid_3.jpg,left,650.1699999789707,true,low,false
IeHopwR4,30oitawpctgn4gcs6h6m71vz0jeh92,3gna64guzihj367ddjl1tjeqium5qy,IeHopwR4,2020-0188,2020-11-20,03:55:28,04:28:57,NA,incomplete,80,shape,0,left,Green_Star_Chess_1.jpg,Blue_Star_Dots_4.jpg,Green_Plus_Grid_2.jpg,left,667.8550000069663,true,low,false
IeHopwR4,30oitawpctgn4gcs6h6m71vz0jeh92,3gna64guzihj367ddjl1tjeqium5qy,IeHopwR4,2020-0188,2020-11-20,03:55:28,04:28:57,NA,incomplete,81,shape,1,right,Blue_Plus_Chess_3.jpg,Blue_Triangle_Stripes_2.jpg,Green_Plus_Grid_1.jpg,right,730.7800000417046,true,low,false
IeHopwR4,30oitawpctgn4gcs6h6m71vz0jeh92,3gna64guzihj367ddjl1tjeqium5qy,IeHopwR4,2020-0188,2020-11-20,03:55:28,04:28:57,NA,incomplete,82,shape,1,left,Purple_Plus_Chess_4.jpg,Blue_Plus_Stripes_1.jpg,Purple_Star_Grid_3.jpg,left,680.1750000449829,true,low,false
IeHopwR4,30oitawpctgn4gcs6h6m71vz0jeh92,3gna64guzihj367ddjl1tjeqium5qy,IeHopwR4,2020-0188,2020-11-20,03:55:28,04:28:57,NA,incomplete,83,shape,0,right,Red_Triangle_Stripes_2.jpg,Red_Star_Chess_4.jpg,Green_Triangle_Grid_1.jpg,right,562.6150000025518,true,low,false
IeHopwR4,30oitawpctgn4gcs6h6m71vz0jeh92,3gna64guzihj367ddjl1tjeqium5qy,IeHopwR4,2020-0188,2020-11-20,03:55:28,04:28:57,NA,incomplete,84,shape,1,right,Red_Plus_Dots_4.jpg,Red_Triangle_Stripes_2.jpg,Green_Plus_Chess_3.jpg,right,768.3250000118278,true,low,false
IeHopwR4,30oitawpctgn4gcs6h6m71vz0jeh92,3gna64guzihj367ddjl1tjeqium5qy,IeHopwR4,2020-0188,2020-11-20,03:55:28,04:28:57,NA,incomplete,85,shape,1,left,Green_Triangle_Chess_4.jpg,Purple_Triangle_Grid_3.jpg,Green_Circle_Dots_2.jpg,left,552.1750000189058,true,low,false
IeHopwR4,30oitawpctgn4gcs6h6m71vz0jeh92,3gna64guzihj367ddjl1tjeqium5qy,IeHopwR4,2020-0188,2020-11-20,03:55:28,04:28:57,NA,incomplete,86,shape,1,right,Green_Plus_Dots_2.jpg,Green_Triangle_Grid_1.jpg,Blue_Plus_Chess_3.jpg,right,687.0600000256673,true,low,false
IeHopwR4,30oitawpctgn4gcs6h6m71vz0jeh92,3gna64guzihj367ddjl1tjeqium5qy,IeHopwR4,2020-0188,2020-11-20,03:55:28,04:28:57,NA,incomplete,87,shape,0,left,Green_Star_Chess_1.jpg,Blue_Star_Dots_3.jpg,Green_Plus_Stripes_2.jpg,left,684.5050000119954,true,low,false
IeHopwR4,30oitawpctgn4gcs6h6m71vz0jeh92,3gna64guzihj367ddjl1tjeqium5qy,IeHopwR4,2020-0188,2020-11-20,03:55:28,04:28:57,NA,incomplete,88,shape,1,left,Blue_Star_Chess_3.jpg,Purple_Star_Grid_4.jpg,Blue_Triangle_Dots_2.jpg,left,826.8299999763258,true,low,false
IeHopwR4,30oitawpctgn4gcs6h6m71vz0jeh92,3gna64guzihj367ddjl1tjeqium5qy,IeHopwR4,2020-0188,2020-11-20,03:55:28,04:28:57,NA,incomplete,89,shape,1,right,Blue_Circle_Grid_2.jpg,Blue_Star_Chess_4.jpg,Purple_Circle_Dots_3.jpg,right,1040.709999972023,true,low,false
IeHopwR4,30oitawpctgn4gcs6h6m71vz0jeh92,3gna64guzihj367ddjl1tjeqium5qy,IeHopwR4,2020-0188,2020-11-20,03:55:28,04:28:57,NA,incomplete,90,color,1,right,Green_Circle_Dots_3.jpg,Red_Circle_Stripes_2.jpg,Green_Plus_Grid_4.jpg,left,532.4750000145286,false,low,false
IeHopwR4,30oitawpctgn4gcs6h6m71vz0jeh92,3gna64guzihj367ddjl1tjeqium5qy,IeHopwR4,2020-0188,2020-11-20,03:55:28,04:28:57,NA,incomplete,91,color,1,left,Purple_Triangle_Grid_1.jpg,Purple_Star_Chess_3.jpg,Blue_Triangle_Dots_2.jpg,right,566.4099999703467,false,low,false
IeHopwR4,30oitawpctgn4gcs6h6m71vz0jeh92,3gna64guzihj367ddjl1tjeqium5qy,IeHopwR4,2020-0188,2020-11-20,03:55:28,04:28:57,NA,incomplete,92,color,1,right,Red_Star_Chess_4.jpg,Green_Star_Dots_1.jpg,Red_Circle_Stripes_3.jpg,right,450.92999999178573,true,low,false
IeHopwR4,30oitawpctgn4gcs6h6m71vz0jeh92,3gna64guzihj367ddjl1tjeqium5qy,IeHopwR4,2020-0188,2020-11-20,03:55:28,04:28:57,NA,incomplete,93,color,1,right,Green_Star_Dots_1.jpg,Red_Star_Stripes_2.jpg,Green_Plus_Grid_4.jpg,right,577.0500000216998,true,low,false
IeHopwR4,30oitawpctgn4gcs6h6m71vz0jeh92,3gna64guzihj367ddjl1tjeqium5qy,IeHopwR4,2020-0188,2020-11-20,03:55:28,04:28:57,NA,incomplete,94,color,1,left,Blue_Star_Dots_3.jpg,Blue_Plus_Grid_2.jpg,Red_Star_Stripes_4.jpg,left,469.9700000346638,true,low,false
IeHopwR4,30oitawpctgn4gcs6h6m71vz0jeh92,3gna64guzihj367ddjl1tjeqium5qy,IeHopwR4,2020-0188,2020-11-20,03:55:28,04:28:57,NA,incomplete,95,color,1,right,Red_Triangle_Chess_2.jpg,Purple_Triangle_Stripes_1.jpg,Red_Plus_Grid_3.jpg,right,423.83499996503815,true,low,false
IeHopwR4,30oitawpctgn4gcs6h6m71vz0jeh92,3gna64guzihj367ddjl1tjeqium5qy,IeHopwR4,2020-0188,2020-11-20,03:55:28,04:28:57,NA,incomplete,96,color,1,right,Red_Star_Grid_1.jpg,Green_Star_Chess_3.jpg,Red_Circle_Stripes_2.jpg,right,541.7499999748543,true,low,false
IeHopwR4,30oitawpctgn4gcs6h6m71vz0jeh92,3gna64guzihj367ddjl1tjeqium5qy,IeHopwR4,2020-0188,2020-11-20,03:55:28,04:28:57,NA,incomplete,97,color,1,right,Blue_Triangle_Stripes_4.jpg,Green_Triangle_Grid_3.jpg,Blue_Star_Dots_1.jpg,right,909.0250000008382,true,low,false
IeHopwR4,30oitawpctgn4gcs6h6m71vz0jeh92,3gna64guzihj367ddjl1tjeqium5qy,IeHopwR4,2020-0188,2020-11-20,03:55:28,04:28:57,NA,incomplete,98,color,1,left,Red_Plus_Stripes_4.jpg,Red_Star_Dots_3.jpg,Purple_Plus_Grid_1.jpg,left,533.3649999811314,true,low,false
IeHopwR4,30oitawpctgn4gcs6h6m71vz0jeh92,3gna64guzihj367ddjl1tjeqium5qy,IeHopwR4,2020-0188,2020-11-20,03:55:28,04:28:57,NA,incomplete,99,color,1,left,Red_Triangle_Stripes_3.jpg,Red_Circle_Dots_1.jpg,Purple_Triangle_Chess_4.jpg,left,500.34000002779067,true,low,false
IeHopwR4,30oitawpctgn4gcs6h6m71vz0jeh92,3gna64guzihj367ddjl1tjeqium5qy,IeHopwR4,2020-0188,2020-11-20,03:55:28,04:28:57,NA,incomplete,100,color,1,left,Green_Circle_Dots_4.jpg,Green_Triangle_Stripes_2.jpg,Purple_Circle_Grid_1.jpg,left,535.1149999769405,true,low,false
IeHopwR4,30oitawpctgn4gcs6h6m71vz0jeh92,3gna64guzihj367ddjl1tjeqium5qy,IeHopwR4,2020-0188,2020-11-20,03:55:28,04:28:57,NA,incomplete,101,color,1,left,Blue_Star_Chess_2.jpg,Blue_Triangle_Dots_1.jpg,Purple_Star_Stripes_3.jpg,left,813.1050000083633,true,low,false
IeHopwR4,30oitawpctgn4gcs6h6m71vz0jeh92,3gna64guzihj367ddjl1tjeqium5qy,IeHopwR4,2020-0188,2020-11-20,03:55:28,04:28:57,NA,incomplete,102,color,1,right,Green_Circle_Stripes_3.jpg,Red_Circle_Chess_2.jpg,Green_Plus_Dots_1.jpg,right,502.5150000001304,true,low,false
IeHopwR4,30oitawpctgn4gcs6h6m71vz0jeh92,3gna64guzihj367ddjl1tjeqium5qy,IeHopwR4,2020-0188,2020-11-20,03:55:28,04:28:57,NA,incomplete,103,color,1,right,Purple_Plus_Stripes_2.jpg,Green_Plus_Dots_4.jpg,Purple_Circle_Chess_3.jpg,right,466.67999995406717,true,low,false
IeHopwR4,30oitawpctgn4gcs6h6m71vz0jeh92,3gna64guzihj367ddjl1tjeqium5qy,IeHopwR4,2020-0188,2020-11-20,03:55:28,04:28:57,NA,incomplete,104,color,1,left,Purple_Circle_Grid_1.jpg,Purple_Star_Dots_4.jpg,Green_Circle_Chess_3.jpg,left,505.5500000016764,true,low,false
IeHopwR4,30oitawpctgn4gcs6h6m71vz0jeh92,3gna64guzihj367ddjl1tjeqium5qy,IeHopwR4,2020-0188,2020-11-20,03:55:28,04:28:57,NA,incomplete,105,color,1,left,Red_Triangle_Chess_4.jpg,Red_Star_Stripes_2.jpg,Purple_Triangle_Grid_3.jpg,left,560.494999983348,true,low,false
IeHopwR4,30oitawpctgn4gcs6h6m71vz0jeh92,3gna64guzihj367ddjl1tjeqium5qy,IeHopwR4,2020-0188,2020-11-20,03:55:28,04:28:57,NA,incomplete,106,color,1,left,Purple_Plus_Chess_2.jpg,Purple_Triangle_Stripes_1.jpg,Blue_Plus_Grid_4.jpg,left,510.42500004405156,true,low,false
IeHopwR4,30oitawpctgn4gcs6h6m71vz0jeh92,3gna64guzihj367ddjl1tjeqium5qy,IeHopwR4,2020-0188,2020-11-20,03:55:28,04:28:57,NA,incomplete,107,color,1,left,Blue_Plus_Grid_4.jpg,Blue_Triangle_Chess_1.jpg,Purple_Plus_Dots_3.jpg,left,500.705000013113,true,low,false
IeHopwR4,30oitawpctgn4gcs6h6m71vz0jeh92,3gna64guzihj367ddjl1tjeqium5qy,IeHopwR4,2020-0188,2020-11-20,03:55:28,04:28:57,NA,incomplete,108,color,1,left,Blue_Star_Stripes_2.jpg,Blue_Plus_Grid_1.jpg,Purple_Star_Chess_3.jpg,left,580.2499999990687,true,low,false
IeHopwR4,30oitawpctgn4gcs6h6m71vz0jeh92,3gna64guzihj367ddjl1tjeqium5qy,IeHopwR4,2020-0188,2020-11-20,03:55:28,04:28:57,NA,incomplete,109,color,1,left,Purple_Star_Chess_4.jpg,Purple_Plus_Grid_3.jpg,Green_Star_Stripes_2.jpg,left,478.0049999826588,true,low,false
IeHopwR4,30oitawpctgn4gcs6h6m71vz0jeh92,3gna64guzihj367ddjl1tjeqium5qy,IeHopwR4,2020-0188,2020-11-20,03:55:28,04:28:57,NA,incomplete,110,color,1,left,Green_Triangle_Chess_3.jpg,Green_Star_Dots_2.jpg,Blue_Triangle_Stripes_1.jpg,left,535.8999999589287,true,low,false
IeHopwR4,30oitawpctgn4gcs6h6m71vz0jeh92,3gna64guzihj367ddjl1tjeqium5qy,IeHopwR4,2020-0188,2020-11-20,03:55:28,04:28:57,NA,incomplete,111,color,1,left,Green_Circle_Stripes_4.jpg,Green_Star_Chess_1.jpg,Blue_Circle_Dots_3.jpg,left,517.5850000232458,true,low,false
IeHopwR4,30oitawpctgn4gcs6h6m71vz0jeh92,3gna64guzihj367ddjl1tjeqium5qy,IeHopwR4,2020-0188,2020-11-20,03:55:28,04:28:57,NA,incomplete,112,color,0,left,Blue_Plus_Grid_3.jpg,Blue_Triangle_Dots_4.jpg,Green_Plus_Chess_1.jpg,left,457.11000001756474,true,low,false
IeHopwR4,30oitawpctgn4gcs6h6m71vz0jeh92,3gna64guzihj367ddjl1tjeqium5qy,IeHopwR4,2020-0188,2020-11-20,03:55:28,04:28:57,NA,incomplete,113,color,1,left,Purple_Star_Dots_1.jpg,Purple_Circle_Chess_3.jpg,Red_Star_Stripes_4.jpg,left,686.4000000059605,true,low,false
IeHopwR4,30oitawpctgn4gcs6h6m71vz0jeh92,3gna64guzihj367ddjl1tjeqium5qy,IeHopwR4,2020-0188,2020-11-20,03:55:28,04:28:57,NA,incomplete,114,color,0,left,Green_Triangle_Dots_4.jpg,Green_Star_Stripes_1.jpg,Red_Triangle_Grid_3.jpg,left,924.204999988433,true,low,false
IeHopwR4,30oitawpctgn4gcs6h6m71vz0jeh92,3gna64guzihj367ddjl1tjeqium5qy,IeHopwR4,2020-0188,2020-11-20,03:55:28,04:28:57,NA,incomplete,115,color,1,right,Purple_Triangle_Stripes_3.jpg,Green_Triangle_Dots_4.jpg,Purple_Circle_Chess_1.jpg,left,822.1200000261888,false,low,false
IeHopwR4,30oitawpctgn4gcs6h6m71vz0jeh92,3gna64guzihj367ddjl1tjeqium5qy,IeHopwR4,2020-0188,2020-11-20,03:55:28,04:28:57,NA,incomplete,116,color,0,right,Red_Plus_Chess_4.jpg,Green_Plus_Stripes_1.jpg,Red_Circle_Grid_2.jpg,left,652.0149999996647,false,low,false
IeHopwR4,30oitawpctgn4gcs6h6m71vz0jeh92,3gna64guzihj367ddjl1tjeqium5qy,IeHopwR4,2020-0188,2020-11-20,03:55:28,04:28:57,NA,incomplete,117,color,1,left,Green_Star_Chess_1.jpg,Green_Circle_Dots_2.jpg,Blue_Star_Stripes_3.jpg,right,777.4450000142679,false,low,false
IeHopwR4,30oitawpctgn4gcs6h6m71vz0jeh92,3gna64guzihj367ddjl1tjeqium5qy,IeHopwR4,2020-0188,2020-11-20,03:55:28,04:28:57,NA,incomplete,118,color,1,left,Green_Circle_Stripes_1.jpg,Green_Plus_Dots_3.jpg,Red_Circle_Chess_2.jpg,right,559.720000019297,false,low,false
IeHopwR4,30oitawpctgn4gcs6h6m71vz0jeh92,3gna64guzihj367ddjl1tjeqium5qy,IeHopwR4,2020-0188,2020-11-20,03:55:28,04:28:57,NA,incomplete,119,color,0,right,Blue_Plus_Grid_3.jpg,Red_Plus_Dots_2.jpg,Blue_Triangle_Chess_4.jpg,right,495.5000000190921,true,low,false
IeHopwR4,30oitawpctgn4gcs6h6m71vz0jeh92,3gna64guzihj367ddjl1tjeqium5qy,IeHopwR4,2020-0188,2020-11-20,03:55:28,04:28:57,NA,incomplete,120,shape,1,right,Blue_Triangle_Grid_3.jpg,Blue_Plus_Chess_4.jpg,Green_Triangle_Dots_1.jpg,right,1653.615000017453,true,low,false
IeHopwR4,30oitawpctgn4gcs6h6m71vz0jeh92,3gna64guzihj367ddjl1tjeqium5qy,IeHopwR4,2020-0188,2020-11-20,03:55:28,04:28:57,NA,incomplete,121,shape,1,left,Red_Triangle_Grid_3.jpg,Purple_Triangle_Chess_4.jpg,Red_Circle_Stripes_2.jpg,left,609.3049999908544,true,low,false
IeHopwR4,30oitawpctgn4gcs6h6m71vz0jeh92,3gna64guzihj367ddjl1tjeqium5qy,IeHopwR4,2020-0188,2020-11-20,03:55:28,04:28:57,NA,incomplete,122,shape,1,right,Red_Triangle_Chess_4.jpg,Red_Circle_Grid_1.jpg,Blue_Triangle_Dots_2.jpg,right,840.6649999669753,true,low,false
IeHopwR4,30oitawpctgn4gcs6h6m71vz0jeh92,3gna64guzihj367ddjl1tjeqium5qy,IeHopwR4,2020-0188,2020-11-20,03:55:28,04:28:57,NA,incomplete,123,shape,1,right,Green_Triangle_Chess_3.jpg,Green_Star_Dots_2.jpg,Purple_Triangle_Stripes_4.jpg,right,607.0099999778904,true,low,false
IeHopwR4,30oitawpctgn4gcs6h6m71vz0jeh92,3gna64guzihj367ddjl1tjeqium5qy,IeHopwR4,2020-0188,2020-11-20,03:55:28,04:28:57,NA,incomplete,124,shape,0,right,Blue_Triangle_Chess_2.jpg,Blue_Star_Stripes_3.jpg,Red_Triangle_Grid_4.jpg,right,501.8400000408292,true,low,false
IeHopwR4,30oitawpctgn4gcs6h6m71vz0jeh92,3gna64guzihj367ddjl1tjeqium5qy,IeHopwR4,2020-0188,2020-11-20,03:55:28,04:28:57,NA,incomplete,125,shape,1,left,Blue_Circle_Grid_2.jpg,Purple_Circle_Chess_3.jpg,Blue_Plus_Dots_1.jpg,left,827.7699999744073,true,low,false
IeHopwR4,30oitawpctgn4gcs6h6m71vz0jeh92,3gna64guzihj367ddjl1tjeqium5qy,IeHopwR4,2020-0188,2020-11-20,03:55:28,04:28:57,NA,incomplete,126,shape,0,right,Green_Triangle_Stripes_1.jpg,Green_Circle_Dots_2.jpg,Red_Triangle_Chess_4.jpg,right,420.60999997192994,true,low,false
IeHopwR4,30oitawpctgn4gcs6h6m71vz0jeh92,3gna64guzihj367ddjl1tjeqium5qy,IeHopwR4,2020-0188,2020-11-20,03:55:28,04:28:57,NA,incomplete,127,shape,1,left,Purple_Star_Grid_3.jpg,Blue_Star_Stripes_4.jpg,Purple_Circle_Chess_2.jpg,left,568.9199999906123,true,low,false
IeHopwR4,30oitawpctgn4gcs6h6m71vz0jeh92,3gna64guzihj367ddjl1tjeqium5qy,IeHopwR4,2020-0188,2020-11-20,03:55:28,04:28:57,NA,incomplete,128,shape,0,left,Red_Plus_Stripes_2.jpg,Green_Plus_Dots_3.jpg,Red_Star_Grid_4.jpg,left,697.4400000181049,true,low,false
IeHopwR4,30oitawpctgn4gcs6h6m71vz0jeh92,3gna64guzihj367ddjl1tjeqium5qy,IeHopwR4,2020-0188,2020-11-20,03:55:28,04:28:57,NA,incomplete,129,shape,1,right,Red_Plus_Dots_3.jpg,Red_Star_Chess_1.jpg,Purple_Plus_Grid_2.jpg,right,884.2300000251271,true,low,false
IeHopwR4,30oitawpctgn4gcs6h6m71vz0jeh92,3gna64guzihj367ddjl1tjeqium5qy,IeHopwR4,2020-0188,2020-11-20,03:55:28,04:28:57,NA,incomplete,130,shape,1,right,Green_Star_Grid_2.jpg,Green_Circle_Dots_3.jpg,Purple_Star_Stripes_1.jpg,right,606.1049999552779,true,low,false
IeHopwR4,30oitawpctgn4gcs6h6m71vz0jeh92,3gna64guzihj367ddjl1tjeqium5qy,IeHopwR4,2020-0188,2020-11-20,03:55:28,04:28:57,NA,incomplete,131,shape,1,left,Purple_Triangle_Grid_3.jpg,Red_Triangle_Dots_4.jpg,Purple_Plus_Stripes_1.jpg,left,560.9750000294298,true,low,false
IeHopwR4,30oitawpctgn4gcs6h6m71vz0jeh92,3gna64guzihj367ddjl1tjeqium5qy,IeHopwR4,2020-0188,2020-11-20,03:55:28,04:28:57,NA,incomplete,132,shape,1,right,Green_Star_Chess_1.jpg,Green_Circle_Dots_4.jpg,Purple_Star_Stripes_2.jpg,right,472.42999996524304,true,low,false
IeHopwR4,30oitawpctgn4gcs6h6m71vz0jeh92,3gna64guzihj367ddjl1tjeqium5qy,IeHopwR4,2020-0188,2020-11-20,03:55:28,04:28:57,NA,incomplete,133,shape,1,right,Purple_Triangle_Grid_2.jpg,Purple_Star_Dots_4.jpg,Blue_Triangle_Stripes_3.jpg,right,489.62000000756234,true,low,false
IeHopwR4,30oitawpctgn4gcs6h6m71vz0jeh92,3gna64guzihj367ddjl1tjeqium5qy,IeHopwR4,2020-0188,2020-11-20,03:55:28,04:28:57,NA,incomplete,134,shape,0,left,Blue_Triangle_Chess_1.jpg,Red_Triangle_Stripes_2.jpg,Blue_Plus_Dots_3.jpg,left,521.4750000159256,true,low,false
IeHopwR4,30oitawpctgn4gcs6h6m71vz0jeh92,3gna64guzihj367ddjl1tjeqium5qy,IeHopwR4,2020-0188,2020-11-20,03:55:28,04:28:57,NA,incomplete,135,shape,1,left,Red_Star_Grid_3.jpg,Purple_Star_Dots_4.jpg,Red_Triangle_Stripes_2.jpg,left,574.4350000168197,true,low,false
IeHopwR4,30oitawpctgn4gcs6h6m71vz0jeh92,3gna64guzihj367ddjl1tjeqium5qy,IeHopwR4,2020-0188,2020-11-20,03:55:28,04:28:57,NA,incomplete,136,shape,0,left,Blue_Star_Dots_3.jpg,Purple_Star_Grid_1.jpg,Blue_Triangle_Stripes_4.jpg,left,537.2199999983422,true,low,false
IeHopwR4,30oitawpctgn4gcs6h6m71vz0jeh92,3gna64guzihj367ddjl1tjeqium5qy,IeHopwR4,2020-0188,2020-11-20,03:55:28,04:28:57,NA,incomplete,137,shape,1,right,Green_Triangle_Stripes_2.jpg,Green_Circle_Grid_4.jpg,Red_Triangle_Chess_3.jpg,right,600.6850000121631,true,low,false
IeHopwR4,30oitawpctgn4gcs6h6m71vz0jeh92,3gna64guzihj367ddjl1tjeqium5qy,IeHopwR4,2020-0188,2020-11-20,03:55:28,04:28:57,NA,incomplete,138,shape,0,left,Purple_Triangle_Dots_4.jpg,Red_Triangle_Chess_2.jpg,Purple_Circle_Grid_1.jpg,left,518.9099999843165,true,low,false
IeHopwR4,30oitawpctgn4gcs6h6m71vz0jeh92,3gna64guzihj367ddjl1tjeqium5qy,IeHopwR4,2020-0188,2020-11-20,03:55:28,04:28:57,NA,incomplete,139,shape,1,right,Blue_Triangle_Chess_1.jpg,Blue_Star_Stripes_3.jpg,Purple_Triangle_Grid_2.jpg,right,862.8550000139512,true,low,false
IeHopwR4,30oitawpctgn4gcs6h6m71vz0jeh92,3gna64guzihj367ddjl1tjeqium5qy,IeHopwR4,2020-0188,2020-11-20,03:55:28,04:28:57,NA,incomplete,140,color,1,left,Blue_Plus_Grid_1.jpg,Blue_Circle_Stripes_2.jpg,Green_Plus_Chess_4.jpg,right,563.7700000079349,false,low,false
IeHopwR4,30oitawpctgn4gcs6h6m71vz0jeh92,3gna64guzihj367ddjl1tjeqium5qy,IeHopwR4,2020-0188,2020-11-20,03:55:28,04:28:57,NA,incomplete,141,color,1,left,Green_Triangle_Dots_3.jpg,Green_Star_Chess_1.jpg,Blue_Triangle_Stripes_2.jpg,right,794.5150000159629,false,low,false
IeHopwR4,30oitawpctgn4gcs6h6m71vz0jeh92,3gna64guzihj367ddjl1tjeqium5qy,IeHopwR4,2020-0188,2020-11-20,03:55:28,04:28:57,NA,incomplete,142,color,1,right,Blue_Triangle_Dots_2.jpg,Red_Triangle_Chess_3.jpg,Blue_Star_Stripes_1.jpg,right,490.8399999840185,true,low,false
IeHopwR4,30oitawpctgn4gcs6h6m71vz0jeh92,3gna64guzihj367ddjl1tjeqium5qy,IeHopwR4,2020-0188,2020-11-20,03:55:28,04:28:57,NA,incomplete,143,color,1,right,Purple_Triangle_Grid_1.jpg,Blue_Triangle_Stripes_4.jpg,Purple_Circle_Chess_2.jpg,left,807.3499999591149,false,low,false
IeHopwR4,30oitawpctgn4gcs6h6m71vz0jeh92,3gna64guzihj367ddjl1tjeqium5qy,IeHopwR4,2020-0188,2020-11-20,03:55:28,04:28:57,NA,incomplete,144,color,1,left,Blue_Circle_Grid_3.jpg,Blue_Star_Stripes_2.jpg,Purple_Circle_Dots_1.jpg,left,502.9899999499321,true,low,false
IeHopwR4,30oitawpctgn4gcs6h6m71vz0jeh92,3gna64guzihj367ddjl1tjeqium5qy,IeHopwR4,2020-0188,2020-11-20,03:55:28,04:28:57,NA,incomplete,145,color,1,right,Purple_Plus_Grid_1.jpg,Red_Plus_Dots_2.jpg,Purple_Triangle_Stripes_3.jpg,right,422.0149999600835,true,low,false
IeHopwR4,30oitawpctgn4gcs6h6m71vz0jeh92,3gna64guzihj367ddjl1tjeqium5qy,IeHopwR4,2020-0188,2020-11-20,03:55:28,04:28:57,NA,incomplete,146,color,1,right,Purple_Triangle_Chess_2.jpg,Blue_Triangle_Grid_3.jpg,Purple_Star_Dots_1.jpg,right,434.82500000391155,true,low,false
IeHopwR4,30oitawpctgn4gcs6h6m71vz0jeh92,3gna64guzihj367ddjl1tjeqium5qy,IeHopwR4,2020-0188,2020-11-20,03:55:28,04:28:57,NA,incomplete,147,color,0,left,Blue_Triangle_Grid_3.jpg,Blue_Circle_Dots_4.jpg,Red_Triangle_Stripes_2.jpg,left,537.4399999855086,true,low,false
IeHopwR4,30oitawpctgn4gcs6h6m71vz0jeh92,3gna64guzihj367ddjl1tjeqium5qy,IeHopwR4,2020-0188,2020-11-20,03:55:28,04:28:57,NA,incomplete,148,color,1,right,Green_Plus_Stripes_4.jpg,Purple_Plus_Dots_3.jpg,Green_Triangle_Chess_1.jpg,right,387.5150000094436,true,low,false
IeHopwR4,30oitawpctgn4gcs6h6m71vz0jeh92,3gna64guzihj367ddjl1tjeqium5qy,IeHopwR4,2020-0188,2020-11-20,03:55:28,04:28:57,NA,incomplete,149,color,1,left,Red_Triangle_Dots_4.jpg,Red_Star_Chess_3.jpg,Green_Triangle_Grid_2.jpg,left,604.4499999843538,true,low,false
IeHopwR4,30oitawpctgn4gcs6h6m71vz0jeh92,3gna64guzihj367ddjl1tjeqium5qy,IeHopwR4,2020-0188,2020-11-20,03:55:28,04:28:57,NA,incomplete,150,color,1,left,Purple_Plus_Grid_2.jpg,Purple_Star_Dots_1.jpg,Blue_Plus_Chess_4.jpg,left,549.4450000114739,true,low,false
IeHopwR4,30oitawpctgn4gcs6h6m71vz0jeh92,3gna64guzihj367ddjl1tjeqium5qy,IeHopwR4,2020-0188,2020-11-20,03:55:28,04:28:57,NA,incomplete,151,color,1,left,Green_Circle_Chess_1.jpg,Green_Triangle_Grid_3.jpg,Purple_Circle_Dots_4.jpg,left,441.30000000586733,true,low,false
IeHopwR4,30oitawpctgn4gcs6h6m71vz0jeh92,3gna64guzihj367ddjl1tjeqium5qy,IeHopwR4,2020-0188,2020-11-20,03:55:28,04:28:57,NA,incomplete,152,color,1,right,Purple_Triangle_Chess_4.jpg,Blue_Triangle_Stripes_2.jpg,Purple_Circle_Grid_3.jpg,right,467.0850000111386,true,low,false
IeHopwR4,30oitawpctgn4gcs6h6m71vz0jeh92,3gna64guzihj367ddjl1tjeqium5qy,IeHopwR4,2020-0188,2020-11-20,03:55:28,04:28:57,NA,incomplete,153,color,1,right,Blue_Circle_Chess_2.jpg,Red_Circle_Grid_3.jpg,Blue_Triangle_Stripes_4.jpg,right,410.51999997580424,true,low,false
IeHopwR4,30oitawpctgn4gcs6h6m71vz0jeh92,3gna64guzihj367ddjl1tjeqium5qy,IeHopwR4,2020-0188,2020-11-20,03:55:28,04:28:57,NA,incomplete,154,color,0,right,Red_Star_Chess_3.jpg,Purple_Star_Stripes_1.jpg,Red_Plus_Dots_4.jpg,right,429.8649999545887,true,low,false
IeHopwR4,30oitawpctgn4gcs6h6m71vz0jeh92,3gna64guzihj367ddjl1tjeqium5qy,IeHopwR4,2020-0188,2020-11-20,03:55:28,04:28:57,NA,incomplete,155,color,1,left,Red_Plus_Stripes_3.jpg,Red_Circle_Grid_1.jpg,Green_Plus_Dots_4.jpg,left,508.73000000137836,true,low,false
IeHopwR4,30oitawpctgn4gcs6h6m71vz0jeh92,3gna64guzihj367ddjl1tjeqium5qy,IeHopwR4,2020-0188,2020-11-20,03:55:28,04:28:57,NA,incomplete,156,color,1,left,Green_Circle_Dots_3.jpg,Green_Star_Grid_4.jpg,Purple_Circle_Chess_2.jpg,left,447.62499997159466,true,low,false
IeHopwR4,30oitawpctgn4gcs6h6m71vz0jeh92,3gna64guzihj367ddjl1tjeqium5qy,IeHopwR4,2020-0188,2020-11-20,03:55:28,04:28:57,NA,incomplete,157,color,0,left,Purple_Plus_Grid_4.jpg,Purple_Triangle_Stripes_2.jpg,Red_Plus_Dots_3.jpg,left,615.5400000279769,true,low,false
IeHopwR4,30oitawpctgn4gcs6h6m71vz0jeh92,3gna64guzihj367ddjl1tjeqium5qy,IeHopwR4,2020-0188,2020-11-20,03:55:28,04:28:57,NA,incomplete,158,color,1,left,Red_Circle_Stripes_2.jpg,Red_Triangle_Dots_4.jpg,Green_Circle_Grid_3.jpg,left,484.3449999461882,true,low,false
IeHopwR4,30oitawpctgn4gcs6h6m71vz0jeh92,3gna64guzihj367ddjl1tjeqium5qy,IeHopwR4,2020-0188,2020-11-20,03:55:28,04:28:57,NA,incomplete,159,color,1,right,Blue_Triangle_Stripes_1.jpg,Purple_Triangle_Dots_2.jpg,Blue_Circle_Grid_3.jpg,right,501.7150000203401,true,low,false
IeHopwR4,30oitawpctgn4gcs6h6m71vz0jeh92,3gna64guzihj367ddjl1tjeqium5qy,IeHopwR4,2020-0188,2020-11-20,03:55:28,04:28:57,NA,incomplete,160,shape,1,right,Green_Star_Chess_1.jpg,Green_Circle_Stripes_2.jpg,Red_Star_Dots_3.jpg,left,541.2450000294484,false,low,false
IeHopwR4,30oitawpctgn4gcs6h6m71vz0jeh92,3gna64guzihj367ddjl1tjeqium5qy,IeHopwR4,2020-0188,2020-11-20,03:55:28,04:28:57,NA,incomplete,161,shape,1,left,Green_Star_Dots_4.jpg,Red_Star_Grid_3.jpg,Green_Triangle_Chess_2.jpg,right,463.0200000246987,false,low,false
IeHopwR4,30oitawpctgn4gcs6h6m71vz0jeh92,3gna64guzihj367ddjl1tjeqium5qy,IeHopwR4,2020-0188,2020-11-20,03:55:28,04:28:57,NA,incomplete,162,shape,1,left,Red_Star_Chess_4.jpg,Blue_Star_Grid_3.jpg,Red_Circle_Dots_1.jpg,right,482.73500002687797,false,low,false
IeHopwR4,30oitawpctgn4gcs6h6m71vz0jeh92,3gna64guzihj367ddjl1tjeqium5qy,IeHopwR4,2020-0188,2020-11-20,03:55:28,04:28:57,NA,incomplete,163,shape,1,right,Red_Triangle_Grid_4.jpg,Red_Plus_Stripes_1.jpg,Purple_Triangle_Chess_3.jpg,right,635.7349999598227,true,low,false
IeHopwR4,30oitawpctgn4gcs6h6m71vz0jeh92,3gna64guzihj367ddjl1tjeqium5qy,IeHopwR4,2020-0188,2020-11-20,03:55:28,04:28:57,NA,incomplete,164,shape,1,right,Red_Circle_Stripes_2.jpg,Red_Plus_Dots_4.jpg,Green_Circle_Grid_1.jpg,right,613.1199999945238,true,low,false
IeHopwR4,30oitawpctgn4gcs6h6m71vz0jeh92,3gna64guzihj367ddjl1tjeqium5qy,IeHopwR4,2020-0188,2020-11-20,03:55:28,04:28:57,NA,incomplete,165,shape,1,right,Blue_Star_Grid_4.jpg,Blue_Circle_Dots_1.jpg,Red_Star_Stripes_3.jpg,right,707.460000005085,true,low,false
IeHopwR4,30oitawpctgn4gcs6h6m71vz0jeh92,3gna64guzihj367ddjl1tjeqium5qy,IeHopwR4,2020-0188,2020-11-20,03:55:28,04:28:57,NA,incomplete,166,shape,1,right,Red_Triangle_Chess_2.jpg,Red_Star_Grid_4.jpg,Blue_Triangle_Stripes_3.jpg,right,1424.605000007432,true,low,false
IeHopwR4,30oitawpctgn4gcs6h6m71vz0jeh92,3gna64guzihj367ddjl1tjeqium5qy,IeHopwR4,2020-0188,2020-11-20,03:55:28,04:28:57,NA,incomplete,167,shape,1,left,Green_Plus_Stripes_3.jpg,Purple_Plus_Dots_1.jpg,Green_Circle_Grid_2.jpg,left,653.1149999937043,true,low,false
IeHopwR4,30oitawpctgn4gcs6h6m71vz0jeh92,3gna64guzihj367ddjl1tjeqium5qy,IeHopwR4,2020-0188,2020-11-20,03:55:28,04:28:57,NA,incomplete,168,shape,1,left,Green_Circle_Stripes_4.jpg,Red_Circle_Grid_2.jpg,Green_Triangle_Dots_3.jpg,left,587.9700000514276,true,low,false
IeHopwR4,30oitawpctgn4gcs6h6m71vz0jeh92,3gna64guzihj367ddjl1tjeqium5qy,IeHopwR4,2020-0188,2020-11-20,03:55:28,04:28:57,NA,incomplete,169,shape,0,right,Purple_Star_Dots_3.jpg,Purple_Circle_Grid_4.jpg,Green_Star_Chess_2.jpg,right,640.3500000014901,true,low,false
IeHopwR4,30oitawpctgn4gcs6h6m71vz0jeh92,3gna64guzihj367ddjl1tjeqium5qy,IeHopwR4,2020-0188,2020-11-20,03:55:28,04:28:57,NA,incomplete,170,shape,1,right,Blue_Star_Dots_3.jpg,Blue_Plus_Stripes_2.jpg,Green_Star_Grid_1.jpg,right,677.7149999979883,true,low,false
IeHopwR4,30oitawpctgn4gcs6h6m71vz0jeh92,3gna64guzihj367ddjl1tjeqium5qy,IeHopwR4,2020-0188,2020-11-20,03:55:28,04:28:57,NA,incomplete,171,shape,1,left,Green_Triangle_Chess_4.jpg,Red_Triangle_Stripes_2.jpg,Green_Plus_Grid_1.jpg,left,585.5650000157766,true,low,false
IeHopwR4,30oitawpctgn4gcs6h6m71vz0jeh92,3gna64guzihj367ddjl1tjeqium5qy,IeHopwR4,2020-0188,2020-11-20,03:55:28,04:28:57,NA,incomplete,172,shape,1,left,Blue_Star_Chess_2.jpg,Red_Star_Dots_1.jpg,Blue_Plus_Grid_3.jpg,left,506.43000000854954,true,low,false
IeHopwR4,30oitawpctgn4gcs6h6m71vz0jeh92,3gna64guzihj367ddjl1tjeqium5qy,IeHopwR4,2020-0188,2020-11-20,03:55:28,04:28:57,NA,incomplete,173,shape,0,right,Blue_Circle_Chess_4.jpg,Blue_Star_Dots_3.jpg,Green_Circle_Grid_1.jpg,right,516.4099999819882,true,low,false
IeHopwR4,30oitawpctgn4gcs6h6m71vz0jeh92,3gna64guzihj367ddjl1tjeqium5qy,IeHopwR4,2020-0188,2020-11-20,03:55:28,04:28:57,NA,incomplete,174,shape,1,left,Green_Plus_Grid_1.jpg,Blue_Plus_Stripes_4.jpg,Green_Triangle_Chess_2.jpg,left,600.8600000059232,true,low,false
IeHopwR4,30oitawpctgn4gcs6h6m71vz0jeh92,3gna64guzihj367ddjl1tjeqium5qy,IeHopwR4,2020-0188,2020-11-20,03:55:28,04:28:57,NA,incomplete,175,shape,0,right,Green_Star_Stripes_4.jpg,Green_Circle_Chess_3.jpg,Purple_Star_Dots_1.jpg,right,721.045000012964,true,low,false
IeHopwR4,30oitawpctgn4gcs6h6m71vz0jeh92,3gna64guzihj367ddjl1tjeqium5qy,IeHopwR4,2020-0188,2020-11-20,03:55:28,04:28:57,NA,incomplete,176,shape,1,left,Green_Star_Dots_3.jpg,Purple_Star_Chess_2.jpg,Green_Circle_Grid_1.jpg,left,603.8499999558553,true,low,false
IeHopwR4,30oitawpctgn4gcs6h6m71vz0jeh92,3gna64guzihj367ddjl1tjeqium5qy,IeHopwR4,2020-0188,2020-11-20,03:55:28,04:28:57,NA,incomplete,177,shape,1,right,Purple_Triangle_Stripes_2.jpg,Purple_Circle_Dots_1.jpg,Green_Triangle_Grid_3.jpg,right,519.7649999754503,true,low,false
IeHopwR4,30oitawpctgn4gcs6h6m71vz0jeh92,3gna64guzihj367ddjl1tjeqium5qy,IeHopwR4,2020-0188,2020-11-20,03:55:28,04:28:57,NA,incomplete,178,shape,1,right,Green_Plus_Dots_1.jpg,Green_Star_Chess_3.jpg,Purple_Plus_Grid_4.jpg,right,532.6299999724142,true,low,false
IeHopwR4,30oitawpctgn4gcs6h6m71vz0jeh92,3gna64guzihj367ddjl1tjeqium5qy,IeHopwR4,2020-0188,2020-11-20,03:55:28,04:28:57,NA,incomplete,179,shape,0,left,Purple_Plus_Chess_3.jpg,Red_Plus_Dots_4.jpg,Purple_Circle_Stripes_2.jpg,left,431.01000000024214,true,low,false
IeHopwR4,30oitawpctgn4gcs6h6m71vz0jeh92,3gna64guzihj367ddjl1tjeqium5qy,IeHopwR4,2020-0188,2020-11-20,03:55:28,04:28:57,NA,incomplete,180,color,1,right,Purple_Circle_Chess_4.jpg,Red_Circle_Stripes_3.jpg,Purple_Star_Dots_2.jpg,left,653.3400000189431,false,low,false
IeHopwR4,30oitawpctgn4gcs6h6m71vz0jeh92,3gna64guzihj367ddjl1tjeqium5qy,IeHopwR4,2020-0188,2020-11-20,03:55:28,04:28:57,NA,incomplete,181,color,1,right,Green_Plus_Dots_3.jpg,Red_Plus_Chess_1.jpg,Green_Star_Stripes_4.jpg,left,764.2500000074506,false,low,false
IeHopwR4,30oitawpctgn4gcs6h6m71vz0jeh92,3gna64guzihj367ddjl1tjeqium5qy,IeHopwR4,2020-0188,2020-11-20,03:55:28,04:28:57,NA,incomplete,182,color,1,left,Blue_Star_Dots_1.jpg,Blue_Triangle_Chess_4.jpg,Red_Star_Grid_3.jpg,left,499.0600000019185,true,low,false
IeHopwR4,30oitawpctgn4gcs6h6m71vz0jeh92,3gna64guzihj367ddjl1tjeqium5qy,IeHopwR4,2020-0188,2020-11-20,03:55:28,04:28:57,NA,incomplete,183,color,1,left,Green_Star_Dots_1.jpg,Green_Circle_Stripes_2.jpg,Purple_Star_Grid_4.jpg,left,585.9100000234321,true,low,false
IeHopwR4,30oitawpctgn4gcs6h6m71vz0jeh92,3gna64guzihj367ddjl1tjeqium5qy,IeHopwR4,2020-0188,2020-11-20,03:55:28,04:28:57,NA,incomplete,184,color,1,left,Green_Triangle_Chess_4.jpg,Green_Star_Stripes_3.jpg,Red_Triangle_Dots_2.jpg,left,452.41000002715737,true,low,false
IeHopwR4,30oitawpctgn4gcs6h6m71vz0jeh92,3gna64guzihj367ddjl1tjeqium5qy,IeHopwR4,2020-0188,2020-11-20,03:55:28,04:28:57,NA,incomplete,185,color,1,right,Red_Circle_Chess_3.jpg,Blue_Circle_Stripes_2.jpg,Red_Plus_Dots_4.jpg,right,591.5599999716505,true,low,false
IeHopwR4,30oitawpctgn4gcs6h6m71vz0jeh92,3gna64guzihj367ddjl1tjeqium5qy,IeHopwR4,2020-0188,2020-11-20,03:55:28,04:28:57,NA,incomplete,186,color,0,left,Purple_Plus_Chess_1.jpg,Purple_Triangle_Dots_4.jpg,Red_Plus_Stripes_2.jpg,left,543.6849999823608,true,low,false
IeHopwR4,30oitawpctgn4gcs6h6m71vz0jeh92,3gna64guzihj367ddjl1tjeqium5qy,IeHopwR4,2020-0188,2020-11-20,03:55:28,04:28:57,NA,incomplete,187,color,1,left,Red_Plus_Stripes_2.jpg,Red_Star_Dots_3.jpg,Purple_Plus_Chess_4.jpg,left,680.495000036899,true,low,false
IeHopwR4,30oitawpctgn4gcs6h6m71vz0jeh92,3gna64guzihj367ddjl1tjeqium5qy,IeHopwR4,2020-0188,2020-11-20,03:55:28,04:28:57,NA,incomplete,188,color,1,left,Red_Plus_Chess_4.jpg,Red_Star_Stripes_3.jpg,Blue_Plus_Grid_2.jpg,left,493.2799999951385,true,low,false
IeHopwR4,30oitawpctgn4gcs6h6m71vz0jeh92,3gna64guzihj367ddjl1tjeqium5qy,IeHopwR4,2020-0188,2020-11-20,03:55:28,04:28:57,NA,incomplete,189,color,0,left,Green_Plus_Stripes_1.jpg,Green_Triangle_Grid_2.jpg,Blue_Plus_Dots_4.jpg,left,896.6399999917485,true,low,false
IeHopwR4,30oitawpctgn4gcs6h6m71vz0jeh92,3gna64guzihj367ddjl1tjeqium5qy,IeHopwR4,2020-0188,2020-11-20,03:55:28,04:28:57,NA,incomplete,190,color,1,left,Red_Triangle_Dots_2.jpg,Red_Star_Stripes_4.jpg,Blue_Triangle_Grid_3.jpg,left,458.1950000138022,true,low,false
IeHopwR4,30oitawpctgn4gcs6h6m71vz0jeh92,3gna64guzihj367ddjl1tjeqium5qy,IeHopwR4,2020-0188,2020-11-20,03:55:28,04:28:57,NA,incomplete,191,color,0,left,Blue_Plus_Dots_1.jpg,Blue_Circle_Stripes_4.jpg,Purple_Plus_Chess_3.jpg,left,401.77500003483146,true,low,false
IeHopwR4,30oitawpctgn4gcs6h6m71vz0jeh92,3gna64guzihj367ddjl1tjeqium5qy,IeHopwR4,2020-0188,2020-11-20,03:55:28,04:28:57,NA,incomplete,192,color,1,left,Red_Triangle_Chess_3.jpg,Red_Plus_Grid_2.jpg,Purple_Triangle_Stripes_4.jpg,left,406.68499999446794,true,low,false
IeHopwR4,30oitawpctgn4gcs6h6m71vz0jeh92,3gna64guzihj367ddjl1tjeqium5qy,IeHopwR4,2020-0188,2020-11-20,03:55:28,04:28:57,NA,incomplete,193,color,1,left,Purple_Plus_Stripes_1.jpg,Purple_Circle_Grid_2.jpg,Blue_Plus_Chess_3.jpg,left,381.6550000337884,true,low,false
IeHopwR4,30oitawpctgn4gcs6h6m71vz0jeh92,3gna64guzihj367ddjl1tjeqium5qy,IeHopwR4,2020-0188,2020-11-20,03:55:28,04:28:57,NA,incomplete,194,color,1,left,Red_Plus_Chess_1.jpg,Red_Triangle_Stripes_4.jpg,Green_Plus_Dots_2.jpg,left,449.53500002156943,true,low,false
IeHopwR4,30oitawpctgn4gcs6h6m71vz0jeh92,3gna64guzihj367ddjl1tjeqium5qy,IeHopwR4,2020-0188,2020-11-20,03:55:28,04:28:57,NA,incomplete,195,color,0,left,Purple_Circle_Chess_1.jpg,Purple_Star_Dots_4.jpg,Red_Circle_Stripes_3.jpg,left,561.9750000187196,true,low,false
IeHopwR4,30oitawpctgn4gcs6h6m71vz0jeh92,3gna64guzihj367ddjl1tjeqium5qy,IeHopwR4,2020-0188,2020-11-20,03:55:28,04:28:57,NA,incomplete,196,color,1,right,Blue_Circle_Stripes_1.jpg,Red_Circle_Chess_3.jpg,Blue_Star_Dots_2.jpg,right,526.335000002291,true,low,false
IeHopwR4,30oitawpctgn4gcs6h6m71vz0jeh92,3gna64guzihj367ddjl1tjeqium5qy,IeHopwR4,2020-0188,2020-11-20,03:55:28,04:28:57,NA,incomplete,197,color,1,left,Purple_Plus_Stripes_4.jpg,Purple_Star_Chess_3.jpg,Red_Plus_Grid_2.jpg,left,474.1799999610521,true,low,false
IeHopwR4,30oitawpctgn4gcs6h6m71vz0jeh92,3gna64guzihj367ddjl1tjeqium5qy,IeHopwR4,2020-0188,2020-11-20,03:55:28,04:28:57,NA,incomplete,198,color,0,right,Blue_Circle_Grid_1.jpg,Purple_Circle_Chess_3.jpg,Blue_Plus_Stripes_4.jpg,right,391.9799999566749,true,low,false
IeHopwR4,30oitawpctgn4gcs6h6m71vz0jeh92,3gna64guzihj367ddjl1tjeqium5qy,IeHopwR4,2020-0188,2020-11-20,03:55:28,04:28:57,NA,incomplete,199,color,1,left,Blue_Circle_Stripes_4.jpg,Blue_Triangle_Chess_1.jpg,Purple_Circle_Dots_2.jpg,left,358.82500000298023,true,low,false
IeHopwR4,30oitawpctgn4gcs6h6m71vz0jeh92,3gna64guzihj367ddjl1tjeqium5qy,IeHopwR4,2020-0188,2020-11-20,03:55:28,04:28:57,NA,incomplete,200,shape,1,right,Blue_Circle_Stripes_3.jpg,Blue_Star_Chess_4.jpg,Green_Circle_Dots_1.jpg,left,372.7649999782443,false,low,false
IeHopwR4,30oitawpctgn4gcs6h6m71vz0jeh92,3gna64guzihj367ddjl1tjeqium5qy,IeHopwR4,2020-0188,2020-11-20,03:55:28,04:28:57,NA,incomplete,201,shape,1,left,Purple_Triangle_Chess_2.jpg,Red_Triangle_Grid_3.jpg,Purple_Star_Dots_4.jpg,right,611.2299999804236,false,low,false
IeHopwR4,30oitawpctgn4gcs6h6m71vz0jeh92,3gna64guzihj367ddjl1tjeqium5qy,IeHopwR4,2020-0188,2020-11-20,03:55:28,04:28:57,NA,incomplete,202,shape,1,left,Green_Triangle_Stripes_2.jpg,Blue_Triangle_Grid_3.jpg,Green_Circle_Dots_4.jpg,left,802.5400000042282,true,low,false
IeHopwR4,30oitawpctgn4gcs6h6m71vz0jeh92,3gna64guzihj367ddjl1tjeqium5qy,IeHopwR4,2020-0188,2020-11-20,03:55:28,04:28:57,NA,incomplete,203,shape,0,left,Green_Plus_Chess_1.jpg,Blue_Plus_Dots_4.jpg,Green_Circle_Stripes_3.jpg,left,632.3349999729544,true,low,false
IeHopwR4,30oitawpctgn4gcs6h6m71vz0jeh92,3gna64guzihj367ddjl1tjeqium5qy,IeHopwR4,2020-0188,2020-11-20,03:55:28,04:28:57,NA,incomplete,204,shape,1,right,Green_Star_Chess_2.jpg,Green_Plus_Dots_4.jpg,Purple_Star_Grid_1.jpg,right,835.190000012517,true,low,false
IeHopwR4,30oitawpctgn4gcs6h6m71vz0jeh92,3gna64guzihj367ddjl1tjeqium5qy,IeHopwR4,2020-0188,2020-11-20,03:55:28,04:28:57,NA,incomplete,205,shape,1,left,Purple_Triangle_Grid_4.jpg,Red_Triangle_Dots_1.jpg,Purple_Plus_Stripes_3.jpg,left,597.0799999777228,true,low,false
IeHopwR4,30oitawpctgn4gcs6h6m71vz0jeh92,3gna64guzihj367ddjl1tjeqium5qy,IeHopwR4,2020-0188,2020-11-20,03:55:28,04:28:57,NA,incomplete,206,shape,1,right,Green_Star_Grid_3.jpg,Green_Plus_Dots_1.jpg,Red_Star_Chess_2.jpg,right,574.4649999542162,true,low,false
IeHopwR4,30oitawpctgn4gcs6h6m71vz0jeh92,3gna64guzihj367ddjl1tjeqium5qy,IeHopwR4,2020-0188,2020-11-20,03:55:28,04:28:57,NA,incomplete,207,shape,1,right,Red_Star_Stripes_4.jpg,Red_Plus_Grid_3.jpg,Green_Star_Chess_2.jpg,right,556.8450000137091,true,low,false
IeHopwR4,30oitawpctgn4gcs6h6m71vz0jeh92,3gna64guzihj367ddjl1tjeqium5qy,IeHopwR4,2020-0188,2020-11-20,03:55:28,04:28:57,NA,incomplete,208,shape,0,right,Purple_Star_Dots_3.jpg,Purple_Triangle_Chess_1.jpg,Green_Star_Stripes_4.jpg,right,477.68000001087785,true,low,false
IeHopwR4,30oitawpctgn4gcs6h6m71vz0jeh92,3gna64guzihj367ddjl1tjeqium5qy,IeHopwR4,2020-0188,2020-11-20,03:55:28,04:28:57,NA,incomplete,209,shape,1,left,Purple_Star_Grid_2.jpg,Green_Star_Stripes_4.jpg,Purple_Circle_Chess_3.jpg,left,495.6349999993108,true,low,false
IeHopwR4,30oitawpctgn4gcs6h6m71vz0jeh92,3gna64guzihj367ddjl1tjeqium5qy,IeHopwR4,2020-0188,2020-11-20,03:55:28,04:28:57,NA,incomplete,210,shape,0,right,Blue_Circle_Dots_1.jpg,Blue_Star_Grid_4.jpg,Green_Circle_Chess_3.jpg,right,512.3799999710172,true,low,false
IeHopwR4,30oitawpctgn4gcs6h6m71vz0jeh92,3gna64guzihj367ddjl1tjeqium5qy,IeHopwR4,2020-0188,2020-11-20,03:55:28,04:28:57,NA,incomplete,211,shape,1,right,Blue_Star_Dots_2.jpg,Blue_Circle_Stripes_3.jpg,Red_Star_Chess_1.jpg,right,602.744999981951,true,low,false
IeHopwR4,30oitawpctgn4gcs6h6m71vz0jeh92,3gna64guzihj367ddjl1tjeqium5qy,IeHopwR4,2020-0188,2020-11-20,03:55:28,04:28:57,NA,incomplete,212,shape,1,left,Green_Star_Stripes_1.jpg,Red_Star_Dots_2.jpg,Green_Circle_Chess_4.jpg,left,441.29499996779487,true,low,false
IeHopwR4,30oitawpctgn4gcs6h6m71vz0jeh92,3gna64guzihj367ddjl1tjeqium5qy,IeHopwR4,2020-0188,2020-11-20,03:55:28,04:28:57,NA,incomplete,213,shape,1,right,Green_Plus_Chess_3.jpg,Green_Star_Stripes_1.jpg,Purple_Plus_Dots_4.jpg,right,633.9849999640137,true,low,false
IeHopwR4,30oitawpctgn4gcs6h6m71vz0jeh92,3gna64guzihj367ddjl1tjeqium5qy,IeHopwR4,2020-0188,2020-11-20,03:55:28,04:28:57,NA,incomplete,214,shape,0,right,Blue_Plus_Grid_2.jpg,Blue_Circle_Chess_4.jpg,Red_Plus_Stripes_3.jpg,right,570.8299999823794,true,low,false
IeHopwR4,30oitawpctgn4gcs6h6m71vz0jeh92,3gna64guzihj367ddjl1tjeqium5qy,IeHopwR4,2020-0188,2020-11-20,03:55:28,04:28:57,NA,incomplete,215,shape,1,right,Purple_Circle_Stripes_1.jpg,Purple_Plus_Dots_4.jpg,Green_Circle_Chess_2.jpg,right,608.7749999715015,true,low,false
IeHopwR4,30oitawpctgn4gcs6h6m71vz0jeh92,3gna64guzihj367ddjl1tjeqium5qy,IeHopwR4,2020-0188,2020-11-20,03:55:28,04:28:57,NA,incomplete,216,shape,0,left,Purple_Star_Stripes_4.jpg,Blue_Star_Dots_1.jpg,Purple_Triangle_Chess_2.jpg,left,720.1850000419654,true,low,false
IeHopwR4,30oitawpctgn4gcs6h6m71vz0jeh92,3gna64guzihj367ddjl1tjeqium5qy,IeHopwR4,2020-0188,2020-11-20,03:55:28,04:28:57,NA,incomplete,217,shape,1,left,Green_Plus_Chess_1.jpg,Blue_Plus_Dots_2.jpg,Green_Triangle_Grid_3.jpg,left,732.5399999972433,true,low,false
IeHopwR4,30oitawpctgn4gcs6h6m71vz0jeh92,3gna64guzihj367ddjl1tjeqium5qy,IeHopwR4,2020-0188,2020-11-20,03:55:28,04:28:57,NA,incomplete,218,shape,1,right,Red_Plus_Grid_3.jpg,Red_Triangle_Chess_4.jpg,Green_Plus_Dots_1.jpg,right,551.3599999831058,true,low,false
IeHopwR4,30oitawpctgn4gcs6h6m71vz0jeh92,3gna64guzihj367ddjl1tjeqium5qy,IeHopwR4,2020-0188,2020-11-20,03:55:28,04:28:57,NA,incomplete,219,shape,1,right,Red_Star_Dots_3.jpg,Red_Circle_Chess_1.jpg,Blue_Star_Grid_2.jpg,right,486.18499998701736,true,low,false
IeHopwR4,30oitawpctgn4gcs6h6m71vz0jeh92,3gna64guzihj367ddjl1tjeqium5qy,IeHopwR4,2020-0188,2020-11-20,03:55:28,04:28:57,NA,incomplete,220,color,0,left,Red_Star_Chess_2.jpg,Red_Triangle_Grid_3.jpg,Purple_Star_Stripes_1.jpg,right,503.0249999836087,false,low,false
IeHopwR4,30oitawpctgn4gcs6h6m71vz0jeh92,3gna64guzihj367ddjl1tjeqium5qy,IeHopwR4,2020-0188,2020-11-20,03:55:28,04:28:57,NA,incomplete,221,color,1,right,Green_Circle_Dots_4.jpg,Purple_Circle_Grid_2.jpg,Green_Triangle_Stripes_3.jpg,left,493.5950000071898,false,low,false
IeHopwR4,30oitawpctgn4gcs6h6m71vz0jeh92,3gna64guzihj367ddjl1tjeqium5qy,IeHopwR4,2020-0188,2020-11-20,03:55:28,04:28:57,NA,incomplete,222,color,1,left,Red_Circle_Grid_2.jpg,Red_Star_Dots_1.jpg,Purple_Circle_Stripes_3.jpg,right,453.8450000109151,false,low,false
IeHopwR4,30oitawpctgn4gcs6h6m71vz0jeh92,3gna64guzihj367ddjl1tjeqium5qy,IeHopwR4,2020-0188,2020-11-20,03:55:28,04:28:57,NA,incomplete,223,color,1,left,Green_Plus_Stripes_4.jpg,Green_Circle_Grid_3.jpg,Red_Plus_Dots_2.jpg,left,423.7449999782257,true,low,false
IeHopwR4,30oitawpctgn4gcs6h6m71vz0jeh92,3gna64guzihj367ddjl1tjeqium5qy,IeHopwR4,2020-0188,2020-11-20,03:55:28,04:28:57,NA,incomplete,224,color,1,right,Red_Plus_Dots_4.jpg,Blue_Plus_Stripes_2.jpg,Red_Triangle_Grid_3.jpg,right,365.6950000440702,true,low,false
IeHopwR4,30oitawpctgn4gcs6h6m71vz0jeh92,3gna64guzihj367ddjl1tjeqium5qy,IeHopwR4,2020-0188,2020-11-20,03:55:28,04:28:57,NA,incomplete,225,color,1,left,Green_Plus_Stripes_3.jpg,Green_Circle_Chess_1.jpg,Purple_Plus_Grid_4.jpg,left,450.5650000064634,true,low,false
IeHopwR4,30oitawpctgn4gcs6h6m71vz0jeh92,3gna64guzihj367ddjl1tjeqium5qy,IeHopwR4,2020-0188,2020-11-20,03:55:28,04:28:57,NA,incomplete,226,color,1,right,Green_Circle_Stripes_3.jpg,Purple_Circle_Chess_1.jpg,Green_Star_Dots_2.jpg,right,331.34499995503575,true,low,false
IeHopwR4,30oitawpctgn4gcs6h6m71vz0jeh92,3gna64guzihj367ddjl1tjeqium5qy,IeHopwR4,2020-0188,2020-11-20,03:55:28,04:28:57,NA,incomplete,227,color,1,right,Green_Star_Grid_4.jpg,Purple_Star_Chess_1.jpg,Green_Plus_Dots_3.jpg,right,353.7800000049174,true,low,false
IeHopwR4,30oitawpctgn4gcs6h6m71vz0jeh92,3gna64guzihj367ddjl1tjeqium5qy,IeHopwR4,2020-0188,2020-11-20,03:55:28,04:28:57,NA,incomplete,228,color,1,right,Red_Plus_Grid_1.jpg,Green_Plus_Dots_4.jpg,Red_Triangle_Chess_3.jpg,right,678.0799999833107,true,low,false
IeHopwR4,30oitawpctgn4gcs6h6m71vz0jeh92,3gna64guzihj367ddjl1tjeqium5qy,IeHopwR4,2020-0188,2020-11-20,03:55:28,04:28:57,NA,incomplete,229,color,1,left,Green_Triangle_Stripes_3.jpg,Green_Circle_Chess_2.jpg,Blue_Triangle_Dots_1.jpg,left,466.9599999906495,true,low,false
IeHopwR4,30oitawpctgn4gcs6h6m71vz0jeh92,3gna64guzihj367ddjl1tjeqium5qy,IeHopwR4,2020-0188,2020-11-20,03:55:28,04:28:57,NA,incomplete,230,color,1,right,Green_Plus_Stripes_2.jpg,Red_Plus_Chess_3.jpg,Green_Star_Dots_4.jpg,right,395.8649999694899,true,low,false
IeHopwR4,30oitawpctgn4gcs6h6m71vz0jeh92,3gna64guzihj367ddjl1tjeqium5qy,IeHopwR4,2020-0188,2020-11-20,03:55:28,04:28:57,NA,incomplete,231,color,1,left,Green_Triangle_Chess_4.jpg,Green_Plus_Grid_2.jpg,Blue_Triangle_Dots_1.jpg,left,337.70500001264736,true,low,false
IeHopwR4,30oitawpctgn4gcs6h6m71vz0jeh92,3gna64guzihj367ddjl1tjeqium5qy,IeHopwR4,2020-0188,2020-11-20,03:55:28,04:28:57,NA,incomplete,232,color,1,left,Purple_Star_Dots_3.jpg,Purple_Plus_Grid_4.jpg,Green_Star_Stripes_2.jpg,left,779.2299999855459,true,low,false
IeHopwR4,30oitawpctgn4gcs6h6m71vz0jeh92,3gna64guzihj367ddjl1tjeqium5qy,IeHopwR4,2020-0188,2020-11-20,03:55:28,04:28:57,NA,incomplete,233,color,1,left,Red_Circle_Chess_4.jpg,Red_Triangle_Grid_2.jpg,Purple_Circle_Stripes_1.jpg,left,432.45500000193715,true,low,false
IeHopwR4,30oitawpctgn4gcs6h6m71vz0jeh92,3gna64guzihj367ddjl1tjeqium5qy,IeHopwR4,2020-0188,2020-11-20,03:55:28,04:28:57,NA,incomplete,234,color,1,left,Blue_Triangle_Stripes_3.jpg,Blue_Plus_Chess_1.jpg,Red_Triangle_Grid_4.jpg,left,615.3500000364147,true,low,false
IeHopwR4,30oitawpctgn4gcs6h6m71vz0jeh92,3gna64guzihj367ddjl1tjeqium5qy,IeHopwR4,2020-0188,2020-11-20,03:55:28,04:28:57,NA,incomplete,235,color,1,left,Purple_Plus_Dots_3.jpg,Purple_Star_Chess_1.jpg,Green_Plus_Stripes_4.jpg,left,626.1850000009872,true,low,false
IeHopwR4,30oitawpctgn4gcs6h6m71vz0jeh92,3gna64guzihj367ddjl1tjeqium5qy,IeHopwR4,2020-0188,2020-11-20,03:55:28,04:28:57,NA,incomplete,236,color,1,right,Blue_Star_Dots_3.jpg,Purple_Star_Chess_1.jpg,Blue_Triangle_Stripes_4.jpg,right,389.06499999575317,true,low,false
IeHopwR4,30oitawpctgn4gcs6h6m71vz0jeh92,3gna64guzihj367ddjl1tjeqium5qy,IeHopwR4,2020-0188,2020-11-20,03:55:28,04:28:57,NA,incomplete,237,color,1,left,Blue_Triangle_Chess_4.jpg,Blue_Circle_Grid_2.jpg,Red_Triangle_Dots_1.jpg,left,489.9650000152178,true,low,false
IeHopwR4,30oitawpctgn4gcs6h6m71vz0jeh92,3gna64guzihj367ddjl1tjeqium5qy,IeHopwR4,2020-0188,2020-11-20,03:55:28,04:28:57,NA,incomplete,238,color,1,right,Purple_Circle_Chess_4.jpg,Red_Circle_Dots_2.jpg,Purple_Triangle_Grid_1.jpg,right,487.299999978859,true,low,false
IeHopwR4,30oitawpctgn4gcs6h6m71vz0jeh92,3gna64guzihj367ddjl1tjeqium5qy,IeHopwR4,2020-0188,2020-11-20,03:55:28,04:28:57,NA,incomplete,239,color,1,right,Green_Circle_Grid_1.jpg,Blue_Circle_Stripes_4.jpg,Green_Triangle_Dots_2.jpg,right,633.655000012368,true,low,false
IeHopwR4,30oitawpctgn4gcs6h6m71vz0jeh92,3gna64guzihj367ddjl1tjeqium5qy,IeHopwR4,2020-0188,2020-11-20,03:55:28,04:28:57,1964702.3599999957,2010706.1249999679,NA,NA,NA,NA,NA,NA,NA,NA,NA,NA,NA,undefined
