workerId,hitId,assignmentId,subject,studyid,exp_date,exp_start,exp_end,time_start,time_end,trial,type,reward_validity,answer,image_top,image_left,image_right,response,response_time,response_acc,volatility,age,race,gender,ethnicity,color,vision,neuro,practice
eOQ6S5h7,3m67tqbqrk18ut4e0bwuqf8vno09av,3gnczx450m0v90if82xt1p425dbapu,eOQ6S5h7,2020-0188,2020-11-20,09:56:30,10:17:32,NA,incomplete,0,filling,1,left,Green_Plus_Chess_4.jpg,Purple_Triangle_Chess_3.jpg,Green_Circle_Dots_2.jpg,left,737.2549999272451,true,NA,NA,NA,NA,NA,NA,NA,NA,true
eOQ6S5h7,3m67tqbqrk18ut4e0bwuqf8vno09av,3gnczx450m0v90if82xt1p425dbapu,eOQ6S5h7,2020-0188,2020-11-20,09:56:30,10:17:32,NA,incomplete,1,filling,1,right,Green_Triangle_Grid_4.jpg,Green_Star_Stripes_2.jpg,Purple_Plus_Grid_1.jpg,right,1223.505000001751,true,NA,NA,NA,NA,NA,NA,NA,NA,true
eOQ6S5h7,3m67tqbqrk18ut4e0bwuqf8vno09av,3gnczx450m0v90if82xt1p425dbapu,eOQ6S5h7,2020-0188,2020-11-20,09:56:30,10:17:32,NA,incomplete,2,filling,1,left,Red_Star_Chess_2.jpg,Purple_Circle_Chess_4.jpg,Red_Plus_Stripes_3.jpg,left,1011.1050000414252,true,NA,NA,NA,NA,NA,NA,NA,NA,true
eOQ6S5h7,3m67tqbqrk18ut4e0bwuqf8vno09av,3gnczx450m0v90if82xt1p425dbapu,eOQ6S5h7,2020-0188,2020-11-20,09:56:30,10:17:32,NA,incomplete,3,filling,1,left,Purple_Triangle_Chess_1.jpg,Blue_Circle_Chess_3.jpg,Purple_Star_Grid_4.jpg,right,1455.1299999002367,false,NA,NA,NA,NA,NA,NA,NA,NA,true
eOQ6S5h7,3m67tqbqrk18ut4e0bwuqf8vno09av,3gnczx450m0v90if82xt1p425dbapu,eOQ6S5h7,2020-0188,2020-11-20,09:56:30,10:17:32,NA,incomplete,4,filling,1,right,Green_Plus_Stripes_1.jpg,Green_Circle_Dots_2.jpg,Purple_Triangle_Stripes_4.jpg,right,1321.5699999127537,true,NA,NA,NA,NA,NA,NA,NA,NA,true
eOQ6S5h7,3m67tqbqrk18ut4e0bwuqf8vno09av,3gnczx450m0v90if82xt1p425dbapu,eOQ6S5h7,2020-0188,2020-11-20,09:56:30,10:17:32,NA,incomplete,5,filling,0,right,Red_Triangle_Grid_4.jpg,Red_Circle_Stripes_1.jpg,Purple_Plus_Grid_2.jpg,left,1344.1699999384582,false,NA,NA,NA,NA,NA,NA,NA,NA,true
eOQ6S5h7,3m67tqbqrk18ut4e0bwuqf8vno09av,3gnczx450m0v90if82xt1p425dbapu,eOQ6S5h7,2020-0188,2020-11-20,09:56:30,10:17:32,NA,incomplete,6,filling,1,right,Blue_Circle_Grid_4.jpg,Blue_Star_Dots_1.jpg,Red_Plus_Grid_3.jpg,left,1718.9149999758229,false,NA,NA,NA,NA,NA,NA,NA,NA,true
eOQ6S5h7,3m67tqbqrk18ut4e0bwuqf8vno09av,3gnczx450m0v90if82xt1p425dbapu,eOQ6S5h7,2020-0188,2020-11-20,09:56:30,10:17:32,NA,incomplete,7,filling,1,right,Green_Star_Chess_1.jpg,Green_Circle_Grid_2.jpg,Blue_Triangle_Chess_4.jpg,right,1054.340000031516,true,NA,NA,NA,NA,NA,NA,NA,NA,true
eOQ6S5h7,3m67tqbqrk18ut4e0bwuqf8vno09av,3gnczx450m0v90if82xt1p425dbapu,eOQ6S5h7,2020-0188,2020-11-20,09:56:30,10:17:32,NA,incomplete,8,filling,1,left,Green_Star_Chess_4.jpg,Purple_Circle_Chess_1.jpg,Green_Triangle_Grid_2.jpg,left,1409.22499995213,true,NA,NA,NA,NA,NA,NA,NA,NA,true
eOQ6S5h7,3m67tqbqrk18ut4e0bwuqf8vno09av,3gnczx450m0v90if82xt1p425dbapu,eOQ6S5h7,2020-0188,2020-11-20,09:56:30,10:17:32,NA,incomplete,9,filling,1,right,Purple_Circle_Grid_4.jpg,Purple_Triangle_Stripes_3.jpg,Green_Plus_Grid_1.jpg,left,1420.2300000470132,false,NA,NA,NA,NA,NA,NA,NA,NA,true
eOQ6S5h7,3m67tqbqrk18ut4e0bwuqf8vno09av,3gnczx450m0v90if82xt1p425dbapu,eOQ6S5h7,2020-0188,2020-11-20,09:56:30,10:17:32,NA,incomplete,10,filling,1,left,Red_Triangle_Stripes_1.jpg,Purple_Plus_Stripes_4.jpg,Red_Star_Grid_3.jpg,left,1607.1450000163168,true,NA,NA,NA,NA,NA,NA,NA,NA,true
eOQ6S5h7,3m67tqbqrk18ut4e0bwuqf8vno09av,3gnczx450m0v90if82xt1p425dbapu,eOQ6S5h7,2020-0188,2020-11-20,09:56:30,10:17:32,NA,incomplete,11,filling,1,right,Red_Plus_Chess_2.jpg,Red_Triangle_Dots_3.jpg,Purple_Star_Chess_1.jpg,right,1379.8599999863654,true,NA,NA,NA,NA,NA,NA,NA,NA,true
eOQ6S5h7,3m67tqbqrk18ut4e0bwuqf8vno09av,3gnczx450m0v90if82xt1p425dbapu,eOQ6S5h7,2020-0188,2020-11-20,09:56:30,10:17:32,NA,incomplete,12,filling,1,left,Purple_Plus_Dots_3.jpg,Green_Star_Dots_4.jpg,Purple_Circle_Chess_2.jpg,left,1425.150000024587,true,NA,NA,NA,NA,NA,NA,NA,NA,true
eOQ6S5h7,3m67tqbqrk18ut4e0bwuqf8vno09av,3gnczx450m0v90if82xt1p425dbapu,eOQ6S5h7,2020-0188,2020-11-20,09:56:30,10:17:32,NA,incomplete,13,filling,1,left,Blue_Circle_Stripes_3.jpg,Green_Triangle_Stripes_2.jpg,Blue_Plus_Chess_4.jpg,left,1427.8400000184774,true,NA,NA,NA,NA,NA,NA,NA,NA,true
eOQ6S5h7,3m67tqbqrk18ut4e0bwuqf8vno09av,3gnczx450m0v90if82xt1p425dbapu,eOQ6S5h7,2020-0188,2020-11-20,09:56:30,10:17:32,NA,incomplete,14,filling,1,right,Red_Star_Grid_3.jpg,Red_Circle_Chess_2.jpg,Purple_Plus_Grid_1.jpg,right,1527.144999941811,true,NA,NA,NA,NA,NA,NA,NA,NA,true
eOQ6S5h7,3m67tqbqrk18ut4e0bwuqf8vno09av,3gnczx450m0v90if82xt1p425dbapu,eOQ6S5h7,2020-0188,2020-11-20,09:56:30,10:17:32,NA,incomplete,15,filling,1,left,Red_Circle_Chess_1.jpg,Green_Triangle_Chess_2.jpg,Red_Star_Dots_3.jpg,right,1542.3249999294057,false,NA,NA,NA,NA,NA,NA,NA,NA,true
eOQ6S5h7,3m67tqbqrk18ut4e0bwuqf8vno09av,3gnczx450m0v90if82xt1p425dbapu,eOQ6S5h7,2020-0188,2020-11-20,09:56:30,10:17:32,NA,incomplete,16,filling,1,left,Purple_Star_Stripes_3.jpg,Green_Circle_Stripes_4.jpg,Purple_Plus_Dots_1.jpg,left,1230.1799999549985,true,NA,NA,NA,NA,NA,NA,NA,NA,true
eOQ6S5h7,3m67tqbqrk18ut4e0bwuqf8vno09av,3gnczx450m0v90if82xt1p425dbapu,eOQ6S5h7,2020-0188,2020-11-20,09:56:30,10:17:32,NA,incomplete,17,filling,1,left,Blue_Triangle_Chess_2.jpg,Red_Star_Chess_4.jpg,Blue_Plus_Stripes_3.jpg,left,1912.9699999466538,true,NA,NA,NA,NA,NA,NA,NA,NA,true
eOQ6S5h7,3m67tqbqrk18ut4e0bwuqf8vno09av,3gnczx450m0v90if82xt1p425dbapu,eOQ6S5h7,2020-0188,2020-11-20,09:56:30,10:17:32,NA,incomplete,18,filling,1,right,Purple_Circle_Dots_4.jpg,Purple_Triangle_Grid_1.jpg,Red_Plus_Dots_3.jpg,right,1584.7150000045076,true,NA,NA,NA,NA,NA,NA,NA,NA,true
eOQ6S5h7,3m67tqbqrk18ut4e0bwuqf8vno09av,3gnczx450m0v90if82xt1p425dbapu,eOQ6S5h7,2020-0188,2020-11-20,09:56:30,10:17:32,NA,incomplete,19,filling,1,left,Purple_Star_Stripes_1.jpg,Red_Triangle_Stripes_2.jpg,Purple_Plus_Chess_4.jpg,left,1956.8600000347942,true,NA,NA,NA,NA,NA,NA,NA,NA,true
eOQ6S5h7,3m67tqbqrk18ut4e0bwuqf8vno09av,3gnczx450m0v90if82xt1p425dbapu,eOQ6S5h7,2020-0188,2020-11-20,09:56:30,10:17:32,NA,incomplete,20,color,1,right,Blue_Triangle_Stripes_2.jpg,Green_Star_Stripes_3.jpg,Blue_Plus_Chess_1.jpg,left,1412.110000033863,false,NA,NA,NA,NA,NA,NA,NA,NA,true
eOQ6S5h7,3m67tqbqrk18ut4e0bwuqf8vno09av,3gnczx450m0v90if82xt1p425dbapu,eOQ6S5h7,2020-0188,2020-11-20,09:56:30,10:17:32,NA,incomplete,21,color,0,right,Red_Plus_Grid_4.jpg,Green_Star_Grid_2.jpg,Red_Circle_Chess_1.jpg,left,1519.399999990128,false,NA,NA,NA,NA,NA,NA,NA,NA,true
eOQ6S5h7,3m67tqbqrk18ut4e0bwuqf8vno09av,3gnczx450m0v90if82xt1p425dbapu,eOQ6S5h7,2020-0188,2020-11-20,09:56:30,10:17:32,NA,incomplete,22,color,1,right,Green_Triangle_Grid_3.jpg,Blue_Circle_Grid_4.jpg,Green_Star_Chess_2.jpg,left,1358.8300000410527,false,NA,NA,NA,NA,NA,NA,NA,NA,true
eOQ6S5h7,3m67tqbqrk18ut4e0bwuqf8vno09av,3gnczx450m0v90if82xt1p425dbapu,eOQ6S5h7,2020-0188,2020-11-20,09:56:30,10:17:32,NA,incomplete,23,color,1,left,Green_Triangle_Chess_1.jpg,Green_Circle_Stripes_2.jpg,Purple_Star_Chess_3.jpg,right,1019.3750000325963,false,NA,NA,NA,NA,NA,NA,NA,NA,true
eOQ6S5h7,3m67tqbqrk18ut4e0bwuqf8vno09av,3gnczx450m0v90if82xt1p425dbapu,eOQ6S5h7,2020-0188,2020-11-20,09:56:30,10:17:32,NA,incomplete,24,color,0,left,Green_Circle_Grid_4.jpg,Green_Triangle_Stripes_3.jpg,Purple_Star_Grid_1.jpg,left,1321.2350000394508,true,NA,NA,NA,NA,NA,NA,NA,NA,true
eOQ6S5h7,3m67tqbqrk18ut4e0bwuqf8vno09av,3gnczx450m0v90if82xt1p425dbapu,eOQ6S5h7,2020-0188,2020-11-20,09:56:30,10:17:32,NA,incomplete,25,color,0,left,Purple_Triangle_Grid_3.jpg,Purple_Plus_Dots_2.jpg,Red_Circle_Grid_1.jpg,right,1767.6199999405071,false,NA,NA,NA,NA,NA,NA,NA,NA,true
eOQ6S5h7,3m67tqbqrk18ut4e0bwuqf8vno09av,3gnczx450m0v90if82xt1p425dbapu,eOQ6S5h7,2020-0188,2020-11-20,09:56:30,10:17:32,NA,incomplete,26,color,1,right,Purple_Triangle_Stripes_2.jpg,Blue_Star_Stripes_1.jpg,Purple_Circle_Dots_3.jpg,left,1501.0149999288842,false,NA,NA,NA,NA,NA,NA,NA,NA,true
eOQ6S5h7,3m67tqbqrk18ut4e0bwuqf8vno09av,3gnczx450m0v90if82xt1p425dbapu,eOQ6S5h7,2020-0188,2020-11-20,09:56:30,10:17:32,NA,incomplete,27,color,1,left,Blue_Star_Stripes_3.jpg,Blue_Triangle_Grid_4.jpg,Green_Plus_Stripes_1.jpg,left,877.3400000063702,true,NA,NA,NA,NA,NA,NA,NA,NA,true
eOQ6S5h7,3m67tqbqrk18ut4e0bwuqf8vno09av,3gnczx450m0v90if82xt1p425dbapu,eOQ6S5h7,2020-0188,2020-11-20,09:56:30,10:17:32,NA,incomplete,28,color,1,right,Blue_Plus_Grid_3.jpg,Purple_Triangle_Grid_4.jpg,Blue_Star_Stripes_2.jpg,right,1367.5250000087544,true,NA,NA,NA,NA,NA,NA,NA,NA,true
eOQ6S5h7,3m67tqbqrk18ut4e0bwuqf8vno09av,3gnczx450m0v90if82xt1p425dbapu,eOQ6S5h7,2020-0188,2020-11-20,09:56:30,10:17:32,NA,incomplete,29,color,0,left,Blue_Star_Dots_3.jpg,Blue_Circle_Stripes_1.jpg,Green_Plus_Dots_2.jpg,right,1900.2749999053776,false,NA,NA,NA,NA,NA,NA,NA,NA,true
eOQ6S5h7,3m67tqbqrk18ut4e0bwuqf8vno09av,3gnczx450m0v90if82xt1p425dbapu,eOQ6S5h7,2020-0188,2020-11-20,09:56:30,10:17:32,NA,incomplete,30,color,1,left,Red_Circle_Chess_1.jpg,Red_Plus_Stripes_4.jpg,Purple_Star_Chess_3.jpg,right,1603.720000013709,false,NA,NA,NA,NA,NA,NA,NA,NA,true
eOQ6S5h7,3m67tqbqrk18ut4e0bwuqf8vno09av,3gnczx450m0v90if82xt1p425dbapu,eOQ6S5h7,2020-0188,2020-11-20,09:56:30,10:17:32,NA,incomplete,31,color,1,right,Red_Star_Grid_2.jpg,Blue_Circle_Grid_1.jpg,Red_Triangle_Dots_4.jpg,left,1511.83500001207,false,NA,NA,NA,NA,NA,NA,NA,NA,true
eOQ6S5h7,3m67tqbqrk18ut4e0bwuqf8vno09av,3gnczx450m0v90if82xt1p425dbapu,eOQ6S5h7,2020-0188,2020-11-20,09:56:30,10:17:32,NA,incomplete,32,color,0,right,Blue_Star_Grid_1.jpg,Green_Plus_Grid_4.jpg,Blue_Circle_Chess_2.jpg,left,1248.6400000052527,false,NA,NA,NA,NA,NA,NA,NA,NA,true
eOQ6S5h7,3m67tqbqrk18ut4e0bwuqf8vno09av,3gnczx450m0v90if82xt1p425dbapu,eOQ6S5h7,2020-0188,2020-11-20,09:56:30,10:17:32,NA,incomplete,33,color,1,left,Blue_Circle_Grid_3.jpg,Blue_Triangle_Stripes_4.jpg,Green_Star_Grid_2.jpg,right,1459.2149999225512,false,NA,NA,NA,NA,NA,NA,NA,NA,true
eOQ6S5h7,3m67tqbqrk18ut4e0bwuqf8vno09av,3gnczx450m0v90if82xt1p425dbapu,eOQ6S5h7,2020-0188,2020-11-20,09:56:30,10:17:32,NA,incomplete,34,color,1,left,Blue_Triangle_Chess_4.jpg,Blue_Star_Stripes_2.jpg,Green_Circle_Chess_1.jpg,right,1052.8400000184774,false,NA,NA,NA,NA,NA,NA,NA,NA,true
eOQ6S5h7,3m67tqbqrk18ut4e0bwuqf8vno09av,3gnczx450m0v90if82xt1p425dbapu,eOQ6S5h7,2020-0188,2020-11-20,09:56:30,10:17:32,NA,incomplete,35,color,1,left,Blue_Plus_Dots_4.jpg,Blue_Circle_Grid_1.jpg,Purple_Triangle_Dots_2.jpg,right,1062.6099999062717,false,NA,NA,NA,NA,NA,NA,NA,NA,true
eOQ6S5h7,3m67tqbqrk18ut4e0bwuqf8vno09av,3gnczx450m0v90if82xt1p425dbapu,eOQ6S5h7,2020-0188,2020-11-20,09:56:30,10:17:32,NA,incomplete,36,color,1,right,Blue_Plus_Chess_4.jpg,Green_Circle_Chess_1.jpg,Blue_Star_Grid_3.jpg,left,1753.1250000465661,false,NA,NA,NA,NA,NA,NA,NA,NA,true
eOQ6S5h7,3m67tqbqrk18ut4e0bwuqf8vno09av,3gnczx450m0v90if82xt1p425dbapu,eOQ6S5h7,2020-0188,2020-11-20,09:56:30,10:17:32,NA,incomplete,37,color,0,left,Green_Plus_Grid_1.jpg,Green_Star_Chess_2.jpg,Purple_Circle_Grid_3.jpg,right,1206.650000065565,false,NA,NA,NA,NA,NA,NA,NA,NA,true
eOQ6S5h7,3m67tqbqrk18ut4e0bwuqf8vno09av,3gnczx450m0v90if82xt1p425dbapu,eOQ6S5h7,2020-0188,2020-11-20,09:56:30,10:17:32,NA,incomplete,38,color,1,right,Green_Star_Dots_2.jpg,Red_Triangle_Dots_3.jpg,Green_Plus_Chess_1.jpg,left,859.1249999590218,false,NA,NA,NA,NA,NA,NA,NA,NA,true
eOQ6S5h7,3m67tqbqrk18ut4e0bwuqf8vno09av,3gnczx450m0v90if82xt1p425dbapu,eOQ6S5h7,2020-0188,2020-11-20,09:56:30,10:17:32,NA,incomplete,39,color,0,left,Blue_Triangle_Grid_4.jpg,Blue_Star_Stripes_1.jpg,Green_Circle_Grid_3.jpg,none,0,false,NA,NA,NA,NA,NA,NA,NA,NA,true
eOQ6S5h7,3m67tqbqrk18ut4e0bwuqf8vno09av,3gnczx450m0v90if82xt1p425dbapu,eOQ6S5h7,2020-0188,2020-11-20,09:56:30,10:17:32,NA,incomplete,0,filling,1,right,Green_Triangle_Dots_4.jpg,Green_Star_Chess_3.jpg,Blue_Circle_Dots_1.jpg,right,1079.5699999434873,true,low,NA,NA,NA,NA,NA,NA,NA,false
eOQ6S5h7,3m67tqbqrk18ut4e0bwuqf8vno09av,3gnczx450m0v90if82xt1p425dbapu,eOQ6S5h7,2020-0188,2020-11-20,09:56:30,10:17:32,NA,incomplete,1,filling,1,left,Green_Circle_Chess_3.jpg,Blue_Triangle_Chess_4.jpg,Green_Star_Stripes_2.jpg,left,1120.9149999776855,true,low,NA,NA,NA,NA,NA,NA,NA,false
eOQ6S5h7,3m67tqbqrk18ut4e0bwuqf8vno09av,3gnczx450m0v90if82xt1p425dbapu,eOQ6S5h7,2020-0188,2020-11-20,09:56:30,10:17:32,NA,incomplete,2,filling,0,left,Green_Star_Dots_2.jpg,Purple_Triangle_Dots_3.jpg,Green_Plus_Chess_1.jpg,left,1272.164999973029,true,low,NA,NA,NA,NA,NA,NA,NA,false
eOQ6S5h7,3m67tqbqrk18ut4e0bwuqf8vno09av,3gnczx450m0v90if82xt1p425dbapu,eOQ6S5h7,2020-0188,2020-11-20,09:56:30,10:17:32,NA,incomplete,3,filling,1,right,Red_Triangle_Dots_3.jpg,Red_Circle_Grid_4.jpg,Blue_Star_Dots_2.jpg,right,1577.8549999231473,true,low,NA,NA,NA,NA,NA,NA,NA,false
eOQ6S5h7,3m67tqbqrk18ut4e0bwuqf8vno09av,3gnczx450m0v90if82xt1p425dbapu,eOQ6S5h7,2020-0188,2020-11-20,09:56:30,10:17:32,NA,incomplete,4,filling,1,right,Blue_Star_Dots_2.jpg,Blue_Circle_Chess_1.jpg,Red_Plus_Dots_3.jpg,right,1303.2899999525398,true,low,NA,NA,NA,NA,NA,NA,NA,false
eOQ6S5h7,3m67tqbqrk18ut4e0bwuqf8vno09av,3gnczx450m0v90if82xt1p425dbapu,eOQ6S5h7,2020-0188,2020-11-20,09:56:30,10:17:32,NA,incomplete,5,filling,1,right,Green_Circle_Chess_4.jpg,Green_Plus_Grid_2.jpg,Purple_Star_Chess_1.jpg,right,1166.9749999418855,true,low,NA,NA,NA,NA,NA,NA,NA,false
eOQ6S5h7,3m67tqbqrk18ut4e0bwuqf8vno09av,3gnczx450m0v90if82xt1p425dbapu,eOQ6S5h7,2020-0188,2020-11-20,09:56:30,10:17:32,NA,incomplete,6,filling,1,left,Blue_Star_Dots_2.jpg,Red_Triangle_Dots_1.jpg,Blue_Plus_Chess_4.jpg,left,1071.3799999793991,true,low,NA,NA,NA,NA,NA,NA,NA,false
eOQ6S5h7,3m67tqbqrk18ut4e0bwuqf8vno09av,3gnczx450m0v90if82xt1p425dbapu,eOQ6S5h7,2020-0188,2020-11-20,09:56:30,10:17:32,NA,incomplete,7,filling,1,left,Red_Circle_Grid_3.jpg,Green_Plus_Grid_4.jpg,Red_Triangle_Dots_1.jpg,left,1270.909999962896,true,low,NA,NA,NA,NA,NA,NA,NA,false
eOQ6S5h7,3m67tqbqrk18ut4e0bwuqf8vno09av,3gnczx450m0v90if82xt1p425dbapu,eOQ6S5h7,2020-0188,2020-11-20,09:56:30,10:17:32,NA,incomplete,8,filling,1,left,Green_Star_Grid_4.jpg,Blue_Triangle_Grid_3.jpg,Green_Circle_Dots_2.jpg,left,1527.1649999776855,true,low,NA,NA,NA,NA,NA,NA,NA,false
eOQ6S5h7,3m67tqbqrk18ut4e0bwuqf8vno09av,3gnczx450m0v90if82xt1p425dbapu,eOQ6S5h7,2020-0188,2020-11-20,09:56:30,10:17:32,NA,incomplete,9,filling,1,right,Red_Circle_Stripes_1.jpg,Red_Plus_Grid_4.jpg,Blue_Star_Stripes_2.jpg,right,1270.67499991972,true,low,NA,NA,NA,NA,NA,NA,NA,false
eOQ6S5h7,3m67tqbqrk18ut4e0bwuqf8vno09av,3gnczx450m0v90if82xt1p425dbapu,eOQ6S5h7,2020-0188,2020-11-20,09:56:30,10:17:32,NA,incomplete,10,filling,1,left,Purple_Plus_Chess_3.jpg,Blue_Triangle_Chess_2.jpg,Purple_Circle_Dots_4.jpg,left,1552.0749998977408,true,low,NA,NA,NA,NA,NA,NA,NA,false
eOQ6S5h7,3m67tqbqrk18ut4e0bwuqf8vno09av,3gnczx450m0v90if82xt1p425dbapu,eOQ6S5h7,2020-0188,2020-11-20,09:56:30,10:17:32,NA,incomplete,11,filling,0,right,Green_Plus_Stripes_3.jpg,Green_Star_Chess_2.jpg,Purple_Circle_Stripes_1.jpg,left,1551.0950000025332,false,low,NA,NA,NA,NA,NA,NA,NA,false
eOQ6S5h7,3m67tqbqrk18ut4e0bwuqf8vno09av,3gnczx450m0v90if82xt1p425dbapu,eOQ6S5h7,2020-0188,2020-11-20,09:56:30,10:17:32,NA,incomplete,12,filling,0,right,Blue_Plus_Stripes_3.jpg,Blue_Triangle_Dots_2.jpg,Green_Circle_Stripes_4.jpg,right,1380.3599999519065,true,low,NA,NA,NA,NA,NA,NA,NA,false
eOQ6S5h7,3m67tqbqrk18ut4e0bwuqf8vno09av,3gnczx450m0v90if82xt1p425dbapu,eOQ6S5h7,2020-0188,2020-11-20,09:56:30,10:17:32,NA,incomplete,13,filling,1,right,Blue_Plus_Chess_3.jpg,Blue_Star_Dots_4.jpg,Purple_Circle_Chess_2.jpg,right,1025.3900000825524,true,low,NA,NA,NA,NA,NA,NA,NA,false
eOQ6S5h7,3m67tqbqrk18ut4e0bwuqf8vno09av,3gnczx450m0v90if82xt1p425dbapu,eOQ6S5h7,2020-0188,2020-11-20,09:56:30,10:17:32,NA,incomplete,14,filling,1,right,Green_Circle_Grid_3.jpg,Green_Star_Stripes_1.jpg,Purple_Triangle_Grid_2.jpg,right,1876.7650000518188,true,low,NA,NA,NA,NA,NA,NA,NA,false
eOQ6S5h7,3m67tqbqrk18ut4e0bwuqf8vno09av,3gnczx450m0v90if82xt1p425dbapu,eOQ6S5h7,2020-0188,2020-11-20,09:56:30,10:17:32,NA,incomplete,15,filling,1,left,Purple_Plus_Grid_1.jpg,Red_Triangle_Grid_3.jpg,Purple_Star_Dots_2.jpg,left,1126.9450000254437,true,low,NA,NA,NA,NA,NA,NA,NA,false
eOQ6S5h7,3m67tqbqrk18ut4e0bwuqf8vno09av,3gnczx450m0v90if82xt1p425dbapu,eOQ6S5h7,2020-0188,2020-11-20,09:56:30,10:17:32,NA,incomplete,16,filling,0,right,Red_Triangle_Stripes_1.jpg,Red_Plus_Dots_4.jpg,Purple_Star_Stripes_2.jpg,right,1165.1550000533462,true,low,NA,NA,NA,NA,NA,NA,NA,false
eOQ6S5h7,3m67tqbqrk18ut4e0bwuqf8vno09av,3gnczx450m0v90if82xt1p425dbapu,eOQ6S5h7,2020-0188,2020-11-20,09:56:30,10:17:32,NA,incomplete,17,filling,1,right,Green_Circle_Grid_2.jpg,Green_Plus_Dots_1.jpg,Red_Star_Grid_3.jpg,left,1859.1899999883026,false,low,NA,NA,NA,NA,NA,NA,NA,false
eOQ6S5h7,3m67tqbqrk18ut4e0bwuqf8vno09av,3gnczx450m0v90if82xt1p425dbapu,eOQ6S5h7,2020-0188,2020-11-20,09:56:30,10:17:32,NA,incomplete,18,filling,0,left,Purple_Star_Dots_4.jpg,Green_Plus_Dots_2.jpg,Purple_Circle_Stripes_3.jpg,left,1013.2999999914318,true,low,NA,NA,NA,NA,NA,NA,NA,false
eOQ6S5h7,3m67tqbqrk18ut4e0bwuqf8vno09av,3gnczx450m0v90if82xt1p425dbapu,eOQ6S5h7,2020-0188,2020-11-20,09:56:30,10:17:32,NA,incomplete,19,filling,1,right,Purple_Star_Chess_2.jpg,Purple_Triangle_Dots_4.jpg,Red_Plus_Chess_1.jpg,right,1193.9750000601634,true,low,NA,NA,NA,NA,NA,NA,NA,false
eOQ6S5h7,3m67tqbqrk18ut4e0bwuqf8vno09av,3gnczx450m0v90if82xt1p425dbapu,eOQ6S5h7,2020-0188,2020-11-20,09:56:30,10:17:32,NA,incomplete,20,filling,0,right,Green_Star_Grid_3.jpg,Green_Triangle_Chess_2.jpg,Blue_Circle_Grid_4.jpg,left,1085.9550000168383,false,low,NA,NA,NA,NA,NA,NA,NA,false
eOQ6S5h7,3m67tqbqrk18ut4e0bwuqf8vno09av,3gnczx450m0v90if82xt1p425dbapu,eOQ6S5h7,2020-0188,2020-11-20,09:56:30,10:17:32,NA,incomplete,21,filling,0,left,Red_Star_Stripes_4.jpg,Blue_Triangle_Stripes_1.jpg,Red_Circle_Chess_3.jpg,left,1462.9150000400841,true,low,NA,NA,NA,NA,NA,NA,NA,false
eOQ6S5h7,3m67tqbqrk18ut4e0bwuqf8vno09av,3gnczx450m0v90if82xt1p425dbapu,eOQ6S5h7,2020-0188,2020-11-20,09:56:30,10:17:32,NA,incomplete,22,filling,0,left,Red_Circle_Chess_2.jpg,Blue_Star_Chess_4.jpg,Red_Triangle_Dots_1.jpg,left,848.9100000588223,true,low,NA,NA,NA,NA,NA,NA,NA,false
eOQ6S5h7,3m67tqbqrk18ut4e0bwuqf8vno09av,3gnczx450m0v90if82xt1p425dbapu,eOQ6S5h7,2020-0188,2020-11-20,09:56:30,10:17:32,NA,incomplete,23,filling,1,left,Green_Triangle_Dots_4.jpg,Purple_Circle_Dots_3.jpg,Green_Plus_Grid_2.jpg,left,1020.1900000683963,true,low,NA,NA,NA,NA,NA,NA,NA,false
eOQ6S5h7,3m67tqbqrk18ut4e0bwuqf8vno09av,3gnczx450m0v90if82xt1p425dbapu,eOQ6S5h7,2020-0188,2020-11-20,09:56:30,10:17:32,NA,incomplete,24,filling,1,right,Purple_Star_Chess_1.jpg,Purple_Circle_Dots_3.jpg,Blue_Plus_Chess_4.jpg,right,1169.3400000222027,true,low,NA,NA,NA,NA,NA,NA,NA,false
eOQ6S5h7,3m67tqbqrk18ut4e0bwuqf8vno09av,3gnczx450m0v90if82xt1p425dbapu,eOQ6S5h7,2020-0188,2020-11-20,09:56:30,10:17:32,NA,incomplete,25,filling,1,right,Purple_Circle_Dots_3.jpg,Purple_Star_Stripes_2.jpg,Red_Triangle_Dots_4.jpg,right,988.3749999571592,true,low,NA,NA,NA,NA,NA,NA,NA,false
eOQ6S5h7,3m67tqbqrk18ut4e0bwuqf8vno09av,3gnczx450m0v90if82xt1p425dbapu,eOQ6S5h7,2020-0188,2020-11-20,09:56:30,10:17:32,NA,incomplete,26,filling,1,right,Blue_Plus_Stripes_2.jpg,Blue_Circle_Grid_3.jpg,Red_Triangle_Stripes_4.jpg,right,928.6899999715388,true,low,NA,NA,NA,NA,NA,NA,NA,false
eOQ6S5h7,3m67tqbqrk18ut4e0bwuqf8vno09av,3gnczx450m0v90if82xt1p425dbapu,eOQ6S5h7,2020-0188,2020-11-20,09:56:30,10:17:32,NA,incomplete,27,filling,1,left,Red_Triangle_Chess_2.jpg,Purple_Plus_Chess_4.jpg,Red_Star_Dots_1.jpg,left,928.0199999921024,true,low,NA,NA,NA,NA,NA,NA,NA,false
eOQ6S5h7,3m67tqbqrk18ut4e0bwuqf8vno09av,3gnczx450m0v90if82xt1p425dbapu,eOQ6S5h7,2020-0188,2020-11-20,09:56:30,10:17:32,NA,incomplete,28,filling,1,right,Green_Plus_Chess_4.jpg,Green_Star_Dots_2.jpg,Red_Triangle_Chess_3.jpg,right,1296.0400000447407,true,low,NA,NA,NA,NA,NA,NA,NA,false
eOQ6S5h7,3m67tqbqrk18ut4e0bwuqf8vno09av,3gnczx450m0v90if82xt1p425dbapu,eOQ6S5h7,2020-0188,2020-11-20,09:56:30,10:17:32,NA,incomplete,29,filling,1,right,Green_Circle_Stripes_1.jpg,Green_Plus_Dots_2.jpg,Purple_Triangle_Stripes_3.jpg,right,1336.25499997288,true,low,NA,NA,NA,NA,NA,NA,NA,false
eOQ6S5h7,3m67tqbqrk18ut4e0bwuqf8vno09av,3gnczx450m0v90if82xt1p425dbapu,eOQ6S5h7,2020-0188,2020-11-20,09:56:30,10:17:32,NA,incomplete,30,color,1,right,Green_Triangle_Stripes_3.jpg,Purple_Circle_Stripes_2.jpg,Green_Star_Grid_4.jpg,left,1110.5349999852479,false,low,NA,NA,NA,NA,NA,NA,NA,false
eOQ6S5h7,3m67tqbqrk18ut4e0bwuqf8vno09av,3gnczx450m0v90if82xt1p425dbapu,eOQ6S5h7,2020-0188,2020-11-20,09:56:30,10:17:32,NA,incomplete,31,color,1,left,Red_Triangle_Grid_4.jpg,Red_Plus_Dots_3.jpg,Green_Circle_Grid_1.jpg,right,1086.7799998959526,false,low,NA,NA,NA,NA,NA,NA,NA,false
eOQ6S5h7,3m67tqbqrk18ut4e0bwuqf8vno09av,3gnczx450m0v90if82xt1p425dbapu,eOQ6S5h7,2020-0188,2020-11-20,09:56:30,10:17:32,NA,incomplete,32,color,0,right,Blue_Circle_Stripes_2.jpg,Purple_Triangle_Stripes_4.jpg,Blue_Plus_Chess_1.jpg,left,1295.769999967888,false,low,NA,NA,NA,NA,NA,NA,NA,false
eOQ6S5h7,3m67tqbqrk18ut4e0bwuqf8vno09av,3gnczx450m0v90if82xt1p425dbapu,eOQ6S5h7,2020-0188,2020-11-20,09:56:30,10:17:32,NA,incomplete,33,color,1,left,Red_Circle_Chess_1.jpg,Red_Triangle_Stripes_3.jpg,Green_Plus_Chess_2.jpg,right,1120.3049999894574,false,low,NA,NA,NA,NA,NA,NA,NA,false
eOQ6S5h7,3m67tqbqrk18ut4e0bwuqf8vno09av,3gnczx450m0v90if82xt1p425dbapu,eOQ6S5h7,2020-0188,2020-11-20,09:56:30,10:17:32,NA,incomplete,34,color,0,left,Blue_Plus_Stripes_1.jpg,Blue_Star_Chess_4.jpg,Red_Circle_Stripes_2.jpg,right,1047.1599999582395,false,low,NA,NA,NA,NA,NA,NA,NA,false
eOQ6S5h7,3m67tqbqrk18ut4e0bwuqf8vno09av,3gnczx450m0v90if82xt1p425dbapu,eOQ6S5h7,2020-0188,2020-11-20,09:56:30,10:17:32,NA,incomplete,35,color,1,left,Blue_Star_Grid_2.jpg,Blue_Triangle_Dots_4.jpg,Purple_Plus_Grid_1.jpg,right,993.8299999339506,false,low,NA,NA,NA,NA,NA,NA,NA,false
eOQ6S5h7,3m67tqbqrk18ut4e0bwuqf8vno09av,3gnczx450m0v90if82xt1p425dbapu,eOQ6S5h7,2020-0188,2020-11-20,09:56:30,10:17:32,NA,incomplete,36,color,1,left,Purple_Star_Stripes_3.jpg,Purple_Plus_Grid_4.jpg,Blue_Circle_Stripes_2.jpg,left,999.4200000073761,true,low,NA,NA,NA,NA,NA,NA,NA,false
eOQ6S5h7,3m67tqbqrk18ut4e0bwuqf8vno09av,3gnczx450m0v90if82xt1p425dbapu,eOQ6S5h7,2020-0188,2020-11-20,09:56:30,10:17:32,NA,incomplete,37,color,1,left,Blue_Circle_Dots_2.jpg,Blue_Star_Grid_3.jpg,Purple_Triangle_Dots_1.jpg,right,1147.5349999964237,false,low,NA,NA,NA,NA,NA,NA,NA,false
eOQ6S5h7,3m67tqbqrk18ut4e0bwuqf8vno09av,3gnczx450m0v90if82xt1p425dbapu,eOQ6S5h7,2020-0188,2020-11-20,09:56:30,10:17:32,NA,incomplete,38,color,1,left,Purple_Circle_Grid_2.jpg,Purple_Triangle_Stripes_3.jpg,Red_Star_Grid_4.jpg,right,1354.399999952875,false,low,NA,NA,NA,NA,NA,NA,NA,false
eOQ6S5h7,3m67tqbqrk18ut4e0bwuqf8vno09av,3gnczx450m0v90if82xt1p425dbapu,eOQ6S5h7,2020-0188,2020-11-20,09:56:30,10:17:32,NA,incomplete,39,color,1,right,Purple_Triangle_Grid_1.jpg,Green_Plus_Grid_3.jpg,Purple_Circle_Stripes_4.jpg,left,1288.0199999781325,false,low,NA,NA,NA,NA,NA,NA,NA,false
eOQ6S5h7,3m67tqbqrk18ut4e0bwuqf8vno09av,3gnczx450m0v90if82xt1p425dbapu,eOQ6S5h7,2020-0188,2020-11-20,09:56:30,10:17:32,NA,incomplete,40,color,0,right,Purple_Plus_Chess_1.jpg,Green_Circle_Chess_3.jpg,Purple_Star_Grid_4.jpg,left,1177.0350000588223,false,low,NA,NA,NA,NA,NA,NA,NA,false
eOQ6S5h7,3m67tqbqrk18ut4e0bwuqf8vno09av,3gnczx450m0v90if82xt1p425dbapu,eOQ6S5h7,2020-0188,2020-11-20,09:56:30,10:17:32,NA,incomplete,41,color,1,left,Purple_Circle_Chess_3.jpg,Purple_Plus_Grid_1.jpg,Green_Star_Chess_2.jpg,right,1478.4750000108033,false,low,NA,NA,NA,NA,NA,NA,NA,false
eOQ6S5h7,3m67tqbqrk18ut4e0bwuqf8vno09av,3gnczx450m0v90if82xt1p425dbapu,eOQ6S5h7,2020-0188,2020-11-20,09:56:30,10:17:32,NA,incomplete,42,color,1,right,Purple_Star_Dots_3.jpg,Red_Triangle_Dots_2.jpg,Purple_Circle_Chess_4.jpg,left,1047.6500000804663,false,low,NA,NA,NA,NA,NA,NA,NA,false
eOQ6S5h7,3m67tqbqrk18ut4e0bwuqf8vno09av,3gnczx450m0v90if82xt1p425dbapu,eOQ6S5h7,2020-0188,2020-11-20,09:56:30,10:17:32,NA,incomplete,43,color,1,left,Red_Plus_Dots_1.jpg,Red_Circle_Stripes_3.jpg,Blue_Star_Dots_4.jpg,right,1210.395000060089,false,low,NA,NA,NA,NA,NA,NA,NA,false
eOQ6S5h7,3m67tqbqrk18ut4e0bwuqf8vno09av,3gnczx450m0v90if82xt1p425dbapu,eOQ6S5h7,2020-0188,2020-11-20,09:56:30,10:17:32,NA,incomplete,44,color,0,right,Blue_Star_Chess_4.jpg,Purple_Circle_Chess_1.jpg,Blue_Plus_Grid_3.jpg,right,877.8000000165775,true,low,NA,NA,NA,NA,NA,NA,NA,false
eOQ6S5h7,3m67tqbqrk18ut4e0bwuqf8vno09av,3gnczx450m0v90if82xt1p425dbapu,eOQ6S5h7,2020-0188,2020-11-20,09:56:30,10:17:32,NA,incomplete,45,color,1,right,Purple_Plus_Chess_3.jpg,Red_Triangle_Chess_1.jpg,Purple_Circle_Grid_2.jpg,left,1374.805000028573,false,low,NA,NA,NA,NA,NA,NA,NA,false
eOQ6S5h7,3m67tqbqrk18ut4e0bwuqf8vno09av,3gnczx450m0v90if82xt1p425dbapu,eOQ6S5h7,2020-0188,2020-11-20,09:56:30,10:17:32,NA,incomplete,46,color,1,left,Blue_Triangle_Chess_3.jpg,Blue_Plus_Stripes_1.jpg,Purple_Star_Chess_2.jpg,right,1276.4050000114366,false,low,NA,NA,NA,NA,NA,NA,NA,false
eOQ6S5h7,3m67tqbqrk18ut4e0bwuqf8vno09av,3gnczx450m0v90if82xt1p425dbapu,eOQ6S5h7,2020-0188,2020-11-20,09:56:30,10:17:32,NA,incomplete,47,color,1,right,Red_Plus_Chess_1.jpg,Blue_Circle_Chess_4.jpg,Red_Triangle_Grid_3.jpg,right,1005.5700000375509,true,low,NA,NA,NA,NA,NA,NA,NA,false
eOQ6S5h7,3m67tqbqrk18ut4e0bwuqf8vno09av,3gnczx450m0v90if82xt1p425dbapu,eOQ6S5h7,2020-0188,2020-11-20,09:56:30,10:17:32,NA,incomplete,48,color,1,left,Green_Plus_Chess_3.jpg,Green_Circle_Stripes_4.jpg,Red_Star_Chess_1.jpg,left,1834.1449999716133,true,low,NA,NA,NA,NA,NA,NA,NA,false
eOQ6S5h7,3m67tqbqrk18ut4e0bwuqf8vno09av,3gnczx450m0v90if82xt1p425dbapu,eOQ6S5h7,2020-0188,2020-11-20,09:56:30,10:17:32,NA,incomplete,49,color,1,left,Purple_Triangle_Chess_2.jpg,Purple_Circle_Grid_3.jpg,Red_Plus_Chess_4.jpg,left,1780.7699999539182,true,low,NA,NA,NA,NA,NA,NA,NA,false
eOQ6S5h7,3m67tqbqrk18ut4e0bwuqf8vno09av,3gnczx450m0v90if82xt1p425dbapu,eOQ6S5h7,2020-0188,2020-11-20,09:56:30,10:17:32,NA,incomplete,50,color,1,left,Blue_Plus_Chess_1.jpg,Blue_Triangle_Stripes_2.jpg,Red_Star_Chess_4.jpg,right,1378.0549999792129,false,low,NA,NA,NA,NA,NA,NA,NA,false
eOQ6S5h7,3m67tqbqrk18ut4e0bwuqf8vno09av,3gnczx450m0v90if82xt1p425dbapu,eOQ6S5h7,2020-0188,2020-11-20,09:56:30,10:17:32,NA,incomplete,51,color,1,right,Blue_Triangle_Chess_4.jpg,Red_Star_Chess_1.jpg,Blue_Circle_Grid_3.jpg,left,1247.6449999958277,false,low,NA,NA,NA,NA,NA,NA,NA,false
eOQ6S5h7,3m67tqbqrk18ut4e0bwuqf8vno09av,3gnczx450m0v90if82xt1p425dbapu,eOQ6S5h7,2020-0188,2020-11-20,09:56:30,10:17:32,NA,incomplete,52,color,1,right,Blue_Circle_Grid_1.jpg,Red_Plus_Grid_2.jpg,Blue_Star_Stripes_4.jpg,left,1386.1150000011548,false,low,NA,NA,NA,NA,NA,NA,NA,false
eOQ6S5h7,3m67tqbqrk18ut4e0bwuqf8vno09av,3gnczx450m0v90if82xt1p425dbapu,eOQ6S5h7,2020-0188,2020-11-20,09:56:30,10:17:32,NA,incomplete,53,color,0,right,Red_Plus_Dots_4.jpg,Purple_Triangle_Dots_3.jpg,Red_Star_Stripes_1.jpg,left,1278.6349999951199,false,low,NA,NA,NA,NA,NA,NA,NA,false
eOQ6S5h7,3m67tqbqrk18ut4e0bwuqf8vno09av,3gnczx450m0v90if82xt1p425dbapu,eOQ6S5h7,2020-0188,2020-11-20,09:56:30,10:17:32,NA,incomplete,54,color,0,left,Blue_Triangle_Stripes_4.jpg,Blue_Circle_Dots_2.jpg,Purple_Star_Stripes_3.jpg,right,1032.260000007227,false,low,NA,NA,NA,NA,NA,NA,NA,false
eOQ6S5h7,3m67tqbqrk18ut4e0bwuqf8vno09av,3gnczx450m0v90if82xt1p425dbapu,eOQ6S5h7,2020-0188,2020-11-20,09:56:30,10:17:32,NA,incomplete,55,color,1,left,Red_Plus_Stripes_4.jpg,Red_Star_Dots_3.jpg,Green_Circle_Stripes_2.jpg,right,1235.3650000877678,false,low,NA,NA,NA,NA,NA,NA,NA,false
eOQ6S5h7,3m67tqbqrk18ut4e0bwuqf8vno09av,3gnczx450m0v90if82xt1p425dbapu,eOQ6S5h7,2020-0188,2020-11-20,09:56:30,10:17:32,NA,incomplete,56,color,0,left,Blue_Plus_Dots_4.jpg,Blue_Circle_Stripes_1.jpg,Green_Triangle_Dots_3.jpg,right,1230.6799999205396,false,low,NA,NA,NA,NA,NA,NA,NA,false
eOQ6S5h7,3m67tqbqrk18ut4e0bwuqf8vno09av,3gnczx450m0v90if82xt1p425dbapu,eOQ6S5h7,2020-0188,2020-11-20,09:56:30,10:17:32,NA,incomplete,57,color,1,left,Green_Star_Dots_3.jpg,Green_Triangle_Chess_2.jpg,Purple_Circle_Dots_1.jpg,left,1369.1699999617413,true,low,NA,NA,NA,NA,NA,NA,NA,false
eOQ6S5h7,3m67tqbqrk18ut4e0bwuqf8vno09av,3gnczx450m0v90if82xt1p425dbapu,eOQ6S5h7,2020-0188,2020-11-20,09:56:30,10:17:32,NA,incomplete,58,color,0,left,Red_Star_Chess_3.jpg,Red_Triangle_Stripes_2.jpg,Green_Plus_Chess_4.jpg,right,1461.71000006143,false,low,NA,NA,NA,NA,NA,NA,NA,false
eOQ6S5h7,3m67tqbqrk18ut4e0bwuqf8vno09av,3gnczx450m0v90if82xt1p425dbapu,eOQ6S5h7,2020-0188,2020-11-20,09:56:30,10:17:32,NA,incomplete,59,color,1,right,Green_Triangle_Dots_2.jpg,Purple_Circle_Dots_1.jpg,Green_Star_Chess_4.jpg,left,1336.9149999925867,false,low,NA,NA,NA,NA,NA,NA,NA,false
eOQ6S5h7,3m67tqbqrk18ut4e0bwuqf8vno09av,3gnczx450m0v90if82xt1p425dbapu,eOQ6S5h7,2020-0188,2020-11-20,09:56:30,10:17:32,NA,incomplete,60,filling,1,left,Red_Plus_Grid_4.jpg,Green_Triangle_Grid_1.jpg,Red_Star_Dots_2.jpg,right,1559.9800000200048,false,low,NA,NA,NA,NA,NA,NA,NA,false
eOQ6S5h7,3m67tqbqrk18ut4e0bwuqf8vno09av,3gnczx450m0v90if82xt1p425dbapu,eOQ6S5h7,2020-0188,2020-11-20,09:56:30,10:17:32,NA,incomplete,61,filling,1,right,Purple_Plus_Stripes_2.jpg,Purple_Circle_Grid_4.jpg,Blue_Triangle_Stripes_1.jpg,left,925.4750000545755,false,low,NA,NA,NA,NA,NA,NA,NA,false
eOQ6S5h7,3m67tqbqrk18ut4e0bwuqf8vno09av,3gnczx450m0v90if82xt1p425dbapu,eOQ6S5h7,2020-0188,2020-11-20,09:56:30,10:17:32,NA,incomplete,62,filling,1,left,Red_Triangle_Stripes_1.jpg,Green_Star_Stripes_3.jpg,Red_Circle_Chess_2.jpg,left,1180.4850000189617,true,low,NA,NA,NA,NA,NA,NA,NA,false
eOQ6S5h7,3m67tqbqrk18ut4e0bwuqf8vno09av,3gnczx450m0v90if82xt1p425dbapu,eOQ6S5h7,2020-0188,2020-11-20,09:56:30,10:17:32,NA,incomplete,63,filling,1,right,Red_Star_Chess_2.jpg,Red_Circle_Dots_4.jpg,Blue_Plus_Chess_3.jpg,right,1137.9249999299645,true,low,NA,NA,NA,NA,NA,NA,NA,false
eOQ6S5h7,3m67tqbqrk18ut4e0bwuqf8vno09av,3gnczx450m0v90if82xt1p425dbapu,eOQ6S5h7,2020-0188,2020-11-20,09:56:30,10:17:32,NA,incomplete,64,filling,1,left,Green_Plus_Chess_1.jpg,Red_Star_Chess_4.jpg,Green_Circle_Grid_3.jpg,left,1001.1749999830499,true,low,NA,NA,NA,NA,NA,NA,NA,false
eOQ6S5h7,3m67tqbqrk18ut4e0bwuqf8vno09av,3gnczx450m0v90if82xt1p425dbapu,eOQ6S5h7,2020-0188,2020-11-20,09:56:30,10:17:32,NA,incomplete,65,filling,0,right,Green_Triangle_Chess_1.jpg,Green_Plus_Stripes_3.jpg,Blue_Circle_Chess_2.jpg,left,1380.625000107102,false,low,NA,NA,NA,NA,NA,NA,NA,false
eOQ6S5h7,3m67tqbqrk18ut4e0bwuqf8vno09av,3gnczx450m0v90if82xt1p425dbapu,eOQ6S5h7,2020-0188,2020-11-20,09:56:30,10:17:32,NA,incomplete,66,filling,1,right,Purple_Plus_Chess_4.jpg,Purple_Circle_Grid_3.jpg,Red_Triangle_Chess_1.jpg,right,1281.8350000306964,true,low,NA,NA,NA,NA,NA,NA,NA,false
eOQ6S5h7,3m67tqbqrk18ut4e0bwuqf8vno09av,3gnczx450m0v90if82xt1p425dbapu,eOQ6S5h7,2020-0188,2020-11-20,09:56:30,10:17:32,NA,incomplete,67,filling,1,left,Blue_Circle_Stripes_3.jpg,Red_Plus_Stripes_2.jpg,Blue_Star_Chess_1.jpg,left,1355.295000015758,true,low,NA,NA,NA,NA,NA,NA,NA,false
eOQ6S5h7,3m67tqbqrk18ut4e0bwuqf8vno09av,3gnczx450m0v90if82xt1p425dbapu,eOQ6S5h7,2020-0188,2020-11-20,09:56:30,10:17:32,NA,incomplete,68,filling,0,right,Red_Circle_Chess_2.jpg,Red_Triangle_Stripes_4.jpg,Blue_Plus_Chess_3.jpg,left,1385.7650000136346,false,low,NA,NA,NA,NA,NA,NA,NA,false
eOQ6S5h7,3m67tqbqrk18ut4e0bwuqf8vno09av,3gnczx450m0v90if82xt1p425dbapu,eOQ6S5h7,2020-0188,2020-11-20,09:56:30,10:17:32,NA,incomplete,69,filling,1,right,Purple_Circle_Chess_2.jpg,Purple_Plus_Grid_4.jpg,Red_Triangle_Chess_1.jpg,right,1446.735000004992,true,low,NA,NA,NA,NA,NA,NA,NA,false
eOQ6S5h7,3m67tqbqrk18ut4e0bwuqf8vno09av,3gnczx450m0v90if82xt1p425dbapu,eOQ6S5h7,2020-0188,2020-11-20,09:56:30,10:17:32,NA,incomplete,70,filling,1,left,Purple_Triangle_Dots_2.jpg,Green_Star_Dots_1.jpg,Purple_Circle_Chess_3.jpg,left,1112.9400000208989,true,low,NA,NA,NA,NA,NA,NA,NA,false
eOQ6S5h7,3m67tqbqrk18ut4e0bwuqf8vno09av,3gnczx450m0v90if82xt1p425dbapu,eOQ6S5h7,2020-0188,2020-11-20,09:56:30,10:17:32,NA,incomplete,71,filling,1,right,Red_Circle_Chess_3.jpg,Red_Triangle_Grid_4.jpg,Green_Star_Chess_1.jpg,left,1464.629999944009,false,low,NA,NA,NA,NA,NA,NA,NA,false
eOQ6S5h7,3m67tqbqrk18ut4e0bwuqf8vno09av,3gnczx450m0v90if82xt1p425dbapu,eOQ6S5h7,2020-0188,2020-11-20,09:56:30,10:17:32,NA,incomplete,72,filling,1,right,Blue_Triangle_Chess_3.jpg,Blue_Star_Dots_4.jpg,Purple_Circle_Chess_2.jpg,right,1283.7699999799952,true,low,NA,NA,NA,NA,NA,NA,NA,false
eOQ6S5h7,3m67tqbqrk18ut4e0bwuqf8vno09av,3gnczx450m0v90if82xt1p425dbapu,eOQ6S5h7,2020-0188,2020-11-20,09:56:30,10:17:32,NA,incomplete,73,filling,1,left,Blue_Circle_Stripes_4.jpg,Green_Triangle_Stripes_3.jpg,Blue_Plus_Dots_1.jpg,left,892.3950000898913,true,low,NA,NA,NA,NA,NA,NA,NA,false
eOQ6S5h7,3m67tqbqrk18ut4e0bwuqf8vno09av,3gnczx450m0v90if82xt1p425dbapu,eOQ6S5h7,2020-0188,2020-11-20,09:56:30,10:17:32,NA,incomplete,74,filling,0,right,Purple_Circle_Grid_3.jpg,Purple_Plus_Dots_4.jpg,Red_Triangle_Grid_1.jpg,right,892.6900000078604,true,low,NA,NA,NA,NA,NA,NA,NA,false
eOQ6S5h7,3m67tqbqrk18ut4e0bwuqf8vno09av,3gnczx450m0v90if82xt1p425dbapu,eOQ6S5h7,2020-0188,2020-11-20,09:56:30,10:17:32,NA,incomplete,75,filling,1,right,Green_Star_Chess_4.jpg,Green_Circle_Grid_2.jpg,Blue_Triangle_Chess_1.jpg,right,1101.0300000198185,true,low,NA,NA,NA,NA,NA,NA,NA,false
eOQ6S5h7,3m67tqbqrk18ut4e0bwuqf8vno09av,3gnczx450m0v90if82xt1p425dbapu,eOQ6S5h7,2020-0188,2020-11-20,09:56:30,10:17:32,NA,incomplete,76,filling,1,right,Green_Plus_Dots_2.jpg,Green_Circle_Grid_4.jpg,Blue_Triangle_Dots_1.jpg,right,1005.1199999870732,true,low,NA,NA,NA,NA,NA,NA,NA,false
eOQ6S5h7,3m67tqbqrk18ut4e0bwuqf8vno09av,3gnczx450m0v90if82xt1p425dbapu,eOQ6S5h7,2020-0188,2020-11-20,09:56:30,10:17:32,NA,incomplete,77,filling,1,left,Red_Plus_Chess_4.jpg,Green_Triangle_Chess_1.jpg,Red_Star_Grid_2.jpg,left,1330.034999991767,true,low,NA,NA,NA,NA,NA,NA,NA,false
eOQ6S5h7,3m67tqbqrk18ut4e0bwuqf8vno09av,3gnczx450m0v90if82xt1p425dbapu,eOQ6S5h7,2020-0188,2020-11-20,09:56:30,10:17:32,NA,incomplete,78,filling,1,right,Red_Circle_Dots_2.jpg,Red_Triangle_Chess_3.jpg,Green_Star_Dots_4.jpg,right,1072.5450000027195,true,low,NA,NA,NA,NA,NA,NA,NA,false
eOQ6S5h7,3m67tqbqrk18ut4e0bwuqf8vno09av,3gnczx450m0v90if82xt1p425dbapu,eOQ6S5h7,2020-0188,2020-11-20,09:56:30,10:17:32,NA,incomplete,79,filling,0,left,Green_Plus_Stripes_3.jpg,Red_Star_Stripes_1.jpg,Green_Circle_Dots_2.jpg,left,1426.1549999937415,true,low,NA,NA,NA,NA,NA,NA,NA,false
eOQ6S5h7,3m67tqbqrk18ut4e0bwuqf8vno09av,3gnczx450m0v90if82xt1p425dbapu,eOQ6S5h7,2020-0188,2020-11-20,09:56:30,10:17:32,NA,incomplete,80,filling,1,right,Blue_Plus_Chess_2.jpg,Blue_Triangle_Stripes_1.jpg,Green_Star_Chess_4.jpg,right,1293.5050000669435,true,low,NA,NA,NA,NA,NA,NA,NA,false
eOQ6S5h7,3m67tqbqrk18ut4e0bwuqf8vno09av,3gnczx450m0v90if82xt1p425dbapu,eOQ6S5h7,2020-0188,2020-11-20,09:56:30,10:17:32,NA,incomplete,81,filling,1,left,Blue_Plus_Chess_3.jpg,Green_Circle_Chess_2.jpg,Blue_Star_Grid_1.jpg,left,1030.8749999385327,true,low,NA,NA,NA,NA,NA,NA,NA,false
eOQ6S5h7,3m67tqbqrk18ut4e0bwuqf8vno09av,3gnczx450m0v90if82xt1p425dbapu,eOQ6S5h7,2020-0188,2020-11-20,09:56:30,10:17:32,NA,incomplete,82,filling,0,left,Red_Star_Stripes_1.jpg,Green_Triangle_Stripes_4.jpg,Red_Circle_Grid_2.jpg,left,1465.154999983497,true,low,NA,NA,NA,NA,NA,NA,NA,false
eOQ6S5h7,3m67tqbqrk18ut4e0bwuqf8vno09av,3gnczx450m0v90if82xt1p425dbapu,eOQ6S5h7,2020-0188,2020-11-20,09:56:30,10:17:32,NA,incomplete,83,filling,1,left,Red_Star_Grid_2.jpg,Purple_Plus_Grid_3.jpg,Red_Triangle_Chess_1.jpg,left,1235.4050000431016,true,low,NA,NA,NA,NA,NA,NA,NA,false
eOQ6S5h7,3m67tqbqrk18ut4e0bwuqf8vno09av,3gnczx450m0v90if82xt1p425dbapu,eOQ6S5h7,2020-0188,2020-11-20,09:56:30,10:17:32,NA,incomplete,84,filling,1,right,Green_Star_Stripes_1.jpg,Green_Circle_Dots_4.jpg,Red_Plus_Stripes_2.jpg,right,958.3450000500306,true,low,NA,NA,NA,NA,NA,NA,NA,false
eOQ6S5h7,3m67tqbqrk18ut4e0bwuqf8vno09av,3gnczx450m0v90if82xt1p425dbapu,eOQ6S5h7,2020-0188,2020-11-20,09:56:30,10:17:32,NA,incomplete,85,filling,1,left,Green_Triangle_Chess_4.jpg,Purple_Circle_Chess_2.jpg,Green_Plus_Dots_1.jpg,left,1460.5199999641627,true,low,NA,NA,NA,NA,NA,NA,NA,false
eOQ6S5h7,3m67tqbqrk18ut4e0bwuqf8vno09av,3gnczx450m0v90if82xt1p425dbapu,eOQ6S5h7,2020-0188,2020-11-20,09:56:30,10:17:32,NA,incomplete,86,filling,1,left,Green_Circle_Chess_2.jpg,Blue_Star_Chess_3.jpg,Green_Plus_Grid_1.jpg,left,1206.404999946244,true,low,NA,NA,NA,NA,NA,NA,NA,false
eOQ6S5h7,3m67tqbqrk18ut4e0bwuqf8vno09av,3gnczx450m0v90if82xt1p425dbapu,eOQ6S5h7,2020-0188,2020-11-20,09:56:30,10:17:32,NA,incomplete,87,filling,1,right,Purple_Plus_Dots_4.jpg,Purple_Circle_Chess_3.jpg,Green_Triangle_Dots_1.jpg,left,1314.0500000445172,false,low,NA,NA,NA,NA,NA,NA,NA,false
eOQ6S5h7,3m67tqbqrk18ut4e0bwuqf8vno09av,3gnczx450m0v90if82xt1p425dbapu,eOQ6S5h7,2020-0188,2020-11-20,09:56:30,10:17:32,NA,incomplete,88,filling,1,left,Purple_Plus_Stripes_4.jpg,Blue_Triangle_Stripes_1.jpg,Purple_Star_Chess_2.jpg,left,1225.510000018403,true,low,NA,NA,NA,NA,NA,NA,NA,false
eOQ6S5h7,3m67tqbqrk18ut4e0bwuqf8vno09av,3gnczx450m0v90if82xt1p425dbapu,eOQ6S5h7,2020-0188,2020-11-20,09:56:30,10:17:32,NA,incomplete,89,filling,1,right,Blue_Circle_Stripes_1.jpg,Blue_Star_Grid_3.jpg,Red_Triangle_Stripes_4.jpg,right,1085.8050000388175,true,low,NA,NA,NA,NA,NA,NA,NA,false
eOQ6S5h7,3m67tqbqrk18ut4e0bwuqf8vno09av,3gnczx450m0v90if82xt1p425dbapu,eOQ6S5h7,2020-0188,2020-11-20,09:56:30,10:17:32,NA,incomplete,90,color,1,left,Purple_Circle_Chess_4.jpg,Purple_Star_Grid_2.jpg,Green_Plus_Chess_1.jpg,right,1781.6299999831244,false,low,NA,NA,NA,NA,NA,NA,NA,false
eOQ6S5h7,3m67tqbqrk18ut4e0bwuqf8vno09av,3gnczx450m0v90if82xt1p425dbapu,eOQ6S5h7,2020-0188,2020-11-20,09:56:30,10:17:32,NA,incomplete,91,color,1,left,Red_Star_Chess_2.jpg,Red_Plus_Dots_3.jpg,Blue_Circle_Chess_1.jpg,right,1731.2500000698492,false,low,NA,NA,NA,NA,NA,NA,NA,false
eOQ6S5h7,3m67tqbqrk18ut4e0bwuqf8vno09av,3gnczx450m0v90if82xt1p425dbapu,eOQ6S5h7,2020-0188,2020-11-20,09:56:30,10:17:32,NA,incomplete,92,color,1,left,Blue_Plus_Dots_3.jpg,Blue_Circle_Stripes_4.jpg,Purple_Star_Dots_2.jpg,right,1402.449999935925,false,low,NA,NA,NA,NA,NA,NA,NA,false
eOQ6S5h7,3m67tqbqrk18ut4e0bwuqf8vno09av,3gnczx450m0v90if82xt1p425dbapu,eOQ6S5h7,2020-0188,2020-11-20,09:56:30,10:17:32,NA,incomplete,93,color,1,right,Blue_Circle_Chess_1.jpg,Purple_Triangle_Chess_4.jpg,Blue_Plus_Grid_2.jpg,left,1039.5599999465048,false,low,NA,NA,NA,NA,NA,NA,NA,false
eOQ6S5h7,3m67tqbqrk18ut4e0bwuqf8vno09av,3gnczx450m0v90if82xt1p425dbapu,eOQ6S5h7,2020-0188,2020-11-20,09:56:30,10:17:32,NA,incomplete,94,color,1,left,Purple_Circle_Grid_1.jpg,Purple_Star_Stripes_4.jpg,Blue_Triangle_Grid_2.jpg,right,1161.0550000332296,false,low,NA,NA,NA,NA,NA,NA,NA,false
eOQ6S5h7,3m67tqbqrk18ut4e0bwuqf8vno09av,3gnczx450m0v90if82xt1p425dbapu,eOQ6S5h7,2020-0188,2020-11-20,09:56:30,10:17:32,NA,incomplete,95,color,0,left,Blue_Plus_Grid_1.jpg,Blue_Triangle_Chess_2.jpg,Green_Star_Grid_3.jpg,right,1311.1550000030547,false,low,NA,NA,NA,NA,NA,NA,NA,false
eOQ6S5h7,3m67tqbqrk18ut4e0bwuqf8vno09av,3gnczx450m0v90if82xt1p425dbapu,eOQ6S5h7,2020-0188,2020-11-20,09:56:30,10:17:32,NA,incomplete,96,color,0,left,Blue_Plus_Grid_1.jpg,Blue_Triangle_Chess_4.jpg,Red_Star_Grid_3.jpg,right,1102.930000051856,false,low,NA,NA,NA,NA,NA,NA,NA,false
eOQ6S5h7,3m67tqbqrk18ut4e0bwuqf8vno09av,3gnczx450m0v90if82xt1p425dbapu,eOQ6S5h7,2020-0188,2020-11-20,09:56:30,10:17:32,NA,incomplete,97,color,1,left,Green_Triangle_Stripes_1.jpg,Green_Plus_Dots_2.jpg,Purple_Circle_Stripes_4.jpg,right,1127.9349999967963,false,low,NA,NA,NA,NA,NA,NA,NA,false
eOQ6S5h7,3m67tqbqrk18ut4e0bwuqf8vno09av,3gnczx450m0v90if82xt1p425dbapu,eOQ6S5h7,2020-0188,2020-11-20,09:56:30,10:17:32,NA,incomplete,98,color,1,left,Purple_Star_Grid_2.jpg,Purple_Circle_Stripes_1.jpg,Red_Triangle_Grid_4.jpg,right,1310.7099999906495,false,low,NA,NA,NA,NA,NA,NA,NA,false
eOQ6S5h7,3m67tqbqrk18ut4e0bwuqf8vno09av,3gnczx450m0v90if82xt1p425dbapu,eOQ6S5h7,2020-0188,2020-11-20,09:56:30,10:17:32,NA,incomplete,99,color,1,right,Red_Triangle_Grid_4.jpg,Purple_Star_Grid_2.jpg,Red_Plus_Chess_1.jpg,right,1126.2799999676645,true,low,NA,NA,NA,NA,NA,NA,NA,false
eOQ6S5h7,3m67tqbqrk18ut4e0bwuqf8vno09av,3gnczx450m0v90if82xt1p425dbapu,eOQ6S5h7,2020-0188,2020-11-20,09:56:30,10:17:32,NA,incomplete,100,color,1,right,Blue_Circle_Dots_2.jpg,Purple_Plus_Dots_1.jpg,Blue_Star_Chess_3.jpg,left,1013.1750000873581,false,low,NA,NA,NA,NA,NA,NA,NA,false
eOQ6S5h7,3m67tqbqrk18ut4e0bwuqf8vno09av,3gnczx450m0v90if82xt1p425dbapu,eOQ6S5h7,2020-0188,2020-11-20,09:56:30,10:17:32,NA,incomplete,101,color,1,right,Purple_Circle_Chess_4.jpg,Green_Plus_Chess_1.jpg,Purple_Star_Stripes_2.jpg,left,842.4100000411272,false,low,NA,NA,NA,NA,NA,NA,NA,false
eOQ6S5h7,3m67tqbqrk18ut4e0bwuqf8vno09av,3gnczx450m0v90if82xt1p425dbapu,eOQ6S5h7,2020-0188,2020-11-20,09:56:30,10:17:32,NA,incomplete,102,color,1,right,Red_Star_Stripes_2.jpg,Blue_Circle_Stripes_3.jpg,Red_Triangle_Dots_1.jpg,right,1268.6199999880046,true,low,NA,NA,NA,NA,NA,NA,NA,false
eOQ6S5h7,3m67tqbqrk18ut4e0bwuqf8vno09av,3gnczx450m0v90if82xt1p425dbapu,eOQ6S5h7,2020-0188,2020-11-20,09:56:30,10:17:32,NA,incomplete,103,color,1,right,Purple_Circle_Grid_1.jpg,Green_Triangle_Grid_3.jpg,Purple_Star_Stripes_2.jpg,left,1021.9250000081956,false,low,NA,NA,NA,NA,NA,NA,NA,false
eOQ6S5h7,3m67tqbqrk18ut4e0bwuqf8vno09av,3gnczx450m0v90if82xt1p425dbapu,eOQ6S5h7,2020-0188,2020-11-20,09:56:30,10:17:32,NA,incomplete,104,color,1,right,Green_Star_Stripes_2.jpg,Red_Triangle_Stripes_3.jpg,Green_Plus_Dots_4.jpg,left,937.1200000168756,false,low,NA,NA,NA,NA,NA,NA,NA,false
eOQ6S5h7,3m67tqbqrk18ut4e0bwuqf8vno09av,3gnczx450m0v90if82xt1p425dbapu,eOQ6S5h7,2020-0188,2020-11-20,09:56:30,10:17:32,NA,incomplete,105,color,0,left,Red_Plus_Grid_1.jpg,Red_Triangle_Dots_4.jpg,Green_Star_Grid_2.jpg,right,984.6149999648333,false,low,NA,NA,NA,NA,NA,NA,NA,false
eOQ6S5h7,3m67tqbqrk18ut4e0bwuqf8vno09av,3gnczx450m0v90if82xt1p425dbapu,eOQ6S5h7,2020-0188,2020-11-20,09:56:30,10:17:32,NA,incomplete,106,color,1,left,Blue_Triangle_Stripes_4.jpg,Blue_Star_Dots_3.jpg,Red_Circle_Stripes_2.jpg,right,756.3399999635294,false,low,NA,NA,NA,NA,NA,NA,NA,false
eOQ6S5h7,3m67tqbqrk18ut4e0bwuqf8vno09av,3gnczx450m0v90if82xt1p425dbapu,eOQ6S5h7,2020-0188,2020-11-20,09:56:30,10:17:32,NA,incomplete,107,color,1,right,Red_Circle_Grid_2.jpg,Purple_Star_Grid_3.jpg,Red_Plus_Chess_1.jpg,left,994.5149999111891,false,low,NA,NA,NA,NA,NA,NA,NA,false
eOQ6S5h7,3m67tqbqrk18ut4e0bwuqf8vno09av,3gnczx450m0v90if82xt1p425dbapu,eOQ6S5h7,2020-0188,2020-11-20,09:56:30,10:17:32,NA,incomplete,108,color,1,right,Purple_Triangle_Dots_2.jpg,Red_Circle_Dots_3.jpg,Purple_Plus_Grid_4.jpg,left,1319.0500000491738,false,low,NA,NA,NA,NA,NA,NA,NA,false
eOQ6S5h7,3m67tqbqrk18ut4e0bwuqf8vno09av,3gnczx450m0v90if82xt1p425dbapu,eOQ6S5h7,2020-0188,2020-11-20,09:56:30,10:17:32,NA,incomplete,109,color,1,left,Green_Circle_Grid_1.jpg,Green_Plus_Chess_3.jpg,Red_Star_Grid_4.jpg,right,1255.2750000031665,false,low,NA,NA,NA,NA,NA,NA,NA,false
eOQ6S5h7,3m67tqbqrk18ut4e0bwuqf8vno09av,3gnczx450m0v90if82xt1p425dbapu,eOQ6S5h7,2020-0188,2020-11-20,09:56:30,10:17:32,NA,incomplete,110,color,1,left,Blue_Star_Chess_2.jpg,Blue_Plus_Grid_1.jpg,Red_Triangle_Chess_3.jpg,right,1032.4300000211224,false,low,NA,NA,NA,NA,NA,NA,NA,false
eOQ6S5h7,3m67tqbqrk18ut4e0bwuqf8vno09av,3gnczx450m0v90if82xt1p425dbapu,eOQ6S5h7,2020-0188,2020-11-20,09:56:30,10:17:32,NA,incomplete,111,color,1,right,Red_Plus_Chess_4.jpg,Blue_Triangle_Chess_3.jpg,Red_Circle_Stripes_1.jpg,left,916.2200000137091,false,low,NA,NA,NA,NA,NA,NA,NA,false
eOQ6S5h7,3m67tqbqrk18ut4e0bwuqf8vno09av,3gnczx450m0v90if82xt1p425dbapu,eOQ6S5h7,2020-0188,2020-11-20,09:56:30,10:17:32,NA,incomplete,112,color,1,left,Blue_Plus_Grid_2.jpg,Blue_Circle_Stripes_1.jpg,Red_Star_Grid_4.jpg,right,1083.6450000060722,false,low,NA,NA,NA,NA,NA,NA,NA,false
eOQ6S5h7,3m67tqbqrk18ut4e0bwuqf8vno09av,3gnczx450m0v90if82xt1p425dbapu,eOQ6S5h7,2020-0188,2020-11-20,09:56:30,10:17:32,NA,incomplete,113,color,1,left,Purple_Plus_Grid_4.jpg,Purple_Triangle_Chess_1.jpg,Green_Star_Grid_3.jpg,right,1269.2850000457838,false,low,NA,NA,NA,NA,NA,NA,NA,false
eOQ6S5h7,3m67tqbqrk18ut4e0bwuqf8vno09av,3gnczx450m0v90if82xt1p425dbapu,eOQ6S5h7,2020-0188,2020-11-20,09:56:30,10:17:32,NA,incomplete,114,color,1,left,Purple_Star_Chess_2.jpg,Purple_Triangle_Stripes_1.jpg,Blue_Circle_Chess_3.jpg,right,1069.8150000534952,false,low,NA,NA,NA,NA,NA,NA,NA,false
eOQ6S5h7,3m67tqbqrk18ut4e0bwuqf8vno09av,3gnczx450m0v90if82xt1p425dbapu,eOQ6S5h7,2020-0188,2020-11-20,09:56:30,10:17:32,NA,incomplete,115,color,1,left,Blue_Circle_Grid_4.jpg,Blue_Triangle_Stripes_3.jpg,Red_Plus_Grid_2.jpg,left,767.1750000445172,true,low,NA,NA,NA,NA,NA,NA,NA,false
eOQ6S5h7,3m67tqbqrk18ut4e0bwuqf8vno09av,3gnczx450m0v90if82xt1p425dbapu,eOQ6S5h7,2020-0188,2020-11-20,09:56:30,10:17:32,NA,incomplete,116,color,1,right,Green_Star_Grid_1.jpg,Blue_Circle_Grid_4.jpg,Green_Triangle_Stripes_3.jpg,right,1172.5099999457598,true,low,NA,NA,NA,NA,NA,NA,NA,false
eOQ6S5h7,3m67tqbqrk18ut4e0bwuqf8vno09av,3gnczx450m0v90if82xt1p425dbapu,eOQ6S5h7,2020-0188,2020-11-20,09:56:30,10:17:32,NA,incomplete,117,color,1,right,Red_Plus_Dots_2.jpg,Blue_Circle_Dots_1.jpg,Red_Triangle_Grid_3.jpg,right,1194.5850000483915,true,low,NA,NA,NA,NA,NA,NA,NA,false
eOQ6S5h7,3m67tqbqrk18ut4e0bwuqf8vno09av,3gnczx450m0v90if82xt1p425dbapu,eOQ6S5h7,2020-0188,2020-11-20,09:56:30,10:17:32,NA,incomplete,118,color,1,right,Purple_Star_Dots_3.jpg,Green_Triangle_Dots_2.jpg,Purple_Circle_Grid_4.jpg,left,1254.7200000844896,false,low,NA,NA,NA,NA,NA,NA,NA,false
eOQ6S5h7,3m67tqbqrk18ut4e0bwuqf8vno09av,3gnczx450m0v90if82xt1p425dbapu,eOQ6S5h7,2020-0188,2020-11-20,09:56:30,10:17:32,NA,incomplete,119,color,1,right,Red_Plus_Chess_4.jpg,Blue_Triangle_Chess_1.jpg,Red_Circle_Grid_3.jpg,right,808.8149999966845,true,low,NA,NA,NA,NA,NA,NA,NA,false
eOQ6S5h7,3m67tqbqrk18ut4e0bwuqf8vno09av,3gnczx450m0v90if82xt1p425dbapu,eOQ6S5h7,2020-0188,2020-11-20,09:56:30,10:17:32,NA,incomplete,120,filling,1,left,Green_Plus_Grid_3.jpg,Red_Star_Grid_1.jpg,Green_Triangle_Stripes_4.jpg,left,1028.4100000280887,true,low,NA,NA,NA,NA,NA,NA,NA,false
eOQ6S5h7,3m67tqbqrk18ut4e0bwuqf8vno09av,3gnczx450m0v90if82xt1p425dbapu,eOQ6S5h7,2020-0188,2020-11-20,09:56:30,10:17:32,NA,incomplete,121,filling,1,left,Blue_Star_Grid_4.jpg,Red_Circle_Grid_1.jpg,Blue_Plus_Dots_2.jpg,left,960.3249999927357,true,low,NA,NA,NA,NA,NA,NA,NA,false
eOQ6S5h7,3m67tqbqrk18ut4e0bwuqf8vno09av,3gnczx450m0v90if82xt1p425dbapu,eOQ6S5h7,2020-0188,2020-11-20,09:56:30,10:17:32,NA,incomplete,122,filling,1,right,Purple_Triangle_Stripes_1.jpg,Purple_Plus_Chess_3.jpg,Green_Star_Stripes_4.jpg,right,1045.795000041835,true,low,NA,NA,NA,NA,NA,NA,NA,false
eOQ6S5h7,3m67tqbqrk18ut4e0bwuqf8vno09av,3gnczx450m0v90if82xt1p425dbapu,eOQ6S5h7,2020-0188,2020-11-20,09:56:30,10:17:32,NA,incomplete,123,filling,1,right,Purple_Triangle_Chess_3.jpg,Purple_Plus_Stripes_1.jpg,Green_Star_Chess_4.jpg,right,1264.0650001121685,true,low,NA,NA,NA,NA,NA,NA,NA,false
eOQ6S5h7,3m67tqbqrk18ut4e0bwuqf8vno09av,3gnczx450m0v90if82xt1p425dbapu,eOQ6S5h7,2020-0188,2020-11-20,09:56:30,10:17:32,NA,incomplete,124,filling,1,right,Green_Star_Grid_3.jpg,Green_Triangle_Chess_1.jpg,Blue_Plus_Grid_4.jpg,right,1066.6400000918657,true,low,NA,NA,NA,NA,NA,NA,NA,false
eOQ6S5h7,3m67tqbqrk18ut4e0bwuqf8vno09av,3gnczx450m0v90if82xt1p425dbapu,eOQ6S5h7,2020-0188,2020-11-20,09:56:30,10:17:32,NA,incomplete,125,filling,0,right,Red_Triangle_Stripes_2.jpg,Red_Star_Dots_4.jpg,Blue_Plus_Stripes_3.jpg,right,933.3599999081343,true,low,NA,NA,NA,NA,NA,NA,NA,false
eOQ6S5h7,3m67tqbqrk18ut4e0bwuqf8vno09av,3gnczx450m0v90if82xt1p425dbapu,eOQ6S5h7,2020-0188,2020-11-20,09:56:30,10:17:32,NA,incomplete,126,filling,1,right,Red_Plus_Stripes_4.jpg,Red_Circle_Dots_1.jpg,Green_Triangle_Stripes_2.jpg,right,867.4449999816716,true,low,NA,NA,NA,NA,NA,NA,NA,false
eOQ6S5h7,3m67tqbqrk18ut4e0bwuqf8vno09av,3gnczx450m0v90if82xt1p425dbapu,eOQ6S5h7,2020-0188,2020-11-20,09:56:30,10:17:32,NA,incomplete,127,filling,1,right,Red_Circle_Chess_3.jpg,Red_Plus_Grid_2.jpg,Purple_Star_Chess_4.jpg,left,1133.680000086315,false,low,NA,NA,NA,NA,NA,NA,NA,false
eOQ6S5h7,3m67tqbqrk18ut4e0bwuqf8vno09av,3gnczx450m0v90if82xt1p425dbapu,eOQ6S5h7,2020-0188,2020-11-20,09:56:30,10:17:32,NA,incomplete,128,filling,1,left,Purple_Circle_Stripes_3.jpg,Blue_Triangle_Stripes_2.jpg,Purple_Star_Chess_4.jpg,right,940.074999933131,false,low,NA,NA,NA,NA,NA,NA,NA,false
eOQ6S5h7,3m67tqbqrk18ut4e0bwuqf8vno09av,3gnczx450m0v90if82xt1p425dbapu,eOQ6S5h7,2020-0188,2020-11-20,09:56:30,10:17:32,NA,incomplete,129,filling,1,right,Blue_Star_Dots_3.jpg,Blue_Triangle_Chess_1.jpg,Purple_Plus_Dots_4.jpg,right,1507.3050000937656,true,low,NA,NA,NA,NA,NA,NA,NA,false
eOQ6S5h7,3m67tqbqrk18ut4e0bwuqf8vno09av,3gnczx450m0v90if82xt1p425dbapu,eOQ6S5h7,2020-0188,2020-11-20,09:56:30,10:17:32,NA,incomplete,130,filling,1,left,Purple_Plus_Grid_3.jpg,Red_Circle_Grid_1.jpg,Purple_Triangle_Stripes_4.jpg,left,1322.3149999976158,true,low,NA,NA,NA,NA,NA,NA,NA,false
eOQ6S5h7,3m67tqbqrk18ut4e0bwuqf8vno09av,3gnczx450m0v90if82xt1p425dbapu,eOQ6S5h7,2020-0188,2020-11-20,09:56:30,10:17:32,NA,incomplete,131,filling,1,left,Blue_Star_Stripes_1.jpg,Purple_Circle_Stripes_3.jpg,Blue_Plus_Grid_2.jpg,left,1578.0899999663234,true,low,NA,NA,NA,NA,NA,NA,NA,false
eOQ6S5h7,3m67tqbqrk18ut4e0bwuqf8vno09av,3gnczx450m0v90if82xt1p425dbapu,eOQ6S5h7,2020-0188,2020-11-20,09:56:30,10:17:32,NA,incomplete,132,filling,1,left,Red_Plus_Dots_2.jpg,Purple_Star_Dots_4.jpg,Red_Triangle_Chess_1.jpg,none,0,false,low,NA,NA,NA,NA,NA,NA,NA,false
eOQ6S5h7,3m67tqbqrk18ut4e0bwuqf8vno09av,3gnczx450m0v90if82xt1p425dbapu,eOQ6S5h7,2020-0188,2020-11-20,09:56:30,10:17:32,NA,incomplete,133,filling,1,left,Red_Plus_Dots_2.jpg,Purple_Star_Dots_4.jpg,Red_Triangle_Stripes_1.jpg,left,737.0200000004843,true,low,NA,NA,NA,NA,NA,NA,NA,false
eOQ6S5h7,3m67tqbqrk18ut4e0bwuqf8vno09av,3gnczx450m0v90if82xt1p425dbapu,eOQ6S5h7,2020-0188,2020-11-20,09:56:30,10:17:32,NA,incomplete,134,filling,1,left,Red_Plus_Chess_3.jpg,Green_Circle_Chess_4.jpg,Red_Triangle_Dots_2.jpg,left,1216.0200000507757,true,low,NA,NA,NA,NA,NA,NA,NA,false
eOQ6S5h7,3m67tqbqrk18ut4e0bwuqf8vno09av,3gnczx450m0v90if82xt1p425dbapu,eOQ6S5h7,2020-0188,2020-11-20,09:56:30,10:17:32,NA,incomplete,135,filling,1,left,Red_Circle_Dots_1.jpg,Green_Triangle_Dots_2.jpg,Red_Star_Stripes_4.jpg,left,907.7599999727681,true,low,NA,NA,NA,NA,NA,NA,NA,false
eOQ6S5h7,3m67tqbqrk18ut4e0bwuqf8vno09av,3gnczx450m0v90if82xt1p425dbapu,eOQ6S5h7,2020-0188,2020-11-20,09:56:30,10:17:32,NA,incomplete,136,filling,1,left,Red_Star_Stripes_2.jpg,Green_Plus_Stripes_3.jpg,Red_Circle_Dots_1.jpg,right,1387.9250000463799,false,low,NA,NA,NA,NA,NA,NA,NA,false
eOQ6S5h7,3m67tqbqrk18ut4e0bwuqf8vno09av,3gnczx450m0v90if82xt1p425dbapu,eOQ6S5h7,2020-0188,2020-11-20,09:56:30,10:17:32,NA,incomplete,137,filling,1,left,Red_Circle_Stripes_2.jpg,Green_Triangle_Stripes_4.jpg,Red_Plus_Chess_3.jpg,left,953.1150000402704,true,low,NA,NA,NA,NA,NA,NA,NA,false
eOQ6S5h7,3m67tqbqrk18ut4e0bwuqf8vno09av,3gnczx450m0v90if82xt1p425dbapu,eOQ6S5h7,2020-0188,2020-11-20,09:56:30,10:17:32,NA,incomplete,138,filling,0,right,Blue_Triangle_Chess_1.jpg,Blue_Circle_Stripes_2.jpg,Green_Plus_Chess_4.jpg,left,1126.3099999632686,false,low,NA,NA,NA,NA,NA,NA,NA,false
eOQ6S5h7,3m67tqbqrk18ut4e0bwuqf8vno09av,3gnczx450m0v90if82xt1p425dbapu,eOQ6S5h7,2020-0188,2020-11-20,09:56:30,10:17:32,NA,incomplete,139,filling,1,right,Blue_Plus_Stripes_2.jpg,Blue_Star_Chess_3.jpg,Red_Circle_Stripes_4.jpg,right,1133.8250000262633,true,low,NA,NA,NA,NA,NA,NA,NA,false
eOQ6S5h7,3m67tqbqrk18ut4e0bwuqf8vno09av,3gnczx450m0v90if82xt1p425dbapu,eOQ6S5h7,2020-0188,2020-11-20,09:56:30,10:17:32,NA,incomplete,140,color,1,right,Purple_Circle_Grid_4.jpg,Red_Star_Grid_1.jpg,Purple_Plus_Dots_3.jpg,left,1116.0350000718608,false,low,NA,NA,NA,NA,NA,NA,NA,false
eOQ6S5h7,3m67tqbqrk18ut4e0bwuqf8vno09av,3gnczx450m0v90if82xt1p425dbapu,eOQ6S5h7,2020-0188,2020-11-20,09:56:30,10:17:32,NA,incomplete,141,color,0,right,Green_Star_Stripes_4.jpg,Purple_Plus_Stripes_2.jpg,Green_Triangle_Chess_1.jpg,left,1109.1200000373647,false,low,NA,NA,NA,NA,NA,NA,NA,false
eOQ6S5h7,3m67tqbqrk18ut4e0bwuqf8vno09av,3gnczx450m0v90if82xt1p425dbapu,eOQ6S5h7,2020-0188,2020-11-20,09:56:30,10:17:32,NA,incomplete,142,color,1,right,Green_Plus_Dots_3.jpg,Red_Triangle_Dots_1.jpg,Green_Circle_Stripes_4.jpg,left,1348.3499999856576,false,low,NA,NA,NA,NA,NA,NA,NA,false
eOQ6S5h7,3m67tqbqrk18ut4e0bwuqf8vno09av,3gnczx450m0v90if82xt1p425dbapu,eOQ6S5h7,2020-0188,2020-11-20,09:56:30,10:17:32,NA,incomplete,143,color,1,left,Red_Triangle_Dots_2.jpg,Red_Circle_Chess_1.jpg,Purple_Star_Dots_3.jpg,left,1954.9600000027567,true,low,NA,NA,NA,NA,NA,NA,NA,false
eOQ6S5h7,3m67tqbqrk18ut4e0bwuqf8vno09av,3gnczx450m0v90if82xt1p425dbapu,eOQ6S5h7,2020-0188,2020-11-20,09:56:30,10:17:32,NA,incomplete,144,color,1,right,Green_Triangle_Stripes_1.jpg,Blue_Circle_Stripes_2.jpg,Green_Star_Chess_4.jpg,none,0,false,low,NA,NA,NA,NA,NA,NA,NA,false
eOQ6S5h7,3m67tqbqrk18ut4e0bwuqf8vno09av,3gnczx450m0v90if82xt1p425dbapu,eOQ6S5h7,2020-0188,2020-11-20,09:56:30,10:17:32,NA,incomplete,145,color,0,right,Blue_Circle_Stripes_3.jpg,Red_Plus_Stripes_4.jpg,Blue_Star_Chess_2.jpg,left,694.5299999788404,false,low,NA,NA,NA,NA,NA,NA,NA,false
eOQ6S5h7,3m67tqbqrk18ut4e0bwuqf8vno09av,3gnczx450m0v90if82xt1p425dbapu,eOQ6S5h7,2020-0188,2020-11-20,09:56:30,10:17:32,NA,incomplete,146,color,1,left,Purple_Circle_Grid_1.jpg,Purple_Star_Dots_4.jpg,Blue_Plus_Grid_2.jpg,right,1089.090000023134,false,low,NA,NA,NA,NA,NA,NA,NA,false
eOQ6S5h7,3m67tqbqrk18ut4e0bwuqf8vno09av,3gnczx450m0v90if82xt1p425dbapu,eOQ6S5h7,2020-0188,2020-11-20,09:56:30,10:17:32,NA,incomplete,147,color,0,right,Red_Star_Grid_4.jpg,Green_Plus_Grid_3.jpg,Red_Circle_Stripes_2.jpg,left,1506.2600000528619,false,low,NA,NA,NA,NA,NA,NA,NA,false
eOQ6S5h7,3m67tqbqrk18ut4e0bwuqf8vno09av,3gnczx450m0v90if82xt1p425dbapu,eOQ6S5h7,2020-0188,2020-11-20,09:56:30,10:17:32,NA,incomplete,148,color,1,left,Purple_Star_Dots_2.jpg,Purple_Triangle_Stripes_4.jpg,Green_Plus_Dots_3.jpg,right,1434.0499999234453,false,low,NA,NA,NA,NA,NA,NA,NA,false
eOQ6S5h7,3m67tqbqrk18ut4e0bwuqf8vno09av,3gnczx450m0v90if82xt1p425dbapu,eOQ6S5h7,2020-0188,2020-11-20,09:56:30,10:17:32,NA,incomplete,149,color,1,left,Purple_Circle_Stripes_2.jpg,Purple_Triangle_Dots_4.jpg,Green_Plus_Stripes_1.jpg,none,0,false,low,NA,NA,NA,NA,NA,NA,NA,false
eOQ6S5h7,3m67tqbqrk18ut4e0bwuqf8vno09av,3gnczx450m0v90if82xt1p425dbapu,eOQ6S5h7,2020-0188,2020-11-20,09:56:30,10:17:32,NA,incomplete,150,color,0,right,Green_Star_Chess_4.jpg,Blue_Plus_Chess_1.jpg,Green_Triangle_Stripes_3.jpg,left,872.2399999387562,false,low,NA,NA,NA,NA,NA,NA,NA,false
eOQ6S5h7,3m67tqbqrk18ut4e0bwuqf8vno09av,3gnczx450m0v90if82xt1p425dbapu,eOQ6S5h7,2020-0188,2020-11-20,09:56:30,10:17:32,NA,incomplete,151,color,1,left,Red_Circle_Stripes_4.jpg,Red_Triangle_Chess_3.jpg,Purple_Plus_Stripes_2.jpg,none,0,false,low,NA,NA,NA,NA,NA,NA,NA,false
eOQ6S5h7,3m67tqbqrk18ut4e0bwuqf8vno09av,3gnczx450m0v90if82xt1p425dbapu,eOQ6S5h7,2020-0188,2020-11-20,09:56:30,10:17:32,NA,incomplete,152,color,1,left,Blue_Circle_Chess_2.jpg,Blue_Triangle_Dots_3.jpg,Purple_Plus_Chess_1.jpg,left,1037.4849999789149,true,low,NA,NA,NA,NA,NA,NA,NA,false
eOQ6S5h7,3m67tqbqrk18ut4e0bwuqf8vno09av,3gnczx450m0v90if82xt1p425dbapu,eOQ6S5h7,2020-0188,2020-11-20,09:56:30,10:17:32,NA,incomplete,153,color,0,left,Green_Triangle_Chess_1.jpg,Green_Star_Stripes_2.jpg,Purple_Plus_Chess_3.jpg,left,1273.270000005141,true,low,NA,NA,NA,NA,NA,NA,NA,false
eOQ6S5h7,3m67tqbqrk18ut4e0bwuqf8vno09av,3gnczx450m0v90if82xt1p425dbapu,eOQ6S5h7,2020-0188,2020-11-20,09:56:30,10:17:32,NA,incomplete,154,color,1,right,Blue_Star_Grid_4.jpg,Green_Plus_Grid_1.jpg,Blue_Triangle_Dots_3.jpg,left,1377.820000052452,false,low,NA,NA,NA,NA,NA,NA,NA,false
eOQ6S5h7,3m67tqbqrk18ut4e0bwuqf8vno09av,3gnczx450m0v90if82xt1p425dbapu,eOQ6S5h7,2020-0188,2020-11-20,09:56:30,10:17:32,NA,incomplete,155,color,0,right,Green_Plus_Dots_1.jpg,Blue_Star_Dots_3.jpg,Green_Circle_Stripes_2.jpg,left,1590.3449999168515,false,low,NA,NA,NA,NA,NA,NA,NA,false
eOQ6S5h7,3m67tqbqrk18ut4e0bwuqf8vno09av,3gnczx450m0v90if82xt1p425dbapu,eOQ6S5h7,2020-0188,2020-11-20,09:56:30,10:17:32,NA,incomplete,156,color,1,left,Purple_Circle_Chess_3.jpg,Purple_Star_Grid_1.jpg,Green_Plus_Chess_2.jpg,right,1555.930000031367,false,low,NA,NA,NA,NA,NA,NA,NA,false
eOQ6S5h7,3m67tqbqrk18ut4e0bwuqf8vno09av,3gnczx450m0v90if82xt1p425dbapu,eOQ6S5h7,2020-0188,2020-11-20,09:56:30,10:17:32,NA,incomplete,157,color,1,right,Red_Triangle_Stripes_4.jpg,Purple_Star_Stripes_3.jpg,Red_Circle_Chess_1.jpg,left,946.3599999435246,false,low,NA,NA,NA,NA,NA,NA,NA,false
eOQ6S5h7,3m67tqbqrk18ut4e0bwuqf8vno09av,3gnczx450m0v90if82xt1p425dbapu,eOQ6S5h7,2020-0188,2020-11-20,09:56:30,10:17:32,NA,incomplete,158,color,1,left,Green_Plus_Stripes_4.jpg,Green_Star_Grid_2.jpg,Purple_Triangle_Stripes_3.jpg,left,928.4500000067055,true,low,NA,NA,NA,NA,NA,NA,NA,false
eOQ6S5h7,3m67tqbqrk18ut4e0bwuqf8vno09av,3gnczx450m0v90if82xt1p425dbapu,eOQ6S5h7,2020-0188,2020-11-20,09:56:30,10:17:32,NA,incomplete,159,color,1,right,Red_Circle_Grid_2.jpg,Green_Plus_Grid_4.jpg,Red_Triangle_Stripes_1.jpg,right,751.4299999456853,true,low,NA,NA,NA,NA,NA,NA,NA,false
eOQ6S5h7,3m67tqbqrk18ut4e0bwuqf8vno09av,3gnczx450m0v90if82xt1p425dbapu,eOQ6S5h7,2020-0188,2020-11-20,09:56:30,10:17:32,NA,incomplete,160,filling,1,right,Red_Circle_Grid_2.jpg,Red_Star_Chess_4.jpg,Purple_Triangle_Grid_1.jpg,left,1549.269999959506,false,low,NA,NA,NA,NA,NA,NA,NA,false
eOQ6S5h7,3m67tqbqrk18ut4e0bwuqf8vno09av,3gnczx450m0v90if82xt1p425dbapu,eOQ6S5h7,2020-0188,2020-11-20,09:56:30,10:17:32,NA,incomplete,161,filling,1,right,Blue_Plus_Dots_4.jpg,Blue_Star_Stripes_1.jpg,Purple_Circle_Dots_3.jpg,right,1404.1049999650568,true,low,NA,NA,NA,NA,NA,NA,NA,false
eOQ6S5h7,3m67tqbqrk18ut4e0bwuqf8vno09av,3gnczx450m0v90if82xt1p425dbapu,eOQ6S5h7,2020-0188,2020-11-20,09:56:30,10:17:32,NA,incomplete,162,filling,1,left,Blue_Plus_Chess_2.jpg,Purple_Star_Chess_1.jpg,Blue_Circle_Dots_3.jpg,left,1376.384999952279,true,low,NA,NA,NA,NA,NA,NA,NA,false
eOQ6S5h7,3m67tqbqrk18ut4e0bwuqf8vno09av,3gnczx450m0v90if82xt1p425dbapu,eOQ6S5h7,2020-0188,2020-11-20,09:56:30,10:17:32,NA,incomplete,163,filling,1,left,Purple_Triangle_Chess_3.jpg,Red_Star_Chess_2.jpg,Purple_Circle_Stripes_1.jpg,left,933.7100000120699,true,low,NA,NA,NA,NA,NA,NA,NA,false
eOQ6S5h7,3m67tqbqrk18ut4e0bwuqf8vno09av,3gnczx450m0v90if82xt1p425dbapu,eOQ6S5h7,2020-0188,2020-11-20,09:56:30,10:17:32,NA,incomplete,164,filling,1,left,Blue_Plus_Dots_4.jpg,Green_Triangle_Dots_1.jpg,Blue_Circle_Grid_2.jpg,left,908.4100000327453,true,low,NA,NA,NA,NA,NA,NA,NA,false
eOQ6S5h7,3m67tqbqrk18ut4e0bwuqf8vno09av,3gnczx450m0v90if82xt1p425dbapu,eOQ6S5h7,2020-0188,2020-11-20,09:56:30,10:17:32,NA,incomplete,165,filling,1,right,Blue_Triangle_Dots_1.jpg,Blue_Plus_Grid_4.jpg,Red_Circle_Dots_2.jpg,right,1213.0099999485537,true,low,NA,NA,NA,NA,NA,NA,NA,false
eOQ6S5h7,3m67tqbqrk18ut4e0bwuqf8vno09av,3gnczx450m0v90if82xt1p425dbapu,eOQ6S5h7,2020-0188,2020-11-20,09:56:30,10:17:32,NA,incomplete,166,filling,0,left,Purple_Plus_Chess_2.jpg,Green_Triangle_Chess_1.jpg,Purple_Star_Stripes_4.jpg,left,912.514999974519,true,low,NA,NA,NA,NA,NA,NA,NA,false
eOQ6S5h7,3m67tqbqrk18ut4e0bwuqf8vno09av,3gnczx450m0v90if82xt1p425dbapu,eOQ6S5h7,2020-0188,2020-11-20,09:56:30,10:17:32,NA,incomplete,167,filling,1,right,Purple_Triangle_Stripes_4.jpg,Purple_Star_Grid_3.jpg,Blue_Circle_Stripes_2.jpg,right,1048.1150000123307,true,low,NA,NA,NA,NA,NA,NA,NA,false
eOQ6S5h7,3m67tqbqrk18ut4e0bwuqf8vno09av,3gnczx450m0v90if82xt1p425dbapu,eOQ6S5h7,2020-0188,2020-11-20,09:56:30,10:17:32,NA,incomplete,168,filling,1,right,Purple_Star_Chess_1.jpg,Purple_Circle_Stripes_4.jpg,Green_Plus_Chess_2.jpg,right,1050.7000000216067,true,low,NA,NA,NA,NA,NA,NA,NA,false
eOQ6S5h7,3m67tqbqrk18ut4e0bwuqf8vno09av,3gnczx450m0v90if82xt1p425dbapu,eOQ6S5h7,2020-0188,2020-11-20,09:56:30,10:17:32,NA,incomplete,169,filling,1,left,Green_Triangle_Dots_2.jpg,Red_Plus_Dots_4.jpg,Green_Star_Stripes_1.jpg,left,788.5199999436736,true,low,NA,NA,NA,NA,NA,NA,NA,false
eOQ6S5h7,3m67tqbqrk18ut4e0bwuqf8vno09av,3gnczx450m0v90if82xt1p425dbapu,eOQ6S5h7,2020-0188,2020-11-20,09:56:30,10:17:32,NA,incomplete,170,filling,1,right,Blue_Star_Dots_3.jpg,Blue_Circle_Stripes_2.jpg,Green_Triangle_Dots_4.jpg,left,946.4800000423566,false,low,NA,NA,NA,NA,NA,NA,NA,false
eOQ6S5h7,3m67tqbqrk18ut4e0bwuqf8vno09av,3gnczx450m0v90if82xt1p425dbapu,eOQ6S5h7,2020-0188,2020-11-20,09:56:30,10:17:32,NA,incomplete,171,filling,0,left,Purple_Triangle_Stripes_2.jpg,Blue_Star_Stripes_3.jpg,Purple_Circle_Grid_4.jpg,left,1288.4599999524653,true,low,NA,NA,NA,NA,NA,NA,NA,false
eOQ6S5h7,3m67tqbqrk18ut4e0bwuqf8vno09av,3gnczx450m0v90if82xt1p425dbapu,eOQ6S5h7,2020-0188,2020-11-20,09:56:30,10:17:32,NA,incomplete,172,filling,1,right,Green_Plus_Dots_3.jpg,Green_Star_Grid_4.jpg,Red_Circle_Dots_2.jpg,right,1208.4650000324473,true,low,NA,NA,NA,NA,NA,NA,NA,false
eOQ6S5h7,3m67tqbqrk18ut4e0bwuqf8vno09av,3gnczx450m0v90if82xt1p425dbapu,eOQ6S5h7,2020-0188,2020-11-20,09:56:30,10:17:32,NA,incomplete,173,filling,1,right,Green_Plus_Dots_1.jpg,Green_Star_Stripes_2.jpg,Purple_Circle_Dots_4.jpg,right,933.0249999184161,true,low,NA,NA,NA,NA,NA,NA,NA,false
eOQ6S5h7,3m67tqbqrk18ut4e0bwuqf8vno09av,3gnczx450m0v90if82xt1p425dbapu,eOQ6S5h7,2020-0188,2020-11-20,09:56:30,10:17:32,NA,incomplete,174,filling,0,left,Purple_Circle_Dots_2.jpg,Red_Triangle_Dots_1.jpg,Purple_Star_Grid_3.jpg,left,788.7199999531731,true,low,NA,NA,NA,NA,NA,NA,NA,false
eOQ6S5h7,3m67tqbqrk18ut4e0bwuqf8vno09av,3gnczx450m0v90if82xt1p425dbapu,eOQ6S5h7,2020-0188,2020-11-20,09:56:30,10:17:32,NA,incomplete,175,filling,1,left,Red_Plus_Dots_3.jpg,Blue_Triangle_Dots_1.jpg,Red_Star_Chess_2.jpg,left,720.7399999024346,true,low,NA,NA,NA,NA,NA,NA,NA,false
eOQ6S5h7,3m67tqbqrk18ut4e0bwuqf8vno09av,3gnczx450m0v90if82xt1p425dbapu,eOQ6S5h7,2020-0188,2020-11-20,09:56:30,10:17:32,NA,incomplete,176,filling,1,right,Blue_Circle_Stripes_3.jpg,Blue_Triangle_Dots_4.jpg,Red_Star_Stripes_1.jpg,right,1088.344999938272,true,low,NA,NA,NA,NA,NA,NA,NA,false
eOQ6S5h7,3m67tqbqrk18ut4e0bwuqf8vno09av,3gnczx450m0v90if82xt1p425dbapu,eOQ6S5h7,2020-0188,2020-11-20,09:56:30,10:17:32,NA,incomplete,177,filling,1,left,Blue_Plus_Chess_2.jpg,Red_Star_Chess_4.jpg,Blue_Triangle_Dots_1.jpg,right,809.0599999995902,false,low,NA,NA,NA,NA,NA,NA,NA,false
eOQ6S5h7,3m67tqbqrk18ut4e0bwuqf8vno09av,3gnczx450m0v90if82xt1p425dbapu,eOQ6S5h7,2020-0188,2020-11-20,09:56:30,10:17:32,NA,incomplete,178,filling,1,left,Purple_Triangle_Dots_1.jpg,Red_Circle_Dots_2.jpg,Purple_Star_Chess_4.jpg,left,940.9100000048056,true,low,NA,NA,NA,NA,NA,NA,NA,false
eOQ6S5h7,3m67tqbqrk18ut4e0bwuqf8vno09av,3gnczx450m0v90if82xt1p425dbapu,eOQ6S5h7,2020-0188,2020-11-20,09:56:30,10:17:32,NA,incomplete,179,filling,1,left,Red_Star_Dots_1.jpg,Green_Plus_Dots_2.jpg,Red_Circle_Chess_4.jpg,right,1116.6399999056011,false,low,NA,NA,NA,NA,NA,NA,NA,false
eOQ6S5h7,3m67tqbqrk18ut4e0bwuqf8vno09av,3gnczx450m0v90if82xt1p425dbapu,eOQ6S5h7,2020-0188,2020-11-20,09:56:30,10:17:32,NA,incomplete,180,color,1,right,Red_Circle_Dots_3.jpg,Green_Plus_Dots_2.jpg,Red_Triangle_Stripes_1.jpg,right,1195.7649999530986,true,low,NA,NA,NA,NA,NA,NA,NA,false
eOQ6S5h7,3m67tqbqrk18ut4e0bwuqf8vno09av,3gnczx450m0v90if82xt1p425dbapu,eOQ6S5h7,2020-0188,2020-11-20,09:56:30,10:17:32,NA,incomplete,181,color,1,right,Red_Triangle_Grid_4.jpg,Purple_Star_Grid_3.jpg,Red_Circle_Stripes_1.jpg,left,1112.5499999616295,false,low,NA,NA,NA,NA,NA,NA,NA,false
eOQ6S5h7,3m67tqbqrk18ut4e0bwuqf8vno09av,3gnczx450m0v90if82xt1p425dbapu,eOQ6S5h7,2020-0188,2020-11-20,09:56:30,10:17:32,NA,incomplete,182,color,1,right,Blue_Circle_Stripes_3.jpg,Red_Triangle_Stripes_4.jpg,Blue_Star_Dots_1.jpg,left,904.2950000148267,false,low,NA,NA,NA,NA,NA,NA,NA,false
eOQ6S5h7,3m67tqbqrk18ut4e0bwuqf8vno09av,3gnczx450m0v90if82xt1p425dbapu,eOQ6S5h7,2020-0188,2020-11-20,09:56:30,10:17:32,NA,incomplete,183,color,1,left,Green_Triangle_Dots_4.jpg,Green_Star_Grid_1.jpg,Purple_Plus_Dots_3.jpg,right,1417.1949999872595,false,low,NA,NA,NA,NA,NA,NA,NA,false
eOQ6S5h7,3m67tqbqrk18ut4e0bwuqf8vno09av,3gnczx450m0v90if82xt1p425dbapu,eOQ6S5h7,2020-0188,2020-11-20,09:56:30,10:17:32,NA,incomplete,184,color,0,right,Blue_Circle_Dots_1.jpg,Green_Star_Dots_4.jpg,Blue_Plus_Chess_2.jpg,left,963.7700000312179,false,low,NA,NA,NA,NA,NA,NA,NA,false
eOQ6S5h7,3m67tqbqrk18ut4e0bwuqf8vno09av,3gnczx450m0v90if82xt1p425dbapu,eOQ6S5h7,2020-0188,2020-11-20,09:56:30,10:17:32,NA,incomplete,185,color,1,left,Green_Circle_Dots_1.jpg,Green_Plus_Stripes_3.jpg,Blue_Star_Dots_2.jpg,left,1353.720000013709,true,low,NA,NA,NA,NA,NA,NA,NA,false
eOQ6S5h7,3m67tqbqrk18ut4e0bwuqf8vno09av,3gnczx450m0v90if82xt1p425dbapu,eOQ6S5h7,2020-0188,2020-11-20,09:56:30,10:17:32,NA,incomplete,186,color,1,left,Purple_Plus_Chess_2.jpg,Purple_Circle_Dots_1.jpg,Red_Triangle_Chess_4.jpg,right,1407.2900000028312,false,low,NA,NA,NA,NA,NA,NA,NA,false
eOQ6S5h7,3m67tqbqrk18ut4e0bwuqf8vno09av,3gnczx450m0v90if82xt1p425dbapu,eOQ6S5h7,2020-0188,2020-11-20,09:56:30,10:17:32,NA,incomplete,187,color,1,left,Red_Plus_Stripes_3.jpg,Red_Circle_Grid_4.jpg,Green_Triangle_Stripes_2.jpg,right,1372.1649999497458,false,low,NA,NA,NA,NA,NA,NA,NA,false
eOQ6S5h7,3m67tqbqrk18ut4e0bwuqf8vno09av,3gnczx450m0v90if82xt1p425dbapu,eOQ6S5h7,2020-0188,2020-11-20,09:56:30,10:17:32,NA,incomplete,188,color,1,right,Green_Star_Stripes_2.jpg,Blue_Triangle_Stripes_3.jpg,Green_Circle_Grid_1.jpg,left,936.8699999758974,false,low,NA,NA,NA,NA,NA,NA,NA,false
eOQ6S5h7,3m67tqbqrk18ut4e0bwuqf8vno09av,3gnczx450m0v90if82xt1p425dbapu,eOQ6S5h7,2020-0188,2020-11-20,09:56:30,10:17:32,NA,incomplete,189,color,0,left,Green_Triangle_Stripes_1.jpg,Green_Circle_Dots_3.jpg,Blue_Star_Stripes_2.jpg,left,1646.984999999404,true,low,NA,NA,NA,NA,NA,NA,NA,false
eOQ6S5h7,3m67tqbqrk18ut4e0bwuqf8vno09av,3gnczx450m0v90if82xt1p425dbapu,eOQ6S5h7,2020-0188,2020-11-20,09:56:30,10:17:32,NA,incomplete,190,color,1,right,Blue_Triangle_Chess_4.jpg,Red_Star_Chess_2.jpg,Blue_Circle_Stripes_3.jpg,right,786.5250000031665,true,low,NA,NA,NA,NA,NA,NA,NA,false
eOQ6S5h7,3m67tqbqrk18ut4e0bwuqf8vno09av,3gnczx450m0v90if82xt1p425dbapu,eOQ6S5h7,2020-0188,2020-11-20,09:56:30,10:17:32,NA,incomplete,191,color,0,left,Red_Circle_Stripes_3.jpg,Red_Plus_Grid_2.jpg,Purple_Triangle_Stripes_4.jpg,left,735.2549999486655,true,low,NA,NA,NA,NA,NA,NA,NA,false
eOQ6S5h7,3m67tqbqrk18ut4e0bwuqf8vno09av,3gnczx450m0v90if82xt1p425dbapu,eOQ6S5h7,2020-0188,2020-11-20,09:56:30,10:17:32,NA,incomplete,192,color,1,left,Green_Plus_Chess_1.jpg,Green_Star_Stripes_2.jpg,Blue_Triangle_Chess_3.jpg,right,1124.5900000212714,false,low,NA,NA,NA,NA,NA,NA,NA,false
eOQ6S5h7,3m67tqbqrk18ut4e0bwuqf8vno09av,3gnczx450m0v90if82xt1p425dbapu,eOQ6S5h7,2020-0188,2020-11-20,09:56:30,10:17:32,NA,incomplete,193,color,1,left,Purple_Triangle_Chess_1.jpg,Purple_Plus_Grid_4.jpg,Green_Star_Chess_3.jpg,right,1365.1199999731034,false,low,NA,NA,NA,NA,NA,NA,NA,false
eOQ6S5h7,3m67tqbqrk18ut4e0bwuqf8vno09av,3gnczx450m0v90if82xt1p425dbapu,eOQ6S5h7,2020-0188,2020-11-20,09:56:30,10:17:32,NA,incomplete,194,color,1,right,Blue_Triangle_Grid_4.jpg,Purple_Circle_Grid_2.jpg,Blue_Plus_Stripes_3.jpg,left,1394.6549999527633,false,low,NA,NA,NA,NA,NA,NA,NA,false
eOQ6S5h7,3m67tqbqrk18ut4e0bwuqf8vno09av,3gnczx450m0v90if82xt1p425dbapu,eOQ6S5h7,2020-0188,2020-11-20,09:56:30,10:17:32,NA,incomplete,195,color,0,left,Green_Star_Chess_2.jpg,Green_Plus_Grid_1.jpg,Red_Triangle_Chess_4.jpg,right,1063.9600000577047,false,low,NA,NA,NA,NA,NA,NA,NA,false
eOQ6S5h7,3m67tqbqrk18ut4e0bwuqf8vno09av,3gnczx450m0v90if82xt1p425dbapu,eOQ6S5h7,2020-0188,2020-11-20,09:56:30,10:17:32,NA,incomplete,196,color,1,left,Red_Plus_Grid_4.jpg,Red_Star_Chess_2.jpg,Green_Circle_Grid_3.jpg,left,1009.5899999141693,true,low,NA,NA,NA,NA,NA,NA,NA,false
eOQ6S5h7,3m67tqbqrk18ut4e0bwuqf8vno09av,3gnczx450m0v90if82xt1p425dbapu,eOQ6S5h7,2020-0188,2020-11-20,09:56:30,10:17:32,NA,incomplete,197,color,1,right,Purple_Triangle_Dots_1.jpg,Red_Star_Dots_4.jpg,Purple_Plus_Stripes_2.jpg,left,1317.3050000332296,false,low,NA,NA,NA,NA,NA,NA,NA,false
eOQ6S5h7,3m67tqbqrk18ut4e0bwuqf8vno09av,3gnczx450m0v90if82xt1p425dbapu,eOQ6S5h7,2020-0188,2020-11-20,09:56:30,10:17:32,NA,incomplete,198,color,0,left,Blue_Circle_Stripes_3.jpg,Blue_Triangle_Dots_1.jpg,Purple_Star_Stripes_4.jpg,right,1636.7099999915808,false,low,NA,NA,NA,NA,NA,NA,NA,false
eOQ6S5h7,3m67tqbqrk18ut4e0bwuqf8vno09av,3gnczx450m0v90if82xt1p425dbapu,eOQ6S5h7,2020-0188,2020-11-20,09:56:30,10:17:32,NA,incomplete,199,color,1,left,Purple_Triangle_Stripes_2.jpg,Purple_Plus_Chess_3.jpg,Green_Star_Stripes_1.jpg,right,1264.2950000008568,false,low,NA,NA,NA,NA,NA,NA,NA,false
eOQ6S5h7,3m67tqbqrk18ut4e0bwuqf8vno09av,3gnczx450m0v90if82xt1p425dbapu,eOQ6S5h7,2020-0188,2020-11-20,09:56:30,10:17:32,NA,incomplete,200,filling,1,left,Purple_Circle_Dots_2.jpg,Green_Plus_Dots_3.jpg,Purple_Star_Chess_4.jpg,left,809.4950000522658,true,low,NA,NA,NA,NA,NA,NA,NA,false
eOQ6S5h7,3m67tqbqrk18ut4e0bwuqf8vno09av,3gnczx450m0v90if82xt1p425dbapu,eOQ6S5h7,2020-0188,2020-11-20,09:56:30,10:17:32,NA,incomplete,201,filling,1,left,Red_Plus_Chess_1.jpg,Purple_Triangle_Chess_4.jpg,Red_Circle_Stripes_2.jpg,right,1165.3850000584498,false,low,NA,NA,NA,NA,NA,NA,NA,false
eOQ6S5h7,3m67tqbqrk18ut4e0bwuqf8vno09av,3gnczx450m0v90if82xt1p425dbapu,eOQ6S5h7,2020-0188,2020-11-20,09:56:30,10:17:32,NA,incomplete,202,filling,0,right,Green_Circle_Stripes_3.jpg,Green_Triangle_Grid_1.jpg,Red_Star_Stripes_2.jpg,left,891.0949999699369,false,low,NA,NA,NA,NA,NA,NA,NA,false
eOQ6S5h7,3m67tqbqrk18ut4e0bwuqf8vno09av,3gnczx450m0v90if82xt1p425dbapu,eOQ6S5h7,2020-0188,2020-11-20,09:56:30,10:17:32,NA,incomplete,203,filling,1,right,Blue_Circle_Dots_4.jpg,Blue_Plus_Stripes_1.jpg,Red_Triangle_Dots_2.jpg,left,812.8550000255927,false,low,NA,NA,NA,NA,NA,NA,NA,false
eOQ6S5h7,3m67tqbqrk18ut4e0bwuqf8vno09av,3gnczx450m0v90if82xt1p425dbapu,eOQ6S5h7,2020-0188,2020-11-20,09:56:30,10:17:32,NA,incomplete,204,filling,1,left,Green_Plus_Grid_4.jpg,Red_Star_Grid_3.jpg,Green_Triangle_Stripes_1.jpg,left,1208.7299999548122,true,low,NA,NA,NA,NA,NA,NA,NA,false
eOQ6S5h7,3m67tqbqrk18ut4e0bwuqf8vno09av,3gnczx450m0v90if82xt1p425dbapu,eOQ6S5h7,2020-0188,2020-11-20,09:56:30,10:17:32,NA,incomplete,205,filling,1,left,Red_Circle_Dots_1.jpg,Purple_Star_Dots_3.jpg,Red_Triangle_Stripes_2.jpg,right,1059.899999992922,false,low,NA,NA,NA,NA,NA,NA,NA,false
eOQ6S5h7,3m67tqbqrk18ut4e0bwuqf8vno09av,3gnczx450m0v90if82xt1p425dbapu,eOQ6S5h7,2020-0188,2020-11-20,09:56:30,10:17:32,NA,incomplete,206,filling,1,right,Green_Triangle_Grid_4.jpg,Green_Circle_Chess_3.jpg,Red_Star_Grid_1.jpg,right,1374.5199999539182,true,low,NA,NA,NA,NA,NA,NA,NA,false
eOQ6S5h7,3m67tqbqrk18ut4e0bwuqf8vno09av,3gnczx450m0v90if82xt1p425dbapu,eOQ6S5h7,2020-0188,2020-11-20,09:56:30,10:17:32,NA,incomplete,207,filling,1,left,Blue_Triangle_Chess_3.jpg,Green_Plus_Chess_2.jpg,Blue_Circle_Grid_4.jpg,right,1723.63000002224,false,low,NA,NA,NA,NA,NA,NA,NA,false
eOQ6S5h7,3m67tqbqrk18ut4e0bwuqf8vno09av,3gnczx450m0v90if82xt1p425dbapu,eOQ6S5h7,2020-0188,2020-11-20,09:56:30,10:17:32,NA,incomplete,208,filling,1,left,Red_Plus_Grid_4.jpg,Blue_Triangle_Grid_1.jpg,Red_Circle_Stripes_3.jpg,left,1411.6599999833852,true,low,NA,NA,NA,NA,NA,NA,NA,false
eOQ6S5h7,3m67tqbqrk18ut4e0bwuqf8vno09av,3gnczx450m0v90if82xt1p425dbapu,eOQ6S5h7,2020-0188,2020-11-20,09:56:30,10:17:32,NA,incomplete,209,filling,1,left,Red_Star_Chess_4.jpg,Purple_Plus_Chess_3.jpg,Red_Triangle_Grid_1.jpg,left,974.309999961406,true,low,NA,NA,NA,NA,NA,NA,NA,false
eOQ6S5h7,3m67tqbqrk18ut4e0bwuqf8vno09av,3gnczx450m0v90if82xt1p425dbapu,eOQ6S5h7,2020-0188,2020-11-20,09:56:30,10:17:32,NA,incomplete,210,filling,1,left,Blue_Star_Grid_2.jpg,Purple_Triangle_Grid_3.jpg,Blue_Plus_Dots_4.jpg,left,1092.2500001033768,true,low,NA,NA,NA,NA,NA,NA,NA,false
eOQ6S5h7,3m67tqbqrk18ut4e0bwuqf8vno09av,3gnczx450m0v90if82xt1p425dbapu,eOQ6S5h7,2020-0188,2020-11-20,09:56:30,10:17:32,NA,incomplete,211,filling,1,left,Red_Circle_Grid_1.jpg,Green_Star_Grid_2.jpg,Red_Triangle_Chess_3.jpg,right,1044.8600000236183,false,low,NA,NA,NA,NA,NA,NA,NA,false
eOQ6S5h7,3m67tqbqrk18ut4e0bwuqf8vno09av,3gnczx450m0v90if82xt1p425dbapu,eOQ6S5h7,2020-0188,2020-11-20,09:56:30,10:17:32,NA,incomplete,212,filling,1,right,Green_Triangle_Dots_4.jpg,Green_Star_Stripes_2.jpg,Red_Plus_Dots_3.jpg,right,1008.2399999955669,true,low,NA,NA,NA,NA,NA,NA,NA,false
eOQ6S5h7,3m67tqbqrk18ut4e0bwuqf8vno09av,3gnczx450m0v90if82xt1p425dbapu,eOQ6S5h7,2020-0188,2020-11-20,09:56:30,10:17:32,NA,incomplete,213,filling,1,right,Red_Plus_Chess_4.jpg,Red_Star_Grid_1.jpg,Green_Triangle_Chess_2.jpg,right,1243.3699999237433,true,low,NA,NA,NA,NA,NA,NA,NA,false
eOQ6S5h7,3m67tqbqrk18ut4e0bwuqf8vno09av,3gnczx450m0v90if82xt1p425dbapu,eOQ6S5h7,2020-0188,2020-11-20,09:56:30,10:17:32,NA,incomplete,214,filling,1,right,Green_Triangle_Stripes_4.jpg,Green_Star_Dots_1.jpg,Blue_Plus_Stripes_2.jpg,right,1142.3499999800697,true,low,NA,NA,NA,NA,NA,NA,NA,false
eOQ6S5h7,3m67tqbqrk18ut4e0bwuqf8vno09av,3gnczx450m0v90if82xt1p425dbapu,eOQ6S5h7,2020-0188,2020-11-20,09:56:30,10:17:32,NA,incomplete,215,filling,0,left,Blue_Plus_Grid_2.jpg,Green_Star_Grid_4.jpg,Blue_Triangle_Dots_1.jpg,left,1221.6000000480562,true,low,NA,NA,NA,NA,NA,NA,NA,false
eOQ6S5h7,3m67tqbqrk18ut4e0bwuqf8vno09av,3gnczx450m0v90if82xt1p425dbapu,eOQ6S5h7,2020-0188,2020-11-20,09:56:30,10:17:32,NA,incomplete,216,filling,1,right,Purple_Triangle_Stripes_4.jpg,Purple_Circle_Grid_3.jpg,Green_Plus_Stripes_1.jpg,left,904.4099999591708,false,low,NA,NA,NA,NA,NA,NA,NA,false
eOQ6S5h7,3m67tqbqrk18ut4e0bwuqf8vno09av,3gnczx450m0v90if82xt1p425dbapu,eOQ6S5h7,2020-0188,2020-11-20,09:56:30,10:17:32,NA,incomplete,217,filling,1,left,Blue_Circle_Grid_2.jpg,Green_Triangle_Grid_3.jpg,Blue_Plus_Stripes_1.jpg,left,1088.664999930188,true,low,NA,NA,NA,NA,NA,NA,NA,false
eOQ6S5h7,3m67tqbqrk18ut4e0bwuqf8vno09av,3gnczx450m0v90if82xt1p425dbapu,eOQ6S5h7,2020-0188,2020-11-20,09:56:30,10:17:32,NA,incomplete,218,filling,0,right,Purple_Triangle_Stripes_4.jpg,Purple_Circle_Grid_2.jpg,Green_Star_Stripes_3.jpg,right,1121.1650000186637,true,low,NA,NA,NA,NA,NA,NA,NA,false
eOQ6S5h7,3m67tqbqrk18ut4e0bwuqf8vno09av,3gnczx450m0v90if82xt1p425dbapu,eOQ6S5h7,2020-0188,2020-11-20,09:56:30,10:17:32,NA,incomplete,219,filling,1,right,Purple_Star_Dots_3.jpg,Purple_Triangle_Grid_1.jpg,Blue_Plus_Dots_2.jpg,right,1208.1900000339374,true,low,NA,NA,NA,NA,NA,NA,NA,false
eOQ6S5h7,3m67tqbqrk18ut4e0bwuqf8vno09av,3gnczx450m0v90if82xt1p425dbapu,eOQ6S5h7,2020-0188,2020-11-20,09:56:30,10:17:32,NA,incomplete,220,color,1,left,Blue_Circle_Chess_1.jpg,Blue_Star_Dots_2.jpg,Red_Plus_Chess_4.jpg,right,1148.8400000380352,false,low,NA,NA,NA,NA,NA,NA,NA,false
eOQ6S5h7,3m67tqbqrk18ut4e0bwuqf8vno09av,3gnczx450m0v90if82xt1p425dbapu,eOQ6S5h7,2020-0188,2020-11-20,09:56:30,10:17:32,NA,incomplete,221,color,1,right,Blue_Plus_Dots_4.jpg,Green_Triangle_Dots_2.jpg,Blue_Star_Stripes_1.jpg,left,1066.7350000003353,false,low,NA,NA,NA,NA,NA,NA,NA,false
eOQ6S5h7,3m67tqbqrk18ut4e0bwuqf8vno09av,3gnczx450m0v90if82xt1p425dbapu,eOQ6S5h7,2020-0188,2020-11-20,09:56:30,10:17:32,NA,incomplete,222,color,0,right,Green_Star_Grid_1.jpg,Blue_Circle_Grid_2.jpg,Green_Plus_Chess_3.jpg,left,996.7800000449643,false,low,NA,NA,NA,NA,NA,NA,NA,false
eOQ6S5h7,3m67tqbqrk18ut4e0bwuqf8vno09av,3gnczx450m0v90if82xt1p425dbapu,eOQ6S5h7,2020-0188,2020-11-20,09:56:30,10:17:32,NA,incomplete,223,color,1,right,Red_Circle_Chess_3.jpg,Purple_Star_Chess_4.jpg,Red_Triangle_Stripes_1.jpg,left,969.4399998988956,false,low,NA,NA,NA,NA,NA,NA,NA,false
eOQ6S5h7,3m67tqbqrk18ut4e0bwuqf8vno09av,3gnczx450m0v90if82xt1p425dbapu,eOQ6S5h7,2020-0188,2020-11-20,09:56:30,10:17:32,NA,incomplete,224,color,0,left,Purple_Plus_Stripes_2.jpg,Purple_Circle_Dots_4.jpg,Red_Star_Stripes_3.jpg,right,1247.1150000346825,false,low,NA,NA,NA,NA,NA,NA,NA,false
eOQ6S5h7,3m67tqbqrk18ut4e0bwuqf8vno09av,3gnczx450m0v90if82xt1p425dbapu,eOQ6S5h7,2020-0188,2020-11-20,09:56:30,10:17:32,NA,incomplete,225,color,1,left,Red_Triangle_Dots_2.jpg,Red_Star_Stripes_4.jpg,Green_Circle_Dots_1.jpg,right,1121.6299999505281,false,low,NA,NA,NA,NA,NA,NA,NA,false
eOQ6S5h7,3m67tqbqrk18ut4e0bwuqf8vno09av,3gnczx450m0v90if82xt1p425dbapu,eOQ6S5h7,2020-0188,2020-11-20,09:56:30,10:17:32,NA,incomplete,226,color,1,right,Purple_Triangle_Grid_3.jpg,Green_Plus_Grid_2.jpg,Purple_Star_Dots_1.jpg,left,1016.8050000211224,false,low,NA,NA,NA,NA,NA,NA,NA,false
eOQ6S5h7,3m67tqbqrk18ut4e0bwuqf8vno09av,3gnczx450m0v90if82xt1p425dbapu,eOQ6S5h7,2020-0188,2020-11-20,09:56:30,10:17:32,NA,incomplete,227,color,1,right,Red_Plus_Grid_3.jpg,Blue_Circle_Grid_2.jpg,Red_Star_Stripes_4.jpg,left,1029.024999937974,false,low,NA,NA,NA,NA,NA,NA,NA,false
eOQ6S5h7,3m67tqbqrk18ut4e0bwuqf8vno09av,3gnczx450m0v90if82xt1p425dbapu,eOQ6S5h7,2020-0188,2020-11-20,09:56:30,10:17:32,NA,incomplete,228,color,1,right,Green_Circle_Stripes_3.jpg,Red_Plus_Stripes_4.jpg,Green_Triangle_Chess_1.jpg,left,783.4999999031425,false,low,NA,NA,NA,NA,NA,NA,NA,false
eOQ6S5h7,3m67tqbqrk18ut4e0bwuqf8vno09av,3gnczx450m0v90if82xt1p425dbapu,eOQ6S5h7,2020-0188,2020-11-20,09:56:30,10:17:32,NA,incomplete,229,color,1,right,Purple_Plus_Grid_4.jpg,Red_Triangle_Grid_1.jpg,Purple_Star_Chess_2.jpg,right,1406.459999969229,true,low,NA,NA,NA,NA,NA,NA,NA,false
eOQ6S5h7,3m67tqbqrk18ut4e0bwuqf8vno09av,3gnczx450m0v90if82xt1p425dbapu,eOQ6S5h7,2020-0188,2020-11-20,09:56:30,10:17:32,NA,incomplete,230,color,0,right,Red_Triangle_Chess_4.jpg,Blue_Circle_Chess_2.jpg,Red_Star_Grid_3.jpg,left,1577.3899999912828,false,low,NA,NA,NA,NA,NA,NA,NA,false
eOQ6S5h7,3m67tqbqrk18ut4e0bwuqf8vno09av,3gnczx450m0v90if82xt1p425dbapu,eOQ6S5h7,2020-0188,2020-11-20,09:56:30,10:17:32,NA,incomplete,231,color,1,left,Red_Circle_Chess_1.jpg,Red_Triangle_Grid_3.jpg,Purple_Star_Chess_2.jpg,right,1126.7650000518188,false,low,NA,NA,NA,NA,NA,NA,NA,false
eOQ6S5h7,3m67tqbqrk18ut4e0bwuqf8vno09av,3gnczx450m0v90if82xt1p425dbapu,eOQ6S5h7,2020-0188,2020-11-20,09:56:30,10:17:32,NA,incomplete,232,color,0,right,Blue_Circle_Chess_2.jpg,Green_Star_Chess_3.jpg,Blue_Triangle_Dots_1.jpg,left,766.3600000087172,false,low,NA,NA,NA,NA,NA,NA,NA,false
eOQ6S5h7,3m67tqbqrk18ut4e0bwuqf8vno09av,3gnczx450m0v90if82xt1p425dbapu,eOQ6S5h7,2020-0188,2020-11-20,09:56:30,10:17:32,NA,incomplete,233,color,1,left,Blue_Triangle_Dots_2.jpg,Blue_Plus_Chess_4.jpg,Purple_Circle_Dots_1.jpg,right,836.7299999808893,false,low,NA,NA,NA,NA,NA,NA,NA,false
eOQ6S5h7,3m67tqbqrk18ut4e0bwuqf8vno09av,3gnczx450m0v90if82xt1p425dbapu,eOQ6S5h7,2020-0188,2020-11-20,09:56:30,10:17:32,NA,incomplete,234,color,1,left,Red_Plus_Grid_4.jpg,Red_Star_Dots_1.jpg,Green_Circle_Grid_3.jpg,right,926.5649999724701,false,low,NA,NA,NA,NA,NA,NA,NA,false
eOQ6S5h7,3m67tqbqrk18ut4e0bwuqf8vno09av,3gnczx450m0v90if82xt1p425dbapu,eOQ6S5h7,2020-0188,2020-11-20,09:56:30,10:17:32,NA,incomplete,235,color,1,right,Purple_Triangle_Dots_4.jpg,Blue_Plus_Dots_3.jpg,Purple_Circle_Chess_1.jpg,left,413.68999995756894,false,low,NA,NA,NA,NA,NA,NA,NA,false
eOQ6S5h7,3m67tqbqrk18ut4e0bwuqf8vno09av,3gnczx450m0v90if82xt1p425dbapu,eOQ6S5h7,2020-0188,2020-11-20,09:56:30,10:17:32,NA,incomplete,236,color,1,left,Green_Plus_Stripes_3.jpg,Green_Circle_Chess_4.jpg,Red_Star_Stripes_1.jpg,left,642.0850000577047,true,low,NA,NA,NA,NA,NA,NA,NA,false
eOQ6S5h7,3m67tqbqrk18ut4e0bwuqf8vno09av,3gnczx450m0v90if82xt1p425dbapu,eOQ6S5h7,2020-0188,2020-11-20,09:56:30,10:17:32,NA,incomplete,237,color,1,left,Red_Plus_Stripes_1.jpg,Red_Star_Chess_4.jpg,Purple_Triangle_Stripes_2.jpg,left,796.8950000358745,true,low,NA,NA,NA,NA,NA,NA,NA,false
eOQ6S5h7,3m67tqbqrk18ut4e0bwuqf8vno09av,3gnczx450m0v90if82xt1p425dbapu,eOQ6S5h7,2020-0188,2020-11-20,09:56:30,10:17:32,NA,incomplete,238,color,0,left,Purple_Plus_Grid_1.jpg,Purple_Circle_Chess_4.jpg,Red_Triangle_Grid_3.jpg,left,753.6750000435859,true,low,NA,NA,NA,NA,NA,NA,NA,false
eOQ6S5h7,3m67tqbqrk18ut4e0bwuqf8vno09av,3gnczx450m0v90if82xt1p425dbapu,eOQ6S5h7,2020-0188,2020-11-20,09:56:30,10:17:32,NA,incomplete,239,color,1,right,Blue_Circle_Grid_4.jpg,Purple_Triangle_Grid_3.jpg,Blue_Plus_Dots_2.jpg,right,591.1799999885261,true,low,NA,NA,NA,NA,NA,NA,NA,false
eOQ6S5h7,3m67tqbqrk18ut4e0bwuqf8vno09av,3gnczx450m0v90if82xt1p425dbapu,eOQ6S5h7,2020-0188,2020-11-20,09:56:30,10:17:32,1185060.3399999673,1262270.094999927,NA,NA,NA,NA,NA,NA,NA,NA,NA,NA,NA,37,Multiracial,Male,Mixed African American ,no,yes,no,undefined
