workerId,hitId,assignmentId,subject,studyid,exp_date,exp_start,exp_end,time_start,time_end,trial,type,reward_validity,answer,image_top,image_left,image_right,response,response_time,response_acc,volatility,practice
QyMsc5oH,36818z1kw6qmfrfyj2vkz259guma30,3i0btbyza1yth1cy7nwjpal0zyby0v,QyMsc5oH,2020-0188,2020-05-08,12:29:24,12:47:32,NA,incomplete,0,color,1,left,Purple_Triangle_Chess_2.jpg,Purple_Circle_Grid_3.jpg,Red_Plus_Stripes_2.jpg,left,919.2649999749847,true,NA,true
QyMsc5oH,36818z1kw6qmfrfyj2vkz259guma30,3i0btbyza1yth1cy7nwjpal0zyby0v,QyMsc5oH,2020-0188,2020-05-08,12:29:24,12:47:32,NA,incomplete,1,color,1,right,Blue_Circle_Stripes_2.jpg,Purple_Triangle_Dots_2.jpg,Blue_Star_Chess_1.jpg,right,1335.5749999755062,true,NA,true
QyMsc5oH,36818z1kw6qmfrfyj2vkz259guma30,3i0btbyza1yth1cy7nwjpal0zyby0v,QyMsc5oH,2020-0188,2020-05-08,12:29:24,12:47:32,NA,incomplete,2,color,0,right,Green_Triangle_Dots_4.jpg,Blue_Star_Chess_4.jpg,Green_Plus_Grid_1.jpg,right,940.5100000149105,true,NA,true
QyMsc5oH,36818z1kw6qmfrfyj2vkz259guma30,3i0btbyza1yth1cy7nwjpal0zyby0v,QyMsc5oH,2020-0188,2020-05-08,12:29:24,12:47:32,NA,incomplete,3,color,1,right,Red_Circle_Chess_3.jpg,Green_Triangle_Dots_3.jpg,Red_Plus_Grid_1.jpg,right,772.4400000006426,true,NA,true
QyMsc5oH,36818z1kw6qmfrfyj2vkz259guma30,3i0btbyza1yth1cy7nwjpal0zyby0v,QyMsc5oH,2020-0188,2020-05-08,12:29:24,12:47:32,NA,incomplete,4,color,1,right,Purple_Plus_Stripes_1.jpg,Green_Circle_Dots_1.jpg,Purple_Star_Grid_3.jpg,right,806.6649999818765,true,NA,true
QyMsc5oH,36818z1kw6qmfrfyj2vkz259guma30,3i0btbyza1yth1cy7nwjpal0zyby0v,QyMsc5oH,2020-0188,2020-05-08,12:29:24,12:47:32,NA,incomplete,5,color,1,left,Purple_Triangle_Chess_1.jpg,Purple_Circle_Stripes_4.jpg,Red_Star_Dots_1.jpg,left,816.0600000119302,true,NA,true
QyMsc5oH,36818z1kw6qmfrfyj2vkz259guma30,3i0btbyza1yth1cy7nwjpal0zyby0v,QyMsc5oH,2020-0188,2020-05-08,12:29:24,12:47:32,NA,incomplete,6,color,1,left,Red_Plus_Grid_3.jpg,Red_Triangle_Chess_2.jpg,Green_Circle_Stripes_3.jpg,left,694.645000010496,true,NA,true
QyMsc5oH,36818z1kw6qmfrfyj2vkz259guma30,3i0btbyza1yth1cy7nwjpal0zyby0v,QyMsc5oH,2020-0188,2020-05-08,12:29:24,12:47:32,NA,incomplete,7,color,1,right,Blue_Star_Chess_2.jpg,Purple_Plus_Stripes_2.jpg,Blue_Triangle_Grid_4.jpg,right,724.2850000038743,true,NA,true
QyMsc5oH,36818z1kw6qmfrfyj2vkz259guma30,3i0btbyza1yth1cy7nwjpal0zyby0v,QyMsc5oH,2020-0188,2020-05-08,12:29:24,12:47:32,NA,incomplete,8,color,0,right,Purple_Star_Dots_2.jpg,Green_Triangle_Stripes_2.jpg,Purple_Circle_Grid_3.jpg,right,682.7350000094157,true,NA,true
QyMsc5oH,36818z1kw6qmfrfyj2vkz259guma30,3i0btbyza1yth1cy7nwjpal0zyby0v,QyMsc5oH,2020-0188,2020-05-08,12:29:24,12:47:32,NA,incomplete,9,color,1,right,Purple_Plus_Dots_1.jpg,Green_Circle_Stripes_1.jpg,Purple_Star_Grid_4.jpg,right,833.6600000038743,true,NA,true
QyMsc5oH,36818z1kw6qmfrfyj2vkz259guma30,3i0btbyza1yth1cy7nwjpal0zyby0v,QyMsc5oH,2020-0188,2020-05-08,12:29:24,12:47:32,NA,incomplete,10,color,1,left,Red_Plus_Grid_4.jpg,Red_Triangle_Dots_3.jpg,Blue_Star_Chess_4.jpg,left,634.2599999916274,true,NA,true
QyMsc5oH,36818z1kw6qmfrfyj2vkz259guma30,3i0btbyza1yth1cy7nwjpal0zyby0v,QyMsc5oH,2020-0188,2020-05-08,12:29:24,12:47:32,NA,incomplete,11,color,1,left,Blue_Triangle_Chess_2.jpg,Blue_Plus_Dots_3.jpg,Green_Circle_Grid_2.jpg,left,601.9350000133272,true,NA,true
QyMsc5oH,36818z1kw6qmfrfyj2vkz259guma30,3i0btbyza1yth1cy7nwjpal0zyby0v,QyMsc5oH,2020-0188,2020-05-08,12:29:24,12:47:32,NA,incomplete,12,color,1,left,Red_Plus_Chess_2.jpg,Red_Circle_Dots_1.jpg,Green_Star_Stripes_2.jpg,left,742.3850000195671,true,NA,true
QyMsc5oH,36818z1kw6qmfrfyj2vkz259guma30,3i0btbyza1yth1cy7nwjpal0zyby0v,QyMsc5oH,2020-0188,2020-05-08,12:29:24,12:47:32,NA,incomplete,13,color,0,left,Purple_Star_Stripes_3.jpg,Purple_Circle_Grid_1.jpg,Red_Plus_Chess_3.jpg,left,607.0249999756925,true,NA,true
QyMsc5oH,36818z1kw6qmfrfyj2vkz259guma30,3i0btbyza1yth1cy7nwjpal0zyby0v,QyMsc5oH,2020-0188,2020-05-08,12:29:24,12:47:32,NA,incomplete,14,color,1,right,Blue_Star_Chess_2.jpg,Purple_Triangle_Grid_2.jpg,Blue_Plus_Stripes_3.jpg,right,623.3350000111386,true,NA,true
QyMsc5oH,36818z1kw6qmfrfyj2vkz259guma30,3i0btbyza1yth1cy7nwjpal0zyby0v,QyMsc5oH,2020-0188,2020-05-08,12:29:24,12:47:32,NA,incomplete,15,color,1,right,Red_Plus_Grid_4.jpg,Blue_Circle_Dots_4.jpg,Red_Star_Chess_2.jpg,right,856.3599999761209,true,NA,true
QyMsc5oH,36818z1kw6qmfrfyj2vkz259guma30,3i0btbyza1yth1cy7nwjpal0zyby0v,QyMsc5oH,2020-0188,2020-05-08,12:29:24,12:47:32,NA,incomplete,16,color,1,left,Blue_Triangle_Grid_4.jpg,Blue_Circle_Dots_1.jpg,Red_Plus_Chess_4.jpg,left,1059.929999988526,true,NA,true
QyMsc5oH,36818z1kw6qmfrfyj2vkz259guma30,3i0btbyza1yth1cy7nwjpal0zyby0v,QyMsc5oH,2020-0188,2020-05-08,12:29:24,12:47:32,NA,incomplete,17,color,1,right,Red_Star_Grid_1.jpg,Purple_Plus_Chess_1.jpg,Red_Triangle_Dots_3.jpg,right,668.0900000210386,true,NA,true
QyMsc5oH,36818z1kw6qmfrfyj2vkz259guma30,3i0btbyza1yth1cy7nwjpal0zyby0v,QyMsc5oH,2020-0188,2020-05-08,12:29:24,12:47:32,NA,incomplete,18,color,1,left,Blue_Plus_Dots_2.jpg,Blue_Circle_Grid_3.jpg,Red_Triangle_Chess_2.jpg,left,861.3250000053085,true,NA,true
QyMsc5oH,36818z1kw6qmfrfyj2vkz259guma30,3i0btbyza1yth1cy7nwjpal0zyby0v,QyMsc5oH,2020-0188,2020-05-08,12:29:24,12:47:32,NA,incomplete,19,color,1,right,Green_Circle_Grid_3.jpg,Blue_Plus_Dots_3.jpg,Green_Triangle_Stripes_4.jpg,right,577.7399999788031,true,NA,true
QyMsc5oH,36818z1kw6qmfrfyj2vkz259guma30,3i0btbyza1yth1cy7nwjpal0zyby0v,QyMsc5oH,2020-0188,2020-05-08,12:29:24,12:47:32,NA,incomplete,20,number,1,left,Purple_Plus_Grid_1.jpg,Green_Star_Chess_1.jpg,Purple_Circle_Dots_3.jpg,right,632.2550000040792,false,NA,true
QyMsc5oH,36818z1kw6qmfrfyj2vkz259guma30,3i0btbyza1yth1cy7nwjpal0zyby0v,QyMsc5oH,2020-0188,2020-05-08,12:29:24,12:47:32,NA,incomplete,21,number,1,right,Purple_Triangle_Dots_4.jpg,Purple_Plus_Stripes_3.jpg,Green_Star_Chess_4.jpg,left,583.4099999919999,false,NA,true
QyMsc5oH,36818z1kw6qmfrfyj2vkz259guma30,3i0btbyza1yth1cy7nwjpal0zyby0v,QyMsc5oH,2020-0188,2020-05-08,12:29:24,12:47:32,NA,incomplete,22,number,1,right,Green_Plus_Grid_2.jpg,Green_Star_Stripes_3.jpg,Purple_Circle_Dots_2.jpg,right,783.1400000141002,true,NA,true
QyMsc5oH,36818z1kw6qmfrfyj2vkz259guma30,3i0btbyza1yth1cy7nwjpal0zyby0v,QyMsc5oH,2020-0188,2020-05-08,12:29:24,12:47:32,NA,incomplete,23,number,1,left,Red_Circle_Grid_3.jpg,Blue_Triangle_Stripes_3.jpg,Red_Star_Dots_1.jpg,left,1272.6299999922048,true,NA,true
QyMsc5oH,36818z1kw6qmfrfyj2vkz259guma30,3i0btbyza1yth1cy7nwjpal0zyby0v,QyMsc5oH,2020-0188,2020-05-08,12:29:24,12:47:32,NA,incomplete,24,number,1,left,Blue_Star_Grid_3.jpg,Purple_Circle_Chess_3.jpg,Blue_Plus_Stripes_2.jpg,left,813.2749999931548,true,NA,true
QyMsc5oH,36818z1kw6qmfrfyj2vkz259guma30,3i0btbyza1yth1cy7nwjpal0zyby0v,QyMsc5oH,2020-0188,2020-05-08,12:29:24,12:47:32,NA,incomplete,25,number,1,right,Purple_Star_Dots_1.jpg,Purple_Plus_Chess_2.jpg,Blue_Triangle_Stripes_1.jpg,right,913.1850000121631,true,NA,true
QyMsc5oH,36818z1kw6qmfrfyj2vkz259guma30,3i0btbyza1yth1cy7nwjpal0zyby0v,QyMsc5oH,2020-0188,2020-05-08,12:29:24,12:47:32,NA,incomplete,26,number,0,left,Red_Triangle_Chess_4.jpg,Blue_Circle_Dots_4.jpg,Red_Plus_Grid_2.jpg,left,1132.4750000203494,true,NA,true
QyMsc5oH,36818z1kw6qmfrfyj2vkz259guma30,3i0btbyza1yth1cy7nwjpal0zyby0v,QyMsc5oH,2020-0188,2020-05-08,12:29:24,12:47:32,NA,incomplete,27,number,0,right,Green_Star_Chess_3.jpg,Green_Plus_Grid_1.jpg,Red_Circle_Stripes_3.jpg,right,1120.7950000243727,true,NA,true
QyMsc5oH,36818z1kw6qmfrfyj2vkz259guma30,3i0btbyza1yth1cy7nwjpal0zyby0v,QyMsc5oH,2020-0188,2020-05-08,12:29:24,12:47:32,NA,incomplete,28,number,0,left,Green_Plus_Grid_1.jpg,Purple_Circle_Chess_1.jpg,Green_Star_Dots_2.jpg,left,1161.629999987781,true,NA,true
QyMsc5oH,36818z1kw6qmfrfyj2vkz259guma30,3i0btbyza1yth1cy7nwjpal0zyby0v,QyMsc5oH,2020-0188,2020-05-08,12:29:24,12:47:32,NA,incomplete,29,number,1,right,Blue_Triangle_Dots_2.jpg,Blue_Plus_Chess_1.jpg,Purple_Star_Stripes_2.jpg,right,956.449999997858,true,NA,true
QyMsc5oH,36818z1kw6qmfrfyj2vkz259guma30,3i0btbyza1yth1cy7nwjpal0zyby0v,QyMsc5oH,2020-0188,2020-05-08,12:29:24,12:47:32,NA,incomplete,30,number,1,right,Blue_Star_Stripes_3.jpg,Blue_Circle_Grid_1.jpg,Purple_Plus_Dots_3.jpg,right,1198.4649999940302,true,NA,true
QyMsc5oH,36818z1kw6qmfrfyj2vkz259guma30,3i0btbyza1yth1cy7nwjpal0zyby0v,QyMsc5oH,2020-0188,2020-05-08,12:29:24,12:47:32,NA,incomplete,31,number,1,right,Red_Triangle_Chess_1.jpg,Red_Circle_Grid_3.jpg,Purple_Plus_Stripes_1.jpg,right,926.9949999870732,true,NA,true
QyMsc5oH,36818z1kw6qmfrfyj2vkz259guma30,3i0btbyza1yth1cy7nwjpal0zyby0v,QyMsc5oH,2020-0188,2020-05-08,12:29:24,12:47:32,NA,incomplete,32,number,1,left,Red_Circle_Chess_3.jpg,Purple_Plus_Dots_3.jpg,Red_Star_Grid_4.jpg,left,841.7450000124518,true,NA,true
QyMsc5oH,36818z1kw6qmfrfyj2vkz259guma30,3i0btbyza1yth1cy7nwjpal0zyby0v,QyMsc5oH,2020-0188,2020-05-08,12:29:24,12:47:32,NA,incomplete,33,number,0,right,Red_Plus_Grid_3.jpg,Red_Circle_Chess_1.jpg,Purple_Star_Stripes_3.jpg,right,734.7549999831244,true,NA,true
QyMsc5oH,36818z1kw6qmfrfyj2vkz259guma30,3i0btbyza1yth1cy7nwjpal0zyby0v,QyMsc5oH,2020-0188,2020-05-08,12:29:24,12:47:32,NA,incomplete,34,number,1,right,Blue_Plus_Dots_1.jpg,Blue_Triangle_Grid_2.jpg,Red_Star_Stripes_1.jpg,right,717.4200000008568,true,NA,true
QyMsc5oH,36818z1kw6qmfrfyj2vkz259guma30,3i0btbyza1yth1cy7nwjpal0zyby0v,QyMsc5oH,2020-0188,2020-05-08,12:29:24,12:47:32,NA,incomplete,35,number,0,left,Blue_Plus_Dots_3.jpg,Purple_Triangle_Stripes_3.jpg,Blue_Circle_Chess_4.jpg,left,1250.865000009071,true,NA,true
QyMsc5oH,36818z1kw6qmfrfyj2vkz259guma30,3i0btbyza1yth1cy7nwjpal0zyby0v,QyMsc5oH,2020-0188,2020-05-08,12:29:24,12:47:32,NA,incomplete,36,number,1,right,Red_Plus_Stripes_4.jpg,Red_Star_Grid_3.jpg,Blue_Triangle_Chess_4.jpg,left,628.4600000071805,false,NA,true
QyMsc5oH,36818z1kw6qmfrfyj2vkz259guma30,3i0btbyza1yth1cy7nwjpal0zyby0v,QyMsc5oH,2020-0188,2020-05-08,12:29:24,12:47:32,NA,incomplete,37,number,1,right,Red_Plus_Chess_4.jpg,Red_Triangle_Grid_3.jpg,Green_Circle_Dots_4.jpg,right,868.560000002617,true,NA,true
QyMsc5oH,36818z1kw6qmfrfyj2vkz259guma30,3i0btbyza1yth1cy7nwjpal0zyby0v,QyMsc5oH,2020-0188,2020-05-08,12:29:24,12:47:32,NA,incomplete,38,number,1,right,Red_Plus_Dots_4.jpg,Red_Triangle_Grid_1.jpg,Green_Star_Chess_4.jpg,right,776.3400000112597,true,NA,true
QyMsc5oH,36818z1kw6qmfrfyj2vkz259guma30,3i0btbyza1yth1cy7nwjpal0zyby0v,QyMsc5oH,2020-0188,2020-05-08,12:29:24,12:47:32,NA,incomplete,39,number,1,right,Blue_Circle_Chess_3.jpg,Blue_Plus_Dots_2.jpg,Green_Triangle_Grid_3.jpg,right,771.5749999915715,true,NA,true
QyMsc5oH,36818z1kw6qmfrfyj2vkz259guma30,3i0btbyza1yth1cy7nwjpal0zyby0v,QyMsc5oH,2020-0188,2020-05-08,12:29:24,12:47:32,NA,incomplete,0,color,1,left,Red_Triangle_Grid_2.jpg,Red_Star_Stripes_4.jpg,Blue_Circle_Chess_2.jpg,left,1375.2949999761768,true,low,false
QyMsc5oH,36818z1kw6qmfrfyj2vkz259guma30,3i0btbyza1yth1cy7nwjpal0zyby0v,QyMsc5oH,2020-0188,2020-05-08,12:29:24,12:47:32,NA,incomplete,1,color,1,left,Purple_Plus_Dots_4.jpg,Purple_Triangle_Chess_1.jpg,Blue_Circle_Grid_4.jpg,left,649.4850000017323,true,low,false
QyMsc5oH,36818z1kw6qmfrfyj2vkz259guma30,3i0btbyza1yth1cy7nwjpal0zyby0v,QyMsc5oH,2020-0188,2020-05-08,12:29:24,12:47:32,NA,incomplete,2,color,1,left,Red_Circle_Dots_3.jpg,Red_Star_Grid_1.jpg,Blue_Plus_Chess_3.jpg,left,942.0999999856576,true,low,false
QyMsc5oH,36818z1kw6qmfrfyj2vkz259guma30,3i0btbyza1yth1cy7nwjpal0zyby0v,QyMsc5oH,2020-0188,2020-05-08,12:29:24,12:47:32,NA,incomplete,3,color,1,right,Blue_Triangle_Grid_2.jpg,Red_Star_Dots_2.jpg,Blue_Plus_Chess_4.jpg,left,836.6149999783374,false,low,false
QyMsc5oH,36818z1kw6qmfrfyj2vkz259guma30,3i0btbyza1yth1cy7nwjpal0zyby0v,QyMsc5oH,2020-0188,2020-05-08,12:29:24,12:47:32,NA,incomplete,4,color,1,right,Purple_Plus_Stripes_2.jpg,Blue_Star_Chess_2.jpg,Purple_Circle_Grid_1.jpg,right,978.224999998929,true,low,false
QyMsc5oH,36818z1kw6qmfrfyj2vkz259guma30,3i0btbyza1yth1cy7nwjpal0zyby0v,QyMsc5oH,2020-0188,2020-05-08,12:29:24,12:47:32,NA,incomplete,5,color,1,right,Purple_Circle_Chess_3.jpg,Blue_Triangle_Dots_3.jpg,Purple_Plus_Grid_2.jpg,right,688.6649999942165,true,low,false
QyMsc5oH,36818z1kw6qmfrfyj2vkz259guma30,3i0btbyza1yth1cy7nwjpal0zyby0v,QyMsc5oH,2020-0188,2020-05-08,12:29:24,12:47:32,NA,incomplete,6,color,1,left,Green_Star_Grid_1.jpg,Green_Circle_Stripes_2.jpg,Purple_Triangle_Dots_1.jpg,left,578.4099999873433,true,low,false
QyMsc5oH,36818z1kw6qmfrfyj2vkz259guma30,3i0btbyza1yth1cy7nwjpal0zyby0v,QyMsc5oH,2020-0188,2020-05-08,12:29:24,12:47:32,NA,incomplete,7,color,1,right,Red_Star_Chess_3.jpg,Blue_Circle_Grid_3.jpg,Red_Triangle_Dots_1.jpg,right,718.9150000049267,true,low,false
QyMsc5oH,36818z1kw6qmfrfyj2vkz259guma30,3i0btbyza1yth1cy7nwjpal0zyby0v,QyMsc5oH,2020-0188,2020-05-08,12:29:24,12:47:32,NA,incomplete,8,color,1,right,Purple_Plus_Stripes_4.jpg,Red_Circle_Dots_4.jpg,Purple_Triangle_Chess_2.jpg,right,735.1849999977276,true,low,false
QyMsc5oH,36818z1kw6qmfrfyj2vkz259guma30,3i0btbyza1yth1cy7nwjpal0zyby0v,QyMsc5oH,2020-0188,2020-05-08,12:29:24,12:47:32,NA,incomplete,9,color,1,right,Blue_Plus_Grid_1.jpg,Red_Triangle_Stripes_1.jpg,Blue_Circle_Dots_2.jpg,right,827.9150000016671,true,low,false
QyMsc5oH,36818z1kw6qmfrfyj2vkz259guma30,3i0btbyza1yth1cy7nwjpal0zyby0v,QyMsc5oH,2020-0188,2020-05-08,12:29:24,12:47:32,NA,incomplete,10,color,1,left,Blue_Triangle_Stripes_1.jpg,Blue_Circle_Chess_2.jpg,Green_Plus_Grid_1.jpg,left,521.7800000100397,true,low,false
QyMsc5oH,36818z1kw6qmfrfyj2vkz259guma30,3i0btbyza1yth1cy7nwjpal0zyby0v,QyMsc5oH,2020-0188,2020-05-08,12:29:24,12:47:32,NA,incomplete,11,color,1,right,Purple_Triangle_Dots_2.jpg,Red_Circle_Chess_2.jpg,Purple_Star_Grid_3.jpg,right,716.4400000183377,true,low,false
QyMsc5oH,36818z1kw6qmfrfyj2vkz259guma30,3i0btbyza1yth1cy7nwjpal0zyby0v,QyMsc5oH,2020-0188,2020-05-08,12:29:24,12:47:32,NA,incomplete,12,color,0,left,Red_Circle_Dots_4.jpg,Red_Triangle_Stripes_1.jpg,Green_Plus_Chess_4.jpg,left,696.9499999831896,true,low,false
QyMsc5oH,36818z1kw6qmfrfyj2vkz259guma30,3i0btbyza1yth1cy7nwjpal0zyby0v,QyMsc5oH,2020-0188,2020-05-08,12:29:24,12:47:32,NA,incomplete,13,color,1,right,Red_Star_Stripes_3.jpg,Purple_Plus_Grid_3.jpg,Red_Circle_Dots_4.jpg,right,579.6249999839347,true,low,false
QyMsc5oH,36818z1kw6qmfrfyj2vkz259guma30,3i0btbyza1yth1cy7nwjpal0zyby0v,QyMsc5oH,2020-0188,2020-05-08,12:29:24,12:47:32,NA,incomplete,14,color,1,right,Blue_Star_Chess_2.jpg,Purple_Circle_Dots_2.jpg,Blue_Triangle_Stripes_4.jpg,right,594.9300000211224,true,low,false
QyMsc5oH,36818z1kw6qmfrfyj2vkz259guma30,3i0btbyza1yth1cy7nwjpal0zyby0v,QyMsc5oH,2020-0188,2020-05-08,12:29:24,12:47:32,NA,incomplete,15,color,1,right,Green_Triangle_Stripes_1.jpg,Purple_Circle_Dots_1.jpg,Green_Plus_Chess_3.jpg,right,713.6499999905936,true,low,false
QyMsc5oH,36818z1kw6qmfrfyj2vkz259guma30,3i0btbyza1yth1cy7nwjpal0zyby0v,QyMsc5oH,2020-0188,2020-05-08,12:29:24,12:47:32,NA,incomplete,16,color,0,left,Red_Triangle_Stripes_1.jpg,Red_Star_Chess_2.jpg,Blue_Circle_Dots_1.jpg,left,529.1550000256393,true,low,false
QyMsc5oH,36818z1kw6qmfrfyj2vkz259guma30,3i0btbyza1yth1cy7nwjpal0zyby0v,QyMsc5oH,2020-0188,2020-05-08,12:29:24,12:47:32,NA,incomplete,17,color,1,left,Red_Star_Dots_2.jpg,Red_Plus_Chess_4.jpg,Purple_Triangle_Stripes_2.jpg,left,786.1249999841675,true,low,false
QyMsc5oH,36818z1kw6qmfrfyj2vkz259guma30,3i0btbyza1yth1cy7nwjpal0zyby0v,QyMsc5oH,2020-0188,2020-05-08,12:29:24,12:47:32,NA,incomplete,18,color,1,right,Red_Circle_Stripes_2.jpg,Purple_Star_Grid_2.jpg,Red_Triangle_Chess_3.jpg,right,568.3800000115298,true,low,false
QyMsc5oH,36818z1kw6qmfrfyj2vkz259guma30,3i0btbyza1yth1cy7nwjpal0zyby0v,QyMsc5oH,2020-0188,2020-05-08,12:29:24,12:47:32,NA,incomplete,19,color,1,right,Green_Plus_Dots_2.jpg,Purple_Circle_Stripes_2.jpg,Green_Star_Chess_3.jpg,right,613.1650000170339,true,low,false
QyMsc5oH,36818z1kw6qmfrfyj2vkz259guma30,3i0btbyza1yth1cy7nwjpal0zyby0v,QyMsc5oH,2020-0188,2020-05-08,12:29:24,12:47:32,NA,incomplete,20,color,0,right,Blue_Star_Stripes_1.jpg,Green_Circle_Chess_1.jpg,Blue_Plus_Dots_4.jpg,right,726.1900000157766,true,low,false
QyMsc5oH,36818z1kw6qmfrfyj2vkz259guma30,3i0btbyza1yth1cy7nwjpal0zyby0v,QyMsc5oH,2020-0188,2020-05-08,12:29:24,12:47:32,NA,incomplete,21,color,1,right,Blue_Triangle_Dots_1.jpg,Red_Star_Chess_1.jpg,Blue_Plus_Stripes_2.jpg,right,708.2850000006147,true,low,false
QyMsc5oH,36818z1kw6qmfrfyj2vkz259guma30,3i0btbyza1yth1cy7nwjpal0zyby0v,QyMsc5oH,2020-0188,2020-05-08,12:29:24,12:47:32,NA,incomplete,22,color,1,right,Green_Plus_Stripes_4.jpg,Purple_Circle_Dots_4.jpg,Green_Triangle_Grid_2.jpg,right,707.5100000074599,true,low,false
QyMsc5oH,36818z1kw6qmfrfyj2vkz259guma30,3i0btbyza1yth1cy7nwjpal0zyby0v,QyMsc5oH,2020-0188,2020-05-08,12:29:24,12:47:32,NA,incomplete,23,color,1,left,Red_Star_Stripes_2.jpg,Red_Plus_Chess_3.jpg,Green_Circle_Grid_2.jpg,left,619.4850000028964,true,low,false
QyMsc5oH,36818z1kw6qmfrfyj2vkz259guma30,3i0btbyza1yth1cy7nwjpal0zyby0v,QyMsc5oH,2020-0188,2020-05-08,12:29:24,12:47:32,NA,incomplete,24,color,1,left,Green_Star_Stripes_1.jpg,Green_Triangle_Dots_2.jpg,Purple_Circle_Chess_1.jpg,left,692.9700000036974,true,low,false
QyMsc5oH,36818z1kw6qmfrfyj2vkz259guma30,3i0btbyza1yth1cy7nwjpal0zyby0v,QyMsc5oH,2020-0188,2020-05-08,12:29:24,12:47:32,NA,incomplete,25,color,1,right,Purple_Star_Chess_2.jpg,Green_Plus_Stripes_2.jpg,Purple_Triangle_Dots_4.jpg,right,591.8400000082329,true,low,false
QyMsc5oH,36818z1kw6qmfrfyj2vkz259guma30,3i0btbyza1yth1cy7nwjpal0zyby0v,QyMsc5oH,2020-0188,2020-05-08,12:29:24,12:47:32,NA,incomplete,26,color,0,right,Purple_Star_Chess_3.jpg,Green_Triangle_Grid_3.jpg,Purple_Circle_Stripes_1.jpg,right,656.5999999875203,true,low,false
QyMsc5oH,36818z1kw6qmfrfyj2vkz259guma30,3i0btbyza1yth1cy7nwjpal0zyby0v,QyMsc5oH,2020-0188,2020-05-08,12:29:24,12:47:32,NA,incomplete,27,color,0,left,Green_Plus_Chess_4.jpg,Green_Triangle_Dots_1.jpg,Blue_Star_Grid_4.jpg,left,566.7900000116788,true,low,false
QyMsc5oH,36818z1kw6qmfrfyj2vkz259guma30,3i0btbyza1yth1cy7nwjpal0zyby0v,QyMsc5oH,2020-0188,2020-05-08,12:29:24,12:47:32,NA,incomplete,28,color,0,left,Green_Star_Grid_2.jpg,Green_Plus_Stripes_1.jpg,Blue_Triangle_Chess_2.jpg,right,692.315000022063,false,low,false
QyMsc5oH,36818z1kw6qmfrfyj2vkz259guma30,3i0btbyza1yth1cy7nwjpal0zyby0v,QyMsc5oH,2020-0188,2020-05-08,12:29:24,12:47:32,NA,incomplete,29,color,1,left,Green_Plus_Dots_1.jpg,Green_Circle_Grid_3.jpg,Purple_Star_Chess_1.jpg,right,1118.77000000095,false,low,false
QyMsc5oH,36818z1kw6qmfrfyj2vkz259guma30,3i0btbyza1yth1cy7nwjpal0zyby0v,QyMsc5oH,2020-0188,2020-05-08,12:29:24,12:47:32,NA,incomplete,30,number,1,right,Green_Circle_Stripes_1.jpg,Green_Star_Chess_2.jpg,Purple_Triangle_Dots_1.jpg,right,799.4000000180677,true,low,false
QyMsc5oH,36818z1kw6qmfrfyj2vkz259guma30,3i0btbyza1yth1cy7nwjpal0zyby0v,QyMsc5oH,2020-0188,2020-05-08,12:29:24,12:47:32,NA,incomplete,31,number,0,left,Purple_Star_Stripes_3.jpg,Red_Circle_Dots_3.jpg,Purple_Triangle_Chess_4.jpg,left,1001.8400000117254,true,low,false
QyMsc5oH,36818z1kw6qmfrfyj2vkz259guma30,3i0btbyza1yth1cy7nwjpal0zyby0v,QyMsc5oH,2020-0188,2020-05-08,12:29:24,12:47:32,NA,incomplete,32,number,1,right,Green_Circle_Stripes_1.jpg,Green_Plus_Dots_4.jpg,Purple_Triangle_Chess_1.jpg,left,535.2899999998044,false,low,false
QyMsc5oH,36818z1kw6qmfrfyj2vkz259guma30,3i0btbyza1yth1cy7nwjpal0zyby0v,QyMsc5oH,2020-0188,2020-05-08,12:29:24,12:47:32,NA,incomplete,33,number,1,right,Blue_Star_Stripes_3.jpg,Blue_Circle_Chess_4.jpg,Purple_Triangle_Dots_3.jpg,right,1036.6550000035204,true,low,false
QyMsc5oH,36818z1kw6qmfrfyj2vkz259guma30,3i0btbyza1yth1cy7nwjpal0zyby0v,QyMsc5oH,2020-0188,2020-05-08,12:29:24,12:47:32,NA,incomplete,34,number,1,left,Green_Circle_Stripes_3.jpg,Red_Plus_Chess_3.jpg,Green_Triangle_Grid_2.jpg,left,814.5400000212248,true,low,false
QyMsc5oH,36818z1kw6qmfrfyj2vkz259guma30,3i0btbyza1yth1cy7nwjpal0zyby0v,QyMsc5oH,2020-0188,2020-05-08,12:29:24,12:47:32,NA,incomplete,35,number,1,right,Blue_Triangle_Stripes_4.jpg,Blue_Circle_Chess_3.jpg,Red_Plus_Grid_4.jpg,right,783.2200000120793,true,low,false
QyMsc5oH,36818z1kw6qmfrfyj2vkz259guma30,3i0btbyza1yth1cy7nwjpal0zyby0v,QyMsc5oH,2020-0188,2020-05-08,12:29:24,12:47:32,NA,incomplete,36,number,1,right,Green_Triangle_Stripes_1.jpg,Green_Star_Chess_3.jpg,Purple_Circle_Dots_1.jpg,right,724.7349999961443,true,low,false
QyMsc5oH,36818z1kw6qmfrfyj2vkz259guma30,3i0btbyza1yth1cy7nwjpal0zyby0v,QyMsc5oH,2020-0188,2020-05-08,12:29:24,12:47:32,NA,incomplete,37,number,1,right,Red_Star_Stripes_4.jpg,Red_Plus_Dots_3.jpg,Blue_Triangle_Grid_4.jpg,right,927.880000002915,true,low,false
QyMsc5oH,36818z1kw6qmfrfyj2vkz259guma30,3i0btbyza1yth1cy7nwjpal0zyby0v,QyMsc5oH,2020-0188,2020-05-08,12:29:24,12:47:32,NA,incomplete,38,number,1,left,Purple_Circle_Dots_2.jpg,Green_Triangle_Stripes_2.jpg,Purple_Plus_Grid_3.jpg,left,802.7749999891967,true,low,false
QyMsc5oH,36818z1kw6qmfrfyj2vkz259guma30,3i0btbyza1yth1cy7nwjpal0zyby0v,QyMsc5oH,2020-0188,2020-05-08,12:29:24,12:47:32,NA,incomplete,39,number,0,left,Blue_Triangle_Grid_3.jpg,Purple_Circle_Dots_3.jpg,Blue_Star_Chess_4.jpg,left,759.6100000082515,true,low,false
QyMsc5oH,36818z1kw6qmfrfyj2vkz259guma30,3i0btbyza1yth1cy7nwjpal0zyby0v,QyMsc5oH,2020-0188,2020-05-08,12:29:24,12:47:32,NA,incomplete,40,number,1,right,Red_Circle_Chess_1.jpg,Red_Plus_Grid_3.jpg,Green_Triangle_Stripes_1.jpg,right,878.2050000154413,true,low,false
QyMsc5oH,36818z1kw6qmfrfyj2vkz259guma30,3i0btbyza1yth1cy7nwjpal0zyby0v,QyMsc5oH,2020-0188,2020-05-08,12:29:24,12:47:32,NA,incomplete,41,number,1,right,Purple_Star_Chess_3.jpg,Purple_Triangle_Grid_1.jpg,Red_Circle_Dots_3.jpg,right,761.8650000076741,true,low,false
QyMsc5oH,36818z1kw6qmfrfyj2vkz259guma30,3i0btbyza1yth1cy7nwjpal0zyby0v,QyMsc5oH,2020-0188,2020-05-08,12:29:24,12:47:32,NA,incomplete,42,number,1,left,Green_Star_Grid_1.jpg,Purple_Triangle_Dots_1.jpg,Green_Plus_Stripes_2.jpg,left,652.9600000067148,true,low,false
QyMsc5oH,36818z1kw6qmfrfyj2vkz259guma30,3i0btbyza1yth1cy7nwjpal0zyby0v,QyMsc5oH,2020-0188,2020-05-08,12:29:24,12:47:32,NA,incomplete,43,number,1,left,Green_Triangle_Dots_4.jpg,Blue_Star_Stripes_4.jpg,Green_Circle_Chess_2.jpg,left,686.6600000066683,true,low,false
QyMsc5oH,36818z1kw6qmfrfyj2vkz259guma30,3i0btbyza1yth1cy7nwjpal0zyby0v,QyMsc5oH,2020-0188,2020-05-08,12:29:24,12:47:32,NA,incomplete,44,number,0,right,Green_Triangle_Chess_3.jpg,Green_Star_Grid_2.jpg,Blue_Circle_Dots_3.jpg,right,787.7450000087265,true,low,false
QyMsc5oH,36818z1kw6qmfrfyj2vkz259guma30,3i0btbyza1yth1cy7nwjpal0zyby0v,QyMsc5oH,2020-0188,2020-05-08,12:29:24,12:47:32,NA,incomplete,45,number,1,right,Purple_Star_Grid_3.jpg,Purple_Plus_Chess_1.jpg,Green_Triangle_Dots_3.jpg,right,725.9100000082981,true,low,false
QyMsc5oH,36818z1kw6qmfrfyj2vkz259guma30,3i0btbyza1yth1cy7nwjpal0zyby0v,QyMsc5oH,2020-0188,2020-05-08,12:29:24,12:47:32,NA,incomplete,46,number,0,right,Blue_Plus_Grid_4.jpg,Blue_Circle_Dots_3.jpg,Purple_Star_Stripes_4.jpg,right,816.1400000099093,true,low,false
QyMsc5oH,36818z1kw6qmfrfyj2vkz259guma30,3i0btbyza1yth1cy7nwjpal0zyby0v,QyMsc5oH,2020-0188,2020-05-08,12:29:24,12:47:32,NA,incomplete,47,number,0,left,Green_Circle_Stripes_4.jpg,Blue_Star_Chess_4.jpg,Green_Triangle_Dots_1.jpg,left,677.6600000157487,true,low,false
QyMsc5oH,36818z1kw6qmfrfyj2vkz259guma30,3i0btbyza1yth1cy7nwjpal0zyby0v,QyMsc5oH,2020-0188,2020-05-08,12:29:24,12:47:32,NA,incomplete,48,number,1,right,Green_Plus_Grid_4.jpg,Green_Star_Chess_2.jpg,Red_Triangle_Dots_4.jpg,left,535.0850000104401,false,low,false
QyMsc5oH,36818z1kw6qmfrfyj2vkz259guma30,3i0btbyza1yth1cy7nwjpal0zyby0v,QyMsc5oH,2020-0188,2020-05-08,12:29:24,12:47:32,NA,incomplete,49,number,1,left,Green_Triangle_Stripes_1.jpg,Blue_Circle_Dots_1.jpg,Green_Plus_Chess_3.jpg,left,1256.0799999919254,true,low,false
QyMsc5oH,36818z1kw6qmfrfyj2vkz259guma30,3i0btbyza1yth1cy7nwjpal0zyby0v,QyMsc5oH,2020-0188,2020-05-08,12:29:24,12:47:32,NA,incomplete,50,number,1,left,Red_Star_Dots_2.jpg,Green_Plus_Stripes_2.jpg,Red_Triangle_Chess_1.jpg,left,896.6450000007171,true,low,false
QyMsc5oH,36818z1kw6qmfrfyj2vkz259guma30,3i0btbyza1yth1cy7nwjpal0zyby0v,QyMsc5oH,2020-0188,2020-05-08,12:29:24,12:47:32,NA,incomplete,51,number,1,left,Blue_Star_Stripes_4.jpg,Purple_Circle_Dots_4.jpg,Blue_Triangle_Chess_2.jpg,left,819.2249999847263,true,low,false
QyMsc5oH,36818z1kw6qmfrfyj2vkz259guma30,3i0btbyza1yth1cy7nwjpal0zyby0v,QyMsc5oH,2020-0188,2020-05-08,12:29:24,12:47:32,NA,incomplete,52,number,1,right,Blue_Triangle_Chess_4.jpg,Blue_Circle_Grid_2.jpg,Red_Plus_Stripes_4.jpg,right,1068.8199999858625,true,low,false
QyMsc5oH,36818z1kw6qmfrfyj2vkz259guma30,3i0btbyza1yth1cy7nwjpal0zyby0v,QyMsc5oH,2020-0188,2020-05-08,12:29:24,12:47:32,NA,incomplete,53,number,0,right,Purple_Plus_Stripes_4.jpg,Purple_Star_Chess_1.jpg,Green_Triangle_Dots_4.jpg,right,700.8599999826401,true,low,false
QyMsc5oH,36818z1kw6qmfrfyj2vkz259guma30,3i0btbyza1yth1cy7nwjpal0zyby0v,QyMsc5oH,2020-0188,2020-05-08,12:29:24,12:47:32,NA,incomplete,54,number,1,left,Green_Star_Chess_3.jpg,Purple_Plus_Grid_3.jpg,Green_Circle_Dots_2.jpg,left,686.6949999821372,true,low,false
QyMsc5oH,36818z1kw6qmfrfyj2vkz259guma30,3i0btbyza1yth1cy7nwjpal0zyby0v,QyMsc5oH,2020-0188,2020-05-08,12:29:24,12:47:32,NA,incomplete,55,number,1,left,Purple_Circle_Dots_4.jpg,Blue_Star_Stripes_4.jpg,Purple_Plus_Chess_2.jpg,left,748.2700000109617,true,low,false
QyMsc5oH,36818z1kw6qmfrfyj2vkz259guma30,3i0btbyza1yth1cy7nwjpal0zyby0v,QyMsc5oH,2020-0188,2020-05-08,12:29:24,12:47:32,NA,incomplete,56,number,1,right,Purple_Triangle_Dots_4.jpg,Purple_Circle_Grid_2.jpg,Blue_Star_Chess_4.jpg,right,832.1399999840651,true,low,false
QyMsc5oH,36818z1kw6qmfrfyj2vkz259guma30,3i0btbyza1yth1cy7nwjpal0zyby0v,QyMsc5oH,2020-0188,2020-05-08,12:29:24,12:47:32,NA,incomplete,57,number,0,right,Green_Circle_Stripes_2.jpg,Green_Triangle_Dots_4.jpg,Purple_Plus_Grid_2.jpg,right,798.7599999760278,true,low,false
QyMsc5oH,36818z1kw6qmfrfyj2vkz259guma30,3i0btbyza1yth1cy7nwjpal0zyby0v,QyMsc5oH,2020-0188,2020-05-08,12:29:24,12:47:32,NA,incomplete,58,number,1,left,Red_Star_Chess_2.jpg,Blue_Circle_Grid_2.jpg,Red_Triangle_Stripes_1.jpg,left,689.2900000093505,true,low,false
QyMsc5oH,36818z1kw6qmfrfyj2vkz259guma30,3i0btbyza1yth1cy7nwjpal0zyby0v,QyMsc5oH,2020-0188,2020-05-08,12:29:24,12:47:32,NA,incomplete,59,number,1,right,Purple_Triangle_Dots_3.jpg,Purple_Plus_Stripes_1.jpg,Green_Circle_Chess_3.jpg,right,607.2850000055041,true,low,false
QyMsc5oH,36818z1kw6qmfrfyj2vkz259guma30,3i0btbyza1yth1cy7nwjpal0zyby0v,QyMsc5oH,2020-0188,2020-05-08,12:29:24,12:47:32,NA,incomplete,60,color,1,right,Red_Plus_Stripes_3.jpg,Green_Circle_Chess_3.jpg,Red_Triangle_Dots_1.jpg,left,704.8199999844655,false,low,false
QyMsc5oH,36818z1kw6qmfrfyj2vkz259guma30,3i0btbyza1yth1cy7nwjpal0zyby0v,QyMsc5oH,2020-0188,2020-05-08,12:29:24,12:47:32,NA,incomplete,61,color,1,left,Red_Triangle_Stripes_4.jpg,Red_Star_Dots_1.jpg,Blue_Circle_Grid_4.jpg,left,668.5649999999441,true,low,false
QyMsc5oH,36818z1kw6qmfrfyj2vkz259guma30,3i0btbyza1yth1cy7nwjpal0zyby0v,QyMsc5oH,2020-0188,2020-05-08,12:29:24,12:47:32,NA,incomplete,62,color,0,left,Purple_Triangle_Dots_2.jpg,Purple_Star_Chess_4.jpg,Green_Plus_Grid_2.jpg,left,660.5250000138767,true,low,false
QyMsc5oH,36818z1kw6qmfrfyj2vkz259guma30,3i0btbyza1yth1cy7nwjpal0zyby0v,QyMsc5oH,2020-0188,2020-05-08,12:29:24,12:47:32,NA,incomplete,63,color,1,right,Red_Star_Chess_2.jpg,Green_Plus_Dots_2.jpg,Red_Circle_Stripes_4.jpg,left,791.0750000155531,false,low,false
QyMsc5oH,36818z1kw6qmfrfyj2vkz259guma30,3i0btbyza1yth1cy7nwjpal0zyby0v,QyMsc5oH,2020-0188,2020-05-08,12:29:24,12:47:32,NA,incomplete,64,color,1,left,Green_Circle_Chess_3.jpg,Green_Star_Dots_1.jpg,Red_Plus_Grid_3.jpg,right,1359.6449999895412,false,low,false
QyMsc5oH,36818z1kw6qmfrfyj2vkz259guma30,3i0btbyza1yth1cy7nwjpal0zyby0v,QyMsc5oH,2020-0188,2020-05-08,12:29:24,12:47:32,NA,incomplete,65,color,1,right,Purple_Star_Grid_4.jpg,Red_Triangle_Chess_4.jpg,Purple_Plus_Stripes_3.jpg,right,722.6150000060443,true,low,false
QyMsc5oH,36818z1kw6qmfrfyj2vkz259guma30,3i0btbyza1yth1cy7nwjpal0zyby0v,QyMsc5oH,2020-0188,2020-05-08,12:29:24,12:47:32,NA,incomplete,66,color,1,right,Red_Plus_Stripes_1.jpg,Blue_Triangle_Dots_1.jpg,Red_Star_Grid_3.jpg,right,681.9049999758136,true,low,false
QyMsc5oH,36818z1kw6qmfrfyj2vkz259guma30,3i0btbyza1yth1cy7nwjpal0zyby0v,QyMsc5oH,2020-0188,2020-05-08,12:29:24,12:47:32,NA,incomplete,67,color,0,right,Green_Triangle_Stripes_2.jpg,Purple_Star_Dots_2.jpg,Green_Plus_Chess_3.jpg,right,698.789999994915,true,low,false
QyMsc5oH,36818z1kw6qmfrfyj2vkz259guma30,3i0btbyza1yth1cy7nwjpal0zyby0v,QyMsc5oH,2020-0188,2020-05-08,12:29:24,12:47:32,NA,incomplete,68,color,1,left,Green_Circle_Stripes_3.jpg,Green_Plus_Chess_4.jpg,Purple_Triangle_Grid_3.jpg,left,805.1249999844003,true,low,false
QyMsc5oH,36818z1kw6qmfrfyj2vkz259guma30,3i0btbyza1yth1cy7nwjpal0zyby0v,QyMsc5oH,2020-0188,2020-05-08,12:29:24,12:47:32,NA,incomplete,69,color,0,right,Blue_Plus_Stripes_1.jpg,Green_Star_Grid_1.jpg,Blue_Circle_Dots_3.jpg,right,694.3500000052154,true,low,false
QyMsc5oH,36818z1kw6qmfrfyj2vkz259guma30,3i0btbyza1yth1cy7nwjpal0zyby0v,QyMsc5oH,2020-0188,2020-05-08,12:29:24,12:47:32,NA,incomplete,70,color,1,left,Blue_Circle_Stripes_4.jpg,Blue_Star_Dots_3.jpg,Purple_Triangle_Grid_4.jpg,right,774.425000010524,false,low,false
QyMsc5oH,36818z1kw6qmfrfyj2vkz259guma30,3i0btbyza1yth1cy7nwjpal0zyby0v,QyMsc5oH,2020-0188,2020-05-08,12:29:24,12:47:32,NA,incomplete,71,color,1,right,Green_Circle_Grid_2.jpg,Blue_Plus_Chess_2.jpg,Green_Star_Dots_1.jpg,right,1008.3950000116602,true,low,false
QyMsc5oH,36818z1kw6qmfrfyj2vkz259guma30,3i0btbyza1yth1cy7nwjpal0zyby0v,QyMsc5oH,2020-0188,2020-05-08,12:29:24,12:47:32,NA,incomplete,72,color,0,right,Blue_Circle_Chess_4.jpg,Purple_Star_Grid_4.jpg,Blue_Plus_Stripes_1.jpg,right,631.5099999774247,true,low,false
QyMsc5oH,36818z1kw6qmfrfyj2vkz259guma30,3i0btbyza1yth1cy7nwjpal0zyby0v,QyMsc5oH,2020-0188,2020-05-08,12:29:24,12:47:32,NA,incomplete,73,color,1,right,Blue_Circle_Chess_2.jpg,Red_Plus_Stripes_2.jpg,Blue_Triangle_Dots_3.jpg,right,681.8550000025425,true,low,false
QyMsc5oH,36818z1kw6qmfrfyj2vkz259guma30,3i0btbyza1yth1cy7nwjpal0zyby0v,QyMsc5oH,2020-0188,2020-05-08,12:29:24,12:47:32,NA,incomplete,74,color,1,left,Green_Star_Stripes_4.jpg,Green_Circle_Dots_2.jpg,Red_Triangle_Grid_4.jpg,left,616.6549999907147,true,low,false
QyMsc5oH,36818z1kw6qmfrfyj2vkz259guma30,3i0btbyza1yth1cy7nwjpal0zyby0v,QyMsc5oH,2020-0188,2020-05-08,12:29:24,12:47:32,NA,incomplete,75,color,1,left,Green_Circle_Stripes_3.jpg,Green_Plus_Grid_1.jpg,Purple_Star_Dots_3.jpg,left,552.7799999981653,true,low,false
QyMsc5oH,36818z1kw6qmfrfyj2vkz259guma30,3i0btbyza1yth1cy7nwjpal0zyby0v,QyMsc5oH,2020-0188,2020-05-08,12:29:24,12:47:32,NA,incomplete,76,color,1,left,Green_Plus_Grid_3.jpg,Green_Triangle_Chess_4.jpg,Purple_Circle_Dots_3.jpg,left,476.84500002651475,true,low,false
QyMsc5oH,36818z1kw6qmfrfyj2vkz259guma30,3i0btbyza1yth1cy7nwjpal0zyby0v,QyMsc5oH,2020-0188,2020-05-08,12:29:24,12:47:32,NA,incomplete,77,color,0,right,Purple_Plus_Grid_1.jpg,Green_Star_Dots_1.jpg,Purple_Triangle_Stripes_4.jpg,right,487.36500000813976,true,low,false
QyMsc5oH,36818z1kw6qmfrfyj2vkz259guma30,3i0btbyza1yth1cy7nwjpal0zyby0v,QyMsc5oH,2020-0188,2020-05-08,12:29:24,12:47:32,NA,incomplete,78,color,1,left,Green_Star_Stripes_1.jpg,Green_Plus_Chess_2.jpg,Purple_Circle_Grid_1.jpg,left,544.1399999835994,true,low,false
QyMsc5oH,36818z1kw6qmfrfyj2vkz259guma30,3i0btbyza1yth1cy7nwjpal0zyby0v,QyMsc5oH,2020-0188,2020-05-08,12:29:24,12:47:32,NA,incomplete,79,color,1,right,Green_Triangle_Grid_1.jpg,Blue_Circle_Dots_1.jpg,Green_Star_Stripes_2.jpg,right,515.6800000113435,true,low,false
QyMsc5oH,36818z1kw6qmfrfyj2vkz259guma30,3i0btbyza1yth1cy7nwjpal0zyby0v,QyMsc5oH,2020-0188,2020-05-08,12:29:24,12:47:32,NA,incomplete,80,color,1,left,Red_Circle_Grid_3.jpg,Red_Star_Dots_4.jpg,Blue_Plus_Stripes_3.jpg,left,617.6399999822024,true,low,false
QyMsc5oH,36818z1kw6qmfrfyj2vkz259guma30,3i0btbyza1yth1cy7nwjpal0zyby0v,QyMsc5oH,2020-0188,2020-05-08,12:29:24,12:47:32,NA,incomplete,81,color,1,right,Purple_Plus_Stripes_1.jpg,Red_Triangle_Grid_1.jpg,Purple_Circle_Chess_2.jpg,right,525.0300000188872,true,low,false
QyMsc5oH,36818z1kw6qmfrfyj2vkz259guma30,3i0btbyza1yth1cy7nwjpal0zyby0v,QyMsc5oH,2020-0188,2020-05-08,12:29:24,12:47:32,NA,incomplete,82,color,1,right,Green_Circle_Dots_1.jpg,Red_Plus_Chess_1.jpg,Green_Star_Grid_4.jpg,right,474.84999999869615,true,low,false
QyMsc5oH,36818z1kw6qmfrfyj2vkz259guma30,3i0btbyza1yth1cy7nwjpal0zyby0v,QyMsc5oH,2020-0188,2020-05-08,12:29:24,12:47:32,NA,incomplete,83,color,1,right,Blue_Triangle_Dots_4.jpg,Purple_Plus_Grid_4.jpg,Blue_Star_Chess_3.jpg,right,588.8649999978952,true,low,false
QyMsc5oH,36818z1kw6qmfrfyj2vkz259guma30,3i0btbyza1yth1cy7nwjpal0zyby0v,QyMsc5oH,2020-0188,2020-05-08,12:29:24,12:47:32,NA,incomplete,84,color,0,right,Red_Triangle_Chess_3.jpg,Green_Plus_Dots_3.jpg,Red_Star_Stripes_1.jpg,right,557.2149999788962,true,low,false
QyMsc5oH,36818z1kw6qmfrfyj2vkz259guma30,3i0btbyza1yth1cy7nwjpal0zyby0v,QyMsc5oH,2020-0188,2020-05-08,12:29:24,12:47:32,NA,incomplete,85,color,1,right,Green_Plus_Dots_4.jpg,Red_Triangle_Grid_4.jpg,Green_Star_Stripes_1.jpg,right,654.0499999828171,true,low,false
QyMsc5oH,36818z1kw6qmfrfyj2vkz259guma30,3i0btbyza1yth1cy7nwjpal0zyby0v,QyMsc5oH,2020-0188,2020-05-08,12:29:24,12:47:32,NA,incomplete,86,color,1,right,Green_Plus_Dots_3.jpg,Purple_Star_Stripes_3.jpg,Green_Triangle_Grid_4.jpg,right,496.5399999928195,true,low,false
QyMsc5oH,36818z1kw6qmfrfyj2vkz259guma30,3i0btbyza1yth1cy7nwjpal0zyby0v,QyMsc5oH,2020-0188,2020-05-08,12:29:24,12:47:32,NA,incomplete,87,color,1,right,Purple_Circle_Grid_1.jpg,Green_Star_Dots_1.jpg,Purple_Plus_Chess_4.jpg,right,677.1899999876041,true,low,false
QyMsc5oH,36818z1kw6qmfrfyj2vkz259guma30,3i0btbyza1yth1cy7nwjpal0zyby0v,QyMsc5oH,2020-0188,2020-05-08,12:29:24,12:47:32,NA,incomplete,88,color,1,left,Blue_Plus_Chess_3.jpg,Blue_Star_Stripes_1.jpg,Purple_Triangle_Grid_3.jpg,left,557.7650000050198,true,low,false
QyMsc5oH,36818z1kw6qmfrfyj2vkz259guma30,3i0btbyza1yth1cy7nwjpal0zyby0v,QyMsc5oH,2020-0188,2020-05-08,12:29:24,12:47:32,NA,incomplete,89,color,1,left,Green_Star_Stripes_2.jpg,Green_Triangle_Chess_1.jpg,Blue_Plus_Dots_2.jpg,left,547.3699999856763,true,low,false
QyMsc5oH,36818z1kw6qmfrfyj2vkz259guma30,3i0btbyza1yth1cy7nwjpal0zyby0v,QyMsc5oH,2020-0188,2020-05-08,12:29:24,12:47:32,NA,incomplete,90,number,0,left,Purple_Triangle_Chess_1.jpg,Green_Circle_Grid_1.jpg,Purple_Star_Dots_2.jpg,right,802.4350000196137,false,low,false
QyMsc5oH,36818z1kw6qmfrfyj2vkz259guma30,3i0btbyza1yth1cy7nwjpal0zyby0v,QyMsc5oH,2020-0188,2020-05-08,12:29:24,12:47:32,NA,incomplete,91,number,1,right,Red_Circle_Chess_3.jpg,Red_Plus_Grid_1.jpg,Green_Star_Dots_3.jpg,left,534.5300000044517,false,low,false
QyMsc5oH,36818z1kw6qmfrfyj2vkz259guma30,3i0btbyza1yth1cy7nwjpal0zyby0v,QyMsc5oH,2020-0188,2020-05-08,12:29:24,12:47:32,NA,incomplete,92,number,1,right,Blue_Circle_Dots_1.jpg,Blue_Triangle_Chess_4.jpg,Green_Star_Grid_1.jpg,left,503.19499999750406,false,low,false
QyMsc5oH,36818z1kw6qmfrfyj2vkz259guma30,3i0btbyza1yth1cy7nwjpal0zyby0v,QyMsc5oH,2020-0188,2020-05-08,12:29:24,12:47:32,NA,incomplete,93,number,1,left,Purple_Triangle_Grid_3.jpg,Red_Plus_Dots_3.jpg,Purple_Star_Stripes_2.jpg,left,1302.8449999983422,true,low,false
QyMsc5oH,36818z1kw6qmfrfyj2vkz259guma30,3i0btbyza1yth1cy7nwjpal0zyby0v,QyMsc5oH,2020-0188,2020-05-08,12:29:24,12:47:32,NA,incomplete,94,number,1,right,Red_Triangle_Stripes_3.jpg,Red_Star_Grid_1.jpg,Green_Circle_Dots_3.jpg,right,833.3400000119582,true,low,false
QyMsc5oH,36818z1kw6qmfrfyj2vkz259guma30,3i0btbyza1yth1cy7nwjpal0zyby0v,QyMsc5oH,2020-0188,2020-05-08,12:29:24,12:47:32,NA,incomplete,95,number,0,right,Red_Plus_Chess_4.jpg,Red_Triangle_Dots_2.jpg,Blue_Circle_Stripes_4.jpg,right,1424.8550000193063,true,low,false
QyMsc5oH,36818z1kw6qmfrfyj2vkz259guma30,3i0btbyza1yth1cy7nwjpal0zyby0v,QyMsc5oH,2020-0188,2020-05-08,12:29:24,12:47:32,NA,incomplete,96,number,1,right,Green_Star_Stripes_1.jpg,Green_Circle_Chess_3.jpg,Blue_Triangle_Dots_1.jpg,right,1303.8749999832362,true,low,false
QyMsc5oH,36818z1kw6qmfrfyj2vkz259guma30,3i0btbyza1yth1cy7nwjpal0zyby0v,QyMsc5oH,2020-0188,2020-05-08,12:29:24,12:47:32,NA,incomplete,97,number,1,right,Red_Star_Stripes_2.jpg,Red_Plus_Chess_3.jpg,Purple_Triangle_Dots_2.jpg,right,940.5099999858066,true,low,false
QyMsc5oH,36818z1kw6qmfrfyj2vkz259guma30,3i0btbyza1yth1cy7nwjpal0zyby0v,QyMsc5oH,2020-0188,2020-05-08,12:29:24,12:47:32,NA,incomplete,98,number,1,left,Blue_Plus_Dots_2.jpg,Green_Triangle_Stripes_2.jpg,Blue_Star_Grid_3.jpg,left,909.9649999989197,true,low,false
QyMsc5oH,36818z1kw6qmfrfyj2vkz259guma30,3i0btbyza1yth1cy7nwjpal0zyby0v,QyMsc5oH,2020-0188,2020-05-08,12:29:24,12:47:32,NA,incomplete,99,number,0,right,Purple_Circle_Dots_4.jpg,Purple_Plus_Stripes_1.jpg,Green_Star_Chess_4.jpg,right,849.7300000162795,true,low,false
QyMsc5oH,36818z1kw6qmfrfyj2vkz259guma30,3i0btbyza1yth1cy7nwjpal0zyby0v,QyMsc5oH,2020-0188,2020-05-08,12:29:24,12:47:32,NA,incomplete,100,number,1,right,Purple_Triangle_Dots_4.jpg,Purple_Star_Chess_1.jpg,Green_Plus_Grid_4.jpg,right,767.8399999858811,true,low,false
QyMsc5oH,36818z1kw6qmfrfyj2vkz259guma30,3i0btbyza1yth1cy7nwjpal0zyby0v,QyMsc5oH,2020-0188,2020-05-08,12:29:24,12:47:32,NA,incomplete,101,number,1,right,Purple_Star_Chess_3.jpg,Purple_Plus_Grid_4.jpg,Green_Circle_Dots_3.jpg,right,1238.260000012815,true,low,false
QyMsc5oH,36818z1kw6qmfrfyj2vkz259guma30,3i0btbyza1yth1cy7nwjpal0zyby0v,QyMsc5oH,2020-0188,2020-05-08,12:29:24,12:47:32,NA,incomplete,102,number,1,left,Blue_Star_Chess_4.jpg,Green_Circle_Dots_4.jpg,Blue_Triangle_Grid_3.jpg,none,0,false,low,false
QyMsc5oH,36818z1kw6qmfrfyj2vkz259guma30,3i0btbyza1yth1cy7nwjpal0zyby0v,QyMsc5oH,2020-0188,2020-05-08,12:29:24,12:47:32,NA,incomplete,103,number,0,left,Red_Star_Dots_1.jpg,Blue_Triangle_Grid_1.jpg,Red_Plus_Chess_2.jpg,left,723.7749999912921,true,low,false
QyMsc5oH,36818z1kw6qmfrfyj2vkz259guma30,3i0btbyza1yth1cy7nwjpal0zyby0v,QyMsc5oH,2020-0188,2020-05-08,12:29:24,12:47:32,NA,incomplete,104,number,1,right,Green_Plus_Dots_3.jpg,Green_Circle_Chess_2.jpg,Purple_Star_Stripes_3.jpg,left,645.2799999970011,false,low,false
QyMsc5oH,36818z1kw6qmfrfyj2vkz259guma30,3i0btbyza1yth1cy7nwjpal0zyby0v,QyMsc5oH,2020-0188,2020-05-08,12:29:24,12:47:32,NA,incomplete,105,number,1,right,Purple_Plus_Dots_2.jpg,Purple_Triangle_Stripes_1.jpg,Red_Star_Grid_2.jpg,right,857.0649999892339,true,low,false
QyMsc5oH,36818z1kw6qmfrfyj2vkz259guma30,3i0btbyza1yth1cy7nwjpal0zyby0v,QyMsc5oH,2020-0188,2020-05-08,12:29:24,12:47:32,NA,incomplete,106,number,1,left,Purple_Star_Grid_3.jpg,Red_Circle_Chess_3.jpg,Purple_Plus_Dots_4.jpg,left,707.0649999950547,true,low,false
QyMsc5oH,36818z1kw6qmfrfyj2vkz259guma30,3i0btbyza1yth1cy7nwjpal0zyby0v,QyMsc5oH,2020-0188,2020-05-08,12:29:24,12:47:32,NA,incomplete,107,number,1,right,Red_Triangle_Dots_4.jpg,Red_Star_Chess_1.jpg,Green_Circle_Stripes_4.jpg,right,779.3900000106078,true,low,false
QyMsc5oH,36818z1kw6qmfrfyj2vkz259guma30,3i0btbyza1yth1cy7nwjpal0zyby0v,QyMsc5oH,2020-0188,2020-05-08,12:29:24,12:47:32,NA,incomplete,108,number,1,right,Purple_Star_Dots_3.jpg,Purple_Plus_Stripes_1.jpg,Blue_Triangle_Grid_3.jpg,right,837.5550000055227,true,low,false
QyMsc5oH,36818z1kw6qmfrfyj2vkz259guma30,3i0btbyza1yth1cy7nwjpal0zyby0v,QyMsc5oH,2020-0188,2020-05-08,12:29:24,12:47:32,NA,incomplete,109,number,1,left,Red_Plus_Chess_2.jpg,Blue_Star_Grid_2.jpg,Red_Triangle_Dots_4.jpg,left,630.7749999978114,true,low,false
QyMsc5oH,36818z1kw6qmfrfyj2vkz259guma30,3i0btbyza1yth1cy7nwjpal0zyby0v,QyMsc5oH,2020-0188,2020-05-08,12:29:24,12:47:32,NA,incomplete,110,number,1,left,Red_Plus_Dots_3.jpg,Blue_Triangle_Grid_3.jpg,Red_Star_Stripes_1.jpg,left,673.9599999855272,true,low,false
QyMsc5oH,36818z1kw6qmfrfyj2vkz259guma30,3i0btbyza1yth1cy7nwjpal0zyby0v,QyMsc5oH,2020-0188,2020-05-08,12:29:24,12:47:32,NA,incomplete,111,number,1,left,Blue_Plus_Grid_3.jpg,Purple_Circle_Stripes_3.jpg,Blue_Triangle_Chess_4.jpg,left,643.2400000048801,true,low,false
QyMsc5oH,36818z1kw6qmfrfyj2vkz259guma30,3i0btbyza1yth1cy7nwjpal0zyby0v,QyMsc5oH,2020-0188,2020-05-08,12:29:24,12:47:32,NA,incomplete,112,number,1,left,Purple_Triangle_Dots_1.jpg,Green_Star_Chess_1.jpg,Purple_Plus_Stripes_4.jpg,left,693.2850000157487,true,low,false
QyMsc5oH,36818z1kw6qmfrfyj2vkz259guma30,3i0btbyza1yth1cy7nwjpal0zyby0v,QyMsc5oH,2020-0188,2020-05-08,12:29:24,12:47:32,NA,incomplete,113,number,1,left,Red_Plus_Stripes_3.jpg,Green_Triangle_Chess_3.jpg,Red_Circle_Dots_1.jpg,left,736.0800000024028,true,low,false
QyMsc5oH,36818z1kw6qmfrfyj2vkz259guma30,3i0btbyza1yth1cy7nwjpal0zyby0v,QyMsc5oH,2020-0188,2020-05-08,12:29:24,12:47:32,NA,incomplete,114,number,1,right,Green_Star_Dots_4.jpg,Green_Triangle_Chess_2.jpg,Red_Plus_Grid_4.jpg,right,754.1349999955855,true,low,false
QyMsc5oH,36818z1kw6qmfrfyj2vkz259guma30,3i0btbyza1yth1cy7nwjpal0zyby0v,QyMsc5oH,2020-0188,2020-05-08,12:29:24,12:47:32,NA,incomplete,115,number,0,left,Blue_Star_Stripes_2.jpg,Red_Circle_Chess_2.jpg,Blue_Plus_Dots_4.jpg,left,605.2999999956228,true,low,false
QyMsc5oH,36818z1kw6qmfrfyj2vkz259guma30,3i0btbyza1yth1cy7nwjpal0zyby0v,QyMsc5oH,2020-0188,2020-05-08,12:29:24,12:47:32,NA,incomplete,116,number,1,left,Blue_Triangle_Chess_1.jpg,Purple_Plus_Stripes_1.jpg,Blue_Circle_Dots_4.jpg,left,981.1500000068918,true,low,false
QyMsc5oH,36818z1kw6qmfrfyj2vkz259guma30,3i0btbyza1yth1cy7nwjpal0zyby0v,QyMsc5oH,2020-0188,2020-05-08,12:29:24,12:47:32,NA,incomplete,117,number,1,right,Green_Plus_Grid_3.jpg,Green_Triangle_Stripes_4.jpg,Blue_Star_Chess_3.jpg,right,820.9800000186078,true,low,false
QyMsc5oH,36818z1kw6qmfrfyj2vkz259guma30,3i0btbyza1yth1cy7nwjpal0zyby0v,QyMsc5oH,2020-0188,2020-05-08,12:29:24,12:47:32,NA,incomplete,118,number,1,right,Red_Triangle_Chess_3.jpg,Red_Star_Grid_1.jpg,Purple_Plus_Stripes_3.jpg,right,739.7699999855831,true,low,false
QyMsc5oH,36818z1kw6qmfrfyj2vkz259guma30,3i0btbyza1yth1cy7nwjpal0zyby0v,QyMsc5oH,2020-0188,2020-05-08,12:29:24,12:47:32,NA,incomplete,119,number,1,left,Red_Star_Grid_1.jpg,Green_Plus_Chess_1.jpg,Red_Circle_Dots_2.jpg,left,553.7900000053924,true,low,false
QyMsc5oH,36818z1kw6qmfrfyj2vkz259guma30,3i0btbyza1yth1cy7nwjpal0zyby0v,QyMsc5oH,2020-0188,2020-05-08,12:29:24,12:47:32,NA,incomplete,120,color,1,right,Green_Circle_Stripes_4.jpg,Blue_Triangle_Grid_4.jpg,Green_Plus_Chess_1.jpg,left,664.6250000048894,false,low,false
QyMsc5oH,36818z1kw6qmfrfyj2vkz259guma30,3i0btbyza1yth1cy7nwjpal0zyby0v,QyMsc5oH,2020-0188,2020-05-08,12:29:24,12:47:32,NA,incomplete,121,color,1,right,Blue_Circle_Stripes_3.jpg,Purple_Triangle_Chess_3.jpg,Blue_Star_Dots_4.jpg,left,641.5799999958836,false,low,false
QyMsc5oH,36818z1kw6qmfrfyj2vkz259guma30,3i0btbyza1yth1cy7nwjpal0zyby0v,QyMsc5oH,2020-0188,2020-05-08,12:29:24,12:47:32,NA,incomplete,122,color,1,right,Blue_Plus_Stripes_1.jpg,Green_Circle_Chess_1.jpg,Blue_Triangle_Dots_2.jpg,right,558.0699999991339,true,low,false
QyMsc5oH,36818z1kw6qmfrfyj2vkz259guma30,3i0btbyza1yth1cy7nwjpal0zyby0v,QyMsc5oH,2020-0188,2020-05-08,12:29:24,12:47:32,NA,incomplete,123,color,1,left,Green_Star_Stripes_4.jpg,Green_Circle_Dots_3.jpg,Red_Triangle_Grid_4.jpg,left,1023.3799999987241,true,low,false
QyMsc5oH,36818z1kw6qmfrfyj2vkz259guma30,3i0btbyza1yth1cy7nwjpal0zyby0v,QyMsc5oH,2020-0188,2020-05-08,12:29:24,12:47:32,NA,incomplete,124,color,0,left,Blue_Triangle_Stripes_2.jpg,Blue_Star_Grid_3.jpg,Purple_Plus_Dots_2.jpg,left,972.6899999950547,true,low,false
QyMsc5oH,36818z1kw6qmfrfyj2vkz259guma30,3i0btbyza1yth1cy7nwjpal0zyby0v,QyMsc5oH,2020-0188,2020-05-08,12:29:24,12:47:32,NA,incomplete,125,color,1,left,Green_Triangle_Chess_3.jpg,Green_Circle_Stripes_2.jpg,Red_Star_Grid_3.jpg,left,541.2300000025425,true,low,false
QyMsc5oH,36818z1kw6qmfrfyj2vkz259guma30,3i0btbyza1yth1cy7nwjpal0zyby0v,QyMsc5oH,2020-0188,2020-05-08,12:29:24,12:47:32,NA,incomplete,126,color,0,right,Red_Circle_Grid_4.jpg,Purple_Star_Stripes_4.jpg,Red_Plus_Dots_2.jpg,right,760.9750000119675,true,low,false
QyMsc5oH,36818z1kw6qmfrfyj2vkz259guma30,3i0btbyza1yth1cy7nwjpal0zyby0v,QyMsc5oH,2020-0188,2020-05-08,12:29:24,12:47:32,NA,incomplete,127,color,1,right,Purple_Star_Dots_2.jpg,Red_Circle_Chess_2.jpg,Purple_Plus_Stripes_4.jpg,right,840.6400000094436,true,low,false
QyMsc5oH,36818z1kw6qmfrfyj2vkz259guma30,3i0btbyza1yth1cy7nwjpal0zyby0v,QyMsc5oH,2020-0188,2020-05-08,12:29:24,12:47:32,NA,incomplete,128,color,1,left,Red_Plus_Dots_4.jpg,Red_Star_Stripes_1.jpg,Purple_Circle_Grid_4.jpg,left,679.3550000002142,true,low,false
QyMsc5oH,36818z1kw6qmfrfyj2vkz259guma30,3i0btbyza1yth1cy7nwjpal0zyby0v,QyMsc5oH,2020-0188,2020-05-08,12:29:24,12:47:32,NA,incomplete,129,color,1,right,Green_Star_Grid_2.jpg,Purple_Circle_Chess_2.jpg,Green_Plus_Stripes_4.jpg,right,605.6500000122469,true,low,false
QyMsc5oH,36818z1kw6qmfrfyj2vkz259guma30,3i0btbyza1yth1cy7nwjpal0zyby0v,QyMsc5oH,2020-0188,2020-05-08,12:29:24,12:47:32,NA,incomplete,130,color,1,left,Purple_Plus_Chess_2.jpg,Purple_Star_Grid_3.jpg,Red_Circle_Stripes_2.jpg,left,570.3550000034738,true,low,false
QyMsc5oH,36818z1kw6qmfrfyj2vkz259guma30,3i0btbyza1yth1cy7nwjpal0zyby0v,QyMsc5oH,2020-0188,2020-05-08,12:29:24,12:47:32,NA,incomplete,131,color,1,right,Red_Plus_Chess_2.jpg,Blue_Circle_Grid_2.jpg,Red_Star_Stripes_3.jpg,right,663.3450000081211,true,low,false
QyMsc5oH,36818z1kw6qmfrfyj2vkz259guma30,3i0btbyza1yth1cy7nwjpal0zyby0v,QyMsc5oH,2020-0188,2020-05-08,12:29:24,12:47:32,NA,incomplete,132,color,1,right,Red_Plus_Grid_2.jpg,Purple_Star_Stripes_2.jpg,Red_Circle_Chess_1.jpg,right,690.5649999971502,true,low,false
QyMsc5oH,36818z1kw6qmfrfyj2vkz259guma30,3i0btbyza1yth1cy7nwjpal0zyby0v,QyMsc5oH,2020-0188,2020-05-08,12:29:24,12:47:32,NA,incomplete,133,color,0,right,Green_Plus_Dots_1.jpg,Purple_Circle_Grid_1.jpg,Green_Triangle_Stripes_3.jpg,right,531.7400000058115,true,low,false
QyMsc5oH,36818z1kw6qmfrfyj2vkz259guma30,3i0btbyza1yth1cy7nwjpal0zyby0v,QyMsc5oH,2020-0188,2020-05-08,12:29:24,12:47:32,NA,incomplete,134,color,1,left,Blue_Triangle_Chess_4.jpg,Blue_Star_Dots_3.jpg,Green_Plus_Stripes_4.jpg,left,718.269999983022,true,low,false
QyMsc5oH,36818z1kw6qmfrfyj2vkz259guma30,3i0btbyza1yth1cy7nwjpal0zyby0v,QyMsc5oH,2020-0188,2020-05-08,12:29:24,12:47:32,NA,incomplete,135,color,1,left,Blue_Circle_Grid_2.jpg,Blue_Plus_Stripes_4.jpg,Red_Triangle_Dots_2.jpg,left,572.3050000087824,true,low,false
QyMsc5oH,36818z1kw6qmfrfyj2vkz259guma30,3i0btbyza1yth1cy7nwjpal0zyby0v,QyMsc5oH,2020-0188,2020-05-08,12:29:24,12:47:32,NA,incomplete,136,color,0,right,Red_Triangle_Stripes_2.jpg,Blue_Circle_Grid_2.jpg,Red_Plus_Dots_1.jpg,left,816.530000010971,false,low,false
QyMsc5oH,36818z1kw6qmfrfyj2vkz259guma30,3i0btbyza1yth1cy7nwjpal0zyby0v,QyMsc5oH,2020-0188,2020-05-08,12:29:24,12:47:32,NA,incomplete,137,color,1,right,Blue_Triangle_Chess_1.jpg,Purple_Star_Grid_1.jpg,Blue_Plus_Stripes_3.jpg,left,1158.9400000229944,false,low,false
QyMsc5oH,36818z1kw6qmfrfyj2vkz259guma30,3i0btbyza1yth1cy7nwjpal0zyby0v,QyMsc5oH,2020-0188,2020-05-08,12:29:24,12:47:32,NA,incomplete,138,color,0,right,Green_Star_Stripes_2.jpg,Purple_Plus_Chess_2.jpg,Green_Circle_Grid_3.jpg,right,603.2600000035018,true,low,false
QyMsc5oH,36818z1kw6qmfrfyj2vkz259guma30,3i0btbyza1yth1cy7nwjpal0zyby0v,QyMsc5oH,2020-0188,2020-05-08,12:29:24,12:47:32,NA,incomplete,139,color,1,right,Red_Circle_Stripes_4.jpg,Green_Plus_Chess_4.jpg,Red_Star_Grid_3.jpg,left,834.3699999968521,false,low,false
QyMsc5oH,36818z1kw6qmfrfyj2vkz259guma30,3i0btbyza1yth1cy7nwjpal0zyby0v,QyMsc5oH,2020-0188,2020-05-08,12:29:24,12:47:32,NA,incomplete,140,number,1,left,Green_Plus_Chess_3.jpg,Purple_Star_Stripes_3.jpg,Green_Triangle_Dots_1.jpg,right,872.9049999965355,false,low,false
QyMsc5oH,36818z1kw6qmfrfyj2vkz259guma30,3i0btbyza1yth1cy7nwjpal0zyby0v,QyMsc5oH,2020-0188,2020-05-08,12:29:24,12:47:32,NA,incomplete,141,number,1,right,Blue_Triangle_Grid_1.jpg,Blue_Circle_Stripes_2.jpg,Purple_Plus_Dots_1.jpg,left,685.8199999842327,false,low,false
QyMsc5oH,36818z1kw6qmfrfyj2vkz259guma30,3i0btbyza1yth1cy7nwjpal0zyby0v,QyMsc5oH,2020-0188,2020-05-08,12:29:24,12:47:32,NA,incomplete,142,number,1,right,Green_Plus_Chess_1.jpg,Green_Circle_Dots_4.jpg,Blue_Star_Stripes_1.jpg,right,1096.2599999911617,true,low,false
QyMsc5oH,36818z1kw6qmfrfyj2vkz259guma30,3i0btbyza1yth1cy7nwjpal0zyby0v,QyMsc5oH,2020-0188,2020-05-08,12:29:24,12:47:32,NA,incomplete,143,number,1,right,Blue_Plus_Dots_4.jpg,Blue_Circle_Stripes_3.jpg,Purple_Triangle_Chess_4.jpg,right,1273.6150000127964,true,low,false
QyMsc5oH,36818z1kw6qmfrfyj2vkz259guma30,3i0btbyza1yth1cy7nwjpal0zyby0v,QyMsc5oH,2020-0188,2020-05-08,12:29:24,12:47:32,NA,incomplete,144,number,0,left,Blue_Triangle_Stripes_3.jpg,Red_Circle_Dots_3.jpg,Blue_Star_Chess_2.jpg,left,814.4200000097044,true,low,false
QyMsc5oH,36818z1kw6qmfrfyj2vkz259guma30,3i0btbyza1yth1cy7nwjpal0zyby0v,QyMsc5oH,2020-0188,2020-05-08,12:29:24,12:47:32,NA,incomplete,145,number,1,right,Blue_Star_Grid_1.jpg,Blue_Plus_Dots_2.jpg,Purple_Circle_Chess_1.jpg,right,821.6499999980442,true,low,false
QyMsc5oH,36818z1kw6qmfrfyj2vkz259guma30,3i0btbyza1yth1cy7nwjpal0zyby0v,QyMsc5oH,2020-0188,2020-05-08,12:29:24,12:47:32,NA,incomplete,146,number,1,right,Blue_Circle_Chess_2.jpg,Blue_Triangle_Dots_3.jpg,Purple_Plus_Grid_2.jpg,right,1039.6199999959208,true,low,false
QyMsc5oH,36818z1kw6qmfrfyj2vkz259guma30,3i0btbyza1yth1cy7nwjpal0zyby0v,QyMsc5oH,2020-0188,2020-05-08,12:29:24,12:47:32,NA,incomplete,147,number,1,left,Blue_Triangle_Stripes_2.jpg,Green_Plus_Dots_2.jpg,Blue_Star_Chess_4.jpg,left,1149.29500001017,true,low,false
QyMsc5oH,36818z1kw6qmfrfyj2vkz259guma30,3i0btbyza1yth1cy7nwjpal0zyby0v,QyMsc5oH,2020-0188,2020-05-08,12:29:24,12:47:32,NA,incomplete,148,number,1,right,Blue_Circle_Chess_1.jpg,Blue_Star_Stripes_2.jpg,Green_Plus_Dots_1.jpg,right,828.2649999891873,true,low,false
QyMsc5oH,36818z1kw6qmfrfyj2vkz259guma30,3i0btbyza1yth1cy7nwjpal0zyby0v,QyMsc5oH,2020-0188,2020-05-08,12:29:24,12:47:32,NA,incomplete,149,number,1,left,Blue_Triangle_Grid_3.jpg,Purple_Circle_Stripes_3.jpg,Blue_Star_Dots_2.jpg,left,1659.4200000108685,true,low,false
QyMsc5oH,36818z1kw6qmfrfyj2vkz259guma30,3i0btbyza1yth1cy7nwjpal0zyby0v,QyMsc5oH,2020-0188,2020-05-08,12:29:24,12:47:32,NA,incomplete,150,number,1,right,Purple_Triangle_Stripes_3.jpg,Purple_Plus_Chess_2.jpg,Red_Circle_Dots_3.jpg,right,823.675000021467,true,low,false
QyMsc5oH,36818z1kw6qmfrfyj2vkz259guma30,3i0btbyza1yth1cy7nwjpal0zyby0v,QyMsc5oH,2020-0188,2020-05-08,12:29:24,12:47:32,NA,incomplete,151,number,1,left,Blue_Star_Dots_1.jpg,Red_Circle_Chess_1.jpg,Blue_Triangle_Stripes_2.jpg,left,780.1150000013877,true,low,false
QyMsc5oH,36818z1kw6qmfrfyj2vkz259guma30,3i0btbyza1yth1cy7nwjpal0zyby0v,QyMsc5oH,2020-0188,2020-05-08,12:29:24,12:47:32,NA,incomplete,152,number,0,right,Red_Plus_Chess_4.jpg,Red_Circle_Stripes_1.jpg,Green_Star_Dots_4.jpg,right,640.1999999943655,true,low,false
QyMsc5oH,36818z1kw6qmfrfyj2vkz259guma30,3i0btbyza1yth1cy7nwjpal0zyby0v,QyMsc5oH,2020-0188,2020-05-08,12:29:24,12:47:32,NA,incomplete,153,number,1,right,Blue_Plus_Chess_2.jpg,Blue_Circle_Stripes_1.jpg,Green_Triangle_Dots_2.jpg,right,833.7900000042282,true,low,false
QyMsc5oH,36818z1kw6qmfrfyj2vkz259guma30,3i0btbyza1yth1cy7nwjpal0zyby0v,QyMsc5oH,2020-0188,2020-05-08,12:29:24,12:47:32,NA,incomplete,154,number,1,left,Blue_Star_Grid_3.jpg,Purple_Plus_Stripes_3.jpg,Blue_Triangle_Dots_4.jpg,left,683.7050000031013,true,low,false
QyMsc5oH,36818z1kw6qmfrfyj2vkz259guma30,3i0btbyza1yth1cy7nwjpal0zyby0v,QyMsc5oH,2020-0188,2020-05-08,12:29:24,12:47:32,NA,incomplete,155,number,0,right,Blue_Triangle_Grid_4.jpg,Blue_Circle_Dots_3.jpg,Red_Plus_Stripes_4.jpg,right,801.1549999937415,true,low,false
QyMsc5oH,36818z1kw6qmfrfyj2vkz259guma30,3i0btbyza1yth1cy7nwjpal0zyby0v,QyMsc5oH,2020-0188,2020-05-08,12:29:24,12:47:32,NA,incomplete,156,number,1,left,Purple_Star_Dots_2.jpg,Blue_Triangle_Chess_2.jpg,Purple_Plus_Grid_3.jpg,left,898.8550000067335,true,low,false
QyMsc5oH,36818z1kw6qmfrfyj2vkz259guma30,3i0btbyza1yth1cy7nwjpal0zyby0v,QyMsc5oH,2020-0188,2020-05-08,12:29:24,12:47:32,NA,incomplete,157,number,1,left,Red_Triangle_Chess_4.jpg,Purple_Star_Grid_4.jpg,Red_Circle_Stripes_2.jpg,left,948.2499999867287,true,low,false
QyMsc5oH,36818z1kw6qmfrfyj2vkz259guma30,3i0btbyza1yth1cy7nwjpal0zyby0v,QyMsc5oH,2020-0188,2020-05-08,12:29:24,12:47:32,NA,incomplete,158,number,1,left,Purple_Triangle_Grid_1.jpg,Green_Plus_Stripes_1.jpg,Purple_Circle_Chess_2.jpg,left,580.1200000278186,true,low,false
QyMsc5oH,36818z1kw6qmfrfyj2vkz259guma30,3i0btbyza1yth1cy7nwjpal0zyby0v,QyMsc5oH,2020-0188,2020-05-08,12:29:24,12:47:32,NA,incomplete,159,number,1,right,Red_Triangle_Dots_4.jpg,Red_Plus_Grid_2.jpg,Green_Star_Chess_4.jpg,right,791.960000002291,true,low,false
QyMsc5oH,36818z1kw6qmfrfyj2vkz259guma30,3i0btbyza1yth1cy7nwjpal0zyby0v,QyMsc5oH,2020-0188,2020-05-08,12:29:24,12:47:32,NA,incomplete,160,color,1,left,Purple_Star_Stripes_3.jpg,Purple_Triangle_Grid_2.jpg,Green_Plus_Dots_3.jpg,right,911.549999989802,false,low,false
QyMsc5oH,36818z1kw6qmfrfyj2vkz259guma30,3i0btbyza1yth1cy7nwjpal0zyby0v,QyMsc5oH,2020-0188,2020-05-08,12:29:24,12:47:32,NA,incomplete,161,color,1,left,Blue_Star_Stripes_3.jpg,Blue_Plus_Grid_4.jpg,Red_Triangle_Chess_3.jpg,left,907.0050000154879,true,low,false
QyMsc5oH,36818z1kw6qmfrfyj2vkz259guma30,3i0btbyza1yth1cy7nwjpal0zyby0v,QyMsc5oH,2020-0188,2020-05-08,12:29:24,12:47:32,NA,incomplete,162,color,1,left,Blue_Plus_Chess_3.jpg,Blue_Triangle_Stripes_1.jpg,Purple_Circle_Dots_3.jpg,left,793.3049999992363,true,low,false
QyMsc5oH,36818z1kw6qmfrfyj2vkz259guma30,3i0btbyza1yth1cy7nwjpal0zyby0v,QyMsc5oH,2020-0188,2020-05-08,12:29:24,12:47:32,NA,incomplete,163,color,0,left,Green_Triangle_Dots_2.jpg,Green_Plus_Grid_3.jpg,Red_Star_Stripes_2.jpg,left,663.9799999829847,true,low,false
QyMsc5oH,36818z1kw6qmfrfyj2vkz259guma30,3i0btbyza1yth1cy7nwjpal0zyby0v,QyMsc5oH,2020-0188,2020-05-08,12:29:24,12:47:32,NA,incomplete,164,color,1,right,Purple_Plus_Grid_4.jpg,Green_Star_Chess_4.jpg,Purple_Circle_Dots_3.jpg,right,573.900000017602,true,low,false
QyMsc5oH,36818z1kw6qmfrfyj2vkz259guma30,3i0btbyza1yth1cy7nwjpal0zyby0v,QyMsc5oH,2020-0188,2020-05-08,12:29:24,12:47:32,NA,incomplete,165,color,1,left,Red_Plus_Stripes_3.jpg,Red_Star_Grid_1.jpg,Blue_Circle_Dots_3.jpg,left,535.7099999964703,true,low,false
QyMsc5oH,36818z1kw6qmfrfyj2vkz259guma30,3i0btbyza1yth1cy7nwjpal0zyby0v,QyMsc5oH,2020-0188,2020-05-08,12:29:24,12:47:32,NA,incomplete,166,color,0,left,Purple_Plus_Grid_1.jpg,Purple_Circle_Dots_4.jpg,Red_Star_Chess_1.jpg,left,614.4100000092294,true,low,false
QyMsc5oH,36818z1kw6qmfrfyj2vkz259guma30,3i0btbyza1yth1cy7nwjpal0zyby0v,QyMsc5oH,2020-0188,2020-05-08,12:29:24,12:47:32,NA,incomplete,167,color,1,right,Purple_Plus_Chess_3.jpg,Green_Circle_Grid_3.jpg,Purple_Triangle_Dots_1.jpg,right,664.535000018077,true,low,false
QyMsc5oH,36818z1kw6qmfrfyj2vkz259guma30,3i0btbyza1yth1cy7nwjpal0zyby0v,QyMsc5oH,2020-0188,2020-05-08,12:29:24,12:47:32,NA,incomplete,168,color,0,left,Blue_Triangle_Dots_2.jpg,Blue_Circle_Stripes_1.jpg,Green_Plus_Chess_2.jpg,left,717.8100000019185,true,low,false
QyMsc5oH,36818z1kw6qmfrfyj2vkz259guma30,3i0btbyza1yth1cy7nwjpal0zyby0v,QyMsc5oH,2020-0188,2020-05-08,12:29:24,12:47:32,NA,incomplete,169,color,1,right,Purple_Circle_Grid_2.jpg,Green_Triangle_Stripes_2.jpg,Purple_Plus_Dots_4.jpg,right,1116.6450000018813,true,low,false
QyMsc5oH,36818z1kw6qmfrfyj2vkz259guma30,3i0btbyza1yth1cy7nwjpal0zyby0v,QyMsc5oH,2020-0188,2020-05-08,12:29:24,12:47:32,NA,incomplete,170,color,0,left,Blue_Circle_Stripes_2.jpg,Blue_Plus_Chess_1.jpg,Green_Star_Dots_2.jpg,left,584.7500000090804,true,low,false
QyMsc5oH,36818z1kw6qmfrfyj2vkz259guma30,3i0btbyza1yth1cy7nwjpal0zyby0v,QyMsc5oH,2020-0188,2020-05-08,12:29:24,12:47:32,NA,incomplete,171,color,1,left,Green_Plus_Grid_3.jpg,Green_Star_Dots_4.jpg,Blue_Triangle_Stripes_3.jpg,right,782.2400000004563,false,low,false
QyMsc5oH,36818z1kw6qmfrfyj2vkz259guma30,3i0btbyza1yth1cy7nwjpal0zyby0v,QyMsc5oH,2020-0188,2020-05-08,12:29:24,12:47:32,NA,incomplete,172,color,1,left,Green_Circle_Dots_4.jpg,Green_Star_Chess_3.jpg,Blue_Triangle_Grid_4.jpg,left,651.2649999931455,true,low,false
QyMsc5oH,36818z1kw6qmfrfyj2vkz259guma30,3i0btbyza1yth1cy7nwjpal0zyby0v,QyMsc5oH,2020-0188,2020-05-08,12:29:24,12:47:32,NA,incomplete,173,color,1,left,Blue_Plus_Stripes_3.jpg,Blue_Triangle_Chess_1.jpg,Green_Circle_Dots_3.jpg,left,747.8999999875668,true,low,false
QyMsc5oH,36818z1kw6qmfrfyj2vkz259guma30,3i0btbyza1yth1cy7nwjpal0zyby0v,QyMsc5oH,2020-0188,2020-05-08,12:29:24,12:47:32,NA,incomplete,174,color,0,left,Green_Plus_Chess_1.jpg,Green_Triangle_Dots_2.jpg,Red_Circle_Stripes_1.jpg,left,579.6949999930803,true,low,false
QyMsc5oH,36818z1kw6qmfrfyj2vkz259guma30,3i0btbyza1yth1cy7nwjpal0zyby0v,QyMsc5oH,2020-0188,2020-05-08,12:29:24,12:47:32,NA,incomplete,175,color,1,right,Green_Plus_Stripes_1.jpg,Purple_Circle_Chess_1.jpg,Green_Triangle_Dots_2.jpg,right,730.3700000047684,true,low,false
QyMsc5oH,36818z1kw6qmfrfyj2vkz259guma30,3i0btbyza1yth1cy7nwjpal0zyby0v,QyMsc5oH,2020-0188,2020-05-08,12:29:24,12:47:32,NA,incomplete,176,color,0,right,Purple_Plus_Grid_4.jpg,Blue_Star_Stripes_4.jpg,Purple_Circle_Dots_3.jpg,right,644.6200000063982,true,low,false
QyMsc5oH,36818z1kw6qmfrfyj2vkz259guma30,3i0btbyza1yth1cy7nwjpal0zyby0v,QyMsc5oH,2020-0188,2020-05-08,12:29:24,12:47:32,NA,incomplete,177,color,1,right,Red_Star_Grid_2.jpg,Blue_Triangle_Stripes_2.jpg,Red_Circle_Dots_1.jpg,right,809.5549999852665,true,low,false
QyMsc5oH,36818z1kw6qmfrfyj2vkz259guma30,3i0btbyza1yth1cy7nwjpal0zyby0v,QyMsc5oH,2020-0188,2020-05-08,12:29:24,12:47:32,NA,incomplete,178,color,1,left,Blue_Circle_Chess_2.jpg,Blue_Star_Grid_1.jpg,Green_Plus_Dots_2.jpg,left,660.4449999867938,true,low,false
QyMsc5oH,36818z1kw6qmfrfyj2vkz259guma30,3i0btbyza1yth1cy7nwjpal0zyby0v,QyMsc5oH,2020-0188,2020-05-08,12:29:24,12:47:32,NA,incomplete,179,color,1,left,Green_Circle_Dots_2.jpg,Green_Star_Chess_1.jpg,Red_Plus_Grid_2.jpg,left,598.2700000167824,true,low,false
QyMsc5oH,36818z1kw6qmfrfyj2vkz259guma30,3i0btbyza1yth1cy7nwjpal0zyby0v,QyMsc5oH,2020-0188,2020-05-08,12:29:24,12:47:32,NA,incomplete,180,number,1,right,Blue_Triangle_Dots_2.jpg,Blue_Plus_Grid_1.jpg,Red_Circle_Stripes_2.jpg,left,656.764999992447,false,low,false
QyMsc5oH,36818z1kw6qmfrfyj2vkz259guma30,3i0btbyza1yth1cy7nwjpal0zyby0v,QyMsc5oH,2020-0188,2020-05-08,12:29:24,12:47:32,NA,incomplete,181,number,0,right,Green_Plus_Grid_1.jpg,Green_Circle_Stripes_4.jpg,Blue_Triangle_Chess_1.jpg,left,703.9299999887589,false,low,false
QyMsc5oH,36818z1kw6qmfrfyj2vkz259guma30,3i0btbyza1yth1cy7nwjpal0zyby0v,QyMsc5oH,2020-0188,2020-05-08,12:29:24,12:47:32,NA,incomplete,182,number,1,left,Green_Star_Dots_1.jpg,Purple_Triangle_Chess_1.jpg,Green_Circle_Stripes_2.jpg,right,516.1300000036135,false,low,false
QyMsc5oH,36818z1kw6qmfrfyj2vkz259guma30,3i0btbyza1yth1cy7nwjpal0zyby0v,QyMsc5oH,2020-0188,2020-05-08,12:29:24,12:47:32,NA,incomplete,183,number,1,right,Purple_Triangle_Dots_4.jpg,Purple_Star_Stripes_3.jpg,Blue_Plus_Chess_4.jpg,right,807.3050000239164,true,low,false
QyMsc5oH,36818z1kw6qmfrfyj2vkz259guma30,3i0btbyza1yth1cy7nwjpal0zyby0v,QyMsc5oH,2020-0188,2020-05-08,12:29:24,12:47:32,NA,incomplete,184,number,1,left,Purple_Plus_Stripes_4.jpg,Green_Star_Dots_4.jpg,Purple_Circle_Grid_1.jpg,left,730.3149999934249,true,low,false
QyMsc5oH,36818z1kw6qmfrfyj2vkz259guma30,3i0btbyza1yth1cy7nwjpal0zyby0v,QyMsc5oH,2020-0188,2020-05-08,12:29:24,12:47:32,NA,incomplete,185,number,1,right,Purple_Triangle_Chess_3.jpg,Purple_Plus_Stripes_4.jpg,Red_Star_Dots_3.jpg,right,949.8750000202563,true,low,false
QyMsc5oH,36818z1kw6qmfrfyj2vkz259guma30,3i0btbyza1yth1cy7nwjpal0zyby0v,QyMsc5oH,2020-0188,2020-05-08,12:29:24,12:47:32,NA,incomplete,186,number,1,left,Blue_Circle_Chess_2.jpg,Green_Plus_Stripes_2.jpg,Blue_Star_Grid_1.jpg,left,1027.3450000095181,true,low,false
QyMsc5oH,36818z1kw6qmfrfyj2vkz259guma30,3i0btbyza1yth1cy7nwjpal0zyby0v,QyMsc5oH,2020-0188,2020-05-08,12:29:24,12:47:32,NA,incomplete,187,number,1,right,Green_Circle_Grid_2.jpg,Green_Plus_Stripes_1.jpg,Purple_Triangle_Chess_2.jpg,right,639.2650000052527,true,low,false
QyMsc5oH,36818z1kw6qmfrfyj2vkz259guma30,3i0btbyza1yth1cy7nwjpal0zyby0v,QyMsc5oH,2020-0188,2020-05-08,12:29:24,12:47:32,NA,incomplete,188,number,1,right,Blue_Circle_Chess_3.jpg,Blue_Star_Dots_4.jpg,Red_Triangle_Grid_3.jpg,right,832.4000000138767,true,low,false
QyMsc5oH,36818z1kw6qmfrfyj2vkz259guma30,3i0btbyza1yth1cy7nwjpal0zyby0v,QyMsc5oH,2020-0188,2020-05-08,12:29:24,12:47:32,NA,incomplete,189,number,1,right,Green_Triangle_Dots_1.jpg,Green_Circle_Stripes_4.jpg,Blue_Plus_Chess_1.jpg,left,749.1699999955017,false,low,false
QyMsc5oH,36818z1kw6qmfrfyj2vkz259guma30,3i0btbyza1yth1cy7nwjpal0zyby0v,QyMsc5oH,2020-0188,2020-05-08,12:29:24,12:47:32,NA,incomplete,190,number,0,left,Blue_Circle_Dots_3.jpg,Purple_Triangle_Chess_3.jpg,Blue_Plus_Stripes_2.jpg,left,905.3849999909289,true,low,false
QyMsc5oH,36818z1kw6qmfrfyj2vkz259guma30,3i0btbyza1yth1cy7nwjpal0zyby0v,QyMsc5oH,2020-0188,2020-05-08,12:29:24,12:47:32,NA,incomplete,191,number,1,left,Green_Plus_Dots_4.jpg,Red_Triangle_Grid_4.jpg,Green_Star_Chess_3.jpg,left,700.024999998277,true,low,false
QyMsc5oH,36818z1kw6qmfrfyj2vkz259guma30,3i0btbyza1yth1cy7nwjpal0zyby0v,QyMsc5oH,2020-0188,2020-05-08,12:29:24,12:47:32,NA,incomplete,192,number,1,left,Blue_Triangle_Dots_4.jpg,Red_Star_Grid_4.jpg,Blue_Circle_Chess_3.jpg,left,952.2200000064913,true,low,false
QyMsc5oH,36818z1kw6qmfrfyj2vkz259guma30,3i0btbyza1yth1cy7nwjpal0zyby0v,QyMsc5oH,2020-0188,2020-05-08,12:29:24,12:47:32,NA,incomplete,193,number,1,right,Red_Circle_Grid_2.jpg,Red_Star_Stripes_3.jpg,Purple_Triangle_Chess_2.jpg,right,761.369999992894,true,low,false
QyMsc5oH,36818z1kw6qmfrfyj2vkz259guma30,3i0btbyza1yth1cy7nwjpal0zyby0v,QyMsc5oH,2020-0188,2020-05-08,12:29:24,12:47:32,NA,incomplete,194,number,1,left,Purple_Star_Grid_1.jpg,Red_Triangle_Dots_1.jpg,Purple_Plus_Stripes_4.jpg,left,718.4499999857508,true,low,false
QyMsc5oH,36818z1kw6qmfrfyj2vkz259guma30,3i0btbyza1yth1cy7nwjpal0zyby0v,QyMsc5oH,2020-0188,2020-05-08,12:29:24,12:47:32,NA,incomplete,195,number,1,left,Purple_Triangle_Dots_2.jpg,Red_Plus_Grid_2.jpg,Purple_Circle_Stripes_1.jpg,left,743.4649999777321,true,low,false
QyMsc5oH,36818z1kw6qmfrfyj2vkz259guma30,3i0btbyza1yth1cy7nwjpal0zyby0v,QyMsc5oH,2020-0188,2020-05-08,12:29:24,12:47:32,NA,incomplete,196,number,1,right,Purple_Plus_Chess_4.jpg,Purple_Circle_Dots_3.jpg,Blue_Star_Grid_4.jpg,right,665.210000006482,true,low,false
QyMsc5oH,36818z1kw6qmfrfyj2vkz259guma30,3i0btbyza1yth1cy7nwjpal0zyby0v,QyMsc5oH,2020-0188,2020-05-08,12:29:24,12:47:32,NA,incomplete,197,number,1,left,Red_Star_Grid_4.jpg,Green_Triangle_Stripes_4.jpg,Red_Plus_Dots_2.jpg,left,677.4700000241864,true,low,false
QyMsc5oH,36818z1kw6qmfrfyj2vkz259guma30,3i0btbyza1yth1cy7nwjpal0zyby0v,QyMsc5oH,2020-0188,2020-05-08,12:29:24,12:47:32,NA,incomplete,198,number,1,right,Red_Circle_Grid_4.jpg,Red_Plus_Stripes_2.jpg,Blue_Triangle_Chess_4.jpg,right,690.4750000103377,true,low,false
QyMsc5oH,36818z1kw6qmfrfyj2vkz259guma30,3i0btbyza1yth1cy7nwjpal0zyby0v,QyMsc5oH,2020-0188,2020-05-08,12:29:24,12:47:32,NA,incomplete,199,number,1,left,Blue_Circle_Stripes_1.jpg,Green_Star_Chess_1.jpg,Blue_Plus_Dots_3.jpg,left,768.6399999947753,true,low,false
QyMsc5oH,36818z1kw6qmfrfyj2vkz259guma30,3i0btbyza1yth1cy7nwjpal0zyby0v,QyMsc5oH,2020-0188,2020-05-08,12:29:24,12:47:32,NA,incomplete,200,color,1,right,Purple_Circle_Grid_3.jpg,Red_Star_Chess_3.jpg,Purple_Triangle_Stripes_2.jpg,left,987.6700000022538,false,low,false
QyMsc5oH,36818z1kw6qmfrfyj2vkz259guma30,3i0btbyza1yth1cy7nwjpal0zyby0v,QyMsc5oH,2020-0188,2020-05-08,12:29:24,12:47:32,NA,incomplete,201,color,0,right,Green_Plus_Chess_4.jpg,Purple_Triangle_Stripes_4.jpg,Green_Circle_Dots_1.jpg,left,660.4000000224914,false,low,false
QyMsc5oH,36818z1kw6qmfrfyj2vkz259guma30,3i0btbyza1yth1cy7nwjpal0zyby0v,QyMsc5oH,2020-0188,2020-05-08,12:29:24,12:47:32,NA,incomplete,202,color,1,left,Purple_Star_Grid_3.jpg,Purple_Plus_Dots_1.jpg,Red_Circle_Stripes_3.jpg,right,874.3649999960326,false,low,false
QyMsc5oH,36818z1kw6qmfrfyj2vkz259guma30,3i0btbyza1yth1cy7nwjpal0zyby0v,QyMsc5oH,2020-0188,2020-05-08,12:29:24,12:47:32,NA,incomplete,203,color,0,left,Purple_Plus_Grid_2.jpg,Purple_Star_Stripes_4.jpg,Green_Circle_Chess_2.jpg,right,843.1799999962095,false,low,false
QyMsc5oH,36818z1kw6qmfrfyj2vkz259guma30,3i0btbyza1yth1cy7nwjpal0zyby0v,QyMsc5oH,2020-0188,2020-05-08,12:29:24,12:47:32,NA,incomplete,204,color,1,left,Purple_Triangle_Dots_4.jpg,Purple_Circle_Grid_3.jpg,Red_Star_Stripes_4.jpg,right,951.4799999888055,false,low,false
QyMsc5oH,36818z1kw6qmfrfyj2vkz259guma30,3i0btbyza1yth1cy7nwjpal0zyby0v,QyMsc5oH,2020-0188,2020-05-08,12:29:24,12:47:32,NA,incomplete,205,color,1,left,Blue_Plus_Dots_3.jpg,Blue_Circle_Stripes_1.jpg,Red_Star_Grid_3.jpg,left,689.4000000029337,true,low,false
QyMsc5oH,36818z1kw6qmfrfyj2vkz259guma30,3i0btbyza1yth1cy7nwjpal0zyby0v,QyMsc5oH,2020-0188,2020-05-08,12:29:24,12:47:32,NA,incomplete,206,color,1,right,Blue_Triangle_Dots_3.jpg,Red_Circle_Grid_3.jpg,Blue_Plus_Chess_1.jpg,right,559.2500000202563,true,low,false
QyMsc5oH,36818z1kw6qmfrfyj2vkz259guma30,3i0btbyza1yth1cy7nwjpal0zyby0v,QyMsc5oH,2020-0188,2020-05-08,12:29:24,12:47:32,NA,incomplete,207,color,0,right,Green_Star_Chess_3.jpg,Blue_Circle_Dots_3.jpg,Green_Triangle_Grid_4.jpg,right,642.3500000091735,true,low,false
QyMsc5oH,36818z1kw6qmfrfyj2vkz259guma30,3i0btbyza1yth1cy7nwjpal0zyby0v,QyMsc5oH,2020-0188,2020-05-08,12:29:24,12:47:32,NA,incomplete,208,color,1,left,Red_Circle_Dots_2.jpg,Red_Triangle_Chess_4.jpg,Blue_Plus_Grid_2.jpg,left,576.9199999922421,true,low,false
QyMsc5oH,36818z1kw6qmfrfyj2vkz259guma30,3i0btbyza1yth1cy7nwjpal0zyby0v,QyMsc5oH,2020-0188,2020-05-08,12:29:24,12:47:32,NA,incomplete,209,color,1,left,Blue_Plus_Stripes_3.jpg,Blue_Star_Chess_1.jpg,Purple_Triangle_Dots_3.jpg,right,680.7400000107009,false,low,false
QyMsc5oH,36818z1kw6qmfrfyj2vkz259guma30,3i0btbyza1yth1cy7nwjpal0zyby0v,QyMsc5oH,2020-0188,2020-05-08,12:29:24,12:47:32,NA,incomplete,210,color,1,left,Red_Plus_Stripes_2.jpg,Red_Circle_Dots_1.jpg,Green_Star_Grid_2.jpg,left,677.7599999913946,true,low,false
QyMsc5oH,36818z1kw6qmfrfyj2vkz259guma30,3i0btbyza1yth1cy7nwjpal0zyby0v,QyMsc5oH,2020-0188,2020-05-08,12:29:24,12:47:32,NA,incomplete,211,color,1,left,Red_Circle_Grid_4.jpg,Red_Triangle_Dots_2.jpg,Purple_Star_Stripes_4.jpg,left,677.7700000093319,true,low,false
QyMsc5oH,36818z1kw6qmfrfyj2vkz259guma30,3i0btbyza1yth1cy7nwjpal0zyby0v,QyMsc5oH,2020-0188,2020-05-08,12:29:24,12:47:32,NA,incomplete,212,color,1,left,Purple_Triangle_Grid_4.jpg,Purple_Plus_Stripes_2.jpg,Red_Circle_Chess_4.jpg,left,640.1600000099279,true,low,false
QyMsc5oH,36818z1kw6qmfrfyj2vkz259guma30,3i0btbyza1yth1cy7nwjpal0zyby0v,QyMsc5oH,2020-0188,2020-05-08,12:29:24,12:47:32,NA,incomplete,213,color,1,right,Green_Triangle_Chess_3.jpg,Red_Circle_Stripes_3.jpg,Green_Star_Dots_4.jpg,right,594.3250000127591,true,low,false
QyMsc5oH,36818z1kw6qmfrfyj2vkz259guma30,3i0btbyza1yth1cy7nwjpal0zyby0v,QyMsc5oH,2020-0188,2020-05-08,12:29:24,12:47:32,NA,incomplete,214,color,0,right,Blue_Circle_Stripes_1.jpg,Green_Star_Dots_1.jpg,Blue_Plus_Chess_2.jpg,right,701.1850000126287,true,low,false
QyMsc5oH,36818z1kw6qmfrfyj2vkz259guma30,3i0btbyza1yth1cy7nwjpal0zyby0v,QyMsc5oH,2020-0188,2020-05-08,12:29:24,12:47:32,NA,incomplete,215,color,1,left,Green_Star_Dots_3.jpg,Green_Triangle_Stripes_4.jpg,Red_Circle_Chess_3.jpg,left,505.5199999769684,true,low,false
QyMsc5oH,36818z1kw6qmfrfyj2vkz259guma30,3i0btbyza1yth1cy7nwjpal0zyby0v,QyMsc5oH,2020-0188,2020-05-08,12:29:24,12:47:32,NA,incomplete,216,color,0,right,Red_Star_Stripes_1.jpg,Green_Circle_Grid_1.jpg,Red_Plus_Chess_2.jpg,right,523.0100000044331,true,low,false
QyMsc5oH,36818z1kw6qmfrfyj2vkz259guma30,3i0btbyza1yth1cy7nwjpal0zyby0v,QyMsc5oH,2020-0188,2020-05-08,12:29:24,12:47:32,NA,incomplete,217,color,1,right,Red_Plus_Chess_3.jpg,Purple_Star_Grid_3.jpg,Red_Triangle_Dots_2.jpg,left,627.6350000116508,false,low,false
QyMsc5oH,36818z1kw6qmfrfyj2vkz259guma30,3i0btbyza1yth1cy7nwjpal0zyby0v,QyMsc5oH,2020-0188,2020-05-08,12:29:24,12:47:32,NA,incomplete,218,color,1,right,Green_Star_Chess_4.jpg,Blue_Plus_Grid_4.jpg,Green_Circle_Stripes_1.jpg,right,722.3999999987427,true,low,false
QyMsc5oH,36818z1kw6qmfrfyj2vkz259guma30,3i0btbyza1yth1cy7nwjpal0zyby0v,QyMsc5oH,2020-0188,2020-05-08,12:29:24,12:47:32,NA,incomplete,219,color,1,left,Purple_Triangle_Grid_2.jpg,Purple_Circle_Stripes_1.jpg,Blue_Star_Chess_2.jpg,left,637.0200000237674,true,low,false
QyMsc5oH,36818z1kw6qmfrfyj2vkz259guma30,3i0btbyza1yth1cy7nwjpal0zyby0v,QyMsc5oH,2020-0188,2020-05-08,12:29:24,12:47:32,NA,incomplete,220,number,1,right,Purple_Circle_Chess_4.jpg,Purple_Star_Grid_3.jpg,Blue_Plus_Stripes_4.jpg,left,660.2249999996275,false,low,false
QyMsc5oH,36818z1kw6qmfrfyj2vkz259guma30,3i0btbyza1yth1cy7nwjpal0zyby0v,QyMsc5oH,2020-0188,2020-05-08,12:29:24,12:47:32,NA,incomplete,221,number,1,left,Green_Star_Dots_3.jpg,Blue_Plus_Stripes_3.jpg,Green_Triangle_Chess_1.jpg,right,661.549999989802,false,low,false
QyMsc5oH,36818z1kw6qmfrfyj2vkz259guma30,3i0btbyza1yth1cy7nwjpal0zyby0v,QyMsc5oH,2020-0188,2020-05-08,12:29:24,12:47:32,NA,incomplete,222,number,1,left,Purple_Circle_Stripes_2.jpg,Green_Star_Dots_2.jpg,Purple_Triangle_Grid_1.jpg,left,660.954999999376,true,low,false
QyMsc5oH,36818z1kw6qmfrfyj2vkz259guma30,3i0btbyza1yth1cy7nwjpal0zyby0v,QyMsc5oH,2020-0188,2020-05-08,12:29:24,12:47:32,NA,incomplete,223,number,1,left,Green_Star_Grid_3.jpg,Red_Circle_Dots_3.jpg,Green_Plus_Stripes_1.jpg,left,1274.8450000071898,true,low,false
QyMsc5oH,36818z1kw6qmfrfyj2vkz259guma30,3i0btbyza1yth1cy7nwjpal0zyby0v,QyMsc5oH,2020-0188,2020-05-08,12:29:24,12:47:32,NA,incomplete,224,number,1,right,Red_Plus_Stripes_3.jpg,Red_Triangle_Dots_4.jpg,Blue_Circle_Chess_3.jpg,right,1022.1499999752268,true,low,false
QyMsc5oH,36818z1kw6qmfrfyj2vkz259guma30,3i0btbyza1yth1cy7nwjpal0zyby0v,QyMsc5oH,2020-0188,2020-05-08,12:29:24,12:47:32,NA,incomplete,225,number,1,left,Blue_Plus_Dots_4.jpg,Green_Star_Chess_4.jpg,Blue_Circle_Stripes_3.jpg,right,767.1599999885075,false,low,false
QyMsc5oH,36818z1kw6qmfrfyj2vkz259guma30,3i0btbyza1yth1cy7nwjpal0zyby0v,QyMsc5oH,2020-0188,2020-05-08,12:29:24,12:47:32,NA,incomplete,226,number,1,right,Red_Circle_Chess_1.jpg,Red_Triangle_Grid_4.jpg,Blue_Plus_Stripes_1.jpg,right,831.9100000080653,true,low,false
QyMsc5oH,36818z1kw6qmfrfyj2vkz259guma30,3i0btbyza1yth1cy7nwjpal0zyby0v,QyMsc5oH,2020-0188,2020-05-08,12:29:24,12:47:32,NA,incomplete,227,number,1,right,Green_Circle_Dots_2.jpg,Green_Star_Chess_1.jpg,Blue_Triangle_Stripes_2.jpg,right,839.445000019623,true,low,false
QyMsc5oH,36818z1kw6qmfrfyj2vkz259guma30,3i0btbyza1yth1cy7nwjpal0zyby0v,QyMsc5oH,2020-0188,2020-05-08,12:29:24,12:47:32,NA,incomplete,228,number,0,left,Purple_Plus_Chess_2.jpg,Red_Star_Stripes_2.jpg,Purple_Triangle_Dots_4.jpg,left,914.6449999825563,true,low,false
QyMsc5oH,36818z1kw6qmfrfyj2vkz259guma30,3i0btbyza1yth1cy7nwjpal0zyby0v,QyMsc5oH,2020-0188,2020-05-08,12:29:24,12:47:32,NA,incomplete,229,number,1,left,Red_Triangle_Stripes_4.jpg,Green_Circle_Chess_4.jpg,Red_Plus_Dots_3.jpg,left,637.3299999977462,true,low,false
QyMsc5oH,36818z1kw6qmfrfyj2vkz259guma30,3i0btbyza1yth1cy7nwjpal0zyby0v,QyMsc5oH,2020-0188,2020-05-08,12:29:24,12:47:32,NA,incomplete,230,number,1,left,Purple_Star_Dots_2.jpg,Red_Circle_Chess_2.jpg,Purple_Plus_Grid_1.jpg,left,895.9500000055414,true,low,false
QyMsc5oH,36818z1kw6qmfrfyj2vkz259guma30,3i0btbyza1yth1cy7nwjpal0zyby0v,QyMsc5oH,2020-0188,2020-05-08,12:29:24,12:47:32,NA,incomplete,231,number,0,left,Blue_Plus_Stripes_3.jpg,Green_Circle_Chess_3.jpg,Blue_Star_Dots_2.jpg,left,809.9750000110362,true,low,false
QyMsc5oH,36818z1kw6qmfrfyj2vkz259guma30,3i0btbyza1yth1cy7nwjpal0zyby0v,QyMsc5oH,2020-0188,2020-05-08,12:29:24,12:47:32,NA,incomplete,232,number,1,left,Blue_Circle_Chess_2.jpg,Red_Plus_Stripes_2.jpg,Blue_Star_Dots_4.jpg,left,914.4049999886192,true,low,false
QyMsc5oH,36818z1kw6qmfrfyj2vkz259guma30,3i0btbyza1yth1cy7nwjpal0zyby0v,QyMsc5oH,2020-0188,2020-05-08,12:29:24,12:47:32,NA,incomplete,233,number,1,left,Blue_Star_Chess_1.jpg,Green_Triangle_Dots_1.jpg,Blue_Plus_Grid_2.jpg,left,743.270000006305,true,low,false
QyMsc5oH,36818z1kw6qmfrfyj2vkz259guma30,3i0btbyza1yth1cy7nwjpal0zyby0v,QyMsc5oH,2020-0188,2020-05-08,12:29:24,12:47:32,NA,incomplete,234,number,1,right,Red_Triangle_Dots_2.jpg,Red_Plus_Grid_1.jpg,Green_Star_Stripes_2.jpg,right,794.6949999895878,true,low,false
QyMsc5oH,36818z1kw6qmfrfyj2vkz259guma30,3i0btbyza1yth1cy7nwjpal0zyby0v,QyMsc5oH,2020-0188,2020-05-08,12:29:24,12:47:32,NA,incomplete,235,number,0,left,Red_Plus_Chess_1.jpg,Green_Circle_Dots_1.jpg,Red_Star_Stripes_3.jpg,left,969.9099999852479,true,low,false
QyMsc5oH,36818z1kw6qmfrfyj2vkz259guma30,3i0btbyza1yth1cy7nwjpal0zyby0v,QyMsc5oH,2020-0188,2020-05-08,12:29:24,12:47:32,NA,incomplete,236,number,1,left,Red_Circle_Dots_1.jpg,Blue_Triangle_Chess_1.jpg,Red_Plus_Stripes_4.jpg,left,783.5000000195578,true,low,false
QyMsc5oH,36818z1kw6qmfrfyj2vkz259guma30,3i0btbyza1yth1cy7nwjpal0zyby0v,QyMsc5oH,2020-0188,2020-05-08,12:29:24,12:47:32,NA,incomplete,237,number,1,left,Red_Circle_Chess_2.jpg,Blue_Triangle_Stripes_2.jpg,Red_Star_Dots_4.jpg,left,821.2599999969825,true,low,false
QyMsc5oH,36818z1kw6qmfrfyj2vkz259guma30,3i0btbyza1yth1cy7nwjpal0zyby0v,QyMsc5oH,2020-0188,2020-05-08,12:29:24,12:47:32,NA,incomplete,238,number,1,right,Red_Triangle_Dots_4.jpg,Red_Plus_Chess_2.jpg,Blue_Star_Grid_4.jpg,right,835.270000010496,true,low,false
QyMsc5oH,36818z1kw6qmfrfyj2vkz259guma30,3i0btbyza1yth1cy7nwjpal0zyby0v,QyMsc5oH,2020-0188,2020-05-08,12:29:24,12:47:32,NA,incomplete,239,number,1,right,Red_Plus_Stripes_4.jpg,Red_Star_Dots_2.jpg,Purple_Triangle_Grid_4.jpg,right,718.9800000051036,true,low,false
QyMsc5oH,36818z1kw6qmfrfyj2vkz259guma30,3i0btbyza1yth1cy7nwjpal0zyby0v,QyMsc5oH,2020-0188,2020-05-08,12:29:24,12:47:32,1035856.684999977,1088767.7099999855,NA,NA,NA,NA,NA,NA,NA,NA,NA,NA,NA,undefined
