workerId,hitId,assignmentId,subject,studyid,exp_date,exp_start,exp_end,time_start,time_end,trial,type,reward_validity,answer,image_top,image_left,image_right,response,response_time,response_acc,volatility,practice
c64Kj4UD,33ixyhizc8v0km0rv7j1cbq82t9e2g,3igi0vl64bxk8j0326pjyvjctglonj,c64Kj4UD,2020-0188,2020-11-15,09:44:35,10:01:13,NA,incomplete,0,filling,0,left,Green_Star_Dots_1.jpg,Red_Plus_Dots_4.jpg,Purple_Circle_Grid_1.jpg,none,0,false,NA,true
c64Kj4UD,33ixyhizc8v0km0rv7j1cbq82t9e2g,3igi0vl64bxk8j0326pjyvjctglonj,c64Kj4UD,2020-0188,2020-11-15,09:44:35,10:01:13,NA,incomplete,1,filling,1,right,Green_Plus_Stripes_3.jpg,Purple_Circle_Chess_3.jpg,Blue_Triangle_Stripes_4.jpg,right,1608.6650000070222,true,NA,true
c64Kj4UD,33ixyhizc8v0km0rv7j1cbq82t9e2g,3igi0vl64bxk8j0326pjyvjctglonj,c64Kj4UD,2020-0188,2020-11-15,09:44:35,10:01:13,NA,incomplete,2,filling,1,right,Purple_Circle_Chess_3.jpg,Red_Star_Grid_3.jpg,Blue_Plus_Chess_4.jpg,right,1947.920000005979,true,NA,true
c64Kj4UD,33ixyhizc8v0km0rv7j1cbq82t9e2g,3igi0vl64bxk8j0326pjyvjctglonj,c64Kj4UD,2020-0188,2020-11-15,09:44:35,10:01:13,NA,incomplete,3,filling,1,left,Blue_Circle_Stripes_4.jpg,Purple_Star_Stripes_2.jpg,Red_Triangle_Dots_4.jpg,left,1685.21999999939,true,NA,true
c64Kj4UD,33ixyhizc8v0km0rv7j1cbq82t9e2g,3igi0vl64bxk8j0326pjyvjctglonj,c64Kj4UD,2020-0188,2020-11-15,09:44:35,10:01:13,NA,incomplete,4,filling,1,left,Red_Plus_Chess_4.jpg,Blue_Circle_Chess_2.jpg,Purple_Star_Stripes_4.jpg,left,1476.3800000073388,true,NA,true
c64Kj4UD,33ixyhizc8v0km0rv7j1cbq82t9e2g,3igi0vl64bxk8j0326pjyvjctglonj,c64Kj4UD,2020-0188,2020-11-15,09:44:35,10:01:13,NA,incomplete,5,filling,1,left,Purple_Circle_Grid_1.jpg,Green_Plus_Grid_3.jpg,Red_Star_Chess_1.jpg,left,1148.9500000025146,true,NA,true
c64Kj4UD,33ixyhizc8v0km0rv7j1cbq82t9e2g,3igi0vl64bxk8j0326pjyvjctglonj,c64Kj4UD,2020-0188,2020-11-15,09:44:35,10:01:13,NA,incomplete,6,filling,1,left,Green_Star_Dots_3.jpg,Red_Circle_Dots_2.jpg,Blue_Plus_Grid_3.jpg,left,1673.495000010007,true,NA,true
c64Kj4UD,33ixyhizc8v0km0rv7j1cbq82t9e2g,3igi0vl64bxk8j0326pjyvjctglonj,c64Kj4UD,2020-0188,2020-11-15,09:44:35,10:01:13,NA,incomplete,7,filling,1,left,Blue_Plus_Grid_2.jpg,Purple_Circle_Grid_3.jpg,Green_Star_Stripes_2.jpg,left,1414.1100000124425,true,NA,true
c64Kj4UD,33ixyhizc8v0km0rv7j1cbq82t9e2g,3igi0vl64bxk8j0326pjyvjctglonj,c64Kj4UD,2020-0188,2020-11-15,09:44:35,10:01:13,NA,incomplete,8,filling,0,right,Red_Star_Chess_4.jpg,Green_Plus_Dots_4.jpg,Blue_Circle_Chess_3.jpg,right,1618.4299999877112,true,NA,true
c64Kj4UD,33ixyhizc8v0km0rv7j1cbq82t9e2g,3igi0vl64bxk8j0326pjyvjctglonj,c64Kj4UD,2020-0188,2020-11-15,09:44:35,10:01:13,NA,incomplete,9,filling,1,left,Blue_Plus_Stripes_3.jpg,Green_Star_Stripes_2.jpg,Red_Triangle_Dots_3.jpg,left,1454.5450000005076,true,NA,true
c64Kj4UD,33ixyhizc8v0km0rv7j1cbq82t9e2g,3igi0vl64bxk8j0326pjyvjctglonj,c64Kj4UD,2020-0188,2020-11-15,09:44:35,10:01:13,NA,incomplete,10,filling,1,left,Blue_Star_Chess_1.jpg,Green_Triangle_Chess_4.jpg,Red_Circle_Grid_1.jpg,left,1531.0549999994691,true,NA,true
c64Kj4UD,33ixyhizc8v0km0rv7j1cbq82t9e2g,3igi0vl64bxk8j0326pjyvjctglonj,c64Kj4UD,2020-0188,2020-11-15,09:44:35,10:01:13,NA,incomplete,11,filling,1,right,Red_Star_Dots_2.jpg,Purple_Plus_Grid_2.jpg,Blue_Circle_Dots_4.jpg,right,1787.2299999871757,true,NA,true
c64Kj4UD,33ixyhizc8v0km0rv7j1cbq82t9e2g,3igi0vl64bxk8j0326pjyvjctglonj,c64Kj4UD,2020-0188,2020-11-15,09:44:35,10:01:13,NA,incomplete,12,filling,1,right,Green_Star_Chess_4.jpg,Red_Plus_Grid_4.jpg,Purple_Circle_Chess_1.jpg,right,1635.5299999995623,true,NA,true
c64Kj4UD,33ixyhizc8v0km0rv7j1cbq82t9e2g,3igi0vl64bxk8j0326pjyvjctglonj,c64Kj4UD,2020-0188,2020-11-15,09:44:35,10:01:13,NA,incomplete,13,filling,1,right,Red_Plus_Chess_2.jpg,Purple_Circle_Grid_2.jpg,Blue_Star_Chess_3.jpg,right,1601.7500000016298,true,NA,true
c64Kj4UD,33ixyhizc8v0km0rv7j1cbq82t9e2g,3igi0vl64bxk8j0326pjyvjctglonj,c64Kj4UD,2020-0188,2020-11-15,09:44:35,10:01:13,NA,incomplete,14,filling,0,left,Blue_Circle_Grid_2.jpg,Green_Star_Grid_1.jpg,Red_Triangle_Stripes_2.jpg,left,1398.1949999870267,true,NA,true
c64Kj4UD,33ixyhizc8v0km0rv7j1cbq82t9e2g,3igi0vl64bxk8j0326pjyvjctglonj,c64Kj4UD,2020-0188,2020-11-15,09:44:35,10:01:13,NA,incomplete,15,filling,1,left,Blue_Star_Dots_3.jpg,Red_Plus_Dots_4.jpg,Purple_Circle_Chess_3.jpg,left,1822.2449999884702,true,NA,true
c64Kj4UD,33ixyhizc8v0km0rv7j1cbq82t9e2g,3igi0vl64bxk8j0326pjyvjctglonj,c64Kj4UD,2020-0188,2020-11-15,09:44:35,10:01:13,NA,incomplete,16,filling,1,right,Green_Star_Chess_4.jpg,Blue_Circle_Grid_4.jpg,Purple_Triangle_Chess_2.jpg,right,1548.2850000116741,true,NA,true
c64Kj4UD,33ixyhizc8v0km0rv7j1cbq82t9e2g,3igi0vl64bxk8j0326pjyvjctglonj,c64Kj4UD,2020-0188,2020-11-15,09:44:35,10:01:13,NA,incomplete,17,filling,1,left,Green_Circle_Chess_1.jpg,Purple_Triangle_Chess_2.jpg,Red_Plus_Stripes_1.jpg,left,1428.1350000092061,true,NA,true
c64Kj4UD,33ixyhizc8v0km0rv7j1cbq82t9e2g,3igi0vl64bxk8j0326pjyvjctglonj,c64Kj4UD,2020-0188,2020-11-15,09:44:35,10:01:13,NA,incomplete,18,filling,1,left,Purple_Circle_Chess_3.jpg,Blue_Triangle_Chess_1.jpg,Red_Plus_Grid_3.jpg,left,1320.4899999982445,true,NA,true
c64Kj4UD,33ixyhizc8v0km0rv7j1cbq82t9e2g,3igi0vl64bxk8j0326pjyvjctglonj,c64Kj4UD,2020-0188,2020-11-15,09:44:35,10:01:13,NA,incomplete,19,filling,1,right,Red_Plus_Grid_3.jpg,Purple_Triangle_Chess_3.jpg,Green_Circle_Grid_2.jpg,right,1624.6650000102818,true,NA,true
c64Kj4UD,33ixyhizc8v0km0rv7j1cbq82t9e2g,3igi0vl64bxk8j0326pjyvjctglonj,c64Kj4UD,2020-0188,2020-11-15,09:44:35,10:01:13,NA,incomplete,20,number,1,left,Blue_Plus_Grid_4.jpg,Green_Circle_Chess_4.jpg,Red_Star_Grid_2.jpg,left,1871.3750000024447,true,NA,true
c64Kj4UD,33ixyhizc8v0km0rv7j1cbq82t9e2g,3igi0vl64bxk8j0326pjyvjctglonj,c64Kj4UD,2020-0188,2020-11-15,09:44:35,10:01:13,NA,incomplete,21,number,1,left,Red_Triangle_Grid_3.jpg,Blue_Circle_Chess_3.jpg,Green_Star_Grid_1.jpg,left,1262.6299999974435,true,NA,true
c64Kj4UD,33ixyhizc8v0km0rv7j1cbq82t9e2g,3igi0vl64bxk8j0326pjyvjctglonj,c64Kj4UD,2020-0188,2020-11-15,09:44:35,10:01:13,NA,incomplete,22,number,1,left,Blue_Circle_Chess_2.jpg,Red_Star_Grid_2.jpg,Purple_Triangle_Chess_3.jpg,left,1276.6200000041863,true,NA,true
c64Kj4UD,33ixyhizc8v0km0rv7j1cbq82t9e2g,3igi0vl64bxk8j0326pjyvjctglonj,c64Kj4UD,2020-0188,2020-11-15,09:44:35,10:01:13,NA,incomplete,23,number,1,left,Purple_Star_Grid_3.jpg,Green_Circle_Chess_3.jpg,Blue_Triangle_Grid_2.jpg,left,1304.9650000029942,true,NA,true
c64Kj4UD,33ixyhizc8v0km0rv7j1cbq82t9e2g,3igi0vl64bxk8j0326pjyvjctglonj,c64Kj4UD,2020-0188,2020-11-15,09:44:35,10:01:13,NA,incomplete,24,number,1,left,Red_Plus_Chess_4.jpg,Purple_Triangle_Stripes_4.jpg,Blue_Circle_Chess_2.jpg,left,1348.054999994929,true,NA,true
c64Kj4UD,33ixyhizc8v0km0rv7j1cbq82t9e2g,3igi0vl64bxk8j0326pjyvjctglonj,c64Kj4UD,2020-0188,2020-11-15,09:44:35,10:01:13,NA,incomplete,25,number,1,left,Red_Circle_Grid_4.jpg,Blue_Plus_Chess_4.jpg,Green_Star_Grid_3.jpg,left,1027.0500000042375,true,NA,true
c64Kj4UD,33ixyhizc8v0km0rv7j1cbq82t9e2g,3igi0vl64bxk8j0326pjyvjctglonj,c64Kj4UD,2020-0188,2020-11-15,09:44:35,10:01:13,NA,incomplete,26,number,1,right,Purple_Plus_Dots_2.jpg,Red_Circle_Dots_1.jpg,Green_Star_Stripes_2.jpg,right,1335.720000002766,true,NA,true
c64Kj4UD,33ixyhizc8v0km0rv7j1cbq82t9e2g,3igi0vl64bxk8j0326pjyvjctglonj,c64Kj4UD,2020-0188,2020-11-15,09:44:35,10:01:13,NA,incomplete,27,number,1,right,Purple_Circle_Stripes_1.jpg,Blue_Triangle_Stripes_2.jpg,Green_Plus_Grid_1.jpg,right,1191.1649999965448,true,NA,true
c64Kj4UD,33ixyhizc8v0km0rv7j1cbq82t9e2g,3igi0vl64bxk8j0326pjyvjctglonj,c64Kj4UD,2020-0188,2020-11-15,09:44:35,10:01:13,NA,incomplete,28,number,1,left,Blue_Star_Stripes_1.jpg,Green_Plus_Dots_1.jpg,Purple_Circle_Stripes_3.jpg,left,1164.214999997057,true,NA,true
c64Kj4UD,33ixyhizc8v0km0rv7j1cbq82t9e2g,3igi0vl64bxk8j0326pjyvjctglonj,c64Kj4UD,2020-0188,2020-11-15,09:44:35,10:01:13,NA,incomplete,29,number,1,right,Purple_Plus_Chess_4.jpg,Blue_Star_Chess_3.jpg,Red_Triangle_Stripes_4.jpg,right,1337.4849999963772,true,NA,true
c64Kj4UD,33ixyhizc8v0km0rv7j1cbq82t9e2g,3igi0vl64bxk8j0326pjyvjctglonj,c64Kj4UD,2020-0188,2020-11-15,09:44:35,10:01:13,NA,incomplete,30,number,1,left,Green_Star_Chess_1.jpg,Blue_Triangle_Grid_1.jpg,Red_Plus_Chess_3.jpg,left,1037.0499999989988,true,NA,true
c64Kj4UD,33ixyhizc8v0km0rv7j1cbq82t9e2g,3igi0vl64bxk8j0326pjyvjctglonj,c64Kj4UD,2020-0188,2020-11-15,09:44:35,10:01:13,NA,incomplete,31,number,0,left,Green_Plus_Grid_2.jpg,Blue_Star_Dots_2.jpg,Purple_Circle_Grid_3.jpg,left,1051.0099999955855,true,NA,true
c64Kj4UD,33ixyhizc8v0km0rv7j1cbq82t9e2g,3igi0vl64bxk8j0326pjyvjctglonj,c64Kj4UD,2020-0188,2020-11-15,09:44:35,10:01:13,NA,incomplete,32,number,0,left,Red_Plus_Dots_1.jpg,Blue_Triangle_Chess_1.jpg,Purple_Star_Dots_2.jpg,left,1301.7200000031153,true,NA,true
c64Kj4UD,33ixyhizc8v0km0rv7j1cbq82t9e2g,3igi0vl64bxk8j0326pjyvjctglonj,c64Kj4UD,2020-0188,2020-11-15,09:44:35,10:01:13,NA,incomplete,33,number,1,left,Green_Circle_Grid_2.jpg,Purple_Plus_Chess_2.jpg,Blue_Triangle_Grid_1.jpg,left,983.1100000010338,true,NA,true
c64Kj4UD,33ixyhizc8v0km0rv7j1cbq82t9e2g,3igi0vl64bxk8j0326pjyvjctglonj,c64Kj4UD,2020-0188,2020-11-15,09:44:35,10:01:13,NA,incomplete,34,number,1,right,Green_Plus_Grid_3.jpg,Red_Triangle_Grid_4.jpg,Purple_Circle_Chess_3.jpg,right,1478.080000000773,true,NA,true
c64Kj4UD,33ixyhizc8v0km0rv7j1cbq82t9e2g,3igi0vl64bxk8j0326pjyvjctglonj,c64Kj4UD,2020-0188,2020-11-15,09:44:35,10:01:13,NA,incomplete,35,number,0,left,Blue_Triangle_Chess_1.jpg,Red_Star_Grid_1.jpg,Green_Plus_Chess_4.jpg,left,954.9200000037672,true,NA,true
c64Kj4UD,33ixyhizc8v0km0rv7j1cbq82t9e2g,3igi0vl64bxk8j0326pjyvjctglonj,c64Kj4UD,2020-0188,2020-11-15,09:44:35,10:01:13,NA,incomplete,36,number,1,right,Red_Triangle_Stripes_1.jpg,Purple_Plus_Stripes_3.jpg,Blue_Star_Dots_1.jpg,right,1053.025000001071,true,NA,true
c64Kj4UD,33ixyhizc8v0km0rv7j1cbq82t9e2g,3igi0vl64bxk8j0326pjyvjctglonj,c64Kj4UD,2020-0188,2020-11-15,09:44:35,10:01:13,NA,incomplete,37,number,1,left,Red_Plus_Dots_3.jpg,Green_Star_Stripes_3.jpg,Blue_Triangle_Dots_2.jpg,left,929.8850000050152,true,NA,true
c64Kj4UD,33ixyhizc8v0km0rv7j1cbq82t9e2g,3igi0vl64bxk8j0326pjyvjctglonj,c64Kj4UD,2020-0188,2020-11-15,09:44:35,10:01:13,NA,incomplete,38,number,0,right,Red_Triangle_Dots_2.jpg,Blue_Star_Dots_1.jpg,Purple_Circle_Grid_2.jpg,right,885.7749999879161,true,NA,true
c64Kj4UD,33ixyhizc8v0km0rv7j1cbq82t9e2g,3igi0vl64bxk8j0326pjyvjctglonj,c64Kj4UD,2020-0188,2020-11-15,09:44:35,10:01:13,NA,incomplete,39,number,0,left,Purple_Circle_Dots_4.jpg,Blue_Star_Grid_4.jpg,Red_Plus_Dots_1.jpg,left,1425.8949999930337,true,NA,true
c64Kj4UD,33ixyhizc8v0km0rv7j1cbq82t9e2g,3igi0vl64bxk8j0326pjyvjctglonj,c64Kj4UD,2020-0188,2020-11-15,09:44:35,10:01:13,NA,incomplete,0,filling,1,left,Green_Triangle_Chess_1.jpg,Purple_Plus_Chess_3.jpg,Red_Circle_Stripes_1.jpg,left,1075.024999998277,true,low,false
c64Kj4UD,33ixyhizc8v0km0rv7j1cbq82t9e2g,3igi0vl64bxk8j0326pjyvjctglonj,c64Kj4UD,2020-0188,2020-11-15,09:44:35,10:01:13,NA,incomplete,1,filling,1,left,Green_Triangle_Dots_1.jpg,Blue_Circle_Dots_4.jpg,Red_Star_Stripes_1.jpg,left,990.0600000109989,true,low,false
c64Kj4UD,33ixyhizc8v0km0rv7j1cbq82t9e2g,3igi0vl64bxk8j0326pjyvjctglonj,c64Kj4UD,2020-0188,2020-11-15,09:44:35,10:01:13,NA,incomplete,2,filling,1,left,Purple_Triangle_Grid_3.jpg,Blue_Plus_Grid_4.jpg,Red_Star_Stripes_3.jpg,left,1005.5750000028638,true,low,false
c64Kj4UD,33ixyhizc8v0km0rv7j1cbq82t9e2g,3igi0vl64bxk8j0326pjyvjctglonj,c64Kj4UD,2020-0188,2020-11-15,09:44:35,10:01:13,NA,incomplete,3,filling,1,left,Red_Plus_Dots_4.jpg,Purple_Star_Dots_3.jpg,Green_Circle_Chess_4.jpg,left,1182.66500000027,true,low,false
c64Kj4UD,33ixyhizc8v0km0rv7j1cbq82t9e2g,3igi0vl64bxk8j0326pjyvjctglonj,c64Kj4UD,2020-0188,2020-11-15,09:44:35,10:01:13,NA,incomplete,4,filling,1,left,Purple_Star_Stripes_1.jpg,Red_Circle_Stripes_2.jpg,Blue_Plus_Dots_1.jpg,left,1013.9349999953993,true,low,false
c64Kj4UD,33ixyhizc8v0km0rv7j1cbq82t9e2g,3igi0vl64bxk8j0326pjyvjctglonj,c64Kj4UD,2020-0188,2020-11-15,09:44:35,10:01:13,NA,incomplete,5,filling,1,right,Purple_Plus_Chess_1.jpg,Blue_Circle_Grid_1.jpg,Green_Triangle_Chess_3.jpg,right,1139.0000000101281,true,low,false
c64Kj4UD,33ixyhizc8v0km0rv7j1cbq82t9e2g,3igi0vl64bxk8j0326pjyvjctglonj,c64Kj4UD,2020-0188,2020-11-15,09:44:35,10:01:13,NA,incomplete,6,filling,1,left,Purple_Triangle_Grid_4.jpg,Red_Plus_Grid_2.jpg,Green_Star_Stripes_4.jpg,left,1072.680000012042,true,low,false
c64Kj4UD,33ixyhizc8v0km0rv7j1cbq82t9e2g,3igi0vl64bxk8j0326pjyvjctglonj,c64Kj4UD,2020-0188,2020-11-15,09:44:35,10:01:13,NA,incomplete,7,filling,1,right,Green_Triangle_Chess_3.jpg,Purple_Circle_Stripes_3.jpg,Red_Star_Chess_2.jpg,right,1073.8799999962794,true,low,false
c64Kj4UD,33ixyhizc8v0km0rv7j1cbq82t9e2g,3igi0vl64bxk8j0326pjyvjctglonj,c64Kj4UD,2020-0188,2020-11-15,09:44:35,10:01:13,NA,incomplete,8,filling,1,left,Purple_Plus_Stripes_3.jpg,Red_Star_Stripes_2.jpg,Blue_Circle_Dots_3.jpg,left,1187.0950000011362,true,low,false
c64Kj4UD,33ixyhizc8v0km0rv7j1cbq82t9e2g,3igi0vl64bxk8j0326pjyvjctglonj,c64Kj4UD,2020-0188,2020-11-15,09:44:35,10:01:13,NA,incomplete,9,filling,1,right,Blue_Circle_Dots_3.jpg,Purple_Triangle_Stripes_3.jpg,Red_Star_Dots_1.jpg,right,1150.485000005574,true,low,false
c64Kj4UD,33ixyhizc8v0km0rv7j1cbq82t9e2g,3igi0vl64bxk8j0326pjyvjctglonj,c64Kj4UD,2020-0188,2020-11-15,09:44:35,10:01:13,NA,incomplete,10,filling,1,left,Red_Star_Stripes_1.jpg,Blue_Circle_Stripes_2.jpg,Purple_Triangle_Dots_1.jpg,left,934.4300000084331,true,low,false
c64Kj4UD,33ixyhizc8v0km0rv7j1cbq82t9e2g,3igi0vl64bxk8j0326pjyvjctglonj,c64Kj4UD,2020-0188,2020-11-15,09:44:35,10:01:13,NA,incomplete,11,filling,0,right,Purple_Plus_Dots_2.jpg,Green_Circle_Stripes_2.jpg,Red_Star_Dots_4.jpg,right,1285.3049999976065,true,low,false
c64Kj4UD,33ixyhizc8v0km0rv7j1cbq82t9e2g,3igi0vl64bxk8j0326pjyvjctglonj,c64Kj4UD,2020-0188,2020-11-15,09:44:35,10:01:13,NA,incomplete,12,filling,0,right,Blue_Triangle_Chess_1.jpg,Red_Plus_Dots_1.jpg,Purple_Star_Chess_3.jpg,right,962.1199999965029,true,low,false
c64Kj4UD,33ixyhizc8v0km0rv7j1cbq82t9e2g,3igi0vl64bxk8j0326pjyvjctglonj,c64Kj4UD,2020-0188,2020-11-15,09:44:35,10:01:13,NA,incomplete,13,filling,1,left,Blue_Plus_Stripes_3.jpg,Purple_Triangle_Stripes_1.jpg,Green_Circle_Dots_3.jpg,left,1077.869999993709,true,low,false
c64Kj4UD,33ixyhizc8v0km0rv7j1cbq82t9e2g,3igi0vl64bxk8j0326pjyvjctglonj,c64Kj4UD,2020-0188,2020-11-15,09:44:35,10:01:13,NA,incomplete,14,filling,0,left,Green_Star_Chess_4.jpg,Blue_Plus_Chess_3.jpg,Red_Circle_Grid_4.jpg,left,1147.2150000045076,true,low,false
c64Kj4UD,33ixyhizc8v0km0rv7j1cbq82t9e2g,3igi0vl64bxk8j0326pjyvjctglonj,c64Kj4UD,2020-0188,2020-11-15,09:44:35,10:01:13,NA,incomplete,15,filling,1,left,Red_Triangle_Grid_1.jpg,Blue_Circle_Grid_3.jpg,Purple_Star_Chess_1.jpg,right,1176.3499999942724,false,low,false
c64Kj4UD,33ixyhizc8v0km0rv7j1cbq82t9e2g,3igi0vl64bxk8j0326pjyvjctglonj,c64Kj4UD,2020-0188,2020-11-15,09:44:35,10:01:13,NA,incomplete,16,filling,1,left,Green_Circle_Grid_2.jpg,Purple_Triangle_Grid_1.jpg,Red_Star_Stripes_2.jpg,right,826.1950000014622,false,low,false
c64Kj4UD,33ixyhizc8v0km0rv7j1cbq82t9e2g,3igi0vl64bxk8j0326pjyvjctglonj,c64Kj4UD,2020-0188,2020-11-15,09:44:35,10:01:13,NA,incomplete,17,filling,1,right,Blue_Star_Stripes_2.jpg,Green_Circle_Dots_2.jpg,Red_Plus_Stripes_4.jpg,right,1179.8300000082236,true,low,false
c64Kj4UD,33ixyhizc8v0km0rv7j1cbq82t9e2g,3igi0vl64bxk8j0326pjyvjctglonj,c64Kj4UD,2020-0188,2020-11-15,09:44:35,10:01:13,NA,incomplete,18,filling,1,right,Purple_Plus_Dots_2.jpg,Green_Star_Stripes_2.jpg,Blue_Triangle_Dots_3.jpg,right,1201.6550000116695,true,low,false
c64Kj4UD,33ixyhizc8v0km0rv7j1cbq82t9e2g,3igi0vl64bxk8j0326pjyvjctglonj,c64Kj4UD,2020-0188,2020-11-15,09:44:35,10:01:13,NA,incomplete,19,filling,1,left,Blue_Circle_Chess_4.jpg,Red_Triangle_Chess_1.jpg,Green_Star_Stripes_4.jpg,left,947.424999991199,true,low,false
c64Kj4UD,33ixyhizc8v0km0rv7j1cbq82t9e2g,3igi0vl64bxk8j0326pjyvjctglonj,c64Kj4UD,2020-0188,2020-11-15,09:44:35,10:01:13,NA,incomplete,20,filling,1,right,Red_Circle_Dots_4.jpg,Blue_Star_Grid_4.jpg,Purple_Triangle_Dots_2.jpg,right,1057.7750000084052,true,low,false
c64Kj4UD,33ixyhizc8v0km0rv7j1cbq82t9e2g,3igi0vl64bxk8j0326pjyvjctglonj,c64Kj4UD,2020-0188,2020-11-15,09:44:35,10:01:13,NA,incomplete,21,filling,1,right,Purple_Star_Grid_1.jpg,Blue_Plus_Chess_1.jpg,Red_Circle_Grid_3.jpg,right,1028.2850000075996,true,low,false
c64Kj4UD,33ixyhizc8v0km0rv7j1cbq82t9e2g,3igi0vl64bxk8j0326pjyvjctglonj,c64Kj4UD,2020-0188,2020-11-15,09:44:35,10:01:13,NA,incomplete,22,filling,0,left,Green_Plus_Chess_3.jpg,Blue_Circle_Chess_1.jpg,Red_Star_Dots_3.jpg,left,970.8350000000792,true,low,false
c64Kj4UD,33ixyhizc8v0km0rv7j1cbq82t9e2g,3igi0vl64bxk8j0326pjyvjctglonj,c64Kj4UD,2020-0188,2020-11-15,09:44:35,10:01:13,NA,incomplete,23,filling,1,right,Red_Circle_Dots_1.jpg,Green_Triangle_Stripes_1.jpg,Blue_Star_Dots_4.jpg,right,952.3449999978766,true,low,false
c64Kj4UD,33ixyhizc8v0km0rv7j1cbq82t9e2g,3igi0vl64bxk8j0326pjyvjctglonj,c64Kj4UD,2020-0188,2020-11-15,09:44:35,10:01:13,NA,incomplete,24,filling,0,right,Purple_Plus_Chess_1.jpg,Green_Star_Grid_1.jpg,Blue_Circle_Chess_2.jpg,right,930.7499999995343,true,low,false
c64Kj4UD,33ixyhizc8v0km0rv7j1cbq82t9e2g,3igi0vl64bxk8j0326pjyvjctglonj,c64Kj4UD,2020-0188,2020-11-15,09:44:35,10:01:13,NA,incomplete,25,filling,0,right,Blue_Triangle_Dots_1.jpg,Red_Circle_Chess_1.jpg,Green_Plus_Dots_4.jpg,right,1103.6600000079488,true,low,false
c64Kj4UD,33ixyhizc8v0km0rv7j1cbq82t9e2g,3igi0vl64bxk8j0326pjyvjctglonj,c64Kj4UD,2020-0188,2020-11-15,09:44:35,10:01:13,NA,incomplete,26,filling,1,left,Green_Star_Dots_3.jpg,Blue_Plus_Dots_4.jpg,Red_Circle_Chess_3.jpg,left,1198.259999990114,true,low,false
c64Kj4UD,33ixyhizc8v0km0rv7j1cbq82t9e2g,3igi0vl64bxk8j0326pjyvjctglonj,c64Kj4UD,2020-0188,2020-11-15,09:44:35,10:01:13,NA,incomplete,27,filling,1,left,Green_Plus_Chess_4.jpg,Blue_Triangle_Chess_2.jpg,Red_Circle_Grid_4.jpg,left,1125.994999994873,true,low,false
c64Kj4UD,33ixyhizc8v0km0rv7j1cbq82t9e2g,3igi0vl64bxk8j0326pjyvjctglonj,c64Kj4UD,2020-0188,2020-11-15,09:44:35,10:01:13,NA,incomplete,28,filling,1,right,Purple_Circle_Chess_1.jpg,Blue_Triangle_Dots_1.jpg,Red_Star_Chess_4.jpg,right,1041.7100000049686,true,low,false
c64Kj4UD,33ixyhizc8v0km0rv7j1cbq82t9e2g,3igi0vl64bxk8j0326pjyvjctglonj,c64Kj4UD,2020-0188,2020-11-15,09:44:35,10:01:13,NA,incomplete,29,filling,1,left,Purple_Circle_Grid_3.jpg,Blue_Plus_Grid_2.jpg,Red_Star_Dots_3.jpg,left,962.5300000043353,true,low,false
c64Kj4UD,33ixyhizc8v0km0rv7j1cbq82t9e2g,3igi0vl64bxk8j0326pjyvjctglonj,c64Kj4UD,2020-0188,2020-11-15,09:44:35,10:01:13,NA,incomplete,30,number,1,right,Green_Plus_Chess_1.jpg,Blue_Triangle_Chess_2.jpg,Red_Circle_Grid_1.jpg,left,954.7599999932572,false,low,false
c64Kj4UD,33ixyhizc8v0km0rv7j1cbq82t9e2g,3igi0vl64bxk8j0326pjyvjctglonj,c64Kj4UD,2020-0188,2020-11-15,09:44:35,10:01:13,NA,incomplete,31,number,1,left,Purple_Star_Chess_2.jpg,Red_Plus_Dots_2.jpg,Green_Triangle_Chess_4.jpg,right,1176.210000005085,false,low,false
c64Kj4UD,33ixyhizc8v0km0rv7j1cbq82t9e2g,3igi0vl64bxk8j0326pjyvjctglonj,c64Kj4UD,2020-0188,2020-11-15,09:44:35,10:01:13,NA,incomplete,32,number,1,right,Purple_Plus_Dots_1.jpg,Green_Circle_Dots_3.jpg,Blue_Triangle_Stripes_1.jpg,left,1033.9700000040466,false,low,false
c64Kj4UD,33ixyhizc8v0km0rv7j1cbq82t9e2g,3igi0vl64bxk8j0326pjyvjctglonj,c64Kj4UD,2020-0188,2020-11-15,09:44:35,10:01:13,NA,incomplete,33,number,1,right,Red_Circle_Stripes_2.jpg,Purple_Plus_Stripes_4.jpg,Blue_Triangle_Grid_2.jpg,left,1013.279999999213,false,low,false
c64Kj4UD,33ixyhizc8v0km0rv7j1cbq82t9e2g,3igi0vl64bxk8j0326pjyvjctglonj,c64Kj4UD,2020-0188,2020-11-15,09:44:35,10:01:13,NA,incomplete,34,number,1,left,Blue_Star_Chess_3.jpg,Purple_Triangle_Dots_3.jpg,Red_Plus_Chess_4.jpg,left,1141.7550000041956,true,low,false
c64Kj4UD,33ixyhizc8v0km0rv7j1cbq82t9e2g,3igi0vl64bxk8j0326pjyvjctglonj,c64Kj4UD,2020-0188,2020-11-15,09:44:35,10:01:13,NA,incomplete,35,number,1,right,Purple_Triangle_Stripes_3.jpg,Blue_Circle_Stripes_1.jpg,Green_Plus_Grid_3.jpg,right,830.7300000014948,true,low,false
c64Kj4UD,33ixyhizc8v0km0rv7j1cbq82t9e2g,3igi0vl64bxk8j0326pjyvjctglonj,c64Kj4UD,2020-0188,2020-11-15,09:44:35,10:01:13,NA,incomplete,36,number,0,right,Blue_Star_Dots_4.jpg,Red_Triangle_Dots_1.jpg,Green_Circle_Stripes_4.jpg,right,946.8150000029709,true,low,false
c64Kj4UD,33ixyhizc8v0km0rv7j1cbq82t9e2g,3igi0vl64bxk8j0326pjyvjctglonj,c64Kj4UD,2020-0188,2020-11-15,09:44:35,10:01:13,NA,incomplete,37,number,1,left,Green_Triangle_Stripes_4.jpg,Red_Circle_Chess_4.jpg,Blue_Plus_Stripes_3.jpg,left,857.1200000005774,true,low,false
c64Kj4UD,33ixyhizc8v0km0rv7j1cbq82t9e2g,3igi0vl64bxk8j0326pjyvjctglonj,c64Kj4UD,2020-0188,2020-11-15,09:44:35,10:01:13,NA,incomplete,38,number,1,right,Red_Plus_Dots_4.jpg,Blue_Circle_Dots_1.jpg,Green_Triangle_Stripes_4.jpg,right,911.5900000033434,true,low,false
c64Kj4UD,33ixyhizc8v0km0rv7j1cbq82t9e2g,3igi0vl64bxk8j0326pjyvjctglonj,c64Kj4UD,2020-0188,2020-11-15,09:44:35,10:01:13,NA,incomplete,39,number,1,right,Purple_Star_Grid_2.jpg,Green_Plus_Grid_1.jpg,Blue_Circle_Chess_2.jpg,right,965.730000010808,true,low,false
c64Kj4UD,33ixyhizc8v0km0rv7j1cbq82t9e2g,3igi0vl64bxk8j0326pjyvjctglonj,c64Kj4UD,2020-0188,2020-11-15,09:44:35,10:01:13,NA,incomplete,40,number,1,right,Red_Star_Chess_3.jpg,Purple_Plus_Chess_1.jpg,Green_Circle_Stripes_3.jpg,right,955.5200000031618,true,low,false
c64Kj4UD,33ixyhizc8v0km0rv7j1cbq82t9e2g,3igi0vl64bxk8j0326pjyvjctglonj,c64Kj4UD,2020-0188,2020-11-15,09:44:35,10:01:13,NA,incomplete,41,number,1,left,Red_Circle_Dots_1.jpg,Blue_Star_Stripes_1.jpg,Purple_Triangle_Dots_4.jpg,left,976.6600000002654,true,low,false
c64Kj4UD,33ixyhizc8v0km0rv7j1cbq82t9e2g,3igi0vl64bxk8j0326pjyvjctglonj,c64Kj4UD,2020-0188,2020-11-15,09:44:35,10:01:13,NA,incomplete,42,number,1,left,Green_Triangle_Grid_3.jpg,Red_Plus_Chess_3.jpg,Purple_Circle_Grid_2.jpg,left,1038.7249999912456,true,low,false
c64Kj4UD,33ixyhizc8v0km0rv7j1cbq82t9e2g,3igi0vl64bxk8j0326pjyvjctglonj,c64Kj4UD,2020-0188,2020-11-15,09:44:35,10:01:13,NA,incomplete,43,number,1,right,Blue_Circle_Dots_2.jpg,Purple_Triangle_Dots_1.jpg,Green_Star_Chess_2.jpg,right,869.38000000373,true,low,false
c64Kj4UD,33ixyhizc8v0km0rv7j1cbq82t9e2g,3igi0vl64bxk8j0326pjyvjctglonj,c64Kj4UD,2020-0188,2020-11-15,09:44:35,10:01:13,NA,incomplete,44,number,1,left,Blue_Triangle_Dots_3.jpg,Purple_Plus_Grid_3.jpg,Green_Star_Dots_1.jpg,left,986.8100000021514,true,low,false
c64Kj4UD,33ixyhizc8v0km0rv7j1cbq82t9e2g,3igi0vl64bxk8j0326pjyvjctglonj,c64Kj4UD,2020-0188,2020-11-15,09:44:35,10:01:13,NA,incomplete,45,number,1,right,Purple_Circle_Dots_1.jpg,Blue_Triangle_Dots_2.jpg,Red_Plus_Chess_1.jpg,right,953.0650000087917,true,low,false
c64Kj4UD,33ixyhizc8v0km0rv7j1cbq82t9e2g,3igi0vl64bxk8j0326pjyvjctglonj,c64Kj4UD,2020-0188,2020-11-15,09:44:35,10:01:13,NA,incomplete,46,number,1,left,Red_Circle_Grid_4.jpg,Purple_Triangle_Stripes_4.jpg,Blue_Plus_Grid_3.jpg,left,920.2299999888055,true,low,false
c64Kj4UD,33ixyhizc8v0km0rv7j1cbq82t9e2g,3igi0vl64bxk8j0326pjyvjctglonj,c64Kj4UD,2020-0188,2020-11-15,09:44:35,10:01:13,NA,incomplete,47,number,1,right,Blue_Plus_Stripes_3.jpg,Purple_Triangle_Stripes_4.jpg,Red_Circle_Grid_3.jpg,right,1023.6049999948591,true,low,false
c64Kj4UD,33ixyhizc8v0km0rv7j1cbq82t9e2g,3igi0vl64bxk8j0326pjyvjctglonj,c64Kj4UD,2020-0188,2020-11-15,09:44:35,10:01:13,NA,incomplete,48,number,0,right,Red_Plus_Dots_2.jpg,Green_Star_Dots_3.jpg,Purple_Circle_Chess_2.jpg,right,1096.4600000006612,true,low,false
c64Kj4UD,33ixyhizc8v0km0rv7j1cbq82t9e2g,3igi0vl64bxk8j0326pjyvjctglonj,c64Kj4UD,2020-0188,2020-11-15,09:44:35,10:01:13,NA,incomplete,49,number,0,right,Red_Star_Stripes_4.jpg,Blue_Circle_Stripes_2.jpg,Purple_Plus_Grid_4.jpg,right,813.2200000109151,true,low,false
c64Kj4UD,33ixyhizc8v0km0rv7j1cbq82t9e2g,3igi0vl64bxk8j0326pjyvjctglonj,c64Kj4UD,2020-0188,2020-11-15,09:44:35,10:01:13,NA,incomplete,50,number,1,right,Red_Plus_Chess_4.jpg,Blue_Triangle_Chess_1.jpg,Green_Circle_Dots_4.jpg,right,829.0549999946961,true,low,false
c64Kj4UD,33ixyhizc8v0km0rv7j1cbq82t9e2g,3igi0vl64bxk8j0326pjyvjctglonj,c64Kj4UD,2020-0188,2020-11-15,09:44:35,10:01:13,NA,incomplete,51,number,1,left,Red_Circle_Grid_4.jpg,Blue_Plus_Stripes_4.jpg,Purple_Triangle_Grid_1.jpg,left,861.864999998943,true,low,false
c64Kj4UD,33ixyhizc8v0km0rv7j1cbq82t9e2g,3igi0vl64bxk8j0326pjyvjctglonj,c64Kj4UD,2020-0188,2020-11-15,09:44:35,10:01:13,NA,incomplete,52,number,0,right,Blue_Circle_Stripes_3.jpg,Purple_Plus_Stripes_2.jpg,Red_Star_Chess_3.jpg,right,858.9550000033341,true,low,false
c64Kj4UD,33ixyhizc8v0km0rv7j1cbq82t9e2g,3igi0vl64bxk8j0326pjyvjctglonj,c64Kj4UD,2020-0188,2020-11-15,09:44:35,10:01:13,NA,incomplete,53,number,0,right,Blue_Star_Dots_2.jpg,Green_Plus_Dots_3.jpg,Purple_Triangle_Stripes_2.jpg,right,828.6050000024261,true,low,false
c64Kj4UD,33ixyhizc8v0km0rv7j1cbq82t9e2g,3igi0vl64bxk8j0326pjyvjctglonj,c64Kj4UD,2020-0188,2020-11-15,09:44:35,10:01:13,NA,incomplete,54,number,1,left,Blue_Star_Grid_3.jpg,Red_Plus_Stripes_3.jpg,Green_Triangle_Grid_1.jpg,left,878.2950000022538,true,low,false
c64Kj4UD,33ixyhizc8v0km0rv7j1cbq82t9e2g,3igi0vl64bxk8j0326pjyvjctglonj,c64Kj4UD,2020-0188,2020-11-15,09:44:35,10:01:13,NA,incomplete,55,number,1,right,Purple_Star_Stripes_2.jpg,Green_Plus_Stripes_4.jpg,Red_Circle_Dots_2.jpg,right,1192.219999997178,true,low,false
c64Kj4UD,33ixyhizc8v0km0rv7j1cbq82t9e2g,3igi0vl64bxk8j0326pjyvjctglonj,c64Kj4UD,2020-0188,2020-11-15,09:44:35,10:01:13,NA,incomplete,56,number,1,left,Red_Plus_Dots_3.jpg,Green_Triangle_Chess_3.jpg,Purple_Star_Dots_2.jpg,left,885.8900000050198,true,low,false
c64Kj4UD,33ixyhizc8v0km0rv7j1cbq82t9e2g,3igi0vl64bxk8j0326pjyvjctglonj,c64Kj4UD,2020-0188,2020-11-15,09:44:35,10:01:13,NA,incomplete,57,number,1,right,Purple_Star_Chess_2.jpg,Blue_Circle_Chess_4.jpg,Red_Triangle_Grid_2.jpg,right,907.9449999990175,true,low,false
c64Kj4UD,33ixyhizc8v0km0rv7j1cbq82t9e2g,3igi0vl64bxk8j0326pjyvjctglonj,c64Kj4UD,2020-0188,2020-11-15,09:44:35,10:01:13,NA,incomplete,58,number,1,right,Red_Triangle_Dots_3.jpg,Purple_Star_Dots_4.jpg,Blue_Circle_Stripes_3.jpg,right,896.8849999946542,true,low,false
c64Kj4UD,33ixyhizc8v0km0rv7j1cbq82t9e2g,3igi0vl64bxk8j0326pjyvjctglonj,c64Kj4UD,2020-0188,2020-11-15,09:44:35,10:01:13,NA,incomplete,59,number,1,left,Red_Triangle_Stripes_4.jpg,Green_Circle_Dots_4.jpg,Purple_Star_Stripes_2.jpg,left,958.9600000035716,true,low,false
c64Kj4UD,33ixyhizc8v0km0rv7j1cbq82t9e2g,3igi0vl64bxk8j0326pjyvjctglonj,c64Kj4UD,2020-0188,2020-11-15,09:44:35,10:01:13,NA,incomplete,60,filling,0,left,Blue_Triangle_Dots_1.jpg,Green_Star_Dots_2.jpg,Red_Plus_Stripes_1.jpg,right,870.0550000066869,false,low,false
c64Kj4UD,33ixyhizc8v0km0rv7j1cbq82t9e2g,3igi0vl64bxk8j0326pjyvjctglonj,c64Kj4UD,2020-0188,2020-11-15,09:44:35,10:01:13,NA,incomplete,61,filling,1,left,Green_Star_Stripes_1.jpg,Red_Triangle_Stripes_3.jpg,Purple_Plus_Chess_1.jpg,right,878.3649999968475,false,low,false
c64Kj4UD,33ixyhizc8v0km0rv7j1cbq82t9e2g,3igi0vl64bxk8j0326pjyvjctglonj,c64Kj4UD,2020-0188,2020-11-15,09:44:35,10:01:13,NA,incomplete,62,filling,1,right,Green_Triangle_Chess_2.jpg,Purple_Star_Stripes_2.jpg,Blue_Plus_Chess_4.jpg,left,827.0849999971688,false,low,false
c64Kj4UD,33ixyhizc8v0km0rv7j1cbq82t9e2g,3igi0vl64bxk8j0326pjyvjctglonj,c64Kj4UD,2020-0188,2020-11-15,09:44:35,10:01:13,NA,incomplete,63,filling,1,left,Blue_Plus_Stripes_4.jpg,Green_Star_Stripes_3.jpg,Red_Circle_Grid_4.jpg,right,866.1500000016531,false,low,false
c64Kj4UD,33ixyhizc8v0km0rv7j1cbq82t9e2g,3igi0vl64bxk8j0326pjyvjctglonj,c64Kj4UD,2020-0188,2020-11-15,09:44:35,10:01:13,NA,incomplete,64,filling,1,left,Purple_Plus_Chess_2.jpg,Red_Triangle_Chess_3.jpg,Green_Circle_Dots_2.jpg,right,986.7850000009639,false,low,false
c64Kj4UD,33ixyhizc8v0km0rv7j1cbq82t9e2g,3igi0vl64bxk8j0326pjyvjctglonj,c64Kj4UD,2020-0188,2020-11-15,09:44:35,10:01:13,NA,incomplete,65,filling,1,left,Purple_Plus_Dots_4.jpg,Red_Triangle_Dots_1.jpg,Green_Star_Chess_4.jpg,left,1164.4649999943795,true,low,false
c64Kj4UD,33ixyhizc8v0km0rv7j1cbq82t9e2g,3igi0vl64bxk8j0326pjyvjctglonj,c64Kj4UD,2020-0188,2020-11-15,09:44:35,10:01:13,NA,incomplete,66,filling,1,left,Red_Star_Chess_3.jpg,Green_Triangle_Chess_2.jpg,Purple_Circle_Grid_3.jpg,left,1087.2699999890756,true,low,false
c64Kj4UD,33ixyhizc8v0km0rv7j1cbq82t9e2g,3igi0vl64bxk8j0326pjyvjctglonj,c64Kj4UD,2020-0188,2020-11-15,09:44:35,10:01:13,NA,incomplete,67,filling,1,left,Green_Circle_Dots_2.jpg,Purple_Star_Dots_3.jpg,Red_Plus_Chess_2.jpg,left,1120.9450000023935,true,low,false
c64Kj4UD,33ixyhizc8v0km0rv7j1cbq82t9e2g,3igi0vl64bxk8j0326pjyvjctglonj,c64Kj4UD,2020-0188,2020-11-15,09:44:35,10:01:13,NA,incomplete,68,filling,0,left,Red_Triangle_Stripes_3.jpg,Blue_Circle_Stripes_4.jpg,Purple_Star_Grid_3.jpg,left,968.9650000073016,true,low,false
c64Kj4UD,33ixyhizc8v0km0rv7j1cbq82t9e2g,3igi0vl64bxk8j0326pjyvjctglonj,c64Kj4UD,2020-0188,2020-11-15,09:44:35,10:01:13,NA,incomplete,69,filling,0,right,Red_Triangle_Grid_1.jpg,Green_Plus_Dots_1.jpg,Blue_Circle_Grid_2.jpg,right,846.47999999288,true,low,false
c64Kj4UD,33ixyhizc8v0km0rv7j1cbq82t9e2g,3igi0vl64bxk8j0326pjyvjctglonj,c64Kj4UD,2020-0188,2020-11-15,09:44:35,10:01:13,NA,incomplete,70,filling,1,left,Red_Circle_Grid_3.jpg,Purple_Star_Grid_1.jpg,Green_Plus_Stripes_3.jpg,left,1048.3700000040699,true,low,false
c64Kj4UD,33ixyhizc8v0km0rv7j1cbq82t9e2g,3igi0vl64bxk8j0326pjyvjctglonj,c64Kj4UD,2020-0188,2020-11-15,09:44:35,10:01:13,NA,incomplete,71,filling,0,left,Purple_Star_Grid_2.jpg,Blue_Circle_Grid_3.jpg,Red_Plus_Chess_2.jpg,left,1113.1100000056904,true,low,false
c64Kj4UD,33ixyhizc8v0km0rv7j1cbq82t9e2g,3igi0vl64bxk8j0326pjyvjctglonj,c64Kj4UD,2020-0188,2020-11-15,09:44:35,10:01:13,NA,incomplete,72,filling,1,left,Green_Plus_Chess_1.jpg,Purple_Circle_Chess_4.jpg,Blue_Triangle_Stripes_1.jpg,left,982.0500000059837,true,low,false
c64Kj4UD,33ixyhizc8v0km0rv7j1cbq82t9e2g,3igi0vl64bxk8j0326pjyvjctglonj,c64Kj4UD,2020-0188,2020-11-15,09:44:35,10:01:13,NA,incomplete,73,filling,0,left,Green_Triangle_Dots_2.jpg,Purple_Plus_Dots_3.jpg,Red_Circle_Stripes_2.jpg,left,1198.5049999930197,true,low,false
c64Kj4UD,33ixyhizc8v0km0rv7j1cbq82t9e2g,3igi0vl64bxk8j0326pjyvjctglonj,c64Kj4UD,2020-0188,2020-11-15,09:44:35,10:01:13,NA,incomplete,74,filling,1,right,Red_Plus_Dots_2.jpg,Purple_Circle_Chess_2.jpg,Green_Star_Dots_3.jpg,right,1258.4749999950873,true,low,false
c64Kj4UD,33ixyhizc8v0km0rv7j1cbq82t9e2g,3igi0vl64bxk8j0326pjyvjctglonj,c64Kj4UD,2020-0188,2020-11-15,09:44:35,10:01:13,NA,incomplete,75,filling,1,left,Purple_Triangle_Dots_3.jpg,Blue_Circle_Dots_1.jpg,Red_Plus_Chess_3.jpg,left,963.8399999967078,true,low,false
c64Kj4UD,33ixyhizc8v0km0rv7j1cbq82t9e2g,3igi0vl64bxk8j0326pjyvjctglonj,c64Kj4UD,2020-0188,2020-11-15,09:44:35,10:01:13,NA,incomplete,76,filling,0,right,Red_Plus_Grid_3.jpg,Blue_Circle_Stripes_3.jpg,Purple_Triangle_Grid_4.jpg,right,995.6549999915296,true,low,false
c64Kj4UD,33ixyhizc8v0km0rv7j1cbq82t9e2g,3igi0vl64bxk8j0326pjyvjctglonj,c64Kj4UD,2020-0188,2020-11-15,09:44:35,10:01:13,NA,incomplete,77,filling,1,left,Red_Triangle_Grid_3.jpg,Green_Star_Grid_4.jpg,Purple_Circle_Chess_3.jpg,left,994.974999994156,true,low,false
c64Kj4UD,33ixyhizc8v0km0rv7j1cbq82t9e2g,3igi0vl64bxk8j0326pjyvjctglonj,c64Kj4UD,2020-0188,2020-11-15,09:44:35,10:01:13,NA,incomplete,78,filling,1,left,Green_Triangle_Grid_3.jpg,Purple_Star_Grid_4.jpg,Red_Circle_Chess_3.jpg,left,1054.3850000103703,true,low,false
c64Kj4UD,33ixyhizc8v0km0rv7j1cbq82t9e2g,3igi0vl64bxk8j0326pjyvjctglonj,c64Kj4UD,2020-0188,2020-11-15,09:44:35,10:01:13,NA,incomplete,79,filling,1,left,Green_Plus_Chess_2.jpg,Blue_Star_Chess_3.jpg,Purple_Circle_Dots_2.jpg,left,1073.29000000027,true,low,false
c64Kj4UD,33ixyhizc8v0km0rv7j1cbq82t9e2g,3igi0vl64bxk8j0326pjyvjctglonj,c64Kj4UD,2020-0188,2020-11-15,09:44:35,10:01:13,NA,incomplete,80,filling,1,left,Blue_Star_Grid_4.jpg,Red_Triangle_Grid_2.jpg,Green_Plus_Stripes_4.jpg,left,1073.434999998426,true,low,false
c64Kj4UD,33ixyhizc8v0km0rv7j1cbq82t9e2g,3igi0vl64bxk8j0326pjyvjctglonj,c64Kj4UD,2020-0188,2020-11-15,09:44:35,10:01:13,NA,incomplete,81,filling,1,left,Blue_Star_Grid_4.jpg,Purple_Circle_Grid_2.jpg,Red_Triangle_Dots_4.jpg,left,1024.7200000012526,true,low,false
c64Kj4UD,33ixyhizc8v0km0rv7j1cbq82t9e2g,3igi0vl64bxk8j0326pjyvjctglonj,c64Kj4UD,2020-0188,2020-11-15,09:44:35,10:01:13,NA,incomplete,82,filling,1,left,Blue_Star_Chess_1.jpg,Red_Triangle_Chess_3.jpg,Green_Circle_Stripes_1.jpg,left,1240.3500000073109,true,low,false
c64Kj4UD,33ixyhizc8v0km0rv7j1cbq82t9e2g,3igi0vl64bxk8j0326pjyvjctglonj,c64Kj4UD,2020-0188,2020-11-15,09:44:35,10:01:13,NA,incomplete,83,filling,1,left,Blue_Circle_Dots_3.jpg,Red_Plus_Dots_2.jpg,Green_Triangle_Grid_3.jpg,left,1146.7650000122376,true,low,false
c64Kj4UD,33ixyhizc8v0km0rv7j1cbq82t9e2g,3igi0vl64bxk8j0326pjyvjctglonj,c64Kj4UD,2020-0188,2020-11-15,09:44:35,10:01:13,NA,incomplete,84,filling,1,left,Red_Circle_Stripes_4.jpg,Blue_Triangle_Stripes_2.jpg,Green_Plus_Chess_4.jpg,left,959.034999992582,true,low,false
c64Kj4UD,33ixyhizc8v0km0rv7j1cbq82t9e2g,3igi0vl64bxk8j0326pjyvjctglonj,c64Kj4UD,2020-0188,2020-11-15,09:44:35,10:01:13,NA,incomplete,85,filling,1,left,Green_Plus_Dots_3.jpg,Blue_Triangle_Dots_1.jpg,Red_Circle_Chess_3.jpg,left,1099.499999996624,true,low,false
c64Kj4UD,33ixyhizc8v0km0rv7j1cbq82t9e2g,3igi0vl64bxk8j0326pjyvjctglonj,c64Kj4UD,2020-0188,2020-11-15,09:44:35,10:01:13,NA,incomplete,86,filling,1,left,Green_Star_Chess_1.jpg,Purple_Triangle_Chess_4.jpg,Red_Circle_Grid_1.jpg,left,938.2349999941653,true,low,false
c64Kj4UD,33ixyhizc8v0km0rv7j1cbq82t9e2g,3igi0vl64bxk8j0326pjyvjctglonj,c64Kj4UD,2020-0188,2020-11-15,09:44:35,10:01:13,NA,incomplete,87,filling,1,right,Red_Circle_Dots_1.jpg,Green_Triangle_Stripes_1.jpg,Blue_Plus_Dots_4.jpg,right,1174.1449999972247,true,low,false
c64Kj4UD,33ixyhizc8v0km0rv7j1cbq82t9e2g,3igi0vl64bxk8j0326pjyvjctglonj,c64Kj4UD,2020-0188,2020-11-15,09:44:35,10:01:13,NA,incomplete,88,filling,1,right,Red_Triangle_Grid_3.jpg,Green_Circle_Chess_3.jpg,Purple_Star_Grid_2.jpg,right,966.3399999990361,true,low,false
c64Kj4UD,33ixyhizc8v0km0rv7j1cbq82t9e2g,3igi0vl64bxk8j0326pjyvjctglonj,c64Kj4UD,2020-0188,2020-11-15,09:44:35,10:01:13,NA,incomplete,89,filling,1,left,Purple_Triangle_Stripes_4.jpg,Red_Circle_Stripes_3.jpg,Green_Star_Dots_4.jpg,left,924.0500000014435,true,low,false
c64Kj4UD,33ixyhizc8v0km0rv7j1cbq82t9e2g,3igi0vl64bxk8j0326pjyvjctglonj,c64Kj4UD,2020-0188,2020-11-15,09:44:35,10:01:13,NA,incomplete,90,number,1,left,Blue_Circle_Chess_2.jpg,Red_Star_Dots_2.jpg,Purple_Triangle_Chess_1.jpg,right,867.5950000033481,false,low,false
c64Kj4UD,33ixyhizc8v0km0rv7j1cbq82t9e2g,3igi0vl64bxk8j0326pjyvjctglonj,c64Kj4UD,2020-0188,2020-11-15,09:44:35,10:01:13,NA,incomplete,91,number,1,right,Green_Triangle_Grid_3.jpg,Red_Circle_Grid_2.jpg,Blue_Plus_Chess_3.jpg,left,921.2549999938346,false,low,false
c64Kj4UD,33ixyhizc8v0km0rv7j1cbq82t9e2g,3igi0vl64bxk8j0326pjyvjctglonj,c64Kj4UD,2020-0188,2020-11-15,09:44:35,10:01:13,NA,incomplete,92,number,1,left,Red_Plus_Stripes_4.jpg,Purple_Circle_Grid_4.jpg,Blue_Star_Stripes_2.jpg,right,1270.7550000050105,false,low,false
c64Kj4UD,33ixyhizc8v0km0rv7j1cbq82t9e2g,3igi0vl64bxk8j0326pjyvjctglonj,c64Kj4UD,2020-0188,2020-11-15,09:44:35,10:01:13,NA,incomplete,93,number,1,right,Green_Plus_Grid_1.jpg,Red_Triangle_Grid_3.jpg,Purple_Star_Stripes_1.jpg,right,1000.6250000005821,true,low,false
c64Kj4UD,33ixyhizc8v0km0rv7j1cbq82t9e2g,3igi0vl64bxk8j0326pjyvjctglonj,c64Kj4UD,2020-0188,2020-11-15,09:44:35,10:01:13,NA,incomplete,94,number,1,left,Blue_Triangle_Dots_1.jpg,Green_Star_Grid_1.jpg,Purple_Circle_Dots_3.jpg,left,914.5050000079209,true,low,false
c64Kj4UD,33ixyhizc8v0km0rv7j1cbq82t9e2g,3igi0vl64bxk8j0326pjyvjctglonj,c64Kj4UD,2020-0188,2020-11-15,09:44:35,10:01:13,NA,incomplete,95,number,1,right,Blue_Plus_Chess_2.jpg,Purple_Triangle_Chess_4.jpg,Red_Circle_Grid_2.jpg,right,1028.1400000094436,true,low,false
c64Kj4UD,33ixyhizc8v0km0rv7j1cbq82t9e2g,3igi0vl64bxk8j0326pjyvjctglonj,c64Kj4UD,2020-0188,2020-11-15,09:44:35,10:01:13,NA,incomplete,96,number,1,right,Red_Plus_Dots_1.jpg,Purple_Circle_Dots_4.jpg,Blue_Star_Grid_1.jpg,right,746.0100000025705,true,low,false
c64Kj4UD,33ixyhizc8v0km0rv7j1cbq82t9e2g,3igi0vl64bxk8j0326pjyvjctglonj,c64Kj4UD,2020-0188,2020-11-15,09:44:35,10:01:13,NA,incomplete,97,number,1,left,Red_Triangle_Stripes_4.jpg,Blue_Star_Dots_4.jpg,Purple_Plus_Stripes_1.jpg,left,837.7000000036787,true,low,false
c64Kj4UD,33ixyhizc8v0km0rv7j1cbq82t9e2g,3igi0vl64bxk8j0326pjyvjctglonj,c64Kj4UD,2020-0188,2020-11-15,09:44:35,10:01:13,NA,incomplete,98,number,1,right,Purple_Circle_Stripes_2.jpg,Blue_Star_Stripes_3.jpg,Green_Plus_Dots_2.jpg,right,1234.0199999889592,true,low,false
c64Kj4UD,33ixyhizc8v0km0rv7j1cbq82t9e2g,3igi0vl64bxk8j0326pjyvjctglonj,c64Kj4UD,2020-0188,2020-11-15,09:44:35,10:01:13,NA,incomplete,99,number,1,left,Red_Triangle_Dots_1.jpg,Purple_Circle_Chess_1.jpg,Green_Star_Dots_4.jpg,left,723.6699999921257,true,low,false
c64Kj4UD,33ixyhizc8v0km0rv7j1cbq82t9e2g,3igi0vl64bxk8j0326pjyvjctglonj,c64Kj4UD,2020-0188,2020-11-15,09:44:35,10:01:13,NA,incomplete,100,number,1,right,Blue_Star_Grid_3.jpg,Red_Circle_Grid_1.jpg,Purple_Plus_Dots_3.jpg,right,855.5000000051223,true,low,false
c64Kj4UD,33ixyhizc8v0km0rv7j1cbq82t9e2g,3igi0vl64bxk8j0326pjyvjctglonj,c64Kj4UD,2020-0188,2020-11-15,09:44:35,10:01:13,NA,incomplete,101,number,0,left,Green_Triangle_Chess_2.jpg,Blue_Circle_Stripes_2.jpg,Purple_Star_Chess_4.jpg,left,802.110000004177,true,low,false
c64Kj4UD,33ixyhizc8v0km0rv7j1cbq82t9e2g,3igi0vl64bxk8j0326pjyvjctglonj,c64Kj4UD,2020-0188,2020-11-15,09:44:35,10:01:13,NA,incomplete,102,number,1,left,Green_Circle_Grid_2.jpg,Red_Plus_Dots_2.jpg,Purple_Triangle_Grid_4.jpg,left,815.9549999982119,true,low,false
c64Kj4UD,33ixyhizc8v0km0rv7j1cbq82t9e2g,3igi0vl64bxk8j0326pjyvjctglonj,c64Kj4UD,2020-0188,2020-11-15,09:44:35,10:01:13,NA,incomplete,103,number,0,right,Blue_Circle_Dots_2.jpg,Red_Star_Dots_1.jpg,Green_Triangle_Grid_2.jpg,right,842.8299999941373,true,low,false
c64Kj4UD,33ixyhizc8v0km0rv7j1cbq82t9e2g,3igi0vl64bxk8j0326pjyvjctglonj,c64Kj4UD,2020-0188,2020-11-15,09:44:35,10:01:13,NA,incomplete,104,number,0,right,Green_Plus_Stripes_2.jpg,Purple_Star_Stripes_1.jpg,Red_Circle_Chess_2.jpg,right,831.8599999911385,true,low,false
c64Kj4UD,33ixyhizc8v0km0rv7j1cbq82t9e2g,3igi0vl64bxk8j0326pjyvjctglonj,c64Kj4UD,2020-0188,2020-11-15,09:44:35,10:01:13,NA,incomplete,105,number,0,right,Red_Circle_Chess_1.jpg,Purple_Triangle_Chess_4.jpg,Green_Star_Grid_1.jpg,left,1080.0549999985378,false,low,false
c64Kj4UD,33ixyhizc8v0km0rv7j1cbq82t9e2g,3igi0vl64bxk8j0326pjyvjctglonj,c64Kj4UD,2020-0188,2020-11-15,09:44:35,10:01:13,NA,incomplete,106,number,1,left,Red_Circle_Grid_2.jpg,Purple_Triangle_Stripes_2.jpg,Blue_Star_Grid_1.jpg,right,932.7199999970617,false,low,false
c64Kj4UD,33ixyhizc8v0km0rv7j1cbq82t9e2g,3igi0vl64bxk8j0326pjyvjctglonj,c64Kj4UD,2020-0188,2020-11-15,09:44:35,10:01:13,NA,incomplete,107,number,1,left,Green_Plus_Chess_2.jpg,Blue_Star_Grid_2.jpg,Red_Triangle_Chess_4.jpg,right,1017.3950000025798,false,low,false
c64Kj4UD,33ixyhizc8v0km0rv7j1cbq82t9e2g,3igi0vl64bxk8j0326pjyvjctglonj,c64Kj4UD,2020-0188,2020-11-15,09:44:35,10:01:13,NA,incomplete,108,number,1,right,Red_Circle_Stripes_1.jpg,Blue_Plus_Stripes_3.jpg,Green_Star_Grid_1.jpg,left,1192.2500000073342,false,low,false
c64Kj4UD,33ixyhizc8v0km0rv7j1cbq82t9e2g,3igi0vl64bxk8j0326pjyvjctglonj,c64Kj4UD,2020-0188,2020-11-15,09:44:35,10:01:13,NA,incomplete,109,number,1,right,Red_Circle_Dots_1.jpg,Green_Triangle_Dots_3.jpg,Purple_Plus_Stripes_1.jpg,right,809.8250000039116,true,low,false
c64Kj4UD,33ixyhizc8v0km0rv7j1cbq82t9e2g,3igi0vl64bxk8j0326pjyvjctglonj,c64Kj4UD,2020-0188,2020-11-15,09:44:35,10:01:13,NA,incomplete,110,number,1,right,Red_Plus_Stripes_4.jpg,Green_Triangle_Stripes_3.jpg,Blue_Circle_Dots_4.jpg,right,1043.3149999880698,true,low,false
c64Kj4UD,33ixyhizc8v0km0rv7j1cbq82t9e2g,3igi0vl64bxk8j0326pjyvjctglonj,c64Kj4UD,2020-0188,2020-11-15,09:44:35,10:01:13,NA,incomplete,111,number,0,right,Red_Plus_Chess_2.jpg,Green_Star_Chess_3.jpg,Blue_Circle_Dots_2.jpg,right,947.1149999881163,true,low,false
c64Kj4UD,33ixyhizc8v0km0rv7j1cbq82t9e2g,3igi0vl64bxk8j0326pjyvjctglonj,c64Kj4UD,2020-0188,2020-11-15,09:44:35,10:01:13,NA,incomplete,112,number,0,left,Purple_Triangle_Stripes_2.jpg,Green_Star_Chess_2.jpg,Blue_Plus_Stripes_4.jpg,left,825.4549999983283,true,low,false
c64Kj4UD,33ixyhizc8v0km0rv7j1cbq82t9e2g,3igi0vl64bxk8j0326pjyvjctglonj,c64Kj4UD,2020-0188,2020-11-15,09:44:35,10:01:13,NA,incomplete,113,number,1,right,Red_Triangle_Grid_2.jpg,Purple_Circle_Grid_3.jpg,Blue_Star_Stripes_2.jpg,right,925.2399999968475,true,low,false
c64Kj4UD,33ixyhizc8v0km0rv7j1cbq82t9e2g,3igi0vl64bxk8j0326pjyvjctglonj,c64Kj4UD,2020-0188,2020-11-15,09:44:35,10:01:13,NA,incomplete,114,number,1,left,Purple_Star_Grid_1.jpg,Red_Circle_Chess_1.jpg,Green_Triangle_Grid_2.jpg,left,809.1799999965588,true,low,false
c64Kj4UD,33ixyhizc8v0km0rv7j1cbq82t9e2g,3igi0vl64bxk8j0326pjyvjctglonj,c64Kj4UD,2020-0188,2020-11-15,09:44:35,10:01:13,NA,incomplete,115,number,1,right,Purple_Plus_Chess_1.jpg,Blue_Triangle_Chess_2.jpg,Red_Star_Stripes_1.jpg,right,695.8050000102958,true,low,false
c64Kj4UD,33ixyhizc8v0km0rv7j1cbq82t9e2g,3igi0vl64bxk8j0326pjyvjctglonj,c64Kj4UD,2020-0188,2020-11-15,09:44:35,10:01:13,NA,incomplete,116,number,1,left,Blue_Circle_Dots_3.jpg,Green_Star_Stripes_3.jpg,Purple_Triangle_Dots_1.jpg,left,1160.1649999938672,true,low,false
c64Kj4UD,33ixyhizc8v0km0rv7j1cbq82t9e2g,3igi0vl64bxk8j0326pjyvjctglonj,c64Kj4UD,2020-0188,2020-11-15,09:44:35,10:01:13,NA,incomplete,117,number,1,left,Green_Triangle_Stripes_3.jpg,Blue_Star_Grid_3.jpg,Red_Circle_Stripes_2.jpg,left,846.8600000051083,true,low,false
c64Kj4UD,33ixyhizc8v0km0rv7j1cbq82t9e2g,3igi0vl64bxk8j0326pjyvjctglonj,c64Kj4UD,2020-0188,2020-11-15,09:44:35,10:01:13,NA,incomplete,118,number,1,right,Purple_Circle_Grid_4.jpg,Red_Triangle_Grid_3.jpg,Green_Plus_Dots_4.jpg,right,778.5499999881722,true,low,false
c64Kj4UD,33ixyhizc8v0km0rv7j1cbq82t9e2g,3igi0vl64bxk8j0326pjyvjctglonj,c64Kj4UD,2020-0188,2020-11-15,09:44:35,10:01:13,NA,incomplete,119,number,0,left,Green_Triangle_Chess_4.jpg,Purple_Star_Grid_4.jpg,Blue_Circle_Chess_3.jpg,left,935.0299999932759,true,low,false
c64Kj4UD,33ixyhizc8v0km0rv7j1cbq82t9e2g,3igi0vl64bxk8j0326pjyvjctglonj,c64Kj4UD,2020-0188,2020-11-15,09:44:35,10:01:13,NA,incomplete,120,filling,1,left,Purple_Plus_Dots_3.jpg,Red_Circle_Dots_4.jpg,Green_Triangle_Grid_3.jpg,right,732.8200000047218,false,low,false
c64Kj4UD,33ixyhizc8v0km0rv7j1cbq82t9e2g,3igi0vl64bxk8j0326pjyvjctglonj,c64Kj4UD,2020-0188,2020-11-15,09:44:35,10:01:13,NA,incomplete,121,filling,0,left,Purple_Star_Grid_2.jpg,Blue_Plus_Grid_1.jpg,Green_Triangle_Chess_2.jpg,right,1076.2649999960558,false,low,false
c64Kj4UD,33ixyhizc8v0km0rv7j1cbq82t9e2g,3igi0vl64bxk8j0326pjyvjctglonj,c64Kj4UD,2020-0188,2020-11-15,09:44:35,10:01:13,NA,incomplete,122,filling,1,left,Purple_Star_Stripes_3.jpg,Red_Circle_Stripes_4.jpg,Green_Triangle_Chess_3.jpg,right,904.6450000023469,false,low,false
c64Kj4UD,33ixyhizc8v0km0rv7j1cbq82t9e2g,3igi0vl64bxk8j0326pjyvjctglonj,c64Kj4UD,2020-0188,2020-11-15,09:44:35,10:01:13,NA,incomplete,123,filling,1,right,Blue_Circle_Grid_3.jpg,Green_Plus_Stripes_3.jpg,Red_Star_Grid_2.jpg,right,1351.0749999986729,true,low,false
c64Kj4UD,33ixyhizc8v0km0rv7j1cbq82t9e2g,3igi0vl64bxk8j0326pjyvjctglonj,c64Kj4UD,2020-0188,2020-11-15,09:44:35,10:01:13,NA,incomplete,124,filling,1,left,Green_Triangle_Stripes_3.jpg,Purple_Plus_Stripes_1.jpg,Red_Star_Grid_3.jpg,left,810.7749999908265,true,low,false
c64Kj4UD,33ixyhizc8v0km0rv7j1cbq82t9e2g,3igi0vl64bxk8j0326pjyvjctglonj,c64Kj4UD,2020-0188,2020-11-15,09:44:35,10:01:13,NA,incomplete,125,filling,0,right,Green_Triangle_Stripes_1.jpg,Purple_Circle_Dots_1.jpg,Blue_Star_Stripes_2.jpg,right,822.2000000096159,true,low,false
c64Kj4UD,33ixyhizc8v0km0rv7j1cbq82t9e2g,3igi0vl64bxk8j0326pjyvjctglonj,c64Kj4UD,2020-0188,2020-11-15,09:44:35,10:01:13,NA,incomplete,126,filling,1,right,Red_Circle_Dots_1.jpg,Purple_Plus_Chess_1.jpg,Green_Triangle_Dots_3.jpg,right,988.6850000038976,true,low,false
c64Kj4UD,33ixyhizc8v0km0rv7j1cbq82t9e2g,3igi0vl64bxk8j0326pjyvjctglonj,c64Kj4UD,2020-0188,2020-11-15,09:44:35,10:01:13,NA,incomplete,127,filling,0,left,Green_Triangle_Stripes_1.jpg,Purple_Circle_Stripes_4.jpg,Blue_Star_Grid_1.jpg,left,838.6949999985518,true,low,false
c64Kj4UD,33ixyhizc8v0km0rv7j1cbq82t9e2g,3igi0vl64bxk8j0326pjyvjctglonj,c64Kj4UD,2020-0188,2020-11-15,09:44:35,10:01:13,NA,incomplete,128,filling,1,right,Blue_Star_Grid_2.jpg,Purple_Triangle_Dots_2.jpg,Red_Plus_Grid_3.jpg,right,835.8450000087032,true,low,false
c64Kj4UD,33ixyhizc8v0km0rv7j1cbq82t9e2g,3igi0vl64bxk8j0326pjyvjctglonj,c64Kj4UD,2020-0188,2020-11-15,09:44:35,10:01:13,NA,incomplete,129,filling,1,left,Green_Circle_Chess_3.jpg,Red_Triangle_Chess_2.jpg,Blue_Star_Grid_3.jpg,left,851.555000001099,true,low,false
c64Kj4UD,33ixyhizc8v0km0rv7j1cbq82t9e2g,3igi0vl64bxk8j0326pjyvjctglonj,c64Kj4UD,2020-0188,2020-11-15,09:44:35,10:01:13,NA,incomplete,130,filling,0,right,Purple_Circle_Stripes_3.jpg,Green_Triangle_Grid_3.jpg,Red_Star_Stripes_1.jpg,right,936.6550000122515,true,low,false
c64Kj4UD,33ixyhizc8v0km0rv7j1cbq82t9e2g,3igi0vl64bxk8j0326pjyvjctglonj,c64Kj4UD,2020-0188,2020-11-15,09:44:35,10:01:13,NA,incomplete,131,filling,1,right,Red_Circle_Grid_1.jpg,Green_Star_Dots_1.jpg,Blue_Plus_Grid_4.jpg,right,996.9099999871105,true,low,false
c64Kj4UD,33ixyhizc8v0km0rv7j1cbq82t9e2g,3igi0vl64bxk8j0326pjyvjctglonj,c64Kj4UD,2020-0188,2020-11-15,09:44:35,10:01:13,NA,incomplete,132,filling,0,left,Green_Plus_Dots_3.jpg,Blue_Circle_Dots_1.jpg,Purple_Triangle_Grid_3.jpg,left,1012.0250000036322,true,low,false
c64Kj4UD,33ixyhizc8v0km0rv7j1cbq82t9e2g,3igi0vl64bxk8j0326pjyvjctglonj,c64Kj4UD,2020-0188,2020-11-15,09:44:35,10:01:13,NA,incomplete,133,filling,1,right,Blue_Star_Chess_3.jpg,Red_Plus_Stripes_3.jpg,Purple_Triangle_Chess_4.jpg,right,898.5949999914737,true,low,false
c64Kj4UD,33ixyhizc8v0km0rv7j1cbq82t9e2g,3igi0vl64bxk8j0326pjyvjctglonj,c64Kj4UD,2020-0188,2020-11-15,09:44:35,10:01:13,NA,incomplete,134,filling,0,right,Blue_Plus_Dots_1.jpg,Green_Star_Chess_1.jpg,Red_Circle_Dots_2.jpg,right,1074.3649999931222,true,low,false
c64Kj4UD,33ixyhizc8v0km0rv7j1cbq82t9e2g,3igi0vl64bxk8j0326pjyvjctglonj,c64Kj4UD,2020-0188,2020-11-15,09:44:35,10:01:13,NA,incomplete,135,filling,1,left,Purple_Plus_Chess_3.jpg,Green_Star_Chess_1.jpg,Red_Triangle_Stripes_3.jpg,left,1058.3950000000186,true,low,false
c64Kj4UD,33ixyhizc8v0km0rv7j1cbq82t9e2g,3igi0vl64bxk8j0326pjyvjctglonj,c64Kj4UD,2020-0188,2020-11-15,09:44:35,10:01:13,NA,incomplete,136,filling,1,right,Red_Plus_Chess_3.jpg,Green_Circle_Grid_3.jpg,Purple_Star_Chess_4.jpg,right,877.9899999935878,true,low,false
c64Kj4UD,33ixyhizc8v0km0rv7j1cbq82t9e2g,3igi0vl64bxk8j0326pjyvjctglonj,c64Kj4UD,2020-0188,2020-11-15,09:44:35,10:01:13,NA,incomplete,137,filling,1,left,Green_Triangle_Grid_3.jpg,Red_Plus_Grid_4.jpg,Purple_Circle_Chess_3.jpg,left,1034.1650000045775,true,low,false
c64Kj4UD,33ixyhizc8v0km0rv7j1cbq82t9e2g,3igi0vl64bxk8j0326pjyvjctglonj,c64Kj4UD,2020-0188,2020-11-15,09:44:35,10:01:13,NA,incomplete,138,filling,1,right,Red_Circle_Stripes_1.jpg,Blue_Star_Grid_1.jpg,Green_Plus_Stripes_2.jpg,right,897.2499999945285,true,low,false
c64Kj4UD,33ixyhizc8v0km0rv7j1cbq82t9e2g,3igi0vl64bxk8j0326pjyvjctglonj,c64Kj4UD,2020-0188,2020-11-15,09:44:35,10:01:13,NA,incomplete,139,filling,1,right,Red_Plus_Grid_1.jpg,Blue_Circle_Stripes_1.jpg,Purple_Star_Grid_3.jpg,right,1143.7299999961397,true,low,false
c64Kj4UD,33ixyhizc8v0km0rv7j1cbq82t9e2g,3igi0vl64bxk8j0326pjyvjctglonj,c64Kj4UD,2020-0188,2020-11-15,09:44:35,10:01:13,NA,incomplete,140,number,1,right,Purple_Triangle_Stripes_2.jpg,Blue_Star_Stripes_4.jpg,Green_Plus_Grid_2.jpg,left,959.6100000053411,false,low,false
c64Kj4UD,33ixyhizc8v0km0rv7j1cbq82t9e2g,3igi0vl64bxk8j0326pjyvjctglonj,c64Kj4UD,2020-0188,2020-11-15,09:44:35,10:01:13,NA,incomplete,141,number,1,right,Blue_Circle_Chess_1.jpg,Red_Star_Chess_2.jpg,Purple_Plus_Dots_1.jpg,left,945.4200000036508,false,low,false
c64Kj4UD,33ixyhizc8v0km0rv7j1cbq82t9e2g,3igi0vl64bxk8j0326pjyvjctglonj,c64Kj4UD,2020-0188,2020-11-15,09:44:35,10:01:13,NA,incomplete,142,number,1,left,Green_Plus_Chess_2.jpg,Purple_Star_Stripes_2.jpg,Blue_Circle_Chess_1.jpg,right,895.9750000067288,false,low,false
c64Kj4UD,33ixyhizc8v0km0rv7j1cbq82t9e2g,3igi0vl64bxk8j0326pjyvjctglonj,c64Kj4UD,2020-0188,2020-11-15,09:44:35,10:01:13,NA,incomplete,143,number,1,left,Green_Star_Dots_3.jpg,Blue_Triangle_Chess_3.jpg,Purple_Plus_Dots_2.jpg,right,1558.1249999959255,false,low,false
c64Kj4UD,33ixyhizc8v0km0rv7j1cbq82t9e2g,3igi0vl64bxk8j0326pjyvjctglonj,c64Kj4UD,2020-0188,2020-11-15,09:44:35,10:01:13,NA,incomplete,144,number,1,right,Purple_Plus_Dots_4.jpg,Blue_Star_Dots_2.jpg,Green_Triangle_Chess_4.jpg,right,923.6200000013923,true,low,false
c64Kj4UD,33ixyhizc8v0km0rv7j1cbq82t9e2g,3igi0vl64bxk8j0326pjyvjctglonj,c64Kj4UD,2020-0188,2020-11-15,09:44:35,10:01:13,NA,incomplete,145,number,1,right,Purple_Plus_Chess_4.jpg,Blue_Star_Chess_2.jpg,Green_Triangle_Grid_4.jpg,right,905.784999995376,true,low,false
c64Kj4UD,33ixyhizc8v0km0rv7j1cbq82t9e2g,3igi0vl64bxk8j0326pjyvjctglonj,c64Kj4UD,2020-0188,2020-11-15,09:44:35,10:01:13,NA,incomplete,146,number,1,left,Blue_Star_Chess_3.jpg,Green_Circle_Dots_3.jpg,Red_Plus_Chess_4.jpg,left,863.0449999909615,true,low,false
c64Kj4UD,33ixyhizc8v0km0rv7j1cbq82t9e2g,3igi0vl64bxk8j0326pjyvjctglonj,c64Kj4UD,2020-0188,2020-11-15,09:44:35,10:01:13,NA,incomplete,147,number,1,left,Green_Triangle_Grid_4.jpg,Purple_Plus_Stripes_4.jpg,Blue_Star_Grid_1.jpg,left,780.4849999956787,true,low,false
c64Kj4UD,33ixyhizc8v0km0rv7j1cbq82t9e2g,3igi0vl64bxk8j0326pjyvjctglonj,c64Kj4UD,2020-0188,2020-11-15,09:44:35,10:01:13,NA,incomplete,148,number,0,left,Purple_Circle_Chess_1.jpg,Red_Plus_Grid_1.jpg,Green_Star_Chess_4.jpg,left,802.1200000075623,true,low,false
c64Kj4UD,33ixyhizc8v0km0rv7j1cbq82t9e2g,3igi0vl64bxk8j0326pjyvjctglonj,c64Kj4UD,2020-0188,2020-11-15,09:44:35,10:01:13,NA,incomplete,149,number,1,right,Purple_Star_Grid_1.jpg,Blue_Plus_Grid_3.jpg,Red_Triangle_Chess_1.jpg,right,628.6799999943469,true,low,false
c64Kj4UD,33ixyhizc8v0km0rv7j1cbq82t9e2g,3igi0vl64bxk8j0326pjyvjctglonj,c64Kj4UD,2020-0188,2020-11-15,09:44:35,10:01:13,NA,incomplete,150,number,1,left,Red_Star_Grid_2.jpg,Purple_Circle_Stripes_2.jpg,Green_Plus_Grid_3.jpg,left,960.4550000076415,true,low,false
c64Kj4UD,33ixyhizc8v0km0rv7j1cbq82t9e2g,3igi0vl64bxk8j0326pjyvjctglonj,c64Kj4UD,2020-0188,2020-11-15,09:44:35,10:01:13,NA,incomplete,151,number,1,right,Green_Star_Dots_3.jpg,Blue_Triangle_Dots_2.jpg,Purple_Circle_Stripes_3.jpg,right,701.7349999950966,true,low,false
c64Kj4UD,33ixyhizc8v0km0rv7j1cbq82t9e2g,3igi0vl64bxk8j0326pjyvjctglonj,c64Kj4UD,2020-0188,2020-11-15,09:44:35,10:01:13,NA,incomplete,152,number,1,left,Red_Circle_Stripes_1.jpg,Blue_Star_Grid_1.jpg,Purple_Plus_Stripes_4.jpg,left,719.1099999909056,true,low,false
c64Kj4UD,33ixyhizc8v0km0rv7j1cbq82t9e2g,3igi0vl64bxk8j0326pjyvjctglonj,c64Kj4UD,2020-0188,2020-11-15,09:44:35,10:01:13,NA,incomplete,153,number,0,right,Red_Star_Chess_1.jpg,Green_Triangle_Chess_3.jpg,Blue_Circle_Dots_1.jpg,right,633.109999995213,true,low,false
c64Kj4UD,33ixyhizc8v0km0rv7j1cbq82t9e2g,3igi0vl64bxk8j0326pjyvjctglonj,c64Kj4UD,2020-0188,2020-11-15,09:44:35,10:01:13,NA,incomplete,154,number,1,right,Red_Circle_Dots_2.jpg,Purple_Plus_Dots_1.jpg,Green_Star_Stripes_2.jpg,right,783.4799999982351,true,low,false
c64Kj4UD,33ixyhizc8v0km0rv7j1cbq82t9e2g,3igi0vl64bxk8j0326pjyvjctglonj,c64Kj4UD,2020-0188,2020-11-15,09:44:35,10:01:13,NA,incomplete,155,number,1,left,Red_Triangle_Grid_2.jpg,Green_Star_Stripes_2.jpg,Blue_Circle_Grid_1.jpg,left,807.6000000000931,true,low,false
c64Kj4UD,33ixyhizc8v0km0rv7j1cbq82t9e2g,3igi0vl64bxk8j0326pjyvjctglonj,c64Kj4UD,2020-0188,2020-11-15,09:44:35,10:01:13,NA,incomplete,156,number,1,left,Green_Star_Stripes_4.jpg,Purple_Circle_Chess_4.jpg,Blue_Plus_Stripes_1.jpg,left,739.6049999952083,true,low,false
c64Kj4UD,33ixyhizc8v0km0rv7j1cbq82t9e2g,3igi0vl64bxk8j0326pjyvjctglonj,c64Kj4UD,2020-0188,2020-11-15,09:44:35,10:01:13,NA,incomplete,157,number,1,right,Blue_Circle_Chess_2.jpg,Green_Triangle_Chess_3.jpg,Purple_Star_Dots_2.jpg,right,694.4950000033714,true,low,false
c64Kj4UD,33ixyhizc8v0km0rv7j1cbq82t9e2g,3igi0vl64bxk8j0326pjyvjctglonj,c64Kj4UD,2020-0188,2020-11-15,09:44:35,10:01:13,NA,incomplete,158,number,1,left,Red_Circle_Grid_3.jpg,Blue_Triangle_Stripes_3.jpg,Purple_Plus_Grid_2.jpg,left,764.5800000027521,true,low,false
c64Kj4UD,33ixyhizc8v0km0rv7j1cbq82t9e2g,3igi0vl64bxk8j0326pjyvjctglonj,c64Kj4UD,2020-0188,2020-11-15,09:44:35,10:01:13,NA,incomplete,159,number,1,right,Green_Plus_Dots_3.jpg,Purple_Star_Dots_1.jpg,Blue_Circle_Chess_3.jpg,right,696.5700000000652,true,low,false
c64Kj4UD,33ixyhizc8v0km0rv7j1cbq82t9e2g,3igi0vl64bxk8j0326pjyvjctglonj,c64Kj4UD,2020-0188,2020-11-15,09:44:35,10:01:13,NA,incomplete,160,filling,0,left,Purple_Triangle_Dots_1.jpg,Red_Circle_Dots_3.jpg,Blue_Plus_Chess_1.jpg,right,743.8049999909708,false,low,false
c64Kj4UD,33ixyhizc8v0km0rv7j1cbq82t9e2g,3igi0vl64bxk8j0326pjyvjctglonj,c64Kj4UD,2020-0188,2020-11-15,09:44:35,10:01:13,NA,incomplete,161,filling,1,right,Blue_Plus_Grid_3.jpg,Purple_Circle_Chess_3.jpg,Red_Triangle_Grid_2.jpg,left,764.5750000083353,false,low,false
c64Kj4UD,33ixyhizc8v0km0rv7j1cbq82t9e2g,3igi0vl64bxk8j0326pjyvjctglonj,c64Kj4UD,2020-0188,2020-11-15,09:44:35,10:01:13,NA,incomplete,162,filling,1,right,Purple_Triangle_Dots_3.jpg,Blue_Circle_Grid_3.jpg,Green_Star_Dots_2.jpg,left,749.5399999897927,false,low,false
c64Kj4UD,33ixyhizc8v0km0rv7j1cbq82t9e2g,3igi0vl64bxk8j0326pjyvjctglonj,c64Kj4UD,2020-0188,2020-11-15,09:44:35,10:01:13,NA,incomplete,163,filling,0,left,Blue_Triangle_Chess_3.jpg,Purple_Star_Chess_1.jpg,Red_Plus_Stripes_3.jpg,right,717.9349999933038,false,low,false
c64Kj4UD,33ixyhizc8v0km0rv7j1cbq82t9e2g,3igi0vl64bxk8j0326pjyvjctglonj,c64Kj4UD,2020-0188,2020-11-15,09:44:35,10:01:13,NA,incomplete,164,filling,1,right,Purple_Circle_Dots_1.jpg,Red_Plus_Stripes_1.jpg,Green_Triangle_Dots_4.jpg,left,867.2900000092341,false,low,false
c64Kj4UD,33ixyhizc8v0km0rv7j1cbq82t9e2g,3igi0vl64bxk8j0326pjyvjctglonj,c64Kj4UD,2020-0188,2020-11-15,09:44:35,10:01:13,NA,incomplete,165,filling,1,left,Blue_Circle_Grid_4.jpg,Green_Plus_Grid_1.jpg,Purple_Triangle_Chess_4.jpg,left,997.6350000069942,true,low,false
c64Kj4UD,33ixyhizc8v0km0rv7j1cbq82t9e2g,3igi0vl64bxk8j0326pjyvjctglonj,c64Kj4UD,2020-0188,2020-11-15,09:44:35,10:01:13,NA,incomplete,166,filling,1,left,Red_Triangle_Chess_2.jpg,Blue_Circle_Chess_4.jpg,Purple_Star_Dots_2.jpg,left,1020.9350000077393,true,low,false
c64Kj4UD,33ixyhizc8v0km0rv7j1cbq82t9e2g,3igi0vl64bxk8j0326pjyvjctglonj,c64Kj4UD,2020-0188,2020-11-15,09:44:35,10:01:13,NA,incomplete,167,filling,0,right,Blue_Star_Stripes_2.jpg,Green_Plus_Grid_2.jpg,Red_Circle_Stripes_3.jpg,right,1090.264999991632,true,low,false
c64Kj4UD,33ixyhizc8v0km0rv7j1cbq82t9e2g,3igi0vl64bxk8j0326pjyvjctglonj,c64Kj4UD,2020-0188,2020-11-15,09:44:35,10:01:13,NA,incomplete,168,filling,1,left,Green_Plus_Dots_2.jpg,Blue_Circle_Dots_1.jpg,Purple_Triangle_Chess_2.jpg,left,837.615000011283,true,low,false
c64Kj4UD,33ixyhizc8v0km0rv7j1cbq82t9e2g,3igi0vl64bxk8j0326pjyvjctglonj,c64Kj4UD,2020-0188,2020-11-15,09:44:35,10:01:13,NA,incomplete,169,filling,1,left,Blue_Circle_Chess_4.jpg,Green_Triangle_Chess_2.jpg,Red_Star_Dots_4.jpg,left,864.1650000063237,true,low,false
c64Kj4UD,33ixyhizc8v0km0rv7j1cbq82t9e2g,3igi0vl64bxk8j0326pjyvjctglonj,c64Kj4UD,2020-0188,2020-11-15,09:44:35,10:01:13,NA,incomplete,170,filling,0,left,Red_Circle_Stripes_3.jpg,Blue_Plus_Stripes_4.jpg,Purple_Star_Dots_3.jpg,left,937.0649999909801,true,low,false
c64Kj4UD,33ixyhizc8v0km0rv7j1cbq82t9e2g,3igi0vl64bxk8j0326pjyvjctglonj,c64Kj4UD,2020-0188,2020-11-15,09:44:35,10:01:13,NA,incomplete,171,filling,1,right,Red_Circle_Dots_4.jpg,Green_Star_Stripes_4.jpg,Blue_Plus_Dots_3.jpg,right,915.8599999936996,true,low,false
c64Kj4UD,33ixyhizc8v0km0rv7j1cbq82t9e2g,3igi0vl64bxk8j0326pjyvjctglonj,c64Kj4UD,2020-0188,2020-11-15,09:44:35,10:01:13,NA,incomplete,172,filling,1,right,Green_Plus_Stripes_1.jpg,Blue_Star_Chess_1.jpg,Purple_Triangle_Stripes_3.jpg,right,961.7349999898579,true,low,false
c64Kj4UD,33ixyhizc8v0km0rv7j1cbq82t9e2g,3igi0vl64bxk8j0326pjyvjctglonj,c64Kj4UD,2020-0188,2020-11-15,09:44:35,10:01:13,NA,incomplete,173,filling,1,left,Purple_Triangle_Grid_2.jpg,Blue_Circle_Grid_1.jpg,Red_Plus_Dots_2.jpg,left,763.6199999978999,true,low,false
c64Kj4UD,33ixyhizc8v0km0rv7j1cbq82t9e2g,3igi0vl64bxk8j0326pjyvjctglonj,c64Kj4UD,2020-0188,2020-11-15,09:44:35,10:01:13,NA,incomplete,174,filling,1,right,Red_Star_Stripes_2.jpg,Blue_Circle_Chess_2.jpg,Purple_Triangle_Stripes_1.jpg,right,858.8049999962095,true,low,false
c64Kj4UD,33ixyhizc8v0km0rv7j1cbq82t9e2g,3igi0vl64bxk8j0326pjyvjctglonj,c64Kj4UD,2020-0188,2020-11-15,09:44:35,10:01:13,NA,incomplete,175,filling,0,left,Red_Triangle_Grid_3.jpg,Purple_Star_Grid_1.jpg,Green_Circle_Chess_3.jpg,left,864.0599999926053,true,low,false
c64Kj4UD,33ixyhizc8v0km0rv7j1cbq82t9e2g,3igi0vl64bxk8j0326pjyvjctglonj,c64Kj4UD,2020-0188,2020-11-15,09:44:35,10:01:13,NA,incomplete,176,filling,1,right,Red_Triangle_Dots_2.jpg,Green_Circle_Chess_2.jpg,Blue_Star_Dots_4.jpg,right,828.4549999953015,true,low,false
c64Kj4UD,33ixyhizc8v0km0rv7j1cbq82t9e2g,3igi0vl64bxk8j0326pjyvjctglonj,c64Kj4UD,2020-0188,2020-11-15,09:44:35,10:01:13,NA,incomplete,177,filling,1,left,Purple_Star_Stripes_1.jpg,Blue_Triangle_Stripes_4.jpg,Red_Plus_Grid_1.jpg,left,764.8550000012619,true,low,false
c64Kj4UD,33ixyhizc8v0km0rv7j1cbq82t9e2g,3igi0vl64bxk8j0326pjyvjctglonj,c64Kj4UD,2020-0188,2020-11-15,09:44:35,10:01:13,NA,incomplete,178,filling,1,left,Green_Plus_Dots_1.jpg,Purple_Star_Dots_3.jpg,Red_Triangle_Chess_1.jpg,left,883.0199999938486,true,low,false
c64Kj4UD,33ixyhizc8v0km0rv7j1cbq82t9e2g,3igi0vl64bxk8j0326pjyvjctglonj,c64Kj4UD,2020-0188,2020-11-15,09:44:35,10:01:13,NA,incomplete,179,filling,0,left,Green_Plus_Grid_1.jpg,Red_Triangle_Grid_2.jpg,Purple_Circle_Stripes_1.jpg,left,866.6099999973085,true,low,false
c64Kj4UD,33ixyhizc8v0km0rv7j1cbq82t9e2g,3igi0vl64bxk8j0326pjyvjctglonj,c64Kj4UD,2020-0188,2020-11-15,09:44:35,10:01:13,NA,incomplete,180,number,1,left,Blue_Triangle_Stripes_2.jpg,Red_Plus_Chess_2.jpg,Purple_Circle_Stripes_1.jpg,right,709.1800000052899,false,low,false
c64Kj4UD,33ixyhizc8v0km0rv7j1cbq82t9e2g,3igi0vl64bxk8j0326pjyvjctglonj,c64Kj4UD,2020-0188,2020-11-15,09:44:35,10:01:13,NA,incomplete,181,number,1,left,Purple_Plus_Dots_3.jpg,Green_Triangle_Stripes_3.jpg,Red_Circle_Dots_2.jpg,left,966.390000001411,true,low,false
c64Kj4UD,33ixyhizc8v0km0rv7j1cbq82t9e2g,3igi0vl64bxk8j0326pjyvjctglonj,c64Kj4UD,2020-0188,2020-11-15,09:44:35,10:01:13,NA,incomplete,182,number,1,right,Red_Plus_Grid_3.jpg,Green_Circle_Grid_1.jpg,Blue_Star_Chess_3.jpg,right,669.9099999968894,true,low,false
c64Kj4UD,33ixyhizc8v0km0rv7j1cbq82t9e2g,3igi0vl64bxk8j0326pjyvjctglonj,c64Kj4UD,2020-0188,2020-11-15,09:44:35,10:01:13,NA,incomplete,183,number,1,right,Blue_Plus_Grid_3.jpg,Green_Circle_Grid_2.jpg,Red_Star_Stripes_3.jpg,right,1056.7800000135321,true,low,false
c64Kj4UD,33ixyhizc8v0km0rv7j1cbq82t9e2g,3igi0vl64bxk8j0326pjyvjctglonj,c64Kj4UD,2020-0188,2020-11-15,09:44:35,10:01:13,NA,incomplete,184,number,0,left,Red_Star_Stripes_3.jpg,Blue_Plus_Dots_3.jpg,Purple_Circle_Stripes_4.jpg,left,847.0499999966705,true,low,false
c64Kj4UD,33ixyhizc8v0km0rv7j1cbq82t9e2g,3igi0vl64bxk8j0326pjyvjctglonj,c64Kj4UD,2020-0188,2020-11-15,09:44:35,10:01:13,NA,incomplete,185,number,1,left,Purple_Circle_Chess_3.jpg,Green_Star_Dots_3.jpg,Red_Triangle_Chess_4.jpg,left,1081.01500000339,true,low,false
c64Kj4UD,33ixyhizc8v0km0rv7j1cbq82t9e2g,3igi0vl64bxk8j0326pjyvjctglonj,c64Kj4UD,2020-0188,2020-11-15,09:44:35,10:01:13,NA,incomplete,186,number,1,left,Purple_Circle_Dots_1.jpg,Blue_Triangle_Stripes_1.jpg,Green_Star_Dots_4.jpg,left,619.700000010198,true,low,false
c64Kj4UD,33ixyhizc8v0km0rv7j1cbq82t9e2g,3igi0vl64bxk8j0326pjyvjctglonj,c64Kj4UD,2020-0188,2020-11-15,09:44:35,10:01:13,NA,incomplete,187,number,1,left,Blue_Triangle_Stripes_3.jpg,Red_Plus_Dots_3.jpg,Green_Star_Stripes_2.jpg,left,752.7499999996508,true,low,false
c64Kj4UD,33ixyhizc8v0km0rv7j1cbq82t9e2g,3igi0vl64bxk8j0326pjyvjctglonj,c64Kj4UD,2020-0188,2020-11-15,09:44:35,10:01:13,NA,incomplete,188,number,1,left,Purple_Triangle_Grid_2.jpg,Red_Star_Stripes_2.jpg,Green_Plus_Grid_1.jpg,left,734.6449999895412,true,low,false
c64Kj4UD,33ixyhizc8v0km0rv7j1cbq82t9e2g,3igi0vl64bxk8j0326pjyvjctglonj,c64Kj4UD,2020-0188,2020-11-15,09:44:35,10:01:13,NA,incomplete,189,number,1,left,Red_Star_Stripes_4.jpg,Green_Circle_Chess_4.jpg,Purple_Plus_Stripes_3.jpg,left,771.7200000042794,true,low,false
c64Kj4UD,33ixyhizc8v0km0rv7j1cbq82t9e2g,3igi0vl64bxk8j0326pjyvjctglonj,c64Kj4UD,2020-0188,2020-11-15,09:44:35,10:01:13,NA,incomplete,190,number,0,right,Blue_Plus_Dots_1.jpg,Red_Triangle_Dots_3.jpg,Green_Star_Grid_1.jpg,right,633.2750000001397,true,low,false
c64Kj4UD,33ixyhizc8v0km0rv7j1cbq82t9e2g,3igi0vl64bxk8j0326pjyvjctglonj,c64Kj4UD,2020-0188,2020-11-15,09:44:35,10:01:13,NA,incomplete,191,number,1,right,Green_Plus_Dots_2.jpg,Blue_Triangle_Dots_1.jpg,Purple_Star_Chess_2.jpg,right,652.1650000067893,true,low,false
c64Kj4UD,33ixyhizc8v0km0rv7j1cbq82t9e2g,3igi0vl64bxk8j0326pjyvjctglonj,c64Kj4UD,2020-0188,2020-11-15,09:44:35,10:01:13,NA,incomplete,192,number,1,right,Red_Circle_Dots_4.jpg,Green_Plus_Dots_2.jpg,Purple_Star_Grid_4.jpg,left,747.9199999943376,false,low,false
c64Kj4UD,33ixyhizc8v0km0rv7j1cbq82t9e2g,3igi0vl64bxk8j0326pjyvjctglonj,c64Kj4UD,2020-0188,2020-11-15,09:44:35,10:01:13,NA,incomplete,193,number,0,left,Red_Circle_Grid_2.jpg,Purple_Plus_Chess_2.jpg,Blue_Star_Grid_1.jpg,left,731.5300000045681,true,low,false
c64Kj4UD,33ixyhizc8v0km0rv7j1cbq82t9e2g,3igi0vl64bxk8j0326pjyvjctglonj,c64Kj4UD,2020-0188,2020-11-15,09:44:35,10:01:13,NA,incomplete,194,number,1,left,Red_Plus_Chess_4.jpg,Purple_Star_Stripes_4.jpg,Blue_Circle_Chess_1.jpg,left,705.6049999955576,true,low,false
c64Kj4UD,33ixyhizc8v0km0rv7j1cbq82t9e2g,3igi0vl64bxk8j0326pjyvjctglonj,c64Kj4UD,2020-0188,2020-11-15,09:44:35,10:01:13,NA,incomplete,195,number,0,right,Purple_Triangle_Grid_3.jpg,Green_Circle_Grid_1.jpg,Blue_Plus_Stripes_3.jpg,right,744.7249999968335,true,low,false
c64Kj4UD,33ixyhizc8v0km0rv7j1cbq82t9e2g,3igi0vl64bxk8j0326pjyvjctglonj,c64Kj4UD,2020-0188,2020-11-15,09:44:35,10:01:13,NA,incomplete,196,number,1,right,Blue_Circle_Grid_1.jpg,Green_Star_Grid_4.jpg,Red_Triangle_Dots_1.jpg,right,632.1250000037253,true,low,false
c64Kj4UD,33ixyhizc8v0km0rv7j1cbq82t9e2g,3igi0vl64bxk8j0326pjyvjctglonj,c64Kj4UD,2020-0188,2020-11-15,09:44:35,10:01:13,NA,incomplete,197,number,0,right,Purple_Plus_Stripes_2.jpg,Red_Circle_Stripes_3.jpg,Green_Star_Grid_2.jpg,right,750.6500000017695,true,low,false
c64Kj4UD,33ixyhizc8v0km0rv7j1cbq82t9e2g,3igi0vl64bxk8j0326pjyvjctglonj,c64Kj4UD,2020-0188,2020-11-15,09:44:35,10:01:13,NA,incomplete,198,number,1,left,Purple_Circle_Chess_3.jpg,Blue_Triangle_Dots_3.jpg,Green_Plus_Chess_4.jpg,right,1051.6999999963446,false,low,false
c64Kj4UD,33ixyhizc8v0km0rv7j1cbq82t9e2g,3igi0vl64bxk8j0326pjyvjctglonj,c64Kj4UD,2020-0188,2020-11-15,09:44:35,10:01:13,NA,incomplete,199,number,1,left,Green_Star_Dots_2.jpg,Purple_Plus_Chess_2.jpg,Blue_Circle_Dots_1.jpg,right,1318.054999996093,false,low,false
c64Kj4UD,33ixyhizc8v0km0rv7j1cbq82t9e2g,3igi0vl64bxk8j0326pjyvjctglonj,c64Kj4UD,2020-0188,2020-11-15,09:44:35,10:01:13,NA,incomplete,200,filling,0,left,Blue_Circle_Dots_4.jpg,Purple_Plus_Dots_2.jpg,Green_Star_Chess_4.jpg,right,859.6899999974994,false,low,false
c64Kj4UD,33ixyhizc8v0km0rv7j1cbq82t9e2g,3igi0vl64bxk8j0326pjyvjctglonj,c64Kj4UD,2020-0188,2020-11-15,09:44:35,10:01:13,NA,incomplete,201,filling,1,right,Red_Triangle_Chess_3.jpg,Purple_Star_Dots_3.jpg,Green_Plus_Chess_1.jpg,left,760.8449999970617,false,low,false
c64Kj4UD,33ixyhizc8v0km0rv7j1cbq82t9e2g,3igi0vl64bxk8j0326pjyvjctglonj,c64Kj4UD,2020-0188,2020-11-15,09:44:35,10:01:13,NA,incomplete,202,filling,1,right,Red_Plus_Dots_1.jpg,Green_Circle_Stripes_1.jpg,Purple_Triangle_Dots_4.jpg,left,700.7049999956507,false,low,false
c64Kj4UD,33ixyhizc8v0km0rv7j1cbq82t9e2g,3igi0vl64bxk8j0326pjyvjctglonj,c64Kj4UD,2020-0188,2020-11-15,09:44:35,10:01:13,NA,incomplete,203,filling,1,left,Purple_Triangle_Stripes_1.jpg,Green_Circle_Stripes_3.jpg,Red_Plus_Grid_1.jpg,left,851.9049999886192,true,low,false
c64Kj4UD,33ixyhizc8v0km0rv7j1cbq82t9e2g,3igi0vl64bxk8j0326pjyvjctglonj,c64Kj4UD,2020-0188,2020-11-15,09:44:35,10:01:13,NA,incomplete,204,filling,1,left,Green_Plus_Stripes_2.jpg,Red_Circle_Stripes_4.jpg,Purple_Star_Dots_2.jpg,left,839.6000000066124,true,low,false
c64Kj4UD,33ixyhizc8v0km0rv7j1cbq82t9e2g,3igi0vl64bxk8j0326pjyvjctglonj,c64Kj4UD,2020-0188,2020-11-15,09:44:35,10:01:13,NA,incomplete,205,filling,1,left,Green_Star_Dots_2.jpg,Purple_Plus_Dots_3.jpg,Red_Triangle_Stripes_2.jpg,left,1162.4699999956647,true,low,false
c64Kj4UD,33ixyhizc8v0km0rv7j1cbq82t9e2g,3igi0vl64bxk8j0326pjyvjctglonj,c64Kj4UD,2020-0188,2020-11-15,09:44:35,10:01:13,NA,incomplete,206,filling,1,right,Green_Plus_Grid_2.jpg,Purple_Triangle_Dots_2.jpg,Blue_Circle_Grid_1.jpg,right,778.3899999922141,true,low,false
c64Kj4UD,33ixyhizc8v0km0rv7j1cbq82t9e2g,3igi0vl64bxk8j0326pjyvjctglonj,c64Kj4UD,2020-0188,2020-11-15,09:44:35,10:01:13,NA,incomplete,207,filling,1,right,Green_Circle_Dots_1.jpg,Purple_Triangle_Grid_1.jpg,Blue_Star_Dots_3.jpg,right,871.0699999937788,true,low,false
c64Kj4UD,33ixyhizc8v0km0rv7j1cbq82t9e2g,3igi0vl64bxk8j0326pjyvjctglonj,c64Kj4UD,2020-0188,2020-11-15,09:44:35,10:01:13,NA,incomplete,208,filling,0,left,Red_Circle_Dots_4.jpg,Green_Star_Dots_3.jpg,Blue_Plus_Grid_4.jpg,left,1087.5599999999395,true,low,false
c64Kj4UD,33ixyhizc8v0km0rv7j1cbq82t9e2g,3igi0vl64bxk8j0326pjyvjctglonj,c64Kj4UD,2020-0188,2020-11-15,09:44:35,10:01:13,NA,incomplete,209,filling,1,right,Green_Plus_Stripes_1.jpg,Purple_Triangle_Chess_1.jpg,Blue_Circle_Stripes_3.jpg,right,878.2250000076601,true,low,false
c64Kj4UD,33ixyhizc8v0km0rv7j1cbq82t9e2g,3igi0vl64bxk8j0326pjyvjctglonj,c64Kj4UD,2020-0188,2020-11-15,09:44:35,10:01:13,NA,incomplete,210,filling,1,right,Purple_Plus_Grid_3.jpg,Green_Circle_Dots_3.jpg,Red_Triangle_Grid_2.jpg,right,945.7799999945564,true,low,false
c64Kj4UD,33ixyhizc8v0km0rv7j1cbq82t9e2g,3igi0vl64bxk8j0326pjyvjctglonj,c64Kj4UD,2020-0188,2020-11-15,09:44:35,10:01:13,NA,incomplete,211,filling,1,right,Red_Triangle_Dots_1.jpg,Purple_Circle_Stripes_1.jpg,Blue_Plus_Dots_3.jpg,right,970.9799999982351,true,low,false
c64Kj4UD,33ixyhizc8v0km0rv7j1cbq82t9e2g,3igi0vl64bxk8j0326pjyvjctglonj,c64Kj4UD,2020-0188,2020-11-15,09:44:35,10:01:13,NA,incomplete,212,filling,1,right,Green_Triangle_Stripes_1.jpg,Blue_Circle_Grid_1.jpg,Red_Star_Stripes_2.jpg,right,766.0750000068219,true,low,false
c64Kj4UD,33ixyhizc8v0km0rv7j1cbq82t9e2g,3igi0vl64bxk8j0326pjyvjctglonj,c64Kj4UD,2020-0188,2020-11-15,09:44:35,10:01:13,NA,incomplete,213,filling,1,right,Blue_Circle_Dots_3.jpg,Red_Star_Stripes_3.jpg,Purple_Triangle_Dots_2.jpg,right,899.8200000060024,true,low,false
c64Kj4UD,33ixyhizc8v0km0rv7j1cbq82t9e2g,3igi0vl64bxk8j0326pjyvjctglonj,c64Kj4UD,2020-0188,2020-11-15,09:44:35,10:01:13,NA,incomplete,214,filling,1,right,Red_Plus_Chess_4.jpg,Purple_Triangle_Dots_4.jpg,Green_Star_Chess_3.jpg,right,1008.6100000044098,true,low,false
c64Kj4UD,33ixyhizc8v0km0rv7j1cbq82t9e2g,3igi0vl64bxk8j0326pjyvjctglonj,c64Kj4UD,2020-0188,2020-11-15,09:44:35,10:01:13,NA,incomplete,215,filling,0,right,Purple_Plus_Grid_2.jpg,Red_Circle_Dots_2.jpg,Blue_Triangle_Grid_4.jpg,right,928.7849999964237,true,low,false
c64Kj4UD,33ixyhizc8v0km0rv7j1cbq82t9e2g,3igi0vl64bxk8j0326pjyvjctglonj,c64Kj4UD,2020-0188,2020-11-15,09:44:35,10:01:13,NA,incomplete,216,filling,1,right,Red_Plus_Grid_2.jpg,Green_Triangle_Stripes_2.jpg,Purple_Circle_Grid_1.jpg,right,761.6850000049453,true,low,false
c64Kj4UD,33ixyhizc8v0km0rv7j1cbq82t9e2g,3igi0vl64bxk8j0326pjyvjctglonj,c64Kj4UD,2020-0188,2020-11-15,09:44:35,10:01:13,NA,incomplete,217,filling,1,right,Green_Plus_Chess_1.jpg,Purple_Triangle_Stripes_1.jpg,Red_Star_Chess_3.jpg,left,797.9199999972479,false,low,false
c64Kj4UD,33ixyhizc8v0km0rv7j1cbq82t9e2g,3igi0vl64bxk8j0326pjyvjctglonj,c64Kj4UD,2020-0188,2020-11-15,09:44:35,10:01:13,NA,incomplete,218,filling,0,right,Green_Plus_Dots_3.jpg,Red_Circle_Stripes_3.jpg,Purple_Triangle_Dots_4.jpg,right,1131.2650000036228,true,low,false
c64Kj4UD,33ixyhizc8v0km0rv7j1cbq82t9e2g,3igi0vl64bxk8j0326pjyvjctglonj,c64Kj4UD,2020-0188,2020-11-15,09:44:35,10:01:13,NA,incomplete,219,filling,1,right,Green_Plus_Chess_3.jpg,Blue_Star_Dots_3.jpg,Purple_Triangle_Chess_4.jpg,right,907.2000000014668,true,low,false
c64Kj4UD,33ixyhizc8v0km0rv7j1cbq82t9e2g,3igi0vl64bxk8j0326pjyvjctglonj,c64Kj4UD,2020-0188,2020-11-15,09:44:35,10:01:13,NA,incomplete,220,number,1,left,Red_Plus_Chess_3.jpg,Purple_Star_Stripes_3.jpg,Blue_Triangle_Chess_2.jpg,right,791.4100000052713,false,low,false
c64Kj4UD,33ixyhizc8v0km0rv7j1cbq82t9e2g,3igi0vl64bxk8j0326pjyvjctglonj,c64Kj4UD,2020-0188,2020-11-15,09:44:35,10:01:13,NA,incomplete,221,number,1,right,Green_Star_Chess_4.jpg,Blue_Plus_Chess_1.jpg,Red_Triangle_Dots_4.jpg,left,897.3499999992782,false,low,false
c64Kj4UD,33ixyhizc8v0km0rv7j1cbq82t9e2g,3igi0vl64bxk8j0326pjyvjctglonj,c64Kj4UD,2020-0188,2020-11-15,09:44:35,10:01:13,NA,incomplete,222,number,1,right,Blue_Triangle_Chess_2.jpg,Green_Circle_Chess_4.jpg,Red_Plus_Stripes_2.jpg,left,848.4599999937927,false,low,false
c64Kj4UD,33ixyhizc8v0km0rv7j1cbq82t9e2g,3igi0vl64bxk8j0326pjyvjctglonj,c64Kj4UD,2020-0188,2020-11-15,09:44:35,10:01:13,NA,incomplete,223,number,1,right,Red_Plus_Stripes_1.jpg,Green_Circle_Stripes_3.jpg,Blue_Star_Grid_1.jpg,right,635.5049999983748,true,low,false
c64Kj4UD,33ixyhizc8v0km0rv7j1cbq82t9e2g,3igi0vl64bxk8j0326pjyvjctglonj,c64Kj4UD,2020-0188,2020-11-15,09:44:35,10:01:13,NA,incomplete,224,number,1,right,Blue_Plus_Grid_4.jpg,Green_Star_Grid_2.jpg,Purple_Circle_Stripes_4.jpg,right,917.4249999923632,true,low,false
c64Kj4UD,33ixyhizc8v0km0rv7j1cbq82t9e2g,3igi0vl64bxk8j0326pjyvjctglonj,c64Kj4UD,2020-0188,2020-11-15,09:44:35,10:01:13,NA,incomplete,225,number,1,right,Blue_Plus_Grid_1.jpg,Green_Star_Grid_2.jpg,Red_Triangle_Dots_1.jpg,right,692.2050000139279,true,low,false
c64Kj4UD,33ixyhizc8v0km0rv7j1cbq82t9e2g,3igi0vl64bxk8j0326pjyvjctglonj,c64Kj4UD,2020-0188,2020-11-15,09:44:35,10:01:13,NA,incomplete,226,number,1,left,Purple_Star_Grid_4.jpg,Green_Triangle_Dots_4.jpg,Blue_Plus_Grid_1.jpg,left,747.1499999955995,true,low,false
c64Kj4UD,33ixyhizc8v0km0rv7j1cbq82t9e2g,3igi0vl64bxk8j0326pjyvjctglonj,c64Kj4UD,2020-0188,2020-11-15,09:44:35,10:01:13,NA,incomplete,227,number,1,right,Blue_Triangle_Dots_2.jpg,Red_Star_Dots_3.jpg,Purple_Circle_Chess_2.jpg,right,763.9599999965867,true,low,false
c64Kj4UD,33ixyhizc8v0km0rv7j1cbq82t9e2g,3igi0vl64bxk8j0326pjyvjctglonj,c64Kj4UD,2020-0188,2020-11-15,09:44:35,10:01:13,NA,incomplete,228,number,1,right,Purple_Plus_Dots_2.jpg,Blue_Triangle_Dots_3.jpg,Green_Star_Chess_2.jpg,right,771.5949999983422,true,low,false
c64Kj4UD,33ixyhizc8v0km0rv7j1cbq82t9e2g,3igi0vl64bxk8j0326pjyvjctglonj,c64Kj4UD,2020-0188,2020-11-15,09:44:35,10:01:13,NA,incomplete,229,number,1,right,Green_Triangle_Dots_1.jpg,Blue_Plus_Dots_2.jpg,Purple_Circle_Chess_1.jpg,left,927.4750000040513,false,low,false
c64Kj4UD,33ixyhizc8v0km0rv7j1cbq82t9e2g,3igi0vl64bxk8j0326pjyvjctglonj,c64Kj4UD,2020-0188,2020-11-15,09:44:35,10:01:13,NA,incomplete,230,number,1,left,Green_Star_Chess_1.jpg,Blue_Triangle_Dots_1.jpg,Red_Circle_Chess_2.jpg,left,1531.2549999944167,true,low,false
c64Kj4UD,33ixyhizc8v0km0rv7j1cbq82t9e2g,3igi0vl64bxk8j0326pjyvjctglonj,c64Kj4UD,2020-0188,2020-11-15,09:44:35,10:01:13,NA,incomplete,231,number,0,left,Blue_Star_Chess_3.jpg,Purple_Triangle_Stripes_3.jpg,Red_Circle_Chess_2.jpg,left,832.444999992731,true,low,false
c64Kj4UD,33ixyhizc8v0km0rv7j1cbq82t9e2g,3igi0vl64bxk8j0326pjyvjctglonj,c64Kj4UD,2020-0188,2020-11-15,09:44:35,10:01:13,NA,incomplete,232,number,1,left,Blue_Triangle_Dots_1.jpg,Green_Plus_Stripes_1.jpg,Purple_Star_Dots_4.jpg,left,690.2899999986403,true,low,false
c64Kj4UD,33ixyhizc8v0km0rv7j1cbq82t9e2g,3igi0vl64bxk8j0326pjyvjctglonj,c64Kj4UD,2020-0188,2020-11-15,09:44:35,10:01:13,NA,incomplete,233,number,1,left,Green_Star_Grid_2.jpg,Purple_Triangle_Dots_2.jpg,Red_Plus_Grid_4.jpg,left,827.6649999897927,true,low,false
c64Kj4UD,33ixyhizc8v0km0rv7j1cbq82t9e2g,3igi0vl64bxk8j0326pjyvjctglonj,c64Kj4UD,2020-0188,2020-11-15,09:44:35,10:01:13,NA,incomplete,234,number,1,right,Blue_Star_Stripes_1.jpg,Purple_Triangle_Stripes_4.jpg,Red_Circle_Grid_1.jpg,right,642.6849999988917,true,low,false
c64Kj4UD,33ixyhizc8v0km0rv7j1cbq82t9e2g,3igi0vl64bxk8j0326pjyvjctglonj,c64Kj4UD,2020-0188,2020-11-15,09:44:35,10:01:13,NA,incomplete,235,number,1,right,Purple_Plus_Chess_2.jpg,Blue_Circle_Chess_4.jpg,Green_Triangle_Grid_2.jpg,right,907.4800000089454,true,low,false
c64Kj4UD,33ixyhizc8v0km0rv7j1cbq82t9e2g,3igi0vl64bxk8j0326pjyvjctglonj,c64Kj4UD,2020-0188,2020-11-15,09:44:35,10:01:13,NA,incomplete,236,number,1,left,Red_Circle_Stripes_2.jpg,Green_Triangle_Chess_2.jpg,Blue_Plus_Stripes_1.jpg,left,683.9250000048196,true,low,false
c64Kj4UD,33ixyhizc8v0km0rv7j1cbq82t9e2g,3igi0vl64bxk8j0326pjyvjctglonj,c64Kj4UD,2020-0188,2020-11-15,09:44:35,10:01:13,NA,incomplete,237,number,1,right,Blue_Star_Stripes_2.jpg,Green_Circle_Stripes_1.jpg,Purple_Triangle_Chess_2.jpg,right,780.3899999998976,true,low,false
c64Kj4UD,33ixyhizc8v0km0rv7j1cbq82t9e2g,3igi0vl64bxk8j0326pjyvjctglonj,c64Kj4UD,2020-0188,2020-11-15,09:44:35,10:01:13,NA,incomplete,238,number,1,left,Green_Circle_Dots_3.jpg,Purple_Plus_Grid_3.jpg,Blue_Triangle_Dots_4.jpg,left,766.1999999982072,true,low,false
c64Kj4UD,33ixyhizc8v0km0rv7j1cbq82t9e2g,3igi0vl64bxk8j0326pjyvjctglonj,c64Kj4UD,2020-0188,2020-11-15,09:44:35,10:01:13,NA,incomplete,239,number,1,left,Red_Plus_Stripes_2.jpg,Blue_Circle_Grid_2.jpg,Purple_Star_Stripes_3.jpg,left,810.7049999962328,true,low,false
c64Kj4UD,33ixyhizc8v0km0rv7j1cbq82t9e2g,3igi0vl64bxk8j0326pjyvjctglonj,c64Kj4UD,2020-0188,2020-11-15,09:44:35,10:01:13,965302.23999999,998677.7299999958,NA,NA,NA,NA,NA,NA,NA,NA,NA,NA,NA,undefined
