workerId,hitId,assignmentId,subject,studyid,exp_date,exp_start,exp_end,time_start,time_end,trial,type,reward_validity,answer,image_top,image_left,image_right,response,response_time,response_acc,volatility,practice
IWmgNLUM,30oitawpctgn4gcs6h6m71vz0jeh92,3ikz72a5b8tq26na336tb1ay2bxfnk,IWmgNLUM,2020-0188,2020-11-19,18:13:00,18:44:06,NA,incomplete,0,number,1,left,Red_Triangle_Grid_1.jpg,Blue_Plus_Dots_1.jpg,Green_Circle_Grid_2.jpg,right,1015.9750001039356,false,NA,true
IWmgNLUM,30oitawpctgn4gcs6h6m71vz0jeh92,3ikz72a5b8tq26na336tb1ay2bxfnk,IWmgNLUM,2020-0188,2020-11-19,18:13:00,18:44:06,NA,incomplete,1,number,1,right,Green_Plus_Stripes_4.jpg,Red_Star_Stripes_1.jpg,Blue_Triangle_Chess_4.jpg,left,1052.0150000229478,false,NA,true
IWmgNLUM,30oitawpctgn4gcs6h6m71vz0jeh92,3ikz72a5b8tq26na336tb1ay2bxfnk,IWmgNLUM,2020-0188,2020-11-19,18:13:00,18:44:06,NA,incomplete,2,number,1,left,Blue_Star_Grid_2.jpg,Purple_Plus_Stripes_2.jpg,Green_Triangle_Grid_3.jpg,right,1733.3050000015646,false,NA,true
IWmgNLUM,30oitawpctgn4gcs6h6m71vz0jeh92,3ikz72a5b8tq26na336tb1ay2bxfnk,IWmgNLUM,2020-0188,2020-11-19,18:13:00,18:44:06,NA,incomplete,3,number,1,left,Red_Star_Dots_1.jpg,Green_Plus_Chess_1.jpg,Purple_Triangle_Dots_2.jpg,right,1462.5099999830127,false,NA,true
IWmgNLUM,30oitawpctgn4gcs6h6m71vz0jeh92,3ikz72a5b8tq26na336tb1ay2bxfnk,IWmgNLUM,2020-0188,2020-11-19,18:13:00,18:44:06,NA,incomplete,4,number,0,right,Red_Circle_Stripes_3.jpg,Blue_Star_Stripes_2.jpg,Purple_Plus_Grid_3.jpg,right,1094.6700000204146,true,NA,true
IWmgNLUM,30oitawpctgn4gcs6h6m71vz0jeh92,3ikz72a5b8tq26na336tb1ay2bxfnk,IWmgNLUM,2020-0188,2020-11-19,18:13:00,18:44:06,NA,incomplete,5,number,1,right,Blue_Circle_Grid_2.jpg,Purple_Plus_Grid_4.jpg,Red_Triangle_Dots_2.jpg,left,767.6600001286715,false,NA,true
IWmgNLUM,30oitawpctgn4gcs6h6m71vz0jeh92,3ikz72a5b8tq26na336tb1ay2bxfnk,IWmgNLUM,2020-0188,2020-11-19,18:13:00,18:44:06,NA,incomplete,6,number,1,left,Red_Plus_Grid_3.jpg,Purple_Triangle_Stripes_3.jpg,Green_Circle_Grid_4.jpg,right,893.7600001227111,false,NA,true
IWmgNLUM,30oitawpctgn4gcs6h6m71vz0jeh92,3ikz72a5b8tq26na336tb1ay2bxfnk,IWmgNLUM,2020-0188,2020-11-19,18:13:00,18:44:06,NA,incomplete,7,number,1,left,Blue_Circle_Grid_3.jpg,Purple_Star_Chess_3.jpg,Green_Plus_Grid_4.jpg,left,1530.4050000850111,true,NA,true
IWmgNLUM,30oitawpctgn4gcs6h6m71vz0jeh92,3ikz72a5b8tq26na336tb1ay2bxfnk,IWmgNLUM,2020-0188,2020-11-19,18:13:00,18:44:06,NA,incomplete,8,number,1,right,Blue_Circle_Dots_2.jpg,Green_Triangle_Dots_3.jpg,Purple_Star_Grid_2.jpg,left,1115.9000000916421,false,NA,true
IWmgNLUM,30oitawpctgn4gcs6h6m71vz0jeh92,3ikz72a5b8tq26na336tb1ay2bxfnk,IWmgNLUM,2020-0188,2020-11-19,18:13:00,18:44:06,NA,incomplete,9,number,0,right,Red_Triangle_Chess_2.jpg,Green_Circle_Chess_4.jpg,Blue_Plus_Dots_2.jpg,left,1253.4399998839945,false,NA,true
IWmgNLUM,30oitawpctgn4gcs6h6m71vz0jeh92,3ikz72a5b8tq26na336tb1ay2bxfnk,IWmgNLUM,2020-0188,2020-11-19,18:13:00,18:44:06,NA,incomplete,10,number,0,left,Red_Triangle_Stripes_4.jpg,Blue_Plus_Chess_4.jpg,Green_Star_Stripes_1.jpg,right,1321.2999999523163,false,NA,true
IWmgNLUM,30oitawpctgn4gcs6h6m71vz0jeh92,3ikz72a5b8tq26na336tb1ay2bxfnk,IWmgNLUM,2020-0188,2020-11-19,18:13:00,18:44:06,NA,incomplete,11,number,0,left,Purple_Plus_Stripes_2.jpg,Green_Star_Grid_2.jpg,Blue_Circle_Stripes_1.jpg,left,1452.9249998740852,true,NA,true
IWmgNLUM,30oitawpctgn4gcs6h6m71vz0jeh92,3ikz72a5b8tq26na336tb1ay2bxfnk,IWmgNLUM,2020-0188,2020-11-19,18:13:00,18:44:06,NA,incomplete,12,number,0,left,Purple_Triangle_Grid_1.jpg,Red_Circle_Chess_1.jpg,Blue_Star_Grid_3.jpg,right,1627.9849999118596,false,NA,true
IWmgNLUM,30oitawpctgn4gcs6h6m71vz0jeh92,3ikz72a5b8tq26na336tb1ay2bxfnk,IWmgNLUM,2020-0188,2020-11-19,18:13:00,18:44:06,NA,incomplete,13,number,1,left,Red_Star_Grid_3.jpg,Purple_Circle_Stripes_3.jpg,Green_Plus_Grid_1.jpg,right,1280.6850001215935,false,NA,true
IWmgNLUM,30oitawpctgn4gcs6h6m71vz0jeh92,3ikz72a5b8tq26na336tb1ay2bxfnk,IWmgNLUM,2020-0188,2020-11-19,18:13:00,18:44:06,NA,incomplete,14,number,1,right,Green_Triangle_Grid_1.jpg,Purple_Plus_Grid_2.jpg,Red_Circle_Stripes_1.jpg,left,1248.139999806881,false,NA,true
IWmgNLUM,30oitawpctgn4gcs6h6m71vz0jeh92,3ikz72a5b8tq26na336tb1ay2bxfnk,IWmgNLUM,2020-0188,2020-11-19,18:13:00,18:44:06,NA,incomplete,15,number,1,left,Blue_Circle_Chess_4.jpg,Red_Triangle_Stripes_4.jpg,Green_Star_Chess_3.jpg,right,1832.094999961555,false,NA,true
IWmgNLUM,30oitawpctgn4gcs6h6m71vz0jeh92,3ikz72a5b8tq26na336tb1ay2bxfnk,IWmgNLUM,2020-0188,2020-11-19,18:13:00,18:44:06,NA,incomplete,16,number,1,right,Blue_Plus_Stripes_2.jpg,Purple_Circle_Stripes_1.jpg,Green_Triangle_Dots_2.jpg,right,1114.1649999190122,true,NA,true
IWmgNLUM,30oitawpctgn4gcs6h6m71vz0jeh92,3ikz72a5b8tq26na336tb1ay2bxfnk,IWmgNLUM,2020-0188,2020-11-19,18:13:00,18:44:06,NA,incomplete,17,number,1,left,Green_Circle_Dots_2.jpg,Blue_Star_Chess_2.jpg,Red_Triangle_Dots_4.jpg,right,1573.429999873042,false,NA,true
IWmgNLUM,30oitawpctgn4gcs6h6m71vz0jeh92,3ikz72a5b8tq26na336tb1ay2bxfnk,IWmgNLUM,2020-0188,2020-11-19,18:13:00,18:44:06,NA,incomplete,18,number,1,left,Purple_Plus_Dots_4.jpg,Green_Triangle_Chess_4.jpg,Blue_Star_Dots_1.jpg,left,1129.6999999321997,true,NA,true
IWmgNLUM,30oitawpctgn4gcs6h6m71vz0jeh92,3ikz72a5b8tq26na336tb1ay2bxfnk,IWmgNLUM,2020-0188,2020-11-19,18:13:00,18:44:06,NA,incomplete,19,number,1,left,Purple_Triangle_Stripes_4.jpg,Blue_Circle_Dots_4.jpg,Red_Star_Stripes_3.jpg,left,1330.3449999075383,true,NA,true
IWmgNLUM,30oitawpctgn4gcs6h6m71vz0jeh92,3ikz72a5b8tq26na336tb1ay2bxfnk,IWmgNLUM,2020-0188,2020-11-19,18:13:00,18:44:06,NA,incomplete,20,filling,1,right,Blue_Circle_Dots_3.jpg,Red_Triangle_Grid_3.jpg,Green_Plus_Dots_2.jpg,left,1197.615000186488,false,NA,true
IWmgNLUM,30oitawpctgn4gcs6h6m71vz0jeh92,3ikz72a5b8tq26na336tb1ay2bxfnk,IWmgNLUM,2020-0188,2020-11-19,18:13:00,18:44:06,NA,incomplete,21,filling,1,right,Purple_Plus_Dots_4.jpg,Blue_Triangle_Grid_4.jpg,Green_Star_Dots_3.jpg,left,1108.3150000777096,false,NA,true
IWmgNLUM,30oitawpctgn4gcs6h6m71vz0jeh92,3ikz72a5b8tq26na336tb1ay2bxfnk,IWmgNLUM,2020-0188,2020-11-19,18:13:00,18:44:06,NA,incomplete,22,filling,1,left,Blue_Plus_Stripes_2.jpg,Green_Triangle_Stripes_1.jpg,Purple_Circle_Dots_2.jpg,right,1564.7550001740456,false,NA,true
IWmgNLUM,30oitawpctgn4gcs6h6m71vz0jeh92,3ikz72a5b8tq26na336tb1ay2bxfnk,IWmgNLUM,2020-0188,2020-11-19,18:13:00,18:44:06,NA,incomplete,23,filling,1,right,Green_Circle_Dots_1.jpg,Blue_Triangle_Stripes_1.jpg,Purple_Plus_Dots_4.jpg,right,1524.449999909848,true,NA,true
IWmgNLUM,30oitawpctgn4gcs6h6m71vz0jeh92,3ikz72a5b8tq26na336tb1ay2bxfnk,IWmgNLUM,2020-0188,2020-11-19,18:13:00,18:44:06,NA,incomplete,24,filling,0,left,Purple_Plus_Dots_3.jpg,Green_Circle_Dots_1.jpg,Blue_Star_Grid_3.jpg,right,1632.285000057891,false,NA,true
IWmgNLUM,30oitawpctgn4gcs6h6m71vz0jeh92,3ikz72a5b8tq26na336tb1ay2bxfnk,IWmgNLUM,2020-0188,2020-11-19,18:13:00,18:44:06,NA,incomplete,25,filling,1,right,Green_Plus_Grid_4.jpg,Purple_Triangle_Chess_4.jpg,Red_Circle_Grid_2.jpg,right,1507.9200000036508,true,NA,true
IWmgNLUM,30oitawpctgn4gcs6h6m71vz0jeh92,3ikz72a5b8tq26na336tb1ay2bxfnk,IWmgNLUM,2020-0188,2020-11-19,18:13:00,18:44:06,NA,incomplete,26,filling,1,right,Purple_Plus_Grid_1.jpg,Green_Circle_Dots_1.jpg,Red_Star_Grid_4.jpg,right,1147.6549999788404,true,NA,true
IWmgNLUM,30oitawpctgn4gcs6h6m71vz0jeh92,3ikz72a5b8tq26na336tb1ay2bxfnk,IWmgNLUM,2020-0188,2020-11-19,18:13:00,18:44:06,NA,incomplete,27,filling,1,right,Blue_Circle_Dots_4.jpg,Purple_Triangle_Stripes_4.jpg,Green_Star_Dots_2.jpg,right,1300.60000019148,true,NA,true
IWmgNLUM,30oitawpctgn4gcs6h6m71vz0jeh92,3ikz72a5b8tq26na336tb1ay2bxfnk,IWmgNLUM,2020-0188,2020-11-19,18:13:00,18:44:06,NA,incomplete,28,filling,1,left,Red_Plus_Dots_1.jpg,Blue_Star_Dots_2.jpg,Green_Triangle_Grid_1.jpg,left,1513.9850000850856,true,NA,true
IWmgNLUM,30oitawpctgn4gcs6h6m71vz0jeh92,3ikz72a5b8tq26na336tb1ay2bxfnk,IWmgNLUM,2020-0188,2020-11-19,18:13:00,18:44:06,NA,incomplete,29,filling,0,right,Red_Plus_Chess_1.jpg,Green_Circle_Dots_1.jpg,Purple_Triangle_Chess_4.jpg,right,1128.8300000596792,true,NA,true
IWmgNLUM,30oitawpctgn4gcs6h6m71vz0jeh92,3ikz72a5b8tq26na336tb1ay2bxfnk,IWmgNLUM,2020-0188,2020-11-19,18:13:00,18:44:06,NA,incomplete,30,filling,1,right,Red_Plus_Grid_3.jpg,Purple_Star_Chess_3.jpg,Green_Circle_Grid_4.jpg,right,1470.3049999661744,true,NA,true
IWmgNLUM,30oitawpctgn4gcs6h6m71vz0jeh92,3ikz72a5b8tq26na336tb1ay2bxfnk,IWmgNLUM,2020-0188,2020-11-19,18:13:00,18:44:06,NA,incomplete,31,filling,1,left,Purple_Circle_Grid_1.jpg,Red_Triangle_Grid_2.jpg,Blue_Plus_Stripes_1.jpg,left,1300.7799999322742,true,NA,true
IWmgNLUM,30oitawpctgn4gcs6h6m71vz0jeh92,3ikz72a5b8tq26na336tb1ay2bxfnk,IWmgNLUM,2020-0188,2020-11-19,18:13:00,18:44:06,NA,incomplete,32,filling,1,left,Blue_Circle_Chess_2.jpg,Red_Star_Chess_4.jpg,Green_Triangle_Grid_2.jpg,left,1255.3999999072403,true,NA,true
IWmgNLUM,30oitawpctgn4gcs6h6m71vz0jeh92,3ikz72a5b8tq26na336tb1ay2bxfnk,IWmgNLUM,2020-0188,2020-11-19,18:13:00,18:44:06,NA,incomplete,33,filling,1,left,Purple_Triangle_Stripes_2.jpg,Green_Circle_Stripes_4.jpg,Blue_Plus_Grid_2.jpg,left,1161.2899999599904,true,NA,true
IWmgNLUM,30oitawpctgn4gcs6h6m71vz0jeh92,3ikz72a5b8tq26na336tb1ay2bxfnk,IWmgNLUM,2020-0188,2020-11-19,18:13:00,18:44:06,NA,incomplete,34,filling,1,left,Green_Plus_Grid_2.jpg,Blue_Triangle_Grid_1.jpg,Purple_Star_Dots_2.jpg,left,1252.420000033453,true,NA,true
IWmgNLUM,30oitawpctgn4gcs6h6m71vz0jeh92,3ikz72a5b8tq26na336tb1ay2bxfnk,IWmgNLUM,2020-0188,2020-11-19,18:13:00,18:44:06,NA,incomplete,35,filling,1,right,Purple_Circle_Grid_1.jpg,Blue_Plus_Dots_1.jpg,Red_Triangle_Grid_2.jpg,right,1277.9849998187274,true,NA,true
IWmgNLUM,30oitawpctgn4gcs6h6m71vz0jeh92,3ikz72a5b8tq26na336tb1ay2bxfnk,IWmgNLUM,2020-0188,2020-11-19,18:13:00,18:44:06,NA,incomplete,36,filling,1,left,Blue_Circle_Stripes_4.jpg,Purple_Star_Stripes_2.jpg,Green_Triangle_Chess_4.jpg,left,1249.64000005275,true,NA,true
IWmgNLUM,30oitawpctgn4gcs6h6m71vz0jeh92,3ikz72a5b8tq26na336tb1ay2bxfnk,IWmgNLUM,2020-0188,2020-11-19,18:13:00,18:44:06,NA,incomplete,37,filling,1,left,Green_Star_Grid_3.jpg,Blue_Triangle_Grid_1.jpg,Purple_Plus_Chess_3.jpg,left,1271.330000134185,true,NA,true
IWmgNLUM,30oitawpctgn4gcs6h6m71vz0jeh92,3ikz72a5b8tq26na336tb1ay2bxfnk,IWmgNLUM,2020-0188,2020-11-19,18:13:00,18:44:06,NA,incomplete,38,filling,1,right,Red_Star_Dots_3.jpg,Purple_Triangle_Stripes_3.jpg,Blue_Circle_Dots_1.jpg,right,1104.9750000238419,true,NA,true
IWmgNLUM,30oitawpctgn4gcs6h6m71vz0jeh92,3ikz72a5b8tq26na336tb1ay2bxfnk,IWmgNLUM,2020-0188,2020-11-19,18:13:00,18:44:06,NA,incomplete,39,filling,0,left,Green_Plus_Stripes_1.jpg,Purple_Circle_Stripes_3.jpg,Blue_Star_Dots_1.jpg,none,0,false,NA,true
IWmgNLUM,30oitawpctgn4gcs6h6m71vz0jeh92,3ikz72a5b8tq26na336tb1ay2bxfnk,IWmgNLUM,2020-0188,2020-11-19,18:13:00,18:44:06,NA,incomplete,0,number,1,left,Blue_Circle_Dots_3.jpg,Purple_Plus_Chess_3.jpg,Red_Star_Dots_2.jpg,left,848.4900000039488,true,low,false
IWmgNLUM,30oitawpctgn4gcs6h6m71vz0jeh92,3ikz72a5b8tq26na336tb1ay2bxfnk,IWmgNLUM,2020-0188,2020-11-19,18:13:00,18:44:06,NA,incomplete,1,number,1,right,Purple_Star_Chess_1.jpg,Green_Triangle_Chess_4.jpg,Red_Plus_Stripes_1.jpg,right,12.644999893382192,true,low,false
IWmgNLUM,30oitawpctgn4gcs6h6m71vz0jeh92,3ikz72a5b8tq26na336tb1ay2bxfnk,IWmgNLUM,2020-0188,2020-11-19,18:13:00,18:44:06,NA,incomplete,2,number,1,right,Blue_Triangle_Grid_2.jpg,Green_Star_Grid_4.jpg,Red_Circle_Dots_2.jpg,right,107.76000004261732,true,low,false
IWmgNLUM,30oitawpctgn4gcs6h6m71vz0jeh92,3ikz72a5b8tq26na336tb1ay2bxfnk,IWmgNLUM,2020-0188,2020-11-19,18:13:00,18:44:06,NA,incomplete,3,number,1,left,Blue_Star_Stripes_1.jpg,Green_Plus_Grid_1.jpg,Purple_Triangle_Stripes_3.jpg,left,85.80999984405935,true,low,false
IWmgNLUM,30oitawpctgn4gcs6h6m71vz0jeh92,3ikz72a5b8tq26na336tb1ay2bxfnk,IWmgNLUM,2020-0188,2020-11-19,18:13:00,18:44:06,NA,incomplete,4,number,1,left,Purple_Triangle_Stripes_2.jpg,Green_Star_Dots_2.jpg,Red_Plus_Stripes_4.jpg,right,91.60499996505678,false,low,false
IWmgNLUM,30oitawpctgn4gcs6h6m71vz0jeh92,3ikz72a5b8tq26na336tb1ay2bxfnk,IWmgNLUM,2020-0188,2020-11-19,18:13:00,18:44:06,NA,incomplete,5,number,1,left,Blue_Plus_Stripes_1.jpg,Green_Star_Chess_1.jpg,Purple_Triangle_Stripes_2.jpg,right,9.159999899566174,false,low,false
IWmgNLUM,30oitawpctgn4gcs6h6m71vz0jeh92,3ikz72a5b8tq26na336tb1ay2bxfnk,IWmgNLUM,2020-0188,2020-11-19,18:13:00,18:44:06,NA,incomplete,6,number,0,right,Purple_Triangle_Grid_2.jpg,Red_Star_Grid_1.jpg,Green_Circle_Stripes_2.jpg,right,1111.6900001652539,true,low,false
IWmgNLUM,30oitawpctgn4gcs6h6m71vz0jeh92,3ikz72a5b8tq26na336tb1ay2bxfnk,IWmgNLUM,2020-0188,2020-11-19,18:13:00,18:44:06,NA,incomplete,7,number,1,left,Green_Triangle_Grid_4.jpg,Blue_Plus_Stripes_4.jpg,Purple_Star_Grid_2.jpg,left,1400.4650001879781,true,low,false
IWmgNLUM,30oitawpctgn4gcs6h6m71vz0jeh92,3ikz72a5b8tq26na336tb1ay2bxfnk,IWmgNLUM,2020-0188,2020-11-19,18:13:00,18:44:06,NA,incomplete,8,number,1,left,Green_Circle_Chess_3.jpg,Blue_Triangle_Dots_3.jpg,Purple_Plus_Chess_1.jpg,right,1132.0400000549853,false,low,false
IWmgNLUM,30oitawpctgn4gcs6h6m71vz0jeh92,3ikz72a5b8tq26na336tb1ay2bxfnk,IWmgNLUM,2020-0188,2020-11-19,18:13:00,18:44:06,NA,incomplete,9,number,1,right,Blue_Star_Dots_4.jpg,Green_Plus_Dots_2.jpg,Purple_Triangle_Stripes_4.jpg,left,1423.5450001433492,false,low,false
IWmgNLUM,30oitawpctgn4gcs6h6m71vz0jeh92,3ikz72a5b8tq26na336tb1ay2bxfnk,IWmgNLUM,2020-0188,2020-11-19,18:13:00,18:44:06,NA,incomplete,10,number,1,left,Blue_Circle_Stripes_1.jpg,Green_Star_Dots_1.jpg,Purple_Triangle_Stripes_4.jpg,right,1101.909999968484,false,low,false
IWmgNLUM,30oitawpctgn4gcs6h6m71vz0jeh92,3ikz72a5b8tq26na336tb1ay2bxfnk,IWmgNLUM,2020-0188,2020-11-19,18:13:00,18:44:06,NA,incomplete,11,number,1,left,Red_Plus_Stripes_1.jpg,Purple_Triangle_Grid_1.jpg,Green_Circle_Stripes_2.jpg,left,1429.6849998645484,true,low,false
IWmgNLUM,30oitawpctgn4gcs6h6m71vz0jeh92,3ikz72a5b8tq26na336tb1ay2bxfnk,IWmgNLUM,2020-0188,2020-11-19,18:13:00,18:44:06,NA,incomplete,12,number,1,right,Blue_Plus_Grid_4.jpg,Green_Triangle_Grid_2.jpg,Purple_Star_Dots_4.jpg,left,1549.475000007078,false,low,false
IWmgNLUM,30oitawpctgn4gcs6h6m71vz0jeh92,3ikz72a5b8tq26na336tb1ay2bxfnk,IWmgNLUM,2020-0188,2020-11-19,18:13:00,18:44:06,NA,incomplete,13,number,1,left,Purple_Circle_Stripes_1.jpg,Red_Star_Dots_1.jpg,Green_Plus_Stripes_2.jpg,right,1193.9399999100715,false,low,false
IWmgNLUM,30oitawpctgn4gcs6h6m71vz0jeh92,3ikz72a5b8tq26na336tb1ay2bxfnk,IWmgNLUM,2020-0188,2020-11-19,18:13:00,18:44:06,NA,incomplete,14,number,0,right,Red_Circle_Dots_1.jpg,Green_Triangle_Dots_2.jpg,Blue_Plus_Chess_1.jpg,left,1192.9150000214577,false,low,false
IWmgNLUM,30oitawpctgn4gcs6h6m71vz0jeh92,3ikz72a5b8tq26na336tb1ay2bxfnk,IWmgNLUM,2020-0188,2020-11-19,18:13:00,18:44:06,NA,incomplete,15,number,1,right,Red_Plus_Stripes_1.jpg,Blue_Star_Stripes_2.jpg,Purple_Triangle_Grid_1.jpg,left,1844.6100000292063,false,low,false
IWmgNLUM,30oitawpctgn4gcs6h6m71vz0jeh92,3ikz72a5b8tq26na336tb1ay2bxfnk,IWmgNLUM,2020-0188,2020-11-19,18:13:00,18:44:06,NA,incomplete,16,number,1,left,Purple_Plus_Grid_4.jpg,Green_Star_Chess_4.jpg,Red_Triangle_Grid_1.jpg,right,1268.2349998503923,false,low,false
IWmgNLUM,30oitawpctgn4gcs6h6m71vz0jeh92,3ikz72a5b8tq26na336tb1ay2bxfnk,IWmgNLUM,2020-0188,2020-11-19,18:13:00,18:44:06,NA,incomplete,17,number,0,right,Red_Star_Dots_3.jpg,Green_Circle_Dots_2.jpg,Blue_Triangle_Chess_3.jpg,left,1405.6000001728535,false,low,false
IWmgNLUM,30oitawpctgn4gcs6h6m71vz0jeh92,3ikz72a5b8tq26na336tb1ay2bxfnk,IWmgNLUM,2020-0188,2020-11-19,18:13:00,18:44:06,NA,incomplete,18,number,0,left,Green_Plus_Dots_3.jpg,Purple_Star_Stripes_3.jpg,Blue_Triangle_Dots_2.jpg,right,1123.1649999972433,false,low,false
IWmgNLUM,30oitawpctgn4gcs6h6m71vz0jeh92,3ikz72a5b8tq26na336tb1ay2bxfnk,IWmgNLUM,2020-0188,2020-11-19,18:13:00,18:44:06,NA,incomplete,19,number,1,left,Purple_Circle_Dots_1.jpg,Green_Triangle_Grid_1.jpg,Red_Star_Dots_2.jpg,right,1189.845000160858,false,low,false
IWmgNLUM,30oitawpctgn4gcs6h6m71vz0jeh92,3ikz72a5b8tq26na336tb1ay2bxfnk,IWmgNLUM,2020-0188,2020-11-19,18:13:00,18:44:06,NA,incomplete,20,number,1,left,Purple_Triangle_Dots_1.jpg,Red_Plus_Chess_1.jpg,Blue_Circle_Dots_4.jpg,right,1080.4850000422448,false,low,false
IWmgNLUM,30oitawpctgn4gcs6h6m71vz0jeh92,3ikz72a5b8tq26na336tb1ay2bxfnk,IWmgNLUM,2020-0188,2020-11-19,18:13:00,18:44:06,NA,incomplete,21,number,1,right,Blue_Triangle_Stripes_1.jpg,Purple_Circle_Stripes_3.jpg,Red_Plus_Dots_1.jpg,left,1084.2250001151115,false,low,false
IWmgNLUM,30oitawpctgn4gcs6h6m71vz0jeh92,3ikz72a5b8tq26na336tb1ay2bxfnk,IWmgNLUM,2020-0188,2020-11-19,18:13:00,18:44:06,NA,incomplete,22,number,1,left,Red_Circle_Dots_3.jpg,Blue_Plus_Chess_3.jpg,Green_Triangle_Dots_2.jpg,right,1427.1050000097603,false,low,false
IWmgNLUM,30oitawpctgn4gcs6h6m71vz0jeh92,3ikz72a5b8tq26na336tb1ay2bxfnk,IWmgNLUM,2020-0188,2020-11-19,18:13:00,18:44:06,NA,incomplete,23,number,0,right,Green_Star_Grid_3.jpg,Red_Triangle_Grid_4.jpg,Purple_Circle_Chess_3.jpg,left,1041.844999883324,false,low,false
IWmgNLUM,30oitawpctgn4gcs6h6m71vz0jeh92,3ikz72a5b8tq26na336tb1ay2bxfnk,IWmgNLUM,2020-0188,2020-11-19,18:13:00,18:44:06,NA,incomplete,24,number,1,left,Red_Circle_Chess_1.jpg,Green_Triangle_Grid_1.jpg,Purple_Star_Chess_2.jpg,right,1080.555000109598,false,low,false
IWmgNLUM,30oitawpctgn4gcs6h6m71vz0jeh92,3ikz72a5b8tq26na336tb1ay2bxfnk,IWmgNLUM,2020-0188,2020-11-19,18:13:00,18:44:06,NA,incomplete,25,number,1,right,Purple_Circle_Grid_2.jpg,Red_Plus_Grid_1.jpg,Blue_Star_Dots_2.jpg,right,1282.6000000350177,true,low,false
IWmgNLUM,30oitawpctgn4gcs6h6m71vz0jeh92,3ikz72a5b8tq26na336tb1ay2bxfnk,IWmgNLUM,2020-0188,2020-11-19,18:13:00,18:44:06,NA,incomplete,26,number,1,left,Green_Circle_Grid_3.jpg,Purple_Plus_Stripes_3.jpg,Red_Triangle_Grid_4.jpg,right,1417.3300000838935,false,low,false
IWmgNLUM,30oitawpctgn4gcs6h6m71vz0jeh92,3ikz72a5b8tq26na336tb1ay2bxfnk,IWmgNLUM,2020-0188,2020-11-19,18:13:00,18:44:06,NA,incomplete,27,number,1,left,Blue_Triangle_Chess_1.jpg,Purple_Plus_Stripes_1.jpg,Red_Star_Chess_2.jpg,right,1497.5550000090152,false,low,false
IWmgNLUM,30oitawpctgn4gcs6h6m71vz0jeh92,3ikz72a5b8tq26na336tb1ay2bxfnk,IWmgNLUM,2020-0188,2020-11-19,18:13:00,18:44:06,NA,incomplete,28,number,0,right,Red_Triangle_Chess_2.jpg,Green_Circle_Chess_4.jpg,Purple_Plus_Dots_2.jpg,left,1314.1099999193102,false,low,false
IWmgNLUM,30oitawpctgn4gcs6h6m71vz0jeh92,3ikz72a5b8tq26na336tb1ay2bxfnk,IWmgNLUM,2020-0188,2020-11-19,18:13:00,18:44:06,NA,incomplete,29,number,1,right,Blue_Triangle_Stripes_2.jpg,Green_Circle_Stripes_4.jpg,Purple_Star_Chess_2.jpg,left,1336.6399998776615,false,low,false
IWmgNLUM,30oitawpctgn4gcs6h6m71vz0jeh92,3ikz72a5b8tq26na336tb1ay2bxfnk,IWmgNLUM,2020-0188,2020-11-19,18:13:00,18:44:06,NA,incomplete,30,filling,1,left,Red_Triangle_Stripes_3.jpg,Blue_Star_Stripes_2.jpg,Green_Plus_Chess_3.jpg,left,1525.120000122115,true,low,false
IWmgNLUM,30oitawpctgn4gcs6h6m71vz0jeh92,3ikz72a5b8tq26na336tb1ay2bxfnk,IWmgNLUM,2020-0188,2020-11-19,18:13:00,18:44:06,NA,incomplete,31,filling,1,left,Green_Plus_Chess_3.jpg,Purple_Triangle_Chess_4.jpg,Blue_Star_Stripes_3.jpg,left,1675.0400001183152,true,low,false
IWmgNLUM,30oitawpctgn4gcs6h6m71vz0jeh92,3ikz72a5b8tq26na336tb1ay2bxfnk,IWmgNLUM,2020-0188,2020-11-19,18:13:00,18:44:06,NA,incomplete,32,filling,1,left,Green_Triangle_Grid_2.jpg,Red_Plus_Grid_4.jpg,Blue_Star_Stripes_2.jpg,left,1183.255000039935,true,low,false
IWmgNLUM,30oitawpctgn4gcs6h6m71vz0jeh92,3ikz72a5b8tq26na336tb1ay2bxfnk,IWmgNLUM,2020-0188,2020-11-19,18:13:00,18:44:06,NA,incomplete,33,filling,1,right,Purple_Star_Chess_1.jpg,Green_Plus_Stripes_1.jpg,Blue_Triangle_Chess_3.jpg,left,873.105000006035,false,low,false
IWmgNLUM,30oitawpctgn4gcs6h6m71vz0jeh92,3ikz72a5b8tq26na336tb1ay2bxfnk,IWmgNLUM,2020-0188,2020-11-19,18:13:00,18:44:06,NA,incomplete,34,filling,1,left,Green_Plus_Stripes_2.jpg,Purple_Circle_Stripes_4.jpg,Red_Triangle_Dots_2.jpg,left,1011.350000044331,true,low,false
IWmgNLUM,30oitawpctgn4gcs6h6m71vz0jeh92,3ikz72a5b8tq26na336tb1ay2bxfnk,IWmgNLUM,2020-0188,2020-11-19,18:13:00,18:44:06,NA,incomplete,35,filling,0,left,Purple_Triangle_Grid_4.jpg,Green_Plus_Grid_2.jpg,Blue_Circle_Dots_4.jpg,left,1194.9599999934435,true,low,false
IWmgNLUM,30oitawpctgn4gcs6h6m71vz0jeh92,3ikz72a5b8tq26na336tb1ay2bxfnk,IWmgNLUM,2020-0188,2020-11-19,18:13:00,18:44:06,NA,incomplete,36,filling,1,left,Red_Star_Stripes_1.jpg,Purple_Circle_Stripes_4.jpg,Green_Plus_Chess_1.jpg,left,1333.4600001107901,true,low,false
IWmgNLUM,30oitawpctgn4gcs6h6m71vz0jeh92,3ikz72a5b8tq26na336tb1ay2bxfnk,IWmgNLUM,2020-0188,2020-11-19,18:13:00,18:44:06,NA,incomplete,37,filling,0,right,Purple_Plus_Grid_2.jpg,Blue_Star_Stripes_2.jpg,Green_Circle_Grid_3.jpg,right,1599.9849999789149,true,low,false
IWmgNLUM,30oitawpctgn4gcs6h6m71vz0jeh92,3ikz72a5b8tq26na336tb1ay2bxfnk,IWmgNLUM,2020-0188,2020-11-19,18:13:00,18:44:06,NA,incomplete,38,filling,1,right,Purple_Plus_Stripes_4.jpg,Red_Circle_Grid_4.jpg,Green_Triangle_Stripes_3.jpg,left,1128.2399999909103,false,low,false
IWmgNLUM,30oitawpctgn4gcs6h6m71vz0jeh92,3ikz72a5b8tq26na336tb1ay2bxfnk,IWmgNLUM,2020-0188,2020-11-19,18:13:00,18:44:06,NA,incomplete,39,filling,0,left,Red_Plus_Dots_2.jpg,Blue_Circle_Dots_4.jpg,Green_Triangle_Stripes_2.jpg,left,1493.8100001309067,true,low,false
IWmgNLUM,30oitawpctgn4gcs6h6m71vz0jeh92,3ikz72a5b8tq26na336tb1ay2bxfnk,IWmgNLUM,2020-0188,2020-11-19,18:13:00,18:44:06,NA,incomplete,40,filling,1,left,Purple_Plus_Chess_3.jpg,Red_Circle_Chess_1.jpg,Green_Triangle_Stripes_3.jpg,right,1197.3149999976158,false,low,false
IWmgNLUM,30oitawpctgn4gcs6h6m71vz0jeh92,3ikz72a5b8tq26na336tb1ay2bxfnk,IWmgNLUM,2020-0188,2020-11-19,18:13:00,18:44:06,NA,incomplete,41,filling,1,left,Purple_Circle_Dots_4.jpg,Green_Star_Dots_2.jpg,Blue_Plus_Chess_4.jpg,left,1354.6750000678003,true,low,false
IWmgNLUM,30oitawpctgn4gcs6h6m71vz0jeh92,3ikz72a5b8tq26na336tb1ay2bxfnk,IWmgNLUM,2020-0188,2020-11-19,18:13:00,18:44:06,NA,incomplete,42,filling,1,left,Purple_Circle_Grid_4.jpg,Blue_Triangle_Grid_2.jpg,Red_Star_Chess_4.jpg,left,1290.73500004597,true,low,false
IWmgNLUM,30oitawpctgn4gcs6h6m71vz0jeh92,3ikz72a5b8tq26na336tb1ay2bxfnk,IWmgNLUM,2020-0188,2020-11-19,18:13:00,18:44:06,NA,incomplete,43,filling,0,right,Green_Plus_Grid_4.jpg,Purple_Star_Stripes_4.jpg,Blue_Circle_Grid_2.jpg,right,1473.8749999087304,true,low,false
IWmgNLUM,30oitawpctgn4gcs6h6m71vz0jeh92,3ikz72a5b8tq26na336tb1ay2bxfnk,IWmgNLUM,2020-0188,2020-11-19,18:13:00,18:44:06,NA,incomplete,44,filling,0,right,Green_Plus_Dots_2.jpg,Blue_Star_Chess_2.jpg,Purple_Circle_Dots_1.jpg,right,1221.834999974817,true,low,false
IWmgNLUM,30oitawpctgn4gcs6h6m71vz0jeh92,3ikz72a5b8tq26na336tb1ay2bxfnk,IWmgNLUM,2020-0188,2020-11-19,18:13:00,18:44:06,NA,incomplete,45,filling,1,right,Red_Plus_Stripes_3.jpg,Purple_Star_Dots_3.jpg,Blue_Triangle_Stripes_4.jpg,right,1195.1800000388175,true,low,false
IWmgNLUM,30oitawpctgn4gcs6h6m71vz0jeh92,3ikz72a5b8tq26na336tb1ay2bxfnk,IWmgNLUM,2020-0188,2020-11-19,18:13:00,18:44:06,NA,incomplete,46,filling,1,right,Red_Triangle_Dots_3.jpg,Blue_Plus_Chess_3.jpg,Purple_Star_Dots_4.jpg,left,1227.2749999538064,false,low,false
IWmgNLUM,30oitawpctgn4gcs6h6m71vz0jeh92,3ikz72a5b8tq26na336tb1ay2bxfnk,IWmgNLUM,2020-0188,2020-11-19,18:13:00,18:44:06,NA,incomplete,47,filling,1,right,Green_Star_Grid_4.jpg,Purple_Triangle_Dots_4.jpg,Blue_Circle_Grid_3.jpg,right,825.0850001350045,true,low,false
IWmgNLUM,30oitawpctgn4gcs6h6m71vz0jeh92,3ikz72a5b8tq26na336tb1ay2bxfnk,IWmgNLUM,2020-0188,2020-11-19,18:13:00,18:44:06,NA,incomplete,48,filling,1,right,Green_Triangle_Chess_3.jpg,Red_Plus_Stripes_3.jpg,Blue_Star_Chess_1.jpg,left,796.2950000073761,false,low,false
IWmgNLUM,30oitawpctgn4gcs6h6m71vz0jeh92,3ikz72a5b8tq26na336tb1ay2bxfnk,IWmgNLUM,2020-0188,2020-11-19,18:13:00,18:44:06,NA,incomplete,49,filling,1,left,Purple_Triangle_Grid_1.jpg,Red_Plus_Grid_4.jpg,Blue_Star_Stripes_1.jpg,left,817.9800000507385,true,low,false
IWmgNLUM,30oitawpctgn4gcs6h6m71vz0jeh92,3ikz72a5b8tq26na336tb1ay2bxfnk,IWmgNLUM,2020-0188,2020-11-19,18:13:00,18:44:06,NA,incomplete,50,filling,1,right,Red_Plus_Dots_1.jpg,Blue_Triangle_Stripes_1.jpg,Purple_Circle_Dots_3.jpg,left,774.9999999068677,false,low,false
IWmgNLUM,30oitawpctgn4gcs6h6m71vz0jeh92,3ikz72a5b8tq26na336tb1ay2bxfnk,IWmgNLUM,2020-0188,2020-11-19,18:13:00,18:44:06,NA,incomplete,51,filling,1,right,Blue_Star_Dots_1.jpg,Red_Triangle_Grid_1.jpg,Green_Circle_Dots_2.jpg,right,1399.1600000299513,true,low,false
IWmgNLUM,30oitawpctgn4gcs6h6m71vz0jeh92,3ikz72a5b8tq26na336tb1ay2bxfnk,IWmgNLUM,2020-0188,2020-11-19,18:13:00,18:44:06,NA,incomplete,52,filling,0,left,Red_Star_Stripes_4.jpg,Green_Circle_Stripes_3.jpg,Blue_Plus_Grid_4.jpg,left,1373.6900000367314,true,low,false
IWmgNLUM,30oitawpctgn4gcs6h6m71vz0jeh92,3ikz72a5b8tq26na336tb1ay2bxfnk,IWmgNLUM,2020-0188,2020-11-19,18:13:00,18:44:06,NA,incomplete,53,filling,1,right,Blue_Plus_Grid_2.jpg,Purple_Star_Stripes_2.jpg,Green_Triangle_Grid_3.jpg,left,1504.949999973178,false,low,false
IWmgNLUM,30oitawpctgn4gcs6h6m71vz0jeh92,3ikz72a5b8tq26na336tb1ay2bxfnk,IWmgNLUM,2020-0188,2020-11-19,18:13:00,18:44:06,NA,incomplete,54,filling,1,left,Green_Star_Chess_4.jpg,Red_Triangle_Chess_2.jpg,Blue_Circle_Grid_4.jpg,left,1361.09000002034,true,low,false
IWmgNLUM,30oitawpctgn4gcs6h6m71vz0jeh92,3ikz72a5b8tq26na336tb1ay2bxfnk,IWmgNLUM,2020-0188,2020-11-19,18:13:00,18:44:06,NA,incomplete,55,filling,1,right,Green_Star_Dots_3.jpg,Blue_Plus_Chess_3.jpg,Purple_Circle_Dots_4.jpg,right,1171.3849999941885,true,low,false
IWmgNLUM,30oitawpctgn4gcs6h6m71vz0jeh92,3ikz72a5b8tq26na336tb1ay2bxfnk,IWmgNLUM,2020-0188,2020-11-19,18:13:00,18:44:06,NA,incomplete,56,filling,1,right,Green_Triangle_Grid_4.jpg,Purple_Plus_Dots_4.jpg,Blue_Circle_Grid_2.jpg,right,1245.9499998949468,true,low,false
IWmgNLUM,30oitawpctgn4gcs6h6m71vz0jeh92,3ikz72a5b8tq26na336tb1ay2bxfnk,IWmgNLUM,2020-0188,2020-11-19,18:13:00,18:44:06,NA,incomplete,57,filling,1,right,Blue_Plus_Grid_1.jpg,Green_Star_Chess_1.jpg,Purple_Circle_Grid_4.jpg,right,1318.7349999789149,true,low,false
IWmgNLUM,30oitawpctgn4gcs6h6m71vz0jeh92,3ikz72a5b8tq26na336tb1ay2bxfnk,IWmgNLUM,2020-0188,2020-11-19,18:13:00,18:44:06,NA,incomplete,58,filling,0,right,Red_Plus_Chess_2.jpg,Blue_Triangle_Stripes_2.jpg,Green_Star_Chess_3.jpg,right,1281.1849999707192,true,low,false
IWmgNLUM,30oitawpctgn4gcs6h6m71vz0jeh92,3ikz72a5b8tq26na336tb1ay2bxfnk,IWmgNLUM,2020-0188,2020-11-19,18:13:00,18:44:06,NA,incomplete,59,filling,1,left,Blue_Star_Dots_1.jpg,Purple_Plus_Dots_2.jpg,Green_Circle_Stripes_1.jpg,left,1162.4900000169873,true,low,false
IWmgNLUM,30oitawpctgn4gcs6h6m71vz0jeh92,3ikz72a5b8tq26na336tb1ay2bxfnk,IWmgNLUM,2020-0188,2020-11-19,18:13:00,18:44:06,NA,incomplete,60,number,1,left,Purple_Plus_Grid_2.jpg,Blue_Star_Stripes_2.jpg,Red_Triangle_Grid_4.jpg,right,1099.2499999701977,false,low,false
IWmgNLUM,30oitawpctgn4gcs6h6m71vz0jeh92,3ikz72a5b8tq26na336tb1ay2bxfnk,IWmgNLUM,2020-0188,2020-11-19,18:13:00,18:44:06,NA,incomplete,61,number,1,left,Green_Triangle_Chess_4.jpg,Blue_Plus_Grid_4.jpg,Red_Star_Chess_2.jpg,right,1271.76499995403,false,low,false
IWmgNLUM,30oitawpctgn4gcs6h6m71vz0jeh92,3ikz72a5b8tq26na336tb1ay2bxfnk,IWmgNLUM,2020-0188,2020-11-19,18:13:00,18:44:06,NA,incomplete,62,number,1,right,Blue_Plus_Stripes_3.jpg,Red_Star_Stripes_1.jpg,Purple_Triangle_Grid_3.jpg,right,1147.2100000828505,true,low,false
IWmgNLUM,30oitawpctgn4gcs6h6m71vz0jeh92,3ikz72a5b8tq26na336tb1ay2bxfnk,IWmgNLUM,2020-0188,2020-11-19,18:13:00,18:44:06,NA,incomplete,63,number,1,right,Purple_Triangle_Stripes_1.jpg,Red_Plus_Stripes_4.jpg,Blue_Star_Chess_1.jpg,left,1165.4799999669194,false,low,false
IWmgNLUM,30oitawpctgn4gcs6h6m71vz0jeh92,3ikz72a5b8tq26na336tb1ay2bxfnk,IWmgNLUM,2020-0188,2020-11-19,18:13:00,18:44:06,NA,incomplete,64,number,0,right,Purple_Circle_Dots_4.jpg,Blue_Star_Dots_3.jpg,Red_Triangle_Grid_4.jpg,left,1408.6849999148399,false,low,false
IWmgNLUM,30oitawpctgn4gcs6h6m71vz0jeh92,3ikz72a5b8tq26na336tb1ay2bxfnk,IWmgNLUM,2020-0188,2020-11-19,18:13:00,18:44:06,NA,incomplete,65,number,0,left,Red_Triangle_Stripes_2.jpg,Blue_Plus_Chess_2.jpg,Green_Star_Stripes_3.jpg,right,1123.9200001582503,false,low,false
IWmgNLUM,30oitawpctgn4gcs6h6m71vz0jeh92,3ikz72a5b8tq26na336tb1ay2bxfnk,IWmgNLUM,2020-0188,2020-11-19,18:13:00,18:44:06,NA,incomplete,66,number,1,left,Red_Plus_Grid_2.jpg,Blue_Star_Dots_2.jpg,Green_Triangle_Grid_3.jpg,right,1337.4699999112636,false,low,false
IWmgNLUM,30oitawpctgn4gcs6h6m71vz0jeh92,3ikz72a5b8tq26na336tb1ay2bxfnk,IWmgNLUM,2020-0188,2020-11-19,18:13:00,18:44:06,NA,incomplete,67,number,1,right,Green_Circle_Stripes_3.jpg,Blue_Triangle_Stripes_2.jpg,Red_Plus_Dots_3.jpg,left,1126.3900001067668,false,low,false
IWmgNLUM,30oitawpctgn4gcs6h6m71vz0jeh92,3ikz72a5b8tq26na336tb1ay2bxfnk,IWmgNLUM,2020-0188,2020-11-19,18:13:00,18:44:06,NA,incomplete,68,number,1,left,Purple_Circle_Grid_4.jpg,Red_Star_Stripes_4.jpg,Blue_Plus_Grid_3.jpg,right,1395.2750000171363,false,low,false
IWmgNLUM,30oitawpctgn4gcs6h6m71vz0jeh92,3ikz72a5b8tq26na336tb1ay2bxfnk,IWmgNLUM,2020-0188,2020-11-19,18:13:00,18:44:06,NA,incomplete,69,number,1,right,Red_Triangle_Dots_3.jpg,Blue_Plus_Dots_2.jpg,Green_Star_Chess_3.jpg,left,1036.894999910146,false,low,false
IWmgNLUM,30oitawpctgn4gcs6h6m71vz0jeh92,3ikz72a5b8tq26na336tb1ay2bxfnk,IWmgNLUM,2020-0188,2020-11-19,18:13:00,18:44:06,NA,incomplete,70,number,1,right,Green_Circle_Chess_1.jpg,Blue_Plus_Chess_2.jpg,Purple_Triangle_Grid_1.jpg,left,1705.420000012964,false,low,false
IWmgNLUM,30oitawpctgn4gcs6h6m71vz0jeh92,3ikz72a5b8tq26na336tb1ay2bxfnk,IWmgNLUM,2020-0188,2020-11-19,18:13:00,18:44:06,NA,incomplete,71,number,1,left,Purple_Star_Chess_4.jpg,Green_Plus_Grid_4.jpg,Blue_Triangle_Chess_1.jpg,right,1428.4949998836964,false,low,false
IWmgNLUM,30oitawpctgn4gcs6h6m71vz0jeh92,3ikz72a5b8tq26na336tb1ay2bxfnk,IWmgNLUM,2020-0188,2020-11-19,18:13:00,18:44:06,NA,incomplete,72,number,0,left,Red_Plus_Chess_4.jpg,Blue_Star_Stripes_4.jpg,Purple_Triangle_Chess_1.jpg,left,1312.1149998623878,true,low,false
IWmgNLUM,30oitawpctgn4gcs6h6m71vz0jeh92,3ikz72a5b8tq26na336tb1ay2bxfnk,IWmgNLUM,2020-0188,2020-11-19,18:13:00,18:44:06,NA,incomplete,73,number,1,right,Blue_Plus_Stripes_4.jpg,Purple_Triangle_Stripes_1.jpg,Red_Circle_Grid_4.jpg,right,1220.2399999368936,true,low,false
IWmgNLUM,30oitawpctgn4gcs6h6m71vz0jeh92,3ikz72a5b8tq26na336tb1ay2bxfnk,IWmgNLUM,2020-0188,2020-11-19,18:13:00,18:44:06,NA,incomplete,74,number,1,left,Green_Triangle_Dots_2.jpg,Red_Star_Grid_2.jpg,Purple_Circle_Dots_3.jpg,right,1401.2349999975413,false,low,false
IWmgNLUM,30oitawpctgn4gcs6h6m71vz0jeh92,3ikz72a5b8tq26na336tb1ay2bxfnk,IWmgNLUM,2020-0188,2020-11-19,18:13:00,18:44:06,NA,incomplete,75,number,1,right,Green_Triangle_Dots_4.jpg,Blue_Circle_Dots_1.jpg,Purple_Plus_Grid_4.jpg,left,1337.790000019595,false,low,false
IWmgNLUM,30oitawpctgn4gcs6h6m71vz0jeh92,3ikz72a5b8tq26na336tb1ay2bxfnk,IWmgNLUM,2020-0188,2020-11-19,18:13:00,18:44:06,NA,incomplete,76,number,1,right,Blue_Circle_Dots_2.jpg,Green_Star_Dots_1.jpg,Purple_Triangle_Stripes_2.jpg,left,1313.645000103861,false,low,false
IWmgNLUM,30oitawpctgn4gcs6h6m71vz0jeh92,3ikz72a5b8tq26na336tb1ay2bxfnk,IWmgNLUM,2020-0188,2020-11-19,18:13:00,18:44:06,NA,incomplete,77,number,0,right,Blue_Triangle_Chess_2.jpg,Green_Star_Chess_4.jpg,Purple_Circle_Stripes_2.jpg,left,1332.8399998135865,false,low,false
IWmgNLUM,30oitawpctgn4gcs6h6m71vz0jeh92,3ikz72a5b8tq26na336tb1ay2bxfnk,IWmgNLUM,2020-0188,2020-11-19,18:13:00,18:44:06,NA,incomplete,78,number,1,left,Purple_Triangle_Chess_3.jpg,Green_Plus_Dots_3.jpg,Blue_Circle_Chess_1.jpg,right,1186.184999998659,false,low,false
IWmgNLUM,30oitawpctgn4gcs6h6m71vz0jeh92,3ikz72a5b8tq26na336tb1ay2bxfnk,IWmgNLUM,2020-0188,2020-11-19,18:13:00,18:44:06,NA,incomplete,79,number,1,right,Green_Plus_Chess_2.jpg,Blue_Triangle_Chess_4.jpg,Red_Circle_Grid_2.jpg,left,1052.665000082925,false,low,false
IWmgNLUM,30oitawpctgn4gcs6h6m71vz0jeh92,3ikz72a5b8tq26na336tb1ay2bxfnk,IWmgNLUM,2020-0188,2020-11-19,18:13:00,18:44:06,NA,incomplete,80,number,1,left,Blue_Circle_Grid_4.jpg,Green_Triangle_Stripes_4.jpg,Red_Plus_Grid_3.jpg,right,1553.7750001531094,false,low,false
IWmgNLUM,30oitawpctgn4gcs6h6m71vz0jeh92,3ikz72a5b8tq26na336tb1ay2bxfnk,IWmgNLUM,2020-0188,2020-11-19,18:13:00,18:44:06,NA,incomplete,81,number,1,left,Green_Triangle_Grid_3.jpg,Blue_Star_Stripes_3.jpg,Purple_Circle_Grid_1.jpg,left,1310.4449999518692,true,low,false
IWmgNLUM,30oitawpctgn4gcs6h6m71vz0jeh92,3ikz72a5b8tq26na336tb1ay2bxfnk,IWmgNLUM,2020-0188,2020-11-19,18:13:00,18:44:06,NA,incomplete,82,number,1,left,Green_Star_Stripes_1.jpg,Red_Circle_Dots_1.jpg,Blue_Plus_Stripes_4.jpg,right,1504.7649999614805,false,low,false
IWmgNLUM,30oitawpctgn4gcs6h6m71vz0jeh92,3ikz72a5b8tq26na336tb1ay2bxfnk,IWmgNLUM,2020-0188,2020-11-19,18:13:00,18:44:06,NA,incomplete,83,number,0,left,Green_Triangle_Chess_3.jpg,Blue_Circle_Dots_3.jpg,Purple_Star_Chess_2.jpg,right,1443.6999999452382,false,low,false
IWmgNLUM,30oitawpctgn4gcs6h6m71vz0jeh92,3ikz72a5b8tq26na336tb1ay2bxfnk,IWmgNLUM,2020-0188,2020-11-19,18:13:00,18:44:06,NA,incomplete,84,number,1,left,Purple_Plus_Chess_3.jpg,Blue_Circle_Dots_3.jpg,Green_Star_Chess_1.jpg,right,1345.1799999456853,false,low,false
IWmgNLUM,30oitawpctgn4gcs6h6m71vz0jeh92,3ikz72a5b8tq26na336tb1ay2bxfnk,IWmgNLUM,2020-0188,2020-11-19,18:13:00,18:44:06,NA,incomplete,85,number,1,right,Red_Plus_Dots_2.jpg,Purple_Circle_Dots_1.jpg,Green_Triangle_Grid_2.jpg,right,1250.8549999911338,true,low,false
IWmgNLUM,30oitawpctgn4gcs6h6m71vz0jeh92,3ikz72a5b8tq26na336tb1ay2bxfnk,IWmgNLUM,2020-0188,2020-11-19,18:13:00,18:44:06,NA,incomplete,86,number,0,right,Green_Triangle_Stripes_3.jpg,Purple_Plus_Stripes_2.jpg,Blue_Circle_Grid_3.jpg,right,1314.1250000335276,true,low,false
IWmgNLUM,30oitawpctgn4gcs6h6m71vz0jeh92,3ikz72a5b8tq26na336tb1ay2bxfnk,IWmgNLUM,2020-0188,2020-11-19,18:13:00,18:44:06,NA,incomplete,87,number,1,left,Blue_Plus_Stripes_3.jpg,Green_Star_Dots_3.jpg,Purple_Circle_Stripes_1.jpg,right,1170.8000001963228,false,low,false
IWmgNLUM,30oitawpctgn4gcs6h6m71vz0jeh92,3ikz72a5b8tq26na336tb1ay2bxfnk,IWmgNLUM,2020-0188,2020-11-19,18:13:00,18:44:06,NA,incomplete,88,number,0,left,Red_Plus_Dots_1.jpg,Green_Triangle_Grid_1.jpg,Purple_Star_Dots_4.jpg,left,680.7549998629838,true,low,false
IWmgNLUM,30oitawpctgn4gcs6h6m71vz0jeh92,3ikz72a5b8tq26na336tb1ay2bxfnk,IWmgNLUM,2020-0188,2020-11-19,18:13:00,18:44:06,NA,incomplete,89,number,1,left,Red_Plus_Stripes_2.jpg,Green_Triangle_Dots_2.jpg,Purple_Star_Stripes_1.jpg,left,406.76499996334314,true,low,false
IWmgNLUM,30oitawpctgn4gcs6h6m71vz0jeh92,3ikz72a5b8tq26na336tb1ay2bxfnk,IWmgNLUM,2020-0188,2020-11-19,18:13:00,18:44:06,NA,incomplete,90,filling,1,right,Red_Plus_Grid_1.jpg,Blue_Triangle_Stripes_1.jpg,Green_Circle_Grid_3.jpg,right,1166.440000059083,true,low,false
IWmgNLUM,30oitawpctgn4gcs6h6m71vz0jeh92,3ikz72a5b8tq26na336tb1ay2bxfnk,IWmgNLUM,2020-0188,2020-11-19,18:13:00,18:44:06,NA,incomplete,91,filling,1,right,Purple_Triangle_Chess_3.jpg,Blue_Star_Stripes_3.jpg,Red_Circle_Chess_1.jpg,right,1771.629999857396,true,low,false
IWmgNLUM,30oitawpctgn4gcs6h6m71vz0jeh92,3ikz72a5b8tq26na336tb1ay2bxfnk,IWmgNLUM,2020-0188,2020-11-19,18:13:00,18:44:06,NA,incomplete,92,filling,0,left,Red_Triangle_Grid_1.jpg,Blue_Star_Grid_3.jpg,Purple_Plus_Chess_1.jpg,right,1837.3950000386685,false,low,false
IWmgNLUM,30oitawpctgn4gcs6h6m71vz0jeh92,3ikz72a5b8tq26na336tb1ay2bxfnk,IWmgNLUM,2020-0188,2020-11-19,18:13:00,18:44:06,NA,incomplete,93,filling,1,right,Blue_Plus_Dots_2.jpg,Green_Star_Chess_2.jpg,Purple_Circle_Dots_1.jpg,right,1321.6899998951703,true,low,false
IWmgNLUM,30oitawpctgn4gcs6h6m71vz0jeh92,3ikz72a5b8tq26na336tb1ay2bxfnk,IWmgNLUM,2020-0188,2020-11-19,18:13:00,18:44:06,NA,incomplete,94,filling,1,right,Purple_Circle_Grid_3.jpg,Green_Plus_Stripes_3.jpg,Red_Star_Grid_2.jpg,left,1158.6050000041723,false,low,false
IWmgNLUM,30oitawpctgn4gcs6h6m71vz0jeh92,3ikz72a5b8tq26na336tb1ay2bxfnk,IWmgNLUM,2020-0188,2020-11-19,18:13:00,18:44:06,NA,incomplete,95,filling,1,right,Red_Star_Grid_2.jpg,Blue_Circle_Chess_2.jpg,Purple_Triangle_Grid_4.jpg,right,1338.8249999843538,true,low,false
IWmgNLUM,30oitawpctgn4gcs6h6m71vz0jeh92,3ikz72a5b8tq26na336tb1ay2bxfnk,IWmgNLUM,2020-0188,2020-11-19,18:13:00,18:44:06,NA,incomplete,96,filling,1,right,Purple_Star_Chess_1.jpg,Green_Circle_Grid_1.jpg,Red_Plus_Chess_3.jpg,right,1274.6150000020862,true,low,false
IWmgNLUM,30oitawpctgn4gcs6h6m71vz0jeh92,3ikz72a5b8tq26na336tb1ay2bxfnk,IWmgNLUM,2020-0188,2020-11-19,18:13:00,18:44:06,NA,incomplete,97,filling,0,right,Red_Plus_Grid_2.jpg,Green_Triangle_Stripes_2.jpg,Purple_Circle_Grid_3.jpg,right,1319.5249999407679,true,low,false
IWmgNLUM,30oitawpctgn4gcs6h6m71vz0jeh92,3ikz72a5b8tq26na336tb1ay2bxfnk,IWmgNLUM,2020-0188,2020-11-19,18:13:00,18:44:06,NA,incomplete,98,filling,1,left,Green_Plus_Grid_4.jpg,Blue_Circle_Grid_3.jpg,Red_Star_Dots_4.jpg,left,1157.8899999149144,true,low,false
IWmgNLUM,30oitawpctgn4gcs6h6m71vz0jeh92,3ikz72a5b8tq26na336tb1ay2bxfnk,IWmgNLUM,2020-0188,2020-11-19,18:13:00,18:44:06,NA,incomplete,99,filling,1,right,Blue_Plus_Stripes_4.jpg,Red_Star_Dots_4.jpg,Purple_Triangle_Stripes_3.jpg,right,879.274999955669,true,low,false
IWmgNLUM,30oitawpctgn4gcs6h6m71vz0jeh92,3ikz72a5b8tq26na336tb1ay2bxfnk,IWmgNLUM,2020-0188,2020-11-19,18:13:00,18:44:06,NA,incomplete,100,filling,1,left,Purple_Triangle_Stripes_4.jpg,Green_Plus_Stripes_3.jpg,Red_Star_Grid_4.jpg,left,923.9400001242757,true,low,false
IWmgNLUM,30oitawpctgn4gcs6h6m71vz0jeh92,3ikz72a5b8tq26na336tb1ay2bxfnk,IWmgNLUM,2020-0188,2020-11-19,18:13:00,18:44:06,NA,incomplete,101,filling,1,right,Purple_Circle_Dots_2.jpg,Blue_Star_Chess_2.jpg,Green_Triangle_Dots_1.jpg,left,1161.6149998735636,false,low,false
IWmgNLUM,30oitawpctgn4gcs6h6m71vz0jeh92,3ikz72a5b8tq26na336tb1ay2bxfnk,IWmgNLUM,2020-0188,2020-11-19,18:13:00,18:44:06,NA,incomplete,102,filling,0,left,Red_Triangle_Dots_4.jpg,Purple_Circle_Dots_3.jpg,Green_Plus_Stripes_4.jpg,right,660.9799999278039,false,low,false
IWmgNLUM,30oitawpctgn4gcs6h6m71vz0jeh92,3ikz72a5b8tq26na336tb1ay2bxfnk,IWmgNLUM,2020-0188,2020-11-19,18:13:00,18:44:06,NA,incomplete,103,filling,1,right,Red_Triangle_Chess_3.jpg,Blue_Plus_Dots_3.jpg,Green_Circle_Chess_1.jpg,left,678.8099999539554,false,low,false
IWmgNLUM,30oitawpctgn4gcs6h6m71vz0jeh92,3ikz72a5b8tq26na336tb1ay2bxfnk,IWmgNLUM,2020-0188,2020-11-19,18:13:00,18:44:06,NA,incomplete,104,filling,1,right,Red_Plus_Stripes_3.jpg,Purple_Star_Dots_3.jpg,Blue_Circle_Stripes_1.jpg,right,516.1699999589473,true,low,false
IWmgNLUM,30oitawpctgn4gcs6h6m71vz0jeh92,3ikz72a5b8tq26na336tb1ay2bxfnk,IWmgNLUM,2020-0188,2020-11-19,18:13:00,18:44:06,NA,incomplete,105,filling,1,left,Green_Triangle_Chess_1.jpg,Red_Plus_Chess_2.jpg,Blue_Star_Dots_1.jpg,left,870.7600000780076,true,low,false
IWmgNLUM,30oitawpctgn4gcs6h6m71vz0jeh92,3ikz72a5b8tq26na336tb1ay2bxfnk,IWmgNLUM,2020-0188,2020-11-19,18:13:00,18:44:06,NA,incomplete,106,filling,0,left,Green_Triangle_Dots_1.jpg,Purple_Star_Dots_4.jpg,Red_Circle_Stripes_1.jpg,left,671.3949998375028,true,low,false
IWmgNLUM,30oitawpctgn4gcs6h6m71vz0jeh92,3ikz72a5b8tq26na336tb1ay2bxfnk,IWmgNLUM,2020-0188,2020-11-19,18:13:00,18:44:06,NA,incomplete,107,filling,1,left,Red_Plus_Dots_4.jpg,Green_Star_Dots_3.jpg,Blue_Triangle_Grid_4.jpg,right,537.8100001253188,false,low,false
IWmgNLUM,30oitawpctgn4gcs6h6m71vz0jeh92,3ikz72a5b8tq26na336tb1ay2bxfnk,IWmgNLUM,2020-0188,2020-11-19,18:13:00,18:44:06,NA,incomplete,108,filling,1,right,Red_Plus_Chess_1.jpg,Green_Circle_Grid_1.jpg,Blue_Star_Chess_4.jpg,left,653.615000192076,false,low,false
IWmgNLUM,30oitawpctgn4gcs6h6m71vz0jeh92,3ikz72a5b8tq26na336tb1ay2bxfnk,IWmgNLUM,2020-0188,2020-11-19,18:13:00,18:44:06,NA,incomplete,109,filling,1,right,Green_Plus_Dots_4.jpg,Red_Triangle_Stripes_4.jpg,Blue_Circle_Dots_1.jpg,left,1396.4300001971424,false,low,false
IWmgNLUM,30oitawpctgn4gcs6h6m71vz0jeh92,3ikz72a5b8tq26na336tb1ay2bxfnk,IWmgNLUM,2020-0188,2020-11-19,18:13:00,18:44:06,NA,incomplete,110,filling,1,right,Purple_Triangle_Chess_1.jpg,Green_Circle_Dots_1.jpg,Blue_Star_Chess_3.jpg,right,1302.4650001898408,true,low,false
IWmgNLUM,30oitawpctgn4gcs6h6m71vz0jeh92,3ikz72a5b8tq26na336tb1ay2bxfnk,IWmgNLUM,2020-0188,2020-11-19,18:13:00,18:44:06,NA,incomplete,111,filling,1,right,Green_Triangle_Stripes_1.jpg,Red_Star_Grid_1.jpg,Blue_Circle_Stripes_2.jpg,right,1058.5000000428408,true,low,false
IWmgNLUM,30oitawpctgn4gcs6h6m71vz0jeh92,3ikz72a5b8tq26na336tb1ay2bxfnk,IWmgNLUM,2020-0188,2020-11-19,18:13:00,18:44:06,NA,incomplete,112,filling,1,right,Red_Triangle_Dots_2.jpg,Purple_Plus_Stripes_2.jpg,Green_Circle_Dots_1.jpg,right,1123.2150001451373,true,low,false
IWmgNLUM,30oitawpctgn4gcs6h6m71vz0jeh92,3ikz72a5b8tq26na336tb1ay2bxfnk,IWmgNLUM,2020-0188,2020-11-19,18:13:00,18:44:06,NA,incomplete,113,filling,1,left,Green_Star_Dots_2.jpg,Red_Plus_Dots_3.jpg,Blue_Circle_Chess_2.jpg,left,1793.1649999227375,true,low,false
IWmgNLUM,30oitawpctgn4gcs6h6m71vz0jeh92,3ikz72a5b8tq26na336tb1ay2bxfnk,IWmgNLUM,2020-0188,2020-11-19,18:13:00,18:44:06,NA,incomplete,114,filling,1,left,Red_Triangle_Chess_1.jpg,Blue_Circle_Chess_4.jpg,Green_Star_Dots_1.jpg,left,1082.6799999922514,true,low,false
IWmgNLUM,30oitawpctgn4gcs6h6m71vz0jeh92,3ikz72a5b8tq26na336tb1ay2bxfnk,IWmgNLUM,2020-0188,2020-11-19,18:13:00,18:44:06,NA,incomplete,115,filling,1,left,Green_Plus_Stripes_2.jpg,Red_Circle_Stripes_1.jpg,Blue_Triangle_Dots_2.jpg,left,1252.2199999075383,true,low,false
IWmgNLUM,30oitawpctgn4gcs6h6m71vz0jeh92,3ikz72a5b8tq26na336tb1ay2bxfnk,IWmgNLUM,2020-0188,2020-11-19,18:13:00,18:44:06,NA,incomplete,116,filling,1,left,Red_Star_Dots_2.jpg,Purple_Plus_Dots_1.jpg,Green_Circle_Chess_2.jpg,left,1483.7800001259893,true,low,false
IWmgNLUM,30oitawpctgn4gcs6h6m71vz0jeh92,3ikz72a5b8tq26na336tb1ay2bxfnk,IWmgNLUM,2020-0188,2020-11-19,18:13:00,18:44:06,NA,incomplete,117,filling,1,right,Red_Circle_Grid_1.jpg,Green_Triangle_Chess_1.jpg,Blue_Star_Grid_2.jpg,right,1163.799999980256,true,low,false
IWmgNLUM,30oitawpctgn4gcs6h6m71vz0jeh92,3ikz72a5b8tq26na336tb1ay2bxfnk,IWmgNLUM,2020-0188,2020-11-19,18:13:00,18:44:06,NA,incomplete,118,filling,1,right,Red_Circle_Chess_4.jpg,Green_Star_Stripes_4.jpg,Blue_Triangle_Chess_2.jpg,right,1237.6650001388043,true,low,false
IWmgNLUM,30oitawpctgn4gcs6h6m71vz0jeh92,3ikz72a5b8tq26na336tb1ay2bxfnk,IWmgNLUM,2020-0188,2020-11-19,18:13:00,18:44:06,NA,incomplete,119,filling,1,right,Blue_Star_Grid_1.jpg,Purple_Circle_Chess_1.jpg,Red_Triangle_Grid_3.jpg,right,1279.0499997790903,true,low,false
IWmgNLUM,30oitawpctgn4gcs6h6m71vz0jeh92,3ikz72a5b8tq26na336tb1ay2bxfnk,IWmgNLUM,2020-0188,2020-11-19,18:13:00,18:44:06,NA,incomplete,120,number,1,left,Red_Triangle_Chess_4.jpg,Purple_Star_Stripes_4.jpg,Green_Plus_Chess_3.jpg,right,1176.3799998443574,false,low,false
IWmgNLUM,30oitawpctgn4gcs6h6m71vz0jeh92,3ikz72a5b8tq26na336tb1ay2bxfnk,IWmgNLUM,2020-0188,2020-11-19,18:13:00,18:44:06,NA,incomplete,121,number,1,left,Blue_Plus_Dots_2.jpg,Red_Circle_Grid_2.jpg,Purple_Star_Dots_4.jpg,right,1293.1950001511723,false,low,false
IWmgNLUM,30oitawpctgn4gcs6h6m71vz0jeh92,3ikz72a5b8tq26na336tb1ay2bxfnk,IWmgNLUM,2020-0188,2020-11-19,18:13:00,18:44:06,NA,incomplete,122,number,0,left,Green_Plus_Grid_1.jpg,Purple_Star_Chess_1.jpg,Blue_Circle_Grid_2.jpg,right,899.6999999508262,false,low,false
IWmgNLUM,30oitawpctgn4gcs6h6m71vz0jeh92,3ikz72a5b8tq26na336tb1ay2bxfnk,IWmgNLUM,2020-0188,2020-11-19,18:13:00,18:44:06,NA,incomplete,123,number,1,right,Purple_Triangle_Dots_3.jpg,Green_Circle_Dots_1.jpg,Red_Plus_Chess_3.jpg,left,1285.03999998793,false,low,false
IWmgNLUM,30oitawpctgn4gcs6h6m71vz0jeh92,3ikz72a5b8tq26na336tb1ay2bxfnk,IWmgNLUM,2020-0188,2020-11-19,18:13:00,18:44:06,NA,incomplete,124,number,1,left,Purple_Star_Stripes_4.jpg,Blue_Triangle_Dots_4.jpg,Green_Plus_Stripes_3.jpg,right,1594.4250000175089,false,low,false
IWmgNLUM,30oitawpctgn4gcs6h6m71vz0jeh92,3ikz72a5b8tq26na336tb1ay2bxfnk,IWmgNLUM,2020-0188,2020-11-19,18:13:00,18:44:06,NA,incomplete,125,number,0,right,Green_Plus_Stripes_3.jpg,Red_Triangle_Stripes_1.jpg,Purple_Star_Chess_3.jpg,right,1644.6999998297542,true,low,false
IWmgNLUM,30oitawpctgn4gcs6h6m71vz0jeh92,3ikz72a5b8tq26na336tb1ay2bxfnk,IWmgNLUM,2020-0188,2020-11-19,18:13:00,18:44:06,NA,incomplete,126,number,1,right,Purple_Triangle_Stripes_2.jpg,Red_Plus_Stripes_1.jpg,Blue_Circle_Grid_2.jpg,right,1209.400000050664,true,low,false
IWmgNLUM,30oitawpctgn4gcs6h6m71vz0jeh92,3ikz72a5b8tq26na336tb1ay2bxfnk,IWmgNLUM,2020-0188,2020-11-19,18:13:00,18:44:06,NA,incomplete,127,number,1,right,Blue_Circle_Grid_2.jpg,Purple_Triangle_Grid_4.jpg,Red_Plus_Chess_2.jpg,left,1684.5249999314547,false,low,false
IWmgNLUM,30oitawpctgn4gcs6h6m71vz0jeh92,3ikz72a5b8tq26na336tb1ay2bxfnk,IWmgNLUM,2020-0188,2020-11-19,18:13:00,18:44:06,NA,incomplete,128,number,1,right,Purple_Triangle_Grid_3.jpg,Blue_Circle_Grid_1.jpg,Red_Plus_Chess_3.jpg,right,992.1299999114126,true,low,false
IWmgNLUM,30oitawpctgn4gcs6h6m71vz0jeh92,3ikz72a5b8tq26na336tb1ay2bxfnk,IWmgNLUM,2020-0188,2020-11-19,18:13:00,18:44:06,NA,incomplete,129,number,1,right,Green_Triangle_Chess_2.jpg,Red_Plus_Chess_3.jpg,Purple_Circle_Grid_2.jpg,left,1367.969999788329,false,low,false
IWmgNLUM,30oitawpctgn4gcs6h6m71vz0jeh92,3ikz72a5b8tq26na336tb1ay2bxfnk,IWmgNLUM,2020-0188,2020-11-19,18:13:00,18:44:06,NA,incomplete,130,number,1,left,Purple_Star_Dots_3.jpg,Red_Plus_Chess_3.jpg,Green_Circle_Dots_4.jpg,right,850.3150001633912,false,low,false
IWmgNLUM,30oitawpctgn4gcs6h6m71vz0jeh92,3ikz72a5b8tq26na336tb1ay2bxfnk,IWmgNLUM,2020-0188,2020-11-19,18:13:00,18:44:06,NA,incomplete,131,number,1,left,Purple_Plus_Dots_1.jpg,Red_Star_Stripes_1.jpg,Blue_Circle_Dots_4.jpg,right,1204.230000032112,false,low,false
IWmgNLUM,30oitawpctgn4gcs6h6m71vz0jeh92,3ikz72a5b8tq26na336tb1ay2bxfnk,IWmgNLUM,2020-0188,2020-11-19,18:13:00,18:44:06,NA,incomplete,132,number,1,left,Purple_Star_Grid_4.jpg,Green_Triangle_Dots_4.jpg,Red_Plus_Grid_3.jpg,right,1666.4249999448657,false,low,false
IWmgNLUM,30oitawpctgn4gcs6h6m71vz0jeh92,3ikz72a5b8tq26na336tb1ay2bxfnk,IWmgNLUM,2020-0188,2020-11-19,18:13:00,18:44:06,NA,incomplete,133,number,1,right,Red_Circle_Grid_1.jpg,Purple_Plus_Grid_3.jpg,Green_Triangle_Dots_1.jpg,left,1113.33499988541,false,low,false
IWmgNLUM,30oitawpctgn4gcs6h6m71vz0jeh92,3ikz72a5b8tq26na336tb1ay2bxfnk,IWmgNLUM,2020-0188,2020-11-19,18:13:00,18:44:06,NA,incomplete,134,number,1,right,Red_Plus_Stripes_1.jpg,Blue_Star_Stripes_3.jpg,Green_Circle_Chess_1.jpg,left,1672.9500000365078,false,low,false
IWmgNLUM,30oitawpctgn4gcs6h6m71vz0jeh92,3ikz72a5b8tq26na336tb1ay2bxfnk,IWmgNLUM,2020-0188,2020-11-19,18:13:00,18:44:06,NA,incomplete,135,number,0,left,Purple_Star_Grid_3.jpg,Red_Plus_Chess_3.jpg,Green_Triangle_Grid_4.jpg,right,1550.5949999205768,false,low,false
IWmgNLUM,30oitawpctgn4gcs6h6m71vz0jeh92,3ikz72a5b8tq26na336tb1ay2bxfnk,IWmgNLUM,2020-0188,2020-11-19,18:13:00,18:44:06,NA,incomplete,136,number,1,left,Blue_Star_Chess_2.jpg,Green_Plus_Dots_2.jpg,Purple_Triangle_Chess_4.jpg,right,1261.2499999813735,false,low,false
IWmgNLUM,30oitawpctgn4gcs6h6m71vz0jeh92,3ikz72a5b8tq26na336tb1ay2bxfnk,IWmgNLUM,2020-0188,2020-11-19,18:13:00,18:44:06,NA,incomplete,137,number,1,left,Green_Plus_Dots_2.jpg,Red_Triangle_Chess_2.jpg,Purple_Star_Dots_1.jpg,right,1298.3950001653284,false,low,false
IWmgNLUM,30oitawpctgn4gcs6h6m71vz0jeh92,3ikz72a5b8tq26na336tb1ay2bxfnk,IWmgNLUM,2020-0188,2020-11-19,18:13:00,18:44:06,NA,incomplete,138,number,1,right,Purple_Circle_Chess_3.jpg,Green_Triangle_Chess_2.jpg,Red_Plus_Stripes_3.jpg,left,1232.0949998684227,false,low,false
IWmgNLUM,30oitawpctgn4gcs6h6m71vz0jeh92,3ikz72a5b8tq26na336tb1ay2bxfnk,IWmgNLUM,2020-0188,2020-11-19,18:13:00,18:44:06,NA,incomplete,139,number,1,right,Blue_Triangle_Dots_1.jpg,Green_Plus_Dots_3.jpg,Red_Circle_Grid_1.jpg,right,1471.564999781549,true,low,false
IWmgNLUM,30oitawpctgn4gcs6h6m71vz0jeh92,3ikz72a5b8tq26na336tb1ay2bxfnk,IWmgNLUM,2020-0188,2020-11-19,18:13:00,18:44:06,NA,incomplete,140,filling,1,right,Blue_Circle_Grid_2.jpg,Red_Star_Chess_2.jpg,Green_Plus_Grid_3.jpg,right,1311.2749999854714,true,low,false
IWmgNLUM,30oitawpctgn4gcs6h6m71vz0jeh92,3ikz72a5b8tq26na336tb1ay2bxfnk,IWmgNLUM,2020-0188,2020-11-19,18:13:00,18:44:06,NA,incomplete,141,filling,0,left,Purple_Plus_Dots_1.jpg,Red_Star_Dots_3.jpg,Blue_Triangle_Chess_1.jpg,left,1403.340000193566,true,low,false
IWmgNLUM,30oitawpctgn4gcs6h6m71vz0jeh92,3ikz72a5b8tq26na336tb1ay2bxfnk,IWmgNLUM,2020-0188,2020-11-19,18:13:00,18:44:06,NA,incomplete,142,filling,1,left,Green_Triangle_Grid_4.jpg,Purple_Star_Grid_1.jpg,Red_Circle_Stripes_4.jpg,right,1414.3099999055266,false,low,false
IWmgNLUM,30oitawpctgn4gcs6h6m71vz0jeh92,3ikz72a5b8tq26na336tb1ay2bxfnk,IWmgNLUM,2020-0188,2020-11-19,18:13:00,18:44:06,NA,incomplete,143,filling,1,right,Green_Circle_Grid_1.jpg,Blue_Triangle_Stripes_1.jpg,Purple_Plus_Grid_2.jpg,left,1061.214999994263,false,low,false
IWmgNLUM,30oitawpctgn4gcs6h6m71vz0jeh92,3ikz72a5b8tq26na336tb1ay2bxfnk,IWmgNLUM,2020-0188,2020-11-19,18:13:00,18:44:06,NA,incomplete,144,filling,1,right,Blue_Triangle_Dots_3.jpg,Green_Circle_Grid_3.jpg,Purple_Plus_Dots_2.jpg,right,1614.839999936521,true,low,false
IWmgNLUM,30oitawpctgn4gcs6h6m71vz0jeh92,3ikz72a5b8tq26na336tb1ay2bxfnk,IWmgNLUM,2020-0188,2020-11-19,18:13:00,18:44:06,NA,incomplete,145,filling,0,left,Green_Triangle_Chess_2.jpg,Blue_Plus_Chess_1.jpg,Purple_Star_Grid_2.jpg,right,1315.4649999924004,false,low,false
IWmgNLUM,30oitawpctgn4gcs6h6m71vz0jeh92,3ikz72a5b8tq26na336tb1ay2bxfnk,IWmgNLUM,2020-0188,2020-11-19,18:13:00,18:44:06,NA,incomplete,146,filling,1,right,Green_Star_Chess_1.jpg,Purple_Triangle_Dots_1.jpg,Blue_Circle_Chess_3.jpg,right,1215.6050000339746,true,low,false
IWmgNLUM,30oitawpctgn4gcs6h6m71vz0jeh92,3ikz72a5b8tq26na336tb1ay2bxfnk,IWmgNLUM,2020-0188,2020-11-19,18:13:00,18:44:06,NA,incomplete,147,filling,1,right,Green_Star_Stripes_1.jpg,Purple_Circle_Chess_1.jpg,Red_Plus_Stripes_2.jpg,right,1330.6700000539422,true,low,false
IWmgNLUM,30oitawpctgn4gcs6h6m71vz0jeh92,3ikz72a5b8tq26na336tb1ay2bxfnk,IWmgNLUM,2020-0188,2020-11-19,18:13:00,18:44:06,NA,incomplete,148,filling,1,right,Blue_Plus_Dots_1.jpg,Red_Circle_Grid_1.jpg,Purple_Star_Dots_3.jpg,right,1107.3149999137968,true,low,false
IWmgNLUM,30oitawpctgn4gcs6h6m71vz0jeh92,3ikz72a5b8tq26na336tb1ay2bxfnk,IWmgNLUM,2020-0188,2020-11-19,18:13:00,18:44:06,NA,incomplete,149,filling,1,right,Red_Triangle_Chess_1.jpg,Blue_Circle_Dots_1.jpg,Green_Star_Chess_4.jpg,right,1097.9199998546392,true,low,false
IWmgNLUM,30oitawpctgn4gcs6h6m71vz0jeh92,3ikz72a5b8tq26na336tb1ay2bxfnk,IWmgNLUM,2020-0188,2020-11-19,18:13:00,18:44:06,NA,incomplete,150,filling,1,left,Red_Star_Chess_3.jpg,Blue_Circle_Chess_4.jpg,Green_Triangle_Dots_3.jpg,left,1489.2850001342595,true,low,false
IWmgNLUM,30oitawpctgn4gcs6h6m71vz0jeh92,3ikz72a5b8tq26na336tb1ay2bxfnk,IWmgNLUM,2020-0188,2020-11-19,18:13:00,18:44:06,NA,incomplete,151,filling,1,right,Green_Plus_Grid_4.jpg,Purple_Circle_Dots_4.jpg,Blue_Triangle_Grid_1.jpg,left,1115.4549999628216,false,low,false
IWmgNLUM,30oitawpctgn4gcs6h6m71vz0jeh92,3ikz72a5b8tq26na336tb1ay2bxfnk,IWmgNLUM,2020-0188,2020-11-19,18:13:00,18:44:06,NA,incomplete,152,filling,1,left,Blue_Triangle_Grid_1.jpg,Purple_Star_Grid_3.jpg,Red_Circle_Stripes_1.jpg,right,1020.649999845773,false,low,false
IWmgNLUM,30oitawpctgn4gcs6h6m71vz0jeh92,3ikz72a5b8tq26na336tb1ay2bxfnk,IWmgNLUM,2020-0188,2020-11-19,18:13:00,18:44:06,NA,incomplete,153,filling,1,right,Blue_Star_Chess_1.jpg,Red_Triangle_Dots_1.jpg,Green_Plus_Chess_4.jpg,right,1025.910000083968,true,low,false
IWmgNLUM,30oitawpctgn4gcs6h6m71vz0jeh92,3ikz72a5b8tq26na336tb1ay2bxfnk,IWmgNLUM,2020-0188,2020-11-19,18:13:00,18:44:06,NA,incomplete,154,filling,1,right,Red_Plus_Grid_3.jpg,Blue_Star_Dots_3.jpg,Purple_Triangle_Grid_4.jpg,right,1146.714999806136,true,low,false
IWmgNLUM,30oitawpctgn4gcs6h6m71vz0jeh92,3ikz72a5b8tq26na336tb1ay2bxfnk,IWmgNLUM,2020-0188,2020-11-19,18:13:00,18:44:06,NA,incomplete,155,filling,1,right,Blue_Plus_Grid_4.jpg,Red_Triangle_Chess_4.jpg,Green_Circle_Grid_1.jpg,right,1449.6100000105798,true,low,false
IWmgNLUM,30oitawpctgn4gcs6h6m71vz0jeh92,3ikz72a5b8tq26na336tb1ay2bxfnk,IWmgNLUM,2020-0188,2020-11-19,18:13:00,18:44:06,NA,incomplete,156,filling,0,right,Purple_Circle_Dots_3.jpg,Blue_Triangle_Grid_3.jpg,Green_Star_Dots_1.jpg,right,1309.9599999841303,true,low,false
IWmgNLUM,30oitawpctgn4gcs6h6m71vz0jeh92,3ikz72a5b8tq26na336tb1ay2bxfnk,IWmgNLUM,2020-0188,2020-11-19,18:13:00,18:44:06,NA,incomplete,157,filling,1,right,Red_Circle_Grid_1.jpg,Blue_Triangle_Chess_1.jpg,Purple_Plus_Grid_4.jpg,right,1180.0100000109524,true,low,false
IWmgNLUM,30oitawpctgn4gcs6h6m71vz0jeh92,3ikz72a5b8tq26na336tb1ay2bxfnk,IWmgNLUM,2020-0188,2020-11-19,18:13:00,18:44:06,NA,incomplete,158,filling,1,right,Blue_Plus_Grid_1.jpg,Red_Star_Chess_1.jpg,Green_Circle_Grid_3.jpg,right,1222.0100001432002,true,low,false
IWmgNLUM,30oitawpctgn4gcs6h6m71vz0jeh92,3ikz72a5b8tq26na336tb1ay2bxfnk,IWmgNLUM,2020-0188,2020-11-19,18:13:00,18:44:06,NA,incomplete,159,filling,0,left,Blue_Circle_Chess_3.jpg,Red_Star_Chess_4.jpg,Green_Plus_Stripes_3.jpg,left,1293.4650001116097,true,low,false
IWmgNLUM,30oitawpctgn4gcs6h6m71vz0jeh92,3ikz72a5b8tq26na336tb1ay2bxfnk,IWmgNLUM,2020-0188,2020-11-19,18:13:00,18:44:06,NA,incomplete,160,number,1,right,Purple_Circle_Dots_4.jpg,Red_Plus_Dots_2.jpg,Blue_Triangle_Grid_4.jpg,left,1182.0349998306483,false,low,false
IWmgNLUM,30oitawpctgn4gcs6h6m71vz0jeh92,3ikz72a5b8tq26na336tb1ay2bxfnk,IWmgNLUM,2020-0188,2020-11-19,18:13:00,18:44:06,NA,incomplete,161,number,0,left,Blue_Circle_Stripes_3.jpg,Red_Star_Dots_3.jpg,Green_Plus_Stripes_2.jpg,right,707.325000083074,false,low,false
IWmgNLUM,30oitawpctgn4gcs6h6m71vz0jeh92,3ikz72a5b8tq26na336tb1ay2bxfnk,IWmgNLUM,2020-0188,2020-11-19,18:13:00,18:44:06,NA,incomplete,162,number,1,left,Purple_Plus_Chess_4.jpg,Blue_Star_Dots_4.jpg,Red_Triangle_Chess_1.jpg,right,1059.055000077933,false,low,false
IWmgNLUM,30oitawpctgn4gcs6h6m71vz0jeh92,3ikz72a5b8tq26na336tb1ay2bxfnk,IWmgNLUM,2020-0188,2020-11-19,18:13:00,18:44:06,NA,incomplete,163,number,0,right,Purple_Triangle_Grid_3.jpg,Red_Star_Grid_2.jpg,Blue_Circle_Stripes_3.jpg,left,1725.9599999524653,false,low,false
IWmgNLUM,30oitawpctgn4gcs6h6m71vz0jeh92,3ikz72a5b8tq26na336tb1ay2bxfnk,IWmgNLUM,2020-0188,2020-11-19,18:13:00,18:44:06,NA,incomplete,164,number,1,left,Purple_Plus_Stripes_3.jpg,Red_Star_Dots_3.jpg,Blue_Triangle_Stripes_4.jpg,right,1356.6400001291186,false,low,false
IWmgNLUM,30oitawpctgn4gcs6h6m71vz0jeh92,3ikz72a5b8tq26na336tb1ay2bxfnk,IWmgNLUM,2020-0188,2020-11-19,18:13:00,18:44:06,NA,incomplete,165,number,1,right,Green_Star_Stripes_1.jpg,Red_Plus_Stripes_2.jpg,Purple_Triangle_Chess_1.jpg,left,1130.6300000287592,false,low,false
IWmgNLUM,30oitawpctgn4gcs6h6m71vz0jeh92,3ikz72a5b8tq26na336tb1ay2bxfnk,IWmgNLUM,2020-0188,2020-11-19,18:13:00,18:44:06,NA,incomplete,166,number,1,right,Red_Star_Grid_1.jpg,Green_Circle_Grid_2.jpg,Purple_Plus_Dots_1.jpg,right,933.6600000970066,true,low,false
IWmgNLUM,30oitawpctgn4gcs6h6m71vz0jeh92,3ikz72a5b8tq26na336tb1ay2bxfnk,IWmgNLUM,2020-0188,2020-11-19,18:13:00,18:44:06,NA,incomplete,167,number,0,left,Purple_Star_Dots_3.jpg,Blue_Triangle_Grid_3.jpg,Red_Plus_Dots_1.jpg,right,730.2950001321733,false,low,false
IWmgNLUM,30oitawpctgn4gcs6h6m71vz0jeh92,3ikz72a5b8tq26na336tb1ay2bxfnk,IWmgNLUM,2020-0188,2020-11-19,18:13:00,18:44:06,NA,incomplete,168,number,1,left,Purple_Star_Dots_1.jpg,Blue_Triangle_Stripes_1.jpg,Green_Circle_Dots_3.jpg,right,710.3099999949336,false,low,false
IWmgNLUM,30oitawpctgn4gcs6h6m71vz0jeh92,3ikz72a5b8tq26na336tb1ay2bxfnk,IWmgNLUM,2020-0188,2020-11-19,18:13:00,18:44:06,NA,incomplete,169,number,1,right,Blue_Triangle_Dots_2.jpg,Purple_Star_Dots_4.jpg,Red_Plus_Stripes_2.jpg,left,981.4150000456721,false,low,false
IWmgNLUM,30oitawpctgn4gcs6h6m71vz0jeh92,3ikz72a5b8tq26na336tb1ay2bxfnk,IWmgNLUM,2020-0188,2020-11-19,18:13:00,18:44:06,NA,incomplete,170,number,1,right,Green_Triangle_Stripes_4.jpg,Blue_Circle_Stripes_2.jpg,Purple_Star_Chess_4.jpg,right,604.5000001322478,true,low,false
IWmgNLUM,30oitawpctgn4gcs6h6m71vz0jeh92,3ikz72a5b8tq26na336tb1ay2bxfnk,IWmgNLUM,2020-0188,2020-11-19,18:13:00,18:44:06,NA,incomplete,171,number,1,right,Green_Plus_Chess_1.jpg,Purple_Circle_Chess_3.jpg,Blue_Triangle_Grid_1.jpg,right,557.859999826178,true,low,false
IWmgNLUM,30oitawpctgn4gcs6h6m71vz0jeh92,3ikz72a5b8tq26na336tb1ay2bxfnk,IWmgNLUM,2020-0188,2020-11-19,18:13:00,18:44:06,NA,incomplete,172,number,1,left,Red_Triangle_Chess_4.jpg,Blue_Circle_Stripes_4.jpg,Purple_Star_Chess_2.jpg,right,901.8550000619143,false,low,false
IWmgNLUM,30oitawpctgn4gcs6h6m71vz0jeh92,3ikz72a5b8tq26na336tb1ay2bxfnk,IWmgNLUM,2020-0188,2020-11-19,18:13:00,18:44:06,NA,incomplete,173,number,0,left,Green_Plus_Dots_1.jpg,Red_Circle_Grid_1.jpg,Purple_Star_Dots_2.jpg,left,680.0649999640882,true,low,false
IWmgNLUM,30oitawpctgn4gcs6h6m71vz0jeh92,3ikz72a5b8tq26na336tb1ay2bxfnk,IWmgNLUM,2020-0188,2020-11-19,18:13:00,18:44:06,NA,incomplete,174,number,1,right,Blue_Star_Dots_4.jpg,Purple_Circle_Dots_2.jpg,Red_Triangle_Grid_4.jpg,right,598.1600000523031,true,low,false
IWmgNLUM,30oitawpctgn4gcs6h6m71vz0jeh92,3ikz72a5b8tq26na336tb1ay2bxfnk,IWmgNLUM,2020-0188,2020-11-19,18:13:00,18:44:06,NA,incomplete,175,number,1,right,Green_Circle_Chess_3.jpg,Red_Triangle_Chess_2.jpg,Purple_Plus_Stripes_3.jpg,right,673.7899999134243,true,low,false
IWmgNLUM,30oitawpctgn4gcs6h6m71vz0jeh92,3ikz72a5b8tq26na336tb1ay2bxfnk,IWmgNLUM,2020-0188,2020-11-19,18:13:00,18:44:06,NA,incomplete,176,number,1,right,Red_Circle_Chess_2.jpg,Green_Triangle_Chess_1.jpg,Blue_Star_Stripes_2.jpg,left,747.620000038296,false,low,false
IWmgNLUM,30oitawpctgn4gcs6h6m71vz0jeh92,3ikz72a5b8tq26na336tb1ay2bxfnk,IWmgNLUM,2020-0188,2020-11-19,18:13:00,18:44:06,NA,incomplete,177,number,1,left,Green_Star_Stripes_1.jpg,Purple_Plus_Dots_1.jpg,Red_Circle_Stripes_2.jpg,right,131.76000001840293,false,low,false
IWmgNLUM,30oitawpctgn4gcs6h6m71vz0jeh92,3ikz72a5b8tq26na336tb1ay2bxfnk,IWmgNLUM,2020-0188,2020-11-19,18:13:00,18:44:06,NA,incomplete,178,number,0,right,Green_Star_Stripes_2.jpg,Red_Plus_Stripes_3.jpg,Purple_Circle_Dots_2.jpg,left,1107.30000003241,false,low,false
IWmgNLUM,30oitawpctgn4gcs6h6m71vz0jeh92,3ikz72a5b8tq26na336tb1ay2bxfnk,IWmgNLUM,2020-0188,2020-11-19,18:13:00,18:44:06,NA,incomplete,179,number,1,left,Blue_Circle_Stripes_3.jpg,Purple_Star_Grid_3.jpg,Red_Plus_Stripes_1.jpg,left,1339.8600001819432,true,low,false
IWmgNLUM,30oitawpctgn4gcs6h6m71vz0jeh92,3ikz72a5b8tq26na336tb1ay2bxfnk,IWmgNLUM,2020-0188,2020-11-19,18:13:00,18:44:06,NA,incomplete,180,filling,1,left,Red_Circle_Stripes_1.jpg,Purple_Plus_Stripes_3.jpg,Green_Triangle_Chess_1.jpg,left,942.7499999292195,true,low,false
IWmgNLUM,30oitawpctgn4gcs6h6m71vz0jeh92,3ikz72a5b8tq26na336tb1ay2bxfnk,IWmgNLUM,2020-0188,2020-11-19,18:13:00,18:44:06,NA,incomplete,181,filling,1,left,Red_Circle_Grid_3.jpg,Purple_Star_Grid_4.jpg,Blue_Triangle_Stripes_3.jpg,right,1045.1149998698384,false,low,false
IWmgNLUM,30oitawpctgn4gcs6h6m71vz0jeh92,3ikz72a5b8tq26na336tb1ay2bxfnk,IWmgNLUM,2020-0188,2020-11-19,18:13:00,18:44:06,NA,incomplete,182,filling,1,left,Green_Star_Dots_2.jpg,Purple_Circle_Dots_1.jpg,Blue_Triangle_Chess_2.jpg,left,549.919999903068,true,low,false
IWmgNLUM,30oitawpctgn4gcs6h6m71vz0jeh92,3ikz72a5b8tq26na336tb1ay2bxfnk,IWmgNLUM,2020-0188,2020-11-19,18:13:00,18:44:06,NA,incomplete,183,filling,0,left,Blue_Circle_Chess_4.jpg,Purple_Triangle_Chess_3.jpg,Red_Star_Dots_4.jpg,left,690.6649998854846,true,low,false
IWmgNLUM,30oitawpctgn4gcs6h6m71vz0jeh92,3ikz72a5b8tq26na336tb1ay2bxfnk,IWmgNLUM,2020-0188,2020-11-19,18:13:00,18:44:06,NA,incomplete,184,filling,1,left,Green_Circle_Dots_3.jpg,Red_Plus_Dots_4.jpg,Blue_Triangle_Chess_3.jpg,right,675.844999961555,false,low,false
IWmgNLUM,30oitawpctgn4gcs6h6m71vz0jeh92,3ikz72a5b8tq26na336tb1ay2bxfnk,IWmgNLUM,2020-0188,2020-11-19,18:13:00,18:44:06,NA,incomplete,185,filling,0,right,Green_Circle_Chess_4.jpg,Purple_Triangle_Stripes_4.jpg,Blue_Star_Chess_2.jpg,right,1289.6750001236796,true,low,false
IWmgNLUM,30oitawpctgn4gcs6h6m71vz0jeh92,3ikz72a5b8tq26na336tb1ay2bxfnk,IWmgNLUM,2020-0188,2020-11-19,18:13:00,18:44:06,NA,incomplete,186,filling,1,left,Blue_Star_Stripes_3.jpg,Purple_Plus_Stripes_1.jpg,Green_Circle_Chess_3.jpg,left,1278.9000000339001,true,low,false
IWmgNLUM,30oitawpctgn4gcs6h6m71vz0jeh92,3ikz72a5b8tq26na336tb1ay2bxfnk,IWmgNLUM,2020-0188,2020-11-19,18:13:00,18:44:06,NA,incomplete,187,filling,1,left,Purple_Plus_Dots_3.jpg,Blue_Circle_Dots_1.jpg,Green_Triangle_Chess_3.jpg,left,1479.5399999711663,true,low,false
IWmgNLUM,30oitawpctgn4gcs6h6m71vz0jeh92,3ikz72a5b8tq26na336tb1ay2bxfnk,IWmgNLUM,2020-0188,2020-11-19,18:13:00,18:44:06,NA,incomplete,188,filling,1,left,Blue_Star_Grid_3.jpg,Red_Circle_Grid_2.jpg,Purple_Plus_Chess_3.jpg,left,1425.4499999806285,true,low,false
IWmgNLUM,30oitawpctgn4gcs6h6m71vz0jeh92,3ikz72a5b8tq26na336tb1ay2bxfnk,IWmgNLUM,2020-0188,2020-11-19,18:13:00,18:44:06,NA,incomplete,189,filling,1,right,Green_Star_Dots_3.jpg,Blue_Plus_Grid_3.jpg,Red_Circle_Dots_1.jpg,right,1215.5750000383705,true,low,false
IWmgNLUM,30oitawpctgn4gcs6h6m71vz0jeh92,3ikz72a5b8tq26na336tb1ay2bxfnk,IWmgNLUM,2020-0188,2020-11-19,18:13:00,18:44:06,NA,incomplete,190,filling,0,left,Blue_Circle_Chess_2.jpg,Red_Triangle_Chess_1.jpg,Green_Plus_Stripes_2.jpg,left,1090.1949999388307,true,low,false
IWmgNLUM,30oitawpctgn4gcs6h6m71vz0jeh92,3ikz72a5b8tq26na336tb1ay2bxfnk,IWmgNLUM,2020-0188,2020-11-19,18:13:00,18:44:06,NA,incomplete,191,filling,1,right,Purple_Triangle_Grid_1.jpg,Blue_Circle_Stripes_1.jpg,Red_Star_Grid_3.jpg,right,1100.319999968633,true,low,false
IWmgNLUM,30oitawpctgn4gcs6h6m71vz0jeh92,3ikz72a5b8tq26na336tb1ay2bxfnk,IWmgNLUM,2020-0188,2020-11-19,18:13:00,18:44:06,NA,incomplete,192,filling,1,right,Purple_Triangle_Chess_1.jpg,Red_Plus_Grid_1.jpg,Green_Circle_Chess_4.jpg,right,1316.4300001226366,true,low,false
IWmgNLUM,30oitawpctgn4gcs6h6m71vz0jeh92,3ikz72a5b8tq26na336tb1ay2bxfnk,IWmgNLUM,2020-0188,2020-11-19,18:13:00,18:44:06,NA,incomplete,193,filling,1,left,Green_Triangle_Grid_3.jpg,Blue_Star_Grid_4.jpg,Red_Circle_Dots_3.jpg,left,1121.9549998641014,true,low,false
IWmgNLUM,30oitawpctgn4gcs6h6m71vz0jeh92,3ikz72a5b8tq26na336tb1ay2bxfnk,IWmgNLUM,2020-0188,2020-11-19,18:13:00,18:44:06,NA,incomplete,194,filling,1,left,Red_Plus_Stripes_1.jpg,Blue_Circle_Stripes_4.jpg,Green_Triangle_Dots_1.jpg,left,855.2300001028925,true,low,false
IWmgNLUM,30oitawpctgn4gcs6h6m71vz0jeh92,3ikz72a5b8tq26na336tb1ay2bxfnk,IWmgNLUM,2020-0188,2020-11-19,18:13:00,18:44:06,NA,incomplete,195,filling,0,right,Blue_Star_Chess_3.jpg,Red_Circle_Stripes_3.jpg,Purple_Triangle_Chess_1.jpg,right,1095.4800001345575,true,low,false
IWmgNLUM,30oitawpctgn4gcs6h6m71vz0jeh92,3ikz72a5b8tq26na336tb1ay2bxfnk,IWmgNLUM,2020-0188,2020-11-19,18:13:00,18:44:06,NA,incomplete,196,filling,1,right,Red_Triangle_Chess_3.jpg,Green_Circle_Dots_3.jpg,Purple_Plus_Chess_1.jpg,left,1838.9550000429153,false,low,false
IWmgNLUM,30oitawpctgn4gcs6h6m71vz0jeh92,3ikz72a5b8tq26na336tb1ay2bxfnk,IWmgNLUM,2020-0188,2020-11-19,18:13:00,18:44:06,NA,incomplete,197,filling,1,left,Blue_Plus_Dots_2.jpg,Red_Star_Dots_1.jpg,Purple_Triangle_Grid_2.jpg,right,1098.3700000215322,false,low,false
IWmgNLUM,30oitawpctgn4gcs6h6m71vz0jeh92,3ikz72a5b8tq26na336tb1ay2bxfnk,IWmgNLUM,2020-0188,2020-11-19,18:13:00,18:44:06,NA,incomplete,198,filling,1,left,Green_Triangle_Stripes_4.jpg,Purple_Plus_Stripes_3.jpg,Red_Star_Chess_4.jpg,left,1419.190000044182,true,low,false
IWmgNLUM,30oitawpctgn4gcs6h6m71vz0jeh92,3ikz72a5b8tq26na336tb1ay2bxfnk,IWmgNLUM,2020-0188,2020-11-19,18:13:00,18:44:06,NA,incomplete,199,filling,1,right,Blue_Triangle_Stripes_3.jpg,Green_Star_Chess_3.jpg,Purple_Plus_Stripes_4.jpg,right,1180.4200001060963,true,low,false
IWmgNLUM,30oitawpctgn4gcs6h6m71vz0jeh92,3ikz72a5b8tq26na336tb1ay2bxfnk,IWmgNLUM,2020-0188,2020-11-19,18:13:00,18:44:06,NA,incomplete,200,number,1,right,Green_Plus_Chess_1.jpg,Red_Star_Chess_2.jpg,Blue_Circle_Dots_1.jpg,left,996.820000000298,false,low,false
IWmgNLUM,30oitawpctgn4gcs6h6m71vz0jeh92,3ikz72a5b8tq26na336tb1ay2bxfnk,IWmgNLUM,2020-0188,2020-11-19,18:13:00,18:44:06,NA,incomplete,201,number,1,right,Purple_Star_Stripes_1.jpg,Blue_Triangle_Stripes_2.jpg,Green_Plus_Grid_1.jpg,right,1084.4149999320507,true,low,false
IWmgNLUM,30oitawpctgn4gcs6h6m71vz0jeh92,3ikz72a5b8tq26na336tb1ay2bxfnk,IWmgNLUM,2020-0188,2020-11-19,18:13:00,18:44:06,NA,incomplete,202,number,1,right,Purple_Plus_Grid_1.jpg,Red_Star_Grid_2.jpg,Blue_Triangle_Dots_1.jpg,left,1058.0400000326335,false,low,false
IWmgNLUM,30oitawpctgn4gcs6h6m71vz0jeh92,3ikz72a5b8tq26na336tb1ay2bxfnk,IWmgNLUM,2020-0188,2020-11-19,18:13:00,18:44:06,NA,incomplete,203,number,1,right,Blue_Circle_Grid_3.jpg,Purple_Star_Grid_4.jpg,Red_Triangle_Chess_3.jpg,left,1705.9200000949204,false,low,false
IWmgNLUM,30oitawpctgn4gcs6h6m71vz0jeh92,3ikz72a5b8tq26na336tb1ay2bxfnk,IWmgNLUM,2020-0188,2020-11-19,18:13:00,18:44:06,NA,incomplete,204,number,1,left,Purple_Star_Stripes_4.jpg,Red_Circle_Grid_4.jpg,Blue_Triangle_Stripes_2.jpg,right,1772.6950000505894,false,low,false
IWmgNLUM,30oitawpctgn4gcs6h6m71vz0jeh92,3ikz72a5b8tq26na336tb1ay2bxfnk,IWmgNLUM,2020-0188,2020-11-19,18:13:00,18:44:06,NA,incomplete,205,number,0,left,Purple_Plus_Grid_1.jpg,Blue_Triangle_Stripes_1.jpg,Green_Star_Grid_4.jpg,left,793.0350000970066,true,low,false
IWmgNLUM,30oitawpctgn4gcs6h6m71vz0jeh92,3ikz72a5b8tq26na336tb1ay2bxfnk,IWmgNLUM,2020-0188,2020-11-19,18:13:00,18:44:06,NA,incomplete,206,number,1,right,Red_Star_Dots_2.jpg,Blue_Circle_Dots_3.jpg,Purple_Triangle_Grid_2.jpg,right,1080.6700000539422,true,low,false
IWmgNLUM,30oitawpctgn4gcs6h6m71vz0jeh92,3ikz72a5b8tq26na336tb1ay2bxfnk,IWmgNLUM,2020-0188,2020-11-19,18:13:00,18:44:06,NA,incomplete,207,number,1,left,Green_Plus_Grid_1.jpg,Red_Circle_Stripes_1.jpg,Blue_Triangle_Grid_4.jpg,left,1060.2749998215586,true,low,false
IWmgNLUM,30oitawpctgn4gcs6h6m71vz0jeh92,3ikz72a5b8tq26na336tb1ay2bxfnk,IWmgNLUM,2020-0188,2020-11-19,18:13:00,18:44:06,NA,incomplete,208,number,1,right,Red_Triangle_Grid_4.jpg,Blue_Circle_Grid_3.jpg,Purple_Star_Chess_4.jpg,left,1071.3400000240654,false,low,false
IWmgNLUM,30oitawpctgn4gcs6h6m71vz0jeh92,3ikz72a5b8tq26na336tb1ay2bxfnk,IWmgNLUM,2020-0188,2020-11-19,18:13:00,18:44:06,NA,incomplete,209,number,1,right,Green_Star_Dots_4.jpg,Purple_Triangle_Dots_3.jpg,Blue_Circle_Grid_4.jpg,right,1595.0399998109788,true,low,false
IWmgNLUM,30oitawpctgn4gcs6h6m71vz0jeh92,3ikz72a5b8tq26na336tb1ay2bxfnk,IWmgNLUM,2020-0188,2020-11-19,18:13:00,18:44:06,NA,incomplete,210,number,1,left,Blue_Triangle_Stripes_2.jpg,Green_Circle_Chess_2.jpg,Purple_Plus_Stripes_4.jpg,left,1232.2400000412017,true,low,false
IWmgNLUM,30oitawpctgn4gcs6h6m71vz0jeh92,3ikz72a5b8tq26na336tb1ay2bxfnk,IWmgNLUM,2020-0188,2020-11-19,18:13:00,18:44:06,NA,incomplete,211,number,0,left,Purple_Plus_Grid_2.jpg,Blue_Circle_Dots_2.jpg,Green_Triangle_Grid_1.jpg,right,1181.4500000327826,false,low,false
IWmgNLUM,30oitawpctgn4gcs6h6m71vz0jeh92,3ikz72a5b8tq26na336tb1ay2bxfnk,IWmgNLUM,2020-0188,2020-11-19,18:13:00,18:44:06,NA,incomplete,212,number,1,right,Blue_Star_Stripes_2.jpg,Red_Plus_Stripes_3.jpg,Green_Triangle_Dots_2.jpg,right,1424.790000077337,true,low,false
IWmgNLUM,30oitawpctgn4gcs6h6m71vz0jeh92,3ikz72a5b8tq26na336tb1ay2bxfnk,IWmgNLUM,2020-0188,2020-11-19,18:13:00,18:44:06,NA,incomplete,213,number,0,right,Blue_Plus_Grid_1.jpg,Red_Circle_Grid_2.jpg,Purple_Triangle_Chess_1.jpg,right,1144.869999960065,true,low,false
IWmgNLUM,30oitawpctgn4gcs6h6m71vz0jeh92,3ikz72a5b8tq26na336tb1ay2bxfnk,IWmgNLUM,2020-0188,2020-11-19,18:13:00,18:44:06,NA,incomplete,214,number,1,left,Green_Circle_Dots_3.jpg,Purple_Star_Grid_3.jpg,Blue_Plus_Dots_2.jpg,right,1963.3949999697506,false,low,false
IWmgNLUM,30oitawpctgn4gcs6h6m71vz0jeh92,3ikz72a5b8tq26na336tb1ay2bxfnk,IWmgNLUM,2020-0188,2020-11-19,18:13:00,18:44:06,NA,incomplete,215,number,1,left,Green_Triangle_Stripes_1.jpg,Red_Plus_Grid_1.jpg,Blue_Star_Stripes_2.jpg,none,0,false,low,false
IWmgNLUM,30oitawpctgn4gcs6h6m71vz0jeh92,3ikz72a5b8tq26na336tb1ay2bxfnk,IWmgNLUM,2020-0188,2020-11-19,18:13:00,18:44:06,NA,incomplete,216,number,1,left,Blue_Star_Grid_4.jpg,Purple_Triangle_Chess_4.jpg,Red_Circle_Grid_1.jpg,right,1204.5299999881536,false,low,false
IWmgNLUM,30oitawpctgn4gcs6h6m71vz0jeh92,3ikz72a5b8tq26na336tb1ay2bxfnk,IWmgNLUM,2020-0188,2020-11-19,18:13:00,18:44:06,NA,incomplete,217,number,1,right,Red_Plus_Grid_2.jpg,Blue_Star_Grid_3.jpg,Green_Triangle_Chess_2.jpg,right,89.99499981291592,true,low,false
IWmgNLUM,30oitawpctgn4gcs6h6m71vz0jeh92,3ikz72a5b8tq26na336tb1ay2bxfnk,IWmgNLUM,2020-0188,2020-11-19,18:13:00,18:44:06,NA,incomplete,218,number,1,left,Red_Plus_Chess_1.jpg,Purple_Star_Stripes_1.jpg,Green_Triangle_Chess_3.jpg,right,13.710000086575747,false,low,false
IWmgNLUM,30oitawpctgn4gcs6h6m71vz0jeh92,3ikz72a5b8tq26na336tb1ay2bxfnk,IWmgNLUM,2020-0188,2020-11-19,18:13:00,18:44:06,NA,incomplete,219,number,0,right,Green_Plus_Chess_4.jpg,Red_Triangle_Chess_1.jpg,Blue_Star_Grid_4.jpg,right,135.5349998921156,true,low,false
IWmgNLUM,30oitawpctgn4gcs6h6m71vz0jeh92,3ikz72a5b8tq26na336tb1ay2bxfnk,IWmgNLUM,2020-0188,2020-11-19,18:13:00,18:44:06,NA,incomplete,220,filling,1,right,Purple_Star_Chess_3.jpg,Blue_Triangle_Grid_3.jpg,Green_Circle_Chess_1.jpg,right,87.2500000987202,true,low,false
IWmgNLUM,30oitawpctgn4gcs6h6m71vz0jeh92,3ikz72a5b8tq26na336tb1ay2bxfnk,IWmgNLUM,2020-0188,2020-11-19,18:13:00,18:44:06,NA,incomplete,221,filling,0,left,Purple_Circle_Dots_3.jpg,Blue_Star_Dots_1.jpg,Red_Triangle_Stripes_3.jpg,right,46.95499991066754,false,low,false
IWmgNLUM,30oitawpctgn4gcs6h6m71vz0jeh92,3ikz72a5b8tq26na336tb1ay2bxfnk,IWmgNLUM,2020-0188,2020-11-19,18:13:00,18:44:06,NA,incomplete,222,filling,1,left,Green_Star_Chess_2.jpg,Red_Triangle_Chess_3.jpg,Purple_Plus_Stripes_2.jpg,none,0,false,low,false
IWmgNLUM,30oitawpctgn4gcs6h6m71vz0jeh92,3ikz72a5b8tq26na336tb1ay2bxfnk,IWmgNLUM,2020-0188,2020-11-19,18:13:00,18:44:06,NA,incomplete,223,filling,0,right,Blue_Triangle_Dots_1.jpg,Green_Plus_Chess_1.jpg,Red_Circle_Dots_4.jpg,left,1226.8650000914931,false,low,false
IWmgNLUM,30oitawpctgn4gcs6h6m71vz0jeh92,3ikz72a5b8tq26na336tb1ay2bxfnk,IWmgNLUM,2020-0188,2020-11-19,18:13:00,18:44:06,NA,incomplete,224,filling,1,right,Blue_Circle_Stripes_4.jpg,Red_Triangle_Grid_4.jpg,Purple_Plus_Stripes_1.jpg,left,1189.795000012964,false,low,false
IWmgNLUM,30oitawpctgn4gcs6h6m71vz0jeh92,3ikz72a5b8tq26na336tb1ay2bxfnk,IWmgNLUM,2020-0188,2020-11-19,18:13:00,18:44:06,NA,incomplete,225,filling,0,left,Red_Circle_Chess_3.jpg,Blue_Triangle_Chess_2.jpg,Green_Plus_Stripes_3.jpg,left,1486.3400000613183,true,low,false
IWmgNLUM,30oitawpctgn4gcs6h6m71vz0jeh92,3ikz72a5b8tq26na336tb1ay2bxfnk,IWmgNLUM,2020-0188,2020-11-19,18:13:00,18:44:06,NA,incomplete,226,filling,1,left,Blue_Circle_Chess_2.jpg,Purple_Triangle_Chess_3.jpg,Green_Plus_Stripes_2.jpg,left,1076.975000090897,true,low,false
IWmgNLUM,30oitawpctgn4gcs6h6m71vz0jeh92,3ikz72a5b8tq26na336tb1ay2bxfnk,IWmgNLUM,2020-0188,2020-11-19,18:13:00,18:44:06,NA,incomplete,227,filling,1,left,Purple_Triangle_Dots_2.jpg,Blue_Plus_Dots_1.jpg,Red_Circle_Grid_2.jpg,left,1406.6700001712888,true,low,false
IWmgNLUM,30oitawpctgn4gcs6h6m71vz0jeh92,3ikz72a5b8tq26na336tb1ay2bxfnk,IWmgNLUM,2020-0188,2020-11-19,18:13:00,18:44:06,NA,incomplete,228,filling,1,right,Purple_Triangle_Chess_2.jpg,Red_Plus_Grid_2.jpg,Green_Circle_Chess_1.jpg,right,1212.3000000137836,true,low,false
IWmgNLUM,30oitawpctgn4gcs6h6m71vz0jeh92,3ikz72a5b8tq26na336tb1ay2bxfnk,IWmgNLUM,2020-0188,2020-11-19,18:13:00,18:44:06,NA,incomplete,229,filling,1,right,Purple_Star_Grid_1.jpg,Green_Plus_Chess_1.jpg,Blue_Triangle_Grid_2.jpg,left,1613.615000154823,false,low,false
IWmgNLUM,30oitawpctgn4gcs6h6m71vz0jeh92,3ikz72a5b8tq26na336tb1ay2bxfnk,IWmgNLUM,2020-0188,2020-11-19,18:13:00,18:44:06,NA,incomplete,230,filling,1,right,Purple_Star_Stripes_2.jpg,Red_Circle_Grid_2.jpg,Blue_Plus_Stripes_4.jpg,left,1289.3050001002848,false,low,false
IWmgNLUM,30oitawpctgn4gcs6h6m71vz0jeh92,3ikz72a5b8tq26na336tb1ay2bxfnk,IWmgNLUM,2020-0188,2020-11-19,18:13:00,18:44:06,NA,incomplete,231,filling,1,right,Purple_Star_Chess_1.jpg,Green_Triangle_Dots_1.jpg,Red_Circle_Chess_4.jpg,right,1222.3450001329184,true,low,false
IWmgNLUM,30oitawpctgn4gcs6h6m71vz0jeh92,3ikz72a5b8tq26na336tb1ay2bxfnk,IWmgNLUM,2020-0188,2020-11-19,18:13:00,18:44:06,NA,incomplete,232,filling,1,left,Red_Triangle_Grid_2.jpg,Green_Star_Grid_3.jpg,Purple_Circle_Chess_2.jpg,left,1358.6399999912828,true,low,false
IWmgNLUM,30oitawpctgn4gcs6h6m71vz0jeh92,3ikz72a5b8tq26na336tb1ay2bxfnk,IWmgNLUM,2020-0188,2020-11-19,18:13:00,18:44:06,NA,incomplete,233,filling,1,left,Green_Circle_Stripes_1.jpg,Red_Star_Stripes_3.jpg,Purple_Triangle_Dots_1.jpg,left,1121.5399999637157,true,low,false
IWmgNLUM,30oitawpctgn4gcs6h6m71vz0jeh92,3ikz72a5b8tq26na336tb1ay2bxfnk,IWmgNLUM,2020-0188,2020-11-19,18:13:00,18:44:06,NA,incomplete,234,filling,1,right,Red_Star_Grid_1.jpg,Green_Triangle_Chess_1.jpg,Purple_Plus_Grid_2.jpg,left,1576.439999975264,false,low,false
IWmgNLUM,30oitawpctgn4gcs6h6m71vz0jeh92,3ikz72a5b8tq26na336tb1ay2bxfnk,IWmgNLUM,2020-0188,2020-11-19,18:13:00,18:44:06,NA,incomplete,235,filling,1,right,Purple_Plus_Grid_2.jpg,Blue_Triangle_Dots_2.jpg,Red_Circle_Grid_3.jpg,right,1439.3799998797476,true,low,false
IWmgNLUM,30oitawpctgn4gcs6h6m71vz0jeh92,3ikz72a5b8tq26na336tb1ay2bxfnk,IWmgNLUM,2020-0188,2020-11-19,18:13:00,18:44:06,NA,incomplete,236,filling,0,left,Red_Plus_Grid_4.jpg,Green_Circle_Grid_1.jpg,Blue_Star_Stripes_4.jpg,left,1706.8100001197308,true,low,false
IWmgNLUM,30oitawpctgn4gcs6h6m71vz0jeh92,3ikz72a5b8tq26na336tb1ay2bxfnk,IWmgNLUM,2020-0188,2020-11-19,18:13:00,18:44:06,NA,incomplete,237,filling,1,right,Blue_Circle_Grid_1.jpg,Red_Star_Stripes_1.jpg,Green_Plus_Grid_2.jpg,right,1279.164999956265,true,low,false
IWmgNLUM,30oitawpctgn4gcs6h6m71vz0jeh92,3ikz72a5b8tq26na336tb1ay2bxfnk,IWmgNLUM,2020-0188,2020-11-19,18:13:00,18:44:06,NA,incomplete,238,filling,1,right,Red_Star_Grid_1.jpg,Blue_Plus_Stripes_1.jpg,Green_Circle_Grid_2.jpg,right,1521.9799999613315,true,low,false
IWmgNLUM,30oitawpctgn4gcs6h6m71vz0jeh92,3ikz72a5b8tq26na336tb1ay2bxfnk,IWmgNLUM,2020-0188,2020-11-19,18:13:00,18:44:06,NA,incomplete,239,filling,1,right,Purple_Plus_Dots_1.jpg,Red_Star_Grid_1.jpg,Blue_Circle_Dots_2.jpg,left,1519.6850001811981,false,low,false
IWmgNLUM,30oitawpctgn4gcs6h6m71vz0jeh92,3ikz72a5b8tq26na336tb1ay2bxfnk,IWmgNLUM,2020-0188,2020-11-19,18:13:00,18:44:06,1833519.1299999133,1866699.1099999286,NA,NA,NA,NA,NA,NA,NA,NA,NA,NA,NA,undefined
