workerId,hitId,assignmentId,subject,studyid,exp_date,exp_start,exp_end,time_start,time_end,trial,type,reward_validity,answer,image_top,image_left,image_right,response,response_time,response_acc,volatility,practice
yhSALUfp,3r6rzgk0yip7nifkjif6ljfzh9ayv2,3ioen3p9sbwr56naxn5rkoki7rj61r,yhSALUfp,2020-0188,2020-11-21,13:32:59,13:52:01,NA,incomplete,0,number,0,left,Green_Triangle_Dots_3.jpg,Red_Star_Stripes_3.jpg,Green_Circle_Grid_1.jpg,left,1373.4049999911804,true,NA,true
yhSALUfp,3r6rzgk0yip7nifkjif6ljfzh9ayv2,3ioen3p9sbwr56naxn5rkoki7rj61r,yhSALUfp,2020-0188,2020-11-21,13:32:59,13:52:01,NA,incomplete,1,number,1,right,Blue_Triangle_Grid_4.jpg,Blue_Circle_Stripes_2.jpg,Green_Star_Chess_4.jpg,right,919.3899999954738,true,NA,true
yhSALUfp,3r6rzgk0yip7nifkjif6ljfzh9ayv2,3ioen3p9sbwr56naxn5rkoki7rj61r,yhSALUfp,2020-0188,2020-11-21,13:32:59,13:52:01,NA,incomplete,2,number,0,left,Green_Star_Dots_4.jpg,Blue_Triangle_Stripes_4.jpg,Green_Plus_Grid_3.jpg,left,1165.1399999973364,true,NA,true
yhSALUfp,3r6rzgk0yip7nifkjif6ljfzh9ayv2,3ioen3p9sbwr56naxn5rkoki7rj61r,yhSALUfp,2020-0188,2020-11-21,13:32:59,13:52:01,NA,incomplete,3,number,0,right,Red_Star_Dots_1.jpg,Red_Circle_Stripes_3.jpg,Green_Plus_Grid_1.jpg,right,990.349999978207,true,NA,true
yhSALUfp,3r6rzgk0yip7nifkjif6ljfzh9ayv2,3ioen3p9sbwr56naxn5rkoki7rj61r,yhSALUfp,2020-0188,2020-11-21,13:32:59,13:52:01,NA,incomplete,4,number,1,left,Green_Triangle_Grid_2.jpg,Red_Circle_Dots_2.jpg,Green_Plus_Chess_1.jpg,left,1157.4499999987893,true,NA,true
yhSALUfp,3r6rzgk0yip7nifkjif6ljfzh9ayv2,3ioen3p9sbwr56naxn5rkoki7rj61r,yhSALUfp,2020-0188,2020-11-21,13:32:59,13:52:01,NA,incomplete,5,number,1,left,Blue_Star_Grid_1.jpg,Green_Plus_Dots_1.jpg,Blue_Triangle_Stripes_2.jpg,left,632.4749999912456,true,NA,true
yhSALUfp,3r6rzgk0yip7nifkjif6ljfzh9ayv2,3ioen3p9sbwr56naxn5rkoki7rj61r,yhSALUfp,2020-0188,2020-11-21,13:32:59,13:52:01,NA,incomplete,6,number,1,left,Green_Plus_Stripes_2.jpg,Red_Star_Chess_2.jpg,Green_Triangle_Dots_1.jpg,left,678.1550000014249,true,NA,true
yhSALUfp,3r6rzgk0yip7nifkjif6ljfzh9ayv2,3ioen3p9sbwr56naxn5rkoki7rj61r,yhSALUfp,2020-0188,2020-11-21,13:32:59,13:52:01,NA,incomplete,7,number,1,left,Purple_Circle_Grid_1.jpg,Red_Triangle_Chess_1.jpg,Purple_Star_Dots_3.jpg,left,761.7000000027474,true,NA,true
yhSALUfp,3r6rzgk0yip7nifkjif6ljfzh9ayv2,3ioen3p9sbwr56naxn5rkoki7rj61r,yhSALUfp,2020-0188,2020-11-21,13:32:59,13:52:01,NA,incomplete,8,number,1,right,Purple_Triangle_Stripes_3.jpg,Purple_Circle_Chess_2.jpg,Red_Plus_Dots_3.jpg,right,661.6300000168849,true,NA,true
yhSALUfp,3r6rzgk0yip7nifkjif6ljfzh9ayv2,3ioen3p9sbwr56naxn5rkoki7rj61r,yhSALUfp,2020-0188,2020-11-21,13:32:59,13:52:01,NA,incomplete,9,number,1,left,Green_Plus_Grid_2.jpg,Purple_Star_Chess_2.jpg,Green_Circle_Stripes_3.jpg,left,637.0199999946635,true,NA,true
yhSALUfp,3r6rzgk0yip7nifkjif6ljfzh9ayv2,3ioen3p9sbwr56naxn5rkoki7rj61r,yhSALUfp,2020-0188,2020-11-21,13:32:59,13:52:01,NA,incomplete,10,number,1,right,Blue_Circle_Stripes_3.jpg,Blue_Plus_Grid_4.jpg,Purple_Star_Dots_3.jpg,right,878.5299999872223,true,NA,true
yhSALUfp,3r6rzgk0yip7nifkjif6ljfzh9ayv2,3ioen3p9sbwr56naxn5rkoki7rj61r,yhSALUfp,2020-0188,2020-11-21,13:32:59,13:52:01,NA,incomplete,11,number,1,left,Purple_Circle_Grid_3.jpg,Green_Triangle_Stripes_3.jpg,Purple_Star_Dots_2.jpg,left,761.8999999831431,true,NA,true
yhSALUfp,3r6rzgk0yip7nifkjif6ljfzh9ayv2,3ioen3p9sbwr56naxn5rkoki7rj61r,yhSALUfp,2020-0188,2020-11-21,13:32:59,13:52:01,NA,incomplete,12,number,1,right,Blue_Triangle_Stripes_3.jpg,Blue_Circle_Chess_2.jpg,Green_Star_Grid_3.jpg,right,562.2600000060629,true,NA,true
yhSALUfp,3r6rzgk0yip7nifkjif6ljfzh9ayv2,3ioen3p9sbwr56naxn5rkoki7rj61r,yhSALUfp,2020-0188,2020-11-21,13:32:59,13:52:01,NA,incomplete,13,number,0,left,Purple_Plus_Grid_2.jpg,Blue_Circle_Dots_2.jpg,Purple_Star_Stripes_1.jpg,left,524.619999981951,true,NA,true
yhSALUfp,3r6rzgk0yip7nifkjif6ljfzh9ayv2,3ioen3p9sbwr56naxn5rkoki7rj61r,yhSALUfp,2020-0188,2020-11-21,13:32:59,13:52:01,NA,incomplete,14,number,1,right,Blue_Circle_Grid_3.jpg,Blue_Plus_Dots_2.jpg,Green_Triangle_Stripes_3.jpg,right,720.7049999851733,true,NA,true
yhSALUfp,3r6rzgk0yip7nifkjif6ljfzh9ayv2,3ioen3p9sbwr56naxn5rkoki7rj61r,yhSALUfp,2020-0188,2020-11-21,13:32:59,13:52:01,NA,incomplete,15,number,1,right,Blue_Triangle_Grid_1.jpg,Blue_Plus_Stripes_3.jpg,Purple_Circle_Chess_1.jpg,right,829.0500000002794,true,NA,true
yhSALUfp,3r6rzgk0yip7nifkjif6ljfzh9ayv2,3ioen3p9sbwr56naxn5rkoki7rj61r,yhSALUfp,2020-0188,2020-11-21,13:32:59,13:52:01,NA,incomplete,16,number,1,right,Red_Plus_Stripes_2.jpg,Red_Circle_Dots_4.jpg,Purple_Triangle_Chess_2.jpg,right,674.845000001369,true,NA,true
yhSALUfp,3r6rzgk0yip7nifkjif6ljfzh9ayv2,3ioen3p9sbwr56naxn5rkoki7rj61r,yhSALUfp,2020-0188,2020-11-21,13:32:59,13:52:01,NA,incomplete,17,number,1,left,Green_Star_Stripes_3.jpg,Red_Circle_Chess_3.jpg,Green_Plus_Grid_2.jpg,left,683.1700000038836,true,NA,true
yhSALUfp,3r6rzgk0yip7nifkjif6ljfzh9ayv2,3ioen3p9sbwr56naxn5rkoki7rj61r,yhSALUfp,2020-0188,2020-11-21,13:32:59,13:52:01,NA,incomplete,18,number,1,right,Purple_Plus_Grid_1.jpg,Purple_Circle_Stripes_3.jpg,Green_Triangle_Dots_1.jpg,right,591.7249999765772,true,NA,true
yhSALUfp,3r6rzgk0yip7nifkjif6ljfzh9ayv2,3ioen3p9sbwr56naxn5rkoki7rj61r,yhSALUfp,2020-0188,2020-11-21,13:32:59,13:52:01,NA,incomplete,19,number,1,left,Green_Triangle_Chess_2.jpg,Red_Plus_Dots_2.jpg,Green_Star_Grid_4.jpg,left,583.6150000104681,true,NA,true
yhSALUfp,3r6rzgk0yip7nifkjif6ljfzh9ayv2,3ioen3p9sbwr56naxn5rkoki7rj61r,yhSALUfp,2020-0188,2020-11-21,13:32:59,13:52:01,NA,incomplete,20,color,1,left,Red_Circle_Dots_2.jpg,Red_Star_Grid_4.jpg,Green_Triangle_Stripes_2.jpg,right,587.6550000102725,false,NA,true
yhSALUfp,3r6rzgk0yip7nifkjif6ljfzh9ayv2,3ioen3p9sbwr56naxn5rkoki7rj61r,yhSALUfp,2020-0188,2020-11-21,13:32:59,13:52:01,NA,incomplete,21,color,1,right,Blue_Triangle_Dots_1.jpg,Purple_Plus_Stripes_1.jpg,Blue_Circle_Grid_2.jpg,left,804.3699999980163,false,NA,true
yhSALUfp,3r6rzgk0yip7nifkjif6ljfzh9ayv2,3ioen3p9sbwr56naxn5rkoki7rj61r,yhSALUfp,2020-0188,2020-11-21,13:32:59,13:52:01,NA,incomplete,22,color,1,left,Blue_Plus_Chess_3.jpg,Blue_Star_Dots_1.jpg,Green_Circle_Stripes_3.jpg,left,1116.6950000042561,true,NA,true
yhSALUfp,3r6rzgk0yip7nifkjif6ljfzh9ayv2,3ioen3p9sbwr56naxn5rkoki7rj61r,yhSALUfp,2020-0188,2020-11-21,13:32:59,13:52:01,NA,incomplete,23,color,0,right,Red_Plus_Grid_3.jpg,Green_Triangle_Dots_3.jpg,Red_Circle_Chess_1.jpg,right,792.0800000138115,true,NA,true
yhSALUfp,3r6rzgk0yip7nifkjif6ljfzh9ayv2,3ioen3p9sbwr56naxn5rkoki7rj61r,yhSALUfp,2020-0188,2020-11-21,13:32:59,13:52:01,NA,incomplete,24,color,1,left,Blue_Circle_Chess_3.jpg,Blue_Plus_Stripes_2.jpg,Green_Triangle_Dots_3.jpg,left,684.7000000125263,true,NA,true
yhSALUfp,3r6rzgk0yip7nifkjif6ljfzh9ayv2,3ioen3p9sbwr56naxn5rkoki7rj61r,yhSALUfp,2020-0188,2020-11-21,13:32:59,13:52:01,NA,incomplete,25,color,1,right,Blue_Circle_Grid_4.jpg,Green_Plus_Dots_4.jpg,Blue_Triangle_Stripes_2.jpg,right,775.7799999963026,true,NA,true
yhSALUfp,3r6rzgk0yip7nifkjif6ljfzh9ayv2,3ioen3p9sbwr56naxn5rkoki7rj61r,yhSALUfp,2020-0188,2020-11-21,13:32:59,13:52:01,NA,incomplete,26,color,1,right,Purple_Plus_Chess_4.jpg,Green_Star_Stripes_4.jpg,Purple_Circle_Dots_1.jpg,right,759.040000004461,true,NA,true
yhSALUfp,3r6rzgk0yip7nifkjif6ljfzh9ayv2,3ioen3p9sbwr56naxn5rkoki7rj61r,yhSALUfp,2020-0188,2020-11-21,13:32:59,13:52:01,NA,incomplete,27,color,0,right,Blue_Triangle_Dots_2.jpg,Purple_Star_Grid_2.jpg,Blue_Circle_Chess_4.jpg,right,709.0000000025611,true,NA,true
yhSALUfp,3r6rzgk0yip7nifkjif6ljfzh9ayv2,3ioen3p9sbwr56naxn5rkoki7rj61r,yhSALUfp,2020-0188,2020-11-21,13:32:59,13:52:01,NA,incomplete,28,color,1,left,Red_Triangle_Grid_1.jpg,Red_Plus_Chess_2.jpg,Purple_Circle_Dots_1.jpg,left,696.8099999940023,true,NA,true
yhSALUfp,3r6rzgk0yip7nifkjif6ljfzh9ayv2,3ioen3p9sbwr56naxn5rkoki7rj61r,yhSALUfp,2020-0188,2020-11-21,13:32:59,13:52:01,NA,incomplete,29,color,1,right,Blue_Circle_Stripes_1.jpg,Green_Triangle_Grid_1.jpg,Blue_Star_Dots_4.jpg,right,526.2299999885727,true,NA,true
yhSALUfp,3r6rzgk0yip7nifkjif6ljfzh9ayv2,3ioen3p9sbwr56naxn5rkoki7rj61r,yhSALUfp,2020-0188,2020-11-21,13:32:59,13:52:01,NA,incomplete,30,color,1,right,Red_Triangle_Grid_3.jpg,Blue_Plus_Stripes_3.jpg,Red_Circle_Chess_1.jpg,right,646.9499999948312,true,NA,true
yhSALUfp,3r6rzgk0yip7nifkjif6ljfzh9ayv2,3ioen3p9sbwr56naxn5rkoki7rj61r,yhSALUfp,2020-0188,2020-11-21,13:32:59,13:52:01,NA,incomplete,31,color,1,left,Red_Triangle_Chess_2.jpg,Red_Circle_Grid_3.jpg,Green_Star_Dots_2.jpg,left,588.644999981625,true,NA,true
yhSALUfp,3r6rzgk0yip7nifkjif6ljfzh9ayv2,3ioen3p9sbwr56naxn5rkoki7rj61r,yhSALUfp,2020-0188,2020-11-21,13:32:59,13:52:01,NA,incomplete,32,color,1,right,Blue_Star_Chess_4.jpg,Red_Plus_Dots_4.jpg,Blue_Circle_Stripes_1.jpg,right,517.5699999963399,true,NA,true
yhSALUfp,3r6rzgk0yip7nifkjif6ljfzh9ayv2,3ioen3p9sbwr56naxn5rkoki7rj61r,yhSALUfp,2020-0188,2020-11-21,13:32:59,13:52:01,NA,incomplete,33,color,1,right,Purple_Circle_Chess_3.jpg,Red_Plus_Grid_3.jpg,Purple_Star_Stripes_2.jpg,right,563.7149999965914,true,NA,true
yhSALUfp,3r6rzgk0yip7nifkjif6ljfzh9ayv2,3ioen3p9sbwr56naxn5rkoki7rj61r,yhSALUfp,2020-0188,2020-11-21,13:32:59,13:52:01,NA,incomplete,34,color,0,right,Purple_Star_Stripes_4.jpg,Blue_Plus_Dots_4.jpg,Purple_Circle_Grid_3.jpg,right,526.4899999892805,true,NA,true
yhSALUfp,3r6rzgk0yip7nifkjif6ljfzh9ayv2,3ioen3p9sbwr56naxn5rkoki7rj61r,yhSALUfp,2020-0188,2020-11-21,13:32:59,13:52:01,NA,incomplete,35,color,1,right,Red_Star_Stripes_4.jpg,Green_Triangle_Chess_4.jpg,Red_Circle_Dots_2.jpg,right,659.7199999960139,true,NA,true
yhSALUfp,3r6rzgk0yip7nifkjif6ljfzh9ayv2,3ioen3p9sbwr56naxn5rkoki7rj61r,yhSALUfp,2020-0188,2020-11-21,13:32:59,13:52:01,NA,incomplete,36,color,1,right,Blue_Circle_Grid_1.jpg,Green_Triangle_Chess_1.jpg,Blue_Plus_Stripes_3.jpg,right,672.3400000191759,true,NA,true
yhSALUfp,3r6rzgk0yip7nifkjif6ljfzh9ayv2,3ioen3p9sbwr56naxn5rkoki7rj61r,yhSALUfp,2020-0188,2020-11-21,13:32:59,13:52:01,NA,incomplete,37,color,1,left,Red_Plus_Grid_2.jpg,Red_Star_Dots_3.jpg,Purple_Circle_Chess_2.jpg,left,730.7300000102259,true,NA,true
yhSALUfp,3r6rzgk0yip7nifkjif6ljfzh9ayv2,3ioen3p9sbwr56naxn5rkoki7rj61r,yhSALUfp,2020-0188,2020-11-21,13:32:59,13:52:01,NA,incomplete,38,color,1,left,Purple_Plus_Chess_3.jpg,Purple_Star_Grid_1.jpg,Red_Circle_Stripes_3.jpg,left,751.6000000177883,true,NA,true
yhSALUfp,3r6rzgk0yip7nifkjif6ljfzh9ayv2,3ioen3p9sbwr56naxn5rkoki7rj61r,yhSALUfp,2020-0188,2020-11-21,13:32:59,13:52:01,NA,incomplete,39,color,0,right,Purple_Triangle_Grid_3.jpg,Blue_Plus_Stripes_3.jpg,Purple_Circle_Chess_2.jpg,right,576.9300000101794,true,NA,true
yhSALUfp,3r6rzgk0yip7nifkjif6ljfzh9ayv2,3ioen3p9sbwr56naxn5rkoki7rj61r,yhSALUfp,2020-0188,2020-11-21,13:32:59,13:52:01,NA,incomplete,0,number,1,left,Red_Plus_Grid_2.jpg,Green_Triangle_Dots_2.jpg,Red_Star_Stripes_4.jpg,left,1235.5350000143517,true,high,false
yhSALUfp,3r6rzgk0yip7nifkjif6ljfzh9ayv2,3ioen3p9sbwr56naxn5rkoki7rj61r,yhSALUfp,2020-0188,2020-11-21,13:32:59,13:52:01,NA,incomplete,1,number,0,left,Purple_Star_Stripes_1.jpg,Green_Circle_Grid_1.jpg,Purple_Triangle_Chess_2.jpg,left,1252.3849999997765,true,high,false
yhSALUfp,3r6rzgk0yip7nifkjif6ljfzh9ayv2,3ioen3p9sbwr56naxn5rkoki7rj61r,yhSALUfp,2020-0188,2020-11-21,13:32:59,13:52:01,NA,incomplete,2,number,1,left,Green_Circle_Stripes_1.jpg,Blue_Plus_Grid_1.jpg,Green_Star_Chess_3.jpg,right,702.4049999890849,false,high,false
yhSALUfp,3r6rzgk0yip7nifkjif6ljfzh9ayv2,3ioen3p9sbwr56naxn5rkoki7rj61r,yhSALUfp,2020-0188,2020-11-21,13:32:59,13:52:01,NA,incomplete,3,number,0,left,Blue_Triangle_Dots_4.jpg,Red_Plus_Chess_4.jpg,Blue_Circle_Stripes_2.jpg,left,1140.3299999947194,true,high,false
yhSALUfp,3r6rzgk0yip7nifkjif6ljfzh9ayv2,3ioen3p9sbwr56naxn5rkoki7rj61r,yhSALUfp,2020-0188,2020-11-21,13:32:59,13:52:01,NA,incomplete,4,number,0,right,Purple_Circle_Chess_3.jpg,Purple_Triangle_Grid_4.jpg,Blue_Plus_Dots_3.jpg,right,1319.5600000035483,true,high,false
yhSALUfp,3r6rzgk0yip7nifkjif6ljfzh9ayv2,3ioen3p9sbwr56naxn5rkoki7rj61r,yhSALUfp,2020-0188,2020-11-21,13:32:59,13:52:01,NA,incomplete,5,number,1,right,Green_Star_Chess_3.jpg,Green_Circle_Grid_1.jpg,Purple_Triangle_Stripes_3.jpg,right,1515.4699999839067,true,high,false
yhSALUfp,3r6rzgk0yip7nifkjif6ljfzh9ayv2,3ioen3p9sbwr56naxn5rkoki7rj61r,yhSALUfp,2020-0188,2020-11-21,13:32:59,13:52:01,NA,incomplete,6,number,1,left,Red_Star_Dots_4.jpg,Green_Circle_Grid_4.jpg,Red_Triangle_Chess_2.jpg,left,615.4999999853317,true,high,false
yhSALUfp,3r6rzgk0yip7nifkjif6ljfzh9ayv2,3ioen3p9sbwr56naxn5rkoki7rj61r,yhSALUfp,2020-0188,2020-11-21,13:32:59,13:52:01,NA,incomplete,7,number,1,left,Blue_Triangle_Grid_1.jpg,Red_Plus_Stripes_1.jpg,Blue_Circle_Chess_4.jpg,left,765.3900000150315,true,high,false
yhSALUfp,3r6rzgk0yip7nifkjif6ljfzh9ayv2,3ioen3p9sbwr56naxn5rkoki7rj61r,yhSALUfp,2020-0188,2020-11-21,13:32:59,13:52:01,NA,incomplete,8,number,1,right,Purple_Plus_Dots_3.jpg,Purple_Circle_Grid_2.jpg,Blue_Star_Chess_3.jpg,right,703.3450000162702,true,high,false
yhSALUfp,3r6rzgk0yip7nifkjif6ljfzh9ayv2,3ioen3p9sbwr56naxn5rkoki7rj61r,yhSALUfp,2020-0188,2020-11-21,13:32:59,13:52:01,NA,incomplete,9,number,1,right,Purple_Circle_Stripes_3.jpg,Purple_Star_Dots_1.jpg,Blue_Plus_Grid_3.jpg,right,566.0599999828264,true,high,false
yhSALUfp,3r6rzgk0yip7nifkjif6ljfzh9ayv2,3ioen3p9sbwr56naxn5rkoki7rj61r,yhSALUfp,2020-0188,2020-11-21,13:32:59,13:52:01,NA,incomplete,10,color,1,right,Blue_Plus_Stripes_1.jpg,Red_Triangle_Dots_1.jpg,Blue_Circle_Chess_3.jpg,left,740.9350000089034,false,high,false
yhSALUfp,3r6rzgk0yip7nifkjif6ljfzh9ayv2,3ioen3p9sbwr56naxn5rkoki7rj61r,yhSALUfp,2020-0188,2020-11-21,13:32:59,13:52:01,NA,incomplete,11,color,1,left,Green_Star_Dots_2.jpg,Green_Plus_Grid_3.jpg,Blue_Triangle_Stripes_2.jpg,right,1032.550000003539,false,high,false
yhSALUfp,3r6rzgk0yip7nifkjif6ljfzh9ayv2,3ioen3p9sbwr56naxn5rkoki7rj61r,yhSALUfp,2020-0188,2020-11-21,13:32:59,13:52:01,NA,incomplete,12,color,1,left,Green_Plus_Stripes_2.jpg,Green_Star_Grid_1.jpg,Red_Triangle_Chess_2.jpg,left,540.9250000084285,true,high,false
yhSALUfp,3r6rzgk0yip7nifkjif6ljfzh9ayv2,3ioen3p9sbwr56naxn5rkoki7rj61r,yhSALUfp,2020-0188,2020-11-21,13:32:59,13:52:01,NA,incomplete,13,color,1,left,Purple_Circle_Grid_4.jpg,Purple_Triangle_Stripes_2.jpg,Blue_Plus_Chess_4.jpg,right,907.8000000154134,false,high,false
yhSALUfp,3r6rzgk0yip7nifkjif6ljfzh9ayv2,3ioen3p9sbwr56naxn5rkoki7rj61r,yhSALUfp,2020-0188,2020-11-21,13:32:59,13:52:01,NA,incomplete,14,color,1,left,Green_Triangle_Stripes_4.jpg,Green_Star_Grid_2.jpg,Purple_Plus_Dots_4.jpg,right,807.8149999782909,false,high,false
yhSALUfp,3r6rzgk0yip7nifkjif6ljfzh9ayv2,3ioen3p9sbwr56naxn5rkoki7rj61r,yhSALUfp,2020-0188,2020-11-21,13:32:59,13:52:01,NA,incomplete,15,color,1,right,Purple_Triangle_Chess_1.jpg,Green_Plus_Dots_1.jpg,Purple_Star_Grid_4.jpg,right,533.0050000047777,true,high,false
yhSALUfp,3r6rzgk0yip7nifkjif6ljfzh9ayv2,3ioen3p9sbwr56naxn5rkoki7rj61r,yhSALUfp,2020-0188,2020-11-21,13:32:59,13:52:01,NA,incomplete,16,color,1,left,Purple_Circle_Stripes_1.jpg,Purple_Plus_Grid_3.jpg,Blue_Triangle_Chess_1.jpg,left,554.2549999954645,true,high,false
yhSALUfp,3r6rzgk0yip7nifkjif6ljfzh9ayv2,3ioen3p9sbwr56naxn5rkoki7rj61r,yhSALUfp,2020-0188,2020-11-21,13:32:59,13:52:01,NA,incomplete,17,color,1,left,Red_Triangle_Grid_1.jpg,Red_Plus_Dots_4.jpg,Green_Circle_Chess_1.jpg,left,604.1999999724794,true,high,false
yhSALUfp,3r6rzgk0yip7nifkjif6ljfzh9ayv2,3ioen3p9sbwr56naxn5rkoki7rj61r,yhSALUfp,2020-0188,2020-11-21,13:32:59,13:52:01,NA,incomplete,18,color,1,right,Green_Circle_Grid_3.jpg,Blue_Plus_Dots_3.jpg,Green_Triangle_Stripes_1.jpg,right,766.4199999999255,true,high,false
yhSALUfp,3r6rzgk0yip7nifkjif6ljfzh9ayv2,3ioen3p9sbwr56naxn5rkoki7rj61r,yhSALUfp,2020-0188,2020-11-21,13:32:59,13:52:01,NA,incomplete,19,color,1,right,Red_Triangle_Stripes_4.jpg,Purple_Plus_Dots_4.jpg,Red_Star_Chess_2.jpg,right,942.0300000056159,true,high,false
yhSALUfp,3r6rzgk0yip7nifkjif6ljfzh9ayv2,3ioen3p9sbwr56naxn5rkoki7rj61r,yhSALUfp,2020-0188,2020-11-21,13:32:59,13:52:01,NA,incomplete,20,number,1,right,Red_Plus_Stripes_1.jpg,Red_Triangle_Grid_2.jpg,Green_Star_Chess_1.jpg,left,495.7599999906961,false,high,false
yhSALUfp,3r6rzgk0yip7nifkjif6ljfzh9ayv2,3ioen3p9sbwr56naxn5rkoki7rj61r,yhSALUfp,2020-0188,2020-11-21,13:32:59,13:52:01,NA,incomplete,21,number,0,right,Red_Star_Stripes_3.jpg,Red_Triangle_Grid_2.jpg,Green_Plus_Dots_3.jpg,left,1100.3099999797996,false,high,false
yhSALUfp,3r6rzgk0yip7nifkjif6ljfzh9ayv2,3ioen3p9sbwr56naxn5rkoki7rj61r,yhSALUfp,2020-0188,2020-11-21,13:32:59,13:52:01,NA,incomplete,22,number,1,left,Purple_Triangle_Dots_2.jpg,Blue_Star_Stripes_2.jpg,Purple_Plus_Chess_4.jpg,right,700.089999998454,false,high,false
yhSALUfp,3r6rzgk0yip7nifkjif6ljfzh9ayv2,3ioen3p9sbwr56naxn5rkoki7rj61r,yhSALUfp,2020-0188,2020-11-21,13:32:59,13:52:01,NA,incomplete,23,number,1,left,Green_Plus_Dots_3.jpg,Purple_Circle_Stripes_3.jpg,Green_Triangle_Grid_4.jpg,left,816.8299999961164,true,high,false
yhSALUfp,3r6rzgk0yip7nifkjif6ljfzh9ayv2,3ioen3p9sbwr56naxn5rkoki7rj61r,yhSALUfp,2020-0188,2020-11-21,13:32:59,13:52:01,NA,incomplete,24,number,1,left,Green_Triangle_Stripes_4.jpg,Red_Star_Dots_4.jpg,Green_Plus_Chess_2.jpg,left,663.0850000074133,true,high,false
yhSALUfp,3r6rzgk0yip7nifkjif6ljfzh9ayv2,3ioen3p9sbwr56naxn5rkoki7rj61r,yhSALUfp,2020-0188,2020-11-21,13:32:59,13:52:01,NA,incomplete,25,number,1,right,Purple_Circle_Stripes_3.jpg,Purple_Triangle_Chess_4.jpg,Blue_Plus_Dots_3.jpg,right,662.9700000048615,true,high,false
yhSALUfp,3r6rzgk0yip7nifkjif6ljfzh9ayv2,3ioen3p9sbwr56naxn5rkoki7rj61r,yhSALUfp,2020-0188,2020-11-21,13:32:59,13:52:01,NA,incomplete,26,number,1,left,Blue_Star_Grid_3.jpg,Red_Triangle_Stripes_3.jpg,Blue_Plus_Dots_2.jpg,left,662.8300000156742,true,high,false
yhSALUfp,3r6rzgk0yip7nifkjif6ljfzh9ayv2,3ioen3p9sbwr56naxn5rkoki7rj61r,yhSALUfp,2020-0188,2020-11-21,13:32:59,13:52:01,NA,incomplete,27,number,1,right,Red_Circle_Chess_3.jpg,Red_Star_Dots_1.jpg,Green_Triangle_Grid_3.jpg,right,550.5200000188779,true,high,false
yhSALUfp,3r6rzgk0yip7nifkjif6ljfzh9ayv2,3ioen3p9sbwr56naxn5rkoki7rj61r,yhSALUfp,2020-0188,2020-11-21,13:32:59,13:52:01,NA,incomplete,28,number,1,right,Purple_Circle_Grid_4.jpg,Purple_Plus_Dots_3.jpg,Green_Triangle_Stripes_4.jpg,right,688.1699999794364,true,high,false
yhSALUfp,3r6rzgk0yip7nifkjif6ljfzh9ayv2,3ioen3p9sbwr56naxn5rkoki7rj61r,yhSALUfp,2020-0188,2020-11-21,13:32:59,13:52:01,NA,incomplete,29,number,1,left,Green_Star_Chess_1.jpg,Red_Plus_Grid_1.jpg,Green_Triangle_Stripes_3.jpg,left,655.0199999765027,true,high,false
yhSALUfp,3r6rzgk0yip7nifkjif6ljfzh9ayv2,3ioen3p9sbwr56naxn5rkoki7rj61r,yhSALUfp,2020-0188,2020-11-21,13:32:59,13:52:01,NA,incomplete,30,color,1,left,Green_Plus_Dots_4.jpg,Green_Circle_Stripes_3.jpg,Blue_Star_Chess_4.jpg,right,530.0350000034086,false,high,false
yhSALUfp,3r6rzgk0yip7nifkjif6ljfzh9ayv2,3ioen3p9sbwr56naxn5rkoki7rj61r,yhSALUfp,2020-0188,2020-11-21,13:32:59,13:52:01,NA,incomplete,31,color,1,right,Purple_Star_Dots_4.jpg,Green_Plus_Chess_4.jpg,Purple_Triangle_Grid_1.jpg,left,538.5149999929126,false,high,false
yhSALUfp,3r6rzgk0yip7nifkjif6ljfzh9ayv2,3ioen3p9sbwr56naxn5rkoki7rj61r,yhSALUfp,2020-0188,2020-11-21,13:32:59,13:52:01,NA,incomplete,32,color,1,right,Red_Circle_Chess_1.jpg,Green_Star_Grid_1.jpg,Red_Triangle_Stripes_3.jpg,right,767.7550000080373,true,high,false
yhSALUfp,3r6rzgk0yip7nifkjif6ljfzh9ayv2,3ioen3p9sbwr56naxn5rkoki7rj61r,yhSALUfp,2020-0188,2020-11-21,13:32:59,13:52:01,NA,incomplete,33,color,0,left,Purple_Triangle_Grid_1.jpg,Purple_Plus_Dots_4.jpg,Red_Star_Stripes_1.jpg,left,551.1349999869708,true,high,false
yhSALUfp,3r6rzgk0yip7nifkjif6ljfzh9ayv2,3ioen3p9sbwr56naxn5rkoki7rj61r,yhSALUfp,2020-0188,2020-11-21,13:32:59,13:52:01,NA,incomplete,34,color,0,right,Purple_Circle_Grid_2.jpg,Blue_Plus_Stripes_2.jpg,Purple_Triangle_Chess_3.jpg,right,413.765000004787,true,high,false
yhSALUfp,3r6rzgk0yip7nifkjif6ljfzh9ayv2,3ioen3p9sbwr56naxn5rkoki7rj61r,yhSALUfp,2020-0188,2020-11-21,13:32:59,13:52:01,NA,incomplete,35,color,1,left,Blue_Plus_Chess_1.jpg,Blue_Circle_Grid_4.jpg,Red_Star_Stripes_1.jpg,right,601.3400000229012,false,high,false
yhSALUfp,3r6rzgk0yip7nifkjif6ljfzh9ayv2,3ioen3p9sbwr56naxn5rkoki7rj61r,yhSALUfp,2020-0188,2020-11-21,13:32:59,13:52:01,NA,incomplete,36,color,1,right,Purple_Plus_Grid_3.jpg,Red_Circle_Chess_3.jpg,Purple_Star_Dots_2.jpg,left,1288.5700000042561,false,high,false
yhSALUfp,3r6rzgk0yip7nifkjif6ljfzh9ayv2,3ioen3p9sbwr56naxn5rkoki7rj61r,yhSALUfp,2020-0188,2020-11-21,13:32:59,13:52:01,NA,incomplete,37,color,1,right,Red_Circle_Stripes_2.jpg,Purple_Star_Chess_2.jpg,Red_Triangle_Grid_1.jpg,left,817.8650000190828,false,high,false
yhSALUfp,3r6rzgk0yip7nifkjif6ljfzh9ayv2,3ioen3p9sbwr56naxn5rkoki7rj61r,yhSALUfp,2020-0188,2020-11-21,13:32:59,13:52:01,NA,incomplete,38,color,0,right,Green_Circle_Dots_2.jpg,Blue_Triangle_Chess_2.jpg,Green_Plus_Stripes_4.jpg,left,801.2299999827519,false,high,false
yhSALUfp,3r6rzgk0yip7nifkjif6ljfzh9ayv2,3ioen3p9sbwr56naxn5rkoki7rj61r,yhSALUfp,2020-0188,2020-11-21,13:32:59,13:52:01,NA,incomplete,39,color,0,right,Purple_Star_Chess_4.jpg,Green_Triangle_Stripes_4.jpg,Purple_Circle_Dots_1.jpg,left,614.3150000134483,false,high,false
yhSALUfp,3r6rzgk0yip7nifkjif6ljfzh9ayv2,3ioen3p9sbwr56naxn5rkoki7rj61r,yhSALUfp,2020-0188,2020-11-21,13:32:59,13:52:01,NA,incomplete,40,number,1,right,Red_Triangle_Chess_3.jpg,Red_Star_Stripes_2.jpg,Purple_Plus_Grid_3.jpg,right,476.5999999945052,true,high,false
yhSALUfp,3r6rzgk0yip7nifkjif6ljfzh9ayv2,3ioen3p9sbwr56naxn5rkoki7rj61r,yhSALUfp,2020-0188,2020-11-21,13:32:59,13:52:01,NA,incomplete,41,number,1,left,Blue_Triangle_Stripes_4.jpg,Green_Circle_Grid_4.jpg,Blue_Star_Chess_2.jpg,left,497.4050000018906,true,high,false
yhSALUfp,3r6rzgk0yip7nifkjif6ljfzh9ayv2,3ioen3p9sbwr56naxn5rkoki7rj61r,yhSALUfp,2020-0188,2020-11-21,13:32:59,13:52:01,NA,incomplete,42,number,1,left,Purple_Star_Dots_2.jpg,Blue_Plus_Grid_2.jpg,Purple_Triangle_Stripes_3.jpg,left,726.825000019744,true,high,false
yhSALUfp,3r6rzgk0yip7nifkjif6ljfzh9ayv2,3ioen3p9sbwr56naxn5rkoki7rj61r,yhSALUfp,2020-0188,2020-11-21,13:32:59,13:52:01,NA,incomplete,43,number,1,right,Red_Circle_Stripes_1.jpg,Red_Plus_Dots_3.jpg,Blue_Star_Grid_1.jpg,right,610.1849999977276,true,high,false
yhSALUfp,3r6rzgk0yip7nifkjif6ljfzh9ayv2,3ioen3p9sbwr56naxn5rkoki7rj61r,yhSALUfp,2020-0188,2020-11-21,13:32:59,13:52:01,NA,incomplete,44,number,1,right,Purple_Triangle_Dots_1.jpg,Purple_Circle_Chess_3.jpg,Blue_Plus_Grid_1.jpg,right,648.0499999888707,true,high,false
yhSALUfp,3r6rzgk0yip7nifkjif6ljfzh9ayv2,3ioen3p9sbwr56naxn5rkoki7rj61r,yhSALUfp,2020-0188,2020-11-21,13:32:59,13:52:01,NA,incomplete,45,number,1,left,Blue_Triangle_Stripes_4.jpg,Purple_Plus_Chess_4.jpg,Blue_Circle_Dots_3.jpg,left,714.5200000086334,true,high,false
yhSALUfp,3r6rzgk0yip7nifkjif6ljfzh9ayv2,3ioen3p9sbwr56naxn5rkoki7rj61r,yhSALUfp,2020-0188,2020-11-21,13:32:59,13:52:01,NA,incomplete,46,number,1,left,Green_Triangle_Grid_4.jpg,Red_Circle_Chess_4.jpg,Green_Plus_Dots_2.jpg,left,614.6000000007916,true,high,false
yhSALUfp,3r6rzgk0yip7nifkjif6ljfzh9ayv2,3ioen3p9sbwr56naxn5rkoki7rj61r,yhSALUfp,2020-0188,2020-11-21,13:32:59,13:52:01,NA,incomplete,47,number,1,left,Purple_Plus_Stripes_4.jpg,Green_Triangle_Chess_4.jpg,Purple_Circle_Dots_3.jpg,left,577.0999999949709,true,high,false
yhSALUfp,3r6rzgk0yip7nifkjif6ljfzh9ayv2,3ioen3p9sbwr56naxn5rkoki7rj61r,yhSALUfp,2020-0188,2020-11-21,13:32:59,13:52:01,NA,incomplete,48,number,1,left,Green_Triangle_Grid_4.jpg,Purple_Plus_Chess_4.jpg,Green_Star_Stripes_1.jpg,left,523.2250000117347,true,high,false
yhSALUfp,3r6rzgk0yip7nifkjif6ljfzh9ayv2,3ioen3p9sbwr56naxn5rkoki7rj61r,yhSALUfp,2020-0188,2020-11-21,13:32:59,13:52:01,NA,incomplete,49,number,1,left,Red_Triangle_Dots_4.jpg,Blue_Star_Stripes_4.jpg,Red_Plus_Chess_2.jpg,left,506.5900000045076,true,high,false
yhSALUfp,3r6rzgk0yip7nifkjif6ljfzh9ayv2,3ioen3p9sbwr56naxn5rkoki7rj61r,yhSALUfp,2020-0188,2020-11-21,13:32:59,13:52:01,NA,incomplete,50,color,1,left,Purple_Star_Chess_3.jpg,Purple_Plus_Dots_1.jpg,Green_Circle_Stripes_3.jpg,right,518.8200000266079,false,high,false
yhSALUfp,3r6rzgk0yip7nifkjif6ljfzh9ayv2,3ioen3p9sbwr56naxn5rkoki7rj61r,yhSALUfp,2020-0188,2020-11-21,13:32:59,13:52:01,NA,incomplete,51,color,1,right,Blue_Circle_Grid_2.jpg,Green_Plus_Chess_2.jpg,Blue_Triangle_Stripes_1.jpg,left,852.2499999962747,false,high,false
yhSALUfp,3r6rzgk0yip7nifkjif6ljfzh9ayv2,3ioen3p9sbwr56naxn5rkoki7rj61r,yhSALUfp,2020-0188,2020-11-21,13:32:59,13:52:01,NA,incomplete,52,color,0,left,Red_Star_Grid_1.jpg,Red_Plus_Dots_3.jpg,Green_Circle_Chess_1.jpg,left,490.2650000003632,true,high,false
yhSALUfp,3r6rzgk0yip7nifkjif6ljfzh9ayv2,3ioen3p9sbwr56naxn5rkoki7rj61r,yhSALUfp,2020-0188,2020-11-21,13:32:59,13:52:01,NA,incomplete,53,color,1,right,Red_Circle_Stripes_4.jpg,Green_Triangle_Chess_4.jpg,Red_Star_Dots_2.jpg,right,1156.890000012936,true,high,false
yhSALUfp,3r6rzgk0yip7nifkjif6ljfzh9ayv2,3ioen3p9sbwr56naxn5rkoki7rj61r,yhSALUfp,2020-0188,2020-11-21,13:32:59,13:52:01,NA,incomplete,54,color,0,right,Blue_Star_Chess_3.jpg,Purple_Circle_Dots_3.jpg,Blue_Triangle_Grid_1.jpg,right,907.2100000048522,true,high,false
yhSALUfp,3r6rzgk0yip7nifkjif6ljfzh9ayv2,3ioen3p9sbwr56naxn5rkoki7rj61r,yhSALUfp,2020-0188,2020-11-21,13:32:59,13:52:01,NA,incomplete,55,color,1,right,Red_Plus_Chess_3.jpg,Blue_Circle_Grid_3.jpg,Red_Triangle_Stripes_1.jpg,left,581.9499999925029,false,high,false
yhSALUfp,3r6rzgk0yip7nifkjif6ljfzh9ayv2,3ioen3p9sbwr56naxn5rkoki7rj61r,yhSALUfp,2020-0188,2020-11-21,13:32:59,13:52:01,NA,incomplete,56,color,1,right,Blue_Star_Stripes_4.jpg,Green_Triangle_Chess_4.jpg,Blue_Plus_Grid_3.jpg,left,1352.8900000092108,false,high,false
yhSALUfp,3r6rzgk0yip7nifkjif6ljfzh9ayv2,3ioen3p9sbwr56naxn5rkoki7rj61r,yhSALUfp,2020-0188,2020-11-21,13:32:59,13:52:01,NA,incomplete,57,color,1,left,Blue_Star_Grid_3.jpg,Blue_Circle_Stripes_1.jpg,Green_Plus_Dots_3.jpg,right,677.9950000054669,false,high,false
yhSALUfp,3r6rzgk0yip7nifkjif6ljfzh9ayv2,3ioen3p9sbwr56naxn5rkoki7rj61r,yhSALUfp,2020-0188,2020-11-21,13:32:59,13:52:01,NA,incomplete,58,color,1,left,Blue_Star_Chess_1.jpg,Blue_Circle_Dots_3.jpg,Purple_Triangle_Grid_1.jpg,left,536.5199999941979,true,high,false
yhSALUfp,3r6rzgk0yip7nifkjif6ljfzh9ayv2,3ioen3p9sbwr56naxn5rkoki7rj61r,yhSALUfp,2020-0188,2020-11-21,13:32:59,13:52:01,NA,incomplete,59,color,1,left,Purple_Plus_Grid_3.jpg,Purple_Star_Chess_1.jpg,Red_Circle_Dots_3.jpg,right,453.125,false,high,false
yhSALUfp,3r6rzgk0yip7nifkjif6ljfzh9ayv2,3ioen3p9sbwr56naxn5rkoki7rj61r,yhSALUfp,2020-0188,2020-11-21,13:32:59,13:52:01,NA,incomplete,60,number,1,left,Green_Plus_Chess_3.jpg,Blue_Circle_Dots_3.jpg,Green_Star_Stripes_1.jpg,right,678.459999995539,false,high,false
yhSALUfp,3r6rzgk0yip7nifkjif6ljfzh9ayv2,3ioen3p9sbwr56naxn5rkoki7rj61r,yhSALUfp,2020-0188,2020-11-21,13:32:59,13:52:01,NA,incomplete,61,number,1,right,Red_Triangle_Grid_2.jpg,Red_Star_Chess_3.jpg,Purple_Plus_Stripes_2.jpg,left,761.7249999893829,false,high,false
yhSALUfp,3r6rzgk0yip7nifkjif6ljfzh9ayv2,3ioen3p9sbwr56naxn5rkoki7rj61r,yhSALUfp,2020-0188,2020-11-21,13:32:59,13:52:01,NA,incomplete,62,number,0,left,Purple_Star_Dots_3.jpg,Red_Circle_Chess_3.jpg,Purple_Plus_Grid_2.jpg,right,711.9050000037532,false,high,false
yhSALUfp,3r6rzgk0yip7nifkjif6ljfzh9ayv2,3ioen3p9sbwr56naxn5rkoki7rj61r,yhSALUfp,2020-0188,2020-11-21,13:32:59,13:52:01,NA,incomplete,63,number,1,right,Blue_Star_Stripes_4.jpg,Blue_Circle_Dots_1.jpg,Green_Plus_Grid_4.jpg,left,549.3699999933597,false,high,false
yhSALUfp,3r6rzgk0yip7nifkjif6ljfzh9ayv2,3ioen3p9sbwr56naxn5rkoki7rj61r,yhSALUfp,2020-0188,2020-11-21,13:32:59,13:52:01,NA,incomplete,64,number,1,right,Green_Plus_Chess_3.jpg,Green_Star_Grid_4.jpg,Purple_Triangle_Stripes_3.jpg,right,1178.8400000077672,true,high,false
yhSALUfp,3r6rzgk0yip7nifkjif6ljfzh9ayv2,3ioen3p9sbwr56naxn5rkoki7rj61r,yhSALUfp,2020-0188,2020-11-21,13:32:59,13:52:01,NA,incomplete,65,number,1,left,Green_Circle_Grid_2.jpg,Blue_Star_Stripes_2.jpg,Green_Triangle_Chess_3.jpg,left,687.0449999987613,true,high,false
yhSALUfp,3r6rzgk0yip7nifkjif6ljfzh9ayv2,3ioen3p9sbwr56naxn5rkoki7rj61r,yhSALUfp,2020-0188,2020-11-21,13:32:59,13:52:01,NA,incomplete,66,number,1,left,Green_Star_Stripes_2.jpg,Blue_Plus_Chess_2.jpg,Green_Triangle_Grid_4.jpg,right,791.1299999977928,false,high,false
yhSALUfp,3r6rzgk0yip7nifkjif6ljfzh9ayv2,3ioen3p9sbwr56naxn5rkoki7rj61r,yhSALUfp,2020-0188,2020-11-21,13:32:59,13:52:01,NA,incomplete,67,number,1,right,Red_Star_Dots_2.jpg,Red_Circle_Stripes_1.jpg,Purple_Plus_Chess_2.jpg,right,845.6400000141002,true,high,false
yhSALUfp,3r6rzgk0yip7nifkjif6ljfzh9ayv2,3ioen3p9sbwr56naxn5rkoki7rj61r,yhSALUfp,2020-0188,2020-11-21,13:32:59,13:52:01,NA,incomplete,68,number,1,left,Green_Circle_Stripes_2.jpg,Red_Triangle_Chess_2.jpg,Green_Star_Dots_4.jpg,left,649.5550000108778,true,high,false
yhSALUfp,3r6rzgk0yip7nifkjif6ljfzh9ayv2,3ioen3p9sbwr56naxn5rkoki7rj61r,yhSALUfp,2020-0188,2020-11-21,13:32:59,13:52:01,NA,incomplete,69,number,1,right,Green_Circle_Dots_3.jpg,Green_Plus_Chess_1.jpg,Blue_Triangle_Stripes_3.jpg,right,541.5349999966566,true,high,false
yhSALUfp,3r6rzgk0yip7nifkjif6ljfzh9ayv2,3ioen3p9sbwr56naxn5rkoki7rj61r,yhSALUfp,2020-0188,2020-11-21,13:32:59,13:52:01,NA,incomplete,70,color,0,left,Green_Star_Grid_3.jpg,Green_Plus_Chess_1.jpg,Purple_Circle_Dots_3.jpg,right,608.4149999951478,false,high,false
yhSALUfp,3r6rzgk0yip7nifkjif6ljfzh9ayv2,3ioen3p9sbwr56naxn5rkoki7rj61r,yhSALUfp,2020-0188,2020-11-21,13:32:59,13:52:01,NA,incomplete,71,color,0,right,Red_Star_Chess_1.jpg,Green_Circle_Stripes_1.jpg,Red_Triangle_Dots_4.jpg,left,683.1799999927171,false,high,false
yhSALUfp,3r6rzgk0yip7nifkjif6ljfzh9ayv2,3ioen3p9sbwr56naxn5rkoki7rj61r,yhSALUfp,2020-0188,2020-11-21,13:32:59,13:52:01,NA,incomplete,72,color,1,left,Purple_Plus_Grid_2.jpg,Purple_Star_Stripes_4.jpg,Blue_Circle_Dots_2.jpg,right,879.4049999851268,false,high,false
yhSALUfp,3r6rzgk0yip7nifkjif6ljfzh9ayv2,3ioen3p9sbwr56naxn5rkoki7rj61r,yhSALUfp,2020-0188,2020-11-21,13:32:59,13:52:01,NA,incomplete,73,color,0,left,Red_Star_Chess_2.jpg,Red_Circle_Grid_3.jpg,Blue_Plus_Stripes_2.jpg,right,700.23499999661,false,high,false
yhSALUfp,3r6rzgk0yip7nifkjif6ljfzh9ayv2,3ioen3p9sbwr56naxn5rkoki7rj61r,yhSALUfp,2020-0188,2020-11-21,13:32:59,13:52:01,NA,incomplete,74,color,1,left,Purple_Plus_Stripes_3.jpg,Purple_Circle_Dots_1.jpg,Green_Triangle_Chess_3.jpg,right,538.3850000216626,false,high,false
yhSALUfp,3r6rzgk0yip7nifkjif6ljfzh9ayv2,3ioen3p9sbwr56naxn5rkoki7rj61r,yhSALUfp,2020-0188,2020-11-21,13:32:59,13:52:01,NA,incomplete,75,color,1,left,Red_Plus_Stripes_2.jpg,Red_Star_Dots_4.jpg,Green_Triangle_Chess_2.jpg,right,679.5850000053179,false,high,false
yhSALUfp,3r6rzgk0yip7nifkjif6ljfzh9ayv2,3ioen3p9sbwr56naxn5rkoki7rj61r,yhSALUfp,2020-0188,2020-11-21,13:32:59,13:52:01,NA,incomplete,76,color,1,left,Red_Star_Dots_4.jpg,Red_Circle_Grid_1.jpg,Purple_Triangle_Chess_4.jpg,right,725.4350000002887,false,high,false
yhSALUfp,3r6rzgk0yip7nifkjif6ljfzh9ayv2,3ioen3p9sbwr56naxn5rkoki7rj61r,yhSALUfp,2020-0188,2020-11-21,13:32:59,13:52:01,NA,incomplete,77,color,0,right,Purple_Star_Dots_3.jpg,Green_Plus_Chess_3.jpg,Purple_Triangle_Stripes_1.jpg,right,1021.1899999994785,true,high,false
yhSALUfp,3r6rzgk0yip7nifkjif6ljfzh9ayv2,3ioen3p9sbwr56naxn5rkoki7rj61r,yhSALUfp,2020-0188,2020-11-21,13:32:59,13:52:01,NA,incomplete,78,color,1,right,Red_Star_Chess_4.jpg,Purple_Circle_Dots_4.jpg,Red_Plus_Grid_2.jpg,left,742.1599999943282,false,high,false
yhSALUfp,3r6rzgk0yip7nifkjif6ljfzh9ayv2,3ioen3p9sbwr56naxn5rkoki7rj61r,yhSALUfp,2020-0188,2020-11-21,13:32:59,13:52:01,NA,incomplete,79,color,1,left,Green_Star_Dots_3.jpg,Green_Triangle_Chess_2.jpg,Red_Plus_Stripes_3.jpg,right,1159.3900000152644,false,high,false
yhSALUfp,3r6rzgk0yip7nifkjif6ljfzh9ayv2,3ioen3p9sbwr56naxn5rkoki7rj61r,yhSALUfp,2020-0188,2020-11-21,13:32:59,13:52:01,NA,incomplete,80,number,1,left,Purple_Star_Stripes_4.jpg,Green_Plus_Grid_4.jpg,Purple_Triangle_Dots_1.jpg,right,1059.080000006361,false,high,false
yhSALUfp,3r6rzgk0yip7nifkjif6ljfzh9ayv2,3ioen3p9sbwr56naxn5rkoki7rj61r,yhSALUfp,2020-0188,2020-11-21,13:32:59,13:52:01,NA,incomplete,81,number,1,left,Green_Circle_Grid_1.jpg,Blue_Star_Dots_1.jpg,Green_Plus_Chess_4.jpg,right,884.2900000163354,false,high,false
yhSALUfp,3r6rzgk0yip7nifkjif6ljfzh9ayv2,3ioen3p9sbwr56naxn5rkoki7rj61r,yhSALUfp,2020-0188,2020-11-21,13:32:59,13:52:01,NA,incomplete,82,number,1,left,Green_Plus_Stripes_1.jpg,Blue_Circle_Dots_1.jpg,Green_Star_Chess_3.jpg,left,863.5049999866169,true,high,false
yhSALUfp,3r6rzgk0yip7nifkjif6ljfzh9ayv2,3ioen3p9sbwr56naxn5rkoki7rj61r,yhSALUfp,2020-0188,2020-11-21,13:32:59,13:52:01,NA,incomplete,83,number,1,left,Blue_Triangle_Stripes_2.jpg,Green_Star_Dots_2.jpg,Blue_Plus_Grid_1.jpg,left,788.3850000216626,true,high,false
yhSALUfp,3r6rzgk0yip7nifkjif6ljfzh9ayv2,3ioen3p9sbwr56naxn5rkoki7rj61r,yhSALUfp,2020-0188,2020-11-21,13:32:59,13:52:01,NA,incomplete,84,number,1,left,Purple_Triangle_Dots_3.jpg,Blue_Circle_Stripes_3.jpg,Purple_Plus_Grid_2.jpg,right,717.8249999997206,false,high,false
yhSALUfp,3r6rzgk0yip7nifkjif6ljfzh9ayv2,3ioen3p9sbwr56naxn5rkoki7rj61r,yhSALUfp,2020-0188,2020-11-21,13:32:59,13:52:01,NA,incomplete,85,number,1,left,Green_Plus_Stripes_4.jpg,Red_Triangle_Chess_4.jpg,Green_Star_Dots_2.jpg,left,701.2950000062119,true,high,false
yhSALUfp,3r6rzgk0yip7nifkjif6ljfzh9ayv2,3ioen3p9sbwr56naxn5rkoki7rj61r,yhSALUfp,2020-0188,2020-11-21,13:32:59,13:52:01,NA,incomplete,86,number,1,left,Green_Triangle_Grid_3.jpg,Purple_Plus_Dots_3.jpg,Green_Circle_Chess_1.jpg,left,663.6650000000373,true,high,false
yhSALUfp,3r6rzgk0yip7nifkjif6ljfzh9ayv2,3ioen3p9sbwr56naxn5rkoki7rj61r,yhSALUfp,2020-0188,2020-11-21,13:32:59,13:52:01,NA,incomplete,87,number,0,right,Green_Circle_Chess_3.jpg,Green_Triangle_Stripes_4.jpg,Purple_Plus_Grid_3.jpg,right,538.8650000095367,true,high,false
yhSALUfp,3r6rzgk0yip7nifkjif6ljfzh9ayv2,3ioen3p9sbwr56naxn5rkoki7rj61r,yhSALUfp,2020-0188,2020-11-21,13:32:59,13:52:01,NA,incomplete,88,number,1,right,Blue_Star_Chess_4.jpg,Blue_Triangle_Stripes_2.jpg,Red_Circle_Dots_4.jpg,right,705.6150000134949,true,high,false
yhSALUfp,3r6rzgk0yip7nifkjif6ljfzh9ayv2,3ioen3p9sbwr56naxn5rkoki7rj61r,yhSALUfp,2020-0188,2020-11-21,13:32:59,13:52:01,NA,incomplete,89,number,1,left,Blue_Plus_Grid_1.jpg,Red_Circle_Stripes_1.jpg,Blue_Star_Dots_4.jpg,left,768.3250000118278,true,high,false
yhSALUfp,3r6rzgk0yip7nifkjif6ljfzh9ayv2,3ioen3p9sbwr56naxn5rkoki7rj61r,yhSALUfp,2020-0188,2020-11-21,13:32:59,13:52:01,NA,incomplete,90,color,1,right,Blue_Star_Dots_2.jpg,Red_Plus_Stripes_2.jpg,Blue_Circle_Grid_1.jpg,left,651.8600000126753,false,high,false
yhSALUfp,3r6rzgk0yip7nifkjif6ljfzh9ayv2,3ioen3p9sbwr56naxn5rkoki7rj61r,yhSALUfp,2020-0188,2020-11-21,13:32:59,13:52:01,NA,incomplete,91,color,1,right,Blue_Plus_Chess_3.jpg,Green_Triangle_Stripes_3.jpg,Blue_Star_Grid_4.jpg,left,789.3000000040047,false,high,false
yhSALUfp,3r6rzgk0yip7nifkjif6ljfzh9ayv2,3ioen3p9sbwr56naxn5rkoki7rj61r,yhSALUfp,2020-0188,2020-11-21,13:32:59,13:52:01,NA,incomplete,92,color,0,left,Red_Triangle_Dots_3.jpg,Red_Circle_Grid_1.jpg,Blue_Star_Chess_3.jpg,right,1030.9100000013132,false,high,false
yhSALUfp,3r6rzgk0yip7nifkjif6ljfzh9ayv2,3ioen3p9sbwr56naxn5rkoki7rj61r,yhSALUfp,2020-0188,2020-11-21,13:32:59,13:52:01,NA,incomplete,93,color,1,right,Blue_Star_Stripes_1.jpg,Red_Circle_Chess_1.jpg,Blue_Plus_Grid_4.jpg,left,1101.779999997234,false,high,false
yhSALUfp,3r6rzgk0yip7nifkjif6ljfzh9ayv2,3ioen3p9sbwr56naxn5rkoki7rj61r,yhSALUfp,2020-0188,2020-11-21,13:32:59,13:52:01,NA,incomplete,94,color,0,left,Blue_Star_Dots_3.jpg,Blue_Triangle_Chess_1.jpg,Green_Circle_Grid_3.jpg,right,614.6449999941979,false,high,false
yhSALUfp,3r6rzgk0yip7nifkjif6ljfzh9ayv2,3ioen3p9sbwr56naxn5rkoki7rj61r,yhSALUfp,2020-0188,2020-11-21,13:32:59,13:52:01,NA,incomplete,95,color,1,left,Blue_Circle_Grid_2.jpg,Blue_Star_Chess_4.jpg,Green_Triangle_Stripes_2.jpg,left,964.3949999881443,true,high,false
yhSALUfp,3r6rzgk0yip7nifkjif6ljfzh9ayv2,3ioen3p9sbwr56naxn5rkoki7rj61r,yhSALUfp,2020-0188,2020-11-21,13:32:59,13:52:01,NA,incomplete,96,color,1,left,Green_Circle_Dots_1.jpg,Green_Plus_Chess_3.jpg,Purple_Triangle_Grid_1.jpg,right,839.6400000201538,false,high,false
yhSALUfp,3r6rzgk0yip7nifkjif6ljfzh9ayv2,3ioen3p9sbwr56naxn5rkoki7rj61r,yhSALUfp,2020-0188,2020-11-21,13:32:59,13:52:01,NA,incomplete,97,color,1,left,Purple_Circle_Chess_1.jpg,Purple_Triangle_Grid_4.jpg,Green_Plus_Dots_1.jpg,left,1068.809999997029,true,high,false
yhSALUfp,3r6rzgk0yip7nifkjif6ljfzh9ayv2,3ioen3p9sbwr56naxn5rkoki7rj61r,yhSALUfp,2020-0188,2020-11-21,13:32:59,13:52:01,NA,incomplete,98,color,1,left,Red_Plus_Stripes_1.jpg,Red_Triangle_Grid_4.jpg,Blue_Star_Dots_1.jpg,left,739.899999985937,true,high,false
yhSALUfp,3r6rzgk0yip7nifkjif6ljfzh9ayv2,3ioen3p9sbwr56naxn5rkoki7rj61r,yhSALUfp,2020-0188,2020-11-21,13:32:59,13:52:01,NA,incomplete,99,color,1,left,Blue_Circle_Grid_3.jpg,Blue_Plus_Stripes_4.jpg,Green_Star_Chess_3.jpg,left,719.1600000078324,true,high,false
yhSALUfp,3r6rzgk0yip7nifkjif6ljfzh9ayv2,3ioen3p9sbwr56naxn5rkoki7rj61r,yhSALUfp,2020-0188,2020-11-21,13:32:59,13:52:01,NA,incomplete,100,number,1,left,Red_Circle_Stripes_3.jpg,Green_Plus_Chess_3.jpg,Red_Triangle_Grid_2.jpg,left,890.079999982845,true,high,false
yhSALUfp,3r6rzgk0yip7nifkjif6ljfzh9ayv2,3ioen3p9sbwr56naxn5rkoki7rj61r,yhSALUfp,2020-0188,2020-11-21,13:32:59,13:52:01,NA,incomplete,101,number,0,left,Blue_Star_Chess_1.jpg,Green_Triangle_Dots_1.jpg,Blue_Circle_Stripes_2.jpg,left,906.5800000098534,true,high,false
yhSALUfp,3r6rzgk0yip7nifkjif6ljfzh9ayv2,3ioen3p9sbwr56naxn5rkoki7rj61r,yhSALUfp,2020-0188,2020-11-21,13:32:59,13:52:01,NA,incomplete,102,number,1,left,Red_Plus_Dots_3.jpg,Blue_Star_Chess_3.jpg,Red_Triangle_Grid_2.jpg,left,656.6800000146031,true,high,false
yhSALUfp,3r6rzgk0yip7nifkjif6ljfzh9ayv2,3ioen3p9sbwr56naxn5rkoki7rj61r,yhSALUfp,2020-0188,2020-11-21,13:32:59,13:52:01,NA,incomplete,103,number,0,left,Red_Star_Chess_2.jpg,Purple_Circle_Grid_2.jpg,Red_Plus_Dots_3.jpg,left,631.7749999871012,true,high,false
yhSALUfp,3r6rzgk0yip7nifkjif6ljfzh9ayv2,3ioen3p9sbwr56naxn5rkoki7rj61r,yhSALUfp,2020-0188,2020-11-21,13:32:59,13:52:01,NA,incomplete,104,number,1,left,Green_Plus_Stripes_1.jpg,Red_Circle_Grid_1.jpg,Green_Star_Dots_3.jpg,left,565.3999999922235,true,high,false
yhSALUfp,3r6rzgk0yip7nifkjif6ljfzh9ayv2,3ioen3p9sbwr56naxn5rkoki7rj61r,yhSALUfp,2020-0188,2020-11-21,13:32:59,13:52:01,NA,incomplete,105,number,1,left,Green_Circle_Grid_1.jpg,Red_Triangle_Chess_1.jpg,Green_Star_Stripes_2.jpg,right,652.8049999906216,false,high,false
yhSALUfp,3r6rzgk0yip7nifkjif6ljfzh9ayv2,3ioen3p9sbwr56naxn5rkoki7rj61r,yhSALUfp,2020-0188,2020-11-21,13:32:59,13:52:01,NA,incomplete,106,number,1,left,Red_Plus_Grid_2.jpg,Green_Star_Dots_2.jpg,Red_Circle_Stripes_3.jpg,right,553.2450000173412,false,high,false
yhSALUfp,3r6rzgk0yip7nifkjif6ljfzh9ayv2,3ioen3p9sbwr56naxn5rkoki7rj61r,yhSALUfp,2020-0188,2020-11-21,13:32:59,13:52:01,NA,incomplete,107,number,1,right,Purple_Circle_Chess_3.jpg,Purple_Star_Stripes_4.jpg,Blue_Triangle_Grid_3.jpg,left,765.4449999972712,false,high,false
yhSALUfp,3r6rzgk0yip7nifkjif6ljfzh9ayv2,3ioen3p9sbwr56naxn5rkoki7rj61r,yhSALUfp,2020-0188,2020-11-21,13:32:59,13:52:01,NA,incomplete,108,number,1,left,Green_Triangle_Chess_4.jpg,Red_Star_Dots_4.jpg,Green_Plus_Stripes_2.jpg,left,778.3700000145473,true,high,false
yhSALUfp,3r6rzgk0yip7nifkjif6ljfzh9ayv2,3ioen3p9sbwr56naxn5rkoki7rj61r,yhSALUfp,2020-0188,2020-11-21,13:32:59,13:52:01,NA,incomplete,109,number,1,left,Blue_Circle_Stripes_2.jpg,Red_Triangle_Dots_2.jpg,Blue_Plus_Grid_4.jpg,right,761.6700000071432,false,high,false
yhSALUfp,3r6rzgk0yip7nifkjif6ljfzh9ayv2,3ioen3p9sbwr56naxn5rkoki7rj61r,yhSALUfp,2020-0188,2020-11-21,13:32:59,13:52:01,NA,incomplete,110,color,1,right,Blue_Circle_Grid_4.jpg,Green_Plus_Chess_4.jpg,Blue_Triangle_Dots_2.jpg,left,586.6499999829102,false,high,false
yhSALUfp,3r6rzgk0yip7nifkjif6ljfzh9ayv2,3ioen3p9sbwr56naxn5rkoki7rj61r,yhSALUfp,2020-0188,2020-11-21,13:32:59,13:52:01,NA,incomplete,111,color,1,left,Green_Star_Dots_1.jpg,Green_Triangle_Grid_4.jpg,Blue_Plus_Chess_1.jpg,left,978.4799999906681,true,high,false
yhSALUfp,3r6rzgk0yip7nifkjif6ljfzh9ayv2,3ioen3p9sbwr56naxn5rkoki7rj61r,yhSALUfp,2020-0188,2020-11-21,13:32:59,13:52:01,NA,incomplete,112,color,0,right,Green_Star_Chess_3.jpg,Blue_Triangle_Dots_3.jpg,Green_Plus_Stripes_1.jpg,right,874.3750000139698,true,high,false
yhSALUfp,3r6rzgk0yip7nifkjif6ljfzh9ayv2,3ioen3p9sbwr56naxn5rkoki7rj61r,yhSALUfp,2020-0188,2020-11-21,13:32:59,13:52:01,NA,incomplete,113,color,1,right,Purple_Circle_Chess_3.jpg,Green_Plus_Dots_3.jpg,Purple_Triangle_Grid_4.jpg,left,720.5699999758508,false,high,false
yhSALUfp,3r6rzgk0yip7nifkjif6ljfzh9ayv2,3ioen3p9sbwr56naxn5rkoki7rj61r,yhSALUfp,2020-0188,2020-11-21,13:32:59,13:52:01,NA,incomplete,114,color,1,right,Green_Star_Chess_3.jpg,Blue_Plus_Grid_3.jpg,Green_Triangle_Stripes_2.jpg,right,941.1750000144821,true,high,false
yhSALUfp,3r6rzgk0yip7nifkjif6ljfzh9ayv2,3ioen3p9sbwr56naxn5rkoki7rj61r,yhSALUfp,2020-0188,2020-11-21,13:32:59,13:52:01,NA,incomplete,115,color,1,right,Blue_Star_Chess_2.jpg,Red_Triangle_Grid_2.jpg,Blue_Circle_Stripes_4.jpg,right,920.5800000054296,true,high,false
yhSALUfp,3r6rzgk0yip7nifkjif6ljfzh9ayv2,3ioen3p9sbwr56naxn5rkoki7rj61r,yhSALUfp,2020-0188,2020-11-21,13:32:59,13:52:01,NA,incomplete,116,color,0,left,Blue_Plus_Grid_1.jpg,Blue_Circle_Dots_4.jpg,Red_Triangle_Chess_1.jpg,left,716.30999998888,true,high,false
yhSALUfp,3r6rzgk0yip7nifkjif6ljfzh9ayv2,3ioen3p9sbwr56naxn5rkoki7rj61r,yhSALUfp,2020-0188,2020-11-21,13:32:59,13:52:01,NA,incomplete,117,color,0,right,Blue_Circle_Grid_4.jpg,Green_Plus_Chess_4.jpg,Blue_Triangle_Stripes_2.jpg,right,641.4450000156648,true,high,false
yhSALUfp,3r6rzgk0yip7nifkjif6ljfzh9ayv2,3ioen3p9sbwr56naxn5rkoki7rj61r,yhSALUfp,2020-0188,2020-11-21,13:32:59,13:52:01,NA,incomplete,118,color,0,right,Green_Star_Chess_2.jpg,Red_Triangle_Dots_2.jpg,Green_Plus_Stripes_3.jpg,right,533.0499999981839,true,high,false
yhSALUfp,3r6rzgk0yip7nifkjif6ljfzh9ayv2,3ioen3p9sbwr56naxn5rkoki7rj61r,yhSALUfp,2020-0188,2020-11-21,13:32:59,13:52:01,NA,incomplete,119,color,1,left,Blue_Circle_Stripes_2.jpg,Blue_Triangle_Chess_4.jpg,Purple_Star_Grid_2.jpg,right,829.0649999980815,false,high,false
yhSALUfp,3r6rzgk0yip7nifkjif6ljfzh9ayv2,3ioen3p9sbwr56naxn5rkoki7rj61r,yhSALUfp,2020-0188,2020-11-21,13:32:59,13:52:01,NA,incomplete,120,number,1,left,Green_Circle_Dots_4.jpg,Purple_Triangle_Stripes_4.jpg,Green_Star_Grid_2.jpg,left,662.3899999831337,true,high,false
yhSALUfp,3r6rzgk0yip7nifkjif6ljfzh9ayv2,3ioen3p9sbwr56naxn5rkoki7rj61r,yhSALUfp,2020-0188,2020-11-21,13:32:59,13:52:01,NA,incomplete,121,number,1,right,Blue_Plus_Grid_3.jpg,Blue_Circle_Dots_4.jpg,Green_Triangle_Chess_3.jpg,right,574.9900000228081,true,high,false
yhSALUfp,3r6rzgk0yip7nifkjif6ljfzh9ayv2,3ioen3p9sbwr56naxn5rkoki7rj61r,yhSALUfp,2020-0188,2020-11-21,13:32:59,13:52:01,NA,incomplete,122,number,1,right,Purple_Plus_Dots_4.jpg,Purple_Star_Stripes_2.jpg,Green_Circle_Grid_4.jpg,right,1070.9099999803584,true,high,false
yhSALUfp,3r6rzgk0yip7nifkjif6ljfzh9ayv2,3ioen3p9sbwr56naxn5rkoki7rj61r,yhSALUfp,2020-0188,2020-11-21,13:32:59,13:52:01,NA,incomplete,123,number,1,right,Red_Star_Dots_1.jpg,Red_Circle_Grid_4.jpg,Blue_Plus_Stripes_1.jpg,right,1304.3199999956414,true,high,false
yhSALUfp,3r6rzgk0yip7nifkjif6ljfzh9ayv2,3ioen3p9sbwr56naxn5rkoki7rj61r,yhSALUfp,2020-0188,2020-11-21,13:32:59,13:52:01,NA,incomplete,124,number,1,right,Purple_Plus_Dots_4.jpg,Purple_Triangle_Stripes_1.jpg,Red_Star_Chess_4.jpg,right,667.8350000001956,true,high,false
yhSALUfp,3r6rzgk0yip7nifkjif6ljfzh9ayv2,3ioen3p9sbwr56naxn5rkoki7rj61r,yhSALUfp,2020-0188,2020-11-21,13:32:59,13:52:01,NA,incomplete,125,number,0,right,Purple_Triangle_Chess_2.jpg,Purple_Circle_Dots_1.jpg,Red_Star_Grid_2.jpg,right,712.6899999857415,true,high,false
yhSALUfp,3r6rzgk0yip7nifkjif6ljfzh9ayv2,3ioen3p9sbwr56naxn5rkoki7rj61r,yhSALUfp,2020-0188,2020-11-21,13:32:59,13:52:01,NA,incomplete,126,number,1,left,Red_Plus_Dots_4.jpg,Green_Triangle_Grid_4.jpg,Red_Star_Stripes_3.jpg,left,1000.514999992447,true,high,false
yhSALUfp,3r6rzgk0yip7nifkjif6ljfzh9ayv2,3ioen3p9sbwr56naxn5rkoki7rj61r,yhSALUfp,2020-0188,2020-11-21,13:32:59,13:52:01,NA,incomplete,127,number,1,left,Red_Plus_Chess_4.jpg,Purple_Triangle_Dots_4.jpg,Red_Circle_Stripes_3.jpg,left,775.8000000030734,true,high,false
yhSALUfp,3r6rzgk0yip7nifkjif6ljfzh9ayv2,3ioen3p9sbwr56naxn5rkoki7rj61r,yhSALUfp,2020-0188,2020-11-21,13:32:59,13:52:01,NA,incomplete,128,number,0,right,Red_Plus_Dots_3.jpg,Red_Star_Chess_2.jpg,Blue_Triangle_Grid_3.jpg,right,559.0550000197254,true,high,false
yhSALUfp,3r6rzgk0yip7nifkjif6ljfzh9ayv2,3ioen3p9sbwr56naxn5rkoki7rj61r,yhSALUfp,2020-0188,2020-11-21,13:32:59,13:52:01,NA,incomplete,129,number,1,left,Purple_Star_Dots_1.jpg,Green_Plus_Grid_1.jpg,Purple_Triangle_Chess_2.jpg,left,671.795000002021,true,high,false
yhSALUfp,3r6rzgk0yip7nifkjif6ljfzh9ayv2,3ioen3p9sbwr56naxn5rkoki7rj61r,yhSALUfp,2020-0188,2020-11-21,13:32:59,13:52:01,NA,incomplete,130,number,0,right,Blue_Plus_Dots_4.jpg,Blue_Circle_Chess_3.jpg,Red_Star_Stripes_4.jpg,right,655.1599999947939,true,high,false
yhSALUfp,3r6rzgk0yip7nifkjif6ljfzh9ayv2,3ioen3p9sbwr56naxn5rkoki7rj61r,yhSALUfp,2020-0188,2020-11-21,13:32:59,13:52:01,NA,incomplete,131,number,1,right,Green_Circle_Dots_1.jpg,Green_Triangle_Grid_2.jpg,Purple_Star_Stripes_1.jpg,right,642.809999990277,true,high,false
yhSALUfp,3r6rzgk0yip7nifkjif6ljfzh9ayv2,3ioen3p9sbwr56naxn5rkoki7rj61r,yhSALUfp,2020-0188,2020-11-21,13:32:59,13:52:01,NA,incomplete,132,number,1,right,Green_Plus_Grid_3.jpg,Green_Circle_Dots_4.jpg,Red_Triangle_Stripes_3.jpg,right,609.3650000111666,true,high,false
yhSALUfp,3r6rzgk0yip7nifkjif6ljfzh9ayv2,3ioen3p9sbwr56naxn5rkoki7rj61r,yhSALUfp,2020-0188,2020-11-21,13:32:59,13:52:01,NA,incomplete,133,number,1,left,Red_Plus_Stripes_1.jpg,Green_Triangle_Dots_1.jpg,Red_Circle_Chess_2.jpg,left,1009.2149999982212,true,high,false
yhSALUfp,3r6rzgk0yip7nifkjif6ljfzh9ayv2,3ioen3p9sbwr56naxn5rkoki7rj61r,yhSALUfp,2020-0188,2020-11-21,13:32:59,13:52:01,NA,incomplete,134,number,1,right,Blue_Star_Dots_2.jpg,Blue_Triangle_Chess_4.jpg,Purple_Plus_Grid_2.jpg,right,509.76499999524094,true,high,false
yhSALUfp,3r6rzgk0yip7nifkjif6ljfzh9ayv2,3ioen3p9sbwr56naxn5rkoki7rj61r,yhSALUfp,2020-0188,2020-11-21,13:32:59,13:52:01,NA,incomplete,135,number,0,left,Green_Circle_Stripes_4.jpg,Purple_Star_Grid_4.jpg,Green_Plus_Dots_1.jpg,left,634.5449999789707,true,high,false
yhSALUfp,3r6rzgk0yip7nifkjif6ljfzh9ayv2,3ioen3p9sbwr56naxn5rkoki7rj61r,yhSALUfp,2020-0188,2020-11-21,13:32:59,13:52:01,NA,incomplete,136,number,1,right,Green_Star_Stripes_3.jpg,Green_Circle_Grid_4.jpg,Purple_Triangle_Chess_3.jpg,right,538.9650000142865,true,high,false
yhSALUfp,3r6rzgk0yip7nifkjif6ljfzh9ayv2,3ioen3p9sbwr56naxn5rkoki7rj61r,yhSALUfp,2020-0188,2020-11-21,13:32:59,13:52:01,NA,incomplete,137,number,1,left,Red_Circle_Grid_3.jpg,Blue_Star_Dots_3.jpg,Red_Triangle_Chess_1.jpg,left,555.8850000088569,true,high,false
yhSALUfp,3r6rzgk0yip7nifkjif6ljfzh9ayv2,3ioen3p9sbwr56naxn5rkoki7rj61r,yhSALUfp,2020-0188,2020-11-21,13:32:59,13:52:01,NA,incomplete,138,number,1,left,Red_Circle_Grid_4.jpg,Green_Triangle_Chess_4.jpg,Red_Star_Dots_2.jpg,left,655.5749999824911,true,high,false
yhSALUfp,3r6rzgk0yip7nifkjif6ljfzh9ayv2,3ioen3p9sbwr56naxn5rkoki7rj61r,yhSALUfp,2020-0188,2020-11-21,13:32:59,13:52:01,NA,incomplete,139,number,1,left,Red_Star_Chess_2.jpg,Green_Circle_Dots_2.jpg,Red_Plus_Stripes_3.jpg,left,618.4350000112318,true,high,false
yhSALUfp,3r6rzgk0yip7nifkjif6ljfzh9ayv2,3ioen3p9sbwr56naxn5rkoki7rj61r,yhSALUfp,2020-0188,2020-11-21,13:32:59,13:52:01,NA,incomplete,140,color,1,right,Red_Star_Chess_1.jpg,Blue_Triangle_Stripes_1.jpg,Red_Circle_Grid_3.jpg,left,926.804999995511,false,high,false
yhSALUfp,3r6rzgk0yip7nifkjif6ljfzh9ayv2,3ioen3p9sbwr56naxn5rkoki7rj61r,yhSALUfp,2020-0188,2020-11-21,13:32:59,13:52:01,NA,incomplete,141,color,1,left,Red_Triangle_Grid_1.jpg,Red_Plus_Chess_2.jpg,Blue_Star_Dots_1.jpg,right,497.6349999778904,false,high,false
yhSALUfp,3r6rzgk0yip7nifkjif6ljfzh9ayv2,3ioen3p9sbwr56naxn5rkoki7rj61r,yhSALUfp,2020-0188,2020-11-21,13:32:59,13:52:01,NA,incomplete,142,color,1,right,Green_Circle_Dots_4.jpg,Purple_Plus_Chess_4.jpg,Green_Triangle_Grid_2.jpg,right,539.4549999909941,true,high,false
yhSALUfp,3r6rzgk0yip7nifkjif6ljfzh9ayv2,3ioen3p9sbwr56naxn5rkoki7rj61r,yhSALUfp,2020-0188,2020-11-21,13:32:59,13:52:01,NA,incomplete,143,color,0,right,Red_Triangle_Dots_1.jpg,Blue_Plus_Chess_1.jpg,Red_Circle_Stripes_2.jpg,right,506.11999997636303,true,high,false
yhSALUfp,3r6rzgk0yip7nifkjif6ljfzh9ayv2,3ioen3p9sbwr56naxn5rkoki7rj61r,yhSALUfp,2020-0188,2020-11-21,13:32:59,13:52:01,NA,incomplete,144,color,1,right,Blue_Triangle_Stripes_2.jpg,Red_Star_Chess_2.jpg,Blue_Plus_Dots_4.jpg,right,506.33500001276843,true,high,false
yhSALUfp,3r6rzgk0yip7nifkjif6ljfzh9ayv2,3ioen3p9sbwr56naxn5rkoki7rj61r,yhSALUfp,2020-0188,2020-11-21,13:32:59,13:52:01,NA,incomplete,145,color,1,left,Red_Circle_Stripes_4.jpg,Red_Plus_Grid_1.jpg,Green_Star_Dots_4.jpg,left,443.6449999921024,true,high,false
yhSALUfp,3r6rzgk0yip7nifkjif6ljfzh9ayv2,3ioen3p9sbwr56naxn5rkoki7rj61r,yhSALUfp,2020-0188,2020-11-21,13:32:59,13:52:01,NA,incomplete,146,color,1,right,Red_Triangle_Stripes_1.jpg,Green_Plus_Dots_1.jpg,Red_Star_Grid_4.jpg,right,448.0000000039581,true,high,false
yhSALUfp,3r6rzgk0yip7nifkjif6ljfzh9ayv2,3ioen3p9sbwr56naxn5rkoki7rj61r,yhSALUfp,2020-0188,2020-11-21,13:32:59,13:52:01,NA,incomplete,147,color,0,left,Red_Triangle_Grid_2.jpg,Red_Plus_Stripes_3.jpg,Purple_Star_Dots_2.jpg,left,414.8750000167638,true,high,false
yhSALUfp,3r6rzgk0yip7nifkjif6ljfzh9ayv2,3ioen3p9sbwr56naxn5rkoki7rj61r,yhSALUfp,2020-0188,2020-11-21,13:32:59,13:52:01,NA,incomplete,148,color,1,right,Green_Plus_Dots_2.jpg,Blue_Star_Stripes_2.jpg,Green_Triangle_Grid_1.jpg,right,502.17999998130836,true,high,false
yhSALUfp,3r6rzgk0yip7nifkjif6ljfzh9ayv2,3ioen3p9sbwr56naxn5rkoki7rj61r,yhSALUfp,2020-0188,2020-11-21,13:32:59,13:52:01,NA,incomplete,149,color,1,left,Red_Plus_Grid_1.jpg,Red_Star_Chess_4.jpg,Green_Triangle_Dots_1.jpg,left,514.7700000088662,true,high,false
yhSALUfp,3r6rzgk0yip7nifkjif6ljfzh9ayv2,3ioen3p9sbwr56naxn5rkoki7rj61r,yhSALUfp,2020-0188,2020-11-21,13:32:59,13:52:01,NA,incomplete,150,color,1,left,Red_Star_Grid_2.jpg,Red_Plus_Stripes_3.jpg,Purple_Triangle_Chess_2.jpg,left,502.665000007255,true,high,false
yhSALUfp,3r6rzgk0yip7nifkjif6ljfzh9ayv2,3ioen3p9sbwr56naxn5rkoki7rj61r,yhSALUfp,2020-0188,2020-11-21,13:32:59,13:52:01,NA,incomplete,151,color,1,right,Purple_Plus_Stripes_2.jpg,Green_Star_Dots_2.jpg,Purple_Triangle_Chess_1.jpg,right,452.79999999911524,true,high,false
yhSALUfp,3r6rzgk0yip7nifkjif6ljfzh9ayv2,3ioen3p9sbwr56naxn5rkoki7rj61r,yhSALUfp,2020-0188,2020-11-21,13:32:59,13:52:01,NA,incomplete,152,color,1,right,Green_Plus_Chess_2.jpg,Purple_Circle_Stripes_2.jpg,Green_Triangle_Dots_4.jpg,right,615.2500000025611,true,high,false
yhSALUfp,3r6rzgk0yip7nifkjif6ljfzh9ayv2,3ioen3p9sbwr56naxn5rkoki7rj61r,yhSALUfp,2020-0188,2020-11-21,13:32:59,13:52:01,NA,incomplete,153,color,1,right,Green_Star_Grid_3.jpg,Blue_Triangle_Stripes_3.jpg,Green_Plus_Dots_2.jpg,right,415.3999999980442,true,high,false
yhSALUfp,3r6rzgk0yip7nifkjif6ljfzh9ayv2,3ioen3p9sbwr56naxn5rkoki7rj61r,yhSALUfp,2020-0188,2020-11-21,13:32:59,13:52:01,NA,incomplete,154,color,1,left,Green_Circle_Grid_4.jpg,Green_Star_Stripes_1.jpg,Blue_Plus_Dots_4.jpg,left,815.0150000001304,true,high,false
yhSALUfp,3r6rzgk0yip7nifkjif6ljfzh9ayv2,3ioen3p9sbwr56naxn5rkoki7rj61r,yhSALUfp,2020-0188,2020-11-21,13:32:59,13:52:01,NA,incomplete,155,color,1,right,Blue_Triangle_Grid_3.jpg,Purple_Circle_Chess_3.jpg,Blue_Star_Stripes_1.jpg,right,940.5649999971502,true,high,false
yhSALUfp,3r6rzgk0yip7nifkjif6ljfzh9ayv2,3ioen3p9sbwr56naxn5rkoki7rj61r,yhSALUfp,2020-0188,2020-11-21,13:32:59,13:52:01,NA,incomplete,156,color,1,left,Red_Triangle_Chess_1.jpg,Red_Star_Dots_3.jpg,Green_Plus_Grid_1.jpg,left,644.6649999998044,true,high,false
yhSALUfp,3r6rzgk0yip7nifkjif6ljfzh9ayv2,3ioen3p9sbwr56naxn5rkoki7rj61r,yhSALUfp,2020-0188,2020-11-21,13:32:59,13:52:01,NA,incomplete,157,color,1,right,Red_Triangle_Chess_4.jpg,Blue_Star_Grid_4.jpg,Red_Plus_Stripes_1.jpg,right,1011.3899999996647,true,high,false
yhSALUfp,3r6rzgk0yip7nifkjif6ljfzh9ayv2,3ioen3p9sbwr56naxn5rkoki7rj61r,yhSALUfp,2020-0188,2020-11-21,13:32:59,13:52:01,NA,incomplete,158,color,1,left,Blue_Triangle_Stripes_4.jpg,Blue_Circle_Dots_1.jpg,Red_Plus_Chess_4.jpg,left,886.4599999797065,true,high,false
yhSALUfp,3r6rzgk0yip7nifkjif6ljfzh9ayv2,3ioen3p9sbwr56naxn5rkoki7rj61r,yhSALUfp,2020-0188,2020-11-21,13:32:59,13:52:01,NA,incomplete,159,color,1,right,Green_Triangle_Chess_2.jpg,Red_Plus_Grid_2.jpg,Green_Circle_Dots_4.jpg,right,590.4549999977462,true,high,false
yhSALUfp,3r6rzgk0yip7nifkjif6ljfzh9ayv2,3ioen3p9sbwr56naxn5rkoki7rj61r,yhSALUfp,2020-0188,2020-11-21,13:32:59,13:52:01,NA,incomplete,160,number,1,right,Purple_Circle_Dots_2.jpg,Purple_Triangle_Chess_4.jpg,Blue_Plus_Stripes_2.jpg,left,645.0850000255741,false,high,false
yhSALUfp,3r6rzgk0yip7nifkjif6ljfzh9ayv2,3ioen3p9sbwr56naxn5rkoki7rj61r,yhSALUfp,2020-0188,2020-11-21,13:32:59,13:52:01,NA,incomplete,161,number,1,right,Blue_Circle_Grid_4.jpg,Blue_Plus_Stripes_1.jpg,Green_Triangle_Chess_4.jpg,left,1261.7900000186637,false,high,false
yhSALUfp,3r6rzgk0yip7nifkjif6ljfzh9ayv2,3ioen3p9sbwr56naxn5rkoki7rj61r,yhSALUfp,2020-0188,2020-11-21,13:32:59,13:52:01,NA,incomplete,162,number,0,left,Blue_Plus_Chess_2.jpg,Green_Circle_Grid_2.jpg,Blue_Star_Dots_4.jpg,left,986.8700000224635,true,high,false
yhSALUfp,3r6rzgk0yip7nifkjif6ljfzh9ayv2,3ioen3p9sbwr56naxn5rkoki7rj61r,yhSALUfp,2020-0188,2020-11-21,13:32:59,13:52:01,NA,incomplete,163,number,1,right,Red_Triangle_Grid_3.jpg,Red_Plus_Stripes_2.jpg,Green_Star_Dots_3.jpg,right,878.484999993816,true,high,false
yhSALUfp,3r6rzgk0yip7nifkjif6ljfzh9ayv2,3ioen3p9sbwr56naxn5rkoki7rj61r,yhSALUfp,2020-0188,2020-11-21,13:32:59,13:52:01,NA,incomplete,164,number,1,right,Red_Plus_Stripes_1.jpg,Red_Star_Grid_4.jpg,Blue_Triangle_Chess_1.jpg,left,1149.7849999868777,false,high,false
yhSALUfp,3r6rzgk0yip7nifkjif6ljfzh9ayv2,3ioen3p9sbwr56naxn5rkoki7rj61r,yhSALUfp,2020-0188,2020-11-21,13:32:59,13:52:01,NA,incomplete,165,number,1,right,Blue_Circle_Chess_2.jpg,Blue_Plus_Dots_1.jpg,Purple_Triangle_Grid_2.jpg,right,1016.3299999840092,true,high,false
yhSALUfp,3r6rzgk0yip7nifkjif6ljfzh9ayv2,3ioen3p9sbwr56naxn5rkoki7rj61r,yhSALUfp,2020-0188,2020-11-21,13:32:59,13:52:01,NA,incomplete,166,number,1,right,Red_Circle_Stripes_2.jpg,Red_Star_Dots_3.jpg,Blue_Plus_Chess_2.jpg,right,1228.6350000067614,true,high,false
yhSALUfp,3r6rzgk0yip7nifkjif6ljfzh9ayv2,3ioen3p9sbwr56naxn5rkoki7rj61r,yhSALUfp,2020-0188,2020-11-21,13:32:59,13:52:01,NA,incomplete,167,number,1,left,Purple_Plus_Dots_4.jpg,Red_Circle_Chess_4.jpg,Purple_Star_Stripes_2.jpg,left,674.8150000057649,true,high,false
yhSALUfp,3r6rzgk0yip7nifkjif6ljfzh9ayv2,3ioen3p9sbwr56naxn5rkoki7rj61r,yhSALUfp,2020-0188,2020-11-21,13:32:59,13:52:01,NA,incomplete,168,number,0,right,Purple_Circle_Grid_4.jpg,Purple_Plus_Stripes_1.jpg,Blue_Star_Dots_4.jpg,right,508.2249999977648,true,high,false
yhSALUfp,3r6rzgk0yip7nifkjif6ljfzh9ayv2,3ioen3p9sbwr56naxn5rkoki7rj61r,yhSALUfp,2020-0188,2020-11-21,13:32:59,13:52:01,NA,incomplete,169,number,1,right,Green_Triangle_Chess_3.jpg,Green_Plus_Stripes_1.jpg,Purple_Circle_Dots_3.jpg,right,445.9950000164099,true,high,false
yhSALUfp,3r6rzgk0yip7nifkjif6ljfzh9ayv2,3ioen3p9sbwr56naxn5rkoki7rj61r,yhSALUfp,2020-0188,2020-11-21,13:32:59,13:52:01,NA,incomplete,170,number,1,right,Purple_Plus_Grid_3.jpg,Purple_Circle_Chess_2.jpg,Green_Star_Dots_3.jpg,right,462.5149999919813,true,high,false
yhSALUfp,3r6rzgk0yip7nifkjif6ljfzh9ayv2,3ioen3p9sbwr56naxn5rkoki7rj61r,yhSALUfp,2020-0188,2020-11-21,13:32:59,13:52:01,NA,incomplete,171,number,0,left,Purple_Triangle_Grid_4.jpg,Blue_Star_Stripes_4.jpg,Purple_Plus_Chess_1.jpg,left,449.95000000926666,true,high,false
yhSALUfp,3r6rzgk0yip7nifkjif6ljfzh9ayv2,3ioen3p9sbwr56naxn5rkoki7rj61r,yhSALUfp,2020-0188,2020-11-21,13:32:59,13:52:01,NA,incomplete,172,number,1,left,Blue_Circle_Chess_4.jpg,Red_Plus_Dots_4.jpg,Blue_Star_Grid_3.jpg,left,354.55000001820736,true,high,false
yhSALUfp,3r6rzgk0yip7nifkjif6ljfzh9ayv2,3ioen3p9sbwr56naxn5rkoki7rj61r,yhSALUfp,2020-0188,2020-11-21,13:32:59,13:52:01,NA,incomplete,173,number,0,right,Green_Star_Chess_3.jpg,Green_Circle_Dots_1.jpg,Red_Plus_Grid_3.jpg,right,466.74000000348315,true,high,false
yhSALUfp,3r6rzgk0yip7nifkjif6ljfzh9ayv2,3ioen3p9sbwr56naxn5rkoki7rj61r,yhSALUfp,2020-0188,2020-11-21,13:32:59,13:52:01,NA,incomplete,174,number,1,right,Blue_Plus_Chess_4.jpg,Blue_Star_Grid_1.jpg,Red_Circle_Dots_4.jpg,right,412.57499999483116,true,high,false
yhSALUfp,3r6rzgk0yip7nifkjif6ljfzh9ayv2,3ioen3p9sbwr56naxn5rkoki7rj61r,yhSALUfp,2020-0188,2020-11-21,13:32:59,13:52:01,NA,incomplete,175,number,1,right,Red_Circle_Dots_3.jpg,Red_Star_Stripes_1.jpg,Green_Plus_Grid_3.jpg,right,950.1199999940582,true,high,false
yhSALUfp,3r6rzgk0yip7nifkjif6ljfzh9ayv2,3ioen3p9sbwr56naxn5rkoki7rj61r,yhSALUfp,2020-0188,2020-11-21,13:32:59,13:52:01,NA,incomplete,176,number,0,left,Red_Plus_Chess_3.jpg,Blue_Circle_Stripes_3.jpg,Red_Triangle_Dots_4.jpg,left,725.479999993695,true,high,false
yhSALUfp,3r6rzgk0yip7nifkjif6ljfzh9ayv2,3ioen3p9sbwr56naxn5rkoki7rj61r,yhSALUfp,2020-0188,2020-11-21,13:32:59,13:52:01,NA,incomplete,177,number,1,left,Blue_Circle_Chess_1.jpg,Purple_Star_Stripes_1.jpg,Blue_Triangle_Grid_2.jpg,left,733.7349999870639,true,high,false
yhSALUfp,3r6rzgk0yip7nifkjif6ljfzh9ayv2,3ioen3p9sbwr56naxn5rkoki7rj61r,yhSALUfp,2020-0188,2020-11-21,13:32:59,13:52:01,NA,incomplete,178,number,0,left,Blue_Triangle_Grid_2.jpg,Purple_Circle_Chess_2.jpg,Blue_Plus_Dots_4.jpg,left,1050.409999996191,true,high,false
yhSALUfp,3r6rzgk0yip7nifkjif6ljfzh9ayv2,3ioen3p9sbwr56naxn5rkoki7rj61r,yhSALUfp,2020-0188,2020-11-21,13:32:59,13:52:01,NA,incomplete,179,number,1,right,Purple_Plus_Stripes_2.jpg,Purple_Star_Chess_3.jpg,Red_Triangle_Grid_2.jpg,right,613.2750000106171,true,high,false
yhSALUfp,3r6rzgk0yip7nifkjif6ljfzh9ayv2,3ioen3p9sbwr56naxn5rkoki7rj61r,yhSALUfp,2020-0188,2020-11-21,13:32:59,13:52:01,NA,incomplete,180,color,1,right,Blue_Triangle_Chess_1.jpg,Red_Circle_Grid_1.jpg,Blue_Plus_Stripes_4.jpg,left,688.3349999843631,false,high,false
yhSALUfp,3r6rzgk0yip7nifkjif6ljfzh9ayv2,3ioen3p9sbwr56naxn5rkoki7rj61r,yhSALUfp,2020-0188,2020-11-21,13:32:59,13:52:01,NA,incomplete,181,color,1,right,Blue_Plus_Dots_1.jpg,Purple_Star_Grid_1.jpg,Blue_Circle_Stripes_2.jpg,right,829.9849999893922,true,high,false
yhSALUfp,3r6rzgk0yip7nifkjif6ljfzh9ayv2,3ioen3p9sbwr56naxn5rkoki7rj61r,yhSALUfp,2020-0188,2020-11-21,13:32:59,13:52:01,NA,incomplete,182,color,0,right,Purple_Plus_Grid_3.jpg,Green_Triangle_Stripes_3.jpg,Purple_Circle_Chess_4.jpg,right,451.06499997200444,true,high,false
yhSALUfp,3r6rzgk0yip7nifkjif6ljfzh9ayv2,3ioen3p9sbwr56naxn5rkoki7rj61r,yhSALUfp,2020-0188,2020-11-21,13:32:59,13:52:01,NA,incomplete,183,color,1,left,Purple_Star_Stripes_1.jpg,Purple_Circle_Chess_4.jpg,Red_Triangle_Grid_1.jpg,left,463.52000001934357,true,high,false
yhSALUfp,3r6rzgk0yip7nifkjif6ljfzh9ayv2,3ioen3p9sbwr56naxn5rkoki7rj61r,yhSALUfp,2020-0188,2020-11-21,13:32:59,13:52:01,NA,incomplete,184,color,1,left,Purple_Triangle_Grid_3.jpg,Purple_Plus_Chess_2.jpg,Green_Circle_Stripes_3.jpg,left,663.4250000061002,true,high,false
yhSALUfp,3r6rzgk0yip7nifkjif6ljfzh9ayv2,3ioen3p9sbwr56naxn5rkoki7rj61r,yhSALUfp,2020-0188,2020-11-21,13:32:59,13:52:01,NA,incomplete,185,color,0,left,Purple_Star_Stripes_1.jpg,Purple_Plus_Grid_2.jpg,Blue_Triangle_Dots_1.jpg,left,526.36999997776,true,high,false
yhSALUfp,3r6rzgk0yip7nifkjif6ljfzh9ayv2,3ioen3p9sbwr56naxn5rkoki7rj61r,yhSALUfp,2020-0188,2020-11-21,13:32:59,13:52:01,NA,incomplete,186,color,1,left,Purple_Triangle_Stripes_2.jpg,Purple_Star_Chess_4.jpg,Red_Plus_Grid_2.jpg,left,459.59499999298714,true,high,false
yhSALUfp,3r6rzgk0yip7nifkjif6ljfzh9ayv2,3ioen3p9sbwr56naxn5rkoki7rj61r,yhSALUfp,2020-0188,2020-11-21,13:32:59,13:52:01,NA,incomplete,187,color,1,left,Red_Star_Chess_2.jpg,Red_Plus_Dots_3.jpg,Blue_Triangle_Stripes_2.jpg,left,1409.7250000049826,true,high,false
yhSALUfp,3r6rzgk0yip7nifkjif6ljfzh9ayv2,3ioen3p9sbwr56naxn5rkoki7rj61r,yhSALUfp,2020-0188,2020-11-21,13:32:59,13:52:01,NA,incomplete,188,color,1,right,Blue_Circle_Chess_3.jpg,Red_Triangle_Stripes_3.jpg,Blue_Plus_Dots_1.jpg,right,647.3400000249967,true,high,false
yhSALUfp,3r6rzgk0yip7nifkjif6ljfzh9ayv2,3ioen3p9sbwr56naxn5rkoki7rj61r,yhSALUfp,2020-0188,2020-11-21,13:32:59,13:52:01,NA,incomplete,189,color,1,left,Green_Plus_Stripes_1.jpg,Green_Circle_Dots_2.jpg,Purple_Triangle_Grid_1.jpg,left,989.3600000068545,true,high,false
yhSALUfp,3r6rzgk0yip7nifkjif6ljfzh9ayv2,3ioen3p9sbwr56naxn5rkoki7rj61r,yhSALUfp,2020-0188,2020-11-21,13:32:59,13:52:01,NA,incomplete,190,color,1,left,Purple_Circle_Stripes_2.jpg,Purple_Star_Grid_1.jpg,Red_Triangle_Dots_2.jpg,left,693.5749999829568,true,high,false
yhSALUfp,3r6rzgk0yip7nifkjif6ljfzh9ayv2,3ioen3p9sbwr56naxn5rkoki7rj61r,yhSALUfp,2020-0188,2020-11-21,13:32:59,13:52:01,NA,incomplete,191,color,0,right,Green_Triangle_Stripes_3.jpg,Red_Star_Chess_3.jpg,Green_Plus_Grid_2.jpg,right,772.8000000061002,true,high,false
yhSALUfp,3r6rzgk0yip7nifkjif6ljfzh9ayv2,3ioen3p9sbwr56naxn5rkoki7rj61r,yhSALUfp,2020-0188,2020-11-21,13:32:59,13:52:01,NA,incomplete,192,color,1,right,Red_Plus_Chess_2.jpg,Blue_Triangle_Grid_2.jpg,Red_Star_Dots_3.jpg,right,818.3500000159256,true,high,false
yhSALUfp,3r6rzgk0yip7nifkjif6ljfzh9ayv2,3ioen3p9sbwr56naxn5rkoki7rj61r,yhSALUfp,2020-0188,2020-11-21,13:32:59,13:52:01,NA,incomplete,193,color,0,left,Red_Star_Grid_1.jpg,Red_Triangle_Dots_3.jpg,Purple_Circle_Chess_1.jpg,left,564.4399999873713,true,high,false
yhSALUfp,3r6rzgk0yip7nifkjif6ljfzh9ayv2,3ioen3p9sbwr56naxn5rkoki7rj61r,yhSALUfp,2020-0188,2020-11-21,13:32:59,13:52:01,NA,incomplete,194,color,1,left,Green_Circle_Grid_3.jpg,Green_Star_Stripes_4.jpg,Purple_Plus_Chess_3.jpg,left,639.4349999900442,true,high,false
yhSALUfp,3r6rzgk0yip7nifkjif6ljfzh9ayv2,3ioen3p9sbwr56naxn5rkoki7rj61r,yhSALUfp,2020-0188,2020-11-21,13:32:59,13:52:01,NA,incomplete,195,color,1,left,Red_Star_Chess_4.jpg,Red_Triangle_Dots_2.jpg,Purple_Plus_Grid_4.jpg,left,581.449999997858,true,high,false
yhSALUfp,3r6rzgk0yip7nifkjif6ljfzh9ayv2,3ioen3p9sbwr56naxn5rkoki7rj61r,yhSALUfp,2020-0188,2020-11-21,13:32:59,13:52:01,NA,incomplete,196,color,1,right,Red_Plus_Dots_2.jpg,Blue_Circle_Grid_2.jpg,Red_Star_Stripes_3.jpg,right,477.1750000072643,true,high,false
yhSALUfp,3r6rzgk0yip7nifkjif6ljfzh9ayv2,3ioen3p9sbwr56naxn5rkoki7rj61r,yhSALUfp,2020-0188,2020-11-21,13:32:59,13:52:01,NA,incomplete,197,color,1,left,Green_Triangle_Stripes_4.jpg,Green_Star_Dots_1.jpg,Red_Circle_Grid_4.jpg,left,1123.0050000012852,true,high,false
yhSALUfp,3r6rzgk0yip7nifkjif6ljfzh9ayv2,3ioen3p9sbwr56naxn5rkoki7rj61r,yhSALUfp,2020-0188,2020-11-21,13:32:59,13:52:01,NA,incomplete,198,color,0,left,Green_Star_Dots_2.jpg,Green_Circle_Grid_3.jpg,Blue_Plus_Chess_2.jpg,left,743.8149999943562,true,high,false
yhSALUfp,3r6rzgk0yip7nifkjif6ljfzh9ayv2,3ioen3p9sbwr56naxn5rkoki7rj61r,yhSALUfp,2020-0188,2020-11-21,13:32:59,13:52:01,NA,incomplete,199,color,1,right,Purple_Star_Stripes_3.jpg,Red_Triangle_Chess_3.jpg,Purple_Circle_Dots_2.jpg,none,0,false,high,false
yhSALUfp,3r6rzgk0yip7nifkjif6ljfzh9ayv2,3ioen3p9sbwr56naxn5rkoki7rj61r,yhSALUfp,2020-0188,2020-11-21,13:32:59,13:52:01,NA,incomplete,200,number,1,left,Red_Star_Dots_2.jpg,Blue_Circle_Chess_2.jpg,Red_Triangle_Grid_1.jpg,right,931.7750000045635,false,high,false
yhSALUfp,3r6rzgk0yip7nifkjif6ljfzh9ayv2,3ioen3p9sbwr56naxn5rkoki7rj61r,yhSALUfp,2020-0188,2020-11-21,13:32:59,13:52:01,NA,incomplete,201,number,1,left,Red_Circle_Stripes_3.jpg,Blue_Star_Chess_3.jpg,Red_Triangle_Grid_1.jpg,right,502.69500000285916,false,high,false
yhSALUfp,3r6rzgk0yip7nifkjif6ljfzh9ayv2,3ioen3p9sbwr56naxn5rkoki7rj61r,yhSALUfp,2020-0188,2020-11-21,13:32:59,13:52:01,NA,incomplete,202,number,1,left,Green_Circle_Dots_4.jpg,Red_Triangle_Grid_4.jpg,Green_Plus_Stripes_1.jpg,right,765.2750000124797,false,high,false
yhSALUfp,3r6rzgk0yip7nifkjif6ljfzh9ayv2,3ioen3p9sbwr56naxn5rkoki7rj61r,yhSALUfp,2020-0188,2020-11-21,13:32:59,13:52:01,NA,incomplete,203,number,1,right,Blue_Star_Chess_4.jpg,Blue_Triangle_Dots_3.jpg,Red_Circle_Grid_4.jpg,right,552.7099999890197,true,high,false
yhSALUfp,3r6rzgk0yip7nifkjif6ljfzh9ayv2,3ioen3p9sbwr56naxn5rkoki7rj61r,yhSALUfp,2020-0188,2020-11-21,13:32:59,13:52:01,NA,incomplete,204,number,0,left,Blue_Plus_Stripes_3.jpg,Red_Triangle_Chess_3.jpg,Blue_Circle_Grid_1.jpg,left,602.9249999846797,true,high,false
yhSALUfp,3r6rzgk0yip7nifkjif6ljfzh9ayv2,3ioen3p9sbwr56naxn5rkoki7rj61r,yhSALUfp,2020-0188,2020-11-21,13:32:59,13:52:01,NA,incomplete,205,number,1,left,Red_Star_Stripes_2.jpg,Green_Circle_Dots_2.jpg,Red_Triangle_Grid_4.jpg,left,628.100000001723,true,high,false
yhSALUfp,3r6rzgk0yip7nifkjif6ljfzh9ayv2,3ioen3p9sbwr56naxn5rkoki7rj61r,yhSALUfp,2020-0188,2020-11-21,13:32:59,13:52:01,NA,incomplete,206,number,1,left,Blue_Triangle_Dots_3.jpg,Red_Plus_Chess_3.jpg,Blue_Circle_Stripes_4.jpg,right,486.08500001137145,false,high,false
yhSALUfp,3r6rzgk0yip7nifkjif6ljfzh9ayv2,3ioen3p9sbwr56naxn5rkoki7rj61r,yhSALUfp,2020-0188,2020-11-21,13:32:59,13:52:01,NA,incomplete,207,number,1,left,Blue_Triangle_Chess_1.jpg,Purple_Star_Dots_1.jpg,Blue_Plus_Grid_3.jpg,left,740.6949999858625,true,high,false
yhSALUfp,3r6rzgk0yip7nifkjif6ljfzh9ayv2,3ioen3p9sbwr56naxn5rkoki7rj61r,yhSALUfp,2020-0188,2020-11-21,13:32:59,13:52:01,NA,incomplete,208,number,1,right,Green_Triangle_Chess_3.jpg,Green_Star_Stripes_4.jpg,Blue_Plus_Dots_3.jpg,right,769.7800000023562,true,high,false
yhSALUfp,3r6rzgk0yip7nifkjif6ljfzh9ayv2,3ioen3p9sbwr56naxn5rkoki7rj61r,yhSALUfp,2020-0188,2020-11-21,13:32:59,13:52:01,NA,incomplete,209,number,0,left,Blue_Star_Stripes_1.jpg,Green_Triangle_Dots_1.jpg,Blue_Plus_Grid_2.jpg,left,753.6199999740347,true,high,false
yhSALUfp,3r6rzgk0yip7nifkjif6ljfzh9ayv2,3ioen3p9sbwr56naxn5rkoki7rj61r,yhSALUfp,2020-0188,2020-11-21,13:32:59,13:52:01,NA,incomplete,210,number,1,left,Red_Star_Dots_3.jpg,Blue_Circle_Stripes_3.jpg,Red_Plus_Grid_4.jpg,left,553.1450000125915,true,high,false
yhSALUfp,3r6rzgk0yip7nifkjif6ljfzh9ayv2,3ioen3p9sbwr56naxn5rkoki7rj61r,yhSALUfp,2020-0188,2020-11-21,13:32:59,13:52:01,NA,incomplete,211,number,1,left,Red_Plus_Chess_1.jpg,Blue_Triangle_Grid_1.jpg,Red_Circle_Stripes_2.jpg,left,891.1849999858532,true,high,false
yhSALUfp,3r6rzgk0yip7nifkjif6ljfzh9ayv2,3ioen3p9sbwr56naxn5rkoki7rj61r,yhSALUfp,2020-0188,2020-11-21,13:32:59,13:52:01,NA,incomplete,212,number,1,left,Blue_Circle_Dots_1.jpg,Red_Triangle_Chess_1.jpg,Blue_Plus_Grid_4.jpg,left,657.695000001695,true,high,false
yhSALUfp,3r6rzgk0yip7nifkjif6ljfzh9ayv2,3ioen3p9sbwr56naxn5rkoki7rj61r,yhSALUfp,2020-0188,2020-11-21,13:32:59,13:52:01,NA,incomplete,213,number,0,right,Blue_Triangle_Chess_1.jpg,Blue_Star_Dots_2.jpg,Purple_Plus_Grid_1.jpg,left,345.26499998173676,false,high,false
yhSALUfp,3r6rzgk0yip7nifkjif6ljfzh9ayv2,3ioen3p9sbwr56naxn5rkoki7rj61r,yhSALUfp,2020-0188,2020-11-21,13:32:59,13:52:01,NA,incomplete,214,number,1,right,Blue_Plus_Stripes_2.jpg,Blue_Triangle_Chess_3.jpg,Green_Star_Dots_2.jpg,left,587.2150000068359,false,high,false
yhSALUfp,3r6rzgk0yip7nifkjif6ljfzh9ayv2,3ioen3p9sbwr56naxn5rkoki7rj61r,yhSALUfp,2020-0188,2020-11-21,13:32:59,13:52:01,NA,incomplete,215,number,1,left,Red_Triangle_Chess_1.jpg,Green_Star_Dots_1.jpg,Red_Plus_Stripes_4.jpg,left,815.9549999982119,true,high,false
yhSALUfp,3r6rzgk0yip7nifkjif6ljfzh9ayv2,3ioen3p9sbwr56naxn5rkoki7rj61r,yhSALUfp,2020-0188,2020-11-21,13:32:59,13:52:01,NA,incomplete,216,number,0,left,Blue_Circle_Dots_1.jpg,Purple_Star_Chess_1.jpg,Blue_Plus_Stripes_4.jpg,left,391.3349999929778,true,high,false
yhSALUfp,3r6rzgk0yip7nifkjif6ljfzh9ayv2,3ioen3p9sbwr56naxn5rkoki7rj61r,yhSALUfp,2020-0188,2020-11-21,13:32:59,13:52:01,NA,incomplete,217,number,1,left,Purple_Circle_Dots_2.jpg,Green_Star_Grid_2.jpg,Purple_Triangle_Chess_4.jpg,left,508.05999999283813,true,high,false
yhSALUfp,3r6rzgk0yip7nifkjif6ljfzh9ayv2,3ioen3p9sbwr56naxn5rkoki7rj61r,yhSALUfp,2020-0188,2020-11-21,13:32:59,13:52:01,NA,incomplete,218,number,1,right,Blue_Circle_Stripes_1.jpg,Blue_Plus_Grid_4.jpg,Purple_Star_Dots_1.jpg,left,445.99000000744127,false,high,false
yhSALUfp,3r6rzgk0yip7nifkjif6ljfzh9ayv2,3ioen3p9sbwr56naxn5rkoki7rj61r,yhSALUfp,2020-0188,2020-11-21,13:32:59,13:52:01,NA,incomplete,219,number,0,left,Blue_Plus_Stripes_3.jpg,Red_Triangle_Grid_3.jpg,Blue_Circle_Dots_1.jpg,left,612.3950000037439,true,high,false
yhSALUfp,3r6rzgk0yip7nifkjif6ljfzh9ayv2,3ioen3p9sbwr56naxn5rkoki7rj61r,yhSALUfp,2020-0188,2020-11-21,13:32:59,13:52:01,NA,incomplete,220,color,1,right,Blue_Plus_Dots_2.jpg,Red_Triangle_Stripes_2.jpg,Blue_Circle_Grid_1.jpg,left,487.54999999073334,false,high,false
yhSALUfp,3r6rzgk0yip7nifkjif6ljfzh9ayv2,3ioen3p9sbwr56naxn5rkoki7rj61r,yhSALUfp,2020-0188,2020-11-21,13:32:59,13:52:01,NA,incomplete,221,color,1,left,Red_Triangle_Chess_1.jpg,Red_Plus_Dots_2.jpg,Blue_Star_Stripes_1.jpg,left,566.690000006929,true,high,false
yhSALUfp,3r6rzgk0yip7nifkjif6ljfzh9ayv2,3ioen3p9sbwr56naxn5rkoki7rj61r,yhSALUfp,2020-0188,2020-11-21,13:32:59,13:52:01,NA,incomplete,222,color,1,right,Red_Triangle_Grid_1.jpg,Green_Plus_Stripes_1.jpg,Red_Circle_Dots_3.jpg,left,429.2750000022352,false,high,false
yhSALUfp,3r6rzgk0yip7nifkjif6ljfzh9ayv2,3ioen3p9sbwr56naxn5rkoki7rj61r,yhSALUfp,2020-0188,2020-11-21,13:32:59,13:52:01,NA,incomplete,223,color,1,left,Purple_Plus_Dots_3.jpg,Purple_Triangle_Grid_1.jpg,Green_Star_Chess_3.jpg,left,800.0999999931082,true,high,false
yhSALUfp,3r6rzgk0yip7nifkjif6ljfzh9ayv2,3ioen3p9sbwr56naxn5rkoki7rj61r,yhSALUfp,2020-0188,2020-11-21,13:32:59,13:52:01,NA,incomplete,224,color,1,right,Red_Triangle_Chess_4.jpg,Purple_Plus_Stripes_4.jpg,Red_Circle_Grid_2.jpg,left,1212.6599999901373,false,high,false
yhSALUfp,3r6rzgk0yip7nifkjif6ljfzh9ayv2,3ioen3p9sbwr56naxn5rkoki7rj61r,yhSALUfp,2020-0188,2020-11-21,13:32:59,13:52:01,NA,incomplete,225,color,1,left,Blue_Star_Stripes_1.jpg,Blue_Plus_Grid_4.jpg,Green_Circle_Dots_1.jpg,left,525.5850000248756,true,high,false
yhSALUfp,3r6rzgk0yip7nifkjif6ljfzh9ayv2,3ioen3p9sbwr56naxn5rkoki7rj61r,yhSALUfp,2020-0188,2020-11-21,13:32:59,13:52:01,NA,incomplete,226,color,1,right,Blue_Circle_Chess_1.jpg,Green_Plus_Grid_1.jpg,Blue_Star_Stripes_3.jpg,left,746.3899999856949,false,high,false
yhSALUfp,3r6rzgk0yip7nifkjif6ljfzh9ayv2,3ioen3p9sbwr56naxn5rkoki7rj61r,yhSALUfp,2020-0188,2020-11-21,13:32:59,13:52:01,NA,incomplete,227,color,1,right,Green_Circle_Grid_1.jpg,Purple_Triangle_Stripes_1.jpg,Green_Plus_Dots_4.jpg,left,512.9350000061095,false,high,false
yhSALUfp,3r6rzgk0yip7nifkjif6ljfzh9ayv2,3ioen3p9sbwr56naxn5rkoki7rj61r,yhSALUfp,2020-0188,2020-11-21,13:32:59,13:52:01,NA,incomplete,228,color,1,left,Purple_Plus_Dots_2.jpg,Purple_Star_Grid_4.jpg,Blue_Circle_Chess_2.jpg,left,563.1449999928009,true,high,false
yhSALUfp,3r6rzgk0yip7nifkjif6ljfzh9ayv2,3ioen3p9sbwr56naxn5rkoki7rj61r,yhSALUfp,2020-0188,2020-11-21,13:32:59,13:52:01,NA,incomplete,229,color,1,right,Green_Plus_Chess_1.jpg,Blue_Triangle_Dots_1.jpg,Green_Circle_Stripes_4.jpg,right,401.00000001257285,true,high,false
yhSALUfp,3r6rzgk0yip7nifkjif6ljfzh9ayv2,3ioen3p9sbwr56naxn5rkoki7rj61r,yhSALUfp,2020-0188,2020-11-21,13:32:59,13:52:01,NA,incomplete,230,color,0,right,Blue_Star_Chess_1.jpg,Purple_Triangle_Stripes_1.jpg,Blue_Circle_Grid_3.jpg,right,600.5449999938719,true,high,false
yhSALUfp,3r6rzgk0yip7nifkjif6ljfzh9ayv2,3ioen3p9sbwr56naxn5rkoki7rj61r,yhSALUfp,2020-0188,2020-11-21,13:32:59,13:52:01,NA,incomplete,231,color,1,right,Blue_Plus_Stripes_2.jpg,Green_Circle_Grid_2.jpg,Blue_Triangle_Dots_1.jpg,right,550.9750000201166,true,high,false
yhSALUfp,3r6rzgk0yip7nifkjif6ljfzh9ayv2,3ioen3p9sbwr56naxn5rkoki7rj61r,yhSALUfp,2020-0188,2020-11-21,13:32:59,13:52:01,NA,incomplete,232,color,1,left,Blue_Circle_Stripes_3.jpg,Blue_Plus_Grid_2.jpg,Red_Star_Dots_3.jpg,left,638.5449999943376,true,high,false
yhSALUfp,3r6rzgk0yip7nifkjif6ljfzh9ayv2,3ioen3p9sbwr56naxn5rkoki7rj61r,yhSALUfp,2020-0188,2020-11-21,13:32:59,13:52:01,NA,incomplete,233,color,1,right,Purple_Star_Stripes_1.jpg,Green_Triangle_Chess_1.jpg,Purple_Plus_Dots_2.jpg,right,442.3699999751989,true,high,false
yhSALUfp,3r6rzgk0yip7nifkjif6ljfzh9ayv2,3ioen3p9sbwr56naxn5rkoki7rj61r,yhSALUfp,2020-0188,2020-11-21,13:32:59,13:52:01,NA,incomplete,234,color,1,left,Green_Plus_Grid_1.jpg,Green_Circle_Dots_2.jpg,Purple_Triangle_Stripes_1.jpg,left,709.6199999796227,true,high,false
yhSALUfp,3r6rzgk0yip7nifkjif6ljfzh9ayv2,3ioen3p9sbwr56naxn5rkoki7rj61r,yhSALUfp,2020-0188,2020-11-21,13:32:59,13:52:01,NA,incomplete,235,color,1,left,Blue_Triangle_Stripes_3.jpg,Blue_Plus_Chess_1.jpg,Purple_Star_Dots_3.jpg,left,434.3499999959022,true,high,false
yhSALUfp,3r6rzgk0yip7nifkjif6ljfzh9ayv2,3ioen3p9sbwr56naxn5rkoki7rj61r,yhSALUfp,2020-0188,2020-11-21,13:32:59,13:52:01,NA,incomplete,236,color,0,right,Blue_Star_Grid_3.jpg,Purple_Circle_Dots_3.jpg,Blue_Triangle_Stripes_1.jpg,right,626.0199999960605,true,high,false
yhSALUfp,3r6rzgk0yip7nifkjif6ljfzh9ayv2,3ioen3p9sbwr56naxn5rkoki7rj61r,yhSALUfp,2020-0188,2020-11-21,13:32:59,13:52:01,NA,incomplete,237,color,1,left,Red_Triangle_Dots_2.jpg,Red_Circle_Chess_1.jpg,Green_Star_Grid_2.jpg,left,447.2200000018347,true,high,false
yhSALUfp,3r6rzgk0yip7nifkjif6ljfzh9ayv2,3ioen3p9sbwr56naxn5rkoki7rj61r,yhSALUfp,2020-0188,2020-11-21,13:32:59,13:52:01,NA,incomplete,238,color,1,left,Purple_Star_Grid_4.jpg,Purple_Circle_Stripes_3.jpg,Red_Plus_Dots_4.jpg,left,601.5250000054948,true,high,false
yhSALUfp,3r6rzgk0yip7nifkjif6ljfzh9ayv2,3ioen3p9sbwr56naxn5rkoki7rj61r,yhSALUfp,2020-0188,2020-11-21,13:32:59,13:52:01,NA,incomplete,239,color,1,left,Green_Circle_Dots_1.jpg,Green_Plus_Chess_4.jpg,Red_Triangle_Grid_1.jpg,left,614.0899999882095,true,high,false
yhSALUfp,3r6rzgk0yip7nifkjif6ljfzh9ayv2,3ioen3p9sbwr56naxn5rkoki7rj61r,yhSALUfp,2020-0188,2020-11-21,13:32:59,13:52:01,1123234.769999981,1141369.4199999736,NA,NA,NA,NA,NA,NA,NA,NA,NA,NA,NA,undefined
