workerId,hitId,assignmentId,subject,studyid,exp_date,exp_start,exp_end,time_start,time_end,trial,type,reward_validity,answer,image_top,image_left,image_right,response,response_time,response_acc,volatility,age,race,gender,ethnicity,color,vision,neuro,practice
9RHfQKCv,3en4yvuovf59wipgxxflzhxwdchjxp,3j2uybxqqppryh2s141r6j170oj06y,9RHfQKCv,2020-0188,2020-05-08,09:56:45,10:11:31,NA,incomplete,0,shape,1,left,Blue_Circle_Dots_3.jpg,Green_Circle_Chess_1.jpg,Purple_Plus_Stripes_3.jpg,right,1007.054999936372,false,NA,NA,NA,NA,NA,NA,NA,NA,true
9RHfQKCv,3en4yvuovf59wipgxxflzhxwdchjxp,3j2uybxqqppryh2s141r6j170oj06y,9RHfQKCv,2020-0188,2020-05-08,09:56:45,10:11:31,NA,incomplete,1,shape,1,right,Blue_Triangle_Dots_2.jpg,Red_Plus_Grid_2.jpg,Purple_Triangle_Stripes_4.jpg,right,1067.4250000156462,true,NA,NA,NA,NA,NA,NA,NA,NA,true
9RHfQKCv,3en4yvuovf59wipgxxflzhxwdchjxp,3j2uybxqqppryh2s141r6j170oj06y,9RHfQKCv,2020-0188,2020-05-08,09:56:45,10:11:31,NA,incomplete,2,shape,1,left,Blue_Star_Stripes_1.jpg,Purple_Star_Grid_3.jpg,Red_Plus_Chess_1.jpg,left,852.4650000035763,true,NA,NA,NA,NA,NA,NA,NA,NA,true
9RHfQKCv,3en4yvuovf59wipgxxflzhxwdchjxp,3j2uybxqqppryh2s141r6j170oj06y,9RHfQKCv,2020-0188,2020-05-08,09:56:45,10:11:31,NA,incomplete,3,shape,1,left,Green_Circle_Stripes_1.jpg,Purple_Circle_Dots_4.jpg,Blue_Triangle_Chess_1.jpg,left,918.4350001160055,true,NA,NA,NA,NA,NA,NA,NA,NA,true
9RHfQKCv,3en4yvuovf59wipgxxflzhxwdchjxp,3j2uybxqqppryh2s141r6j170oj06y,9RHfQKCv,2020-0188,2020-05-08,09:56:45,10:11:31,NA,incomplete,4,shape,0,left,Blue_Plus_Stripes_1.jpg,Red_Plus_Dots_3.jpg,Green_Star_Chess_1.jpg,left,854.2850001249462,true,NA,NA,NA,NA,NA,NA,NA,NA,true
9RHfQKCv,3en4yvuovf59wipgxxflzhxwdchjxp,3j2uybxqqppryh2s141r6j170oj06y,9RHfQKCv,2020-0188,2020-05-08,09:56:45,10:11:31,NA,incomplete,5,shape,0,left,Green_Star_Chess_2.jpg,Purple_Star_Stripes_3.jpg,Blue_Triangle_Grid_2.jpg,left,944.0500000491738,true,NA,NA,NA,NA,NA,NA,NA,NA,true
9RHfQKCv,3en4yvuovf59wipgxxflzhxwdchjxp,3j2uybxqqppryh2s141r6j170oj06y,9RHfQKCv,2020-0188,2020-05-08,09:56:45,10:11:31,NA,incomplete,6,shape,1,left,Purple_Plus_Dots_2.jpg,Blue_Plus_Chess_3.jpg,Red_Circle_Stripes_2.jpg,left,926.9250000361353,true,NA,NA,NA,NA,NA,NA,NA,NA,true
9RHfQKCv,3en4yvuovf59wipgxxflzhxwdchjxp,3j2uybxqqppryh2s141r6j170oj06y,9RHfQKCv,2020-0188,2020-05-08,09:56:45,10:11:31,NA,incomplete,7,shape,1,right,Green_Circle_Chess_2.jpg,Purple_Triangle_Grid_2.jpg,Red_Circle_Stripes_3.jpg,right,774.4950000196695,true,NA,NA,NA,NA,NA,NA,NA,NA,true
9RHfQKCv,3en4yvuovf59wipgxxflzhxwdchjxp,3j2uybxqqppryh2s141r6j170oj06y,9RHfQKCv,2020-0188,2020-05-08,09:56:45,10:11:31,NA,incomplete,8,shape,1,left,Blue_Star_Grid_3.jpg,Green_Star_Stripes_2.jpg,Red_Triangle_Dots_3.jpg,left,731.9700000807643,true,NA,NA,NA,NA,NA,NA,NA,NA,true
9RHfQKCv,3en4yvuovf59wipgxxflzhxwdchjxp,3j2uybxqqppryh2s141r6j170oj06y,9RHfQKCv,2020-0188,2020-05-08,09:56:45,10:11:31,NA,incomplete,9,shape,1,left,Blue_Plus_Grid_3.jpg,Purple_Plus_Dots_4.jpg,Green_Triangle_Stripes_3.jpg,left,691.7300000786781,true,NA,NA,NA,NA,NA,NA,NA,NA,true
9RHfQKCv,3en4yvuovf59wipgxxflzhxwdchjxp,3j2uybxqqppryh2s141r6j170oj06y,9RHfQKCv,2020-0188,2020-05-08,09:56:45,10:11:31,NA,incomplete,10,shape,0,right,Red_Star_Stripes_3.jpg,Blue_Triangle_Chess_3.jpg,Green_Star_Grid_4.jpg,right,780.1699999254197,true,NA,NA,NA,NA,NA,NA,NA,NA,true
9RHfQKCv,3en4yvuovf59wipgxxflzhxwdchjxp,3j2uybxqqppryh2s141r6j170oj06y,9RHfQKCv,2020-0188,2020-05-08,09:56:45,10:11:31,NA,incomplete,11,shape,1,left,Blue_Plus_Grid_3.jpg,Red_Plus_Stripes_4.jpg,Green_Circle_Chess_3.jpg,left,721.5599999763072,true,NA,NA,NA,NA,NA,NA,NA,NA,true
9RHfQKCv,3en4yvuovf59wipgxxflzhxwdchjxp,3j2uybxqqppryh2s141r6j170oj06y,9RHfQKCv,2020-0188,2020-05-08,09:56:45,10:11:31,NA,incomplete,12,shape,1,left,Red_Star_Chess_4.jpg,Green_Star_Stripes_3.jpg,Purple_Plus_Dots_4.jpg,left,753.3850001636893,true,NA,NA,NA,NA,NA,NA,NA,NA,true
9RHfQKCv,3en4yvuovf59wipgxxflzhxwdchjxp,3j2uybxqqppryh2s141r6j170oj06y,9RHfQKCv,2020-0188,2020-05-08,09:56:45,10:11:31,NA,incomplete,13,shape,1,right,Green_Plus_Dots_3.jpg,Purple_Triangle_Stripes_3.jpg,Red_Plus_Chess_4.jpg,right,775.3800000064075,true,NA,NA,NA,NA,NA,NA,NA,NA,true
9RHfQKCv,3en4yvuovf59wipgxxflzhxwdchjxp,3j2uybxqqppryh2s141r6j170oj06y,9RHfQKCv,2020-0188,2020-05-08,09:56:45,10:11:31,NA,incomplete,14,shape,1,right,Green_Triangle_Grid_1.jpg,Blue_Plus_Stripes_1.jpg,Red_Triangle_Dots_2.jpg,right,749.3200001772493,true,NA,NA,NA,NA,NA,NA,NA,NA,true
9RHfQKCv,3en4yvuovf59wipgxxflzhxwdchjxp,3j2uybxqqppryh2s141r6j170oj06y,9RHfQKCv,2020-0188,2020-05-08,09:56:45,10:11:31,NA,incomplete,15,shape,1,right,Purple_Plus_Dots_1.jpg,Blue_Circle_Chess_1.jpg,Red_Plus_Stripes_2.jpg,right,731.5599999856204,true,NA,NA,NA,NA,NA,NA,NA,NA,true
9RHfQKCv,3en4yvuovf59wipgxxflzhxwdchjxp,3j2uybxqqppryh2s141r6j170oj06y,9RHfQKCv,2020-0188,2020-05-08,09:56:45,10:11:31,NA,incomplete,16,shape,1,left,Green_Star_Stripes_3.jpg,Red_Star_Grid_1.jpg,Purple_Triangle_Dots_3.jpg,left,675.0700001139194,true,NA,NA,NA,NA,NA,NA,NA,NA,true
9RHfQKCv,3en4yvuovf59wipgxxflzhxwdchjxp,3j2uybxqqppryh2s141r6j170oj06y,9RHfQKCv,2020-0188,2020-05-08,09:56:45,10:11:31,NA,incomplete,17,shape,1,left,Red_Plus_Stripes_3.jpg,Purple_Plus_Chess_2.jpg,Blue_Circle_Grid_3.jpg,left,684.2799999285489,true,NA,NA,NA,NA,NA,NA,NA,NA,true
9RHfQKCv,3en4yvuovf59wipgxxflzhxwdchjxp,3j2uybxqqppryh2s141r6j170oj06y,9RHfQKCv,2020-0188,2020-05-08,09:56:45,10:11:31,NA,incomplete,18,shape,1,right,Purple_Circle_Grid_4.jpg,Green_Plus_Chess_4.jpg,Blue_Circle_Stripes_3.jpg,right,613.2799999322742,true,NA,NA,NA,NA,NA,NA,NA,NA,true
9RHfQKCv,3en4yvuovf59wipgxxflzhxwdchjxp,3j2uybxqqppryh2s141r6j170oj06y,9RHfQKCv,2020-0188,2020-05-08,09:56:45,10:11:31,NA,incomplete,19,shape,1,left,Red_Star_Chess_3.jpg,Purple_Star_Grid_2.jpg,Green_Circle_Dots_3.jpg,left,625.8999998681247,true,NA,NA,NA,NA,NA,NA,NA,NA,true
9RHfQKCv,3en4yvuovf59wipgxxflzhxwdchjxp,3j2uybxqqppryh2s141r6j170oj06y,9RHfQKCv,2020-0188,2020-05-08,09:56:45,10:11:31,NA,incomplete,20,number,1,left,Red_Circle_Dots_2.jpg,Purple_Plus_Grid_2.jpg,Green_Circle_Stripes_3.jpg,right,660.9000000171363,false,NA,NA,NA,NA,NA,NA,NA,NA,true
9RHfQKCv,3en4yvuovf59wipgxxflzhxwdchjxp,3j2uybxqqppryh2s141r6j170oj06y,9RHfQKCv,2020-0188,2020-05-08,09:56:45,10:11:31,NA,incomplete,21,number,1,right,Blue_Triangle_Dots_4.jpg,Purple_Triangle_Stripes_1.jpg,Red_Plus_Grid_4.jpg,right,919.0650000236928,true,NA,NA,NA,NA,NA,NA,NA,NA,true
9RHfQKCv,3en4yvuovf59wipgxxflzhxwdchjxp,3j2uybxqqppryh2s141r6j170oj06y,9RHfQKCv,2020-0188,2020-05-08,09:56:45,10:11:31,NA,incomplete,22,number,1,left,Green_Plus_Dots_4.jpg,Red_Star_Chess_4.jpg,Purple_Plus_Stripes_1.jpg,left,622.3349999636412,true,NA,NA,NA,NA,NA,NA,NA,NA,true
9RHfQKCv,3en4yvuovf59wipgxxflzhxwdchjxp,3j2uybxqqppryh2s141r6j170oj06y,9RHfQKCv,2020-0188,2020-05-08,09:56:45,10:11:31,NA,incomplete,23,number,1,right,Purple_Star_Stripes_4.jpg,Red_Star_Grid_1.jpg,Blue_Plus_Chess_4.jpg,right,633.9849999640137,true,NA,NA,NA,NA,NA,NA,NA,NA,true
9RHfQKCv,3en4yvuovf59wipgxxflzhxwdchjxp,3j2uybxqqppryh2s141r6j170oj06y,9RHfQKCv,2020-0188,2020-05-08,09:56:45,10:11:31,NA,incomplete,24,number,1,left,Red_Plus_Dots_3.jpg,Purple_Circle_Stripes_3.jpg,Blue_Plus_Chess_4.jpg,left,789.0350001398474,true,NA,NA,NA,NA,NA,NA,NA,NA,true
9RHfQKCv,3en4yvuovf59wipgxxflzhxwdchjxp,3j2uybxqqppryh2s141r6j170oj06y,9RHfQKCv,2020-0188,2020-05-08,09:56:45,10:11:31,NA,incomplete,25,number,1,right,Purple_Star_Dots_1.jpg,Red_Star_Stripes_4.jpg,Green_Triangle_Chess_1.jpg,left,681.4449999947101,false,NA,NA,NA,NA,NA,NA,NA,NA,true
9RHfQKCv,3en4yvuovf59wipgxxflzhxwdchjxp,3j2uybxqqppryh2s141r6j170oj06y,9RHfQKCv,2020-0188,2020-05-08,09:56:45,10:11:31,NA,incomplete,26,number,1,left,Green_Circle_Dots_2.jpg,Purple_Triangle_Grid_2.jpg,Blue_Circle_Chess_4.jpg,left,778.8449998479337,true,NA,NA,NA,NA,NA,NA,NA,NA,true
9RHfQKCv,3en4yvuovf59wipgxxflzhxwdchjxp,3j2uybxqqppryh2s141r6j170oj06y,9RHfQKCv,2020-0188,2020-05-08,09:56:45,10:11:31,NA,incomplete,27,number,1,right,Purple_Triangle_Chess_3.jpg,Blue_Triangle_Stripes_1.jpg,Green_Circle_Dots_3.jpg,right,760.5650001205504,true,NA,NA,NA,NA,NA,NA,NA,NA,true
9RHfQKCv,3en4yvuovf59wipgxxflzhxwdchjxp,3j2uybxqqppryh2s141r6j170oj06y,9RHfQKCv,2020-0188,2020-05-08,09:56:45,10:11:31,NA,incomplete,28,number,1,right,Purple_Plus_Chess_2.jpg,Red_Plus_Grid_3.jpg,Blue_Triangle_Stripes_2.jpg,right,758.4350001998246,true,NA,NA,NA,NA,NA,NA,NA,NA,true
9RHfQKCv,3en4yvuovf59wipgxxflzhxwdchjxp,3j2uybxqqppryh2s141r6j170oj06y,9RHfQKCv,2020-0188,2020-05-08,09:56:45,10:11:31,NA,incomplete,29,number,0,left,Green_Triangle_Grid_3.jpg,Purple_Star_Stripes_3.jpg,Blue_Triangle_Chess_2.jpg,left,692.9599998984486,true,NA,NA,NA,NA,NA,NA,NA,NA,true
9RHfQKCv,3en4yvuovf59wipgxxflzhxwdchjxp,3j2uybxqqppryh2s141r6j170oj06y,9RHfQKCv,2020-0188,2020-05-08,09:56:45,10:11:31,NA,incomplete,30,number,1,left,Red_Circle_Chess_4.jpg,Green_Plus_Stripes_4.jpg,Purple_Circle_Grid_1.jpg,left,773.3199999202043,true,NA,NA,NA,NA,NA,NA,NA,NA,true
9RHfQKCv,3en4yvuovf59wipgxxflzhxwdchjxp,3j2uybxqqppryh2s141r6j170oj06y,9RHfQKCv,2020-0188,2020-05-08,09:56:45,10:11:31,NA,incomplete,31,number,1,left,Purple_Plus_Chess_1.jpg,Blue_Triangle_Grid_1.jpg,Green_Plus_Stripes_4.jpg,left,731.0750000178814,true,NA,NA,NA,NA,NA,NA,NA,NA,true
9RHfQKCv,3en4yvuovf59wipgxxflzhxwdchjxp,3j2uybxqqppryh2s141r6j170oj06y,9RHfQKCv,2020-0188,2020-05-08,09:56:45,10:11:31,NA,incomplete,32,number,1,left,Red_Triangle_Stripes_1.jpg,Green_Plus_Chess_1.jpg,Purple_Triangle_Grid_2.jpg,left,834.2300001531839,true,NA,NA,NA,NA,NA,NA,NA,NA,true
9RHfQKCv,3en4yvuovf59wipgxxflzhxwdchjxp,3j2uybxqqppryh2s141r6j170oj06y,9RHfQKCv,2020-0188,2020-05-08,09:56:45,10:11:31,NA,incomplete,33,number,1,left,Red_Circle_Stripes_3.jpg,Blue_Triangle_Chess_3.jpg,Green_Circle_Dots_1.jpg,left,741.2350000813603,true,NA,NA,NA,NA,NA,NA,NA,NA,true
9RHfQKCv,3en4yvuovf59wipgxxflzhxwdchjxp,3j2uybxqqppryh2s141r6j170oj06y,9RHfQKCv,2020-0188,2020-05-08,09:56:45,10:11:31,NA,incomplete,34,number,1,right,Red_Star_Stripes_2.jpg,Blue_Star_Chess_4.jpg,Purple_Triangle_Grid_2.jpg,right,828.4700000658631,true,NA,NA,NA,NA,NA,NA,NA,NA,true
9RHfQKCv,3en4yvuovf59wipgxxflzhxwdchjxp,3j2uybxqqppryh2s141r6j170oj06y,9RHfQKCv,2020-0188,2020-05-08,09:56:45,10:11:31,NA,incomplete,35,number,0,left,Green_Plus_Dots_1.jpg,Blue_Triangle_Stripes_1.jpg,Red_Plus_Grid_3.jpg,left,671.5799998492002,true,NA,NA,NA,NA,NA,NA,NA,NA,true
9RHfQKCv,3en4yvuovf59wipgxxflzhxwdchjxp,3j2uybxqqppryh2s141r6j170oj06y,9RHfQKCv,2020-0188,2020-05-08,09:56:45,10:11:31,NA,incomplete,36,number,0,right,Green_Plus_Grid_3.jpg,Red_Plus_Stripes_2.jpg,Purple_Circle_Chess_3.jpg,right,816.930000204593,true,NA,NA,NA,NA,NA,NA,NA,NA,true
9RHfQKCv,3en4yvuovf59wipgxxflzhxwdchjxp,3j2uybxqqppryh2s141r6j170oj06y,9RHfQKCv,2020-0188,2020-05-08,09:56:45,10:11:31,NA,incomplete,37,number,1,right,Blue_Plus_Dots_4.jpg,Red_Plus_Chess_1.jpg,Purple_Circle_Stripes_4.jpg,right,740.5149999540299,true,NA,NA,NA,NA,NA,NA,NA,NA,true
9RHfQKCv,3en4yvuovf59wipgxxflzhxwdchjxp,3j2uybxqqppryh2s141r6j170oj06y,9RHfQKCv,2020-0188,2020-05-08,09:56:45,10:11:31,NA,incomplete,38,number,0,right,Blue_Circle_Dots_1.jpg,Red_Circle_Chess_3.jpg,Green_Triangle_Grid_1.jpg,right,867.22999997437,true,NA,NA,NA,NA,NA,NA,NA,NA,true
9RHfQKCv,3en4yvuovf59wipgxxflzhxwdchjxp,3j2uybxqqppryh2s141r6j170oj06y,9RHfQKCv,2020-0188,2020-05-08,09:56:45,10:11:31,NA,incomplete,39,number,0,right,Blue_Plus_Grid_1.jpg,Green_Plus_Dots_3.jpg,Purple_Triangle_Chess_1.jpg,right,732.7049998566508,true,NA,NA,NA,NA,NA,NA,NA,NA,true
9RHfQKCv,3en4yvuovf59wipgxxflzhxwdchjxp,3j2uybxqqppryh2s141r6j170oj06y,9RHfQKCv,2020-0188,2020-05-08,09:56:45,10:11:31,NA,incomplete,0,shape,1,left,Blue_Plus_Dots_4.jpg,Purple_Plus_Grid_2.jpg,Green_Triangle_Stripes_4.jpg,right,851.2399999890476,false,low,NA,NA,NA,NA,NA,NA,NA,false
9RHfQKCv,3en4yvuovf59wipgxxflzhxwdchjxp,3j2uybxqqppryh2s141r6j170oj06y,9RHfQKCv,2020-0188,2020-05-08,09:56:45,10:11:31,NA,incomplete,1,shape,1,right,Blue_Plus_Stripes_4.jpg,Purple_Triangle_Chess_4.jpg,Green_Plus_Dots_2.jpg,right,813.3750001434237,true,low,NA,NA,NA,NA,NA,NA,NA,false
9RHfQKCv,3en4yvuovf59wipgxxflzhxwdchjxp,3j2uybxqqppryh2s141r6j170oj06y,9RHfQKCv,2020-0188,2020-05-08,09:56:45,10:11:31,NA,incomplete,2,shape,1,left,Purple_Circle_Chess_1.jpg,Red_Circle_Grid_2.jpg,Blue_Plus_Stripes_1.jpg,right,969.5150000043213,false,low,NA,NA,NA,NA,NA,NA,NA,false
9RHfQKCv,3en4yvuovf59wipgxxflzhxwdchjxp,3j2uybxqqppryh2s141r6j170oj06y,9RHfQKCv,2020-0188,2020-05-08,09:56:45,10:11:31,NA,incomplete,3,shape,1,left,Purple_Star_Chess_1.jpg,Green_Star_Dots_4.jpg,Blue_Plus_Stripes_1.jpg,left,759.2400000430644,true,low,NA,NA,NA,NA,NA,NA,NA,false
9RHfQKCv,3en4yvuovf59wipgxxflzhxwdchjxp,3j2uybxqqppryh2s141r6j170oj06y,9RHfQKCv,2020-0188,2020-05-08,09:56:45,10:11:31,NA,incomplete,4,shape,0,left,Green_Star_Chess_2.jpg,Red_Star_Stripes_1.jpg,Blue_Plus_Grid_2.jpg,left,805.3200000431389,true,low,NA,NA,NA,NA,NA,NA,NA,false
9RHfQKCv,3en4yvuovf59wipgxxflzhxwdchjxp,3j2uybxqqppryh2s141r6j170oj06y,9RHfQKCv,2020-0188,2020-05-08,09:56:45,10:11:31,NA,incomplete,5,shape,1,right,Red_Circle_Grid_3.jpg,Purple_Star_Stripes_3.jpg,Blue_Circle_Chess_2.jpg,left,585.2550000417978,false,low,NA,NA,NA,NA,NA,NA,NA,false
9RHfQKCv,3en4yvuovf59wipgxxflzhxwdchjxp,3j2uybxqqppryh2s141r6j170oj06y,9RHfQKCv,2020-0188,2020-05-08,09:56:45,10:11:31,NA,incomplete,6,shape,1,left,Blue_Plus_Grid_2.jpg,Green_Plus_Dots_1.jpg,Purple_Star_Stripes_2.jpg,left,845.0599999632686,true,low,NA,NA,NA,NA,NA,NA,NA,false
9RHfQKCv,3en4yvuovf59wipgxxflzhxwdchjxp,3j2uybxqqppryh2s141r6j170oj06y,9RHfQKCv,2020-0188,2020-05-08,09:56:45,10:11:31,NA,incomplete,7,shape,1,right,Blue_Circle_Stripes_2.jpg,Green_Star_Dots_2.jpg,Red_Circle_Chess_4.jpg,right,728.9550001733005,true,low,NA,NA,NA,NA,NA,NA,NA,false
9RHfQKCv,3en4yvuovf59wipgxxflzhxwdchjxp,3j2uybxqqppryh2s141r6j170oj06y,9RHfQKCv,2020-0188,2020-05-08,09:56:45,10:11:31,NA,incomplete,8,shape,1,right,Purple_Triangle_Dots_1.jpg,Green_Plus_Grid_1.jpg,Blue_Triangle_Stripes_4.jpg,right,784.3100000172853,true,low,NA,NA,NA,NA,NA,NA,NA,false
9RHfQKCv,3en4yvuovf59wipgxxflzhxwdchjxp,3j2uybxqqppryh2s141r6j170oj06y,9RHfQKCv,2020-0188,2020-05-08,09:56:45,10:11:31,NA,incomplete,9,shape,1,right,Blue_Star_Stripes_1.jpg,Green_Triangle_Dots_1.jpg,Purple_Star_Chess_4.jpg,right,725.5100000184029,true,low,NA,NA,NA,NA,NA,NA,NA,false
9RHfQKCv,3en4yvuovf59wipgxxflzhxwdchjxp,3j2uybxqqppryh2s141r6j170oj06y,9RHfQKCv,2020-0188,2020-05-08,09:56:45,10:11:31,NA,incomplete,10,shape,1,right,Green_Circle_Grid_4.jpg,Purple_Star_Dots_4.jpg,Red_Circle_Chess_3.jpg,right,844.6749998256564,true,low,NA,NA,NA,NA,NA,NA,NA,false
9RHfQKCv,3en4yvuovf59wipgxxflzhxwdchjxp,3j2uybxqqppryh2s141r6j170oj06y,9RHfQKCv,2020-0188,2020-05-08,09:56:45,10:11:31,NA,incomplete,11,shape,1,left,Green_Circle_Grid_1.jpg,Red_Circle_Stripes_4.jpg,Purple_Star_Dots_1.jpg,left,543.1550000794232,true,low,NA,NA,NA,NA,NA,NA,NA,false
9RHfQKCv,3en4yvuovf59wipgxxflzhxwdchjxp,3j2uybxqqppryh2s141r6j170oj06y,9RHfQKCv,2020-0188,2020-05-08,09:56:45,10:11:31,NA,incomplete,12,shape,1,right,Green_Star_Chess_3.jpg,Purple_Plus_Dots_3.jpg,Red_Star_Stripes_4.jpg,right,654.2650000192225,true,low,NA,NA,NA,NA,NA,NA,NA,false
9RHfQKCv,3en4yvuovf59wipgxxflzhxwdchjxp,3j2uybxqqppryh2s141r6j170oj06y,9RHfQKCv,2020-0188,2020-05-08,09:56:45,10:11:31,NA,incomplete,13,shape,1,left,Blue_Plus_Grid_2.jpg,Green_Plus_Dots_4.jpg,Red_Star_Stripes_2.jpg,left,832.3049999307841,true,low,NA,NA,NA,NA,NA,NA,NA,false
9RHfQKCv,3en4yvuovf59wipgxxflzhxwdchjxp,3j2uybxqqppryh2s141r6j170oj06y,9RHfQKCv,2020-0188,2020-05-08,09:56:45,10:11:31,NA,incomplete,14,shape,1,left,Purple_Star_Dots_4.jpg,Red_Star_Grid_1.jpg,Blue_Circle_Chess_4.jpg,left,796.1450000293553,true,low,NA,NA,NA,NA,NA,NA,NA,false
9RHfQKCv,3en4yvuovf59wipgxxflzhxwdchjxp,3j2uybxqqppryh2s141r6j170oj06y,9RHfQKCv,2020-0188,2020-05-08,09:56:45,10:11:31,NA,incomplete,15,shape,1,left,Blue_Star_Grid_2.jpg,Purple_Star_Dots_1.jpg,Green_Plus_Chess_2.jpg,left,760.4300000239164,true,low,NA,NA,NA,NA,NA,NA,NA,false
9RHfQKCv,3en4yvuovf59wipgxxflzhxwdchjxp,3j2uybxqqppryh2s141r6j170oj06y,9RHfQKCv,2020-0188,2020-05-08,09:56:45,10:11:31,NA,incomplete,16,shape,1,left,Green_Triangle_Dots_1.jpg,Purple_Triangle_Grid_4.jpg,Red_Circle_Stripes_1.jpg,left,742.4749999772757,true,low,NA,NA,NA,NA,NA,NA,NA,false
9RHfQKCv,3en4yvuovf59wipgxxflzhxwdchjxp,3j2uybxqqppryh2s141r6j170oj06y,9RHfQKCv,2020-0188,2020-05-08,09:56:45,10:11:31,NA,incomplete,17,shape,0,right,Purple_Plus_Dots_2.jpg,Blue_Star_Stripes_2.jpg,Green_Plus_Chess_1.jpg,right,789.8150000255555,true,low,NA,NA,NA,NA,NA,NA,NA,false
9RHfQKCv,3en4yvuovf59wipgxxflzhxwdchjxp,3j2uybxqqppryh2s141r6j170oj06y,9RHfQKCv,2020-0188,2020-05-08,09:56:45,10:11:31,NA,incomplete,18,shape,0,left,Green_Circle_Dots_1.jpg,Red_Circle_Stripes_2.jpg,Purple_Star_Grid_1.jpg,left,698.2649997808039,true,low,NA,NA,NA,NA,NA,NA,NA,false
9RHfQKCv,3en4yvuovf59wipgxxflzhxwdchjxp,3j2uybxqqppryh2s141r6j170oj06y,9RHfQKCv,2020-0188,2020-05-08,09:56:45,10:11:31,NA,incomplete,19,shape,1,left,Red_Circle_Grid_4.jpg,Purple_Circle_Dots_1.jpg,Green_Star_Stripes_4.jpg,left,891.5649999398738,true,low,NA,NA,NA,NA,NA,NA,NA,false
9RHfQKCv,3en4yvuovf59wipgxxflzhxwdchjxp,3j2uybxqqppryh2s141r6j170oj06y,9RHfQKCv,2020-0188,2020-05-08,09:56:45,10:11:31,NA,incomplete,20,shape,1,right,Purple_Plus_Chess_3.jpg,Red_Star_Grid_3.jpg,Green_Plus_Stripes_2.jpg,left,844.0849999897182,false,low,NA,NA,NA,NA,NA,NA,NA,false
9RHfQKCv,3en4yvuovf59wipgxxflzhxwdchjxp,3j2uybxqqppryh2s141r6j170oj06y,9RHfQKCv,2020-0188,2020-05-08,09:56:45,10:11:31,NA,incomplete,21,shape,1,right,Green_Plus_Grid_1.jpg,Purple_Star_Stripes_1.jpg,Red_Plus_Chess_3.jpg,right,701.0249998420477,true,low,NA,NA,NA,NA,NA,NA,NA,false
9RHfQKCv,3en4yvuovf59wipgxxflzhxwdchjxp,3j2uybxqqppryh2s141r6j170oj06y,9RHfQKCv,2020-0188,2020-05-08,09:56:45,10:11:31,NA,incomplete,22,shape,1,right,Purple_Star_Stripes_3.jpg,Red_Circle_Dots_3.jpg,Blue_Star_Chess_4.jpg,right,797.3400000482798,true,low,NA,NA,NA,NA,NA,NA,NA,false
9RHfQKCv,3en4yvuovf59wipgxxflzhxwdchjxp,3j2uybxqqppryh2s141r6j170oj06y,9RHfQKCv,2020-0188,2020-05-08,09:56:45,10:11:31,NA,incomplete,23,shape,1,left,Red_Star_Stripes_3.jpg,Green_Star_Dots_4.jpg,Blue_Circle_Grid_3.jpg,left,803.5049999598414,true,low,NA,NA,NA,NA,NA,NA,NA,false
9RHfQKCv,3en4yvuovf59wipgxxflzhxwdchjxp,3j2uybxqqppryh2s141r6j170oj06y,9RHfQKCv,2020-0188,2020-05-08,09:56:45,10:11:31,NA,incomplete,24,shape,1,left,Red_Triangle_Stripes_2.jpg,Blue_Triangle_Grid_1.jpg,Purple_Star_Dots_2.jpg,left,688.0400001537055,true,low,NA,NA,NA,NA,NA,NA,NA,false
9RHfQKCv,3en4yvuovf59wipgxxflzhxwdchjxp,3j2uybxqqppryh2s141r6j170oj06y,9RHfQKCv,2020-0188,2020-05-08,09:56:45,10:11:31,NA,incomplete,25,shape,1,right,Purple_Circle_Chess_2.jpg,Green_Plus_Dots_2.jpg,Red_Circle_Stripes_1.jpg,right,656.7949999589473,true,low,NA,NA,NA,NA,NA,NA,NA,false
9RHfQKCv,3en4yvuovf59wipgxxflzhxwdchjxp,3j2uybxqqppryh2s141r6j170oj06y,9RHfQKCv,2020-0188,2020-05-08,09:56:45,10:11:31,NA,incomplete,26,shape,1,left,Purple_Circle_Dots_3.jpg,Red_Circle_Grid_4.jpg,Blue_Star_Chess_3.jpg,left,538.9999998733401,true,low,NA,NA,NA,NA,NA,NA,NA,false
9RHfQKCv,3en4yvuovf59wipgxxflzhxwdchjxp,3j2uybxqqppryh2s141r6j170oj06y,9RHfQKCv,2020-0188,2020-05-08,09:56:45,10:11:31,NA,incomplete,27,shape,1,right,Purple_Star_Grid_3.jpg,Red_Plus_Dots_3.jpg,Blue_Star_Stripes_4.jpg,right,617.3900000285357,true,low,NA,NA,NA,NA,NA,NA,NA,false
9RHfQKCv,3en4yvuovf59wipgxxflzhxwdchjxp,3j2uybxqqppryh2s141r6j170oj06y,9RHfQKCv,2020-0188,2020-05-08,09:56:45,10:11:31,NA,incomplete,28,shape,1,left,Green_Triangle_Dots_4.jpg,Red_Triangle_Stripes_3.jpg,Purple_Plus_Chess_4.jpg,left,620.4000001307577,true,low,NA,NA,NA,NA,NA,NA,NA,false
9RHfQKCv,3en4yvuovf59wipgxxflzhxwdchjxp,3j2uybxqqppryh2s141r6j170oj06y,9RHfQKCv,2020-0188,2020-05-08,09:56:45,10:11:31,NA,incomplete,29,shape,1,right,Red_Triangle_Stripes_3.jpg,Blue_Plus_Chess_3.jpg,Purple_Triangle_Dots_4.jpg,right,688.6849999427795,true,low,NA,NA,NA,NA,NA,NA,NA,false
9RHfQKCv,3en4yvuovf59wipgxxflzhxwdchjxp,3j2uybxqqppryh2s141r6j170oj06y,9RHfQKCv,2020-0188,2020-05-08,09:56:45,10:11:31,NA,incomplete,30,number,0,left,Purple_Star_Stripes_4.jpg,Green_Plus_Grid_4.jpg,Blue_Star_Chess_2.jpg,right,721.1249999236315,false,low,NA,NA,NA,NA,NA,NA,NA,false
9RHfQKCv,3en4yvuovf59wipgxxflzhxwdchjxp,3j2uybxqqppryh2s141r6j170oj06y,9RHfQKCv,2020-0188,2020-05-08,09:56:45,10:11:31,NA,incomplete,31,number,1,right,Green_Star_Chess_1.jpg,Red_Star_Dots_3.jpg,Purple_Plus_Stripes_1.jpg,left,616.6049998719245,false,low,NA,NA,NA,NA,NA,NA,NA,false
9RHfQKCv,3en4yvuovf59wipgxxflzhxwdchjxp,3j2uybxqqppryh2s141r6j170oj06y,9RHfQKCv,2020-0188,2020-05-08,09:56:45,10:11:31,NA,incomplete,32,number,1,left,Purple_Star_Grid_4.jpg,Red_Circle_Stripes_4.jpg,Blue_Star_Chess_1.jpg,right,652.8049998451024,false,low,NA,NA,NA,NA,NA,NA,NA,false
9RHfQKCv,3en4yvuovf59wipgxxflzhxwdchjxp,3j2uybxqqppryh2s141r6j170oj06y,9RHfQKCv,2020-0188,2020-05-08,09:56:45,10:11:31,NA,incomplete,33,number,1,left,Blue_Star_Grid_4.jpg,Green_Triangle_Chess_4.jpg,Purple_Star_Stripes_2.jpg,right,637.9650000017136,false,low,NA,NA,NA,NA,NA,NA,NA,false
9RHfQKCv,3en4yvuovf59wipgxxflzhxwdchjxp,3j2uybxqqppryh2s141r6j170oj06y,9RHfQKCv,2020-0188,2020-05-08,09:56:45,10:11:31,NA,incomplete,34,number,1,left,Blue_Plus_Dots_4.jpg,Red_Star_Stripes_4.jpg,Purple_Plus_Grid_2.jpg,left,737.8200001548976,true,low,NA,NA,NA,NA,NA,NA,NA,false
9RHfQKCv,3en4yvuovf59wipgxxflzhxwdchjxp,3j2uybxqqppryh2s141r6j170oj06y,9RHfQKCv,2020-0188,2020-05-08,09:56:45,10:11:31,NA,incomplete,35,number,0,right,Purple_Circle_Grid_4.jpg,Green_Circle_Chess_3.jpg,Red_Triangle_Dots_4.jpg,right,704.6100001316518,true,low,NA,NA,NA,NA,NA,NA,NA,false
9RHfQKCv,3en4yvuovf59wipgxxflzhxwdchjxp,3j2uybxqqppryh2s141r6j170oj06y,9RHfQKCv,2020-0188,2020-05-08,09:56:45,10:11:31,NA,incomplete,36,number,0,right,Green_Triangle_Stripes_3.jpg,Blue_Triangle_Chess_4.jpg,Red_Circle_Grid_3.jpg,right,832.6299998443574,true,low,NA,NA,NA,NA,NA,NA,NA,false
9RHfQKCv,3en4yvuovf59wipgxxflzhxwdchjxp,3j2uybxqqppryh2s141r6j170oj06y,9RHfQKCv,2020-0188,2020-05-08,09:56:45,10:11:31,NA,incomplete,37,number,1,right,Blue_Star_Dots_3.jpg,Green_Star_Grid_1.jpg,Purple_Plus_Chess_3.jpg,left,819.965000031516,false,low,NA,NA,NA,NA,NA,NA,NA,false
9RHfQKCv,3en4yvuovf59wipgxxflzhxwdchjxp,3j2uybxqqppryh2s141r6j170oj06y,9RHfQKCv,2020-0188,2020-05-08,09:56:45,10:11:31,NA,incomplete,38,number,1,left,Red_Circle_Stripes_3.jpg,Purple_Star_Chess_3.jpg,Blue_Circle_Grid_4.jpg,left,711.4150000270456,true,low,NA,NA,NA,NA,NA,NA,NA,false
9RHfQKCv,3en4yvuovf59wipgxxflzhxwdchjxp,3j2uybxqqppryh2s141r6j170oj06y,9RHfQKCv,2020-0188,2020-05-08,09:56:45,10:11:31,NA,incomplete,39,number,1,right,Red_Star_Dots_3.jpg,Green_Star_Chess_4.jpg,Blue_Triangle_Stripes_3.jpg,right,751.7800000496209,true,low,NA,NA,NA,NA,NA,NA,NA,false
9RHfQKCv,3en4yvuovf59wipgxxflzhxwdchjxp,3j2uybxqqppryh2s141r6j170oj06y,9RHfQKCv,2020-0188,2020-05-08,09:56:45,10:11:31,NA,incomplete,40,number,1,right,Green_Circle_Dots_4.jpg,Purple_Circle_Grid_1.jpg,Red_Star_Chess_4.jpg,right,893.5000000055879,true,low,NA,NA,NA,NA,NA,NA,NA,false
9RHfQKCv,3en4yvuovf59wipgxxflzhxwdchjxp,3j2uybxqqppryh2s141r6j170oj06y,9RHfQKCv,2020-0188,2020-05-08,09:56:45,10:11:31,NA,incomplete,41,number,1,left,Blue_Star_Grid_2.jpg,Purple_Circle_Dots_2.jpg,Green_Star_Stripes_1.jpg,left,694.300000090152,true,low,NA,NA,NA,NA,NA,NA,NA,false
9RHfQKCv,3en4yvuovf59wipgxxflzhxwdchjxp,3j2uybxqqppryh2s141r6j170oj06y,9RHfQKCv,2020-0188,2020-05-08,09:56:45,10:11:31,NA,incomplete,42,number,1,right,Purple_Star_Stripes_2.jpg,Blue_Star_Dots_4.jpg,Green_Triangle_Chess_2.jpg,right,791.5000000502914,true,low,NA,NA,NA,NA,NA,NA,NA,false
9RHfQKCv,3en4yvuovf59wipgxxflzhxwdchjxp,3j2uybxqqppryh2s141r6j170oj06y,9RHfQKCv,2020-0188,2020-05-08,09:56:45,10:11:31,NA,incomplete,43,number,0,left,Red_Triangle_Grid_2.jpg,Green_Star_Stripes_2.jpg,Purple_Triangle_Dots_1.jpg,left,604.1550000663847,true,low,NA,NA,NA,NA,NA,NA,NA,false
9RHfQKCv,3en4yvuovf59wipgxxflzhxwdchjxp,3j2uybxqqppryh2s141r6j170oj06y,9RHfQKCv,2020-0188,2020-05-08,09:56:45,10:11:31,NA,incomplete,44,number,0,left,Blue_Circle_Dots_2.jpg,Green_Star_Grid_2.jpg,Purple_Circle_Chess_4.jpg,left,768.4600001666695,true,low,NA,NA,NA,NA,NA,NA,NA,false
9RHfQKCv,3en4yvuovf59wipgxxflzhxwdchjxp,3j2uybxqqppryh2s141r6j170oj06y,9RHfQKCv,2020-0188,2020-05-08,09:56:45,10:11:31,NA,incomplete,45,number,1,left,Green_Triangle_Dots_1.jpg,Red_Circle_Stripes_1.jpg,Purple_Triangle_Chess_2.jpg,left,797.6849998813123,true,low,NA,NA,NA,NA,NA,NA,NA,false
9RHfQKCv,3en4yvuovf59wipgxxflzhxwdchjxp,3j2uybxqqppryh2s141r6j170oj06y,9RHfQKCv,2020-0188,2020-05-08,09:56:45,10:11:31,NA,incomplete,46,number,1,left,Red_Circle_Grid_2.jpg,Green_Star_Stripes_2.jpg,Purple_Circle_Chess_4.jpg,left,706.4349998254329,true,low,NA,NA,NA,NA,NA,NA,NA,false
9RHfQKCv,3en4yvuovf59wipgxxflzhxwdchjxp,3j2uybxqqppryh2s141r6j170oj06y,9RHfQKCv,2020-0188,2020-05-08,09:56:45,10:11:31,NA,incomplete,47,number,1,right,Blue_Star_Stripes_2.jpg,Green_Star_Dots_4.jpg,Red_Triangle_Chess_2.jpg,right,722.6599999703467,true,low,NA,NA,NA,NA,NA,NA,NA,false
9RHfQKCv,3en4yvuovf59wipgxxflzhxwdchjxp,3j2uybxqqppryh2s141r6j170oj06y,9RHfQKCv,2020-0188,2020-05-08,09:56:45,10:11:31,NA,incomplete,48,number,0,left,Blue_Plus_Stripes_1.jpg,Red_Circle_Grid_1.jpg,Purple_Plus_Chess_3.jpg,left,681.9849999155849,true,low,NA,NA,NA,NA,NA,NA,NA,false
9RHfQKCv,3en4yvuovf59wipgxxflzhxwdchjxp,3j2uybxqqppryh2s141r6j170oj06y,9RHfQKCv,2020-0188,2020-05-08,09:56:45,10:11:31,NA,incomplete,49,number,1,right,Blue_Circle_Stripes_2.jpg,Red_Circle_Dots_4.jpg,Green_Plus_Grid_2.jpg,right,867.6499999128282,true,low,NA,NA,NA,NA,NA,NA,NA,false
9RHfQKCv,3en4yvuovf59wipgxxflzhxwdchjxp,3j2uybxqqppryh2s141r6j170oj06y,9RHfQKCv,2020-0188,2020-05-08,09:56:45,10:11:31,NA,incomplete,50,number,1,left,Green_Circle_Stripes_2.jpg,Purple_Plus_Chess_2.jpg,Blue_Circle_Grid_3.jpg,left,732.9150000587106,true,low,NA,NA,NA,NA,NA,NA,NA,false
9RHfQKCv,3en4yvuovf59wipgxxflzhxwdchjxp,3j2uybxqqppryh2s141r6j170oj06y,9RHfQKCv,2020-0188,2020-05-08,09:56:45,10:11:31,NA,incomplete,51,number,1,right,Green_Circle_Dots_1.jpg,Purple_Circle_Grid_2.jpg,Red_Plus_Stripes_1.jpg,right,828.6850000731647,true,low,NA,NA,NA,NA,NA,NA,NA,false
9RHfQKCv,3en4yvuovf59wipgxxflzhxwdchjxp,3j2uybxqqppryh2s141r6j170oj06y,9RHfQKCv,2020-0188,2020-05-08,09:56:45,10:11:31,NA,incomplete,52,number,1,left,Red_Star_Chess_2.jpg,Purple_Circle_Dots_2.jpg,Green_Star_Grid_1.jpg,left,695.6800001207739,true,low,NA,NA,NA,NA,NA,NA,NA,false
9RHfQKCv,3en4yvuovf59wipgxxflzhxwdchjxp,3j2uybxqqppryh2s141r6j170oj06y,9RHfQKCv,2020-0188,2020-05-08,09:56:45,10:11:31,NA,incomplete,53,number,1,right,Purple_Triangle_Chess_4.jpg,Red_Triangle_Dots_2.jpg,Green_Star_Stripes_4.jpg,right,680.6449999567121,true,low,NA,NA,NA,NA,NA,NA,NA,false
9RHfQKCv,3en4yvuovf59wipgxxflzhxwdchjxp,3j2uybxqqppryh2s141r6j170oj06y,9RHfQKCv,2020-0188,2020-05-08,09:56:45,10:11:31,NA,incomplete,54,number,1,right,Green_Circle_Dots_2.jpg,Red_Circle_Grid_3.jpg,Blue_Plus_Chess_2.jpg,right,778.5250002052635,true,low,NA,NA,NA,NA,NA,NA,NA,false
9RHfQKCv,3en4yvuovf59wipgxxflzhxwdchjxp,3j2uybxqqppryh2s141r6j170oj06y,9RHfQKCv,2020-0188,2020-05-08,09:56:45,10:11:31,NA,incomplete,55,number,1,right,Red_Triangle_Stripes_1.jpg,Green_Triangle_Dots_3.jpg,Blue_Circle_Chess_1.jpg,right,711.6300000343472,true,low,NA,NA,NA,NA,NA,NA,NA,false
9RHfQKCv,3en4yvuovf59wipgxxflzhxwdchjxp,3j2uybxqqppryh2s141r6j170oj06y,9RHfQKCv,2020-0188,2020-05-08,09:56:45,10:11:31,NA,incomplete,56,number,1,right,Green_Plus_Stripes_3.jpg,Blue_Plus_Chess_4.jpg,Purple_Circle_Grid_3.jpg,right,727.930000051856,true,low,NA,NA,NA,NA,NA,NA,NA,false
9RHfQKCv,3en4yvuovf59wipgxxflzhxwdchjxp,3j2uybxqqppryh2s141r6j170oj06y,9RHfQKCv,2020-0188,2020-05-08,09:56:45,10:11:31,NA,incomplete,57,number,1,right,Green_Star_Stripes_3.jpg,Blue_Star_Grid_4.jpg,Purple_Circle_Chess_3.jpg,right,647.1499998588115,true,low,NA,NA,NA,NA,NA,NA,NA,false
9RHfQKCv,3en4yvuovf59wipgxxflzhxwdchjxp,3j2uybxqqppryh2s141r6j170oj06y,9RHfQKCv,2020-0188,2020-05-08,09:56:45,10:11:31,NA,incomplete,58,number,1,left,Blue_Plus_Grid_2.jpg,Green_Circle_Chess_2.jpg,Red_Plus_Stripes_1.jpg,left,802.1050000097603,true,low,NA,NA,NA,NA,NA,NA,NA,false
9RHfQKCv,3en4yvuovf59wipgxxflzhxwdchjxp,3j2uybxqqppryh2s141r6j170oj06y,9RHfQKCv,2020-0188,2020-05-08,09:56:45,10:11:31,NA,incomplete,59,number,1,left,Green_Circle_Grid_2.jpg,Blue_Plus_Chess_2.jpg,Purple_Circle_Stripes_3.jpg,left,710.3800000622869,true,low,NA,NA,NA,NA,NA,NA,NA,false
9RHfQKCv,3en4yvuovf59wipgxxflzhxwdchjxp,3j2uybxqqppryh2s141r6j170oj06y,9RHfQKCv,2020-0188,2020-05-08,09:56:45,10:11:31,NA,incomplete,60,shape,0,right,Red_Plus_Chess_4.jpg,Blue_Triangle_Stripes_4.jpg,Purple_Plus_Dots_3.jpg,left,758.2950000651181,false,low,NA,NA,NA,NA,NA,NA,NA,false
9RHfQKCv,3en4yvuovf59wipgxxflzhxwdchjxp,3j2uybxqqppryh2s141r6j170oj06y,9RHfQKCv,2020-0188,2020-05-08,09:56:45,10:11:31,NA,incomplete,61,shape,1,left,Blue_Circle_Chess_2.jpg,Purple_Circle_Stripes_4.jpg,Red_Plus_Grid_2.jpg,right,796.3849999941885,false,low,NA,NA,NA,NA,NA,NA,NA,false
9RHfQKCv,3en4yvuovf59wipgxxflzhxwdchjxp,3j2uybxqqppryh2s141r6j170oj06y,9RHfQKCv,2020-0188,2020-05-08,09:56:45,10:11:31,NA,incomplete,62,shape,0,right,Red_Plus_Dots_1.jpg,Blue_Triangle_Chess_1.jpg,Green_Plus_Grid_4.jpg,left,705.0749999471009,false,low,NA,NA,NA,NA,NA,NA,NA,false
9RHfQKCv,3en4yvuovf59wipgxxflzhxwdchjxp,3j2uybxqqppryh2s141r6j170oj06y,9RHfQKCv,2020-0188,2020-05-08,09:56:45,10:11:31,NA,incomplete,63,shape,1,left,Blue_Circle_Dots_3.jpg,Purple_Circle_Chess_2.jpg,Green_Star_Grid_3.jpg,right,705.0850000232458,false,low,NA,NA,NA,NA,NA,NA,NA,false
9RHfQKCv,3en4yvuovf59wipgxxflzhxwdchjxp,3j2uybxqqppryh2s141r6j170oj06y,9RHfQKCv,2020-0188,2020-05-08,09:56:45,10:11:31,NA,incomplete,64,shape,1,right,Red_Star_Dots_4.jpg,Blue_Triangle_Chess_4.jpg,Purple_Star_Grid_3.jpg,left,729.7650000546128,false,low,NA,NA,NA,NA,NA,NA,NA,false
9RHfQKCv,3en4yvuovf59wipgxxflzhxwdchjxp,3j2uybxqqppryh2s141r6j170oj06y,9RHfQKCv,2020-0188,2020-05-08,09:56:45,10:11:31,NA,incomplete,65,shape,0,left,Blue_Circle_Grid_2.jpg,Purple_Circle_Stripes_3.jpg,Green_Triangle_Dots_2.jpg,left,680.835000006482,true,low,NA,NA,NA,NA,NA,NA,NA,false
9RHfQKCv,3en4yvuovf59wipgxxflzhxwdchjxp,3j2uybxqqppryh2s141r6j170oj06y,9RHfQKCv,2020-0188,2020-05-08,09:56:45,10:11:31,NA,incomplete,66,shape,1,left,Blue_Triangle_Dots_3.jpg,Red_Triangle_Grid_2.jpg,Purple_Plus_Stripes_3.jpg,right,874.284999910742,false,low,NA,NA,NA,NA,NA,NA,NA,false
9RHfQKCv,3en4yvuovf59wipgxxflzhxwdchjxp,3j2uybxqqppryh2s141r6j170oj06y,9RHfQKCv,2020-0188,2020-05-08,09:56:45,10:11:31,NA,incomplete,67,shape,1,right,Green_Star_Stripes_2.jpg,Blue_Circle_Chess_2.jpg,Purple_Star_Grid_1.jpg,right,891.7999998666346,true,low,NA,NA,NA,NA,NA,NA,NA,false
9RHfQKCv,3en4yvuovf59wipgxxflzhxwdchjxp,3j2uybxqqppryh2s141r6j170oj06y,9RHfQKCv,2020-0188,2020-05-08,09:56:45,10:11:31,NA,incomplete,68,shape,0,right,Purple_Circle_Dots_2.jpg,Red_Plus_Stripes_2.jpg,Green_Circle_Grid_4.jpg,right,764.6300001069903,true,low,NA,NA,NA,NA,NA,NA,NA,false
9RHfQKCv,3en4yvuovf59wipgxxflzhxwdchjxp,3j2uybxqqppryh2s141r6j170oj06y,9RHfQKCv,2020-0188,2020-05-08,09:56:45,10:11:31,NA,incomplete,69,shape,1,left,Red_Triangle_Chess_1.jpg,Purple_Triangle_Stripes_3.jpg,Green_Plus_Grid_1.jpg,right,763.0900000222027,false,low,NA,NA,NA,NA,NA,NA,NA,false
9RHfQKCv,3en4yvuovf59wipgxxflzhxwdchjxp,3j2uybxqqppryh2s141r6j170oj06y,9RHfQKCv,2020-0188,2020-05-08,09:56:45,10:11:31,NA,incomplete,70,shape,1,right,Purple_Circle_Stripes_4.jpg,Blue_Triangle_Chess_4.jpg,Green_Circle_Dots_3.jpg,right,920.0550001114607,true,low,NA,NA,NA,NA,NA,NA,NA,false
9RHfQKCv,3en4yvuovf59wipgxxflzhxwdchjxp,3j2uybxqqppryh2s141r6j170oj06y,9RHfQKCv,2020-0188,2020-05-08,09:56:45,10:11:31,NA,incomplete,71,shape,1,left,Blue_Circle_Chess_1.jpg,Green_Circle_Dots_2.jpg,Red_Triangle_Grid_1.jpg,left,656.3599999062717,true,low,NA,NA,NA,NA,NA,NA,NA,false
9RHfQKCv,3en4yvuovf59wipgxxflzhxwdchjxp,3j2uybxqqppryh2s141r6j170oj06y,9RHfQKCv,2020-0188,2020-05-08,09:56:45,10:11:31,NA,incomplete,72,shape,0,left,Green_Circle_Dots_1.jpg,Purple_Circle_Grid_4.jpg,Blue_Plus_Stripes_1.jpg,left,658.3800001535565,true,low,NA,NA,NA,NA,NA,NA,NA,false
9RHfQKCv,3en4yvuovf59wipgxxflzhxwdchjxp,3j2uybxqqppryh2s141r6j170oj06y,9RHfQKCv,2020-0188,2020-05-08,09:56:45,10:11:31,NA,incomplete,73,shape,1,right,Green_Plus_Grid_3.jpg,Purple_Circle_Dots_3.jpg,Red_Plus_Chess_4.jpg,right,1075.704999966547,true,low,NA,NA,NA,NA,NA,NA,NA,false
9RHfQKCv,3en4yvuovf59wipgxxflzhxwdchjxp,3j2uybxqqppryh2s141r6j170oj06y,9RHfQKCv,2020-0188,2020-05-08,09:56:45,10:11:31,NA,incomplete,74,shape,1,left,Green_Star_Dots_4.jpg,Red_Star_Grid_2.jpg,Purple_Triangle_Stripes_4.jpg,left,598.5450001899153,true,low,NA,NA,NA,NA,NA,NA,NA,false
9RHfQKCv,3en4yvuovf59wipgxxflzhxwdchjxp,3j2uybxqqppryh2s141r6j170oj06y,9RHfQKCv,2020-0188,2020-05-08,09:56:45,10:11:31,NA,incomplete,75,shape,1,left,Green_Triangle_Dots_1.jpg,Blue_Triangle_Grid_4.jpg,Red_Circle_Stripes_1.jpg,left,802.7449999935925,true,low,NA,NA,NA,NA,NA,NA,NA,false
9RHfQKCv,3en4yvuovf59wipgxxflzhxwdchjxp,3j2uybxqqppryh2s141r6j170oj06y,9RHfQKCv,2020-0188,2020-05-08,09:56:45,10:11:31,NA,incomplete,76,shape,1,right,Blue_Plus_Grid_3.jpg,Green_Circle_Dots_3.jpg,Red_Plus_Chess_4.jpg,right,590.8899998757988,true,low,NA,NA,NA,NA,NA,NA,NA,false
9RHfQKCv,3en4yvuovf59wipgxxflzhxwdchjxp,3j2uybxqqppryh2s141r6j170oj06y,9RHfQKCv,2020-0188,2020-05-08,09:56:45,10:11:31,NA,incomplete,77,shape,1,right,Purple_Star_Grid_1.jpg,Red_Triangle_Stripes_1.jpg,Green_Star_Dots_4.jpg,right,723.8449999131262,true,low,NA,NA,NA,NA,NA,NA,NA,false
9RHfQKCv,3en4yvuovf59wipgxxflzhxwdchjxp,3j2uybxqqppryh2s141r6j170oj06y,9RHfQKCv,2020-0188,2020-05-08,09:56:45,10:11:31,NA,incomplete,78,shape,1,right,Blue_Plus_Grid_1.jpg,Purple_Triangle_Chess_1.jpg,Red_Plus_Stripes_3.jpg,right,795.2749999240041,true,low,NA,NA,NA,NA,NA,NA,NA,false
9RHfQKCv,3en4yvuovf59wipgxxflzhxwdchjxp,3j2uybxqqppryh2s141r6j170oj06y,9RHfQKCv,2020-0188,2020-05-08,09:56:45,10:11:31,NA,incomplete,79,shape,1,right,Green_Plus_Chess_2.jpg,Blue_Star_Grid_2.jpg,Red_Plus_Dots_3.jpg,right,632.3049999773502,true,low,NA,NA,NA,NA,NA,NA,NA,false
9RHfQKCv,3en4yvuovf59wipgxxflzhxwdchjxp,3j2uybxqqppryh2s141r6j170oj06y,9RHfQKCv,2020-0188,2020-05-08,09:56:45,10:11:31,NA,incomplete,80,shape,1,left,Blue_Triangle_Stripes_3.jpg,Red_Triangle_Chess_2.jpg,Purple_Circle_Grid_3.jpg,left,699.3200001306832,true,low,NA,NA,NA,NA,NA,NA,NA,false
9RHfQKCv,3en4yvuovf59wipgxxflzhxwdchjxp,3j2uybxqqppryh2s141r6j170oj06y,9RHfQKCv,2020-0188,2020-05-08,09:56:45,10:11:31,NA,incomplete,81,shape,0,left,Purple_Star_Chess_3.jpg,Red_Star_Dots_2.jpg,Blue_Circle_Grid_3.jpg,left,644.2549999337643,true,low,NA,NA,NA,NA,NA,NA,NA,false
9RHfQKCv,3en4yvuovf59wipgxxflzhxwdchjxp,3j2uybxqqppryh2s141r6j170oj06y,9RHfQKCv,2020-0188,2020-05-08,09:56:45,10:11:31,NA,incomplete,82,shape,1,left,Green_Triangle_Dots_2.jpg,Blue_Triangle_Stripes_4.jpg,Purple_Star_Chess_2.jpg,left,567.2850001137704,true,low,NA,NA,NA,NA,NA,NA,NA,false
9RHfQKCv,3en4yvuovf59wipgxxflzhxwdchjxp,3j2uybxqqppryh2s141r6j170oj06y,9RHfQKCv,2020-0188,2020-05-08,09:56:45,10:11:31,NA,incomplete,83,shape,1,right,Purple_Triangle_Stripes_1.jpg,Blue_Star_Dots_1.jpg,Red_Triangle_Grid_4.jpg,right,588.4749998804182,true,low,NA,NA,NA,NA,NA,NA,NA,false
9RHfQKCv,3en4yvuovf59wipgxxflzhxwdchjxp,3j2uybxqqppryh2s141r6j170oj06y,9RHfQKCv,2020-0188,2020-05-08,09:56:45,10:11:31,NA,incomplete,84,shape,1,left,Green_Plus_Dots_4.jpg,Purple_Plus_Stripes_1.jpg,Red_Triangle_Grid_4.jpg,left,705.5900001432747,true,low,NA,NA,NA,NA,NA,NA,NA,false
9RHfQKCv,3en4yvuovf59wipgxxflzhxwdchjxp,3j2uybxqqppryh2s141r6j170oj06y,9RHfQKCv,2020-0188,2020-05-08,09:56:45,10:11:31,NA,incomplete,85,shape,1,right,Purple_Star_Dots_4.jpg,Green_Circle_Stripes_4.jpg,Blue_Star_Chess_1.jpg,right,577.4250000249594,true,low,NA,NA,NA,NA,NA,NA,NA,false
9RHfQKCv,3en4yvuovf59wipgxxflzhxwdchjxp,3j2uybxqqppryh2s141r6j170oj06y,9RHfQKCv,2020-0188,2020-05-08,09:56:45,10:11:31,NA,incomplete,86,shape,1,right,Green_Triangle_Stripes_2.jpg,Red_Circle_Grid_2.jpg,Purple_Triangle_Chess_4.jpg,right,686.6849998477846,true,low,NA,NA,NA,NA,NA,NA,NA,false
9RHfQKCv,3en4yvuovf59wipgxxflzhxwdchjxp,3j2uybxqqppryh2s141r6j170oj06y,9RHfQKCv,2020-0188,2020-05-08,09:56:45,10:11:31,NA,incomplete,87,shape,1,right,Purple_Circle_Chess_2.jpg,Green_Plus_Grid_2.jpg,Blue_Circle_Stripes_4.jpg,right,551.6399999614805,true,low,NA,NA,NA,NA,NA,NA,NA,false
9RHfQKCv,3en4yvuovf59wipgxxflzhxwdchjxp,3j2uybxqqppryh2s141r6j170oj06y,9RHfQKCv,2020-0188,2020-05-08,09:56:45,10:11:31,NA,incomplete,88,shape,1,left,Blue_Circle_Chess_4.jpg,Green_Circle_Grid_1.jpg,Red_Star_Dots_4.jpg,left,501.0249998886138,true,low,NA,NA,NA,NA,NA,NA,NA,false
9RHfQKCv,3en4yvuovf59wipgxxflzhxwdchjxp,3j2uybxqqppryh2s141r6j170oj06y,9RHfQKCv,2020-0188,2020-05-08,09:56:45,10:11:31,NA,incomplete,89,shape,1,left,Green_Star_Chess_2.jpg,Blue_Star_Dots_1.jpg,Red_Triangle_Grid_2.jpg,left,702.0499999634922,true,low,NA,NA,NA,NA,NA,NA,NA,false
9RHfQKCv,3en4yvuovf59wipgxxflzhxwdchjxp,3j2uybxqqppryh2s141r6j170oj06y,9RHfQKCv,2020-0188,2020-05-08,09:56:45,10:11:31,NA,incomplete,90,number,0,left,Red_Circle_Dots_4.jpg,Green_Triangle_Grid_4.jpg,Blue_Circle_Stripes_3.jpg,right,636.519999941811,false,low,NA,NA,NA,NA,NA,NA,NA,false
9RHfQKCv,3en4yvuovf59wipgxxflzhxwdchjxp,3j2uybxqqppryh2s141r6j170oj06y,9RHfQKCv,2020-0188,2020-05-08,09:56:45,10:11:31,NA,incomplete,91,number,0,left,Blue_Star_Grid_3.jpg,Red_Circle_Chess_3.jpg,Purple_Star_Dots_2.jpg,right,560.7999998610467,false,low,NA,NA,NA,NA,NA,NA,NA,false
9RHfQKCv,3en4yvuovf59wipgxxflzhxwdchjxp,3j2uybxqqppryh2s141r6j170oj06y,9RHfQKCv,2020-0188,2020-05-08,09:56:45,10:11:31,NA,incomplete,92,number,1,left,Purple_Star_Chess_2.jpg,Red_Circle_Grid_2.jpg,Blue_Star_Stripes_4.jpg,right,534.684999845922,false,low,NA,NA,NA,NA,NA,NA,NA,false
9RHfQKCv,3en4yvuovf59wipgxxflzhxwdchjxp,3j2uybxqqppryh2s141r6j170oj06y,9RHfQKCv,2020-0188,2020-05-08,09:56:45,10:11:31,NA,incomplete,93,number,1,left,Green_Star_Stripes_3.jpg,Blue_Triangle_Chess_3.jpg,Purple_Star_Dots_4.jpg,right,613.7800000142306,false,low,NA,NA,NA,NA,NA,NA,NA,false
9RHfQKCv,3en4yvuovf59wipgxxflzhxwdchjxp,3j2uybxqqppryh2s141r6j170oj06y,9RHfQKCv,2020-0188,2020-05-08,09:56:45,10:11:31,NA,incomplete,94,number,0,right,Green_Triangle_Grid_1.jpg,Purple_Triangle_Dots_2.jpg,Blue_Plus_Chess_1.jpg,left,690.1200001593679,false,low,NA,NA,NA,NA,NA,NA,NA,false
9RHfQKCv,3en4yvuovf59wipgxxflzhxwdchjxp,3j2uybxqqppryh2s141r6j170oj06y,9RHfQKCv,2020-0188,2020-05-08,09:56:45,10:11:31,NA,incomplete,95,number,1,right,Green_Triangle_Dots_2.jpg,Purple_Triangle_Chess_4.jpg,Red_Plus_Grid_2.jpg,left,578.429999994114,false,low,NA,NA,NA,NA,NA,NA,NA,false
9RHfQKCv,3en4yvuovf59wipgxxflzhxwdchjxp,3j2uybxqqppryh2s141r6j170oj06y,9RHfQKCv,2020-0188,2020-05-08,09:56:45,10:11:31,NA,incomplete,96,number,1,right,Green_Triangle_Stripes_1.jpg,Red_Triangle_Chess_4.jpg,Blue_Star_Grid_1.jpg,right,960.2050001267344,true,low,NA,NA,NA,NA,NA,NA,NA,false
9RHfQKCv,3en4yvuovf59wipgxxflzhxwdchjxp,3j2uybxqqppryh2s141r6j170oj06y,9RHfQKCv,2020-0188,2020-05-08,09:56:45,10:11:31,NA,incomplete,97,number,1,right,Blue_Triangle_Chess_2.jpg,Red_Triangle_Stripes_4.jpg,Purple_Circle_Dots_2.jpg,right,726.3200001325458,true,low,NA,NA,NA,NA,NA,NA,NA,false
9RHfQKCv,3en4yvuovf59wipgxxflzhxwdchjxp,3j2uybxqqppryh2s141r6j170oj06y,9RHfQKCv,2020-0188,2020-05-08,09:56:45,10:11:31,NA,incomplete,98,number,0,right,Blue_Star_Chess_4.jpg,Red_Star_Dots_1.jpg,Purple_Triangle_Stripes_4.jpg,left,805.6000000797212,false,low,NA,NA,NA,NA,NA,NA,NA,false
9RHfQKCv,3en4yvuovf59wipgxxflzhxwdchjxp,3j2uybxqqppryh2s141r6j170oj06y,9RHfQKCv,2020-0188,2020-05-08,09:56:45,10:11:31,NA,incomplete,99,number,0,left,Red_Circle_Stripes_2.jpg,Blue_Plus_Dots_2.jpg,Purple_Circle_Chess_3.jpg,left,713.9449999667704,true,low,NA,NA,NA,NA,NA,NA,NA,false
9RHfQKCv,3en4yvuovf59wipgxxflzhxwdchjxp,3j2uybxqqppryh2s141r6j170oj06y,9RHfQKCv,2020-0188,2020-05-08,09:56:45,10:11:31,NA,incomplete,100,number,1,left,Red_Star_Stripes_1.jpg,Purple_Circle_Dots_1.jpg,Green_Star_Grid_2.jpg,left,697.9400001000613,true,low,NA,NA,NA,NA,NA,NA,NA,false
9RHfQKCv,3en4yvuovf59wipgxxflzhxwdchjxp,3j2uybxqqppryh2s141r6j170oj06y,9RHfQKCv,2020-0188,2020-05-08,09:56:45,10:11:31,NA,incomplete,101,number,0,right,Purple_Star_Chess_3.jpg,Green_Star_Stripes_2.jpg,Blue_Triangle_Dots_3.jpg,right,746.6949999798089,true,low,NA,NA,NA,NA,NA,NA,NA,false
9RHfQKCv,3en4yvuovf59wipgxxflzhxwdchjxp,3j2uybxqqppryh2s141r6j170oj06y,9RHfQKCv,2020-0188,2020-05-08,09:56:45,10:11:31,NA,incomplete,102,number,1,right,Green_Circle_Chess_3.jpg,Red_Circle_Dots_2.jpg,Blue_Star_Stripes_3.jpg,right,673.2050001155585,true,low,NA,NA,NA,NA,NA,NA,NA,false
9RHfQKCv,3en4yvuovf59wipgxxflzhxwdchjxp,3j2uybxqqppryh2s141r6j170oj06y,9RHfQKCv,2020-0188,2020-05-08,09:56:45,10:11:31,NA,incomplete,103,number,1,right,Blue_Star_Dots_1.jpg,Green_Star_Stripes_3.jpg,Purple_Circle_Grid_1.jpg,right,794.8999998625368,true,low,NA,NA,NA,NA,NA,NA,NA,false
9RHfQKCv,3en4yvuovf59wipgxxflzhxwdchjxp,3j2uybxqqppryh2s141r6j170oj06y,9RHfQKCv,2020-0188,2020-05-08,09:56:45,10:11:31,NA,incomplete,104,number,1,left,Red_Triangle_Stripes_1.jpg,Blue_Plus_Grid_1.jpg,Green_Triangle_Dots_4.jpg,left,607.9249999020249,true,low,NA,NA,NA,NA,NA,NA,NA,false
9RHfQKCv,3en4yvuovf59wipgxxflzhxwdchjxp,3j2uybxqqppryh2s141r6j170oj06y,9RHfQKCv,2020-0188,2020-05-08,09:56:45,10:11:31,NA,incomplete,105,number,0,left,Blue_Star_Grid_3.jpg,Green_Triangle_Dots_3.jpg,Red_Star_Chess_2.jpg,left,659.8699998576194,true,low,NA,NA,NA,NA,NA,NA,NA,false
9RHfQKCv,3en4yvuovf59wipgxxflzhxwdchjxp,3j2uybxqqppryh2s141r6j170oj06y,9RHfQKCv,2020-0188,2020-05-08,09:56:45,10:11:31,NA,incomplete,106,number,1,right,Red_Plus_Dots_4.jpg,Purple_Plus_Grid_2.jpg,Blue_Star_Stripes_4.jpg,right,701.9749998580664,true,low,NA,NA,NA,NA,NA,NA,NA,false
9RHfQKCv,3en4yvuovf59wipgxxflzhxwdchjxp,3j2uybxqqppryh2s141r6j170oj06y,9RHfQKCv,2020-0188,2020-05-08,09:56:45,10:11:31,NA,incomplete,107,number,0,right,Green_Plus_Dots_3.jpg,Purple_Plus_Stripes_1.jpg,Blue_Star_Grid_3.jpg,right,662.3100000433624,true,low,NA,NA,NA,NA,NA,NA,NA,false
9RHfQKCv,3en4yvuovf59wipgxxflzhxwdchjxp,3j2uybxqqppryh2s141r6j170oj06y,9RHfQKCv,2020-0188,2020-05-08,09:56:45,10:11:31,NA,incomplete,108,number,1,right,Red_Plus_Grid_4.jpg,Purple_Plus_Stripes_2.jpg,Green_Circle_Chess_4.jpg,right,728.1899999361485,true,low,NA,NA,NA,NA,NA,NA,NA,false
9RHfQKCv,3en4yvuovf59wipgxxflzhxwdchjxp,3j2uybxqqppryh2s141r6j170oj06y,9RHfQKCv,2020-0188,2020-05-08,09:56:45,10:11:31,NA,incomplete,109,number,1,left,Blue_Triangle_Stripes_2.jpg,Green_Plus_Chess_2.jpg,Purple_Triangle_Grid_1.jpg,left,712.1099999640137,true,low,NA,NA,NA,NA,NA,NA,NA,false
9RHfQKCv,3en4yvuovf59wipgxxflzhxwdchjxp,3j2uybxqqppryh2s141r6j170oj06y,9RHfQKCv,2020-0188,2020-05-08,09:56:45,10:11:31,NA,incomplete,110,number,1,left,Purple_Star_Stripes_2.jpg,Green_Circle_Chess_2.jpg,Blue_Star_Dots_1.jpg,left,639.9449999444187,true,low,NA,NA,NA,NA,NA,NA,NA,false
9RHfQKCv,3en4yvuovf59wipgxxflzhxwdchjxp,3j2uybxqqppryh2s141r6j170oj06y,9RHfQKCv,2020-0188,2020-05-08,09:56:45,10:11:31,NA,incomplete,111,number,1,left,Blue_Circle_Stripes_2.jpg,Green_Plus_Grid_2.jpg,Purple_Circle_Chess_3.jpg,left,618.5350001323968,true,low,NA,NA,NA,NA,NA,NA,NA,false
9RHfQKCv,3en4yvuovf59wipgxxflzhxwdchjxp,3j2uybxqqppryh2s141r6j170oj06y,9RHfQKCv,2020-0188,2020-05-08,09:56:45,10:11:31,NA,incomplete,112,number,1,left,Purple_Plus_Grid_2.jpg,Red_Triangle_Chess_2.jpg,Blue_Plus_Dots_4.jpg,left,573.9749998319894,true,low,NA,NA,NA,NA,NA,NA,NA,false
9RHfQKCv,3en4yvuovf59wipgxxflzhxwdchjxp,3j2uybxqqppryh2s141r6j170oj06y,9RHfQKCv,2020-0188,2020-05-08,09:56:45,10:11:31,NA,incomplete,113,number,1,left,Purple_Circle_Chess_3.jpg,Red_Star_Dots_3.jpg,Blue_Circle_Stripes_2.jpg,left,795.5750001128763,true,low,NA,NA,NA,NA,NA,NA,NA,false
9RHfQKCv,3en4yvuovf59wipgxxflzhxwdchjxp,3j2uybxqqppryh2s141r6j170oj06y,9RHfQKCv,2020-0188,2020-05-08,09:56:45,10:11:31,NA,incomplete,114,number,1,left,Green_Circle_Grid_2.jpg,Purple_Triangle_Dots_2.jpg,Red_Circle_Chess_3.jpg,left,624.4700001552701,true,low,NA,NA,NA,NA,NA,NA,NA,false
9RHfQKCv,3en4yvuovf59wipgxxflzhxwdchjxp,3j2uybxqqppryh2s141r6j170oj06y,9RHfQKCv,2020-0188,2020-05-08,09:56:45,10:11:31,NA,incomplete,115,number,1,right,Blue_Star_Grid_2.jpg,Purple_Star_Stripes_1.jpg,Red_Triangle_Chess_2.jpg,right,603.7949998863041,true,low,NA,NA,NA,NA,NA,NA,NA,false
9RHfQKCv,3en4yvuovf59wipgxxflzhxwdchjxp,3j2uybxqqppryh2s141r6j170oj06y,9RHfQKCv,2020-0188,2020-05-08,09:56:45,10:11:31,NA,incomplete,116,number,1,right,Purple_Circle_Chess_3.jpg,Red_Circle_Stripes_2.jpg,Blue_Triangle_Grid_3.jpg,right,591.7549999430776,true,low,NA,NA,NA,NA,NA,NA,NA,false
9RHfQKCv,3en4yvuovf59wipgxxflzhxwdchjxp,3j2uybxqqppryh2s141r6j170oj06y,9RHfQKCv,2020-0188,2020-05-08,09:56:45,10:11:31,NA,incomplete,117,number,0,left,Blue_Star_Chess_4.jpg,Red_Circle_Dots_4.jpg,Purple_Star_Grid_3.jpg,left,716.5550000499934,true,low,NA,NA,NA,NA,NA,NA,NA,false
9RHfQKCv,3en4yvuovf59wipgxxflzhxwdchjxp,3j2uybxqqppryh2s141r6j170oj06y,9RHfQKCv,2020-0188,2020-05-08,09:56:45,10:11:31,NA,incomplete,118,number,1,left,Purple_Circle_Stripes_3.jpg,Green_Star_Chess_3.jpg,Red_Circle_Dots_1.jpg,left,580.5649999529123,true,low,NA,NA,NA,NA,NA,NA,NA,false
9RHfQKCv,3en4yvuovf59wipgxxflzhxwdchjxp,3j2uybxqqppryh2s141r6j170oj06y,9RHfQKCv,2020-0188,2020-05-08,09:56:45,10:11:31,NA,incomplete,119,number,1,right,Red_Circle_Chess_4.jpg,Purple_Circle_Stripes_1.jpg,Green_Triangle_Dots_4.jpg,right,554.2399999685585,true,low,NA,NA,NA,NA,NA,NA,NA,false
9RHfQKCv,3en4yvuovf59wipgxxflzhxwdchjxp,3j2uybxqqppryh2s141r6j170oj06y,9RHfQKCv,2020-0188,2020-05-08,09:56:45,10:11:31,NA,incomplete,120,shape,1,right,Blue_Triangle_Stripes_2.jpg,Green_Star_Chess_2.jpg,Purple_Triangle_Dots_1.jpg,left,576.3100001495332,false,low,NA,NA,NA,NA,NA,NA,NA,false
9RHfQKCv,3en4yvuovf59wipgxxflzhxwdchjxp,3j2uybxqqppryh2s141r6j170oj06y,9RHfQKCv,2020-0188,2020-05-08,09:56:45,10:11:31,NA,incomplete,121,shape,1,right,Green_Circle_Stripes_4.jpg,Purple_Star_Dots_4.jpg,Blue_Circle_Grid_1.jpg,left,613.6650000698864,false,low,NA,NA,NA,NA,NA,NA,NA,false
9RHfQKCv,3en4yvuovf59wipgxxflzhxwdchjxp,3j2uybxqqppryh2s141r6j170oj06y,9RHfQKCv,2020-0188,2020-05-08,09:56:45,10:11:31,NA,incomplete,122,shape,0,left,Blue_Triangle_Stripes_4.jpg,Green_Triangle_Grid_3.jpg,Purple_Plus_Dots_4.jpg,right,633.8349999859929,false,low,NA,NA,NA,NA,NA,NA,NA,false
9RHfQKCv,3en4yvuovf59wipgxxflzhxwdchjxp,3j2uybxqqppryh2s141r6j170oj06y,9RHfQKCv,2020-0188,2020-05-08,09:56:45,10:11:31,NA,incomplete,123,shape,1,left,Blue_Circle_Chess_4.jpg,Purple_Circle_Dots_1.jpg,Green_Plus_Grid_4.jpg,right,668.2800000999123,false,low,NA,NA,NA,NA,NA,NA,NA,false
9RHfQKCv,3en4yvuovf59wipgxxflzhxwdchjxp,3j2uybxqqppryh2s141r6j170oj06y,9RHfQKCv,2020-0188,2020-05-08,09:56:45,10:11:31,NA,incomplete,124,shape,0,left,Purple_Circle_Grid_3.jpg,Green_Circle_Stripes_4.jpg,Blue_Star_Dots_3.jpg,right,766.2599999457598,false,low,NA,NA,NA,NA,NA,NA,NA,false
9RHfQKCv,3en4yvuovf59wipgxxflzhxwdchjxp,3j2uybxqqppryh2s141r6j170oj06y,9RHfQKCv,2020-0188,2020-05-08,09:56:45,10:11:31,NA,incomplete,125,shape,1,right,Purple_Star_Chess_1.jpg,Blue_Plus_Grid_1.jpg,Green_Star_Dots_3.jpg,left,564.2550000920892,false,low,NA,NA,NA,NA,NA,NA,NA,false
9RHfQKCv,3en4yvuovf59wipgxxflzhxwdchjxp,3j2uybxqqppryh2s141r6j170oj06y,9RHfQKCv,2020-0188,2020-05-08,09:56:45,10:11:31,NA,incomplete,126,shape,1,left,Blue_Circle_Dots_4.jpg,Red_Circle_Grid_2.jpg,Purple_Plus_Chess_4.jpg,right,658.3100000862032,false,low,NA,NA,NA,NA,NA,NA,NA,false
9RHfQKCv,3en4yvuovf59wipgxxflzhxwdchjxp,3j2uybxqqppryh2s141r6j170oj06y,9RHfQKCv,2020-0188,2020-05-08,09:56:45,10:11:31,NA,incomplete,127,shape,1,right,Red_Triangle_Stripes_4.jpg,Blue_Plus_Grid_4.jpg,Purple_Triangle_Chess_3.jpg,right,964.4249998964369,true,low,NA,NA,NA,NA,NA,NA,NA,false
9RHfQKCv,3en4yvuovf59wipgxxflzhxwdchjxp,3j2uybxqqppryh2s141r6j170oj06y,9RHfQKCv,2020-0188,2020-05-08,09:56:45,10:11:31,NA,incomplete,128,shape,1,right,Red_Circle_Chess_4.jpg,Blue_Star_Dots_4.jpg,Green_Circle_Stripes_2.jpg,right,746.6400000266731,true,low,NA,NA,NA,NA,NA,NA,NA,false
9RHfQKCv,3en4yvuovf59wipgxxflzhxwdchjxp,3j2uybxqqppryh2s141r6j170oj06y,9RHfQKCv,2020-0188,2020-05-08,09:56:45,10:11:31,NA,incomplete,129,shape,0,left,Green_Plus_Dots_3.jpg,Blue_Plus_Grid_4.jpg,Purple_Circle_Stripes_3.jpg,left,945.720000192523,true,low,NA,NA,NA,NA,NA,NA,NA,false
9RHfQKCv,3en4yvuovf59wipgxxflzhxwdchjxp,3j2uybxqqppryh2s141r6j170oj06y,9RHfQKCv,2020-0188,2020-05-08,09:56:45,10:11:31,NA,incomplete,130,shape,1,left,Purple_Plus_Stripes_2.jpg,Blue_Plus_Grid_1.jpg,Red_Circle_Dots_2.jpg,left,592.3249998595566,true,low,NA,NA,NA,NA,NA,NA,NA,false
9RHfQKCv,3en4yvuovf59wipgxxflzhxwdchjxp,3j2uybxqqppryh2s141r6j170oj06y,9RHfQKCv,2020-0188,2020-05-08,09:56:45,10:11:31,NA,incomplete,131,shape,1,left,Blue_Triangle_Stripes_4.jpg,Purple_Triangle_Dots_1.jpg,Red_Circle_Chess_4.jpg,right,597.1399999689311,false,low,NA,NA,NA,NA,NA,NA,NA,false
9RHfQKCv,3en4yvuovf59wipgxxflzhxwdchjxp,3j2uybxqqppryh2s141r6j170oj06y,9RHfQKCv,2020-0188,2020-05-08,09:56:45,10:11:31,NA,incomplete,132,shape,1,right,Purple_Plus_Stripes_2.jpg,Red_Circle_Chess_2.jpg,Green_Plus_Dots_4.jpg,right,657.4899998959154,true,low,NA,NA,NA,NA,NA,NA,NA,false
9RHfQKCv,3en4yvuovf59wipgxxflzhxwdchjxp,3j2uybxqqppryh2s141r6j170oj06y,9RHfQKCv,2020-0188,2020-05-08,09:56:45,10:11:31,NA,incomplete,133,shape,1,left,Green_Triangle_Stripes_1.jpg,Purple_Triangle_Grid_3.jpg,Blue_Star_Dots_1.jpg,left,555.835000006482,true,low,NA,NA,NA,NA,NA,NA,NA,false
9RHfQKCv,3en4yvuovf59wipgxxflzhxwdchjxp,3j2uybxqqppryh2s141r6j170oj06y,9RHfQKCv,2020-0188,2020-05-08,09:56:45,10:11:31,NA,incomplete,134,shape,1,left,Blue_Star_Grid_1.jpg,Green_Star_Chess_3.jpg,Purple_Circle_Dots_1.jpg,left,538.1899999920279,true,low,NA,NA,NA,NA,NA,NA,NA,false
9RHfQKCv,3en4yvuovf59wipgxxflzhxwdchjxp,3j2uybxqqppryh2s141r6j170oj06y,9RHfQKCv,2020-0188,2020-05-08,09:56:45,10:11:31,NA,incomplete,135,shape,1,left,Green_Triangle_Dots_2.jpg,Purple_Triangle_Stripes_4.jpg,Blue_Circle_Chess_2.jpg,left,568.5499999672174,true,low,NA,NA,NA,NA,NA,NA,NA,false
9RHfQKCv,3en4yvuovf59wipgxxflzhxwdchjxp,3j2uybxqqppryh2s141r6j170oj06y,9RHfQKCv,2020-0188,2020-05-08,09:56:45,10:11:31,NA,incomplete,136,shape,1,right,Blue_Plus_Stripes_3.jpg,Red_Triangle_Grid_3.jpg,Purple_Plus_Chess_4.jpg,right,638.1899998523295,true,low,NA,NA,NA,NA,NA,NA,NA,false
9RHfQKCv,3en4yvuovf59wipgxxflzhxwdchjxp,3j2uybxqqppryh2s141r6j170oj06y,9RHfQKCv,2020-0188,2020-05-08,09:56:45,10:11:31,NA,incomplete,137,shape,1,right,Purple_Triangle_Chess_2.jpg,Green_Circle_Stripes_2.jpg,Red_Triangle_Grid_4.jpg,right,617.0850000344217,true,low,NA,NA,NA,NA,NA,NA,NA,false
9RHfQKCv,3en4yvuovf59wipgxxflzhxwdchjxp,3j2uybxqqppryh2s141r6j170oj06y,9RHfQKCv,2020-0188,2020-05-08,09:56:45,10:11:31,NA,incomplete,138,shape,1,left,Red_Circle_Dots_2.jpg,Purple_Circle_Grid_4.jpg,Green_Star_Stripes_2.jpg,left,516.4749999530613,true,low,NA,NA,NA,NA,NA,NA,NA,false
9RHfQKCv,3en4yvuovf59wipgxxflzhxwdchjxp,3j2uybxqqppryh2s141r6j170oj06y,9RHfQKCv,2020-0188,2020-05-08,09:56:45,10:11:31,NA,incomplete,139,shape,1,left,Purple_Circle_Dots_3.jpg,Green_Circle_Chess_4.jpg,Red_Plus_Grid_3.jpg,left,588.8399998657405,true,low,NA,NA,NA,NA,NA,NA,NA,false
9RHfQKCv,3en4yvuovf59wipgxxflzhxwdchjxp,3j2uybxqqppryh2s141r6j170oj06y,9RHfQKCv,2020-0188,2020-05-08,09:56:45,10:11:31,NA,incomplete,140,number,0,right,Green_Circle_Dots_4.jpg,Blue_Circle_Chess_1.jpg,Purple_Triangle_Grid_4.jpg,left,617.1399999875575,false,low,NA,NA,NA,NA,NA,NA,NA,false
9RHfQKCv,3en4yvuovf59wipgxxflzhxwdchjxp,3j2uybxqqppryh2s141r6j170oj06y,9RHfQKCv,2020-0188,2020-05-08,09:56:45,10:11:31,NA,incomplete,141,number,1,right,Red_Triangle_Stripes_3.jpg,Purple_Triangle_Dots_2.jpg,Blue_Circle_Chess_3.jpg,left,628.5300001036376,false,low,NA,NA,NA,NA,NA,NA,NA,false
9RHfQKCv,3en4yvuovf59wipgxxflzhxwdchjxp,3j2uybxqqppryh2s141r6j170oj06y,9RHfQKCv,2020-0188,2020-05-08,09:56:45,10:11:31,NA,incomplete,142,number,0,right,Red_Plus_Stripes_4.jpg,Purple_Plus_Dots_2.jpg,Green_Triangle_Chess_4.jpg,left,672.495000064373,false,low,NA,NA,NA,NA,NA,NA,NA,false
9RHfQKCv,3en4yvuovf59wipgxxflzhxwdchjxp,3j2uybxqqppryh2s141r6j170oj06y,9RHfQKCv,2020-0188,2020-05-08,09:56:45,10:11:31,NA,incomplete,143,number,1,right,Purple_Plus_Stripes_2.jpg,Green_Plus_Dots_3.jpg,Red_Star_Grid_2.jpg,left,577.7400000952184,false,low,NA,NA,NA,NA,NA,NA,NA,false
9RHfQKCv,3en4yvuovf59wipgxxflzhxwdchjxp,3j2uybxqqppryh2s141r6j170oj06y,9RHfQKCv,2020-0188,2020-05-08,09:56:45,10:11:31,NA,incomplete,144,number,1,right,Blue_Plus_Grid_3.jpg,Red_Plus_Dots_4.jpg,Purple_Star_Chess_3.jpg,left,502.4600001052022,false,low,NA,NA,NA,NA,NA,NA,NA,false
9RHfQKCv,3en4yvuovf59wipgxxflzhxwdchjxp,3j2uybxqqppryh2s141r6j170oj06y,9RHfQKCv,2020-0188,2020-05-08,09:56:45,10:11:31,NA,incomplete,145,number,1,left,Blue_Star_Chess_2.jpg,Red_Plus_Dots_2.jpg,Green_Star_Grid_1.jpg,left,855.4599999915808,true,low,NA,NA,NA,NA,NA,NA,NA,false
9RHfQKCv,3en4yvuovf59wipgxxflzhxwdchjxp,3j2uybxqqppryh2s141r6j170oj06y,9RHfQKCv,2020-0188,2020-05-08,09:56:45,10:11:31,NA,incomplete,146,number,1,right,Green_Circle_Dots_3.jpg,Red_Circle_Grid_2.jpg,Blue_Plus_Chess_3.jpg,right,753.3799998927861,true,low,NA,NA,NA,NA,NA,NA,NA,false
9RHfQKCv,3en4yvuovf59wipgxxflzhxwdchjxp,3j2uybxqqppryh2s141r6j170oj06y,9RHfQKCv,2020-0188,2020-05-08,09:56:45,10:11:31,NA,incomplete,147,number,1,left,Purple_Circle_Dots_2.jpg,Green_Star_Chess_2.jpg,Blue_Circle_Grid_4.jpg,left,759.3349998351187,true,low,NA,NA,NA,NA,NA,NA,NA,false
9RHfQKCv,3en4yvuovf59wipgxxflzhxwdchjxp,3j2uybxqqppryh2s141r6j170oj06y,9RHfQKCv,2020-0188,2020-05-08,09:56:45,10:11:31,NA,incomplete,148,number,1,left,Blue_Star_Dots_4.jpg,Red_Triangle_Stripes_4.jpg,Green_Star_Chess_2.jpg,left,605.4750001057982,true,low,NA,NA,NA,NA,NA,NA,NA,false
9RHfQKCv,3en4yvuovf59wipgxxflzhxwdchjxp,3j2uybxqqppryh2s141r6j170oj06y,9RHfQKCv,2020-0188,2020-05-08,09:56:45,10:11:31,NA,incomplete,149,number,0,left,Blue_Circle_Stripes_3.jpg,Purple_Star_Dots_3.jpg,Red_Circle_Chess_1.jpg,left,657.8999999910593,true,low,NA,NA,NA,NA,NA,NA,NA,false
9RHfQKCv,3en4yvuovf59wipgxxflzhxwdchjxp,3j2uybxqqppryh2s141r6j170oj06y,9RHfQKCv,2020-0188,2020-05-08,09:56:45,10:11:31,NA,incomplete,150,number,1,left,Green_Triangle_Chess_3.jpg,Purple_Star_Dots_3.jpg,Blue_Triangle_Stripes_2.jpg,left,715.8650001510978,true,low,NA,NA,NA,NA,NA,NA,NA,false
9RHfQKCv,3en4yvuovf59wipgxxflzhxwdchjxp,3j2uybxqqppryh2s141r6j170oj06y,9RHfQKCv,2020-0188,2020-05-08,09:56:45,10:11:31,NA,incomplete,151,number,0,right,Blue_Triangle_Stripes_2.jpg,Green_Triangle_Grid_3.jpg,Red_Star_Dots_2.jpg,right,619.9400001205504,true,low,NA,NA,NA,NA,NA,NA,NA,false
9RHfQKCv,3en4yvuovf59wipgxxflzhxwdchjxp,3j2uybxqqppryh2s141r6j170oj06y,9RHfQKCv,2020-0188,2020-05-08,09:56:45,10:11:31,NA,incomplete,152,number,1,left,Green_Plus_Grid_4.jpg,Blue_Circle_Chess_4.jpg,Red_Plus_Dots_3.jpg,left,751.274999929592,true,low,NA,NA,NA,NA,NA,NA,NA,false
9RHfQKCv,3en4yvuovf59wipgxxflzhxwdchjxp,3j2uybxqqppryh2s141r6j170oj06y,9RHfQKCv,2020-0188,2020-05-08,09:56:45,10:11:31,NA,incomplete,153,number,1,left,Red_Star_Stripes_2.jpg,Blue_Plus_Chess_2.jpg,Purple_Star_Dots_1.jpg,left,581.5550000406802,true,low,NA,NA,NA,NA,NA,NA,NA,false
9RHfQKCv,3en4yvuovf59wipgxxflzhxwdchjxp,3j2uybxqqppryh2s141r6j170oj06y,9RHfQKCv,2020-0188,2020-05-08,09:56:45,10:11:31,NA,incomplete,154,number,0,left,Purple_Triangle_Dots_3.jpg,Green_Star_Chess_3.jpg,Red_Triangle_Stripes_4.jpg,left,675.4300000611693,true,low,NA,NA,NA,NA,NA,NA,NA,false
9RHfQKCv,3en4yvuovf59wipgxxflzhxwdchjxp,3j2uybxqqppryh2s141r6j170oj06y,9RHfQKCv,2020-0188,2020-05-08,09:56:45,10:11:31,NA,incomplete,155,number,1,left,Red_Circle_Dots_2.jpg,Purple_Triangle_Stripes_2.jpg,Green_Circle_Chess_1.jpg,right,636.3999999593943,false,low,NA,NA,NA,NA,NA,NA,NA,false
9RHfQKCv,3en4yvuovf59wipgxxflzhxwdchjxp,3j2uybxqqppryh2s141r6j170oj06y,9RHfQKCv,2020-0188,2020-05-08,09:56:45,10:11:31,NA,incomplete,156,number,1,right,Green_Triangle_Dots_4.jpg,Purple_Triangle_Stripes_1.jpg,Blue_Star_Chess_4.jpg,right,631.3249999657273,true,low,NA,NA,NA,NA,NA,NA,NA,false
9RHfQKCv,3en4yvuovf59wipgxxflzhxwdchjxp,3j2uybxqqppryh2s141r6j170oj06y,9RHfQKCv,2020-0188,2020-05-08,09:56:45,10:11:31,NA,incomplete,157,number,1,right,Green_Circle_Stripes_1.jpg,Red_Circle_Dots_4.jpg,Blue_Triangle_Grid_1.jpg,right,826.6000000294298,true,low,NA,NA,NA,NA,NA,NA,NA,false
9RHfQKCv,3en4yvuovf59wipgxxflzhxwdchjxp,3j2uybxqqppryh2s141r6j170oj06y,9RHfQKCv,2020-0188,2020-05-08,09:56:45,10:11:31,NA,incomplete,158,number,1,right,Green_Circle_Grid_4.jpg,Red_Circle_Stripes_3.jpg,Purple_Plus_Chess_4.jpg,right,718.1049999780953,true,low,NA,NA,NA,NA,NA,NA,NA,false
9RHfQKCv,3en4yvuovf59wipgxxflzhxwdchjxp,3j2uybxqqppryh2s141r6j170oj06y,9RHfQKCv,2020-0188,2020-05-08,09:56:45,10:11:31,NA,incomplete,159,number,0,left,Green_Circle_Stripes_2.jpg,Red_Triangle_Dots_2.jpg,Purple_Circle_Chess_3.jpg,left,646.0000001825392,true,low,NA,NA,NA,NA,NA,NA,NA,false
9RHfQKCv,3en4yvuovf59wipgxxflzhxwdchjxp,3j2uybxqqppryh2s141r6j170oj06y,9RHfQKCv,2020-0188,2020-05-08,09:56:45,10:11:31,NA,incomplete,160,shape,1,left,Blue_Circle_Stripes_3.jpg,Green_Circle_Dots_1.jpg,Red_Plus_Chess_3.jpg,right,664.3149999435991,false,low,NA,NA,NA,NA,NA,NA,NA,false
9RHfQKCv,3en4yvuovf59wipgxxflzhxwdchjxp,3j2uybxqqppryh2s141r6j170oj06y,9RHfQKCv,2020-0188,2020-05-08,09:56:45,10:11:31,NA,incomplete,161,shape,1,right,Blue_Triangle_Dots_1.jpg,Purple_Star_Stripes_1.jpg,Red_Triangle_Chess_2.jpg,left,530.3549999371171,false,low,NA,NA,NA,NA,NA,NA,NA,false
9RHfQKCv,3en4yvuovf59wipgxxflzhxwdchjxp,3j2uybxqqppryh2s141r6j170oj06y,9RHfQKCv,2020-0188,2020-05-08,09:56:45,10:11:31,NA,incomplete,162,shape,1,left,Blue_Plus_Chess_4.jpg,Red_Plus_Grid_2.jpg,Green_Star_Stripes_4.jpg,left,849.8050000052899,true,low,NA,NA,NA,NA,NA,NA,NA,false
9RHfQKCv,3en4yvuovf59wipgxxflzhxwdchjxp,3j2uybxqqppryh2s141r6j170oj06y,9RHfQKCv,2020-0188,2020-05-08,09:56:45,10:11:31,NA,incomplete,163,shape,1,right,Purple_Circle_Chess_4.jpg,Green_Plus_Grid_4.jpg,Blue_Circle_Dots_1.jpg,left,644.8699999600649,false,low,NA,NA,NA,NA,NA,NA,NA,false
9RHfQKCv,3en4yvuovf59wipgxxflzhxwdchjxp,3j2uybxqqppryh2s141r6j170oj06y,9RHfQKCv,2020-0188,2020-05-08,09:56:45,10:11:31,NA,incomplete,164,shape,0,left,Purple_Star_Chess_2.jpg,Red_Star_Dots_4.jpg,Blue_Triangle_Stripes_2.jpg,left,720.2200000174344,true,low,NA,NA,NA,NA,NA,NA,NA,false
9RHfQKCv,3en4yvuovf59wipgxxflzhxwdchjxp,3j2uybxqqppryh2s141r6j170oj06y,9RHfQKCv,2020-0188,2020-05-08,09:56:45,10:11:31,NA,incomplete,165,shape,1,right,Green_Plus_Dots_1.jpg,Blue_Triangle_Grid_1.jpg,Red_Plus_Chess_3.jpg,left,695.0500002130866,false,low,NA,NA,NA,NA,NA,NA,NA,false
9RHfQKCv,3en4yvuovf59wipgxxflzhxwdchjxp,3j2uybxqqppryh2s141r6j170oj06y,9RHfQKCv,2020-0188,2020-05-08,09:56:45,10:11:31,NA,incomplete,166,shape,0,right,Green_Circle_Dots_3.jpg,Purple_Star_Grid_3.jpg,Red_Circle_Chess_2.jpg,right,727.8100000694394,true,low,NA,NA,NA,NA,NA,NA,NA,false
9RHfQKCv,3en4yvuovf59wipgxxflzhxwdchjxp,3j2uybxqqppryh2s141r6j170oj06y,9RHfQKCv,2020-0188,2020-05-08,09:56:45,10:11:31,NA,incomplete,167,shape,1,right,Red_Circle_Stripes_4.jpg,Green_Triangle_Dots_4.jpg,Purple_Circle_Chess_2.jpg,right,743.1950001046062,true,low,NA,NA,NA,NA,NA,NA,NA,false
9RHfQKCv,3en4yvuovf59wipgxxflzhxwdchjxp,3j2uybxqqppryh2s141r6j170oj06y,9RHfQKCv,2020-0188,2020-05-08,09:56:45,10:11:31,NA,incomplete,168,shape,1,right,Green_Circle_Dots_2.jpg,Blue_Plus_Grid_2.jpg,Red_Circle_Stripes_4.jpg,right,548.86500001885,true,low,NA,NA,NA,NA,NA,NA,NA,false
9RHfQKCv,3en4yvuovf59wipgxxflzhxwdchjxp,3j2uybxqqppryh2s141r6j170oj06y,9RHfQKCv,2020-0188,2020-05-08,09:56:45,10:11:31,NA,incomplete,169,shape,1,right,Red_Star_Chess_4.jpg,Green_Circle_Grid_4.jpg,Purple_Star_Stripes_2.jpg,right,973.0799999088049,true,low,NA,NA,NA,NA,NA,NA,NA,false
9RHfQKCv,3en4yvuovf59wipgxxflzhxwdchjxp,3j2uybxqqppryh2s141r6j170oj06y,9RHfQKCv,2020-0188,2020-05-08,09:56:45,10:11:31,NA,incomplete,170,shape,1,right,Green_Circle_Chess_3.jpg,Red_Triangle_Stripes_3.jpg,Blue_Circle_Dots_4.jpg,right,674.3250000290573,true,low,NA,NA,NA,NA,NA,NA,NA,false
9RHfQKCv,3en4yvuovf59wipgxxflzhxwdchjxp,3j2uybxqqppryh2s141r6j170oj06y,9RHfQKCv,2020-0188,2020-05-08,09:56:45,10:11:31,NA,incomplete,171,shape,1,left,Purple_Plus_Chess_4.jpg,Blue_Plus_Stripes_2.jpg,Red_Circle_Grid_4.jpg,left,747.9600000660866,true,low,NA,NA,NA,NA,NA,NA,NA,false
9RHfQKCv,3en4yvuovf59wipgxxflzhxwdchjxp,3j2uybxqqppryh2s141r6j170oj06y,9RHfQKCv,2020-0188,2020-05-08,09:56:45,10:11:31,NA,incomplete,172,shape,1,right,Purple_Plus_Dots_4.jpg,Red_Star_Stripes_4.jpg,Green_Plus_Chess_1.jpg,right,690.595000050962,true,low,NA,NA,NA,NA,NA,NA,NA,false
9RHfQKCv,3en4yvuovf59wipgxxflzhxwdchjxp,3j2uybxqqppryh2s141r6j170oj06y,9RHfQKCv,2020-0188,2020-05-08,09:56:45,10:11:31,NA,incomplete,173,shape,1,left,Red_Plus_Stripes_3.jpg,Blue_Plus_Grid_2.jpg,Green_Circle_Chess_3.jpg,left,611.5099999587983,true,low,NA,NA,NA,NA,NA,NA,NA,false
9RHfQKCv,3en4yvuovf59wipgxxflzhxwdchjxp,3j2uybxqqppryh2s141r6j170oj06y,9RHfQKCv,2020-0188,2020-05-08,09:56:45,10:11:31,NA,incomplete,174,shape,0,left,Purple_Circle_Dots_2.jpg,Red_Circle_Stripes_4.jpg,Blue_Plus_Chess_2.jpg,left,935.8899998478591,true,low,NA,NA,NA,NA,NA,NA,NA,false
9RHfQKCv,3en4yvuovf59wipgxxflzhxwdchjxp,3j2uybxqqppryh2s141r6j170oj06y,9RHfQKCv,2020-0188,2020-05-08,09:56:45,10:11:31,NA,incomplete,175,shape,1,right,Green_Star_Stripes_3.jpg,Purple_Plus_Grid_3.jpg,Blue_Star_Chess_1.jpg,right,726.6400000080466,true,low,NA,NA,NA,NA,NA,NA,NA,false
9RHfQKCv,3en4yvuovf59wipgxxflzhxwdchjxp,3j2uybxqqppryh2s141r6j170oj06y,9RHfQKCv,2020-0188,2020-05-08,09:56:45,10:11:31,NA,incomplete,176,shape,1,right,Purple_Circle_Stripes_3.jpg,Blue_Star_Grid_3.jpg,Red_Circle_Chess_2.jpg,right,574.1099999286234,true,low,NA,NA,NA,NA,NA,NA,NA,false
9RHfQKCv,3en4yvuovf59wipgxxflzhxwdchjxp,3j2uybxqqppryh2s141r6j170oj06y,9RHfQKCv,2020-0188,2020-05-08,09:56:45,10:11:31,NA,incomplete,177,shape,1,left,Red_Triangle_Grid_2.jpg,Purple_Triangle_Stripes_1.jpg,Blue_Plus_Chess_2.jpg,left,587.264999980107,true,low,NA,NA,NA,NA,NA,NA,NA,false
9RHfQKCv,3en4yvuovf59wipgxxflzhxwdchjxp,3j2uybxqqppryh2s141r6j170oj06y,9RHfQKCv,2020-0188,2020-05-08,09:56:45,10:11:31,NA,incomplete,178,shape,0,right,Red_Star_Chess_4.jpg,Blue_Circle_Grid_4.jpg,Purple_Star_Dots_3.jpg,right,544.0499999094754,true,low,NA,NA,NA,NA,NA,NA,NA,false
9RHfQKCv,3en4yvuovf59wipgxxflzhxwdchjxp,3j2uybxqqppryh2s141r6j170oj06y,9RHfQKCv,2020-0188,2020-05-08,09:56:45,10:11:31,NA,incomplete,179,shape,1,right,Blue_Circle_Stripes_1.jpg,Red_Star_Grid_1.jpg,Green_Circle_Chess_2.jpg,right,599.3550000712276,true,low,NA,NA,NA,NA,NA,NA,NA,false
9RHfQKCv,3en4yvuovf59wipgxxflzhxwdchjxp,3j2uybxqqppryh2s141r6j170oj06y,9RHfQKCv,2020-0188,2020-05-08,09:56:45,10:11:31,NA,incomplete,180,number,1,right,Red_Triangle_Dots_3.jpg,Blue_Triangle_Grid_4.jpg,Purple_Star_Chess_3.jpg,left,651.6000002156943,false,low,NA,NA,NA,NA,NA,NA,NA,false
9RHfQKCv,3en4yvuovf59wipgxxflzhxwdchjxp,3j2uybxqqppryh2s141r6j170oj06y,9RHfQKCv,2020-0188,2020-05-08,09:56:45,10:11:31,NA,incomplete,181,number,1,left,Red_Circle_Dots_4.jpg,Purple_Triangle_Stripes_4.jpg,Blue_Circle_Chess_1.jpg,right,565.8850001636893,false,low,NA,NA,NA,NA,NA,NA,NA,false
9RHfQKCv,3en4yvuovf59wipgxxflzhxwdchjxp,3j2uybxqqppryh2s141r6j170oj06y,9RHfQKCv,2020-0188,2020-05-08,09:56:45,10:11:31,NA,incomplete,182,number,1,left,Red_Circle_Stripes_3.jpg,Purple_Star_Chess_3.jpg,Blue_Circle_Grid_1.jpg,right,603.6650000605732,false,low,NA,NA,NA,NA,NA,NA,NA,false
9RHfQKCv,3en4yvuovf59wipgxxflzhxwdchjxp,3j2uybxqqppryh2s141r6j170oj06y,9RHfQKCv,2020-0188,2020-05-08,09:56:45,10:11:31,NA,incomplete,183,number,1,right,Blue_Triangle_Dots_1.jpg,Red_Triangle_Grid_4.jpg,Purple_Circle_Stripes_1.jpg,right,663.7599999085069,true,low,NA,NA,NA,NA,NA,NA,NA,false
9RHfQKCv,3en4yvuovf59wipgxxflzhxwdchjxp,3j2uybxqqppryh2s141r6j170oj06y,9RHfQKCv,2020-0188,2020-05-08,09:56:45,10:11:31,NA,incomplete,184,number,1,right,Green_Triangle_Dots_3.jpg,Purple_Triangle_Chess_2.jpg,Blue_Plus_Grid_3.jpg,left,586.5799998864532,false,low,NA,NA,NA,NA,NA,NA,NA,false
9RHfQKCv,3en4yvuovf59wipgxxflzhxwdchjxp,3j2uybxqqppryh2s141r6j170oj06y,9RHfQKCv,2020-0188,2020-05-08,09:56:45,10:11:31,NA,incomplete,185,number,1,right,Purple_Plus_Grid_2.jpg,Red_Plus_Stripes_3.jpg,Blue_Star_Dots_2.jpg,left,799.0049999207258,false,low,NA,NA,NA,NA,NA,NA,NA,false
9RHfQKCv,3en4yvuovf59wipgxxflzhxwdchjxp,3j2uybxqqppryh2s141r6j170oj06y,9RHfQKCv,2020-0188,2020-05-08,09:56:45,10:11:31,NA,incomplete,186,number,1,right,Green_Star_Dots_1.jpg,Blue_Star_Chess_3.jpg,Purple_Triangle_Grid_1.jpg,right,811.7450000718236,true,low,NA,NA,NA,NA,NA,NA,NA,false
9RHfQKCv,3en4yvuovf59wipgxxflzhxwdchjxp,3j2uybxqqppryh2s141r6j170oj06y,9RHfQKCv,2020-0188,2020-05-08,09:56:45,10:11:31,NA,incomplete,187,number,0,right,Red_Circle_Grid_2.jpg,Green_Circle_Stripes_1.jpg,Blue_Star_Chess_2.jpg,right,951.850000070408,true,low,NA,NA,NA,NA,NA,NA,NA,false
9RHfQKCv,3en4yvuovf59wipgxxflzhxwdchjxp,3j2uybxqqppryh2s141r6j170oj06y,9RHfQKCv,2020-0188,2020-05-08,09:56:45,10:11:31,NA,incomplete,188,number,1,right,Purple_Star_Chess_4.jpg,Green_Star_Dots_1.jpg,Blue_Triangle_Grid_4.jpg,right,701.8699999898672,true,low,NA,NA,NA,NA,NA,NA,NA,false
9RHfQKCv,3en4yvuovf59wipgxxflzhxwdchjxp,3j2uybxqqppryh2s141r6j170oj06y,9RHfQKCv,2020-0188,2020-05-08,09:56:45,10:11:31,NA,incomplete,189,number,0,left,Green_Star_Grid_3.jpg,Purple_Plus_Dots_3.jpg,Red_Star_Chess_4.jpg,left,734.1299999970943,true,low,NA,NA,NA,NA,NA,NA,NA,false
9RHfQKCv,3en4yvuovf59wipgxxflzhxwdchjxp,3j2uybxqqppryh2s141r6j170oj06y,9RHfQKCv,2020-0188,2020-05-08,09:56:45,10:11:31,NA,incomplete,190,number,1,left,Green_Triangle_Stripes_2.jpg,Blue_Circle_Dots_2.jpg,Red_Triangle_Chess_1.jpg,left,725.0350001268089,true,low,NA,NA,NA,NA,NA,NA,NA,false
9RHfQKCv,3en4yvuovf59wipgxxflzhxwdchjxp,3j2uybxqqppryh2s141r6j170oj06y,9RHfQKCv,2020-0188,2020-05-08,09:56:45,10:11:31,NA,incomplete,191,number,1,right,Green_Circle_Dots_2.jpg,Purple_Circle_Stripes_4.jpg,Blue_Star_Grid_2.jpg,right,612.2599998489022,true,low,NA,NA,NA,NA,NA,NA,NA,false
9RHfQKCv,3en4yvuovf59wipgxxflzhxwdchjxp,3j2uybxqqppryh2s141r6j170oj06y,9RHfQKCv,2020-0188,2020-05-08,09:56:45,10:11:31,NA,incomplete,192,number,0,left,Green_Circle_Grid_2.jpg,Purple_Triangle_Chess_2.jpg,Blue_Circle_Dots_4.jpg,left,608.185000019148,true,low,NA,NA,NA,NA,NA,NA,NA,false
9RHfQKCv,3en4yvuovf59wipgxxflzhxwdchjxp,3j2uybxqqppryh2s141r6j170oj06y,9RHfQKCv,2020-0188,2020-05-08,09:56:45,10:11:31,NA,incomplete,193,number,1,right,Red_Plus_Grid_2.jpg,Purple_Plus_Chess_3.jpg,Green_Triangle_Stripes_2.jpg,right,564.4650000613183,true,low,NA,NA,NA,NA,NA,NA,NA,false
9RHfQKCv,3en4yvuovf59wipgxxflzhxwdchjxp,3j2uybxqqppryh2s141r6j170oj06y,9RHfQKCv,2020-0188,2020-05-08,09:56:45,10:11:31,NA,incomplete,194,number,1,left,Purple_Star_Grid_4.jpg,Red_Triangle_Chess_4.jpg,Green_Star_Dots_2.jpg,left,514.9100001435727,true,low,NA,NA,NA,NA,NA,NA,NA,false
9RHfQKCv,3en4yvuovf59wipgxxflzhxwdchjxp,3j2uybxqqppryh2s141r6j170oj06y,9RHfQKCv,2020-0188,2020-05-08,09:56:45,10:11:31,NA,incomplete,195,number,1,left,Green_Triangle_Chess_4.jpg,Blue_Circle_Grid_4.jpg,Purple_Triangle_Dots_3.jpg,left,866.8250001501292,true,low,NA,NA,NA,NA,NA,NA,NA,false
9RHfQKCv,3en4yvuovf59wipgxxflzhxwdchjxp,3j2uybxqqppryh2s141r6j170oj06y,9RHfQKCv,2020-0188,2020-05-08,09:56:45,10:11:31,NA,incomplete,196,number,1,left,Red_Star_Dots_2.jpg,Blue_Triangle_Chess_2.jpg,Green_Star_Stripes_3.jpg,right,620.1200000941753,false,low,NA,NA,NA,NA,NA,NA,NA,false
9RHfQKCv,3en4yvuovf59wipgxxflzhxwdchjxp,3j2uybxqqppryh2s141r6j170oj06y,9RHfQKCv,2020-0188,2020-05-08,09:56:45,10:11:31,NA,incomplete,197,number,1,left,Blue_Circle_Dots_2.jpg,Red_Triangle_Chess_2.jpg,Green_Circle_Stripes_3.jpg,left,631.7950000520796,true,low,NA,NA,NA,NA,NA,NA,NA,false
9RHfQKCv,3en4yvuovf59wipgxxflzhxwdchjxp,3j2uybxqqppryh2s141r6j170oj06y,9RHfQKCv,2020-0188,2020-05-08,09:56:45,10:11:31,NA,incomplete,198,number,1,left,Purple_Circle_Chess_1.jpg,Green_Triangle_Stripes_1.jpg,Blue_Circle_Grid_3.jpg,left,674.9750000890344,true,low,NA,NA,NA,NA,NA,NA,NA,false
9RHfQKCv,3en4yvuovf59wipgxxflzhxwdchjxp,3j2uybxqqppryh2s141r6j170oj06y,9RHfQKCv,2020-0188,2020-05-08,09:56:45,10:11:31,NA,incomplete,199,number,1,right,Purple_Circle_Grid_4.jpg,Red_Circle_Chess_2.jpg,Blue_Plus_Dots_4.jpg,right,596.7699999455363,true,low,NA,NA,NA,NA,NA,NA,NA,false
9RHfQKCv,3en4yvuovf59wipgxxflzhxwdchjxp,3j2uybxqqppryh2s141r6j170oj06y,9RHfQKCv,2020-0188,2020-05-08,09:56:45,10:11:31,NA,incomplete,200,shape,1,right,Blue_Triangle_Grid_2.jpg,Green_Star_Dots_2.jpg,Red_Triangle_Stripes_3.jpg,left,569.2999998573214,false,low,NA,NA,NA,NA,NA,NA,NA,false
9RHfQKCv,3en4yvuovf59wipgxxflzhxwdchjxp,3j2uybxqqppryh2s141r6j170oj06y,9RHfQKCv,2020-0188,2020-05-08,09:56:45,10:11:31,NA,incomplete,201,shape,1,left,Purple_Circle_Stripes_4.jpg,Blue_Circle_Dots_3.jpg,Red_Star_Grid_4.jpg,right,574.7749998699874,false,low,NA,NA,NA,NA,NA,NA,NA,false
9RHfQKCv,3en4yvuovf59wipgxxflzhxwdchjxp,3j2uybxqqppryh2s141r6j170oj06y,9RHfQKCv,2020-0188,2020-05-08,09:56:45,10:11:31,NA,incomplete,202,shape,0,left,Red_Star_Grid_1.jpg,Green_Star_Stripes_4.jpg,Purple_Triangle_Chess_1.jpg,left,820.2949999831617,true,low,NA,NA,NA,NA,NA,NA,NA,false
9RHfQKCv,3en4yvuovf59wipgxxflzhxwdchjxp,3j2uybxqqppryh2s141r6j170oj06y,9RHfQKCv,2020-0188,2020-05-08,09:56:45,10:11:31,NA,incomplete,203,shape,1,right,Green_Triangle_Dots_1.jpg,Red_Circle_Stripes_1.jpg,Purple_Triangle_Chess_2.jpg,left,599.6850000228733,false,low,NA,NA,NA,NA,NA,NA,NA,false
9RHfQKCv,3en4yvuovf59wipgxxflzhxwdchjxp,3j2uybxqqppryh2s141r6j170oj06y,9RHfQKCv,2020-0188,2020-05-08,09:56:45,10:11:31,NA,incomplete,204,shape,1,left,Green_Star_Grid_1.jpg,Blue_Star_Dots_2.jpg,Red_Plus_Stripes_1.jpg,left,668.9850001130253,true,low,NA,NA,NA,NA,NA,NA,NA,false
9RHfQKCv,3en4yvuovf59wipgxxflzhxwdchjxp,3j2uybxqqppryh2s141r6j170oj06y,9RHfQKCv,2020-0188,2020-05-08,09:56:45,10:11:31,NA,incomplete,205,shape,0,left,Red_Triangle_Stripes_4.jpg,Purple_Triangle_Grid_2.jpg,Blue_Star_Dots_4.jpg,left,853.9149998687208,true,low,NA,NA,NA,NA,NA,NA,NA,false
9RHfQKCv,3en4yvuovf59wipgxxflzhxwdchjxp,3j2uybxqqppryh2s141r6j170oj06y,9RHfQKCv,2020-0188,2020-05-08,09:56:45,10:11:31,NA,incomplete,206,shape,1,left,Red_Circle_Grid_2.jpg,Green_Circle_Dots_4.jpg,Purple_Plus_Chess_2.jpg,left,664.0500000212342,true,low,NA,NA,NA,NA,NA,NA,NA,false
9RHfQKCv,3en4yvuovf59wipgxxflzhxwdchjxp,3j2uybxqqppryh2s141r6j170oj06y,9RHfQKCv,2020-0188,2020-05-08,09:56:45,10:11:31,NA,incomplete,207,shape,0,right,Green_Circle_Stripes_1.jpg,Purple_Plus_Dots_1.jpg,Blue_Circle_Grid_2.jpg,right,586.1649999860674,true,low,NA,NA,NA,NA,NA,NA,NA,false
9RHfQKCv,3en4yvuovf59wipgxxflzhxwdchjxp,3j2uybxqqppryh2s141r6j170oj06y,9RHfQKCv,2020-0188,2020-05-08,09:56:45,10:11:31,NA,incomplete,208,shape,1,left,Red_Triangle_Stripes_1.jpg,Purple_Triangle_Grid_3.jpg,Blue_Plus_Dots_1.jpg,left,998.9800001494586,true,low,NA,NA,NA,NA,NA,NA,NA,false
9RHfQKCv,3en4yvuovf59wipgxxflzhxwdchjxp,3j2uybxqqppryh2s141r6j170oj06y,9RHfQKCv,2020-0188,2020-05-08,09:56:45,10:11:31,NA,incomplete,209,shape,1,left,Green_Plus_Grid_4.jpg,Purple_Plus_Dots_3.jpg,Blue_Triangle_Stripes_4.jpg,left,764.0599999576807,true,low,NA,NA,NA,NA,NA,NA,NA,false
9RHfQKCv,3en4yvuovf59wipgxxflzhxwdchjxp,3j2uybxqqppryh2s141r6j170oj06y,9RHfQKCv,2020-0188,2020-05-08,09:56:45,10:11:31,NA,incomplete,210,shape,1,left,Green_Circle_Dots_4.jpg,Red_Circle_Stripes_1.jpg,Purple_Plus_Grid_4.jpg,left,625.6849998608232,true,low,NA,NA,NA,NA,NA,NA,NA,false
9RHfQKCv,3en4yvuovf59wipgxxflzhxwdchjxp,3j2uybxqqppryh2s141r6j170oj06y,9RHfQKCv,2020-0188,2020-05-08,09:56:45,10:11:31,NA,incomplete,211,shape,1,right,Red_Triangle_Chess_2.jpg,Blue_Star_Stripes_2.jpg,Green_Triangle_Dots_3.jpg,right,637.4500000383705,true,low,NA,NA,NA,NA,NA,NA,NA,false
9RHfQKCv,3en4yvuovf59wipgxxflzhxwdchjxp,3j2uybxqqppryh2s141r6j170oj06y,9RHfQKCv,2020-0188,2020-05-08,09:56:45,10:11:31,NA,incomplete,212,shape,0,right,Green_Plus_Stripes_3.jpg,Red_Triangle_Grid_3.jpg,Purple_Plus_Chess_2.jpg,right,639.9900000542402,true,low,NA,NA,NA,NA,NA,NA,NA,false
9RHfQKCv,3en4yvuovf59wipgxxflzhxwdchjxp,3j2uybxqqppryh2s141r6j170oj06y,9RHfQKCv,2020-0188,2020-05-08,09:56:45,10:11:31,NA,incomplete,213,shape,1,left,Blue_Star_Grid_1.jpg,Red_Star_Chess_2.jpg,Purple_Plus_Dots_1.jpg,left,690.849999897182,true,low,NA,NA,NA,NA,NA,NA,NA,false
9RHfQKCv,3en4yvuovf59wipgxxflzhxwdchjxp,3j2uybxqqppryh2s141r6j170oj06y,9RHfQKCv,2020-0188,2020-05-08,09:56:45,10:11:31,NA,incomplete,214,shape,0,right,Blue_Triangle_Chess_3.jpg,Green_Plus_Dots_3.jpg,Red_Triangle_Stripes_4.jpg,right,604.3499999213964,true,low,NA,NA,NA,NA,NA,NA,NA,false
9RHfQKCv,3en4yvuovf59wipgxxflzhxwdchjxp,3j2uybxqqppryh2s141r6j170oj06y,9RHfQKCv,2020-0188,2020-05-08,09:56:45,10:11:31,NA,incomplete,215,shape,1,right,Green_Plus_Stripes_4.jpg,Blue_Star_Chess_4.jpg,Purple_Plus_Grid_2.jpg,left,695.754999993369,false,low,NA,NA,NA,NA,NA,NA,NA,false
9RHfQKCv,3en4yvuovf59wipgxxflzhxwdchjxp,3j2uybxqqppryh2s141r6j170oj06y,9RHfQKCv,2020-0188,2020-05-08,09:56:45,10:11:31,NA,incomplete,216,shape,0,right,Green_Triangle_Chess_2.jpg,Purple_Circle_Stripes_2.jpg,Blue_Triangle_Grid_1.jpg,right,744.5099998731166,true,low,NA,NA,NA,NA,NA,NA,NA,false
9RHfQKCv,3en4yvuovf59wipgxxflzhxwdchjxp,3j2uybxqqppryh2s141r6j170oj06y,9RHfQKCv,2020-0188,2020-05-08,09:56:45,10:11:31,NA,incomplete,217,shape,1,right,Red_Plus_Stripes_2.jpg,Blue_Star_Grid_2.jpg,Green_Plus_Chess_3.jpg,right,655.3899999707937,true,low,NA,NA,NA,NA,NA,NA,NA,false
9RHfQKCv,3en4yvuovf59wipgxxflzhxwdchjxp,3j2uybxqqppryh2s141r6j170oj06y,9RHfQKCv,2020-0188,2020-05-08,09:56:45,10:11:31,NA,incomplete,218,shape,1,right,Blue_Plus_Chess_2.jpg,Red_Circle_Grid_2.jpg,Green_Plus_Dots_1.jpg,left,529.6300000045449,false,low,NA,NA,NA,NA,NA,NA,NA,false
9RHfQKCv,3en4yvuovf59wipgxxflzhxwdchjxp,3j2uybxqqppryh2s141r6j170oj06y,9RHfQKCv,2020-0188,2020-05-08,09:56:45,10:11:31,NA,incomplete,219,shape,1,right,Green_Plus_Grid_4.jpg,Blue_Circle_Stripes_4.jpg,Purple_Plus_Chess_1.jpg,right,633.1849999260157,true,low,NA,NA,NA,NA,NA,NA,NA,false
9RHfQKCv,3en4yvuovf59wipgxxflzhxwdchjxp,3j2uybxqqppryh2s141r6j170oj06y,9RHfQKCv,2020-0188,2020-05-08,09:56:45,10:11:31,NA,incomplete,220,number,1,right,Green_Star_Stripes_1.jpg,Red_Star_Grid_3.jpg,Purple_Circle_Dots_1.jpg,left,596.1700000334531,false,low,NA,NA,NA,NA,NA,NA,NA,false
9RHfQKCv,3en4yvuovf59wipgxxflzhxwdchjxp,3j2uybxqqppryh2s141r6j170oj06y,9RHfQKCv,2020-0188,2020-05-08,09:56:45,10:11:31,NA,incomplete,221,number,1,right,Blue_Plus_Stripes_1.jpg,Red_Plus_Chess_2.jpg,Purple_Circle_Dots_1.jpg,left,665.4700001236051,false,low,NA,NA,NA,NA,NA,NA,NA,false
9RHfQKCv,3en4yvuovf59wipgxxflzhxwdchjxp,3j2uybxqqppryh2s141r6j170oj06y,9RHfQKCv,2020-0188,2020-05-08,09:56:45,10:11:31,NA,incomplete,222,number,1,right,Blue_Triangle_Stripes_1.jpg,Purple_Triangle_Dots_2.jpg,Green_Circle_Grid_1.jpg,right,979.5450000092387,true,low,NA,NA,NA,NA,NA,NA,NA,false
9RHfQKCv,3en4yvuovf59wipgxxflzhxwdchjxp,3j2uybxqqppryh2s141r6j170oj06y,9RHfQKCv,2020-0188,2020-05-08,09:56:45,10:11:31,NA,incomplete,223,number,1,left,Green_Triangle_Grid_1.jpg,Purple_Star_Chess_1.jpg,Red_Triangle_Stripes_2.jpg,left,768.720000050962,true,low,NA,NA,NA,NA,NA,NA,NA,false
9RHfQKCv,3en4yvuovf59wipgxxflzhxwdchjxp,3j2uybxqqppryh2s141r6j170oj06y,9RHfQKCv,2020-0188,2020-05-08,09:56:45,10:11:31,NA,incomplete,224,number,1,left,Green_Triangle_Chess_1.jpg,Blue_Star_Dots_1.jpg,Red_Triangle_Grid_3.jpg,left,902.5499999988824,true,low,NA,NA,NA,NA,NA,NA,NA,false
9RHfQKCv,3en4yvuovf59wipgxxflzhxwdchjxp,3j2uybxqqppryh2s141r6j170oj06y,9RHfQKCv,2020-0188,2020-05-08,09:56:45,10:11:31,NA,incomplete,225,number,1,left,Green_Circle_Chess_2.jpg,Purple_Plus_Grid_2.jpg,Blue_Circle_Stripes_4.jpg,left,702.4100001435727,true,low,NA,NA,NA,NA,NA,NA,NA,false
9RHfQKCv,3en4yvuovf59wipgxxflzhxwdchjxp,3j2uybxqqppryh2s141r6j170oj06y,9RHfQKCv,2020-0188,2020-05-08,09:56:45,10:11:31,NA,incomplete,226,number,1,left,Purple_Circle_Chess_4.jpg,Red_Plus_Grid_4.jpg,Blue_Circle_Dots_1.jpg,left,606.4999999944121,true,low,NA,NA,NA,NA,NA,NA,NA,false
9RHfQKCv,3en4yvuovf59wipgxxflzhxwdchjxp,3j2uybxqqppryh2s141r6j170oj06y,9RHfQKCv,2020-0188,2020-05-08,09:56:45,10:11:31,NA,incomplete,227,number,1,right,Red_Star_Dots_3.jpg,Purple_Star_Grid_4.jpg,Blue_Circle_Chess_3.jpg,right,697.7150000166148,true,low,NA,NA,NA,NA,NA,NA,NA,false
9RHfQKCv,3en4yvuovf59wipgxxflzhxwdchjxp,3j2uybxqqppryh2s141r6j170oj06y,9RHfQKCv,2020-0188,2020-05-08,09:56:45,10:11:31,NA,incomplete,228,number,1,left,Red_Circle_Dots_2.jpg,Blue_Triangle_Stripes_2.jpg,Green_Circle_Grid_4.jpg,left,691.6950000450015,true,low,NA,NA,NA,NA,NA,NA,NA,false
9RHfQKCv,3en4yvuovf59wipgxxflzhxwdchjxp,3j2uybxqqppryh2s141r6j170oj06y,9RHfQKCv,2020-0188,2020-05-08,09:56:45,10:11:31,NA,incomplete,229,number,1,right,Red_Circle_Chess_4.jpg,Blue_Circle_Stripes_2.jpg,Green_Plus_Dots_4.jpg,right,732.6299999840558,true,low,NA,NA,NA,NA,NA,NA,NA,false
9RHfQKCv,3en4yvuovf59wipgxxflzhxwdchjxp,3j2uybxqqppryh2s141r6j170oj06y,9RHfQKCv,2020-0188,2020-05-08,09:56:45,10:11:31,NA,incomplete,230,number,1,right,Red_Triangle_Chess_1.jpg,Purple_Triangle_Stripes_3.jpg,Green_Plus_Dots_1.jpg,right,619.5000000298023,true,low,NA,NA,NA,NA,NA,NA,NA,false
9RHfQKCv,3en4yvuovf59wipgxxflzhxwdchjxp,3j2uybxqqppryh2s141r6j170oj06y,9RHfQKCv,2020-0188,2020-05-08,09:56:45,10:11:31,NA,incomplete,231,number,1,left,Blue_Circle_Stripes_2.jpg,Purple_Star_Chess_2.jpg,Red_Circle_Dots_1.jpg,left,703.2650001347065,true,low,NA,NA,NA,NA,NA,NA,NA,false
9RHfQKCv,3en4yvuovf59wipgxxflzhxwdchjxp,3j2uybxqqppryh2s141r6j170oj06y,9RHfQKCv,2020-0188,2020-05-08,09:56:45,10:11:31,NA,incomplete,232,number,1,left,Green_Circle_Dots_4.jpg,Red_Triangle_Chess_4.jpg,Blue_Circle_Stripes_3.jpg,left,727.0600001793355,true,low,NA,NA,NA,NA,NA,NA,NA,false
9RHfQKCv,3en4yvuovf59wipgxxflzhxwdchjxp,3j2uybxqqppryh2s141r6j170oj06y,9RHfQKCv,2020-0188,2020-05-08,09:56:45,10:11:31,NA,incomplete,233,number,1,right,Blue_Star_Dots_4.jpg,Red_Star_Stripes_3.jpg,Purple_Triangle_Grid_4.jpg,right,686.8000000249594,true,low,NA,NA,NA,NA,NA,NA,NA,false
9RHfQKCv,3en4yvuovf59wipgxxflzhxwdchjxp,3j2uybxqqppryh2s141r6j170oj06y,9RHfQKCv,2020-0188,2020-05-08,09:56:45,10:11:31,NA,incomplete,234,number,0,left,Green_Star_Stripes_1.jpg,Purple_Triangle_Dots_1.jpg,Blue_Star_Grid_4.jpg,left,504.13499982096255,true,low,NA,NA,NA,NA,NA,NA,NA,false
9RHfQKCv,3en4yvuovf59wipgxxflzhxwdchjxp,3j2uybxqqppryh2s141r6j170oj06y,9RHfQKCv,2020-0188,2020-05-08,09:56:45,10:11:31,NA,incomplete,235,number,1,left,Purple_Circle_Stripes_2.jpg,Blue_Plus_Dots_2.jpg,Green_Circle_Grid_1.jpg,left,711.7049999069422,true,low,NA,NA,NA,NA,NA,NA,NA,false
9RHfQKCv,3en4yvuovf59wipgxxflzhxwdchjxp,3j2uybxqqppryh2s141r6j170oj06y,9RHfQKCv,2020-0188,2020-05-08,09:56:45,10:11:31,NA,incomplete,236,number,1,right,Purple_Circle_Stripes_3.jpg,Green_Circle_Chess_1.jpg,Red_Triangle_Dots_3.jpg,right,599.8400000389665,true,low,NA,NA,NA,NA,NA,NA,NA,false
9RHfQKCv,3en4yvuovf59wipgxxflzhxwdchjxp,3j2uybxqqppryh2s141r6j170oj06y,9RHfQKCv,2020-0188,2020-05-08,09:56:45,10:11:31,NA,incomplete,237,number,0,left,Green_Circle_Chess_3.jpg,Blue_Plus_Grid_3.jpg,Purple_Circle_Dots_1.jpg,left,627.4299998767674,true,low,NA,NA,NA,NA,NA,NA,NA,false
9RHfQKCv,3en4yvuovf59wipgxxflzhxwdchjxp,3j2uybxqqppryh2s141r6j170oj06y,9RHfQKCv,2020-0188,2020-05-08,09:56:45,10:11:31,NA,incomplete,238,number,1,right,Blue_Plus_Grid_1.jpg,Purple_Plus_Stripes_3.jpg,Green_Star_Chess_1.jpg,right,527.8849999886006,true,low,NA,NA,NA,NA,NA,NA,NA,false
9RHfQKCv,3en4yvuovf59wipgxxflzhxwdchjxp,3j2uybxqqppryh2s141r6j170oj06y,9RHfQKCv,2020-0188,2020-05-08,09:56:45,10:11:31,NA,incomplete,239,number,1,left,Red_Star_Dots_3.jpg,Purple_Triangle_Chess_3.jpg,Green_Star_Grid_1.jpg,left,551.4699998311698,true,low,NA,NA,NA,NA,NA,NA,NA,false
9RHfQKCv,3en4yvuovf59wipgxxflzhxwdchjxp,3j2uybxqqppryh2s141r6j170oj06y,9RHfQKCv,2020-0188,2020-05-08,09:56:45,10:11:31,824117.3149999231,886725.1049999613,NA,NA,NA,NA,NA,NA,NA,NA,NA,NA,NA,27,White/Caucasian,Female,American,no,yes,yes,undefined
