workerId,hitId,assignmentId,subject,studyid,exp_date,exp_start,exp_end,time_start,time_end,trial,type,reward_validity,answer,image_top,image_left,image_right,response,response_time,response_acc,volatility,practice
f6uxamSu,36d1bwbeiqeywas4c57kpjvh4xs2mi,3j88r45b2kb75dq8jcp7lxfz5wepx0,f6uxamSu,2020-0188,2020-05-07,15:21:02,15:46:49,NA,incomplete,0,filling,1,left,Purple_Circle_Stripes_1.jpg,Red_Triangle_Stripes_2.jpg,Blue_Star_Grid_1.jpg,right,1053.9350002072752,false,NA,true
f6uxamSu,36d1bwbeiqeywas4c57kpjvh4xs2mi,3j88r45b2kb75dq8jcp7lxfz5wepx0,f6uxamSu,2020-0188,2020-05-07,15:21:02,15:46:49,NA,incomplete,1,filling,1,right,Green_Triangle_Dots_3.jpg,Red_Plus_Stripes_3.jpg,Purple_Star_Dots_1.jpg,left,1079.979999922216,false,NA,true
f6uxamSu,36d1bwbeiqeywas4c57kpjvh4xs2mi,3j88r45b2kb75dq8jcp7lxfz5wepx0,f6uxamSu,2020-0188,2020-05-07,15:21:02,15:46:49,NA,incomplete,2,filling,0,left,Purple_Plus_Dots_1.jpg,Green_Circle_Dots_2.jpg,Blue_Triangle_Chess_1.jpg,left,1183.8400000706315,true,NA,true
f6uxamSu,36d1bwbeiqeywas4c57kpjvh4xs2mi,3j88r45b2kb75dq8jcp7lxfz5wepx0,f6uxamSu,2020-0188,2020-05-07,15:21:02,15:46:49,NA,incomplete,3,filling,1,right,Purple_Plus_Grid_3.jpg,Green_Star_Dots_3.jpg,Blue_Triangle_Grid_1.jpg,right,1040.4550000093877,true,NA,true
f6uxamSu,36d1bwbeiqeywas4c57kpjvh4xs2mi,3j88r45b2kb75dq8jcp7lxfz5wepx0,f6uxamSu,2020-0188,2020-05-07,15:21:02,15:46:49,NA,incomplete,4,filling,1,right,Purple_Plus_Chess_1.jpg,Blue_Star_Dots_1.jpg,Green_Circle_Chess_4.jpg,right,1023.3999998308718,true,NA,true
f6uxamSu,36d1bwbeiqeywas4c57kpjvh4xs2mi,3j88r45b2kb75dq8jcp7lxfz5wepx0,f6uxamSu,2020-0188,2020-05-07,15:21:02,15:46:49,NA,incomplete,5,filling,1,right,Red_Star_Dots_2.jpg,Blue_Triangle_Chess_2.jpg,Purple_Plus_Dots_4.jpg,right,1303.9549998939037,true,NA,true
f6uxamSu,36d1bwbeiqeywas4c57kpjvh4xs2mi,3j88r45b2kb75dq8jcp7lxfz5wepx0,f6uxamSu,2020-0188,2020-05-07,15:21:02,15:46:49,NA,incomplete,6,filling,1,right,Red_Plus_Chess_2.jpg,Purple_Triangle_Stripes_2.jpg,Blue_Circle_Chess_1.jpg,right,914.9400000460446,true,NA,true
f6uxamSu,36d1bwbeiqeywas4c57kpjvh4xs2mi,3j88r45b2kb75dq8jcp7lxfz5wepx0,f6uxamSu,2020-0188,2020-05-07,15:21:02,15:46:49,NA,incomplete,7,filling,0,left,Purple_Circle_Stripes_4.jpg,Green_Star_Stripes_3.jpg,Blue_Plus_Chess_4.jpg,left,1232.774999924004,true,NA,true
f6uxamSu,36d1bwbeiqeywas4c57kpjvh4xs2mi,3j88r45b2kb75dq8jcp7lxfz5wepx0,f6uxamSu,2020-0188,2020-05-07,15:21:02,15:46:49,NA,incomplete,8,filling,1,left,Green_Star_Stripes_1.jpg,Blue_Circle_Stripes_4.jpg,Red_Plus_Chess_1.jpg,left,1195.4449997283518,true,NA,true
f6uxamSu,36d1bwbeiqeywas4c57kpjvh4xs2mi,3j88r45b2kb75dq8jcp7lxfz5wepx0,f6uxamSu,2020-0188,2020-05-07,15:21:02,15:46:49,NA,incomplete,9,filling,1,left,Blue_Star_Stripes_3.jpg,Purple_Triangle_Stripes_2.jpg,Green_Circle_Chess_3.jpg,left,1318.585000000894,true,NA,true
f6uxamSu,36d1bwbeiqeywas4c57kpjvh4xs2mi,3j88r45b2kb75dq8jcp7lxfz5wepx0,f6uxamSu,2020-0188,2020-05-07,15:21:02,15:46:49,NA,incomplete,10,filling,1,left,Green_Plus_Chess_2.jpg,Red_Star_Chess_3.jpg,Blue_Circle_Dots_2.jpg,left,1029.4200000353158,true,NA,true
f6uxamSu,36d1bwbeiqeywas4c57kpjvh4xs2mi,3j88r45b2kb75dq8jcp7lxfz5wepx0,f6uxamSu,2020-0188,2020-05-07,15:21:02,15:46:49,NA,incomplete,11,filling,1,right,Red_Star_Dots_1.jpg,Green_Triangle_Chess_1.jpg,Purple_Circle_Dots_2.jpg,right,955.8649999089539,true,NA,true
f6uxamSu,36d1bwbeiqeywas4c57kpjvh4xs2mi,3j88r45b2kb75dq8jcp7lxfz5wepx0,f6uxamSu,2020-0188,2020-05-07,15:21:02,15:46:49,NA,incomplete,12,filling,1,left,Green_Circle_Stripes_4.jpg,Blue_Star_Stripes_3.jpg,Red_Triangle_Grid_4.jpg,left,1019.2350000143051,true,NA,true
f6uxamSu,36d1bwbeiqeywas4c57kpjvh4xs2mi,3j88r45b2kb75dq8jcp7lxfz5wepx0,f6uxamSu,2020-0188,2020-05-07,15:21:02,15:46:49,NA,incomplete,13,filling,1,left,Green_Circle_Stripes_1.jpg,Red_Triangle_Stripes_4.jpg,Purple_Plus_Dots_1.jpg,left,1008.544999640435,true,NA,true
f6uxamSu,36d1bwbeiqeywas4c57kpjvh4xs2mi,3j88r45b2kb75dq8jcp7lxfz5wepx0,f6uxamSu,2020-0188,2020-05-07,15:21:02,15:46:49,NA,incomplete,14,filling,1,left,Blue_Triangle_Stripes_4.jpg,Purple_Plus_Stripes_1.jpg,Green_Circle_Chess_4.jpg,left,1304.2449997738004,true,NA,true
f6uxamSu,36d1bwbeiqeywas4c57kpjvh4xs2mi,3j88r45b2kb75dq8jcp7lxfz5wepx0,f6uxamSu,2020-0188,2020-05-07,15:21:02,15:46:49,NA,incomplete,15,filling,0,left,Red_Star_Chess_1.jpg,Purple_Triangle_Chess_4.jpg,Blue_Plus_Dots_1.jpg,left,930.954999756068,true,NA,true
f6uxamSu,36d1bwbeiqeywas4c57kpjvh4xs2mi,3j88r45b2kb75dq8jcp7lxfz5wepx0,f6uxamSu,2020-0188,2020-05-07,15:21:02,15:46:49,NA,incomplete,16,filling,1,left,Purple_Circle_Stripes_4.jpg,Green_Plus_Stripes_3.jpg,Blue_Star_Grid_4.jpg,left,1045.9400000981987,true,NA,true
f6uxamSu,36d1bwbeiqeywas4c57kpjvh4xs2mi,3j88r45b2kb75dq8jcp7lxfz5wepx0,f6uxamSu,2020-0188,2020-05-07,15:21:02,15:46:49,NA,incomplete,17,filling,1,right,Red_Triangle_Grid_2.jpg,Green_Plus_Chess_2.jpg,Blue_Star_Grid_3.jpg,right,1001.1249999515712,true,NA,true
f6uxamSu,36d1bwbeiqeywas4c57kpjvh4xs2mi,3j88r45b2kb75dq8jcp7lxfz5wepx0,f6uxamSu,2020-0188,2020-05-07,15:21:02,15:46:49,NA,incomplete,18,filling,1,right,Purple_Circle_Grid_4.jpg,Blue_Star_Stripes_4.jpg,Red_Triangle_Grid_2.jpg,right,1125.5599996075034,true,NA,true
f6uxamSu,36d1bwbeiqeywas4c57kpjvh4xs2mi,3j88r45b2kb75dq8jcp7lxfz5wepx0,f6uxamSu,2020-0188,2020-05-07,15:21:02,15:46:49,NA,incomplete,19,filling,1,left,Purple_Plus_Grid_4.jpg,Red_Circle_Grid_2.jpg,Blue_Star_Chess_4.jpg,left,1043.774999678135,true,NA,true
f6uxamSu,36d1bwbeiqeywas4c57kpjvh4xs2mi,3j88r45b2kb75dq8jcp7lxfz5wepx0,f6uxamSu,2020-0188,2020-05-07,15:21:02,15:46:49,NA,incomplete,20,number,0,left,Red_Triangle_Chess_4.jpg,Green_Star_Dots_4.jpg,Purple_Circle_Chess_1.jpg,right,1004.6300003305078,false,NA,true
f6uxamSu,36d1bwbeiqeywas4c57kpjvh4xs2mi,3j88r45b2kb75dq8jcp7lxfz5wepx0,f6uxamSu,2020-0188,2020-05-07,15:21:02,15:46:49,NA,incomplete,21,number,1,left,Red_Plus_Stripes_4.jpg,Purple_Triangle_Dots_4.jpg,Green_Circle_Stripes_3.jpg,right,1058.9350000955164,false,NA,true
f6uxamSu,36d1bwbeiqeywas4c57kpjvh4xs2mi,3j88r45b2kb75dq8jcp7lxfz5wepx0,f6uxamSu,2020-0188,2020-05-07,15:21:02,15:46:49,NA,incomplete,22,number,1,left,Blue_Circle_Stripes_4.jpg,Red_Star_Chess_4.jpg,Purple_Triangle_Stripes_1.jpg,left,798.820000141859,true,NA,true
f6uxamSu,36d1bwbeiqeywas4c57kpjvh4xs2mi,3j88r45b2kb75dq8jcp7lxfz5wepx0,f6uxamSu,2020-0188,2020-05-07,15:21:02,15:46:49,NA,incomplete,23,number,0,right,Green_Plus_Chess_3.jpg,Purple_Triangle_Chess_1.jpg,Red_Circle_Grid_3.jpg,right,1000.1050001010299,true,NA,true
f6uxamSu,36d1bwbeiqeywas4c57kpjvh4xs2mi,3j88r45b2kb75dq8jcp7lxfz5wepx0,f6uxamSu,2020-0188,2020-05-07,15:21:02,15:46:49,NA,incomplete,24,number,0,left,Purple_Plus_Grid_4.jpg,Red_Circle_Dots_4.jpg,Blue_Triangle_Grid_1.jpg,left,820.18500007689,true,NA,true
f6uxamSu,36d1bwbeiqeywas4c57kpjvh4xs2mi,3j88r45b2kb75dq8jcp7lxfz5wepx0,f6uxamSu,2020-0188,2020-05-07,15:21:02,15:46:49,NA,incomplete,25,number,1,left,Purple_Plus_Grid_3.jpg,Red_Star_Chess_3.jpg,Blue_Triangle_Grid_4.jpg,left,977.055000141263,true,NA,true
f6uxamSu,36d1bwbeiqeywas4c57kpjvh4xs2mi,3j88r45b2kb75dq8jcp7lxfz5wepx0,f6uxamSu,2020-0188,2020-05-07,15:21:02,15:46:49,NA,incomplete,26,number,1,left,Red_Star_Dots_4.jpg,Blue_Circle_Grid_4.jpg,Purple_Triangle_Dots_1.jpg,left,832.8149998560548,true,NA,true
f6uxamSu,36d1bwbeiqeywas4c57kpjvh4xs2mi,3j88r45b2kb75dq8jcp7lxfz5wepx0,f6uxamSu,2020-0188,2020-05-07,15:21:02,15:46:49,NA,incomplete,27,number,1,left,Green_Star_Stripes_1.jpg,Blue_Plus_Chess_1.jpg,Red_Circle_Stripes_3.jpg,left,803.2400002703071,true,NA,true
f6uxamSu,36d1bwbeiqeywas4c57kpjvh4xs2mi,3j88r45b2kb75dq8jcp7lxfz5wepx0,f6uxamSu,2020-0188,2020-05-07,15:21:02,15:46:49,NA,incomplete,28,number,1,right,Purple_Star_Stripes_3.jpg,Green_Plus_Stripes_2.jpg,Red_Circle_Grid_3.jpg,right,945.2100000344217,true,NA,true
f6uxamSu,36d1bwbeiqeywas4c57kpjvh4xs2mi,3j88r45b2kb75dq8jcp7lxfz5wepx0,f6uxamSu,2020-0188,2020-05-07,15:21:02,15:46:49,NA,incomplete,29,number,0,right,Purple_Plus_Grid_3.jpg,Green_Circle_Grid_2.jpg,Red_Triangle_Chess_3.jpg,right,894.1000001505017,true,NA,true
f6uxamSu,36d1bwbeiqeywas4c57kpjvh4xs2mi,3j88r45b2kb75dq8jcp7lxfz5wepx0,f6uxamSu,2020-0188,2020-05-07,15:21:02,15:46:49,NA,incomplete,30,number,1,left,Red_Circle_Grid_2.jpg,Green_Triangle_Stripes_2.jpg,Purple_Plus_Grid_1.jpg,left,772.7650003507733,true,NA,true
f6uxamSu,36d1bwbeiqeywas4c57kpjvh4xs2mi,3j88r45b2kb75dq8jcp7lxfz5wepx0,f6uxamSu,2020-0188,2020-05-07,15:21:02,15:46:49,NA,incomplete,31,number,1,right,Green_Star_Chess_4.jpg,Purple_Triangle_Chess_2.jpg,Red_Plus_Grid_4.jpg,right,843.0399997159839,true,NA,true
f6uxamSu,36d1bwbeiqeywas4c57kpjvh4xs2mi,3j88r45b2kb75dq8jcp7lxfz5wepx0,f6uxamSu,2020-0188,2020-05-07,15:21:02,15:46:49,NA,incomplete,32,number,1,left,Purple_Star_Dots_4.jpg,Red_Circle_Stripes_4.jpg,Green_Triangle_Dots_1.jpg,left,841.6499998420477,true,NA,true
f6uxamSu,36d1bwbeiqeywas4c57kpjvh4xs2mi,3j88r45b2kb75dq8jcp7lxfz5wepx0,f6uxamSu,2020-0188,2020-05-07,15:21:02,15:46:49,NA,incomplete,33,number,1,left,Red_Star_Dots_3.jpg,Purple_Circle_Grid_3.jpg,Green_Plus_Dots_4.jpg,left,873.834999743849,true,NA,true
f6uxamSu,36d1bwbeiqeywas4c57kpjvh4xs2mi,3j88r45b2kb75dq8jcp7lxfz5wepx0,f6uxamSu,2020-0188,2020-05-07,15:21:02,15:46:49,NA,incomplete,34,number,0,left,Red_Plus_Dots_1.jpg,Green_Star_Grid_1.jpg,Blue_Triangle_Dots_4.jpg,left,761.2600000575185,true,NA,true
f6uxamSu,36d1bwbeiqeywas4c57kpjvh4xs2mi,3j88r45b2kb75dq8jcp7lxfz5wepx0,f6uxamSu,2020-0188,2020-05-07,15:21:02,15:46:49,NA,incomplete,35,number,1,right,Blue_Triangle_Stripes_1.jpg,Green_Star_Stripes_2.jpg,Purple_Plus_Dots_1.jpg,right,802.7300001122057,true,NA,true
f6uxamSu,36d1bwbeiqeywas4c57kpjvh4xs2mi,3j88r45b2kb75dq8jcp7lxfz5wepx0,f6uxamSu,2020-0188,2020-05-07,15:21:02,15:46:49,NA,incomplete,36,number,1,left,Red_Triangle_Dots_2.jpg,Blue_Star_Grid_2.jpg,Purple_Circle_Dots_4.jpg,left,743.5800000093877,true,NA,true
f6uxamSu,36d1bwbeiqeywas4c57kpjvh4xs2mi,3j88r45b2kb75dq8jcp7lxfz5wepx0,f6uxamSu,2020-0188,2020-05-07,15:21:02,15:46:49,NA,incomplete,37,number,1,left,Blue_Circle_Stripes_4.jpg,Red_Triangle_Dots_4.jpg,Green_Plus_Stripes_2.jpg,left,828.840000089258,true,NA,true
f6uxamSu,36d1bwbeiqeywas4c57kpjvh4xs2mi,3j88r45b2kb75dq8jcp7lxfz5wepx0,f6uxamSu,2020-0188,2020-05-07,15:21:02,15:46:49,NA,incomplete,38,number,1,right,Green_Triangle_Dots_4.jpg,Blue_Circle_Dots_3.jpg,Red_Plus_Chess_4.jpg,right,832.5700000859797,true,NA,true
f6uxamSu,36d1bwbeiqeywas4c57kpjvh4xs2mi,3j88r45b2kb75dq8jcp7lxfz5wepx0,f6uxamSu,2020-0188,2020-05-07,15:21:02,15:46:49,NA,incomplete,39,number,1,right,Blue_Plus_Stripes_2.jpg,Green_Circle_Stripes_1.jpg,Red_Star_Dots_2.jpg,right,962.7700001001358,true,NA,true
f6uxamSu,36d1bwbeiqeywas4c57kpjvh4xs2mi,3j88r45b2kb75dq8jcp7lxfz5wepx0,f6uxamSu,2020-0188,2020-05-07,15:21:02,15:46:49,NA,incomplete,0,filling,1,left,Blue_Triangle_Grid_2.jpg,Red_Plus_Grid_4.jpg,Purple_Circle_Stripes_2.jpg,right,983.4300000220537,false,high,false
f6uxamSu,36d1bwbeiqeywas4c57kpjvh4xs2mi,3j88r45b2kb75dq8jcp7lxfz5wepx0,f6uxamSu,2020-0188,2020-05-07,15:21:02,15:46:49,NA,incomplete,1,filling,1,right,Green_Plus_Stripes_2.jpg,Purple_Triangle_Chess_2.jpg,Red_Circle_Stripes_4.jpg,right,1059.229999780655,true,high,false
f6uxamSu,36d1bwbeiqeywas4c57kpjvh4xs2mi,3j88r45b2kb75dq8jcp7lxfz5wepx0,f6uxamSu,2020-0188,2020-05-07,15:21:02,15:46:49,NA,incomplete,2,filling,1,left,Green_Star_Grid_4.jpg,Red_Circle_Grid_2.jpg,Purple_Triangle_Stripes_4.jpg,left,1033.0500002019107,true,high,false
f6uxamSu,36d1bwbeiqeywas4c57kpjvh4xs2mi,3j88r45b2kb75dq8jcp7lxfz5wepx0,f6uxamSu,2020-0188,2020-05-07,15:21:02,15:46:49,NA,incomplete,3,filling,1,left,Green_Plus_Chess_4.jpg,Blue_Circle_Chess_1.jpg,Purple_Star_Grid_4.jpg,left,932.0450001396239,true,high,false
f6uxamSu,36d1bwbeiqeywas4c57kpjvh4xs2mi,3j88r45b2kb75dq8jcp7lxfz5wepx0,f6uxamSu,2020-0188,2020-05-07,15:21:02,15:46:49,NA,incomplete,4,filling,0,right,Red_Triangle_Stripes_2.jpg,Blue_Circle_Grid_2.jpg,Purple_Plus_Stripes_1.jpg,right,1033.195000141859,true,high,false
f6uxamSu,36d1bwbeiqeywas4c57kpjvh4xs2mi,3j88r45b2kb75dq8jcp7lxfz5wepx0,f6uxamSu,2020-0188,2020-05-07,15:21:02,15:46:49,NA,incomplete,5,filling,1,left,Purple_Plus_Stripes_3.jpg,Red_Triangle_Stripes_2.jpg,Green_Circle_Grid_3.jpg,left,1307.84000037238,true,high,false
f6uxamSu,36d1bwbeiqeywas4c57kpjvh4xs2mi,3j88r45b2kb75dq8jcp7lxfz5wepx0,f6uxamSu,2020-0188,2020-05-07,15:21:02,15:46:49,NA,incomplete,6,filling,1,left,Purple_Circle_Chess_1.jpg,Green_Plus_Chess_2.jpg,Blue_Triangle_Grid_1.jpg,right,917.9549999535084,false,high,false
f6uxamSu,36d1bwbeiqeywas4c57kpjvh4xs2mi,3j88r45b2kb75dq8jcp7lxfz5wepx0,f6uxamSu,2020-0188,2020-05-07,15:21:02,15:46:49,NA,incomplete,7,filling,1,left,Green_Star_Grid_4.jpg,Purple_Circle_Grid_1.jpg,Blue_Plus_Stripes_4.jpg,left,979.5349999330938,true,high,false
f6uxamSu,36d1bwbeiqeywas4c57kpjvh4xs2mi,3j88r45b2kb75dq8jcp7lxfz5wepx0,f6uxamSu,2020-0188,2020-05-07,15:21:02,15:46:49,NA,incomplete,8,filling,1,right,Blue_Triangle_Stripes_1.jpg,Purple_Plus_Grid_1.jpg,Green_Star_Stripes_4.jpg,right,1111.0899997875094,true,high,false
f6uxamSu,36d1bwbeiqeywas4c57kpjvh4xs2mi,3j88r45b2kb75dq8jcp7lxfz5wepx0,f6uxamSu,2020-0188,2020-05-07,15:21:02,15:46:49,NA,incomplete,9,filling,1,left,Red_Circle_Grid_2.jpg,Purple_Plus_Grid_4.jpg,Green_Triangle_Dots_2.jpg,left,904.7249997965991,true,high,false
f6uxamSu,36d1bwbeiqeywas4c57kpjvh4xs2mi,3j88r45b2kb75dq8jcp7lxfz5wepx0,f6uxamSu,2020-0188,2020-05-07,15:21:02,15:46:49,NA,incomplete,10,number,1,right,Blue_Triangle_Stripes_1.jpg,Red_Circle_Stripes_4.jpg,Green_Plus_Dots_1.jpg,left,1050.0699998810887,false,high,false
f6uxamSu,36d1bwbeiqeywas4c57kpjvh4xs2mi,3j88r45b2kb75dq8jcp7lxfz5wepx0,f6uxamSu,2020-0188,2020-05-07,15:21:02,15:46:49,NA,incomplete,11,number,1,right,Green_Circle_Stripes_1.jpg,Red_Star_Stripes_3.jpg,Purple_Plus_Grid_1.jpg,left,1046.4899996295571,false,high,false
f6uxamSu,36d1bwbeiqeywas4c57kpjvh4xs2mi,3j88r45b2kb75dq8jcp7lxfz5wepx0,f6uxamSu,2020-0188,2020-05-07,15:21:02,15:46:49,NA,incomplete,12,number,1,left,Red_Star_Stripes_3.jpg,Purple_Plus_Dots_3.jpg,Blue_Triangle_Stripes_4.jpg,right,1047.1699996851385,false,high,false
f6uxamSu,36d1bwbeiqeywas4c57kpjvh4xs2mi,3j88r45b2kb75dq8jcp7lxfz5wepx0,f6uxamSu,2020-0188,2020-05-07,15:21:02,15:46:49,NA,incomplete,13,number,1,left,Red_Plus_Grid_4.jpg,Purple_Triangle_Dots_4.jpg,Blue_Circle_Grid_3.jpg,left,928.9049999788404,true,high,false
f6uxamSu,36d1bwbeiqeywas4c57kpjvh4xs2mi,3j88r45b2kb75dq8jcp7lxfz5wepx0,f6uxamSu,2020-0188,2020-05-07,15:21:02,15:46:49,NA,incomplete,14,number,1,right,Red_Triangle_Grid_3.jpg,Purple_Plus_Grid_1.jpg,Blue_Star_Dots_3.jpg,right,844.0000000409782,true,high,false
f6uxamSu,36d1bwbeiqeywas4c57kpjvh4xs2mi,3j88r45b2kb75dq8jcp7lxfz5wepx0,f6uxamSu,2020-0188,2020-05-07,15:21:02,15:46:49,NA,incomplete,15,number,1,left,Purple_Circle_Grid_1.jpg,Green_Star_Dots_1.jpg,Red_Plus_Grid_4.jpg,left,772.0800000242889,true,high,false
f6uxamSu,36d1bwbeiqeywas4c57kpjvh4xs2mi,3j88r45b2kb75dq8jcp7lxfz5wepx0,f6uxamSu,2020-0188,2020-05-07,15:21:02,15:46:49,NA,incomplete,16,number,1,left,Red_Triangle_Stripes_3.jpg,Green_Plus_Grid_3.jpg,Blue_Star_Stripes_4.jpg,left,884.4399997033179,true,high,false
f6uxamSu,36d1bwbeiqeywas4c57kpjvh4xs2mi,3j88r45b2kb75dq8jcp7lxfz5wepx0,f6uxamSu,2020-0188,2020-05-07,15:21:02,15:46:49,NA,incomplete,17,number,1,left,Purple_Circle_Grid_1.jpg,Red_Triangle_Stripes_1.jpg,Blue_Plus_Grid_4.jpg,left,822.7550000883639,true,high,false
f6uxamSu,36d1bwbeiqeywas4c57kpjvh4xs2mi,3j88r45b2kb75dq8jcp7lxfz5wepx0,f6uxamSu,2020-0188,2020-05-07,15:21:02,15:46:49,NA,incomplete,18,number,1,left,Green_Plus_Grid_3.jpg,Blue_Star_Dots_3.jpg,Purple_Circle_Grid_2.jpg,left,893.4149998240173,true,high,false
f6uxamSu,36d1bwbeiqeywas4c57kpjvh4xs2mi,3j88r45b2kb75dq8jcp7lxfz5wepx0,f6uxamSu,2020-0188,2020-05-07,15:21:02,15:46:49,NA,incomplete,19,number,1,right,Green_Circle_Stripes_3.jpg,Red_Plus_Stripes_2.jpg,Purple_Star_Dots_3.jpg,right,877.8650001622736,true,high,false
f6uxamSu,36d1bwbeiqeywas4c57kpjvh4xs2mi,3j88r45b2kb75dq8jcp7lxfz5wepx0,f6uxamSu,2020-0188,2020-05-07,15:21:02,15:46:49,NA,incomplete,20,filling,1,left,Red_Plus_Dots_1.jpg,Blue_Triangle_Dots_3.jpg,Green_Circle_Grid_1.jpg,right,795.6250002607703,false,high,false
f6uxamSu,36d1bwbeiqeywas4c57kpjvh4xs2mi,3j88r45b2kb75dq8jcp7lxfz5wepx0,f6uxamSu,2020-0188,2020-05-07,15:21:02,15:46:49,NA,incomplete,21,filling,1,right,Blue_Star_Chess_1.jpg,Red_Plus_Stripes_1.jpg,Purple_Triangle_Chess_4.jpg,left,769.6050000376999,false,high,false
f6uxamSu,36d1bwbeiqeywas4c57kpjvh4xs2mi,3j88r45b2kb75dq8jcp7lxfz5wepx0,f6uxamSu,2020-0188,2020-05-07,15:21:02,15:46:49,NA,incomplete,22,filling,0,left,Green_Plus_Dots_1.jpg,Purple_Star_Dots_3.jpg,Red_Triangle_Stripes_1.jpg,right,1018.9899997785687,false,high,false
f6uxamSu,36d1bwbeiqeywas4c57kpjvh4xs2mi,3j88r45b2kb75dq8jcp7lxfz5wepx0,f6uxamSu,2020-0188,2020-05-07,15:21:02,15:46:49,NA,incomplete,23,filling,1,right,Green_Circle_Grid_1.jpg,Blue_Triangle_Dots_1.jpg,Purple_Plus_Grid_3.jpg,left,717.3600001260638,false,high,false
f6uxamSu,36d1bwbeiqeywas4c57kpjvh4xs2mi,3j88r45b2kb75dq8jcp7lxfz5wepx0,f6uxamSu,2020-0188,2020-05-07,15:21:02,15:46:49,NA,incomplete,24,filling,0,left,Blue_Circle_Stripes_4.jpg,Red_Triangle_Stripes_3.jpg,Green_Plus_Dots_4.jpg,right,798.1699998490512,false,high,false
f6uxamSu,36d1bwbeiqeywas4c57kpjvh4xs2mi,3j88r45b2kb75dq8jcp7lxfz5wepx0,f6uxamSu,2020-0188,2020-05-07,15:21:02,15:46:49,NA,incomplete,25,filling,1,right,Red_Plus_Chess_1.jpg,Blue_Circle_Dots_1.jpg,Purple_Star_Chess_4.jpg,left,702.2049999795854,false,high,false
f6uxamSu,36d1bwbeiqeywas4c57kpjvh4xs2mi,3j88r45b2kb75dq8jcp7lxfz5wepx0,f6uxamSu,2020-0188,2020-05-07,15:21:02,15:46:49,NA,incomplete,26,filling,1,right,Green_Plus_Dots_1.jpg,Blue_Star_Stripes_1.jpg,Red_Triangle_Dots_2.jpg,left,731.7099999636412,false,high,false
f6uxamSu,36d1bwbeiqeywas4c57kpjvh4xs2mi,3j88r45b2kb75dq8jcp7lxfz5wepx0,f6uxamSu,2020-0188,2020-05-07,15:21:02,15:46:49,NA,incomplete,27,filling,1,right,Red_Plus_Chess_2.jpg,Purple_Star_Grid_2.jpg,Blue_Triangle_Chess_3.jpg,right,1040.870000142604,true,high,false
f6uxamSu,36d1bwbeiqeywas4c57kpjvh4xs2mi,3j88r45b2kb75dq8jcp7lxfz5wepx0,f6uxamSu,2020-0188,2020-05-07,15:21:02,15:46:49,NA,incomplete,28,filling,1,left,Red_Triangle_Stripes_1.jpg,Blue_Circle_Stripes_2.jpg,Green_Star_Dots_1.jpg,left,1030.0549999810755,true,high,false
f6uxamSu,36d1bwbeiqeywas4c57kpjvh4xs2mi,3j88r45b2kb75dq8jcp7lxfz5wepx0,f6uxamSu,2020-0188,2020-05-07,15:21:02,15:46:49,NA,incomplete,29,filling,0,left,Green_Triangle_Stripes_1.jpg,Purple_Circle_Stripes_2.jpg,Blue_Star_Grid_1.jpg,left,912.2000001370907,true,high,false
f6uxamSu,36d1bwbeiqeywas4c57kpjvh4xs2mi,3j88r45b2kb75dq8jcp7lxfz5wepx0,f6uxamSu,2020-0188,2020-05-07,15:21:02,15:46:49,NA,incomplete,30,number,1,right,Blue_Triangle_Dots_3.jpg,Green_Star_Dots_4.jpg,Red_Plus_Chess_3.jpg,left,1131.8550002761185,false,high,false
f6uxamSu,36d1bwbeiqeywas4c57kpjvh4xs2mi,3j88r45b2kb75dq8jcp7lxfz5wepx0,f6uxamSu,2020-0188,2020-05-07,15:21:02,15:46:49,NA,incomplete,31,number,0,right,Blue_Plus_Stripes_4.jpg,Red_Circle_Stripes_2.jpg,Green_Star_Grid_4.jpg,right,943.6650001443923,true,high,false
f6uxamSu,36d1bwbeiqeywas4c57kpjvh4xs2mi,3j88r45b2kb75dq8jcp7lxfz5wepx0,f6uxamSu,2020-0188,2020-05-07,15:21:02,15:46:49,NA,incomplete,32,number,1,left,Purple_Star_Grid_2.jpg,Blue_Plus_Chess_2.jpg,Red_Circle_Grid_1.jpg,left,879.0850001387298,true,high,false
f6uxamSu,36d1bwbeiqeywas4c57kpjvh4xs2mi,3j88r45b2kb75dq8jcp7lxfz5wepx0,f6uxamSu,2020-0188,2020-05-07,15:21:02,15:46:49,NA,incomplete,33,number,1,left,Green_Circle_Chess_2.jpg,Blue_Star_Dots_2.jpg,Red_Triangle_Chess_4.jpg,right,987.99500009045,false,high,false
f6uxamSu,36d1bwbeiqeywas4c57kpjvh4xs2mi,3j88r45b2kb75dq8jcp7lxfz5wepx0,f6uxamSu,2020-0188,2020-05-07,15:21:02,15:46:49,NA,incomplete,34,number,1,right,Green_Circle_Chess_3.jpg,Red_Star_Chess_1.jpg,Purple_Triangle_Dots_3.jpg,right,708.6700000800192,true,high,false
f6uxamSu,36d1bwbeiqeywas4c57kpjvh4xs2mi,3j88r45b2kb75dq8jcp7lxfz5wepx0,f6uxamSu,2020-0188,2020-05-07,15:21:02,15:46:49,NA,incomplete,35,number,1,right,Red_Triangle_Stripes_2.jpg,Green_Circle_Stripes_3.jpg,Purple_Star_Grid_2.jpg,right,852.140000090003,true,high,false
f6uxamSu,36d1bwbeiqeywas4c57kpjvh4xs2mi,3j88r45b2kb75dq8jcp7lxfz5wepx0,f6uxamSu,2020-0188,2020-05-07,15:21:02,15:46:49,NA,incomplete,36,number,1,left,Purple_Plus_Grid_1.jpg,Blue_Triangle_Chess_1.jpg,Green_Star_Grid_2.jpg,left,677.4100000038743,true,high,false
f6uxamSu,36d1bwbeiqeywas4c57kpjvh4xs2mi,3j88r45b2kb75dq8jcp7lxfz5wepx0,f6uxamSu,2020-0188,2020-05-07,15:21:02,15:46:49,NA,incomplete,37,number,1,left,Purple_Star_Stripes_3.jpg,Blue_Triangle_Dots_3.jpg,Green_Circle_Stripes_4.jpg,left,825.7050001993775,true,high,false
f6uxamSu,36d1bwbeiqeywas4c57kpjvh4xs2mi,3j88r45b2kb75dq8jcp7lxfz5wepx0,f6uxamSu,2020-0188,2020-05-07,15:21:02,15:46:49,NA,incomplete,38,number,1,left,Red_Triangle_Stripes_1.jpg,Green_Plus_Chess_1.jpg,Purple_Circle_Stripes_2.jpg,left,918.4550000354648,true,high,false
f6uxamSu,36d1bwbeiqeywas4c57kpjvh4xs2mi,3j88r45b2kb75dq8jcp7lxfz5wepx0,f6uxamSu,2020-0188,2020-05-07,15:21:02,15:46:49,NA,incomplete,39,number,1,right,Purple_Plus_Grid_3.jpg,Blue_Star_Grid_4.jpg,Red_Triangle_Dots_3.jpg,right,941.64999993518,true,high,false
f6uxamSu,36d1bwbeiqeywas4c57kpjvh4xs2mi,3j88r45b2kb75dq8jcp7lxfz5wepx0,f6uxamSu,2020-0188,2020-05-07,15:21:02,15:46:49,NA,incomplete,40,filling,1,left,Purple_Triangle_Chess_1.jpg,Green_Circle_Chess_4.jpg,Blue_Star_Dots_1.jpg,right,799.849999602884,false,high,false
f6uxamSu,36d1bwbeiqeywas4c57kpjvh4xs2mi,3j88r45b2kb75dq8jcp7lxfz5wepx0,f6uxamSu,2020-0188,2020-05-07,15:21:02,15:46:49,NA,incomplete,41,filling,1,left,Green_Plus_Dots_4.jpg,Purple_Star_Dots_1.jpg,Red_Circle_Stripes_4.jpg,right,715.6400000676513,false,high,false
f6uxamSu,36d1bwbeiqeywas4c57kpjvh4xs2mi,3j88r45b2kb75dq8jcp7lxfz5wepx0,f6uxamSu,2020-0188,2020-05-07,15:21:02,15:46:49,NA,incomplete,42,filling,1,left,Red_Triangle_Chess_3.jpg,Purple_Plus_Chess_2.jpg,Blue_Star_Dots_3.jpg,left,996.1699997074902,true,high,false
f6uxamSu,36d1bwbeiqeywas4c57kpjvh4xs2mi,3j88r45b2kb75dq8jcp7lxfz5wepx0,f6uxamSu,2020-0188,2020-05-07,15:21:02,15:46:49,NA,incomplete,43,filling,1,right,Red_Plus_Dots_2.jpg,Blue_Triangle_Stripes_2.jpg,Green_Star_Dots_1.jpg,right,1118.2349999435246,true,high,false
f6uxamSu,36d1bwbeiqeywas4c57kpjvh4xs2mi,3j88r45b2kb75dq8jcp7lxfz5wepx0,f6uxamSu,2020-0188,2020-05-07,15:21:02,15:46:49,NA,incomplete,44,filling,1,left,Purple_Plus_Grid_1.jpg,Blue_Triangle_Grid_4.jpg,Green_Circle_Stripes_1.jpg,right,929.5850000344217,false,high,false
f6uxamSu,36d1bwbeiqeywas4c57kpjvh4xs2mi,3j88r45b2kb75dq8jcp7lxfz5wepx0,f6uxamSu,2020-0188,2020-05-07,15:21:02,15:46:49,NA,incomplete,45,filling,1,right,Red_Plus_Chess_2.jpg,Blue_Star_Grid_2.jpg,Purple_Circle_Chess_3.jpg,right,1042.8999997675419,true,high,false
f6uxamSu,36d1bwbeiqeywas4c57kpjvh4xs2mi,3j88r45b2kb75dq8jcp7lxfz5wepx0,f6uxamSu,2020-0188,2020-05-07,15:21:02,15:46:49,NA,incomplete,46,filling,1,right,Red_Plus_Grid_4.jpg,Purple_Star_Chess_4.jpg,Blue_Circle_Grid_3.jpg,right,941.0799997858703,true,high,false
f6uxamSu,36d1bwbeiqeywas4c57kpjvh4xs2mi,3j88r45b2kb75dq8jcp7lxfz5wepx0,f6uxamSu,2020-0188,2020-05-07,15:21:02,15:46:49,NA,incomplete,47,filling,1,right,Blue_Circle_Chess_4.jpg,Green_Plus_Stripes_4.jpg,Red_Star_Chess_3.jpg,right,1132.7949999831617,true,high,false
f6uxamSu,36d1bwbeiqeywas4c57kpjvh4xs2mi,3j88r45b2kb75dq8jcp7lxfz5wepx0,f6uxamSu,2020-0188,2020-05-07,15:21:02,15:46:49,NA,incomplete,48,filling,1,left,Red_Star_Grid_1.jpg,Blue_Circle_Grid_4.jpg,Purple_Plus_Stripes_1.jpg,left,914.1949997283518,true,high,false
f6uxamSu,36d1bwbeiqeywas4c57kpjvh4xs2mi,3j88r45b2kb75dq8jcp7lxfz5wepx0,f6uxamSu,2020-0188,2020-05-07,15:21:02,15:46:49,NA,incomplete,49,filling,1,left,Blue_Star_Stripes_2.jpg,Red_Circle_Stripes_1.jpg,Purple_Plus_Grid_2.jpg,left,1154.3050003238022,true,high,false
f6uxamSu,36d1bwbeiqeywas4c57kpjvh4xs2mi,3j88r45b2kb75dq8jcp7lxfz5wepx0,f6uxamSu,2020-0188,2020-05-07,15:21:02,15:46:49,NA,incomplete,50,number,1,left,Red_Star_Dots_1.jpg,Blue_Circle_Stripes_1.jpg,Purple_Triangle_Dots_3.jpg,right,885.3050000034273,false,high,false
f6uxamSu,36d1bwbeiqeywas4c57kpjvh4xs2mi,3j88r45b2kb75dq8jcp7lxfz5wepx0,f6uxamSu,2020-0188,2020-05-07,15:21:02,15:46:49,NA,incomplete,51,number,1,right,Green_Star_Chess_4.jpg,Purple_Triangle_Chess_3.jpg,Blue_Plus_Dots_4.jpg,left,913.7149997986853,false,high,false
f6uxamSu,36d1bwbeiqeywas4c57kpjvh4xs2mi,3j88r45b2kb75dq8jcp7lxfz5wepx0,f6uxamSu,2020-0188,2020-05-07,15:21:02,15:46:49,NA,incomplete,52,number,1,left,Purple_Plus_Grid_2.jpg,Blue_Triangle_Dots_2.jpg,Green_Star_Grid_4.jpg,left,864.9550001136959,true,high,false
f6uxamSu,36d1bwbeiqeywas4c57kpjvh4xs2mi,3j88r45b2kb75dq8jcp7lxfz5wepx0,f6uxamSu,2020-0188,2020-05-07,15:21:02,15:46:49,NA,incomplete,53,number,1,right,Blue_Plus_Stripes_4.jpg,Red_Triangle_Stripes_2.jpg,Green_Circle_Grid_4.jpg,right,1165.515000000596,true,high,false
f6uxamSu,36d1bwbeiqeywas4c57kpjvh4xs2mi,3j88r45b2kb75dq8jcp7lxfz5wepx0,f6uxamSu,2020-0188,2020-05-07,15:21:02,15:46:49,NA,incomplete,54,number,1,right,Blue_Star_Grid_2.jpg,Green_Circle_Grid_1.jpg,Red_Triangle_Dots_2.jpg,right,1029.1699999943376,true,high,false
f6uxamSu,36d1bwbeiqeywas4c57kpjvh4xs2mi,3j88r45b2kb75dq8jcp7lxfz5wepx0,f6uxamSu,2020-0188,2020-05-07,15:21:02,15:46:49,NA,incomplete,55,number,1,right,Green_Triangle_Dots_2.jpg,Purple_Plus_Dots_4.jpg,Blue_Circle_Grid_2.jpg,right,1056.0100004076958,true,high,false
f6uxamSu,36d1bwbeiqeywas4c57kpjvh4xs2mi,3j88r45b2kb75dq8jcp7lxfz5wepx0,f6uxamSu,2020-0188,2020-05-07,15:21:02,15:46:49,NA,incomplete,56,number,1,left,Green_Triangle_Chess_1.jpg,Blue_Circle_Dots_1.jpg,Purple_Star_Chess_4.jpg,left,740.8750001341105,true,high,false
f6uxamSu,36d1bwbeiqeywas4c57kpjvh4xs2mi,3j88r45b2kb75dq8jcp7lxfz5wepx0,f6uxamSu,2020-0188,2020-05-07,15:21:02,15:46:49,NA,incomplete,57,number,1,right,Blue_Star_Stripes_2.jpg,Purple_Plus_Stripes_4.jpg,Green_Triangle_Chess_2.jpg,right,846.6550000011921,true,high,false
f6uxamSu,36d1bwbeiqeywas4c57kpjvh4xs2mi,3j88r45b2kb75dq8jcp7lxfz5wepx0,f6uxamSu,2020-0188,2020-05-07,15:21:02,15:46:49,NA,incomplete,58,number,1,left,Blue_Circle_Stripes_4.jpg,Purple_Star_Dots_4.jpg,Green_Triangle_Stripes_2.jpg,left,730.039999820292,true,high,false
f6uxamSu,36d1bwbeiqeywas4c57kpjvh4xs2mi,3j88r45b2kb75dq8jcp7lxfz5wepx0,f6uxamSu,2020-0188,2020-05-07,15:21:02,15:46:49,NA,incomplete,59,number,1,left,Green_Plus_Grid_2.jpg,Blue_Star_Stripes_2.jpg,Purple_Triangle_Grid_3.jpg,left,821.9550000503659,true,high,false
f6uxamSu,36d1bwbeiqeywas4c57kpjvh4xs2mi,3j88r45b2kb75dq8jcp7lxfz5wepx0,f6uxamSu,2020-0188,2020-05-07,15:21:02,15:46:49,NA,incomplete,60,filling,1,left,Green_Star_Grid_4.jpg,Purple_Plus_Grid_3.jpg,Blue_Triangle_Chess_4.jpg,right,705.3700000979006,false,high,false
f6uxamSu,36d1bwbeiqeywas4c57kpjvh4xs2mi,3j88r45b2kb75dq8jcp7lxfz5wepx0,f6uxamSu,2020-0188,2020-05-07,15:21:02,15:46:49,NA,incomplete,61,filling,1,right,Blue_Triangle_Chess_1.jpg,Purple_Circle_Grid_1.jpg,Green_Plus_Chess_3.jpg,left,733.9449999853969,false,high,false
f6uxamSu,36d1bwbeiqeywas4c57kpjvh4xs2mi,3j88r45b2kb75dq8jcp7lxfz5wepx0,f6uxamSu,2020-0188,2020-05-07,15:21:02,15:46:49,NA,incomplete,62,filling,1,left,Red_Triangle_Chess_1.jpg,Blue_Star_Chess_4.jpg,Green_Circle_Dots_1.jpg,left,1074.3849999271333,true,high,false
f6uxamSu,36d1bwbeiqeywas4c57kpjvh4xs2mi,3j88r45b2kb75dq8jcp7lxfz5wepx0,f6uxamSu,2020-0188,2020-05-07,15:21:02,15:46:49,NA,incomplete,63,filling,1,left,Red_Circle_Dots_3.jpg,Green_Star_Dots_2.jpg,Purple_Triangle_Stripes_3.jpg,left,1231.2949998304248,true,high,false
f6uxamSu,36d1bwbeiqeywas4c57kpjvh4xs2mi,3j88r45b2kb75dq8jcp7lxfz5wepx0,f6uxamSu,2020-0188,2020-05-07,15:21:02,15:46:49,NA,incomplete,64,filling,0,right,Green_Plus_Grid_4.jpg,Blue_Circle_Chess_4.jpg,Red_Star_Grid_1.jpg,left,810.7950002886355,false,high,false
f6uxamSu,36d1bwbeiqeywas4c57kpjvh4xs2mi,3j88r45b2kb75dq8jcp7lxfz5wepx0,f6uxamSu,2020-0188,2020-05-07,15:21:02,15:46:49,NA,incomplete,65,filling,1,right,Blue_Circle_Stripes_2.jpg,Purple_Plus_Chess_2.jpg,Red_Triangle_Stripes_1.jpg,right,968.8749997876585,true,high,false
f6uxamSu,36d1bwbeiqeywas4c57kpjvh4xs2mi,3j88r45b2kb75dq8jcp7lxfz5wepx0,f6uxamSu,2020-0188,2020-05-07,15:21:02,15:46:49,NA,incomplete,66,filling,0,right,Green_Triangle_Dots_4.jpg,Purple_Circle_Stripes_4.jpg,Blue_Star_Dots_3.jpg,right,1127.0850002765656,true,high,false
f6uxamSu,36d1bwbeiqeywas4c57kpjvh4xs2mi,3j88r45b2kb75dq8jcp7lxfz5wepx0,f6uxamSu,2020-0188,2020-05-07,15:21:02,15:46:49,NA,incomplete,67,filling,0,right,Red_Triangle_Grid_4.jpg,Purple_Star_Stripes_4.jpg,Blue_Circle_Grid_3.jpg,right,930.3550003096461,true,high,false
f6uxamSu,36d1bwbeiqeywas4c57kpjvh4xs2mi,3j88r45b2kb75dq8jcp7lxfz5wepx0,f6uxamSu,2020-0188,2020-05-07,15:21:02,15:46:49,NA,incomplete,68,filling,1,right,Red_Triangle_Chess_4.jpg,Blue_Star_Stripes_4.jpg,Purple_Circle_Chess_1.jpg,right,1008.7899998761714,true,high,false
f6uxamSu,36d1bwbeiqeywas4c57kpjvh4xs2mi,3j88r45b2kb75dq8jcp7lxfz5wepx0,f6uxamSu,2020-0188,2020-05-07,15:21:02,15:46:49,NA,incomplete,69,filling,1,left,Green_Plus_Grid_2.jpg,Red_Triangle_Grid_3.jpg,Blue_Circle_Stripes_2.jpg,left,943.245000205934,true,high,false
f6uxamSu,36d1bwbeiqeywas4c57kpjvh4xs2mi,3j88r45b2kb75dq8jcp7lxfz5wepx0,f6uxamSu,2020-0188,2020-05-07,15:21:02,15:46:49,NA,incomplete,70,number,0,left,Purple_Circle_Grid_1.jpg,Green_Plus_Dots_1.jpg,Red_Star_Grid_2.jpg,right,1014.3050001934171,false,high,false
f6uxamSu,36d1bwbeiqeywas4c57kpjvh4xs2mi,3j88r45b2kb75dq8jcp7lxfz5wepx0,f6uxamSu,2020-0188,2020-05-07,15:21:02,15:46:49,NA,incomplete,71,number,1,right,Red_Triangle_Chess_2.jpg,Purple_Circle_Chess_4.jpg,Blue_Plus_Grid_2.jpg,left,954.6150001697242,false,high,false
f6uxamSu,36d1bwbeiqeywas4c57kpjvh4xs2mi,3j88r45b2kb75dq8jcp7lxfz5wepx0,f6uxamSu,2020-0188,2020-05-07,15:21:02,15:46:49,NA,incomplete,72,number,1,right,Green_Plus_Stripes_4.jpg,Red_Triangle_Stripes_1.jpg,Purple_Star_Grid_4.jpg,left,1268.73500039801,false,high,false
f6uxamSu,36d1bwbeiqeywas4c57kpjvh4xs2mi,3j88r45b2kb75dq8jcp7lxfz5wepx0,f6uxamSu,2020-0188,2020-05-07,15:21:02,15:46:49,NA,incomplete,73,number,1,right,Purple_Circle_Dots_4.jpg,Blue_Plus_Dots_3.jpg,Green_Triangle_Stripes_4.jpg,right,797.4450001493096,true,high,false
f6uxamSu,36d1bwbeiqeywas4c57kpjvh4xs2mi,3j88r45b2kb75dq8jcp7lxfz5wepx0,f6uxamSu,2020-0188,2020-05-07,15:21:02,15:46:49,NA,incomplete,74,number,1,right,Blue_Plus_Stripes_1.jpg,Red_Triangle_Stripes_2.jpg,Purple_Circle_Grid_1.jpg,right,855.1349998451769,true,high,false
f6uxamSu,36d1bwbeiqeywas4c57kpjvh4xs2mi,3j88r45b2kb75dq8jcp7lxfz5wepx0,f6uxamSu,2020-0188,2020-05-07,15:21:02,15:46:49,NA,incomplete,75,number,1,left,Purple_Circle_Grid_3.jpg,Green_Star_Stripes_3.jpg,Red_Triangle_Grid_4.jpg,left,939.7800001315773,true,high,false
f6uxamSu,36d1bwbeiqeywas4c57kpjvh4xs2mi,3j88r45b2kb75dq8jcp7lxfz5wepx0,f6uxamSu,2020-0188,2020-05-07,15:21:02,15:46:49,NA,incomplete,76,number,1,right,Red_Triangle_Chess_2.jpg,Blue_Plus_Chess_4.jpg,Purple_Star_Grid_2.jpg,right,796.2150000967085,true,high,false
f6uxamSu,36d1bwbeiqeywas4c57kpjvh4xs2mi,3j88r45b2kb75dq8jcp7lxfz5wepx0,f6uxamSu,2020-0188,2020-05-07,15:21:02,15:46:49,NA,incomplete,77,number,1,left,Red_Circle_Grid_2.jpg,Blue_Star_Stripes_2.jpg,Green_Triangle_Grid_1.jpg,left,788.9250000007451,true,high,false
f6uxamSu,36d1bwbeiqeywas4c57kpjvh4xs2mi,3j88r45b2kb75dq8jcp7lxfz5wepx0,f6uxamSu,2020-0188,2020-05-07,15:21:02,15:46:49,NA,incomplete,78,number,0,left,Purple_Plus_Dots_3.jpg,Blue_Circle_Grid_3.jpg,Red_Triangle_Dots_4.jpg,left,877.4250000715256,true,high,false
f6uxamSu,36d1bwbeiqeywas4c57kpjvh4xs2mi,3j88r45b2kb75dq8jcp7lxfz5wepx0,f6uxamSu,2020-0188,2020-05-07,15:21:02,15:46:49,NA,incomplete,79,number,1,left,Green_Plus_Chess_3.jpg,Red_Star_Grid_3.jpg,Blue_Circle_Chess_4.jpg,left,775.8900001645088,true,high,false
f6uxamSu,36d1bwbeiqeywas4c57kpjvh4xs2mi,3j88r45b2kb75dq8jcp7lxfz5wepx0,f6uxamSu,2020-0188,2020-05-07,15:21:02,15:46:49,NA,incomplete,80,filling,0,right,Red_Star_Stripes_1.jpg,Purple_Circle_Chess_1.jpg,Blue_Plus_Stripes_2.jpg,left,815.3699999675155,false,high,false
f6uxamSu,36d1bwbeiqeywas4c57kpjvh4xs2mi,3j88r45b2kb75dq8jcp7lxfz5wepx0,f6uxamSu,2020-0188,2020-05-07,15:21:02,15:46:49,NA,incomplete,81,filling,1,right,Purple_Plus_Stripes_1.jpg,Red_Triangle_Grid_1.jpg,Blue_Star_Stripes_4.jpg,left,785.6899998150766,false,high,false
f6uxamSu,36d1bwbeiqeywas4c57kpjvh4xs2mi,3j88r45b2kb75dq8jcp7lxfz5wepx0,f6uxamSu,2020-0188,2020-05-07,15:21:02,15:46:49,NA,incomplete,82,filling,0,right,Green_Circle_Dots_2.jpg,Red_Star_Grid_2.jpg,Purple_Plus_Dots_1.jpg,left,830.955000128597,false,high,false
f6uxamSu,36d1bwbeiqeywas4c57kpjvh4xs2mi,3j88r45b2kb75dq8jcp7lxfz5wepx0,f6uxamSu,2020-0188,2020-05-07,15:21:02,15:46:49,NA,incomplete,83,filling,0,right,Purple_Plus_Dots_1.jpg,Red_Circle_Chess_1.jpg,Blue_Triangle_Dots_3.jpg,left,857.5550001114607,false,high,false
f6uxamSu,36d1bwbeiqeywas4c57kpjvh4xs2mi,3j88r45b2kb75dq8jcp7lxfz5wepx0,f6uxamSu,2020-0188,2020-05-07,15:21:02,15:46:49,NA,incomplete,84,filling,1,left,Green_Circle_Chess_4.jpg,Red_Star_Chess_3.jpg,Blue_Triangle_Stripes_4.jpg,right,819.019999820739,false,high,false
f6uxamSu,36d1bwbeiqeywas4c57kpjvh4xs2mi,3j88r45b2kb75dq8jcp7lxfz5wepx0,f6uxamSu,2020-0188,2020-05-07,15:21:02,15:46:49,NA,incomplete,85,filling,1,left,Red_Circle_Stripes_3.jpg,Purple_Star_Stripes_1.jpg,Blue_Plus_Dots_3.jpg,right,1011.7350001819432,false,high,false
f6uxamSu,36d1bwbeiqeywas4c57kpjvh4xs2mi,3j88r45b2kb75dq8jcp7lxfz5wepx0,f6uxamSu,2020-0188,2020-05-07,15:21:02,15:46:49,NA,incomplete,86,filling,0,left,Green_Circle_Grid_4.jpg,Blue_Star_Grid_1.jpg,Purple_Plus_Dots_4.jpg,right,865.5650001019239,false,high,false
f6uxamSu,36d1bwbeiqeywas4c57kpjvh4xs2mi,3j88r45b2kb75dq8jcp7lxfz5wepx0,f6uxamSu,2020-0188,2020-05-07,15:21:02,15:46:49,NA,incomplete,87,filling,0,left,Purple_Triangle_Dots_4.jpg,Green_Star_Dots_1.jpg,Blue_Circle_Chess_4.jpg,right,880.3150001913309,false,high,false
f6uxamSu,36d1bwbeiqeywas4c57kpjvh4xs2mi,3j88r45b2kb75dq8jcp7lxfz5wepx0,f6uxamSu,2020-0188,2020-05-07,15:21:02,15:46:49,NA,incomplete,88,filling,1,left,Green_Star_Stripes_2.jpg,Blue_Circle_Stripes_1.jpg,Purple_Plus_Dots_2.jpg,right,1009.784999769181,false,high,false
f6uxamSu,36d1bwbeiqeywas4c57kpjvh4xs2mi,3j88r45b2kb75dq8jcp7lxfz5wepx0,f6uxamSu,2020-0188,2020-05-07,15:21:02,15:46:49,NA,incomplete,89,filling,0,right,Red_Circle_Chess_1.jpg,Blue_Triangle_Dots_1.jpg,Purple_Plus_Chess_2.jpg,right,982.3949998244643,true,high,false
f6uxamSu,36d1bwbeiqeywas4c57kpjvh4xs2mi,3j88r45b2kb75dq8jcp7lxfz5wepx0,f6uxamSu,2020-0188,2020-05-07,15:21:02,15:46:49,NA,incomplete,90,number,1,left,Red_Star_Stripes_1.jpg,Green_Triangle_Grid_1.jpg,Purple_Plus_Stripes_4.jpg,left,859.9449996836483,true,high,false
f6uxamSu,36d1bwbeiqeywas4c57kpjvh4xs2mi,3j88r45b2kb75dq8jcp7lxfz5wepx0,f6uxamSu,2020-0188,2020-05-07,15:21:02,15:46:49,NA,incomplete,91,number,1,left,Blue_Star_Stripes_4.jpg,Purple_Triangle_Grid_4.jpg,Red_Circle_Stripes_1.jpg,left,839.0100002288818,true,high,false
f6uxamSu,36d1bwbeiqeywas4c57kpjvh4xs2mi,3j88r45b2kb75dq8jcp7lxfz5wepx0,f6uxamSu,2020-0188,2020-05-07,15:21:02,15:46:49,NA,incomplete,92,number,1,left,Red_Triangle_Stripes_1.jpg,Green_Star_Grid_1.jpg,Blue_Plus_Stripes_4.jpg,left,737.0899999514222,true,high,false
f6uxamSu,36d1bwbeiqeywas4c57kpjvh4xs2mi,3j88r45b2kb75dq8jcp7lxfz5wepx0,f6uxamSu,2020-0188,2020-05-07,15:21:02,15:46:49,NA,incomplete,93,number,1,right,Red_Triangle_Dots_2.jpg,Green_Star_Dots_4.jpg,Purple_Plus_Stripes_2.jpg,right,885.6800002977252,true,high,false
f6uxamSu,36d1bwbeiqeywas4c57kpjvh4xs2mi,3j88r45b2kb75dq8jcp7lxfz5wepx0,f6uxamSu,2020-0188,2020-05-07,15:21:02,15:46:49,NA,incomplete,94,number,1,right,Green_Circle_Chess_4.jpg,Red_Triangle_Chess_3.jpg,Purple_Star_Stripes_4.jpg,right,816.0599996335804,true,high,false
f6uxamSu,36d1bwbeiqeywas4c57kpjvh4xs2mi,3j88r45b2kb75dq8jcp7lxfz5wepx0,f6uxamSu,2020-0188,2020-05-07,15:21:02,15:46:49,NA,incomplete,95,number,0,left,Blue_Plus_Dots_2.jpg,Green_Star_Stripes_2.jpg,Red_Circle_Dots_3.jpg,left,641.330000013113,true,high,false
f6uxamSu,36d1bwbeiqeywas4c57kpjvh4xs2mi,3j88r45b2kb75dq8jcp7lxfz5wepx0,f6uxamSu,2020-0188,2020-05-07,15:21:02,15:46:49,NA,incomplete,96,number,0,left,Red_Plus_Chess_4.jpg,Purple_Circle_Stripes_4.jpg,Green_Triangle_Chess_1.jpg,left,756.4400001429021,true,high,false
f6uxamSu,36d1bwbeiqeywas4c57kpjvh4xs2mi,3j88r45b2kb75dq8jcp7lxfz5wepx0,f6uxamSu,2020-0188,2020-05-07,15:21:02,15:46:49,NA,incomplete,97,number,1,left,Purple_Circle_Dots_1.jpg,Blue_Star_Stripes_1.jpg,Red_Triangle_Dots_4.jpg,left,724.6799999848008,true,high,false
f6uxamSu,36d1bwbeiqeywas4c57kpjvh4xs2mi,3j88r45b2kb75dq8jcp7lxfz5wepx0,f6uxamSu,2020-0188,2020-05-07,15:21:02,15:46:49,NA,incomplete,98,number,1,right,Purple_Triangle_Dots_3.jpg,Green_Plus_Dots_1.jpg,Blue_Circle_Stripes_3.jpg,right,851.885000243783,true,high,false
f6uxamSu,36d1bwbeiqeywas4c57kpjvh4xs2mi,3j88r45b2kb75dq8jcp7lxfz5wepx0,f6uxamSu,2020-0188,2020-05-07,15:21:02,15:46:49,NA,incomplete,99,number,0,left,Red_Triangle_Chess_2.jpg,Green_Star_Dots_2.jpg,Purple_Circle_Chess_4.jpg,left,754.4299997389317,true,high,false
f6uxamSu,36d1bwbeiqeywas4c57kpjvh4xs2mi,3j88r45b2kb75dq8jcp7lxfz5wepx0,f6uxamSu,2020-0188,2020-05-07,15:21:02,15:46:49,NA,incomplete,100,filling,0,right,Purple_Plus_Stripes_3.jpg,Blue_Circle_Chess_3.jpg,Red_Star_Stripes_4.jpg,right,1066.750000230968,true,high,false
f6uxamSu,36d1bwbeiqeywas4c57kpjvh4xs2mi,3j88r45b2kb75dq8jcp7lxfz5wepx0,f6uxamSu,2020-0188,2020-05-07,15:21:02,15:46:49,NA,incomplete,101,filling,1,left,Blue_Circle_Stripes_2.jpg,Red_Triangle_Stripes_1.jpg,Green_Star_Chess_2.jpg,right,1014.655000064522,false,high,false
f6uxamSu,36d1bwbeiqeywas4c57kpjvh4xs2mi,3j88r45b2kb75dq8jcp7lxfz5wepx0,f6uxamSu,2020-0188,2020-05-07,15:21:02,15:46:49,NA,incomplete,102,filling,1,left,Green_Triangle_Stripes_1.jpg,Blue_Star_Stripes_3.jpg,Purple_Circle_Chess_1.jpg,left,1049.6700000949204,true,high,false
f6uxamSu,36d1bwbeiqeywas4c57kpjvh4xs2mi,3j88r45b2kb75dq8jcp7lxfz5wepx0,f6uxamSu,2020-0188,2020-05-07,15:21:02,15:46:49,NA,incomplete,103,filling,1,right,Green_Triangle_Grid_4.jpg,Red_Circle_Chess_4.jpg,Purple_Star_Grid_2.jpg,right,1101.8649996258318,true,high,false
f6uxamSu,36d1bwbeiqeywas4c57kpjvh4xs2mi,3j88r45b2kb75dq8jcp7lxfz5wepx0,f6uxamSu,2020-0188,2020-05-07,15:21:02,15:46:49,NA,incomplete,104,filling,1,left,Blue_Triangle_Grid_4.jpg,Red_Star_Grid_1.jpg,Green_Plus_Stripes_4.jpg,left,1084.8449999466538,true,high,false
f6uxamSu,36d1bwbeiqeywas4c57kpjvh4xs2mi,3j88r45b2kb75dq8jcp7lxfz5wepx0,f6uxamSu,2020-0188,2020-05-07,15:21:02,15:46:49,NA,incomplete,105,filling,1,left,Green_Star_Dots_3.jpg,Red_Triangle_Dots_4.jpg,Purple_Plus_Chess_3.jpg,left,1101.1450001969934,true,high,false
f6uxamSu,36d1bwbeiqeywas4c57kpjvh4xs2mi,3j88r45b2kb75dq8jcp7lxfz5wepx0,f6uxamSu,2020-0188,2020-05-07,15:21:02,15:46:49,NA,incomplete,106,filling,0,left,Purple_Triangle_Grid_1.jpg,Blue_Circle_Grid_2.jpg,Red_Star_Stripes_1.jpg,left,986.4049996249378,true,high,false
f6uxamSu,36d1bwbeiqeywas4c57kpjvh4xs2mi,3j88r45b2kb75dq8jcp7lxfz5wepx0,f6uxamSu,2020-0188,2020-05-07,15:21:02,15:46:49,NA,incomplete,107,filling,0,right,Blue_Plus_Stripes_4.jpg,Green_Triangle_Dots_4.jpg,Red_Star_Stripes_1.jpg,right,1173.729999922216,true,high,false
f6uxamSu,36d1bwbeiqeywas4c57kpjvh4xs2mi,3j88r45b2kb75dq8jcp7lxfz5wepx0,f6uxamSu,2020-0188,2020-05-07,15:21:02,15:46:49,NA,incomplete,108,filling,1,left,Red_Star_Chess_3.jpg,Purple_Plus_Chess_1.jpg,Green_Triangle_Stripes_3.jpg,left,1075.0699997879565,true,high,false
f6uxamSu,36d1bwbeiqeywas4c57kpjvh4xs2mi,3j88r45b2kb75dq8jcp7lxfz5wepx0,f6uxamSu,2020-0188,2020-05-07,15:21:02,15:46:49,NA,incomplete,109,filling,1,left,Red_Circle_Chess_1.jpg,Green_Star_Chess_2.jpg,Purple_Triangle_Grid_1.jpg,left,1109.0449998155236,true,high,false
f6uxamSu,36d1bwbeiqeywas4c57kpjvh4xs2mi,3j88r45b2kb75dq8jcp7lxfz5wepx0,f6uxamSu,2020-0188,2020-05-07,15:21:02,15:46:49,NA,incomplete,110,number,0,left,Green_Triangle_Dots_4.jpg,Purple_Plus_Chess_4.jpg,Red_Star_Dots_1.jpg,right,1215.1700002141297,false,high,false
f6uxamSu,36d1bwbeiqeywas4c57kpjvh4xs2mi,3j88r45b2kb75dq8jcp7lxfz5wepx0,f6uxamSu,2020-0188,2020-05-07,15:21:02,15:46:49,NA,incomplete,111,number,1,left,Purple_Plus_Stripes_3.jpg,Red_Star_Dots_3.jpg,Blue_Triangle_Stripes_2.jpg,right,1058.974999934435,false,high,false
f6uxamSu,36d1bwbeiqeywas4c57kpjvh4xs2mi,3j88r45b2kb75dq8jcp7lxfz5wepx0,f6uxamSu,2020-0188,2020-05-07,15:21:02,15:46:49,NA,incomplete,112,number,1,left,Blue_Circle_Stripes_1.jpg,Red_Plus_Grid_1.jpg,Purple_Triangle_Stripes_3.jpg,right,1051.7699997872114,false,high,false
f6uxamSu,36d1bwbeiqeywas4c57kpjvh4xs2mi,3j88r45b2kb75dq8jcp7lxfz5wepx0,f6uxamSu,2020-0188,2020-05-07,15:21:02,15:46:49,NA,incomplete,113,number,1,right,Purple_Plus_Chess_3.jpg,Red_Triangle_Chess_1.jpg,Blue_Star_Dots_3.jpg,right,798.2499999925494,true,high,false
f6uxamSu,36d1bwbeiqeywas4c57kpjvh4xs2mi,3j88r45b2kb75dq8jcp7lxfz5wepx0,f6uxamSu,2020-0188,2020-05-07,15:21:02,15:46:49,NA,incomplete,114,number,1,left,Green_Triangle_Chess_1.jpg,Red_Circle_Dots_1.jpg,Blue_Plus_Chess_4.jpg,left,887.0300003327429,true,high,false
f6uxamSu,36d1bwbeiqeywas4c57kpjvh4xs2mi,3j88r45b2kb75dq8jcp7lxfz5wepx0,f6uxamSu,2020-0188,2020-05-07,15:21:02,15:46:49,NA,incomplete,115,number,1,left,Red_Plus_Dots_3.jpg,Purple_Circle_Grid_3.jpg,Blue_Triangle_Dots_4.jpg,left,917.0650001615286,true,high,false
f6uxamSu,36d1bwbeiqeywas4c57kpjvh4xs2mi,3j88r45b2kb75dq8jcp7lxfz5wepx0,f6uxamSu,2020-0188,2020-05-07,15:21:02,15:46:49,NA,incomplete,116,number,1,left,Red_Triangle_Stripes_2.jpg,Purple_Star_Grid_2.jpg,Blue_Plus_Stripes_3.jpg,left,761.7799998261034,true,high,false
f6uxamSu,36d1bwbeiqeywas4c57kpjvh4xs2mi,3j88r45b2kb75dq8jcp7lxfz5wepx0,f6uxamSu,2020-0188,2020-05-07,15:21:02,15:46:49,NA,incomplete,117,number,0,left,Red_Star_Chess_4.jpg,Purple_Triangle_Dots_4.jpg,Green_Circle_Chess_1.jpg,left,835.9449999406934,true,high,false
f6uxamSu,36d1bwbeiqeywas4c57kpjvh4xs2mi,3j88r45b2kb75dq8jcp7lxfz5wepx0,f6uxamSu,2020-0188,2020-05-07,15:21:02,15:46:49,NA,incomplete,118,number,1,right,Green_Star_Chess_2.jpg,Purple_Triangle_Chess_1.jpg,Blue_Plus_Dots_2.jpg,right,826.3699999079108,true,high,false
f6uxamSu,36d1bwbeiqeywas4c57kpjvh4xs2mi,3j88r45b2kb75dq8jcp7lxfz5wepx0,f6uxamSu,2020-0188,2020-05-07,15:21:02,15:46:49,NA,incomplete,119,number,1,left,Purple_Star_Stripes_2.jpg,Blue_Plus_Chess_2.jpg,Green_Circle_Stripes_4.jpg,left,842.244999948889,true,high,false
f6uxamSu,36d1bwbeiqeywas4c57kpjvh4xs2mi,3j88r45b2kb75dq8jcp7lxfz5wepx0,f6uxamSu,2020-0188,2020-05-07,15:21:02,15:46:49,NA,incomplete,120,filling,1,right,Purple_Circle_Stripes_4.jpg,Green_Triangle_Dots_4.jpg,Blue_Plus_Stripes_2.jpg,left,785.5549999512732,false,high,false
f6uxamSu,36d1bwbeiqeywas4c57kpjvh4xs2mi,3j88r45b2kb75dq8jcp7lxfz5wepx0,f6uxamSu,2020-0188,2020-05-07,15:21:02,15:46:49,NA,incomplete,121,filling,1,right,Purple_Star_Stripes_2.jpg,Red_Triangle_Chess_2.jpg,Blue_Plus_Stripes_3.jpg,left,768.3749999850988,false,high,false
f6uxamSu,36d1bwbeiqeywas4c57kpjvh4xs2mi,3j88r45b2kb75dq8jcp7lxfz5wepx0,f6uxamSu,2020-0188,2020-05-07,15:21:02,15:46:49,NA,incomplete,122,filling,0,right,Blue_Triangle_Stripes_1.jpg,Red_Star_Grid_1.jpg,Purple_Circle_Stripes_2.jpg,right,786.104999948293,true,high,false
f6uxamSu,36d1bwbeiqeywas4c57kpjvh4xs2mi,3j88r45b2kb75dq8jcp7lxfz5wepx0,f6uxamSu,2020-0188,2020-05-07,15:21:02,15:46:49,NA,incomplete,123,filling,1,left,Blue_Triangle_Chess_4.jpg,Red_Circle_Chess_2.jpg,Green_Plus_Dots_4.jpg,left,955.6399998255074,true,high,false
f6uxamSu,36d1bwbeiqeywas4c57kpjvh4xs2mi,3j88r45b2kb75dq8jcp7lxfz5wepx0,f6uxamSu,2020-0188,2020-05-07,15:21:02,15:46:49,NA,incomplete,124,filling,1,left,Purple_Triangle_Stripes_1.jpg,Green_Plus_Stripes_4.jpg,Red_Star_Grid_1.jpg,left,1044.850000180304,true,high,false
f6uxamSu,36d1bwbeiqeywas4c57kpjvh4xs2mi,3j88r45b2kb75dq8jcp7lxfz5wepx0,f6uxamSu,2020-0188,2020-05-07,15:21:02,15:46:49,NA,incomplete,125,filling,1,left,Blue_Star_Stripes_3.jpg,Purple_Triangle_Stripes_1.jpg,Green_Plus_Chess_3.jpg,left,1150.2049998380244,true,high,false
f6uxamSu,36d1bwbeiqeywas4c57kpjvh4xs2mi,3j88r45b2kb75dq8jcp7lxfz5wepx0,f6uxamSu,2020-0188,2020-05-07,15:21:02,15:46:49,NA,incomplete,126,filling,1,right,Purple_Plus_Dots_4.jpg,Green_Star_Grid_4.jpg,Blue_Triangle_Dots_2.jpg,right,911.9949997402728,true,high,false
f6uxamSu,36d1bwbeiqeywas4c57kpjvh4xs2mi,3j88r45b2kb75dq8jcp7lxfz5wepx0,f6uxamSu,2020-0188,2020-05-07,15:21:02,15:46:49,NA,incomplete,127,filling,1,right,Purple_Triangle_Chess_3.jpg,Red_Plus_Dots_3.jpg,Green_Star_Chess_2.jpg,right,910.5050000362098,true,high,false
f6uxamSu,36d1bwbeiqeywas4c57kpjvh4xs2mi,3j88r45b2kb75dq8jcp7lxfz5wepx0,f6uxamSu,2020-0188,2020-05-07,15:21:02,15:46:49,NA,incomplete,128,filling,0,left,Purple_Circle_Stripes_2.jpg,Red_Star_Stripes_4.jpg,Green_Triangle_Chess_2.jpg,left,860.370000358671,true,high,false
f6uxamSu,36d1bwbeiqeywas4c57kpjvh4xs2mi,3j88r45b2kb75dq8jcp7lxfz5wepx0,f6uxamSu,2020-0188,2020-05-07,15:21:02,15:46:49,NA,incomplete,129,filling,1,left,Red_Plus_Chess_2.jpg,Purple_Triangle_Chess_4.jpg,Green_Star_Grid_2.jpg,left,950.8400000631809,true,high,false
f6uxamSu,36d1bwbeiqeywas4c57kpjvh4xs2mi,3j88r45b2kb75dq8jcp7lxfz5wepx0,f6uxamSu,2020-0188,2020-05-07,15:21:02,15:46:49,NA,incomplete,130,filling,1,right,Green_Star_Stripes_1.jpg,Purple_Triangle_Grid_1.jpg,Blue_Circle_Stripes_4.jpg,right,968.7000000849366,true,high,false
f6uxamSu,36d1bwbeiqeywas4c57kpjvh4xs2mi,3j88r45b2kb75dq8jcp7lxfz5wepx0,f6uxamSu,2020-0188,2020-05-07,15:21:02,15:46:49,NA,incomplete,131,filling,0,right,Blue_Plus_Dots_2.jpg,Purple_Circle_Chess_2.jpg,Red_Triangle_Dots_3.jpg,right,1021.5750001370907,true,high,false
f6uxamSu,36d1bwbeiqeywas4c57kpjvh4xs2mi,3j88r45b2kb75dq8jcp7lxfz5wepx0,f6uxamSu,2020-0188,2020-05-07,15:21:02,15:46:49,NA,incomplete,132,filling,1,right,Purple_Star_Dots_2.jpg,Red_Circle_Chess_2.jpg,Green_Triangle_Dots_3.jpg,right,944.6800001896918,true,high,false
f6uxamSu,36d1bwbeiqeywas4c57kpjvh4xs2mi,3j88r45b2kb75dq8jcp7lxfz5wepx0,f6uxamSu,2020-0188,2020-05-07,15:21:02,15:46:49,NA,incomplete,133,filling,1,left,Blue_Plus_Stripes_1.jpg,Green_Triangle_Stripes_3.jpg,Red_Star_Chess_1.jpg,left,840.7799997366965,true,high,false
f6uxamSu,36d1bwbeiqeywas4c57kpjvh4xs2mi,3j88r45b2kb75dq8jcp7lxfz5wepx0,f6uxamSu,2020-0188,2020-05-07,15:21:02,15:46:49,NA,incomplete,134,filling,0,right,Blue_Star_Grid_4.jpg,Green_Plus_Stripes_4.jpg,Purple_Circle_Grid_2.jpg,right,999.9350002035499,true,high,false
f6uxamSu,36d1bwbeiqeywas4c57kpjvh4xs2mi,3j88r45b2kb75dq8jcp7lxfz5wepx0,f6uxamSu,2020-0188,2020-05-07,15:21:02,15:46:49,NA,incomplete,135,filling,1,right,Purple_Plus_Grid_1.jpg,Blue_Circle_Dots_1.jpg,Green_Triangle_Grid_4.jpg,right,1117.8799998015165,true,high,false
f6uxamSu,36d1bwbeiqeywas4c57kpjvh4xs2mi,3j88r45b2kb75dq8jcp7lxfz5wepx0,f6uxamSu,2020-0188,2020-05-07,15:21:02,15:46:49,NA,incomplete,136,filling,1,left,Red_Triangle_Grid_3.jpg,Blue_Star_Grid_1.jpg,Purple_Plus_Chess_3.jpg,left,1025.3299996256828,true,high,false
f6uxamSu,36d1bwbeiqeywas4c57kpjvh4xs2mi,3j88r45b2kb75dq8jcp7lxfz5wepx0,f6uxamSu,2020-0188,2020-05-07,15:21:02,15:46:49,NA,incomplete,137,filling,1,left,Purple_Plus_Stripes_1.jpg,Red_Triangle_Stripes_4.jpg,Green_Circle_Dots_1.jpg,right,897.7799997664988,false,high,false
f6uxamSu,36d1bwbeiqeywas4c57kpjvh4xs2mi,3j88r45b2kb75dq8jcp7lxfz5wepx0,f6uxamSu,2020-0188,2020-05-07,15:21:02,15:46:49,NA,incomplete,138,filling,0,left,Blue_Star_Grid_3.jpg,Purple_Plus_Grid_2.jpg,Red_Triangle_Dots_3.jpg,right,917.7299998700619,false,high,false
f6uxamSu,36d1bwbeiqeywas4c57kpjvh4xs2mi,3j88r45b2kb75dq8jcp7lxfz5wepx0,f6uxamSu,2020-0188,2020-05-07,15:21:02,15:46:49,NA,incomplete,139,filling,1,right,Green_Triangle_Chess_3.jpg,Blue_Star_Dots_3.jpg,Red_Circle_Chess_1.jpg,left,918.9949999563396,false,high,false
f6uxamSu,36d1bwbeiqeywas4c57kpjvh4xs2mi,3j88r45b2kb75dq8jcp7lxfz5wepx0,f6uxamSu,2020-0188,2020-05-07,15:21:02,15:46:49,NA,incomplete,140,number,1,right,Red_Plus_Chess_2.jpg,Purple_Triangle_Chess_3.jpg,Blue_Star_Dots_2.jpg,right,926.7400000244379,true,high,false
f6uxamSu,36d1bwbeiqeywas4c57kpjvh4xs2mi,3j88r45b2kb75dq8jcp7lxfz5wepx0,f6uxamSu,2020-0188,2020-05-07,15:21:02,15:46:49,NA,incomplete,141,number,1,right,Green_Circle_Stripes_2.jpg,Purple_Triangle_Stripes_1.jpg,Red_Plus_Grid_2.jpg,right,918.3100000955164,true,high,false
f6uxamSu,36d1bwbeiqeywas4c57kpjvh4xs2mi,3j88r45b2kb75dq8jcp7lxfz5wepx0,f6uxamSu,2020-0188,2020-05-07,15:21:02,15:46:49,NA,incomplete,142,number,1,left,Red_Triangle_Grid_4.jpg,Purple_Star_Stripes_4.jpg,Blue_Circle_Grid_3.jpg,left,760.7950000092387,true,high,false
f6uxamSu,36d1bwbeiqeywas4c57kpjvh4xs2mi,3j88r45b2kb75dq8jcp7lxfz5wepx0,f6uxamSu,2020-0188,2020-05-07,15:21:02,15:46:49,NA,incomplete,143,number,1,right,Blue_Plus_Chess_4.jpg,Purple_Star_Chess_1.jpg,Red_Circle_Stripes_4.jpg,right,796.9650002196431,true,high,false
f6uxamSu,36d1bwbeiqeywas4c57kpjvh4xs2mi,3j88r45b2kb75dq8jcp7lxfz5wepx0,f6uxamSu,2020-0188,2020-05-07,15:21:02,15:46:49,NA,incomplete,144,number,1,right,Red_Star_Chess_3.jpg,Blue_Circle_Chess_2.jpg,Green_Plus_Stripes_3.jpg,right,898.914999794215,true,high,false
f6uxamSu,36d1bwbeiqeywas4c57kpjvh4xs2mi,3j88r45b2kb75dq8jcp7lxfz5wepx0,f6uxamSu,2020-0188,2020-05-07,15:21:02,15:46:49,NA,incomplete,145,number,1,right,Purple_Plus_Grid_1.jpg,Green_Circle_Grid_3.jpg,Blue_Star_Dots_1.jpg,right,764.035000000149,true,high,false
f6uxamSu,36d1bwbeiqeywas4c57kpjvh4xs2mi,3j88r45b2kb75dq8jcp7lxfz5wepx0,f6uxamSu,2020-0188,2020-05-07,15:21:02,15:46:49,NA,incomplete,146,number,1,left,Blue_Circle_Grid_1.jpg,Green_Triangle_Stripes_1.jpg,Purple_Star_Grid_4.jpg,left,787.4549999833107,true,high,false
f6uxamSu,36d1bwbeiqeywas4c57kpjvh4xs2mi,3j88r45b2kb75dq8jcp7lxfz5wepx0,f6uxamSu,2020-0188,2020-05-07,15:21:02,15:46:49,NA,incomplete,147,number,1,left,Purple_Star_Chess_3.jpg,Red_Plus_Stripes_3.jpg,Blue_Triangle_Chess_1.jpg,left,826.874999795109,true,high,false
f6uxamSu,36d1bwbeiqeywas4c57kpjvh4xs2mi,3j88r45b2kb75dq8jcp7lxfz5wepx0,f6uxamSu,2020-0188,2020-05-07,15:21:02,15:46:49,NA,incomplete,148,number,1,right,Red_Circle_Grid_1.jpg,Green_Plus_Grid_2.jpg,Blue_Star_Dots_1.jpg,right,859.560000244528,true,high,false
f6uxamSu,36d1bwbeiqeywas4c57kpjvh4xs2mi,3j88r45b2kb75dq8jcp7lxfz5wepx0,f6uxamSu,2020-0188,2020-05-07,15:21:02,15:46:49,NA,incomplete,149,number,1,left,Green_Circle_Stripes_4.jpg,Purple_Star_Dots_4.jpg,Blue_Triangle_Stripes_3.jpg,left,792.9549999535084,true,high,false
f6uxamSu,36d1bwbeiqeywas4c57kpjvh4xs2mi,3j88r45b2kb75dq8jcp7lxfz5wepx0,f6uxamSu,2020-0188,2020-05-07,15:21:02,15:46:49,NA,incomplete,150,number,0,left,Blue_Plus_Grid_3.jpg,Green_Triangle_Dots_3.jpg,Red_Circle_Grid_4.jpg,left,767.5199997611344,true,high,false
f6uxamSu,36d1bwbeiqeywas4c57kpjvh4xs2mi,3j88r45b2kb75dq8jcp7lxfz5wepx0,f6uxamSu,2020-0188,2020-05-07,15:21:02,15:46:49,NA,incomplete,151,number,1,right,Purple_Circle_Stripes_3.jpg,Green_Plus_Stripes_1.jpg,Blue_Star_Grid_3.jpg,right,933.5650000721216,true,high,false
f6uxamSu,36d1bwbeiqeywas4c57kpjvh4xs2mi,3j88r45b2kb75dq8jcp7lxfz5wepx0,f6uxamSu,2020-0188,2020-05-07,15:21:02,15:46:49,NA,incomplete,152,number,1,right,Green_Triangle_Dots_4.jpg,Red_Star_Dots_1.jpg,Blue_Plus_Chess_4.jpg,right,863.9899999834597,true,high,false
f6uxamSu,36d1bwbeiqeywas4c57kpjvh4xs2mi,3j88r45b2kb75dq8jcp7lxfz5wepx0,f6uxamSu,2020-0188,2020-05-07,15:21:02,15:46:49,NA,incomplete,153,number,0,left,Blue_Triangle_Dots_2.jpg,Purple_Plus_Grid_2.jpg,Red_Star_Dots_3.jpg,left,716.454999987036,true,high,false
f6uxamSu,36d1bwbeiqeywas4c57kpjvh4xs2mi,3j88r45b2kb75dq8jcp7lxfz5wepx0,f6uxamSu,2020-0188,2020-05-07,15:21:02,15:46:49,NA,incomplete,154,number,1,right,Purple_Triangle_Stripes_4.jpg,Blue_Star_Stripes_3.jpg,Green_Circle_Dots_4.jpg,right,868.0249997414649,true,high,false
f6uxamSu,36d1bwbeiqeywas4c57kpjvh4xs2mi,3j88r45b2kb75dq8jcp7lxfz5wepx0,f6uxamSu,2020-0188,2020-05-07,15:21:02,15:46:49,NA,incomplete,155,number,0,left,Green_Plus_Grid_3.jpg,Blue_Circle_Chess_3.jpg,Red_Triangle_Grid_1.jpg,left,827.8950001113117,true,high,false
f6uxamSu,36d1bwbeiqeywas4c57kpjvh4xs2mi,3j88r45b2kb75dq8jcp7lxfz5wepx0,f6uxamSu,2020-0188,2020-05-07,15:21:02,15:46:49,NA,incomplete,156,number,1,left,Green_Circle_Chess_4.jpg,Red_Star_Stripes_4.jpg,Blue_Plus_Chess_2.jpg,left,809.8050002008677,true,high,false
f6uxamSu,36d1bwbeiqeywas4c57kpjvh4xs2mi,3j88r45b2kb75dq8jcp7lxfz5wepx0,f6uxamSu,2020-0188,2020-05-07,15:21:02,15:46:49,NA,incomplete,157,number,1,left,Blue_Triangle_Grid_1.jpg,Red_Plus_Stripes_1.jpg,Purple_Circle_Grid_2.jpg,left,776.9499998539686,true,high,false
f6uxamSu,36d1bwbeiqeywas4c57kpjvh4xs2mi,3j88r45b2kb75dq8jcp7lxfz5wepx0,f6uxamSu,2020-0188,2020-05-07,15:21:02,15:46:49,NA,incomplete,158,number,1,right,Red_Star_Dots_2.jpg,Green_Plus_Dots_4.jpg,Blue_Circle_Stripes_2.jpg,right,844.0299998037517,true,high,false
f6uxamSu,36d1bwbeiqeywas4c57kpjvh4xs2mi,3j88r45b2kb75dq8jcp7lxfz5wepx0,f6uxamSu,2020-0188,2020-05-07,15:21:02,15:46:49,NA,incomplete,159,number,1,right,Red_Circle_Stripes_4.jpg,Purple_Star_Stripes_3.jpg,Blue_Triangle_Grid_4.jpg,right,880.7749999687076,true,high,false
f6uxamSu,36d1bwbeiqeywas4c57kpjvh4xs2mi,3j88r45b2kb75dq8jcp7lxfz5wepx0,f6uxamSu,2020-0188,2020-05-07,15:21:02,15:46:49,NA,incomplete,160,filling,0,right,Blue_Star_Stripes_1.jpg,Green_Plus_Dots_1.jpg,Red_Triangle_Stripes_4.jpg,left,799.8500000685453,false,high,false
f6uxamSu,36d1bwbeiqeywas4c57kpjvh4xs2mi,3j88r45b2kb75dq8jcp7lxfz5wepx0,f6uxamSu,2020-0188,2020-05-07,15:21:02,15:46:49,NA,incomplete,161,filling,1,left,Red_Star_Grid_2.jpg,Blue_Triangle_Grid_3.jpg,Green_Plus_Stripes_2.jpg,right,782.6699996367097,false,high,false
f6uxamSu,36d1bwbeiqeywas4c57kpjvh4xs2mi,3j88r45b2kb75dq8jcp7lxfz5wepx0,f6uxamSu,2020-0188,2020-05-07,15:21:02,15:46:49,NA,incomplete,162,filling,1,left,Green_Plus_Stripes_3.jpg,Purple_Triangle_Stripes_2.jpg,Red_Circle_Grid_3.jpg,right,865.4550001956522,false,high,false
f6uxamSu,36d1bwbeiqeywas4c57kpjvh4xs2mi,3j88r45b2kb75dq8jcp7lxfz5wepx0,f6uxamSu,2020-0188,2020-05-07,15:21:02,15:46:49,NA,incomplete,163,filling,0,right,Red_Plus_Dots_3.jpg,Purple_Circle_Grid_3.jpg,Blue_Triangle_Dots_1.jpg,right,1077.060000039637,true,high,false
f6uxamSu,36d1bwbeiqeywas4c57kpjvh4xs2mi,3j88r45b2kb75dq8jcp7lxfz5wepx0,f6uxamSu,2020-0188,2020-05-07,15:21:02,15:46:49,NA,incomplete,164,filling,1,right,Purple_Plus_Chess_2.jpg,Green_Circle_Grid_2.jpg,Red_Triangle_Chess_3.jpg,left,1015.9049998037517,false,high,false
f6uxamSu,36d1bwbeiqeywas4c57kpjvh4xs2mi,3j88r45b2kb75dq8jcp7lxfz5wepx0,f6uxamSu,2020-0188,2020-05-07,15:21:02,15:46:49,NA,incomplete,165,filling,1,right,Purple_Plus_Dots_3.jpg,Green_Circle_Grid_3.jpg,Blue_Star_Dots_1.jpg,left,923.2800002209842,false,high,false
f6uxamSu,36d1bwbeiqeywas4c57kpjvh4xs2mi,3j88r45b2kb75dq8jcp7lxfz5wepx0,f6uxamSu,2020-0188,2020-05-07,15:21:02,15:46:49,NA,incomplete,166,filling,1,right,Red_Circle_Dots_3.jpg,Purple_Triangle_Chess_3.jpg,Green_Plus_Dots_4.jpg,right,1046.95999994874,true,high,false
f6uxamSu,36d1bwbeiqeywas4c57kpjvh4xs2mi,3j88r45b2kb75dq8jcp7lxfz5wepx0,f6uxamSu,2020-0188,2020-05-07,15:21:02,15:46:49,NA,incomplete,167,filling,1,right,Red_Star_Dots_2.jpg,Blue_Triangle_Stripes_2.jpg,Green_Plus_Dots_3.jpg,right,1110.5650002136827,true,high,false
f6uxamSu,36d1bwbeiqeywas4c57kpjvh4xs2mi,3j88r45b2kb75dq8jcp7lxfz5wepx0,f6uxamSu,2020-0188,2020-05-07,15:21:02,15:46:49,NA,incomplete,168,filling,1,right,Red_Circle_Dots_3.jpg,Purple_Plus_Grid_3.jpg,Green_Triangle_Dots_1.jpg,right,870.2549999579787,true,high,false
f6uxamSu,36d1bwbeiqeywas4c57kpjvh4xs2mi,3j88r45b2kb75dq8jcp7lxfz5wepx0,f6uxamSu,2020-0188,2020-05-07,15:21:02,15:46:49,NA,incomplete,169,filling,0,right,Purple_Circle_Dots_2.jpg,Blue_Plus_Grid_2.jpg,Green_Triangle_Dots_3.jpg,right,906.070000026375,true,high,false
f6uxamSu,36d1bwbeiqeywas4c57kpjvh4xs2mi,3j88r45b2kb75dq8jcp7lxfz5wepx0,f6uxamSu,2020-0188,2020-05-07,15:21:02,15:46:49,NA,incomplete,170,filling,1,left,Blue_Star_Chess_2.jpg,Green_Circle_Chess_1.jpg,Purple_Plus_Grid_2.jpg,left,876.6000000759959,true,high,false
f6uxamSu,36d1bwbeiqeywas4c57kpjvh4xs2mi,3j88r45b2kb75dq8jcp7lxfz5wepx0,f6uxamSu,2020-0188,2020-05-07,15:21:02,15:46:49,NA,incomplete,171,filling,1,right,Blue_Triangle_Grid_1.jpg,Green_Star_Stripes_1.jpg,Purple_Circle_Grid_3.jpg,right,894.8450000025332,true,high,false
f6uxamSu,36d1bwbeiqeywas4c57kpjvh4xs2mi,3j88r45b2kb75dq8jcp7lxfz5wepx0,f6uxamSu,2020-0188,2020-05-07,15:21:02,15:46:49,NA,incomplete,172,filling,1,left,Purple_Plus_Dots_2.jpg,Red_Circle_Dots_1.jpg,Blue_Star_Grid_2.jpg,left,1049.1949999704957,true,high,false
f6uxamSu,36d1bwbeiqeywas4c57kpjvh4xs2mi,3j88r45b2kb75dq8jcp7lxfz5wepx0,f6uxamSu,2020-0188,2020-05-07,15:21:02,15:46:49,NA,incomplete,173,filling,1,left,Green_Plus_Dots_4.jpg,Blue_Circle_Dots_1.jpg,Red_Star_Stripes_4.jpg,left,919.9050003662705,true,high,false
f6uxamSu,36d1bwbeiqeywas4c57kpjvh4xs2mi,3j88r45b2kb75dq8jcp7lxfz5wepx0,f6uxamSu,2020-0188,2020-05-07,15:21:02,15:46:49,NA,incomplete,174,filling,0,right,Blue_Star_Dots_1.jpg,Green_Plus_Grid_1.jpg,Red_Circle_Dots_3.jpg,right,956.5300000831485,true,high,false
f6uxamSu,36d1bwbeiqeywas4c57kpjvh4xs2mi,3j88r45b2kb75dq8jcp7lxfz5wepx0,f6uxamSu,2020-0188,2020-05-07,15:21:02,15:46:49,NA,incomplete,175,filling,1,left,Green_Plus_Grid_4.jpg,Red_Triangle_Grid_1.jpg,Purple_Star_Dots_4.jpg,left,928.5099999979138,true,high,false
f6uxamSu,36d1bwbeiqeywas4c57kpjvh4xs2mi,3j88r45b2kb75dq8jcp7lxfz5wepx0,f6uxamSu,2020-0188,2020-05-07,15:21:02,15:46:49,NA,incomplete,176,filling,1,left,Blue_Star_Grid_3.jpg,Green_Circle_Grid_2.jpg,Purple_Triangle_Stripes_3.jpg,left,1206.1899998225272,true,high,false
f6uxamSu,36d1bwbeiqeywas4c57kpjvh4xs2mi,3j88r45b2kb75dq8jcp7lxfz5wepx0,f6uxamSu,2020-0188,2020-05-07,15:21:02,15:46:49,NA,incomplete,177,filling,1,right,Blue_Circle_Stripes_4.jpg,Green_Star_Dots_4.jpg,Red_Plus_Stripes_3.jpg,right,1078.8900000043213,true,high,false
f6uxamSu,36d1bwbeiqeywas4c57kpjvh4xs2mi,3j88r45b2kb75dq8jcp7lxfz5wepx0,f6uxamSu,2020-0188,2020-05-07,15:21:02,15:46:49,NA,incomplete,178,filling,1,right,Green_Triangle_Chess_2.jpg,Blue_Star_Grid_2.jpg,Purple_Plus_Chess_3.jpg,right,903.2149999402463,true,high,false
f6uxamSu,36d1bwbeiqeywas4c57kpjvh4xs2mi,3j88r45b2kb75dq8jcp7lxfz5wepx0,f6uxamSu,2020-0188,2020-05-07,15:21:02,15:46:49,NA,incomplete,179,filling,1,right,Red_Triangle_Chess_2.jpg,Purple_Plus_Dots_2.jpg,Blue_Star_Chess_3.jpg,right,935.655000153929,true,high,false
f6uxamSu,36d1bwbeiqeywas4c57kpjvh4xs2mi,3j88r45b2kb75dq8jcp7lxfz5wepx0,f6uxamSu,2020-0188,2020-05-07,15:21:02,15:46:49,NA,incomplete,180,number,0,left,Blue_Plus_Grid_3.jpg,Green_Star_Stripes_3.jpg,Purple_Triangle_Grid_1.jpg,right,991.4899999275804,false,high,false
f6uxamSu,36d1bwbeiqeywas4c57kpjvh4xs2mi,3j88r45b2kb75dq8jcp7lxfz5wepx0,f6uxamSu,2020-0188,2020-05-07,15:21:02,15:46:49,NA,incomplete,181,number,1,right,Purple_Plus_Dots_2.jpg,Blue_Star_Dots_4.jpg,Red_Triangle_Chess_2.jpg,left,807.8450001776218,false,high,false
f6uxamSu,36d1bwbeiqeywas4c57kpjvh4xs2mi,3j88r45b2kb75dq8jcp7lxfz5wepx0,f6uxamSu,2020-0188,2020-05-07,15:21:02,15:46:49,NA,incomplete,182,number,0,left,Red_Plus_Stripes_1.jpg,Blue_Star_Grid_1.jpg,Purple_Triangle_Stripes_4.jpg,right,944.8200003243983,false,high,false
f6uxamSu,36d1bwbeiqeywas4c57kpjvh4xs2mi,3j88r45b2kb75dq8jcp7lxfz5wepx0,f6uxamSu,2020-0188,2020-05-07,15:21:02,15:46:49,NA,incomplete,183,number,1,right,Purple_Star_Dots_4.jpg,Blue_Plus_Dots_1.jpg,Green_Circle_Chess_4.jpg,left,905.0150001421571,false,high,false
f6uxamSu,36d1bwbeiqeywas4c57kpjvh4xs2mi,3j88r45b2kb75dq8jcp7lxfz5wepx0,f6uxamSu,2020-0188,2020-05-07,15:21:02,15:46:49,NA,incomplete,184,number,1,left,Purple_Triangle_Grid_3.jpg,Green_Circle_Chess_3.jpg,Blue_Plus_Grid_4.jpg,left,885.7950000092387,true,high,false
f6uxamSu,36d1bwbeiqeywas4c57kpjvh4xs2mi,3j88r45b2kb75dq8jcp7lxfz5wepx0,f6uxamSu,2020-0188,2020-05-07,15:21:02,15:46:49,NA,incomplete,185,number,1,left,Red_Triangle_Dots_3.jpg,Green_Star_Chess_3.jpg,Blue_Plus_Dots_1.jpg,left,904.4800000265241,true,high,false
f6uxamSu,36d1bwbeiqeywas4c57kpjvh4xs2mi,3j88r45b2kb75dq8jcp7lxfz5wepx0,f6uxamSu,2020-0188,2020-05-07,15:21:02,15:46:49,NA,incomplete,186,number,1,right,Green_Plus_Stripes_2.jpg,Red_Star_Stripes_4.jpg,Blue_Triangle_Chess_2.jpg,right,979.8099999316037,true,high,false
f6uxamSu,36d1bwbeiqeywas4c57kpjvh4xs2mi,3j88r45b2kb75dq8jcp7lxfz5wepx0,f6uxamSu,2020-0188,2020-05-07,15:21:02,15:46:49,NA,incomplete,187,number,1,right,Red_Plus_Stripes_4.jpg,Purple_Star_Stripes_3.jpg,Blue_Circle_Chess_4.jpg,right,970.2300000935793,true,high,false
f6uxamSu,36d1bwbeiqeywas4c57kpjvh4xs2mi,3j88r45b2kb75dq8jcp7lxfz5wepx0,f6uxamSu,2020-0188,2020-05-07,15:21:02,15:46:49,NA,incomplete,188,number,1,right,Blue_Triangle_Stripes_2.jpg,Green_Circle_Stripes_1.jpg,Purple_Star_Chess_2.jpg,right,861.6900001652539,true,high,false
f6uxamSu,36d1bwbeiqeywas4c57kpjvh4xs2mi,3j88r45b2kb75dq8jcp7lxfz5wepx0,f6uxamSu,2020-0188,2020-05-07,15:21:02,15:46:49,NA,incomplete,189,number,1,right,Red_Plus_Dots_1.jpg,Blue_Triangle_Dots_2.jpg,Green_Star_Chess_1.jpg,right,879.4350000098348,true,high,false
f6uxamSu,36d1bwbeiqeywas4c57kpjvh4xs2mi,3j88r45b2kb75dq8jcp7lxfz5wepx0,f6uxamSu,2020-0188,2020-05-07,15:21:02,15:46:49,NA,incomplete,190,number,1,left,Purple_Circle_Grid_4.jpg,Red_Triangle_Chess_4.jpg,Blue_Plus_Grid_1.jpg,left,816.2400000728667,true,high,false
f6uxamSu,36d1bwbeiqeywas4c57kpjvh4xs2mi,3j88r45b2kb75dq8jcp7lxfz5wepx0,f6uxamSu,2020-0188,2020-05-07,15:21:02,15:46:49,NA,incomplete,191,number,0,left,Purple_Circle_Dots_1.jpg,Red_Triangle_Stripes_1.jpg,Green_Plus_Dots_3.jpg,left,702.2700002416968,true,high,false
f6uxamSu,36d1bwbeiqeywas4c57kpjvh4xs2mi,3j88r45b2kb75dq8jcp7lxfz5wepx0,f6uxamSu,2020-0188,2020-05-07,15:21:02,15:46:49,NA,incomplete,192,number,1,right,Purple_Circle_Stripes_1.jpg,Red_Triangle_Stripes_2.jpg,Blue_Plus_Grid_1.jpg,right,883.2849999889731,true,high,false
f6uxamSu,36d1bwbeiqeywas4c57kpjvh4xs2mi,3j88r45b2kb75dq8jcp7lxfz5wepx0,f6uxamSu,2020-0188,2020-05-07,15:21:02,15:46:49,NA,incomplete,193,number,1,left,Red_Triangle_Grid_2.jpg,Green_Plus_Chess_2.jpg,Purple_Star_Grid_3.jpg,left,768.9300002530217,true,high,false
f6uxamSu,36d1bwbeiqeywas4c57kpjvh4xs2mi,3j88r45b2kb75dq8jcp7lxfz5wepx0,f6uxamSu,2020-0188,2020-05-07,15:21:02,15:46:49,NA,incomplete,194,number,1,left,Green_Plus_Grid_4.jpg,Purple_Star_Stripes_4.jpg,Blue_Circle_Grid_1.jpg,left,795.5899997614324,true,high,false
f6uxamSu,36d1bwbeiqeywas4c57kpjvh4xs2mi,3j88r45b2kb75dq8jcp7lxfz5wepx0,f6uxamSu,2020-0188,2020-05-07,15:21:02,15:46:49,NA,incomplete,195,number,1,right,Red_Triangle_Stripes_2.jpg,Blue_Star_Stripes_4.jpg,Green_Plus_Chess_2.jpg,right,919.5849997922778,true,high,false
f6uxamSu,36d1bwbeiqeywas4c57kpjvh4xs2mi,3j88r45b2kb75dq8jcp7lxfz5wepx0,f6uxamSu,2020-0188,2020-05-07,15:21:02,15:46:49,NA,incomplete,196,number,1,left,Red_Circle_Grid_2.jpg,Purple_Triangle_Dots_2.jpg,Green_Plus_Grid_1.jpg,left,880.1599997095764,true,high,false
f6uxamSu,36d1bwbeiqeywas4c57kpjvh4xs2mi,3j88r45b2kb75dq8jcp7lxfz5wepx0,f6uxamSu,2020-0188,2020-05-07,15:21:02,15:46:49,NA,incomplete,197,number,1,right,Purple_Plus_Dots_4.jpg,Green_Star_Dots_3.jpg,Blue_Circle_Chess_4.jpg,right,710.6449999846518,true,high,false
f6uxamSu,36d1bwbeiqeywas4c57kpjvh4xs2mi,3j88r45b2kb75dq8jcp7lxfz5wepx0,f6uxamSu,2020-0188,2020-05-07,15:21:02,15:46:49,NA,incomplete,198,number,1,right,Green_Plus_Stripes_1.jpg,Blue_Triangle_Stripes_2.jpg,Red_Star_Chess_1.jpg,right,786.555000115186,true,high,false
f6uxamSu,36d1bwbeiqeywas4c57kpjvh4xs2mi,3j88r45b2kb75dq8jcp7lxfz5wepx0,f6uxamSu,2020-0188,2020-05-07,15:21:02,15:46:49,NA,incomplete,199,number,1,left,Green_Triangle_Chess_1.jpg,Blue_Circle_Dots_1.jpg,Purple_Plus_Chess_3.jpg,left,828.5600002855062,true,high,false
f6uxamSu,36d1bwbeiqeywas4c57kpjvh4xs2mi,3j88r45b2kb75dq8jcp7lxfz5wepx0,f6uxamSu,2020-0188,2020-05-07,15:21:02,15:46:49,NA,incomplete,200,filling,0,right,Blue_Triangle_Grid_4.jpg,Purple_Star_Dots_4.jpg,Green_Circle_Grid_3.jpg,left,878.9299996569753,false,high,false
f6uxamSu,36d1bwbeiqeywas4c57kpjvh4xs2mi,3j88r45b2kb75dq8jcp7lxfz5wepx0,f6uxamSu,2020-0188,2020-05-07,15:21:02,15:46:49,NA,incomplete,201,filling,1,left,Purple_Plus_Grid_1.jpg,Green_Circle_Grid_2.jpg,Red_Triangle_Chess_1.jpg,right,802.350000012666,false,high,false
f6uxamSu,36d1bwbeiqeywas4c57kpjvh4xs2mi,3j88r45b2kb75dq8jcp7lxfz5wepx0,f6uxamSu,2020-0188,2020-05-07,15:21:02,15:46:49,NA,incomplete,202,filling,1,right,Blue_Star_Dots_1.jpg,Red_Plus_Grid_1.jpg,Purple_Circle_Dots_2.jpg,left,861.9450000114739,false,high,false
f6uxamSu,36d1bwbeiqeywas4c57kpjvh4xs2mi,3j88r45b2kb75dq8jcp7lxfz5wepx0,f6uxamSu,2020-0188,2020-05-07,15:21:02,15:46:49,NA,incomplete,203,filling,0,left,Blue_Star_Stripes_2.jpg,Purple_Triangle_Stripes_4.jpg,Red_Circle_Chess_2.jpg,right,971.325000282377,false,high,false
f6uxamSu,36d1bwbeiqeywas4c57kpjvh4xs2mi,3j88r45b2kb75dq8jcp7lxfz5wepx0,f6uxamSu,2020-0188,2020-05-07,15:21:02,15:46:49,NA,incomplete,204,filling,1,left,Green_Triangle_Stripes_2.jpg,Red_Circle_Stripes_4.jpg,Purple_Plus_Grid_2.jpg,right,1002.559999935329,false,high,false
f6uxamSu,36d1bwbeiqeywas4c57kpjvh4xs2mi,3j88r45b2kb75dq8jcp7lxfz5wepx0,f6uxamSu,2020-0188,2020-05-07,15:21:02,15:46:49,NA,incomplete,205,filling,0,right,Green_Circle_Grid_3.jpg,Purple_Triangle_Dots_3.jpg,Blue_Plus_Grid_1.jpg,left,843.929999973625,false,high,false
f6uxamSu,36d1bwbeiqeywas4c57kpjvh4xs2mi,3j88r45b2kb75dq8jcp7lxfz5wepx0,f6uxamSu,2020-0188,2020-05-07,15:21:02,15:46:49,NA,incomplete,206,filling,1,left,Blue_Circle_Grid_3.jpg,Green_Triangle_Grid_1.jpg,Purple_Star_Chess_3.jpg,right,904.1849998757243,false,high,false
f6uxamSu,36d1bwbeiqeywas4c57kpjvh4xs2mi,3j88r45b2kb75dq8jcp7lxfz5wepx0,f6uxamSu,2020-0188,2020-05-07,15:21:02,15:46:49,NA,incomplete,207,filling,0,left,Green_Circle_Chess_1.jpg,Purple_Plus_Chess_4.jpg,Blue_Star_Dots_1.jpg,right,736.2000001594424,false,high,false
f6uxamSu,36d1bwbeiqeywas4c57kpjvh4xs2mi,3j88r45b2kb75dq8jcp7lxfz5wepx0,f6uxamSu,2020-0188,2020-05-07,15:21:02,15:46:49,NA,incomplete,208,filling,1,right,Blue_Circle_Chess_1.jpg,Red_Star_Grid_1.jpg,Purple_Plus_Chess_2.jpg,left,785.6949996203184,false,high,false
f6uxamSu,36d1bwbeiqeywas4c57kpjvh4xs2mi,3j88r45b2kb75dq8jcp7lxfz5wepx0,f6uxamSu,2020-0188,2020-05-07,15:21:02,15:46:49,NA,incomplete,209,filling,1,right,Blue_Star_Chess_1.jpg,Purple_Triangle_Grid_1.jpg,Green_Circle_Chess_3.jpg,left,780.8249997906387,false,high,false
f6uxamSu,36d1bwbeiqeywas4c57kpjvh4xs2mi,3j88r45b2kb75dq8jcp7lxfz5wepx0,f6uxamSu,2020-0188,2020-05-07,15:21:02,15:46:49,NA,incomplete,210,filling,0,left,Blue_Circle_Chess_2.jpg,Green_Triangle_Chess_4.jpg,Red_Plus_Dots_2.jpg,left,977.7750000357628,true,high,false
f6uxamSu,36d1bwbeiqeywas4c57kpjvh4xs2mi,3j88r45b2kb75dq8jcp7lxfz5wepx0,f6uxamSu,2020-0188,2020-05-07,15:21:02,15:46:49,NA,incomplete,211,filling,1,right,Blue_Plus_Stripes_2.jpg,Red_Triangle_Grid_2.jpg,Green_Circle_Stripes_1.jpg,left,867.9800000973046,false,high,false
f6uxamSu,36d1bwbeiqeywas4c57kpjvh4xs2mi,3j88r45b2kb75dq8jcp7lxfz5wepx0,f6uxamSu,2020-0188,2020-05-07,15:21:02,15:46:49,NA,incomplete,212,filling,1,left,Purple_Star_Dots_4.jpg,Red_Circle_Dots_2.jpg,Blue_Plus_Grid_4.jpg,right,810.2400000207126,false,high,false
f6uxamSu,36d1bwbeiqeywas4c57kpjvh4xs2mi,3j88r45b2kb75dq8jcp7lxfz5wepx0,f6uxamSu,2020-0188,2020-05-07,15:21:02,15:46:49,NA,incomplete,213,filling,1,left,Purple_Star_Chess_3.jpg,Green_Plus_Chess_1.jpg,Blue_Circle_Dots_3.jpg,right,1208.4949999116361,false,high,false
f6uxamSu,36d1bwbeiqeywas4c57kpjvh4xs2mi,3j88r45b2kb75dq8jcp7lxfz5wepx0,f6uxamSu,2020-0188,2020-05-07,15:21:02,15:46:49,NA,incomplete,214,filling,1,right,Blue_Triangle_Dots_3.jpg,Red_Plus_Grid_3.jpg,Purple_Star_Dots_4.jpg,left,933.87999990955,false,high,false
f6uxamSu,36d1bwbeiqeywas4c57kpjvh4xs2mi,3j88r45b2kb75dq8jcp7lxfz5wepx0,f6uxamSu,2020-0188,2020-05-07,15:21:02,15:46:49,NA,incomplete,215,filling,1,right,Purple_Star_Chess_1.jpg,Blue_Circle_Dots_1.jpg,Red_Plus_Chess_4.jpg,right,966.7500001378357,true,high,false
f6uxamSu,36d1bwbeiqeywas4c57kpjvh4xs2mi,3j88r45b2kb75dq8jcp7lxfz5wepx0,f6uxamSu,2020-0188,2020-05-07,15:21:02,15:46:49,NA,incomplete,216,filling,0,right,Green_Star_Stripes_1.jpg,Red_Triangle_Dots_1.jpg,Blue_Plus_Stripes_2.jpg,right,1080.4449999704957,true,high,false
f6uxamSu,36d1bwbeiqeywas4c57kpjvh4xs2mi,3j88r45b2kb75dq8jcp7lxfz5wepx0,f6uxamSu,2020-0188,2020-05-07,15:21:02,15:46:49,NA,incomplete,217,filling,1,right,Green_Plus_Stripes_2.jpg,Red_Circle_Grid_2.jpg,Blue_Star_Stripes_4.jpg,right,1094.1200000233948,true,high,false
f6uxamSu,36d1bwbeiqeywas4c57kpjvh4xs2mi,3j88r45b2kb75dq8jcp7lxfz5wepx0,f6uxamSu,2020-0188,2020-05-07,15:21:02,15:46:49,NA,incomplete,218,filling,1,right,Blue_Star_Stripes_3.jpg,Purple_Plus_Grid_3.jpg,Green_Triangle_Stripes_4.jpg,left,943.4400000609457,false,high,false
f6uxamSu,36d1bwbeiqeywas4c57kpjvh4xs2mi,3j88r45b2kb75dq8jcp7lxfz5wepx0,f6uxamSu,2020-0188,2020-05-07,15:21:02,15:46:49,NA,incomplete,219,filling,0,left,Purple_Triangle_Stripes_4.jpg,Green_Star_Stripes_3.jpg,Blue_Circle_Chess_4.jpg,left,1073.4950001351535,true,high,false
f6uxamSu,36d1bwbeiqeywas4c57kpjvh4xs2mi,3j88r45b2kb75dq8jcp7lxfz5wepx0,f6uxamSu,2020-0188,2020-05-07,15:21:02,15:46:49,NA,incomplete,220,number,1,left,Green_Plus_Grid_2.jpg,Red_Star_Dots_2.jpg,Purple_Circle_Grid_1.jpg,left,954.5100000686944,true,high,false
f6uxamSu,36d1bwbeiqeywas4c57kpjvh4xs2mi,3j88r45b2kb75dq8jcp7lxfz5wepx0,f6uxamSu,2020-0188,2020-05-07,15:21:02,15:46:49,NA,incomplete,221,number,1,left,Green_Star_Dots_1.jpg,Blue_Plus_Grid_1.jpg,Purple_Circle_Dots_2.jpg,left,806.7550002597272,true,high,false
f6uxamSu,36d1bwbeiqeywas4c57kpjvh4xs2mi,3j88r45b2kb75dq8jcp7lxfz5wepx0,f6uxamSu,2020-0188,2020-05-07,15:21:02,15:46:49,NA,incomplete,222,number,1,left,Green_Circle_Chess_1.jpg,Purple_Star_Grid_1.jpg,Blue_Triangle_Chess_4.jpg,left,787.5749999657273,true,high,false
f6uxamSu,36d1bwbeiqeywas4c57kpjvh4xs2mi,3j88r45b2kb75dq8jcp7lxfz5wepx0,f6uxamSu,2020-0188,2020-05-07,15:21:02,15:46:49,NA,incomplete,223,number,1,left,Green_Plus_Grid_2.jpg,Purple_Star_Dots_2.jpg,Red_Triangle_Grid_1.jpg,left,909.1450003907084,true,high,false
f6uxamSu,36d1bwbeiqeywas4c57kpjvh4xs2mi,3j88r45b2kb75dq8jcp7lxfz5wepx0,f6uxamSu,2020-0188,2020-05-07,15:21:02,15:46:49,NA,incomplete,224,number,1,left,Green_Star_Dots_3.jpg,Blue_Circle_Chess_3.jpg,Red_Triangle_Dots_4.jpg,left,856.4899996854365,true,high,false
f6uxamSu,36d1bwbeiqeywas4c57kpjvh4xs2mi,3j88r45b2kb75dq8jcp7lxfz5wepx0,f6uxamSu,2020-0188,2020-05-07,15:21:02,15:46:49,NA,incomplete,225,number,0,left,Purple_Star_Chess_1.jpg,Red_Triangle_Grid_1.jpg,Green_Circle_Chess_4.jpg,left,767.5000000745058,true,high,false
f6uxamSu,36d1bwbeiqeywas4c57kpjvh4xs2mi,3j88r45b2kb75dq8jcp7lxfz5wepx0,f6uxamSu,2020-0188,2020-05-07,15:21:02,15:46:49,NA,incomplete,226,number,1,right,Purple_Star_Stripes_3.jpg,Green_Triangle_Stripes_2.jpg,Blue_Circle_Grid_3.jpg,right,847.9399997740984,true,high,false
f6uxamSu,36d1bwbeiqeywas4c57kpjvh4xs2mi,3j88r45b2kb75dq8jcp7lxfz5wepx0,f6uxamSu,2020-0188,2020-05-07,15:21:02,15:46:49,NA,incomplete,227,number,1,left,Green_Circle_Chess_3.jpg,Red_Star_Grid_3.jpg,Blue_Plus_Chess_4.jpg,left,799.7400001622736,true,high,false
f6uxamSu,36d1bwbeiqeywas4c57kpjvh4xs2mi,3j88r45b2kb75dq8jcp7lxfz5wepx0,f6uxamSu,2020-0188,2020-05-07,15:21:02,15:46:49,NA,incomplete,228,number,1,left,Blue_Triangle_Grid_1.jpg,Green_Star_Stripes_1.jpg,Red_Circle_Grid_3.jpg,left,725.8649999275804,true,high,false
f6uxamSu,36d1bwbeiqeywas4c57kpjvh4xs2mi,3j88r45b2kb75dq8jcp7lxfz5wepx0,f6uxamSu,2020-0188,2020-05-07,15:21:02,15:46:49,NA,incomplete,229,number,1,right,Red_Star_Chess_2.jpg,Green_Triangle_Chess_4.jpg,Purple_Plus_Grid_2.jpg,right,781.9750001654029,true,high,false
f6uxamSu,36d1bwbeiqeywas4c57kpjvh4xs2mi,3j88r45b2kb75dq8jcp7lxfz5wepx0,f6uxamSu,2020-0188,2020-05-07,15:21:02,15:46:49,NA,incomplete,230,number,1,left,Purple_Triangle_Grid_2.jpg,Red_Circle_Chess_2.jpg,Green_Star_Grid_4.jpg,left,801.7600001767278,true,high,false
f6uxamSu,36d1bwbeiqeywas4c57kpjvh4xs2mi,3j88r45b2kb75dq8jcp7lxfz5wepx0,f6uxamSu,2020-0188,2020-05-07,15:21:02,15:46:49,NA,incomplete,231,number,1,right,Purple_Circle_Dots_2.jpg,Blue_Star_Dots_1.jpg,Green_Triangle_Stripes_2.jpg,right,871.7950000427663,true,high,false
f6uxamSu,36d1bwbeiqeywas4c57kpjvh4xs2mi,3j88r45b2kb75dq8jcp7lxfz5wepx0,f6uxamSu,2020-0188,2020-05-07,15:21:02,15:46:49,NA,incomplete,232,number,1,right,Green_Triangle_Stripes_3.jpg,Purple_Plus_Stripes_2.jpg,Red_Circle_Dots_3.jpg,right,883.0250003375113,true,high,false
f6uxamSu,36d1bwbeiqeywas4c57kpjvh4xs2mi,3j88r45b2kb75dq8jcp7lxfz5wepx0,f6uxamSu,2020-0188,2020-05-07,15:21:02,15:46:49,NA,incomplete,233,number,1,left,Blue_Star_Dots_1.jpg,Green_Circle_Chess_1.jpg,Purple_Plus_Dots_3.jpg,left,763.1899998523295,true,high,false
f6uxamSu,36d1bwbeiqeywas4c57kpjvh4xs2mi,3j88r45b2kb75dq8jcp7lxfz5wepx0,f6uxamSu,2020-0188,2020-05-07,15:21:02,15:46:49,NA,incomplete,234,number,1,right,Red_Circle_Grid_3.jpg,Green_Plus_Grid_2.jpg,Blue_Star_Stripes_3.jpg,right,845.3250001184642,true,high,false
f6uxamSu,36d1bwbeiqeywas4c57kpjvh4xs2mi,3j88r45b2kb75dq8jcp7lxfz5wepx0,f6uxamSu,2020-0188,2020-05-07,15:21:02,15:46:49,NA,incomplete,235,number,1,left,Purple_Circle_Stripes_1.jpg,Green_Plus_Dots_1.jpg,Red_Triangle_Stripes_3.jpg,left,757.6649999246001,true,high,false
f6uxamSu,36d1bwbeiqeywas4c57kpjvh4xs2mi,3j88r45b2kb75dq8jcp7lxfz5wepx0,f6uxamSu,2020-0188,2020-05-07,15:21:02,15:46:49,NA,incomplete,236,number,1,left,Green_Star_Chess_2.jpg,Red_Circle_Dots_2.jpg,Blue_Triangle_Chess_4.jpg,left,1048.7600001506507,true,high,false
f6uxamSu,36d1bwbeiqeywas4c57kpjvh4xs2mi,3j88r45b2kb75dq8jcp7lxfz5wepx0,f6uxamSu,2020-0188,2020-05-07,15:21:02,15:46:49,NA,incomplete,237,number,1,right,Green_Plus_Dots_4.jpg,Blue_Triangle_Dots_1.jpg,Purple_Circle_Stripes_4.jpg,right,815.2200002223253,true,high,false
f6uxamSu,36d1bwbeiqeywas4c57kpjvh4xs2mi,3j88r45b2kb75dq8jcp7lxfz5wepx0,f6uxamSu,2020-0188,2020-05-07,15:21:02,15:46:49,NA,incomplete,238,number,0,right,Blue_Triangle_Chess_2.jpg,Green_Star_Chess_4.jpg,Red_Circle_Stripes_2.jpg,right,765.3749999590218,true,high,false
f6uxamSu,36d1bwbeiqeywas4c57kpjvh4xs2mi,3j88r45b2kb75dq8jcp7lxfz5wepx0,f6uxamSu,2020-0188,2020-05-07,15:21:02,15:46:49,NA,incomplete,239,number,1,left,Blue_Plus_Stripes_4.jpg,Green_Star_Chess_4.jpg,Red_Circle_Stripes_2.jpg,left,820.3199999406934,true,high,false
f6uxamSu,36d1bwbeiqeywas4c57kpjvh4xs2mi,3j88r45b2kb75dq8jcp7lxfz5wepx0,f6uxamSu,2020-0188,2020-05-07,15:21:02,15:46:49,1521011.0799996182,1555446.9649996608,NA,NA,NA,NA,NA,NA,NA,NA,NA,NA,NA,undefined
