workerId,hitId,assignmentId,subject,studyid,exp_date,exp_start,exp_end,time_start,time_end,trial,type,reward_validity,answer,image_top,image_left,image_right,response,response_time,response_acc,volatility,age,race,gender,ethnicity,color,vision,neuro,practice
jsXX8fpC,3fhtjgyt9qduw7xo30k18rjdqjggpm,3jnqlm5ft8zgdc8d3vb7eqckngk2lk,jsXX8fpC,2020-0188,2020-11-15,04:19:11,05:24:54,NA,incomplete,0,shape,0,left,Green_Circle_Dots_3.jpg,Purple_Circle_Stripes_1.jpg,Green_Triangle_Grid_2.jpg,right,536.2749999994412,false,NA,NA,NA,NA,NA,NA,NA,NA,true
jsXX8fpC,3fhtjgyt9qduw7xo30k18rjdqjggpm,3jnqlm5ft8zgdc8d3vb7eqckngk2lk,jsXX8fpC,2020-0188,2020-11-15,04:19:11,05:24:54,NA,incomplete,1,shape,1,right,Green_Plus_Stripes_1.jpg,Green_Circle_Dots_4.jpg,Blue_Plus_Grid_3.jpg,right,1072.5300000007264,true,NA,NA,NA,NA,NA,NA,NA,NA,true
jsXX8fpC,3fhtjgyt9qduw7xo30k18rjdqjggpm,3jnqlm5ft8zgdc8d3vb7eqckngk2lk,jsXX8fpC,2020-0188,2020-11-15,04:19:11,05:24:54,NA,incomplete,2,shape,1,left,Red_Circle_Stripes_1.jpg,Purple_Circle_Dots_3.jpg,Red_Star_Grid_2.jpg,left,620.4400000004098,true,NA,NA,NA,NA,NA,NA,NA,NA,true
jsXX8fpC,3fhtjgyt9qduw7xo30k18rjdqjggpm,3jnqlm5ft8zgdc8d3vb7eqckngk2lk,jsXX8fpC,2020-0188,2020-11-15,04:19:11,05:24:54,NA,incomplete,3,shape,0,left,Blue_Triangle_Grid_3.jpg,Purple_Triangle_Chess_1.jpg,Blue_Plus_Stripes_4.jpg,left,780.4900000002235,true,NA,NA,NA,NA,NA,NA,NA,NA,true
jsXX8fpC,3fhtjgyt9qduw7xo30k18rjdqjggpm,3jnqlm5ft8zgdc8d3vb7eqckngk2lk,jsXX8fpC,2020-0188,2020-11-15,04:19:11,05:24:54,NA,incomplete,4,shape,0,left,Purple_Plus_Chess_1.jpg,Red_Plus_Dots_2.jpg,Purple_Star_Stripes_3.jpg,right,492.25499999988824,false,NA,NA,NA,NA,NA,NA,NA,NA,true
jsXX8fpC,3fhtjgyt9qduw7xo30k18rjdqjggpm,3jnqlm5ft8zgdc8d3vb7eqckngk2lk,jsXX8fpC,2020-0188,2020-11-15,04:19:11,05:24:54,NA,incomplete,5,shape,0,left,Green_Circle_Dots_4.jpg,Purple_Circle_Stripes_2.jpg,Green_Plus_Grid_1.jpg,left,673.1450000000186,true,NA,NA,NA,NA,NA,NA,NA,NA,true
jsXX8fpC,3fhtjgyt9qduw7xo30k18rjdqjggpm,3jnqlm5ft8zgdc8d3vb7eqckngk2lk,jsXX8fpC,2020-0188,2020-11-15,04:19:11,05:24:54,NA,incomplete,6,shape,1,left,Purple_Star_Dots_1.jpg,Red_Star_Stripes_4.jpg,Purple_Circle_Chess_2.jpg,left,813.7799999993294,true,NA,NA,NA,NA,NA,NA,NA,NA,true
jsXX8fpC,3fhtjgyt9qduw7xo30k18rjdqjggpm,3jnqlm5ft8zgdc8d3vb7eqckngk2lk,jsXX8fpC,2020-0188,2020-11-15,04:19:11,05:24:54,NA,incomplete,7,shape,1,left,Purple_Circle_Dots_4.jpg,Blue_Circle_Grid_2.jpg,Purple_Star_Chess_3.jpg,left,697.4149999995716,true,NA,NA,NA,NA,NA,NA,NA,NA,true
jsXX8fpC,3fhtjgyt9qduw7xo30k18rjdqjggpm,3jnqlm5ft8zgdc8d3vb7eqckngk2lk,jsXX8fpC,2020-0188,2020-11-15,04:19:11,05:24:54,NA,incomplete,8,shape,1,right,Green_Plus_Grid_4.jpg,Green_Star_Dots_1.jpg,Red_Plus_Chess_3.jpg,right,541.605000000447,true,NA,NA,NA,NA,NA,NA,NA,NA,true
jsXX8fpC,3fhtjgyt9qduw7xo30k18rjdqjggpm,3jnqlm5ft8zgdc8d3vb7eqckngk2lk,jsXX8fpC,2020-0188,2020-11-15,04:19:11,05:24:54,NA,incomplete,9,shape,1,left,Blue_Triangle_Grid_2.jpg,Purple_Triangle_Stripes_3.jpg,Blue_Circle_Chess_1.jpg,left,645.4050000002608,true,NA,NA,NA,NA,NA,NA,NA,NA,true
jsXX8fpC,3fhtjgyt9qduw7xo30k18rjdqjggpm,3jnqlm5ft8zgdc8d3vb7eqckngk2lk,jsXX8fpC,2020-0188,2020-11-15,04:19:11,05:24:54,NA,incomplete,10,shape,0,left,Red_Circle_Grid_1.jpg,Blue_Circle_Dots_3.jpg,Red_Star_Chess_4.jpg,left,634.7649999996647,true,NA,NA,NA,NA,NA,NA,NA,NA,true
jsXX8fpC,3fhtjgyt9qduw7xo30k18rjdqjggpm,3jnqlm5ft8zgdc8d3vb7eqckngk2lk,jsXX8fpC,2020-0188,2020-11-15,04:19:11,05:24:54,NA,incomplete,11,shape,1,left,Purple_Plus_Dots_4.jpg,Green_Plus_Chess_3.jpg,Purple_Circle_Grid_2.jpg,left,547.4250000007451,true,NA,NA,NA,NA,NA,NA,NA,NA,true
jsXX8fpC,3fhtjgyt9qduw7xo30k18rjdqjggpm,3jnqlm5ft8zgdc8d3vb7eqckngk2lk,jsXX8fpC,2020-0188,2020-11-15,04:19:11,05:24:54,NA,incomplete,12,shape,1,right,Purple_Circle_Dots_3.jpg,Purple_Plus_Chess_1.jpg,Red_Circle_Stripes_2.jpg,right,696.3500000000931,true,NA,NA,NA,NA,NA,NA,NA,NA,true
jsXX8fpC,3fhtjgyt9qduw7xo30k18rjdqjggpm,3jnqlm5ft8zgdc8d3vb7eqckngk2lk,jsXX8fpC,2020-0188,2020-11-15,04:19:11,05:24:54,NA,incomplete,13,shape,1,right,Green_Circle_Stripes_3.jpg,Green_Plus_Dots_4.jpg,Blue_Circle_Grid_1.jpg,right,849.570000000298,true,NA,NA,NA,NA,NA,NA,NA,NA,true
jsXX8fpC,3fhtjgyt9qduw7xo30k18rjdqjggpm,3jnqlm5ft8zgdc8d3vb7eqckngk2lk,jsXX8fpC,2020-0188,2020-11-15,04:19:11,05:24:54,NA,incomplete,14,shape,1,right,Red_Circle_Grid_1.jpg,Red_Plus_Chess_2.jpg,Blue_Circle_Dots_4.jpg,right,799.3649999997579,true,NA,NA,NA,NA,NA,NA,NA,NA,true
jsXX8fpC,3fhtjgyt9qduw7xo30k18rjdqjggpm,3jnqlm5ft8zgdc8d3vb7eqckngk2lk,jsXX8fpC,2020-0188,2020-11-15,04:19:11,05:24:54,NA,incomplete,15,shape,1,left,Red_Plus_Dots_4.jpg,Purple_Plus_Grid_3.jpg,Red_Star_Stripes_1.jpg,left,731.5950000002049,true,NA,NA,NA,NA,NA,NA,NA,NA,true
jsXX8fpC,3fhtjgyt9qduw7xo30k18rjdqjggpm,3jnqlm5ft8zgdc8d3vb7eqckngk2lk,jsXX8fpC,2020-0188,2020-11-15,04:19:11,05:24:54,NA,incomplete,16,shape,1,right,Blue_Plus_Stripes_2.jpg,Blue_Star_Dots_1.jpg,Green_Plus_Grid_4.jpg,right,856.0699999998324,true,NA,NA,NA,NA,NA,NA,NA,NA,true
jsXX8fpC,3fhtjgyt9qduw7xo30k18rjdqjggpm,3jnqlm5ft8zgdc8d3vb7eqckngk2lk,jsXX8fpC,2020-0188,2020-11-15,04:19:11,05:24:54,NA,incomplete,17,shape,1,right,Green_Plus_Stripes_3.jpg,Green_Triangle_Chess_4.jpg,Purple_Plus_Dots_1.jpg,right,747.4600000004284,true,NA,NA,NA,NA,NA,NA,NA,NA,true
jsXX8fpC,3fhtjgyt9qduw7xo30k18rjdqjggpm,3jnqlm5ft8zgdc8d3vb7eqckngk2lk,jsXX8fpC,2020-0188,2020-11-15,04:19:11,05:24:54,NA,incomplete,18,shape,1,left,Red_Plus_Stripes_3.jpg,Purple_Plus_Chess_2.jpg,Red_Star_Grid_1.jpg,left,729.7449999996461,true,NA,NA,NA,NA,NA,NA,NA,NA,true
jsXX8fpC,3fhtjgyt9qduw7xo30k18rjdqjggpm,3jnqlm5ft8zgdc8d3vb7eqckngk2lk,jsXX8fpC,2020-0188,2020-11-15,04:19:11,05:24:54,NA,incomplete,19,shape,1,left,Blue_Plus_Chess_4.jpg,Red_Plus_Dots_2.jpg,Blue_Circle_Grid_3.jpg,left,653.890000000596,true,NA,NA,NA,NA,NA,NA,NA,NA,true
jsXX8fpC,3fhtjgyt9qduw7xo30k18rjdqjggpm,3jnqlm5ft8zgdc8d3vb7eqckngk2lk,jsXX8fpC,2020-0188,2020-11-15,04:19:11,05:24:54,NA,incomplete,20,color,1,right,Purple_Circle_Chess_1.jpg,Blue_Circle_Grid_3.jpg,Purple_Triangle_Dots_2.jpg,right,1180.2250000000931,true,NA,NA,NA,NA,NA,NA,NA,NA,true
jsXX8fpC,3fhtjgyt9qduw7xo30k18rjdqjggpm,3jnqlm5ft8zgdc8d3vb7eqckngk2lk,jsXX8fpC,2020-0188,2020-11-15,04:19:11,05:24:54,NA,incomplete,21,color,1,right,Red_Circle_Chess_4.jpg,Green_Circle_Grid_3.jpg,Red_Star_Dots_2.jpg,right,578.2399999997579,true,NA,NA,NA,NA,NA,NA,NA,NA,true
jsXX8fpC,3fhtjgyt9qduw7xo30k18rjdqjggpm,3jnqlm5ft8zgdc8d3vb7eqckngk2lk,jsXX8fpC,2020-0188,2020-11-15,04:19:11,05:24:54,NA,incomplete,22,color,1,right,Red_Triangle_Stripes_1.jpg,Purple_Triangle_Dots_4.jpg,Red_Circle_Grid_3.jpg,right,477.7649999996647,true,NA,NA,NA,NA,NA,NA,NA,NA,true
jsXX8fpC,3fhtjgyt9qduw7xo30k18rjdqjggpm,3jnqlm5ft8zgdc8d3vb7eqckngk2lk,jsXX8fpC,2020-0188,2020-11-15,04:19:11,05:24:54,NA,incomplete,23,color,1,left,Green_Triangle_Grid_2.jpg,Green_Plus_Stripes_3.jpg,Blue_Triangle_Dots_1.jpg,left,436.79000000003725,true,NA,NA,NA,NA,NA,NA,NA,NA,true
jsXX8fpC,3fhtjgyt9qduw7xo30k18rjdqjggpm,3jnqlm5ft8zgdc8d3vb7eqckngk2lk,jsXX8fpC,2020-0188,2020-11-15,04:19:11,05:24:54,NA,incomplete,24,color,1,right,Red_Circle_Grid_4.jpg,Blue_Circle_Dots_2.jpg,Red_Star_Chess_3.jpg,right,443.90500000026077,true,NA,NA,NA,NA,NA,NA,NA,NA,true
jsXX8fpC,3fhtjgyt9qduw7xo30k18rjdqjggpm,3jnqlm5ft8zgdc8d3vb7eqckngk2lk,jsXX8fpC,2020-0188,2020-11-15,04:19:11,05:24:54,NA,incomplete,25,color,1,left,Red_Star_Dots_3.jpg,Red_Triangle_Chess_1.jpg,Purple_Star_Stripes_2.jpg,left,496.11499999975786,true,NA,NA,NA,NA,NA,NA,NA,NA,true
jsXX8fpC,3fhtjgyt9qduw7xo30k18rjdqjggpm,3jnqlm5ft8zgdc8d3vb7eqckngk2lk,jsXX8fpC,2020-0188,2020-11-15,04:19:11,05:24:54,NA,incomplete,26,color,0,left,Red_Circle_Dots_3.jpg,Red_Star_Chess_1.jpg,Purple_Circle_Stripes_4.jpg,left,521.9950000001118,true,NA,NA,NA,NA,NA,NA,NA,NA,true
jsXX8fpC,3fhtjgyt9qduw7xo30k18rjdqjggpm,3jnqlm5ft8zgdc8d3vb7eqckngk2lk,jsXX8fpC,2020-0188,2020-11-15,04:19:11,05:24:54,NA,incomplete,27,color,1,right,Blue_Plus_Stripes_1.jpg,Red_Plus_Chess_2.jpg,Blue_Star_Grid_4.jpg,right,428.30000000074506,true,NA,NA,NA,NA,NA,NA,NA,NA,true
jsXX8fpC,3fhtjgyt9qduw7xo30k18rjdqjggpm,3jnqlm5ft8zgdc8d3vb7eqckngk2lk,jsXX8fpC,2020-0188,2020-11-15,04:19:11,05:24:54,NA,incomplete,28,color,1,left,Blue_Circle_Dots_2.jpg,Blue_Star_Chess_1.jpg,Purple_Circle_Grid_4.jpg,left,411.64999999990687,true,NA,NA,NA,NA,NA,NA,NA,NA,true
jsXX8fpC,3fhtjgyt9qduw7xo30k18rjdqjggpm,3jnqlm5ft8zgdc8d3vb7eqckngk2lk,jsXX8fpC,2020-0188,2020-11-15,04:19:11,05:24:54,NA,incomplete,29,color,1,right,Blue_Circle_Grid_2.jpg,Green_Circle_Chess_4.jpg,Blue_Triangle_Stripes_3.jpg,right,441.3899999996647,true,NA,NA,NA,NA,NA,NA,NA,NA,true
jsXX8fpC,3fhtjgyt9qduw7xo30k18rjdqjggpm,3jnqlm5ft8zgdc8d3vb7eqckngk2lk,jsXX8fpC,2020-0188,2020-11-15,04:19:11,05:24:54,NA,incomplete,30,color,0,left,Purple_Plus_Grid_4.jpg,Purple_Star_Chess_2.jpg,Green_Plus_Stripes_3.jpg,right,642.2599999997765,false,NA,NA,NA,NA,NA,NA,NA,NA,true
jsXX8fpC,3fhtjgyt9qduw7xo30k18rjdqjggpm,3jnqlm5ft8zgdc8d3vb7eqckngk2lk,jsXX8fpC,2020-0188,2020-11-15,04:19:11,05:24:54,NA,incomplete,31,color,1,left,Green_Circle_Dots_4.jpg,Green_Plus_Stripes_1.jpg,Purple_Circle_Grid_2.jpg,left,446.03499999968335,true,NA,NA,NA,NA,NA,NA,NA,NA,true
jsXX8fpC,3fhtjgyt9qduw7xo30k18rjdqjggpm,3jnqlm5ft8zgdc8d3vb7eqckngk2lk,jsXX8fpC,2020-0188,2020-11-15,04:19:11,05:24:54,NA,incomplete,32,color,1,left,Red_Star_Dots_2.jpg,Red_Plus_Chess_1.jpg,Blue_Star_Grid_3.jpg,left,505.8849999997765,true,NA,NA,NA,NA,NA,NA,NA,NA,true
jsXX8fpC,3fhtjgyt9qduw7xo30k18rjdqjggpm,3jnqlm5ft8zgdc8d3vb7eqckngk2lk,jsXX8fpC,2020-0188,2020-11-15,04:19:11,05:24:54,NA,incomplete,33,color,1,right,Green_Plus_Chess_3.jpg,Red_Plus_Grid_2.jpg,Green_Triangle_Dots_4.jpg,right,440.8250000006519,true,NA,NA,NA,NA,NA,NA,NA,NA,true
jsXX8fpC,3fhtjgyt9qduw7xo30k18rjdqjggpm,3jnqlm5ft8zgdc8d3vb7eqckngk2lk,jsXX8fpC,2020-0188,2020-11-15,04:19:11,05:24:54,NA,incomplete,34,color,1,left,Red_Plus_Stripes_1.jpg,Red_Star_Chess_2.jpg,Purple_Plus_Grid_3.jpg,left,401.2350000003353,true,NA,NA,NA,NA,NA,NA,NA,NA,true
jsXX8fpC,3fhtjgyt9qduw7xo30k18rjdqjggpm,3jnqlm5ft8zgdc8d3vb7eqckngk2lk,jsXX8fpC,2020-0188,2020-11-15,04:19:11,05:24:54,NA,incomplete,35,color,1,right,Red_Triangle_Stripes_4.jpg,Purple_Triangle_Dots_3.jpg,Red_Circle_Grid_2.jpg,right,626.5099999997765,true,NA,NA,NA,NA,NA,NA,NA,NA,true
jsXX8fpC,3fhtjgyt9qduw7xo30k18rjdqjggpm,3jnqlm5ft8zgdc8d3vb7eqckngk2lk,jsXX8fpC,2020-0188,2020-11-15,04:19:11,05:24:54,NA,incomplete,36,color,1,left,Red_Triangle_Stripes_2.jpg,Red_Circle_Dots_3.jpg,Blue_Triangle_Chess_4.jpg,left,380.8150000004098,true,NA,NA,NA,NA,NA,NA,NA,NA,true
jsXX8fpC,3fhtjgyt9qduw7xo30k18rjdqjggpm,3jnqlm5ft8zgdc8d3vb7eqckngk2lk,jsXX8fpC,2020-0188,2020-11-15,04:19:11,05:24:54,NA,incomplete,37,color,0,left,Purple_Circle_Dots_1.jpg,Purple_Plus_Grid_2.jpg,Green_Circle_Chess_3.jpg,left,724.8999999999069,true,NA,NA,NA,NA,NA,NA,NA,NA,true
jsXX8fpC,3fhtjgyt9qduw7xo30k18rjdqjggpm,3jnqlm5ft8zgdc8d3vb7eqckngk2lk,jsXX8fpC,2020-0188,2020-11-15,04:19:11,05:24:54,NA,incomplete,38,color,1,left,Blue_Star_Grid_2.jpg,Blue_Triangle_Stripes_4.jpg,Green_Star_Dots_1.jpg,left,446.5800000000745,true,NA,NA,NA,NA,NA,NA,NA,NA,true
jsXX8fpC,3fhtjgyt9qduw7xo30k18rjdqjggpm,3jnqlm5ft8zgdc8d3vb7eqckngk2lk,jsXX8fpC,2020-0188,2020-11-15,04:19:11,05:24:54,NA,incomplete,39,color,1,right,Purple_Plus_Chess_3.jpg,Red_Plus_Grid_1.jpg,Purple_Circle_Dots_4.jpg,right,446.2600000007078,true,NA,NA,NA,NA,NA,NA,NA,NA,true
jsXX8fpC,3fhtjgyt9qduw7xo30k18rjdqjggpm,3jnqlm5ft8zgdc8d3vb7eqckngk2lk,jsXX8fpC,2020-0188,2020-11-15,04:19:11,05:24:54,NA,incomplete,0,shape,0,left,Green_Star_Chess_2.jpg,Red_Star_Stripes_3.jpg,Green_Circle_Grid_4.jpg,right,1232.5800000000745,false,high,NA,NA,NA,NA,NA,NA,NA,false
jsXX8fpC,3fhtjgyt9qduw7xo30k18rjdqjggpm,3jnqlm5ft8zgdc8d3vb7eqckngk2lk,jsXX8fpC,2020-0188,2020-11-15,04:19:11,05:24:54,NA,incomplete,1,shape,1,right,Purple_Triangle_Stripes_3.jpg,Purple_Plus_Chess_1.jpg,Green_Triangle_Dots_4.jpg,left,531.1949999993667,false,high,NA,NA,NA,NA,NA,NA,NA,false
jsXX8fpC,3fhtjgyt9qduw7xo30k18rjdqjggpm,3jnqlm5ft8zgdc8d3vb7eqckngk2lk,jsXX8fpC,2020-0188,2020-11-15,04:19:11,05:24:54,NA,incomplete,2,shape,1,right,Red_Triangle_Chess_4.jpg,Red_Circle_Dots_3.jpg,Green_Triangle_Grid_1.jpg,left,553.6700000003912,false,high,NA,NA,NA,NA,NA,NA,NA,false
jsXX8fpC,3fhtjgyt9qduw7xo30k18rjdqjggpm,3jnqlm5ft8zgdc8d3vb7eqckngk2lk,jsXX8fpC,2020-0188,2020-11-15,04:19:11,05:24:54,NA,incomplete,3,shape,1,left,Red_Star_Dots_4.jpg,Green_Star_Stripes_2.jpg,Red_Triangle_Grid_3.jpg,right,727.7750000003725,false,high,NA,NA,NA,NA,NA,NA,NA,false
jsXX8fpC,3fhtjgyt9qduw7xo30k18rjdqjggpm,3jnqlm5ft8zgdc8d3vb7eqckngk2lk,jsXX8fpC,2020-0188,2020-11-15,04:19:11,05:24:54,NA,incomplete,4,shape,1,left,Green_Star_Dots_2.jpg,Purple_Star_Chess_4.jpg,Green_Triangle_Grid_1.jpg,right,540.7999999998137,false,high,NA,NA,NA,NA,NA,NA,NA,false
jsXX8fpC,3fhtjgyt9qduw7xo30k18rjdqjggpm,3jnqlm5ft8zgdc8d3vb7eqckngk2lk,jsXX8fpC,2020-0188,2020-11-15,04:19:11,05:24:54,NA,incomplete,5,shape,1,left,Purple_Triangle_Dots_1.jpg,Red_Triangle_Stripes_4.jpg,Purple_Star_Chess_3.jpg,right,775.8349999994971,false,high,NA,NA,NA,NA,NA,NA,NA,false
jsXX8fpC,3fhtjgyt9qduw7xo30k18rjdqjggpm,3jnqlm5ft8zgdc8d3vb7eqckngk2lk,jsXX8fpC,2020-0188,2020-11-15,04:19:11,05:24:54,NA,incomplete,6,shape,1,left,Red_Plus_Stripes_3.jpg,Purple_Plus_Grid_4.jpg,Red_Circle_Dots_1.jpg,left,468.26500000059605,true,high,NA,NA,NA,NA,NA,NA,NA,false
jsXX8fpC,3fhtjgyt9qduw7xo30k18rjdqjggpm,3jnqlm5ft8zgdc8d3vb7eqckngk2lk,jsXX8fpC,2020-0188,2020-11-15,04:19:11,05:24:54,NA,incomplete,7,shape,1,right,Purple_Triangle_Dots_2.jpg,Purple_Star_Stripes_3.jpg,Green_Triangle_Grid_1.jpg,left,417.5800000000745,false,high,NA,NA,NA,NA,NA,NA,NA,false
jsXX8fpC,3fhtjgyt9qduw7xo30k18rjdqjggpm,3jnqlm5ft8zgdc8d3vb7eqckngk2lk,jsXX8fpC,2020-0188,2020-11-15,04:19:11,05:24:54,NA,incomplete,8,shape,0,left,Blue_Circle_Dots_1.jpg,Purple_Circle_Grid_3.jpg,Blue_Star_Stripes_2.jpg,left,795.1249999995343,true,high,NA,NA,NA,NA,NA,NA,NA,false
jsXX8fpC,3fhtjgyt9qduw7xo30k18rjdqjggpm,3jnqlm5ft8zgdc8d3vb7eqckngk2lk,jsXX8fpC,2020-0188,2020-11-15,04:19:11,05:24:54,NA,incomplete,9,shape,1,right,Red_Plus_Dots_2.jpg,Red_Circle_Chess_3.jpg,Green_Plus_Stripes_1.jpg,left,551.8849999997765,false,high,NA,NA,NA,NA,NA,NA,NA,false
jsXX8fpC,3fhtjgyt9qduw7xo30k18rjdqjggpm,3jnqlm5ft8zgdc8d3vb7eqckngk2lk,jsXX8fpC,2020-0188,2020-11-15,04:19:11,05:24:54,NA,incomplete,10,color,1,right,Red_Triangle_Chess_2.jpg,Purple_Triangle_Dots_4.jpg,Red_Plus_Stripes_1.jpg,right,367.91000000108033,true,high,NA,NA,NA,NA,NA,NA,NA,false
jsXX8fpC,3fhtjgyt9qduw7xo30k18rjdqjggpm,3jnqlm5ft8zgdc8d3vb7eqckngk2lk,jsXX8fpC,2020-0188,2020-11-15,04:19:11,05:24:54,NA,incomplete,11,color,1,left,Green_Star_Chess_3.jpg,Green_Triangle_Dots_2.jpg,Red_Star_Grid_4.jpg,left,368.60500000044703,true,high,NA,NA,NA,NA,NA,NA,NA,false
jsXX8fpC,3fhtjgyt9qduw7xo30k18rjdqjggpm,3jnqlm5ft8zgdc8d3vb7eqckngk2lk,jsXX8fpC,2020-0188,2020-11-15,04:19:11,05:24:54,NA,incomplete,12,color,1,right,Purple_Circle_Dots_2.jpg,Red_Circle_Grid_4.jpg,Purple_Plus_Stripes_1.jpg,right,452.2100000004284,true,high,NA,NA,NA,NA,NA,NA,NA,false
jsXX8fpC,3fhtjgyt9qduw7xo30k18rjdqjggpm,3jnqlm5ft8zgdc8d3vb7eqckngk2lk,jsXX8fpC,2020-0188,2020-11-15,04:19:11,05:24:54,NA,incomplete,13,color,1,right,Blue_Circle_Grid_2.jpg,Purple_Circle_Stripes_3.jpg,Blue_Triangle_Dots_4.jpg,right,482.29499999945983,true,high,NA,NA,NA,NA,NA,NA,NA,false
jsXX8fpC,3fhtjgyt9qduw7xo30k18rjdqjggpm,3jnqlm5ft8zgdc8d3vb7eqckngk2lk,jsXX8fpC,2020-0188,2020-11-15,04:19:11,05:24:54,NA,incomplete,14,color,1,right,Purple_Plus_Dots_2.jpg,Blue_Plus_Chess_3.jpg,Purple_Star_Grid_4.jpg,right,519.9349999991246,true,high,NA,NA,NA,NA,NA,NA,NA,false
jsXX8fpC,3fhtjgyt9qduw7xo30k18rjdqjggpm,3jnqlm5ft8zgdc8d3vb7eqckngk2lk,jsXX8fpC,2020-0188,2020-11-15,04:19:11,05:24:54,NA,incomplete,15,color,1,left,Blue_Plus_Stripes_2.jpg,Blue_Triangle_Dots_4.jpg,Red_Plus_Grid_3.jpg,left,435.4849999998696,true,high,NA,NA,NA,NA,NA,NA,NA,false
jsXX8fpC,3fhtjgyt9qduw7xo30k18rjdqjggpm,3jnqlm5ft8zgdc8d3vb7eqckngk2lk,jsXX8fpC,2020-0188,2020-11-15,04:19:11,05:24:54,NA,incomplete,16,color,1,left,Red_Circle_Grid_1.jpg,Red_Plus_Stripes_3.jpg,Purple_Circle_Dots_4.jpg,left,523.3400000007823,true,high,NA,NA,NA,NA,NA,NA,NA,false
jsXX8fpC,3fhtjgyt9qduw7xo30k18rjdqjggpm,3jnqlm5ft8zgdc8d3vb7eqckngk2lk,jsXX8fpC,2020-0188,2020-11-15,04:19:11,05:24:54,NA,incomplete,17,color,1,left,Purple_Circle_Stripes_4.jpg,Purple_Star_Grid_3.jpg,Blue_Circle_Dots_2.jpg,left,383.1099999998696,true,high,NA,NA,NA,NA,NA,NA,NA,false
jsXX8fpC,3fhtjgyt9qduw7xo30k18rjdqjggpm,3jnqlm5ft8zgdc8d3vb7eqckngk2lk,jsXX8fpC,2020-0188,2020-11-15,04:19:11,05:24:54,NA,incomplete,18,color,1,right,Green_Circle_Grid_2.jpg,Red_Circle_Stripes_3.jpg,Green_Triangle_Chess_4.jpg,right,382.90500000026077,true,high,NA,NA,NA,NA,NA,NA,NA,false
jsXX8fpC,3fhtjgyt9qduw7xo30k18rjdqjggpm,3jnqlm5ft8zgdc8d3vb7eqckngk2lk,jsXX8fpC,2020-0188,2020-11-15,04:19:11,05:24:54,NA,incomplete,19,color,1,right,Green_Star_Grid_3.jpg,Red_Star_Stripes_2.jpg,Green_Circle_Dots_4.jpg,right,602.5550000001676,true,high,NA,NA,NA,NA,NA,NA,NA,false
jsXX8fpC,3fhtjgyt9qduw7xo30k18rjdqjggpm,3jnqlm5ft8zgdc8d3vb7eqckngk2lk,jsXX8fpC,2020-0188,2020-11-15,04:19:11,05:24:54,NA,incomplete,20,shape,1,left,Red_Plus_Grid_1.jpg,Blue_Plus_Dots_3.jpg,Red_Circle_Stripes_2.jpg,left,520.2299999999814,true,high,NA,NA,NA,NA,NA,NA,NA,false
jsXX8fpC,3fhtjgyt9qduw7xo30k18rjdqjggpm,3jnqlm5ft8zgdc8d3vb7eqckngk2lk,jsXX8fpC,2020-0188,2020-11-15,04:19:11,05:24:54,NA,incomplete,21,shape,1,right,Blue_Circle_Grid_1.jpg,Blue_Plus_Chess_4.jpg,Purple_Circle_Dots_3.jpg,left,404.23999999975786,false,high,NA,NA,NA,NA,NA,NA,NA,false
jsXX8fpC,3fhtjgyt9qduw7xo30k18rjdqjggpm,3jnqlm5ft8zgdc8d3vb7eqckngk2lk,jsXX8fpC,2020-0188,2020-11-15,04:19:11,05:24:54,NA,incomplete,22,shape,1,left,Blue_Circle_Grid_4.jpg,Green_Circle_Chess_1.jpg,Blue_Star_Dots_3.jpg,right,406.82999999960884,false,high,NA,NA,NA,NA,NA,NA,NA,false
jsXX8fpC,3fhtjgyt9qduw7xo30k18rjdqjggpm,3jnqlm5ft8zgdc8d3vb7eqckngk2lk,jsXX8fpC,2020-0188,2020-11-15,04:19:11,05:24:54,NA,incomplete,23,shape,1,left,Green_Star_Chess_2.jpg,Blue_Star_Grid_4.jpg,Green_Triangle_Stripes_1.jpg,right,538.2400000011548,false,high,NA,NA,NA,NA,NA,NA,NA,false
jsXX8fpC,3fhtjgyt9qduw7xo30k18rjdqjggpm,3jnqlm5ft8zgdc8d3vb7eqckngk2lk,jsXX8fpC,2020-0188,2020-11-15,04:19:11,05:24:54,NA,incomplete,24,shape,0,right,Red_Plus_Stripes_3.jpg,Red_Star_Dots_1.jpg,Green_Plus_Chess_2.jpg,left,478.1049999999814,false,high,NA,NA,NA,NA,NA,NA,NA,false
jsXX8fpC,3fhtjgyt9qduw7xo30k18rjdqjggpm,3jnqlm5ft8zgdc8d3vb7eqckngk2lk,jsXX8fpC,2020-0188,2020-11-15,04:19:11,05:24:54,NA,incomplete,25,shape,0,left,Red_Triangle_Chess_4.jpg,Purple_Triangle_Dots_3.jpg,Red_Circle_Grid_1.jpg,left,542.0300000007264,true,high,NA,NA,NA,NA,NA,NA,NA,false
jsXX8fpC,3fhtjgyt9qduw7xo30k18rjdqjggpm,3jnqlm5ft8zgdc8d3vb7eqckngk2lk,jsXX8fpC,2020-0188,2020-11-15,04:19:11,05:24:54,NA,incomplete,26,shape,1,right,Green_Circle_Stripes_2.jpg,Green_Star_Grid_1.jpg,Red_Circle_Dots_3.jpg,right,518.7249999996275,true,high,NA,NA,NA,NA,NA,NA,NA,false
jsXX8fpC,3fhtjgyt9qduw7xo30k18rjdqjggpm,3jnqlm5ft8zgdc8d3vb7eqckngk2lk,jsXX8fpC,2020-0188,2020-11-15,04:19:11,05:24:54,NA,incomplete,27,shape,0,left,Green_Circle_Chess_3.jpg,Red_Circle_Stripes_4.jpg,Green_Plus_Dots_2.jpg,right,367.42500000074506,false,high,NA,NA,NA,NA,NA,NA,NA,false
jsXX8fpC,3fhtjgyt9qduw7xo30k18rjdqjggpm,3jnqlm5ft8zgdc8d3vb7eqckngk2lk,jsXX8fpC,2020-0188,2020-11-15,04:19:11,05:24:54,NA,incomplete,28,shape,1,right,Blue_Star_Grid_1.jpg,Blue_Circle_Stripes_4.jpg,Purple_Star_Chess_3.jpg,left,411.87999999988824,false,high,NA,NA,NA,NA,NA,NA,NA,false
jsXX8fpC,3fhtjgyt9qduw7xo30k18rjdqjggpm,3jnqlm5ft8zgdc8d3vb7eqckngk2lk,jsXX8fpC,2020-0188,2020-11-15,04:19:11,05:24:54,NA,incomplete,29,shape,0,right,Green_Triangle_Chess_3.jpg,Green_Plus_Stripes_2.jpg,Red_Triangle_Dots_1.jpg,left,650.8000000002794,false,high,NA,NA,NA,NA,NA,NA,NA,false
jsXX8fpC,3fhtjgyt9qduw7xo30k18rjdqjggpm,3jnqlm5ft8zgdc8d3vb7eqckngk2lk,jsXX8fpC,2020-0188,2020-11-15,04:19:11,05:24:54,NA,incomplete,30,color,0,right,Red_Star_Dots_1.jpg,Green_Star_Grid_4.jpg,Red_Circle_Stripes_3.jpg,right,593.8050000006333,true,high,NA,NA,NA,NA,NA,NA,NA,false
jsXX8fpC,3fhtjgyt9qduw7xo30k18rjdqjggpm,3jnqlm5ft8zgdc8d3vb7eqckngk2lk,jsXX8fpC,2020-0188,2020-11-15,04:19:11,05:24:54,NA,incomplete,31,color,1,right,Green_Plus_Chess_3.jpg,Purple_Plus_Dots_1.jpg,Green_Star_Stripes_2.jpg,right,339.7949999999255,true,high,NA,NA,NA,NA,NA,NA,NA,false
jsXX8fpC,3fhtjgyt9qduw7xo30k18rjdqjggpm,3jnqlm5ft8zgdc8d3vb7eqckngk2lk,jsXX8fpC,2020-0188,2020-11-15,04:19:11,05:24:54,NA,incomplete,32,color,1,left,Green_Plus_Grid_4.jpg,Green_Circle_Dots_2.jpg,Blue_Plus_Stripes_1.jpg,right,317.68000000016764,false,high,NA,NA,NA,NA,NA,NA,NA,false
jsXX8fpC,3fhtjgyt9qduw7xo30k18rjdqjggpm,3jnqlm5ft8zgdc8d3vb7eqckngk2lk,jsXX8fpC,2020-0188,2020-11-15,04:19:11,05:24:54,NA,incomplete,33,color,1,left,Red_Star_Grid_1.jpg,Red_Plus_Dots_3.jpg,Green_Star_Chess_4.jpg,right,437.71999999973923,false,high,NA,NA,NA,NA,NA,NA,NA,false
jsXX8fpC,3fhtjgyt9qduw7xo30k18rjdqjggpm,3jnqlm5ft8zgdc8d3vb7eqckngk2lk,jsXX8fpC,2020-0188,2020-11-15,04:19:11,05:24:54,NA,incomplete,34,color,1,right,Purple_Triangle_Chess_2.jpg,Green_Triangle_Grid_1.jpg,Purple_Star_Stripes_4.jpg,right,403.10500000044703,true,high,NA,NA,NA,NA,NA,NA,NA,false
jsXX8fpC,3fhtjgyt9qduw7xo30k18rjdqjggpm,3jnqlm5ft8zgdc8d3vb7eqckngk2lk,jsXX8fpC,2020-0188,2020-11-15,04:19:11,05:24:54,NA,incomplete,35,color,1,right,Red_Plus_Dots_4.jpg,Blue_Plus_Chess_1.jpg,Red_Circle_Grid_3.jpg,left,463.5550000006333,false,high,NA,NA,NA,NA,NA,NA,NA,false
jsXX8fpC,3fhtjgyt9qduw7xo30k18rjdqjggpm,3jnqlm5ft8zgdc8d3vb7eqckngk2lk,jsXX8fpC,2020-0188,2020-11-15,04:19:11,05:24:54,NA,incomplete,36,color,0,right,Purple_Star_Dots_3.jpg,Blue_Star_Grid_1.jpg,Purple_Triangle_Chess_4.jpg,right,531.4700000002049,true,high,NA,NA,NA,NA,NA,NA,NA,false
jsXX8fpC,3fhtjgyt9qduw7xo30k18rjdqjggpm,3jnqlm5ft8zgdc8d3vb7eqckngk2lk,jsXX8fpC,2020-0188,2020-11-15,04:19:11,05:24:54,NA,incomplete,37,color,0,right,Green_Star_Stripes_2.jpg,Purple_Star_Grid_3.jpg,Green_Triangle_Dots_4.jpg,left,507.76000000024214,false,high,NA,NA,NA,NA,NA,NA,NA,false
jsXX8fpC,3fhtjgyt9qduw7xo30k18rjdqjggpm,3jnqlm5ft8zgdc8d3vb7eqckngk2lk,jsXX8fpC,2020-0188,2020-11-15,04:19:11,05:24:54,NA,incomplete,38,color,1,right,Red_Circle_Grid_3.jpg,Green_Circle_Chess_2.jpg,Red_Star_Stripes_4.jpg,left,665.6749999998137,false,high,NA,NA,NA,NA,NA,NA,NA,false
jsXX8fpC,3fhtjgyt9qduw7xo30k18rjdqjggpm,3jnqlm5ft8zgdc8d3vb7eqckngk2lk,jsXX8fpC,2020-0188,2020-11-15,04:19:11,05:24:54,NA,incomplete,39,color,1,right,Purple_Circle_Dots_2.jpg,Red_Circle_Chess_4.jpg,Purple_Star_Grid_1.jpg,right,599.8199999993667,true,high,NA,NA,NA,NA,NA,NA,NA,false
jsXX8fpC,3fhtjgyt9qduw7xo30k18rjdqjggpm,3jnqlm5ft8zgdc8d3vb7eqckngk2lk,jsXX8fpC,2020-0188,2020-11-15,04:19:11,05:24:54,NA,incomplete,40,shape,0,right,Green_Triangle_Dots_1.jpg,Green_Star_Grid_4.jpg,Blue_Triangle_Chess_3.jpg,left,465.5299999997951,false,high,NA,NA,NA,NA,NA,NA,NA,false
jsXX8fpC,3fhtjgyt9qduw7xo30k18rjdqjggpm,3jnqlm5ft8zgdc8d3vb7eqckngk2lk,jsXX8fpC,2020-0188,2020-11-15,04:19:11,05:24:54,NA,incomplete,41,shape,1,right,Red_Star_Grid_1.jpg,Red_Triangle_Dots_4.jpg,Green_Star_Chess_3.jpg,right,392.64499999955297,true,high,NA,NA,NA,NA,NA,NA,NA,false
jsXX8fpC,3fhtjgyt9qduw7xo30k18rjdqjggpm,3jnqlm5ft8zgdc8d3vb7eqckngk2lk,jsXX8fpC,2020-0188,2020-11-15,04:19:11,05:24:54,NA,incomplete,42,shape,1,left,Green_Star_Dots_4.jpg,Blue_Star_Grid_2.jpg,Green_Triangle_Stripes_1.jpg,right,335.0499999993481,false,high,NA,NA,NA,NA,NA,NA,NA,false
jsXX8fpC,3fhtjgyt9qduw7xo30k18rjdqjggpm,3jnqlm5ft8zgdc8d3vb7eqckngk2lk,jsXX8fpC,2020-0188,2020-11-15,04:19:11,05:24:54,NA,incomplete,43,shape,1,right,Green_Triangle_Chess_4.jpg,Green_Star_Stripes_1.jpg,Red_Triangle_Dots_2.jpg,left,294.2399999992922,false,high,NA,NA,NA,NA,NA,NA,NA,false
jsXX8fpC,3fhtjgyt9qduw7xo30k18rjdqjggpm,3jnqlm5ft8zgdc8d3vb7eqckngk2lk,jsXX8fpC,2020-0188,2020-11-15,04:19:11,05:24:54,NA,incomplete,44,shape,1,right,Blue_Plus_Dots_2.jpg,Blue_Star_Chess_3.jpg,Red_Plus_Grid_1.jpg,right,176.74999999953434,true,high,NA,NA,NA,NA,NA,NA,NA,false
jsXX8fpC,3fhtjgyt9qduw7xo30k18rjdqjggpm,3jnqlm5ft8zgdc8d3vb7eqckngk2lk,jsXX8fpC,2020-0188,2020-11-15,04:19:11,05:24:54,NA,incomplete,45,shape,1,left,Red_Circle_Grid_1.jpg,Blue_Circle_Chess_4.jpg,Red_Star_Stripes_3.jpg,left,432.5600000000559,true,high,NA,NA,NA,NA,NA,NA,NA,false
jsXX8fpC,3fhtjgyt9qduw7xo30k18rjdqjggpm,3jnqlm5ft8zgdc8d3vb7eqckngk2lk,jsXX8fpC,2020-0188,2020-11-15,04:19:11,05:24:54,NA,incomplete,46,shape,1,right,Green_Triangle_Dots_4.jpg,Green_Circle_Chess_2.jpg,Blue_Triangle_Stripes_3.jpg,right,298.5849999994971,true,high,NA,NA,NA,NA,NA,NA,NA,false
jsXX8fpC,3fhtjgyt9qduw7xo30k18rjdqjggpm,3jnqlm5ft8zgdc8d3vb7eqckngk2lk,jsXX8fpC,2020-0188,2020-11-15,04:19:11,05:24:54,NA,incomplete,47,shape,1,right,Blue_Star_Grid_2.jpg,Blue_Triangle_Chess_3.jpg,Purple_Star_Dots_1.jpg,left,34.56999999983236,false,high,NA,NA,NA,NA,NA,NA,NA,false
jsXX8fpC,3fhtjgyt9qduw7xo30k18rjdqjggpm,3jnqlm5ft8zgdc8d3vb7eqckngk2lk,jsXX8fpC,2020-0188,2020-11-15,04:19:11,05:24:54,NA,incomplete,48,shape,1,right,Red_Plus_Chess_4.jpg,Red_Star_Grid_3.jpg,Blue_Plus_Dots_1.jpg,left,797.1849999995902,false,high,NA,NA,NA,NA,NA,NA,NA,false
jsXX8fpC,3fhtjgyt9qduw7xo30k18rjdqjggpm,3jnqlm5ft8zgdc8d3vb7eqckngk2lk,jsXX8fpC,2020-0188,2020-11-15,04:19:11,05:24:54,NA,incomplete,49,shape,1,right,Red_Circle_Dots_1.jpg,Red_Triangle_Grid_3.jpg,Purple_Circle_Stripes_2.jpg,right,419.5900000007823,true,high,NA,NA,NA,NA,NA,NA,NA,false
jsXX8fpC,3fhtjgyt9qduw7xo30k18rjdqjggpm,3jnqlm5ft8zgdc8d3vb7eqckngk2lk,jsXX8fpC,2020-0188,2020-11-15,04:19:11,05:24:54,NA,incomplete,50,color,1,left,Blue_Plus_Stripes_2.jpg,Blue_Star_Dots_3.jpg,Red_Plus_Grid_4.jpg,right,645.8300000000745,false,high,NA,NA,NA,NA,NA,NA,NA,false
jsXX8fpC,3fhtjgyt9qduw7xo30k18rjdqjggpm,3jnqlm5ft8zgdc8d3vb7eqckngk2lk,jsXX8fpC,2020-0188,2020-11-15,04:19:11,05:24:54,NA,incomplete,51,color,0,right,Blue_Triangle_Grid_4.jpg,Green_Triangle_Stripes_3.jpg,Blue_Star_Chess_2.jpg,right,536.6300000003539,true,high,NA,NA,NA,NA,NA,NA,NA,false
jsXX8fpC,3fhtjgyt9qduw7xo30k18rjdqjggpm,3jnqlm5ft8zgdc8d3vb7eqckngk2lk,jsXX8fpC,2020-0188,2020-11-15,04:19:11,05:24:54,NA,incomplete,52,color,1,left,Blue_Triangle_Stripes_3.jpg,Blue_Star_Grid_4.jpg,Green_Triangle_Chess_1.jpg,left,61.66500000003725,true,high,NA,NA,NA,NA,NA,NA,NA,false
jsXX8fpC,3fhtjgyt9qduw7xo30k18rjdqjggpm,3jnqlm5ft8zgdc8d3vb7eqckngk2lk,jsXX8fpC,2020-0188,2020-11-15,04:19:11,05:24:54,NA,incomplete,53,color,1,left,Red_Circle_Dots_4.jpg,Red_Star_Grid_1.jpg,Purple_Circle_Stripes_2.jpg,left,507.9400000004098,true,high,NA,NA,NA,NA,NA,NA,NA,false
jsXX8fpC,3fhtjgyt9qduw7xo30k18rjdqjggpm,3jnqlm5ft8zgdc8d3vb7eqckngk2lk,jsXX8fpC,2020-0188,2020-11-15,04:19:11,05:24:54,NA,incomplete,54,color,1,left,Blue_Circle_Stripes_1.jpg,Blue_Plus_Chess_2.jpg,Red_Circle_Grid_3.jpg,right,273.7000000006519,false,high,NA,NA,NA,NA,NA,NA,NA,false
jsXX8fpC,3fhtjgyt9qduw7xo30k18rjdqjggpm,3jnqlm5ft8zgdc8d3vb7eqckngk2lk,jsXX8fpC,2020-0188,2020-11-15,04:19:11,05:24:54,NA,incomplete,55,color,0,left,Purple_Triangle_Grid_4.jpg,Purple_Plus_Stripes_3.jpg,Red_Triangle_Dots_1.jpg,left,225.7900000005029,true,high,NA,NA,NA,NA,NA,NA,NA,false
jsXX8fpC,3fhtjgyt9qduw7xo30k18rjdqjggpm,3jnqlm5ft8zgdc8d3vb7eqckngk2lk,jsXX8fpC,2020-0188,2020-11-15,04:19:11,05:24:54,NA,incomplete,56,color,1,right,Purple_Plus_Chess_2.jpg,Red_Plus_Stripes_4.jpg,Purple_Star_Dots_1.jpg,left,648.7550000003539,false,high,NA,NA,NA,NA,NA,NA,NA,false
jsXX8fpC,3fhtjgyt9qduw7xo30k18rjdqjggpm,3jnqlm5ft8zgdc8d3vb7eqckngk2lk,jsXX8fpC,2020-0188,2020-11-15,04:19:11,05:24:54,NA,incomplete,57,color,1,left,Blue_Triangle_Stripes_1.jpg,Blue_Circle_Dots_4.jpg,Purple_Triangle_Chess_3.jpg,left,572.125,true,high,NA,NA,NA,NA,NA,NA,NA,false
jsXX8fpC,3fhtjgyt9qduw7xo30k18rjdqjggpm,3jnqlm5ft8zgdc8d3vb7eqckngk2lk,jsXX8fpC,2020-0188,2020-11-15,04:19:11,05:24:54,NA,incomplete,58,color,0,left,Purple_Star_Dots_3.jpg,Purple_Circle_Grid_4.jpg,Blue_Star_Chess_1.jpg,left,594.2200000006706,true,high,NA,NA,NA,NA,NA,NA,NA,false
jsXX8fpC,3fhtjgyt9qduw7xo30k18rjdqjggpm,3jnqlm5ft8zgdc8d3vb7eqckngk2lk,jsXX8fpC,2020-0188,2020-11-15,04:19:11,05:24:54,NA,incomplete,59,color,1,right,Purple_Circle_Grid_1.jpg,Green_Circle_Dots_3.jpg,Purple_Star_Stripes_4.jpg,right,461.84499999973923,true,high,NA,NA,NA,NA,NA,NA,NA,false
jsXX8fpC,3fhtjgyt9qduw7xo30k18rjdqjggpm,3jnqlm5ft8zgdc8d3vb7eqckngk2lk,jsXX8fpC,2020-0188,2020-11-15,04:19:11,05:24:54,NA,incomplete,60,shape,1,right,Blue_Triangle_Chess_3.jpg,Blue_Circle_Grid_1.jpg,Green_Triangle_Dots_2.jpg,right,284.8350000004284,true,high,NA,NA,NA,NA,NA,NA,NA,false
jsXX8fpC,3fhtjgyt9qduw7xo30k18rjdqjggpm,3jnqlm5ft8zgdc8d3vb7eqckngk2lk,jsXX8fpC,2020-0188,2020-11-15,04:19:11,05:24:54,NA,incomplete,61,shape,1,right,Red_Triangle_Chess_1.jpg,Red_Circle_Grid_2.jpg,Purple_Triangle_Stripes_4.jpg,right,258.285000000149,true,high,NA,NA,NA,NA,NA,NA,NA,false
jsXX8fpC,3fhtjgyt9qduw7xo30k18rjdqjggpm,3jnqlm5ft8zgdc8d3vb7eqckngk2lk,jsXX8fpC,2020-0188,2020-11-15,04:19:11,05:24:54,NA,incomplete,62,shape,1,left,Purple_Circle_Grid_2.jpg,Blue_Circle_Dots_4.jpg,Purple_Plus_Stripes_3.jpg,right,254.6750000002794,false,high,NA,NA,NA,NA,NA,NA,NA,false
jsXX8fpC,3fhtjgyt9qduw7xo30k18rjdqjggpm,3jnqlm5ft8zgdc8d3vb7eqckngk2lk,jsXX8fpC,2020-0188,2020-11-15,04:19:11,05:24:54,NA,incomplete,63,shape,1,right,Purple_Star_Dots_2.jpg,Purple_Circle_Chess_3.jpg,Blue_Star_Stripes_4.jpg,right,385.67500000074506,true,high,NA,NA,NA,NA,NA,NA,NA,false
jsXX8fpC,3fhtjgyt9qduw7xo30k18rjdqjggpm,3jnqlm5ft8zgdc8d3vb7eqckngk2lk,jsXX8fpC,2020-0188,2020-11-15,04:19:11,05:24:54,NA,incomplete,64,shape,1,right,Purple_Circle_Dots_4.jpg,Purple_Plus_Chess_3.jpg,Green_Circle_Grid_1.jpg,left,136.94000000040978,false,high,NA,NA,NA,NA,NA,NA,NA,false
jsXX8fpC,3fhtjgyt9qduw7xo30k18rjdqjggpm,3jnqlm5ft8zgdc8d3vb7eqckngk2lk,jsXX8fpC,2020-0188,2020-11-15,04:19:11,05:24:54,NA,incomplete,65,shape,1,left,Purple_Circle_Dots_3.jpg,Red_Circle_Grid_2.jpg,Purple_Plus_Chess_4.jpg,right,299.3050000006333,false,high,NA,NA,NA,NA,NA,NA,NA,false
jsXX8fpC,3fhtjgyt9qduw7xo30k18rjdqjggpm,3jnqlm5ft8zgdc8d3vb7eqckngk2lk,jsXX8fpC,2020-0188,2020-11-15,04:19:11,05:24:54,NA,incomplete,66,shape,0,right,Red_Circle_Grid_4.jpg,Red_Star_Dots_1.jpg,Purple_Circle_Chess_3.jpg,right,668.5500000002794,true,high,NA,NA,NA,NA,NA,NA,NA,false
jsXX8fpC,3fhtjgyt9qduw7xo30k18rjdqjggpm,3jnqlm5ft8zgdc8d3vb7eqckngk2lk,jsXX8fpC,2020-0188,2020-11-15,04:19:11,05:24:54,NA,incomplete,67,shape,1,right,Red_Circle_Chess_4.jpg,Red_Plus_Stripes_3.jpg,Blue_Circle_Dots_2.jpg,left,422.59499999973923,false,high,NA,NA,NA,NA,NA,NA,NA,false
jsXX8fpC,3fhtjgyt9qduw7xo30k18rjdqjggpm,3jnqlm5ft8zgdc8d3vb7eqckngk2lk,jsXX8fpC,2020-0188,2020-11-15,04:19:11,05:24:54,NA,incomplete,68,shape,0,left,Blue_Plus_Stripes_1.jpg,Purple_Plus_Chess_2.jpg,Blue_Star_Grid_3.jpg,right,517.5850000004284,false,high,NA,NA,NA,NA,NA,NA,NA,false
jsXX8fpC,3fhtjgyt9qduw7xo30k18rjdqjggpm,3jnqlm5ft8zgdc8d3vb7eqckngk2lk,jsXX8fpC,2020-0188,2020-11-15,04:19:11,05:24:54,NA,incomplete,69,shape,0,right,Green_Circle_Chess_2.jpg,Green_Triangle_Grid_4.jpg,Red_Circle_Stripes_1.jpg,right,308.589999999851,true,high,NA,NA,NA,NA,NA,NA,NA,false
jsXX8fpC,3fhtjgyt9qduw7xo30k18rjdqjggpm,3jnqlm5ft8zgdc8d3vb7eqckngk2lk,jsXX8fpC,2020-0188,2020-11-15,04:19:11,05:24:54,NA,incomplete,70,color,1,left,Red_Triangle_Grid_3.jpg,Red_Star_Dots_4.jpg,Green_Triangle_Chess_2.jpg,left,230.36500000068918,true,high,NA,NA,NA,NA,NA,NA,NA,false
jsXX8fpC,3fhtjgyt9qduw7xo30k18rjdqjggpm,3jnqlm5ft8zgdc8d3vb7eqckngk2lk,jsXX8fpC,2020-0188,2020-11-15,04:19:11,05:24:54,NA,incomplete,71,color,1,right,Red_Plus_Dots_4.jpg,Green_Plus_Stripes_3.jpg,Red_Triangle_Grid_1.jpg,left,268.4600000004284,false,high,NA,NA,NA,NA,NA,NA,NA,false
jsXX8fpC,3fhtjgyt9qduw7xo30k18rjdqjggpm,3jnqlm5ft8zgdc8d3vb7eqckngk2lk,jsXX8fpC,2020-0188,2020-11-15,04:19:11,05:24:54,NA,incomplete,72,color,1,left,Purple_Plus_Grid_1.jpg,Purple_Star_Stripes_4.jpg,Green_Plus_Chess_3.jpg,left,268.0050000003539,true,high,NA,NA,NA,NA,NA,NA,NA,false
jsXX8fpC,3fhtjgyt9qduw7xo30k18rjdqjggpm,3jnqlm5ft8zgdc8d3vb7eqckngk2lk,jsXX8fpC,2020-0188,2020-11-15,04:19:11,05:24:54,NA,incomplete,73,color,0,right,Red_Circle_Chess_1.jpg,Green_Circle_Stripes_3.jpg,Red_Triangle_Grid_4.jpg,left,374.59499999927357,false,high,NA,NA,NA,NA,NA,NA,NA,false
jsXX8fpC,3fhtjgyt9qduw7xo30k18rjdqjggpm,3jnqlm5ft8zgdc8d3vb7eqckngk2lk,jsXX8fpC,2020-0188,2020-11-15,04:19:11,05:24:54,NA,incomplete,74,color,1,right,Blue_Star_Dots_2.jpg,Purple_Star_Chess_4.jpg,Blue_Triangle_Stripes_1.jpg,right,375.68000000016764,true,high,NA,NA,NA,NA,NA,NA,NA,false
jsXX8fpC,3fhtjgyt9qduw7xo30k18rjdqjggpm,3jnqlm5ft8zgdc8d3vb7eqckngk2lk,jsXX8fpC,2020-0188,2020-11-15,04:19:11,05:24:54,NA,incomplete,75,color,1,right,Blue_Plus_Dots_3.jpg,Purple_Plus_Chess_4.jpg,Blue_Star_Stripes_1.jpg,right,290.57500000018626,true,high,NA,NA,NA,NA,NA,NA,NA,false
jsXX8fpC,3fhtjgyt9qduw7xo30k18rjdqjggpm,3jnqlm5ft8zgdc8d3vb7eqckngk2lk,jsXX8fpC,2020-0188,2020-11-15,04:19:11,05:24:54,NA,incomplete,76,color,0,left,Green_Plus_Dots_3.jpg,Green_Circle_Grid_2.jpg,Red_Plus_Stripes_1.jpg,left,353.25,true,high,NA,NA,NA,NA,NA,NA,NA,false
jsXX8fpC,3fhtjgyt9qduw7xo30k18rjdqjggpm,3jnqlm5ft8zgdc8d3vb7eqckngk2lk,jsXX8fpC,2020-0188,2020-11-15,04:19:11,05:24:54,NA,incomplete,77,color,0,left,Green_Triangle_Dots_4.jpg,Green_Plus_Chess_3.jpg,Purple_Triangle_Stripes_2.jpg,right,536.7400000006892,false,high,NA,NA,NA,NA,NA,NA,NA,false
jsXX8fpC,3fhtjgyt9qduw7xo30k18rjdqjggpm,3jnqlm5ft8zgdc8d3vb7eqckngk2lk,jsXX8fpC,2020-0188,2020-11-15,04:19:11,05:24:54,NA,incomplete,78,color,1,left,Green_Circle_Chess_2.jpg,Green_Star_Dots_4.jpg,Purple_Circle_Grid_3.jpg,right,444.66500000003725,false,high,NA,NA,NA,NA,NA,NA,NA,false
jsXX8fpC,3fhtjgyt9qduw7xo30k18rjdqjggpm,3jnqlm5ft8zgdc8d3vb7eqckngk2lk,jsXX8fpC,2020-0188,2020-11-15,04:19:11,05:24:54,NA,incomplete,79,color,1,left,Green_Circle_Grid_2.jpg,Green_Plus_Chess_1.jpg,Purple_Circle_Dots_3.jpg,left,251.5200000004843,true,high,NA,NA,NA,NA,NA,NA,NA,false
jsXX8fpC,3fhtjgyt9qduw7xo30k18rjdqjggpm,3jnqlm5ft8zgdc8d3vb7eqckngk2lk,jsXX8fpC,2020-0188,2020-11-15,04:19:11,05:24:54,NA,incomplete,80,shape,1,right,Blue_Triangle_Dots_3.jpg,Blue_Circle_Chess_4.jpg,Purple_Triangle_Grid_1.jpg,right,410.00499999988824,true,high,NA,NA,NA,NA,NA,NA,NA,false
jsXX8fpC,3fhtjgyt9qduw7xo30k18rjdqjggpm,3jnqlm5ft8zgdc8d3vb7eqckngk2lk,jsXX8fpC,2020-0188,2020-11-15,04:19:11,05:24:54,NA,incomplete,81,shape,1,left,Red_Plus_Stripes_3.jpg,Blue_Plus_Chess_2.jpg,Red_Circle_Grid_1.jpg,left,262.7050000000745,true,high,NA,NA,NA,NA,NA,NA,NA,false
jsXX8fpC,3fhtjgyt9qduw7xo30k18rjdqjggpm,3jnqlm5ft8zgdc8d3vb7eqckngk2lk,jsXX8fpC,2020-0188,2020-11-15,04:19:11,05:24:54,NA,incomplete,82,shape,1,left,Blue_Triangle_Stripes_1.jpg,Purple_Triangle_Grid_4.jpg,Blue_Plus_Chess_2.jpg,left,256.910000000149,true,high,NA,NA,NA,NA,NA,NA,NA,false
jsXX8fpC,3fhtjgyt9qduw7xo30k18rjdqjggpm,3jnqlm5ft8zgdc8d3vb7eqckngk2lk,jsXX8fpC,2020-0188,2020-11-15,04:19:11,05:24:54,NA,incomplete,83,shape,1,right,Blue_Circle_Stripes_4.jpg,Blue_Star_Grid_3.jpg,Red_Circle_Dots_2.jpg,left,418.6049999999814,false,high,NA,NA,NA,NA,NA,NA,NA,false
jsXX8fpC,3fhtjgyt9qduw7xo30k18rjdqjggpm,3jnqlm5ft8zgdc8d3vb7eqckngk2lk,jsXX8fpC,2020-0188,2020-11-15,04:19:11,05:24:54,NA,incomplete,84,shape,1,left,Purple_Plus_Dots_1.jpg,Blue_Plus_Chess_4.jpg,Purple_Triangle_Stripes_2.jpg,left,349.9350000000559,true,high,NA,NA,NA,NA,NA,NA,NA,false
jsXX8fpC,3fhtjgyt9qduw7xo30k18rjdqjggpm,3jnqlm5ft8zgdc8d3vb7eqckngk2lk,jsXX8fpC,2020-0188,2020-11-15,04:19:11,05:24:54,NA,incomplete,85,shape,1,right,Green_Star_Chess_3.jpg,Green_Triangle_Grid_4.jpg,Blue_Star_Stripes_1.jpg,right,297.2350000003353,true,high,NA,NA,NA,NA,NA,NA,NA,false
jsXX8fpC,3fhtjgyt9qduw7xo30k18rjdqjggpm,3jnqlm5ft8zgdc8d3vb7eqckngk2lk,jsXX8fpC,2020-0188,2020-11-15,04:19:11,05:24:54,NA,incomplete,86,shape,1,right,Green_Star_Chess_3.jpg,Green_Circle_Stripes_1.jpg,Purple_Star_Dots_2.jpg,right,370.6100000012666,true,high,NA,NA,NA,NA,NA,NA,NA,false
jsXX8fpC,3fhtjgyt9qduw7xo30k18rjdqjggpm,3jnqlm5ft8zgdc8d3vb7eqckngk2lk,jsXX8fpC,2020-0188,2020-11-15,04:19:11,05:24:54,NA,incomplete,87,shape,0,right,Blue_Circle_Dots_3.jpg,Blue_Star_Grid_2.jpg,Red_Circle_Stripes_1.jpg,right,277,true,high,NA,NA,NA,NA,NA,NA,NA,false
jsXX8fpC,3fhtjgyt9qduw7xo30k18rjdqjggpm,3jnqlm5ft8zgdc8d3vb7eqckngk2lk,jsXX8fpC,2020-0188,2020-11-15,04:19:11,05:24:54,NA,incomplete,88,shape,0,left,Green_Circle_Grid_4.jpg,Red_Circle_Chess_1.jpg,Green_Triangle_Stripes_2.jpg,left,110.28499999968335,true,high,NA,NA,NA,NA,NA,NA,NA,false
jsXX8fpC,3fhtjgyt9qduw7xo30k18rjdqjggpm,3jnqlm5ft8zgdc8d3vb7eqckngk2lk,jsXX8fpC,2020-0188,2020-11-15,04:19:11,05:24:54,NA,incomplete,89,shape,1,right,Green_Triangle_Stripes_2.jpg,Green_Circle_Dots_4.jpg,Red_Triangle_Grid_3.jpg,left,696.1450000000186,false,high,NA,NA,NA,NA,NA,NA,NA,false
jsXX8fpC,3fhtjgyt9qduw7xo30k18rjdqjggpm,3jnqlm5ft8zgdc8d3vb7eqckngk2lk,jsXX8fpC,2020-0188,2020-11-15,04:19:11,05:24:54,NA,incomplete,90,color,1,left,Purple_Star_Dots_2.jpg,Purple_Triangle_Chess_1.jpg,Red_Star_Stripes_3.jpg,right,187.69499999983236,false,high,NA,NA,NA,NA,NA,NA,NA,false
jsXX8fpC,3fhtjgyt9qduw7xo30k18rjdqjggpm,3jnqlm5ft8zgdc8d3vb7eqckngk2lk,jsXX8fpC,2020-0188,2020-11-15,04:19:11,05:24:54,NA,incomplete,91,color,1,right,Blue_Star_Grid_3.jpg,Green_Star_Chess_2.jpg,Blue_Triangle_Dots_1.jpg,right,263.714999999851,true,high,NA,NA,NA,NA,NA,NA,NA,false
jsXX8fpC,3fhtjgyt9qduw7xo30k18rjdqjggpm,3jnqlm5ft8zgdc8d3vb7eqckngk2lk,jsXX8fpC,2020-0188,2020-11-15,04:19:11,05:24:54,NA,incomplete,92,color,0,left,Green_Plus_Stripes_2.jpg,Green_Triangle_Chess_1.jpg,Red_Plus_Dots_3.jpg,right,288.51000000024214,false,high,NA,NA,NA,NA,NA,NA,NA,false
jsXX8fpC,3fhtjgyt9qduw7xo30k18rjdqjggpm,3jnqlm5ft8zgdc8d3vb7eqckngk2lk,jsXX8fpC,2020-0188,2020-11-15,04:19:11,05:24:54,NA,incomplete,93,color,1,left,Red_Triangle_Dots_2.jpg,Red_Circle_Chess_4.jpg,Purple_Triangle_Grid_3.jpg,right,296.62000000011176,false,high,NA,NA,NA,NA,NA,NA,NA,false
jsXX8fpC,3fhtjgyt9qduw7xo30k18rjdqjggpm,3jnqlm5ft8zgdc8d3vb7eqckngk2lk,jsXX8fpC,2020-0188,2020-11-15,04:19:11,05:24:54,NA,incomplete,94,color,1,right,Green_Triangle_Grid_1.jpg,Purple_Triangle_Chess_3.jpg,Green_Star_Dots_4.jpg,right,291.74500000011176,true,high,NA,NA,NA,NA,NA,NA,NA,false
jsXX8fpC,3fhtjgyt9qduw7xo30k18rjdqjggpm,3jnqlm5ft8zgdc8d3vb7eqckngk2lk,jsXX8fpC,2020-0188,2020-11-15,04:19:11,05:24:54,NA,incomplete,95,color,1,left,Green_Plus_Stripes_1.jpg,Green_Circle_Chess_4.jpg,Blue_Plus_Dots_2.jpg,left,321.20999999996275,true,high,NA,NA,NA,NA,NA,NA,NA,false
jsXX8fpC,3fhtjgyt9qduw7xo30k18rjdqjggpm,3jnqlm5ft8zgdc8d3vb7eqckngk2lk,jsXX8fpC,2020-0188,2020-11-15,04:19:11,05:24:54,NA,incomplete,96,color,1,left,Purple_Star_Dots_4.jpg,Purple_Triangle_Chess_1.jpg,Red_Star_Grid_2.jpg,left,179.39000000013039,true,high,NA,NA,NA,NA,NA,NA,NA,false
jsXX8fpC,3fhtjgyt9qduw7xo30k18rjdqjggpm,3jnqlm5ft8zgdc8d3vb7eqckngk2lk,jsXX8fpC,2020-0188,2020-11-15,04:19:11,05:24:54,NA,incomplete,97,color,1,left,Purple_Plus_Dots_1.jpg,Purple_Triangle_Grid_2.jpg,Green_Plus_Stripes_3.jpg,left,191.93999999947846,true,high,NA,NA,NA,NA,NA,NA,NA,false
jsXX8fpC,3fhtjgyt9qduw7xo30k18rjdqjggpm,3jnqlm5ft8zgdc8d3vb7eqckngk2lk,jsXX8fpC,2020-0188,2020-11-15,04:19:11,05:24:54,NA,incomplete,98,color,1,right,Blue_Plus_Chess_2.jpg,Green_Plus_Stripes_4.jpg,Blue_Triangle_Dots_3.jpg,right,157.37500000093132,true,high,NA,NA,NA,NA,NA,NA,NA,false
jsXX8fpC,3fhtjgyt9qduw7xo30k18rjdqjggpm,3jnqlm5ft8zgdc8d3vb7eqckngk2lk,jsXX8fpC,2020-0188,2020-11-15,04:19:11,05:24:54,NA,incomplete,99,color,1,left,Purple_Circle_Grid_3.jpg,Purple_Triangle_Stripes_2.jpg,Blue_Circle_Dots_1.jpg,left,330.589999999851,true,high,NA,NA,NA,NA,NA,NA,NA,false
jsXX8fpC,3fhtjgyt9qduw7xo30k18rjdqjggpm,3jnqlm5ft8zgdc8d3vb7eqckngk2lk,jsXX8fpC,2020-0188,2020-11-15,04:19:11,05:24:54,NA,incomplete,100,shape,1,right,Purple_Plus_Stripes_1.jpg,Purple_Triangle_Dots_4.jpg,Green_Plus_Grid_2.jpg,left,193.86500000022352,false,high,NA,NA,NA,NA,NA,NA,NA,false
jsXX8fpC,3fhtjgyt9qduw7xo30k18rjdqjggpm,3jnqlm5ft8zgdc8d3vb7eqckngk2lk,jsXX8fpC,2020-0188,2020-11-15,04:19:11,05:24:54,NA,incomplete,101,shape,1,left,Purple_Star_Chess_3.jpg,Green_Star_Grid_1.jpg,Purple_Plus_Stripes_2.jpg,right,79.70000000018626,false,high,NA,NA,NA,NA,NA,NA,NA,false
jsXX8fpC,3fhtjgyt9qduw7xo30k18rjdqjggpm,3jnqlm5ft8zgdc8d3vb7eqckngk2lk,jsXX8fpC,2020-0188,2020-11-15,04:19:11,05:24:54,NA,incomplete,102,shape,1,left,Green_Plus_Dots_2.jpg,Purple_Plus_Grid_3.jpg,Green_Star_Chess_1.jpg,right,372.035000000149,false,high,NA,NA,NA,NA,NA,NA,NA,false
jsXX8fpC,3fhtjgyt9qduw7xo30k18rjdqjggpm,3jnqlm5ft8zgdc8d3vb7eqckngk2lk,jsXX8fpC,2020-0188,2020-11-15,04:19:11,05:24:54,NA,incomplete,103,shape,1,right,Green_Circle_Chess_4.jpg,Green_Triangle_Stripes_3.jpg,Blue_Circle_Dots_1.jpg,left,393.44499999983236,false,high,NA,NA,NA,NA,NA,NA,NA,false
jsXX8fpC,3fhtjgyt9qduw7xo30k18rjdqjggpm,3jnqlm5ft8zgdc8d3vb7eqckngk2lk,jsXX8fpC,2020-0188,2020-11-15,04:19:11,05:24:54,NA,incomplete,104,shape,1,left,Red_Triangle_Dots_4.jpg,Blue_Triangle_Grid_1.jpg,Red_Plus_Stripes_2.jpg,right,423.62999999988824,false,high,NA,NA,NA,NA,NA,NA,NA,false
jsXX8fpC,3fhtjgyt9qduw7xo30k18rjdqjggpm,3jnqlm5ft8zgdc8d3vb7eqckngk2lk,jsXX8fpC,2020-0188,2020-11-15,04:19:11,05:24:54,NA,incomplete,105,shape,1,left,Purple_Plus_Grid_3.jpg,Blue_Plus_Stripes_4.jpg,Purple_Triangle_Chess_2.jpg,right,267.7049999991432,false,high,NA,NA,NA,NA,NA,NA,NA,false
jsXX8fpC,3fhtjgyt9qduw7xo30k18rjdqjggpm,3jnqlm5ft8zgdc8d3vb7eqckngk2lk,jsXX8fpC,2020-0188,2020-11-15,04:19:11,05:24:54,NA,incomplete,106,shape,1,left,Red_Plus_Dots_4.jpg,Green_Plus_Chess_3.jpg,Red_Triangle_Stripes_2.jpg,right,502.31500000087544,false,high,NA,NA,NA,NA,NA,NA,NA,false
jsXX8fpC,3fhtjgyt9qduw7xo30k18rjdqjggpm,3jnqlm5ft8zgdc8d3vb7eqckngk2lk,jsXX8fpC,2020-0188,2020-11-15,04:19:11,05:24:54,NA,incomplete,107,shape,0,left,Red_Star_Dots_1.jpg,Green_Star_Grid_2.jpg,Red_Circle_Stripes_3.jpg,left,163.24500000057742,true,high,NA,NA,NA,NA,NA,NA,NA,false
jsXX8fpC,3fhtjgyt9qduw7xo30k18rjdqjggpm,3jnqlm5ft8zgdc8d3vb7eqckngk2lk,jsXX8fpC,2020-0188,2020-11-15,04:19:11,05:24:54,NA,incomplete,108,shape,1,right,Green_Star_Stripes_1.jpg,Green_Circle_Dots_4.jpg,Red_Star_Chess_2.jpg,right,398.34499999973923,true,high,NA,NA,NA,NA,NA,NA,NA,false
jsXX8fpC,3fhtjgyt9qduw7xo30k18rjdqjggpm,3jnqlm5ft8zgdc8d3vb7eqckngk2lk,jsXX8fpC,2020-0188,2020-11-15,04:19:11,05:24:54,NA,incomplete,109,shape,1,left,Blue_Triangle_Dots_2.jpg,Purple_Triangle_Grid_3.jpg,Blue_Plus_Chess_4.jpg,right,419.6400000001304,false,high,NA,NA,NA,NA,NA,NA,NA,false
jsXX8fpC,3fhtjgyt9qduw7xo30k18rjdqjggpm,3jnqlm5ft8zgdc8d3vb7eqckngk2lk,jsXX8fpC,2020-0188,2020-11-15,04:19:11,05:24:54,NA,incomplete,110,color,1,left,Purple_Plus_Stripes_3.jpg,Purple_Triangle_Grid_4.jpg,Green_Plus_Chess_2.jpg,left,415.5749999997206,true,high,NA,NA,NA,NA,NA,NA,NA,false
jsXX8fpC,3fhtjgyt9qduw7xo30k18rjdqjggpm,3jnqlm5ft8zgdc8d3vb7eqckngk2lk,jsXX8fpC,2020-0188,2020-11-15,04:19:11,05:24:54,NA,incomplete,111,color,1,right,Blue_Triangle_Grid_1.jpg,Red_Triangle_Chess_4.jpg,Blue_Plus_Dots_3.jpg,left,352.0500000002794,false,high,NA,NA,NA,NA,NA,NA,NA,false
jsXX8fpC,3fhtjgyt9qduw7xo30k18rjdqjggpm,3jnqlm5ft8zgdc8d3vb7eqckngk2lk,jsXX8fpC,2020-0188,2020-11-15,04:19:11,05:24:54,NA,incomplete,112,color,1,right,Green_Triangle_Dots_1.jpg,Purple_Triangle_Chess_3.jpg,Green_Circle_Grid_4.jpg,right,147.32999999960884,true,high,NA,NA,NA,NA,NA,NA,NA,false
jsXX8fpC,3fhtjgyt9qduw7xo30k18rjdqjggpm,3jnqlm5ft8zgdc8d3vb7eqckngk2lk,jsXX8fpC,2020-0188,2020-11-15,04:19:11,05:24:54,NA,incomplete,113,color,1,right,Green_Triangle_Chess_3.jpg,Red_Triangle_Stripes_2.jpg,Green_Circle_Dots_4.jpg,left,314.37999999988824,false,high,NA,NA,NA,NA,NA,NA,NA,false
jsXX8fpC,3fhtjgyt9qduw7xo30k18rjdqjggpm,3jnqlm5ft8zgdc8d3vb7eqckngk2lk,jsXX8fpC,2020-0188,2020-11-15,04:19:11,05:24:54,NA,incomplete,114,color,0,right,Green_Star_Grid_4.jpg,Red_Star_Stripes_1.jpg,Green_Plus_Dots_2.jpg,right,143.6199999996461,true,high,NA,NA,NA,NA,NA,NA,NA,false
jsXX8fpC,3fhtjgyt9qduw7xo30k18rjdqjggpm,3jnqlm5ft8zgdc8d3vb7eqckngk2lk,jsXX8fpC,2020-0188,2020-11-15,04:19:11,05:24:54,NA,incomplete,115,color,1,right,Red_Plus_Stripes_1.jpg,Blue_Plus_Grid_2.jpg,Red_Star_Chess_4.jpg,left,303.2599999997765,false,high,NA,NA,NA,NA,NA,NA,NA,false
jsXX8fpC,3fhtjgyt9qduw7xo30k18rjdqjggpm,3jnqlm5ft8zgdc8d3vb7eqckngk2lk,jsXX8fpC,2020-0188,2020-11-15,04:19:11,05:24:54,NA,incomplete,116,color,1,right,Blue_Star_Chess_3.jpg,Red_Star_Stripes_4.jpg,Blue_Circle_Grid_1.jpg,left,596.5050000003539,false,high,NA,NA,NA,NA,NA,NA,NA,false
jsXX8fpC,3fhtjgyt9qduw7xo30k18rjdqjggpm,3jnqlm5ft8zgdc8d3vb7eqckngk2lk,jsXX8fpC,2020-0188,2020-11-15,04:19:11,05:24:54,NA,incomplete,117,color,1,right,Purple_Star_Grid_2.jpg,Red_Star_Dots_4.jpg,Purple_Triangle_Chess_1.jpg,right,71.26999999955297,true,high,NA,NA,NA,NA,NA,NA,NA,false
jsXX8fpC,3fhtjgyt9qduw7xo30k18rjdqjggpm,3jnqlm5ft8zgdc8d3vb7eqckngk2lk,jsXX8fpC,2020-0188,2020-11-15,04:19:11,05:24:54,NA,incomplete,118,color,1,right,Red_Plus_Chess_2.jpg,Purple_Plus_Dots_3.jpg,Red_Star_Stripes_1.jpg,right,314.42500000074506,true,high,NA,NA,NA,NA,NA,NA,NA,false
jsXX8fpC,3fhtjgyt9qduw7xo30k18rjdqjggpm,3jnqlm5ft8zgdc8d3vb7eqckngk2lk,jsXX8fpC,2020-0188,2020-11-15,04:19:11,05:24:54,NA,incomplete,119,color,1,right,Red_Triangle_Stripes_2.jpg,Green_Triangle_Grid_4.jpg,Red_Circle_Chess_3.jpg,left,355.22500000009313,false,high,NA,NA,NA,NA,NA,NA,NA,false
jsXX8fpC,3fhtjgyt9qduw7xo30k18rjdqjggpm,3jnqlm5ft8zgdc8d3vb7eqckngk2lk,jsXX8fpC,2020-0188,2020-11-15,04:19:11,05:24:54,NA,incomplete,120,shape,0,right,Red_Plus_Dots_4.jpg,Red_Star_Stripes_3.jpg,Purple_Plus_Chess_1.jpg,right,308.42000000039116,true,high,NA,NA,NA,NA,NA,NA,NA,false
jsXX8fpC,3fhtjgyt9qduw7xo30k18rjdqjggpm,3jnqlm5ft8zgdc8d3vb7eqckngk2lk,jsXX8fpC,2020-0188,2020-11-15,04:19:11,05:24:54,NA,incomplete,121,shape,1,left,Purple_Circle_Chess_2.jpg,Red_Circle_Dots_1.jpg,Purple_Star_Grid_4.jpg,right,532.6499999999069,false,high,NA,NA,NA,NA,NA,NA,NA,false
jsXX8fpC,3fhtjgyt9qduw7xo30k18rjdqjggpm,3jnqlm5ft8zgdc8d3vb7eqckngk2lk,jsXX8fpC,2020-0188,2020-11-15,04:19:11,05:24:54,NA,incomplete,122,shape,1,right,Red_Triangle_Grid_1.jpg,Red_Plus_Stripes_4.jpg,Blue_Triangle_Dots_3.jpg,left,371.16999999945983,false,high,NA,NA,NA,NA,NA,NA,NA,false
jsXX8fpC,3fhtjgyt9qduw7xo30k18rjdqjggpm,3jnqlm5ft8zgdc8d3vb7eqckngk2lk,jsXX8fpC,2020-0188,2020-11-15,04:19:11,05:24:54,NA,incomplete,123,shape,1,right,Green_Circle_Grid_4.jpg,Green_Plus_Stripes_1.jpg,Red_Circle_Dots_2.jpg,right,650.679999999702,true,high,NA,NA,NA,NA,NA,NA,NA,false
jsXX8fpC,3fhtjgyt9qduw7xo30k18rjdqjggpm,3jnqlm5ft8zgdc8d3vb7eqckngk2lk,jsXX8fpC,2020-0188,2020-11-15,04:19:11,05:24:54,NA,incomplete,124,shape,1,right,Blue_Star_Stripes_2.jpg,Blue_Triangle_Dots_4.jpg,Purple_Star_Grid_3.jpg,left,712.9500000001863,false,high,NA,NA,NA,NA,NA,NA,NA,false
jsXX8fpC,3fhtjgyt9qduw7xo30k18rjdqjggpm,3jnqlm5ft8zgdc8d3vb7eqckngk2lk,jsXX8fpC,2020-0188,2020-11-15,04:19:11,05:24:54,NA,incomplete,125,shape,1,left,Red_Plus_Chess_4.jpg,Purple_Plus_Stripes_2.jpg,Red_Circle_Dots_3.jpg,left,689.4849999998696,true,high,NA,NA,NA,NA,NA,NA,NA,false
jsXX8fpC,3fhtjgyt9qduw7xo30k18rjdqjggpm,3jnqlm5ft8zgdc8d3vb7eqckngk2lk,jsXX8fpC,2020-0188,2020-11-15,04:19:11,05:24:54,NA,incomplete,126,shape,0,right,Green_Star_Grid_3.jpg,Green_Triangle_Stripes_2.jpg,Purple_Star_Chess_1.jpg,right,731.5699999998324,true,high,NA,NA,NA,NA,NA,NA,NA,false
jsXX8fpC,3fhtjgyt9qduw7xo30k18rjdqjggpm,3jnqlm5ft8zgdc8d3vb7eqckngk2lk,jsXX8fpC,2020-0188,2020-11-15,04:19:11,05:24:54,NA,incomplete,127,shape,1,left,Purple_Plus_Chess_2.jpg,Red_Plus_Grid_3.jpg,Purple_Star_Stripes_4.jpg,right,580.7050000000745,false,high,NA,NA,NA,NA,NA,NA,NA,false
jsXX8fpC,3fhtjgyt9qduw7xo30k18rjdqjggpm,3jnqlm5ft8zgdc8d3vb7eqckngk2lk,jsXX8fpC,2020-0188,2020-11-15,04:19:11,05:24:54,NA,incomplete,128,shape,1,left,Blue_Triangle_Grid_2.jpg,Green_Triangle_Chess_1.jpg,Blue_Circle_Stripes_3.jpg,right,562.2299999995157,false,high,NA,NA,NA,NA,NA,NA,NA,false
jsXX8fpC,3fhtjgyt9qduw7xo30k18rjdqjggpm,3jnqlm5ft8zgdc8d3vb7eqckngk2lk,jsXX8fpC,2020-0188,2020-11-15,04:19:11,05:24:54,NA,incomplete,129,shape,1,left,Purple_Triangle_Chess_4.jpg,Green_Triangle_Dots_1.jpg,Purple_Star_Stripes_3.jpg,left,357.06999999983236,true,high,NA,NA,NA,NA,NA,NA,NA,false
jsXX8fpC,3fhtjgyt9qduw7xo30k18rjdqjggpm,3jnqlm5ft8zgdc8d3vb7eqckngk2lk,jsXX8fpC,2020-0188,2020-11-15,04:19:11,05:24:54,NA,incomplete,130,shape,1,right,Blue_Circle_Dots_1.jpg,Blue_Triangle_Stripes_4.jpg,Red_Circle_Grid_3.jpg,left,387.6049999999814,false,high,NA,NA,NA,NA,NA,NA,NA,false
jsXX8fpC,3fhtjgyt9qduw7xo30k18rjdqjggpm,3jnqlm5ft8zgdc8d3vb7eqckngk2lk,jsXX8fpC,2020-0188,2020-11-15,04:19:11,05:24:54,NA,incomplete,131,shape,0,left,Blue_Plus_Chess_1.jpg,Red_Plus_Stripes_2.jpg,Blue_Circle_Grid_4.jpg,left,394.3950000004843,true,high,NA,NA,NA,NA,NA,NA,NA,false
jsXX8fpC,3fhtjgyt9qduw7xo30k18rjdqjggpm,3jnqlm5ft8zgdc8d3vb7eqckngk2lk,jsXX8fpC,2020-0188,2020-11-15,04:19:11,05:24:54,NA,incomplete,132,shape,1,right,Blue_Circle_Dots_3.jpg,Blue_Star_Chess_2.jpg,Purple_Circle_Grid_4.jpg,right,596.5799999996088,true,high,NA,NA,NA,NA,NA,NA,NA,false
jsXX8fpC,3fhtjgyt9qduw7xo30k18rjdqjggpm,3jnqlm5ft8zgdc8d3vb7eqckngk2lk,jsXX8fpC,2020-0188,2020-11-15,04:19:11,05:24:54,NA,incomplete,133,shape,1,right,Red_Plus_Dots_1.jpg,Red_Circle_Grid_2.jpg,Blue_Plus_Chess_3.jpg,right,438.29000000003725,true,high,NA,NA,NA,NA,NA,NA,NA,false
jsXX8fpC,3fhtjgyt9qduw7xo30k18rjdqjggpm,3jnqlm5ft8zgdc8d3vb7eqckngk2lk,jsXX8fpC,2020-0188,2020-11-15,04:19:11,05:24:54,NA,incomplete,134,shape,0,right,Purple_Plus_Dots_3.jpg,Purple_Star_Grid_4.jpg,Red_Plus_Stripes_2.jpg,right,396.8150000004098,true,high,NA,NA,NA,NA,NA,NA,NA,false
jsXX8fpC,3fhtjgyt9qduw7xo30k18rjdqjggpm,3jnqlm5ft8zgdc8d3vb7eqckngk2lk,jsXX8fpC,2020-0188,2020-11-15,04:19:11,05:24:54,NA,incomplete,135,shape,1,right,Blue_Triangle_Chess_3.jpg,Blue_Circle_Dots_1.jpg,Green_Triangle_Grid_2.jpg,left,363.59999999962747,false,high,NA,NA,NA,NA,NA,NA,NA,false
jsXX8fpC,3fhtjgyt9qduw7xo30k18rjdqjggpm,3jnqlm5ft8zgdc8d3vb7eqckngk2lk,jsXX8fpC,2020-0188,2020-11-15,04:19:11,05:24:54,NA,incomplete,136,shape,1,left,Red_Star_Stripes_3.jpg,Green_Star_Dots_4.jpg,Red_Triangle_Chess_1.jpg,right,364.6800000006333,false,high,NA,NA,NA,NA,NA,NA,NA,false
jsXX8fpC,3fhtjgyt9qduw7xo30k18rjdqjggpm,3jnqlm5ft8zgdc8d3vb7eqckngk2lk,jsXX8fpC,2020-0188,2020-11-15,04:19:11,05:24:54,NA,incomplete,137,shape,1,left,Blue_Plus_Chess_4.jpg,Purple_Plus_Dots_1.jpg,Blue_Star_Stripes_2.jpg,left,411.13500000024214,true,high,NA,NA,NA,NA,NA,NA,NA,false
jsXX8fpC,3fhtjgyt9qduw7xo30k18rjdqjggpm,3jnqlm5ft8zgdc8d3vb7eqckngk2lk,jsXX8fpC,2020-0188,2020-11-15,04:19:11,05:24:54,NA,incomplete,138,shape,1,right,Green_Plus_Chess_1.jpg,Green_Circle_Grid_2.jpg,Red_Plus_Stripes_3.jpg,left,393.7650000001304,false,high,NA,NA,NA,NA,NA,NA,NA,false
jsXX8fpC,3fhtjgyt9qduw7xo30k18rjdqjggpm,3jnqlm5ft8zgdc8d3vb7eqckngk2lk,jsXX8fpC,2020-0188,2020-11-15,04:19:11,05:24:54,NA,incomplete,139,shape,1,right,Green_Triangle_Grid_3.jpg,Green_Plus_Dots_1.jpg,Red_Triangle_Stripes_2.jpg,right,83.09500000020489,true,high,NA,NA,NA,NA,NA,NA,NA,false
jsXX8fpC,3fhtjgyt9qduw7xo30k18rjdqjggpm,3jnqlm5ft8zgdc8d3vb7eqckngk2lk,jsXX8fpC,2020-0188,2020-11-15,04:19:11,05:24:54,NA,incomplete,140,color,0,right,Red_Circle_Dots_1.jpg,Green_Circle_Stripes_2.jpg,Red_Plus_Grid_3.jpg,left,445.6450000000186,false,high,NA,NA,NA,NA,NA,NA,NA,false
jsXX8fpC,3fhtjgyt9qduw7xo30k18rjdqjggpm,3jnqlm5ft8zgdc8d3vb7eqckngk2lk,jsXX8fpC,2020-0188,2020-11-15,04:19:11,05:24:54,NA,incomplete,141,color,1,left,Red_Star_Stripes_1.jpg,Red_Plus_Chess_3.jpg,Blue_Star_Grid_2.jpg,left,400.0600000000559,true,high,NA,NA,NA,NA,NA,NA,NA,false
jsXX8fpC,3fhtjgyt9qduw7xo30k18rjdqjggpm,3jnqlm5ft8zgdc8d3vb7eqckngk2lk,jsXX8fpC,2020-0188,2020-11-15,04:19:11,05:24:54,NA,incomplete,142,color,1,left,Purple_Triangle_Chess_1.jpg,Purple_Circle_Dots_4.jpg,Blue_Triangle_Stripes_2.jpg,left,372.5649999999441,true,high,NA,NA,NA,NA,NA,NA,NA,false
jsXX8fpC,3fhtjgyt9qduw7xo30k18rjdqjggpm,3jnqlm5ft8zgdc8d3vb7eqckngk2lk,jsXX8fpC,2020-0188,2020-11-15,04:19:11,05:24:54,NA,incomplete,143,color,1,right,Red_Circle_Chess_3.jpg,Green_Circle_Dots_2.jpg,Red_Star_Grid_4.jpg,right,479.7449999996461,true,high,NA,NA,NA,NA,NA,NA,NA,false
jsXX8fpC,3fhtjgyt9qduw7xo30k18rjdqjggpm,3jnqlm5ft8zgdc8d3vb7eqckngk2lk,jsXX8fpC,2020-0188,2020-11-15,04:19:11,05:24:54,NA,incomplete,144,color,1,left,Green_Triangle_Chess_2.jpg,Green_Star_Stripes_1.jpg,Red_Triangle_Grid_3.jpg,right,548.4199999999255,false,high,NA,NA,NA,NA,NA,NA,NA,false
jsXX8fpC,3fhtjgyt9qduw7xo30k18rjdqjggpm,3jnqlm5ft8zgdc8d3vb7eqckngk2lk,jsXX8fpC,2020-0188,2020-11-15,04:19:11,05:24:54,NA,incomplete,145,color,1,left,Blue_Star_Stripes_3.jpg,Blue_Circle_Chess_2.jpg,Green_Star_Grid_1.jpg,left,516.7450000001118,true,high,NA,NA,NA,NA,NA,NA,NA,false
jsXX8fpC,3fhtjgyt9qduw7xo30k18rjdqjggpm,3jnqlm5ft8zgdc8d3vb7eqckngk2lk,jsXX8fpC,2020-0188,2020-11-15,04:19:11,05:24:54,NA,incomplete,146,color,0,right,Blue_Circle_Stripes_1.jpg,Red_Circle_Chess_3.jpg,Blue_Plus_Dots_2.jpg,right,452.9350000000559,true,high,NA,NA,NA,NA,NA,NA,NA,false
jsXX8fpC,3fhtjgyt9qduw7xo30k18rjdqjggpm,3jnqlm5ft8zgdc8d3vb7eqckngk2lk,jsXX8fpC,2020-0188,2020-11-15,04:19:11,05:24:54,NA,incomplete,147,color,1,right,Purple_Circle_Dots_1.jpg,Blue_Circle_Chess_3.jpg,Purple_Plus_Stripes_4.jpg,left,613.1350000007078,false,high,NA,NA,NA,NA,NA,NA,NA,false
jsXX8fpC,3fhtjgyt9qduw7xo30k18rjdqjggpm,3jnqlm5ft8zgdc8d3vb7eqckngk2lk,jsXX8fpC,2020-0188,2020-11-15,04:19:11,05:24:54,NA,incomplete,148,color,1,right,Blue_Triangle_Chess_1.jpg,Green_Triangle_Grid_2.jpg,Blue_Circle_Dots_3.jpg,right,580.714999999851,true,high,NA,NA,NA,NA,NA,NA,NA,false
jsXX8fpC,3fhtjgyt9qduw7xo30k18rjdqjggpm,3jnqlm5ft8zgdc8d3vb7eqckngk2lk,jsXX8fpC,2020-0188,2020-11-15,04:19:11,05:24:54,NA,incomplete,149,color,1,right,Red_Circle_Grid_3.jpg,Purple_Circle_Dots_4.jpg,Red_Triangle_Chess_1.jpg,right,469.4549999991432,true,high,NA,NA,NA,NA,NA,NA,NA,false
jsXX8fpC,3fhtjgyt9qduw7xo30k18rjdqjggpm,3jnqlm5ft8zgdc8d3vb7eqckngk2lk,jsXX8fpC,2020-0188,2020-11-15,04:19:11,05:24:54,NA,incomplete,150,color,1,right,Red_Plus_Dots_4.jpg,Blue_Plus_Stripes_2.jpg,Red_Circle_Chess_1.jpg,right,645.7700000004843,true,high,NA,NA,NA,NA,NA,NA,NA,false
jsXX8fpC,3fhtjgyt9qduw7xo30k18rjdqjggpm,3jnqlm5ft8zgdc8d3vb7eqckngk2lk,jsXX8fpC,2020-0188,2020-11-15,04:19:11,05:24:54,NA,incomplete,151,color,1,right,Blue_Triangle_Stripes_4.jpg,Purple_Triangle_Grid_1.jpg,Blue_Star_Dots_3.jpg,right,445.2500000009313,true,high,NA,NA,NA,NA,NA,NA,NA,false
jsXX8fpC,3fhtjgyt9qduw7xo30k18rjdqjggpm,3jnqlm5ft8zgdc8d3vb7eqckngk2lk,jsXX8fpC,2020-0188,2020-11-15,04:19:11,05:24:54,NA,incomplete,152,color,1,left,Purple_Star_Stripes_1.jpg,Purple_Triangle_Grid_2.jpg,Blue_Star_Dots_4.jpg,left,541.6650000000373,true,high,NA,NA,NA,NA,NA,NA,NA,false
jsXX8fpC,3fhtjgyt9qduw7xo30k18rjdqjggpm,3jnqlm5ft8zgdc8d3vb7eqckngk2lk,jsXX8fpC,2020-0188,2020-11-15,04:19:11,05:24:54,NA,incomplete,153,color,1,right,Blue_Star_Stripes_3.jpg,Purple_Star_Grid_1.jpg,Blue_Circle_Chess_2.jpg,right,421.57500000018626,true,high,NA,NA,NA,NA,NA,NA,NA,false
jsXX8fpC,3fhtjgyt9qduw7xo30k18rjdqjggpm,3jnqlm5ft8zgdc8d3vb7eqckngk2lk,jsXX8fpC,2020-0188,2020-11-15,04:19:11,05:24:54,NA,incomplete,154,color,1,left,Purple_Star_Chess_4.jpg,Purple_Plus_Dots_3.jpg,Green_Star_Stripes_1.jpg,left,432.7600000007078,true,high,NA,NA,NA,NA,NA,NA,NA,false
jsXX8fpC,3fhtjgyt9qduw7xo30k18rjdqjggpm,3jnqlm5ft8zgdc8d3vb7eqckngk2lk,jsXX8fpC,2020-0188,2020-11-15,04:19:11,05:24:54,NA,incomplete,155,color,0,right,Purple_Circle_Dots_2.jpg,Red_Circle_Grid_1.jpg,Purple_Plus_Stripes_4.jpg,right,361.5099999997765,true,high,NA,NA,NA,NA,NA,NA,NA,false
jsXX8fpC,3fhtjgyt9qduw7xo30k18rjdqjggpm,3jnqlm5ft8zgdc8d3vb7eqckngk2lk,jsXX8fpC,2020-0188,2020-11-15,04:19:11,05:24:54,NA,incomplete,156,color,1,left,Green_Triangle_Stripes_1.jpg,Green_Star_Dots_3.jpg,Red_Triangle_Chess_2.jpg,left,507.3500000005588,true,high,NA,NA,NA,NA,NA,NA,NA,false
jsXX8fpC,3fhtjgyt9qduw7xo30k18rjdqjggpm,3jnqlm5ft8zgdc8d3vb7eqckngk2lk,jsXX8fpC,2020-0188,2020-11-15,04:19:11,05:24:54,NA,incomplete,157,color,0,right,Red_Triangle_Grid_4.jpg,Green_Triangle_Dots_2.jpg,Red_Star_Stripes_1.jpg,left,545.4599999999627,false,high,NA,NA,NA,NA,NA,NA,NA,false
jsXX8fpC,3fhtjgyt9qduw7xo30k18rjdqjggpm,3jnqlm5ft8zgdc8d3vb7eqckngk2lk,jsXX8fpC,2020-0188,2020-11-15,04:19:11,05:24:54,NA,incomplete,158,color,1,left,Purple_Triangle_Grid_2.jpg,Purple_Plus_Dots_4.jpg,Green_Triangle_Chess_1.jpg,right,581.8250000001863,false,high,NA,NA,NA,NA,NA,NA,NA,false
jsXX8fpC,3fhtjgyt9qduw7xo30k18rjdqjggpm,3jnqlm5ft8zgdc8d3vb7eqckngk2lk,jsXX8fpC,2020-0188,2020-11-15,04:19:11,05:24:54,NA,incomplete,159,color,1,left,Purple_Triangle_Dots_2.jpg,Purple_Star_Stripes_3.jpg,Blue_Triangle_Chess_1.jpg,left,492.14999999990687,true,high,NA,NA,NA,NA,NA,NA,NA,false
jsXX8fpC,3fhtjgyt9qduw7xo30k18rjdqjggpm,3jnqlm5ft8zgdc8d3vb7eqckngk2lk,jsXX8fpC,2020-0188,2020-11-15,04:19:11,05:24:54,NA,incomplete,160,shape,0,left,Red_Star_Chess_2.jpg,Green_Star_Grid_4.jpg,Red_Plus_Dots_1.jpg,right,574.9949999996461,false,high,NA,NA,NA,NA,NA,NA,NA,false
jsXX8fpC,3fhtjgyt9qduw7xo30k18rjdqjggpm,3jnqlm5ft8zgdc8d3vb7eqckngk2lk,jsXX8fpC,2020-0188,2020-11-15,04:19:11,05:24:54,NA,incomplete,161,shape,1,left,Green_Circle_Stripes_2.jpg,Blue_Circle_Dots_1.jpg,Green_Plus_Grid_4.jpg,right,492.1150000002235,false,high,NA,NA,NA,NA,NA,NA,NA,false
jsXX8fpC,3fhtjgyt9qduw7xo30k18rjdqjggpm,3jnqlm5ft8zgdc8d3vb7eqckngk2lk,jsXX8fpC,2020-0188,2020-11-15,04:19:11,05:24:54,NA,incomplete,162,shape,0,left,Blue_Triangle_Dots_2.jpg,Green_Triangle_Chess_3.jpg,Blue_Star_Stripes_4.jpg,left,715.2750000008382,true,high,NA,NA,NA,NA,NA,NA,NA,false
jsXX8fpC,3fhtjgyt9qduw7xo30k18rjdqjggpm,3jnqlm5ft8zgdc8d3vb7eqckngk2lk,jsXX8fpC,2020-0188,2020-11-15,04:19:11,05:24:54,NA,incomplete,163,shape,1,left,Red_Triangle_Stripes_1.jpg,Blue_Triangle_Dots_4.jpg,Red_Circle_Chess_2.jpg,right,511.07499999925494,false,high,NA,NA,NA,NA,NA,NA,NA,false
jsXX8fpC,3fhtjgyt9qduw7xo30k18rjdqjggpm,3jnqlm5ft8zgdc8d3vb7eqckngk2lk,jsXX8fpC,2020-0188,2020-11-15,04:19:11,05:24:54,NA,incomplete,164,shape,1,right,Green_Circle_Grid_3.jpg,Green_Plus_Stripes_4.jpg,Purple_Circle_Dots_1.jpg,right,555.2099999994971,true,high,NA,NA,NA,NA,NA,NA,NA,false
jsXX8fpC,3fhtjgyt9qduw7xo30k18rjdqjggpm,3jnqlm5ft8zgdc8d3vb7eqckngk2lk,jsXX8fpC,2020-0188,2020-11-15,04:19:11,05:24:54,NA,incomplete,165,shape,1,right,Red_Triangle_Grid_3.jpg,Red_Star_Stripes_4.jpg,Purple_Triangle_Chess_1.jpg,right,348.45999999996275,true,high,NA,NA,NA,NA,NA,NA,NA,false
jsXX8fpC,3fhtjgyt9qduw7xo30k18rjdqjggpm,3jnqlm5ft8zgdc8d3vb7eqckngk2lk,jsXX8fpC,2020-0188,2020-11-15,04:19:11,05:24:54,NA,incomplete,166,shape,1,right,Purple_Plus_Stripes_3.jpg,Purple_Triangle_Chess_1.jpg,Green_Plus_Dots_4.jpg,right,317.91999999945983,true,high,NA,NA,NA,NA,NA,NA,NA,false
jsXX8fpC,3fhtjgyt9qduw7xo30k18rjdqjggpm,3jnqlm5ft8zgdc8d3vb7eqckngk2lk,jsXX8fpC,2020-0188,2020-11-15,04:19:11,05:24:54,NA,incomplete,167,shape,0,left,Purple_Circle_Stripes_3.jpg,Green_Circle_Dots_4.jpg,Purple_Plus_Chess_2.jpg,right,319.1449999990873,false,high,NA,NA,NA,NA,NA,NA,NA,false
jsXX8fpC,3fhtjgyt9qduw7xo30k18rjdqjggpm,3jnqlm5ft8zgdc8d3vb7eqckngk2lk,jsXX8fpC,2020-0188,2020-11-15,04:19:11,05:24:54,NA,incomplete,168,shape,1,left,Blue_Star_Dots_1.jpg,Green_Star_Stripes_2.jpg,Blue_Circle_Grid_3.jpg,right,308.2299999995157,false,high,NA,NA,NA,NA,NA,NA,NA,false
jsXX8fpC,3fhtjgyt9qduw7xo30k18rjdqjggpm,3jnqlm5ft8zgdc8d3vb7eqckngk2lk,jsXX8fpC,2020-0188,2020-11-15,04:19:11,05:24:54,NA,incomplete,169,shape,1,right,Blue_Triangle_Chess_2.jpg,Blue_Star_Dots_3.jpg,Green_Triangle_Grid_1.jpg,right,372.08500000089407,true,high,NA,NA,NA,NA,NA,NA,NA,false
jsXX8fpC,3fhtjgyt9qduw7xo30k18rjdqjggpm,3jnqlm5ft8zgdc8d3vb7eqckngk2lk,jsXX8fpC,2020-0188,2020-11-15,04:19:11,05:24:54,NA,incomplete,170,shape,1,left,Red_Plus_Grid_4.jpg,Purple_Plus_Dots_2.jpg,Red_Circle_Chess_1.jpg,right,307.445000000298,false,high,NA,NA,NA,NA,NA,NA,NA,false
jsXX8fpC,3fhtjgyt9qduw7xo30k18rjdqjggpm,3jnqlm5ft8zgdc8d3vb7eqckngk2lk,jsXX8fpC,2020-0188,2020-11-15,04:19:11,05:24:54,NA,incomplete,171,shape,1,left,Red_Star_Dots_4.jpg,Purple_Star_Stripes_3.jpg,Red_Circle_Chess_2.jpg,left,299.37499999953434,true,high,NA,NA,NA,NA,NA,NA,NA,false
jsXX8fpC,3fhtjgyt9qduw7xo30k18rjdqjggpm,3jnqlm5ft8zgdc8d3vb7eqckngk2lk,jsXX8fpC,2020-0188,2020-11-15,04:19:11,05:24:54,NA,incomplete,172,shape,1,right,Green_Circle_Grid_1.jpg,Green_Plus_Stripes_3.jpg,Red_Circle_Dots_4.jpg,left,308.3699999996461,false,high,NA,NA,NA,NA,NA,NA,NA,false
jsXX8fpC,3fhtjgyt9qduw7xo30k18rjdqjggpm,3jnqlm5ft8zgdc8d3vb7eqckngk2lk,jsXX8fpC,2020-0188,2020-11-15,04:19:11,05:24:54,NA,incomplete,173,shape,0,left,Red_Plus_Grid_3.jpg,Blue_Plus_Chess_1.jpg,Red_Triangle_Dots_4.jpg,left,294.26999999955297,true,high,NA,NA,NA,NA,NA,NA,NA,false
jsXX8fpC,3fhtjgyt9qduw7xo30k18rjdqjggpm,3jnqlm5ft8zgdc8d3vb7eqckngk2lk,jsXX8fpC,2020-0188,2020-11-15,04:19:11,05:24:54,NA,incomplete,174,shape,1,left,Green_Triangle_Chess_3.jpg,Purple_Triangle_Grid_1.jpg,Green_Plus_Stripes_2.jpg,right,307.25,false,high,NA,NA,NA,NA,NA,NA,NA,false
jsXX8fpC,3fhtjgyt9qduw7xo30k18rjdqjggpm,3jnqlm5ft8zgdc8d3vb7eqckngk2lk,jsXX8fpC,2020-0188,2020-11-15,04:19:11,05:24:54,NA,incomplete,175,shape,0,left,Purple_Triangle_Chess_2.jpg,Red_Triangle_Dots_4.jpg,Purple_Circle_Stripes_1.jpg,right,359.33000000054017,false,high,NA,NA,NA,NA,NA,NA,NA,false
jsXX8fpC,3fhtjgyt9qduw7xo30k18rjdqjggpm,3jnqlm5ft8zgdc8d3vb7eqckngk2lk,jsXX8fpC,2020-0188,2020-11-15,04:19:11,05:24:54,NA,incomplete,176,shape,1,right,Purple_Plus_Dots_3.jpg,Purple_Triangle_Chess_4.jpg,Green_Plus_Grid_2.jpg,right,341.1150000002235,true,high,NA,NA,NA,NA,NA,NA,NA,false
jsXX8fpC,3fhtjgyt9qduw7xo30k18rjdqjggpm,3jnqlm5ft8zgdc8d3vb7eqckngk2lk,jsXX8fpC,2020-0188,2020-11-15,04:19:11,05:24:54,NA,incomplete,177,shape,0,right,Purple_Triangle_Stripes_2.jpg,Purple_Star_Dots_3.jpg,Red_Triangle_Grid_4.jpg,right,358.3700000005774,true,high,NA,NA,NA,NA,NA,NA,NA,false
jsXX8fpC,3fhtjgyt9qduw7xo30k18rjdqjggpm,3jnqlm5ft8zgdc8d3vb7eqckngk2lk,jsXX8fpC,2020-0188,2020-11-15,04:19:11,05:24:54,NA,incomplete,178,shape,1,right,Blue_Star_Chess_3.jpg,Blue_Plus_Stripes_1.jpg,Purple_Star_Grid_4.jpg,left,370.84000000031665,false,high,NA,NA,NA,NA,NA,NA,NA,false
jsXX8fpC,3fhtjgyt9qduw7xo30k18rjdqjggpm,3jnqlm5ft8zgdc8d3vb7eqckngk2lk,jsXX8fpC,2020-0188,2020-11-15,04:19:11,05:24:54,NA,incomplete,179,shape,1,left,Red_Star_Chess_2.jpg,Purple_Star_Dots_4.jpg,Red_Plus_Stripes_3.jpg,left,303.785000000149,true,high,NA,NA,NA,NA,NA,NA,NA,false
jsXX8fpC,3fhtjgyt9qduw7xo30k18rjdqjggpm,3jnqlm5ft8zgdc8d3vb7eqckngk2lk,jsXX8fpC,2020-0188,2020-11-15,04:19:11,05:24:54,NA,incomplete,180,color,1,left,Blue_Triangle_Chess_1.jpg,Blue_Star_Stripes_3.jpg,Red_Triangle_Grid_4.jpg,left,339.69000000087544,true,high,NA,NA,NA,NA,NA,NA,NA,false
jsXX8fpC,3fhtjgyt9qduw7xo30k18rjdqjggpm,3jnqlm5ft8zgdc8d3vb7eqckngk2lk,jsXX8fpC,2020-0188,2020-11-15,04:19:11,05:24:54,NA,incomplete,181,color,1,right,Red_Star_Chess_2.jpg,Purple_Star_Dots_3.jpg,Red_Plus_Stripes_4.jpg,right,278.51000000024214,true,high,NA,NA,NA,NA,NA,NA,NA,false
jsXX8fpC,3fhtjgyt9qduw7xo30k18rjdqjggpm,3jnqlm5ft8zgdc8d3vb7eqckngk2lk,jsXX8fpC,2020-0188,2020-11-15,04:19:11,05:24:54,NA,incomplete,182,color,1,left,Green_Triangle_Chess_1.jpg,Green_Star_Dots_4.jpg,Purple_Triangle_Stripes_3.jpg,left,247.68999999994412,true,high,NA,NA,NA,NA,NA,NA,NA,false
jsXX8fpC,3fhtjgyt9qduw7xo30k18rjdqjggpm,3jnqlm5ft8zgdc8d3vb7eqckngk2lk,jsXX8fpC,2020-0188,2020-11-15,04:19:11,05:24:54,NA,incomplete,183,color,0,left,Blue_Circle_Chess_4.jpg,Blue_Plus_Dots_3.jpg,Green_Circle_Stripes_2.jpg,right,284.4949999996461,false,high,NA,NA,NA,NA,NA,NA,NA,false
jsXX8fpC,3fhtjgyt9qduw7xo30k18rjdqjggpm,3jnqlm5ft8zgdc8d3vb7eqckngk2lk,jsXX8fpC,2020-0188,2020-11-15,04:19:11,05:24:54,NA,incomplete,184,color,1,right,Green_Triangle_Grid_3.jpg,Red_Triangle_Dots_2.jpg,Green_Star_Chess_1.jpg,right,288.00000000046566,true,high,NA,NA,NA,NA,NA,NA,NA,false
jsXX8fpC,3fhtjgyt9qduw7xo30k18rjdqjggpm,3jnqlm5ft8zgdc8d3vb7eqckngk2lk,jsXX8fpC,2020-0188,2020-11-15,04:19:11,05:24:54,NA,incomplete,185,color,1,right,Blue_Triangle_Stripes_4.jpg,Purple_Triangle_Grid_3.jpg,Blue_Circle_Dots_2.jpg,left,212.1549999988638,false,high,NA,NA,NA,NA,NA,NA,NA,false
jsXX8fpC,3fhtjgyt9qduw7xo30k18rjdqjggpm,3jnqlm5ft8zgdc8d3vb7eqckngk2lk,jsXX8fpC,2020-0188,2020-11-15,04:19:11,05:24:54,NA,incomplete,186,color,0,left,Green_Plus_Chess_3.jpg,Green_Star_Dots_4.jpg,Blue_Plus_Grid_2.jpg,right,298.69499999983236,false,high,NA,NA,NA,NA,NA,NA,NA,false
jsXX8fpC,3fhtjgyt9qduw7xo30k18rjdqjggpm,3jnqlm5ft8zgdc8d3vb7eqckngk2lk,jsXX8fpC,2020-0188,2020-11-15,04:19:11,05:24:54,NA,incomplete,187,color,1,left,Blue_Circle_Dots_1.jpg,Blue_Plus_Stripes_3.jpg,Purple_Circle_Grid_4.jpg,left,383.10000000009313,true,high,NA,NA,NA,NA,NA,NA,NA,false
jsXX8fpC,3fhtjgyt9qduw7xo30k18rjdqjggpm,3jnqlm5ft8zgdc8d3vb7eqckngk2lk,jsXX8fpC,2020-0188,2020-11-15,04:19:11,05:24:54,NA,incomplete,188,color,1,right,Blue_Star_Stripes_4.jpg,Red_Star_Dots_1.jpg,Blue_Circle_Grid_2.jpg,right,315.2100000004284,true,high,NA,NA,NA,NA,NA,NA,NA,false
jsXX8fpC,3fhtjgyt9qduw7xo30k18rjdqjggpm,3jnqlm5ft8zgdc8d3vb7eqckngk2lk,jsXX8fpC,2020-0188,2020-11-15,04:19:11,05:24:54,NA,incomplete,189,color,1,right,Green_Circle_Stripes_3.jpg,Blue_Circle_Grid_1.jpg,Green_Triangle_Dots_2.jpg,right,314.8000000002794,true,high,NA,NA,NA,NA,NA,NA,NA,false
jsXX8fpC,3fhtjgyt9qduw7xo30k18rjdqjggpm,3jnqlm5ft8zgdc8d3vb7eqckngk2lk,jsXX8fpC,2020-0188,2020-11-15,04:19:11,05:24:54,NA,incomplete,190,color,1,left,Blue_Triangle_Dots_2.jpg,Blue_Plus_Chess_3.jpg,Purple_Triangle_Grid_1.jpg,right,309.6150000002235,false,high,NA,NA,NA,NA,NA,NA,NA,false
jsXX8fpC,3fhtjgyt9qduw7xo30k18rjdqjggpm,3jnqlm5ft8zgdc8d3vb7eqckngk2lk,jsXX8fpC,2020-0188,2020-11-15,04:19:11,05:24:54,NA,incomplete,191,color,1,right,Green_Circle_Chess_1.jpg,Red_Circle_Grid_2.jpg,Green_Triangle_Stripes_3.jpg,right,446.9900000002235,true,high,NA,NA,NA,NA,NA,NA,NA,false
jsXX8fpC,3fhtjgyt9qduw7xo30k18rjdqjggpm,3jnqlm5ft8zgdc8d3vb7eqckngk2lk,jsXX8fpC,2020-0188,2020-11-15,04:19:11,05:24:54,NA,incomplete,192,color,1,left,Blue_Plus_Stripes_1.jpg,Blue_Star_Dots_4.jpg,Purple_Plus_Grid_2.jpg,left,386.9799999999814,true,high,NA,NA,NA,NA,NA,NA,NA,false
jsXX8fpC,3fhtjgyt9qduw7xo30k18rjdqjggpm,3jnqlm5ft8zgdc8d3vb7eqckngk2lk,jsXX8fpC,2020-0188,2020-11-15,04:19:11,05:24:54,NA,incomplete,193,color,1,left,Blue_Star_Stripes_4.jpg,Blue_Circle_Chess_2.jpg,Green_Star_Grid_3.jpg,right,422.20499999960884,false,high,NA,NA,NA,NA,NA,NA,NA,false
jsXX8fpC,3fhtjgyt9qduw7xo30k18rjdqjggpm,3jnqlm5ft8zgdc8d3vb7eqckngk2lk,jsXX8fpC,2020-0188,2020-11-15,04:19:11,05:24:54,NA,incomplete,194,color,1,left,Blue_Circle_Dots_2.jpg,Blue_Star_Chess_3.jpg,Purple_Circle_Grid_1.jpg,left,371.39999999990687,true,high,NA,NA,NA,NA,NA,NA,NA,false
jsXX8fpC,3fhtjgyt9qduw7xo30k18rjdqjggpm,3jnqlm5ft8zgdc8d3vb7eqckngk2lk,jsXX8fpC,2020-0188,2020-11-15,04:19:11,05:24:54,NA,incomplete,195,color,1,left,Blue_Star_Grid_3.jpg,Blue_Circle_Stripes_4.jpg,Red_Star_Chess_1.jpg,left,376.4199999999255,true,high,NA,NA,NA,NA,NA,NA,NA,false
jsXX8fpC,3fhtjgyt9qduw7xo30k18rjdqjggpm,3jnqlm5ft8zgdc8d3vb7eqckngk2lk,jsXX8fpC,2020-0188,2020-11-15,04:19:11,05:24:54,NA,incomplete,196,color,1,right,Green_Star_Dots_1.jpg,Red_Star_Chess_3.jpg,Green_Circle_Grid_4.jpg,right,380.29999999981374,true,high,NA,NA,NA,NA,NA,NA,NA,false
jsXX8fpC,3fhtjgyt9qduw7xo30k18rjdqjggpm,3jnqlm5ft8zgdc8d3vb7eqckngk2lk,jsXX8fpC,2020-0188,2020-11-15,04:19:11,05:24:54,NA,incomplete,197,color,0,left,Blue_Circle_Dots_4.jpg,Blue_Plus_Grid_1.jpg,Green_Circle_Chess_2.jpg,left,425.410000000149,true,high,NA,NA,NA,NA,NA,NA,NA,false
jsXX8fpC,3fhtjgyt9qduw7xo30k18rjdqjggpm,3jnqlm5ft8zgdc8d3vb7eqckngk2lk,jsXX8fpC,2020-0188,2020-11-15,04:19:11,05:24:54,NA,incomplete,198,color,1,left,Red_Triangle_Dots_4.jpg,Red_Circle_Stripes_3.jpg,Green_Triangle_Chess_1.jpg,right,595.2649999996647,false,high,NA,NA,NA,NA,NA,NA,NA,false
jsXX8fpC,3fhtjgyt9qduw7xo30k18rjdqjggpm,3jnqlm5ft8zgdc8d3vb7eqckngk2lk,jsXX8fpC,2020-0188,2020-11-15,04:19:11,05:24:54,NA,incomplete,199,color,1,right,Red_Star_Grid_1.jpg,Green_Star_Stripes_4.jpg,Red_Triangle_Dots_2.jpg,right,632.9700000006706,true,high,NA,NA,NA,NA,NA,NA,NA,false
jsXX8fpC,3fhtjgyt9qduw7xo30k18rjdqjggpm,3jnqlm5ft8zgdc8d3vb7eqckngk2lk,jsXX8fpC,2020-0188,2020-11-15,04:19:11,05:24:54,NA,incomplete,200,shape,1,right,Purple_Star_Stripes_2.jpg,Purple_Circle_Grid_1.jpg,Blue_Star_Chess_4.jpg,left,551.9000000003725,false,high,NA,NA,NA,NA,NA,NA,NA,false
jsXX8fpC,3fhtjgyt9qduw7xo30k18rjdqjggpm,3jnqlm5ft8zgdc8d3vb7eqckngk2lk,jsXX8fpC,2020-0188,2020-11-15,04:19:11,05:24:54,NA,incomplete,201,shape,1,left,Purple_Triangle_Grid_3.jpg,Blue_Triangle_Chess_4.jpg,Purple_Star_Stripes_2.jpg,right,583.0500000002794,false,high,NA,NA,NA,NA,NA,NA,NA,false
jsXX8fpC,3fhtjgyt9qduw7xo30k18rjdqjggpm,3jnqlm5ft8zgdc8d3vb7eqckngk2lk,jsXX8fpC,2020-0188,2020-11-15,04:19:11,05:24:54,NA,incomplete,202,shape,0,right,Red_Star_Stripes_1.jpg,Red_Triangle_Chess_3.jpg,Green_Star_Dots_2.jpg,left,501.304999999702,false,high,NA,NA,NA,NA,NA,NA,NA,false
jsXX8fpC,3fhtjgyt9qduw7xo30k18rjdqjggpm,3jnqlm5ft8zgdc8d3vb7eqckngk2lk,jsXX8fpC,2020-0188,2020-11-15,04:19:11,05:24:54,NA,incomplete,203,shape,1,left,Green_Star_Stripes_4.jpg,Blue_Star_Dots_3.jpg,Green_Triangle_Chess_2.jpg,left,780.6749999998137,true,high,NA,NA,NA,NA,NA,NA,NA,false
jsXX8fpC,3fhtjgyt9qduw7xo30k18rjdqjggpm,3jnqlm5ft8zgdc8d3vb7eqckngk2lk,jsXX8fpC,2020-0188,2020-11-15,04:19:11,05:24:54,NA,incomplete,204,shape,0,right,Purple_Star_Dots_4.jpg,Purple_Plus_Grid_1.jpg,Green_Star_Stripes_3.jpg,right,509.964999999851,true,high,NA,NA,NA,NA,NA,NA,NA,false
jsXX8fpC,3fhtjgyt9qduw7xo30k18rjdqjggpm,3jnqlm5ft8zgdc8d3vb7eqckngk2lk,jsXX8fpC,2020-0188,2020-11-15,04:19:11,05:24:54,NA,incomplete,205,shape,1,left,Red_Triangle_Dots_3.jpg,Green_Triangle_Stripes_1.jpg,Red_Circle_Chess_4.jpg,right,524.8650000002235,false,high,NA,NA,NA,NA,NA,NA,NA,false
jsXX8fpC,3fhtjgyt9qduw7xo30k18rjdqjggpm,3jnqlm5ft8zgdc8d3vb7eqckngk2lk,jsXX8fpC,2020-0188,2020-11-15,04:19:11,05:24:54,NA,incomplete,206,shape,0,right,Red_Star_Chess_4.jpg,Red_Circle_Stripes_2.jpg,Green_Star_Dots_1.jpg,left,450.75500000081956,false,high,NA,NA,NA,NA,NA,NA,NA,false
jsXX8fpC,3fhtjgyt9qduw7xo30k18rjdqjggpm,3jnqlm5ft8zgdc8d3vb7eqckngk2lk,jsXX8fpC,2020-0188,2020-11-15,04:19:11,05:24:54,NA,incomplete,207,shape,1,right,Green_Circle_Grid_4.jpg,Green_Triangle_Chess_2.jpg,Blue_Circle_Dots_3.jpg,left,402.6049999999814,false,high,NA,NA,NA,NA,NA,NA,NA,false
jsXX8fpC,3fhtjgyt9qduw7xo30k18rjdqjggpm,3jnqlm5ft8zgdc8d3vb7eqckngk2lk,jsXX8fpC,2020-0188,2020-11-15,04:19:11,05:24:54,NA,incomplete,208,shape,1,left,Purple_Star_Stripes_4.jpg,Red_Star_Chess_3.jpg,Purple_Triangle_Dots_1.jpg,right,311.2449999996461,false,high,NA,NA,NA,NA,NA,NA,NA,false
jsXX8fpC,3fhtjgyt9qduw7xo30k18rjdqjggpm,3jnqlm5ft8zgdc8d3vb7eqckngk2lk,jsXX8fpC,2020-0188,2020-11-15,04:19:11,05:24:54,NA,incomplete,209,shape,1,left,Red_Star_Chess_3.jpg,Green_Star_Dots_1.jpg,Red_Triangle_Grid_2.jpg,left,224.42000000039116,true,high,NA,NA,NA,NA,NA,NA,NA,false
jsXX8fpC,3fhtjgyt9qduw7xo30k18rjdqjggpm,3jnqlm5ft8zgdc8d3vb7eqckngk2lk,jsXX8fpC,2020-0188,2020-11-15,04:19:11,05:24:54,NA,incomplete,210,shape,0,right,Green_Star_Chess_2.jpg,Green_Triangle_Dots_1.jpg,Purple_Star_Stripes_4.jpg,right,251.73499999986961,true,high,NA,NA,NA,NA,NA,NA,NA,false
jsXX8fpC,3fhtjgyt9qduw7xo30k18rjdqjggpm,3jnqlm5ft8zgdc8d3vb7eqckngk2lk,jsXX8fpC,2020-0188,2020-11-15,04:19:11,05:24:54,NA,incomplete,211,shape,1,left,Purple_Circle_Stripes_4.jpg,Green_Circle_Grid_3.jpg,Purple_Plus_Dots_2.jpg,left,473.02499999897555,true,high,NA,NA,NA,NA,NA,NA,NA,false
jsXX8fpC,3fhtjgyt9qduw7xo30k18rjdqjggpm,3jnqlm5ft8zgdc8d3vb7eqckngk2lk,jsXX8fpC,2020-0188,2020-11-15,04:19:11,05:24:54,NA,incomplete,212,shape,1,left,Blue_Circle_Chess_2.jpg,Green_Circle_Dots_4.jpg,Blue_Plus_Grid_1.jpg,right,427.7949999999255,false,high,NA,NA,NA,NA,NA,NA,NA,false
jsXX8fpC,3fhtjgyt9qduw7xo30k18rjdqjggpm,3jnqlm5ft8zgdc8d3vb7eqckngk2lk,jsXX8fpC,2020-0188,2020-11-15,04:19:11,05:24:54,NA,incomplete,213,shape,1,left,Red_Star_Grid_2.jpg,Blue_Star_Dots_3.jpg,Red_Circle_Chess_4.jpg,left,164.464999999851,true,high,NA,NA,NA,NA,NA,NA,NA,false
jsXX8fpC,3fhtjgyt9qduw7xo30k18rjdqjggpm,3jnqlm5ft8zgdc8d3vb7eqckngk2lk,jsXX8fpC,2020-0188,2020-11-15,04:19:11,05:24:54,NA,incomplete,214,shape,1,right,Green_Triangle_Dots_2.jpg,Green_Star_Grid_3.jpg,Blue_Triangle_Stripes_4.jpg,left,253.02500000037253,false,high,NA,NA,NA,NA,NA,NA,NA,false
jsXX8fpC,3fhtjgyt9qduw7xo30k18rjdqjggpm,3jnqlm5ft8zgdc8d3vb7eqckngk2lk,jsXX8fpC,2020-0188,2020-11-15,04:19:11,05:24:54,NA,incomplete,215,shape,1,right,Red_Triangle_Stripes_2.jpg,Red_Plus_Grid_3.jpg,Blue_Triangle_Dots_1.jpg,right,245.3699999996461,true,high,NA,NA,NA,NA,NA,NA,NA,false
jsXX8fpC,3fhtjgyt9qduw7xo30k18rjdqjggpm,3jnqlm5ft8zgdc8d3vb7eqckngk2lk,jsXX8fpC,2020-0188,2020-11-15,04:19:11,05:24:54,NA,incomplete,216,shape,0,right,Blue_Triangle_Dots_3.jpg,Blue_Star_Chess_4.jpg,Green_Triangle_Grid_1.jpg,right,151.35999999986961,true,high,NA,NA,NA,NA,NA,NA,NA,false
jsXX8fpC,3fhtjgyt9qduw7xo30k18rjdqjggpm,3jnqlm5ft8zgdc8d3vb7eqckngk2lk,jsXX8fpC,2020-0188,2020-11-15,04:19:11,05:24:54,NA,incomplete,217,shape,1,right,Purple_Triangle_Grid_4.jpg,Purple_Plus_Dots_3.jpg,Red_Triangle_Chess_2.jpg,right,198.6049999995157,true,high,NA,NA,NA,NA,NA,NA,NA,false
jsXX8fpC,3fhtjgyt9qduw7xo30k18rjdqjggpm,3jnqlm5ft8zgdc8d3vb7eqckngk2lk,jsXX8fpC,2020-0188,2020-11-15,04:19:11,05:24:54,NA,incomplete,218,shape,1,right,Red_Plus_Chess_3.jpg,Red_Triangle_Dots_1.jpg,Blue_Plus_Grid_2.jpg,right,174.44500000076368,true,high,NA,NA,NA,NA,NA,NA,NA,false
jsXX8fpC,3fhtjgyt9qduw7xo30k18rjdqjggpm,3jnqlm5ft8zgdc8d3vb7eqckngk2lk,jsXX8fpC,2020-0188,2020-11-15,04:19:11,05:24:54,NA,incomplete,219,shape,1,right,Purple_Triangle_Dots_4.jpg,Purple_Plus_Stripes_3.jpg,Green_Triangle_Chess_2.jpg,left,275.38500000024214,false,high,NA,NA,NA,NA,NA,NA,NA,false
jsXX8fpC,3fhtjgyt9qduw7xo30k18rjdqjggpm,3jnqlm5ft8zgdc8d3vb7eqckngk2lk,jsXX8fpC,2020-0188,2020-11-15,04:19:11,05:24:54,NA,incomplete,220,color,1,left,Red_Plus_Stripes_3.jpg,Red_Triangle_Grid_4.jpg,Blue_Plus_Dots_2.jpg,left,227.43499999959022,true,high,NA,NA,NA,NA,NA,NA,NA,false
jsXX8fpC,3fhtjgyt9qduw7xo30k18rjdqjggpm,3jnqlm5ft8zgdc8d3vb7eqckngk2lk,jsXX8fpC,2020-0188,2020-11-15,04:19:11,05:24:54,NA,incomplete,221,color,0,right,Purple_Circle_Stripes_4.jpg,Red_Circle_Grid_3.jpg,Purple_Star_Dots_2.jpg,right,318.27500000037253,true,high,NA,NA,NA,NA,NA,NA,NA,false
jsXX8fpC,3fhtjgyt9qduw7xo30k18rjdqjggpm,3jnqlm5ft8zgdc8d3vb7eqckngk2lk,jsXX8fpC,2020-0188,2020-11-15,04:19:11,05:24:54,NA,incomplete,222,color,1,left,Purple_Triangle_Dots_4.jpg,Purple_Plus_Chess_1.jpg,Red_Triangle_Grid_3.jpg,left,422.929999999702,true,high,NA,NA,NA,NA,NA,NA,NA,false
jsXX8fpC,3fhtjgyt9qduw7xo30k18rjdqjggpm,3jnqlm5ft8zgdc8d3vb7eqckngk2lk,jsXX8fpC,2020-0188,2020-11-15,04:19:11,05:24:54,NA,incomplete,223,color,1,left,Blue_Plus_Grid_2.jpg,Blue_Triangle_Dots_3.jpg,Red_Plus_Chess_1.jpg,left,367.23500000080094,true,high,NA,NA,NA,NA,NA,NA,NA,false
jsXX8fpC,3fhtjgyt9qduw7xo30k18rjdqjggpm,3jnqlm5ft8zgdc8d3vb7eqckngk2lk,jsXX8fpC,2020-0188,2020-11-15,04:19:11,05:24:54,NA,incomplete,224,color,1,right,Green_Triangle_Stripes_1.jpg,Red_Triangle_Chess_3.jpg,Green_Star_Dots_2.jpg,left,278.77499999990687,false,high,NA,NA,NA,NA,NA,NA,NA,false
jsXX8fpC,3fhtjgyt9qduw7xo30k18rjdqjggpm,3jnqlm5ft8zgdc8d3vb7eqckngk2lk,jsXX8fpC,2020-0188,2020-11-15,04:19:11,05:24:54,NA,incomplete,225,color,1,left,Purple_Star_Stripes_2.jpg,Purple_Circle_Dots_3.jpg,Green_Star_Chess_4.jpg,left,284.30500000016764,true,high,NA,NA,NA,NA,NA,NA,NA,false
jsXX8fpC,3fhtjgyt9qduw7xo30k18rjdqjggpm,3jnqlm5ft8zgdc8d3vb7eqckngk2lk,jsXX8fpC,2020-0188,2020-11-15,04:19:11,05:24:54,NA,incomplete,226,color,1,left,Purple_Circle_Chess_3.jpg,Purple_Star_Stripes_2.jpg,Green_Circle_Dots_1.jpg,right,228.67000000039116,false,high,NA,NA,NA,NA,NA,NA,NA,false
jsXX8fpC,3fhtjgyt9qduw7xo30k18rjdqjggpm,3jnqlm5ft8zgdc8d3vb7eqckngk2lk,jsXX8fpC,2020-0188,2020-11-15,04:19:11,05:24:54,NA,incomplete,227,color,1,left,Purple_Star_Chess_3.jpg,Purple_Circle_Dots_4.jpg,Red_Star_Stripes_2.jpg,right,383.99500000011176,false,high,NA,NA,NA,NA,NA,NA,NA,false
jsXX8fpC,3fhtjgyt9qduw7xo30k18rjdqjggpm,3jnqlm5ft8zgdc8d3vb7eqckngk2lk,jsXX8fpC,2020-0188,2020-11-15,04:19:11,05:24:54,NA,incomplete,228,color,1,right,Green_Triangle_Grid_1.jpg,Purple_Triangle_Stripes_4.jpg,Green_Star_Chess_3.jpg,right,400.49999999953434,true,high,NA,NA,NA,NA,NA,NA,NA,false
jsXX8fpC,3fhtjgyt9qduw7xo30k18rjdqjggpm,3jnqlm5ft8zgdc8d3vb7eqckngk2lk,jsXX8fpC,2020-0188,2020-11-15,04:19:11,05:24:54,NA,incomplete,229,color,1,left,Green_Circle_Grid_2.jpg,Green_Plus_Dots_1.jpg,Blue_Circle_Chess_3.jpg,left,460.8099999995902,true,high,NA,NA,NA,NA,NA,NA,NA,false
jsXX8fpC,3fhtjgyt9qduw7xo30k18rjdqjggpm,3jnqlm5ft8zgdc8d3vb7eqckngk2lk,jsXX8fpC,2020-0188,2020-11-15,04:19:11,05:24:54,NA,incomplete,230,color,1,right,Green_Plus_Chess_2.jpg,Red_Plus_Dots_3.jpg,Green_Triangle_Grid_1.jpg,right,203.4650000007823,true,high,NA,NA,NA,NA,NA,NA,NA,false
jsXX8fpC,3fhtjgyt9qduw7xo30k18rjdqjggpm,3jnqlm5ft8zgdc8d3vb7eqckngk2lk,jsXX8fpC,2020-0188,2020-11-15,04:19:11,05:24:54,NA,incomplete,231,color,1,right,Red_Circle_Dots_2.jpg,Purple_Circle_Chess_4.jpg,Red_Triangle_Stripes_3.jpg,left,345.65500000026077,false,high,NA,NA,NA,NA,NA,NA,NA,false
jsXX8fpC,3fhtjgyt9qduw7xo30k18rjdqjggpm,3jnqlm5ft8zgdc8d3vb7eqckngk2lk,jsXX8fpC,2020-0188,2020-11-15,04:19:11,05:24:54,NA,incomplete,232,color,0,left,Red_Triangle_Grid_3.jpg,Red_Star_Dots_2.jpg,Blue_Triangle_Stripes_4.jpg,right,307.429999999702,false,high,NA,NA,NA,NA,NA,NA,NA,false
jsXX8fpC,3fhtjgyt9qduw7xo30k18rjdqjggpm,3jnqlm5ft8zgdc8d3vb7eqckngk2lk,jsXX8fpC,2020-0188,2020-11-15,04:19:11,05:24:54,NA,incomplete,233,color,1,left,Blue_Triangle_Grid_4.jpg,Blue_Star_Stripes_1.jpg,Purple_Triangle_Dots_2.jpg,left,236.35499999998137,true,high,NA,NA,NA,NA,NA,NA,NA,false
jsXX8fpC,3fhtjgyt9qduw7xo30k18rjdqjggpm,3jnqlm5ft8zgdc8d3vb7eqckngk2lk,jsXX8fpC,2020-0188,2020-11-15,04:19:11,05:24:54,NA,incomplete,234,color,1,right,Purple_Triangle_Dots_4.jpg,Red_Triangle_Grid_3.jpg,Purple_Star_Chess_1.jpg,left,244.3950000004843,false,high,NA,NA,NA,NA,NA,NA,NA,false
jsXX8fpC,3fhtjgyt9qduw7xo30k18rjdqjggpm,3jnqlm5ft8zgdc8d3vb7eqckngk2lk,jsXX8fpC,2020-0188,2020-11-15,04:19:11,05:24:54,NA,incomplete,235,color,1,right,Green_Circle_Stripes_1.jpg,Purple_Circle_Grid_2.jpg,Green_Plus_Dots_3.jpg,right,376.2200000002049,true,high,NA,NA,NA,NA,NA,NA,NA,false
jsXX8fpC,3fhtjgyt9qduw7xo30k18rjdqjggpm,3jnqlm5ft8zgdc8d3vb7eqckngk2lk,jsXX8fpC,2020-0188,2020-11-15,04:19:11,05:24:54,NA,incomplete,236,color,1,right,Green_Triangle_Dots_4.jpg,Red_Triangle_Chess_1.jpg,Green_Circle_Stripes_2.jpg,right,349.21500000031665,true,high,NA,NA,NA,NA,NA,NA,NA,false
jsXX8fpC,3fhtjgyt9qduw7xo30k18rjdqjggpm,3jnqlm5ft8zgdc8d3vb7eqckngk2lk,jsXX8fpC,2020-0188,2020-11-15,04:19:11,05:24:54,NA,incomplete,237,color,1,right,Red_Circle_Grid_3.jpg,Green_Circle_Chess_4.jpg,Red_Star_Dots_1.jpg,right,317.10000000009313,true,high,NA,NA,NA,NA,NA,NA,NA,false
jsXX8fpC,3fhtjgyt9qduw7xo30k18rjdqjggpm,3jnqlm5ft8zgdc8d3vb7eqckngk2lk,jsXX8fpC,2020-0188,2020-11-15,04:19:11,05:24:54,NA,incomplete,238,color,1,right,Green_Star_Grid_2.jpg,Purple_Star_Chess_1.jpg,Green_Plus_Stripes_3.jpg,right,328.45000000018626,true,high,NA,NA,NA,NA,NA,NA,NA,false
jsXX8fpC,3fhtjgyt9qduw7xo30k18rjdqjggpm,3jnqlm5ft8zgdc8d3vb7eqckngk2lk,jsXX8fpC,2020-0188,2020-11-15,04:19:11,05:24:54,NA,incomplete,239,color,1,left,Red_Triangle_Dots_3.jpg,Red_Plus_Stripes_1.jpg,Purple_Triangle_Grid_2.jpg,left,340.83499999996275,true,high,NA,NA,NA,NA,NA,NA,NA,false
jsXX8fpC,3fhtjgyt9qduw7xo30k18rjdqjggpm,3jnqlm5ft8zgdc8d3vb7eqckngk2lk,jsXX8fpC,2020-0188,2020-11-15,04:19:11,05:24:54,3908163.435,3947589.5949999997,NA,NA,NA,NA,NA,NA,NA,NA,NA,NA,NA,31,Black/African American,Male,no,no,no,no,undefined
