workerId,hitId,assignmentId,subject,studyid,exp_date,exp_start,exp_end,time_start,time_end,trial,type,reward_validity,answer,image_top,image_left,image_right,response,response_time,response_acc,volatility,age,race,gender,ethnicity,color,vision,neuro,practice
K9XhWL8e,3hy86pzxq1vtv1ivc3jn7sg3anve1z,3k2755hg5wghguwxe9sqfwy4nbnfd1,K9XhWL8e,2020-0188,2020-11-15,04:48:38,05:08:17,NA,incomplete,0,filling,1,left,Red_Triangle_Stripes_3.jpg,Blue_Plus_Stripes_1.jpg,Purple_Star_Dots_3.jpg,right,1166.8449999997392,false,NA,NA,NA,NA,NA,NA,NA,NA,true
K9XhWL8e,3hy86pzxq1vtv1ivc3jn7sg3anve1z,3k2755hg5wghguwxe9sqfwy4nbnfd1,K9XhWL8e,2020-0188,2020-11-15,04:48:38,05:08:17,NA,incomplete,1,filling,1,right,Purple_Star_Grid_3.jpg,Green_Circle_Chess_3.jpg,Red_Plus_Grid_2.jpg,right,1041.0250000131782,true,NA,NA,NA,NA,NA,NA,NA,NA,true
K9XhWL8e,3hy86pzxq1vtv1ivc3jn7sg3anve1z,3k2755hg5wghguwxe9sqfwy4nbnfd1,K9XhWL8e,2020-0188,2020-11-15,04:48:38,05:08:17,NA,incomplete,2,filling,1,left,Blue_Plus_Dots_3.jpg,Green_Star_Dots_1.jpg,Purple_Circle_Stripes_3.jpg,left,859.7850000078324,true,NA,NA,NA,NA,NA,NA,NA,NA,true
K9XhWL8e,3hy86pzxq1vtv1ivc3jn7sg3anve1z,3k2755hg5wghguwxe9sqfwy4nbnfd1,K9XhWL8e,2020-0188,2020-11-15,04:48:38,05:08:17,NA,incomplete,3,filling,1,left,Red_Triangle_Dots_2.jpg,Green_Circle_Dots_3.jpg,Purple_Star_Stripes_2.jpg,left,1015.17500000773,true,NA,NA,NA,NA,NA,NA,NA,NA,true
K9XhWL8e,3hy86pzxq1vtv1ivc3jn7sg3anve1z,3k2755hg5wghguwxe9sqfwy4nbnfd1,K9XhWL8e,2020-0188,2020-11-15,04:48:38,05:08:17,NA,incomplete,4,filling,1,left,Green_Circle_Stripes_1.jpg,Purple_Star_Stripes_3.jpg,Red_Plus_Grid_1.jpg,left,988.405000010971,true,NA,NA,NA,NA,NA,NA,NA,NA,true
K9XhWL8e,3hy86pzxq1vtv1ivc3jn7sg3anve1z,3k2755hg5wghguwxe9sqfwy4nbnfd1,K9XhWL8e,2020-0188,2020-11-15,04:48:38,05:08:17,NA,incomplete,5,filling,0,left,Green_Plus_Stripes_4.jpg,Red_Star_Stripes_3.jpg,Purple_Triangle_Dots_4.jpg,left,1168.2750000036322,true,NA,NA,NA,NA,NA,NA,NA,NA,true
K9XhWL8e,3hy86pzxq1vtv1ivc3jn7sg3anve1z,3k2755hg5wghguwxe9sqfwy4nbnfd1,K9XhWL8e,2020-0188,2020-11-15,04:48:38,05:08:17,NA,incomplete,6,filling,1,right,Blue_Circle_Grid_3.jpg,Green_Star_Dots_3.jpg,Red_Triangle_Grid_1.jpg,left,942.0249999966472,false,NA,NA,NA,NA,NA,NA,NA,NA,true
K9XhWL8e,3hy86pzxq1vtv1ivc3jn7sg3anve1z,3k2755hg5wghguwxe9sqfwy4nbnfd1,K9XhWL8e,2020-0188,2020-11-15,04:48:38,05:08:17,NA,incomplete,7,filling,1,left,Blue_Triangle_Grid_3.jpg,Green_Plus_Grid_4.jpg,Red_Circle_Dots_3.jpg,left,954.1750000207685,true,NA,NA,NA,NA,NA,NA,NA,NA,true
K9XhWL8e,3hy86pzxq1vtv1ivc3jn7sg3anve1z,3k2755hg5wghguwxe9sqfwy4nbnfd1,K9XhWL8e,2020-0188,2020-11-15,04:48:38,05:08:17,NA,incomplete,8,filling,1,left,Green_Triangle_Grid_2.jpg,Blue_Star_Grid_1.jpg,Red_Circle_Chess_2.jpg,left,1125.819999986561,true,NA,NA,NA,NA,NA,NA,NA,NA,true
K9XhWL8e,3hy86pzxq1vtv1ivc3jn7sg3anve1z,3k2755hg5wghguwxe9sqfwy4nbnfd1,K9XhWL8e,2020-0188,2020-11-15,04:48:38,05:08:17,NA,incomplete,9,filling,1,right,Blue_Star_Stripes_1.jpg,Red_Plus_Chess_1.jpg,Purple_Circle_Stripes_3.jpg,right,877.3399999772664,true,NA,NA,NA,NA,NA,NA,NA,NA,true
K9XhWL8e,3hy86pzxq1vtv1ivc3jn7sg3anve1z,3k2755hg5wghguwxe9sqfwy4nbnfd1,K9XhWL8e,2020-0188,2020-11-15,04:48:38,05:08:17,NA,incomplete,10,filling,1,left,Blue_Circle_Grid_4.jpg,Red_Triangle_Grid_3.jpg,Purple_Star_Chess_4.jpg,left,919.7649999987334,true,NA,NA,NA,NA,NA,NA,NA,NA,true
K9XhWL8e,3hy86pzxq1vtv1ivc3jn7sg3anve1z,3k2755hg5wghguwxe9sqfwy4nbnfd1,K9XhWL8e,2020-0188,2020-11-15,04:48:38,05:08:17,NA,incomplete,11,filling,1,left,Green_Plus_Dots_4.jpg,Purple_Circle_Dots_1.jpg,Blue_Triangle_Stripes_4.jpg,left,879.8449999885634,true,NA,NA,NA,NA,NA,NA,NA,NA,true
K9XhWL8e,3hy86pzxq1vtv1ivc3jn7sg3anve1z,3k2755hg5wghguwxe9sqfwy4nbnfd1,K9XhWL8e,2020-0188,2020-11-15,04:48:38,05:08:17,NA,incomplete,12,filling,1,left,Blue_Circle_Grid_1.jpg,Purple_Plus_Grid_3.jpg,Green_Triangle_Stripes_1.jpg,left,1196.909999998752,true,NA,NA,NA,NA,NA,NA,NA,NA,true
K9XhWL8e,3hy86pzxq1vtv1ivc3jn7sg3anve1z,3k2755hg5wghguwxe9sqfwy4nbnfd1,K9XhWL8e,2020-0188,2020-11-15,04:48:38,05:08:17,NA,incomplete,13,filling,1,left,Purple_Triangle_Dots_1.jpg,Green_Star_Dots_4.jpg,Blue_Circle_Chess_1.jpg,left,861.9199999957345,true,NA,NA,NA,NA,NA,NA,NA,NA,true
K9XhWL8e,3hy86pzxq1vtv1ivc3jn7sg3anve1z,3k2755hg5wghguwxe9sqfwy4nbnfd1,K9XhWL8e,2020-0188,2020-11-15,04:48:38,05:08:17,NA,incomplete,14,filling,0,right,Green_Circle_Chess_2.jpg,Blue_Triangle_Dots_2.jpg,Red_Plus_Chess_4.jpg,right,1015.1699999987613,true,NA,NA,NA,NA,NA,NA,NA,NA,true
K9XhWL8e,3hy86pzxq1vtv1ivc3jn7sg3anve1z,3k2755hg5wghguwxe9sqfwy4nbnfd1,K9XhWL8e,2020-0188,2020-11-15,04:48:38,05:08:17,NA,incomplete,15,filling,1,right,Blue_Star_Grid_3.jpg,Purple_Plus_Chess_3.jpg,Red_Triangle_Grid_1.jpg,right,962.4149999872316,true,NA,NA,NA,NA,NA,NA,NA,NA,true
K9XhWL8e,3hy86pzxq1vtv1ivc3jn7sg3anve1z,3k2755hg5wghguwxe9sqfwy4nbnfd1,K9XhWL8e,2020-0188,2020-11-15,04:48:38,05:08:17,NA,incomplete,16,filling,1,left,Red_Plus_Grid_1.jpg,Green_Triangle_Grid_4.jpg,Blue_Star_Dots_1.jpg,left,1016.7850000143517,true,NA,NA,NA,NA,NA,NA,NA,NA,true
K9XhWL8e,3hy86pzxq1vtv1ivc3jn7sg3anve1z,3k2755hg5wghguwxe9sqfwy4nbnfd1,K9XhWL8e,2020-0188,2020-11-15,04:48:38,05:08:17,NA,incomplete,17,filling,0,right,Green_Circle_Chess_1.jpg,Purple_Triangle_Dots_1.jpg,Blue_Star_Chess_4.jpg,right,828.784999990603,true,NA,NA,NA,NA,NA,NA,NA,NA,true
K9XhWL8e,3hy86pzxq1vtv1ivc3jn7sg3anve1z,3k2755hg5wghguwxe9sqfwy4nbnfd1,K9XhWL8e,2020-0188,2020-11-15,04:48:38,05:08:17,NA,incomplete,18,filling,0,right,Red_Plus_Chess_4.jpg,Green_Triangle_Stripes_4.jpg,Blue_Circle_Chess_1.jpg,right,1147.644999990007,true,NA,NA,NA,NA,NA,NA,NA,NA,true
K9XhWL8e,3hy86pzxq1vtv1ivc3jn7sg3anve1z,3k2755hg5wghguwxe9sqfwy4nbnfd1,K9XhWL8e,2020-0188,2020-11-15,04:48:38,05:08:17,NA,incomplete,19,filling,0,left,Green_Plus_Stripes_3.jpg,Purple_Circle_Stripes_4.jpg,Blue_Triangle_Chess_3.jpg,right,895.0500000210013,false,NA,NA,NA,NA,NA,NA,NA,NA,true
K9XhWL8e,3hy86pzxq1vtv1ivc3jn7sg3anve1z,3k2755hg5wghguwxe9sqfwy4nbnfd1,K9XhWL8e,2020-0188,2020-11-15,04:48:38,05:08:17,NA,incomplete,20,number,1,left,Blue_Star_Dots_3.jpg,Purple_Plus_Chess_3.jpg,Red_Triangle_Dots_1.jpg,left,702.5299999804702,true,NA,NA,NA,NA,NA,NA,NA,NA,true
K9XhWL8e,3hy86pzxq1vtv1ivc3jn7sg3anve1z,3k2755hg5wghguwxe9sqfwy4nbnfd1,K9XhWL8e,2020-0188,2020-11-15,04:48:38,05:08:17,NA,incomplete,21,number,1,right,Purple_Triangle_Chess_2.jpg,Blue_Plus_Chess_3.jpg,Green_Star_Stripes_2.jpg,right,833.8249999796972,true,NA,NA,NA,NA,NA,NA,NA,NA,true
K9XhWL8e,3hy86pzxq1vtv1ivc3jn7sg3anve1z,3k2755hg5wghguwxe9sqfwy4nbnfd1,K9XhWL8e,2020-0188,2020-11-15,04:48:38,05:08:17,NA,incomplete,22,number,1,right,Red_Plus_Stripes_3.jpg,Blue_Star_Stripes_1.jpg,Green_Circle_Grid_3.jpg,right,691.4399999950547,true,NA,NA,NA,NA,NA,NA,NA,NA,true
K9XhWL8e,3hy86pzxq1vtv1ivc3jn7sg3anve1z,3k2755hg5wghguwxe9sqfwy4nbnfd1,K9XhWL8e,2020-0188,2020-11-15,04:48:38,05:08:17,NA,incomplete,23,number,1,left,Blue_Star_Grid_1.jpg,Purple_Triangle_Stripes_1.jpg,Red_Plus_Grid_4.jpg,left,651.4150000002701,true,NA,NA,NA,NA,NA,NA,NA,NA,true
K9XhWL8e,3hy86pzxq1vtv1ivc3jn7sg3anve1z,3k2755hg5wghguwxe9sqfwy4nbnfd1,K9XhWL8e,2020-0188,2020-11-15,04:48:38,05:08:17,NA,incomplete,24,number,0,left,Purple_Plus_Chess_2.jpg,Red_Triangle_Stripes_2.jpg,Green_Star_Chess_4.jpg,left,743.0649999878369,true,NA,NA,NA,NA,NA,NA,NA,NA,true
K9XhWL8e,3hy86pzxq1vtv1ivc3jn7sg3anve1z,3k2755hg5wghguwxe9sqfwy4nbnfd1,K9XhWL8e,2020-0188,2020-11-15,04:48:38,05:08:17,NA,incomplete,25,number,1,left,Green_Plus_Stripes_1.jpg,Purple_Star_Grid_1.jpg,Red_Circle_Stripes_3.jpg,left,613.325000012992,true,NA,NA,NA,NA,NA,NA,NA,NA,true
K9XhWL8e,3hy86pzxq1vtv1ivc3jn7sg3anve1z,3k2755hg5wghguwxe9sqfwy4nbnfd1,K9XhWL8e,2020-0188,2020-11-15,04:48:38,05:08:17,NA,incomplete,26,number,1,right,Red_Circle_Chess_4.jpg,Green_Star_Chess_3.jpg,Purple_Triangle_Grid_4.jpg,right,884.2600000207312,true,NA,NA,NA,NA,NA,NA,NA,NA,true
K9XhWL8e,3hy86pzxq1vtv1ivc3jn7sg3anve1z,3k2755hg5wghguwxe9sqfwy4nbnfd1,K9XhWL8e,2020-0188,2020-11-15,04:48:38,05:08:17,NA,incomplete,27,number,1,left,Purple_Circle_Grid_1.jpg,Green_Plus_Stripes_1.jpg,Blue_Triangle_Grid_3.jpg,left,709.1550000186544,true,NA,NA,NA,NA,NA,NA,NA,NA,true
K9XhWL8e,3hy86pzxq1vtv1ivc3jn7sg3anve1z,3k2755hg5wghguwxe9sqfwy4nbnfd1,K9XhWL8e,2020-0188,2020-11-15,04:48:38,05:08:17,NA,incomplete,28,number,1,left,Red_Star_Dots_2.jpg,Blue_Circle_Stripes_2.jpg,Purple_Plus_Dots_4.jpg,left,887.8499999991618,true,NA,NA,NA,NA,NA,NA,NA,NA,true
K9XhWL8e,3hy86pzxq1vtv1ivc3jn7sg3anve1z,3k2755hg5wghguwxe9sqfwy4nbnfd1,K9XhWL8e,2020-0188,2020-11-15,04:48:38,05:08:17,NA,incomplete,29,number,1,right,Purple_Plus_Chess_3.jpg,Green_Triangle_Chess_2.jpg,Red_Star_Stripes_3.jpg,right,692.8149999876041,true,NA,NA,NA,NA,NA,NA,NA,NA,true
K9XhWL8e,3hy86pzxq1vtv1ivc3jn7sg3anve1z,3k2755hg5wghguwxe9sqfwy4nbnfd1,K9XhWL8e,2020-0188,2020-11-15,04:48:38,05:08:17,NA,incomplete,30,number,1,left,Green_Plus_Stripes_1.jpg,Red_Triangle_Chess_1.jpg,Purple_Star_Stripes_4.jpg,left,576.3999999908265,true,NA,NA,NA,NA,NA,NA,NA,NA,true
K9XhWL8e,3hy86pzxq1vtv1ivc3jn7sg3anve1z,3k2755hg5wghguwxe9sqfwy4nbnfd1,K9XhWL8e,2020-0188,2020-11-15,04:48:38,05:08:17,NA,incomplete,31,number,1,left,Red_Circle_Dots_3.jpg,Purple_Triangle_Chess_3.jpg,Blue_Plus_Dots_4.jpg,left,636.9299999787472,true,NA,NA,NA,NA,NA,NA,NA,NA,true
K9XhWL8e,3hy86pzxq1vtv1ivc3jn7sg3anve1z,3k2755hg5wghguwxe9sqfwy4nbnfd1,K9XhWL8e,2020-0188,2020-11-15,04:48:38,05:08:17,NA,incomplete,32,number,1,right,Red_Star_Dots_2.jpg,Purple_Triangle_Dots_3.jpg,Green_Circle_Grid_2.jpg,right,996.4399999880698,true,NA,NA,NA,NA,NA,NA,NA,NA,true
K9XhWL8e,3hy86pzxq1vtv1ivc3jn7sg3anve1z,3k2755hg5wghguwxe9sqfwy4nbnfd1,K9XhWL8e,2020-0188,2020-11-15,04:48:38,05:08:17,NA,incomplete,33,number,1,left,Purple_Circle_Stripes_2.jpg,Blue_Star_Grid_2.jpg,Green_Plus_Stripes_4.jpg,left,650.1550000102725,true,NA,NA,NA,NA,NA,NA,NA,NA,true
K9XhWL8e,3hy86pzxq1vtv1ivc3jn7sg3anve1z,3k2755hg5wghguwxe9sqfwy4nbnfd1,K9XhWL8e,2020-0188,2020-11-15,04:48:38,05:08:17,NA,incomplete,34,number,0,left,Blue_Circle_Grid_3.jpg,Green_Plus_Stripes_3.jpg,Purple_Star_Grid_1.jpg,left,743.5750000004191,true,NA,NA,NA,NA,NA,NA,NA,NA,true
K9XhWL8e,3hy86pzxq1vtv1ivc3jn7sg3anve1z,3k2755hg5wghguwxe9sqfwy4nbnfd1,K9XhWL8e,2020-0188,2020-11-15,04:48:38,05:08:17,NA,incomplete,35,number,1,left,Blue_Star_Stripes_2.jpg,Red_Circle_Dots_2.jpg,Purple_Plus_Stripes_1.jpg,left,849.97999999905,true,NA,NA,NA,NA,NA,NA,NA,NA,true
K9XhWL8e,3hy86pzxq1vtv1ivc3jn7sg3anve1z,3k2755hg5wghguwxe9sqfwy4nbnfd1,K9XhWL8e,2020-0188,2020-11-15,04:48:38,05:08:17,NA,incomplete,36,number,1,left,Blue_Triangle_Chess_4.jpg,Purple_Star_Grid_4.jpg,Red_Plus_Chess_1.jpg,left,662.0750000001863,true,NA,NA,NA,NA,NA,NA,NA,NA,true
K9XhWL8e,3hy86pzxq1vtv1ivc3jn7sg3anve1z,3k2755hg5wghguwxe9sqfwy4nbnfd1,K9XhWL8e,2020-0188,2020-11-15,04:48:38,05:08:17,NA,incomplete,37,number,1,left,Green_Triangle_Grid_4.jpg,Red_Star_Dots_4.jpg,Purple_Plus_Grid_1.jpg,left,731.6549999814015,true,NA,NA,NA,NA,NA,NA,NA,NA,true
K9XhWL8e,3hy86pzxq1vtv1ivc3jn7sg3anve1z,3k2755hg5wghguwxe9sqfwy4nbnfd1,K9XhWL8e,2020-0188,2020-11-15,04:48:38,05:08:17,NA,incomplete,38,number,1,right,Green_Star_Chess_3.jpg,Purple_Circle_Chess_2.jpg,Red_Plus_Dots_3.jpg,right,740.0049999996554,true,NA,NA,NA,NA,NA,NA,NA,NA,true
K9XhWL8e,3hy86pzxq1vtv1ivc3jn7sg3anve1z,3k2755hg5wghguwxe9sqfwy4nbnfd1,K9XhWL8e,2020-0188,2020-11-15,04:48:38,05:08:17,NA,incomplete,39,number,0,right,Blue_Star_Grid_2.jpg,Green_Triangle_Grid_4.jpg,Red_Plus_Chess_2.jpg,right,814.7299999836832,true,NA,NA,NA,NA,NA,NA,NA,NA,true
K9XhWL8e,3hy86pzxq1vtv1ivc3jn7sg3anve1z,3k2755hg5wghguwxe9sqfwy4nbnfd1,K9XhWL8e,2020-0188,2020-11-15,04:48:38,05:08:17,NA,incomplete,0,filling,1,left,Blue_Triangle_Stripes_3.jpg,Red_Plus_Stripes_4.jpg,Green_Circle_Chess_3.jpg,right,1350.6350000097882,false,high,NA,NA,NA,NA,NA,NA,NA,false
K9XhWL8e,3hy86pzxq1vtv1ivc3jn7sg3anve1z,3k2755hg5wghguwxe9sqfwy4nbnfd1,K9XhWL8e,2020-0188,2020-11-15,04:48:38,05:08:17,NA,incomplete,1,filling,1,right,Green_Circle_Grid_4.jpg,Purple_Star_Chess_4.jpg,Blue_Plus_Grid_2.jpg,left,744.7399999946356,false,high,NA,NA,NA,NA,NA,NA,NA,false
K9XhWL8e,3hy86pzxq1vtv1ivc3jn7sg3anve1z,3k2755hg5wghguwxe9sqfwy4nbnfd1,K9XhWL8e,2020-0188,2020-11-15,04:48:38,05:08:17,NA,incomplete,2,filling,1,left,Green_Triangle_Stripes_4.jpg,Purple_Plus_Stripes_3.jpg,Blue_Star_Chess_4.jpg,right,862.0850000006612,false,high,NA,NA,NA,NA,NA,NA,NA,false
K9XhWL8e,3hy86pzxq1vtv1ivc3jn7sg3anve1z,3k2755hg5wghguwxe9sqfwy4nbnfd1,K9XhWL8e,2020-0188,2020-11-15,04:48:38,05:08:17,NA,incomplete,3,filling,1,right,Blue_Plus_Stripes_1.jpg,Green_Star_Dots_1.jpg,Purple_Triangle_Stripes_4.jpg,left,791.7799999995623,false,high,NA,NA,NA,NA,NA,NA,NA,false
K9XhWL8e,3hy86pzxq1vtv1ivc3jn7sg3anve1z,3k2755hg5wghguwxe9sqfwy4nbnfd1,K9XhWL8e,2020-0188,2020-11-15,04:48:38,05:08:17,NA,incomplete,4,filling,0,right,Purple_Circle_Stripes_3.jpg,Green_Plus_Dots_3.jpg,Blue_Star_Stripes_4.jpg,right,1048.6150000069756,true,high,NA,NA,NA,NA,NA,NA,NA,false
K9XhWL8e,3hy86pzxq1vtv1ivc3jn7sg3anve1z,3k2755hg5wghguwxe9sqfwy4nbnfd1,K9XhWL8e,2020-0188,2020-11-15,04:48:38,05:08:17,NA,incomplete,5,filling,1,right,Green_Circle_Stripes_4.jpg,Blue_Plus_Dots_4.jpg,Red_Star_Stripes_3.jpg,right,1121.4599999948405,true,high,NA,NA,NA,NA,NA,NA,NA,false
K9XhWL8e,3hy86pzxq1vtv1ivc3jn7sg3anve1z,3k2755hg5wghguwxe9sqfwy4nbnfd1,K9XhWL8e,2020-0188,2020-11-15,04:48:38,05:08:17,NA,incomplete,6,filling,1,left,Green_Star_Grid_3.jpg,Purple_Triangle_Grid_1.jpg,Blue_Circle_Dots_3.jpg,left,835.6250000069849,true,high,NA,NA,NA,NA,NA,NA,NA,false
K9XhWL8e,3hy86pzxq1vtv1ivc3jn7sg3anve1z,3k2755hg5wghguwxe9sqfwy4nbnfd1,K9XhWL8e,2020-0188,2020-11-15,04:48:38,05:08:17,NA,incomplete,7,filling,1,left,Blue_Star_Grid_3.jpg,Red_Circle_Grid_4.jpg,Green_Plus_Stripes_3.jpg,left,852.8350000269711,true,high,NA,NA,NA,NA,NA,NA,NA,false
K9XhWL8e,3hy86pzxq1vtv1ivc3jn7sg3anve1z,3k2755hg5wghguwxe9sqfwy4nbnfd1,K9XhWL8e,2020-0188,2020-11-15,04:48:38,05:08:17,NA,incomplete,8,filling,1,left,Red_Circle_Dots_2.jpg,Purple_Star_Dots_3.jpg,Green_Triangle_Grid_2.jpg,left,883.5149999940768,true,high,NA,NA,NA,NA,NA,NA,NA,false
K9XhWL8e,3hy86pzxq1vtv1ivc3jn7sg3anve1z,3k2755hg5wghguwxe9sqfwy4nbnfd1,K9XhWL8e,2020-0188,2020-11-15,04:48:38,05:08:17,NA,incomplete,9,filling,1,right,Green_Triangle_Dots_4.jpg,Red_Star_Grid_4.jpg,Purple_Circle_Dots_3.jpg,right,928.730000014184,true,high,NA,NA,NA,NA,NA,NA,NA,false
K9XhWL8e,3hy86pzxq1vtv1ivc3jn7sg3anve1z,3k2755hg5wghguwxe9sqfwy4nbnfd1,K9XhWL8e,2020-0188,2020-11-15,04:48:38,05:08:17,NA,incomplete,10,number,1,right,Blue_Star_Stripes_1.jpg,Green_Circle_Stripes_3.jpg,Red_Plus_Chess_1.jpg,left,823.2500000158325,false,high,NA,NA,NA,NA,NA,NA,NA,false
K9XhWL8e,3hy86pzxq1vtv1ivc3jn7sg3anve1z,3k2755hg5wghguwxe9sqfwy4nbnfd1,K9XhWL8e,2020-0188,2020-11-15,04:48:38,05:08:17,NA,incomplete,11,number,1,left,Blue_Circle_Grid_2.jpg,Red_Triangle_Dots_2.jpg,Green_Star_Grid_4.jpg,right,827.8399999835528,false,high,NA,NA,NA,NA,NA,NA,NA,false
K9XhWL8e,3hy86pzxq1vtv1ivc3jn7sg3anve1z,3k2755hg5wghguwxe9sqfwy4nbnfd1,K9XhWL8e,2020-0188,2020-11-15,04:48:38,05:08:17,NA,incomplete,12,number,0,right,Red_Star_Chess_1.jpg,Purple_Triangle_Chess_4.jpg,Blue_Plus_Grid_1.jpg,right,810.1199999800883,true,high,NA,NA,NA,NA,NA,NA,NA,false
K9XhWL8e,3hy86pzxq1vtv1ivc3jn7sg3anve1z,3k2755hg5wghguwxe9sqfwy4nbnfd1,K9XhWL8e,2020-0188,2020-11-15,04:48:38,05:08:17,NA,incomplete,13,number,1,left,Red_Triangle_Dots_1.jpg,Blue_Star_Chess_1.jpg,Green_Circle_Dots_3.jpg,right,1129.5500000123866,false,high,NA,NA,NA,NA,NA,NA,NA,false
K9XhWL8e,3hy86pzxq1vtv1ivc3jn7sg3anve1z,3k2755hg5wghguwxe9sqfwy4nbnfd1,K9XhWL8e,2020-0188,2020-11-15,04:48:38,05:08:17,NA,incomplete,14,number,1,right,Purple_Triangle_Dots_3.jpg,Green_Star_Dots_2.jpg,Red_Circle_Chess_3.jpg,right,920.1949999842327,true,high,NA,NA,NA,NA,NA,NA,NA,false
K9XhWL8e,3hy86pzxq1vtv1ivc3jn7sg3anve1z,3k2755hg5wghguwxe9sqfwy4nbnfd1,K9XhWL8e,2020-0188,2020-11-15,04:48:38,05:08:17,NA,incomplete,15,number,1,left,Red_Star_Chess_3.jpg,Purple_Triangle_Dots_3.jpg,Green_Circle_Chess_2.jpg,left,735.0799999840092,true,high,NA,NA,NA,NA,NA,NA,NA,false
K9XhWL8e,3hy86pzxq1vtv1ivc3jn7sg3anve1z,3k2755hg5wghguwxe9sqfwy4nbnfd1,K9XhWL8e,2020-0188,2020-11-15,04:48:38,05:08:17,NA,incomplete,16,number,1,left,Blue_Star_Dots_2.jpg,Red_Triangle_Chess_2.jpg,Green_Plus_Dots_3.jpg,left,754.2400000093039,true,high,NA,NA,NA,NA,NA,NA,NA,false
K9XhWL8e,3hy86pzxq1vtv1ivc3jn7sg3anve1z,3k2755hg5wghguwxe9sqfwy4nbnfd1,K9XhWL8e,2020-0188,2020-11-15,04:48:38,05:08:17,NA,incomplete,17,number,1,left,Purple_Plus_Chess_1.jpg,Green_Circle_Stripes_1.jpg,Blue_Triangle_Chess_3.jpg,left,678.1550000014249,true,high,NA,NA,NA,NA,NA,NA,NA,false
K9XhWL8e,3hy86pzxq1vtv1ivc3jn7sg3anve1z,3k2755hg5wghguwxe9sqfwy4nbnfd1,K9XhWL8e,2020-0188,2020-11-15,04:48:38,05:08:17,NA,incomplete,18,number,1,right,Green_Plus_Grid_3.jpg,Purple_Star_Grid_4.jpg,Blue_Circle_Stripes_3.jpg,right,1118.8200000033248,true,high,NA,NA,NA,NA,NA,NA,NA,false
K9XhWL8e,3hy86pzxq1vtv1ivc3jn7sg3anve1z,3k2755hg5wghguwxe9sqfwy4nbnfd1,K9XhWL8e,2020-0188,2020-11-15,04:48:38,05:08:17,NA,incomplete,19,number,1,right,Green_Plus_Dots_1.jpg,Purple_Triangle_Dots_4.jpg,Blue_Circle_Grid_1.jpg,right,860.5199999874458,true,high,NA,NA,NA,NA,NA,NA,NA,false
K9XhWL8e,3hy86pzxq1vtv1ivc3jn7sg3anve1z,3k2755hg5wghguwxe9sqfwy4nbnfd1,K9XhWL8e,2020-0188,2020-11-15,04:48:38,05:08:17,NA,incomplete,20,filling,1,left,Blue_Star_Grid_3.jpg,Purple_Plus_Grid_2.jpg,Green_Triangle_Stripes_3.jpg,right,838.724999979604,false,high,NA,NA,NA,NA,NA,NA,NA,false
K9XhWL8e,3hy86pzxq1vtv1ivc3jn7sg3anve1z,3k2755hg5wghguwxe9sqfwy4nbnfd1,K9XhWL8e,2020-0188,2020-11-15,04:48:38,05:08:17,NA,incomplete,21,filling,1,left,Green_Circle_Dots_4.jpg,Blue_Plus_Dots_3.jpg,Purple_Triangle_Grid_4.jpg,right,904.884999996284,false,high,NA,NA,NA,NA,NA,NA,NA,false
K9XhWL8e,3hy86pzxq1vtv1ivc3jn7sg3anve1z,3k2755hg5wghguwxe9sqfwy4nbnfd1,K9XhWL8e,2020-0188,2020-11-15,04:48:38,05:08:17,NA,incomplete,22,filling,1,right,Red_Plus_Dots_3.jpg,Blue_Star_Stripes_3.jpg,Purple_Triangle_Dots_4.jpg,right,898.3850000076927,true,high,NA,NA,NA,NA,NA,NA,NA,false
K9XhWL8e,3hy86pzxq1vtv1ivc3jn7sg3anve1z,3k2755hg5wghguwxe9sqfwy4nbnfd1,K9XhWL8e,2020-0188,2020-11-15,04:48:38,05:08:17,NA,incomplete,23,filling,1,left,Blue_Star_Chess_3.jpg,Purple_Triangle_Chess_4.jpg,Green_Circle_Grid_3.jpg,left,877.9499999945983,true,high,NA,NA,NA,NA,NA,NA,NA,false
K9XhWL8e,3hy86pzxq1vtv1ivc3jn7sg3anve1z,3k2755hg5wghguwxe9sqfwy4nbnfd1,K9XhWL8e,2020-0188,2020-11-15,04:48:38,05:08:17,NA,incomplete,24,filling,1,right,Green_Plus_Dots_2.jpg,Purple_Circle_Grid_2.jpg,Blue_Star_Dots_3.jpg,right,907.2400000004563,true,high,NA,NA,NA,NA,NA,NA,NA,false
K9XhWL8e,3hy86pzxq1vtv1ivc3jn7sg3anve1z,3k2755hg5wghguwxe9sqfwy4nbnfd1,K9XhWL8e,2020-0188,2020-11-15,04:48:38,05:08:17,NA,incomplete,25,filling,1,left,Purple_Plus_Chess_1.jpg,Green_Star_Chess_2.jpg,Red_Triangle_Grid_1.jpg,right,1109.150000003865,false,high,NA,NA,NA,NA,NA,NA,NA,false
K9XhWL8e,3hy86pzxq1vtv1ivc3jn7sg3anve1z,3k2755hg5wghguwxe9sqfwy4nbnfd1,K9XhWL8e,2020-0188,2020-11-15,04:48:38,05:08:17,NA,incomplete,26,filling,0,right,Purple_Plus_Chess_3.jpg,Blue_Triangle_Stripes_3.jpg,Green_Star_Chess_1.jpg,right,943.8899999950081,true,high,NA,NA,NA,NA,NA,NA,NA,false
K9XhWL8e,3hy86pzxq1vtv1ivc3jn7sg3anve1z,3k2755hg5wghguwxe9sqfwy4nbnfd1,K9XhWL8e,2020-0188,2020-11-15,04:48:38,05:08:17,NA,incomplete,27,filling,1,left,Purple_Plus_Grid_1.jpg,Green_Circle_Grid_3.jpg,Red_Triangle_Dots_1.jpg,right,878.2700000156183,false,high,NA,NA,NA,NA,NA,NA,NA,false
K9XhWL8e,3hy86pzxq1vtv1ivc3jn7sg3anve1z,3k2755hg5wghguwxe9sqfwy4nbnfd1,K9XhWL8e,2020-0188,2020-11-15,04:48:38,05:08:17,NA,incomplete,28,filling,1,left,Green_Plus_Grid_3.jpg,Red_Star_Grid_4.jpg,Blue_Triangle_Dots_3.jpg,left,810.975000000326,true,high,NA,NA,NA,NA,NA,NA,NA,false
K9XhWL8e,3hy86pzxq1vtv1ivc3jn7sg3anve1z,3k2755hg5wghguwxe9sqfwy4nbnfd1,K9XhWL8e,2020-0188,2020-11-15,04:48:38,05:08:17,NA,incomplete,29,filling,0,right,Green_Plus_Grid_1.jpg,Red_Circle_Chess_1.jpg,Blue_Triangle_Grid_2.jpg,right,816.7799999937415,true,high,NA,NA,NA,NA,NA,NA,NA,false
K9XhWL8e,3hy86pzxq1vtv1ivc3jn7sg3anve1z,3k2755hg5wghguwxe9sqfwy4nbnfd1,K9XhWL8e,2020-0188,2020-11-15,04:48:38,05:08:17,NA,incomplete,30,number,1,right,Green_Star_Dots_3.jpg,Purple_Triangle_Dots_2.jpg,Red_Circle_Chess_3.jpg,left,871.6849999909755,false,high,NA,NA,NA,NA,NA,NA,NA,false
K9XhWL8e,3hy86pzxq1vtv1ivc3jn7sg3anve1z,3k2755hg5wghguwxe9sqfwy4nbnfd1,K9XhWL8e,2020-0188,2020-11-15,04:48:38,05:08:17,NA,incomplete,31,number,0,right,Blue_Circle_Stripes_2.jpg,Green_Triangle_Stripes_1.jpg,Red_Plus_Chess_2.jpg,right,824.3799999763723,true,high,NA,NA,NA,NA,NA,NA,NA,false
K9XhWL8e,3hy86pzxq1vtv1ivc3jn7sg3anve1z,3k2755hg5wghguwxe9sqfwy4nbnfd1,K9XhWL8e,2020-0188,2020-11-15,04:48:38,05:08:17,NA,incomplete,32,number,0,left,Red_Triangle_Dots_3.jpg,Blue_Circle_Stripes_3.jpg,Purple_Star_Dots_1.jpg,left,745.3849999874365,true,high,NA,NA,NA,NA,NA,NA,NA,false
K9XhWL8e,3hy86pzxq1vtv1ivc3jn7sg3anve1z,3k2755hg5wghguwxe9sqfwy4nbnfd1,K9XhWL8e,2020-0188,2020-11-15,04:48:38,05:08:17,NA,incomplete,33,number,0,right,Blue_Star_Chess_1.jpg,Purple_Circle_Chess_3.jpg,Green_Plus_Dots_1.jpg,left,1026.0100000014063,false,high,NA,NA,NA,NA,NA,NA,NA,false
K9XhWL8e,3hy86pzxq1vtv1ivc3jn7sg3anve1z,3k2755hg5wghguwxe9sqfwy4nbnfd1,K9XhWL8e,2020-0188,2020-11-15,04:48:38,05:08:17,NA,incomplete,34,number,1,left,Blue_Triangle_Dots_2.jpg,Red_Star_Chess_2.jpg,Green_Plus_Dots_4.jpg,right,887.0549999992363,false,high,NA,NA,NA,NA,NA,NA,NA,false
K9XhWL8e,3hy86pzxq1vtv1ivc3jn7sg3anve1z,3k2755hg5wghguwxe9sqfwy4nbnfd1,K9XhWL8e,2020-0188,2020-11-15,04:48:38,05:08:17,NA,incomplete,35,number,1,left,Blue_Plus_Chess_3.jpg,Purple_Star_Grid_3.jpg,Red_Circle_Chess_4.jpg,right,955.2050000056624,false,high,NA,NA,NA,NA,NA,NA,NA,false
K9XhWL8e,3hy86pzxq1vtv1ivc3jn7sg3anve1z,3k2755hg5wghguwxe9sqfwy4nbnfd1,K9XhWL8e,2020-0188,2020-11-15,04:48:38,05:08:17,NA,incomplete,36,number,0,left,Red_Star_Dots_3.jpg,Purple_Triangle_Grid_3.jpg,Blue_Plus_Dots_4.jpg,left,858.8400000007823,true,high,NA,NA,NA,NA,NA,NA,NA,false
K9XhWL8e,3hy86pzxq1vtv1ivc3jn7sg3anve1z,3k2755hg5wghguwxe9sqfwy4nbnfd1,K9XhWL8e,2020-0188,2020-11-15,04:48:38,05:08:17,NA,incomplete,37,number,1,left,Red_Star_Dots_3.jpg,Green_Plus_Stripes_3.jpg,Blue_Circle_Dots_2.jpg,right,924.0450000215787,false,high,NA,NA,NA,NA,NA,NA,NA,false
K9XhWL8e,3hy86pzxq1vtv1ivc3jn7sg3anve1z,3k2755hg5wghguwxe9sqfwy4nbnfd1,K9XhWL8e,2020-0188,2020-11-15,04:48:38,05:08:17,NA,incomplete,38,number,1,left,Purple_Plus_Dots_3.jpg,Green_Circle_Stripes_3.jpg,Blue_Triangle_Dots_1.jpg,left,818.0949999950826,true,high,NA,NA,NA,NA,NA,NA,NA,false
K9XhWL8e,3hy86pzxq1vtv1ivc3jn7sg3anve1z,3k2755hg5wghguwxe9sqfwy4nbnfd1,K9XhWL8e,2020-0188,2020-11-15,04:48:38,05:08:17,NA,incomplete,39,number,1,right,Green_Circle_Dots_4.jpg,Purple_Triangle_Dots_1.jpg,Red_Star_Stripes_4.jpg,right,741.2049999984447,true,high,NA,NA,NA,NA,NA,NA,NA,false
K9XhWL8e,3hy86pzxq1vtv1ivc3jn7sg3anve1z,3k2755hg5wghguwxe9sqfwy4nbnfd1,K9XhWL8e,2020-0188,2020-11-15,04:48:38,05:08:17,NA,incomplete,40,filling,1,right,Blue_Star_Stripes_4.jpg,Red_Plus_Dots_4.jpg,Green_Triangle_Stripes_3.jpg,left,750.6249999860302,false,high,NA,NA,NA,NA,NA,NA,NA,false
K9XhWL8e,3hy86pzxq1vtv1ivc3jn7sg3anve1z,3k2755hg5wghguwxe9sqfwy4nbnfd1,K9XhWL8e,2020-0188,2020-11-15,04:48:38,05:08:17,NA,incomplete,41,filling,1,right,Red_Circle_Chess_3.jpg,Green_Star_Stripes_3.jpg,Blue_Triangle_Chess_2.jpg,left,728.3600000082515,false,high,NA,NA,NA,NA,NA,NA,NA,false
K9XhWL8e,3hy86pzxq1vtv1ivc3jn7sg3anve1z,3k2755hg5wghguwxe9sqfwy4nbnfd1,K9XhWL8e,2020-0188,2020-11-15,04:48:38,05:08:17,NA,incomplete,42,filling,1,right,Green_Triangle_Grid_4.jpg,Red_Star_Stripes_4.jpg,Purple_Plus_Grid_2.jpg,right,1044.5849999960046,true,high,NA,NA,NA,NA,NA,NA,NA,false
K9XhWL8e,3hy86pzxq1vtv1ivc3jn7sg3anve1z,3k2755hg5wghguwxe9sqfwy4nbnfd1,K9XhWL8e,2020-0188,2020-11-15,04:48:38,05:08:17,NA,incomplete,43,filling,1,left,Green_Plus_Stripes_2.jpg,Blue_Circle_Stripes_3.jpg,Purple_Star_Chess_2.jpg,left,981.2349999847356,true,high,NA,NA,NA,NA,NA,NA,NA,false
K9XhWL8e,3hy86pzxq1vtv1ivc3jn7sg3anve1z,3k2755hg5wghguwxe9sqfwy4nbnfd1,K9XhWL8e,2020-0188,2020-11-15,04:48:38,05:08:17,NA,incomplete,44,filling,0,left,Purple_Star_Chess_3.jpg,Red_Triangle_Chess_2.jpg,Blue_Circle_Stripes_3.jpg,left,900.8599999942817,true,high,NA,NA,NA,NA,NA,NA,NA,false
K9XhWL8e,3hy86pzxq1vtv1ivc3jn7sg3anve1z,3k2755hg5wghguwxe9sqfwy4nbnfd1,K9XhWL8e,2020-0188,2020-11-15,04:48:38,05:08:17,NA,incomplete,45,filling,1,left,Blue_Plus_Stripes_1.jpg,Green_Star_Stripes_4.jpg,Purple_Circle_Grid_1.jpg,left,1234.874999994645,true,high,NA,NA,NA,NA,NA,NA,NA,false
K9XhWL8e,3hy86pzxq1vtv1ivc3jn7sg3anve1z,3k2755hg5wghguwxe9sqfwy4nbnfd1,K9XhWL8e,2020-0188,2020-11-15,04:48:38,05:08:17,NA,incomplete,46,filling,1,left,Green_Plus_Chess_3.jpg,Red_Triangle_Chess_1.jpg,Purple_Star_Dots_3.jpg,left,1275.8750000211876,true,high,NA,NA,NA,NA,NA,NA,NA,false
K9XhWL8e,3hy86pzxq1vtv1ivc3jn7sg3anve1z,3k2755hg5wghguwxe9sqfwy4nbnfd1,K9XhWL8e,2020-0188,2020-11-15,04:48:38,05:08:17,NA,incomplete,47,filling,0,left,Green_Circle_Chess_4.jpg,Purple_Star_Chess_3.jpg,Red_Triangle_Dots_4.jpg,left,1238.5050000157207,true,high,NA,NA,NA,NA,NA,NA,NA,false
K9XhWL8e,3hy86pzxq1vtv1ivc3jn7sg3anve1z,3k2755hg5wghguwxe9sqfwy4nbnfd1,K9XhWL8e,2020-0188,2020-11-15,04:48:38,05:08:17,NA,incomplete,48,filling,1,right,Green_Circle_Chess_2.jpg,Blue_Plus_Dots_2.jpg,Red_Triangle_Chess_4.jpg,right,1150.8699999831151,true,high,NA,NA,NA,NA,NA,NA,NA,false
K9XhWL8e,3hy86pzxq1vtv1ivc3jn7sg3anve1z,3k2755hg5wghguwxe9sqfwy4nbnfd1,K9XhWL8e,2020-0188,2020-11-15,04:48:38,05:08:17,NA,incomplete,49,filling,1,right,Green_Plus_Dots_1.jpg,Purple_Circle_Stripes_1.jpg,Red_Star_Dots_3.jpg,right,869.3849999981467,true,high,NA,NA,NA,NA,NA,NA,NA,false
K9XhWL8e,3hy86pzxq1vtv1ivc3jn7sg3anve1z,3k2755hg5wghguwxe9sqfwy4nbnfd1,K9XhWL8e,2020-0188,2020-11-15,04:48:38,05:08:17,NA,incomplete,50,number,1,left,Red_Circle_Grid_1.jpg,Green_Triangle_Chess_1.jpg,Purple_Star_Grid_2.jpg,right,958.9599999890197,false,high,NA,NA,NA,NA,NA,NA,NA,false
K9XhWL8e,3hy86pzxq1vtv1ivc3jn7sg3anve1z,3k2755hg5wghguwxe9sqfwy4nbnfd1,K9XhWL8e,2020-0188,2020-11-15,04:48:38,05:08:17,NA,incomplete,51,number,1,right,Green_Plus_Chess_3.jpg,Purple_Triangle_Chess_4.jpg,Red_Circle_Stripes_3.jpg,left,1017.3800000047777,false,high,NA,NA,NA,NA,NA,NA,NA,false
K9XhWL8e,3hy86pzxq1vtv1ivc3jn7sg3anve1z,3k2755hg5wghguwxe9sqfwy4nbnfd1,K9XhWL8e,2020-0188,2020-11-15,04:48:38,05:08:17,NA,incomplete,52,number,1,left,Green_Star_Stripes_1.jpg,Blue_Plus_Dots_1.jpg,Red_Triangle_Stripes_3.jpg,left,792.3750000190921,true,high,NA,NA,NA,NA,NA,NA,NA,false
K9XhWL8e,3hy86pzxq1vtv1ivc3jn7sg3anve1z,3k2755hg5wghguwxe9sqfwy4nbnfd1,K9XhWL8e,2020-0188,2020-11-15,04:48:38,05:08:17,NA,incomplete,53,number,1,left,Blue_Circle_Dots_2.jpg,Red_Triangle_Chess_2.jpg,Green_Star_Dots_4.jpg,left,839.1349999874365,true,high,NA,NA,NA,NA,NA,NA,NA,false
K9XhWL8e,3hy86pzxq1vtv1ivc3jn7sg3anve1z,3k2755hg5wghguwxe9sqfwy4nbnfd1,K9XhWL8e,2020-0188,2020-11-15,04:48:38,05:08:17,NA,incomplete,54,number,1,right,Green_Triangle_Dots_2.jpg,Red_Plus_Dots_3.jpg,Purple_Star_Chess_2.jpg,right,830.5249999975786,true,high,NA,NA,NA,NA,NA,NA,NA,false
K9XhWL8e,3hy86pzxq1vtv1ivc3jn7sg3anve1z,3k2755hg5wghguwxe9sqfwy4nbnfd1,K9XhWL8e,2020-0188,2020-11-15,04:48:38,05:08:17,NA,incomplete,55,number,0,left,Blue_Star_Stripes_1.jpg,Purple_Plus_Chess_1.jpg,Red_Circle_Stripes_3.jpg,left,1027.0449999952689,true,high,NA,NA,NA,NA,NA,NA,NA,false
K9XhWL8e,3hy86pzxq1vtv1ivc3jn7sg3anve1z,3k2755hg5wghguwxe9sqfwy4nbnfd1,K9XhWL8e,2020-0188,2020-11-15,04:48:38,05:08:17,NA,incomplete,56,number,1,right,Purple_Star_Chess_2.jpg,Blue_Plus_Chess_1.jpg,Red_Circle_Stripes_2.jpg,right,930.6150000193156,true,high,NA,NA,NA,NA,NA,NA,NA,false
K9XhWL8e,3hy86pzxq1vtv1ivc3jn7sg3anve1z,3k2755hg5wghguwxe9sqfwy4nbnfd1,K9XhWL8e,2020-0188,2020-11-15,04:48:38,05:08:17,NA,incomplete,57,number,0,right,Green_Triangle_Chess_3.jpg,Red_Star_Chess_4.jpg,Purple_Plus_Grid_3.jpg,right,887.959999992745,true,high,NA,NA,NA,NA,NA,NA,NA,false
K9XhWL8e,3hy86pzxq1vtv1ivc3jn7sg3anve1z,3k2755hg5wghguwxe9sqfwy4nbnfd1,K9XhWL8e,2020-0188,2020-11-15,04:48:38,05:08:17,NA,incomplete,58,number,1,right,Blue_Star_Chess_4.jpg,Purple_Plus_Chess_2.jpg,Red_Circle_Stripes_4.jpg,right,1228.0599999940023,true,high,NA,NA,NA,NA,NA,NA,NA,false
K9XhWL8e,3hy86pzxq1vtv1ivc3jn7sg3anve1z,3k2755hg5wghguwxe9sqfwy4nbnfd1,K9XhWL8e,2020-0188,2020-11-15,04:48:38,05:08:17,NA,incomplete,59,number,1,left,Red_Triangle_Grid_3.jpg,Purple_Star_Chess_3.jpg,Green_Circle_Grid_2.jpg,left,962.7050000126474,true,high,NA,NA,NA,NA,NA,NA,NA,false
K9XhWL8e,3hy86pzxq1vtv1ivc3jn7sg3anve1z,3k2755hg5wghguwxe9sqfwy4nbnfd1,K9XhWL8e,2020-0188,2020-11-15,04:48:38,05:08:17,NA,incomplete,60,filling,1,right,Red_Circle_Grid_1.jpg,Blue_Star_Dots_1.jpg,Green_Triangle_Grid_2.jpg,left,775.6950000184588,false,high,NA,NA,NA,NA,NA,NA,NA,false
K9XhWL8e,3hy86pzxq1vtv1ivc3jn7sg3anve1z,3k2755hg5wghguwxe9sqfwy4nbnfd1,K9XhWL8e,2020-0188,2020-11-15,04:48:38,05:08:17,NA,incomplete,61,filling,0,left,Purple_Plus_Chess_3.jpg,Red_Circle_Chess_1.jpg,Green_Triangle_Dots_3.jpg,right,748.6799999896903,false,high,NA,NA,NA,NA,NA,NA,NA,false
K9XhWL8e,3hy86pzxq1vtv1ivc3jn7sg3anve1z,3k2755hg5wghguwxe9sqfwy4nbnfd1,K9XhWL8e,2020-0188,2020-11-15,04:48:38,05:08:17,NA,incomplete,62,filling,1,left,Purple_Star_Chess_1.jpg,Blue_Plus_Chess_2.jpg,Green_Triangle_Stripes_1.jpg,right,1043.5749999887776,false,high,NA,NA,NA,NA,NA,NA,NA,false
K9XhWL8e,3hy86pzxq1vtv1ivc3jn7sg3anve1z,3k2755hg5wghguwxe9sqfwy4nbnfd1,K9XhWL8e,2020-0188,2020-11-15,04:48:38,05:08:17,NA,incomplete,63,filling,1,left,Purple_Star_Stripes_2.jpg,Green_Circle_Stripes_3.jpg,Red_Triangle_Dots_2.jpg,right,1047.3050000146031,false,high,NA,NA,NA,NA,NA,NA,NA,false
K9XhWL8e,3hy86pzxq1vtv1ivc3jn7sg3anve1z,3k2755hg5wghguwxe9sqfwy4nbnfd1,K9XhWL8e,2020-0188,2020-11-15,04:48:38,05:08:17,NA,incomplete,64,filling,1,left,Purple_Plus_Stripes_1.jpg,Green_Circle_Stripes_3.jpg,Red_Star_Chess_1.jpg,left,759.7450000175741,true,high,NA,NA,NA,NA,NA,NA,NA,false
K9XhWL8e,3hy86pzxq1vtv1ivc3jn7sg3anve1z,3k2755hg5wghguwxe9sqfwy4nbnfd1,K9XhWL8e,2020-0188,2020-11-15,04:48:38,05:08:17,NA,incomplete,65,filling,1,left,Blue_Triangle_Dots_4.jpg,Purple_Plus_Dots_3.jpg,Red_Star_Grid_4.jpg,left,1018.5300000011921,true,high,NA,NA,NA,NA,NA,NA,NA,false
K9XhWL8e,3hy86pzxq1vtv1ivc3jn7sg3anve1z,3k2755hg5wghguwxe9sqfwy4nbnfd1,K9XhWL8e,2020-0188,2020-11-15,04:48:38,05:08:17,NA,incomplete,66,filling,1,left,Purple_Triangle_Dots_4.jpg,Red_Circle_Dots_1.jpg,Green_Star_Chess_4.jpg,left,958.264999993844,true,high,NA,NA,NA,NA,NA,NA,NA,false
K9XhWL8e,3hy86pzxq1vtv1ivc3jn7sg3anve1z,3k2755hg5wghguwxe9sqfwy4nbnfd1,K9XhWL8e,2020-0188,2020-11-15,04:48:38,05:08:17,NA,incomplete,67,filling,1,left,Red_Star_Stripes_2.jpg,Green_Triangle_Stripes_3.jpg,Blue_Plus_Dots_2.jpg,left,1263.9949999866076,true,high,NA,NA,NA,NA,NA,NA,NA,false
K9XhWL8e,3hy86pzxq1vtv1ivc3jn7sg3anve1z,3k2755hg5wghguwxe9sqfwy4nbnfd1,K9XhWL8e,2020-0188,2020-11-15,04:48:38,05:08:17,NA,incomplete,68,filling,1,right,Red_Star_Chess_1.jpg,Green_Triangle_Stripes_1.jpg,Purple_Plus_Chess_4.jpg,right,919.4950000091922,true,high,NA,NA,NA,NA,NA,NA,NA,false
K9XhWL8e,3hy86pzxq1vtv1ivc3jn7sg3anve1z,3k2755hg5wghguwxe9sqfwy4nbnfd1,K9XhWL8e,2020-0188,2020-11-15,04:48:38,05:08:17,NA,incomplete,69,filling,1,left,Blue_Star_Grid_2.jpg,Red_Circle_Grid_4.jpg,Green_Triangle_Chess_2.jpg,left,914.0899999765679,true,high,NA,NA,NA,NA,NA,NA,NA,false
K9XhWL8e,3hy86pzxq1vtv1ivc3jn7sg3anve1z,3k2755hg5wghguwxe9sqfwy4nbnfd1,K9XhWL8e,2020-0188,2020-11-15,04:48:38,05:08:17,NA,incomplete,70,number,1,right,Red_Plus_Stripes_1.jpg,Purple_Star_Stripes_2.jpg,Green_Triangle_Dots_1.jpg,left,949.0700000023935,false,high,NA,NA,NA,NA,NA,NA,NA,false
K9XhWL8e,3hy86pzxq1vtv1ivc3jn7sg3anve1z,3k2755hg5wghguwxe9sqfwy4nbnfd1,K9XhWL8e,2020-0188,2020-11-15,04:48:38,05:08:17,NA,incomplete,71,number,1,left,Purple_Star_Grid_4.jpg,Blue_Circle_Stripes_4.jpg,Red_Plus_Grid_2.jpg,right,1063.1200000061654,false,high,NA,NA,NA,NA,NA,NA,NA,false
K9XhWL8e,3hy86pzxq1vtv1ivc3jn7sg3anve1z,3k2755hg5wghguwxe9sqfwy4nbnfd1,K9XhWL8e,2020-0188,2020-11-15,04:48:38,05:08:17,NA,incomplete,72,number,1,right,Green_Star_Dots_2.jpg,Blue_Circle_Dots_3.jpg,Purple_Plus_Grid_2.jpg,right,830.645000009099,true,high,NA,NA,NA,NA,NA,NA,NA,false
K9XhWL8e,3hy86pzxq1vtv1ivc3jn7sg3anve1z,3k2755hg5wghguwxe9sqfwy4nbnfd1,K9XhWL8e,2020-0188,2020-11-15,04:48:38,05:08:17,NA,incomplete,73,number,1,right,Blue_Star_Stripes_2.jpg,Red_Plus_Stripes_3.jpg,Green_Triangle_Dots_2.jpg,right,705.050000018673,true,high,NA,NA,NA,NA,NA,NA,NA,false
K9XhWL8e,3hy86pzxq1vtv1ivc3jn7sg3anve1z,3k2755hg5wghguwxe9sqfwy4nbnfd1,K9XhWL8e,2020-0188,2020-11-15,04:48:38,05:08:17,NA,incomplete,74,number,1,right,Blue_Star_Stripes_2.jpg,Green_Plus_Stripes_1.jpg,Red_Triangle_Chess_2.jpg,right,690.3299999830779,true,high,NA,NA,NA,NA,NA,NA,NA,false
K9XhWL8e,3hy86pzxq1vtv1ivc3jn7sg3anve1z,3k2755hg5wghguwxe9sqfwy4nbnfd1,K9XhWL8e,2020-0188,2020-11-15,04:48:38,05:08:17,NA,incomplete,75,number,0,left,Blue_Triangle_Dots_2.jpg,Green_Circle_Grid_2.jpg,Purple_Star_Dots_4.jpg,left,999.7350000194274,true,high,NA,NA,NA,NA,NA,NA,NA,false
K9XhWL8e,3hy86pzxq1vtv1ivc3jn7sg3anve1z,3k2755hg5wghguwxe9sqfwy4nbnfd1,K9XhWL8e,2020-0188,2020-11-15,04:48:38,05:08:17,NA,incomplete,76,number,1,right,Green_Triangle_Grid_1.jpg,Red_Circle_Grid_2.jpg,Purple_Plus_Chess_1.jpg,right,858.8049999962095,true,high,NA,NA,NA,NA,NA,NA,NA,false
K9XhWL8e,3hy86pzxq1vtv1ivc3jn7sg3anve1z,3k2755hg5wghguwxe9sqfwy4nbnfd1,K9XhWL8e,2020-0188,2020-11-15,04:48:38,05:08:17,NA,incomplete,77,number,1,right,Green_Star_Grid_2.jpg,Blue_Triangle_Grid_4.jpg,Red_Circle_Dots_2.jpg,right,850.2250000019558,true,high,NA,NA,NA,NA,NA,NA,NA,false
K9XhWL8e,3hy86pzxq1vtv1ivc3jn7sg3anve1z,3k2755hg5wghguwxe9sqfwy4nbnfd1,K9XhWL8e,2020-0188,2020-11-15,04:48:38,05:08:17,NA,incomplete,78,number,0,right,Purple_Circle_Dots_1.jpg,Blue_Star_Dots_4.jpg,Green_Plus_Chess_1.jpg,right,768.5500000079628,true,high,NA,NA,NA,NA,NA,NA,NA,false
K9XhWL8e,3hy86pzxq1vtv1ivc3jn7sg3anve1z,3k2755hg5wghguwxe9sqfwy4nbnfd1,K9XhWL8e,2020-0188,2020-11-15,04:48:38,05:08:17,NA,incomplete,79,number,1,left,Blue_Plus_Stripes_3.jpg,Green_Circle_Dots_3.jpg,Red_Star_Stripes_2.jpg,left,976.779999997234,true,high,NA,NA,NA,NA,NA,NA,NA,false
K9XhWL8e,3hy86pzxq1vtv1ivc3jn7sg3anve1z,3k2755hg5wghguwxe9sqfwy4nbnfd1,K9XhWL8e,2020-0188,2020-11-15,04:48:38,05:08:17,NA,incomplete,80,filling,1,right,Blue_Circle_Dots_2.jpg,Red_Triangle_Grid_2.jpg,Green_Star_Dots_4.jpg,left,835.1200000033714,false,high,NA,NA,NA,NA,NA,NA,NA,false
K9XhWL8e,3hy86pzxq1vtv1ivc3jn7sg3anve1z,3k2755hg5wghguwxe9sqfwy4nbnfd1,K9XhWL8e,2020-0188,2020-11-15,04:48:38,05:08:17,NA,incomplete,81,filling,0,right,Blue_Triangle_Grid_2.jpg,Green_Star_Dots_2.jpg,Purple_Circle_Grid_3.jpg,left,760.5399999883957,false,high,NA,NA,NA,NA,NA,NA,NA,false
K9XhWL8e,3hy86pzxq1vtv1ivc3jn7sg3anve1z,3k2755hg5wghguwxe9sqfwy4nbnfd1,K9XhWL8e,2020-0188,2020-11-15,04:48:38,05:08:17,NA,incomplete,82,filling,1,right,Green_Circle_Chess_4.jpg,Purple_Triangle_Grid_4.jpg,Red_Star_Chess_3.jpg,left,876.7099999822676,false,high,NA,NA,NA,NA,NA,NA,NA,false
K9XhWL8e,3hy86pzxq1vtv1ivc3jn7sg3anve1z,3k2755hg5wghguwxe9sqfwy4nbnfd1,K9XhWL8e,2020-0188,2020-11-15,04:48:38,05:08:17,NA,incomplete,83,filling,1,left,Green_Triangle_Stripes_2.jpg,Red_Star_Stripes_3.jpg,Purple_Circle_Dots_2.jpg,right,883.9550000266172,false,high,NA,NA,NA,NA,NA,NA,NA,false
K9XhWL8e,3hy86pzxq1vtv1ivc3jn7sg3anve1z,3k2755hg5wghguwxe9sqfwy4nbnfd1,K9XhWL8e,2020-0188,2020-11-15,04:48:38,05:08:17,NA,incomplete,84,filling,1,left,Blue_Triangle_Grid_2.jpg,Purple_Circle_Grid_1.jpg,Green_Star_Dots_2.jpg,left,1081.91499998793,true,high,NA,NA,NA,NA,NA,NA,NA,false
K9XhWL8e,3hy86pzxq1vtv1ivc3jn7sg3anve1z,3k2755hg5wghguwxe9sqfwy4nbnfd1,K9XhWL8e,2020-0188,2020-11-15,04:48:38,05:08:17,NA,incomplete,85,filling,1,left,Red_Circle_Grid_1.jpg,Green_Triangle_Grid_2.jpg,Blue_Plus_Stripes_1.jpg,right,973.5400000063237,false,high,NA,NA,NA,NA,NA,NA,NA,false
K9XhWL8e,3hy86pzxq1vtv1ivc3jn7sg3anve1z,3k2755hg5wghguwxe9sqfwy4nbnfd1,K9XhWL8e,2020-0188,2020-11-15,04:48:38,05:08:17,NA,incomplete,86,filling,1,right,Blue_Star_Dots_4.jpg,Green_Plus_Grid_4.jpg,Purple_Triangle_Dots_1.jpg,right,924.5349999982864,true,high,NA,NA,NA,NA,NA,NA,NA,false
K9XhWL8e,3hy86pzxq1vtv1ivc3jn7sg3anve1z,3k2755hg5wghguwxe9sqfwy4nbnfd1,K9XhWL8e,2020-0188,2020-11-15,04:48:38,05:08:17,NA,incomplete,87,filling,0,left,Blue_Plus_Stripes_2.jpg,Purple_Star_Stripes_3.jpg,Green_Triangle_Dots_2.jpg,left,995.8650000044145,true,high,NA,NA,NA,NA,NA,NA,NA,false
K9XhWL8e,3hy86pzxq1vtv1ivc3jn7sg3anve1z,3k2755hg5wghguwxe9sqfwy4nbnfd1,K9XhWL8e,2020-0188,2020-11-15,04:48:38,05:08:17,NA,incomplete,88,filling,0,left,Blue_Circle_Chess_4.jpg,Red_Star_Chess_2.jpg,Green_Plus_Stripes_4.jpg,left,897.1749999909662,true,high,NA,NA,NA,NA,NA,NA,NA,false
K9XhWL8e,3hy86pzxq1vtv1ivc3jn7sg3anve1z,3k2755hg5wghguwxe9sqfwy4nbnfd1,K9XhWL8e,2020-0188,2020-11-15,04:48:38,05:08:17,NA,incomplete,89,filling,1,right,Blue_Triangle_Dots_1.jpg,Red_Star_Chess_1.jpg,Purple_Plus_Dots_4.jpg,left,776.4500000048429,false,high,NA,NA,NA,NA,NA,NA,NA,false
K9XhWL8e,3hy86pzxq1vtv1ivc3jn7sg3anve1z,3k2755hg5wghguwxe9sqfwy4nbnfd1,K9XhWL8e,2020-0188,2020-11-15,04:48:38,05:08:17,NA,incomplete,90,number,1,left,Red_Circle_Chess_4.jpg,Green_Star_Grid_4.jpg,Blue_Plus_Chess_2.jpg,left,902.4799999897368,true,high,NA,NA,NA,NA,NA,NA,NA,false
K9XhWL8e,3hy86pzxq1vtv1ivc3jn7sg3anve1z,3k2755hg5wghguwxe9sqfwy4nbnfd1,K9XhWL8e,2020-0188,2020-11-15,04:48:38,05:08:17,NA,incomplete,91,number,0,left,Green_Star_Dots_1.jpg,Red_Circle_Stripes_1.jpg,Purple_Plus_Dots_3.jpg,left,762.8350000013597,true,high,NA,NA,NA,NA,NA,NA,NA,false
K9XhWL8e,3hy86pzxq1vtv1ivc3jn7sg3anve1z,3k2755hg5wghguwxe9sqfwy4nbnfd1,K9XhWL8e,2020-0188,2020-11-15,04:48:38,05:08:17,NA,incomplete,92,number,1,left,Green_Circle_Grid_2.jpg,Red_Star_Chess_2.jpg,Purple_Plus_Grid_1.jpg,left,806.4650000014808,true,high,NA,NA,NA,NA,NA,NA,NA,false
K9XhWL8e,3hy86pzxq1vtv1ivc3jn7sg3anve1z,3k2755hg5wghguwxe9sqfwy4nbnfd1,K9XhWL8e,2020-0188,2020-11-15,04:48:38,05:08:17,NA,incomplete,93,number,1,left,Red_Star_Stripes_2.jpg,Purple_Circle_Grid_2.jpg,Blue_Triangle_Stripes_1.jpg,left,810.7350000063889,true,high,NA,NA,NA,NA,NA,NA,NA,false
K9XhWL8e,3hy86pzxq1vtv1ivc3jn7sg3anve1z,3k2755hg5wghguwxe9sqfwy4nbnfd1,K9XhWL8e,2020-0188,2020-11-15,04:48:38,05:08:17,NA,incomplete,94,number,1,left,Purple_Circle_Stripes_1.jpg,Green_Star_Dots_1.jpg,Blue_Triangle_Stripes_3.jpg,left,862.9800000053365,true,high,NA,NA,NA,NA,NA,NA,NA,false
K9XhWL8e,3hy86pzxq1vtv1ivc3jn7sg3anve1z,3k2755hg5wghguwxe9sqfwy4nbnfd1,K9XhWL8e,2020-0188,2020-11-15,04:48:38,05:08:17,NA,incomplete,95,number,1,right,Blue_Star_Dots_4.jpg,Green_Circle_Dots_3.jpg,Purple_Plus_Chess_4.jpg,right,1108.2900000037625,true,high,NA,NA,NA,NA,NA,NA,NA,false
K9XhWL8e,3hy86pzxq1vtv1ivc3jn7sg3anve1z,3k2755hg5wghguwxe9sqfwy4nbnfd1,K9XhWL8e,2020-0188,2020-11-15,04:48:38,05:08:17,NA,incomplete,96,number,1,right,Red_Plus_Stripes_1.jpg,Green_Circle_Stripes_2.jpg,Blue_Triangle_Chess_1.jpg,right,977.9649999982212,true,high,NA,NA,NA,NA,NA,NA,NA,false
K9XhWL8e,3hy86pzxq1vtv1ivc3jn7sg3anve1z,3k2755hg5wghguwxe9sqfwy4nbnfd1,K9XhWL8e,2020-0188,2020-11-15,04:48:38,05:08:17,NA,incomplete,97,number,0,right,Red_Plus_Chess_4.jpg,Purple_Circle_Chess_3.jpg,Blue_Star_Dots_4.jpg,right,860.2350000001024,true,high,NA,NA,NA,NA,NA,NA,NA,false
K9XhWL8e,3hy86pzxq1vtv1ivc3jn7sg3anve1z,3k2755hg5wghguwxe9sqfwy4nbnfd1,K9XhWL8e,2020-0188,2020-11-15,04:48:38,05:08:17,NA,incomplete,98,number,1,right,Blue_Star_Dots_1.jpg,Purple_Circle_Dots_2.jpg,Green_Triangle_Stripes_1.jpg,right,815.7449999998789,true,high,NA,NA,NA,NA,NA,NA,NA,false
K9XhWL8e,3hy86pzxq1vtv1ivc3jn7sg3anve1z,3k2755hg5wghguwxe9sqfwy4nbnfd1,K9XhWL8e,2020-0188,2020-11-15,04:48:38,05:08:17,NA,incomplete,99,number,1,right,Purple_Triangle_Stripes_4.jpg,Blue_Circle_Stripes_1.jpg,Green_Star_Grid_4.jpg,right,752.8349999920465,true,high,NA,NA,NA,NA,NA,NA,NA,false
K9XhWL8e,3hy86pzxq1vtv1ivc3jn7sg3anve1z,3k2755hg5wghguwxe9sqfwy4nbnfd1,K9XhWL8e,2020-0188,2020-11-15,04:48:38,05:08:17,NA,incomplete,100,filling,1,right,Green_Circle_Dots_4.jpg,Purple_Plus_Chess_4.jpg,Red_Star_Dots_3.jpg,left,748.5649999871384,false,high,NA,NA,NA,NA,NA,NA,NA,false
K9XhWL8e,3hy86pzxq1vtv1ivc3jn7sg3anve1z,3k2755hg5wghguwxe9sqfwy4nbnfd1,K9XhWL8e,2020-0188,2020-11-15,04:48:38,05:08:17,NA,incomplete,101,filling,1,right,Green_Star_Chess_4.jpg,Blue_Triangle_Stripes_4.jpg,Red_Plus_Chess_3.jpg,left,1041.0850000043865,false,high,NA,NA,NA,NA,NA,NA,NA,false
K9XhWL8e,3hy86pzxq1vtv1ivc3jn7sg3anve1z,3k2755hg5wghguwxe9sqfwy4nbnfd1,K9XhWL8e,2020-0188,2020-11-15,04:48:38,05:08:17,NA,incomplete,102,filling,1,right,Blue_Circle_Dots_3.jpg,Red_Star_Grid_3.jpg,Green_Plus_Dots_4.jpg,right,944.3350000074133,true,high,NA,NA,NA,NA,NA,NA,NA,false
K9XhWL8e,3hy86pzxq1vtv1ivc3jn7sg3anve1z,3k2755hg5wghguwxe9sqfwy4nbnfd1,K9XhWL8e,2020-0188,2020-11-15,04:48:38,05:08:17,NA,incomplete,103,filling,1,right,Purple_Plus_Dots_4.jpg,Green_Triangle_Chess_4.jpg,Blue_Star_Dots_2.jpg,right,973.3549999946263,true,high,NA,NA,NA,NA,NA,NA,NA,false
K9XhWL8e,3hy86pzxq1vtv1ivc3jn7sg3anve1z,3k2755hg5wghguwxe9sqfwy4nbnfd1,K9XhWL8e,2020-0188,2020-11-15,04:48:38,05:08:17,NA,incomplete,104,filling,1,left,Red_Triangle_Chess_3.jpg,Purple_Circle_Chess_2.jpg,Blue_Star_Dots_3.jpg,left,898.8250000111293,true,high,NA,NA,NA,NA,NA,NA,NA,false
K9XhWL8e,3hy86pzxq1vtv1ivc3jn7sg3anve1z,3k2755hg5wghguwxe9sqfwy4nbnfd1,K9XhWL8e,2020-0188,2020-11-15,04:48:38,05:08:17,NA,incomplete,105,filling,1,right,Green_Plus_Dots_2.jpg,Red_Triangle_Stripes_2.jpg,Blue_Star_Dots_3.jpg,right,1088.179999991553,true,high,NA,NA,NA,NA,NA,NA,NA,false
K9XhWL8e,3hy86pzxq1vtv1ivc3jn7sg3anve1z,3k2755hg5wghguwxe9sqfwy4nbnfd1,K9XhWL8e,2020-0188,2020-11-15,04:48:38,05:08:17,NA,incomplete,106,filling,1,right,Blue_Triangle_Stripes_2.jpg,Green_Circle_Grid_2.jpg,Red_Plus_Stripes_3.jpg,right,945.7200000179,true,high,NA,NA,NA,NA,NA,NA,NA,false
K9XhWL8e,3hy86pzxq1vtv1ivc3jn7sg3anve1z,3k2755hg5wghguwxe9sqfwy4nbnfd1,K9XhWL8e,2020-0188,2020-11-15,04:48:38,05:08:17,NA,incomplete,107,filling,0,left,Green_Triangle_Dots_4.jpg,Purple_Circle_Dots_3.jpg,Blue_Star_Chess_4.jpg,left,973.1599999940954,true,high,NA,NA,NA,NA,NA,NA,NA,false
K9XhWL8e,3hy86pzxq1vtv1ivc3jn7sg3anve1z,3k2755hg5wghguwxe9sqfwy4nbnfd1,K9XhWL8e,2020-0188,2020-11-15,04:48:38,05:08:17,NA,incomplete,108,filling,1,right,Green_Star_Chess_1.jpg,Red_Triangle_Dots_1.jpg,Blue_Plus_Chess_2.jpg,right,1367.5100000109524,true,high,NA,NA,NA,NA,NA,NA,NA,false
K9XhWL8e,3hy86pzxq1vtv1ivc3jn7sg3anve1z,3k2755hg5wghguwxe9sqfwy4nbnfd1,K9XhWL8e,2020-0188,2020-11-15,04:48:38,05:08:17,NA,incomplete,109,filling,1,right,Green_Circle_Chess_4.jpg,Purple_Plus_Grid_4.jpg,Red_Triangle_Chess_2.jpg,right,868.7900000077207,true,high,NA,NA,NA,NA,NA,NA,NA,false
K9XhWL8e,3hy86pzxq1vtv1ivc3jn7sg3anve1z,3k2755hg5wghguwxe9sqfwy4nbnfd1,K9XhWL8e,2020-0188,2020-11-15,04:48:38,05:08:17,NA,incomplete,110,number,1,left,Red_Star_Grid_4.jpg,Purple_Circle_Chess_4.jpg,Blue_Triangle_Grid_1.jpg,right,1098.5750000108965,false,high,NA,NA,NA,NA,NA,NA,NA,false
K9XhWL8e,3hy86pzxq1vtv1ivc3jn7sg3anve1z,3k2755hg5wghguwxe9sqfwy4nbnfd1,K9XhWL8e,2020-0188,2020-11-15,04:48:38,05:08:17,NA,incomplete,111,number,0,left,Blue_Plus_Chess_3.jpg,Green_Triangle_Grid_3.jpg,Red_Circle_Chess_4.jpg,left,1014.3500000122003,true,high,NA,NA,NA,NA,NA,NA,NA,false
K9XhWL8e,3hy86pzxq1vtv1ivc3jn7sg3anve1z,3k2755hg5wghguwxe9sqfwy4nbnfd1,K9XhWL8e,2020-0188,2020-11-15,04:48:38,05:08:17,NA,incomplete,112,number,1,right,Red_Circle_Chess_2.jpg,Purple_Plus_Chess_1.jpg,Blue_Star_Dots_2.jpg,left,1247.1649999788497,false,high,NA,NA,NA,NA,NA,NA,NA,false
K9XhWL8e,3hy86pzxq1vtv1ivc3jn7sg3anve1z,3k2755hg5wghguwxe9sqfwy4nbnfd1,K9XhWL8e,2020-0188,2020-11-15,04:48:38,05:08:17,NA,incomplete,113,number,0,left,Green_Triangle_Grid_2.jpg,Red_Star_Chess_2.jpg,Purple_Circle_Grid_3.jpg,left,1137.2499999997672,true,high,NA,NA,NA,NA,NA,NA,NA,false
K9XhWL8e,3hy86pzxq1vtv1ivc3jn7sg3anve1z,3k2755hg5wghguwxe9sqfwy4nbnfd1,K9XhWL8e,2020-0188,2020-11-15,04:48:38,05:08:17,NA,incomplete,114,number,0,right,Red_Circle_Dots_2.jpg,Green_Triangle_Dots_3.jpg,Blue_Plus_Grid_2.jpg,left,1125.6500000017695,false,high,NA,NA,NA,NA,NA,NA,NA,false
K9XhWL8e,3hy86pzxq1vtv1ivc3jn7sg3anve1z,3k2755hg5wghguwxe9sqfwy4nbnfd1,K9XhWL8e,2020-0188,2020-11-15,04:48:38,05:08:17,NA,incomplete,115,number,1,left,Blue_Star_Grid_4.jpg,Red_Plus_Dots_4.jpg,Purple_Triangle_Grid_3.jpg,right,1007.4150000000373,false,high,NA,NA,NA,NA,NA,NA,NA,false
K9XhWL8e,3hy86pzxq1vtv1ivc3jn7sg3anve1z,3k2755hg5wghguwxe9sqfwy4nbnfd1,K9XhWL8e,2020-0188,2020-11-15,04:48:38,05:08:17,NA,incomplete,116,number,1,left,Green_Triangle_Grid_2.jpg,Red_Circle_Dots_2.jpg,Blue_Star_Grid_4.jpg,right,1025.4150000109803,false,high,NA,NA,NA,NA,NA,NA,NA,false
K9XhWL8e,3hy86pzxq1vtv1ivc3jn7sg3anve1z,3k2755hg5wghguwxe9sqfwy4nbnfd1,K9XhWL8e,2020-0188,2020-11-15,04:48:38,05:08:17,NA,incomplete,117,number,1,right,Green_Circle_Stripes_3.jpg,Purple_Triangle_Stripes_1.jpg,Red_Star_Grid_3.jpg,right,899.2350000189617,true,high,NA,NA,NA,NA,NA,NA,NA,false
K9XhWL8e,3hy86pzxq1vtv1ivc3jn7sg3anve1z,3k2755hg5wghguwxe9sqfwy4nbnfd1,K9XhWL8e,2020-0188,2020-11-15,04:48:38,05:08:17,NA,incomplete,118,number,1,left,Green_Circle_Grid_1.jpg,Red_Star_Stripes_1.jpg,Blue_Triangle_Grid_4.jpg,left,824.640000006184,true,high,NA,NA,NA,NA,NA,NA,NA,false
K9XhWL8e,3hy86pzxq1vtv1ivc3jn7sg3anve1z,3k2755hg5wghguwxe9sqfwy4nbnfd1,K9XhWL8e,2020-0188,2020-11-15,04:48:38,05:08:17,NA,incomplete,119,number,1,right,Blue_Circle_Chess_3.jpg,Red_Plus_Chess_4.jpg,Purple_Star_Dots_3.jpg,right,1079.745000024559,true,high,NA,NA,NA,NA,NA,NA,NA,false
K9XhWL8e,3hy86pzxq1vtv1ivc3jn7sg3anve1z,3k2755hg5wghguwxe9sqfwy4nbnfd1,K9XhWL8e,2020-0188,2020-11-15,04:48:38,05:08:17,NA,incomplete,120,filling,0,left,Red_Circle_Dots_2.jpg,Purple_Plus_Dots_4.jpg,Blue_Triangle_Chess_2.jpg,right,905.3750000020955,false,high,NA,NA,NA,NA,NA,NA,NA,false
K9XhWL8e,3hy86pzxq1vtv1ivc3jn7sg3anve1z,3k2755hg5wghguwxe9sqfwy4nbnfd1,K9XhWL8e,2020-0188,2020-11-15,04:48:38,05:08:17,NA,incomplete,121,filling,1,left,Purple_Star_Grid_3.jpg,Green_Circle_Grid_2.jpg,Blue_Triangle_Stripes_3.jpg,right,863.0050000210758,false,high,NA,NA,NA,NA,NA,NA,NA,false
K9XhWL8e,3hy86pzxq1vtv1ivc3jn7sg3anve1z,3k2755hg5wghguwxe9sqfwy4nbnfd1,K9XhWL8e,2020-0188,2020-11-15,04:48:38,05:08:17,NA,incomplete,122,filling,1,left,Blue_Plus_Grid_1.jpg,Red_Triangle_Grid_3.jpg,Purple_Circle_Dots_1.jpg,right,777.8850000177044,false,high,NA,NA,NA,NA,NA,NA,NA,false
K9XhWL8e,3hy86pzxq1vtv1ivc3jn7sg3anve1z,3k2755hg5wghguwxe9sqfwy4nbnfd1,K9XhWL8e,2020-0188,2020-11-15,04:48:38,05:08:17,NA,incomplete,123,filling,1,left,Purple_Circle_Stripes_1.jpg,Green_Triangle_Stripes_2.jpg,Blue_Plus_Chess_1.jpg,left,741.4949999947567,true,high,NA,NA,NA,NA,NA,NA,NA,false
K9XhWL8e,3hy86pzxq1vtv1ivc3jn7sg3anve1z,3k2755hg5wghguwxe9sqfwy4nbnfd1,K9XhWL8e,2020-0188,2020-11-15,04:48:38,05:08:17,NA,incomplete,124,filling,1,right,Green_Plus_Chess_3.jpg,Red_Circle_Dots_3.jpg,Purple_Star_Chess_2.jpg,right,970.2850000176113,true,high,NA,NA,NA,NA,NA,NA,NA,false
K9XhWL8e,3hy86pzxq1vtv1ivc3jn7sg3anve1z,3k2755hg5wghguwxe9sqfwy4nbnfd1,K9XhWL8e,2020-0188,2020-11-15,04:48:38,05:08:17,NA,incomplete,125,filling,1,right,Blue_Triangle_Chess_3.jpg,Green_Star_Grid_3.jpg,Red_Plus_Chess_2.jpg,right,792.8649999957997,true,high,NA,NA,NA,NA,NA,NA,NA,false
K9XhWL8e,3hy86pzxq1vtv1ivc3jn7sg3anve1z,3k2755hg5wghguwxe9sqfwy4nbnfd1,K9XhWL8e,2020-0188,2020-11-15,04:48:38,05:08:17,NA,incomplete,126,filling,0,right,Blue_Plus_Grid_2.jpg,Purple_Star_Chess_2.jpg,Red_Triangle_Grid_4.jpg,right,1277.250000013737,true,high,NA,NA,NA,NA,NA,NA,NA,false
K9XhWL8e,3hy86pzxq1vtv1ivc3jn7sg3anve1z,3k2755hg5wghguwxe9sqfwy4nbnfd1,K9XhWL8e,2020-0188,2020-11-15,04:48:38,05:08:17,NA,incomplete,127,filling,1,right,Red_Triangle_Grid_4.jpg,Purple_Circle_Dots_4.jpg,Green_Plus_Grid_2.jpg,right,1615.6149999878835,true,high,NA,NA,NA,NA,NA,NA,NA,false
K9XhWL8e,3hy86pzxq1vtv1ivc3jn7sg3anve1z,3k2755hg5wghguwxe9sqfwy4nbnfd1,K9XhWL8e,2020-0188,2020-11-15,04:48:38,05:08:17,NA,incomplete,128,filling,1,left,Red_Star_Dots_4.jpg,Blue_Plus_Dots_2.jpg,Purple_Triangle_Stripes_4.jpg,left,1217.9500000202097,true,high,NA,NA,NA,NA,NA,NA,NA,false
K9XhWL8e,3hy86pzxq1vtv1ivc3jn7sg3anve1z,3k2755hg5wghguwxe9sqfwy4nbnfd1,K9XhWL8e,2020-0188,2020-11-15,04:48:38,05:08:17,NA,incomplete,129,filling,1,left,Purple_Triangle_Dots_4.jpg,Red_Star_Dots_1.jpg,Blue_Plus_Stripes_4.jpg,left,1147.8249999927357,true,high,NA,NA,NA,NA,NA,NA,NA,false
K9XhWL8e,3hy86pzxq1vtv1ivc3jn7sg3anve1z,3k2755hg5wghguwxe9sqfwy4nbnfd1,K9XhWL8e,2020-0188,2020-11-15,04:48:38,05:08:17,NA,incomplete,130,filling,1,left,Green_Triangle_Stripes_2.jpg,Purple_Circle_Stripes_1.jpg,Blue_Plus_Grid_2.jpg,left,1019.5499999972526,true,high,NA,NA,NA,NA,NA,NA,NA,false
K9XhWL8e,3hy86pzxq1vtv1ivc3jn7sg3anve1z,3k2755hg5wghguwxe9sqfwy4nbnfd1,K9XhWL8e,2020-0188,2020-11-15,04:48:38,05:08:17,NA,incomplete,131,filling,1,left,Blue_Triangle_Chess_4.jpg,Red_Star_Chess_3.jpg,Green_Circle_Dots_4.jpg,right,942.2100000083447,false,high,NA,NA,NA,NA,NA,NA,NA,false
K9XhWL8e,3hy86pzxq1vtv1ivc3jn7sg3anve1z,3k2755hg5wghguwxe9sqfwy4nbnfd1,K9XhWL8e,2020-0188,2020-11-15,04:48:38,05:08:17,NA,incomplete,132,filling,1,right,Red_Plus_Stripes_1.jpg,Green_Star_Grid_1.jpg,Blue_Circle_Stripes_3.jpg,left,1429.7099999967031,false,high,NA,NA,NA,NA,NA,NA,NA,false
K9XhWL8e,3hy86pzxq1vtv1ivc3jn7sg3anve1z,3k2755hg5wghguwxe9sqfwy4nbnfd1,K9XhWL8e,2020-0188,2020-11-15,04:48:38,05:08:17,NA,incomplete,133,filling,1,right,Purple_Triangle_Stripes_3.jpg,Green_Star_Grid_3.jpg,Blue_Plus_Stripes_1.jpg,right,1166.1149999999907,true,high,NA,NA,NA,NA,NA,NA,NA,false
K9XhWL8e,3hy86pzxq1vtv1ivc3jn7sg3anve1z,3k2755hg5wghguwxe9sqfwy4nbnfd1,K9XhWL8e,2020-0188,2020-11-15,04:48:38,05:08:17,NA,incomplete,134,filling,1,left,Red_Star_Stripes_4.jpg,Blue_Triangle_Stripes_2.jpg,Purple_Plus_Chess_4.jpg,left,912.2949999873526,true,high,NA,NA,NA,NA,NA,NA,NA,false
K9XhWL8e,3hy86pzxq1vtv1ivc3jn7sg3anve1z,3k2755hg5wghguwxe9sqfwy4nbnfd1,K9XhWL8e,2020-0188,2020-11-15,04:48:38,05:08:17,NA,incomplete,135,filling,1,right,Green_Circle_Dots_4.jpg,Red_Plus_Stripes_4.jpg,Purple_Triangle_Dots_2.jpg,right,856.8699999887031,true,high,NA,NA,NA,NA,NA,NA,NA,false
K9XhWL8e,3hy86pzxq1vtv1ivc3jn7sg3anve1z,3k2755hg5wghguwxe9sqfwy4nbnfd1,K9XhWL8e,2020-0188,2020-11-15,04:48:38,05:08:17,NA,incomplete,136,filling,1,right,Blue_Star_Stripes_3.jpg,Red_Triangle_Grid_3.jpg,Purple_Circle_Stripes_4.jpg,right,1296.8350000155624,true,high,NA,NA,NA,NA,NA,NA,NA,false
K9XhWL8e,3hy86pzxq1vtv1ivc3jn7sg3anve1z,3k2755hg5wghguwxe9sqfwy4nbnfd1,K9XhWL8e,2020-0188,2020-11-15,04:48:38,05:08:17,NA,incomplete,137,filling,1,right,Blue_Triangle_Chess_2.jpg,Green_Plus_Grid_2.jpg,Red_Circle_Chess_1.jpg,right,1043.7300000048708,true,high,NA,NA,NA,NA,NA,NA,NA,false
K9XhWL8e,3hy86pzxq1vtv1ivc3jn7sg3anve1z,3k2755hg5wghguwxe9sqfwy4nbnfd1,K9XhWL8e,2020-0188,2020-11-15,04:48:38,05:08:17,NA,incomplete,138,filling,1,left,Green_Triangle_Chess_4.jpg,Purple_Plus_Chess_3.jpg,Blue_Star_Stripes_4.jpg,left,1204.0299999935087,true,high,NA,NA,NA,NA,NA,NA,NA,false
K9XhWL8e,3hy86pzxq1vtv1ivc3jn7sg3anve1z,3k2755hg5wghguwxe9sqfwy4nbnfd1,K9XhWL8e,2020-0188,2020-11-15,04:48:38,05:08:17,NA,incomplete,139,filling,1,right,Blue_Star_Dots_4.jpg,Green_Plus_Stripes_4.jpg,Red_Triangle_Dots_1.jpg,right,820.4800000239629,true,high,NA,NA,NA,NA,NA,NA,NA,false
K9XhWL8e,3hy86pzxq1vtv1ivc3jn7sg3anve1z,3k2755hg5wghguwxe9sqfwy4nbnfd1,K9XhWL8e,2020-0188,2020-11-15,04:48:38,05:08:17,NA,incomplete,140,number,1,left,Purple_Star_Chess_2.jpg,Blue_Triangle_Dots_2.jpg,Green_Plus_Chess_4.jpg,left,1080.8649999962654,true,high,NA,NA,NA,NA,NA,NA,NA,false
K9XhWL8e,3hy86pzxq1vtv1ivc3jn7sg3anve1z,3k2755hg5wghguwxe9sqfwy4nbnfd1,K9XhWL8e,2020-0188,2020-11-15,04:48:38,05:08:17,NA,incomplete,141,number,1,right,Green_Triangle_Grid_1.jpg,Blue_Star_Grid_3.jpg,Purple_Plus_Dots_1.jpg,right,829.1249999892898,true,high,NA,NA,NA,NA,NA,NA,NA,false
K9XhWL8e,3hy86pzxq1vtv1ivc3jn7sg3anve1z,3k2755hg5wghguwxe9sqfwy4nbnfd1,K9XhWL8e,2020-0188,2020-11-15,04:48:38,05:08:17,NA,incomplete,142,number,1,left,Red_Circle_Dots_1.jpg,Purple_Plus_Grid_1.jpg,Green_Star_Dots_2.jpg,left,889.9150000070222,true,high,NA,NA,NA,NA,NA,NA,NA,false
K9XhWL8e,3hy86pzxq1vtv1ivc3jn7sg3anve1z,3k2755hg5wghguwxe9sqfwy4nbnfd1,K9XhWL8e,2020-0188,2020-11-15,04:48:38,05:08:17,NA,incomplete,143,number,1,left,Blue_Triangle_Chess_3.jpg,Green_Plus_Stripes_3.jpg,Red_Star_Chess_1.jpg,left,792.7750000089873,true,high,NA,NA,NA,NA,NA,NA,NA,false
K9XhWL8e,3hy86pzxq1vtv1ivc3jn7sg3anve1z,3k2755hg5wghguwxe9sqfwy4nbnfd1,K9XhWL8e,2020-0188,2020-11-15,04:48:38,05:08:17,NA,incomplete,144,number,1,left,Blue_Circle_Stripes_1.jpg,Green_Triangle_Chess_1.jpg,Purple_Plus_Stripes_3.jpg,left,950.0199999893084,true,high,NA,NA,NA,NA,NA,NA,NA,false
K9XhWL8e,3hy86pzxq1vtv1ivc3jn7sg3anve1z,3k2755hg5wghguwxe9sqfwy4nbnfd1,K9XhWL8e,2020-0188,2020-11-15,04:48:38,05:08:17,NA,incomplete,145,number,1,right,Blue_Star_Dots_4.jpg,Red_Circle_Dots_2.jpg,Green_Triangle_Chess_4.jpg,right,1178.4200000111014,true,high,NA,NA,NA,NA,NA,NA,NA,false
K9XhWL8e,3hy86pzxq1vtv1ivc3jn7sg3anve1z,3k2755hg5wghguwxe9sqfwy4nbnfd1,K9XhWL8e,2020-0188,2020-11-15,04:48:38,05:08:17,NA,incomplete,146,number,1,right,Purple_Triangle_Grid_3.jpg,Blue_Star_Grid_4.jpg,Green_Plus_Dots_3.jpg,right,1126.3350000081118,true,high,NA,NA,NA,NA,NA,NA,NA,false
K9XhWL8e,3hy86pzxq1vtv1ivc3jn7sg3anve1z,3k2755hg5wghguwxe9sqfwy4nbnfd1,K9XhWL8e,2020-0188,2020-11-15,04:48:38,05:08:17,NA,incomplete,147,number,1,right,Red_Triangle_Chess_2.jpg,Blue_Plus_Chess_3.jpg,Purple_Circle_Grid_2.jpg,right,1279.5149999728892,true,high,NA,NA,NA,NA,NA,NA,NA,false
K9XhWL8e,3hy86pzxq1vtv1ivc3jn7sg3anve1z,3k2755hg5wghguwxe9sqfwy4nbnfd1,K9XhWL8e,2020-0188,2020-11-15,04:48:38,05:08:17,NA,incomplete,148,number,1,left,Blue_Plus_Chess_2.jpg,Purple_Triangle_Dots_2.jpg,Red_Star_Chess_1.jpg,left,1017.470000020694,true,high,NA,NA,NA,NA,NA,NA,NA,false
K9XhWL8e,3hy86pzxq1vtv1ivc3jn7sg3anve1z,3k2755hg5wghguwxe9sqfwy4nbnfd1,K9XhWL8e,2020-0188,2020-11-15,04:48:38,05:08:17,NA,incomplete,149,number,1,left,Green_Plus_Grid_1.jpg,Purple_Circle_Chess_1.jpg,Blue_Triangle_Grid_4.jpg,left,845.6050000095274,true,high,NA,NA,NA,NA,NA,NA,NA,false
K9XhWL8e,3hy86pzxq1vtv1ivc3jn7sg3anve1z,3k2755hg5wghguwxe9sqfwy4nbnfd1,K9XhWL8e,2020-0188,2020-11-15,04:48:38,05:08:17,NA,incomplete,150,number,0,right,Red_Circle_Stripes_1.jpg,Blue_Triangle_Stripes_3.jpg,Green_Star_Dots_1.jpg,right,923.2900000060908,true,high,NA,NA,NA,NA,NA,NA,NA,false
K9XhWL8e,3hy86pzxq1vtv1ivc3jn7sg3anve1z,3k2755hg5wghguwxe9sqfwy4nbnfd1,K9XhWL8e,2020-0188,2020-11-15,04:48:38,05:08:17,NA,incomplete,151,number,1,right,Green_Star_Chess_2.jpg,Red_Circle_Chess_4.jpg,Blue_Triangle_Stripes_2.jpg,right,997.2500000149012,true,high,NA,NA,NA,NA,NA,NA,NA,false
K9XhWL8e,3hy86pzxq1vtv1ivc3jn7sg3anve1z,3k2755hg5wghguwxe9sqfwy4nbnfd1,K9XhWL8e,2020-0188,2020-11-15,04:48:38,05:08:17,NA,incomplete,152,number,1,left,Red_Plus_Dots_4.jpg,Blue_Triangle_Stripes_4.jpg,Green_Circle_Dots_3.jpg,left,806.509999994887,true,high,NA,NA,NA,NA,NA,NA,NA,false
K9XhWL8e,3hy86pzxq1vtv1ivc3jn7sg3anve1z,3k2755hg5wghguwxe9sqfwy4nbnfd1,K9XhWL8e,2020-0188,2020-11-15,04:48:38,05:08:17,NA,incomplete,153,number,1,left,Blue_Triangle_Grid_4.jpg,Green_Plus_Dots_4.jpg,Purple_Circle_Grid_3.jpg,left,719.6999999869149,true,high,NA,NA,NA,NA,NA,NA,NA,false
K9XhWL8e,3hy86pzxq1vtv1ivc3jn7sg3anve1z,3k2755hg5wghguwxe9sqfwy4nbnfd1,K9XhWL8e,2020-0188,2020-11-15,04:48:38,05:08:17,NA,incomplete,154,number,1,right,Green_Star_Stripes_4.jpg,Blue_Triangle_Stripes_2.jpg,Purple_Plus_Grid_4.jpg,right,997.2300000081304,true,high,NA,NA,NA,NA,NA,NA,NA,false
K9XhWL8e,3hy86pzxq1vtv1ivc3jn7sg3anve1z,3k2755hg5wghguwxe9sqfwy4nbnfd1,K9XhWL8e,2020-0188,2020-11-15,04:48:38,05:08:17,NA,incomplete,155,number,1,left,Purple_Circle_Stripes_1.jpg,Green_Triangle_Grid_1.jpg,Blue_Star_Stripes_3.jpg,left,907.8049999952782,true,high,NA,NA,NA,NA,NA,NA,NA,false
K9XhWL8e,3hy86pzxq1vtv1ivc3jn7sg3anve1z,3k2755hg5wghguwxe9sqfwy4nbnfd1,K9XhWL8e,2020-0188,2020-11-15,04:48:38,05:08:17,NA,incomplete,156,number,1,right,Purple_Plus_Stripes_1.jpg,Blue_Triangle_Stripes_3.jpg,Red_Star_Grid_1.jpg,right,918.6000000045169,true,high,NA,NA,NA,NA,NA,NA,NA,false
K9XhWL8e,3hy86pzxq1vtv1ivc3jn7sg3anve1z,3k2755hg5wghguwxe9sqfwy4nbnfd1,K9XhWL8e,2020-0188,2020-11-15,04:48:38,05:08:17,NA,incomplete,157,number,1,left,Green_Circle_Stripes_4.jpg,Red_Star_Chess_4.jpg,Blue_Plus_Stripes_3.jpg,left,801.0549999889918,true,high,NA,NA,NA,NA,NA,NA,NA,false
K9XhWL8e,3hy86pzxq1vtv1ivc3jn7sg3anve1z,3k2755hg5wghguwxe9sqfwy4nbnfd1,K9XhWL8e,2020-0188,2020-11-15,04:48:38,05:08:17,NA,incomplete,158,number,0,left,Purple_Circle_Chess_1.jpg,Red_Plus_Dots_1.jpg,Blue_Triangle_Chess_2.jpg,left,674.4349999935366,true,high,NA,NA,NA,NA,NA,NA,NA,false
K9XhWL8e,3hy86pzxq1vtv1ivc3jn7sg3anve1z,3k2755hg5wghguwxe9sqfwy4nbnfd1,K9XhWL8e,2020-0188,2020-11-15,04:48:38,05:08:17,NA,incomplete,159,number,1,left,Green_Plus_Grid_1.jpg,Blue_Star_Chess_1.jpg,Purple_Circle_Grid_4.jpg,left,675.8550000085961,true,high,NA,NA,NA,NA,NA,NA,NA,false
K9XhWL8e,3hy86pzxq1vtv1ivc3jn7sg3anve1z,3k2755hg5wghguwxe9sqfwy4nbnfd1,K9XhWL8e,2020-0188,2020-11-15,04:48:38,05:08:17,NA,incomplete,160,filling,1,right,Blue_Star_Stripes_4.jpg,Red_Triangle_Chess_4.jpg,Purple_Circle_Stripes_2.jpg,left,690.9900000027847,false,high,NA,NA,NA,NA,NA,NA,NA,false
K9XhWL8e,3hy86pzxq1vtv1ivc3jn7sg3anve1z,3k2755hg5wghguwxe9sqfwy4nbnfd1,K9XhWL8e,2020-0188,2020-11-15,04:48:38,05:08:17,NA,incomplete,161,filling,1,right,Blue_Triangle_Chess_2.jpg,Purple_Star_Grid_2.jpg,Green_Plus_Chess_1.jpg,left,795.350000000326,false,high,NA,NA,NA,NA,NA,NA,NA,false
K9XhWL8e,3hy86pzxq1vtv1ivc3jn7sg3anve1z,3k2755hg5wghguwxe9sqfwy4nbnfd1,K9XhWL8e,2020-0188,2020-11-15,04:48:38,05:08:17,NA,incomplete,162,filling,0,right,Red_Triangle_Stripes_2.jpg,Blue_Circle_Grid_2.jpg,Purple_Plus_Stripes_1.jpg,right,790.9600000130013,true,high,NA,NA,NA,NA,NA,NA,NA,false
K9XhWL8e,3hy86pzxq1vtv1ivc3jn7sg3anve1z,3k2755hg5wghguwxe9sqfwy4nbnfd1,K9XhWL8e,2020-0188,2020-11-15,04:48:38,05:08:17,NA,incomplete,163,filling,1,right,Red_Circle_Chess_4.jpg,Purple_Triangle_Grid_4.jpg,Blue_Plus_Chess_1.jpg,right,913.7150000024121,true,high,NA,NA,NA,NA,NA,NA,NA,false
K9XhWL8e,3hy86pzxq1vtv1ivc3jn7sg3anve1z,3k2755hg5wghguwxe9sqfwy4nbnfd1,K9XhWL8e,2020-0188,2020-11-15,04:48:38,05:08:17,NA,incomplete,164,filling,1,right,Red_Star_Stripes_3.jpg,Green_Plus_Dots_3.jpg,Blue_Triangle_Stripes_4.jpg,right,1259.345000027679,true,high,NA,NA,NA,NA,NA,NA,NA,false
K9XhWL8e,3hy86pzxq1vtv1ivc3jn7sg3anve1z,3k2755hg5wghguwxe9sqfwy4nbnfd1,K9XhWL8e,2020-0188,2020-11-15,04:48:38,05:08:17,NA,incomplete,165,filling,1,left,Blue_Plus_Dots_1.jpg,Red_Star_Dots_3.jpg,Green_Triangle_Grid_1.jpg,left,1271.3300000177696,true,high,NA,NA,NA,NA,NA,NA,NA,false
K9XhWL8e,3hy86pzxq1vtv1ivc3jn7sg3anve1z,3k2755hg5wghguwxe9sqfwy4nbnfd1,K9XhWL8e,2020-0188,2020-11-15,04:48:38,05:08:17,NA,incomplete,166,filling,1,left,Purple_Circle_Stripes_3.jpg,Red_Star_Stripes_4.jpg,Blue_Triangle_Chess_3.jpg,left,984.1900000174064,true,high,NA,NA,NA,NA,NA,NA,NA,false
K9XhWL8e,3hy86pzxq1vtv1ivc3jn7sg3anve1z,3k2755hg5wghguwxe9sqfwy4nbnfd1,K9XhWL8e,2020-0188,2020-11-15,04:48:38,05:08:17,NA,incomplete,167,filling,0,right,Red_Plus_Chess_2.jpg,Purple_Star_Stripes_2.jpg,Blue_Triangle_Chess_4.jpg,right,940.9799999848474,true,high,NA,NA,NA,NA,NA,NA,NA,false
K9XhWL8e,3hy86pzxq1vtv1ivc3jn7sg3anve1z,3k2755hg5wghguwxe9sqfwy4nbnfd1,K9XhWL8e,2020-0188,2020-11-15,04:48:38,05:08:17,NA,incomplete,168,filling,1,left,Red_Triangle_Dots_1.jpg,Purple_Plus_Dots_2.jpg,Blue_Star_Grid_1.jpg,left,943.9750000019558,true,high,NA,NA,NA,NA,NA,NA,NA,false
K9XhWL8e,3hy86pzxq1vtv1ivc3jn7sg3anve1z,3k2755hg5wghguwxe9sqfwy4nbnfd1,K9XhWL8e,2020-0188,2020-11-15,04:48:38,05:08:17,NA,incomplete,169,filling,0,left,Green_Star_Grid_3.jpg,Red_Plus_Grid_1.jpg,Purple_Triangle_Chess_3.jpg,left,945.4850000038277,true,high,NA,NA,NA,NA,NA,NA,NA,false
K9XhWL8e,3hy86pzxq1vtv1ivc3jn7sg3anve1z,3k2755hg5wghguwxe9sqfwy4nbnfd1,K9XhWL8e,2020-0188,2020-11-15,04:48:38,05:08:17,NA,incomplete,170,filling,1,left,Green_Star_Stripes_1.jpg,Blue_Triangle_Stripes_4.jpg,Red_Circle_Chess_1.jpg,left,870.1650000002701,true,high,NA,NA,NA,NA,NA,NA,NA,false
K9XhWL8e,3hy86pzxq1vtv1ivc3jn7sg3anve1z,3k2755hg5wghguwxe9sqfwy4nbnfd1,K9XhWL8e,2020-0188,2020-11-15,04:48:38,05:08:17,NA,incomplete,171,filling,1,left,Green_Triangle_Chess_4.jpg,Purple_Circle_Chess_1.jpg,Blue_Plus_Dots_4.jpg,left,913.460000010673,true,high,NA,NA,NA,NA,NA,NA,NA,false
K9XhWL8e,3hy86pzxq1vtv1ivc3jn7sg3anve1z,3k2755hg5wghguwxe9sqfwy4nbnfd1,K9XhWL8e,2020-0188,2020-11-15,04:48:38,05:08:17,NA,incomplete,172,filling,0,right,Green_Star_Grid_1.jpg,Purple_Plus_Stripes_1.jpg,Blue_Circle_Grid_2.jpg,right,890.1149999874178,true,high,NA,NA,NA,NA,NA,NA,NA,false
K9XhWL8e,3hy86pzxq1vtv1ivc3jn7sg3anve1z,3k2755hg5wghguwxe9sqfwy4nbnfd1,K9XhWL8e,2020-0188,2020-11-15,04:48:38,05:08:17,NA,incomplete,173,filling,1,left,Blue_Star_Grid_4.jpg,Red_Circle_Grid_3.jpg,Purple_Triangle_Stripes_4.jpg,left,1038.2099999987986,true,high,NA,NA,NA,NA,NA,NA,NA,false
K9XhWL8e,3hy86pzxq1vtv1ivc3jn7sg3anve1z,3k2755hg5wghguwxe9sqfwy4nbnfd1,K9XhWL8e,2020-0188,2020-11-15,04:48:38,05:08:17,NA,incomplete,174,filling,1,left,Blue_Triangle_Stripes_1.jpg,Red_Star_Stripes_2.jpg,Purple_Circle_Dots_1.jpg,left,957.8550000151154,true,high,NA,NA,NA,NA,NA,NA,NA,false
K9XhWL8e,3hy86pzxq1vtv1ivc3jn7sg3anve1z,3k2755hg5wghguwxe9sqfwy4nbnfd1,K9XhWL8e,2020-0188,2020-11-15,04:48:38,05:08:17,NA,incomplete,175,filling,0,left,Red_Plus_Stripes_4.jpg,Purple_Circle_Stripes_3.jpg,Green_Triangle_Dots_4.jpg,left,930.3299999737646,true,high,NA,NA,NA,NA,NA,NA,NA,false
K9XhWL8e,3hy86pzxq1vtv1ivc3jn7sg3anve1z,3k2755hg5wghguwxe9sqfwy4nbnfd1,K9XhWL8e,2020-0188,2020-11-15,04:48:38,05:08:17,NA,incomplete,176,filling,1,right,Purple_Circle_Stripes_2.jpg,Blue_Triangle_Dots_2.jpg,Red_Star_Stripes_1.jpg,right,920.5950000032317,true,high,NA,NA,NA,NA,NA,NA,NA,false
K9XhWL8e,3hy86pzxq1vtv1ivc3jn7sg3anve1z,3k2755hg5wghguwxe9sqfwy4nbnfd1,K9XhWL8e,2020-0188,2020-11-15,04:48:38,05:08:17,NA,incomplete,177,filling,0,right,Purple_Star_Chess_3.jpg,Green_Triangle_Dots_3.jpg,Red_Circle_Chess_2.jpg,right,1122.3699999973178,true,high,NA,NA,NA,NA,NA,NA,NA,false
K9XhWL8e,3hy86pzxq1vtv1ivc3jn7sg3anve1z,3k2755hg5wghguwxe9sqfwy4nbnfd1,K9XhWL8e,2020-0188,2020-11-15,04:48:38,05:08:17,NA,incomplete,178,filling,1,right,Red_Star_Grid_2.jpg,Blue_Plus_Dots_2.jpg,Green_Circle_Grid_1.jpg,left,930.5049999966286,false,high,NA,NA,NA,NA,NA,NA,NA,false
K9XhWL8e,3hy86pzxq1vtv1ivc3jn7sg3anve1z,3k2755hg5wghguwxe9sqfwy4nbnfd1,K9XhWL8e,2020-0188,2020-11-15,04:48:38,05:08:17,NA,incomplete,179,filling,1,left,Green_Triangle_Grid_4.jpg,Red_Plus_Grid_2.jpg,Blue_Circle_Dots_4.jpg,left,987.1700000076089,true,high,NA,NA,NA,NA,NA,NA,NA,false
K9XhWL8e,3hy86pzxq1vtv1ivc3jn7sg3anve1z,3k2755hg5wghguwxe9sqfwy4nbnfd1,K9XhWL8e,2020-0188,2020-11-15,04:48:38,05:08:17,NA,incomplete,180,number,1,right,Blue_Triangle_Chess_4.jpg,Purple_Circle_Chess_3.jpg,Green_Plus_Dots_4.jpg,left,832.8849999816157,false,high,NA,NA,NA,NA,NA,NA,NA,false
K9XhWL8e,3hy86pzxq1vtv1ivc3jn7sg3anve1z,3k2755hg5wghguwxe9sqfwy4nbnfd1,K9XhWL8e,2020-0188,2020-11-15,04:48:38,05:08:17,NA,incomplete,181,number,0,left,Red_Triangle_Dots_3.jpg,Purple_Circle_Stripes_3.jpg,Green_Plus_Dots_1.jpg,right,1018.4749999898486,false,high,NA,NA,NA,NA,NA,NA,NA,false
K9XhWL8e,3hy86pzxq1vtv1ivc3jn7sg3anve1z,3k2755hg5wghguwxe9sqfwy4nbnfd1,K9XhWL8e,2020-0188,2020-11-15,04:48:38,05:08:17,NA,incomplete,182,number,1,left,Green_Triangle_Grid_1.jpg,Purple_Circle_Stripes_1.jpg,Blue_Plus_Grid_2.jpg,right,1096.799999999348,false,high,NA,NA,NA,NA,NA,NA,NA,false
K9XhWL8e,3hy86pzxq1vtv1ivc3jn7sg3anve1z,3k2755hg5wghguwxe9sqfwy4nbnfd1,K9XhWL8e,2020-0188,2020-11-15,04:48:38,05:08:17,NA,incomplete,183,number,1,left,Blue_Triangle_Grid_4.jpg,Green_Plus_Dots_4.jpg,Purple_Circle_Grid_2.jpg,right,1003.965000010794,false,high,NA,NA,NA,NA,NA,NA,NA,false
K9XhWL8e,3hy86pzxq1vtv1ivc3jn7sg3anve1z,3k2755hg5wghguwxe9sqfwy4nbnfd1,K9XhWL8e,2020-0188,2020-11-15,04:48:38,05:08:17,NA,incomplete,184,number,0,right,Green_Star_Chess_1.jpg,Blue_Plus_Chess_3.jpg,Purple_Circle_Grid_1.jpg,right,885.4649999993853,true,high,NA,NA,NA,NA,NA,NA,NA,false
K9XhWL8e,3hy86pzxq1vtv1ivc3jn7sg3anve1z,3k2755hg5wghguwxe9sqfwy4nbnfd1,K9XhWL8e,2020-0188,2020-11-15,04:48:38,05:08:17,NA,incomplete,185,number,1,left,Green_Plus_Grid_1.jpg,Red_Star_Chess_1.jpg,Purple_Circle_Grid_2.jpg,left,804.455000004964,true,high,NA,NA,NA,NA,NA,NA,NA,false
K9XhWL8e,3hy86pzxq1vtv1ivc3jn7sg3anve1z,3k2755hg5wghguwxe9sqfwy4nbnfd1,K9XhWL8e,2020-0188,2020-11-15,04:48:38,05:08:17,NA,incomplete,186,number,1,right,Blue_Triangle_Grid_4.jpg,Red_Circle_Grid_1.jpg,Purple_Star_Dots_4.jpg,right,816.2050000100862,true,high,NA,NA,NA,NA,NA,NA,NA,false
K9XhWL8e,3hy86pzxq1vtv1ivc3jn7sg3anve1z,3k2755hg5wghguwxe9sqfwy4nbnfd1,K9XhWL8e,2020-0188,2020-11-15,04:48:38,05:08:17,NA,incomplete,187,number,1,right,Green_Plus_Grid_1.jpg,Purple_Circle_Grid_3.jpg,Red_Triangle_Stripes_1.jpg,right,889.9399999936577,true,high,NA,NA,NA,NA,NA,NA,NA,false
K9XhWL8e,3hy86pzxq1vtv1ivc3jn7sg3anve1z,3k2755hg5wghguwxe9sqfwy4nbnfd1,K9XhWL8e,2020-0188,2020-11-15,04:48:38,05:08:17,NA,incomplete,188,number,1,left,Green_Circle_Grid_3.jpg,Purple_Star_Dots_3.jpg,Blue_Plus_Grid_2.jpg,left,814.8550000041723,true,high,NA,NA,NA,NA,NA,NA,NA,false
K9XhWL8e,3hy86pzxq1vtv1ivc3jn7sg3anve1z,3k2755hg5wghguwxe9sqfwy4nbnfd1,K9XhWL8e,2020-0188,2020-11-15,04:48:38,05:08:17,NA,incomplete,189,number,1,left,Green_Circle_Stripes_1.jpg,Red_Star_Chess_1.jpg,Purple_Plus_Stripes_4.jpg,left,743.5150000092108,true,high,NA,NA,NA,NA,NA,NA,NA,false
K9XhWL8e,3hy86pzxq1vtv1ivc3jn7sg3anve1z,3k2755hg5wghguwxe9sqfwy4nbnfd1,K9XhWL8e,2020-0188,2020-11-15,04:48:38,05:08:17,NA,incomplete,190,number,1,right,Red_Star_Dots_1.jpg,Green_Circle_Dots_2.jpg,Blue_Triangle_Chess_1.jpg,right,1059.6999999834225,true,high,NA,NA,NA,NA,NA,NA,NA,false
K9XhWL8e,3hy86pzxq1vtv1ivc3jn7sg3anve1z,3k2755hg5wghguwxe9sqfwy4nbnfd1,K9XhWL8e,2020-0188,2020-11-15,04:48:38,05:08:17,NA,incomplete,191,number,1,left,Blue_Triangle_Dots_3.jpg,Purple_Plus_Stripes_3.jpg,Green_Circle_Dots_4.jpg,left,886.9549999944866,true,high,NA,NA,NA,NA,NA,NA,NA,false
K9XhWL8e,3hy86pzxq1vtv1ivc3jn7sg3anve1z,3k2755hg5wghguwxe9sqfwy4nbnfd1,K9XhWL8e,2020-0188,2020-11-15,04:48:38,05:08:17,NA,incomplete,192,number,1,left,Purple_Triangle_Grid_1.jpg,Green_Circle_Dots_1.jpg,Blue_Plus_Grid_2.jpg,left,717.1999999845866,true,high,NA,NA,NA,NA,NA,NA,NA,false
K9XhWL8e,3hy86pzxq1vtv1ivc3jn7sg3anve1z,3k2755hg5wghguwxe9sqfwy4nbnfd1,K9XhWL8e,2020-0188,2020-11-15,04:48:38,05:08:17,NA,incomplete,193,number,0,right,Blue_Star_Stripes_3.jpg,Green_Plus_Stripes_2.jpg,Red_Triangle_Chess_3.jpg,right,885.8950000139885,true,high,NA,NA,NA,NA,NA,NA,NA,false
K9XhWL8e,3hy86pzxq1vtv1ivc3jn7sg3anve1z,3k2755hg5wghguwxe9sqfwy4nbnfd1,K9XhWL8e,2020-0188,2020-11-15,04:48:38,05:08:17,NA,incomplete,194,number,1,left,Green_Circle_Dots_2.jpg,Purple_Plus_Stripes_2.jpg,Blue_Triangle_Dots_3.jpg,left,765.2900000102818,true,high,NA,NA,NA,NA,NA,NA,NA,false
K9XhWL8e,3hy86pzxq1vtv1ivc3jn7sg3anve1z,3k2755hg5wghguwxe9sqfwy4nbnfd1,K9XhWL8e,2020-0188,2020-11-15,04:48:38,05:08:17,NA,incomplete,195,number,1,left,Green_Triangle_Dots_3.jpg,Purple_Plus_Stripes_3.jpg,Blue_Circle_Dots_1.jpg,left,794.0499999967869,true,high,NA,NA,NA,NA,NA,NA,NA,false
K9XhWL8e,3hy86pzxq1vtv1ivc3jn7sg3anve1z,3k2755hg5wghguwxe9sqfwy4nbnfd1,K9XhWL8e,2020-0188,2020-11-15,04:48:38,05:08:17,NA,incomplete,196,number,0,left,Green_Circle_Chess_2.jpg,Red_Triangle_Stripes_2.jpg,Blue_Star_Chess_3.jpg,left,1005.475000012666,true,high,NA,NA,NA,NA,NA,NA,NA,false
K9XhWL8e,3hy86pzxq1vtv1ivc3jn7sg3anve1z,3k2755hg5wghguwxe9sqfwy4nbnfd1,K9XhWL8e,2020-0188,2020-11-15,04:48:38,05:08:17,NA,incomplete,197,number,1,right,Red_Star_Dots_3.jpg,Purple_Triangle_Dots_1.jpg,Green_Plus_Stripes_3.jpg,right,848.3800000103656,true,high,NA,NA,NA,NA,NA,NA,NA,false
K9XhWL8e,3hy86pzxq1vtv1ivc3jn7sg3anve1z,3k2755hg5wghguwxe9sqfwy4nbnfd1,K9XhWL8e,2020-0188,2020-11-15,04:48:38,05:08:17,NA,incomplete,198,number,1,left,Purple_Plus_Dots_3.jpg,Blue_Triangle_Grid_3.jpg,Green_Circle_Dots_1.jpg,left,716.3000000000466,true,high,NA,NA,NA,NA,NA,NA,NA,false
K9XhWL8e,3hy86pzxq1vtv1ivc3jn7sg3anve1z,3k2755hg5wghguwxe9sqfwy4nbnfd1,K9XhWL8e,2020-0188,2020-11-15,04:48:38,05:08:17,NA,incomplete,199,number,1,left,Blue_Plus_Chess_2.jpg,Red_Triangle_Grid_2.jpg,Purple_Circle_Chess_3.jpg,left,766.8650000123307,true,high,NA,NA,NA,NA,NA,NA,NA,false
K9XhWL8e,3hy86pzxq1vtv1ivc3jn7sg3anve1z,3k2755hg5wghguwxe9sqfwy4nbnfd1,K9XhWL8e,2020-0188,2020-11-15,04:48:38,05:08:17,NA,incomplete,200,filling,0,left,Red_Circle_Stripes_3.jpg,Blue_Plus_Stripes_2.jpg,Purple_Star_Chess_3.jpg,right,936.3250000169501,false,high,NA,NA,NA,NA,NA,NA,NA,false
K9XhWL8e,3hy86pzxq1vtv1ivc3jn7sg3anve1z,3k2755hg5wghguwxe9sqfwy4nbnfd1,K9XhWL8e,2020-0188,2020-11-15,04:48:38,05:08:17,NA,incomplete,201,filling,1,right,Purple_Star_Dots_2.jpg,Red_Circle_Stripes_2.jpg,Blue_Plus_Dots_3.jpg,left,1149.940000002971,false,high,NA,NA,NA,NA,NA,NA,NA,false
K9XhWL8e,3hy86pzxq1vtv1ivc3jn7sg3anve1z,3k2755hg5wghguwxe9sqfwy4nbnfd1,K9XhWL8e,2020-0188,2020-11-15,04:48:38,05:08:17,NA,incomplete,202,filling,1,left,Purple_Triangle_Grid_4.jpg,Blue_Plus_Grid_2.jpg,Red_Circle_Stripes_4.jpg,right,1007.259999983944,false,high,NA,NA,NA,NA,NA,NA,NA,false
K9XhWL8e,3hy86pzxq1vtv1ivc3jn7sg3anve1z,3k2755hg5wghguwxe9sqfwy4nbnfd1,K9XhWL8e,2020-0188,2020-11-15,04:48:38,05:08:17,NA,incomplete,203,filling,1,right,Blue_Star_Grid_3.jpg,Red_Circle_Chess_3.jpg,Purple_Plus_Grid_1.jpg,left,826.1749999946915,false,high,NA,NA,NA,NA,NA,NA,NA,false
K9XhWL8e,3hy86pzxq1vtv1ivc3jn7sg3anve1z,3k2755hg5wghguwxe9sqfwy4nbnfd1,K9XhWL8e,2020-0188,2020-11-15,04:48:38,05:08:17,NA,incomplete,204,filling,0,right,Purple_Plus_Stripes_1.jpg,Green_Triangle_Chess_1.jpg,Blue_Circle_Stripes_4.jpg,right,1011.9350000168197,true,high,NA,NA,NA,NA,NA,NA,NA,false
K9XhWL8e,3hy86pzxq1vtv1ivc3jn7sg3anve1z,3k2755hg5wghguwxe9sqfwy4nbnfd1,K9XhWL8e,2020-0188,2020-11-15,04:48:38,05:08:17,NA,incomplete,205,filling,1,left,Red_Triangle_Chess_1.jpg,Blue_Plus_Chess_3.jpg,Purple_Star_Dots_1.jpg,left,826.4149999886286,true,high,NA,NA,NA,NA,NA,NA,NA,false
K9XhWL8e,3hy86pzxq1vtv1ivc3jn7sg3anve1z,3k2755hg5wghguwxe9sqfwy4nbnfd1,K9XhWL8e,2020-0188,2020-11-15,04:48:38,05:08:17,NA,incomplete,206,filling,1,left,Blue_Circle_Chess_4.jpg,Red_Star_Chess_2.jpg,Green_Plus_Dots_4.jpg,left,1458.0450000066776,true,high,NA,NA,NA,NA,NA,NA,NA,false
K9XhWL8e,3hy86pzxq1vtv1ivc3jn7sg3anve1z,3k2755hg5wghguwxe9sqfwy4nbnfd1,K9XhWL8e,2020-0188,2020-11-15,04:48:38,05:08:17,NA,incomplete,207,filling,0,left,Purple_Triangle_Grid_1.jpg,Blue_Circle_Grid_3.jpg,Green_Star_Stripes_1.jpg,left,1089.4249999837484,true,high,NA,NA,NA,NA,NA,NA,NA,false
K9XhWL8e,3hy86pzxq1vtv1ivc3jn7sg3anve1z,3k2755hg5wghguwxe9sqfwy4nbnfd1,K9XhWL8e,2020-0188,2020-11-15,04:48:38,05:08:17,NA,incomplete,208,filling,1,left,Purple_Star_Grid_1.jpg,Blue_Triangle_Grid_4.jpg,Red_Circle_Stripes_1.jpg,left,974.48499998427,true,high,NA,NA,NA,NA,NA,NA,NA,false
K9XhWL8e,3hy86pzxq1vtv1ivc3jn7sg3anve1z,3k2755hg5wghguwxe9sqfwy4nbnfd1,K9XhWL8e,2020-0188,2020-11-15,04:48:38,05:08:17,NA,incomplete,209,filling,0,left,Red_Star_Stripes_3.jpg,Blue_Circle_Stripes_4.jpg,Green_Triangle_Chess_3.jpg,left,1262.894999992568,true,high,NA,NA,NA,NA,NA,NA,NA,false
K9XhWL8e,3hy86pzxq1vtv1ivc3jn7sg3anve1z,3k2755hg5wghguwxe9sqfwy4nbnfd1,K9XhWL8e,2020-0188,2020-11-15,04:48:38,05:08:17,NA,incomplete,210,filling,1,left,Purple_Star_Grid_1.jpg,Blue_Plus_Grid_3.jpg,Red_Circle_Stripes_1.jpg,left,1047.1900000120513,true,high,NA,NA,NA,NA,NA,NA,NA,false
K9XhWL8e,3hy86pzxq1vtv1ivc3jn7sg3anve1z,3k2755hg5wghguwxe9sqfwy4nbnfd1,K9XhWL8e,2020-0188,2020-11-15,04:48:38,05:08:17,NA,incomplete,211,filling,1,left,Red_Plus_Stripes_3.jpg,Blue_Star_Stripes_2.jpg,Purple_Triangle_Grid_3.jpg,left,1070.064999978058,true,high,NA,NA,NA,NA,NA,NA,NA,false
K9XhWL8e,3hy86pzxq1vtv1ivc3jn7sg3anve1z,3k2755hg5wghguwxe9sqfwy4nbnfd1,K9XhWL8e,2020-0188,2020-11-15,04:48:38,05:08:17,NA,incomplete,212,filling,1,left,Purple_Star_Grid_2.jpg,Blue_Plus_Grid_1.jpg,Green_Triangle_Dots_2.jpg,left,1071.6550000070129,true,high,NA,NA,NA,NA,NA,NA,NA,false
K9XhWL8e,3hy86pzxq1vtv1ivc3jn7sg3anve1z,3k2755hg5wghguwxe9sqfwy4nbnfd1,K9XhWL8e,2020-0188,2020-11-15,04:48:38,05:08:17,NA,incomplete,213,filling,1,left,Green_Triangle_Dots_4.jpg,Blue_Star_Dots_2.jpg,Red_Plus_Grid_4.jpg,left,959.9049999960698,true,high,NA,NA,NA,NA,NA,NA,NA,false
K9XhWL8e,3hy86pzxq1vtv1ivc3jn7sg3anve1z,3k2755hg5wghguwxe9sqfwy4nbnfd1,K9XhWL8e,2020-0188,2020-11-15,04:48:38,05:08:17,NA,incomplete,214,filling,1,left,Blue_Plus_Chess_1.jpg,Red_Star_Chess_3.jpg,Purple_Circle_Dots_1.jpg,left,1022.9500000132248,true,high,NA,NA,NA,NA,NA,NA,NA,false
K9XhWL8e,3hy86pzxq1vtv1ivc3jn7sg3anve1z,3k2755hg5wghguwxe9sqfwy4nbnfd1,K9XhWL8e,2020-0188,2020-11-15,04:48:38,05:08:17,NA,incomplete,215,filling,1,left,Blue_Triangle_Stripes_1.jpg,Purple_Star_Stripes_2.jpg,Red_Circle_Grid_1.jpg,left,1246.3500000012573,true,high,NA,NA,NA,NA,NA,NA,NA,false
K9XhWL8e,3hy86pzxq1vtv1ivc3jn7sg3anve1z,3k2755hg5wghguwxe9sqfwy4nbnfd1,K9XhWL8e,2020-0188,2020-11-15,04:48:38,05:08:17,NA,incomplete,216,filling,0,left,Purple_Plus_Stripes_4.jpg,Red_Circle_Stripes_3.jpg,Green_Star_Dots_4.jpg,left,995.8049999841023,true,high,NA,NA,NA,NA,NA,NA,NA,false
K9XhWL8e,3hy86pzxq1vtv1ivc3jn7sg3anve1z,3k2755hg5wghguwxe9sqfwy4nbnfd1,K9XhWL8e,2020-0188,2020-11-15,04:48:38,05:08:17,NA,incomplete,217,filling,1,right,Green_Triangle_Grid_1.jpg,Purple_Plus_Stripes_1.jpg,Blue_Star_Grid_4.jpg,right,825.4550000128802,true,high,NA,NA,NA,NA,NA,NA,NA,false
K9XhWL8e,3hy86pzxq1vtv1ivc3jn7sg3anve1z,3k2755hg5wghguwxe9sqfwy4nbnfd1,K9XhWL8e,2020-0188,2020-11-15,04:48:38,05:08:17,NA,incomplete,218,filling,1,left,Green_Star_Stripes_2.jpg,Purple_Plus_Stripes_3.jpg,Blue_Triangle_Dots_2.jpg,left,914.5000000135042,true,high,NA,NA,NA,NA,NA,NA,NA,false
K9XhWL8e,3hy86pzxq1vtv1ivc3jn7sg3anve1z,3k2755hg5wghguwxe9sqfwy4nbnfd1,K9XhWL8e,2020-0188,2020-11-15,04:48:38,05:08:17,NA,incomplete,219,filling,1,right,Red_Star_Dots_3.jpg,Purple_Triangle_Chess_3.jpg,Blue_Circle_Dots_1.jpg,right,1076.549999997951,true,high,NA,NA,NA,NA,NA,NA,NA,false
K9XhWL8e,3hy86pzxq1vtv1ivc3jn7sg3anve1z,3k2755hg5wghguwxe9sqfwy4nbnfd1,K9XhWL8e,2020-0188,2020-11-15,04:48:38,05:08:17,NA,incomplete,220,number,0,right,Red_Plus_Stripes_2.jpg,Purple_Circle_Stripes_3.jpg,Green_Triangle_Grid_2.jpg,left,1002.4499999999534,false,high,NA,NA,NA,NA,NA,NA,NA,false
K9XhWL8e,3hy86pzxq1vtv1ivc3jn7sg3anve1z,3k2755hg5wghguwxe9sqfwy4nbnfd1,K9XhWL8e,2020-0188,2020-11-15,04:48:38,05:08:17,NA,incomplete,221,number,1,left,Blue_Circle_Grid_1.jpg,Purple_Triangle_Dots_1.jpg,Green_Star_Grid_2.jpg,right,872.3849999951199,false,high,NA,NA,NA,NA,NA,NA,NA,false
K9XhWL8e,3hy86pzxq1vtv1ivc3jn7sg3anve1z,3k2755hg5wghguwxe9sqfwy4nbnfd1,K9XhWL8e,2020-0188,2020-11-15,04:48:38,05:08:17,NA,incomplete,222,number,0,left,Purple_Circle_Grid_3.jpg,Red_Star_Dots_3.jpg,Green_Triangle_Grid_1.jpg,right,1021.584999980405,false,high,NA,NA,NA,NA,NA,NA,NA,false
K9XhWL8e,3hy86pzxq1vtv1ivc3jn7sg3anve1z,3k2755hg5wghguwxe9sqfwy4nbnfd1,K9XhWL8e,2020-0188,2020-11-15,04:48:38,05:08:17,NA,incomplete,223,number,1,left,Blue_Circle_Grid_3.jpg,Red_Triangle_Dots_3.jpg,Green_Plus_Grid_2.jpg,right,1009.7449999884702,false,high,NA,NA,NA,NA,NA,NA,NA,false
K9XhWL8e,3hy86pzxq1vtv1ivc3jn7sg3anve1z,3k2755hg5wghguwxe9sqfwy4nbnfd1,K9XhWL8e,2020-0188,2020-11-15,04:48:38,05:08:17,NA,incomplete,224,number,1,left,Green_Star_Chess_1.jpg,Purple_Triangle_Stripes_1.jpg,Blue_Circle_Chess_4.jpg,right,1440.3549999988172,false,high,NA,NA,NA,NA,NA,NA,NA,false
K9XhWL8e,3hy86pzxq1vtv1ivc3jn7sg3anve1z,3k2755hg5wghguwxe9sqfwy4nbnfd1,K9XhWL8e,2020-0188,2020-11-15,04:48:38,05:08:17,NA,incomplete,225,number,0,left,Red_Triangle_Stripes_1.jpg,Green_Circle_Chess_1.jpg,Purple_Plus_Stripes_4.jpg,left,723.7150000000838,true,high,NA,NA,NA,NA,NA,NA,NA,false
K9XhWL8e,3hy86pzxq1vtv1ivc3jn7sg3anve1z,3k2755hg5wghguwxe9sqfwy4nbnfd1,K9XhWL8e,2020-0188,2020-11-15,04:48:38,05:08:17,NA,incomplete,226,number,1,right,Red_Circle_Chess_3.jpg,Blue_Triangle_Chess_2.jpg,Purple_Plus_Dots_3.jpg,right,1033.4600000060163,true,high,NA,NA,NA,NA,NA,NA,NA,false
K9XhWL8e,3hy86pzxq1vtv1ivc3jn7sg3anve1z,3k2755hg5wghguwxe9sqfwy4nbnfd1,K9XhWL8e,2020-0188,2020-11-15,04:48:38,05:08:17,NA,incomplete,227,number,1,right,Red_Triangle_Grid_3.jpg,Purple_Circle_Grid_4.jpg,Green_Plus_Chess_3.jpg,right,919.4750000024214,true,high,NA,NA,NA,NA,NA,NA,NA,false
K9XhWL8e,3hy86pzxq1vtv1ivc3jn7sg3anve1z,3k2755hg5wghguwxe9sqfwy4nbnfd1,K9XhWL8e,2020-0188,2020-11-15,04:48:38,05:08:17,NA,incomplete,228,number,1,right,Blue_Plus_Dots_4.jpg,Red_Circle_Dots_2.jpg,Green_Star_Chess_4.jpg,right,865.3300000005402,true,high,NA,NA,NA,NA,NA,NA,NA,false
K9XhWL8e,3hy86pzxq1vtv1ivc3jn7sg3anve1z,3k2755hg5wghguwxe9sqfwy4nbnfd1,K9XhWL8e,2020-0188,2020-11-15,04:48:38,05:08:17,NA,incomplete,229,number,1,left,Green_Circle_Dots_4.jpg,Red_Plus_Grid_4.jpg,Purple_Triangle_Dots_3.jpg,left,1045.3850000048988,true,high,NA,NA,NA,NA,NA,NA,NA,false
K9XhWL8e,3hy86pzxq1vtv1ivc3jn7sg3anve1z,3k2755hg5wghguwxe9sqfwy4nbnfd1,K9XhWL8e,2020-0188,2020-11-15,04:48:38,05:08:17,NA,incomplete,230,number,1,left,Purple_Circle_Grid_4.jpg,Blue_Plus_Dots_4.jpg,Red_Star_Grid_1.jpg,left,708.6899999994785,true,high,NA,NA,NA,NA,NA,NA,NA,false
K9XhWL8e,3hy86pzxq1vtv1ivc3jn7sg3anve1z,3k2755hg5wghguwxe9sqfwy4nbnfd1,K9XhWL8e,2020-0188,2020-11-15,04:48:38,05:08:17,NA,incomplete,231,number,1,right,Purple_Plus_Grid_1.jpg,Red_Circle_Grid_2.jpg,Green_Star_Stripes_1.jpg,right,791.2650000071153,true,high,NA,NA,NA,NA,NA,NA,NA,false
K9XhWL8e,3hy86pzxq1vtv1ivc3jn7sg3anve1z,3k2755hg5wghguwxe9sqfwy4nbnfd1,K9XhWL8e,2020-0188,2020-11-15,04:48:38,05:08:17,NA,incomplete,232,number,0,left,Blue_Circle_Dots_2.jpg,Green_Triangle_Chess_2.jpg,Purple_Plus_Dots_4.jpg,left,800.4549999895971,true,high,NA,NA,NA,NA,NA,NA,NA,false
K9XhWL8e,3hy86pzxq1vtv1ivc3jn7sg3anve1z,3k2755hg5wghguwxe9sqfwy4nbnfd1,K9XhWL8e,2020-0188,2020-11-15,04:48:38,05:08:17,NA,incomplete,233,number,1,left,Blue_Circle_Dots_4.jpg,Green_Plus_Stripes_4.jpg,Purple_Triangle_Dots_1.jpg,left,762.2599999886006,true,high,NA,NA,NA,NA,NA,NA,NA,false
K9XhWL8e,3hy86pzxq1vtv1ivc3jn7sg3anve1z,3k2755hg5wghguwxe9sqfwy4nbnfd1,K9XhWL8e,2020-0188,2020-11-15,04:48:38,05:08:17,NA,incomplete,234,number,1,right,Green_Triangle_Stripes_1.jpg,Purple_Plus_Stripes_3.jpg,Red_Star_Dots_1.jpg,right,831.0500000079628,true,high,NA,NA,NA,NA,NA,NA,NA,false
K9XhWL8e,3hy86pzxq1vtv1ivc3jn7sg3anve1z,3k2755hg5wghguwxe9sqfwy4nbnfd1,K9XhWL8e,2020-0188,2020-11-15,04:48:38,05:08:17,NA,incomplete,235,number,1,right,Purple_Star_Grid_1.jpg,Green_Circle_Grid_2.jpg,Blue_Triangle_Chess_1.jpg,right,831.319999997504,true,high,NA,NA,NA,NA,NA,NA,NA,false
K9XhWL8e,3hy86pzxq1vtv1ivc3jn7sg3anve1z,3k2755hg5wghguwxe9sqfwy4nbnfd1,K9XhWL8e,2020-0188,2020-11-15,04:48:38,05:08:17,NA,incomplete,236,number,1,left,Purple_Triangle_Dots_1.jpg,Red_Circle_Stripes_1.jpg,Green_Plus_Dots_3.jpg,left,973.2199999853037,true,high,NA,NA,NA,NA,NA,NA,NA,false
K9XhWL8e,3hy86pzxq1vtv1ivc3jn7sg3anve1z,3k2755hg5wghguwxe9sqfwy4nbnfd1,K9XhWL8e,2020-0188,2020-11-15,04:48:38,05:08:17,NA,incomplete,237,number,0,left,Purple_Circle_Stripes_2.jpg,Red_Plus_Grid_2.jpg,Blue_Star_Stripes_3.jpg,left,862.410000001546,true,high,NA,NA,NA,NA,NA,NA,NA,false
K9XhWL8e,3hy86pzxq1vtv1ivc3jn7sg3anve1z,3k2755hg5wghguwxe9sqfwy4nbnfd1,K9XhWL8e,2020-0188,2020-11-15,04:48:38,05:08:17,NA,incomplete,238,number,1,left,Blue_Triangle_Grid_1.jpg,Red_Star_Dots_1.jpg,Green_Plus_Grid_4.jpg,left,639.8449999978766,true,high,NA,NA,NA,NA,NA,NA,NA,false
K9XhWL8e,3hy86pzxq1vtv1ivc3jn7sg3anve1z,3k2755hg5wghguwxe9sqfwy4nbnfd1,K9XhWL8e,2020-0188,2020-11-15,04:48:38,05:08:17,NA,incomplete,239,number,1,left,Purple_Star_Stripes_3.jpg,Red_Plus_Chess_3.jpg,Blue_Triangle_Stripes_4.jpg,left,739.6599999919999,true,high,NA,NA,NA,NA,NA,NA,NA,false
K9XhWL8e,3hy86pzxq1vtv1ivc3jn7sg3anve1z,3k2755hg5wghguwxe9sqfwy4nbnfd1,K9XhWL8e,2020-0188,2020-11-15,04:48:38,05:08:17,1094824.6800000197,1179658.859999996,NA,NA,NA,NA,NA,NA,NA,NA,NA,NA,NA,60,White/Caucasian,Male,white,no,yes,no,undefined
