workerId,hitId,assignmentId,subject,studyid,exp_date,exp_start,exp_end,time_start,time_end,trial,type,reward_validity,answer,image_top,image_left,image_right,response,response_time,response_acc,volatility,practice
wEerNlIV,3vll1pieot1c2ogsesvb4yutk6poza,3kibxj1wd97j0df05tx363270oykox,wEerNlIV,2020-0188,2020-05-08,12:34:56,12:49:34,NA,incomplete,0,filling,1,left,Blue_Circle_Grid_2.jpg,Green_Star_Grid_4.jpg,Purple_Circle_Dots_1.jpg,left,1360.839999979362,true,NA,true
wEerNlIV,3vll1pieot1c2ogsesvb4yutk6poza,3kibxj1wd97j0df05tx363270oykox,wEerNlIV,2020-0188,2020-05-08,12:34:56,12:49:34,NA,incomplete,1,filling,1,right,Green_Circle_Stripes_3.jpg,Purple_Circle_Dots_4.jpg,Blue_Triangle_Stripes_2.jpg,right,802.4500000756234,true,NA,true
wEerNlIV,3vll1pieot1c2ogsesvb4yutk6poza,3kibxj1wd97j0df05tx363270oykox,wEerNlIV,2020-0188,2020-05-08,12:34:56,12:49:34,NA,incomplete,2,filling,1,left,Blue_Circle_Chess_3.jpg,Red_Plus_Chess_1.jpg,Purple_Circle_Stripes_2.jpg,left,985.1999999955297,true,NA,true
wEerNlIV,3vll1pieot1c2ogsesvb4yutk6poza,3kibxj1wd97j0df05tx363270oykox,wEerNlIV,2020-0188,2020-05-08,12:34:56,12:49:34,NA,incomplete,3,filling,1,left,Purple_Plus_Grid_4.jpg,Green_Circle_Grid_3.jpg,Red_Plus_Dots_2.jpg,left,1113.6900000274181,true,NA,true
wEerNlIV,3vll1pieot1c2ogsesvb4yutk6poza,3kibxj1wd97j0df05tx363270oykox,wEerNlIV,2020-0188,2020-05-08,12:34:56,12:49:34,NA,incomplete,4,filling,1,right,Red_Star_Chess_3.jpg,Green_Star_Dots_4.jpg,Blue_Circle_Chess_2.jpg,right,1246.925000101328,true,NA,true
wEerNlIV,3vll1pieot1c2ogsesvb4yutk6poza,3kibxj1wd97j0df05tx363270oykox,wEerNlIV,2020-0188,2020-05-08,12:34:56,12:49:34,NA,incomplete,5,filling,1,right,Red_Plus_Grid_2.jpg,Green_Plus_Chess_3.jpg,Purple_Star_Grid_1.jpg,right,938.7300000526011,true,NA,true
wEerNlIV,3vll1pieot1c2ogsesvb4yutk6poza,3kibxj1wd97j0df05tx363270oykox,wEerNlIV,2020-0188,2020-05-08,12:34:56,12:49:34,NA,incomplete,6,filling,0,left,Red_Plus_Chess_1.jpg,Blue_Triangle_Chess_3.jpg,Green_Plus_Grid_4.jpg,left,1074.9399999622256,true,NA,true
wEerNlIV,3vll1pieot1c2ogsesvb4yutk6poza,3kibxj1wd97j0df05tx363270oykox,wEerNlIV,2020-0188,2020-05-08,12:34:56,12:49:34,NA,incomplete,7,filling,1,right,Red_Plus_Chess_2.jpg,Purple_Plus_Stripes_4.jpg,Blue_Circle_Chess_1.jpg,right,1192.3050000332296,true,NA,true
wEerNlIV,3vll1pieot1c2ogsesvb4yutk6poza,3kibxj1wd97j0df05tx363270oykox,wEerNlIV,2020-0188,2020-05-08,12:34:56,12:49:34,NA,incomplete,8,filling,1,right,Red_Plus_Chess_3.jpg,Blue_Plus_Dots_4.jpg,Green_Circle_Chess_2.jpg,right,937.5650000292808,true,NA,true
wEerNlIV,3vll1pieot1c2ogsesvb4yutk6poza,3kibxj1wd97j0df05tx363270oykox,wEerNlIV,2020-0188,2020-05-08,12:34:56,12:49:34,NA,incomplete,9,filling,1,right,Blue_Star_Chess_1.jpg,Green_Star_Grid_2.jpg,Red_Plus_Chess_4.jpg,right,1027.2600001189858,true,NA,true
wEerNlIV,3vll1pieot1c2ogsesvb4yutk6poza,3kibxj1wd97j0df05tx363270oykox,wEerNlIV,2020-0188,2020-05-08,12:34:56,12:49:34,NA,incomplete,10,filling,1,right,Green_Triangle_Dots_1.jpg,Red_Triangle_Chess_3.jpg,Purple_Plus_Dots_4.jpg,right,864.4149999599904,true,NA,true
wEerNlIV,3vll1pieot1c2ogsesvb4yutk6poza,3kibxj1wd97j0df05tx363270oykox,wEerNlIV,2020-0188,2020-05-08,12:34:56,12:49:34,NA,incomplete,11,filling,1,left,Green_Star_Stripes_3.jpg,Red_Circle_Stripes_4.jpg,Purple_Star_Chess_2.jpg,left,1095.46500002034,true,NA,true
wEerNlIV,3vll1pieot1c2ogsesvb4yutk6poza,3kibxj1wd97j0df05tx363270oykox,wEerNlIV,2020-0188,2020-05-08,12:34:56,12:49:34,NA,incomplete,12,filling,1,right,Red_Plus_Dots_4.jpg,Blue_Plus_Chess_2.jpg,Purple_Circle_Dots_1.jpg,right,998.3849998097867,true,NA,true
wEerNlIV,3vll1pieot1c2ogsesvb4yutk6poza,3kibxj1wd97j0df05tx363270oykox,wEerNlIV,2020-0188,2020-05-08,12:34:56,12:49:34,NA,incomplete,13,filling,0,right,Green_Circle_Stripes_1.jpg,Red_Circle_Dots_2.jpg,Purple_Plus_Stripes_4.jpg,right,1016.6900001931936,true,NA,true
wEerNlIV,3vll1pieot1c2ogsesvb4yutk6poza,3kibxj1wd97j0df05tx363270oykox,wEerNlIV,2020-0188,2020-05-08,12:34:56,12:49:34,NA,incomplete,14,filling,1,left,Blue_Circle_Grid_2.jpg,Green_Star_Grid_3.jpg,Red_Circle_Chess_4.jpg,left,1054.5900000724941,true,NA,true
wEerNlIV,3vll1pieot1c2ogsesvb4yutk6poza,3kibxj1wd97j0df05tx363270oykox,wEerNlIV,2020-0188,2020-05-08,12:34:56,12:49:34,NA,incomplete,15,filling,1,right,Red_Star_Dots_1.jpg,Blue_Star_Grid_2.jpg,Green_Triangle_Dots_4.jpg,right,879.2250000406057,true,NA,true
wEerNlIV,3vll1pieot1c2ogsesvb4yutk6poza,3kibxj1wd97j0df05tx363270oykox,wEerNlIV,2020-0188,2020-05-08,12:34:56,12:49:34,NA,incomplete,16,filling,0,right,Red_Circle_Stripes_1.jpg,Green_Circle_Dots_4.jpg,Purple_Triangle_Stripes_3.jpg,right,775.7349999155849,true,NA,true
wEerNlIV,3vll1pieot1c2ogsesvb4yutk6poza,3kibxj1wd97j0df05tx363270oykox,wEerNlIV,2020-0188,2020-05-08,12:34:56,12:49:34,NA,incomplete,17,filling,1,left,Green_Plus_Dots_1.jpg,Blue_Circle_Dots_4.jpg,Purple_Plus_Chess_3.jpg,left,801.075000083074,true,NA,true
wEerNlIV,3vll1pieot1c2ogsesvb4yutk6poza,3kibxj1wd97j0df05tx363270oykox,wEerNlIV,2020-0188,2020-05-08,12:34:56,12:49:34,NA,incomplete,18,filling,1,right,Purple_Circle_Grid_2.jpg,Green_Circle_Stripes_4.jpg,Red_Triangle_Grid_1.jpg,right,951.4600001275539,true,NA,true
wEerNlIV,3vll1pieot1c2ogsesvb4yutk6poza,3kibxj1wd97j0df05tx363270oykox,wEerNlIV,2020-0188,2020-05-08,12:34:56,12:49:34,NA,incomplete,19,filling,1,left,Green_Star_Dots_1.jpg,Purple_Circle_Dots_2.jpg,Red_Star_Chess_4.jpg,left,769.3599998019636,true,NA,true
wEerNlIV,3vll1pieot1c2ogsesvb4yutk6poza,3kibxj1wd97j0df05tx363270oykox,wEerNlIV,2020-0188,2020-05-08,12:34:56,12:49:34,NA,incomplete,20,shape,1,right,Red_Plus_Stripes_3.jpg,Green_Star_Stripes_4.jpg,Purple_Plus_Chess_1.jpg,left,878.1650001183152,false,NA,true
wEerNlIV,3vll1pieot1c2ogsesvb4yutk6poza,3kibxj1wd97j0df05tx363270oykox,wEerNlIV,2020-0188,2020-05-08,12:34:56,12:49:34,NA,incomplete,21,shape,1,left,Blue_Star_Chess_4.jpg,Green_Star_Dots_2.jpg,Red_Circle_Chess_3.jpg,right,1035.7699999585748,false,NA,true
wEerNlIV,3vll1pieot1c2ogsesvb4yutk6poza,3kibxj1wd97j0df05tx363270oykox,wEerNlIV,2020-0188,2020-05-08,12:34:56,12:49:34,NA,incomplete,22,shape,0,right,Red_Plus_Stripes_4.jpg,Blue_Circle_Stripes_1.jpg,Purple_Plus_Dots_3.jpg,right,791.8999998364598,true,NA,true
wEerNlIV,3vll1pieot1c2ogsesvb4yutk6poza,3kibxj1wd97j0df05tx363270oykox,wEerNlIV,2020-0188,2020-05-08,12:34:56,12:49:34,NA,incomplete,23,shape,1,left,Blue_Triangle_Grid_1.jpg,Red_Triangle_Chess_3.jpg,Purple_Star_Grid_2.jpg,left,663.8350000139326,true,NA,true
wEerNlIV,3vll1pieot1c2ogsesvb4yutk6poza,3kibxj1wd97j0df05tx363270oykox,wEerNlIV,2020-0188,2020-05-08,12:34:56,12:49:34,NA,incomplete,24,shape,0,left,Red_Plus_Grid_2.jpg,Green_Plus_Dots_1.jpg,Purple_Circle_Grid_3.jpg,left,652.765000006184,true,NA,true
wEerNlIV,3vll1pieot1c2ogsesvb4yutk6poza,3kibxj1wd97j0df05tx363270oykox,wEerNlIV,2020-0188,2020-05-08,12:34:56,12:49:34,NA,incomplete,25,shape,1,left,Purple_Plus_Chess_4.jpg,Blue_Plus_Dots_3.jpg,Green_Circle_Chess_2.jpg,left,502.16499995440245,true,NA,true
wEerNlIV,3vll1pieot1c2ogsesvb4yutk6poza,3kibxj1wd97j0df05tx363270oykox,wEerNlIV,2020-0188,2020-05-08,12:34:56,12:49:34,NA,incomplete,26,shape,1,right,Green_Plus_Stripes_3.jpg,Red_Circle_Stripes_2.jpg,Blue_Plus_Grid_1.jpg,right,562.66999989748,true,NA,true
wEerNlIV,3vll1pieot1c2ogsesvb4yutk6poza,3kibxj1wd97j0df05tx363270oykox,wEerNlIV,2020-0188,2020-05-08,12:34:56,12:49:34,NA,incomplete,27,shape,1,right,Blue_Triangle_Stripes_1.jpg,Green_Circle_Stripes_4.jpg,Purple_Triangle_Grid_2.jpg,right,488.72500006109476,true,NA,true
wEerNlIV,3vll1pieot1c2ogsesvb4yutk6poza,3kibxj1wd97j0df05tx363270oykox,wEerNlIV,2020-0188,2020-05-08,12:34:56,12:49:34,NA,incomplete,28,shape,0,right,Red_Circle_Stripes_1.jpg,Purple_Triangle_Stripes_2.jpg,Green_Circle_Grid_3.jpg,right,536.6499999072403,true,NA,true
wEerNlIV,3vll1pieot1c2ogsesvb4yutk6poza,3kibxj1wd97j0df05tx363270oykox,wEerNlIV,2020-0188,2020-05-08,12:34:56,12:49:34,NA,incomplete,29,shape,1,left,Red_Star_Grid_2.jpg,Blue_Star_Chess_4.jpg,Green_Plus_Grid_1.jpg,left,500.21500000730157,true,NA,true
wEerNlIV,3vll1pieot1c2ogsesvb4yutk6poza,3kibxj1wd97j0df05tx363270oykox,wEerNlIV,2020-0188,2020-05-08,12:34:56,12:49:34,NA,incomplete,30,shape,1,right,Green_Circle_Grid_2.jpg,Purple_Triangle_Grid_1.jpg,Blue_Circle_Chess_4.jpg,right,490.08000013418496,true,NA,true
wEerNlIV,3vll1pieot1c2ogsesvb4yutk6poza,3kibxj1wd97j0df05tx363270oykox,wEerNlIV,2020-0188,2020-05-08,12:34:56,12:49:34,NA,incomplete,31,shape,0,left,Blue_Circle_Grid_2.jpg,Red_Circle_Dots_1.jpg,Purple_Triangle_Grid_4.jpg,left,559.0450000017881,true,NA,true
wEerNlIV,3vll1pieot1c2ogsesvb4yutk6poza,3kibxj1wd97j0df05tx363270oykox,wEerNlIV,2020-0188,2020-05-08,12:34:56,12:49:34,NA,incomplete,32,shape,1,right,Blue_Circle_Dots_3.jpg,Red_Plus_Dots_1.jpg,Green_Circle_Chess_2.jpg,right,481.89000017009676,true,NA,true
wEerNlIV,3vll1pieot1c2ogsesvb4yutk6poza,3kibxj1wd97j0df05tx363270oykox,wEerNlIV,2020-0188,2020-05-08,12:34:56,12:49:34,NA,incomplete,33,shape,1,right,Blue_Circle_Dots_1.jpg,Green_Triangle_Dots_4.jpg,Purple_Circle_Stripes_3.jpg,right,798.7550001125783,true,NA,true
wEerNlIV,3vll1pieot1c2ogsesvb4yutk6poza,3kibxj1wd97j0df05tx363270oykox,wEerNlIV,2020-0188,2020-05-08,12:34:56,12:49:34,NA,incomplete,34,shape,1,right,Blue_Circle_Chess_2.jpg,Green_Triangle_Chess_3.jpg,Purple_Circle_Dots_1.jpg,right,631.7300000227988,true,NA,true
wEerNlIV,3vll1pieot1c2ogsesvb4yutk6poza,3kibxj1wd97j0df05tx363270oykox,wEerNlIV,2020-0188,2020-05-08,12:34:56,12:49:34,NA,incomplete,35,shape,1,left,Blue_Circle_Dots_4.jpg,Purple_Circle_Stripes_2.jpg,Red_Plus_Dots_1.jpg,left,493.76500002108514,true,NA,true
wEerNlIV,3vll1pieot1c2ogsesvb4yutk6poza,3kibxj1wd97j0df05tx363270oykox,wEerNlIV,2020-0188,2020-05-08,12:34:56,12:49:34,NA,incomplete,36,shape,0,left,Red_Triangle_Stripes_1.jpg,Purple_Triangle_Chess_3.jpg,Blue_Circle_Stripes_4.jpg,right,463.0499999038875,false,NA,true
wEerNlIV,3vll1pieot1c2ogsesvb4yutk6poza,3kibxj1wd97j0df05tx363270oykox,wEerNlIV,2020-0188,2020-05-08,12:34:56,12:49:34,NA,incomplete,37,shape,1,right,Green_Star_Stripes_1.jpg,Blue_Triangle_Stripes_2.jpg,Purple_Star_Chess_4.jpg,right,627.7199999894947,true,NA,true
wEerNlIV,3vll1pieot1c2ogsesvb4yutk6poza,3kibxj1wd97j0df05tx363270oykox,wEerNlIV,2020-0188,2020-05-08,12:34:56,12:49:34,NA,incomplete,38,shape,1,right,Purple_Circle_Chess_2.jpg,Red_Star_Chess_1.jpg,Green_Circle_Stripes_4.jpg,right,596.4150000363588,true,NA,true
wEerNlIV,3vll1pieot1c2ogsesvb4yutk6poza,3kibxj1wd97j0df05tx363270oykox,wEerNlIV,2020-0188,2020-05-08,12:34:56,12:49:34,NA,incomplete,39,shape,1,right,Blue_Star_Chess_2.jpg,Purple_Triangle_Chess_1.jpg,Red_Star_Dots_3.jpg,right,570.3999998513609,true,NA,true
wEerNlIV,3vll1pieot1c2ogsesvb4yutk6poza,3kibxj1wd97j0df05tx363270oykox,wEerNlIV,2020-0188,2020-05-08,12:34:56,12:49:34,NA,incomplete,0,filling,0,right,Blue_Triangle_Chess_2.jpg,Red_Triangle_Stripes_3.jpg,Purple_Star_Chess_4.jpg,left,613.429999910295,false,low,false
wEerNlIV,3vll1pieot1c2ogsesvb4yutk6poza,3kibxj1wd97j0df05tx363270oykox,wEerNlIV,2020-0188,2020-05-08,12:34:56,12:49:34,NA,incomplete,1,filling,1,right,Blue_Triangle_Chess_1.jpg,Purple_Triangle_Dots_4.jpg,Red_Star_Chess_3.jpg,left,735.6750001199543,false,low,false
wEerNlIV,3vll1pieot1c2ogsesvb4yutk6poza,3kibxj1wd97j0df05tx363270oykox,wEerNlIV,2020-0188,2020-05-08,12:34:56,12:49:34,NA,incomplete,2,filling,1,right,Green_Circle_Chess_4.jpg,Purple_Circle_Dots_1.jpg,Blue_Triangle_Chess_3.jpg,right,898.9850000943989,true,low,false
wEerNlIV,3vll1pieot1c2ogsesvb4yutk6poza,3kibxj1wd97j0df05tx363270oykox,wEerNlIV,2020-0188,2020-05-08,12:34:56,12:49:34,NA,incomplete,3,filling,1,right,Green_Star_Chess_4.jpg,Red_Star_Stripes_1.jpg,Purple_Triangle_Chess_3.jpg,left,906.2050001230091,false,low,false
wEerNlIV,3vll1pieot1c2ogsesvb4yutk6poza,3kibxj1wd97j0df05tx363270oykox,wEerNlIV,2020-0188,2020-05-08,12:34:56,12:49:34,NA,incomplete,4,filling,0,left,Purple_Star_Stripes_3.jpg,Blue_Plus_Stripes_4.jpg,Red_Star_Chess_2.jpg,left,918.8349999021739,true,low,false
wEerNlIV,3vll1pieot1c2ogsesvb4yutk6poza,3kibxj1wd97j0df05tx363270oykox,wEerNlIV,2020-0188,2020-05-08,12:34:56,12:49:34,NA,incomplete,5,filling,1,left,Purple_Star_Dots_1.jpg,Red_Circle_Dots_2.jpg,Green_Star_Grid_4.jpg,left,1269.8349999263883,true,low,false
wEerNlIV,3vll1pieot1c2ogsesvb4yutk6poza,3kibxj1wd97j0df05tx363270oykox,wEerNlIV,2020-0188,2020-05-08,12:34:56,12:49:34,NA,incomplete,6,filling,0,left,Purple_Circle_Stripes_3.jpg,Green_Plus_Stripes_1.jpg,Red_Circle_Chess_2.jpg,left,1350.730000063777,true,low,false
wEerNlIV,3vll1pieot1c2ogsesvb4yutk6poza,3kibxj1wd97j0df05tx363270oykox,wEerNlIV,2020-0188,2020-05-08,12:34:56,12:49:34,NA,incomplete,7,filling,1,left,Red_Star_Grid_1.jpg,Blue_Circle_Grid_4.jpg,Green_Star_Chess_3.jpg,left,1234.5199999399483,true,low,false
wEerNlIV,3vll1pieot1c2ogsesvb4yutk6poza,3kibxj1wd97j0df05tx363270oykox,wEerNlIV,2020-0188,2020-05-08,12:34:56,12:49:34,NA,incomplete,8,filling,1,right,Green_Circle_Stripes_2.jpg,Red_Circle_Dots_3.jpg,Purple_Star_Stripes_1.jpg,right,1282.134999986738,true,low,false
wEerNlIV,3vll1pieot1c2ogsesvb4yutk6poza,3kibxj1wd97j0df05tx363270oykox,wEerNlIV,2020-0188,2020-05-08,12:34:56,12:49:34,NA,incomplete,9,filling,0,right,Blue_Star_Stripes_4.jpg,Red_Star_Dots_2.jpg,Purple_Triangle_Stripes_3.jpg,right,841.3799998816103,true,low,false
wEerNlIV,3vll1pieot1c2ogsesvb4yutk6poza,3kibxj1wd97j0df05tx363270oykox,wEerNlIV,2020-0188,2020-05-08,12:34:56,12:49:34,NA,incomplete,10,filling,1,left,Red_Star_Stripes_3.jpg,Blue_Triangle_Stripes_4.jpg,Green_Star_Dots_1.jpg,left,958.6100000888109,true,low,false
wEerNlIV,3vll1pieot1c2ogsesvb4yutk6poza,3kibxj1wd97j0df05tx363270oykox,wEerNlIV,2020-0188,2020-05-08,12:34:56,12:49:34,NA,incomplete,11,filling,1,left,Purple_Star_Stripes_3.jpg,Blue_Triangle_Stripes_1.jpg,Green_Star_Chess_2.jpg,left,1015.4299999121577,true,low,false
wEerNlIV,3vll1pieot1c2ogsesvb4yutk6poza,3kibxj1wd97j0df05tx363270oykox,wEerNlIV,2020-0188,2020-05-08,12:34:56,12:49:34,NA,incomplete,12,filling,1,right,Red_Circle_Stripes_1.jpg,Blue_Circle_Chess_2.jpg,Green_Plus_Stripes_4.jpg,right,806.1250001192093,true,low,false
wEerNlIV,3vll1pieot1c2ogsesvb4yutk6poza,3kibxj1wd97j0df05tx363270oykox,wEerNlIV,2020-0188,2020-05-08,12:34:56,12:49:34,NA,incomplete,13,filling,1,left,Green_Triangle_Dots_4.jpg,Blue_Circle_Dots_3.jpg,Purple_Triangle_Chess_1.jpg,left,913.5249999817461,true,low,false
wEerNlIV,3vll1pieot1c2ogsesvb4yutk6poza,3kibxj1wd97j0df05tx363270oykox,wEerNlIV,2020-0188,2020-05-08,12:34:56,12:49:34,NA,incomplete,14,filling,1,left,Red_Circle_Stripes_3.jpg,Purple_Star_Stripes_1.jpg,Green_Circle_Dots_4.jpg,right,802.7800000272691,false,low,false
wEerNlIV,3vll1pieot1c2ogsesvb4yutk6poza,3kibxj1wd97j0df05tx363270oykox,wEerNlIV,2020-0188,2020-05-08,12:34:56,12:49:34,NA,incomplete,15,filling,1,right,Red_Star_Dots_4.jpg,Green_Star_Grid_3.jpg,Purple_Plus_Dots_1.jpg,right,1294.349999865517,true,low,false
wEerNlIV,3vll1pieot1c2ogsesvb4yutk6poza,3kibxj1wd97j0df05tx363270oykox,wEerNlIV,2020-0188,2020-05-08,12:34:56,12:49:34,NA,incomplete,16,filling,0,left,Purple_Circle_Grid_4.jpg,Blue_Star_Grid_2.jpg,Green_Circle_Chess_3.jpg,left,1351.9049999304116,true,low,false
wEerNlIV,3vll1pieot1c2ogsesvb4yutk6poza,3kibxj1wd97j0df05tx363270oykox,wEerNlIV,2020-0188,2020-05-08,12:34:56,12:49:34,NA,incomplete,17,filling,0,right,Green_Triangle_Stripes_2.jpg,Purple_Triangle_Grid_1.jpg,Red_Star_Stripes_3.jpg,right,968.0600001011044,true,low,false
wEerNlIV,3vll1pieot1c2ogsesvb4yutk6poza,3kibxj1wd97j0df05tx363270oykox,wEerNlIV,2020-0188,2020-05-08,12:34:56,12:49:34,NA,incomplete,18,filling,1,left,Red_Triangle_Stripes_4.jpg,Blue_Plus_Stripes_3.jpg,Purple_Triangle_Dots_1.jpg,left,808.6550000589341,true,low,false
wEerNlIV,3vll1pieot1c2ogsesvb4yutk6poza,3kibxj1wd97j0df05tx363270oykox,wEerNlIV,2020-0188,2020-05-08,12:34:56,12:49:34,NA,incomplete,19,filling,1,left,Green_Plus_Grid_3.jpg,Red_Triangle_Grid_4.jpg,Blue_Plus_Stripes_2.jpg,left,1185.5349999386817,true,low,false
wEerNlIV,3vll1pieot1c2ogsesvb4yutk6poza,3kibxj1wd97j0df05tx363270oykox,wEerNlIV,2020-0188,2020-05-08,12:34:56,12:49:34,NA,incomplete,20,filling,1,right,Red_Triangle_Grid_2.jpg,Purple_Triangle_Stripes_3.jpg,Blue_Circle_Grid_4.jpg,right,777.3199998773634,true,low,false
wEerNlIV,3vll1pieot1c2ogsesvb4yutk6poza,3kibxj1wd97j0df05tx363270oykox,wEerNlIV,2020-0188,2020-05-08,12:34:56,12:49:34,NA,incomplete,21,filling,1,left,Purple_Triangle_Chess_3.jpg,Red_Plus_Chess_4.jpg,Green_Triangle_Grid_2.jpg,left,1177.8599999379367,true,low,false
wEerNlIV,3vll1pieot1c2ogsesvb4yutk6poza,3kibxj1wd97j0df05tx363270oykox,wEerNlIV,2020-0188,2020-05-08,12:34:56,12:49:34,NA,incomplete,22,filling,1,right,Red_Triangle_Stripes_1.jpg,Green_Triangle_Grid_3.jpg,Purple_Star_Stripes_4.jpg,right,915.1000001002103,true,low,false
wEerNlIV,3vll1pieot1c2ogsesvb4yutk6poza,3kibxj1wd97j0df05tx363270oykox,wEerNlIV,2020-0188,2020-05-08,12:34:56,12:49:34,NA,incomplete,23,filling,1,left,Purple_Plus_Chess_3.jpg,Red_Star_Chess_1.jpg,Blue_Plus_Dots_2.jpg,left,1445.5499998293817,true,low,false
wEerNlIV,3vll1pieot1c2ogsesvb4yutk6poza,3kibxj1wd97j0df05tx363270oykox,wEerNlIV,2020-0188,2020-05-08,12:34:56,12:49:34,NA,incomplete,24,filling,1,right,Blue_Triangle_Chess_3.jpg,Purple_Triangle_Stripes_4.jpg,Green_Star_Chess_2.jpg,right,1766.7149999178946,true,low,false
wEerNlIV,3vll1pieot1c2ogsesvb4yutk6poza,3kibxj1wd97j0df05tx363270oykox,wEerNlIV,2020-0188,2020-05-08,12:34:56,12:49:34,NA,incomplete,25,filling,1,right,Green_Circle_Dots_2.jpg,Purple_Circle_Stripes_4.jpg,Blue_Triangle_Dots_3.jpg,right,722.7099998854101,true,low,false
wEerNlIV,3vll1pieot1c2ogsesvb4yutk6poza,3kibxj1wd97j0df05tx363270oykox,wEerNlIV,2020-0188,2020-05-08,12:34:56,12:49:34,NA,incomplete,26,filling,1,left,Red_Star_Dots_3.jpg,Green_Plus_Dots_4.jpg,Purple_Star_Grid_2.jpg,left,771.3800000492483,true,low,false
wEerNlIV,3vll1pieot1c2ogsesvb4yutk6poza,3kibxj1wd97j0df05tx363270oykox,wEerNlIV,2020-0188,2020-05-08,12:34:56,12:49:34,NA,incomplete,27,filling,0,right,Green_Plus_Grid_4.jpg,Purple_Plus_Dots_2.jpg,Blue_Star_Grid_1.jpg,right,1034.6200000494719,true,low,false
wEerNlIV,3vll1pieot1c2ogsesvb4yutk6poza,3kibxj1wd97j0df05tx363270oykox,wEerNlIV,2020-0188,2020-05-08,12:34:56,12:49:34,NA,incomplete,28,filling,1,right,Green_Circle_Stripes_3.jpg,Blue_Circle_Dots_4.jpg,Purple_Star_Stripes_1.jpg,right,905.4149999283254,true,low,false
wEerNlIV,3vll1pieot1c2ogsesvb4yutk6poza,3kibxj1wd97j0df05tx363270oykox,wEerNlIV,2020-0188,2020-05-08,12:34:56,12:49:34,NA,incomplete,29,filling,1,left,Red_Star_Dots_1.jpg,Purple_Circle_Dots_3.jpg,Blue_Star_Grid_2.jpg,left,935.1449999958277,true,low,false
wEerNlIV,3vll1pieot1c2ogsesvb4yutk6poza,3kibxj1wd97j0df05tx363270oykox,wEerNlIV,2020-0188,2020-05-08,12:34:56,12:49:34,NA,incomplete,30,shape,1,right,Red_Star_Stripes_3.jpg,Purple_Triangle_Stripes_1.jpg,Blue_Star_Dots_2.jpg,left,1077.2150000557303,false,low,false
wEerNlIV,3vll1pieot1c2ogsesvb4yutk6poza,3kibxj1wd97j0df05tx363270oykox,wEerNlIV,2020-0188,2020-05-08,12:34:56,12:49:34,NA,incomplete,31,shape,1,left,Blue_Triangle_Chess_1.jpg,Green_Triangle_Dots_2.jpg,Purple_Circle_Chess_3.jpg,right,883.5899999830872,false,low,false
wEerNlIV,3vll1pieot1c2ogsesvb4yutk6poza,3kibxj1wd97j0df05tx363270oykox,wEerNlIV,2020-0188,2020-05-08,12:34:56,12:49:34,NA,incomplete,32,shape,1,right,Purple_Plus_Dots_1.jpg,Red_Star_Dots_4.jpg,Blue_Plus_Chess_2.jpg,left,867.8949999157339,false,low,false
wEerNlIV,3vll1pieot1c2ogsesvb4yutk6poza,3kibxj1wd97j0df05tx363270oykox,wEerNlIV,2020-0188,2020-05-08,12:34:56,12:49:34,NA,incomplete,33,shape,1,left,Blue_Circle_Stripes_3.jpg,Green_Circle_Dots_2.jpg,Purple_Plus_Stripes_1.jpg,left,659.1150001622736,true,low,false
wEerNlIV,3vll1pieot1c2ogsesvb4yutk6poza,3kibxj1wd97j0df05tx363270oykox,wEerNlIV,2020-0188,2020-05-08,12:34:56,12:49:34,NA,incomplete,34,shape,1,right,Blue_Circle_Stripes_1.jpg,Red_Star_Stripes_4.jpg,Purple_Circle_Dots_3.jpg,right,510.99999994039536,true,low,false
wEerNlIV,3vll1pieot1c2ogsesvb4yutk6poza,3kibxj1wd97j0df05tx363270oykox,wEerNlIV,2020-0188,2020-05-08,12:34:56,12:49:34,NA,incomplete,35,shape,1,left,Blue_Triangle_Stripes_4.jpg,Red_Triangle_Grid_1.jpg,Purple_Circle_Stripes_3.jpg,left,547.5000001024455,true,low,false
wEerNlIV,3vll1pieot1c2ogsesvb4yutk6poza,3kibxj1wd97j0df05tx363270oykox,wEerNlIV,2020-0188,2020-05-08,12:34:56,12:49:34,NA,incomplete,36,shape,1,right,Green_Triangle_Dots_2.jpg,Purple_Star_Dots_4.jpg,Red_Triangle_Stripes_1.jpg,right,622.4150001071393,true,low,false
wEerNlIV,3vll1pieot1c2ogsesvb4yutk6poza,3kibxj1wd97j0df05tx363270oykox,wEerNlIV,2020-0188,2020-05-08,12:34:56,12:49:34,NA,incomplete,37,shape,0,left,Blue_Circle_Stripes_4.jpg,Purple_Circle_Dots_1.jpg,Green_Triangle_Stripes_2.jpg,left,646.9600000418723,true,low,false
wEerNlIV,3vll1pieot1c2ogsesvb4yutk6poza,3kibxj1wd97j0df05tx363270oykox,wEerNlIV,2020-0188,2020-05-08,12:34:56,12:49:34,NA,incomplete,38,shape,1,right,Green_Circle_Chess_3.jpg,Red_Star_Chess_4.jpg,Blue_Circle_Grid_1.jpg,right,608.2799998112023,true,low,false
wEerNlIV,3vll1pieot1c2ogsesvb4yutk6poza,3kibxj1wd97j0df05tx363270oykox,wEerNlIV,2020-0188,2020-05-08,12:34:56,12:49:34,NA,incomplete,39,shape,1,left,Purple_Triangle_Grid_4.jpg,Red_Triangle_Dots_1.jpg,Blue_Circle_Grid_2.jpg,left,674.875000026077,true,low,false
wEerNlIV,3vll1pieot1c2ogsesvb4yutk6poza,3kibxj1wd97j0df05tx363270oykox,wEerNlIV,2020-0188,2020-05-08,12:34:56,12:49:34,NA,incomplete,40,shape,1,right,Green_Circle_Chess_2.jpg,Purple_Star_Chess_4.jpg,Blue_Circle_Dots_1.jpg,right,765.760000096634,true,low,false
wEerNlIV,3vll1pieot1c2ogsesvb4yutk6poza,3kibxj1wd97j0df05tx363270oykox,wEerNlIV,2020-0188,2020-05-08,12:34:56,12:49:34,NA,incomplete,41,shape,1,left,Red_Circle_Stripes_4.jpg,Blue_Circle_Chess_3.jpg,Green_Star_Stripes_1.jpg,left,564.7099998313934,true,low,false
wEerNlIV,3vll1pieot1c2ogsesvb4yutk6poza,3kibxj1wd97j0df05tx363270oykox,wEerNlIV,2020-0188,2020-05-08,12:34:56,12:49:34,NA,incomplete,42,shape,1,left,Green_Plus_Stripes_4.jpg,Blue_Plus_Chess_3.jpg,Red_Star_Stripes_1.jpg,left,553.275000071153,true,low,false
wEerNlIV,3vll1pieot1c2ogsesvb4yutk6poza,3kibxj1wd97j0df05tx363270oykox,wEerNlIV,2020-0188,2020-05-08,12:34:56,12:49:34,NA,incomplete,43,shape,0,left,Blue_Circle_Dots_4.jpg,Green_Circle_Chess_3.jpg,Red_Triangle_Dots_2.jpg,left,529.2549999430776,true,low,false
wEerNlIV,3vll1pieot1c2ogsesvb4yutk6poza,3kibxj1wd97j0df05tx363270oykox,wEerNlIV,2020-0188,2020-05-08,12:34:56,12:49:34,NA,incomplete,44,shape,1,right,Red_Plus_Chess_4.jpg,Green_Star_Chess_3.jpg,Blue_Plus_Grid_2.jpg,right,937.015000032261,true,low,false
wEerNlIV,3vll1pieot1c2ogsesvb4yutk6poza,3kibxj1wd97j0df05tx363270oykox,wEerNlIV,2020-0188,2020-05-08,12:34:56,12:49:34,NA,incomplete,45,shape,1,left,Green_Triangle_Dots_2.jpg,Purple_Triangle_Chess_1.jpg,Blue_Circle_Dots_3.jpg,left,545.0899999123067,true,low,false
wEerNlIV,3vll1pieot1c2ogsesvb4yutk6poza,3kibxj1wd97j0df05tx363270oykox,wEerNlIV,2020-0188,2020-05-08,12:34:56,12:49:34,NA,incomplete,46,shape,1,right,Blue_Star_Grid_3.jpg,Green_Plus_Grid_4.jpg,Purple_Star_Stripes_2.jpg,right,658.2349999807775,true,low,false
wEerNlIV,3vll1pieot1c2ogsesvb4yutk6poza,3kibxj1wd97j0df05tx363270oykox,wEerNlIV,2020-0188,2020-05-08,12:34:56,12:49:34,NA,incomplete,47,shape,1,right,Blue_Star_Stripes_2.jpg,Green_Triangle_Stripes_4.jpg,Purple_Star_Grid_3.jpg,right,516.499999910593,true,low,false
wEerNlIV,3vll1pieot1c2ogsesvb4yutk6poza,3kibxj1wd97j0df05tx363270oykox,wEerNlIV,2020-0188,2020-05-08,12:34:56,12:49:34,NA,incomplete,48,shape,1,right,Purple_Triangle_Chess_1.jpg,Blue_Plus_Chess_4.jpg,Green_Triangle_Dots_2.jpg,left,439.8949998430908,false,low,false
wEerNlIV,3vll1pieot1c2ogsesvb4yutk6poza,3kibxj1wd97j0df05tx363270oykox,wEerNlIV,2020-0188,2020-05-08,12:34:56,12:49:34,NA,incomplete,49,shape,1,left,Purple_Plus_Grid_4.jpg,Red_Plus_Chess_2.jpg,Green_Star_Grid_1.jpg,left,591.3499998860061,true,low,false
wEerNlIV,3vll1pieot1c2ogsesvb4yutk6poza,3kibxj1wd97j0df05tx363270oykox,wEerNlIV,2020-0188,2020-05-08,12:34:56,12:49:34,NA,incomplete,50,shape,1,right,Green_Circle_Dots_4.jpg,Purple_Plus_Dots_2.jpg,Red_Circle_Grid_1.jpg,right,599.0649999585003,true,low,false
wEerNlIV,3vll1pieot1c2ogsesvb4yutk6poza,3kibxj1wd97j0df05tx363270oykox,wEerNlIV,2020-0188,2020-05-08,12:34:56,12:49:34,NA,incomplete,51,shape,1,left,Purple_Circle_Chess_2.jpg,Green_Circle_Stripes_1.jpg,Red_Plus_Chess_3.jpg,left,575.1399998553097,true,low,false
wEerNlIV,3vll1pieot1c2ogsesvb4yutk6poza,3kibxj1wd97j0df05tx363270oykox,wEerNlIV,2020-0188,2020-05-08,12:34:56,12:49:34,NA,incomplete,52,shape,0,right,Green_Triangle_Stripes_2.jpg,Red_Circle_Stripes_4.jpg,Blue_Triangle_Chess_3.jpg,right,649.3500000797212,true,low,false
wEerNlIV,3vll1pieot1c2ogsesvb4yutk6poza,3kibxj1wd97j0df05tx363270oykox,wEerNlIV,2020-0188,2020-05-08,12:34:56,12:49:34,NA,incomplete,53,shape,1,right,Blue_Circle_Chess_3.jpg,Green_Star_Chess_2.jpg,Red_Circle_Dots_1.jpg,right,620.5300001893193,true,low,false
wEerNlIV,3vll1pieot1c2ogsesvb4yutk6poza,3kibxj1wd97j0df05tx363270oykox,wEerNlIV,2020-0188,2020-05-08,12:34:56,12:49:34,NA,incomplete,54,shape,1,right,Green_Star_Grid_1.jpg,Blue_Circle_Grid_2.jpg,Red_Star_Dots_3.jpg,right,750.5899998359382,true,low,false
wEerNlIV,3vll1pieot1c2ogsesvb4yutk6poza,3kibxj1wd97j0df05tx363270oykox,wEerNlIV,2020-0188,2020-05-08,12:34:56,12:49:34,NA,incomplete,55,shape,1,right,Green_Star_Grid_3.jpg,Purple_Circle_Grid_2.jpg,Blue_Star_Chess_1.jpg,right,546.2400000542402,true,low,false
wEerNlIV,3vll1pieot1c2ogsesvb4yutk6poza,3kibxj1wd97j0df05tx363270oykox,wEerNlIV,2020-0188,2020-05-08,12:34:56,12:49:34,NA,incomplete,56,shape,0,left,Purple_Triangle_Dots_3.jpg,Green_Triangle_Stripes_1.jpg,Blue_Circle_Dots_2.jpg,left,774.0149998571724,true,low,false
wEerNlIV,3vll1pieot1c2ogsesvb4yutk6poza,3kibxj1wd97j0df05tx363270oykox,wEerNlIV,2020-0188,2020-05-08,12:34:56,12:49:34,NA,incomplete,57,shape,0,left,Green_Star_Chess_2.jpg,Blue_Star_Grid_1.jpg,Red_Circle_Chess_3.jpg,left,612.0299999602139,true,low,false
wEerNlIV,3vll1pieot1c2ogsesvb4yutk6poza,3kibxj1wd97j0df05tx363270oykox,wEerNlIV,2020-0188,2020-05-08,12:34:56,12:49:34,NA,incomplete,58,shape,1,right,Purple_Plus_Chess_4.jpg,Blue_Circle_Chess_1.jpg,Red_Plus_Grid_2.jpg,left,1066.6700000874698,false,low,false
wEerNlIV,3vll1pieot1c2ogsesvb4yutk6poza,3kibxj1wd97j0df05tx363270oykox,wEerNlIV,2020-0188,2020-05-08,12:34:56,12:49:34,NA,incomplete,59,shape,1,left,Purple_Star_Dots_1.jpg,Blue_Star_Grid_4.jpg,Red_Circle_Dots_2.jpg,right,1175.275000045076,false,low,false
wEerNlIV,3vll1pieot1c2ogsesvb4yutk6poza,3kibxj1wd97j0df05tx363270oykox,wEerNlIV,2020-0188,2020-05-08,12:34:56,12:49:34,NA,incomplete,60,filling,1,left,Green_Circle_Chess_4.jpg,Blue_Triangle_Chess_2.jpg,Purple_Circle_Grid_3.jpg,right,638.6150000616908,false,low,false
wEerNlIV,3vll1pieot1c2ogsesvb4yutk6poza,3kibxj1wd97j0df05tx363270oykox,wEerNlIV,2020-0188,2020-05-08,12:34:56,12:49:34,NA,incomplete,61,filling,1,right,Red_Circle_Stripes_2.jpg,Green_Circle_Grid_3.jpg,Purple_Plus_Stripes_4.jpg,left,498.19499999284744,false,low,false
wEerNlIV,3vll1pieot1c2ogsesvb4yutk6poza,3kibxj1wd97j0df05tx363270oykox,wEerNlIV,2020-0188,2020-05-08,12:34:56,12:49:34,NA,incomplete,62,filling,1,left,Purple_Triangle_Chess_4.jpg,Blue_Star_Chess_1.jpg,Green_Triangle_Dots_3.jpg,left,734.7150000277907,true,low,false
wEerNlIV,3vll1pieot1c2ogsesvb4yutk6poza,3kibxj1wd97j0df05tx363270oykox,wEerNlIV,2020-0188,2020-05-08,12:34:56,12:49:34,NA,incomplete,63,filling,1,left,Purple_Star_Dots_4.jpg,Blue_Triangle_Dots_3.jpg,Red_Star_Chess_2.jpg,left,683.6850000545382,true,low,false
wEerNlIV,3vll1pieot1c2ogsesvb4yutk6poza,3kibxj1wd97j0df05tx363270oykox,wEerNlIV,2020-0188,2020-05-08,12:34:56,12:49:34,NA,incomplete,64,filling,0,right,Purple_Plus_Stripes_3.jpg,Blue_Plus_Grid_4.jpg,Green_Triangle_Stripes_1.jpg,left,1110.710000153631,false,low,false
wEerNlIV,3vll1pieot1c2ogsesvb4yutk6poza,3kibxj1wd97j0df05tx363270oykox,wEerNlIV,2020-0188,2020-05-08,12:34:56,12:49:34,NA,incomplete,65,filling,0,right,Purple_Triangle_Chess_2.jpg,Green_Triangle_Stripes_1.jpg,Red_Circle_Chess_4.jpg,right,1056.5700000151992,true,low,false
wEerNlIV,3vll1pieot1c2ogsesvb4yutk6poza,3kibxj1wd97j0df05tx363270oykox,wEerNlIV,2020-0188,2020-05-08,12:34:56,12:49:34,NA,incomplete,66,filling,1,right,Green_Plus_Stripes_3.jpg,Blue_Plus_Dots_2.jpg,Red_Circle_Stripes_1.jpg,left,1181.194999953732,false,low,false
wEerNlIV,3vll1pieot1c2ogsesvb4yutk6poza,3kibxj1wd97j0df05tx363270oykox,wEerNlIV,2020-0188,2020-05-08,12:34:56,12:49:34,NA,incomplete,67,filling,1,right,Green_Circle_Dots_1.jpg,Purple_Circle_Chess_3.jpg,Red_Star_Dots_4.jpg,right,784.9250000435859,true,low,false
wEerNlIV,3vll1pieot1c2ogsesvb4yutk6poza,3kibxj1wd97j0df05tx363270oykox,wEerNlIV,2020-0188,2020-05-08,12:34:56,12:49:34,NA,incomplete,68,filling,1,left,Red_Star_Grid_2.jpg,Blue_Circle_Grid_4.jpg,Green_Star_Stripes_1.jpg,left,931.6250002011657,true,low,false
wEerNlIV,3vll1pieot1c2ogsesvb4yutk6poza,3kibxj1wd97j0df05tx363270oykox,wEerNlIV,2020-0188,2020-05-08,12:34:56,12:49:34,NA,incomplete,69,filling,0,left,Red_Star_Stripes_4.jpg,Green_Plus_Stripes_1.jpg,Blue_Star_Grid_2.jpg,left,806.2299999874085,true,low,false
wEerNlIV,3vll1pieot1c2ogsesvb4yutk6poza,3kibxj1wd97j0df05tx363270oykox,wEerNlIV,2020-0188,2020-05-08,12:34:56,12:49:34,NA,incomplete,70,filling,0,left,Green_Circle_Stripes_2.jpg,Red_Star_Stripes_4.jpg,Blue_Circle_Chess_3.jpg,left,842.8099998272955,true,low,false
wEerNlIV,3vll1pieot1c2ogsesvb4yutk6poza,3kibxj1wd97j0df05tx363270oykox,wEerNlIV,2020-0188,2020-05-08,12:34:56,12:49:34,NA,incomplete,71,filling,1,left,Green_Circle_Stripes_3.jpg,Purple_Plus_Stripes_4.jpg,Blue_Circle_Dots_2.jpg,right,505.3600000683218,false,low,false
wEerNlIV,3vll1pieot1c2ogsesvb4yutk6poza,3kibxj1wd97j0df05tx363270oykox,wEerNlIV,2020-0188,2020-05-08,12:34:56,12:49:34,NA,incomplete,72,filling,1,right,Purple_Star_Chess_2.jpg,Green_Star_Grid_4.jpg,Red_Triangle_Chess_1.jpg,right,1134.9650002084672,true,low,false
wEerNlIV,3vll1pieot1c2ogsesvb4yutk6poza,3kibxj1wd97j0df05tx363270oykox,wEerNlIV,2020-0188,2020-05-08,12:34:56,12:49:34,NA,incomplete,73,filling,1,right,Blue_Star_Stripes_2.jpg,Green_Star_Dots_1.jpg,Purple_Triangle_Stripes_4.jpg,right,747.7149998303503,true,low,false
wEerNlIV,3vll1pieot1c2ogsesvb4yutk6poza,3kibxj1wd97j0df05tx363270oykox,wEerNlIV,2020-0188,2020-05-08,12:34:56,12:49:34,NA,incomplete,74,filling,1,left,Green_Plus_Stripes_4.jpg,Red_Star_Stripes_1.jpg,Blue_Plus_Chess_3.jpg,left,1245.195000199601,true,low,false
wEerNlIV,3vll1pieot1c2ogsesvb4yutk6poza,3kibxj1wd97j0df05tx363270oykox,wEerNlIV,2020-0188,2020-05-08,12:34:56,12:49:34,NA,incomplete,75,filling,1,left,Purple_Circle_Stripes_2.jpg,Red_Star_Stripes_1.jpg,Blue_Circle_Dots_3.jpg,left,883.075000019744,true,low,false
wEerNlIV,3vll1pieot1c2ogsesvb4yutk6poza,3kibxj1wd97j0df05tx363270oykox,wEerNlIV,2020-0188,2020-05-08,12:34:56,12:49:34,NA,incomplete,76,filling,1,right,Green_Triangle_Stripes_4.jpg,Blue_Triangle_Chess_3.jpg,Purple_Plus_Stripes_1.jpg,right,1218.39000005275,true,low,false
wEerNlIV,3vll1pieot1c2ogsesvb4yutk6poza,3kibxj1wd97j0df05tx363270oykox,wEerNlIV,2020-0188,2020-05-08,12:34:56,12:49:34,NA,incomplete,77,filling,1,left,Red_Star_Stripes_1.jpg,Purple_Circle_Stripes_2.jpg,Green_Star_Grid_3.jpg,left,974.7599998954684,true,low,false
wEerNlIV,3vll1pieot1c2ogsesvb4yutk6poza,3kibxj1wd97j0df05tx363270oykox,wEerNlIV,2020-0188,2020-05-08,12:34:56,12:49:34,NA,incomplete,78,filling,1,right,Blue_Circle_Grid_3.jpg,Green_Circle_Stripes_1.jpg,Purple_Triangle_Grid_2.jpg,right,1339.6299998275936,true,low,false
wEerNlIV,3vll1pieot1c2ogsesvb4yutk6poza,3kibxj1wd97j0df05tx363270oykox,wEerNlIV,2020-0188,2020-05-08,12:34:56,12:49:34,NA,incomplete,79,filling,1,right,Blue_Circle_Dots_2.jpg,Green_Circle_Grid_4.jpg,Purple_Plus_Dots_1.jpg,right,824.0900000091642,true,low,false
wEerNlIV,3vll1pieot1c2ogsesvb4yutk6poza,3kibxj1wd97j0df05tx363270oykox,wEerNlIV,2020-0188,2020-05-08,12:34:56,12:49:34,NA,incomplete,80,filling,0,right,Purple_Star_Stripes_3.jpg,Blue_Star_Dots_4.jpg,Red_Triangle_Stripes_1.jpg,right,866.2449999246746,true,low,false
wEerNlIV,3vll1pieot1c2ogsesvb4yutk6poza,3kibxj1wd97j0df05tx363270oykox,wEerNlIV,2020-0188,2020-05-08,12:34:56,12:49:34,NA,incomplete,81,filling,1,left,Green_Star_Dots_1.jpg,Blue_Plus_Dots_2.jpg,Purple_Star_Chess_4.jpg,left,754.2799999937415,true,low,false
wEerNlIV,3vll1pieot1c2ogsesvb4yutk6poza,3kibxj1wd97j0df05tx363270oykox,wEerNlIV,2020-0188,2020-05-08,12:34:56,12:49:34,NA,incomplete,82,filling,0,right,Red_Circle_Stripes_4.jpg,Purple_Circle_Dots_3.jpg,Green_Plus_Stripes_2.jpg,right,781.480000121519,true,low,false
wEerNlIV,3vll1pieot1c2ogsesvb4yutk6poza,3kibxj1wd97j0df05tx363270oykox,wEerNlIV,2020-0188,2020-05-08,12:34:56,12:49:34,NA,incomplete,83,filling,1,right,Red_Triangle_Dots_3.jpg,Purple_Triangle_Stripes_1.jpg,Blue_Circle_Dots_2.jpg,right,743.8900000415742,true,low,false
wEerNlIV,3vll1pieot1c2ogsesvb4yutk6poza,3kibxj1wd97j0df05tx363270oykox,wEerNlIV,2020-0188,2020-05-08,12:34:56,12:49:34,NA,incomplete,84,filling,1,right,Red_Triangle_Grid_2.jpg,Purple_Triangle_Dots_1.jpg,Green_Plus_Grid_4.jpg,left,1102.089999942109,false,low,false
wEerNlIV,3vll1pieot1c2ogsesvb4yutk6poza,3kibxj1wd97j0df05tx363270oykox,wEerNlIV,2020-0188,2020-05-08,12:34:56,12:49:34,NA,incomplete,85,filling,1,right,Blue_Circle_Grid_1.jpg,Red_Circle_Chess_4.jpg,Purple_Plus_Grid_3.jpg,left,666.0899999551475,false,low,false
wEerNlIV,3vll1pieot1c2ogsesvb4yutk6poza,3kibxj1wd97j0df05tx363270oykox,wEerNlIV,2020-0188,2020-05-08,12:34:56,12:49:34,NA,incomplete,86,filling,1,left,Blue_Plus_Chess_1.jpg,Green_Star_Chess_3.jpg,Red_Plus_Grid_2.jpg,left,993.9999999478459,true,low,false
wEerNlIV,3vll1pieot1c2ogsesvb4yutk6poza,3kibxj1wd97j0df05tx363270oykox,wEerNlIV,2020-0188,2020-05-08,12:34:56,12:49:34,NA,incomplete,87,filling,1,left,Red_Circle_Stripes_3.jpg,Purple_Plus_Stripes_1.jpg,Blue_Circle_Dots_2.jpg,left,966.319999890402,true,low,false
wEerNlIV,3vll1pieot1c2ogsesvb4yutk6poza,3kibxj1wd97j0df05tx363270oykox,wEerNlIV,2020-0188,2020-05-08,12:34:56,12:49:34,NA,incomplete,88,filling,1,left,Blue_Circle_Dots_1.jpg,Red_Triangle_Dots_4.jpg,Purple_Circle_Grid_3.jpg,left,707.0249998942018,true,low,false
wEerNlIV,3vll1pieot1c2ogsesvb4yutk6poza,3kibxj1wd97j0df05tx363270oykox,wEerNlIV,2020-0188,2020-05-08,12:34:56,12:49:34,NA,incomplete,89,filling,1,right,Green_Circle_Grid_4.jpg,Red_Circle_Chess_3.jpg,Purple_Triangle_Grid_1.jpg,right,948.5400000121444,true,low,false
wEerNlIV,3vll1pieot1c2ogsesvb4yutk6poza,3kibxj1wd97j0df05tx363270oykox,wEerNlIV,2020-0188,2020-05-08,12:34:56,12:49:34,NA,incomplete,90,shape,1,right,Red_Plus_Chess_3.jpg,Blue_Circle_Chess_1.jpg,Green_Plus_Dots_2.jpg,left,1237.5699998810887,false,low,false
wEerNlIV,3vll1pieot1c2ogsesvb4yutk6poza,3kibxj1wd97j0df05tx363270oykox,wEerNlIV,2020-0188,2020-05-08,12:34:56,12:49:34,NA,incomplete,91,shape,1,right,Purple_Circle_Dots_2.jpg,Blue_Star_Dots_4.jpg,Green_Circle_Chess_3.jpg,left,787.914999993518,false,low,false
wEerNlIV,3vll1pieot1c2ogsesvb4yutk6poza,3kibxj1wd97j0df05tx363270oykox,wEerNlIV,2020-0188,2020-05-08,12:34:56,12:49:34,NA,incomplete,92,shape,1,left,Red_Circle_Stripes_4.jpg,Purple_Circle_Chess_2.jpg,Blue_Plus_Stripes_1.jpg,left,498.44500003382564,true,low,false
wEerNlIV,3vll1pieot1c2ogsesvb4yutk6poza,3kibxj1wd97j0df05tx363270oykox,wEerNlIV,2020-0188,2020-05-08,12:34:56,12:49:34,NA,incomplete,93,shape,1,right,Purple_Triangle_Stripes_4.jpg,Red_Plus_Stripes_2.jpg,Green_Triangle_Chess_3.jpg,right,679.5300000812858,true,low,false
wEerNlIV,3vll1pieot1c2ogsesvb4yutk6poza,3kibxj1wd97j0df05tx363270oykox,wEerNlIV,2020-0188,2020-05-08,12:34:56,12:49:34,NA,incomplete,94,shape,1,left,Red_Star_Chess_2.jpg,Green_Star_Grid_1.jpg,Blue_Triangle_Chess_3.jpg,left,671.474999981001,true,low,false
wEerNlIV,3vll1pieot1c2ogsesvb4yutk6poza,3kibxj1wd97j0df05tx363270oykox,wEerNlIV,2020-0188,2020-05-08,12:34:56,12:49:34,NA,incomplete,95,shape,1,left,Red_Triangle_Dots_4.jpg,Green_Triangle_Grid_3.jpg,Blue_Star_Dots_2.jpg,left,647.025000071153,true,low,false
wEerNlIV,3vll1pieot1c2ogsesvb4yutk6poza,3kibxj1wd97j0df05tx363270oykox,wEerNlIV,2020-0188,2020-05-08,12:34:56,12:49:34,NA,incomplete,96,shape,1,left,Purple_Triangle_Stripes_4.jpg,Green_Triangle_Grid_1.jpg,Blue_Circle_Stripes_2.jpg,left,796.1850001011044,true,low,false
wEerNlIV,3vll1pieot1c2ogsesvb4yutk6poza,3kibxj1wd97j0df05tx363270oykox,wEerNlIV,2020-0188,2020-05-08,12:34:56,12:49:34,NA,incomplete,97,shape,0,right,Blue_Circle_Dots_3.jpg,Red_Plus_Dots_2.jpg,Purple_Circle_Chess_4.jpg,right,698.450000025332,true,low,false
wEerNlIV,3vll1pieot1c2ogsesvb4yutk6poza,3kibxj1wd97j0df05tx363270oykox,wEerNlIV,2020-0188,2020-05-08,12:34:56,12:49:34,NA,incomplete,98,shape,1,left,Blue_Plus_Chess_3.jpg,Red_Plus_Dots_1.jpg,Green_Circle_Chess_2.jpg,left,699.3449998553842,true,low,false
wEerNlIV,3vll1pieot1c2ogsesvb4yutk6poza,3kibxj1wd97j0df05tx363270oykox,wEerNlIV,2020-0188,2020-05-08,12:34:56,12:49:34,NA,incomplete,99,shape,1,right,Blue_Circle_Chess_2.jpg,Green_Triangle_Chess_4.jpg,Purple_Circle_Grid_1.jpg,right,777.3899999447167,true,low,false
wEerNlIV,3vll1pieot1c2ogsesvb4yutk6poza,3kibxj1wd97j0df05tx363270oykox,wEerNlIV,2020-0188,2020-05-08,12:34:56,12:49:34,NA,incomplete,100,shape,1,left,Green_Triangle_Stripes_1.jpg,Blue_Triangle_Chess_4.jpg,Purple_Circle_Stripes_3.jpg,left,705.4899998474866,true,low,false
wEerNlIV,3vll1pieot1c2ogsesvb4yutk6poza,3kibxj1wd97j0df05tx363270oykox,wEerNlIV,2020-0188,2020-05-08,12:34:56,12:49:34,NA,incomplete,101,shape,1,left,Red_Triangle_Grid_2.jpg,Green_Triangle_Dots_1.jpg,Blue_Circle_Grid_4.jpg,left,685.34000008367,true,low,false
wEerNlIV,3vll1pieot1c2ogsesvb4yutk6poza,3kibxj1wd97j0df05tx363270oykox,wEerNlIV,2020-0188,2020-05-08,12:34:56,12:49:34,NA,incomplete,102,shape,1,right,Blue_Plus_Stripes_2.jpg,Green_Triangle_Stripes_4.jpg,Red_Plus_Grid_3.jpg,right,723.0050000362098,true,low,false
wEerNlIV,3vll1pieot1c2ogsesvb4yutk6poza,3kibxj1wd97j0df05tx363270oykox,wEerNlIV,2020-0188,2020-05-08,12:34:56,12:49:34,NA,incomplete,103,shape,1,left,Blue_Plus_Chess_3.jpg,Purple_Plus_Dots_4.jpg,Green_Circle_Chess_1.jpg,left,1091.465000063181,true,low,false
wEerNlIV,3vll1pieot1c2ogsesvb4yutk6poza,3kibxj1wd97j0df05tx363270oykox,wEerNlIV,2020-0188,2020-05-08,12:34:56,12:49:34,NA,incomplete,104,shape,1,right,Green_Triangle_Chess_1.jpg,Blue_Star_Chess_4.jpg,Red_Triangle_Grid_2.jpg,right,944.9849999509752,true,low,false
wEerNlIV,3vll1pieot1c2ogsesvb4yutk6poza,3kibxj1wd97j0df05tx363270oykox,wEerNlIV,2020-0188,2020-05-08,12:34:56,12:49:34,NA,incomplete,105,shape,1,right,Purple_Triangle_Grid_1.jpg,Blue_Plus_Grid_4.jpg,Red_Triangle_Dots_2.jpg,right,988.1049999967217,true,low,false
wEerNlIV,3vll1pieot1c2ogsesvb4yutk6poza,3kibxj1wd97j0df05tx363270oykox,wEerNlIV,2020-0188,2020-05-08,12:34:56,12:49:34,NA,incomplete,106,shape,0,right,Red_Circle_Grid_1.jpg,Blue_Plus_Grid_2.jpg,Green_Circle_Stripes_3.jpg,right,812.5150001142174,true,low,false
wEerNlIV,3vll1pieot1c2ogsesvb4yutk6poza,3kibxj1wd97j0df05tx363270oykox,wEerNlIV,2020-0188,2020-05-08,12:34:56,12:49:34,NA,incomplete,107,shape,1,left,Blue_Circle_Grid_4.jpg,Red_Circle_Stripes_3.jpg,Purple_Plus_Grid_1.jpg,left,662.4000000301749,true,low,false
wEerNlIV,3vll1pieot1c2ogsesvb4yutk6poza,3kibxj1wd97j0df05tx363270oykox,wEerNlIV,2020-0188,2020-05-08,12:34:56,12:49:34,NA,incomplete,108,shape,1,left,Blue_Circle_Grid_2.jpg,Red_Circle_Dots_1.jpg,Green_Triangle_Grid_4.jpg,left,609.1699998360127,true,low,false
wEerNlIV,3vll1pieot1c2ogsesvb4yutk6poza,3kibxj1wd97j0df05tx363270oykox,wEerNlIV,2020-0188,2020-05-08,12:34:56,12:49:34,NA,incomplete,109,shape,1,right,Red_Plus_Stripes_2.jpg,Blue_Circle_Stripes_3.jpg,Green_Plus_Dots_1.jpg,right,605.6200000457466,true,low,false
wEerNlIV,3vll1pieot1c2ogsesvb4yutk6poza,3kibxj1wd97j0df05tx363270oykox,wEerNlIV,2020-0188,2020-05-08,12:34:56,12:49:34,NA,incomplete,110,shape,0,right,Green_Circle_Stripes_4.jpg,Red_Plus_Stripes_3.jpg,Purple_Circle_Chess_1.jpg,right,593.1150000542402,true,low,false
wEerNlIV,3vll1pieot1c2ogsesvb4yutk6poza,3kibxj1wd97j0df05tx363270oykox,wEerNlIV,2020-0188,2020-05-08,12:34:56,12:49:34,NA,incomplete,111,shape,1,left,Blue_Plus_Grid_2.jpg,Purple_Plus_Chess_3.jpg,Green_Circle_Grid_4.jpg,left,538.620000006631,true,low,false
wEerNlIV,3vll1pieot1c2ogsesvb4yutk6poza,3kibxj1wd97j0df05tx363270oykox,wEerNlIV,2020-0188,2020-05-08,12:34:56,12:49:34,NA,incomplete,112,shape,1,left,Green_Star_Grid_3.jpg,Purple_Star_Dots_1.jpg,Blue_Triangle_Grid_2.jpg,left,629.3150000274181,true,low,false
wEerNlIV,3vll1pieot1c2ogsesvb4yutk6poza,3kibxj1wd97j0df05tx363270oykox,wEerNlIV,2020-0188,2020-05-08,12:34:56,12:49:34,NA,incomplete,113,shape,1,left,Blue_Plus_Dots_3.jpg,Red_Plus_Chess_1.jpg,Purple_Triangle_Dots_4.jpg,left,610.8550000935793,true,low,false
wEerNlIV,3vll1pieot1c2ogsesvb4yutk6poza,3kibxj1wd97j0df05tx363270oykox,wEerNlIV,2020-0188,2020-05-08,12:34:56,12:49:34,NA,incomplete,114,shape,0,right,Green_Circle_Chess_3.jpg,Blue_Star_Chess_4.jpg,Red_Circle_Grid_1.jpg,right,596.9399998430163,true,low,false
wEerNlIV,3vll1pieot1c2ogsesvb4yutk6poza,3kibxj1wd97j0df05tx363270oykox,wEerNlIV,2020-0188,2020-05-08,12:34:56,12:49:34,NA,incomplete,115,shape,1,left,Green_Circle_Stripes_3.jpg,Red_Circle_Grid_4.jpg,Blue_Plus_Stripes_2.jpg,left,908.7100001052022,true,low,false
wEerNlIV,3vll1pieot1c2ogsesvb4yutk6poza,3kibxj1wd97j0df05tx363270oykox,wEerNlIV,2020-0188,2020-05-08,12:34:56,12:49:34,NA,incomplete,116,shape,0,right,Purple_Star_Chess_4.jpg,Blue_Plus_Chess_3.jpg,Red_Star_Dots_2.jpg,right,526.0000000707805,true,low,false
wEerNlIV,3vll1pieot1c2ogsesvb4yutk6poza,3kibxj1wd97j0df05tx363270oykox,wEerNlIV,2020-0188,2020-05-08,12:34:56,12:49:34,NA,incomplete,117,shape,1,right,Red_Plus_Chess_3.jpg,Blue_Star_Chess_2.jpg,Green_Plus_Stripes_4.jpg,right,670.2199999708682,true,low,false
wEerNlIV,3vll1pieot1c2ogsesvb4yutk6poza,3kibxj1wd97j0df05tx363270oykox,wEerNlIV,2020-0188,2020-05-08,12:34:56,12:49:34,NA,incomplete,118,shape,1,left,Green_Circle_Grid_3.jpg,Red_Circle_Chess_1.jpg,Blue_Triangle_Grid_2.jpg,left,607.1250000968575,true,low,false
wEerNlIV,3vll1pieot1c2ogsesvb4yutk6poza,3kibxj1wd97j0df05tx363270oykox,wEerNlIV,2020-0188,2020-05-08,12:34:56,12:49:34,NA,incomplete,119,shape,0,left,Blue_Circle_Grid_4.jpg,Purple_Circle_Dots_2.jpg,Green_Triangle_Grid_3.jpg,left,609.7399999853224,true,low,false
wEerNlIV,3vll1pieot1c2ogsesvb4yutk6poza,3kibxj1wd97j0df05tx363270oykox,wEerNlIV,2020-0188,2020-05-08,12:34:56,12:49:34,NA,incomplete,120,filling,1,left,Green_Star_Grid_4.jpg,Purple_Plus_Grid_1.jpg,Blue_Star_Chess_3.jpg,right,738.6950000654906,false,low,false
wEerNlIV,3vll1pieot1c2ogsesvb4yutk6poza,3kibxj1wd97j0df05tx363270oykox,wEerNlIV,2020-0188,2020-05-08,12:34:56,12:49:34,NA,incomplete,121,filling,1,left,Green_Circle_Grid_4.jpg,Purple_Triangle_Grid_2.jpg,Red_Circle_Dots_1.jpg,left,1014.7450000513345,true,low,false
wEerNlIV,3vll1pieot1c2ogsesvb4yutk6poza,3kibxj1wd97j0df05tx363270oykox,wEerNlIV,2020-0188,2020-05-08,12:34:56,12:49:34,NA,incomplete,122,filling,1,right,Blue_Plus_Stripes_2.jpg,Purple_Plus_Dots_4.jpg,Red_Circle_Stripes_1.jpg,left,1022.2599999979138,false,low,false
wEerNlIV,3vll1pieot1c2ogsesvb4yutk6poza,3kibxj1wd97j0df05tx363270oykox,wEerNlIV,2020-0188,2020-05-08,12:34:56,12:49:34,NA,incomplete,123,filling,1,right,Red_Star_Chess_1.jpg,Purple_Star_Dots_2.jpg,Blue_Plus_Chess_4.jpg,right,990.4950000345707,true,low,false
wEerNlIV,3vll1pieot1c2ogsesvb4yutk6poza,3kibxj1wd97j0df05tx363270oykox,wEerNlIV,2020-0188,2020-05-08,12:34:56,12:49:34,NA,incomplete,124,filling,1,left,Blue_Circle_Chess_4.jpg,Green_Star_Chess_1.jpg,Purple_Circle_Dots_3.jpg,left,1181.8649999331683,true,low,false
wEerNlIV,3vll1pieot1c2ogsesvb4yutk6poza,3kibxj1wd97j0df05tx363270oykox,wEerNlIV,2020-0188,2020-05-08,12:34:56,12:49:34,NA,incomplete,125,filling,1,right,Green_Circle_Chess_4.jpg,Red_Circle_Stripes_1.jpg,Blue_Triangle_Chess_2.jpg,right,1105.3850001189858,true,low,false
wEerNlIV,3vll1pieot1c2ogsesvb4yutk6poza,3kibxj1wd97j0df05tx363270oykox,wEerNlIV,2020-0188,2020-05-08,12:34:56,12:49:34,NA,incomplete,126,filling,1,right,Red_Circle_Stripes_2.jpg,Green_Circle_Chess_1.jpg,Blue_Triangle_Stripes_4.jpg,right,1119.3500000517815,true,low,false
wEerNlIV,3vll1pieot1c2ogsesvb4yutk6poza,3kibxj1wd97j0df05tx363270oykox,wEerNlIV,2020-0188,2020-05-08,12:34:56,12:49:34,NA,incomplete,127,filling,1,right,Purple_Star_Stripes_4.jpg,Blue_Star_Grid_3.jpg,Red_Triangle_Stripes_1.jpg,right,954.6150001697242,true,low,false
wEerNlIV,3vll1pieot1c2ogsesvb4yutk6poza,3kibxj1wd97j0df05tx363270oykox,wEerNlIV,2020-0188,2020-05-08,12:34:56,12:49:34,NA,incomplete,128,filling,1,right,Purple_Star_Dots_2.jpg,Green_Star_Stripes_3.jpg,Blue_Circle_Dots_1.jpg,right,855.2900000941008,true,low,false
wEerNlIV,3vll1pieot1c2ogsesvb4yutk6poza,3kibxj1wd97j0df05tx363270oykox,wEerNlIV,2020-0188,2020-05-08,12:34:56,12:49:34,NA,incomplete,129,filling,1,left,Purple_Circle_Stripes_1.jpg,Green_Star_Stripes_4.jpg,Blue_Circle_Dots_3.jpg,left,934.4200000632554,true,low,false
wEerNlIV,3vll1pieot1c2ogsesvb4yutk6poza,3kibxj1wd97j0df05tx363270oykox,wEerNlIV,2020-0188,2020-05-08,12:34:56,12:49:34,NA,incomplete,130,filling,1,left,Green_Circle_Chess_1.jpg,Red_Triangle_Chess_2.jpg,Purple_Circle_Grid_4.jpg,left,861.6150000598282,true,low,false
wEerNlIV,3vll1pieot1c2ogsesvb4yutk6poza,3kibxj1wd97j0df05tx363270oykox,wEerNlIV,2020-0188,2020-05-08,12:34:56,12:49:34,NA,incomplete,131,filling,1,left,Green_Circle_Dots_2.jpg,Blue_Star_Dots_4.jpg,Red_Circle_Stripes_1.jpg,left,843.6900000087917,true,low,false
wEerNlIV,3vll1pieot1c2ogsesvb4yutk6poza,3kibxj1wd97j0df05tx363270oykox,wEerNlIV,2020-0188,2020-05-08,12:34:56,12:49:34,NA,incomplete,132,filling,1,left,Purple_Plus_Grid_3.jpg,Blue_Circle_Grid_1.jpg,Red_Plus_Dots_2.jpg,left,741.745000006631,true,low,false
wEerNlIV,3vll1pieot1c2ogsesvb4yutk6poza,3kibxj1wd97j0df05tx363270oykox,wEerNlIV,2020-0188,2020-05-08,12:34:56,12:49:34,NA,incomplete,133,filling,0,right,Green_Plus_Stripes_1.jpg,Red_Plus_Grid_4.jpg,Purple_Triangle_Stripes_3.jpg,right,1339.0049999579787,true,low,false
wEerNlIV,3vll1pieot1c2ogsesvb4yutk6poza,3kibxj1wd97j0df05tx363270oykox,wEerNlIV,2020-0188,2020-05-08,12:34:56,12:49:34,NA,incomplete,134,filling,1,right,Blue_Triangle_Chess_2.jpg,Purple_Triangle_Stripes_4.jpg,Green_Star_Chess_3.jpg,right,820.43999992311,true,low,false
wEerNlIV,3vll1pieot1c2ogsesvb4yutk6poza,3kibxj1wd97j0df05tx363270oykox,wEerNlIV,2020-0188,2020-05-08,12:34:56,12:49:34,NA,incomplete,135,filling,0,left,Red_Star_Stripes_1.jpg,Purple_Triangle_Stripes_3.jpg,Green_Star_Grid_4.jpg,left,1072.0250001177192,true,low,false
wEerNlIV,3vll1pieot1c2ogsesvb4yutk6poza,3kibxj1wd97j0df05tx363270oykox,wEerNlIV,2020-0188,2020-05-08,12:34:56,12:49:34,NA,incomplete,136,filling,1,left,Green_Triangle_Stripes_3.jpg,Red_Star_Stripes_4.jpg,Purple_Triangle_Chess_2.jpg,left,911.0900000669062,true,low,false
wEerNlIV,3vll1pieot1c2ogsesvb4yutk6poza,3kibxj1wd97j0df05tx363270oykox,wEerNlIV,2020-0188,2020-05-08,12:34:56,12:49:34,NA,incomplete,137,filling,1,left,Green_Triangle_Stripes_1.jpg,Red_Plus_Stripes_2.jpg,Purple_Triangle_Grid_4.jpg,left,1038.3450000081211,true,low,false
wEerNlIV,3vll1pieot1c2ogsesvb4yutk6poza,3kibxj1wd97j0df05tx363270oykox,wEerNlIV,2020-0188,2020-05-08,12:34:56,12:49:34,NA,incomplete,138,filling,1,left,Blue_Circle_Grid_3.jpg,Purple_Star_Grid_4.jpg,Red_Circle_Dots_2.jpg,left,935.5250000953674,true,low,false
wEerNlIV,3vll1pieot1c2ogsesvb4yutk6poza,3kibxj1wd97j0df05tx363270oykox,wEerNlIV,2020-0188,2020-05-08,12:34:56,12:49:34,NA,incomplete,139,filling,1,right,Blue_Circle_Stripes_4.jpg,Red_Circle_Chess_3.jpg,Purple_Triangle_Stripes_2.jpg,right,923.0550001375377,true,low,false
wEerNlIV,3vll1pieot1c2ogsesvb4yutk6poza,3kibxj1wd97j0df05tx363270oykox,wEerNlIV,2020-0188,2020-05-08,12:34:56,12:49:34,NA,incomplete,140,shape,1,right,Green_Star_Grid_1.jpg,Purple_Triangle_Grid_3.jpg,Red_Star_Stripes_2.jpg,right,938.3050000760704,true,low,false
wEerNlIV,3vll1pieot1c2ogsesvb4yutk6poza,3kibxj1wd97j0df05tx363270oykox,wEerNlIV,2020-0188,2020-05-08,12:34:56,12:49:34,NA,incomplete,141,shape,1,left,Purple_Triangle_Stripes_4.jpg,Blue_Triangle_Dots_1.jpg,Red_Circle_Stripes_2.jpg,right,877.6549999602139,false,low,false
wEerNlIV,3vll1pieot1c2ogsesvb4yutk6poza,3kibxj1wd97j0df05tx363270oykox,wEerNlIV,2020-0188,2020-05-08,12:34:56,12:49:34,NA,incomplete,142,shape,1,left,Blue_Circle_Dots_3.jpg,Purple_Circle_Stripes_1.jpg,Red_Triangle_Dots_2.jpg,left,600.3700001165271,true,low,false
wEerNlIV,3vll1pieot1c2ogsesvb4yutk6poza,3kibxj1wd97j0df05tx363270oykox,wEerNlIV,2020-0188,2020-05-08,12:34:56,12:49:34,NA,incomplete,143,shape,1,left,Green_Circle_Chess_3.jpg,Blue_Circle_Grid_1.jpg,Purple_Star_Chess_2.jpg,left,651.124999858439,true,low,false
wEerNlIV,3vll1pieot1c2ogsesvb4yutk6poza,3kibxj1wd97j0df05tx363270oykox,wEerNlIV,2020-0188,2020-05-08,12:34:56,12:49:34,NA,incomplete,144,shape,1,right,Green_Circle_Chess_2.jpg,Blue_Plus_Chess_3.jpg,Red_Circle_Grid_4.jpg,right,679.6800000593066,true,low,false
wEerNlIV,3vll1pieot1c2ogsesvb4yutk6poza,3kibxj1wd97j0df05tx363270oykox,wEerNlIV,2020-0188,2020-05-08,12:34:56,12:49:34,NA,incomplete,145,shape,1,left,Red_Circle_Stripes_1.jpg,Blue_Circle_Grid_2.jpg,Green_Plus_Stripes_3.jpg,left,560.7549999840558,true,low,false
wEerNlIV,3vll1pieot1c2ogsesvb4yutk6poza,3kibxj1wd97j0df05tx363270oykox,wEerNlIV,2020-0188,2020-05-08,12:34:56,12:49:34,NA,incomplete,146,shape,0,right,Blue_Star_Stripes_4.jpg,Green_Triangle_Stripes_1.jpg,Purple_Star_Chess_3.jpg,right,609.6599998418242,true,low,false
wEerNlIV,3vll1pieot1c2ogsesvb4yutk6poza,3kibxj1wd97j0df05tx363270oykox,wEerNlIV,2020-0188,2020-05-08,12:34:56,12:49:34,NA,incomplete,147,shape,1,right,Green_Star_Grid_1.jpg,Blue_Circle_Grid_2.jpg,Purple_Star_Stripes_4.jpg,right,581.3700000289828,true,low,false
wEerNlIV,3vll1pieot1c2ogsesvb4yutk6poza,3kibxj1wd97j0df05tx363270oykox,wEerNlIV,2020-0188,2020-05-08,12:34:56,12:49:34,NA,incomplete,148,shape,1,left,Green_Star_Chess_4.jpg,Blue_Star_Grid_1.jpg,Red_Plus_Chess_2.jpg,left,608.2450000103563,true,low,false
wEerNlIV,3vll1pieot1c2ogsesvb4yutk6poza,3kibxj1wd97j0df05tx363270oykox,wEerNlIV,2020-0188,2020-05-08,12:34:56,12:49:34,NA,incomplete,149,shape,1,left,Green_Star_Grid_2.jpg,Blue_Star_Dots_1.jpg,Red_Circle_Grid_4.jpg,left,544.1499999724329,true,low,false
wEerNlIV,3vll1pieot1c2ogsesvb4yutk6poza,3kibxj1wd97j0df05tx363270oykox,wEerNlIV,2020-0188,2020-05-08,12:34:56,12:49:34,NA,incomplete,150,shape,1,left,Purple_Circle_Dots_3.jpg,Red_Circle_Stripes_4.jpg,Blue_Plus_Dots_1.jpg,left,532.829999923706,true,low,false
wEerNlIV,3vll1pieot1c2ogsesvb4yutk6poza,3kibxj1wd97j0df05tx363270oykox,wEerNlIV,2020-0188,2020-05-08,12:34:56,12:49:34,NA,incomplete,151,shape,1,left,Blue_Plus_Stripes_1.jpg,Red_Plus_Dots_2.jpg,Green_Star_Stripes_4.jpg,right,511.66000007651746,false,low,false
wEerNlIV,3vll1pieot1c2ogsesvb4yutk6poza,3kibxj1wd97j0df05tx363270oykox,wEerNlIV,2020-0188,2020-05-08,12:34:56,12:49:34,NA,incomplete,152,shape,1,right,Blue_Star_Grid_4.jpg,Red_Circle_Grid_1.jpg,Purple_Star_Dots_2.jpg,right,545.7150000147521,true,low,false
wEerNlIV,3vll1pieot1c2ogsesvb4yutk6poza,3kibxj1wd97j0df05tx363270oykox,wEerNlIV,2020-0188,2020-05-08,12:34:56,12:49:34,NA,incomplete,153,shape,1,right,Red_Plus_Dots_3.jpg,Green_Circle_Dots_4.jpg,Purple_Plus_Chess_1.jpg,right,655.8799999766052,true,low,false
wEerNlIV,3vll1pieot1c2ogsesvb4yutk6poza,3kibxj1wd97j0df05tx363270oykox,wEerNlIV,2020-0188,2020-05-08,12:34:56,12:49:34,NA,incomplete,154,shape,1,left,Blue_Circle_Stripes_3.jpg,Purple_Circle_Grid_2.jpg,Red_Star_Stripes_4.jpg,left,470.509999897331,true,low,false
wEerNlIV,3vll1pieot1c2ogsesvb4yutk6poza,3kibxj1wd97j0df05tx363270oykox,wEerNlIV,2020-0188,2020-05-08,12:34:56,12:49:34,NA,incomplete,155,shape,1,left,Blue_Star_Stripes_4.jpg,Red_Star_Chess_1.jpg,Purple_Plus_Stripes_3.jpg,left,546.1250001098961,true,low,false
wEerNlIV,3vll1pieot1c2ogsesvb4yutk6poza,3kibxj1wd97j0df05tx363270oykox,wEerNlIV,2020-0188,2020-05-08,12:34:56,12:49:34,NA,incomplete,156,shape,1,right,Blue_Triangle_Chess_4.jpg,Red_Star_Chess_3.jpg,Purple_Triangle_Dots_1.jpg,right,783.8749999646097,true,low,false
wEerNlIV,3vll1pieot1c2ogsesvb4yutk6poza,3kibxj1wd97j0df05tx363270oykox,wEerNlIV,2020-0188,2020-05-08,12:34:56,12:49:34,NA,incomplete,157,shape,0,left,Purple_Circle_Dots_2.jpg,Green_Circle_Grid_1.jpg,Red_Plus_Dots_4.jpg,left,522.340000141412,true,low,false
wEerNlIV,3vll1pieot1c2ogsesvb4yutk6poza,3kibxj1wd97j0df05tx363270oykox,wEerNlIV,2020-0188,2020-05-08,12:34:56,12:49:34,NA,incomplete,158,shape,1,right,Purple_Triangle_Stripes_1.jpg,Green_Circle_Stripes_2.jpg,Blue_Triangle_Dots_3.jpg,right,639.2599998507649,true,low,false
wEerNlIV,3vll1pieot1c2ogsesvb4yutk6poza,3kibxj1wd97j0df05tx363270oykox,wEerNlIV,2020-0188,2020-05-08,12:34:56,12:49:34,NA,incomplete,159,shape,1,right,Purple_Star_Chess_4.jpg,Blue_Plus_Chess_3.jpg,Green_Star_Dots_2.jpg,right,764.9999998975545,true,low,false
wEerNlIV,3vll1pieot1c2ogsesvb4yutk6poza,3kibxj1wd97j0df05tx363270oykox,wEerNlIV,2020-0188,2020-05-08,12:34:56,12:49:34,NA,incomplete,160,filling,1,left,Green_Circle_Stripes_1.jpg,Red_Star_Stripes_2.jpg,Blue_Circle_Grid_3.jpg,left,667.200000025332,true,low,false
wEerNlIV,3vll1pieot1c2ogsesvb4yutk6poza,3kibxj1wd97j0df05tx363270oykox,wEerNlIV,2020-0188,2020-05-08,12:34:56,12:49:34,NA,incomplete,161,filling,0,left,Red_Triangle_Grid_3.jpg,Blue_Plus_Grid_4.jpg,Purple_Triangle_Stripes_1.jpg,right,632.1650000754744,false,low,false
wEerNlIV,3vll1pieot1c2ogsesvb4yutk6poza,3kibxj1wd97j0df05tx363270oykox,wEerNlIV,2020-0188,2020-05-08,12:34:56,12:49:34,NA,incomplete,162,filling,1,left,Green_Circle_Dots_3.jpg,Purple_Star_Dots_4.jpg,Blue_Circle_Stripes_2.jpg,right,786.8550000712276,false,low,false
wEerNlIV,3vll1pieot1c2ogsesvb4yutk6poza,3kibxj1wd97j0df05tx363270oykox,wEerNlIV,2020-0188,2020-05-08,12:34:56,12:49:34,NA,incomplete,163,filling,1,left,Purple_Star_Stripes_2.jpg,Blue_Plus_Stripes_3.jpg,Green_Star_Grid_1.jpg,left,501.0899999178946,true,low,false
wEerNlIV,3vll1pieot1c2ogsesvb4yutk6poza,3kibxj1wd97j0df05tx363270oykox,wEerNlIV,2020-0188,2020-05-08,12:34:56,12:49:34,NA,incomplete,164,filling,1,left,Blue_Triangle_Chess_3.jpg,Green_Circle_Chess_4.jpg,Purple_Triangle_Grid_2.jpg,left,765.6600000336766,true,low,false
wEerNlIV,3vll1pieot1c2ogsesvb4yutk6poza,3kibxj1wd97j0df05tx363270oykox,wEerNlIV,2020-0188,2020-05-08,12:34:56,12:49:34,NA,incomplete,165,filling,1,left,Purple_Star_Chess_3.jpg,Blue_Triangle_Chess_1.jpg,Red_Star_Grid_2.jpg,left,1013.150000013411,true,low,false
wEerNlIV,3vll1pieot1c2ogsesvb4yutk6poza,3kibxj1wd97j0df05tx363270oykox,wEerNlIV,2020-0188,2020-05-08,12:34:56,12:49:34,NA,incomplete,166,filling,1,right,Red_Star_Dots_1.jpg,Purple_Star_Grid_4.jpg,Blue_Circle_Dots_2.jpg,right,1189.5250000525266,true,low,false
wEerNlIV,3vll1pieot1c2ogsesvb4yutk6poza,3kibxj1wd97j0df05tx363270oykox,wEerNlIV,2020-0188,2020-05-08,12:34:56,12:49:34,NA,incomplete,167,filling,0,left,Red_Triangle_Grid_1.jpg,Blue_Star_Grid_2.jpg,Purple_Triangle_Chess_3.jpg,right,843.5649999883026,false,low,false
wEerNlIV,3vll1pieot1c2ogsesvb4yutk6poza,3kibxj1wd97j0df05tx363270oykox,wEerNlIV,2020-0188,2020-05-08,12:34:56,12:49:34,NA,incomplete,168,filling,1,left,Red_Star_Chess_4.jpg,Purple_Plus_Chess_2.jpg,Green_Star_Dots_1.jpg,left,856.8450000602752,true,low,false
wEerNlIV,3vll1pieot1c2ogsesvb4yutk6poza,3kibxj1wd97j0df05tx363270oykox,wEerNlIV,2020-0188,2020-05-08,12:34:56,12:49:34,NA,incomplete,169,filling,0,right,Blue_Star_Chess_2.jpg,Green_Star_Dots_3.jpg,Purple_Circle_Chess_4.jpg,right,816.0999999381602,true,low,false
wEerNlIV,3vll1pieot1c2ogsesvb4yutk6poza,3kibxj1wd97j0df05tx363270oykox,wEerNlIV,2020-0188,2020-05-08,12:34:56,12:49:34,NA,incomplete,170,filling,1,left,Purple_Triangle_Stripes_1.jpg,Blue_Circle_Stripes_2.jpg,Green_Triangle_Dots_4.jpg,left,602.2149999625981,true,low,false
wEerNlIV,3vll1pieot1c2ogsesvb4yutk6poza,3kibxj1wd97j0df05tx363270oykox,wEerNlIV,2020-0188,2020-05-08,12:34:56,12:49:34,NA,incomplete,171,filling,1,left,Green_Triangle_Chess_2.jpg,Blue_Plus_Chess_3.jpg,Purple_Triangle_Grid_4.jpg,left,875.7949999999255,true,low,false
wEerNlIV,3vll1pieot1c2ogsesvb4yutk6poza,3kibxj1wd97j0df05tx363270oykox,wEerNlIV,2020-0188,2020-05-08,12:34:56,12:49:34,NA,incomplete,172,filling,1,left,Blue_Star_Stripes_1.jpg,Purple_Plus_Stripes_2.jpg,Green_Star_Grid_3.jpg,left,1120.2899999916553,true,low,false
wEerNlIV,3vll1pieot1c2ogsesvb4yutk6poza,3kibxj1wd97j0df05tx363270oykox,wEerNlIV,2020-0188,2020-05-08,12:34:56,12:49:34,NA,incomplete,173,filling,0,right,Green_Star_Dots_2.jpg,Blue_Star_Chess_3.jpg,Red_Circle_Dots_4.jpg,right,690.7499998342246,true,low,false
wEerNlIV,3vll1pieot1c2ogsesvb4yutk6poza,3kibxj1wd97j0df05tx363270oykox,wEerNlIV,2020-0188,2020-05-08,12:34:56,12:49:34,NA,incomplete,174,filling,1,right,Green_Plus_Grid_1.jpg,Purple_Plus_Chess_2.jpg,Blue_Triangle_Grid_4.jpg,left,929.6750000212342,false,low,false
wEerNlIV,3vll1pieot1c2ogsesvb4yutk6poza,3kibxj1wd97j0df05tx363270oykox,wEerNlIV,2020-0188,2020-05-08,12:34:56,12:49:34,NA,incomplete,175,filling,1,left,Red_Triangle_Dots_1.jpg,Blue_Plus_Dots_3.jpg,Green_Triangle_Stripes_2.jpg,left,860.8300001360476,true,low,false
wEerNlIV,3vll1pieot1c2ogsesvb4yutk6poza,3kibxj1wd97j0df05tx363270oykox,wEerNlIV,2020-0188,2020-05-08,12:34:56,12:49:34,NA,incomplete,176,filling,1,left,Purple_Plus_Chess_3.jpg,Red_Circle_Chess_1.jpg,Green_Plus_Stripes_4.jpg,left,1036.4699999336153,true,low,false
wEerNlIV,3vll1pieot1c2ogsesvb4yutk6poza,3kibxj1wd97j0df05tx363270oykox,wEerNlIV,2020-0188,2020-05-08,12:34:56,12:49:34,NA,incomplete,177,filling,1,left,Purple_Star_Dots_1.jpg,Blue_Plus_Dots_4.jpg,Red_Star_Chess_2.jpg,left,787.7899999730289,true,low,false
wEerNlIV,3vll1pieot1c2ogsesvb4yutk6poza,3kibxj1wd97j0df05tx363270oykox,wEerNlIV,2020-0188,2020-05-08,12:34:56,12:49:34,NA,incomplete,178,filling,1,left,Red_Triangle_Chess_3.jpg,Blue_Plus_Chess_1.jpg,Green_Triangle_Grid_4.jpg,left,822.1350000239909,true,low,false
wEerNlIV,3vll1pieot1c2ogsesvb4yutk6poza,3kibxj1wd97j0df05tx363270oykox,wEerNlIV,2020-0188,2020-05-08,12:34:56,12:49:34,NA,incomplete,179,filling,0,right,Red_Triangle_Chess_1.jpg,Purple_Triangle_Dots_2.jpg,Blue_Circle_Chess_3.jpg,right,751.9400001037866,true,low,false
wEerNlIV,3vll1pieot1c2ogsesvb4yutk6poza,3kibxj1wd97j0df05tx363270oykox,wEerNlIV,2020-0188,2020-05-08,12:34:56,12:49:34,NA,incomplete,180,shape,1,right,Purple_Circle_Stripes_3.jpg,Red_Triangle_Stripes_4.jpg,Green_Circle_Dots_2.jpg,left,563.7799999676645,false,low,false
wEerNlIV,3vll1pieot1c2ogsesvb4yutk6poza,3kibxj1wd97j0df05tx363270oykox,wEerNlIV,2020-0188,2020-05-08,12:34:56,12:49:34,NA,incomplete,181,shape,0,right,Blue_Plus_Dots_1.jpg,Purple_Star_Dots_4.jpg,Green_Plus_Chess_3.jpg,right,702.809999929741,true,low,false
wEerNlIV,3vll1pieot1c2ogsesvb4yutk6poza,3kibxj1wd97j0df05tx363270oykox,wEerNlIV,2020-0188,2020-05-08,12:34:56,12:49:34,NA,incomplete,182,shape,1,right,Red_Plus_Grid_3.jpg,Blue_Star_Grid_1.jpg,Purple_Plus_Dots_4.jpg,left,915.9550000913441,false,low,false
wEerNlIV,3vll1pieot1c2ogsesvb4yutk6poza,3kibxj1wd97j0df05tx363270oykox,wEerNlIV,2020-0188,2020-05-08,12:34:56,12:49:34,NA,incomplete,183,shape,1,right,Red_Star_Dots_1.jpg,Blue_Circle_Dots_4.jpg,Purple_Star_Stripes_2.jpg,right,542.6999998744577,true,low,false
wEerNlIV,3vll1pieot1c2ogsesvb4yutk6poza,3kibxj1wd97j0df05tx363270oykox,wEerNlIV,2020-0188,2020-05-08,12:34:56,12:49:34,NA,incomplete,184,shape,1,right,Green_Triangle_Chess_4.jpg,Blue_Circle_Chess_2.jpg,Purple_Triangle_Dots_1.jpg,right,719.5850000716746,true,low,false
wEerNlIV,3vll1pieot1c2ogsesvb4yutk6poza,3kibxj1wd97j0df05tx363270oykox,wEerNlIV,2020-0188,2020-05-08,12:34:56,12:49:34,NA,incomplete,185,shape,0,left,Purple_Triangle_Grid_2.jpg,Blue_Triangle_Stripes_3.jpg,Red_Star_Grid_1.jpg,left,787.4449999071658,true,low,false
wEerNlIV,3vll1pieot1c2ogsesvb4yutk6poza,3kibxj1wd97j0df05tx363270oykox,wEerNlIV,2020-0188,2020-05-08,12:34:56,12:49:34,NA,incomplete,186,shape,1,left,Purple_Triangle_Grid_2.jpg,Green_Triangle_Dots_1.jpg,Blue_Circle_Grid_3.jpg,left,605.1900000311434,true,low,false
wEerNlIV,3vll1pieot1c2ogsesvb4yutk6poza,3kibxj1wd97j0df05tx363270oykox,wEerNlIV,2020-0188,2020-05-08,12:34:56,12:49:34,NA,incomplete,187,shape,1,right,Red_Star_Chess_2.jpg,Purple_Plus_Chess_4.jpg,Green_Star_Grid_1.jpg,right,623.0049999430776,true,low,false
wEerNlIV,3vll1pieot1c2ogsesvb4yutk6poza,3kibxj1wd97j0df05tx363270oykox,wEerNlIV,2020-0188,2020-05-08,12:34:56,12:49:34,NA,incomplete,188,shape,0,left,Blue_Circle_Grid_2.jpg,Red_Circle_Stripes_3.jpg,Purple_Star_Grid_1.jpg,left,546.0699999239296,true,low,false
wEerNlIV,3vll1pieot1c2ogsesvb4yutk6poza,3kibxj1wd97j0df05tx363270oykox,wEerNlIV,2020-0188,2020-05-08,12:34:56,12:49:34,NA,incomplete,189,shape,1,right,Blue_Circle_Grid_1.jpg,Green_Star_Grid_3.jpg,Red_Circle_Dots_4.jpg,right,565.425000153482,true,low,false
wEerNlIV,3vll1pieot1c2ogsesvb4yutk6poza,3kibxj1wd97j0df05tx363270oykox,wEerNlIV,2020-0188,2020-05-08,12:34:56,12:49:34,NA,incomplete,190,shape,1,left,Green_Plus_Grid_3.jpg,Red_Plus_Stripes_1.jpg,Blue_Triangle_Grid_4.jpg,left,592.9699998814613,true,low,false
wEerNlIV,3vll1pieot1c2ogsesvb4yutk6poza,3kibxj1wd97j0df05tx363270oykox,wEerNlIV,2020-0188,2020-05-08,12:34:56,12:49:34,NA,incomplete,191,shape,1,right,Red_Star_Stripes_3.jpg,Blue_Plus_Stripes_1.jpg,Green_Star_Dots_4.jpg,right,683.1750001292676,true,low,false
wEerNlIV,3vll1pieot1c2ogsesvb4yutk6poza,3kibxj1wd97j0df05tx363270oykox,wEerNlIV,2020-0188,2020-05-08,12:34:56,12:49:34,NA,incomplete,192,shape,0,right,Purple_Triangle_Dots_3.jpg,Red_Star_Dots_4.jpg,Green_Triangle_Chess_1.jpg,right,660.3299998678267,true,low,false
wEerNlIV,3vll1pieot1c2ogsesvb4yutk6poza,3kibxj1wd97j0df05tx363270oykox,wEerNlIV,2020-0188,2020-05-08,12:34:56,12:49:34,NA,incomplete,193,shape,1,left,Blue_Star_Grid_2.jpg,Green_Star_Stripes_1.jpg,Purple_Triangle_Grid_4.jpg,right,441.97500008158386,false,low,false
wEerNlIV,3vll1pieot1c2ogsesvb4yutk6poza,3kibxj1wd97j0df05tx363270oykox,wEerNlIV,2020-0188,2020-05-08,12:34:56,12:49:34,NA,incomplete,194,shape,0,right,Purple_Circle_Dots_4.jpg,Blue_Star_Dots_3.jpg,Red_Circle_Stripes_1.jpg,right,615.2600001078099,true,low,false
wEerNlIV,3vll1pieot1c2ogsesvb4yutk6poza,3kibxj1wd97j0df05tx363270oykox,wEerNlIV,2020-0188,2020-05-08,12:34:56,12:49:34,NA,incomplete,195,shape,1,right,Green_Star_Grid_1.jpg,Red_Circle_Grid_2.jpg,Purple_Star_Chess_3.jpg,right,511.2450001761317,true,low,false
wEerNlIV,3vll1pieot1c2ogsesvb4yutk6poza,3kibxj1wd97j0df05tx363270oykox,wEerNlIV,2020-0188,2020-05-08,12:34:56,12:49:34,NA,incomplete,196,shape,1,left,Purple_Plus_Grid_1.jpg,Green_Plus_Stripes_4.jpg,Blue_Triangle_Grid_2.jpg,left,604.4000000692904,true,low,false
wEerNlIV,3vll1pieot1c2ogsesvb4yutk6poza,3kibxj1wd97j0df05tx363270oykox,wEerNlIV,2020-0188,2020-05-08,12:34:56,12:49:34,NA,incomplete,197,shape,0,left,Purple_Circle_Dots_1.jpg,Red_Circle_Stripes_4.jpg,Green_Triangle_Dots_3.jpg,left,638.8399999123067,true,low,false
wEerNlIV,3vll1pieot1c2ogsesvb4yutk6poza,3kibxj1wd97j0df05tx363270oykox,wEerNlIV,2020-0188,2020-05-08,12:34:56,12:49:34,NA,incomplete,198,shape,1,left,Red_Star_Stripes_1.jpg,Purple_Star_Dots_4.jpg,Green_Circle_Stripes_3.jpg,left,612.3699999880046,true,low,false
wEerNlIV,3vll1pieot1c2ogsesvb4yutk6poza,3kibxj1wd97j0df05tx363270oykox,wEerNlIV,2020-0188,2020-05-08,12:34:56,12:49:34,NA,incomplete,199,shape,1,left,Red_Circle_Stripes_4.jpg,Purple_Circle_Chess_2.jpg,Blue_Plus_Stripes_1.jpg,left,511.91000011749566,true,low,false
wEerNlIV,3vll1pieot1c2ogsesvb4yutk6poza,3kibxj1wd97j0df05tx363270oykox,wEerNlIV,2020-0188,2020-05-08,12:34:56,12:49:34,NA,incomplete,200,filling,1,left,Red_Star_Grid_2.jpg,Blue_Plus_Grid_3.jpg,Green_Star_Stripes_1.jpg,right,566.6550002060831,false,low,false
wEerNlIV,3vll1pieot1c2ogsesvb4yutk6poza,3kibxj1wd97j0df05tx363270oykox,wEerNlIV,2020-0188,2020-05-08,12:34:56,12:49:34,NA,incomplete,201,filling,1,left,Purple_Plus_Grid_3.jpg,Red_Star_Grid_2.jpg,Blue_Plus_Chess_1.jpg,right,711.2900000065565,false,low,false
wEerNlIV,3vll1pieot1c2ogsesvb4yutk6poza,3kibxj1wd97j0df05tx363270oykox,wEerNlIV,2020-0188,2020-05-08,12:34:56,12:49:34,NA,incomplete,202,filling,0,right,Purple_Star_Stripes_3.jpg,Green_Star_Chess_2.jpg,Blue_Triangle_Stripes_4.jpg,right,854.1399999521673,true,low,false
wEerNlIV,3vll1pieot1c2ogsesvb4yutk6poza,3kibxj1wd97j0df05tx363270oykox,wEerNlIV,2020-0188,2020-05-08,12:34:56,12:49:34,NA,incomplete,203,filling,1,right,Blue_Star_Stripes_2.jpg,Red_Star_Dots_1.jpg,Green_Triangle_Stripes_3.jpg,left,614.049999974668,false,low,false
wEerNlIV,3vll1pieot1c2ogsesvb4yutk6poza,3kibxj1wd97j0df05tx363270oykox,wEerNlIV,2020-0188,2020-05-08,12:34:56,12:49:34,NA,incomplete,204,filling,0,right,Blue_Triangle_Chess_4.jpg,Red_Triangle_Grid_3.jpg,Purple_Circle_Chess_2.jpg,right,1049.4099999777973,true,low,false
wEerNlIV,3vll1pieot1c2ogsesvb4yutk6poza,3kibxj1wd97j0df05tx363270oykox,wEerNlIV,2020-0188,2020-05-08,12:34:56,12:49:34,NA,incomplete,205,filling,1,left,Purple_Triangle_Stripes_4.jpg,Green_Star_Stripes_2.jpg,Red_Triangle_Chess_1.jpg,right,921.1500000674278,false,low,false
wEerNlIV,3vll1pieot1c2ogsesvb4yutk6poza,3kibxj1wd97j0df05tx363270oykox,wEerNlIV,2020-0188,2020-05-08,12:34:56,12:49:34,NA,incomplete,206,filling,1,right,Blue_Circle_Dots_3.jpg,Red_Circle_Chess_4.jpg,Green_Plus_Dots_1.jpg,left,591.0499999299645,false,low,false
wEerNlIV,3vll1pieot1c2ogsesvb4yutk6poza,3kibxj1wd97j0df05tx363270oykox,wEerNlIV,2020-0188,2020-05-08,12:34:56,12:49:34,NA,incomplete,207,filling,1,left,Green_Plus_Dots_2.jpg,Purple_Star_Dots_3.jpg,Blue_Plus_Grid_1.jpg,right,649.1899997927248,false,low,false
wEerNlIV,3vll1pieot1c2ogsesvb4yutk6poza,3kibxj1wd97j0df05tx363270oykox,wEerNlIV,2020-0188,2020-05-08,12:34:56,12:49:34,NA,incomplete,208,filling,0,right,Purple_Circle_Stripes_4.jpg,Blue_Circle_Dots_1.jpg,Red_Plus_Stripes_3.jpg,right,773.5099999699742,true,low,false
wEerNlIV,3vll1pieot1c2ogsesvb4yutk6poza,3kibxj1wd97j0df05tx363270oykox,wEerNlIV,2020-0188,2020-05-08,12:34:56,12:49:34,NA,incomplete,209,filling,1,right,Green_Star_Dots_2.jpg,Red_Star_Stripes_3.jpg,Blue_Circle_Dots_4.jpg,left,931.4250000752509,false,low,false
wEerNlIV,3vll1pieot1c2ogsesvb4yutk6poza,3kibxj1wd97j0df05tx363270oykox,wEerNlIV,2020-0188,2020-05-08,12:34:56,12:49:34,NA,incomplete,210,filling,0,right,Red_Star_Dots_1.jpg,Green_Star_Chess_4.jpg,Purple_Triangle_Dots_3.jpg,right,1044.0400000661612,true,low,false
wEerNlIV,3vll1pieot1c2ogsesvb4yutk6poza,3kibxj1wd97j0df05tx363270oykox,wEerNlIV,2020-0188,2020-05-08,12:34:56,12:49:34,NA,incomplete,211,filling,1,left,Blue_Circle_Stripes_1.jpg,Red_Star_Stripes_2.jpg,Green_Circle_Grid_3.jpg,right,1204.0150000248104,false,low,false
wEerNlIV,3vll1pieot1c2ogsesvb4yutk6poza,3kibxj1wd97j0df05tx363270oykox,wEerNlIV,2020-0188,2020-05-08,12:34:56,12:49:34,NA,incomplete,212,filling,1,right,Green_Circle_Grid_2.jpg,Red_Circle_Chess_1.jpg,Purple_Triangle_Grid_3.jpg,right,1120.2950000297278,true,low,false
wEerNlIV,3vll1pieot1c2ogsesvb4yutk6poza,3kibxj1wd97j0df05tx363270oykox,wEerNlIV,2020-0188,2020-05-08,12:34:56,12:49:34,NA,incomplete,213,filling,0,right,Blue_Star_Dots_3.jpg,Purple_Star_Stripes_1.jpg,Green_Triangle_Dots_4.jpg,right,1129.5300000347197,true,low,false
wEerNlIV,3vll1pieot1c2ogsesvb4yutk6poza,3kibxj1wd97j0df05tx363270oykox,wEerNlIV,2020-0188,2020-05-08,12:34:56,12:49:34,NA,incomplete,214,filling,1,right,Green_Circle_Grid_4.jpg,Blue_Circle_Chess_2.jpg,Purple_Star_Grid_1.jpg,left,708.0899998545647,false,low,false
wEerNlIV,3vll1pieot1c2ogsesvb4yutk6poza,3kibxj1wd97j0df05tx363270oykox,wEerNlIV,2020-0188,2020-05-08,12:34:56,12:49:34,NA,incomplete,215,filling,1,right,Blue_Triangle_Chess_4.jpg,Green_Triangle_Grid_1.jpg,Red_Circle_Chess_3.jpg,right,875.7949999999255,true,low,false
wEerNlIV,3vll1pieot1c2ogsesvb4yutk6poza,3kibxj1wd97j0df05tx363270oykox,wEerNlIV,2020-0188,2020-05-08,12:34:56,12:49:34,NA,incomplete,216,filling,1,right,Green_Star_Stripes_3.jpg,Blue_Star_Dots_1.jpg,Purple_Plus_Stripes_4.jpg,right,944.4949999451637,true,low,false
wEerNlIV,3vll1pieot1c2ogsesvb4yutk6poza,3kibxj1wd97j0df05tx363270oykox,wEerNlIV,2020-0188,2020-05-08,12:34:56,12:49:34,NA,incomplete,217,filling,0,left,Green_Plus_Chess_2.jpg,Blue_Triangle_Chess_4.jpg,Red_Plus_Dots_1.jpg,left,723.1250000186265,true,low,false
wEerNlIV,3vll1pieot1c2ogsesvb4yutk6poza,3kibxj1wd97j0df05tx363270oykox,wEerNlIV,2020-0188,2020-05-08,12:34:56,12:49:34,NA,incomplete,218,filling,1,right,Purple_Triangle_Grid_3.jpg,Green_Triangle_Chess_2.jpg,Red_Plus_Grid_1.jpg,right,848.0199999175966,true,low,false
wEerNlIV,3vll1pieot1c2ogsesvb4yutk6poza,3kibxj1wd97j0df05tx363270oykox,wEerNlIV,2020-0188,2020-05-08,12:34:56,12:49:34,NA,incomplete,219,filling,0,right,Blue_Plus_Stripes_1.jpg,Red_Plus_Dots_2.jpg,Green_Triangle_Stripes_3.jpg,right,858.0700000748038,true,low,false
wEerNlIV,3vll1pieot1c2ogsesvb4yutk6poza,3kibxj1wd97j0df05tx363270oykox,wEerNlIV,2020-0188,2020-05-08,12:34:56,12:49:34,NA,incomplete,220,shape,1,left,Blue_Triangle_Chess_3.jpg,Purple_Triangle_Stripes_4.jpg,Red_Plus_Chess_1.jpg,right,859.229999827221,false,low,false
wEerNlIV,3vll1pieot1c2ogsesvb4yutk6poza,3kibxj1wd97j0df05tx363270oykox,wEerNlIV,2020-0188,2020-05-08,12:34:56,12:49:34,NA,incomplete,221,shape,1,right,Blue_Circle_Stripes_1.jpg,Green_Star_Stripes_4.jpg,Red_Circle_Grid_2.jpg,left,922.6150000467896,false,low,false
wEerNlIV,3vll1pieot1c2ogsesvb4yutk6poza,3kibxj1wd97j0df05tx363270oykox,wEerNlIV,2020-0188,2020-05-08,12:34:56,12:49:34,NA,incomplete,222,shape,1,left,Green_Triangle_Stripes_1.jpg,Purple_Triangle_Grid_3.jpg,Red_Star_Stripes_4.jpg,left,1078.9199999999255,true,low,false
wEerNlIV,3vll1pieot1c2ogsesvb4yutk6poza,3kibxj1wd97j0df05tx363270oykox,wEerNlIV,2020-0188,2020-05-08,12:34:56,12:49:34,NA,incomplete,223,shape,0,left,Green_Star_Stripes_4.jpg,Purple_Star_Chess_1.jpg,Blue_Triangle_Stripes_2.jpg,left,932.6700000092387,true,low,false
wEerNlIV,3vll1pieot1c2ogsesvb4yutk6poza,3kibxj1wd97j0df05tx363270oykox,wEerNlIV,2020-0188,2020-05-08,12:34:56,12:49:34,NA,incomplete,224,shape,1,left,Green_Circle_Grid_3.jpg,Blue_Circle_Chess_2.jpg,Red_Plus_Grid_1.jpg,left,536.5150000434369,true,low,false
wEerNlIV,3vll1pieot1c2ogsesvb4yutk6poza,3kibxj1wd97j0df05tx363270oykox,wEerNlIV,2020-0188,2020-05-08,12:34:56,12:49:34,NA,incomplete,225,shape,0,left,Blue_Plus_Grid_1.jpg,Purple_Plus_Dots_2.jpg,Red_Star_Grid_3.jpg,left,750.8799999486655,true,low,false
wEerNlIV,3vll1pieot1c2ogsesvb4yutk6poza,3kibxj1wd97j0df05tx363270oykox,wEerNlIV,2020-0188,2020-05-08,12:34:56,12:49:34,NA,incomplete,226,shape,1,left,Green_Triangle_Chess_2.jpg,Red_Triangle_Stripes_3.jpg,Blue_Circle_Chess_4.jpg,left,762.8099999856204,true,low,false
wEerNlIV,3vll1pieot1c2ogsesvb4yutk6poza,3kibxj1wd97j0df05tx363270oykox,wEerNlIV,2020-0188,2020-05-08,12:34:56,12:49:34,NA,incomplete,227,shape,1,left,Blue_Plus_Stripes_4.jpg,Purple_Plus_Dots_2.jpg,Red_Circle_Stripes_3.jpg,left,532.4450000189245,true,low,false
wEerNlIV,3vll1pieot1c2ogsesvb4yutk6poza,3kibxj1wd97j0df05tx363270oykox,wEerNlIV,2020-0188,2020-05-08,12:34:56,12:49:34,NA,incomplete,228,shape,1,right,Green_Circle_Grid_1.jpg,Red_Plus_Grid_3.jpg,Blue_Circle_Chess_2.jpg,right,487.70499997772276,true,low,false
wEerNlIV,3vll1pieot1c2ogsesvb4yutk6poza,3kibxj1wd97j0df05tx363270oykox,wEerNlIV,2020-0188,2020-05-08,12:34:56,12:49:34,NA,incomplete,229,shape,1,right,Green_Triangle_Grid_3.jpg,Purple_Circle_Grid_2.jpg,Blue_Triangle_Dots_4.jpg,right,706.3150000758469,true,low,false
wEerNlIV,3vll1pieot1c2ogsesvb4yutk6poza,3kibxj1wd97j0df05tx363270oykox,wEerNlIV,2020-0188,2020-05-08,12:34:56,12:49:34,NA,incomplete,230,shape,1,left,Blue_Circle_Grid_2.jpg,Purple_Circle_Dots_3.jpg,Green_Star_Grid_1.jpg,left,670.2650000806898,true,low,false
wEerNlIV,3vll1pieot1c2ogsesvb4yutk6poza,3kibxj1wd97j0df05tx363270oykox,wEerNlIV,2020-0188,2020-05-08,12:34:56,12:49:34,NA,incomplete,231,shape,1,left,Blue_Star_Chess_2.jpg,Red_Star_Grid_4.jpg,Purple_Circle_Chess_3.jpg,left,678.3549999818206,true,low,false
wEerNlIV,3vll1pieot1c2ogsesvb4yutk6poza,3kibxj1wd97j0df05tx363270oykox,wEerNlIV,2020-0188,2020-05-08,12:34:56,12:49:34,NA,incomplete,232,shape,1,left,Purple_Triangle_Grid_3.jpg,Green_Triangle_Dots_1.jpg,Blue_Circle_Grid_4.jpg,left,756.5249998588115,true,low,false
wEerNlIV,3vll1pieot1c2ogsesvb4yutk6poza,3kibxj1wd97j0df05tx363270oykox,wEerNlIV,2020-0188,2020-05-08,12:34:56,12:49:34,NA,incomplete,233,shape,1,right,Green_Circle_Grid_4.jpg,Purple_Plus_Grid_2.jpg,Red_Circle_Chess_1.jpg,left,760.8250000048429,false,low,false
wEerNlIV,3vll1pieot1c2ogsesvb4yutk6poza,3kibxj1wd97j0df05tx363270oykox,wEerNlIV,2020-0188,2020-05-08,12:34:56,12:49:34,NA,incomplete,234,shape,1,left,Green_Star_Chess_3.jpg,Purple_Star_Stripes_4.jpg,Blue_Circle_Chess_1.jpg,left,557.7750001102686,true,low,false
wEerNlIV,3vll1pieot1c2ogsesvb4yutk6poza,3kibxj1wd97j0df05tx363270oykox,wEerNlIV,2020-0188,2020-05-08,12:34:56,12:49:34,NA,incomplete,235,shape,1,left,Blue_Star_Stripes_1.jpg,Purple_Star_Dots_3.jpg,Green_Plus_Stripes_4.jpg,left,550.2449998166412,true,low,false
wEerNlIV,3vll1pieot1c2ogsesvb4yutk6poza,3kibxj1wd97j0df05tx363270oykox,wEerNlIV,2020-0188,2020-05-08,12:34:56,12:49:34,NA,incomplete,236,shape,1,right,Blue_Star_Dots_1.jpg,Purple_Plus_Dots_4.jpg,Green_Star_Chess_2.jpg,left,566.4800000376999,false,low,false
wEerNlIV,3vll1pieot1c2ogsesvb4yutk6poza,3kibxj1wd97j0df05tx363270oykox,wEerNlIV,2020-0188,2020-05-08,12:34:56,12:49:34,NA,incomplete,237,shape,1,right,Green_Triangle_Dots_2.jpg,Purple_Plus_Dots_3.jpg,Red_Triangle_Stripes_1.jpg,right,584.5550000667572,true,low,false
wEerNlIV,3vll1pieot1c2ogsesvb4yutk6poza,3kibxj1wd97j0df05tx363270oykox,wEerNlIV,2020-0188,2020-05-08,12:34:56,12:49:34,NA,incomplete,238,shape,1,right,Green_Star_Stripes_1.jpg,Purple_Triangle_Stripes_2.jpg,Red_Star_Chess_4.jpg,right,754.6899998560548,true,low,false
wEerNlIV,3vll1pieot1c2ogsesvb4yutk6poza,3kibxj1wd97j0df05tx363270oykox,wEerNlIV,2020-0188,2020-05-08,12:34:56,12:49:34,NA,incomplete,239,shape,1,right,Green_Circle_Chess_1.jpg,Blue_Plus_Chess_4.jpg,Purple_Circle_Stripes_2.jpg,right,838.3550001308322,true,low,false
wEerNlIV,3vll1pieot1c2ogsesvb4yutk6poza,3kibxj1wd97j0df05tx363270oykox,wEerNlIV,2020-0188,2020-05-08,12:34:56,12:49:34,856789.6549999714,878495.0850000605,NA,NA,NA,NA,NA,NA,NA,NA,NA,NA,NA,undefined
