workerId,hitId,assignmentId,subject,studyid,exp_date,exp_start,exp_end,time_start,time_end,trial,type,reward_validity,answer,image_top,image_left,image_right,response,response_time,response_acc,volatility,age,race,gender,ethnicity,color,vision,neuro,practice
PaWDOqkU,33cla8o0nlo9ukh858i8v1jgjowfr3,3kyqyyshyzkbm79qdcbg2q7hf9mdol,PaWDOqkU,2020-0188,2020-05-07,15:17:14,15:39:59,NA,incomplete,0,number,1,left,Green_Triangle_Dots_4.jpg,Red_Circle_Chess_4.jpg,Purple_Star_Dots_1.jpg,left,1670.0549999950454,true,NA,NA,NA,NA,NA,NA,NA,NA,true
PaWDOqkU,33cla8o0nlo9ukh858i8v1jgjowfr3,3kyqyyshyzkbm79qdcbg2q7hf9mdol,PaWDOqkU,2020-0188,2020-05-07,15:17:14,15:39:59,NA,incomplete,1,number,0,right,Purple_Circle_Grid_3.jpg,Red_Star_Grid_2.jpg,Green_Plus_Dots_3.jpg,right,1031.5299999929266,true,NA,NA,NA,NA,NA,NA,NA,NA,true
PaWDOqkU,33cla8o0nlo9ukh858i8v1jgjowfr3,3kyqyyshyzkbm79qdcbg2q7hf9mdol,PaWDOqkU,2020-0188,2020-05-07,15:17:14,15:39:59,NA,incomplete,2,number,1,right,Red_Star_Dots_2.jpg,Green_Plus_Dots_1.jpg,Blue_Circle_Grid_2.jpg,right,826.2600000016391,true,NA,NA,NA,NA,NA,NA,NA,NA,true
PaWDOqkU,33cla8o0nlo9ukh858i8v1jgjowfr3,3kyqyyshyzkbm79qdcbg2q7hf9mdol,PaWDOqkU,2020-0188,2020-05-07,15:17:14,15:39:59,NA,incomplete,3,number,1,left,Purple_Plus_Chess_4.jpg,Blue_Star_Grid_4.jpg,Red_Triangle_Chess_2.jpg,left,832.6950000046054,true,NA,NA,NA,NA,NA,NA,NA,NA,true
PaWDOqkU,33cla8o0nlo9ukh858i8v1jgjowfr3,3kyqyyshyzkbm79qdcbg2q7hf9mdol,PaWDOqkU,2020-0188,2020-05-07,15:17:14,15:39:59,NA,incomplete,4,number,1,left,Green_Circle_Dots_1.jpg,Red_Triangle_Grid_1.jpg,Purple_Plus_Dots_2.jpg,left,725.1100000139559,true,NA,NA,NA,NA,NA,NA,NA,NA,true
PaWDOqkU,33cla8o0nlo9ukh858i8v1jgjowfr3,3kyqyyshyzkbm79qdcbg2q7hf9mdol,PaWDOqkU,2020-0188,2020-05-07,15:17:14,15:39:59,NA,incomplete,5,number,1,right,Red_Plus_Dots_2.jpg,Purple_Circle_Dots_4.jpg,Blue_Triangle_Grid_2.jpg,right,838.9750000060303,true,NA,NA,NA,NA,NA,NA,NA,NA,true
PaWDOqkU,33cla8o0nlo9ukh858i8v1jgjowfr3,3kyqyyshyzkbm79qdcbg2q7hf9mdol,PaWDOqkU,2020-0188,2020-05-07,15:17:14,15:39:59,NA,incomplete,6,number,1,right,Red_Circle_Grid_1.jpg,Purple_Star_Grid_2.jpg,Blue_Triangle_Chess_1.jpg,left,1159.3049999937648,false,NA,NA,NA,NA,NA,NA,NA,NA,true
PaWDOqkU,33cla8o0nlo9ukh858i8v1jgjowfr3,3kyqyyshyzkbm79qdcbg2q7hf9mdol,PaWDOqkU,2020-0188,2020-05-07,15:17:14,15:39:59,NA,incomplete,7,number,1,right,Green_Plus_Stripes_2.jpg,Red_Circle_Stripes_1.jpg,Blue_Triangle_Grid_2.jpg,right,1206.0099999944214,true,NA,NA,NA,NA,NA,NA,NA,NA,true
PaWDOqkU,33cla8o0nlo9ukh858i8v1jgjowfr3,3kyqyyshyzkbm79qdcbg2q7hf9mdol,PaWDOqkU,2020-0188,2020-05-07,15:17:14,15:39:59,NA,incomplete,8,number,1,left,Purple_Circle_Dots_3.jpg,Green_Star_Grid_3.jpg,Blue_Triangle_Dots_2.jpg,left,1059.689999994589,true,NA,NA,NA,NA,NA,NA,NA,NA,true
PaWDOqkU,33cla8o0nlo9ukh858i8v1jgjowfr3,3kyqyyshyzkbm79qdcbg2q7hf9mdol,PaWDOqkU,2020-0188,2020-05-07,15:17:14,15:39:59,NA,incomplete,9,number,1,left,Purple_Plus_Dots_1.jpg,Green_Circle_Chess_1.jpg,Red_Star_Dots_2.jpg,left,1001.3500000059139,true,NA,NA,NA,NA,NA,NA,NA,NA,true
PaWDOqkU,33cla8o0nlo9ukh858i8v1jgjowfr3,3kyqyyshyzkbm79qdcbg2q7hf9mdol,PaWDOqkU,2020-0188,2020-05-07,15:17:14,15:39:59,NA,incomplete,10,number,1,left,Purple_Triangle_Dots_4.jpg,Blue_Circle_Grid_4.jpg,Green_Plus_Dots_3.jpg,left,873.3100000099512,true,NA,NA,NA,NA,NA,NA,NA,NA,true
PaWDOqkU,33cla8o0nlo9ukh858i8v1jgjowfr3,3kyqyyshyzkbm79qdcbg2q7hf9mdol,PaWDOqkU,2020-0188,2020-05-07,15:17:14,15:39:59,NA,incomplete,11,number,1,left,Red_Triangle_Stripes_3.jpg,Green_Plus_Chess_3.jpg,Purple_Star_Stripes_4.jpg,left,1035.4800000059186,true,NA,NA,NA,NA,NA,NA,NA,NA,true
PaWDOqkU,33cla8o0nlo9ukh858i8v1jgjowfr3,3kyqyyshyzkbm79qdcbg2q7hf9mdol,PaWDOqkU,2020-0188,2020-05-07,15:17:14,15:39:59,NA,incomplete,12,number,1,right,Purple_Plus_Chess_2.jpg,Blue_Star_Chess_4.jpg,Green_Triangle_Stripes_2.jpg,right,935.4650000022957,true,NA,NA,NA,NA,NA,NA,NA,NA,true
PaWDOqkU,33cla8o0nlo9ukh858i8v1jgjowfr3,3kyqyyshyzkbm79qdcbg2q7hf9mdol,PaWDOqkU,2020-0188,2020-05-07,15:17:14,15:39:59,NA,incomplete,13,number,0,right,Red_Triangle_Dots_3.jpg,Purple_Circle_Dots_4.jpg,Blue_Star_Chess_3.jpg,right,825.1400000008289,true,NA,NA,NA,NA,NA,NA,NA,NA,true
PaWDOqkU,33cla8o0nlo9ukh858i8v1jgjowfr3,3kyqyyshyzkbm79qdcbg2q7hf9mdol,PaWDOqkU,2020-0188,2020-05-07,15:17:14,15:39:59,NA,incomplete,14,number,0,left,Green_Star_Grid_4.jpg,Purple_Triangle_Stripes_4.jpg,Red_Circle_Grid_2.jpg,left,904.4850000063889,true,NA,NA,NA,NA,NA,NA,NA,NA,true
PaWDOqkU,33cla8o0nlo9ukh858i8v1jgjowfr3,3kyqyyshyzkbm79qdcbg2q7hf9mdol,PaWDOqkU,2020-0188,2020-05-07,15:17:14,15:39:59,NA,incomplete,15,number,1,right,Purple_Star_Grid_1.jpg,Blue_Circle_Grid_4.jpg,Green_Triangle_Chess_1.jpg,right,1012.2499999997672,true,NA,NA,NA,NA,NA,NA,NA,NA,true
PaWDOqkU,33cla8o0nlo9ukh858i8v1jgjowfr3,3kyqyyshyzkbm79qdcbg2q7hf9mdol,PaWDOqkU,2020-0188,2020-05-07,15:17:14,15:39:59,NA,incomplete,16,number,1,left,Blue_Triangle_Grid_1.jpg,Purple_Plus_Dots_1.jpg,Red_Circle_Grid_3.jpg,left,977.4449999968056,true,NA,NA,NA,NA,NA,NA,NA,NA,true
PaWDOqkU,33cla8o0nlo9ukh858i8v1jgjowfr3,3kyqyyshyzkbm79qdcbg2q7hf9mdol,PaWDOqkU,2020-0188,2020-05-07,15:17:14,15:39:59,NA,incomplete,17,number,1,left,Purple_Star_Chess_2.jpg,Red_Triangle_Grid_2.jpg,Green_Circle_Chess_3.jpg,left,992.0200000051409,true,NA,NA,NA,NA,NA,NA,NA,NA,true
PaWDOqkU,33cla8o0nlo9ukh858i8v1jgjowfr3,3kyqyyshyzkbm79qdcbg2q7hf9mdol,PaWDOqkU,2020-0188,2020-05-07,15:17:14,15:39:59,NA,incomplete,18,number,1,right,Green_Star_Dots_1.jpg,Blue_Circle_Dots_3.jpg,Purple_Plus_Grid_1.jpg,right,887.6449999952456,true,NA,NA,NA,NA,NA,NA,NA,NA,true
PaWDOqkU,33cla8o0nlo9ukh858i8v1jgjowfr3,3kyqyyshyzkbm79qdcbg2q7hf9mdol,PaWDOqkU,2020-0188,2020-05-07,15:17:14,15:39:59,NA,incomplete,19,number,1,right,Red_Star_Stripes_2.jpg,Purple_Triangle_Stripes_4.jpg,Green_Plus_Grid_2.jpg,right,1005.9649999893736,true,NA,NA,NA,NA,NA,NA,NA,NA,true
PaWDOqkU,33cla8o0nlo9ukh858i8v1jgjowfr3,3kyqyyshyzkbm79qdcbg2q7hf9mdol,PaWDOqkU,2020-0188,2020-05-07,15:17:14,15:39:59,NA,incomplete,20,filling,1,left,Green_Star_Chess_3.jpg,Red_Plus_Chess_4.jpg,Blue_Circle_Stripes_3.jpg,right,940.6099999905564,false,NA,NA,NA,NA,NA,NA,NA,NA,true
PaWDOqkU,33cla8o0nlo9ukh858i8v1jgjowfr3,3kyqyyshyzkbm79qdcbg2q7hf9mdol,PaWDOqkU,2020-0188,2020-05-07,15:17:14,15:39:59,NA,incomplete,21,filling,0,right,Red_Triangle_Chess_2.jpg,Blue_Star_Grid_2.jpg,Green_Plus_Chess_3.jpg,right,1100.4050000046846,true,NA,NA,NA,NA,NA,NA,NA,NA,true
PaWDOqkU,33cla8o0nlo9ukh858i8v1jgjowfr3,3kyqyyshyzkbm79qdcbg2q7hf9mdol,PaWDOqkU,2020-0188,2020-05-07,15:17:14,15:39:59,NA,incomplete,22,filling,1,left,Purple_Triangle_Chess_1.jpg,Blue_Star_Chess_4.jpg,Green_Circle_Stripes_1.jpg,left,1200.8899999927962,true,NA,NA,NA,NA,NA,NA,NA,NA,true
PaWDOqkU,33cla8o0nlo9ukh858i8v1jgjowfr3,3kyqyyshyzkbm79qdcbg2q7hf9mdol,PaWDOqkU,2020-0188,2020-05-07,15:17:14,15:39:59,NA,incomplete,23,filling,1,left,Blue_Star_Stripes_4.jpg,Red_Circle_Stripes_1.jpg,Purple_Plus_Grid_4.jpg,left,1113.1699999968987,true,NA,NA,NA,NA,NA,NA,NA,NA,true
PaWDOqkU,33cla8o0nlo9ukh858i8v1jgjowfr3,3kyqyyshyzkbm79qdcbg2q7hf9mdol,PaWDOqkU,2020-0188,2020-05-07,15:17:14,15:39:59,NA,incomplete,24,filling,1,left,Red_Star_Grid_3.jpg,Green_Triangle_Grid_4.jpg,Blue_Plus_Chess_3.jpg,left,1291.8550000031246,true,NA,NA,NA,NA,NA,NA,NA,NA,true
PaWDOqkU,33cla8o0nlo9ukh858i8v1jgjowfr3,3kyqyyshyzkbm79qdcbg2q7hf9mdol,PaWDOqkU,2020-0188,2020-05-07,15:17:14,15:39:59,NA,incomplete,25,filling,1,right,Green_Circle_Chess_4.jpg,Purple_Star_Grid_4.jpg,Red_Plus_Chess_3.jpg,right,1068.0699999938952,true,NA,NA,NA,NA,NA,NA,NA,NA,true
PaWDOqkU,33cla8o0nlo9ukh858i8v1jgjowfr3,3kyqyyshyzkbm79qdcbg2q7hf9mdol,PaWDOqkU,2020-0188,2020-05-07,15:17:14,15:39:59,NA,incomplete,26,filling,1,left,Purple_Triangle_Stripes_4.jpg,Green_Star_Stripes_2.jpg,Blue_Plus_Grid_4.jpg,left,976.714999997057,true,NA,NA,NA,NA,NA,NA,NA,NA,true
PaWDOqkU,33cla8o0nlo9ukh858i8v1jgjowfr3,3kyqyyshyzkbm79qdcbg2q7hf9mdol,PaWDOqkU,2020-0188,2020-05-07,15:17:14,15:39:59,NA,incomplete,27,filling,0,right,Red_Plus_Chess_3.jpg,Green_Circle_Stripes_3.jpg,Blue_Star_Chess_1.jpg,right,955.7050000003073,true,NA,NA,NA,NA,NA,NA,NA,NA,true
PaWDOqkU,33cla8o0nlo9ukh858i8v1jgjowfr3,3kyqyyshyzkbm79qdcbg2q7hf9mdol,PaWDOqkU,2020-0188,2020-05-07,15:17:14,15:39:59,NA,incomplete,28,filling,1,right,Green_Plus_Chess_1.jpg,Red_Star_Stripes_1.jpg,Purple_Circle_Chess_2.jpg,right,1088.1850000005215,true,NA,NA,NA,NA,NA,NA,NA,NA,true
PaWDOqkU,33cla8o0nlo9ukh858i8v1jgjowfr3,3kyqyyshyzkbm79qdcbg2q7hf9mdol,PaWDOqkU,2020-0188,2020-05-07,15:17:14,15:39:59,NA,incomplete,29,filling,0,left,Purple_Plus_Grid_1.jpg,Green_Triangle_Grid_2.jpg,Blue_Circle_Stripes_1.jpg,left,1111.6200000105891,true,NA,NA,NA,NA,NA,NA,NA,NA,true
PaWDOqkU,33cla8o0nlo9ukh858i8v1jgjowfr3,3kyqyyshyzkbm79qdcbg2q7hf9mdol,PaWDOqkU,2020-0188,2020-05-07,15:17:14,15:39:59,NA,incomplete,30,filling,1,right,Red_Star_Chess_1.jpg,Blue_Plus_Dots_1.jpg,Purple_Circle_Chess_3.jpg,right,925.6549999990966,true,NA,NA,NA,NA,NA,NA,NA,NA,true
PaWDOqkU,33cla8o0nlo9ukh858i8v1jgjowfr3,3kyqyyshyzkbm79qdcbg2q7hf9mdol,PaWDOqkU,2020-0188,2020-05-07,15:17:14,15:39:59,NA,incomplete,31,filling,1,right,Blue_Star_Chess_3.jpg,Green_Circle_Dots_3.jpg,Red_Plus_Chess_1.jpg,right,1146.099999998114,true,NA,NA,NA,NA,NA,NA,NA,NA,true
PaWDOqkU,33cla8o0nlo9ukh858i8v1jgjowfr3,3kyqyyshyzkbm79qdcbg2q7hf9mdol,PaWDOqkU,2020-0188,2020-05-07,15:17:14,15:39:59,NA,incomplete,32,filling,1,left,Blue_Plus_Dots_2.jpg,Green_Star_Dots_3.jpg,Purple_Triangle_Stripes_2.jpg,left,1263.5099999897648,true,NA,NA,NA,NA,NA,NA,NA,NA,true
PaWDOqkU,33cla8o0nlo9ukh858i8v1jgjowfr3,3kyqyyshyzkbm79qdcbg2q7hf9mdol,PaWDOqkU,2020-0188,2020-05-07,15:17:14,15:39:59,NA,incomplete,33,filling,1,right,Green_Star_Stripes_4.jpg,Red_Triangle_Chess_4.jpg,Purple_Plus_Stripes_2.jpg,right,1435.924999997951,true,NA,NA,NA,NA,NA,NA,NA,NA,true
PaWDOqkU,33cla8o0nlo9ukh858i8v1jgjowfr3,3kyqyyshyzkbm79qdcbg2q7hf9mdol,PaWDOqkU,2020-0188,2020-05-07,15:17:14,15:39:59,NA,incomplete,34,filling,1,left,Green_Circle_Grid_3.jpg,Purple_Star_Grid_2.jpg,Red_Triangle_Stripes_3.jpg,left,1215.8300000010058,true,NA,NA,NA,NA,NA,NA,NA,NA,true
PaWDOqkU,33cla8o0nlo9ukh858i8v1jgjowfr3,3kyqyyshyzkbm79qdcbg2q7hf9mdol,PaWDOqkU,2020-0188,2020-05-07,15:17:14,15:39:59,NA,incomplete,35,filling,1,right,Red_Triangle_Chess_4.jpg,Green_Plus_Dots_4.jpg,Purple_Circle_Chess_3.jpg,right,1109.0750000003027,true,NA,NA,NA,NA,NA,NA,NA,NA,true
PaWDOqkU,33cla8o0nlo9ukh858i8v1jgjowfr3,3kyqyyshyzkbm79qdcbg2q7hf9mdol,PaWDOqkU,2020-0188,2020-05-07,15:17:14,15:39:59,NA,incomplete,36,filling,0,left,Purple_Star_Dots_2.jpg,Green_Plus_Dots_1.jpg,Blue_Circle_Stripes_2.jpg,left,1260.3499999968335,true,NA,NA,NA,NA,NA,NA,NA,NA,true
PaWDOqkU,33cla8o0nlo9ukh858i8v1jgjowfr3,3kyqyyshyzkbm79qdcbg2q7hf9mdol,PaWDOqkU,2020-0188,2020-05-07,15:17:14,15:39:59,NA,incomplete,37,filling,0,right,Red_Star_Chess_4.jpg,Green_Circle_Grid_4.jpg,Purple_Plus_Chess_3.jpg,right,1024.3000000045868,true,NA,NA,NA,NA,NA,NA,NA,NA,true
PaWDOqkU,33cla8o0nlo9ukh858i8v1jgjowfr3,3kyqyyshyzkbm79qdcbg2q7hf9mdol,PaWDOqkU,2020-0188,2020-05-07,15:17:14,15:39:59,NA,incomplete,38,filling,1,right,Red_Circle_Dots_4.jpg,Purple_Star_Stripes_4.jpg,Green_Triangle_Dots_1.jpg,right,1163.844999988214,true,NA,NA,NA,NA,NA,NA,NA,NA,true
PaWDOqkU,33cla8o0nlo9ukh858i8v1jgjowfr3,3kyqyyshyzkbm79qdcbg2q7hf9mdol,PaWDOqkU,2020-0188,2020-05-07,15:17:14,15:39:59,NA,incomplete,39,filling,1,right,Green_Star_Stripes_3.jpg,Blue_Circle_Dots_3.jpg,Red_Triangle_Stripes_1.jpg,right,1138.920000012149,true,NA,NA,NA,NA,NA,NA,NA,NA,true
PaWDOqkU,33cla8o0nlo9ukh858i8v1jgjowfr3,3kyqyyshyzkbm79qdcbg2q7hf9mdol,PaWDOqkU,2020-0188,2020-05-07,15:17:14,15:39:59,NA,incomplete,0,number,0,left,Green_Star_Stripes_2.jpg,Red_Triangle_Chess_2.jpg,Blue_Circle_Stripes_4.jpg,left,1263.5750000044936,true,high,NA,NA,NA,NA,NA,NA,NA,false
PaWDOqkU,33cla8o0nlo9ukh858i8v1jgjowfr3,3kyqyyshyzkbm79qdcbg2q7hf9mdol,PaWDOqkU,2020-0188,2020-05-07,15:17:14,15:39:59,NA,incomplete,1,number,1,right,Blue_Circle_Dots_1.jpg,Red_Star_Dots_3.jpg,Green_Plus_Stripes_1.jpg,right,884.5100000035018,true,high,NA,NA,NA,NA,NA,NA,NA,false
PaWDOqkU,33cla8o0nlo9ukh858i8v1jgjowfr3,3kyqyyshyzkbm79qdcbg2q7hf9mdol,PaWDOqkU,2020-0188,2020-05-07,15:17:14,15:39:59,NA,incomplete,2,number,0,left,Blue_Triangle_Dots_1.jpg,Red_Circle_Grid_1.jpg,Purple_Plus_Dots_2.jpg,left,706.9049999990966,true,high,NA,NA,NA,NA,NA,NA,NA,false
PaWDOqkU,33cla8o0nlo9ukh858i8v1jgjowfr3,3kyqyyshyzkbm79qdcbg2q7hf9mdol,PaWDOqkU,2020-0188,2020-05-07,15:17:14,15:39:59,NA,incomplete,3,number,1,left,Blue_Triangle_Dots_1.jpg,Purple_Plus_Stripes_1.jpg,Green_Circle_Dots_3.jpg,left,824.7000000119442,true,high,NA,NA,NA,NA,NA,NA,NA,false
PaWDOqkU,33cla8o0nlo9ukh858i8v1jgjowfr3,3kyqyyshyzkbm79qdcbg2q7hf9mdol,PaWDOqkU,2020-0188,2020-05-07,15:17:14,15:39:59,NA,incomplete,4,number,1,right,Blue_Triangle_Stripes_2.jpg,Green_Plus_Stripes_3.jpg,Red_Circle_Grid_2.jpg,right,1069.3000000028405,true,high,NA,NA,NA,NA,NA,NA,NA,false
PaWDOqkU,33cla8o0nlo9ukh858i8v1jgjowfr3,3kyqyyshyzkbm79qdcbg2q7hf9mdol,PaWDOqkU,2020-0188,2020-05-07,15:17:14,15:39:59,NA,incomplete,5,number,1,left,Blue_Triangle_Grid_4.jpg,Purple_Circle_Dots_4.jpg,Green_Plus_Grid_1.jpg,left,733.219999994617,true,high,NA,NA,NA,NA,NA,NA,NA,false
PaWDOqkU,33cla8o0nlo9ukh858i8v1jgjowfr3,3kyqyyshyzkbm79qdcbg2q7hf9mdol,PaWDOqkU,2020-0188,2020-05-07,15:17:14,15:39:59,NA,incomplete,6,number,1,left,Green_Star_Dots_1.jpg,Red_Plus_Chess_1.jpg,Blue_Circle_Dots_3.jpg,left,705.8050000050571,true,high,NA,NA,NA,NA,NA,NA,NA,false
PaWDOqkU,33cla8o0nlo9ukh858i8v1jgjowfr3,3kyqyyshyzkbm79qdcbg2q7hf9mdol,PaWDOqkU,2020-0188,2020-05-07,15:17:14,15:39:59,NA,incomplete,7,number,1,right,Red_Circle_Grid_1.jpg,Green_Plus_Grid_2.jpg,Purple_Triangle_Dots_1.jpg,right,712.2999999992317,true,high,NA,NA,NA,NA,NA,NA,NA,false
PaWDOqkU,33cla8o0nlo9ukh858i8v1jgjowfr3,3kyqyyshyzkbm79qdcbg2q7hf9mdol,PaWDOqkU,2020-0188,2020-05-07,15:17:14,15:39:59,NA,incomplete,8,number,1,right,Purple_Triangle_Chess_1.jpg,Green_Star_Chess_2.jpg,Blue_Plus_Dots_1.jpg,right,924.6899999998277,true,high,NA,NA,NA,NA,NA,NA,NA,false
PaWDOqkU,33cla8o0nlo9ukh858i8v1jgjowfr3,3kyqyyshyzkbm79qdcbg2q7hf9mdol,PaWDOqkU,2020-0188,2020-05-07,15:17:14,15:39:59,NA,incomplete,9,number,1,right,Purple_Star_Dots_1.jpg,Green_Triangle_Dots_3.jpg,Red_Plus_Stripes_1.jpg,right,752.8800000000047,true,high,NA,NA,NA,NA,NA,NA,NA,false
PaWDOqkU,33cla8o0nlo9ukh858i8v1jgjowfr3,3kyqyyshyzkbm79qdcbg2q7hf9mdol,PaWDOqkU,2020-0188,2020-05-07,15:17:14,15:39:59,NA,incomplete,10,filling,1,right,Purple_Circle_Dots_2.jpg,Blue_Plus_Chess_2.jpg,Red_Star_Dots_1.jpg,left,804.4599999993807,false,high,NA,NA,NA,NA,NA,NA,NA,false
PaWDOqkU,33cla8o0nlo9ukh858i8v1jgjowfr3,3kyqyyshyzkbm79qdcbg2q7hf9mdol,PaWDOqkU,2020-0188,2020-05-07,15:17:14,15:39:59,NA,incomplete,11,filling,1,right,Green_Star_Grid_3.jpg,Purple_Triangle_Chess_3.jpg,Red_Plus_Grid_1.jpg,left,884.1600000014296,false,high,NA,NA,NA,NA,NA,NA,NA,false
PaWDOqkU,33cla8o0nlo9ukh858i8v1jgjowfr3,3kyqyyshyzkbm79qdcbg2q7hf9mdol,PaWDOqkU,2020-0188,2020-05-07,15:17:14,15:39:59,NA,incomplete,12,filling,1,left,Blue_Plus_Stripes_4.jpg,Purple_Triangle_Stripes_1.jpg,Green_Star_Chess_4.jpg,right,656.5350000018952,false,high,NA,NA,NA,NA,NA,NA,NA,false
PaWDOqkU,33cla8o0nlo9ukh858i8v1jgjowfr3,3kyqyyshyzkbm79qdcbg2q7hf9mdol,PaWDOqkU,2020-0188,2020-05-07,15:17:14,15:39:59,NA,incomplete,13,filling,1,right,Red_Circle_Grid_1.jpg,Purple_Plus_Stripes_1.jpg,Green_Triangle_Grid_4.jpg,left,825.9050000051502,false,high,NA,NA,NA,NA,NA,NA,NA,false
PaWDOqkU,33cla8o0nlo9ukh858i8v1jgjowfr3,3kyqyyshyzkbm79qdcbg2q7hf9mdol,PaWDOqkU,2020-0188,2020-05-07,15:17:14,15:39:59,NA,incomplete,14,filling,0,right,Red_Star_Dots_3.jpg,Purple_Circle_Stripes_3.jpg,Green_Plus_Dots_1.jpg,left,880.2850000065519,false,high,NA,NA,NA,NA,NA,NA,NA,false
PaWDOqkU,33cla8o0nlo9ukh858i8v1jgjowfr3,3kyqyyshyzkbm79qdcbg2q7hf9mdol,PaWDOqkU,2020-0188,2020-05-07,15:17:14,15:39:59,NA,incomplete,15,filling,1,left,Red_Triangle_Chess_3.jpg,Blue_Plus_Chess_1.jpg,Green_Circle_Stripes_3.jpg,right,853.0400000017835,false,high,NA,NA,NA,NA,NA,NA,NA,false
PaWDOqkU,33cla8o0nlo9ukh858i8v1jgjowfr3,3kyqyyshyzkbm79qdcbg2q7hf9mdol,PaWDOqkU,2020-0188,2020-05-07,15:17:14,15:39:59,NA,incomplete,16,filling,1,left,Blue_Star_Dots_1.jpg,Purple_Triangle_Dots_2.jpg,Green_Circle_Stripes_1.jpg,left,953.2550000003539,true,high,NA,NA,NA,NA,NA,NA,NA,false
PaWDOqkU,33cla8o0nlo9ukh858i8v1jgjowfr3,3kyqyyshyzkbm79qdcbg2q7hf9mdol,PaWDOqkU,2020-0188,2020-05-07,15:17:14,15:39:59,NA,incomplete,17,filling,1,left,Purple_Circle_Dots_4.jpg,Green_Plus_Dots_3.jpg,Blue_Triangle_Grid_4.jpg,right,1093.0400000070222,false,high,NA,NA,NA,NA,NA,NA,NA,false
PaWDOqkU,33cla8o0nlo9ukh858i8v1jgjowfr3,3kyqyyshyzkbm79qdcbg2q7hf9mdol,PaWDOqkU,2020-0188,2020-05-07,15:17:14,15:39:59,NA,incomplete,18,filling,1,right,Red_Triangle_Chess_3.jpg,Green_Star_Stripes_3.jpg,Blue_Circle_Chess_1.jpg,right,1062.2149999981048,true,high,NA,NA,NA,NA,NA,NA,NA,false
PaWDOqkU,33cla8o0nlo9ukh858i8v1jgjowfr3,3kyqyyshyzkbm79qdcbg2q7hf9mdol,PaWDOqkU,2020-0188,2020-05-07,15:17:14,15:39:59,NA,incomplete,19,filling,1,right,Purple_Triangle_Stripes_1.jpg,Green_Plus_Dots_1.jpg,Red_Star_Stripes_4.jpg,right,1037.2299999871757,true,high,NA,NA,NA,NA,NA,NA,NA,false
PaWDOqkU,33cla8o0nlo9ukh858i8v1jgjowfr3,3kyqyyshyzkbm79qdcbg2q7hf9mdol,PaWDOqkU,2020-0188,2020-05-07,15:17:14,15:39:59,NA,incomplete,20,number,0,left,Red_Triangle_Chess_1.jpg,Blue_Star_Dots_1.jpg,Purple_Plus_Chess_3.jpg,right,940.0650000025053,false,high,NA,NA,NA,NA,NA,NA,NA,false
PaWDOqkU,33cla8o0nlo9ukh858i8v1jgjowfr3,3kyqyyshyzkbm79qdcbg2q7hf9mdol,PaWDOqkU,2020-0188,2020-05-07,15:17:14,15:39:59,NA,incomplete,21,number,1,right,Red_Plus_Chess_1.jpg,Green_Circle_Chess_3.jpg,Purple_Triangle_Dots_1.jpg,left,993.3949999976903,false,high,NA,NA,NA,NA,NA,NA,NA,false
PaWDOqkU,33cla8o0nlo9ukh858i8v1jgjowfr3,3kyqyyshyzkbm79qdcbg2q7hf9mdol,PaWDOqkU,2020-0188,2020-05-07,15:17:14,15:39:59,NA,incomplete,22,number,0,right,Green_Circle_Chess_4.jpg,Blue_Plus_Chess_3.jpg,Red_Star_Stripes_4.jpg,right,864.7750000091037,true,high,NA,NA,NA,NA,NA,NA,NA,false
PaWDOqkU,33cla8o0nlo9ukh858i8v1jgjowfr3,3kyqyyshyzkbm79qdcbg2q7hf9mdol,PaWDOqkU,2020-0188,2020-05-07,15:17:14,15:39:59,NA,incomplete,23,number,0,right,Purple_Plus_Dots_3.jpg,Red_Circle_Dots_4.jpg,Green_Star_Grid_3.jpg,left,1057.570000004489,false,high,NA,NA,NA,NA,NA,NA,NA,false
PaWDOqkU,33cla8o0nlo9ukh858i8v1jgjowfr3,3kyqyyshyzkbm79qdcbg2q7hf9mdol,PaWDOqkU,2020-0188,2020-05-07,15:17:14,15:39:59,NA,incomplete,24,number,1,right,Green_Triangle_Grid_3.jpg,Purple_Circle_Grid_1.jpg,Red_Star_Stripes_3.jpg,left,933.1100000126753,false,high,NA,NA,NA,NA,NA,NA,NA,false
PaWDOqkU,33cla8o0nlo9ukh858i8v1jgjowfr3,3kyqyyshyzkbm79qdcbg2q7hf9mdol,PaWDOqkU,2020-0188,2020-05-07,15:17:14,15:39:59,NA,incomplete,25,number,0,right,Red_Circle_Grid_3.jpg,Green_Triangle_Grid_1.jpg,Blue_Plus_Dots_3.jpg,left,996.579999991809,false,high,NA,NA,NA,NA,NA,NA,NA,false
PaWDOqkU,33cla8o0nlo9ukh858i8v1jgjowfr3,3kyqyyshyzkbm79qdcbg2q7hf9mdol,PaWDOqkU,2020-0188,2020-05-07,15:17:14,15:39:59,NA,incomplete,26,number,1,left,Purple_Circle_Grid_3.jpg,Green_Triangle_Chess_3.jpg,Red_Star_Grid_4.jpg,left,955.4400000051828,true,high,NA,NA,NA,NA,NA,NA,NA,false
PaWDOqkU,33cla8o0nlo9ukh858i8v1jgjowfr3,3kyqyyshyzkbm79qdcbg2q7hf9mdol,PaWDOqkU,2020-0188,2020-05-07,15:17:14,15:39:59,NA,incomplete,27,number,1,right,Purple_Circle_Stripes_1.jpg,Blue_Triangle_Stripes_3.jpg,Red_Plus_Grid_1.jpg,left,979.990000007092,false,high,NA,NA,NA,NA,NA,NA,NA,false
PaWDOqkU,33cla8o0nlo9ukh858i8v1jgjowfr3,3kyqyyshyzkbm79qdcbg2q7hf9mdol,PaWDOqkU,2020-0188,2020-05-07,15:17:14,15:39:59,NA,incomplete,28,number,0,left,Blue_Circle_Stripes_1.jpg,Red_Triangle_Dots_1.jpg,Purple_Star_Stripes_2.jpg,right,1036.1249999987194,false,high,NA,NA,NA,NA,NA,NA,NA,false
PaWDOqkU,33cla8o0nlo9ukh858i8v1jgjowfr3,3kyqyyshyzkbm79qdcbg2q7hf9mdol,PaWDOqkU,2020-0188,2020-05-07,15:17:14,15:39:59,NA,incomplete,29,number,1,left,Purple_Triangle_Dots_2.jpg,Blue_Plus_Chess_2.jpg,Red_Circle_Dots_3.jpg,right,1024.265000000014,false,high,NA,NA,NA,NA,NA,NA,NA,false
PaWDOqkU,33cla8o0nlo9ukh858i8v1jgjowfr3,3kyqyyshyzkbm79qdcbg2q7hf9mdol,PaWDOqkU,2020-0188,2020-05-07,15:17:14,15:39:59,NA,incomplete,30,filling,0,left,Green_Plus_Stripes_4.jpg,Blue_Triangle_Stripes_1.jpg,Red_Circle_Grid_4.jpg,left,1254.9999999901047,true,high,NA,NA,NA,NA,NA,NA,NA,false
PaWDOqkU,33cla8o0nlo9ukh858i8v1jgjowfr3,3kyqyyshyzkbm79qdcbg2q7hf9mdol,PaWDOqkU,2020-0188,2020-05-07,15:17:14,15:39:59,NA,incomplete,31,filling,1,right,Red_Plus_Stripes_2.jpg,Purple_Triangle_Grid_2.jpg,Blue_Star_Stripes_3.jpg,right,1701.2649999960558,true,high,NA,NA,NA,NA,NA,NA,NA,false
PaWDOqkU,33cla8o0nlo9ukh858i8v1jgjowfr3,3kyqyyshyzkbm79qdcbg2q7hf9mdol,PaWDOqkU,2020-0188,2020-05-07,15:17:14,15:39:59,NA,incomplete,32,filling,1,right,Purple_Star_Dots_4.jpg,Green_Triangle_Grid_4.jpg,Red_Plus_Dots_1.jpg,right,1147.9200000030687,true,high,NA,NA,NA,NA,NA,NA,NA,false
PaWDOqkU,33cla8o0nlo9ukh858i8v1jgjowfr3,3kyqyyshyzkbm79qdcbg2q7hf9mdol,PaWDOqkU,2020-0188,2020-05-07,15:17:14,15:39:59,NA,incomplete,33,filling,0,left,Blue_Circle_Chess_4.jpg,Green_Plus_Chess_3.jpg,Purple_Star_Dots_4.jpg,left,938.2000000041444,true,high,NA,NA,NA,NA,NA,NA,NA,false
PaWDOqkU,33cla8o0nlo9ukh858i8v1jgjowfr3,3kyqyyshyzkbm79qdcbg2q7hf9mdol,PaWDOqkU,2020-0188,2020-05-07,15:17:14,15:39:59,NA,incomplete,34,filling,1,right,Red_Circle_Stripes_3.jpg,Purple_Star_Grid_3.jpg,Green_Triangle_Stripes_2.jpg,left,816.1050000053365,false,high,NA,NA,NA,NA,NA,NA,NA,false
PaWDOqkU,33cla8o0nlo9ukh858i8v1jgjowfr3,3kyqyyshyzkbm79qdcbg2q7hf9mdol,PaWDOqkU,2020-0188,2020-05-07,15:17:14,15:39:59,NA,incomplete,35,filling,1,left,Red_Triangle_Stripes_4.jpg,Purple_Star_Stripes_1.jpg,Blue_Circle_Chess_4.jpg,left,1375.2600000007078,true,high,NA,NA,NA,NA,NA,NA,NA,false
PaWDOqkU,33cla8o0nlo9ukh858i8v1jgjowfr3,3kyqyyshyzkbm79qdcbg2q7hf9mdol,PaWDOqkU,2020-0188,2020-05-07,15:17:14,15:39:59,NA,incomplete,36,filling,1,right,Green_Plus_Chess_2.jpg,Blue_Star_Dots_2.jpg,Red_Circle_Chess_1.jpg,right,997.8549999941606,true,high,NA,NA,NA,NA,NA,NA,NA,false
PaWDOqkU,33cla8o0nlo9ukh858i8v1jgjowfr3,3kyqyyshyzkbm79qdcbg2q7hf9mdol,PaWDOqkU,2020-0188,2020-05-07,15:17:14,15:39:59,NA,incomplete,37,filling,1,right,Red_Circle_Dots_4.jpg,Purple_Plus_Chess_4.jpg,Green_Triangle_Dots_2.jpg,right,1183.6749999929452,true,high,NA,NA,NA,NA,NA,NA,NA,false
PaWDOqkU,33cla8o0nlo9ukh858i8v1jgjowfr3,3kyqyyshyzkbm79qdcbg2q7hf9mdol,PaWDOqkU,2020-0188,2020-05-07,15:17:14,15:39:59,NA,incomplete,38,filling,1,left,Red_Triangle_Chess_3.jpg,Blue_Circle_Chess_4.jpg,Purple_Plus_Dots_3.jpg,left,930.4299999930663,true,high,NA,NA,NA,NA,NA,NA,NA,false
PaWDOqkU,33cla8o0nlo9ukh858i8v1jgjowfr3,3kyqyyshyzkbm79qdcbg2q7hf9mdol,PaWDOqkU,2020-0188,2020-05-07,15:17:14,15:39:59,NA,incomplete,39,filling,0,left,Purple_Star_Chess_2.jpg,Green_Plus_Chess_4.jpg,Red_Circle_Grid_2.jpg,right,923.3149999927264,false,high,NA,NA,NA,NA,NA,NA,NA,false
PaWDOqkU,33cla8o0nlo9ukh858i8v1jgjowfr3,3kyqyyshyzkbm79qdcbg2q7hf9mdol,PaWDOqkU,2020-0188,2020-05-07,15:17:14,15:39:59,NA,incomplete,40,number,1,left,Purple_Plus_Chess_3.jpg,Red_Circle_Dots_3.jpg,Blue_Star_Chess_1.jpg,right,1064.379999996163,false,high,NA,NA,NA,NA,NA,NA,NA,false
PaWDOqkU,33cla8o0nlo9ukh858i8v1jgjowfr3,3kyqyyshyzkbm79qdcbg2q7hf9mdol,PaWDOqkU,2020-0188,2020-05-07,15:17:14,15:39:59,NA,incomplete,41,number,1,left,Red_Triangle_Chess_1.jpg,Blue_Circle_Grid_1.jpg,Green_Plus_Chess_2.jpg,right,1076.4349999953993,false,high,NA,NA,NA,NA,NA,NA,NA,false
PaWDOqkU,33cla8o0nlo9ukh858i8v1jgjowfr3,3kyqyyshyzkbm79qdcbg2q7hf9mdol,PaWDOqkU,2020-0188,2020-05-07,15:17:14,15:39:59,NA,incomplete,42,number,0,right,Purple_Circle_Chess_4.jpg,Blue_Star_Chess_1.jpg,Red_Triangle_Dots_4.jpg,right,970.709999994142,true,high,NA,NA,NA,NA,NA,NA,NA,false
PaWDOqkU,33cla8o0nlo9ukh858i8v1jgjowfr3,3kyqyyshyzkbm79qdcbg2q7hf9mdol,PaWDOqkU,2020-0188,2020-05-07,15:17:14,15:39:59,NA,incomplete,43,number,1,left,Purple_Plus_Grid_3.jpg,Red_Triangle_Dots_3.jpg,Blue_Star_Grid_4.jpg,right,1059.4049999926938,false,high,NA,NA,NA,NA,NA,NA,NA,false
PaWDOqkU,33cla8o0nlo9ukh858i8v1jgjowfr3,3kyqyyshyzkbm79qdcbg2q7hf9mdol,PaWDOqkU,2020-0188,2020-05-07,15:17:14,15:39:59,NA,incomplete,44,number,1,left,Purple_Star_Chess_4.jpg,Blue_Triangle_Grid_4.jpg,Red_Circle_Chess_3.jpg,right,1104.9249999923632,false,high,NA,NA,NA,NA,NA,NA,NA,false
PaWDOqkU,33cla8o0nlo9ukh858i8v1jgjowfr3,3kyqyyshyzkbm79qdcbg2q7hf9mdol,PaWDOqkU,2020-0188,2020-05-07,15:17:14,15:39:59,NA,incomplete,45,number,1,left,Red_Star_Dots_2.jpg,Purple_Circle_Chess_2.jpg,Green_Plus_Dots_4.jpg,right,1347.3400000075344,false,high,NA,NA,NA,NA,NA,NA,NA,false
PaWDOqkU,33cla8o0nlo9ukh858i8v1jgjowfr3,3kyqyyshyzkbm79qdcbg2q7hf9mdol,PaWDOqkU,2020-0188,2020-05-07,15:17:14,15:39:59,NA,incomplete,46,number,1,right,Purple_Star_Chess_1.jpg,Red_Triangle_Chess_3.jpg,Blue_Plus_Dots_1.jpg,right,952.9100000072503,true,high,NA,NA,NA,NA,NA,NA,NA,false
PaWDOqkU,33cla8o0nlo9ukh858i8v1jgjowfr3,3kyqyyshyzkbm79qdcbg2q7hf9mdol,PaWDOqkU,2020-0188,2020-05-07,15:17:14,15:39:59,NA,incomplete,47,number,0,right,Blue_Triangle_Chess_3.jpg,Purple_Plus_Chess_1.jpg,Red_Circle_Grid_3.jpg,left,1164.5750000025146,false,high,NA,NA,NA,NA,NA,NA,NA,false
PaWDOqkU,33cla8o0nlo9ukh858i8v1jgjowfr3,3kyqyyshyzkbm79qdcbg2q7hf9mdol,PaWDOqkU,2020-0188,2020-05-07,15:17:14,15:39:59,NA,incomplete,48,number,1,left,Blue_Plus_Chess_1.jpg,Green_Circle_Stripes_1.jpg,Purple_Star_Chess_2.jpg,right,973.3899999991991,false,high,NA,NA,NA,NA,NA,NA,NA,false
PaWDOqkU,33cla8o0nlo9ukh858i8v1jgjowfr3,3kyqyyshyzkbm79qdcbg2q7hf9mdol,PaWDOqkU,2020-0188,2020-05-07,15:17:14,15:39:59,NA,incomplete,49,number,1,right,Blue_Star_Grid_3.jpg,Green_Triangle_Grid_2.jpg,Red_Circle_Stripes_3.jpg,right,932.3849999927916,true,high,NA,NA,NA,NA,NA,NA,NA,false
PaWDOqkU,33cla8o0nlo9ukh858i8v1jgjowfr3,3kyqyyshyzkbm79qdcbg2q7hf9mdol,PaWDOqkU,2020-0188,2020-05-07,15:17:14,15:39:59,NA,incomplete,50,filling,1,left,Blue_Star_Chess_2.jpg,Red_Circle_Chess_3.jpg,Purple_Triangle_Stripes_2.jpg,right,1045.1000000030035,false,high,NA,NA,NA,NA,NA,NA,NA,false
PaWDOqkU,33cla8o0nlo9ukh858i8v1jgjowfr3,3kyqyyshyzkbm79qdcbg2q7hf9mdol,PaWDOqkU,2020-0188,2020-05-07,15:17:14,15:39:59,NA,incomplete,51,filling,1,left,Purple_Triangle_Dots_2.jpg,Blue_Circle_Dots_1.jpg,Green_Plus_Grid_2.jpg,right,899.0449999982957,false,high,NA,NA,NA,NA,NA,NA,NA,false
PaWDOqkU,33cla8o0nlo9ukh858i8v1jgjowfr3,3kyqyyshyzkbm79qdcbg2q7hf9mdol,PaWDOqkU,2020-0188,2020-05-07,15:17:14,15:39:59,NA,incomplete,52,filling,1,left,Green_Star_Dots_1.jpg,Blue_Plus_Dots_4.jpg,Red_Triangle_Chess_1.jpg,left,1372.5450000056298,true,high,NA,NA,NA,NA,NA,NA,NA,false
PaWDOqkU,33cla8o0nlo9ukh858i8v1jgjowfr3,3kyqyyshyzkbm79qdcbg2q7hf9mdol,PaWDOqkU,2020-0188,2020-05-07,15:17:14,15:39:59,NA,incomplete,53,filling,1,left,Purple_Circle_Grid_2.jpg,Blue_Star_Grid_1.jpg,Green_Plus_Chess_2.jpg,left,1316.8949999962933,true,high,NA,NA,NA,NA,NA,NA,NA,false
PaWDOqkU,33cla8o0nlo9ukh858i8v1jgjowfr3,3kyqyyshyzkbm79qdcbg2q7hf9mdol,PaWDOqkU,2020-0188,2020-05-07,15:17:14,15:39:59,NA,incomplete,54,filling,1,left,Blue_Plus_Stripes_1.jpg,Red_Circle_Stripes_2.jpg,Green_Star_Dots_1.jpg,left,879.72000001173,true,high,NA,NA,NA,NA,NA,NA,NA,false
PaWDOqkU,33cla8o0nlo9ukh858i8v1jgjowfr3,3kyqyyshyzkbm79qdcbg2q7hf9mdol,PaWDOqkU,2020-0188,2020-05-07,15:17:14,15:39:59,NA,incomplete,55,filling,0,left,Green_Plus_Stripes_3.jpg,Red_Triangle_Stripes_1.jpg,Blue_Star_Dots_3.jpg,left,975.655000002007,true,high,NA,NA,NA,NA,NA,NA,NA,false
PaWDOqkU,33cla8o0nlo9ukh858i8v1jgjowfr3,3kyqyyshyzkbm79qdcbg2q7hf9mdol,PaWDOqkU,2020-0188,2020-05-07,15:17:14,15:39:59,NA,incomplete,56,filling,1,left,Blue_Circle_Stripes_1.jpg,Red_Triangle_Stripes_3.jpg,Purple_Star_Dots_1.jpg,right,937.9849999968428,false,high,NA,NA,NA,NA,NA,NA,NA,false
PaWDOqkU,33cla8o0nlo9ukh858i8v1jgjowfr3,3kyqyyshyzkbm79qdcbg2q7hf9mdol,PaWDOqkU,2020-0188,2020-05-07,15:17:14,15:39:59,NA,incomplete,57,filling,1,left,Green_Plus_Grid_3.jpg,Red_Triangle_Grid_4.jpg,Blue_Circle_Dots_3.jpg,left,948.0199999961769,true,high,NA,NA,NA,NA,NA,NA,NA,false
PaWDOqkU,33cla8o0nlo9ukh858i8v1jgjowfr3,3kyqyyshyzkbm79qdcbg2q7hf9mdol,PaWDOqkU,2020-0188,2020-05-07,15:17:14,15:39:59,NA,incomplete,58,filling,1,right,Blue_Plus_Dots_3.jpg,Green_Circle_Stripes_3.jpg,Purple_Star_Dots_4.jpg,right,1043.680000002496,true,high,NA,NA,NA,NA,NA,NA,NA,false
PaWDOqkU,33cla8o0nlo9ukh858i8v1jgjowfr3,3kyqyyshyzkbm79qdcbg2q7hf9mdol,PaWDOqkU,2020-0188,2020-05-07,15:17:14,15:39:59,NA,incomplete,59,filling,1,right,Green_Star_Grid_3.jpg,Purple_Plus_Stripes_3.jpg,Red_Circle_Grid_4.jpg,right,1027.090000003227,true,high,NA,NA,NA,NA,NA,NA,NA,false
PaWDOqkU,33cla8o0nlo9ukh858i8v1jgjowfr3,3kyqyyshyzkbm79qdcbg2q7hf9mdol,PaWDOqkU,2020-0188,2020-05-07,15:17:14,15:39:59,NA,incomplete,60,number,1,left,Green_Triangle_Dots_2.jpg,Purple_Star_Stripes_2.jpg,Blue_Plus_Dots_4.jpg,right,1056.365000011283,false,high,NA,NA,NA,NA,NA,NA,NA,false
PaWDOqkU,33cla8o0nlo9ukh858i8v1jgjowfr3,3kyqyyshyzkbm79qdcbg2q7hf9mdol,PaWDOqkU,2020-0188,2020-05-07,15:17:14,15:39:59,NA,incomplete,61,number,1,left,Blue_Circle_Stripes_2.jpg,Purple_Plus_Grid_2.jpg,Red_Triangle_Stripes_4.jpg,left,882.3449999908917,true,high,NA,NA,NA,NA,NA,NA,NA,false
PaWDOqkU,33cla8o0nlo9ukh858i8v1jgjowfr3,3kyqyyshyzkbm79qdcbg2q7hf9mdol,PaWDOqkU,2020-0188,2020-05-07,15:17:14,15:39:59,NA,incomplete,62,number,1,left,Red_Circle_Chess_4.jpg,Blue_Triangle_Grid_4.jpg,Purple_Star_Chess_3.jpg,left,1105.825000006007,true,high,NA,NA,NA,NA,NA,NA,NA,false
PaWDOqkU,33cla8o0nlo9ukh858i8v1jgjowfr3,3kyqyyshyzkbm79qdcbg2q7hf9mdol,PaWDOqkU,2020-0188,2020-05-07,15:17:14,15:39:59,NA,incomplete,63,number,1,right,Green_Circle_Chess_3.jpg,Red_Plus_Chess_2.jpg,Purple_Triangle_Stripes_3.jpg,right,1033.8950000004843,true,high,NA,NA,NA,NA,NA,NA,NA,false
PaWDOqkU,33cla8o0nlo9ukh858i8v1jgjowfr3,3kyqyyshyzkbm79qdcbg2q7hf9mdol,PaWDOqkU,2020-0188,2020-05-07,15:17:14,15:39:59,NA,incomplete,64,number,1,right,Purple_Triangle_Dots_3.jpg,Blue_Star_Dots_1.jpg,Red_Plus_Grid_3.jpg,left,984.085000003688,false,high,NA,NA,NA,NA,NA,NA,NA,false
PaWDOqkU,33cla8o0nlo9ukh858i8v1jgjowfr3,3kyqyyshyzkbm79qdcbg2q7hf9mdol,PaWDOqkU,2020-0188,2020-05-07,15:17:14,15:39:59,NA,incomplete,65,number,1,left,Green_Circle_Grid_2.jpg,Red_Plus_Stripes_2.jpg,Purple_Star_Grid_4.jpg,right,1270.169999988866,false,high,NA,NA,NA,NA,NA,NA,NA,false
PaWDOqkU,33cla8o0nlo9ukh858i8v1jgjowfr3,3kyqyyshyzkbm79qdcbg2q7hf9mdol,PaWDOqkU,2020-0188,2020-05-07,15:17:14,15:39:59,NA,incomplete,66,number,0,left,Blue_Triangle_Dots_3.jpg,Green_Plus_Grid_3.jpg,Purple_Circle_Dots_4.jpg,right,960.2799999993294,false,high,NA,NA,NA,NA,NA,NA,NA,false
PaWDOqkU,33cla8o0nlo9ukh858i8v1jgjowfr3,3kyqyyshyzkbm79qdcbg2q7hf9mdol,PaWDOqkU,2020-0188,2020-05-07,15:17:14,15:39:59,NA,incomplete,67,number,1,left,Blue_Plus_Chess_4.jpg,Purple_Circle_Dots_4.jpg,Red_Star_Chess_1.jpg,right,1040.4050000070129,false,high,NA,NA,NA,NA,NA,NA,NA,false
PaWDOqkU,33cla8o0nlo9ukh858i8v1jgjowfr3,3kyqyyshyzkbm79qdcbg2q7hf9mdol,PaWDOqkU,2020-0188,2020-05-07,15:17:14,15:39:59,NA,incomplete,68,number,1,left,Green_Star_Grid_2.jpg,Purple_Circle_Dots_2.jpg,Red_Triangle_Grid_1.jpg,right,1053.4400000033202,false,high,NA,NA,NA,NA,NA,NA,NA,false
PaWDOqkU,33cla8o0nlo9ukh858i8v1jgjowfr3,3kyqyyshyzkbm79qdcbg2q7hf9mdol,PaWDOqkU,2020-0188,2020-05-07,15:17:14,15:39:59,NA,incomplete,69,number,1,left,Blue_Star_Chess_4.jpg,Green_Circle_Dots_4.jpg,Red_Triangle_Chess_1.jpg,right,1243.815000008908,false,high,NA,NA,NA,NA,NA,NA,NA,false
PaWDOqkU,33cla8o0nlo9ukh858i8v1jgjowfr3,3kyqyyshyzkbm79qdcbg2q7hf9mdol,PaWDOqkU,2020-0188,2020-05-07,15:17:14,15:39:59,NA,incomplete,70,filling,1,left,Purple_Circle_Dots_3.jpg,Green_Triangle_Dots_4.jpg,Blue_Plus_Stripes_3.jpg,left,1259.3850000121165,true,high,NA,NA,NA,NA,NA,NA,NA,false
PaWDOqkU,33cla8o0nlo9ukh858i8v1jgjowfr3,3kyqyyshyzkbm79qdcbg2q7hf9mdol,PaWDOqkU,2020-0188,2020-05-07,15:17:14,15:39:59,NA,incomplete,71,filling,0,right,Red_Triangle_Grid_1.jpg,Blue_Circle_Stripes_1.jpg,Green_Star_Grid_3.jpg,right,1099.8549999931129,true,high,NA,NA,NA,NA,NA,NA,NA,false
PaWDOqkU,33cla8o0nlo9ukh858i8v1jgjowfr3,3kyqyyshyzkbm79qdcbg2q7hf9mdol,PaWDOqkU,2020-0188,2020-05-07,15:17:14,15:39:59,NA,incomplete,72,filling,1,right,Blue_Plus_Stripes_4.jpg,Purple_Star_Chess_4.jpg,Red_Triangle_Stripes_2.jpg,left,1184.8250000039116,false,high,NA,NA,NA,NA,NA,NA,NA,false
PaWDOqkU,33cla8o0nlo9ukh858i8v1jgjowfr3,3kyqyyshyzkbm79qdcbg2q7hf9mdol,PaWDOqkU,2020-0188,2020-05-07,15:17:14,15:39:59,NA,incomplete,73,filling,1,right,Red_Star_Dots_2.jpg,Blue_Triangle_Chess_2.jpg,Purple_Circle_Dots_3.jpg,right,1154.7449999925448,true,high,NA,NA,NA,NA,NA,NA,NA,false
PaWDOqkU,33cla8o0nlo9ukh858i8v1jgjowfr3,3kyqyyshyzkbm79qdcbg2q7hf9mdol,PaWDOqkU,2020-0188,2020-05-07,15:17:14,15:39:59,NA,incomplete,74,filling,1,left,Purple_Circle_Chess_3.jpg,Green_Triangle_Chess_2.jpg,Red_Plus_Stripes_3.jpg,left,1022.3849999892991,true,high,NA,NA,NA,NA,NA,NA,NA,false
PaWDOqkU,33cla8o0nlo9ukh858i8v1jgjowfr3,3kyqyyshyzkbm79qdcbg2q7hf9mdol,PaWDOqkU,2020-0188,2020-05-07,15:17:14,15:39:59,NA,incomplete,75,filling,0,right,Red_Plus_Stripes_3.jpg,Green_Circle_Grid_3.jpg,Purple_Triangle_Stripes_1.jpg,right,1049.060000004829,true,high,NA,NA,NA,NA,NA,NA,NA,false
PaWDOqkU,33cla8o0nlo9ukh858i8v1jgjowfr3,3kyqyyshyzkbm79qdcbg2q7hf9mdol,PaWDOqkU,2020-0188,2020-05-07,15:17:14,15:39:59,NA,incomplete,76,filling,1,left,Red_Star_Chess_2.jpg,Green_Triangle_Chess_3.jpg,Purple_Circle_Grid_2.jpg,right,1073.11500000651,false,high,NA,NA,NA,NA,NA,NA,NA,false
PaWDOqkU,33cla8o0nlo9ukh858i8v1jgjowfr3,3kyqyyshyzkbm79qdcbg2q7hf9mdol,PaWDOqkU,2020-0188,2020-05-07,15:17:14,15:39:59,NA,incomplete,77,filling,1,left,Red_Circle_Chess_3.jpg,Green_Plus_Chess_2.jpg,Blue_Star_Grid_3.jpg,left,981.6750000027241,true,high,NA,NA,NA,NA,NA,NA,NA,false
PaWDOqkU,33cla8o0nlo9ukh858i8v1jgjowfr3,3kyqyyshyzkbm79qdcbg2q7hf9mdol,PaWDOqkU,2020-0188,2020-05-07,15:17:14,15:39:59,NA,incomplete,78,filling,1,left,Green_Triangle_Chess_4.jpg,Blue_Circle_Chess_2.jpg,Red_Plus_Stripes_4.jpg,left,1005.074999993667,true,high,NA,NA,NA,NA,NA,NA,NA,false
PaWDOqkU,33cla8o0nlo9ukh858i8v1jgjowfr3,3kyqyyshyzkbm79qdcbg2q7hf9mdol,PaWDOqkU,2020-0188,2020-05-07,15:17:14,15:39:59,NA,incomplete,79,filling,1,right,Green_Star_Dots_4.jpg,Red_Plus_Chess_4.jpg,Blue_Circle_Dots_2.jpg,right,1065.3349999920465,true,high,NA,NA,NA,NA,NA,NA,NA,false
PaWDOqkU,33cla8o0nlo9ukh858i8v1jgjowfr3,3kyqyyshyzkbm79qdcbg2q7hf9mdol,PaWDOqkU,2020-0188,2020-05-07,15:17:14,15:39:59,NA,incomplete,80,number,1,left,Blue_Circle_Grid_3.jpg,Purple_Star_Chess_3.jpg,Red_Plus_Grid_2.jpg,right,1259.684999997262,false,high,NA,NA,NA,NA,NA,NA,NA,false
PaWDOqkU,33cla8o0nlo9ukh858i8v1jgjowfr3,3kyqyyshyzkbm79qdcbg2q7hf9mdol,PaWDOqkU,2020-0188,2020-05-07,15:17:14,15:39:59,NA,incomplete,81,number,1,right,Blue_Plus_Stripes_2.jpg,Green_Star_Stripes_1.jpg,Red_Triangle_Grid_2.jpg,left,1072.3999999900116,false,high,NA,NA,NA,NA,NA,NA,NA,false
PaWDOqkU,33cla8o0nlo9ukh858i8v1jgjowfr3,3kyqyyshyzkbm79qdcbg2q7hf9mdol,PaWDOqkU,2020-0188,2020-05-07,15:17:14,15:39:59,NA,incomplete,82,number,1,left,Blue_Plus_Dots_3.jpg,Green_Triangle_Grid_3.jpg,Red_Circle_Dots_4.jpg,right,981.6549999959534,false,high,NA,NA,NA,NA,NA,NA,NA,false
PaWDOqkU,33cla8o0nlo9ukh858i8v1jgjowfr3,3kyqyyshyzkbm79qdcbg2q7hf9mdol,PaWDOqkU,2020-0188,2020-05-07,15:17:14,15:39:59,NA,incomplete,83,number,1,right,Purple_Circle_Dots_2.jpg,Red_Triangle_Dots_3.jpg,Green_Plus_Chess_2.jpg,left,1141.0049999976764,false,high,NA,NA,NA,NA,NA,NA,NA,false
PaWDOqkU,33cla8o0nlo9ukh858i8v1jgjowfr3,3kyqyyshyzkbm79qdcbg2q7hf9mdol,PaWDOqkU,2020-0188,2020-05-07,15:17:14,15:39:59,NA,incomplete,84,number,1,right,Purple_Plus_Chess_4.jpg,Green_Star_Chess_2.jpg,Blue_Triangle_Grid_4.jpg,right,1866.875000006985,true,high,NA,NA,NA,NA,NA,NA,NA,false
PaWDOqkU,33cla8o0nlo9ukh858i8v1jgjowfr3,3kyqyyshyzkbm79qdcbg2q7hf9mdol,PaWDOqkU,2020-0188,2020-05-07,15:17:14,15:39:59,NA,incomplete,85,number,1,left,Blue_Star_Dots_1.jpg,Purple_Triangle_Grid_1.jpg,Red_Circle_Dots_4.jpg,left,922.2199999931036,true,high,NA,NA,NA,NA,NA,NA,NA,false
PaWDOqkU,33cla8o0nlo9ukh858i8v1jgjowfr3,3kyqyyshyzkbm79qdcbg2q7hf9mdol,PaWDOqkU,2020-0188,2020-05-07,15:17:14,15:39:59,NA,incomplete,86,number,0,left,Blue_Star_Stripes_4.jpg,Red_Circle_Grid_4.jpg,Purple_Plus_Stripes_3.jpg,left,1100.5050000094343,true,high,NA,NA,NA,NA,NA,NA,NA,false
PaWDOqkU,33cla8o0nlo9ukh858i8v1jgjowfr3,3kyqyyshyzkbm79qdcbg2q7hf9mdol,PaWDOqkU,2020-0188,2020-05-07,15:17:14,15:39:59,NA,incomplete,87,number,1,right,Red_Star_Chess_4.jpg,Purple_Plus_Chess_1.jpg,Blue_Triangle_Stripes_4.jpg,left,1182.874999998603,false,high,NA,NA,NA,NA,NA,NA,NA,false
PaWDOqkU,33cla8o0nlo9ukh858i8v1jgjowfr3,3kyqyyshyzkbm79qdcbg2q7hf9mdol,PaWDOqkU,2020-0188,2020-05-07,15:17:14,15:39:59,NA,incomplete,88,number,0,right,Purple_Star_Chess_1.jpg,Green_Plus_Chess_2.jpg,Blue_Triangle_Stripes_1.jpg,right,1232.190000009723,true,high,NA,NA,NA,NA,NA,NA,NA,false
PaWDOqkU,33cla8o0nlo9ukh858i8v1jgjowfr3,3kyqyyshyzkbm79qdcbg2q7hf9mdol,PaWDOqkU,2020-0188,2020-05-07,15:17:14,15:39:59,NA,incomplete,89,number,1,right,Green_Star_Chess_3.jpg,Purple_Circle_Chess_2.jpg,Blue_Plus_Grid_3.jpg,left,989.4549999880837,false,high,NA,NA,NA,NA,NA,NA,NA,false
PaWDOqkU,33cla8o0nlo9ukh858i8v1jgjowfr3,3kyqyyshyzkbm79qdcbg2q7hf9mdol,PaWDOqkU,2020-0188,2020-05-07,15:17:14,15:39:59,NA,incomplete,90,filling,1,left,Blue_Triangle_Grid_4.jpg,Red_Circle_Grid_1.jpg,Green_Star_Chess_4.jpg,left,1107.8600000037113,true,high,NA,NA,NA,NA,NA,NA,NA,false
PaWDOqkU,33cla8o0nlo9ukh858i8v1jgjowfr3,3kyqyyshyzkbm79qdcbg2q7hf9mdol,PaWDOqkU,2020-0188,2020-05-07,15:17:14,15:39:59,NA,incomplete,91,filling,1,right,Red_Triangle_Stripes_4.jpg,Green_Circle_Grid_4.jpg,Purple_Star_Stripes_1.jpg,right,961.5049999993062,true,high,NA,NA,NA,NA,NA,NA,NA,false
PaWDOqkU,33cla8o0nlo9ukh858i8v1jgjowfr3,3kyqyyshyzkbm79qdcbg2q7hf9mdol,PaWDOqkU,2020-0188,2020-05-07,15:17:14,15:39:59,NA,incomplete,92,filling,1,left,Purple_Triangle_Dots_3.jpg,Green_Star_Dots_1.jpg,Blue_Circle_Grid_3.jpg,left,991.184999991674,true,high,NA,NA,NA,NA,NA,NA,NA,false
PaWDOqkU,33cla8o0nlo9ukh858i8v1jgjowfr3,3kyqyyshyzkbm79qdcbg2q7hf9mdol,PaWDOqkU,2020-0188,2020-05-07,15:17:14,15:39:59,NA,incomplete,93,filling,1,left,Blue_Triangle_Chess_3.jpg,Green_Star_Chess_2.jpg,Red_Circle_Dots_3.jpg,left,1075.554999988526,true,high,NA,NA,NA,NA,NA,NA,NA,false
PaWDOqkU,33cla8o0nlo9ukh858i8v1jgjowfr3,3kyqyyshyzkbm79qdcbg2q7hf9mdol,PaWDOqkU,2020-0188,2020-05-07,15:17:14,15:39:59,NA,incomplete,94,filling,0,left,Red_Triangle_Grid_4.jpg,Blue_Star_Grid_3.jpg,Purple_Plus_Dots_4.jpg,left,1101.395000005141,true,high,NA,NA,NA,NA,NA,NA,NA,false
PaWDOqkU,33cla8o0nlo9ukh858i8v1jgjowfr3,3kyqyyshyzkbm79qdcbg2q7hf9mdol,PaWDOqkU,2020-0188,2020-05-07,15:17:14,15:39:59,NA,incomplete,95,filling,1,right,Red_Star_Stripes_1.jpg,Blue_Plus_Grid_1.jpg,Green_Circle_Stripes_2.jpg,left,1446.1850000079721,false,high,NA,NA,NA,NA,NA,NA,NA,false
PaWDOqkU,33cla8o0nlo9ukh858i8v1jgjowfr3,3kyqyyshyzkbm79qdcbg2q7hf9mdol,PaWDOqkU,2020-0188,2020-05-07,15:17:14,15:39:59,NA,incomplete,96,filling,1,left,Green_Plus_Dots_3.jpg,Purple_Star_Dots_1.jpg,Blue_Circle_Chess_3.jpg,left,1028.0299999867566,true,high,NA,NA,NA,NA,NA,NA,NA,false
PaWDOqkU,33cla8o0nlo9ukh858i8v1jgjowfr3,3kyqyyshyzkbm79qdcbg2q7hf9mdol,PaWDOqkU,2020-0188,2020-05-07,15:17:14,15:39:59,NA,incomplete,97,filling,1,right,Purple_Circle_Grid_4.jpg,Blue_Triangle_Stripes_4.jpg,Green_Plus_Grid_2.jpg,right,1228.6000000021886,true,high,NA,NA,NA,NA,NA,NA,NA,false
PaWDOqkU,33cla8o0nlo9ukh858i8v1jgjowfr3,3kyqyyshyzkbm79qdcbg2q7hf9mdol,PaWDOqkU,2020-0188,2020-05-07,15:17:14,15:39:59,NA,incomplete,98,filling,1,right,Purple_Star_Dots_1.jpg,Red_Circle_Chess_1.jpg,Blue_Triangle_Dots_3.jpg,right,1289.440000007744,true,high,NA,NA,NA,NA,NA,NA,NA,false
PaWDOqkU,33cla8o0nlo9ukh858i8v1jgjowfr3,3kyqyyshyzkbm79qdcbg2q7hf9mdol,PaWDOqkU,2020-0188,2020-05-07,15:17:14,15:39:59,NA,incomplete,99,filling,0,left,Green_Triangle_Stripes_1.jpg,Blue_Plus_Stripes_4.jpg,Purple_Circle_Grid_1.jpg,left,1129.8149999929592,true,high,NA,NA,NA,NA,NA,NA,NA,false
PaWDOqkU,33cla8o0nlo9ukh858i8v1jgjowfr3,3kyqyyshyzkbm79qdcbg2q7hf9mdol,PaWDOqkU,2020-0188,2020-05-07,15:17:14,15:39:59,NA,incomplete,100,number,1,right,Red_Plus_Chess_2.jpg,Green_Triangle_Chess_4.jpg,Purple_Star_Stripes_2.jpg,left,1077.0049999991897,false,high,NA,NA,NA,NA,NA,NA,NA,false
PaWDOqkU,33cla8o0nlo9ukh858i8v1jgjowfr3,3kyqyyshyzkbm79qdcbg2q7hf9mdol,PaWDOqkU,2020-0188,2020-05-07,15:17:14,15:39:59,NA,incomplete,101,number,1,right,Green_Triangle_Dots_2.jpg,Red_Circle_Dots_3.jpg,Blue_Star_Grid_2.jpg,right,1461.139999999432,true,high,NA,NA,NA,NA,NA,NA,NA,false
PaWDOqkU,33cla8o0nlo9ukh858i8v1jgjowfr3,3kyqyyshyzkbm79qdcbg2q7hf9mdol,PaWDOqkU,2020-0188,2020-05-07,15:17:14,15:39:59,NA,incomplete,102,number,1,left,Purple_Triangle_Stripes_2.jpg,Red_Circle_Chess_2.jpg,Blue_Plus_Stripes_4.jpg,right,1221.0750000085682,false,high,NA,NA,NA,NA,NA,NA,NA,false
PaWDOqkU,33cla8o0nlo9ukh858i8v1jgjowfr3,3kyqyyshyzkbm79qdcbg2q7hf9mdol,PaWDOqkU,2020-0188,2020-05-07,15:17:14,15:39:59,NA,incomplete,103,number,1,left,Purple_Triangle_Chess_3.jpg,Blue_Circle_Stripes_3.jpg,Green_Plus_Chess_1.jpg,right,1209.5200000039767,false,high,NA,NA,NA,NA,NA,NA,NA,false
PaWDOqkU,33cla8o0nlo9ukh858i8v1jgjowfr3,3kyqyyshyzkbm79qdcbg2q7hf9mdol,PaWDOqkU,2020-0188,2020-05-07,15:17:14,15:39:59,NA,incomplete,104,number,0,right,Green_Star_Chess_2.jpg,Purple_Plus_Chess_4.jpg,Blue_Triangle_Grid_2.jpg,left,1123.16999999166,false,high,NA,NA,NA,NA,NA,NA,NA,false
PaWDOqkU,33cla8o0nlo9ukh858i8v1jgjowfr3,3kyqyyshyzkbm79qdcbg2q7hf9mdol,PaWDOqkU,2020-0188,2020-05-07,15:17:14,15:39:59,NA,incomplete,105,number,1,right,Red_Triangle_Grid_3.jpg,Purple_Circle_Grid_1.jpg,Blue_Star_Chess_3.jpg,left,1080.5949999921722,false,high,NA,NA,NA,NA,NA,NA,NA,false
PaWDOqkU,33cla8o0nlo9ukh858i8v1jgjowfr3,3kyqyyshyzkbm79qdcbg2q7hf9mdol,PaWDOqkU,2020-0188,2020-05-07,15:17:14,15:39:59,NA,incomplete,106,number,1,left,Purple_Plus_Dots_1.jpg,Green_Triangle_Stripes_1.jpg,Blue_Circle_Dots_4.jpg,left,969.4350000063423,true,high,NA,NA,NA,NA,NA,NA,NA,false
PaWDOqkU,33cla8o0nlo9ukh858i8v1jgjowfr3,3kyqyyshyzkbm79qdcbg2q7hf9mdol,PaWDOqkU,2020-0188,2020-05-07,15:17:14,15:39:59,NA,incomplete,107,number,1,right,Blue_Plus_Grid_1.jpg,Purple_Star_Grid_2.jpg,Red_Triangle_Chess_1.jpg,right,1098.5900000086986,true,high,NA,NA,NA,NA,NA,NA,NA,false
PaWDOqkU,33cla8o0nlo9ukh858i8v1jgjowfr3,3kyqyyshyzkbm79qdcbg2q7hf9mdol,PaWDOqkU,2020-0188,2020-05-07,15:17:14,15:39:59,NA,incomplete,108,number,1,left,Red_Triangle_Chess_1.jpg,Purple_Plus_Grid_1.jpg,Blue_Star_Chess_2.jpg,left,832.7149999968242,true,high,NA,NA,NA,NA,NA,NA,NA,false
PaWDOqkU,33cla8o0nlo9ukh858i8v1jgjowfr3,3kyqyyshyzkbm79qdcbg2q7hf9mdol,PaWDOqkU,2020-0188,2020-05-07,15:17:14,15:39:59,NA,incomplete,109,number,0,right,Green_Plus_Grid_4.jpg,Blue_Star_Grid_1.jpg,Purple_Triangle_Dots_4.jpg,right,810.7600000075763,true,high,NA,NA,NA,NA,NA,NA,NA,false
PaWDOqkU,33cla8o0nlo9ukh858i8v1jgjowfr3,3kyqyyshyzkbm79qdcbg2q7hf9mdol,PaWDOqkU,2020-0188,2020-05-07,15:17:14,15:39:59,NA,incomplete,110,filling,1,right,Red_Triangle_Chess_4.jpg,Purple_Star_Dots_4.jpg,Green_Circle_Chess_3.jpg,left,1205.6199999933597,false,high,NA,NA,NA,NA,NA,NA,NA,false
PaWDOqkU,33cla8o0nlo9ukh858i8v1jgjowfr3,3kyqyyshyzkbm79qdcbg2q7hf9mdol,PaWDOqkU,2020-0188,2020-05-07,15:17:14,15:39:59,NA,incomplete,111,filling,1,right,Blue_Triangle_Dots_1.jpg,Purple_Circle_Chess_1.jpg,Red_Star_Dots_4.jpg,left,1235.7150000025285,false,high,NA,NA,NA,NA,NA,NA,NA,false
PaWDOqkU,33cla8o0nlo9ukh858i8v1jgjowfr3,3kyqyyshyzkbm79qdcbg2q7hf9mdol,PaWDOqkU,2020-0188,2020-05-07,15:17:14,15:39:59,NA,incomplete,112,filling,1,right,Purple_Plus_Chess_2.jpg,Green_Triangle_Grid_2.jpg,Blue_Circle_Chess_4.jpg,right,1273.5499999980675,true,high,NA,NA,NA,NA,NA,NA,NA,false
PaWDOqkU,33cla8o0nlo9ukh858i8v1jgjowfr3,3kyqyyshyzkbm79qdcbg2q7hf9mdol,PaWDOqkU,2020-0188,2020-05-07,15:17:14,15:39:59,NA,incomplete,113,filling,0,left,Blue_Plus_Chess_1.jpg,Purple_Circle_Chess_4.jpg,Red_Star_Dots_1.jpg,left,982.7099999965867,true,high,NA,NA,NA,NA,NA,NA,NA,false
PaWDOqkU,33cla8o0nlo9ukh858i8v1jgjowfr3,3kyqyyshyzkbm79qdcbg2q7hf9mdol,PaWDOqkU,2020-0188,2020-05-07,15:17:14,15:39:59,NA,incomplete,114,filling,1,right,Red_Plus_Dots_1.jpg,Purple_Star_Chess_1.jpg,Green_Triangle_Dots_2.jpg,right,1023.3300000109011,true,high,NA,NA,NA,NA,NA,NA,NA,false
PaWDOqkU,33cla8o0nlo9ukh858i8v1jgjowfr3,3kyqyyshyzkbm79qdcbg2q7hf9mdol,PaWDOqkU,2020-0188,2020-05-07,15:17:14,15:39:59,NA,incomplete,115,filling,1,right,Red_Triangle_Dots_4.jpg,Purple_Star_Grid_4.jpg,Blue_Plus_Dots_2.jpg,right,1234.744999994291,true,high,NA,NA,NA,NA,NA,NA,NA,false
PaWDOqkU,33cla8o0nlo9ukh858i8v1jgjowfr3,3kyqyyshyzkbm79qdcbg2q7hf9mdol,PaWDOqkU,2020-0188,2020-05-07,15:17:14,15:39:59,NA,incomplete,116,filling,1,left,Red_Triangle_Grid_4.jpg,Green_Star_Grid_1.jpg,Blue_Plus_Chess_4.jpg,left,1193.5250000096858,true,high,NA,NA,NA,NA,NA,NA,NA,false
PaWDOqkU,33cla8o0nlo9ukh858i8v1jgjowfr3,3kyqyyshyzkbm79qdcbg2q7hf9mdol,PaWDOqkU,2020-0188,2020-05-07,15:17:14,15:39:59,NA,incomplete,117,filling,1,right,Red_Circle_Stripes_1.jpg,Blue_Triangle_Grid_1.jpg,Green_Plus_Stripes_3.jpg,right,1136.5899999946123,true,high,NA,NA,NA,NA,NA,NA,NA,false
PaWDOqkU,33cla8o0nlo9ukh858i8v1jgjowfr3,3kyqyyshyzkbm79qdcbg2q7hf9mdol,PaWDOqkU,2020-0188,2020-05-07,15:17:14,15:39:59,NA,incomplete,118,filling,1,right,Green_Star_Chess_4.jpg,Blue_Plus_Grid_4.jpg,Purple_Circle_Chess_3.jpg,right,1262.1599999984028,true,high,NA,NA,NA,NA,NA,NA,NA,false
PaWDOqkU,33cla8o0nlo9ukh858i8v1jgjowfr3,3kyqyyshyzkbm79qdcbg2q7hf9mdol,PaWDOqkU,2020-0188,2020-05-07,15:17:14,15:39:59,NA,incomplete,119,filling,1,left,Green_Triangle_Stripes_3.jpg,Purple_Star_Stripes_1.jpg,Blue_Plus_Chess_3.jpg,left,1114.4449999992503,true,high,NA,NA,NA,NA,NA,NA,NA,false
PaWDOqkU,33cla8o0nlo9ukh858i8v1jgjowfr3,3kyqyyshyzkbm79qdcbg2q7hf9mdol,PaWDOqkU,2020-0188,2020-05-07,15:17:14,15:39:59,NA,incomplete,120,number,1,right,Purple_Circle_Stripes_2.jpg,Blue_Star_Stripes_3.jpg,Red_Triangle_Grid_2.jpg,left,1236.2799999973504,false,high,NA,NA,NA,NA,NA,NA,NA,false
PaWDOqkU,33cla8o0nlo9ukh858i8v1jgjowfr3,3kyqyyshyzkbm79qdcbg2q7hf9mdol,PaWDOqkU,2020-0188,2020-05-07,15:17:14,15:39:59,NA,incomplete,121,number,1,left,Red_Star_Chess_4.jpg,Green_Circle_Dots_4.jpg,Purple_Triangle_Chess_2.jpg,right,1005.2750000031665,false,high,NA,NA,NA,NA,NA,NA,NA,false
PaWDOqkU,33cla8o0nlo9ukh858i8v1jgjowfr3,3kyqyyshyzkbm79qdcbg2q7hf9mdol,PaWDOqkU,2020-0188,2020-05-07,15:17:14,15:39:59,NA,incomplete,122,number,1,left,Blue_Plus_Grid_1.jpg,Red_Circle_Chess_1.jpg,Green_Star_Grid_4.jpg,left,762.8350000013597,true,high,NA,NA,NA,NA,NA,NA,NA,false
PaWDOqkU,33cla8o0nlo9ukh858i8v1jgjowfr3,3kyqyyshyzkbm79qdcbg2q7hf9mdol,PaWDOqkU,2020-0188,2020-05-07,15:17:14,15:39:59,NA,incomplete,123,number,1,left,Green_Circle_Grid_2.jpg,Red_Plus_Chess_2.jpg,Purple_Triangle_Grid_4.jpg,right,1112.410000001546,false,high,NA,NA,NA,NA,NA,NA,NA,false
PaWDOqkU,33cla8o0nlo9ukh858i8v1jgjowfr3,3kyqyyshyzkbm79qdcbg2q7hf9mdol,PaWDOqkU,2020-0188,2020-05-07,15:17:14,15:39:59,NA,incomplete,124,number,1,right,Blue_Star_Dots_1.jpg,Red_Triangle_Dots_4.jpg,Purple_Circle_Stripes_1.jpg,left,1128.5599999973783,false,high,NA,NA,NA,NA,NA,NA,NA,false
PaWDOqkU,33cla8o0nlo9ukh858i8v1jgjowfr3,3kyqyyshyzkbm79qdcbg2q7hf9mdol,PaWDOqkU,2020-0188,2020-05-07,15:17:14,15:39:59,NA,incomplete,125,number,1,right,Red_Star_Stripes_2.jpg,Purple_Plus_Stripes_1.jpg,Green_Circle_Grid_2.jpg,left,1183.935000008205,false,high,NA,NA,NA,NA,NA,NA,NA,false
PaWDOqkU,33cla8o0nlo9ukh858i8v1jgjowfr3,3kyqyyshyzkbm79qdcbg2q7hf9mdol,PaWDOqkU,2020-0188,2020-05-07,15:17:14,15:39:59,NA,incomplete,126,number,1,left,Purple_Plus_Grid_3.jpg,Green_Circle_Dots_3.jpg,Blue_Star_Grid_4.jpg,left,1042.9599999915808,true,high,NA,NA,NA,NA,NA,NA,NA,false
PaWDOqkU,33cla8o0nlo9ukh858i8v1jgjowfr3,3kyqyyshyzkbm79qdcbg2q7hf9mdol,PaWDOqkU,2020-0188,2020-05-07,15:17:14,15:39:59,NA,incomplete,127,number,1,right,Purple_Plus_Dots_2.jpg,Green_Star_Dots_4.jpg,Red_Triangle_Grid_2.jpg,right,1439.8749999963911,true,high,NA,NA,NA,NA,NA,NA,NA,false
PaWDOqkU,33cla8o0nlo9ukh858i8v1jgjowfr3,3kyqyyshyzkbm79qdcbg2q7hf9mdol,PaWDOqkU,2020-0188,2020-05-07,15:17:14,15:39:59,NA,incomplete,128,number,0,left,Purple_Plus_Dots_3.jpg,Blue_Star_Chess_3.jpg,Red_Triangle_Dots_4.jpg,left,993.4749999956694,true,high,NA,NA,NA,NA,NA,NA,NA,false
PaWDOqkU,33cla8o0nlo9ukh858i8v1jgjowfr3,3kyqyyshyzkbm79qdcbg2q7hf9mdol,PaWDOqkU,2020-0188,2020-05-07,15:17:14,15:39:59,NA,incomplete,129,number,1,left,Green_Triangle_Dots_2.jpg,Red_Circle_Grid_2.jpg,Blue_Plus_Dots_1.jpg,left,925.8499999996275,true,high,NA,NA,NA,NA,NA,NA,NA,false
PaWDOqkU,33cla8o0nlo9ukh858i8v1jgjowfr3,3kyqyyshyzkbm79qdcbg2q7hf9mdol,PaWDOqkU,2020-0188,2020-05-07,15:17:14,15:39:59,NA,incomplete,130,number,1,right,Blue_Triangle_Grid_2.jpg,Purple_Plus_Grid_4.jpg,Green_Circle_Chess_2.jpg,right,855.8899999916321,true,high,NA,NA,NA,NA,NA,NA,NA,false
PaWDOqkU,33cla8o0nlo9ukh858i8v1jgjowfr3,3kyqyyshyzkbm79qdcbg2q7hf9mdol,PaWDOqkU,2020-0188,2020-05-07,15:17:14,15:39:59,NA,incomplete,131,number,1,left,Red_Star_Stripes_2.jpg,Green_Circle_Chess_2.jpg,Purple_Plus_Stripes_3.jpg,left,787.6850000029663,true,high,NA,NA,NA,NA,NA,NA,NA,false
PaWDOqkU,33cla8o0nlo9ukh858i8v1jgjowfr3,3kyqyyshyzkbm79qdcbg2q7hf9mdol,PaWDOqkU,2020-0188,2020-05-07,15:17:14,15:39:59,NA,incomplete,132,number,1,right,Purple_Triangle_Grid_1.jpg,Blue_Circle_Grid_4.jpg,Red_Star_Dots_1.jpg,right,778.1900000118185,true,high,NA,NA,NA,NA,NA,NA,NA,false
PaWDOqkU,33cla8o0nlo9ukh858i8v1jgjowfr3,3kyqyyshyzkbm79qdcbg2q7hf9mdol,PaWDOqkU,2020-0188,2020-05-07,15:17:14,15:39:59,NA,incomplete,133,number,1,left,Red_Circle_Stripes_2.jpg,Purple_Plus_Dots_2.jpg,Green_Triangle_Stripes_1.jpg,left,866.1299999948824,true,high,NA,NA,NA,NA,NA,NA,NA,false
PaWDOqkU,33cla8o0nlo9ukh858i8v1jgjowfr3,3kyqyyshyzkbm79qdcbg2q7hf9mdol,PaWDOqkU,2020-0188,2020-05-07,15:17:14,15:39:59,NA,incomplete,134,number,1,right,Red_Plus_Grid_2.jpg,Purple_Star_Grid_3.jpg,Blue_Circle_Chess_2.jpg,right,746.450000006007,true,high,NA,NA,NA,NA,NA,NA,NA,false
PaWDOqkU,33cla8o0nlo9ukh858i8v1jgjowfr3,3kyqyyshyzkbm79qdcbg2q7hf9mdol,PaWDOqkU,2020-0188,2020-05-07,15:17:14,15:39:59,NA,incomplete,135,number,1,left,Red_Triangle_Chess_3.jpg,Blue_Circle_Stripes_3.jpg,Green_Plus_Chess_2.jpg,left,978.3400000014808,true,high,NA,NA,NA,NA,NA,NA,NA,false
PaWDOqkU,33cla8o0nlo9ukh858i8v1jgjowfr3,3kyqyyshyzkbm79qdcbg2q7hf9mdol,PaWDOqkU,2020-0188,2020-05-07,15:17:14,15:39:59,NA,incomplete,136,number,1,left,Purple_Triangle_Chess_2.jpg,Blue_Plus_Dots_2.jpg,Red_Circle_Chess_1.jpg,left,725.9850000118604,true,high,NA,NA,NA,NA,NA,NA,NA,false
PaWDOqkU,33cla8o0nlo9ukh858i8v1jgjowfr3,3kyqyyshyzkbm79qdcbg2q7hf9mdol,PaWDOqkU,2020-0188,2020-05-07,15:17:14,15:39:59,NA,incomplete,137,number,1,right,Purple_Circle_Grid_2.jpg,Green_Triangle_Grid_1.jpg,Red_Plus_Stripes_2.jpg,right,640.7800000015413,true,high,NA,NA,NA,NA,NA,NA,NA,false
PaWDOqkU,33cla8o0nlo9ukh858i8v1jgjowfr3,3kyqyyshyzkbm79qdcbg2q7hf9mdol,PaWDOqkU,2020-0188,2020-05-07,15:17:14,15:39:59,NA,incomplete,138,number,0,left,Green_Star_Dots_2.jpg,Purple_Circle_Stripes_2.jpg,Blue_Plus_Dots_1.jpg,left,762.1150000049965,true,high,NA,NA,NA,NA,NA,NA,NA,false
PaWDOqkU,33cla8o0nlo9ukh858i8v1jgjowfr3,3kyqyyshyzkbm79qdcbg2q7hf9mdol,PaWDOqkU,2020-0188,2020-05-07,15:17:14,15:39:59,NA,incomplete,139,number,1,right,Purple_Plus_Chess_4.jpg,Red_Star_Chess_1.jpg,Green_Triangle_Stripes_4.jpg,left,1449.7899999987567,false,high,NA,NA,NA,NA,NA,NA,NA,false
PaWDOqkU,33cla8o0nlo9ukh858i8v1jgjowfr3,3kyqyyshyzkbm79qdcbg2q7hf9mdol,PaWDOqkU,2020-0188,2020-05-07,15:17:14,15:39:59,NA,incomplete,140,filling,1,right,Blue_Plus_Chess_2.jpg,Green_Circle_Stripes_2.jpg,Red_Star_Chess_1.jpg,right,1395.490000009886,true,high,NA,NA,NA,NA,NA,NA,NA,false
PaWDOqkU,33cla8o0nlo9ukh858i8v1jgjowfr3,3kyqyyshyzkbm79qdcbg2q7hf9mdol,PaWDOqkU,2020-0188,2020-05-07,15:17:14,15:39:59,NA,incomplete,141,filling,1,right,Purple_Plus_Grid_4.jpg,Red_Circle_Stripes_4.jpg,Blue_Star_Grid_2.jpg,right,1079.3549999943934,true,high,NA,NA,NA,NA,NA,NA,NA,false
PaWDOqkU,33cla8o0nlo9ukh858i8v1jgjowfr3,3kyqyyshyzkbm79qdcbg2q7hf9mdol,PaWDOqkU,2020-0188,2020-05-07,15:17:14,15:39:59,NA,incomplete,142,filling,1,right,Green_Star_Grid_4.jpg,Red_Circle_Chess_4.jpg,Blue_Triangle_Grid_3.jpg,right,982.0399999880465,true,high,NA,NA,NA,NA,NA,NA,NA,false
PaWDOqkU,33cla8o0nlo9ukh858i8v1jgjowfr3,3kyqyyshyzkbm79qdcbg2q7hf9mdol,PaWDOqkU,2020-0188,2020-05-07,15:17:14,15:39:59,NA,incomplete,143,filling,1,right,Purple_Plus_Stripes_1.jpg,Red_Star_Chess_1.jpg,Blue_Circle_Stripes_3.jpg,right,750.4249999910826,true,high,NA,NA,NA,NA,NA,NA,NA,false
PaWDOqkU,33cla8o0nlo9ukh858i8v1jgjowfr3,3kyqyyshyzkbm79qdcbg2q7hf9mdol,PaWDOqkU,2020-0188,2020-05-07,15:17:14,15:39:59,NA,incomplete,144,filling,1,left,Blue_Circle_Grid_1.jpg,Purple_Plus_Grid_4.jpg,Green_Triangle_Chess_1.jpg,left,891.0949999990407,true,high,NA,NA,NA,NA,NA,NA,NA,false
PaWDOqkU,33cla8o0nlo9ukh858i8v1jgjowfr3,3kyqyyshyzkbm79qdcbg2q7hf9mdol,PaWDOqkU,2020-0188,2020-05-07,15:17:14,15:39:59,NA,incomplete,145,filling,0,left,Green_Plus_Chess_4.jpg,Purple_Star_Chess_3.jpg,Red_Triangle_Stripes_4.jpg,left,1053.5050000034971,true,high,NA,NA,NA,NA,NA,NA,NA,false
PaWDOqkU,33cla8o0nlo9ukh858i8v1jgjowfr3,3kyqyyshyzkbm79qdcbg2q7hf9mdol,PaWDOqkU,2020-0188,2020-05-07,15:17:14,15:39:59,NA,incomplete,146,filling,1,right,Green_Plus_Grid_2.jpg,Red_Triangle_Chess_2.jpg,Blue_Star_Grid_1.jpg,left,935.9600000025239,false,high,NA,NA,NA,NA,NA,NA,NA,false
PaWDOqkU,33cla8o0nlo9ukh858i8v1jgjowfr3,3kyqyyshyzkbm79qdcbg2q7hf9mdol,PaWDOqkU,2020-0188,2020-05-07,15:17:14,15:39:59,NA,incomplete,147,filling,1,left,Blue_Star_Grid_3.jpg,Purple_Triangle_Grid_2.jpg,Red_Plus_Chess_3.jpg,left,1085.5850000079954,true,high,NA,NA,NA,NA,NA,NA,NA,false
PaWDOqkU,33cla8o0nlo9ukh858i8v1jgjowfr3,3kyqyyshyzkbm79qdcbg2q7hf9mdol,PaWDOqkU,2020-0188,2020-05-07,15:17:14,15:39:59,NA,incomplete,148,filling,0,right,Blue_Plus_Chess_3.jpg,Red_Triangle_Grid_3.jpg,Green_Star_Chess_4.jpg,right,1154.8100000072736,true,high,NA,NA,NA,NA,NA,NA,NA,false
PaWDOqkU,33cla8o0nlo9ukh858i8v1jgjowfr3,3kyqyyshyzkbm79qdcbg2q7hf9mdol,PaWDOqkU,2020-0188,2020-05-07,15:17:14,15:39:59,NA,incomplete,149,filling,1,left,Blue_Circle_Stripes_4.jpg,Green_Star_Stripes_1.jpg,Red_Plus_Chess_4.jpg,left,935.154999999213,true,high,NA,NA,NA,NA,NA,NA,NA,false
PaWDOqkU,33cla8o0nlo9ukh858i8v1jgjowfr3,3kyqyyshyzkbm79qdcbg2q7hf9mdol,PaWDOqkU,2020-0188,2020-05-07,15:17:14,15:39:59,NA,incomplete,150,filling,1,right,Purple_Triangle_Stripes_1.jpg,Green_Plus_Dots_1.jpg,Red_Star_Stripes_4.jpg,right,903.0199999979232,true,high,NA,NA,NA,NA,NA,NA,NA,false
PaWDOqkU,33cla8o0nlo9ukh858i8v1jgjowfr3,3kyqyyshyzkbm79qdcbg2q7hf9mdol,PaWDOqkU,2020-0188,2020-05-07,15:17:14,15:39:59,NA,incomplete,151,filling,1,left,Green_Circle_Dots_3.jpg,Blue_Star_Dots_2.jpg,Purple_Plus_Chess_3.jpg,left,1019.57499999844,true,high,NA,NA,NA,NA,NA,NA,NA,false
PaWDOqkU,33cla8o0nlo9ukh858i8v1jgjowfr3,3kyqyyshyzkbm79qdcbg2q7hf9mdol,PaWDOqkU,2020-0188,2020-05-07,15:17:14,15:39:59,NA,incomplete,152,filling,1,left,Blue_Triangle_Stripes_2.jpg,Purple_Star_Stripes_4.jpg,Red_Plus_Dots_2.jpg,left,1004.3449999939185,true,high,NA,NA,NA,NA,NA,NA,NA,false
PaWDOqkU,33cla8o0nlo9ukh858i8v1jgjowfr3,3kyqyyshyzkbm79qdcbg2q7hf9mdol,PaWDOqkU,2020-0188,2020-05-07,15:17:14,15:39:59,NA,incomplete,153,filling,1,left,Red_Plus_Chess_4.jpg,Blue_Star_Chess_3.jpg,Purple_Circle_Dots_4.jpg,left,1057.8499999974156,true,high,NA,NA,NA,NA,NA,NA,NA,false
PaWDOqkU,33cla8o0nlo9ukh858i8v1jgjowfr3,3kyqyyshyzkbm79qdcbg2q7hf9mdol,PaWDOqkU,2020-0188,2020-05-07,15:17:14,15:39:59,NA,incomplete,154,filling,1,right,Green_Star_Grid_2.jpg,Red_Triangle_Stripes_2.jpg,Blue_Plus_Grid_1.jpg,right,1053.8800000067567,true,high,NA,NA,NA,NA,NA,NA,NA,false
PaWDOqkU,33cla8o0nlo9ukh858i8v1jgjowfr3,3kyqyyshyzkbm79qdcbg2q7hf9mdol,PaWDOqkU,2020-0188,2020-05-07,15:17:14,15:39:59,NA,incomplete,155,filling,1,right,Blue_Star_Dots_3.jpg,Purple_Plus_Grid_3.jpg,Green_Circle_Dots_1.jpg,right,1045.9450000053039,true,high,NA,NA,NA,NA,NA,NA,NA,false
PaWDOqkU,33cla8o0nlo9ukh858i8v1jgjowfr3,3kyqyyshyzkbm79qdcbg2q7hf9mdol,PaWDOqkU,2020-0188,2020-05-07,15:17:14,15:39:59,NA,incomplete,156,filling,1,right,Blue_Plus_Chess_3.jpg,Red_Circle_Grid_3.jpg,Purple_Triangle_Chess_1.jpg,left,809.8800000007031,false,high,NA,NA,NA,NA,NA,NA,NA,false
PaWDOqkU,33cla8o0nlo9ukh858i8v1jgjowfr3,3kyqyyshyzkbm79qdcbg2q7hf9mdol,PaWDOqkU,2020-0188,2020-05-07,15:17:14,15:39:59,NA,incomplete,157,filling,1,right,Green_Star_Dots_4.jpg,Purple_Plus_Stripes_4.jpg,Blue_Triangle_Dots_3.jpg,left,823.6599999945611,false,high,NA,NA,NA,NA,NA,NA,NA,false
PaWDOqkU,33cla8o0nlo9ukh858i8v1jgjowfr3,3kyqyyshyzkbm79qdcbg2q7hf9mdol,PaWDOqkU,2020-0188,2020-05-07,15:17:14,15:39:59,NA,incomplete,158,filling,1,right,Purple_Triangle_Chess_2.jpg,Red_Plus_Grid_2.jpg,Blue_Circle_Chess_1.jpg,right,865.6100000080187,true,high,NA,NA,NA,NA,NA,NA,NA,false
PaWDOqkU,33cla8o0nlo9ukh858i8v1jgjowfr3,3kyqyyshyzkbm79qdcbg2q7hf9mdol,PaWDOqkU,2020-0188,2020-05-07,15:17:14,15:39:59,NA,incomplete,159,filling,0,right,Red_Triangle_Dots_1.jpg,Purple_Star_Grid_1.jpg,Blue_Plus_Dots_4.jpg,right,898.9699999947334,true,high,NA,NA,NA,NA,NA,NA,NA,false
PaWDOqkU,33cla8o0nlo9ukh858i8v1jgjowfr3,3kyqyyshyzkbm79qdcbg2q7hf9mdol,PaWDOqkU,2020-0188,2020-05-07,15:17:14,15:39:59,NA,incomplete,160,number,1,left,Blue_Plus_Chess_4.jpg,Green_Circle_Grid_4.jpg,Purple_Triangle_Chess_2.jpg,left,1103.1950000033248,true,high,NA,NA,NA,NA,NA,NA,NA,false
PaWDOqkU,33cla8o0nlo9ukh858i8v1jgjowfr3,3kyqyyshyzkbm79qdcbg2q7hf9mdol,PaWDOqkU,2020-0188,2020-05-07,15:17:14,15:39:59,NA,incomplete,161,number,1,left,Purple_Circle_Grid_2.jpg,Blue_Plus_Chess_2.jpg,Red_Triangle_Grid_3.jpg,left,986.6150000016205,true,high,NA,NA,NA,NA,NA,NA,NA,false
PaWDOqkU,33cla8o0nlo9ukh858i8v1jgjowfr3,3kyqyyshyzkbm79qdcbg2q7hf9mdol,PaWDOqkU,2020-0188,2020-05-07,15:17:14,15:39:59,NA,incomplete,162,number,1,left,Purple_Star_Stripes_3.jpg,Blue_Triangle_Grid_3.jpg,Green_Plus_Stripes_4.jpg,left,1042.4550000025192,true,high,NA,NA,NA,NA,NA,NA,NA,false
PaWDOqkU,33cla8o0nlo9ukh858i8v1jgjowfr3,3kyqyyshyzkbm79qdcbg2q7hf9mdol,PaWDOqkU,2020-0188,2020-05-07,15:17:14,15:39:59,NA,incomplete,163,number,0,left,Purple_Star_Chess_2.jpg,Red_Circle_Grid_2.jpg,Green_Triangle_Chess_4.jpg,left,823.9050000120187,true,high,NA,NA,NA,NA,NA,NA,NA,false
PaWDOqkU,33cla8o0nlo9ukh858i8v1jgjowfr3,3kyqyyshyzkbm79qdcbg2q7hf9mdol,PaWDOqkU,2020-0188,2020-05-07,15:17:14,15:39:59,NA,incomplete,164,number,1,right,Purple_Circle_Dots_2.jpg,Red_Triangle_Dots_3.jpg,Blue_Star_Chess_2.jpg,left,1004.6500000025844,false,high,NA,NA,NA,NA,NA,NA,NA,false
PaWDOqkU,33cla8o0nlo9ukh858i8v1jgjowfr3,3kyqyyshyzkbm79qdcbg2q7hf9mdol,PaWDOqkU,2020-0188,2020-05-07,15:17:14,15:39:59,NA,incomplete,165,number,1,left,Purple_Plus_Grid_3.jpg,Blue_Triangle_Stripes_3.jpg,Green_Star_Grid_4.jpg,left,861.5250000002561,true,high,NA,NA,NA,NA,NA,NA,NA,false
PaWDOqkU,33cla8o0nlo9ukh858i8v1jgjowfr3,3kyqyyshyzkbm79qdcbg2q7hf9mdol,PaWDOqkU,2020-0188,2020-05-07,15:17:14,15:39:59,NA,incomplete,166,number,0,right,Red_Plus_Grid_4.jpg,Blue_Star_Grid_3.jpg,Green_Circle_Stripes_4.jpg,right,785.3749999922002,true,high,NA,NA,NA,NA,NA,NA,NA,false
PaWDOqkU,33cla8o0nlo9ukh858i8v1jgjowfr3,3kyqyyshyzkbm79qdcbg2q7hf9mdol,PaWDOqkU,2020-0188,2020-05-07,15:17:14,15:39:59,NA,incomplete,167,number,1,right,Blue_Star_Chess_2.jpg,Green_Plus_Chess_1.jpg,Red_Triangle_Grid_2.jpg,right,1097.1900000004098,true,high,NA,NA,NA,NA,NA,NA,NA,false
PaWDOqkU,33cla8o0nlo9ukh858i8v1jgjowfr3,3kyqyyshyzkbm79qdcbg2q7hf9mdol,PaWDOqkU,2020-0188,2020-05-07,15:17:14,15:39:59,NA,incomplete,168,number,1,right,Blue_Star_Dots_3.jpg,Red_Plus_Dots_4.jpg,Green_Triangle_Grid_3.jpg,right,1108.4950000076788,true,high,NA,NA,NA,NA,NA,NA,NA,false
PaWDOqkU,33cla8o0nlo9ukh858i8v1jgjowfr3,3kyqyyshyzkbm79qdcbg2q7hf9mdol,PaWDOqkU,2020-0188,2020-05-07,15:17:14,15:39:59,NA,incomplete,169,number,1,right,Green_Star_Stripes_2.jpg,Purple_Plus_Stripes_4.jpg,Red_Triangle_Chess_2.jpg,right,740.894999995362,true,high,NA,NA,NA,NA,NA,NA,NA,false
PaWDOqkU,33cla8o0nlo9ukh858i8v1jgjowfr3,3kyqyyshyzkbm79qdcbg2q7hf9mdol,PaWDOqkU,2020-0188,2020-05-07,15:17:14,15:39:59,NA,incomplete,170,number,1,right,Purple_Circle_Stripes_4.jpg,Blue_Star_Stripes_3.jpg,Red_Triangle_Dots_4.jpg,right,1127.5400000013178,true,high,NA,NA,NA,NA,NA,NA,NA,false
PaWDOqkU,33cla8o0nlo9ukh858i8v1jgjowfr3,3kyqyyshyzkbm79qdcbg2q7hf9mdol,PaWDOqkU,2020-0188,2020-05-07,15:17:14,15:39:59,NA,incomplete,171,number,0,left,Green_Star_Grid_1.jpg,Blue_Plus_Dots_1.jpg,Purple_Circle_Grid_2.jpg,left,922.7950000058627,true,high,NA,NA,NA,NA,NA,NA,NA,false
PaWDOqkU,33cla8o0nlo9ukh858i8v1jgjowfr3,3kyqyyshyzkbm79qdcbg2q7hf9mdol,PaWDOqkU,2020-0188,2020-05-07,15:17:14,15:39:59,NA,incomplete,172,number,1,left,Red_Circle_Grid_1.jpg,Blue_Triangle_Chess_1.jpg,Green_Plus_Grid_2.jpg,right,1207.5599999952829,false,high,NA,NA,NA,NA,NA,NA,NA,false
PaWDOqkU,33cla8o0nlo9ukh858i8v1jgjowfr3,3kyqyyshyzkbm79qdcbg2q7hf9mdol,PaWDOqkU,2020-0188,2020-05-07,15:17:14,15:39:59,NA,incomplete,173,number,1,left,Green_Triangle_Grid_1.jpg,Red_Circle_Stripes_1.jpg,Blue_Star_Grid_4.jpg,left,1372.7299999882234,true,high,NA,NA,NA,NA,NA,NA,NA,false
PaWDOqkU,33cla8o0nlo9ukh858i8v1jgjowfr3,3kyqyyshyzkbm79qdcbg2q7hf9mdol,PaWDOqkU,2020-0188,2020-05-07,15:17:14,15:39:59,NA,incomplete,174,number,0,right,Purple_Circle_Grid_4.jpg,Green_Star_Grid_2.jpg,Red_Plus_Chess_4.jpg,right,986.5549999958603,true,high,NA,NA,NA,NA,NA,NA,NA,false
PaWDOqkU,33cla8o0nlo9ukh858i8v1jgjowfr3,3kyqyyshyzkbm79qdcbg2q7hf9mdol,PaWDOqkU,2020-0188,2020-05-07,15:17:14,15:39:59,NA,incomplete,175,number,1,right,Green_Plus_Chess_2.jpg,Red_Star_Chess_4.jpg,Blue_Triangle_Grid_2.jpg,right,1063.8400000025285,true,high,NA,NA,NA,NA,NA,NA,NA,false
PaWDOqkU,33cla8o0nlo9ukh858i8v1jgjowfr3,3kyqyyshyzkbm79qdcbg2q7hf9mdol,PaWDOqkU,2020-0188,2020-05-07,15:17:14,15:39:59,NA,incomplete,176,number,0,right,Purple_Star_Stripes_1.jpg,Green_Circle_Stripes_3.jpg,Red_Plus_Chess_1.jpg,right,1311.3049999956274,true,high,NA,NA,NA,NA,NA,NA,NA,false
PaWDOqkU,33cla8o0nlo9ukh858i8v1jgjowfr3,3kyqyyshyzkbm79qdcbg2q7hf9mdol,PaWDOqkU,2020-0188,2020-05-07,15:17:14,15:39:59,NA,incomplete,177,number,1,left,Blue_Star_Chess_3.jpg,Green_Plus_Stripes_3.jpg,Purple_Triangle_Chess_1.jpg,left,973.0600000038976,true,high,NA,NA,NA,NA,NA,NA,NA,false
PaWDOqkU,33cla8o0nlo9ukh858i8v1jgjowfr3,3kyqyyshyzkbm79qdcbg2q7hf9mdol,PaWDOqkU,2020-0188,2020-05-07,15:17:14,15:39:59,NA,incomplete,178,number,1,right,Purple_Plus_Chess_3.jpg,Green_Triangle_Chess_1.jpg,Red_Circle_Stripes_3.jpg,right,795.3249999991385,true,high,NA,NA,NA,NA,NA,NA,NA,false
PaWDOqkU,33cla8o0nlo9ukh858i8v1jgjowfr3,3kyqyyshyzkbm79qdcbg2q7hf9mdol,PaWDOqkU,2020-0188,2020-05-07,15:17:14,15:39:59,NA,incomplete,179,number,1,left,Blue_Star_Stripes_2.jpg,Red_Circle_Grid_2.jpg,Purple_Plus_Stripes_4.jpg,left,1003.8449999992736,true,high,NA,NA,NA,NA,NA,NA,NA,false
PaWDOqkU,33cla8o0nlo9ukh858i8v1jgjowfr3,3kyqyyshyzkbm79qdcbg2q7hf9mdol,PaWDOqkU,2020-0188,2020-05-07,15:17:14,15:39:59,NA,incomplete,180,filling,1,right,Purple_Circle_Grid_3.jpg,Green_Star_Chess_3.jpg,Red_Plus_Grid_4.jpg,left,1113.3149999950547,false,high,NA,NA,NA,NA,NA,NA,NA,false
PaWDOqkU,33cla8o0nlo9ukh858i8v1jgjowfr3,3kyqyyshyzkbm79qdcbg2q7hf9mdol,PaWDOqkU,2020-0188,2020-05-07,15:17:14,15:39:59,NA,incomplete,181,filling,1,left,Red_Triangle_Grid_3.jpg,Purple_Star_Grid_1.jpg,Blue_Circle_Stripes_3.jpg,right,753.0950000073062,false,high,NA,NA,NA,NA,NA,NA,NA,false
PaWDOqkU,33cla8o0nlo9ukh858i8v1jgjowfr3,3kyqyyshyzkbm79qdcbg2q7hf9mdol,PaWDOqkU,2020-0188,2020-05-07,15:17:14,15:39:59,NA,incomplete,182,filling,0,left,Purple_Circle_Grid_1.jpg,Green_Triangle_Grid_2.jpg,Blue_Plus_Dots_1.jpg,right,1145.7949999894481,false,high,NA,NA,NA,NA,NA,NA,NA,false
PaWDOqkU,33cla8o0nlo9ukh858i8v1jgjowfr3,3kyqyyshyzkbm79qdcbg2q7hf9mdol,PaWDOqkU,2020-0188,2020-05-07,15:17:14,15:39:59,NA,incomplete,183,filling,1,left,Blue_Triangle_Chess_1.jpg,Red_Star_Chess_2.jpg,Purple_Plus_Stripes_1.jpg,right,766.0949999990407,false,high,NA,NA,NA,NA,NA,NA,NA,false
PaWDOqkU,33cla8o0nlo9ukh858i8v1jgjowfr3,3kyqyyshyzkbm79qdcbg2q7hf9mdol,PaWDOqkU,2020-0188,2020-05-07,15:17:14,15:39:59,NA,incomplete,184,filling,0,left,Blue_Star_Chess_2.jpg,Purple_Triangle_Chess_4.jpg,Red_Circle_Stripes_2.jpg,right,1035.2200000052107,false,high,NA,NA,NA,NA,NA,NA,NA,false
PaWDOqkU,33cla8o0nlo9ukh858i8v1jgjowfr3,3kyqyyshyzkbm79qdcbg2q7hf9mdol,PaWDOqkU,2020-0188,2020-05-07,15:17:14,15:39:59,NA,incomplete,185,filling,1,right,Purple_Triangle_Chess_3.jpg,Blue_Plus_Stripes_3.jpg,Green_Star_Chess_1.jpg,left,832.4199999915436,false,high,NA,NA,NA,NA,NA,NA,NA,false
PaWDOqkU,33cla8o0nlo9ukh858i8v1jgjowfr3,3kyqyyshyzkbm79qdcbg2q7hf9mdol,PaWDOqkU,2020-0188,2020-05-07,15:17:14,15:39:59,NA,incomplete,186,filling,1,right,Blue_Circle_Stripes_1.jpg,Green_Plus_Chess_1.jpg,Purple_Triangle_Stripes_2.jpg,left,853.6049999966053,false,high,NA,NA,NA,NA,NA,NA,NA,false
PaWDOqkU,33cla8o0nlo9ukh858i8v1jgjowfr3,3kyqyyshyzkbm79qdcbg2q7hf9mdol,PaWDOqkU,2020-0188,2020-05-07,15:17:14,15:39:59,NA,incomplete,187,filling,1,left,Green_Star_Chess_3.jpg,Red_Plus_Chess_2.jpg,Purple_Triangle_Dots_3.jpg,right,737.2599999944214,false,high,NA,NA,NA,NA,NA,NA,NA,false
PaWDOqkU,33cla8o0nlo9ukh858i8v1jgjowfr3,3kyqyyshyzkbm79qdcbg2q7hf9mdol,PaWDOqkU,2020-0188,2020-05-07,15:17:14,15:39:59,NA,incomplete,188,filling,0,left,Red_Star_Dots_2.jpg,Blue_Circle_Dots_4.jpg,Green_Plus_Grid_2.jpg,right,680.1000000123167,false,high,NA,NA,NA,NA,NA,NA,NA,false
PaWDOqkU,33cla8o0nlo9ukh858i8v1jgjowfr3,3kyqyyshyzkbm79qdcbg2q7hf9mdol,PaWDOqkU,2020-0188,2020-05-07,15:17:14,15:39:59,NA,incomplete,189,filling,1,right,Purple_Plus_Stripes_4.jpg,Green_Triangle_Grid_4.jpg,Blue_Circle_Stripes_3.jpg,left,894.0699999948265,false,high,NA,NA,NA,NA,NA,NA,NA,false
PaWDOqkU,33cla8o0nlo9ukh858i8v1jgjowfr3,3kyqyyshyzkbm79qdcbg2q7hf9mdol,PaWDOqkU,2020-0188,2020-05-07,15:17:14,15:39:59,NA,incomplete,190,filling,0,left,Blue_Plus_Grid_4.jpg,Green_Triangle_Grid_1.jpg,Purple_Circle_Chess_4.jpg,left,1268.2000000058906,true,high,NA,NA,NA,NA,NA,NA,NA,false
PaWDOqkU,33cla8o0nlo9ukh858i8v1jgjowfr3,3kyqyyshyzkbm79qdcbg2q7hf9mdol,PaWDOqkU,2020-0188,2020-05-07,15:17:14,15:39:59,NA,incomplete,191,filling,1,left,Red_Star_Chess_1.jpg,Green_Circle_Chess_4.jpg,Purple_Triangle_Stripes_1.jpg,right,968.7050000065938,false,high,NA,NA,NA,NA,NA,NA,NA,false
PaWDOqkU,33cla8o0nlo9ukh858i8v1jgjowfr3,3kyqyyshyzkbm79qdcbg2q7hf9mdol,PaWDOqkU,2020-0188,2020-05-07,15:17:14,15:39:59,NA,incomplete,192,filling,1,left,Red_Circle_Grid_4.jpg,Purple_Star_Grid_2.jpg,Green_Plus_Chess_4.jpg,left,782.7549999929033,true,high,NA,NA,NA,NA,NA,NA,NA,false
PaWDOqkU,33cla8o0nlo9ukh858i8v1jgjowfr3,3kyqyyshyzkbm79qdcbg2q7hf9mdol,PaWDOqkU,2020-0188,2020-05-07,15:17:14,15:39:59,NA,incomplete,193,filling,0,right,Green_Circle_Dots_2.jpg,Blue_Star_Grid_2.jpg,Purple_Triangle_Dots_4.jpg,right,1007.980000009411,true,high,NA,NA,NA,NA,NA,NA,NA,false
PaWDOqkU,33cla8o0nlo9ukh858i8v1jgjowfr3,3kyqyyshyzkbm79qdcbg2q7hf9mdol,PaWDOqkU,2020-0188,2020-05-07,15:17:14,15:39:59,NA,incomplete,194,filling,1,right,Purple_Triangle_Grid_4.jpg,Blue_Star_Chess_4.jpg,Green_Plus_Grid_3.jpg,right,971.109999998589,true,high,NA,NA,NA,NA,NA,NA,NA,false
PaWDOqkU,33cla8o0nlo9ukh858i8v1jgjowfr3,3kyqyyshyzkbm79qdcbg2q7hf9mdol,PaWDOqkU,2020-0188,2020-05-07,15:17:14,15:39:59,NA,incomplete,195,filling,0,left,Green_Circle_Dots_3.jpg,Purple_Star_Dots_2.jpg,Red_Triangle_Grid_3.jpg,left,939.9800000101095,true,high,NA,NA,NA,NA,NA,NA,NA,false
PaWDOqkU,33cla8o0nlo9ukh858i8v1jgjowfr3,3kyqyyshyzkbm79qdcbg2q7hf9mdol,PaWDOqkU,2020-0188,2020-05-07,15:17:14,15:39:59,NA,incomplete,196,filling,1,left,Green_Plus_Stripes_2.jpg,Purple_Star_Stripes_4.jpg,Blue_Triangle_Grid_2.jpg,left,1103.5249999986263,true,high,NA,NA,NA,NA,NA,NA,NA,false
PaWDOqkU,33cla8o0nlo9ukh858i8v1jgjowfr3,3kyqyyshyzkbm79qdcbg2q7hf9mdol,PaWDOqkU,2020-0188,2020-05-07,15:17:14,15:39:59,NA,incomplete,197,filling,1,left,Purple_Star_Grid_2.jpg,Red_Circle_Grid_4.jpg,Blue_Triangle_Dots_2.jpg,left,1023.4399999899324,true,high,NA,NA,NA,NA,NA,NA,NA,false
PaWDOqkU,33cla8o0nlo9ukh858i8v1jgjowfr3,3kyqyyshyzkbm79qdcbg2q7hf9mdol,PaWDOqkU,2020-0188,2020-05-07,15:17:14,15:39:59,NA,incomplete,198,filling,0,left,Green_Star_Dots_4.jpg,Red_Plus_Dots_2.jpg,Purple_Triangle_Grid_4.jpg,left,1003.0850000039209,true,high,NA,NA,NA,NA,NA,NA,NA,false
PaWDOqkU,33cla8o0nlo9ukh858i8v1jgjowfr3,3kyqyyshyzkbm79qdcbg2q7hf9mdol,PaWDOqkU,2020-0188,2020-05-07,15:17:14,15:39:59,NA,incomplete,199,filling,1,left,Purple_Plus_Dots_3.jpg,Blue_Triangle_Dots_1.jpg,Red_Star_Grid_3.jpg,left,1012.6249999884749,true,high,NA,NA,NA,NA,NA,NA,NA,false
PaWDOqkU,33cla8o0nlo9ukh858i8v1jgjowfr3,3kyqyyshyzkbm79qdcbg2q7hf9mdol,PaWDOqkU,2020-0188,2020-05-07,15:17:14,15:39:59,NA,incomplete,200,number,1,right,Purple_Triangle_Chess_4.jpg,Blue_Star_Chess_2.jpg,Green_Plus_Grid_4.jpg,left,981.3799999974435,false,high,NA,NA,NA,NA,NA,NA,NA,false
PaWDOqkU,33cla8o0nlo9ukh858i8v1jgjowfr3,3kyqyyshyzkbm79qdcbg2q7hf9mdol,PaWDOqkU,2020-0188,2020-05-07,15:17:14,15:39:59,NA,incomplete,201,number,1,right,Blue_Circle_Stripes_2.jpg,Red_Star_Stripes_1.jpg,Green_Triangle_Chess_2.jpg,right,733.3250000083353,true,high,NA,NA,NA,NA,NA,NA,NA,false
PaWDOqkU,33cla8o0nlo9ukh858i8v1jgjowfr3,3kyqyyshyzkbm79qdcbg2q7hf9mdol,PaWDOqkU,2020-0188,2020-05-07,15:17:14,15:39:59,NA,incomplete,202,number,1,left,Red_Plus_Dots_4.jpg,Blue_Star_Grid_4.jpg,Green_Circle_Dots_2.jpg,left,1615.8649999997579,true,high,NA,NA,NA,NA,NA,NA,NA,false
PaWDOqkU,33cla8o0nlo9ukh858i8v1jgjowfr3,3kyqyyshyzkbm79qdcbg2q7hf9mdol,PaWDOqkU,2020-0188,2020-05-07,15:17:14,15:39:59,NA,incomplete,203,number,1,right,Purple_Circle_Grid_2.jpg,Red_Triangle_Grid_4.jpg,Green_Star_Dots_2.jpg,right,1660.6450000107288,true,high,NA,NA,NA,NA,NA,NA,NA,false
PaWDOqkU,33cla8o0nlo9ukh858i8v1jgjowfr3,3kyqyyshyzkbm79qdcbg2q7hf9mdol,PaWDOqkU,2020-0188,2020-05-07,15:17:14,15:39:59,NA,incomplete,204,number,0,right,Green_Triangle_Stripes_4.jpg,Blue_Star_Stripes_3.jpg,Purple_Circle_Grid_4.jpg,right,963.4050000021234,true,high,NA,NA,NA,NA,NA,NA,NA,false
PaWDOqkU,33cla8o0nlo9ukh858i8v1jgjowfr3,3kyqyyshyzkbm79qdcbg2q7hf9mdol,PaWDOqkU,2020-0188,2020-05-07,15:17:14,15:39:59,NA,incomplete,205,number,1,left,Blue_Triangle_Stripes_2.jpg,Red_Plus_Chess_2.jpg,Green_Star_Stripes_1.jpg,left,1036.2150000000838,true,high,NA,NA,NA,NA,NA,NA,NA,false
PaWDOqkU,33cla8o0nlo9ukh858i8v1jgjowfr3,3kyqyyshyzkbm79qdcbg2q7hf9mdol,PaWDOqkU,2020-0188,2020-05-07,15:17:14,15:39:59,NA,incomplete,206,number,1,left,Blue_Triangle_Grid_1.jpg,Purple_Plus_Dots_1.jpg,Green_Circle_Grid_4.jpg,left,1059.9999999976717,true,high,NA,NA,NA,NA,NA,NA,NA,false
PaWDOqkU,33cla8o0nlo9ukh858i8v1jgjowfr3,3kyqyyshyzkbm79qdcbg2q7hf9mdol,PaWDOqkU,2020-0188,2020-05-07,15:17:14,15:39:59,NA,incomplete,207,number,1,right,Blue_Triangle_Grid_2.jpg,Red_Plus_Grid_4.jpg,Green_Star_Dots_2.jpg,right,838.1200000003446,true,high,NA,NA,NA,NA,NA,NA,NA,false
PaWDOqkU,33cla8o0nlo9ukh858i8v1jgjowfr3,3kyqyyshyzkbm79qdcbg2q7hf9mdol,PaWDOqkU,2020-0188,2020-05-07,15:17:14,15:39:59,NA,incomplete,208,number,1,right,Purple_Circle_Grid_3.jpg,Red_Star_Grid_2.jpg,Blue_Plus_Stripes_3.jpg,right,1549.6249999997672,true,high,NA,NA,NA,NA,NA,NA,NA,false
PaWDOqkU,33cla8o0nlo9ukh858i8v1jgjowfr3,3kyqyyshyzkbm79qdcbg2q7hf9mdol,PaWDOqkU,2020-0188,2020-05-07,15:17:14,15:39:59,NA,incomplete,209,number,1,left,Green_Triangle_Grid_2.jpg,Red_Circle_Dots_2.jpg,Blue_Star_Grid_4.jpg,left,1012.2250000131316,true,high,NA,NA,NA,NA,NA,NA,NA,false
PaWDOqkU,33cla8o0nlo9ukh858i8v1jgjowfr3,3kyqyyshyzkbm79qdcbg2q7hf9mdol,PaWDOqkU,2020-0188,2020-05-07,15:17:14,15:39:59,NA,incomplete,210,number,1,left,Green_Circle_Chess_1.jpg,Purple_Plus_Grid_1.jpg,Red_Star_Chess_3.jpg,left,907.5349999910686,true,high,NA,NA,NA,NA,NA,NA,NA,false
PaWDOqkU,33cla8o0nlo9ukh858i8v1jgjowfr3,3kyqyyshyzkbm79qdcbg2q7hf9mdol,PaWDOqkU,2020-0188,2020-05-07,15:17:14,15:39:59,NA,incomplete,211,number,1,right,Purple_Plus_Grid_2.jpg,Red_Triangle_Grid_4.jpg,Green_Circle_Chess_2.jpg,right,1204.3350000020582,true,high,NA,NA,NA,NA,NA,NA,NA,false
PaWDOqkU,33cla8o0nlo9ukh858i8v1jgjowfr3,3kyqyyshyzkbm79qdcbg2q7hf9mdol,PaWDOqkU,2020-0188,2020-05-07,15:17:14,15:39:59,NA,incomplete,212,number,1,right,Purple_Star_Grid_3.jpg,Green_Triangle_Grid_1.jpg,Red_Circle_Stripes_3.jpg,right,1152.725000007078,true,high,NA,NA,NA,NA,NA,NA,NA,false
PaWDOqkU,33cla8o0nlo9ukh858i8v1jgjowfr3,3kyqyyshyzkbm79qdcbg2q7hf9mdol,PaWDOqkU,2020-0188,2020-05-07,15:17:14,15:39:59,NA,incomplete,213,number,1,left,Purple_Circle_Grid_2.jpg,Red_Plus_Chess_2.jpg,Blue_Star_Grid_4.jpg,left,867.8899999940768,true,high,NA,NA,NA,NA,NA,NA,NA,false
PaWDOqkU,33cla8o0nlo9ukh858i8v1jgjowfr3,3kyqyyshyzkbm79qdcbg2q7hf9mdol,PaWDOqkU,2020-0188,2020-05-07,15:17:14,15:39:59,NA,incomplete,214,number,1,right,Blue_Plus_Stripes_1.jpg,Purple_Circle_Stripes_4.jpg,Green_Star_Dots_1.jpg,right,809.5400000018999,true,high,NA,NA,NA,NA,NA,NA,NA,false
PaWDOqkU,33cla8o0nlo9ukh858i8v1jgjowfr3,3kyqyyshyzkbm79qdcbg2q7hf9mdol,PaWDOqkU,2020-0188,2020-05-07,15:17:14,15:39:59,NA,incomplete,215,number,0,right,Green_Star_Chess_2.jpg,Red_Circle_Chess_1.jpg,Purple_Plus_Grid_2.jpg,right,960.4600000018254,true,high,NA,NA,NA,NA,NA,NA,NA,false
PaWDOqkU,33cla8o0nlo9ukh858i8v1jgjowfr3,3kyqyyshyzkbm79qdcbg2q7hf9mdol,PaWDOqkU,2020-0188,2020-05-07,15:17:14,15:39:59,NA,incomplete,216,number,1,right,Blue_Triangle_Dots_2.jpg,Red_Circle_Dots_1.jpg,Green_Star_Stripes_2.jpg,left,1550.5200000044424,false,high,NA,NA,NA,NA,NA,NA,NA,false
PaWDOqkU,33cla8o0nlo9ukh858i8v1jgjowfr3,3kyqyyshyzkbm79qdcbg2q7hf9mdol,PaWDOqkU,2020-0188,2020-05-07,15:17:14,15:39:59,NA,incomplete,217,number,1,left,Green_Circle_Dots_4.jpg,Blue_Star_Chess_4.jpg,Red_Triangle_Dots_2.jpg,left,767.7950000069104,true,high,NA,NA,NA,NA,NA,NA,NA,false
PaWDOqkU,33cla8o0nlo9ukh858i8v1jgjowfr3,3kyqyyshyzkbm79qdcbg2q7hf9mdol,PaWDOqkU,2020-0188,2020-05-07,15:17:14,15:39:59,NA,incomplete,218,number,1,right,Green_Plus_Grid_2.jpg,Red_Star_Grid_3.jpg,Blue_Circle_Chess_2.jpg,right,909.2999999993481,true,high,NA,NA,NA,NA,NA,NA,NA,false
PaWDOqkU,33cla8o0nlo9ukh858i8v1jgjowfr3,3kyqyyshyzkbm79qdcbg2q7hf9mdol,PaWDOqkU,2020-0188,2020-05-07,15:17:14,15:39:59,NA,incomplete,219,number,1,right,Blue_Triangle_Stripes_3.jpg,Green_Plus_Stripes_2.jpg,Purple_Circle_Chess_3.jpg,right,716.5850000018254,true,high,NA,NA,NA,NA,NA,NA,NA,false
PaWDOqkU,33cla8o0nlo9ukh858i8v1jgjowfr3,3kyqyyshyzkbm79qdcbg2q7hf9mdol,PaWDOqkU,2020-0188,2020-05-07,15:17:14,15:39:59,NA,incomplete,220,filling,1,right,Green_Circle_Grid_1.jpg,Red_Triangle_Dots_1.jpg,Blue_Star_Grid_4.jpg,left,758.9500000032131,false,high,NA,NA,NA,NA,NA,NA,NA,false
PaWDOqkU,33cla8o0nlo9ukh858i8v1jgjowfr3,3kyqyyshyzkbm79qdcbg2q7hf9mdol,PaWDOqkU,2020-0188,2020-05-07,15:17:14,15:39:59,NA,incomplete,221,filling,0,left,Purple_Circle_Grid_2.jpg,Green_Star_Grid_4.jpg,Blue_Plus_Dots_2.jpg,right,819.5349999880418,false,high,NA,NA,NA,NA,NA,NA,NA,false
PaWDOqkU,33cla8o0nlo9ukh858i8v1jgjowfr3,3kyqyyshyzkbm79qdcbg2q7hf9mdol,PaWDOqkU,2020-0188,2020-05-07,15:17:14,15:39:59,NA,incomplete,222,filling,1,left,Red_Star_Grid_4.jpg,Green_Circle_Grid_2.jpg,Purple_Triangle_Dots_4.jpg,right,835.9650000056718,false,high,NA,NA,NA,NA,NA,NA,NA,false
PaWDOqkU,33cla8o0nlo9ukh858i8v1jgjowfr3,3kyqyyshyzkbm79qdcbg2q7hf9mdol,PaWDOqkU,2020-0188,2020-05-07,15:17:14,15:39:59,NA,incomplete,223,filling,1,left,Blue_Star_Dots_3.jpg,Green_Plus_Dots_1.jpg,Red_Triangle_Stripes_3.jpg,right,1499.8949999860488,false,high,NA,NA,NA,NA,NA,NA,NA,false
PaWDOqkU,33cla8o0nlo9ukh858i8v1jgjowfr3,3kyqyyshyzkbm79qdcbg2q7hf9mdol,PaWDOqkU,2020-0188,2020-05-07,15:17:14,15:39:59,NA,incomplete,224,filling,1,right,Red_Plus_Grid_2.jpg,Purple_Circle_Stripes_2.jpg,Green_Star_Grid_3.jpg,right,1482.535000002943,true,high,NA,NA,NA,NA,NA,NA,NA,false
PaWDOqkU,33cla8o0nlo9ukh858i8v1jgjowfr3,3kyqyyshyzkbm79qdcbg2q7hf9mdol,PaWDOqkU,2020-0188,2020-05-07,15:17:14,15:39:59,NA,incomplete,225,filling,1,left,Red_Star_Stripes_3.jpg,Purple_Circle_Stripes_2.jpg,Blue_Triangle_Chess_3.jpg,right,1109.2000000062399,false,high,NA,NA,NA,NA,NA,NA,NA,false
PaWDOqkU,33cla8o0nlo9ukh858i8v1jgjowfr3,3kyqyyshyzkbm79qdcbg2q7hf9mdol,PaWDOqkU,2020-0188,2020-05-07,15:17:14,15:39:59,NA,incomplete,226,filling,1,right,Red_Circle_Grid_2.jpg,Green_Triangle_Stripes_2.jpg,Blue_Star_Grid_1.jpg,right,1293.669999999227,true,high,NA,NA,NA,NA,NA,NA,NA,false
PaWDOqkU,33cla8o0nlo9ukh858i8v1jgjowfr3,3kyqyyshyzkbm79qdcbg2q7hf9mdol,PaWDOqkU,2020-0188,2020-05-07,15:17:14,15:39:59,NA,incomplete,227,filling,0,right,Red_Circle_Grid_4.jpg,Purple_Star_Stripes_4.jpg,Green_Plus_Grid_2.jpg,right,1209.6149999997579,true,high,NA,NA,NA,NA,NA,NA,NA,false
PaWDOqkU,33cla8o0nlo9ukh858i8v1jgjowfr3,3kyqyyshyzkbm79qdcbg2q7hf9mdol,PaWDOqkU,2020-0188,2020-05-07,15:17:14,15:39:59,NA,incomplete,228,filling,1,right,Green_Star_Dots_3.jpg,Purple_Triangle_Grid_3.jpg,Red_Circle_Dots_2.jpg,right,1116.6050000027753,true,high,NA,NA,NA,NA,NA,NA,NA,false
PaWDOqkU,33cla8o0nlo9ukh858i8v1jgjowfr3,3kyqyyshyzkbm79qdcbg2q7hf9mdol,PaWDOqkU,2020-0188,2020-05-07,15:17:14,15:39:59,NA,incomplete,229,filling,1,left,Purple_Star_Chess_3.jpg,Green_Triangle_Chess_2.jpg,Red_Circle_Grid_3.jpg,left,1368.6049999960233,true,high,NA,NA,NA,NA,NA,NA,NA,false
PaWDOqkU,33cla8o0nlo9ukh858i8v1jgjowfr3,3kyqyyshyzkbm79qdcbg2q7hf9mdol,PaWDOqkU,2020-0188,2020-05-07,15:17:14,15:39:59,NA,incomplete,230,filling,0,right,Blue_Plus_Dots_1.jpg,Red_Star_Chess_1.jpg,Green_Circle_Dots_4.jpg,right,996.0699999937788,true,high,NA,NA,NA,NA,NA,NA,NA,false
PaWDOqkU,33cla8o0nlo9ukh858i8v1jgjowfr3,3kyqyyshyzkbm79qdcbg2q7hf9mdol,PaWDOqkU,2020-0188,2020-05-07,15:17:14,15:39:59,NA,incomplete,231,filling,1,right,Purple_Triangle_Dots_3.jpg,Red_Circle_Stripes_3.jpg,Green_Star_Dots_2.jpg,right,1283.7400000137277,true,high,NA,NA,NA,NA,NA,NA,NA,false
PaWDOqkU,33cla8o0nlo9ukh858i8v1jgjowfr3,3kyqyyshyzkbm79qdcbg2q7hf9mdol,PaWDOqkU,2020-0188,2020-05-07,15:17:14,15:39:59,NA,incomplete,232,filling,1,left,Blue_Plus_Grid_2.jpg,Red_Circle_Grid_1.jpg,Green_Triangle_Stripes_2.jpg,left,1243.3999999922235,true,high,NA,NA,NA,NA,NA,NA,NA,false
PaWDOqkU,33cla8o0nlo9ukh858i8v1jgjowfr3,3kyqyyshyzkbm79qdcbg2q7hf9mdol,PaWDOqkU,2020-0188,2020-05-07,15:17:14,15:39:59,NA,incomplete,233,filling,0,left,Blue_Triangle_Chess_1.jpg,Green_Star_Chess_3.jpg,Red_Plus_Stripes_1.jpg,left,843.1399999973364,true,high,NA,NA,NA,NA,NA,NA,NA,false
PaWDOqkU,33cla8o0nlo9ukh858i8v1jgjowfr3,3kyqyyshyzkbm79qdcbg2q7hf9mdol,PaWDOqkU,2020-0188,2020-05-07,15:17:14,15:39:59,NA,incomplete,234,filling,1,right,Red_Circle_Dots_4.jpg,Green_Triangle_Stripes_4.jpg,Purple_Plus_Dots_2.jpg,left,1325.0449999903794,false,high,NA,NA,NA,NA,NA,NA,NA,false
PaWDOqkU,33cla8o0nlo9ukh858i8v1jgjowfr3,3kyqyyshyzkbm79qdcbg2q7hf9mdol,PaWDOqkU,2020-0188,2020-05-07,15:17:14,15:39:59,NA,incomplete,235,filling,1,left,Red_Triangle_Stripes_1.jpg,Green_Star_Stripes_4.jpg,Purple_Plus_Dots_1.jpg,left,972.0000000088476,true,high,NA,NA,NA,NA,NA,NA,NA,false
PaWDOqkU,33cla8o0nlo9ukh858i8v1jgjowfr3,3kyqyyshyzkbm79qdcbg2q7hf9mdol,PaWDOqkU,2020-0188,2020-05-07,15:17:14,15:39:59,NA,incomplete,236,filling,1,left,Blue_Star_Grid_2.jpg,Green_Triangle_Grid_1.jpg,Purple_Plus_Stripes_2.jpg,left,960.2999999916647,true,high,NA,NA,NA,NA,NA,NA,NA,false
PaWDOqkU,33cla8o0nlo9ukh858i8v1jgjowfr3,3kyqyyshyzkbm79qdcbg2q7hf9mdol,PaWDOqkU,2020-0188,2020-05-07,15:17:14,15:39:59,NA,incomplete,237,filling,1,left,Red_Circle_Stripes_3.jpg,Purple_Star_Stripes_1.jpg,Blue_Plus_Grid_3.jpg,left,896.4200000045821,true,high,NA,NA,NA,NA,NA,NA,NA,false
PaWDOqkU,33cla8o0nlo9ukh858i8v1jgjowfr3,3kyqyyshyzkbm79qdcbg2q7hf9mdol,PaWDOqkU,2020-0188,2020-05-07,15:17:14,15:39:59,NA,incomplete,238,filling,0,right,Blue_Star_Dots_2.jpg,Green_Circle_Chess_2.jpg,Purple_Triangle_Dots_3.jpg,right,903.2999999907333,true,high,NA,NA,NA,NA,NA,NA,NA,false
PaWDOqkU,33cla8o0nlo9ukh858i8v1jgjowfr3,3kyqyyshyzkbm79qdcbg2q7hf9mdol,PaWDOqkU,2020-0188,2020-05-07,15:17:14,15:39:59,NA,incomplete,239,filling,1,right,Red_Circle_Chess_2.jpg,Blue_Plus_Grid_2.jpg,Purple_Star_Chess_4.jpg,left,1352.4599999946076,false,high,NA,NA,NA,NA,NA,NA,NA,false
PaWDOqkU,33cla8o0nlo9ukh858i8v1jgjowfr3,3kyqyyshyzkbm79qdcbg2q7hf9mdol,PaWDOqkU,2020-0188,2020-05-07,15:17:14,15:39:59,1154520.934999993,1367445.9700000007,NA,NA,NA,NA,NA,NA,NA,NA,NA,NA,NA,35,Other,Male,latino,no,yes,no,undefined
