workerId,hitId,assignmentId,subject,studyid,exp_date,exp_start,exp_end,time_start,time_end,trial,type,reward_validity,answer,image_top,image_left,image_right,response,response_time,response_acc,volatility,age,race,gender,ethnicity,color,vision,neuro,practice
mTbKWGVi,3en4yvuovf59wipgxxflzhxwdchjxp,3lep4mgt3kdr3dkh976uw67i8e3dbp,mTbKWGVi,2020-0188,2020-05-08,11:06:14,11:23:17,NA,incomplete,0,shape,0,left,Blue_Circle_Dots_4.jpg,Green_Circle_Chess_2.jpg,Purple_Triangle_Dots_1.jpg,left,713,true,NA,NA,NA,NA,NA,NA,NA,NA,true
mTbKWGVi,3en4yvuovf59wipgxxflzhxwdchjxp,3lep4mgt3kdr3dkh976uw67i8e3dbp,mTbKWGVi,2020-0188,2020-05-08,11:06:14,11:23:17,NA,incomplete,1,shape,1,right,Purple_Circle_Dots_2.jpg,Blue_Triangle_Dots_3.jpg,Red_Circle_Stripes_4.jpg,right,697,true,NA,NA,NA,NA,NA,NA,NA,NA,true
mTbKWGVi,3en4yvuovf59wipgxxflzhxwdchjxp,3lep4mgt3kdr3dkh976uw67i8e3dbp,mTbKWGVi,2020-0188,2020-05-08,11:06:14,11:23:17,NA,incomplete,2,shape,1,right,Green_Circle_Dots_4.jpg,Blue_Plus_Dots_3.jpg,Red_Circle_Chess_2.jpg,right,749,true,NA,NA,NA,NA,NA,NA,NA,NA,true
mTbKWGVi,3en4yvuovf59wipgxxflzhxwdchjxp,3lep4mgt3kdr3dkh976uw67i8e3dbp,mTbKWGVi,2020-0188,2020-05-08,11:06:14,11:23:17,NA,incomplete,3,shape,1,left,Blue_Plus_Grid_1.jpg,Purple_Plus_Stripes_4.jpg,Green_Triangle_Grid_2.jpg,left,700,true,NA,NA,NA,NA,NA,NA,NA,NA,true
mTbKWGVi,3en4yvuovf59wipgxxflzhxwdchjxp,3lep4mgt3kdr3dkh976uw67i8e3dbp,mTbKWGVi,2020-0188,2020-05-08,11:06:14,11:23:17,NA,incomplete,4,shape,1,right,Red_Triangle_Stripes_4.jpg,Green_Star_Stripes_1.jpg,Blue_Triangle_Chess_3.jpg,right,641,true,NA,NA,NA,NA,NA,NA,NA,NA,true
mTbKWGVi,3en4yvuovf59wipgxxflzhxwdchjxp,3lep4mgt3kdr3dkh976uw67i8e3dbp,mTbKWGVi,2020-0188,2020-05-08,11:06:14,11:23:17,NA,incomplete,5,shape,1,left,Blue_Circle_Grid_4.jpg,Green_Circle_Dots_3.jpg,Red_Star_Grid_2.jpg,left,741,true,NA,NA,NA,NA,NA,NA,NA,NA,true
mTbKWGVi,3en4yvuovf59wipgxxflzhxwdchjxp,3lep4mgt3kdr3dkh976uw67i8e3dbp,mTbKWGVi,2020-0188,2020-05-08,11:06:14,11:23:17,NA,incomplete,6,shape,1,left,Purple_Circle_Dots_4.jpg,Green_Circle_Stripes_3.jpg,Red_Plus_Dots_1.jpg,left,682,true,NA,NA,NA,NA,NA,NA,NA,NA,true
mTbKWGVi,3en4yvuovf59wipgxxflzhxwdchjxp,3lep4mgt3kdr3dkh976uw67i8e3dbp,mTbKWGVi,2020-0188,2020-05-08,11:06:14,11:23:17,NA,incomplete,7,shape,1,left,Blue_Plus_Chess_2.jpg,Red_Plus_Dots_3.jpg,Purple_Circle_Chess_1.jpg,left,736,true,NA,NA,NA,NA,NA,NA,NA,NA,true
mTbKWGVi,3en4yvuovf59wipgxxflzhxwdchjxp,3lep4mgt3kdr3dkh976uw67i8e3dbp,mTbKWGVi,2020-0188,2020-05-08,11:06:14,11:23:17,NA,incomplete,8,shape,1,right,Purple_Plus_Stripes_4.jpg,Green_Circle_Stripes_2.jpg,Red_Plus_Grid_1.jpg,right,717,true,NA,NA,NA,NA,NA,NA,NA,NA,true
mTbKWGVi,3en4yvuovf59wipgxxflzhxwdchjxp,3lep4mgt3kdr3dkh976uw67i8e3dbp,mTbKWGVi,2020-0188,2020-05-08,11:06:14,11:23:17,NA,incomplete,9,shape,1,left,Green_Triangle_Grid_2.jpg,Red_Triangle_Stripes_3.jpg,Blue_Star_Grid_4.jpg,left,564,true,NA,NA,NA,NA,NA,NA,NA,NA,true
mTbKWGVi,3en4yvuovf59wipgxxflzhxwdchjxp,3lep4mgt3kdr3dkh976uw67i8e3dbp,mTbKWGVi,2020-0188,2020-05-08,11:06:14,11:23:17,NA,incomplete,10,shape,1,left,Blue_Circle_Dots_2.jpg,Green_Circle_Stripes_3.jpg,Purple_Triangle_Dots_1.jpg,left,672,true,NA,NA,NA,NA,NA,NA,NA,NA,true
mTbKWGVi,3en4yvuovf59wipgxxflzhxwdchjxp,3lep4mgt3kdr3dkh976uw67i8e3dbp,mTbKWGVi,2020-0188,2020-05-08,11:06:14,11:23:17,NA,incomplete,11,shape,1,right,Red_Circle_Stripes_3.jpg,Green_Triangle_Stripes_2.jpg,Blue_Circle_Grid_1.jpg,right,629,true,NA,NA,NA,NA,NA,NA,NA,NA,true
mTbKWGVi,3en4yvuovf59wipgxxflzhxwdchjxp,3lep4mgt3kdr3dkh976uw67i8e3dbp,mTbKWGVi,2020-0188,2020-05-08,11:06:14,11:23:17,NA,incomplete,12,shape,1,left,Red_Triangle_Stripes_2.jpg,Blue_Triangle_Dots_1.jpg,Green_Circle_Stripes_4.jpg,left,652,true,NA,NA,NA,NA,NA,NA,NA,NA,true
mTbKWGVi,3en4yvuovf59wipgxxflzhxwdchjxp,3lep4mgt3kdr3dkh976uw67i8e3dbp,mTbKWGVi,2020-0188,2020-05-08,11:06:14,11:23:17,NA,incomplete,13,shape,0,left,Blue_Star_Dots_3.jpg,Green_Star_Stripes_2.jpg,Red_Triangle_Dots_1.jpg,left,719,true,NA,NA,NA,NA,NA,NA,NA,NA,true
mTbKWGVi,3en4yvuovf59wipgxxflzhxwdchjxp,3lep4mgt3kdr3dkh976uw67i8e3dbp,mTbKWGVi,2020-0188,2020-05-08,11:06:14,11:23:17,NA,incomplete,14,shape,1,right,Blue_Plus_Chess_2.jpg,Red_Circle_Chess_4.jpg,Purple_Plus_Grid_1.jpg,right,863,true,NA,NA,NA,NA,NA,NA,NA,NA,true
mTbKWGVi,3en4yvuovf59wipgxxflzhxwdchjxp,3lep4mgt3kdr3dkh976uw67i8e3dbp,mTbKWGVi,2020-0188,2020-05-08,11:06:14,11:23:17,NA,incomplete,15,shape,1,right,Blue_Triangle_Grid_3.jpg,Purple_Plus_Grid_2.jpg,Red_Triangle_Stripes_1.jpg,right,846,true,NA,NA,NA,NA,NA,NA,NA,NA,true
mTbKWGVi,3en4yvuovf59wipgxxflzhxwdchjxp,3lep4mgt3kdr3dkh976uw67i8e3dbp,mTbKWGVi,2020-0188,2020-05-08,11:06:14,11:23:17,NA,incomplete,16,shape,1,left,Blue_Star_Chess_2.jpg,Green_Star_Stripes_4.jpg,Red_Triangle_Chess_1.jpg,left,633,true,NA,NA,NA,NA,NA,NA,NA,NA,true
mTbKWGVi,3en4yvuovf59wipgxxflzhxwdchjxp,3lep4mgt3kdr3dkh976uw67i8e3dbp,mTbKWGVi,2020-0188,2020-05-08,11:06:14,11:23:17,NA,incomplete,17,shape,1,left,Red_Circle_Stripes_4.jpg,Blue_Circle_Chess_3.jpg,Green_Plus_Stripes_2.jpg,left,606,true,NA,NA,NA,NA,NA,NA,NA,NA,true
mTbKWGVi,3en4yvuovf59wipgxxflzhxwdchjxp,3lep4mgt3kdr3dkh976uw67i8e3dbp,mTbKWGVi,2020-0188,2020-05-08,11:06:14,11:23:17,NA,incomplete,18,shape,1,right,Purple_Triangle_Stripes_2.jpg,Red_Plus_Stripes_4.jpg,Green_Triangle_Grid_1.jpg,right,658,true,NA,NA,NA,NA,NA,NA,NA,NA,true
mTbKWGVi,3en4yvuovf59wipgxxflzhxwdchjxp,3lep4mgt3kdr3dkh976uw67i8e3dbp,mTbKWGVi,2020-0188,2020-05-08,11:06:14,11:23:17,NA,incomplete,19,shape,0,right,Red_Star_Chess_4.jpg,Purple_Circle_Chess_1.jpg,Green_Star_Grid_2.jpg,right,675,true,NA,NA,NA,NA,NA,NA,NA,NA,true
mTbKWGVi,3en4yvuovf59wipgxxflzhxwdchjxp,3lep4mgt3kdr3dkh976uw67i8e3dbp,mTbKWGVi,2020-0188,2020-05-08,11:06:14,11:23:17,NA,incomplete,20,filling,1,right,Purple_Circle_Grid_2.jpg,Green_Circle_Stripes_4.jpg,Red_Plus_Grid_1.jpg,left,601,false,NA,NA,NA,NA,NA,NA,NA,NA,true
mTbKWGVi,3en4yvuovf59wipgxxflzhxwdchjxp,3lep4mgt3kdr3dkh976uw67i8e3dbp,mTbKWGVi,2020-0188,2020-05-08,11:06:14,11:23:17,NA,incomplete,21,filling,0,left,Purple_Star_Stripes_3.jpg,Red_Plus_Stripes_4.jpg,Blue_Star_Chess_2.jpg,left,925,true,NA,NA,NA,NA,NA,NA,NA,NA,true
mTbKWGVi,3en4yvuovf59wipgxxflzhxwdchjxp,3lep4mgt3kdr3dkh976uw67i8e3dbp,mTbKWGVi,2020-0188,2020-05-08,11:06:14,11:23:17,NA,incomplete,22,filling,1,right,Purple_Plus_Dots_2.jpg,Blue_Plus_Chess_4.jpg,Red_Triangle_Dots_3.jpg,left,705,false,NA,NA,NA,NA,NA,NA,NA,NA,true
mTbKWGVi,3en4yvuovf59wipgxxflzhxwdchjxp,3lep4mgt3kdr3dkh976uw67i8e3dbp,mTbKWGVi,2020-0188,2020-05-08,11:06:14,11:23:17,NA,incomplete,23,filling,1,right,Red_Circle_Dots_4.jpg,Green_Circle_Chess_1.jpg,Purple_Star_Dots_2.jpg,right,1102,true,NA,NA,NA,NA,NA,NA,NA,NA,true
mTbKWGVi,3en4yvuovf59wipgxxflzhxwdchjxp,3lep4mgt3kdr3dkh976uw67i8e3dbp,mTbKWGVi,2020-0188,2020-05-08,11:06:14,11:23:17,NA,incomplete,24,filling,1,right,Blue_Plus_Grid_4.jpg,Green_Plus_Dots_1.jpg,Purple_Circle_Grid_2.jpg,right,989,true,NA,NA,NA,NA,NA,NA,NA,NA,true
mTbKWGVi,3en4yvuovf59wipgxxflzhxwdchjxp,3lep4mgt3kdr3dkh976uw67i8e3dbp,mTbKWGVi,2020-0188,2020-05-08,11:06:14,11:23:17,NA,incomplete,25,filling,0,right,Red_Plus_Dots_4.jpg,Purple_Plus_Chess_2.jpg,Green_Triangle_Dots_3.jpg,left,811,false,NA,NA,NA,NA,NA,NA,NA,NA,true
mTbKWGVi,3en4yvuovf59wipgxxflzhxwdchjxp,3lep4mgt3kdr3dkh976uw67i8e3dbp,mTbKWGVi,2020-0188,2020-05-08,11:06:14,11:23:17,NA,incomplete,26,filling,1,left,Red_Circle_Chess_4.jpg,Purple_Triangle_Chess_2.jpg,Green_Circle_Dots_1.jpg,left,848,true,NA,NA,NA,NA,NA,NA,NA,NA,true
mTbKWGVi,3en4yvuovf59wipgxxflzhxwdchjxp,3lep4mgt3kdr3dkh976uw67i8e3dbp,mTbKWGVi,2020-0188,2020-05-08,11:06:14,11:23:17,NA,incomplete,27,filling,1,right,Purple_Triangle_Stripes_2.jpg,Blue_Triangle_Chess_1.jpg,Green_Circle_Stripes_3.jpg,right,855,true,NA,NA,NA,NA,NA,NA,NA,NA,true
mTbKWGVi,3en4yvuovf59wipgxxflzhxwdchjxp,3lep4mgt3kdr3dkh976uw67i8e3dbp,mTbKWGVi,2020-0188,2020-05-08,11:06:14,11:23:17,NA,incomplete,28,filling,1,left,Red_Circle_Chess_3.jpg,Blue_Triangle_Chess_2.jpg,Green_Circle_Grid_1.jpg,left,800,true,NA,NA,NA,NA,NA,NA,NA,NA,true
mTbKWGVi,3en4yvuovf59wipgxxflzhxwdchjxp,3lep4mgt3kdr3dkh976uw67i8e3dbp,mTbKWGVi,2020-0188,2020-05-08,11:06:14,11:23:17,NA,incomplete,29,filling,0,left,Green_Triangle_Grid_3.jpg,Red_Circle_Grid_2.jpg,Blue_Triangle_Stripes_1.jpg,left,998,true,NA,NA,NA,NA,NA,NA,NA,NA,true
mTbKWGVi,3en4yvuovf59wipgxxflzhxwdchjxp,3lep4mgt3kdr3dkh976uw67i8e3dbp,mTbKWGVi,2020-0188,2020-05-08,11:06:14,11:23:17,NA,incomplete,30,filling,0,right,Green_Circle_Dots_1.jpg,Purple_Circle_Chess_3.jpg,Blue_Plus_Dots_2.jpg,right,992,true,NA,NA,NA,NA,NA,NA,NA,NA,true
mTbKWGVi,3en4yvuovf59wipgxxflzhxwdchjxp,3lep4mgt3kdr3dkh976uw67i8e3dbp,mTbKWGVi,2020-0188,2020-05-08,11:06:14,11:23:17,NA,incomplete,31,filling,1,right,Red_Triangle_Stripes_4.jpg,Green_Triangle_Grid_1.jpg,Purple_Circle_Stripes_3.jpg,right,957,true,NA,NA,NA,NA,NA,NA,NA,NA,true
mTbKWGVi,3en4yvuovf59wipgxxflzhxwdchjxp,3lep4mgt3kdr3dkh976uw67i8e3dbp,mTbKWGVi,2020-0188,2020-05-08,11:06:14,11:23:17,NA,incomplete,32,filling,1,left,Red_Triangle_Stripes_4.jpg,Blue_Plus_Stripes_3.jpg,Green_Triangle_Grid_1.jpg,left,837,true,NA,NA,NA,NA,NA,NA,NA,NA,true
mTbKWGVi,3en4yvuovf59wipgxxflzhxwdchjxp,3lep4mgt3kdr3dkh976uw67i8e3dbp,mTbKWGVi,2020-0188,2020-05-08,11:06:14,11:23:17,NA,incomplete,33,filling,0,left,Blue_Plus_Chess_4.jpg,Red_Circle_Chess_2.jpg,Purple_Plus_Dots_1.jpg,left,840,true,NA,NA,NA,NA,NA,NA,NA,NA,true
mTbKWGVi,3en4yvuovf59wipgxxflzhxwdchjxp,3lep4mgt3kdr3dkh976uw67i8e3dbp,mTbKWGVi,2020-0188,2020-05-08,11:06:14,11:23:17,NA,incomplete,34,filling,1,left,Blue_Circle_Dots_4.jpg,Red_Plus_Dots_3.jpg,Purple_Circle_Chess_1.jpg,left,934,true,NA,NA,NA,NA,NA,NA,NA,NA,true
mTbKWGVi,3en4yvuovf59wipgxxflzhxwdchjxp,3lep4mgt3kdr3dkh976uw67i8e3dbp,mTbKWGVi,2020-0188,2020-05-08,11:06:14,11:23:17,NA,incomplete,35,filling,1,left,Green_Triangle_Chess_3.jpg,Blue_Star_Chess_1.jpg,Purple_Triangle_Dots_2.jpg,left,929,true,NA,NA,NA,NA,NA,NA,NA,NA,true
mTbKWGVi,3en4yvuovf59wipgxxflzhxwdchjxp,3lep4mgt3kdr3dkh976uw67i8e3dbp,mTbKWGVi,2020-0188,2020-05-08,11:06:14,11:23:17,NA,incomplete,36,filling,1,right,Purple_Circle_Grid_1.jpg,Red_Circle_Chess_3.jpg,Green_Star_Grid_4.jpg,right,1131,true,NA,NA,NA,NA,NA,NA,NA,NA,true
mTbKWGVi,3en4yvuovf59wipgxxflzhxwdchjxp,3lep4mgt3kdr3dkh976uw67i8e3dbp,mTbKWGVi,2020-0188,2020-05-08,11:06:14,11:23:17,NA,incomplete,37,filling,1,left,Blue_Triangle_Dots_1.jpg,Green_Star_Dots_2.jpg,Red_Triangle_Grid_3.jpg,left,908,true,NA,NA,NA,NA,NA,NA,NA,NA,true
mTbKWGVi,3en4yvuovf59wipgxxflzhxwdchjxp,3lep4mgt3kdr3dkh976uw67i8e3dbp,mTbKWGVi,2020-0188,2020-05-08,11:06:14,11:23:17,NA,incomplete,38,filling,1,left,Blue_Star_Chess_2.jpg,Red_Triangle_Chess_3.jpg,Green_Star_Dots_1.jpg,left,722,true,NA,NA,NA,NA,NA,NA,NA,NA,true
mTbKWGVi,3en4yvuovf59wipgxxflzhxwdchjxp,3lep4mgt3kdr3dkh976uw67i8e3dbp,mTbKWGVi,2020-0188,2020-05-08,11:06:14,11:23:17,NA,incomplete,39,filling,1,left,Purple_Plus_Dots_3.jpg,Green_Triangle_Dots_2.jpg,Red_Plus_Chess_1.jpg,left,890,true,NA,NA,NA,NA,NA,NA,NA,NA,true
mTbKWGVi,3en4yvuovf59wipgxxflzhxwdchjxp,3lep4mgt3kdr3dkh976uw67i8e3dbp,mTbKWGVi,2020-0188,2020-05-08,11:06:14,11:23:17,NA,incomplete,0,shape,0,left,Blue_Star_Stripes_4.jpg,Green_Star_Grid_3.jpg,Red_Triangle_Stripes_2.jpg,left,894,true,high,NA,NA,NA,NA,NA,NA,NA,false
mTbKWGVi,3en4yvuovf59wipgxxflzhxwdchjxp,3lep4mgt3kdr3dkh976uw67i8e3dbp,mTbKWGVi,2020-0188,2020-05-08,11:06:14,11:23:17,NA,incomplete,1,shape,0,right,Green_Circle_Dots_4.jpg,Red_Plus_Dots_1.jpg,Blue_Circle_Chess_3.jpg,right,605,true,high,NA,NA,NA,NA,NA,NA,NA,false
mTbKWGVi,3en4yvuovf59wipgxxflzhxwdchjxp,3lep4mgt3kdr3dkh976uw67i8e3dbp,mTbKWGVi,2020-0188,2020-05-08,11:06:14,11:23:17,NA,incomplete,2,shape,1,right,Red_Star_Dots_3.jpg,Blue_Triangle_Dots_4.jpg,Green_Star_Chess_1.jpg,left,842,false,high,NA,NA,NA,NA,NA,NA,NA,false
mTbKWGVi,3en4yvuovf59wipgxxflzhxwdchjxp,3lep4mgt3kdr3dkh976uw67i8e3dbp,mTbKWGVi,2020-0188,2020-05-08,11:06:14,11:23:17,NA,incomplete,3,shape,1,left,Green_Plus_Stripes_1.jpg,Blue_Plus_Grid_4.jpg,Purple_Star_Stripes_3.jpg,left,784,true,high,NA,NA,NA,NA,NA,NA,NA,false
mTbKWGVi,3en4yvuovf59wipgxxflzhxwdchjxp,3lep4mgt3kdr3dkh976uw67i8e3dbp,mTbKWGVi,2020-0188,2020-05-08,11:06:14,11:23:17,NA,incomplete,4,shape,1,left,Purple_Plus_Stripes_3.jpg,Blue_Plus_Grid_2.jpg,Green_Circle_Stripes_1.jpg,left,780,true,high,NA,NA,NA,NA,NA,NA,NA,false
mTbKWGVi,3en4yvuovf59wipgxxflzhxwdchjxp,3lep4mgt3kdr3dkh976uw67i8e3dbp,mTbKWGVi,2020-0188,2020-05-08,11:06:14,11:23:17,NA,incomplete,5,shape,1,right,Purple_Star_Stripes_1.jpg,Blue_Circle_Stripes_3.jpg,Green_Star_Grid_4.jpg,right,585,true,high,NA,NA,NA,NA,NA,NA,NA,false
mTbKWGVi,3en4yvuovf59wipgxxflzhxwdchjxp,3lep4mgt3kdr3dkh976uw67i8e3dbp,mTbKWGVi,2020-0188,2020-05-08,11:06:14,11:23:17,NA,incomplete,6,shape,1,right,Red_Plus_Stripes_2.jpg,Green_Star_Stripes_4.jpg,Purple_Plus_Dots_1.jpg,right,854,true,high,NA,NA,NA,NA,NA,NA,NA,false
mTbKWGVi,3en4yvuovf59wipgxxflzhxwdchjxp,3lep4mgt3kdr3dkh976uw67i8e3dbp,mTbKWGVi,2020-0188,2020-05-08,11:06:14,11:23:17,NA,incomplete,7,shape,1,right,Red_Circle_Stripes_3.jpg,Purple_Triangle_Stripes_4.jpg,Blue_Circle_Grid_1.jpg,right,657,true,high,NA,NA,NA,NA,NA,NA,NA,false
mTbKWGVi,3en4yvuovf59wipgxxflzhxwdchjxp,3lep4mgt3kdr3dkh976uw67i8e3dbp,mTbKWGVi,2020-0188,2020-05-08,11:06:14,11:23:17,NA,incomplete,8,shape,1,left,Purple_Plus_Dots_4.jpg,Blue_Plus_Stripes_1.jpg,Green_Star_Dots_2.jpg,left,782,true,high,NA,NA,NA,NA,NA,NA,NA,false
mTbKWGVi,3en4yvuovf59wipgxxflzhxwdchjxp,3lep4mgt3kdr3dkh976uw67i8e3dbp,mTbKWGVi,2020-0188,2020-05-08,11:06:14,11:23:17,NA,incomplete,9,shape,0,right,Purple_Circle_Dots_1.jpg,Red_Triangle_Dots_2.jpg,Green_Circle_Stripes_3.jpg,right,557,true,high,NA,NA,NA,NA,NA,NA,NA,false
mTbKWGVi,3en4yvuovf59wipgxxflzhxwdchjxp,3lep4mgt3kdr3dkh976uw67i8e3dbp,mTbKWGVi,2020-0188,2020-05-08,11:06:14,11:23:17,NA,incomplete,10,filling,0,right,Green_Circle_Chess_3.jpg,Blue_Circle_Dots_4.jpg,Red_Triangle_Chess_2.jpg,left,689,false,high,NA,NA,NA,NA,NA,NA,NA,false
mTbKWGVi,3en4yvuovf59wipgxxflzhxwdchjxp,3lep4mgt3kdr3dkh976uw67i8e3dbp,mTbKWGVi,2020-0188,2020-05-08,11:06:14,11:23:17,NA,incomplete,11,filling,1,left,Purple_Star_Chess_4.jpg,Red_Circle_Chess_2.jpg,Green_Star_Stripes_1.jpg,right,655,false,high,NA,NA,NA,NA,NA,NA,NA,false
mTbKWGVi,3en4yvuovf59wipgxxflzhxwdchjxp,3lep4mgt3kdr3dkh976uw67i8e3dbp,mTbKWGVi,2020-0188,2020-05-08,11:06:14,11:23:17,NA,incomplete,12,filling,1,right,Purple_Star_Grid_3.jpg,Green_Star_Stripes_4.jpg,Red_Triangle_Grid_2.jpg,left,636,false,high,NA,NA,NA,NA,NA,NA,NA,false
mTbKWGVi,3en4yvuovf59wipgxxflzhxwdchjxp,3lep4mgt3kdr3dkh976uw67i8e3dbp,mTbKWGVi,2020-0188,2020-05-08,11:06:14,11:23:17,NA,incomplete,13,filling,1,left,Red_Triangle_Dots_1.jpg,Purple_Circle_Dots_4.jpg,Green_Triangle_Stripes_3.jpg,left,801,true,high,NA,NA,NA,NA,NA,NA,NA,false
mTbKWGVi,3en4yvuovf59wipgxxflzhxwdchjxp,3lep4mgt3kdr3dkh976uw67i8e3dbp,mTbKWGVi,2020-0188,2020-05-08,11:06:14,11:23:17,NA,incomplete,14,filling,1,right,Green_Circle_Dots_4.jpg,Red_Circle_Stripes_3.jpg,Blue_Plus_Dots_1.jpg,right,771,true,high,NA,NA,NA,NA,NA,NA,NA,false
mTbKWGVi,3en4yvuovf59wipgxxflzhxwdchjxp,3lep4mgt3kdr3dkh976uw67i8e3dbp,mTbKWGVi,2020-0188,2020-05-08,11:06:14,11:23:17,NA,incomplete,15,filling,1,left,Green_Star_Chess_3.jpg,Purple_Circle_Chess_2.jpg,Red_Star_Stripes_4.jpg,left,810,true,high,NA,NA,NA,NA,NA,NA,NA,false
mTbKWGVi,3en4yvuovf59wipgxxflzhxwdchjxp,3lep4mgt3kdr3dkh976uw67i8e3dbp,mTbKWGVi,2020-0188,2020-05-08,11:06:14,11:23:17,NA,incomplete,16,filling,0,left,Red_Plus_Grid_4.jpg,Green_Star_Grid_3.jpg,Purple_Plus_Stripes_2.jpg,left,945,true,high,NA,NA,NA,NA,NA,NA,NA,false
mTbKWGVi,3en4yvuovf59wipgxxflzhxwdchjxp,3lep4mgt3kdr3dkh976uw67i8e3dbp,mTbKWGVi,2020-0188,2020-05-08,11:06:14,11:23:17,NA,incomplete,17,filling,1,left,Purple_Star_Grid_2.jpg,Blue_Circle_Grid_3.jpg,Green_Star_Chess_4.jpg,left,791,true,high,NA,NA,NA,NA,NA,NA,NA,false
mTbKWGVi,3en4yvuovf59wipgxxflzhxwdchjxp,3lep4mgt3kdr3dkh976uw67i8e3dbp,mTbKWGVi,2020-0188,2020-05-08,11:06:14,11:23:17,NA,incomplete,18,filling,1,left,Red_Star_Chess_3.jpg,Blue_Triangle_Chess_4.jpg,Purple_Star_Stripes_2.jpg,left,798,true,high,NA,NA,NA,NA,NA,NA,NA,false
mTbKWGVi,3en4yvuovf59wipgxxflzhxwdchjxp,3lep4mgt3kdr3dkh976uw67i8e3dbp,mTbKWGVi,2020-0188,2020-05-08,11:06:14,11:23:17,NA,incomplete,19,filling,1,right,Blue_Circle_Dots_4.jpg,Red_Circle_Chess_2.jpg,Green_Star_Dots_1.jpg,right,820,true,high,NA,NA,NA,NA,NA,NA,NA,false
mTbKWGVi,3en4yvuovf59wipgxxflzhxwdchjxp,3lep4mgt3kdr3dkh976uw67i8e3dbp,mTbKWGVi,2020-0188,2020-05-08,11:06:14,11:23:17,NA,incomplete,20,shape,1,right,Purple_Circle_Chess_2.jpg,Red_Star_Chess_3.jpg,Blue_Circle_Grid_4.jpg,left,784,false,high,NA,NA,NA,NA,NA,NA,NA,false
mTbKWGVi,3en4yvuovf59wipgxxflzhxwdchjxp,3lep4mgt3kdr3dkh976uw67i8e3dbp,mTbKWGVi,2020-0188,2020-05-08,11:06:14,11:23:17,NA,incomplete,21,shape,1,left,Purple_Plus_Grid_1.jpg,Blue_Plus_Chess_2.jpg,Red_Circle_Grid_3.jpg,right,816,false,high,NA,NA,NA,NA,NA,NA,NA,false
mTbKWGVi,3en4yvuovf59wipgxxflzhxwdchjxp,3lep4mgt3kdr3dkh976uw67i8e3dbp,mTbKWGVi,2020-0188,2020-05-08,11:06:14,11:23:17,NA,incomplete,22,shape,1,left,Green_Star_Stripes_2.jpg,Blue_Star_Grid_4.jpg,Red_Circle_Stripes_1.jpg,left,626,true,high,NA,NA,NA,NA,NA,NA,NA,false
mTbKWGVi,3en4yvuovf59wipgxxflzhxwdchjxp,3lep4mgt3kdr3dkh976uw67i8e3dbp,mTbKWGVi,2020-0188,2020-05-08,11:06:14,11:23:17,NA,incomplete,23,shape,1,right,Red_Triangle_Stripes_1.jpg,Blue_Circle_Stripes_4.jpg,Green_Triangle_Dots_2.jpg,right,724,true,high,NA,NA,NA,NA,NA,NA,NA,false
mTbKWGVi,3en4yvuovf59wipgxxflzhxwdchjxp,3lep4mgt3kdr3dkh976uw67i8e3dbp,mTbKWGVi,2020-0188,2020-05-08,11:06:14,11:23:17,NA,incomplete,24,shape,1,right,Blue_Triangle_Dots_3.jpg,Red_Star_Dots_4.jpg,Purple_Triangle_Grid_2.jpg,right,799,true,high,NA,NA,NA,NA,NA,NA,NA,false
mTbKWGVi,3en4yvuovf59wipgxxflzhxwdchjxp,3lep4mgt3kdr3dkh976uw67i8e3dbp,mTbKWGVi,2020-0188,2020-05-08,11:06:14,11:23:17,NA,incomplete,25,shape,1,right,Red_Star_Dots_1.jpg,Blue_Circle_Dots_2.jpg,Purple_Star_Stripes_3.jpg,right,599,true,high,NA,NA,NA,NA,NA,NA,NA,false
mTbKWGVi,3en4yvuovf59wipgxxflzhxwdchjxp,3lep4mgt3kdr3dkh976uw67i8e3dbp,mTbKWGVi,2020-0188,2020-05-08,11:06:14,11:23:17,NA,incomplete,26,shape,1,left,Blue_Circle_Stripes_3.jpg,Green_Circle_Grid_2.jpg,Purple_Star_Stripes_4.jpg,left,567,true,high,NA,NA,NA,NA,NA,NA,NA,false
mTbKWGVi,3en4yvuovf59wipgxxflzhxwdchjxp,3lep4mgt3kdr3dkh976uw67i8e3dbp,mTbKWGVi,2020-0188,2020-05-08,11:06:14,11:23:17,NA,incomplete,27,shape,1,right,Blue_Triangle_Chess_1.jpg,Purple_Plus_Chess_4.jpg,Green_Triangle_Dots_3.jpg,right,613,true,high,NA,NA,NA,NA,NA,NA,NA,false
mTbKWGVi,3en4yvuovf59wipgxxflzhxwdchjxp,3lep4mgt3kdr3dkh976uw67i8e3dbp,mTbKWGVi,2020-0188,2020-05-08,11:06:14,11:23:17,NA,incomplete,28,shape,1,right,Purple_Star_Dots_2.jpg,Green_Circle_Dots_1.jpg,Blue_Star_Grid_4.jpg,right,713,true,high,NA,NA,NA,NA,NA,NA,NA,false
mTbKWGVi,3en4yvuovf59wipgxxflzhxwdchjxp,3lep4mgt3kdr3dkh976uw67i8e3dbp,mTbKWGVi,2020-0188,2020-05-08,11:06:14,11:23:17,NA,incomplete,29,shape,0,left,Red_Circle_Stripes_2.jpg,Purple_Circle_Chess_4.jpg,Blue_Plus_Stripes_1.jpg,left,598,true,high,NA,NA,NA,NA,NA,NA,NA,false
mTbKWGVi,3en4yvuovf59wipgxxflzhxwdchjxp,3lep4mgt3kdr3dkh976uw67i8e3dbp,mTbKWGVi,2020-0188,2020-05-08,11:06:14,11:23:17,NA,incomplete,30,filling,1,left,Purple_Star_Chess_3.jpg,Green_Triangle_Chess_2.jpg,Red_Star_Grid_1.jpg,right,806,false,high,NA,NA,NA,NA,NA,NA,NA,false
mTbKWGVi,3en4yvuovf59wipgxxflzhxwdchjxp,3lep4mgt3kdr3dkh976uw67i8e3dbp,mTbKWGVi,2020-0188,2020-05-08,11:06:14,11:23:17,NA,incomplete,31,filling,1,left,Red_Circle_Dots_4.jpg,Blue_Star_Dots_1.jpg,Purple_Circle_Stripes_3.jpg,right,590,false,high,NA,NA,NA,NA,NA,NA,NA,false
mTbKWGVi,3en4yvuovf59wipgxxflzhxwdchjxp,3lep4mgt3kdr3dkh976uw67i8e3dbp,mTbKWGVi,2020-0188,2020-05-08,11:06:14,11:23:17,NA,incomplete,32,filling,1,right,Green_Star_Grid_3.jpg,Blue_Star_Dots_1.jpg,Purple_Triangle_Grid_4.jpg,right,869,true,high,NA,NA,NA,NA,NA,NA,NA,false
mTbKWGVi,3en4yvuovf59wipgxxflzhxwdchjxp,3lep4mgt3kdr3dkh976uw67i8e3dbp,mTbKWGVi,2020-0188,2020-05-08,11:06:14,11:23:17,NA,incomplete,33,filling,1,left,Green_Plus_Grid_1.jpg,Purple_Star_Grid_2.jpg,Red_Plus_Chess_4.jpg,left,836,true,high,NA,NA,NA,NA,NA,NA,NA,false
mTbKWGVi,3en4yvuovf59wipgxxflzhxwdchjxp,3lep4mgt3kdr3dkh976uw67i8e3dbp,mTbKWGVi,2020-0188,2020-05-08,11:06:14,11:23:17,NA,incomplete,34,filling,1,left,Red_Circle_Dots_3.jpg,Purple_Plus_Dots_1.jpg,Blue_Circle_Chess_4.jpg,left,923,true,high,NA,NA,NA,NA,NA,NA,NA,false
mTbKWGVi,3en4yvuovf59wipgxxflzhxwdchjxp,3lep4mgt3kdr3dkh976uw67i8e3dbp,mTbKWGVi,2020-0188,2020-05-08,11:06:14,11:23:17,NA,incomplete,35,filling,1,left,Purple_Star_Grid_2.jpg,Red_Plus_Grid_1.jpg,Blue_Star_Stripes_4.jpg,left,1022,true,high,NA,NA,NA,NA,NA,NA,NA,false
mTbKWGVi,3en4yvuovf59wipgxxflzhxwdchjxp,3lep4mgt3kdr3dkh976uw67i8e3dbp,mTbKWGVi,2020-0188,2020-05-08,11:06:14,11:23:17,NA,incomplete,36,filling,1,right,Green_Circle_Dots_1.jpg,Red_Circle_Stripes_2.jpg,Purple_Star_Dots_4.jpg,right,851,true,high,NA,NA,NA,NA,NA,NA,NA,false
mTbKWGVi,3en4yvuovf59wipgxxflzhxwdchjxp,3lep4mgt3kdr3dkh976uw67i8e3dbp,mTbKWGVi,2020-0188,2020-05-08,11:06:14,11:23:17,NA,incomplete,37,filling,1,right,Red_Circle_Stripes_3.jpg,Purple_Circle_Dots_2.jpg,Green_Triangle_Stripes_1.jpg,right,867,true,high,NA,NA,NA,NA,NA,NA,NA,false
mTbKWGVi,3en4yvuovf59wipgxxflzhxwdchjxp,3lep4mgt3kdr3dkh976uw67i8e3dbp,mTbKWGVi,2020-0188,2020-05-08,11:06:14,11:23:17,NA,incomplete,38,filling,1,right,Purple_Circle_Chess_4.jpg,Green_Circle_Dots_2.jpg,Red_Plus_Chess_3.jpg,right,941,true,high,NA,NA,NA,NA,NA,NA,NA,false
mTbKWGVi,3en4yvuovf59wipgxxflzhxwdchjxp,3lep4mgt3kdr3dkh976uw67i8e3dbp,mTbKWGVi,2020-0188,2020-05-08,11:06:14,11:23:17,NA,incomplete,39,filling,1,left,Red_Triangle_Stripes_4.jpg,Blue_Circle_Stripes_1.jpg,Green_Triangle_Grid_3.jpg,left,854,true,high,NA,NA,NA,NA,NA,NA,NA,false
mTbKWGVi,3en4yvuovf59wipgxxflzhxwdchjxp,3lep4mgt3kdr3dkh976uw67i8e3dbp,mTbKWGVi,2020-0188,2020-05-08,11:06:14,11:23:17,NA,incomplete,40,shape,1,right,Purple_Plus_Dots_2.jpg,Green_Circle_Dots_4.jpg,Red_Plus_Stripes_1.jpg,left,1022,false,high,NA,NA,NA,NA,NA,NA,NA,false
mTbKWGVi,3en4yvuovf59wipgxxflzhxwdchjxp,3lep4mgt3kdr3dkh976uw67i8e3dbp,mTbKWGVi,2020-0188,2020-05-08,11:06:14,11:23:17,NA,incomplete,41,shape,1,left,Green_Plus_Chess_1.jpg,Purple_Plus_Stripes_3.jpg,Blue_Circle_Chess_4.jpg,right,849,false,high,NA,NA,NA,NA,NA,NA,NA,false
mTbKWGVi,3en4yvuovf59wipgxxflzhxwdchjxp,3lep4mgt3kdr3dkh976uw67i8e3dbp,mTbKWGVi,2020-0188,2020-05-08,11:06:14,11:23:17,NA,incomplete,42,shape,1,left,Green_Plus_Grid_2.jpg,Blue_Plus_Stripes_3.jpg,Purple_Circle_Grid_4.jpg,left,745,true,high,NA,NA,NA,NA,NA,NA,NA,false
mTbKWGVi,3en4yvuovf59wipgxxflzhxwdchjxp,3lep4mgt3kdr3dkh976uw67i8e3dbp,mTbKWGVi,2020-0188,2020-05-08,11:06:14,11:23:17,NA,incomplete,43,shape,1,right,Purple_Circle_Grid_4.jpg,Blue_Plus_Grid_2.jpg,Green_Circle_Chess_3.jpg,right,622,true,high,NA,NA,NA,NA,NA,NA,NA,false
mTbKWGVi,3en4yvuovf59wipgxxflzhxwdchjxp,3lep4mgt3kdr3dkh976uw67i8e3dbp,mTbKWGVi,2020-0188,2020-05-08,11:06:14,11:23:17,NA,incomplete,44,shape,0,left,Red_Plus_Dots_1.jpg,Green_Plus_Stripes_4.jpg,Blue_Triangle_Dots_2.jpg,left,693,true,high,NA,NA,NA,NA,NA,NA,NA,false
mTbKWGVi,3en4yvuovf59wipgxxflzhxwdchjxp,3lep4mgt3kdr3dkh976uw67i8e3dbp,mTbKWGVi,2020-0188,2020-05-08,11:06:14,11:23:17,NA,incomplete,45,shape,1,left,Blue_Triangle_Dots_2.jpg,Green_Triangle_Chess_3.jpg,Red_Star_Dots_1.jpg,left,570,true,high,NA,NA,NA,NA,NA,NA,NA,false
mTbKWGVi,3en4yvuovf59wipgxxflzhxwdchjxp,3lep4mgt3kdr3dkh976uw67i8e3dbp,mTbKWGVi,2020-0188,2020-05-08,11:06:14,11:23:17,NA,incomplete,46,shape,0,right,Blue_Plus_Stripes_4.jpg,Purple_Triangle_Stripes_1.jpg,Green_Plus_Grid_3.jpg,right,556,true,high,NA,NA,NA,NA,NA,NA,NA,false
mTbKWGVi,3en4yvuovf59wipgxxflzhxwdchjxp,3lep4mgt3kdr3dkh976uw67i8e3dbp,mTbKWGVi,2020-0188,2020-05-08,11:06:14,11:23:17,NA,incomplete,47,shape,0,right,Green_Circle_Chess_2.jpg,Purple_Plus_Chess_3.jpg,Red_Circle_Grid_4.jpg,right,639,true,high,NA,NA,NA,NA,NA,NA,NA,false
mTbKWGVi,3en4yvuovf59wipgxxflzhxwdchjxp,3lep4mgt3kdr3dkh976uw67i8e3dbp,mTbKWGVi,2020-0188,2020-05-08,11:06:14,11:23:17,NA,incomplete,48,shape,1,left,Purple_Plus_Chess_3.jpg,Blue_Plus_Stripes_4.jpg,Green_Circle_Chess_2.jpg,left,629,true,high,NA,NA,NA,NA,NA,NA,NA,false
mTbKWGVi,3en4yvuovf59wipgxxflzhxwdchjxp,3lep4mgt3kdr3dkh976uw67i8e3dbp,mTbKWGVi,2020-0188,2020-05-08,11:06:14,11:23:17,NA,incomplete,49,shape,1,right,Green_Star_Stripes_2.jpg,Blue_Plus_Stripes_3.jpg,Purple_Star_Grid_4.jpg,right,643,true,high,NA,NA,NA,NA,NA,NA,NA,false
mTbKWGVi,3en4yvuovf59wipgxxflzhxwdchjxp,3lep4mgt3kdr3dkh976uw67i8e3dbp,mTbKWGVi,2020-0188,2020-05-08,11:06:14,11:23:17,NA,incomplete,50,filling,1,right,Green_Star_Stripes_2.jpg,Red_Star_Grid_4.jpg,Purple_Triangle_Stripes_1.jpg,left,602,false,high,NA,NA,NA,NA,NA,NA,NA,false
mTbKWGVi,3en4yvuovf59wipgxxflzhxwdchjxp,3lep4mgt3kdr3dkh976uw67i8e3dbp,mTbKWGVi,2020-0188,2020-05-08,11:06:14,11:23:17,NA,incomplete,51,filling,1,right,Purple_Triangle_Chess_3.jpg,Red_Triangle_Stripes_2.jpg,Green_Plus_Chess_1.jpg,left,644,false,high,NA,NA,NA,NA,NA,NA,NA,false
mTbKWGVi,3en4yvuovf59wipgxxflzhxwdchjxp,3lep4mgt3kdr3dkh976uw67i8e3dbp,mTbKWGVi,2020-0188,2020-05-08,11:06:14,11:23:17,NA,incomplete,52,filling,1,right,Green_Plus_Dots_4.jpg,Red_Plus_Chess_2.jpg,Blue_Star_Dots_3.jpg,right,968,true,high,NA,NA,NA,NA,NA,NA,NA,false
mTbKWGVi,3en4yvuovf59wipgxxflzhxwdchjxp,3lep4mgt3kdr3dkh976uw67i8e3dbp,mTbKWGVi,2020-0188,2020-05-08,11:06:14,11:23:17,NA,incomplete,53,filling,0,left,Green_Plus_Stripes_3.jpg,Purple_Circle_Stripes_2.jpg,Red_Plus_Chess_1.jpg,left,878,true,high,NA,NA,NA,NA,NA,NA,NA,false
mTbKWGVi,3en4yvuovf59wipgxxflzhxwdchjxp,3lep4mgt3kdr3dkh976uw67i8e3dbp,mTbKWGVi,2020-0188,2020-05-08,11:06:14,11:23:17,NA,incomplete,54,filling,1,right,Red_Circle_Grid_1.jpg,Purple_Circle_Chess_3.jpg,Blue_Star_Grid_2.jpg,left,690,false,high,NA,NA,NA,NA,NA,NA,NA,false
mTbKWGVi,3en4yvuovf59wipgxxflzhxwdchjxp,3lep4mgt3kdr3dkh976uw67i8e3dbp,mTbKWGVi,2020-0188,2020-05-08,11:06:14,11:23:17,NA,incomplete,55,filling,0,right,Purple_Plus_Stripes_3.jpg,Blue_Plus_Grid_4.jpg,Green_Star_Stripes_1.jpg,right,1085,true,high,NA,NA,NA,NA,NA,NA,NA,false
mTbKWGVi,3en4yvuovf59wipgxxflzhxwdchjxp,3lep4mgt3kdr3dkh976uw67i8e3dbp,mTbKWGVi,2020-0188,2020-05-08,11:06:14,11:23:17,NA,incomplete,56,filling,1,left,Green_Triangle_Grid_1.jpg,Red_Plus_Grid_4.jpg,Purple_Triangle_Dots_2.jpg,right,848,false,high,NA,NA,NA,NA,NA,NA,NA,false
mTbKWGVi,3en4yvuovf59wipgxxflzhxwdchjxp,3lep4mgt3kdr3dkh976uw67i8e3dbp,mTbKWGVi,2020-0188,2020-05-08,11:06:14,11:23:17,NA,incomplete,57,filling,1,right,Green_Triangle_Chess_4.jpg,Blue_Triangle_Stripes_3.jpg,Purple_Circle_Chess_2.jpg,right,948,true,high,NA,NA,NA,NA,NA,NA,NA,false
mTbKWGVi,3en4yvuovf59wipgxxflzhxwdchjxp,3lep4mgt3kdr3dkh976uw67i8e3dbp,mTbKWGVi,2020-0188,2020-05-08,11:06:14,11:23:17,NA,incomplete,58,filling,1,left,Red_Circle_Chess_4.jpg,Green_Triangle_Chess_1.jpg,Purple_Circle_Dots_3.jpg,left,836,true,high,NA,NA,NA,NA,NA,NA,NA,false
mTbKWGVi,3en4yvuovf59wipgxxflzhxwdchjxp,3lep4mgt3kdr3dkh976uw67i8e3dbp,mTbKWGVi,2020-0188,2020-05-08,11:06:14,11:23:17,NA,incomplete,59,filling,1,left,Red_Star_Stripes_1.jpg,Blue_Circle_Stripes_4.jpg,Green_Star_Chess_3.jpg,left,1001,true,high,NA,NA,NA,NA,NA,NA,NA,false
mTbKWGVi,3en4yvuovf59wipgxxflzhxwdchjxp,3lep4mgt3kdr3dkh976uw67i8e3dbp,mTbKWGVi,2020-0188,2020-05-08,11:06:14,11:23:17,NA,incomplete,60,shape,1,left,Blue_Triangle_Stripes_2.jpg,Green_Triangle_Dots_4.jpg,Purple_Circle_Stripes_3.jpg,right,782,false,high,NA,NA,NA,NA,NA,NA,NA,false
mTbKWGVi,3en4yvuovf59wipgxxflzhxwdchjxp,3lep4mgt3kdr3dkh976uw67i8e3dbp,mTbKWGVi,2020-0188,2020-05-08,11:06:14,11:23:17,NA,incomplete,61,shape,1,right,Purple_Star_Chess_1.jpg,Green_Triangle_Chess_3.jpg,Blue_Star_Dots_2.jpg,left,765,false,high,NA,NA,NA,NA,NA,NA,NA,false
mTbKWGVi,3en4yvuovf59wipgxxflzhxwdchjxp,3lep4mgt3kdr3dkh976uw67i8e3dbp,mTbKWGVi,2020-0188,2020-05-08,11:06:14,11:23:17,NA,incomplete,62,shape,0,right,Blue_Plus_Chess_3.jpg,Red_Triangle_Chess_1.jpg,Purple_Plus_Grid_2.jpg,left,1057,false,high,NA,NA,NA,NA,NA,NA,NA,false
mTbKWGVi,3en4yvuovf59wipgxxflzhxwdchjxp,3lep4mgt3kdr3dkh976uw67i8e3dbp,mTbKWGVi,2020-0188,2020-05-08,11:06:14,11:23:17,NA,incomplete,63,shape,1,right,Green_Triangle_Grid_1.jpg,Blue_Star_Grid_2.jpg,Red_Triangle_Chess_3.jpg,left,967,false,high,NA,NA,NA,NA,NA,NA,NA,false
mTbKWGVi,3en4yvuovf59wipgxxflzhxwdchjxp,3lep4mgt3kdr3dkh976uw67i8e3dbp,mTbKWGVi,2020-0188,2020-05-08,11:06:14,11:23:17,NA,incomplete,64,shape,1,right,Green_Plus_Dots_4.jpg,Purple_Star_Dots_1.jpg,Blue_Plus_Grid_3.jpg,right,731,true,high,NA,NA,NA,NA,NA,NA,NA,false
mTbKWGVi,3en4yvuovf59wipgxxflzhxwdchjxp,3lep4mgt3kdr3dkh976uw67i8e3dbp,mTbKWGVi,2020-0188,2020-05-08,11:06:14,11:23:17,NA,incomplete,65,shape,0,right,Purple_Triangle_Stripes_3.jpg,Red_Star_Stripes_2.jpg,Green_Triangle_Dots_1.jpg,right,776,true,high,NA,NA,NA,NA,NA,NA,NA,false
mTbKWGVi,3en4yvuovf59wipgxxflzhxwdchjxp,3lep4mgt3kdr3dkh976uw67i8e3dbp,mTbKWGVi,2020-0188,2020-05-08,11:06:14,11:23:17,NA,incomplete,66,shape,0,right,Red_Star_Chess_2.jpg,Blue_Circle_Chess_4.jpg,Purple_Star_Grid_3.jpg,right,676,true,high,NA,NA,NA,NA,NA,NA,NA,false
mTbKWGVi,3en4yvuovf59wipgxxflzhxwdchjxp,3lep4mgt3kdr3dkh976uw67i8e3dbp,mTbKWGVi,2020-0188,2020-05-08,11:06:14,11:23:17,NA,incomplete,67,shape,1,right,Purple_Star_Chess_1.jpg,Green_Circle_Chess_4.jpg,Red_Star_Dots_2.jpg,right,633,true,high,NA,NA,NA,NA,NA,NA,NA,false
mTbKWGVi,3en4yvuovf59wipgxxflzhxwdchjxp,3lep4mgt3kdr3dkh976uw67i8e3dbp,mTbKWGVi,2020-0188,2020-05-08,11:06:14,11:23:17,NA,incomplete,68,shape,1,left,Purple_Star_Dots_2.jpg,Blue_Star_Stripes_3.jpg,Green_Triangle_Dots_1.jpg,left,691,true,high,NA,NA,NA,NA,NA,NA,NA,false
mTbKWGVi,3en4yvuovf59wipgxxflzhxwdchjxp,3lep4mgt3kdr3dkh976uw67i8e3dbp,mTbKWGVi,2020-0188,2020-05-08,11:06:14,11:23:17,NA,incomplete,69,shape,1,left,Blue_Plus_Chess_4.jpg,Red_Plus_Grid_1.jpg,Green_Star_Chess_3.jpg,left,844,true,high,NA,NA,NA,NA,NA,NA,NA,false
mTbKWGVi,3en4yvuovf59wipgxxflzhxwdchjxp,3lep4mgt3kdr3dkh976uw67i8e3dbp,mTbKWGVi,2020-0188,2020-05-08,11:06:14,11:23:17,NA,incomplete,70,filling,1,right,Purple_Plus_Dots_3.jpg,Blue_Plus_Grid_4.jpg,Green_Circle_Dots_2.jpg,left,642,false,high,NA,NA,NA,NA,NA,NA,NA,false
mTbKWGVi,3en4yvuovf59wipgxxflzhxwdchjxp,3lep4mgt3kdr3dkh976uw67i8e3dbp,mTbKWGVi,2020-0188,2020-05-08,11:06:14,11:23:17,NA,incomplete,71,filling,0,right,Red_Plus_Grid_3.jpg,Green_Plus_Stripes_4.jpg,Purple_Star_Grid_1.jpg,left,721,false,high,NA,NA,NA,NA,NA,NA,NA,false
mTbKWGVi,3en4yvuovf59wipgxxflzhxwdchjxp,3lep4mgt3kdr3dkh976uw67i8e3dbp,mTbKWGVi,2020-0188,2020-05-08,11:06:14,11:23:17,NA,incomplete,72,filling,1,right,Blue_Plus_Grid_4.jpg,Red_Plus_Stripes_3.jpg,Green_Triangle_Grid_2.jpg,left,638,false,high,NA,NA,NA,NA,NA,NA,NA,false
mTbKWGVi,3en4yvuovf59wipgxxflzhxwdchjxp,3lep4mgt3kdr3dkh976uw67i8e3dbp,mTbKWGVi,2020-0188,2020-05-08,11:06:14,11:23:17,NA,incomplete,73,filling,1,left,Blue_Triangle_Dots_2.jpg,Red_Star_Dots_1.jpg,Green_Triangle_Grid_3.jpg,right,555,false,high,NA,NA,NA,NA,NA,NA,NA,false
mTbKWGVi,3en4yvuovf59wipgxxflzhxwdchjxp,3lep4mgt3kdr3dkh976uw67i8e3dbp,mTbKWGVi,2020-0188,2020-05-08,11:06:14,11:23:17,NA,incomplete,74,filling,1,left,Blue_Triangle_Chess_1.jpg,Purple_Plus_Chess_2.jpg,Green_Triangle_Dots_3.jpg,right,565,false,high,NA,NA,NA,NA,NA,NA,NA,false
mTbKWGVi,3en4yvuovf59wipgxxflzhxwdchjxp,3lep4mgt3kdr3dkh976uw67i8e3dbp,mTbKWGVi,2020-0188,2020-05-08,11:06:14,11:23:17,NA,incomplete,75,filling,0,left,Purple_Star_Stripes_4.jpg,Red_Plus_Stripes_1.jpg,Green_Star_Chess_3.jpg,right,734,false,high,NA,NA,NA,NA,NA,NA,NA,false
mTbKWGVi,3en4yvuovf59wipgxxflzhxwdchjxp,3lep4mgt3kdr3dkh976uw67i8e3dbp,mTbKWGVi,2020-0188,2020-05-08,11:06:14,11:23:17,NA,incomplete,76,filling,1,left,Red_Triangle_Stripes_1.jpg,Green_Plus_Stripes_2.jpg,Blue_Triangle_Dots_4.jpg,right,642,false,high,NA,NA,NA,NA,NA,NA,NA,false
mTbKWGVi,3en4yvuovf59wipgxxflzhxwdchjxp,3lep4mgt3kdr3dkh976uw67i8e3dbp,mTbKWGVi,2020-0188,2020-05-08,11:06:14,11:23:17,NA,incomplete,77,filling,1,left,Red_Circle_Grid_1.jpg,Purple_Triangle_Grid_4.jpg,Blue_Circle_Dots_2.jpg,left,728,true,high,NA,NA,NA,NA,NA,NA,NA,false
mTbKWGVi,3en4yvuovf59wipgxxflzhxwdchjxp,3lep4mgt3kdr3dkh976uw67i8e3dbp,mTbKWGVi,2020-0188,2020-05-08,11:06:14,11:23:17,NA,incomplete,78,filling,1,left,Green_Plus_Stripes_1.jpg,Blue_Star_Stripes_2.jpg,Purple_Plus_Dots_3.jpg,left,851,true,high,NA,NA,NA,NA,NA,NA,NA,false
mTbKWGVi,3en4yvuovf59wipgxxflzhxwdchjxp,3lep4mgt3kdr3dkh976uw67i8e3dbp,mTbKWGVi,2020-0188,2020-05-08,11:06:14,11:23:17,NA,incomplete,79,filling,0,right,Blue_Star_Grid_3.jpg,Red_Star_Dots_1.jpg,Green_Plus_Grid_4.jpg,right,973,true,high,NA,NA,NA,NA,NA,NA,NA,false
mTbKWGVi,3en4yvuovf59wipgxxflzhxwdchjxp,3lep4mgt3kdr3dkh976uw67i8e3dbp,mTbKWGVi,2020-0188,2020-05-08,11:06:14,11:23:17,NA,incomplete,80,shape,1,left,Purple_Triangle_Dots_1.jpg,Green_Triangle_Grid_3.jpg,Red_Plus_Dots_4.jpg,right,915,false,high,NA,NA,NA,NA,NA,NA,NA,false
mTbKWGVi,3en4yvuovf59wipgxxflzhxwdchjxp,3lep4mgt3kdr3dkh976uw67i8e3dbp,mTbKWGVi,2020-0188,2020-05-08,11:06:14,11:23:17,NA,incomplete,81,shape,0,left,Red_Triangle_Chess_4.jpg,Purple_Triangle_Grid_3.jpg,Blue_Star_Chess_2.jpg,left,783,true,high,NA,NA,NA,NA,NA,NA,NA,false
mTbKWGVi,3en4yvuovf59wipgxxflzhxwdchjxp,3lep4mgt3kdr3dkh976uw67i8e3dbp,mTbKWGVi,2020-0188,2020-05-08,11:06:14,11:23:17,NA,incomplete,82,shape,1,right,Green_Star_Grid_2.jpg,Red_Triangle_Grid_3.jpg,Purple_Star_Stripes_4.jpg,left,915,false,high,NA,NA,NA,NA,NA,NA,NA,false
mTbKWGVi,3en4yvuovf59wipgxxflzhxwdchjxp,3lep4mgt3kdr3dkh976uw67i8e3dbp,mTbKWGVi,2020-0188,2020-05-08,11:06:14,11:23:17,NA,incomplete,83,shape,0,right,Purple_Triangle_Stripes_2.jpg,Green_Circle_Stripes_3.jpg,Blue_Triangle_Dots_1.jpg,left,762,false,high,NA,NA,NA,NA,NA,NA,NA,false
mTbKWGVi,3en4yvuovf59wipgxxflzhxwdchjxp,3lep4mgt3kdr3dkh976uw67i8e3dbp,mTbKWGVi,2020-0188,2020-05-08,11:06:14,11:23:17,NA,incomplete,84,shape,1,right,Red_Plus_Dots_3.jpg,Blue_Triangle_Dots_4.jpg,Green_Plus_Chess_2.jpg,right,883,true,high,NA,NA,NA,NA,NA,NA,NA,false
mTbKWGVi,3en4yvuovf59wipgxxflzhxwdchjxp,3lep4mgt3kdr3dkh976uw67i8e3dbp,mTbKWGVi,2020-0188,2020-05-08,11:06:14,11:23:17,NA,incomplete,85,shape,1,left,Green_Circle_Stripes_1.jpg,Red_Circle_Chess_3.jpg,Purple_Star_Stripes_4.jpg,left,611,true,high,NA,NA,NA,NA,NA,NA,NA,false
mTbKWGVi,3en4yvuovf59wipgxxflzhxwdchjxp,3lep4mgt3kdr3dkh976uw67i8e3dbp,mTbKWGVi,2020-0188,2020-05-08,11:06:14,11:23:17,NA,incomplete,86,shape,1,left,Blue_Triangle_Dots_1.jpg,Red_Triangle_Chess_2.jpg,Purple_Star_Dots_4.jpg,left,676,true,high,NA,NA,NA,NA,NA,NA,NA,false
mTbKWGVi,3en4yvuovf59wipgxxflzhxwdchjxp,3lep4mgt3kdr3dkh976uw67i8e3dbp,mTbKWGVi,2020-0188,2020-05-08,11:06:14,11:23:17,NA,incomplete,87,shape,1,left,Green_Circle_Dots_3.jpg,Purple_Circle_Grid_2.jpg,Red_Star_Dots_1.jpg,left,725,true,high,NA,NA,NA,NA,NA,NA,NA,false
mTbKWGVi,3en4yvuovf59wipgxxflzhxwdchjxp,3lep4mgt3kdr3dkh976uw67i8e3dbp,mTbKWGVi,2020-0188,2020-05-08,11:06:14,11:23:17,NA,incomplete,88,shape,1,left,Blue_Plus_Dots_3.jpg,Red_Plus_Stripes_4.jpg,Purple_Triangle_Dots_2.jpg,left,670,true,high,NA,NA,NA,NA,NA,NA,NA,false
mTbKWGVi,3en4yvuovf59wipgxxflzhxwdchjxp,3lep4mgt3kdr3dkh976uw67i8e3dbp,mTbKWGVi,2020-0188,2020-05-08,11:06:14,11:23:17,NA,incomplete,89,shape,1,left,Green_Star_Stripes_4.jpg,Red_Star_Grid_2.jpg,Purple_Circle_Stripes_1.jpg,left,715,true,high,NA,NA,NA,NA,NA,NA,NA,false
mTbKWGVi,3en4yvuovf59wipgxxflzhxwdchjxp,3lep4mgt3kdr3dkh976uw67i8e3dbp,mTbKWGVi,2020-0188,2020-05-08,11:06:14,11:23:17,NA,incomplete,90,filling,1,right,Blue_Plus_Stripes_1.jpg,Purple_Plus_Chess_3.jpg,Green_Triangle_Stripes_4.jpg,left,737,false,high,NA,NA,NA,NA,NA,NA,NA,false
mTbKWGVi,3en4yvuovf59wipgxxflzhxwdchjxp,3lep4mgt3kdr3dkh976uw67i8e3dbp,mTbKWGVi,2020-0188,2020-05-08,11:06:14,11:23:17,NA,incomplete,91,filling,1,left,Purple_Plus_Stripes_4.jpg,Red_Star_Stripes_1.jpg,Blue_Plus_Chess_3.jpg,right,626,false,high,NA,NA,NA,NA,NA,NA,NA,false
mTbKWGVi,3en4yvuovf59wipgxxflzhxwdchjxp,3lep4mgt3kdr3dkh976uw67i8e3dbp,mTbKWGVi,2020-0188,2020-05-08,11:06:14,11:23:17,NA,incomplete,92,filling,0,left,Purple_Circle_Dots_2.jpg,Green_Plus_Dots_1.jpg,Blue_Circle_Grid_3.jpg,right,672,false,high,NA,NA,NA,NA,NA,NA,NA,false
mTbKWGVi,3en4yvuovf59wipgxxflzhxwdchjxp,3lep4mgt3kdr3dkh976uw67i8e3dbp,mTbKWGVi,2020-0188,2020-05-08,11:06:14,11:23:17,NA,incomplete,93,filling,1,right,Blue_Plus_Stripes_3.jpg,Red_Plus_Chess_1.jpg,Purple_Star_Stripes_2.jpg,left,727,false,high,NA,NA,NA,NA,NA,NA,NA,false
mTbKWGVi,3en4yvuovf59wipgxxflzhxwdchjxp,3lep4mgt3kdr3dkh976uw67i8e3dbp,mTbKWGVi,2020-0188,2020-05-08,11:06:14,11:23:17,NA,incomplete,94,filling,1,left,Red_Star_Stripes_4.jpg,Blue_Triangle_Stripes_2.jpg,Green_Star_Chess_3.jpg,right,755,false,high,NA,NA,NA,NA,NA,NA,NA,false
mTbKWGVi,3en4yvuovf59wipgxxflzhxwdchjxp,3lep4mgt3kdr3dkh976uw67i8e3dbp,mTbKWGVi,2020-0188,2020-05-08,11:06:14,11:23:17,NA,incomplete,95,filling,1,right,Purple_Triangle_Dots_3.jpg,Red_Triangle_Stripes_4.jpg,Blue_Plus_Dots_1.jpg,left,617,false,high,NA,NA,NA,NA,NA,NA,NA,false
mTbKWGVi,3en4yvuovf59wipgxxflzhxwdchjxp,3lep4mgt3kdr3dkh976uw67i8e3dbp,mTbKWGVi,2020-0188,2020-05-08,11:06:14,11:23:17,NA,incomplete,96,filling,0,right,Green_Triangle_Chess_2.jpg,Purple_Triangle_Grid_4.jpg,Red_Circle_Chess_1.jpg,right,873,true,high,NA,NA,NA,NA,NA,NA,NA,false
mTbKWGVi,3en4yvuovf59wipgxxflzhxwdchjxp,3lep4mgt3kdr3dkh976uw67i8e3dbp,mTbKWGVi,2020-0188,2020-05-08,11:06:14,11:23:17,NA,incomplete,97,filling,1,left,Purple_Star_Chess_3.jpg,Blue_Triangle_Chess_1.jpg,Red_Star_Stripes_4.jpg,right,644,false,high,NA,NA,NA,NA,NA,NA,NA,false
mTbKWGVi,3en4yvuovf59wipgxxflzhxwdchjxp,3lep4mgt3kdr3dkh976uw67i8e3dbp,mTbKWGVi,2020-0188,2020-05-08,11:06:14,11:23:17,NA,incomplete,98,filling,1,right,Green_Triangle_Dots_2.jpg,Red_Triangle_Chess_3.jpg,Blue_Plus_Dots_4.jpg,right,1026,true,high,NA,NA,NA,NA,NA,NA,NA,false
mTbKWGVi,3en4yvuovf59wipgxxflzhxwdchjxp,3lep4mgt3kdr3dkh976uw67i8e3dbp,mTbKWGVi,2020-0188,2020-05-08,11:06:14,11:23:17,NA,incomplete,99,filling,1,right,Green_Star_Chess_2.jpg,Purple_Star_Dots_1.jpg,Blue_Triangle_Chess_4.jpg,right,831,true,high,NA,NA,NA,NA,NA,NA,NA,false
mTbKWGVi,3en4yvuovf59wipgxxflzhxwdchjxp,3lep4mgt3kdr3dkh976uw67i8e3dbp,mTbKWGVi,2020-0188,2020-05-08,11:06:14,11:23:17,NA,incomplete,100,shape,1,left,Green_Star_Chess_3.jpg,Red_Star_Grid_4.jpg,Blue_Circle_Chess_2.jpg,right,836,false,high,NA,NA,NA,NA,NA,NA,NA,false
mTbKWGVi,3en4yvuovf59wipgxxflzhxwdchjxp,3lep4mgt3kdr3dkh976uw67i8e3dbp,mTbKWGVi,2020-0188,2020-05-08,11:06:14,11:23:17,NA,incomplete,101,shape,1,left,Blue_Plus_Grid_3.jpg,Purple_Plus_Chess_4.jpg,Green_Circle_Grid_2.jpg,right,1015,false,high,NA,NA,NA,NA,NA,NA,NA,false
mTbKWGVi,3en4yvuovf59wipgxxflzhxwdchjxp,3lep4mgt3kdr3dkh976uw67i8e3dbp,mTbKWGVi,2020-0188,2020-05-08,11:06:14,11:23:17,NA,incomplete,102,shape,1,left,Green_Circle_Dots_3.jpg,Red_Circle_Stripes_4.jpg,Blue_Triangle_Dots_1.jpg,left,683,true,high,NA,NA,NA,NA,NA,NA,NA,false
mTbKWGVi,3en4yvuovf59wipgxxflzhxwdchjxp,3lep4mgt3kdr3dkh976uw67i8e3dbp,mTbKWGVi,2020-0188,2020-05-08,11:06:14,11:23:17,NA,incomplete,103,shape,0,left,Green_Star_Chess_1.jpg,Blue_Star_Stripes_4.jpg,Red_Plus_Chess_2.jpg,left,687,true,high,NA,NA,NA,NA,NA,NA,NA,false
mTbKWGVi,3en4yvuovf59wipgxxflzhxwdchjxp,3lep4mgt3kdr3dkh976uw67i8e3dbp,mTbKWGVi,2020-0188,2020-05-08,11:06:14,11:23:17,NA,incomplete,104,shape,0,right,Blue_Triangle_Dots_4.jpg,Purple_Plus_Dots_3.jpg,Red_Triangle_Chess_1.jpg,left,911,false,high,NA,NA,NA,NA,NA,NA,NA,false
mTbKWGVi,3en4yvuovf59wipgxxflzhxwdchjxp,3lep4mgt3kdr3dkh976uw67i8e3dbp,mTbKWGVi,2020-0188,2020-05-08,11:06:14,11:23:17,NA,incomplete,105,shape,1,left,Blue_Plus_Grid_2.jpg,Green_Plus_Stripes_1.jpg,Purple_Circle_Grid_4.jpg,right,842,false,high,NA,NA,NA,NA,NA,NA,NA,false
mTbKWGVi,3en4yvuovf59wipgxxflzhxwdchjxp,3lep4mgt3kdr3dkh976uw67i8e3dbp,mTbKWGVi,2020-0188,2020-05-08,11:06:14,11:23:17,NA,incomplete,106,shape,1,right,Green_Triangle_Dots_3.jpg,Blue_Circle_Dots_1.jpg,Purple_Triangle_Chess_2.jpg,left,906,false,high,NA,NA,NA,NA,NA,NA,NA,false
mTbKWGVi,3en4yvuovf59wipgxxflzhxwdchjxp,3lep4mgt3kdr3dkh976uw67i8e3dbp,mTbKWGVi,2020-0188,2020-05-08,11:06:14,11:23:17,NA,incomplete,107,shape,1,left,Purple_Plus_Stripes_3.jpg,Red_Plus_Dots_4.jpg,Blue_Circle_Stripes_2.jpg,right,782,false,high,NA,NA,NA,NA,NA,NA,NA,false
mTbKWGVi,3en4yvuovf59wipgxxflzhxwdchjxp,3lep4mgt3kdr3dkh976uw67i8e3dbp,mTbKWGVi,2020-0188,2020-05-08,11:06:14,11:23:17,NA,incomplete,108,shape,1,right,Blue_Triangle_Stripes_2.jpg,Green_Circle_Stripes_1.jpg,Purple_Triangle_Grid_4.jpg,right,709,true,high,NA,NA,NA,NA,NA,NA,NA,false
mTbKWGVi,3en4yvuovf59wipgxxflzhxwdchjxp,3lep4mgt3kdr3dkh976uw67i8e3dbp,mTbKWGVi,2020-0188,2020-05-08,11:06:14,11:23:17,NA,incomplete,109,shape,1,right,Red_Star_Grid_3.jpg,Blue_Circle_Grid_2.jpg,Purple_Star_Stripes_1.jpg,right,647,true,high,NA,NA,NA,NA,NA,NA,NA,false
mTbKWGVi,3en4yvuovf59wipgxxflzhxwdchjxp,3lep4mgt3kdr3dkh976uw67i8e3dbp,mTbKWGVi,2020-0188,2020-05-08,11:06:14,11:23:17,NA,incomplete,110,filling,1,left,Purple_Triangle_Dots_2.jpg,Blue_Circle_Dots_1.jpg,Green_Triangle_Grid_4.jpg,right,640,false,high,NA,NA,NA,NA,NA,NA,NA,false
mTbKWGVi,3en4yvuovf59wipgxxflzhxwdchjxp,3lep4mgt3kdr3dkh976uw67i8e3dbp,mTbKWGVi,2020-0188,2020-05-08,11:06:14,11:23:17,NA,incomplete,111,filling,1,left,Red_Circle_Chess_2.jpg,Green_Plus_Chess_1.jpg,Blue_Circle_Stripes_3.jpg,right,582,false,high,NA,NA,NA,NA,NA,NA,NA,false
mTbKWGVi,3en4yvuovf59wipgxxflzhxwdchjxp,3lep4mgt3kdr3dkh976uw67i8e3dbp,mTbKWGVi,2020-0188,2020-05-08,11:06:14,11:23:17,NA,incomplete,112,filling,1,right,Red_Star_Chess_3.jpg,Purple_Star_Stripes_2.jpg,Green_Triangle_Chess_4.jpg,left,748,false,high,NA,NA,NA,NA,NA,NA,NA,false
mTbKWGVi,3en4yvuovf59wipgxxflzhxwdchjxp,3lep4mgt3kdr3dkh976uw67i8e3dbp,mTbKWGVi,2020-0188,2020-05-08,11:06:14,11:23:17,NA,incomplete,113,filling,1,right,Green_Triangle_Stripes_3.jpg,Blue_Triangle_Chess_4.jpg,Purple_Star_Stripes_1.jpg,right,877,true,high,NA,NA,NA,NA,NA,NA,NA,false
mTbKWGVi,3en4yvuovf59wipgxxflzhxwdchjxp,3lep4mgt3kdr3dkh976uw67i8e3dbp,mTbKWGVi,2020-0188,2020-05-08,11:06:14,11:23:17,NA,incomplete,114,filling,0,right,Red_Circle_Grid_1.jpg,Blue_Circle_Dots_3.jpg,Green_Plus_Grid_4.jpg,right,857,true,high,NA,NA,NA,NA,NA,NA,NA,false
mTbKWGVi,3en4yvuovf59wipgxxflzhxwdchjxp,3lep4mgt3kdr3dkh976uw67i8e3dbp,mTbKWGVi,2020-0188,2020-05-08,11:06:14,11:23:17,NA,incomplete,115,filling,1,right,Purple_Triangle_Chess_1.jpg,Green_Triangle_Grid_3.jpg,Red_Plus_Chess_4.jpg,left,886,false,high,NA,NA,NA,NA,NA,NA,NA,false
mTbKWGVi,3en4yvuovf59wipgxxflzhxwdchjxp,3lep4mgt3kdr3dkh976uw67i8e3dbp,mTbKWGVi,2020-0188,2020-05-08,11:06:14,11:23:17,NA,incomplete,116,filling,1,left,Purple_Circle_Chess_4.jpg,Blue_Plus_Chess_1.jpg,Green_Circle_Stripes_2.jpg,left,931,true,high,NA,NA,NA,NA,NA,NA,NA,false
mTbKWGVi,3en4yvuovf59wipgxxflzhxwdchjxp,3lep4mgt3kdr3dkh976uw67i8e3dbp,mTbKWGVi,2020-0188,2020-05-08,11:06:14,11:23:17,NA,incomplete,117,filling,1,right,Green_Star_Dots_4.jpg,Red_Star_Grid_1.jpg,Purple_Plus_Dots_3.jpg,right,901,true,high,NA,NA,NA,NA,NA,NA,NA,false
mTbKWGVi,3en4yvuovf59wipgxxflzhxwdchjxp,3lep4mgt3kdr3dkh976uw67i8e3dbp,mTbKWGVi,2020-0188,2020-05-08,11:06:14,11:23:17,NA,incomplete,118,filling,1,right,Green_Circle_Dots_1.jpg,Blue_Circle_Stripes_3.jpg,Red_Star_Dots_2.jpg,right,958,true,high,NA,NA,NA,NA,NA,NA,NA,false
mTbKWGVi,3en4yvuovf59wipgxxflzhxwdchjxp,3lep4mgt3kdr3dkh976uw67i8e3dbp,mTbKWGVi,2020-0188,2020-05-08,11:06:14,11:23:17,NA,incomplete,119,filling,1,left,Purple_Plus_Dots_1.jpg,Red_Circle_Dots_2.jpg,Blue_Plus_Chess_4.jpg,left,839,true,high,NA,NA,NA,NA,NA,NA,NA,false
mTbKWGVi,3en4yvuovf59wipgxxflzhxwdchjxp,3lep4mgt3kdr3dkh976uw67i8e3dbp,mTbKWGVi,2020-0188,2020-05-08,11:06:14,11:23:17,NA,incomplete,120,shape,1,left,Red_Plus_Chess_3.jpg,Blue_Plus_Dots_1.jpg,Purple_Circle_Chess_2.jpg,right,826,false,high,NA,NA,NA,NA,NA,NA,NA,false
mTbKWGVi,3en4yvuovf59wipgxxflzhxwdchjxp,3lep4mgt3kdr3dkh976uw67i8e3dbp,mTbKWGVi,2020-0188,2020-05-08,11:06:14,11:23:17,NA,incomplete,121,shape,1,left,Blue_Plus_Stripes_1.jpg,Green_Plus_Grid_3.jpg,Red_Circle_Stripes_4.jpg,right,850,false,high,NA,NA,NA,NA,NA,NA,NA,false
mTbKWGVi,3en4yvuovf59wipgxxflzhxwdchjxp,3lep4mgt3kdr3dkh976uw67i8e3dbp,mTbKWGVi,2020-0188,2020-05-08,11:06:14,11:23:17,NA,incomplete,122,shape,1,right,Green_Star_Stripes_4.jpg,Red_Plus_Stripes_2.jpg,Blue_Star_Chess_3.jpg,left,774,false,high,NA,NA,NA,NA,NA,NA,NA,false
mTbKWGVi,3en4yvuovf59wipgxxflzhxwdchjxp,3lep4mgt3kdr3dkh976uw67i8e3dbp,mTbKWGVi,2020-0188,2020-05-08,11:06:14,11:23:17,NA,incomplete,123,shape,1,left,Blue_Triangle_Chess_2.jpg,Green_Triangle_Grid_3.jpg,Purple_Circle_Chess_4.jpg,left,686,true,high,NA,NA,NA,NA,NA,NA,NA,false
mTbKWGVi,3en4yvuovf59wipgxxflzhxwdchjxp,3lep4mgt3kdr3dkh976uw67i8e3dbp,mTbKWGVi,2020-0188,2020-05-08,11:06:14,11:23:17,NA,incomplete,124,shape,1,left,Green_Triangle_Stripes_4.jpg,Red_Triangle_Grid_1.jpg,Blue_Star_Stripes_2.jpg,left,690,true,high,NA,NA,NA,NA,NA,NA,NA,false
mTbKWGVi,3en4yvuovf59wipgxxflzhxwdchjxp,3lep4mgt3kdr3dkh976uw67i8e3dbp,mTbKWGVi,2020-0188,2020-05-08,11:06:14,11:23:17,NA,incomplete,125,shape,1,left,Blue_Star_Grid_1.jpg,Purple_Star_Dots_4.jpg,Red_Plus_Grid_3.jpg,left,878,true,high,NA,NA,NA,NA,NA,NA,NA,false
mTbKWGVi,3en4yvuovf59wipgxxflzhxwdchjxp,3lep4mgt3kdr3dkh976uw67i8e3dbp,mTbKWGVi,2020-0188,2020-05-08,11:06:14,11:23:17,NA,incomplete,126,shape,1,left,Blue_Star_Chess_1.jpg,Red_Star_Stripes_2.jpg,Purple_Plus_Chess_4.jpg,left,574,true,high,NA,NA,NA,NA,NA,NA,NA,false
mTbKWGVi,3en4yvuovf59wipgxxflzhxwdchjxp,3lep4mgt3kdr3dkh976uw67i8e3dbp,mTbKWGVi,2020-0188,2020-05-08,11:06:14,11:23:17,NA,incomplete,127,shape,0,right,Purple_Plus_Grid_1.jpg,Red_Triangle_Grid_4.jpg,Green_Plus_Chess_2.jpg,right,923,true,high,NA,NA,NA,NA,NA,NA,NA,false
mTbKWGVi,3en4yvuovf59wipgxxflzhxwdchjxp,3lep4mgt3kdr3dkh976uw67i8e3dbp,mTbKWGVi,2020-0188,2020-05-08,11:06:14,11:23:17,NA,incomplete,128,shape,1,right,Green_Star_Stripes_1.jpg,Blue_Triangle_Stripes_2.jpg,Red_Star_Grid_4.jpg,right,607,true,high,NA,NA,NA,NA,NA,NA,NA,false
mTbKWGVi,3en4yvuovf59wipgxxflzhxwdchjxp,3lep4mgt3kdr3dkh976uw67i8e3dbp,mTbKWGVi,2020-0188,2020-05-08,11:06:14,11:23:17,NA,incomplete,129,shape,1,right,Purple_Triangle_Stripes_2.jpg,Green_Plus_Stripes_1.jpg,Red_Triangle_Grid_3.jpg,right,669,true,high,NA,NA,NA,NA,NA,NA,NA,false
mTbKWGVi,3en4yvuovf59wipgxxflzhxwdchjxp,3lep4mgt3kdr3dkh976uw67i8e3dbp,mTbKWGVi,2020-0188,2020-05-08,11:06:14,11:23:17,NA,incomplete,130,shape,0,left,Red_Triangle_Dots_3.jpg,Purple_Triangle_Chess_4.jpg,Green_Circle_Dots_2.jpg,left,705,true,high,NA,NA,NA,NA,NA,NA,NA,false
mTbKWGVi,3en4yvuovf59wipgxxflzhxwdchjxp,3lep4mgt3kdr3dkh976uw67i8e3dbp,mTbKWGVi,2020-0188,2020-05-08,11:06:14,11:23:17,NA,incomplete,131,shape,1,right,Purple_Circle_Chess_2.jpg,Blue_Triangle_Chess_3.jpg,Red_Circle_Grid_4.jpg,right,647,true,high,NA,NA,NA,NA,NA,NA,NA,false
mTbKWGVi,3en4yvuovf59wipgxxflzhxwdchjxp,3lep4mgt3kdr3dkh976uw67i8e3dbp,mTbKWGVi,2020-0188,2020-05-08,11:06:14,11:23:17,NA,incomplete,132,shape,0,right,Red_Triangle_Grid_4.jpg,Purple_Star_Grid_1.jpg,Blue_Triangle_Chess_3.jpg,right,533,true,high,NA,NA,NA,NA,NA,NA,NA,false
mTbKWGVi,3en4yvuovf59wipgxxflzhxwdchjxp,3lep4mgt3kdr3dkh976uw67i8e3dbp,mTbKWGVi,2020-0188,2020-05-08,11:06:14,11:23:17,NA,incomplete,133,shape,1,left,Blue_Star_Grid_3.jpg,Green_Star_Chess_1.jpg,Red_Circle_Grid_2.jpg,left,655,true,high,NA,NA,NA,NA,NA,NA,NA,false
mTbKWGVi,3en4yvuovf59wipgxxflzhxwdchjxp,3lep4mgt3kdr3dkh976uw67i8e3dbp,mTbKWGVi,2020-0188,2020-05-08,11:06:14,11:23:17,NA,incomplete,134,shape,1,right,Red_Plus_Grid_4.jpg,Green_Triangle_Grid_3.jpg,Purple_Plus_Dots_2.jpg,right,750,true,high,NA,NA,NA,NA,NA,NA,NA,false
mTbKWGVi,3en4yvuovf59wipgxxflzhxwdchjxp,3lep4mgt3kdr3dkh976uw67i8e3dbp,mTbKWGVi,2020-0188,2020-05-08,11:06:14,11:23:17,NA,incomplete,135,shape,1,left,Purple_Triangle_Dots_1.jpg,Green_Triangle_Stripes_4.jpg,Blue_Plus_Dots_3.jpg,left,824,true,high,NA,NA,NA,NA,NA,NA,NA,false
mTbKWGVi,3en4yvuovf59wipgxxflzhxwdchjxp,3lep4mgt3kdr3dkh976uw67i8e3dbp,mTbKWGVi,2020-0188,2020-05-08,11:06:14,11:23:17,NA,incomplete,136,shape,1,left,Green_Circle_Grid_1.jpg,Purple_Circle_Stripes_2.jpg,Red_Star_Grid_3.jpg,left,755,true,high,NA,NA,NA,NA,NA,NA,NA,false
mTbKWGVi,3en4yvuovf59wipgxxflzhxwdchjxp,3lep4mgt3kdr3dkh976uw67i8e3dbp,mTbKWGVi,2020-0188,2020-05-08,11:06:14,11:23:17,NA,incomplete,137,shape,0,right,Red_Star_Grid_2.jpg,Green_Circle_Grid_3.jpg,Purple_Star_Chess_4.jpg,right,625,true,high,NA,NA,NA,NA,NA,NA,NA,false
mTbKWGVi,3en4yvuovf59wipgxxflzhxwdchjxp,3lep4mgt3kdr3dkh976uw67i8e3dbp,mTbKWGVi,2020-0188,2020-05-08,11:06:14,11:23:17,NA,incomplete,138,shape,1,right,Green_Circle_Chess_3.jpg,Purple_Star_Chess_2.jpg,Blue_Circle_Stripes_4.jpg,right,643,true,high,NA,NA,NA,NA,NA,NA,NA,false
mTbKWGVi,3en4yvuovf59wipgxxflzhxwdchjxp,3lep4mgt3kdr3dkh976uw67i8e3dbp,mTbKWGVi,2020-0188,2020-05-08,11:06:14,11:23:17,NA,incomplete,139,shape,1,right,Blue_Star_Chess_1.jpg,Purple_Circle_Chess_3.jpg,Green_Star_Grid_4.jpg,right,621,true,high,NA,NA,NA,NA,NA,NA,NA,false
mTbKWGVi,3en4yvuovf59wipgxxflzhxwdchjxp,3lep4mgt3kdr3dkh976uw67i8e3dbp,mTbKWGVi,2020-0188,2020-05-08,11:06:14,11:23:17,NA,incomplete,140,filling,0,left,Green_Star_Grid_2.jpg,Purple_Triangle_Grid_3.jpg,Red_Star_Chess_4.jpg,right,637,false,high,NA,NA,NA,NA,NA,NA,NA,false
mTbKWGVi,3en4yvuovf59wipgxxflzhxwdchjxp,3lep4mgt3kdr3dkh976uw67i8e3dbp,mTbKWGVi,2020-0188,2020-05-08,11:06:14,11:23:17,NA,incomplete,141,filling,1,right,Red_Star_Grid_2.jpg,Purple_Star_Chess_3.jpg,Green_Plus_Grid_4.jpg,left,714,false,high,NA,NA,NA,NA,NA,NA,NA,false
mTbKWGVi,3en4yvuovf59wipgxxflzhxwdchjxp,3lep4mgt3kdr3dkh976uw67i8e3dbp,mTbKWGVi,2020-0188,2020-05-08,11:06:14,11:23:17,NA,incomplete,142,filling,0,right,Red_Star_Dots_3.jpg,Purple_Star_Chess_1.jpg,Blue_Circle_Dots_4.jpg,left,697,false,high,NA,NA,NA,NA,NA,NA,NA,false
mTbKWGVi,3en4yvuovf59wipgxxflzhxwdchjxp,3lep4mgt3kdr3dkh976uw67i8e3dbp,mTbKWGVi,2020-0188,2020-05-08,11:06:14,11:23:17,NA,incomplete,143,filling,1,left,Green_Plus_Grid_1.jpg,Purple_Circle_Grid_3.jpg,Red_Plus_Chess_4.jpg,right,654,false,high,NA,NA,NA,NA,NA,NA,NA,false
mTbKWGVi,3en4yvuovf59wipgxxflzhxwdchjxp,3lep4mgt3kdr3dkh976uw67i8e3dbp,mTbKWGVi,2020-0188,2020-05-08,11:06:14,11:23:17,NA,incomplete,144,filling,1,left,Green_Star_Chess_4.jpg,Purple_Plus_Chess_3.jpg,Red_Star_Dots_2.jpg,right,785,false,high,NA,NA,NA,NA,NA,NA,NA,false
mTbKWGVi,3en4yvuovf59wipgxxflzhxwdchjxp,3lep4mgt3kdr3dkh976uw67i8e3dbp,mTbKWGVi,2020-0188,2020-05-08,11:06:14,11:23:17,NA,incomplete,145,filling,0,right,Red_Circle_Grid_1.jpg,Blue_Circle_Dots_4.jpg,Green_Plus_Grid_3.jpg,left,1449,false,high,NA,NA,NA,NA,NA,NA,NA,false
mTbKWGVi,3en4yvuovf59wipgxxflzhxwdchjxp,3lep4mgt3kdr3dkh976uw67i8e3dbp,mTbKWGVi,2020-0188,2020-05-08,11:06:14,11:23:17,NA,incomplete,146,filling,1,right,Blue_Circle_Stripes_2.jpg,Red_Circle_Dots_1.jpg,Green_Star_Stripes_3.jpg,left,642,false,high,NA,NA,NA,NA,NA,NA,NA,false
mTbKWGVi,3en4yvuovf59wipgxxflzhxwdchjxp,3lep4mgt3kdr3dkh976uw67i8e3dbp,mTbKWGVi,2020-0188,2020-05-08,11:06:14,11:23:17,NA,incomplete,147,filling,1,right,Purple_Triangle_Chess_4.jpg,Blue_Triangle_Stripes_2.jpg,Red_Circle_Chess_1.jpg,left,630,false,high,NA,NA,NA,NA,NA,NA,NA,false
mTbKWGVi,3en4yvuovf59wipgxxflzhxwdchjxp,3lep4mgt3kdr3dkh976uw67i8e3dbp,mTbKWGVi,2020-0188,2020-05-08,11:06:14,11:23:17,NA,incomplete,148,filling,0,right,Green_Star_Grid_2.jpg,Blue_Star_Dots_3.jpg,Purple_Triangle_Grid_1.jpg,left,664,false,high,NA,NA,NA,NA,NA,NA,NA,false
mTbKWGVi,3en4yvuovf59wipgxxflzhxwdchjxp,3lep4mgt3kdr3dkh976uw67i8e3dbp,mTbKWGVi,2020-0188,2020-05-08,11:06:14,11:23:17,NA,incomplete,149,filling,1,right,Red_Triangle_Dots_3.jpg,Green_Triangle_Grid_1.jpg,Blue_Circle_Dots_4.jpg,left,724,false,high,NA,NA,NA,NA,NA,NA,NA,false
mTbKWGVi,3en4yvuovf59wipgxxflzhxwdchjxp,3lep4mgt3kdr3dkh976uw67i8e3dbp,mTbKWGVi,2020-0188,2020-05-08,11:06:14,11:23:17,NA,incomplete,150,filling,1,right,Purple_Circle_Grid_3.jpg,Blue_Circle_Stripes_4.jpg,Red_Triangle_Grid_2.jpg,left,654,false,high,NA,NA,NA,NA,NA,NA,NA,false
mTbKWGVi,3en4yvuovf59wipgxxflzhxwdchjxp,3lep4mgt3kdr3dkh976uw67i8e3dbp,mTbKWGVi,2020-0188,2020-05-08,11:06:14,11:23:17,NA,incomplete,151,filling,1,left,Red_Triangle_Stripes_2.jpg,Purple_Star_Stripes_3.jpg,Green_Triangle_Chess_4.jpg,right,617,false,high,NA,NA,NA,NA,NA,NA,NA,false
mTbKWGVi,3en4yvuovf59wipgxxflzhxwdchjxp,3lep4mgt3kdr3dkh976uw67i8e3dbp,mTbKWGVi,2020-0188,2020-05-08,11:06:14,11:23:17,NA,incomplete,152,filling,1,left,Blue_Star_Grid_3.jpg,Red_Circle_Grid_1.jpg,Green_Star_Chess_4.jpg,left,1005,true,high,NA,NA,NA,NA,NA,NA,NA,false
mTbKWGVi,3en4yvuovf59wipgxxflzhxwdchjxp,3lep4mgt3kdr3dkh976uw67i8e3dbp,mTbKWGVi,2020-0188,2020-05-08,11:06:14,11:23:17,NA,incomplete,153,filling,0,left,Purple_Star_Chess_1.jpg,Green_Triangle_Chess_3.jpg,Blue_Star_Dots_2.jpg,left,789,true,high,NA,NA,NA,NA,NA,NA,NA,false
mTbKWGVi,3en4yvuovf59wipgxxflzhxwdchjxp,3lep4mgt3kdr3dkh976uw67i8e3dbp,mTbKWGVi,2020-0188,2020-05-08,11:06:14,11:23:17,NA,incomplete,154,filling,1,left,Blue_Triangle_Grid_3.jpg,Purple_Plus_Grid_4.jpg,Red_Triangle_Chess_1.jpg,left,937,true,high,NA,NA,NA,NA,NA,NA,NA,false
mTbKWGVi,3en4yvuovf59wipgxxflzhxwdchjxp,3lep4mgt3kdr3dkh976uw67i8e3dbp,mTbKWGVi,2020-0188,2020-05-08,11:06:14,11:23:17,NA,incomplete,155,filling,1,left,Purple_Triangle_Stripes_2.jpg,Red_Circle_Stripes_1.jpg,Green_Triangle_Grid_4.jpg,left,906,true,high,NA,NA,NA,NA,NA,NA,NA,false
mTbKWGVi,3en4yvuovf59wipgxxflzhxwdchjxp,3lep4mgt3kdr3dkh976uw67i8e3dbp,mTbKWGVi,2020-0188,2020-05-08,11:06:14,11:23:17,NA,incomplete,156,filling,1,right,Red_Triangle_Grid_3.jpg,Purple_Triangle_Chess_4.jpg,Green_Star_Grid_2.jpg,right,904,true,high,NA,NA,NA,NA,NA,NA,NA,false
mTbKWGVi,3en4yvuovf59wipgxxflzhxwdchjxp,3lep4mgt3kdr3dkh976uw67i8e3dbp,mTbKWGVi,2020-0188,2020-05-08,11:06:14,11:23:17,NA,incomplete,157,filling,1,right,Red_Plus_Grid_1.jpg,Blue_Plus_Stripes_4.jpg,Green_Star_Grid_2.jpg,right,979,true,high,NA,NA,NA,NA,NA,NA,NA,false
mTbKWGVi,3en4yvuovf59wipgxxflzhxwdchjxp,3lep4mgt3kdr3dkh976uw67i8e3dbp,mTbKWGVi,2020-0188,2020-05-08,11:06:14,11:23:17,NA,incomplete,158,filling,1,right,Green_Triangle_Stripes_1.jpg,Red_Triangle_Chess_3.jpg,Purple_Plus_Stripes_2.jpg,right,1176,true,high,NA,NA,NA,NA,NA,NA,NA,false
mTbKWGVi,3en4yvuovf59wipgxxflzhxwdchjxp,3lep4mgt3kdr3dkh976uw67i8e3dbp,mTbKWGVi,2020-0188,2020-05-08,11:06:14,11:23:17,NA,incomplete,159,filling,1,right,Purple_Star_Chess_1.jpg,Green_Star_Stripes_2.jpg,Blue_Triangle_Chess_3.jpg,right,871,true,high,NA,NA,NA,NA,NA,NA,NA,false
mTbKWGVi,3en4yvuovf59wipgxxflzhxwdchjxp,3lep4mgt3kdr3dkh976uw67i8e3dbp,mTbKWGVi,2020-0188,2020-05-08,11:06:14,11:23:17,NA,incomplete,160,shape,1,right,Blue_Circle_Chess_3.jpg,Green_Triangle_Chess_2.jpg,Purple_Circle_Dots_4.jpg,left,750,false,high,NA,NA,NA,NA,NA,NA,NA,false
mTbKWGVi,3en4yvuovf59wipgxxflzhxwdchjxp,3lep4mgt3kdr3dkh976uw67i8e3dbp,mTbKWGVi,2020-0188,2020-05-08,11:06:14,11:23:17,NA,incomplete,161,shape,1,left,Purple_Triangle_Stripes_4.jpg,Green_Triangle_Dots_1.jpg,Blue_Plus_Stripes_3.jpg,right,867,false,high,NA,NA,NA,NA,NA,NA,NA,false
mTbKWGVi,3en4yvuovf59wipgxxflzhxwdchjxp,3lep4mgt3kdr3dkh976uw67i8e3dbp,mTbKWGVi,2020-0188,2020-05-08,11:06:14,11:23:17,NA,incomplete,162,shape,1,right,Blue_Plus_Grid_3.jpg,Red_Triangle_Grid_1.jpg,Purple_Plus_Dots_4.jpg,left,1054,false,high,NA,NA,NA,NA,NA,NA,NA,false
mTbKWGVi,3en4yvuovf59wipgxxflzhxwdchjxp,3lep4mgt3kdr3dkh976uw67i8e3dbp,mTbKWGVi,2020-0188,2020-05-08,11:06:14,11:23:17,NA,incomplete,163,shape,1,left,Green_Star_Chess_4.jpg,Purple_Star_Grid_1.jpg,Blue_Plus_Chess_2.jpg,left,910,true,high,NA,NA,NA,NA,NA,NA,NA,false
mTbKWGVi,3en4yvuovf59wipgxxflzhxwdchjxp,3lep4mgt3kdr3dkh976uw67i8e3dbp,mTbKWGVi,2020-0188,2020-05-08,11:06:14,11:23:17,NA,incomplete,164,shape,1,left,Purple_Circle_Grid_1.jpg,Green_Circle_Stripes_3.jpg,Red_Star_Grid_4.jpg,left,663,true,high,NA,NA,NA,NA,NA,NA,NA,false
mTbKWGVi,3en4yvuovf59wipgxxflzhxwdchjxp,3lep4mgt3kdr3dkh976uw67i8e3dbp,mTbKWGVi,2020-0188,2020-05-08,11:06:14,11:23:17,NA,incomplete,165,shape,1,right,Purple_Triangle_Grid_3.jpg,Green_Star_Grid_2.jpg,Red_Triangle_Dots_4.jpg,right,685,true,high,NA,NA,NA,NA,NA,NA,NA,false
mTbKWGVi,3en4yvuovf59wipgxxflzhxwdchjxp,3lep4mgt3kdr3dkh976uw67i8e3dbp,mTbKWGVi,2020-0188,2020-05-08,11:06:14,11:23:17,NA,incomplete,166,shape,1,right,Purple_Circle_Grid_3.jpg,Red_Star_Grid_1.jpg,Blue_Circle_Chess_4.jpg,right,533,true,high,NA,NA,NA,NA,NA,NA,NA,false
mTbKWGVi,3en4yvuovf59wipgxxflzhxwdchjxp,3lep4mgt3kdr3dkh976uw67i8e3dbp,mTbKWGVi,2020-0188,2020-05-08,11:06:14,11:23:17,NA,incomplete,167,shape,1,right,Purple_Plus_Dots_4.jpg,Red_Circle_Dots_3.jpg,Blue_Plus_Chess_1.jpg,right,745,true,high,NA,NA,NA,NA,NA,NA,NA,false
mTbKWGVi,3en4yvuovf59wipgxxflzhxwdchjxp,3lep4mgt3kdr3dkh976uw67i8e3dbp,mTbKWGVi,2020-0188,2020-05-08,11:06:14,11:23:17,NA,incomplete,168,shape,0,right,Purple_Star_Chess_3.jpg,Red_Circle_Chess_4.jpg,Blue_Star_Dots_1.jpg,right,586,true,high,NA,NA,NA,NA,NA,NA,NA,false
mTbKWGVi,3en4yvuovf59wipgxxflzhxwdchjxp,3lep4mgt3kdr3dkh976uw67i8e3dbp,mTbKWGVi,2020-0188,2020-05-08,11:06:14,11:23:17,NA,incomplete,169,shape,1,right,Blue_Triangle_Chess_2.jpg,Purple_Plus_Chess_4.jpg,Green_Triangle_Dots_1.jpg,right,625,true,high,NA,NA,NA,NA,NA,NA,NA,false
mTbKWGVi,3en4yvuovf59wipgxxflzhxwdchjxp,3lep4mgt3kdr3dkh976uw67i8e3dbp,mTbKWGVi,2020-0188,2020-05-08,11:06:14,11:23:17,NA,incomplete,170,shape,1,right,Red_Plus_Dots_2.jpg,Green_Triangle_Dots_3.jpg,Purple_Plus_Chess_1.jpg,right,736,true,high,NA,NA,NA,NA,NA,NA,NA,false
mTbKWGVi,3en4yvuovf59wipgxxflzhxwdchjxp,3lep4mgt3kdr3dkh976uw67i8e3dbp,mTbKWGVi,2020-0188,2020-05-08,11:06:14,11:23:17,NA,incomplete,171,shape,1,right,Purple_Triangle_Chess_1.jpg,Red_Plus_Chess_3.jpg,Green_Triangle_Grid_4.jpg,right,696,true,high,NA,NA,NA,NA,NA,NA,NA,false
mTbKWGVi,3en4yvuovf59wipgxxflzhxwdchjxp,3lep4mgt3kdr3dkh976uw67i8e3dbp,mTbKWGVi,2020-0188,2020-05-08,11:06:14,11:23:17,NA,incomplete,172,shape,0,right,Green_Triangle_Stripes_3.jpg,Red_Star_Stripes_4.jpg,Blue_Triangle_Grid_2.jpg,right,602,true,high,NA,NA,NA,NA,NA,NA,NA,false
mTbKWGVi,3en4yvuovf59wipgxxflzhxwdchjxp,3lep4mgt3kdr3dkh976uw67i8e3dbp,mTbKWGVi,2020-0188,2020-05-08,11:06:14,11:23:17,NA,incomplete,173,shape,1,left,Purple_Plus_Stripes_3.jpg,Green_Plus_Dots_2.jpg,Red_Star_Stripes_1.jpg,left,753,true,high,NA,NA,NA,NA,NA,NA,NA,false
mTbKWGVi,3en4yvuovf59wipgxxflzhxwdchjxp,3lep4mgt3kdr3dkh976uw67i8e3dbp,mTbKWGVi,2020-0188,2020-05-08,11:06:14,11:23:17,NA,incomplete,174,shape,1,right,Green_Triangle_Grid_1.jpg,Purple_Circle_Grid_4.jpg,Blue_Triangle_Dots_2.jpg,right,576,true,high,NA,NA,NA,NA,NA,NA,NA,false
mTbKWGVi,3en4yvuovf59wipgxxflzhxwdchjxp,3lep4mgt3kdr3dkh976uw67i8e3dbp,mTbKWGVi,2020-0188,2020-05-08,11:06:14,11:23:17,NA,incomplete,175,shape,1,right,Blue_Star_Dots_3.jpg,Green_Circle_Dots_1.jpg,Red_Star_Stripes_2.jpg,right,588,true,high,NA,NA,NA,NA,NA,NA,NA,false
mTbKWGVi,3en4yvuovf59wipgxxflzhxwdchjxp,3lep4mgt3kdr3dkh976uw67i8e3dbp,mTbKWGVi,2020-0188,2020-05-08,11:06:14,11:23:17,NA,incomplete,176,shape,0,left,Purple_Plus_Dots_1.jpg,Red_Plus_Chess_3.jpg,Green_Star_Dots_4.jpg,left,774,true,high,NA,NA,NA,NA,NA,NA,NA,false
mTbKWGVi,3en4yvuovf59wipgxxflzhxwdchjxp,3lep4mgt3kdr3dkh976uw67i8e3dbp,mTbKWGVi,2020-0188,2020-05-08,11:06:14,11:23:17,NA,incomplete,177,shape,1,right,Red_Star_Chess_4.jpg,Purple_Plus_Chess_1.jpg,Blue_Star_Dots_3.jpg,right,519,true,high,NA,NA,NA,NA,NA,NA,NA,false
mTbKWGVi,3en4yvuovf59wipgxxflzhxwdchjxp,3lep4mgt3kdr3dkh976uw67i8e3dbp,mTbKWGVi,2020-0188,2020-05-08,11:06:14,11:23:17,NA,incomplete,178,shape,0,right,Red_Circle_Stripes_3.jpg,Purple_Triangle_Stripes_2.jpg,Blue_Circle_Dots_4.jpg,right,557,true,high,NA,NA,NA,NA,NA,NA,NA,false
mTbKWGVi,3en4yvuovf59wipgxxflzhxwdchjxp,3lep4mgt3kdr3dkh976uw67i8e3dbp,mTbKWGVi,2020-0188,2020-05-08,11:06:14,11:23:17,NA,incomplete,179,shape,1,left,Purple_Plus_Dots_3.jpg,Blue_Plus_Chess_4.jpg,Red_Star_Dots_1.jpg,left,654,true,high,NA,NA,NA,NA,NA,NA,NA,false
mTbKWGVi,3en4yvuovf59wipgxxflzhxwdchjxp,3lep4mgt3kdr3dkh976uw67i8e3dbp,mTbKWGVi,2020-0188,2020-05-08,11:06:14,11:23:17,NA,incomplete,180,filling,1,right,Blue_Circle_Stripes_1.jpg,Purple_Circle_Chess_4.jpg,Red_Plus_Stripes_3.jpg,left,664,false,high,NA,NA,NA,NA,NA,NA,NA,false
mTbKWGVi,3en4yvuovf59wipgxxflzhxwdchjxp,3lep4mgt3kdr3dkh976uw67i8e3dbp,mTbKWGVi,2020-0188,2020-05-08,11:06:14,11:23:17,NA,incomplete,181,filling,1,left,Green_Star_Grid_4.jpg,Blue_Plus_Grid_1.jpg,Red_Star_Dots_2.jpg,right,585,false,high,NA,NA,NA,NA,NA,NA,NA,false
mTbKWGVi,3en4yvuovf59wipgxxflzhxwdchjxp,3lep4mgt3kdr3dkh976uw67i8e3dbp,mTbKWGVi,2020-0188,2020-05-08,11:06:14,11:23:17,NA,incomplete,182,filling,1,left,Red_Circle_Stripes_3.jpg,Blue_Star_Stripes_2.jpg,Purple_Circle_Chess_4.jpg,right,613,false,high,NA,NA,NA,NA,NA,NA,NA,false
mTbKWGVi,3en4yvuovf59wipgxxflzhxwdchjxp,3lep4mgt3kdr3dkh976uw67i8e3dbp,mTbKWGVi,2020-0188,2020-05-08,11:06:14,11:23:17,NA,incomplete,183,filling,1,right,Red_Circle_Grid_2.jpg,Purple_Circle_Dots_1.jpg,Green_Plus_Grid_3.jpg,right,746,true,high,NA,NA,NA,NA,NA,NA,NA,false
mTbKWGVi,3en4yvuovf59wipgxxflzhxwdchjxp,3lep4mgt3kdr3dkh976uw67i8e3dbp,mTbKWGVi,2020-0188,2020-05-08,11:06:14,11:23:17,NA,incomplete,184,filling,1,right,Blue_Plus_Chess_4.jpg,Green_Plus_Stripes_3.jpg,Red_Circle_Chess_1.jpg,right,873,true,high,NA,NA,NA,NA,NA,NA,NA,false
mTbKWGVi,3en4yvuovf59wipgxxflzhxwdchjxp,3lep4mgt3kdr3dkh976uw67i8e3dbp,mTbKWGVi,2020-0188,2020-05-08,11:06:14,11:23:17,NA,incomplete,185,filling,1,left,Red_Plus_Grid_1.jpg,Blue_Circle_Grid_3.jpg,Purple_Plus_Dots_2.jpg,left,1097,true,high,NA,NA,NA,NA,NA,NA,NA,false
mTbKWGVi,3en4yvuovf59wipgxxflzhxwdchjxp,3lep4mgt3kdr3dkh976uw67i8e3dbp,mTbKWGVi,2020-0188,2020-05-08,11:06:14,11:23:17,NA,incomplete,186,filling,1,right,Red_Star_Grid_4.jpg,Purple_Star_Dots_1.jpg,Blue_Triangle_Grid_2.jpg,right,801,true,high,NA,NA,NA,NA,NA,NA,NA,false
mTbKWGVi,3en4yvuovf59wipgxxflzhxwdchjxp,3lep4mgt3kdr3dkh976uw67i8e3dbp,mTbKWGVi,2020-0188,2020-05-08,11:06:14,11:23:17,NA,incomplete,187,filling,1,left,Purple_Circle_Stripes_1.jpg,Green_Plus_Stripes_4.jpg,Blue_Circle_Dots_3.jpg,left,817,true,high,NA,NA,NA,NA,NA,NA,NA,false
mTbKWGVi,3en4yvuovf59wipgxxflzhxwdchjxp,3lep4mgt3kdr3dkh976uw67i8e3dbp,mTbKWGVi,2020-0188,2020-05-08,11:06:14,11:23:17,NA,incomplete,188,filling,1,right,Purple_Circle_Stripes_2.jpg,Red_Circle_Chess_1.jpg,Green_Triangle_Stripes_3.jpg,right,707,true,high,NA,NA,NA,NA,NA,NA,NA,false
mTbKWGVi,3en4yvuovf59wipgxxflzhxwdchjxp,3lep4mgt3kdr3dkh976uw67i8e3dbp,mTbKWGVi,2020-0188,2020-05-08,11:06:14,11:23:17,NA,incomplete,189,filling,1,left,Green_Triangle_Stripes_2.jpg,Red_Star_Stripes_4.jpg,Blue_Triangle_Dots_3.jpg,left,786,true,high,NA,NA,NA,NA,NA,NA,NA,false
mTbKWGVi,3en4yvuovf59wipgxxflzhxwdchjxp,3lep4mgt3kdr3dkh976uw67i8e3dbp,mTbKWGVi,2020-0188,2020-05-08,11:06:14,11:23:17,NA,incomplete,190,filling,0,left,Red_Circle_Grid_4.jpg,Green_Plus_Grid_3.jpg,Blue_Circle_Dots_1.jpg,left,928,true,high,NA,NA,NA,NA,NA,NA,NA,false
mTbKWGVi,3en4yvuovf59wipgxxflzhxwdchjxp,3lep4mgt3kdr3dkh976uw67i8e3dbp,mTbKWGVi,2020-0188,2020-05-08,11:06:14,11:23:17,NA,incomplete,191,filling,1,right,Green_Circle_Chess_1.jpg,Red_Circle_Dots_2.jpg,Blue_Triangle_Chess_4.jpg,right,805,true,high,NA,NA,NA,NA,NA,NA,NA,false
mTbKWGVi,3en4yvuovf59wipgxxflzhxwdchjxp,3lep4mgt3kdr3dkh976uw67i8e3dbp,mTbKWGVi,2020-0188,2020-05-08,11:06:14,11:23:17,NA,incomplete,192,filling,1,left,Green_Plus_Dots_4.jpg,Purple_Triangle_Dots_1.jpg,Blue_Plus_Chess_2.jpg,left,948,true,high,NA,NA,NA,NA,NA,NA,NA,false
mTbKWGVi,3en4yvuovf59wipgxxflzhxwdchjxp,3lep4mgt3kdr3dkh976uw67i8e3dbp,mTbKWGVi,2020-0188,2020-05-08,11:06:14,11:23:17,NA,incomplete,193,filling,1,right,Blue_Triangle_Grid_4.jpg,Green_Triangle_Chess_1.jpg,Red_Star_Grid_3.jpg,right,970,true,high,NA,NA,NA,NA,NA,NA,NA,false
mTbKWGVi,3en4yvuovf59wipgxxflzhxwdchjxp,3lep4mgt3kdr3dkh976uw67i8e3dbp,mTbKWGVi,2020-0188,2020-05-08,11:06:14,11:23:17,NA,incomplete,194,filling,0,left,Blue_Triangle_Grid_3.jpg,Purple_Star_Grid_1.jpg,Green_Triangle_Chess_4.jpg,left,916,true,high,NA,NA,NA,NA,NA,NA,NA,false
mTbKWGVi,3en4yvuovf59wipgxxflzhxwdchjxp,3lep4mgt3kdr3dkh976uw67i8e3dbp,mTbKWGVi,2020-0188,2020-05-08,11:06:14,11:23:17,NA,incomplete,195,filling,1,right,Green_Circle_Dots_2.jpg,Blue_Circle_Stripes_1.jpg,Purple_Plus_Dots_3.jpg,right,1081,true,high,NA,NA,NA,NA,NA,NA,NA,false
mTbKWGVi,3en4yvuovf59wipgxxflzhxwdchjxp,3lep4mgt3kdr3dkh976uw67i8e3dbp,mTbKWGVi,2020-0188,2020-05-08,11:06:14,11:23:17,NA,incomplete,196,filling,1,right,Red_Plus_Grid_1.jpg,Blue_Plus_Chess_4.jpg,Purple_Circle_Grid_3.jpg,right,875,true,high,NA,NA,NA,NA,NA,NA,NA,false
mTbKWGVi,3en4yvuovf59wipgxxflzhxwdchjxp,3lep4mgt3kdr3dkh976uw67i8e3dbp,mTbKWGVi,2020-0188,2020-05-08,11:06:14,11:23:17,NA,incomplete,197,filling,1,left,Red_Star_Dots_1.jpg,Blue_Plus_Dots_3.jpg,Green_Star_Grid_4.jpg,left,737,true,high,NA,NA,NA,NA,NA,NA,NA,false
mTbKWGVi,3en4yvuovf59wipgxxflzhxwdchjxp,3lep4mgt3kdr3dkh976uw67i8e3dbp,mTbKWGVi,2020-0188,2020-05-08,11:06:14,11:23:17,NA,incomplete,198,filling,1,right,Green_Plus_Stripes_2.jpg,Purple_Plus_Grid_3.jpg,Blue_Star_Stripes_4.jpg,right,943,true,high,NA,NA,NA,NA,NA,NA,NA,false
mTbKWGVi,3en4yvuovf59wipgxxflzhxwdchjxp,3lep4mgt3kdr3dkh976uw67i8e3dbp,mTbKWGVi,2020-0188,2020-05-08,11:06:14,11:23:17,NA,incomplete,199,filling,1,right,Blue_Plus_Grid_4.jpg,Purple_Plus_Stripes_2.jpg,Red_Circle_Grid_1.jpg,left,799,false,high,NA,NA,NA,NA,NA,NA,NA,false
mTbKWGVi,3en4yvuovf59wipgxxflzhxwdchjxp,3lep4mgt3kdr3dkh976uw67i8e3dbp,mTbKWGVi,2020-0188,2020-05-08,11:06:14,11:23:17,NA,incomplete,200,shape,1,right,Green_Star_Grid_1.jpg,Blue_Circle_Grid_2.jpg,Red_Star_Chess_3.jpg,right,859,true,high,NA,NA,NA,NA,NA,NA,NA,false
mTbKWGVi,3en4yvuovf59wipgxxflzhxwdchjxp,3lep4mgt3kdr3dkh976uw67i8e3dbp,mTbKWGVi,2020-0188,2020-05-08,11:06:14,11:23:17,NA,incomplete,201,shape,1,left,Blue_Circle_Dots_2.jpg,Green_Circle_Chess_4.jpg,Red_Star_Dots_1.jpg,left,652,true,high,NA,NA,NA,NA,NA,NA,NA,false
mTbKWGVi,3en4yvuovf59wipgxxflzhxwdchjxp,3lep4mgt3kdr3dkh976uw67i8e3dbp,mTbKWGVi,2020-0188,2020-05-08,11:06:14,11:23:17,NA,incomplete,202,shape,1,right,Green_Plus_Grid_2.jpg,Red_Circle_Grid_3.jpg,Blue_Plus_Stripes_4.jpg,right,670,true,high,NA,NA,NA,NA,NA,NA,NA,false
mTbKWGVi,3en4yvuovf59wipgxxflzhxwdchjxp,3lep4mgt3kdr3dkh976uw67i8e3dbp,mTbKWGVi,2020-0188,2020-05-08,11:06:14,11:23:17,NA,incomplete,203,shape,1,right,Purple_Circle_Dots_3.jpg,Blue_Triangle_Dots_1.jpg,Red_Circle_Grid_4.jpg,right,665,true,high,NA,NA,NA,NA,NA,NA,NA,false
mTbKWGVi,3en4yvuovf59wipgxxflzhxwdchjxp,3lep4mgt3kdr3dkh976uw67i8e3dbp,mTbKWGVi,2020-0188,2020-05-08,11:06:14,11:23:17,NA,incomplete,204,shape,1,right,Purple_Star_Grid_1.jpg,Green_Triangle_Grid_3.jpg,Red_Star_Dots_4.jpg,right,617,true,high,NA,NA,NA,NA,NA,NA,NA,false
mTbKWGVi,3en4yvuovf59wipgxxflzhxwdchjxp,3lep4mgt3kdr3dkh976uw67i8e3dbp,mTbKWGVi,2020-0188,2020-05-08,11:06:14,11:23:17,NA,incomplete,205,shape,1,left,Blue_Triangle_Grid_4.jpg,Green_Triangle_Chess_2.jpg,Purple_Star_Grid_3.jpg,left,565,true,high,NA,NA,NA,NA,NA,NA,NA,false
mTbKWGVi,3en4yvuovf59wipgxxflzhxwdchjxp,3lep4mgt3kdr3dkh976uw67i8e3dbp,mTbKWGVi,2020-0188,2020-05-08,11:06:14,11:23:17,NA,incomplete,206,shape,0,right,Green_Triangle_Stripes_1.jpg,Red_Star_Stripes_4.jpg,Blue_Triangle_Chess_3.jpg,right,581,true,high,NA,NA,NA,NA,NA,NA,NA,false
mTbKWGVi,3en4yvuovf59wipgxxflzhxwdchjxp,3lep4mgt3kdr3dkh976uw67i8e3dbp,mTbKWGVi,2020-0188,2020-05-08,11:06:14,11:23:17,NA,incomplete,207,shape,1,right,Green_Circle_Stripes_4.jpg,Red_Triangle_Stripes_3.jpg,Purple_Circle_Dots_1.jpg,right,655,true,high,NA,NA,NA,NA,NA,NA,NA,false
mTbKWGVi,3en4yvuovf59wipgxxflzhxwdchjxp,3lep4mgt3kdr3dkh976uw67i8e3dbp,mTbKWGVi,2020-0188,2020-05-08,11:06:14,11:23:17,NA,incomplete,208,shape,1,right,Blue_Star_Grid_4.jpg,Green_Circle_Grid_1.jpg,Red_Star_Dots_2.jpg,right,652,true,high,NA,NA,NA,NA,NA,NA,NA,false
mTbKWGVi,3en4yvuovf59wipgxxflzhxwdchjxp,3lep4mgt3kdr3dkh976uw67i8e3dbp,mTbKWGVi,2020-0188,2020-05-08,11:06:14,11:23:17,NA,incomplete,209,shape,1,left,Blue_Plus_Chess_2.jpg,Red_Plus_Stripes_1.jpg,Green_Star_Chess_4.jpg,left,654,true,high,NA,NA,NA,NA,NA,NA,NA,false
mTbKWGVi,3en4yvuovf59wipgxxflzhxwdchjxp,3lep4mgt3kdr3dkh976uw67i8e3dbp,mTbKWGVi,2020-0188,2020-05-08,11:06:14,11:23:17,NA,incomplete,210,shape,1,right,Green_Triangle_Grid_1.jpg,Purple_Star_Grid_2.jpg,Red_Triangle_Dots_3.jpg,right,536,true,high,NA,NA,NA,NA,NA,NA,NA,false
mTbKWGVi,3en4yvuovf59wipgxxflzhxwdchjxp,3lep4mgt3kdr3dkh976uw67i8e3dbp,mTbKWGVi,2020-0188,2020-05-08,11:06:14,11:23:17,NA,incomplete,211,shape,1,right,Blue_Plus_Stripes_2.jpg,Green_Triangle_Stripes_1.jpg,Red_Plus_Chess_4.jpg,right,617,true,high,NA,NA,NA,NA,NA,NA,NA,false
mTbKWGVi,3en4yvuovf59wipgxxflzhxwdchjxp,3lep4mgt3kdr3dkh976uw67i8e3dbp,mTbKWGVi,2020-0188,2020-05-08,11:06:14,11:23:17,NA,incomplete,212,shape,0,left,Green_Star_Dots_2.jpg,Purple_Star_Grid_4.jpg,Red_Circle_Dots_1.jpg,left,595,true,high,NA,NA,NA,NA,NA,NA,NA,false
mTbKWGVi,3en4yvuovf59wipgxxflzhxwdchjxp,3lep4mgt3kdr3dkh976uw67i8e3dbp,mTbKWGVi,2020-0188,2020-05-08,11:06:14,11:23:17,NA,incomplete,213,shape,1,left,Green_Triangle_Dots_3.jpg,Red_Triangle_Chess_1.jpg,Purple_Star_Dots_2.jpg,left,659,true,high,NA,NA,NA,NA,NA,NA,NA,false
mTbKWGVi,3en4yvuovf59wipgxxflzhxwdchjxp,3lep4mgt3kdr3dkh976uw67i8e3dbp,mTbKWGVi,2020-0188,2020-05-08,11:06:14,11:23:17,NA,incomplete,214,shape,1,left,Red_Plus_Dots_4.jpg,Green_Plus_Stripes_3.jpg,Purple_Star_Dots_1.jpg,left,728,true,high,NA,NA,NA,NA,NA,NA,NA,false
mTbKWGVi,3en4yvuovf59wipgxxflzhxwdchjxp,3lep4mgt3kdr3dkh976uw67i8e3dbp,mTbKWGVi,2020-0188,2020-05-08,11:06:14,11:23:17,NA,incomplete,215,shape,1,right,Blue_Star_Dots_3.jpg,Red_Triangle_Dots_4.jpg,Green_Star_Chess_2.jpg,right,539,true,high,NA,NA,NA,NA,NA,NA,NA,false
mTbKWGVi,3en4yvuovf59wipgxxflzhxwdchjxp,3lep4mgt3kdr3dkh976uw67i8e3dbp,mTbKWGVi,2020-0188,2020-05-08,11:06:14,11:23:17,NA,incomplete,216,shape,0,left,Green_Circle_Stripes_4.jpg,Purple_Circle_Grid_3.jpg,Blue_Star_Stripes_2.jpg,left,554,true,high,NA,NA,NA,NA,NA,NA,NA,false
mTbKWGVi,3en4yvuovf59wipgxxflzhxwdchjxp,3lep4mgt3kdr3dkh976uw67i8e3dbp,mTbKWGVi,2020-0188,2020-05-08,11:06:14,11:23:17,NA,incomplete,217,shape,1,left,Red_Triangle_Grid_3.jpg,Purple_Triangle_Stripes_4.jpg,Green_Circle_Grid_2.jpg,left,616,true,high,NA,NA,NA,NA,NA,NA,NA,false
mTbKWGVi,3en4yvuovf59wipgxxflzhxwdchjxp,3lep4mgt3kdr3dkh976uw67i8e3dbp,mTbKWGVi,2020-0188,2020-05-08,11:06:14,11:23:17,NA,incomplete,218,shape,0,left,Red_Plus_Chess_3.jpg,Green_Plus_Stripes_2.jpg,Purple_Star_Chess_4.jpg,left,810,true,high,NA,NA,NA,NA,NA,NA,NA,false
mTbKWGVi,3en4yvuovf59wipgxxflzhxwdchjxp,3lep4mgt3kdr3dkh976uw67i8e3dbp,mTbKWGVi,2020-0188,2020-05-08,11:06:14,11:23:17,NA,incomplete,219,shape,1,left,Red_Triangle_Dots_2.jpg,Green_Triangle_Stripes_3.jpg,Blue_Plus_Dots_1.jpg,left,586,true,high,NA,NA,NA,NA,NA,NA,NA,false
mTbKWGVi,3en4yvuovf59wipgxxflzhxwdchjxp,3lep4mgt3kdr3dkh976uw67i8e3dbp,mTbKWGVi,2020-0188,2020-05-08,11:06:14,11:23:17,NA,incomplete,220,filling,1,left,Purple_Plus_Chess_4.jpg,Blue_Star_Chess_3.jpg,Green_Plus_Grid_1.jpg,right,1145,false,high,NA,NA,NA,NA,NA,NA,NA,false
mTbKWGVi,3en4yvuovf59wipgxxflzhxwdchjxp,3lep4mgt3kdr3dkh976uw67i8e3dbp,mTbKWGVi,2020-0188,2020-05-08,11:06:14,11:23:17,NA,incomplete,221,filling,1,left,Green_Star_Dots_4.jpg,Blue_Triangle_Dots_2.jpg,Red_Star_Grid_1.jpg,right,676,false,high,NA,NA,NA,NA,NA,NA,NA,false
mTbKWGVi,3en4yvuovf59wipgxxflzhxwdchjxp,3lep4mgt3kdr3dkh976uw67i8e3dbp,mTbKWGVi,2020-0188,2020-05-08,11:06:14,11:23:17,NA,incomplete,222,filling,1,right,Green_Circle_Grid_4.jpg,Purple_Circle_Chess_3.jpg,Blue_Plus_Grid_2.jpg,left,565,false,high,NA,NA,NA,NA,NA,NA,NA,false
mTbKWGVi,3en4yvuovf59wipgxxflzhxwdchjxp,3lep4mgt3kdr3dkh976uw67i8e3dbp,mTbKWGVi,2020-0188,2020-05-08,11:06:14,11:23:17,NA,incomplete,223,filling,1,left,Purple_Triangle_Stripes_3.jpg,Blue_Circle_Stripes_1.jpg,Green_Triangle_Chess_2.jpg,left,838,true,high,NA,NA,NA,NA,NA,NA,NA,false
mTbKWGVi,3en4yvuovf59wipgxxflzhxwdchjxp,3lep4mgt3kdr3dkh976uw67i8e3dbp,mTbKWGVi,2020-0188,2020-05-08,11:06:14,11:23:17,NA,incomplete,224,filling,0,left,Purple_Plus_Chess_1.jpg,Red_Triangle_Chess_3.jpg,Green_Plus_Stripes_4.jpg,left,1033,true,high,NA,NA,NA,NA,NA,NA,NA,false
mTbKWGVi,3en4yvuovf59wipgxxflzhxwdchjxp,3lep4mgt3kdr3dkh976uw67i8e3dbp,mTbKWGVi,2020-0188,2020-05-08,11:06:14,11:23:17,NA,incomplete,225,filling,1,right,Red_Star_Grid_3.jpg,Purple_Star_Dots_2.jpg,Blue_Triangle_Grid_4.jpg,right,1217,true,high,NA,NA,NA,NA,NA,NA,NA,false
mTbKWGVi,3en4yvuovf59wipgxxflzhxwdchjxp,3lep4mgt3kdr3dkh976uw67i8e3dbp,mTbKWGVi,2020-0188,2020-05-08,11:06:14,11:23:17,NA,incomplete,226,filling,1,left,Green_Triangle_Dots_3.jpg,Blue_Circle_Dots_4.jpg,Purple_Triangle_Grid_2.jpg,left,704,true,high,NA,NA,NA,NA,NA,NA,NA,false
mTbKWGVi,3en4yvuovf59wipgxxflzhxwdchjxp,3lep4mgt3kdr3dkh976uw67i8e3dbp,mTbKWGVi,2020-0188,2020-05-08,11:06:14,11:23:17,NA,incomplete,227,filling,0,right,Blue_Plus_Dots_1.jpg,Green_Plus_Stripes_4.jpg,Purple_Star_Dots_2.jpg,left,1467,false,high,NA,NA,NA,NA,NA,NA,NA,false
mTbKWGVi,3en4yvuovf59wipgxxflzhxwdchjxp,3lep4mgt3kdr3dkh976uw67i8e3dbp,mTbKWGVi,2020-0188,2020-05-08,11:06:14,11:23:17,NA,incomplete,228,filling,1,right,Green_Circle_Grid_2.jpg,Red_Circle_Chess_3.jpg,Purple_Plus_Grid_4.jpg,left,707,false,high,NA,NA,NA,NA,NA,NA,NA,false
mTbKWGVi,3en4yvuovf59wipgxxflzhxwdchjxp,3lep4mgt3kdr3dkh976uw67i8e3dbp,mTbKWGVi,2020-0188,2020-05-08,11:06:14,11:23:17,NA,incomplete,229,filling,1,right,Green_Star_Grid_3.jpg,Purple_Star_Chess_2.jpg,Blue_Circle_Grid_4.jpg,right,953,true,high,NA,NA,NA,NA,NA,NA,NA,false
mTbKWGVi,3en4yvuovf59wipgxxflzhxwdchjxp,3lep4mgt3kdr3dkh976uw67i8e3dbp,mTbKWGVi,2020-0188,2020-05-08,11:06:14,11:23:17,NA,incomplete,230,filling,1,left,Green_Star_Grid_2.jpg,Red_Triangle_Grid_4.jpg,Blue_Star_Chess_3.jpg,left,913,true,high,NA,NA,NA,NA,NA,NA,NA,false
mTbKWGVi,3en4yvuovf59wipgxxflzhxwdchjxp,3lep4mgt3kdr3dkh976uw67i8e3dbp,mTbKWGVi,2020-0188,2020-05-08,11:06:14,11:23:17,NA,incomplete,231,filling,1,right,Purple_Circle_Grid_3.jpg,Green_Circle_Stripes_2.jpg,Blue_Triangle_Grid_4.jpg,right,1007,true,high,NA,NA,NA,NA,NA,NA,NA,false
mTbKWGVi,3en4yvuovf59wipgxxflzhxwdchjxp,3lep4mgt3kdr3dkh976uw67i8e3dbp,mTbKWGVi,2020-0188,2020-05-08,11:06:14,11:23:17,NA,incomplete,232,filling,1,left,Red_Triangle_Grid_3.jpg,Green_Circle_Grid_2.jpg,Blue_Triangle_Chess_1.jpg,left,928,true,high,NA,NA,NA,NA,NA,NA,NA,false
mTbKWGVi,3en4yvuovf59wipgxxflzhxwdchjxp,3lep4mgt3kdr3dkh976uw67i8e3dbp,mTbKWGVi,2020-0188,2020-05-08,11:06:14,11:23:17,NA,incomplete,233,filling,0,right,Purple_Circle_Grid_3.jpg,Red_Circle_Chess_1.jpg,Green_Star_Grid_4.jpg,right,1030,true,high,NA,NA,NA,NA,NA,NA,NA,false
mTbKWGVi,3en4yvuovf59wipgxxflzhxwdchjxp,3lep4mgt3kdr3dkh976uw67i8e3dbp,mTbKWGVi,2020-0188,2020-05-08,11:06:14,11:23:17,NA,incomplete,234,filling,1,right,Purple_Star_Grid_2.jpg,Red_Star_Stripes_3.jpg,Green_Plus_Grid_4.jpg,right,837,true,high,NA,NA,NA,NA,NA,NA,NA,false
mTbKWGVi,3en4yvuovf59wipgxxflzhxwdchjxp,3lep4mgt3kdr3dkh976uw67i8e3dbp,mTbKWGVi,2020-0188,2020-05-08,11:06:14,11:23:17,NA,incomplete,235,filling,1,right,Green_Plus_Stripes_4.jpg,Purple_Plus_Dots_2.jpg,Red_Star_Stripes_1.jpg,right,962,true,high,NA,NA,NA,NA,NA,NA,NA,false
mTbKWGVi,3en4yvuovf59wipgxxflzhxwdchjxp,3lep4mgt3kdr3dkh976uw67i8e3dbp,mTbKWGVi,2020-0188,2020-05-08,11:06:14,11:23:17,NA,incomplete,236,filling,0,right,Green_Triangle_Stripes_3.jpg,Red_Triangle_Dots_4.jpg,Purple_Star_Stripes_2.jpg,left,711,false,high,NA,NA,NA,NA,NA,NA,NA,false
mTbKWGVi,3en4yvuovf59wipgxxflzhxwdchjxp,3lep4mgt3kdr3dkh976uw67i8e3dbp,mTbKWGVi,2020-0188,2020-05-08,11:06:14,11:23:17,NA,incomplete,237,filling,1,left,Blue_Triangle_Dots_2.jpg,Red_Plus_Dots_1.jpg,Purple_Triangle_Chess_4.jpg,right,706,false,high,NA,NA,NA,NA,NA,NA,NA,false
mTbKWGVi,3en4yvuovf59wipgxxflzhxwdchjxp,3lep4mgt3kdr3dkh976uw67i8e3dbp,mTbKWGVi,2020-0188,2020-05-08,11:06:14,11:23:17,NA,incomplete,238,filling,0,left,Blue_Triangle_Dots_1.jpg,Red_Circle_Dots_4.jpg,Purple_Triangle_Chess_2.jpg,left,781,true,high,NA,NA,NA,NA,NA,NA,NA,false
mTbKWGVi,3en4yvuovf59wipgxxflzhxwdchjxp,3lep4mgt3kdr3dkh976uw67i8e3dbp,mTbKWGVi,2020-0188,2020-05-08,11:06:14,11:23:17,NA,incomplete,239,filling,1,right,Blue_Plus_Grid_3.jpg,Red_Plus_Stripes_1.jpg,Green_Circle_Grid_4.jpg,right,661,true,high,NA,NA,NA,NA,NA,NA,NA,false
mTbKWGVi,3en4yvuovf59wipgxxflzhxwdchjxp,3lep4mgt3kdr3dkh976uw67i8e3dbp,mTbKWGVi,2020-0188,2020-05-08,11:06:14,11:23:17,1000302,1025198,NA,NA,NA,NA,NA,NA,NA,NA,NA,NA,NA,30,White/Caucasian,Male,White,no,no,no,undefined
