workerId,hitId,assignmentId,subject,studyid,exp_date,exp_start,exp_end,time_start,time_end,trial,type,reward_validity,answer,image_top,image_left,image_right,response,response_time,response_acc,volatility,age,race,gender,ethnicity,color,vision,neuro,practice
9KUOnqGH,3vll1pieot1c2ogsesvb4yutk6poza,3lotdfnyabcgp0wov4xg7knous1fwi,9KUOnqGH,2020-0188,2020-05-08,09:38:11,09:52:48,NA,incomplete,0,filling,1,left,Blue_Circle_Grid_4.jpg,Red_Star_Grid_3.jpg,Blue_Plus_Dots_1.jpg,left,1238.454999984242,true,NA,NA,NA,NA,NA,NA,NA,NA,true
9KUOnqGH,3vll1pieot1c2ogsesvb4yutk6poza,3lotdfnyabcgp0wov4xg7knous1fwi,9KUOnqGH,2020-0188,2020-05-08,09:38:11,09:52:48,NA,incomplete,1,filling,1,right,Red_Circle_Stripes_3.jpg,Red_Star_Dots_1.jpg,Green_Triangle_Stripes_4.jpg,right,694.7350000264123,true,NA,NA,NA,NA,NA,NA,NA,NA,true
9KUOnqGH,3vll1pieot1c2ogsesvb4yutk6poza,3lotdfnyabcgp0wov4xg7knous1fwi,9KUOnqGH,2020-0188,2020-05-08,09:38:11,09:52:48,NA,incomplete,2,filling,1,right,Blue_Plus_Chess_3.jpg,Blue_Circle_Stripes_4.jpg,Green_Star_Chess_1.jpg,right,813.285000011092,true,NA,NA,NA,NA,NA,NA,NA,NA,true
9KUOnqGH,3vll1pieot1c2ogsesvb4yutk6poza,3lotdfnyabcgp0wov4xg7knous1fwi,9KUOnqGH,2020-0188,2020-05-08,09:38:11,09:52:48,NA,incomplete,3,filling,0,left,Red_Circle_Chess_3.jpg,Purple_Star_Chess_2.jpg,Red_Plus_Dots_1.jpg,left,1091.9399999838788,true,NA,NA,NA,NA,NA,NA,NA,NA,true
9KUOnqGH,3vll1pieot1c2ogsesvb4yutk6poza,3lotdfnyabcgp0wov4xg7knous1fwi,9KUOnqGH,2020-0188,2020-05-08,09:38:11,09:52:48,NA,incomplete,4,filling,1,right,Blue_Star_Chess_2.jpg,Blue_Circle_Stripes_3.jpg,Red_Triangle_Chess_1.jpg,right,854.189999983646,true,NA,NA,NA,NA,NA,NA,NA,NA,true
9KUOnqGH,3vll1pieot1c2ogsesvb4yutk6poza,3lotdfnyabcgp0wov4xg7knous1fwi,9KUOnqGH,2020-0188,2020-05-08,09:38:11,09:52:48,NA,incomplete,5,filling,1,right,Green_Circle_Dots_4.jpg,Green_Triangle_Grid_2.jpg,Blue_Star_Dots_1.jpg,left,641.0099999920931,false,NA,NA,NA,NA,NA,NA,NA,NA,true
9KUOnqGH,3vll1pieot1c2ogsesvb4yutk6poza,3lotdfnyabcgp0wov4xg7knous1fwi,9KUOnqGH,2020-0188,2020-05-08,09:38:11,09:52:48,NA,incomplete,6,filling,1,left,Green_Triangle_Stripes_4.jpg,Purple_Plus_Stripes_1.jpg,Green_Star_Chess_3.jpg,left,803.3750000176951,true,NA,NA,NA,NA,NA,NA,NA,NA,true
9KUOnqGH,3vll1pieot1c2ogsesvb4yutk6poza,3lotdfnyabcgp0wov4xg7knous1fwi,9KUOnqGH,2020-0188,2020-05-08,09:38:11,09:52:48,NA,incomplete,7,filling,1,left,Red_Circle_Chess_4.jpg,Blue_Star_Chess_1.jpg,Red_Plus_Dots_3.jpg,left,872.7249999938067,true,NA,NA,NA,NA,NA,NA,NA,NA,true
9KUOnqGH,3vll1pieot1c2ogsesvb4yutk6poza,3lotdfnyabcgp0wov4xg7knous1fwi,9KUOnqGH,2020-0188,2020-05-08,09:38:11,09:52:48,NA,incomplete,8,filling,1,left,Red_Star_Chess_3.jpg,Purple_Triangle_Chess_4.jpg,Red_Circle_Grid_2.jpg,left,880.700000008801,true,NA,NA,NA,NA,NA,NA,NA,NA,true
9KUOnqGH,3vll1pieot1c2ogsesvb4yutk6poza,3lotdfnyabcgp0wov4xg7knous1fwi,9KUOnqGH,2020-0188,2020-05-08,09:38:11,09:52:48,NA,incomplete,9,filling,0,left,Red_Star_Stripes_1.jpg,Purple_Plus_Stripes_2.jpg,Red_Triangle_Chess_4.jpg,left,815.2899999986403,true,NA,NA,NA,NA,NA,NA,NA,NA,true
9KUOnqGH,3vll1pieot1c2ogsesvb4yutk6poza,3lotdfnyabcgp0wov4xg7knous1fwi,9KUOnqGH,2020-0188,2020-05-08,09:38:11,09:52:48,NA,incomplete,10,filling,0,left,Purple_Star_Grid_2.jpg,Red_Triangle_Grid_4.jpg,Purple_Plus_Chess_3.jpg,left,917.2550000075717,true,NA,NA,NA,NA,NA,NA,NA,NA,true
9KUOnqGH,3vll1pieot1c2ogsesvb4yutk6poza,3lotdfnyabcgp0wov4xg7knous1fwi,9KUOnqGH,2020-0188,2020-05-08,09:38:11,09:52:48,NA,incomplete,11,filling,1,right,Red_Star_Stripes_4.jpg,Red_Plus_Chess_3.jpg,Blue_Circle_Stripes_2.jpg,left,1073.709999996936,false,NA,NA,NA,NA,NA,NA,NA,NA,true
9KUOnqGH,3vll1pieot1c2ogsesvb4yutk6poza,3lotdfnyabcgp0wov4xg7knous1fwi,9KUOnqGH,2020-0188,2020-05-08,09:38:11,09:52:48,NA,incomplete,12,filling,1,left,Blue_Triangle_Grid_4.jpg,Red_Star_Grid_1.jpg,Blue_Circle_Chess_3.jpg,left,1022.110000019893,true,NA,NA,NA,NA,NA,NA,NA,NA,true
9KUOnqGH,3vll1pieot1c2ogsesvb4yutk6poza,3lotdfnyabcgp0wov4xg7knous1fwi,9KUOnqGH,2020-0188,2020-05-08,09:38:11,09:52:48,NA,incomplete,13,filling,1,left,Purple_Plus_Chess_2.jpg,Green_Circle_Chess_3.jpg,Purple_Triangle_Dots_4.jpg,left,1061.985000007553,true,NA,NA,NA,NA,NA,NA,NA,NA,true
9KUOnqGH,3vll1pieot1c2ogsesvb4yutk6poza,3lotdfnyabcgp0wov4xg7knous1fwi,9KUOnqGH,2020-0188,2020-05-08,09:38:11,09:52:48,NA,incomplete,14,filling,1,right,Green_Circle_Chess_2.jpg,Green_Star_Stripes_3.jpg,Blue_Plus_Chess_4.jpg,right,875.8700000180397,true,NA,NA,NA,NA,NA,NA,NA,NA,true
9KUOnqGH,3vll1pieot1c2ogsesvb4yutk6poza,3lotdfnyabcgp0wov4xg7knous1fwi,9KUOnqGH,2020-0188,2020-05-08,09:38:11,09:52:48,NA,incomplete,15,filling,0,left,Green_Star_Stripes_4.jpg,Red_Plus_Stripes_2.jpg,Green_Circle_Dots_3.jpg,left,787.9200000024866,true,NA,NA,NA,NA,NA,NA,NA,NA,true
9KUOnqGH,3vll1pieot1c2ogsesvb4yutk6poza,3lotdfnyabcgp0wov4xg7knous1fwi,9KUOnqGH,2020-0188,2020-05-08,09:38:11,09:52:48,NA,incomplete,16,filling,1,right,Red_Star_Stripes_2.jpg,Red_Triangle_Chess_3.jpg,Purple_Circle_Stripes_4.jpg,right,918.2649999856949,true,NA,NA,NA,NA,NA,NA,NA,NA,true
9KUOnqGH,3vll1pieot1c2ogsesvb4yutk6poza,3lotdfnyabcgp0wov4xg7knous1fwi,9KUOnqGH,2020-0188,2020-05-08,09:38:11,09:52:48,NA,incomplete,17,filling,0,right,Red_Circle_Chess_1.jpg,Red_Triangle_Grid_2.jpg,Purple_Star_Chess_3.jpg,right,979.5949999825098,true,NA,NA,NA,NA,NA,NA,NA,NA,true
9KUOnqGH,3vll1pieot1c2ogsesvb4yutk6poza,3lotdfnyabcgp0wov4xg7knous1fwi,9KUOnqGH,2020-0188,2020-05-08,09:38:11,09:52:48,NA,incomplete,18,filling,1,left,Purple_Circle_Chess_3.jpg,Red_Star_Chess_4.jpg,Purple_Plus_Dots_1.jpg,left,852.8250000090338,true,NA,NA,NA,NA,NA,NA,NA,NA,true
9KUOnqGH,3vll1pieot1c2ogsesvb4yutk6poza,3lotdfnyabcgp0wov4xg7knous1fwi,9KUOnqGH,2020-0188,2020-05-08,09:38:11,09:52:48,NA,incomplete,19,filling,1,right,Blue_Triangle_Dots_2.jpg,Blue_Plus_Grid_4.jpg,Purple_Star_Dots_1.jpg,right,911.1399999819696,true,NA,NA,NA,NA,NA,NA,NA,NA,true
9KUOnqGH,3vll1pieot1c2ogsesvb4yutk6poza,3lotdfnyabcgp0wov4xg7knous1fwi,9KUOnqGH,2020-0188,2020-05-08,09:38:11,09:52:48,NA,incomplete,20,color,1,right,Purple_Star_Chess_1.jpg,Blue_Plus_Chess_4.jpg,Purple_Triangle_Stripes_2.jpg,left,978.8249999983236,false,NA,NA,NA,NA,NA,NA,NA,NA,true
9KUOnqGH,3vll1pieot1c2ogsesvb4yutk6poza,3lotdfnyabcgp0wov4xg7knous1fwi,9KUOnqGH,2020-0188,2020-05-08,09:38:11,09:52:48,NA,incomplete,21,color,1,right,Green_Plus_Stripes_1.jpg,Red_Star_Stripes_2.jpg,Green_Circle_Grid_3.jpg,right,1021.6900000232272,true,NA,NA,NA,NA,NA,NA,NA,NA,true
9KUOnqGH,3vll1pieot1c2ogsesvb4yutk6poza,3lotdfnyabcgp0wov4xg7knous1fwi,9KUOnqGH,2020-0188,2020-05-08,09:38:11,09:52:48,NA,incomplete,22,color,1,right,Purple_Plus_Chess_4.jpg,Red_Triangle_Chess_1.jpg,Purple_Star_Dots_3.jpg,right,897.1900000178721,true,NA,NA,NA,NA,NA,NA,NA,NA,true
9KUOnqGH,3vll1pieot1c2ogsesvb4yutk6poza,3lotdfnyabcgp0wov4xg7knous1fwi,9KUOnqGH,2020-0188,2020-05-08,09:38:11,09:52:48,NA,incomplete,23,color,1,right,Purple_Star_Dots_4.jpg,Red_Circle_Dots_2.jpg,Purple_Triangle_Stripes_1.jpg,right,789.7750000120141,true,NA,NA,NA,NA,NA,NA,NA,NA,true
9KUOnqGH,3vll1pieot1c2ogsesvb4yutk6poza,3lotdfnyabcgp0wov4xg7knous1fwi,9KUOnqGH,2020-0188,2020-05-08,09:38:11,09:52:48,NA,incomplete,24,color,1,left,Red_Star_Chess_3.jpg,Red_Triangle_Grid_1.jpg,Blue_Circle_Chess_2.jpg,left,862.9950000031386,true,NA,NA,NA,NA,NA,NA,NA,NA,true
9KUOnqGH,3vll1pieot1c2ogsesvb4yutk6poza,3lotdfnyabcgp0wov4xg7knous1fwi,9KUOnqGH,2020-0188,2020-05-08,09:38:11,09:52:48,NA,incomplete,25,color,1,right,Blue_Triangle_Chess_3.jpg,Purple_Plus_Chess_2.jpg,Blue_Circle_Grid_1.jpg,right,878.6349999718368,true,NA,NA,NA,NA,NA,NA,NA,NA,true
9KUOnqGH,3vll1pieot1c2ogsesvb4yutk6poza,3lotdfnyabcgp0wov4xg7knous1fwi,9KUOnqGH,2020-0188,2020-05-08,09:38:11,09:52:48,NA,incomplete,26,color,0,left,Purple_Plus_Dots_1.jpg,Purple_Triangle_Chess_2.jpg,Red_Star_Dots_3.jpg,left,766.6199999803212,true,NA,NA,NA,NA,NA,NA,NA,NA,true
9KUOnqGH,3vll1pieot1c2ogsesvb4yutk6poza,3lotdfnyabcgp0wov4xg7knous1fwi,9KUOnqGH,2020-0188,2020-05-08,09:38:11,09:52:48,NA,incomplete,27,color,1,right,Blue_Circle_Chess_3.jpg,Green_Plus_Chess_2.jpg,Blue_Triangle_Dots_4.jpg,right,800.3350000071805,true,NA,NA,NA,NA,NA,NA,NA,NA,true
9KUOnqGH,3vll1pieot1c2ogsesvb4yutk6poza,3lotdfnyabcgp0wov4xg7knous1fwi,9KUOnqGH,2020-0188,2020-05-08,09:38:11,09:52:48,NA,incomplete,28,color,1,left,Purple_Circle_Grid_3.jpg,Purple_Triangle_Chess_2.jpg,Green_Star_Grid_4.jpg,left,703.3949999895412,true,NA,NA,NA,NA,NA,NA,NA,NA,true
9KUOnqGH,3vll1pieot1c2ogsesvb4yutk6poza,3lotdfnyabcgp0wov4xg7knous1fwi,9KUOnqGH,2020-0188,2020-05-08,09:38:11,09:52:48,NA,incomplete,29,color,1,left,Green_Circle_Stripes_3.jpg,Green_Triangle_Chess_1.jpg,Purple_Plus_Stripes_4.jpg,left,692.6999999850523,true,NA,NA,NA,NA,NA,NA,NA,NA,true
9KUOnqGH,3vll1pieot1c2ogsesvb4yutk6poza,3lotdfnyabcgp0wov4xg7knous1fwi,9KUOnqGH,2020-0188,2020-05-08,09:38:11,09:52:48,NA,incomplete,30,color,1,left,Red_Plus_Chess_2.jpg,Red_Star_Stripes_1.jpg,Green_Circle_Chess_3.jpg,left,933.1400000082795,true,NA,NA,NA,NA,NA,NA,NA,NA,true
9KUOnqGH,3vll1pieot1c2ogsesvb4yutk6poza,3lotdfnyabcgp0wov4xg7knous1fwi,9KUOnqGH,2020-0188,2020-05-08,09:38:11,09:52:48,NA,incomplete,31,color,1,right,Red_Plus_Stripes_2.jpg,Green_Star_Stripes_3.jpg,Red_Circle_Grid_1.jpg,right,769.4250000058673,true,NA,NA,NA,NA,NA,NA,NA,NA,true
9KUOnqGH,3vll1pieot1c2ogsesvb4yutk6poza,3lotdfnyabcgp0wov4xg7knous1fwi,9KUOnqGH,2020-0188,2020-05-08,09:38:11,09:52:48,NA,incomplete,32,color,1,left,Blue_Plus_Stripes_3.jpg,Blue_Circle_Grid_4.jpg,Red_Triangle_Stripes_2.jpg,left,698.0399999883957,true,NA,NA,NA,NA,NA,NA,NA,NA,true
9KUOnqGH,3vll1pieot1c2ogsesvb4yutk6poza,3lotdfnyabcgp0wov4xg7knous1fwi,9KUOnqGH,2020-0188,2020-05-08,09:38:11,09:52:48,NA,incomplete,33,color,1,left,Purple_Circle_Stripes_3.jpg,Purple_Star_Dots_1.jpg,Red_Triangle_Stripes_2.jpg,left,757.5300000025891,true,NA,NA,NA,NA,NA,NA,NA,NA,true
9KUOnqGH,3vll1pieot1c2ogsesvb4yutk6poza,3lotdfnyabcgp0wov4xg7knous1fwi,9KUOnqGH,2020-0188,2020-05-08,09:38:11,09:52:48,NA,incomplete,34,color,1,right,Green_Circle_Chess_3.jpg,Purple_Triangle_Chess_4.jpg,Green_Plus_Grid_1.jpg,right,622.7099999960046,true,NA,NA,NA,NA,NA,NA,NA,NA,true
9KUOnqGH,3vll1pieot1c2ogsesvb4yutk6poza,3lotdfnyabcgp0wov4xg7knous1fwi,9KUOnqGH,2020-0188,2020-05-08,09:38:11,09:52:48,NA,incomplete,35,color,0,left,Purple_Triangle_Chess_1.jpg,Purple_Plus_Stripes_4.jpg,Red_Star_Chess_2.jpg,left,658.3450000034645,true,NA,NA,NA,NA,NA,NA,NA,NA,true
9KUOnqGH,3vll1pieot1c2ogsesvb4yutk6poza,3lotdfnyabcgp0wov4xg7knous1fwi,9KUOnqGH,2020-0188,2020-05-08,09:38:11,09:52:48,NA,incomplete,36,color,1,right,Red_Star_Stripes_2.jpg,Green_Circle_Stripes_3.jpg,Red_Plus_Grid_4.jpg,right,756.150000001071,true,NA,NA,NA,NA,NA,NA,NA,NA,true
9KUOnqGH,3vll1pieot1c2ogsesvb4yutk6poza,3lotdfnyabcgp0wov4xg7knous1fwi,9KUOnqGH,2020-0188,2020-05-08,09:38:11,09:52:48,NA,incomplete,37,color,1,right,Purple_Triangle_Chess_1.jpg,Green_Star_Chess_4.jpg,Purple_Plus_Stripes_2.jpg,right,715.7200000074226,true,NA,NA,NA,NA,NA,NA,NA,NA,true
9KUOnqGH,3vll1pieot1c2ogsesvb4yutk6poza,3lotdfnyabcgp0wov4xg7knous1fwi,9KUOnqGH,2020-0188,2020-05-08,09:38:11,09:52:48,NA,incomplete,38,color,0,left,Red_Triangle_Grid_1.jpg,Red_Star_Stripes_2.jpg,Green_Circle_Grid_3.jpg,left,714.8349999915808,true,NA,NA,NA,NA,NA,NA,NA,NA,true
9KUOnqGH,3vll1pieot1c2ogsesvb4yutk6poza,3lotdfnyabcgp0wov4xg7knous1fwi,9KUOnqGH,2020-0188,2020-05-08,09:38:11,09:52:48,NA,incomplete,39,color,1,right,Purple_Circle_Grid_1.jpg,Red_Star_Grid_4.jpg,Purple_Plus_Stripes_2.jpg,right,820.3649999923073,true,NA,NA,NA,NA,NA,NA,NA,NA,true
9KUOnqGH,3vll1pieot1c2ogsesvb4yutk6poza,3lotdfnyabcgp0wov4xg7knous1fwi,9KUOnqGH,2020-0188,2020-05-08,09:38:11,09:52:48,NA,incomplete,0,filling,1,left,Red_Triangle_Dots_3.jpg,Purple_Plus_Dots_2.jpg,Red_Circle_Stripes_4.jpg,right,701.5949999913573,false,low,NA,NA,NA,NA,NA,NA,NA,false
9KUOnqGH,3vll1pieot1c2ogsesvb4yutk6poza,3lotdfnyabcgp0wov4xg7knous1fwi,9KUOnqGH,2020-0188,2020-05-08,09:38:11,09:52:48,NA,incomplete,1,filling,1,right,Red_Triangle_Chess_4.jpg,Red_Circle_Stripes_2.jpg,Green_Star_Chess_3.jpg,right,868.9300000260118,true,low,NA,NA,NA,NA,NA,NA,NA,false
9KUOnqGH,3vll1pieot1c2ogsesvb4yutk6poza,3lotdfnyabcgp0wov4xg7knous1fwi,9KUOnqGH,2020-0188,2020-05-08,09:38:11,09:52:48,NA,incomplete,2,filling,1,right,Green_Circle_Chess_4.jpg,Green_Star_Dots_2.jpg,Purple_Triangle_Chess_3.jpg,right,765.1000000187196,true,low,NA,NA,NA,NA,NA,NA,NA,false
9KUOnqGH,3vll1pieot1c2ogsesvb4yutk6poza,3lotdfnyabcgp0wov4xg7knous1fwi,9KUOnqGH,2020-0188,2020-05-08,09:38:11,09:52:48,NA,incomplete,3,filling,1,right,Blue_Star_Grid_2.jpg,Blue_Plus_Dots_4.jpg,Purple_Triangle_Grid_1.jpg,right,934.6450000011828,true,low,NA,NA,NA,NA,NA,NA,NA,false
9KUOnqGH,3vll1pieot1c2ogsesvb4yutk6poza,3lotdfnyabcgp0wov4xg7knous1fwi,9KUOnqGH,2020-0188,2020-05-08,09:38:11,09:52:48,NA,incomplete,4,filling,1,left,Green_Triangle_Stripes_4.jpg,Purple_Star_Stripes_1.jpg,Green_Circle_Dots_3.jpg,left,874.6499999833759,true,low,NA,NA,NA,NA,NA,NA,NA,false
9KUOnqGH,3vll1pieot1c2ogsesvb4yutk6poza,3lotdfnyabcgp0wov4xg7knous1fwi,9KUOnqGH,2020-0188,2020-05-08,09:38:11,09:52:48,NA,incomplete,5,filling,1,left,Red_Plus_Dots_3.jpg,Blue_Triangle_Dots_2.jpg,Red_Circle_Grid_1.jpg,left,860.4099999938626,true,low,NA,NA,NA,NA,NA,NA,NA,false
9KUOnqGH,3vll1pieot1c2ogsesvb4yutk6poza,3lotdfnyabcgp0wov4xg7knous1fwi,9KUOnqGH,2020-0188,2020-05-08,09:38:11,09:52:48,NA,incomplete,6,filling,1,left,Red_Circle_Dots_4.jpg,Green_Triangle_Dots_2.jpg,Red_Plus_Stripes_3.jpg,left,879.4350000098348,true,low,NA,NA,NA,NA,NA,NA,NA,false
9KUOnqGH,3vll1pieot1c2ogsesvb4yutk6poza,3lotdfnyabcgp0wov4xg7knous1fwi,9KUOnqGH,2020-0188,2020-05-08,09:38:11,09:52:48,NA,incomplete,7,filling,1,right,Green_Circle_Stripes_1.jpg,Green_Star_Grid_2.jpg,Red_Triangle_Stripes_4.jpg,right,785.3450000111479,true,low,NA,NA,NA,NA,NA,NA,NA,false
9KUOnqGH,3vll1pieot1c2ogsesvb4yutk6poza,3lotdfnyabcgp0wov4xg7knous1fwi,9KUOnqGH,2020-0188,2020-05-08,09:38:11,09:52:48,NA,incomplete,8,filling,1,left,Green_Circle_Grid_2.jpg,Purple_Star_Grid_1.jpg,Green_Plus_Stripes_3.jpg,right,714.1049999918323,false,low,NA,NA,NA,NA,NA,NA,NA,false
9KUOnqGH,3vll1pieot1c2ogsesvb4yutk6poza,3lotdfnyabcgp0wov4xg7knous1fwi,9KUOnqGH,2020-0188,2020-05-08,09:38:11,09:52:48,NA,incomplete,9,filling,1,right,Purple_Plus_Grid_1.jpg,Purple_Circle_Chess_4.jpg,Green_Triangle_Grid_3.jpg,right,952.2199999773875,true,low,NA,NA,NA,NA,NA,NA,NA,false
9KUOnqGH,3vll1pieot1c2ogsesvb4yutk6poza,3lotdfnyabcgp0wov4xg7knous1fwi,9KUOnqGH,2020-0188,2020-05-08,09:38:11,09:52:48,NA,incomplete,10,filling,1,left,Purple_Triangle_Dots_2.jpg,Blue_Star_Dots_4.jpg,Purple_Plus_Stripes_3.jpg,left,811.8449999892619,true,low,NA,NA,NA,NA,NA,NA,NA,false
9KUOnqGH,3vll1pieot1c2ogsesvb4yutk6poza,3lotdfnyabcgp0wov4xg7knous1fwi,9KUOnqGH,2020-0188,2020-05-08,09:38:11,09:52:48,NA,incomplete,11,filling,1,left,Purple_Circle_Chess_3.jpg,Blue_Plus_Chess_4.jpg,Purple_Star_Dots_1.jpg,left,733.5500000044703,true,low,NA,NA,NA,NA,NA,NA,NA,false
9KUOnqGH,3vll1pieot1c2ogsesvb4yutk6poza,3lotdfnyabcgp0wov4xg7knous1fwi,9KUOnqGH,2020-0188,2020-05-08,09:38:11,09:52:48,NA,incomplete,12,filling,1,left,Red_Star_Dots_2.jpg,Purple_Plus_Dots_3.jpg,Red_Triangle_Grid_1.jpg,left,879.1549999732524,true,low,NA,NA,NA,NA,NA,NA,NA,false
9KUOnqGH,3vll1pieot1c2ogsesvb4yutk6poza,3lotdfnyabcgp0wov4xg7knous1fwi,9KUOnqGH,2020-0188,2020-05-08,09:38:11,09:52:48,NA,incomplete,13,filling,1,left,Purple_Plus_Chess_4.jpg,Green_Circle_Chess_1.jpg,Purple_Triangle_Stripes_2.jpg,left,827.8900000150315,true,low,NA,NA,NA,NA,NA,NA,NA,false
9KUOnqGH,3vll1pieot1c2ogsesvb4yutk6poza,3lotdfnyabcgp0wov4xg7knous1fwi,9KUOnqGH,2020-0188,2020-05-08,09:38:11,09:52:48,NA,incomplete,14,filling,1,right,Blue_Plus_Dots_2.jpg,Blue_Circle_Grid_3.jpg,Green_Star_Dots_4.jpg,right,824.8249999887776,true,low,NA,NA,NA,NA,NA,NA,NA,false
9KUOnqGH,3vll1pieot1c2ogsesvb4yutk6poza,3lotdfnyabcgp0wov4xg7knous1fwi,9KUOnqGH,2020-0188,2020-05-08,09:38:11,09:52:48,NA,incomplete,15,filling,0,right,Purple_Circle_Dots_2.jpg,Purple_Star_Chess_4.jpg,Green_Triangle_Dots_1.jpg,right,855.005000019446,true,low,NA,NA,NA,NA,NA,NA,NA,false
9KUOnqGH,3vll1pieot1c2ogsesvb4yutk6poza,3lotdfnyabcgp0wov4xg7knous1fwi,9KUOnqGH,2020-0188,2020-05-08,09:38:11,09:52:48,NA,incomplete,16,filling,1,left,Blue_Star_Stripes_3.jpg,Green_Circle_Stripes_1.jpg,Blue_Triangle_Grid_4.jpg,right,726.569999998901,false,low,NA,NA,NA,NA,NA,NA,NA,false
9KUOnqGH,3vll1pieot1c2ogsesvb4yutk6poza,3lotdfnyabcgp0wov4xg7knous1fwi,9KUOnqGH,2020-0188,2020-05-08,09:38:11,09:52:48,NA,incomplete,17,filling,1,left,Blue_Circle_Grid_3.jpg,Red_Triangle_Grid_1.jpg,Blue_Star_Chess_2.jpg,left,839.204999996582,true,low,NA,NA,NA,NA,NA,NA,NA,false
9KUOnqGH,3vll1pieot1c2ogsesvb4yutk6poza,3lotdfnyabcgp0wov4xg7knous1fwi,9KUOnqGH,2020-0188,2020-05-08,09:38:11,09:52:48,NA,incomplete,18,filling,1,left,Red_Circle_Dots_4.jpg,Green_Star_Dots_1.jpg,Red_Plus_Chess_3.jpg,left,816.0750000097323,true,low,NA,NA,NA,NA,NA,NA,NA,false
9KUOnqGH,3vll1pieot1c2ogsesvb4yutk6poza,3lotdfnyabcgp0wov4xg7knous1fwi,9KUOnqGH,2020-0188,2020-05-08,09:38:11,09:52:48,NA,incomplete,19,filling,1,left,Purple_Circle_Chess_2.jpg,Blue_Triangle_Chess_1.jpg,Purple_Star_Stripes_4.jpg,left,800.1050000020768,true,low,NA,NA,NA,NA,NA,NA,NA,false
9KUOnqGH,3vll1pieot1c2ogsesvb4yutk6poza,3lotdfnyabcgp0wov4xg7knous1fwi,9KUOnqGH,2020-0188,2020-05-08,09:38:11,09:52:48,NA,incomplete,20,filling,1,right,Blue_Star_Grid_1.jpg,Blue_Triangle_Stripes_2.jpg,Purple_Circle_Grid_4.jpg,right,949.2349999782164,true,low,NA,NA,NA,NA,NA,NA,NA,false
9KUOnqGH,3vll1pieot1c2ogsesvb4yutk6poza,3lotdfnyabcgp0wov4xg7knous1fwi,9KUOnqGH,2020-0188,2020-05-08,09:38:11,09:52:48,NA,incomplete,21,filling,1,left,Blue_Circle_Grid_2.jpg,Red_Plus_Grid_4.jpg,Blue_Triangle_Dots_1.jpg,left,1118.190000008326,true,low,NA,NA,NA,NA,NA,NA,NA,false
9KUOnqGH,3vll1pieot1c2ogsesvb4yutk6poza,3lotdfnyabcgp0wov4xg7knous1fwi,9KUOnqGH,2020-0188,2020-05-08,09:38:11,09:52:48,NA,incomplete,22,filling,1,right,Purple_Star_Stripes_3.jpg,Purple_Circle_Dots_1.jpg,Green_Triangle_Stripes_2.jpg,right,943.6249999853317,true,low,NA,NA,NA,NA,NA,NA,NA,false
9KUOnqGH,3vll1pieot1c2ogsesvb4yutk6poza,3lotdfnyabcgp0wov4xg7knous1fwi,9KUOnqGH,2020-0188,2020-05-08,09:38:11,09:52:48,NA,incomplete,23,filling,1,right,Red_Plus_Dots_1.jpg,Red_Star_Chess_3.jpg,Blue_Circle_Dots_2.jpg,right,877.5599999935366,true,low,NA,NA,NA,NA,NA,NA,NA,false
9KUOnqGH,3vll1pieot1c2ogsesvb4yutk6poza,3lotdfnyabcgp0wov4xg7knous1fwi,9KUOnqGH,2020-0188,2020-05-08,09:38:11,09:52:48,NA,incomplete,24,filling,1,left,Green_Circle_Grid_4.jpg,Blue_Triangle_Grid_1.jpg,Green_Star_Chess_3.jpg,left,746.0549999959767,true,low,NA,NA,NA,NA,NA,NA,NA,false
9KUOnqGH,3vll1pieot1c2ogsesvb4yutk6poza,3lotdfnyabcgp0wov4xg7knous1fwi,9KUOnqGH,2020-0188,2020-05-08,09:38:11,09:52:48,NA,incomplete,25,filling,1,right,Purple_Circle_Grid_1.jpg,Purple_Plus_Chess_3.jpg,Blue_Triangle_Grid_2.jpg,right,861.3750000076834,true,low,NA,NA,NA,NA,NA,NA,NA,false
9KUOnqGH,3vll1pieot1c2ogsesvb4yutk6poza,3lotdfnyabcgp0wov4xg7knous1fwi,9KUOnqGH,2020-0188,2020-05-08,09:38:11,09:52:48,NA,incomplete,26,filling,1,right,Red_Triangle_Chess_3.jpg,Red_Star_Dots_1.jpg,Green_Plus_Chess_4.jpg,right,839.1699999920093,true,low,NA,NA,NA,NA,NA,NA,NA,false
9KUOnqGH,3vll1pieot1c2ogsesvb4yutk6poza,3lotdfnyabcgp0wov4xg7knous1fwi,9KUOnqGH,2020-0188,2020-05-08,09:38:11,09:52:48,NA,incomplete,27,filling,1,right,Purple_Triangle_Stripes_2.jpg,Purple_Plus_Grid_1.jpg,Green_Star_Stripes_3.jpg,right,843.75,true,low,NA,NA,NA,NA,NA,NA,NA,false
9KUOnqGH,3vll1pieot1c2ogsesvb4yutk6poza,3lotdfnyabcgp0wov4xg7knous1fwi,9KUOnqGH,2020-0188,2020-05-08,09:38:11,09:52:48,NA,incomplete,28,filling,1,left,Blue_Circle_Grid_1.jpg,Red_Triangle_Grid_4.jpg,Blue_Star_Stripes_2.jpg,right,822.7199999964796,false,low,NA,NA,NA,NA,NA,NA,NA,false
9KUOnqGH,3vll1pieot1c2ogsesvb4yutk6poza,3lotdfnyabcgp0wov4xg7knous1fwi,9KUOnqGH,2020-0188,2020-05-08,09:38:11,09:52:48,NA,incomplete,29,filling,1,left,Purple_Star_Grid_1.jpg,Green_Plus_Grid_3.jpg,Purple_Triangle_Stripes_4.jpg,left,943.1749999930616,true,low,NA,NA,NA,NA,NA,NA,NA,false
9KUOnqGH,3vll1pieot1c2ogsesvb4yutk6poza,3lotdfnyabcgp0wov4xg7knous1fwi,9KUOnqGH,2020-0188,2020-05-08,09:38:11,09:52:48,NA,incomplete,30,color,1,left,Blue_Triangle_Dots_2.jpg,Blue_Plus_Stripes_1.jpg,Green_Star_Dots_4.jpg,right,822.3249999864493,false,low,NA,NA,NA,NA,NA,NA,NA,false
9KUOnqGH,3vll1pieot1c2ogsesvb4yutk6poza,3lotdfnyabcgp0wov4xg7knous1fwi,9KUOnqGH,2020-0188,2020-05-08,09:38:11,09:52:48,NA,incomplete,31,color,1,right,Red_Triangle_Stripes_4.jpg,Blue_Plus_Stripes_3.jpg,Red_Circle_Grid_2.jpg,left,1064.730000012787,false,low,NA,NA,NA,NA,NA,NA,NA,false
9KUOnqGH,3vll1pieot1c2ogsesvb4yutk6poza,3lotdfnyabcgp0wov4xg7knous1fwi,9KUOnqGH,2020-0188,2020-05-08,09:38:11,09:52:48,NA,incomplete,32,color,1,right,Purple_Plus_Grid_2.jpg,Green_Triangle_Grid_4.jpg,Purple_Circle_Chess_1.jpg,right,681.1849999940023,true,low,NA,NA,NA,NA,NA,NA,NA,false
9KUOnqGH,3vll1pieot1c2ogsesvb4yutk6poza,3lotdfnyabcgp0wov4xg7knous1fwi,9KUOnqGH,2020-0188,2020-05-08,09:38:11,09:52:48,NA,incomplete,33,color,1,right,Red_Circle_Grid_1.jpg,Purple_Triangle_Grid_3.jpg,Red_Plus_Dots_2.jpg,right,573.8799999817275,true,low,NA,NA,NA,NA,NA,NA,NA,false
9KUOnqGH,3vll1pieot1c2ogsesvb4yutk6poza,3lotdfnyabcgp0wov4xg7knous1fwi,9KUOnqGH,2020-0188,2020-05-08,09:38:11,09:52:48,NA,incomplete,34,color,1,right,Purple_Circle_Dots_2.jpg,Green_Star_Dots_3.jpg,Purple_Triangle_Stripes_4.jpg,right,624.6249999967404,true,low,NA,NA,NA,NA,NA,NA,NA,false
9KUOnqGH,3vll1pieot1c2ogsesvb4yutk6poza,3lotdfnyabcgp0wov4xg7knous1fwi,9KUOnqGH,2020-0188,2020-05-08,09:38:11,09:52:48,NA,incomplete,35,color,0,left,Blue_Circle_Grid_2.jpg,Blue_Star_Stripes_1.jpg,Green_Triangle_Grid_4.jpg,left,575.8050000004005,true,low,NA,NA,NA,NA,NA,NA,NA,false
9KUOnqGH,3vll1pieot1c2ogsesvb4yutk6poza,3lotdfnyabcgp0wov4xg7knous1fwi,9KUOnqGH,2020-0188,2020-05-08,09:38:11,09:52:48,NA,incomplete,36,color,1,left,Purple_Star_Stripes_2.jpg,Purple_Circle_Grid_3.jpg,Blue_Plus_Stripes_1.jpg,left,680.2000000025146,true,low,NA,NA,NA,NA,NA,NA,NA,false
9KUOnqGH,3vll1pieot1c2ogsesvb4yutk6poza,3lotdfnyabcgp0wov4xg7knous1fwi,9KUOnqGH,2020-0188,2020-05-08,09:38:11,09:52:48,NA,incomplete,37,color,0,left,Green_Circle_Stripes_4.jpg,Green_Triangle_Dots_3.jpg,Blue_Plus_Stripes_2.jpg,left,1014.1249999869615,true,low,NA,NA,NA,NA,NA,NA,NA,false
9KUOnqGH,3vll1pieot1c2ogsesvb4yutk6poza,3lotdfnyabcgp0wov4xg7knous1fwi,9KUOnqGH,2020-0188,2020-05-08,09:38:11,09:52:48,NA,incomplete,38,color,0,right,Green_Star_Chess_2.jpg,Red_Circle_Chess_1.jpg,Green_Triangle_Stripes_3.jpg,right,629.4349999807309,true,low,NA,NA,NA,NA,NA,NA,NA,false
9KUOnqGH,3vll1pieot1c2ogsesvb4yutk6poza,3lotdfnyabcgp0wov4xg7knous1fwi,9KUOnqGH,2020-0188,2020-05-08,09:38:11,09:52:48,NA,incomplete,39,color,1,right,Green_Plus_Dots_4.jpg,Red_Circle_Dots_2.jpg,Green_Star_Chess_3.jpg,left,936.7349999956787,false,low,NA,NA,NA,NA,NA,NA,NA,false
9KUOnqGH,3vll1pieot1c2ogsesvb4yutk6poza,3lotdfnyabcgp0wov4xg7knous1fwi,9KUOnqGH,2020-0188,2020-05-08,09:38:11,09:52:48,NA,incomplete,40,color,1,left,Blue_Triangle_Chess_1.jpg,Blue_Circle_Stripes_2.jpg,Purple_Star_Chess_3.jpg,left,1590.2099999948405,true,low,NA,NA,NA,NA,NA,NA,NA,false
9KUOnqGH,3vll1pieot1c2ogsesvb4yutk6poza,3lotdfnyabcgp0wov4xg7knous1fwi,9KUOnqGH,2020-0188,2020-05-08,09:38:11,09:52:48,NA,incomplete,41,color,0,right,Red_Star_Chess_3.jpg,Purple_Triangle_Chess_1.jpg,Red_Circle_Grid_4.jpg,right,727.5850000150967,true,low,NA,NA,NA,NA,NA,NA,NA,false
9KUOnqGH,3vll1pieot1c2ogsesvb4yutk6poza,3lotdfnyabcgp0wov4xg7knous1fwi,9KUOnqGH,2020-0188,2020-05-08,09:38:11,09:52:48,NA,incomplete,42,color,1,left,Green_Plus_Stripes_2.jpg,Green_Triangle_Grid_4.jpg,Blue_Circle_Stripes_1.jpg,left,922.805000009248,true,low,NA,NA,NA,NA,NA,NA,NA,false
9KUOnqGH,3vll1pieot1c2ogsesvb4yutk6poza,3lotdfnyabcgp0wov4xg7knous1fwi,9KUOnqGH,2020-0188,2020-05-08,09:38:11,09:52:48,NA,incomplete,43,color,0,left,Purple_Plus_Stripes_4.jpg,Purple_Triangle_Dots_1.jpg,Blue_Circle_Stripes_3.jpg,left,685.4900000034831,true,low,NA,NA,NA,NA,NA,NA,NA,false
9KUOnqGH,3vll1pieot1c2ogsesvb4yutk6poza,3lotdfnyabcgp0wov4xg7knous1fwi,9KUOnqGH,2020-0188,2020-05-08,09:38:11,09:52:48,NA,incomplete,44,color,1,left,Purple_Circle_Stripes_3.jpg,Purple_Triangle_Dots_4.jpg,Green_Star_Stripes_2.jpg,left,670.3450000204612,true,low,NA,NA,NA,NA,NA,NA,NA,false
9KUOnqGH,3vll1pieot1c2ogsesvb4yutk6poza,3lotdfnyabcgp0wov4xg7knous1fwi,9KUOnqGH,2020-0188,2020-05-08,09:38:11,09:52:48,NA,incomplete,45,color,1,left,Blue_Circle_Chess_1.jpg,Blue_Star_Stripes_2.jpg,Purple_Triangle_Chess_4.jpg,left,778.4450000035577,true,low,NA,NA,NA,NA,NA,NA,NA,false
9KUOnqGH,3vll1pieot1c2ogsesvb4yutk6poza,3lotdfnyabcgp0wov4xg7knous1fwi,9KUOnqGH,2020-0188,2020-05-08,09:38:11,09:52:48,NA,incomplete,46,color,1,right,Green_Star_Grid_3.jpg,Blue_Circle_Grid_2.jpg,Green_Plus_Stripes_1.jpg,right,583.4699999832083,true,low,NA,NA,NA,NA,NA,NA,NA,false
9KUOnqGH,3vll1pieot1c2ogsesvb4yutk6poza,3lotdfnyabcgp0wov4xg7knous1fwi,9KUOnqGH,2020-0188,2020-05-08,09:38:11,09:52:48,NA,incomplete,47,color,1,right,Green_Star_Stripes_4.jpg,Purple_Plus_Stripes_2.jpg,Green_Circle_Dots_1.jpg,right,524.2299999808893,true,low,NA,NA,NA,NA,NA,NA,NA,false
9KUOnqGH,3vll1pieot1c2ogsesvb4yutk6poza,3lotdfnyabcgp0wov4xg7knous1fwi,9KUOnqGH,2020-0188,2020-05-08,09:38:11,09:52:48,NA,incomplete,48,color,1,left,Green_Circle_Chess_3.jpg,Green_Plus_Stripes_4.jpg,Purple_Triangle_Chess_1.jpg,right,603.4650000219699,false,low,NA,NA,NA,NA,NA,NA,NA,false
9KUOnqGH,3vll1pieot1c2ogsesvb4yutk6poza,3lotdfnyabcgp0wov4xg7knous1fwi,9KUOnqGH,2020-0188,2020-05-08,09:38:11,09:52:48,NA,incomplete,49,color,1,right,Purple_Triangle_Dots_4.jpg,Blue_Circle_Dots_2.jpg,Purple_Plus_Grid_3.jpg,right,553.2400000083726,true,low,NA,NA,NA,NA,NA,NA,NA,false
9KUOnqGH,3vll1pieot1c2ogsesvb4yutk6poza,3lotdfnyabcgp0wov4xg7knous1fwi,9KUOnqGH,2020-0188,2020-05-08,09:38:11,09:52:48,NA,incomplete,50,color,1,left,Purple_Star_Grid_1.jpg,Purple_Circle_Chess_4.jpg,Blue_Triangle_Grid_2.jpg,left,517.969999986235,true,low,NA,NA,NA,NA,NA,NA,NA,false
9KUOnqGH,3vll1pieot1c2ogsesvb4yutk6poza,3lotdfnyabcgp0wov4xg7knous1fwi,9KUOnqGH,2020-0188,2020-05-08,09:38:11,09:52:48,NA,incomplete,51,color,1,right,Green_Triangle_Chess_3.jpg,Blue_Star_Chess_1.jpg,Green_Circle_Dots_4.jpg,right,585.4600000020582,true,low,NA,NA,NA,NA,NA,NA,NA,false
9KUOnqGH,3vll1pieot1c2ogsesvb4yutk6poza,3lotdfnyabcgp0wov4xg7knous1fwi,9KUOnqGH,2020-0188,2020-05-08,09:38:11,09:52:48,NA,incomplete,52,color,0,right,Red_Circle_Grid_2.jpg,Blue_Plus_Grid_4.jpg,Red_Star_Chess_1.jpg,right,552.5250000064261,true,low,NA,NA,NA,NA,NA,NA,NA,false
9KUOnqGH,3vll1pieot1c2ogsesvb4yutk6poza,3lotdfnyabcgp0wov4xg7knous1fwi,9KUOnqGH,2020-0188,2020-05-08,09:38:11,09:52:48,NA,incomplete,53,color,1,left,Green_Triangle_Stripes_3.jpg,Green_Plus_Grid_2.jpg,Red_Circle_Stripes_4.jpg,left,633.334999991348,true,low,NA,NA,NA,NA,NA,NA,NA,false
9KUOnqGH,3vll1pieot1c2ogsesvb4yutk6poza,3lotdfnyabcgp0wov4xg7knous1fwi,9KUOnqGH,2020-0188,2020-05-08,09:38:11,09:52:48,NA,incomplete,54,color,1,right,Red_Circle_Grid_4.jpg,Purple_Triangle_Grid_3.jpg,Red_Star_Dots_2.jpg,right,747.7950000029523,true,low,NA,NA,NA,NA,NA,NA,NA,false
9KUOnqGH,3vll1pieot1c2ogsesvb4yutk6poza,3lotdfnyabcgp0wov4xg7knous1fwi,9KUOnqGH,2020-0188,2020-05-08,09:38:11,09:52:48,NA,incomplete,55,color,1,left,Blue_Circle_Chess_4.jpg,Blue_Triangle_Grid_1.jpg,Purple_Star_Chess_3.jpg,left,696.6149999934714,true,low,NA,NA,NA,NA,NA,NA,NA,false
9KUOnqGH,3vll1pieot1c2ogsesvb4yutk6poza,3lotdfnyabcgp0wov4xg7knous1fwi,9KUOnqGH,2020-0188,2020-05-08,09:38:11,09:52:48,NA,incomplete,56,color,1,left,Blue_Plus_Chess_3.jpg,Blue_Circle_Stripes_4.jpg,Purple_Triangle_Chess_2.jpg,left,511.1200000101235,true,low,NA,NA,NA,NA,NA,NA,NA,false
9KUOnqGH,3vll1pieot1c2ogsesvb4yutk6poza,3lotdfnyabcgp0wov4xg7knous1fwi,9KUOnqGH,2020-0188,2020-05-08,09:38:11,09:52:48,NA,incomplete,57,color,1,left,Red_Circle_Grid_3.jpg,Red_Star_Chess_2.jpg,Green_Plus_Grid_4.jpg,left,651.1400000017602,true,low,NA,NA,NA,NA,NA,NA,NA,false
9KUOnqGH,3vll1pieot1c2ogsesvb4yutk6poza,3lotdfnyabcgp0wov4xg7knous1fwi,9KUOnqGH,2020-0188,2020-05-08,09:38:11,09:52:48,NA,incomplete,58,color,0,left,Purple_Triangle_Grid_2.jpg,Purple_Plus_Dots_1.jpg,Red_Star_Grid_3.jpg,left,507.45499998447485,true,low,NA,NA,NA,NA,NA,NA,NA,false
9KUOnqGH,3vll1pieot1c2ogsesvb4yutk6poza,3lotdfnyabcgp0wov4xg7knous1fwi,9KUOnqGH,2020-0188,2020-05-08,09:38:11,09:52:48,NA,incomplete,59,color,1,left,Green_Plus_Dots_4.jpg,Green_Triangle_Chess_3.jpg,Red_Circle_Dots_2.jpg,left,1112.874999991618,true,low,NA,NA,NA,NA,NA,NA,NA,false
9KUOnqGH,3vll1pieot1c2ogsesvb4yutk6poza,3lotdfnyabcgp0wov4xg7knous1fwi,9KUOnqGH,2020-0188,2020-05-08,09:38:11,09:52:48,NA,incomplete,60,filling,0,right,Red_Plus_Dots_4.jpg,Red_Circle_Chess_2.jpg,Purple_Star_Dots_1.jpg,left,590.5849999981001,false,low,NA,NA,NA,NA,NA,NA,NA,false
9KUOnqGH,3vll1pieot1c2ogsesvb4yutk6poza,3lotdfnyabcgp0wov4xg7knous1fwi,9KUOnqGH,2020-0188,2020-05-08,09:38:11,09:52:48,NA,incomplete,61,filling,1,right,Blue_Triangle_Chess_1.jpg,Blue_Circle_Dots_2.jpg,Green_Plus_Chess_3.jpg,left,597.0049999887124,false,low,NA,NA,NA,NA,NA,NA,NA,false
9KUOnqGH,3vll1pieot1c2ogsesvb4yutk6poza,3lotdfnyabcgp0wov4xg7knous1fwi,9KUOnqGH,2020-0188,2020-05-08,09:38:11,09:52:48,NA,incomplete,62,filling,1,right,Red_Triangle_Dots_1.jpg,Red_Star_Stripes_3.jpg,Green_Plus_Dots_2.jpg,left,588.3600000233855,false,low,NA,NA,NA,NA,NA,NA,NA,false
9KUOnqGH,3vll1pieot1c2ogsesvb4yutk6poza,3lotdfnyabcgp0wov4xg7knous1fwi,9KUOnqGH,2020-0188,2020-05-08,09:38:11,09:52:48,NA,incomplete,63,filling,0,left,Blue_Star_Stripes_1.jpg,Green_Circle_Stripes_4.jpg,Blue_Plus_Chess_3.jpg,right,647.0400000107475,false,low,NA,NA,NA,NA,NA,NA,NA,false
9KUOnqGH,3vll1pieot1c2ogsesvb4yutk6poza,3lotdfnyabcgp0wov4xg7knous1fwi,9KUOnqGH,2020-0188,2020-05-08,09:38:11,09:52:48,NA,incomplete,64,filling,0,left,Blue_Plus_Stripes_3.jpg,Green_Circle_Stripes_4.jpg,Blue_Triangle_Chess_2.jpg,right,720.8600000012666,false,low,NA,NA,NA,NA,NA,NA,NA,false
9KUOnqGH,3vll1pieot1c2ogsesvb4yutk6poza,3lotdfnyabcgp0wov4xg7knous1fwi,9KUOnqGH,2020-0188,2020-05-08,09:38:11,09:52:48,NA,incomplete,65,filling,1,left,Green_Circle_Chess_2.jpg,Blue_Triangle_Chess_3.jpg,Green_Plus_Stripes_1.jpg,right,770.7850000006147,false,low,NA,NA,NA,NA,NA,NA,NA,false
9KUOnqGH,3vll1pieot1c2ogsesvb4yutk6poza,3lotdfnyabcgp0wov4xg7knous1fwi,9KUOnqGH,2020-0188,2020-05-08,09:38:11,09:52:48,NA,incomplete,66,filling,1,right,Green_Triangle_Dots_2.jpg,Green_Circle_Grid_4.jpg,Purple_Plus_Dots_3.jpg,right,1329.8049999866635,true,low,NA,NA,NA,NA,NA,NA,NA,false
9KUOnqGH,3vll1pieot1c2ogsesvb4yutk6poza,3lotdfnyabcgp0wov4xg7knous1fwi,9KUOnqGH,2020-0188,2020-05-08,09:38:11,09:52:48,NA,incomplete,67,filling,1,right,Purple_Triangle_Dots_3.jpg,Purple_Star_Grid_4.jpg,Green_Circle_Dots_2.jpg,left,694.7349999973085,false,low,NA,NA,NA,NA,NA,NA,NA,false
9KUOnqGH,3vll1pieot1c2ogsesvb4yutk6poza,3lotdfnyabcgp0wov4xg7knous1fwi,9KUOnqGH,2020-0188,2020-05-08,09:38:11,09:52:48,NA,incomplete,68,filling,0,right,Green_Triangle_Grid_2.jpg,Green_Circle_Stripes_1.jpg,Blue_Star_Grid_4.jpg,right,1616.955000004964,true,low,NA,NA,NA,NA,NA,NA,NA,false
9KUOnqGH,3vll1pieot1c2ogsesvb4yutk6poza,3lotdfnyabcgp0wov4xg7knous1fwi,9KUOnqGH,2020-0188,2020-05-08,09:38:11,09:52:48,NA,incomplete,69,filling,0,left,Green_Triangle_Grid_1.jpg,Purple_Circle_Grid_2.jpg,Green_Plus_Stripes_4.jpg,right,1415.1350000174716,false,low,NA,NA,NA,NA,NA,NA,NA,false
9KUOnqGH,3vll1pieot1c2ogsesvb4yutk6poza,3lotdfnyabcgp0wov4xg7knous1fwi,9KUOnqGH,2020-0188,2020-05-08,09:38:11,09:52:48,NA,incomplete,70,filling,1,right,Blue_Circle_Dots_2.jpg,Blue_Star_Stripes_1.jpg,Purple_Triangle_Dots_4.jpg,left,665.4149999958463,false,low,NA,NA,NA,NA,NA,NA,NA,false
9KUOnqGH,3vll1pieot1c2ogsesvb4yutk6poza,3lotdfnyabcgp0wov4xg7knous1fwi,9KUOnqGH,2020-0188,2020-05-08,09:38:11,09:52:48,NA,incomplete,71,filling,0,right,Blue_Plus_Grid_3.jpg,Blue_Star_Stripes_2.jpg,Red_Triangle_Grid_4.jpg,right,1676.6000000061467,true,low,NA,NA,NA,NA,NA,NA,NA,false
9KUOnqGH,3vll1pieot1c2ogsesvb4yutk6poza,3lotdfnyabcgp0wov4xg7knous1fwi,9KUOnqGH,2020-0188,2020-05-08,09:38:11,09:52:48,NA,incomplete,72,filling,0,left,Purple_Star_Grid_3.jpg,Green_Plus_Grid_4.jpg,Purple_Triangle_Stripes_1.jpg,left,1387.0250000036322,true,low,NA,NA,NA,NA,NA,NA,NA,false
9KUOnqGH,3vll1pieot1c2ogsesvb4yutk6poza,3lotdfnyabcgp0wov4xg7knous1fwi,9KUOnqGH,2020-0188,2020-05-08,09:38:11,09:52:48,NA,incomplete,73,filling,0,right,Blue_Star_Chess_3.jpg,Blue_Triangle_Dots_1.jpg,Red_Circle_Chess_4.jpg,left,729.4649999821559,false,low,NA,NA,NA,NA,NA,NA,NA,false
9KUOnqGH,3vll1pieot1c2ogsesvb4yutk6poza,3lotdfnyabcgp0wov4xg7knous1fwi,9KUOnqGH,2020-0188,2020-05-08,09:38:11,09:52:48,NA,incomplete,74,filling,1,right,Red_Plus_Grid_3.jpg,Red_Circle_Dots_2.jpg,Purple_Triangle_Grid_4.jpg,left,734.3899999978021,false,low,NA,NA,NA,NA,NA,NA,NA,false
9KUOnqGH,3vll1pieot1c2ogsesvb4yutk6poza,3lotdfnyabcgp0wov4xg7knous1fwi,9KUOnqGH,2020-0188,2020-05-08,09:38:11,09:52:48,NA,incomplete,75,filling,1,right,Purple_Plus_Dots_4.jpg,Purple_Star_Grid_1.jpg,Red_Circle_Dots_2.jpg,left,799.0850000060163,false,low,NA,NA,NA,NA,NA,NA,NA,false
9KUOnqGH,3vll1pieot1c2ogsesvb4yutk6poza,3lotdfnyabcgp0wov4xg7knous1fwi,9KUOnqGH,2020-0188,2020-05-08,09:38:11,09:52:48,NA,incomplete,76,filling,0,right,Blue_Star_Stripes_1.jpg,Blue_Triangle_Chess_4.jpg,Green_Circle_Stripes_3.jpg,left,878.6400000099093,false,low,NA,NA,NA,NA,NA,NA,NA,false
9KUOnqGH,3vll1pieot1c2ogsesvb4yutk6poza,3lotdfnyabcgp0wov4xg7knous1fwi,9KUOnqGH,2020-0188,2020-05-08,09:38:11,09:52:48,NA,incomplete,77,filling,1,left,Purple_Triangle_Stripes_1.jpg,Blue_Star_Stripes_2.jpg,Purple_Plus_Chess_3.jpg,right,1087.1499999775551,false,low,NA,NA,NA,NA,NA,NA,NA,false
9KUOnqGH,3vll1pieot1c2ogsesvb4yutk6poza,3lotdfnyabcgp0wov4xg7knous1fwi,9KUOnqGH,2020-0188,2020-05-08,09:38:11,09:52:48,NA,incomplete,78,filling,1,right,Purple_Star_Dots_2.jpg,Purple_Triangle_Stripes_3.jpg,Blue_Plus_Dots_1.jpg,right,919.3349999841303,true,low,NA,NA,NA,NA,NA,NA,NA,false
9KUOnqGH,3vll1pieot1c2ogsesvb4yutk6poza,3lotdfnyabcgp0wov4xg7knous1fwi,9KUOnqGH,2020-0188,2020-05-08,09:38:11,09:52:48,NA,incomplete,79,filling,1,right,Red_Star_Chess_1.jpg,Red_Triangle_Grid_2.jpg,Green_Circle_Chess_3.jpg,left,687.1549999923445,false,low,NA,NA,NA,NA,NA,NA,NA,false
9KUOnqGH,3vll1pieot1c2ogsesvb4yutk6poza,3lotdfnyabcgp0wov4xg7knous1fwi,9KUOnqGH,2020-0188,2020-05-08,09:38:11,09:52:48,NA,incomplete,80,filling,1,right,Blue_Star_Chess_3.jpg,Blue_Circle_Grid_2.jpg,Red_Plus_Chess_4.jpg,left,754.4399999896996,false,low,NA,NA,NA,NA,NA,NA,NA,false
9KUOnqGH,3vll1pieot1c2ogsesvb4yutk6poza,3lotdfnyabcgp0wov4xg7knous1fwi,9KUOnqGH,2020-0188,2020-05-08,09:38:11,09:52:48,NA,incomplete,81,filling,1,right,Blue_Triangle_Dots_2.jpg,Blue_Star_Stripes_3.jpg,Purple_Plus_Dots_4.jpg,right,1312.8750000032596,true,low,NA,NA,NA,NA,NA,NA,NA,false
9KUOnqGH,3vll1pieot1c2ogsesvb4yutk6poza,3lotdfnyabcgp0wov4xg7knous1fwi,9KUOnqGH,2020-0188,2020-05-08,09:38:11,09:52:48,NA,incomplete,82,filling,1,left,Purple_Triangle_Grid_2.jpg,Green_Star_Grid_4.jpg,Purple_Plus_Stripes_3.jpg,right,1868.0499999900348,false,low,NA,NA,NA,NA,NA,NA,NA,false
9KUOnqGH,3vll1pieot1c2ogsesvb4yutk6poza,3lotdfnyabcgp0wov4xg7knous1fwi,9KUOnqGH,2020-0188,2020-05-08,09:38:11,09:52:48,NA,incomplete,83,filling,0,right,Purple_Star_Grid_4.jpg,Purple_Triangle_Dots_2.jpg,Blue_Plus_Grid_1.jpg,right,1381.3850000151433,true,low,NA,NA,NA,NA,NA,NA,NA,false
9KUOnqGH,3vll1pieot1c2ogsesvb4yutk6poza,3lotdfnyabcgp0wov4xg7knous1fwi,9KUOnqGH,2020-0188,2020-05-08,09:38:11,09:52:48,NA,incomplete,84,filling,1,left,Blue_Star_Dots_4.jpg,Red_Plus_Dots_3.jpg,Blue_Triangle_Grid_2.jpg,left,1239.9000000150409,true,low,NA,NA,NA,NA,NA,NA,NA,false
9KUOnqGH,3vll1pieot1c2ogsesvb4yutk6poza,3lotdfnyabcgp0wov4xg7knous1fwi,9KUOnqGH,2020-0188,2020-05-08,09:38:11,09:52:48,NA,incomplete,85,filling,0,right,Blue_Triangle_Chess_4.jpg,Blue_Star_Grid_3.jpg,Red_Plus_Chess_1.jpg,none,0,false,low,NA,NA,NA,NA,NA,NA,NA,false
9KUOnqGH,3vll1pieot1c2ogsesvb4yutk6poza,3lotdfnyabcgp0wov4xg7knous1fwi,9KUOnqGH,2020-0188,2020-05-08,09:38:11,09:52:48,NA,incomplete,86,filling,1,right,Blue_Plus_Grid_2.jpg,Blue_Circle_Chess_4.jpg,Purple_Star_Grid_1.jpg,right,1209.0549999848008,true,low,NA,NA,NA,NA,NA,NA,NA,false
9KUOnqGH,3vll1pieot1c2ogsesvb4yutk6poza,3lotdfnyabcgp0wov4xg7knous1fwi,9KUOnqGH,2020-0188,2020-05-08,09:38:11,09:52:48,NA,incomplete,87,filling,1,left,Red_Circle_Chess_1.jpg,Purple_Plus_Chess_3.jpg,Red_Star_Grid_4.jpg,left,1203.9899999799673,true,low,NA,NA,NA,NA,NA,NA,NA,false
9KUOnqGH,3vll1pieot1c2ogsesvb4yutk6poza,3lotdfnyabcgp0wov4xg7knous1fwi,9KUOnqGH,2020-0188,2020-05-08,09:38:11,09:52:48,NA,incomplete,88,filling,0,left,Blue_Plus_Stripes_3.jpg,Purple_Triangle_Stripes_2.jpg,Blue_Star_Dots_1.jpg,left,1444.3399999872781,true,low,NA,NA,NA,NA,NA,NA,NA,false
9KUOnqGH,3vll1pieot1c2ogsesvb4yutk6poza,3lotdfnyabcgp0wov4xg7knous1fwi,9KUOnqGH,2020-0188,2020-05-08,09:38:11,09:52:48,NA,incomplete,89,filling,1,left,Red_Star_Stripes_2.jpg,Purple_Plus_Stripes_3.jpg,Red_Triangle_Chess_1.jpg,left,1840.985000017099,true,low,NA,NA,NA,NA,NA,NA,NA,false
9KUOnqGH,3vll1pieot1c2ogsesvb4yutk6poza,3lotdfnyabcgp0wov4xg7knous1fwi,9KUOnqGH,2020-0188,2020-05-08,09:38:11,09:52:48,NA,incomplete,90,color,1,left,Blue_Triangle_Chess_2.jpg,Blue_Star_Grid_1.jpg,Red_Circle_Chess_4.jpg,right,1595.4900000069756,false,low,NA,NA,NA,NA,NA,NA,NA,false
9KUOnqGH,3vll1pieot1c2ogsesvb4yutk6poza,3lotdfnyabcgp0wov4xg7knous1fwi,9KUOnqGH,2020-0188,2020-05-08,09:38:11,09:52:48,NA,incomplete,91,color,1,left,Green_Triangle_Dots_1.jpg,Green_Star_Chess_2.jpg,Purple_Circle_Dots_3.jpg,right,1051.034999982221,false,low,NA,NA,NA,NA,NA,NA,NA,false
9KUOnqGH,3vll1pieot1c2ogsesvb4yutk6poza,3lotdfnyabcgp0wov4xg7knous1fwi,9KUOnqGH,2020-0188,2020-05-08,09:38:11,09:52:48,NA,incomplete,92,color,1,right,Blue_Triangle_Stripes_2.jpg,Green_Star_Stripes_4.jpg,Blue_Plus_Chess_3.jpg,left,1247.254999994766,false,low,NA,NA,NA,NA,NA,NA,NA,false
9KUOnqGH,3vll1pieot1c2ogsesvb4yutk6poza,3lotdfnyabcgp0wov4xg7knous1fwi,9KUOnqGH,2020-0188,2020-05-08,09:38:11,09:52:48,NA,incomplete,93,color,1,right,Green_Star_Chess_2.jpg,Red_Plus_Chess_1.jpg,Green_Triangle_Dots_4.jpg,left,924.5650000229944,false,low,NA,NA,NA,NA,NA,NA,NA,false
9KUOnqGH,3vll1pieot1c2ogsesvb4yutk6poza,3lotdfnyabcgp0wov4xg7knous1fwi,9KUOnqGH,2020-0188,2020-05-08,09:38:11,09:52:48,NA,incomplete,94,color,1,left,Green_Star_Stripes_2.jpg,Green_Plus_Dots_3.jpg,Red_Triangle_Stripes_1.jpg,left,756.1299999943003,true,low,NA,NA,NA,NA,NA,NA,NA,false
9KUOnqGH,3vll1pieot1c2ogsesvb4yutk6poza,3lotdfnyabcgp0wov4xg7knous1fwi,9KUOnqGH,2020-0188,2020-05-08,09:38:11,09:52:48,NA,incomplete,95,color,1,right,Purple_Triangle_Grid_4.jpg,Blue_Plus_Grid_2.jpg,Purple_Circle_Stripes_3.jpg,left,1310.9399999957532,false,low,NA,NA,NA,NA,NA,NA,NA,false
9KUOnqGH,3vll1pieot1c2ogsesvb4yutk6poza,3lotdfnyabcgp0wov4xg7knous1fwi,9KUOnqGH,2020-0188,2020-05-08,09:38:11,09:52:48,NA,incomplete,96,color,1,right,Red_Plus_Dots_3.jpg,Green_Circle_Dots_2.jpg,Red_Triangle_Chess_4.jpg,right,1345.0299999967683,true,low,NA,NA,NA,NA,NA,NA,NA,false
9KUOnqGH,3vll1pieot1c2ogsesvb4yutk6poza,3lotdfnyabcgp0wov4xg7knous1fwi,9KUOnqGH,2020-0188,2020-05-08,09:38:11,09:52:48,NA,incomplete,97,color,1,left,Green_Star_Grid_4.jpg,Green_Circle_Chess_3.jpg,Blue_Plus_Grid_1.jpg,left,826.5250000113156,true,low,NA,NA,NA,NA,NA,NA,NA,false
9KUOnqGH,3vll1pieot1c2ogsesvb4yutk6poza,3lotdfnyabcgp0wov4xg7knous1fwi,9KUOnqGH,2020-0188,2020-05-08,09:38:11,09:52:48,NA,incomplete,98,color,1,left,Blue_Circle_Grid_1.jpg,Blue_Plus_Stripes_3.jpg,Green_Star_Grid_4.jpg,left,732.3249999899417,true,low,NA,NA,NA,NA,NA,NA,NA,false
9KUOnqGH,3vll1pieot1c2ogsesvb4yutk6poza,3lotdfnyabcgp0wov4xg7knous1fwi,9KUOnqGH,2020-0188,2020-05-08,09:38:11,09:52:48,NA,incomplete,99,color,1,right,Green_Plus_Dots_2.jpg,Blue_Star_Dots_3.jpg,Green_Triangle_Stripes_1.jpg,right,775.1899999857415,true,low,NA,NA,NA,NA,NA,NA,NA,false
9KUOnqGH,3vll1pieot1c2ogsesvb4yutk6poza,3lotdfnyabcgp0wov4xg7knous1fwi,9KUOnqGH,2020-0188,2020-05-08,09:38:11,09:52:48,NA,incomplete,100,color,1,left,Green_Triangle_Stripes_1.jpg,Green_Circle_Dots_4.jpg,Blue_Plus_Stripes_2.jpg,left,684.5099999918602,true,low,NA,NA,NA,NA,NA,NA,NA,false
9KUOnqGH,3vll1pieot1c2ogsesvb4yutk6poza,3lotdfnyabcgp0wov4xg7knous1fwi,9KUOnqGH,2020-0188,2020-05-08,09:38:11,09:52:48,NA,incomplete,101,color,1,left,Purple_Circle_Stripes_3.jpg,Purple_Star_Grid_2.jpg,Blue_Triangle_Stripes_4.jpg,left,789.5750000025146,true,low,NA,NA,NA,NA,NA,NA,NA,false
9KUOnqGH,3vll1pieot1c2ogsesvb4yutk6poza,3lotdfnyabcgp0wov4xg7knous1fwi,9KUOnqGH,2020-0188,2020-05-08,09:38:11,09:52:48,NA,incomplete,102,color,1,right,Blue_Plus_Chess_1.jpg,Green_Circle_Chess_3.jpg,Blue_Star_Dots_2.jpg,right,632.1249999746215,true,low,NA,NA,NA,NA,NA,NA,NA,false
9KUOnqGH,3vll1pieot1c2ogsesvb4yutk6poza,3lotdfnyabcgp0wov4xg7knous1fwi,9KUOnqGH,2020-0188,2020-05-08,09:38:11,09:52:48,NA,incomplete,103,color,1,right,Red_Plus_Chess_4.jpg,Blue_Circle_Chess_3.jpg,Red_Triangle_Grid_1.jpg,right,638.5650000011083,true,low,NA,NA,NA,NA,NA,NA,NA,false
9KUOnqGH,3vll1pieot1c2ogsesvb4yutk6poza,3lotdfnyabcgp0wov4xg7knous1fwi,9KUOnqGH,2020-0188,2020-05-08,09:38:11,09:52:48,NA,incomplete,104,color,0,left,Purple_Plus_Stripes_4.jpg,Purple_Triangle_Grid_2.jpg,Blue_Circle_Stripes_3.jpg,left,547.0499999937601,true,low,NA,NA,NA,NA,NA,NA,NA,false
9KUOnqGH,3vll1pieot1c2ogsesvb4yutk6poza,3lotdfnyabcgp0wov4xg7knous1fwi,9KUOnqGH,2020-0188,2020-05-08,09:38:11,09:52:48,NA,incomplete,105,color,1,right,Red_Star_Dots_4.jpg,Green_Plus_Dots_1.jpg,Red_Triangle_Stripes_3.jpg,right,597.9700000025332,true,low,NA,NA,NA,NA,NA,NA,NA,false
9KUOnqGH,3vll1pieot1c2ogsesvb4yutk6poza,3lotdfnyabcgp0wov4xg7knous1fwi,9KUOnqGH,2020-0188,2020-05-08,09:38:11,09:52:48,NA,incomplete,106,color,1,right,Blue_Triangle_Grid_3.jpg,Purple_Circle_Grid_4.jpg,Blue_Star_Dots_1.jpg,right,644.7750000224914,true,low,NA,NA,NA,NA,NA,NA,NA,false
9KUOnqGH,3vll1pieot1c2ogsesvb4yutk6poza,3lotdfnyabcgp0wov4xg7knous1fwi,9KUOnqGH,2020-0188,2020-05-08,09:38:11,09:52:48,NA,incomplete,107,color,1,right,Blue_Circle_Stripes_1.jpg,Red_Triangle_Stripes_3.jpg,Blue_Star_Grid_4.jpg,right,475.3550000023097,true,low,NA,NA,NA,NA,NA,NA,NA,false
9KUOnqGH,3vll1pieot1c2ogsesvb4yutk6poza,3lotdfnyabcgp0wov4xg7knous1fwi,9KUOnqGH,2020-0188,2020-05-08,09:38:11,09:52:48,NA,incomplete,108,color,0,right,Blue_Plus_Grid_3.jpg,Green_Triangle_Grid_4.jpg,Blue_Star_Chess_2.jpg,right,481.4349999942351,true,low,NA,NA,NA,NA,NA,NA,NA,false
9KUOnqGH,3vll1pieot1c2ogsesvb4yutk6poza,3lotdfnyabcgp0wov4xg7knous1fwi,9KUOnqGH,2020-0188,2020-05-08,09:38:11,09:52:48,NA,incomplete,109,color,1,right,Blue_Plus_Chess_4.jpg,Red_Circle_Chess_2.jpg,Blue_Star_Stripes_3.jpg,right,651.1150000151247,true,low,NA,NA,NA,NA,NA,NA,NA,false
9KUOnqGH,3vll1pieot1c2ogsesvb4yutk6poza,3lotdfnyabcgp0wov4xg7knous1fwi,9KUOnqGH,2020-0188,2020-05-08,09:38:11,09:52:48,NA,incomplete,110,color,1,left,Green_Triangle_Grid_2.jpg,Green_Star_Chess_4.jpg,Purple_Plus_Grid_3.jpg,left,520.8299999940209,true,low,NA,NA,NA,NA,NA,NA,NA,false
9KUOnqGH,3vll1pieot1c2ogsesvb4yutk6poza,3lotdfnyabcgp0wov4xg7knous1fwi,9KUOnqGH,2020-0188,2020-05-08,09:38:11,09:52:48,NA,incomplete,111,color,0,left,Blue_Triangle_Grid_1.jpg,Blue_Star_Stripes_2.jpg,Red_Circle_Grid_3.jpg,left,519.4650000194088,true,low,NA,NA,NA,NA,NA,NA,NA,false
9KUOnqGH,3vll1pieot1c2ogsesvb4yutk6poza,3lotdfnyabcgp0wov4xg7knous1fwi,9KUOnqGH,2020-0188,2020-05-08,09:38:11,09:52:48,NA,incomplete,112,color,1,left,Red_Circle_Chess_3.jpg,Red_Star_Dots_2.jpg,Purple_Triangle_Chess_1.jpg,left,629.0000000153668,true,low,NA,NA,NA,NA,NA,NA,NA,false
9KUOnqGH,3vll1pieot1c2ogsesvb4yutk6poza,3lotdfnyabcgp0wov4xg7knous1fwi,9KUOnqGH,2020-0188,2020-05-08,09:38:11,09:52:48,NA,incomplete,113,color,0,left,Green_Star_Chess_1.jpg,Green_Plus_Grid_3.jpg,Purple_Circle_Chess_2.jpg,left,582.0349999994505,true,low,NA,NA,NA,NA,NA,NA,NA,false
9KUOnqGH,3vll1pieot1c2ogsesvb4yutk6poza,3lotdfnyabcgp0wov4xg7knous1fwi,9KUOnqGH,2020-0188,2020-05-08,09:38:11,09:52:48,NA,incomplete,114,color,1,left,Red_Plus_Grid_2.jpg,Red_Triangle_Dots_3.jpg,Purple_Star_Grid_4.jpg,left,555.5999999924097,true,low,NA,NA,NA,NA,NA,NA,NA,false
9KUOnqGH,3vll1pieot1c2ogsesvb4yutk6poza,3lotdfnyabcgp0wov4xg7knous1fwi,9KUOnqGH,2020-0188,2020-05-08,09:38:11,09:52:48,NA,incomplete,115,color,1,left,Green_Plus_Dots_3.jpg,Green_Circle_Stripes_4.jpg,Purple_Triangle_Dots_1.jpg,left,514.9099999980535,true,low,NA,NA,NA,NA,NA,NA,NA,false
9KUOnqGH,3vll1pieot1c2ogsesvb4yutk6poza,3lotdfnyabcgp0wov4xg7knous1fwi,9KUOnqGH,2020-0188,2020-05-08,09:38:11,09:52:48,NA,incomplete,116,color,1,left,Red_Star_Chess_2.jpg,Red_Circle_Stripes_3.jpg,Blue_Triangle_Chess_1.jpg,left,587.9249999998137,true,low,NA,NA,NA,NA,NA,NA,NA,false
9KUOnqGH,3vll1pieot1c2ogsesvb4yutk6poza,3lotdfnyabcgp0wov4xg7knous1fwi,9KUOnqGH,2020-0188,2020-05-08,09:38:11,09:52:48,NA,incomplete,117,color,1,left,Green_Triangle_Dots_1.jpg,Green_Plus_Chess_2.jpg,Red_Star_Dots_3.jpg,left,619.4850000028964,true,low,NA,NA,NA,NA,NA,NA,NA,false
9KUOnqGH,3vll1pieot1c2ogsesvb4yutk6poza,3lotdfnyabcgp0wov4xg7knous1fwi,9KUOnqGH,2020-0188,2020-05-08,09:38:11,09:52:48,NA,incomplete,118,color,1,left,Green_Plus_Chess_2.jpg,Green_Circle_Grid_1.jpg,Blue_Triangle_Chess_3.jpg,left,714.3749999813735,true,low,NA,NA,NA,NA,NA,NA,NA,false
9KUOnqGH,3vll1pieot1c2ogsesvb4yutk6poza,3lotdfnyabcgp0wov4xg7knous1fwi,9KUOnqGH,2020-0188,2020-05-08,09:38:11,09:52:48,NA,incomplete,119,color,1,left,Purple_Triangle_Stripes_3.jpg,Purple_Circle_Dots_4.jpg,Blue_Star_Stripes_2.jpg,left,539.7349999984726,true,low,NA,NA,NA,NA,NA,NA,NA,false
9KUOnqGH,3vll1pieot1c2ogsesvb4yutk6poza,3lotdfnyabcgp0wov4xg7knous1fwi,9KUOnqGH,2020-0188,2020-05-08,09:38:11,09:52:48,NA,incomplete,120,filling,0,left,Green_Circle_Dots_1.jpg,Blue_Triangle_Dots_3.jpg,Green_Star_Chess_4.jpg,right,536.629999987781,false,low,NA,NA,NA,NA,NA,NA,NA,false
9KUOnqGH,3vll1pieot1c2ogsesvb4yutk6poza,3lotdfnyabcgp0wov4xg7knous1fwi,9KUOnqGH,2020-0188,2020-05-08,09:38:11,09:52:48,NA,incomplete,121,filling,1,left,Purple_Star_Dots_1.jpg,Green_Circle_Dots_4.jpg,Purple_Triangle_Chess_2.jpg,right,616.8600000091828,false,low,NA,NA,NA,NA,NA,NA,NA,false
9KUOnqGH,3vll1pieot1c2ogsesvb4yutk6poza,3lotdfnyabcgp0wov4xg7knous1fwi,9KUOnqGH,2020-0188,2020-05-08,09:38:11,09:52:48,NA,incomplete,122,filling,1,left,Green_Star_Stripes_4.jpg,Purple_Triangle_Stripes_2.jpg,Green_Circle_Chess_1.jpg,right,708.7699999974575,false,low,NA,NA,NA,NA,NA,NA,NA,false
9KUOnqGH,3vll1pieot1c2ogsesvb4yutk6poza,3lotdfnyabcgp0wov4xg7knous1fwi,9KUOnqGH,2020-0188,2020-05-08,09:38:11,09:52:48,NA,incomplete,123,filling,0,right,Purple_Plus_Chess_3.jpg,Purple_Triangle_Grid_2.jpg,Green_Circle_Chess_4.jpg,right,1006.9150000053924,true,low,NA,NA,NA,NA,NA,NA,NA,false
9KUOnqGH,3vll1pieot1c2ogsesvb4yutk6poza,3lotdfnyabcgp0wov4xg7knous1fwi,9KUOnqGH,2020-0188,2020-05-08,09:38:11,09:52:48,NA,incomplete,124,filling,1,right,Green_Plus_Chess_3.jpg,Green_Star_Stripes_1.jpg,Blue_Triangle_Chess_4.jpg,left,647.9149999795482,false,low,NA,NA,NA,NA,NA,NA,NA,false
9KUOnqGH,3vll1pieot1c2ogsesvb4yutk6poza,3lotdfnyabcgp0wov4xg7knous1fwi,9KUOnqGH,2020-0188,2020-05-08,09:38:11,09:52:48,NA,incomplete,125,filling,0,right,Blue_Circle_Dots_4.jpg,Blue_Plus_Grid_2.jpg,Red_Star_Dots_1.jpg,right,1006.359999999404,true,low,NA,NA,NA,NA,NA,NA,NA,false
9KUOnqGH,3vll1pieot1c2ogsesvb4yutk6poza,3lotdfnyabcgp0wov4xg7knous1fwi,9KUOnqGH,2020-0188,2020-05-08,09:38:11,09:52:48,NA,incomplete,126,filling,1,right,Purple_Star_Grid_4.jpg,Purple_Circle_Stripes_2.jpg,Red_Triangle_Grid_3.jpg,left,803.0600000056438,false,low,NA,NA,NA,NA,NA,NA,NA,false
9KUOnqGH,3vll1pieot1c2ogsesvb4yutk6poza,3lotdfnyabcgp0wov4xg7knous1fwi,9KUOnqGH,2020-0188,2020-05-08,09:38:11,09:52:48,NA,incomplete,127,filling,0,left,Purple_Triangle_Grid_3.jpg,Blue_Star_Grid_2.jpg,Purple_Circle_Dots_1.jpg,right,729.8849999788217,false,low,NA,NA,NA,NA,NA,NA,NA,false
9KUOnqGH,3vll1pieot1c2ogsesvb4yutk6poza,3lotdfnyabcgp0wov4xg7knous1fwi,9KUOnqGH,2020-0188,2020-05-08,09:38:11,09:52:48,NA,incomplete,128,filling,1,right,Red_Triangle_Grid_4.jpg,Red_Star_Dots_1.jpg,Green_Plus_Grid_3.jpg,left,579.1949999984354,false,low,NA,NA,NA,NA,NA,NA,NA,false
9KUOnqGH,3vll1pieot1c2ogsesvb4yutk6poza,3lotdfnyabcgp0wov4xg7knous1fwi,9KUOnqGH,2020-0188,2020-05-08,09:38:11,09:52:48,NA,incomplete,129,filling,1,right,Red_Plus_Stripes_2.jpg,Red_Triangle_Dots_1.jpg,Green_Circle_Stripes_3.jpg,right,1052.9700000188313,true,low,NA,NA,NA,NA,NA,NA,NA,false
9KUOnqGH,3vll1pieot1c2ogsesvb4yutk6poza,3lotdfnyabcgp0wov4xg7knous1fwi,9KUOnqGH,2020-0188,2020-05-08,09:38:11,09:52:48,NA,incomplete,130,filling,1,left,Green_Circle_Dots_4.jpg,Purple_Triangle_Dots_1.jpg,Green_Plus_Stripes_3.jpg,left,1032.889999973122,true,low,NA,NA,NA,NA,NA,NA,NA,false
9KUOnqGH,3vll1pieot1c2ogsesvb4yutk6poza,3lotdfnyabcgp0wov4xg7knous1fwi,9KUOnqGH,2020-0188,2020-05-08,09:38:11,09:52:48,NA,incomplete,131,filling,1,right,Red_Star_Stripes_1.jpg,Red_Circle_Chess_2.jpg,Purple_Plus_Stripes_3.jpg,right,906.139999977313,true,low,NA,NA,NA,NA,NA,NA,NA,false
9KUOnqGH,3vll1pieot1c2ogsesvb4yutk6poza,3lotdfnyabcgp0wov4xg7knous1fwi,9KUOnqGH,2020-0188,2020-05-08,09:38:11,09:52:48,NA,incomplete,132,filling,1,right,Green_Triangle_Dots_4.jpg,Green_Circle_Stripes_3.jpg,Blue_Plus_Dots_2.jpg,right,949.6199999994133,true,low,NA,NA,NA,NA,NA,NA,NA,false
9KUOnqGH,3vll1pieot1c2ogsesvb4yutk6poza,3lotdfnyabcgp0wov4xg7knous1fwi,9KUOnqGH,2020-0188,2020-05-08,09:38:11,09:52:48,NA,incomplete,133,filling,1,left,Blue_Star_Stripes_3.jpg,Red_Circle_Stripes_1.jpg,Blue_Triangle_Dots_2.jpg,left,839.9550000031013,true,low,NA,NA,NA,NA,NA,NA,NA,false
9KUOnqGH,3vll1pieot1c2ogsesvb4yutk6poza,3lotdfnyabcgp0wov4xg7knous1fwi,9KUOnqGH,2020-0188,2020-05-08,09:38:11,09:52:48,NA,incomplete,134,filling,1,right,Purple_Star_Dots_1.jpg,Purple_Circle_Grid_2.jpg,Green_Plus_Dots_3.jpg,right,875.3450000076555,true,low,NA,NA,NA,NA,NA,NA,NA,false
9KUOnqGH,3vll1pieot1c2ogsesvb4yutk6poza,3lotdfnyabcgp0wov4xg7knous1fwi,9KUOnqGH,2020-0188,2020-05-08,09:38:11,09:52:48,NA,incomplete,135,filling,1,left,Green_Star_Dots_3.jpg,Red_Triangle_Dots_1.jpg,Green_Plus_Chess_4.jpg,left,970.6400000141002,true,low,NA,NA,NA,NA,NA,NA,NA,false
9KUOnqGH,3vll1pieot1c2ogsesvb4yutk6poza,3lotdfnyabcgp0wov4xg7knous1fwi,9KUOnqGH,2020-0188,2020-05-08,09:38:11,09:52:48,NA,incomplete,136,filling,0,left,Blue_Triangle_Stripes_3.jpg,Purple_Plus_Stripes_1.jpg,Blue_Star_Dots_2.jpg,left,752.859999978682,true,low,NA,NA,NA,NA,NA,NA,NA,false
9KUOnqGH,3vll1pieot1c2ogsesvb4yutk6poza,3lotdfnyabcgp0wov4xg7knous1fwi,9KUOnqGH,2020-0188,2020-05-08,09:38:11,09:52:48,NA,incomplete,137,filling,1,left,Green_Plus_Grid_4.jpg,Red_Circle_Grid_1.jpg,Green_Triangle_Stripes_2.jpg,left,956.095000001369,true,low,NA,NA,NA,NA,NA,NA,NA,false
9KUOnqGH,3vll1pieot1c2ogsesvb4yutk6poza,3lotdfnyabcgp0wov4xg7knous1fwi,9KUOnqGH,2020-0188,2020-05-08,09:38:11,09:52:48,NA,incomplete,138,filling,1,left,Red_Plus_Stripes_1.jpg,Purple_Circle_Stripes_2.jpg,Red_Triangle_Chess_4.jpg,left,747.4550000042655,true,low,NA,NA,NA,NA,NA,NA,NA,false
9KUOnqGH,3vll1pieot1c2ogsesvb4yutk6poza,3lotdfnyabcgp0wov4xg7knous1fwi,9KUOnqGH,2020-0188,2020-05-08,09:38:11,09:52:48,NA,incomplete,139,filling,1,right,Green_Plus_Dots_4.jpg,Green_Star_Stripes_3.jpg,Blue_Triangle_Dots_1.jpg,right,770.0349999940954,true,low,NA,NA,NA,NA,NA,NA,NA,false
9KUOnqGH,3vll1pieot1c2ogsesvb4yutk6poza,3lotdfnyabcgp0wov4xg7knous1fwi,9KUOnqGH,2020-0188,2020-05-08,09:38:11,09:52:48,NA,incomplete,140,color,1,right,Green_Star_Grid_3.jpg,Purple_Plus_Grid_2.jpg,Green_Circle_Chess_4.jpg,left,806.2799999897834,false,low,NA,NA,NA,NA,NA,NA,NA,false
9KUOnqGH,3vll1pieot1c2ogsesvb4yutk6poza,3lotdfnyabcgp0wov4xg7knous1fwi,9KUOnqGH,2020-0188,2020-05-08,09:38:11,09:52:48,NA,incomplete,141,color,0,right,Red_Triangle_Stripes_3.jpg,Blue_Circle_Stripes_2.jpg,Red_Plus_Grid_1.jpg,left,737.1000000275671,false,low,NA,NA,NA,NA,NA,NA,NA,false
9KUOnqGH,3vll1pieot1c2ogsesvb4yutk6poza,3lotdfnyabcgp0wov4xg7knous1fwi,9KUOnqGH,2020-0188,2020-05-08,09:38:11,09:52:48,NA,incomplete,142,color,1,right,Red_Star_Grid_2.jpg,Blue_Circle_Grid_3.jpg,Red_Plus_Chess_4.jpg,right,909.8499999963678,true,low,NA,NA,NA,NA,NA,NA,NA,false
9KUOnqGH,3vll1pieot1c2ogsesvb4yutk6poza,3lotdfnyabcgp0wov4xg7knous1fwi,9KUOnqGH,2020-0188,2020-05-08,09:38:11,09:52:48,NA,incomplete,143,color,0,left,Red_Star_Grid_2.jpg,Red_Circle_Stripes_4.jpg,Green_Plus_Grid_1.jpg,left,1129.0599999774713,true,low,NA,NA,NA,NA,NA,NA,NA,false
9KUOnqGH,3vll1pieot1c2ogsesvb4yutk6poza,3lotdfnyabcgp0wov4xg7knous1fwi,9KUOnqGH,2020-0188,2020-05-08,09:38:11,09:52:48,NA,incomplete,144,color,1,right,Red_Circle_Dots_1.jpg,Blue_Star_Dots_2.jpg,Red_Triangle_Chess_3.jpg,left,910.7800000056159,false,low,NA,NA,NA,NA,NA,NA,NA,false
9KUOnqGH,3vll1pieot1c2ogsesvb4yutk6poza,3lotdfnyabcgp0wov4xg7knous1fwi,9KUOnqGH,2020-0188,2020-05-08,09:38:11,09:52:48,NA,incomplete,145,color,1,right,Red_Star_Chess_2.jpg,Green_Plus_Chess_1.jpg,Red_Triangle_Dots_4.jpg,right,651.2100000109058,true,low,NA,NA,NA,NA,NA,NA,NA,false
9KUOnqGH,3vll1pieot1c2ogsesvb4yutk6poza,3lotdfnyabcgp0wov4xg7knous1fwi,9KUOnqGH,2020-0188,2020-05-08,09:38:11,09:52:48,NA,incomplete,146,color,1,left,Red_Circle_Dots_4.jpg,Red_Star_Grid_2.jpg,Green_Triangle_Dots_1.jpg,left,567.045000003418,true,low,NA,NA,NA,NA,NA,NA,NA,false
9KUOnqGH,3vll1pieot1c2ogsesvb4yutk6poza,3lotdfnyabcgp0wov4xg7knous1fwi,9KUOnqGH,2020-0188,2020-05-08,09:38:11,09:52:48,NA,incomplete,147,color,0,right,Purple_Star_Dots_2.jpg,Red_Plus_Dots_1.jpg,Purple_Triangle_Grid_4.jpg,right,610.2499999979045,true,low,NA,NA,NA,NA,NA,NA,NA,false
9KUOnqGH,3vll1pieot1c2ogsesvb4yutk6poza,3lotdfnyabcgp0wov4xg7knous1fwi,9KUOnqGH,2020-0188,2020-05-08,09:38:11,09:52:48,NA,incomplete,148,color,1,right,Green_Plus_Stripes_1.jpg,Blue_Star_Stripes_4.jpg,Green_Triangle_Dots_3.jpg,left,1070.9999999962747,false,low,NA,NA,NA,NA,NA,NA,NA,false
9KUOnqGH,3vll1pieot1c2ogsesvb4yutk6poza,3lotdfnyabcgp0wov4xg7knous1fwi,9KUOnqGH,2020-0188,2020-05-08,09:38:11,09:52:48,NA,incomplete,149,color,1,left,Purple_Plus_Chess_2.jpg,Purple_Circle_Dots_1.jpg,Blue_Star_Chess_4.jpg,right,831.9650000194088,false,low,NA,NA,NA,NA,NA,NA,NA,false
9KUOnqGH,3vll1pieot1c2ogsesvb4yutk6poza,3lotdfnyabcgp0wov4xg7knous1fwi,9KUOnqGH,2020-0188,2020-05-08,09:38:11,09:52:48,NA,incomplete,150,color,1,left,Blue_Triangle_Dots_1.jpg,Blue_Star_Chess_3.jpg,Red_Circle_Dots_4.jpg,left,555.0250000087544,true,low,NA,NA,NA,NA,NA,NA,NA,false
9KUOnqGH,3vll1pieot1c2ogsesvb4yutk6poza,3lotdfnyabcgp0wov4xg7knous1fwi,9KUOnqGH,2020-0188,2020-05-08,09:38:11,09:52:48,NA,incomplete,151,color,1,left,Red_Plus_Grid_3.jpg,Red_Triangle_Dots_2.jpg,Purple_Circle_Grid_1.jpg,left,785.3849999955855,true,low,NA,NA,NA,NA,NA,NA,NA,false
9KUOnqGH,3vll1pieot1c2ogsesvb4yutk6poza,3lotdfnyabcgp0wov4xg7knous1fwi,9KUOnqGH,2020-0188,2020-05-08,09:38:11,09:52:48,NA,incomplete,152,color,1,left,Red_Triangle_Stripes_4.jpg,Red_Circle_Grid_3.jpg,Purple_Plus_Stripes_1.jpg,left,557.0500000030734,true,low,NA,NA,NA,NA,NA,NA,NA,false
9KUOnqGH,3vll1pieot1c2ogsesvb4yutk6poza,3lotdfnyabcgp0wov4xg7knous1fwi,9KUOnqGH,2020-0188,2020-05-08,09:38:11,09:52:48,NA,incomplete,153,color,1,right,Green_Triangle_Grid_4.jpg,Red_Circle_Grid_2.jpg,Green_Star_Dots_3.jpg,right,566.6300000157207,true,low,NA,NA,NA,NA,NA,NA,NA,false
9KUOnqGH,3vll1pieot1c2ogsesvb4yutk6poza,3lotdfnyabcgp0wov4xg7knous1fwi,9KUOnqGH,2020-0188,2020-05-08,09:38:11,09:52:48,NA,incomplete,154,color,1,left,Blue_Plus_Stripes_2.jpg,Blue_Triangle_Grid_4.jpg,Red_Star_Stripes_1.jpg,left,525.4149999818765,true,low,NA,NA,NA,NA,NA,NA,NA,false
9KUOnqGH,3vll1pieot1c2ogsesvb4yutk6poza,3lotdfnyabcgp0wov4xg7knous1fwi,9KUOnqGH,2020-0188,2020-05-08,09:38:11,09:52:48,NA,incomplete,155,color,0,left,Purple_Plus_Chess_2.jpg,Purple_Circle_Grid_4.jpg,Blue_Star_Chess_1.jpg,left,481.93499998888,true,low,NA,NA,NA,NA,NA,NA,NA,false
9KUOnqGH,3vll1pieot1c2ogsesvb4yutk6poza,3lotdfnyabcgp0wov4xg7knous1fwi,9KUOnqGH,2020-0188,2020-05-08,09:38:11,09:52:48,NA,incomplete,156,color,1,right,Blue_Plus_Chess_3.jpg,Red_Triangle_Chess_4.jpg,Blue_Circle_Stripes_2.jpg,right,593.3500000101048,true,low,NA,NA,NA,NA,NA,NA,NA,false
9KUOnqGH,3vll1pieot1c2ogsesvb4yutk6poza,3lotdfnyabcgp0wov4xg7knous1fwi,9KUOnqGH,2020-0188,2020-05-08,09:38:11,09:52:48,NA,incomplete,157,color,1,right,Blue_Plus_Stripes_3.jpg,Purple_Star_Stripes_1.jpg,Blue_Triangle_Chess_2.jpg,right,457.1050000085961,true,low,NA,NA,NA,NA,NA,NA,NA,false
9KUOnqGH,3vll1pieot1c2ogsesvb4yutk6poza,3lotdfnyabcgp0wov4xg7knous1fwi,9KUOnqGH,2020-0188,2020-05-08,09:38:11,09:52:48,NA,incomplete,158,color,1,right,Blue_Circle_Chess_3.jpg,Purple_Triangle_Chess_1.jpg,Blue_Plus_Grid_2.jpg,right,482.6549999997951,true,low,NA,NA,NA,NA,NA,NA,NA,false
9KUOnqGH,3vll1pieot1c2ogsesvb4yutk6poza,3lotdfnyabcgp0wov4xg7knous1fwi,9KUOnqGH,2020-0188,2020-05-08,09:38:11,09:52:48,NA,incomplete,159,color,1,left,Red_Plus_Chess_3.jpg,Red_Triangle_Stripes_4.jpg,Green_Circle_Chess_2.jpg,left,536.5900000033434,true,low,NA,NA,NA,NA,NA,NA,NA,false
9KUOnqGH,3vll1pieot1c2ogsesvb4yutk6poza,3lotdfnyabcgp0wov4xg7knous1fwi,9KUOnqGH,2020-0188,2020-05-08,09:38:11,09:52:48,NA,incomplete,160,filling,1,left,Red_Triangle_Grid_2.jpg,Blue_Star_Grid_4.jpg,Red_Plus_Dots_3.jpg,right,518.7900000018999,false,low,NA,NA,NA,NA,NA,NA,NA,false
9KUOnqGH,3vll1pieot1c2ogsesvb4yutk6poza,3lotdfnyabcgp0wov4xg7knous1fwi,9KUOnqGH,2020-0188,2020-05-08,09:38:11,09:52:48,NA,incomplete,161,filling,1,left,Purple_Plus_Grid_4.jpg,Green_Triangle_Grid_1.jpg,Purple_Star_Stripes_2.jpg,right,503.0149999947753,false,low,NA,NA,NA,NA,NA,NA,NA,false
9KUOnqGH,3vll1pieot1c2ogsesvb4yutk6poza,3lotdfnyabcgp0wov4xg7knous1fwi,9KUOnqGH,2020-0188,2020-05-08,09:38:11,09:52:48,NA,incomplete,162,filling,1,right,Purple_Plus_Grid_4.jpg,Purple_Triangle_Dots_1.jpg,Green_Circle_Grid_3.jpg,left,497.26500001270324,false,low,NA,NA,NA,NA,NA,NA,NA,false
9KUOnqGH,3vll1pieot1c2ogsesvb4yutk6poza,3lotdfnyabcgp0wov4xg7knous1fwi,9KUOnqGH,2020-0188,2020-05-08,09:38:11,09:52:48,NA,incomplete,163,filling,1,left,Red_Star_Stripes_2.jpg,Green_Plus_Stripes_4.jpg,Red_Circle_Dots_1.jpg,right,570.754999993369,false,low,NA,NA,NA,NA,NA,NA,NA,false
9KUOnqGH,3vll1pieot1c2ogsesvb4yutk6poza,3lotdfnyabcgp0wov4xg7knous1fwi,9KUOnqGH,2020-0188,2020-05-08,09:38:11,09:52:48,NA,incomplete,164,filling,1,left,Green_Triangle_Dots_4.jpg,Purple_Star_Dots_2.jpg,Green_Circle_Stripes_1.jpg,left,823.130000004312,true,low,NA,NA,NA,NA,NA,NA,NA,false
9KUOnqGH,3vll1pieot1c2ogsesvb4yutk6poza,3lotdfnyabcgp0wov4xg7knous1fwi,9KUOnqGH,2020-0188,2020-05-08,09:38:11,09:52:48,NA,incomplete,165,filling,1,right,Purple_Star_Dots_4.jpg,Purple_Triangle_Stripes_1.jpg,Green_Plus_Dots_3.jpg,right,755.5949999950826,true,low,NA,NA,NA,NA,NA,NA,NA,false
9KUOnqGH,3vll1pieot1c2ogsesvb4yutk6poza,3lotdfnyabcgp0wov4xg7knous1fwi,9KUOnqGH,2020-0188,2020-05-08,09:38:11,09:52:48,NA,incomplete,166,filling,1,right,Purple_Circle_Stripes_3.jpg,Purple_Triangle_Dots_2.jpg,Green_Star_Stripes_4.jpg,right,1082.574999978533,true,low,NA,NA,NA,NA,NA,NA,NA,false
9KUOnqGH,3vll1pieot1c2ogsesvb4yutk6poza,3lotdfnyabcgp0wov4xg7knous1fwi,9KUOnqGH,2020-0188,2020-05-08,09:38:11,09:52:48,NA,incomplete,167,filling,1,left,Red_Circle_Grid_4.jpg,Blue_Triangle_Grid_1.jpg,Red_Star_Dots_2.jpg,left,629.1849999979604,true,low,NA,NA,NA,NA,NA,NA,NA,false
9KUOnqGH,3vll1pieot1c2ogsesvb4yutk6poza,3lotdfnyabcgp0wov4xg7knous1fwi,9KUOnqGH,2020-0188,2020-05-08,09:38:11,09:52:48,NA,incomplete,168,filling,1,right,Red_Star_Stripes_2.jpg,Red_Plus_Chess_1.jpg,Purple_Circle_Stripes_4.jpg,right,709.1399999917485,true,low,NA,NA,NA,NA,NA,NA,NA,false
9KUOnqGH,3vll1pieot1c2ogsesvb4yutk6poza,3lotdfnyabcgp0wov4xg7knous1fwi,9KUOnqGH,2020-0188,2020-05-08,09:38:11,09:52:48,NA,incomplete,169,filling,1,left,Red_Circle_Stripes_4.jpg,Purple_Star_Stripes_3.jpg,Red_Triangle_Grid_2.jpg,left,710.3399999905378,true,low,NA,NA,NA,NA,NA,NA,NA,false
9KUOnqGH,3vll1pieot1c2ogsesvb4yutk6poza,3lotdfnyabcgp0wov4xg7knous1fwi,9KUOnqGH,2020-0188,2020-05-08,09:38:11,09:52:48,NA,incomplete,170,filling,1,right,Green_Star_Stripes_2.jpg,Green_Circle_Dots_1.jpg,Purple_Plus_Stripes_3.jpg,right,833.6200000194367,true,low,NA,NA,NA,NA,NA,NA,NA,false
9KUOnqGH,3vll1pieot1c2ogsesvb4yutk6poza,3lotdfnyabcgp0wov4xg7knous1fwi,9KUOnqGH,2020-0188,2020-05-08,09:38:11,09:52:48,NA,incomplete,171,filling,1,left,Purple_Circle_Stripes_3.jpg,Blue_Star_Stripes_2.jpg,Purple_Triangle_Dots_1.jpg,left,921.3400000007823,true,low,NA,NA,NA,NA,NA,NA,NA,false
9KUOnqGH,3vll1pieot1c2ogsesvb4yutk6poza,3lotdfnyabcgp0wov4xg7knous1fwi,9KUOnqGH,2020-0188,2020-05-08,09:38:11,09:52:48,NA,incomplete,172,filling,1,right,Purple_Circle_Stripes_1.jpg,Purple_Star_Grid_4.jpg,Blue_Triangle_Stripes_2.jpg,right,743.7600000121165,true,low,NA,NA,NA,NA,NA,NA,NA,false
9KUOnqGH,3vll1pieot1c2ogsesvb4yutk6poza,3lotdfnyabcgp0wov4xg7knous1fwi,9KUOnqGH,2020-0188,2020-05-08,09:38:11,09:52:48,NA,incomplete,173,filling,1,left,Blue_Triangle_Chess_3.jpg,Red_Plus_Chess_1.jpg,Blue_Star_Grid_4.jpg,left,624.3100000137929,true,low,NA,NA,NA,NA,NA,NA,NA,false
9KUOnqGH,3vll1pieot1c2ogsesvb4yutk6poza,3lotdfnyabcgp0wov4xg7knous1fwi,9KUOnqGH,2020-0188,2020-05-08,09:38:11,09:52:48,NA,incomplete,174,filling,1,left,Green_Star_Dots_2.jpg,Purple_Plus_Dots_3.jpg,Green_Triangle_Grid_1.jpg,left,812.1250000258442,true,low,NA,NA,NA,NA,NA,NA,NA,false
9KUOnqGH,3vll1pieot1c2ogsesvb4yutk6poza,3lotdfnyabcgp0wov4xg7knous1fwi,9KUOnqGH,2020-0188,2020-05-08,09:38:11,09:52:48,NA,incomplete,175,filling,1,left,Purple_Plus_Stripes_3.jpg,Green_Star_Stripes_2.jpg,Purple_Triangle_Chess_4.jpg,left,793.4749999840278,true,low,NA,NA,NA,NA,NA,NA,NA,false
9KUOnqGH,3vll1pieot1c2ogsesvb4yutk6poza,3lotdfnyabcgp0wov4xg7knous1fwi,9KUOnqGH,2020-0188,2020-05-08,09:38:11,09:52:48,NA,incomplete,176,filling,1,left,Purple_Plus_Stripes_4.jpg,Blue_Circle_Stripes_3.jpg,Purple_Triangle_Grid_2.jpg,left,909.9250000144821,true,low,NA,NA,NA,NA,NA,NA,NA,false
9KUOnqGH,3vll1pieot1c2ogsesvb4yutk6poza,3lotdfnyabcgp0wov4xg7knous1fwi,9KUOnqGH,2020-0188,2020-05-08,09:38:11,09:52:48,NA,incomplete,177,filling,1,right,Green_Triangle_Chess_3.jpg,Green_Star_Grid_4.jpg,Purple_Plus_Chess_2.jpg,right,893.3850000030361,true,low,NA,NA,NA,NA,NA,NA,NA,false
9KUOnqGH,3vll1pieot1c2ogsesvb4yutk6poza,3lotdfnyabcgp0wov4xg7knous1fwi,9KUOnqGH,2020-0188,2020-05-08,09:38:11,09:52:48,NA,incomplete,178,filling,1,right,Blue_Star_Chess_1.jpg,Blue_Circle_Stripes_2.jpg,Green_Plus_Chess_4.jpg,right,740.7300000195391,true,low,NA,NA,NA,NA,NA,NA,NA,false
9KUOnqGH,3vll1pieot1c2ogsesvb4yutk6poza,3lotdfnyabcgp0wov4xg7knous1fwi,9KUOnqGH,2020-0188,2020-05-08,09:38:11,09:52:48,NA,incomplete,179,filling,1,right,Green_Triangle_Stripes_2.jpg,Green_Circle_Dots_4.jpg,Purple_Plus_Stripes_3.jpg,right,732.4000000080559,true,low,NA,NA,NA,NA,NA,NA,NA,false
9KUOnqGH,3vll1pieot1c2ogsesvb4yutk6poza,3lotdfnyabcgp0wov4xg7knous1fwi,9KUOnqGH,2020-0188,2020-05-08,09:38:11,09:52:48,NA,incomplete,180,color,1,right,Blue_Star_Grid_3.jpg,Green_Plus_Grid_4.jpg,Blue_Circle_Dots_1.jpg,left,734.6499999985099,false,low,NA,NA,NA,NA,NA,NA,NA,false
9KUOnqGH,3vll1pieot1c2ogsesvb4yutk6poza,3lotdfnyabcgp0wov4xg7knous1fwi,9KUOnqGH,2020-0188,2020-05-08,09:38:11,09:52:48,NA,incomplete,181,color,1,right,Green_Plus_Chess_1.jpg,Red_Triangle_Chess_4.jpg,Green_Star_Dots_2.jpg,left,864.2649999819696,false,low,NA,NA,NA,NA,NA,NA,NA,false
9KUOnqGH,3vll1pieot1c2ogsesvb4yutk6poza,3lotdfnyabcgp0wov4xg7knous1fwi,9KUOnqGH,2020-0188,2020-05-08,09:38:11,09:52:48,NA,incomplete,182,color,1,right,Blue_Star_Grid_1.jpg,Red_Plus_Grid_3.jpg,Blue_Circle_Stripes_2.jpg,right,561.4349999814294,true,low,NA,NA,NA,NA,NA,NA,NA,false
9KUOnqGH,3vll1pieot1c2ogsesvb4yutk6poza,3lotdfnyabcgp0wov4xg7knous1fwi,9KUOnqGH,2020-0188,2020-05-08,09:38:11,09:52:48,NA,incomplete,183,color,0,left,Red_Star_Grid_4.jpg,Red_Plus_Chess_3.jpg,Purple_Triangle_Grid_2.jpg,left,518.1050000246614,true,low,NA,NA,NA,NA,NA,NA,NA,false
9KUOnqGH,3vll1pieot1c2ogsesvb4yutk6poza,3lotdfnyabcgp0wov4xg7knous1fwi,9KUOnqGH,2020-0188,2020-05-08,09:38:11,09:52:48,NA,incomplete,184,color,1,right,Blue_Plus_Chess_1.jpg,Green_Triangle_Chess_4.jpg,Blue_Star_Dots_2.jpg,right,579.8450000002049,true,low,NA,NA,NA,NA,NA,NA,NA,false
9KUOnqGH,3vll1pieot1c2ogsesvb4yutk6poza,3lotdfnyabcgp0wov4xg7knous1fwi,9KUOnqGH,2020-0188,2020-05-08,09:38:11,09:52:48,NA,incomplete,185,color,1,left,Green_Circle_Stripes_4.jpg,Green_Plus_Chess_2.jpg,Purple_Triangle_Stripes_3.jpg,left,618.9449999947101,true,low,NA,NA,NA,NA,NA,NA,NA,false
9KUOnqGH,3vll1pieot1c2ogsesvb4yutk6poza,3lotdfnyabcgp0wov4xg7knous1fwi,9KUOnqGH,2020-0188,2020-05-08,09:38:11,09:52:48,NA,incomplete,186,color,0,left,Blue_Triangle_Grid_3.jpg,Blue_Star_Chess_1.jpg,Green_Plus_Grid_2.jpg,left,611.1600000003818,true,low,NA,NA,NA,NA,NA,NA,NA,false
9KUOnqGH,3vll1pieot1c2ogsesvb4yutk6poza,3lotdfnyabcgp0wov4xg7knous1fwi,9KUOnqGH,2020-0188,2020-05-08,09:38:11,09:52:48,NA,incomplete,187,color,1,right,Red_Star_Grid_2.jpg,Blue_Circle_Grid_4.jpg,Red_Plus_Dots_3.jpg,right,612.1400000120047,true,low,NA,NA,NA,NA,NA,NA,NA,false
9KUOnqGH,3vll1pieot1c2ogsesvb4yutk6poza,3lotdfnyabcgp0wov4xg7knous1fwi,9KUOnqGH,2020-0188,2020-05-08,09:38:11,09:52:48,NA,incomplete,188,color,1,left,Purple_Circle_Chess_3.jpg,Purple_Plus_Stripes_1.jpg,Red_Star_Chess_4.jpg,left,587.7349999791477,true,low,NA,NA,NA,NA,NA,NA,NA,false
9KUOnqGH,3vll1pieot1c2ogsesvb4yutk6poza,3lotdfnyabcgp0wov4xg7knous1fwi,9KUOnqGH,2020-0188,2020-05-08,09:38:11,09:52:48,NA,incomplete,189,color,0,right,Green_Circle_Grid_3.jpg,Blue_Triangle_Grid_4.jpg,Green_Plus_Dots_1.jpg,right,654.6999999845866,true,low,NA,NA,NA,NA,NA,NA,NA,false
9KUOnqGH,3vll1pieot1c2ogsesvb4yutk6poza,3lotdfnyabcgp0wov4xg7knous1fwi,9KUOnqGH,2020-0188,2020-05-08,09:38:11,09:52:48,NA,incomplete,190,color,1,left,Blue_Circle_Chess_1.jpg,Blue_Triangle_Dots_4.jpg,Purple_Star_Chess_2.jpg,left,541.9799999799579,true,low,NA,NA,NA,NA,NA,NA,NA,false
9KUOnqGH,3vll1pieot1c2ogsesvb4yutk6poza,3lotdfnyabcgp0wov4xg7knous1fwi,9KUOnqGH,2020-0188,2020-05-08,09:38:11,09:52:48,NA,incomplete,191,color,1,right,Purple_Circle_Stripes_4.jpg,Red_Star_Stripes_3.jpg,Purple_Plus_Chess_2.jpg,right,664.1050000034738,true,low,NA,NA,NA,NA,NA,NA,NA,false
9KUOnqGH,3vll1pieot1c2ogsesvb4yutk6poza,3lotdfnyabcgp0wov4xg7knous1fwi,9KUOnqGH,2020-0188,2020-05-08,09:38:11,09:52:48,NA,incomplete,192,color,1,right,Red_Plus_Dots_2.jpg,Green_Star_Dots_3.jpg,Red_Circle_Chess_1.jpg,right,652.1499999798834,true,low,NA,NA,NA,NA,NA,NA,NA,false
9KUOnqGH,3vll1pieot1c2ogsesvb4yutk6poza,3lotdfnyabcgp0wov4xg7knous1fwi,9KUOnqGH,2020-0188,2020-05-08,09:38:11,09:52:48,NA,incomplete,193,color,1,right,Purple_Star_Dots_1.jpg,Red_Plus_Dots_3.jpg,Purple_Circle_Stripes_2.jpg,right,655.205000017304,true,low,NA,NA,NA,NA,NA,NA,NA,false
9KUOnqGH,3vll1pieot1c2ogsesvb4yutk6poza,3lotdfnyabcgp0wov4xg7knous1fwi,9KUOnqGH,2020-0188,2020-05-08,09:38:11,09:52:48,NA,incomplete,194,color,1,left,Blue_Triangle_Stripes_1.jpg,Blue_Plus_Chess_4.jpg,Red_Circle_Stripes_2.jpg,left,620.1599999913014,true,low,NA,NA,NA,NA,NA,NA,NA,false
9KUOnqGH,3vll1pieot1c2ogsesvb4yutk6poza,3lotdfnyabcgp0wov4xg7knous1fwi,9KUOnqGH,2020-0188,2020-05-08,09:38:11,09:52:48,NA,incomplete,195,color,0,right,Blue_Circle_Grid_3.jpg,Green_Star_Grid_2.jpg,Blue_Plus_Chess_1.jpg,right,704.3100000009872,true,low,NA,NA,NA,NA,NA,NA,NA,false
9KUOnqGH,3vll1pieot1c2ogsesvb4yutk6poza,3lotdfnyabcgp0wov4xg7knous1fwi,9KUOnqGH,2020-0188,2020-05-08,09:38:11,09:52:48,NA,incomplete,196,color,1,left,Green_Star_Grid_1.jpg,Green_Circle_Stripes_2.jpg,Purple_Plus_Grid_4.jpg,left,580.9050000098068,true,low,NA,NA,NA,NA,NA,NA,NA,false
9KUOnqGH,3vll1pieot1c2ogsesvb4yutk6poza,3lotdfnyabcgp0wov4xg7knous1fwi,9KUOnqGH,2020-0188,2020-05-08,09:38:11,09:52:48,NA,incomplete,197,color,1,right,Red_Triangle_Dots_1.jpg,Purple_Circle_Dots_3.jpg,Red_Plus_Stripes_2.jpg,right,659.2150000215042,true,low,NA,NA,NA,NA,NA,NA,NA,false
9KUOnqGH,3vll1pieot1c2ogsesvb4yutk6poza,3lotdfnyabcgp0wov4xg7knous1fwi,9KUOnqGH,2020-0188,2020-05-08,09:38:11,09:52:48,NA,incomplete,198,color,0,left,Purple_Plus_Stripes_2.jpg,Purple_Circle_Dots_4.jpg,Blue_Star_Stripes_1.jpg,left,631.6949999891222,true,low,NA,NA,NA,NA,NA,NA,NA,false
9KUOnqGH,3vll1pieot1c2ogsesvb4yutk6poza,3lotdfnyabcgp0wov4xg7knous1fwi,9KUOnqGH,2020-0188,2020-05-08,09:38:11,09:52:48,NA,incomplete,199,color,1,right,Red_Triangle_Stripes_1.jpg,Green_Plus_Stripes_4.jpg,Red_Star_Chess_3.jpg,left,828.0349999840837,false,low,NA,NA,NA,NA,NA,NA,NA,false
9KUOnqGH,3vll1pieot1c2ogsesvb4yutk6poza,3lotdfnyabcgp0wov4xg7knous1fwi,9KUOnqGH,2020-0188,2020-05-08,09:38:11,09:52:48,NA,incomplete,200,filling,1,left,Blue_Circle_Dots_4.jpg,Purple_Plus_Dots_3.jpg,Blue_Triangle_Grid_2.jpg,right,551.1149999802001,false,low,NA,NA,NA,NA,NA,NA,NA,false
9KUOnqGH,3vll1pieot1c2ogsesvb4yutk6poza,3lotdfnyabcgp0wov4xg7knous1fwi,9KUOnqGH,2020-0188,2020-05-08,09:38:11,09:52:48,NA,incomplete,201,filling,1,left,Blue_Star_Grid_1.jpg,Green_Plus_Grid_3.jpg,Blue_Triangle_Dots_2.jpg,left,771.0799999767914,true,low,NA,NA,NA,NA,NA,NA,NA,false
9KUOnqGH,3vll1pieot1c2ogsesvb4yutk6poza,3lotdfnyabcgp0wov4xg7knous1fwi,9KUOnqGH,2020-0188,2020-05-08,09:38:11,09:52:48,NA,incomplete,202,filling,0,right,Red_Circle_Chess_2.jpg,Red_Triangle_Dots_3.jpg,Blue_Star_Chess_1.jpg,right,771.9750000105705,true,low,NA,NA,NA,NA,NA,NA,NA,false
9KUOnqGH,3vll1pieot1c2ogsesvb4yutk6poza,3lotdfnyabcgp0wov4xg7knous1fwi,9KUOnqGH,2020-0188,2020-05-08,09:38:11,09:52:48,NA,incomplete,203,filling,1,right,Purple_Triangle_Grid_2.jpg,Purple_Star_Dots_1.jpg,Green_Circle_Grid_4.jpg,right,1010.4750000173226,true,low,NA,NA,NA,NA,NA,NA,NA,false
9KUOnqGH,3vll1pieot1c2ogsesvb4yutk6poza,3lotdfnyabcgp0wov4xg7knous1fwi,9KUOnqGH,2020-0188,2020-05-08,09:38:11,09:52:48,NA,incomplete,204,filling,1,right,Purple_Circle_Stripes_3.jpg,Purple_Triangle_Chess_1.jpg,Blue_Plus_Stripes_2.jpg,right,834.4250000081956,true,low,NA,NA,NA,NA,NA,NA,NA,false
9KUOnqGH,3vll1pieot1c2ogsesvb4yutk6poza,3lotdfnyabcgp0wov4xg7knous1fwi,9KUOnqGH,2020-0188,2020-05-08,09:38:11,09:52:48,NA,incomplete,205,filling,1,right,Purple_Star_Dots_1.jpg,Purple_Plus_Chess_4.jpg,Blue_Triangle_Dots_3.jpg,right,805.129999993369,true,low,NA,NA,NA,NA,NA,NA,NA,false
9KUOnqGH,3vll1pieot1c2ogsesvb4yutk6poza,3lotdfnyabcgp0wov4xg7knous1fwi,9KUOnqGH,2020-0188,2020-05-08,09:38:11,09:52:48,NA,incomplete,206,filling,1,right,Blue_Triangle_Grid_2.jpg,Blue_Circle_Stripes_1.jpg,Purple_Plus_Grid_4.jpg,left,661.7850000038743,false,low,NA,NA,NA,NA,NA,NA,NA,false
9KUOnqGH,3vll1pieot1c2ogsesvb4yutk6poza,3lotdfnyabcgp0wov4xg7knous1fwi,9KUOnqGH,2020-0188,2020-05-08,09:38:11,09:52:48,NA,incomplete,207,filling,1,left,Blue_Star_Dots_3.jpg,Green_Circle_Dots_4.jpg,Blue_Triangle_Chess_1.jpg,left,776.9950000219978,true,low,NA,NA,NA,NA,NA,NA,NA,false
9KUOnqGH,3vll1pieot1c2ogsesvb4yutk6poza,3lotdfnyabcgp0wov4xg7knous1fwi,9KUOnqGH,2020-0188,2020-05-08,09:38:11,09:52:48,NA,incomplete,208,filling,1,left,Blue_Plus_Dots_2.jpg,Red_Circle_Dots_4.jpg,Blue_Star_Chess_3.jpg,left,716.9850000063889,true,low,NA,NA,NA,NA,NA,NA,NA,false
9KUOnqGH,3vll1pieot1c2ogsesvb4yutk6poza,3lotdfnyabcgp0wov4xg7knous1fwi,9KUOnqGH,2020-0188,2020-05-08,09:38:11,09:52:48,NA,incomplete,209,filling,0,left,Blue_Plus_Dots_2.jpg,Green_Triangle_Dots_3.jpg,Blue_Circle_Grid_1.jpg,left,728.8100000005215,true,low,NA,NA,NA,NA,NA,NA,NA,false
9KUOnqGH,3vll1pieot1c2ogsesvb4yutk6poza,3lotdfnyabcgp0wov4xg7knous1fwi,9KUOnqGH,2020-0188,2020-05-08,09:38:11,09:52:48,NA,incomplete,210,filling,1,right,Green_Plus_Grid_4.jpg,Green_Circle_Dots_2.jpg,Blue_Triangle_Grid_1.jpg,right,686.3949999969918,true,low,NA,NA,NA,NA,NA,NA,NA,false
9KUOnqGH,3vll1pieot1c2ogsesvb4yutk6poza,3lotdfnyabcgp0wov4xg7knous1fwi,9KUOnqGH,2020-0188,2020-05-08,09:38:11,09:52:48,NA,incomplete,211,filling,1,left,Blue_Plus_Dots_3.jpg,Red_Circle_Dots_1.jpg,Blue_Star_Chess_2.jpg,left,660.1200000150129,true,low,NA,NA,NA,NA,NA,NA,NA,false
9KUOnqGH,3vll1pieot1c2ogsesvb4yutk6poza,3lotdfnyabcgp0wov4xg7knous1fwi,9KUOnqGH,2020-0188,2020-05-08,09:38:11,09:52:48,NA,incomplete,212,filling,1,right,Green_Plus_Dots_3.jpg,Green_Star_Stripes_4.jpg,Red_Circle_Dots_1.jpg,right,775.5550000001676,true,low,NA,NA,NA,NA,NA,NA,NA,false
9KUOnqGH,3vll1pieot1c2ogsesvb4yutk6poza,3lotdfnyabcgp0wov4xg7knous1fwi,9KUOnqGH,2020-0188,2020-05-08,09:38:11,09:52:48,NA,incomplete,213,filling,1,left,Blue_Plus_Grid_2.jpg,Purple_Star_Grid_4.jpg,Blue_Triangle_Chess_1.jpg,left,967.3599999805447,true,low,NA,NA,NA,NA,NA,NA,NA,false
9KUOnqGH,3vll1pieot1c2ogsesvb4yutk6poza,3lotdfnyabcgp0wov4xg7knous1fwi,9KUOnqGH,2020-0188,2020-05-08,09:38:11,09:52:48,NA,incomplete,214,filling,1,right,Blue_Plus_Stripes_4.jpg,Blue_Triangle_Chess_1.jpg,Green_Star_Stripes_3.jpg,right,708.0950000090525,true,low,NA,NA,NA,NA,NA,NA,NA,false
9KUOnqGH,3vll1pieot1c2ogsesvb4yutk6poza,3lotdfnyabcgp0wov4xg7knous1fwi,9KUOnqGH,2020-0188,2020-05-08,09:38:11,09:52:48,NA,incomplete,215,filling,0,right,Red_Triangle_Grid_4.jpg,Red_Plus_Chess_3.jpg,Purple_Circle_Grid_1.jpg,left,643.3599999872968,false,low,NA,NA,NA,NA,NA,NA,NA,false
9KUOnqGH,3vll1pieot1c2ogsesvb4yutk6poza,3lotdfnyabcgp0wov4xg7knous1fwi,9KUOnqGH,2020-0188,2020-05-08,09:38:11,09:52:48,NA,incomplete,216,filling,1,right,Red_Star_Chess_4.jpg,Red_Plus_Grid_1.jpg,Blue_Circle_Chess_3.jpg,left,814.7549999994226,false,low,NA,NA,NA,NA,NA,NA,NA,false
9KUOnqGH,3vll1pieot1c2ogsesvb4yutk6poza,3lotdfnyabcgp0wov4xg7knous1fwi,9KUOnqGH,2020-0188,2020-05-08,09:38:11,09:52:48,NA,incomplete,217,filling,1,left,Green_Plus_Dots_1.jpg,Blue_Triangle_Dots_4.jpg,Green_Circle_Stripes_3.jpg,right,635.2550000010524,false,low,NA,NA,NA,NA,NA,NA,NA,false
9KUOnqGH,3vll1pieot1c2ogsesvb4yutk6poza,3lotdfnyabcgp0wov4xg7knous1fwi,9KUOnqGH,2020-0188,2020-05-08,09:38:11,09:52:48,NA,incomplete,218,filling,0,left,Red_Circle_Stripes_3.jpg,Purple_Plus_Stripes_1.jpg,Red_Star_Chess_2.jpg,left,768.1150000134949,true,low,NA,NA,NA,NA,NA,NA,NA,false
9KUOnqGH,3vll1pieot1c2ogsesvb4yutk6poza,3lotdfnyabcgp0wov4xg7knous1fwi,9KUOnqGH,2020-0188,2020-05-08,09:38:11,09:52:48,NA,incomplete,219,filling,1,right,Blue_Triangle_Grid_2.jpg,Blue_Star_Chess_1.jpg,Green_Circle_Grid_3.jpg,right,944.6150000148918,true,low,NA,NA,NA,NA,NA,NA,NA,false
9KUOnqGH,3vll1pieot1c2ogsesvb4yutk6poza,3lotdfnyabcgp0wov4xg7knous1fwi,9KUOnqGH,2020-0188,2020-05-08,09:38:11,09:52:48,NA,incomplete,220,color,1,right,Blue_Plus_Stripes_2.jpg,Green_Star_Stripes_4.jpg,Blue_Circle_Chess_1.jpg,left,787.7100000041537,false,low,NA,NA,NA,NA,NA,NA,NA,false
9KUOnqGH,3vll1pieot1c2ogsesvb4yutk6poza,3lotdfnyabcgp0wov4xg7knous1fwi,9KUOnqGH,2020-0188,2020-05-08,09:38:11,09:52:48,NA,incomplete,221,color,0,right,Green_Plus_Grid_2.jpg,Blue_Triangle_Grid_1.jpg,Green_Circle_Dots_3.jpg,left,885.5000000039581,false,low,NA,NA,NA,NA,NA,NA,NA,false
9KUOnqGH,3vll1pieot1c2ogsesvb4yutk6poza,3lotdfnyabcgp0wov4xg7knous1fwi,9KUOnqGH,2020-0188,2020-05-08,09:38:11,09:52:48,NA,incomplete,222,color,1,left,Purple_Triangle_Grid_3.jpg,Purple_Star_Chess_2.jpg,Green_Circle_Grid_1.jpg,right,852.3550000099931,false,low,NA,NA,NA,NA,NA,NA,NA,false
9KUOnqGH,3vll1pieot1c2ogsesvb4yutk6poza,3lotdfnyabcgp0wov4xg7knous1fwi,9KUOnqGH,2020-0188,2020-05-08,09:38:11,09:52:48,NA,incomplete,223,color,1,right,Purple_Star_Grid_3.jpg,Green_Circle_Grid_4.jpg,Purple_Plus_Dots_1.jpg,right,820.1549999939743,true,low,NA,NA,NA,NA,NA,NA,NA,false
9KUOnqGH,3vll1pieot1c2ogsesvb4yutk6poza,3lotdfnyabcgp0wov4xg7knous1fwi,9KUOnqGH,2020-0188,2020-05-08,09:38:11,09:52:48,NA,incomplete,224,color,0,right,Purple_Plus_Dots_2.jpg,Red_Circle_Dots_4.jpg,Purple_Triangle_Stripes_1.jpg,right,627.9100000101607,true,low,NA,NA,NA,NA,NA,NA,NA,false
9KUOnqGH,3vll1pieot1c2ogsesvb4yutk6poza,3lotdfnyabcgp0wov4xg7knous1fwi,9KUOnqGH,2020-0188,2020-05-08,09:38:11,09:52:48,NA,incomplete,225,color,1,left,Green_Plus_Dots_2.jpg,Green_Star_Chess_4.jpg,Blue_Triangle_Dots_1.jpg,right,874.6500000124797,false,low,NA,NA,NA,NA,NA,NA,NA,false
9KUOnqGH,3vll1pieot1c2ogsesvb4yutk6poza,3lotdfnyabcgp0wov4xg7knous1fwi,9KUOnqGH,2020-0188,2020-05-08,09:38:11,09:52:48,NA,incomplete,226,color,1,right,Blue_Circle_Grid_4.jpg,Red_Triangle_Grid_2.jpg,Blue_Plus_Chess_1.jpg,left,915.0550000194926,false,low,NA,NA,NA,NA,NA,NA,NA,false
9KUOnqGH,3vll1pieot1c2ogsesvb4yutk6poza,3lotdfnyabcgp0wov4xg7knous1fwi,9KUOnqGH,2020-0188,2020-05-08,09:38:11,09:52:48,NA,incomplete,227,color,1,right,Blue_Plus_Stripes_1.jpg,Red_Circle_Stripes_3.jpg,Blue_Star_Chess_4.jpg,right,575.2700000011828,true,low,NA,NA,NA,NA,NA,NA,NA,false
9KUOnqGH,3vll1pieot1c2ogsesvb4yutk6poza,3lotdfnyabcgp0wov4xg7knous1fwi,9KUOnqGH,2020-0188,2020-05-08,09:38:11,09:52:48,NA,incomplete,228,color,1,left,Blue_Circle_Stripes_4.jpg,Blue_Star_Dots_1.jpg,Purple_Plus_Stripes_2.jpg,left,604.8950000258628,true,low,NA,NA,NA,NA,NA,NA,NA,false
9KUOnqGH,3vll1pieot1c2ogsesvb4yutk6poza,3lotdfnyabcgp0wov4xg7knous1fwi,9KUOnqGH,2020-0188,2020-05-08,09:38:11,09:52:48,NA,incomplete,229,color,0,right,Blue_Plus_Chess_2.jpg,Purple_Star_Chess_3.jpg,Blue_Circle_Stripes_1.jpg,right,609.3849999888334,true,low,NA,NA,NA,NA,NA,NA,NA,false
9KUOnqGH,3vll1pieot1c2ogsesvb4yutk6poza,3lotdfnyabcgp0wov4xg7knous1fwi,9KUOnqGH,2020-0188,2020-05-08,09:38:11,09:52:48,NA,incomplete,230,color,1,left,Red_Circle_Chess_4.jpg,Red_Plus_Stripes_2.jpg,Blue_Star_Chess_1.jpg,left,630.2250000007916,true,low,NA,NA,NA,NA,NA,NA,NA,false
9KUOnqGH,3vll1pieot1c2ogsesvb4yutk6poza,3lotdfnyabcgp0wov4xg7knous1fwi,9KUOnqGH,2020-0188,2020-05-08,09:38:11,09:52:48,NA,incomplete,231,color,1,right,Red_Circle_Grid_3.jpg,Blue_Triangle_Grid_2.jpg,Red_Plus_Stripes_1.jpg,right,663.315000012517,true,low,NA,NA,NA,NA,NA,NA,NA,false
9KUOnqGH,3vll1pieot1c2ogsesvb4yutk6poza,3lotdfnyabcgp0wov4xg7knous1fwi,9KUOnqGH,2020-0188,2020-05-08,09:38:11,09:52:48,NA,incomplete,232,color,0,left,Purple_Triangle_Dots_3.jpg,Purple_Star_Stripes_1.jpg,Green_Plus_Dots_4.jpg,left,593.2000000029802,true,low,NA,NA,NA,NA,NA,NA,NA,false
9KUOnqGH,3vll1pieot1c2ogsesvb4yutk6poza,3lotdfnyabcgp0wov4xg7knous1fwi,9KUOnqGH,2020-0188,2020-05-08,09:38:11,09:52:48,NA,incomplete,233,color,1,right,Red_Circle_Stripes_1.jpg,Green_Triangle_Stripes_2.jpg,Red_Star_Chess_4.jpg,right,614.6399999852292,true,low,NA,NA,NA,NA,NA,NA,NA,false
9KUOnqGH,3vll1pieot1c2ogsesvb4yutk6poza,3lotdfnyabcgp0wov4xg7knous1fwi,9KUOnqGH,2020-0188,2020-05-08,09:38:11,09:52:48,NA,incomplete,234,color,0,right,Red_Triangle_Chess_2.jpg,Purple_Circle_Chess_4.jpg,Red_Plus_Stripes_3.jpg,right,543.760000000475,true,low,NA,NA,NA,NA,NA,NA,NA,false
9KUOnqGH,3vll1pieot1c2ogsesvb4yutk6poza,3lotdfnyabcgp0wov4xg7knous1fwi,9KUOnqGH,2020-0188,2020-05-08,09:38:11,09:52:48,NA,incomplete,235,color,1,left,Red_Circle_Chess_4.jpg,Red_Star_Stripes_1.jpg,Green_Triangle_Chess_2.jpg,left,661.6649999923538,true,low,NA,NA,NA,NA,NA,NA,NA,false
9KUOnqGH,3vll1pieot1c2ogsesvb4yutk6poza,3lotdfnyabcgp0wov4xg7knous1fwi,9KUOnqGH,2020-0188,2020-05-08,09:38:11,09:52:48,NA,incomplete,236,color,0,right,Green_Triangle_Dots_1.jpg,Purple_Plus_Dots_2.jpg,Green_Star_Chess_4.jpg,right,537.9499999980908,true,low,NA,NA,NA,NA,NA,NA,NA,false
9KUOnqGH,3vll1pieot1c2ogsesvb4yutk6poza,3lotdfnyabcgp0wov4xg7knous1fwi,9KUOnqGH,2020-0188,2020-05-08,09:38:11,09:52:48,NA,incomplete,237,color,1,right,Blue_Circle_Grid_4.jpg,Red_Plus_Grid_3.jpg,Blue_Star_Chess_2.jpg,right,543.4349999995902,true,low,NA,NA,NA,NA,NA,NA,NA,false
9KUOnqGH,3vll1pieot1c2ogsesvb4yutk6poza,3lotdfnyabcgp0wov4xg7knous1fwi,9KUOnqGH,2020-0188,2020-05-08,09:38:11,09:52:48,NA,incomplete,238,color,1,right,Blue_Plus_Grid_2.jpg,Red_Circle_Grid_1.jpg,Blue_Triangle_Chess_3.jpg,right,518.0399999953806,true,low,NA,NA,NA,NA,NA,NA,NA,false
9KUOnqGH,3vll1pieot1c2ogsesvb4yutk6poza,3lotdfnyabcgp0wov4xg7knous1fwi,9KUOnqGH,2020-0188,2020-05-08,09:38:11,09:52:48,NA,incomplete,239,color,1,right,Red_Star_Grid_1.jpg,Purple_Plus_Grid_4.jpg,Red_Circle_Stripes_3.jpg,right,594.9550000077579,true,low,NA,NA,NA,NA,NA,NA,NA,false
9KUOnqGH,3vll1pieot1c2ogsesvb4yutk6poza,3lotdfnyabcgp0wov4xg7knous1fwi,9KUOnqGH,2020-0188,2020-05-08,09:38:11,09:52:48,849868.3650000021,877407.5599999924,NA,NA,NA,NA,NA,NA,NA,NA,NA,NA,NA,31,Asian,Male,CHINESE,no,no,no,undefined
