workerId,hitId,assignmentId,subject,studyid,exp_date,exp_start,exp_end,time_start,time_end,trial,type,reward_validity,answer,image_top,image_left,image_right,response,response_time,response_acc,volatility,practice
f9Wdl6en,3ka7ijsnx9iy5qpdnesn7gsg38gpb3,3lrkmwokb9u0i1phiw2gm5nh2mzz2z,f9Wdl6en,2020-0188,2020-05-07,19:23:39,19:45:49,NA,incomplete,0,color,1,left,Purple_Triangle_Dots_4.jpg,Purple_Plus_Stripes_2.jpg,Blue_Circle_Chess_4.jpg,left,1078.0200000153854,true,NA,true
f9Wdl6en,3ka7ijsnx9iy5qpdnesn7gsg38gpb3,3lrkmwokb9u0i1phiw2gm5nh2mzz2z,f9Wdl6en,2020-0188,2020-05-07,19:23:39,19:45:49,NA,incomplete,1,color,1,right,Purple_Star_Chess_4.jpg,Green_Plus_Stripes_4.jpg,Purple_Triangle_Dots_3.jpg,right,508.3899999735877,true,NA,true
f9Wdl6en,3ka7ijsnx9iy5qpdnesn7gsg38gpb3,3lrkmwokb9u0i1phiw2gm5nh2mzz2z,f9Wdl6en,2020-0188,2020-05-07,19:23:39,19:45:49,NA,incomplete,2,color,1,left,Purple_Triangle_Grid_2.jpg,Purple_Circle_Chess_4.jpg,Green_Plus_Stripes_2.jpg,left,599.7300000162795,true,NA,true
f9Wdl6en,3ka7ijsnx9iy5qpdnesn7gsg38gpb3,3lrkmwokb9u0i1phiw2gm5nh2mzz2z,f9Wdl6en,2020-0188,2020-05-07,19:23:39,19:45:49,NA,incomplete,3,color,1,left,Green_Circle_Grid_2.jpg,Green_Star_Stripes_3.jpg,Blue_Plus_Chess_2.jpg,left,583.2300000474788,true,NA,true
f9Wdl6en,3ka7ijsnx9iy5qpdnesn7gsg38gpb3,3lrkmwokb9u0i1phiw2gm5nh2mzz2z,f9Wdl6en,2020-0188,2020-05-07,19:23:39,19:45:49,NA,incomplete,4,color,1,left,Purple_Circle_Dots_2.jpg,Purple_Plus_Chess_3.jpg,Green_Triangle_Stripes_2.jpg,left,602.6900000288151,true,NA,true
f9Wdl6en,3ka7ijsnx9iy5qpdnesn7gsg38gpb3,3lrkmwokb9u0i1phiw2gm5nh2mzz2z,f9Wdl6en,2020-0188,2020-05-07,19:23:39,19:45:49,NA,incomplete,5,color,1,left,Purple_Plus_Dots_4.jpg,Purple_Circle_Grid_3.jpg,Blue_Star_Chess_4.jpg,left,930.5550000281073,true,NA,true
f9Wdl6en,3ka7ijsnx9iy5qpdnesn7gsg38gpb3,3lrkmwokb9u0i1phiw2gm5nh2mzz2z,f9Wdl6en,2020-0188,2020-05-07,19:23:39,19:45:49,NA,incomplete,6,color,1,right,Red_Circle_Chess_2.jpg,Purple_Star_Dots_2.jpg,Red_Triangle_Stripes_1.jpg,right,575.1649999874644,true,NA,true
f9Wdl6en,3ka7ijsnx9iy5qpdnesn7gsg38gpb3,3lrkmwokb9u0i1phiw2gm5nh2mzz2z,f9Wdl6en,2020-0188,2020-05-07,19:23:39,19:45:49,NA,incomplete,7,color,0,right,Green_Star_Stripes_2.jpg,Purple_Plus_Grid_2.jpg,Green_Triangle_Dots_3.jpg,right,707.044999988284,true,NA,true
f9Wdl6en,3ka7ijsnx9iy5qpdnesn7gsg38gpb3,3lrkmwokb9u0i1phiw2gm5nh2mzz2z,f9Wdl6en,2020-0188,2020-05-07,19:23:39,19:45:49,NA,incomplete,8,color,1,right,Purple_Triangle_Stripes_1.jpg,Red_Circle_Grid_1.jpg,Purple_Star_Dots_2.jpg,right,730.6049999897368,true,NA,true
f9Wdl6en,3ka7ijsnx9iy5qpdnesn7gsg38gpb3,3lrkmwokb9u0i1phiw2gm5nh2mzz2z,f9Wdl6en,2020-0188,2020-05-07,19:23:39,19:45:49,NA,incomplete,9,color,1,right,Red_Plus_Stripes_2.jpg,Purple_Circle_Chess_2.jpg,Red_Triangle_Dots_1.jpg,right,1050.9350000065751,true,NA,true
f9Wdl6en,3ka7ijsnx9iy5qpdnesn7gsg38gpb3,3lrkmwokb9u0i1phiw2gm5nh2mzz2z,f9Wdl6en,2020-0188,2020-05-07,19:23:39,19:45:49,NA,incomplete,10,color,1,left,Blue_Triangle_Chess_3.jpg,Blue_Circle_Stripes_4.jpg,Green_Plus_Dots_3.jpg,left,502.7550000231713,true,NA,true
f9Wdl6en,3ka7ijsnx9iy5qpdnesn7gsg38gpb3,3lrkmwokb9u0i1phiw2gm5nh2mzz2z,f9Wdl6en,2020-0188,2020-05-07,19:23:39,19:45:49,NA,incomplete,11,color,1,right,Red_Triangle_Grid_1.jpg,Purple_Star_Stripes_1.jpg,Red_Circle_Chess_3.jpg,right,425.5249999696389,true,NA,true
f9Wdl6en,3ka7ijsnx9iy5qpdnesn7gsg38gpb3,3lrkmwokb9u0i1phiw2gm5nh2mzz2z,f9Wdl6en,2020-0188,2020-05-07,19:23:39,19:45:49,NA,incomplete,12,color,1,right,Purple_Triangle_Grid_4.jpg,Blue_Plus_Dots_4.jpg,Purple_Circle_Chess_3.jpg,right,601.4950000098906,true,NA,true
f9Wdl6en,3ka7ijsnx9iy5qpdnesn7gsg38gpb3,3lrkmwokb9u0i1phiw2gm5nh2mzz2z,f9Wdl6en,2020-0188,2020-05-07,19:23:39,19:45:49,NA,incomplete,13,color,0,left,Red_Star_Dots_2.jpg,Red_Circle_Chess_3.jpg,Purple_Plus_Stripes_2.jpg,left,561.8899999535643,true,NA,true
f9Wdl6en,3ka7ijsnx9iy5qpdnesn7gsg38gpb3,3lrkmwokb9u0i1phiw2gm5nh2mzz2z,f9Wdl6en,2020-0188,2020-05-07,19:23:39,19:45:49,NA,incomplete,14,color,1,right,Blue_Circle_Dots_2.jpg,Purple_Star_Stripes_2.jpg,Blue_Triangle_Chess_1.jpg,right,656.3800000003539,true,NA,true
f9Wdl6en,3ka7ijsnx9iy5qpdnesn7gsg38gpb3,3lrkmwokb9u0i1phiw2gm5nh2mzz2z,f9Wdl6en,2020-0188,2020-05-07,19:23:39,19:45:49,NA,incomplete,15,color,1,right,Red_Circle_Grid_4.jpg,Purple_Triangle_Chess_4.jpg,Red_Plus_Stripes_1.jpg,right,534.3550000106916,true,NA,true
f9Wdl6en,3ka7ijsnx9iy5qpdnesn7gsg38gpb3,3lrkmwokb9u0i1phiw2gm5nh2mzz2z,f9Wdl6en,2020-0188,2020-05-07,19:23:39,19:45:49,NA,incomplete,16,color,1,right,Purple_Plus_Stripes_2.jpg,Red_Star_Grid_2.jpg,Purple_Circle_Dots_4.jpg,right,844.1450000391342,true,NA,true
f9Wdl6en,3ka7ijsnx9iy5qpdnesn7gsg38gpb3,3lrkmwokb9u0i1phiw2gm5nh2mzz2z,f9Wdl6en,2020-0188,2020-05-07,19:23:39,19:45:49,NA,incomplete,17,color,0,right,Purple_Star_Stripes_1.jpg,Red_Triangle_Grid_1.jpg,Purple_Circle_Chess_3.jpg,right,763.6150000034831,true,NA,true
f9Wdl6en,3ka7ijsnx9iy5qpdnesn7gsg38gpb3,3lrkmwokb9u0i1phiw2gm5nh2mzz2z,f9Wdl6en,2020-0188,2020-05-07,19:23:39,19:45:49,NA,incomplete,18,color,1,left,Purple_Circle_Grid_4.jpg,Purple_Plus_Stripes_1.jpg,Red_Star_Dots_4.jpg,left,626.0800000163727,true,NA,true
f9Wdl6en,3ka7ijsnx9iy5qpdnesn7gsg38gpb3,3lrkmwokb9u0i1phiw2gm5nh2mzz2z,f9Wdl6en,2020-0188,2020-05-07,19:23:39,19:45:49,NA,incomplete,19,color,1,left,Purple_Plus_Chess_4.jpg,Purple_Circle_Dots_1.jpg,Blue_Triangle_Stripes_4.jpg,left,767.0749999815598,true,NA,true
f9Wdl6en,3ka7ijsnx9iy5qpdnesn7gsg38gpb3,3lrkmwokb9u0i1phiw2gm5nh2mzz2z,f9Wdl6en,2020-0188,2020-05-07,19:23:39,19:45:49,NA,incomplete,20,number,0,right,Purple_Star_Stripes_2.jpg,Purple_Circle_Dots_3.jpg,Blue_Plus_Chess_2.jpg,right,706.9250000058673,true,NA,true
f9Wdl6en,3ka7ijsnx9iy5qpdnesn7gsg38gpb3,3lrkmwokb9u0i1phiw2gm5nh2mzz2z,f9Wdl6en,2020-0188,2020-05-07,19:23:39,19:45:49,NA,incomplete,21,number,1,right,Purple_Triangle_Grid_3.jpg,Purple_Plus_Stripes_4.jpg,Blue_Star_Chess_3.jpg,right,1050.199999997858,true,NA,true
f9Wdl6en,3ka7ijsnx9iy5qpdnesn7gsg38gpb3,3lrkmwokb9u0i1phiw2gm5nh2mzz2z,f9Wdl6en,2020-0188,2020-05-07,19:23:39,19:45:49,NA,incomplete,22,number,1,left,Purple_Circle_Grid_4.jpg,Blue_Plus_Chess_4.jpg,Purple_Triangle_Stripes_3.jpg,left,847.3200000007637,true,NA,true
f9Wdl6en,3ka7ijsnx9iy5qpdnesn7gsg38gpb3,3lrkmwokb9u0i1phiw2gm5nh2mzz2z,f9Wdl6en,2020-0188,2020-05-07,19:23:39,19:45:49,NA,incomplete,23,number,1,right,Purple_Star_Grid_2.jpg,Purple_Plus_Dots_3.jpg,Red_Circle_Chess_2.jpg,right,666.9250000268221,true,NA,true
f9Wdl6en,3ka7ijsnx9iy5qpdnesn7gsg38gpb3,3lrkmwokb9u0i1phiw2gm5nh2mzz2z,f9Wdl6en,2020-0188,2020-05-07,19:23:39,19:45:49,NA,incomplete,24,number,0,right,Purple_Plus_Chess_3.jpg,Purple_Circle_Stripes_1.jpg,Green_Star_Dots_3.jpg,right,576.5799999935552,true,NA,true
f9Wdl6en,3ka7ijsnx9iy5qpdnesn7gsg38gpb3,3lrkmwokb9u0i1phiw2gm5nh2mzz2z,f9Wdl6en,2020-0188,2020-05-07,19:23:39,19:45:49,NA,incomplete,25,number,1,left,Green_Triangle_Grid_1.jpg,Purple_Plus_Chess_1.jpg,Green_Star_Dots_3.jpg,left,682.0600000210106,true,NA,true
f9Wdl6en,3ka7ijsnx9iy5qpdnesn7gsg38gpb3,3lrkmwokb9u0i1phiw2gm5nh2mzz2z,f9Wdl6en,2020-0188,2020-05-07,19:23:39,19:45:49,NA,incomplete,26,number,1,right,Red_Star_Chess_3.jpg,Red_Plus_Stripes_1.jpg,Green_Triangle_Dots_3.jpg,right,631.5399999730289,true,NA,true
f9Wdl6en,3ka7ijsnx9iy5qpdnesn7gsg38gpb3,3lrkmwokb9u0i1phiw2gm5nh2mzz2z,f9Wdl6en,2020-0188,2020-05-07,19:23:39,19:45:49,NA,incomplete,27,number,0,left,Red_Triangle_Stripes_2.jpg,Purple_Circle_Grid_2.jpg,Red_Plus_Chess_3.jpg,left,545.2700000023469,true,NA,true
f9Wdl6en,3ka7ijsnx9iy5qpdnesn7gsg38gpb3,3lrkmwokb9u0i1phiw2gm5nh2mzz2z,f9Wdl6en,2020-0188,2020-05-07,19:23:39,19:45:49,NA,incomplete,28,number,1,right,Red_Star_Grid_2.jpg,Red_Circle_Stripes_3.jpg,Purple_Triangle_Dots_2.jpg,right,889.324999996461,true,NA,true
f9Wdl6en,3ka7ijsnx9iy5qpdnesn7gsg38gpb3,3lrkmwokb9u0i1phiw2gm5nh2mzz2z,f9Wdl6en,2020-0188,2020-05-07,19:23:39,19:45:49,NA,incomplete,29,number,1,left,Red_Plus_Chess_4.jpg,Green_Circle_Grid_4.jpg,Red_Star_Dots_3.jpg,left,861.2899999716319,true,NA,true
f9Wdl6en,3ka7ijsnx9iy5qpdnesn7gsg38gpb3,3lrkmwokb9u0i1phiw2gm5nh2mzz2z,f9Wdl6en,2020-0188,2020-05-07,19:23:39,19:45:49,NA,incomplete,30,number,1,left,Green_Plus_Dots_2.jpg,Blue_Circle_Stripes_2.jpg,Green_Star_Chess_3.jpg,left,604.5600000070408,true,NA,true
f9Wdl6en,3ka7ijsnx9iy5qpdnesn7gsg38gpb3,3lrkmwokb9u0i1phiw2gm5nh2mzz2z,f9Wdl6en,2020-0188,2020-05-07,19:23:39,19:45:49,NA,incomplete,31,number,1,right,Blue_Circle_Stripes_3.jpg,Blue_Star_Dots_2.jpg,Red_Triangle_Chess_3.jpg,right,574.3399999919347,true,NA,true
f9Wdl6en,3ka7ijsnx9iy5qpdnesn7gsg38gpb3,3lrkmwokb9u0i1phiw2gm5nh2mzz2z,f9Wdl6en,2020-0188,2020-05-07,19:23:39,19:45:49,NA,incomplete,32,number,1,right,Blue_Plus_Chess_4.jpg,Blue_Circle_Dots_3.jpg,Green_Star_Grid_4.jpg,right,699.6849999995902,true,NA,true
f9Wdl6en,3ka7ijsnx9iy5qpdnesn7gsg38gpb3,3lrkmwokb9u0i1phiw2gm5nh2mzz2z,f9Wdl6en,2020-0188,2020-05-07,19:23:39,19:45:49,NA,incomplete,33,number,1,left,Blue_Star_Chess_2.jpg,Purple_Circle_Stripes_2.jpg,Blue_Plus_Grid_3.jpg,left,575.295000046026,true,NA,true
f9Wdl6en,3ka7ijsnx9iy5qpdnesn7gsg38gpb3,3lrkmwokb9u0i1phiw2gm5nh2mzz2z,f9Wdl6en,2020-0188,2020-05-07,19:23:39,19:45:49,NA,incomplete,34,number,1,left,Purple_Plus_Stripes_4.jpg,Green_Star_Grid_4.jpg,Purple_Circle_Dots_3.jpg,left,713.8399999821559,true,NA,true
f9Wdl6en,3ka7ijsnx9iy5qpdnesn7gsg38gpb3,3lrkmwokb9u0i1phiw2gm5nh2mzz2z,f9Wdl6en,2020-0188,2020-05-07,19:23:39,19:45:49,NA,incomplete,35,number,0,left,Green_Circle_Dots_2.jpg,Red_Star_Grid_2.jpg,Green_Plus_Stripes_1.jpg,left,910.8850000193343,true,NA,true
f9Wdl6en,3ka7ijsnx9iy5qpdnesn7gsg38gpb3,3lrkmwokb9u0i1phiw2gm5nh2mzz2z,f9Wdl6en,2020-0188,2020-05-07,19:23:39,19:45:49,NA,incomplete,36,number,1,left,Purple_Circle_Stripes_3.jpg,Blue_Plus_Dots_3.jpg,Purple_Triangle_Grid_2.jpg,left,758.4449999849312,true,NA,true
f9Wdl6en,3ka7ijsnx9iy5qpdnesn7gsg38gpb3,3lrkmwokb9u0i1phiw2gm5nh2mzz2z,f9Wdl6en,2020-0188,2020-05-07,19:23:39,19:45:49,NA,incomplete,37,number,1,left,Blue_Star_Dots_1.jpg,Red_Circle_Grid_1.jpg,Blue_Triangle_Chess_3.jpg,left,723.2450000010431,true,NA,true
f9Wdl6en,3ka7ijsnx9iy5qpdnesn7gsg38gpb3,3lrkmwokb9u0i1phiw2gm5nh2mzz2z,f9Wdl6en,2020-0188,2020-05-07,19:23:39,19:45:49,NA,incomplete,38,number,0,left,Green_Plus_Dots_1.jpg,Red_Circle_Chess_1.jpg,Green_Triangle_Stripes_3.jpg,left,661.6899999789894,true,NA,true
f9Wdl6en,3ka7ijsnx9iy5qpdnesn7gsg38gpb3,3lrkmwokb9u0i1phiw2gm5nh2mzz2z,f9Wdl6en,2020-0188,2020-05-07,19:23:39,19:45:49,NA,incomplete,39,number,1,right,Red_Star_Grid_4.jpg,Red_Triangle_Dots_1.jpg,Green_Circle_Stripes_4.jpg,right,579.6100000152364,true,NA,true
f9Wdl6en,3ka7ijsnx9iy5qpdnesn7gsg38gpb3,3lrkmwokb9u0i1phiw2gm5nh2mzz2z,f9Wdl6en,2020-0188,2020-05-07,19:23:39,19:45:49,NA,incomplete,0,color,1,right,Red_Star_Chess_3.jpg,Green_Circle_Dots_3.jpg,Red_Triangle_Stripes_2.jpg,left,1007.9949999926612,false,low,false
f9Wdl6en,3ka7ijsnx9iy5qpdnesn7gsg38gpb3,3lrkmwokb9u0i1phiw2gm5nh2mzz2z,f9Wdl6en,2020-0188,2020-05-07,19:23:39,19:45:49,NA,incomplete,1,color,1,left,Green_Plus_Chess_1.jpg,Green_Triangle_Dots_3.jpg,Purple_Circle_Grid_1.jpg,right,1115.2749999891967,false,low,false
f9Wdl6en,3ka7ijsnx9iy5qpdnesn7gsg38gpb3,3lrkmwokb9u0i1phiw2gm5nh2mzz2z,f9Wdl6en,2020-0188,2020-05-07,19:23:39,19:45:49,NA,incomplete,2,color,0,right,Purple_Triangle_Chess_1.jpg,Red_Circle_Stripes_1.jpg,Purple_Star_Dots_3.jpg,right,909.2499999678694,true,low,false
f9Wdl6en,3ka7ijsnx9iy5qpdnesn7gsg38gpb3,3lrkmwokb9u0i1phiw2gm5nh2mzz2z,f9Wdl6en,2020-0188,2020-05-07,19:23:39,19:45:49,NA,incomplete,3,color,0,left,Green_Circle_Stripes_3.jpg,Green_Star_Grid_2.jpg,Red_Triangle_Dots_3.jpg,left,511.56000001356006,true,low,false
f9Wdl6en,3ka7ijsnx9iy5qpdnesn7gsg38gpb3,3lrkmwokb9u0i1phiw2gm5nh2mzz2z,f9Wdl6en,2020-0188,2020-05-07,19:23:39,19:45:49,NA,incomplete,4,color,1,right,Red_Triangle_Chess_4.jpg,Green_Plus_Dots_4.jpg,Red_Circle_Grid_3.jpg,left,979.4950000359677,false,low,false
f9Wdl6en,3ka7ijsnx9iy5qpdnesn7gsg38gpb3,3lrkmwokb9u0i1phiw2gm5nh2mzz2z,f9Wdl6en,2020-0188,2020-05-07,19:23:39,19:45:49,NA,incomplete,5,color,0,left,Red_Star_Grid_4.jpg,Red_Plus_Chess_1.jpg,Green_Triangle_Stripes_4.jpg,right,846.8700000084937,false,low,false
f9Wdl6en,3ka7ijsnx9iy5qpdnesn7gsg38gpb3,3lrkmwokb9u0i1phiw2gm5nh2mzz2z,f9Wdl6en,2020-0188,2020-05-07,19:23:39,19:45:49,NA,incomplete,6,color,1,left,Green_Star_Grid_2.jpg,Green_Plus_Dots_4.jpg,Red_Triangle_Stripes_2.jpg,right,886.884999985341,false,low,false
f9Wdl6en,3ka7ijsnx9iy5qpdnesn7gsg38gpb3,3lrkmwokb9u0i1phiw2gm5nh2mzz2z,f9Wdl6en,2020-0188,2020-05-07,19:23:39,19:45:49,NA,incomplete,7,color,1,left,Green_Circle_Stripes_1.jpg,Green_Plus_Chess_3.jpg,Purple_Star_Dots_1.jpg,right,817.0850000460632,false,low,false
f9Wdl6en,3ka7ijsnx9iy5qpdnesn7gsg38gpb3,3lrkmwokb9u0i1phiw2gm5nh2mzz2z,f9Wdl6en,2020-0188,2020-05-07,19:23:39,19:45:49,NA,incomplete,8,color,0,left,Red_Plus_Stripes_1.jpg,Red_Triangle_Dots_4.jpg,Green_Circle_Chess_1.jpg,left,613.0699999630451,true,low,false
f9Wdl6en,3ka7ijsnx9iy5qpdnesn7gsg38gpb3,3lrkmwokb9u0i1phiw2gm5nh2mzz2z,f9Wdl6en,2020-0188,2020-05-07,19:23:39,19:45:49,NA,incomplete,9,color,1,right,Red_Star_Dots_3.jpg,Green_Triangle_Grid_3.jpg,Red_Circle_Stripes_4.jpg,left,859.0100000146776,false,low,false
f9Wdl6en,3ka7ijsnx9iy5qpdnesn7gsg38gpb3,3lrkmwokb9u0i1phiw2gm5nh2mzz2z,f9Wdl6en,2020-0188,2020-05-07,19:23:39,19:45:49,NA,incomplete,10,color,1,right,Green_Triangle_Stripes_3.jpg,Purple_Plus_Dots_3.jpg,Green_Circle_Grid_4.jpg,right,819.324999989476,true,low,false
f9Wdl6en,3ka7ijsnx9iy5qpdnesn7gsg38gpb3,3lrkmwokb9u0i1phiw2gm5nh2mzz2z,f9Wdl6en,2020-0188,2020-05-07,19:23:39,19:45:49,NA,incomplete,11,color,1,left,Green_Circle_Stripes_3.jpg,Green_Star_Grid_1.jpg,Blue_Plus_Chess_3.jpg,left,494.97499997960404,true,low,false
f9Wdl6en,3ka7ijsnx9iy5qpdnesn7gsg38gpb3,3lrkmwokb9u0i1phiw2gm5nh2mzz2z,f9Wdl6en,2020-0188,2020-05-07,19:23:39,19:45:49,NA,incomplete,12,color,0,right,Blue_Star_Grid_4.jpg,Red_Plus_Stripes_4.jpg,Blue_Circle_Dots_2.jpg,right,495.3999999561347,true,low,false
f9Wdl6en,3ka7ijsnx9iy5qpdnesn7gsg38gpb3,3lrkmwokb9u0i1phiw2gm5nh2mzz2z,f9Wdl6en,2020-0188,2020-05-07,19:23:39,19:45:49,NA,incomplete,13,color,0,right,Green_Plus_Chess_1.jpg,Blue_Star_Stripes_1.jpg,Green_Triangle_Dots_4.jpg,right,939.4750000210479,true,low,false
f9Wdl6en,3ka7ijsnx9iy5qpdnesn7gsg38gpb3,3lrkmwokb9u0i1phiw2gm5nh2mzz2z,f9Wdl6en,2020-0188,2020-05-07,19:23:39,19:45:49,NA,incomplete,14,color,1,left,Blue_Circle_Grid_4.jpg,Blue_Star_Dots_3.jpg,Red_Plus_Stripes_4.jpg,left,592.5849999766797,true,low,false
f9Wdl6en,3ka7ijsnx9iy5qpdnesn7gsg38gpb3,3lrkmwokb9u0i1phiw2gm5nh2mzz2z,f9Wdl6en,2020-0188,2020-05-07,19:23:39,19:45:49,NA,incomplete,15,color,1,right,Green_Circle_Dots_3.jpg,Blue_Plus_Chess_3.jpg,Green_Triangle_Stripes_1.jpg,left,754.6499999589287,false,low,false
f9Wdl6en,3ka7ijsnx9iy5qpdnesn7gsg38gpb3,3lrkmwokb9u0i1phiw2gm5nh2mzz2z,f9Wdl6en,2020-0188,2020-05-07,19:23:39,19:45:49,NA,incomplete,16,color,1,right,Green_Triangle_Grid_3.jpg,Blue_Plus_Dots_3.jpg,Green_Star_Chess_1.jpg,right,779.5049999840558,true,low,false
f9Wdl6en,3ka7ijsnx9iy5qpdnesn7gsg38gpb3,3lrkmwokb9u0i1phiw2gm5nh2mzz2z,f9Wdl6en,2020-0188,2020-05-07,19:23:39,19:45:49,NA,incomplete,17,color,1,right,Purple_Plus_Chess_3.jpg,Green_Star_Stripes_3.jpg,Purple_Circle_Grid_2.jpg,right,977.7600000379607,true,low,false
f9Wdl6en,3ka7ijsnx9iy5qpdnesn7gsg38gpb3,3lrkmwokb9u0i1phiw2gm5nh2mzz2z,f9Wdl6en,2020-0188,2020-05-07,19:23:39,19:45:49,NA,incomplete,18,color,1,right,Blue_Circle_Stripes_3.jpg,Purple_Plus_Chess_3.jpg,Blue_Triangle_Dots_2.jpg,right,594.8099999804981,true,low,false
f9Wdl6en,3ka7ijsnx9iy5qpdnesn7gsg38gpb3,3lrkmwokb9u0i1phiw2gm5nh2mzz2z,f9Wdl6en,2020-0188,2020-05-07,19:23:39,19:45:49,NA,incomplete,19,color,1,left,Red_Triangle_Stripes_3.jpg,Red_Circle_Grid_2.jpg,Blue_Star_Chess_3.jpg,left,609.2550000175834,true,low,false
f9Wdl6en,3ka7ijsnx9iy5qpdnesn7gsg38gpb3,3lrkmwokb9u0i1phiw2gm5nh2mzz2z,f9Wdl6en,2020-0188,2020-05-07,19:23:39,19:45:49,NA,incomplete,20,color,1,left,Red_Circle_Dots_4.jpg,Red_Triangle_Chess_3.jpg,Green_Plus_Grid_4.jpg,left,646.5449999668635,true,low,false
f9Wdl6en,3ka7ijsnx9iy5qpdnesn7gsg38gpb3,3lrkmwokb9u0i1phiw2gm5nh2mzz2z,f9Wdl6en,2020-0188,2020-05-07,19:23:39,19:45:49,NA,incomplete,21,color,1,right,Purple_Triangle_Chess_1.jpg,Red_Plus_Dots_1.jpg,Purple_Star_Grid_2.jpg,right,692.2550000017509,true,low,false
f9Wdl6en,3ka7ijsnx9iy5qpdnesn7gsg38gpb3,3lrkmwokb9u0i1phiw2gm5nh2mzz2z,f9Wdl6en,2020-0188,2020-05-07,19:23:39,19:45:49,NA,incomplete,22,color,0,left,Purple_Star_Stripes_3.jpg,Purple_Triangle_Grid_1.jpg,Blue_Plus_Chess_3.jpg,left,997.1749999676831,true,low,false
f9Wdl6en,3ka7ijsnx9iy5qpdnesn7gsg38gpb3,3lrkmwokb9u0i1phiw2gm5nh2mzz2z,f9Wdl6en,2020-0188,2020-05-07,19:23:39,19:45:49,NA,incomplete,23,color,1,left,Blue_Plus_Stripes_3.jpg,Blue_Star_Dots_4.jpg,Red_Circle_Grid_3.jpg,right,630.1049999892712,false,low,false
f9Wdl6en,3ka7ijsnx9iy5qpdnesn7gsg38gpb3,3lrkmwokb9u0i1phiw2gm5nh2mzz2z,f9Wdl6en,2020-0188,2020-05-07,19:23:39,19:45:49,NA,incomplete,24,color,1,left,Purple_Star_Dots_3.jpg,Purple_Circle_Grid_2.jpg,Blue_Triangle_Stripes_3.jpg,left,598.0550000094809,true,low,false
f9Wdl6en,3ka7ijsnx9iy5qpdnesn7gsg38gpb3,3lrkmwokb9u0i1phiw2gm5nh2mzz2z,f9Wdl6en,2020-0188,2020-05-07,19:23:39,19:45:49,NA,incomplete,25,color,1,left,Green_Star_Stripes_1.jpg,Green_Triangle_Dots_2.jpg,Purple_Circle_Grid_1.jpg,left,473.7550000427291,true,low,false
f9Wdl6en,3ka7ijsnx9iy5qpdnesn7gsg38gpb3,3lrkmwokb9u0i1phiw2gm5nh2mzz2z,f9Wdl6en,2020-0188,2020-05-07,19:23:39,19:45:49,NA,incomplete,26,color,1,left,Red_Circle_Dots_3.jpg,Red_Triangle_Grid_2.jpg,Blue_Plus_Stripes_3.jpg,left,651.1500000488013,true,low,false
f9Wdl6en,3ka7ijsnx9iy5qpdnesn7gsg38gpb3,3lrkmwokb9u0i1phiw2gm5nh2mzz2z,f9Wdl6en,2020-0188,2020-05-07,19:23:39,19:45:49,NA,incomplete,27,color,1,right,Blue_Circle_Stripes_2.jpg,Purple_Star_Grid_2.jpg,Blue_Plus_Dots_3.jpg,right,546.1900000227615,true,low,false
f9Wdl6en,3ka7ijsnx9iy5qpdnesn7gsg38gpb3,3lrkmwokb9u0i1phiw2gm5nh2mzz2z,f9Wdl6en,2020-0188,2020-05-07,19:23:39,19:45:49,NA,incomplete,28,color,1,left,Red_Star_Grid_2.jpg,Red_Triangle_Dots_3.jpg,Purple_Plus_Chess_2.jpg,left,477.19500004313886,true,low,false
f9Wdl6en,3ka7ijsnx9iy5qpdnesn7gsg38gpb3,3lrkmwokb9u0i1phiw2gm5nh2mzz2z,f9Wdl6en,2020-0188,2020-05-07,19:23:39,19:45:49,NA,incomplete,29,color,1,right,Green_Star_Chess_4.jpg,Red_Circle_Stripes_4.jpg,Green_Triangle_Grid_2.jpg,right,571.3199999881908,true,low,false
f9Wdl6en,3ka7ijsnx9iy5qpdnesn7gsg38gpb3,3lrkmwokb9u0i1phiw2gm5nh2mzz2z,f9Wdl6en,2020-0188,2020-05-07,19:23:39,19:45:49,NA,incomplete,30,number,1,right,Green_Plus_Grid_3.jpg,Green_Star_Stripes_2.jpg,Blue_Triangle_Dots_3.jpg,left,596.9150000018999,false,low,false
f9Wdl6en,3ka7ijsnx9iy5qpdnesn7gsg38gpb3,3lrkmwokb9u0i1phiw2gm5nh2mzz2z,f9Wdl6en,2020-0188,2020-05-07,19:23:39,19:45:49,NA,incomplete,31,number,1,left,Red_Star_Grid_2.jpg,Purple_Triangle_Chess_2.jpg,Red_Plus_Dots_4.jpg,right,604.0650000213645,false,low,false
f9Wdl6en,3ka7ijsnx9iy5qpdnesn7gsg38gpb3,3lrkmwokb9u0i1phiw2gm5nh2mzz2z,f9Wdl6en,2020-0188,2020-05-07,19:23:39,19:45:49,NA,incomplete,32,number,1,left,Red_Circle_Chess_2.jpg,Purple_Plus_Grid_2.jpg,Red_Star_Stripes_1.jpg,left,685.7200000085868,true,low,false
f9Wdl6en,3ka7ijsnx9iy5qpdnesn7gsg38gpb3,3lrkmwokb9u0i1phiw2gm5nh2mzz2z,f9Wdl6en,2020-0188,2020-05-07,19:23:39,19:45:49,NA,incomplete,33,number,1,left,Purple_Circle_Stripes_1.jpg,Green_Star_Chess_1.jpg,Purple_Triangle_Dots_4.jpg,left,724.3100000196137,true,low,false
f9Wdl6en,3ka7ijsnx9iy5qpdnesn7gsg38gpb3,3lrkmwokb9u0i1phiw2gm5nh2mzz2z,f9Wdl6en,2020-0188,2020-05-07,19:23:39,19:45:49,NA,incomplete,34,number,1,left,Blue_Star_Dots_1.jpg,Green_Plus_Grid_1.jpg,Blue_Circle_Chess_4.jpg,left,695.5549999838695,true,low,false
f9Wdl6en,3ka7ijsnx9iy5qpdnesn7gsg38gpb3,3lrkmwokb9u0i1phiw2gm5nh2mzz2z,f9Wdl6en,2020-0188,2020-05-07,19:23:39,19:45:49,NA,incomplete,35,number,1,left,Red_Circle_Stripes_2.jpg,Blue_Triangle_Grid_2.jpg,Red_Star_Dots_4.jpg,left,706.3399999751709,true,low,false
f9Wdl6en,3ka7ijsnx9iy5qpdnesn7gsg38gpb3,3lrkmwokb9u0i1phiw2gm5nh2mzz2z,f9Wdl6en,2020-0188,2020-05-07,19:23:39,19:45:49,NA,incomplete,36,number,0,right,Green_Circle_Dots_2.jpg,Green_Star_Chess_4.jpg,Blue_Plus_Grid_2.jpg,right,593.2850000099279,true,low,false
f9Wdl6en,3ka7ijsnx9iy5qpdnesn7gsg38gpb3,3lrkmwokb9u0i1phiw2gm5nh2mzz2z,f9Wdl6en,2020-0188,2020-05-07,19:23:39,19:45:49,NA,incomplete,37,number,1,left,Purple_Circle_Stripes_1.jpg,Blue_Triangle_Chess_1.jpg,Purple_Star_Grid_2.jpg,left,484.19500002637506,true,low,false
f9Wdl6en,3ka7ijsnx9iy5qpdnesn7gsg38gpb3,3lrkmwokb9u0i1phiw2gm5nh2mzz2z,f9Wdl6en,2020-0188,2020-05-07,19:23:39,19:45:49,NA,incomplete,38,number,0,right,Purple_Triangle_Grid_3.jpg,Purple_Circle_Chess_4.jpg,Red_Plus_Stripes_3.jpg,right,710.3450000286102,true,low,false
f9Wdl6en,3ka7ijsnx9iy5qpdnesn7gsg38gpb3,3lrkmwokb9u0i1phiw2gm5nh2mzz2z,f9Wdl6en,2020-0188,2020-05-07,19:23:39,19:45:49,NA,incomplete,39,number,1,right,Purple_Triangle_Chess_1.jpg,Purple_Star_Stripes_2.jpg,Blue_Circle_Dots_1.jpg,right,596.4849999872968,true,low,false
f9Wdl6en,3ka7ijsnx9iy5qpdnesn7gsg38gpb3,3lrkmwokb9u0i1phiw2gm5nh2mzz2z,f9Wdl6en,2020-0188,2020-05-07,19:23:39,19:45:49,NA,incomplete,40,number,1,right,Blue_Circle_Dots_4.jpg,Blue_Triangle_Chess_1.jpg,Red_Star_Stripes_4.jpg,right,633.6149999988265,true,low,false
f9Wdl6en,3ka7ijsnx9iy5qpdnesn7gsg38gpb3,3lrkmwokb9u0i1phiw2gm5nh2mzz2z,f9Wdl6en,2020-0188,2020-05-07,19:23:39,19:45:49,NA,incomplete,41,number,0,right,Red_Circle_Grid_4.jpg,Red_Plus_Dots_1.jpg,Blue_Triangle_Stripes_4.jpg,right,532.1350000449456,true,low,false
f9Wdl6en,3ka7ijsnx9iy5qpdnesn7gsg38gpb3,3lrkmwokb9u0i1phiw2gm5nh2mzz2z,f9Wdl6en,2020-0188,2020-05-07,19:23:39,19:45:49,NA,incomplete,42,number,1,right,Purple_Circle_Chess_3.jpg,Purple_Triangle_Stripes_1.jpg,Blue_Plus_Grid_3.jpg,right,785.585000005085,true,low,false
f9Wdl6en,3ka7ijsnx9iy5qpdnesn7gsg38gpb3,3lrkmwokb9u0i1phiw2gm5nh2mzz2z,f9Wdl6en,2020-0188,2020-05-07,19:23:39,19:45:49,NA,incomplete,43,number,1,left,Green_Circle_Dots_1.jpg,Red_Triangle_Stripes_1.jpg,Green_Plus_Chess_2.jpg,left,556.71999999322,true,low,false
f9Wdl6en,3ka7ijsnx9iy5qpdnesn7gsg38gpb3,3lrkmwokb9u0i1phiw2gm5nh2mzz2z,f9Wdl6en,2020-0188,2020-05-07,19:23:39,19:45:49,NA,incomplete,44,number,0,right,Blue_Triangle_Grid_3.jpg,Blue_Star_Chess_4.jpg,Red_Plus_Dots_3.jpg,right,611.4950000192039,true,low,false
f9Wdl6en,3ka7ijsnx9iy5qpdnesn7gsg38gpb3,3lrkmwokb9u0i1phiw2gm5nh2mzz2z,f9Wdl6en,2020-0188,2020-05-07,19:23:39,19:45:49,NA,incomplete,45,number,1,right,Red_Plus_Chess_4.jpg,Red_Circle_Stripes_1.jpg,Green_Star_Grid_4.jpg,right,655.655000009574,true,low,false
f9Wdl6en,3ka7ijsnx9iy5qpdnesn7gsg38gpb3,3lrkmwokb9u0i1phiw2gm5nh2mzz2z,f9Wdl6en,2020-0188,2020-05-07,19:23:39,19:45:49,NA,incomplete,46,number,1,right,Green_Circle_Stripes_4.jpg,Green_Star_Chess_1.jpg,Blue_Plus_Dots_4.jpg,right,673.7600000342354,true,low,false
f9Wdl6en,3ka7ijsnx9iy5qpdnesn7gsg38gpb3,3lrkmwokb9u0i1phiw2gm5nh2mzz2z,f9Wdl6en,2020-0188,2020-05-07,19:23:39,19:45:49,NA,incomplete,47,number,1,left,Red_Plus_Chess_1.jpg,Blue_Triangle_Stripes_1.jpg,Red_Circle_Grid_4.jpg,left,470.5200000316836,true,low,false
f9Wdl6en,3ka7ijsnx9iy5qpdnesn7gsg38gpb3,3lrkmwokb9u0i1phiw2gm5nh2mzz2z,f9Wdl6en,2020-0188,2020-05-07,19:23:39,19:45:49,NA,incomplete,48,number,1,left,Blue_Star_Dots_2.jpg,Purple_Triangle_Stripes_2.jpg,Blue_Plus_Chess_1.jpg,left,566.324999963399,true,low,false
f9Wdl6en,3ka7ijsnx9iy5qpdnesn7gsg38gpb3,3lrkmwokb9u0i1phiw2gm5nh2mzz2z,f9Wdl6en,2020-0188,2020-05-07,19:23:39,19:45:49,NA,incomplete,49,number,1,right,Green_Star_Grid_4.jpg,Green_Triangle_Chess_1.jpg,Blue_Circle_Stripes_4.jpg,right,551.2950000120327,true,low,false
f9Wdl6en,3ka7ijsnx9iy5qpdnesn7gsg38gpb3,3lrkmwokb9u0i1phiw2gm5nh2mzz2z,f9Wdl6en,2020-0188,2020-05-07,19:23:39,19:45:49,NA,incomplete,50,number,0,right,Blue_Triangle_Dots_1.jpg,Blue_Star_Grid_3.jpg,Purple_Circle_Chess_1.jpg,right,665.320000029169,true,low,false
f9Wdl6en,3ka7ijsnx9iy5qpdnesn7gsg38gpb3,3lrkmwokb9u0i1phiw2gm5nh2mzz2z,f9Wdl6en,2020-0188,2020-05-07,19:23:39,19:45:49,NA,incomplete,51,number,1,right,Red_Circle_Stripes_4.jpg,Red_Plus_Chess_1.jpg,Green_Triangle_Dots_4.jpg,right,684.6999999834225,true,low,false
f9Wdl6en,3ka7ijsnx9iy5qpdnesn7gsg38gpb3,3lrkmwokb9u0i1phiw2gm5nh2mzz2z,f9Wdl6en,2020-0188,2020-05-07,19:23:39,19:45:49,NA,incomplete,52,number,0,left,Green_Circle_Dots_1.jpg,Red_Star_Grid_1.jpg,Green_Triangle_Stripes_4.jpg,left,729.1199999745004,true,low,false
f9Wdl6en,3ka7ijsnx9iy5qpdnesn7gsg38gpb3,3lrkmwokb9u0i1phiw2gm5nh2mzz2z,f9Wdl6en,2020-0188,2020-05-07,19:23:39,19:45:49,NA,incomplete,53,number,1,left,Blue_Triangle_Chess_4.jpg,Green_Plus_Dots_4.jpg,Blue_Star_Stripes_3.jpg,left,769.3949999520555,true,low,false
f9Wdl6en,3ka7ijsnx9iy5qpdnesn7gsg38gpb3,3lrkmwokb9u0i1phiw2gm5nh2mzz2z,f9Wdl6en,2020-0188,2020-05-07,19:23:39,19:45:49,NA,incomplete,54,number,1,right,Red_Star_Grid_2.jpg,Red_Triangle_Dots_3.jpg,Green_Plus_Chess_2.jpg,right,580.420000012964,true,low,false
f9Wdl6en,3ka7ijsnx9iy5qpdnesn7gsg38gpb3,3lrkmwokb9u0i1phiw2gm5nh2mzz2z,f9Wdl6en,2020-0188,2020-05-07,19:23:39,19:45:49,NA,incomplete,55,number,1,left,Blue_Triangle_Dots_1.jpg,Red_Plus_Stripes_1.jpg,Blue_Star_Chess_2.jpg,left,486.36500001884997,true,low,false
f9Wdl6en,3ka7ijsnx9iy5qpdnesn7gsg38gpb3,3lrkmwokb9u0i1phiw2gm5nh2mzz2z,f9Wdl6en,2020-0188,2020-05-07,19:23:39,19:45:49,NA,incomplete,56,number,1,left,Purple_Triangle_Grid_3.jpg,Red_Circle_Chess_3.jpg,Purple_Plus_Dots_1.jpg,left,541.4400000008754,true,low,false
f9Wdl6en,3ka7ijsnx9iy5qpdnesn7gsg38gpb3,3lrkmwokb9u0i1phiw2gm5nh2mzz2z,f9Wdl6en,2020-0188,2020-05-07,19:23:39,19:45:49,NA,incomplete,57,number,1,left,Red_Triangle_Grid_3.jpg,Purple_Star_Dots_3.jpg,Red_Plus_Stripes_2.jpg,left,699.895000027027,true,low,false
f9Wdl6en,3ka7ijsnx9iy5qpdnesn7gsg38gpb3,3lrkmwokb9u0i1phiw2gm5nh2mzz2z,f9Wdl6en,2020-0188,2020-05-07,19:23:39,19:45:49,NA,incomplete,58,number,1,right,Purple_Plus_Dots_4.jpg,Purple_Triangle_Grid_2.jpg,Green_Star_Chess_4.jpg,right,558.3449999685399,true,low,false
f9Wdl6en,3ka7ijsnx9iy5qpdnesn7gsg38gpb3,3lrkmwokb9u0i1phiw2gm5nh2mzz2z,f9Wdl6en,2020-0188,2020-05-07,19:23:39,19:45:49,NA,incomplete,59,number,1,left,Purple_Triangle_Grid_4.jpg,Green_Circle_Chess_4.jpg,Purple_Plus_Stripes_2.jpg,left,935.1699999533594,true,low,false
f9Wdl6en,3ka7ijsnx9iy5qpdnesn7gsg38gpb3,3lrkmwokb9u0i1phiw2gm5nh2mzz2z,f9Wdl6en,2020-0188,2020-05-07,19:23:39,19:45:49,NA,incomplete,60,color,0,right,Red_Triangle_Chess_3.jpg,Green_Star_Grid_3.jpg,Red_Plus_Stripes_2.jpg,left,658.9650000096299,false,low,false
f9Wdl6en,3ka7ijsnx9iy5qpdnesn7gsg38gpb3,3lrkmwokb9u0i1phiw2gm5nh2mzz2z,f9Wdl6en,2020-0188,2020-05-07,19:23:39,19:45:49,NA,incomplete,61,color,1,left,Blue_Circle_Stripes_1.jpg,Blue_Plus_Grid_2.jpg,Purple_Star_Chess_1.jpg,right,558.6450000409968,false,low,false
f9Wdl6en,3ka7ijsnx9iy5qpdnesn7gsg38gpb3,3lrkmwokb9u0i1phiw2gm5nh2mzz2z,f9Wdl6en,2020-0188,2020-05-07,19:23:39,19:45:49,NA,incomplete,62,color,0,right,Blue_Star_Chess_2.jpg,Purple_Plus_Dots_2.jpg,Blue_Circle_Stripes_4.jpg,right,649.6000000042841,true,low,false
f9Wdl6en,3ka7ijsnx9iy5qpdnesn7gsg38gpb3,3lrkmwokb9u0i1phiw2gm5nh2mzz2z,f9Wdl6en,2020-0188,2020-05-07,19:23:39,19:45:49,NA,incomplete,63,color,0,left,Red_Circle_Dots_3.jpg,Red_Star_Stripes_4.jpg,Green_Triangle_Grid_3.jpg,right,800.4100000252947,false,low,false
f9Wdl6en,3ka7ijsnx9iy5qpdnesn7gsg38gpb3,3lrkmwokb9u0i1phiw2gm5nh2mzz2z,f9Wdl6en,2020-0188,2020-05-07,19:23:39,19:45:49,NA,incomplete,64,color,1,right,Blue_Plus_Dots_2.jpg,Green_Triangle_Stripes_2.jpg,Blue_Circle_Chess_3.jpg,left,772.1400000154972,false,low,false
f9Wdl6en,3ka7ijsnx9iy5qpdnesn7gsg38gpb3,3lrkmwokb9u0i1phiw2gm5nh2mzz2z,f9Wdl6en,2020-0188,2020-05-07,19:23:39,19:45:49,NA,incomplete,65,color,1,right,Purple_Plus_Chess_2.jpg,Blue_Circle_Stripes_2.jpg,Purple_Triangle_Dots_4.jpg,left,683.9649999747053,false,low,false
f9Wdl6en,3ka7ijsnx9iy5qpdnesn7gsg38gpb3,3lrkmwokb9u0i1phiw2gm5nh2mzz2z,f9Wdl6en,2020-0188,2020-05-07,19:23:39,19:45:49,NA,incomplete,66,color,1,right,Blue_Triangle_Grid_1.jpg,Green_Star_Dots_1.jpg,Blue_Plus_Stripes_2.jpg,left,596.0099999792874,false,low,false
f9Wdl6en,3ka7ijsnx9iy5qpdnesn7gsg38gpb3,3lrkmwokb9u0i1phiw2gm5nh2mzz2z,f9Wdl6en,2020-0188,2020-05-07,19:23:39,19:45:49,NA,incomplete,67,color,0,right,Green_Circle_Stripes_2.jpg,Blue_Plus_Chess_2.jpg,Green_Triangle_Grid_3.jpg,right,481.4749999786727,true,low,false
f9Wdl6en,3ka7ijsnx9iy5qpdnesn7gsg38gpb3,3lrkmwokb9u0i1phiw2gm5nh2mzz2z,f9Wdl6en,2020-0188,2020-05-07,19:23:39,19:45:49,NA,incomplete,68,color,1,right,Green_Plus_Chess_4.jpg,Blue_Circle_Stripes_4.jpg,Green_Star_Dots_1.jpg,right,545.380000025034,true,low,false
f9Wdl6en,3ka7ijsnx9iy5qpdnesn7gsg38gpb3,3lrkmwokb9u0i1phiw2gm5nh2mzz2z,f9Wdl6en,2020-0188,2020-05-07,19:23:39,19:45:49,NA,incomplete,69,color,1,right,Green_Triangle_Chess_1.jpg,Purple_Plus_Dots_1.jpg,Green_Star_Grid_4.jpg,right,485.58000003686175,true,low,false
f9Wdl6en,3ka7ijsnx9iy5qpdnesn7gsg38gpb3,3lrkmwokb9u0i1phiw2gm5nh2mzz2z,f9Wdl6en,2020-0188,2020-05-07,19:23:39,19:45:49,NA,incomplete,70,color,0,right,Green_Star_Grid_4.jpg,Blue_Circle_Chess_4.jpg,Green_Triangle_Stripes_1.jpg,right,517.8250000462867,true,low,false
f9Wdl6en,3ka7ijsnx9iy5qpdnesn7gsg38gpb3,3lrkmwokb9u0i1phiw2gm5nh2mzz2z,f9Wdl6en,2020-0188,2020-05-07,19:23:39,19:45:49,NA,incomplete,71,color,0,right,Red_Plus_Stripes_3.jpg,Blue_Star_Chess_3.jpg,Red_Triangle_Grid_2.jpg,right,610.2149999933317,true,low,false
f9Wdl6en,3ka7ijsnx9iy5qpdnesn7gsg38gpb3,3lrkmwokb9u0i1phiw2gm5nh2mzz2z,f9Wdl6en,2020-0188,2020-05-07,19:23:39,19:45:49,NA,incomplete,72,color,1,left,Blue_Circle_Chess_2.jpg,Blue_Triangle_Stripes_3.jpg,Red_Star_Grid_2.jpg,left,640.735000022687,true,low,false
f9Wdl6en,3ka7ijsnx9iy5qpdnesn7gsg38gpb3,3lrkmwokb9u0i1phiw2gm5nh2mzz2z,f9Wdl6en,2020-0188,2020-05-07,19:23:39,19:45:49,NA,incomplete,73,color,1,left,Green_Triangle_Dots_1.jpg,Green_Star_Chess_2.jpg,Purple_Plus_Grid_1.jpg,left,587.3250000295229,true,low,false
f9Wdl6en,3ka7ijsnx9iy5qpdnesn7gsg38gpb3,3lrkmwokb9u0i1phiw2gm5nh2mzz2z,f9Wdl6en,2020-0188,2020-05-07,19:23:39,19:45:49,NA,incomplete,74,color,1,left,Red_Circle_Chess_4.jpg,Red_Star_Stripes_3.jpg,Purple_Plus_Grid_4.jpg,left,488.7950000120327,true,low,false
f9Wdl6en,3ka7ijsnx9iy5qpdnesn7gsg38gpb3,3lrkmwokb9u0i1phiw2gm5nh2mzz2z,f9Wdl6en,2020-0188,2020-05-07,19:23:39,19:45:49,NA,incomplete,75,color,1,right,Purple_Circle_Grid_4.jpg,Red_Star_Chess_4.jpg,Purple_Plus_Dots_1.jpg,right,519.4400000036694,true,low,false
f9Wdl6en,3ka7ijsnx9iy5qpdnesn7gsg38gpb3,3lrkmwokb9u0i1phiw2gm5nh2mzz2z,f9Wdl6en,2020-0188,2020-05-07,19:23:39,19:45:49,NA,incomplete,76,color,1,right,Blue_Plus_Stripes_4.jpg,Purple_Triangle_Grid_4.jpg,Blue_Star_Chess_3.jpg,right,576.4099999796599,true,low,false
f9Wdl6en,3ka7ijsnx9iy5qpdnesn7gsg38gpb3,3lrkmwokb9u0i1phiw2gm5nh2mzz2z,f9Wdl6en,2020-0188,2020-05-07,19:23:39,19:45:49,NA,incomplete,77,color,0,right,Blue_Circle_Grid_3.jpg,Red_Plus_Chess_3.jpg,Blue_Triangle_Dots_4.jpg,right,473.0950000230223,true,low,false
f9Wdl6en,3ka7ijsnx9iy5qpdnesn7gsg38gpb3,3lrkmwokb9u0i1phiw2gm5nh2mzz2z,f9Wdl6en,2020-0188,2020-05-07,19:23:39,19:45:49,NA,incomplete,78,color,1,left,Green_Triangle_Stripes_4.jpg,Green_Star_Grid_3.jpg,Blue_Circle_Chess_4.jpg,left,461.9149999925867,true,low,false
f9Wdl6en,3ka7ijsnx9iy5qpdnesn7gsg38gpb3,3lrkmwokb9u0i1phiw2gm5nh2mzz2z,f9Wdl6en,2020-0188,2020-05-07,19:23:39,19:45:49,NA,incomplete,79,color,1,right,Red_Star_Grid_1.jpg,Green_Plus_Chess_1.jpg,Red_Circle_Dots_3.jpg,right,460.190000012517,true,low,false
f9Wdl6en,3ka7ijsnx9iy5qpdnesn7gsg38gpb3,3lrkmwokb9u0i1phiw2gm5nh2mzz2z,f9Wdl6en,2020-0188,2020-05-07,19:23:39,19:45:49,NA,incomplete,80,color,1,left,Blue_Circle_Chess_1.jpg,Blue_Plus_Stripes_2.jpg,Red_Star_Grid_1.jpg,left,480.6899999966845,true,low,false
f9Wdl6en,3ka7ijsnx9iy5qpdnesn7gsg38gpb3,3lrkmwokb9u0i1phiw2gm5nh2mzz2z,f9Wdl6en,2020-0188,2020-05-07,19:23:39,19:45:49,NA,incomplete,81,color,1,left,Purple_Plus_Chess_4.jpg,Purple_Circle_Stripes_1.jpg,Green_Triangle_Grid_4.jpg,left,612.3399999924004,true,low,false
f9Wdl6en,3ka7ijsnx9iy5qpdnesn7gsg38gpb3,3lrkmwokb9u0i1phiw2gm5nh2mzz2z,f9Wdl6en,2020-0188,2020-05-07,19:23:39,19:45:49,NA,incomplete,82,color,1,left,Blue_Plus_Chess_4.jpg,Blue_Circle_Dots_3.jpg,Purple_Triangle_Grid_4.jpg,left,500.42500003473833,true,low,false
f9Wdl6en,3ka7ijsnx9iy5qpdnesn7gsg38gpb3,3lrkmwokb9u0i1phiw2gm5nh2mzz2z,f9Wdl6en,2020-0188,2020-05-07,19:23:39,19:45:49,NA,incomplete,83,color,1,right,Green_Star_Dots_1.jpg,Purple_Circle_Grid_1.jpg,Green_Plus_Stripes_2.jpg,right,541.689999983646,true,low,false
f9Wdl6en,3ka7ijsnx9iy5qpdnesn7gsg38gpb3,3lrkmwokb9u0i1phiw2gm5nh2mzz2z,f9Wdl6en,2020-0188,2020-05-07,19:23:39,19:45:49,NA,incomplete,84,color,1,left,Green_Plus_Chess_1.jpg,Green_Circle_Grid_4.jpg,Blue_Star_Stripes_1.jpg,left,540.999999968335,true,low,false
f9Wdl6en,3ka7ijsnx9iy5qpdnesn7gsg38gpb3,3lrkmwokb9u0i1phiw2gm5nh2mzz2z,f9Wdl6en,2020-0188,2020-05-07,19:23:39,19:45:49,NA,incomplete,85,color,1,right,Green_Circle_Grid_4.jpg,Purple_Triangle_Stripes_4.jpg,Green_Star_Chess_2.jpg,right,532.3150000185706,true,low,false
f9Wdl6en,3ka7ijsnx9iy5qpdnesn7gsg38gpb3,3lrkmwokb9u0i1phiw2gm5nh2mzz2z,f9Wdl6en,2020-0188,2020-05-07,19:23:39,19:45:49,NA,incomplete,86,color,1,left,Green_Plus_Chess_2.jpg,Green_Star_Grid_1.jpg,Purple_Triangle_Dots_2.jpg,left,480.2200000267476,true,low,false
f9Wdl6en,3ka7ijsnx9iy5qpdnesn7gsg38gpb3,3lrkmwokb9u0i1phiw2gm5nh2mzz2z,f9Wdl6en,2020-0188,2020-05-07,19:23:39,19:45:49,NA,incomplete,87,color,1,right,Green_Plus_Stripes_1.jpg,Red_Circle_Dots_1.jpg,Green_Star_Grid_3.jpg,right,461.13499999046326,true,low,false
f9Wdl6en,3ka7ijsnx9iy5qpdnesn7gsg38gpb3,3lrkmwokb9u0i1phiw2gm5nh2mzz2z,f9Wdl6en,2020-0188,2020-05-07,19:23:39,19:45:49,NA,incomplete,88,color,1,left,Purple_Circle_Stripes_3.jpg,Purple_Triangle_Dots_2.jpg,Green_Plus_Chess_3.jpg,left,480.40499998023733,true,low,false
f9Wdl6en,3ka7ijsnx9iy5qpdnesn7gsg38gpb3,3lrkmwokb9u0i1phiw2gm5nh2mzz2z,f9Wdl6en,2020-0188,2020-05-07,19:23:39,19:45:49,NA,incomplete,89,color,1,left,Green_Star_Stripes_2.jpg,Green_Plus_Chess_3.jpg,Red_Triangle_Grid_2.jpg,left,531.4049999578856,true,low,false
f9Wdl6en,3ka7ijsnx9iy5qpdnesn7gsg38gpb3,3lrkmwokb9u0i1phiw2gm5nh2mzz2z,f9Wdl6en,2020-0188,2020-05-07,19:23:39,19:45:49,NA,incomplete,90,number,1,left,Blue_Plus_Stripes_4.jpg,Purple_Triangle_Chess_4.jpg,Blue_Star_Grid_1.jpg,right,585.1450000191107,false,low,false
f9Wdl6en,3ka7ijsnx9iy5qpdnesn7gsg38gpb3,3lrkmwokb9u0i1phiw2gm5nh2mzz2z,f9Wdl6en,2020-0188,2020-05-07,19:23:39,19:45:49,NA,incomplete,91,number,1,left,Purple_Triangle_Grid_2.jpg,Red_Plus_Chess_2.jpg,Purple_Circle_Stripes_1.jpg,right,603.865000011865,false,low,false
f9Wdl6en,3ka7ijsnx9iy5qpdnesn7gsg38gpb3,3lrkmwokb9u0i1phiw2gm5nh2mzz2z,f9Wdl6en,2020-0188,2020-05-07,19:23:39,19:45:49,NA,incomplete,92,number,1,right,Purple_Circle_Dots_4.jpg,Purple_Plus_Grid_2.jpg,Green_Star_Stripes_4.jpg,right,772.2499999799766,true,low,false
f9Wdl6en,3ka7ijsnx9iy5qpdnesn7gsg38gpb3,3lrkmwokb9u0i1phiw2gm5nh2mzz2z,f9Wdl6en,2020-0188,2020-05-07,19:23:39,19:45:49,NA,incomplete,93,number,1,left,Green_Plus_Grid_1.jpg,Purple_Triangle_Chess_1.jpg,Green_Star_Stripes_4.jpg,left,545.2700000023469,true,low,false
f9Wdl6en,3ka7ijsnx9iy5qpdnesn7gsg38gpb3,3lrkmwokb9u0i1phiw2gm5nh2mzz2z,f9Wdl6en,2020-0188,2020-05-07,19:23:39,19:45:49,NA,incomplete,94,number,1,right,Blue_Circle_Chess_3.jpg,Blue_Plus_Dots_1.jpg,Green_Star_Grid_3.jpg,left,634.3800000031479,false,low,false
f9Wdl6en,3ka7ijsnx9iy5qpdnesn7gsg38gpb3,3lrkmwokb9u0i1phiw2gm5nh2mzz2z,f9Wdl6en,2020-0188,2020-05-07,19:23:39,19:45:49,NA,incomplete,95,number,1,left,Purple_Plus_Dots_1.jpg,Blue_Triangle_Stripes_1.jpg,Purple_Star_Grid_3.jpg,left,582.529999956023,true,low,false
f9Wdl6en,3ka7ijsnx9iy5qpdnesn7gsg38gpb3,3lrkmwokb9u0i1phiw2gm5nh2mzz2z,f9Wdl6en,2020-0188,2020-05-07,19:23:39,19:45:49,NA,incomplete,96,number,0,left,Red_Triangle_Dots_1.jpg,Blue_Plus_Chess_1.jpg,Red_Star_Grid_2.jpg,left,662.0100000291131,true,low,false
f9Wdl6en,3ka7ijsnx9iy5qpdnesn7gsg38gpb3,3lrkmwokb9u0i1phiw2gm5nh2mzz2z,f9Wdl6en,2020-0188,2020-05-07,19:23:39,19:45:49,NA,incomplete,97,number,1,right,Green_Triangle_Chess_3.jpg,Green_Circle_Stripes_1.jpg,Purple_Star_Dots_3.jpg,left,746.9899999559857,false,low,false
f9Wdl6en,3ka7ijsnx9iy5qpdnesn7gsg38gpb3,3lrkmwokb9u0i1phiw2gm5nh2mzz2z,f9Wdl6en,2020-0188,2020-05-07,19:23:39,19:45:49,NA,incomplete,98,number,1,right,Blue_Star_Dots_1.jpg,Blue_Circle_Grid_4.jpg,Purple_Plus_Stripes_1.jpg,right,827.4250000249594,true,low,false
f9Wdl6en,3ka7ijsnx9iy5qpdnesn7gsg38gpb3,3lrkmwokb9u0i1phiw2gm5nh2mzz2z,f9Wdl6en,2020-0188,2020-05-07,19:23:39,19:45:49,NA,incomplete,99,number,1,left,Purple_Triangle_Stripes_1.jpg,Blue_Circle_Chess_1.jpg,Purple_Plus_Dots_3.jpg,left,490.80500000854954,true,low,false
f9Wdl6en,3ka7ijsnx9iy5qpdnesn7gsg38gpb3,3lrkmwokb9u0i1phiw2gm5nh2mzz2z,f9Wdl6en,2020-0188,2020-05-07,19:23:39,19:45:49,NA,incomplete,100,number,0,right,Blue_Plus_Stripes_1.jpg,Blue_Circle_Chess_4.jpg,Purple_Triangle_Dots_1.jpg,right,694.4449999718927,true,low,false
f9Wdl6en,3ka7ijsnx9iy5qpdnesn7gsg38gpb3,3lrkmwokb9u0i1phiw2gm5nh2mzz2z,f9Wdl6en,2020-0188,2020-05-07,19:23:39,19:45:49,NA,incomplete,101,number,1,right,Blue_Plus_Grid_2.jpg,Blue_Star_Chess_1.jpg,Green_Circle_Dots_2.jpg,right,703.1050000223331,true,low,false
f9Wdl6en,3ka7ijsnx9iy5qpdnesn7gsg38gpb3,3lrkmwokb9u0i1phiw2gm5nh2mzz2z,f9Wdl6en,2020-0188,2020-05-07,19:23:39,19:45:49,NA,incomplete,102,number,1,left,Blue_Plus_Dots_1.jpg,Red_Triangle_Chess_1.jpg,Blue_Star_Stripes_2.jpg,left,550.8200000040233,true,low,false
f9Wdl6en,3ka7ijsnx9iy5qpdnesn7gsg38gpb3,3lrkmwokb9u0i1phiw2gm5nh2mzz2z,f9Wdl6en,2020-0188,2020-05-07,19:23:39,19:45:49,NA,incomplete,103,number,1,right,Purple_Circle_Chess_4.jpg,Purple_Triangle_Dots_2.jpg,Red_Plus_Grid_4.jpg,right,618.5699999914505,true,low,false
f9Wdl6en,3ka7ijsnx9iy5qpdnesn7gsg38gpb3,3lrkmwokb9u0i1phiw2gm5nh2mzz2z,f9Wdl6en,2020-0188,2020-05-07,19:23:39,19:45:49,NA,incomplete,104,number,1,right,Blue_Circle_Dots_1.jpg,Blue_Star_Chess_2.jpg,Purple_Triangle_Stripes_1.jpg,right,547.8800000273623,true,low,false
f9Wdl6en,3ka7ijsnx9iy5qpdnesn7gsg38gpb3,3lrkmwokb9u0i1phiw2gm5nh2mzz2z,f9Wdl6en,2020-0188,2020-05-07,19:23:39,19:45:49,NA,incomplete,105,number,1,left,Red_Triangle_Chess_4.jpg,Green_Star_Dots_4.jpg,Red_Plus_Grid_1.jpg,left,790.7600000035018,true,low,false
f9Wdl6en,3ka7ijsnx9iy5qpdnesn7gsg38gpb3,3lrkmwokb9u0i1phiw2gm5nh2mzz2z,f9Wdl6en,2020-0188,2020-05-07,19:23:39,19:45:49,NA,incomplete,106,number,1,left,Purple_Triangle_Chess_1.jpg,Red_Plus_Dots_1.jpg,Purple_Star_Grid_3.jpg,left,584.2150000389665,true,low,false
f9Wdl6en,3ka7ijsnx9iy5qpdnesn7gsg38gpb3,3lrkmwokb9u0i1phiw2gm5nh2mzz2z,f9Wdl6en,2020-0188,2020-05-07,19:23:39,19:45:49,NA,incomplete,107,number,1,left,Purple_Triangle_Dots_4.jpg,Red_Circle_Grid_4.jpg,Purple_Star_Chess_1.jpg,left,579.0849999757484,true,low,false
f9Wdl6en,3ka7ijsnx9iy5qpdnesn7gsg38gpb3,3lrkmwokb9u0i1phiw2gm5nh2mzz2z,f9Wdl6en,2020-0188,2020-05-07,19:23:39,19:45:49,NA,incomplete,108,number,1,left,Red_Star_Dots_2.jpg,Purple_Triangle_Stripes_2.jpg,Red_Plus_Grid_4.jpg,left,717.0749999932013,true,low,false
f9Wdl6en,3ka7ijsnx9iy5qpdnesn7gsg38gpb3,3lrkmwokb9u0i1phiw2gm5nh2mzz2z,f9Wdl6en,2020-0188,2020-05-07,19:23:39,19:45:49,NA,incomplete,109,number,1,right,Red_Circle_Dots_4.jpg,Red_Star_Chess_1.jpg,Purple_Plus_Grid_4.jpg,left,739.2850000178441,false,low,false
f9Wdl6en,3ka7ijsnx9iy5qpdnesn7gsg38gpb3,3lrkmwokb9u0i1phiw2gm5nh2mzz2z,f9Wdl6en,2020-0188,2020-05-07,19:23:39,19:45:49,NA,incomplete,110,number,0,right,Green_Plus_Grid_3.jpg,Green_Triangle_Stripes_1.jpg,Blue_Star_Dots_3.jpg,right,956.8549999967217,true,low,false
f9Wdl6en,3ka7ijsnx9iy5qpdnesn7gsg38gpb3,3lrkmwokb9u0i1phiw2gm5nh2mzz2z,f9Wdl6en,2020-0188,2020-05-07,19:23:39,19:45:49,NA,incomplete,111,number,1,right,Blue_Plus_Grid_2.jpg,Blue_Star_Dots_1.jpg,Green_Circle_Chess_2.jpg,left,579.7550000133924,false,low,false
f9Wdl6en,3ka7ijsnx9iy5qpdnesn7gsg38gpb3,3lrkmwokb9u0i1phiw2gm5nh2mzz2z,f9Wdl6en,2020-0188,2020-05-07,19:23:39,19:45:49,NA,incomplete,112,number,1,left,Green_Star_Chess_2.jpg,Purple_Triangle_Dots_2.jpg,Green_Plus_Stripes_1.jpg,right,653.1299999915063,false,low,false
f9Wdl6en,3ka7ijsnx9iy5qpdnesn7gsg38gpb3,3lrkmwokb9u0i1phiw2gm5nh2mzz2z,f9Wdl6en,2020-0188,2020-05-07,19:23:39,19:45:49,NA,incomplete,113,number,1,left,Purple_Plus_Dots_3.jpg,Red_Triangle_Chess_3.jpg,Purple_Circle_Grid_2.jpg,left,664.2700000084005,true,low,false
f9Wdl6en,3ka7ijsnx9iy5qpdnesn7gsg38gpb3,3lrkmwokb9u0i1phiw2gm5nh2mzz2z,f9Wdl6en,2020-0188,2020-05-07,19:23:39,19:45:49,NA,incomplete,114,number,1,right,Green_Plus_Chess_1.jpg,Green_Circle_Dots_4.jpg,Red_Triangle_Grid_1.jpg,right,550.4949999740347,true,low,false
f9Wdl6en,3ka7ijsnx9iy5qpdnesn7gsg38gpb3,3lrkmwokb9u0i1phiw2gm5nh2mzz2z,f9Wdl6en,2020-0188,2020-05-07,19:23:39,19:45:49,NA,incomplete,115,number,1,left,Blue_Plus_Grid_2.jpg,Green_Circle_Stripes_2.jpg,Blue_Triangle_Chess_3.jpg,left,686.5600000019185,true,low,false
f9Wdl6en,3ka7ijsnx9iy5qpdnesn7gsg38gpb3,3lrkmwokb9u0i1phiw2gm5nh2mzz2z,f9Wdl6en,2020-0188,2020-05-07,19:23:39,19:45:49,NA,incomplete,116,number,1,left,Blue_Triangle_Stripes_2.jpg,Green_Plus_Dots_2.jpg,Blue_Circle_Grid_4.jpg,left,625.6000000284985,true,low,false
f9Wdl6en,3ka7ijsnx9iy5qpdnesn7gsg38gpb3,3lrkmwokb9u0i1phiw2gm5nh2mzz2z,f9Wdl6en,2020-0188,2020-05-07,19:23:39,19:45:49,NA,incomplete,117,number,1,left,Red_Plus_Stripes_1.jpg,Blue_Star_Chess_1.jpg,Red_Circle_Grid_2.jpg,left,488.0700000212528,true,low,false
f9Wdl6en,3ka7ijsnx9iy5qpdnesn7gsg38gpb3,3lrkmwokb9u0i1phiw2gm5nh2mzz2z,f9Wdl6en,2020-0188,2020-05-07,19:23:39,19:45:49,NA,incomplete,118,number,1,right,Green_Star_Dots_3.jpg,Green_Plus_Chess_1.jpg,Blue_Triangle_Grid_3.jpg,right,553.4050000132993,true,low,false
f9Wdl6en,3ka7ijsnx9iy5qpdnesn7gsg38gpb3,3lrkmwokb9u0i1phiw2gm5nh2mzz2z,f9Wdl6en,2020-0188,2020-05-07,19:23:39,19:45:49,NA,incomplete,119,number,0,right,Purple_Circle_Chess_3.jpg,Purple_Triangle_Grid_1.jpg,Green_Star_Stripes_3.jpg,right,575.5200000130571,true,low,false
f9Wdl6en,3ka7ijsnx9iy5qpdnesn7gsg38gpb3,3lrkmwokb9u0i1phiw2gm5nh2mzz2z,f9Wdl6en,2020-0188,2020-05-07,19:23:39,19:45:49,NA,incomplete,120,color,1,left,Purple_Star_Chess_4.jpg,Purple_Triangle_Stripes_3.jpg,Red_Plus_Grid_4.jpg,right,713.3449999964796,false,low,false
f9Wdl6en,3ka7ijsnx9iy5qpdnesn7gsg38gpb3,3lrkmwokb9u0i1phiw2gm5nh2mzz2z,f9Wdl6en,2020-0188,2020-05-07,19:23:39,19:45:49,NA,incomplete,121,color,1,left,Green_Plus_Chess_2.jpg,Green_Circle_Grid_1.jpg,Red_Triangle_Dots_2.jpg,right,747.7700000163168,false,low,false
f9Wdl6en,3ka7ijsnx9iy5qpdnesn7gsg38gpb3,3lrkmwokb9u0i1phiw2gm5nh2mzz2z,f9Wdl6en,2020-0188,2020-05-07,19:23:39,19:45:49,NA,incomplete,122,color,1,left,Blue_Circle_Stripes_4.jpg,Blue_Plus_Grid_3.jpg,Purple_Triangle_Dots_4.jpg,left,566.9500000076368,true,low,false
f9Wdl6en,3ka7ijsnx9iy5qpdnesn7gsg38gpb3,3lrkmwokb9u0i1phiw2gm5nh2mzz2z,f9Wdl6en,2020-0188,2020-05-07,19:23:39,19:45:49,NA,incomplete,123,color,1,right,Red_Triangle_Grid_4.jpg,Blue_Star_Stripes_4.jpg,Red_Plus_Dots_1.jpg,right,475.7499999832362,true,low,false
f9Wdl6en,3ka7ijsnx9iy5qpdnesn7gsg38gpb3,3lrkmwokb9u0i1phiw2gm5nh2mzz2z,f9Wdl6en,2020-0188,2020-05-07,19:23:39,19:45:49,NA,incomplete,124,color,0,left,Red_Plus_Stripes_4.jpg,Red_Circle_Chess_1.jpg,Blue_Triangle_Dots_4.jpg,left,531.3999999780208,true,low,false
f9Wdl6en,3ka7ijsnx9iy5qpdnesn7gsg38gpb3,3lrkmwokb9u0i1phiw2gm5nh2mzz2z,f9Wdl6en,2020-0188,2020-05-07,19:23:39,19:45:49,NA,incomplete,125,color,1,right,Blue_Triangle_Chess_1.jpg,Green_Plus_Grid_1.jpg,Blue_Circle_Stripes_3.jpg,right,538.8249999959953,true,low,false
f9Wdl6en,3ka7ijsnx9iy5qpdnesn7gsg38gpb3,3lrkmwokb9u0i1phiw2gm5nh2mzz2z,f9Wdl6en,2020-0188,2020-05-07,19:23:39,19:45:49,NA,incomplete,126,color,1,left,Red_Triangle_Grid_2.jpg,Red_Plus_Dots_1.jpg,Green_Star_Chess_2.jpg,left,530.80000000773,true,low,false
f9Wdl6en,3ka7ijsnx9iy5qpdnesn7gsg38gpb3,3lrkmwokb9u0i1phiw2gm5nh2mzz2z,f9Wdl6en,2020-0188,2020-05-07,19:23:39,19:45:49,NA,incomplete,127,color,0,right,Blue_Plus_Dots_2.jpg,Red_Circle_Chess_2.jpg,Blue_Star_Stripes_1.jpg,right,480.5649999761954,true,low,false
f9Wdl6en,3ka7ijsnx9iy5qpdnesn7gsg38gpb3,3lrkmwokb9u0i1phiw2gm5nh2mzz2z,f9Wdl6en,2020-0188,2020-05-07,19:23:39,19:45:49,NA,incomplete,128,color,1,left,Blue_Triangle_Stripes_1.jpg,Blue_Plus_Dots_3.jpg,Purple_Circle_Grid_1.jpg,left,523.2349999714643,true,low,false
f9Wdl6en,3ka7ijsnx9iy5qpdnesn7gsg38gpb3,3lrkmwokb9u0i1phiw2gm5nh2mzz2z,f9Wdl6en,2020-0188,2020-05-07,19:23:39,19:45:49,NA,incomplete,129,color,1,right,Red_Triangle_Stripes_1.jpg,Purple_Plus_Chess_1.jpg,Red_Star_Dots_3.jpg,right,451.4199999975972,true,low,false
f9Wdl6en,3ka7ijsnx9iy5qpdnesn7gsg38gpb3,3lrkmwokb9u0i1phiw2gm5nh2mzz2z,f9Wdl6en,2020-0188,2020-05-07,19:23:39,19:45:49,NA,incomplete,130,color,1,left,Green_Circle_Stripes_1.jpg,Green_Plus_Grid_4.jpg,Blue_Triangle_Chess_1.jpg,left,541.3049999624491,true,low,false
f9Wdl6en,3ka7ijsnx9iy5qpdnesn7gsg38gpb3,3lrkmwokb9u0i1phiw2gm5nh2mzz2z,f9Wdl6en,2020-0188,2020-05-07,19:23:39,19:45:49,NA,incomplete,131,color,1,right,Red_Triangle_Dots_2.jpg,Purple_Plus_Chess_2.jpg,Red_Circle_Stripes_4.jpg,right,593.9149999758229,true,low,false
f9Wdl6en,3ka7ijsnx9iy5qpdnesn7gsg38gpb3,3lrkmwokb9u0i1phiw2gm5nh2mzz2z,f9Wdl6en,2020-0188,2020-05-07,19:23:39,19:45:49,NA,incomplete,132,color,1,right,Green_Star_Chess_1.jpg,Blue_Plus_Grid_1.jpg,Green_Triangle_Dots_3.jpg,right,703.9949999889359,true,low,false
f9Wdl6en,3ka7ijsnx9iy5qpdnesn7gsg38gpb3,3lrkmwokb9u0i1phiw2gm5nh2mzz2z,f9Wdl6en,2020-0188,2020-05-07,19:23:39,19:45:49,NA,incomplete,133,color,0,left,Purple_Triangle_Dots_1.jpg,Purple_Plus_Chess_3.jpg,Blue_Star_Stripes_1.jpg,left,639.6449999883771,true,low,false
f9Wdl6en,3ka7ijsnx9iy5qpdnesn7gsg38gpb3,3lrkmwokb9u0i1phiw2gm5nh2mzz2z,f9Wdl6en,2020-0188,2020-05-07,19:23:39,19:45:49,NA,incomplete,134,color,1,right,Green_Star_Stripes_1.jpg,Purple_Triangle_Dots_1.jpg,Green_Plus_Grid_2.jpg,right,544.6450000163168,true,low,false
f9Wdl6en,3ka7ijsnx9iy5qpdnesn7gsg38gpb3,3lrkmwokb9u0i1phiw2gm5nh2mzz2z,f9Wdl6en,2020-0188,2020-05-07,19:23:39,19:45:49,NA,incomplete,135,color,1,left,Red_Triangle_Dots_4.jpg,Red_Star_Grid_3.jpg,Green_Circle_Stripes_4.jpg,left,463.83999998215586,true,low,false
f9Wdl6en,3ka7ijsnx9iy5qpdnesn7gsg38gpb3,3lrkmwokb9u0i1phiw2gm5nh2mzz2z,f9Wdl6en,2020-0188,2020-05-07,19:23:39,19:45:49,NA,incomplete,136,color,1,right,Purple_Star_Dots_3.jpg,Red_Circle_Grid_3.jpg,Purple_Triangle_Stripes_4.jpg,right,511.2850000150502,true,low,false
f9Wdl6en,3ka7ijsnx9iy5qpdnesn7gsg38gpb3,3lrkmwokb9u0i1phiw2gm5nh2mzz2z,f9Wdl6en,2020-0188,2020-05-07,19:23:39,19:45:49,NA,incomplete,137,color,1,left,Blue_Triangle_Dots_2.jpg,Blue_Plus_Stripes_4.jpg,Purple_Circle_Chess_2.jpg,left,486.2399999983609,true,low,false
f9Wdl6en,3ka7ijsnx9iy5qpdnesn7gsg38gpb3,3lrkmwokb9u0i1phiw2gm5nh2mzz2z,f9Wdl6en,2020-0188,2020-05-07,19:23:39,19:45:49,NA,incomplete,138,color,1,left,Red_Circle_Grid_4.jpg,Red_Plus_Chess_2.jpg,Green_Triangle_Dots_4.jpg,left,593.6850000289269,true,low,false
f9Wdl6en,3ka7ijsnx9iy5qpdnesn7gsg38gpb3,3lrkmwokb9u0i1phiw2gm5nh2mzz2z,f9Wdl6en,2020-0188,2020-05-07,19:23:39,19:45:49,NA,incomplete,139,color,1,right,Purple_Plus_Stripes_2.jpg,Red_Triangle_Grid_2.jpg,Purple_Star_Chess_1.jpg,right,558.0900000059046,true,low,false
f9Wdl6en,3ka7ijsnx9iy5qpdnesn7gsg38gpb3,3lrkmwokb9u0i1phiw2gm5nh2mzz2z,f9Wdl6en,2020-0188,2020-05-07,19:23:39,19:45:49,NA,incomplete,140,number,1,right,Green_Star_Grid_3.jpg,Green_Circle_Chess_1.jpg,Red_Triangle_Dots_3.jpg,left,592.7350000129081,false,low,false
f9Wdl6en,3ka7ijsnx9iy5qpdnesn7gsg38gpb3,3lrkmwokb9u0i1phiw2gm5nh2mzz2z,f9Wdl6en,2020-0188,2020-05-07,19:23:39,19:45:49,NA,incomplete,141,number,0,right,Blue_Star_Dots_1.jpg,Blue_Triangle_Grid_2.jpg,Green_Circle_Chess_1.jpg,right,768.7400000286289,true,low,false
f9Wdl6en,3ka7ijsnx9iy5qpdnesn7gsg38gpb3,3lrkmwokb9u0i1phiw2gm5nh2mzz2z,f9Wdl6en,2020-0188,2020-05-07,19:23:39,19:45:49,NA,incomplete,142,number,1,left,Red_Star_Chess_3.jpg,Green_Plus_Grid_3.jpg,Red_Triangle_Dots_2.jpg,right,597.5700000417419,false,low,false
f9Wdl6en,3ka7ijsnx9iy5qpdnesn7gsg38gpb3,3lrkmwokb9u0i1phiw2gm5nh2mzz2z,f9Wdl6en,2020-0188,2020-05-07,19:23:39,19:45:49,NA,incomplete,143,number,1,right,Purple_Plus_Chess_3.jpg,Purple_Triangle_Dots_1.jpg,Green_Circle_Grid_3.jpg,left,577.7949999901466,false,low,false
f9Wdl6en,3ka7ijsnx9iy5qpdnesn7gsg38gpb3,3lrkmwokb9u0i1phiw2gm5nh2mzz2z,f9Wdl6en,2020-0188,2020-05-07,19:23:39,19:45:49,NA,incomplete,144,number,1,left,Green_Star_Chess_4.jpg,Red_Circle_Stripes_4.jpg,Green_Plus_Grid_2.jpg,left,889.4100000034086,true,low,false
f9Wdl6en,3ka7ijsnx9iy5qpdnesn7gsg38gpb3,3lrkmwokb9u0i1phiw2gm5nh2mzz2z,f9Wdl6en,2020-0188,2020-05-07,19:23:39,19:45:49,NA,incomplete,145,number,0,left,Purple_Plus_Grid_3.jpg,Green_Star_Stripes_3.jpg,Purple_Circle_Chess_4.jpg,left,772.7450000238605,true,low,false
f9Wdl6en,3ka7ijsnx9iy5qpdnesn7gsg38gpb3,3lrkmwokb9u0i1phiw2gm5nh2mzz2z,f9Wdl6en,2020-0188,2020-05-07,19:23:39,19:45:49,NA,incomplete,146,number,1,right,Red_Plus_Grid_2.jpg,Red_Circle_Dots_4.jpg,Green_Star_Stripes_2.jpg,right,555.419999989681,true,low,false
f9Wdl6en,3ka7ijsnx9iy5qpdnesn7gsg38gpb3,3lrkmwokb9u0i1phiw2gm5nh2mzz2z,f9Wdl6en,2020-0188,2020-05-07,19:23:39,19:45:49,NA,incomplete,147,number,1,right,Red_Plus_Chess_4.jpg,Red_Triangle_Dots_1.jpg,Blue_Star_Stripes_4.jpg,right,586.7849999922328,true,low,false
f9Wdl6en,3ka7ijsnx9iy5qpdnesn7gsg38gpb3,3lrkmwokb9u0i1phiw2gm5nh2mzz2z,f9Wdl6en,2020-0188,2020-05-07,19:23:39,19:45:49,NA,incomplete,148,number,0,left,Blue_Plus_Chess_3.jpg,Purple_Triangle_Stripes_3.jpg,Blue_Star_Grid_2.jpg,left,796.875,true,low,false
f9Wdl6en,3ka7ijsnx9iy5qpdnesn7gsg38gpb3,3lrkmwokb9u0i1phiw2gm5nh2mzz2z,f9Wdl6en,2020-0188,2020-05-07,19:23:39,19:45:49,NA,incomplete,149,number,1,left,Green_Plus_Dots_4.jpg,Blue_Star_Stripes_4.jpg,Green_Triangle_Chess_1.jpg,right,708.7349999928847,false,low,false
f9Wdl6en,3ka7ijsnx9iy5qpdnesn7gsg38gpb3,3lrkmwokb9u0i1phiw2gm5nh2mzz2z,f9Wdl6en,2020-0188,2020-05-07,19:23:39,19:45:49,NA,incomplete,150,number,1,left,Green_Star_Chess_3.jpg,Purple_Plus_Stripes_3.jpg,Green_Circle_Grid_4.jpg,left,592.20999997342,true,low,false
f9Wdl6en,3ka7ijsnx9iy5qpdnesn7gsg38gpb3,3lrkmwokb9u0i1phiw2gm5nh2mzz2z,f9Wdl6en,2020-0188,2020-05-07,19:23:39,19:45:49,NA,incomplete,151,number,0,right,Green_Triangle_Grid_2.jpg,Green_Circle_Dots_3.jpg,Purple_Star_Stripes_2.jpg,right,661.3099999958649,true,low,false
f9Wdl6en,3ka7ijsnx9iy5qpdnesn7gsg38gpb3,3lrkmwokb9u0i1phiw2gm5nh2mzz2z,f9Wdl6en,2020-0188,2020-05-07,19:23:39,19:45:49,NA,incomplete,152,number,1,right,Green_Circle_Stripes_2.jpg,Green_Triangle_Dots_3.jpg,Blue_Plus_Grid_2.jpg,right,676.659999997355,true,low,false
f9Wdl6en,3ka7ijsnx9iy5qpdnesn7gsg38gpb3,3lrkmwokb9u0i1phiw2gm5nh2mzz2z,f9Wdl6en,2020-0188,2020-05-07,19:23:39,19:45:49,NA,incomplete,153,number,1,left,Blue_Plus_Grid_2.jpg,Red_Triangle_Chess_2.jpg,Blue_Circle_Stripes_3.jpg,left,596.6149999876507,true,low,false
f9Wdl6en,3ka7ijsnx9iy5qpdnesn7gsg38gpb3,3lrkmwokb9u0i1phiw2gm5nh2mzz2z,f9Wdl6en,2020-0188,2020-05-07,19:23:39,19:45:49,NA,incomplete,154,number,1,right,Purple_Circle_Dots_2.jpg,Purple_Triangle_Chess_4.jpg,Green_Plus_Grid_2.jpg,right,649.1450000321493,true,low,false
f9Wdl6en,3ka7ijsnx9iy5qpdnesn7gsg38gpb3,3lrkmwokb9u0i1phiw2gm5nh2mzz2z,f9Wdl6en,2020-0188,2020-05-07,19:23:39,19:45:49,NA,incomplete,155,number,0,left,Blue_Plus_Grid_3.jpg,Purple_Circle_Dots_3.jpg,Blue_Triangle_Chess_1.jpg,left,807.2299999766983,true,low,false
f9Wdl6en,3ka7ijsnx9iy5qpdnesn7gsg38gpb3,3lrkmwokb9u0i1phiw2gm5nh2mzz2z,f9Wdl6en,2020-0188,2020-05-07,19:23:39,19:45:49,NA,incomplete,156,number,1,left,Green_Triangle_Stripes_2.jpg,Red_Plus_Chess_2.jpg,Green_Circle_Dots_1.jpg,left,674.910000001546,true,low,false
f9Wdl6en,3ka7ijsnx9iy5qpdnesn7gsg38gpb3,3lrkmwokb9u0i1phiw2gm5nh2mzz2z,f9Wdl6en,2020-0188,2020-05-07,19:23:39,19:45:49,NA,incomplete,157,number,1,right,Green_Star_Grid_3.jpg,Green_Plus_Chess_4.jpg,Purple_Triangle_Stripes_3.jpg,right,718.8700000406243,true,low,false
f9Wdl6en,3ka7ijsnx9iy5qpdnesn7gsg38gpb3,3lrkmwokb9u0i1phiw2gm5nh2mzz2z,f9Wdl6en,2020-0188,2020-05-07,19:23:39,19:45:49,NA,incomplete,158,number,1,right,Blue_Plus_Stripes_3.jpg,Blue_Star_Dots_1.jpg,Purple_Circle_Chess_3.jpg,right,662.0000000111759,true,low,false
f9Wdl6en,3ka7ijsnx9iy5qpdnesn7gsg38gpb3,3lrkmwokb9u0i1phiw2gm5nh2mzz2z,f9Wdl6en,2020-0188,2020-05-07,19:23:39,19:45:49,NA,incomplete,159,number,0,right,Purple_Circle_Stripes_1.jpg,Purple_Star_Chess_4.jpg,Blue_Plus_Grid_1.jpg,right,809.8200000240467,true,low,false
f9Wdl6en,3ka7ijsnx9iy5qpdnesn7gsg38gpb3,3lrkmwokb9u0i1phiw2gm5nh2mzz2z,f9Wdl6en,2020-0188,2020-05-07,19:23:39,19:45:49,NA,incomplete,160,color,1,right,Purple_Star_Dots_4.jpg,Blue_Circle_Stripes_4.jpg,Purple_Triangle_Chess_2.jpg,left,653.8650000002235,false,low,false
f9Wdl6en,3ka7ijsnx9iy5qpdnesn7gsg38gpb3,3lrkmwokb9u0i1phiw2gm5nh2mzz2z,f9Wdl6en,2020-0188,2020-05-07,19:23:39,19:45:49,NA,incomplete,161,color,1,right,Red_Triangle_Grid_4.jpg,Purple_Circle_Stripes_4.jpg,Red_Star_Dots_3.jpg,left,726.8499999772757,false,low,false
f9Wdl6en,3ka7ijsnx9iy5qpdnesn7gsg38gpb3,3lrkmwokb9u0i1phiw2gm5nh2mzz2z,f9Wdl6en,2020-0188,2020-05-07,19:23:39,19:45:49,NA,incomplete,162,color,1,right,Purple_Circle_Chess_4.jpg,Blue_Triangle_Dots_4.jpg,Purple_Plus_Stripes_2.jpg,right,670.8299999590963,true,low,false
f9Wdl6en,3ka7ijsnx9iy5qpdnesn7gsg38gpb3,3lrkmwokb9u0i1phiw2gm5nh2mzz2z,f9Wdl6en,2020-0188,2020-05-07,19:23:39,19:45:49,NA,incomplete,163,color,1,right,Red_Triangle_Dots_2.jpg,Purple_Star_Stripes_2.jpg,Red_Plus_Grid_4.jpg,right,531.0450000106357,true,low,false
f9Wdl6en,3ka7ijsnx9iy5qpdnesn7gsg38gpb3,3lrkmwokb9u0i1phiw2gm5nh2mzz2z,f9Wdl6en,2020-0188,2020-05-07,19:23:39,19:45:49,NA,incomplete,164,color,1,left,Red_Star_Grid_3.jpg,Red_Plus_Chess_4.jpg,Purple_Triangle_Stripes_3.jpg,left,508.2500000135042,true,low,false
f9Wdl6en,3ka7ijsnx9iy5qpdnesn7gsg38gpb3,3lrkmwokb9u0i1phiw2gm5nh2mzz2z,f9Wdl6en,2020-0188,2020-05-07,19:23:39,19:45:49,NA,incomplete,165,color,1,right,Purple_Triangle_Stripes_2.jpg,Blue_Circle_Dots_2.jpg,Purple_Plus_Grid_4.jpg,right,571.494999981951,true,low,false
f9Wdl6en,3ka7ijsnx9iy5qpdnesn7gsg38gpb3,3lrkmwokb9u0i1phiw2gm5nh2mzz2z,f9Wdl6en,2020-0188,2020-05-07,19:23:39,19:45:49,NA,incomplete,166,color,0,left,Blue_Circle_Dots_2.jpg,Blue_Star_Stripes_4.jpg,Purple_Triangle_Chess_2.jpg,left,461.4799999981187,true,low,false
f9Wdl6en,3ka7ijsnx9iy5qpdnesn7gsg38gpb3,3lrkmwokb9u0i1phiw2gm5nh2mzz2z,f9Wdl6en,2020-0188,2020-05-07,19:23:39,19:45:49,NA,incomplete,167,color,1,right,Red_Triangle_Dots_1.jpg,Purple_Plus_Chess_1.jpg,Red_Circle_Grid_4.jpg,right,420.49000004772097,true,low,false
f9Wdl6en,3ka7ijsnx9iy5qpdnesn7gsg38gpb3,3lrkmwokb9u0i1phiw2gm5nh2mzz2z,f9Wdl6en,2020-0188,2020-05-07,19:23:39,19:45:49,NA,incomplete,168,color,0,right,Green_Triangle_Dots_1.jpg,Red_Circle_Stripes_1.jpg,Green_Star_Grid_3.jpg,right,517.8750000195578,true,low,false
f9Wdl6en,3ka7ijsnx9iy5qpdnesn7gsg38gpb3,3lrkmwokb9u0i1phiw2gm5nh2mzz2z,f9Wdl6en,2020-0188,2020-05-07,19:23:39,19:45:49,NA,incomplete,169,color,1,right,Red_Circle_Stripes_1.jpg,Green_Star_Chess_1.jpg,Red_Plus_Dots_4.jpg,right,507.1900000330061,true,low,false
f9Wdl6en,3ka7ijsnx9iy5qpdnesn7gsg38gpb3,3lrkmwokb9u0i1phiw2gm5nh2mzz2z,f9Wdl6en,2020-0188,2020-05-07,19:23:39,19:45:49,NA,incomplete,170,color,0,right,Red_Star_Stripes_4.jpg,Blue_Plus_Dots_4.jpg,Red_Circle_Grid_3.jpg,right,443.48999997600913,true,low,false
f9Wdl6en,3ka7ijsnx9iy5qpdnesn7gsg38gpb3,3lrkmwokb9u0i1phiw2gm5nh2mzz2z,f9Wdl6en,2020-0188,2020-05-07,19:23:39,19:45:49,NA,incomplete,171,color,1,right,Blue_Star_Chess_3.jpg,Red_Triangle_Stripes_3.jpg,Blue_Circle_Dots_1.jpg,right,522.5700000301003,true,low,false
f9Wdl6en,3ka7ijsnx9iy5qpdnesn7gsg38gpb3,3lrkmwokb9u0i1phiw2gm5nh2mzz2z,f9Wdl6en,2020-0188,2020-05-07,19:23:39,19:45:49,NA,incomplete,172,color,1,right,Blue_Triangle_Dots_2.jpg,Purple_Plus_Stripes_2.jpg,Blue_Star_Chess_1.jpg,right,466.41499997349456,true,low,false
f9Wdl6en,3ka7ijsnx9iy5qpdnesn7gsg38gpb3,3lrkmwokb9u0i1phiw2gm5nh2mzz2z,f9Wdl6en,2020-0188,2020-05-07,19:23:39,19:45:49,NA,incomplete,173,color,0,left,Green_Triangle_Stripes_3.jpg,Green_Plus_Chess_1.jpg,Blue_Circle_Grid_3.jpg,left,627.4349999730475,true,low,false
f9Wdl6en,3ka7ijsnx9iy5qpdnesn7gsg38gpb3,3lrkmwokb9u0i1phiw2gm5nh2mzz2z,f9Wdl6en,2020-0188,2020-05-07,19:23:39,19:45:49,NA,incomplete,174,color,1,left,Green_Star_Dots_1.jpg,Green_Triangle_Stripes_4.jpg,Red_Plus_Chess_1.jpg,left,446.1350000347011,true,low,false
f9Wdl6en,3ka7ijsnx9iy5qpdnesn7gsg38gpb3,3lrkmwokb9u0i1phiw2gm5nh2mzz2z,f9Wdl6en,2020-0188,2020-05-07,19:23:39,19:45:49,NA,incomplete,175,color,1,right,Red_Circle_Chess_3.jpg,Purple_Star_Dots_3.jpg,Red_Plus_Stripes_4.jpg,right,462.4700000276789,true,low,false
f9Wdl6en,3ka7ijsnx9iy5qpdnesn7gsg38gpb3,3lrkmwokb9u0i1phiw2gm5nh2mzz2z,f9Wdl6en,2020-0188,2020-05-07,19:23:39,19:45:49,NA,incomplete,176,color,1,left,Red_Triangle_Stripes_1.jpg,Red_Plus_Grid_4.jpg,Green_Circle_Chess_1.jpg,left,464.9449999560602,true,low,false
f9Wdl6en,3ka7ijsnx9iy5qpdnesn7gsg38gpb3,3lrkmwokb9u0i1phiw2gm5nh2mzz2z,f9Wdl6en,2020-0188,2020-05-07,19:23:39,19:45:49,NA,incomplete,177,color,1,left,Blue_Plus_Grid_3.jpg,Blue_Circle_Chess_4.jpg,Red_Star_Stripes_3.jpg,left,571.0950000211596,true,low,false
f9Wdl6en,3ka7ijsnx9iy5qpdnesn7gsg38gpb3,3lrkmwokb9u0i1phiw2gm5nh2mzz2z,f9Wdl6en,2020-0188,2020-05-07,19:23:39,19:45:49,NA,incomplete,178,color,1,left,Red_Plus_Stripes_2.jpg,Red_Star_Dots_1.jpg,Green_Triangle_Grid_2.jpg,left,572.954999981448,true,low,false
f9Wdl6en,3ka7ijsnx9iy5qpdnesn7gsg38gpb3,3lrkmwokb9u0i1phiw2gm5nh2mzz2z,f9Wdl6en,2020-0188,2020-05-07,19:23:39,19:45:49,NA,incomplete,179,color,1,right,Red_Plus_Grid_2.jpg,Green_Triangle_Stripes_2.jpg,Red_Star_Chess_4.jpg,right,616.9149999623187,true,low,false
f9Wdl6en,3ka7ijsnx9iy5qpdnesn7gsg38gpb3,3lrkmwokb9u0i1phiw2gm5nh2mzz2z,f9Wdl6en,2020-0188,2020-05-07,19:23:39,19:45:49,NA,incomplete,180,number,1,right,Green_Circle_Chess_4.jpg,Green_Triangle_Grid_2.jpg,Blue_Plus_Dots_4.jpg,left,510.24999999208376,false,low,false
f9Wdl6en,3ka7ijsnx9iy5qpdnesn7gsg38gpb3,3lrkmwokb9u0i1phiw2gm5nh2mzz2z,f9Wdl6en,2020-0188,2020-05-07,19:23:39,19:45:49,NA,incomplete,181,number,1,left,Green_Circle_Stripes_3.jpg,Blue_Plus_Chess_3.jpg,Green_Star_Dots_2.jpg,right,523.2199999736622,false,low,false
f9Wdl6en,3ka7ijsnx9iy5qpdnesn7gsg38gpb3,3lrkmwokb9u0i1phiw2gm5nh2mzz2z,f9Wdl6en,2020-0188,2020-05-07,19:23:39,19:45:49,NA,incomplete,182,number,1,left,Blue_Star_Dots_4.jpg,Green_Plus_Grid_4.jpg,Blue_Circle_Chess_3.jpg,left,839.8850000230595,true,low,false
f9Wdl6en,3ka7ijsnx9iy5qpdnesn7gsg38gpb3,3lrkmwokb9u0i1phiw2gm5nh2mzz2z,f9Wdl6en,2020-0188,2020-05-07,19:23:39,19:45:49,NA,incomplete,183,number,1,left,Blue_Star_Stripes_2.jpg,Green_Plus_Chess_2.jpg,Blue_Circle_Dots_3.jpg,left,669.9849999858998,true,low,false
f9Wdl6en,3ka7ijsnx9iy5qpdnesn7gsg38gpb3,3lrkmwokb9u0i1phiw2gm5nh2mzz2z,f9Wdl6en,2020-0188,2020-05-07,19:23:39,19:45:49,NA,incomplete,184,number,0,right,Purple_Star_Stripes_3.jpg,Purple_Triangle_Chess_2.jpg,Green_Circle_Grid_3.jpg,right,638.6800000327639,true,low,false
f9Wdl6en,3ka7ijsnx9iy5qpdnesn7gsg38gpb3,3lrkmwokb9u0i1phiw2gm5nh2mzz2z,f9Wdl6en,2020-0188,2020-05-07,19:23:39,19:45:49,NA,incomplete,185,number,1,left,Blue_Plus_Stripes_1.jpg,Green_Circle_Dots_1.jpg,Blue_Triangle_Chess_4.jpg,left,497.0350000075996,true,low,false
f9Wdl6en,3ka7ijsnx9iy5qpdnesn7gsg38gpb3,3lrkmwokb9u0i1phiw2gm5nh2mzz2z,f9Wdl6en,2020-0188,2020-05-07,19:23:39,19:45:49,NA,incomplete,186,number,1,left,Green_Plus_Dots_4.jpg,Red_Circle_Chess_4.jpg,Green_Star_Grid_2.jpg,left,793.2699999655597,true,low,false
f9Wdl6en,3ka7ijsnx9iy5qpdnesn7gsg38gpb3,3lrkmwokb9u0i1phiw2gm5nh2mzz2z,f9Wdl6en,2020-0188,2020-05-07,19:23:39,19:45:49,NA,incomplete,187,number,0,right,Green_Plus_Dots_4.jpg,Green_Circle_Chess_1.jpg,Red_Triangle_Grid_4.jpg,right,580.7800000184216,true,low,false
f9Wdl6en,3ka7ijsnx9iy5qpdnesn7gsg38gpb3,3lrkmwokb9u0i1phiw2gm5nh2mzz2z,f9Wdl6en,2020-0188,2020-05-07,19:23:39,19:45:49,NA,incomplete,188,number,1,right,Green_Triangle_Grid_4.jpg,Green_Star_Stripes_2.jpg,Blue_Circle_Dots_4.jpg,right,686.8049999466166,true,low,false
f9Wdl6en,3ka7ijsnx9iy5qpdnesn7gsg38gpb3,3lrkmwokb9u0i1phiw2gm5nh2mzz2z,f9Wdl6en,2020-0188,2020-05-07,19:23:39,19:45:49,NA,incomplete,189,number,1,left,Purple_Triangle_Chess_3.jpg,Blue_Star_Dots_3.jpg,Purple_Plus_Stripes_4.jpg,left,615.7249999814667,true,low,false
f9Wdl6en,3ka7ijsnx9iy5qpdnesn7gsg38gpb3,3lrkmwokb9u0i1phiw2gm5nh2mzz2z,f9Wdl6en,2020-0188,2020-05-07,19:23:39,19:45:49,NA,incomplete,190,number,1,right,Purple_Star_Stripes_1.jpg,Purple_Circle_Dots_3.jpg,Green_Triangle_Grid_1.jpg,right,582.6850000303239,true,low,false
f9Wdl6en,3ka7ijsnx9iy5qpdnesn7gsg38gpb3,3lrkmwokb9u0i1phiw2gm5nh2mzz2z,f9Wdl6en,2020-0188,2020-05-07,19:23:39,19:45:49,NA,incomplete,191,number,1,left,Red_Triangle_Chess_1.jpg,Blue_Star_Grid_1.jpg,Red_Plus_Dots_2.jpg,left,585.0699999718927,true,low,false
f9Wdl6en,3ka7ijsnx9iy5qpdnesn7gsg38gpb3,3lrkmwokb9u0i1phiw2gm5nh2mzz2z,f9Wdl6en,2020-0188,2020-05-07,19:23:39,19:45:49,NA,incomplete,192,number,1,left,Green_Plus_Stripes_2.jpg,Blue_Triangle_Dots_2.jpg,Green_Star_Grid_4.jpg,left,549.8599999700673,true,low,false
f9Wdl6en,3ka7ijsnx9iy5qpdnesn7gsg38gpb3,3lrkmwokb9u0i1phiw2gm5nh2mzz2z,f9Wdl6en,2020-0188,2020-05-07,19:23:39,19:45:49,NA,incomplete,193,number,0,left,Green_Star_Stripes_2.jpg,Red_Plus_Chess_2.jpg,Green_Triangle_Grid_4.jpg,left,541.8700000154786,true,low,false
f9Wdl6en,3ka7ijsnx9iy5qpdnesn7gsg38gpb3,3lrkmwokb9u0i1phiw2gm5nh2mzz2z,f9Wdl6en,2020-0188,2020-05-07,19:23:39,19:45:49,NA,incomplete,194,number,1,right,Green_Plus_Dots_4.jpg,Green_Circle_Grid_2.jpg,Purple_Triangle_Stripes_4.jpg,right,738.7200000230223,true,low,false
f9Wdl6en,3ka7ijsnx9iy5qpdnesn7gsg38gpb3,3lrkmwokb9u0i1phiw2gm5nh2mzz2z,f9Wdl6en,2020-0188,2020-05-07,19:23:39,19:45:49,NA,incomplete,195,number,1,right,Blue_Triangle_Grid_1.jpg,Blue_Circle_Dots_2.jpg,Green_Plus_Chess_1.jpg,right,724.1200000280514,true,low,false
f9Wdl6en,3ka7ijsnx9iy5qpdnesn7gsg38gpb3,3lrkmwokb9u0i1phiw2gm5nh2mzz2z,f9Wdl6en,2020-0188,2020-05-07,19:23:39,19:45:49,NA,incomplete,196,number,1,right,Blue_Star_Chess_2.jpg,Blue_Plus_Stripes_1.jpg,Purple_Triangle_Dots_2.jpg,right,584.3100000056438,true,low,false
f9Wdl6en,3ka7ijsnx9iy5qpdnesn7gsg38gpb3,3lrkmwokb9u0i1phiw2gm5nh2mzz2z,f9Wdl6en,2020-0188,2020-05-07,19:23:39,19:45:49,NA,incomplete,197,number,1,right,Red_Star_Dots_3.jpg,Red_Circle_Grid_1.jpg,Purple_Triangle_Stripes_3.jpg,right,530.6099999579601,true,low,false
f9Wdl6en,3ka7ijsnx9iy5qpdnesn7gsg38gpb3,3lrkmwokb9u0i1phiw2gm5nh2mzz2z,f9Wdl6en,2020-0188,2020-05-07,19:23:39,19:45:49,NA,incomplete,198,number,1,right,Purple_Plus_Chess_3.jpg,Purple_Circle_Stripes_2.jpg,Red_Triangle_Grid_3.jpg,right,527.0149999996647,true,low,false
f9Wdl6en,3ka7ijsnx9iy5qpdnesn7gsg38gpb3,3lrkmwokb9u0i1phiw2gm5nh2mzz2z,f9Wdl6en,2020-0188,2020-05-07,19:23:39,19:45:49,NA,incomplete,199,number,1,right,Green_Star_Chess_3.jpg,Green_Plus_Dots_4.jpg,Purple_Triangle_Stripes_3.jpg,right,594.2750000394881,true,low,false
f9Wdl6en,3ka7ijsnx9iy5qpdnesn7gsg38gpb3,3lrkmwokb9u0i1phiw2gm5nh2mzz2z,f9Wdl6en,2020-0188,2020-05-07,19:23:39,19:45:49,NA,incomplete,200,color,1,left,Red_Triangle_Stripes_2.jpg,Red_Circle_Grid_1.jpg,Purple_Plus_Dots_2.jpg,right,607.6750000356697,false,low,false
f9Wdl6en,3ka7ijsnx9iy5qpdnesn7gsg38gpb3,3lrkmwokb9u0i1phiw2gm5nh2mzz2z,f9Wdl6en,2020-0188,2020-05-07,19:23:39,19:45:49,NA,incomplete,201,color,1,right,Purple_Triangle_Grid_1.jpg,Red_Circle_Dots_1.jpg,Purple_Plus_Stripes_2.jpg,left,627.1950000082143,false,low,false
f9Wdl6en,3ka7ijsnx9iy5qpdnesn7gsg38gpb3,3lrkmwokb9u0i1phiw2gm5nh2mzz2z,f9Wdl6en,2020-0188,2020-05-07,19:23:39,19:45:49,NA,incomplete,202,color,1,right,Green_Triangle_Chess_1.jpg,Purple_Plus_Stripes_1.jpg,Green_Star_Grid_2.jpg,right,562.2250000014901,true,low,false
f9Wdl6en,3ka7ijsnx9iy5qpdnesn7gsg38gpb3,3lrkmwokb9u0i1phiw2gm5nh2mzz2z,f9Wdl6en,2020-0188,2020-05-07,19:23:39,19:45:49,NA,incomplete,203,color,1,left,Purple_Star_Stripes_4.jpg,Purple_Plus_Chess_2.jpg,Red_Circle_Dots_4.jpg,left,775.2000000327826,true,low,false
f9Wdl6en,3ka7ijsnx9iy5qpdnesn7gsg38gpb3,3lrkmwokb9u0i1phiw2gm5nh2mzz2z,f9Wdl6en,2020-0188,2020-05-07,19:23:39,19:45:49,NA,incomplete,204,color,1,left,Green_Star_Dots_4.jpg,Green_Circle_Stripes_2.jpg,Red_Plus_Grid_4.jpg,left,536.0450000152923,true,low,false
f9Wdl6en,3ka7ijsnx9iy5qpdnesn7gsg38gpb3,3lrkmwokb9u0i1phiw2gm5nh2mzz2z,f9Wdl6en,2020-0188,2020-05-07,19:23:39,19:45:49,NA,incomplete,205,color,0,right,Purple_Star_Dots_4.jpg,Green_Triangle_Chess_4.jpg,Purple_Circle_Stripes_2.jpg,right,539.3550000153482,true,low,false
f9Wdl6en,3ka7ijsnx9iy5qpdnesn7gsg38gpb3,3lrkmwokb9u0i1phiw2gm5nh2mzz2z,f9Wdl6en,2020-0188,2020-05-07,19:23:39,19:45:49,NA,incomplete,206,color,1,right,Purple_Circle_Stripes_4.jpg,Blue_Plus_Chess_4.jpg,Purple_Triangle_Dots_3.jpg,right,399.68500001123175,true,low,false
f9Wdl6en,3ka7ijsnx9iy5qpdnesn7gsg38gpb3,3lrkmwokb9u0i1phiw2gm5nh2mzz2z,f9Wdl6en,2020-0188,2020-05-07,19:23:39,19:45:49,NA,incomplete,207,color,1,left,Blue_Circle_Dots_4.jpg,Blue_Plus_Chess_3.jpg,Purple_Star_Stripes_4.jpg,left,428.1699999701232,true,low,false
f9Wdl6en,3ka7ijsnx9iy5qpdnesn7gsg38gpb3,3lrkmwokb9u0i1phiw2gm5nh2mzz2z,f9Wdl6en,2020-0188,2020-05-07,19:23:39,19:45:49,NA,incomplete,208,color,1,left,Red_Triangle_Stripes_4.jpg,Red_Circle_Dots_2.jpg,Purple_Plus_Chess_4.jpg,left,504.58000000799075,true,low,false
f9Wdl6en,3ka7ijsnx9iy5qpdnesn7gsg38gpb3,3lrkmwokb9u0i1phiw2gm5nh2mzz2z,f9Wdl6en,2020-0188,2020-05-07,19:23:39,19:45:49,NA,incomplete,209,color,0,right,Red_Circle_Grid_1.jpg,Green_Star_Chess_1.jpg,Red_Plus_Dots_3.jpg,right,435.2350000408478,true,low,false
f9Wdl6en,3ka7ijsnx9iy5qpdnesn7gsg38gpb3,3lrkmwokb9u0i1phiw2gm5nh2mzz2z,f9Wdl6en,2020-0188,2020-05-07,19:23:39,19:45:49,NA,incomplete,210,color,1,right,Purple_Plus_Dots_4.jpg,Blue_Circle_Grid_4.jpg,Purple_Triangle_Chess_3.jpg,right,395.2300000237301,true,low,false
f9Wdl6en,3ka7ijsnx9iy5qpdnesn7gsg38gpb3,3lrkmwokb9u0i1phiw2gm5nh2mzz2z,f9Wdl6en,2020-0188,2020-05-07,19:23:39,19:45:49,NA,incomplete,211,color,1,left,Blue_Triangle_Chess_3.jpg,Blue_Plus_Grid_2.jpg,Red_Star_Stripes_3.jpg,left,483.8999999919906,true,low,false
f9Wdl6en,3ka7ijsnx9iy5qpdnesn7gsg38gpb3,3lrkmwokb9u0i1phiw2gm5nh2mzz2z,f9Wdl6en,2020-0188,2020-05-07,19:23:39,19:45:49,NA,incomplete,212,color,0,left,Green_Circle_Dots_3.jpg,Green_Triangle_Chess_1.jpg,Purple_Star_Grid_3.jpg,left,568.5249999514781,true,low,false
f9Wdl6en,3ka7ijsnx9iy5qpdnesn7gsg38gpb3,3lrkmwokb9u0i1phiw2gm5nh2mzz2z,f9Wdl6en,2020-0188,2020-05-07,19:23:39,19:45:49,NA,incomplete,213,color,1,right,Blue_Star_Grid_3.jpg,Red_Triangle_Stripes_3.jpg,Blue_Plus_Chess_2.jpg,right,406.16499999305233,true,low,false
f9Wdl6en,3ka7ijsnx9iy5qpdnesn7gsg38gpb3,3lrkmwokb9u0i1phiw2gm5nh2mzz2z,f9Wdl6en,2020-0188,2020-05-07,19:23:39,19:45:49,NA,incomplete,214,color,1,right,Red_Plus_Stripes_2.jpg,Blue_Triangle_Grid_2.jpg,Red_Star_Chess_1.jpg,right,449.91500000469387,true,low,false
f9Wdl6en,3ka7ijsnx9iy5qpdnesn7gsg38gpb3,3lrkmwokb9u0i1phiw2gm5nh2mzz2z,f9Wdl6en,2020-0188,2020-05-07,19:23:39,19:45:49,NA,incomplete,215,color,1,right,Red_Circle_Chess_2.jpg,Purple_Plus_Stripes_2.jpg,Red_Star_Grid_4.jpg,right,435.29499997384846,true,low,false
f9Wdl6en,3ka7ijsnx9iy5qpdnesn7gsg38gpb3,3lrkmwokb9u0i1phiw2gm5nh2mzz2z,f9Wdl6en,2020-0188,2020-05-07,19:23:39,19:45:49,NA,incomplete,216,color,1,right,Purple_Plus_Stripes_3.jpg,Blue_Star_Grid_3.jpg,Purple_Triangle_Dots_4.jpg,right,450.8999999961816,true,low,false
f9Wdl6en,3ka7ijsnx9iy5qpdnesn7gsg38gpb3,3lrkmwokb9u0i1phiw2gm5nh2mzz2z,f9Wdl6en,2020-0188,2020-05-07,19:23:39,19:45:49,NA,incomplete,217,color,1,right,Purple_Star_Chess_4.jpg,Green_Triangle_Stripes_4.jpg,Purple_Circle_Dots_3.jpg,right,480.2750000380911,true,low,false
f9Wdl6en,3ka7ijsnx9iy5qpdnesn7gsg38gpb3,3lrkmwokb9u0i1phiw2gm5nh2mzz2z,f9Wdl6en,2020-0188,2020-05-07,19:23:39,19:45:49,NA,incomplete,218,color,0,right,Blue_Star_Stripes_2.jpg,Purple_Circle_Dots_2.jpg,Blue_Triangle_Grid_4.jpg,right,407.22499997355044,true,low,false
f9Wdl6en,3ka7ijsnx9iy5qpdnesn7gsg38gpb3,3lrkmwokb9u0i1phiw2gm5nh2mzz2z,f9Wdl6en,2020-0188,2020-05-07,19:23:39,19:45:49,NA,incomplete,219,color,1,right,Purple_Triangle_Dots_3.jpg,Red_Plus_Chess_3.jpg,Purple_Star_Grid_1.jpg,right,551.2199999648146,true,low,false
f9Wdl6en,3ka7ijsnx9iy5qpdnesn7gsg38gpb3,3lrkmwokb9u0i1phiw2gm5nh2mzz2z,f9Wdl6en,2020-0188,2020-05-07,19:23:39,19:45:49,NA,incomplete,220,number,1,right,Purple_Star_Stripes_2.jpg,Purple_Circle_Grid_4.jpg,Green_Triangle_Chess_2.jpg,right,671.7899999930523,true,low,false
f9Wdl6en,3ka7ijsnx9iy5qpdnesn7gsg38gpb3,3lrkmwokb9u0i1phiw2gm5nh2mzz2z,f9Wdl6en,2020-0188,2020-05-07,19:23:39,19:45:49,NA,incomplete,221,number,1,right,Green_Circle_Grid_2.jpg,Green_Plus_Stripes_3.jpg,Blue_Triangle_Dots_2.jpg,left,552.7900000452064,false,low,false
f9Wdl6en,3ka7ijsnx9iy5qpdnesn7gsg38gpb3,3lrkmwokb9u0i1phiw2gm5nh2mzz2z,f9Wdl6en,2020-0188,2020-05-07,19:23:39,19:45:49,NA,incomplete,222,number,1,right,Red_Plus_Chess_4.jpg,Red_Circle_Dots_2.jpg,Green_Triangle_Stripes_4.jpg,left,656.9800000288524,false,low,false
f9Wdl6en,3ka7ijsnx9iy5qpdnesn7gsg38gpb3,3lrkmwokb9u0i1phiw2gm5nh2mzz2z,f9Wdl6en,2020-0188,2020-05-07,19:23:39,19:45:49,NA,incomplete,223,number,1,left,Red_Star_Chess_2.jpg,Green_Plus_Grid_2.jpg,Red_Circle_Stripes_3.jpg,right,800.9599999641068,false,low,false
f9Wdl6en,3ka7ijsnx9iy5qpdnesn7gsg38gpb3,3lrkmwokb9u0i1phiw2gm5nh2mzz2z,f9Wdl6en,2020-0188,2020-05-07,19:23:39,19:45:49,NA,incomplete,224,number,1,left,Green_Star_Chess_4.jpg,Purple_Plus_Stripes_4.jpg,Green_Triangle_Dots_3.jpg,left,691.2049999809824,true,low,false
f9Wdl6en,3ka7ijsnx9iy5qpdnesn7gsg38gpb3,3lrkmwokb9u0i1phiw2gm5nh2mzz2z,f9Wdl6en,2020-0188,2020-05-07,19:23:39,19:45:49,NA,incomplete,225,number,1,left,Red_Circle_Stripes_3.jpg,Blue_Star_Grid_3.jpg,Red_Triangle_Dots_1.jpg,left,648.0999999912456,true,low,false
f9Wdl6en,3ka7ijsnx9iy5qpdnesn7gsg38gpb3,3lrkmwokb9u0i1phiw2gm5nh2mzz2z,f9Wdl6en,2020-0188,2020-05-07,19:23:39,19:45:49,NA,incomplete,226,number,1,right,Red_Circle_Grid_3.jpg,Red_Star_Dots_4.jpg,Blue_Triangle_Chess_3.jpg,left,600.1350000151433,false,low,false
f9Wdl6en,3ka7ijsnx9iy5qpdnesn7gsg38gpb3,3lrkmwokb9u0i1phiw2gm5nh2mzz2z,f9Wdl6en,2020-0188,2020-05-07,19:23:39,19:45:49,NA,incomplete,227,number,1,right,Red_Star_Grid_4.jpg,Red_Triangle_Chess_3.jpg,Green_Plus_Stripes_4.jpg,right,561.5199999883771,true,low,false
f9Wdl6en,3ka7ijsnx9iy5qpdnesn7gsg38gpb3,3lrkmwokb9u0i1phiw2gm5nh2mzz2z,f9Wdl6en,2020-0188,2020-05-07,19:23:39,19:45:49,NA,incomplete,228,number,0,right,Purple_Star_Chess_2.jpg,Purple_Triangle_Dots_3.jpg,Blue_Circle_Grid_2.jpg,right,544.0599999856204,true,low,false
f9Wdl6en,3ka7ijsnx9iy5qpdnesn7gsg38gpb3,3lrkmwokb9u0i1phiw2gm5nh2mzz2z,f9Wdl6en,2020-0188,2020-05-07,19:23:39,19:45:49,NA,incomplete,229,number,1,left,Blue_Circle_Dots_4.jpg,Green_Plus_Chess_4.jpg,Blue_Triangle_Grid_3.jpg,left,594.1599999787286,true,low,false
f9Wdl6en,3ka7ijsnx9iy5qpdnesn7gsg38gpb3,3lrkmwokb9u0i1phiw2gm5nh2mzz2z,f9Wdl6en,2020-0188,2020-05-07,19:23:39,19:45:49,NA,incomplete,230,number,1,left,Green_Plus_Stripes_1.jpg,Blue_Triangle_Chess_1.jpg,Green_Circle_Dots_4.jpg,left,559.2500000493601,true,low,false
f9Wdl6en,3ka7ijsnx9iy5qpdnesn7gsg38gpb3,3lrkmwokb9u0i1phiw2gm5nh2mzz2z,f9Wdl6en,2020-0188,2020-05-07,19:23:39,19:45:49,NA,incomplete,231,number,1,right,Green_Star_Dots_3.jpg,Green_Circle_Stripes_4.jpg,Purple_Plus_Chess_3.jpg,right,558.6599999805912,true,low,false
f9Wdl6en,3ka7ijsnx9iy5qpdnesn7gsg38gpb3,3lrkmwokb9u0i1phiw2gm5nh2mzz2z,f9Wdl6en,2020-0188,2020-05-07,19:23:39,19:45:49,NA,incomplete,232,number,1,left,Purple_Star_Dots_1.jpg,Blue_Circle_Chess_1.jpg,Purple_Plus_Grid_3.jpg,left,548.5900000203401,true,low,false
f9Wdl6en,3ka7ijsnx9iy5qpdnesn7gsg38gpb3,3lrkmwokb9u0i1phiw2gm5nh2mzz2z,f9Wdl6en,2020-0188,2020-05-07,19:23:39,19:45:49,NA,incomplete,233,number,0,right,Purple_Plus_Dots_4.jpg,Purple_Triangle_Grid_1.jpg,Blue_Circle_Stripes_4.jpg,right,565.8800000092015,true,low,false
f9Wdl6en,3ka7ijsnx9iy5qpdnesn7gsg38gpb3,3lrkmwokb9u0i1phiw2gm5nh2mzz2z,f9Wdl6en,2020-0188,2020-05-07,19:23:39,19:45:49,NA,incomplete,234,number,1,right,Red_Circle_Dots_4.jpg,Red_Triangle_Grid_3.jpg,Blue_Plus_Chess_4.jpg,right,716.1750000086613,true,low,false
f9Wdl6en,3ka7ijsnx9iy5qpdnesn7gsg38gpb3,3lrkmwokb9u0i1phiw2gm5nh2mzz2z,f9Wdl6en,2020-0188,2020-05-07,19:23:39,19:45:49,NA,incomplete,235,number,0,left,Green_Star_Grid_4.jpg,Purple_Plus_Dots_4.jpg,Green_Circle_Chess_2.jpg,left,606.0599999618717,true,low,false
f9Wdl6en,3ka7ijsnx9iy5qpdnesn7gsg38gpb3,3lrkmwokb9u0i1phiw2gm5nh2mzz2z,f9Wdl6en,2020-0188,2020-05-07,19:23:39,19:45:49,NA,incomplete,236,number,1,left,Red_Plus_Dots_2.jpg,Purple_Circle_Chess_2.jpg,Red_Triangle_Grid_4.jpg,left,820.4050000058487,true,low,false
f9Wdl6en,3ka7ijsnx9iy5qpdnesn7gsg38gpb3,3lrkmwokb9u0i1phiw2gm5nh2mzz2z,f9Wdl6en,2020-0188,2020-05-07,19:23:39,19:45:49,NA,incomplete,237,number,0,left,Purple_Plus_Grid_4.jpg,Blue_Circle_Chess_4.jpg,Purple_Star_Dots_2.jpg,right,984.4199999934062,false,low,false
f9Wdl6en,3ka7ijsnx9iy5qpdnesn7gsg38gpb3,3lrkmwokb9u0i1phiw2gm5nh2mzz2z,f9Wdl6en,2020-0188,2020-05-07,19:23:39,19:45:49,NA,incomplete,238,number,1,left,Red_Triangle_Chess_1.jpg,Blue_Plus_Stripes_1.jpg,Red_Circle_Dots_3.jpg,right,847.940000006929,false,low,false
f9Wdl6en,3ka7ijsnx9iy5qpdnesn7gsg38gpb3,3lrkmwokb9u0i1phiw2gm5nh2mzz2z,f9Wdl6en,2020-0188,2020-05-07,19:23:39,19:45:49,NA,incomplete,239,number,1,right,Red_Plus_Grid_2.jpg,Red_Triangle_Dots_4.jpg,Blue_Circle_Stripes_2.jpg,right,797.2500000032596,true,low,false
f9Wdl6en,3ka7ijsnx9iy5qpdnesn7gsg38gpb3,3lrkmwokb9u0i1phiw2gm5nh2mzz2z,f9Wdl6en,2020-0188,2020-05-07,19:23:39,19:45:49,1266694.684999995,1330309.889999975,NA,NA,NA,NA,NA,NA,NA,NA,NA,NA,NA,undefined
