workerId,hitId,assignmentId,subject,studyid,exp_date,exp_start,exp_end,time_start,time_end,trial,type,reward_validity,answer,image_top,image_left,image_right,response,response_time,response_acc,volatility,age,race,gender,ethnicity,color,vision,neuro,practice
5Vle0SuJ,3hy86pzxq1vtv1ivc3jn7sg3anve1z,3luy3gc633ddqykh1zl9ry2c35zp7b,5Vle0SuJ,2020-0188,2020-11-14,20:05:17,20:24:31,NA,incomplete,0,filling,0,left,Red_Triangle_Dots_2.jpg,Green_Circle_Dots_1.jpg,Red_Star_Stripes_3.jpg,right,938.7449999921955,false,NA,NA,NA,NA,NA,NA,NA,NA,true
5Vle0SuJ,3hy86pzxq1vtv1ivc3jn7sg3anve1z,3luy3gc633ddqykh1zl9ry2c35zp7b,5Vle0SuJ,2020-0188,2020-11-14,20:05:17,20:24:31,NA,incomplete,1,filling,1,right,Red_Circle_Grid_3.jpg,Red_Star_Chess_1.jpg,Green_Triangle_Grid_2.jpg,none,0,false,NA,NA,NA,NA,NA,NA,NA,NA,true
5Vle0SuJ,3hy86pzxq1vtv1ivc3jn7sg3anve1z,3luy3gc633ddqykh1zl9ry2c35zp7b,5Vle0SuJ,2020-0188,2020-11-14,20:05:17,20:24:31,NA,incomplete,2,filling,1,left,Blue_Star_Chess_1.jpg,Green_Circle_Chess_2.jpg,Blue_Triangle_Grid_4.jpg,right,1865.1750000135507,false,NA,NA,NA,NA,NA,NA,NA,NA,true
5Vle0SuJ,3hy86pzxq1vtv1ivc3jn7sg3anve1z,3luy3gc633ddqykh1zl9ry2c35zp7b,5Vle0SuJ,2020-0188,2020-11-14,20:05:17,20:24:31,NA,incomplete,3,filling,1,left,Green_Plus_Stripes_4.jpg,Blue_Circle_Stripes_2.jpg,Green_Star_Chess_1.jpg,left,1383.8899999973364,true,NA,NA,NA,NA,NA,NA,NA,NA,true
5Vle0SuJ,3hy86pzxq1vtv1ivc3jn7sg3anve1z,3luy3gc633ddqykh1zl9ry2c35zp7b,5Vle0SuJ,2020-0188,2020-11-14,20:05:17,20:24:31,NA,incomplete,4,filling,1,left,Blue_Star_Chess_1.jpg,Red_Triangle_Chess_2.jpg,Blue_Circle_Stripes_4.jpg,left,1096.079999988433,true,NA,NA,NA,NA,NA,NA,NA,NA,true
5Vle0SuJ,3hy86pzxq1vtv1ivc3jn7sg3anve1z,3luy3gc633ddqykh1zl9ry2c35zp7b,5Vle0SuJ,2020-0188,2020-11-14,20:05:17,20:24:31,NA,incomplete,5,filling,1,left,Red_Triangle_Stripes_2.jpg,Purple_Circle_Stripes_3.jpg,Red_Star_Grid_4.jpg,left,1024.8150000115857,true,NA,NA,NA,NA,NA,NA,NA,NA,true
5Vle0SuJ,3hy86pzxq1vtv1ivc3jn7sg3anve1z,3luy3gc633ddqykh1zl9ry2c35zp7b,5Vle0SuJ,2020-0188,2020-11-14,20:05:17,20:24:31,NA,incomplete,6,filling,1,left,Green_Triangle_Dots_2.jpg,Blue_Circle_Dots_4.jpg,Green_Plus_Grid_3.jpg,left,1033.675000013318,true,NA,NA,NA,NA,NA,NA,NA,NA,true
5Vle0SuJ,3hy86pzxq1vtv1ivc3jn7sg3anve1z,3luy3gc633ddqykh1zl9ry2c35zp7b,5Vle0SuJ,2020-0188,2020-11-14,20:05:17,20:24:31,NA,incomplete,7,filling,1,right,Green_Triangle_Chess_4.jpg,Green_Circle_Dots_3.jpg,Blue_Plus_Chess_1.jpg,right,1066.4300000062212,true,NA,NA,NA,NA,NA,NA,NA,NA,true
5Vle0SuJ,3hy86pzxq1vtv1ivc3jn7sg3anve1z,3luy3gc633ddqykh1zl9ry2c35zp7b,5Vle0SuJ,2020-0188,2020-11-14,20:05:17,20:24:31,NA,incomplete,8,filling,1,right,Green_Circle_Grid_4.jpg,Green_Triangle_Dots_3.jpg,Purple_Plus_Grid_1.jpg,right,1538.3949999813922,true,NA,NA,NA,NA,NA,NA,NA,NA,true
5Vle0SuJ,3hy86pzxq1vtv1ivc3jn7sg3anve1z,3luy3gc633ddqykh1zl9ry2c35zp7b,5Vle0SuJ,2020-0188,2020-11-14,20:05:17,20:24:31,NA,incomplete,9,filling,0,right,Purple_Star_Stripes_1.jpg,Purple_Circle_Chess_4.jpg,Green_Plus_Stripes_3.jpg,right,1223.679999995511,true,NA,NA,NA,NA,NA,NA,NA,NA,true
5Vle0SuJ,3hy86pzxq1vtv1ivc3jn7sg3anve1z,3luy3gc633ddqykh1zl9ry2c35zp7b,5Vle0SuJ,2020-0188,2020-11-14,20:05:17,20:24:31,NA,incomplete,10,filling,0,left,Red_Plus_Chess_3.jpg,Purple_Star_Chess_4.jpg,Red_Circle_Dots_2.jpg,left,1084.660000022268,true,NA,NA,NA,NA,NA,NA,NA,NA,true
5Vle0SuJ,3hy86pzxq1vtv1ivc3jn7sg3anve1z,3luy3gc633ddqykh1zl9ry2c35zp7b,5Vle0SuJ,2020-0188,2020-11-14,20:05:17,20:24:31,NA,incomplete,11,filling,1,right,Blue_Star_Stripes_1.jpg,Blue_Triangle_Dots_3.jpg,Red_Plus_Stripes_4.jpg,right,1236.1000000091735,true,NA,NA,NA,NA,NA,NA,NA,NA,true
5Vle0SuJ,3hy86pzxq1vtv1ivc3jn7sg3anve1z,3luy3gc633ddqykh1zl9ry2c35zp7b,5Vle0SuJ,2020-0188,2020-11-14,20:05:17,20:24:31,NA,incomplete,12,filling,1,left,Blue_Plus_Dots_4.jpg,Green_Circle_Dots_2.jpg,Blue_Triangle_Chess_1.jpg,left,1143.8250000064727,true,NA,NA,NA,NA,NA,NA,NA,NA,true
5Vle0SuJ,3hy86pzxq1vtv1ivc3jn7sg3anve1z,3luy3gc633ddqykh1zl9ry2c35zp7b,5Vle0SuJ,2020-0188,2020-11-14,20:05:17,20:24:31,NA,incomplete,13,filling,0,left,Green_Plus_Chess_4.jpg,Blue_Circle_Chess_2.jpg,Green_Triangle_Dots_3.jpg,left,1199.205000011716,true,NA,NA,NA,NA,NA,NA,NA,NA,true
5Vle0SuJ,3hy86pzxq1vtv1ivc3jn7sg3anve1z,3luy3gc633ddqykh1zl9ry2c35zp7b,5Vle0SuJ,2020-0188,2020-11-14,20:05:17,20:24:31,NA,incomplete,14,filling,0,right,Red_Star_Dots_1.jpg,Red_Triangle_Chess_2.jpg,Purple_Circle_Dots_3.jpg,right,1412.255000002915,true,NA,NA,NA,NA,NA,NA,NA,NA,true
5Vle0SuJ,3hy86pzxq1vtv1ivc3jn7sg3anve1z,3luy3gc633ddqykh1zl9ry2c35zp7b,5Vle0SuJ,2020-0188,2020-11-14,20:05:17,20:24:31,NA,incomplete,15,filling,1,right,Blue_Triangle_Stripes_2.jpg,Blue_Circle_Chess_1.jpg,Purple_Star_Stripes_4.jpg,right,1387.365000002319,true,NA,NA,NA,NA,NA,NA,NA,NA,true
5Vle0SuJ,3hy86pzxq1vtv1ivc3jn7sg3anve1z,3luy3gc633ddqykh1zl9ry2c35zp7b,5Vle0SuJ,2020-0188,2020-11-14,20:05:17,20:24:31,NA,incomplete,16,filling,1,left,Red_Triangle_Grid_1.jpg,Green_Circle_Grid_3.jpg,Red_Plus_Stripes_2.jpg,left,1476.64999999688,true,NA,NA,NA,NA,NA,NA,NA,NA,true
5Vle0SuJ,3hy86pzxq1vtv1ivc3jn7sg3anve1z,3luy3gc633ddqykh1zl9ry2c35zp7b,5Vle0SuJ,2020-0188,2020-11-14,20:05:17,20:24:31,NA,incomplete,17,filling,1,right,Green_Circle_Dots_1.jpg,Green_Star_Grid_4.jpg,Red_Plus_Dots_3.jpg,right,995.2699999848846,true,NA,NA,NA,NA,NA,NA,NA,NA,true
5Vle0SuJ,3hy86pzxq1vtv1ivc3jn7sg3anve1z,3luy3gc633ddqykh1zl9ry2c35zp7b,5Vle0SuJ,2020-0188,2020-11-14,20:05:17,20:24:31,NA,incomplete,18,filling,1,left,Red_Plus_Dots_1.jpg,Blue_Triangle_Dots_2.jpg,Red_Circle_Stripes_3.jpg,left,1027.4849999987055,true,NA,NA,NA,NA,NA,NA,NA,NA,true
5Vle0SuJ,3hy86pzxq1vtv1ivc3jn7sg3anve1z,3luy3gc633ddqykh1zl9ry2c35zp7b,5Vle0SuJ,2020-0188,2020-11-14,20:05:17,20:24:31,NA,incomplete,19,filling,1,left,Red_Circle_Stripes_2.jpg,Green_Plus_Stripes_4.jpg,Red_Star_Grid_3.jpg,left,1006.9099999964237,true,NA,NA,NA,NA,NA,NA,NA,NA,true
5Vle0SuJ,3hy86pzxq1vtv1ivc3jn7sg3anve1z,3luy3gc633ddqykh1zl9ry2c35zp7b,5Vle0SuJ,2020-0188,2020-11-14,20:05:17,20:24:31,NA,incomplete,20,color,1,right,Purple_Triangle_Stripes_2.jpg,Green_Circle_Stripes_3.jpg,Purple_Plus_Chess_4.jpg,right,995.9450000023935,true,NA,NA,NA,NA,NA,NA,NA,NA,true
5Vle0SuJ,3hy86pzxq1vtv1ivc3jn7sg3anve1z,3luy3gc633ddqykh1zl9ry2c35zp7b,5Vle0SuJ,2020-0188,2020-11-14,20:05:17,20:24:31,NA,incomplete,21,color,1,left,Red_Star_Chess_3.jpg,Red_Triangle_Grid_1.jpg,Blue_Plus_Chess_4.jpg,left,716.8899999815039,true,NA,NA,NA,NA,NA,NA,NA,NA,true
5Vle0SuJ,3hy86pzxq1vtv1ivc3jn7sg3anve1z,3luy3gc633ddqykh1zl9ry2c35zp7b,5Vle0SuJ,2020-0188,2020-11-14,20:05:17,20:24:31,NA,incomplete,22,color,1,left,Green_Star_Stripes_2.jpg,Green_Plus_Grid_4.jpg,Blue_Circle_Stripes_3.jpg,left,601.5049999987241,true,NA,NA,NA,NA,NA,NA,NA,NA,true
5Vle0SuJ,3hy86pzxq1vtv1ivc3jn7sg3anve1z,3luy3gc633ddqykh1zl9ry2c35zp7b,5Vle0SuJ,2020-0188,2020-11-14,20:05:17,20:24:31,NA,incomplete,23,color,1,left,Red_Plus_Dots_1.jpg,Red_Triangle_Grid_4.jpg,Purple_Circle_Dots_3.jpg,left,668.3950000151526,true,NA,NA,NA,NA,NA,NA,NA,NA,true
5Vle0SuJ,3hy86pzxq1vtv1ivc3jn7sg3anve1z,3luy3gc633ddqykh1zl9ry2c35zp7b,5Vle0SuJ,2020-0188,2020-11-14,20:05:17,20:24:31,NA,incomplete,24,color,1,left,Purple_Circle_Grid_2.jpg,Purple_Plus_Chess_3.jpg,Green_Triangle_Grid_4.jpg,left,678.1199999968521,true,NA,NA,NA,NA,NA,NA,NA,NA,true
5Vle0SuJ,3hy86pzxq1vtv1ivc3jn7sg3anve1z,3luy3gc633ddqykh1zl9ry2c35zp7b,5Vle0SuJ,2020-0188,2020-11-14,20:05:17,20:24:31,NA,incomplete,25,color,1,left,Blue_Circle_Grid_3.jpg,Blue_Star_Dots_4.jpg,Purple_Triangle_Grid_1.jpg,left,767.8500000038184,true,NA,NA,NA,NA,NA,NA,NA,NA,true
5Vle0SuJ,3hy86pzxq1vtv1ivc3jn7sg3anve1z,3luy3gc633ddqykh1zl9ry2c35zp7b,5Vle0SuJ,2020-0188,2020-11-14,20:05:17,20:24:31,NA,incomplete,26,color,1,right,Green_Plus_Chess_2.jpg,Purple_Circle_Chess_3.jpg,Green_Star_Dots_1.jpg,right,884.0600000112318,true,NA,NA,NA,NA,NA,NA,NA,NA,true
5Vle0SuJ,3hy86pzxq1vtv1ivc3jn7sg3anve1z,3luy3gc633ddqykh1zl9ry2c35zp7b,5Vle0SuJ,2020-0188,2020-11-14,20:05:17,20:24:31,NA,incomplete,27,color,1,right,Green_Star_Stripes_4.jpg,Blue_Circle_Stripes_2.jpg,Green_Plus_Dots_1.jpg,right,769.68999998644,true,NA,NA,NA,NA,NA,NA,NA,NA,true
5Vle0SuJ,3hy86pzxq1vtv1ivc3jn7sg3anve1z,3luy3gc633ddqykh1zl9ry2c35zp7b,5Vle0SuJ,2020-0188,2020-11-14,20:05:17,20:24:31,NA,incomplete,28,color,1,left,Purple_Triangle_Grid_3.jpg,Purple_Circle_Chess_4.jpg,Green_Star_Grid_2.jpg,left,845.9250000014435,true,NA,NA,NA,NA,NA,NA,NA,NA,true
5Vle0SuJ,3hy86pzxq1vtv1ivc3jn7sg3anve1z,3luy3gc633ddqykh1zl9ry2c35zp7b,5Vle0SuJ,2020-0188,2020-11-14,20:05:17,20:24:31,NA,incomplete,29,color,0,left,Purple_Circle_Stripes_4.jpg,Purple_Plus_Grid_3.jpg,Blue_Star_Stripes_2.jpg,left,581.8299999809824,true,NA,NA,NA,NA,NA,NA,NA,NA,true
5Vle0SuJ,3hy86pzxq1vtv1ivc3jn7sg3anve1z,3luy3gc633ddqykh1zl9ry2c35zp7b,5Vle0SuJ,2020-0188,2020-11-14,20:05:17,20:24:31,NA,incomplete,30,color,0,right,Red_Triangle_Grid_4.jpg,Blue_Star_Grid_1.jpg,Red_Plus_Stripes_2.jpg,right,638.4449999895878,true,NA,NA,NA,NA,NA,NA,NA,NA,true
5Vle0SuJ,3hy86pzxq1vtv1ivc3jn7sg3anve1z,3luy3gc633ddqykh1zl9ry2c35zp7b,5Vle0SuJ,2020-0188,2020-11-14,20:05:17,20:24:31,NA,incomplete,31,color,1,right,Purple_Plus_Chess_4.jpg,Green_Triangle_Chess_2.jpg,Purple_Star_Dots_1.jpg,right,693.7199999811128,true,NA,NA,NA,NA,NA,NA,NA,NA,true
5Vle0SuJ,3hy86pzxq1vtv1ivc3jn7sg3anve1z,3luy3gc633ddqykh1zl9ry2c35zp7b,5Vle0SuJ,2020-0188,2020-11-14,20:05:17,20:24:31,NA,incomplete,32,color,1,left,Blue_Triangle_Dots_1.jpg,Blue_Circle_Stripes_3.jpg,Green_Plus_Dots_2.jpg,left,650.3250000241678,true,NA,NA,NA,NA,NA,NA,NA,NA,true
5Vle0SuJ,3hy86pzxq1vtv1ivc3jn7sg3anve1z,3luy3gc633ddqykh1zl9ry2c35zp7b,5Vle0SuJ,2020-0188,2020-11-14,20:05:17,20:24:31,NA,incomplete,33,color,1,right,Red_Triangle_Dots_2.jpg,Blue_Circle_Dots_4.jpg,Red_Star_Grid_3.jpg,right,575.4200000083074,true,NA,NA,NA,NA,NA,NA,NA,NA,true
5Vle0SuJ,3hy86pzxq1vtv1ivc3jn7sg3anve1z,3luy3gc633ddqykh1zl9ry2c35zp7b,5Vle0SuJ,2020-0188,2020-11-14,20:05:17,20:24:31,NA,incomplete,34,color,1,left,Red_Plus_Chess_3.jpg,Red_Star_Grid_2.jpg,Green_Circle_Chess_1.jpg,left,612.8200000093784,true,NA,NA,NA,NA,NA,NA,NA,NA,true
5Vle0SuJ,3hy86pzxq1vtv1ivc3jn7sg3anve1z,3luy3gc633ddqykh1zl9ry2c35zp7b,5Vle0SuJ,2020-0188,2020-11-14,20:05:17,20:24:31,NA,incomplete,35,color,1,left,Blue_Circle_Grid_1.jpg,Blue_Plus_Stripes_3.jpg,Purple_Star_Grid_2.jpg,left,494.38499999814667,true,NA,NA,NA,NA,NA,NA,NA,NA,true
5Vle0SuJ,3hy86pzxq1vtv1ivc3jn7sg3anve1z,3luy3gc633ddqykh1zl9ry2c35zp7b,5Vle0SuJ,2020-0188,2020-11-14,20:05:17,20:24:31,NA,incomplete,36,color,1,right,Purple_Plus_Grid_4.jpg,Green_Triangle_Grid_1.jpg,Purple_Star_Dots_3.jpg,right,561.6899999731686,true,NA,NA,NA,NA,NA,NA,NA,NA,true
5Vle0SuJ,3hy86pzxq1vtv1ivc3jn7sg3anve1z,3luy3gc633ddqykh1zl9ry2c35zp7b,5Vle0SuJ,2020-0188,2020-11-14,20:05:17,20:24:31,NA,incomplete,37,color,1,left,Blue_Triangle_Stripes_4.jpg,Blue_Star_Dots_3.jpg,Purple_Circle_Stripes_2.jpg,left,543.7399999937043,true,NA,NA,NA,NA,NA,NA,NA,NA,true
5Vle0SuJ,3hy86pzxq1vtv1ivc3jn7sg3anve1z,3luy3gc633ddqykh1zl9ry2c35zp7b,5Vle0SuJ,2020-0188,2020-11-14,20:05:17,20:24:31,NA,incomplete,38,color,0,left,Purple_Circle_Dots_3.jpg,Purple_Star_Stripes_2.jpg,Red_Plus_Dots_1.jpg,left,533.2750000234228,true,NA,NA,NA,NA,NA,NA,NA,NA,true
5Vle0SuJ,3hy86pzxq1vtv1ivc3jn7sg3anve1z,3luy3gc633ddqykh1zl9ry2c35zp7b,5Vle0SuJ,2020-0188,2020-11-14,20:05:17,20:24:31,NA,incomplete,39,color,1,right,Green_Star_Dots_2.jpg,Blue_Plus_Dots_1.jpg,Green_Circle_Chess_4.jpg,right,500.5000000237487,true,NA,NA,NA,NA,NA,NA,NA,NA,true
5Vle0SuJ,3hy86pzxq1vtv1ivc3jn7sg3anve1z,3luy3gc633ddqykh1zl9ry2c35zp7b,5Vle0SuJ,2020-0188,2020-11-14,20:05:17,20:24:31,NA,incomplete,0,filling,1,left,Green_Star_Stripes_3.jpg,Blue_Triangle_Stripes_4.jpg,Green_Circle_Chess_2.jpg,right,878.774999990128,false,high,NA,NA,NA,NA,NA,NA,NA,false
5Vle0SuJ,3hy86pzxq1vtv1ivc3jn7sg3anve1z,3luy3gc633ddqykh1zl9ry2c35zp7b,5Vle0SuJ,2020-0188,2020-11-14,20:05:17,20:24:31,NA,incomplete,1,filling,1,right,Purple_Star_Chess_1.jpg,Purple_Triangle_Dots_2.jpg,Blue_Circle_Chess_4.jpg,left,627.7850000187755,false,high,NA,NA,NA,NA,NA,NA,NA,false
5Vle0SuJ,3hy86pzxq1vtv1ivc3jn7sg3anve1z,3luy3gc633ddqykh1zl9ry2c35zp7b,5Vle0SuJ,2020-0188,2020-11-14,20:05:17,20:24:31,NA,incomplete,2,filling,1,left,Red_Plus_Chess_4.jpg,Green_Circle_Chess_3.jpg,Red_Triangle_Dots_1.jpg,left,1058.7700000032783,true,high,NA,NA,NA,NA,NA,NA,NA,false
5Vle0SuJ,3hy86pzxq1vtv1ivc3jn7sg3anve1z,3luy3gc633ddqykh1zl9ry2c35zp7b,5Vle0SuJ,2020-0188,2020-11-14,20:05:17,20:24:31,NA,incomplete,3,filling,1,left,Green_Triangle_Chess_4.jpg,Red_Circle_Chess_3.jpg,Green_Star_Stripes_1.jpg,left,713.6250000039581,true,high,NA,NA,NA,NA,NA,NA,NA,false
5Vle0SuJ,3hy86pzxq1vtv1ivc3jn7sg3anve1z,3luy3gc633ddqykh1zl9ry2c35zp7b,5Vle0SuJ,2020-0188,2020-11-14,20:05:17,20:24:31,NA,incomplete,4,filling,1,left,Blue_Triangle_Grid_2.jpg,Purple_Circle_Grid_4.jpg,Blue_Plus_Chess_1.jpg,left,763.1249999976717,true,high,NA,NA,NA,NA,NA,NA,NA,false
5Vle0SuJ,3hy86pzxq1vtv1ivc3jn7sg3anve1z,3luy3gc633ddqykh1zl9ry2c35zp7b,5Vle0SuJ,2020-0188,2020-11-14,20:05:17,20:24:31,NA,incomplete,5,filling,1,left,Green_Triangle_Stripes_2.jpg,Blue_Circle_Stripes_4.jpg,Green_Plus_Dots_3.jpg,left,766.3349999929778,true,high,NA,NA,NA,NA,NA,NA,NA,false
5Vle0SuJ,3hy86pzxq1vtv1ivc3jn7sg3anve1z,3luy3gc633ddqykh1zl9ry2c35zp7b,5Vle0SuJ,2020-0188,2020-11-14,20:05:17,20:24:31,NA,incomplete,6,filling,1,left,Purple_Triangle_Stripes_4.jpg,Blue_Star_Stripes_2.jpg,Purple_Plus_Chess_1.jpg,left,756.1149999964982,true,high,NA,NA,NA,NA,NA,NA,NA,false
5Vle0SuJ,3hy86pzxq1vtv1ivc3jn7sg3anve1z,3luy3gc633ddqykh1zl9ry2c35zp7b,5Vle0SuJ,2020-0188,2020-11-14,20:05:17,20:24:31,NA,incomplete,7,filling,0,left,Blue_Triangle_Chess_3.jpg,Red_Circle_Chess_2.jpg,Blue_Star_Dots_4.jpg,left,739.884999988135,true,high,NA,NA,NA,NA,NA,NA,NA,false
5Vle0SuJ,3hy86pzxq1vtv1ivc3jn7sg3anve1z,3luy3gc633ddqykh1zl9ry2c35zp7b,5Vle0SuJ,2020-0188,2020-11-14,20:05:17,20:24:31,NA,incomplete,8,filling,1,right,Green_Triangle_Stripes_4.jpg,Green_Star_Grid_1.jpg,Blue_Circle_Stripes_3.jpg,right,829.8400000203401,true,high,NA,NA,NA,NA,NA,NA,NA,false
5Vle0SuJ,3hy86pzxq1vtv1ivc3jn7sg3anve1z,3luy3gc633ddqykh1zl9ry2c35zp7b,5Vle0SuJ,2020-0188,2020-11-14,20:05:17,20:24:31,NA,incomplete,9,filling,0,left,Red_Circle_Chess_3.jpg,Blue_Star_Chess_4.jpg,Red_Triangle_Stripes_2.jpg,left,807.5750000134576,true,high,NA,NA,NA,NA,NA,NA,NA,false
5Vle0SuJ,3hy86pzxq1vtv1ivc3jn7sg3anve1z,3luy3gc633ddqykh1zl9ry2c35zp7b,5Vle0SuJ,2020-0188,2020-11-14,20:05:17,20:24:31,NA,incomplete,10,color,1,right,Green_Circle_Stripes_3.jpg,Red_Plus_Stripes_4.jpg,Green_Star_Chess_2.jpg,left,923.240000003716,false,high,NA,NA,NA,NA,NA,NA,NA,false
5Vle0SuJ,3hy86pzxq1vtv1ivc3jn7sg3anve1z,3luy3gc633ddqykh1zl9ry2c35zp7b,5Vle0SuJ,2020-0188,2020-11-14,20:05:17,20:24:31,NA,incomplete,11,color,1,right,Green_Star_Stripes_1.jpg,Blue_Circle_Stripes_3.jpg,Green_Plus_Chess_4.jpg,right,519.0849999780767,true,high,NA,NA,NA,NA,NA,NA,NA,false
5Vle0SuJ,3hy86pzxq1vtv1ivc3jn7sg3anve1z,3luy3gc633ddqykh1zl9ry2c35zp7b,5Vle0SuJ,2020-0188,2020-11-14,20:05:17,20:24:31,NA,incomplete,12,color,1,right,Green_Triangle_Grid_4.jpg,Purple_Plus_Grid_3.jpg,Green_Circle_Chess_2.jpg,right,687.8600000054576,true,high,NA,NA,NA,NA,NA,NA,NA,false
5Vle0SuJ,3hy86pzxq1vtv1ivc3jn7sg3anve1z,3luy3gc633ddqykh1zl9ry2c35zp7b,5Vle0SuJ,2020-0188,2020-11-14,20:05:17,20:24:31,NA,incomplete,13,color,1,right,Blue_Star_Dots_2.jpg,Purple_Circle_Dots_1.jpg,Blue_Triangle_Grid_3.jpg,right,571.605000004638,true,high,NA,NA,NA,NA,NA,NA,NA,false
5Vle0SuJ,3hy86pzxq1vtv1ivc3jn7sg3anve1z,3luy3gc633ddqykh1zl9ry2c35zp7b,5Vle0SuJ,2020-0188,2020-11-14,20:05:17,20:24:31,NA,incomplete,14,color,1,left,Purple_Plus_Stripes_4.jpg,Purple_Triangle_Dots_3.jpg,Red_Star_Stripes_1.jpg,left,597.8150000155438,true,high,NA,NA,NA,NA,NA,NA,NA,false
5Vle0SuJ,3hy86pzxq1vtv1ivc3jn7sg3anve1z,3luy3gc633ddqykh1zl9ry2c35zp7b,5Vle0SuJ,2020-0188,2020-11-14,20:05:17,20:24:31,NA,incomplete,15,color,1,right,Blue_Circle_Grid_1.jpg,Purple_Triangle_Grid_3.jpg,Blue_Plus_Dots_4.jpg,right,503.89500000164844,true,high,NA,NA,NA,NA,NA,NA,NA,false
5Vle0SuJ,3hy86pzxq1vtv1ivc3jn7sg3anve1z,3luy3gc633ddqykh1zl9ry2c35zp7b,5Vle0SuJ,2020-0188,2020-11-14,20:05:17,20:24:31,NA,incomplete,16,color,1,left,Red_Circle_Stripes_1.jpg,Red_Triangle_Dots_2.jpg,Purple_Star_Stripes_3.jpg,left,547.4899999971967,true,high,NA,NA,NA,NA,NA,NA,NA,false
5Vle0SuJ,3hy86pzxq1vtv1ivc3jn7sg3anve1z,3luy3gc633ddqykh1zl9ry2c35zp7b,5Vle0SuJ,2020-0188,2020-11-14,20:05:17,20:24:31,NA,incomplete,17,color,0,right,Blue_Triangle_Grid_4.jpg,Red_Plus_Grid_1.jpg,Blue_Circle_Dots_2.jpg,right,652.8199999884237,true,high,NA,NA,NA,NA,NA,NA,NA,false
5Vle0SuJ,3hy86pzxq1vtv1ivc3jn7sg3anve1z,3luy3gc633ddqykh1zl9ry2c35zp7b,5Vle0SuJ,2020-0188,2020-11-14,20:05:17,20:24:31,NA,incomplete,18,color,1,right,Green_Star_Grid_4.jpg,Purple_Circle_Grid_3.jpg,Green_Triangle_Dots_2.jpg,right,580.2399999811314,true,high,NA,NA,NA,NA,NA,NA,NA,false
5Vle0SuJ,3hy86pzxq1vtv1ivc3jn7sg3anve1z,3luy3gc633ddqykh1zl9ry2c35zp7b,5Vle0SuJ,2020-0188,2020-11-14,20:05:17,20:24:31,NA,incomplete,19,color,1,right,Blue_Triangle_Grid_2.jpg,Red_Star_Grid_3.jpg,Blue_Circle_Stripes_1.jpg,right,566.8700000096578,true,high,NA,NA,NA,NA,NA,NA,NA,false
5Vle0SuJ,3hy86pzxq1vtv1ivc3jn7sg3anve1z,3luy3gc633ddqykh1zl9ry2c35zp7b,5Vle0SuJ,2020-0188,2020-11-14,20:05:17,20:24:31,NA,incomplete,20,filling,1,left,Green_Star_Grid_1.jpg,Blue_Circle_Grid_4.jpg,Green_Triangle_Stripes_3.jpg,right,837.6250000146683,false,high,NA,NA,NA,NA,NA,NA,NA,false
5Vle0SuJ,3hy86pzxq1vtv1ivc3jn7sg3anve1z,3luy3gc633ddqykh1zl9ry2c35zp7b,5Vle0SuJ,2020-0188,2020-11-14,20:05:17,20:24:31,NA,incomplete,21,filling,1,left,Purple_Plus_Dots_4.jpg,Blue_Circle_Dots_1.jpg,Purple_Star_Grid_2.jpg,right,446.91999998758547,false,high,NA,NA,NA,NA,NA,NA,NA,false
5Vle0SuJ,3hy86pzxq1vtv1ivc3jn7sg3anve1z,3luy3gc633ddqykh1zl9ry2c35zp7b,5Vle0SuJ,2020-0188,2020-11-14,20:05:17,20:24:31,NA,incomplete,22,filling,1,right,Green_Star_Stripes_4.jpg,Green_Triangle_Dots_3.jpg,Blue_Plus_Stripes_1.jpg,left,432.4899999774061,false,high,NA,NA,NA,NA,NA,NA,NA,false
5Vle0SuJ,3hy86pzxq1vtv1ivc3jn7sg3anve1z,3luy3gc633ddqykh1zl9ry2c35zp7b,5Vle0SuJ,2020-0188,2020-11-14,20:05:17,20:24:31,NA,incomplete,23,filling,1,left,Green_Star_Chess_2.jpg,Blue_Circle_Chess_3.jpg,Green_Triangle_Stripes_4.jpg,left,762.28500000434,true,high,NA,NA,NA,NA,NA,NA,NA,false
5Vle0SuJ,3hy86pzxq1vtv1ivc3jn7sg3anve1z,3luy3gc633ddqykh1zl9ry2c35zp7b,5Vle0SuJ,2020-0188,2020-11-14,20:05:17,20:24:31,NA,incomplete,24,filling,1,left,Purple_Star_Dots_4.jpg,Red_Circle_Dots_3.jpg,Purple_Plus_Chess_2.jpg,right,941.3300000014715,false,high,NA,NA,NA,NA,NA,NA,NA,false
5Vle0SuJ,3hy86pzxq1vtv1ivc3jn7sg3anve1z,3luy3gc633ddqykh1zl9ry2c35zp7b,5Vle0SuJ,2020-0188,2020-11-14,20:05:17,20:24:31,NA,incomplete,25,filling,0,right,Green_Star_Dots_1.jpg,Green_Triangle_Grid_3.jpg,Blue_Plus_Dots_4.jpg,right,1032.119999988936,true,high,NA,NA,NA,NA,NA,NA,NA,false
5Vle0SuJ,3hy86pzxq1vtv1ivc3jn7sg3anve1z,3luy3gc633ddqykh1zl9ry2c35zp7b,5Vle0SuJ,2020-0188,2020-11-14,20:05:17,20:24:31,NA,incomplete,26,filling,1,left,Blue_Star_Chess_1.jpg,Red_Circle_Chess_4.jpg,Blue_Triangle_Dots_2.jpg,left,707.5049999984913,true,high,NA,NA,NA,NA,NA,NA,NA,false
5Vle0SuJ,3hy86pzxq1vtv1ivc3jn7sg3anve1z,3luy3gc633ddqykh1zl9ry2c35zp7b,5Vle0SuJ,2020-0188,2020-11-14,20:05:17,20:24:31,NA,incomplete,27,filling,1,left,Purple_Triangle_Stripes_2.jpg,Red_Circle_Stripes_3.jpg,Purple_Star_Grid_4.jpg,left,923.2299999857787,true,high,NA,NA,NA,NA,NA,NA,NA,false
5Vle0SuJ,3hy86pzxq1vtv1ivc3jn7sg3anve1z,3luy3gc633ddqykh1zl9ry2c35zp7b,5Vle0SuJ,2020-0188,2020-11-14,20:05:17,20:24:31,NA,incomplete,28,filling,1,left,Blue_Triangle_Stripes_2.jpg,Green_Star_Stripes_1.jpg,Blue_Circle_Grid_3.jpg,left,995.2399999892805,true,high,NA,NA,NA,NA,NA,NA,NA,false
5Vle0SuJ,3hy86pzxq1vtv1ivc3jn7sg3anve1z,3luy3gc633ddqykh1zl9ry2c35zp7b,5Vle0SuJ,2020-0188,2020-11-14,20:05:17,20:24:31,NA,incomplete,29,filling,1,left,Green_Plus_Dots_3.jpg,Purple_Star_Dots_4.jpg,Green_Circle_Stripes_1.jpg,left,908.1499999738298,true,high,NA,NA,NA,NA,NA,NA,NA,false
5Vle0SuJ,3hy86pzxq1vtv1ivc3jn7sg3anve1z,3luy3gc633ddqykh1zl9ry2c35zp7b,5Vle0SuJ,2020-0188,2020-11-14,20:05:17,20:24:31,NA,incomplete,30,color,1,right,Green_Triangle_Dots_2.jpg,Purple_Star_Dots_3.jpg,Green_Circle_Grid_1.jpg,left,1009.0049999998882,false,high,NA,NA,NA,NA,NA,NA,NA,false
5Vle0SuJ,3hy86pzxq1vtv1ivc3jn7sg3anve1z,3luy3gc633ddqykh1zl9ry2c35zp7b,5Vle0SuJ,2020-0188,2020-11-14,20:05:17,20:24:31,NA,incomplete,31,color,1,right,Green_Triangle_Grid_3.jpg,Red_Circle_Grid_2.jpg,Green_Star_Chess_4.jpg,left,976.9599999999627,false,high,NA,NA,NA,NA,NA,NA,NA,false
5Vle0SuJ,3hy86pzxq1vtv1ivc3jn7sg3anve1z,3luy3gc633ddqykh1zl9ry2c35zp7b,5Vle0SuJ,2020-0188,2020-11-14,20:05:17,20:24:31,NA,incomplete,32,color,1,right,Blue_Triangle_Grid_1.jpg,Red_Plus_Grid_2.jpg,Blue_Star_Chess_4.jpg,right,525.7100000162609,true,high,NA,NA,NA,NA,NA,NA,NA,false
5Vle0SuJ,3hy86pzxq1vtv1ivc3jn7sg3anve1z,3luy3gc633ddqykh1zl9ry2c35zp7b,5Vle0SuJ,2020-0188,2020-11-14,20:05:17,20:24:31,NA,incomplete,33,color,1,right,Blue_Star_Chess_1.jpg,Red_Circle_Chess_3.jpg,Blue_Triangle_Stripes_2.jpg,right,402.61999997892417,true,high,NA,NA,NA,NA,NA,NA,NA,false
5Vle0SuJ,3hy86pzxq1vtv1ivc3jn7sg3anve1z,3luy3gc633ddqykh1zl9ry2c35zp7b,5Vle0SuJ,2020-0188,2020-11-14,20:05:17,20:24:31,NA,incomplete,34,color,0,right,Purple_Triangle_Dots_2.jpg,Green_Star_Dots_3.jpg,Purple_Plus_Chess_4.jpg,right,509.19499999145046,true,high,NA,NA,NA,NA,NA,NA,NA,false
5Vle0SuJ,3hy86pzxq1vtv1ivc3jn7sg3anve1z,3luy3gc633ddqykh1zl9ry2c35zp7b,5Vle0SuJ,2020-0188,2020-11-14,20:05:17,20:24:31,NA,incomplete,35,color,1,left,Blue_Star_Grid_1.jpg,Blue_Circle_Chess_3.jpg,Green_Plus_Grid_4.jpg,left,520.7150000205729,true,high,NA,NA,NA,NA,NA,NA,NA,false
5Vle0SuJ,3hy86pzxq1vtv1ivc3jn7sg3anve1z,3luy3gc633ddqykh1zl9ry2c35zp7b,5Vle0SuJ,2020-0188,2020-11-14,20:05:17,20:24:31,NA,incomplete,36,color,1,left,Red_Triangle_Stripes_3.jpg,Red_Star_Dots_2.jpg,Green_Circle_Stripes_4.jpg,left,737.9000000073574,true,high,NA,NA,NA,NA,NA,NA,NA,false
5Vle0SuJ,3hy86pzxq1vtv1ivc3jn7sg3anve1z,3luy3gc633ddqykh1zl9ry2c35zp7b,5Vle0SuJ,2020-0188,2020-11-14,20:05:17,20:24:31,NA,incomplete,37,color,1,right,Red_Plus_Stripes_4.jpg,Blue_Circle_Stripes_3.jpg,Red_Star_Chess_2.jpg,right,587.5100000121165,true,high,NA,NA,NA,NA,NA,NA,NA,false
5Vle0SuJ,3hy86pzxq1vtv1ivc3jn7sg3anve1z,3luy3gc633ddqykh1zl9ry2c35zp7b,5Vle0SuJ,2020-0188,2020-11-14,20:05:17,20:24:31,NA,incomplete,38,color,1,left,Purple_Star_Stripes_3.jpg,Purple_Circle_Grid_4.jpg,Red_Triangle_Stripes_2.jpg,left,619.5750000188127,true,high,NA,NA,NA,NA,NA,NA,NA,false
5Vle0SuJ,3hy86pzxq1vtv1ivc3jn7sg3anve1z,3luy3gc633ddqykh1zl9ry2c35zp7b,5Vle0SuJ,2020-0188,2020-11-14,20:05:17,20:24:31,NA,incomplete,39,color,0,right,Red_Circle_Stripes_1.jpg,Purple_Star_Stripes_4.jpg,Red_Plus_Chess_3.jpg,right,666.4999999920838,true,high,NA,NA,NA,NA,NA,NA,NA,false
5Vle0SuJ,3hy86pzxq1vtv1ivc3jn7sg3anve1z,3luy3gc633ddqykh1zl9ry2c35zp7b,5Vle0SuJ,2020-0188,2020-11-14,20:05:17,20:24:31,NA,incomplete,40,filling,1,right,Purple_Star_Stripes_3.jpg,Purple_Triangle_Dots_2.jpg,Green_Plus_Stripes_1.jpg,left,448.26999999349937,false,high,NA,NA,NA,NA,NA,NA,NA,false
5Vle0SuJ,3hy86pzxq1vtv1ivc3jn7sg3anve1z,3luy3gc633ddqykh1zl9ry2c35zp7b,5Vle0SuJ,2020-0188,2020-11-14,20:05:17,20:24:31,NA,incomplete,41,filling,1,left,Purple_Star_Grid_2.jpg,Green_Plus_Grid_3.jpg,Purple_Triangle_Chess_4.jpg,right,646.0549999901559,false,high,NA,NA,NA,NA,NA,NA,NA,false
5Vle0SuJ,3hy86pzxq1vtv1ivc3jn7sg3anve1z,3luy3gc633ddqykh1zl9ry2c35zp7b,5Vle0SuJ,2020-0188,2020-11-14,20:05:17,20:24:31,NA,incomplete,42,filling,1,left,Red_Star_Dots_1.jpg,Purple_Circle_Dots_4.jpg,Red_Triangle_Grid_3.jpg,left,1070.964999991702,true,high,NA,NA,NA,NA,NA,NA,NA,false
5Vle0SuJ,3hy86pzxq1vtv1ivc3jn7sg3anve1z,3luy3gc633ddqykh1zl9ry2c35zp7b,5Vle0SuJ,2020-0188,2020-11-14,20:05:17,20:24:31,NA,incomplete,43,filling,1,right,Blue_Triangle_Grid_1.jpg,Blue_Circle_Chess_3.jpg,Green_Star_Grid_2.jpg,right,794.4699999934528,true,high,NA,NA,NA,NA,NA,NA,NA,false
5Vle0SuJ,3hy86pzxq1vtv1ivc3jn7sg3anve1z,3luy3gc633ddqykh1zl9ry2c35zp7b,5Vle0SuJ,2020-0188,2020-11-14,20:05:17,20:24:31,NA,incomplete,44,filling,1,left,Green_Circle_Dots_3.jpg,Blue_Star_Dots_4.jpg,Green_Plus_Chess_1.jpg,left,727.5450000015553,true,high,NA,NA,NA,NA,NA,NA,NA,false
5Vle0SuJ,3hy86pzxq1vtv1ivc3jn7sg3anve1z,3luy3gc633ddqykh1zl9ry2c35zp7b,5Vle0SuJ,2020-0188,2020-11-14,20:05:17,20:24:31,NA,incomplete,45,filling,1,right,Red_Circle_Stripes_1.jpg,Red_Star_Grid_2.jpg,Purple_Triangle_Stripes_4.jpg,right,642.3850000137463,true,high,NA,NA,NA,NA,NA,NA,NA,false
5Vle0SuJ,3hy86pzxq1vtv1ivc3jn7sg3anve1z,3luy3gc633ddqykh1zl9ry2c35zp7b,5Vle0SuJ,2020-0188,2020-11-14,20:05:17,20:24:31,NA,incomplete,46,filling,1,left,Purple_Circle_Dots_4.jpg,Green_Triangle_Dots_2.jpg,Purple_Star_Grid_3.jpg,left,795.1000000175554,true,high,NA,NA,NA,NA,NA,NA,NA,false
5Vle0SuJ,3hy86pzxq1vtv1ivc3jn7sg3anve1z,3luy3gc633ddqykh1zl9ry2c35zp7b,5Vle0SuJ,2020-0188,2020-11-14,20:05:17,20:24:31,NA,incomplete,47,filling,1,left,Blue_Plus_Grid_3.jpg,Purple_Triangle_Grid_1.jpg,Blue_Star_Stripes_2.jpg,left,835.9800000034738,true,high,NA,NA,NA,NA,NA,NA,NA,false
5Vle0SuJ,3hy86pzxq1vtv1ivc3jn7sg3anve1z,3luy3gc633ddqykh1zl9ry2c35zp7b,5Vle0SuJ,2020-0188,2020-11-14,20:05:17,20:24:31,NA,incomplete,48,filling,1,left,Green_Plus_Grid_1.jpg,Blue_Triangle_Grid_2.jpg,Green_Star_Dots_3.jpg,left,792.1250000072177,true,high,NA,NA,NA,NA,NA,NA,NA,false
5Vle0SuJ,3hy86pzxq1vtv1ivc3jn7sg3anve1z,3luy3gc633ddqykh1zl9ry2c35zp7b,5Vle0SuJ,2020-0188,2020-11-14,20:05:17,20:24:31,NA,incomplete,49,filling,1,right,Red_Plus_Stripes_4.jpg,Red_Star_Grid_3.jpg,Blue_Triangle_Stripes_1.jpg,right,771.695000003092,true,high,NA,NA,NA,NA,NA,NA,NA,false
5Vle0SuJ,3hy86pzxq1vtv1ivc3jn7sg3anve1z,3luy3gc633ddqykh1zl9ry2c35zp7b,5Vle0SuJ,2020-0188,2020-11-14,20:05:17,20:24:31,NA,incomplete,50,color,1,left,Green_Plus_Grid_4.jpg,Green_Star_Dots_2.jpg,Blue_Triangle_Grid_1.jpg,right,790.1100000017323,false,high,NA,NA,NA,NA,NA,NA,NA,false
5Vle0SuJ,3hy86pzxq1vtv1ivc3jn7sg3anve1z,3luy3gc633ddqykh1zl9ry2c35zp7b,5Vle0SuJ,2020-0188,2020-11-14,20:05:17,20:24:31,NA,incomplete,51,color,1,left,Green_Circle_Stripes_2.jpg,Green_Star_Grid_4.jpg,Blue_Plus_Stripes_1.jpg,right,843.8750000204891,false,high,NA,NA,NA,NA,NA,NA,NA,false
5Vle0SuJ,3hy86pzxq1vtv1ivc3jn7sg3anve1z,3luy3gc633ddqykh1zl9ry2c35zp7b,5Vle0SuJ,2020-0188,2020-11-14,20:05:17,20:24:31,NA,incomplete,52,color,1,right,Red_Plus_Stripes_1.jpg,Purple_Star_Stripes_4.jpg,Red_Triangle_Grid_3.jpg,left,897.2350000112783,false,high,NA,NA,NA,NA,NA,NA,NA,false
5Vle0SuJ,3hy86pzxq1vtv1ivc3jn7sg3anve1z,3luy3gc633ddqykh1zl9ry2c35zp7b,5Vle0SuJ,2020-0188,2020-11-14,20:05:17,20:24:31,NA,incomplete,53,color,0,left,Red_Triangle_Dots_3.jpg,Red_Plus_Stripes_1.jpg,Green_Circle_Dots_4.jpg,left,541.2349999824073,true,high,NA,NA,NA,NA,NA,NA,NA,false
5Vle0SuJ,3hy86pzxq1vtv1ivc3jn7sg3anve1z,3luy3gc633ddqykh1zl9ry2c35zp7b,5Vle0SuJ,2020-0188,2020-11-14,20:05:17,20:24:31,NA,incomplete,54,color,1,left,Purple_Star_Dots_3.jpg,Purple_Circle_Stripes_2.jpg,Green_Triangle_Dots_1.jpg,right,896.2300000130199,false,high,NA,NA,NA,NA,NA,NA,NA,false
5Vle0SuJ,3hy86pzxq1vtv1ivc3jn7sg3anve1z,3luy3gc633ddqykh1zl9ry2c35zp7b,5Vle0SuJ,2020-0188,2020-11-14,20:05:17,20:24:31,NA,incomplete,55,color,0,right,Red_Triangle_Grid_1.jpg,Purple_Plus_Grid_4.jpg,Red_Star_Dots_2.jpg,right,626.1200000008103,true,high,NA,NA,NA,NA,NA,NA,NA,false
5Vle0SuJ,3hy86pzxq1vtv1ivc3jn7sg3anve1z,3luy3gc633ddqykh1zl9ry2c35zp7b,5Vle0SuJ,2020-0188,2020-11-14,20:05:17,20:24:31,NA,incomplete,56,color,1,right,Red_Circle_Dots_4.jpg,Purple_Star_Dots_1.jpg,Red_Plus_Stripes_2.jpg,right,610.6000000145286,true,high,NA,NA,NA,NA,NA,NA,NA,false
5Vle0SuJ,3hy86pzxq1vtv1ivc3jn7sg3anve1z,3luy3gc633ddqykh1zl9ry2c35zp7b,5Vle0SuJ,2020-0188,2020-11-14,20:05:17,20:24:31,NA,incomplete,57,color,1,left,Purple_Star_Grid_3.jpg,Purple_Triangle_Dots_2.jpg,Blue_Circle_Grid_4.jpg,left,594.8950000165496,true,high,NA,NA,NA,NA,NA,NA,NA,false
5Vle0SuJ,3hy86pzxq1vtv1ivc3jn7sg3anve1z,3luy3gc633ddqykh1zl9ry2c35zp7b,5Vle0SuJ,2020-0188,2020-11-14,20:05:17,20:24:31,NA,incomplete,58,color,1,left,Green_Circle_Chess_3.jpg,Green_Plus_Stripes_1.jpg,Blue_Star_Chess_2.jpg,left,1178.9699999790173,true,high,NA,NA,NA,NA,NA,NA,NA,false
5Vle0SuJ,3hy86pzxq1vtv1ivc3jn7sg3anve1z,3luy3gc633ddqykh1zl9ry2c35zp7b,5Vle0SuJ,2020-0188,2020-11-14,20:05:17,20:24:31,NA,incomplete,59,color,1,left,Purple_Plus_Chess_3.jpg,Purple_Triangle_Stripes_4.jpg,Green_Circle_Chess_2.jpg,left,673.5749999934342,true,high,NA,NA,NA,NA,NA,NA,NA,false
5Vle0SuJ,3hy86pzxq1vtv1ivc3jn7sg3anve1z,3luy3gc633ddqykh1zl9ry2c35zp7b,5Vle0SuJ,2020-0188,2020-11-14,20:05:17,20:24:31,NA,incomplete,60,filling,0,left,Green_Triangle_Dots_3.jpg,Red_Star_Dots_2.jpg,Green_Plus_Grid_1.jpg,right,513.9999999955762,false,high,NA,NA,NA,NA,NA,NA,NA,false
5Vle0SuJ,3hy86pzxq1vtv1ivc3jn7sg3anve1z,3luy3gc633ddqykh1zl9ry2c35zp7b,5Vle0SuJ,2020-0188,2020-11-14,20:05:17,20:24:31,NA,incomplete,61,filling,1,right,Red_Triangle_Chess_4.jpg,Red_Star_Stripes_1.jpg,Green_Circle_Chess_2.jpg,left,542.5000000104774,false,high,NA,NA,NA,NA,NA,NA,NA,false
5Vle0SuJ,3hy86pzxq1vtv1ivc3jn7sg3anve1z,3luy3gc633ddqykh1zl9ry2c35zp7b,5Vle0SuJ,2020-0188,2020-11-14,20:05:17,20:24:31,NA,incomplete,62,filling,1,right,Red_Plus_Dots_2.jpg,Red_Circle_Stripes_4.jpg,Green_Star_Dots_3.jpg,left,510.39500001934357,false,high,NA,NA,NA,NA,NA,NA,NA,false
5Vle0SuJ,3hy86pzxq1vtv1ivc3jn7sg3anve1z,3luy3gc633ddqykh1zl9ry2c35zp7b,5Vle0SuJ,2020-0188,2020-11-14,20:05:17,20:24:31,NA,incomplete,63,filling,1,right,Red_Triangle_Grid_4.jpg,Red_Circle_Dots_2.jpg,Blue_Star_Grid_3.jpg,left,671.2849999894388,false,high,NA,NA,NA,NA,NA,NA,NA,false
5Vle0SuJ,3hy86pzxq1vtv1ivc3jn7sg3anve1z,3luy3gc633ddqykh1zl9ry2c35zp7b,5Vle0SuJ,2020-0188,2020-11-14,20:05:17,20:24:31,NA,incomplete,64,filling,1,right,Red_Circle_Grid_3.jpg,Red_Plus_Dots_1.jpg,Blue_Triangle_Grid_4.jpg,right,879.7349999949802,true,high,NA,NA,NA,NA,NA,NA,NA,false
5Vle0SuJ,3hy86pzxq1vtv1ivc3jn7sg3anve1z,3luy3gc633ddqykh1zl9ry2c35zp7b,5Vle0SuJ,2020-0188,2020-11-14,20:05:17,20:24:31,NA,incomplete,65,filling,1,right,Green_Triangle_Stripes_3.jpg,Green_Star_Grid_2.jpg,Blue_Plus_Stripes_1.jpg,right,1124.7849999926984,true,high,NA,NA,NA,NA,NA,NA,NA,false
5Vle0SuJ,3hy86pzxq1vtv1ivc3jn7sg3anve1z,3luy3gc633ddqykh1zl9ry2c35zp7b,5Vle0SuJ,2020-0188,2020-11-14,20:05:17,20:24:31,NA,incomplete,66,filling,0,right,Blue_Triangle_Chess_4.jpg,Blue_Star_Stripes_1.jpg,Purple_Plus_Chess_2.jpg,right,912.6150000083726,true,high,NA,NA,NA,NA,NA,NA,NA,false
5Vle0SuJ,3hy86pzxq1vtv1ivc3jn7sg3anve1z,3luy3gc633ddqykh1zl9ry2c35zp7b,5Vle0SuJ,2020-0188,2020-11-14,20:05:17,20:24:31,NA,incomplete,67,filling,1,left,Red_Star_Dots_1.jpg,Green_Triangle_Dots_4.jpg,Red_Plus_Chess_3.jpg,left,943.1599999952596,true,high,NA,NA,NA,NA,NA,NA,NA,false
5Vle0SuJ,3hy86pzxq1vtv1ivc3jn7sg3anve1z,3luy3gc633ddqykh1zl9ry2c35zp7b,5Vle0SuJ,2020-0188,2020-11-14,20:05:17,20:24:31,NA,incomplete,68,filling,0,left,Red_Plus_Chess_3.jpg,Green_Star_Chess_2.jpg,Red_Triangle_Dots_1.jpg,left,961.6000000096392,true,high,NA,NA,NA,NA,NA,NA,NA,false
5Vle0SuJ,3hy86pzxq1vtv1ivc3jn7sg3anve1z,3luy3gc633ddqykh1zl9ry2c35zp7b,5Vle0SuJ,2020-0188,2020-11-14,20:05:17,20:24:31,NA,incomplete,69,filling,1,right,Green_Triangle_Dots_3.jpg,Green_Plus_Chess_1.jpg,Red_Circle_Dots_4.jpg,right,843.525000003865,true,high,NA,NA,NA,NA,NA,NA,NA,false
5Vle0SuJ,3hy86pzxq1vtv1ivc3jn7sg3anve1z,3luy3gc633ddqykh1zl9ry2c35zp7b,5Vle0SuJ,2020-0188,2020-11-14,20:05:17,20:24:31,NA,incomplete,70,color,1,right,Purple_Plus_Grid_4.jpg,Green_Triangle_Grid_3.jpg,Purple_Circle_Dots_2.jpg,left,1036.1600000178441,false,high,NA,NA,NA,NA,NA,NA,NA,false
5Vle0SuJ,3hy86pzxq1vtv1ivc3jn7sg3anve1z,3luy3gc633ddqykh1zl9ry2c35zp7b,5Vle0SuJ,2020-0188,2020-11-14,20:05:17,20:24:31,NA,incomplete,71,color,1,left,Blue_Circle_Dots_2.jpg,Blue_Star_Stripes_3.jpg,Purple_Plus_Dots_1.jpg,right,953.1850000203121,false,high,NA,NA,NA,NA,NA,NA,NA,false
5Vle0SuJ,3hy86pzxq1vtv1ivc3jn7sg3anve1z,3luy3gc633ddqykh1zl9ry2c35zp7b,5Vle0SuJ,2020-0188,2020-11-14,20:05:17,20:24:31,NA,incomplete,72,color,1,left,Green_Triangle_Grid_4.jpg,Green_Plus_Dots_1.jpg,Blue_Star_Grid_3.jpg,left,598.1750000210013,true,high,NA,NA,NA,NA,NA,NA,NA,false
5Vle0SuJ,3hy86pzxq1vtv1ivc3jn7sg3anve1z,3luy3gc633ddqykh1zl9ry2c35zp7b,5Vle0SuJ,2020-0188,2020-11-14,20:05:17,20:24:31,NA,incomplete,73,color,1,left,Blue_Triangle_Chess_2.jpg,Blue_Circle_Dots_3.jpg,Purple_Plus_Chess_1.jpg,left,898.5349999857135,true,high,NA,NA,NA,NA,NA,NA,NA,false
5Vle0SuJ,3hy86pzxq1vtv1ivc3jn7sg3anve1z,3luy3gc633ddqykh1zl9ry2c35zp7b,5Vle0SuJ,2020-0188,2020-11-14,20:05:17,20:24:31,NA,incomplete,74,color,1,left,Red_Circle_Stripes_2.jpg,Red_Star_Dots_4.jpg,Blue_Plus_Stripes_1.jpg,left,936.8649999960326,true,high,NA,NA,NA,NA,NA,NA,NA,false
5Vle0SuJ,3hy86pzxq1vtv1ivc3jn7sg3anve1z,3luy3gc633ddqykh1zl9ry2c35zp7b,5Vle0SuJ,2020-0188,2020-11-14,20:05:17,20:24:31,NA,incomplete,75,color,0,left,Blue_Star_Grid_4.jpg,Blue_Circle_Stripes_2.jpg,Purple_Plus_Grid_1.jpg,left,755.8199999912176,true,high,NA,NA,NA,NA,NA,NA,NA,false
5Vle0SuJ,3hy86pzxq1vtv1ivc3jn7sg3anve1z,3luy3gc633ddqykh1zl9ry2c35zp7b,5Vle0SuJ,2020-0188,2020-11-14,20:05:17,20:24:31,NA,incomplete,76,color,1,right,Red_Star_Dots_3.jpg,Blue_Circle_Dots_4.jpg,Red_Plus_Chess_2.jpg,right,565.9549999982119,true,high,NA,NA,NA,NA,NA,NA,NA,false
5Vle0SuJ,3hy86pzxq1vtv1ivc3jn7sg3anve1z,3luy3gc633ddqykh1zl9ry2c35zp7b,5Vle0SuJ,2020-0188,2020-11-14,20:05:17,20:24:31,NA,incomplete,77,color,1,right,Purple_Circle_Grid_2.jpg,Red_Triangle_Grid_4.jpg,Purple_Plus_Dots_1.jpg,right,828.8199999951757,true,high,NA,NA,NA,NA,NA,NA,NA,false
5Vle0SuJ,3hy86pzxq1vtv1ivc3jn7sg3anve1z,3luy3gc633ddqykh1zl9ry2c35zp7b,5Vle0SuJ,2020-0188,2020-11-14,20:05:17,20:24:31,NA,incomplete,78,color,1,left,Green_Plus_Grid_2.jpg,Green_Circle_Dots_1.jpg,Purple_Star_Grid_4.jpg,left,651.0100000014063,true,high,NA,NA,NA,NA,NA,NA,NA,false
5Vle0SuJ,3hy86pzxq1vtv1ivc3jn7sg3anve1z,3luy3gc633ddqykh1zl9ry2c35zp7b,5Vle0SuJ,2020-0188,2020-11-14,20:05:17,20:24:31,NA,incomplete,79,color,1,right,Red_Circle_Chess_2.jpg,Purple_Plus_Chess_1.jpg,Red_Star_Stripes_4.jpg,right,752.3800000199117,true,high,NA,NA,NA,NA,NA,NA,NA,false
5Vle0SuJ,3hy86pzxq1vtv1ivc3jn7sg3anve1z,3luy3gc633ddqykh1zl9ry2c35zp7b,5Vle0SuJ,2020-0188,2020-11-14,20:05:17,20:24:31,NA,incomplete,80,filling,0,left,Red_Circle_Stripes_3.jpg,Purple_Plus_Stripes_2.jpg,Red_Triangle_Dots_4.jpg,right,1073.2999999891035,false,high,NA,NA,NA,NA,NA,NA,NA,false
5Vle0SuJ,3hy86pzxq1vtv1ivc3jn7sg3anve1z,3luy3gc633ddqykh1zl9ry2c35zp7b,5Vle0SuJ,2020-0188,2020-11-14,20:05:17,20:24:31,NA,incomplete,81,filling,1,left,Red_Circle_Dots_3.jpg,Green_Star_Dots_4.jpg,Red_Triangle_Grid_1.jpg,right,549.0550000104122,false,high,NA,NA,NA,NA,NA,NA,NA,false
5Vle0SuJ,3hy86pzxq1vtv1ivc3jn7sg3anve1z,3luy3gc633ddqykh1zl9ry2c35zp7b,5Vle0SuJ,2020-0188,2020-11-14,20:05:17,20:24:31,NA,incomplete,82,filling,1,left,Blue_Triangle_Chess_3.jpg,Red_Plus_Chess_1.jpg,Blue_Circle_Grid_4.jpg,right,772.2150000045076,false,high,NA,NA,NA,NA,NA,NA,NA,false
5Vle0SuJ,3hy86pzxq1vtv1ivc3jn7sg3anve1z,3luy3gc633ddqykh1zl9ry2c35zp7b,5Vle0SuJ,2020-0188,2020-11-14,20:05:17,20:24:31,NA,incomplete,83,filling,1,right,Purple_Plus_Chess_2.jpg,Purple_Triangle_Dots_3.jpg,Red_Star_Chess_1.jpg,left,485.8199999725912,false,high,NA,NA,NA,NA,NA,NA,NA,false
5Vle0SuJ,3hy86pzxq1vtv1ivc3jn7sg3anve1z,3luy3gc633ddqykh1zl9ry2c35zp7b,5Vle0SuJ,2020-0188,2020-11-14,20:05:17,20:24:31,NA,incomplete,84,filling,0,left,Green_Star_Grid_2.jpg,Blue_Plus_Grid_4.jpg,Green_Circle_Chess_1.jpg,left,926.869999995688,true,high,NA,NA,NA,NA,NA,NA,NA,false
5Vle0SuJ,3hy86pzxq1vtv1ivc3jn7sg3anve1z,3luy3gc633ddqykh1zl9ry2c35zp7b,5Vle0SuJ,2020-0188,2020-11-14,20:05:17,20:24:31,NA,incomplete,85,filling,0,right,Green_Circle_Dots_4.jpg,Green_Star_Grid_3.jpg,Blue_Plus_Dots_2.jpg,right,845.0599999923725,true,high,NA,NA,NA,NA,NA,NA,NA,false
5Vle0SuJ,3hy86pzxq1vtv1ivc3jn7sg3anve1z,3luy3gc633ddqykh1zl9ry2c35zp7b,5Vle0SuJ,2020-0188,2020-11-14,20:05:17,20:24:31,NA,incomplete,86,filling,1,left,Blue_Circle_Grid_2.jpg,Purple_Plus_Grid_1.jpg,Blue_Star_Dots_3.jpg,right,632.8800000192132,false,high,NA,NA,NA,NA,NA,NA,NA,false
5Vle0SuJ,3hy86pzxq1vtv1ivc3jn7sg3anve1z,3luy3gc633ddqykh1zl9ry2c35zp7b,5Vle0SuJ,2020-0188,2020-11-14,20:05:17,20:24:31,NA,incomplete,87,filling,1,right,Purple_Plus_Chess_2.jpg,Purple_Star_Grid_4.jpg,Green_Triangle_Chess_3.jpg,left,887.1150000195485,false,high,NA,NA,NA,NA,NA,NA,NA,false
5Vle0SuJ,3hy86pzxq1vtv1ivc3jn7sg3anve1z,3luy3gc633ddqykh1zl9ry2c35zp7b,5Vle0SuJ,2020-0188,2020-11-14,20:05:17,20:24:31,NA,incomplete,88,filling,1,left,Green_Plus_Chess_3.jpg,Red_Circle_Chess_2.jpg,Green_Star_Dots_4.jpg,left,1175.9749999910127,true,high,NA,NA,NA,NA,NA,NA,NA,false
5Vle0SuJ,3hy86pzxq1vtv1ivc3jn7sg3anve1z,3luy3gc633ddqykh1zl9ry2c35zp7b,5Vle0SuJ,2020-0188,2020-11-14,20:05:17,20:24:31,NA,incomplete,89,filling,1,right,Red_Plus_Dots_2.jpg,Red_Star_Stripes_1.jpg,Blue_Triangle_Dots_4.jpg,right,890.6100000021979,true,high,NA,NA,NA,NA,NA,NA,NA,false
5Vle0SuJ,3hy86pzxq1vtv1ivc3jn7sg3anve1z,3luy3gc633ddqykh1zl9ry2c35zp7b,5Vle0SuJ,2020-0188,2020-11-14,20:05:17,20:24:31,NA,incomplete,90,color,0,left,Purple_Circle_Chess_1.jpg,Purple_Plus_Grid_2.jpg,Red_Triangle_Chess_3.jpg,right,1088.0149999866262,false,high,NA,NA,NA,NA,NA,NA,NA,false
5Vle0SuJ,3hy86pzxq1vtv1ivc3jn7sg3anve1z,3luy3gc633ddqykh1zl9ry2c35zp7b,5Vle0SuJ,2020-0188,2020-11-14,20:05:17,20:24:31,NA,incomplete,91,color,1,right,Red_Triangle_Grid_2.jpg,Blue_Circle_Grid_3.jpg,Red_Star_Chess_4.jpg,left,867.1599999943282,false,high,NA,NA,NA,NA,NA,NA,NA,false
5Vle0SuJ,3hy86pzxq1vtv1ivc3jn7sg3anve1z,3luy3gc633ddqykh1zl9ry2c35zp7b,5Vle0SuJ,2020-0188,2020-11-14,20:05:17,20:24:31,NA,incomplete,92,color,0,right,Green_Plus_Stripes_2.jpg,Red_Star_Stripes_3.jpg,Green_Circle_Chess_1.jpg,left,968.9799999759998,false,high,NA,NA,NA,NA,NA,NA,NA,false
5Vle0SuJ,3hy86pzxq1vtv1ivc3jn7sg3anve1z,3luy3gc633ddqykh1zl9ry2c35zp7b,5Vle0SuJ,2020-0188,2020-11-14,20:05:17,20:24:31,NA,incomplete,93,color,1,left,Red_Circle_Stripes_2.jpg,Red_Star_Dots_4.jpg,Green_Triangle_Stripes_1.jpg,right,880.8599999756552,false,high,NA,NA,NA,NA,NA,NA,NA,false
5Vle0SuJ,3hy86pzxq1vtv1ivc3jn7sg3anve1z,3luy3gc633ddqykh1zl9ry2c35zp7b,5Vle0SuJ,2020-0188,2020-11-14,20:05:17,20:24:31,NA,incomplete,94,color,1,right,Blue_Plus_Grid_2.jpg,Purple_Star_Grid_4.jpg,Blue_Triangle_Dots_3.jpg,left,801.1500000138767,false,high,NA,NA,NA,NA,NA,NA,NA,false
5Vle0SuJ,3hy86pzxq1vtv1ivc3jn7sg3anve1z,3luy3gc633ddqykh1zl9ry2c35zp7b,5Vle0SuJ,2020-0188,2020-11-14,20:05:17,20:24:31,NA,incomplete,95,color,1,right,Purple_Triangle_Chess_1.jpg,Green_Star_Chess_3.jpg,Purple_Plus_Dots_2.jpg,left,820.865000016056,false,high,NA,NA,NA,NA,NA,NA,NA,false
5Vle0SuJ,3hy86pzxq1vtv1ivc3jn7sg3anve1z,3luy3gc633ddqykh1zl9ry2c35zp7b,5Vle0SuJ,2020-0188,2020-11-14,20:05:17,20:24:31,NA,incomplete,96,color,1,right,Purple_Circle_Grid_4.jpg,Green_Plus_Grid_1.jpg,Purple_Star_Stripes_2.jpg,right,938.8900000194553,true,high,NA,NA,NA,NA,NA,NA,NA,false
5Vle0SuJ,3hy86pzxq1vtv1ivc3jn7sg3anve1z,3luy3gc633ddqykh1zl9ry2c35zp7b,5Vle0SuJ,2020-0188,2020-11-14,20:05:17,20:24:31,NA,incomplete,97,color,0,left,Green_Star_Grid_4.jpg,Green_Plus_Chess_1.jpg,Blue_Circle_Grid_2.jpg,left,570.2249999740161,true,high,NA,NA,NA,NA,NA,NA,NA,false
5Vle0SuJ,3hy86pzxq1vtv1ivc3jn7sg3anve1z,3luy3gc633ddqykh1zl9ry2c35zp7b,5Vle0SuJ,2020-0188,2020-11-14,20:05:17,20:24:31,NA,incomplete,98,color,1,left,Red_Star_Grid_3.jpg,Red_Circle_Dots_2.jpg,Purple_Triangle_Grid_1.jpg,left,632.179999985965,true,high,NA,NA,NA,NA,NA,NA,NA,false
5Vle0SuJ,3hy86pzxq1vtv1ivc3jn7sg3anve1z,3luy3gc633ddqykh1zl9ry2c35zp7b,5Vle0SuJ,2020-0188,2020-11-14,20:05:17,20:24:31,NA,incomplete,99,color,1,right,Red_Circle_Stripes_2.jpg,Green_Star_Stripes_3.jpg,Red_Triangle_Grid_1.jpg,right,571.0249999829102,true,high,NA,NA,NA,NA,NA,NA,NA,false
5Vle0SuJ,3hy86pzxq1vtv1ivc3jn7sg3anve1z,3luy3gc633ddqykh1zl9ry2c35zp7b,5Vle0SuJ,2020-0188,2020-11-14,20:05:17,20:24:31,NA,incomplete,100,filling,0,right,Purple_Triangle_Chess_3.jpg,Purple_Plus_Dots_1.jpg,Green_Circle_Chess_2.jpg,left,627.1549999946728,false,high,NA,NA,NA,NA,NA,NA,NA,false
5Vle0SuJ,3hy86pzxq1vtv1ivc3jn7sg3anve1z,3luy3gc633ddqykh1zl9ry2c35zp7b,5Vle0SuJ,2020-0188,2020-11-14,20:05:17,20:24:31,NA,incomplete,101,filling,1,right,Green_Star_Chess_1.jpg,Green_Triangle_Stripes_2.jpg,Red_Circle_Chess_4.jpg,left,681.0849999892525,false,high,NA,NA,NA,NA,NA,NA,NA,false
5Vle0SuJ,3hy86pzxq1vtv1ivc3jn7sg3anve1z,3luy3gc633ddqykh1zl9ry2c35zp7b,5Vle0SuJ,2020-0188,2020-11-14,20:05:17,20:24:31,NA,incomplete,102,filling,0,left,Blue_Circle_Grid_2.jpg,Green_Plus_Grid_1.jpg,Blue_Triangle_Stripes_3.jpg,right,525.805000012042,false,high,NA,NA,NA,NA,NA,NA,NA,false
5Vle0SuJ,3hy86pzxq1vtv1ivc3jn7sg3anve1z,3luy3gc633ddqykh1zl9ry2c35zp7b,5Vle0SuJ,2020-0188,2020-11-14,20:05:17,20:24:31,NA,incomplete,103,filling,1,right,Red_Plus_Dots_3.jpg,Red_Circle_Stripes_2.jpg,Purple_Star_Dots_1.jpg,left,811.1599999829195,false,high,NA,NA,NA,NA,NA,NA,NA,false
5Vle0SuJ,3hy86pzxq1vtv1ivc3jn7sg3anve1z,3luy3gc633ddqykh1zl9ry2c35zp7b,5Vle0SuJ,2020-0188,2020-11-14,20:05:17,20:24:31,NA,incomplete,104,filling,0,right,Red_Plus_Chess_4.jpg,Red_Circle_Grid_2.jpg,Green_Triangle_Chess_3.jpg,left,616.8450000113808,false,high,NA,NA,NA,NA,NA,NA,NA,false
5Vle0SuJ,3hy86pzxq1vtv1ivc3jn7sg3anve1z,3luy3gc633ddqykh1zl9ry2c35zp7b,5Vle0SuJ,2020-0188,2020-11-14,20:05:17,20:24:31,NA,incomplete,105,filling,1,right,Green_Plus_Grid_3.jpg,Green_Circle_Dots_1.jpg,Purple_Star_Grid_2.jpg,left,885.8999999938533,false,high,NA,NA,NA,NA,NA,NA,NA,false
5Vle0SuJ,3hy86pzxq1vtv1ivc3jn7sg3anve1z,3luy3gc633ddqykh1zl9ry2c35zp7b,5Vle0SuJ,2020-0188,2020-11-14,20:05:17,20:24:31,NA,incomplete,106,filling,0,right,Red_Circle_Chess_4.jpg,Red_Triangle_Stripes_1.jpg,Purple_Star_Chess_3.jpg,left,707.909999997355,false,high,NA,NA,NA,NA,NA,NA,NA,false
5Vle0SuJ,3hy86pzxq1vtv1ivc3jn7sg3anve1z,3luy3gc633ddqykh1zl9ry2c35zp7b,5Vle0SuJ,2020-0188,2020-11-14,20:05:17,20:24:31,NA,incomplete,107,filling,1,left,Blue_Triangle_Grid_4.jpg,Green_Star_Grid_1.jpg,Blue_Plus_Chess_2.jpg,right,654.4550000107847,false,high,NA,NA,NA,NA,NA,NA,NA,false
5Vle0SuJ,3hy86pzxq1vtv1ivc3jn7sg3anve1z,3luy3gc633ddqykh1zl9ry2c35zp7b,5Vle0SuJ,2020-0188,2020-11-14,20:05:17,20:24:31,NA,incomplete,108,filling,0,right,Red_Circle_Grid_4.jpg,Red_Triangle_Chess_2.jpg,Blue_Plus_Grid_3.jpg,left,567.9050000035204,false,high,NA,NA,NA,NA,NA,NA,NA,false
5Vle0SuJ,3hy86pzxq1vtv1ivc3jn7sg3anve1z,3luy3gc633ddqykh1zl9ry2c35zp7b,5Vle0SuJ,2020-0188,2020-11-14,20:05:17,20:24:31,NA,incomplete,109,filling,1,left,Red_Triangle_Grid_2.jpg,Blue_Star_Grid_4.jpg,Red_Plus_Stripes_1.jpg,right,695.9849999984726,false,high,NA,NA,NA,NA,NA,NA,NA,false
5Vle0SuJ,3hy86pzxq1vtv1ivc3jn7sg3anve1z,3luy3gc633ddqykh1zl9ry2c35zp7b,5Vle0SuJ,2020-0188,2020-11-14,20:05:17,20:24:31,NA,incomplete,110,color,1,left,Purple_Triangle_Stripes_3.jpg,Purple_Circle_Dots_2.jpg,Green_Plus_Stripes_4.jpg,left,688.6399999784771,true,high,NA,NA,NA,NA,NA,NA,NA,false
5Vle0SuJ,3hy86pzxq1vtv1ivc3jn7sg3anve1z,3luy3gc633ddqykh1zl9ry2c35zp7b,5Vle0SuJ,2020-0188,2020-11-14,20:05:17,20:24:31,NA,incomplete,111,color,1,right,Red_Plus_Stripes_2.jpg,Purple_Circle_Stripes_1.jpg,Red_Triangle_Chess_4.jpg,right,568.7800000014249,true,high,NA,NA,NA,NA,NA,NA,NA,false
5Vle0SuJ,3hy86pzxq1vtv1ivc3jn7sg3anve1z,3luy3gc633ddqykh1zl9ry2c35zp7b,5Vle0SuJ,2020-0188,2020-11-14,20:05:17,20:24:31,NA,incomplete,112,color,1,right,Green_Triangle_Grid_2.jpg,Red_Star_Grid_4.jpg,Green_Circle_Stripes_3.jpg,right,639.3049999896903,true,high,NA,NA,NA,NA,NA,NA,NA,false
5Vle0SuJ,3hy86pzxq1vtv1ivc3jn7sg3anve1z,3luy3gc633ddqykh1zl9ry2c35zp7b,5Vle0SuJ,2020-0188,2020-11-14,20:05:17,20:24:31,NA,incomplete,113,color,0,right,Blue_Star_Dots_1.jpg,Red_Triangle_Dots_2.jpg,Blue_Plus_Chess_4.jpg,right,866.9649999937974,true,high,NA,NA,NA,NA,NA,NA,NA,false
5Vle0SuJ,3hy86pzxq1vtv1ivc3jn7sg3anve1z,3luy3gc633ddqykh1zl9ry2c35zp7b,5Vle0SuJ,2020-0188,2020-11-14,20:05:17,20:24:31,NA,incomplete,114,color,1,left,Purple_Triangle_Stripes_3.jpg,Purple_Star_Grid_1.jpg,Blue_Plus_Stripes_2.jpg,left,575.8149999892339,true,high,NA,NA,NA,NA,NA,NA,NA,false
5Vle0SuJ,3hy86pzxq1vtv1ivc3jn7sg3anve1z,3luy3gc633ddqykh1zl9ry2c35zp7b,5Vle0SuJ,2020-0188,2020-11-14,20:05:17,20:24:31,NA,incomplete,115,color,1,left,Blue_Circle_Stripes_2.jpg,Blue_Plus_Chess_3.jpg,Red_Star_Stripes_4.jpg,left,882.4249999888707,true,high,NA,NA,NA,NA,NA,NA,NA,false
5Vle0SuJ,3hy86pzxq1vtv1ivc3jn7sg3anve1z,3luy3gc633ddqykh1zl9ry2c35zp7b,5Vle0SuJ,2020-0188,2020-11-14,20:05:17,20:24:31,NA,incomplete,116,color,1,right,Red_Plus_Grid_3.jpg,Purple_Triangle_Grid_1.jpg,Red_Star_Stripes_2.jpg,right,886.8000000074971,true,high,NA,NA,NA,NA,NA,NA,NA,false
5Vle0SuJ,3hy86pzxq1vtv1ivc3jn7sg3anve1z,3luy3gc633ddqykh1zl9ry2c35zp7b,5Vle0SuJ,2020-0188,2020-11-14,20:05:17,20:24:31,NA,incomplete,117,color,1,right,Red_Triangle_Grid_1.jpg,Green_Plus_Grid_2.jpg,Red_Star_Stripes_4.jpg,right,533.1550000119023,true,high,NA,NA,NA,NA,NA,NA,NA,false
5Vle0SuJ,3hy86pzxq1vtv1ivc3jn7sg3anve1z,3luy3gc633ddqykh1zl9ry2c35zp7b,5Vle0SuJ,2020-0188,2020-11-14,20:05:17,20:24:31,NA,incomplete,118,color,1,right,Green_Star_Dots_2.jpg,Purple_Triangle_Dots_3.jpg,Green_Plus_Chess_4.jpg,right,580.7799999893177,true,high,NA,NA,NA,NA,NA,NA,NA,false
5Vle0SuJ,3hy86pzxq1vtv1ivc3jn7sg3anve1z,3luy3gc633ddqykh1zl9ry2c35zp7b,5Vle0SuJ,2020-0188,2020-11-14,20:05:17,20:24:31,NA,incomplete,119,color,1,right,Green_Plus_Stripes_2.jpg,Red_Star_Stripes_1.jpg,Green_Triangle_Chess_4.jpg,right,592.1399999933783,true,high,NA,NA,NA,NA,NA,NA,NA,false
5Vle0SuJ,3hy86pzxq1vtv1ivc3jn7sg3anve1z,3luy3gc633ddqykh1zl9ry2c35zp7b,5Vle0SuJ,2020-0188,2020-11-14,20:05:17,20:24:31,NA,incomplete,120,filling,1,right,Blue_Circle_Dots_3.jpg,Blue_Star_Chess_1.jpg,Green_Plus_Dots_4.jpg,left,859.8199999833014,false,high,NA,NA,NA,NA,NA,NA,NA,false
5Vle0SuJ,3hy86pzxq1vtv1ivc3jn7sg3anve1z,3luy3gc633ddqykh1zl9ry2c35zp7b,5Vle0SuJ,2020-0188,2020-11-14,20:05:17,20:24:31,NA,incomplete,121,filling,1,right,Blue_Circle_Dots_1.jpg,Blue_Triangle_Stripes_2.jpg,Red_Plus_Dots_4.jpg,left,552.0250000117812,false,high,NA,NA,NA,NA,NA,NA,NA,false
5Vle0SuJ,3hy86pzxq1vtv1ivc3jn7sg3anve1z,3luy3gc633ddqykh1zl9ry2c35zp7b,5Vle0SuJ,2020-0188,2020-11-14,20:05:17,20:24:31,NA,incomplete,122,filling,1,right,Green_Triangle_Chess_4.jpg,Green_Plus_Grid_2.jpg,Purple_Star_Chess_3.jpg,left,734.5050000003539,false,high,NA,NA,NA,NA,NA,NA,NA,false
5Vle0SuJ,3hy86pzxq1vtv1ivc3jn7sg3anve1z,3luy3gc633ddqykh1zl9ry2c35zp7b,5Vle0SuJ,2020-0188,2020-11-14,20:05:17,20:24:31,NA,incomplete,123,filling,1,left,Purple_Triangle_Grid_3.jpg,Blue_Circle_Grid_4.jpg,Purple_Plus_Chess_2.jpg,right,1568.8699999882374,false,high,NA,NA,NA,NA,NA,NA,NA,false
5Vle0SuJ,3hy86pzxq1vtv1ivc3jn7sg3anve1z,3luy3gc633ddqykh1zl9ry2c35zp7b,5Vle0SuJ,2020-0188,2020-11-14,20:05:17,20:24:31,NA,incomplete,124,filling,0,right,Red_Circle_Grid_1.jpg,Red_Star_Dots_3.jpg,Purple_Plus_Grid_2.jpg,right,975.4249999823514,true,high,NA,NA,NA,NA,NA,NA,NA,false
5Vle0SuJ,3hy86pzxq1vtv1ivc3jn7sg3anve1z,3luy3gc633ddqykh1zl9ry2c35zp7b,5Vle0SuJ,2020-0188,2020-11-14,20:05:17,20:24:31,NA,incomplete,125,filling,1,left,Green_Star_Dots_1.jpg,Purple_Circle_Dots_3.jpg,Green_Plus_Chess_4.jpg,left,946.7750000185333,true,high,NA,NA,NA,NA,NA,NA,NA,false
5Vle0SuJ,3hy86pzxq1vtv1ivc3jn7sg3anve1z,3luy3gc633ddqykh1zl9ry2c35zp7b,5Vle0SuJ,2020-0188,2020-11-14,20:05:17,20:24:31,NA,incomplete,126,filling,1,left,Green_Triangle_Grid_4.jpg,Red_Circle_Grid_1.jpg,Green_Plus_Chess_2.jpg,left,937.8849999920931,true,high,NA,NA,NA,NA,NA,NA,NA,false
5Vle0SuJ,3hy86pzxq1vtv1ivc3jn7sg3anve1z,3luy3gc633ddqykh1zl9ry2c35zp7b,5Vle0SuJ,2020-0188,2020-11-14,20:05:17,20:24:31,NA,incomplete,127,filling,1,left,Purple_Plus_Dots_2.jpg,Blue_Circle_Dots_1.jpg,Purple_Triangle_Grid_4.jpg,left,929.3249999755062,true,high,NA,NA,NA,NA,NA,NA,NA,false
5Vle0SuJ,3hy86pzxq1vtv1ivc3jn7sg3anve1z,3luy3gc633ddqykh1zl9ry2c35zp7b,5Vle0SuJ,2020-0188,2020-11-14,20:05:17,20:24:31,NA,incomplete,128,filling,1,right,Red_Circle_Dots_2.jpg,Red_Plus_Grid_4.jpg,Blue_Star_Dots_1.jpg,right,1329.2699999874458,true,high,NA,NA,NA,NA,NA,NA,NA,false
5Vle0SuJ,3hy86pzxq1vtv1ivc3jn7sg3anve1z,3luy3gc633ddqykh1zl9ry2c35zp7b,5Vle0SuJ,2020-0188,2020-11-14,20:05:17,20:24:31,NA,incomplete,129,filling,1,right,Blue_Triangle_Dots_3.jpg,Blue_Star_Stripes_2.jpg,Green_Plus_Dots_4.jpg,right,993.2250000128988,true,high,NA,NA,NA,NA,NA,NA,NA,false
5Vle0SuJ,3hy86pzxq1vtv1ivc3jn7sg3anve1z,3luy3gc633ddqykh1zl9ry2c35zp7b,5Vle0SuJ,2020-0188,2020-11-14,20:05:17,20:24:31,NA,incomplete,130,filling,1,right,Red_Circle_Chess_4.jpg,Red_Triangle_Dots_2.jpg,Purple_Star_Chess_1.jpg,right,922.5849999929778,true,high,NA,NA,NA,NA,NA,NA,NA,false
5Vle0SuJ,3hy86pzxq1vtv1ivc3jn7sg3anve1z,3luy3gc633ddqykh1zl9ry2c35zp7b,5Vle0SuJ,2020-0188,2020-11-14,20:05:17,20:24:31,NA,incomplete,131,filling,1,left,Green_Circle_Dots_2.jpg,Red_Star_Dots_3.jpg,Green_Triangle_Grid_1.jpg,left,975.9049999993294,true,high,NA,NA,NA,NA,NA,NA,NA,false
5Vle0SuJ,3hy86pzxq1vtv1ivc3jn7sg3anve1z,3luy3gc633ddqykh1zl9ry2c35zp7b,5Vle0SuJ,2020-0188,2020-11-14,20:05:17,20:24:31,NA,incomplete,132,filling,1,left,Green_Plus_Grid_1.jpg,Purple_Star_Grid_4.jpg,Green_Circle_Stripes_2.jpg,left,1029.869999998482,true,high,NA,NA,NA,NA,NA,NA,NA,false
5Vle0SuJ,3hy86pzxq1vtv1ivc3jn7sg3anve1z,3luy3gc633ddqykh1zl9ry2c35zp7b,5Vle0SuJ,2020-0188,2020-11-14,20:05:17,20:24:31,NA,incomplete,133,filling,1,left,Purple_Circle_Stripes_3.jpg,Blue_Star_Stripes_1.jpg,Purple_Plus_Dots_2.jpg,left,977.3100000165869,true,high,NA,NA,NA,NA,NA,NA,NA,false
5Vle0SuJ,3hy86pzxq1vtv1ivc3jn7sg3anve1z,3luy3gc633ddqykh1zl9ry2c35zp7b,5Vle0SuJ,2020-0188,2020-11-14,20:05:17,20:24:31,NA,incomplete,134,filling,1,left,Purple_Star_Chess_3.jpg,Blue_Circle_Chess_2.jpg,Purple_Triangle_Stripes_1.jpg,left,959.644999995362,true,high,NA,NA,NA,NA,NA,NA,NA,false
5Vle0SuJ,3hy86pzxq1vtv1ivc3jn7sg3anve1z,3luy3gc633ddqykh1zl9ry2c35zp7b,5Vle0SuJ,2020-0188,2020-11-14,20:05:17,20:24:31,NA,incomplete,135,filling,1,right,Green_Plus_Grid_1.jpg,Green_Star_Chess_2.jpg,Blue_Triangle_Grid_3.jpg,right,970.8600000012666,true,high,NA,NA,NA,NA,NA,NA,NA,false
5Vle0SuJ,3hy86pzxq1vtv1ivc3jn7sg3anve1z,3luy3gc633ddqykh1zl9ry2c35zp7b,5Vle0SuJ,2020-0188,2020-11-14,20:05:17,20:24:31,NA,incomplete,136,filling,1,right,Blue_Plus_Grid_3.jpg,Blue_Circle_Dots_2.jpg,Purple_Triangle_Grid_4.jpg,right,800.2700000070035,true,high,NA,NA,NA,NA,NA,NA,NA,false
5Vle0SuJ,3hy86pzxq1vtv1ivc3jn7sg3anve1z,3luy3gc633ddqykh1zl9ry2c35zp7b,5Vle0SuJ,2020-0188,2020-11-14,20:05:17,20:24:31,NA,incomplete,137,filling,1,left,Red_Plus_Stripes_1.jpg,Purple_Circle_Stripes_4.jpg,Red_Star_Dots_2.jpg,left,699.2500000051223,true,high,NA,NA,NA,NA,NA,NA,NA,false
5Vle0SuJ,3hy86pzxq1vtv1ivc3jn7sg3anve1z,3luy3gc633ddqykh1zl9ry2c35zp7b,5Vle0SuJ,2020-0188,2020-11-14,20:05:17,20:24:31,NA,incomplete,138,filling,0,right,Blue_Plus_Chess_4.jpg,Blue_Star_Stripes_1.jpg,Purple_Circle_Chess_2.jpg,right,826.5900000114925,true,high,NA,NA,NA,NA,NA,NA,NA,false
5Vle0SuJ,3hy86pzxq1vtv1ivc3jn7sg3anve1z,3luy3gc633ddqykh1zl9ry2c35zp7b,5Vle0SuJ,2020-0188,2020-11-14,20:05:17,20:24:31,NA,incomplete,139,filling,1,left,Purple_Plus_Chess_2.jpg,Blue_Star_Chess_3.jpg,Purple_Triangle_Stripes_4.jpg,left,781.2949999934062,true,high,NA,NA,NA,NA,NA,NA,NA,false
5Vle0SuJ,3hy86pzxq1vtv1ivc3jn7sg3anve1z,3luy3gc633ddqykh1zl9ry2c35zp7b,5Vle0SuJ,2020-0188,2020-11-14,20:05:17,20:24:31,NA,incomplete,140,color,1,left,Green_Plus_Dots_3.jpg,Green_Triangle_Grid_1.jpg,Purple_Star_Dots_2.jpg,right,960.9650000056718,false,high,NA,NA,NA,NA,NA,NA,NA,false
5Vle0SuJ,3hy86pzxq1vtv1ivc3jn7sg3anve1z,3luy3gc633ddqykh1zl9ry2c35zp7b,5Vle0SuJ,2020-0188,2020-11-14,20:05:17,20:24:31,NA,incomplete,141,color,1,left,Purple_Circle_Chess_1.jpg,Purple_Triangle_Stripes_4.jpg,Blue_Plus_Chess_3.jpg,right,859.9749999993946,false,high,NA,NA,NA,NA,NA,NA,NA,false
5Vle0SuJ,3hy86pzxq1vtv1ivc3jn7sg3anve1z,3luy3gc633ddqykh1zl9ry2c35zp7b,5Vle0SuJ,2020-0188,2020-11-14,20:05:17,20:24:31,NA,incomplete,142,color,1,left,Green_Circle_Grid_2.jpg,Green_Triangle_Chess_4.jpg,Red_Star_Grid_1.jpg,left,434.96500002220273,true,high,NA,NA,NA,NA,NA,NA,NA,false
5Vle0SuJ,3hy86pzxq1vtv1ivc3jn7sg3anve1z,3luy3gc633ddqykh1zl9ry2c35zp7b,5Vle0SuJ,2020-0188,2020-11-14,20:05:17,20:24:31,NA,incomplete,143,color,0,left,Purple_Circle_Stripes_1.jpg,Purple_Plus_Grid_4.jpg,Green_Star_Stripes_2.jpg,left,625.1399999891873,true,high,NA,NA,NA,NA,NA,NA,NA,false
5Vle0SuJ,3hy86pzxq1vtv1ivc3jn7sg3anve1z,3luy3gc633ddqykh1zl9ry2c35zp7b,5Vle0SuJ,2020-0188,2020-11-14,20:05:17,20:24:31,NA,incomplete,144,color,1,left,Green_Plus_Grid_4.jpg,Green_Star_Stripes_1.jpg,Red_Circle_Grid_3.jpg,left,686.7400000046473,true,high,NA,NA,NA,NA,NA,NA,NA,false
5Vle0SuJ,3hy86pzxq1vtv1ivc3jn7sg3anve1z,3luy3gc633ddqykh1zl9ry2c35zp7b,5Vle0SuJ,2020-0188,2020-11-14,20:05:17,20:24:31,NA,incomplete,145,color,1,left,Green_Plus_Grid_2.jpg,Green_Circle_Dots_3.jpg,Blue_Triangle_Grid_4.jpg,left,592.7450000017416,true,high,NA,NA,NA,NA,NA,NA,NA,false
5Vle0SuJ,3hy86pzxq1vtv1ivc3jn7sg3anve1z,3luy3gc633ddqykh1zl9ry2c35zp7b,5Vle0SuJ,2020-0188,2020-11-14,20:05:17,20:24:31,NA,incomplete,146,color,0,right,Red_Star_Grid_2.jpg,Green_Triangle_Grid_3.jpg,Red_Plus_Dots_4.jpg,right,675.6600000080653,true,high,NA,NA,NA,NA,NA,NA,NA,false
5Vle0SuJ,3hy86pzxq1vtv1ivc3jn7sg3anve1z,3luy3gc633ddqykh1zl9ry2c35zp7b,5Vle0SuJ,2020-0188,2020-11-14,20:05:17,20:24:31,NA,incomplete,147,color,1,left,Green_Plus_Grid_2.jpg,Green_Circle_Dots_4.jpg,Purple_Star_Grid_1.jpg,left,454.22499999403954,true,high,NA,NA,NA,NA,NA,NA,NA,false
5Vle0SuJ,3hy86pzxq1vtv1ivc3jn7sg3anve1z,3luy3gc633ddqykh1zl9ry2c35zp7b,5Vle0SuJ,2020-0188,2020-11-14,20:05:17,20:24:31,NA,incomplete,148,color,0,left,Red_Star_Stripes_3.jpg,Red_Plus_Grid_4.jpg,Purple_Circle_Stripes_2.jpg,left,553.1999999948312,true,high,NA,NA,NA,NA,NA,NA,NA,false
5Vle0SuJ,3hy86pzxq1vtv1ivc3jn7sg3anve1z,3luy3gc633ddqykh1zl9ry2c35zp7b,5Vle0SuJ,2020-0188,2020-11-14,20:05:17,20:24:31,NA,incomplete,149,color,1,right,Blue_Circle_Chess_3.jpg,Red_Triangle_Chess_2.jpg,Blue_Plus_Grid_4.jpg,right,487.0200000004843,true,high,NA,NA,NA,NA,NA,NA,NA,false
5Vle0SuJ,3hy86pzxq1vtv1ivc3jn7sg3anve1z,3luy3gc633ddqykh1zl9ry2c35zp7b,5Vle0SuJ,2020-0188,2020-11-14,20:05:17,20:24:31,NA,incomplete,150,color,1,left,Red_Circle_Stripes_1.jpg,Red_Triangle_Chess_4.jpg,Green_Star_Stripes_3.jpg,left,651.5099999960512,true,high,NA,NA,NA,NA,NA,NA,NA,false
5Vle0SuJ,3hy86pzxq1vtv1ivc3jn7sg3anve1z,3luy3gc633ddqykh1zl9ry2c35zp7b,5Vle0SuJ,2020-0188,2020-11-14,20:05:17,20:24:31,NA,incomplete,151,color,1,right,Blue_Triangle_Dots_3.jpg,Red_Circle_Dots_1.jpg,Blue_Star_Chess_2.jpg,right,544.3699999887031,true,high,NA,NA,NA,NA,NA,NA,NA,false
5Vle0SuJ,3hy86pzxq1vtv1ivc3jn7sg3anve1z,3luy3gc633ddqykh1zl9ry2c35zp7b,5Vle0SuJ,2020-0188,2020-11-14,20:05:17,20:24:31,NA,incomplete,152,color,1,right,Purple_Star_Grid_2.jpg,Red_Circle_Grid_1.jpg,Purple_Plus_Dots_4.jpg,right,572.9900000151247,true,high,NA,NA,NA,NA,NA,NA,NA,false
5Vle0SuJ,3hy86pzxq1vtv1ivc3jn7sg3anve1z,3luy3gc633ddqykh1zl9ry2c35zp7b,5Vle0SuJ,2020-0188,2020-11-14,20:05:17,20:24:31,NA,incomplete,153,color,1,left,Green_Triangle_Grid_1.jpg,Green_Plus_Dots_2.jpg,Purple_Circle_Grid_4.jpg,left,543.5449999931734,true,high,NA,NA,NA,NA,NA,NA,NA,false
5Vle0SuJ,3hy86pzxq1vtv1ivc3jn7sg3anve1z,3luy3gc633ddqykh1zl9ry2c35zp7b,5Vle0SuJ,2020-0188,2020-11-14,20:05:17,20:24:31,NA,incomplete,154,color,1,left,Green_Plus_Chess_3.jpg,Green_Triangle_Dots_2.jpg,Purple_Star_Chess_1.jpg,left,646.1699999927077,true,high,NA,NA,NA,NA,NA,NA,NA,false
5Vle0SuJ,3hy86pzxq1vtv1ivc3jn7sg3anve1z,3luy3gc633ddqykh1zl9ry2c35zp7b,5Vle0SuJ,2020-0188,2020-11-14,20:05:17,20:24:31,NA,incomplete,155,color,1,right,Purple_Triangle_Stripes_2.jpg,Red_Star_Stripes_3.jpg,Purple_Circle_Chess_1.jpg,right,592.7500000107102,true,high,NA,NA,NA,NA,NA,NA,NA,false
5Vle0SuJ,3hy86pzxq1vtv1ivc3jn7sg3anve1z,3luy3gc633ddqykh1zl9ry2c35zp7b,5Vle0SuJ,2020-0188,2020-11-14,20:05:17,20:24:31,NA,incomplete,156,color,1,right,Purple_Plus_Grid_2.jpg,Blue_Circle_Grid_1.jpg,Purple_Star_Chess_3.jpg,right,522.7949999971315,true,high,NA,NA,NA,NA,NA,NA,NA,false
5Vle0SuJ,3hy86pzxq1vtv1ivc3jn7sg3anve1z,3luy3gc633ddqykh1zl9ry2c35zp7b,5Vle0SuJ,2020-0188,2020-11-14,20:05:17,20:24:31,NA,incomplete,157,color,1,left,Purple_Plus_Stripes_4.jpg,Purple_Star_Grid_2.jpg,Blue_Circle_Stripes_1.jpg,left,557.7399999892805,true,high,NA,NA,NA,NA,NA,NA,NA,false
5Vle0SuJ,3hy86pzxq1vtv1ivc3jn7sg3anve1z,3luy3gc633ddqykh1zl9ry2c35zp7b,5Vle0SuJ,2020-0188,2020-11-14,20:05:17,20:24:31,NA,incomplete,158,color,1,left,Red_Circle_Dots_2.jpg,Red_Triangle_Chess_1.jpg,Blue_Star_Dots_3.jpg,right,906.3200000091456,false,high,NA,NA,NA,NA,NA,NA,NA,false
5Vle0SuJ,3hy86pzxq1vtv1ivc3jn7sg3anve1z,3luy3gc633ddqykh1zl9ry2c35zp7b,5Vle0SuJ,2020-0188,2020-11-14,20:05:17,20:24:31,NA,incomplete,159,color,0,right,Purple_Plus_Chess_4.jpg,Blue_Triangle_Chess_3.jpg,Purple_Circle_Dots_2.jpg,right,783.7599999911617,true,high,NA,NA,NA,NA,NA,NA,NA,false
5Vle0SuJ,3hy86pzxq1vtv1ivc3jn7sg3anve1z,3luy3gc633ddqykh1zl9ry2c35zp7b,5Vle0SuJ,2020-0188,2020-11-14,20:05:17,20:24:31,NA,incomplete,160,filling,1,right,Green_Plus_Dots_2.jpg,Green_Triangle_Stripes_3.jpg,Purple_Circle_Dots_1.jpg,left,691.129999991972,false,high,NA,NA,NA,NA,NA,NA,NA,false
5Vle0SuJ,3hy86pzxq1vtv1ivc3jn7sg3anve1z,3luy3gc633ddqykh1zl9ry2c35zp7b,5Vle0SuJ,2020-0188,2020-11-14,20:05:17,20:24:31,NA,incomplete,161,filling,0,right,Green_Circle_Stripes_2.jpg,Green_Triangle_Chess_4.jpg,Blue_Star_Stripes_1.jpg,right,798.5550000157673,true,high,NA,NA,NA,NA,NA,NA,NA,false
5Vle0SuJ,3hy86pzxq1vtv1ivc3jn7sg3anve1z,3luy3gc633ddqykh1zl9ry2c35zp7b,5Vle0SuJ,2020-0188,2020-11-14,20:05:17,20:24:31,NA,incomplete,162,filling,1,right,Blue_Circle_Stripes_1.jpg,Blue_Star_Dots_2.jpg,Red_Plus_Stripes_3.jpg,right,796.0850000090431,true,high,NA,NA,NA,NA,NA,NA,NA,false
5Vle0SuJ,3hy86pzxq1vtv1ivc3jn7sg3anve1z,3luy3gc633ddqykh1zl9ry2c35zp7b,5Vle0SuJ,2020-0188,2020-11-14,20:05:17,20:24:31,NA,incomplete,163,filling,1,left,Purple_Circle_Grid_3.jpg,Red_Triangle_Grid_1.jpg,Purple_Star_Stripes_2.jpg,left,863.1450000102632,true,high,NA,NA,NA,NA,NA,NA,NA,false
5Vle0SuJ,3hy86pzxq1vtv1ivc3jn7sg3anve1z,3luy3gc633ddqykh1zl9ry2c35zp7b,5Vle0SuJ,2020-0188,2020-11-14,20:05:17,20:24:31,NA,incomplete,164,filling,0,right,Blue_Circle_Dots_4.jpg,Blue_Triangle_Chess_2.jpg,Green_Plus_Dots_1.jpg,right,884.5649999857415,true,high,NA,NA,NA,NA,NA,NA,NA,false
5Vle0SuJ,3hy86pzxq1vtv1ivc3jn7sg3anve1z,3luy3gc633ddqykh1zl9ry2c35zp7b,5Vle0SuJ,2020-0188,2020-11-14,20:05:17,20:24:31,NA,incomplete,165,filling,1,left,Blue_Circle_Chess_1.jpg,Red_Triangle_Chess_3.jpg,Blue_Plus_Stripes_2.jpg,left,788.170000014361,true,high,NA,NA,NA,NA,NA,NA,NA,false
5Vle0SuJ,3hy86pzxq1vtv1ivc3jn7sg3anve1z,3luy3gc633ddqykh1zl9ry2c35zp7b,5Vle0SuJ,2020-0188,2020-11-14,20:05:17,20:24:31,NA,incomplete,166,filling,0,right,Purple_Star_Stripes_4.jpg,Purple_Plus_Chess_1.jpg,Red_Circle_Stripes_3.jpg,right,807.0599999919068,true,high,NA,NA,NA,NA,NA,NA,NA,false
5Vle0SuJ,3hy86pzxq1vtv1ivc3jn7sg3anve1z,3luy3gc633ddqykh1zl9ry2c35zp7b,5Vle0SuJ,2020-0188,2020-11-14,20:05:17,20:24:31,NA,incomplete,167,filling,1,right,Red_Plus_Stripes_3.jpg,Red_Star_Chess_1.jpg,Green_Circle_Stripes_4.jpg,right,752.3950000177138,true,high,NA,NA,NA,NA,NA,NA,NA,false
5Vle0SuJ,3hy86pzxq1vtv1ivc3jn7sg3anve1z,3luy3gc633ddqykh1zl9ry2c35zp7b,5Vle0SuJ,2020-0188,2020-11-14,20:05:17,20:24:31,NA,incomplete,168,filling,1,right,Red_Star_Dots_1.jpg,Red_Circle_Chess_4.jpg,Green_Triangle_Dots_2.jpg,right,790.7199999899603,true,high,NA,NA,NA,NA,NA,NA,NA,false
5Vle0SuJ,3hy86pzxq1vtv1ivc3jn7sg3anve1z,3luy3gc633ddqykh1zl9ry2c35zp7b,5Vle0SuJ,2020-0188,2020-11-14,20:05:17,20:24:31,NA,incomplete,169,filling,1,left,Blue_Circle_Chess_3.jpg,Green_Star_Chess_4.jpg,Blue_Plus_Grid_1.jpg,left,758.9450000086799,true,high,NA,NA,NA,NA,NA,NA,NA,false
5Vle0SuJ,3hy86pzxq1vtv1ivc3jn7sg3anve1z,3luy3gc633ddqykh1zl9ry2c35zp7b,5Vle0SuJ,2020-0188,2020-11-14,20:05:17,20:24:31,NA,incomplete,170,filling,1,right,Red_Circle_Stripes_1.jpg,Red_Triangle_Grid_2.jpg,Green_Plus_Stripes_4.jpg,right,895.7949999894481,true,high,NA,NA,NA,NA,NA,NA,NA,false
5Vle0SuJ,3hy86pzxq1vtv1ivc3jn7sg3anve1z,3luy3gc633ddqykh1zl9ry2c35zp7b,5Vle0SuJ,2020-0188,2020-11-14,20:05:17,20:24:31,NA,incomplete,171,filling,1,left,Green_Circle_Stripes_2.jpg,Purple_Star_Stripes_3.jpg,Green_Plus_Dots_4.jpg,left,870.7549999817275,true,high,NA,NA,NA,NA,NA,NA,NA,false
5Vle0SuJ,3hy86pzxq1vtv1ivc3jn7sg3anve1z,3luy3gc633ddqykh1zl9ry2c35zp7b,5Vle0SuJ,2020-0188,2020-11-14,20:05:17,20:24:31,NA,incomplete,172,filling,1,right,Purple_Star_Chess_1.jpg,Purple_Plus_Dots_4.jpg,Blue_Triangle_Chess_2.jpg,right,891.3599999796133,true,high,NA,NA,NA,NA,NA,NA,NA,false
5Vle0SuJ,3hy86pzxq1vtv1ivc3jn7sg3anve1z,3luy3gc633ddqykh1zl9ry2c35zp7b,5Vle0SuJ,2020-0188,2020-11-14,20:05:17,20:24:31,NA,incomplete,173,filling,1,left,Red_Star_Dots_3.jpg,Purple_Circle_Dots_4.jpg,Red_Plus_Stripes_1.jpg,left,791.2650000071153,true,high,NA,NA,NA,NA,NA,NA,NA,false
5Vle0SuJ,3hy86pzxq1vtv1ivc3jn7sg3anve1z,3luy3gc633ddqykh1zl9ry2c35zp7b,5Vle0SuJ,2020-0188,2020-11-14,20:05:17,20:24:31,NA,incomplete,174,filling,0,right,Green_Triangle_Chess_4.jpg,Green_Circle_Dots_2.jpg,Red_Star_Chess_3.jpg,right,713.9299999980722,true,high,NA,NA,NA,NA,NA,NA,NA,false
5Vle0SuJ,3hy86pzxq1vtv1ivc3jn7sg3anve1z,3luy3gc633ddqykh1zl9ry2c35zp7b,5Vle0SuJ,2020-0188,2020-11-14,20:05:17,20:24:31,NA,incomplete,175,filling,1,left,Green_Plus_Chess_2.jpg,Blue_Star_Chess_4.jpg,Green_Circle_Grid_1.jpg,left,1011.9199999899138,true,high,NA,NA,NA,NA,NA,NA,NA,false
5Vle0SuJ,3hy86pzxq1vtv1ivc3jn7sg3anve1z,3luy3gc633ddqykh1zl9ry2c35zp7b,5Vle0SuJ,2020-0188,2020-11-14,20:05:17,20:24:31,NA,incomplete,176,filling,1,right,Green_Star_Chess_2.jpg,Green_Triangle_Stripes_1.jpg,Purple_Circle_Chess_4.jpg,right,1126.0149999870919,true,high,NA,NA,NA,NA,NA,NA,NA,false
5Vle0SuJ,3hy86pzxq1vtv1ivc3jn7sg3anve1z,3luy3gc633ddqykh1zl9ry2c35zp7b,5Vle0SuJ,2020-0188,2020-11-14,20:05:17,20:24:31,NA,incomplete,177,filling,0,left,Green_Plus_Dots_3.jpg,Blue_Circle_Dots_2.jpg,Green_Star_Grid_4.jpg,left,715.939999994589,true,high,NA,NA,NA,NA,NA,NA,NA,false
5Vle0SuJ,3hy86pzxq1vtv1ivc3jn7sg3anve1z,3luy3gc633ddqykh1zl9ry2c35zp7b,5Vle0SuJ,2020-0188,2020-11-14,20:05:17,20:24:31,NA,incomplete,178,filling,1,right,Blue_Triangle_Dots_4.jpg,Blue_Star_Stripes_3.jpg,Green_Plus_Dots_1.jpg,right,708.4099999919999,true,high,NA,NA,NA,NA,NA,NA,NA,false
5Vle0SuJ,3hy86pzxq1vtv1ivc3jn7sg3anve1z,3luy3gc633ddqykh1zl9ry2c35zp7b,5Vle0SuJ,2020-0188,2020-11-14,20:05:17,20:24:31,NA,incomplete,179,filling,1,right,Purple_Triangle_Dots_3.jpg,Purple_Circle_Stripes_1.jpg,Blue_Star_Dots_2.jpg,right,1015.994999994291,true,high,NA,NA,NA,NA,NA,NA,NA,false
5Vle0SuJ,3hy86pzxq1vtv1ivc3jn7sg3anve1z,3luy3gc633ddqykh1zl9ry2c35zp7b,5Vle0SuJ,2020-0188,2020-11-14,20:05:17,20:24:31,NA,incomplete,180,color,1,right,Purple_Circle_Chess_4.jpg,Green_Triangle_Chess_3.jpg,Purple_Star_Grid_2.jpg,left,726.5949999855366,false,high,NA,NA,NA,NA,NA,NA,NA,false
5Vle0SuJ,3hy86pzxq1vtv1ivc3jn7sg3anve1z,3luy3gc633ddqykh1zl9ry2c35zp7b,5Vle0SuJ,2020-0188,2020-11-14,20:05:17,20:24:31,NA,incomplete,181,color,1,right,Blue_Triangle_Dots_4.jpg,Purple_Circle_Dots_3.jpg,Blue_Star_Grid_2.jpg,left,771.260000008624,false,high,NA,NA,NA,NA,NA,NA,NA,false
5Vle0SuJ,3hy86pzxq1vtv1ivc3jn7sg3anve1z,3luy3gc633ddqykh1zl9ry2c35zp7b,5Vle0SuJ,2020-0188,2020-11-14,20:05:17,20:24:31,NA,incomplete,182,color,1,left,Purple_Star_Stripes_4.jpg,Purple_Plus_Dots_2.jpg,Blue_Circle_Stripes_1.jpg,left,750.1099999935832,true,high,NA,NA,NA,NA,NA,NA,NA,false
5Vle0SuJ,3hy86pzxq1vtv1ivc3jn7sg3anve1z,3luy3gc633ddqykh1zl9ry2c35zp7b,5Vle0SuJ,2020-0188,2020-11-14,20:05:17,20:24:31,NA,incomplete,183,color,1,left,Green_Star_Dots_1.jpg,Green_Circle_Chess_4.jpg,Blue_Triangle_Dots_3.jpg,left,581.5800000273157,true,high,NA,NA,NA,NA,NA,NA,NA,false
5Vle0SuJ,3hy86pzxq1vtv1ivc3jn7sg3anve1z,3luy3gc633ddqykh1zl9ry2c35zp7b,5Vle0SuJ,2020-0188,2020-11-14,20:05:17,20:24:31,NA,incomplete,184,color,1,right,Green_Triangle_Chess_4.jpg,Red_Circle_Chess_3.jpg,Green_Star_Grid_1.jpg,right,515.3250000148546,true,high,NA,NA,NA,NA,NA,NA,NA,false
5Vle0SuJ,3hy86pzxq1vtv1ivc3jn7sg3anve1z,3luy3gc633ddqykh1zl9ry2c35zp7b,5Vle0SuJ,2020-0188,2020-11-14,20:05:17,20:24:31,NA,incomplete,185,color,1,right,Green_Circle_Dots_4.jpg,Blue_Plus_Dots_2.jpg,Green_Triangle_Stripes_1.jpg,right,456.6950000007637,true,high,NA,NA,NA,NA,NA,NA,NA,false
5Vle0SuJ,3hy86pzxq1vtv1ivc3jn7sg3anve1z,3luy3gc633ddqykh1zl9ry2c35zp7b,5Vle0SuJ,2020-0188,2020-11-14,20:05:17,20:24:31,NA,incomplete,186,color,1,right,Green_Plus_Dots_2.jpg,Red_Triangle_Dots_4.jpg,Green_Circle_Grid_1.jpg,right,396.2549999996554,true,high,NA,NA,NA,NA,NA,NA,NA,false
5Vle0SuJ,3hy86pzxq1vtv1ivc3jn7sg3anve1z,3luy3gc633ddqykh1zl9ry2c35zp7b,5Vle0SuJ,2020-0188,2020-11-14,20:05:17,20:24:31,NA,incomplete,187,color,1,left,Blue_Star_Grid_1.jpg,Blue_Triangle_Dots_2.jpg,Purple_Plus_Grid_4.jpg,left,365.92499999096617,true,high,NA,NA,NA,NA,NA,NA,NA,false
5Vle0SuJ,3hy86pzxq1vtv1ivc3jn7sg3anve1z,3luy3gc633ddqykh1zl9ry2c35zp7b,5Vle0SuJ,2020-0188,2020-11-14,20:05:17,20:24:31,NA,incomplete,188,color,1,right,Purple_Circle_Grid_3.jpg,Blue_Plus_Grid_4.jpg,Purple_Star_Dots_2.jpg,right,443.7249999900814,true,high,NA,NA,NA,NA,NA,NA,NA,false
5Vle0SuJ,3hy86pzxq1vtv1ivc3jn7sg3anve1z,3luy3gc633ddqykh1zl9ry2c35zp7b,5Vle0SuJ,2020-0188,2020-11-14,20:05:17,20:24:31,NA,incomplete,189,color,1,right,Purple_Circle_Dots_4.jpg,Green_Triangle_Dots_3.jpg,Purple_Star_Chess_2.jpg,right,456.37999998871237,true,high,NA,NA,NA,NA,NA,NA,NA,false
5Vle0SuJ,3hy86pzxq1vtv1ivc3jn7sg3anve1z,3luy3gc633ddqykh1zl9ry2c35zp7b,5Vle0SuJ,2020-0188,2020-11-14,20:05:17,20:24:31,NA,incomplete,190,color,1,left,Blue_Circle_Stripes_2.jpg,Blue_Star_Grid_4.jpg,Purple_Triangle_Stripes_3.jpg,left,447.1400000038557,true,high,NA,NA,NA,NA,NA,NA,NA,false
5Vle0SuJ,3hy86pzxq1vtv1ivc3jn7sg3anve1z,3luy3gc633ddqykh1zl9ry2c35zp7b,5Vle0SuJ,2020-0188,2020-11-14,20:05:17,20:24:31,NA,incomplete,191,color,1,left,Blue_Circle_Grid_2.jpg,Blue_Star_Chess_3.jpg,Purple_Triangle_Grid_1.jpg,left,406.8200000037905,true,high,NA,NA,NA,NA,NA,NA,NA,false
5Vle0SuJ,3hy86pzxq1vtv1ivc3jn7sg3anve1z,3luy3gc633ddqykh1zl9ry2c35zp7b,5Vle0SuJ,2020-0188,2020-11-14,20:05:17,20:24:31,NA,incomplete,192,color,1,right,Red_Triangle_Grid_2.jpg,Green_Plus_Grid_1.jpg,Red_Star_Chess_3.jpg,right,383.5749999852851,true,high,NA,NA,NA,NA,NA,NA,NA,false
5Vle0SuJ,3hy86pzxq1vtv1ivc3jn7sg3anve1z,3luy3gc633ddqykh1zl9ry2c35zp7b,5Vle0SuJ,2020-0188,2020-11-14,20:05:17,20:24:31,NA,incomplete,193,color,1,left,Purple_Triangle_Chess_1.jpg,Purple_Circle_Dots_2.jpg,Blue_Plus_Chess_3.jpg,left,460.0999999966007,true,high,NA,NA,NA,NA,NA,NA,NA,false
5Vle0SuJ,3hy86pzxq1vtv1ivc3jn7sg3anve1z,3luy3gc633ddqykh1zl9ry2c35zp7b,5Vle0SuJ,2020-0188,2020-11-14,20:05:17,20:24:31,NA,incomplete,194,color,1,right,Purple_Star_Chess_2.jpg,Red_Plus_Chess_1.jpg,Purple_Triangle_Grid_3.jpg,right,395.90500001213513,true,high,NA,NA,NA,NA,NA,NA,NA,false
5Vle0SuJ,3hy86pzxq1vtv1ivc3jn7sg3anve1z,3luy3gc633ddqykh1zl9ry2c35zp7b,5Vle0SuJ,2020-0188,2020-11-14,20:05:17,20:24:31,NA,incomplete,195,color,0,right,Purple_Star_Stripes_4.jpg,Red_Plus_Stripes_3.jpg,Purple_Circle_Dots_2.jpg,right,497.2450000059325,true,high,NA,NA,NA,NA,NA,NA,NA,false
5Vle0SuJ,3hy86pzxq1vtv1ivc3jn7sg3anve1z,3luy3gc633ddqykh1zl9ry2c35zp7b,5Vle0SuJ,2020-0188,2020-11-14,20:05:17,20:24:31,NA,incomplete,196,color,1,right,Purple_Triangle_Dots_4.jpg,Blue_Star_Dots_2.jpg,Purple_Circle_Chess_3.jpg,right,504.7400000039488,true,high,NA,NA,NA,NA,NA,NA,NA,false
5Vle0SuJ,3hy86pzxq1vtv1ivc3jn7sg3anve1z,3luy3gc633ddqykh1zl9ry2c35zp7b,5Vle0SuJ,2020-0188,2020-11-14,20:05:17,20:24:31,NA,incomplete,197,color,0,right,Red_Plus_Chess_3.jpg,Blue_Star_Chess_1.jpg,Red_Triangle_Stripes_2.jpg,right,616.9050000025891,true,high,NA,NA,NA,NA,NA,NA,NA,false
5Vle0SuJ,3hy86pzxq1vtv1ivc3jn7sg3anve1z,3luy3gc633ddqykh1zl9ry2c35zp7b,5Vle0SuJ,2020-0188,2020-11-14,20:05:17,20:24:31,NA,incomplete,198,color,1,left,Purple_Plus_Chess_1.jpg,Purple_Circle_Dots_3.jpg,Green_Triangle_Chess_2.jpg,left,402.4900000076741,true,high,NA,NA,NA,NA,NA,NA,NA,false
5Vle0SuJ,3hy86pzxq1vtv1ivc3jn7sg3anve1z,3luy3gc633ddqykh1zl9ry2c35zp7b,5Vle0SuJ,2020-0188,2020-11-14,20:05:17,20:24:31,NA,incomplete,199,color,0,right,Purple_Plus_Stripes_4.jpg,Green_Triangle_Stripes_1.jpg,Purple_Star_Grid_2.jpg,right,536.6849999991246,true,high,NA,NA,NA,NA,NA,NA,NA,false
5Vle0SuJ,3hy86pzxq1vtv1ivc3jn7sg3anve1z,3luy3gc633ddqykh1zl9ry2c35zp7b,5Vle0SuJ,2020-0188,2020-11-14,20:05:17,20:24:31,NA,incomplete,200,filling,1,right,Red_Triangle_Chess_3.jpg,Red_Circle_Grid_4.jpg,Blue_Star_Chess_1.jpg,left,486.9899999757763,false,high,NA,NA,NA,NA,NA,NA,NA,false
5Vle0SuJ,3hy86pzxq1vtv1ivc3jn7sg3anve1z,3luy3gc633ddqykh1zl9ry2c35zp7b,5Vle0SuJ,2020-0188,2020-11-14,20:05:17,20:24:31,NA,incomplete,201,filling,1,left,Green_Plus_Dots_4.jpg,Red_Triangle_Dots_2.jpg,Green_Star_Grid_1.jpg,right,459.9549999984447,false,high,NA,NA,NA,NA,NA,NA,NA,false
5Vle0SuJ,3hy86pzxq1vtv1ivc3jn7sg3anve1z,3luy3gc633ddqykh1zl9ry2c35zp7b,5Vle0SuJ,2020-0188,2020-11-14,20:05:17,20:24:31,NA,incomplete,202,filling,0,left,Purple_Triangle_Grid_2.jpg,Green_Star_Grid_4.jpg,Purple_Circle_Dots_3.jpg,left,965.2350000105798,true,high,NA,NA,NA,NA,NA,NA,NA,false
5Vle0SuJ,3hy86pzxq1vtv1ivc3jn7sg3anve1z,3luy3gc633ddqykh1zl9ry2c35zp7b,5Vle0SuJ,2020-0188,2020-11-14,20:05:17,20:24:31,NA,incomplete,203,filling,1,right,Blue_Triangle_Chess_1.jpg,Blue_Circle_Stripes_3.jpg,Red_Plus_Chess_2.jpg,right,721.4000000094529,true,high,NA,NA,NA,NA,NA,NA,NA,false
5Vle0SuJ,3hy86pzxq1vtv1ivc3jn7sg3anve1z,3luy3gc633ddqykh1zl9ry2c35zp7b,5Vle0SuJ,2020-0188,2020-11-14,20:05:17,20:24:31,NA,incomplete,204,filling,0,right,Red_Circle_Stripes_2.jpg,Red_Plus_Dots_4.jpg,Green_Star_Stripes_3.jpg,right,884.5650000148453,true,high,NA,NA,NA,NA,NA,NA,NA,false
5Vle0SuJ,3hy86pzxq1vtv1ivc3jn7sg3anve1z,3luy3gc633ddqykh1zl9ry2c35zp7b,5Vle0SuJ,2020-0188,2020-11-14,20:05:17,20:24:31,NA,incomplete,205,filling,1,right,Blue_Plus_Chess_3.jpg,Blue_Star_Dots_2.jpg,Red_Triangle_Chess_4.jpg,right,794.6550000051502,true,high,NA,NA,NA,NA,NA,NA,NA,false
5Vle0SuJ,3hy86pzxq1vtv1ivc3jn7sg3anve1z,3luy3gc633ddqykh1zl9ry2c35zp7b,5Vle0SuJ,2020-0188,2020-11-14,20:05:17,20:24:31,NA,incomplete,206,filling,1,right,Blue_Star_Stripes_1.jpg,Blue_Circle_Dots_2.jpg,Red_Plus_Stripes_3.jpg,right,665.0549999903888,true,high,NA,NA,NA,NA,NA,NA,NA,false
5Vle0SuJ,3hy86pzxq1vtv1ivc3jn7sg3anve1z,3luy3gc633ddqykh1zl9ry2c35zp7b,5Vle0SuJ,2020-0188,2020-11-14,20:05:17,20:24:31,NA,incomplete,207,filling,0,left,Blue_Star_Stripes_4.jpg,Green_Triangle_Stripes_2.jpg,Blue_Circle_Dots_1.jpg,left,709.8950000072364,true,high,NA,NA,NA,NA,NA,NA,NA,false
5Vle0SuJ,3hy86pzxq1vtv1ivc3jn7sg3anve1z,3luy3gc633ddqykh1zl9ry2c35zp7b,5Vle0SuJ,2020-0188,2020-11-14,20:05:17,20:24:31,NA,incomplete,208,filling,1,right,Blue_Triangle_Stripes_1.jpg,Blue_Star_Dots_4.jpg,Green_Circle_Stripes_2.jpg,right,637.4100000248291,true,high,NA,NA,NA,NA,NA,NA,NA,false
5Vle0SuJ,3hy86pzxq1vtv1ivc3jn7sg3anve1z,3luy3gc633ddqykh1zl9ry2c35zp7b,5Vle0SuJ,2020-0188,2020-11-14,20:05:17,20:24:31,NA,incomplete,209,filling,0,left,Purple_Triangle_Dots_3.jpg,Blue_Star_Dots_4.jpg,Purple_Plus_Stripes_1.jpg,left,850.4900000116322,true,high,NA,NA,NA,NA,NA,NA,NA,false
5Vle0SuJ,3hy86pzxq1vtv1ivc3jn7sg3anve1z,3luy3gc633ddqykh1zl9ry2c35zp7b,5Vle0SuJ,2020-0188,2020-11-14,20:05:17,20:24:31,NA,incomplete,210,filling,1,right,Purple_Triangle_Dots_4.jpg,Purple_Plus_Grid_2.jpg,Green_Circle_Dots_3.jpg,right,772.8349999815691,true,high,NA,NA,NA,NA,NA,NA,NA,false
5Vle0SuJ,3hy86pzxq1vtv1ivc3jn7sg3anve1z,3luy3gc633ddqykh1zl9ry2c35zp7b,5Vle0SuJ,2020-0188,2020-11-14,20:05:17,20:24:31,NA,incomplete,211,filling,1,right,Blue_Triangle_Grid_3.jpg,Blue_Plus_Stripes_1.jpg,Purple_Circle_Grid_2.jpg,right,702.820000005886,true,high,NA,NA,NA,NA,NA,NA,NA,false
5Vle0SuJ,3hy86pzxq1vtv1ivc3jn7sg3anve1z,3luy3gc633ddqykh1zl9ry2c35zp7b,5Vle0SuJ,2020-0188,2020-11-14,20:05:17,20:24:31,NA,incomplete,212,filling,0,left,Purple_Circle_Stripes_3.jpg,Blue_Triangle_Stripes_2.jpg,Purple_Star_Grid_1.jpg,left,667.0849999936763,true,high,NA,NA,NA,NA,NA,NA,NA,false
5Vle0SuJ,3hy86pzxq1vtv1ivc3jn7sg3anve1z,3luy3gc633ddqykh1zl9ry2c35zp7b,5Vle0SuJ,2020-0188,2020-11-14,20:05:17,20:24:31,NA,incomplete,213,filling,1,right,Red_Circle_Chess_1.jpg,Red_Star_Stripes_2.jpg,Purple_Triangle_Chess_4.jpg,right,717.8299999795854,true,high,NA,NA,NA,NA,NA,NA,NA,false
5Vle0SuJ,3hy86pzxq1vtv1ivc3jn7sg3anve1z,3luy3gc633ddqykh1zl9ry2c35zp7b,5Vle0SuJ,2020-0188,2020-11-14,20:05:17,20:24:31,NA,incomplete,214,filling,1,right,Red_Star_Stripes_1.jpg,Red_Plus_Grid_4.jpg,Blue_Circle_Stripes_3.jpg,right,759.7700000042096,true,high,NA,NA,NA,NA,NA,NA,NA,false
5Vle0SuJ,3hy86pzxq1vtv1ivc3jn7sg3anve1z,3luy3gc633ddqykh1zl9ry2c35zp7b,5Vle0SuJ,2020-0188,2020-11-14,20:05:17,20:24:31,NA,incomplete,215,filling,1,left,Blue_Star_Chess_1.jpg,Red_Triangle_Chess_3.jpg,Blue_Circle_Stripes_4.jpg,left,767.9300000017975,true,high,NA,NA,NA,NA,NA,NA,NA,false
5Vle0SuJ,3hy86pzxq1vtv1ivc3jn7sg3anve1z,3luy3gc633ddqykh1zl9ry2c35zp7b,5Vle0SuJ,2020-0188,2020-11-14,20:05:17,20:24:31,NA,incomplete,216,filling,1,right,Purple_Circle_Chess_3.jpg,Purple_Triangle_Grid_4.jpg,Green_Plus_Chess_2.jpg,right,854.5249999733642,true,high,NA,NA,NA,NA,NA,NA,NA,false
5Vle0SuJ,3hy86pzxq1vtv1ivc3jn7sg3anve1z,3luy3gc633ddqykh1zl9ry2c35zp7b,5Vle0SuJ,2020-0188,2020-11-14,20:05:17,20:24:31,NA,incomplete,217,filling,1,right,Red_Plus_Dots_1.jpg,Red_Star_Grid_2.jpg,Green_Triangle_Dots_3.jpg,right,810.4749999765772,true,high,NA,NA,NA,NA,NA,NA,NA,false
5Vle0SuJ,3hy86pzxq1vtv1ivc3jn7sg3anve1z,3luy3gc633ddqykh1zl9ry2c35zp7b,5Vle0SuJ,2020-0188,2020-11-14,20:05:17,20:24:31,NA,incomplete,218,filling,1,right,Green_Plus_Grid_2.jpg,Green_Circle_Dots_1.jpg,Red_Star_Grid_4.jpg,right,704.3349999876227,true,high,NA,NA,NA,NA,NA,NA,NA,false
5Vle0SuJ,3hy86pzxq1vtv1ivc3jn7sg3anve1z,3luy3gc633ddqykh1zl9ry2c35zp7b,5Vle0SuJ,2020-0188,2020-11-14,20:05:17,20:24:31,NA,incomplete,219,filling,1,right,Green_Circle_Dots_2.jpg,Green_Star_Chess_3.jpg,Purple_Plus_Dots_4.jpg,right,736.6849999816623,true,high,NA,NA,NA,NA,NA,NA,NA,false
5Vle0SuJ,3hy86pzxq1vtv1ivc3jn7sg3anve1z,3luy3gc633ddqykh1zl9ry2c35zp7b,5Vle0SuJ,2020-0188,2020-11-14,20:05:17,20:24:31,NA,incomplete,220,color,0,right,Purple_Triangle_Stripes_2.jpg,Green_Circle_Stripes_1.jpg,Purple_Star_Grid_4.jpg,left,936.9299999962095,false,high,NA,NA,NA,NA,NA,NA,NA,false
5Vle0SuJ,3hy86pzxq1vtv1ivc3jn7sg3anve1z,3luy3gc633ddqykh1zl9ry2c35zp7b,5Vle0SuJ,2020-0188,2020-11-14,20:05:17,20:24:31,NA,incomplete,221,color,1,left,Red_Circle_Dots_3.jpg,Red_Plus_Grid_2.jpg,Green_Star_Dots_1.jpg,right,607.9699999827426,false,high,NA,NA,NA,NA,NA,NA,NA,false
5Vle0SuJ,3hy86pzxq1vtv1ivc3jn7sg3anve1z,3luy3gc633ddqykh1zl9ry2c35zp7b,5Vle0SuJ,2020-0188,2020-11-14,20:05:17,20:24:31,NA,incomplete,222,color,1,right,Blue_Plus_Dots_3.jpg,Green_Circle_Dots_4.jpg,Blue_Triangle_Stripes_2.jpg,left,739.3450000090525,false,high,NA,NA,NA,NA,NA,NA,NA,false
5Vle0SuJ,3hy86pzxq1vtv1ivc3jn7sg3anve1z,3luy3gc633ddqykh1zl9ry2c35zp7b,5Vle0SuJ,2020-0188,2020-11-14,20:05:17,20:24:31,NA,incomplete,223,color,0,right,Purple_Circle_Dots_4.jpg,Green_Triangle_Dots_2.jpg,Purple_Plus_Grid_3.jpg,right,613.2249999791384,true,high,NA,NA,NA,NA,NA,NA,NA,false
5Vle0SuJ,3hy86pzxq1vtv1ivc3jn7sg3anve1z,3luy3gc633ddqykh1zl9ry2c35zp7b,5Vle0SuJ,2020-0188,2020-11-14,20:05:17,20:24:31,NA,incomplete,224,color,1,right,Blue_Star_Dots_1.jpg,Purple_Circle_Dots_3.jpg,Blue_Triangle_Grid_4.jpg,right,606.0299999953713,true,high,NA,NA,NA,NA,NA,NA,NA,false
5Vle0SuJ,3hy86pzxq1vtv1ivc3jn7sg3anve1z,3luy3gc633ddqykh1zl9ry2c35zp7b,5Vle0SuJ,2020-0188,2020-11-14,20:05:17,20:24:31,NA,incomplete,225,color,1,right,Purple_Circle_Chess_2.jpg,Green_Plus_Chess_3.jpg,Purple_Star_Stripes_4.jpg,right,507.8349999967031,true,high,NA,NA,NA,NA,NA,NA,NA,false
5Vle0SuJ,3hy86pzxq1vtv1ivc3jn7sg3anve1z,3luy3gc633ddqykh1zl9ry2c35zp7b,5Vle0SuJ,2020-0188,2020-11-14,20:05:17,20:24:31,NA,incomplete,226,color,1,right,Red_Circle_Chess_3.jpg,Purple_Star_Chess_1.jpg,Red_Plus_Dots_4.jpg,right,629.8200000019278,true,high,NA,NA,NA,NA,NA,NA,NA,false
5Vle0SuJ,3hy86pzxq1vtv1ivc3jn7sg3anve1z,3luy3gc633ddqykh1zl9ry2c35zp7b,5Vle0SuJ,2020-0188,2020-11-14,20:05:17,20:24:31,NA,incomplete,227,color,1,left,Green_Circle_Dots_4.jpg,Green_Triangle_Grid_2.jpg,Blue_Plus_Dots_1.jpg,left,429.13999999291264,true,high,NA,NA,NA,NA,NA,NA,NA,false
5Vle0SuJ,3hy86pzxq1vtv1ivc3jn7sg3anve1z,3luy3gc633ddqykh1zl9ry2c35zp7b,5Vle0SuJ,2020-0188,2020-11-14,20:05:17,20:24:31,NA,incomplete,228,color,1,right,Blue_Star_Dots_3.jpg,Red_Plus_Dots_2.jpg,Blue_Triangle_Stripes_4.jpg,right,496.15500000072643,true,high,NA,NA,NA,NA,NA,NA,NA,false
5Vle0SuJ,3hy86pzxq1vtv1ivc3jn7sg3anve1z,3luy3gc633ddqykh1zl9ry2c35zp7b,5Vle0SuJ,2020-0188,2020-11-14,20:05:17,20:24:31,NA,incomplete,229,color,1,right,Blue_Triangle_Chess_1.jpg,Green_Star_Chess_4.jpg,Blue_Plus_Dots_3.jpg,right,478.7699999869801,true,high,NA,NA,NA,NA,NA,NA,NA,false
5Vle0SuJ,3hy86pzxq1vtv1ivc3jn7sg3anve1z,3luy3gc633ddqykh1zl9ry2c35zp7b,5Vle0SuJ,2020-0188,2020-11-14,20:05:17,20:24:31,NA,incomplete,230,color,1,left,Green_Plus_Dots_3.jpg,Green_Star_Grid_2.jpg,Purple_Circle_Dots_4.jpg,left,468.525000003865,true,high,NA,NA,NA,NA,NA,NA,NA,false
5Vle0SuJ,3hy86pzxq1vtv1ivc3jn7sg3anve1z,3luy3gc633ddqykh1zl9ry2c35zp7b,5Vle0SuJ,2020-0188,2020-11-14,20:05:17,20:24:31,NA,incomplete,231,color,1,right,Blue_Star_Dots_1.jpg,Red_Plus_Dots_3.jpg,Blue_Circle_Grid_4.jpg,right,580.4999999818392,true,high,NA,NA,NA,NA,NA,NA,NA,false
5Vle0SuJ,3hy86pzxq1vtv1ivc3jn7sg3anve1z,3luy3gc633ddqykh1zl9ry2c35zp7b,5Vle0SuJ,2020-0188,2020-11-14,20:05:17,20:24:31,NA,incomplete,232,color,0,right,Red_Triangle_Stripes_2.jpg,Blue_Plus_Stripes_4.jpg,Red_Circle_Chess_1.jpg,right,575.9299999917857,true,high,NA,NA,NA,NA,NA,NA,NA,false
5Vle0SuJ,3hy86pzxq1vtv1ivc3jn7sg3anve1z,3luy3gc633ddqykh1zl9ry2c35zp7b,5Vle0SuJ,2020-0188,2020-11-14,20:05:17,20:24:31,NA,incomplete,233,color,1,left,Red_Triangle_Stripes_3.jpg,Red_Star_Chess_2.jpg,Blue_Plus_Stripes_4.jpg,left,556.6049999906681,true,high,NA,NA,NA,NA,NA,NA,NA,false
5Vle0SuJ,3hy86pzxq1vtv1ivc3jn7sg3anve1z,3luy3gc633ddqykh1zl9ry2c35zp7b,5Vle0SuJ,2020-0188,2020-11-14,20:05:17,20:24:31,NA,incomplete,234,color,1,right,Red_Circle_Chess_4.jpg,Green_Star_Chess_1.jpg,Red_Plus_Dots_2.jpg,right,446.63999998010695,true,high,NA,NA,NA,NA,NA,NA,NA,false
5Vle0SuJ,3hy86pzxq1vtv1ivc3jn7sg3anve1z,3luy3gc633ddqykh1zl9ry2c35zp7b,5Vle0SuJ,2020-0188,2020-11-14,20:05:17,20:24:31,NA,incomplete,235,color,1,right,Blue_Triangle_Chess_1.jpg,Red_Star_Chess_3.jpg,Blue_Plus_Grid_4.jpg,right,570.305000001099,true,high,NA,NA,NA,NA,NA,NA,NA,false
5Vle0SuJ,3hy86pzxq1vtv1ivc3jn7sg3anve1z,3luy3gc633ddqykh1zl9ry2c35zp7b,5Vle0SuJ,2020-0188,2020-11-14,20:05:17,20:24:31,NA,incomplete,236,color,0,left,Red_Star_Chess_3.jpg,Red_Plus_Stripes_4.jpg,Green_Triangle_Chess_1.jpg,left,495.31499997829087,true,high,NA,NA,NA,NA,NA,NA,NA,false
5Vle0SuJ,3hy86pzxq1vtv1ivc3jn7sg3anve1z,3luy3gc633ddqykh1zl9ry2c35zp7b,5Vle0SuJ,2020-0188,2020-11-14,20:05:17,20:24:31,NA,incomplete,237,color,1,left,Red_Triangle_Stripes_4.jpg,Red_Star_Chess_3.jpg,Blue_Circle_Stripes_2.jpg,left,491.38500000117347,true,high,NA,NA,NA,NA,NA,NA,NA,false
5Vle0SuJ,3hy86pzxq1vtv1ivc3jn7sg3anve1z,3luy3gc633ddqykh1zl9ry2c35zp7b,5Vle0SuJ,2020-0188,2020-11-14,20:05:17,20:24:31,NA,incomplete,238,color,0,right,Purple_Plus_Dots_4.jpg,Red_Circle_Dots_1.jpg,Purple_Triangle_Chess_3.jpg,right,478.46499999286607,true,high,NA,NA,NA,NA,NA,NA,NA,false
5Vle0SuJ,3hy86pzxq1vtv1ivc3jn7sg3anve1z,3luy3gc633ddqykh1zl9ry2c35zp7b,5Vle0SuJ,2020-0188,2020-11-14,20:05:17,20:24:31,NA,incomplete,239,color,1,left,Blue_Triangle_Chess_4.jpg,Blue_Plus_Dots_2.jpg,Red_Star_Chess_3.jpg,left,503.9249999972526,true,high,NA,NA,NA,NA,NA,NA,NA,false
5Vle0SuJ,3hy86pzxq1vtv1ivc3jn7sg3anve1z,3luy3gc633ddqykh1zl9ry2c35zp7b,5Vle0SuJ,2020-0188,2020-11-14,20:05:17,20:24:31,1136602.6799999818,1155940.7499999797,NA,NA,NA,NA,NA,NA,NA,NA,NA,NA,NA,34,White/Caucasian,Female,white,no,yes,yes,undefined
