workerId,hitId,assignmentId,subject,studyid,exp_date,exp_start,exp_end,time_start,time_end,trial,type,reward_validity,answer,image_top,image_left,image_right,response,response_time,response_acc,volatility,practice
igabYPGE,3r6rzgk0yip7nifkjif6ljfzh9ayv2,3nc5l260msz8krnm4i66qqa3t09fo1,igabYPGE,2020-0188,2020-11-21,08:47:09,09:27:48,NA,incomplete,0,shape,0,left,Green_Circle_Grid_2.jpg,Blue_Circle_Stripes_1.jpg,Red_Triangle_Chess_2.jpg,left,1078.6799998022616,true,NA,true
igabYPGE,3r6rzgk0yip7nifkjif6ljfzh9ayv2,3nc5l260msz8krnm4i66qqa3t09fo1,igabYPGE,2020-0188,2020-11-21,08:47:09,09:27:48,NA,incomplete,1,shape,0,right,Red_Star_Stripes_3.jpg,Purple_Plus_Grid_3.jpg,Green_Star_Chess_4.jpg,right,1109.470000024885,true,NA,true
igabYPGE,3r6rzgk0yip7nifkjif6ljfzh9ayv2,3nc5l260msz8krnm4i66qqa3t09fo1,igabYPGE,2020-0188,2020-11-21,08:47:09,09:27:48,NA,incomplete,2,shape,1,right,Purple_Plus_Chess_2.jpg,Green_Star_Grid_2.jpg,Red_Plus_Stripes_1.jpg,right,1022.6999996230006,true,NA,true
igabYPGE,3r6rzgk0yip7nifkjif6ljfzh9ayv2,3nc5l260msz8krnm4i66qqa3t09fo1,igabYPGE,2020-0188,2020-11-21,08:47:09,09:27:48,NA,incomplete,3,shape,1,left,Red_Circle_Grid_2.jpg,Blue_Circle_Dots_4.jpg,Green_Star_Chess_2.jpg,left,1148.4300000593066,true,NA,true
igabYPGE,3r6rzgk0yip7nifkjif6ljfzh9ayv2,3nc5l260msz8krnm4i66qqa3t09fo1,igabYPGE,2020-0188,2020-11-21,08:47:09,09:27:48,NA,incomplete,4,shape,1,right,Purple_Star_Dots_2.jpg,Blue_Triangle_Chess_2.jpg,Red_Star_Grid_1.jpg,right,925.8650001138449,true,NA,true
igabYPGE,3r6rzgk0yip7nifkjif6ljfzh9ayv2,3nc5l260msz8krnm4i66qqa3t09fo1,igabYPGE,2020-0188,2020-11-21,08:47:09,09:27:48,NA,incomplete,5,shape,1,left,Blue_Plus_Stripes_4.jpg,Green_Plus_Chess_1.jpg,Purple_Circle_Dots_4.jpg,left,835.8599999919534,true,NA,true
igabYPGE,3r6rzgk0yip7nifkjif6ljfzh9ayv2,3nc5l260msz8krnm4i66qqa3t09fo1,igabYPGE,2020-0188,2020-11-21,08:47:09,09:27:48,NA,incomplete,6,shape,1,right,Red_Circle_Stripes_2.jpg,Purple_Star_Grid_2.jpg,Green_Circle_Chess_1.jpg,right,925.41000014171,true,NA,true
igabYPGE,3r6rzgk0yip7nifkjif6ljfzh9ayv2,3nc5l260msz8krnm4i66qqa3t09fo1,igabYPGE,2020-0188,2020-11-21,08:47:09,09:27:48,NA,incomplete,7,shape,0,right,Green_Circle_Stripes_3.jpg,Blue_Plus_Chess_3.jpg,Red_Circle_Dots_1.jpg,right,1550.3200003877282,true,NA,true
igabYPGE,3r6rzgk0yip7nifkjif6ljfzh9ayv2,3nc5l260msz8krnm4i66qqa3t09fo1,igabYPGE,2020-0188,2020-11-21,08:47:09,09:27:48,NA,incomplete,8,shape,1,right,Red_Star_Grid_1.jpg,Green_Circle_Stripes_1.jpg,Purple_Star_Chess_3.jpg,left,1377.9600001871586,false,NA,true
igabYPGE,3r6rzgk0yip7nifkjif6ljfzh9ayv2,3nc5l260msz8krnm4i66qqa3t09fo1,igabYPGE,2020-0188,2020-11-21,08:47:09,09:27:48,NA,incomplete,9,shape,1,left,Purple_Triangle_Stripes_3.jpg,Red_Triangle_Dots_2.jpg,Blue_Circle_Grid_3.jpg,left,1042.2999998554587,true,NA,true
igabYPGE,3r6rzgk0yip7nifkjif6ljfzh9ayv2,3nc5l260msz8krnm4i66qqa3t09fo1,igabYPGE,2020-0188,2020-11-21,08:47:09,09:27:48,NA,incomplete,10,shape,0,right,Blue_Plus_Grid_2.jpg,Red_Circle_Stripes_2.jpg,Purple_Plus_Dots_3.jpg,right,986.7749996483326,true,NA,true
igabYPGE,3r6rzgk0yip7nifkjif6ljfzh9ayv2,3nc5l260msz8krnm4i66qqa3t09fo1,igabYPGE,2020-0188,2020-11-21,08:47:09,09:27:48,NA,incomplete,11,shape,1,left,Blue_Circle_Grid_2.jpg,Green_Circle_Stripes_3.jpg,Red_Triangle_Chess_2.jpg,left,856.5999995917082,true,NA,true
igabYPGE,3r6rzgk0yip7nifkjif6ljfzh9ayv2,3nc5l260msz8krnm4i66qqa3t09fo1,igabYPGE,2020-0188,2020-11-21,08:47:09,09:27:48,NA,incomplete,12,shape,1,right,Purple_Circle_Grid_2.jpg,Blue_Triangle_Dots_2.jpg,Green_Circle_Chess_1.jpg,right,818.7600001692772,true,NA,true
igabYPGE,3r6rzgk0yip7nifkjif6ljfzh9ayv2,3nc5l260msz8krnm4i66qqa3t09fo1,igabYPGE,2020-0188,2020-11-21,08:47:09,09:27:48,NA,incomplete,13,shape,1,right,Blue_Circle_Stripes_2.jpg,Green_Triangle_Grid_2.jpg,Red_Circle_Dots_3.jpg,right,929.1599998250604,true,NA,true
igabYPGE,3r6rzgk0yip7nifkjif6ljfzh9ayv2,3nc5l260msz8krnm4i66qqa3t09fo1,igabYPGE,2020-0188,2020-11-21,08:47:09,09:27:48,NA,incomplete,14,shape,1,left,Green_Triangle_Stripes_2.jpg,Purple_Triangle_Chess_3.jpg,Red_Plus_Dots_2.jpg,left,968.4199998155236,true,NA,true
igabYPGE,3r6rzgk0yip7nifkjif6ljfzh9ayv2,3nc5l260msz8krnm4i66qqa3t09fo1,igabYPGE,2020-0188,2020-11-21,08:47:09,09:27:48,NA,incomplete,15,shape,1,left,Red_Plus_Dots_2.jpg,Blue_Plus_Chess_3.jpg,Purple_Circle_Grid_2.jpg,left,1153.595000039786,true,NA,true
igabYPGE,3r6rzgk0yip7nifkjif6ljfzh9ayv2,3nc5l260msz8krnm4i66qqa3t09fo1,igabYPGE,2020-0188,2020-11-21,08:47:09,09:27:48,NA,incomplete,16,shape,0,left,Green_Circle_Stripes_4.jpg,Red_Circle_Chess_3.jpg,Blue_Star_Grid_4.jpg,left,944.0549998544157,true,NA,true
igabYPGE,3r6rzgk0yip7nifkjif6ljfzh9ayv2,3nc5l260msz8krnm4i66qqa3t09fo1,igabYPGE,2020-0188,2020-11-21,08:47:09,09:27:48,NA,incomplete,17,shape,1,left,Green_Triangle_Grid_1.jpg,Red_Triangle_Dots_3.jpg,Blue_Star_Chess_1.jpg,left,1167.6799999549985,true,NA,true
igabYPGE,3r6rzgk0yip7nifkjif6ljfzh9ayv2,3nc5l260msz8krnm4i66qqa3t09fo1,igabYPGE,2020-0188,2020-11-21,08:47:09,09:27:48,NA,incomplete,18,shape,1,right,Purple_Circle_Stripes_1.jpg,Red_Star_Grid_1.jpg,Blue_Circle_Dots_4.jpg,right,1047.0100003294647,true,NA,true
igabYPGE,3r6rzgk0yip7nifkjif6ljfzh9ayv2,3nc5l260msz8krnm4i66qqa3t09fo1,igabYPGE,2020-0188,2020-11-21,08:47:09,09:27:48,NA,incomplete,19,shape,1,right,Blue_Plus_Grid_3.jpg,Red_Circle_Stripes_3.jpg,Green_Plus_Dots_2.jpg,right,1119.084999896586,true,NA,true
igabYPGE,3r6rzgk0yip7nifkjif6ljfzh9ayv2,3nc5l260msz8krnm4i66qqa3t09fo1,igabYPGE,2020-0188,2020-11-21,08:47:09,09:27:48,NA,incomplete,20,number,1,right,Red_Circle_Dots_4.jpg,Purple_Circle_Stripes_2.jpg,Blue_Star_Chess_4.jpg,left,1380.2700000815094,false,NA,true
igabYPGE,3r6rzgk0yip7nifkjif6ljfzh9ayv2,3nc5l260msz8krnm4i66qqa3t09fo1,igabYPGE,2020-0188,2020-11-21,08:47:09,09:27:48,NA,incomplete,21,number,1,right,Red_Triangle_Dots_3.jpg,Green_Triangle_Stripes_2.jpg,Blue_Circle_Grid_3.jpg,left,1075.8050000295043,false,NA,true
igabYPGE,3r6rzgk0yip7nifkjif6ljfzh9ayv2,3nc5l260msz8krnm4i66qqa3t09fo1,igabYPGE,2020-0188,2020-11-21,08:47:09,09:27:48,NA,incomplete,22,number,1,left,Red_Circle_Grid_3.jpg,Green_Plus_Dots_3.jpg,Purple_Circle_Stripes_4.jpg,right,939.1200002282858,false,NA,true
igabYPGE,3r6rzgk0yip7nifkjif6ljfzh9ayv2,3nc5l260msz8krnm4i66qqa3t09fo1,igabYPGE,2020-0188,2020-11-21,08:47:09,09:27:48,NA,incomplete,23,number,1,left,Green_Triangle_Grid_2.jpg,Red_Plus_Dots_2.jpg,Purple_Triangle_Stripes_3.jpg,left,1452.6950004510581,true,NA,true
igabYPGE,3r6rzgk0yip7nifkjif6ljfzh9ayv2,3nc5l260msz8krnm4i66qqa3t09fo1,igabYPGE,2020-0188,2020-11-21,08:47:09,09:27:48,NA,incomplete,24,number,1,right,Red_Plus_Stripes_1.jpg,Blue_Plus_Chess_4.jpg,Green_Circle_Grid_1.jpg,right,1176.7750000581145,true,NA,true
igabYPGE,3r6rzgk0yip7nifkjif6ljfzh9ayv2,3nc5l260msz8krnm4i66qqa3t09fo1,igabYPGE,2020-0188,2020-11-21,08:47:09,09:27:48,NA,incomplete,25,number,1,left,Blue_Triangle_Stripes_1.jpg,Red_Plus_Dots_1.jpg,Purple_Triangle_Grid_4.jpg,left,1131.2500000931323,true,NA,true
igabYPGE,3r6rzgk0yip7nifkjif6ljfzh9ayv2,3nc5l260msz8krnm4i66qqa3t09fo1,igabYPGE,2020-0188,2020-11-21,08:47:09,09:27:48,NA,incomplete,26,number,1,right,Green_Plus_Dots_4.jpg,Red_Plus_Grid_3.jpg,Purple_Triangle_Stripes_4.jpg,right,1116.2199997343123,true,NA,true
igabYPGE,3r6rzgk0yip7nifkjif6ljfzh9ayv2,3nc5l260msz8krnm4i66qqa3t09fo1,igabYPGE,2020-0188,2020-11-21,08:47:09,09:27:48,NA,incomplete,27,number,1,left,Purple_Circle_Stripes_4.jpg,Green_Plus_Grid_4.jpg,Red_Circle_Chess_3.jpg,left,1377.4500000290573,true,NA,true
igabYPGE,3r6rzgk0yip7nifkjif6ljfzh9ayv2,3nc5l260msz8krnm4i66qqa3t09fo1,igabYPGE,2020-0188,2020-11-21,08:47:09,09:27:48,NA,incomplete,28,number,1,left,Red_Star_Chess_1.jpg,Blue_Plus_Dots_1.jpg,Purple_Star_Stripes_4.jpg,left,1091.470000334084,true,NA,true
igabYPGE,3r6rzgk0yip7nifkjif6ljfzh9ayv2,3nc5l260msz8krnm4i66qqa3t09fo1,igabYPGE,2020-0188,2020-11-21,08:47:09,09:27:48,NA,incomplete,29,number,1,left,Blue_Plus_Dots_2.jpg,Red_Circle_Chess_2.jpg,Purple_Plus_Stripes_1.jpg,left,1157.5849996879697,true,NA,true
igabYPGE,3r6rzgk0yip7nifkjif6ljfzh9ayv2,3nc5l260msz8krnm4i66qqa3t09fo1,igabYPGE,2020-0188,2020-11-21,08:47:09,09:27:48,NA,incomplete,30,number,1,left,Blue_Triangle_Grid_1.jpg,Green_Circle_Dots_1.jpg,Purple_Triangle_Stripes_4.jpg,left,1092.2749997116625,true,NA,true
igabYPGE,3r6rzgk0yip7nifkjif6ljfzh9ayv2,3nc5l260msz8krnm4i66qqa3t09fo1,igabYPGE,2020-0188,2020-11-21,08:47:09,09:27:48,NA,incomplete,31,number,0,left,Red_Star_Stripes_1.jpg,Blue_Plus_Grid_1.jpg,Green_Star_Dots_4.jpg,left,1118.5500002466142,true,NA,true
igabYPGE,3r6rzgk0yip7nifkjif6ljfzh9ayv2,3nc5l260msz8krnm4i66qqa3t09fo1,igabYPGE,2020-0188,2020-11-21,08:47:09,09:27:48,NA,incomplete,32,number,1,right,Purple_Plus_Grid_2.jpg,Green_Plus_Chess_4.jpg,Red_Star_Stripes_2.jpg,right,882.1400003507733,true,NA,true
igabYPGE,3r6rzgk0yip7nifkjif6ljfzh9ayv2,3nc5l260msz8krnm4i66qqa3t09fo1,igabYPGE,2020-0188,2020-11-21,08:47:09,09:27:48,NA,incomplete,33,number,1,left,Blue_Plus_Chess_3.jpg,Red_Star_Dots_3.jpg,Green_Plus_Grid_1.jpg,none,0,false,NA,true
igabYPGE,3r6rzgk0yip7nifkjif6ljfzh9ayv2,3nc5l260msz8krnm4i66qqa3t09fo1,igabYPGE,2020-0188,2020-11-21,08:47:09,09:27:48,NA,incomplete,34,number,1,left,Red_Star_Chess_4.jpg,Purple_Plus_Dots_4.jpg,Green_Star_Stripes_3.jpg,left,1778.0349999666214,true,NA,true
igabYPGE,3r6rzgk0yip7nifkjif6ljfzh9ayv2,3nc5l260msz8krnm4i66qqa3t09fo1,igabYPGE,2020-0188,2020-11-21,08:47:09,09:27:48,NA,incomplete,35,number,1,left,Red_Plus_Grid_4.jpg,Green_Circle_Stripes_4.jpg,Blue_Plus_Chess_3.jpg,left,1596.9899999909103,true,NA,true
igabYPGE,3r6rzgk0yip7nifkjif6ljfzh9ayv2,3nc5l260msz8krnm4i66qqa3t09fo1,igabYPGE,2020-0188,2020-11-21,08:47:09,09:27:48,NA,incomplete,36,number,1,left,Red_Plus_Stripes_1.jpg,Blue_Circle_Dots_1.jpg,Purple_Plus_Grid_2.jpg,left,1005.6099998764694,true,NA,true
igabYPGE,3r6rzgk0yip7nifkjif6ljfzh9ayv2,3nc5l260msz8krnm4i66qqa3t09fo1,igabYPGE,2020-0188,2020-11-21,08:47:09,09:27:48,NA,incomplete,37,number,0,left,Red_Plus_Grid_2.jpg,Blue_Star_Stripes_2.jpg,Purple_Plus_Dots_4.jpg,left,1042.1649999916553,true,NA,true
igabYPGE,3r6rzgk0yip7nifkjif6ljfzh9ayv2,3nc5l260msz8krnm4i66qqa3t09fo1,igabYPGE,2020-0188,2020-11-21,08:47:09,09:27:48,NA,incomplete,38,number,0,right,Purple_Circle_Grid_3.jpg,Red_Circle_Stripes_4.jpg,Green_Star_Dots_3.jpg,right,1162.710000295192,true,NA,true
igabYPGE,3r6rzgk0yip7nifkjif6ljfzh9ayv2,3nc5l260msz8krnm4i66qqa3t09fo1,igabYPGE,2020-0188,2020-11-21,08:47:09,09:27:48,NA,incomplete,39,number,1,right,Red_Star_Dots_1.jpg,Purple_Star_Stripes_2.jpg,Green_Circle_Chess_1.jpg,none,0,false,NA,true
igabYPGE,3r6rzgk0yip7nifkjif6ljfzh9ayv2,3nc5l260msz8krnm4i66qqa3t09fo1,igabYPGE,2020-0188,2020-11-21,08:47:09,09:27:48,NA,incomplete,0,shape,1,right,Green_Star_Chess_3.jpg,Purple_Plus_Dots_3.jpg,Red_Star_Grid_1.jpg,none,0,false,high,false
igabYPGE,3r6rzgk0yip7nifkjif6ljfzh9ayv2,3nc5l260msz8krnm4i66qqa3t09fo1,igabYPGE,2020-0188,2020-11-21,08:47:09,09:27:48,NA,incomplete,1,shape,1,right,Red_Circle_Chess_1.jpg,Purple_Triangle_Grid_1.jpg,Green_Circle_Stripes_2.jpg,none,0,false,high,false
igabYPGE,3r6rzgk0yip7nifkjif6ljfzh9ayv2,3nc5l260msz8krnm4i66qqa3t09fo1,igabYPGE,2020-0188,2020-11-21,08:47:09,09:27:48,NA,incomplete,2,shape,0,right,Purple_Star_Stripes_1.jpg,Green_Plus_Dots_1.jpg,Blue_Star_Chess_2.jpg,none,0,false,high,false
igabYPGE,3r6rzgk0yip7nifkjif6ljfzh9ayv2,3nc5l260msz8krnm4i66qqa3t09fo1,igabYPGE,2020-0188,2020-11-21,08:47:09,09:27:48,NA,incomplete,3,shape,1,right,Blue_Plus_Grid_4.jpg,Red_Triangle_Stripes_4.jpg,Purple_Plus_Dots_2.jpg,left,1613.6000002734363,false,high,false
igabYPGE,3r6rzgk0yip7nifkjif6ljfzh9ayv2,3nc5l260msz8krnm4i66qqa3t09fo1,igabYPGE,2020-0188,2020-11-21,08:47:09,09:27:48,NA,incomplete,4,shape,1,right,Red_Star_Chess_2.jpg,Purple_Circle_Dots_2.jpg,Green_Star_Grid_4.jpg,right,1524.5749996975064,true,high,false
igabYPGE,3r6rzgk0yip7nifkjif6ljfzh9ayv2,3nc5l260msz8krnm4i66qqa3t09fo1,igabYPGE,2020-0188,2020-11-21,08:47:09,09:27:48,NA,incomplete,5,shape,1,right,Blue_Circle_Grid_2.jpg,Green_Star_Dots_2.jpg,Purple_Circle_Chess_4.jpg,right,1155.6449998170137,true,high,false
igabYPGE,3r6rzgk0yip7nifkjif6ljfzh9ayv2,3nc5l260msz8krnm4i66qqa3t09fo1,igabYPGE,2020-0188,2020-11-21,08:47:09,09:27:48,NA,incomplete,6,shape,1,right,Purple_Plus_Grid_2.jpg,Green_Star_Chess_2.jpg,Red_Plus_Stripes_3.jpg,right,1011.2250000238419,true,high,false
igabYPGE,3r6rzgk0yip7nifkjif6ljfzh9ayv2,3nc5l260msz8krnm4i66qqa3t09fo1,igabYPGE,2020-0188,2020-11-21,08:47:09,09:27:48,NA,incomplete,7,shape,1,left,Green_Plus_Chess_2.jpg,Purple_Plus_Grid_4.jpg,Blue_Triangle_Stripes_2.jpg,left,1071.2250000797212,true,high,false
igabYPGE,3r6rzgk0yip7nifkjif6ljfzh9ayv2,3nc5l260msz8krnm4i66qqa3t09fo1,igabYPGE,2020-0188,2020-11-21,08:47:09,09:27:48,NA,incomplete,8,shape,1,left,Blue_Star_Grid_2.jpg,Green_Star_Dots_1.jpg,Purple_Plus_Chess_2.jpg,right,1028.5650002770126,false,high,false
igabYPGE,3r6rzgk0yip7nifkjif6ljfzh9ayv2,3nc5l260msz8krnm4i66qqa3t09fo1,igabYPGE,2020-0188,2020-11-21,08:47:09,09:27:48,NA,incomplete,9,shape,1,right,Blue_Circle_Dots_1.jpg,Green_Triangle_Stripes_1.jpg,Purple_Circle_Grid_3.jpg,right,1210.730000399053,true,high,false
igabYPGE,3r6rzgk0yip7nifkjif6ljfzh9ayv2,3nc5l260msz8krnm4i66qqa3t09fo1,igabYPGE,2020-0188,2020-11-21,08:47:09,09:27:48,NA,incomplete,10,number,1,right,Red_Star_Grid_4.jpg,Green_Star_Stripes_1.jpg,Purple_Plus_Chess_4.jpg,left,1555.990000255406,false,high,false
igabYPGE,3r6rzgk0yip7nifkjif6ljfzh9ayv2,3nc5l260msz8krnm4i66qqa3t09fo1,igabYPGE,2020-0188,2020-11-21,08:47:09,09:27:48,NA,incomplete,11,number,1,left,Blue_Plus_Stripes_1.jpg,Green_Circle_Chess_1.jpg,Red_Plus_Dots_4.jpg,right,998.919999692589,false,high,false
igabYPGE,3r6rzgk0yip7nifkjif6ljfzh9ayv2,3nc5l260msz8krnm4i66qqa3t09fo1,igabYPGE,2020-0188,2020-11-21,08:47:09,09:27:48,NA,incomplete,12,number,1,right,Blue_Triangle_Dots_3.jpg,Purple_Triangle_Grid_4.jpg,Green_Star_Stripes_3.jpg,left,1229.8999996855855,false,high,false
igabYPGE,3r6rzgk0yip7nifkjif6ljfzh9ayv2,3nc5l260msz8krnm4i66qqa3t09fo1,igabYPGE,2020-0188,2020-11-21,08:47:09,09:27:48,NA,incomplete,13,number,1,right,Red_Plus_Grid_2.jpg,Green_Plus_Dots_1.jpg,Blue_Circle_Stripes_2.jpg,right,1267.495000269264,true,high,false
igabYPGE,3r6rzgk0yip7nifkjif6ljfzh9ayv2,3nc5l260msz8krnm4i66qqa3t09fo1,igabYPGE,2020-0188,2020-11-21,08:47:09,09:27:48,NA,incomplete,14,number,1,right,Red_Triangle_Grid_3.jpg,Blue_Triangle_Chess_1.jpg,Green_Plus_Stripes_3.jpg,right,1286.6849997080863,true,high,false
igabYPGE,3r6rzgk0yip7nifkjif6ljfzh9ayv2,3nc5l260msz8krnm4i66qqa3t09fo1,igabYPGE,2020-0188,2020-11-21,08:47:09,09:27:48,NA,incomplete,15,number,0,right,Purple_Plus_Grid_4.jpg,Blue_Plus_Dots_3.jpg,Green_Triangle_Stripes_4.jpg,left,1023.7250002101064,false,high,false
igabYPGE,3r6rzgk0yip7nifkjif6ljfzh9ayv2,3nc5l260msz8krnm4i66qqa3t09fo1,igabYPGE,2020-0188,2020-11-21,08:47:09,09:27:48,NA,incomplete,16,number,1,right,Blue_Star_Grid_3.jpg,Red_Star_Chess_4.jpg,Green_Plus_Dots_3.jpg,left,1070.3150001354516,false,high,false
igabYPGE,3r6rzgk0yip7nifkjif6ljfzh9ayv2,3nc5l260msz8krnm4i66qqa3t09fo1,igabYPGE,2020-0188,2020-11-21,08:47:09,09:27:48,NA,incomplete,17,number,1,right,Blue_Star_Chess_4.jpg,Red_Star_Stripes_2.jpg,Green_Triangle_Dots_4.jpg,right,1068.065000232309,true,high,false
igabYPGE,3r6rzgk0yip7nifkjif6ljfzh9ayv2,3nc5l260msz8krnm4i66qqa3t09fo1,igabYPGE,2020-0188,2020-11-21,08:47:09,09:27:48,NA,incomplete,18,number,0,left,Blue_Star_Dots_3.jpg,Purple_Circle_Grid_3.jpg,Green_Star_Stripes_4.jpg,right,1157.8100002370775,false,high,false
igabYPGE,3r6rzgk0yip7nifkjif6ljfzh9ayv2,3nc5l260msz8krnm4i66qqa3t09fo1,igabYPGE,2020-0188,2020-11-21,08:47:09,09:27:48,NA,incomplete,19,number,1,right,Green_Triangle_Chess_4.jpg,Red_Triangle_Stripes_2.jpg,Blue_Circle_Dots_4.jpg,left,1101.7149998806417,false,high,false
igabYPGE,3r6rzgk0yip7nifkjif6ljfzh9ayv2,3nc5l260msz8krnm4i66qqa3t09fo1,igabYPGE,2020-0188,2020-11-21,08:47:09,09:27:48,NA,incomplete,20,shape,1,left,Blue_Circle_Chess_3.jpg,Green_Circle_Grid_4.jpg,Red_Plus_Stripes_3.jpg,left,1166.224999818951,true,high,false
igabYPGE,3r6rzgk0yip7nifkjif6ljfzh9ayv2,3nc5l260msz8krnm4i66qqa3t09fo1,igabYPGE,2020-0188,2020-11-21,08:47:09,09:27:48,NA,incomplete,21,shape,1,left,Green_Triangle_Dots_3.jpg,Red_Triangle_Chess_2.jpg,Purple_Star_Grid_3.jpg,right,1468.3699999004602,false,high,false
igabYPGE,3r6rzgk0yip7nifkjif6ljfzh9ayv2,3nc5l260msz8krnm4i66qqa3t09fo1,igabYPGE,2020-0188,2020-11-21,08:47:09,09:27:48,NA,incomplete,22,shape,1,left,Green_Plus_Grid_2.jpg,Blue_Plus_Dots_4.jpg,Red_Triangle_Chess_2.jpg,left,1335.55500023067,true,high,false
igabYPGE,3r6rzgk0yip7nifkjif6ljfzh9ayv2,3nc5l260msz8krnm4i66qqa3t09fo1,igabYPGE,2020-0188,2020-11-21,08:47:09,09:27:48,NA,incomplete,23,shape,1,right,Green_Triangle_Chess_4.jpg,Blue_Plus_Stripes_4.jpg,Red_Triangle_Grid_3.jpg,left,953.7949999794364,false,high,false
igabYPGE,3r6rzgk0yip7nifkjif6ljfzh9ayv2,3nc5l260msz8krnm4i66qqa3t09fo1,igabYPGE,2020-0188,2020-11-21,08:47:09,09:27:48,NA,incomplete,24,shape,1,right,Blue_Circle_Stripes_2.jpg,Purple_Star_Grid_2.jpg,Red_Circle_Chess_1.jpg,right,1480.2999999374151,true,high,false
igabYPGE,3r6rzgk0yip7nifkjif6ljfzh9ayv2,3nc5l260msz8krnm4i66qqa3t09fo1,igabYPGE,2020-0188,2020-11-21,08:47:09,09:27:48,NA,incomplete,25,shape,1,right,Green_Triangle_Grid_3.jpg,Red_Plus_Stripes_3.jpg,Purple_Triangle_Dots_2.jpg,right,1075.0599997118115,true,high,false
igabYPGE,3r6rzgk0yip7nifkjif6ljfzh9ayv2,3nc5l260msz8krnm4i66qqa3t09fo1,igabYPGE,2020-0188,2020-11-21,08:47:09,09:27:48,NA,incomplete,26,shape,1,right,Blue_Circle_Dots_3.jpg,Red_Triangle_Grid_3.jpg,Purple_Circle_Stripes_2.jpg,right,1067.6549999043345,true,high,false
igabYPGE,3r6rzgk0yip7nifkjif6ljfzh9ayv2,3nc5l260msz8krnm4i66qqa3t09fo1,igabYPGE,2020-0188,2020-11-21,08:47:09,09:27:48,NA,incomplete,27,shape,1,left,Red_Plus_Grid_1.jpg,Purple_Plus_Stripes_2.jpg,Green_Circle_Chess_1.jpg,left,1236.1550000496209,true,high,false
igabYPGE,3r6rzgk0yip7nifkjif6ljfzh9ayv2,3nc5l260msz8krnm4i66qqa3t09fo1,igabYPGE,2020-0188,2020-11-21,08:47:09,09:27:48,NA,incomplete,28,shape,1,left,Purple_Star_Dots_1.jpg,Green_Star_Grid_4.jpg,Blue_Plus_Stripes_1.jpg,left,1008.925000205636,true,high,false
igabYPGE,3r6rzgk0yip7nifkjif6ljfzh9ayv2,3nc5l260msz8krnm4i66qqa3t09fo1,igabYPGE,2020-0188,2020-11-21,08:47:09,09:27:48,NA,incomplete,29,shape,1,right,Purple_Triangle_Stripes_2.jpg,Blue_Circle_Chess_2.jpg,Green_Triangle_Grid_4.jpg,right,1476.8099999055266,true,high,false
igabYPGE,3r6rzgk0yip7nifkjif6ljfzh9ayv2,3nc5l260msz8krnm4i66qqa3t09fo1,igabYPGE,2020-0188,2020-11-21,08:47:09,09:27:48,NA,incomplete,30,number,0,right,Green_Circle_Grid_4.jpg,Blue_Circle_Stripes_1.jpg,Red_Plus_Chess_4.jpg,left,1108.4699998609722,false,high,false
igabYPGE,3r6rzgk0yip7nifkjif6ljfzh9ayv2,3nc5l260msz8krnm4i66qqa3t09fo1,igabYPGE,2020-0188,2020-11-21,08:47:09,09:27:48,NA,incomplete,31,number,0,left,Green_Plus_Stripes_1.jpg,Purple_Star_Chess_1.jpg,Red_Plus_Dots_3.jpg,right,1023.2750000432134,false,high,false
igabYPGE,3r6rzgk0yip7nifkjif6ljfzh9ayv2,3nc5l260msz8krnm4i66qqa3t09fo1,igabYPGE,2020-0188,2020-11-21,08:47:09,09:27:48,NA,incomplete,32,number,1,left,Purple_Circle_Stripes_1.jpg,Red_Star_Grid_1.jpg,Blue_Circle_Chess_2.jpg,right,1068.1150001473725,false,high,false
igabYPGE,3r6rzgk0yip7nifkjif6ljfzh9ayv2,3nc5l260msz8krnm4i66qqa3t09fo1,igabYPGE,2020-0188,2020-11-21,08:47:09,09:27:48,NA,incomplete,33,number,1,left,Green_Plus_Dots_3.jpg,Purple_Star_Grid_3.jpg,Red_Plus_Stripes_4.jpg,right,1292.2249999828637,false,high,false
igabYPGE,3r6rzgk0yip7nifkjif6ljfzh9ayv2,3nc5l260msz8krnm4i66qqa3t09fo1,igabYPGE,2020-0188,2020-11-21,08:47:09,09:27:48,NA,incomplete,34,number,0,left,Red_Plus_Stripes_3.jpg,Green_Triangle_Dots_3.jpg,Purple_Plus_Grid_2.jpg,left,1353.6149999126792,true,high,false
igabYPGE,3r6rzgk0yip7nifkjif6ljfzh9ayv2,3nc5l260msz8krnm4i66qqa3t09fo1,igabYPGE,2020-0188,2020-11-21,08:47:09,09:27:48,NA,incomplete,35,number,0,right,Blue_Circle_Stripes_3.jpg,Red_Circle_Chess_4.jpg,Green_Plus_Grid_3.jpg,left,1370.824999641627,false,high,false
igabYPGE,3r6rzgk0yip7nifkjif6ljfzh9ayv2,3nc5l260msz8krnm4i66qqa3t09fo1,igabYPGE,2020-0188,2020-11-21,08:47:09,09:27:48,NA,incomplete,36,number,1,left,Blue_Triangle_Chess_2.jpg,Red_Plus_Stripes_2.jpg,Purple_Triangle_Dots_4.jpg,right,908.799999859184,false,high,false
igabYPGE,3r6rzgk0yip7nifkjif6ljfzh9ayv2,3nc5l260msz8krnm4i66qqa3t09fo1,igabYPGE,2020-0188,2020-11-21,08:47:09,09:27:48,NA,incomplete,37,number,1,left,Blue_Plus_Dots_2.jpg,Green_Circle_Grid_2.jpg,Red_Plus_Stripes_3.jpg,right,1158.5849998518825,false,high,false
igabYPGE,3r6rzgk0yip7nifkjif6ljfzh9ayv2,3nc5l260msz8krnm4i66qqa3t09fo1,igabYPGE,2020-0188,2020-11-21,08:47:09,09:27:48,NA,incomplete,38,number,1,left,Red_Star_Chess_3.jpg,Purple_Triangle_Grid_3.jpg,Blue_Star_Dots_2.jpg,left,1204.349999781698,true,high,false
igabYPGE,3r6rzgk0yip7nifkjif6ljfzh9ayv2,3nc5l260msz8krnm4i66qqa3t09fo1,igabYPGE,2020-0188,2020-11-21,08:47:09,09:27:48,NA,incomplete,39,number,1,right,Green_Circle_Chess_3.jpg,Blue_Circle_Grid_4.jpg,Purple_Star_Dots_3.jpg,none,0,false,high,false
igabYPGE,3r6rzgk0yip7nifkjif6ljfzh9ayv2,3nc5l260msz8krnm4i66qqa3t09fo1,igabYPGE,2020-0188,2020-11-21,08:47:09,09:27:48,NA,incomplete,40,shape,1,right,Purple_Plus_Stripes_3.jpg,Blue_Circle_Grid_3.jpg,Green_Plus_Chess_1.jpg,left,1418.3100000955164,false,high,false
igabYPGE,3r6rzgk0yip7nifkjif6ljfzh9ayv2,3nc5l260msz8krnm4i66qqa3t09fo1,igabYPGE,2020-0188,2020-11-21,08:47:09,09:27:48,NA,incomplete,41,shape,1,right,Green_Triangle_Chess_2.jpg,Red_Plus_Stripes_2.jpg,Purple_Triangle_Grid_4.jpg,right,1055.705000180751,true,high,false
igabYPGE,3r6rzgk0yip7nifkjif6ljfzh9ayv2,3nc5l260msz8krnm4i66qqa3t09fo1,igabYPGE,2020-0188,2020-11-21,08:47:09,09:27:48,NA,incomplete,42,shape,0,right,Purple_Circle_Chess_2.jpg,Green_Star_Grid_2.jpg,Blue_Circle_Stripes_3.jpg,none,0,false,high,false
igabYPGE,3r6rzgk0yip7nifkjif6ljfzh9ayv2,3nc5l260msz8krnm4i66qqa3t09fo1,igabYPGE,2020-0188,2020-11-21,08:47:09,09:27:48,NA,incomplete,43,shape,0,right,Green_Plus_Stripes_3.jpg,Blue_Circle_Grid_3.jpg,Red_Plus_Chess_2.jpg,right,1689.3050000071526,true,high,false
igabYPGE,3r6rzgk0yip7nifkjif6ljfzh9ayv2,3nc5l260msz8krnm4i66qqa3t09fo1,igabYPGE,2020-0188,2020-11-21,08:47:09,09:27:48,NA,incomplete,44,shape,1,right,Red_Plus_Grid_4.jpg,Green_Circle_Chess_4.jpg,Blue_Plus_Dots_2.jpg,left,1316.6000000201166,false,high,false
igabYPGE,3r6rzgk0yip7nifkjif6ljfzh9ayv2,3nc5l260msz8krnm4i66qqa3t09fo1,igabYPGE,2020-0188,2020-11-21,08:47:09,09:27:48,NA,incomplete,45,shape,1,left,Purple_Star_Grid_1.jpg,Blue_Star_Chess_2.jpg,Red_Triangle_Stripes_1.jpg,left,1270.3599999658763,true,high,false
igabYPGE,3r6rzgk0yip7nifkjif6ljfzh9ayv2,3nc5l260msz8krnm4i66qqa3t09fo1,igabYPGE,2020-0188,2020-11-21,08:47:09,09:27:48,NA,incomplete,46,shape,1,right,Green_Plus_Grid_2.jpg,Red_Star_Stripes_2.jpg,Blue_Plus_Dots_1.jpg,right,1186.1149999313056,true,high,false
igabYPGE,3r6rzgk0yip7nifkjif6ljfzh9ayv2,3nc5l260msz8krnm4i66qqa3t09fo1,igabYPGE,2020-0188,2020-11-21,08:47:09,09:27:48,NA,incomplete,47,shape,1,right,Green_Circle_Chess_2.jpg,Red_Plus_Stripes_2.jpg,Blue_Circle_Grid_4.jpg,right,863.4449997916818,true,high,false
igabYPGE,3r6rzgk0yip7nifkjif6ljfzh9ayv2,3nc5l260msz8krnm4i66qqa3t09fo1,igabYPGE,2020-0188,2020-11-21,08:47:09,09:27:48,NA,incomplete,48,shape,1,left,Green_Star_Chess_3.jpg,Blue_Star_Stripes_4.jpg,Red_Plus_Grid_3.jpg,left,1243.8599998131394,true,high,false
igabYPGE,3r6rzgk0yip7nifkjif6ljfzh9ayv2,3nc5l260msz8krnm4i66qqa3t09fo1,igabYPGE,2020-0188,2020-11-21,08:47:09,09:27:48,NA,incomplete,49,shape,0,left,Green_Triangle_Stripes_2.jpg,Blue_Triangle_Chess_1.jpg,Red_Star_Dots_2.jpg,left,956.389999948442,true,high,false
igabYPGE,3r6rzgk0yip7nifkjif6ljfzh9ayv2,3nc5l260msz8krnm4i66qqa3t09fo1,igabYPGE,2020-0188,2020-11-21,08:47:09,09:27:48,NA,incomplete,50,number,1,left,Red_Circle_Grid_4.jpg,Blue_Plus_Chess_4.jpg,Purple_Circle_Stripes_2.jpg,right,1427.9199996963143,false,high,false
igabYPGE,3r6rzgk0yip7nifkjif6ljfzh9ayv2,3nc5l260msz8krnm4i66qqa3t09fo1,igabYPGE,2020-0188,2020-11-21,08:47:09,09:27:48,NA,incomplete,51,number,0,right,Purple_Plus_Dots_1.jpg,Blue_Plus_Grid_4.jpg,Red_Triangle_Stripes_1.jpg,right,1426.0399998165667,true,high,false
igabYPGE,3r6rzgk0yip7nifkjif6ljfzh9ayv2,3nc5l260msz8krnm4i66qqa3t09fo1,igabYPGE,2020-0188,2020-11-21,08:47:09,09:27:48,NA,incomplete,52,number,0,left,Red_Circle_Dots_4.jpg,Green_Triangle_Stripes_4.jpg,Purple_Circle_Chess_2.jpg,right,1115.734999999404,false,high,false
igabYPGE,3r6rzgk0yip7nifkjif6ljfzh9ayv2,3nc5l260msz8krnm4i66qqa3t09fo1,igabYPGE,2020-0188,2020-11-21,08:47:09,09:27:48,NA,incomplete,53,number,1,right,Purple_Circle_Chess_3.jpg,Red_Circle_Stripes_2.jpg,Blue_Plus_Dots_3.jpg,left,866.6550000198185,false,high,false
igabYPGE,3r6rzgk0yip7nifkjif6ljfzh9ayv2,3nc5l260msz8krnm4i66qqa3t09fo1,igabYPGE,2020-0188,2020-11-21,08:47:09,09:27:48,NA,incomplete,54,number,0,right,Blue_Star_Dots_4.jpg,Green_Star_Chess_1.jpg,Purple_Triangle_Stripes_4.jpg,right,1324.0299997851253,true,high,false
igabYPGE,3r6rzgk0yip7nifkjif6ljfzh9ayv2,3nc5l260msz8krnm4i66qqa3t09fo1,igabYPGE,2020-0188,2020-11-21,08:47:09,09:27:48,NA,incomplete,55,number,1,right,Blue_Plus_Chess_1.jpg,Green_Plus_Stripes_2.jpg,Purple_Circle_Grid_1.jpg,right,1552.519999910146,true,high,false
igabYPGE,3r6rzgk0yip7nifkjif6ljfzh9ayv2,3nc5l260msz8krnm4i66qqa3t09fo1,igabYPGE,2020-0188,2020-11-21,08:47:09,09:27:48,NA,incomplete,56,number,1,left,Purple_Circle_Chess_1.jpg,Blue_Plus_Grid_1.jpg,Red_Circle_Dots_3.jpg,right,1106.279999949038,false,high,false
igabYPGE,3r6rzgk0yip7nifkjif6ljfzh9ayv2,3nc5l260msz8krnm4i66qqa3t09fo1,igabYPGE,2020-0188,2020-11-21,08:47:09,09:27:48,NA,incomplete,57,number,1,right,Blue_Circle_Stripes_2.jpg,Purple_Circle_Chess_1.jpg,Green_Star_Dots_2.jpg,left,1263.0350003018975,false,high,false
igabYPGE,3r6rzgk0yip7nifkjif6ljfzh9ayv2,3nc5l260msz8krnm4i66qqa3t09fo1,igabYPGE,2020-0188,2020-11-21,08:47:09,09:27:48,NA,incomplete,58,number,1,left,Red_Star_Dots_4.jpg,Blue_Triangle_Grid_4.jpg,Green_Star_Chess_2.jpg,left,1284.0550001710653,true,high,false
igabYPGE,3r6rzgk0yip7nifkjif6ljfzh9ayv2,3nc5l260msz8krnm4i66qqa3t09fo1,igabYPGE,2020-0188,2020-11-21,08:47:09,09:27:48,NA,incomplete,59,number,1,left,Purple_Plus_Chess_2.jpg,Green_Triangle_Dots_2.jpg,Blue_Plus_Stripes_4.jpg,left,1490.9199997782707,true,high,false
igabYPGE,3r6rzgk0yip7nifkjif6ljfzh9ayv2,3nc5l260msz8krnm4i66qqa3t09fo1,igabYPGE,2020-0188,2020-11-21,08:47:09,09:27:48,NA,incomplete,60,shape,1,left,Blue_Plus_Grid_4.jpg,Purple_Plus_Chess_1.jpg,Red_Star_Stripes_4.jpg,right,975.5150000564754,false,high,false
igabYPGE,3r6rzgk0yip7nifkjif6ljfzh9ayv2,3nc5l260msz8krnm4i66qqa3t09fo1,igabYPGE,2020-0188,2020-11-21,08:47:09,09:27:48,NA,incomplete,61,shape,1,right,Red_Plus_Chess_2.jpg,Purple_Star_Stripes_2.jpg,Green_Plus_Dots_3.jpg,right,1094.380000140518,true,high,false
igabYPGE,3r6rzgk0yip7nifkjif6ljfzh9ayv2,3nc5l260msz8krnm4i66qqa3t09fo1,igabYPGE,2020-0188,2020-11-21,08:47:09,09:27:48,NA,incomplete,62,shape,1,left,Purple_Triangle_Stripes_4.jpg,Green_Triangle_Grid_3.jpg,Blue_Circle_Chess_4.jpg,left,1072.920000180602,true,high,false
igabYPGE,3r6rzgk0yip7nifkjif6ljfzh9ayv2,3nc5l260msz8krnm4i66qqa3t09fo1,igabYPGE,2020-0188,2020-11-21,08:47:09,09:27:48,NA,incomplete,63,shape,1,left,Purple_Plus_Grid_4.jpg,Red_Plus_Chess_3.jpg,Blue_Triangle_Stripes_4.jpg,left,875.6599999032915,true,high,false
igabYPGE,3r6rzgk0yip7nifkjif6ljfzh9ayv2,3nc5l260msz8krnm4i66qqa3t09fo1,igabYPGE,2020-0188,2020-11-21,08:47:09,09:27:48,NA,incomplete,64,shape,1,left,Purple_Star_Chess_2.jpg,Blue_Star_Dots_1.jpg,Red_Plus_Grid_2.jpg,right,989.2649999819696,false,high,false
igabYPGE,3r6rzgk0yip7nifkjif6ljfzh9ayv2,3nc5l260msz8krnm4i66qqa3t09fo1,igabYPGE,2020-0188,2020-11-21,08:47:09,09:27:48,NA,incomplete,65,shape,1,left,Purple_Plus_Stripes_3.jpg,Green_Plus_Dots_1.jpg,Blue_Circle_Grid_3.jpg,left,1107.1049999445677,true,high,false
igabYPGE,3r6rzgk0yip7nifkjif6ljfzh9ayv2,3nc5l260msz8krnm4i66qqa3t09fo1,igabYPGE,2020-0188,2020-11-21,08:47:09,09:27:48,NA,incomplete,66,shape,1,left,Green_Circle_Grid_4.jpg,Red_Circle_Chess_1.jpg,Blue_Triangle_Dots_4.jpg,left,1010.9799997881055,true,high,false
igabYPGE,3r6rzgk0yip7nifkjif6ljfzh9ayv2,3nc5l260msz8krnm4i66qqa3t09fo1,igabYPGE,2020-0188,2020-11-21,08:47:09,09:27:48,NA,incomplete,67,shape,1,left,Blue_Circle_Dots_4.jpg,Purple_Circle_Stripes_1.jpg,Green_Triangle_Chess_4.jpg,left,947.3250000737607,true,high,false
igabYPGE,3r6rzgk0yip7nifkjif6ljfzh9ayv2,3nc5l260msz8krnm4i66qqa3t09fo1,igabYPGE,2020-0188,2020-11-21,08:47:09,09:27:48,NA,incomplete,68,shape,1,right,Blue_Star_Grid_2.jpg,Purple_Circle_Stripes_2.jpg,Green_Star_Dots_1.jpg,right,930.5150001309812,true,high,false
igabYPGE,3r6rzgk0yip7nifkjif6ljfzh9ayv2,3nc5l260msz8krnm4i66qqa3t09fo1,igabYPGE,2020-0188,2020-11-21,08:47:09,09:27:48,NA,incomplete,69,shape,1,left,Blue_Plus_Stripes_3.jpg,Red_Plus_Dots_4.jpg,Purple_Star_Chess_3.jpg,left,1042.7049999125302,true,high,false
igabYPGE,3r6rzgk0yip7nifkjif6ljfzh9ayv2,3nc5l260msz8krnm4i66qqa3t09fo1,igabYPGE,2020-0188,2020-11-21,08:47:09,09:27:48,NA,incomplete,70,number,1,left,Blue_Plus_Stripes_3.jpg,Purple_Star_Dots_3.jpg,Red_Plus_Grid_4.jpg,left,1344.6849999018013,true,high,false
igabYPGE,3r6rzgk0yip7nifkjif6ljfzh9ayv2,3nc5l260msz8krnm4i66qqa3t09fo1,igabYPGE,2020-0188,2020-11-21,08:47:09,09:27:48,NA,incomplete,71,number,1,left,Red_Triangle_Stripes_2.jpg,Purple_Circle_Chess_2.jpg,Green_Triangle_Grid_1.jpg,right,1131.1650001443923,false,high,false
igabYPGE,3r6rzgk0yip7nifkjif6ljfzh9ayv2,3nc5l260msz8krnm4i66qqa3t09fo1,igabYPGE,2020-0188,2020-11-21,08:47:09,09:27:48,NA,incomplete,72,number,1,left,Green_Triangle_Chess_1.jpg,Red_Circle_Grid_1.jpg,Purple_Triangle_Dots_4.jpg,left,1243.4000000357628,true,high,false
igabYPGE,3r6rzgk0yip7nifkjif6ljfzh9ayv2,3nc5l260msz8krnm4i66qqa3t09fo1,igabYPGE,2020-0188,2020-11-21,08:47:09,09:27:48,NA,incomplete,73,number,1,left,Purple_Star_Stripes_3.jpg,Green_Circle_Grid_3.jpg,Blue_Star_Chess_1.jpg,left,1292.454999871552,true,high,false
igabYPGE,3r6rzgk0yip7nifkjif6ljfzh9ayv2,3nc5l260msz8krnm4i66qqa3t09fo1,igabYPGE,2020-0188,2020-11-21,08:47:09,09:27:48,NA,incomplete,74,number,0,left,Red_Star_Stripes_4.jpg,Blue_Circle_Dots_4.jpg,Green_Star_Grid_1.jpg,right,1198.5650002025068,false,high,false
igabYPGE,3r6rzgk0yip7nifkjif6ljfzh9ayv2,3nc5l260msz8krnm4i66qqa3t09fo1,igabYPGE,2020-0188,2020-11-21,08:47:09,09:27:48,NA,incomplete,75,number,1,left,Green_Circle_Grid_3.jpg,Blue_Plus_Stripes_3.jpg,Red_Circle_Chess_2.jpg,right,1145.7750000990927,false,high,false
igabYPGE,3r6rzgk0yip7nifkjif6ljfzh9ayv2,3nc5l260msz8krnm4i66qqa3t09fo1,igabYPGE,2020-0188,2020-11-21,08:47:09,09:27:48,NA,incomplete,76,number,1,right,Green_Circle_Dots_4.jpg,Blue_Circle_Stripes_2.jpg,Purple_Triangle_Grid_4.jpg,right,1087.050000205636,true,high,false
igabYPGE,3r6rzgk0yip7nifkjif6ljfzh9ayv2,3nc5l260msz8krnm4i66qqa3t09fo1,igabYPGE,2020-0188,2020-11-21,08:47:09,09:27:48,NA,incomplete,77,number,0,right,Purple_Circle_Grid_1.jpg,Red_Circle_Dots_4.jpg,Green_Plus_Chess_1.jpg,right,1152.03500026837,true,high,false
igabYPGE,3r6rzgk0yip7nifkjif6ljfzh9ayv2,3nc5l260msz8krnm4i66qqa3t09fo1,igabYPGE,2020-0188,2020-11-21,08:47:09,09:27:48,NA,incomplete,78,number,1,right,Red_Star_Grid_1.jpg,Purple_Star_Chess_3.jpg,Blue_Triangle_Dots_1.jpg,left,1311.0549999400973,false,high,false
igabYPGE,3r6rzgk0yip7nifkjif6ljfzh9ayv2,3nc5l260msz8krnm4i66qqa3t09fo1,igabYPGE,2020-0188,2020-11-21,08:47:09,09:27:48,NA,incomplete,79,number,1,right,Green_Star_Dots_2.jpg,Red_Star_Stripes_3.jpg,Blue_Triangle_Chess_2.jpg,right,1275.5450000986457,true,high,false
igabYPGE,3r6rzgk0yip7nifkjif6ljfzh9ayv2,3nc5l260msz8krnm4i66qqa3t09fo1,igabYPGE,2020-0188,2020-11-21,08:47:09,09:27:48,NA,incomplete,80,shape,1,left,Green_Plus_Grid_2.jpg,Red_Plus_Stripes_3.jpg,Blue_Star_Dots_2.jpg,right,1483.6299996823072,false,high,false
igabYPGE,3r6rzgk0yip7nifkjif6ljfzh9ayv2,3nc5l260msz8krnm4i66qqa3t09fo1,igabYPGE,2020-0188,2020-11-21,08:47:09,09:27:48,NA,incomplete,81,shape,1,left,Blue_Triangle_Stripes_3.jpg,Red_Triangle_Chess_4.jpg,Green_Star_Grid_3.jpg,right,1209.3349997885525,false,high,false
igabYPGE,3r6rzgk0yip7nifkjif6ljfzh9ayv2,3nc5l260msz8krnm4i66qqa3t09fo1,igabYPGE,2020-0188,2020-11-21,08:47:09,09:27:48,NA,incomplete,82,shape,1,right,Blue_Plus_Dots_1.jpg,Green_Circle_Stripes_1.jpg,Purple_Plus_Chess_4.jpg,left,936.8000002577901,false,high,false
igabYPGE,3r6rzgk0yip7nifkjif6ljfzh9ayv2,3nc5l260msz8krnm4i66qqa3t09fo1,igabYPGE,2020-0188,2020-11-21,08:47:09,09:27:48,NA,incomplete,83,shape,1,left,Purple_Triangle_Chess_3.jpg,Blue_Triangle_Stripes_2.jpg,Green_Plus_Grid_3.jpg,left,1038.474999833852,true,high,false
igabYPGE,3r6rzgk0yip7nifkjif6ljfzh9ayv2,3nc5l260msz8krnm4i66qqa3t09fo1,igabYPGE,2020-0188,2020-11-21,08:47:09,09:27:48,NA,incomplete,84,shape,1,left,Purple_Circle_Stripes_2.jpg,Blue_Circle_Grid_1.jpg,Red_Triangle_Chess_2.jpg,left,1038.3350001648068,true,high,false
igabYPGE,3r6rzgk0yip7nifkjif6ljfzh9ayv2,3nc5l260msz8krnm4i66qqa3t09fo1,igabYPGE,2020-0188,2020-11-21,08:47:09,09:27:48,NA,incomplete,85,shape,1,left,Purple_Triangle_Dots_4.jpg,Green_Triangle_Stripes_2.jpg,Red_Plus_Chess_4.jpg,left,916.9050003401935,true,high,false
igabYPGE,3r6rzgk0yip7nifkjif6ljfzh9ayv2,3nc5l260msz8krnm4i66qqa3t09fo1,igabYPGE,2020-0188,2020-11-21,08:47:09,09:27:48,NA,incomplete,86,shape,1,left,Blue_Circle_Dots_2.jpg,Purple_Circle_Grid_1.jpg,Green_Star_Stripes_2.jpg,left,962.2800000943244,true,high,false
igabYPGE,3r6rzgk0yip7nifkjif6ljfzh9ayv2,3nc5l260msz8krnm4i66qqa3t09fo1,igabYPGE,2020-0188,2020-11-21,08:47:09,09:27:48,NA,incomplete,87,shape,1,left,Blue_Triangle_Dots_2.jpg,Red_Triangle_Chess_4.jpg,Purple_Star_Stripes_2.jpg,right,1012.8999999724329,false,high,false
igabYPGE,3r6rzgk0yip7nifkjif6ljfzh9ayv2,3nc5l260msz8krnm4i66qqa3t09fo1,igabYPGE,2020-0188,2020-11-21,08:47:09,09:27:48,NA,incomplete,88,shape,1,right,Purple_Star_Chess_2.jpg,Green_Circle_Stripes_2.jpg,Blue_Star_Grid_3.jpg,left,1479.5250003226101,false,high,false
igabYPGE,3r6rzgk0yip7nifkjif6ljfzh9ayv2,3nc5l260msz8krnm4i66qqa3t09fo1,igabYPGE,2020-0188,2020-11-21,08:47:09,09:27:48,NA,incomplete,89,shape,0,right,Blue_Triangle_Dots_2.jpg,Red_Circle_Stripes_2.jpg,Green_Triangle_Grid_3.jpg,right,1044.4049998186529,true,high,false
igabYPGE,3r6rzgk0yip7nifkjif6ljfzh9ayv2,3nc5l260msz8krnm4i66qqa3t09fo1,igabYPGE,2020-0188,2020-11-21,08:47:09,09:27:48,NA,incomplete,90,number,0,left,Blue_Triangle_Stripes_1.jpg,Red_Star_Dots_1.jpg,Purple_Triangle_Grid_3.jpg,right,904.024999588728,false,high,false
igabYPGE,3r6rzgk0yip7nifkjif6ljfzh9ayv2,3nc5l260msz8krnm4i66qqa3t09fo1,igabYPGE,2020-0188,2020-11-21,08:47:09,09:27:48,NA,incomplete,91,number,1,right,Red_Star_Dots_1.jpg,Green_Star_Chess_2.jpg,Blue_Triangle_Grid_1.jpg,left,1087.3300000093877,false,high,false
igabYPGE,3r6rzgk0yip7nifkjif6ljfzh9ayv2,3nc5l260msz8krnm4i66qqa3t09fo1,igabYPGE,2020-0188,2020-11-21,08:47:09,09:27:48,NA,incomplete,92,number,0,left,Purple_Triangle_Dots_4.jpg,Blue_Circle_Chess_4.jpg,Red_Triangle_Grid_1.jpg,right,974.8949999921024,false,high,false
igabYPGE,3r6rzgk0yip7nifkjif6ljfzh9ayv2,3nc5l260msz8krnm4i66qqa3t09fo1,igabYPGE,2020-0188,2020-11-21,08:47:09,09:27:48,NA,incomplete,93,number,1,right,Purple_Star_Dots_4.jpg,Blue_Star_Chess_1.jpg,Red_Plus_Grid_4.jpg,left,1068.6350003816187,false,high,false
igabYPGE,3r6rzgk0yip7nifkjif6ljfzh9ayv2,3nc5l260msz8krnm4i66qqa3t09fo1,igabYPGE,2020-0188,2020-11-21,08:47:09,09:27:48,NA,incomplete,94,number,1,left,Red_Plus_Grid_1.jpg,Purple_Triangle_Chess_1.jpg,Green_Plus_Stripes_4.jpg,right,1010.6600001454353,false,high,false
igabYPGE,3r6rzgk0yip7nifkjif6ljfzh9ayv2,3nc5l260msz8krnm4i66qqa3t09fo1,igabYPGE,2020-0188,2020-11-21,08:47:09,09:27:48,NA,incomplete,95,number,1,right,Red_Star_Stripes_2.jpg,Blue_Star_Dots_4.jpg,Purple_Triangle_Grid_2.jpg,left,998.3149999752641,false,high,false
igabYPGE,3r6rzgk0yip7nifkjif6ljfzh9ayv2,3nc5l260msz8krnm4i66qqa3t09fo1,igabYPGE,2020-0188,2020-11-21,08:47:09,09:27:48,NA,incomplete,96,number,1,left,Purple_Plus_Dots_2.jpg,Red_Star_Chess_2.jpg,Green_Plus_Stripes_4.jpg,none,0,false,high,false
igabYPGE,3r6rzgk0yip7nifkjif6ljfzh9ayv2,3nc5l260msz8krnm4i66qqa3t09fo1,igabYPGE,2020-0188,2020-11-21,08:47:09,09:27:48,NA,incomplete,97,number,1,left,Red_Circle_Chess_1.jpg,Purple_Star_Dots_1.jpg,Green_Circle_Grid_2.jpg,right,1108.5250000469387,false,high,false
igabYPGE,3r6rzgk0yip7nifkjif6ljfzh9ayv2,3nc5l260msz8krnm4i66qqa3t09fo1,igabYPGE,2020-0188,2020-11-21,08:47:09,09:27:48,NA,incomplete,98,number,1,left,Green_Circle_Dots_1.jpg,Blue_Triangle_Stripes_1.jpg,Red_Circle_Grid_2.jpg,left,1168.4650001116097,true,high,false
igabYPGE,3r6rzgk0yip7nifkjif6ljfzh9ayv2,3nc5l260msz8krnm4i66qqa3t09fo1,igabYPGE,2020-0188,2020-11-21,08:47:09,09:27:48,NA,incomplete,99,number,1,right,Green_Star_Dots_4.jpg,Blue_Star_Stripes_3.jpg,Purple_Triangle_Grid_4.jpg,right,1551.729999948293,true,high,false
igabYPGE,3r6rzgk0yip7nifkjif6ljfzh9ayv2,3nc5l260msz8krnm4i66qqa3t09fo1,igabYPGE,2020-0188,2020-11-21,08:47:09,09:27:48,NA,incomplete,100,shape,0,left,Red_Star_Chess_4.jpg,Green_Star_Grid_1.jpg,Purple_Plus_Dots_4.jpg,right,1080.0999999046326,false,high,false
igabYPGE,3r6rzgk0yip7nifkjif6ljfzh9ayv2,3nc5l260msz8krnm4i66qqa3t09fo1,igabYPGE,2020-0188,2020-11-21,08:47:09,09:27:48,NA,incomplete,101,shape,1,left,Green_Triangle_Chess_3.jpg,Red_Triangle_Grid_4.jpg,Blue_Circle_Stripes_3.jpg,left,1356.995000038296,true,high,false
igabYPGE,3r6rzgk0yip7nifkjif6ljfzh9ayv2,3nc5l260msz8krnm4i66qqa3t09fo1,igabYPGE,2020-0188,2020-11-21,08:47:09,09:27:48,NA,incomplete,102,shape,1,right,Purple_Star_Stripes_3.jpg,Red_Plus_Chess_3.jpg,Blue_Star_Grid_1.jpg,right,1061.0650000162423,true,high,false
igabYPGE,3r6rzgk0yip7nifkjif6ljfzh9ayv2,3nc5l260msz8krnm4i66qqa3t09fo1,igabYPGE,2020-0188,2020-11-21,08:47:09,09:27:48,NA,incomplete,103,shape,0,left,Purple_Triangle_Dots_2.jpg,Green_Triangle_Chess_3.jpg,Blue_Plus_Grid_2.jpg,left,1239.8700001649559,true,high,false
igabYPGE,3r6rzgk0yip7nifkjif6ljfzh9ayv2,3nc5l260msz8krnm4i66qqa3t09fo1,igabYPGE,2020-0188,2020-11-21,08:47:09,09:27:48,NA,incomplete,104,shape,0,left,Red_Circle_Chess_1.jpg,Blue_Circle_Grid_3.jpg,Purple_Triangle_Dots_1.jpg,right,911.5949999541044,false,high,false
igabYPGE,3r6rzgk0yip7nifkjif6ljfzh9ayv2,3nc5l260msz8krnm4i66qqa3t09fo1,igabYPGE,2020-0188,2020-11-21,08:47:09,09:27:48,NA,incomplete,105,shape,1,left,Green_Triangle_Dots_4.jpg,Red_Triangle_Chess_1.jpg,Purple_Circle_Stripes_4.jpg,right,1278.0199996195734,false,high,false
igabYPGE,3r6rzgk0yip7nifkjif6ljfzh9ayv2,3nc5l260msz8krnm4i66qqa3t09fo1,igabYPGE,2020-0188,2020-11-21,08:47:09,09:27:48,NA,incomplete,106,shape,1,right,Green_Triangle_Chess_4.jpg,Blue_Circle_Grid_4.jpg,Red_Triangle_Stripes_1.jpg,left,1150.9849997237325,false,high,false
igabYPGE,3r6rzgk0yip7nifkjif6ljfzh9ayv2,3nc5l260msz8krnm4i66qqa3t09fo1,igabYPGE,2020-0188,2020-11-21,08:47:09,09:27:48,NA,incomplete,107,shape,1,left,Purple_Star_Stripes_2.jpg,Red_Star_Grid_1.jpg,Blue_Plus_Dots_2.jpg,right,1331.6150000318885,false,high,false
igabYPGE,3r6rzgk0yip7nifkjif6ljfzh9ayv2,3nc5l260msz8krnm4i66qqa3t09fo1,igabYPGE,2020-0188,2020-11-21,08:47:09,09:27:48,NA,incomplete,108,shape,0,left,Red_Triangle_Stripes_4.jpg,Green_Triangle_Grid_3.jpg,Purple_Star_Chess_4.jpg,right,1549.6649998240173,false,high,false
igabYPGE,3r6rzgk0yip7nifkjif6ljfzh9ayv2,3nc5l260msz8krnm4i66qqa3t09fo1,igabYPGE,2020-0188,2020-11-21,08:47:09,09:27:48,NA,incomplete,109,shape,1,right,Blue_Star_Grid_1.jpg,Green_Circle_Stripes_1.jpg,Purple_Star_Dots_4.jpg,right,1095.604999922216,true,high,false
igabYPGE,3r6rzgk0yip7nifkjif6ljfzh9ayv2,3nc5l260msz8krnm4i66qqa3t09fo1,igabYPGE,2020-0188,2020-11-21,08:47:09,09:27:48,NA,incomplete,110,number,1,left,Green_Plus_Chess_2.jpg,Purple_Circle_Stripes_2.jpg,Red_Plus_Grid_1.jpg,right,1015.0649999268353,false,high,false
igabYPGE,3r6rzgk0yip7nifkjif6ljfzh9ayv2,3nc5l260msz8krnm4i66qqa3t09fo1,igabYPGE,2020-0188,2020-11-21,08:47:09,09:27:48,NA,incomplete,111,number,0,left,Purple_Circle_Chess_3.jpg,Green_Plus_Dots_3.jpg,Red_Circle_Grid_2.jpg,left,1200.2599998377264,true,high,false
igabYPGE,3r6rzgk0yip7nifkjif6ljfzh9ayv2,3nc5l260msz8krnm4i66qqa3t09fo1,igabYPGE,2020-0188,2020-11-21,08:47:09,09:27:48,NA,incomplete,112,number,1,left,Green_Star_Chess_1.jpg,Red_Triangle_Stripes_1.jpg,Purple_Star_Grid_2.jpg,right,892.5299998372793,false,high,false
igabYPGE,3r6rzgk0yip7nifkjif6ljfzh9ayv2,3nc5l260msz8krnm4i66qqa3t09fo1,igabYPGE,2020-0188,2020-11-21,08:47:09,09:27:48,NA,incomplete,113,number,1,right,Purple_Plus_Dots_2.jpg,Red_Plus_Grid_3.jpg,Green_Triangle_Chess_2.jpg,right,1204.0649997070432,true,high,false
igabYPGE,3r6rzgk0yip7nifkjif6ljfzh9ayv2,3nc5l260msz8krnm4i66qqa3t09fo1,igabYPGE,2020-0188,2020-11-21,08:47:09,09:27:48,NA,incomplete,114,number,1,left,Purple_Star_Chess_2.jpg,Red_Circle_Stripes_2.jpg,Blue_Star_Dots_1.jpg,left,1150.859999936074,true,high,false
igabYPGE,3r6rzgk0yip7nifkjif6ljfzh9ayv2,3nc5l260msz8krnm4i66qqa3t09fo1,igabYPGE,2020-0188,2020-11-21,08:47:09,09:27:48,NA,incomplete,115,number,1,left,Purple_Plus_Stripes_4.jpg,Green_Star_Chess_4.jpg,Red_Plus_Dots_2.jpg,right,1328.0899999663234,false,high,false
igabYPGE,3r6rzgk0yip7nifkjif6ljfzh9ayv2,3nc5l260msz8krnm4i66qqa3t09fo1,igabYPGE,2020-0188,2020-11-21,08:47:09,09:27:48,NA,incomplete,116,number,1,left,Purple_Star_Stripes_1.jpg,Red_Circle_Grid_1.jpg,Green_Star_Chess_2.jpg,left,1323.074999731034,true,high,false
igabYPGE,3r6rzgk0yip7nifkjif6ljfzh9ayv2,3nc5l260msz8krnm4i66qqa3t09fo1,igabYPGE,2020-0188,2020-11-21,08:47:09,09:27:48,NA,incomplete,117,number,1,left,Green_Plus_Grid_1.jpg,Blue_Star_Dots_1.jpg,Purple_Plus_Chess_4.jpg,none,0,false,high,false
igabYPGE,3r6rzgk0yip7nifkjif6ljfzh9ayv2,3nc5l260msz8krnm4i66qqa3t09fo1,igabYPGE,2020-0188,2020-11-21,08:47:09,09:27:48,NA,incomplete,118,number,0,left,Purple_Triangle_Grid_3.jpg,Red_Star_Dots_3.jpg,Blue_Triangle_Chess_4.jpg,right,1119.769999757409,false,high,false
igabYPGE,3r6rzgk0yip7nifkjif6ljfzh9ayv2,3nc5l260msz8krnm4i66qqa3t09fo1,igabYPGE,2020-0188,2020-11-21,08:47:09,09:27:48,NA,incomplete,119,number,1,left,Green_Plus_Grid_2.jpg,Purple_Circle_Stripes_2.jpg,Blue_Plus_Chess_4.jpg,left,1079.6000002883375,true,high,false
igabYPGE,3r6rzgk0yip7nifkjif6ljfzh9ayv2,3nc5l260msz8krnm4i66qqa3t09fo1,igabYPGE,2020-0188,2020-11-21,08:47:09,09:27:48,NA,incomplete,120,shape,0,left,Red_Star_Chess_4.jpg,Green_Star_Dots_2.jpg,Purple_Circle_Stripes_4.jpg,left,1004.1700000874698,true,high,false
igabYPGE,3r6rzgk0yip7nifkjif6ljfzh9ayv2,3nc5l260msz8krnm4i66qqa3t09fo1,igabYPGE,2020-0188,2020-11-21,08:47:09,09:27:48,NA,incomplete,121,shape,1,right,Green_Plus_Chess_1.jpg,Purple_Triangle_Dots_1.jpg,Red_Plus_Stripes_2.jpg,right,963.190000038594,true,high,false
igabYPGE,3r6rzgk0yip7nifkjif6ljfzh9ayv2,3nc5l260msz8krnm4i66qqa3t09fo1,igabYPGE,2020-0188,2020-11-21,08:47:09,09:27:48,NA,incomplete,122,shape,0,left,Purple_Star_Grid_1.jpg,Blue_Star_Chess_2.jpg,Red_Triangle_Dots_1.jpg,right,1033.6849996820092,false,high,false
igabYPGE,3r6rzgk0yip7nifkjif6ljfzh9ayv2,3nc5l260msz8krnm4i66qqa3t09fo1,igabYPGE,2020-0188,2020-11-21,08:47:09,09:27:48,NA,incomplete,123,shape,1,right,Purple_Circle_Chess_1.jpg,Red_Star_Stripes_1.jpg,Blue_Circle_Grid_3.jpg,right,1258.4550003521144,true,high,false
igabYPGE,3r6rzgk0yip7nifkjif6ljfzh9ayv2,3nc5l260msz8krnm4i66qqa3t09fo1,igabYPGE,2020-0188,2020-11-21,08:47:09,09:27:48,NA,incomplete,124,shape,1,right,Green_Plus_Stripes_2.jpg,Red_Circle_Grid_2.jpg,Blue_Plus_Dots_4.jpg,right,1280.3050000220537,true,high,false
igabYPGE,3r6rzgk0yip7nifkjif6ljfzh9ayv2,3nc5l260msz8krnm4i66qqa3t09fo1,igabYPGE,2020-0188,2020-11-21,08:47:09,09:27:48,NA,incomplete,125,shape,0,right,Red_Triangle_Stripes_4.jpg,Purple_Plus_Chess_4.jpg,Green_Triangle_Grid_3.jpg,right,1148.0050003156066,true,high,false
igabYPGE,3r6rzgk0yip7nifkjif6ljfzh9ayv2,3nc5l260msz8krnm4i66qqa3t09fo1,igabYPGE,2020-0188,2020-11-21,08:47:09,09:27:48,NA,incomplete,126,shape,1,left,Purple_Plus_Chess_4.jpg,Red_Plus_Stripes_1.jpg,Blue_Star_Dots_4.jpg,right,1054.64500002563,false,high,false
igabYPGE,3r6rzgk0yip7nifkjif6ljfzh9ayv2,3nc5l260msz8krnm4i66qqa3t09fo1,igabYPGE,2020-0188,2020-11-21,08:47:09,09:27:48,NA,incomplete,127,shape,0,left,Purple_Triangle_Stripes_1.jpg,Green_Triangle_Grid_4.jpg,Red_Circle_Dots_1.jpg,left,1040.694999974221,true,high,false
igabYPGE,3r6rzgk0yip7nifkjif6ljfzh9ayv2,3nc5l260msz8krnm4i66qqa3t09fo1,igabYPGE,2020-0188,2020-11-21,08:47:09,09:27:48,NA,incomplete,128,shape,1,right,Purple_Plus_Stripes_1.jpg,Red_Triangle_Grid_1.jpg,Blue_Plus_Dots_3.jpg,left,1113.874999806285,false,high,false
igabYPGE,3r6rzgk0yip7nifkjif6ljfzh9ayv2,3nc5l260msz8krnm4i66qqa3t09fo1,igabYPGE,2020-0188,2020-11-21,08:47:09,09:27:48,NA,incomplete,129,shape,1,right,Green_Circle_Dots_1.jpg,Purple_Star_Grid_1.jpg,Blue_Circle_Chess_4.jpg,right,1301.9600003026426,true,high,false
igabYPGE,3r6rzgk0yip7nifkjif6ljfzh9ayv2,3nc5l260msz8krnm4i66qqa3t09fo1,igabYPGE,2020-0188,2020-11-21,08:47:09,09:27:48,NA,incomplete,130,shape,1,left,Blue_Plus_Dots_3.jpg,Red_Plus_Chess_4.jpg,Green_Star_Grid_3.jpg,right,985.090000089258,false,high,false
igabYPGE,3r6rzgk0yip7nifkjif6ljfzh9ayv2,3nc5l260msz8krnm4i66qqa3t09fo1,igabYPGE,2020-0188,2020-11-21,08:47:09,09:27:48,NA,incomplete,131,shape,1,right,Red_Circle_Chess_3.jpg,Green_Triangle_Stripes_3.jpg,Blue_Circle_Grid_4.jpg,left,996.5849998407066,false,high,false
igabYPGE,3r6rzgk0yip7nifkjif6ljfzh9ayv2,3nc5l260msz8krnm4i66qqa3t09fo1,igabYPGE,2020-0188,2020-11-21,08:47:09,09:27:48,NA,incomplete,132,shape,0,right,Green_Plus_Stripes_2.jpg,Blue_Circle_Grid_2.jpg,Purple_Plus_Dots_1.jpg,left,1140.354999806732,false,high,false
igabYPGE,3r6rzgk0yip7nifkjif6ljfzh9ayv2,3nc5l260msz8krnm4i66qqa3t09fo1,igabYPGE,2020-0188,2020-11-21,08:47:09,09:27:48,NA,incomplete,133,shape,1,left,Red_Circle_Stripes_1.jpg,Blue_Circle_Grid_4.jpg,Purple_Triangle_Chess_1.jpg,right,979.5249998569489,false,high,false
igabYPGE,3r6rzgk0yip7nifkjif6ljfzh9ayv2,3nc5l260msz8krnm4i66qqa3t09fo1,igabYPGE,2020-0188,2020-11-21,08:47:09,09:27:48,NA,incomplete,134,shape,1,right,Red_Plus_Chess_1.jpg,Purple_Star_Dots_1.jpg,Blue_Plus_Stripes_2.jpg,right,1002.7149999514222,true,high,false
igabYPGE,3r6rzgk0yip7nifkjif6ljfzh9ayv2,3nc5l260msz8krnm4i66qqa3t09fo1,igabYPGE,2020-0188,2020-11-21,08:47:09,09:27:48,NA,incomplete,135,shape,1,right,Green_Plus_Dots_3.jpg,Purple_Star_Chess_3.jpg,Red_Plus_Grid_2.jpg,right,941.9450000859797,true,high,false
igabYPGE,3r6rzgk0yip7nifkjif6ljfzh9ayv2,3nc5l260msz8krnm4i66qqa3t09fo1,igabYPGE,2020-0188,2020-11-21,08:47:09,09:27:48,NA,incomplete,136,shape,0,left,Green_Triangle_Stripes_1.jpg,Blue_Triangle_Chess_4.jpg,Red_Star_Dots_1.jpg,left,1164.7100001573563,true,high,false
igabYPGE,3r6rzgk0yip7nifkjif6ljfzh9ayv2,3nc5l260msz8krnm4i66qqa3t09fo1,igabYPGE,2020-0188,2020-11-21,08:47:09,09:27:48,NA,incomplete,137,shape,1,left,Purple_Triangle_Grid_2.jpg,Blue_Triangle_Dots_3.jpg,Green_Circle_Stripes_2.jpg,right,1007.2200000286102,false,high,false
igabYPGE,3r6rzgk0yip7nifkjif6ljfzh9ayv2,3nc5l260msz8krnm4i66qqa3t09fo1,igabYPGE,2020-0188,2020-11-21,08:47:09,09:27:48,NA,incomplete,138,shape,0,right,Purple_Circle_Chess_2.jpg,Red_Triangle_Stripes_2.jpg,Green_Circle_Grid_1.jpg,right,1054.9550000578165,true,high,false
igabYPGE,3r6rzgk0yip7nifkjif6ljfzh9ayv2,3nc5l260msz8krnm4i66qqa3t09fo1,igabYPGE,2020-0188,2020-11-21,08:47:09,09:27:48,NA,incomplete,139,shape,1,right,Green_Triangle_Chess_2.jpg,Red_Star_Grid_2.jpg,Purple_Triangle_Dots_3.jpg,right,1576.894999947399,true,high,false
igabYPGE,3r6rzgk0yip7nifkjif6ljfzh9ayv2,3nc5l260msz8krnm4i66qqa3t09fo1,igabYPGE,2020-0188,2020-11-21,08:47:09,09:27:48,NA,incomplete,140,number,1,right,Blue_Plus_Stripes_3.jpg,Green_Plus_Dots_1.jpg,Red_Triangle_Chess_3.jpg,left,1159.3650002032518,false,high,false
igabYPGE,3r6rzgk0yip7nifkjif6ljfzh9ayv2,3nc5l260msz8krnm4i66qqa3t09fo1,igabYPGE,2020-0188,2020-11-21,08:47:09,09:27:48,NA,incomplete,141,number,0,left,Blue_Circle_Dots_3.jpg,Purple_Star_Chess_3.jpg,Green_Circle_Grid_4.jpg,left,1405.6699997745454,true,high,false
igabYPGE,3r6rzgk0yip7nifkjif6ljfzh9ayv2,3nc5l260msz8krnm4i66qqa3t09fo1,igabYPGE,2020-0188,2020-11-21,08:47:09,09:27:48,NA,incomplete,142,number,1,right,Green_Circle_Dots_1.jpg,Blue_Circle_Grid_3.jpg,Purple_Plus_Chess_1.jpg,right,1376.8899999558926,true,high,false
igabYPGE,3r6rzgk0yip7nifkjif6ljfzh9ayv2,3nc5l260msz8krnm4i66qqa3t09fo1,igabYPGE,2020-0188,2020-11-21,08:47:09,09:27:48,NA,incomplete,143,number,1,right,Blue_Star_Grid_2.jpg,Purple_Star_Dots_4.jpg,Green_Circle_Chess_2.jpg,left,1247.1650000661612,false,high,false
igabYPGE,3r6rzgk0yip7nifkjif6ljfzh9ayv2,3nc5l260msz8krnm4i66qqa3t09fo1,igabYPGE,2020-0188,2020-11-21,08:47:09,09:27:48,NA,incomplete,144,number,0,left,Purple_Plus_Grid_3.jpg,Blue_Circle_Stripes_3.jpg,Red_Plus_Chess_1.jpg,right,1003.6900001578033,false,high,false
igabYPGE,3r6rzgk0yip7nifkjif6ljfzh9ayv2,3nc5l260msz8krnm4i66qqa3t09fo1,igabYPGE,2020-0188,2020-11-21,08:47:09,09:27:48,NA,incomplete,145,number,1,left,Blue_Triangle_Dots_2.jpg,Red_Star_Stripes_2.jpg,Purple_Triangle_Chess_4.jpg,left,1701.3449999503791,true,high,false
igabYPGE,3r6rzgk0yip7nifkjif6ljfzh9ayv2,3nc5l260msz8krnm4i66qqa3t09fo1,igabYPGE,2020-0188,2020-11-21,08:47:09,09:27:48,NA,incomplete,146,number,1,left,Green_Plus_Grid_1.jpg,Purple_Star_Chess_1.jpg,Red_Plus_Stripes_3.jpg,right,1308.6900003254414,false,high,false
igabYPGE,3r6rzgk0yip7nifkjif6ljfzh9ayv2,3nc5l260msz8krnm4i66qqa3t09fo1,igabYPGE,2020-0188,2020-11-21,08:47:09,09:27:48,NA,incomplete,147,number,1,right,Red_Circle_Dots_3.jpg,Green_Circle_Grid_4.jpg,Purple_Star_Chess_3.jpg,right,1947.6850000210106,true,high,false
igabYPGE,3r6rzgk0yip7nifkjif6ljfzh9ayv2,3nc5l260msz8krnm4i66qqa3t09fo1,igabYPGE,2020-0188,2020-11-21,08:47:09,09:27:48,NA,incomplete,148,number,1,right,Purple_Circle_Stripes_3.jpg,Blue_Circle_Dots_4.jpg,Green_Triangle_Chess_3.jpg,none,0,false,high,false
igabYPGE,3r6rzgk0yip7nifkjif6ljfzh9ayv2,3nc5l260msz8krnm4i66qqa3t09fo1,igabYPGE,2020-0188,2020-11-21,08:47:09,09:27:48,NA,incomplete,149,number,1,right,Red_Star_Grid_1.jpg,Green_Star_Dots_3.jpg,Blue_Plus_Chess_1.jpg,left,1332.6099999248981,false,high,false
igabYPGE,3r6rzgk0yip7nifkjif6ljfzh9ayv2,3nc5l260msz8krnm4i66qqa3t09fo1,igabYPGE,2020-0188,2020-11-21,08:47:09,09:27:48,NA,incomplete,150,number,1,left,Purple_Plus_Stripes_4.jpg,Blue_Star_Grid_4.jpg,Red_Plus_Chess_2.jpg,right,1226.4699996449053,false,high,false
igabYPGE,3r6rzgk0yip7nifkjif6ljfzh9ayv2,3nc5l260msz8krnm4i66qqa3t09fo1,igabYPGE,2020-0188,2020-11-21,08:47:09,09:27:48,NA,incomplete,151,number,1,left,Blue_Star_Dots_3.jpg,Red_Plus_Chess_3.jpg,Purple_Star_Grid_1.jpg,none,0,false,high,false
igabYPGE,3r6rzgk0yip7nifkjif6ljfzh9ayv2,3nc5l260msz8krnm4i66qqa3t09fo1,igabYPGE,2020-0188,2020-11-21,08:47:09,09:27:48,NA,incomplete,152,number,1,right,Blue_Triangle_Dots_1.jpg,Purple_Triangle_Grid_2.jpg,Green_Circle_Chess_1.jpg,left,1073.1649999506772,false,high,false
igabYPGE,3r6rzgk0yip7nifkjif6ljfzh9ayv2,3nc5l260msz8krnm4i66qqa3t09fo1,igabYPGE,2020-0188,2020-11-21,08:47:09,09:27:48,NA,incomplete,153,number,1,left,Red_Triangle_Grid_4.jpg,Purple_Circle_Stripes_4.jpg,Green_Triangle_Dots_3.jpg,left,1220.8549999631941,true,high,false
igabYPGE,3r6rzgk0yip7nifkjif6ljfzh9ayv2,3nc5l260msz8krnm4i66qqa3t09fo1,igabYPGE,2020-0188,2020-11-21,08:47:09,09:27:48,NA,incomplete,154,number,1,right,Green_Circle_Dots_1.jpg,Blue_Circle_Chess_4.jpg,Purple_Plus_Grid_1.jpg,left,915.4349998570979,false,high,false
igabYPGE,3r6rzgk0yip7nifkjif6ljfzh9ayv2,3nc5l260msz8krnm4i66qqa3t09fo1,igabYPGE,2020-0188,2020-11-21,08:47:09,09:27:48,NA,incomplete,155,number,1,left,Green_Star_Stripes_4.jpg,Blue_Triangle_Dots_4.jpg,Red_Star_Chess_2.jpg,right,1183.0199998803437,false,high,false
igabYPGE,3r6rzgk0yip7nifkjif6ljfzh9ayv2,3nc5l260msz8krnm4i66qqa3t09fo1,igabYPGE,2020-0188,2020-11-21,08:47:09,09:27:48,NA,incomplete,156,number,1,right,Red_Triangle_Stripes_3.jpg,Green_Triangle_Grid_1.jpg,Purple_Circle_Chess_3.jpg,right,1152.6699997484684,true,high,false
igabYPGE,3r6rzgk0yip7nifkjif6ljfzh9ayv2,3nc5l260msz8krnm4i66qqa3t09fo1,igabYPGE,2020-0188,2020-11-21,08:47:09,09:27:48,NA,incomplete,157,number,1,right,Purple_Star_Dots_2.jpg,Red_Star_Chess_1.jpg,Green_Circle_Grid_2.jpg,left,1057.580000255257,false,high,false
igabYPGE,3r6rzgk0yip7nifkjif6ljfzh9ayv2,3nc5l260msz8krnm4i66qqa3t09fo1,igabYPGE,2020-0188,2020-11-21,08:47:09,09:27:48,NA,incomplete,158,number,1,left,Green_Plus_Dots_2.jpg,Purple_Circle_Chess_2.jpg,Blue_Plus_Grid_4.jpg,left,1261.6349998861551,true,high,false
igabYPGE,3r6rzgk0yip7nifkjif6ljfzh9ayv2,3nc5l260msz8krnm4i66qqa3t09fo1,igabYPGE,2020-0188,2020-11-21,08:47:09,09:27:48,NA,incomplete,159,number,0,right,Green_Plus_Stripes_2.jpg,Purple_Plus_Dots_3.jpg,Red_Triangle_Grid_2.jpg,right,1514.1050000675023,true,high,false
igabYPGE,3r6rzgk0yip7nifkjif6ljfzh9ayv2,3nc5l260msz8krnm4i66qqa3t09fo1,igabYPGE,2020-0188,2020-11-21,08:47:09,09:27:48,NA,incomplete,160,shape,1,right,Blue_Plus_Stripes_2.jpg,Purple_Star_Grid_2.jpg,Green_Plus_Dots_4.jpg,left,1118.4450001455843,false,high,false
igabYPGE,3r6rzgk0yip7nifkjif6ljfzh9ayv2,3nc5l260msz8krnm4i66qqa3t09fo1,igabYPGE,2020-0188,2020-11-21,08:47:09,09:27:48,NA,incomplete,161,shape,1,left,Blue_Plus_Grid_2.jpg,Red_Plus_Dots_3.jpg,Green_Triangle_Chess_2.jpg,left,1183.7600003927946,true,high,false
igabYPGE,3r6rzgk0yip7nifkjif6ljfzh9ayv2,3nc5l260msz8krnm4i66qqa3t09fo1,igabYPGE,2020-0188,2020-11-21,08:47:09,09:27:48,NA,incomplete,162,shape,1,right,Red_Circle_Chess_4.jpg,Purple_Triangle_Stripes_4.jpg,Blue_Circle_Dots_1.jpg,right,1117.9650002159178,true,high,false
igabYPGE,3r6rzgk0yip7nifkjif6ljfzh9ayv2,3nc5l260msz8krnm4i66qqa3t09fo1,igabYPGE,2020-0188,2020-11-21,08:47:09,09:27:48,NA,incomplete,163,shape,0,left,Red_Star_Dots_3.jpg,Purple_Star_Stripes_2.jpg,Blue_Triangle_Grid_3.jpg,left,1223.594999872148,true,high,false
igabYPGE,3r6rzgk0yip7nifkjif6ljfzh9ayv2,3nc5l260msz8krnm4i66qqa3t09fo1,igabYPGE,2020-0188,2020-11-21,08:47:09,09:27:48,NA,incomplete,164,shape,1,right,Blue_Plus_Dots_4.jpg,Purple_Star_Grid_4.jpg,Green_Plus_Chess_3.jpg,right,1472.0550002530217,true,high,false
igabYPGE,3r6rzgk0yip7nifkjif6ljfzh9ayv2,3nc5l260msz8krnm4i66qqa3t09fo1,igabYPGE,2020-0188,2020-11-21,08:47:09,09:27:48,NA,incomplete,165,shape,0,right,Green_Circle_Chess_4.jpg,Purple_Triangle_Grid_4.jpg,Red_Circle_Dots_3.jpg,right,1287.2699997387826,true,high,false
igabYPGE,3r6rzgk0yip7nifkjif6ljfzh9ayv2,3nc5l260msz8krnm4i66qqa3t09fo1,igabYPGE,2020-0188,2020-11-21,08:47:09,09:27:48,NA,incomplete,166,shape,1,right,Red_Triangle_Dots_3.jpg,Green_Circle_Chess_3.jpg,Blue_Triangle_Grid_2.jpg,right,1248.7150002270937,true,high,false
igabYPGE,3r6rzgk0yip7nifkjif6ljfzh9ayv2,3nc5l260msz8krnm4i66qqa3t09fo1,igabYPGE,2020-0188,2020-11-21,08:47:09,09:27:48,NA,incomplete,167,shape,1,left,Red_Star_Dots_1.jpg,Purple_Star_Chess_3.jpg,Green_Triangle_Grid_1.jpg,right,1726.6549998894334,false,high,false
igabYPGE,3r6rzgk0yip7nifkjif6ljfzh9ayv2,3nc5l260msz8krnm4i66qqa3t09fo1,igabYPGE,2020-0188,2020-11-21,08:47:09,09:27:48,NA,incomplete,168,shape,1,right,Green_Star_Grid_3.jpg,Purple_Circle_Dots_3.jpg,Blue_Star_Stripes_1.jpg,right,1285.850000102073,true,high,false
igabYPGE,3r6rzgk0yip7nifkjif6ljfzh9ayv2,3nc5l260msz8krnm4i66qqa3t09fo1,igabYPGE,2020-0188,2020-11-21,08:47:09,09:27:48,NA,incomplete,169,shape,1,left,Green_Star_Chess_1.jpg,Red_Star_Dots_3.jpg,Blue_Plus_Stripes_1.jpg,none,0,false,high,false
igabYPGE,3r6rzgk0yip7nifkjif6ljfzh9ayv2,3nc5l260msz8krnm4i66qqa3t09fo1,igabYPGE,2020-0188,2020-11-21,08:47:09,09:27:48,NA,incomplete,170,shape,1,right,Green_Triangle_Stripes_2.jpg,Purple_Star_Chess_2.jpg,Blue_Triangle_Grid_1.jpg,right,1148.1600003316998,true,high,false
igabYPGE,3r6rzgk0yip7nifkjif6ljfzh9ayv2,3nc5l260msz8krnm4i66qqa3t09fo1,igabYPGE,2020-0188,2020-11-21,08:47:09,09:27:48,NA,incomplete,171,shape,0,right,Blue_Triangle_Chess_1.jpg,Purple_Circle_Stripes_1.jpg,Red_Triangle_Dots_2.jpg,right,1128.8299998268485,true,high,false
igabYPGE,3r6rzgk0yip7nifkjif6ljfzh9ayv2,3nc5l260msz8krnm4i66qqa3t09fo1,igabYPGE,2020-0188,2020-11-21,08:47:09,09:27:48,NA,incomplete,172,shape,1,left,Purple_Star_Grid_3.jpg,Red_Star_Chess_4.jpg,Green_Triangle_Stripes_3.jpg,left,1466.7600002139807,true,high,false
igabYPGE,3r6rzgk0yip7nifkjif6ljfzh9ayv2,3nc5l260msz8krnm4i66qqa3t09fo1,igabYPGE,2020-0188,2020-11-21,08:47:09,09:27:48,NA,incomplete,173,shape,1,right,Purple_Plus_Dots_2.jpg,Green_Star_Chess_2.jpg,Red_Plus_Stripes_3.jpg,none,0,false,high,false
igabYPGE,3r6rzgk0yip7nifkjif6ljfzh9ayv2,3nc5l260msz8krnm4i66qqa3t09fo1,igabYPGE,2020-0188,2020-11-21,08:47:09,09:27:48,NA,incomplete,174,shape,1,right,Red_Plus_Grid_4.jpg,Blue_Circle_Stripes_4.jpg,Purple_Plus_Dots_1.jpg,right,1314.990000333637,true,high,false
igabYPGE,3r6rzgk0yip7nifkjif6ljfzh9ayv2,3nc5l260msz8krnm4i66qqa3t09fo1,igabYPGE,2020-0188,2020-11-21,08:47:09,09:27:48,NA,incomplete,175,shape,1,right,Purple_Triangle_Grid_1.jpg,Blue_Circle_Dots_1.jpg,Green_Triangle_Chess_3.jpg,right,883.2549997605383,true,high,false
igabYPGE,3r6rzgk0yip7nifkjif6ljfzh9ayv2,3nc5l260msz8krnm4i66qqa3t09fo1,igabYPGE,2020-0188,2020-11-21,08:47:09,09:27:48,NA,incomplete,176,shape,1,right,Green_Star_Chess_1.jpg,Red_Triangle_Grid_1.jpg,Blue_Star_Stripes_4.jpg,right,1128.359999973327,true,high,false
igabYPGE,3r6rzgk0yip7nifkjif6ljfzh9ayv2,3nc5l260msz8krnm4i66qqa3t09fo1,igabYPGE,2020-0188,2020-11-21,08:47:09,09:27:48,NA,incomplete,177,shape,1,left,Blue_Plus_Chess_4.jpg,Red_Plus_Dots_2.jpg,Purple_Star_Stripes_4.jpg,right,978.9800001308322,false,high,false
igabYPGE,3r6rzgk0yip7nifkjif6ljfzh9ayv2,3nc5l260msz8krnm4i66qqa3t09fo1,igabYPGE,2020-0188,2020-11-21,08:47:09,09:27:48,NA,incomplete,178,shape,0,right,Red_Plus_Grid_3.jpg,Green_Triangle_Stripes_3.jpg,Purple_Plus_Dots_4.jpg,right,1425.9549998678267,true,high,false
igabYPGE,3r6rzgk0yip7nifkjif6ljfzh9ayv2,3nc5l260msz8krnm4i66qqa3t09fo1,igabYPGE,2020-0188,2020-11-21,08:47:09,09:27:48,NA,incomplete,179,shape,1,right,Green_Plus_Grid_3.jpg,Red_Triangle_Stripes_3.jpg,Purple_Plus_Chess_2.jpg,right,885.5099999345839,true,high,false
igabYPGE,3r6rzgk0yip7nifkjif6ljfzh9ayv2,3nc5l260msz8krnm4i66qqa3t09fo1,igabYPGE,2020-0188,2020-11-21,08:47:09,09:27:48,NA,incomplete,180,number,1,right,Blue_Circle_Stripes_2.jpg,Purple_Circle_Dots_1.jpg,Green_Star_Chess_2.jpg,left,1229.5550000853837,false,high,false
igabYPGE,3r6rzgk0yip7nifkjif6ljfzh9ayv2,3nc5l260msz8krnm4i66qqa3t09fo1,igabYPGE,2020-0188,2020-11-21,08:47:09,09:27:48,NA,incomplete,181,number,1,left,Red_Star_Grid_4.jpg,Blue_Circle_Stripes_4.jpg,Green_Star_Chess_2.jpg,right,1097.735000308603,false,high,false
igabYPGE,3r6rzgk0yip7nifkjif6ljfzh9ayv2,3nc5l260msz8krnm4i66qqa3t09fo1,igabYPGE,2020-0188,2020-11-21,08:47:09,09:27:48,NA,incomplete,182,number,1,right,Purple_Star_Grid_3.jpg,Red_Star_Chess_4.jpg,Green_Circle_Dots_3.jpg,none,0,false,high,false
igabYPGE,3r6rzgk0yip7nifkjif6ljfzh9ayv2,3nc5l260msz8krnm4i66qqa3t09fo1,igabYPGE,2020-0188,2020-11-21,08:47:09,09:27:48,NA,incomplete,183,number,1,right,Purple_Circle_Stripes_4.jpg,Green_Circle_Grid_3.jpg,Blue_Star_Dots_4.jpg,left,1062.4350002035499,false,high,false
igabYPGE,3r6rzgk0yip7nifkjif6ljfzh9ayv2,3nc5l260msz8krnm4i66qqa3t09fo1,igabYPGE,2020-0188,2020-11-21,08:47:09,09:27:48,NA,incomplete,184,number,1,right,Purple_Star_Grid_1.jpg,Red_Star_Dots_2.jpg,Green_Circle_Stripes_1.jpg,right,999.1099997423589,true,high,false
igabYPGE,3r6rzgk0yip7nifkjif6ljfzh9ayv2,3nc5l260msz8krnm4i66qqa3t09fo1,igabYPGE,2020-0188,2020-11-21,08:47:09,09:27:48,NA,incomplete,185,number,1,left,Blue_Circle_Chess_3.jpg,Green_Triangle_Dots_3.jpg,Red_Circle_Stripes_1.jpg,left,1149.5699998922646,true,high,false
igabYPGE,3r6rzgk0yip7nifkjif6ljfzh9ayv2,3nc5l260msz8krnm4i66qqa3t09fo1,igabYPGE,2020-0188,2020-11-21,08:47:09,09:27:48,NA,incomplete,186,number,1,right,Green_Plus_Stripes_4.jpg,Purple_Plus_Grid_3.jpg,Blue_Circle_Chess_4.jpg,right,1260.870000347495,true,high,false
igabYPGE,3r6rzgk0yip7nifkjif6ljfzh9ayv2,3nc5l260msz8krnm4i66qqa3t09fo1,igabYPGE,2020-0188,2020-11-21,08:47:09,09:27:48,NA,incomplete,187,number,1,right,Red_Circle_Chess_1.jpg,Blue_Circle_Grid_3.jpg,Purple_Triangle_Stripes_1.jpg,left,1064.3350002355874,false,high,false
igabYPGE,3r6rzgk0yip7nifkjif6ljfzh9ayv2,3nc5l260msz8krnm4i66qqa3t09fo1,igabYPGE,2020-0188,2020-11-21,08:47:09,09:27:48,NA,incomplete,188,number,1,left,Blue_Circle_Chess_1.jpg,Red_Star_Stripes_1.jpg,Green_Circle_Dots_4.jpg,left,1379.8199999146163,true,high,false
igabYPGE,3r6rzgk0yip7nifkjif6ljfzh9ayv2,3nc5l260msz8krnm4i66qqa3t09fo1,igabYPGE,2020-0188,2020-11-21,08:47:09,09:27:48,NA,incomplete,189,number,1,right,Blue_Plus_Chess_3.jpg,Purple_Plus_Grid_2.jpg,Red_Circle_Dots_3.jpg,right,1591.2700002081692,true,high,false
igabYPGE,3r6rzgk0yip7nifkjif6ljfzh9ayv2,3nc5l260msz8krnm4i66qqa3t09fo1,igabYPGE,2020-0188,2020-11-21,08:47:09,09:27:48,NA,incomplete,190,number,0,left,Blue_Star_Stripes_2.jpg,Green_Plus_Chess_2.jpg,Red_Star_Dots_1.jpg,left,1302.3350001312792,true,high,false
igabYPGE,3r6rzgk0yip7nifkjif6ljfzh9ayv2,3nc5l260msz8krnm4i66qqa3t09fo1,igabYPGE,2020-0188,2020-11-21,08:47:09,09:27:48,NA,incomplete,191,number,1,left,Red_Triangle_Chess_3.jpg,Blue_Plus_Dots_3.jpg,Purple_Triangle_Grid_4.jpg,right,980.1350003108382,false,high,false
igabYPGE,3r6rzgk0yip7nifkjif6ljfzh9ayv2,3nc5l260msz8krnm4i66qqa3t09fo1,igabYPGE,2020-0188,2020-11-21,08:47:09,09:27:48,NA,incomplete,192,number,1,right,Red_Star_Grid_1.jpg,Green_Star_Chess_3.jpg,Blue_Circle_Dots_1.jpg,right,1072.940000332892,true,high,false
igabYPGE,3r6rzgk0yip7nifkjif6ljfzh9ayv2,3nc5l260msz8krnm4i66qqa3t09fo1,igabYPGE,2020-0188,2020-11-21,08:47:09,09:27:48,NA,incomplete,193,number,0,right,Blue_Star_Chess_2.jpg,Purple_Star_Grid_4.jpg,Green_Triangle_Stripes_2.jpg,right,1895.9949999116361,true,high,false
igabYPGE,3r6rzgk0yip7nifkjif6ljfzh9ayv2,3nc5l260msz8krnm4i66qqa3t09fo1,igabYPGE,2020-0188,2020-11-21,08:47:09,09:27:48,NA,incomplete,194,number,1,left,Red_Star_Dots_1.jpg,Purple_Circle_Chess_1.jpg,Green_Star_Stripes_3.jpg,left,1129.7050002031028,true,high,false
igabYPGE,3r6rzgk0yip7nifkjif6ljfzh9ayv2,3nc5l260msz8krnm4i66qqa3t09fo1,igabYPGE,2020-0188,2020-11-21,08:47:09,09:27:48,NA,incomplete,195,number,0,right,Purple_Plus_Grid_3.jpg,Green_Plus_Dots_1.jpg,Blue_Triangle_Stripes_3.jpg,right,1019.1849996335804,true,high,false
igabYPGE,3r6rzgk0yip7nifkjif6ljfzh9ayv2,3nc5l260msz8krnm4i66qqa3t09fo1,igabYPGE,2020-0188,2020-11-21,08:47:09,09:27:48,NA,incomplete,196,number,1,right,Blue_Circle_Stripes_4.jpg,Red_Circle_Grid_1.jpg,Green_Plus_Chess_4.jpg,left,992.7849997766316,false,high,false
igabYPGE,3r6rzgk0yip7nifkjif6ljfzh9ayv2,3nc5l260msz8krnm4i66qqa3t09fo1,igabYPGE,2020-0188,2020-11-21,08:47:09,09:27:48,NA,incomplete,197,number,1,right,Blue_Star_Stripes_4.jpg,Green_Star_Chess_2.jpg,Purple_Circle_Dots_4.jpg,right,1251.589999999851,true,high,false
igabYPGE,3r6rzgk0yip7nifkjif6ljfzh9ayv2,3nc5l260msz8krnm4i66qqa3t09fo1,igabYPGE,2020-0188,2020-11-21,08:47:09,09:27:48,NA,incomplete,198,number,1,right,Purple_Plus_Grid_2.jpg,Red_Plus_Stripes_1.jpg,Green_Circle_Dots_2.jpg,right,1104.0300000458956,true,high,false
igabYPGE,3r6rzgk0yip7nifkjif6ljfzh9ayv2,3nc5l260msz8krnm4i66qqa3t09fo1,igabYPGE,2020-0188,2020-11-21,08:47:09,09:27:48,NA,incomplete,199,number,1,right,Purple_Circle_Stripes_1.jpg,Blue_Circle_Chess_3.jpg,Green_Star_Dots_1.jpg,right,1343.5550001449883,true,high,false
igabYPGE,3r6rzgk0yip7nifkjif6ljfzh9ayv2,3nc5l260msz8krnm4i66qqa3t09fo1,igabYPGE,2020-0188,2020-11-21,08:47:09,09:27:48,NA,incomplete,200,shape,0,right,Green_Circle_Dots_4.jpg,Blue_Star_Stripes_4.jpg,Red_Circle_Grid_3.jpg,left,1461.1049997620285,false,high,false
igabYPGE,3r6rzgk0yip7nifkjif6ljfzh9ayv2,3nc5l260msz8krnm4i66qqa3t09fo1,igabYPGE,2020-0188,2020-11-21,08:47:09,09:27:48,NA,incomplete,201,shape,1,right,Purple_Circle_Chess_3.jpg,Blue_Star_Stripes_3.jpg,Red_Circle_Grid_2.jpg,right,965.1850000955164,true,high,false
igabYPGE,3r6rzgk0yip7nifkjif6ljfzh9ayv2,3nc5l260msz8krnm4i66qqa3t09fo1,igabYPGE,2020-0188,2020-11-21,08:47:09,09:27:48,NA,incomplete,202,shape,0,right,Green_Circle_Chess_2.jpg,Purple_Plus_Grid_2.jpg,Red_Circle_Stripes_1.jpg,right,954.3000003322959,true,high,false
igabYPGE,3r6rzgk0yip7nifkjif6ljfzh9ayv2,3nc5l260msz8krnm4i66qqa3t09fo1,igabYPGE,2020-0188,2020-11-21,08:47:09,09:27:48,NA,incomplete,203,shape,1,left,Blue_Triangle_Grid_1.jpg,Red_Triangle_Chess_4.jpg,Purple_Plus_Stripes_1.jpg,right,1232.370000332594,false,high,false
igabYPGE,3r6rzgk0yip7nifkjif6ljfzh9ayv2,3nc5l260msz8krnm4i66qqa3t09fo1,igabYPGE,2020-0188,2020-11-21,08:47:09,09:27:48,NA,incomplete,204,shape,1,left,Green_Triangle_Chess_3.jpg,Blue_Triangle_Grid_4.jpg,Purple_Star_Stripes_3.jpg,none,0,false,high,false
igabYPGE,3r6rzgk0yip7nifkjif6ljfzh9ayv2,3nc5l260msz8krnm4i66qqa3t09fo1,igabYPGE,2020-0188,2020-11-21,08:47:09,09:27:48,NA,incomplete,205,shape,0,right,Green_Triangle_Dots_2.jpg,Red_Plus_Grid_2.jpg,Purple_Triangle_Chess_1.jpg,none,0,false,high,false
igabYPGE,3r6rzgk0yip7nifkjif6ljfzh9ayv2,3nc5l260msz8krnm4i66qqa3t09fo1,igabYPGE,2020-0188,2020-11-21,08:47:09,09:27:48,NA,incomplete,206,shape,1,left,Purple_Star_Grid_3.jpg,Red_Star_Dots_2.jpg,Green_Plus_Chess_3.jpg,left,1256.959999911487,true,high,false
igabYPGE,3r6rzgk0yip7nifkjif6ljfzh9ayv2,3nc5l260msz8krnm4i66qqa3t09fo1,igabYPGE,2020-0188,2020-11-21,08:47:09,09:27:48,NA,incomplete,207,shape,1,right,Purple_Star_Chess_4.jpg,Green_Plus_Stripes_4.jpg,Blue_Star_Grid_2.jpg,right,1172.9700001887977,true,high,false
igabYPGE,3r6rzgk0yip7nifkjif6ljfzh9ayv2,3nc5l260msz8krnm4i66qqa3t09fo1,igabYPGE,2020-0188,2020-11-21,08:47:09,09:27:48,NA,incomplete,208,shape,1,left,Green_Circle_Dots_4.jpg,Red_Circle_Grid_3.jpg,Blue_Plus_Stripes_4.jpg,left,1219.8599996045232,true,high,false
igabYPGE,3r6rzgk0yip7nifkjif6ljfzh9ayv2,3nc5l260msz8krnm4i66qqa3t09fo1,igabYPGE,2020-0188,2020-11-21,08:47:09,09:27:48,NA,incomplete,209,shape,0,left,Purple_Star_Grid_4.jpg,Blue_Star_Dots_2.jpg,Red_Plus_Chess_4.jpg,left,1265.269999857992,true,high,false
igabYPGE,3r6rzgk0yip7nifkjif6ljfzh9ayv2,3nc5l260msz8krnm4i66qqa3t09fo1,igabYPGE,2020-0188,2020-11-21,08:47:09,09:27:48,NA,incomplete,210,shape,1,left,Blue_Triangle_Dots_4.jpg,Purple_Triangle_Grid_3.jpg,Red_Plus_Stripes_4.jpg,left,1207.4200003407896,true,high,false
igabYPGE,3r6rzgk0yip7nifkjif6ljfzh9ayv2,3nc5l260msz8krnm4i66qqa3t09fo1,igabYPGE,2020-0188,2020-11-21,08:47:09,09:27:48,NA,incomplete,211,shape,1,left,Purple_Plus_Chess_2.jpg,Red_Plus_Grid_1.jpg,Green_Triangle_Stripes_2.jpg,left,1094.36499979347,true,high,false
igabYPGE,3r6rzgk0yip7nifkjif6ljfzh9ayv2,3nc5l260msz8krnm4i66qqa3t09fo1,igabYPGE,2020-0188,2020-11-21,08:47:09,09:27:48,NA,incomplete,212,shape,1,right,Purple_Circle_Grid_2.jpg,Red_Plus_Stripes_2.jpg,Blue_Circle_Dots_1.jpg,left,1160.999999847263,false,high,false
igabYPGE,3r6rzgk0yip7nifkjif6ljfzh9ayv2,3nc5l260msz8krnm4i66qqa3t09fo1,igabYPGE,2020-0188,2020-11-21,08:47:09,09:27:48,NA,incomplete,213,shape,1,right,Purple_Triangle_Grid_1.jpg,Blue_Plus_Dots_1.jpg,Red_Triangle_Chess_2.jpg,left,1297.8799999691546,false,high,false
igabYPGE,3r6rzgk0yip7nifkjif6ljfzh9ayv2,3nc5l260msz8krnm4i66qqa3t09fo1,igabYPGE,2020-0188,2020-11-21,08:47:09,09:27:48,NA,incomplete,214,shape,1,left,Green_Plus_Grid_1.jpg,Red_Plus_Chess_2.jpg,Purple_Star_Dots_1.jpg,left,957.7000001445413,true,high,false
igabYPGE,3r6rzgk0yip7nifkjif6ljfzh9ayv2,3nc5l260msz8krnm4i66qqa3t09fo1,igabYPGE,2020-0188,2020-11-21,08:47:09,09:27:48,NA,incomplete,215,shape,1,right,Red_Star_Dots_4.jpg,Blue_Triangle_Chess_4.jpg,Purple_Star_Stripes_3.jpg,left,1605.6200000457466,false,high,false
igabYPGE,3r6rzgk0yip7nifkjif6ljfzh9ayv2,3nc5l260msz8krnm4i66qqa3t09fo1,igabYPGE,2020-0188,2020-11-21,08:47:09,09:27:48,NA,incomplete,216,shape,1,right,Blue_Plus_Chess_4.jpg,Green_Triangle_Dots_4.jpg,Purple_Plus_Grid_3.jpg,right,1295.4000001773238,true,high,false
igabYPGE,3r6rzgk0yip7nifkjif6ljfzh9ayv2,3nc5l260msz8krnm4i66qqa3t09fo1,igabYPGE,2020-0188,2020-11-21,08:47:09,09:27:48,NA,incomplete,217,shape,0,right,Blue_Plus_Grid_3.jpg,Purple_Triangle_Stripes_3.jpg,Red_Plus_Dots_1.jpg,right,1053.7649998441339,true,high,false
igabYPGE,3r6rzgk0yip7nifkjif6ljfzh9ayv2,3nc5l260msz8krnm4i66qqa3t09fo1,igabYPGE,2020-0188,2020-11-21,08:47:09,09:27:48,NA,incomplete,218,shape,1,left,Purple_Triangle_Stripes_3.jpg,Green_Triangle_Grid_1.jpg,Red_Star_Chess_3.jpg,left,1132.0049995556474,true,high,false
igabYPGE,3r6rzgk0yip7nifkjif6ljfzh9ayv2,3nc5l260msz8krnm4i66qqa3t09fo1,igabYPGE,2020-0188,2020-11-21,08:47:09,09:27:48,NA,incomplete,219,shape,0,right,Blue_Circle_Dots_1.jpg,Purple_Triangle_Stripes_1.jpg,Red_Circle_Chess_4.jpg,right,1086.9449996389449,true,high,false
igabYPGE,3r6rzgk0yip7nifkjif6ljfzh9ayv2,3nc5l260msz8krnm4i66qqa3t09fo1,igabYPGE,2020-0188,2020-11-21,08:47:09,09:27:48,NA,incomplete,220,number,1,right,Green_Circle_Chess_4.jpg,Red_Circle_Grid_1.jpg,Blue_Triangle_Dots_4.jpg,left,990.650000050664,false,high,false
igabYPGE,3r6rzgk0yip7nifkjif6ljfzh9ayv2,3nc5l260msz8krnm4i66qqa3t09fo1,igabYPGE,2020-0188,2020-11-21,08:47:09,09:27:48,NA,incomplete,221,number,1,right,Blue_Plus_Grid_2.jpg,Purple_Plus_Chess_4.jpg,Red_Circle_Dots_2.jpg,right,921.4550000615418,true,high,false
igabYPGE,3r6rzgk0yip7nifkjif6ljfzh9ayv2,3nc5l260msz8krnm4i66qqa3t09fo1,igabYPGE,2020-0188,2020-11-21,08:47:09,09:27:48,NA,incomplete,222,number,1,left,Green_Star_Dots_4.jpg,Red_Triangle_Stripes_4.jpg,Purple_Star_Chess_1.jpg,left,1042.1199998818338,true,high,false
igabYPGE,3r6rzgk0yip7nifkjif6ljfzh9ayv2,3nc5l260msz8krnm4i66qqa3t09fo1,igabYPGE,2020-0188,2020-11-21,08:47:09,09:27:48,NA,incomplete,223,number,1,left,Green_Plus_Dots_3.jpg,Purple_Star_Grid_3.jpg,Red_Plus_Chess_4.jpg,right,1226.0449999012053,false,high,false
igabYPGE,3r6rzgk0yip7nifkjif6ljfzh9ayv2,3nc5l260msz8krnm4i66qqa3t09fo1,igabYPGE,2020-0188,2020-11-21,08:47:09,09:27:48,NA,incomplete,224,number,1,left,Blue_Circle_Dots_2.jpg,Purple_Triangle_Chess_2.jpg,Green_Circle_Stripes_3.jpg,left,1178.7900002673268,true,high,false
igabYPGE,3r6rzgk0yip7nifkjif6ljfzh9ayv2,3nc5l260msz8krnm4i66qqa3t09fo1,igabYPGE,2020-0188,2020-11-21,08:47:09,09:27:48,NA,incomplete,225,number,1,left,Red_Circle_Stripes_2.jpg,Blue_Triangle_Dots_2.jpg,Purple_Circle_Chess_4.jpg,none,0,false,high,false
igabYPGE,3r6rzgk0yip7nifkjif6ljfzh9ayv2,3nc5l260msz8krnm4i66qqa3t09fo1,igabYPGE,2020-0188,2020-11-21,08:47:09,09:27:48,NA,incomplete,226,number,1,right,Red_Plus_Grid_2.jpg,Blue_Plus_Stripes_4.jpg,Purple_Triangle_Chess_2.jpg,right,932.534999679774,true,high,false
igabYPGE,3r6rzgk0yip7nifkjif6ljfzh9ayv2,3nc5l260msz8krnm4i66qqa3t09fo1,igabYPGE,2020-0188,2020-11-21,08:47:09,09:27:48,NA,incomplete,227,number,1,right,Green_Star_Chess_3.jpg,Blue_Star_Dots_1.jpg,Red_Plus_Grid_3.jpg,left,1006.1200000345707,false,high,false
igabYPGE,3r6rzgk0yip7nifkjif6ljfzh9ayv2,3nc5l260msz8krnm4i66qqa3t09fo1,igabYPGE,2020-0188,2020-11-21,08:47:09,09:27:48,NA,incomplete,228,number,1,left,Purple_Triangle_Stripes_1.jpg,Red_Star_Chess_1.jpg,Blue_Triangle_Grid_3.jpg,left,1114.924999885261,true,high,false
igabYPGE,3r6rzgk0yip7nifkjif6ljfzh9ayv2,3nc5l260msz8krnm4i66qqa3t09fo1,igabYPGE,2020-0188,2020-11-21,08:47:09,09:27:48,NA,incomplete,229,number,1,right,Blue_Star_Dots_2.jpg,Green_Star_Stripes_1.jpg,Red_Circle_Chess_2.jpg,right,1059.7850000485778,true,high,false
igabYPGE,3r6rzgk0yip7nifkjif6ljfzh9ayv2,3nc5l260msz8krnm4i66qqa3t09fo1,igabYPGE,2020-0188,2020-11-21,08:47:09,09:27:48,NA,incomplete,230,number,1,right,Red_Plus_Dots_2.jpg,Purple_Plus_Stripes_3.jpg,Blue_Circle_Grid_2.jpg,right,935.3950000368059,true,high,false
igabYPGE,3r6rzgk0yip7nifkjif6ljfzh9ayv2,3nc5l260msz8krnm4i66qqa3t09fo1,igabYPGE,2020-0188,2020-11-21,08:47:09,09:27:48,NA,incomplete,231,number,1,left,Blue_Circle_Grid_2.jpg,Red_Plus_Chess_2.jpg,Green_Circle_Stripes_3.jpg,left,1072.8050000034273,true,high,false
igabYPGE,3r6rzgk0yip7nifkjif6ljfzh9ayv2,3nc5l260msz8krnm4i66qqa3t09fo1,igabYPGE,2020-0188,2020-11-21,08:47:09,09:27:48,NA,incomplete,232,number,1,right,Purple_Plus_Dots_1.jpg,Green_Plus_Grid_3.jpg,Red_Star_Chess_1.jpg,right,1324.5250000618398,true,high,false
igabYPGE,3r6rzgk0yip7nifkjif6ljfzh9ayv2,3nc5l260msz8krnm4i66qqa3t09fo1,igabYPGE,2020-0188,2020-11-21,08:47:09,09:27:48,NA,incomplete,233,number,0,right,Green_Triangle_Grid_1.jpg,Blue_Triangle_Stripes_2.jpg,Purple_Circle_Dots_1.jpg,right,1139.5999998785555,true,high,false
igabYPGE,3r6rzgk0yip7nifkjif6ljfzh9ayv2,3nc5l260msz8krnm4i66qqa3t09fo1,igabYPGE,2020-0188,2020-11-21,08:47:09,09:27:48,NA,incomplete,234,number,1,right,Green_Star_Chess_4.jpg,Purple_Star_Stripes_2.jpg,Blue_Circle_Grid_4.jpg,left,1016.2399997934699,false,high,false
igabYPGE,3r6rzgk0yip7nifkjif6ljfzh9ayv2,3nc5l260msz8krnm4i66qqa3t09fo1,igabYPGE,2020-0188,2020-11-21,08:47:09,09:27:48,NA,incomplete,235,number,1,right,Red_Star_Chess_4.jpg,Purple_Star_Stripes_3.jpg,Blue_Circle_Grid_4.jpg,right,1420.0800000689924,true,high,false
igabYPGE,3r6rzgk0yip7nifkjif6ljfzh9ayv2,3nc5l260msz8krnm4i66qqa3t09fo1,igabYPGE,2020-0188,2020-11-21,08:47:09,09:27:48,NA,incomplete,236,number,1,right,Blue_Plus_Chess_1.jpg,Purple_Plus_Stripes_2.jpg,Green_Star_Grid_1.jpg,right,1021.9100001268089,true,high,false
igabYPGE,3r6rzgk0yip7nifkjif6ljfzh9ayv2,3nc5l260msz8krnm4i66qqa3t09fo1,igabYPGE,2020-0188,2020-11-21,08:47:09,09:27:48,NA,incomplete,237,number,1,left,Green_Circle_Grid_4.jpg,Blue_Triangle_Chess_4.jpg,Purple_Circle_Stripes_1.jpg,left,1136.9449999183416,true,high,false
igabYPGE,3r6rzgk0yip7nifkjif6ljfzh9ayv2,3nc5l260msz8krnm4i66qqa3t09fo1,igabYPGE,2020-0188,2020-11-21,08:47:09,09:27:48,NA,incomplete,238,number,1,right,Purple_Circle_Stripes_1.jpg,Red_Circle_Chess_2.jpg,Blue_Star_Dots_1.jpg,right,1093.6250002123415,true,high,false
igabYPGE,3r6rzgk0yip7nifkjif6ljfzh9ayv2,3nc5l260msz8krnm4i66qqa3t09fo1,igabYPGE,2020-0188,2020-11-21,08:47:09,09:27:48,NA,incomplete,239,number,1,left,Red_Plus_Stripes_3.jpg,Purple_Circle_Chess_3.jpg,Blue_Plus_Grid_2.jpg,none,0,false,high,false
igabYPGE,3r6rzgk0yip7nifkjif6ljfzh9ayv2,3nc5l260msz8krnm4i66qqa3t09fo1,igabYPGE,2020-0188,2020-11-21,08:47:09,09:27:48,2404606.625000015,2441877.3150001653,NA,NA,NA,NA,NA,NA,NA,NA,NA,NA,NA,undefined
