workerId,hitId,assignmentId,subject,studyid,exp_date,exp_start,exp_end,time_start,time_end,trial,type,reward_validity,answer,image_top,image_left,image_right,response,response_time,response_acc,volatility,age,race,gender,ethnicity,color,vision,neuro,practice
4VlHidrZ,385mdvingfsu7ikqnsjzxyjp4abjww,3nxnz5rs1easyb4akapc582wz4q97e,4VlHidrZ,2020-0188,2020-05-08,11:58:50,12:15:38,NA,incomplete,0,number,1,left,Blue_Circle_Stripes_1.jpg,Red_Star_Chess_1.jpg,Blue_Plus_Dots_4.jpg,left,1281,true,NA,NA,NA,NA,NA,NA,NA,NA,true
4VlHidrZ,385mdvingfsu7ikqnsjzxyjp4abjww,3nxnz5rs1easyb4akapc582wz4q97e,4VlHidrZ,2020-0188,2020-05-08,11:58:50,12:15:38,NA,incomplete,1,number,0,right,Green_Plus_Grid_2.jpg,Green_Circle_Dots_1.jpg,Purple_Triangle_Stripes_2.jpg,right,1184,true,NA,NA,NA,NA,NA,NA,NA,NA,true
4VlHidrZ,385mdvingfsu7ikqnsjzxyjp4abjww,3nxnz5rs1easyb4akapc582wz4q97e,4VlHidrZ,2020-0188,2020-05-08,11:58:50,12:15:38,NA,incomplete,2,number,0,left,Blue_Star_Grid_2.jpg,Purple_Circle_Chess_2.jpg,Blue_Triangle_Stripes_1.jpg,left,1241,true,NA,NA,NA,NA,NA,NA,NA,NA,true
4VlHidrZ,385mdvingfsu7ikqnsjzxyjp4abjww,3nxnz5rs1easyb4akapc582wz4q97e,4VlHidrZ,2020-0188,2020-05-08,11:58:50,12:15:38,NA,incomplete,3,number,1,left,Red_Triangle_Grid_2.jpg,Blue_Star_Dots_2.jpg,Red_Circle_Chess_4.jpg,left,1451,true,NA,NA,NA,NA,NA,NA,NA,NA,true
4VlHidrZ,385mdvingfsu7ikqnsjzxyjp4abjww,3nxnz5rs1easyb4akapc582wz4q97e,4VlHidrZ,2020-0188,2020-05-08,11:58:50,12:15:38,NA,incomplete,4,number,1,left,Green_Circle_Stripes_1.jpg,Blue_Star_Grid_1.jpg,Green_Plus_Chess_3.jpg,left,988,true,NA,NA,NA,NA,NA,NA,NA,NA,true
4VlHidrZ,385mdvingfsu7ikqnsjzxyjp4abjww,3nxnz5rs1easyb4akapc582wz4q97e,4VlHidrZ,2020-0188,2020-05-08,11:58:50,12:15:38,NA,incomplete,5,number,1,right,Red_Plus_Stripes_4.jpg,Red_Circle_Grid_3.jpg,Green_Star_Dots_4.jpg,right,970,true,NA,NA,NA,NA,NA,NA,NA,NA,true
4VlHidrZ,385mdvingfsu7ikqnsjzxyjp4abjww,3nxnz5rs1easyb4akapc582wz4q97e,4VlHidrZ,2020-0188,2020-05-08,11:58:50,12:15:38,NA,incomplete,6,number,1,left,Green_Plus_Stripes_3.jpg,Red_Circle_Chess_3.jpg,Green_Triangle_Dots_4.jpg,left,908,true,NA,NA,NA,NA,NA,NA,NA,NA,true
4VlHidrZ,385mdvingfsu7ikqnsjzxyjp4abjww,3nxnz5rs1easyb4akapc582wz4q97e,4VlHidrZ,2020-0188,2020-05-08,11:58:50,12:15:38,NA,incomplete,7,number,1,left,Purple_Circle_Stripes_3.jpg,Blue_Plus_Chess_3.jpg,Purple_Star_Dots_1.jpg,left,752,true,NA,NA,NA,NA,NA,NA,NA,NA,true
4VlHidrZ,385mdvingfsu7ikqnsjzxyjp4abjww,3nxnz5rs1easyb4akapc582wz4q97e,4VlHidrZ,2020-0188,2020-05-08,11:58:50,12:15:38,NA,incomplete,8,number,1,right,Green_Circle_Chess_1.jpg,Green_Plus_Dots_3.jpg,Blue_Star_Grid_1.jpg,right,789,true,NA,NA,NA,NA,NA,NA,NA,NA,true
4VlHidrZ,385mdvingfsu7ikqnsjzxyjp4abjww,3nxnz5rs1easyb4akapc582wz4q97e,4VlHidrZ,2020-0188,2020-05-08,11:58:50,12:15:38,NA,incomplete,9,number,1,right,Blue_Triangle_Grid_3.jpg,Blue_Plus_Dots_2.jpg,Green_Star_Chess_3.jpg,right,895,true,NA,NA,NA,NA,NA,NA,NA,NA,true
4VlHidrZ,385mdvingfsu7ikqnsjzxyjp4abjww,3nxnz5rs1easyb4akapc582wz4q97e,4VlHidrZ,2020-0188,2020-05-08,11:58:50,12:15:38,NA,incomplete,10,number,1,left,Green_Star_Chess_1.jpg,Red_Circle_Dots_1.jpg,Green_Triangle_Stripes_2.jpg,left,774,true,NA,NA,NA,NA,NA,NA,NA,NA,true
4VlHidrZ,385mdvingfsu7ikqnsjzxyjp4abjww,3nxnz5rs1easyb4akapc582wz4q97e,4VlHidrZ,2020-0188,2020-05-08,11:58:50,12:15:38,NA,incomplete,11,number,1,right,Green_Circle_Grid_1.jpg,Green_Star_Dots_3.jpg,Red_Plus_Stripes_1.jpg,right,690,true,NA,NA,NA,NA,NA,NA,NA,NA,true
4VlHidrZ,385mdvingfsu7ikqnsjzxyjp4abjww,3nxnz5rs1easyb4akapc582wz4q97e,4VlHidrZ,2020-0188,2020-05-08,11:58:50,12:15:38,NA,incomplete,12,number,1,right,Purple_Triangle_Chess_4.jpg,Purple_Circle_Dots_2.jpg,Blue_Plus_Stripes_4.jpg,right,812,true,NA,NA,NA,NA,NA,NA,NA,NA,true
4VlHidrZ,385mdvingfsu7ikqnsjzxyjp4abjww,3nxnz5rs1easyb4akapc582wz4q97e,4VlHidrZ,2020-0188,2020-05-08,11:58:50,12:15:38,NA,incomplete,13,number,1,right,Purple_Circle_Dots_3.jpg,Purple_Star_Grid_1.jpg,Blue_Plus_Stripes_3.jpg,right,660,true,NA,NA,NA,NA,NA,NA,NA,NA,true
4VlHidrZ,385mdvingfsu7ikqnsjzxyjp4abjww,3nxnz5rs1easyb4akapc582wz4q97e,4VlHidrZ,2020-0188,2020-05-08,11:58:50,12:15:38,NA,incomplete,14,number,1,right,Red_Plus_Stripes_1.jpg,Red_Circle_Dots_3.jpg,Green_Star_Grid_1.jpg,right,533,true,NA,NA,NA,NA,NA,NA,NA,NA,true
4VlHidrZ,385mdvingfsu7ikqnsjzxyjp4abjww,3nxnz5rs1easyb4akapc582wz4q97e,4VlHidrZ,2020-0188,2020-05-08,11:58:50,12:15:38,NA,incomplete,15,number,1,right,Blue_Plus_Dots_4.jpg,Blue_Star_Chess_1.jpg,Red_Circle_Grid_4.jpg,right,687,true,NA,NA,NA,NA,NA,NA,NA,NA,true
4VlHidrZ,385mdvingfsu7ikqnsjzxyjp4abjww,3nxnz5rs1easyb4akapc582wz4q97e,4VlHidrZ,2020-0188,2020-05-08,11:58:50,12:15:38,NA,incomplete,16,number,1,left,Red_Star_Dots_2.jpg,Green_Circle_Chess_2.jpg,Red_Plus_Stripes_4.jpg,left,793,true,NA,NA,NA,NA,NA,NA,NA,NA,true
4VlHidrZ,385mdvingfsu7ikqnsjzxyjp4abjww,3nxnz5rs1easyb4akapc582wz4q97e,4VlHidrZ,2020-0188,2020-05-08,11:58:50,12:15:38,NA,incomplete,17,number,1,right,Green_Triangle_Dots_3.jpg,Green_Circle_Chess_2.jpg,Purple_Plus_Stripes_3.jpg,right,772,true,NA,NA,NA,NA,NA,NA,NA,NA,true
4VlHidrZ,385mdvingfsu7ikqnsjzxyjp4abjww,3nxnz5rs1easyb4akapc582wz4q97e,4VlHidrZ,2020-0188,2020-05-08,11:58:50,12:15:38,NA,incomplete,18,number,1,right,Red_Circle_Dots_1.jpg,Red_Plus_Grid_4.jpg,Blue_Triangle_Chess_1.jpg,right,588,true,NA,NA,NA,NA,NA,NA,NA,NA,true
4VlHidrZ,385mdvingfsu7ikqnsjzxyjp4abjww,3nxnz5rs1easyb4akapc582wz4q97e,4VlHidrZ,2020-0188,2020-05-08,11:58:50,12:15:38,NA,incomplete,19,number,1,right,Purple_Plus_Chess_1.jpg,Purple_Triangle_Grid_3.jpg,Green_Star_Dots_1.jpg,right,704,true,NA,NA,NA,NA,NA,NA,NA,NA,true
4VlHidrZ,385mdvingfsu7ikqnsjzxyjp4abjww,3nxnz5rs1easyb4akapc582wz4q97e,4VlHidrZ,2020-0188,2020-05-08,11:58:50,12:15:38,NA,incomplete,20,color,1,left,Blue_Plus_Chess_4.jpg,Blue_Triangle_Grid_1.jpg,Purple_Circle_Dots_4.jpg,left,777,true,NA,NA,NA,NA,NA,NA,NA,NA,true
4VlHidrZ,385mdvingfsu7ikqnsjzxyjp4abjww,3nxnz5rs1easyb4akapc582wz4q97e,4VlHidrZ,2020-0188,2020-05-08,11:58:50,12:15:38,NA,incomplete,21,color,0,left,Blue_Triangle_Stripes_2.jpg,Blue_Star_Grid_1.jpg,Purple_Plus_Dots_2.jpg,left,595,true,NA,NA,NA,NA,NA,NA,NA,NA,true
4VlHidrZ,385mdvingfsu7ikqnsjzxyjp4abjww,3nxnz5rs1easyb4akapc582wz4q97e,4VlHidrZ,2020-0188,2020-05-08,11:58:50,12:15:38,NA,incomplete,22,color,1,right,Purple_Triangle_Dots_3.jpg,Red_Circle_Grid_3.jpg,Purple_Star_Chess_2.jpg,right,1138,true,NA,NA,NA,NA,NA,NA,NA,NA,true
4VlHidrZ,385mdvingfsu7ikqnsjzxyjp4abjww,3nxnz5rs1easyb4akapc582wz4q97e,4VlHidrZ,2020-0188,2020-05-08,11:58:50,12:15:38,NA,incomplete,23,color,1,left,Blue_Star_Grid_3.jpg,Blue_Circle_Stripes_4.jpg,Purple_Plus_Chess_3.jpg,left,743,true,NA,NA,NA,NA,NA,NA,NA,NA,true
4VlHidrZ,385mdvingfsu7ikqnsjzxyjp4abjww,3nxnz5rs1easyb4akapc582wz4q97e,4VlHidrZ,2020-0188,2020-05-08,11:58:50,12:15:38,NA,incomplete,24,color,1,left,Green_Triangle_Dots_2.jpg,Green_Star_Chess_1.jpg,Red_Plus_Stripes_2.jpg,left,659,true,NA,NA,NA,NA,NA,NA,NA,NA,true
4VlHidrZ,385mdvingfsu7ikqnsjzxyjp4abjww,3nxnz5rs1easyb4akapc582wz4q97e,4VlHidrZ,2020-0188,2020-05-08,11:58:50,12:15:38,NA,incomplete,25,color,0,left,Green_Plus_Chess_4.jpg,Green_Star_Grid_3.jpg,Red_Circle_Stripes_4.jpg,left,609,true,NA,NA,NA,NA,NA,NA,NA,NA,true
4VlHidrZ,385mdvingfsu7ikqnsjzxyjp4abjww,3nxnz5rs1easyb4akapc582wz4q97e,4VlHidrZ,2020-0188,2020-05-08,11:58:50,12:15:38,NA,incomplete,26,color,1,right,Purple_Triangle_Stripes_3.jpg,Green_Circle_Dots_3.jpg,Purple_Plus_Chess_4.jpg,right,715,true,NA,NA,NA,NA,NA,NA,NA,NA,true
4VlHidrZ,385mdvingfsu7ikqnsjzxyjp4abjww,3nxnz5rs1easyb4akapc582wz4q97e,4VlHidrZ,2020-0188,2020-05-08,11:58:50,12:15:38,NA,incomplete,27,color,1,left,Green_Plus_Dots_1.jpg,Green_Triangle_Chess_2.jpg,Red_Star_Stripes_1.jpg,left,660,true,NA,NA,NA,NA,NA,NA,NA,NA,true
4VlHidrZ,385mdvingfsu7ikqnsjzxyjp4abjww,3nxnz5rs1easyb4akapc582wz4q97e,4VlHidrZ,2020-0188,2020-05-08,11:58:50,12:15:38,NA,incomplete,28,color,1,left,Blue_Circle_Grid_1.jpg,Blue_Triangle_Dots_4.jpg,Red_Plus_Stripes_1.jpg,left,640,true,NA,NA,NA,NA,NA,NA,NA,NA,true
4VlHidrZ,385mdvingfsu7ikqnsjzxyjp4abjww,3nxnz5rs1easyb4akapc582wz4q97e,4VlHidrZ,2020-0188,2020-05-08,11:58:50,12:15:38,NA,incomplete,29,color,1,right,Blue_Star_Grid_3.jpg,Red_Plus_Stripes_3.jpg,Blue_Triangle_Chess_2.jpg,right,598,true,NA,NA,NA,NA,NA,NA,NA,NA,true
4VlHidrZ,385mdvingfsu7ikqnsjzxyjp4abjww,3nxnz5rs1easyb4akapc582wz4q97e,4VlHidrZ,2020-0188,2020-05-08,11:58:50,12:15:38,NA,incomplete,30,color,1,right,Green_Star_Stripes_1.jpg,Red_Plus_Dots_1.jpg,Green_Triangle_Chess_2.jpg,right,665,true,NA,NA,NA,NA,NA,NA,NA,NA,true
4VlHidrZ,385mdvingfsu7ikqnsjzxyjp4abjww,3nxnz5rs1easyb4akapc582wz4q97e,4VlHidrZ,2020-0188,2020-05-08,11:58:50,12:15:38,NA,incomplete,31,color,1,right,Blue_Triangle_Grid_1.jpg,Purple_Star_Dots_1.jpg,Blue_Circle_Stripes_2.jpg,right,550,true,NA,NA,NA,NA,NA,NA,NA,NA,true
4VlHidrZ,385mdvingfsu7ikqnsjzxyjp4abjww,3nxnz5rs1easyb4akapc582wz4q97e,4VlHidrZ,2020-0188,2020-05-08,11:58:50,12:15:38,NA,incomplete,32,color,0,left,Blue_Triangle_Grid_2.jpg,Blue_Star_Dots_3.jpg,Green_Plus_Chess_2.jpg,left,564,true,NA,NA,NA,NA,NA,NA,NA,NA,true
4VlHidrZ,385mdvingfsu7ikqnsjzxyjp4abjww,3nxnz5rs1easyb4akapc582wz4q97e,4VlHidrZ,2020-0188,2020-05-08,11:58:50,12:15:38,NA,incomplete,33,color,0,right,Purple_Circle_Chess_4.jpg,Green_Plus_Dots_4.jpg,Purple_Star_Grid_3.jpg,right,777,true,NA,NA,NA,NA,NA,NA,NA,NA,true
4VlHidrZ,385mdvingfsu7ikqnsjzxyjp4abjww,3nxnz5rs1easyb4akapc582wz4q97e,4VlHidrZ,2020-0188,2020-05-08,11:58:50,12:15:38,NA,incomplete,34,color,0,right,Red_Star_Grid_4.jpg,Blue_Circle_Dots_4.jpg,Red_Plus_Stripes_2.jpg,right,644,true,NA,NA,NA,NA,NA,NA,NA,NA,true
4VlHidrZ,385mdvingfsu7ikqnsjzxyjp4abjww,3nxnz5rs1easyb4akapc582wz4q97e,4VlHidrZ,2020-0188,2020-05-08,11:58:50,12:15:38,NA,incomplete,35,color,1,right,Purple_Circle_Stripes_3.jpg,Red_Plus_Dots_3.jpg,Purple_Star_Chess_4.jpg,right,806,true,NA,NA,NA,NA,NA,NA,NA,NA,true
4VlHidrZ,385mdvingfsu7ikqnsjzxyjp4abjww,3nxnz5rs1easyb4akapc582wz4q97e,4VlHidrZ,2020-0188,2020-05-08,11:58:50,12:15:38,NA,incomplete,36,color,1,right,Green_Triangle_Dots_4.jpg,Blue_Circle_Grid_4.jpg,Green_Plus_Chess_1.jpg,right,600,true,NA,NA,NA,NA,NA,NA,NA,NA,true
4VlHidrZ,385mdvingfsu7ikqnsjzxyjp4abjww,3nxnz5rs1easyb4akapc582wz4q97e,4VlHidrZ,2020-0188,2020-05-08,11:58:50,12:15:38,NA,incomplete,37,color,1,right,Purple_Star_Dots_4.jpg,Blue_Plus_Grid_4.jpg,Purple_Circle_Stripes_2.jpg,right,551,true,NA,NA,NA,NA,NA,NA,NA,NA,true
4VlHidrZ,385mdvingfsu7ikqnsjzxyjp4abjww,3nxnz5rs1easyb4akapc582wz4q97e,4VlHidrZ,2020-0188,2020-05-08,11:58:50,12:15:38,NA,incomplete,38,color,1,right,Blue_Triangle_Chess_3.jpg,Red_Plus_Grid_3.jpg,Blue_Circle_Stripes_4.jpg,right,585,true,NA,NA,NA,NA,NA,NA,NA,NA,true
4VlHidrZ,385mdvingfsu7ikqnsjzxyjp4abjww,3nxnz5rs1easyb4akapc582wz4q97e,4VlHidrZ,2020-0188,2020-05-08,11:58:50,12:15:38,NA,incomplete,39,color,0,left,Blue_Star_Stripes_3.jpg,Blue_Circle_Dots_4.jpg,Purple_Plus_Chess_3.jpg,left,557,true,NA,NA,NA,NA,NA,NA,NA,NA,true
4VlHidrZ,385mdvingfsu7ikqnsjzxyjp4abjww,3nxnz5rs1easyb4akapc582wz4q97e,4VlHidrZ,2020-0188,2020-05-08,11:58:50,12:15:38,NA,incomplete,0,number,0,left,Red_Plus_Dots_3.jpg,Blue_Triangle_Stripes_3.jpg,Red_Star_Chess_4.jpg,right,1072,false,low,NA,NA,NA,NA,NA,NA,NA,false
4VlHidrZ,385mdvingfsu7ikqnsjzxyjp4abjww,3nxnz5rs1easyb4akapc582wz4q97e,4VlHidrZ,2020-0188,2020-05-08,11:58:50,12:15:38,NA,incomplete,1,number,1,left,Green_Star_Dots_4.jpg,Blue_Circle_Stripes_4.jpg,Green_Plus_Chess_2.jpg,right,559,false,low,NA,NA,NA,NA,NA,NA,NA,false
4VlHidrZ,385mdvingfsu7ikqnsjzxyjp4abjww,3nxnz5rs1easyb4akapc582wz4q97e,4VlHidrZ,2020-0188,2020-05-08,11:58:50,12:15:38,NA,incomplete,2,number,1,left,Blue_Triangle_Chess_3.jpg,Purple_Star_Stripes_3.jpg,Blue_Circle_Dots_1.jpg,right,652,false,low,NA,NA,NA,NA,NA,NA,NA,false
4VlHidrZ,385mdvingfsu7ikqnsjzxyjp4abjww,3nxnz5rs1easyb4akapc582wz4q97e,4VlHidrZ,2020-0188,2020-05-08,11:58:50,12:15:38,NA,incomplete,3,number,1,right,Red_Triangle_Grid_4.jpg,Red_Plus_Stripes_2.jpg,Blue_Star_Chess_4.jpg,right,775,true,low,NA,NA,NA,NA,NA,NA,NA,false
4VlHidrZ,385mdvingfsu7ikqnsjzxyjp4abjww,3nxnz5rs1easyb4akapc582wz4q97e,4VlHidrZ,2020-0188,2020-05-08,11:58:50,12:15:38,NA,incomplete,4,number,0,right,Red_Circle_Chess_1.jpg,Red_Plus_Stripes_4.jpg,Green_Triangle_Grid_1.jpg,left,494,false,low,NA,NA,NA,NA,NA,NA,NA,false
4VlHidrZ,385mdvingfsu7ikqnsjzxyjp4abjww,3nxnz5rs1easyb4akapc582wz4q97e,4VlHidrZ,2020-0188,2020-05-08,11:58:50,12:15:38,NA,incomplete,5,number,1,left,Red_Star_Stripes_4.jpg,Blue_Circle_Dots_4.jpg,Red_Triangle_Chess_2.jpg,right,505,false,low,NA,NA,NA,NA,NA,NA,NA,false
4VlHidrZ,385mdvingfsu7ikqnsjzxyjp4abjww,3nxnz5rs1easyb4akapc582wz4q97e,4VlHidrZ,2020-0188,2020-05-08,11:58:50,12:15:38,NA,incomplete,6,number,1,left,Red_Plus_Chess_1.jpg,Purple_Triangle_Grid_1.jpg,Red_Circle_Stripes_4.jpg,right,540,false,low,NA,NA,NA,NA,NA,NA,NA,false
4VlHidrZ,385mdvingfsu7ikqnsjzxyjp4abjww,3nxnz5rs1easyb4akapc582wz4q97e,4VlHidrZ,2020-0188,2020-05-08,11:58:50,12:15:38,NA,incomplete,7,number,1,right,Green_Star_Chess_2.jpg,Green_Plus_Stripes_1.jpg,Blue_Triangle_Dots_2.jpg,right,724,true,low,NA,NA,NA,NA,NA,NA,NA,false
4VlHidrZ,385mdvingfsu7ikqnsjzxyjp4abjww,3nxnz5rs1easyb4akapc582wz4q97e,4VlHidrZ,2020-0188,2020-05-08,11:58:50,12:15:38,NA,incomplete,8,number,0,right,Blue_Triangle_Grid_3.jpg,Blue_Star_Chess_2.jpg,Green_Plus_Dots_3.jpg,right,632,true,low,NA,NA,NA,NA,NA,NA,NA,false
4VlHidrZ,385mdvingfsu7ikqnsjzxyjp4abjww,3nxnz5rs1easyb4akapc582wz4q97e,4VlHidrZ,2020-0188,2020-05-08,11:58:50,12:15:38,NA,incomplete,9,number,0,left,Green_Plus_Grid_3.jpg,Red_Circle_Stripes_3.jpg,Green_Star_Chess_1.jpg,right,673,false,low,NA,NA,NA,NA,NA,NA,NA,false
4VlHidrZ,385mdvingfsu7ikqnsjzxyjp4abjww,3nxnz5rs1easyb4akapc582wz4q97e,4VlHidrZ,2020-0188,2020-05-08,11:58:50,12:15:38,NA,incomplete,10,number,0,left,Red_Triangle_Dots_2.jpg,Purple_Plus_Grid_2.jpg,Red_Star_Chess_1.jpg,right,644,false,low,NA,NA,NA,NA,NA,NA,NA,false
4VlHidrZ,385mdvingfsu7ikqnsjzxyjp4abjww,3nxnz5rs1easyb4akapc582wz4q97e,4VlHidrZ,2020-0188,2020-05-08,11:58:50,12:15:38,NA,incomplete,11,number,0,left,Blue_Star_Dots_3.jpg,Green_Plus_Chess_3.jpg,Blue_Triangle_Stripes_1.jpg,right,594,false,low,NA,NA,NA,NA,NA,NA,NA,false
4VlHidrZ,385mdvingfsu7ikqnsjzxyjp4abjww,3nxnz5rs1easyb4akapc582wz4q97e,4VlHidrZ,2020-0188,2020-05-08,11:58:50,12:15:38,NA,incomplete,12,number,1,left,Purple_Circle_Chess_1.jpg,Blue_Plus_Grid_1.jpg,Purple_Star_Dots_3.jpg,right,748,false,low,NA,NA,NA,NA,NA,NA,NA,false
4VlHidrZ,385mdvingfsu7ikqnsjzxyjp4abjww,3nxnz5rs1easyb4akapc582wz4q97e,4VlHidrZ,2020-0188,2020-05-08,11:58:50,12:15:38,NA,incomplete,13,number,1,right,Red_Circle_Dots_3.jpg,Red_Star_Grid_1.jpg,Green_Triangle_Chess_3.jpg,left,538,false,low,NA,NA,NA,NA,NA,NA,NA,false
4VlHidrZ,385mdvingfsu7ikqnsjzxyjp4abjww,3nxnz5rs1easyb4akapc582wz4q97e,4VlHidrZ,2020-0188,2020-05-08,11:58:50,12:15:38,NA,incomplete,14,number,1,right,Blue_Star_Dots_2.jpg,Blue_Circle_Stripes_4.jpg,Green_Plus_Chess_2.jpg,right,767,true,low,NA,NA,NA,NA,NA,NA,NA,false
4VlHidrZ,385mdvingfsu7ikqnsjzxyjp4abjww,3nxnz5rs1easyb4akapc582wz4q97e,4VlHidrZ,2020-0188,2020-05-08,11:58:50,12:15:38,NA,incomplete,15,number,1,right,Green_Triangle_Grid_3.jpg,Green_Circle_Dots_4.jpg,Purple_Star_Stripes_3.jpg,right,577,true,low,NA,NA,NA,NA,NA,NA,NA,false
4VlHidrZ,385mdvingfsu7ikqnsjzxyjp4abjww,3nxnz5rs1easyb4akapc582wz4q97e,4VlHidrZ,2020-0188,2020-05-08,11:58:50,12:15:38,NA,incomplete,16,number,1,left,Green_Star_Dots_1.jpg,Purple_Circle_Chess_1.jpg,Green_Plus_Grid_2.jpg,left,534,true,low,NA,NA,NA,NA,NA,NA,NA,false
4VlHidrZ,385mdvingfsu7ikqnsjzxyjp4abjww,3nxnz5rs1easyb4akapc582wz4q97e,4VlHidrZ,2020-0188,2020-05-08,11:58:50,12:15:38,NA,incomplete,17,number,0,left,Purple_Plus_Stripes_2.jpg,Blue_Star_Chess_2.jpg,Purple_Triangle_Grid_4.jpg,left,603,true,low,NA,NA,NA,NA,NA,NA,NA,false
4VlHidrZ,385mdvingfsu7ikqnsjzxyjp4abjww,3nxnz5rs1easyb4akapc582wz4q97e,4VlHidrZ,2020-0188,2020-05-08,11:58:50,12:15:38,NA,incomplete,18,number,1,left,Red_Triangle_Stripes_3.jpg,Green_Star_Grid_3.jpg,Red_Circle_Dots_1.jpg,left,639,true,low,NA,NA,NA,NA,NA,NA,NA,false
4VlHidrZ,385mdvingfsu7ikqnsjzxyjp4abjww,3nxnz5rs1easyb4akapc582wz4q97e,4VlHidrZ,2020-0188,2020-05-08,11:58:50,12:15:38,NA,incomplete,19,number,0,right,Red_Triangle_Grid_4.jpg,Red_Plus_Dots_3.jpg,Green_Circle_Chess_4.jpg,right,522,true,low,NA,NA,NA,NA,NA,NA,NA,false
4VlHidrZ,385mdvingfsu7ikqnsjzxyjp4abjww,3nxnz5rs1easyb4akapc582wz4q97e,4VlHidrZ,2020-0188,2020-05-08,11:58:50,12:15:38,NA,incomplete,20,number,1,right,Purple_Star_Dots_4.jpg,Purple_Triangle_Grid_2.jpg,Blue_Plus_Chess_4.jpg,right,566,true,low,NA,NA,NA,NA,NA,NA,NA,false
4VlHidrZ,385mdvingfsu7ikqnsjzxyjp4abjww,3nxnz5rs1easyb4akapc582wz4q97e,4VlHidrZ,2020-0188,2020-05-08,11:58:50,12:15:38,NA,incomplete,21,number,1,right,Blue_Star_Stripes_1.jpg,Blue_Plus_Chess_2.jpg,Red_Circle_Dots_1.jpg,right,555,true,low,NA,NA,NA,NA,NA,NA,NA,false
4VlHidrZ,385mdvingfsu7ikqnsjzxyjp4abjww,3nxnz5rs1easyb4akapc582wz4q97e,4VlHidrZ,2020-0188,2020-05-08,11:58:50,12:15:38,NA,incomplete,22,number,1,left,Green_Circle_Chess_2.jpg,Blue_Plus_Grid_2.jpg,Green_Triangle_Dots_1.jpg,left,557,true,low,NA,NA,NA,NA,NA,NA,NA,false
4VlHidrZ,385mdvingfsu7ikqnsjzxyjp4abjww,3nxnz5rs1easyb4akapc582wz4q97e,4VlHidrZ,2020-0188,2020-05-08,11:58:50,12:15:38,NA,incomplete,23,number,1,left,Green_Star_Grid_1.jpg,Blue_Circle_Chess_1.jpg,Green_Plus_Dots_3.jpg,left,1032,true,low,NA,NA,NA,NA,NA,NA,NA,false
4VlHidrZ,385mdvingfsu7ikqnsjzxyjp4abjww,3nxnz5rs1easyb4akapc582wz4q97e,4VlHidrZ,2020-0188,2020-05-08,11:58:50,12:15:38,NA,incomplete,24,number,1,right,Blue_Plus_Dots_2.jpg,Blue_Triangle_Chess_3.jpg,Green_Circle_Grid_2.jpg,right,621,true,low,NA,NA,NA,NA,NA,NA,NA,false
4VlHidrZ,385mdvingfsu7ikqnsjzxyjp4abjww,3nxnz5rs1easyb4akapc582wz4q97e,4VlHidrZ,2020-0188,2020-05-08,11:58:50,12:15:38,NA,incomplete,25,number,1,left,Red_Plus_Stripes_2.jpg,Blue_Star_Grid_2.jpg,Red_Circle_Dots_3.jpg,left,577,true,low,NA,NA,NA,NA,NA,NA,NA,false
4VlHidrZ,385mdvingfsu7ikqnsjzxyjp4abjww,3nxnz5rs1easyb4akapc582wz4q97e,4VlHidrZ,2020-0188,2020-05-08,11:58:50,12:15:38,NA,incomplete,26,number,1,left,Green_Plus_Grid_4.jpg,Purple_Triangle_Dots_4.jpg,Green_Circle_Stripes_2.jpg,left,564,true,low,NA,NA,NA,NA,NA,NA,NA,false
4VlHidrZ,385mdvingfsu7ikqnsjzxyjp4abjww,3nxnz5rs1easyb4akapc582wz4q97e,4VlHidrZ,2020-0188,2020-05-08,11:58:50,12:15:38,NA,incomplete,27,number,1,left,Blue_Circle_Chess_1.jpg,Green_Triangle_Dots_1.jpg,Blue_Plus_Stripes_3.jpg,left,453,true,low,NA,NA,NA,NA,NA,NA,NA,false
4VlHidrZ,385mdvingfsu7ikqnsjzxyjp4abjww,3nxnz5rs1easyb4akapc582wz4q97e,4VlHidrZ,2020-0188,2020-05-08,11:58:50,12:15:38,NA,incomplete,28,number,1,left,Purple_Circle_Chess_1.jpg,Blue_Plus_Stripes_1.jpg,Purple_Triangle_Dots_2.jpg,left,479,true,low,NA,NA,NA,NA,NA,NA,NA,false
4VlHidrZ,385mdvingfsu7ikqnsjzxyjp4abjww,3nxnz5rs1easyb4akapc582wz4q97e,4VlHidrZ,2020-0188,2020-05-08,11:58:50,12:15:38,NA,incomplete,29,number,1,right,Purple_Plus_Dots_1.jpg,Purple_Circle_Stripes_3.jpg,Red_Star_Chess_1.jpg,right,486,true,low,NA,NA,NA,NA,NA,NA,NA,false
4VlHidrZ,385mdvingfsu7ikqnsjzxyjp4abjww,3nxnz5rs1easyb4akapc582wz4q97e,4VlHidrZ,2020-0188,2020-05-08,11:58:50,12:15:38,NA,incomplete,30,color,1,right,Blue_Star_Chess_1.jpg,Red_Circle_Dots_1.jpg,Blue_Plus_Stripes_3.jpg,left,414,false,low,NA,NA,NA,NA,NA,NA,NA,false
4VlHidrZ,385mdvingfsu7ikqnsjzxyjp4abjww,3nxnz5rs1easyb4akapc582wz4q97e,4VlHidrZ,2020-0188,2020-05-08,11:58:50,12:15:38,NA,incomplete,31,color,1,right,Red_Star_Dots_2.jpg,Purple_Circle_Grid_2.jpg,Red_Plus_Chess_4.jpg,left,575,false,low,NA,NA,NA,NA,NA,NA,NA,false
4VlHidrZ,385mdvingfsu7ikqnsjzxyjp4abjww,3nxnz5rs1easyb4akapc582wz4q97e,4VlHidrZ,2020-0188,2020-05-08,11:58:50,12:15:38,NA,incomplete,32,color,1,right,Green_Plus_Stripes_1.jpg,Purple_Triangle_Chess_1.jpg,Green_Star_Dots_2.jpg,left,528,false,low,NA,NA,NA,NA,NA,NA,NA,false
4VlHidrZ,385mdvingfsu7ikqnsjzxyjp4abjww,3nxnz5rs1easyb4akapc582wz4q97e,4VlHidrZ,2020-0188,2020-05-08,11:58:50,12:15:38,NA,incomplete,33,color,1,right,Purple_Star_Chess_1.jpg,Blue_Triangle_Grid_1.jpg,Purple_Circle_Dots_4.jpg,right,693,true,low,NA,NA,NA,NA,NA,NA,NA,false
4VlHidrZ,385mdvingfsu7ikqnsjzxyjp4abjww,3nxnz5rs1easyb4akapc582wz4q97e,4VlHidrZ,2020-0188,2020-05-08,11:58:50,12:15:38,NA,incomplete,34,color,1,left,Green_Circle_Grid_1.jpg,Green_Plus_Stripes_4.jpg,Blue_Star_Chess_1.jpg,left,693,true,low,NA,NA,NA,NA,NA,NA,NA,false
4VlHidrZ,385mdvingfsu7ikqnsjzxyjp4abjww,3nxnz5rs1easyb4akapc582wz4q97e,4VlHidrZ,2020-0188,2020-05-08,11:58:50,12:15:38,NA,incomplete,35,color,1,right,Green_Star_Dots_4.jpg,Purple_Plus_Grid_4.jpg,Green_Circle_Chess_2.jpg,right,736,true,low,NA,NA,NA,NA,NA,NA,NA,false
4VlHidrZ,385mdvingfsu7ikqnsjzxyjp4abjww,3nxnz5rs1easyb4akapc582wz4q97e,4VlHidrZ,2020-0188,2020-05-08,11:58:50,12:15:38,NA,incomplete,36,color,1,left,Red_Plus_Stripes_4.jpg,Red_Triangle_Chess_1.jpg,Green_Star_Dots_4.jpg,left,406,true,low,NA,NA,NA,NA,NA,NA,NA,false
4VlHidrZ,385mdvingfsu7ikqnsjzxyjp4abjww,3nxnz5rs1easyb4akapc582wz4q97e,4VlHidrZ,2020-0188,2020-05-08,11:58:50,12:15:38,NA,incomplete,37,color,1,left,Red_Plus_Stripes_3.jpg,Red_Circle_Chess_2.jpg,Purple_Star_Dots_3.jpg,left,610,true,low,NA,NA,NA,NA,NA,NA,NA,false
4VlHidrZ,385mdvingfsu7ikqnsjzxyjp4abjww,3nxnz5rs1easyb4akapc582wz4q97e,4VlHidrZ,2020-0188,2020-05-08,11:58:50,12:15:38,NA,incomplete,38,color,0,right,Purple_Circle_Dots_3.jpg,Red_Plus_Grid_3.jpg,Purple_Triangle_Chess_1.jpg,right,682,true,low,NA,NA,NA,NA,NA,NA,NA,false
4VlHidrZ,385mdvingfsu7ikqnsjzxyjp4abjww,3nxnz5rs1easyb4akapc582wz4q97e,4VlHidrZ,2020-0188,2020-05-08,11:58:50,12:15:38,NA,incomplete,39,color,1,right,Blue_Plus_Dots_4.jpg,Purple_Star_Chess_4.jpg,Blue_Triangle_Grid_3.jpg,right,559,true,low,NA,NA,NA,NA,NA,NA,NA,false
4VlHidrZ,385mdvingfsu7ikqnsjzxyjp4abjww,3nxnz5rs1easyb4akapc582wz4q97e,4VlHidrZ,2020-0188,2020-05-08,11:58:50,12:15:38,NA,incomplete,40,color,1,left,Green_Circle_Grid_1.jpg,Green_Star_Dots_4.jpg,Blue_Triangle_Stripes_1.jpg,left,518,true,low,NA,NA,NA,NA,NA,NA,NA,false
4VlHidrZ,385mdvingfsu7ikqnsjzxyjp4abjww,3nxnz5rs1easyb4akapc582wz4q97e,4VlHidrZ,2020-0188,2020-05-08,11:58:50,12:15:38,NA,incomplete,41,color,1,right,Purple_Star_Stripes_1.jpg,Green_Circle_Grid_1.jpg,Purple_Plus_Chess_2.jpg,right,487,true,low,NA,NA,NA,NA,NA,NA,NA,false
4VlHidrZ,385mdvingfsu7ikqnsjzxyjp4abjww,3nxnz5rs1easyb4akapc582wz4q97e,4VlHidrZ,2020-0188,2020-05-08,11:58:50,12:15:38,NA,incomplete,42,color,1,left,Blue_Star_Stripes_4.jpg,Blue_Plus_Grid_2.jpg,Red_Triangle_Dots_4.jpg,left,403,true,low,NA,NA,NA,NA,NA,NA,NA,false
4VlHidrZ,385mdvingfsu7ikqnsjzxyjp4abjww,3nxnz5rs1easyb4akapc582wz4q97e,4VlHidrZ,2020-0188,2020-05-08,11:58:50,12:15:38,NA,incomplete,43,color,0,left,Green_Plus_Grid_1.jpg,Green_Star_Dots_4.jpg,Blue_Triangle_Chess_1.jpg,left,381,true,low,NA,NA,NA,NA,NA,NA,NA,false
4VlHidrZ,385mdvingfsu7ikqnsjzxyjp4abjww,3nxnz5rs1easyb4akapc582wz4q97e,4VlHidrZ,2020-0188,2020-05-08,11:58:50,12:15:38,NA,incomplete,44,color,1,right,Purple_Plus_Dots_2.jpg,Blue_Star_Stripes_2.jpg,Purple_Triangle_Chess_4.jpg,right,453,true,low,NA,NA,NA,NA,NA,NA,NA,false
4VlHidrZ,385mdvingfsu7ikqnsjzxyjp4abjww,3nxnz5rs1easyb4akapc582wz4q97e,4VlHidrZ,2020-0188,2020-05-08,11:58:50,12:15:38,NA,incomplete,45,color,1,right,Red_Circle_Grid_3.jpg,Purple_Triangle_Stripes_3.jpg,Red_Plus_Chess_2.jpg,right,525,true,low,NA,NA,NA,NA,NA,NA,NA,false
4VlHidrZ,385mdvingfsu7ikqnsjzxyjp4abjww,3nxnz5rs1easyb4akapc582wz4q97e,4VlHidrZ,2020-0188,2020-05-08,11:58:50,12:15:38,NA,incomplete,46,color,1,left,Purple_Plus_Stripes_4.jpg,Purple_Star_Grid_2.jpg,Red_Triangle_Dots_4.jpg,left,473,true,low,NA,NA,NA,NA,NA,NA,NA,false
4VlHidrZ,385mdvingfsu7ikqnsjzxyjp4abjww,3nxnz5rs1easyb4akapc582wz4q97e,4VlHidrZ,2020-0188,2020-05-08,11:58:50,12:15:38,NA,incomplete,47,color,1,left,Green_Star_Chess_1.jpg,Green_Triangle_Stripes_3.jpg,Red_Circle_Dots_1.jpg,left,410,true,low,NA,NA,NA,NA,NA,NA,NA,false
4VlHidrZ,385mdvingfsu7ikqnsjzxyjp4abjww,3nxnz5rs1easyb4akapc582wz4q97e,4VlHidrZ,2020-0188,2020-05-08,11:58:50,12:15:38,NA,incomplete,48,color,1,left,Purple_Triangle_Stripes_1.jpg,Purple_Star_Dots_2.jpg,Blue_Plus_Grid_1.jpg,left,436,true,low,NA,NA,NA,NA,NA,NA,NA,false
4VlHidrZ,385mdvingfsu7ikqnsjzxyjp4abjww,3nxnz5rs1easyb4akapc582wz4q97e,4VlHidrZ,2020-0188,2020-05-08,11:58:50,12:15:38,NA,incomplete,49,color,1,right,Blue_Triangle_Grid_1.jpg,Red_Plus_Stripes_1.jpg,Blue_Circle_Dots_3.jpg,right,426,true,low,NA,NA,NA,NA,NA,NA,NA,false
4VlHidrZ,385mdvingfsu7ikqnsjzxyjp4abjww,3nxnz5rs1easyb4akapc582wz4q97e,4VlHidrZ,2020-0188,2020-05-08,11:58:50,12:15:38,NA,incomplete,50,color,1,left,Green_Plus_Stripes_1.jpg,Green_Star_Chess_3.jpg,Purple_Circle_Grid_1.jpg,left,411,true,low,NA,NA,NA,NA,NA,NA,NA,false
4VlHidrZ,385mdvingfsu7ikqnsjzxyjp4abjww,3nxnz5rs1easyb4akapc582wz4q97e,4VlHidrZ,2020-0188,2020-05-08,11:58:50,12:15:38,NA,incomplete,51,color,1,left,Blue_Triangle_Stripes_1.jpg,Blue_Plus_Chess_2.jpg,Red_Circle_Grid_1.jpg,left,423,true,low,NA,NA,NA,NA,NA,NA,NA,false
4VlHidrZ,385mdvingfsu7ikqnsjzxyjp4abjww,3nxnz5rs1easyb4akapc582wz4q97e,4VlHidrZ,2020-0188,2020-05-08,11:58:50,12:15:38,NA,incomplete,52,color,1,left,Purple_Triangle_Stripes_3.jpg,Purple_Plus_Chess_4.jpg,Blue_Circle_Dots_3.jpg,left,428,true,low,NA,NA,NA,NA,NA,NA,NA,false
4VlHidrZ,385mdvingfsu7ikqnsjzxyjp4abjww,3nxnz5rs1easyb4akapc582wz4q97e,4VlHidrZ,2020-0188,2020-05-08,11:58:50,12:15:38,NA,incomplete,53,color,1,left,Purple_Star_Grid_3.jpg,Purple_Circle_Chess_1.jpg,Red_Plus_Stripes_3.jpg,left,412,true,low,NA,NA,NA,NA,NA,NA,NA,false
4VlHidrZ,385mdvingfsu7ikqnsjzxyjp4abjww,3nxnz5rs1easyb4akapc582wz4q97e,4VlHidrZ,2020-0188,2020-05-08,11:58:50,12:15:38,NA,incomplete,54,color,1,left,Red_Triangle_Stripes_2.jpg,Red_Star_Grid_4.jpg,Green_Plus_Dots_2.jpg,left,402,true,low,NA,NA,NA,NA,NA,NA,NA,false
4VlHidrZ,385mdvingfsu7ikqnsjzxyjp4abjww,3nxnz5rs1easyb4akapc582wz4q97e,4VlHidrZ,2020-0188,2020-05-08,11:58:50,12:15:38,NA,incomplete,55,color,0,left,Purple_Triangle_Stripes_4.jpg,Purple_Star_Chess_3.jpg,Green_Circle_Dots_4.jpg,left,430,true,low,NA,NA,NA,NA,NA,NA,NA,false
4VlHidrZ,385mdvingfsu7ikqnsjzxyjp4abjww,3nxnz5rs1easyb4akapc582wz4q97e,4VlHidrZ,2020-0188,2020-05-08,11:58:50,12:15:38,NA,incomplete,56,color,0,right,Blue_Plus_Grid_3.jpg,Green_Circle_Chess_3.jpg,Blue_Star_Stripes_2.jpg,right,451,true,low,NA,NA,NA,NA,NA,NA,NA,false
4VlHidrZ,385mdvingfsu7ikqnsjzxyjp4abjww,3nxnz5rs1easyb4akapc582wz4q97e,4VlHidrZ,2020-0188,2020-05-08,11:58:50,12:15:38,NA,incomplete,57,color,1,right,Green_Circle_Grid_1.jpg,Blue_Triangle_Chess_1.jpg,Green_Star_Dots_4.jpg,left,547,false,low,NA,NA,NA,NA,NA,NA,NA,false
4VlHidrZ,385mdvingfsu7ikqnsjzxyjp4abjww,3nxnz5rs1easyb4akapc582wz4q97e,4VlHidrZ,2020-0188,2020-05-08,11:58:50,12:15:38,NA,incomplete,58,color,1,left,Red_Star_Stripes_1.jpg,Red_Circle_Grid_3.jpg,Green_Triangle_Chess_1.jpg,right,578,false,low,NA,NA,NA,NA,NA,NA,NA,false
4VlHidrZ,385mdvingfsu7ikqnsjzxyjp4abjww,3nxnz5rs1easyb4akapc582wz4q97e,4VlHidrZ,2020-0188,2020-05-08,11:58:50,12:15:38,NA,incomplete,59,color,1,left,Green_Triangle_Chess_2.jpg,Green_Star_Stripes_3.jpg,Red_Circle_Dots_2.jpg,left,628,true,low,NA,NA,NA,NA,NA,NA,NA,false
4VlHidrZ,385mdvingfsu7ikqnsjzxyjp4abjww,3nxnz5rs1easyb4akapc582wz4q97e,4VlHidrZ,2020-0188,2020-05-08,11:58:50,12:15:38,NA,incomplete,60,number,1,left,Blue_Triangle_Dots_1.jpg,Red_Circle_Stripes_1.jpg,Blue_Plus_Chess_3.jpg,right,486,false,low,NA,NA,NA,NA,NA,NA,NA,false
4VlHidrZ,385mdvingfsu7ikqnsjzxyjp4abjww,3nxnz5rs1easyb4akapc582wz4q97e,4VlHidrZ,2020-0188,2020-05-08,11:58:50,12:15:38,NA,incomplete,61,number,1,left,Blue_Triangle_Grid_2.jpg,Purple_Star_Stripes_2.jpg,Blue_Plus_Chess_1.jpg,right,529,false,low,NA,NA,NA,NA,NA,NA,NA,false
4VlHidrZ,385mdvingfsu7ikqnsjzxyjp4abjww,3nxnz5rs1easyb4akapc582wz4q97e,4VlHidrZ,2020-0188,2020-05-08,11:58:50,12:15:38,NA,incomplete,62,number,1,left,Green_Circle_Dots_4.jpg,Purple_Star_Stripes_4.jpg,Green_Triangle_Chess_1.jpg,right,458,false,low,NA,NA,NA,NA,NA,NA,NA,false
4VlHidrZ,385mdvingfsu7ikqnsjzxyjp4abjww,3nxnz5rs1easyb4akapc582wz4q97e,4VlHidrZ,2020-0188,2020-05-08,11:58:50,12:15:38,NA,incomplete,63,number,1,right,Green_Plus_Stripes_4.jpg,Green_Triangle_Chess_3.jpg,Blue_Circle_Grid_4.jpg,right,769,true,low,NA,NA,NA,NA,NA,NA,NA,false
4VlHidrZ,385mdvingfsu7ikqnsjzxyjp4abjww,3nxnz5rs1easyb4akapc582wz4q97e,4VlHidrZ,2020-0188,2020-05-08,11:58:50,12:15:38,NA,incomplete,64,number,1,left,Purple_Triangle_Grid_2.jpg,Green_Star_Dots_2.jpg,Purple_Plus_Chess_1.jpg,left,583,true,low,NA,NA,NA,NA,NA,NA,NA,false
4VlHidrZ,385mdvingfsu7ikqnsjzxyjp4abjww,3nxnz5rs1easyb4akapc582wz4q97e,4VlHidrZ,2020-0188,2020-05-08,11:58:50,12:15:38,NA,incomplete,65,number,0,left,Green_Circle_Grid_2.jpg,Red_Triangle_Stripes_2.jpg,Green_Star_Chess_3.jpg,left,642,true,low,NA,NA,NA,NA,NA,NA,NA,false
4VlHidrZ,385mdvingfsu7ikqnsjzxyjp4abjww,3nxnz5rs1easyb4akapc582wz4q97e,4VlHidrZ,2020-0188,2020-05-08,11:58:50,12:15:38,NA,incomplete,66,number,1,left,Blue_Triangle_Dots_1.jpg,Purple_Star_Grid_1.jpg,Blue_Circle_Stripes_3.jpg,left,629,true,low,NA,NA,NA,NA,NA,NA,NA,false
4VlHidrZ,385mdvingfsu7ikqnsjzxyjp4abjww,3nxnz5rs1easyb4akapc582wz4q97e,4VlHidrZ,2020-0188,2020-05-08,11:58:50,12:15:38,NA,incomplete,67,number,1,left,Red_Plus_Chess_4.jpg,Purple_Circle_Grid_4.jpg,Red_Triangle_Dots_1.jpg,left,697,true,low,NA,NA,NA,NA,NA,NA,NA,false
4VlHidrZ,385mdvingfsu7ikqnsjzxyjp4abjww,3nxnz5rs1easyb4akapc582wz4q97e,4VlHidrZ,2020-0188,2020-05-08,11:58:50,12:15:38,NA,incomplete,68,number,1,right,Red_Star_Stripes_2.jpg,Red_Plus_Dots_4.jpg,Green_Triangle_Chess_2.jpg,right,729,true,low,NA,NA,NA,NA,NA,NA,NA,false
4VlHidrZ,385mdvingfsu7ikqnsjzxyjp4abjww,3nxnz5rs1easyb4akapc582wz4q97e,4VlHidrZ,2020-0188,2020-05-08,11:58:50,12:15:38,NA,incomplete,69,number,1,left,Red_Plus_Stripes_2.jpg,Purple_Star_Chess_2.jpg,Red_Circle_Dots_1.jpg,left,522,true,low,NA,NA,NA,NA,NA,NA,NA,false
4VlHidrZ,385mdvingfsu7ikqnsjzxyjp4abjww,3nxnz5rs1easyb4akapc582wz4q97e,4VlHidrZ,2020-0188,2020-05-08,11:58:50,12:15:38,NA,incomplete,70,number,1,right,Red_Plus_Grid_3.jpg,Red_Star_Dots_4.jpg,Purple_Circle_Chess_3.jpg,right,616,true,low,NA,NA,NA,NA,NA,NA,NA,false
4VlHidrZ,385mdvingfsu7ikqnsjzxyjp4abjww,3nxnz5rs1easyb4akapc582wz4q97e,4VlHidrZ,2020-0188,2020-05-08,11:58:50,12:15:38,NA,incomplete,71,number,1,right,Green_Plus_Grid_2.jpg,Green_Star_Dots_1.jpg,Red_Circle_Chess_2.jpg,right,605,true,low,NA,NA,NA,NA,NA,NA,NA,false
4VlHidrZ,385mdvingfsu7ikqnsjzxyjp4abjww,3nxnz5rs1easyb4akapc582wz4q97e,4VlHidrZ,2020-0188,2020-05-08,11:58:50,12:15:38,NA,incomplete,72,number,1,right,Red_Circle_Dots_2.jpg,Red_Star_Chess_4.jpg,Purple_Triangle_Grid_2.jpg,right,519,true,low,NA,NA,NA,NA,NA,NA,NA,false
4VlHidrZ,385mdvingfsu7ikqnsjzxyjp4abjww,3nxnz5rs1easyb4akapc582wz4q97e,4VlHidrZ,2020-0188,2020-05-08,11:58:50,12:15:38,NA,incomplete,73,number,0,left,Blue_Plus_Grid_4.jpg,Green_Star_Stripes_4.jpg,Blue_Circle_Chess_2.jpg,left,497,true,low,NA,NA,NA,NA,NA,NA,NA,false
4VlHidrZ,385mdvingfsu7ikqnsjzxyjp4abjww,3nxnz5rs1easyb4akapc582wz4q97e,4VlHidrZ,2020-0188,2020-05-08,11:58:50,12:15:38,NA,incomplete,74,number,1,right,Blue_Plus_Grid_1.jpg,Blue_Triangle_Dots_2.jpg,Green_Circle_Stripes_1.jpg,right,620,true,low,NA,NA,NA,NA,NA,NA,NA,false
4VlHidrZ,385mdvingfsu7ikqnsjzxyjp4abjww,3nxnz5rs1easyb4akapc582wz4q97e,4VlHidrZ,2020-0188,2020-05-08,11:58:50,12:15:38,NA,incomplete,75,number,1,right,Blue_Plus_Grid_2.jpg,Blue_Circle_Stripes_3.jpg,Red_Star_Dots_2.jpg,right,651,true,low,NA,NA,NA,NA,NA,NA,NA,false
4VlHidrZ,385mdvingfsu7ikqnsjzxyjp4abjww,3nxnz5rs1easyb4akapc582wz4q97e,4VlHidrZ,2020-0188,2020-05-08,11:58:50,12:15:38,NA,incomplete,76,number,1,left,Purple_Plus_Stripes_1.jpg,Green_Star_Grid_1.jpg,Purple_Triangle_Dots_2.jpg,left,496,true,low,NA,NA,NA,NA,NA,NA,NA,false
4VlHidrZ,385mdvingfsu7ikqnsjzxyjp4abjww,3nxnz5rs1easyb4akapc582wz4q97e,4VlHidrZ,2020-0188,2020-05-08,11:58:50,12:15:38,NA,incomplete,77,number,0,left,Red_Circle_Chess_4.jpg,Green_Plus_Dots_4.jpg,Red_Star_Stripes_1.jpg,left,519,true,low,NA,NA,NA,NA,NA,NA,NA,false
4VlHidrZ,385mdvingfsu7ikqnsjzxyjp4abjww,3nxnz5rs1easyb4akapc582wz4q97e,4VlHidrZ,2020-0188,2020-05-08,11:58:50,12:15:38,NA,incomplete,78,number,1,right,Blue_Circle_Dots_2.jpg,Blue_Triangle_Stripes_4.jpg,Purple_Plus_Grid_2.jpg,right,590,true,low,NA,NA,NA,NA,NA,NA,NA,false
4VlHidrZ,385mdvingfsu7ikqnsjzxyjp4abjww,3nxnz5rs1easyb4akapc582wz4q97e,4VlHidrZ,2020-0188,2020-05-08,11:58:50,12:15:38,NA,incomplete,79,number,1,right,Green_Plus_Dots_4.jpg,Green_Circle_Chess_3.jpg,Blue_Star_Stripes_4.jpg,right,599,true,low,NA,NA,NA,NA,NA,NA,NA,false
4VlHidrZ,385mdvingfsu7ikqnsjzxyjp4abjww,3nxnz5rs1easyb4akapc582wz4q97e,4VlHidrZ,2020-0188,2020-05-08,11:58:50,12:15:38,NA,incomplete,80,number,0,left,Red_Plus_Grid_3.jpg,Blue_Star_Stripes_3.jpg,Red_Circle_Dots_2.jpg,left,449,true,low,NA,NA,NA,NA,NA,NA,NA,false
4VlHidrZ,385mdvingfsu7ikqnsjzxyjp4abjww,3nxnz5rs1easyb4akapc582wz4q97e,4VlHidrZ,2020-0188,2020-05-08,11:58:50,12:15:38,NA,incomplete,81,number,1,right,Blue_Circle_Stripes_2.jpg,Blue_Triangle_Grid_3.jpg,Red_Star_Dots_2.jpg,right,612,true,low,NA,NA,NA,NA,NA,NA,NA,false
4VlHidrZ,385mdvingfsu7ikqnsjzxyjp4abjww,3nxnz5rs1easyb4akapc582wz4q97e,4VlHidrZ,2020-0188,2020-05-08,11:58:50,12:15:38,NA,incomplete,82,number,1,right,Purple_Plus_Grid_3.jpg,Purple_Circle_Chess_1.jpg,Red_Star_Stripes_3.jpg,right,480,true,low,NA,NA,NA,NA,NA,NA,NA,false
4VlHidrZ,385mdvingfsu7ikqnsjzxyjp4abjww,3nxnz5rs1easyb4akapc582wz4q97e,4VlHidrZ,2020-0188,2020-05-08,11:58:50,12:15:38,NA,incomplete,83,number,0,right,Red_Triangle_Stripes_2.jpg,Red_Star_Chess_1.jpg,Purple_Circle_Dots_2.jpg,right,521,true,low,NA,NA,NA,NA,NA,NA,NA,false
4VlHidrZ,385mdvingfsu7ikqnsjzxyjp4abjww,3nxnz5rs1easyb4akapc582wz4q97e,4VlHidrZ,2020-0188,2020-05-08,11:58:50,12:15:38,NA,incomplete,84,number,1,left,Purple_Star_Dots_3.jpg,Green_Circle_Grid_3.jpg,Purple_Triangle_Chess_4.jpg,left,500,true,low,NA,NA,NA,NA,NA,NA,NA,false
4VlHidrZ,385mdvingfsu7ikqnsjzxyjp4abjww,3nxnz5rs1easyb4akapc582wz4q97e,4VlHidrZ,2020-0188,2020-05-08,11:58:50,12:15:38,NA,incomplete,85,number,1,right,Purple_Triangle_Chess_1.jpg,Purple_Circle_Stripes_4.jpg,Blue_Star_Dots_1.jpg,right,605,true,low,NA,NA,NA,NA,NA,NA,NA,false
4VlHidrZ,385mdvingfsu7ikqnsjzxyjp4abjww,3nxnz5rs1easyb4akapc582wz4q97e,4VlHidrZ,2020-0188,2020-05-08,11:58:50,12:15:38,NA,incomplete,86,number,0,left,Red_Plus_Chess_1.jpg,Blue_Star_Grid_1.jpg,Red_Circle_Stripes_4.jpg,left,415,true,low,NA,NA,NA,NA,NA,NA,NA,false
4VlHidrZ,385mdvingfsu7ikqnsjzxyjp4abjww,3nxnz5rs1easyb4akapc582wz4q97e,4VlHidrZ,2020-0188,2020-05-08,11:58:50,12:15:38,NA,incomplete,87,number,1,right,Green_Triangle_Stripes_1.jpg,Green_Star_Chess_2.jpg,Purple_Plus_Grid_1.jpg,right,488,true,low,NA,NA,NA,NA,NA,NA,NA,false
4VlHidrZ,385mdvingfsu7ikqnsjzxyjp4abjww,3nxnz5rs1easyb4akapc582wz4q97e,4VlHidrZ,2020-0188,2020-05-08,11:58:50,12:15:38,NA,incomplete,88,number,1,right,Purple_Circle_Dots_1.jpg,Purple_Star_Chess_4.jpg,Red_Plus_Stripes_1.jpg,right,493,true,low,NA,NA,NA,NA,NA,NA,NA,false
4VlHidrZ,385mdvingfsu7ikqnsjzxyjp4abjww,3nxnz5rs1easyb4akapc582wz4q97e,4VlHidrZ,2020-0188,2020-05-08,11:58:50,12:15:38,NA,incomplete,89,number,1,right,Green_Plus_Chess_3.jpg,Green_Triangle_Stripes_4.jpg,Purple_Star_Grid_3.jpg,right,673,true,low,NA,NA,NA,NA,NA,NA,NA,false
4VlHidrZ,385mdvingfsu7ikqnsjzxyjp4abjww,3nxnz5rs1easyb4akapc582wz4q97e,4VlHidrZ,2020-0188,2020-05-08,11:58:50,12:15:38,NA,incomplete,90,color,1,right,Green_Star_Stripes_4.jpg,Blue_Triangle_Dots_4.jpg,Green_Circle_Grid_3.jpg,left,580,false,low,NA,NA,NA,NA,NA,NA,NA,false
4VlHidrZ,385mdvingfsu7ikqnsjzxyjp4abjww,3nxnz5rs1easyb4akapc582wz4q97e,4VlHidrZ,2020-0188,2020-05-08,11:58:50,12:15:38,NA,incomplete,91,color,1,right,Blue_Plus_Grid_4.jpg,Green_Circle_Dots_4.jpg,Blue_Triangle_Chess_2.jpg,left,552,false,low,NA,NA,NA,NA,NA,NA,NA,false
4VlHidrZ,385mdvingfsu7ikqnsjzxyjp4abjww,3nxnz5rs1easyb4akapc582wz4q97e,4VlHidrZ,2020-0188,2020-05-08,11:58:50,12:15:38,NA,incomplete,92,color,1,right,Red_Plus_Chess_2.jpg,Purple_Circle_Dots_2.jpg,Red_Triangle_Stripes_4.jpg,left,510,false,low,NA,NA,NA,NA,NA,NA,NA,false
4VlHidrZ,385mdvingfsu7ikqnsjzxyjp4abjww,3nxnz5rs1easyb4akapc582wz4q97e,4VlHidrZ,2020-0188,2020-05-08,11:58:50,12:15:38,NA,incomplete,93,color,1,left,Green_Plus_Stripes_4.jpg,Green_Triangle_Grid_3.jpg,Red_Circle_Chess_4.jpg,left,480,true,low,NA,NA,NA,NA,NA,NA,NA,false
4VlHidrZ,385mdvingfsu7ikqnsjzxyjp4abjww,3nxnz5rs1easyb4akapc582wz4q97e,4VlHidrZ,2020-0188,2020-05-08,11:58:50,12:15:38,NA,incomplete,94,color,0,left,Green_Star_Stripes_4.jpg,Green_Circle_Grid_3.jpg,Blue_Triangle_Dots_4.jpg,left,905,true,low,NA,NA,NA,NA,NA,NA,NA,false
4VlHidrZ,385mdvingfsu7ikqnsjzxyjp4abjww,3nxnz5rs1easyb4akapc582wz4q97e,4VlHidrZ,2020-0188,2020-05-08,11:58:50,12:15:38,NA,incomplete,95,color,1,right,Purple_Circle_Stripes_1.jpg,Blue_Star_Dots_1.jpg,Purple_Triangle_Grid_4.jpg,right,738,true,low,NA,NA,NA,NA,NA,NA,NA,false
4VlHidrZ,385mdvingfsu7ikqnsjzxyjp4abjww,3nxnz5rs1easyb4akapc582wz4q97e,4VlHidrZ,2020-0188,2020-05-08,11:58:50,12:15:38,NA,incomplete,96,color,0,right,Green_Star_Stripes_4.jpg,Red_Circle_Chess_4.jpg,Green_Triangle_Grid_1.jpg,right,523,true,low,NA,NA,NA,NA,NA,NA,NA,false
4VlHidrZ,385mdvingfsu7ikqnsjzxyjp4abjww,3nxnz5rs1easyb4akapc582wz4q97e,4VlHidrZ,2020-0188,2020-05-08,11:58:50,12:15:38,NA,incomplete,97,color,1,left,Red_Plus_Grid_1.jpg,Red_Circle_Stripes_3.jpg,Green_Triangle_Dots_1.jpg,left,431,true,low,NA,NA,NA,NA,NA,NA,NA,false
4VlHidrZ,385mdvingfsu7ikqnsjzxyjp4abjww,3nxnz5rs1easyb4akapc582wz4q97e,4VlHidrZ,2020-0188,2020-05-08,11:58:50,12:15:38,NA,incomplete,98,color,1,right,Blue_Plus_Dots_3.jpg,Red_Star_Stripes_3.jpg,Blue_Circle_Chess_1.jpg,right,626,true,low,NA,NA,NA,NA,NA,NA,NA,false
4VlHidrZ,385mdvingfsu7ikqnsjzxyjp4abjww,3nxnz5rs1easyb4akapc582wz4q97e,4VlHidrZ,2020-0188,2020-05-08,11:58:50,12:15:38,NA,incomplete,99,color,1,left,Red_Triangle_Chess_3.jpg,Red_Star_Grid_1.jpg,Green_Plus_Dots_3.jpg,left,530,true,low,NA,NA,NA,NA,NA,NA,NA,false
4VlHidrZ,385mdvingfsu7ikqnsjzxyjp4abjww,3nxnz5rs1easyb4akapc582wz4q97e,4VlHidrZ,2020-0188,2020-05-08,11:58:50,12:15:38,NA,incomplete,100,color,1,right,Red_Triangle_Stripes_1.jpg,Green_Star_Dots_1.jpg,Red_Plus_Chess_4.jpg,right,761,true,low,NA,NA,NA,NA,NA,NA,NA,false
4VlHidrZ,385mdvingfsu7ikqnsjzxyjp4abjww,3nxnz5rs1easyb4akapc582wz4q97e,4VlHidrZ,2020-0188,2020-05-08,11:58:50,12:15:38,NA,incomplete,101,color,1,right,Red_Plus_Dots_1.jpg,Blue_Star_Chess_1.jpg,Red_Circle_Grid_3.jpg,right,778,true,low,NA,NA,NA,NA,NA,NA,NA,false
4VlHidrZ,385mdvingfsu7ikqnsjzxyjp4abjww,3nxnz5rs1easyb4akapc582wz4q97e,4VlHidrZ,2020-0188,2020-05-08,11:58:50,12:15:38,NA,incomplete,102,color,1,right,Red_Triangle_Grid_3.jpg,Green_Circle_Stripes_3.jpg,Red_Star_Chess_4.jpg,right,630,true,low,NA,NA,NA,NA,NA,NA,NA,false
4VlHidrZ,385mdvingfsu7ikqnsjzxyjp4abjww,3nxnz5rs1easyb4akapc582wz4q97e,4VlHidrZ,2020-0188,2020-05-08,11:58:50,12:15:38,NA,incomplete,103,color,1,left,Purple_Circle_Stripes_2.jpg,Purple_Star_Grid_3.jpg,Red_Plus_Chess_2.jpg,left,504,true,low,NA,NA,NA,NA,NA,NA,NA,false
4VlHidrZ,385mdvingfsu7ikqnsjzxyjp4abjww,3nxnz5rs1easyb4akapc582wz4q97e,4VlHidrZ,2020-0188,2020-05-08,11:58:50,12:15:38,NA,incomplete,104,color,1,left,Red_Triangle_Dots_3.jpg,Red_Plus_Stripes_4.jpg,Purple_Star_Chess_3.jpg,left,460,true,low,NA,NA,NA,NA,NA,NA,NA,false
4VlHidrZ,385mdvingfsu7ikqnsjzxyjp4abjww,3nxnz5rs1easyb4akapc582wz4q97e,4VlHidrZ,2020-0188,2020-05-08,11:58:50,12:15:38,NA,incomplete,105,color,1,left,Blue_Plus_Grid_4.jpg,Blue_Triangle_Stripes_3.jpg,Green_Circle_Chess_4.jpg,left,478,true,low,NA,NA,NA,NA,NA,NA,NA,false
4VlHidrZ,385mdvingfsu7ikqnsjzxyjp4abjww,3nxnz5rs1easyb4akapc582wz4q97e,4VlHidrZ,2020-0188,2020-05-08,11:58:50,12:15:38,NA,incomplete,106,color,0,left,Green_Star_Stripes_4.jpg,Green_Triangle_Dots_3.jpg,Purple_Plus_Grid_4.jpg,left,434,true,low,NA,NA,NA,NA,NA,NA,NA,false
4VlHidrZ,385mdvingfsu7ikqnsjzxyjp4abjww,3nxnz5rs1easyb4akapc582wz4q97e,4VlHidrZ,2020-0188,2020-05-08,11:58:50,12:15:38,NA,incomplete,107,color,0,left,Red_Circle_Chess_3.jpg,Red_Star_Stripes_1.jpg,Blue_Triangle_Grid_3.jpg,left,463,true,low,NA,NA,NA,NA,NA,NA,NA,false
4VlHidrZ,385mdvingfsu7ikqnsjzxyjp4abjww,3nxnz5rs1easyb4akapc582wz4q97e,4VlHidrZ,2020-0188,2020-05-08,11:58:50,12:15:38,NA,incomplete,108,color,1,left,Green_Triangle_Grid_1.jpg,Green_Star_Dots_2.jpg,Purple_Circle_Stripes_1.jpg,left,408,true,low,NA,NA,NA,NA,NA,NA,NA,false
4VlHidrZ,385mdvingfsu7ikqnsjzxyjp4abjww,3nxnz5rs1easyb4akapc582wz4q97e,4VlHidrZ,2020-0188,2020-05-08,11:58:50,12:15:38,NA,incomplete,109,color,1,left,Red_Star_Chess_1.jpg,Red_Circle_Dots_3.jpg,Blue_Plus_Stripes_1.jpg,left,463,true,low,NA,NA,NA,NA,NA,NA,NA,false
4VlHidrZ,385mdvingfsu7ikqnsjzxyjp4abjww,3nxnz5rs1easyb4akapc582wz4q97e,4VlHidrZ,2020-0188,2020-05-08,11:58:50,12:15:38,NA,incomplete,110,color,1,left,Blue_Plus_Grid_1.jpg,Blue_Circle_Chess_4.jpg,Purple_Triangle_Dots_1.jpg,left,435,true,low,NA,NA,NA,NA,NA,NA,NA,false
4VlHidrZ,385mdvingfsu7ikqnsjzxyjp4abjww,3nxnz5rs1easyb4akapc582wz4q97e,4VlHidrZ,2020-0188,2020-05-08,11:58:50,12:15:38,NA,incomplete,111,color,1,right,Blue_Circle_Grid_2.jpg,Green_Triangle_Stripes_2.jpg,Blue_Star_Chess_1.jpg,right,536,true,low,NA,NA,NA,NA,NA,NA,NA,false
4VlHidrZ,385mdvingfsu7ikqnsjzxyjp4abjww,3nxnz5rs1easyb4akapc582wz4q97e,4VlHidrZ,2020-0188,2020-05-08,11:58:50,12:15:38,NA,incomplete,112,color,0,right,Red_Plus_Stripes_4.jpg,Blue_Star_Dots_4.jpg,Red_Triangle_Chess_2.jpg,right,429,true,low,NA,NA,NA,NA,NA,NA,NA,false
4VlHidrZ,385mdvingfsu7ikqnsjzxyjp4abjww,3nxnz5rs1easyb4akapc582wz4q97e,4VlHidrZ,2020-0188,2020-05-08,11:58:50,12:15:38,NA,incomplete,113,color,1,left,Green_Triangle_Grid_3.jpg,Green_Star_Dots_2.jpg,Red_Circle_Chess_3.jpg,left,545,true,low,NA,NA,NA,NA,NA,NA,NA,false
4VlHidrZ,385mdvingfsu7ikqnsjzxyjp4abjww,3nxnz5rs1easyb4akapc582wz4q97e,4VlHidrZ,2020-0188,2020-05-08,11:58:50,12:15:38,NA,incomplete,114,color,1,right,Blue_Plus_Grid_1.jpg,Red_Triangle_Chess_1.jpg,Blue_Circle_Stripes_2.jpg,right,396,true,low,NA,NA,NA,NA,NA,NA,NA,false
4VlHidrZ,385mdvingfsu7ikqnsjzxyjp4abjww,3nxnz5rs1easyb4akapc582wz4q97e,4VlHidrZ,2020-0188,2020-05-08,11:58:50,12:15:38,NA,incomplete,115,color,0,left,Green_Plus_Chess_3.jpg,Green_Triangle_Stripes_1.jpg,Purple_Circle_Dots_3.jpg,left,403,true,low,NA,NA,NA,NA,NA,NA,NA,false
4VlHidrZ,385mdvingfsu7ikqnsjzxyjp4abjww,3nxnz5rs1easyb4akapc582wz4q97e,4VlHidrZ,2020-0188,2020-05-08,11:58:50,12:15:38,NA,incomplete,116,color,1,right,Red_Plus_Grid_3.jpg,Blue_Star_Stripes_3.jpg,Red_Triangle_Dots_2.jpg,right,388,true,low,NA,NA,NA,NA,NA,NA,NA,false
4VlHidrZ,385mdvingfsu7ikqnsjzxyjp4abjww,3nxnz5rs1easyb4akapc582wz4q97e,4VlHidrZ,2020-0188,2020-05-08,11:58:50,12:15:38,NA,incomplete,117,color,1,left,Purple_Plus_Stripes_3.jpg,Purple_Circle_Dots_4.jpg,Green_Triangle_Grid_3.jpg,left,448,true,low,NA,NA,NA,NA,NA,NA,NA,false
4VlHidrZ,385mdvingfsu7ikqnsjzxyjp4abjww,3nxnz5rs1easyb4akapc582wz4q97e,4VlHidrZ,2020-0188,2020-05-08,11:58:50,12:15:38,NA,incomplete,118,color,1,left,Red_Triangle_Chess_1.jpg,Red_Circle_Grid_3.jpg,Blue_Star_Stripes_1.jpg,left,428,true,low,NA,NA,NA,NA,NA,NA,NA,false
4VlHidrZ,385mdvingfsu7ikqnsjzxyjp4abjww,3nxnz5rs1easyb4akapc582wz4q97e,4VlHidrZ,2020-0188,2020-05-08,11:58:50,12:15:38,NA,incomplete,119,color,1,left,Red_Triangle_Dots_4.jpg,Red_Plus_Chess_2.jpg,Blue_Star_Stripes_4.jpg,left,471,true,low,NA,NA,NA,NA,NA,NA,NA,false
4VlHidrZ,385mdvingfsu7ikqnsjzxyjp4abjww,3nxnz5rs1easyb4akapc582wz4q97e,4VlHidrZ,2020-0188,2020-05-08,11:58:50,12:15:38,NA,incomplete,120,number,1,right,Green_Plus_Chess_4.jpg,Green_Star_Dots_2.jpg,Red_Circle_Stripes_4.jpg,left,457,false,low,NA,NA,NA,NA,NA,NA,NA,false
4VlHidrZ,385mdvingfsu7ikqnsjzxyjp4abjww,3nxnz5rs1easyb4akapc582wz4q97e,4VlHidrZ,2020-0188,2020-05-08,11:58:50,12:15:38,NA,incomplete,121,number,0,left,Blue_Circle_Chess_4.jpg,Purple_Triangle_Stripes_4.jpg,Blue_Star_Grid_3.jpg,right,396,false,low,NA,NA,NA,NA,NA,NA,NA,false
4VlHidrZ,385mdvingfsu7ikqnsjzxyjp4abjww,3nxnz5rs1easyb4akapc582wz4q97e,4VlHidrZ,2020-0188,2020-05-08,11:58:50,12:15:38,NA,incomplete,122,number,1,left,Blue_Triangle_Dots_1.jpg,Purple_Plus_Grid_1.jpg,Blue_Star_Chess_2.jpg,right,414,false,low,NA,NA,NA,NA,NA,NA,NA,false
4VlHidrZ,385mdvingfsu7ikqnsjzxyjp4abjww,3nxnz5rs1easyb4akapc582wz4q97e,4VlHidrZ,2020-0188,2020-05-08,11:58:50,12:15:38,NA,incomplete,123,number,0,right,Purple_Plus_Chess_2.jpg,Purple_Triangle_Stripes_4.jpg,Green_Star_Dots_2.jpg,left,464,false,low,NA,NA,NA,NA,NA,NA,NA,false
4VlHidrZ,385mdvingfsu7ikqnsjzxyjp4abjww,3nxnz5rs1easyb4akapc582wz4q97e,4VlHidrZ,2020-0188,2020-05-08,11:58:50,12:15:38,NA,incomplete,124,number,1,left,Blue_Star_Grid_1.jpg,Green_Circle_Stripes_1.jpg,Blue_Plus_Dots_4.jpg,right,452,false,low,NA,NA,NA,NA,NA,NA,NA,false
4VlHidrZ,385mdvingfsu7ikqnsjzxyjp4abjww,3nxnz5rs1easyb4akapc582wz4q97e,4VlHidrZ,2020-0188,2020-05-08,11:58:50,12:15:38,NA,incomplete,125,number,1,right,Blue_Triangle_Grid_4.jpg,Blue_Plus_Chess_2.jpg,Green_Circle_Dots_4.jpg,left,462,false,low,NA,NA,NA,NA,NA,NA,NA,false
4VlHidrZ,385mdvingfsu7ikqnsjzxyjp4abjww,3nxnz5rs1easyb4akapc582wz4q97e,4VlHidrZ,2020-0188,2020-05-08,11:58:50,12:15:38,NA,incomplete,126,number,1,right,Red_Triangle_Stripes_2.jpg,Red_Star_Dots_4.jpg,Blue_Circle_Chess_2.jpg,left,502,false,low,NA,NA,NA,NA,NA,NA,NA,false
4VlHidrZ,385mdvingfsu7ikqnsjzxyjp4abjww,3nxnz5rs1easyb4akapc582wz4q97e,4VlHidrZ,2020-0188,2020-05-08,11:58:50,12:15:38,NA,incomplete,127,number,1,left,Red_Star_Chess_4.jpg,Blue_Plus_Dots_4.jpg,Red_Triangle_Grid_2.jpg,left,566,true,low,NA,NA,NA,NA,NA,NA,NA,false
4VlHidrZ,385mdvingfsu7ikqnsjzxyjp4abjww,3nxnz5rs1easyb4akapc582wz4q97e,4VlHidrZ,2020-0188,2020-05-08,11:58:50,12:15:38,NA,incomplete,128,number,1,right,Blue_Star_Dots_4.jpg,Blue_Plus_Grid_3.jpg,Purple_Circle_Stripes_4.jpg,right,717,true,low,NA,NA,NA,NA,NA,NA,NA,false
4VlHidrZ,385mdvingfsu7ikqnsjzxyjp4abjww,3nxnz5rs1easyb4akapc582wz4q97e,4VlHidrZ,2020-0188,2020-05-08,11:58:50,12:15:38,NA,incomplete,129,number,1,right,Purple_Circle_Stripes_4.jpg,Purple_Star_Chess_1.jpg,Red_Plus_Grid_4.jpg,right,474,true,low,NA,NA,NA,NA,NA,NA,NA,false
4VlHidrZ,385mdvingfsu7ikqnsjzxyjp4abjww,3nxnz5rs1easyb4akapc582wz4q97e,4VlHidrZ,2020-0188,2020-05-08,11:58:50,12:15:38,NA,incomplete,130,number,1,right,Purple_Triangle_Stripes_4.jpg,Purple_Star_Dots_3.jpg,Red_Plus_Grid_4.jpg,right,529,true,low,NA,NA,NA,NA,NA,NA,NA,false
4VlHidrZ,385mdvingfsu7ikqnsjzxyjp4abjww,3nxnz5rs1easyb4akapc582wz4q97e,4VlHidrZ,2020-0188,2020-05-08,11:58:50,12:15:38,NA,incomplete,131,number,1,left,Blue_Circle_Dots_2.jpg,Red_Star_Grid_2.jpg,Blue_Plus_Stripes_1.jpg,left,969,true,low,NA,NA,NA,NA,NA,NA,NA,false
4VlHidrZ,385mdvingfsu7ikqnsjzxyjp4abjww,3nxnz5rs1easyb4akapc582wz4q97e,4VlHidrZ,2020-0188,2020-05-08,11:58:50,12:15:38,NA,incomplete,132,number,0,left,Purple_Plus_Grid_1.jpg,Red_Triangle_Stripes_1.jpg,Purple_Circle_Dots_4.jpg,left,895,true,low,NA,NA,NA,NA,NA,NA,NA,false
4VlHidrZ,385mdvingfsu7ikqnsjzxyjp4abjww,3nxnz5rs1easyb4akapc582wz4q97e,4VlHidrZ,2020-0188,2020-05-08,11:58:50,12:15:38,NA,incomplete,133,number,1,right,Red_Plus_Grid_1.jpg,Red_Star_Chess_2.jpg,Blue_Circle_Dots_1.jpg,right,609,true,low,NA,NA,NA,NA,NA,NA,NA,false
4VlHidrZ,385mdvingfsu7ikqnsjzxyjp4abjww,3nxnz5rs1easyb4akapc582wz4q97e,4VlHidrZ,2020-0188,2020-05-08,11:58:50,12:15:38,NA,incomplete,134,number,1,left,Blue_Star_Dots_4.jpg,Purple_Circle_Chess_4.jpg,Blue_Triangle_Stripes_2.jpg,left,452,true,low,NA,NA,NA,NA,NA,NA,NA,false
4VlHidrZ,385mdvingfsu7ikqnsjzxyjp4abjww,3nxnz5rs1easyb4akapc582wz4q97e,4VlHidrZ,2020-0188,2020-05-08,11:58:50,12:15:38,NA,incomplete,135,number,0,left,Purple_Star_Chess_2.jpg,Blue_Plus_Grid_2.jpg,Purple_Triangle_Stripes_4.jpg,left,717,true,low,NA,NA,NA,NA,NA,NA,NA,false
4VlHidrZ,385mdvingfsu7ikqnsjzxyjp4abjww,3nxnz5rs1easyb4akapc582wz4q97e,4VlHidrZ,2020-0188,2020-05-08,11:58:50,12:15:38,NA,incomplete,136,number,1,left,Green_Circle_Stripes_3.jpg,Purple_Triangle_Dots_3.jpg,Green_Star_Grid_1.jpg,left,518,true,low,NA,NA,NA,NA,NA,NA,NA,false
4VlHidrZ,385mdvingfsu7ikqnsjzxyjp4abjww,3nxnz5rs1easyb4akapc582wz4q97e,4VlHidrZ,2020-0188,2020-05-08,11:58:50,12:15:38,NA,incomplete,137,number,1,left,Red_Plus_Chess_1.jpg,Green_Star_Grid_1.jpg,Red_Circle_Stripes_4.jpg,left,468,true,low,NA,NA,NA,NA,NA,NA,NA,false
4VlHidrZ,385mdvingfsu7ikqnsjzxyjp4abjww,3nxnz5rs1easyb4akapc582wz4q97e,4VlHidrZ,2020-0188,2020-05-08,11:58:50,12:15:38,NA,incomplete,138,number,0,left,Purple_Star_Chess_4.jpg,Red_Triangle_Stripes_4.jpg,Purple_Circle_Grid_3.jpg,left,475,true,low,NA,NA,NA,NA,NA,NA,NA,false
4VlHidrZ,385mdvingfsu7ikqnsjzxyjp4abjww,3nxnz5rs1easyb4akapc582wz4q97e,4VlHidrZ,2020-0188,2020-05-08,11:58:50,12:15:38,NA,incomplete,139,number,1,left,Red_Circle_Chess_4.jpg,Green_Triangle_Dots_4.jpg,Red_Plus_Grid_3.jpg,left,831,true,low,NA,NA,NA,NA,NA,NA,NA,false
4VlHidrZ,385mdvingfsu7ikqnsjzxyjp4abjww,3nxnz5rs1easyb4akapc582wz4q97e,4VlHidrZ,2020-0188,2020-05-08,11:58:50,12:15:38,NA,incomplete,140,color,0,right,Purple_Star_Stripes_3.jpg,Red_Circle_Chess_3.jpg,Purple_Plus_Grid_1.jpg,left,566,false,low,NA,NA,NA,NA,NA,NA,NA,false
4VlHidrZ,385mdvingfsu7ikqnsjzxyjp4abjww,3nxnz5rs1easyb4akapc582wz4q97e,4VlHidrZ,2020-0188,2020-05-08,11:58:50,12:15:38,NA,incomplete,141,color,1,left,Red_Triangle_Stripes_3.jpg,Red_Plus_Chess_4.jpg,Purple_Circle_Grid_3.jpg,left,500,true,low,NA,NA,NA,NA,NA,NA,NA,false
4VlHidrZ,385mdvingfsu7ikqnsjzxyjp4abjww,3nxnz5rs1easyb4akapc582wz4q97e,4VlHidrZ,2020-0188,2020-05-08,11:58:50,12:15:38,NA,incomplete,142,color,1,right,Blue_Star_Chess_3.jpg,Purple_Plus_Grid_3.jpg,Blue_Circle_Stripes_1.jpg,right,703,true,low,NA,NA,NA,NA,NA,NA,NA,false
4VlHidrZ,385mdvingfsu7ikqnsjzxyjp4abjww,3nxnz5rs1easyb4akapc582wz4q97e,4VlHidrZ,2020-0188,2020-05-08,11:58:50,12:15:38,NA,incomplete,143,color,0,right,Blue_Star_Stripes_1.jpg,Red_Circle_Dots_1.jpg,Blue_Triangle_Chess_3.jpg,right,698,true,low,NA,NA,NA,NA,NA,NA,NA,false
4VlHidrZ,385mdvingfsu7ikqnsjzxyjp4abjww,3nxnz5rs1easyb4akapc582wz4q97e,4VlHidrZ,2020-0188,2020-05-08,11:58:50,12:15:38,NA,incomplete,144,color,1,right,Red_Triangle_Stripes_1.jpg,Green_Star_Chess_1.jpg,Red_Circle_Dots_4.jpg,left,482,false,low,NA,NA,NA,NA,NA,NA,NA,false
4VlHidrZ,385mdvingfsu7ikqnsjzxyjp4abjww,3nxnz5rs1easyb4akapc582wz4q97e,4VlHidrZ,2020-0188,2020-05-08,11:58:50,12:15:38,NA,incomplete,145,color,1,right,Green_Triangle_Chess_2.jpg,Blue_Circle_Stripes_2.jpg,Green_Plus_Grid_4.jpg,right,628,true,low,NA,NA,NA,NA,NA,NA,NA,false
4VlHidrZ,385mdvingfsu7ikqnsjzxyjp4abjww,3nxnz5rs1easyb4akapc582wz4q97e,4VlHidrZ,2020-0188,2020-05-08,11:58:50,12:15:38,NA,incomplete,146,color,0,right,Green_Plus_Chess_4.jpg,Red_Star_Stripes_4.jpg,Green_Circle_Dots_3.jpg,right,620,true,low,NA,NA,NA,NA,NA,NA,NA,false
4VlHidrZ,385mdvingfsu7ikqnsjzxyjp4abjww,3nxnz5rs1easyb4akapc582wz4q97e,4VlHidrZ,2020-0188,2020-05-08,11:58:50,12:15:38,NA,incomplete,147,color,1,right,Blue_Star_Chess_3.jpg,Purple_Triangle_Stripes_3.jpg,Blue_Circle_Grid_2.jpg,right,438,true,low,NA,NA,NA,NA,NA,NA,NA,false
4VlHidrZ,385mdvingfsu7ikqnsjzxyjp4abjww,3nxnz5rs1easyb4akapc582wz4q97e,4VlHidrZ,2020-0188,2020-05-08,11:58:50,12:15:38,NA,incomplete,148,color,0,right,Red_Triangle_Chess_4.jpg,Blue_Circle_Grid_4.jpg,Red_Plus_Dots_3.jpg,right,524,true,low,NA,NA,NA,NA,NA,NA,NA,false
4VlHidrZ,385mdvingfsu7ikqnsjzxyjp4abjww,3nxnz5rs1easyb4akapc582wz4q97e,4VlHidrZ,2020-0188,2020-05-08,11:58:50,12:15:38,NA,incomplete,149,color,1,left,Green_Circle_Dots_4.jpg,Green_Star_Chess_2.jpg,Purple_Plus_Stripes_4.jpg,left,461,true,low,NA,NA,NA,NA,NA,NA,NA,false
4VlHidrZ,385mdvingfsu7ikqnsjzxyjp4abjww,3nxnz5rs1easyb4akapc582wz4q97e,4VlHidrZ,2020-0188,2020-05-08,11:58:50,12:15:38,NA,incomplete,150,color,1,right,Purple_Triangle_Chess_1.jpg,Green_Star_Stripes_1.jpg,Purple_Plus_Dots_4.jpg,right,746,true,low,NA,NA,NA,NA,NA,NA,NA,false
4VlHidrZ,385mdvingfsu7ikqnsjzxyjp4abjww,3nxnz5rs1easyb4akapc582wz4q97e,4VlHidrZ,2020-0188,2020-05-08,11:58:50,12:15:38,NA,incomplete,151,color,1,right,Purple_Triangle_Chess_3.jpg,Red_Plus_Stripes_3.jpg,Purple_Circle_Dots_2.jpg,right,655,true,low,NA,NA,NA,NA,NA,NA,NA,false
4VlHidrZ,385mdvingfsu7ikqnsjzxyjp4abjww,3nxnz5rs1easyb4akapc582wz4q97e,4VlHidrZ,2020-0188,2020-05-08,11:58:50,12:15:38,NA,incomplete,152,color,1,left,Blue_Triangle_Stripes_1.jpg,Blue_Circle_Chess_3.jpg,Purple_Plus_Dots_1.jpg,left,1483,true,low,NA,NA,NA,NA,NA,NA,NA,false
4VlHidrZ,385mdvingfsu7ikqnsjzxyjp4abjww,3nxnz5rs1easyb4akapc582wz4q97e,4VlHidrZ,2020-0188,2020-05-08,11:58:50,12:15:38,NA,incomplete,153,color,1,left,Purple_Triangle_Chess_3.jpg,Purple_Plus_Grid_2.jpg,Green_Circle_Stripes_3.jpg,left,884,true,low,NA,NA,NA,NA,NA,NA,NA,false
4VlHidrZ,385mdvingfsu7ikqnsjzxyjp4abjww,3nxnz5rs1easyb4akapc582wz4q97e,4VlHidrZ,2020-0188,2020-05-08,11:58:50,12:15:38,NA,incomplete,154,color,1,right,Red_Triangle_Grid_4.jpg,Blue_Circle_Stripes_4.jpg,Red_Star_Dots_3.jpg,right,1010,true,low,NA,NA,NA,NA,NA,NA,NA,false
4VlHidrZ,385mdvingfsu7ikqnsjzxyjp4abjww,3nxnz5rs1easyb4akapc582wz4q97e,4VlHidrZ,2020-0188,2020-05-08,11:58:50,12:15:38,NA,incomplete,155,color,1,left,Green_Triangle_Grid_2.jpg,Green_Circle_Stripes_3.jpg,Purple_Plus_Chess_2.jpg,left,511,true,low,NA,NA,NA,NA,NA,NA,NA,false
4VlHidrZ,385mdvingfsu7ikqnsjzxyjp4abjww,3nxnz5rs1easyb4akapc582wz4q97e,4VlHidrZ,2020-0188,2020-05-08,11:58:50,12:15:38,NA,incomplete,156,color,1,right,Green_Circle_Dots_3.jpg,Red_Plus_Grid_3.jpg,Green_Star_Chess_2.jpg,right,387,true,low,NA,NA,NA,NA,NA,NA,NA,false
4VlHidrZ,385mdvingfsu7ikqnsjzxyjp4abjww,3nxnz5rs1easyb4akapc582wz4q97e,4VlHidrZ,2020-0188,2020-05-08,11:58:50,12:15:38,NA,incomplete,157,color,1,right,Blue_Star_Grid_3.jpg,Green_Triangle_Chess_3.jpg,Blue_Plus_Dots_2.jpg,right,991,true,low,NA,NA,NA,NA,NA,NA,NA,false
4VlHidrZ,385mdvingfsu7ikqnsjzxyjp4abjww,3nxnz5rs1easyb4akapc582wz4q97e,4VlHidrZ,2020-0188,2020-05-08,11:58:50,12:15:38,NA,incomplete,158,color,1,right,Green_Plus_Grid_3.jpg,Red_Circle_Stripes_3.jpg,Green_Star_Chess_2.jpg,right,452,true,low,NA,NA,NA,NA,NA,NA,NA,false
4VlHidrZ,385mdvingfsu7ikqnsjzxyjp4abjww,3nxnz5rs1easyb4akapc582wz4q97e,4VlHidrZ,2020-0188,2020-05-08,11:58:50,12:15:38,NA,incomplete,159,color,1,left,Red_Star_Stripes_1.jpg,Red_Triangle_Grid_2.jpg,Blue_Plus_Chess_1.jpg,left,588,true,low,NA,NA,NA,NA,NA,NA,NA,false
4VlHidrZ,385mdvingfsu7ikqnsjzxyjp4abjww,3nxnz5rs1easyb4akapc582wz4q97e,4VlHidrZ,2020-0188,2020-05-08,11:58:50,12:15:38,NA,incomplete,160,number,1,left,Blue_Circle_Chess_2.jpg,Green_Plus_Grid_2.jpg,Blue_Triangle_Dots_3.jpg,right,447,false,low,NA,NA,NA,NA,NA,NA,NA,false
4VlHidrZ,385mdvingfsu7ikqnsjzxyjp4abjww,3nxnz5rs1easyb4akapc582wz4q97e,4VlHidrZ,2020-0188,2020-05-08,11:58:50,12:15:38,NA,incomplete,161,number,1,left,Blue_Plus_Chess_2.jpg,Red_Star_Stripes_2.jpg,Blue_Circle_Dots_1.jpg,right,432,false,low,NA,NA,NA,NA,NA,NA,NA,false
4VlHidrZ,385mdvingfsu7ikqnsjzxyjp4abjww,3nxnz5rs1easyb4akapc582wz4q97e,4VlHidrZ,2020-0188,2020-05-08,11:58:50,12:15:38,NA,incomplete,162,number,1,left,Red_Star_Chess_3.jpg,Blue_Plus_Dots_3.jpg,Red_Circle_Grid_2.jpg,right,430,false,low,NA,NA,NA,NA,NA,NA,NA,false
4VlHidrZ,385mdvingfsu7ikqnsjzxyjp4abjww,3nxnz5rs1easyb4akapc582wz4q97e,4VlHidrZ,2020-0188,2020-05-08,11:58:50,12:15:38,NA,incomplete,163,number,1,left,Purple_Triangle_Dots_4.jpg,Blue_Star_Chess_4.jpg,Purple_Plus_Grid_2.jpg,left,917,true,low,NA,NA,NA,NA,NA,NA,NA,false
4VlHidrZ,385mdvingfsu7ikqnsjzxyjp4abjww,3nxnz5rs1easyb4akapc582wz4q97e,4VlHidrZ,2020-0188,2020-05-08,11:58:50,12:15:38,NA,incomplete,164,number,1,right,Green_Triangle_Chess_4.jpg,Green_Circle_Stripes_3.jpg,Purple_Star_Dots_4.jpg,left,467,false,low,NA,NA,NA,NA,NA,NA,NA,false
4VlHidrZ,385mdvingfsu7ikqnsjzxyjp4abjww,3nxnz5rs1easyb4akapc582wz4q97e,4VlHidrZ,2020-0188,2020-05-08,11:58:50,12:15:38,NA,incomplete,165,number,1,right,Purple_Circle_Chess_3.jpg,Purple_Triangle_Dots_1.jpg,Red_Plus_Stripes_3.jpg,right,521,true,low,NA,NA,NA,NA,NA,NA,NA,false
4VlHidrZ,385mdvingfsu7ikqnsjzxyjp4abjww,3nxnz5rs1easyb4akapc582wz4q97e,4VlHidrZ,2020-0188,2020-05-08,11:58:50,12:15:38,NA,incomplete,166,number,0,right,Purple_Star_Chess_2.jpg,Purple_Circle_Stripes_4.jpg,Red_Triangle_Dots_2.jpg,right,571,true,low,NA,NA,NA,NA,NA,NA,NA,false
4VlHidrZ,385mdvingfsu7ikqnsjzxyjp4abjww,3nxnz5rs1easyb4akapc582wz4q97e,4VlHidrZ,2020-0188,2020-05-08,11:58:50,12:15:38,NA,incomplete,167,number,1,left,Red_Triangle_Dots_2.jpg,Green_Star_Stripes_2.jpg,Red_Plus_Chess_1.jpg,left,725,true,low,NA,NA,NA,NA,NA,NA,NA,false
4VlHidrZ,385mdvingfsu7ikqnsjzxyjp4abjww,3nxnz5rs1easyb4akapc582wz4q97e,4VlHidrZ,2020-0188,2020-05-08,11:58:50,12:15:38,NA,incomplete,168,number,1,right,Blue_Circle_Stripes_4.jpg,Blue_Triangle_Dots_2.jpg,Purple_Star_Grid_4.jpg,right,669,true,low,NA,NA,NA,NA,NA,NA,NA,false
4VlHidrZ,385mdvingfsu7ikqnsjzxyjp4abjww,3nxnz5rs1easyb4akapc582wz4q97e,4VlHidrZ,2020-0188,2020-05-08,11:58:50,12:15:38,NA,incomplete,169,number,1,right,Purple_Triangle_Chess_4.jpg,Purple_Plus_Stripes_3.jpg,Blue_Circle_Grid_4.jpg,right,778,true,low,NA,NA,NA,NA,NA,NA,NA,false
4VlHidrZ,385mdvingfsu7ikqnsjzxyjp4abjww,3nxnz5rs1easyb4akapc582wz4q97e,4VlHidrZ,2020-0188,2020-05-08,11:58:50,12:15:38,NA,incomplete,170,number,1,left,Green_Plus_Grid_1.jpg,Blue_Circle_Chess_1.jpg,Green_Triangle_Stripes_3.jpg,left,872,true,low,NA,NA,NA,NA,NA,NA,NA,false
4VlHidrZ,385mdvingfsu7ikqnsjzxyjp4abjww,3nxnz5rs1easyb4akapc582wz4q97e,4VlHidrZ,2020-0188,2020-05-08,11:58:50,12:15:38,NA,incomplete,171,number,1,right,Red_Plus_Grid_2.jpg,Red_Triangle_Stripes_4.jpg,Blue_Star_Chess_2.jpg,right,656,true,low,NA,NA,NA,NA,NA,NA,NA,false
4VlHidrZ,385mdvingfsu7ikqnsjzxyjp4abjww,3nxnz5rs1easyb4akapc582wz4q97e,4VlHidrZ,2020-0188,2020-05-08,11:58:50,12:15:38,NA,incomplete,172,number,1,right,Red_Star_Stripes_2.jpg,Red_Circle_Grid_1.jpg,Blue_Plus_Dots_2.jpg,right,590,true,low,NA,NA,NA,NA,NA,NA,NA,false
4VlHidrZ,385mdvingfsu7ikqnsjzxyjp4abjww,3nxnz5rs1easyb4akapc582wz4q97e,4VlHidrZ,2020-0188,2020-05-08,11:58:50,12:15:38,NA,incomplete,173,number,1,left,Red_Plus_Stripes_1.jpg,Green_Circle_Dots_1.jpg,Red_Triangle_Chess_3.jpg,left,648,true,low,NA,NA,NA,NA,NA,NA,NA,false
4VlHidrZ,385mdvingfsu7ikqnsjzxyjp4abjww,3nxnz5rs1easyb4akapc582wz4q97e,4VlHidrZ,2020-0188,2020-05-08,11:58:50,12:15:38,NA,incomplete,174,number,1,right,Green_Triangle_Grid_4.jpg,Green_Plus_Stripes_2.jpg,Red_Circle_Chess_4.jpg,right,731,true,low,NA,NA,NA,NA,NA,NA,NA,false
4VlHidrZ,385mdvingfsu7ikqnsjzxyjp4abjww,3nxnz5rs1easyb4akapc582wz4q97e,4VlHidrZ,2020-0188,2020-05-08,11:58:50,12:15:38,NA,incomplete,175,number,1,right,Blue_Star_Stripes_1.jpg,Blue_Triangle_Dots_4.jpg,Purple_Circle_Grid_1.jpg,right,596,true,low,NA,NA,NA,NA,NA,NA,NA,false
4VlHidrZ,385mdvingfsu7ikqnsjzxyjp4abjww,3nxnz5rs1easyb4akapc582wz4q97e,4VlHidrZ,2020-0188,2020-05-08,11:58:50,12:15:38,NA,incomplete,176,number,1,right,Green_Circle_Grid_2.jpg,Green_Plus_Stripes_3.jpg,Blue_Star_Chess_2.jpg,right,688,true,low,NA,NA,NA,NA,NA,NA,NA,false
4VlHidrZ,385mdvingfsu7ikqnsjzxyjp4abjww,3nxnz5rs1easyb4akapc582wz4q97e,4VlHidrZ,2020-0188,2020-05-08,11:58:50,12:15:38,NA,incomplete,177,number,1,right,Red_Plus_Chess_4.jpg,Red_Triangle_Grid_2.jpg,Green_Star_Stripes_4.jpg,right,558,true,low,NA,NA,NA,NA,NA,NA,NA,false
4VlHidrZ,385mdvingfsu7ikqnsjzxyjp4abjww,3nxnz5rs1easyb4akapc582wz4q97e,4VlHidrZ,2020-0188,2020-05-08,11:58:50,12:15:38,NA,incomplete,178,number,1,right,Green_Plus_Grid_3.jpg,Green_Triangle_Stripes_1.jpg,Red_Circle_Chess_3.jpg,right,468,true,low,NA,NA,NA,NA,NA,NA,NA,false
4VlHidrZ,385mdvingfsu7ikqnsjzxyjp4abjww,3nxnz5rs1easyb4akapc582wz4q97e,4VlHidrZ,2020-0188,2020-05-08,11:58:50,12:15:38,NA,incomplete,179,number,1,left,Red_Star_Stripes_2.jpg,Purple_Plus_Dots_2.jpg,Red_Circle_Chess_3.jpg,left,614,true,low,NA,NA,NA,NA,NA,NA,NA,false
4VlHidrZ,385mdvingfsu7ikqnsjzxyjp4abjww,3nxnz5rs1easyb4akapc582wz4q97e,4VlHidrZ,2020-0188,2020-05-08,11:58:50,12:15:38,NA,incomplete,180,color,0,right,Red_Triangle_Stripes_4.jpg,Green_Circle_Chess_4.jpg,Red_Plus_Dots_1.jpg,left,625,false,low,NA,NA,NA,NA,NA,NA,NA,false
4VlHidrZ,385mdvingfsu7ikqnsjzxyjp4abjww,3nxnz5rs1easyb4akapc582wz4q97e,4VlHidrZ,2020-0188,2020-05-08,11:58:50,12:15:38,NA,incomplete,181,color,1,left,Purple_Plus_Stripes_3.jpg,Purple_Star_Grid_4.jpg,Green_Triangle_Dots_3.jpg,right,560,false,low,NA,NA,NA,NA,NA,NA,NA,false
4VlHidrZ,385mdvingfsu7ikqnsjzxyjp4abjww,3nxnz5rs1easyb4akapc582wz4q97e,4VlHidrZ,2020-0188,2020-05-08,11:58:50,12:15:38,NA,incomplete,182,color,1,right,Purple_Star_Chess_3.jpg,Green_Circle_Grid_3.jpg,Purple_Triangle_Dots_4.jpg,left,688,false,low,NA,NA,NA,NA,NA,NA,NA,false
4VlHidrZ,385mdvingfsu7ikqnsjzxyjp4abjww,3nxnz5rs1easyb4akapc582wz4q97e,4VlHidrZ,2020-0188,2020-05-08,11:58:50,12:15:38,NA,incomplete,183,color,1,left,Purple_Plus_Stripes_4.jpg,Purple_Star_Dots_2.jpg,Green_Circle_Grid_4.jpg,left,903,true,low,NA,NA,NA,NA,NA,NA,NA,false
4VlHidrZ,385mdvingfsu7ikqnsjzxyjp4abjww,3nxnz5rs1easyb4akapc582wz4q97e,4VlHidrZ,2020-0188,2020-05-08,11:58:50,12:15:38,NA,incomplete,184,color,1,left,Purple_Circle_Stripes_1.jpg,Purple_Triangle_Grid_2.jpg,Blue_Plus_Dots_1.jpg,left,575,true,low,NA,NA,NA,NA,NA,NA,NA,false
4VlHidrZ,385mdvingfsu7ikqnsjzxyjp4abjww,3nxnz5rs1easyb4akapc582wz4q97e,4VlHidrZ,2020-0188,2020-05-08,11:58:50,12:15:38,NA,incomplete,185,color,1,right,Green_Triangle_Stripes_3.jpg,Red_Circle_Chess_3.jpg,Green_Plus_Grid_4.jpg,right,755,true,low,NA,NA,NA,NA,NA,NA,NA,false
4VlHidrZ,385mdvingfsu7ikqnsjzxyjp4abjww,3nxnz5rs1easyb4akapc582wz4q97e,4VlHidrZ,2020-0188,2020-05-08,11:58:50,12:15:38,NA,incomplete,186,color,1,right,Green_Plus_Grid_1.jpg,Purple_Triangle_Dots_1.jpg,Green_Star_Chess_4.jpg,left,606,false,low,NA,NA,NA,NA,NA,NA,NA,false
4VlHidrZ,385mdvingfsu7ikqnsjzxyjp4abjww,3nxnz5rs1easyb4akapc582wz4q97e,4VlHidrZ,2020-0188,2020-05-08,11:58:50,12:15:38,NA,incomplete,187,color,1,left,Green_Triangle_Chess_3.jpg,Green_Plus_Stripes_2.jpg,Red_Circle_Dots_3.jpg,left,482,true,low,NA,NA,NA,NA,NA,NA,NA,false
4VlHidrZ,385mdvingfsu7ikqnsjzxyjp4abjww,3nxnz5rs1easyb4akapc582wz4q97e,4VlHidrZ,2020-0188,2020-05-08,11:58:50,12:15:38,NA,incomplete,188,color,1,right,Green_Circle_Stripes_2.jpg,Purple_Plus_Grid_2.jpg,Green_Triangle_Dots_1.jpg,right,433,true,low,NA,NA,NA,NA,NA,NA,NA,false
4VlHidrZ,385mdvingfsu7ikqnsjzxyjp4abjww,3nxnz5rs1easyb4akapc582wz4q97e,4VlHidrZ,2020-0188,2020-05-08,11:58:50,12:15:38,NA,incomplete,189,color,0,left,Green_Triangle_Stripes_3.jpg,Green_Circle_Dots_2.jpg,Red_Plus_Grid_3.jpg,left,430,true,low,NA,NA,NA,NA,NA,NA,NA,false
4VlHidrZ,385mdvingfsu7ikqnsjzxyjp4abjww,3nxnz5rs1easyb4akapc582wz4q97e,4VlHidrZ,2020-0188,2020-05-08,11:58:50,12:15:38,NA,incomplete,190,color,1,left,Red_Circle_Grid_2.jpg,Red_Star_Stripes_4.jpg,Green_Triangle_Dots_2.jpg,left,409,true,low,NA,NA,NA,NA,NA,NA,NA,false
4VlHidrZ,385mdvingfsu7ikqnsjzxyjp4abjww,3nxnz5rs1easyb4akapc582wz4q97e,4VlHidrZ,2020-0188,2020-05-08,11:58:50,12:15:38,NA,incomplete,191,color,0,left,Blue_Plus_Dots_2.jpg,Blue_Star_Grid_3.jpg,Green_Circle_Stripes_2.jpg,left,378,true,low,NA,NA,NA,NA,NA,NA,NA,false
4VlHidrZ,385mdvingfsu7ikqnsjzxyjp4abjww,3nxnz5rs1easyb4akapc582wz4q97e,4VlHidrZ,2020-0188,2020-05-08,11:58:50,12:15:38,NA,incomplete,192,color,1,left,Green_Circle_Grid_1.jpg,Green_Triangle_Stripes_2.jpg,Blue_Plus_Chess_1.jpg,left,967,true,low,NA,NA,NA,NA,NA,NA,NA,false
4VlHidrZ,385mdvingfsu7ikqnsjzxyjp4abjww,3nxnz5rs1easyb4akapc582wz4q97e,4VlHidrZ,2020-0188,2020-05-08,11:58:50,12:15:38,NA,incomplete,193,color,0,right,Blue_Plus_Chess_2.jpg,Purple_Triangle_Stripes_2.jpg,Blue_Star_Dots_1.jpg,right,501,true,low,NA,NA,NA,NA,NA,NA,NA,false
4VlHidrZ,385mdvingfsu7ikqnsjzxyjp4abjww,3nxnz5rs1easyb4akapc582wz4q97e,4VlHidrZ,2020-0188,2020-05-08,11:58:50,12:15:38,NA,incomplete,194,color,1,left,Red_Plus_Grid_2.jpg,Red_Circle_Dots_3.jpg,Green_Star_Chess_2.jpg,left,464,true,low,NA,NA,NA,NA,NA,NA,NA,false
4VlHidrZ,385mdvingfsu7ikqnsjzxyjp4abjww,3nxnz5rs1easyb4akapc582wz4q97e,4VlHidrZ,2020-0188,2020-05-08,11:58:50,12:15:38,NA,incomplete,195,color,1,right,Blue_Circle_Chess_2.jpg,Green_Star_Stripes_2.jpg,Blue_Triangle_Grid_4.jpg,right,373,true,low,NA,NA,NA,NA,NA,NA,NA,false
4VlHidrZ,385mdvingfsu7ikqnsjzxyjp4abjww,3nxnz5rs1easyb4akapc582wz4q97e,4VlHidrZ,2020-0188,2020-05-08,11:58:50,12:15:38,NA,incomplete,196,color,1,right,Green_Circle_Dots_4.jpg,Purple_Triangle_Grid_4.jpg,Green_Plus_Chess_1.jpg,right,433,true,low,NA,NA,NA,NA,NA,NA,NA,false
4VlHidrZ,385mdvingfsu7ikqnsjzxyjp4abjww,3nxnz5rs1easyb4akapc582wz4q97e,4VlHidrZ,2020-0188,2020-05-08,11:58:50,12:15:38,NA,incomplete,197,color,1,left,Green_Triangle_Grid_2.jpg,Green_Plus_Chess_4.jpg,Purple_Star_Stripes_2.jpg,left,360,true,low,NA,NA,NA,NA,NA,NA,NA,false
4VlHidrZ,385mdvingfsu7ikqnsjzxyjp4abjww,3nxnz5rs1easyb4akapc582wz4q97e,4VlHidrZ,2020-0188,2020-05-08,11:58:50,12:15:38,NA,incomplete,198,color,1,left,Green_Star_Grid_3.jpg,Green_Circle_Dots_4.jpg,Blue_Triangle_Stripes_3.jpg,left,460,true,low,NA,NA,NA,NA,NA,NA,NA,false
4VlHidrZ,385mdvingfsu7ikqnsjzxyjp4abjww,3nxnz5rs1easyb4akapc582wz4q97e,4VlHidrZ,2020-0188,2020-05-08,11:58:50,12:15:38,NA,incomplete,199,color,0,right,Red_Triangle_Chess_4.jpg,Green_Star_Dots_4.jpg,Red_Plus_Grid_1.jpg,right,410,true,low,NA,NA,NA,NA,NA,NA,NA,false
4VlHidrZ,385mdvingfsu7ikqnsjzxyjp4abjww,3nxnz5rs1easyb4akapc582wz4q97e,4VlHidrZ,2020-0188,2020-05-08,11:58:50,12:15:38,NA,incomplete,200,number,1,right,Blue_Star_Grid_2.jpg,Blue_Circle_Stripes_1.jpg,Green_Plus_Chess_2.jpg,left,439,false,low,NA,NA,NA,NA,NA,NA,NA,false
4VlHidrZ,385mdvingfsu7ikqnsjzxyjp4abjww,3nxnz5rs1easyb4akapc582wz4q97e,4VlHidrZ,2020-0188,2020-05-08,11:58:50,12:15:38,NA,incomplete,201,number,1,right,Red_Plus_Chess_4.jpg,Red_Circle_Dots_1.jpg,Purple_Triangle_Stripes_4.jpg,right,519,true,low,NA,NA,NA,NA,NA,NA,NA,false
4VlHidrZ,385mdvingfsu7ikqnsjzxyjp4abjww,3nxnz5rs1easyb4akapc582wz4q97e,4VlHidrZ,2020-0188,2020-05-08,11:58:50,12:15:38,NA,incomplete,202,number,1,left,Green_Star_Grid_3.jpg,Blue_Triangle_Stripes_3.jpg,Green_Plus_Chess_1.jpg,left,505,true,low,NA,NA,NA,NA,NA,NA,NA,false
4VlHidrZ,385mdvingfsu7ikqnsjzxyjp4abjww,3nxnz5rs1easyb4akapc582wz4q97e,4VlHidrZ,2020-0188,2020-05-08,11:58:50,12:15:38,NA,incomplete,203,number,0,right,Red_Plus_Dots_2.jpg,Red_Circle_Grid_1.jpg,Green_Triangle_Chess_2.jpg,right,534,true,low,NA,NA,NA,NA,NA,NA,NA,false
4VlHidrZ,385mdvingfsu7ikqnsjzxyjp4abjww,3nxnz5rs1easyb4akapc582wz4q97e,4VlHidrZ,2020-0188,2020-05-08,11:58:50,12:15:38,NA,incomplete,204,number,1,left,Purple_Star_Chess_3.jpg,Green_Plus_Dots_3.jpg,Purple_Circle_Stripes_4.jpg,left,678,true,low,NA,NA,NA,NA,NA,NA,NA,false
4VlHidrZ,385mdvingfsu7ikqnsjzxyjp4abjww,3nxnz5rs1easyb4akapc582wz4q97e,4VlHidrZ,2020-0188,2020-05-08,11:58:50,12:15:38,NA,incomplete,205,number,1,right,Red_Triangle_Stripes_3.jpg,Red_Star_Grid_1.jpg,Green_Plus_Dots_3.jpg,right,613,true,low,NA,NA,NA,NA,NA,NA,NA,false
4VlHidrZ,385mdvingfsu7ikqnsjzxyjp4abjww,3nxnz5rs1easyb4akapc582wz4q97e,4VlHidrZ,2020-0188,2020-05-08,11:58:50,12:15:38,NA,incomplete,206,number,0,right,Green_Circle_Dots_1.jpg,Green_Plus_Stripes_2.jpg,Blue_Triangle_Chess_1.jpg,right,659,true,low,NA,NA,NA,NA,NA,NA,NA,false
4VlHidrZ,385mdvingfsu7ikqnsjzxyjp4abjww,3nxnz5rs1easyb4akapc582wz4q97e,4VlHidrZ,2020-0188,2020-05-08,11:58:50,12:15:38,NA,incomplete,207,number,1,left,Red_Star_Chess_2.jpg,Blue_Circle_Dots_2.jpg,Red_Triangle_Stripes_1.jpg,left,581,true,low,NA,NA,NA,NA,NA,NA,NA,false
4VlHidrZ,385mdvingfsu7ikqnsjzxyjp4abjww,3nxnz5rs1easyb4akapc582wz4q97e,4VlHidrZ,2020-0188,2020-05-08,11:58:50,12:15:38,NA,incomplete,208,number,1,left,Red_Circle_Dots_1.jpg,Purple_Star_Stripes_1.jpg,Red_Triangle_Chess_3.jpg,left,557,true,low,NA,NA,NA,NA,NA,NA,NA,false
4VlHidrZ,385mdvingfsu7ikqnsjzxyjp4abjww,3nxnz5rs1easyb4akapc582wz4q97e,4VlHidrZ,2020-0188,2020-05-08,11:58:50,12:15:38,NA,incomplete,209,number,1,right,Green_Triangle_Grid_3.jpg,Green_Circle_Stripes_4.jpg,Purple_Star_Chess_3.jpg,right,657,true,low,NA,NA,NA,NA,NA,NA,NA,false
4VlHidrZ,385mdvingfsu7ikqnsjzxyjp4abjww,3nxnz5rs1easyb4akapc582wz4q97e,4VlHidrZ,2020-0188,2020-05-08,11:58:50,12:15:38,NA,incomplete,210,number,1,right,Purple_Triangle_Chess_2.jpg,Purple_Circle_Dots_4.jpg,Blue_Star_Grid_2.jpg,right,631,true,low,NA,NA,NA,NA,NA,NA,NA,false
4VlHidrZ,385mdvingfsu7ikqnsjzxyjp4abjww,3nxnz5rs1easyb4akapc582wz4q97e,4VlHidrZ,2020-0188,2020-05-08,11:58:50,12:15:38,NA,incomplete,211,number,1,right,Green_Plus_Stripes_3.jpg,Green_Star_Chess_1.jpg,Blue_Circle_Grid_3.jpg,right,611,true,low,NA,NA,NA,NA,NA,NA,NA,false
4VlHidrZ,385mdvingfsu7ikqnsjzxyjp4abjww,3nxnz5rs1easyb4akapc582wz4q97e,4VlHidrZ,2020-0188,2020-05-08,11:58:50,12:15:38,NA,incomplete,212,number,0,right,Blue_Plus_Grid_2.jpg,Blue_Star_Chess_3.jpg,Purple_Circle_Dots_2.jpg,left,789,false,low,NA,NA,NA,NA,NA,NA,NA,false
4VlHidrZ,385mdvingfsu7ikqnsjzxyjp4abjww,3nxnz5rs1easyb4akapc582wz4q97e,4VlHidrZ,2020-0188,2020-05-08,11:58:50,12:15:38,NA,incomplete,213,number,1,right,Green_Circle_Chess_4.jpg,Green_Plus_Stripes_1.jpg,Red_Triangle_Grid_4.jpg,right,605,true,low,NA,NA,NA,NA,NA,NA,NA,false
4VlHidrZ,385mdvingfsu7ikqnsjzxyjp4abjww,3nxnz5rs1easyb4akapc582wz4q97e,4VlHidrZ,2020-0188,2020-05-08,11:58:50,12:15:38,NA,incomplete,214,number,1,left,Red_Plus_Dots_4.jpg,Blue_Triangle_Grid_4.jpg,Red_Circle_Stripes_3.jpg,right,653,false,low,NA,NA,NA,NA,NA,NA,NA,false
4VlHidrZ,385mdvingfsu7ikqnsjzxyjp4abjww,3nxnz5rs1easyb4akapc582wz4q97e,4VlHidrZ,2020-0188,2020-05-08,11:58:50,12:15:38,NA,incomplete,215,number,0,left,Red_Circle_Chess_4.jpg,Purple_Plus_Stripes_4.jpg,Red_Star_Dots_3.jpg,left,645,true,low,NA,NA,NA,NA,NA,NA,NA,false
4VlHidrZ,385mdvingfsu7ikqnsjzxyjp4abjww,3nxnz5rs1easyb4akapc582wz4q97e,4VlHidrZ,2020-0188,2020-05-08,11:58:50,12:15:38,NA,incomplete,216,number,1,left,Blue_Circle_Chess_1.jpg,Red_Plus_Stripes_1.jpg,Blue_Star_Dots_4.jpg,left,536,true,low,NA,NA,NA,NA,NA,NA,NA,false
4VlHidrZ,385mdvingfsu7ikqnsjzxyjp4abjww,3nxnz5rs1easyb4akapc582wz4q97e,4VlHidrZ,2020-0188,2020-05-08,11:58:50,12:15:38,NA,incomplete,217,number,1,left,Purple_Plus_Stripes_4.jpg,Red_Triangle_Chess_4.jpg,Purple_Star_Dots_1.jpg,right,1033,false,low,NA,NA,NA,NA,NA,NA,NA,false
4VlHidrZ,385mdvingfsu7ikqnsjzxyjp4abjww,3nxnz5rs1easyb4akapc582wz4q97e,4VlHidrZ,2020-0188,2020-05-08,11:58:50,12:15:38,NA,incomplete,218,number,1,left,Purple_Triangle_Dots_2.jpg,Blue_Plus_Stripes_2.jpg,Purple_Star_Chess_3.jpg,none,0,false,low,NA,NA,NA,NA,NA,NA,NA,false
4VlHidrZ,385mdvingfsu7ikqnsjzxyjp4abjww,3nxnz5rs1easyb4akapc582wz4q97e,4VlHidrZ,2020-0188,2020-05-08,11:58:50,12:15:38,NA,incomplete,219,number,1,right,Blue_Circle_Grid_2.jpg,Blue_Triangle_Stripes_1.jpg,Purple_Plus_Dots_2.jpg,right,580,true,low,NA,NA,NA,NA,NA,NA,NA,false
4VlHidrZ,385mdvingfsu7ikqnsjzxyjp4abjww,3nxnz5rs1easyb4akapc582wz4q97e,4VlHidrZ,2020-0188,2020-05-08,11:58:50,12:15:38,NA,incomplete,220,color,1,left,Red_Plus_Dots_3.jpg,Red_Circle_Stripes_4.jpg,Purple_Triangle_Chess_3.jpg,right,677,false,low,NA,NA,NA,NA,NA,NA,NA,false
4VlHidrZ,385mdvingfsu7ikqnsjzxyjp4abjww,3nxnz5rs1easyb4akapc582wz4q97e,4VlHidrZ,2020-0188,2020-05-08,11:58:50,12:15:38,NA,incomplete,221,color,1,right,Red_Star_Stripes_3.jpg,Purple_Plus_Grid_3.jpg,Red_Triangle_Chess_1.jpg,left,489,false,low,NA,NA,NA,NA,NA,NA,NA,false
4VlHidrZ,385mdvingfsu7ikqnsjzxyjp4abjww,3nxnz5rs1easyb4akapc582wz4q97e,4VlHidrZ,2020-0188,2020-05-08,11:58:50,12:15:38,NA,incomplete,222,color,0,left,Purple_Star_Stripes_4.jpg,Purple_Triangle_Grid_1.jpg,Red_Circle_Dots_4.jpg,left,446,true,low,NA,NA,NA,NA,NA,NA,NA,false
4VlHidrZ,385mdvingfsu7ikqnsjzxyjp4abjww,3nxnz5rs1easyb4akapc582wz4q97e,4VlHidrZ,2020-0188,2020-05-08,11:58:50,12:15:38,NA,incomplete,223,color,1,left,Blue_Circle_Dots_3.jpg,Blue_Triangle_Grid_4.jpg,Purple_Plus_Stripes_3.jpg,left,507,true,low,NA,NA,NA,NA,NA,NA,NA,false
4VlHidrZ,385mdvingfsu7ikqnsjzxyjp4abjww,3nxnz5rs1easyb4akapc582wz4q97e,4VlHidrZ,2020-0188,2020-05-08,11:58:50,12:15:38,NA,incomplete,224,color,1,right,Green_Plus_Stripes_3.jpg,Blue_Triangle_Grid_3.jpg,Green_Star_Dots_2.jpg,right,635,true,low,NA,NA,NA,NA,NA,NA,NA,false
4VlHidrZ,385mdvingfsu7ikqnsjzxyjp4abjww,3nxnz5rs1easyb4akapc582wz4q97e,4VlHidrZ,2020-0188,2020-05-08,11:58:50,12:15:38,NA,incomplete,225,color,0,left,Green_Triangle_Grid_4.jpg,Green_Circle_Dots_1.jpg,Purple_Plus_Chess_4.jpg,left,612,true,low,NA,NA,NA,NA,NA,NA,NA,false
4VlHidrZ,385mdvingfsu7ikqnsjzxyjp4abjww,3nxnz5rs1easyb4akapc582wz4q97e,4VlHidrZ,2020-0188,2020-05-08,11:58:50,12:15:38,NA,incomplete,226,color,1,right,Red_Triangle_Dots_2.jpg,Purple_Plus_Chess_2.jpg,Red_Star_Stripes_4.jpg,right,457,true,low,NA,NA,NA,NA,NA,NA,NA,false
4VlHidrZ,385mdvingfsu7ikqnsjzxyjp4abjww,3nxnz5rs1easyb4akapc582wz4q97e,4VlHidrZ,2020-0188,2020-05-08,11:58:50,12:15:38,NA,incomplete,227,color,1,right,Green_Plus_Grid_2.jpg,Red_Triangle_Dots_2.jpg,Green_Circle_Stripes_3.jpg,right,445,true,low,NA,NA,NA,NA,NA,NA,NA,false
4VlHidrZ,385mdvingfsu7ikqnsjzxyjp4abjww,3nxnz5rs1easyb4akapc582wz4q97e,4VlHidrZ,2020-0188,2020-05-08,11:58:50,12:15:38,NA,incomplete,228,color,1,right,Red_Circle_Stripes_4.jpg,Green_Plus_Dots_4.jpg,Red_Star_Chess_2.jpg,right,505,true,low,NA,NA,NA,NA,NA,NA,NA,false
4VlHidrZ,385mdvingfsu7ikqnsjzxyjp4abjww,3nxnz5rs1easyb4akapc582wz4q97e,4VlHidrZ,2020-0188,2020-05-08,11:58:50,12:15:38,NA,incomplete,229,color,1,left,Purple_Circle_Grid_4.jpg,Purple_Plus_Stripes_2.jpg,Blue_Star_Dots_4.jpg,left,1041,true,low,NA,NA,NA,NA,NA,NA,NA,false
4VlHidrZ,385mdvingfsu7ikqnsjzxyjp4abjww,3nxnz5rs1easyb4akapc582wz4q97e,4VlHidrZ,2020-0188,2020-05-08,11:58:50,12:15:38,NA,incomplete,230,color,1,right,Purple_Circle_Chess_1.jpg,Red_Star_Grid_1.jpg,Purple_Plus_Stripes_3.jpg,right,424,true,low,NA,NA,NA,NA,NA,NA,NA,false
4VlHidrZ,385mdvingfsu7ikqnsjzxyjp4abjww,3nxnz5rs1easyb4akapc582wz4q97e,4VlHidrZ,2020-0188,2020-05-08,11:58:50,12:15:38,NA,incomplete,231,color,0,right,Green_Star_Chess_1.jpg,Purple_Triangle_Stripes_1.jpg,Green_Plus_Dots_2.jpg,right,401,true,low,NA,NA,NA,NA,NA,NA,NA,false
4VlHidrZ,385mdvingfsu7ikqnsjzxyjp4abjww,3nxnz5rs1easyb4akapc582wz4q97e,4VlHidrZ,2020-0188,2020-05-08,11:58:50,12:15:38,NA,incomplete,232,color,1,right,Purple_Star_Dots_4.jpg,Red_Plus_Grid_4.jpg,Purple_Circle_Stripes_2.jpg,right,517,true,low,NA,NA,NA,NA,NA,NA,NA,false
4VlHidrZ,385mdvingfsu7ikqnsjzxyjp4abjww,3nxnz5rs1easyb4akapc582wz4q97e,4VlHidrZ,2020-0188,2020-05-08,11:58:50,12:15:38,NA,incomplete,233,color,1,right,Green_Circle_Chess_4.jpg,Blue_Plus_Stripes_4.jpg,Green_Star_Dots_1.jpg,right,432,true,low,NA,NA,NA,NA,NA,NA,NA,false
4VlHidrZ,385mdvingfsu7ikqnsjzxyjp4abjww,3nxnz5rs1easyb4akapc582wz4q97e,4VlHidrZ,2020-0188,2020-05-08,11:58:50,12:15:38,NA,incomplete,234,color,0,left,Red_Circle_Chess_3.jpg,Red_Plus_Dots_1.jpg,Purple_Triangle_Grid_3.jpg,left,396,true,low,NA,NA,NA,NA,NA,NA,NA,false
4VlHidrZ,385mdvingfsu7ikqnsjzxyjp4abjww,3nxnz5rs1easyb4akapc582wz4q97e,4VlHidrZ,2020-0188,2020-05-08,11:58:50,12:15:38,NA,incomplete,235,color,1,left,Red_Star_Chess_1.jpg,Red_Triangle_Stripes_4.jpg,Purple_Circle_Dots_1.jpg,left,423,true,low,NA,NA,NA,NA,NA,NA,NA,false
4VlHidrZ,385mdvingfsu7ikqnsjzxyjp4abjww,3nxnz5rs1easyb4akapc582wz4q97e,4VlHidrZ,2020-0188,2020-05-08,11:58:50,12:15:38,NA,incomplete,236,color,0,right,Purple_Circle_Chess_1.jpg,Red_Plus_Dots_1.jpg,Purple_Triangle_Stripes_2.jpg,right,443,true,low,NA,NA,NA,NA,NA,NA,NA,false
4VlHidrZ,385mdvingfsu7ikqnsjzxyjp4abjww,3nxnz5rs1easyb4akapc582wz4q97e,4VlHidrZ,2020-0188,2020-05-08,11:58:50,12:15:38,NA,incomplete,237,color,1,left,Red_Triangle_Dots_1.jpg,Red_Star_Chess_3.jpg,Purple_Plus_Grid_1.jpg,left,408,true,low,NA,NA,NA,NA,NA,NA,NA,false
4VlHidrZ,385mdvingfsu7ikqnsjzxyjp4abjww,3nxnz5rs1easyb4akapc582wz4q97e,4VlHidrZ,2020-0188,2020-05-08,11:58:50,12:15:38,NA,incomplete,238,color,1,right,Blue_Triangle_Chess_4.jpg,Purple_Circle_Grid_4.jpg,Blue_Star_Stripes_1.jpg,right,477,true,low,NA,NA,NA,NA,NA,NA,NA,false
4VlHidrZ,385mdvingfsu7ikqnsjzxyjp4abjww,3nxnz5rs1easyb4akapc582wz4q97e,4VlHidrZ,2020-0188,2020-05-08,11:58:50,12:15:38,NA,incomplete,239,color,1,right,Blue_Triangle_Chess_2.jpg,Purple_Star_Grid_2.jpg,Blue_Plus_Stripes_3.jpg,right,436,true,low,NA,NA,NA,NA,NA,NA,NA,false
4VlHidrZ,385mdvingfsu7ikqnsjzxyjp4abjww,3nxnz5rs1easyb4akapc582wz4q97e,4VlHidrZ,2020-0188,2020-05-08,11:58:50,12:15:38,990069,1008842,NA,NA,NA,NA,NA,NA,NA,NA,NA,NA,NA,29,White/Caucasian,Male,White,no,no,no,undefined
