workerId,hitId,assignmentId,subject,studyid,exp_date,exp_start,exp_end,time_start,time_end,trial,type,reward_validity,answer,image_top,image_left,image_right,response,response_time,response_acc,volatility,age,race,gender,ethnicity,color,vision,neuro,practice
TCnIYw2a,3b6f54kms5pu5knddy3sw9ki4gws13,3oonkj5dkgwi7ab6zgka70jhcovbox,TCnIYw2a,2020-0188,2020-05-07,17:47:23,18:08:37,NA,incomplete,0,filling,1,left,Red_Plus_Stripes_4.jpg,Green_Star_Stripes_3.jpg,Purple_Circle_Chess_4.jpg,left,966,true,NA,NA,NA,NA,NA,NA,NA,NA,true
TCnIYw2a,3b6f54kms5pu5knddy3sw9ki4gws13,3oonkj5dkgwi7ab6zgka70jhcovbox,TCnIYw2a,2020-0188,2020-05-07,17:47:23,18:08:37,NA,incomplete,1,filling,1,right,Blue_Plus_Stripes_1.jpg,Purple_Circle_Grid_1.jpg,Red_Triangle_Stripes_4.jpg,right,928,true,NA,NA,NA,NA,NA,NA,NA,NA,true
TCnIYw2a,3b6f54kms5pu5knddy3sw9ki4gws13,3oonkj5dkgwi7ab6zgka70jhcovbox,TCnIYw2a,2020-0188,2020-05-07,17:47:23,18:08:37,NA,incomplete,2,filling,1,left,Purple_Star_Dots_3.jpg,Blue_Triangle_Dots_2.jpg,Red_Circle_Grid_3.jpg,left,812,true,NA,NA,NA,NA,NA,NA,NA,NA,true
TCnIYw2a,3b6f54kms5pu5knddy3sw9ki4gws13,3oonkj5dkgwi7ab6zgka70jhcovbox,TCnIYw2a,2020-0188,2020-05-07,17:47:23,18:08:37,NA,incomplete,3,filling,1,right,Purple_Plus_Dots_3.jpg,Red_Star_Grid_3.jpg,Green_Circle_Dots_2.jpg,right,855,true,NA,NA,NA,NA,NA,NA,NA,NA,true
TCnIYw2a,3b6f54kms5pu5knddy3sw9ki4gws13,3oonkj5dkgwi7ab6zgka70jhcovbox,TCnIYw2a,2020-0188,2020-05-07,17:47:23,18:08:37,NA,incomplete,4,filling,0,right,Red_Triangle_Chess_1.jpg,Green_Star_Grid_1.jpg,Purple_Plus_Chess_4.jpg,right,933,true,NA,NA,NA,NA,NA,NA,NA,NA,true
TCnIYw2a,3b6f54kms5pu5knddy3sw9ki4gws13,3oonkj5dkgwi7ab6zgka70jhcovbox,TCnIYw2a,2020-0188,2020-05-07,17:47:23,18:08:37,NA,incomplete,5,filling,0,left,Green_Circle_Grid_2.jpg,Purple_Star_Grid_3.jpg,Red_Triangle_Dots_2.jpg,left,890,true,NA,NA,NA,NA,NA,NA,NA,NA,true
TCnIYw2a,3b6f54kms5pu5knddy3sw9ki4gws13,3oonkj5dkgwi7ab6zgka70jhcovbox,TCnIYw2a,2020-0188,2020-05-07,17:47:23,18:08:37,NA,incomplete,6,filling,1,left,Blue_Star_Chess_4.jpg,Red_Plus_Chess_1.jpg,Purple_Triangle_Dots_4.jpg,left,872,true,NA,NA,NA,NA,NA,NA,NA,NA,true
TCnIYw2a,3b6f54kms5pu5knddy3sw9ki4gws13,3oonkj5dkgwi7ab6zgka70jhcovbox,TCnIYw2a,2020-0188,2020-05-07,17:47:23,18:08:37,NA,incomplete,7,filling,1,left,Green_Star_Dots_2.jpg,Blue_Triangle_Dots_3.jpg,Purple_Plus_Grid_2.jpg,left,902,true,NA,NA,NA,NA,NA,NA,NA,NA,true
TCnIYw2a,3b6f54kms5pu5knddy3sw9ki4gws13,3oonkj5dkgwi7ab6zgka70jhcovbox,TCnIYw2a,2020-0188,2020-05-07,17:47:23,18:08:37,NA,incomplete,8,filling,1,right,Red_Plus_Stripes_3.jpg,Purple_Star_Chess_3.jpg,Green_Triangle_Stripes_2.jpg,right,1042,true,NA,NA,NA,NA,NA,NA,NA,NA,true
TCnIYw2a,3b6f54kms5pu5knddy3sw9ki4gws13,3oonkj5dkgwi7ab6zgka70jhcovbox,TCnIYw2a,2020-0188,2020-05-07,17:47:23,18:08:37,NA,incomplete,9,filling,1,right,Purple_Triangle_Grid_1.jpg,Green_Circle_Chess_1.jpg,Blue_Star_Grid_2.jpg,right,970,true,NA,NA,NA,NA,NA,NA,NA,NA,true
TCnIYw2a,3b6f54kms5pu5knddy3sw9ki4gws13,3oonkj5dkgwi7ab6zgka70jhcovbox,TCnIYw2a,2020-0188,2020-05-07,17:47:23,18:08:37,NA,incomplete,10,filling,1,right,Red_Star_Stripes_1.jpg,Purple_Circle_Chess_1.jpg,Green_Triangle_Stripes_3.jpg,right,958,true,NA,NA,NA,NA,NA,NA,NA,NA,true
TCnIYw2a,3b6f54kms5pu5knddy3sw9ki4gws13,3oonkj5dkgwi7ab6zgka70jhcovbox,TCnIYw2a,2020-0188,2020-05-07,17:47:23,18:08:37,NA,incomplete,11,filling,1,left,Purple_Triangle_Dots_4.jpg,Green_Circle_Dots_2.jpg,Red_Plus_Grid_4.jpg,left,871,true,NA,NA,NA,NA,NA,NA,NA,NA,true
TCnIYw2a,3b6f54kms5pu5knddy3sw9ki4gws13,3oonkj5dkgwi7ab6zgka70jhcovbox,TCnIYw2a,2020-0188,2020-05-07,17:47:23,18:08:37,NA,incomplete,12,filling,0,right,Green_Circle_Dots_1.jpg,Blue_Star_Stripes_1.jpg,Red_Plus_Dots_4.jpg,right,847,true,NA,NA,NA,NA,NA,NA,NA,NA,true
TCnIYw2a,3b6f54kms5pu5knddy3sw9ki4gws13,3oonkj5dkgwi7ab6zgka70jhcovbox,TCnIYw2a,2020-0188,2020-05-07,17:47:23,18:08:37,NA,incomplete,13,filling,1,right,Purple_Star_Stripes_2.jpg,Blue_Circle_Chess_2.jpg,Red_Triangle_Stripes_3.jpg,right,1045,true,NA,NA,NA,NA,NA,NA,NA,NA,true
TCnIYw2a,3b6f54kms5pu5knddy3sw9ki4gws13,3oonkj5dkgwi7ab6zgka70jhcovbox,TCnIYw2a,2020-0188,2020-05-07,17:47:23,18:08:37,NA,incomplete,14,filling,0,right,Blue_Triangle_Dots_1.jpg,Green_Plus_Chess_1.jpg,Purple_Circle_Dots_2.jpg,right,910,true,NA,NA,NA,NA,NA,NA,NA,NA,true
TCnIYw2a,3b6f54kms5pu5knddy3sw9ki4gws13,3oonkj5dkgwi7ab6zgka70jhcovbox,TCnIYw2a,2020-0188,2020-05-07,17:47:23,18:08:37,NA,incomplete,15,filling,1,left,Red_Plus_Grid_4.jpg,Green_Star_Grid_2.jpg,Purple_Circle_Dots_4.jpg,left,858,true,NA,NA,NA,NA,NA,NA,NA,NA,true
TCnIYw2a,3b6f54kms5pu5knddy3sw9ki4gws13,3oonkj5dkgwi7ab6zgka70jhcovbox,TCnIYw2a,2020-0188,2020-05-07,17:47:23,18:08:37,NA,incomplete,16,filling,1,left,Green_Circle_Grid_4.jpg,Purple_Triangle_Grid_1.jpg,Blue_Plus_Dots_4.jpg,left,865,true,NA,NA,NA,NA,NA,NA,NA,NA,true
TCnIYw2a,3b6f54kms5pu5knddy3sw9ki4gws13,3oonkj5dkgwi7ab6zgka70jhcovbox,TCnIYw2a,2020-0188,2020-05-07,17:47:23,18:08:37,NA,incomplete,17,filling,0,right,Green_Triangle_Dots_1.jpg,Purple_Star_Grid_1.jpg,Red_Circle_Dots_2.jpg,right,1017,true,NA,NA,NA,NA,NA,NA,NA,NA,true
TCnIYw2a,3b6f54kms5pu5knddy3sw9ki4gws13,3oonkj5dkgwi7ab6zgka70jhcovbox,TCnIYw2a,2020-0188,2020-05-07,17:47:23,18:08:37,NA,incomplete,18,filling,1,right,Purple_Star_Stripes_3.jpg,Red_Circle_Chess_3.jpg,Blue_Plus_Stripes_4.jpg,right,993,true,NA,NA,NA,NA,NA,NA,NA,NA,true
TCnIYw2a,3b6f54kms5pu5knddy3sw9ki4gws13,3oonkj5dkgwi7ab6zgka70jhcovbox,TCnIYw2a,2020-0188,2020-05-07,17:47:23,18:08:37,NA,incomplete,19,filling,0,right,Purple_Star_Chess_3.jpg,Red_Plus_Grid_3.jpg,Green_Circle_Chess_4.jpg,right,1332,true,NA,NA,NA,NA,NA,NA,NA,NA,true
TCnIYw2a,3b6f54kms5pu5knddy3sw9ki4gws13,3oonkj5dkgwi7ab6zgka70jhcovbox,TCnIYw2a,2020-0188,2020-05-07,17:47:23,18:08:37,NA,incomplete,20,number,1,left,Red_Star_Stripes_3.jpg,Purple_Plus_Dots_3.jpg,Blue_Circle_Stripes_1.jpg,right,894,false,NA,NA,NA,NA,NA,NA,NA,NA,true
TCnIYw2a,3b6f54kms5pu5knddy3sw9ki4gws13,3oonkj5dkgwi7ab6zgka70jhcovbox,TCnIYw2a,2020-0188,2020-05-07,17:47:23,18:08:37,NA,incomplete,21,number,1,left,Purple_Star_Grid_4.jpg,Green_Plus_Chess_4.jpg,Red_Triangle_Grid_1.jpg,left,765,true,NA,NA,NA,NA,NA,NA,NA,NA,true
TCnIYw2a,3b6f54kms5pu5knddy3sw9ki4gws13,3oonkj5dkgwi7ab6zgka70jhcovbox,TCnIYw2a,2020-0188,2020-05-07,17:47:23,18:08:37,NA,incomplete,22,number,1,right,Blue_Plus_Grid_3.jpg,Red_Star_Grid_2.jpg,Green_Triangle_Chess_3.jpg,right,688,true,NA,NA,NA,NA,NA,NA,NA,NA,true
TCnIYw2a,3b6f54kms5pu5knddy3sw9ki4gws13,3oonkj5dkgwi7ab6zgka70jhcovbox,TCnIYw2a,2020-0188,2020-05-07,17:47:23,18:08:37,NA,incomplete,23,number,1,right,Purple_Star_Grid_3.jpg,Red_Triangle_Grid_2.jpg,Green_Circle_Stripes_3.jpg,right,678,true,NA,NA,NA,NA,NA,NA,NA,NA,true
TCnIYw2a,3b6f54kms5pu5knddy3sw9ki4gws13,3oonkj5dkgwi7ab6zgka70jhcovbox,TCnIYw2a,2020-0188,2020-05-07,17:47:23,18:08:37,NA,incomplete,24,number,1,right,Purple_Plus_Chess_3.jpg,Red_Circle_Chess_2.jpg,Blue_Triangle_Dots_3.jpg,right,636,true,NA,NA,NA,NA,NA,NA,NA,NA,true
TCnIYw2a,3b6f54kms5pu5knddy3sw9ki4gws13,3oonkj5dkgwi7ab6zgka70jhcovbox,TCnIYw2a,2020-0188,2020-05-07,17:47:23,18:08:37,NA,incomplete,25,number,1,left,Red_Plus_Chess_2.jpg,Green_Star_Grid_2.jpg,Blue_Circle_Chess_1.jpg,left,676,true,NA,NA,NA,NA,NA,NA,NA,NA,true
TCnIYw2a,3b6f54kms5pu5knddy3sw9ki4gws13,3oonkj5dkgwi7ab6zgka70jhcovbox,TCnIYw2a,2020-0188,2020-05-07,17:47:23,18:08:37,NA,incomplete,26,number,1,left,Blue_Triangle_Stripes_1.jpg,Green_Star_Dots_1.jpg,Purple_Plus_Stripes_3.jpg,left,723,true,NA,NA,NA,NA,NA,NA,NA,NA,true
TCnIYw2a,3b6f54kms5pu5knddy3sw9ki4gws13,3oonkj5dkgwi7ab6zgka70jhcovbox,TCnIYw2a,2020-0188,2020-05-07,17:47:23,18:08:37,NA,incomplete,27,number,1,left,Purple_Circle_Grid_2.jpg,Blue_Plus_Chess_2.jpg,Green_Triangle_Grid_1.jpg,left,655,true,NA,NA,NA,NA,NA,NA,NA,NA,true
TCnIYw2a,3b6f54kms5pu5knddy3sw9ki4gws13,3oonkj5dkgwi7ab6zgka70jhcovbox,TCnIYw2a,2020-0188,2020-05-07,17:47:23,18:08:37,NA,incomplete,28,number,1,right,Blue_Triangle_Stripes_1.jpg,Red_Star_Stripes_4.jpg,Green_Circle_Grid_1.jpg,right,598,true,NA,NA,NA,NA,NA,NA,NA,NA,true
TCnIYw2a,3b6f54kms5pu5knddy3sw9ki4gws13,3oonkj5dkgwi7ab6zgka70jhcovbox,TCnIYw2a,2020-0188,2020-05-07,17:47:23,18:08:37,NA,incomplete,29,number,0,left,Green_Plus_Chess_3.jpg,Purple_Star_Stripes_3.jpg,Red_Triangle_Chess_1.jpg,left,639,true,NA,NA,NA,NA,NA,NA,NA,NA,true
TCnIYw2a,3b6f54kms5pu5knddy3sw9ki4gws13,3oonkj5dkgwi7ab6zgka70jhcovbox,TCnIYw2a,2020-0188,2020-05-07,17:47:23,18:08:37,NA,incomplete,30,number,1,right,Green_Circle_Grid_1.jpg,Red_Plus_Grid_3.jpg,Purple_Star_Dots_1.jpg,right,584,true,NA,NA,NA,NA,NA,NA,NA,NA,true
TCnIYw2a,3b6f54kms5pu5knddy3sw9ki4gws13,3oonkj5dkgwi7ab6zgka70jhcovbox,TCnIYw2a,2020-0188,2020-05-07,17:47:23,18:08:37,NA,incomplete,31,number,1,right,Blue_Triangle_Chess_1.jpg,Green_Star_Chess_2.jpg,Purple_Plus_Grid_1.jpg,right,602,true,NA,NA,NA,NA,NA,NA,NA,NA,true
TCnIYw2a,3b6f54kms5pu5knddy3sw9ki4gws13,3oonkj5dkgwi7ab6zgka70jhcovbox,TCnIYw2a,2020-0188,2020-05-07,17:47:23,18:08:37,NA,incomplete,32,number,1,right,Purple_Plus_Stripes_4.jpg,Green_Circle_Stripes_2.jpg,Red_Triangle_Dots_4.jpg,right,678,true,NA,NA,NA,NA,NA,NA,NA,NA,true
TCnIYw2a,3b6f54kms5pu5knddy3sw9ki4gws13,3oonkj5dkgwi7ab6zgka70jhcovbox,TCnIYw2a,2020-0188,2020-05-07,17:47:23,18:08:37,NA,incomplete,33,number,1,right,Blue_Circle_Chess_3.jpg,Red_Star_Chess_4.jpg,Purple_Triangle_Dots_3.jpg,right,635,true,NA,NA,NA,NA,NA,NA,NA,NA,true
TCnIYw2a,3b6f54kms5pu5knddy3sw9ki4gws13,3oonkj5dkgwi7ab6zgka70jhcovbox,TCnIYw2a,2020-0188,2020-05-07,17:47:23,18:08:37,NA,incomplete,34,number,1,right,Red_Circle_Chess_4.jpg,Blue_Plus_Chess_2.jpg,Green_Star_Stripes_4.jpg,right,603,true,NA,NA,NA,NA,NA,NA,NA,NA,true
TCnIYw2a,3b6f54kms5pu5knddy3sw9ki4gws13,3oonkj5dkgwi7ab6zgka70jhcovbox,TCnIYw2a,2020-0188,2020-05-07,17:47:23,18:08:37,NA,incomplete,35,number,0,right,Purple_Plus_Stripes_4.jpg,Blue_Star_Stripes_1.jpg,Red_Circle_Dots_4.jpg,right,533,true,NA,NA,NA,NA,NA,NA,NA,NA,true
TCnIYw2a,3b6f54kms5pu5knddy3sw9ki4gws13,3oonkj5dkgwi7ab6zgka70jhcovbox,TCnIYw2a,2020-0188,2020-05-07,17:47:23,18:08:37,NA,incomplete,36,number,1,left,Red_Plus_Grid_2.jpg,Green_Star_Dots_2.jpg,Purple_Circle_Grid_4.jpg,left,570,true,NA,NA,NA,NA,NA,NA,NA,NA,true
TCnIYw2a,3b6f54kms5pu5knddy3sw9ki4gws13,3oonkj5dkgwi7ab6zgka70jhcovbox,TCnIYw2a,2020-0188,2020-05-07,17:47:23,18:08:37,NA,incomplete,37,number,1,left,Blue_Plus_Chess_2.jpg,Red_Triangle_Dots_2.jpg,Purple_Circle_Chess_3.jpg,left,708,true,NA,NA,NA,NA,NA,NA,NA,NA,true
TCnIYw2a,3b6f54kms5pu5knddy3sw9ki4gws13,3oonkj5dkgwi7ab6zgka70jhcovbox,TCnIYw2a,2020-0188,2020-05-07,17:47:23,18:08:37,NA,incomplete,38,number,1,left,Purple_Circle_Grid_2.jpg,Green_Plus_Dots_2.jpg,Red_Star_Grid_4.jpg,left,610,true,NA,NA,NA,NA,NA,NA,NA,NA,true
TCnIYw2a,3b6f54kms5pu5knddy3sw9ki4gws13,3oonkj5dkgwi7ab6zgka70jhcovbox,TCnIYw2a,2020-0188,2020-05-07,17:47:23,18:08:37,NA,incomplete,39,number,1,left,Blue_Triangle_Stripes_2.jpg,Purple_Plus_Dots_2.jpg,Red_Circle_Stripes_4.jpg,left,642,true,NA,NA,NA,NA,NA,NA,NA,NA,true
TCnIYw2a,3b6f54kms5pu5knddy3sw9ki4gws13,3oonkj5dkgwi7ab6zgka70jhcovbox,TCnIYw2a,2020-0188,2020-05-07,17:47:23,18:08:37,NA,incomplete,0,filling,1,left,Green_Star_Dots_4.jpg,Red_Plus_Dots_3.jpg,Purple_Triangle_Chess_4.jpg,left,1063,true,low,NA,NA,NA,NA,NA,NA,NA,false
TCnIYw2a,3b6f54kms5pu5knddy3sw9ki4gws13,3oonkj5dkgwi7ab6zgka70jhcovbox,TCnIYw2a,2020-0188,2020-05-07,17:47:23,18:08:37,NA,incomplete,1,filling,1,right,Red_Triangle_Dots_1.jpg,Green_Circle_Stripes_1.jpg,Blue_Star_Dots_4.jpg,right,886,true,low,NA,NA,NA,NA,NA,NA,NA,false
TCnIYw2a,3b6f54kms5pu5knddy3sw9ki4gws13,3oonkj5dkgwi7ab6zgka70jhcovbox,TCnIYw2a,2020-0188,2020-05-07,17:47:23,18:08:37,NA,incomplete,2,filling,0,left,Red_Triangle_Stripes_1.jpg,Blue_Plus_Stripes_4.jpg,Purple_Star_Grid_1.jpg,left,756,true,low,NA,NA,NA,NA,NA,NA,NA,false
TCnIYw2a,3b6f54kms5pu5knddy3sw9ki4gws13,3oonkj5dkgwi7ab6zgka70jhcovbox,TCnIYw2a,2020-0188,2020-05-07,17:47:23,18:08:37,NA,incomplete,3,filling,1,left,Purple_Star_Grid_3.jpg,Red_Triangle_Grid_4.jpg,Green_Circle_Stripes_3.jpg,left,936,true,low,NA,NA,NA,NA,NA,NA,NA,false
TCnIYw2a,3b6f54kms5pu5knddy3sw9ki4gws13,3oonkj5dkgwi7ab6zgka70jhcovbox,TCnIYw2a,2020-0188,2020-05-07,17:47:23,18:08:37,NA,incomplete,4,filling,1,left,Purple_Triangle_Chess_4.jpg,Red_Plus_Chess_1.jpg,Blue_Star_Grid_4.jpg,left,866,true,low,NA,NA,NA,NA,NA,NA,NA,false
TCnIYw2a,3b6f54kms5pu5knddy3sw9ki4gws13,3oonkj5dkgwi7ab6zgka70jhcovbox,TCnIYw2a,2020-0188,2020-05-07,17:47:23,18:08:37,NA,incomplete,5,filling,0,left,Purple_Star_Dots_1.jpg,Green_Triangle_Dots_2.jpg,Red_Circle_Chess_1.jpg,left,642,true,low,NA,NA,NA,NA,NA,NA,NA,false
TCnIYw2a,3b6f54kms5pu5knddy3sw9ki4gws13,3oonkj5dkgwi7ab6zgka70jhcovbox,TCnIYw2a,2020-0188,2020-05-07,17:47:23,18:08:37,NA,incomplete,6,filling,1,left,Purple_Plus_Grid_3.jpg,Green_Triangle_Grid_2.jpg,Red_Star_Dots_3.jpg,left,825,true,low,NA,NA,NA,NA,NA,NA,NA,false
TCnIYw2a,3b6f54kms5pu5knddy3sw9ki4gws13,3oonkj5dkgwi7ab6zgka70jhcovbox,TCnIYw2a,2020-0188,2020-05-07,17:47:23,18:08:37,NA,incomplete,7,filling,1,left,Green_Triangle_Dots_4.jpg,Red_Star_Dots_2.jpg,Blue_Circle_Chess_4.jpg,left,746,true,low,NA,NA,NA,NA,NA,NA,NA,false
TCnIYw2a,3b6f54kms5pu5knddy3sw9ki4gws13,3oonkj5dkgwi7ab6zgka70jhcovbox,TCnIYw2a,2020-0188,2020-05-07,17:47:23,18:08:37,NA,incomplete,8,filling,1,left,Blue_Circle_Stripes_2.jpg,Purple_Star_Stripes_1.jpg,Green_Plus_Grid_2.jpg,left,782,true,low,NA,NA,NA,NA,NA,NA,NA,false
TCnIYw2a,3b6f54kms5pu5knddy3sw9ki4gws13,3oonkj5dkgwi7ab6zgka70jhcovbox,TCnIYw2a,2020-0188,2020-05-07,17:47:23,18:08:37,NA,incomplete,9,filling,1,left,Purple_Plus_Chess_2.jpg,Green_Circle_Chess_1.jpg,Blue_Star_Stripes_2.jpg,left,785,true,low,NA,NA,NA,NA,NA,NA,NA,false
TCnIYw2a,3b6f54kms5pu5knddy3sw9ki4gws13,3oonkj5dkgwi7ab6zgka70jhcovbox,TCnIYw2a,2020-0188,2020-05-07,17:47:23,18:08:37,NA,incomplete,10,filling,1,left,Purple_Triangle_Dots_3.jpg,Green_Circle_Dots_1.jpg,Red_Star_Chess_3.jpg,left,779,true,low,NA,NA,NA,NA,NA,NA,NA,false
TCnIYw2a,3b6f54kms5pu5knddy3sw9ki4gws13,3oonkj5dkgwi7ab6zgka70jhcovbox,TCnIYw2a,2020-0188,2020-05-07,17:47:23,18:08:37,NA,incomplete,11,filling,1,right,Red_Plus_Grid_4.jpg,Green_Triangle_Chess_4.jpg,Purple_Star_Grid_3.jpg,right,1013,true,low,NA,NA,NA,NA,NA,NA,NA,false
TCnIYw2a,3b6f54kms5pu5knddy3sw9ki4gws13,3oonkj5dkgwi7ab6zgka70jhcovbox,TCnIYw2a,2020-0188,2020-05-07,17:47:23,18:08:37,NA,incomplete,12,filling,1,left,Blue_Triangle_Dots_4.jpg,Red_Star_Dots_1.jpg,Green_Plus_Stripes_4.jpg,left,798,true,low,NA,NA,NA,NA,NA,NA,NA,false
TCnIYw2a,3b6f54kms5pu5knddy3sw9ki4gws13,3oonkj5dkgwi7ab6zgka70jhcovbox,TCnIYw2a,2020-0188,2020-05-07,17:47:23,18:08:37,NA,incomplete,13,filling,1,left,Red_Triangle_Chess_1.jpg,Green_Circle_Chess_3.jpg,Blue_Plus_Stripes_1.jpg,left,840,true,low,NA,NA,NA,NA,NA,NA,NA,false
TCnIYw2a,3b6f54kms5pu5knddy3sw9ki4gws13,3oonkj5dkgwi7ab6zgka70jhcovbox,TCnIYw2a,2020-0188,2020-05-07,17:47:23,18:08:37,NA,incomplete,14,filling,1,right,Red_Star_Stripes_1.jpg,Blue_Plus_Grid_1.jpg,Purple_Triangle_Stripes_4.jpg,right,848,true,low,NA,NA,NA,NA,NA,NA,NA,false
TCnIYw2a,3b6f54kms5pu5knddy3sw9ki4gws13,3oonkj5dkgwi7ab6zgka70jhcovbox,TCnIYw2a,2020-0188,2020-05-07,17:47:23,18:08:37,NA,incomplete,15,filling,1,left,Blue_Triangle_Stripes_1.jpg,Red_Star_Stripes_3.jpg,Green_Circle_Chess_1.jpg,left,831,true,low,NA,NA,NA,NA,NA,NA,NA,false
TCnIYw2a,3b6f54kms5pu5knddy3sw9ki4gws13,3oonkj5dkgwi7ab6zgka70jhcovbox,TCnIYw2a,2020-0188,2020-05-07,17:47:23,18:08:37,NA,incomplete,16,filling,1,left,Green_Triangle_Grid_2.jpg,Purple_Plus_Grid_1.jpg,Red_Circle_Stripes_2.jpg,left,904,true,low,NA,NA,NA,NA,NA,NA,NA,false
TCnIYw2a,3b6f54kms5pu5knddy3sw9ki4gws13,3oonkj5dkgwi7ab6zgka70jhcovbox,TCnIYw2a,2020-0188,2020-05-07,17:47:23,18:08:37,NA,incomplete,17,filling,1,left,Green_Star_Dots_4.jpg,Blue_Circle_Dots_2.jpg,Red_Plus_Grid_4.jpg,left,741,true,low,NA,NA,NA,NA,NA,NA,NA,false
TCnIYw2a,3b6f54kms5pu5knddy3sw9ki4gws13,3oonkj5dkgwi7ab6zgka70jhcovbox,TCnIYw2a,2020-0188,2020-05-07,17:47:23,18:08:37,NA,incomplete,18,filling,1,left,Green_Star_Chess_2.jpg,Red_Triangle_Chess_1.jpg,Purple_Plus_Stripes_2.jpg,left,823,true,low,NA,NA,NA,NA,NA,NA,NA,false
TCnIYw2a,3b6f54kms5pu5knddy3sw9ki4gws13,3oonkj5dkgwi7ab6zgka70jhcovbox,TCnIYw2a,2020-0188,2020-05-07,17:47:23,18:08:37,NA,incomplete,19,filling,1,right,Purple_Triangle_Stripes_3.jpg,Blue_Plus_Grid_3.jpg,Red_Circle_Stripes_1.jpg,right,913,true,low,NA,NA,NA,NA,NA,NA,NA,false
TCnIYw2a,3b6f54kms5pu5knddy3sw9ki4gws13,3oonkj5dkgwi7ab6zgka70jhcovbox,TCnIYw2a,2020-0188,2020-05-07,17:47:23,18:08:37,NA,incomplete,20,filling,1,right,Blue_Star_Chess_2.jpg,Purple_Plus_Grid_2.jpg,Green_Circle_Chess_3.jpg,left,830,false,low,NA,NA,NA,NA,NA,NA,NA,false
TCnIYw2a,3b6f54kms5pu5knddy3sw9ki4gws13,3oonkj5dkgwi7ab6zgka70jhcovbox,TCnIYw2a,2020-0188,2020-05-07,17:47:23,18:08:37,NA,incomplete,21,filling,1,right,Purple_Star_Grid_2.jpg,Blue_Plus_Stripes_2.jpg,Green_Circle_Grid_3.jpg,right,901,true,low,NA,NA,NA,NA,NA,NA,NA,false
TCnIYw2a,3b6f54kms5pu5knddy3sw9ki4gws13,3oonkj5dkgwi7ab6zgka70jhcovbox,TCnIYw2a,2020-0188,2020-05-07,17:47:23,18:08:37,NA,incomplete,22,filling,0,left,Purple_Triangle_Stripes_1.jpg,Blue_Circle_Stripes_2.jpg,Red_Star_Dots_1.jpg,left,747,true,low,NA,NA,NA,NA,NA,NA,NA,false
TCnIYw2a,3b6f54kms5pu5knddy3sw9ki4gws13,3oonkj5dkgwi7ab6zgka70jhcovbox,TCnIYw2a,2020-0188,2020-05-07,17:47:23,18:08:37,NA,incomplete,23,filling,1,right,Green_Circle_Stripes_2.jpg,Red_Plus_Grid_2.jpg,Purple_Star_Stripes_4.jpg,right,784,true,low,NA,NA,NA,NA,NA,NA,NA,false
TCnIYw2a,3b6f54kms5pu5knddy3sw9ki4gws13,3oonkj5dkgwi7ab6zgka70jhcovbox,TCnIYw2a,2020-0188,2020-05-07,17:47:23,18:08:37,NA,incomplete,24,filling,0,left,Purple_Triangle_Stripes_1.jpg,Green_Star_Stripes_3.jpg,Red_Circle_Dots_1.jpg,left,737,true,low,NA,NA,NA,NA,NA,NA,NA,false
TCnIYw2a,3b6f54kms5pu5knddy3sw9ki4gws13,3oonkj5dkgwi7ab6zgka70jhcovbox,TCnIYw2a,2020-0188,2020-05-07,17:47:23,18:08:37,NA,incomplete,25,filling,1,left,Purple_Triangle_Grid_4.jpg,Blue_Plus_Grid_1.jpg,Red_Star_Stripes_4.jpg,left,853,true,low,NA,NA,NA,NA,NA,NA,NA,false
TCnIYw2a,3b6f54kms5pu5knddy3sw9ki4gws13,3oonkj5dkgwi7ab6zgka70jhcovbox,TCnIYw2a,2020-0188,2020-05-07,17:47:23,18:08:37,NA,incomplete,26,filling,1,right,Green_Circle_Stripes_3.jpg,Blue_Plus_Grid_3.jpg,Red_Star_Stripes_1.jpg,right,893,true,low,NA,NA,NA,NA,NA,NA,NA,false
TCnIYw2a,3b6f54kms5pu5knddy3sw9ki4gws13,3oonkj5dkgwi7ab6zgka70jhcovbox,TCnIYw2a,2020-0188,2020-05-07,17:47:23,18:08:37,NA,incomplete,27,filling,1,left,Blue_Circle_Stripes_2.jpg,Green_Star_Stripes_3.jpg,Red_Plus_Chess_2.jpg,left,754,true,low,NA,NA,NA,NA,NA,NA,NA,false
TCnIYw2a,3b6f54kms5pu5knddy3sw9ki4gws13,3oonkj5dkgwi7ab6zgka70jhcovbox,TCnIYw2a,2020-0188,2020-05-07,17:47:23,18:08:37,NA,incomplete,28,filling,0,right,Red_Plus_Dots_1.jpg,Blue_Circle_Stripes_1.jpg,Green_Star_Dots_4.jpg,right,926,true,low,NA,NA,NA,NA,NA,NA,NA,false
TCnIYw2a,3b6f54kms5pu5knddy3sw9ki4gws13,3oonkj5dkgwi7ab6zgka70jhcovbox,TCnIYw2a,2020-0188,2020-05-07,17:47:23,18:08:37,NA,incomplete,29,filling,1,right,Red_Circle_Stripes_3.jpg,Blue_Star_Grid_3.jpg,Green_Triangle_Stripes_2.jpg,right,970,true,low,NA,NA,NA,NA,NA,NA,NA,false
TCnIYw2a,3b6f54kms5pu5knddy3sw9ki4gws13,3oonkj5dkgwi7ab6zgka70jhcovbox,TCnIYw2a,2020-0188,2020-05-07,17:47:23,18:08:37,NA,incomplete,30,number,1,right,Purple_Star_Stripes_1.jpg,Green_Triangle_Stripes_4.jpg,Red_Plus_Grid_1.jpg,left,724,false,low,NA,NA,NA,NA,NA,NA,NA,false
TCnIYw2a,3b6f54kms5pu5knddy3sw9ki4gws13,3oonkj5dkgwi7ab6zgka70jhcovbox,TCnIYw2a,2020-0188,2020-05-07,17:47:23,18:08:37,NA,incomplete,31,number,0,right,Green_Circle_Dots_1.jpg,Purple_Triangle_Dots_3.jpg,Blue_Star_Grid_1.jpg,left,792,false,low,NA,NA,NA,NA,NA,NA,NA,false
TCnIYw2a,3b6f54kms5pu5knddy3sw9ki4gws13,3oonkj5dkgwi7ab6zgka70jhcovbox,TCnIYw2a,2020-0188,2020-05-07,17:47:23,18:08:37,NA,incomplete,32,number,1,right,Red_Circle_Dots_4.jpg,Green_Triangle_Dots_2.jpg,Purple_Star_Stripes_4.jpg,left,770,false,low,NA,NA,NA,NA,NA,NA,NA,false
TCnIYw2a,3b6f54kms5pu5knddy3sw9ki4gws13,3oonkj5dkgwi7ab6zgka70jhcovbox,TCnIYw2a,2020-0188,2020-05-07,17:47:23,18:08:37,NA,incomplete,33,number,0,right,Purple_Plus_Stripes_2.jpg,Red_Star_Stripes_1.jpg,Green_Triangle_Dots_2.jpg,right,653,true,low,NA,NA,NA,NA,NA,NA,NA,false
TCnIYw2a,3b6f54kms5pu5knddy3sw9ki4gws13,3oonkj5dkgwi7ab6zgka70jhcovbox,TCnIYw2a,2020-0188,2020-05-07,17:47:23,18:08:37,NA,incomplete,34,number,0,left,Green_Plus_Stripes_3.jpg,Purple_Triangle_Grid_3.jpg,Blue_Star_Stripes_4.jpg,left,749,true,low,NA,NA,NA,NA,NA,NA,NA,false
TCnIYw2a,3b6f54kms5pu5knddy3sw9ki4gws13,3oonkj5dkgwi7ab6zgka70jhcovbox,TCnIYw2a,2020-0188,2020-05-07,17:47:23,18:08:37,NA,incomplete,35,number,1,left,Green_Circle_Dots_4.jpg,Blue_Star_Chess_4.jpg,Purple_Plus_Dots_2.jpg,right,791,false,low,NA,NA,NA,NA,NA,NA,NA,false
TCnIYw2a,3b6f54kms5pu5knddy3sw9ki4gws13,3oonkj5dkgwi7ab6zgka70jhcovbox,TCnIYw2a,2020-0188,2020-05-07,17:47:23,18:08:37,NA,incomplete,36,number,1,right,Purple_Triangle_Stripes_2.jpg,Green_Plus_Stripes_1.jpg,Blue_Star_Chess_2.jpg,left,977,false,low,NA,NA,NA,NA,NA,NA,NA,false
TCnIYw2a,3b6f54kms5pu5knddy3sw9ki4gws13,3oonkj5dkgwi7ab6zgka70jhcovbox,TCnIYw2a,2020-0188,2020-05-07,17:47:23,18:08:37,NA,incomplete,37,number,1,left,Purple_Triangle_Stripes_2.jpg,Red_Plus_Chess_2.jpg,Green_Circle_Stripes_4.jpg,left,653,true,low,NA,NA,NA,NA,NA,NA,NA,false
TCnIYw2a,3b6f54kms5pu5knddy3sw9ki4gws13,3oonkj5dkgwi7ab6zgka70jhcovbox,TCnIYw2a,2020-0188,2020-05-07,17:47:23,18:08:37,NA,incomplete,38,number,1,right,Red_Triangle_Stripes_3.jpg,Purple_Plus_Stripes_1.jpg,Blue_Circle_Grid_3.jpg,right,619,true,low,NA,NA,NA,NA,NA,NA,NA,false
TCnIYw2a,3b6f54kms5pu5knddy3sw9ki4gws13,3oonkj5dkgwi7ab6zgka70jhcovbox,TCnIYw2a,2020-0188,2020-05-07,17:47:23,18:08:37,NA,incomplete,39,number,0,right,Purple_Triangle_Dots_2.jpg,Red_Circle_Dots_1.jpg,Green_Star_Grid_2.jpg,right,709,true,low,NA,NA,NA,NA,NA,NA,NA,false
TCnIYw2a,3b6f54kms5pu5knddy3sw9ki4gws13,3oonkj5dkgwi7ab6zgka70jhcovbox,TCnIYw2a,2020-0188,2020-05-07,17:47:23,18:08:37,NA,incomplete,40,number,1,left,Purple_Star_Grid_1.jpg,Red_Circle_Stripes_1.jpg,Green_Plus_Grid_3.jpg,left,592,true,low,NA,NA,NA,NA,NA,NA,NA,false
TCnIYw2a,3b6f54kms5pu5knddy3sw9ki4gws13,3oonkj5dkgwi7ab6zgka70jhcovbox,TCnIYw2a,2020-0188,2020-05-07,17:47:23,18:08:37,NA,incomplete,41,number,1,left,Purple_Triangle_Chess_1.jpg,Blue_Circle_Grid_1.jpg,Red_Star_Chess_2.jpg,left,645,true,low,NA,NA,NA,NA,NA,NA,NA,false
TCnIYw2a,3b6f54kms5pu5knddy3sw9ki4gws13,3oonkj5dkgwi7ab6zgka70jhcovbox,TCnIYw2a,2020-0188,2020-05-07,17:47:23,18:08:37,NA,incomplete,42,number,1,left,Green_Star_Dots_2.jpg,Purple_Triangle_Grid_2.jpg,Blue_Plus_Dots_3.jpg,left,773,true,low,NA,NA,NA,NA,NA,NA,NA,false
TCnIYw2a,3b6f54kms5pu5knddy3sw9ki4gws13,3oonkj5dkgwi7ab6zgka70jhcovbox,TCnIYw2a,2020-0188,2020-05-07,17:47:23,18:08:37,NA,incomplete,43,number,1,left,Purple_Circle_Dots_3.jpg,Blue_Triangle_Stripes_3.jpg,Red_Plus_Dots_4.jpg,left,630,true,low,NA,NA,NA,NA,NA,NA,NA,false
TCnIYw2a,3b6f54kms5pu5knddy3sw9ki4gws13,3oonkj5dkgwi7ab6zgka70jhcovbox,TCnIYw2a,2020-0188,2020-05-07,17:47:23,18:08:37,NA,incomplete,44,number,1,left,Purple_Circle_Stripes_3.jpg,Green_Triangle_Grid_3.jpg,Red_Plus_Stripes_2.jpg,left,519,true,low,NA,NA,NA,NA,NA,NA,NA,false
TCnIYw2a,3b6f54kms5pu5knddy3sw9ki4gws13,3oonkj5dkgwi7ab6zgka70jhcovbox,TCnIYw2a,2020-0188,2020-05-07,17:47:23,18:08:37,NA,incomplete,45,number,1,right,Purple_Plus_Grid_2.jpg,Red_Triangle_Grid_3.jpg,Blue_Star_Dots_2.jpg,right,595,true,low,NA,NA,NA,NA,NA,NA,NA,false
TCnIYw2a,3b6f54kms5pu5knddy3sw9ki4gws13,3oonkj5dkgwi7ab6zgka70jhcovbox,TCnIYw2a,2020-0188,2020-05-07,17:47:23,18:08:37,NA,incomplete,46,number,1,left,Red_Plus_Chess_4.jpg,Green_Triangle_Stripes_4.jpg,Purple_Circle_Chess_1.jpg,left,614,true,low,NA,NA,NA,NA,NA,NA,NA,false
TCnIYw2a,3b6f54kms5pu5knddy3sw9ki4gws13,3oonkj5dkgwi7ab6zgka70jhcovbox,TCnIYw2a,2020-0188,2020-05-07,17:47:23,18:08:37,NA,incomplete,47,number,1,left,Green_Star_Dots_2.jpg,Blue_Triangle_Grid_2.jpg,Purple_Plus_Dots_3.jpg,left,647,true,low,NA,NA,NA,NA,NA,NA,NA,false
TCnIYw2a,3b6f54kms5pu5knddy3sw9ki4gws13,3oonkj5dkgwi7ab6zgka70jhcovbox,TCnIYw2a,2020-0188,2020-05-07,17:47:23,18:08:37,NA,incomplete,48,number,1,left,Red_Star_Stripes_2.jpg,Green_Circle_Grid_2.jpg,Purple_Triangle_Stripes_1.jpg,left,694,true,low,NA,NA,NA,NA,NA,NA,NA,false
TCnIYw2a,3b6f54kms5pu5knddy3sw9ki4gws13,3oonkj5dkgwi7ab6zgka70jhcovbox,TCnIYw2a,2020-0188,2020-05-07,17:47:23,18:08:37,NA,incomplete,49,number,1,right,Red_Star_Grid_1.jpg,Purple_Plus_Grid_4.jpg,Blue_Triangle_Chess_1.jpg,right,629,true,low,NA,NA,NA,NA,NA,NA,NA,false
TCnIYw2a,3b6f54kms5pu5knddy3sw9ki4gws13,3oonkj5dkgwi7ab6zgka70jhcovbox,TCnIYw2a,2020-0188,2020-05-07,17:47:23,18:08:37,NA,incomplete,50,number,1,right,Purple_Circle_Dots_3.jpg,Blue_Triangle_Dots_2.jpg,Red_Star_Chess_3.jpg,right,573,true,low,NA,NA,NA,NA,NA,NA,NA,false
TCnIYw2a,3b6f54kms5pu5knddy3sw9ki4gws13,3oonkj5dkgwi7ab6zgka70jhcovbox,TCnIYw2a,2020-0188,2020-05-07,17:47:23,18:08:37,NA,incomplete,51,number,0,left,Green_Plus_Dots_3.jpg,Blue_Circle_Chess_3.jpg,Red_Triangle_Dots_4.jpg,left,649,true,low,NA,NA,NA,NA,NA,NA,NA,false
TCnIYw2a,3b6f54kms5pu5knddy3sw9ki4gws13,3oonkj5dkgwi7ab6zgka70jhcovbox,TCnIYw2a,2020-0188,2020-05-07,17:47:23,18:08:37,NA,incomplete,52,number,1,left,Green_Triangle_Stripes_4.jpg,Purple_Star_Grid_4.jpg,Blue_Circle_Stripes_1.jpg,left,593,true,low,NA,NA,NA,NA,NA,NA,NA,false
TCnIYw2a,3b6f54kms5pu5knddy3sw9ki4gws13,3oonkj5dkgwi7ab6zgka70jhcovbox,TCnIYw2a,2020-0188,2020-05-07,17:47:23,18:08:37,NA,incomplete,53,number,1,right,Red_Star_Stripes_3.jpg,Purple_Triangle_Stripes_1.jpg,Green_Plus_Dots_3.jpg,right,579,true,low,NA,NA,NA,NA,NA,NA,NA,false
TCnIYw2a,3b6f54kms5pu5knddy3sw9ki4gws13,3oonkj5dkgwi7ab6zgka70jhcovbox,TCnIYw2a,2020-0188,2020-05-07,17:47:23,18:08:37,NA,incomplete,54,number,1,left,Purple_Plus_Stripes_2.jpg,Blue_Circle_Chess_2.jpg,Green_Triangle_Stripes_3.jpg,left,661,true,low,NA,NA,NA,NA,NA,NA,NA,false
TCnIYw2a,3b6f54kms5pu5knddy3sw9ki4gws13,3oonkj5dkgwi7ab6zgka70jhcovbox,TCnIYw2a,2020-0188,2020-05-07,17:47:23,18:08:37,NA,incomplete,55,number,1,left,Blue_Plus_Dots_1.jpg,Purple_Triangle_Chess_1.jpg,Green_Star_Dots_3.jpg,left,652,true,low,NA,NA,NA,NA,NA,NA,NA,false
TCnIYw2a,3b6f54kms5pu5knddy3sw9ki4gws13,3oonkj5dkgwi7ab6zgka70jhcovbox,TCnIYw2a,2020-0188,2020-05-07,17:47:23,18:08:37,NA,incomplete,56,number,0,right,Blue_Plus_Dots_4.jpg,Green_Circle_Dots_1.jpg,Red_Triangle_Stripes_4.jpg,right,595,true,low,NA,NA,NA,NA,NA,NA,NA,false
TCnIYw2a,3b6f54kms5pu5knddy3sw9ki4gws13,3oonkj5dkgwi7ab6zgka70jhcovbox,TCnIYw2a,2020-0188,2020-05-07,17:47:23,18:08:37,NA,incomplete,57,number,1,left,Green_Star_Chess_2.jpg,Purple_Circle_Grid_2.jpg,Blue_Plus_Chess_1.jpg,left,670,true,low,NA,NA,NA,NA,NA,NA,NA,false
TCnIYw2a,3b6f54kms5pu5knddy3sw9ki4gws13,3oonkj5dkgwi7ab6zgka70jhcovbox,TCnIYw2a,2020-0188,2020-05-07,17:47:23,18:08:37,NA,incomplete,58,number,0,right,Green_Star_Chess_2.jpg,Purple_Plus_Chess_3.jpg,Red_Triangle_Dots_2.jpg,right,621,true,low,NA,NA,NA,NA,NA,NA,NA,false
TCnIYw2a,3b6f54kms5pu5knddy3sw9ki4gws13,3oonkj5dkgwi7ab6zgka70jhcovbox,TCnIYw2a,2020-0188,2020-05-07,17:47:23,18:08:37,NA,incomplete,59,number,1,right,Blue_Circle_Stripes_2.jpg,Green_Star_Stripes_4.jpg,Red_Triangle_Chess_2.jpg,right,654,true,low,NA,NA,NA,NA,NA,NA,NA,false
TCnIYw2a,3b6f54kms5pu5knddy3sw9ki4gws13,3oonkj5dkgwi7ab6zgka70jhcovbox,TCnIYw2a,2020-0188,2020-05-07,17:47:23,18:08:37,NA,incomplete,60,filling,1,left,Red_Plus_Stripes_4.jpg,Blue_Star_Stripes_1.jpg,Green_Circle_Chess_4.jpg,right,788,false,low,NA,NA,NA,NA,NA,NA,NA,false
TCnIYw2a,3b6f54kms5pu5knddy3sw9ki4gws13,3oonkj5dkgwi7ab6zgka70jhcovbox,TCnIYw2a,2020-0188,2020-05-07,17:47:23,18:08:37,NA,incomplete,61,filling,1,left,Green_Star_Stripes_2.jpg,Red_Triangle_Stripes_1.jpg,Blue_Circle_Dots_2.jpg,right,679,false,low,NA,NA,NA,NA,NA,NA,NA,false
TCnIYw2a,3b6f54kms5pu5knddy3sw9ki4gws13,3oonkj5dkgwi7ab6zgka70jhcovbox,TCnIYw2a,2020-0188,2020-05-07,17:47:23,18:08:37,NA,incomplete,62,filling,1,left,Green_Plus_Dots_4.jpg,Purple_Star_Dots_1.jpg,Red_Triangle_Stripes_4.jpg,left,805,true,low,NA,NA,NA,NA,NA,NA,NA,false
TCnIYw2a,3b6f54kms5pu5knddy3sw9ki4gws13,3oonkj5dkgwi7ab6zgka70jhcovbox,TCnIYw2a,2020-0188,2020-05-07,17:47:23,18:08:37,NA,incomplete,63,filling,1,right,Blue_Plus_Chess_1.jpg,Purple_Star_Dots_1.jpg,Green_Circle_Chess_2.jpg,right,1021,true,low,NA,NA,NA,NA,NA,NA,NA,false
TCnIYw2a,3b6f54kms5pu5knddy3sw9ki4gws13,3oonkj5dkgwi7ab6zgka70jhcovbox,TCnIYw2a,2020-0188,2020-05-07,17:47:23,18:08:37,NA,incomplete,64,filling,1,left,Red_Circle_Chess_3.jpg,Green_Plus_Chess_2.jpg,Blue_Star_Grid_3.jpg,left,886,true,low,NA,NA,NA,NA,NA,NA,NA,false
TCnIYw2a,3b6f54kms5pu5knddy3sw9ki4gws13,3oonkj5dkgwi7ab6zgka70jhcovbox,TCnIYw2a,2020-0188,2020-05-07,17:47:23,18:08:37,NA,incomplete,65,filling,1,left,Blue_Circle_Stripes_2.jpg,Green_Star_Stripes_3.jpg,Red_Triangle_Dots_2.jpg,left,700,true,low,NA,NA,NA,NA,NA,NA,NA,false
TCnIYw2a,3b6f54kms5pu5knddy3sw9ki4gws13,3oonkj5dkgwi7ab6zgka70jhcovbox,TCnIYw2a,2020-0188,2020-05-07,17:47:23,18:08:37,NA,incomplete,66,filling,1,right,Blue_Triangle_Chess_4.jpg,Purple_Star_Stripes_4.jpg,Red_Circle_Chess_3.jpg,right,818,true,low,NA,NA,NA,NA,NA,NA,NA,false
TCnIYw2a,3b6f54kms5pu5knddy3sw9ki4gws13,3oonkj5dkgwi7ab6zgka70jhcovbox,TCnIYw2a,2020-0188,2020-05-07,17:47:23,18:08:37,NA,incomplete,67,filling,0,right,Red_Plus_Chess_2.jpg,Purple_Triangle_Stripes_2.jpg,Green_Circle_Chess_1.jpg,right,859,true,low,NA,NA,NA,NA,NA,NA,NA,false
TCnIYw2a,3b6f54kms5pu5knddy3sw9ki4gws13,3oonkj5dkgwi7ab6zgka70jhcovbox,TCnIYw2a,2020-0188,2020-05-07,17:47:23,18:08:37,NA,incomplete,68,filling,1,left,Green_Circle_Grid_2.jpg,Red_Plus_Grid_4.jpg,Blue_Star_Chess_2.jpg,left,801,true,low,NA,NA,NA,NA,NA,NA,NA,false
TCnIYw2a,3b6f54kms5pu5knddy3sw9ki4gws13,3oonkj5dkgwi7ab6zgka70jhcovbox,TCnIYw2a,2020-0188,2020-05-07,17:47:23,18:08:37,NA,incomplete,69,filling,1,left,Green_Plus_Dots_4.jpg,Purple_Triangle_Dots_1.jpg,Red_Star_Stripes_4.jpg,left,771,true,low,NA,NA,NA,NA,NA,NA,NA,false
TCnIYw2a,3b6f54kms5pu5knddy3sw9ki4gws13,3oonkj5dkgwi7ab6zgka70jhcovbox,TCnIYw2a,2020-0188,2020-05-07,17:47:23,18:08:37,NA,incomplete,70,filling,1,left,Red_Plus_Grid_4.jpg,Purple_Star_Grid_2.jpg,Blue_Triangle_Dots_4.jpg,left,766,true,low,NA,NA,NA,NA,NA,NA,NA,false
TCnIYw2a,3b6f54kms5pu5knddy3sw9ki4gws13,3oonkj5dkgwi7ab6zgka70jhcovbox,TCnIYw2a,2020-0188,2020-05-07,17:47:23,18:08:37,NA,incomplete,71,filling,1,left,Blue_Star_Chess_2.jpg,Green_Plus_Chess_1.jpg,Red_Triangle_Grid_2.jpg,left,832,true,low,NA,NA,NA,NA,NA,NA,NA,false
TCnIYw2a,3b6f54kms5pu5knddy3sw9ki4gws13,3oonkj5dkgwi7ab6zgka70jhcovbox,TCnIYw2a,2020-0188,2020-05-07,17:47:23,18:08:37,NA,incomplete,72,filling,1,left,Green_Circle_Dots_1.jpg,Purple_Triangle_Dots_3.jpg,Red_Plus_Grid_1.jpg,left,650,true,low,NA,NA,NA,NA,NA,NA,NA,false
TCnIYw2a,3b6f54kms5pu5knddy3sw9ki4gws13,3oonkj5dkgwi7ab6zgka70jhcovbox,TCnIYw2a,2020-0188,2020-05-07,17:47:23,18:08:37,NA,incomplete,73,filling,1,left,Blue_Circle_Grid_3.jpg,Red_Star_Grid_2.jpg,Green_Plus_Chess_3.jpg,left,881,true,low,NA,NA,NA,NA,NA,NA,NA,false
TCnIYw2a,3b6f54kms5pu5knddy3sw9ki4gws13,3oonkj5dkgwi7ab6zgka70jhcovbox,TCnIYw2a,2020-0188,2020-05-07,17:47:23,18:08:37,NA,incomplete,74,filling,1,right,Purple_Triangle_Dots_4.jpg,Red_Plus_Grid_4.jpg,Blue_Star_Dots_1.jpg,right,848,true,low,NA,NA,NA,NA,NA,NA,NA,false
TCnIYw2a,3b6f54kms5pu5knddy3sw9ki4gws13,3oonkj5dkgwi7ab6zgka70jhcovbox,TCnIYw2a,2020-0188,2020-05-07,17:47:23,18:08:37,NA,incomplete,75,filling,1,right,Purple_Plus_Chess_3.jpg,Blue_Circle_Grid_3.jpg,Green_Triangle_Chess_1.jpg,right,887,true,low,NA,NA,NA,NA,NA,NA,NA,false
TCnIYw2a,3b6f54kms5pu5knddy3sw9ki4gws13,3oonkj5dkgwi7ab6zgka70jhcovbox,TCnIYw2a,2020-0188,2020-05-07,17:47:23,18:08:37,NA,incomplete,76,filling,1,right,Green_Plus_Stripes_4.jpg,Purple_Circle_Chess_4.jpg,Blue_Triangle_Stripes_2.jpg,right,885,true,low,NA,NA,NA,NA,NA,NA,NA,false
TCnIYw2a,3b6f54kms5pu5knddy3sw9ki4gws13,3oonkj5dkgwi7ab6zgka70jhcovbox,TCnIYw2a,2020-0188,2020-05-07,17:47:23,18:08:37,NA,incomplete,77,filling,1,left,Red_Star_Chess_1.jpg,Green_Circle_Chess_4.jpg,Purple_Triangle_Grid_1.jpg,left,834,true,low,NA,NA,NA,NA,NA,NA,NA,false
TCnIYw2a,3b6f54kms5pu5knddy3sw9ki4gws13,3oonkj5dkgwi7ab6zgka70jhcovbox,TCnIYw2a,2020-0188,2020-05-07,17:47:23,18:08:37,NA,incomplete,78,filling,1,right,Green_Circle_Stripes_1.jpg,Red_Star_Chess_1.jpg,Blue_Triangle_Stripes_4.jpg,right,738,true,low,NA,NA,NA,NA,NA,NA,NA,false
TCnIYw2a,3b6f54kms5pu5knddy3sw9ki4gws13,3oonkj5dkgwi7ab6zgka70jhcovbox,TCnIYw2a,2020-0188,2020-05-07,17:47:23,18:08:37,NA,incomplete,79,filling,1,left,Blue_Circle_Chess_2.jpg,Green_Triangle_Chess_3.jpg,Red_Plus_Grid_2.jpg,left,742,true,low,NA,NA,NA,NA,NA,NA,NA,false
TCnIYw2a,3b6f54kms5pu5knddy3sw9ki4gws13,3oonkj5dkgwi7ab6zgka70jhcovbox,TCnIYw2a,2020-0188,2020-05-07,17:47:23,18:08:37,NA,incomplete,80,filling,0,right,Blue_Star_Grid_1.jpg,Red_Triangle_Chess_1.jpg,Green_Circle_Grid_3.jpg,right,945,true,low,NA,NA,NA,NA,NA,NA,NA,false
TCnIYw2a,3b6f54kms5pu5knddy3sw9ki4gws13,3oonkj5dkgwi7ab6zgka70jhcovbox,TCnIYw2a,2020-0188,2020-05-07,17:47:23,18:08:37,NA,incomplete,81,filling,1,right,Blue_Circle_Chess_4.jpg,Green_Triangle_Stripes_4.jpg,Red_Plus_Chess_2.jpg,right,853,true,low,NA,NA,NA,NA,NA,NA,NA,false
TCnIYw2a,3b6f54kms5pu5knddy3sw9ki4gws13,3oonkj5dkgwi7ab6zgka70jhcovbox,TCnIYw2a,2020-0188,2020-05-07,17:47:23,18:08:37,NA,incomplete,82,filling,1,left,Red_Triangle_Dots_1.jpg,Purple_Plus_Dots_4.jpg,Green_Star_Chess_1.jpg,left,804,true,low,NA,NA,NA,NA,NA,NA,NA,false
TCnIYw2a,3b6f54kms5pu5knddy3sw9ki4gws13,3oonkj5dkgwi7ab6zgka70jhcovbox,TCnIYw2a,2020-0188,2020-05-07,17:47:23,18:08:37,NA,incomplete,83,filling,1,right,Red_Star_Dots_1.jpg,Purple_Circle_Chess_1.jpg,Green_Triangle_Dots_2.jpg,right,709,true,low,NA,NA,NA,NA,NA,NA,NA,false
TCnIYw2a,3b6f54kms5pu5knddy3sw9ki4gws13,3oonkj5dkgwi7ab6zgka70jhcovbox,TCnIYw2a,2020-0188,2020-05-07,17:47:23,18:08:37,NA,incomplete,84,filling,1,right,Red_Circle_Stripes_1.jpg,Blue_Triangle_Grid_1.jpg,Purple_Plus_Stripes_2.jpg,right,851,true,low,NA,NA,NA,NA,NA,NA,NA,false
TCnIYw2a,3b6f54kms5pu5knddy3sw9ki4gws13,3oonkj5dkgwi7ab6zgka70jhcovbox,TCnIYw2a,2020-0188,2020-05-07,17:47:23,18:08:37,NA,incomplete,85,filling,0,right,Red_Star_Stripes_3.jpg,Green_Circle_Grid_3.jpg,Blue_Plus_Stripes_1.jpg,right,818,true,low,NA,NA,NA,NA,NA,NA,NA,false
TCnIYw2a,3b6f54kms5pu5knddy3sw9ki4gws13,3oonkj5dkgwi7ab6zgka70jhcovbox,TCnIYw2a,2020-0188,2020-05-07,17:47:23,18:08:37,NA,incomplete,86,filling,1,left,Blue_Star_Grid_4.jpg,Purple_Triangle_Grid_1.jpg,Green_Plus_Stripes_4.jpg,left,900,true,low,NA,NA,NA,NA,NA,NA,NA,false
TCnIYw2a,3b6f54kms5pu5knddy3sw9ki4gws13,3oonkj5dkgwi7ab6zgka70jhcovbox,TCnIYw2a,2020-0188,2020-05-07,17:47:23,18:08:37,NA,incomplete,87,filling,1,left,Green_Star_Stripes_4.jpg,Purple_Triangle_Stripes_2.jpg,Red_Circle_Chess_4.jpg,left,857,true,low,NA,NA,NA,NA,NA,NA,NA,false
TCnIYw2a,3b6f54kms5pu5knddy3sw9ki4gws13,3oonkj5dkgwi7ab6zgka70jhcovbox,TCnIYw2a,2020-0188,2020-05-07,17:47:23,18:08:37,NA,incomplete,88,filling,0,right,Green_Circle_Stripes_1.jpg,Blue_Triangle_Chess_1.jpg,Purple_Star_Stripes_4.jpg,right,864,true,low,NA,NA,NA,NA,NA,NA,NA,false
TCnIYw2a,3b6f54kms5pu5knddy3sw9ki4gws13,3oonkj5dkgwi7ab6zgka70jhcovbox,TCnIYw2a,2020-0188,2020-05-07,17:47:23,18:08:37,NA,incomplete,89,filling,1,left,Purple_Circle_Grid_1.jpg,Red_Triangle_Grid_3.jpg,Green_Star_Chess_1.jpg,right,887,false,low,NA,NA,NA,NA,NA,NA,NA,false
TCnIYw2a,3b6f54kms5pu5knddy3sw9ki4gws13,3oonkj5dkgwi7ab6zgka70jhcovbox,TCnIYw2a,2020-0188,2020-05-07,17:47:23,18:08:37,NA,incomplete,90,number,1,left,Blue_Plus_Dots_2.jpg,Red_Star_Stripes_2.jpg,Green_Triangle_Dots_4.jpg,right,797,false,low,NA,NA,NA,NA,NA,NA,NA,false
TCnIYw2a,3b6f54kms5pu5knddy3sw9ki4gws13,3oonkj5dkgwi7ab6zgka70jhcovbox,TCnIYw2a,2020-0188,2020-05-07,17:47:23,18:08:37,NA,incomplete,91,number,0,left,Purple_Triangle_Stripes_3.jpg,Red_Plus_Grid_3.jpg,Green_Star_Stripes_2.jpg,left,742,true,low,NA,NA,NA,NA,NA,NA,NA,false
TCnIYw2a,3b6f54kms5pu5knddy3sw9ki4gws13,3oonkj5dkgwi7ab6zgka70jhcovbox,TCnIYw2a,2020-0188,2020-05-07,17:47:23,18:08:37,NA,incomplete,92,number,1,right,Purple_Triangle_Grid_4.jpg,Green_Circle_Grid_1.jpg,Red_Star_Dots_4.jpg,left,891,false,low,NA,NA,NA,NA,NA,NA,NA,false
TCnIYw2a,3b6f54kms5pu5knddy3sw9ki4gws13,3oonkj5dkgwi7ab6zgka70jhcovbox,TCnIYw2a,2020-0188,2020-05-07,17:47:23,18:08:37,NA,incomplete,93,number,1,right,Red_Triangle_Stripes_4.jpg,Blue_Plus_Stripes_3.jpg,Green_Circle_Grid_4.jpg,right,663,true,low,NA,NA,NA,NA,NA,NA,NA,false
TCnIYw2a,3b6f54kms5pu5knddy3sw9ki4gws13,3oonkj5dkgwi7ab6zgka70jhcovbox,TCnIYw2a,2020-0188,2020-05-07,17:47:23,18:08:37,NA,incomplete,94,number,1,right,Green_Triangle_Chess_1.jpg,Blue_Plus_Chess_4.jpg,Purple_Circle_Grid_1.jpg,right,575,true,low,NA,NA,NA,NA,NA,NA,NA,false
TCnIYw2a,3b6f54kms5pu5knddy3sw9ki4gws13,3oonkj5dkgwi7ab6zgka70jhcovbox,TCnIYw2a,2020-0188,2020-05-07,17:47:23,18:08:37,NA,incomplete,95,number,1,left,Green_Plus_Chess_2.jpg,Blue_Circle_Grid_2.jpg,Red_Triangle_Chess_4.jpg,left,658,true,low,NA,NA,NA,NA,NA,NA,NA,false
TCnIYw2a,3b6f54kms5pu5knddy3sw9ki4gws13,3oonkj5dkgwi7ab6zgka70jhcovbox,TCnIYw2a,2020-0188,2020-05-07,17:47:23,18:08:37,NA,incomplete,96,number,0,left,Blue_Plus_Stripes_2.jpg,Green_Star_Chess_2.jpg,Red_Triangle_Stripes_4.jpg,left,553,true,low,NA,NA,NA,NA,NA,NA,NA,false
TCnIYw2a,3b6f54kms5pu5knddy3sw9ki4gws13,3oonkj5dkgwi7ab6zgka70jhcovbox,TCnIYw2a,2020-0188,2020-05-07,17:47:23,18:08:37,NA,incomplete,97,number,1,left,Blue_Circle_Stripes_3.jpg,Red_Star_Chess_3.jpg,Green_Plus_Stripes_4.jpg,left,628,true,low,NA,NA,NA,NA,NA,NA,NA,false
TCnIYw2a,3b6f54kms5pu5knddy3sw9ki4gws13,3oonkj5dkgwi7ab6zgka70jhcovbox,TCnIYw2a,2020-0188,2020-05-07,17:47:23,18:08:37,NA,incomplete,98,number,0,left,Blue_Triangle_Grid_4.jpg,Purple_Circle_Dots_4.jpg,Red_Star_Grid_2.jpg,left,644,true,low,NA,NA,NA,NA,NA,NA,NA,false
TCnIYw2a,3b6f54kms5pu5knddy3sw9ki4gws13,3oonkj5dkgwi7ab6zgka70jhcovbox,TCnIYw2a,2020-0188,2020-05-07,17:47:23,18:08:37,NA,incomplete,99,number,1,left,Purple_Triangle_Dots_3.jpg,Blue_Star_Stripes_3.jpg,Red_Circle_Dots_4.jpg,left,605,true,low,NA,NA,NA,NA,NA,NA,NA,false
TCnIYw2a,3b6f54kms5pu5knddy3sw9ki4gws13,3oonkj5dkgwi7ab6zgka70jhcovbox,TCnIYw2a,2020-0188,2020-05-07,17:47:23,18:08:37,NA,incomplete,100,number,1,left,Blue_Circle_Chess_2.jpg,Green_Star_Grid_2.jpg,Red_Triangle_Chess_4.jpg,left,624,true,low,NA,NA,NA,NA,NA,NA,NA,false
TCnIYw2a,3b6f54kms5pu5knddy3sw9ki4gws13,3oonkj5dkgwi7ab6zgka70jhcovbox,TCnIYw2a,2020-0188,2020-05-07,17:47:23,18:08:37,NA,incomplete,101,number,1,right,Blue_Circle_Dots_1.jpg,Red_Triangle_Dots_4.jpg,Green_Star_Grid_1.jpg,right,664,true,low,NA,NA,NA,NA,NA,NA,NA,false
TCnIYw2a,3b6f54kms5pu5knddy3sw9ki4gws13,3oonkj5dkgwi7ab6zgka70jhcovbox,TCnIYw2a,2020-0188,2020-05-07,17:47:23,18:08:37,NA,incomplete,102,number,1,right,Green_Circle_Chess_1.jpg,Blue_Triangle_Chess_3.jpg,Red_Plus_Dots_1.jpg,right,615,true,low,NA,NA,NA,NA,NA,NA,NA,false
TCnIYw2a,3b6f54kms5pu5knddy3sw9ki4gws13,3oonkj5dkgwi7ab6zgka70jhcovbox,TCnIYw2a,2020-0188,2020-05-07,17:47:23,18:08:37,NA,incomplete,103,number,1,left,Red_Star_Dots_1.jpg,Green_Plus_Chess_1.jpg,Blue_Triangle_Dots_4.jpg,left,536,true,low,NA,NA,NA,NA,NA,NA,NA,false
TCnIYw2a,3b6f54kms5pu5knddy3sw9ki4gws13,3oonkj5dkgwi7ab6zgka70jhcovbox,TCnIYw2a,2020-0188,2020-05-07,17:47:23,18:08:37,NA,incomplete,104,number,1,left,Purple_Plus_Dots_3.jpg,Red_Circle_Grid_3.jpg,Green_Triangle_Dots_4.jpg,left,597,true,low,NA,NA,NA,NA,NA,NA,NA,false
TCnIYw2a,3b6f54kms5pu5knddy3sw9ki4gws13,3oonkj5dkgwi7ab6zgka70jhcovbox,TCnIYw2a,2020-0188,2020-05-07,17:47:23,18:08:37,NA,incomplete,105,number,1,right,Red_Star_Chess_3.jpg,Blue_Triangle_Chess_2.jpg,Purple_Plus_Grid_3.jpg,right,535,true,low,NA,NA,NA,NA,NA,NA,NA,false
TCnIYw2a,3b6f54kms5pu5knddy3sw9ki4gws13,3oonkj5dkgwi7ab6zgka70jhcovbox,TCnIYw2a,2020-0188,2020-05-07,17:47:23,18:08:37,NA,incomplete,106,number,1,left,Red_Plus_Stripes_1.jpg,Green_Triangle_Chess_1.jpg,Purple_Star_Stripes_3.jpg,left,627,true,low,NA,NA,NA,NA,NA,NA,NA,false
TCnIYw2a,3b6f54kms5pu5knddy3sw9ki4gws13,3oonkj5dkgwi7ab6zgka70jhcovbox,TCnIYw2a,2020-0188,2020-05-07,17:47:23,18:08:37,NA,incomplete,107,number,1,right,Purple_Star_Grid_1.jpg,Green_Plus_Grid_3.jpg,Red_Triangle_Stripes_1.jpg,right,588,true,low,NA,NA,NA,NA,NA,NA,NA,false
TCnIYw2a,3b6f54kms5pu5knddy3sw9ki4gws13,3oonkj5dkgwi7ab6zgka70jhcovbox,TCnIYw2a,2020-0188,2020-05-07,17:47:23,18:08:37,NA,incomplete,108,number,0,right,Purple_Plus_Stripes_3.jpg,Blue_Star_Stripes_4.jpg,Green_Circle_Chess_3.jpg,right,565,true,low,NA,NA,NA,NA,NA,NA,NA,false
TCnIYw2a,3b6f54kms5pu5knddy3sw9ki4gws13,3oonkj5dkgwi7ab6zgka70jhcovbox,TCnIYw2a,2020-0188,2020-05-07,17:47:23,18:08:37,NA,incomplete,109,number,1,left,Green_Triangle_Chess_3.jpg,Blue_Plus_Dots_3.jpg,Red_Star_Chess_1.jpg,right,497,false,low,NA,NA,NA,NA,NA,NA,NA,false
TCnIYw2a,3b6f54kms5pu5knddy3sw9ki4gws13,3oonkj5dkgwi7ab6zgka70jhcovbox,TCnIYw2a,2020-0188,2020-05-07,17:47:23,18:08:37,NA,incomplete,110,number,1,right,Green_Plus_Dots_2.jpg,Red_Circle_Dots_3.jpg,Purple_Star_Chess_2.jpg,right,974,true,low,NA,NA,NA,NA,NA,NA,NA,false
TCnIYw2a,3b6f54kms5pu5knddy3sw9ki4gws13,3oonkj5dkgwi7ab6zgka70jhcovbox,TCnIYw2a,2020-0188,2020-05-07,17:47:23,18:08:37,NA,incomplete,111,number,0,right,Blue_Star_Dots_4.jpg,Red_Triangle_Dots_2.jpg,Green_Plus_Grid_4.jpg,right,576,true,low,NA,NA,NA,NA,NA,NA,NA,false
TCnIYw2a,3b6f54kms5pu5knddy3sw9ki4gws13,3oonkj5dkgwi7ab6zgka70jhcovbox,TCnIYw2a,2020-0188,2020-05-07,17:47:23,18:08:37,NA,incomplete,112,number,1,right,Red_Plus_Grid_1.jpg,Blue_Triangle_Grid_3.jpg,Green_Circle_Dots_1.jpg,right,596,true,low,NA,NA,NA,NA,NA,NA,NA,false
TCnIYw2a,3b6f54kms5pu5knddy3sw9ki4gws13,3oonkj5dkgwi7ab6zgka70jhcovbox,TCnIYw2a,2020-0188,2020-05-07,17:47:23,18:08:37,NA,incomplete,113,number,0,left,Red_Plus_Dots_3.jpg,Purple_Circle_Chess_3.jpg,Green_Star_Dots_4.jpg,left,806,true,low,NA,NA,NA,NA,NA,NA,NA,false
TCnIYw2a,3b6f54kms5pu5knddy3sw9ki4gws13,3oonkj5dkgwi7ab6zgka70jhcovbox,TCnIYw2a,2020-0188,2020-05-07,17:47:23,18:08:37,NA,incomplete,114,number,1,right,Red_Star_Dots_1.jpg,Blue_Plus_Dots_2.jpg,Green_Triangle_Stripes_1.jpg,right,552,true,low,NA,NA,NA,NA,NA,NA,NA,false
TCnIYw2a,3b6f54kms5pu5knddy3sw9ki4gws13,3oonkj5dkgwi7ab6zgka70jhcovbox,TCnIYw2a,2020-0188,2020-05-07,17:47:23,18:08:37,NA,incomplete,115,number,1,left,Green_Star_Stripes_3.jpg,Purple_Plus_Chess_3.jpg,Red_Triangle_Stripes_2.jpg,left,771,true,low,NA,NA,NA,NA,NA,NA,NA,false
TCnIYw2a,3b6f54kms5pu5knddy3sw9ki4gws13,3oonkj5dkgwi7ab6zgka70jhcovbox,TCnIYw2a,2020-0188,2020-05-07,17:47:23,18:08:37,NA,incomplete,116,number,0,left,Red_Plus_Stripes_2.jpg,Green_Triangle_Dots_2.jpg,Purple_Star_Stripes_3.jpg,left,652,true,low,NA,NA,NA,NA,NA,NA,NA,false
TCnIYw2a,3b6f54kms5pu5knddy3sw9ki4gws13,3oonkj5dkgwi7ab6zgka70jhcovbox,TCnIYw2a,2020-0188,2020-05-07,17:47:23,18:08:37,NA,incomplete,117,number,0,left,Purple_Star_Chess_4.jpg,Blue_Triangle_Grid_4.jpg,Red_Plus_Chess_3.jpg,right,868,false,low,NA,NA,NA,NA,NA,NA,NA,false
TCnIYw2a,3b6f54kms5pu5knddy3sw9ki4gws13,3oonkj5dkgwi7ab6zgka70jhcovbox,TCnIYw2a,2020-0188,2020-05-07,17:47:23,18:08:37,NA,incomplete,118,number,1,left,Blue_Star_Chess_4.jpg,Red_Circle_Dots_4.jpg,Purple_Plus_Chess_1.jpg,right,746,false,low,NA,NA,NA,NA,NA,NA,NA,false
TCnIYw2a,3b6f54kms5pu5knddy3sw9ki4gws13,3oonkj5dkgwi7ab6zgka70jhcovbox,TCnIYw2a,2020-0188,2020-05-07,17:47:23,18:08:37,NA,incomplete,119,number,1,left,Green_Circle_Dots_2.jpg,Purple_Triangle_Chess_2.jpg,Blue_Star_Dots_4.jpg,right,734,false,low,NA,NA,NA,NA,NA,NA,NA,false
TCnIYw2a,3b6f54kms5pu5knddy3sw9ki4gws13,3oonkj5dkgwi7ab6zgka70jhcovbox,TCnIYw2a,2020-0188,2020-05-07,17:47:23,18:08:37,NA,incomplete,120,filling,1,left,Red_Star_Grid_3.jpg,Purple_Circle_Grid_4.jpg,Green_Triangle_Stripes_3.jpg,right,674,false,low,NA,NA,NA,NA,NA,NA,NA,false
TCnIYw2a,3b6f54kms5pu5knddy3sw9ki4gws13,3oonkj5dkgwi7ab6zgka70jhcovbox,TCnIYw2a,2020-0188,2020-05-07,17:47:23,18:08:37,NA,incomplete,121,filling,1,right,Purple_Star_Grid_1.jpg,Blue_Triangle_Dots_1.jpg,Red_Plus_Grid_3.jpg,left,505,false,low,NA,NA,NA,NA,NA,NA,NA,false
TCnIYw2a,3b6f54kms5pu5knddy3sw9ki4gws13,3oonkj5dkgwi7ab6zgka70jhcovbox,TCnIYw2a,2020-0188,2020-05-07,17:47:23,18:08:37,NA,incomplete,122,filling,0,right,Blue_Star_Chess_2.jpg,Purple_Plus_Dots_2.jpg,Red_Circle_Chess_1.jpg,right,726,true,low,NA,NA,NA,NA,NA,NA,NA,false
TCnIYw2a,3b6f54kms5pu5knddy3sw9ki4gws13,3oonkj5dkgwi7ab6zgka70jhcovbox,TCnIYw2a,2020-0188,2020-05-07,17:47:23,18:08:37,NA,incomplete,123,filling,1,right,Red_Star_Stripes_2.jpg,Green_Circle_Chess_2.jpg,Purple_Plus_Stripes_1.jpg,right,859,true,low,NA,NA,NA,NA,NA,NA,NA,false
TCnIYw2a,3b6f54kms5pu5knddy3sw9ki4gws13,3oonkj5dkgwi7ab6zgka70jhcovbox,TCnIYw2a,2020-0188,2020-05-07,17:47:23,18:08:37,NA,incomplete,124,filling,1,left,Green_Plus_Grid_1.jpg,Red_Triangle_Grid_2.jpg,Purple_Star_Stripes_1.jpg,right,922,false,low,NA,NA,NA,NA,NA,NA,NA,false
TCnIYw2a,3b6f54kms5pu5knddy3sw9ki4gws13,3oonkj5dkgwi7ab6zgka70jhcovbox,TCnIYw2a,2020-0188,2020-05-07,17:47:23,18:08:37,NA,incomplete,125,filling,1,left,Green_Plus_Dots_2.jpg,Blue_Circle_Dots_3.jpg,Red_Triangle_Grid_2.jpg,left,750,true,low,NA,NA,NA,NA,NA,NA,NA,false
TCnIYw2a,3b6f54kms5pu5knddy3sw9ki4gws13,3oonkj5dkgwi7ab6zgka70jhcovbox,TCnIYw2a,2020-0188,2020-05-07,17:47:23,18:08:37,NA,incomplete,126,filling,1,left,Green_Plus_Dots_2.jpg,Blue_Star_Dots_1.jpg,Purple_Circle_Stripes_2.jpg,left,763,true,low,NA,NA,NA,NA,NA,NA,NA,false
TCnIYw2a,3b6f54kms5pu5knddy3sw9ki4gws13,3oonkj5dkgwi7ab6zgka70jhcovbox,TCnIYw2a,2020-0188,2020-05-07,17:47:23,18:08:37,NA,incomplete,127,filling,1,right,Purple_Star_Dots_1.jpg,Red_Plus_Grid_1.jpg,Green_Triangle_Dots_4.jpg,right,749,true,low,NA,NA,NA,NA,NA,NA,NA,false
TCnIYw2a,3b6f54kms5pu5knddy3sw9ki4gws13,3oonkj5dkgwi7ab6zgka70jhcovbox,TCnIYw2a,2020-0188,2020-05-07,17:47:23,18:08:37,NA,incomplete,128,filling,1,right,Red_Plus_Grid_3.jpg,Blue_Circle_Dots_3.jpg,Purple_Star_Grid_1.jpg,right,747,true,low,NA,NA,NA,NA,NA,NA,NA,false
TCnIYw2a,3b6f54kms5pu5knddy3sw9ki4gws13,3oonkj5dkgwi7ab6zgka70jhcovbox,TCnIYw2a,2020-0188,2020-05-07,17:47:23,18:08:37,NA,incomplete,129,filling,1,right,Red_Circle_Chess_2.jpg,Purple_Plus_Dots_2.jpg,Blue_Triangle_Chess_4.jpg,right,789,true,low,NA,NA,NA,NA,NA,NA,NA,false
TCnIYw2a,3b6f54kms5pu5knddy3sw9ki4gws13,3oonkj5dkgwi7ab6zgka70jhcovbox,TCnIYw2a,2020-0188,2020-05-07,17:47:23,18:08:37,NA,incomplete,130,filling,1,right,Green_Plus_Dots_2.jpg,Blue_Circle_Chess_2.jpg,Red_Triangle_Dots_4.jpg,right,663,true,low,NA,NA,NA,NA,NA,NA,NA,false
TCnIYw2a,3b6f54kms5pu5knddy3sw9ki4gws13,3oonkj5dkgwi7ab6zgka70jhcovbox,TCnIYw2a,2020-0188,2020-05-07,17:47:23,18:08:37,NA,incomplete,131,filling,1,right,Blue_Triangle_Stripes_2.jpg,Red_Circle_Grid_2.jpg,Green_Plus_Stripes_4.jpg,right,791,true,low,NA,NA,NA,NA,NA,NA,NA,false
TCnIYw2a,3b6f54kms5pu5knddy3sw9ki4gws13,3oonkj5dkgwi7ab6zgka70jhcovbox,TCnIYw2a,2020-0188,2020-05-07,17:47:23,18:08:37,NA,incomplete,132,filling,1,left,Green_Star_Stripes_4.jpg,Red_Circle_Stripes_3.jpg,Purple_Plus_Dots_4.jpg,left,728,true,low,NA,NA,NA,NA,NA,NA,NA,false
TCnIYw2a,3b6f54kms5pu5knddy3sw9ki4gws13,3oonkj5dkgwi7ab6zgka70jhcovbox,TCnIYw2a,2020-0188,2020-05-07,17:47:23,18:08:37,NA,incomplete,133,filling,0,left,Purple_Star_Chess_1.jpg,Green_Triangle_Chess_2.jpg,Red_Circle_Dots_1.jpg,left,850,true,low,NA,NA,NA,NA,NA,NA,NA,false
TCnIYw2a,3b6f54kms5pu5knddy3sw9ki4gws13,3oonkj5dkgwi7ab6zgka70jhcovbox,TCnIYw2a,2020-0188,2020-05-07,17:47:23,18:08:37,NA,incomplete,134,filling,1,left,Purple_Triangle_Stripes_4.jpg,Red_Circle_Stripes_1.jpg,Blue_Plus_Grid_4.jpg,left,893,true,low,NA,NA,NA,NA,NA,NA,NA,false
TCnIYw2a,3b6f54kms5pu5knddy3sw9ki4gws13,3oonkj5dkgwi7ab6zgka70jhcovbox,TCnIYw2a,2020-0188,2020-05-07,17:47:23,18:08:37,NA,incomplete,135,filling,1,left,Purple_Triangle_Stripes_4.jpg,Red_Star_Stripes_1.jpg,Green_Plus_Chess_4.jpg,left,810,true,low,NA,NA,NA,NA,NA,NA,NA,false
TCnIYw2a,3b6f54kms5pu5knddy3sw9ki4gws13,3oonkj5dkgwi7ab6zgka70jhcovbox,TCnIYw2a,2020-0188,2020-05-07,17:47:23,18:08:37,NA,incomplete,136,filling,0,right,Blue_Triangle_Stripes_3.jpg,Red_Star_Chess_3.jpg,Purple_Plus_Stripes_2.jpg,right,843,true,low,NA,NA,NA,NA,NA,NA,NA,false
TCnIYw2a,3b6f54kms5pu5knddy3sw9ki4gws13,3oonkj5dkgwi7ab6zgka70jhcovbox,TCnIYw2a,2020-0188,2020-05-07,17:47:23,18:08:37,NA,incomplete,137,filling,1,left,Red_Triangle_Dots_2.jpg,Green_Circle_Dots_4.jpg,Purple_Plus_Grid_2.jpg,left,667,true,low,NA,NA,NA,NA,NA,NA,NA,false
TCnIYw2a,3b6f54kms5pu5knddy3sw9ki4gws13,3oonkj5dkgwi7ab6zgka70jhcovbox,TCnIYw2a,2020-0188,2020-05-07,17:47:23,18:08:37,NA,incomplete,138,filling,1,left,Red_Plus_Dots_1.jpg,Green_Circle_Dots_2.jpg,Purple_Star_Stripes_1.jpg,left,683,true,low,NA,NA,NA,NA,NA,NA,NA,false
TCnIYw2a,3b6f54kms5pu5knddy3sw9ki4gws13,3oonkj5dkgwi7ab6zgka70jhcovbox,TCnIYw2a,2020-0188,2020-05-07,17:47:23,18:08:37,NA,incomplete,139,filling,0,left,Blue_Triangle_Dots_4.jpg,Red_Circle_Dots_2.jpg,Green_Plus_Grid_4.jpg,left,656,true,low,NA,NA,NA,NA,NA,NA,NA,false
TCnIYw2a,3b6f54kms5pu5knddy3sw9ki4gws13,3oonkj5dkgwi7ab6zgka70jhcovbox,TCnIYw2a,2020-0188,2020-05-07,17:47:23,18:08:37,NA,incomplete,140,number,1,right,Red_Plus_Stripes_1.jpg,Blue_Star_Stripes_2.jpg,Purple_Circle_Chess_1.jpg,left,960,false,low,NA,NA,NA,NA,NA,NA,NA,false
TCnIYw2a,3b6f54kms5pu5knddy3sw9ki4gws13,3oonkj5dkgwi7ab6zgka70jhcovbox,TCnIYw2a,2020-0188,2020-05-07,17:47:23,18:08:37,NA,incomplete,141,number,1,left,Red_Circle_Stripes_1.jpg,Blue_Triangle_Chess_1.jpg,Purple_Plus_Stripes_3.jpg,right,780,false,low,NA,NA,NA,NA,NA,NA,NA,false
TCnIYw2a,3b6f54kms5pu5knddy3sw9ki4gws13,3oonkj5dkgwi7ab6zgka70jhcovbox,TCnIYw2a,2020-0188,2020-05-07,17:47:23,18:08:37,NA,incomplete,142,number,1,right,Green_Triangle_Grid_3.jpg,Blue_Plus_Grid_1.jpg,Red_Circle_Chess_3.jpg,right,622,true,low,NA,NA,NA,NA,NA,NA,NA,false
TCnIYw2a,3b6f54kms5pu5knddy3sw9ki4gws13,3oonkj5dkgwi7ab6zgka70jhcovbox,TCnIYw2a,2020-0188,2020-05-07,17:47:23,18:08:37,NA,incomplete,143,number,1,right,Red_Star_Stripes_1.jpg,Green_Circle_Stripes_3.jpg,Blue_Plus_Chess_1.jpg,right,559,true,low,NA,NA,NA,NA,NA,NA,NA,false
TCnIYw2a,3b6f54kms5pu5knddy3sw9ki4gws13,3oonkj5dkgwi7ab6zgka70jhcovbox,TCnIYw2a,2020-0188,2020-05-07,17:47:23,18:08:37,NA,incomplete,144,number,0,right,Red_Triangle_Stripes_4.jpg,Purple_Star_Stripes_2.jpg,Blue_Plus_Grid_4.jpg,right,611,true,low,NA,NA,NA,NA,NA,NA,NA,false
TCnIYw2a,3b6f54kms5pu5knddy3sw9ki4gws13,3oonkj5dkgwi7ab6zgka70jhcovbox,TCnIYw2a,2020-0188,2020-05-07,17:47:23,18:08:37,NA,incomplete,145,number,1,right,Green_Star_Dots_3.jpg,Red_Plus_Dots_1.jpg,Blue_Circle_Chess_3.jpg,right,564,true,low,NA,NA,NA,NA,NA,NA,NA,false
TCnIYw2a,3b6f54kms5pu5knddy3sw9ki4gws13,3oonkj5dkgwi7ab6zgka70jhcovbox,TCnIYw2a,2020-0188,2020-05-07,17:47:23,18:08:37,NA,incomplete,146,number,1,right,Green_Circle_Chess_1.jpg,Red_Plus_Chess_4.jpg,Purple_Triangle_Stripes_1.jpg,right,566,true,low,NA,NA,NA,NA,NA,NA,NA,false
TCnIYw2a,3b6f54kms5pu5knddy3sw9ki4gws13,3oonkj5dkgwi7ab6zgka70jhcovbox,TCnIYw2a,2020-0188,2020-05-07,17:47:23,18:08:37,NA,incomplete,147,number,1,left,Green_Circle_Dots_2.jpg,Red_Plus_Stripes_2.jpg,Purple_Star_Dots_4.jpg,left,554,true,low,NA,NA,NA,NA,NA,NA,NA,false
TCnIYw2a,3b6f54kms5pu5knddy3sw9ki4gws13,3oonkj5dkgwi7ab6zgka70jhcovbox,TCnIYw2a,2020-0188,2020-05-07,17:47:23,18:08:37,NA,incomplete,148,number,1,right,Blue_Plus_Chess_2.jpg,Green_Star_Chess_3.jpg,Red_Triangle_Grid_2.jpg,right,789,true,low,NA,NA,NA,NA,NA,NA,NA,false
TCnIYw2a,3b6f54kms5pu5knddy3sw9ki4gws13,3oonkj5dkgwi7ab6zgka70jhcovbox,TCnIYw2a,2020-0188,2020-05-07,17:47:23,18:08:37,NA,incomplete,149,number,0,right,Red_Circle_Chess_4.jpg,Blue_Star_Chess_3.jpg,Green_Plus_Grid_4.jpg,right,648,true,low,NA,NA,NA,NA,NA,NA,NA,false
TCnIYw2a,3b6f54kms5pu5knddy3sw9ki4gws13,3oonkj5dkgwi7ab6zgka70jhcovbox,TCnIYw2a,2020-0188,2020-05-07,17:47:23,18:08:37,NA,incomplete,150,number,1,left,Red_Circle_Chess_2.jpg,Blue_Star_Stripes_2.jpg,Purple_Plus_Chess_3.jpg,left,575,true,low,NA,NA,NA,NA,NA,NA,NA,false
TCnIYw2a,3b6f54kms5pu5knddy3sw9ki4gws13,3oonkj5dkgwi7ab6zgka70jhcovbox,TCnIYw2a,2020-0188,2020-05-07,17:47:23,18:08:37,NA,incomplete,151,number,0,left,Green_Star_Dots_4.jpg,Purple_Plus_Chess_4.jpg,Blue_Circle_Dots_3.jpg,left,618,true,low,NA,NA,NA,NA,NA,NA,NA,false
TCnIYw2a,3b6f54kms5pu5knddy3sw9ki4gws13,3oonkj5dkgwi7ab6zgka70jhcovbox,TCnIYw2a,2020-0188,2020-05-07,17:47:23,18:08:37,NA,incomplete,152,number,1,left,Blue_Star_Chess_1.jpg,Green_Circle_Dots_1.jpg,Red_Plus_Chess_4.jpg,left,587,true,low,NA,NA,NA,NA,NA,NA,NA,false
TCnIYw2a,3b6f54kms5pu5knddy3sw9ki4gws13,3oonkj5dkgwi7ab6zgka70jhcovbox,TCnIYw2a,2020-0188,2020-05-07,17:47:23,18:08:37,NA,incomplete,153,number,1,right,Green_Triangle_Stripes_1.jpg,Red_Plus_Stripes_2.jpg,Blue_Circle_Grid_1.jpg,right,564,true,low,NA,NA,NA,NA,NA,NA,NA,false
TCnIYw2a,3b6f54kms5pu5knddy3sw9ki4gws13,3oonkj5dkgwi7ab6zgka70jhcovbox,TCnIYw2a,2020-0188,2020-05-07,17:47:23,18:08:37,NA,incomplete,154,number,1,right,Green_Triangle_Dots_3.jpg,Blue_Circle_Dots_1.jpg,Red_Star_Stripes_3.jpg,right,568,true,low,NA,NA,NA,NA,NA,NA,NA,false
TCnIYw2a,3b6f54kms5pu5knddy3sw9ki4gws13,3oonkj5dkgwi7ab6zgka70jhcovbox,TCnIYw2a,2020-0188,2020-05-07,17:47:23,18:08:37,NA,incomplete,155,number,1,left,Red_Star_Stripes_1.jpg,Blue_Circle_Chess_1.jpg,Green_Plus_Stripes_4.jpg,left,514,true,low,NA,NA,NA,NA,NA,NA,NA,false
TCnIYw2a,3b6f54kms5pu5knddy3sw9ki4gws13,3oonkj5dkgwi7ab6zgka70jhcovbox,TCnIYw2a,2020-0188,2020-05-07,17:47:23,18:08:37,NA,incomplete,156,number,1,left,Green_Triangle_Dots_1.jpg,Red_Star_Grid_1.jpg,Blue_Circle_Dots_3.jpg,left,560,true,low,NA,NA,NA,NA,NA,NA,NA,false
TCnIYw2a,3b6f54kms5pu5knddy3sw9ki4gws13,3oonkj5dkgwi7ab6zgka70jhcovbox,TCnIYw2a,2020-0188,2020-05-07,17:47:23,18:08:37,NA,incomplete,157,number,1,right,Purple_Star_Stripes_3.jpg,Red_Triangle_Stripes_4.jpg,Green_Circle_Chess_3.jpg,right,581,true,low,NA,NA,NA,NA,NA,NA,NA,false
TCnIYw2a,3b6f54kms5pu5knddy3sw9ki4gws13,3oonkj5dkgwi7ab6zgka70jhcovbox,TCnIYw2a,2020-0188,2020-05-07,17:47:23,18:08:37,NA,incomplete,158,number,1,right,Purple_Plus_Dots_4.jpg,Blue_Circle_Dots_3.jpg,Red_Triangle_Chess_4.jpg,right,830,true,low,NA,NA,NA,NA,NA,NA,NA,false
TCnIYw2a,3b6f54kms5pu5knddy3sw9ki4gws13,3oonkj5dkgwi7ab6zgka70jhcovbox,TCnIYw2a,2020-0188,2020-05-07,17:47:23,18:08:37,NA,incomplete,159,number,1,left,Purple_Circle_Grid_3.jpg,Red_Triangle_Dots_3.jpg,Green_Plus_Grid_1.jpg,left,599,true,low,NA,NA,NA,NA,NA,NA,NA,false
TCnIYw2a,3b6f54kms5pu5knddy3sw9ki4gws13,3oonkj5dkgwi7ab6zgka70jhcovbox,TCnIYw2a,2020-0188,2020-05-07,17:47:23,18:08:37,NA,incomplete,160,filling,0,left,Green_Plus_Dots_3.jpg,Red_Circle_Dots_4.jpg,Blue_Triangle_Chess_3.jpg,right,609,false,low,NA,NA,NA,NA,NA,NA,NA,false
TCnIYw2a,3b6f54kms5pu5knddy3sw9ki4gws13,3oonkj5dkgwi7ab6zgka70jhcovbox,TCnIYw2a,2020-0188,2020-05-07,17:47:23,18:08:37,NA,incomplete,161,filling,1,left,Blue_Circle_Grid_1.jpg,Red_Plus_Grid_3.jpg,Purple_Star_Dots_1.jpg,right,545,false,low,NA,NA,NA,NA,NA,NA,NA,false
TCnIYw2a,3b6f54kms5pu5knddy3sw9ki4gws13,3oonkj5dkgwi7ab6zgka70jhcovbox,TCnIYw2a,2020-0188,2020-05-07,17:47:23,18:08:37,NA,incomplete,162,filling,1,left,Green_Circle_Chess_4.jpg,Purple_Plus_Chess_3.jpg,Red_Star_Stripes_4.jpg,right,782,false,low,NA,NA,NA,NA,NA,NA,NA,false
TCnIYw2a,3b6f54kms5pu5knddy3sw9ki4gws13,3oonkj5dkgwi7ab6zgka70jhcovbox,TCnIYw2a,2020-0188,2020-05-07,17:47:23,18:08:37,NA,incomplete,163,filling,1,right,Red_Plus_Dots_1.jpg,Purple_Star_Stripes_1.jpg,Blue_Triangle_Dots_3.jpg,left,897,false,low,NA,NA,NA,NA,NA,NA,NA,false
TCnIYw2a,3b6f54kms5pu5knddy3sw9ki4gws13,3oonkj5dkgwi7ab6zgka70jhcovbox,TCnIYw2a,2020-0188,2020-05-07,17:47:23,18:08:37,NA,incomplete,164,filling,1,left,Blue_Star_Chess_2.jpg,Purple_Plus_Chess_4.jpg,Green_Circle_Stripes_2.jpg,left,855,true,low,NA,NA,NA,NA,NA,NA,NA,false
TCnIYw2a,3b6f54kms5pu5knddy3sw9ki4gws13,3oonkj5dkgwi7ab6zgka70jhcovbox,TCnIYw2a,2020-0188,2020-05-07,17:47:23,18:08:37,NA,incomplete,165,filling,1,right,Green_Star_Stripes_4.jpg,Blue_Triangle_Grid_4.jpg,Purple_Plus_Stripes_2.jpg,right,838,true,low,NA,NA,NA,NA,NA,NA,NA,false
TCnIYw2a,3b6f54kms5pu5knddy3sw9ki4gws13,3oonkj5dkgwi7ab6zgka70jhcovbox,TCnIYw2a,2020-0188,2020-05-07,17:47:23,18:08:37,NA,incomplete,166,filling,1,left,Blue_Star_Dots_2.jpg,Green_Plus_Dots_3.jpg,Purple_Triangle_Grid_2.jpg,left,765,true,low,NA,NA,NA,NA,NA,NA,NA,false
TCnIYw2a,3b6f54kms5pu5knddy3sw9ki4gws13,3oonkj5dkgwi7ab6zgka70jhcovbox,TCnIYw2a,2020-0188,2020-05-07,17:47:23,18:08:37,NA,incomplete,167,filling,1,left,Green_Star_Stripes_2.jpg,Blue_Triangle_Stripes_3.jpg,Purple_Circle_Chess_2.jpg,left,801,true,low,NA,NA,NA,NA,NA,NA,NA,false
TCnIYw2a,3b6f54kms5pu5knddy3sw9ki4gws13,3oonkj5dkgwi7ab6zgka70jhcovbox,TCnIYw2a,2020-0188,2020-05-07,17:47:23,18:08:37,NA,incomplete,168,filling,1,right,Red_Plus_Dots_2.jpg,Blue_Star_Grid_2.jpg,Green_Circle_Dots_3.jpg,right,810,true,low,NA,NA,NA,NA,NA,NA,NA,false
TCnIYw2a,3b6f54kms5pu5knddy3sw9ki4gws13,3oonkj5dkgwi7ab6zgka70jhcovbox,TCnIYw2a,2020-0188,2020-05-07,17:47:23,18:08:37,NA,incomplete,169,filling,1,left,Purple_Plus_Stripes_1.jpg,Green_Triangle_Stripes_2.jpg,Red_Circle_Chess_1.jpg,left,819,true,low,NA,NA,NA,NA,NA,NA,NA,false
TCnIYw2a,3b6f54kms5pu5knddy3sw9ki4gws13,3oonkj5dkgwi7ab6zgka70jhcovbox,TCnIYw2a,2020-0188,2020-05-07,17:47:23,18:08:37,NA,incomplete,170,filling,0,right,Green_Plus_Chess_4.jpg,Blue_Circle_Stripes_4.jpg,Red_Star_Chess_2.jpg,right,804,true,low,NA,NA,NA,NA,NA,NA,NA,false
TCnIYw2a,3b6f54kms5pu5knddy3sw9ki4gws13,3oonkj5dkgwi7ab6zgka70jhcovbox,TCnIYw2a,2020-0188,2020-05-07,17:47:23,18:08:37,NA,incomplete,171,filling,1,left,Blue_Star_Dots_2.jpg,Green_Plus_Dots_3.jpg,Red_Triangle_Stripes_2.jpg,left,733,true,low,NA,NA,NA,NA,NA,NA,NA,false
TCnIYw2a,3b6f54kms5pu5knddy3sw9ki4gws13,3oonkj5dkgwi7ab6zgka70jhcovbox,TCnIYw2a,2020-0188,2020-05-07,17:47:23,18:08:37,NA,incomplete,172,filling,1,left,Green_Star_Chess_2.jpg,Blue_Plus_Chess_3.jpg,Purple_Circle_Stripes_2.jpg,left,802,true,low,NA,NA,NA,NA,NA,NA,NA,false
TCnIYw2a,3b6f54kms5pu5knddy3sw9ki4gws13,3oonkj5dkgwi7ab6zgka70jhcovbox,TCnIYw2a,2020-0188,2020-05-07,17:47:23,18:08:37,NA,incomplete,173,filling,1,right,Green_Triangle_Dots_4.jpg,Red_Plus_Grid_4.jpg,Purple_Circle_Dots_1.jpg,right,692,true,low,NA,NA,NA,NA,NA,NA,NA,false
TCnIYw2a,3b6f54kms5pu5knddy3sw9ki4gws13,3oonkj5dkgwi7ab6zgka70jhcovbox,TCnIYw2a,2020-0188,2020-05-07,17:47:23,18:08:37,NA,incomplete,174,filling,0,right,Purple_Triangle_Stripes_4.jpg,Red_Circle_Grid_4.jpg,Green_Star_Stripes_1.jpg,right,825,true,low,NA,NA,NA,NA,NA,NA,NA,false
TCnIYw2a,3b6f54kms5pu5knddy3sw9ki4gws13,3oonkj5dkgwi7ab6zgka70jhcovbox,TCnIYw2a,2020-0188,2020-05-07,17:47:23,18:08:37,NA,incomplete,175,filling,1,left,Purple_Triangle_Grid_4.jpg,Blue_Circle_Grid_2.jpg,Red_Star_Stripes_4.jpg,left,809,true,low,NA,NA,NA,NA,NA,NA,NA,false
TCnIYw2a,3b6f54kms5pu5knddy3sw9ki4gws13,3oonkj5dkgwi7ab6zgka70jhcovbox,TCnIYw2a,2020-0188,2020-05-07,17:47:23,18:08:37,NA,incomplete,176,filling,0,right,Green_Star_Stripes_1.jpg,Purple_Plus_Grid_1.jpg,Red_Circle_Stripes_3.jpg,right,755,true,low,NA,NA,NA,NA,NA,NA,NA,false
TCnIYw2a,3b6f54kms5pu5knddy3sw9ki4gws13,3oonkj5dkgwi7ab6zgka70jhcovbox,TCnIYw2a,2020-0188,2020-05-07,17:47:23,18:08:37,NA,incomplete,177,filling,1,left,Green_Star_Stripes_2.jpg,Red_Plus_Stripes_4.jpg,Purple_Circle_Grid_2.jpg,left,814,true,low,NA,NA,NA,NA,NA,NA,NA,false
TCnIYw2a,3b6f54kms5pu5knddy3sw9ki4gws13,3oonkj5dkgwi7ab6zgka70jhcovbox,TCnIYw2a,2020-0188,2020-05-07,17:47:23,18:08:37,NA,incomplete,178,filling,1,left,Purple_Circle_Grid_3.jpg,Green_Plus_Grid_4.jpg,Blue_Star_Chess_3.jpg,left,799,true,low,NA,NA,NA,NA,NA,NA,NA,false
TCnIYw2a,3b6f54kms5pu5knddy3sw9ki4gws13,3oonkj5dkgwi7ab6zgka70jhcovbox,TCnIYw2a,2020-0188,2020-05-07,17:47:23,18:08:37,NA,incomplete,179,filling,0,left,Blue_Star_Chess_2.jpg,Green_Triangle_Chess_1.jpg,Purple_Circle_Grid_2.jpg,left,760,true,low,NA,NA,NA,NA,NA,NA,NA,false
TCnIYw2a,3b6f54kms5pu5knddy3sw9ki4gws13,3oonkj5dkgwi7ab6zgka70jhcovbox,TCnIYw2a,2020-0188,2020-05-07,17:47:23,18:08:37,NA,incomplete,180,number,1,right,Red_Plus_Grid_4.jpg,Purple_Triangle_Grid_1.jpg,Blue_Star_Stripes_4.jpg,right,596,true,low,NA,NA,NA,NA,NA,NA,NA,false
TCnIYw2a,3b6f54kms5pu5knddy3sw9ki4gws13,3oonkj5dkgwi7ab6zgka70jhcovbox,TCnIYw2a,2020-0188,2020-05-07,17:47:23,18:08:37,NA,incomplete,181,number,1,right,Red_Plus_Stripes_4.jpg,Blue_Triangle_Stripes_3.jpg,Purple_Star_Grid_4.jpg,right,613,true,low,NA,NA,NA,NA,NA,NA,NA,false
TCnIYw2a,3b6f54kms5pu5knddy3sw9ki4gws13,3oonkj5dkgwi7ab6zgka70jhcovbox,TCnIYw2a,2020-0188,2020-05-07,17:47:23,18:08:37,NA,incomplete,182,number,1,right,Red_Star_Stripes_2.jpg,Blue_Triangle_Stripes_1.jpg,Purple_Circle_Chess_2.jpg,right,688,true,low,NA,NA,NA,NA,NA,NA,NA,false
TCnIYw2a,3b6f54kms5pu5knddy3sw9ki4gws13,3oonkj5dkgwi7ab6zgka70jhcovbox,TCnIYw2a,2020-0188,2020-05-07,17:47:23,18:08:37,NA,incomplete,183,number,1,left,Red_Triangle_Grid_2.jpg,Blue_Plus_Stripes_2.jpg,Purple_Star_Grid_3.jpg,left,557,true,low,NA,NA,NA,NA,NA,NA,NA,false
TCnIYw2a,3b6f54kms5pu5knddy3sw9ki4gws13,3oonkj5dkgwi7ab6zgka70jhcovbox,TCnIYw2a,2020-0188,2020-05-07,17:47:23,18:08:37,NA,incomplete,184,number,0,left,Red_Star_Dots_1.jpg,Blue_Plus_Stripes_1.jpg,Purple_Circle_Dots_4.jpg,left,569,true,low,NA,NA,NA,NA,NA,NA,NA,false
TCnIYw2a,3b6f54kms5pu5knddy3sw9ki4gws13,3oonkj5dkgwi7ab6zgka70jhcovbox,TCnIYw2a,2020-0188,2020-05-07,17:47:23,18:08:37,NA,incomplete,185,number,1,left,Blue_Triangle_Grid_3.jpg,Green_Plus_Stripes_3.jpg,Red_Star_Grid_1.jpg,left,579,true,low,NA,NA,NA,NA,NA,NA,NA,false
TCnIYw2a,3b6f54kms5pu5knddy3sw9ki4gws13,3oonkj5dkgwi7ab6zgka70jhcovbox,TCnIYw2a,2020-0188,2020-05-07,17:47:23,18:08:37,NA,incomplete,186,number,1,left,Green_Plus_Chess_2.jpg,Purple_Star_Dots_2.jpg,Blue_Triangle_Chess_4.jpg,left,582,true,low,NA,NA,NA,NA,NA,NA,NA,false
TCnIYw2a,3b6f54kms5pu5knddy3sw9ki4gws13,3oonkj5dkgwi7ab6zgka70jhcovbox,TCnIYw2a,2020-0188,2020-05-07,17:47:23,18:08:37,NA,incomplete,187,number,1,right,Green_Triangle_Dots_3.jpg,Blue_Circle_Dots_2.jpg,Purple_Plus_Grid_3.jpg,right,544,true,low,NA,NA,NA,NA,NA,NA,NA,false
TCnIYw2a,3b6f54kms5pu5knddy3sw9ki4gws13,3oonkj5dkgwi7ab6zgka70jhcovbox,TCnIYw2a,2020-0188,2020-05-07,17:47:23,18:08:37,NA,incomplete,188,number,1,left,Blue_Plus_Dots_1.jpg,Red_Triangle_Grid_1.jpg,Purple_Star_Dots_3.jpg,left,572,true,low,NA,NA,NA,NA,NA,NA,NA,false
TCnIYw2a,3b6f54kms5pu5knddy3sw9ki4gws13,3oonkj5dkgwi7ab6zgka70jhcovbox,TCnIYw2a,2020-0188,2020-05-07,17:47:23,18:08:37,NA,incomplete,189,number,1,right,Red_Triangle_Grid_1.jpg,Green_Circle_Grid_2.jpg,Blue_Star_Stripes_1.jpg,right,631,true,low,NA,NA,NA,NA,NA,NA,NA,false
TCnIYw2a,3b6f54kms5pu5knddy3sw9ki4gws13,3oonkj5dkgwi7ab6zgka70jhcovbox,TCnIYw2a,2020-0188,2020-05-07,17:47:23,18:08:37,NA,incomplete,190,number,0,right,Green_Circle_Dots_3.jpg,Red_Triangle_Dots_2.jpg,Blue_Plus_Stripes_3.jpg,right,513,true,low,NA,NA,NA,NA,NA,NA,NA,false
TCnIYw2a,3b6f54kms5pu5knddy3sw9ki4gws13,3oonkj5dkgwi7ab6zgka70jhcovbox,TCnIYw2a,2020-0188,2020-05-07,17:47:23,18:08:37,NA,incomplete,191,number,1,right,Purple_Triangle_Chess_2.jpg,Blue_Plus_Chess_1.jpg,Green_Circle_Stripes_2.jpg,right,565,true,low,NA,NA,NA,NA,NA,NA,NA,false
TCnIYw2a,3b6f54kms5pu5knddy3sw9ki4gws13,3oonkj5dkgwi7ab6zgka70jhcovbox,TCnIYw2a,2020-0188,2020-05-07,17:47:23,18:08:37,NA,incomplete,192,number,1,right,Purple_Circle_Stripes_3.jpg,Red_Star_Stripes_4.jpg,Green_Plus_Chess_3.jpg,right,553,true,low,NA,NA,NA,NA,NA,NA,NA,false
TCnIYw2a,3b6f54kms5pu5knddy3sw9ki4gws13,3oonkj5dkgwi7ab6zgka70jhcovbox,TCnIYw2a,2020-0188,2020-05-07,17:47:23,18:08:37,NA,incomplete,193,number,1,left,Red_Plus_Grid_2.jpg,Green_Triangle_Chess_2.jpg,Blue_Circle_Grid_1.jpg,left,604,true,low,NA,NA,NA,NA,NA,NA,NA,false
TCnIYw2a,3b6f54kms5pu5knddy3sw9ki4gws13,3oonkj5dkgwi7ab6zgka70jhcovbox,TCnIYw2a,2020-0188,2020-05-07,17:47:23,18:08:37,NA,incomplete,194,number,1,right,Blue_Circle_Dots_3.jpg,Green_Star_Dots_1.jpg,Red_Plus_Chess_3.jpg,right,543,true,low,NA,NA,NA,NA,NA,NA,NA,false
TCnIYw2a,3b6f54kms5pu5knddy3sw9ki4gws13,3oonkj5dkgwi7ab6zgka70jhcovbox,TCnIYw2a,2020-0188,2020-05-07,17:47:23,18:08:37,NA,incomplete,195,number,1,left,Blue_Star_Dots_3.jpg,Purple_Circle_Grid_3.jpg,Red_Plus_Dots_4.jpg,left,586,true,low,NA,NA,NA,NA,NA,NA,NA,false
TCnIYw2a,3b6f54kms5pu5knddy3sw9ki4gws13,3oonkj5dkgwi7ab6zgka70jhcovbox,TCnIYw2a,2020-0188,2020-05-07,17:47:23,18:08:37,NA,incomplete,196,number,1,left,Red_Plus_Chess_3.jpg,Blue_Circle_Grid_3.jpg,Green_Star_Chess_2.jpg,left,556,true,low,NA,NA,NA,NA,NA,NA,NA,false
TCnIYw2a,3b6f54kms5pu5knddy3sw9ki4gws13,3oonkj5dkgwi7ab6zgka70jhcovbox,TCnIYw2a,2020-0188,2020-05-07,17:47:23,18:08:37,NA,incomplete,197,number,1,right,Green_Triangle_Grid_2.jpg,Purple_Star_Grid_3.jpg,Red_Plus_Stripes_2.jpg,right,751,true,low,NA,NA,NA,NA,NA,NA,NA,false
TCnIYw2a,3b6f54kms5pu5knddy3sw9ki4gws13,3oonkj5dkgwi7ab6zgka70jhcovbox,TCnIYw2a,2020-0188,2020-05-07,17:47:23,18:08:37,NA,incomplete,198,number,0,right,Purple_Star_Grid_4.jpg,Red_Triangle_Grid_2.jpg,Green_Circle_Stripes_4.jpg,right,580,true,low,NA,NA,NA,NA,NA,NA,NA,false
TCnIYw2a,3b6f54kms5pu5knddy3sw9ki4gws13,3oonkj5dkgwi7ab6zgka70jhcovbox,TCnIYw2a,2020-0188,2020-05-07,17:47:23,18:08:37,NA,incomplete,199,number,1,left,Green_Plus_Dots_3.jpg,Purple_Star_Stripes_3.jpg,Red_Circle_Dots_1.jpg,left,558,true,low,NA,NA,NA,NA,NA,NA,NA,false
TCnIYw2a,3b6f54kms5pu5knddy3sw9ki4gws13,3oonkj5dkgwi7ab6zgka70jhcovbox,TCnIYw2a,2020-0188,2020-05-07,17:47:23,18:08:37,NA,incomplete,200,filling,1,left,Purple_Star_Stripes_4.jpg,Green_Circle_Stripes_1.jpg,Red_Plus_Chess_4.jpg,right,552,false,low,NA,NA,NA,NA,NA,NA,NA,false
TCnIYw2a,3b6f54kms5pu5knddy3sw9ki4gws13,3oonkj5dkgwi7ab6zgka70jhcovbox,TCnIYw2a,2020-0188,2020-05-07,17:47:23,18:08:37,NA,incomplete,201,filling,0,left,Green_Triangle_Chess_2.jpg,Red_Star_Chess_4.jpg,Blue_Circle_Stripes_2.jpg,left,757,true,low,NA,NA,NA,NA,NA,NA,NA,false
TCnIYw2a,3b6f54kms5pu5knddy3sw9ki4gws13,3oonkj5dkgwi7ab6zgka70jhcovbox,TCnIYw2a,2020-0188,2020-05-07,17:47:23,18:08:37,NA,incomplete,202,filling,1,right,Green_Plus_Stripes_3.jpg,Red_Circle_Dots_3.jpg,Purple_Star_Stripes_2.jpg,left,552,false,low,NA,NA,NA,NA,NA,NA,NA,false
TCnIYw2a,3b6f54kms5pu5knddy3sw9ki4gws13,3oonkj5dkgwi7ab6zgka70jhcovbox,TCnIYw2a,2020-0188,2020-05-07,17:47:23,18:08:37,NA,incomplete,203,filling,1,right,Red_Triangle_Dots_4.jpg,Purple_Circle_Stripes_4.jpg,Blue_Plus_Dots_2.jpg,right,699,true,low,NA,NA,NA,NA,NA,NA,NA,false
TCnIYw2a,3b6f54kms5pu5knddy3sw9ki4gws13,3oonkj5dkgwi7ab6zgka70jhcovbox,TCnIYw2a,2020-0188,2020-05-07,17:47:23,18:08:37,NA,incomplete,204,filling,1,left,Blue_Star_Grid_3.jpg,Green_Plus_Grid_2.jpg,Purple_Triangle_Dots_3.jpg,left,648,true,low,NA,NA,NA,NA,NA,NA,NA,false
TCnIYw2a,3b6f54kms5pu5knddy3sw9ki4gws13,3oonkj5dkgwi7ab6zgka70jhcovbox,TCnIYw2a,2020-0188,2020-05-07,17:47:23,18:08:37,NA,incomplete,205,filling,1,left,Red_Plus_Dots_2.jpg,Green_Circle_Dots_4.jpg,Purple_Triangle_Stripes_2.jpg,left,680,true,low,NA,NA,NA,NA,NA,NA,NA,false
TCnIYw2a,3b6f54kms5pu5knddy3sw9ki4gws13,3oonkj5dkgwi7ab6zgka70jhcovbox,TCnIYw2a,2020-0188,2020-05-07,17:47:23,18:08:37,NA,incomplete,206,filling,1,left,Red_Circle_Grid_1.jpg,Blue_Triangle_Grid_3.jpg,Purple_Plus_Dots_1.jpg,left,640,true,low,NA,NA,NA,NA,NA,NA,NA,false
TCnIYw2a,3b6f54kms5pu5knddy3sw9ki4gws13,3oonkj5dkgwi7ab6zgka70jhcovbox,TCnIYw2a,2020-0188,2020-05-07,17:47:23,18:08:37,NA,incomplete,207,filling,1,left,Purple_Triangle_Dots_2.jpg,Blue_Plus_Dots_4.jpg,Red_Star_Stripes_2.jpg,right,752,false,low,NA,NA,NA,NA,NA,NA,NA,false
TCnIYw2a,3b6f54kms5pu5knddy3sw9ki4gws13,3oonkj5dkgwi7ab6zgka70jhcovbox,TCnIYw2a,2020-0188,2020-05-07,17:47:23,18:08:37,NA,incomplete,208,filling,1,right,Red_Triangle_Chess_4.jpg,Blue_Star_Stripes_4.jpg,Green_Plus_Chess_2.jpg,right,889,true,low,NA,NA,NA,NA,NA,NA,NA,false
TCnIYw2a,3b6f54kms5pu5knddy3sw9ki4gws13,3oonkj5dkgwi7ab6zgka70jhcovbox,TCnIYw2a,2020-0188,2020-05-07,17:47:23,18:08:37,NA,incomplete,209,filling,1,left,Green_Plus_Stripes_3.jpg,Blue_Triangle_Stripes_4.jpg,Purple_Star_Chess_3.jpg,left,664,true,low,NA,NA,NA,NA,NA,NA,NA,false
TCnIYw2a,3b6f54kms5pu5knddy3sw9ki4gws13,3oonkj5dkgwi7ab6zgka70jhcovbox,TCnIYw2a,2020-0188,2020-05-07,17:47:23,18:08:37,NA,incomplete,210,filling,1,right,Purple_Plus_Dots_3.jpg,Blue_Circle_Grid_3.jpg,Green_Star_Dots_2.jpg,right,712,true,low,NA,NA,NA,NA,NA,NA,NA,false
TCnIYw2a,3b6f54kms5pu5knddy3sw9ki4gws13,3oonkj5dkgwi7ab6zgka70jhcovbox,TCnIYw2a,2020-0188,2020-05-07,17:47:23,18:08:37,NA,incomplete,211,filling,0,right,Blue_Circle_Chess_1.jpg,Purple_Plus_Dots_1.jpg,Green_Star_Chess_3.jpg,right,733,true,low,NA,NA,NA,NA,NA,NA,NA,false
TCnIYw2a,3b6f54kms5pu5knddy3sw9ki4gws13,3oonkj5dkgwi7ab6zgka70jhcovbox,TCnIYw2a,2020-0188,2020-05-07,17:47:23,18:08:37,NA,incomplete,212,filling,1,right,Blue_Circle_Stripes_1.jpg,Green_Plus_Dots_1.jpg,Purple_Triangle_Stripes_3.jpg,right,697,true,low,NA,NA,NA,NA,NA,NA,NA,false
TCnIYw2a,3b6f54kms5pu5knddy3sw9ki4gws13,3oonkj5dkgwi7ab6zgka70jhcovbox,TCnIYw2a,2020-0188,2020-05-07,17:47:23,18:08:37,NA,incomplete,213,filling,1,right,Blue_Star_Dots_2.jpg,Purple_Circle_Grid_2.jpg,Green_Triangle_Dots_3.jpg,right,775,true,low,NA,NA,NA,NA,NA,NA,NA,false
TCnIYw2a,3b6f54kms5pu5knddy3sw9ki4gws13,3oonkj5dkgwi7ab6zgka70jhcovbox,TCnIYw2a,2020-0188,2020-05-07,17:47:23,18:08:37,NA,incomplete,214,filling,1,right,Green_Star_Stripes_4.jpg,Blue_Triangle_Chess_4.jpg,Red_Circle_Stripes_2.jpg,right,795,true,low,NA,NA,NA,NA,NA,NA,NA,false
TCnIYw2a,3b6f54kms5pu5knddy3sw9ki4gws13,3oonkj5dkgwi7ab6zgka70jhcovbox,TCnIYw2a,2020-0188,2020-05-07,17:47:23,18:08:37,NA,incomplete,215,filling,0,left,Purple_Circle_Dots_1.jpg,Blue_Star_Dots_4.jpg,Red_Plus_Grid_1.jpg,left,739,true,low,NA,NA,NA,NA,NA,NA,NA,false
TCnIYw2a,3b6f54kms5pu5knddy3sw9ki4gws13,3oonkj5dkgwi7ab6zgka70jhcovbox,TCnIYw2a,2020-0188,2020-05-07,17:47:23,18:08:37,NA,incomplete,216,filling,1,left,Red_Star_Stripes_2.jpg,Purple_Triangle_Stripes_1.jpg,Green_Plus_Grid_2.jpg,left,753,true,low,NA,NA,NA,NA,NA,NA,NA,false
TCnIYw2a,3b6f54kms5pu5knddy3sw9ki4gws13,3oonkj5dkgwi7ab6zgka70jhcovbox,TCnIYw2a,2020-0188,2020-05-07,17:47:23,18:08:37,NA,incomplete,217,filling,0,right,Purple_Star_Stripes_3.jpg,Red_Circle_Dots_3.jpg,Green_Triangle_Stripes_1.jpg,right,738,true,low,NA,NA,NA,NA,NA,NA,NA,false
TCnIYw2a,3b6f54kms5pu5knddy3sw9ki4gws13,3oonkj5dkgwi7ab6zgka70jhcovbox,TCnIYw2a,2020-0188,2020-05-07,17:47:23,18:08:37,NA,incomplete,218,filling,1,left,Blue_Triangle_Stripes_3.jpg,Red_Circle_Stripes_4.jpg,Purple_Star_Chess_3.jpg,left,791,true,low,NA,NA,NA,NA,NA,NA,NA,false
TCnIYw2a,3b6f54kms5pu5knddy3sw9ki4gws13,3oonkj5dkgwi7ab6zgka70jhcovbox,TCnIYw2a,2020-0188,2020-05-07,17:47:23,18:08:37,NA,incomplete,219,filling,0,right,Blue_Triangle_Chess_2.jpg,Green_Star_Grid_2.jpg,Purple_Plus_Chess_1.jpg,left,801,false,low,NA,NA,NA,NA,NA,NA,NA,false
TCnIYw2a,3b6f54kms5pu5knddy3sw9ki4gws13,3oonkj5dkgwi7ab6zgka70jhcovbox,TCnIYw2a,2020-0188,2020-05-07,17:47:23,18:08:37,NA,incomplete,220,number,1,right,Green_Triangle_Dots_4.jpg,Red_Star_Dots_3.jpg,Blue_Circle_Grid_4.jpg,left,747,false,low,NA,NA,NA,NA,NA,NA,NA,false
TCnIYw2a,3b6f54kms5pu5knddy3sw9ki4gws13,3oonkj5dkgwi7ab6zgka70jhcovbox,TCnIYw2a,2020-0188,2020-05-07,17:47:23,18:08:37,NA,incomplete,221,number,1,left,Blue_Triangle_Grid_3.jpg,Green_Circle_Chess_3.jpg,Red_Star_Grid_2.jpg,left,639,true,low,NA,NA,NA,NA,NA,NA,NA,false
TCnIYw2a,3b6f54kms5pu5knddy3sw9ki4gws13,3oonkj5dkgwi7ab6zgka70jhcovbox,TCnIYw2a,2020-0188,2020-05-07,17:47:23,18:08:37,NA,incomplete,222,number,0,left,Green_Circle_Grid_3.jpg,Purple_Star_Stripes_3.jpg,Blue_Triangle_Grid_2.jpg,left,742,true,low,NA,NA,NA,NA,NA,NA,NA,false
TCnIYw2a,3b6f54kms5pu5knddy3sw9ki4gws13,3oonkj5dkgwi7ab6zgka70jhcovbox,TCnIYw2a,2020-0188,2020-05-07,17:47:23,18:08:37,NA,incomplete,223,number,1,right,Purple_Triangle_Stripes_2.jpg,Green_Plus_Stripes_4.jpg,Red_Star_Grid_2.jpg,right,642,true,low,NA,NA,NA,NA,NA,NA,NA,false
TCnIYw2a,3b6f54kms5pu5knddy3sw9ki4gws13,3oonkj5dkgwi7ab6zgka70jhcovbox,TCnIYw2a,2020-0188,2020-05-07,17:47:23,18:08:37,NA,incomplete,224,number,0,left,Green_Triangle_Dots_4.jpg,Blue_Star_Stripes_4.jpg,Purple_Circle_Dots_1.jpg,left,635,true,low,NA,NA,NA,NA,NA,NA,NA,false
TCnIYw2a,3b6f54kms5pu5knddy3sw9ki4gws13,3oonkj5dkgwi7ab6zgka70jhcovbox,TCnIYw2a,2020-0188,2020-05-07,17:47:23,18:08:37,NA,incomplete,225,number,1,left,Purple_Triangle_Stripes_1.jpg,Blue_Star_Chess_1.jpg,Green_Plus_Stripes_3.jpg,right,795,false,low,NA,NA,NA,NA,NA,NA,NA,false
TCnIYw2a,3b6f54kms5pu5knddy3sw9ki4gws13,3oonkj5dkgwi7ab6zgka70jhcovbox,TCnIYw2a,2020-0188,2020-05-07,17:47:23,18:08:37,NA,incomplete,226,number,1,right,Blue_Triangle_Chess_3.jpg,Green_Plus_Chess_1.jpg,Red_Star_Stripes_3.jpg,right,693,true,low,NA,NA,NA,NA,NA,NA,NA,false
TCnIYw2a,3b6f54kms5pu5knddy3sw9ki4gws13,3oonkj5dkgwi7ab6zgka70jhcovbox,TCnIYw2a,2020-0188,2020-05-07,17:47:23,18:08:37,NA,incomplete,227,number,1,left,Red_Plus_Stripes_2.jpg,Blue_Triangle_Chess_2.jpg,Green_Star_Stripes_4.jpg,left,691,true,low,NA,NA,NA,NA,NA,NA,NA,false
TCnIYw2a,3b6f54kms5pu5knddy3sw9ki4gws13,3oonkj5dkgwi7ab6zgka70jhcovbox,TCnIYw2a,2020-0188,2020-05-07,17:47:23,18:08:37,NA,incomplete,228,number,1,left,Green_Circle_Stripes_2.jpg,Blue_Triangle_Grid_2.jpg,Purple_Star_Stripes_4.jpg,left,545,true,low,NA,NA,NA,NA,NA,NA,NA,false
TCnIYw2a,3b6f54kms5pu5knddy3sw9ki4gws13,3oonkj5dkgwi7ab6zgka70jhcovbox,TCnIYw2a,2020-0188,2020-05-07,17:47:23,18:08:37,NA,incomplete,229,number,1,right,Blue_Triangle_Grid_4.jpg,Purple_Star_Grid_2.jpg,Green_Circle_Stripes_4.jpg,right,597,true,low,NA,NA,NA,NA,NA,NA,NA,false
TCnIYw2a,3b6f54kms5pu5knddy3sw9ki4gws13,3oonkj5dkgwi7ab6zgka70jhcovbox,TCnIYw2a,2020-0188,2020-05-07,17:47:23,18:08:37,NA,incomplete,230,number,1,right,Purple_Plus_Grid_3.jpg,Red_Circle_Grid_2.jpg,Blue_Star_Stripes_3.jpg,right,623,true,low,NA,NA,NA,NA,NA,NA,NA,false
TCnIYw2a,3b6f54kms5pu5knddy3sw9ki4gws13,3oonkj5dkgwi7ab6zgka70jhcovbox,TCnIYw2a,2020-0188,2020-05-07,17:47:23,18:08:37,NA,incomplete,231,number,0,right,Green_Triangle_Dots_1.jpg,Red_Plus_Dots_2.jpg,Purple_Circle_Grid_1.jpg,right,600,true,low,NA,NA,NA,NA,NA,NA,NA,false
TCnIYw2a,3b6f54kms5pu5knddy3sw9ki4gws13,3oonkj5dkgwi7ab6zgka70jhcovbox,TCnIYw2a,2020-0188,2020-05-07,17:47:23,18:08:37,NA,incomplete,232,number,1,right,Blue_Star_Grid_4.jpg,Purple_Triangle_Grid_3.jpg,Red_Circle_Dots_4.jpg,right,674,true,low,NA,NA,NA,NA,NA,NA,NA,false
TCnIYw2a,3b6f54kms5pu5knddy3sw9ki4gws13,3oonkj5dkgwi7ab6zgka70jhcovbox,TCnIYw2a,2020-0188,2020-05-07,17:47:23,18:08:37,NA,incomplete,233,number,1,left,Blue_Circle_Chess_1.jpg,Red_Triangle_Dots_1.jpg,Purple_Plus_Chess_2.jpg,left,544,true,low,NA,NA,NA,NA,NA,NA,NA,false
TCnIYw2a,3b6f54kms5pu5knddy3sw9ki4gws13,3oonkj5dkgwi7ab6zgka70jhcovbox,TCnIYw2a,2020-0188,2020-05-07,17:47:23,18:08:37,NA,incomplete,234,number,1,left,Purple_Triangle_Grid_3.jpg,Blue_Star_Chess_3.jpg,Green_Plus_Grid_2.jpg,left,795,true,low,NA,NA,NA,NA,NA,NA,NA,false
TCnIYw2a,3b6f54kms5pu5knddy3sw9ki4gws13,3oonkj5dkgwi7ab6zgka70jhcovbox,TCnIYw2a,2020-0188,2020-05-07,17:47:23,18:08:37,NA,incomplete,235,number,1,right,Green_Triangle_Chess_4.jpg,Purple_Star_Chess_3.jpg,Blue_Circle_Grid_4.jpg,right,591,true,low,NA,NA,NA,NA,NA,NA,NA,false
TCnIYw2a,3b6f54kms5pu5knddy3sw9ki4gws13,3oonkj5dkgwi7ab6zgka70jhcovbox,TCnIYw2a,2020-0188,2020-05-07,17:47:23,18:08:37,NA,incomplete,236,number,1,left,Green_Star_Stripes_1.jpg,Red_Triangle_Chess_1.jpg,Blue_Plus_Stripes_3.jpg,left,536,true,low,NA,NA,NA,NA,NA,NA,NA,false
TCnIYw2a,3b6f54kms5pu5knddy3sw9ki4gws13,3oonkj5dkgwi7ab6zgka70jhcovbox,TCnIYw2a,2020-0188,2020-05-07,17:47:23,18:08:37,NA,incomplete,237,number,1,right,Red_Triangle_Grid_2.jpg,Green_Star_Grid_1.jpg,Purple_Plus_Dots_2.jpg,right,573,true,low,NA,NA,NA,NA,NA,NA,NA,false
TCnIYw2a,3b6f54kms5pu5knddy3sw9ki4gws13,3oonkj5dkgwi7ab6zgka70jhcovbox,TCnIYw2a,2020-0188,2020-05-07,17:47:23,18:08:37,NA,incomplete,238,number,0,right,Purple_Star_Grid_4.jpg,Green_Triangle_Grid_1.jpg,Red_Circle_Stripes_4.jpg,right,590,true,low,NA,NA,NA,NA,NA,NA,NA,false
TCnIYw2a,3b6f54kms5pu5knddy3sw9ki4gws13,3oonkj5dkgwi7ab6zgka70jhcovbox,TCnIYw2a,2020-0188,2020-05-07,17:47:23,18:08:37,NA,incomplete,239,number,1,left,Green_Plus_Dots_3.jpg,Purple_Star_Grid_3.jpg,Blue_Triangle_Dots_2.jpg,left,601,true,low,NA,NA,NA,NA,NA,NA,NA,false
TCnIYw2a,3b6f54kms5pu5knddy3sw9ki4gws13,3oonkj5dkgwi7ab6zgka70jhcovbox,TCnIYw2a,2020-0188,2020-05-07,17:47:23,18:08:37,1253348,1275242,NA,NA,NA,NA,NA,NA,NA,NA,NA,NA,NA,34,White/Caucasian,Do not wish to reply,White,no,yes,no,undefined
