workerId,hitId,assignmentId,subject,studyid,exp_date,exp_start,exp_end,time_start,time_end,trial,type,reward_validity,answer,image_top,image_left,image_right,response,response_time,response_acc,volatility,age,race,gender,ethnicity,color,vision,neuro,practice
FhgSYHWF,3ka7ijsnx9iy5qpdnesn7gsg38gpb3,3os46crsljc7ri3841pgrcrxuggv6x,FhgSYHWF,2020-0188,2020-05-07,16:44:23,17:02:12,NA,incomplete,0,filling,0,left,Green_Star_Stripes_3.jpg,Purple_Circle_Stripes_2.jpg,Blue_Star_Dots_1.jpg,left,1705.5450000043493,true,NA,NA,NA,NA,NA,NA,NA,NA,true
FhgSYHWF,3ka7ijsnx9iy5qpdnesn7gsg38gpb3,3os46crsljc7ri3841pgrcrxuggv6x,FhgSYHWF,2020-0188,2020-05-07,16:44:23,17:02:12,NA,incomplete,1,filling,1,right,Red_Triangle_Grid_2.jpg,Green_Triangle_Dots_3.jpg,Blue_Star_Grid_1.jpg,right,1408.6700000043493,true,NA,NA,NA,NA,NA,NA,NA,NA,true
FhgSYHWF,3ka7ijsnx9iy5qpdnesn7gsg38gpb3,3os46crsljc7ri3841pgrcrxuggv6x,FhgSYHWF,2020-0188,2020-05-07,16:44:23,17:02:12,NA,incomplete,2,filling,0,right,Blue_Star_Chess_2.jpg,Green_Star_Grid_3.jpg,Red_Triangle_Chess_1.jpg,right,1277.6400000147987,true,NA,NA,NA,NA,NA,NA,NA,NA,true
FhgSYHWF,3ka7ijsnx9iy5qpdnesn7gsg38gpb3,3os46crsljc7ri3841pgrcrxuggv6x,FhgSYHWF,2020-0188,2020-05-07,16:44:23,17:02:12,NA,incomplete,3,filling,1,left,Blue_Circle_Chess_3.jpg,Red_Triangle_Chess_4.jpg,Purple_Circle_Grid_2.jpg,left,1121.3350000034552,true,NA,NA,NA,NA,NA,NA,NA,NA,true
FhgSYHWF,3ka7ijsnx9iy5qpdnesn7gsg38gpb3,3os46crsljc7ri3841pgrcrxuggv6x,FhgSYHWF,2020-0188,2020-05-07,16:44:23,17:02:12,NA,incomplete,4,filling,0,left,Red_Circle_Dots_2.jpg,Green_Triangle_Dots_1.jpg,Purple_Circle_Chess_4.jpg,left,1010.115000011865,true,NA,NA,NA,NA,NA,NA,NA,NA,true
FhgSYHWF,3ka7ijsnx9iy5qpdnesn7gsg38gpb3,3os46crsljc7ri3841pgrcrxuggv6x,FhgSYHWF,2020-0188,2020-05-07,16:44:23,17:02:12,NA,incomplete,5,filling,1,right,Red_Triangle_Stripes_4.jpg,Blue_Triangle_Dots_2.jpg,Purple_Circle_Stripes_1.jpg,right,1062.8999999898952,true,NA,NA,NA,NA,NA,NA,NA,NA,true
FhgSYHWF,3ka7ijsnx9iy5qpdnesn7gsg38gpb3,3os46crsljc7ri3841pgrcrxuggv6x,FhgSYHWF,2020-0188,2020-05-07,16:44:23,17:02:12,NA,incomplete,6,filling,1,right,Green_Triangle_Dots_2.jpg,Purple_Triangle_Grid_1.jpg,Red_Circle_Dots_3.jpg,right,1113.7499999895226,true,NA,NA,NA,NA,NA,NA,NA,NA,true
FhgSYHWF,3ka7ijsnx9iy5qpdnesn7gsg38gpb3,3os46crsljc7ri3841pgrcrxuggv6x,FhgSYHWF,2020-0188,2020-05-07,16:44:23,17:02:12,NA,incomplete,7,filling,1,right,Red_Plus_Grid_1.jpg,Green_Plus_Chess_3.jpg,Purple_Star_Grid_2.jpg,left,1550.5650000122841,false,NA,NA,NA,NA,NA,NA,NA,NA,true
FhgSYHWF,3ka7ijsnx9iy5qpdnesn7gsg38gpb3,3os46crsljc7ri3841pgrcrxuggv6x,FhgSYHWF,2020-0188,2020-05-07,16:44:23,17:02:12,NA,incomplete,8,filling,0,right,Red_Circle_Dots_2.jpg,Green_Circle_Chess_4.jpg,Purple_Plus_Dots_1.jpg,right,1649.9999999941792,true,NA,NA,NA,NA,NA,NA,NA,NA,true
FhgSYHWF,3ka7ijsnx9iy5qpdnesn7gsg38gpb3,3os46crsljc7ri3841pgrcrxuggv6x,FhgSYHWF,2020-0188,2020-05-07,16:44:23,17:02:12,NA,incomplete,9,filling,1,left,Green_Circle_Grid_1.jpg,Purple_Star_Grid_2.jpg,Blue_Circle_Stripes_4.jpg,left,1141.1950000037905,true,NA,NA,NA,NA,NA,NA,NA,NA,true
FhgSYHWF,3ka7ijsnx9iy5qpdnesn7gsg38gpb3,3os46crsljc7ri3841pgrcrxuggv6x,FhgSYHWF,2020-0188,2020-05-07,16:44:23,17:02:12,NA,incomplete,10,filling,1,left,Red_Circle_Dots_1.jpg,Purple_Triangle_Dots_2.jpg,Blue_Circle_Stripes_3.jpg,left,972.6199999859091,true,NA,NA,NA,NA,NA,NA,NA,NA,true
FhgSYHWF,3ka7ijsnx9iy5qpdnesn7gsg38gpb3,3os46crsljc7ri3841pgrcrxuggv6x,FhgSYHWF,2020-0188,2020-05-07,16:44:23,17:02:12,NA,incomplete,11,filling,1,left,Red_Star_Grid_2.jpg,Green_Circle_Grid_1.jpg,Blue_Star_Stripes_3.jpg,left,1365.5799999833107,true,NA,NA,NA,NA,NA,NA,NA,NA,true
FhgSYHWF,3ka7ijsnx9iy5qpdnesn7gsg38gpb3,3os46crsljc7ri3841pgrcrxuggv6x,FhgSYHWF,2020-0188,2020-05-07,16:44:23,17:02:12,NA,incomplete,12,filling,1,right,Green_Triangle_Dots_3.jpg,Blue_Triangle_Stripes_1.jpg,Purple_Star_Dots_2.jpg,right,1363.6100000003353,true,NA,NA,NA,NA,NA,NA,NA,NA,true
FhgSYHWF,3ka7ijsnx9iy5qpdnesn7gsg38gpb3,3os46crsljc7ri3841pgrcrxuggv6x,FhgSYHWF,2020-0188,2020-05-07,16:44:23,17:02:12,NA,incomplete,13,filling,0,left,Green_Plus_Grid_1.jpg,Purple_Star_Grid_2.jpg,Red_Plus_Stripes_3.jpg,left,1346.4749999984633,true,NA,NA,NA,NA,NA,NA,NA,NA,true
FhgSYHWF,3ka7ijsnx9iy5qpdnesn7gsg38gpb3,3os46crsljc7ri3841pgrcrxuggv6x,FhgSYHWF,2020-0188,2020-05-07,16:44:23,17:02:12,NA,incomplete,14,filling,1,right,Blue_Triangle_Stripes_2.jpg,Purple_Triangle_Grid_4.jpg,Red_Star_Stripes_1.jpg,right,1197.970000008354,true,NA,NA,NA,NA,NA,NA,NA,NA,true
FhgSYHWF,3ka7ijsnx9iy5qpdnesn7gsg38gpb3,3os46crsljc7ri3841pgrcrxuggv6x,FhgSYHWF,2020-0188,2020-05-07,16:44:23,17:02:12,NA,incomplete,15,filling,0,left,Red_Triangle_Chess_4.jpg,Blue_Plus_Chess_3.jpg,Purple_Triangle_Dots_1.jpg,left,1104.734999971697,true,NA,NA,NA,NA,NA,NA,NA,NA,true
FhgSYHWF,3ka7ijsnx9iy5qpdnesn7gsg38gpb3,3os46crsljc7ri3841pgrcrxuggv6x,FhgSYHWF,2020-0188,2020-05-07,16:44:23,17:02:12,NA,incomplete,16,filling,1,right,Green_Circle_Chess_4.jpg,Red_Circle_Grid_3.jpg,Purple_Triangle_Chess_1.jpg,right,1313.575000007404,true,NA,NA,NA,NA,NA,NA,NA,NA,true
FhgSYHWF,3ka7ijsnx9iy5qpdnesn7gsg38gpb3,3os46crsljc7ri3841pgrcrxuggv6x,FhgSYHWF,2020-0188,2020-05-07,16:44:23,17:02:12,NA,incomplete,17,filling,1,left,Green_Plus_Grid_2.jpg,Purple_Star_Grid_4.jpg,Red_Plus_Chess_3.jpg,left,1434.4550000096206,true,NA,NA,NA,NA,NA,NA,NA,NA,true
FhgSYHWF,3ka7ijsnx9iy5qpdnesn7gsg38gpb3,3os46crsljc7ri3841pgrcrxuggv6x,FhgSYHWF,2020-0188,2020-05-07,16:44:23,17:02:12,NA,incomplete,18,filling,1,right,Purple_Triangle_Grid_1.jpg,Red_Triangle_Dots_2.jpg,Green_Star_Grid_4.jpg,right,1161.8650000018533,true,NA,NA,NA,NA,NA,NA,NA,NA,true
FhgSYHWF,3ka7ijsnx9iy5qpdnesn7gsg38gpb3,3os46crsljc7ri3841pgrcrxuggv6x,FhgSYHWF,2020-0188,2020-05-07,16:44:23,17:02:12,NA,incomplete,19,filling,0,left,Red_Triangle_Dots_2.jpg,Blue_Star_Dots_4.jpg,Purple_Triangle_Stripes_3.jpg,left,1079.4049999967683,true,NA,NA,NA,NA,NA,NA,NA,NA,true
FhgSYHWF,3ka7ijsnx9iy5qpdnesn7gsg38gpb3,3os46crsljc7ri3841pgrcrxuggv6x,FhgSYHWF,2020-0188,2020-05-07,16:44:23,17:02:12,NA,incomplete,20,shape,1,right,Green_Triangle_Grid_1.jpg,Red_Star_Grid_2.jpg,Blue_Triangle_Stripes_4.jpg,right,863.3449999906588,true,NA,NA,NA,NA,NA,NA,NA,NA,true
FhgSYHWF,3ka7ijsnx9iy5qpdnesn7gsg38gpb3,3os46crsljc7ri3841pgrcrxuggv6x,FhgSYHWF,2020-0188,2020-05-07,16:44:23,17:02:12,NA,incomplete,21,shape,1,right,Red_Star_Grid_4.jpg,Green_Circle_Grid_1.jpg,Purple_Star_Stripes_3.jpg,right,901.9250000128523,true,NA,NA,NA,NA,NA,NA,NA,NA,true
FhgSYHWF,3ka7ijsnx9iy5qpdnesn7gsg38gpb3,3os46crsljc7ri3841pgrcrxuggv6x,FhgSYHWF,2020-0188,2020-05-07,16:44:23,17:02:12,NA,incomplete,22,shape,1,right,Blue_Circle_Chess_3.jpg,Green_Plus_Chess_2.jpg,Red_Circle_Dots_1.jpg,right,717.2650000138674,true,NA,NA,NA,NA,NA,NA,NA,NA,true
FhgSYHWF,3ka7ijsnx9iy5qpdnesn7gsg38gpb3,3os46crsljc7ri3841pgrcrxuggv6x,FhgSYHWF,2020-0188,2020-05-07,16:44:23,17:02:12,NA,incomplete,23,shape,0,right,Green_Triangle_Stripes_2.jpg,Red_Plus_Stripes_1.jpg,Purple_Triangle_Chess_4.jpg,left,1148.094999982277,false,NA,NA,NA,NA,NA,NA,NA,NA,true
FhgSYHWF,3ka7ijsnx9iy5qpdnesn7gsg38gpb3,3os46crsljc7ri3841pgrcrxuggv6x,FhgSYHWF,2020-0188,2020-05-07,16:44:23,17:02:12,NA,incomplete,24,shape,1,right,Blue_Triangle_Dots_2.jpg,Red_Star_Dots_1.jpg,Purple_Triangle_Chess_3.jpg,right,792.9549999826122,true,NA,NA,NA,NA,NA,NA,NA,NA,true
FhgSYHWF,3ka7ijsnx9iy5qpdnesn7gsg38gpb3,3os46crsljc7ri3841pgrcrxuggv6x,FhgSYHWF,2020-0188,2020-05-07,16:44:23,17:02:12,NA,incomplete,25,shape,1,right,Green_Circle_Grid_2.jpg,Purple_Plus_Grid_4.jpg,Red_Circle_Chess_3.jpg,right,761.9249999988824,true,NA,NA,NA,NA,NA,NA,NA,NA,true
FhgSYHWF,3ka7ijsnx9iy5qpdnesn7gsg38gpb3,3os46crsljc7ri3841pgrcrxuggv6x,FhgSYHWF,2020-0188,2020-05-07,16:44:23,17:02:12,NA,incomplete,26,shape,1,right,Purple_Circle_Stripes_3.jpg,Green_Triangle_Stripes_2.jpg,Blue_Circle_Grid_1.jpg,right,671.684999979334,true,NA,NA,NA,NA,NA,NA,NA,NA,true
FhgSYHWF,3ka7ijsnx9iy5qpdnesn7gsg38gpb3,3os46crsljc7ri3841pgrcrxuggv6x,FhgSYHWF,2020-0188,2020-05-07,16:44:23,17:02:12,NA,incomplete,27,shape,1,right,Red_Triangle_Dots_1.jpg,Purple_Star_Dots_2.jpg,Green_Triangle_Grid_4.jpg,right,667.6799999841023,true,NA,NA,NA,NA,NA,NA,NA,NA,true
FhgSYHWF,3ka7ijsnx9iy5qpdnesn7gsg38gpb3,3os46crsljc7ri3841pgrcrxuggv6x,FhgSYHWF,2020-0188,2020-05-07,16:44:23,17:02:12,NA,incomplete,28,shape,1,left,Blue_Circle_Dots_3.jpg,Purple_Circle_Grid_1.jpg,Red_Triangle_Dots_4.jpg,left,721.7599999858066,true,NA,NA,NA,NA,NA,NA,NA,NA,true
FhgSYHWF,3ka7ijsnx9iy5qpdnesn7gsg38gpb3,3os46crsljc7ri3841pgrcrxuggv6x,FhgSYHWF,2020-0188,2020-05-07,16:44:23,17:02:12,NA,incomplete,29,shape,1,right,Green_Triangle_Dots_1.jpg,Blue_Star_Dots_4.jpg,Purple_Triangle_Grid_2.jpg,right,674.9699999927543,true,NA,NA,NA,NA,NA,NA,NA,NA,true
FhgSYHWF,3ka7ijsnx9iy5qpdnesn7gsg38gpb3,3os46crsljc7ri3841pgrcrxuggv6x,FhgSYHWF,2020-0188,2020-05-07,16:44:23,17:02:12,NA,incomplete,30,shape,1,left,Blue_Star_Dots_3.jpg,Red_Star_Stripes_2.jpg,Purple_Circle_Dots_1.jpg,left,733.6599999980535,true,NA,NA,NA,NA,NA,NA,NA,NA,true
FhgSYHWF,3ka7ijsnx9iy5qpdnesn7gsg38gpb3,3os46crsljc7ri3841pgrcrxuggv6x,FhgSYHWF,2020-0188,2020-05-07,16:44:23,17:02:12,NA,incomplete,31,shape,1,left,Blue_Triangle_Stripes_4.jpg,Purple_Triangle_Dots_3.jpg,Red_Plus_Stripes_2.jpg,left,871.6349999886006,true,NA,NA,NA,NA,NA,NA,NA,NA,true
FhgSYHWF,3ka7ijsnx9iy5qpdnesn7gsg38gpb3,3os46crsljc7ri3841pgrcrxuggv6x,FhgSYHWF,2020-0188,2020-05-07,16:44:23,17:02:12,NA,incomplete,32,shape,1,right,Red_Triangle_Stripes_3.jpg,Purple_Star_Stripes_1.jpg,Green_Triangle_Chess_4.jpg,right,695.9099999803584,true,NA,NA,NA,NA,NA,NA,NA,NA,true
FhgSYHWF,3ka7ijsnx9iy5qpdnesn7gsg38gpb3,3os46crsljc7ri3841pgrcrxuggv6x,FhgSYHWF,2020-0188,2020-05-07,16:44:23,17:02:12,NA,incomplete,33,shape,1,right,Blue_Circle_Grid_2.jpg,Red_Triangle_Grid_4.jpg,Green_Circle_Stripes_3.jpg,right,1058.5099999734666,true,NA,NA,NA,NA,NA,NA,NA,NA,true
FhgSYHWF,3ka7ijsnx9iy5qpdnesn7gsg38gpb3,3os46crsljc7ri3841pgrcrxuggv6x,FhgSYHWF,2020-0188,2020-05-07,16:44:23,17:02:12,NA,incomplete,34,shape,1,left,Red_Circle_Dots_4.jpg,Blue_Circle_Grid_2.jpg,Purple_Star_Dots_1.jpg,left,722.0649999799207,true,NA,NA,NA,NA,NA,NA,NA,NA,true
FhgSYHWF,3ka7ijsnx9iy5qpdnesn7gsg38gpb3,3os46crsljc7ri3841pgrcrxuggv6x,FhgSYHWF,2020-0188,2020-05-07,16:44:23,17:02:12,NA,incomplete,35,shape,1,right,Red_Star_Grid_3.jpg,Green_Circle_Grid_1.jpg,Blue_Star_Stripes_2.jpg,right,618.1650000216905,true,NA,NA,NA,NA,NA,NA,NA,NA,true
FhgSYHWF,3ka7ijsnx9iy5qpdnesn7gsg38gpb3,3os46crsljc7ri3841pgrcrxuggv6x,FhgSYHWF,2020-0188,2020-05-07,16:44:23,17:02:12,NA,incomplete,36,shape,1,right,Blue_Star_Stripes_2.jpg,Green_Triangle_Stripes_3.jpg,Red_Star_Grid_4.jpg,left,893.5549999878276,false,NA,NA,NA,NA,NA,NA,NA,NA,true
FhgSYHWF,3ka7ijsnx9iy5qpdnesn7gsg38gpb3,3os46crsljc7ri3841pgrcrxuggv6x,FhgSYHWF,2020-0188,2020-05-07,16:44:23,17:02:12,NA,incomplete,37,shape,1,left,Purple_Star_Chess_3.jpg,Red_Star_Grid_2.jpg,Green_Plus_Chess_4.jpg,left,794.6700000029523,true,NA,NA,NA,NA,NA,NA,NA,NA,true
FhgSYHWF,3ka7ijsnx9iy5qpdnesn7gsg38gpb3,3os46crsljc7ri3841pgrcrxuggv6x,FhgSYHWF,2020-0188,2020-05-07,16:44:23,17:02:12,NA,incomplete,38,shape,1,left,Green_Plus_Dots_1.jpg,Blue_Plus_Chess_2.jpg,Red_Circle_Dots_4.jpg,left,723.4499999904074,true,NA,NA,NA,NA,NA,NA,NA,NA,true
FhgSYHWF,3ka7ijsnx9iy5qpdnesn7gsg38gpb3,3os46crsljc7ri3841pgrcrxuggv6x,FhgSYHWF,2020-0188,2020-05-07,16:44:23,17:02:12,NA,incomplete,39,shape,1,right,Blue_Triangle_Chess_4.jpg,Purple_Star_Chess_3.jpg,Green_Triangle_Stripes_1.jpg,right,788.7850000115577,true,NA,NA,NA,NA,NA,NA,NA,NA,true
FhgSYHWF,3ka7ijsnx9iy5qpdnesn7gsg38gpb3,3os46crsljc7ri3841pgrcrxuggv6x,FhgSYHWF,2020-0188,2020-05-07,16:44:23,17:02:12,NA,incomplete,0,filling,1,right,Blue_Circle_Stripes_1.jpg,Purple_Circle_Dots_2.jpg,Green_Triangle_Stripes_3.jpg,left,822.6100000028964,false,low,NA,NA,NA,NA,NA,NA,NA,false
FhgSYHWF,3ka7ijsnx9iy5qpdnesn7gsg38gpb3,3os46crsljc7ri3841pgrcrxuggv6x,FhgSYHWF,2020-0188,2020-05-07,16:44:23,17:02:12,NA,incomplete,1,filling,1,right,Blue_Triangle_Dots_2.jpg,Red_Triangle_Grid_4.jpg,Green_Star_Dots_3.jpg,left,842.720000015106,false,low,NA,NA,NA,NA,NA,NA,NA,false
FhgSYHWF,3ka7ijsnx9iy5qpdnesn7gsg38gpb3,3os46crsljc7ri3841pgrcrxuggv6x,FhgSYHWF,2020-0188,2020-05-07,16:44:23,17:02:12,NA,incomplete,2,filling,1,left,Purple_Circle_Chess_3.jpg,Green_Triangle_Chess_2.jpg,Blue_Circle_Grid_1.jpg,left,1155.174999992596,true,low,NA,NA,NA,NA,NA,NA,NA,false
FhgSYHWF,3ka7ijsnx9iy5qpdnesn7gsg38gpb3,3os46crsljc7ri3841pgrcrxuggv6x,FhgSYHWF,2020-0188,2020-05-07,16:44:23,17:02:12,NA,incomplete,3,filling,1,right,Red_Triangle_Dots_1.jpg,Green_Triangle_Chess_2.jpg,Purple_Plus_Dots_4.jpg,right,1401.0249999992084,true,low,NA,NA,NA,NA,NA,NA,NA,false
FhgSYHWF,3ka7ijsnx9iy5qpdnesn7gsg38gpb3,3os46crsljc7ri3841pgrcrxuggv6x,FhgSYHWF,2020-0188,2020-05-07,16:44:23,17:02:12,NA,incomplete,4,filling,0,right,Blue_Circle_Stripes_1.jpg,Green_Circle_Chess_3.jpg,Purple_Plus_Stripes_2.jpg,right,981.0850000067148,true,low,NA,NA,NA,NA,NA,NA,NA,false
FhgSYHWF,3ka7ijsnx9iy5qpdnesn7gsg38gpb3,3os46crsljc7ri3841pgrcrxuggv6x,FhgSYHWF,2020-0188,2020-05-07,16:44:23,17:02:12,NA,incomplete,5,filling,1,right,Green_Plus_Grid_4.jpg,Purple_Plus_Chess_1.jpg,Blue_Circle_Grid_2.jpg,right,1325.23499999661,true,low,NA,NA,NA,NA,NA,NA,NA,false
FhgSYHWF,3ka7ijsnx9iy5qpdnesn7gsg38gpb3,3os46crsljc7ri3841pgrcrxuggv6x,FhgSYHWF,2020-0188,2020-05-07,16:44:23,17:02:12,NA,incomplete,6,filling,1,left,Purple_Triangle_Grid_3.jpg,Green_Plus_Grid_4.jpg,Blue_Triangle_Stripes_1.jpg,left,1005.0350000092294,true,low,NA,NA,NA,NA,NA,NA,NA,false
FhgSYHWF,3ka7ijsnx9iy5qpdnesn7gsg38gpb3,3os46crsljc7ri3841pgrcrxuggv6x,FhgSYHWF,2020-0188,2020-05-07,16:44:23,17:02:12,NA,incomplete,7,filling,0,right,Blue_Triangle_Stripes_2.jpg,Green_Triangle_Chess_4.jpg,Red_Star_Stripes_3.jpg,right,904.4549999816809,true,low,NA,NA,NA,NA,NA,NA,NA,false
FhgSYHWF,3ka7ijsnx9iy5qpdnesn7gsg38gpb3,3os46crsljc7ri3841pgrcrxuggv6x,FhgSYHWF,2020-0188,2020-05-07,16:44:23,17:02:12,NA,incomplete,8,filling,1,right,Green_Star_Chess_1.jpg,Purple_Star_Grid_4.jpg,Red_Triangle_Chess_2.jpg,right,1020.7750000117812,true,low,NA,NA,NA,NA,NA,NA,NA,false
FhgSYHWF,3ka7ijsnx9iy5qpdnesn7gsg38gpb3,3os46crsljc7ri3841pgrcrxuggv6x,FhgSYHWF,2020-0188,2020-05-07,16:44:23,17:02:12,NA,incomplete,9,filling,1,left,Purple_Plus_Grid_2.jpg,Red_Circle_Grid_1.jpg,Green_Plus_Chess_4.jpg,left,1003.370000020368,true,low,NA,NA,NA,NA,NA,NA,NA,false
FhgSYHWF,3ka7ijsnx9iy5qpdnesn7gsg38gpb3,3os46crsljc7ri3841pgrcrxuggv6x,FhgSYHWF,2020-0188,2020-05-07,16:44:23,17:02:12,NA,incomplete,10,filling,1,right,Green_Triangle_Chess_1.jpg,Blue_Triangle_Grid_3.jpg,Red_Circle_Chess_2.jpg,right,918.5850000067148,true,low,NA,NA,NA,NA,NA,NA,NA,false
FhgSYHWF,3ka7ijsnx9iy5qpdnesn7gsg38gpb3,3os46crsljc7ri3841pgrcrxuggv6x,FhgSYHWF,2020-0188,2020-05-07,16:44:23,17:02:12,NA,incomplete,11,filling,1,right,Green_Star_Stripes_1.jpg,Red_Star_Grid_4.jpg,Blue_Triangle_Stripes_3.jpg,right,881.4049999928102,true,low,NA,NA,NA,NA,NA,NA,NA,false
FhgSYHWF,3ka7ijsnx9iy5qpdnesn7gsg38gpb3,3os46crsljc7ri3841pgrcrxuggv6x,FhgSYHWF,2020-0188,2020-05-07,16:44:23,17:02:12,NA,incomplete,12,filling,1,right,Green_Triangle_Dots_4.jpg,Red_Triangle_Grid_1.jpg,Purple_Circle_Dots_2.jpg,right,960.9099999943282,true,low,NA,NA,NA,NA,NA,NA,NA,false
FhgSYHWF,3ka7ijsnx9iy5qpdnesn7gsg38gpb3,3os46crsljc7ri3841pgrcrxuggv6x,FhgSYHWF,2020-0188,2020-05-07,16:44:23,17:02:12,NA,incomplete,13,filling,1,left,Purple_Triangle_Chess_3.jpg,Green_Plus_Chess_4.jpg,Blue_Triangle_Stripes_2.jpg,left,1136.995000008028,true,low,NA,NA,NA,NA,NA,NA,NA,false
FhgSYHWF,3ka7ijsnx9iy5qpdnesn7gsg38gpb3,3os46crsljc7ri3841pgrcrxuggv6x,FhgSYHWF,2020-0188,2020-05-07,16:44:23,17:02:12,NA,incomplete,14,filling,0,left,Green_Star_Chess_3.jpg,Red_Triangle_Chess_1.jpg,Purple_Star_Stripes_2.jpg,left,1152.5849999743514,true,low,NA,NA,NA,NA,NA,NA,NA,false
FhgSYHWF,3ka7ijsnx9iy5qpdnesn7gsg38gpb3,3os46crsljc7ri3841pgrcrxuggv6x,FhgSYHWF,2020-0188,2020-05-07,16:44:23,17:02:12,NA,incomplete,15,filling,1,left,Green_Triangle_Dots_4.jpg,Red_Star_Dots_1.jpg,Purple_Triangle_Chess_2.jpg,left,962.8000000084285,true,low,NA,NA,NA,NA,NA,NA,NA,false
FhgSYHWF,3ka7ijsnx9iy5qpdnesn7gsg38gpb3,3os46crsljc7ri3841pgrcrxuggv6x,FhgSYHWF,2020-0188,2020-05-07,16:44:23,17:02:12,NA,incomplete,16,filling,1,right,Blue_Star_Chess_4.jpg,Green_Star_Dots_3.jpg,Purple_Circle_Chess_1.jpg,right,1025.8049999829382,true,low,NA,NA,NA,NA,NA,NA,NA,false
FhgSYHWF,3ka7ijsnx9iy5qpdnesn7gsg38gpb3,3os46crsljc7ri3841pgrcrxuggv6x,FhgSYHWF,2020-0188,2020-05-07,16:44:23,17:02:12,NA,incomplete,17,filling,1,right,Red_Star_Stripes_4.jpg,Blue_Star_Dots_2.jpg,Purple_Plus_Stripes_3.jpg,right,904.9600000143982,true,low,NA,NA,NA,NA,NA,NA,NA,false
FhgSYHWF,3ka7ijsnx9iy5qpdnesn7gsg38gpb3,3os46crsljc7ri3841pgrcrxuggv6x,FhgSYHWF,2020-0188,2020-05-07,16:44:23,17:02:12,NA,incomplete,18,filling,1,right,Red_Circle_Stripes_1.jpg,Blue_Circle_Chess_4.jpg,Green_Plus_Stripes_2.jpg,right,997.2350000170991,true,low,NA,NA,NA,NA,NA,NA,NA,false
FhgSYHWF,3ka7ijsnx9iy5qpdnesn7gsg38gpb3,3os46crsljc7ri3841pgrcrxuggv6x,FhgSYHWF,2020-0188,2020-05-07,16:44:23,17:02:12,NA,incomplete,19,filling,1,left,Blue_Circle_Dots_4.jpg,Red_Plus_Dots_2.jpg,Green_Circle_Grid_1.jpg,left,937.0850000123028,true,low,NA,NA,NA,NA,NA,NA,NA,false
FhgSYHWF,3ka7ijsnx9iy5qpdnesn7gsg38gpb3,3os46crsljc7ri3841pgrcrxuggv6x,FhgSYHWF,2020-0188,2020-05-07,16:44:23,17:02:12,NA,incomplete,20,filling,1,left,Blue_Star_Dots_4.jpg,Green_Triangle_Dots_3.jpg,Purple_Star_Grid_1.jpg,left,970.6749999895692,true,low,NA,NA,NA,NA,NA,NA,NA,false
FhgSYHWF,3ka7ijsnx9iy5qpdnesn7gsg38gpb3,3os46crsljc7ri3841pgrcrxuggv6x,FhgSYHWF,2020-0188,2020-05-07,16:44:23,17:02:12,NA,incomplete,21,filling,1,left,Purple_Circle_Dots_3.jpg,Green_Plus_Dots_4.jpg,Red_Circle_Chess_2.jpg,left,941.3700000150129,true,low,NA,NA,NA,NA,NA,NA,NA,false
FhgSYHWF,3ka7ijsnx9iy5qpdnesn7gsg38gpb3,3os46crsljc7ri3841pgrcrxuggv6x,FhgSYHWF,2020-0188,2020-05-07,16:44:23,17:02:12,NA,incomplete,22,filling,1,right,Purple_Plus_Dots_3.jpg,Red_Plus_Chess_1.jpg,Green_Star_Dots_4.jpg,right,973.5249999794178,true,low,NA,NA,NA,NA,NA,NA,NA,false
FhgSYHWF,3ka7ijsnx9iy5qpdnesn7gsg38gpb3,3os46crsljc7ri3841pgrcrxuggv6x,FhgSYHWF,2020-0188,2020-05-07,16:44:23,17:02:12,NA,incomplete,23,filling,0,left,Blue_Triangle_Stripes_1.jpg,Red_Star_Stripes_4.jpg,Purple_Triangle_Chess_3.jpg,left,961.5449999982957,true,low,NA,NA,NA,NA,NA,NA,NA,false
FhgSYHWF,3ka7ijsnx9iy5qpdnesn7gsg38gpb3,3os46crsljc7ri3841pgrcrxuggv6x,FhgSYHWF,2020-0188,2020-05-07,16:44:23,17:02:12,NA,incomplete,24,filling,1,left,Red_Plus_Grid_1.jpg,Purple_Circle_Grid_3.jpg,Blue_Plus_Stripes_4.jpg,left,1226.5149999875575,true,low,NA,NA,NA,NA,NA,NA,NA,false
FhgSYHWF,3ka7ijsnx9iy5qpdnesn7gsg38gpb3,3os46crsljc7ri3841pgrcrxuggv6x,FhgSYHWF,2020-0188,2020-05-07,16:44:23,17:02:12,NA,incomplete,25,filling,1,left,Green_Star_Chess_4.jpg,Red_Circle_Chess_3.jpg,Blue_Star_Dots_2.jpg,left,946.3600000017323,true,low,NA,NA,NA,NA,NA,NA,NA,false
FhgSYHWF,3ka7ijsnx9iy5qpdnesn7gsg38gpb3,3os46crsljc7ri3841pgrcrxuggv6x,FhgSYHWF,2020-0188,2020-05-07,16:44:23,17:02:12,NA,incomplete,26,filling,0,right,Blue_Triangle_Stripes_4.jpg,Red_Triangle_Grid_1.jpg,Purple_Star_Stripes_2.jpg,right,946.4150000130758,true,low,NA,NA,NA,NA,NA,NA,NA,false
FhgSYHWF,3ka7ijsnx9iy5qpdnesn7gsg38gpb3,3os46crsljc7ri3841pgrcrxuggv6x,FhgSYHWF,2020-0188,2020-05-07,16:44:23,17:02:12,NA,incomplete,27,filling,1,left,Purple_Triangle_Chess_1.jpg,Blue_Plus_Chess_4.jpg,Red_Triangle_Grid_3.jpg,left,991.665000008652,true,low,NA,NA,NA,NA,NA,NA,NA,false
FhgSYHWF,3ka7ijsnx9iy5qpdnesn7gsg38gpb3,3os46crsljc7ri3841pgrcrxuggv6x,FhgSYHWF,2020-0188,2020-05-07,16:44:23,17:02:12,NA,incomplete,28,filling,1,right,Green_Circle_Chess_4.jpg,Purple_Circle_Dots_3.jpg,Blue_Plus_Chess_1.jpg,right,948.1700000178535,true,low,NA,NA,NA,NA,NA,NA,NA,false
FhgSYHWF,3ka7ijsnx9iy5qpdnesn7gsg38gpb3,3os46crsljc7ri3841pgrcrxuggv6x,FhgSYHWF,2020-0188,2020-05-07,16:44:23,17:02:12,NA,incomplete,29,filling,1,right,Red_Star_Stripes_3.jpg,Purple_Star_Dots_1.jpg,Blue_Plus_Stripes_2.jpg,right,861.3899999763817,true,low,NA,NA,NA,NA,NA,NA,NA,false
FhgSYHWF,3ka7ijsnx9iy5qpdnesn7gsg38gpb3,3os46crsljc7ri3841pgrcrxuggv6x,FhgSYHWF,2020-0188,2020-05-07,16:44:23,17:02:12,NA,incomplete,30,shape,1,left,Purple_Circle_Stripes_1.jpg,Red_Circle_Dots_2.jpg,Blue_Star_Stripes_3.jpg,right,755.6549999862909,false,low,NA,NA,NA,NA,NA,NA,NA,false
FhgSYHWF,3ka7ijsnx9iy5qpdnesn7gsg38gpb3,3os46crsljc7ri3841pgrcrxuggv6x,FhgSYHWF,2020-0188,2020-05-07,16:44:23,17:02:12,NA,incomplete,31,shape,1,right,Green_Circle_Grid_1.jpg,Red_Plus_Grid_3.jpg,Blue_Circle_Dots_2.jpg,left,893.5449999989942,false,low,NA,NA,NA,NA,NA,NA,NA,false
FhgSYHWF,3ka7ijsnx9iy5qpdnesn7gsg38gpb3,3os46crsljc7ri3841pgrcrxuggv6x,FhgSYHWF,2020-0188,2020-05-07,16:44:23,17:02:12,NA,incomplete,32,shape,1,left,Blue_Plus_Chess_4.jpg,Green_Plus_Grid_2.jpg,Purple_Star_Chess_3.jpg,right,1006.3049999880604,false,low,NA,NA,NA,NA,NA,NA,NA,false
FhgSYHWF,3ka7ijsnx9iy5qpdnesn7gsg38gpb3,3os46crsljc7ri3841pgrcrxuggv6x,FhgSYHWF,2020-0188,2020-05-07,16:44:23,17:02:12,NA,incomplete,33,shape,1,right,Red_Plus_Stripes_3.jpg,Green_Circle_Stripes_1.jpg,Blue_Plus_Grid_4.jpg,right,740.380000002915,true,low,NA,NA,NA,NA,NA,NA,NA,false
FhgSYHWF,3ka7ijsnx9iy5qpdnesn7gsg38gpb3,3os46crsljc7ri3841pgrcrxuggv6x,FhgSYHWF,2020-0188,2020-05-07,16:44:23,17:02:12,NA,incomplete,34,shape,1,left,Purple_Star_Chess_1.jpg,Green_Star_Stripes_2.jpg,Red_Plus_Chess_3.jpg,left,1272.4549999984447,true,low,NA,NA,NA,NA,NA,NA,NA,false
FhgSYHWF,3ka7ijsnx9iy5qpdnesn7gsg38gpb3,3os46crsljc7ri3841pgrcrxuggv6x,FhgSYHWF,2020-0188,2020-05-07,16:44:23,17:02:12,NA,incomplete,35,shape,1,right,Purple_Triangle_Stripes_1.jpg,Green_Circle_Stripes_3.jpg,Blue_Triangle_Dots_4.jpg,right,1336.7699999944307,true,low,NA,NA,NA,NA,NA,NA,NA,false
FhgSYHWF,3ka7ijsnx9iy5qpdnesn7gsg38gpb3,3os46crsljc7ri3841pgrcrxuggv6x,FhgSYHWF,2020-0188,2020-05-07,16:44:23,17:02:12,NA,incomplete,36,shape,1,left,Purple_Star_Stripes_2.jpg,Green_Star_Grid_4.jpg,Red_Plus_Stripes_3.jpg,left,1142.390000022715,true,low,NA,NA,NA,NA,NA,NA,NA,false
FhgSYHWF,3ka7ijsnx9iy5qpdnesn7gsg38gpb3,3os46crsljc7ri3841pgrcrxuggv6x,FhgSYHWF,2020-0188,2020-05-07,16:44:23,17:02:12,NA,incomplete,37,shape,1,left,Blue_Circle_Dots_4.jpg,Red_Circle_Stripes_2.jpg,Purple_Plus_Dots_3.jpg,left,1255.6800000020303,true,low,NA,NA,NA,NA,NA,NA,NA,false
FhgSYHWF,3ka7ijsnx9iy5qpdnesn7gsg38gpb3,3os46crsljc7ri3841pgrcrxuggv6x,FhgSYHWF,2020-0188,2020-05-07,16:44:23,17:02:12,NA,incomplete,38,shape,1,right,Red_Triangle_Dots_1.jpg,Purple_Star_Dots_4.jpg,Green_Triangle_Stripes_3.jpg,right,1037.9350000002887,true,low,NA,NA,NA,NA,NA,NA,NA,false
FhgSYHWF,3ka7ijsnx9iy5qpdnesn7gsg38gpb3,3os46crsljc7ri3841pgrcrxuggv6x,FhgSYHWF,2020-0188,2020-05-07,16:44:23,17:02:12,NA,incomplete,39,shape,1,left,Blue_Star_Dots_1.jpg,Purple_Star_Stripes_3.jpg,Red_Triangle_Dots_2.jpg,left,922.099999996135,true,low,NA,NA,NA,NA,NA,NA,NA,false
FhgSYHWF,3ka7ijsnx9iy5qpdnesn7gsg38gpb3,3os46crsljc7ri3841pgrcrxuggv6x,FhgSYHWF,2020-0188,2020-05-07,16:44:23,17:02:12,NA,incomplete,40,shape,1,left,Green_Plus_Stripes_4.jpg,Purple_Plus_Grid_2.jpg,Red_Circle_Stripes_1.jpg,left,729.6149999892805,true,low,NA,NA,NA,NA,NA,NA,NA,false
FhgSYHWF,3ka7ijsnx9iy5qpdnesn7gsg38gpb3,3os46crsljc7ri3841pgrcrxuggv6x,FhgSYHWF,2020-0188,2020-05-07,16:44:23,17:02:12,NA,incomplete,41,shape,1,right,Red_Triangle_Dots_3.jpg,Purple_Circle_Dots_2.jpg,Blue_Triangle_Stripes_1.jpg,right,735.5249999964144,true,low,NA,NA,NA,NA,NA,NA,NA,false
FhgSYHWF,3ka7ijsnx9iy5qpdnesn7gsg38gpb3,3os46crsljc7ri3841pgrcrxuggv6x,FhgSYHWF,2020-0188,2020-05-07,16:44:23,17:02:12,NA,incomplete,42,shape,1,left,Red_Triangle_Grid_1.jpg,Blue_Triangle_Chess_3.jpg,Purple_Plus_Grid_2.jpg,left,743.8750000146683,true,low,NA,NA,NA,NA,NA,NA,NA,false
FhgSYHWF,3ka7ijsnx9iy5qpdnesn7gsg38gpb3,3os46crsljc7ri3841pgrcrxuggv6x,FhgSYHWF,2020-0188,2020-05-07,16:44:23,17:02:12,NA,incomplete,43,shape,1,left,Blue_Triangle_Stripes_4.jpg,Purple_Triangle_Dots_1.jpg,Red_Star_Stripes_2.jpg,left,1072.8950000193436,true,low,NA,NA,NA,NA,NA,NA,NA,false
FhgSYHWF,3ka7ijsnx9iy5qpdnesn7gsg38gpb3,3os46crsljc7ri3841pgrcrxuggv6x,FhgSYHWF,2020-0188,2020-05-07,16:44:23,17:02:12,NA,incomplete,44,shape,1,left,Purple_Star_Dots_4.jpg,Green_Star_Chess_2.jpg,Blue_Triangle_Dots_1.jpg,left,841.8050000036601,true,low,NA,NA,NA,NA,NA,NA,NA,false
FhgSYHWF,3ka7ijsnx9iy5qpdnesn7gsg38gpb3,3os46crsljc7ri3841pgrcrxuggv6x,FhgSYHWF,2020-0188,2020-05-07,16:44:23,17:02:12,NA,incomplete,45,shape,0,left,Blue_Triangle_Grid_2.jpg,Purple_Triangle_Chess_1.jpg,Green_Circle_Grid_4.jpg,left,780.3549999953248,true,low,NA,NA,NA,NA,NA,NA,NA,false
FhgSYHWF,3ka7ijsnx9iy5qpdnesn7gsg38gpb3,3os46crsljc7ri3841pgrcrxuggv6x,FhgSYHWF,2020-0188,2020-05-07,16:44:23,17:02:12,NA,incomplete,46,shape,1,right,Red_Circle_Dots_1.jpg,Green_Triangle_Dots_4.jpg,Blue_Circle_Chess_3.jpg,right,649.0800000028685,true,low,NA,NA,NA,NA,NA,NA,NA,false
FhgSYHWF,3ka7ijsnx9iy5qpdnesn7gsg38gpb3,3os46crsljc7ri3841pgrcrxuggv6x,FhgSYHWF,2020-0188,2020-05-07,16:44:23,17:02:12,NA,incomplete,47,shape,1,right,Red_Plus_Stripes_4.jpg,Green_Triangle_Stripes_2.jpg,Blue_Plus_Dots_3.jpg,right,775.7050000072923,true,low,NA,NA,NA,NA,NA,NA,NA,false
FhgSYHWF,3ka7ijsnx9iy5qpdnesn7gsg38gpb3,3os46crsljc7ri3841pgrcrxuggv6x,FhgSYHWF,2020-0188,2020-05-07,16:44:23,17:02:12,NA,incomplete,48,shape,1,left,Purple_Star_Dots_3.jpg,Blue_Star_Grid_1.jpg,Green_Triangle_Dots_4.jpg,left,728.9900000032503,true,low,NA,NA,NA,NA,NA,NA,NA,false
FhgSYHWF,3ka7ijsnx9iy5qpdnesn7gsg38gpb3,3os46crsljc7ri3841pgrcrxuggv6x,FhgSYHWF,2020-0188,2020-05-07,16:44:23,17:02:12,NA,incomplete,49,shape,1,right,Purple_Star_Chess_1.jpg,Blue_Triangle_Chess_3.jpg,Green_Star_Stripes_2.jpg,right,700.635000015609,true,low,NA,NA,NA,NA,NA,NA,NA,false
FhgSYHWF,3ka7ijsnx9iy5qpdnesn7gsg38gpb3,3os46crsljc7ri3841pgrcrxuggv6x,FhgSYHWF,2020-0188,2020-05-07,16:44:23,17:02:12,NA,incomplete,50,shape,1,right,Blue_Triangle_Dots_3.jpg,Red_Plus_Dots_2.jpg,Purple_Triangle_Stripes_4.jpg,right,750.8450000023004,true,low,NA,NA,NA,NA,NA,NA,NA,false
FhgSYHWF,3ka7ijsnx9iy5qpdnesn7gsg38gpb3,3os46crsljc7ri3841pgrcrxuggv6x,FhgSYHWF,2020-0188,2020-05-07,16:44:23,17:02:12,NA,incomplete,51,shape,1,right,Red_Star_Chess_4.jpg,Purple_Triangle_Chess_2.jpg,Green_Star_Grid_3.jpg,right,675.4049999872223,true,low,NA,NA,NA,NA,NA,NA,NA,false
FhgSYHWF,3ka7ijsnx9iy5qpdnesn7gsg38gpb3,3os46crsljc7ri3841pgrcrxuggv6x,FhgSYHWF,2020-0188,2020-05-07,16:44:23,17:02:12,NA,incomplete,52,shape,0,right,Purple_Circle_Grid_2.jpg,Blue_Plus_Grid_3.jpg,Red_Circle_Stripes_4.jpg,right,632.225000008475,true,low,NA,NA,NA,NA,NA,NA,NA,false
FhgSYHWF,3ka7ijsnx9iy5qpdnesn7gsg38gpb3,3os46crsljc7ri3841pgrcrxuggv6x,FhgSYHWF,2020-0188,2020-05-07,16:44:23,17:02:12,NA,incomplete,53,shape,0,left,Blue_Circle_Dots_4.jpg,Purple_Circle_Chess_1.jpg,Red_Star_Dots_3.jpg,right,344.8999999964144,false,low,NA,NA,NA,NA,NA,NA,NA,false
FhgSYHWF,3ka7ijsnx9iy5qpdnesn7gsg38gpb3,3os46crsljc7ri3841pgrcrxuggv6x,FhgSYHWF,2020-0188,2020-05-07,16:44:23,17:02:12,NA,incomplete,54,shape,0,left,Green_Triangle_Dots_2.jpg,Blue_Triangle_Chess_3.jpg,Red_Circle_Dots_4.jpg,left,837.2500000114087,true,low,NA,NA,NA,NA,NA,NA,NA,false
FhgSYHWF,3ka7ijsnx9iy5qpdnesn7gsg38gpb3,3os46crsljc7ri3841pgrcrxuggv6x,FhgSYHWF,2020-0188,2020-05-07,16:44:23,17:02:12,NA,incomplete,55,shape,1,left,Blue_Plus_Chess_4.jpg,Purple_Plus_Stripes_3.jpg,Green_Triangle_Chess_1.jpg,right,1109.165000001667,false,low,NA,NA,NA,NA,NA,NA,NA,false
FhgSYHWF,3ka7ijsnx9iy5qpdnesn7gsg38gpb3,3os46crsljc7ri3841pgrcrxuggv6x,FhgSYHWF,2020-0188,2020-05-07,16:44:23,17:02:12,NA,incomplete,56,shape,1,left,Purple_Star_Dots_3.jpg,Green_Star_Stripes_1.jpg,Red_Triangle_Dots_4.jpg,right,1441.0550000029616,false,low,NA,NA,NA,NA,NA,NA,NA,false
FhgSYHWF,3ka7ijsnx9iy5qpdnesn7gsg38gpb3,3os46crsljc7ri3841pgrcrxuggv6x,FhgSYHWF,2020-0188,2020-05-07,16:44:23,17:02:12,NA,incomplete,57,shape,1,right,Red_Triangle_Grid_1.jpg,Blue_Circle_Grid_4.jpg,Purple_Triangle_Chess_3.jpg,right,1043.8150000118185,true,low,NA,NA,NA,NA,NA,NA,NA,false
FhgSYHWF,3ka7ijsnx9iy5qpdnesn7gsg38gpb3,3os46crsljc7ri3841pgrcrxuggv6x,FhgSYHWF,2020-0188,2020-05-07,16:44:23,17:02:12,NA,incomplete,58,shape,1,left,Green_Plus_Dots_1.jpg,Red_Plus_Stripes_3.jpg,Blue_Star_Dots_2.jpg,left,881.95499998983,true,low,NA,NA,NA,NA,NA,NA,NA,false
FhgSYHWF,3ka7ijsnx9iy5qpdnesn7gsg38gpb3,3os46crsljc7ri3841pgrcrxuggv6x,FhgSYHWF,2020-0188,2020-05-07,16:44:23,17:02:12,NA,incomplete,59,shape,1,right,Blue_Circle_Stripes_2.jpg,Green_Plus_Stripes_4.jpg,Red_Circle_Dots_1.jpg,right,706.529999995837,true,low,NA,NA,NA,NA,NA,NA,NA,false
FhgSYHWF,3ka7ijsnx9iy5qpdnesn7gsg38gpb3,3os46crsljc7ri3841pgrcrxuggv6x,FhgSYHWF,2020-0188,2020-05-07,16:44:23,17:02:12,NA,incomplete,60,filling,1,right,Purple_Circle_Dots_4.jpg,Red_Circle_Grid_3.jpg,Green_Triangle_Dots_1.jpg,left,684.3749999825377,false,low,NA,NA,NA,NA,NA,NA,NA,false
FhgSYHWF,3ka7ijsnx9iy5qpdnesn7gsg38gpb3,3os46crsljc7ri3841pgrcrxuggv6x,FhgSYHWF,2020-0188,2020-05-07,16:44:23,17:02:12,NA,incomplete,61,filling,1,left,Blue_Circle_Chess_4.jpg,Green_Plus_Chess_2.jpg,Red_Circle_Dots_3.jpg,right,646.1899999994785,false,low,NA,NA,NA,NA,NA,NA,NA,false
FhgSYHWF,3ka7ijsnx9iy5qpdnesn7gsg38gpb3,3os46crsljc7ri3841pgrcrxuggv6x,FhgSYHWF,2020-0188,2020-05-07,16:44:23,17:02:12,NA,incomplete,62,filling,0,left,Green_Circle_Dots_3.jpg,Blue_Star_Dots_2.jpg,Red_Circle_Stripes_1.jpg,right,580.8450000185985,false,low,NA,NA,NA,NA,NA,NA,NA,false
FhgSYHWF,3ka7ijsnx9iy5qpdnesn7gsg38gpb3,3os46crsljc7ri3841pgrcrxuggv6x,FhgSYHWF,2020-0188,2020-05-07,16:44:23,17:02:12,NA,incomplete,63,filling,1,right,Blue_Star_Chess_3.jpg,Green_Star_Dots_1.jpg,Red_Plus_Chess_4.jpg,left,1097.7999999886379,false,low,NA,NA,NA,NA,NA,NA,NA,false
FhgSYHWF,3ka7ijsnx9iy5qpdnesn7gsg38gpb3,3os46crsljc7ri3841pgrcrxuggv6x,FhgSYHWF,2020-0188,2020-05-07,16:44:23,17:02:12,NA,incomplete,64,filling,1,right,Red_Plus_Chess_2.jpg,Purple_Plus_Grid_1.jpg,Blue_Triangle_Chess_3.jpg,left,994.9650000198744,false,low,NA,NA,NA,NA,NA,NA,NA,false
FhgSYHWF,3ka7ijsnx9iy5qpdnesn7gsg38gpb3,3os46crsljc7ri3841pgrcrxuggv6x,FhgSYHWF,2020-0188,2020-05-07,16:44:23,17:02:12,NA,incomplete,65,filling,1,left,Purple_Plus_Dots_1.jpg,Blue_Circle_Dots_2.jpg,Red_Plus_Chess_4.jpg,right,645.8599999896251,false,low,NA,NA,NA,NA,NA,NA,NA,false
FhgSYHWF,3ka7ijsnx9iy5qpdnesn7gsg38gpb3,3os46crsljc7ri3841pgrcrxuggv6x,FhgSYHWF,2020-0188,2020-05-07,16:44:23,17:02:12,NA,incomplete,66,filling,1,right,Blue_Circle_Stripes_1.jpg,Red_Circle_Chess_3.jpg,Green_Plus_Stripes_2.jpg,right,836.0199999879114,true,low,NA,NA,NA,NA,NA,NA,NA,false
FhgSYHWF,3ka7ijsnx9iy5qpdnesn7gsg38gpb3,3os46crsljc7ri3841pgrcrxuggv6x,FhgSYHWF,2020-0188,2020-05-07,16:44:23,17:02:12,NA,incomplete,67,filling,1,left,Purple_Plus_Dots_4.jpg,Blue_Star_Dots_1.jpg,Red_Plus_Stripes_3.jpg,left,1037.0999999868218,true,low,NA,NA,NA,NA,NA,NA,NA,false
FhgSYHWF,3ka7ijsnx9iy5qpdnesn7gsg38gpb3,3os46crsljc7ri3841pgrcrxuggv6x,FhgSYHWF,2020-0188,2020-05-07,16:44:23,17:02:12,NA,incomplete,68,filling,1,right,Purple_Circle_Chess_4.jpg,Red_Circle_Dots_2.jpg,Green_Star_Chess_3.jpg,right,817.6749999984168,true,low,NA,NA,NA,NA,NA,NA,NA,false
FhgSYHWF,3ka7ijsnx9iy5qpdnesn7gsg38gpb3,3os46crsljc7ri3841pgrcrxuggv6x,FhgSYHWF,2020-0188,2020-05-07,16:44:23,17:02:12,NA,incomplete,69,filling,1,right,Green_Circle_Stripes_1.jpg,Purple_Circle_Grid_2.jpg,Red_Star_Stripes_3.jpg,right,839.4750000152271,true,low,NA,NA,NA,NA,NA,NA,NA,false
FhgSYHWF,3ka7ijsnx9iy5qpdnesn7gsg38gpb3,3os46crsljc7ri3841pgrcrxuggv6x,FhgSYHWF,2020-0188,2020-05-07,16:44:23,17:02:12,NA,incomplete,70,filling,1,left,Blue_Plus_Stripes_4.jpg,Green_Circle_Stripes_1.jpg,Red_Plus_Grid_2.jpg,left,1230.9349999995902,true,low,NA,NA,NA,NA,NA,NA,NA,false
FhgSYHWF,3ka7ijsnx9iy5qpdnesn7gsg38gpb3,3os46crsljc7ri3841pgrcrxuggv6x,FhgSYHWF,2020-0188,2020-05-07,16:44:23,17:02:12,NA,incomplete,71,filling,1,left,Purple_Star_Stripes_4.jpg,Green_Circle_Stripes_2.jpg,Blue_Star_Chess_1.jpg,left,1035.4399999778252,true,low,NA,NA,NA,NA,NA,NA,NA,false
FhgSYHWF,3ka7ijsnx9iy5qpdnesn7gsg38gpb3,3os46crsljc7ri3841pgrcrxuggv6x,FhgSYHWF,2020-0188,2020-05-07,16:44:23,17:02:12,NA,incomplete,72,filling,1,left,Blue_Triangle_Grid_1.jpg,Purple_Star_Grid_4.jpg,Green_Triangle_Stripes_2.jpg,left,893.2799999893177,true,low,NA,NA,NA,NA,NA,NA,NA,false
FhgSYHWF,3ka7ijsnx9iy5qpdnesn7gsg38gpb3,3os46crsljc7ri3841pgrcrxuggv6x,FhgSYHWF,2020-0188,2020-05-07,16:44:23,17:02:12,NA,incomplete,73,filling,0,right,Purple_Triangle_Chess_2.jpg,Red_Triangle_Dots_1.jpg,Blue_Circle_Chess_4.jpg,left,1010.6899999955203,false,low,NA,NA,NA,NA,NA,NA,NA,false
FhgSYHWF,3ka7ijsnx9iy5qpdnesn7gsg38gpb3,3os46crsljc7ri3841pgrcrxuggv6x,FhgSYHWF,2020-0188,2020-05-07,16:44:23,17:02:12,NA,incomplete,74,filling,0,left,Green_Star_Chess_3.jpg,Purple_Triangle_Chess_4.jpg,Red_Star_Grid_2.jpg,left,1153.599999990547,true,low,NA,NA,NA,NA,NA,NA,NA,false
FhgSYHWF,3ka7ijsnx9iy5qpdnesn7gsg38gpb3,3os46crsljc7ri3841pgrcrxuggv6x,FhgSYHWF,2020-0188,2020-05-07,16:44:23,17:02:12,NA,incomplete,75,filling,1,left,Green_Triangle_Chess_2.jpg,Red_Star_Chess_3.jpg,Blue_Triangle_Stripes_1.jpg,right,727.3449999920558,false,low,NA,NA,NA,NA,NA,NA,NA,false
FhgSYHWF,3ka7ijsnx9iy5qpdnesn7gsg38gpb3,3os46crsljc7ri3841pgrcrxuggv6x,FhgSYHWF,2020-0188,2020-05-07,16:44:23,17:02:12,NA,incomplete,76,filling,1,right,Red_Plus_Chess_2.jpg,Purple_Plus_Stripes_3.jpg,Green_Circle_Chess_1.jpg,left,646.7549999943003,false,low,NA,NA,NA,NA,NA,NA,NA,false
FhgSYHWF,3ka7ijsnx9iy5qpdnesn7gsg38gpb3,3os46crsljc7ri3841pgrcrxuggv6x,FhgSYHWF,2020-0188,2020-05-07,16:44:23,17:02:12,NA,incomplete,77,filling,0,left,Green_Triangle_Dots_3.jpg,Blue_Plus_Dots_2.jpg,Purple_Triangle_Stripes_4.jpg,left,1070.739999995567,true,low,NA,NA,NA,NA,NA,NA,NA,false
FhgSYHWF,3ka7ijsnx9iy5qpdnesn7gsg38gpb3,3os46crsljc7ri3841pgrcrxuggv6x,FhgSYHWF,2020-0188,2020-05-07,16:44:23,17:02:12,NA,incomplete,78,filling,1,left,Red_Circle_Grid_1.jpg,Purple_Triangle_Grid_4.jpg,Green_Circle_Stripes_2.jpg,left,894.3900000012945,true,low,NA,NA,NA,NA,NA,NA,NA,false
FhgSYHWF,3ka7ijsnx9iy5qpdnesn7gsg38gpb3,3os46crsljc7ri3841pgrcrxuggv6x,FhgSYHWF,2020-0188,2020-05-07,16:44:23,17:02:12,NA,incomplete,79,filling,0,right,Red_Circle_Grid_2.jpg,Blue_Circle_Stripes_3.jpg,Green_Star_Grid_4.jpg,right,884.8149999976158,true,low,NA,NA,NA,NA,NA,NA,NA,false
FhgSYHWF,3ka7ijsnx9iy5qpdnesn7gsg38gpb3,3os46crsljc7ri3841pgrcrxuggv6x,FhgSYHWF,2020-0188,2020-05-07,16:44:23,17:02:12,NA,incomplete,80,filling,0,left,Blue_Circle_Stripes_1.jpg,Green_Star_Stripes_4.jpg,Red_Circle_Dots_2.jpg,left,823.0949999997392,true,low,NA,NA,NA,NA,NA,NA,NA,false
FhgSYHWF,3ka7ijsnx9iy5qpdnesn7gsg38gpb3,3os46crsljc7ri3841pgrcrxuggv6x,FhgSYHWF,2020-0188,2020-05-07,16:44:23,17:02:12,NA,incomplete,81,filling,0,right,Purple_Star_Stripes_4.jpg,Red_Star_Dots_1.jpg,Blue_Circle_Stripes_3.jpg,left,742.2799999767449,false,low,NA,NA,NA,NA,NA,NA,NA,false
FhgSYHWF,3ka7ijsnx9iy5qpdnesn7gsg38gpb3,3os46crsljc7ri3841pgrcrxuggv6x,FhgSYHWF,2020-0188,2020-05-07,16:44:23,17:02:12,NA,incomplete,82,filling,1,left,Red_Plus_Grid_3.jpg,Blue_Star_Grid_4.jpg,Green_Plus_Chess_1.jpg,right,667.2850000031758,false,low,NA,NA,NA,NA,NA,NA,NA,false
FhgSYHWF,3ka7ijsnx9iy5qpdnesn7gsg38gpb3,3os46crsljc7ri3841pgrcrxuggv6x,FhgSYHWF,2020-0188,2020-05-07,16:44:23,17:02:12,NA,incomplete,83,filling,1,right,Blue_Circle_Stripes_4.jpg,Green_Circle_Grid_2.jpg,Purple_Triangle_Stripes_1.jpg,left,918.2750000036322,false,low,NA,NA,NA,NA,NA,NA,NA,false
FhgSYHWF,3ka7ijsnx9iy5qpdnesn7gsg38gpb3,3os46crsljc7ri3841pgrcrxuggv6x,FhgSYHWF,2020-0188,2020-05-07,16:44:23,17:02:12,NA,incomplete,84,filling,0,left,Purple_Triangle_Chess_1.jpg,Green_Circle_Chess_4.jpg,Red_Triangle_Dots_2.jpg,right,549.9600000039209,false,low,NA,NA,NA,NA,NA,NA,NA,false
FhgSYHWF,3ka7ijsnx9iy5qpdnesn7gsg38gpb3,3os46crsljc7ri3841pgrcrxuggv6x,FhgSYHWF,2020-0188,2020-05-07,16:44:23,17:02:12,NA,incomplete,85,filling,1,right,Purple_Circle_Dots_3.jpg,Green_Circle_Chess_4.jpg,Red_Plus_Dots_2.jpg,left,846.0650000197347,false,low,NA,NA,NA,NA,NA,NA,NA,false
FhgSYHWF,3ka7ijsnx9iy5qpdnesn7gsg38gpb3,3os46crsljc7ri3841pgrcrxuggv6x,FhgSYHWF,2020-0188,2020-05-07,16:44:23,17:02:12,NA,incomplete,86,filling,0,left,Blue_Triangle_Chess_4.jpg,Green_Circle_Chess_1.jpg,Red_Triangle_Dots_2.jpg,left,940.455000003567,true,low,NA,NA,NA,NA,NA,NA,NA,false
FhgSYHWF,3ka7ijsnx9iy5qpdnesn7gsg38gpb3,3os46crsljc7ri3841pgrcrxuggv6x,FhgSYHWF,2020-0188,2020-05-07,16:44:23,17:02:12,NA,incomplete,87,filling,1,right,Blue_Circle_Stripes_2.jpg,Red_Circle_Dots_3.jpg,Green_Triangle_Stripes_4.jpg,right,1079.1250000183936,true,low,NA,NA,NA,NA,NA,NA,NA,false
FhgSYHWF,3ka7ijsnx9iy5qpdnesn7gsg38gpb3,3os46crsljc7ri3841pgrcrxuggv6x,FhgSYHWF,2020-0188,2020-05-07,16:44:23,17:02:12,NA,incomplete,88,filling,0,left,Red_Circle_Dots_2.jpg,Purple_Star_Dots_4.jpg,Blue_Circle_Stripes_1.jpg,left,810.5450000148267,true,low,NA,NA,NA,NA,NA,NA,NA,false
FhgSYHWF,3ka7ijsnx9iy5qpdnesn7gsg38gpb3,3os46crsljc7ri3841pgrcrxuggv6x,FhgSYHWF,2020-0188,2020-05-07,16:44:23,17:02:12,NA,incomplete,89,filling,1,right,Blue_Plus_Dots_1.jpg,Purple_Plus_Grid_3.jpg,Green_Star_Dots_2.jpg,right,949.6449999860488,true,low,NA,NA,NA,NA,NA,NA,NA,false
FhgSYHWF,3ka7ijsnx9iy5qpdnesn7gsg38gpb3,3os46crsljc7ri3841pgrcrxuggv6x,FhgSYHWF,2020-0188,2020-05-07,16:44:23,17:02:12,NA,incomplete,90,shape,1,right,Green_Plus_Stripes_1.jpg,Red_Star_Stripes_2.jpg,Purple_Plus_Grid_3.jpg,right,1046.665000001667,true,low,NA,NA,NA,NA,NA,NA,NA,false
FhgSYHWF,3ka7ijsnx9iy5qpdnesn7gsg38gpb3,3os46crsljc7ri3841pgrcrxuggv6x,FhgSYHWF,2020-0188,2020-05-07,16:44:23,17:02:12,NA,incomplete,91,shape,1,right,Blue_Star_Chess_3.jpg,Green_Plus_Chess_2.jpg,Red_Star_Grid_1.jpg,left,1341.9099999882746,false,low,NA,NA,NA,NA,NA,NA,NA,false
FhgSYHWF,3ka7ijsnx9iy5qpdnesn7gsg38gpb3,3os46crsljc7ri3841pgrcrxuggv6x,FhgSYHWF,2020-0188,2020-05-07,16:44:23,17:02:12,NA,incomplete,92,shape,1,left,Green_Star_Stripes_2.jpg,Red_Star_Dots_3.jpg,Purple_Circle_Stripes_1.jpg,right,837.0900000154506,false,low,NA,NA,NA,NA,NA,NA,NA,false
FhgSYHWF,3ka7ijsnx9iy5qpdnesn7gsg38gpb3,3os46crsljc7ri3841pgrcrxuggv6x,FhgSYHWF,2020-0188,2020-05-07,16:44:23,17:02:12,NA,incomplete,93,shape,1,right,Blue_Star_Chess_2.jpg,Red_Plus_Chess_3.jpg,Green_Star_Grid_4.jpg,left,983.8199999940116,false,low,NA,NA,NA,NA,NA,NA,NA,false
FhgSYHWF,3ka7ijsnx9iy5qpdnesn7gsg38gpb3,3os46crsljc7ri3841pgrcrxuggv6x,FhgSYHWF,2020-0188,2020-05-07,16:44:23,17:02:12,NA,incomplete,94,shape,1,left,Red_Triangle_Stripes_4.jpg,Purple_Triangle_Grid_1.jpg,Green_Circle_Stripes_3.jpg,left,688.2749999931548,true,low,NA,NA,NA,NA,NA,NA,NA,false
FhgSYHWF,3ka7ijsnx9iy5qpdnesn7gsg38gpb3,3os46crsljc7ri3841pgrcrxuggv6x,FhgSYHWF,2020-0188,2020-05-07,16:44:23,17:02:12,NA,incomplete,95,shape,1,left,Green_Plus_Stripes_3.jpg,Blue_Plus_Grid_1.jpg,Red_Triangle_Stripes_2.jpg,left,1310.1900000183377,true,low,NA,NA,NA,NA,NA,NA,NA,false
FhgSYHWF,3ka7ijsnx9iy5qpdnesn7gsg38gpb3,3os46crsljc7ri3841pgrcrxuggv6x,FhgSYHWF,2020-0188,2020-05-07,16:44:23,17:02:12,NA,incomplete,96,shape,0,right,Red_Plus_Chess_1.jpg,Purple_Triangle_Chess_2.jpg,Blue_Plus_Stripes_3.jpg,right,580.0349999917671,true,low,NA,NA,NA,NA,NA,NA,NA,false
FhgSYHWF,3ka7ijsnx9iy5qpdnesn7gsg38gpb3,3os46crsljc7ri3841pgrcrxuggv6x,FhgSYHWF,2020-0188,2020-05-07,16:44:23,17:02:12,NA,incomplete,97,shape,1,right,Red_Circle_Stripes_2.jpg,Blue_Plus_Stripes_3.jpg,Purple_Circle_Chess_1.jpg,right,693.5349999985192,true,low,NA,NA,NA,NA,NA,NA,NA,false
FhgSYHWF,3ka7ijsnx9iy5qpdnesn7gsg38gpb3,3os46crsljc7ri3841pgrcrxuggv6x,FhgSYHWF,2020-0188,2020-05-07,16:44:23,17:02:12,NA,incomplete,98,shape,1,left,Purple_Circle_Grid_4.jpg,Red_Circle_Dots_3.jpg,Blue_Star_Grid_1.jpg,left,627.2549999994226,true,low,NA,NA,NA,NA,NA,NA,NA,false
FhgSYHWF,3ka7ijsnx9iy5qpdnesn7gsg38gpb3,3os46crsljc7ri3841pgrcrxuggv6x,FhgSYHWF,2020-0188,2020-05-07,16:44:23,17:02:12,NA,incomplete,99,shape,1,left,Purple_Triangle_Grid_4.jpg,Red_Triangle_Stripes_3.jpg,Blue_Star_Grid_1.jpg,left,699.6949999884237,true,low,NA,NA,NA,NA,NA,NA,NA,false
FhgSYHWF,3ka7ijsnx9iy5qpdnesn7gsg38gpb3,3os46crsljc7ri3841pgrcrxuggv6x,FhgSYHWF,2020-0188,2020-05-07,16:44:23,17:02:12,NA,incomplete,100,shape,0,left,Purple_Plus_Dots_4.jpg,Red_Plus_Grid_1.jpg,Green_Circle_Dots_3.jpg,left,673.0349999852479,true,low,NA,NA,NA,NA,NA,NA,NA,false
FhgSYHWF,3ka7ijsnx9iy5qpdnesn7gsg38gpb3,3os46crsljc7ri3841pgrcrxuggv6x,FhgSYHWF,2020-0188,2020-05-07,16:44:23,17:02:12,NA,incomplete,101,shape,1,left,Red_Circle_Dots_4.jpg,Blue_Circle_Stripes_2.jpg,Green_Star_Dots_3.jpg,left,646.8100000056438,true,low,NA,NA,NA,NA,NA,NA,NA,false
FhgSYHWF,3ka7ijsnx9iy5qpdnesn7gsg38gpb3,3os46crsljc7ri3841pgrcrxuggv6x,FhgSYHWF,2020-0188,2020-05-07,16:44:23,17:02:12,NA,incomplete,102,shape,1,right,Green_Star_Stripes_1.jpg,Purple_Circle_Stripes_4.jpg,Red_Star_Grid_2.jpg,right,840.3800000087358,true,low,NA,NA,NA,NA,NA,NA,NA,false
FhgSYHWF,3ka7ijsnx9iy5qpdnesn7gsg38gpb3,3os46crsljc7ri3841pgrcrxuggv6x,FhgSYHWF,2020-0188,2020-05-07,16:44:23,17:02:12,NA,incomplete,103,shape,1,left,Red_Star_Chess_2.jpg,Blue_Star_Grid_4.jpg,Purple_Triangle_Chess_3.jpg,left,699.3950000032783,true,low,NA,NA,NA,NA,NA,NA,NA,false
FhgSYHWF,3ka7ijsnx9iy5qpdnesn7gsg38gpb3,3os46crsljc7ri3841pgrcrxuggv6x,FhgSYHWF,2020-0188,2020-05-07,16:44:23,17:02:12,NA,incomplete,104,shape,1,left,Blue_Star_Stripes_4.jpg,Green_Star_Dots_1.jpg,Red_Triangle_Stripes_3.jpg,left,695.160000002943,true,low,NA,NA,NA,NA,NA,NA,NA,false
FhgSYHWF,3ka7ijsnx9iy5qpdnesn7gsg38gpb3,3os46crsljc7ri3841pgrcrxuggv6x,FhgSYHWF,2020-0188,2020-05-07,16:44:23,17:02:12,NA,incomplete,105,shape,1,left,Green_Star_Stripes_3.jpg,Blue_Star_Dots_4.jpg,Purple_Triangle_Stripes_1.jpg,left,718.315000005532,true,low,NA,NA,NA,NA,NA,NA,NA,false
FhgSYHWF,3ka7ijsnx9iy5qpdnesn7gsg38gpb3,3os46crsljc7ri3841pgrcrxuggv6x,FhgSYHWF,2020-0188,2020-05-07,16:44:23,17:02:12,NA,incomplete,106,shape,1,left,Blue_Triangle_Chess_4.jpg,Red_Triangle_Stripes_2.jpg,Green_Star_Chess_3.jpg,left,682.3349999904167,true,low,NA,NA,NA,NA,NA,NA,NA,false
FhgSYHWF,3ka7ijsnx9iy5qpdnesn7gsg38gpb3,3os46crsljc7ri3841pgrcrxuggv6x,FhgSYHWF,2020-0188,2020-05-07,16:44:23,17:02:12,NA,incomplete,107,shape,0,left,Green_Plus_Grid_3.jpg,Red_Plus_Dots_2.jpg,Blue_Star_Grid_1.jpg,left,693.8450000016019,true,low,NA,NA,NA,NA,NA,NA,NA,false
FhgSYHWF,3ka7ijsnx9iy5qpdnesn7gsg38gpb3,3os46crsljc7ri3841pgrcrxuggv6x,FhgSYHWF,2020-0188,2020-05-07,16:44:23,17:02:12,NA,incomplete,108,shape,1,left,Red_Circle_Dots_3.jpg,Green_Circle_Stripes_2.jpg,Blue_Plus_Dots_1.jpg,right,1147.4850000231527,false,low,NA,NA,NA,NA,NA,NA,NA,false
FhgSYHWF,3ka7ijsnx9iy5qpdnesn7gsg38gpb3,3os46crsljc7ri3841pgrcrxuggv6x,FhgSYHWF,2020-0188,2020-05-07,16:44:23,17:02:12,NA,incomplete,109,shape,1,left,Green_Circle_Dots_2.jpg,Purple_Circle_Stripes_1.jpg,Blue_Plus_Dots_4.jpg,left,712.005000008503,true,low,NA,NA,NA,NA,NA,NA,NA,false
FhgSYHWF,3ka7ijsnx9iy5qpdnesn7gsg38gpb3,3os46crsljc7ri3841pgrcrxuggv6x,FhgSYHWF,2020-0188,2020-05-07,16:44:23,17:02:12,NA,incomplete,110,shape,0,left,Blue_Plus_Grid_1.jpg,Red_Plus_Dots_4.jpg,Purple_Triangle_Grid_3.jpg,left,748.040000005858,true,low,NA,NA,NA,NA,NA,NA,NA,false
FhgSYHWF,3ka7ijsnx9iy5qpdnesn7gsg38gpb3,3os46crsljc7ri3841pgrcrxuggv6x,FhgSYHWF,2020-0188,2020-05-07,16:44:23,17:02:12,NA,incomplete,111,shape,1,right,Blue_Star_Grid_1.jpg,Green_Triangle_Grid_3.jpg,Red_Star_Chess_2.jpg,right,682.3250000015832,true,low,NA,NA,NA,NA,NA,NA,NA,false
FhgSYHWF,3ka7ijsnx9iy5qpdnesn7gsg38gpb3,3os46crsljc7ri3841pgrcrxuggv6x,FhgSYHWF,2020-0188,2020-05-07,16:44:23,17:02:12,NA,incomplete,112,shape,1,right,Red_Triangle_Chess_2.jpg,Blue_Circle_Chess_4.jpg,Purple_Triangle_Stripes_3.jpg,right,688.5200000251643,true,low,NA,NA,NA,NA,NA,NA,NA,false
FhgSYHWF,3ka7ijsnx9iy5qpdnesn7gsg38gpb3,3os46crsljc7ri3841pgrcrxuggv6x,FhgSYHWF,2020-0188,2020-05-07,16:44:23,17:02:12,NA,incomplete,113,shape,1,right,Blue_Plus_Grid_3.jpg,Green_Circle_Grid_4.jpg,Red_Plus_Chess_1.jpg,right,644.7399999888148,true,low,NA,NA,NA,NA,NA,NA,NA,false
FhgSYHWF,3ka7ijsnx9iy5qpdnesn7gsg38gpb3,3os46crsljc7ri3841pgrcrxuggv6x,FhgSYHWF,2020-0188,2020-05-07,16:44:23,17:02:12,NA,incomplete,114,shape,1,right,Green_Plus_Stripes_3.jpg,Red_Circle_Stripes_4.jpg,Purple_Plus_Dots_1.jpg,right,976.0699999751523,true,low,NA,NA,NA,NA,NA,NA,NA,false
FhgSYHWF,3ka7ijsnx9iy5qpdnesn7gsg38gpb3,3os46crsljc7ri3841pgrcrxuggv6x,FhgSYHWF,2020-0188,2020-05-07,16:44:23,17:02:12,NA,incomplete,115,shape,1,left,Blue_Star_Dots_4.jpg,Green_Star_Chess_1.jpg,Red_Plus_Dots_3.jpg,left,500.6299999949988,true,low,NA,NA,NA,NA,NA,NA,NA,false
FhgSYHWF,3ka7ijsnx9iy5qpdnesn7gsg38gpb3,3os46crsljc7ri3841pgrcrxuggv6x,FhgSYHWF,2020-0188,2020-05-07,16:44:23,17:02:12,NA,incomplete,116,shape,1,right,Red_Plus_Grid_4.jpg,Purple_Circle_Grid_2.jpg,Green_Plus_Dots_1.jpg,right,864.6200000075623,true,low,NA,NA,NA,NA,NA,NA,NA,false
FhgSYHWF,3ka7ijsnx9iy5qpdnesn7gsg38gpb3,3os46crsljc7ri3841pgrcrxuggv6x,FhgSYHWF,2020-0188,2020-05-07,16:44:23,17:02:12,NA,incomplete,117,shape,0,right,Blue_Triangle_Grid_1.jpg,Purple_Circle_Grid_4.jpg,Red_Triangle_Chess_3.jpg,right,1206.2149999837857,true,low,NA,NA,NA,NA,NA,NA,NA,false
FhgSYHWF,3ka7ijsnx9iy5qpdnesn7gsg38gpb3,3os46crsljc7ri3841pgrcrxuggv6x,FhgSYHWF,2020-0188,2020-05-07,16:44:23,17:02:12,NA,incomplete,118,shape,1,right,Green_Plus_Chess_2.jpg,Red_Circle_Chess_4.jpg,Blue_Plus_Dots_3.jpg,right,1069.4950000033714,true,low,NA,NA,NA,NA,NA,NA,NA,false
FhgSYHWF,3ka7ijsnx9iy5qpdnesn7gsg38gpb3,3os46crsljc7ri3841pgrcrxuggv6x,FhgSYHWF,2020-0188,2020-05-07,16:44:23,17:02:12,NA,incomplete,119,shape,1,left,Purple_Star_Grid_4.jpg,Blue_Star_Chess_3.jpg,Red_Circle_Grid_2.jpg,left,582.8449999971781,true,low,NA,NA,NA,NA,NA,NA,NA,false
FhgSYHWF,3ka7ijsnx9iy5qpdnesn7gsg38gpb3,3os46crsljc7ri3841pgrcrxuggv6x,FhgSYHWF,2020-0188,2020-05-07,16:44:23,17:02:12,NA,incomplete,120,filling,1,right,Blue_Star_Stripes_4.jpg,Green_Star_Dots_3.jpg,Red_Circle_Stripes_2.jpg,left,689.0050000220072,false,low,NA,NA,NA,NA,NA,NA,NA,false
FhgSYHWF,3ka7ijsnx9iy5qpdnesn7gsg38gpb3,3os46crsljc7ri3841pgrcrxuggv6x,FhgSYHWF,2020-0188,2020-05-07,16:44:23,17:02:12,NA,incomplete,121,filling,0,left,Purple_Plus_Chess_1.jpg,Red_Circle_Chess_4.jpg,Green_Plus_Grid_2.jpg,right,518.7950000108685,false,low,NA,NA,NA,NA,NA,NA,NA,false
FhgSYHWF,3ka7ijsnx9iy5qpdnesn7gsg38gpb3,3os46crsljc7ri3841pgrcrxuggv6x,FhgSYHWF,2020-0188,2020-05-07,16:44:23,17:02:12,NA,incomplete,122,filling,1,right,Purple_Triangle_Dots_4.jpg,Red_Triangle_Chess_2.jpg,Green_Star_Dots_1.jpg,left,578.0099999974482,false,low,NA,NA,NA,NA,NA,NA,NA,false
FhgSYHWF,3ka7ijsnx9iy5qpdnesn7gsg38gpb3,3os46crsljc7ri3841pgrcrxuggv6x,FhgSYHWF,2020-0188,2020-05-07,16:44:23,17:02:12,NA,incomplete,123,filling,1,left,Purple_Plus_Chess_1.jpg,Green_Circle_Chess_4.jpg,Blue_Plus_Grid_2.jpg,right,501.9750000210479,false,low,NA,NA,NA,NA,NA,NA,NA,false
FhgSYHWF,3ka7ijsnx9iy5qpdnesn7gsg38gpb3,3os46crsljc7ri3841pgrcrxuggv6x,FhgSYHWF,2020-0188,2020-05-07,16:44:23,17:02:12,NA,incomplete,124,filling,1,right,Blue_Triangle_Grid_3.jpg,Purple_Triangle_Dots_2.jpg,Red_Plus_Grid_1.jpg,left,626.7949999892153,false,low,NA,NA,NA,NA,NA,NA,NA,false
FhgSYHWF,3ka7ijsnx9iy5qpdnesn7gsg38gpb3,3os46crsljc7ri3841pgrcrxuggv6x,FhgSYHWF,2020-0188,2020-05-07,16:44:23,17:02:12,NA,incomplete,125,filling,1,right,Blue_Circle_Chess_1.jpg,Green_Circle_Dots_2.jpg,Red_Plus_Chess_3.jpg,right,892.3099999956321,true,low,NA,NA,NA,NA,NA,NA,NA,false
FhgSYHWF,3ka7ijsnx9iy5qpdnesn7gsg38gpb3,3os46crsljc7ri3841pgrcrxuggv6x,FhgSYHWF,2020-0188,2020-05-07,16:44:23,17:02:12,NA,incomplete,126,filling,1,left,Green_Circle_Grid_2.jpg,Purple_Triangle_Grid_1.jpg,Blue_Circle_Dots_3.jpg,left,918.0050000140909,true,low,NA,NA,NA,NA,NA,NA,NA,false
FhgSYHWF,3ka7ijsnx9iy5qpdnesn7gsg38gpb3,3os46crsljc7ri3841pgrcrxuggv6x,FhgSYHWF,2020-0188,2020-05-07,16:44:23,17:02:12,NA,incomplete,127,filling,1,right,Blue_Circle_Chess_4.jpg,Green_Circle_Stripes_1.jpg,Red_Triangle_Chess_3.jpg,right,967.8600000042934,true,low,NA,NA,NA,NA,NA,NA,NA,false
FhgSYHWF,3ka7ijsnx9iy5qpdnesn7gsg38gpb3,3os46crsljc7ri3841pgrcrxuggv6x,FhgSYHWF,2020-0188,2020-05-07,16:44:23,17:02:12,NA,incomplete,128,filling,0,left,Red_Star_Dots_3.jpg,Purple_Circle_Dots_1.jpg,Green_Star_Grid_2.jpg,left,762.5650000118185,true,low,NA,NA,NA,NA,NA,NA,NA,false
FhgSYHWF,3ka7ijsnx9iy5qpdnesn7gsg38gpb3,3os46crsljc7ri3841pgrcrxuggv6x,FhgSYHWF,2020-0188,2020-05-07,16:44:23,17:02:12,NA,incomplete,129,filling,1,left,Red_Star_Dots_4.jpg,Blue_Triangle_Dots_3.jpg,Green_Star_Stripes_1.jpg,left,732.6200000243261,true,low,NA,NA,NA,NA,NA,NA,NA,false
FhgSYHWF,3ka7ijsnx9iy5qpdnesn7gsg38gpb3,3os46crsljc7ri3841pgrcrxuggv6x,FhgSYHWF,2020-0188,2020-05-07,16:44:23,17:02:12,NA,incomplete,130,filling,0,right,Green_Triangle_Chess_3.jpg,Purple_Triangle_Grid_2.jpg,Red_Circle_Chess_1.jpg,left,986.1499999824446,false,low,NA,NA,NA,NA,NA,NA,NA,false
FhgSYHWF,3ka7ijsnx9iy5qpdnesn7gsg38gpb3,3os46crsljc7ri3841pgrcrxuggv6x,FhgSYHWF,2020-0188,2020-05-07,16:44:23,17:02:12,NA,incomplete,131,filling,1,left,Green_Star_Dots_2.jpg,Purple_Plus_Dots_4.jpg,Blue_Star_Grid_3.jpg,right,1138.8800000131596,false,low,NA,NA,NA,NA,NA,NA,NA,false
FhgSYHWF,3ka7ijsnx9iy5qpdnesn7gsg38gpb3,3os46crsljc7ri3841pgrcrxuggv6x,FhgSYHWF,2020-0188,2020-05-07,16:44:23,17:02:12,NA,incomplete,132,filling,1,right,Purple_Triangle_Stripes_2.jpg,Blue_Triangle_Chess_4.jpg,Green_Circle_Stripes_3.jpg,left,809.2350000224542,false,low,NA,NA,NA,NA,NA,NA,NA,false
FhgSYHWF,3ka7ijsnx9iy5qpdnesn7gsg38gpb3,3os46crsljc7ri3841pgrcrxuggv6x,FhgSYHWF,2020-0188,2020-05-07,16:44:23,17:02:12,NA,incomplete,133,filling,1,right,Purple_Star_Chess_3.jpg,Red_Star_Stripes_2.jpg,Green_Circle_Chess_4.jpg,right,1122.8700000210665,true,low,NA,NA,NA,NA,NA,NA,NA,false
FhgSYHWF,3ka7ijsnx9iy5qpdnesn7gsg38gpb3,3os46crsljc7ri3841pgrcrxuggv6x,FhgSYHWF,2020-0188,2020-05-07,16:44:23,17:02:12,NA,incomplete,134,filling,1,left,Purple_Triangle_Stripes_2.jpg,Blue_Plus_Stripes_3.jpg,Green_Triangle_Dots_1.jpg,left,904.2600000102539,true,low,NA,NA,NA,NA,NA,NA,NA,false
FhgSYHWF,3ka7ijsnx9iy5qpdnesn7gsg38gpb3,3os46crsljc7ri3841pgrcrxuggv6x,FhgSYHWF,2020-0188,2020-05-07,16:44:23,17:02:12,NA,incomplete,135,filling,0,left,Purple_Triangle_Stripes_4.jpg,Blue_Plus_Stripes_2.jpg,Red_Triangle_Dots_3.jpg,left,988.7150000140537,true,low,NA,NA,NA,NA,NA,NA,NA,false
FhgSYHWF,3ka7ijsnx9iy5qpdnesn7gsg38gpb3,3os46crsljc7ri3841pgrcrxuggv6x,FhgSYHWF,2020-0188,2020-05-07,16:44:23,17:02:12,NA,incomplete,136,filling,1,right,Green_Circle_Chess_4.jpg,Blue_Circle_Dots_1.jpg,Red_Plus_Chess_3.jpg,right,932.9499999876134,true,low,NA,NA,NA,NA,NA,NA,NA,false
FhgSYHWF,3ka7ijsnx9iy5qpdnesn7gsg38gpb3,3os46crsljc7ri3841pgrcrxuggv6x,FhgSYHWF,2020-0188,2020-05-07,16:44:23,17:02:12,NA,incomplete,137,filling,1,right,Red_Circle_Grid_2.jpg,Purple_Circle_Dots_3.jpg,Green_Triangle_Grid_1.jpg,right,833.6399999971036,true,low,NA,NA,NA,NA,NA,NA,NA,false
FhgSYHWF,3ka7ijsnx9iy5qpdnesn7gsg38gpb3,3os46crsljc7ri3841pgrcrxuggv6x,FhgSYHWF,2020-0188,2020-05-07,16:44:23,17:02:12,NA,incomplete,138,filling,0,right,Purple_Plus_Chess_3.jpg,Red_Plus_Stripes_4.jpg,Blue_Circle_Chess_2.jpg,left,1008.9499999885447,false,low,NA,NA,NA,NA,NA,NA,NA,false
FhgSYHWF,3ka7ijsnx9iy5qpdnesn7gsg38gpb3,3os46crsljc7ri3841pgrcrxuggv6x,FhgSYHWF,2020-0188,2020-05-07,16:44:23,17:02:12,NA,incomplete,139,filling,1,left,Purple_Circle_Chess_1.jpg,Blue_Plus_Chess_3.jpg,Red_Circle_Stripes_2.jpg,left,919.3150000064634,true,low,NA,NA,NA,NA,NA,NA,NA,false
FhgSYHWF,3ka7ijsnx9iy5qpdnesn7gsg38gpb3,3os46crsljc7ri3841pgrcrxuggv6x,FhgSYHWF,2020-0188,2020-05-07,16:44:23,17:02:12,NA,incomplete,140,shape,1,right,Purple_Triangle_Stripes_2.jpg,Blue_Plus_Stripes_4.jpg,Green_Triangle_Chess_3.jpg,left,885.5050000129268,false,low,NA,NA,NA,NA,NA,NA,NA,false
FhgSYHWF,3ka7ijsnx9iy5qpdnesn7gsg38gpb3,3os46crsljc7ri3841pgrcrxuggv6x,FhgSYHWF,2020-0188,2020-05-07,16:44:23,17:02:12,NA,incomplete,141,shape,1,left,Green_Star_Stripes_1.jpg,Purple_Star_Grid_3.jpg,Red_Triangle_Stripes_2.jpg,right,982.7499999955762,false,low,NA,NA,NA,NA,NA,NA,NA,false
FhgSYHWF,3ka7ijsnx9iy5qpdnesn7gsg38gpb3,3os46crsljc7ri3841pgrcrxuggv6x,FhgSYHWF,2020-0188,2020-05-07,16:44:23,17:02:12,NA,incomplete,142,shape,1,left,Red_Triangle_Chess_1.jpg,Purple_Triangle_Dots_2.jpg,Green_Star_Chess_4.jpg,right,799.3300000089221,false,low,NA,NA,NA,NA,NA,NA,NA,false
FhgSYHWF,3ka7ijsnx9iy5qpdnesn7gsg38gpb3,3os46crsljc7ri3841pgrcrxuggv6x,FhgSYHWF,2020-0188,2020-05-07,16:44:23,17:02:12,NA,incomplete,143,shape,1,left,Red_Circle_Grid_3.jpg,Purple_Circle_Chess_1.jpg,Blue_Star_Grid_4.jpg,left,672.8799999982584,true,low,NA,NA,NA,NA,NA,NA,NA,false
FhgSYHWF,3ka7ijsnx9iy5qpdnesn7gsg38gpb3,3os46crsljc7ri3841pgrcrxuggv6x,FhgSYHWF,2020-0188,2020-05-07,16:44:23,17:02:12,NA,incomplete,144,shape,1,left,Red_Triangle_Stripes_1.jpg,Green_Triangle_Dots_2.jpg,Purple_Star_Stripes_3.jpg,left,806.6049999906681,true,low,NA,NA,NA,NA,NA,NA,NA,false
FhgSYHWF,3ka7ijsnx9iy5qpdnesn7gsg38gpb3,3os46crsljc7ri3841pgrcrxuggv6x,FhgSYHWF,2020-0188,2020-05-07,16:44:23,17:02:12,NA,incomplete,145,shape,1,right,Blue_Star_Dots_4.jpg,Green_Plus_Dots_1.jpg,Red_Star_Stripes_2.jpg,right,742.1699999831617,true,low,NA,NA,NA,NA,NA,NA,NA,false
FhgSYHWF,3ka7ijsnx9iy5qpdnesn7gsg38gpb3,3os46crsljc7ri3841pgrcrxuggv6x,FhgSYHWF,2020-0188,2020-05-07,16:44:23,17:02:12,NA,incomplete,146,shape,1,left,Blue_Triangle_Chess_3.jpg,Green_Triangle_Stripes_4.jpg,Red_Star_Chess_2.jpg,left,927.3249999969266,true,low,NA,NA,NA,NA,NA,NA,NA,false
FhgSYHWF,3ka7ijsnx9iy5qpdnesn7gsg38gpb3,3os46crsljc7ri3841pgrcrxuggv6x,FhgSYHWF,2020-0188,2020-05-07,16:44:23,17:02:12,NA,incomplete,147,shape,1,right,Green_Star_Grid_1.jpg,Purple_Triangle_Grid_3.jpg,Red_Star_Stripes_4.jpg,right,1006.7350000026636,true,low,NA,NA,NA,NA,NA,NA,NA,false
FhgSYHWF,3ka7ijsnx9iy5qpdnesn7gsg38gpb3,3os46crsljc7ri3841pgrcrxuggv6x,FhgSYHWF,2020-0188,2020-05-07,16:44:23,17:02:12,NA,incomplete,148,shape,1,right,Red_Star_Dots_1.jpg,Blue_Circle_Dots_2.jpg,Purple_Star_Grid_4.jpg,right,638.2850000227336,true,low,NA,NA,NA,NA,NA,NA,NA,false
FhgSYHWF,3ka7ijsnx9iy5qpdnesn7gsg38gpb3,3os46crsljc7ri3841pgrcrxuggv6x,FhgSYHWF,2020-0188,2020-05-07,16:44:23,17:02:12,NA,incomplete,149,shape,1,left,Purple_Circle_Grid_4.jpg,Blue_Circle_Chess_1.jpg,Green_Triangle_Grid_2.jpg,left,558.3299999998417,true,low,NA,NA,NA,NA,NA,NA,NA,false
FhgSYHWF,3ka7ijsnx9iy5qpdnesn7gsg38gpb3,3os46crsljc7ri3841pgrcrxuggv6x,FhgSYHWF,2020-0188,2020-05-07,16:44:23,17:02:12,NA,incomplete,150,shape,1,left,Blue_Star_Dots_3.jpg,Red_Star_Grid_1.jpg,Purple_Plus_Dots_2.jpg,left,695.8900000026915,true,low,NA,NA,NA,NA,NA,NA,NA,false
FhgSYHWF,3ka7ijsnx9iy5qpdnesn7gsg38gpb3,3os46crsljc7ri3841pgrcrxuggv6x,FhgSYHWF,2020-0188,2020-05-07,16:44:23,17:02:12,NA,incomplete,151,shape,1,left,Purple_Triangle_Stripes_2.jpg,Blue_Triangle_Chess_3.jpg,Red_Circle_Stripes_4.jpg,left,672.1749999851454,true,low,NA,NA,NA,NA,NA,NA,NA,false
FhgSYHWF,3ka7ijsnx9iy5qpdnesn7gsg38gpb3,3os46crsljc7ri3841pgrcrxuggv6x,FhgSYHWF,2020-0188,2020-05-07,16:44:23,17:02:12,NA,incomplete,152,shape,0,left,Green_Plus_Stripes_4.jpg,Purple_Plus_Chess_2.jpg,Blue_Star_Stripes_3.jpg,left,813.544999982696,true,low,NA,NA,NA,NA,NA,NA,NA,false
FhgSYHWF,3ka7ijsnx9iy5qpdnesn7gsg38gpb3,3os46crsljc7ri3841pgrcrxuggv6x,FhgSYHWF,2020-0188,2020-05-07,16:44:23,17:02:12,NA,incomplete,153,shape,1,right,Green_Circle_Grid_3.jpg,Red_Plus_Grid_4.jpg,Purple_Circle_Stripes_2.jpg,right,605.4949999961536,true,low,NA,NA,NA,NA,NA,NA,NA,false
FhgSYHWF,3ka7ijsnx9iy5qpdnesn7gsg38gpb3,3os46crsljc7ri3841pgrcrxuggv6x,FhgSYHWF,2020-0188,2020-05-07,16:44:23,17:02:12,NA,incomplete,154,shape,1,right,Blue_Circle_Chess_2.jpg,Purple_Plus_Chess_3.jpg,Green_Circle_Stripes_1.jpg,right,923.979999992298,true,low,NA,NA,NA,NA,NA,NA,NA,false
FhgSYHWF,3ka7ijsnx9iy5qpdnesn7gsg38gpb3,3os46crsljc7ri3841pgrcrxuggv6x,FhgSYHWF,2020-0188,2020-05-07,16:44:23,17:02:12,NA,incomplete,155,shape,1,right,Purple_Plus_Stripes_4.jpg,Green_Star_Stripes_1.jpg,Red_Plus_Chess_3.jpg,right,657.1300000068732,true,low,NA,NA,NA,NA,NA,NA,NA,false
FhgSYHWF,3ka7ijsnx9iy5qpdnesn7gsg38gpb3,3os46crsljc7ri3841pgrcrxuggv6x,FhgSYHWF,2020-0188,2020-05-07,16:44:23,17:02:12,NA,incomplete,156,shape,1,right,Red_Triangle_Dots_1.jpg,Blue_Star_Dots_3.jpg,Green_Triangle_Stripes_4.jpg,right,1143.225000007078,true,low,NA,NA,NA,NA,NA,NA,NA,false
FhgSYHWF,3ka7ijsnx9iy5qpdnesn7gsg38gpb3,3os46crsljc7ri3841pgrcrxuggv6x,FhgSYHWF,2020-0188,2020-05-07,16:44:23,17:02:12,NA,incomplete,157,shape,1,right,Purple_Triangle_Grid_3.jpg,Green_Plus_Grid_4.jpg,Red_Triangle_Stripes_2.jpg,right,868.4099999954924,true,low,NA,NA,NA,NA,NA,NA,NA,false
FhgSYHWF,3ka7ijsnx9iy5qpdnesn7gsg38gpb3,3os46crsljc7ri3841pgrcrxuggv6x,FhgSYHWF,2020-0188,2020-05-07,16:44:23,17:02:12,NA,incomplete,158,shape,1,right,Red_Triangle_Chess_4.jpg,Blue_Circle_Chess_1.jpg,Purple_Triangle_Grid_2.jpg,right,624.0099999995437,true,low,NA,NA,NA,NA,NA,NA,NA,false
FhgSYHWF,3ka7ijsnx9iy5qpdnesn7gsg38gpb3,3os46crsljc7ri3841pgrcrxuggv6x,FhgSYHWF,2020-0188,2020-05-07,16:44:23,17:02:12,NA,incomplete,159,shape,1,left,Green_Circle_Grid_4.jpg,Purple_Circle_Dots_3.jpg,Red_Star_Grid_2.jpg,left,672.3849999834783,true,low,NA,NA,NA,NA,NA,NA,NA,false
FhgSYHWF,3ka7ijsnx9iy5qpdnesn7gsg38gpb3,3os46crsljc7ri3841pgrcrxuggv6x,FhgSYHWF,2020-0188,2020-05-07,16:44:23,17:02:12,NA,incomplete,160,filling,1,left,Purple_Triangle_Grid_1.jpg,Red_Circle_Grid_4.jpg,Blue_Triangle_Dots_3.jpg,right,555.4600000032224,false,low,NA,NA,NA,NA,NA,NA,NA,false
FhgSYHWF,3ka7ijsnx9iy5qpdnesn7gsg38gpb3,3os46crsljc7ri3841pgrcrxuggv6x,FhgSYHWF,2020-0188,2020-05-07,16:44:23,17:02:12,NA,incomplete,161,filling,1,left,Blue_Star_Chess_4.jpg,Purple_Circle_Chess_1.jpg,Red_Star_Grid_2.jpg,right,630.3800000168849,false,low,NA,NA,NA,NA,NA,NA,NA,false
FhgSYHWF,3ka7ijsnx9iy5qpdnesn7gsg38gpb3,3os46crsljc7ri3841pgrcrxuggv6x,FhgSYHWF,2020-0188,2020-05-07,16:44:23,17:02:12,NA,incomplete,162,filling,1,left,Purple_Star_Dots_4.jpg,Green_Triangle_Dots_1.jpg,Blue_Star_Stripes_2.jpg,right,633.67000001017,false,low,NA,NA,NA,NA,NA,NA,NA,false
FhgSYHWF,3ka7ijsnx9iy5qpdnesn7gsg38gpb3,3os46crsljc7ri3841pgrcrxuggv6x,FhgSYHWF,2020-0188,2020-05-07,16:44:23,17:02:12,NA,incomplete,163,filling,1,left,Blue_Triangle_Stripes_4.jpg,Green_Star_Stripes_1.jpg,Red_Triangle_Chess_3.jpg,right,607.5199999904726,false,low,NA,NA,NA,NA,NA,NA,NA,false
FhgSYHWF,3ka7ijsnx9iy5qpdnesn7gsg38gpb3,3os46crsljc7ri3841pgrcrxuggv6x,FhgSYHWF,2020-0188,2020-05-07,16:44:23,17:02:12,NA,incomplete,164,filling,0,right,Blue_Circle_Stripes_4.jpg,Red_Circle_Chess_2.jpg,Purple_Triangle_Stripes_3.jpg,left,601.4000000141095,false,low,NA,NA,NA,NA,NA,NA,NA,false
FhgSYHWF,3ka7ijsnx9iy5qpdnesn7gsg38gpb3,3os46crsljc7ri3841pgrcrxuggv6x,FhgSYHWF,2020-0188,2020-05-07,16:44:23,17:02:12,NA,incomplete,165,filling,1,left,Purple_Triangle_Grid_3.jpg,Blue_Plus_Grid_4.jpg,Green_Triangle_Chess_1.jpg,right,574.9399999913294,false,low,NA,NA,NA,NA,NA,NA,NA,false
FhgSYHWF,3ka7ijsnx9iy5qpdnesn7gsg38gpb3,3os46crsljc7ri3841pgrcrxuggv6x,FhgSYHWF,2020-0188,2020-05-07,16:44:23,17:02:12,NA,incomplete,166,filling,0,left,Green_Circle_Chess_1.jpg,Red_Triangle_Chess_2.jpg,Blue_Circle_Stripes_4.jpg,right,889.0499999979511,false,low,NA,NA,NA,NA,NA,NA,NA,false
FhgSYHWF,3ka7ijsnx9iy5qpdnesn7gsg38gpb3,3os46crsljc7ri3841pgrcrxuggv6x,FhgSYHWF,2020-0188,2020-05-07,16:44:23,17:02:12,NA,incomplete,167,filling,1,left,Green_Triangle_Chess_1.jpg,Purple_Circle_Chess_4.jpg,Red_Triangle_Dots_3.jpg,right,574.7299999929965,false,low,NA,NA,NA,NA,NA,NA,NA,false
FhgSYHWF,3ka7ijsnx9iy5qpdnesn7gsg38gpb3,3os46crsljc7ri3841pgrcrxuggv6x,FhgSYHWF,2020-0188,2020-05-07,16:44:23,17:02:12,NA,incomplete,168,filling,1,left,Blue_Circle_Chess_1.jpg,Green_Plus_Chess_3.jpg,Red_Circle_Dots_2.jpg,right,826.7300000006799,false,low,NA,NA,NA,NA,NA,NA,NA,false
FhgSYHWF,3ka7ijsnx9iy5qpdnesn7gsg38gpb3,3os46crsljc7ri3841pgrcrxuggv6x,FhgSYHWF,2020-0188,2020-05-07,16:44:23,17:02:12,NA,incomplete,169,filling,1,right,Blue_Star_Chess_2.jpg,Red_Star_Stripes_1.jpg,Purple_Triangle_Chess_3.jpg,left,807.9199999920093,false,low,NA,NA,NA,NA,NA,NA,NA,false
FhgSYHWF,3ka7ijsnx9iy5qpdnesn7gsg38gpb3,3os46crsljc7ri3841pgrcrxuggv6x,FhgSYHWF,2020-0188,2020-05-07,16:44:23,17:02:12,NA,incomplete,170,filling,1,right,Blue_Triangle_Stripes_4.jpg,Purple_Triangle_Chess_2.jpg,Red_Star_Stripes_3.jpg,right,1214.269999996759,true,low,NA,NA,NA,NA,NA,NA,NA,false
FhgSYHWF,3ka7ijsnx9iy5qpdnesn7gsg38gpb3,3os46crsljc7ri3841pgrcrxuggv6x,FhgSYHWF,2020-0188,2020-05-07,16:44:23,17:02:12,NA,incomplete,171,filling,1,right,Blue_Star_Grid_1.jpg,Green_Star_Chess_3.jpg,Red_Triangle_Grid_4.jpg,right,1027.6900000171736,true,low,NA,NA,NA,NA,NA,NA,NA,false
FhgSYHWF,3ka7ijsnx9iy5qpdnesn7gsg38gpb3,3os46crsljc7ri3841pgrcrxuggv6x,FhgSYHWF,2020-0188,2020-05-07,16:44:23,17:02:12,NA,incomplete,172,filling,1,right,Blue_Circle_Grid_2.jpg,Purple_Circle_Chess_1.jpg,Red_Triangle_Grid_4.jpg,right,1011.5050000022165,true,low,NA,NA,NA,NA,NA,NA,NA,false
FhgSYHWF,3ka7ijsnx9iy5qpdnesn7gsg38gpb3,3os46crsljc7ri3841pgrcrxuggv6x,FhgSYHWF,2020-0188,2020-05-07,16:44:23,17:02:12,NA,incomplete,173,filling,0,left,Red_Plus_Grid_1.jpg,Green_Circle_Grid_4.jpg,Purple_Plus_Stripes_3.jpg,left,1094.745000009425,true,low,NA,NA,NA,NA,NA,NA,NA,false
FhgSYHWF,3ka7ijsnx9iy5qpdnesn7gsg38gpb3,3os46crsljc7ri3841pgrcrxuggv6x,FhgSYHWF,2020-0188,2020-05-07,16:44:23,17:02:12,NA,incomplete,174,filling,1,left,Green_Star_Dots_2.jpg,Red_Circle_Dots_3.jpg,Blue_Star_Chess_4.jpg,left,985.0649999862071,true,low,NA,NA,NA,NA,NA,NA,NA,false
FhgSYHWF,3ka7ijsnx9iy5qpdnesn7gsg38gpb3,3os46crsljc7ri3841pgrcrxuggv6x,FhgSYHWF,2020-0188,2020-05-07,16:44:23,17:02:12,NA,incomplete,175,filling,0,left,Blue_Plus_Dots_3.jpg,Green_Circle_Dots_4.jpg,Purple_Plus_Stripes_1.jpg,left,1116.9299999892246,true,low,NA,NA,NA,NA,NA,NA,NA,false
FhgSYHWF,3ka7ijsnx9iy5qpdnesn7gsg38gpb3,3os46crsljc7ri3841pgrcrxuggv6x,FhgSYHWF,2020-0188,2020-05-07,16:44:23,17:02:12,NA,incomplete,176,filling,1,left,Red_Plus_Dots_3.jpg,Purple_Triangle_Dots_4.jpg,Blue_Plus_Chess_1.jpg,left,907.5149999989662,true,low,NA,NA,NA,NA,NA,NA,NA,false
FhgSYHWF,3ka7ijsnx9iy5qpdnesn7gsg38gpb3,3os46crsljc7ri3841pgrcrxuggv6x,FhgSYHWF,2020-0188,2020-05-07,16:44:23,17:02:12,NA,incomplete,177,filling,0,right,Green_Plus_Grid_4.jpg,Blue_Plus_Chess_2.jpg,Purple_Circle_Grid_3.jpg,right,994.3149999890011,true,low,NA,NA,NA,NA,NA,NA,NA,false
FhgSYHWF,3ka7ijsnx9iy5qpdnesn7gsg38gpb3,3os46crsljc7ri3841pgrcrxuggv6x,FhgSYHWF,2020-0188,2020-05-07,16:44:23,17:02:12,NA,incomplete,178,filling,1,right,Red_Triangle_Grid_4.jpg,Blue_Triangle_Chess_2.jpg,Purple_Circle_Grid_3.jpg,right,919.9199999857228,true,low,NA,NA,NA,NA,NA,NA,NA,false
FhgSYHWF,3ka7ijsnx9iy5qpdnesn7gsg38gpb3,3os46crsljc7ri3841pgrcrxuggv6x,FhgSYHWF,2020-0188,2020-05-07,16:44:23,17:02:12,NA,incomplete,179,filling,1,right,Green_Circle_Dots_4.jpg,Blue_Circle_Grid_3.jpg,Purple_Triangle_Dots_2.jpg,right,821.8749999941792,true,low,NA,NA,NA,NA,NA,NA,NA,false
FhgSYHWF,3ka7ijsnx9iy5qpdnesn7gsg38gpb3,3os46crsljc7ri3841pgrcrxuggv6x,FhgSYHWF,2020-0188,2020-05-07,16:44:23,17:02:12,NA,incomplete,180,shape,1,left,Blue_Circle_Stripes_1.jpg,Red_Circle_Chess_3.jpg,Green_Triangle_Stripes_2.jpg,right,795.6950000079814,false,low,NA,NA,NA,NA,NA,NA,NA,false
FhgSYHWF,3ka7ijsnx9iy5qpdnesn7gsg38gpb3,3os46crsljc7ri3841pgrcrxuggv6x,FhgSYHWF,2020-0188,2020-05-07,16:44:23,17:02:12,NA,incomplete,181,shape,1,left,Purple_Star_Grid_2.jpg,Blue_Star_Dots_4.jpg,Red_Circle_Grid_1.jpg,right,908.6949999909848,false,low,NA,NA,NA,NA,NA,NA,NA,false
FhgSYHWF,3ka7ijsnx9iy5qpdnesn7gsg38gpb3,3os46crsljc7ri3841pgrcrxuggv6x,FhgSYHWF,2020-0188,2020-05-07,16:44:23,17:02:12,NA,incomplete,182,shape,1,right,Red_Circle_Stripes_3.jpg,Blue_Triangle_Stripes_4.jpg,Purple_Circle_Chess_1.jpg,left,894.7500000067521,false,low,NA,NA,NA,NA,NA,NA,NA,false
FhgSYHWF,3ka7ijsnx9iy5qpdnesn7gsg38gpb3,3os46crsljc7ri3841pgrcrxuggv6x,FhgSYHWF,2020-0188,2020-05-07,16:44:23,17:02:12,NA,incomplete,183,shape,0,left,Green_Triangle_Dots_3.jpg,Red_Triangle_Grid_1.jpg,Blue_Circle_Dots_4.jpg,left,738.2950000173878,true,low,NA,NA,NA,NA,NA,NA,NA,false
FhgSYHWF,3ka7ijsnx9iy5qpdnesn7gsg38gpb3,3os46crsljc7ri3841pgrcrxuggv6x,FhgSYHWF,2020-0188,2020-05-07,16:44:23,17:02:12,NA,incomplete,184,shape,1,left,Blue_Circle_Chess_1.jpg,Purple_Circle_Stripes_2.jpg,Green_Star_Chess_3.jpg,left,630.5599999905098,true,low,NA,NA,NA,NA,NA,NA,NA,false
FhgSYHWF,3ka7ijsnx9iy5qpdnesn7gsg38gpb3,3os46crsljc7ri3841pgrcrxuggv6x,FhgSYHWF,2020-0188,2020-05-07,16:44:23,17:02:12,NA,incomplete,185,shape,1,right,Green_Circle_Stripes_1.jpg,Blue_Triangle_Stripes_4.jpg,Red_Circle_Chess_3.jpg,right,1106.5100000123493,true,low,NA,NA,NA,NA,NA,NA,NA,false
FhgSYHWF,3ka7ijsnx9iy5qpdnesn7gsg38gpb3,3os46crsljc7ri3841pgrcrxuggv6x,FhgSYHWF,2020-0188,2020-05-07,16:44:23,17:02:12,NA,incomplete,186,shape,0,left,Purple_Triangle_Chess_3.jpg,Green_Triangle_Dots_2.jpg,Red_Plus_Chess_4.jpg,left,698.4499999962281,true,low,NA,NA,NA,NA,NA,NA,NA,false
FhgSYHWF,3ka7ijsnx9iy5qpdnesn7gsg38gpb3,3os46crsljc7ri3841pgrcrxuggv6x,FhgSYHWF,2020-0188,2020-05-07,16:44:23,17:02:12,NA,incomplete,187,shape,1,right,Purple_Star_Chess_2.jpg,Red_Plus_Chess_1.jpg,Green_Star_Dots_4.jpg,right,630.4799999925308,true,low,NA,NA,NA,NA,NA,NA,NA,false
FhgSYHWF,3ka7ijsnx9iy5qpdnesn7gsg38gpb3,3os46crsljc7ri3841pgrcrxuggv6x,FhgSYHWF,2020-0188,2020-05-07,16:44:23,17:02:12,NA,incomplete,188,shape,1,left,Blue_Plus_Stripes_3.jpg,Green_Plus_Chess_1.jpg,Red_Star_Stripes_2.jpg,left,1105.4500000027474,true,low,NA,NA,NA,NA,NA,NA,NA,false
FhgSYHWF,3ka7ijsnx9iy5qpdnesn7gsg38gpb3,3os46crsljc7ri3841pgrcrxuggv6x,FhgSYHWF,2020-0188,2020-05-07,16:44:23,17:02:12,NA,incomplete,189,shape,0,right,Red_Circle_Stripes_4.jpg,Purple_Star_Stripes_1.jpg,Green_Circle_Chess_2.jpg,right,647.690000012517,true,low,NA,NA,NA,NA,NA,NA,NA,false
FhgSYHWF,3ka7ijsnx9iy5qpdnesn7gsg38gpb3,3os46crsljc7ri3841pgrcrxuggv6x,FhgSYHWF,2020-0188,2020-05-07,16:44:23,17:02:12,NA,incomplete,190,shape,1,left,Green_Circle_Stripes_4.jpg,Purple_Circle_Chess_3.jpg,Red_Triangle_Stripes_1.jpg,left,1066.3300000014715,true,low,NA,NA,NA,NA,NA,NA,NA,false
FhgSYHWF,3ka7ijsnx9iy5qpdnesn7gsg38gpb3,3os46crsljc7ri3841pgrcrxuggv6x,FhgSYHWF,2020-0188,2020-05-07,16:44:23,17:02:12,NA,incomplete,191,shape,1,right,Green_Star_Stripes_1.jpg,Blue_Triangle_Stripes_2.jpg,Red_Star_Grid_4.jpg,right,854.5100000046659,true,low,NA,NA,NA,NA,NA,NA,NA,false
FhgSYHWF,3ka7ijsnx9iy5qpdnesn7gsg38gpb3,3os46crsljc7ri3841pgrcrxuggv6x,FhgSYHWF,2020-0188,2020-05-07,16:44:23,17:02:12,NA,incomplete,192,shape,1,right,Blue_Star_Dots_2.jpg,Purple_Plus_Dots_4.jpg,Green_Star_Grid_1.jpg,right,692.3899999819696,true,low,NA,NA,NA,NA,NA,NA,NA,false
FhgSYHWF,3ka7ijsnx9iy5qpdnesn7gsg38gpb3,3os46crsljc7ri3841pgrcrxuggv6x,FhgSYHWF,2020-0188,2020-05-07,16:44:23,17:02:12,NA,incomplete,193,shape,1,right,Red_Circle_Grid_1.jpg,Blue_Star_Grid_2.jpg,Purple_Circle_Chess_3.jpg,right,601.1549999821,true,low,NA,NA,NA,NA,NA,NA,NA,false
FhgSYHWF,3ka7ijsnx9iy5qpdnesn7gsg38gpb3,3os46crsljc7ri3841pgrcrxuggv6x,FhgSYHWF,2020-0188,2020-05-07,16:44:23,17:02:12,NA,incomplete,194,shape,1,left,Blue_Star_Chess_4.jpg,Green_Star_Dots_2.jpg,Red_Plus_Chess_1.jpg,left,781.8900000129361,true,low,NA,NA,NA,NA,NA,NA,NA,false
FhgSYHWF,3ka7ijsnx9iy5qpdnesn7gsg38gpb3,3os46crsljc7ri3841pgrcrxuggv6x,FhgSYHWF,2020-0188,2020-05-07,16:44:23,17:02:12,NA,incomplete,195,shape,1,right,Green_Triangle_Dots_2.jpg,Blue_Circle_Dots_4.jpg,Purple_Triangle_Chess_3.jpg,right,917.4349999811966,true,low,NA,NA,NA,NA,NA,NA,NA,false
FhgSYHWF,3ka7ijsnx9iy5qpdnesn7gsg38gpb3,3os46crsljc7ri3841pgrcrxuggv6x,FhgSYHWF,2020-0188,2020-05-07,16:44:23,17:02:12,NA,incomplete,196,shape,1,right,Green_Circle_Dots_3.jpg,Red_Star_Dots_2.jpg,Blue_Circle_Chess_4.jpg,right,680.5200000235345,true,low,NA,NA,NA,NA,NA,NA,NA,false
FhgSYHWF,3ka7ijsnx9iy5qpdnesn7gsg38gpb3,3os46crsljc7ri3841pgrcrxuggv6x,FhgSYHWF,2020-0188,2020-05-07,16:44:23,17:02:12,NA,incomplete,197,shape,0,left,Blue_Star_Dots_2.jpg,Red_Star_Grid_3.jpg,Purple_Circle_Dots_4.jpg,left,624.8750000086147,true,low,NA,NA,NA,NA,NA,NA,NA,false
FhgSYHWF,3ka7ijsnx9iy5qpdnesn7gsg38gpb3,3os46crsljc7ri3841pgrcrxuggv6x,FhgSYHWF,2020-0188,2020-05-07,16:44:23,17:02:12,NA,incomplete,198,shape,1,right,Green_Star_Grid_2.jpg,Red_Triangle_Grid_3.jpg,Blue_Star_Stripes_4.jpg,right,643.9949999912642,true,low,NA,NA,NA,NA,NA,NA,NA,false
FhgSYHWF,3ka7ijsnx9iy5qpdnesn7gsg38gpb3,3os46crsljc7ri3841pgrcrxuggv6x,FhgSYHWF,2020-0188,2020-05-07,16:44:23,17:02:12,NA,incomplete,199,shape,1,left,Red_Star_Dots_4.jpg,Purple_Star_Grid_3.jpg,Blue_Triangle_Dots_1.jpg,left,550.4049999872223,true,low,NA,NA,NA,NA,NA,NA,NA,false
FhgSYHWF,3ka7ijsnx9iy5qpdnesn7gsg38gpb3,3os46crsljc7ri3841pgrcrxuggv6x,FhgSYHWF,2020-0188,2020-05-07,16:44:23,17:02:12,NA,incomplete,200,filling,1,right,Blue_Star_Stripes_4.jpg,Red_Star_Grid_3.jpg,Purple_Plus_Stripes_1.jpg,left,577.7450000168756,false,low,NA,NA,NA,NA,NA,NA,NA,false
FhgSYHWF,3ka7ijsnx9iy5qpdnesn7gsg38gpb3,3os46crsljc7ri3841pgrcrxuggv6x,FhgSYHWF,2020-0188,2020-05-07,16:44:23,17:02:12,NA,incomplete,201,filling,1,right,Green_Triangle_Chess_2.jpg,Purple_Triangle_Stripes_3.jpg,Red_Circle_Chess_4.jpg,left,662.1149999846239,false,low,NA,NA,NA,NA,NA,NA,NA,false
FhgSYHWF,3ka7ijsnx9iy5qpdnesn7gsg38gpb3,3os46crsljc7ri3841pgrcrxuggv6x,FhgSYHWF,2020-0188,2020-05-07,16:44:23,17:02:12,NA,incomplete,202,filling,1,left,Green_Plus_Dots_3.jpg,Blue_Circle_Dots_2.jpg,Red_Plus_Stripes_4.jpg,right,579.2050000163727,false,low,NA,NA,NA,NA,NA,NA,NA,false
FhgSYHWF,3ka7ijsnx9iy5qpdnesn7gsg38gpb3,3os46crsljc7ri3841pgrcrxuggv6x,FhgSYHWF,2020-0188,2020-05-07,16:44:23,17:02:12,NA,incomplete,203,filling,1,left,Green_Plus_Grid_1.jpg,Blue_Star_Grid_4.jpg,Purple_Plus_Stripes_3.jpg,right,922.5549999973737,false,low,NA,NA,NA,NA,NA,NA,NA,false
FhgSYHWF,3ka7ijsnx9iy5qpdnesn7gsg38gpb3,3os46crsljc7ri3841pgrcrxuggv6x,FhgSYHWF,2020-0188,2020-05-07,16:44:23,17:02:12,NA,incomplete,204,filling,1,right,Purple_Circle_Chess_4.jpg,Red_Circle_Dots_1.jpg,Blue_Plus_Chess_3.jpg,right,1183.0250000057276,true,low,NA,NA,NA,NA,NA,NA,NA,false
FhgSYHWF,3ka7ijsnx9iy5qpdnesn7gsg38gpb3,3os46crsljc7ri3841pgrcrxuggv6x,FhgSYHWF,2020-0188,2020-05-07,16:44:23,17:02:12,NA,incomplete,205,filling,0,left,Blue_Triangle_Dots_4.jpg,Red_Star_Dots_1.jpg,Green_Triangle_Grid_3.jpg,left,1163.9349999895785,true,low,NA,NA,NA,NA,NA,NA,NA,false
FhgSYHWF,3ka7ijsnx9iy5qpdnesn7gsg38gpb3,3os46crsljc7ri3841pgrcrxuggv6x,FhgSYHWF,2020-0188,2020-05-07,16:44:23,17:02:12,NA,incomplete,206,filling,1,right,Red_Star_Stripes_1.jpg,Blue_Star_Chess_3.jpg,Green_Plus_Stripes_2.jpg,left,900.3749999974389,false,low,NA,NA,NA,NA,NA,NA,NA,false
FhgSYHWF,3ka7ijsnx9iy5qpdnesn7gsg38gpb3,3os46crsljc7ri3841pgrcrxuggv6x,FhgSYHWF,2020-0188,2020-05-07,16:44:23,17:02:12,NA,incomplete,207,filling,1,right,Blue_Circle_Stripes_1.jpg,Red_Circle_Grid_2.jpg,Purple_Plus_Stripes_3.jpg,right,753.4499999892432,true,low,NA,NA,NA,NA,NA,NA,NA,false
FhgSYHWF,3ka7ijsnx9iy5qpdnesn7gsg38gpb3,3os46crsljc7ri3841pgrcrxuggv6x,FhgSYHWF,2020-0188,2020-05-07,16:44:23,17:02:12,NA,incomplete,208,filling,1,right,Green_Plus_Grid_4.jpg,Blue_Plus_Stripes_2.jpg,Purple_Star_Grid_3.jpg,right,1081.514999998035,true,low,NA,NA,NA,NA,NA,NA,NA,false
FhgSYHWF,3ka7ijsnx9iy5qpdnesn7gsg38gpb3,3os46crsljc7ri3841pgrcrxuggv6x,FhgSYHWF,2020-0188,2020-05-07,16:44:23,17:02:12,NA,incomplete,209,filling,0,left,Red_Plus_Grid_3.jpg,Blue_Triangle_Grid_2.jpg,Green_Plus_Dots_4.jpg,left,977.2250000096392,true,low,NA,NA,NA,NA,NA,NA,NA,false
FhgSYHWF,3ka7ijsnx9iy5qpdnesn7gsg38gpb3,3os46crsljc7ri3841pgrcrxuggv6x,FhgSYHWF,2020-0188,2020-05-07,16:44:23,17:02:12,NA,incomplete,210,filling,1,left,Purple_Circle_Chess_4.jpg,Blue_Plus_Chess_3.jpg,Green_Circle_Grid_1.jpg,left,992.7699999825563,true,low,NA,NA,NA,NA,NA,NA,NA,false
FhgSYHWF,3ka7ijsnx9iy5qpdnesn7gsg38gpb3,3os46crsljc7ri3841pgrcrxuggv6x,FhgSYHWF,2020-0188,2020-05-07,16:44:23,17:02:12,NA,incomplete,211,filling,1,left,Green_Circle_Grid_1.jpg,Blue_Triangle_Grid_4.jpg,Red_Circle_Dots_2.jpg,left,1071.075000014389,true,low,NA,NA,NA,NA,NA,NA,NA,false
FhgSYHWF,3ka7ijsnx9iy5qpdnesn7gsg38gpb3,3os46crsljc7ri3841pgrcrxuggv6x,FhgSYHWF,2020-0188,2020-05-07,16:44:23,17:02:12,NA,incomplete,212,filling,1,left,Blue_Plus_Stripes_3.jpg,Green_Triangle_Stripes_2.jpg,Purple_Plus_Chess_4.jpg,left,1069.6699999971315,true,low,NA,NA,NA,NA,NA,NA,NA,false
FhgSYHWF,3ka7ijsnx9iy5qpdnesn7gsg38gpb3,3os46crsljc7ri3841pgrcrxuggv6x,FhgSYHWF,2020-0188,2020-05-07,16:44:23,17:02:12,NA,incomplete,213,filling,0,left,Green_Triangle_Grid_4.jpg,Red_Plus_Grid_1.jpg,Purple_Triangle_Stripes_3.jpg,left,1030.5249999801163,true,low,NA,NA,NA,NA,NA,NA,NA,false
FhgSYHWF,3ka7ijsnx9iy5qpdnesn7gsg38gpb3,3os46crsljc7ri3841pgrcrxuggv6x,FhgSYHWF,2020-0188,2020-05-07,16:44:23,17:02:12,NA,incomplete,214,filling,1,left,Purple_Circle_Stripes_2.jpg,Blue_Star_Stripes_3.jpg,Green_Circle_Dots_1.jpg,left,908.400000014808,true,low,NA,NA,NA,NA,NA,NA,NA,false
FhgSYHWF,3ka7ijsnx9iy5qpdnesn7gsg38gpb3,3os46crsljc7ri3841pgrcrxuggv6x,FhgSYHWF,2020-0188,2020-05-07,16:44:23,17:02:12,NA,incomplete,215,filling,0,right,Purple_Star_Dots_3.jpg,Red_Star_Chess_4.jpg,Green_Triangle_Dots_1.jpg,right,1242.7850000094622,true,low,NA,NA,NA,NA,NA,NA,NA,false
FhgSYHWF,3ka7ijsnx9iy5qpdnesn7gsg38gpb3,3os46crsljc7ri3841pgrcrxuggv6x,FhgSYHWF,2020-0188,2020-05-07,16:44:23,17:02:12,NA,incomplete,216,filling,1,right,Purple_Triangle_Dots_2.jpg,Green_Triangle_Chess_4.jpg,Red_Star_Dots_3.jpg,right,871.1249999760184,true,low,NA,NA,NA,NA,NA,NA,NA,false
FhgSYHWF,3ka7ijsnx9iy5qpdnesn7gsg38gpb3,3os46crsljc7ri3841pgrcrxuggv6x,FhgSYHWF,2020-0188,2020-05-07,16:44:23,17:02:12,NA,incomplete,217,filling,1,left,Purple_Plus_Stripes_1.jpg,Blue_Star_Stripes_3.jpg,Red_Plus_Grid_2.jpg,left,1035.81000000122,true,low,NA,NA,NA,NA,NA,NA,NA,false
FhgSYHWF,3ka7ijsnx9iy5qpdnesn7gsg38gpb3,3os46crsljc7ri3841pgrcrxuggv6x,FhgSYHWF,2020-0188,2020-05-07,16:44:23,17:02:12,NA,incomplete,218,filling,1,right,Blue_Triangle_Chess_1.jpg,Green_Triangle_Stripes_4.jpg,Purple_Plus_Chess_2.jpg,right,927.0899999828544,true,low,NA,NA,NA,NA,NA,NA,NA,false
FhgSYHWF,3ka7ijsnx9iy5qpdnesn7gsg38gpb3,3os46crsljc7ri3841pgrcrxuggv6x,FhgSYHWF,2020-0188,2020-05-07,16:44:23,17:02:12,NA,incomplete,219,filling,1,right,Green_Star_Chess_1.jpg,Red_Star_Dots_3.jpg,Blue_Plus_Chess_2.jpg,right,906.1000000219792,true,low,NA,NA,NA,NA,NA,NA,NA,false
FhgSYHWF,3ka7ijsnx9iy5qpdnesn7gsg38gpb3,3os46crsljc7ri3841pgrcrxuggv6x,FhgSYHWF,2020-0188,2020-05-07,16:44:23,17:02:12,NA,incomplete,220,shape,1,right,Green_Star_Dots_2.jpg,Red_Plus_Dots_4.jpg,Purple_Star_Grid_3.jpg,left,984.7800000279676,false,low,NA,NA,NA,NA,NA,NA,NA,false
FhgSYHWF,3ka7ijsnx9iy5qpdnesn7gsg38gpb3,3os46crsljc7ri3841pgrcrxuggv6x,FhgSYHWF,2020-0188,2020-05-07,16:44:23,17:02:12,NA,incomplete,221,shape,0,right,Purple_Plus_Dots_1.jpg,Blue_Circle_Dots_3.jpg,Green_Plus_Grid_4.jpg,left,1205.870000005234,false,low,NA,NA,NA,NA,NA,NA,NA,false
FhgSYHWF,3ka7ijsnx9iy5qpdnesn7gsg38gpb3,3os46crsljc7ri3841pgrcrxuggv6x,FhgSYHWF,2020-0188,2020-05-07,16:44:23,17:02:12,NA,incomplete,222,shape,1,left,Red_Star_Stripes_2.jpg,Green_Star_Dots_1.jpg,Purple_Plus_Stripes_3.jpg,right,807.1150000032503,false,low,NA,NA,NA,NA,NA,NA,NA,false
FhgSYHWF,3ka7ijsnx9iy5qpdnesn7gsg38gpb3,3os46crsljc7ri3841pgrcrxuggv6x,FhgSYHWF,2020-0188,2020-05-07,16:44:23,17:02:12,NA,incomplete,223,shape,1,left,Blue_Triangle_Grid_1.jpg,Purple_Triangle_Dots_3.jpg,Red_Star_Grid_4.jpg,right,991.1900000006426,false,low,NA,NA,NA,NA,NA,NA,NA,false
FhgSYHWF,3ka7ijsnx9iy5qpdnesn7gsg38gpb3,3os46crsljc7ri3841pgrcrxuggv6x,FhgSYHWF,2020-0188,2020-05-07,16:44:23,17:02:12,NA,incomplete,224,shape,1,left,Purple_Circle_Chess_4.jpg,Green_Circle_Stripes_1.jpg,Red_Triangle_Chess_2.jpg,right,1033.8150000025053,false,low,NA,NA,NA,NA,NA,NA,NA,false
FhgSYHWF,3ka7ijsnx9iy5qpdnesn7gsg38gpb3,3os46crsljc7ri3841pgrcrxuggv6x,FhgSYHWF,2020-0188,2020-05-07,16:44:23,17:02:12,NA,incomplete,225,shape,1,left,Purple_Star_Stripes_4.jpg,Blue_Star_Dots_1.jpg,Red_Circle_Stripes_3.jpg,left,796.0399999865331,true,low,NA,NA,NA,NA,NA,NA,NA,false
FhgSYHWF,3ka7ijsnx9iy5qpdnesn7gsg38gpb3,3os46crsljc7ri3841pgrcrxuggv6x,FhgSYHWF,2020-0188,2020-05-07,16:44:23,17:02:12,NA,incomplete,226,shape,1,left,Green_Triangle_Grid_1.jpg,Blue_Triangle_Dots_4.jpg,Purple_Plus_Grid_2.jpg,left,756.5400000021327,true,low,NA,NA,NA,NA,NA,NA,NA,false
FhgSYHWF,3ka7ijsnx9iy5qpdnesn7gsg38gpb3,3os46crsljc7ri3841pgrcrxuggv6x,FhgSYHWF,2020-0188,2020-05-07,16:44:23,17:02:12,NA,incomplete,227,shape,0,left,Blue_Triangle_Grid_3.jpg,Red_Triangle_Dots_2.jpg,Purple_Star_Grid_4.jpg,right,815.8750000002328,false,low,NA,NA,NA,NA,NA,NA,NA,false
FhgSYHWF,3ka7ijsnx9iy5qpdnesn7gsg38gpb3,3os46crsljc7ri3841pgrcrxuggv6x,FhgSYHWF,2020-0188,2020-05-07,16:44:23,17:02:12,NA,incomplete,228,shape,1,right,Red_Triangle_Stripes_2.jpg,Purple_Circle_Stripes_3.jpg,Green_Triangle_Grid_1.jpg,left,922.7099999843631,false,low,NA,NA,NA,NA,NA,NA,NA,false
FhgSYHWF,3ka7ijsnx9iy5qpdnesn7gsg38gpb3,3os46crsljc7ri3841pgrcrxuggv6x,FhgSYHWF,2020-0188,2020-05-07,16:44:23,17:02:12,NA,incomplete,229,shape,1,right,Green_Star_Chess_3.jpg,Blue_Circle_Chess_4.jpg,Purple_Star_Stripes_2.jpg,right,1069.3399999872781,true,low,NA,NA,NA,NA,NA,NA,NA,false
FhgSYHWF,3ka7ijsnx9iy5qpdnesn7gsg38gpb3,3os46crsljc7ri3841pgrcrxuggv6x,FhgSYHWF,2020-0188,2020-05-07,16:44:23,17:02:12,NA,incomplete,230,shape,0,right,Red_Star_Dots_2.jpg,Purple_Plus_Dots_3.jpg,Green_Star_Grid_1.jpg,right,680.2049999823794,true,low,NA,NA,NA,NA,NA,NA,NA,false
FhgSYHWF,3ka7ijsnx9iy5qpdnesn7gsg38gpb3,3os46crsljc7ri3841pgrcrxuggv6x,FhgSYHWF,2020-0188,2020-05-07,16:44:23,17:02:12,NA,incomplete,231,shape,1,left,Purple_Triangle_Stripes_1.jpg,Blue_Triangle_Dots_4.jpg,Green_Star_Stripes_2.jpg,left,1023.3399999851827,true,low,NA,NA,NA,NA,NA,NA,NA,false
FhgSYHWF,3ka7ijsnx9iy5qpdnesn7gsg38gpb3,3os46crsljc7ri3841pgrcrxuggv6x,FhgSYHWF,2020-0188,2020-05-07,16:44:23,17:02:12,NA,incomplete,232,shape,0,right,Purple_Star_Stripes_2.jpg,Green_Plus_Stripes_3.jpg,Red_Star_Chess_1.jpg,right,1058.4600000001956,true,low,NA,NA,NA,NA,NA,NA,NA,false
FhgSYHWF,3ka7ijsnx9iy5qpdnesn7gsg38gpb3,3os46crsljc7ri3841pgrcrxuggv6x,FhgSYHWF,2020-0188,2020-05-07,16:44:23,17:02:12,NA,incomplete,233,shape,1,right,Red_Star_Chess_1.jpg,Purple_Circle_Chess_4.jpg,Blue_Star_Dots_3.jpg,right,566.2500000034925,true,low,NA,NA,NA,NA,NA,NA,NA,false
FhgSYHWF,3ka7ijsnx9iy5qpdnesn7gsg38gpb3,3os46crsljc7ri3841pgrcrxuggv6x,FhgSYHWF,2020-0188,2020-05-07,16:44:23,17:02:12,NA,incomplete,234,shape,1,left,Blue_Triangle_Dots_3.jpg,Green_Triangle_Stripes_2.jpg,Purple_Circle_Dots_1.jpg,left,548.209999979008,true,low,NA,NA,NA,NA,NA,NA,NA,false
FhgSYHWF,3ka7ijsnx9iy5qpdnesn7gsg38gpb3,3os46crsljc7ri3841pgrcrxuggv6x,FhgSYHWF,2020-0188,2020-05-07,16:44:23,17:02:12,NA,incomplete,235,shape,0,left,Red_Plus_Grid_2.jpg,Blue_Plus_Chess_3.jpg,Green_Star_Grid_4.jpg,left,606.5499999967869,true,low,NA,NA,NA,NA,NA,NA,NA,false
FhgSYHWF,3ka7ijsnx9iy5qpdnesn7gsg38gpb3,3os46crsljc7ri3841pgrcrxuggv6x,FhgSYHWF,2020-0188,2020-05-07,16:44:23,17:02:12,NA,incomplete,236,shape,1,left,Green_Star_Chess_3.jpg,Blue_Star_Grid_1.jpg,Purple_Plus_Chess_4.jpg,left,1265.385000006063,true,low,NA,NA,NA,NA,NA,NA,NA,false
FhgSYHWF,3ka7ijsnx9iy5qpdnesn7gsg38gpb3,3os46crsljc7ri3841pgrcrxuggv6x,FhgSYHWF,2020-0188,2020-05-07,16:44:23,17:02:12,NA,incomplete,237,shape,1,left,Red_Triangle_Grid_2.jpg,Blue_Triangle_Chess_3.jpg,Green_Circle_Grid_4.jpg,left,642.7850000036415,true,low,NA,NA,NA,NA,NA,NA,NA,false
FhgSYHWF,3ka7ijsnx9iy5qpdnesn7gsg38gpb3,3os46crsljc7ri3841pgrcrxuggv6x,FhgSYHWF,2020-0188,2020-05-07,16:44:23,17:02:12,NA,incomplete,238,shape,1,left,Purple_Star_Chess_2.jpg,Green_Star_Stripes_4.jpg,Blue_Triangle_Chess_1.jpg,right,693.3999999891967,false,low,NA,NA,NA,NA,NA,NA,NA,false
FhgSYHWF,3ka7ijsnx9iy5qpdnesn7gsg38gpb3,3os46crsljc7ri3841pgrcrxuggv6x,FhgSYHWF,2020-0188,2020-05-07,16:44:23,17:02:12,NA,incomplete,239,shape,1,left,Red_Plus_Grid_1.jpg,Green_Plus_Dots_4.jpg,Purple_Circle_Grid_3.jpg,left,700.1049999962561,true,low,NA,NA,NA,NA,NA,NA,NA,false
FhgSYHWF,3ka7ijsnx9iy5qpdnesn7gsg38gpb3,3os46crsljc7ri3841pgrcrxuggv6x,FhgSYHWF,2020-0188,2020-05-07,16:44:23,17:02:12,1039804.7150000057,1069242.2899999947,NA,NA,NA,NA,NA,NA,NA,NA,NA,NA,NA,33,White/Caucasian,Female,Caucasian,no,no,no,undefined
