workerId,hitId,assignmentId,subject,studyid,exp_date,exp_start,exp_end,time_start,time_end,trial,type,reward_validity,answer,image_top,image_left,image_right,response,response_time,response_acc,volatility,practice
IGkXEAYh,3m67tqbqrk18ut4e0bwuqf8vno09av,3oswbblg1iayggnie3ycl3ybshqxdk,IGkXEAYh,2020-0188,2020-11-20,12:26:12,12:45:54,NA,incomplete,0,shape,1,left,Blue_Plus_Grid_3.jpg,Green_Plus_Dots_4.jpg,Blue_Circle_Stripes_1.jpg,left,1746.000000006461,true,NA,true
IGkXEAYh,3m67tqbqrk18ut4e0bwuqf8vno09av,3oswbblg1iayggnie3ycl3ybshqxdk,IGkXEAYh,2020-0188,2020-11-20,12:26:12,12:45:54,NA,incomplete,1,shape,1,right,Purple_Plus_Chess_2.jpg,Purple_Circle_Stripes_1.jpg,Red_Plus_Dots_3.jpg,right,1024.0000000048894,true,NA,true
IGkXEAYh,3m67tqbqrk18ut4e0bwuqf8vno09av,3oswbblg1iayggnie3ycl3ybshqxdk,IGkXEAYh,2020-0188,2020-11-20,12:26:12,12:45:54,NA,incomplete,2,shape,1,left,Red_Plus_Dots_3.jpg,Purple_Plus_Chess_4.jpg,Red_Star_Stripes_2.jpg,left,908.000000003085,true,NA,true
IGkXEAYh,3m67tqbqrk18ut4e0bwuqf8vno09av,3oswbblg1iayggnie3ycl3ybshqxdk,IGkXEAYh,2020-0188,2020-11-20,12:26:12,12:45:54,NA,incomplete,3,shape,0,right,Green_Circle_Stripes_2.jpg,Green_Star_Grid_3.jpg,Red_Circle_Chess_1.jpg,left,763.9999999955762,false,NA,true
IGkXEAYh,3m67tqbqrk18ut4e0bwuqf8vno09av,3oswbblg1iayggnie3ycl3ybshqxdk,IGkXEAYh,2020-0188,2020-11-20,12:26:12,12:45:54,NA,incomplete,4,shape,0,left,Purple_Circle_Dots_2.jpg,Blue_Circle_Chess_3.jpg,Purple_Plus_Stripes_1.jpg,left,1504.9999999973807,true,NA,true
IGkXEAYh,3m67tqbqrk18ut4e0bwuqf8vno09av,3oswbblg1iayggnie3ycl3ybshqxdk,IGkXEAYh,2020-0188,2020-11-20,12:26:12,12:45:54,NA,incomplete,5,shape,1,left,Green_Star_Grid_1.jpg,Purple_Star_Chess_2.jpg,Green_Circle_Dots_3.jpg,left,1512.9999999990105,true,NA,true
IGkXEAYh,3m67tqbqrk18ut4e0bwuqf8vno09av,3oswbblg1iayggnie3ycl3ybshqxdk,IGkXEAYh,2020-0188,2020-11-20,12:26:12,12:45:54,NA,incomplete,6,shape,1,left,Blue_Triangle_Grid_1.jpg,Green_Triangle_Chess_4.jpg,Blue_Plus_Stripes_3.jpg,left,1248.9999999961583,true,NA,true
IGkXEAYh,3m67tqbqrk18ut4e0bwuqf8vno09av,3oswbblg1iayggnie3ycl3ybshqxdk,IGkXEAYh,2020-0188,2020-11-20,12:26:12,12:45:54,NA,incomplete,7,shape,1,right,Green_Circle_Grid_4.jpg,Green_Triangle_Chess_2.jpg,Purple_Circle_Stripes_1.jpg,right,1250.9999999965657,true,NA,true
IGkXEAYh,3m67tqbqrk18ut4e0bwuqf8vno09av,3oswbblg1iayggnie3ycl3ybshqxdk,IGkXEAYh,2020-0188,2020-11-20,12:26:12,12:45:54,NA,incomplete,8,shape,1,right,Purple_Plus_Dots_3.jpg,Purple_Circle_Chess_1.jpg,Blue_Plus_Stripes_2.jpg,right,1061.0000000015134,true,NA,true
IGkXEAYh,3m67tqbqrk18ut4e0bwuqf8vno09av,3oswbblg1iayggnie3ycl3ybshqxdk,IGkXEAYh,2020-0188,2020-11-20,12:26:12,12:45:54,NA,incomplete,9,shape,0,right,Green_Star_Grid_2.jpg,Green_Triangle_Stripes_4.jpg,Blue_Star_Chess_1.jpg,right,959.0000000025611,true,NA,true
IGkXEAYh,3m67tqbqrk18ut4e0bwuqf8vno09av,3oswbblg1iayggnie3ycl3ybshqxdk,IGkXEAYh,2020-0188,2020-11-20,12:26:12,12:45:54,NA,incomplete,10,shape,1,right,Red_Star_Chess_1.jpg,Red_Plus_Dots_2.jpg,Green_Star_Grid_3.jpg,right,1405.9999999954016,true,NA,true
IGkXEAYh,3m67tqbqrk18ut4e0bwuqf8vno09av,3oswbblg1iayggnie3ycl3ybshqxdk,IGkXEAYh,2020-0188,2020-11-20,12:26:12,12:45:54,NA,incomplete,11,shape,1,left,Green_Circle_Grid_3.jpg,Purple_Circle_Stripes_1.jpg,Green_Triangle_Dots_2.jpg,left,1239.9999999979627,true,NA,true
IGkXEAYh,3m67tqbqrk18ut4e0bwuqf8vno09av,3oswbblg1iayggnie3ycl3ybshqxdk,IGkXEAYh,2020-0188,2020-11-20,12:26:12,12:45:54,NA,incomplete,12,shape,1,right,Red_Triangle_Grid_2.jpg,Red_Plus_Stripes_1.jpg,Blue_Triangle_Chess_3.jpg,right,859.9999999933061,true,NA,true
IGkXEAYh,3m67tqbqrk18ut4e0bwuqf8vno09av,3oswbblg1iayggnie3ycl3ybshqxdk,IGkXEAYh,2020-0188,2020-11-20,12:26:12,12:45:54,NA,incomplete,13,shape,1,left,Blue_Triangle_Grid_3.jpg,Green_Triangle_Chess_1.jpg,Blue_Plus_Stripes_2.jpg,left,1036.999999996624,true,NA,true
IGkXEAYh,3m67tqbqrk18ut4e0bwuqf8vno09av,3oswbblg1iayggnie3ycl3ybshqxdk,IGkXEAYh,2020-0188,2020-11-20,12:26:12,12:45:54,NA,incomplete,14,shape,1,left,Red_Plus_Dots_2.jpg,Green_Plus_Grid_3.jpg,Red_Circle_Stripes_1.jpg,left,1417.0000000012806,true,NA,true
IGkXEAYh,3m67tqbqrk18ut4e0bwuqf8vno09av,3oswbblg1iayggnie3ycl3ybshqxdk,IGkXEAYh,2020-0188,2020-11-20,12:26:12,12:45:54,NA,incomplete,15,shape,0,right,Blue_Circle_Stripes_4.jpg,Blue_Star_Dots_3.jpg,Green_Circle_Grid_1.jpg,right,1860.000000000582,true,NA,true
IGkXEAYh,3m67tqbqrk18ut4e0bwuqf8vno09av,3oswbblg1iayggnie3ycl3ybshqxdk,IGkXEAYh,2020-0188,2020-11-20,12:26:12,12:45:54,NA,incomplete,16,shape,0,right,Purple_Plus_Stripes_2.jpg,Purple_Circle_Dots_4.jpg,Red_Plus_Grid_3.jpg,right,1054.0000000037253,true,NA,true
IGkXEAYh,3m67tqbqrk18ut4e0bwuqf8vno09av,3oswbblg1iayggnie3ycl3ybshqxdk,IGkXEAYh,2020-0188,2020-11-20,12:26:12,12:45:54,NA,incomplete,17,shape,1,left,Red_Star_Chess_1.jpg,Purple_Star_Dots_2.jpg,Red_Circle_Grid_4.jpg,left,1415.0000000008731,true,NA,true
IGkXEAYh,3m67tqbqrk18ut4e0bwuqf8vno09av,3oswbblg1iayggnie3ycl3ybshqxdk,IGkXEAYh,2020-0188,2020-11-20,12:26:12,12:45:54,NA,incomplete,18,shape,1,left,Green_Triangle_Chess_1.jpg,Blue_Triangle_Dots_3.jpg,Green_Plus_Stripes_2.jpg,left,883.9999999981956,true,NA,true
IGkXEAYh,3m67tqbqrk18ut4e0bwuqf8vno09av,3oswbblg1iayggnie3ycl3ybshqxdk,IGkXEAYh,2020-0188,2020-11-20,12:26:12,12:45:54,NA,incomplete,19,shape,0,left,Red_Triangle_Chess_3.jpg,Blue_Triangle_Grid_4.jpg,Red_Circle_Dots_1.jpg,left,1188.0000000019209,true,NA,true
IGkXEAYh,3m67tqbqrk18ut4e0bwuqf8vno09av,3oswbblg1iayggnie3ycl3ybshqxdk,IGkXEAYh,2020-0188,2020-11-20,12:26:12,12:45:54,NA,incomplete,20,color,1,left,Purple_Circle_Stripes_2.jpg,Purple_Star_Grid_4.jpg,Red_Circle_Chess_3.jpg,right,824.9999999970896,false,NA,true
IGkXEAYh,3m67tqbqrk18ut4e0bwuqf8vno09av,3oswbblg1iayggnie3ycl3ybshqxdk,IGkXEAYh,2020-0188,2020-11-20,12:26:12,12:45:54,NA,incomplete,21,color,1,right,Purple_Star_Chess_3.jpg,Red_Star_Grid_4.jpg,Purple_Plus_Dots_2.jpg,right,955.0000000017462,true,NA,true
IGkXEAYh,3m67tqbqrk18ut4e0bwuqf8vno09av,3oswbblg1iayggnie3ycl3ybshqxdk,IGkXEAYh,2020-0188,2020-11-20,12:26:12,12:45:54,NA,incomplete,22,color,1,left,Green_Star_Dots_3.jpg,Green_Plus_Chess_4.jpg,Red_Star_Stripes_2.jpg,left,826.0000000009313,true,NA,true
IGkXEAYh,3m67tqbqrk18ut4e0bwuqf8vno09av,3oswbblg1iayggnie3ycl3ybshqxdk,IGkXEAYh,2020-0188,2020-11-20,12:26:12,12:45:54,NA,incomplete,23,color,1,left,Red_Star_Stripes_1.jpg,Red_Triangle_Chess_2.jpg,Green_Star_Grid_3.jpg,left,701.9999999974971,true,NA,true
IGkXEAYh,3m67tqbqrk18ut4e0bwuqf8vno09av,3oswbblg1iayggnie3ycl3ybshqxdk,IGkXEAYh,2020-0188,2020-11-20,12:26:12,12:45:54,NA,incomplete,24,color,1,right,Blue_Star_Grid_4.jpg,Purple_Star_Chess_1.jpg,Blue_Circle_Stripes_3.jpg,right,789.0000000043074,true,NA,true
IGkXEAYh,3m67tqbqrk18ut4e0bwuqf8vno09av,3oswbblg1iayggnie3ycl3ybshqxdk,IGkXEAYh,2020-0188,2020-11-20,12:26:12,12:45:54,NA,incomplete,25,color,1,right,Green_Circle_Grid_2.jpg,Purple_Circle_Dots_4.jpg,Green_Star_Chess_3.jpg,right,794.000000001688,true,NA,true
IGkXEAYh,3m67tqbqrk18ut4e0bwuqf8vno09av,3oswbblg1iayggnie3ycl3ybshqxdk,IGkXEAYh,2020-0188,2020-11-20,12:26:12,12:45:54,NA,incomplete,26,color,1,left,Red_Circle_Stripes_3.jpg,Red_Triangle_Grid_4.jpg,Green_Circle_Dots_1.jpg,left,654.0000000022701,true,NA,true
IGkXEAYh,3m67tqbqrk18ut4e0bwuqf8vno09av,3oswbblg1iayggnie3ycl3ybshqxdk,IGkXEAYh,2020-0188,2020-11-20,12:26:12,12:45:54,NA,incomplete,27,color,1,left,Purple_Triangle_Grid_3.jpg,Purple_Star_Chess_4.jpg,Red_Triangle_Stripes_1.jpg,left,726.9999999989523,true,NA,true
IGkXEAYh,3m67tqbqrk18ut4e0bwuqf8vno09av,3oswbblg1iayggnie3ycl3ybshqxdk,IGkXEAYh,2020-0188,2020-11-20,12:26:12,12:45:54,NA,incomplete,28,color,1,left,Green_Circle_Chess_1.jpg,Green_Plus_Stripes_3.jpg,Red_Circle_Dots_2.jpg,left,625,true,NA,true
IGkXEAYh,3m67tqbqrk18ut4e0bwuqf8vno09av,3oswbblg1iayggnie3ycl3ybshqxdk,IGkXEAYh,2020-0188,2020-11-20,12:26:12,12:45:54,NA,incomplete,29,color,1,left,Green_Triangle_Grid_2.jpg,Green_Plus_Chess_4.jpg,Red_Triangle_Dots_3.jpg,left,601.9999999989523,true,NA,true
IGkXEAYh,3m67tqbqrk18ut4e0bwuqf8vno09av,3oswbblg1iayggnie3ycl3ybshqxdk,IGkXEAYh,2020-0188,2020-11-20,12:26:12,12:45:54,NA,incomplete,30,color,1,right,Red_Star_Stripes_3.jpg,Blue_Star_Chess_4.jpg,Red_Triangle_Dots_1.jpg,right,597.9999999981374,true,NA,true
IGkXEAYh,3m67tqbqrk18ut4e0bwuqf8vno09av,3oswbblg1iayggnie3ycl3ybshqxdk,IGkXEAYh,2020-0188,2020-11-20,12:26:12,12:45:54,NA,incomplete,31,color,1,left,Blue_Circle_Dots_2.jpg,Blue_Triangle_Chess_3.jpg,Purple_Circle_Grid_1.jpg,left,723.0000000054133,true,NA,true
IGkXEAYh,3m67tqbqrk18ut4e0bwuqf8vno09av,3oswbblg1iayggnie3ycl3ybshqxdk,IGkXEAYh,2020-0188,2020-11-20,12:26:12,12:45:54,NA,incomplete,32,color,1,left,Blue_Plus_Stripes_4.jpg,Blue_Star_Grid_1.jpg,Red_Plus_Chess_2.jpg,left,872.9999999995925,true,NA,true
IGkXEAYh,3m67tqbqrk18ut4e0bwuqf8vno09av,3oswbblg1iayggnie3ycl3ybshqxdk,IGkXEAYh,2020-0188,2020-11-20,12:26:12,12:45:54,NA,incomplete,33,color,0,right,Red_Triangle_Chess_4.jpg,Blue_Triangle_Grid_2.jpg,Red_Circle_Dots_1.jpg,right,635.999999998603,true,NA,true
IGkXEAYh,3m67tqbqrk18ut4e0bwuqf8vno09av,3oswbblg1iayggnie3ycl3ybshqxdk,IGkXEAYh,2020-0188,2020-11-20,12:26:12,12:45:54,NA,incomplete,34,color,1,left,Green_Circle_Chess_3.jpg,Green_Triangle_Stripes_4.jpg,Blue_Circle_Grid_2.jpg,left,918.0000000051223,true,NA,true
IGkXEAYh,3m67tqbqrk18ut4e0bwuqf8vno09av,3oswbblg1iayggnie3ycl3ybshqxdk,IGkXEAYh,2020-0188,2020-11-20,12:26:12,12:45:54,NA,incomplete,35,color,1,left,Red_Star_Grid_4.jpg,Red_Triangle_Dots_3.jpg,Purple_Star_Chess_1.jpg,left,997.0000000030268,true,NA,true
IGkXEAYh,3m67tqbqrk18ut4e0bwuqf8vno09av,3oswbblg1iayggnie3ycl3ybshqxdk,IGkXEAYh,2020-0188,2020-11-20,12:26:12,12:45:54,NA,incomplete,36,color,1,right,Red_Star_Grid_2.jpg,Purple_Star_Stripes_1.jpg,Red_Circle_Chess_3.jpg,right,722.0000000015716,true,NA,true
IGkXEAYh,3m67tqbqrk18ut4e0bwuqf8vno09av,3oswbblg1iayggnie3ycl3ybshqxdk,IGkXEAYh,2020-0188,2020-11-20,12:26:12,12:45:54,NA,incomplete,37,color,0,right,Blue_Triangle_Dots_3.jpg,Red_Triangle_Chess_1.jpg,Blue_Plus_Stripes_2.jpg,right,663.9999999970896,true,NA,true
IGkXEAYh,3m67tqbqrk18ut4e0bwuqf8vno09av,3oswbblg1iayggnie3ycl3ybshqxdk,IGkXEAYh,2020-0188,2020-11-20,12:26:12,12:45:54,NA,incomplete,38,color,1,left,Green_Star_Grid_3.jpg,Green_Plus_Dots_1.jpg,Purple_Star_Chess_4.jpg,left,851.0000000024447,true,NA,true
IGkXEAYh,3m67tqbqrk18ut4e0bwuqf8vno09av,3oswbblg1iayggnie3ycl3ybshqxdk,IGkXEAYh,2020-0188,2020-11-20,12:26:12,12:45:54,NA,incomplete,39,color,1,left,Blue_Star_Grid_1.jpg,Blue_Triangle_Dots_3.jpg,Purple_Star_Stripes_4.jpg,left,627.9999999969732,true,NA,true
IGkXEAYh,3m67tqbqrk18ut4e0bwuqf8vno09av,3oswbblg1iayggnie3ycl3ybshqxdk,IGkXEAYh,2020-0188,2020-11-20,12:26:12,12:45:54,NA,incomplete,0,shape,0,left,Purple_Star_Grid_3.jpg,Red_Star_Stripes_1.jpg,Purple_Triangle_Chess_2.jpg,right,1290.0000000009313,false,low,false
IGkXEAYh,3m67tqbqrk18ut4e0bwuqf8vno09av,3oswbblg1iayggnie3ycl3ybshqxdk,IGkXEAYh,2020-0188,2020-11-20,12:26:12,12:45:54,NA,incomplete,1,shape,0,right,Green_Triangle_Dots_1.jpg,Green_Circle_Grid_3.jpg,Red_Triangle_Stripes_4.jpg,left,588.000000003376,false,low,false
IGkXEAYh,3m67tqbqrk18ut4e0bwuqf8vno09av,3oswbblg1iayggnie3ycl3ybshqxdk,IGkXEAYh,2020-0188,2020-11-20,12:26:12,12:45:54,NA,incomplete,2,shape,1,left,Purple_Plus_Dots_3.jpg,Blue_Plus_Chess_4.jpg,Purple_Triangle_Stripes_2.jpg,right,789.0000000044238,false,low,false
IGkXEAYh,3m67tqbqrk18ut4e0bwuqf8vno09av,3oswbblg1iayggnie3ycl3ybshqxdk,IGkXEAYh,2020-0188,2020-11-20,12:26:12,12:45:54,NA,incomplete,3,shape,1,right,Purple_Triangle_Dots_1.jpg,Purple_Star_Stripes_2.jpg,Green_Triangle_Grid_4.jpg,left,571.0000000034925,false,low,false
IGkXEAYh,3m67tqbqrk18ut4e0bwuqf8vno09av,3oswbblg1iayggnie3ycl3ybshqxdk,IGkXEAYh,2020-0188,2020-11-20,12:26:12,12:45:54,NA,incomplete,4,shape,1,left,Red_Plus_Chess_4.jpg,Green_Plus_Grid_3.jpg,Red_Star_Dots_1.jpg,left,1097.9999999981374,true,low,false
IGkXEAYh,3m67tqbqrk18ut4e0bwuqf8vno09av,3oswbblg1iayggnie3ycl3ybshqxdk,IGkXEAYh,2020-0188,2020-11-20,12:26:12,12:45:54,NA,incomplete,5,shape,1,left,Purple_Circle_Grid_2.jpg,Green_Circle_Dots_4.jpg,Purple_Triangle_Chess_1.jpg,left,787.0000000038417,true,low,false
IGkXEAYh,3m67tqbqrk18ut4e0bwuqf8vno09av,3oswbblg1iayggnie3ycl3ybshqxdk,IGkXEAYh,2020-0188,2020-11-20,12:26:12,12:45:54,NA,incomplete,6,shape,1,left,Green_Circle_Stripes_3.jpg,Purple_Circle_Grid_2.jpg,Green_Plus_Dots_4.jpg,left,887.0000000024447,true,low,false
IGkXEAYh,3m67tqbqrk18ut4e0bwuqf8vno09av,3oswbblg1iayggnie3ycl3ybshqxdk,IGkXEAYh,2020-0188,2020-11-20,12:26:12,12:45:54,NA,incomplete,7,shape,1,left,Blue_Triangle_Stripes_1.jpg,Green_Triangle_Chess_4.jpg,Blue_Circle_Grid_2.jpg,right,663.0000000004657,false,low,false
IGkXEAYh,3m67tqbqrk18ut4e0bwuqf8vno09av,3oswbblg1iayggnie3ycl3ybshqxdk,IGkXEAYh,2020-0188,2020-11-20,12:26:12,12:45:54,NA,incomplete,8,shape,0,left,Green_Plus_Dots_2.jpg,Purple_Plus_Grid_1.jpg,Green_Circle_Stripes_4.jpg,left,752.9999999969732,true,low,false
IGkXEAYh,3m67tqbqrk18ut4e0bwuqf8vno09av,3oswbblg1iayggnie3ycl3ybshqxdk,IGkXEAYh,2020-0188,2020-11-20,12:26:12,12:45:54,NA,incomplete,9,shape,0,right,Green_Plus_Chess_4.jpg,Green_Circle_Stripes_3.jpg,Red_Plus_Grid_1.jpg,left,534.9999999962747,false,low,false
IGkXEAYh,3m67tqbqrk18ut4e0bwuqf8vno09av,3oswbblg1iayggnie3ycl3ybshqxdk,IGkXEAYh,2020-0188,2020-11-20,12:26:12,12:45:54,NA,incomplete,10,shape,0,right,Green_Circle_Dots_2.jpg,Green_Triangle_Chess_3.jpg,Purple_Circle_Stripes_4.jpg,left,964.9999999965075,false,low,false
IGkXEAYh,3m67tqbqrk18ut4e0bwuqf8vno09av,3oswbblg1iayggnie3ycl3ybshqxdk,IGkXEAYh,2020-0188,2020-11-20,12:26:12,12:45:54,NA,incomplete,11,shape,0,left,Red_Star_Grid_4.jpg,Blue_Star_Dots_3.jpg,Red_Triangle_Stripes_2.jpg,right,565.0000000023283,false,low,false
IGkXEAYh,3m67tqbqrk18ut4e0bwuqf8vno09av,3oswbblg1iayggnie3ycl3ybshqxdk,IGkXEAYh,2020-0188,2020-11-20,12:26:12,12:45:54,NA,incomplete,12,shape,1,right,Green_Star_Grid_4.jpg,Green_Plus_Dots_1.jpg,Purple_Star_Chess_3.jpg,left,640.9999999959255,false,low,false
IGkXEAYh,3m67tqbqrk18ut4e0bwuqf8vno09av,3oswbblg1iayggnie3ycl3ybshqxdk,IGkXEAYh,2020-0188,2020-11-20,12:26:12,12:45:54,NA,incomplete,13,shape,1,right,Green_Triangle_Stripes_3.jpg,Green_Star_Chess_2.jpg,Red_Triangle_Dots_1.jpg,right,987.0000000009313,true,low,false
IGkXEAYh,3m67tqbqrk18ut4e0bwuqf8vno09av,3oswbblg1iayggnie3ycl3ybshqxdk,IGkXEAYh,2020-0188,2020-11-20,12:26:12,12:45:54,NA,incomplete,14,shape,1,left,Purple_Triangle_Dots_2.jpg,Green_Triangle_Chess_1.jpg,Purple_Star_Grid_4.jpg,left,599.9999999984866,true,low,false
IGkXEAYh,3m67tqbqrk18ut4e0bwuqf8vno09av,3oswbblg1iayggnie3ycl3ybshqxdk,IGkXEAYh,2020-0188,2020-11-20,12:26:12,12:45:54,NA,incomplete,15,shape,1,left,Blue_Triangle_Stripes_3.jpg,Green_Triangle_Grid_2.jpg,Blue_Circle_Dots_4.jpg,left,900.9999999980209,true,low,false
IGkXEAYh,3m67tqbqrk18ut4e0bwuqf8vno09av,3oswbblg1iayggnie3ycl3ybshqxdk,IGkXEAYh,2020-0188,2020-11-20,12:26:12,12:45:54,NA,incomplete,16,shape,1,right,Purple_Star_Dots_3.jpg,Purple_Circle_Stripes_2.jpg,Green_Star_Chess_1.jpg,right,692.9999999993015,true,low,false
IGkXEAYh,3m67tqbqrk18ut4e0bwuqf8vno09av,3oswbblg1iayggnie3ycl3ybshqxdk,IGkXEAYh,2020-0188,2020-11-20,12:26:12,12:45:54,NA,incomplete,17,shape,1,right,Green_Circle_Stripes_3.jpg,Green_Plus_Grid_4.jpg,Red_Circle_Dots_1.jpg,right,717.000000004191,true,low,false
IGkXEAYh,3m67tqbqrk18ut4e0bwuqf8vno09av,3oswbblg1iayggnie3ycl3ybshqxdk,IGkXEAYh,2020-0188,2020-11-20,12:26:12,12:45:54,NA,incomplete,18,shape,1,right,Red_Plus_Grid_1.jpg,Red_Triangle_Stripes_3.jpg,Purple_Plus_Dots_2.jpg,right,691.9999999954598,true,low,false
IGkXEAYh,3m67tqbqrk18ut4e0bwuqf8vno09av,3oswbblg1iayggnie3ycl3ybshqxdk,IGkXEAYh,2020-0188,2020-11-20,12:26:12,12:45:54,NA,incomplete,19,shape,0,left,Red_Circle_Stripes_4.jpg,Blue_Circle_Dots_2.jpg,Red_Star_Grid_1.jpg,left,622.9999999995343,true,low,false
IGkXEAYh,3m67tqbqrk18ut4e0bwuqf8vno09av,3oswbblg1iayggnie3ycl3ybshqxdk,IGkXEAYh,2020-0188,2020-11-20,12:26:12,12:45:54,NA,incomplete,20,shape,1,right,Purple_Triangle_Grid_4.jpg,Purple_Circle_Stripes_1.jpg,Blue_Triangle_Dots_2.jpg,left,760.999999998603,false,low,false
IGkXEAYh,3m67tqbqrk18ut4e0bwuqf8vno09av,3oswbblg1iayggnie3ycl3ybshqxdk,IGkXEAYh,2020-0188,2020-11-20,12:26:12,12:45:54,NA,incomplete,21,shape,1,right,Green_Circle_Chess_4.jpg,Green_Triangle_Dots_1.jpg,Red_Circle_Stripes_2.jpg,left,798.9999999990687,false,low,false
IGkXEAYh,3m67tqbqrk18ut4e0bwuqf8vno09av,3oswbblg1iayggnie3ycl3ybshqxdk,IGkXEAYh,2020-0188,2020-11-20,12:26:12,12:45:54,NA,incomplete,22,shape,1,left,Green_Triangle_Dots_1.jpg,Purple_Triangle_Stripes_2.jpg,Green_Star_Grid_3.jpg,left,1092.000000004191,true,low,false
IGkXEAYh,3m67tqbqrk18ut4e0bwuqf8vno09av,3oswbblg1iayggnie3ycl3ybshqxdk,IGkXEAYh,2020-0188,2020-11-20,12:26:12,12:45:54,NA,incomplete,23,shape,0,right,Green_Triangle_Stripes_1.jpg,Green_Star_Grid_4.jpg,Blue_Triangle_Dots_3.jpg,right,701.0000000009313,true,low,false
IGkXEAYh,3m67tqbqrk18ut4e0bwuqf8vno09av,3oswbblg1iayggnie3ycl3ybshqxdk,IGkXEAYh,2020-0188,2020-11-20,12:26:12,12:45:54,NA,incomplete,24,shape,1,right,Green_Plus_Stripes_4.jpg,Green_Circle_Grid_2.jpg,Purple_Plus_Chess_3.jpg,left,630.0000000046566,false,low,false
IGkXEAYh,3m67tqbqrk18ut4e0bwuqf8vno09av,3oswbblg1iayggnie3ycl3ybshqxdk,IGkXEAYh,2020-0188,2020-11-20,12:26:12,12:45:54,NA,incomplete,25,shape,1,right,Green_Circle_Stripes_2.jpg,Green_Star_Grid_3.jpg,Red_Circle_Chess_1.jpg,right,1088.0000000032596,true,low,false
IGkXEAYh,3m67tqbqrk18ut4e0bwuqf8vno09av,3oswbblg1iayggnie3ycl3ybshqxdk,IGkXEAYh,2020-0188,2020-11-20,12:26:12,12:45:54,NA,incomplete,26,shape,1,right,Blue_Plus_Chess_2.jpg,Blue_Circle_Dots_4.jpg,Purple_Plus_Stripes_1.jpg,right,792.9999999977881,true,low,false
IGkXEAYh,3m67tqbqrk18ut4e0bwuqf8vno09av,3oswbblg1iayggnie3ycl3ybshqxdk,IGkXEAYh,2020-0188,2020-11-20,12:26:12,12:45:54,NA,incomplete,27,shape,0,right,Blue_Triangle_Stripes_4.jpg,Blue_Plus_Grid_3.jpg,Purple_Triangle_Chess_2.jpg,right,1757.0000000050059,true,low,false
IGkXEAYh,3m67tqbqrk18ut4e0bwuqf8vno09av,3oswbblg1iayggnie3ycl3ybshqxdk,IGkXEAYh,2020-0188,2020-11-20,12:26:12,12:45:54,NA,incomplete,28,shape,1,left,Green_Circle_Stripes_4.jpg,Red_Circle_Chess_1.jpg,Green_Star_Grid_2.jpg,right,1019.0000000002328,false,low,false
IGkXEAYh,3m67tqbqrk18ut4e0bwuqf8vno09av,3oswbblg1iayggnie3ycl3ybshqxdk,IGkXEAYh,2020-0188,2020-11-20,12:26:12,12:45:54,NA,incomplete,29,shape,1,left,Green_Circle_Stripes_4.jpg,Blue_Circle_Grid_3.jpg,Green_Star_Dots_2.jpg,left,1205.0000000016298,true,low,false
IGkXEAYh,3m67tqbqrk18ut4e0bwuqf8vno09av,3oswbblg1iayggnie3ycl3ybshqxdk,IGkXEAYh,2020-0188,2020-11-20,12:26:12,12:45:54,NA,incomplete,30,color,1,right,Blue_Plus_Stripes_1.jpg,Red_Plus_Chess_4.jpg,Blue_Star_Dots_3.jpg,left,985.9999999970896,false,low,false
IGkXEAYh,3m67tqbqrk18ut4e0bwuqf8vno09av,3oswbblg1iayggnie3ycl3ybshqxdk,IGkXEAYh,2020-0188,2020-11-20,12:26:12,12:45:54,NA,incomplete,31,color,1,right,Blue_Plus_Chess_2.jpg,Green_Plus_Dots_4.jpg,Blue_Triangle_Grid_1.jpg,left,1013.9999999955762,false,low,false
IGkXEAYh,3m67tqbqrk18ut4e0bwuqf8vno09av,3oswbblg1iayggnie3ycl3ybshqxdk,IGkXEAYh,2020-0188,2020-11-20,12:26:12,12:45:54,NA,incomplete,32,color,0,right,Purple_Circle_Chess_1.jpg,Red_Circle_Dots_3.jpg,Purple_Triangle_Grid_2.jpg,right,800.9999999995343,true,low,false
IGkXEAYh,3m67tqbqrk18ut4e0bwuqf8vno09av,3oswbblg1iayggnie3ycl3ybshqxdk,IGkXEAYh,2020-0188,2020-11-20,12:26:12,12:45:54,NA,incomplete,33,color,1,left,Red_Circle_Stripes_3.jpg,Red_Plus_Dots_2.jpg,Purple_Circle_Chess_1.jpg,left,645.0000000040745,true,low,false
IGkXEAYh,3m67tqbqrk18ut4e0bwuqf8vno09av,3oswbblg1iayggnie3ycl3ybshqxdk,IGkXEAYh,2020-0188,2020-11-20,12:26:12,12:45:54,NA,incomplete,34,color,1,left,Green_Triangle_Stripes_3.jpg,Green_Star_Dots_2.jpg,Red_Triangle_Chess_1.jpg,left,608.0000000001164,true,low,false
IGkXEAYh,3m67tqbqrk18ut4e0bwuqf8vno09av,3oswbblg1iayggnie3ycl3ybshqxdk,IGkXEAYh,2020-0188,2020-11-20,12:26:12,12:45:54,NA,incomplete,35,color,1,left,Green_Plus_Stripes_3.jpg,Green_Star_Grid_4.jpg,Blue_Plus_Dots_1.jpg,left,540.9999999974389,true,low,false
IGkXEAYh,3m67tqbqrk18ut4e0bwuqf8vno09av,3oswbblg1iayggnie3ycl3ybshqxdk,IGkXEAYh,2020-0188,2020-11-20,12:26:12,12:45:54,NA,incomplete,36,color,1,right,Purple_Star_Dots_3.jpg,Red_Star_Grid_2.jpg,Purple_Plus_Stripes_4.jpg,right,682.0000000006985,true,low,false
IGkXEAYh,3m67tqbqrk18ut4e0bwuqf8vno09av,3oswbblg1iayggnie3ycl3ybshqxdk,IGkXEAYh,2020-0188,2020-11-20,12:26:12,12:45:54,NA,incomplete,37,color,1,right,Green_Triangle_Chess_3.jpg,Red_Triangle_Grid_2.jpg,Green_Circle_Stripes_1.jpg,right,627.9999999969732,true,low,false
IGkXEAYh,3m67tqbqrk18ut4e0bwuqf8vno09av,3oswbblg1iayggnie3ycl3ybshqxdk,IGkXEAYh,2020-0188,2020-11-20,12:26:12,12:45:54,NA,incomplete,38,color,1,left,Green_Triangle_Dots_4.jpg,Green_Star_Stripes_2.jpg,Red_Triangle_Chess_1.jpg,left,688.0000000019791,true,low,false
IGkXEAYh,3m67tqbqrk18ut4e0bwuqf8vno09av,3oswbblg1iayggnie3ycl3ybshqxdk,IGkXEAYh,2020-0188,2020-11-20,12:26:12,12:45:54,NA,incomplete,39,color,1,left,Purple_Plus_Stripes_3.jpg,Purple_Triangle_Dots_2.jpg,Red_Plus_Grid_4.jpg,right,697.0000000001164,false,low,false
IGkXEAYh,3m67tqbqrk18ut4e0bwuqf8vno09av,3oswbblg1iayggnie3ycl3ybshqxdk,IGkXEAYh,2020-0188,2020-11-20,12:26:12,12:45:54,NA,incomplete,40,color,0,right,Red_Plus_Grid_3.jpg,Blue_Plus_Stripes_2.jpg,Red_Star_Dots_4.jpg,right,786,true,low,false
IGkXEAYh,3m67tqbqrk18ut4e0bwuqf8vno09av,3oswbblg1iayggnie3ycl3ybshqxdk,IGkXEAYh,2020-0188,2020-11-20,12:26:12,12:45:54,NA,incomplete,41,color,1,left,Green_Plus_Stripes_1.jpg,Green_Star_Chess_4.jpg,Red_Plus_Grid_2.jpg,right,1078.0000000012806,false,low,false
IGkXEAYh,3m67tqbqrk18ut4e0bwuqf8vno09av,3oswbblg1iayggnie3ycl3ybshqxdk,IGkXEAYh,2020-0188,2020-11-20,12:26:12,12:45:54,NA,incomplete,42,color,1,right,Green_Circle_Dots_4.jpg,Red_Circle_Stripes_1.jpg,Green_Plus_Chess_2.jpg,right,750,true,low,false
IGkXEAYh,3m67tqbqrk18ut4e0bwuqf8vno09av,3oswbblg1iayggnie3ycl3ybshqxdk,IGkXEAYh,2020-0188,2020-11-20,12:26:12,12:45:54,NA,incomplete,43,color,1,left,Red_Circle_Stripes_2.jpg,Red_Plus_Grid_1.jpg,Blue_Circle_Chess_4.jpg,left,900.9999999981374,true,low,false
IGkXEAYh,3m67tqbqrk18ut4e0bwuqf8vno09av,3oswbblg1iayggnie3ycl3ybshqxdk,IGkXEAYh,2020-0188,2020-11-20,12:26:12,12:45:54,NA,incomplete,44,color,1,left,Red_Circle_Chess_4.jpg,Red_Star_Stripes_1.jpg,Purple_Circle_Grid_2.jpg,left,677.0000000032596,true,low,false
IGkXEAYh,3m67tqbqrk18ut4e0bwuqf8vno09av,3oswbblg1iayggnie3ycl3ybshqxdk,IGkXEAYh,2020-0188,2020-11-20,12:26:12,12:45:54,NA,incomplete,45,color,1,right,Purple_Triangle_Grid_1.jpg,Green_Triangle_Chess_3.jpg,Purple_Star_Dots_2.jpg,right,1375,true,low,false
IGkXEAYh,3m67tqbqrk18ut4e0bwuqf8vno09av,3oswbblg1iayggnie3ycl3ybshqxdk,IGkXEAYh,2020-0188,2020-11-20,12:26:12,12:45:54,NA,incomplete,46,color,1,right,Purple_Circle_Chess_3.jpg,Red_Circle_Dots_2.jpg,Purple_Star_Stripes_4.jpg,right,667.0000000012806,true,low,false
IGkXEAYh,3m67tqbqrk18ut4e0bwuqf8vno09av,3oswbblg1iayggnie3ycl3ybshqxdk,IGkXEAYh,2020-0188,2020-11-20,12:26:12,12:45:54,NA,incomplete,47,color,1,left,Red_Circle_Stripes_3.jpg,Red_Star_Dots_4.jpg,Purple_Circle_Chess_1.jpg,left,647.0000000045402,true,low,false
IGkXEAYh,3m67tqbqrk18ut4e0bwuqf8vno09av,3oswbblg1iayggnie3ycl3ybshqxdk,IGkXEAYh,2020-0188,2020-11-20,12:26:12,12:45:54,NA,incomplete,48,color,1,right,Red_Triangle_Dots_2.jpg,Blue_Triangle_Chess_1.jpg,Red_Star_Grid_3.jpg,right,591.0000000003492,true,low,false
IGkXEAYh,3m67tqbqrk18ut4e0bwuqf8vno09av,3oswbblg1iayggnie3ycl3ybshqxdk,IGkXEAYh,2020-0188,2020-11-20,12:26:12,12:45:54,NA,incomplete,49,color,0,right,Purple_Triangle_Chess_2.jpg,Blue_Triangle_Stripes_4.jpg,Purple_Circle_Grid_3.jpg,right,764.0000000029104,true,low,false
IGkXEAYh,3m67tqbqrk18ut4e0bwuqf8vno09av,3oswbblg1iayggnie3ycl3ybshqxdk,IGkXEAYh,2020-0188,2020-11-20,12:26:12,12:45:54,NA,incomplete,50,color,1,left,Green_Star_Grid_4.jpg,Green_Triangle_Chess_3.jpg,Purple_Star_Dots_1.jpg,left,786.0000000001164,true,low,false
IGkXEAYh,3m67tqbqrk18ut4e0bwuqf8vno09av,3oswbblg1iayggnie3ycl3ybshqxdk,IGkXEAYh,2020-0188,2020-11-20,12:26:12,12:45:54,NA,incomplete,51,color,0,left,Red_Plus_Stripes_4.jpg,Red_Star_Dots_1.jpg,Purple_Plus_Chess_3.jpg,left,855.0000000031432,true,low,false
IGkXEAYh,3m67tqbqrk18ut4e0bwuqf8vno09av,3oswbblg1iayggnie3ycl3ybshqxdk,IGkXEAYh,2020-0188,2020-11-20,12:26:12,12:45:54,NA,incomplete,52,color,1,right,Blue_Triangle_Dots_2.jpg,Green_Triangle_Chess_4.jpg,Blue_Circle_Grid_1.jpg,left,1047.999999995227,false,low,false
IGkXEAYh,3m67tqbqrk18ut4e0bwuqf8vno09av,3oswbblg1iayggnie3ycl3ybshqxdk,IGkXEAYh,2020-0188,2020-11-20,12:26:12,12:45:54,NA,incomplete,53,color,1,left,Blue_Triangle_Grid_4.jpg,Blue_Plus_Stripes_2.jpg,Red_Triangle_Dots_3.jpg,right,899.0000000048894,false,low,false
IGkXEAYh,3m67tqbqrk18ut4e0bwuqf8vno09av,3oswbblg1iayggnie3ycl3ybshqxdk,IGkXEAYh,2020-0188,2020-11-20,12:26:12,12:45:54,NA,incomplete,54,color,0,right,Purple_Circle_Grid_2.jpg,Green_Circle_Chess_3.jpg,Purple_Star_Stripes_1.jpg,right,1296.0000000020955,true,low,false
IGkXEAYh,3m67tqbqrk18ut4e0bwuqf8vno09av,3oswbblg1iayggnie3ycl3ybshqxdk,IGkXEAYh,2020-0188,2020-11-20,12:26:12,12:45:54,NA,incomplete,55,color,0,left,Purple_Circle_Chess_3.jpg,Purple_Plus_Grid_4.jpg,Blue_Circle_Dots_2.jpg,left,947.0000000001164,true,low,false
IGkXEAYh,3m67tqbqrk18ut4e0bwuqf8vno09av,3oswbblg1iayggnie3ycl3ybshqxdk,IGkXEAYh,2020-0188,2020-11-20,12:26:12,12:45:54,NA,incomplete,56,color,1,right,Purple_Star_Dots_2.jpg,Red_Star_Stripes_3.jpg,Purple_Triangle_Chess_4.jpg,left,1026.0000000052387,false,low,false
IGkXEAYh,3m67tqbqrk18ut4e0bwuqf8vno09av,3oswbblg1iayggnie3ycl3ybshqxdk,IGkXEAYh,2020-0188,2020-11-20,12:26:12,12:45:54,NA,incomplete,57,color,1,right,Blue_Star_Chess_2.jpg,Red_Star_Stripes_4.jpg,Blue_Triangle_Grid_3.jpg,right,1277.0000000018626,true,low,false
IGkXEAYh,3m67tqbqrk18ut4e0bwuqf8vno09av,3oswbblg1iayggnie3ycl3ybshqxdk,IGkXEAYh,2020-0188,2020-11-20,12:26:12,12:45:54,NA,incomplete,58,color,1,left,Green_Triangle_Chess_1.jpg,Green_Plus_Dots_2.jpg,Red_Triangle_Grid_4.jpg,left,974.9999999984866,true,low,false
IGkXEAYh,3m67tqbqrk18ut4e0bwuqf8vno09av,3oswbblg1iayggnie3ycl3ybshqxdk,IGkXEAYh,2020-0188,2020-11-20,12:26:12,12:45:54,NA,incomplete,59,color,1,right,Blue_Triangle_Chess_2.jpg,Red_Triangle_Stripes_4.jpg,Blue_Circle_Grid_1.jpg,right,620.0000000026776,true,low,false
IGkXEAYh,3m67tqbqrk18ut4e0bwuqf8vno09av,3oswbblg1iayggnie3ycl3ybshqxdk,IGkXEAYh,2020-0188,2020-11-20,12:26:12,12:45:54,NA,incomplete,60,shape,1,right,Green_Triangle_Dots_3.jpg,Green_Circle_Chess_2.jpg,Purple_Triangle_Grid_1.jpg,left,614.000000001397,false,low,false
IGkXEAYh,3m67tqbqrk18ut4e0bwuqf8vno09av,3oswbblg1iayggnie3ycl3ybshqxdk,IGkXEAYh,2020-0188,2020-11-20,12:26:12,12:45:54,NA,incomplete,61,shape,1,left,Blue_Star_Grid_3.jpg,Red_Star_Stripes_2.jpg,Blue_Plus_Chess_4.jpg,right,1058.0000000045402,false,low,false
IGkXEAYh,3m67tqbqrk18ut4e0bwuqf8vno09av,3oswbblg1iayggnie3ycl3ybshqxdk,IGkXEAYh,2020-0188,2020-11-20,12:26:12,12:45:54,NA,incomplete,62,shape,1,left,Purple_Triangle_Stripes_1.jpg,Red_Triangle_Chess_4.jpg,Purple_Plus_Grid_2.jpg,left,811.9999999980209,true,low,false
IGkXEAYh,3m67tqbqrk18ut4e0bwuqf8vno09av,3oswbblg1iayggnie3ycl3ybshqxdk,IGkXEAYh,2020-0188,2020-11-20,12:26:12,12:45:54,NA,incomplete,63,shape,1,right,Green_Triangle_Stripes_4.jpg,Green_Circle_Chess_3.jpg,Purple_Triangle_Dots_2.jpg,right,880.9999999939464,true,low,false
IGkXEAYh,3m67tqbqrk18ut4e0bwuqf8vno09av,3oswbblg1iayggnie3ycl3ybshqxdk,IGkXEAYh,2020-0188,2020-11-20,12:26:12,12:45:54,NA,incomplete,64,shape,1,right,Green_Plus_Grid_1.jpg,Green_Star_Stripes_2.jpg,Blue_Plus_Dots_3.jpg,right,914.0000000043074,true,low,false
IGkXEAYh,3m67tqbqrk18ut4e0bwuqf8vno09av,3oswbblg1iayggnie3ycl3ybshqxdk,IGkXEAYh,2020-0188,2020-11-20,12:26:12,12:45:54,NA,incomplete,65,shape,1,left,Red_Star_Grid_3.jpg,Green_Star_Chess_2.jpg,Red_Triangle_Stripes_4.jpg,left,834.0000000025611,true,low,false
IGkXEAYh,3m67tqbqrk18ut4e0bwuqf8vno09av,3oswbblg1iayggnie3ycl3ybshqxdk,IGkXEAYh,2020-0188,2020-11-20,12:26:12,12:45:54,NA,incomplete,66,shape,1,right,Blue_Star_Grid_1.jpg,Blue_Circle_Chess_4.jpg,Green_Star_Stripes_2.jpg,right,773.0000000011642,true,low,false
IGkXEAYh,3m67tqbqrk18ut4e0bwuqf8vno09av,3oswbblg1iayggnie3ycl3ybshqxdk,IGkXEAYh,2020-0188,2020-11-20,12:26:12,12:45:54,NA,incomplete,67,shape,1,right,Green_Star_Stripes_2.jpg,Green_Plus_Chess_4.jpg,Blue_Star_Grid_1.jpg,right,744.0000000060536,true,low,false
IGkXEAYh,3m67tqbqrk18ut4e0bwuqf8vno09av,3oswbblg1iayggnie3ycl3ybshqxdk,IGkXEAYh,2020-0188,2020-11-20,12:26:12,12:45:54,NA,incomplete,68,shape,0,right,Green_Plus_Chess_4.jpg,Green_Circle_Dots_2.jpg,Blue_Plus_Stripes_1.jpg,right,754.0000000009313,true,low,false
IGkXEAYh,3m67tqbqrk18ut4e0bwuqf8vno09av,3oswbblg1iayggnie3ycl3ybshqxdk,IGkXEAYh,2020-0188,2020-11-20,12:26:12,12:45:54,NA,incomplete,69,shape,1,left,Red_Star_Stripes_1.jpg,Purple_Star_Grid_2.jpg,Red_Plus_Dots_4.jpg,right,646.0000000006985,false,low,false
IGkXEAYh,3m67tqbqrk18ut4e0bwuqf8vno09av,3oswbblg1iayggnie3ycl3ybshqxdk,IGkXEAYh,2020-0188,2020-11-20,12:26:12,12:45:54,NA,incomplete,70,shape,1,left,Purple_Triangle_Dots_1.jpg,Red_Triangle_Stripes_4.jpg,Purple_Circle_Chess_2.jpg,left,1021.999999997206,true,low,false
IGkXEAYh,3m67tqbqrk18ut4e0bwuqf8vno09av,3oswbblg1iayggnie3ycl3ybshqxdk,IGkXEAYh,2020-0188,2020-11-20,12:26:12,12:45:54,NA,incomplete,71,shape,1,right,Purple_Star_Dots_4.jpg,Purple_Triangle_Chess_1.jpg,Blue_Star_Stripes_2.jpg,right,1275.999999998021,true,low,false
IGkXEAYh,3m67tqbqrk18ut4e0bwuqf8vno09av,3oswbblg1iayggnie3ycl3ybshqxdk,IGkXEAYh,2020-0188,2020-11-20,12:26:12,12:45:54,NA,incomplete,72,shape,0,left,Blue_Star_Dots_3.jpg,Green_Star_Stripes_4.jpg,Blue_Triangle_Grid_2.jpg,left,796.9999999987194,true,low,false
IGkXEAYh,3m67tqbqrk18ut4e0bwuqf8vno09av,3oswbblg1iayggnie3ycl3ybshqxdk,IGkXEAYh,2020-0188,2020-11-20,12:26:12,12:45:54,NA,incomplete,73,shape,1,right,Red_Triangle_Dots_1.jpg,Red_Star_Stripes_4.jpg,Purple_Triangle_Grid_2.jpg,left,1009.9999999947613,false,low,false
IGkXEAYh,3m67tqbqrk18ut4e0bwuqf8vno09av,3oswbblg1iayggnie3ycl3ybshqxdk,IGkXEAYh,2020-0188,2020-11-20,12:26:12,12:45:54,NA,incomplete,74,shape,1,left,Green_Circle_Dots_4.jpg,Purple_Circle_Chess_2.jpg,Green_Plus_Stripes_1.jpg,left,1182.0000000006985,true,low,false
IGkXEAYh,3m67tqbqrk18ut4e0bwuqf8vno09av,3oswbblg1iayggnie3ycl3ybshqxdk,IGkXEAYh,2020-0188,2020-11-20,12:26:12,12:45:54,NA,incomplete,75,shape,1,right,Purple_Triangle_Grid_1.jpg,Purple_Star_Dots_2.jpg,Red_Triangle_Stripes_3.jpg,right,978.000000002794,true,low,false
IGkXEAYh,3m67tqbqrk18ut4e0bwuqf8vno09av,3oswbblg1iayggnie3ycl3ybshqxdk,IGkXEAYh,2020-0188,2020-11-20,12:26:12,12:45:54,NA,incomplete,76,shape,1,left,Blue_Plus_Chess_4.jpg,Purple_Plus_Stripes_2.jpg,Blue_Circle_Grid_3.jpg,left,1295.9999999948777,true,low,false
IGkXEAYh,3m67tqbqrk18ut4e0bwuqf8vno09av,3oswbblg1iayggnie3ycl3ybshqxdk,IGkXEAYh,2020-0188,2020-11-20,12:26:12,12:45:54,NA,incomplete,77,shape,1,left,Purple_Star_Chess_1.jpg,Red_Star_Stripes_4.jpg,Purple_Plus_Grid_3.jpg,right,1057.999999997206,false,low,false
IGkXEAYh,3m67tqbqrk18ut4e0bwuqf8vno09av,3oswbblg1iayggnie3ycl3ybshqxdk,IGkXEAYh,2020-0188,2020-11-20,12:26:12,12:45:54,NA,incomplete,78,shape,1,left,Green_Circle_Stripes_2.jpg,Purple_Circle_Grid_3.jpg,Green_Triangle_Chess_4.jpg,left,793.9999999944121,true,low,false
IGkXEAYh,3m67tqbqrk18ut4e0bwuqf8vno09av,3oswbblg1iayggnie3ycl3ybshqxdk,IGkXEAYh,2020-0188,2020-11-20,12:26:12,12:45:54,NA,incomplete,79,shape,1,left,Blue_Plus_Stripes_3.jpg,Purple_Plus_Chess_2.jpg,Blue_Triangle_Dots_4.jpg,left,1135.999999998603,true,low,false
IGkXEAYh,3m67tqbqrk18ut4e0bwuqf8vno09av,3oswbblg1iayggnie3ycl3ybshqxdk,IGkXEAYh,2020-0188,2020-11-20,12:26:12,12:45:54,NA,incomplete,80,shape,1,left,Green_Star_Chess_1.jpg,Blue_Star_Stripes_2.jpg,Green_Triangle_Dots_4.jpg,left,709.9999999991851,true,low,false
IGkXEAYh,3m67tqbqrk18ut4e0bwuqf8vno09av,3oswbblg1iayggnie3ycl3ybshqxdk,IGkXEAYh,2020-0188,2020-11-20,12:26:12,12:45:54,NA,incomplete,81,shape,0,right,Blue_Circle_Grid_4.jpg,Blue_Star_Chess_3.jpg,Green_Circle_Dots_1.jpg,right,1294.0000000016298,true,low,false
IGkXEAYh,3m67tqbqrk18ut4e0bwuqf8vno09av,3oswbblg1iayggnie3ycl3ybshqxdk,IGkXEAYh,2020-0188,2020-11-20,12:26:12,12:45:54,NA,incomplete,82,shape,1,right,Blue_Triangle_Grid_3.jpg,Blue_Star_Chess_4.jpg,Red_Triangle_Dots_2.jpg,left,751.0000000039581,false,low,false
IGkXEAYh,3m67tqbqrk18ut4e0bwuqf8vno09av,3oswbblg1iayggnie3ycl3ybshqxdk,IGkXEAYh,2020-0188,2020-11-20,12:26:12,12:45:54,NA,incomplete,83,shape,1,right,Red_Plus_Dots_4.jpg,Red_Triangle_Chess_1.jpg,Purple_Plus_Stripes_3.jpg,left,1555.9999999969732,false,low,false
IGkXEAYh,3m67tqbqrk18ut4e0bwuqf8vno09av,3oswbblg1iayggnie3ycl3ybshqxdk,IGkXEAYh,2020-0188,2020-11-20,12:26:12,12:45:54,NA,incomplete,84,shape,1,left,Red_Plus_Stripes_3.jpg,Blue_Plus_Chess_2.jpg,Red_Star_Grid_4.jpg,left,936.9999999980209,true,low,false
IGkXEAYh,3m67tqbqrk18ut4e0bwuqf8vno09av,3oswbblg1iayggnie3ycl3ybshqxdk,IGkXEAYh,2020-0188,2020-11-20,12:26:12,12:45:54,NA,incomplete,85,shape,0,right,Purple_Triangle_Chess_3.jpg,Purple_Plus_Dots_4.jpg,Green_Triangle_Stripes_1.jpg,right,872.9999999995343,true,low,false
IGkXEAYh,3m67tqbqrk18ut4e0bwuqf8vno09av,3oswbblg1iayggnie3ycl3ybshqxdk,IGkXEAYh,2020-0188,2020-11-20,12:26:12,12:45:54,NA,incomplete,86,shape,1,left,Green_Plus_Dots_2.jpg,Blue_Plus_Stripes_1.jpg,Green_Star_Chess_4.jpg,right,1434.0000000011642,false,low,false
IGkXEAYh,3m67tqbqrk18ut4e0bwuqf8vno09av,3oswbblg1iayggnie3ycl3ybshqxdk,IGkXEAYh,2020-0188,2020-11-20,12:26:12,12:45:54,NA,incomplete,87,shape,1,left,Purple_Circle_Dots_2.jpg,Green_Circle_Stripes_4.jpg,Purple_Star_Chess_3.jpg,left,788.0000000004657,true,low,false
IGkXEAYh,3m67tqbqrk18ut4e0bwuqf8vno09av,3oswbblg1iayggnie3ycl3ybshqxdk,IGkXEAYh,2020-0188,2020-11-20,12:26:12,12:45:54,NA,incomplete,88,shape,1,right,Green_Triangle_Stripes_2.jpg,Green_Star_Dots_1.jpg,Red_Triangle_Grid_4.jpg,right,841.0000000003492,true,low,false
IGkXEAYh,3m67tqbqrk18ut4e0bwuqf8vno09av,3oswbblg1iayggnie3ycl3ybshqxdk,IGkXEAYh,2020-0188,2020-11-20,12:26:12,12:45:54,NA,incomplete,89,shape,1,right,Blue_Triangle_Chess_3.jpg,Blue_Plus_Stripes_2.jpg,Green_Triangle_Dots_1.jpg,right,860.0000000005821,true,low,false
IGkXEAYh,3m67tqbqrk18ut4e0bwuqf8vno09av,3oswbblg1iayggnie3ycl3ybshqxdk,IGkXEAYh,2020-0188,2020-11-20,12:26:12,12:45:54,NA,incomplete,90,color,0,left,Green_Plus_Dots_2.jpg,Green_Circle_Stripes_4.jpg,Purple_Plus_Grid_1.jpg,right,724.999999998603,false,low,false
IGkXEAYh,3m67tqbqrk18ut4e0bwuqf8vno09av,3oswbblg1iayggnie3ycl3ybshqxdk,IGkXEAYh,2020-0188,2020-11-20,12:26:12,12:45:54,NA,incomplete,91,color,0,right,Green_Star_Dots_3.jpg,Purple_Star_Grid_4.jpg,Green_Plus_Stripes_1.jpg,left,709.0000000025611,false,low,false
IGkXEAYh,3m67tqbqrk18ut4e0bwuqf8vno09av,3oswbblg1iayggnie3ycl3ybshqxdk,IGkXEAYh,2020-0188,2020-11-20,12:26:12,12:45:54,NA,incomplete,92,color,1,right,Red_Triangle_Chess_1.jpg,Purple_Triangle_Dots_3.jpg,Red_Star_Stripes_4.jpg,left,861.0000000044238,false,low,false
IGkXEAYh,3m67tqbqrk18ut4e0bwuqf8vno09av,3oswbblg1iayggnie3ycl3ybshqxdk,IGkXEAYh,2020-0188,2020-11-20,12:26:12,12:45:54,NA,incomplete,93,color,1,right,Green_Star_Chess_3.jpg,Blue_Star_Dots_1.jpg,Green_Triangle_Grid_2.jpg,left,1070.9999999962747,false,low,false
IGkXEAYh,3m67tqbqrk18ut4e0bwuqf8vno09av,3oswbblg1iayggnie3ycl3ybshqxdk,IGkXEAYh,2020-0188,2020-11-20,12:26:12,12:45:54,NA,incomplete,94,color,1,left,Green_Star_Dots_3.jpg,Green_Circle_Grid_1.jpg,Blue_Star_Stripes_2.jpg,left,887.0000000023283,true,low,false
IGkXEAYh,3m67tqbqrk18ut4e0bwuqf8vno09av,3oswbblg1iayggnie3ycl3ybshqxdk,IGkXEAYh,2020-0188,2020-11-20,12:26:12,12:45:54,NA,incomplete,95,color,1,left,Blue_Star_Dots_4.jpg,Blue_Circle_Grid_2.jpg,Green_Star_Stripes_1.jpg,left,919.9999999981374,true,low,false
IGkXEAYh,3m67tqbqrk18ut4e0bwuqf8vno09av,3oswbblg1iayggnie3ycl3ybshqxdk,IGkXEAYh,2020-0188,2020-11-20,12:26:12,12:45:54,NA,incomplete,96,color,1,left,Blue_Circle_Chess_4.jpg,Blue_Star_Stripes_2.jpg,Green_Circle_Grid_1.jpg,left,1096.0000000048894,true,low,false
IGkXEAYh,3m67tqbqrk18ut4e0bwuqf8vno09av,3oswbblg1iayggnie3ycl3ybshqxdk,IGkXEAYh,2020-0188,2020-11-20,12:26:12,12:45:54,NA,incomplete,97,color,1,left,Red_Circle_Grid_4.jpg,Red_Star_Dots_1.jpg,Blue_Circle_Stripes_3.jpg,left,703.9999999979045,true,low,false
IGkXEAYh,3m67tqbqrk18ut4e0bwuqf8vno09av,3oswbblg1iayggnie3ycl3ybshqxdk,IGkXEAYh,2020-0188,2020-11-20,12:26:12,12:45:54,NA,incomplete,98,color,1,right,Purple_Star_Stripes_4.jpg,Green_Star_Grid_1.jpg,Purple_Triangle_Dots_2.jpg,right,583.0000000060536,true,low,false
IGkXEAYh,3m67tqbqrk18ut4e0bwuqf8vno09av,3oswbblg1iayggnie3ycl3ybshqxdk,IGkXEAYh,2020-0188,2020-11-20,12:26:12,12:45:54,NA,incomplete,99,color,1,left,Green_Plus_Grid_2.jpg,Green_Circle_Stripes_1.jpg,Purple_Plus_Chess_3.jpg,left,1237.9999999974389,true,low,false
IGkXEAYh,3m67tqbqrk18ut4e0bwuqf8vno09av,3oswbblg1iayggnie3ycl3ybshqxdk,IGkXEAYh,2020-0188,2020-11-20,12:26:12,12:45:54,NA,incomplete,100,color,1,right,Purple_Circle_Grid_1.jpg,Red_Circle_Chess_4.jpg,Purple_Triangle_Dots_3.jpg,left,1366.9999999983702,false,low,false
IGkXEAYh,3m67tqbqrk18ut4e0bwuqf8vno09av,3oswbblg1iayggnie3ycl3ybshqxdk,IGkXEAYh,2020-0188,2020-11-20,12:26:12,12:45:54,NA,incomplete,101,color,1,right,Red_Plus_Chess_2.jpg,Blue_Plus_Dots_3.jpg,Red_Triangle_Stripes_4.jpg,right,917.9999999977881,true,low,false
IGkXEAYh,3m67tqbqrk18ut4e0bwuqf8vno09av,3oswbblg1iayggnie3ycl3ybshqxdk,IGkXEAYh,2020-0188,2020-11-20,12:26:12,12:45:54,NA,incomplete,102,color,1,right,Green_Plus_Stripes_2.jpg,Red_Plus_Dots_4.jpg,Green_Star_Grid_3.jpg,right,755.9999999939464,true,low,false
IGkXEAYh,3m67tqbqrk18ut4e0bwuqf8vno09av,3oswbblg1iayggnie3ycl3ybshqxdk,IGkXEAYh,2020-0188,2020-11-20,12:26:12,12:45:54,NA,incomplete,103,color,0,right,Purple_Plus_Stripes_4.jpg,Red_Plus_Dots_1.jpg,Purple_Triangle_Chess_3.jpg,right,617.9999999948777,true,low,false
IGkXEAYh,3m67tqbqrk18ut4e0bwuqf8vno09av,3oswbblg1iayggnie3ycl3ybshqxdk,IGkXEAYh,2020-0188,2020-11-20,12:26:12,12:45:54,NA,incomplete,104,color,1,left,Purple_Circle_Grid_3.jpg,Purple_Triangle_Chess_1.jpg,Blue_Circle_Dots_2.jpg,right,933.0000000046566,false,low,false
IGkXEAYh,3m67tqbqrk18ut4e0bwuqf8vno09av,3oswbblg1iayggnie3ycl3ybshqxdk,IGkXEAYh,2020-0188,2020-11-20,12:26:12,12:45:54,NA,incomplete,105,color,1,left,Green_Circle_Dots_2.jpg,Green_Plus_Grid_1.jpg,Blue_Circle_Stripes_3.jpg,left,740.9999999944121,true,low,false
IGkXEAYh,3m67tqbqrk18ut4e0bwuqf8vno09av,3oswbblg1iayggnie3ycl3ybshqxdk,IGkXEAYh,2020-0188,2020-11-20,12:26:12,12:45:54,NA,incomplete,106,color,1,left,Blue_Plus_Grid_2.jpg,Blue_Circle_Chess_1.jpg,Purple_Plus_Dots_3.jpg,left,906.9999999991851,true,low,false
IGkXEAYh,3m67tqbqrk18ut4e0bwuqf8vno09av,3oswbblg1iayggnie3ycl3ybshqxdk,IGkXEAYh,2020-0188,2020-11-20,12:26:12,12:45:54,NA,incomplete,107,color,0,right,Blue_Circle_Grid_2.jpg,Purple_Circle_Dots_4.jpg,Blue_Star_Chess_3.jpg,right,1148.0000000010477,true,low,false
IGkXEAYh,3m67tqbqrk18ut4e0bwuqf8vno09av,3oswbblg1iayggnie3ycl3ybshqxdk,IGkXEAYh,2020-0188,2020-11-20,12:26:12,12:45:54,NA,incomplete,108,color,1,right,Blue_Triangle_Chess_1.jpg,Purple_Triangle_Dots_3.jpg,Blue_Plus_Grid_4.jpg,left,722.9999999981374,false,low,false
IGkXEAYh,3m67tqbqrk18ut4e0bwuqf8vno09av,3oswbblg1iayggnie3ycl3ybshqxdk,IGkXEAYh,2020-0188,2020-11-20,12:26:12,12:45:54,NA,incomplete,109,color,0,right,Blue_Star_Dots_4.jpg,Purple_Star_Grid_2.jpg,Blue_Plus_Chess_1.jpg,left,985.9999999970896,false,low,false
IGkXEAYh,3m67tqbqrk18ut4e0bwuqf8vno09av,3oswbblg1iayggnie3ycl3ybshqxdk,IGkXEAYh,2020-0188,2020-11-20,12:26:12,12:45:54,NA,incomplete,110,color,1,left,Purple_Plus_Stripes_3.jpg,Purple_Star_Grid_1.jpg,Green_Plus_Chess_4.jpg,right,995.9999999991851,false,low,false
IGkXEAYh,3m67tqbqrk18ut4e0bwuqf8vno09av,3oswbblg1iayggnie3ycl3ybshqxdk,IGkXEAYh,2020-0188,2020-11-20,12:26:12,12:45:54,NA,incomplete,111,color,1,right,Green_Star_Grid_3.jpg,Purple_Star_Dots_1.jpg,Green_Plus_Stripes_2.jpg,right,881.9999999979045,true,low,false
IGkXEAYh,3m67tqbqrk18ut4e0bwuqf8vno09av,3oswbblg1iayggnie3ycl3ybshqxdk,IGkXEAYh,2020-0188,2020-11-20,12:26:12,12:45:54,NA,incomplete,112,color,1,right,Purple_Triangle_Grid_2.jpg,Red_Triangle_Chess_1.jpg,Purple_Circle_Stripes_4.jpg,right,1219.0000000046566,true,low,false
IGkXEAYh,3m67tqbqrk18ut4e0bwuqf8vno09av,3oswbblg1iayggnie3ycl3ybshqxdk,IGkXEAYh,2020-0188,2020-11-20,12:26:12,12:45:54,NA,incomplete,113,color,1,right,Blue_Circle_Grid_2.jpg,Red_Circle_Stripes_3.jpg,Blue_Plus_Chess_1.jpg,right,1094.0000000045402,true,low,false
IGkXEAYh,3m67tqbqrk18ut4e0bwuqf8vno09av,3oswbblg1iayggnie3ycl3ybshqxdk,IGkXEAYh,2020-0188,2020-11-20,12:26:12,12:45:54,NA,incomplete,114,color,1,left,Blue_Circle_Dots_4.jpg,Blue_Plus_Stripes_2.jpg,Green_Circle_Chess_3.jpg,left,946.0000000036089,true,low,false
IGkXEAYh,3m67tqbqrk18ut4e0bwuqf8vno09av,3oswbblg1iayggnie3ycl3ybshqxdk,IGkXEAYh,2020-0188,2020-11-20,12:26:12,12:45:54,NA,incomplete,115,color,1,left,Blue_Triangle_Grid_4.jpg,Blue_Star_Dots_2.jpg,Purple_Triangle_Chess_1.jpg,right,734.0000000039581,false,low,false
IGkXEAYh,3m67tqbqrk18ut4e0bwuqf8vno09av,3oswbblg1iayggnie3ycl3ybshqxdk,IGkXEAYh,2020-0188,2020-11-20,12:26:12,12:45:54,NA,incomplete,116,color,1,left,Green_Star_Grid_3.jpg,Green_Circle_Dots_4.jpg,Purple_Star_Stripes_1.jpg,left,692.9999999993015,true,low,false
IGkXEAYh,3m67tqbqrk18ut4e0bwuqf8vno09av,3oswbblg1iayggnie3ycl3ybshqxdk,IGkXEAYh,2020-0188,2020-11-20,12:26:12,12:45:54,NA,incomplete,117,color,1,left,Purple_Triangle_Grid_2.jpg,Purple_Circle_Dots_3.jpg,Green_Triangle_Stripes_1.jpg,left,652.9999999983702,true,low,false
IGkXEAYh,3m67tqbqrk18ut4e0bwuqf8vno09av,3oswbblg1iayggnie3ycl3ybshqxdk,IGkXEAYh,2020-0188,2020-11-20,12:26:12,12:45:54,NA,incomplete,118,color,1,right,Purple_Plus_Dots_4.jpg,Green_Plus_Grid_1.jpg,Purple_Triangle_Stripes_3.jpg,right,728.9999999993015,true,low,false
IGkXEAYh,3m67tqbqrk18ut4e0bwuqf8vno09av,3oswbblg1iayggnie3ycl3ybshqxdk,IGkXEAYh,2020-0188,2020-11-20,12:26:12,12:45:54,NA,incomplete,119,color,1,left,Green_Triangle_Dots_1.jpg,Green_Plus_Grid_2.jpg,Blue_Triangle_Chess_3.jpg,left,703.000000001397,true,low,false
IGkXEAYh,3m67tqbqrk18ut4e0bwuqf8vno09av,3oswbblg1iayggnie3ycl3ybshqxdk,IGkXEAYh,2020-0188,2020-11-20,12:26:12,12:45:54,NA,incomplete,120,shape,0,right,Purple_Star_Grid_1.jpg,Purple_Plus_Stripes_3.jpg,Red_Star_Dots_4.jpg,left,664.0000000043074,false,low,false
IGkXEAYh,3m67tqbqrk18ut4e0bwuqf8vno09av,3oswbblg1iayggnie3ycl3ybshqxdk,IGkXEAYh,2020-0188,2020-11-20,12:26:12,12:45:54,NA,incomplete,121,shape,1,right,Red_Circle_Dots_3.jpg,Red_Triangle_Stripes_2.jpg,Purple_Circle_Grid_4.jpg,left,897.99999999383,false,low,false
IGkXEAYh,3m67tqbqrk18ut4e0bwuqf8vno09av,3oswbblg1iayggnie3ycl3ybshqxdk,IGkXEAYh,2020-0188,2020-11-20,12:26:12,12:45:54,NA,incomplete,122,shape,1,left,Green_Star_Chess_4.jpg,Red_Star_Grid_3.jpg,Green_Circle_Dots_1.jpg,right,769.0000000002328,false,low,false
IGkXEAYh,3m67tqbqrk18ut4e0bwuqf8vno09av,3oswbblg1iayggnie3ycl3ybshqxdk,IGkXEAYh,2020-0188,2020-11-20,12:26:12,12:45:54,NA,incomplete,123,shape,1,right,Blue_Circle_Dots_2.jpg,Blue_Star_Chess_1.jpg,Purple_Circle_Grid_3.jpg,right,1140.9999999960419,true,low,false
IGkXEAYh,3m67tqbqrk18ut4e0bwuqf8vno09av,3oswbblg1iayggnie3ycl3ybshqxdk,IGkXEAYh,2020-0188,2020-11-20,12:26:12,12:45:54,NA,incomplete,124,shape,0,left,Purple_Star_Chess_2.jpg,Green_Star_Grid_1.jpg,Purple_Circle_Dots_4.jpg,left,716.0000000003492,true,low,false
IGkXEAYh,3m67tqbqrk18ut4e0bwuqf8vno09av,3oswbblg1iayggnie3ycl3ybshqxdk,IGkXEAYh,2020-0188,2020-11-20,12:26:12,12:45:54,NA,incomplete,125,shape,1,left,Red_Circle_Stripes_3.jpg,Green_Circle_Dots_1.jpg,Red_Star_Chess_4.jpg,left,821.0000000034925,true,low,false
IGkXEAYh,3m67tqbqrk18ut4e0bwuqf8vno09av,3oswbblg1iayggnie3ycl3ybshqxdk,IGkXEAYh,2020-0188,2020-11-20,12:26:12,12:45:54,NA,incomplete,126,shape,1,right,Blue_Circle_Stripes_3.jpg,Blue_Triangle_Chess_4.jpg,Purple_Circle_Grid_2.jpg,right,680.0000000002328,true,low,false
IGkXEAYh,3m67tqbqrk18ut4e0bwuqf8vno09av,3oswbblg1iayggnie3ycl3ybshqxdk,IGkXEAYh,2020-0188,2020-11-20,12:26:12,12:45:54,NA,incomplete,127,shape,1,left,Green_Star_Chess_1.jpg,Blue_Star_Dots_2.jpg,Green_Circle_Grid_3.jpg,left,817.9999999993015,true,low,false
IGkXEAYh,3m67tqbqrk18ut4e0bwuqf8vno09av,3oswbblg1iayggnie3ycl3ybshqxdk,IGkXEAYh,2020-0188,2020-11-20,12:26:12,12:45:54,NA,incomplete,128,shape,1,right,Purple_Triangle_Grid_1.jpg,Purple_Star_Stripes_4.jpg,Red_Triangle_Dots_2.jpg,right,724.0000000019791,true,low,false
IGkXEAYh,3m67tqbqrk18ut4e0bwuqf8vno09av,3oswbblg1iayggnie3ycl3ybshqxdk,IGkXEAYh,2020-0188,2020-11-20,12:26:12,12:45:54,NA,incomplete,129,shape,1,right,Purple_Triangle_Grid_1.jpg,Purple_Plus_Stripes_3.jpg,Green_Triangle_Chess_2.jpg,right,750,true,low,false
IGkXEAYh,3m67tqbqrk18ut4e0bwuqf8vno09av,3oswbblg1iayggnie3ycl3ybshqxdk,IGkXEAYh,2020-0188,2020-11-20,12:26:12,12:45:54,NA,incomplete,130,shape,1,right,Green_Star_Dots_2.jpg,Green_Plus_Chess_4.jpg,Purple_Star_Grid_3.jpg,right,706.9999999948777,true,low,false
IGkXEAYh,3m67tqbqrk18ut4e0bwuqf8vno09av,3oswbblg1iayggnie3ycl3ybshqxdk,IGkXEAYh,2020-0188,2020-11-20,12:26:12,12:45:54,NA,incomplete,131,shape,1,right,Blue_Star_Grid_1.jpg,Blue_Circle_Stripes_3.jpg,Green_Star_Dots_4.jpg,right,716.0000000002328,true,low,false
IGkXEAYh,3m67tqbqrk18ut4e0bwuqf8vno09av,3oswbblg1iayggnie3ycl3ybshqxdk,IGkXEAYh,2020-0188,2020-11-20,12:26:12,12:45:54,NA,incomplete,132,shape,1,left,Blue_Triangle_Grid_4.jpg,Red_Triangle_Chess_3.jpg,Blue_Star_Stripes_2.jpg,left,930.0000000003492,true,low,false
IGkXEAYh,3m67tqbqrk18ut4e0bwuqf8vno09av,3oswbblg1iayggnie3ycl3ybshqxdk,IGkXEAYh,2020-0188,2020-11-20,12:26:12,12:45:54,NA,incomplete,133,shape,0,right,Red_Triangle_Chess_4.jpg,Red_Plus_Stripes_3.jpg,Purple_Triangle_Grid_1.jpg,right,720.9999999976717,true,low,false
IGkXEAYh,3m67tqbqrk18ut4e0bwuqf8vno09av,3oswbblg1iayggnie3ycl3ybshqxdk,IGkXEAYh,2020-0188,2020-11-20,12:26:12,12:45:54,NA,incomplete,134,shape,1,left,Red_Circle_Dots_1.jpg,Blue_Circle_Chess_3.jpg,Red_Star_Stripes_4.jpg,right,584.9999999991851,false,low,false
IGkXEAYh,3m67tqbqrk18ut4e0bwuqf8vno09av,3oswbblg1iayggnie3ycl3ybshqxdk,IGkXEAYh,2020-0188,2020-11-20,12:26:12,12:45:54,NA,incomplete,135,shape,1,left,Red_Star_Grid_4.jpg,Blue_Star_Dots_1.jpg,Red_Circle_Stripes_2.jpg,left,1190.0000000023283,true,low,false
IGkXEAYh,3m67tqbqrk18ut4e0bwuqf8vno09av,3oswbblg1iayggnie3ycl3ybshqxdk,IGkXEAYh,2020-0188,2020-11-20,12:26:12,12:45:54,NA,incomplete,136,shape,1,right,Green_Triangle_Stripes_2.jpg,Green_Circle_Dots_4.jpg,Purple_Triangle_Grid_1.jpg,right,745.9999999991851,true,low,false
IGkXEAYh,3m67tqbqrk18ut4e0bwuqf8vno09av,3oswbblg1iayggnie3ycl3ybshqxdk,IGkXEAYh,2020-0188,2020-11-20,12:26:12,12:45:54,NA,incomplete,137,shape,0,left,Red_Star_Grid_3.jpg,Blue_Star_Stripes_1.jpg,Red_Circle_Chess_2.jpg,right,1200.0000000044238,false,low,false
IGkXEAYh,3m67tqbqrk18ut4e0bwuqf8vno09av,3oswbblg1iayggnie3ycl3ybshqxdk,IGkXEAYh,2020-0188,2020-11-20,12:26:12,12:45:54,NA,incomplete,138,shape,1,right,Purple_Triangle_Stripes_1.jpg,Purple_Plus_Chess_2.jpg,Blue_Triangle_Dots_3.jpg,left,754.9999999974389,false,low,false
IGkXEAYh,3m67tqbqrk18ut4e0bwuqf8vno09av,3oswbblg1iayggnie3ycl3ybshqxdk,IGkXEAYh,2020-0188,2020-11-20,12:26:12,12:45:54,NA,incomplete,139,shape,1,left,Red_Circle_Stripes_2.jpg,Blue_Circle_Dots_4.jpg,Red_Triangle_Grid_1.jpg,right,744.9999999953434,false,low,false
IGkXEAYh,3m67tqbqrk18ut4e0bwuqf8vno09av,3oswbblg1iayggnie3ycl3ybshqxdk,IGkXEAYh,2020-0188,2020-11-20,12:26:12,12:45:54,NA,incomplete,140,color,0,right,Red_Triangle_Dots_1.jpg,Purple_Triangle_Chess_3.jpg,Red_Circle_Grid_2.jpg,left,800.0000000029104,false,low,false
IGkXEAYh,3m67tqbqrk18ut4e0bwuqf8vno09av,3oswbblg1iayggnie3ycl3ybshqxdk,IGkXEAYh,2020-0188,2020-11-20,12:26:12,12:45:54,NA,incomplete,141,color,1,left,Green_Star_Grid_4.jpg,Green_Plus_Dots_1.jpg,Blue_Star_Chess_3.jpg,right,629.0000000008149,false,low,false
IGkXEAYh,3m67tqbqrk18ut4e0bwuqf8vno09av,3oswbblg1iayggnie3ycl3ybshqxdk,IGkXEAYh,2020-0188,2020-11-20,12:26:12,12:45:54,NA,incomplete,142,color,1,left,Green_Circle_Grid_2.jpg,Green_Triangle_Chess_3.jpg,Purple_Circle_Stripes_1.jpg,left,847.9999999981374,true,low,false
IGkXEAYh,3m67tqbqrk18ut4e0bwuqf8vno09av,3oswbblg1iayggnie3ycl3ybshqxdk,IGkXEAYh,2020-0188,2020-11-20,12:26:12,12:45:54,NA,incomplete,143,color,1,left,Blue_Triangle_Dots_3.jpg,Blue_Star_Chess_2.jpg,Green_Triangle_Stripes_4.jpg,left,722.0000000015134,true,low,false
IGkXEAYh,3m67tqbqrk18ut4e0bwuqf8vno09av,3oswbblg1iayggnie3ycl3ybshqxdk,IGkXEAYh,2020-0188,2020-11-20,12:26:12,12:45:54,NA,incomplete,144,color,1,right,Green_Plus_Dots_1.jpg,Red_Plus_Stripes_2.jpg,Green_Star_Grid_4.jpg,left,841.0000000003492,false,low,false
IGkXEAYh,3m67tqbqrk18ut4e0bwuqf8vno09av,3oswbblg1iayggnie3ycl3ybshqxdk,IGkXEAYh,2020-0188,2020-11-20,12:26:12,12:45:54,NA,incomplete,145,color,1,right,Red_Circle_Stripes_1.jpg,Green_Circle_Chess_4.jpg,Red_Triangle_Grid_3.jpg,right,811.9999999980209,true,low,false
IGkXEAYh,3m67tqbqrk18ut4e0bwuqf8vno09av,3oswbblg1iayggnie3ycl3ybshqxdk,IGkXEAYh,2020-0188,2020-11-20,12:26:12,12:45:54,NA,incomplete,146,color,1,right,Purple_Triangle_Dots_4.jpg,Blue_Triangle_Grid_1.jpg,Purple_Plus_Chess_3.jpg,right,722.0000000016298,true,low,false
IGkXEAYh,3m67tqbqrk18ut4e0bwuqf8vno09av,3oswbblg1iayggnie3ycl3ybshqxdk,IGkXEAYh,2020-0188,2020-11-20,12:26:12,12:45:54,NA,incomplete,147,color,1,left,Green_Triangle_Grid_2.jpg,Green_Circle_Dots_4.jpg,Blue_Triangle_Chess_3.jpg,left,733.9999999967404,true,low,false
IGkXEAYh,3m67tqbqrk18ut4e0bwuqf8vno09av,3oswbblg1iayggnie3ycl3ybshqxdk,IGkXEAYh,2020-0188,2020-11-20,12:26:12,12:45:54,NA,incomplete,148,color,1,left,Purple_Triangle_Stripes_1.jpg,Purple_Plus_Dots_3.jpg,Red_Triangle_Grid_4.jpg,left,669.9999999981374,true,low,false
IGkXEAYh,3m67tqbqrk18ut4e0bwuqf8vno09av,3oswbblg1iayggnie3ycl3ybshqxdk,IGkXEAYh,2020-0188,2020-11-20,12:26:12,12:45:54,NA,incomplete,149,color,1,right,Purple_Circle_Stripes_3.jpg,Red_Circle_Chess_2.jpg,Purple_Triangle_Grid_1.jpg,right,824.0000000004657,true,low,false
IGkXEAYh,3m67tqbqrk18ut4e0bwuqf8vno09av,3oswbblg1iayggnie3ycl3ybshqxdk,IGkXEAYh,2020-0188,2020-11-20,12:26:12,12:45:54,NA,incomplete,150,color,1,left,Blue_Triangle_Stripes_4.jpg,Blue_Circle_Chess_1.jpg,Purple_Triangle_Grid_3.jpg,left,858.9999999967404,true,low,false
IGkXEAYh,3m67tqbqrk18ut4e0bwuqf8vno09av,3oswbblg1iayggnie3ycl3ybshqxdk,IGkXEAYh,2020-0188,2020-11-20,12:26:12,12:45:54,NA,incomplete,151,color,1,left,Purple_Circle_Chess_1.jpg,Purple_Plus_Grid_3.jpg,Green_Circle_Stripes_2.jpg,left,829.0000000052387,true,low,false
IGkXEAYh,3m67tqbqrk18ut4e0bwuqf8vno09av,3oswbblg1iayggnie3ycl3ybshqxdk,IGkXEAYh,2020-0188,2020-11-20,12:26:12,12:45:54,NA,incomplete,152,color,0,right,Blue_Circle_Dots_1.jpg,Red_Circle_Grid_2.jpg,Blue_Triangle_Stripes_4.jpg,right,704.0000000052387,true,low,false
IGkXEAYh,3m67tqbqrk18ut4e0bwuqf8vno09av,3oswbblg1iayggnie3ycl3ybshqxdk,IGkXEAYh,2020-0188,2020-11-20,12:26:12,12:45:54,NA,incomplete,153,color,1,right,Blue_Star_Dots_3.jpg,Green_Star_Stripes_4.jpg,Blue_Circle_Chess_2.jpg,right,680.9999999969732,true,low,false
IGkXEAYh,3m67tqbqrk18ut4e0bwuqf8vno09av,3oswbblg1iayggnie3ycl3ybshqxdk,IGkXEAYh,2020-0188,2020-11-20,12:26:12,12:45:54,NA,incomplete,154,color,1,left,Blue_Star_Grid_2.jpg,Blue_Triangle_Dots_1.jpg,Green_Star_Stripes_3.jpg,left,817.9999999993015,true,low,false
IGkXEAYh,3m67tqbqrk18ut4e0bwuqf8vno09av,3oswbblg1iayggnie3ycl3ybshqxdk,IGkXEAYh,2020-0188,2020-11-20,12:26:12,12:45:54,NA,incomplete,155,color,0,right,Blue_Triangle_Dots_2.jpg,Purple_Triangle_Grid_4.jpg,Blue_Plus_Stripes_3.jpg,right,773.0000000010477,true,low,false
IGkXEAYh,3m67tqbqrk18ut4e0bwuqf8vno09av,3oswbblg1iayggnie3ycl3ybshqxdk,IGkXEAYh,2020-0188,2020-11-20,12:26:12,12:45:54,NA,incomplete,156,color,1,left,Green_Star_Chess_2.jpg,Green_Triangle_Stripes_3.jpg,Purple_Star_Dots_1.jpg,left,906.9999999993015,true,low,false
IGkXEAYh,3m67tqbqrk18ut4e0bwuqf8vno09av,3oswbblg1iayggnie3ycl3ybshqxdk,IGkXEAYh,2020-0188,2020-11-20,12:26:12,12:45:54,NA,incomplete,157,color,1,right,Blue_Star_Stripes_2.jpg,Red_Star_Chess_3.jpg,Blue_Plus_Grid_4.jpg,right,1017.9999999963911,true,low,false
IGkXEAYh,3m67tqbqrk18ut4e0bwuqf8vno09av,3oswbblg1iayggnie3ycl3ybshqxdk,IGkXEAYh,2020-0188,2020-11-20,12:26:12,12:45:54,NA,incomplete,158,color,1,right,Purple_Triangle_Stripes_4.jpg,Blue_Triangle_Dots_3.jpg,Purple_Plus_Chess_2.jpg,right,726.0000000024447,true,low,false
IGkXEAYh,3m67tqbqrk18ut4e0bwuqf8vno09av,3oswbblg1iayggnie3ycl3ybshqxdk,IGkXEAYh,2020-0188,2020-11-20,12:26:12,12:45:54,NA,incomplete,159,color,1,right,Green_Star_Grid_2.jpg,Red_Star_Dots_1.jpg,Green_Plus_Stripes_4.jpg,right,619.9999999953434,true,low,false
IGkXEAYh,3m67tqbqrk18ut4e0bwuqf8vno09av,3oswbblg1iayggnie3ycl3ybshqxdk,IGkXEAYh,2020-0188,2020-11-20,12:26:12,12:45:54,NA,incomplete,160,shape,0,left,Green_Plus_Grid_2.jpg,Purple_Plus_Chess_3.jpg,Green_Circle_Stripes_1.jpg,right,648.0000000009313,false,low,false
IGkXEAYh,3m67tqbqrk18ut4e0bwuqf8vno09av,3oswbblg1iayggnie3ycl3ybshqxdk,IGkXEAYh,2020-0188,2020-11-20,12:26:12,12:45:54,NA,incomplete,161,shape,1,left,Blue_Star_Grid_1.jpg,Green_Star_Stripes_4.jpg,Blue_Plus_Dots_3.jpg,right,705.9999999983702,false,low,false
IGkXEAYh,3m67tqbqrk18ut4e0bwuqf8vno09av,3oswbblg1iayggnie3ycl3ybshqxdk,IGkXEAYh,2020-0188,2020-11-20,12:26:12,12:45:54,NA,incomplete,162,shape,0,right,Green_Circle_Chess_1.jpg,Green_Triangle_Dots_2.jpg,Blue_Circle_Grid_3.jpg,right,968.999999997206,true,low,false
IGkXEAYh,3m67tqbqrk18ut4e0bwuqf8vno09av,3oswbblg1iayggnie3ycl3ybshqxdk,IGkXEAYh,2020-0188,2020-11-20,12:26:12,12:45:54,NA,incomplete,163,shape,1,left,Purple_Star_Chess_1.jpg,Red_Star_Stripes_2.jpg,Purple_Plus_Grid_3.jpg,right,711.0000000030268,false,low,false
IGkXEAYh,3m67tqbqrk18ut4e0bwuqf8vno09av,3oswbblg1iayggnie3ycl3ybshqxdk,IGkXEAYh,2020-0188,2020-11-20,12:26:12,12:45:54,NA,incomplete,164,shape,1,left,Green_Plus_Dots_2.jpg,Red_Plus_Grid_4.jpg,Green_Star_Chess_1.jpg,left,991.0000000018626,true,low,false
IGkXEAYh,3m67tqbqrk18ut4e0bwuqf8vno09av,3oswbblg1iayggnie3ycl3ybshqxdk,IGkXEAYh,2020-0188,2020-11-20,12:26:12,12:45:54,NA,incomplete,165,shape,0,left,Blue_Triangle_Dots_1.jpg,Purple_Triangle_Chess_3.jpg,Blue_Star_Grid_2.jpg,left,764.0000000029104,true,low,false
IGkXEAYh,3m67tqbqrk18ut4e0bwuqf8vno09av,3oswbblg1iayggnie3ycl3ybshqxdk,IGkXEAYh,2020-0188,2020-11-20,12:26:12,12:45:54,NA,incomplete,166,shape,1,right,Purple_Plus_Stripes_1.jpg,Purple_Triangle_Chess_4.jpg,Blue_Plus_Dots_2.jpg,left,1251.0000000038417,false,low,false
IGkXEAYh,3m67tqbqrk18ut4e0bwuqf8vno09av,3oswbblg1iayggnie3ycl3ybshqxdk,IGkXEAYh,2020-0188,2020-11-20,12:26:12,12:45:54,NA,incomplete,167,shape,1,right,Purple_Circle_Stripes_1.jpg,Purple_Star_Grid_2.jpg,Green_Circle_Chess_3.jpg,right,932.0000000006985,true,low,false
IGkXEAYh,3m67tqbqrk18ut4e0bwuqf8vno09av,3oswbblg1iayggnie3ycl3ybshqxdk,IGkXEAYh,2020-0188,2020-11-20,12:26:12,12:45:54,NA,incomplete,168,shape,0,right,Blue_Star_Dots_3.jpg,Blue_Triangle_Chess_4.jpg,Green_Star_Grid_2.jpg,left,1044.0000000016298,false,low,false
IGkXEAYh,3m67tqbqrk18ut4e0bwuqf8vno09av,3oswbblg1iayggnie3ycl3ybshqxdk,IGkXEAYh,2020-0188,2020-11-20,12:26:12,12:45:54,NA,incomplete,169,shape,1,left,Red_Triangle_Stripes_2.jpg,Green_Triangle_Grid_4.jpg,Red_Plus_Chess_3.jpg,right,1116.9999999983702,false,low,false
IGkXEAYh,3m67tqbqrk18ut4e0bwuqf8vno09av,3oswbblg1iayggnie3ycl3ybshqxdk,IGkXEAYh,2020-0188,2020-11-20,12:26:12,12:45:54,NA,incomplete,170,shape,1,left,Purple_Star_Dots_4.jpg,Red_Star_Stripes_1.jpg,Purple_Triangle_Grid_3.jpg,right,837.9999999960419,false,low,false
IGkXEAYh,3m67tqbqrk18ut4e0bwuqf8vno09av,3oswbblg1iayggnie3ycl3ybshqxdk,IGkXEAYh,2020-0188,2020-11-20,12:26:12,12:45:54,NA,incomplete,171,shape,1,left,Red_Circle_Stripes_3.jpg,Blue_Circle_Chess_4.jpg,Red_Triangle_Grid_2.jpg,right,968.9999999973224,false,low,false
IGkXEAYh,3m67tqbqrk18ut4e0bwuqf8vno09av,3oswbblg1iayggnie3ycl3ybshqxdk,IGkXEAYh,2020-0188,2020-11-20,12:26:12,12:45:54,NA,incomplete,172,shape,1,left,Blue_Circle_Dots_3.jpg,Green_Circle_Stripes_1.jpg,Blue_Triangle_Grid_4.jpg,right,821.0000000036089,false,low,false
IGkXEAYh,3m67tqbqrk18ut4e0bwuqf8vno09av,3oswbblg1iayggnie3ycl3ybshqxdk,IGkXEAYh,2020-0188,2020-11-20,12:26:12,12:45:54,NA,incomplete,173,shape,1,left,Red_Plus_Grid_2.jpg,Green_Plus_Dots_3.jpg,Red_Circle_Chess_4.jpg,right,1159.9999999961583,false,low,false
IGkXEAYh,3m67tqbqrk18ut4e0bwuqf8vno09av,3oswbblg1iayggnie3ycl3ybshqxdk,IGkXEAYh,2020-0188,2020-11-20,12:26:12,12:45:54,NA,incomplete,174,shape,0,right,Green_Star_Dots_2.jpg,Green_Plus_Chess_3.jpg,Purple_Star_Grid_1.jpg,right,1037.0000000038417,true,low,false
IGkXEAYh,3m67tqbqrk18ut4e0bwuqf8vno09av,3oswbblg1iayggnie3ycl3ybshqxdk,IGkXEAYh,2020-0188,2020-11-20,12:26:12,12:45:54,NA,incomplete,175,shape,1,right,Purple_Star_Grid_2.jpg,Purple_Circle_Chess_1.jpg,Blue_Star_Stripes_4.jpg,left,1018.0000000037253,false,low,false
IGkXEAYh,3m67tqbqrk18ut4e0bwuqf8vno09av,3oswbblg1iayggnie3ycl3ybshqxdk,IGkXEAYh,2020-0188,2020-11-20,12:26:12,12:45:54,NA,incomplete,176,shape,1,left,Purple_Circle_Chess_1.jpg,Red_Circle_Dots_2.jpg,Purple_Triangle_Grid_4.jpg,left,1154.9999999988358,true,low,false
IGkXEAYh,3m67tqbqrk18ut4e0bwuqf8vno09av,3oswbblg1iayggnie3ycl3ybshqxdk,IGkXEAYh,2020-0188,2020-11-20,12:26:12,12:45:54,NA,incomplete,177,shape,1,right,Purple_Triangle_Chess_3.jpg,Purple_Plus_Grid_1.jpg,Blue_Triangle_Dots_2.jpg,right,841.0000000003492,true,low,false
IGkXEAYh,3m67tqbqrk18ut4e0bwuqf8vno09av,3oswbblg1iayggnie3ycl3ybshqxdk,IGkXEAYh,2020-0188,2020-11-20,12:26:12,12:45:54,NA,incomplete,178,shape,1,left,Purple_Plus_Dots_4.jpg,Blue_Plus_Stripes_1.jpg,Purple_Star_Chess_3.jpg,left,923.9999999990687,true,low,false
IGkXEAYh,3m67tqbqrk18ut4e0bwuqf8vno09av,3oswbblg1iayggnie3ycl3ybshqxdk,IGkXEAYh,2020-0188,2020-11-20,12:26:12,12:45:54,NA,incomplete,179,shape,1,right,Green_Plus_Dots_1.jpg,Green_Triangle_Grid_4.jpg,Blue_Plus_Chess_3.jpg,right,843.0000000008149,true,low,false
IGkXEAYh,3m67tqbqrk18ut4e0bwuqf8vno09av,3oswbblg1iayggnie3ycl3ybshqxdk,IGkXEAYh,2020-0188,2020-11-20,12:26:12,12:45:54,NA,incomplete,180,color,1,left,Green_Star_Dots_4.jpg,Green_Circle_Grid_2.jpg,Blue_Star_Chess_3.jpg,right,815.0000000023283,false,low,false
IGkXEAYh,3m67tqbqrk18ut4e0bwuqf8vno09av,3oswbblg1iayggnie3ycl3ybshqxdk,IGkXEAYh,2020-0188,2020-11-20,12:26:12,12:45:54,NA,incomplete,181,color,1,right,Red_Star_Grid_3.jpg,Green_Star_Stripes_4.jpg,Red_Circle_Chess_2.jpg,right,739.000000001397,true,low,false
IGkXEAYh,3m67tqbqrk18ut4e0bwuqf8vno09av,3oswbblg1iayggnie3ycl3ybshqxdk,IGkXEAYh,2020-0188,2020-11-20,12:26:12,12:45:54,NA,incomplete,182,color,1,left,Purple_Triangle_Grid_3.jpg,Purple_Circle_Chess_2.jpg,Red_Triangle_Dots_1.jpg,left,841.0000000004657,true,low,false
IGkXEAYh,3m67tqbqrk18ut4e0bwuqf8vno09av,3oswbblg1iayggnie3ycl3ybshqxdk,IGkXEAYh,2020-0188,2020-11-20,12:26:12,12:45:54,NA,incomplete,183,color,0,left,Green_Triangle_Grid_2.jpg,Green_Circle_Chess_1.jpg,Blue_Triangle_Dots_4.jpg,left,762.9999999989523,true,low,false
IGkXEAYh,3m67tqbqrk18ut4e0bwuqf8vno09av,3oswbblg1iayggnie3ycl3ybshqxdk,IGkXEAYh,2020-0188,2020-11-20,12:26:12,12:45:54,NA,incomplete,184,color,1,right,Green_Star_Chess_4.jpg,Red_Star_Grid_3.jpg,Green_Circle_Stripes_1.jpg,left,816.9999999953434,false,low,false
IGkXEAYh,3m67tqbqrk18ut4e0bwuqf8vno09av,3oswbblg1iayggnie3ycl3ybshqxdk,IGkXEAYh,2020-0188,2020-11-20,12:26:12,12:45:54,NA,incomplete,185,color,1,right,Red_Plus_Stripes_2.jpg,Green_Plus_Dots_1.jpg,Red_Triangle_Grid_3.jpg,left,870.0000000026776,false,low,false
IGkXEAYh,3m67tqbqrk18ut4e0bwuqf8vno09av,3oswbblg1iayggnie3ycl3ybshqxdk,IGkXEAYh,2020-0188,2020-11-20,12:26:12,12:45:54,NA,incomplete,186,color,1,left,Red_Star_Stripes_3.jpg,Red_Triangle_Chess_1.jpg,Purple_Star_Dots_2.jpg,left,1606.9999999962747,true,low,false
IGkXEAYh,3m67tqbqrk18ut4e0bwuqf8vno09av,3oswbblg1iayggnie3ycl3ybshqxdk,IGkXEAYh,2020-0188,2020-11-20,12:26:12,12:45:54,NA,incomplete,187,color,1,right,Blue_Triangle_Dots_4.jpg,Purple_Triangle_Stripes_2.jpg,Blue_Plus_Grid_3.jpg,right,697,true,low,false
IGkXEAYh,3m67tqbqrk18ut4e0bwuqf8vno09av,3oswbblg1iayggnie3ycl3ybshqxdk,IGkXEAYh,2020-0188,2020-11-20,12:26:12,12:45:54,NA,incomplete,188,color,1,left,Purple_Triangle_Chess_2.jpg,Purple_Plus_Dots_4.jpg,Green_Triangle_Grid_1.jpg,right,977.9999999955762,false,low,false
IGkXEAYh,3m67tqbqrk18ut4e0bwuqf8vno09av,3oswbblg1iayggnie3ycl3ybshqxdk,IGkXEAYh,2020-0188,2020-11-20,12:26:12,12:45:54,NA,incomplete,189,color,1,left,Red_Triangle_Chess_3.jpg,Red_Circle_Grid_4.jpg,Purple_Triangle_Stripes_1.jpg,left,671.999999998603,true,low,false
IGkXEAYh,3m67tqbqrk18ut4e0bwuqf8vno09av,3oswbblg1iayggnie3ycl3ybshqxdk,IGkXEAYh,2020-0188,2020-11-20,12:26:12,12:45:54,NA,incomplete,190,color,1,left,Blue_Star_Stripes_1.jpg,Blue_Triangle_Grid_4.jpg,Purple_Star_Chess_2.jpg,left,777.9999999984866,true,low,false
IGkXEAYh,3m67tqbqrk18ut4e0bwuqf8vno09av,3oswbblg1iayggnie3ycl3ybshqxdk,IGkXEAYh,2020-0188,2020-11-20,12:26:12,12:45:54,NA,incomplete,191,color,1,right,Purple_Plus_Chess_1.jpg,Red_Plus_Stripes_3.jpg,Purple_Star_Grid_2.jpg,left,973.9999999947613,false,low,false
IGkXEAYh,3m67tqbqrk18ut4e0bwuqf8vno09av,3oswbblg1iayggnie3ycl3ybshqxdk,IGkXEAYh,2020-0188,2020-11-20,12:26:12,12:45:54,NA,incomplete,192,color,0,right,Blue_Triangle_Grid_4.jpg,Purple_Triangle_Dots_2.jpg,Blue_Plus_Stripes_3.jpg,right,601.9999999990687,true,low,false
IGkXEAYh,3m67tqbqrk18ut4e0bwuqf8vno09av,3oswbblg1iayggnie3ycl3ybshqxdk,IGkXEAYh,2020-0188,2020-11-20,12:26:12,12:45:54,NA,incomplete,193,color,1,right,Green_Star_Dots_1.jpg,Purple_Star_Chess_2.jpg,Green_Circle_Grid_3.jpg,right,743.9999999987194,true,low,false
IGkXEAYh,3m67tqbqrk18ut4e0bwuqf8vno09av,3oswbblg1iayggnie3ycl3ybshqxdk,IGkXEAYh,2020-0188,2020-11-20,12:26:12,12:45:54,NA,incomplete,194,color,1,left,Red_Circle_Stripes_4.jpg,Red_Plus_Dots_1.jpg,Purple_Circle_Grid_3.jpg,left,639.000000002794,true,low,false
IGkXEAYh,3m67tqbqrk18ut4e0bwuqf8vno09av,3oswbblg1iayggnie3ycl3ybshqxdk,IGkXEAYh,2020-0188,2020-11-20,12:26:12,12:45:54,NA,incomplete,195,color,1,right,Green_Star_Grid_4.jpg,Blue_Star_Chess_3.jpg,Green_Circle_Dots_2.jpg,right,633.0000000016298,true,low,false
IGkXEAYh,3m67tqbqrk18ut4e0bwuqf8vno09av,3oswbblg1iayggnie3ycl3ybshqxdk,IGkXEAYh,2020-0188,2020-11-20,12:26:12,12:45:54,NA,incomplete,196,color,0,left,Purple_Triangle_Dots_4.jpg,Purple_Circle_Stripes_1.jpg,Green_Triangle_Chess_3.jpg,left,628.0000000043074,true,low,false
IGkXEAYh,3m67tqbqrk18ut4e0bwuqf8vno09av,3oswbblg1iayggnie3ycl3ybshqxdk,IGkXEAYh,2020-0188,2020-11-20,12:26:12,12:45:54,NA,incomplete,197,color,1,left,Purple_Circle_Chess_3.jpg,Purple_Plus_Grid_1.jpg,Red_Circle_Dots_4.jpg,left,796.999999998603,true,low,false
IGkXEAYh,3m67tqbqrk18ut4e0bwuqf8vno09av,3oswbblg1iayggnie3ycl3ybshqxdk,IGkXEAYh,2020-0188,2020-11-20,12:26:12,12:45:54,NA,incomplete,198,color,0,right,Red_Circle_Stripes_4.jpg,Blue_Circle_Grid_3.jpg,Red_Star_Dots_1.jpg,right,836.0000000029104,true,low,false
IGkXEAYh,3m67tqbqrk18ut4e0bwuqf8vno09av,3oswbblg1iayggnie3ycl3ybshqxdk,IGkXEAYh,2020-0188,2020-11-20,12:26:12,12:45:54,NA,incomplete,199,color,1,left,Blue_Triangle_Grid_4.jpg,Blue_Plus_Stripes_2.jpg,Green_Triangle_Chess_1.jpg,left,805.9999999968568,true,low,false
IGkXEAYh,3m67tqbqrk18ut4e0bwuqf8vno09av,3oswbblg1iayggnie3ycl3ybshqxdk,IGkXEAYh,2020-0188,2020-11-20,12:26:12,12:45:54,NA,incomplete,200,shape,1,left,Blue_Plus_Dots_4.jpg,Green_Plus_Grid_3.jpg,Blue_Circle_Chess_2.jpg,right,603.000000002794,false,low,false
IGkXEAYh,3m67tqbqrk18ut4e0bwuqf8vno09av,3oswbblg1iayggnie3ycl3ybshqxdk,IGkXEAYh,2020-0188,2020-11-20,12:26:12,12:45:54,NA,incomplete,201,shape,1,left,Blue_Plus_Grid_1.jpg,Purple_Plus_Chess_2.jpg,Blue_Star_Stripes_4.jpg,right,533.0000000031432,false,low,false
IGkXEAYh,3m67tqbqrk18ut4e0bwuqf8vno09av,3oswbblg1iayggnie3ycl3ybshqxdk,IGkXEAYh,2020-0188,2020-11-20,12:26:12,12:45:54,NA,incomplete,202,shape,1,left,Green_Star_Stripes_2.jpg,Purple_Star_Chess_1.jpg,Green_Triangle_Grid_4.jpg,left,869.0000000060536,true,low,false
IGkXEAYh,3m67tqbqrk18ut4e0bwuqf8vno09av,3oswbblg1iayggnie3ycl3ybshqxdk,IGkXEAYh,2020-0188,2020-11-20,12:26:12,12:45:54,NA,incomplete,203,shape,1,right,Green_Star_Dots_2.jpg,Green_Circle_Grid_3.jpg,Purple_Star_Chess_1.jpg,right,870.0000000026776,true,low,false
IGkXEAYh,3m67tqbqrk18ut4e0bwuqf8vno09av,3oswbblg1iayggnie3ycl3ybshqxdk,IGkXEAYh,2020-0188,2020-11-20,12:26:12,12:45:54,NA,incomplete,204,shape,1,left,Red_Plus_Chess_1.jpg,Green_Plus_Stripes_4.jpg,Red_Triangle_Grid_2.jpg,left,855.9999999997672,true,low,false
IGkXEAYh,3m67tqbqrk18ut4e0bwuqf8vno09av,3oswbblg1iayggnie3ycl3ybshqxdk,IGkXEAYh,2020-0188,2020-11-20,12:26:12,12:45:54,NA,incomplete,205,shape,0,left,Red_Triangle_Dots_4.jpg,Green_Triangle_Stripes_2.jpg,Red_Star_Chess_3.jpg,left,970.9999999977881,true,low,false
IGkXEAYh,3m67tqbqrk18ut4e0bwuqf8vno09av,3oswbblg1iayggnie3ycl3ybshqxdk,IGkXEAYh,2020-0188,2020-11-20,12:26:12,12:45:54,NA,incomplete,206,shape,1,right,Blue_Star_Grid_3.jpg,Blue_Circle_Stripes_2.jpg,Purple_Star_Chess_4.jpg,right,1110.999999997206,true,low,false
IGkXEAYh,3m67tqbqrk18ut4e0bwuqf8vno09av,3oswbblg1iayggnie3ycl3ybshqxdk,IGkXEAYh,2020-0188,2020-11-20,12:26:12,12:45:54,NA,incomplete,207,shape,1,left,Blue_Star_Stripes_2.jpg,Red_Star_Dots_4.jpg,Blue_Triangle_Chess_3.jpg,left,750,true,low,false
IGkXEAYh,3m67tqbqrk18ut4e0bwuqf8vno09av,3oswbblg1iayggnie3ycl3ybshqxdk,IGkXEAYh,2020-0188,2020-11-20,12:26:12,12:45:54,NA,incomplete,208,shape,1,right,Green_Triangle_Stripes_1.jpg,Green_Star_Grid_2.jpg,Purple_Triangle_Dots_4.jpg,right,1188.0000000018626,true,low,false
IGkXEAYh,3m67tqbqrk18ut4e0bwuqf8vno09av,3oswbblg1iayggnie3ycl3ybshqxdk,IGkXEAYh,2020-0188,2020-11-20,12:26:12,12:45:54,NA,incomplete,209,shape,1,left,Green_Star_Stripes_3.jpg,Blue_Star_Chess_4.jpg,Green_Circle_Grid_1.jpg,right,1193.9999999960419,false,low,false
IGkXEAYh,3m67tqbqrk18ut4e0bwuqf8vno09av,3oswbblg1iayggnie3ycl3ybshqxdk,IGkXEAYh,2020-0188,2020-11-20,12:26:12,12:45:54,NA,incomplete,210,shape,0,right,Blue_Plus_Stripes_1.jpg,Blue_Triangle_Chess_3.jpg,Green_Plus_Grid_4.jpg,right,974.0000000018626,true,low,false
IGkXEAYh,3m67tqbqrk18ut4e0bwuqf8vno09av,3oswbblg1iayggnie3ycl3ybshqxdk,IGkXEAYh,2020-0188,2020-11-20,12:26:12,12:45:54,NA,incomplete,211,shape,1,left,Blue_Plus_Grid_3.jpg,Red_Plus_Stripes_4.jpg,Blue_Star_Chess_2.jpg,right,650.000000001397,false,low,false
IGkXEAYh,3m67tqbqrk18ut4e0bwuqf8vno09av,3oswbblg1iayggnie3ycl3ybshqxdk,IGkXEAYh,2020-0188,2020-11-20,12:26:12,12:45:54,NA,incomplete,212,shape,1,right,Red_Star_Stripes_4.jpg,Red_Plus_Grid_1.jpg,Purple_Star_Chess_3.jpg,left,1171.9999999988358,false,low,false
IGkXEAYh,3m67tqbqrk18ut4e0bwuqf8vno09av,3oswbblg1iayggnie3ycl3ybshqxdk,IGkXEAYh,2020-0188,2020-11-20,12:26:12,12:45:54,NA,incomplete,213,shape,1,left,Red_Plus_Dots_2.jpg,Purple_Plus_Chess_4.jpg,Red_Star_Stripes_1.jpg,right,1049.9999999955762,false,low,false
IGkXEAYh,3m67tqbqrk18ut4e0bwuqf8vno09av,3oswbblg1iayggnie3ycl3ybshqxdk,IGkXEAYh,2020-0188,2020-11-20,12:26:12,12:45:54,NA,incomplete,214,shape,0,left,Red_Circle_Grid_1.jpg,Purple_Circle_Chess_4.jpg,Red_Star_Dots_3.jpg,left,950.0000000044238,true,low,false
IGkXEAYh,3m67tqbqrk18ut4e0bwuqf8vno09av,3oswbblg1iayggnie3ycl3ybshqxdk,IGkXEAYh,2020-0188,2020-11-20,12:26:12,12:45:54,NA,incomplete,215,shape,1,left,Green_Circle_Stripes_1.jpg,Purple_Circle_Grid_3.jpg,Green_Star_Chess_4.jpg,right,803.9999999962747,false,low,false
IGkXEAYh,3m67tqbqrk18ut4e0bwuqf8vno09av,3oswbblg1iayggnie3ycl3ybshqxdk,IGkXEAYh,2020-0188,2020-11-20,12:26:12,12:45:54,NA,incomplete,216,shape,0,right,Green_Plus_Dots_3.jpg,Green_Star_Stripes_4.jpg,Blue_Plus_Grid_1.jpg,right,1144,true,low,false
IGkXEAYh,3m67tqbqrk18ut4e0bwuqf8vno09av,3oswbblg1iayggnie3ycl3ybshqxdk,IGkXEAYh,2020-0188,2020-11-20,12:26:12,12:45:54,NA,incomplete,217,shape,1,right,Blue_Plus_Dots_3.jpg,Blue_Circle_Chess_4.jpg,Purple_Plus_Grid_2.jpg,left,909.9999999962747,false,low,false
IGkXEAYh,3m67tqbqrk18ut4e0bwuqf8vno09av,3oswbblg1iayggnie3ycl3ybshqxdk,IGkXEAYh,2020-0188,2020-11-20,12:26:12,12:45:54,NA,incomplete,218,shape,1,left,Purple_Circle_Stripes_2.jpg,Red_Circle_Dots_1.jpg,Purple_Triangle_Grid_3.jpg,right,1262.0000000023283,false,low,false
IGkXEAYh,3m67tqbqrk18ut4e0bwuqf8vno09av,3oswbblg1iayggnie3ycl3ybshqxdk,IGkXEAYh,2020-0188,2020-11-20,12:26:12,12:45:54,NA,incomplete,219,shape,1,left,Red_Plus_Stripes_1.jpg,Blue_Plus_Grid_2.jpg,Red_Triangle_Dots_3.jpg,left,865.9999999944121,true,low,false
IGkXEAYh,3m67tqbqrk18ut4e0bwuqf8vno09av,3oswbblg1iayggnie3ycl3ybshqxdk,IGkXEAYh,2020-0188,2020-11-20,12:26:12,12:45:54,NA,incomplete,220,color,1,left,Green_Star_Dots_4.jpg,Green_Plus_Grid_3.jpg,Red_Star_Stripes_1.jpg,right,752.999999997206,false,low,false
IGkXEAYh,3m67tqbqrk18ut4e0bwuqf8vno09av,3oswbblg1iayggnie3ycl3ybshqxdk,IGkXEAYh,2020-0188,2020-11-20,12:26:12,12:45:54,NA,incomplete,221,color,1,left,Blue_Plus_Stripes_1.jpg,Blue_Star_Dots_4.jpg,Red_Plus_Grid_3.jpg,right,663.999999997206,false,low,false
IGkXEAYh,3m67tqbqrk18ut4e0bwuqf8vno09av,3oswbblg1iayggnie3ycl3ybshqxdk,IGkXEAYh,2020-0188,2020-11-20,12:26:12,12:45:54,NA,incomplete,222,color,1,right,Blue_Star_Chess_3.jpg,Purple_Star_Dots_1.jpg,Blue_Triangle_Stripes_2.jpg,left,1473.999999994645,false,low,false
IGkXEAYh,3m67tqbqrk18ut4e0bwuqf8vno09av,3oswbblg1iayggnie3ycl3ybshqxdk,IGkXEAYh,2020-0188,2020-11-20,12:26:12,12:45:54,NA,incomplete,223,color,0,left,Blue_Star_Stripes_3.jpg,Blue_Circle_Chess_2.jpg,Purple_Star_Dots_1.jpg,right,762.0000000023283,false,low,false
IGkXEAYh,3m67tqbqrk18ut4e0bwuqf8vno09av,3oswbblg1iayggnie3ycl3ybshqxdk,IGkXEAYh,2020-0188,2020-11-20,12:26:12,12:45:54,NA,incomplete,224,color,1,left,Blue_Star_Stripes_1.jpg,Blue_Plus_Dots_2.jpg,Green_Star_Chess_3.jpg,right,1073.0000000037253,false,low,false
IGkXEAYh,3m67tqbqrk18ut4e0bwuqf8vno09av,3oswbblg1iayggnie3ycl3ybshqxdk,IGkXEAYh,2020-0188,2020-11-20,12:26:12,12:45:54,NA,incomplete,225,color,1,right,Green_Circle_Grid_1.jpg,Red_Circle_Dots_2.jpg,Green_Plus_Stripes_4.jpg,left,777.0000000018626,false,low,false
IGkXEAYh,3m67tqbqrk18ut4e0bwuqf8vno09av,3oswbblg1iayggnie3ycl3ybshqxdk,IGkXEAYh,2020-0188,2020-11-20,12:26:12,12:45:54,NA,incomplete,226,color,0,right,Red_Plus_Grid_4.jpg,Blue_Plus_Chess_1.jpg,Red_Triangle_Stripes_2.jpg,left,911,false,low,false
IGkXEAYh,3m67tqbqrk18ut4e0bwuqf8vno09av,3oswbblg1iayggnie3ycl3ybshqxdk,IGkXEAYh,2020-0188,2020-11-20,12:26:12,12:45:54,NA,incomplete,227,color,1,left,Blue_Triangle_Dots_1.jpg,Blue_Circle_Chess_4.jpg,Red_Triangle_Stripes_2.jpg,right,766.0000000032596,false,low,false
IGkXEAYh,3m67tqbqrk18ut4e0bwuqf8vno09av,3oswbblg1iayggnie3ycl3ybshqxdk,IGkXEAYh,2020-0188,2020-11-20,12:26:12,12:45:54,NA,incomplete,228,color,1,right,Blue_Plus_Grid_4.jpg,Green_Plus_Dots_1.jpg,Blue_Triangle_Stripes_3.jpg,left,1316.9999999955762,false,low,false
IGkXEAYh,3m67tqbqrk18ut4e0bwuqf8vno09av,3oswbblg1iayggnie3ycl3ybshqxdk,IGkXEAYh,2020-0188,2020-11-20,12:26:12,12:45:54,NA,incomplete,229,color,1,right,Purple_Triangle_Dots_1.jpg,Blue_Triangle_Stripes_4.jpg,Purple_Star_Grid_2.jpg,right,1620.0000000025611,true,low,false
IGkXEAYh,3m67tqbqrk18ut4e0bwuqf8vno09av,3oswbblg1iayggnie3ycl3ybshqxdk,IGkXEAYh,2020-0188,2020-11-20,12:26:12,12:45:54,NA,incomplete,230,color,1,left,Red_Plus_Stripes_1.jpg,Red_Circle_Grid_4.jpg,Green_Plus_Chess_2.jpg,left,743.0000000023283,true,low,false
IGkXEAYh,3m67tqbqrk18ut4e0bwuqf8vno09av,3oswbblg1iayggnie3ycl3ybshqxdk,IGkXEAYh,2020-0188,2020-11-20,12:26:12,12:45:54,NA,incomplete,231,color,1,right,Green_Plus_Chess_4.jpg,Red_Plus_Stripes_3.jpg,Green_Star_Grid_1.jpg,right,749.0000000034925,true,low,false
IGkXEAYh,3m67tqbqrk18ut4e0bwuqf8vno09av,3oswbblg1iayggnie3ycl3ybshqxdk,IGkXEAYh,2020-0188,2020-11-20,12:26:12,12:45:54,NA,incomplete,232,color,0,right,Purple_Circle_Grid_3.jpg,Green_Circle_Stripes_2.jpg,Purple_Triangle_Dots_4.jpg,right,692.000000002794,true,low,false
IGkXEAYh,3m67tqbqrk18ut4e0bwuqf8vno09av,3oswbblg1iayggnie3ycl3ybshqxdk,IGkXEAYh,2020-0188,2020-11-20,12:26:12,12:45:54,NA,incomplete,233,color,1,right,Red_Plus_Grid_4.jpg,Blue_Plus_Chess_2.jpg,Red_Triangle_Stripes_3.jpg,right,766.9999999997672,true,low,false
IGkXEAYh,3m67tqbqrk18ut4e0bwuqf8vno09av,3oswbblg1iayggnie3ycl3ybshqxdk,IGkXEAYh,2020-0188,2020-11-20,12:26:12,12:45:54,NA,incomplete,234,color,0,right,Purple_Circle_Grid_3.jpg,Blue_Circle_Dots_4.jpg,Purple_Star_Stripes_2.jpg,right,1091.9999999967404,true,low,false
IGkXEAYh,3m67tqbqrk18ut4e0bwuqf8vno09av,3oswbblg1iayggnie3ycl3ybshqxdk,IGkXEAYh,2020-0188,2020-11-20,12:26:12,12:45:54,NA,incomplete,235,color,1,left,Blue_Plus_Chess_4.jpg,Blue_Circle_Grid_3.jpg,Purple_Plus_Dots_2.jpg,left,1194.0000000032596,true,low,false
IGkXEAYh,3m67tqbqrk18ut4e0bwuqf8vno09av,3oswbblg1iayggnie3ycl3ybshqxdk,IGkXEAYh,2020-0188,2020-11-20,12:26:12,12:45:54,NA,incomplete,236,color,1,right,Red_Star_Dots_1.jpg,Blue_Star_Stripes_3.jpg,Red_Triangle_Chess_2.jpg,right,703.9999999979045,true,low,false
IGkXEAYh,3m67tqbqrk18ut4e0bwuqf8vno09av,3oswbblg1iayggnie3ycl3ybshqxdk,IGkXEAYh,2020-0188,2020-11-20,12:26:12,12:45:54,NA,incomplete,237,color,1,right,Purple_Star_Chess_4.jpg,Green_Star_Stripes_3.jpg,Purple_Triangle_Dots_1.jpg,right,951.0000000009313,true,low,false
IGkXEAYh,3m67tqbqrk18ut4e0bwuqf8vno09av,3oswbblg1iayggnie3ycl3ybshqxdk,IGkXEAYh,2020-0188,2020-11-20,12:26:12,12:45:54,NA,incomplete,238,color,1,left,Blue_Plus_Dots_1.jpg,Blue_Circle_Stripes_3.jpg,Green_Plus_Grid_4.jpg,right,1028.9999999951106,false,low,false
IGkXEAYh,3m67tqbqrk18ut4e0bwuqf8vno09av,3oswbblg1iayggnie3ycl3ybshqxdk,IGkXEAYh,2020-0188,2020-11-20,12:26:12,12:45:54,NA,incomplete,239,color,1,right,Blue_Triangle_Stripes_4.jpg,Purple_Triangle_Dots_2.jpg,Blue_Circle_Grid_1.jpg,left,993.999999998603,false,low,false
IGkXEAYh,3m67tqbqrk18ut4e0bwuqf8vno09av,3oswbblg1iayggnie3ycl3ybshqxdk,IGkXEAYh,2020-0188,2020-11-20,12:26:12,12:45:54,1137565.9999999988,1182408.9999999995,NA,NA,NA,NA,NA,NA,NA,NA,NA,NA,NA,undefined
