workerId,hitId,assignmentId,subject,studyid,exp_date,exp_start,exp_end,time_start,time_end,trial,type,reward_validity,answer,image_top,image_left,image_right,response,response_time,response_acc,volatility,age,race,gender,ethnicity,color,vision,neuro,practice
1YRhd0DX,3ka7ijsnx9iy5qpdnesn7gsg38gpb3,3pb5a5bd0zj7dlriygvmxpoj2d27gb,1YRhd0DX,2020-0188,2020-05-07,19:03:05,19:17:43,NA,incomplete,0,shape,1,left,Green_Circle_Stripes_1.jpg,Purple_Circle_Grid_2.jpg,Green_Plus_Dots_3.jpg,none,0,false,NA,NA,NA,NA,NA,NA,NA,NA,true
1YRhd0DX,3ka7ijsnx9iy5qpdnesn7gsg38gpb3,3pb5a5bd0zj7dlriygvmxpoj2d27gb,1YRhd0DX,2020-0188,2020-05-07,19:03:05,19:17:43,NA,incomplete,1,shape,1,right,Blue_Plus_Grid_4.jpg,Blue_Star_Chess_3.jpg,Green_Plus_Stripes_1.jpg,right,1500.4399999888847,true,NA,NA,NA,NA,NA,NA,NA,NA,true
1YRhd0DX,3ka7ijsnx9iy5qpdnesn7gsg38gpb3,3pb5a5bd0zj7dlriygvmxpoj2d27gb,1YRhd0DX,2020-0188,2020-05-07,19:03:05,19:17:43,NA,incomplete,2,shape,1,left,Purple_Star_Dots_3.jpg,Blue_Star_Stripes_2.jpg,Purple_Plus_Grid_1.jpg,left,1292.5799999939045,true,NA,NA,NA,NA,NA,NA,NA,NA,true
1YRhd0DX,3ka7ijsnx9iy5qpdnesn7gsg38gpb3,3pb5a5bd0zj7dlriygvmxpoj2d27gb,1YRhd0DX,2020-0188,2020-05-07,19:03:05,19:17:43,NA,incomplete,3,shape,1,right,Red_Plus_Stripes_4.jpg,Red_Star_Chess_1.jpg,Purple_Plus_Dots_2.jpg,right,1116.310000012163,true,NA,NA,NA,NA,NA,NA,NA,NA,true
1YRhd0DX,3ka7ijsnx9iy5qpdnesn7gsg38gpb3,3pb5a5bd0zj7dlriygvmxpoj2d27gb,1YRhd0DX,2020-0188,2020-05-07,19:03:05,19:17:43,NA,incomplete,4,shape,1,left,Green_Circle_Grid_3.jpg,Red_Circle_Stripes_1.jpg,Green_Plus_Dots_2.jpg,left,923.834999994142,true,NA,NA,NA,NA,NA,NA,NA,NA,true
1YRhd0DX,3ka7ijsnx9iy5qpdnesn7gsg38gpb3,3pb5a5bd0zj7dlriygvmxpoj2d27gb,1YRhd0DX,2020-0188,2020-05-07,19:03:05,19:17:43,NA,incomplete,5,shape,1,left,Blue_Triangle_Stripes_2.jpg,Green_Triangle_Dots_3.jpg,Blue_Star_Grid_1.jpg,left,958.2450000016252,true,NA,NA,NA,NA,NA,NA,NA,NA,true
1YRhd0DX,3ka7ijsnx9iy5qpdnesn7gsg38gpb3,3pb5a5bd0zj7dlriygvmxpoj2d27gb,1YRhd0DX,2020-0188,2020-05-07,19:03:05,19:17:43,NA,incomplete,6,shape,1,left,Red_Circle_Chess_2.jpg,Blue_Circle_Stripes_3.jpg,Red_Plus_Grid_4.jpg,left,782.6849999983096,true,NA,NA,NA,NA,NA,NA,NA,NA,true
1YRhd0DX,3ka7ijsnx9iy5qpdnesn7gsg38gpb3,3pb5a5bd0zj7dlriygvmxpoj2d27gb,1YRhd0DX,2020-0188,2020-05-07,19:03:05,19:17:43,NA,incomplete,7,shape,1,right,Purple_Star_Chess_1.jpg,Purple_Triangle_Dots_3.jpg,Blue_Star_Stripes_2.jpg,right,1024.585000006482,true,NA,NA,NA,NA,NA,NA,NA,NA,true
1YRhd0DX,3ka7ijsnx9iy5qpdnesn7gsg38gpb3,3pb5a5bd0zj7dlriygvmxpoj2d27gb,1YRhd0DX,2020-0188,2020-05-07,19:03:05,19:17:43,NA,incomplete,8,shape,0,left,Purple_Circle_Dots_1.jpg,Green_Circle_Chess_4.jpg,Purple_Plus_Stripes_2.jpg,left,906.1599999986356,true,NA,NA,NA,NA,NA,NA,NA,NA,true
1YRhd0DX,3ka7ijsnx9iy5qpdnesn7gsg38gpb3,3pb5a5bd0zj7dlriygvmxpoj2d27gb,1YRhd0DX,2020-0188,2020-05-07,19:03:05,19:17:43,NA,incomplete,9,shape,1,right,Red_Triangle_Grid_1.jpg,Red_Circle_Chess_3.jpg,Blue_Triangle_Dots_4.jpg,right,831.1850000027334,true,NA,NA,NA,NA,NA,NA,NA,NA,true
1YRhd0DX,3ka7ijsnx9iy5qpdnesn7gsg38gpb3,3pb5a5bd0zj7dlriygvmxpoj2d27gb,1YRhd0DX,2020-0188,2020-05-07,19:03:05,19:17:43,NA,incomplete,10,shape,1,left,Red_Star_Stripes_2.jpg,Green_Star_Grid_3.jpg,Red_Circle_Chess_1.jpg,left,945.7899999979418,true,NA,NA,NA,NA,NA,NA,NA,NA,true
1YRhd0DX,3ka7ijsnx9iy5qpdnesn7gsg38gpb3,3pb5a5bd0zj7dlriygvmxpoj2d27gb,1YRhd0DX,2020-0188,2020-05-07,19:03:05,19:17:43,NA,incomplete,11,shape,0,right,Red_Circle_Dots_1.jpg,Red_Plus_Stripes_4.jpg,Green_Circle_Chess_3.jpg,right,762.3049999965588,true,NA,NA,NA,NA,NA,NA,NA,NA,true
1YRhd0DX,3ka7ijsnx9iy5qpdnesn7gsg38gpb3,3pb5a5bd0zj7dlriygvmxpoj2d27gb,1YRhd0DX,2020-0188,2020-05-07,19:03:05,19:17:43,NA,incomplete,12,shape,1,right,Green_Circle_Stripes_2.jpg,Green_Triangle_Dots_3.jpg,Red_Circle_Grid_4.jpg,right,789.5299999945564,true,NA,NA,NA,NA,NA,NA,NA,NA,true
1YRhd0DX,3ka7ijsnx9iy5qpdnesn7gsg38gpb3,3pb5a5bd0zj7dlriygvmxpoj2d27gb,1YRhd0DX,2020-0188,2020-05-07,19:03:05,19:17:43,NA,incomplete,13,shape,1,left,Red_Circle_Stripes_2.jpg,Green_Circle_Dots_3.jpg,Red_Plus_Chess_4.jpg,left,844.2300000024261,true,NA,NA,NA,NA,NA,NA,NA,NA,true
1YRhd0DX,3ka7ijsnx9iy5qpdnesn7gsg38gpb3,3pb5a5bd0zj7dlriygvmxpoj2d27gb,1YRhd0DX,2020-0188,2020-05-07,19:03:05,19:17:43,NA,incomplete,14,shape,1,left,Green_Star_Grid_3.jpg,Purple_Star_Stripes_1.jpg,Green_Plus_Chess_2.jpg,left,915.4050000070129,true,NA,NA,NA,NA,NA,NA,NA,NA,true
1YRhd0DX,3ka7ijsnx9iy5qpdnesn7gsg38gpb3,3pb5a5bd0zj7dlriygvmxpoj2d27gb,1YRhd0DX,2020-0188,2020-05-07,19:03:05,19:17:43,NA,incomplete,15,shape,1,right,Purple_Star_Dots_4.jpg,Purple_Triangle_Grid_1.jpg,Green_Star_Stripes_2.jpg,right,930.5399999866495,true,NA,NA,NA,NA,NA,NA,NA,NA,true
1YRhd0DX,3ka7ijsnx9iy5qpdnesn7gsg38gpb3,3pb5a5bd0zj7dlriygvmxpoj2d27gb,1YRhd0DX,2020-0188,2020-05-07,19:03:05,19:17:43,NA,incomplete,16,shape,1,right,Green_Triangle_Dots_4.jpg,Green_Plus_Stripes_3.jpg,Blue_Triangle_Grid_1.jpg,right,968.4699999925215,true,NA,NA,NA,NA,NA,NA,NA,NA,true
1YRhd0DX,3ka7ijsnx9iy5qpdnesn7gsg38gpb3,3pb5a5bd0zj7dlriygvmxpoj2d27gb,1YRhd0DX,2020-0188,2020-05-07,19:03:05,19:17:43,NA,incomplete,17,shape,0,right,Purple_Plus_Dots_4.jpg,Purple_Circle_Grid_1.jpg,Green_Plus_Chess_3.jpg,right,1037.7000000007683,true,NA,NA,NA,NA,NA,NA,NA,NA,true
1YRhd0DX,3ka7ijsnx9iy5qpdnesn7gsg38gpb3,3pb5a5bd0zj7dlriygvmxpoj2d27gb,1YRhd0DX,2020-0188,2020-05-07,19:03:05,19:17:43,NA,incomplete,18,shape,1,right,Green_Plus_Chess_1.jpg,Green_Star_Grid_4.jpg,Blue_Plus_Stripes_3.jpg,right,846.109999998589,true,NA,NA,NA,NA,NA,NA,NA,NA,true
1YRhd0DX,3ka7ijsnx9iy5qpdnesn7gsg38gpb3,3pb5a5bd0zj7dlriygvmxpoj2d27gb,1YRhd0DX,2020-0188,2020-05-07,19:03:05,19:17:43,NA,incomplete,19,shape,1,right,Purple_Circle_Chess_1.jpg,Purple_Star_Grid_4.jpg,Green_Circle_Dots_3.jpg,right,721.5049999940675,true,NA,NA,NA,NA,NA,NA,NA,NA,true
1YRhd0DX,3ka7ijsnx9iy5qpdnesn7gsg38gpb3,3pb5a5bd0zj7dlriygvmxpoj2d27gb,1YRhd0DX,2020-0188,2020-05-07,19:03:05,19:17:43,NA,incomplete,20,color,1,right,Purple_Circle_Grid_1.jpg,Green_Circle_Chess_2.jpg,Purple_Plus_Dots_4.jpg,left,646.7450000054669,false,NA,NA,NA,NA,NA,NA,NA,NA,true
1YRhd0DX,3ka7ijsnx9iy5qpdnesn7gsg38gpb3,3pb5a5bd0zj7dlriygvmxpoj2d27gb,1YRhd0DX,2020-0188,2020-05-07,19:03:05,19:17:43,NA,incomplete,21,color,1,right,Purple_Triangle_Chess_4.jpg,Blue_Triangle_Grid_3.jpg,Purple_Star_Stripes_1.jpg,left,757.4449999956414,false,NA,NA,NA,NA,NA,NA,NA,NA,true
1YRhd0DX,3ka7ijsnx9iy5qpdnesn7gsg38gpb3,3pb5a5bd0zj7dlriygvmxpoj2d27gb,1YRhd0DX,2020-0188,2020-05-07,19:03:05,19:17:43,NA,incomplete,22,color,1,left,Blue_Circle_Grid_4.jpg,Blue_Star_Stripes_3.jpg,Green_Circle_Chess_1.jpg,right,653.9550000015879,false,NA,NA,NA,NA,NA,NA,NA,NA,true
1YRhd0DX,3ka7ijsnx9iy5qpdnesn7gsg38gpb3,3pb5a5bd0zj7dlriygvmxpoj2d27gb,1YRhd0DX,2020-0188,2020-05-07,19:03:05,19:17:43,NA,incomplete,23,color,1,right,Blue_Star_Chess_2.jpg,Green_Star_Stripes_3.jpg,Blue_Circle_Dots_1.jpg,right,1054.3800000014016,true,NA,NA,NA,NA,NA,NA,NA,NA,true
1YRhd0DX,3ka7ijsnx9iy5qpdnesn7gsg38gpb3,3pb5a5bd0zj7dlriygvmxpoj2d27gb,1YRhd0DX,2020-0188,2020-05-07,19:03:05,19:17:43,NA,incomplete,24,color,0,right,Blue_Plus_Chess_4.jpg,Green_Plus_Stripes_2.jpg,Blue_Star_Dots_3.jpg,right,889.2849999974715,true,NA,NA,NA,NA,NA,NA,NA,NA,true
1YRhd0DX,3ka7ijsnx9iy5qpdnesn7gsg38gpb3,3pb5a5bd0zj7dlriygvmxpoj2d27gb,1YRhd0DX,2020-0188,2020-05-07,19:03:05,19:17:43,NA,incomplete,25,color,1,right,Blue_Circle_Dots_3.jpg,Green_Circle_Grid_4.jpg,Blue_Triangle_Stripes_1.jpg,right,815.5050000059418,true,NA,NA,NA,NA,NA,NA,NA,NA,true
1YRhd0DX,3ka7ijsnx9iy5qpdnesn7gsg38gpb3,3pb5a5bd0zj7dlriygvmxpoj2d27gb,1YRhd0DX,2020-0188,2020-05-07,19:03:05,19:17:43,NA,incomplete,26,color,1,left,Blue_Triangle_Dots_1.jpg,Blue_Plus_Chess_2.jpg,Red_Triangle_Grid_3.jpg,left,729.204999996,true,NA,NA,NA,NA,NA,NA,NA,NA,true
1YRhd0DX,3ka7ijsnx9iy5qpdnesn7gsg38gpb3,3pb5a5bd0zj7dlriygvmxpoj2d27gb,1YRhd0DX,2020-0188,2020-05-07,19:03:05,19:17:43,NA,incomplete,27,color,1,right,Green_Plus_Grid_1.jpg,Red_Plus_Stripes_2.jpg,Green_Circle_Chess_3.jpg,right,757.8950000024633,true,NA,NA,NA,NA,NA,NA,NA,NA,true
1YRhd0DX,3ka7ijsnx9iy5qpdnesn7gsg38gpb3,3pb5a5bd0zj7dlriygvmxpoj2d27gb,1YRhd0DX,2020-0188,2020-05-07,19:03:05,19:17:43,NA,incomplete,28,color,1,left,Purple_Triangle_Stripes_3.jpg,Purple_Star_Chess_4.jpg,Green_Triangle_Dots_2.jpg,left,760.9249999950407,true,NA,NA,NA,NA,NA,NA,NA,NA,true
1YRhd0DX,3ka7ijsnx9iy5qpdnesn7gsg38gpb3,3pb5a5bd0zj7dlriygvmxpoj2d27gb,1YRhd0DX,2020-0188,2020-05-07,19:03:05,19:17:43,NA,incomplete,29,color,1,left,Red_Star_Chess_3.jpg,Red_Plus_Stripes_2.jpg,Blue_Star_Grid_1.jpg,left,636.3749999873107,true,NA,NA,NA,NA,NA,NA,NA,NA,true
1YRhd0DX,3ka7ijsnx9iy5qpdnesn7gsg38gpb3,3pb5a5bd0zj7dlriygvmxpoj2d27gb,1YRhd0DX,2020-0188,2020-05-07,19:03:05,19:17:43,NA,incomplete,30,color,0,left,Blue_Plus_Chess_4.jpg,Blue_Star_Stripes_2.jpg,Red_Plus_Dots_1.jpg,left,561.2449999898672,true,NA,NA,NA,NA,NA,NA,NA,NA,true
1YRhd0DX,3ka7ijsnx9iy5qpdnesn7gsg38gpb3,3pb5a5bd0zj7dlriygvmxpoj2d27gb,1YRhd0DX,2020-0188,2020-05-07,19:03:05,19:17:43,NA,incomplete,31,color,1,left,Green_Circle_Dots_1.jpg,Green_Star_Stripes_4.jpg,Blue_Circle_Chess_2.jpg,left,560.2450000005774,true,NA,NA,NA,NA,NA,NA,NA,NA,true
1YRhd0DX,3ka7ijsnx9iy5qpdnesn7gsg38gpb3,3pb5a5bd0zj7dlriygvmxpoj2d27gb,1YRhd0DX,2020-0188,2020-05-07,19:03:05,19:17:43,NA,incomplete,32,color,1,right,Red_Plus_Chess_2.jpg,Blue_Plus_Dots_3.jpg,Red_Circle_Stripes_4.jpg,right,585.5250000022352,true,NA,NA,NA,NA,NA,NA,NA,NA,true
1YRhd0DX,3ka7ijsnx9iy5qpdnesn7gsg38gpb3,3pb5a5bd0zj7dlriygvmxpoj2d27gb,1YRhd0DX,2020-0188,2020-05-07,19:03:05,19:17:43,NA,incomplete,33,color,1,left,Red_Star_Stripes_1.jpg,Red_Plus_Chess_4.jpg,Purple_Star_Grid_2.jpg,left,497.6349999924423,true,NA,NA,NA,NA,NA,NA,NA,NA,true
1YRhd0DX,3ka7ijsnx9iy5qpdnesn7gsg38gpb3,3pb5a5bd0zj7dlriygvmxpoj2d27gb,1YRhd0DX,2020-0188,2020-05-07,19:03:05,19:17:43,NA,incomplete,34,color,1,left,Red_Circle_Grid_4.jpg,Red_Plus_Dots_2.jpg,Purple_Circle_Stripes_1.jpg,left,667.8099999990081,true,NA,NA,NA,NA,NA,NA,NA,NA,true
1YRhd0DX,3ka7ijsnx9iy5qpdnesn7gsg38gpb3,3pb5a5bd0zj7dlriygvmxpoj2d27gb,1YRhd0DX,2020-0188,2020-05-07,19:03:05,19:17:43,NA,incomplete,35,color,1,right,Blue_Star_Stripes_2.jpg,Purple_Star_Chess_3.jpg,Blue_Triangle_Grid_4.jpg,right,736.2649999995483,true,NA,NA,NA,NA,NA,NA,NA,NA,true
1YRhd0DX,3ka7ijsnx9iy5qpdnesn7gsg38gpb3,3pb5a5bd0zj7dlriygvmxpoj2d27gb,1YRhd0DX,2020-0188,2020-05-07,19:03:05,19:17:43,NA,incomplete,36,color,0,right,Blue_Plus_Stripes_2.jpg,Red_Plus_Chess_1.jpg,Blue_Triangle_Dots_4.jpg,right,509.66999999945983,true,NA,NA,NA,NA,NA,NA,NA,NA,true
1YRhd0DX,3ka7ijsnx9iy5qpdnesn7gsg38gpb3,3pb5a5bd0zj7dlriygvmxpoj2d27gb,1YRhd0DX,2020-0188,2020-05-07,19:03:05,19:17:43,NA,incomplete,37,color,1,left,Purple_Plus_Grid_1.jpg,Purple_Star_Chess_2.jpg,Blue_Plus_Dots_3.jpg,left,706.9350000092527,true,NA,NA,NA,NA,NA,NA,NA,NA,true
1YRhd0DX,3ka7ijsnx9iy5qpdnesn7gsg38gpb3,3pb5a5bd0zj7dlriygvmxpoj2d27gb,1YRhd0DX,2020-0188,2020-05-07,19:03:05,19:17:43,NA,incomplete,38,color,0,right,Green_Triangle_Chess_3.jpg,Blue_Triangle_Grid_2.jpg,Green_Star_Stripes_4.jpg,right,541.5499999944586,true,NA,NA,NA,NA,NA,NA,NA,NA,true
1YRhd0DX,3ka7ijsnx9iy5qpdnesn7gsg38gpb3,3pb5a5bd0zj7dlriygvmxpoj2d27gb,1YRhd0DX,2020-0188,2020-05-07,19:03:05,19:17:43,NA,incomplete,39,color,0,right,Purple_Plus_Chess_3.jpg,Blue_Plus_Grid_2.jpg,Purple_Triangle_Stripes_4.jpg,right,874.8850000120001,true,NA,NA,NA,NA,NA,NA,NA,NA,true
1YRhd0DX,3ka7ijsnx9iy5qpdnesn7gsg38gpb3,3pb5a5bd0zj7dlriygvmxpoj2d27gb,1YRhd0DX,2020-0188,2020-05-07,19:03:05,19:17:43,NA,incomplete,0,shape,0,left,Green_Circle_Stripes_4.jpg,Red_Circle_Grid_3.jpg,Green_Star_Chess_1.jpg,right,1319.0250000043306,false,low,NA,NA,NA,NA,NA,NA,NA,false
1YRhd0DX,3ka7ijsnx9iy5qpdnesn7gsg38gpb3,3pb5a5bd0zj7dlriygvmxpoj2d27gb,1YRhd0DX,2020-0188,2020-05-07,19:03:05,19:17:43,NA,incomplete,1,shape,1,left,Green_Star_Stripes_1.jpg,Purple_Star_Grid_3.jpg,Green_Circle_Dots_2.jpg,right,574.3649999931222,false,low,NA,NA,NA,NA,NA,NA,NA,false
1YRhd0DX,3ka7ijsnx9iy5qpdnesn7gsg38gpb3,3pb5a5bd0zj7dlriygvmxpoj2d27gb,1YRhd0DX,2020-0188,2020-05-07,19:03:05,19:17:43,NA,incomplete,2,shape,1,right,Blue_Triangle_Grid_4.jpg,Blue_Star_Stripes_2.jpg,Green_Triangle_Dots_1.jpg,left,649.9900000053458,false,low,NA,NA,NA,NA,NA,NA,NA,false
1YRhd0DX,3ka7ijsnx9iy5qpdnesn7gsg38gpb3,3pb5a5bd0zj7dlriygvmxpoj2d27gb,1YRhd0DX,2020-0188,2020-05-07,19:03:05,19:17:43,NA,incomplete,3,shape,1,left,Green_Circle_Dots_2.jpg,Red_Circle_Stripes_1.jpg,Green_Triangle_Grid_3.jpg,left,944.6549999993294,true,low,NA,NA,NA,NA,NA,NA,NA,false
1YRhd0DX,3ka7ijsnx9iy5qpdnesn7gsg38gpb3,3pb5a5bd0zj7dlriygvmxpoj2d27gb,1YRhd0DX,2020-0188,2020-05-07,19:03:05,19:17:43,NA,incomplete,4,shape,0,left,Purple_Triangle_Chess_2.jpg,Green_Triangle_Grid_1.jpg,Purple_Plus_Stripes_4.jpg,right,641.8550000089454,false,low,NA,NA,NA,NA,NA,NA,NA,false
1YRhd0DX,3ka7ijsnx9iy5qpdnesn7gsg38gpb3,3pb5a5bd0zj7dlriygvmxpoj2d27gb,1YRhd0DX,2020-0188,2020-05-07,19:03:05,19:17:43,NA,incomplete,5,shape,1,right,Purple_Triangle_Grid_1.jpg,Purple_Star_Chess_3.jpg,Green_Triangle_Dots_4.jpg,right,1002.9799999902025,true,low,NA,NA,NA,NA,NA,NA,NA,false
1YRhd0DX,3ka7ijsnx9iy5qpdnesn7gsg38gpb3,3pb5a5bd0zj7dlriygvmxpoj2d27gb,1YRhd0DX,2020-0188,2020-05-07,19:03:05,19:17:43,NA,incomplete,6,shape,1,right,Purple_Star_Stripes_3.jpg,Purple_Plus_Chess_2.jpg,Red_Star_Grid_1.jpg,right,878.5750000097323,true,low,NA,NA,NA,NA,NA,NA,NA,false
1YRhd0DX,3ka7ijsnx9iy5qpdnesn7gsg38gpb3,3pb5a5bd0zj7dlriygvmxpoj2d27gb,1YRhd0DX,2020-0188,2020-05-07,19:03:05,19:17:43,NA,incomplete,7,shape,1,left,Green_Circle_Stripes_3.jpg,Purple_Circle_Dots_4.jpg,Green_Plus_Chess_2.jpg,left,1013.2749999902444,true,low,NA,NA,NA,NA,NA,NA,NA,false
1YRhd0DX,3ka7ijsnx9iy5qpdnesn7gsg38gpb3,3pb5a5bd0zj7dlriygvmxpoj2d27gb,1YRhd0DX,2020-0188,2020-05-07,19:03:05,19:17:43,NA,incomplete,8,shape,1,left,Red_Circle_Dots_2.jpg,Purple_Circle_Chess_3.jpg,Red_Triangle_Grid_1.jpg,left,1011.0899999999674,true,low,NA,NA,NA,NA,NA,NA,NA,false
1YRhd0DX,3ka7ijsnx9iy5qpdnesn7gsg38gpb3,3pb5a5bd0zj7dlriygvmxpoj2d27gb,1YRhd0DX,2020-0188,2020-05-07,19:03:05,19:17:43,NA,incomplete,9,shape,0,right,Blue_Plus_Dots_1.jpg,Blue_Circle_Grid_2.jpg,Red_Plus_Stripes_4.jpg,right,843.2850000099279,true,low,NA,NA,NA,NA,NA,NA,NA,false
1YRhd0DX,3ka7ijsnx9iy5qpdnesn7gsg38gpb3,3pb5a5bd0zj7dlriygvmxpoj2d27gb,1YRhd0DX,2020-0188,2020-05-07,19:03:05,19:17:43,NA,incomplete,10,shape,1,right,Green_Triangle_Dots_4.jpg,Green_Circle_Stripes_3.jpg,Red_Triangle_Grid_1.jpg,right,907.1700000058627,true,low,NA,NA,NA,NA,NA,NA,NA,false
1YRhd0DX,3ka7ijsnx9iy5qpdnesn7gsg38gpb3,3pb5a5bd0zj7dlriygvmxpoj2d27gb,1YRhd0DX,2020-0188,2020-05-07,19:03:05,19:17:43,NA,incomplete,11,shape,1,right,Green_Circle_Dots_3.jpg,Green_Star_Stripes_2.jpg,Purple_Circle_Grid_4.jpg,right,820.2900000032969,true,low,NA,NA,NA,NA,NA,NA,NA,false
1YRhd0DX,3ka7ijsnx9iy5qpdnesn7gsg38gpb3,3pb5a5bd0zj7dlriygvmxpoj2d27gb,1YRhd0DX,2020-0188,2020-05-07,19:03:05,19:17:43,NA,incomplete,12,shape,1,left,Green_Circle_Chess_1.jpg,Red_Circle_Dots_3.jpg,Green_Triangle_Grid_2.jpg,left,760.9749999974156,true,low,NA,NA,NA,NA,NA,NA,NA,false
1YRhd0DX,3ka7ijsnx9iy5qpdnesn7gsg38gpb3,3pb5a5bd0zj7dlriygvmxpoj2d27gb,1YRhd0DX,2020-0188,2020-05-07,19:03:05,19:17:43,NA,incomplete,13,shape,1,right,Red_Plus_Chess_2.jpg,Red_Circle_Grid_4.jpg,Green_Plus_Dots_3.jpg,right,744.3499999935739,true,low,NA,NA,NA,NA,NA,NA,NA,false
1YRhd0DX,3ka7ijsnx9iy5qpdnesn7gsg38gpb3,3pb5a5bd0zj7dlriygvmxpoj2d27gb,1YRhd0DX,2020-0188,2020-05-07,19:03:05,19:17:43,NA,incomplete,14,shape,1,left,Green_Plus_Stripes_2.jpg,Blue_Plus_Dots_3.jpg,Green_Triangle_Chess_1.jpg,left,683.2999999896856,true,low,NA,NA,NA,NA,NA,NA,NA,false
1YRhd0DX,3ka7ijsnx9iy5qpdnesn7gsg38gpb3,3pb5a5bd0zj7dlriygvmxpoj2d27gb,1YRhd0DX,2020-0188,2020-05-07,19:03:05,19:17:43,NA,incomplete,15,shape,1,right,Blue_Star_Chess_1.jpg,Blue_Circle_Stripes_2.jpg,Green_Star_Dots_4.jpg,right,675.889999998617,true,low,NA,NA,NA,NA,NA,NA,NA,false
1YRhd0DX,3ka7ijsnx9iy5qpdnesn7gsg38gpb3,3pb5a5bd0zj7dlriygvmxpoj2d27gb,1YRhd0DX,2020-0188,2020-05-07,19:03:05,19:17:43,NA,incomplete,16,shape,1,right,Purple_Plus_Grid_4.jpg,Purple_Circle_Stripes_3.jpg,Blue_Plus_Dots_2.jpg,right,728.5499999998137,true,low,NA,NA,NA,NA,NA,NA,NA,false
1YRhd0DX,3ka7ijsnx9iy5qpdnesn7gsg38gpb3,3pb5a5bd0zj7dlriygvmxpoj2d27gb,1YRhd0DX,2020-0188,2020-05-07,19:03:05,19:17:43,NA,incomplete,17,shape,1,right,Red_Plus_Stripes_4.jpg,Red_Triangle_Dots_3.jpg,Blue_Plus_Chess_2.jpg,right,738.2199999992736,true,low,NA,NA,NA,NA,NA,NA,NA,false
1YRhd0DX,3ka7ijsnx9iy5qpdnesn7gsg38gpb3,3pb5a5bd0zj7dlriygvmxpoj2d27gb,1YRhd0DX,2020-0188,2020-05-07,19:03:05,19:17:43,NA,incomplete,18,shape,1,right,Purple_Plus_Dots_3.jpg,Purple_Triangle_Grid_2.jpg,Blue_Plus_Stripes_1.jpg,right,657.9300000012154,true,low,NA,NA,NA,NA,NA,NA,NA,false
1YRhd0DX,3ka7ijsnx9iy5qpdnesn7gsg38gpb3,3pb5a5bd0zj7dlriygvmxpoj2d27gb,1YRhd0DX,2020-0188,2020-05-07,19:03:05,19:17:43,NA,incomplete,19,shape,1,left,Green_Circle_Chess_1.jpg,Blue_Circle_Dots_4.jpg,Green_Plus_Grid_3.jpg,left,604.3900000076974,true,low,NA,NA,NA,NA,NA,NA,NA,false
1YRhd0DX,3ka7ijsnx9iy5qpdnesn7gsg38gpb3,3pb5a5bd0zj7dlriygvmxpoj2d27gb,1YRhd0DX,2020-0188,2020-05-07,19:03:05,19:17:43,NA,incomplete,20,shape,1,right,Red_Triangle_Dots_3.jpg,Red_Plus_Stripes_2.jpg,Blue_Triangle_Chess_1.jpg,right,797.099999996135,true,low,NA,NA,NA,NA,NA,NA,NA,false
1YRhd0DX,3ka7ijsnx9iy5qpdnesn7gsg38gpb3,3pb5a5bd0zj7dlriygvmxpoj2d27gb,1YRhd0DX,2020-0188,2020-05-07,19:03:05,19:17:43,NA,incomplete,21,shape,1,right,Red_Star_Dots_1.jpg,Red_Circle_Grid_4.jpg,Green_Star_Stripes_3.jpg,right,614.5350000006147,true,low,NA,NA,NA,NA,NA,NA,NA,false
1YRhd0DX,3ka7ijsnx9iy5qpdnesn7gsg38gpb3,3pb5a5bd0zj7dlriygvmxpoj2d27gb,1YRhd0DX,2020-0188,2020-05-07,19:03:05,19:17:43,NA,incomplete,22,shape,0,left,Purple_Triangle_Stripes_4.jpg,Blue_Triangle_Chess_1.jpg,Purple_Circle_Dots_3.jpg,left,740.1649999956135,true,low,NA,NA,NA,NA,NA,NA,NA,false
1YRhd0DX,3ka7ijsnx9iy5qpdnesn7gsg38gpb3,3pb5a5bd0zj7dlriygvmxpoj2d27gb,1YRhd0DX,2020-0188,2020-05-07,19:03:05,19:17:43,NA,incomplete,23,shape,1,right,Green_Star_Grid_4.jpg,Green_Circle_Chess_1.jpg,Blue_Star_Dots_2.jpg,right,600.6749999942258,true,low,NA,NA,NA,NA,NA,NA,NA,false
1YRhd0DX,3ka7ijsnx9iy5qpdnesn7gsg38gpb3,3pb5a5bd0zj7dlriygvmxpoj2d27gb,1YRhd0DX,2020-0188,2020-05-07,19:03:05,19:17:43,NA,incomplete,24,shape,0,left,Blue_Circle_Chess_1.jpg,Purple_Circle_Grid_4.jpg,Blue_Star_Stripes_3.jpg,left,596.2250000011409,true,low,NA,NA,NA,NA,NA,NA,NA,false
1YRhd0DX,3ka7ijsnx9iy5qpdnesn7gsg38gpb3,3pb5a5bd0zj7dlriygvmxpoj2d27gb,1YRhd0DX,2020-0188,2020-05-07,19:03:05,19:17:43,NA,incomplete,25,shape,1,left,Red_Star_Chess_4.jpg,Blue_Star_Stripes_1.jpg,Red_Triangle_Grid_3.jpg,left,858.4899999987101,true,low,NA,NA,NA,NA,NA,NA,NA,false
1YRhd0DX,3ka7ijsnx9iy5qpdnesn7gsg38gpb3,3pb5a5bd0zj7dlriygvmxpoj2d27gb,1YRhd0DX,2020-0188,2020-05-07,19:03:05,19:17:43,NA,incomplete,26,shape,1,left,Purple_Star_Chess_3.jpg,Blue_Star_Stripes_4.jpg,Purple_Circle_Dots_2.jpg,left,645.0000000040745,true,low,NA,NA,NA,NA,NA,NA,NA,false
1YRhd0DX,3ka7ijsnx9iy5qpdnesn7gsg38gpb3,3pb5a5bd0zj7dlriygvmxpoj2d27gb,1YRhd0DX,2020-0188,2020-05-07,19:03:05,19:17:43,NA,incomplete,27,shape,1,left,Purple_Circle_Chess_3.jpg,Green_Circle_Grid_1.jpg,Purple_Star_Dots_4.jpg,left,617.1199999953387,true,low,NA,NA,NA,NA,NA,NA,NA,false
1YRhd0DX,3ka7ijsnx9iy5qpdnesn7gsg38gpb3,3pb5a5bd0zj7dlriygvmxpoj2d27gb,1YRhd0DX,2020-0188,2020-05-07,19:03:05,19:17:43,NA,incomplete,28,shape,0,left,Green_Triangle_Stripes_3.jpg,Red_Triangle_Grid_4.jpg,Green_Plus_Chess_1.jpg,left,655.3649999987101,true,low,NA,NA,NA,NA,NA,NA,NA,false
1YRhd0DX,3ka7ijsnx9iy5qpdnesn7gsg38gpb3,3pb5a5bd0zj7dlriygvmxpoj2d27gb,1YRhd0DX,2020-0188,2020-05-07,19:03:05,19:17:43,NA,incomplete,29,shape,1,right,Red_Triangle_Dots_4.jpg,Red_Circle_Grid_2.jpg,Green_Triangle_Stripes_3.jpg,right,743.1500000093365,true,low,NA,NA,NA,NA,NA,NA,NA,false
1YRhd0DX,3ka7ijsnx9iy5qpdnesn7gsg38gpb3,3pb5a5bd0zj7dlriygvmxpoj2d27gb,1YRhd0DX,2020-0188,2020-05-07,19:03:05,19:17:43,NA,incomplete,30,color,1,left,Blue_Circle_Dots_2.jpg,Blue_Star_Chess_4.jpg,Red_Circle_Grid_1.jpg,right,686.3100000045961,false,low,NA,NA,NA,NA,NA,NA,NA,false
1YRhd0DX,3ka7ijsnx9iy5qpdnesn7gsg38gpb3,3pb5a5bd0zj7dlriygvmxpoj2d27gb,1YRhd0DX,2020-0188,2020-05-07,19:03:05,19:17:43,NA,incomplete,31,color,0,right,Blue_Star_Stripes_3.jpg,Red_Star_Dots_2.jpg,Blue_Triangle_Chess_4.jpg,left,662.7250000019558,false,low,NA,NA,NA,NA,NA,NA,NA,false
1YRhd0DX,3ka7ijsnx9iy5qpdnesn7gsg38gpb3,3pb5a5bd0zj7dlriygvmxpoj2d27gb,1YRhd0DX,2020-0188,2020-05-07,19:03:05,19:17:43,NA,incomplete,32,color,1,right,Blue_Star_Stripes_3.jpg,Purple_Star_Chess_1.jpg,Blue_Circle_Grid_2.jpg,left,750.7049999985611,false,low,NA,NA,NA,NA,NA,NA,NA,false
1YRhd0DX,3ka7ijsnx9iy5qpdnesn7gsg38gpb3,3pb5a5bd0zj7dlriygvmxpoj2d27gb,1YRhd0DX,2020-0188,2020-05-07,19:03:05,19:17:43,NA,incomplete,33,color,1,left,Red_Plus_Dots_2.jpg,Red_Star_Chess_1.jpg,Purple_Plus_Grid_3.jpg,left,590.4500000033295,true,low,NA,NA,NA,NA,NA,NA,NA,false
1YRhd0DX,3ka7ijsnx9iy5qpdnesn7gsg38gpb3,3pb5a5bd0zj7dlriygvmxpoj2d27gb,1YRhd0DX,2020-0188,2020-05-07,19:03:05,19:17:43,NA,incomplete,34,color,1,left,Green_Circle_Dots_2.jpg,Green_Star_Chess_1.jpg,Blue_Circle_Stripes_4.jpg,left,596.6500000067754,true,low,NA,NA,NA,NA,NA,NA,NA,false
1YRhd0DX,3ka7ijsnx9iy5qpdnesn7gsg38gpb3,3pb5a5bd0zj7dlriygvmxpoj2d27gb,1YRhd0DX,2020-0188,2020-05-07,19:03:05,19:17:43,NA,incomplete,35,color,1,right,Blue_Star_Stripes_4.jpg,Purple_Star_Grid_3.jpg,Blue_Triangle_Chess_1.jpg,right,626.5849999908824,true,low,NA,NA,NA,NA,NA,NA,NA,false
1YRhd0DX,3ka7ijsnx9iy5qpdnesn7gsg38gpb3,3pb5a5bd0zj7dlriygvmxpoj2d27gb,1YRhd0DX,2020-0188,2020-05-07,19:03:05,19:17:43,NA,incomplete,36,color,1,left,Green_Circle_Chess_1.jpg,Green_Plus_Dots_3.jpg,Purple_Circle_Grid_2.jpg,left,656.9650000019465,true,low,NA,NA,NA,NA,NA,NA,NA,false
1YRhd0DX,3ka7ijsnx9iy5qpdnesn7gsg38gpb3,3pb5a5bd0zj7dlriygvmxpoj2d27gb,1YRhd0DX,2020-0188,2020-05-07,19:03:05,19:17:43,NA,incomplete,37,color,1,right,Blue_Triangle_Grid_4.jpg,Red_Triangle_Stripes_2.jpg,Blue_Star_Chess_1.jpg,right,538.7400000035996,true,low,NA,NA,NA,NA,NA,NA,NA,false
1YRhd0DX,3ka7ijsnx9iy5qpdnesn7gsg38gpb3,3pb5a5bd0zj7dlriygvmxpoj2d27gb,1YRhd0DX,2020-0188,2020-05-07,19:03:05,19:17:43,NA,incomplete,38,color,1,left,Blue_Triangle_Grid_3.jpg,Blue_Star_Stripes_4.jpg,Green_Triangle_Chess_2.jpg,left,553.7550000008196,true,low,NA,NA,NA,NA,NA,NA,NA,false
1YRhd0DX,3ka7ijsnx9iy5qpdnesn7gsg38gpb3,3pb5a5bd0zj7dlriygvmxpoj2d27gb,1YRhd0DX,2020-0188,2020-05-07,19:03:05,19:17:43,NA,incomplete,39,color,1,left,Purple_Circle_Stripes_1.jpg,Purple_Triangle_Dots_2.jpg,Blue_Circle_Chess_3.jpg,left,515.190000005532,true,low,NA,NA,NA,NA,NA,NA,NA,false
1YRhd0DX,3ka7ijsnx9iy5qpdnesn7gsg38gpb3,3pb5a5bd0zj7dlriygvmxpoj2d27gb,1YRhd0DX,2020-0188,2020-05-07,19:03:05,19:17:43,NA,incomplete,40,color,1,right,Purple_Circle_Stripes_2.jpg,Green_Circle_Chess_1.jpg,Purple_Triangle_Dots_4.jpg,right,534.5550000056392,true,low,NA,NA,NA,NA,NA,NA,NA,false
1YRhd0DX,3ka7ijsnx9iy5qpdnesn7gsg38gpb3,3pb5a5bd0zj7dlriygvmxpoj2d27gb,1YRhd0DX,2020-0188,2020-05-07,19:03:05,19:17:43,NA,incomplete,41,color,1,left,Red_Circle_Chess_2.jpg,Red_Plus_Stripes_1.jpg,Purple_Circle_Grid_3.jpg,left,498.29000000318047,true,low,NA,NA,NA,NA,NA,NA,NA,false
1YRhd0DX,3ka7ijsnx9iy5qpdnesn7gsg38gpb3,3pb5a5bd0zj7dlriygvmxpoj2d27gb,1YRhd0DX,2020-0188,2020-05-07,19:03:05,19:17:43,NA,incomplete,42,color,1,left,Purple_Star_Chess_3.jpg,Purple_Plus_Dots_4.jpg,Green_Star_Grid_2.jpg,left,487.9300000029616,true,low,NA,NA,NA,NA,NA,NA,NA,false
1YRhd0DX,3ka7ijsnx9iy5qpdnesn7gsg38gpb3,3pb5a5bd0zj7dlriygvmxpoj2d27gb,1YRhd0DX,2020-0188,2020-05-07,19:03:05,19:17:43,NA,incomplete,43,color,1,right,Green_Circle_Grid_4.jpg,Blue_Circle_Stripes_2.jpg,Green_Plus_Chess_1.jpg,right,559.3099999969127,true,low,NA,NA,NA,NA,NA,NA,NA,false
1YRhd0DX,3ka7ijsnx9iy5qpdnesn7gsg38gpb3,3pb5a5bd0zj7dlriygvmxpoj2d27gb,1YRhd0DX,2020-0188,2020-05-07,19:03:05,19:17:43,NA,incomplete,44,color,1,left,Red_Circle_Dots_4.jpg,Red_Star_Grid_3.jpg,Purple_Circle_Chess_1.jpg,left,460.91499998874497,true,low,NA,NA,NA,NA,NA,NA,NA,false
1YRhd0DX,3ka7ijsnx9iy5qpdnesn7gsg38gpb3,3pb5a5bd0zj7dlriygvmxpoj2d27gb,1YRhd0DX,2020-0188,2020-05-07,19:03:05,19:17:43,NA,incomplete,45,color,1,right,Purple_Circle_Stripes_4.jpg,Blue_Circle_Chess_2.jpg,Purple_Triangle_Grid_1.jpg,right,465.7500000030268,true,low,NA,NA,NA,NA,NA,NA,NA,false
1YRhd0DX,3ka7ijsnx9iy5qpdnesn7gsg38gpb3,3pb5a5bd0zj7dlriygvmxpoj2d27gb,1YRhd0DX,2020-0188,2020-05-07,19:03:05,19:17:43,NA,incomplete,46,color,1,right,Green_Star_Dots_1.jpg,Red_Star_Grid_2.jpg,Green_Triangle_Chess_4.jpg,right,535.7549999898765,true,low,NA,NA,NA,NA,NA,NA,NA,false
1YRhd0DX,3ka7ijsnx9iy5qpdnesn7gsg38gpb3,3pb5a5bd0zj7dlriygvmxpoj2d27gb,1YRhd0DX,2020-0188,2020-05-07,19:03:05,19:17:43,NA,incomplete,47,color,1,left,Purple_Triangle_Chess_4.jpg,Purple_Plus_Grid_1.jpg,Blue_Triangle_Stripes_2.jpg,left,505.99000000511296,true,low,NA,NA,NA,NA,NA,NA,NA,false
1YRhd0DX,3ka7ijsnx9iy5qpdnesn7gsg38gpb3,3pb5a5bd0zj7dlriygvmxpoj2d27gb,1YRhd0DX,2020-0188,2020-05-07,19:03:05,19:17:43,NA,incomplete,48,color,1,right,Red_Circle_Chess_1.jpg,Purple_Circle_Stripes_3.jpg,Red_Triangle_Dots_4.jpg,right,494.74999999802094,true,low,NA,NA,NA,NA,NA,NA,NA,false
1YRhd0DX,3ka7ijsnx9iy5qpdnesn7gsg38gpb3,3pb5a5bd0zj7dlriygvmxpoj2d27gb,1YRhd0DX,2020-0188,2020-05-07,19:03:05,19:17:43,NA,incomplete,49,color,1,right,Blue_Circle_Stripes_2.jpg,Green_Circle_Dots_1.jpg,Blue_Triangle_Chess_4.jpg,right,557.6300000102492,true,low,NA,NA,NA,NA,NA,NA,NA,false
1YRhd0DX,3ka7ijsnx9iy5qpdnesn7gsg38gpb3,3pb5a5bd0zj7dlriygvmxpoj2d27gb,1YRhd0DX,2020-0188,2020-05-07,19:03:05,19:17:43,NA,incomplete,50,color,1,left,Purple_Triangle_Chess_1.jpg,Purple_Circle_Dots_4.jpg,Green_Triangle_Grid_3.jpg,left,512.300000002142,true,low,NA,NA,NA,NA,NA,NA,NA,false
1YRhd0DX,3ka7ijsnx9iy5qpdnesn7gsg38gpb3,3pb5a5bd0zj7dlriygvmxpoj2d27gb,1YRhd0DX,2020-0188,2020-05-07,19:03:05,19:17:43,NA,incomplete,51,color,1,right,Green_Star_Dots_4.jpg,Blue_Star_Grid_3.jpg,Green_Circle_Stripes_2.jpg,right,493.19500000274274,true,low,NA,NA,NA,NA,NA,NA,NA,false
1YRhd0DX,3ka7ijsnx9iy5qpdnesn7gsg38gpb3,3pb5a5bd0zj7dlriygvmxpoj2d27gb,1YRhd0DX,2020-0188,2020-05-07,19:03:05,19:17:43,NA,incomplete,52,color,1,right,Blue_Triangle_Stripes_3.jpg,Red_Triangle_Chess_2.jpg,Blue_Star_Grid_1.jpg,right,509.7700000042096,true,low,NA,NA,NA,NA,NA,NA,NA,false
1YRhd0DX,3ka7ijsnx9iy5qpdnesn7gsg38gpb3,3pb5a5bd0zj7dlriygvmxpoj2d27gb,1YRhd0DX,2020-0188,2020-05-07,19:03:05,19:17:43,NA,incomplete,53,color,0,right,Green_Circle_Dots_3.jpg,Red_Circle_Chess_1.jpg,Green_Plus_Grid_2.jpg,right,408.3049999899231,true,low,NA,NA,NA,NA,NA,NA,NA,false
1YRhd0DX,3ka7ijsnx9iy5qpdnesn7gsg38gpb3,3pb5a5bd0zj7dlriygvmxpoj2d27gb,1YRhd0DX,2020-0188,2020-05-07,19:03:05,19:17:43,NA,incomplete,54,color,1,left,Red_Circle_Dots_1.jpg,Red_Star_Grid_3.jpg,Green_Circle_Stripes_4.jpg,left,607.3200000100769,true,low,NA,NA,NA,NA,NA,NA,NA,false
1YRhd0DX,3ka7ijsnx9iy5qpdnesn7gsg38gpb3,3pb5a5bd0zj7dlriygvmxpoj2d27gb,1YRhd0DX,2020-0188,2020-05-07,19:03:05,19:17:43,NA,incomplete,55,color,1,right,Red_Star_Dots_4.jpg,Purple_Star_Stripes_1.jpg,Red_Circle_Chess_3.jpg,right,557.7800000028219,true,low,NA,NA,NA,NA,NA,NA,NA,false
1YRhd0DX,3ka7ijsnx9iy5qpdnesn7gsg38gpb3,3pb5a5bd0zj7dlriygvmxpoj2d27gb,1YRhd0DX,2020-0188,2020-05-07,19:03:05,19:17:43,NA,incomplete,56,color,0,right,Red_Triangle_Grid_3.jpg,Green_Triangle_Stripes_1.jpg,Red_Circle_Dots_2.jpg,right,422.5999999907799,true,low,NA,NA,NA,NA,NA,NA,NA,false
1YRhd0DX,3ka7ijsnx9iy5qpdnesn7gsg38gpb3,3pb5a5bd0zj7dlriygvmxpoj2d27gb,1YRhd0DX,2020-0188,2020-05-07,19:03:05,19:17:43,NA,incomplete,57,color,1,right,Purple_Circle_Chess_1.jpg,Blue_Circle_Dots_2.jpg,Purple_Star_Stripes_4.jpg,right,556.0300000070129,true,low,NA,NA,NA,NA,NA,NA,NA,false
1YRhd0DX,3ka7ijsnx9iy5qpdnesn7gsg38gpb3,3pb5a5bd0zj7dlriygvmxpoj2d27gb,1YRhd0DX,2020-0188,2020-05-07,19:03:05,19:17:43,NA,incomplete,58,color,0,right,Green_Circle_Dots_1.jpg,Blue_Circle_Chess_2.jpg,Green_Star_Grid_4.jpg,right,507.8499999945052,true,low,NA,NA,NA,NA,NA,NA,NA,false
1YRhd0DX,3ka7ijsnx9iy5qpdnesn7gsg38gpb3,3pb5a5bd0zj7dlriygvmxpoj2d27gb,1YRhd0DX,2020-0188,2020-05-07,19:03:05,19:17:43,NA,incomplete,59,color,1,left,Purple_Triangle_Chess_1.jpg,Purple_Plus_Dots_3.jpg,Red_Triangle_Grid_4.jpg,right,1023.670000009588,false,low,NA,NA,NA,NA,NA,NA,NA,false
1YRhd0DX,3ka7ijsnx9iy5qpdnesn7gsg38gpb3,3pb5a5bd0zj7dlriygvmxpoj2d27gb,1YRhd0DX,2020-0188,2020-05-07,19:03:05,19:17:43,NA,incomplete,60,shape,1,right,Red_Star_Dots_1.jpg,Red_Plus_Stripes_4.jpg,Purple_Star_Chess_2.jpg,right,800.8949999930337,true,low,NA,NA,NA,NA,NA,NA,NA,false
1YRhd0DX,3ka7ijsnx9iy5qpdnesn7gsg38gpb3,3pb5a5bd0zj7dlriygvmxpoj2d27gb,1YRhd0DX,2020-0188,2020-05-07,19:03:05,19:17:43,NA,incomplete,61,shape,1,left,Red_Plus_Dots_3.jpg,Purple_Plus_Chess_2.jpg,Red_Star_Grid_1.jpg,left,811.3549999980023,true,low,NA,NA,NA,NA,NA,NA,NA,false
1YRhd0DX,3ka7ijsnx9iy5qpdnesn7gsg38gpb3,3pb5a5bd0zj7dlriygvmxpoj2d27gb,1YRhd0DX,2020-0188,2020-05-07,19:03:05,19:17:43,NA,incomplete,62,shape,1,left,Green_Circle_Grid_4.jpg,Blue_Circle_Dots_3.jpg,Green_Plus_Chess_1.jpg,left,695.5099999904633,true,low,NA,NA,NA,NA,NA,NA,NA,false
1YRhd0DX,3ka7ijsnx9iy5qpdnesn7gsg38gpb3,3pb5a5bd0zj7dlriygvmxpoj2d27gb,1YRhd0DX,2020-0188,2020-05-07,19:03:05,19:17:43,NA,incomplete,63,shape,1,left,Purple_Triangle_Stripes_3.jpg,Red_Triangle_Grid_1.jpg,Purple_Circle_Chess_4.jpg,right,598.6149999953341,false,low,NA,NA,NA,NA,NA,NA,NA,false
1YRhd0DX,3ka7ijsnx9iy5qpdnesn7gsg38gpb3,3pb5a5bd0zj7dlriygvmxpoj2d27gb,1YRhd0DX,2020-0188,2020-05-07,19:03:05,19:17:43,NA,incomplete,64,shape,1,right,Blue_Triangle_Chess_4.jpg,Blue_Plus_Grid_2.jpg,Green_Triangle_Stripes_1.jpg,right,1018.4750000044005,true,low,NA,NA,NA,NA,NA,NA,NA,false
1YRhd0DX,3ka7ijsnx9iy5qpdnesn7gsg38gpb3,3pb5a5bd0zj7dlriygvmxpoj2d27gb,1YRhd0DX,2020-0188,2020-05-07,19:03:05,19:17:43,NA,incomplete,65,shape,1,right,Red_Star_Dots_2.jpg,Red_Plus_Stripes_3.jpg,Purple_Star_Grid_1.jpg,right,832.4500000016997,true,low,NA,NA,NA,NA,NA,NA,NA,false
1YRhd0DX,3ka7ijsnx9iy5qpdnesn7gsg38gpb3,3pb5a5bd0zj7dlriygvmxpoj2d27gb,1YRhd0DX,2020-0188,2020-05-07,19:03:05,19:17:43,NA,incomplete,66,shape,1,right,Red_Triangle_Grid_3.jpg,Red_Circle_Dots_1.jpg,Green_Triangle_Stripes_4.jpg,right,693.72999999905,true,low,NA,NA,NA,NA,NA,NA,NA,false
1YRhd0DX,3ka7ijsnx9iy5qpdnesn7gsg38gpb3,3pb5a5bd0zj7dlriygvmxpoj2d27gb,1YRhd0DX,2020-0188,2020-05-07,19:03:05,19:17:43,NA,incomplete,67,shape,1,left,Green_Circle_Stripes_1.jpg,Blue_Circle_Chess_4.jpg,Green_Plus_Dots_2.jpg,left,582.0050000038464,true,low,NA,NA,NA,NA,NA,NA,NA,false
1YRhd0DX,3ka7ijsnx9iy5qpdnesn7gsg38gpb3,3pb5a5bd0zj7dlriygvmxpoj2d27gb,1YRhd0DX,2020-0188,2020-05-07,19:03:05,19:17:43,NA,incomplete,68,shape,1,right,Red_Triangle_Dots_4.jpg,Red_Star_Stripes_3.jpg,Purple_Triangle_Chess_2.jpg,right,588.4050000022398,true,low,NA,NA,NA,NA,NA,NA,NA,false
1YRhd0DX,3ka7ijsnx9iy5qpdnesn7gsg38gpb3,3pb5a5bd0zj7dlriygvmxpoj2d27gb,1YRhd0DX,2020-0188,2020-05-07,19:03:05,19:17:43,NA,incomplete,69,shape,0,left,Green_Star_Dots_2.jpg,Purple_Star_Chess_4.jpg,Green_Plus_Grid_3.jpg,left,668.7850000016624,true,low,NA,NA,NA,NA,NA,NA,NA,false
1YRhd0DX,3ka7ijsnx9iy5qpdnesn7gsg38gpb3,3pb5a5bd0zj7dlriygvmxpoj2d27gb,1YRhd0DX,2020-0188,2020-05-07,19:03:05,19:17:43,NA,incomplete,70,shape,1,right,Purple_Plus_Grid_4.jpg,Purple_Triangle_Dots_1.jpg,Green_Plus_Stripes_2.jpg,right,667.2249999974156,true,low,NA,NA,NA,NA,NA,NA,NA,false
1YRhd0DX,3ka7ijsnx9iy5qpdnesn7gsg38gpb3,3pb5a5bd0zj7dlriygvmxpoj2d27gb,1YRhd0DX,2020-0188,2020-05-07,19:03:05,19:17:43,NA,incomplete,71,shape,0,left,Blue_Plus_Dots_2.jpg,Purple_Plus_Chess_4.jpg,Blue_Triangle_Stripes_1.jpg,left,727.4100000067847,true,low,NA,NA,NA,NA,NA,NA,NA,false
1YRhd0DX,3ka7ijsnx9iy5qpdnesn7gsg38gpb3,3pb5a5bd0zj7dlriygvmxpoj2d27gb,1YRhd0DX,2020-0188,2020-05-07,19:03:05,19:17:43,NA,incomplete,72,shape,1,right,Purple_Star_Dots_2.jpg,Purple_Plus_Chess_4.jpg,Red_Star_Grid_3.jpg,left,645.4500000108965,false,low,NA,NA,NA,NA,NA,NA,NA,false
1YRhd0DX,3ka7ijsnx9iy5qpdnesn7gsg38gpb3,3pb5a5bd0zj7dlriygvmxpoj2d27gb,1YRhd0DX,2020-0188,2020-05-07,19:03:05,19:17:43,NA,incomplete,73,shape,1,left,Blue_Triangle_Chess_1.jpg,Red_Triangle_Stripes_2.jpg,Blue_Star_Dots_4.jpg,right,598.2450000010431,false,low,NA,NA,NA,NA,NA,NA,NA,false
1YRhd0DX,3ka7ijsnx9iy5qpdnesn7gsg38gpb3,3pb5a5bd0zj7dlriygvmxpoj2d27gb,1YRhd0DX,2020-0188,2020-05-07,19:03:05,19:17:43,NA,incomplete,74,shape,1,right,Green_Plus_Stripes_2.jpg,Green_Circle_Dots_4.jpg,Blue_Plus_Chess_3.jpg,right,814.33000000834,true,low,NA,NA,NA,NA,NA,NA,NA,false
1YRhd0DX,3ka7ijsnx9iy5qpdnesn7gsg38gpb3,3pb5a5bd0zj7dlriygvmxpoj2d27gb,1YRhd0DX,2020-0188,2020-05-07,19:03:05,19:17:43,NA,incomplete,75,shape,1,left,Purple_Circle_Dots_4.jpg,Red_Circle_Chess_3.jpg,Purple_Star_Stripes_2.jpg,left,592.5749999878462,true,low,NA,NA,NA,NA,NA,NA,NA,false
1YRhd0DX,3ka7ijsnx9iy5qpdnesn7gsg38gpb3,3pb5a5bd0zj7dlriygvmxpoj2d27gb,1YRhd0DX,2020-0188,2020-05-07,19:03:05,19:17:43,NA,incomplete,76,shape,0,left,Red_Star_Dots_3.jpg,Green_Star_Grid_1.jpg,Red_Triangle_Stripes_2.jpg,left,729.8350000055507,true,low,NA,NA,NA,NA,NA,NA,NA,false
1YRhd0DX,3ka7ijsnx9iy5qpdnesn7gsg38gpb3,3pb5a5bd0zj7dlriygvmxpoj2d27gb,1YRhd0DX,2020-0188,2020-05-07,19:03:05,19:17:43,NA,incomplete,77,shape,1,right,Red_Triangle_Chess_1.jpg,Red_Circle_Stripes_2.jpg,Blue_Triangle_Grid_4.jpg,right,550.6699999968987,true,low,NA,NA,NA,NA,NA,NA,NA,false
1YRhd0DX,3ka7ijsnx9iy5qpdnesn7gsg38gpb3,3pb5a5bd0zj7dlriygvmxpoj2d27gb,1YRhd0DX,2020-0188,2020-05-07,19:03:05,19:17:43,NA,incomplete,78,shape,0,right,Purple_Triangle_Stripes_3.jpg,Purple_Star_Dots_2.jpg,Green_Triangle_Grid_1.jpg,right,668.0149999883724,true,low,NA,NA,NA,NA,NA,NA,NA,false
1YRhd0DX,3ka7ijsnx9iy5qpdnesn7gsg38gpb3,3pb5a5bd0zj7dlriygvmxpoj2d27gb,1YRhd0DX,2020-0188,2020-05-07,19:03:05,19:17:43,NA,incomplete,79,shape,1,left,Purple_Circle_Grid_2.jpg,Green_Circle_Chess_1.jpg,Purple_Plus_Stripes_4.jpg,left,907.0150000043213,true,low,NA,NA,NA,NA,NA,NA,NA,false
1YRhd0DX,3ka7ijsnx9iy5qpdnesn7gsg38gpb3,3pb5a5bd0zj7dlriygvmxpoj2d27gb,1YRhd0DX,2020-0188,2020-05-07,19:03:05,19:17:43,NA,incomplete,80,shape,1,left,Red_Star_Stripes_1.jpg,Green_Star_Chess_3.jpg,Red_Triangle_Grid_2.jpg,left,651.0499999858439,true,low,NA,NA,NA,NA,NA,NA,NA,false
1YRhd0DX,3ka7ijsnx9iy5qpdnesn7gsg38gpb3,3pb5a5bd0zj7dlriygvmxpoj2d27gb,1YRhd0DX,2020-0188,2020-05-07,19:03:05,19:17:43,NA,incomplete,81,shape,1,right,Blue_Plus_Dots_3.jpg,Blue_Circle_Stripes_2.jpg,Red_Plus_Grid_1.jpg,right,721.6900000057649,true,low,NA,NA,NA,NA,NA,NA,NA,false
1YRhd0DX,3ka7ijsnx9iy5qpdnesn7gsg38gpb3,3pb5a5bd0zj7dlriygvmxpoj2d27gb,1YRhd0DX,2020-0188,2020-05-07,19:03:05,19:17:43,NA,incomplete,82,shape,0,right,Blue_Plus_Dots_1.jpg,Blue_Circle_Grid_4.jpg,Purple_Plus_Stripes_2.jpg,right,684.4500000006519,true,low,NA,NA,NA,NA,NA,NA,NA,false
1YRhd0DX,3ka7ijsnx9iy5qpdnesn7gsg38gpb3,3pb5a5bd0zj7dlriygvmxpoj2d27gb,1YRhd0DX,2020-0188,2020-05-07,19:03:05,19:17:43,NA,incomplete,83,shape,1,left,Purple_Circle_Stripes_3.jpg,Blue_Circle_Grid_1.jpg,Purple_Triangle_Chess_2.jpg,left,644.6900000009919,true,low,NA,NA,NA,NA,NA,NA,NA,false
1YRhd0DX,3ka7ijsnx9iy5qpdnesn7gsg38gpb3,3pb5a5bd0zj7dlriygvmxpoj2d27gb,1YRhd0DX,2020-0188,2020-05-07,19:03:05,19:17:43,NA,incomplete,84,shape,1,left,Blue_Star_Grid_2.jpg,Green_Star_Chess_1.jpg,Blue_Plus_Dots_4.jpg,left,637.1050000016112,true,low,NA,NA,NA,NA,NA,NA,NA,false
1YRhd0DX,3ka7ijsnx9iy5qpdnesn7gsg38gpb3,3pb5a5bd0zj7dlriygvmxpoj2d27gb,1YRhd0DX,2020-0188,2020-05-07,19:03:05,19:17:43,NA,incomplete,85,shape,1,left,Blue_Star_Chess_1.jpg,Purple_Star_Dots_3.jpg,Blue_Plus_Grid_4.jpg,left,652.1899999934249,true,low,NA,NA,NA,NA,NA,NA,NA,false
1YRhd0DX,3ka7ijsnx9iy5qpdnesn7gsg38gpb3,3pb5a5bd0zj7dlriygvmxpoj2d27gb,1YRhd0DX,2020-0188,2020-05-07,19:03:05,19:17:43,NA,incomplete,86,shape,1,left,Green_Plus_Chess_1.jpg,Blue_Plus_Grid_2.jpg,Green_Circle_Dots_3.jpg,left,740.6799999880604,true,low,NA,NA,NA,NA,NA,NA,NA,false
1YRhd0DX,3ka7ijsnx9iy5qpdnesn7gsg38gpb3,3pb5a5bd0zj7dlriygvmxpoj2d27gb,1YRhd0DX,2020-0188,2020-05-07,19:03:05,19:17:43,NA,incomplete,87,shape,1,right,Blue_Circle_Chess_1.jpg,Blue_Plus_Dots_3.jpg,Green_Circle_Grid_4.jpg,right,524.2049999942537,true,low,NA,NA,NA,NA,NA,NA,NA,false
1YRhd0DX,3ka7ijsnx9iy5qpdnesn7gsg38gpb3,3pb5a5bd0zj7dlriygvmxpoj2d27gb,1YRhd0DX,2020-0188,2020-05-07,19:03:05,19:17:43,NA,incomplete,88,shape,0,right,Blue_Star_Stripes_1.jpg,Blue_Plus_Grid_2.jpg,Red_Star_Chess_3.jpg,left,479.29000000294764,false,low,NA,NA,NA,NA,NA,NA,NA,false
1YRhd0DX,3ka7ijsnx9iy5qpdnesn7gsg38gpb3,3pb5a5bd0zj7dlriygvmxpoj2d27gb,1YRhd0DX,2020-0188,2020-05-07,19:03:05,19:17:43,NA,incomplete,89,shape,0,left,Purple_Triangle_Stripes_1.jpg,Green_Triangle_Grid_2.jpg,Purple_Plus_Chess_3.jpg,left,867.9449999908684,true,low,NA,NA,NA,NA,NA,NA,NA,false
1YRhd0DX,3ka7ijsnx9iy5qpdnesn7gsg38gpb3,3pb5a5bd0zj7dlriygvmxpoj2d27gb,1YRhd0DX,2020-0188,2020-05-07,19:03:05,19:17:43,NA,incomplete,90,color,1,left,Red_Triangle_Chess_1.jpg,Red_Star_Stripes_2.jpg,Blue_Triangle_Grid_4.jpg,left,590.3350000007777,true,low,NA,NA,NA,NA,NA,NA,NA,false
1YRhd0DX,3ka7ijsnx9iy5qpdnesn7gsg38gpb3,3pb5a5bd0zj7dlriygvmxpoj2d27gb,1YRhd0DX,2020-0188,2020-05-07,19:03:05,19:17:43,NA,incomplete,91,color,1,right,Blue_Circle_Dots_2.jpg,Red_Circle_Chess_1.jpg,Blue_Star_Grid_3.jpg,right,572.520000001532,true,low,NA,NA,NA,NA,NA,NA,NA,false
1YRhd0DX,3ka7ijsnx9iy5qpdnesn7gsg38gpb3,3pb5a5bd0zj7dlriygvmxpoj2d27gb,1YRhd0DX,2020-0188,2020-05-07,19:03:05,19:17:43,NA,incomplete,92,color,1,right,Purple_Triangle_Dots_1.jpg,Red_Triangle_Chess_3.jpg,Purple_Plus_Stripes_2.jpg,right,610.4400000040187,true,low,NA,NA,NA,NA,NA,NA,NA,false
1YRhd0DX,3ka7ijsnx9iy5qpdnesn7gsg38gpb3,3pb5a5bd0zj7dlriygvmxpoj2d27gb,1YRhd0DX,2020-0188,2020-05-07,19:03:05,19:17:43,NA,incomplete,93,color,1,left,Red_Plus_Stripes_2.jpg,Red_Star_Grid_1.jpg,Blue_Plus_Chess_3.jpg,left,462.81500000623055,true,low,NA,NA,NA,NA,NA,NA,NA,false
1YRhd0DX,3ka7ijsnx9iy5qpdnesn7gsg38gpb3,3pb5a5bd0zj7dlriygvmxpoj2d27gb,1YRhd0DX,2020-0188,2020-05-07,19:03:05,19:17:43,NA,incomplete,94,color,1,right,Green_Triangle_Dots_4.jpg,Purple_Triangle_Stripes_3.jpg,Green_Circle_Grid_1.jpg,right,466.35499999683816,true,low,NA,NA,NA,NA,NA,NA,NA,false
1YRhd0DX,3ka7ijsnx9iy5qpdnesn7gsg38gpb3,3pb5a5bd0zj7dlriygvmxpoj2d27gb,1YRhd0DX,2020-0188,2020-05-07,19:03:05,19:17:43,NA,incomplete,95,color,1,right,Purple_Circle_Grid_1.jpg,Green_Circle_Chess_3.jpg,Purple_Star_Dots_2.jpg,right,543.4799999929965,true,low,NA,NA,NA,NA,NA,NA,NA,false
1YRhd0DX,3ka7ijsnx9iy5qpdnesn7gsg38gpb3,3pb5a5bd0zj7dlriygvmxpoj2d27gb,1YRhd0DX,2020-0188,2020-05-07,19:03:05,19:17:43,NA,incomplete,96,color,0,right,Green_Triangle_Chess_4.jpg,Purple_Triangle_Stripes_1.jpg,Green_Plus_Dots_2.jpg,right,557.9100000031758,true,low,NA,NA,NA,NA,NA,NA,NA,false
1YRhd0DX,3ka7ijsnx9iy5qpdnesn7gsg38gpb3,3pb5a5bd0zj7dlriygvmxpoj2d27gb,1YRhd0DX,2020-0188,2020-05-07,19:03:05,19:17:43,NA,incomplete,97,color,0,right,Purple_Star_Stripes_4.jpg,Blue_Star_Grid_1.jpg,Purple_Circle_Chess_3.jpg,right,461.8099999934202,true,low,NA,NA,NA,NA,NA,NA,NA,false
1YRhd0DX,3ka7ijsnx9iy5qpdnesn7gsg38gpb3,3pb5a5bd0zj7dlriygvmxpoj2d27gb,1YRhd0DX,2020-0188,2020-05-07,19:03:05,19:17:43,NA,incomplete,98,color,1,left,Red_Plus_Grid_2.jpg,Red_Circle_Dots_4.jpg,Blue_Plus_Stripes_3.jpg,right,708.2999999984168,false,low,NA,NA,NA,NA,NA,NA,NA,false
1YRhd0DX,3ka7ijsnx9iy5qpdnesn7gsg38gpb3,3pb5a5bd0zj7dlriygvmxpoj2d27gb,1YRhd0DX,2020-0188,2020-05-07,19:03:05,19:17:43,NA,incomplete,99,color,1,right,Red_Star_Chess_1.jpg,Green_Star_Grid_2.jpg,Red_Triangle_Stripes_3.jpg,right,661.2549999990733,true,low,NA,NA,NA,NA,NA,NA,NA,false
1YRhd0DX,3ka7ijsnx9iy5qpdnesn7gsg38gpb3,3pb5a5bd0zj7dlriygvmxpoj2d27gb,1YRhd0DX,2020-0188,2020-05-07,19:03:05,19:17:43,NA,incomplete,100,color,1,left,Blue_Plus_Dots_2.jpg,Blue_Circle_Chess_1.jpg,Green_Plus_Grid_4.jpg,left,482.64000000199303,true,low,NA,NA,NA,NA,NA,NA,NA,false
1YRhd0DX,3ka7ijsnx9iy5qpdnesn7gsg38gpb3,3pb5a5bd0zj7dlriygvmxpoj2d27gb,1YRhd0DX,2020-0188,2020-05-07,19:03:05,19:17:43,NA,incomplete,101,color,1,right,Blue_Plus_Chess_4.jpg,Red_Plus_Grid_2.jpg,Blue_Star_Dots_3.jpg,right,543.7550000060583,true,low,NA,NA,NA,NA,NA,NA,NA,false
1YRhd0DX,3ka7ijsnx9iy5qpdnesn7gsg38gpb3,3pb5a5bd0zj7dlriygvmxpoj2d27gb,1YRhd0DX,2020-0188,2020-05-07,19:03:05,19:17:43,NA,incomplete,102,color,0,left,Red_Star_Chess_2.jpg,Red_Circle_Stripes_4.jpg,Blue_Star_Grid_3.jpg,left,533.3900000114227,true,low,NA,NA,NA,NA,NA,NA,NA,false
1YRhd0DX,3ka7ijsnx9iy5qpdnesn7gsg38gpb3,3pb5a5bd0zj7dlriygvmxpoj2d27gb,1YRhd0DX,2020-0188,2020-05-07,19:03:05,19:17:43,NA,incomplete,103,color,1,right,Purple_Plus_Dots_3.jpg,Red_Plus_Stripes_2.jpg,Purple_Star_Grid_1.jpg,right,647.7250000025379,true,low,NA,NA,NA,NA,NA,NA,NA,false
1YRhd0DX,3ka7ijsnx9iy5qpdnesn7gsg38gpb3,3pb5a5bd0zj7dlriygvmxpoj2d27gb,1YRhd0DX,2020-0188,2020-05-07,19:03:05,19:17:43,NA,incomplete,104,color,0,right,Blue_Star_Stripes_1.jpg,Green_Star_Chess_3.jpg,Blue_Circle_Grid_2.jpg,right,577.2550000110641,true,low,NA,NA,NA,NA,NA,NA,NA,false
1YRhd0DX,3ka7ijsnx9iy5qpdnesn7gsg38gpb3,3pb5a5bd0zj7dlriygvmxpoj2d27gb,1YRhd0DX,2020-0188,2020-05-07,19:03:05,19:17:43,NA,incomplete,105,color,1,right,Purple_Plus_Dots_4.jpg,Red_Plus_Grid_1.jpg,Purple_Star_Stripes_3.jpg,left,666.7249999882188,false,low,NA,NA,NA,NA,NA,NA,NA,false
1YRhd0DX,3ka7ijsnx9iy5qpdnesn7gsg38gpb3,3pb5a5bd0zj7dlriygvmxpoj2d27gb,1YRhd0DX,2020-0188,2020-05-07,19:03:05,19:17:43,NA,incomplete,106,color,1,left,Blue_Plus_Chess_2.jpg,Blue_Circle_Grid_1.jpg,Red_Plus_Stripes_4.jpg,right,771.5299999981653,false,low,NA,NA,NA,NA,NA,NA,NA,false
1YRhd0DX,3ka7ijsnx9iy5qpdnesn7gsg38gpb3,3pb5a5bd0zj7dlriygvmxpoj2d27gb,1YRhd0DX,2020-0188,2020-05-07,19:03:05,19:17:43,NA,incomplete,107,color,0,right,Blue_Triangle_Grid_3.jpg,Purple_Triangle_Chess_1.jpg,Blue_Circle_Stripes_2.jpg,right,560.5749999958789,true,low,NA,NA,NA,NA,NA,NA,NA,false
1YRhd0DX,3ka7ijsnx9iy5qpdnesn7gsg38gpb3,3pb5a5bd0zj7dlriygvmxpoj2d27gb,1YRhd0DX,2020-0188,2020-05-07,19:03:05,19:17:43,NA,incomplete,108,color,1,right,Red_Circle_Dots_3.jpg,Purple_Circle_Stripes_1.jpg,Red_Triangle_Chess_4.jpg,right,579.9650000117254,true,low,NA,NA,NA,NA,NA,NA,NA,false
1YRhd0DX,3ka7ijsnx9iy5qpdnesn7gsg38gpb3,3pb5a5bd0zj7dlriygvmxpoj2d27gb,1YRhd0DX,2020-0188,2020-05-07,19:03:05,19:17:43,NA,incomplete,109,color,1,right,Red_Star_Stripes_3.jpg,Blue_Star_Dots_4.jpg,Red_Triangle_Chess_2.jpg,right,602.0850000058999,true,low,NA,NA,NA,NA,NA,NA,NA,false
1YRhd0DX,3ka7ijsnx9iy5qpdnesn7gsg38gpb3,3pb5a5bd0zj7dlriygvmxpoj2d27gb,1YRhd0DX,2020-0188,2020-05-07,19:03:05,19:17:43,NA,incomplete,110,color,1,right,Blue_Triangle_Chess_3.jpg,Purple_Triangle_Stripes_1.jpg,Blue_Plus_Grid_4.jpg,right,484.84499999904074,true,low,NA,NA,NA,NA,NA,NA,NA,false
1YRhd0DX,3ka7ijsnx9iy5qpdnesn7gsg38gpb3,3pb5a5bd0zj7dlriygvmxpoj2d27gb,1YRhd0DX,2020-0188,2020-05-07,19:03:05,19:17:43,NA,incomplete,111,color,0,right,Purple_Circle_Dots_4.jpg,Red_Circle_Grid_3.jpg,Purple_Plus_Chess_2.jpg,right,480.72000000684056,true,low,NA,NA,NA,NA,NA,NA,NA,false
1YRhd0DX,3ka7ijsnx9iy5qpdnesn7gsg38gpb3,3pb5a5bd0zj7dlriygvmxpoj2d27gb,1YRhd0DX,2020-0188,2020-05-07,19:03:05,19:17:43,NA,incomplete,112,color,1,left,Purple_Plus_Grid_4.jpg,Purple_Circle_Dots_1.jpg,Red_Plus_Chess_2.jpg,left,842.7649999939604,true,low,NA,NA,NA,NA,NA,NA,NA,false
1YRhd0DX,3ka7ijsnx9iy5qpdnesn7gsg38gpb3,3pb5a5bd0zj7dlriygvmxpoj2d27gb,1YRhd0DX,2020-0188,2020-05-07,19:03:05,19:17:43,NA,incomplete,113,color,1,right,Red_Plus_Grid_2.jpg,Green_Plus_Stripes_1.jpg,Red_Circle_Chess_4.jpg,right,431.97499999951106,true,low,NA,NA,NA,NA,NA,NA,NA,false
1YRhd0DX,3ka7ijsnx9iy5qpdnesn7gsg38gpb3,3pb5a5bd0zj7dlriygvmxpoj2d27gb,1YRhd0DX,2020-0188,2020-05-07,19:03:05,19:17:43,NA,incomplete,114,color,1,right,Purple_Star_Grid_4.jpg,Red_Star_Chess_1.jpg,Purple_Plus_Dots_2.jpg,right,492.9450000054203,true,low,NA,NA,NA,NA,NA,NA,NA,false
1YRhd0DX,3ka7ijsnx9iy5qpdnesn7gsg38gpb3,3pb5a5bd0zj7dlriygvmxpoj2d27gb,1YRhd0DX,2020-0188,2020-05-07,19:03:05,19:17:43,NA,incomplete,115,color,1,left,Blue_Star_Dots_2.jpg,Blue_Plus_Grid_4.jpg,Green_Star_Stripes_1.jpg,left,453.98999999451917,true,low,NA,NA,NA,NA,NA,NA,NA,false
1YRhd0DX,3ka7ijsnx9iy5qpdnesn7gsg38gpb3,3pb5a5bd0zj7dlriygvmxpoj2d27gb,1YRhd0DX,2020-0188,2020-05-07,19:03:05,19:17:43,NA,incomplete,116,color,0,left,Purple_Plus_Grid_4.jpg,Purple_Star_Dots_3.jpg,Blue_Plus_Stripes_1.jpg,left,491.78500000562053,true,low,NA,NA,NA,NA,NA,NA,NA,false
1YRhd0DX,3ka7ijsnx9iy5qpdnesn7gsg38gpb3,3pb5a5bd0zj7dlriygvmxpoj2d27gb,1YRhd0DX,2020-0188,2020-05-07,19:03:05,19:17:43,NA,incomplete,117,color,1,left,Green_Plus_Stripes_1.jpg,Green_Circle_Dots_4.jpg,Red_Plus_Grid_2.jpg,left,515.7500000059372,true,low,NA,NA,NA,NA,NA,NA,NA,false
1YRhd0DX,3ka7ijsnx9iy5qpdnesn7gsg38gpb3,3pb5a5bd0zj7dlriygvmxpoj2d27gb,1YRhd0DX,2020-0188,2020-05-07,19:03:05,19:17:43,NA,incomplete,118,color,1,left,Red_Plus_Chess_2.jpg,Red_Triangle_Dots_4.jpg,Purple_Plus_Grid_1.jpg,left,525.1100000023143,true,low,NA,NA,NA,NA,NA,NA,NA,false
1YRhd0DX,3ka7ijsnx9iy5qpdnesn7gsg38gpb3,3pb5a5bd0zj7dlriygvmxpoj2d27gb,1YRhd0DX,2020-0188,2020-05-07,19:03:05,19:17:43,NA,incomplete,119,color,1,left,Purple_Circle_Dots_2.jpg,Purple_Triangle_Grid_4.jpg,Green_Circle_Chess_1.jpg,left,455.70999999472406,true,low,NA,NA,NA,NA,NA,NA,NA,false
1YRhd0DX,3ka7ijsnx9iy5qpdnesn7gsg38gpb3,3pb5a5bd0zj7dlriygvmxpoj2d27gb,1YRhd0DX,2020-0188,2020-05-07,19:03:05,19:17:43,NA,incomplete,120,shape,1,left,Blue_Plus_Grid_2.jpg,Red_Plus_Chess_1.jpg,Blue_Triangle_Stripes_3.jpg,right,506.2999999936437,false,low,NA,NA,NA,NA,NA,NA,NA,false
1YRhd0DX,3ka7ijsnx9iy5qpdnesn7gsg38gpb3,3pb5a5bd0zj7dlriygvmxpoj2d27gb,1YRhd0DX,2020-0188,2020-05-07,19:03:05,19:17:43,NA,incomplete,121,shape,1,right,Purple_Star_Grid_1.jpg,Purple_Circle_Dots_3.jpg,Blue_Star_Chess_2.jpg,left,447.3149999976158,false,low,NA,NA,NA,NA,NA,NA,NA,false
1YRhd0DX,3ka7ijsnx9iy5qpdnesn7gsg38gpb3,3pb5a5bd0zj7dlriygvmxpoj2d27gb,1YRhd0DX,2020-0188,2020-05-07,19:03:05,19:17:43,NA,incomplete,122,shape,1,left,Purple_Star_Chess_2.jpg,Red_Star_Stripes_3.jpg,Purple_Plus_Grid_4.jpg,right,543.020000011893,false,low,NA,NA,NA,NA,NA,NA,NA,false
1YRhd0DX,3ka7ijsnx9iy5qpdnesn7gsg38gpb3,3pb5a5bd0zj7dlriygvmxpoj2d27gb,1YRhd0DX,2020-0188,2020-05-07,19:03:05,19:17:43,NA,incomplete,123,shape,1,right,Red_Plus_Chess_4.jpg,Red_Star_Dots_2.jpg,Purple_Plus_Stripes_1.jpg,right,820.5549999984214,true,low,NA,NA,NA,NA,NA,NA,NA,false
1YRhd0DX,3ka7ijsnx9iy5qpdnesn7gsg38gpb3,3pb5a5bd0zj7dlriygvmxpoj2d27gb,1YRhd0DX,2020-0188,2020-05-07,19:03:05,19:17:43,NA,incomplete,124,shape,1,right,Green_Star_Dots_2.jpg,Green_Plus_Chess_4.jpg,Blue_Star_Grid_1.jpg,left,581.5250000014203,false,low,NA,NA,NA,NA,NA,NA,NA,false
1YRhd0DX,3ka7ijsnx9iy5qpdnesn7gsg38gpb3,3pb5a5bd0zj7dlriygvmxpoj2d27gb,1YRhd0DX,2020-0188,2020-05-07,19:03:05,19:17:43,NA,incomplete,125,shape,1,left,Blue_Circle_Stripes_3.jpg,Purple_Circle_Chess_2.jpg,Blue_Triangle_Dots_4.jpg,left,704.3249999987893,true,low,NA,NA,NA,NA,NA,NA,NA,false
1YRhd0DX,3ka7ijsnx9iy5qpdnesn7gsg38gpb3,3pb5a5bd0zj7dlriygvmxpoj2d27gb,1YRhd0DX,2020-0188,2020-05-07,19:03:05,19:17:43,NA,incomplete,126,shape,0,left,Blue_Triangle_Stripes_3.jpg,Green_Triangle_Chess_2.jpg,Blue_Circle_Grid_1.jpg,right,730.4950000107056,false,low,NA,NA,NA,NA,NA,NA,NA,false
1YRhd0DX,3ka7ijsnx9iy5qpdnesn7gsg38gpb3,3pb5a5bd0zj7dlriygvmxpoj2d27gb,1YRhd0DX,2020-0188,2020-05-07,19:03:05,19:17:43,NA,incomplete,127,shape,1,right,Green_Plus_Stripes_1.jpg,Green_Star_Dots_4.jpg,Blue_Plus_Grid_3.jpg,right,844.1349999920931,true,low,NA,NA,NA,NA,NA,NA,NA,false
1YRhd0DX,3ka7ijsnx9iy5qpdnesn7gsg38gpb3,3pb5a5bd0zj7dlriygvmxpoj2d27gb,1YRhd0DX,2020-0188,2020-05-07,19:03:05,19:17:43,NA,incomplete,128,shape,1,right,Purple_Plus_Chess_3.jpg,Purple_Triangle_Grid_1.jpg,Red_Plus_Dots_4.jpg,right,731.2899999960791,true,low,NA,NA,NA,NA,NA,NA,NA,false
1YRhd0DX,3ka7ijsnx9iy5qpdnesn7gsg38gpb3,3pb5a5bd0zj7dlriygvmxpoj2d27gb,1YRhd0DX,2020-0188,2020-05-07,19:03:05,19:17:43,NA,incomplete,129,shape,0,left,Red_Star_Grid_2.jpg,Green_Star_Stripes_3.jpg,Red_Plus_Chess_4.jpg,left,606.3050000084331,true,low,NA,NA,NA,NA,NA,NA,NA,false
1YRhd0DX,3ka7ijsnx9iy5qpdnesn7gsg38gpb3,3pb5a5bd0zj7dlriygvmxpoj2d27gb,1YRhd0DX,2020-0188,2020-05-07,19:03:05,19:17:43,NA,incomplete,130,shape,1,right,Red_Star_Chess_2.jpg,Red_Triangle_Grid_1.jpg,Green_Star_Stripes_3.jpg,right,712.3500000016065,true,low,NA,NA,NA,NA,NA,NA,NA,false
1YRhd0DX,3ka7ijsnx9iy5qpdnesn7gsg38gpb3,3pb5a5bd0zj7dlriygvmxpoj2d27gb,1YRhd0DX,2020-0188,2020-05-07,19:03:05,19:17:43,NA,incomplete,131,shape,1,right,Red_Triangle_Dots_2.jpg,Red_Circle_Grid_4.jpg,Purple_Triangle_Chess_3.jpg,right,938.190000000759,true,low,NA,NA,NA,NA,NA,NA,NA,false
1YRhd0DX,3ka7ijsnx9iy5qpdnesn7gsg38gpb3,3pb5a5bd0zj7dlriygvmxpoj2d27gb,1YRhd0DX,2020-0188,2020-05-07,19:03:05,19:17:43,NA,incomplete,132,shape,1,right,Purple_Triangle_Grid_3.jpg,Purple_Star_Dots_4.jpg,Red_Triangle_Chess_1.jpg,right,669.9850000004517,true,low,NA,NA,NA,NA,NA,NA,NA,false
1YRhd0DX,3ka7ijsnx9iy5qpdnesn7gsg38gpb3,3pb5a5bd0zj7dlriygvmxpoj2d27gb,1YRhd0DX,2020-0188,2020-05-07,19:03:05,19:17:43,NA,incomplete,133,shape,1,left,Purple_Circle_Chess_4.jpg,Blue_Circle_Dots_3.jpg,Purple_Triangle_Grid_2.jpg,left,573.8600000040606,true,low,NA,NA,NA,NA,NA,NA,NA,false
1YRhd0DX,3ka7ijsnx9iy5qpdnesn7gsg38gpb3,3pb5a5bd0zj7dlriygvmxpoj2d27gb,1YRhd0DX,2020-0188,2020-05-07,19:03:05,19:17:43,NA,incomplete,134,shape,0,right,Red_Circle_Chess_1.jpg,Red_Plus_Grid_4.jpg,Blue_Circle_Dots_3.jpg,right,592.0699999987846,true,low,NA,NA,NA,NA,NA,NA,NA,false
1YRhd0DX,3ka7ijsnx9iy5qpdnesn7gsg38gpb3,3pb5a5bd0zj7dlriygvmxpoj2d27gb,1YRhd0DX,2020-0188,2020-05-07,19:03:05,19:17:43,NA,incomplete,135,shape,1,right,Green_Star_Chess_4.jpg,Green_Triangle_Dots_1.jpg,Red_Star_Grid_3.jpg,right,759.6849999972619,true,low,NA,NA,NA,NA,NA,NA,NA,false
1YRhd0DX,3ka7ijsnx9iy5qpdnesn7gsg38gpb3,3pb5a5bd0zj7dlriygvmxpoj2d27gb,1YRhd0DX,2020-0188,2020-05-07,19:03:05,19:17:43,NA,incomplete,136,shape,1,left,Purple_Plus_Stripes_3.jpg,Red_Plus_Grid_2.jpg,Purple_Triangle_Chess_4.jpg,left,680.8950000122422,true,low,NA,NA,NA,NA,NA,NA,NA,false
1YRhd0DX,3ka7ijsnx9iy5qpdnesn7gsg38gpb3,3pb5a5bd0zj7dlriygvmxpoj2d27gb,1YRhd0DX,2020-0188,2020-05-07,19:03:05,19:17:43,NA,incomplete,137,shape,1,right,Red_Circle_Stripes_1.jpg,Red_Triangle_Chess_4.jpg,Blue_Circle_Dots_2.jpg,right,676.8050000100629,true,low,NA,NA,NA,NA,NA,NA,NA,false
1YRhd0DX,3ka7ijsnx9iy5qpdnesn7gsg38gpb3,3pb5a5bd0zj7dlriygvmxpoj2d27gb,1YRhd0DX,2020-0188,2020-05-07,19:03:05,19:17:43,NA,incomplete,138,shape,1,left,Blue_Star_Dots_1.jpg,Red_Star_Grid_2.jpg,Blue_Triangle_Stripes_3.jpg,left,694.9400000012247,true,low,NA,NA,NA,NA,NA,NA,NA,false
1YRhd0DX,3ka7ijsnx9iy5qpdnesn7gsg38gpb3,3pb5a5bd0zj7dlriygvmxpoj2d27gb,1YRhd0DX,2020-0188,2020-05-07,19:03:05,19:17:43,NA,incomplete,139,shape,0,right,Red_Circle_Grid_2.jpg,Red_Plus_Dots_1.jpg,Green_Circle_Stripes_3.jpg,right,729.0649999922607,true,low,NA,NA,NA,NA,NA,NA,NA,false
1YRhd0DX,3ka7ijsnx9iy5qpdnesn7gsg38gpb3,3pb5a5bd0zj7dlriygvmxpoj2d27gb,1YRhd0DX,2020-0188,2020-05-07,19:03:05,19:17:43,NA,incomplete,140,color,1,right,Red_Star_Chess_2.jpg,Green_Star_Stripes_1.jpg,Red_Triangle_Dots_3.jpg,left,822.119999997085,false,low,NA,NA,NA,NA,NA,NA,NA,false
1YRhd0DX,3ka7ijsnx9iy5qpdnesn7gsg38gpb3,3pb5a5bd0zj7dlriygvmxpoj2d27gb,1YRhd0DX,2020-0188,2020-05-07,19:03:05,19:17:43,NA,incomplete,141,color,1,right,Purple_Star_Grid_1.jpg,Green_Star_Chess_2.jpg,Purple_Triangle_Stripes_4.jpg,right,577.3800000024494,true,low,NA,NA,NA,NA,NA,NA,NA,false
1YRhd0DX,3ka7ijsnx9iy5qpdnesn7gsg38gpb3,3pb5a5bd0zj7dlriygvmxpoj2d27gb,1YRhd0DX,2020-0188,2020-05-07,19:03:05,19:17:43,NA,incomplete,142,color,1,right,Red_Plus_Dots_1.jpg,Blue_Plus_Grid_3.jpg,Red_Star_Chess_4.jpg,right,736.5800000115996,true,low,NA,NA,NA,NA,NA,NA,NA,false
1YRhd0DX,3ka7ijsnx9iy5qpdnesn7gsg38gpb3,3pb5a5bd0zj7dlriygvmxpoj2d27gb,1YRhd0DX,2020-0188,2020-05-07,19:03:05,19:17:43,NA,incomplete,143,color,1,left,Blue_Star_Dots_4.jpg,Blue_Circle_Chess_2.jpg,Red_Star_Grid_1.jpg,left,1002.1399999968708,true,low,NA,NA,NA,NA,NA,NA,NA,false
1YRhd0DX,3ka7ijsnx9iy5qpdnesn7gsg38gpb3,3pb5a5bd0zj7dlriygvmxpoj2d27gb,1YRhd0DX,2020-0188,2020-05-07,19:03:05,19:17:43,NA,incomplete,144,color,0,left,Green_Circle_Stripes_3.jpg,Green_Star_Chess_4.jpg,Blue_Circle_Grid_1.jpg,left,772.3100000002887,true,low,NA,NA,NA,NA,NA,NA,NA,false
1YRhd0DX,3ka7ijsnx9iy5qpdnesn7gsg38gpb3,3pb5a5bd0zj7dlriygvmxpoj2d27gb,1YRhd0DX,2020-0188,2020-05-07,19:03:05,19:17:43,NA,incomplete,145,color,1,left,Green_Circle_Stripes_2.jpg,Green_Triangle_Chess_1.jpg,Red_Circle_Grid_4.jpg,right,714.9849999987055,false,low,NA,NA,NA,NA,NA,NA,NA,false
1YRhd0DX,3ka7ijsnx9iy5qpdnesn7gsg38gpb3,3pb5a5bd0zj7dlriygvmxpoj2d27gb,1YRhd0DX,2020-0188,2020-05-07,19:03:05,19:17:43,NA,incomplete,146,color,0,left,Green_Triangle_Grid_4.jpg,Green_Circle_Chess_2.jpg,Blue_Triangle_Stripes_1.jpg,left,618.705000000773,true,low,NA,NA,NA,NA,NA,NA,NA,false
1YRhd0DX,3ka7ijsnx9iy5qpdnesn7gsg38gpb3,3pb5a5bd0zj7dlriygvmxpoj2d27gb,1YRhd0DX,2020-0188,2020-05-07,19:03:05,19:17:43,NA,incomplete,147,color,1,left,Red_Plus_Dots_4.jpg,Red_Triangle_Chess_2.jpg,Purple_Plus_Stripes_3.jpg,left,645.9250000043539,true,low,NA,NA,NA,NA,NA,NA,NA,false
1YRhd0DX,3ka7ijsnx9iy5qpdnesn7gsg38gpb3,3pb5a5bd0zj7dlriygvmxpoj2d27gb,1YRhd0DX,2020-0188,2020-05-07,19:03:05,19:17:43,NA,incomplete,148,color,1,right,Red_Star_Stripes_2.jpg,Purple_Star_Chess_1.jpg,Red_Circle_Dots_3.jpg,right,612.6450000010664,true,low,NA,NA,NA,NA,NA,NA,NA,false
1YRhd0DX,3ka7ijsnx9iy5qpdnesn7gsg38gpb3,3pb5a5bd0zj7dlriygvmxpoj2d27gb,1YRhd0DX,2020-0188,2020-05-07,19:03:05,19:17:43,NA,incomplete,149,color,1,left,Blue_Triangle_Chess_3.jpg,Blue_Circle_Dots_2.jpg,Red_Triangle_Grid_1.jpg,left,482.5100000016391,true,low,NA,NA,NA,NA,NA,NA,NA,false
1YRhd0DX,3ka7ijsnx9iy5qpdnesn7gsg38gpb3,3pb5a5bd0zj7dlriygvmxpoj2d27gb,1YRhd0DX,2020-0188,2020-05-07,19:03:05,19:17:43,NA,incomplete,150,color,0,right,Green_Circle_Chess_4.jpg,Purple_Circle_Grid_3.jpg,Green_Triangle_Dots_1.jpg,right,457.3650000093039,true,low,NA,NA,NA,NA,NA,NA,NA,false
1YRhd0DX,3ka7ijsnx9iy5qpdnesn7gsg38gpb3,3pb5a5bd0zj7dlriygvmxpoj2d27gb,1YRhd0DX,2020-0188,2020-05-07,19:03:05,19:17:43,NA,incomplete,151,color,1,right,Blue_Star_Stripes_2.jpg,Purple_Star_Dots_3.jpg,Blue_Circle_Chess_1.jpg,right,556.3549999933457,true,low,NA,NA,NA,NA,NA,NA,NA,false
1YRhd0DX,3ka7ijsnx9iy5qpdnesn7gsg38gpb3,3pb5a5bd0zj7dlriygvmxpoj2d27gb,1YRhd0DX,2020-0188,2020-05-07,19:03:05,19:17:43,NA,incomplete,152,color,1,right,Purple_Plus_Stripes_4.jpg,Blue_Plus_Chess_3.jpg,Purple_Star_Grid_2.jpg,right,579.5950000028824,true,low,NA,NA,NA,NA,NA,NA,NA,false
1YRhd0DX,3ka7ijsnx9iy5qpdnesn7gsg38gpb3,3pb5a5bd0zj7dlriygvmxpoj2d27gb,1YRhd0DX,2020-0188,2020-05-07,19:03:05,19:17:43,NA,incomplete,153,color,0,right,Green_Star_Dots_2.jpg,Red_Star_Stripes_1.jpg,Green_Circle_Grid_3.jpg,right,652.3199999937788,true,low,NA,NA,NA,NA,NA,NA,NA,false
1YRhd0DX,3ka7ijsnx9iy5qpdnesn7gsg38gpb3,3pb5a5bd0zj7dlriygvmxpoj2d27gb,1YRhd0DX,2020-0188,2020-05-07,19:03:05,19:17:43,NA,incomplete,154,color,1,left,Green_Star_Chess_3.jpg,Green_Triangle_Grid_4.jpg,Red_Star_Stripes_2.jpg,left,574.414999995497,true,low,NA,NA,NA,NA,NA,NA,NA,false
1YRhd0DX,3ka7ijsnx9iy5qpdnesn7gsg38gpb3,3pb5a5bd0zj7dlriygvmxpoj2d27gb,1YRhd0DX,2020-0188,2020-05-07,19:03:05,19:17:43,NA,incomplete,155,color,1,right,Green_Plus_Dots_1.jpg,Purple_Plus_Stripes_4.jpg,Green_Triangle_Grid_2.jpg,right,529.9050000030547,true,low,NA,NA,NA,NA,NA,NA,NA,false
1YRhd0DX,3ka7ijsnx9iy5qpdnesn7gsg38gpb3,3pb5a5bd0zj7dlriygvmxpoj2d27gb,1YRhd0DX,2020-0188,2020-05-07,19:03:05,19:17:43,NA,incomplete,156,color,1,left,Red_Star_Stripes_2.jpg,Red_Triangle_Dots_1.jpg,Purple_Star_Chess_3.jpg,left,552.0400000095833,true,low,NA,NA,NA,NA,NA,NA,NA,false
1YRhd0DX,3ka7ijsnx9iy5qpdnesn7gsg38gpb3,3pb5a5bd0zj7dlriygvmxpoj2d27gb,1YRhd0DX,2020-0188,2020-05-07,19:03:05,19:17:43,NA,incomplete,157,color,1,right,Red_Circle_Chess_4.jpg,Blue_Circle_Grid_2.jpg,Red_Plus_Dots_1.jpg,right,594.8599999974249,true,low,NA,NA,NA,NA,NA,NA,NA,false
1YRhd0DX,3ka7ijsnx9iy5qpdnesn7gsg38gpb3,3pb5a5bd0zj7dlriygvmxpoj2d27gb,1YRhd0DX,2020-0188,2020-05-07,19:03:05,19:17:43,NA,incomplete,158,color,1,left,Blue_Star_Chess_3.jpg,Blue_Plus_Stripes_4.jpg,Purple_Star_Grid_1.jpg,left,540.659999998752,true,low,NA,NA,NA,NA,NA,NA,NA,false
1YRhd0DX,3ka7ijsnx9iy5qpdnesn7gsg38gpb3,3pb5a5bd0zj7dlriygvmxpoj2d27gb,1YRhd0DX,2020-0188,2020-05-07,19:03:05,19:17:43,NA,incomplete,159,color,1,left,Red_Plus_Chess_1.jpg,Red_Star_Grid_4.jpg,Blue_Plus_Dots_2.jpg,left,594.3849999894155,true,low,NA,NA,NA,NA,NA,NA,NA,false
1YRhd0DX,3ka7ijsnx9iy5qpdnesn7gsg38gpb3,3pb5a5bd0zj7dlriygvmxpoj2d27gb,1YRhd0DX,2020-0188,2020-05-07,19:03:05,19:17:43,NA,incomplete,160,shape,1,right,Green_Plus_Dots_1.jpg,Green_Triangle_Grid_4.jpg,Red_Plus_Stripes_2.jpg,left,557.2199999878649,false,low,NA,NA,NA,NA,NA,NA,NA,false
1YRhd0DX,3ka7ijsnx9iy5qpdnesn7gsg38gpb3,3pb5a5bd0zj7dlriygvmxpoj2d27gb,1YRhd0DX,2020-0188,2020-05-07,19:03:05,19:17:43,NA,incomplete,161,shape,1,left,Red_Plus_Stripes_3.jpg,Blue_Plus_Chess_4.jpg,Red_Circle_Grid_2.jpg,right,580.7650000060676,false,low,NA,NA,NA,NA,NA,NA,NA,false
1YRhd0DX,3ka7ijsnx9iy5qpdnesn7gsg38gpb3,3pb5a5bd0zj7dlriygvmxpoj2d27gb,1YRhd0DX,2020-0188,2020-05-07,19:03:05,19:17:43,NA,incomplete,162,shape,0,left,Purple_Triangle_Stripes_4.jpg,Red_Triangle_Grid_3.jpg,Purple_Plus_Dots_1.jpg,right,605.5150000029244,false,low,NA,NA,NA,NA,NA,NA,NA,false
1YRhd0DX,3ka7ijsnx9iy5qpdnesn7gsg38gpb3,3pb5a5bd0zj7dlriygvmxpoj2d27gb,1YRhd0DX,2020-0188,2020-05-07,19:03:05,19:17:43,NA,incomplete,163,shape,1,right,Green_Circle_Dots_2.jpg,Green_Triangle_Grid_4.jpg,Purple_Circle_Chess_3.jpg,left,480.7100000034552,false,low,NA,NA,NA,NA,NA,NA,NA,false
1YRhd0DX,3ka7ijsnx9iy5qpdnesn7gsg38gpb3,3pb5a5bd0zj7dlriygvmxpoj2d27gb,1YRhd0DX,2020-0188,2020-05-07,19:03:05,19:17:43,NA,incomplete,164,shape,1,left,Red_Triangle_Stripes_2.jpg,Green_Triangle_Chess_1.jpg,Red_Star_Grid_4.jpg,left,904.4900000008056,true,low,NA,NA,NA,NA,NA,NA,NA,false
1YRhd0DX,3ka7ijsnx9iy5qpdnesn7gsg38gpb3,3pb5a5bd0zj7dlriygvmxpoj2d27gb,1YRhd0DX,2020-0188,2020-05-07,19:03:05,19:17:43,NA,incomplete,165,shape,1,left,Purple_Star_Dots_2.jpg,Red_Star_Stripes_1.jpg,Purple_Plus_Chess_4.jpg,left,692.6099999982398,true,low,NA,NA,NA,NA,NA,NA,NA,false
1YRhd0DX,3ka7ijsnx9iy5qpdnesn7gsg38gpb3,3pb5a5bd0zj7dlriygvmxpoj2d27gb,1YRhd0DX,2020-0188,2020-05-07,19:03:05,19:17:43,NA,incomplete,166,shape,1,right,Purple_Circle_Stripes_3.jpg,Purple_Triangle_Grid_2.jpg,Blue_Circle_Dots_4.jpg,right,827.6699999987613,true,low,NA,NA,NA,NA,NA,NA,NA,false
1YRhd0DX,3ka7ijsnx9iy5qpdnesn7gsg38gpb3,3pb5a5bd0zj7dlriygvmxpoj2d27gb,1YRhd0DX,2020-0188,2020-05-07,19:03:05,19:17:43,NA,incomplete,167,shape,1,left,Purple_Triangle_Dots_2.jpg,Red_Triangle_Chess_4.jpg,Purple_Plus_Stripes_3.jpg,left,646.5699999971548,true,low,NA,NA,NA,NA,NA,NA,NA,false
1YRhd0DX,3ka7ijsnx9iy5qpdnesn7gsg38gpb3,3pb5a5bd0zj7dlriygvmxpoj2d27gb,1YRhd0DX,2020-0188,2020-05-07,19:03:05,19:17:43,NA,incomplete,168,shape,1,left,Red_Triangle_Chess_1.jpg,Purple_Triangle_Stripes_3.jpg,Red_Plus_Dots_4.jpg,left,739.5600000018021,true,low,NA,NA,NA,NA,NA,NA,NA,false
1YRhd0DX,3ka7ijsnx9iy5qpdnesn7gsg38gpb3,3pb5a5bd0zj7dlriygvmxpoj2d27gb,1YRhd0DX,2020-0188,2020-05-07,19:03:05,19:17:43,NA,incomplete,169,shape,1,right,Red_Triangle_Grid_4.jpg,Red_Star_Stripes_1.jpg,Blue_Triangle_Chess_3.jpg,right,669.160000004922,true,low,NA,NA,NA,NA,NA,NA,NA,false
1YRhd0DX,3ka7ijsnx9iy5qpdnesn7gsg38gpb3,3pb5a5bd0zj7dlriygvmxpoj2d27gb,1YRhd0DX,2020-0188,2020-05-07,19:03:05,19:17:43,NA,incomplete,170,shape,0,left,Blue_Plus_Grid_1.jpg,Red_Plus_Chess_2.jpg,Blue_Star_Stripes_3.jpg,left,709.7800000046846,true,low,NA,NA,NA,NA,NA,NA,NA,false
1YRhd0DX,3ka7ijsnx9iy5qpdnesn7gsg38gpb3,3pb5a5bd0zj7dlriygvmxpoj2d27gb,1YRhd0DX,2020-0188,2020-05-07,19:03:05,19:17:43,NA,incomplete,171,shape,1,right,Purple_Triangle_Stripes_4.jpg,Purple_Circle_Dots_2.jpg,Blue_Triangle_Grid_3.jpg,right,556.9899999973131,true,low,NA,NA,NA,NA,NA,NA,NA,false
1YRhd0DX,3ka7ijsnx9iy5qpdnesn7gsg38gpb3,3pb5a5bd0zj7dlriygvmxpoj2d27gb,1YRhd0DX,2020-0188,2020-05-07,19:03:05,19:17:43,NA,incomplete,172,shape,1,left,Blue_Circle_Chess_1.jpg,Green_Circle_Stripes_2.jpg,Blue_Plus_Grid_4.jpg,left,581.1699999903794,true,low,NA,NA,NA,NA,NA,NA,NA,false
1YRhd0DX,3ka7ijsnx9iy5qpdnesn7gsg38gpb3,3pb5a5bd0zj7dlriygvmxpoj2d27gb,1YRhd0DX,2020-0188,2020-05-07,19:03:05,19:17:43,NA,incomplete,173,shape,1,left,Blue_Star_Dots_4.jpg,Red_Star_Grid_1.jpg,Blue_Circle_Stripes_3.jpg,left,731.4650000043912,true,low,NA,NA,NA,NA,NA,NA,NA,false
1YRhd0DX,3ka7ijsnx9iy5qpdnesn7gsg38gpb3,3pb5a5bd0zj7dlriygvmxpoj2d27gb,1YRhd0DX,2020-0188,2020-05-07,19:03:05,19:17:43,NA,incomplete,174,shape,0,left,Green_Circle_Dots_1.jpg,Purple_Circle_Stripes_3.jpg,Green_Triangle_Chess_4.jpg,left,607.5850000052014,true,low,NA,NA,NA,NA,NA,NA,NA,false
1YRhd0DX,3ka7ijsnx9iy5qpdnesn7gsg38gpb3,3pb5a5bd0zj7dlriygvmxpoj2d27gb,1YRhd0DX,2020-0188,2020-05-07,19:03:05,19:17:43,NA,incomplete,175,shape,1,right,Blue_Triangle_Stripes_4.jpg,Blue_Circle_Grid_2.jpg,Purple_Triangle_Chess_3.jpg,right,581.0350000101607,true,low,NA,NA,NA,NA,NA,NA,NA,false
1YRhd0DX,3ka7ijsnx9iy5qpdnesn7gsg38gpb3,3pb5a5bd0zj7dlriygvmxpoj2d27gb,1YRhd0DX,2020-0188,2020-05-07,19:03:05,19:17:43,NA,incomplete,176,shape,0,left,Purple_Circle_Stripes_4.jpg,Blue_Circle_Grid_3.jpg,Purple_Triangle_Chess_2.jpg,left,552.5600000109989,true,low,NA,NA,NA,NA,NA,NA,NA,false
1YRhd0DX,3ka7ijsnx9iy5qpdnesn7gsg38gpb3,3pb5a5bd0zj7dlriygvmxpoj2d27gb,1YRhd0DX,2020-0188,2020-05-07,19:03:05,19:17:43,NA,incomplete,177,shape,1,left,Red_Star_Dots_2.jpg,Green_Star_Grid_3.jpg,Red_Triangle_Stripes_1.jpg,left,628.3600000024308,true,low,NA,NA,NA,NA,NA,NA,NA,false
1YRhd0DX,3ka7ijsnx9iy5qpdnesn7gsg38gpb3,3pb5a5bd0zj7dlriygvmxpoj2d27gb,1YRhd0DX,2020-0188,2020-05-07,19:03:05,19:17:43,NA,incomplete,178,shape,1,left,Blue_Star_Stripes_3.jpg,Red_Star_Chess_2.jpg,Blue_Triangle_Dots_1.jpg,left,619.4899999973131,true,low,NA,NA,NA,NA,NA,NA,NA,false
1YRhd0DX,3ka7ijsnx9iy5qpdnesn7gsg38gpb3,3pb5a5bd0zj7dlriygvmxpoj2d27gb,1YRhd0DX,2020-0188,2020-05-07,19:03:05,19:17:43,NA,incomplete,179,shape,1,right,Purple_Circle_Grid_3.jpg,Purple_Star_Chess_2.jpg,Blue_Circle_Dots_1.jpg,right,570.8250000025146,true,low,NA,NA,NA,NA,NA,NA,NA,false
1YRhd0DX,3ka7ijsnx9iy5qpdnesn7gsg38gpb3,3pb5a5bd0zj7dlriygvmxpoj2d27gb,1YRhd0DX,2020-0188,2020-05-07,19:03:05,19:17:43,NA,incomplete,180,color,1,left,Green_Triangle_Stripes_3.jpg,Green_Plus_Chess_1.jpg,Blue_Triangle_Grid_4.jpg,right,612.0200000004843,false,low,NA,NA,NA,NA,NA,NA,NA,false
1YRhd0DX,3ka7ijsnx9iy5qpdnesn7gsg38gpb3,3pb5a5bd0zj7dlriygvmxpoj2d27gb,1YRhd0DX,2020-0188,2020-05-07,19:03:05,19:17:43,NA,incomplete,181,color,1,left,Green_Plus_Stripes_4.jpg,Green_Circle_Grid_1.jpg,Red_Plus_Chess_3.jpg,right,703.2999999937601,false,low,NA,NA,NA,NA,NA,NA,NA,false
1YRhd0DX,3ka7ijsnx9iy5qpdnesn7gsg38gpb3,3pb5a5bd0zj7dlriygvmxpoj2d27gb,1YRhd0DX,2020-0188,2020-05-07,19:03:05,19:17:43,NA,incomplete,182,color,0,right,Red_Triangle_Dots_3.jpg,Purple_Triangle_Chess_1.jpg,Red_Circle_Stripes_2.jpg,left,853.159999998752,false,low,NA,NA,NA,NA,NA,NA,NA,false
1YRhd0DX,3ka7ijsnx9iy5qpdnesn7gsg38gpb3,3pb5a5bd0zj7dlriygvmxpoj2d27gb,1YRhd0DX,2020-0188,2020-05-07,19:03:05,19:17:43,NA,incomplete,183,color,1,left,Purple_Plus_Dots_1.jpg,Purple_Triangle_Chess_3.jpg,Blue_Plus_Grid_2.jpg,right,682.634999990114,false,low,NA,NA,NA,NA,NA,NA,NA,false
1YRhd0DX,3ka7ijsnx9iy5qpdnesn7gsg38gpb3,3pb5a5bd0zj7dlriygvmxpoj2d27gb,1YRhd0DX,2020-0188,2020-05-07,19:03:05,19:17:43,NA,incomplete,184,color,1,left,Purple_Circle_Grid_4.jpg,Purple_Plus_Stripes_1.jpg,Green_Circle_Chess_3.jpg,left,815.100000007078,true,low,NA,NA,NA,NA,NA,NA,NA,false
1YRhd0DX,3ka7ijsnx9iy5qpdnesn7gsg38gpb3,3pb5a5bd0zj7dlriygvmxpoj2d27gb,1YRhd0DX,2020-0188,2020-05-07,19:03:05,19:17:43,NA,incomplete,185,color,1,right,Blue_Circle_Stripes_1.jpg,Green_Circle_Grid_2.jpg,Blue_Star_Dots_4.jpg,right,519.3699999945238,true,low,NA,NA,NA,NA,NA,NA,NA,false
1YRhd0DX,3ka7ijsnx9iy5qpdnesn7gsg38gpb3,3pb5a5bd0zj7dlriygvmxpoj2d27gb,1YRhd0DX,2020-0188,2020-05-07,19:03:05,19:17:43,NA,incomplete,186,color,0,right,Purple_Star_Stripes_3.jpg,Red_Star_Grid_1.jpg,Purple_Triangle_Chess_4.jpg,right,611.6749999928288,true,low,NA,NA,NA,NA,NA,NA,NA,false
1YRhd0DX,3ka7ijsnx9iy5qpdnesn7gsg38gpb3,3pb5a5bd0zj7dlriygvmxpoj2d27gb,1YRhd0DX,2020-0188,2020-05-07,19:03:05,19:17:43,NA,incomplete,187,color,1,left,Red_Triangle_Grid_1.jpg,Red_Plus_Chess_4.jpg,Purple_Triangle_Stripes_3.jpg,left,566.1649999965448,true,low,NA,NA,NA,NA,NA,NA,NA,false
1YRhd0DX,3ka7ijsnx9iy5qpdnesn7gsg38gpb3,3pb5a5bd0zj7dlriygvmxpoj2d27gb,1YRhd0DX,2020-0188,2020-05-07,19:03:05,19:17:43,NA,incomplete,188,color,1,right,Blue_Circle_Stripes_1.jpg,Purple_Circle_Dots_3.jpg,Blue_Plus_Grid_2.jpg,right,544.6500000107335,true,low,NA,NA,NA,NA,NA,NA,NA,false
1YRhd0DX,3ka7ijsnx9iy5qpdnesn7gsg38gpb3,3pb5a5bd0zj7dlriygvmxpoj2d27gb,1YRhd0DX,2020-0188,2020-05-07,19:03:05,19:17:43,NA,incomplete,189,color,1,left,Green_Triangle_Grid_1.jpg,Green_Plus_Chess_4.jpg,Purple_Triangle_Dots_3.jpg,left,582.8449999971781,true,low,NA,NA,NA,NA,NA,NA,NA,false
1YRhd0DX,3ka7ijsnx9iy5qpdnesn7gsg38gpb3,3pb5a5bd0zj7dlriygvmxpoj2d27gb,1YRhd0DX,2020-0188,2020-05-07,19:03:05,19:17:43,NA,incomplete,190,color,0,left,Red_Triangle_Grid_1.jpg,Red_Star_Chess_2.jpg,Purple_Triangle_Stripes_3.jpg,left,490.0199999974575,true,low,NA,NA,NA,NA,NA,NA,NA,false
1YRhd0DX,3ka7ijsnx9iy5qpdnesn7gsg38gpb3,3pb5a5bd0zj7dlriygvmxpoj2d27gb,1YRhd0DX,2020-0188,2020-05-07,19:03:05,19:17:43,NA,incomplete,191,color,1,left,Blue_Circle_Stripes_2.jpg,Blue_Triangle_Chess_4.jpg,Green_Circle_Dots_3.jpg,left,617.1250000043074,true,low,NA,NA,NA,NA,NA,NA,NA,false
1YRhd0DX,3ka7ijsnx9iy5qpdnesn7gsg38gpb3,3pb5a5bd0zj7dlriygvmxpoj2d27gb,1YRhd0DX,2020-0188,2020-05-07,19:03:05,19:17:43,NA,incomplete,192,color,0,left,Purple_Triangle_Stripes_2.jpg,Purple_Circle_Grid_4.jpg,Blue_Triangle_Dots_1.jpg,left,458.5800000058953,true,low,NA,NA,NA,NA,NA,NA,NA,false
1YRhd0DX,3ka7ijsnx9iy5qpdnesn7gsg38gpb3,3pb5a5bd0zj7dlriygvmxpoj2d27gb,1YRhd0DX,2020-0188,2020-05-07,19:03:05,19:17:43,NA,incomplete,193,color,1,right,Blue_Triangle_Grid_2.jpg,Purple_Triangle_Dots_4.jpg,Blue_Circle_Chess_3.jpg,left,1255.5850000062492,false,low,NA,NA,NA,NA,NA,NA,NA,false
1YRhd0DX,3ka7ijsnx9iy5qpdnesn7gsg38gpb3,3pb5a5bd0zj7dlriygvmxpoj2d27gb,1YRhd0DX,2020-0188,2020-05-07,19:03:05,19:17:43,NA,incomplete,194,color,1,right,Purple_Circle_Stripes_1.jpg,Red_Circle_Grid_4.jpg,Purple_Star_Dots_2.jpg,right,633.285000003525,true,low,NA,NA,NA,NA,NA,NA,NA,false
1YRhd0DX,3ka7ijsnx9iy5qpdnesn7gsg38gpb3,3pb5a5bd0zj7dlriygvmxpoj2d27gb,1YRhd0DX,2020-0188,2020-05-07,19:03:05,19:17:43,NA,incomplete,195,color,1,left,Purple_Star_Grid_3.jpg,Purple_Plus_Stripes_2.jpg,Red_Star_Dots_1.jpg,left,897.3700000060489,true,low,NA,NA,NA,NA,NA,NA,NA,false
1YRhd0DX,3ka7ijsnx9iy5qpdnesn7gsg38gpb3,3pb5a5bd0zj7dlriygvmxpoj2d27gb,1YRhd0DX,2020-0188,2020-05-07,19:03:05,19:17:43,NA,incomplete,196,color,1,left,Blue_Circle_Stripes_3.jpg,Blue_Star_Grid_4.jpg,Green_Circle_Dots_2.jpg,left,567.9099999979371,true,low,NA,NA,NA,NA,NA,NA,NA,false
1YRhd0DX,3ka7ijsnx9iy5qpdnesn7gsg38gpb3,3pb5a5bd0zj7dlriygvmxpoj2d27gb,1YRhd0DX,2020-0188,2020-05-07,19:03:05,19:17:43,NA,incomplete,197,color,1,right,Red_Triangle_Stripes_3.jpg,Purple_Triangle_Grid_2.jpg,Red_Star_Chess_4.jpg,right,460.8399999997346,true,low,NA,NA,NA,NA,NA,NA,NA,false
1YRhd0DX,3ka7ijsnx9iy5qpdnesn7gsg38gpb3,3pb5a5bd0zj7dlriygvmxpoj2d27gb,1YRhd0DX,2020-0188,2020-05-07,19:03:05,19:17:43,NA,incomplete,198,color,1,right,Red_Star_Grid_2.jpg,Blue_Star_Dots_4.jpg,Red_Circle_Stripes_1.jpg,right,439.58000000566244,true,low,NA,NA,NA,NA,NA,NA,NA,false
1YRhd0DX,3ka7ijsnx9iy5qpdnesn7gsg38gpb3,3pb5a5bd0zj7dlriygvmxpoj2d27gb,1YRhd0DX,2020-0188,2020-05-07,19:03:05,19:17:43,NA,incomplete,199,color,1,left,Red_Plus_Stripes_4.jpg,Red_Triangle_Dots_1.jpg,Purple_Plus_Chess_2.jpg,left,513.4199999884004,true,low,NA,NA,NA,NA,NA,NA,NA,false
1YRhd0DX,3ka7ijsnx9iy5qpdnesn7gsg38gpb3,3pb5a5bd0zj7dlriygvmxpoj2d27gb,1YRhd0DX,2020-0188,2020-05-07,19:03:05,19:17:43,NA,incomplete,200,shape,1,right,Red_Plus_Stripes_2.jpg,Red_Triangle_Chess_1.jpg,Green_Plus_Grid_3.jpg,left,568.4650000039255,false,low,NA,NA,NA,NA,NA,NA,NA,false
1YRhd0DX,3ka7ijsnx9iy5qpdnesn7gsg38gpb3,3pb5a5bd0zj7dlriygvmxpoj2d27gb,1YRhd0DX,2020-0188,2020-05-07,19:03:05,19:17:43,NA,incomplete,201,shape,1,right,Green_Plus_Stripes_2.jpg,Green_Triangle_Grid_4.jpg,Blue_Plus_Chess_1.jpg,left,523.0450000090059,false,low,NA,NA,NA,NA,NA,NA,NA,false
1YRhd0DX,3ka7ijsnx9iy5qpdnesn7gsg38gpb3,3pb5a5bd0zj7dlriygvmxpoj2d27gb,1YRhd0DX,2020-0188,2020-05-07,19:03:05,19:17:43,NA,incomplete,202,shape,1,right,Green_Triangle_Chess_3.jpg,Green_Circle_Dots_4.jpg,Red_Triangle_Stripes_1.jpg,right,970.5400000093505,true,low,NA,NA,NA,NA,NA,NA,NA,false
1YRhd0DX,3ka7ijsnx9iy5qpdnesn7gsg38gpb3,3pb5a5bd0zj7dlriygvmxpoj2d27gb,1YRhd0DX,2020-0188,2020-05-07,19:03:05,19:17:43,NA,incomplete,203,shape,1,right,Green_Triangle_Stripes_1.jpg,Green_Star_Dots_3.jpg,Red_Triangle_Chess_4.jpg,right,652.6050000102259,true,low,NA,NA,NA,NA,NA,NA,NA,false
1YRhd0DX,3ka7ijsnx9iy5qpdnesn7gsg38gpb3,3pb5a5bd0zj7dlriygvmxpoj2d27gb,1YRhd0DX,2020-0188,2020-05-07,19:03:05,19:17:43,NA,incomplete,204,shape,0,left,Blue_Circle_Dots_2.jpg,Red_Circle_Chess_4.jpg,Blue_Plus_Grid_3.jpg,left,769.0350000048056,true,low,NA,NA,NA,NA,NA,NA,NA,false
1YRhd0DX,3ka7ijsnx9iy5qpdnesn7gsg38gpb3,3pb5a5bd0zj7dlriygvmxpoj2d27gb,1YRhd0DX,2020-0188,2020-05-07,19:03:05,19:17:43,NA,incomplete,205,shape,1,left,Purple_Circle_Chess_2.jpg,Blue_Circle_Stripes_4.jpg,Purple_Plus_Grid_1.jpg,left,575.9850000031292,true,low,NA,NA,NA,NA,NA,NA,NA,false
1YRhd0DX,3ka7ijsnx9iy5qpdnesn7gsg38gpb3,3pb5a5bd0zj7dlriygvmxpoj2d27gb,1YRhd0DX,2020-0188,2020-05-07,19:03:05,19:17:43,NA,incomplete,206,shape,1,left,Blue_Plus_Grid_2.jpg,Red_Plus_Stripes_1.jpg,Blue_Circle_Dots_3.jpg,left,626.2900000001537,true,low,NA,NA,NA,NA,NA,NA,NA,false
1YRhd0DX,3ka7ijsnx9iy5qpdnesn7gsg38gpb3,3pb5a5bd0zj7dlriygvmxpoj2d27gb,1YRhd0DX,2020-0188,2020-05-07,19:03:05,19:17:43,NA,incomplete,207,shape,0,left,Green_Triangle_Grid_4.jpg,Red_Triangle_Dots_3.jpg,Green_Star_Chess_1.jpg,left,744.21999999322,true,low,NA,NA,NA,NA,NA,NA,NA,false
1YRhd0DX,3ka7ijsnx9iy5qpdnesn7gsg38gpb3,3pb5a5bd0zj7dlriygvmxpoj2d27gb,1YRhd0DX,2020-0188,2020-05-07,19:03:05,19:17:43,NA,incomplete,208,shape,1,right,Green_Triangle_Dots_1.jpg,Green_Circle_Stripes_4.jpg,Red_Triangle_Chess_2.jpg,right,725.1550000073621,true,low,NA,NA,NA,NA,NA,NA,NA,false
1YRhd0DX,3ka7ijsnx9iy5qpdnesn7gsg38gpb3,3pb5a5bd0zj7dlriygvmxpoj2d27gb,1YRhd0DX,2020-0188,2020-05-07,19:03:05,19:17:43,NA,incomplete,209,shape,1,left,Blue_Star_Dots_4.jpg,Red_Star_Grid_2.jpg,Blue_Plus_Stripes_1.jpg,left,574.1200000047684,true,low,NA,NA,NA,NA,NA,NA,NA,false
1YRhd0DX,3ka7ijsnx9iy5qpdnesn7gsg38gpb3,3pb5a5bd0zj7dlriygvmxpoj2d27gb,1YRhd0DX,2020-0188,2020-05-07,19:03:05,19:17:43,NA,incomplete,210,shape,1,left,Purple_Circle_Chess_4.jpg,Green_Circle_Dots_2.jpg,Purple_Star_Stripes_3.jpg,left,715.7899999874644,true,low,NA,NA,NA,NA,NA,NA,NA,false
1YRhd0DX,3ka7ijsnx9iy5qpdnesn7gsg38gpb3,3pb5a5bd0zj7dlriygvmxpoj2d27gb,1YRhd0DX,2020-0188,2020-05-07,19:03:05,19:17:43,NA,incomplete,211,shape,1,left,Blue_Star_Chess_4.jpg,Purple_Star_Dots_3.jpg,Blue_Triangle_Grid_2.jpg,left,670.6449999910546,true,low,NA,NA,NA,NA,NA,NA,NA,false
1YRhd0DX,3ka7ijsnx9iy5qpdnesn7gsg38gpb3,3pb5a5bd0zj7dlriygvmxpoj2d27gb,1YRhd0DX,2020-0188,2020-05-07,19:03:05,19:17:43,NA,incomplete,212,shape,1,left,Red_Circle_Chess_4.jpg,Blue_Circle_Stripes_3.jpg,Red_Star_Dots_1.jpg,left,759.6099999936996,true,low,NA,NA,NA,NA,NA,NA,NA,false
1YRhd0DX,3ka7ijsnx9iy5qpdnesn7gsg38gpb3,3pb5a5bd0zj7dlriygvmxpoj2d27gb,1YRhd0DX,2020-0188,2020-05-07,19:03:05,19:17:43,NA,incomplete,213,shape,0,right,Green_Star_Chess_1.jpg,Green_Plus_Dots_4.jpg,Blue_Star_Stripes_3.jpg,right,926.659999997355,true,low,NA,NA,NA,NA,NA,NA,NA,false
1YRhd0DX,3ka7ijsnx9iy5qpdnesn7gsg38gpb3,3pb5a5bd0zj7dlriygvmxpoj2d27gb,1YRhd0DX,2020-0188,2020-05-07,19:03:05,19:17:43,NA,incomplete,214,shape,1,right,Red_Triangle_Stripes_4.jpg,Red_Plus_Chess_3.jpg,Green_Triangle_Dots_2.jpg,right,709.5899999985704,true,low,NA,NA,NA,NA,NA,NA,NA,false
1YRhd0DX,3ka7ijsnx9iy5qpdnesn7gsg38gpb3,3pb5a5bd0zj7dlriygvmxpoj2d27gb,1YRhd0DX,2020-0188,2020-05-07,19:03:05,19:17:43,NA,incomplete,215,shape,1,right,Purple_Plus_Dots_3.jpg,Purple_Triangle_Chess_4.jpg,Red_Plus_Grid_1.jpg,left,529.9850000010338,false,low,NA,NA,NA,NA,NA,NA,NA,false
1YRhd0DX,3ka7ijsnx9iy5qpdnesn7gsg38gpb3,3pb5a5bd0zj7dlriygvmxpoj2d27gb,1YRhd0DX,2020-0188,2020-05-07,19:03:05,19:17:43,NA,incomplete,216,shape,1,left,Purple_Triangle_Stripes_2.jpg,Blue_Triangle_Grid_1.jpg,Purple_Circle_Chess_3.jpg,left,641.749999995227,true,low,NA,NA,NA,NA,NA,NA,NA,false
1YRhd0DX,3ka7ijsnx9iy5qpdnesn7gsg38gpb3,3pb5a5bd0zj7dlriygvmxpoj2d27gb,1YRhd0DX,2020-0188,2020-05-07,19:03:05,19:17:43,NA,incomplete,217,shape,1,left,Blue_Star_Stripes_4.jpg,Red_Star_Chess_1.jpg,Blue_Plus_Grid_2.jpg,left,742.4650000029942,true,low,NA,NA,NA,NA,NA,NA,NA,false
1YRhd0DX,3ka7ijsnx9iy5qpdnesn7gsg38gpb3,3pb5a5bd0zj7dlriygvmxpoj2d27gb,1YRhd0DX,2020-0188,2020-05-07,19:03:05,19:17:43,NA,incomplete,218,shape,1,left,Purple_Circle_Stripes_2.jpg,Green_Circle_Grid_1.jpg,Purple_Plus_Dots_4.jpg,left,565.0549999991199,true,low,NA,NA,NA,NA,NA,NA,NA,false
1YRhd0DX,3ka7ijsnx9iy5qpdnesn7gsg38gpb3,3pb5a5bd0zj7dlriygvmxpoj2d27gb,1YRhd0DX,2020-0188,2020-05-07,19:03:05,19:17:43,NA,incomplete,219,shape,1,left,Red_Circle_Dots_2.jpg,Blue_Circle_Stripes_1.jpg,Red_Plus_Chess_3.jpg,left,573.114999991958,true,low,NA,NA,NA,NA,NA,NA,NA,false
1YRhd0DX,3ka7ijsnx9iy5qpdnesn7gsg38gpb3,3pb5a5bd0zj7dlriygvmxpoj2d27gb,1YRhd0DX,2020-0188,2020-05-07,19:03:05,19:17:43,NA,incomplete,220,color,1,right,Red_Star_Stripes_4.jpg,Green_Star_Chess_3.jpg,Red_Plus_Grid_1.jpg,left,610.9100000030594,false,low,NA,NA,NA,NA,NA,NA,NA,false
1YRhd0DX,3ka7ijsnx9iy5qpdnesn7gsg38gpb3,3pb5a5bd0zj7dlriygvmxpoj2d27gb,1YRhd0DX,2020-0188,2020-05-07,19:03:05,19:17:43,NA,incomplete,221,color,1,left,Purple_Circle_Grid_2.jpg,Purple_Star_Dots_3.jpg,Blue_Circle_Stripes_4.jpg,right,718.4799999959068,false,low,NA,NA,NA,NA,NA,NA,NA,false
1YRhd0DX,3ka7ijsnx9iy5qpdnesn7gsg38gpb3,3pb5a5bd0zj7dlriygvmxpoj2d27gb,1YRhd0DX,2020-0188,2020-05-07,19:03:05,19:17:43,NA,incomplete,222,color,1,left,Green_Circle_Grid_3.jpg,Green_Triangle_Chess_1.jpg,Red_Circle_Stripes_2.jpg,left,527.0699999964563,true,low,NA,NA,NA,NA,NA,NA,NA,false
1YRhd0DX,3ka7ijsnx9iy5qpdnesn7gsg38gpb3,3pb5a5bd0zj7dlriygvmxpoj2d27gb,1YRhd0DX,2020-0188,2020-05-07,19:03:05,19:17:43,NA,incomplete,223,color,0,left,Blue_Circle_Grid_3.jpg,Blue_Triangle_Chess_1.jpg,Red_Circle_Stripes_4.jpg,right,733.1999999878462,false,low,NA,NA,NA,NA,NA,NA,NA,false
1YRhd0DX,3ka7ijsnx9iy5qpdnesn7gsg38gpb3,3pb5a5bd0zj7dlriygvmxpoj2d27gb,1YRhd0DX,2020-0188,2020-05-07,19:03:05,19:17:43,NA,incomplete,224,color,1,left,Green_Star_Stripes_1.jpg,Green_Triangle_Chess_4.jpg,Blue_Star_Grid_2.jpg,left,519.9850000062725,true,low,NA,NA,NA,NA,NA,NA,NA,false
1YRhd0DX,3ka7ijsnx9iy5qpdnesn7gsg38gpb3,3pb5a5bd0zj7dlriygvmxpoj2d27gb,1YRhd0DX,2020-0188,2020-05-07,19:03:05,19:17:43,NA,incomplete,225,color,0,right,Red_Plus_Chess_3.jpg,Purple_Plus_Dots_1.jpg,Red_Circle_Stripes_2.jpg,right,635.8849999960512,true,low,NA,NA,NA,NA,NA,NA,NA,false
1YRhd0DX,3ka7ijsnx9iy5qpdnesn7gsg38gpb3,3pb5a5bd0zj7dlriygvmxpoj2d27gb,1YRhd0DX,2020-0188,2020-05-07,19:03:05,19:17:43,NA,incomplete,226,color,1,right,Red_Circle_Grid_3.jpg,Green_Circle_Stripes_4.jpg,Red_Plus_Dots_2.jpg,right,599.1649999923538,true,low,NA,NA,NA,NA,NA,NA,NA,false
1YRhd0DX,3ka7ijsnx9iy5qpdnesn7gsg38gpb3,3pb5a5bd0zj7dlriygvmxpoj2d27gb,1YRhd0DX,2020-0188,2020-05-07,19:03:05,19:17:43,NA,incomplete,227,color,1,left,Purple_Circle_Dots_4.jpg,Purple_Plus_Grid_3.jpg,Red_Circle_Chess_2.jpg,left,556.1349999916274,true,low,NA,NA,NA,NA,NA,NA,NA,false
1YRhd0DX,3ka7ijsnx9iy5qpdnesn7gsg38gpb3,3pb5a5bd0zj7dlriygvmxpoj2d27gb,1YRhd0DX,2020-0188,2020-05-07,19:03:05,19:17:43,NA,incomplete,228,color,1,left,Purple_Triangle_Chess_1.jpg,Purple_Plus_Stripes_4.jpg,Red_Triangle_Grid_2.jpg,left,666.8150000041351,true,low,NA,NA,NA,NA,NA,NA,NA,false
1YRhd0DX,3ka7ijsnx9iy5qpdnesn7gsg38gpb3,3pb5a5bd0zj7dlriygvmxpoj2d27gb,1YRhd0DX,2020-0188,2020-05-07,19:03:05,19:17:43,NA,incomplete,229,color,0,right,Blue_Circle_Stripes_3.jpg,Green_Circle_Grid_2.jpg,Blue_Triangle_Dots_4.jpg,right,562.0549999875948,true,low,NA,NA,NA,NA,NA,NA,NA,false
1YRhd0DX,3ka7ijsnx9iy5qpdnesn7gsg38gpb3,3pb5a5bd0zj7dlriygvmxpoj2d27gb,1YRhd0DX,2020-0188,2020-05-07,19:03:05,19:17:43,NA,incomplete,230,color,1,right,Blue_Circle_Dots_3.jpg,Green_Circle_Stripes_1.jpg,Blue_Triangle_Grid_4.jpg,right,446.41000000410713,true,low,NA,NA,NA,NA,NA,NA,NA,false
1YRhd0DX,3ka7ijsnx9iy5qpdnesn7gsg38gpb3,3pb5a5bd0zj7dlriygvmxpoj2d27gb,1YRhd0DX,2020-0188,2020-05-07,19:03:05,19:17:43,NA,incomplete,231,color,1,right,Green_Circle_Dots_4.jpg,Red_Circle_Stripes_2.jpg,Green_Plus_Chess_1.jpg,right,520.9150000009686,true,low,NA,NA,NA,NA,NA,NA,NA,false
1YRhd0DX,3ka7ijsnx9iy5qpdnesn7gsg38gpb3,3pb5a5bd0zj7dlriygvmxpoj2d27gb,1YRhd0DX,2020-0188,2020-05-07,19:03:05,19:17:43,NA,incomplete,232,color,0,right,Red_Circle_Dots_3.jpg,Green_Circle_Stripes_4.jpg,Red_Star_Grid_1.jpg,right,403.46499999577645,true,low,NA,NA,NA,NA,NA,NA,NA,false
1YRhd0DX,3ka7ijsnx9iy5qpdnesn7gsg38gpb3,3pb5a5bd0zj7dlriygvmxpoj2d27gb,1YRhd0DX,2020-0188,2020-05-07,19:03:05,19:17:43,NA,incomplete,233,color,1,right,Red_Triangle_Grid_3.jpg,Purple_Triangle_Stripes_1.jpg,Red_Plus_Dots_2.jpg,right,521.3050000020303,true,low,NA,NA,NA,NA,NA,NA,NA,false
1YRhd0DX,3ka7ijsnx9iy5qpdnesn7gsg38gpb3,3pb5a5bd0zj7dlriygvmxpoj2d27gb,1YRhd0DX,2020-0188,2020-05-07,19:03:05,19:17:43,NA,incomplete,234,color,0,left,Purple_Circle_Dots_3.jpg,Purple_Plus_Stripes_2.jpg,Blue_Circle_Grid_1.jpg,left,559.6050000021933,true,low,NA,NA,NA,NA,NA,NA,NA,false
1YRhd0DX,3ka7ijsnx9iy5qpdnesn7gsg38gpb3,3pb5a5bd0zj7dlriygvmxpoj2d27gb,1YRhd0DX,2020-0188,2020-05-07,19:03:05,19:17:43,NA,incomplete,235,color,1,right,Purple_Triangle_Dots_4.jpg,Red_Triangle_Stripes_2.jpg,Purple_Plus_Grid_1.jpg,left,709.499999997206,false,low,NA,NA,NA,NA,NA,NA,NA,false
1YRhd0DX,3ka7ijsnx9iy5qpdnesn7gsg38gpb3,3pb5a5bd0zj7dlriygvmxpoj2d27gb,1YRhd0DX,2020-0188,2020-05-07,19:03:05,19:17:43,NA,incomplete,236,color,1,right,Blue_Plus_Stripes_4.jpg,Red_Plus_Chess_2.jpg,Blue_Triangle_Dots_3.jpg,right,489.2200000031153,true,low,NA,NA,NA,NA,NA,NA,NA,false
1YRhd0DX,3ka7ijsnx9iy5qpdnesn7gsg38gpb3,3pb5a5bd0zj7dlriygvmxpoj2d27gb,1YRhd0DX,2020-0188,2020-05-07,19:03:05,19:17:43,NA,incomplete,237,color,1,right,Red_Plus_Dots_4.jpg,Blue_Plus_Stripes_3.jpg,Red_Triangle_Chess_1.jpg,right,554.3000000034226,true,low,NA,NA,NA,NA,NA,NA,NA,false
1YRhd0DX,3ka7ijsnx9iy5qpdnesn7gsg38gpb3,3pb5a5bd0zj7dlriygvmxpoj2d27gb,1YRhd0DX,2020-0188,2020-05-07,19:03:05,19:17:43,NA,incomplete,238,color,1,left,Purple_Star_Dots_1.jpg,Purple_Triangle_Chess_3.jpg,Red_Star_Stripes_4.jpg,left,622.4199999996927,true,low,NA,NA,NA,NA,NA,NA,NA,false
1YRhd0DX,3ka7ijsnx9iy5qpdnesn7gsg38gpb3,3pb5a5bd0zj7dlriygvmxpoj2d27gb,1YRhd0DX,2020-0188,2020-05-07,19:03:05,19:17:43,NA,incomplete,239,color,1,left,Blue_Star_Chess_4.jpg,Blue_Triangle_Dots_3.jpg,Green_Star_Stripes_2.jpg,left,654.0649999951711,true,low,NA,NA,NA,NA,NA,NA,NA,false
1YRhd0DX,3ka7ijsnx9iy5qpdnesn7gsg38gpb3,3pb5a5bd0zj7dlriygvmxpoj2d27gb,1YRhd0DX,2020-0188,2020-05-07,19:03:05,19:17:43,779471.3150000025,877630.7550000056,NA,NA,NA,NA,NA,NA,NA,NA,NA,NA,NA,55,White/Caucasian,Female,European maaAmerican (I can't backspace here!),no,yes,no,undefined
