workerId,hitId,assignmentId,subject,studyid,exp_date,exp_start,exp_end,time_start,time_end,trial,type,reward_validity,answer,image_top,image_left,image_right,response,response_time,response_acc,volatility,practice
OwEvveDj,36818z1kw6qmfrfyj2vkz259guma30,3q5zz9zevssdx27hrp417stpott85r,OwEvveDj,2020-0188,2020-05-08,13:41:45,13:56:16,NA,incomplete,0,shape,0,left,Purple_Triangle_Stripes_3.jpg,Red_Triangle_Grid_1.jpg,Green_Plus_Dots_3.jpg,right,1052.2499999933643,false,NA,true
OwEvveDj,36818z1kw6qmfrfyj2vkz259guma30,3q5zz9zevssdx27hrp417stpott85r,OwEvveDj,2020-0188,2020-05-08,13:41:45,13:56:16,NA,incomplete,1,shape,1,right,Purple_Triangle_Chess_4.jpg,Green_Circle_Grid_4.jpg,Red_Triangle_Dots_3.jpg,right,1583.920000004582,true,NA,true
OwEvveDj,36818z1kw6qmfrfyj2vkz259guma30,3q5zz9zevssdx27hrp417stpott85r,OwEvveDj,2020-0188,2020-05-08,13:41:45,13:56:16,NA,incomplete,2,shape,1,left,Purple_Circle_Grid_1.jpg,Red_Circle_Dots_2.jpg,Blue_Plus_Stripes_1.jpg,left,983.9749999955529,true,NA,true
OwEvveDj,36818z1kw6qmfrfyj2vkz259guma30,3q5zz9zevssdx27hrp417stpott85r,OwEvveDj,2020-0188,2020-05-08,13:41:45,13:56:16,NA,incomplete,3,shape,1,right,Green_Plus_Chess_1.jpg,Blue_Star_Dots_1.jpg,Red_Plus_Grid_3.jpg,right,912.1450000093319,true,NA,true
OwEvveDj,36818z1kw6qmfrfyj2vkz259guma30,3q5zz9zevssdx27hrp417stpott85r,OwEvveDj,2020-0188,2020-05-08,13:41:45,13:56:16,NA,incomplete,4,shape,0,left,Red_Triangle_Grid_2.jpg,Purple_Triangle_Chess_3.jpg,Blue_Plus_Stripes_2.jpg,left,853.8100000005215,true,NA,true
OwEvveDj,36818z1kw6qmfrfyj2vkz259guma30,3q5zz9zevssdx27hrp417stpott85r,OwEvveDj,2020-0188,2020-05-08,13:41:45,13:56:16,NA,incomplete,5,shape,1,right,Blue_Star_Dots_2.jpg,Red_Plus_Stripes_2.jpg,Purple_Star_Chess_4.jpg,right,1103.9899999886984,true,NA,true
OwEvveDj,36818z1kw6qmfrfyj2vkz259guma30,3q5zz9zevssdx27hrp417stpott85r,OwEvveDj,2020-0188,2020-05-08,13:41:45,13:56:16,NA,incomplete,6,shape,0,left,Blue_Star_Grid_3.jpg,Green_Star_Stripes_4.jpg,Red_Circle_Chess_3.jpg,left,998.9349999959813,true,NA,true
OwEvveDj,36818z1kw6qmfrfyj2vkz259guma30,3q5zz9zevssdx27hrp417stpott85r,OwEvveDj,2020-0188,2020-05-08,13:41:45,13:56:16,NA,incomplete,7,shape,1,right,Red_Circle_Stripes_1.jpg,Green_Plus_Grid_1.jpg,Blue_Circle_Chess_2.jpg,right,975.334999995539,true,NA,true
OwEvveDj,36818z1kw6qmfrfyj2vkz259guma30,3q5zz9zevssdx27hrp417stpott85r,OwEvveDj,2020-0188,2020-05-08,13:41:45,13:56:16,NA,incomplete,8,shape,1,right,Blue_Star_Grid_1.jpg,Green_Plus_Chess_1.jpg,Red_Star_Dots_2.jpg,right,896.6400000063004,true,NA,true
OwEvveDj,36818z1kw6qmfrfyj2vkz259guma30,3q5zz9zevssdx27hrp417stpott85r,OwEvveDj,2020-0188,2020-05-08,13:41:45,13:56:16,NA,incomplete,9,shape,1,left,Green_Plus_Dots_2.jpg,Purple_Plus_Grid_1.jpg,Blue_Circle_Chess_2.jpg,left,884.7049999894807,true,NA,true
OwEvveDj,36818z1kw6qmfrfyj2vkz259guma30,3q5zz9zevssdx27hrp417stpott85r,OwEvveDj,2020-0188,2020-05-08,13:41:45,13:56:16,NA,incomplete,10,shape,1,left,Green_Plus_Dots_2.jpg,Blue_Plus_Chess_4.jpg,Red_Circle_Grid_2.jpg,left,1010.6099999975413,true,NA,true
OwEvveDj,36818z1kw6qmfrfyj2vkz259guma30,3q5zz9zevssdx27hrp417stpott85r,OwEvveDj,2020-0188,2020-05-08,13:41:45,13:56:16,NA,incomplete,11,shape,1,left,Blue_Circle_Chess_1.jpg,Purple_Circle_Grid_4.jpg,Red_Plus_Dots_1.jpg,left,779.7050000081072,true,NA,true
OwEvveDj,36818z1kw6qmfrfyj2vkz259guma30,3q5zz9zevssdx27hrp417stpott85r,OwEvveDj,2020-0188,2020-05-08,13:41:45,13:56:16,NA,incomplete,12,shape,1,right,Blue_Plus_Grid_2.jpg,Red_Triangle_Stripes_2.jpg,Green_Plus_Dots_4.jpg,right,597.4199999909615,true,NA,true
OwEvveDj,36818z1kw6qmfrfyj2vkz259guma30,3q5zz9zevssdx27hrp417stpott85r,OwEvveDj,2020-0188,2020-05-08,13:41:45,13:56:16,NA,incomplete,13,shape,1,right,Blue_Triangle_Stripes_1.jpg,Purple_Plus_Grid_1.jpg,Red_Triangle_Chess_3.jpg,right,758.3400000003166,true,NA,true
OwEvveDj,36818z1kw6qmfrfyj2vkz259guma30,3q5zz9zevssdx27hrp417stpott85r,OwEvveDj,2020-0188,2020-05-08,13:41:45,13:56:16,NA,incomplete,14,shape,1,left,Red_Triangle_Dots_2.jpg,Blue_Triangle_Stripes_1.jpg,Purple_Plus_Grid_2.jpg,left,714.3999999971129,true,NA,true
OwEvveDj,36818z1kw6qmfrfyj2vkz259guma30,3q5zz9zevssdx27hrp417stpott85r,OwEvveDj,2020-0188,2020-05-08,13:41:45,13:56:16,NA,incomplete,15,shape,1,left,Purple_Circle_Stripes_1.jpg,Blue_Circle_Grid_2.jpg,Green_Star_Dots_1.jpg,left,589.5299999974668,true,NA,true
OwEvveDj,36818z1kw6qmfrfyj2vkz259guma30,3q5zz9zevssdx27hrp417stpott85r,OwEvveDj,2020-0188,2020-05-08,13:41:45,13:56:16,NA,incomplete,16,shape,1,left,Blue_Plus_Dots_2.jpg,Purple_Plus_Chess_4.jpg,Green_Star_Grid_2.jpg,left,668.454999991809,true,NA,true
OwEvveDj,36818z1kw6qmfrfyj2vkz259guma30,3q5zz9zevssdx27hrp417stpott85r,OwEvveDj,2020-0188,2020-05-08,13:41:45,13:56:16,NA,incomplete,17,shape,1,right,Green_Star_Grid_2.jpg,Red_Circle_Stripes_2.jpg,Purple_Star_Dots_3.jpg,right,610.1400000043213,true,NA,true
OwEvveDj,36818z1kw6qmfrfyj2vkz259guma30,3q5zz9zevssdx27hrp417stpott85r,OwEvveDj,2020-0188,2020-05-08,13:41:45,13:56:16,NA,incomplete,18,shape,1,left,Green_Triangle_Chess_2.jpg,Blue_Triangle_Stripes_3.jpg,Red_Star_Grid_2.jpg,left,615.1000000099884,true,NA,true
OwEvveDj,36818z1kw6qmfrfyj2vkz259guma30,3q5zz9zevssdx27hrp417stpott85r,OwEvveDj,2020-0188,2020-05-08,13:41:45,13:56:16,NA,incomplete,19,shape,1,left,Green_Plus_Grid_4.jpg,Red_Plus_Dots_3.jpg,Purple_Triangle_Chess_4.jpg,left,848.5599999985425,true,NA,true
OwEvveDj,36818z1kw6qmfrfyj2vkz259guma30,3q5zz9zevssdx27hrp417stpott85r,OwEvveDj,2020-0188,2020-05-08,13:41:45,13:56:16,NA,incomplete,20,number,1,right,Blue_Plus_Chess_3.jpg,Red_Plus_Dots_2.jpg,Green_Star_Grid_3.jpg,right,557.7750000084052,true,NA,true
OwEvveDj,36818z1kw6qmfrfyj2vkz259guma30,3q5zz9zevssdx27hrp417stpott85r,OwEvveDj,2020-0188,2020-05-08,13:41:45,13:56:16,NA,incomplete,21,number,0,left,Purple_Circle_Grid_4.jpg,Blue_Plus_Chess_4.jpg,Green_Circle_Stripes_1.jpg,none,0,false,NA,true
OwEvveDj,36818z1kw6qmfrfyj2vkz259guma30,3q5zz9zevssdx27hrp417stpott85r,OwEvveDj,2020-0188,2020-05-08,13:41:45,13:56:16,NA,incomplete,22,number,0,left,Green_Circle_Grid_3.jpg,Red_Triangle_Dots_3.jpg,Blue_Circle_Chess_1.jpg,left,1080.5849999887869,true,NA,true
OwEvveDj,36818z1kw6qmfrfyj2vkz259guma30,3q5zz9zevssdx27hrp417stpott85r,OwEvveDj,2020-0188,2020-05-08,13:41:45,13:56:16,NA,incomplete,23,number,1,left,Green_Circle_Dots_4.jpg,Blue_Plus_Grid_4.jpg,Purple_Circle_Stripes_2.jpg,left,693.72999999905,true,NA,true
OwEvveDj,36818z1kw6qmfrfyj2vkz259guma30,3q5zz9zevssdx27hrp417stpott85r,OwEvveDj,2020-0188,2020-05-08,13:41:45,13:56:16,NA,incomplete,24,number,0,right,Blue_Triangle_Grid_3.jpg,Green_Triangle_Chess_2.jpg,Red_Circle_Dots_3.jpg,left,856.0150000121212,false,NA,true
OwEvveDj,36818z1kw6qmfrfyj2vkz259guma30,3q5zz9zevssdx27hrp417stpott85r,OwEvveDj,2020-0188,2020-05-08,13:41:45,13:56:16,NA,incomplete,25,number,1,left,Purple_Plus_Grid_4.jpg,Blue_Circle_Chess_4.jpg,Red_Plus_Dots_1.jpg,left,1363.2250000082422,true,NA,true
OwEvveDj,36818z1kw6qmfrfyj2vkz259guma30,3q5zz9zevssdx27hrp417stpott85r,OwEvveDj,2020-0188,2020-05-08,13:41:45,13:56:16,NA,incomplete,26,number,1,left,Purple_Circle_Dots_1.jpg,Red_Plus_Stripes_1.jpg,Blue_Circle_Grid_3.jpg,left,1043.7149999925168,true,NA,true
OwEvveDj,36818z1kw6qmfrfyj2vkz259guma30,3q5zz9zevssdx27hrp417stpott85r,OwEvveDj,2020-0188,2020-05-08,13:41:45,13:56:16,NA,incomplete,27,number,1,right,Green_Star_Dots_1.jpg,Purple_Star_Stripes_2.jpg,Blue_Plus_Chess_1.jpg,right,860.964999999851,true,NA,true
OwEvveDj,36818z1kw6qmfrfyj2vkz259guma30,3q5zz9zevssdx27hrp417stpott85r,OwEvveDj,2020-0188,2020-05-08,13:41:45,13:56:16,NA,incomplete,28,number,1,right,Purple_Star_Chess_3.jpg,Blue_Star_Grid_2.jpg,Red_Circle_Dots_3.jpg,left,780.8050000021467,false,NA,true
OwEvveDj,36818z1kw6qmfrfyj2vkz259guma30,3q5zz9zevssdx27hrp417stpott85r,OwEvveDj,2020-0188,2020-05-08,13:41:45,13:56:16,NA,incomplete,29,number,1,right,Red_Circle_Grid_4.jpg,Blue_Circle_Stripes_2.jpg,Purple_Star_Chess_4.jpg,right,962.4800000019604,true,NA,true
OwEvveDj,36818z1kw6qmfrfyj2vkz259guma30,3q5zz9zevssdx27hrp417stpott85r,OwEvveDj,2020-0188,2020-05-08,13:41:45,13:56:16,NA,incomplete,30,number,1,left,Blue_Star_Grid_1.jpg,Green_Circle_Chess_1.jpg,Red_Star_Dots_3.jpg,left,786.6549999889685,true,NA,true
OwEvveDj,36818z1kw6qmfrfyj2vkz259guma30,3q5zz9zevssdx27hrp417stpott85r,OwEvveDj,2020-0188,2020-05-08,13:41:45,13:56:16,NA,incomplete,31,number,1,left,Blue_Circle_Dots_4.jpg,Green_Triangle_Grid_4.jpg,Purple_Circle_Stripes_3.jpg,left,882.6200000039535,true,NA,true
OwEvveDj,36818z1kw6qmfrfyj2vkz259guma30,3q5zz9zevssdx27hrp417stpott85r,OwEvveDj,2020-0188,2020-05-08,13:41:45,13:56:16,NA,incomplete,32,number,0,right,Purple_Circle_Chess_4.jpg,Green_Circle_Stripes_3.jpg,Blue_Plus_Dots_4.jpg,right,922.3399999900721,true,NA,true
OwEvveDj,36818z1kw6qmfrfyj2vkz259guma30,3q5zz9zevssdx27hrp417stpott85r,OwEvveDj,2020-0188,2020-05-08,13:41:45,13:56:16,NA,incomplete,33,number,1,left,Green_Circle_Dots_4.jpg,Red_Plus_Chess_4.jpg,Blue_Circle_Grid_1.jpg,left,826.8150000076275,true,NA,true
OwEvveDj,36818z1kw6qmfrfyj2vkz259guma30,3q5zz9zevssdx27hrp417stpott85r,OwEvveDj,2020-0188,2020-05-08,13:41:45,13:56:16,NA,incomplete,34,number,1,left,Purple_Star_Dots_1.jpg,Red_Triangle_Chess_1.jpg,Blue_Star_Grid_2.jpg,left,798.2250000059139,true,NA,true
OwEvveDj,36818z1kw6qmfrfyj2vkz259guma30,3q5zz9zevssdx27hrp417stpott85r,OwEvveDj,2020-0188,2020-05-08,13:41:45,13:56:16,NA,incomplete,35,number,1,left,Purple_Circle_Dots_3.jpg,Blue_Star_Chess_3.jpg,Red_Circle_Stripes_1.jpg,left,783.0499999981839,true,NA,true
OwEvveDj,36818z1kw6qmfrfyj2vkz259guma30,3q5zz9zevssdx27hrp417stpott85r,OwEvveDj,2020-0188,2020-05-08,13:41:45,13:56:16,NA,incomplete,36,number,1,right,Purple_Star_Grid_1.jpg,Green_Star_Chess_2.jpg,Red_Circle_Dots_1.jpg,right,666.270000001532,true,NA,true
OwEvveDj,36818z1kw6qmfrfyj2vkz259guma30,3q5zz9zevssdx27hrp417stpott85r,OwEvveDj,2020-0188,2020-05-08,13:41:45,13:56:16,NA,incomplete,37,number,1,left,Blue_Triangle_Chess_2.jpg,Green_Circle_Stripes_2.jpg,Red_Triangle_Dots_1.jpg,left,737.0799999916926,true,NA,true
OwEvveDj,36818z1kw6qmfrfyj2vkz259guma30,3q5zz9zevssdx27hrp417stpott85r,OwEvveDj,2020-0188,2020-05-08,13:41:45,13:56:16,NA,incomplete,38,number,1,left,Green_Circle_Dots_1.jpg,Blue_Triangle_Grid_1.jpg,Red_Circle_Chess_4.jpg,left,759.7099999984493,true,NA,true
OwEvveDj,36818z1kw6qmfrfyj2vkz259guma30,3q5zz9zevssdx27hrp417stpott85r,OwEvveDj,2020-0188,2020-05-08,13:41:45,13:56:16,NA,incomplete,39,number,0,left,Blue_Triangle_Dots_4.jpg,Red_Circle_Stripes_4.jpg,Purple_Triangle_Chess_2.jpg,left,733.7100000004284,true,NA,true
OwEvveDj,36818z1kw6qmfrfyj2vkz259guma30,3q5zz9zevssdx27hrp417stpott85r,OwEvveDj,2020-0188,2020-05-08,13:41:45,13:56:16,NA,incomplete,0,shape,1,right,Green_Star_Grid_1.jpg,Blue_Triangle_Stripes_1.jpg,Red_Star_Chess_4.jpg,right,811.840000009397,true,high,false
OwEvveDj,36818z1kw6qmfrfyj2vkz259guma30,3q5zz9zevssdx27hrp417stpott85r,OwEvveDj,2020-0188,2020-05-08,13:41:45,13:56:16,NA,incomplete,1,shape,1,left,Purple_Triangle_Grid_2.jpg,Blue_Triangle_Chess_4.jpg,Red_Circle_Dots_2.jpg,left,886.4999999932479,true,high,false
OwEvveDj,36818z1kw6qmfrfyj2vkz259guma30,3q5zz9zevssdx27hrp417stpott85r,OwEvveDj,2020-0188,2020-05-08,13:41:45,13:56:16,NA,incomplete,2,shape,0,left,Red_Circle_Grid_4.jpg,Green_Circle_Dots_2.jpg,Blue_Star_Chess_4.jpg,left,712.4299999995856,true,high,false
OwEvveDj,36818z1kw6qmfrfyj2vkz259guma30,3q5zz9zevssdx27hrp417stpott85r,OwEvveDj,2020-0188,2020-05-08,13:41:45,13:56:16,NA,incomplete,3,shape,0,right,Green_Triangle_Stripes_2.jpg,Blue_Star_Dots_2.jpg,Purple_Triangle_Chess_3.jpg,right,744.0550000028452,true,high,false
OwEvveDj,36818z1kw6qmfrfyj2vkz259guma30,3q5zz9zevssdx27hrp417stpott85r,OwEvveDj,2020-0188,2020-05-08,13:41:45,13:56:16,NA,incomplete,4,shape,0,right,Green_Plus_Grid_4.jpg,Blue_Star_Dots_4.jpg,Purple_Plus_Chess_3.jpg,left,1081.7400000087218,false,high,false
OwEvveDj,36818z1kw6qmfrfyj2vkz259guma30,3q5zz9zevssdx27hrp417stpott85r,OwEvveDj,2020-0188,2020-05-08,13:41:45,13:56:16,NA,incomplete,5,shape,1,left,Green_Circle_Grid_1.jpg,Red_Circle_Chess_4.jpg,Purple_Triangle_Dots_1.jpg,right,911.6099999955622,false,high,false
OwEvveDj,36818z1kw6qmfrfyj2vkz259guma30,3q5zz9zevssdx27hrp417stpott85r,OwEvveDj,2020-0188,2020-05-08,13:41:45,13:56:16,NA,incomplete,6,shape,1,right,Green_Star_Grid_3.jpg,Purple_Circle_Chess_3.jpg,Red_Star_Dots_1.jpg,right,855.0249999971129,true,high,false
OwEvveDj,36818z1kw6qmfrfyj2vkz259guma30,3q5zz9zevssdx27hrp417stpott85r,OwEvveDj,2020-0188,2020-05-08,13:41:45,13:56:16,NA,incomplete,7,shape,1,right,Purple_Plus_Grid_4.jpg,Blue_Triangle_Stripes_4.jpg,Red_Plus_Dots_2.jpg,right,865.0049999996554,true,high,false
OwEvveDj,36818z1kw6qmfrfyj2vkz259guma30,3q5zz9zevssdx27hrp417stpott85r,OwEvveDj,2020-0188,2020-05-08,13:41:45,13:56:16,NA,incomplete,8,shape,1,right,Purple_Star_Dots_2.jpg,Red_Triangle_Stripes_2.jpg,Blue_Star_Chess_1.jpg,right,938.5049999982584,true,high,false
OwEvveDj,36818z1kw6qmfrfyj2vkz259guma30,3q5zz9zevssdx27hrp417stpott85r,OwEvveDj,2020-0188,2020-05-08,13:41:45,13:56:16,NA,incomplete,9,shape,1,left,Blue_Plus_Dots_3.jpg,Green_Plus_Stripes_4.jpg,Purple_Triangle_Chess_3.jpg,right,1346.4250000106404,false,high,false
OwEvveDj,36818z1kw6qmfrfyj2vkz259guma30,3q5zz9zevssdx27hrp417stpott85r,OwEvveDj,2020-0188,2020-05-08,13:41:45,13:56:16,NA,incomplete,10,number,1,right,Blue_Circle_Grid_1.jpg,Red_Circle_Stripes_4.jpg,Green_Triangle_Dots_1.jpg,left,868.0200000089826,false,high,false
OwEvveDj,36818z1kw6qmfrfyj2vkz259guma30,3q5zz9zevssdx27hrp417stpott85r,OwEvveDj,2020-0188,2020-05-08,13:41:45,13:56:16,NA,incomplete,11,number,1,left,Red_Plus_Dots_1.jpg,Blue_Circle_Chess_1.jpg,Green_Plus_Grid_3.jpg,left,676.1199999891687,true,high,false
OwEvveDj,36818z1kw6qmfrfyj2vkz259guma30,3q5zz9zevssdx27hrp417stpott85r,OwEvveDj,2020-0188,2020-05-08,13:41:45,13:56:16,NA,incomplete,12,number,1,left,Red_Star_Grid_3.jpg,Green_Plus_Chess_3.jpg,Purple_Star_Stripes_1.jpg,left,1357.9800000006799,true,high,false
OwEvveDj,36818z1kw6qmfrfyj2vkz259guma30,3q5zz9zevssdx27hrp417stpott85r,OwEvveDj,2020-0188,2020-05-08,13:41:45,13:56:16,NA,incomplete,13,number,1,left,Blue_Circle_Dots_4.jpg,Red_Plus_Grid_4.jpg,Green_Circle_Chess_3.jpg,left,786.7150000092806,true,high,false
OwEvveDj,36818z1kw6qmfrfyj2vkz259guma30,3q5zz9zevssdx27hrp417stpott85r,OwEvveDj,2020-0188,2020-05-08,13:41:45,13:56:16,NA,incomplete,14,number,0,right,Green_Plus_Grid_1.jpg,Purple_Plus_Stripes_2.jpg,Red_Circle_Chess_1.jpg,right,1038.300000000163,true,high,false
OwEvveDj,36818z1kw6qmfrfyj2vkz259guma30,3q5zz9zevssdx27hrp417stpott85r,OwEvveDj,2020-0188,2020-05-08,13:41:45,13:56:16,NA,incomplete,15,number,1,left,Blue_Circle_Stripes_4.jpg,Green_Triangle_Grid_4.jpg,Purple_Circle_Dots_3.jpg,left,1053.410000007716,true,high,false
OwEvveDj,36818z1kw6qmfrfyj2vkz259guma30,3q5zz9zevssdx27hrp417stpott85r,OwEvveDj,2020-0188,2020-05-08,13:41:45,13:56:16,NA,incomplete,16,number,1,right,Green_Triangle_Chess_2.jpg,Red_Triangle_Dots_4.jpg,Purple_Plus_Stripes_2.jpg,right,787.4299999966752,true,high,false
OwEvveDj,36818z1kw6qmfrfyj2vkz259guma30,3q5zz9zevssdx27hrp417stpott85r,OwEvveDj,2020-0188,2020-05-08,13:41:45,13:56:16,NA,incomplete,17,number,1,right,Purple_Triangle_Grid_3.jpg,Red_Triangle_Dots_1.jpg,Green_Circle_Chess_3.jpg,right,726.569999998901,true,high,false
OwEvveDj,36818z1kw6qmfrfyj2vkz259guma30,3q5zz9zevssdx27hrp417stpott85r,OwEvveDj,2020-0188,2020-05-08,13:41:45,13:56:16,NA,incomplete,18,number,1,right,Blue_Plus_Stripes_4.jpg,Green_Plus_Grid_3.jpg,Red_Circle_Dots_4.jpg,right,792.8499999979977,true,high,false
OwEvveDj,36818z1kw6qmfrfyj2vkz259guma30,3q5zz9zevssdx27hrp417stpott85r,OwEvveDj,2020-0188,2020-05-08,13:41:45,13:56:16,NA,incomplete,19,number,1,left,Green_Star_Stripes_4.jpg,Purple_Triangle_Chess_4.jpg,Blue_Star_Grid_1.jpg,left,711.8300000001909,true,high,false
OwEvveDj,36818z1kw6qmfrfyj2vkz259guma30,3q5zz9zevssdx27hrp417stpott85r,OwEvveDj,2020-0188,2020-05-08,13:41:45,13:56:16,NA,incomplete,20,shape,0,left,Purple_Plus_Chess_2.jpg,Green_Plus_Stripes_4.jpg,Red_Star_Grid_2.jpg,right,699.8750000057044,false,high,false
OwEvveDj,36818z1kw6qmfrfyj2vkz259guma30,3q5zz9zevssdx27hrp417stpott85r,OwEvveDj,2020-0188,2020-05-08,13:41:45,13:56:16,NA,incomplete,21,shape,1,right,Red_Star_Chess_4.jpg,Green_Circle_Dots_4.jpg,Purple_Star_Grid_2.jpg,right,697.8400000080001,true,high,false
OwEvveDj,36818z1kw6qmfrfyj2vkz259guma30,3q5zz9zevssdx27hrp417stpott85r,OwEvveDj,2020-0188,2020-05-08,13:41:45,13:56:16,NA,incomplete,22,shape,1,left,Green_Circle_Dots_4.jpg,Blue_Circle_Stripes_3.jpg,Red_Star_Chess_4.jpg,left,693.7099999922793,true,high,false
OwEvveDj,36818z1kw6qmfrfyj2vkz259guma30,3q5zz9zevssdx27hrp417stpott85r,OwEvveDj,2020-0188,2020-05-08,13:41:45,13:56:16,NA,incomplete,23,shape,1,right,Red_Circle_Stripes_3.jpg,Green_Plus_Grid_3.jpg,Blue_Circle_Chess_2.jpg,right,620.3499999974156,true,high,false
OwEvveDj,36818z1kw6qmfrfyj2vkz259guma30,3q5zz9zevssdx27hrp417stpott85r,OwEvveDj,2020-0188,2020-05-08,13:41:45,13:56:16,NA,incomplete,24,shape,1,right,Green_Plus_Dots_2.jpg,Purple_Circle_Grid_2.jpg,Blue_Plus_Stripes_4.jpg,right,666.6450000047917,true,high,false
OwEvveDj,36818z1kw6qmfrfyj2vkz259guma30,3q5zz9zevssdx27hrp417stpott85r,OwEvveDj,2020-0188,2020-05-08,13:41:45,13:56:16,NA,incomplete,25,shape,1,left,Purple_Star_Chess_1.jpg,Green_Star_Dots_4.jpg,Red_Plus_Stripes_1.jpg,right,635.695000004489,false,high,false
OwEvveDj,36818z1kw6qmfrfyj2vkz259guma30,3q5zz9zevssdx27hrp417stpott85r,OwEvveDj,2020-0188,2020-05-08,13:41:45,13:56:16,NA,incomplete,26,shape,1,left,Red_Star_Grid_1.jpg,Blue_Star_Stripes_3.jpg,Purple_Circle_Dots_1.jpg,left,705.7950000016717,true,high,false
OwEvveDj,36818z1kw6qmfrfyj2vkz259guma30,3q5zz9zevssdx27hrp417stpott85r,OwEvveDj,2020-0188,2020-05-08,13:41:45,13:56:16,NA,incomplete,27,shape,0,left,Green_Triangle_Grid_4.jpg,Blue_Triangle_Stripes_3.jpg,Purple_Star_Dots_4.jpg,left,781.8300000071758,true,high,false
OwEvveDj,36818z1kw6qmfrfyj2vkz259guma30,3q5zz9zevssdx27hrp417stpott85r,OwEvveDj,2020-0188,2020-05-08,13:41:45,13:56:16,NA,incomplete,28,shape,1,right,Blue_Triangle_Grid_4.jpg,Red_Star_Dots_4.jpg,Purple_Triangle_Stripes_2.jpg,right,626.4400000072783,true,high,false
OwEvveDj,36818z1kw6qmfrfyj2vkz259guma30,3q5zz9zevssdx27hrp417stpott85r,OwEvveDj,2020-0188,2020-05-08,13:41:45,13:56:16,NA,incomplete,29,shape,1,right,Purple_Star_Stripes_2.jpg,Green_Triangle_Dots_2.jpg,Red_Star_Grid_4.jpg,right,711.8400000035763,true,high,false
OwEvveDj,36818z1kw6qmfrfyj2vkz259guma30,3q5zz9zevssdx27hrp417stpott85r,OwEvveDj,2020-0188,2020-05-08,13:41:45,13:56:16,NA,incomplete,30,number,1,right,Red_Circle_Chess_1.jpg,Blue_Circle_Dots_3.jpg,Green_Star_Grid_1.jpg,left,880.8250000001863,false,high,false
OwEvveDj,36818z1kw6qmfrfyj2vkz259guma30,3q5zz9zevssdx27hrp417stpott85r,OwEvveDj,2020-0188,2020-05-08,13:41:45,13:56:16,NA,incomplete,31,number,1,left,Purple_Triangle_Chess_1.jpg,Green_Star_Grid_1.jpg,Red_Triangle_Stripes_4.jpg,right,816.8799999984913,false,high,false
OwEvveDj,36818z1kw6qmfrfyj2vkz259guma30,3q5zz9zevssdx27hrp417stpott85r,OwEvveDj,2020-0188,2020-05-08,13:41:45,13:56:16,NA,incomplete,32,number,0,left,Purple_Plus_Stripes_3.jpg,Red_Star_Grid_3.jpg,Blue_Plus_Chess_1.jpg,left,1141.95999999356,true,high,false
OwEvveDj,36818z1kw6qmfrfyj2vkz259guma30,3q5zz9zevssdx27hrp417stpott85r,OwEvveDj,2020-0188,2020-05-08,13:41:45,13:56:16,NA,incomplete,33,number,0,left,Blue_Triangle_Dots_3.jpg,Purple_Plus_Chess_3.jpg,Red_Triangle_Grid_2.jpg,right,806.284999998752,false,high,false
OwEvveDj,36818z1kw6qmfrfyj2vkz259guma30,3q5zz9zevssdx27hrp417stpott85r,OwEvveDj,2020-0188,2020-05-08,13:41:45,13:56:16,NA,incomplete,34,number,0,left,Purple_Triangle_Dots_2.jpg,Red_Plus_Stripes_2.jpg,Green_Triangle_Chess_4.jpg,right,828.7050000071758,false,high,false
OwEvveDj,36818z1kw6qmfrfyj2vkz259guma30,3q5zz9zevssdx27hrp417stpott85r,OwEvveDj,2020-0188,2020-05-08,13:41:45,13:56:16,NA,incomplete,35,number,1,right,Green_Circle_Grid_1.jpg,Red_Circle_Dots_4.jpg,Purple_Star_Chess_1.jpg,left,717.6949999993667,false,high,false
OwEvveDj,36818z1kw6qmfrfyj2vkz259guma30,3q5zz9zevssdx27hrp417stpott85r,OwEvveDj,2020-0188,2020-05-08,13:41:45,13:56:16,NA,incomplete,36,number,1,left,Green_Star_Chess_2.jpg,Red_Plus_Grid_2.jpg,Purple_Star_Dots_1.jpg,right,838.4000000078231,false,high,false
OwEvveDj,36818z1kw6qmfrfyj2vkz259guma30,3q5zz9zevssdx27hrp417stpott85r,OwEvveDj,2020-0188,2020-05-08,13:41:45,13:56:16,NA,incomplete,37,number,0,left,Blue_Plus_Stripes_1.jpg,Purple_Circle_Chess_1.jpg,Green_Plus_Grid_3.jpg,left,677.3399999947287,true,high,false
OwEvveDj,36818z1kw6qmfrfyj2vkz259guma30,3q5zz9zevssdx27hrp417stpott85r,OwEvveDj,2020-0188,2020-05-08,13:41:45,13:56:16,NA,incomplete,38,number,1,right,Purple_Plus_Grid_2.jpg,Green_Plus_Chess_3.jpg,Red_Circle_Stripes_2.jpg,right,868.4199999988778,true,high,false
OwEvveDj,36818z1kw6qmfrfyj2vkz259guma30,3q5zz9zevssdx27hrp417stpott85r,OwEvveDj,2020-0188,2020-05-08,13:41:45,13:56:16,NA,incomplete,39,number,1,right,Purple_Triangle_Grid_4.jpg,Green_Triangle_Chess_2.jpg,Red_Circle_Stripes_4.jpg,left,828.1450000067707,false,high,false
OwEvveDj,36818z1kw6qmfrfyj2vkz259guma30,3q5zz9zevssdx27hrp417stpott85r,OwEvveDj,2020-0188,2020-05-08,13:41:45,13:56:16,NA,incomplete,40,shape,1,right,Red_Plus_Dots_3.jpg,Green_Star_Chess_3.jpg,Blue_Plus_Grid_4.jpg,left,1316.465000010794,false,high,false
OwEvveDj,36818z1kw6qmfrfyj2vkz259guma30,3q5zz9zevssdx27hrp417stpott85r,OwEvveDj,2020-0188,2020-05-08,13:41:45,13:56:16,NA,incomplete,41,shape,1,right,Red_Star_Stripes_2.jpg,Blue_Circle_Grid_2.jpg,Green_Star_Chess_1.jpg,right,845.9749999892665,true,high,false
OwEvveDj,36818z1kw6qmfrfyj2vkz259guma30,3q5zz9zevssdx27hrp417stpott85r,OwEvveDj,2020-0188,2020-05-08,13:41:45,13:56:16,NA,incomplete,42,shape,1,right,Purple_Triangle_Stripes_1.jpg,Red_Circle_Dots_1.jpg,Green_Triangle_Grid_3.jpg,right,685.0500000000466,true,high,false
OwEvveDj,36818z1kw6qmfrfyj2vkz259guma30,3q5zz9zevssdx27hrp417stpott85r,OwEvveDj,2020-0188,2020-05-08,13:41:45,13:56:16,NA,incomplete,43,shape,0,right,Red_Triangle_Grid_2.jpg,Blue_Plus_Stripes_2.jpg,Purple_Triangle_Chess_1.jpg,right,603.2399999967311,true,high,false
OwEvveDj,36818z1kw6qmfrfyj2vkz259guma30,3q5zz9zevssdx27hrp417stpott85r,OwEvveDj,2020-0188,2020-05-08,13:41:45,13:56:16,NA,incomplete,44,shape,1,right,Blue_Plus_Stripes_4.jpg,Red_Star_Grid_4.jpg,Green_Plus_Chess_3.jpg,right,692.9349999991246,true,high,false
OwEvveDj,36818z1kw6qmfrfyj2vkz259guma30,3q5zz9zevssdx27hrp417stpott85r,OwEvveDj,2020-0188,2020-05-08,13:41:45,13:56:16,NA,incomplete,45,shape,1,left,Blue_Circle_Dots_4.jpg,Green_Circle_Grid_3.jpg,Red_Plus_Chess_4.jpg,left,633.1999999965774,true,high,false
OwEvveDj,36818z1kw6qmfrfyj2vkz259guma30,3q5zz9zevssdx27hrp417stpott85r,OwEvveDj,2020-0188,2020-05-08,13:41:45,13:56:16,NA,incomplete,46,shape,1,right,Blue_Plus_Dots_1.jpg,Green_Star_Stripes_1.jpg,Red_Plus_Chess_2.jpg,right,858.5099999909289,true,high,false
OwEvveDj,36818z1kw6qmfrfyj2vkz259guma30,3q5zz9zevssdx27hrp417stpott85r,OwEvveDj,2020-0188,2020-05-08,13:41:45,13:56:16,NA,incomplete,47,shape,1,left,Red_Plus_Stripes_1.jpg,Green_Plus_Dots_4.jpg,Blue_Circle_Grid_1.jpg,right,1073.6900000047171,false,high,false
OwEvveDj,36818z1kw6qmfrfyj2vkz259guma30,3q5zz9zevssdx27hrp417stpott85r,OwEvveDj,2020-0188,2020-05-08,13:41:45,13:56:16,NA,incomplete,48,shape,1,right,Red_Star_Dots_3.jpg,Blue_Triangle_Stripes_3.jpg,Purple_Star_Grid_1.jpg,right,1231.7949999996927,true,high,false
OwEvveDj,36818z1kw6qmfrfyj2vkz259guma30,3q5zz9zevssdx27hrp417stpott85r,OwEvveDj,2020-0188,2020-05-08,13:41:45,13:56:16,NA,incomplete,49,shape,1,right,Green_Triangle_Stripes_2.jpg,Red_Plus_Grid_2.jpg,Blue_Triangle_Chess_4.jpg,right,724.3949999974575,true,high,false
OwEvveDj,36818z1kw6qmfrfyj2vkz259guma30,3q5zz9zevssdx27hrp417stpott85r,OwEvveDj,2020-0188,2020-05-08,13:41:45,13:56:16,NA,incomplete,50,number,1,right,Blue_Circle_Dots_4.jpg,Green_Circle_Chess_1.jpg,Purple_Plus_Stripes_4.jpg,left,926.5699999959907,false,high,false
OwEvveDj,36818z1kw6qmfrfyj2vkz259guma30,3q5zz9zevssdx27hrp417stpott85r,OwEvveDj,2020-0188,2020-05-08,13:41:45,13:56:16,NA,incomplete,51,number,1,right,Green_Triangle_Chess_3.jpg,Purple_Triangle_Stripes_2.jpg,Red_Star_Grid_3.jpg,left,719.9799999943934,false,high,false
OwEvveDj,36818z1kw6qmfrfyj2vkz259guma30,3q5zz9zevssdx27hrp417stpott85r,OwEvveDj,2020-0188,2020-05-08,13:41:45,13:56:16,NA,incomplete,52,number,1,left,Blue_Circle_Stripes_2.jpg,Green_Plus_Dots_2.jpg,Red_Circle_Chess_4.jpg,left,679.3800000014016,true,high,false
OwEvveDj,36818z1kw6qmfrfyj2vkz259guma30,3q5zz9zevssdx27hrp417stpott85r,OwEvveDj,2020-0188,2020-05-08,13:41:45,13:56:16,NA,incomplete,53,number,1,right,Purple_Star_Chess_3.jpg,Green_Star_Stripes_2.jpg,Red_Triangle_Grid_3.jpg,right,638.2400000002235,true,high,false
OwEvveDj,36818z1kw6qmfrfyj2vkz259guma30,3q5zz9zevssdx27hrp417stpott85r,OwEvveDj,2020-0188,2020-05-08,13:41:45,13:56:16,NA,incomplete,54,number,1,left,Red_Circle_Dots_2.jpg,Purple_Triangle_Stripes_2.jpg,Green_Circle_Chess_1.jpg,left,703.7649999983842,true,high,false
OwEvveDj,36818z1kw6qmfrfyj2vkz259guma30,3q5zz9zevssdx27hrp417stpott85r,OwEvveDj,2020-0188,2020-05-08,13:41:45,13:56:16,NA,incomplete,55,number,1,right,Green_Plus_Chess_1.jpg,Red_Plus_Grid_2.jpg,Blue_Circle_Dots_1.jpg,right,1150.3800000064075,true,high,false
OwEvveDj,36818z1kw6qmfrfyj2vkz259guma30,3q5zz9zevssdx27hrp417stpott85r,OwEvveDj,2020-0188,2020-05-08,13:41:45,13:56:16,NA,incomplete,56,number,0,right,Purple_Circle_Dots_1.jpg,Green_Circle_Grid_4.jpg,Blue_Triangle_Stripes_1.jpg,right,633.0750000051921,true,high,false
OwEvveDj,36818z1kw6qmfrfyj2vkz259guma30,3q5zz9zevssdx27hrp417stpott85r,OwEvveDj,2020-0188,2020-05-08,13:41:45,13:56:16,NA,incomplete,57,number,1,left,Purple_Plus_Chess_2.jpg,Red_Circle_Stripes_2.jpg,Blue_Plus_Grid_3.jpg,left,626.7099999968195,true,high,false
OwEvveDj,36818z1kw6qmfrfyj2vkz259guma30,3q5zz9zevssdx27hrp417stpott85r,OwEvveDj,2020-0188,2020-05-08,13:41:45,13:56:16,NA,incomplete,58,number,0,right,Green_Triangle_Grid_2.jpg,Purple_Triangle_Dots_4.jpg,Blue_Star_Stripes_2.jpg,right,644.1550000017742,true,high,false
OwEvveDj,36818z1kw6qmfrfyj2vkz259guma30,3q5zz9zevssdx27hrp417stpott85r,OwEvveDj,2020-0188,2020-05-08,13:41:45,13:56:16,NA,incomplete,59,number,1,left,Purple_Triangle_Dots_4.jpg,Blue_Star_Chess_4.jpg,Green_Triangle_Grid_1.jpg,left,811.5600000019185,true,high,false
OwEvveDj,36818z1kw6qmfrfyj2vkz259guma30,3q5zz9zevssdx27hrp417stpott85r,OwEvveDj,2020-0188,2020-05-08,13:41:45,13:56:16,NA,incomplete,60,shape,0,left,Blue_Triangle_Stripes_1.jpg,Green_Triangle_Grid_2.jpg,Purple_Circle_Chess_1.jpg,right,897.0249999983935,false,high,false
OwEvveDj,36818z1kw6qmfrfyj2vkz259guma30,3q5zz9zevssdx27hrp417stpott85r,OwEvveDj,2020-0188,2020-05-08,13:41:45,13:56:16,NA,incomplete,61,shape,1,left,Purple_Circle_Dots_3.jpg,Blue_Circle_Chess_2.jpg,Red_Star_Stripes_3.jpg,left,1143.5399999900255,true,high,false
OwEvveDj,36818z1kw6qmfrfyj2vkz259guma30,3q5zz9zevssdx27hrp417stpott85r,OwEvveDj,2020-0188,2020-05-08,13:41:45,13:56:16,NA,incomplete,62,shape,1,right,Blue_Plus_Chess_1.jpg,Red_Circle_Dots_1.jpg,Purple_Plus_Stripes_2.jpg,right,716.7849999968894,true,high,false
OwEvveDj,36818z1kw6qmfrfyj2vkz259guma30,3q5zz9zevssdx27hrp417stpott85r,OwEvveDj,2020-0188,2020-05-08,13:41:45,13:56:16,NA,incomplete,63,shape,1,right,Green_Circle_Stripes_2.jpg,Red_Star_Chess_2.jpg,Blue_Circle_Dots_4.jpg,right,817.654999991646,true,high,false
OwEvveDj,36818z1kw6qmfrfyj2vkz259guma30,3q5zz9zevssdx27hrp417stpott85r,OwEvveDj,2020-0188,2020-05-08,13:41:45,13:56:16,NA,incomplete,64,shape,1,right,Red_Plus_Dots_2.jpg,Green_Circle_Chess_2.jpg,Purple_Plus_Stripes_1.jpg,right,1449.3950000032783,true,high,false
OwEvveDj,36818z1kw6qmfrfyj2vkz259guma30,3q5zz9zevssdx27hrp417stpott85r,OwEvveDj,2020-0188,2020-05-08,13:41:45,13:56:16,NA,incomplete,65,shape,0,right,Blue_Plus_Grid_2.jpg,Green_Circle_Chess_2.jpg,Red_Plus_Stripes_4.jpg,left,813.255000000936,false,high,false
OwEvveDj,36818z1kw6qmfrfyj2vkz259guma30,3q5zz9zevssdx27hrp417stpott85r,OwEvveDj,2020-0188,2020-05-08,13:41:45,13:56:16,NA,incomplete,66,shape,1,left,Blue_Plus_Grid_2.jpg,Green_Plus_Dots_1.jpg,Red_Triangle_Chess_2.jpg,right,959.3250000034459,false,high,false
OwEvveDj,36818z1kw6qmfrfyj2vkz259guma30,3q5zz9zevssdx27hrp417stpott85r,OwEvveDj,2020-0188,2020-05-08,13:41:45,13:56:16,NA,incomplete,67,shape,1,right,Green_Plus_Stripes_2.jpg,Red_Triangle_Dots_2.jpg,Purple_Plus_Chess_3.jpg,right,701.6849999927217,true,high,false
OwEvveDj,36818z1kw6qmfrfyj2vkz259guma30,3q5zz9zevssdx27hrp417stpott85r,OwEvveDj,2020-0188,2020-05-08,13:41:45,13:56:16,NA,incomplete,68,shape,1,right,Purple_Star_Stripes_4.jpg,Green_Circle_Chess_4.jpg,Blue_Star_Grid_1.jpg,left,879.7300000005635,false,high,false
OwEvveDj,36818z1kw6qmfrfyj2vkz259guma30,3q5zz9zevssdx27hrp417stpott85r,OwEvveDj,2020-0188,2020-05-08,13:41:45,13:56:16,NA,incomplete,69,shape,1,right,Red_Star_Dots_3.jpg,Purple_Plus_Grid_3.jpg,Blue_Star_Chess_2.jpg,right,880.6150000018533,true,high,false
OwEvveDj,36818z1kw6qmfrfyj2vkz259guma30,3q5zz9zevssdx27hrp417stpott85r,OwEvveDj,2020-0188,2020-05-08,13:41:45,13:56:16,NA,incomplete,70,number,1,right,Purple_Circle_Stripes_2.jpg,Red_Circle_Chess_3.jpg,Green_Triangle_Grid_2.jpg,left,751.990000004298,false,high,false
OwEvveDj,36818z1kw6qmfrfyj2vkz259guma30,3q5zz9zevssdx27hrp417stpott85r,OwEvveDj,2020-0188,2020-05-08,13:41:45,13:56:16,NA,incomplete,71,number,1,right,Red_Plus_Dots_4.jpg,Purple_Plus_Stripes_1.jpg,Green_Circle_Grid_4.jpg,right,772.9600000020582,true,high,false
OwEvveDj,36818z1kw6qmfrfyj2vkz259guma30,3q5zz9zevssdx27hrp417stpott85r,OwEvveDj,2020-0188,2020-05-08,13:41:45,13:56:16,NA,incomplete,72,number,1,right,Green_Plus_Grid_4.jpg,Blue_Plus_Dots_2.jpg,Purple_Circle_Chess_4.jpg,right,755.4999999993015,true,high,false
OwEvveDj,36818z1kw6qmfrfyj2vkz259guma30,3q5zz9zevssdx27hrp417stpott85r,OwEvveDj,2020-0188,2020-05-08,13:41:45,13:56:16,NA,incomplete,73,number,1,right,Red_Star_Grid_1.jpg,Green_Star_Dots_3.jpg,Blue_Triangle_Stripes_1.jpg,right,718.845000010333,true,high,false
OwEvveDj,36818z1kw6qmfrfyj2vkz259guma30,3q5zz9zevssdx27hrp417stpott85r,OwEvveDj,2020-0188,2020-05-08,13:41:45,13:56:16,NA,incomplete,74,number,0,left,Purple_Star_Chess_4.jpg,Green_Circle_Grid_4.jpg,Red_Star_Dots_1.jpg,left,694.6199999947567,true,high,false
OwEvveDj,36818z1kw6qmfrfyj2vkz259guma30,3q5zz9zevssdx27hrp417stpott85r,OwEvveDj,2020-0188,2020-05-08,13:41:45,13:56:16,NA,incomplete,75,number,1,right,Blue_Circle_Grid_2.jpg,Red_Circle_Chess_4.jpg,Purple_Plus_Dots_2.jpg,right,768.2500000082655,true,high,false
OwEvveDj,36818z1kw6qmfrfyj2vkz259guma30,3q5zz9zevssdx27hrp417stpott85r,OwEvveDj,2020-0188,2020-05-08,13:41:45,13:56:16,NA,incomplete,76,number,1,right,Green_Plus_Dots_2.jpg,Red_Plus_Grid_1.jpg,Blue_Circle_Chess_2.jpg,right,821.0099999996601,true,high,false
OwEvveDj,36818z1kw6qmfrfyj2vkz259guma30,3q5zz9zevssdx27hrp417stpott85r,OwEvveDj,2020-0188,2020-05-08,13:41:45,13:56:16,NA,incomplete,77,number,0,left,Purple_Star_Stripes_2.jpg,Green_Plus_Chess_2.jpg,Red_Star_Dots_3.jpg,left,749.2599999968661,true,high,false
OwEvveDj,36818z1kw6qmfrfyj2vkz259guma30,3q5zz9zevssdx27hrp417stpott85r,OwEvveDj,2020-0188,2020-05-08,13:41:45,13:56:16,NA,incomplete,78,number,1,left,Purple_Circle_Stripes_3.jpg,Blue_Plus_Grid_3.jpg,Green_Circle_Chess_1.jpg,left,651.8199999991339,true,high,false
OwEvveDj,36818z1kw6qmfrfyj2vkz259guma30,3q5zz9zevssdx27hrp417stpott85r,OwEvveDj,2020-0188,2020-05-08,13:41:45,13:56:16,NA,incomplete,79,number,1,left,Green_Circle_Dots_3.jpg,Blue_Triangle_Grid_3.jpg,Red_Circle_Stripes_4.jpg,left,796.7550000030315,true,high,false
OwEvveDj,36818z1kw6qmfrfyj2vkz259guma30,3q5zz9zevssdx27hrp417stpott85r,OwEvveDj,2020-0188,2020-05-08,13:41:45,13:56:16,NA,incomplete,80,shape,1,right,Green_Star_Dots_3.jpg,Purple_Circle_Chess_3.jpg,Blue_Star_Stripes_2.jpg,left,816.4300000062212,false,high,false
OwEvveDj,36818z1kw6qmfrfyj2vkz259guma30,3q5zz9zevssdx27hrp417stpott85r,OwEvveDj,2020-0188,2020-05-08,13:41:45,13:56:16,NA,incomplete,81,shape,1,right,Green_Triangle_Dots_4.jpg,Purple_Plus_Chess_4.jpg,Blue_Triangle_Stripes_3.jpg,left,750.2449999883538,false,high,false
OwEvveDj,36818z1kw6qmfrfyj2vkz259guma30,3q5zz9zevssdx27hrp417stpott85r,OwEvveDj,2020-0188,2020-05-08,13:41:45,13:56:16,NA,incomplete,82,shape,1,right,Red_Star_Stripes_2.jpg,Green_Triangle_Dots_2.jpg,Blue_Star_Chess_1.jpg,right,593.8650000025518,true,high,false
OwEvveDj,36818z1kw6qmfrfyj2vkz259guma30,3q5zz9zevssdx27hrp417stpott85r,OwEvveDj,2020-0188,2020-05-08,13:41:45,13:56:16,NA,incomplete,83,shape,1,right,Green_Star_Stripes_4.jpg,Red_Circle_Chess_4.jpg,Purple_Star_Grid_2.jpg,right,850.6600000109756,true,high,false
OwEvveDj,36818z1kw6qmfrfyj2vkz259guma30,3q5zz9zevssdx27hrp417stpott85r,OwEvveDj,2020-0188,2020-05-08,13:41:45,13:56:16,NA,incomplete,84,shape,1,left,Green_Plus_Stripes_2.jpg,Purple_Plus_Grid_1.jpg,Blue_Triangle_Chess_2.jpg,left,714.4350000016857,true,high,false
OwEvveDj,36818z1kw6qmfrfyj2vkz259guma30,3q5zz9zevssdx27hrp417stpott85r,OwEvveDj,2020-0188,2020-05-08,13:41:45,13:56:16,NA,incomplete,85,shape,1,left,Green_Plus_Dots_1.jpg,Red_Plus_Grid_4.jpg,Blue_Triangle_Stripes_1.jpg,left,961.9749999983469,true,high,false
OwEvveDj,36818z1kw6qmfrfyj2vkz259guma30,3q5zz9zevssdx27hrp417stpott85r,OwEvveDj,2020-0188,2020-05-08,13:41:45,13:56:16,NA,incomplete,86,shape,0,left,Purple_Star_Grid_4.jpg,Red_Star_Chess_2.jpg,Green_Plus_Stripes_4.jpg,left,772.2800000046846,true,high,false
OwEvveDj,36818z1kw6qmfrfyj2vkz259guma30,3q5zz9zevssdx27hrp417stpott85r,OwEvveDj,2020-0188,2020-05-08,13:41:45,13:56:16,NA,incomplete,87,shape,0,right,Purple_Star_Dots_2.jpg,Blue_Triangle_Stripes_2.jpg,Red_Star_Grid_3.jpg,right,555.6649999925867,true,high,false
OwEvveDj,36818z1kw6qmfrfyj2vkz259guma30,3q5zz9zevssdx27hrp417stpott85r,OwEvveDj,2020-0188,2020-05-08,13:41:45,13:56:16,NA,incomplete,88,shape,1,left,Green_Plus_Stripes_1.jpg,Red_Plus_Chess_2.jpg,Purple_Star_Grid_1.jpg,right,651.094999993802,false,high,false
OwEvveDj,36818z1kw6qmfrfyj2vkz259guma30,3q5zz9zevssdx27hrp417stpott85r,OwEvveDj,2020-0188,2020-05-08,13:41:45,13:56:16,NA,incomplete,89,shape,1,right,Red_Triangle_Dots_2.jpg,Blue_Star_Stripes_2.jpg,Purple_Triangle_Chess_1.jpg,left,845.4449999990175,false,high,false
OwEvveDj,36818z1kw6qmfrfyj2vkz259guma30,3q5zz9zevssdx27hrp417stpott85r,OwEvveDj,2020-0188,2020-05-08,13:41:45,13:56:16,NA,incomplete,90,number,1,right,Purple_Triangle_Stripes_1.jpg,Red_Triangle_Dots_2.jpg,Green_Star_Grid_1.jpg,left,796.1800000048243,false,high,false
OwEvveDj,36818z1kw6qmfrfyj2vkz259guma30,3q5zz9zevssdx27hrp417stpott85r,OwEvveDj,2020-0188,2020-05-08,13:41:45,13:56:16,NA,incomplete,91,number,1,left,Red_Triangle_Grid_3.jpg,Green_Circle_Dots_3.jpg,Blue_Triangle_Chess_4.jpg,left,966.8449999880977,true,high,false
OwEvveDj,36818z1kw6qmfrfyj2vkz259guma30,3q5zz9zevssdx27hrp417stpott85r,OwEvveDj,2020-0188,2020-05-08,13:41:45,13:56:16,NA,incomplete,92,number,0,left,Blue_Plus_Grid_4.jpg,Red_Triangle_Dots_4.jpg,Green_Plus_Chess_1.jpg,left,670.494999998482,true,high,false
OwEvveDj,36818z1kw6qmfrfyj2vkz259guma30,3q5zz9zevssdx27hrp417stpott85r,OwEvveDj,2020-0188,2020-05-08,13:41:45,13:56:16,NA,incomplete,93,number,1,left,Red_Circle_Chess_2.jpg,Blue_Triangle_Grid_2.jpg,Green_Circle_Stripes_3.jpg,left,886.3899999996647,true,high,false
OwEvveDj,36818z1kw6qmfrfyj2vkz259guma30,3q5zz9zevssdx27hrp417stpott85r,OwEvveDj,2020-0188,2020-05-08,13:41:45,13:56:16,NA,incomplete,94,number,1,left,Red_Triangle_Grid_3.jpg,Blue_Star_Stripes_3.jpg,Green_Triangle_Chess_1.jpg,left,720.0450000091223,true,high,false
OwEvveDj,36818z1kw6qmfrfyj2vkz259guma30,3q5zz9zevssdx27hrp417stpott85r,OwEvveDj,2020-0188,2020-05-08,13:41:45,13:56:16,NA,incomplete,95,number,0,right,Green_Triangle_Chess_1.jpg,Purple_Triangle_Stripes_2.jpg,Blue_Plus_Grid_1.jpg,right,1083.1800000014482,true,high,false
OwEvveDj,36818z1kw6qmfrfyj2vkz259guma30,3q5zz9zevssdx27hrp417stpott85r,OwEvveDj,2020-0188,2020-05-08,13:41:45,13:56:16,NA,incomplete,96,number,1,left,Green_Plus_Grid_4.jpg,Purple_Star_Dots_4.jpg,Blue_Plus_Chess_2.jpg,left,675.3099999914411,true,high,false
OwEvveDj,36818z1kw6qmfrfyj2vkz259guma30,3q5zz9zevssdx27hrp417stpott85r,OwEvveDj,2020-0188,2020-05-08,13:41:45,13:56:16,NA,incomplete,97,number,1,right,Red_Star_Chess_2.jpg,Blue_Star_Grid_1.jpg,Green_Triangle_Dots_2.jpg,right,753.8800000038464,true,high,false
OwEvveDj,36818z1kw6qmfrfyj2vkz259guma30,3q5zz9zevssdx27hrp417stpott85r,OwEvveDj,2020-0188,2020-05-08,13:41:45,13:56:16,NA,incomplete,98,number,1,left,Red_Star_Dots_2.jpg,Purple_Circle_Grid_2.jpg,Blue_Star_Chess_3.jpg,left,755.090000006021,true,high,false
OwEvveDj,36818z1kw6qmfrfyj2vkz259guma30,3q5zz9zevssdx27hrp417stpott85r,OwEvveDj,2020-0188,2020-05-08,13:41:45,13:56:16,NA,incomplete,99,number,0,left,Purple_Circle_Dots_1.jpg,Red_Triangle_Grid_1.jpg,Green_Circle_Chess_2.jpg,left,702.3550000012619,true,high,false
OwEvveDj,36818z1kw6qmfrfyj2vkz259guma30,3q5zz9zevssdx27hrp417stpott85r,OwEvveDj,2020-0188,2020-05-08,13:41:45,13:56:16,NA,incomplete,100,shape,1,left,Green_Triangle_Grid_4.jpg,Purple_Triangle_Chess_3.jpg,Red_Circle_Stripes_4.jpg,right,678.5500000114553,false,high,false
OwEvveDj,36818z1kw6qmfrfyj2vkz259guma30,3q5zz9zevssdx27hrp417stpott85r,OwEvveDj,2020-0188,2020-05-08,13:41:45,13:56:16,NA,incomplete,101,shape,1,left,Purple_Circle_Chess_1.jpg,Blue_Circle_Grid_4.jpg,Red_Plus_Stripes_1.jpg,left,609.9600000015926,true,high,false
OwEvveDj,36818z1kw6qmfrfyj2vkz259guma30,3q5zz9zevssdx27hrp417stpott85r,OwEvveDj,2020-0188,2020-05-08,13:41:45,13:56:16,NA,incomplete,102,shape,1,left,Blue_Star_Chess_1.jpg,Purple_Star_Stripes_3.jpg,Red_Circle_Dots_1.jpg,left,539.6949999994831,true,high,false
OwEvveDj,36818z1kw6qmfrfyj2vkz259guma30,3q5zz9zevssdx27hrp417stpott85r,OwEvveDj,2020-0188,2020-05-08,13:41:45,13:56:16,NA,incomplete,103,shape,1,left,Purple_Plus_Stripes_1.jpg,Green_Plus_Chess_2.jpg,Red_Star_Grid_1.jpg,left,726.7599999904633,true,high,false
OwEvveDj,36818z1kw6qmfrfyj2vkz259guma30,3q5zz9zevssdx27hrp417stpott85r,OwEvveDj,2020-0188,2020-05-08,13:41:45,13:56:16,NA,incomplete,104,shape,1,right,Red_Star_Dots_4.jpg,Purple_Circle_Grid_4.jpg,Blue_Star_Chess_1.jpg,left,721.3599999959115,false,high,false
OwEvveDj,36818z1kw6qmfrfyj2vkz259guma30,3q5zz9zevssdx27hrp417stpott85r,OwEvveDj,2020-0188,2020-05-08,13:41:45,13:56:16,NA,incomplete,105,shape,1,left,Green_Plus_Chess_3.jpg,Purple_Plus_Grid_1.jpg,Red_Triangle_Stripes_3.jpg,left,719.2349999968428,true,high,false
OwEvveDj,36818z1kw6qmfrfyj2vkz259guma30,3q5zz9zevssdx27hrp417stpott85r,OwEvveDj,2020-0188,2020-05-08,13:41:45,13:56:16,NA,incomplete,106,shape,1,left,Purple_Plus_Grid_2.jpg,Green_Plus_Chess_3.jpg,Blue_Triangle_Dots_2.jpg,left,692.9399999935413,true,high,false
OwEvveDj,36818z1kw6qmfrfyj2vkz259guma30,3q5zz9zevssdx27hrp417stpott85r,OwEvveDj,2020-0188,2020-05-08,13:41:45,13:56:16,NA,incomplete,107,shape,1,right,Green_Star_Chess_1.jpg,Blue_Plus_Dots_1.jpg,Purple_Star_Stripes_3.jpg,right,720.050000003539,true,high,false
OwEvveDj,36818z1kw6qmfrfyj2vkz259guma30,3q5zz9zevssdx27hrp417stpott85r,OwEvveDj,2020-0188,2020-05-08,13:41:45,13:56:16,NA,incomplete,108,shape,1,right,Blue_Circle_Chess_4.jpg,Red_Triangle_Dots_4.jpg,Green_Circle_Grid_1.jpg,left,732.3449999967124,false,high,false
OwEvveDj,36818z1kw6qmfrfyj2vkz259guma30,3q5zz9zevssdx27hrp417stpott85r,OwEvveDj,2020-0188,2020-05-08,13:41:45,13:56:16,NA,incomplete,109,shape,1,left,Purple_Plus_Dots_3.jpg,Green_Plus_Stripes_1.jpg,Red_Star_Chess_3.jpg,left,911.4949999930104,true,high,false
OwEvveDj,36818z1kw6qmfrfyj2vkz259guma30,3q5zz9zevssdx27hrp417stpott85r,OwEvveDj,2020-0188,2020-05-08,13:41:45,13:56:16,NA,incomplete,110,number,1,left,Red_Circle_Dots_4.jpg,Blue_Triangle_Grid_4.jpg,Green_Circle_Chess_2.jpg,right,660.3849999955855,false,high,false
OwEvveDj,36818z1kw6qmfrfyj2vkz259guma30,3q5zz9zevssdx27hrp417stpott85r,OwEvveDj,2020-0188,2020-05-08,13:41:45,13:56:16,NA,incomplete,111,number,0,left,Red_Star_Grid_1.jpg,Purple_Plus_Stripes_1.jpg,Blue_Star_Chess_3.jpg,right,763.039999990724,false,high,false
OwEvveDj,36818z1kw6qmfrfyj2vkz259guma30,3q5zz9zevssdx27hrp417stpott85r,OwEvveDj,2020-0188,2020-05-08,13:41:45,13:56:16,NA,incomplete,112,number,1,left,Purple_Circle_Chess_2.jpg,Blue_Plus_Dots_2.jpg,Red_Circle_Grid_4.jpg,right,787.3350000008941,false,high,false
OwEvveDj,36818z1kw6qmfrfyj2vkz259guma30,3q5zz9zevssdx27hrp417stpott85r,OwEvveDj,2020-0188,2020-05-08,13:41:45,13:56:16,NA,incomplete,113,number,1,right,Purple_Star_Dots_2.jpg,Red_Star_Grid_4.jpg,Blue_Triangle_Stripes_2.jpg,left,838.1400000071153,false,high,false
OwEvveDj,36818z1kw6qmfrfyj2vkz259guma30,3q5zz9zevssdx27hrp417stpott85r,OwEvveDj,2020-0188,2020-05-08,13:41:45,13:56:16,NA,incomplete,114,number,1,right,Red_Star_Chess_1.jpg,Green_Star_Dots_4.jpg,Blue_Plus_Grid_1.jpg,right,602.1349999937229,true,high,false
OwEvveDj,36818z1kw6qmfrfyj2vkz259guma30,3q5zz9zevssdx27hrp417stpott85r,OwEvveDj,2020-0188,2020-05-08,13:41:45,13:56:16,NA,incomplete,115,number,0,right,Green_Star_Stripes_4.jpg,Red_Star_Grid_2.jpg,Blue_Circle_Dots_4.jpg,right,655.19000000495,true,high,false
OwEvveDj,36818z1kw6qmfrfyj2vkz259guma30,3q5zz9zevssdx27hrp417stpott85r,OwEvveDj,2020-0188,2020-05-08,13:41:45,13:56:16,NA,incomplete,116,number,1,right,Green_Circle_Stripes_4.jpg,Purple_Circle_Dots_3.jpg,Blue_Plus_Chess_4.jpg,right,788.5999999998603,true,high,false
OwEvveDj,36818z1kw6qmfrfyj2vkz259guma30,3q5zz9zevssdx27hrp417stpott85r,OwEvveDj,2020-0188,2020-05-08,13:41:45,13:56:16,NA,incomplete,117,number,1,right,Blue_Triangle_Dots_4.jpg,Purple_Triangle_Stripes_3.jpg,Green_Star_Chess_4.jpg,right,699.1549999947893,true,high,false
OwEvveDj,36818z1kw6qmfrfyj2vkz259guma30,3q5zz9zevssdx27hrp417stpott85r,OwEvveDj,2020-0188,2020-05-08,13:41:45,13:56:16,NA,incomplete,118,number,1,right,Red_Circle_Grid_2.jpg,Purple_Circle_Stripes_4.jpg,Blue_Triangle_Chess_2.jpg,left,1449.7399999963818,false,high,false
OwEvveDj,36818z1kw6qmfrfyj2vkz259guma30,3q5zz9zevssdx27hrp417stpott85r,OwEvveDj,2020-0188,2020-05-08,13:41:45,13:56:16,NA,incomplete,119,number,1,right,Purple_Plus_Grid_4.jpg,Blue_Plus_Stripes_1.jpg,Green_Star_Dots_4.jpg,right,592.5500000012107,true,high,false
OwEvveDj,36818z1kw6qmfrfyj2vkz259guma30,3q5zz9zevssdx27hrp417stpott85r,OwEvveDj,2020-0188,2020-05-08,13:41:45,13:56:16,NA,incomplete,120,shape,1,left,Purple_Plus_Dots_3.jpg,Red_Plus_Stripes_4.jpg,Green_Circle_Chess_3.jpg,right,752.6999999972759,false,high,false
OwEvveDj,36818z1kw6qmfrfyj2vkz259guma30,3q5zz9zevssdx27hrp417stpott85r,OwEvveDj,2020-0188,2020-05-08,13:41:45,13:56:16,NA,incomplete,121,shape,1,right,Green_Circle_Dots_3.jpg,Blue_Triangle_Chess_3.jpg,Red_Circle_Grid_1.jpg,left,702.3049999988871,false,high,false
OwEvveDj,36818z1kw6qmfrfyj2vkz259guma30,3q5zz9zevssdx27hrp417stpott85r,OwEvveDj,2020-0188,2020-05-08,13:41:45,13:56:16,NA,incomplete,122,shape,0,right,Blue_Star_Chess_3.jpg,Green_Circle_Stripes_3.jpg,Purple_Star_Dots_1.jpg,right,727.7649999887217,true,high,false
OwEvveDj,36818z1kw6qmfrfyj2vkz259guma30,3q5zz9zevssdx27hrp417stpott85r,OwEvveDj,2020-0188,2020-05-08,13:41:45,13:56:16,NA,incomplete,123,shape,1,left,Purple_Triangle_Stripes_3.jpg,Green_Triangle_Dots_1.jpg,Red_Star_Grid_3.jpg,right,1235.1649999909569,false,high,false
OwEvveDj,36818z1kw6qmfrfyj2vkz259guma30,3q5zz9zevssdx27hrp417stpott85r,OwEvveDj,2020-0188,2020-05-08,13:41:45,13:56:16,NA,incomplete,124,shape,1,left,Red_Circle_Grid_2.jpg,Green_Circle_Chess_1.jpg,Purple_Plus_Dots_2.jpg,left,693.634999988717,true,high,false
OwEvveDj,36818z1kw6qmfrfyj2vkz259guma30,3q5zz9zevssdx27hrp417stpott85r,OwEvveDj,2020-0188,2020-05-08,13:41:45,13:56:16,NA,incomplete,125,shape,1,left,Blue_Triangle_Stripes_3.jpg,Green_Triangle_Chess_2.jpg,Red_Circle_Dots_3.jpg,left,865.1099999988219,true,high,false
OwEvveDj,36818z1kw6qmfrfyj2vkz259guma30,3q5zz9zevssdx27hrp417stpott85r,OwEvveDj,2020-0188,2020-05-08,13:41:45,13:56:16,NA,incomplete,126,shape,1,right,Red_Plus_Chess_4.jpg,Purple_Star_Stripes_4.jpg,Green_Plus_Dots_2.jpg,right,816.5049999952316,true,high,false
OwEvveDj,36818z1kw6qmfrfyj2vkz259guma30,3q5zz9zevssdx27hrp417stpott85r,OwEvveDj,2020-0188,2020-05-08,13:41:45,13:56:16,NA,incomplete,127,shape,0,right,Purple_Plus_Dots_2.jpg,Red_Triangle_Stripes_2.jpg,Blue_Plus_Grid_4.jpg,right,811.6899999877205,true,high,false
OwEvveDj,36818z1kw6qmfrfyj2vkz259guma30,3q5zz9zevssdx27hrp417stpott85r,OwEvveDj,2020-0188,2020-05-08,13:41:45,13:56:16,NA,incomplete,128,shape,1,left,Red_Plus_Grid_3.jpg,Blue_Plus_Stripes_1.jpg,Purple_Triangle_Chess_3.jpg,left,1007.45000000461,true,high,false
OwEvveDj,36818z1kw6qmfrfyj2vkz259guma30,3q5zz9zevssdx27hrp417stpott85r,OwEvveDj,2020-0188,2020-05-08,13:41:45,13:56:16,NA,incomplete,129,shape,1,right,Green_Plus_Stripes_2.jpg,Purple_Star_Chess_2.jpg,Blue_Plus_Grid_4.jpg,right,618.2350000017323,true,high,false
OwEvveDj,36818z1kw6qmfrfyj2vkz259guma30,3q5zz9zevssdx27hrp417stpott85r,OwEvveDj,2020-0188,2020-05-08,13:41:45,13:56:16,NA,incomplete,130,shape,1,right,Green_Circle_Stripes_4.jpg,Red_Plus_Grid_4.jpg,Purple_Circle_Chess_1.jpg,right,1117.3300000082236,true,high,false
OwEvveDj,36818z1kw6qmfrfyj2vkz259guma30,3q5zz9zevssdx27hrp417stpott85r,OwEvveDj,2020-0188,2020-05-08,13:41:45,13:56:16,NA,incomplete,131,shape,1,right,Blue_Circle_Grid_1.jpg,Green_Star_Dots_1.jpg,Red_Circle_Chess_4.jpg,right,663.0549999972573,true,high,false
OwEvveDj,36818z1kw6qmfrfyj2vkz259guma30,3q5zz9zevssdx27hrp417stpott85r,OwEvveDj,2020-0188,2020-05-08,13:41:45,13:56:16,NA,incomplete,132,shape,1,right,Purple_Star_Chess_1.jpg,Red_Triangle_Grid_1.jpg,Green_Star_Stripes_2.jpg,right,1251.8649999983609,true,high,false
OwEvveDj,36818z1kw6qmfrfyj2vkz259guma30,3q5zz9zevssdx27hrp417stpott85r,OwEvveDj,2020-0188,2020-05-08,13:41:45,13:56:16,NA,incomplete,133,shape,0,left,Green_Triangle_Grid_3.jpg,Purple_Triangle_Stripes_2.jpg,Blue_Circle_Dots_3.jpg,left,697.7849999966566,true,high,false
OwEvveDj,36818z1kw6qmfrfyj2vkz259guma30,3q5zz9zevssdx27hrp417stpott85r,OwEvveDj,2020-0188,2020-05-08,13:41:45,13:56:16,NA,incomplete,134,shape,1,right,Purple_Triangle_Grid_2.jpg,Red_Circle_Stripes_2.jpg,Blue_Triangle_Chess_1.jpg,right,836.5199999971082,true,high,false
OwEvveDj,36818z1kw6qmfrfyj2vkz259guma30,3q5zz9zevssdx27hrp417stpott85r,OwEvveDj,2020-0188,2020-05-08,13:41:45,13:56:16,NA,incomplete,135,shape,0,left,Blue_Circle_Grid_4.jpg,Red_Circle_Chess_2.jpg,Purple_Star_Dots_4.jpg,left,748.2049999962328,true,high,false
OwEvveDj,36818z1kw6qmfrfyj2vkz259guma30,3q5zz9zevssdx27hrp417stpott85r,OwEvveDj,2020-0188,2020-05-08,13:41:45,13:56:16,NA,incomplete,136,shape,1,left,Blue_Circle_Stripes_3.jpg,Purple_Circle_Dots_1.jpg,Green_Plus_Grid_3.jpg,right,1003.0499999993481,false,high,false
OwEvveDj,36818z1kw6qmfrfyj2vkz259guma30,3q5zz9zevssdx27hrp417stpott85r,OwEvveDj,2020-0188,2020-05-08,13:41:45,13:56:16,NA,incomplete,137,shape,1,right,Red_Triangle_Chess_4.jpg,Purple_Star_Stripes_4.jpg,Green_Triangle_Grid_2.jpg,right,937.3749999940628,true,high,false
OwEvveDj,36818z1kw6qmfrfyj2vkz259guma30,3q5zz9zevssdx27hrp417stpott85r,OwEvveDj,2020-0188,2020-05-08,13:41:45,13:56:16,NA,incomplete,138,shape,1,right,Red_Star_Dots_4.jpg,Blue_Circle_Chess_4.jpg,Green_Star_Stripes_2.jpg,right,889.0249999967637,true,high,false
OwEvveDj,36818z1kw6qmfrfyj2vkz259guma30,3q5zz9zevssdx27hrp417stpott85r,OwEvveDj,2020-0188,2020-05-08,13:41:45,13:56:16,NA,incomplete,139,shape,1,left,Green_Triangle_Dots_4.jpg,Purple_Triangle_Grid_2.jpg,Blue_Star_Stripes_4.jpg,left,743.0599999934202,true,high,false
OwEvveDj,36818z1kw6qmfrfyj2vkz259guma30,3q5zz9zevssdx27hrp417stpott85r,OwEvveDj,2020-0188,2020-05-08,13:41:45,13:56:16,NA,incomplete,140,number,0,right,Blue_Circle_Dots_3.jpg,Red_Circle_Grid_1.jpg,Green_Triangle_Stripes_3.jpg,left,798.1150000123307,false,high,false
OwEvveDj,36818z1kw6qmfrfyj2vkz259guma30,3q5zz9zevssdx27hrp417stpott85r,OwEvveDj,2020-0188,2020-05-08,13:41:45,13:56:16,NA,incomplete,141,number,1,right,Green_Plus_Dots_1.jpg,Red_Plus_Grid_4.jpg,Purple_Triangle_Stripes_1.jpg,left,680.6000000069616,false,high,false
OwEvveDj,36818z1kw6qmfrfyj2vkz259guma30,3q5zz9zevssdx27hrp417stpott85r,OwEvveDj,2020-0188,2020-05-08,13:41:45,13:56:16,NA,incomplete,142,number,1,left,Blue_Circle_Stripes_3.jpg,Red_Triangle_Chess_3.jpg,Purple_Circle_Dots_2.jpg,right,718.8749999913853,false,high,false
OwEvveDj,36818z1kw6qmfrfyj2vkz259guma30,3q5zz9zevssdx27hrp417stpott85r,OwEvveDj,2020-0188,2020-05-08,13:41:45,13:56:16,NA,incomplete,143,number,1,right,Green_Plus_Grid_2.jpg,Red_Plus_Stripes_1.jpg,Blue_Star_Dots_2.jpg,right,692.5800000026356,true,high,false
OwEvveDj,36818z1kw6qmfrfyj2vkz259guma30,3q5zz9zevssdx27hrp417stpott85r,OwEvveDj,2020-0188,2020-05-08,13:41:45,13:56:16,NA,incomplete,144,number,1,left,Red_Circle_Chess_2.jpg,Purple_Star_Dots_2.jpg,Blue_Circle_Grid_4.jpg,left,835.6399999902351,true,high,false
OwEvveDj,36818z1kw6qmfrfyj2vkz259guma30,3q5zz9zevssdx27hrp417stpott85r,OwEvveDj,2020-0188,2020-05-08,13:41:45,13:56:16,NA,incomplete,145,number,1,left,Green_Star_Stripes_2.jpg,Purple_Plus_Dots_2.jpg,Red_Star_Chess_1.jpg,left,792.7400000044145,true,high,false
OwEvveDj,36818z1kw6qmfrfyj2vkz259guma30,3q5zz9zevssdx27hrp417stpott85r,OwEvveDj,2020-0188,2020-05-08,13:41:45,13:56:16,NA,incomplete,146,number,1,left,Purple_Circle_Dots_2.jpg,Green_Star_Chess_2.jpg,Red_Circle_Grid_4.jpg,left,736.2649999995483,true,high,false
OwEvveDj,36818z1kw6qmfrfyj2vkz259guma30,3q5zz9zevssdx27hrp417stpott85r,OwEvveDj,2020-0188,2020-05-08,13:41:45,13:56:16,NA,incomplete,147,number,1,left,Green_Plus_Dots_4.jpg,Purple_Star_Stripes_4.jpg,Blue_Plus_Grid_1.jpg,left,881.6650000080699,true,high,false
OwEvveDj,36818z1kw6qmfrfyj2vkz259guma30,3q5zz9zevssdx27hrp417stpott85r,OwEvveDj,2020-0188,2020-05-08,13:41:45,13:56:16,NA,incomplete,148,number,0,right,Blue_Star_Dots_2.jpg,Purple_Star_Grid_1.jpg,Red_Circle_Chess_2.jpg,right,933.9499999914551,true,high,false
OwEvveDj,36818z1kw6qmfrfyj2vkz259guma30,3q5zz9zevssdx27hrp417stpott85r,OwEvveDj,2020-0188,2020-05-08,13:41:45,13:56:16,NA,incomplete,149,number,1,left,Red_Circle_Chess_2.jpg,Blue_Triangle_Stripes_2.jpg,Green_Circle_Dots_4.jpg,left,736.9500000058906,true,high,false
OwEvveDj,36818z1kw6qmfrfyj2vkz259guma30,3q5zz9zevssdx27hrp417stpott85r,OwEvveDj,2020-0188,2020-05-08,13:41:45,13:56:16,NA,incomplete,150,number,1,right,Green_Plus_Grid_3.jpg,Blue_Plus_Stripes_2.jpg,Purple_Triangle_Chess_3.jpg,right,882.5600000127451,true,high,false
OwEvveDj,36818z1kw6qmfrfyj2vkz259guma30,3q5zz9zevssdx27hrp417stpott85r,OwEvveDj,2020-0188,2020-05-08,13:41:45,13:56:16,NA,incomplete,151,number,1,right,Green_Plus_Dots_3.jpg,Red_Plus_Stripes_1.jpg,Purple_Triangle_Grid_3.jpg,right,573.6949999991339,true,high,false
OwEvveDj,36818z1kw6qmfrfyj2vkz259guma30,3q5zz9zevssdx27hrp417stpott85r,OwEvveDj,2020-0188,2020-05-08,13:41:45,13:56:16,NA,incomplete,152,number,1,left,Green_Star_Stripes_3.jpg,Purple_Plus_Grid_3.jpg,Blue_Star_Dots_1.jpg,left,592.9199999955017,true,high,false
OwEvveDj,36818z1kw6qmfrfyj2vkz259guma30,3q5zz9zevssdx27hrp417stpott85r,OwEvveDj,2020-0188,2020-05-08,13:41:45,13:56:16,NA,incomplete,153,number,1,left,Purple_Star_Grid_4.jpg,Blue_Circle_Dots_4.jpg,Red_Star_Stripes_3.jpg,left,743.1849999993574,true,high,false
OwEvveDj,36818z1kw6qmfrfyj2vkz259guma30,3q5zz9zevssdx27hrp417stpott85r,OwEvveDj,2020-0188,2020-05-08,13:41:45,13:56:16,NA,incomplete,154,number,1,right,Green_Circle_Dots_1.jpg,Red_Circle_Chess_2.jpg,Purple_Plus_Stripes_1.jpg,right,894.3549999967217,true,high,false
OwEvveDj,36818z1kw6qmfrfyj2vkz259guma30,3q5zz9zevssdx27hrp417stpott85r,OwEvveDj,2020-0188,2020-05-08,13:41:45,13:56:16,NA,incomplete,155,number,0,right,Green_Plus_Dots_4.jpg,Blue_Plus_Stripes_1.jpg,Purple_Star_Chess_4.jpg,left,773.1099999946309,false,high,false
OwEvveDj,36818z1kw6qmfrfyj2vkz259guma30,3q5zz9zevssdx27hrp417stpott85r,OwEvveDj,2020-0188,2020-05-08,13:41:45,13:56:16,NA,incomplete,156,number,1,right,Blue_Plus_Chess_1.jpg,Purple_Plus_Grid_2.jpg,Red_Circle_Stripes_1.jpg,left,617.5900000089314,false,high,false
OwEvveDj,36818z1kw6qmfrfyj2vkz259guma30,3q5zz9zevssdx27hrp417stpott85r,OwEvveDj,2020-0188,2020-05-08,13:41:45,13:56:16,NA,incomplete,157,number,1,left,Red_Triangle_Chess_2.jpg,Blue_Circle_Dots_2.jpg,Green_Triangle_Grid_4.jpg,left,743.929999996908,true,high,false
OwEvveDj,36818z1kw6qmfrfyj2vkz259guma30,3q5zz9zevssdx27hrp417stpott85r,OwEvveDj,2020-0188,2020-05-08,13:41:45,13:56:16,NA,incomplete,158,number,1,left,Red_Star_Dots_2.jpg,Green_Plus_Chess_2.jpg,Purple_Star_Grid_1.jpg,left,817.735000004177,true,high,false
OwEvveDj,36818z1kw6qmfrfyj2vkz259guma30,3q5zz9zevssdx27hrp417stpott85r,OwEvveDj,2020-0188,2020-05-08,13:41:45,13:56:16,NA,incomplete,159,number,1,right,Red_Star_Chess_2.jpg,Blue_Star_Grid_1.jpg,Green_Triangle_Stripes_2.jpg,right,740.3099999937695,true,high,false
OwEvveDj,36818z1kw6qmfrfyj2vkz259guma30,3q5zz9zevssdx27hrp417stpott85r,OwEvveDj,2020-0188,2020-05-08,13:41:45,13:56:16,NA,incomplete,160,shape,1,right,Blue_Circle_Chess_4.jpg,Purple_Star_Stripes_4.jpg,Green_Circle_Dots_1.jpg,left,751.8450000061421,false,high,false
OwEvveDj,36818z1kw6qmfrfyj2vkz259guma30,3q5zz9zevssdx27hrp417stpott85r,OwEvveDj,2020-0188,2020-05-08,13:41:45,13:56:16,NA,incomplete,161,shape,1,left,Blue_Star_Dots_4.jpg,Purple_Star_Stripes_1.jpg,Red_Plus_Chess_4.jpg,right,605.9049999894341,false,high,false
OwEvveDj,36818z1kw6qmfrfyj2vkz259guma30,3q5zz9zevssdx27hrp417stpott85r,OwEvveDj,2020-0188,2020-05-08,13:41:45,13:56:16,NA,incomplete,162,shape,1,left,Purple_Plus_Chess_2.jpg,Blue_Plus_Dots_1.jpg,Red_Triangle_Grid_2.jpg,left,814.7849999950267,true,high,false
OwEvveDj,36818z1kw6qmfrfyj2vkz259guma30,3q5zz9zevssdx27hrp417stpott85r,OwEvveDj,2020-0188,2020-05-08,13:41:45,13:56:16,NA,incomplete,163,shape,0,left,Blue_Triangle_Stripes_1.jpg,Red_Triangle_Grid_4.jpg,Green_Plus_Dots_1.jpg,right,727.0300000091083,false,high,false
OwEvveDj,36818z1kw6qmfrfyj2vkz259guma30,3q5zz9zevssdx27hrp417stpott85r,OwEvveDj,2020-0188,2020-05-08,13:41:45,13:56:16,NA,incomplete,164,shape,1,right,Red_Plus_Grid_4.jpg,Green_Circle_Chess_4.jpg,Purple_Plus_Dots_1.jpg,right,864.9050000094576,true,high,false
OwEvveDj,36818z1kw6qmfrfyj2vkz259guma30,3q5zz9zevssdx27hrp417stpott85r,OwEvveDj,2020-0188,2020-05-08,13:41:45,13:56:16,NA,incomplete,165,shape,1,right,Purple_Star_Grid_1.jpg,Blue_Triangle_Chess_1.jpg,Green_Star_Dots_3.jpg,left,733.2049999968149,false,high,false
OwEvveDj,36818z1kw6qmfrfyj2vkz259guma30,3q5zz9zevssdx27hrp417stpott85r,OwEvveDj,2020-0188,2020-05-08,13:41:45,13:56:16,NA,incomplete,166,shape,1,left,Blue_Circle_Chess_1.jpg,Green_Circle_Dots_4.jpg,Purple_Triangle_Stripes_1.jpg,left,1081.014999988838,true,high,false
OwEvveDj,36818z1kw6qmfrfyj2vkz259guma30,3q5zz9zevssdx27hrp417stpott85r,OwEvveDj,2020-0188,2020-05-08,13:41:45,13:56:16,NA,incomplete,167,shape,0,left,Purple_Circle_Dots_4.jpg,Green_Circle_Chess_3.jpg,Blue_Plus_Grid_4.jpg,left,1057.2149999934481,true,high,false
OwEvveDj,36818z1kw6qmfrfyj2vkz259guma30,3q5zz9zevssdx27hrp417stpott85r,OwEvveDj,2020-0188,2020-05-08,13:41:45,13:56:16,NA,incomplete,168,shape,1,left,Green_Triangle_Chess_3.jpg,Red_Triangle_Dots_2.jpg,Blue_Circle_Stripes_3.jpg,left,980.5499999929452,true,high,false
OwEvveDj,36818z1kw6qmfrfyj2vkz259guma30,3q5zz9zevssdx27hrp417stpott85r,OwEvveDj,2020-0188,2020-05-08,13:41:45,13:56:16,NA,incomplete,169,shape,1,right,Red_Plus_Grid_1.jpg,Purple_Circle_Dots_1.jpg,Green_Plus_Stripes_2.jpg,right,672.4150000081863,true,high,false
OwEvveDj,36818z1kw6qmfrfyj2vkz259guma30,3q5zz9zevssdx27hrp417stpott85r,OwEvveDj,2020-0188,2020-05-08,13:41:45,13:56:16,NA,incomplete,170,shape,1,left,Green_Circle_Chess_4.jpg,Purple_Circle_Grid_2.jpg,Blue_Triangle_Stripes_4.jpg,left,743.2799999951385,true,high,false
OwEvveDj,36818z1kw6qmfrfyj2vkz259guma30,3q5zz9zevssdx27hrp417stpott85r,OwEvveDj,2020-0188,2020-05-08,13:41:45,13:56:16,NA,incomplete,171,shape,1,right,Green_Star_Stripes_4.jpg,Red_Triangle_Grid_4.jpg,Purple_Star_Dots_1.jpg,right,784.5100000122329,true,high,false
OwEvveDj,36818z1kw6qmfrfyj2vkz259guma30,3q5zz9zevssdx27hrp417stpott85r,OwEvveDj,2020-0188,2020-05-08,13:41:45,13:56:16,NA,incomplete,172,shape,0,right,Red_Plus_Grid_3.jpg,Green_Star_Dots_3.jpg,Purple_Plus_Chess_4.jpg,right,981.2799999926938,true,high,false
OwEvveDj,36818z1kw6qmfrfyj2vkz259guma30,3q5zz9zevssdx27hrp417stpott85r,OwEvveDj,2020-0188,2020-05-08,13:41:45,13:56:16,NA,incomplete,173,shape,1,left,Purple_Plus_Grid_4.jpg,Green_Plus_Stripes_3.jpg,Red_Circle_Dots_4.jpg,left,819.2999999882886,true,high,false
OwEvveDj,36818z1kw6qmfrfyj2vkz259guma30,3q5zz9zevssdx27hrp417stpott85r,OwEvveDj,2020-0188,2020-05-08,13:41:45,13:56:16,NA,incomplete,174,shape,1,right,Green_Star_Grid_1.jpg,Red_Triangle_Stripes_1.jpg,Purple_Star_Dots_4.jpg,right,847.2100000071805,true,high,false
OwEvveDj,36818z1kw6qmfrfyj2vkz259guma30,3q5zz9zevssdx27hrp417stpott85r,OwEvveDj,2020-0188,2020-05-08,13:41:45,13:56:16,NA,incomplete,175,shape,1,right,Green_Star_Chess_3.jpg,Purple_Circle_Dots_3.jpg,Red_Star_Stripes_4.jpg,right,701.61500001268,true,high,false
OwEvveDj,36818z1kw6qmfrfyj2vkz259guma30,3q5zz9zevssdx27hrp417stpott85r,OwEvveDj,2020-0188,2020-05-08,13:41:45,13:56:16,NA,incomplete,176,shape,1,left,Red_Plus_Stripes_4.jpg,Blue_Plus_Dots_2.jpg,Green_Star_Grid_4.jpg,left,773.2400000095367,true,high,false
OwEvveDj,36818z1kw6qmfrfyj2vkz259guma30,3q5zz9zevssdx27hrp417stpott85r,OwEvveDj,2020-0188,2020-05-08,13:41:45,13:56:16,NA,incomplete,177,shape,1,left,Purple_Plus_Stripes_4.jpg,Red_Plus_Grid_2.jpg,Green_Star_Chess_4.jpg,left,828.6400000069989,true,high,false
OwEvveDj,36818z1kw6qmfrfyj2vkz259guma30,3q5zz9zevssdx27hrp417stpott85r,OwEvveDj,2020-0188,2020-05-08,13:41:45,13:56:16,NA,incomplete,178,shape,1,left,Purple_Star_Dots_3.jpg,Blue_Star_Chess_4.jpg,Red_Triangle_Grid_3.jpg,left,838.8299999933224,true,high,false
OwEvveDj,36818z1kw6qmfrfyj2vkz259guma30,3q5zz9zevssdx27hrp417stpott85r,OwEvveDj,2020-0188,2020-05-08,13:41:45,13:56:16,NA,incomplete,179,shape,1,right,Red_Circle_Grid_2.jpg,Blue_Triangle_Stripes_2.jpg,Purple_Circle_Dots_1.jpg,right,826.359999991837,true,high,false
OwEvveDj,36818z1kw6qmfrfyj2vkz259guma30,3q5zz9zevssdx27hrp417stpott85r,OwEvveDj,2020-0188,2020-05-08,13:41:45,13:56:16,NA,incomplete,180,number,1,left,Purple_Circle_Grid_2.jpg,Green_Star_Chess_2.jpg,Red_Circle_Stripes_4.jpg,right,769.3200000067009,false,high,false
OwEvveDj,36818z1kw6qmfrfyj2vkz259guma30,3q5zz9zevssdx27hrp417stpott85r,OwEvveDj,2020-0188,2020-05-08,13:41:45,13:56:16,NA,incomplete,181,number,0,left,Green_Triangle_Stripes_1.jpg,Blue_Plus_Dots_1.jpg,Red_Triangle_Chess_4.jpg,right,870.8199999964563,false,high,false
OwEvveDj,36818z1kw6qmfrfyj2vkz259guma30,3q5zz9zevssdx27hrp417stpott85r,OwEvveDj,2020-0188,2020-05-08,13:41:45,13:56:16,NA,incomplete,182,number,1,right,Blue_Star_Stripes_1.jpg,Purple_Star_Chess_2.jpg,Green_Circle_Grid_1.jpg,left,896.7100000008941,false,high,false
OwEvveDj,36818z1kw6qmfrfyj2vkz259guma30,3q5zz9zevssdx27hrp417stpott85r,OwEvveDj,2020-0188,2020-05-08,13:41:45,13:56:16,NA,incomplete,183,number,0,right,Purple_Triangle_Chess_3.jpg,Blue_Triangle_Dots_1.jpg,Green_Circle_Stripes_3.jpg,right,1159.5499999966705,true,high,false
OwEvveDj,36818z1kw6qmfrfyj2vkz259guma30,3q5zz9zevssdx27hrp417stpott85r,OwEvveDj,2020-0188,2020-05-08,13:41:45,13:56:16,NA,incomplete,184,number,1,left,Blue_Star_Grid_2.jpg,Green_Triangle_Chess_2.jpg,Purple_Star_Dots_3.jpg,right,1055.3800000052433,false,high,false
OwEvveDj,36818z1kw6qmfrfyj2vkz259guma30,3q5zz9zevssdx27hrp417stpott85r,OwEvveDj,2020-0188,2020-05-08,13:41:45,13:56:16,NA,incomplete,185,number,1,left,Blue_Circle_Chess_2.jpg,Green_Star_Dots_2.jpg,Purple_Circle_Grid_4.jpg,left,790.5549999995856,true,high,false
OwEvveDj,36818z1kw6qmfrfyj2vkz259guma30,3q5zz9zevssdx27hrp417stpott85r,OwEvveDj,2020-0188,2020-05-08,13:41:45,13:56:16,NA,incomplete,186,number,1,left,Green_Plus_Chess_4.jpg,Red_Circle_Stripes_4.jpg,Blue_Plus_Dots_3.jpg,left,743.8050000055227,true,high,false
OwEvveDj,36818z1kw6qmfrfyj2vkz259guma30,3q5zz9zevssdx27hrp417stpott85r,OwEvveDj,2020-0188,2020-05-08,13:41:45,13:56:16,NA,incomplete,187,number,1,left,Red_Star_Grid_2.jpg,Purple_Plus_Dots_2.jpg,Green_Star_Stripes_3.jpg,left,663.3399999991525,true,high,false
OwEvveDj,36818z1kw6qmfrfyj2vkz259guma30,3q5zz9zevssdx27hrp417stpott85r,OwEvveDj,2020-0188,2020-05-08,13:41:45,13:56:16,NA,incomplete,188,number,1,left,Purple_Star_Stripes_3.jpg,Green_Triangle_Dots_3.jpg,Blue_Star_Grid_2.jpg,left,858.715000009397,true,high,false
OwEvveDj,36818z1kw6qmfrfyj2vkz259guma30,3q5zz9zevssdx27hrp417stpott85r,OwEvveDj,2020-0188,2020-05-08,13:41:45,13:56:16,NA,incomplete,189,number,1,left,Purple_Plus_Grid_1.jpg,Green_Star_Stripes_1.jpg,Blue_Plus_Chess_4.jpg,left,673.3799999929033,true,high,false
OwEvveDj,36818z1kw6qmfrfyj2vkz259guma30,3q5zz9zevssdx27hrp417stpott85r,OwEvveDj,2020-0188,2020-05-08,13:41:45,13:56:16,NA,incomplete,190,number,0,right,Green_Circle_Grid_1.jpg,Purple_Circle_Dots_2.jpg,Blue_Star_Chess_1.jpg,right,710.9150000032969,true,high,false
OwEvveDj,36818z1kw6qmfrfyj2vkz259guma30,3q5zz9zevssdx27hrp417stpott85r,OwEvveDj,2020-0188,2020-05-08,13:41:45,13:56:16,NA,incomplete,191,number,1,right,Blue_Star_Grid_3.jpg,Purple_Star_Chess_1.jpg,Red_Triangle_Stripes_3.jpg,right,654.9400000076275,true,high,false
OwEvveDj,36818z1kw6qmfrfyj2vkz259guma30,3q5zz9zevssdx27hrp417stpott85r,OwEvveDj,2020-0188,2020-05-08,13:41:45,13:56:16,NA,incomplete,192,number,0,right,Blue_Triangle_Stripes_3.jpg,Green_Triangle_Chess_4.jpg,Purple_Star_Dots_3.jpg,right,728.1099999963772,true,high,false
OwEvveDj,36818z1kw6qmfrfyj2vkz259guma30,3q5zz9zevssdx27hrp417stpott85r,OwEvveDj,2020-0188,2020-05-08,13:41:45,13:56:16,NA,incomplete,193,number,1,right,Green_Triangle_Chess_1.jpg,Red_Triangle_Grid_4.jpg,Purple_Star_Stripes_1.jpg,right,712.5749999977415,true,high,false
OwEvveDj,36818z1kw6qmfrfyj2vkz259guma30,3q5zz9zevssdx27hrp417stpott85r,OwEvveDj,2020-0188,2020-05-08,13:41:45,13:56:16,NA,incomplete,194,number,0,right,Blue_Plus_Chess_3.jpg,Green_Plus_Stripes_1.jpg,Red_Circle_Dots_3.jpg,right,647.160000007716,true,high,false
OwEvveDj,36818z1kw6qmfrfyj2vkz259guma30,3q5zz9zevssdx27hrp417stpott85r,OwEvveDj,2020-0188,2020-05-08,13:41:45,13:56:16,NA,incomplete,195,number,1,left,Red_Star_Grid_3.jpg,Blue_Plus_Stripes_3.jpg,Purple_Star_Chess_4.jpg,left,807.0949999964796,true,high,false
OwEvveDj,36818z1kw6qmfrfyj2vkz259guma30,3q5zz9zevssdx27hrp417stpott85r,OwEvveDj,2020-0188,2020-05-08,13:41:45,13:56:16,NA,incomplete,196,number,1,left,Purple_Triangle_Chess_2.jpg,Green_Plus_Grid_2.jpg,Blue_Triangle_Stripes_4.jpg,left,780.8499999955529,true,high,false
OwEvveDj,36818z1kw6qmfrfyj2vkz259guma30,3q5zz9zevssdx27hrp417stpott85r,OwEvveDj,2020-0188,2020-05-08,13:41:45,13:56:16,NA,incomplete,197,number,1,left,Green_Star_Dots_1.jpg,Blue_Triangle_Stripes_1.jpg,Purple_Star_Chess_4.jpg,left,719.0350000018952,true,high,false
OwEvveDj,36818z1kw6qmfrfyj2vkz259guma30,3q5zz9zevssdx27hrp417stpott85r,OwEvveDj,2020-0188,2020-05-08,13:41:45,13:56:16,NA,incomplete,198,number,1,left,Purple_Circle_Dots_2.jpg,Blue_Triangle_Stripes_2.jpg,Red_Circle_Chess_4.jpg,left,869.2750000045635,true,high,false
OwEvveDj,36818z1kw6qmfrfyj2vkz259guma30,3q5zz9zevssdx27hrp417stpott85r,OwEvveDj,2020-0188,2020-05-08,13:41:45,13:56:16,NA,incomplete,199,number,0,left,Blue_Plus_Chess_2.jpg,Green_Triangle_Grid_2.jpg,Red_Plus_Stripes_1.jpg,left,704.9050000059651,true,high,false
OwEvveDj,36818z1kw6qmfrfyj2vkz259guma30,3q5zz9zevssdx27hrp417stpott85r,OwEvveDj,2020-0188,2020-05-08,13:41:45,13:56:16,NA,incomplete,200,shape,1,left,Red_Circle_Grid_2.jpg,Blue_Circle_Stripes_4.jpg,Purple_Star_Chess_2.jpg,right,734.1400000004796,false,high,false
OwEvveDj,36818z1kw6qmfrfyj2vkz259guma30,3q5zz9zevssdx27hrp417stpott85r,OwEvveDj,2020-0188,2020-05-08,13:41:45,13:56:16,NA,incomplete,201,shape,0,right,Blue_Plus_Stripes_3.jpg,Green_Triangle_Dots_3.jpg,Red_Plus_Chess_1.jpg,right,788.8600000005681,true,high,false
OwEvveDj,36818z1kw6qmfrfyj2vkz259guma30,3q5zz9zevssdx27hrp417stpott85r,OwEvveDj,2020-0188,2020-05-08,13:41:45,13:56:16,NA,incomplete,202,shape,1,right,Red_Circle_Stripes_1.jpg,Purple_Triangle_Chess_1.jpg,Green_Circle_Grid_4.jpg,right,866.6649999941001,true,high,false
OwEvveDj,36818z1kw6qmfrfyj2vkz259guma30,3q5zz9zevssdx27hrp417stpott85r,OwEvveDj,2020-0188,2020-05-08,13:41:45,13:56:16,NA,incomplete,203,shape,1,left,Green_Star_Dots_2.jpg,Red_Star_Grid_3.jpg,Blue_Triangle_Stripes_2.jpg,left,665.8900000038557,true,high,false
OwEvveDj,36818z1kw6qmfrfyj2vkz259guma30,3q5zz9zevssdx27hrp417stpott85r,OwEvveDj,2020-0188,2020-05-08,13:41:45,13:56:16,NA,incomplete,204,shape,1,right,Purple_Triangle_Stripes_4.jpg,Green_Plus_Chess_4.jpg,Red_Triangle_Dots_3.jpg,right,956.8900000012945,true,high,false
OwEvveDj,36818z1kw6qmfrfyj2vkz259guma30,3q5zz9zevssdx27hrp417stpott85r,OwEvveDj,2020-0188,2020-05-08,13:41:45,13:56:16,NA,incomplete,205,shape,1,left,Red_Circle_Chess_3.jpg,Purple_Circle_Dots_4.jpg,Blue_Star_Stripes_3.jpg,left,823.435000012978,true,high,false
OwEvveDj,36818z1kw6qmfrfyj2vkz259guma30,3q5zz9zevssdx27hrp417stpott85r,OwEvveDj,2020-0188,2020-05-08,13:41:45,13:56:16,NA,incomplete,206,shape,0,left,Green_Circle_Dots_3.jpg,Red_Circle_Chess_1.jpg,Blue_Triangle_Stripes_3.jpg,left,1035.8149999956368,true,high,false
OwEvveDj,36818z1kw6qmfrfyj2vkz259guma30,3q5zz9zevssdx27hrp417stpott85r,OwEvveDj,2020-0188,2020-05-08,13:41:45,13:56:16,NA,incomplete,207,shape,1,left,Red_Star_Grid_1.jpg,Blue_Star_Stripes_4.jpg,Purple_Plus_Dots_1.jpg,left,1064.8049999872455,true,high,false
OwEvveDj,36818z1kw6qmfrfyj2vkz259guma30,3q5zz9zevssdx27hrp417stpott85r,OwEvveDj,2020-0188,2020-05-08,13:41:45,13:56:16,NA,incomplete,208,shape,1,right,Blue_Triangle_Stripes_1.jpg,Green_Circle_Grid_1.jpg,Red_Triangle_Dots_3.jpg,right,727.5850000005448,true,high,false
OwEvveDj,36818z1kw6qmfrfyj2vkz259guma30,3q5zz9zevssdx27hrp417stpott85r,OwEvveDj,2020-0188,2020-05-08,13:41:45,13:56:16,NA,incomplete,209,shape,1,left,Blue_Plus_Stripes_4.jpg,Red_Plus_Chess_2.jpg,Purple_Circle_Grid_4.jpg,left,793.4299999906216,true,high,false
OwEvveDj,36818z1kw6qmfrfyj2vkz259guma30,3q5zz9zevssdx27hrp417stpott85r,OwEvveDj,2020-0188,2020-05-08,13:41:45,13:56:16,NA,incomplete,210,shape,0,right,Green_Star_Dots_1.jpg,Red_Circle_Grid_1.jpg,Blue_Star_Stripes_3.jpg,right,737.7600000036182,true,high,false
OwEvveDj,36818z1kw6qmfrfyj2vkz259guma30,3q5zz9zevssdx27hrp417stpott85r,OwEvveDj,2020-0188,2020-05-08,13:41:45,13:56:16,NA,incomplete,211,shape,1,left,Red_Circle_Stripes_4.jpg,Green_Circle_Chess_2.jpg,Blue_Plus_Dots_4.jpg,left,622.0900000043912,true,high,false
OwEvveDj,36818z1kw6qmfrfyj2vkz259guma30,3q5zz9zevssdx27hrp417stpott85r,OwEvveDj,2020-0188,2020-05-08,13:41:45,13:56:16,NA,incomplete,212,shape,1,right,Purple_Triangle_Dots_4.jpg,Red_Circle_Chess_4.jpg,Green_Triangle_Stripes_3.jpg,right,722.685000000638,true,high,false
OwEvveDj,36818z1kw6qmfrfyj2vkz259guma30,3q5zz9zevssdx27hrp417stpott85r,OwEvveDj,2020-0188,2020-05-08,13:41:45,13:56:16,NA,incomplete,213,shape,1,left,Blue_Circle_Chess_1.jpg,Green_Circle_Grid_4.jpg,Red_Star_Stripes_1.jpg,left,830.1399999909336,true,high,false
OwEvveDj,36818z1kw6qmfrfyj2vkz259guma30,3q5zz9zevssdx27hrp417stpott85r,OwEvveDj,2020-0188,2020-05-08,13:41:45,13:56:16,NA,incomplete,214,shape,1,left,Purple_Circle_Grid_1.jpg,Blue_Circle_Dots_4.jpg,Red_Star_Chess_1.jpg,left,809.1500000009546,true,high,false
OwEvveDj,36818z1kw6qmfrfyj2vkz259guma30,3q5zz9zevssdx27hrp417stpott85r,OwEvveDj,2020-0188,2020-05-08,13:41:45,13:56:16,NA,incomplete,215,shape,1,left,Red_Circle_Stripes_3.jpg,Blue_Circle_Chess_2.jpg,Purple_Triangle_Grid_3.jpg,left,655.7099999918137,true,high,false
OwEvveDj,36818z1kw6qmfrfyj2vkz259guma30,3q5zz9zevssdx27hrp417stpott85r,OwEvveDj,2020-0188,2020-05-08,13:41:45,13:56:16,NA,incomplete,216,shape,0,left,Blue_Circle_Grid_2.jpg,Purple_Circle_Dots_4.jpg,Green_Star_Stripes_2.jpg,left,759.4550000067102,true,high,false
OwEvveDj,36818z1kw6qmfrfyj2vkz259guma30,3q5zz9zevssdx27hrp417stpott85r,OwEvveDj,2020-0188,2020-05-08,13:41:45,13:56:16,NA,incomplete,217,shape,1,left,Purple_Triangle_Stripes_1.jpg,Red_Triangle_Grid_2.jpg,Green_Circle_Chess_1.jpg,left,667.8899999969872,true,high,false
OwEvveDj,36818z1kw6qmfrfyj2vkz259guma30,3q5zz9zevssdx27hrp417stpott85r,OwEvveDj,2020-0188,2020-05-08,13:41:45,13:56:16,NA,incomplete,218,shape,1,left,Purple_Triangle_Grid_2.jpg,Red_Triangle_Dots_4.jpg,Green_Circle_Stripes_2.jpg,left,728.3150000002934,true,high,false
OwEvveDj,36818z1kw6qmfrfyj2vkz259guma30,3q5zz9zevssdx27hrp417stpott85r,OwEvveDj,2020-0188,2020-05-08,13:41:45,13:56:16,NA,incomplete,219,shape,1,left,Red_Plus_Stripes_2.jpg,Blue_Plus_Dots_3.jpg,Purple_Circle_Chess_2.jpg,left,701.6250000015134,true,high,false
OwEvveDj,36818z1kw6qmfrfyj2vkz259guma30,3q5zz9zevssdx27hrp417stpott85r,OwEvveDj,2020-0188,2020-05-08,13:41:45,13:56:16,NA,incomplete,220,number,1,left,Purple_Circle_Grid_2.jpg,Green_Star_Chess_2.jpg,Blue_Circle_Stripes_1.jpg,right,661.0499999951571,false,high,false
OwEvveDj,36818z1kw6qmfrfyj2vkz259guma30,3q5zz9zevssdx27hrp417stpott85r,OwEvveDj,2020-0188,2020-05-08,13:41:45,13:56:16,NA,incomplete,221,number,1,left,Green_Star_Stripes_1.jpg,Red_Plus_Dots_1.jpg,Blue_Star_Grid_3.jpg,right,739.3349999911152,false,high,false
OwEvveDj,36818z1kw6qmfrfyj2vkz259guma30,3q5zz9zevssdx27hrp417stpott85r,OwEvveDj,2020-0188,2020-05-08,13:41:45,13:56:16,NA,incomplete,222,number,1,left,Red_Circle_Stripes_4.jpg,Purple_Plus_Dots_4.jpg,Blue_Circle_Chess_1.jpg,left,637.445000000298,true,high,false
OwEvveDj,36818z1kw6qmfrfyj2vkz259guma30,3q5zz9zevssdx27hrp417stpott85r,OwEvveDj,2020-0188,2020-05-08,13:41:45,13:56:16,NA,incomplete,223,number,1,right,Green_Plus_Grid_1.jpg,Blue_Plus_Stripes_4.jpg,Red_Triangle_Chess_1.jpg,right,759.4200000021374,true,high,false
OwEvveDj,36818z1kw6qmfrfyj2vkz259guma30,3q5zz9zevssdx27hrp417stpott85r,OwEvveDj,2020-0188,2020-05-08,13:41:45,13:56:16,NA,incomplete,224,number,1,right,Blue_Plus_Stripes_2.jpg,Red_Plus_Dots_3.jpg,Green_Triangle_Grid_2.jpg,right,741.5949999995064,true,high,false
OwEvveDj,36818z1kw6qmfrfyj2vkz259guma30,3q5zz9zevssdx27hrp417stpott85r,OwEvveDj,2020-0188,2020-05-08,13:41:45,13:56:16,NA,incomplete,225,number,1,right,Green_Circle_Grid_3.jpg,Red_Circle_Dots_1.jpg,Blue_Plus_Stripes_3.jpg,right,613.6350000015227,true,high,false
OwEvveDj,36818z1kw6qmfrfyj2vkz259guma30,3q5zz9zevssdx27hrp417stpott85r,OwEvveDj,2020-0188,2020-05-08,13:41:45,13:56:16,NA,incomplete,226,number,1,right,Red_Circle_Stripes_4.jpg,Blue_Circle_Dots_2.jpg,Green_Star_Grid_4.jpg,right,1010.9249999950407,true,high,false
OwEvveDj,36818z1kw6qmfrfyj2vkz259guma30,3q5zz9zevssdx27hrp417stpott85r,OwEvveDj,2020-0188,2020-05-08,13:41:45,13:56:16,NA,incomplete,227,number,1,right,Red_Triangle_Dots_1.jpg,Purple_Triangle_Grid_2.jpg,Blue_Plus_Stripes_1.jpg,right,790.6099999963772,true,high,false
OwEvveDj,36818z1kw6qmfrfyj2vkz259guma30,3q5zz9zevssdx27hrp417stpott85r,OwEvveDj,2020-0188,2020-05-08,13:41:45,13:56:16,NA,incomplete,228,number,1,right,Blue_Circle_Chess_1.jpg,Purple_Circle_Dots_2.jpg,Red_Triangle_Stripes_1.jpg,right,771.2949999986449,true,high,false
OwEvveDj,36818z1kw6qmfrfyj2vkz259guma30,3q5zz9zevssdx27hrp417stpott85r,OwEvveDj,2020-0188,2020-05-08,13:41:45,13:56:16,NA,incomplete,229,number,0,right,Red_Circle_Dots_2.jpg,Blue_Circle_Stripes_3.jpg,Purple_Plus_Chess_2.jpg,right,822.9949999949895,true,high,false
OwEvveDj,36818z1kw6qmfrfyj2vkz259guma30,3q5zz9zevssdx27hrp417stpott85r,OwEvveDj,2020-0188,2020-05-08,13:41:45,13:56:16,NA,incomplete,230,number,1,left,Purple_Triangle_Grid_1.jpg,Red_Plus_Dots_1.jpg,Blue_Triangle_Stripes_3.jpg,left,643.2199999981094,true,high,false
OwEvveDj,36818z1kw6qmfrfyj2vkz259guma30,3q5zz9zevssdx27hrp417stpott85r,OwEvveDj,2020-0188,2020-05-08,13:41:45,13:56:16,NA,incomplete,231,number,1,right,Blue_Star_Dots_4.jpg,Green_Star_Stripes_2.jpg,Purple_Circle_Grid_4.jpg,right,814.1049999976531,true,high,false
OwEvveDj,36818z1kw6qmfrfyj2vkz259guma30,3q5zz9zevssdx27hrp417stpott85r,OwEvveDj,2020-0188,2020-05-08,13:41:45,13:56:16,NA,incomplete,232,number,1,left,Blue_Plus_Dots_3.jpg,Red_Triangle_Stripes_3.jpg,Green_Plus_Grid_2.jpg,left,765.9700000076555,true,high,false
OwEvveDj,36818z1kw6qmfrfyj2vkz259guma30,3q5zz9zevssdx27hrp417stpott85r,OwEvveDj,2020-0188,2020-05-08,13:41:45,13:56:16,NA,incomplete,233,number,0,right,Blue_Triangle_Grid_4.jpg,Purple_Triangle_Chess_3.jpg,Green_Star_Stripes_4.jpg,right,642.7900000126101,true,high,false
OwEvveDj,36818z1kw6qmfrfyj2vkz259guma30,3q5zz9zevssdx27hrp417stpott85r,OwEvveDj,2020-0188,2020-05-08,13:41:45,13:56:16,NA,incomplete,234,number,1,right,Blue_Plus_Grid_2.jpg,Red_Plus_Stripes_3.jpg,Green_Star_Chess_2.jpg,right,789.1700000036508,true,high,false
OwEvveDj,36818z1kw6qmfrfyj2vkz259guma30,3q5zz9zevssdx27hrp417stpott85r,OwEvveDj,2020-0188,2020-05-08,13:41:45,13:56:16,NA,incomplete,235,number,0,left,Red_Circle_Dots_4.jpg,Purple_Triangle_Grid_4.jpg,Green_Circle_Chess_3.jpg,left,891.8200000043726,true,high,false
OwEvveDj,36818z1kw6qmfrfyj2vkz259guma30,3q5zz9zevssdx27hrp417stpott85r,OwEvveDj,2020-0188,2020-05-08,13:41:45,13:56:16,NA,incomplete,236,number,1,right,Red_Star_Grid_1.jpg,Purple_Star_Chess_4.jpg,Blue_Plus_Dots_1.jpg,right,565.7799999898998,true,high,false
OwEvveDj,36818z1kw6qmfrfyj2vkz259guma30,3q5zz9zevssdx27hrp417stpott85r,OwEvveDj,2020-0188,2020-05-08,13:41:45,13:56:16,NA,incomplete,237,number,0,left,Red_Circle_Dots_1.jpg,Green_Star_Grid_1.jpg,Purple_Circle_Chess_2.jpg,left,839.1300000075717,true,high,false
OwEvveDj,36818z1kw6qmfrfyj2vkz259guma30,3q5zz9zevssdx27hrp417stpott85r,OwEvveDj,2020-0188,2020-05-08,13:41:45,13:56:16,NA,incomplete,238,number,1,right,Green_Circle_Chess_3.jpg,Purple_Circle_Grid_4.jpg,Blue_Star_Dots_3.jpg,right,848.3450000057928,true,high,false
OwEvveDj,36818z1kw6qmfrfyj2vkz259guma30,3q5zz9zevssdx27hrp417stpott85r,OwEvveDj,2020-0188,2020-05-08,13:41:45,13:56:16,NA,incomplete,239,number,1,left,Purple_Star_Chess_2.jpg,Blue_Circle_Grid_2.jpg,Red_Star_Stripes_1.jpg,left,694.1399999923306,true,high,false
OwEvveDj,36818z1kw6qmfrfyj2vkz259guma30,3q5zz9zevssdx27hrp417stpott85r,OwEvveDj,2020-0188,2020-05-08,13:41:45,13:56:16,827070.0550000038,872640.0900000008,NA,NA,NA,NA,NA,NA,NA,NA,NA,NA,NA,undefined
