workerId,hitId,assignmentId,subject,studyid,exp_date,exp_start,exp_end,time_start,time_end,trial,type,reward_validity,answer,image_top,image_left,image_right,response,response_time,response_acc,volatility,age,race,gender,ethnicity,color,vision,neuro,practice
dmIbWByz,33cla8o0nlo9ukh858i8v1jgjowfr3,3r0t90iz1wpdp2mepx3xdbgx3obgcv,dmIbWByz,2020-0188,2020-05-07,18:02:58,18:27:38,NA,incomplete,0,color,1,left,Green_Star_Stripes_3.jpg,Green_Triangle_Grid_2.jpg,Purple_Circle_Chess_3.jpg,left,1361.6900000014575,true,NA,NA,NA,NA,NA,NA,NA,NA,true
dmIbWByz,33cla8o0nlo9ukh858i8v1jgjowfr3,3r0t90iz1wpdp2mepx3xdbgx3obgcv,dmIbWByz,2020-0188,2020-05-07,18:02:58,18:27:38,NA,incomplete,1,color,1,right,Green_Star_Chess_1.jpg,Purple_Triangle_Dots_1.jpg,Green_Circle_Stripes_4.jpg,right,1085.7649999997811,true,NA,NA,NA,NA,NA,NA,NA,NA,true
dmIbWByz,33cla8o0nlo9ukh858i8v1jgjowfr3,3r0t90iz1wpdp2mepx3xdbgx3obgcv,dmIbWByz,2020-0188,2020-05-07,18:02:58,18:27:38,NA,incomplete,2,color,1,right,Purple_Circle_Chess_2.jpg,Green_Plus_Stripes_2.jpg,Purple_Triangle_Dots_1.jpg,right,818.6299999996554,true,NA,NA,NA,NA,NA,NA,NA,NA,true
dmIbWByz,33cla8o0nlo9ukh858i8v1jgjowfr3,3r0t90iz1wpdp2mepx3xdbgx3obgcv,dmIbWByz,2020-0188,2020-05-07,18:02:58,18:27:38,NA,incomplete,3,color,1,left,Blue_Plus_Dots_3.jpg,Blue_Star_Grid_1.jpg,Red_Triangle_Chess_3.jpg,left,958.6849999997066,true,NA,NA,NA,NA,NA,NA,NA,NA,true
dmIbWByz,33cla8o0nlo9ukh858i8v1jgjowfr3,3r0t90iz1wpdp2mepx3xdbgx3obgcv,dmIbWByz,2020-0188,2020-05-07,18:02:58,18:27:38,NA,incomplete,4,color,1,right,Purple_Star_Grid_4.jpg,Red_Circle_Chess_4.jpg,Purple_Triangle_Dots_1.jpg,right,641.8950000007171,true,NA,NA,NA,NA,NA,NA,NA,NA,true
dmIbWByz,33cla8o0nlo9ukh858i8v1jgjowfr3,3r0t90iz1wpdp2mepx3xdbgx3obgcv,dmIbWByz,2020-0188,2020-05-07,18:02:58,18:27:38,NA,incomplete,5,color,1,left,Purple_Star_Stripes_4.jpg,Purple_Plus_Grid_1.jpg,Red_Triangle_Chess_4.jpg,left,726.4500000000698,true,NA,NA,NA,NA,NA,NA,NA,NA,true
dmIbWByz,33cla8o0nlo9ukh858i8v1jgjowfr3,3r0t90iz1wpdp2mepx3xdbgx3obgcv,dmIbWByz,2020-0188,2020-05-07,18:02:58,18:27:38,NA,incomplete,6,color,0,left,Blue_Triangle_Chess_2.jpg,Blue_Plus_Dots_3.jpg,Green_Star_Stripes_2.jpg,left,805.8000000000466,true,NA,NA,NA,NA,NA,NA,NA,NA,true
dmIbWByz,33cla8o0nlo9ukh858i8v1jgjowfr3,3r0t90iz1wpdp2mepx3xdbgx3obgcv,dmIbWByz,2020-0188,2020-05-07,18:02:58,18:27:38,NA,incomplete,7,color,1,left,Red_Plus_Chess_1.jpg,Red_Circle_Stripes_3.jpg,Purple_Star_Dots_1.jpg,left,945.7400000010384,true,NA,NA,NA,NA,NA,NA,NA,NA,true
dmIbWByz,33cla8o0nlo9ukh858i8v1jgjowfr3,3r0t90iz1wpdp2mepx3xdbgx3obgcv,dmIbWByz,2020-0188,2020-05-07,18:02:58,18:27:38,NA,incomplete,8,color,1,right,Purple_Circle_Stripes_1.jpg,Red_Star_Grid_1.jpg,Purple_Plus_Chess_3.jpg,right,729.2950000009732,true,NA,NA,NA,NA,NA,NA,NA,NA,true
dmIbWByz,33cla8o0nlo9ukh858i8v1jgjowfr3,3r0t90iz1wpdp2mepx3xdbgx3obgcv,dmIbWByz,2020-0188,2020-05-07,18:02:58,18:27:38,NA,incomplete,9,color,1,left,Green_Triangle_Stripes_1.jpg,Green_Star_Grid_3.jpg,Purple_Plus_Chess_1.jpg,left,729.7999999992317,true,NA,NA,NA,NA,NA,NA,NA,NA,true
dmIbWByz,33cla8o0nlo9ukh858i8v1jgjowfr3,3r0t90iz1wpdp2mepx3xdbgx3obgcv,dmIbWByz,2020-0188,2020-05-07,18:02:58,18:27:38,NA,incomplete,10,color,1,right,Purple_Plus_Chess_2.jpg,Red_Circle_Dots_2.jpg,Purple_Triangle_Grid_1.jpg,right,646.9300000007497,true,NA,NA,NA,NA,NA,NA,NA,NA,true
dmIbWByz,33cla8o0nlo9ukh858i8v1jgjowfr3,3r0t90iz1wpdp2mepx3xdbgx3obgcv,dmIbWByz,2020-0188,2020-05-07,18:02:58,18:27:38,NA,incomplete,11,color,1,right,Purple_Plus_Chess_2.jpg,Green_Triangle_Dots_2.jpg,Purple_Circle_Stripes_4.jpg,right,648.3150000004098,true,NA,NA,NA,NA,NA,NA,NA,NA,true
dmIbWByz,33cla8o0nlo9ukh858i8v1jgjowfr3,3r0t90iz1wpdp2mepx3xdbgx3obgcv,dmIbWByz,2020-0188,2020-05-07,18:02:58,18:27:38,NA,incomplete,12,color,1,right,Purple_Circle_Dots_2.jpg,Red_Triangle_Grid_2.jpg,Purple_Star_Stripes_1.jpg,right,548.399999999674,true,NA,NA,NA,NA,NA,NA,NA,NA,true
dmIbWByz,33cla8o0nlo9ukh858i8v1jgjowfr3,3r0t90iz1wpdp2mepx3xdbgx3obgcv,dmIbWByz,2020-0188,2020-05-07,18:02:58,18:27:38,NA,incomplete,13,color,1,left,Blue_Star_Dots_2.jpg,Blue_Triangle_Chess_1.jpg,Purple_Circle_Stripes_2.jpg,left,717.6849999995902,true,NA,NA,NA,NA,NA,NA,NA,NA,true
dmIbWByz,33cla8o0nlo9ukh858i8v1jgjowfr3,3r0t90iz1wpdp2mepx3xdbgx3obgcv,dmIbWByz,2020-0188,2020-05-07,18:02:58,18:27:38,NA,incomplete,14,color,1,right,Blue_Circle_Dots_3.jpg,Red_Triangle_Chess_3.jpg,Blue_Plus_Grid_4.jpg,right,534.0750000013504,true,NA,NA,NA,NA,NA,NA,NA,NA,true
dmIbWByz,33cla8o0nlo9ukh858i8v1jgjowfr3,3r0t90iz1wpdp2mepx3xdbgx3obgcv,dmIbWByz,2020-0188,2020-05-07,18:02:58,18:27:38,NA,incomplete,15,color,0,left,Purple_Plus_Grid_4.jpg,Purple_Triangle_Chess_2.jpg,Green_Star_Stripes_4.jpg,left,452.82000000041444,true,NA,NA,NA,NA,NA,NA,NA,NA,true
dmIbWByz,33cla8o0nlo9ukh858i8v1jgjowfr3,3r0t90iz1wpdp2mepx3xdbgx3obgcv,dmIbWByz,2020-0188,2020-05-07,18:02:58,18:27:38,NA,incomplete,16,color,1,left,Purple_Circle_Grid_3.jpg,Purple_Plus_Chess_1.jpg,Green_Star_Dots_3.jpg,left,476.6600000002654,true,NA,NA,NA,NA,NA,NA,NA,NA,true
dmIbWByz,33cla8o0nlo9ukh858i8v1jgjowfr3,3r0t90iz1wpdp2mepx3xdbgx3obgcv,dmIbWByz,2020-0188,2020-05-07,18:02:58,18:27:38,NA,incomplete,17,color,1,right,Purple_Circle_Chess_1.jpg,Red_Star_Stripes_1.jpg,Purple_Plus_Dots_3.jpg,right,604.1199999998789,true,NA,NA,NA,NA,NA,NA,NA,NA,true
dmIbWByz,33cla8o0nlo9ukh858i8v1jgjowfr3,3r0t90iz1wpdp2mepx3xdbgx3obgcv,dmIbWByz,2020-0188,2020-05-07,18:02:58,18:27:38,NA,incomplete,18,color,1,right,Blue_Star_Chess_3.jpg,Green_Plus_Grid_3.jpg,Blue_Circle_Stripes_2.jpg,right,618.9499999999534,true,NA,NA,NA,NA,NA,NA,NA,NA,true
dmIbWByz,33cla8o0nlo9ukh858i8v1jgjowfr3,3r0t90iz1wpdp2mepx3xdbgx3obgcv,dmIbWByz,2020-0188,2020-05-07,18:02:58,18:27:38,NA,incomplete,19,color,1,right,Red_Triangle_Dots_3.jpg,Purple_Circle_Chess_3.jpg,Red_Star_Grid_4.jpg,right,845.5899999989197,true,NA,NA,NA,NA,NA,NA,NA,NA,true
dmIbWByz,33cla8o0nlo9ukh858i8v1jgjowfr3,3r0t90iz1wpdp2mepx3xdbgx3obgcv,dmIbWByz,2020-0188,2020-05-07,18:02:58,18:27:38,NA,incomplete,20,number,1,left,Green_Circle_Chess_3.jpg,Blue_Star_Stripes_3.jpg,Green_Plus_Dots_1.jpg,right,464.92000000039116,false,NA,NA,NA,NA,NA,NA,NA,NA,true
dmIbWByz,33cla8o0nlo9ukh858i8v1jgjowfr3,3r0t90iz1wpdp2mepx3xdbgx3obgcv,dmIbWByz,2020-0188,2020-05-07,18:02:58,18:27:38,NA,incomplete,21,number,1,right,Red_Triangle_Stripes_1.jpg,Red_Plus_Dots_2.jpg,Blue_Star_Grid_1.jpg,left,628.1650000000373,false,NA,NA,NA,NA,NA,NA,NA,NA,true
dmIbWByz,33cla8o0nlo9ukh858i8v1jgjowfr3,3r0t90iz1wpdp2mepx3xdbgx3obgcv,dmIbWByz,2020-0188,2020-05-07,18:02:58,18:27:38,NA,incomplete,22,number,1,right,Blue_Triangle_Stripes_3.jpg,Blue_Star_Grid_1.jpg,Red_Plus_Chess_3.jpg,right,1029.6299999990733,true,NA,NA,NA,NA,NA,NA,NA,NA,true
dmIbWByz,33cla8o0nlo9ukh858i8v1jgjowfr3,3r0t90iz1wpdp2mepx3xdbgx3obgcv,dmIbWByz,2020-0188,2020-05-07,18:02:58,18:27:38,NA,incomplete,23,number,1,right,Blue_Star_Grid_2.jpg,Blue_Triangle_Dots_4.jpg,Green_Plus_Stripes_2.jpg,right,929.8249999992549,true,NA,NA,NA,NA,NA,NA,NA,NA,true
dmIbWByz,33cla8o0nlo9ukh858i8v1jgjowfr3,3r0t90iz1wpdp2mepx3xdbgx3obgcv,dmIbWByz,2020-0188,2020-05-07,18:02:58,18:27:38,NA,incomplete,24,number,1,left,Green_Plus_Chess_3.jpg,Red_Star_Grid_3.jpg,Green_Triangle_Stripes_4.jpg,left,1011.8399999991525,true,NA,NA,NA,NA,NA,NA,NA,NA,true
dmIbWByz,33cla8o0nlo9ukh858i8v1jgjowfr3,3r0t90iz1wpdp2mepx3xdbgx3obgcv,dmIbWByz,2020-0188,2020-05-07,18:02:58,18:27:38,NA,incomplete,25,number,1,left,Red_Triangle_Grid_2.jpg,Blue_Circle_Chess_2.jpg,Red_Plus_Stripes_4.jpg,left,686.1599999993341,true,NA,NA,NA,NA,NA,NA,NA,NA,true
dmIbWByz,33cla8o0nlo9ukh858i8v1jgjowfr3,3r0t90iz1wpdp2mepx3xdbgx3obgcv,dmIbWByz,2020-0188,2020-05-07,18:02:58,18:27:38,NA,incomplete,26,number,0,left,Blue_Triangle_Grid_1.jpg,Purple_Plus_Chess_1.jpg,Blue_Star_Stripes_4.jpg,left,696.8449999985751,true,NA,NA,NA,NA,NA,NA,NA,NA,true
dmIbWByz,33cla8o0nlo9ukh858i8v1jgjowfr3,3r0t90iz1wpdp2mepx3xdbgx3obgcv,dmIbWByz,2020-0188,2020-05-07,18:02:58,18:27:38,NA,incomplete,27,number,1,right,Green_Triangle_Dots_2.jpg,Green_Circle_Stripes_1.jpg,Red_Plus_Grid_2.jpg,right,748.6449999996694,true,NA,NA,NA,NA,NA,NA,NA,NA,true
dmIbWByz,33cla8o0nlo9ukh858i8v1jgjowfr3,3r0t90iz1wpdp2mepx3xdbgx3obgcv,dmIbWByz,2020-0188,2020-05-07,18:02:58,18:27:38,NA,incomplete,28,number,0,right,Purple_Triangle_Grid_3.jpg,Purple_Plus_Dots_2.jpg,Blue_Circle_Chess_3.jpg,right,730.9399999994785,true,NA,NA,NA,NA,NA,NA,NA,NA,true
dmIbWByz,33cla8o0nlo9ukh858i8v1jgjowfr3,3r0t90iz1wpdp2mepx3xdbgx3obgcv,dmIbWByz,2020-0188,2020-05-07,18:02:58,18:27:38,NA,incomplete,29,number,0,left,Blue_Plus_Dots_1.jpg,Purple_Circle_Stripes_1.jpg,Blue_Star_Grid_2.jpg,right,1091.1500000002561,false,NA,NA,NA,NA,NA,NA,NA,NA,true
dmIbWByz,33cla8o0nlo9ukh858i8v1jgjowfr3,3r0t90iz1wpdp2mepx3xdbgx3obgcv,dmIbWByz,2020-0188,2020-05-07,18:02:58,18:27:38,NA,incomplete,30,number,1,left,Blue_Star_Grid_1.jpg,Red_Triangle_Chess_1.jpg,Blue_Plus_Stripes_4.jpg,right,1107.6799999992363,false,NA,NA,NA,NA,NA,NA,NA,NA,true
dmIbWByz,33cla8o0nlo9ukh858i8v1jgjowfr3,3r0t90iz1wpdp2mepx3xdbgx3obgcv,dmIbWByz,2020-0188,2020-05-07,18:02:58,18:27:38,NA,incomplete,31,number,1,right,Red_Plus_Chess_4.jpg,Red_Star_Dots_3.jpg,Purple_Circle_Stripes_4.jpg,right,1145.7699999992037,true,NA,NA,NA,NA,NA,NA,NA,NA,true
dmIbWByz,33cla8o0nlo9ukh858i8v1jgjowfr3,3r0t90iz1wpdp2mepx3xdbgx3obgcv,dmIbWByz,2020-0188,2020-05-07,18:02:58,18:27:38,NA,incomplete,32,number,1,left,Red_Triangle_Grid_1.jpg,Purple_Star_Stripes_1.jpg,Red_Plus_Dots_4.jpg,left,734.015000000014,true,NA,NA,NA,NA,NA,NA,NA,NA,true
dmIbWByz,33cla8o0nlo9ukh858i8v1jgjowfr3,3r0t90iz1wpdp2mepx3xdbgx3obgcv,dmIbWByz,2020-0188,2020-05-07,18:02:58,18:27:38,NA,incomplete,33,number,1,right,Red_Triangle_Chess_2.jpg,Red_Star_Grid_3.jpg,Blue_Plus_Dots_2.jpg,right,770.0299999996787,true,NA,NA,NA,NA,NA,NA,NA,NA,true
dmIbWByz,33cla8o0nlo9ukh858i8v1jgjowfr3,3r0t90iz1wpdp2mepx3xdbgx3obgcv,dmIbWByz,2020-0188,2020-05-07,18:02:58,18:27:38,NA,incomplete,34,number,1,right,Blue_Plus_Chess_1.jpg,Blue_Circle_Stripes_2.jpg,Purple_Triangle_Grid_1.jpg,right,738.9299999994691,true,NA,NA,NA,NA,NA,NA,NA,NA,true
dmIbWByz,33cla8o0nlo9ukh858i8v1jgjowfr3,3r0t90iz1wpdp2mepx3xdbgx3obgcv,dmIbWByz,2020-0188,2020-05-07,18:02:58,18:27:38,NA,incomplete,35,number,0,right,Red_Plus_Chess_4.jpg,Red_Triangle_Stripes_1.jpg,Green_Circle_Grid_4.jpg,right,700.1949999993667,true,NA,NA,NA,NA,NA,NA,NA,NA,true
dmIbWByz,33cla8o0nlo9ukh858i8v1jgjowfr3,3r0t90iz1wpdp2mepx3xdbgx3obgcv,dmIbWByz,2020-0188,2020-05-07,18:02:58,18:27:38,NA,incomplete,36,number,0,left,Purple_Star_Stripes_3.jpg,Green_Triangle_Dots_3.jpg,Purple_Plus_Grid_1.jpg,left,754.5449999998091,true,NA,NA,NA,NA,NA,NA,NA,NA,true
dmIbWByz,33cla8o0nlo9ukh858i8v1jgjowfr3,3r0t90iz1wpdp2mepx3xdbgx3obgcv,dmIbWByz,2020-0188,2020-05-07,18:02:58,18:27:38,NA,incomplete,37,number,1,left,Blue_Circle_Stripes_2.jpg,Purple_Triangle_Chess_2.jpg,Blue_Star_Dots_3.jpg,left,901.640000000014,true,NA,NA,NA,NA,NA,NA,NA,NA,true
dmIbWByz,33cla8o0nlo9ukh858i8v1jgjowfr3,3r0t90iz1wpdp2mepx3xdbgx3obgcv,dmIbWByz,2020-0188,2020-05-07,18:02:58,18:27:38,NA,incomplete,38,number,0,right,Red_Circle_Stripes_2.jpg,Red_Triangle_Chess_1.jpg,Purple_Plus_Grid_2.jpg,right,674.3100000004051,true,NA,NA,NA,NA,NA,NA,NA,NA,true
dmIbWByz,33cla8o0nlo9ukh858i8v1jgjowfr3,3r0t90iz1wpdp2mepx3xdbgx3obgcv,dmIbWByz,2020-0188,2020-05-07,18:02:58,18:27:38,NA,incomplete,39,number,1,left,Red_Star_Stripes_2.jpg,Green_Plus_Grid_2.jpg,Red_Triangle_Chess_3.jpg,left,963.5249999992084,true,NA,NA,NA,NA,NA,NA,NA,NA,true
dmIbWByz,33cla8o0nlo9ukh858i8v1jgjowfr3,3r0t90iz1wpdp2mepx3xdbgx3obgcv,dmIbWByz,2020-0188,2020-05-07,18:02:58,18:27:38,NA,incomplete,0,color,0,left,Green_Plus_Dots_4.jpg,Green_Circle_Chess_1.jpg,Red_Triangle_Stripes_4.jpg,left,1267.8649999998743,true,high,NA,NA,NA,NA,NA,NA,NA,false
dmIbWByz,33cla8o0nlo9ukh858i8v1jgjowfr3,3r0t90iz1wpdp2mepx3xdbgx3obgcv,dmIbWByz,2020-0188,2020-05-07,18:02:58,18:27:38,NA,incomplete,1,color,0,left,Blue_Star_Grid_1.jpg,Blue_Circle_Chess_4.jpg,Purple_Triangle_Dots_1.jpg,right,1119.7350000002189,false,high,NA,NA,NA,NA,NA,NA,NA,false
dmIbWByz,33cla8o0nlo9ukh858i8v1jgjowfr3,3r0t90iz1wpdp2mepx3xdbgx3obgcv,dmIbWByz,2020-0188,2020-05-07,18:02:58,18:27:38,NA,incomplete,2,color,1,left,Green_Plus_Dots_1.jpg,Green_Triangle_Chess_3.jpg,Red_Star_Grid_1.jpg,right,918.3300000004238,false,high,NA,NA,NA,NA,NA,NA,NA,false
dmIbWByz,33cla8o0nlo9ukh858i8v1jgjowfr3,3r0t90iz1wpdp2mepx3xdbgx3obgcv,dmIbWByz,2020-0188,2020-05-07,18:02:58,18:27:38,NA,incomplete,3,color,1,left,Green_Plus_Dots_2.jpg,Green_Triangle_Grid_4.jpg,Purple_Star_Stripes_2.jpg,right,1362.8399999997346,false,high,NA,NA,NA,NA,NA,NA,NA,false
dmIbWByz,33cla8o0nlo9ukh858i8v1jgjowfr3,3r0t90iz1wpdp2mepx3xdbgx3obgcv,dmIbWByz,2020-0188,2020-05-07,18:02:58,18:27:38,NA,incomplete,4,color,1,left,Red_Circle_Dots_1.jpg,Red_Star_Stripes_4.jpg,Purple_Triangle_Chess_1.jpg,left,808.4699999999721,true,high,NA,NA,NA,NA,NA,NA,NA,false
dmIbWByz,33cla8o0nlo9ukh858i8v1jgjowfr3,3r0t90iz1wpdp2mepx3xdbgx3obgcv,dmIbWByz,2020-0188,2020-05-07,18:02:58,18:27:38,NA,incomplete,5,color,1,right,Purple_Plus_Grid_1.jpg,Green_Circle_Stripes_1.jpg,Purple_Star_Dots_3.jpg,right,1027.755000000936,true,high,NA,NA,NA,NA,NA,NA,NA,false
dmIbWByz,33cla8o0nlo9ukh858i8v1jgjowfr3,3r0t90iz1wpdp2mepx3xdbgx3obgcv,dmIbWByz,2020-0188,2020-05-07,18:02:58,18:27:38,NA,incomplete,6,color,1,left,Blue_Circle_Dots_2.jpg,Blue_Plus_Grid_1.jpg,Red_Star_Stripes_2.jpg,left,583.7200000005541,true,high,NA,NA,NA,NA,NA,NA,NA,false
dmIbWByz,33cla8o0nlo9ukh858i8v1jgjowfr3,3r0t90iz1wpdp2mepx3xdbgx3obgcv,dmIbWByz,2020-0188,2020-05-07,18:02:58,18:27:38,NA,incomplete,7,color,1,left,Purple_Star_Dots_1.jpg,Purple_Triangle_Chess_3.jpg,Red_Plus_Grid_1.jpg,left,594.3449999995064,true,high,NA,NA,NA,NA,NA,NA,NA,false
dmIbWByz,33cla8o0nlo9ukh858i8v1jgjowfr3,3r0t90iz1wpdp2mepx3xdbgx3obgcv,dmIbWByz,2020-0188,2020-05-07,18:02:58,18:27:38,NA,incomplete,8,color,1,left,Purple_Plus_Grid_2.jpg,Purple_Triangle_Chess_3.jpg,Green_Circle_Stripes_2.jpg,left,470.2699999999022,true,high,NA,NA,NA,NA,NA,NA,NA,false
dmIbWByz,33cla8o0nlo9ukh858i8v1jgjowfr3,3r0t90iz1wpdp2mepx3xdbgx3obgcv,dmIbWByz,2020-0188,2020-05-07,18:02:58,18:27:38,NA,incomplete,9,color,1,right,Green_Plus_Grid_4.jpg,Purple_Triangle_Dots_4.jpg,Green_Star_Chess_3.jpg,right,696.7750000003725,true,high,NA,NA,NA,NA,NA,NA,NA,false
dmIbWByz,33cla8o0nlo9ukh858i8v1jgjowfr3,3r0t90iz1wpdp2mepx3xdbgx3obgcv,dmIbWByz,2020-0188,2020-05-07,18:02:58,18:27:38,NA,incomplete,10,number,1,right,Red_Star_Stripes_3.jpg,Red_Circle_Dots_1.jpg,Blue_Triangle_Grid_3.jpg,left,606.8400000003166,false,high,NA,NA,NA,NA,NA,NA,NA,false
dmIbWByz,33cla8o0nlo9ukh858i8v1jgjowfr3,3r0t90iz1wpdp2mepx3xdbgx3obgcv,dmIbWByz,2020-0188,2020-05-07,18:02:58,18:27:38,NA,incomplete,11,number,1,right,Green_Circle_Stripes_2.jpg,Green_Plus_Dots_1.jpg,Purple_Triangle_Grid_2.jpg,right,1023.3299999999581,true,high,NA,NA,NA,NA,NA,NA,NA,false
dmIbWByz,33cla8o0nlo9ukh858i8v1jgjowfr3,3r0t90iz1wpdp2mepx3xdbgx3obgcv,dmIbWByz,2020-0188,2020-05-07,18:02:58,18:27:38,NA,incomplete,12,number,1,right,Blue_Star_Grid_1.jpg,Blue_Plus_Stripes_4.jpg,Red_Triangle_Dots_1.jpg,right,942.1050000000978,true,high,NA,NA,NA,NA,NA,NA,NA,false
dmIbWByz,33cla8o0nlo9ukh858i8v1jgjowfr3,3r0t90iz1wpdp2mepx3xdbgx3obgcv,dmIbWByz,2020-0188,2020-05-07,18:02:58,18:27:38,NA,incomplete,13,number,1,left,Purple_Plus_Grid_2.jpg,Blue_Triangle_Chess_2.jpg,Purple_Circle_Stripes_3.jpg,left,806.3999999995576,true,high,NA,NA,NA,NA,NA,NA,NA,false
dmIbWByz,33cla8o0nlo9ukh858i8v1jgjowfr3,3r0t90iz1wpdp2mepx3xdbgx3obgcv,dmIbWByz,2020-0188,2020-05-07,18:02:58,18:27:38,NA,incomplete,14,number,1,left,Red_Triangle_Dots_3.jpg,Green_Plus_Stripes_3.jpg,Red_Star_Grid_1.jpg,left,800.479999999865,true,high,NA,NA,NA,NA,NA,NA,NA,false
dmIbWByz,33cla8o0nlo9ukh858i8v1jgjowfr3,3r0t90iz1wpdp2mepx3xdbgx3obgcv,dmIbWByz,2020-0188,2020-05-07,18:02:58,18:27:38,NA,incomplete,15,number,1,left,Red_Triangle_Dots_1.jpg,Purple_Plus_Grid_1.jpg,Red_Star_Stripes_4.jpg,left,618.390000001411,true,high,NA,NA,NA,NA,NA,NA,NA,false
dmIbWByz,33cla8o0nlo9ukh858i8v1jgjowfr3,3r0t90iz1wpdp2mepx3xdbgx3obgcv,dmIbWByz,2020-0188,2020-05-07,18:02:58,18:27:38,NA,incomplete,16,number,0,left,Green_Star_Stripes_1.jpg,Purple_Triangle_Chess_1.jpg,Green_Plus_Dots_2.jpg,left,575.1299999991897,true,high,NA,NA,NA,NA,NA,NA,NA,false
dmIbWByz,33cla8o0nlo9ukh858i8v1jgjowfr3,3r0t90iz1wpdp2mepx3xdbgx3obgcv,dmIbWByz,2020-0188,2020-05-07,18:02:58,18:27:38,NA,incomplete,17,number,1,right,Red_Plus_Dots_3.jpg,Red_Star_Grid_1.jpg,Blue_Triangle_Chess_3.jpg,left,965.229999999865,false,high,NA,NA,NA,NA,NA,NA,NA,false
dmIbWByz,33cla8o0nlo9ukh858i8v1jgjowfr3,3r0t90iz1wpdp2mepx3xdbgx3obgcv,dmIbWByz,2020-0188,2020-05-07,18:02:58,18:27:38,NA,incomplete,18,number,1,left,Purple_Circle_Grid_4.jpg,Green_Plus_Dots_4.jpg,Purple_Triangle_Stripes_2.jpg,left,1035.9149999985239,true,high,NA,NA,NA,NA,NA,NA,NA,false
dmIbWByz,33cla8o0nlo9ukh858i8v1jgjowfr3,3r0t90iz1wpdp2mepx3xdbgx3obgcv,dmIbWByz,2020-0188,2020-05-07,18:02:58,18:27:38,NA,incomplete,19,number,1,right,Purple_Triangle_Grid_1.jpg,Purple_Star_Chess_4.jpg,Red_Plus_Dots_1.jpg,right,877.8800000000047,true,high,NA,NA,NA,NA,NA,NA,NA,false
dmIbWByz,33cla8o0nlo9ukh858i8v1jgjowfr3,3r0t90iz1wpdp2mepx3xdbgx3obgcv,dmIbWByz,2020-0188,2020-05-07,18:02:58,18:27:38,NA,incomplete,20,color,1,right,Blue_Circle_Dots_1.jpg,Purple_Triangle_Chess_1.jpg,Blue_Plus_Stripes_2.jpg,left,585.600000000326,false,high,NA,NA,NA,NA,NA,NA,NA,false
dmIbWByz,33cla8o0nlo9ukh858i8v1jgjowfr3,3r0t90iz1wpdp2mepx3xdbgx3obgcv,dmIbWByz,2020-0188,2020-05-07,18:02:58,18:27:38,NA,incomplete,21,color,1,left,Blue_Circle_Chess_4.jpg,Blue_Plus_Stripes_3.jpg,Green_Triangle_Dots_4.jpg,right,918.9249999999302,false,high,NA,NA,NA,NA,NA,NA,NA,false
dmIbWByz,33cla8o0nlo9ukh858i8v1jgjowfr3,3r0t90iz1wpdp2mepx3xdbgx3obgcv,dmIbWByz,2020-0188,2020-05-07,18:02:58,18:27:38,NA,incomplete,22,color,0,left,Green_Triangle_Grid_2.jpg,Green_Circle_Stripes_3.jpg,Purple_Star_Chess_2.jpg,left,635.0399999992223,true,high,NA,NA,NA,NA,NA,NA,NA,false
dmIbWByz,33cla8o0nlo9ukh858i8v1jgjowfr3,3r0t90iz1wpdp2mepx3xdbgx3obgcv,dmIbWByz,2020-0188,2020-05-07,18:02:58,18:27:38,NA,incomplete,23,color,1,left,Blue_Plus_Chess_3.jpg,Blue_Star_Stripes_2.jpg,Green_Triangle_Grid_3.jpg,left,1082.5650000006426,true,high,NA,NA,NA,NA,NA,NA,NA,false
dmIbWByz,33cla8o0nlo9ukh858i8v1jgjowfr3,3r0t90iz1wpdp2mepx3xdbgx3obgcv,dmIbWByz,2020-0188,2020-05-07,18:02:58,18:27:38,NA,incomplete,24,color,1,right,Blue_Star_Dots_4.jpg,Purple_Triangle_Grid_4.jpg,Blue_Circle_Stripes_3.jpg,right,727.3350000013597,true,high,NA,NA,NA,NA,NA,NA,NA,false
dmIbWByz,33cla8o0nlo9ukh858i8v1jgjowfr3,3r0t90iz1wpdp2mepx3xdbgx3obgcv,dmIbWByz,2020-0188,2020-05-07,18:02:58,18:27:38,NA,incomplete,25,color,0,right,Purple_Triangle_Grid_1.jpg,Blue_Circle_Stripes_1.jpg,Purple_Star_Dots_3.jpg,left,1129.3850000001257,false,high,NA,NA,NA,NA,NA,NA,NA,false
dmIbWByz,33cla8o0nlo9ukh858i8v1jgjowfr3,3r0t90iz1wpdp2mepx3xdbgx3obgcv,dmIbWByz,2020-0188,2020-05-07,18:02:58,18:27:38,NA,incomplete,26,color,1,left,Green_Star_Stripes_2.jpg,Green_Circle_Chess_1.jpg,Blue_Triangle_Grid_2.jpg,left,885.4499999997206,true,high,NA,NA,NA,NA,NA,NA,NA,false
dmIbWByz,33cla8o0nlo9ukh858i8v1jgjowfr3,3r0t90iz1wpdp2mepx3xdbgx3obgcv,dmIbWByz,2020-0188,2020-05-07,18:02:58,18:27:38,NA,incomplete,27,color,1,left,Green_Plus_Stripes_4.jpg,Green_Star_Chess_2.jpg,Blue_Triangle_Dots_4.jpg,left,859.1450000003679,true,high,NA,NA,NA,NA,NA,NA,NA,false
dmIbWByz,33cla8o0nlo9ukh858i8v1jgjowfr3,3r0t90iz1wpdp2mepx3xdbgx3obgcv,dmIbWByz,2020-0188,2020-05-07,18:02:58,18:27:38,NA,incomplete,28,color,1,left,Green_Triangle_Stripes_2.jpg,Green_Circle_Chess_3.jpg,Purple_Star_Grid_2.jpg,left,624.2750000001397,true,high,NA,NA,NA,NA,NA,NA,NA,false
dmIbWByz,33cla8o0nlo9ukh858i8v1jgjowfr3,3r0t90iz1wpdp2mepx3xdbgx3obgcv,dmIbWByz,2020-0188,2020-05-07,18:02:58,18:27:38,NA,incomplete,29,color,1,right,Blue_Triangle_Stripes_1.jpg,Green_Plus_Grid_1.jpg,Blue_Circle_Dots_3.jpg,right,560.1850000001723,true,high,NA,NA,NA,NA,NA,NA,NA,false
dmIbWByz,33cla8o0nlo9ukh858i8v1jgjowfr3,3r0t90iz1wpdp2mepx3xdbgx3obgcv,dmIbWByz,2020-0188,2020-05-07,18:02:58,18:27:38,NA,incomplete,30,number,1,left,Blue_Plus_Dots_4.jpg,Green_Circle_Stripes_4.jpg,Blue_Triangle_Grid_2.jpg,right,683.9249999993481,false,high,NA,NA,NA,NA,NA,NA,NA,false
dmIbWByz,33cla8o0nlo9ukh858i8v1jgjowfr3,3r0t90iz1wpdp2mepx3xdbgx3obgcv,dmIbWByz,2020-0188,2020-05-07,18:02:58,18:27:38,NA,incomplete,31,number,1,left,Green_Circle_Chess_3.jpg,Blue_Triangle_Stripes_3.jpg,Green_Plus_Dots_1.jpg,right,900.6099999987055,false,high,NA,NA,NA,NA,NA,NA,NA,false
dmIbWByz,33cla8o0nlo9ukh858i8v1jgjowfr3,3r0t90iz1wpdp2mepx3xdbgx3obgcv,dmIbWByz,2020-0188,2020-05-07,18:02:58,18:27:38,NA,incomplete,32,number,1,left,Purple_Star_Grid_1.jpg,Blue_Triangle_Chess_1.jpg,Purple_Circle_Dots_4.jpg,left,736.4899999994086,true,high,NA,NA,NA,NA,NA,NA,NA,false
dmIbWByz,33cla8o0nlo9ukh858i8v1jgjowfr3,3r0t90iz1wpdp2mepx3xdbgx3obgcv,dmIbWByz,2020-0188,2020-05-07,18:02:58,18:27:38,NA,incomplete,33,number,1,right,Green_Triangle_Chess_4.jpg,Green_Star_Stripes_3.jpg,Blue_Plus_Dots_4.jpg,right,797.6550000002608,true,high,NA,NA,NA,NA,NA,NA,NA,false
dmIbWByz,33cla8o0nlo9ukh858i8v1jgjowfr3,3r0t90iz1wpdp2mepx3xdbgx3obgcv,dmIbWByz,2020-0188,2020-05-07,18:02:58,18:27:38,NA,incomplete,34,number,1,left,Red_Triangle_Dots_3.jpg,Green_Plus_Chess_3.jpg,Red_Star_Grid_4.jpg,left,749.4050000004936,true,high,NA,NA,NA,NA,NA,NA,NA,false
dmIbWByz,33cla8o0nlo9ukh858i8v1jgjowfr3,3r0t90iz1wpdp2mepx3xdbgx3obgcv,dmIbWByz,2020-0188,2020-05-07,18:02:58,18:27:38,NA,incomplete,35,number,1,left,Green_Triangle_Stripes_2.jpg,Red_Star_Grid_2.jpg,Green_Plus_Dots_4.jpg,left,830.149999999674,true,high,NA,NA,NA,NA,NA,NA,NA,false
dmIbWByz,33cla8o0nlo9ukh858i8v1jgjowfr3,3r0t90iz1wpdp2mepx3xdbgx3obgcv,dmIbWByz,2020-0188,2020-05-07,18:02:58,18:27:38,NA,incomplete,36,number,1,left,Green_Circle_Chess_2.jpg,Red_Plus_Grid_2.jpg,Green_Star_Stripes_4.jpg,left,587.4249999996973,true,high,NA,NA,NA,NA,NA,NA,NA,false
dmIbWByz,33cla8o0nlo9ukh858i8v1jgjowfr3,3r0t90iz1wpdp2mepx3xdbgx3obgcv,dmIbWByz,2020-0188,2020-05-07,18:02:58,18:27:38,NA,incomplete,37,number,1,left,Red_Star_Stripes_4.jpg,Green_Triangle_Chess_4.jpg,Red_Plus_Dots_3.jpg,left,618.2549999994226,true,high,NA,NA,NA,NA,NA,NA,NA,false
dmIbWByz,33cla8o0nlo9ukh858i8v1jgjowfr3,3r0t90iz1wpdp2mepx3xdbgx3obgcv,dmIbWByz,2020-0188,2020-05-07,18:02:58,18:27:38,NA,incomplete,38,number,0,left,Red_Plus_Stripes_1.jpg,Blue_Triangle_Grid_1.jpg,Red_Star_Chess_3.jpg,left,575.6449999989709,true,high,NA,NA,NA,NA,NA,NA,NA,false
dmIbWByz,33cla8o0nlo9ukh858i8v1jgjowfr3,3r0t90iz1wpdp2mepx3xdbgx3obgcv,dmIbWByz,2020-0188,2020-05-07,18:02:58,18:27:38,NA,incomplete,39,number,0,right,Purple_Plus_Grid_3.jpg,Purple_Circle_Stripes_2.jpg,Green_Triangle_Dots_3.jpg,right,825.4300000007497,true,high,NA,NA,NA,NA,NA,NA,NA,false
dmIbWByz,33cla8o0nlo9ukh858i8v1jgjowfr3,3r0t90iz1wpdp2mepx3xdbgx3obgcv,dmIbWByz,2020-0188,2020-05-07,18:02:58,18:27:38,NA,incomplete,40,color,1,right,Green_Triangle_Dots_1.jpg,Red_Star_Grid_1.jpg,Green_Plus_Stripes_3.jpg,right,1088.3400000003166,true,high,NA,NA,NA,NA,NA,NA,NA,false
dmIbWByz,33cla8o0nlo9ukh858i8v1jgjowfr3,3r0t90iz1wpdp2mepx3xdbgx3obgcv,dmIbWByz,2020-0188,2020-05-07,18:02:58,18:27:38,NA,incomplete,41,color,1,left,Purple_Plus_Stripes_1.jpg,Purple_Star_Dots_4.jpg,Green_Circle_Chess_1.jpg,left,598.5749999999534,true,high,NA,NA,NA,NA,NA,NA,NA,false
dmIbWByz,33cla8o0nlo9ukh858i8v1jgjowfr3,3r0t90iz1wpdp2mepx3xdbgx3obgcv,dmIbWByz,2020-0188,2020-05-07,18:02:58,18:27:38,NA,incomplete,42,color,1,left,Red_Triangle_Dots_2.jpg,Red_Plus_Chess_1.jpg,Purple_Star_Grid_2.jpg,right,691.3600000006845,false,high,NA,NA,NA,NA,NA,NA,NA,false
dmIbWByz,33cla8o0nlo9ukh858i8v1jgjowfr3,3r0t90iz1wpdp2mepx3xdbgx3obgcv,dmIbWByz,2020-0188,2020-05-07,18:02:58,18:27:38,NA,incomplete,43,color,1,right,Green_Star_Chess_1.jpg,Purple_Triangle_Grid_1.jpg,Green_Plus_Dots_3.jpg,right,623.2399999990594,true,high,NA,NA,NA,NA,NA,NA,NA,false
dmIbWByz,33cla8o0nlo9ukh858i8v1jgjowfr3,3r0t90iz1wpdp2mepx3xdbgx3obgcv,dmIbWByz,2020-0188,2020-05-07,18:02:58,18:27:38,NA,incomplete,44,color,1,left,Purple_Star_Stripes_2.jpg,Purple_Circle_Grid_3.jpg,Green_Triangle_Chess_2.jpg,left,663.0999999997439,true,high,NA,NA,NA,NA,NA,NA,NA,false
dmIbWByz,33cla8o0nlo9ukh858i8v1jgjowfr3,3r0t90iz1wpdp2mepx3xdbgx3obgcv,dmIbWByz,2020-0188,2020-05-07,18:02:58,18:27:38,NA,incomplete,45,color,1,right,Green_Triangle_Grid_2.jpg,Blue_Circle_Chess_2.jpg,Green_Star_Dots_4.jpg,right,587.125,true,high,NA,NA,NA,NA,NA,NA,NA,false
dmIbWByz,33cla8o0nlo9ukh858i8v1jgjowfr3,3r0t90iz1wpdp2mepx3xdbgx3obgcv,dmIbWByz,2020-0188,2020-05-07,18:02:58,18:27:38,NA,incomplete,46,color,0,left,Red_Star_Dots_1.jpg,Red_Plus_Grid_2.jpg,Green_Circle_Stripes_1.jpg,left,475.66499999992084,true,high,NA,NA,NA,NA,NA,NA,NA,false
dmIbWByz,33cla8o0nlo9ukh858i8v1jgjowfr3,3r0t90iz1wpdp2mepx3xdbgx3obgcv,dmIbWByz,2020-0188,2020-05-07,18:02:58,18:27:38,NA,incomplete,47,color,1,left,Purple_Triangle_Dots_2.jpg,Purple_Circle_Chess_4.jpg,Red_Plus_Grid_2.jpg,right,845.6900000000605,false,high,NA,NA,NA,NA,NA,NA,NA,false
dmIbWByz,33cla8o0nlo9ukh858i8v1jgjowfr3,3r0t90iz1wpdp2mepx3xdbgx3obgcv,dmIbWByz,2020-0188,2020-05-07,18:02:58,18:27:38,NA,incomplete,48,color,0,right,Green_Triangle_Chess_4.jpg,Red_Circle_Dots_4.jpg,Green_Plus_Stripes_3.jpg,right,747.0200000007171,true,high,NA,NA,NA,NA,NA,NA,NA,false
dmIbWByz,33cla8o0nlo9ukh858i8v1jgjowfr3,3r0t90iz1wpdp2mepx3xdbgx3obgcv,dmIbWByz,2020-0188,2020-05-07,18:02:58,18:27:38,NA,incomplete,49,color,0,left,Green_Plus_Chess_4.jpg,Green_Star_Grid_1.jpg,Blue_Circle_Stripes_4.jpg,right,908.4450000008801,false,high,NA,NA,NA,NA,NA,NA,NA,false
dmIbWByz,33cla8o0nlo9ukh858i8v1jgjowfr3,3r0t90iz1wpdp2mepx3xdbgx3obgcv,dmIbWByz,2020-0188,2020-05-07,18:02:58,18:27:38,NA,incomplete,50,number,1,right,Blue_Circle_Dots_1.jpg,Blue_Star_Grid_3.jpg,Purple_Triangle_Stripes_1.jpg,right,662.1950000007637,true,high,NA,NA,NA,NA,NA,NA,NA,false
dmIbWByz,33cla8o0nlo9ukh858i8v1jgjowfr3,3r0t90iz1wpdp2mepx3xdbgx3obgcv,dmIbWByz,2020-0188,2020-05-07,18:02:58,18:27:38,NA,incomplete,51,number,1,left,Green_Plus_Chess_2.jpg,Red_Triangle_Grid_2.jpg,Green_Circle_Dots_1.jpg,left,788.9049999994459,true,high,NA,NA,NA,NA,NA,NA,NA,false
dmIbWByz,33cla8o0nlo9ukh858i8v1jgjowfr3,3r0t90iz1wpdp2mepx3xdbgx3obgcv,dmIbWByz,2020-0188,2020-05-07,18:02:58,18:27:38,NA,incomplete,52,number,1,right,Purple_Triangle_Stripes_1.jpg,Purple_Plus_Chess_4.jpg,Green_Star_Dots_1.jpg,right,683.5799999989104,true,high,NA,NA,NA,NA,NA,NA,NA,false
dmIbWByz,33cla8o0nlo9ukh858i8v1jgjowfr3,3r0t90iz1wpdp2mepx3xdbgx3obgcv,dmIbWByz,2020-0188,2020-05-07,18:02:58,18:27:38,NA,incomplete,53,number,1,right,Red_Triangle_Grid_4.jpg,Red_Star_Stripes_1.jpg,Green_Plus_Chess_4.jpg,right,615.7100000000792,true,high,NA,NA,NA,NA,NA,NA,NA,false
dmIbWByz,33cla8o0nlo9ukh858i8v1jgjowfr3,3r0t90iz1wpdp2mepx3xdbgx3obgcv,dmIbWByz,2020-0188,2020-05-07,18:02:58,18:27:38,NA,incomplete,54,number,1,right,Blue_Star_Dots_4.jpg,Blue_Plus_Grid_1.jpg,Green_Circle_Chess_4.jpg,right,591.3000000000466,true,high,NA,NA,NA,NA,NA,NA,NA,false
dmIbWByz,33cla8o0nlo9ukh858i8v1jgjowfr3,3r0t90iz1wpdp2mepx3xdbgx3obgcv,dmIbWByz,2020-0188,2020-05-07,18:02:58,18:27:38,NA,incomplete,55,number,1,left,Blue_Triangle_Grid_4.jpg,Green_Plus_Chess_4.jpg,Blue_Star_Dots_2.jpg,left,659.9900000001071,true,high,NA,NA,NA,NA,NA,NA,NA,false
dmIbWByz,33cla8o0nlo9ukh858i8v1jgjowfr3,3r0t90iz1wpdp2mepx3xdbgx3obgcv,dmIbWByz,2020-0188,2020-05-07,18:02:58,18:27:38,NA,incomplete,56,number,0,right,Blue_Star_Grid_4.jpg,Blue_Plus_Dots_1.jpg,Red_Triangle_Chess_4.jpg,right,543.3450000000885,true,high,NA,NA,NA,NA,NA,NA,NA,false
dmIbWByz,33cla8o0nlo9ukh858i8v1jgjowfr3,3r0t90iz1wpdp2mepx3xdbgx3obgcv,dmIbWByz,2020-0188,2020-05-07,18:02:58,18:27:38,NA,incomplete,57,number,1,right,Green_Circle_Grid_1.jpg,Green_Plus_Stripes_4.jpg,Red_Star_Chess_1.jpg,left,785.4499999993714,false,high,NA,NA,NA,NA,NA,NA,NA,false
dmIbWByz,33cla8o0nlo9ukh858i8v1jgjowfr3,3r0t90iz1wpdp2mepx3xdbgx3obgcv,dmIbWByz,2020-0188,2020-05-07,18:02:58,18:27:38,NA,incomplete,58,number,0,right,Blue_Star_Stripes_3.jpg,Blue_Circle_Dots_2.jpg,Green_Triangle_Chess_3.jpg,right,642.0500000003958,true,high,NA,NA,NA,NA,NA,NA,NA,false
dmIbWByz,33cla8o0nlo9ukh858i8v1jgjowfr3,3r0t90iz1wpdp2mepx3xdbgx3obgcv,dmIbWByz,2020-0188,2020-05-07,18:02:58,18:27:38,NA,incomplete,59,number,1,left,Red_Plus_Chess_2.jpg,Purple_Triangle_Grid_2.jpg,Red_Star_Stripes_1.jpg,left,1248.2450000006938,true,high,NA,NA,NA,NA,NA,NA,NA,false
dmIbWByz,33cla8o0nlo9ukh858i8v1jgjowfr3,3r0t90iz1wpdp2mepx3xdbgx3obgcv,dmIbWByz,2020-0188,2020-05-07,18:02:58,18:27:38,NA,incomplete,60,color,1,right,Purple_Circle_Chess_3.jpg,Red_Star_Grid_3.jpg,Purple_Plus_Stripes_4.jpg,left,1051.6550000010757,false,high,NA,NA,NA,NA,NA,NA,NA,false
dmIbWByz,33cla8o0nlo9ukh858i8v1jgjowfr3,3r0t90iz1wpdp2mepx3xdbgx3obgcv,dmIbWByz,2020-0188,2020-05-07,18:02:58,18:27:38,NA,incomplete,61,color,1,left,Purple_Triangle_Stripes_3.jpg,Purple_Plus_Dots_4.jpg,Red_Circle_Grid_3.jpg,right,877.2399999997579,false,high,NA,NA,NA,NA,NA,NA,NA,false
dmIbWByz,33cla8o0nlo9ukh858i8v1jgjowfr3,3r0t90iz1wpdp2mepx3xdbgx3obgcv,dmIbWByz,2020-0188,2020-05-07,18:02:58,18:27:38,NA,incomplete,62,color,0,left,Purple_Plus_Dots_1.jpg,Purple_Circle_Chess_3.jpg,Blue_Triangle_Grid_1.jpg,right,1273.5349999985192,false,high,NA,NA,NA,NA,NA,NA,NA,false
dmIbWByz,33cla8o0nlo9ukh858i8v1jgjowfr3,3r0t90iz1wpdp2mepx3xdbgx3obgcv,dmIbWByz,2020-0188,2020-05-07,18:02:58,18:27:38,NA,incomplete,63,color,0,left,Blue_Triangle_Chess_4.jpg,Blue_Star_Stripes_3.jpg,Purple_Plus_Dots_4.jpg,right,862.2549999998882,false,high,NA,NA,NA,NA,NA,NA,NA,false
dmIbWByz,33cla8o0nlo9ukh858i8v1jgjowfr3,3r0t90iz1wpdp2mepx3xdbgx3obgcv,dmIbWByz,2020-0188,2020-05-07,18:02:58,18:27:38,NA,incomplete,64,color,1,left,Green_Circle_Grid_3.jpg,Green_Star_Stripes_2.jpg,Red_Triangle_Dots_3.jpg,left,1034.1100000004517,true,high,NA,NA,NA,NA,NA,NA,NA,false
dmIbWByz,33cla8o0nlo9ukh858i8v1jgjowfr3,3r0t90iz1wpdp2mepx3xdbgx3obgcv,dmIbWByz,2020-0188,2020-05-07,18:02:58,18:27:38,NA,incomplete,65,color,1,right,Green_Circle_Chess_1.jpg,Blue_Star_Dots_1.jpg,Green_Plus_Stripes_3.jpg,right,794.5149999995483,true,high,NA,NA,NA,NA,NA,NA,NA,false
dmIbWByz,33cla8o0nlo9ukh858i8v1jgjowfr3,3r0t90iz1wpdp2mepx3xdbgx3obgcv,dmIbWByz,2020-0188,2020-05-07,18:02:58,18:27:38,NA,incomplete,66,color,1,right,Green_Circle_Dots_4.jpg,Red_Star_Grid_4.jpg,Green_Plus_Chess_2.jpg,right,1133.7800000001444,true,high,NA,NA,NA,NA,NA,NA,NA,false
dmIbWByz,33cla8o0nlo9ukh858i8v1jgjowfr3,3r0t90iz1wpdp2mepx3xdbgx3obgcv,dmIbWByz,2020-0188,2020-05-07,18:02:58,18:27:38,NA,incomplete,67,color,1,left,Purple_Triangle_Chess_4.jpg,Purple_Plus_Stripes_2.jpg,Red_Circle_Dots_4.jpg,right,1256.0999999986961,false,high,NA,NA,NA,NA,NA,NA,NA,false
dmIbWByz,33cla8o0nlo9ukh858i8v1jgjowfr3,3r0t90iz1wpdp2mepx3xdbgx3obgcv,dmIbWByz,2020-0188,2020-05-07,18:02:58,18:27:38,NA,incomplete,68,color,1,left,Red_Plus_Chess_3.jpg,Red_Circle_Stripes_4.jpg,Purple_Triangle_Grid_3.jpg,right,1100.5550000008661,false,high,NA,NA,NA,NA,NA,NA,NA,false
dmIbWByz,33cla8o0nlo9ukh858i8v1jgjowfr3,3r0t90iz1wpdp2mepx3xdbgx3obgcv,dmIbWByz,2020-0188,2020-05-07,18:02:58,18:27:38,NA,incomplete,69,color,1,right,Green_Star_Dots_2.jpg,Red_Circle_Stripes_2.jpg,Green_Plus_Chess_3.jpg,right,976.6350000009406,true,high,NA,NA,NA,NA,NA,NA,NA,false
dmIbWByz,33cla8o0nlo9ukh858i8v1jgjowfr3,3r0t90iz1wpdp2mepx3xdbgx3obgcv,dmIbWByz,2020-0188,2020-05-07,18:02:58,18:27:38,NA,incomplete,70,number,1,right,Blue_Plus_Stripes_4.jpg,Blue_Triangle_Grid_3.jpg,Red_Star_Chess_4.jpg,left,825.8999999997905,false,high,NA,NA,NA,NA,NA,NA,NA,false
dmIbWByz,33cla8o0nlo9ukh858i8v1jgjowfr3,3r0t90iz1wpdp2mepx3xdbgx3obgcv,dmIbWByz,2020-0188,2020-05-07,18:02:58,18:27:38,NA,incomplete,71,number,1,right,Purple_Plus_Grid_1.jpg,Purple_Circle_Chess_2.jpg,Green_Star_Dots_1.jpg,left,1188.3499999984633,false,high,NA,NA,NA,NA,NA,NA,NA,false
dmIbWByz,33cla8o0nlo9ukh858i8v1jgjowfr3,3r0t90iz1wpdp2mepx3xdbgx3obgcv,dmIbWByz,2020-0188,2020-05-07,18:02:58,18:27:38,NA,incomplete,72,number,1,left,Red_Star_Grid_1.jpg,Blue_Plus_Stripes_1.jpg,Red_Circle_Dots_3.jpg,right,1125.5799999998417,false,high,NA,NA,NA,NA,NA,NA,NA,false
dmIbWByz,33cla8o0nlo9ukh858i8v1jgjowfr3,3r0t90iz1wpdp2mepx3xdbgx3obgcv,dmIbWByz,2020-0188,2020-05-07,18:02:58,18:27:38,NA,incomplete,73,number,1,right,Red_Circle_Stripes_2.jpg,Red_Star_Chess_3.jpg,Green_Triangle_Grid_2.jpg,left,1085.3350000015926,false,high,NA,NA,NA,NA,NA,NA,NA,false
dmIbWByz,33cla8o0nlo9ukh858i8v1jgjowfr3,3r0t90iz1wpdp2mepx3xdbgx3obgcv,dmIbWByz,2020-0188,2020-05-07,18:02:58,18:27:38,NA,incomplete,74,number,0,left,Green_Circle_Stripes_1.jpg,Red_Star_Dots_1.jpg,Green_Triangle_Grid_3.jpg,right,738.8099999988917,false,high,NA,NA,NA,NA,NA,NA,NA,false
dmIbWByz,33cla8o0nlo9ukh858i8v1jgjowfr3,3r0t90iz1wpdp2mepx3xdbgx3obgcv,dmIbWByz,2020-0188,2020-05-07,18:02:58,18:27:38,NA,incomplete,75,number,1,right,Red_Plus_Dots_2.jpg,Red_Triangle_Grid_3.jpg,Purple_Circle_Chess_2.jpg,right,1383.469999998808,true,high,NA,NA,NA,NA,NA,NA,NA,false
dmIbWByz,33cla8o0nlo9ukh858i8v1jgjowfr3,3r0t90iz1wpdp2mepx3xdbgx3obgcv,dmIbWByz,2020-0188,2020-05-07,18:02:58,18:27:38,NA,incomplete,76,number,1,right,Green_Circle_Chess_3.jpg,Green_Triangle_Dots_1.jpg,Blue_Star_Stripes_3.jpg,left,1241.830000000773,false,high,NA,NA,NA,NA,NA,NA,NA,false
dmIbWByz,33cla8o0nlo9ukh858i8v1jgjowfr3,3r0t90iz1wpdp2mepx3xdbgx3obgcv,dmIbWByz,2020-0188,2020-05-07,18:02:58,18:27:38,NA,incomplete,77,number,0,right,Red_Circle_Chess_1.jpg,Red_Star_Grid_4.jpg,Blue_Triangle_Stripes_1.jpg,left,844.204999999376,false,high,NA,NA,NA,NA,NA,NA,NA,false
dmIbWByz,33cla8o0nlo9ukh858i8v1jgjowfr3,3r0t90iz1wpdp2mepx3xdbgx3obgcv,dmIbWByz,2020-0188,2020-05-07,18:02:58,18:27:38,NA,incomplete,78,number,1,left,Red_Triangle_Dots_3.jpg,Purple_Plus_Chess_3.jpg,Red_Circle_Grid_4.jpg,left,1052.410000000149,true,high,NA,NA,NA,NA,NA,NA,NA,false
dmIbWByz,33cla8o0nlo9ukh858i8v1jgjowfr3,3r0t90iz1wpdp2mepx3xdbgx3obgcv,dmIbWByz,2020-0188,2020-05-07,18:02:58,18:27:38,NA,incomplete,79,number,1,right,Green_Triangle_Grid_1.jpg,Green_Plus_Dots_2.jpg,Blue_Star_Chess_1.jpg,left,518.7299999997485,false,high,NA,NA,NA,NA,NA,NA,NA,false
dmIbWByz,33cla8o0nlo9ukh858i8v1jgjowfr3,3r0t90iz1wpdp2mepx3xdbgx3obgcv,dmIbWByz,2020-0188,2020-05-07,18:02:58,18:27:38,NA,incomplete,80,color,1,left,Red_Circle_Grid_3.jpg,Red_Star_Stripes_1.jpg,Green_Plus_Chess_3.jpg,left,1101.329999999376,true,high,NA,NA,NA,NA,NA,NA,NA,false
dmIbWByz,33cla8o0nlo9ukh858i8v1jgjowfr3,3r0t90iz1wpdp2mepx3xdbgx3obgcv,dmIbWByz,2020-0188,2020-05-07,18:02:58,18:27:38,NA,incomplete,81,color,1,right,Red_Plus_Grid_4.jpg,Green_Star_Dots_4.jpg,Red_Circle_Chess_1.jpg,left,1440.2599999995437,false,high,NA,NA,NA,NA,NA,NA,NA,false
dmIbWByz,33cla8o0nlo9ukh858i8v1jgjowfr3,3r0t90iz1wpdp2mepx3xdbgx3obgcv,dmIbWByz,2020-0188,2020-05-07,18:02:58,18:27:38,NA,incomplete,82,color,1,left,Purple_Plus_Dots_1.jpg,Purple_Circle_Chess_4.jpg,Green_Star_Stripes_1.jpg,right,1022.9250000012107,false,high,NA,NA,NA,NA,NA,NA,NA,false
dmIbWByz,33cla8o0nlo9ukh858i8v1jgjowfr3,3r0t90iz1wpdp2mepx3xdbgx3obgcv,dmIbWByz,2020-0188,2020-05-07,18:02:58,18:27:38,NA,incomplete,83,color,1,left,Blue_Plus_Stripes_1.jpg,Blue_Circle_Grid_3.jpg,Purple_Triangle_Chess_1.jpg,left,786.019999999553,true,high,NA,NA,NA,NA,NA,NA,NA,false
dmIbWByz,33cla8o0nlo9ukh858i8v1jgjowfr3,3r0t90iz1wpdp2mepx3xdbgx3obgcv,dmIbWByz,2020-0188,2020-05-07,18:02:58,18:27:38,NA,incomplete,84,color,1,right,Blue_Plus_Stripes_3.jpg,Green_Triangle_Grid_3.jpg,Blue_Circle_Chess_4.jpg,right,578.5800000012387,true,high,NA,NA,NA,NA,NA,NA,NA,false
dmIbWByz,33cla8o0nlo9ukh858i8v1jgjowfr3,3r0t90iz1wpdp2mepx3xdbgx3obgcv,dmIbWByz,2020-0188,2020-05-07,18:02:58,18:27:38,NA,incomplete,85,color,1,right,Blue_Plus_Stripes_1.jpg,Red_Triangle_Chess_1.jpg,Blue_Circle_Grid_3.jpg,right,526.9900000002235,true,high,NA,NA,NA,NA,NA,NA,NA,false
dmIbWByz,33cla8o0nlo9ukh858i8v1jgjowfr3,3r0t90iz1wpdp2mepx3xdbgx3obgcv,dmIbWByz,2020-0188,2020-05-07,18:02:58,18:27:38,NA,incomplete,86,color,1,left,Blue_Plus_Dots_3.jpg,Blue_Triangle_Grid_4.jpg,Red_Circle_Chess_3.jpg,left,523.4349999991246,true,high,NA,NA,NA,NA,NA,NA,NA,false
dmIbWByz,33cla8o0nlo9ukh858i8v1jgjowfr3,3r0t90iz1wpdp2mepx3xdbgx3obgcv,dmIbWByz,2020-0188,2020-05-07,18:02:58,18:27:38,NA,incomplete,87,color,1,left,Red_Circle_Stripes_3.jpg,Red_Triangle_Chess_4.jpg,Blue_Star_Dots_3.jpg,left,962.6600000010803,true,high,NA,NA,NA,NA,NA,NA,NA,false
dmIbWByz,33cla8o0nlo9ukh858i8v1jgjowfr3,3r0t90iz1wpdp2mepx3xdbgx3obgcv,dmIbWByz,2020-0188,2020-05-07,18:02:58,18:27:38,NA,incomplete,88,color,1,left,Green_Star_Chess_1.jpg,Green_Triangle_Dots_4.jpg,Purple_Plus_Grid_1.jpg,left,670.7249999998603,true,high,NA,NA,NA,NA,NA,NA,NA,false
dmIbWByz,33cla8o0nlo9ukh858i8v1jgjowfr3,3r0t90iz1wpdp2mepx3xdbgx3obgcv,dmIbWByz,2020-0188,2020-05-07,18:02:58,18:27:38,NA,incomplete,89,color,1,left,Green_Circle_Dots_4.jpg,Green_Plus_Chess_1.jpg,Purple_Triangle_Grid_4.jpg,left,686.0749999994878,true,high,NA,NA,NA,NA,NA,NA,NA,false
dmIbWByz,33cla8o0nlo9ukh858i8v1jgjowfr3,3r0t90iz1wpdp2mepx3xdbgx3obgcv,dmIbWByz,2020-0188,2020-05-07,18:02:58,18:27:38,NA,incomplete,90,number,1,left,Red_Star_Dots_1.jpg,Blue_Triangle_Grid_1.jpg,Red_Plus_Stripes_3.jpg,right,537.8500000005588,false,high,NA,NA,NA,NA,NA,NA,NA,false
dmIbWByz,33cla8o0nlo9ukh858i8v1jgjowfr3,3r0t90iz1wpdp2mepx3xdbgx3obgcv,dmIbWByz,2020-0188,2020-05-07,18:02:58,18:27:38,NA,incomplete,91,number,1,right,Blue_Circle_Grid_2.jpg,Blue_Star_Chess_3.jpg,Red_Triangle_Dots_2.jpg,left,597.2099999999627,false,high,NA,NA,NA,NA,NA,NA,NA,false
dmIbWByz,33cla8o0nlo9ukh858i8v1jgjowfr3,3r0t90iz1wpdp2mepx3xdbgx3obgcv,dmIbWByz,2020-0188,2020-05-07,18:02:58,18:27:38,NA,incomplete,92,number,0,left,Blue_Plus_Dots_4.jpg,Red_Triangle_Grid_4.jpg,Blue_Star_Stripes_1.jpg,right,1090.219999999972,false,high,NA,NA,NA,NA,NA,NA,NA,false
dmIbWByz,33cla8o0nlo9ukh858i8v1jgjowfr3,3r0t90iz1wpdp2mepx3xdbgx3obgcv,dmIbWByz,2020-0188,2020-05-07,18:02:58,18:27:38,NA,incomplete,93,number,1,right,Blue_Circle_Grid_3.jpg,Blue_Triangle_Stripes_2.jpg,Red_Plus_Chess_3.jpg,left,722.5950000011362,false,high,NA,NA,NA,NA,NA,NA,NA,false
dmIbWByz,33cla8o0nlo9ukh858i8v1jgjowfr3,3r0t90iz1wpdp2mepx3xdbgx3obgcv,dmIbWByz,2020-0188,2020-05-07,18:02:58,18:27:38,NA,incomplete,94,number,0,left,Green_Plus_Grid_3.jpg,Purple_Circle_Chess_3.jpg,Green_Star_Stripes_1.jpg,left,961.7250000010245,true,high,NA,NA,NA,NA,NA,NA,NA,false
dmIbWByz,33cla8o0nlo9ukh858i8v1jgjowfr3,3r0t90iz1wpdp2mepx3xdbgx3obgcv,dmIbWByz,2020-0188,2020-05-07,18:02:58,18:27:38,NA,incomplete,95,number,1,left,Purple_Triangle_Stripes_1.jpg,Blue_Circle_Dots_1.jpg,Purple_Star_Chess_4.jpg,right,727.944999998901,false,high,NA,NA,NA,NA,NA,NA,NA,false
dmIbWByz,33cla8o0nlo9ukh858i8v1jgjowfr3,3r0t90iz1wpdp2mepx3xdbgx3obgcv,dmIbWByz,2020-0188,2020-05-07,18:02:58,18:27:38,NA,incomplete,96,number,0,right,Red_Circle_Dots_4.jpg,Red_Plus_Stripes_2.jpg,Purple_Star_Grid_4.jpg,left,725.4699999992736,false,high,NA,NA,NA,NA,NA,NA,NA,false
dmIbWByz,33cla8o0nlo9ukh858i8v1jgjowfr3,3r0t90iz1wpdp2mepx3xdbgx3obgcv,dmIbWByz,2020-0188,2020-05-07,18:02:58,18:27:38,NA,incomplete,97,number,0,left,Blue_Circle_Chess_2.jpg,Red_Triangle_Grid_2.jpg,Blue_Plus_Dots_4.jpg,left,886.2700000007171,true,high,NA,NA,NA,NA,NA,NA,NA,false
dmIbWByz,33cla8o0nlo9ukh858i8v1jgjowfr3,3r0t90iz1wpdp2mepx3xdbgx3obgcv,dmIbWByz,2020-0188,2020-05-07,18:02:58,18:27:38,NA,incomplete,98,number,1,right,Green_Plus_Dots_1.jpg,Green_Triangle_Grid_4.jpg,Blue_Star_Stripes_1.jpg,left,1122.5249999989755,false,high,NA,NA,NA,NA,NA,NA,NA,false
dmIbWByz,33cla8o0nlo9ukh858i8v1jgjowfr3,3r0t90iz1wpdp2mepx3xdbgx3obgcv,dmIbWByz,2020-0188,2020-05-07,18:02:58,18:27:38,NA,incomplete,99,number,1,left,Blue_Circle_Grid_4.jpg,Red_Triangle_Dots_4.jpg,Blue_Plus_Chess_1.jpg,right,981.0999999991618,false,high,NA,NA,NA,NA,NA,NA,NA,false
dmIbWByz,33cla8o0nlo9ukh858i8v1jgjowfr3,3r0t90iz1wpdp2mepx3xdbgx3obgcv,dmIbWByz,2020-0188,2020-05-07,18:02:58,18:27:38,NA,incomplete,100,color,1,left,Blue_Circle_Stripes_4.jpg,Blue_Star_Grid_3.jpg,Red_Plus_Dots_4.jpg,left,588.8549999999814,true,high,NA,NA,NA,NA,NA,NA,NA,false
dmIbWByz,33cla8o0nlo9ukh858i8v1jgjowfr3,3r0t90iz1wpdp2mepx3xdbgx3obgcv,dmIbWByz,2020-0188,2020-05-07,18:02:58,18:27:38,NA,incomplete,101,color,1,right,Green_Star_Chess_4.jpg,Blue_Circle_Dots_4.jpg,Green_Plus_Grid_1.jpg,right,700.5700000007637,true,high,NA,NA,NA,NA,NA,NA,NA,false
dmIbWByz,33cla8o0nlo9ukh858i8v1jgjowfr3,3r0t90iz1wpdp2mepx3xdbgx3obgcv,dmIbWByz,2020-0188,2020-05-07,18:02:58,18:27:38,NA,incomplete,102,color,1,right,Purple_Circle_Dots_4.jpg,Green_Star_Chess_4.jpg,Purple_Plus_Stripes_3.jpg,left,914.9650000017136,false,high,NA,NA,NA,NA,NA,NA,NA,false
dmIbWByz,33cla8o0nlo9ukh858i8v1jgjowfr3,3r0t90iz1wpdp2mepx3xdbgx3obgcv,dmIbWByz,2020-0188,2020-05-07,18:02:58,18:27:38,NA,incomplete,103,color,1,right,Purple_Triangle_Chess_2.jpg,Blue_Circle_Dots_2.jpg,Purple_Star_Grid_3.jpg,right,776.2500000006985,true,high,NA,NA,NA,NA,NA,NA,NA,false
dmIbWByz,33cla8o0nlo9ukh858i8v1jgjowfr3,3r0t90iz1wpdp2mepx3xdbgx3obgcv,dmIbWByz,2020-0188,2020-05-07,18:02:58,18:27:38,NA,incomplete,104,color,1,left,Purple_Triangle_Stripes_2.jpg,Purple_Circle_Grid_3.jpg,Blue_Plus_Chess_2.jpg,left,742.5849999999627,true,high,NA,NA,NA,NA,NA,NA,NA,false
dmIbWByz,33cla8o0nlo9ukh858i8v1jgjowfr3,3r0t90iz1wpdp2mepx3xdbgx3obgcv,dmIbWByz,2020-0188,2020-05-07,18:02:58,18:27:38,NA,incomplete,105,color,1,right,Red_Triangle_Grid_4.jpg,Blue_Plus_Stripes_4.jpg,Red_Circle_Dots_2.jpg,right,765.5649999997113,true,high,NA,NA,NA,NA,NA,NA,NA,false
dmIbWByz,33cla8o0nlo9ukh858i8v1jgjowfr3,3r0t90iz1wpdp2mepx3xdbgx3obgcv,dmIbWByz,2020-0188,2020-05-07,18:02:58,18:27:38,NA,incomplete,106,color,1,left,Blue_Triangle_Dots_1.jpg,Blue_Star_Chess_2.jpg,Green_Plus_Stripes_1.jpg,left,527.2500000011642,true,high,NA,NA,NA,NA,NA,NA,NA,false
dmIbWByz,33cla8o0nlo9ukh858i8v1jgjowfr3,3r0t90iz1wpdp2mepx3xdbgx3obgcv,dmIbWByz,2020-0188,2020-05-07,18:02:58,18:27:38,NA,incomplete,107,color,1,right,Red_Circle_Stripes_4.jpg,Blue_Triangle_Chess_4.jpg,Red_Plus_Dots_3.jpg,right,785.1150000004563,true,high,NA,NA,NA,NA,NA,NA,NA,false
dmIbWByz,33cla8o0nlo9ukh858i8v1jgjowfr3,3r0t90iz1wpdp2mepx3xdbgx3obgcv,dmIbWByz,2020-0188,2020-05-07,18:02:58,18:27:38,NA,incomplete,108,color,1,left,Red_Star_Dots_3.jpg,Red_Triangle_Stripes_2.jpg,Blue_Plus_Grid_3.jpg,left,705.350000000326,true,high,NA,NA,NA,NA,NA,NA,NA,false
dmIbWByz,33cla8o0nlo9ukh858i8v1jgjowfr3,3r0t90iz1wpdp2mepx3xdbgx3obgcv,dmIbWByz,2020-0188,2020-05-07,18:02:58,18:27:38,NA,incomplete,109,color,0,left,Purple_Circle_Dots_4.jpg,Purple_Star_Grid_3.jpg,Blue_Plus_Stripes_4.jpg,left,824.6550000004936,true,high,NA,NA,NA,NA,NA,NA,NA,false
dmIbWByz,33cla8o0nlo9ukh858i8v1jgjowfr3,3r0t90iz1wpdp2mepx3xdbgx3obgcv,dmIbWByz,2020-0188,2020-05-07,18:02:58,18:27:38,NA,incomplete,110,number,1,left,Red_Triangle_Grid_3.jpg,Purple_Circle_Dots_3.jpg,Red_Star_Chess_4.jpg,left,948.9149999991059,true,high,NA,NA,NA,NA,NA,NA,NA,false
dmIbWByz,33cla8o0nlo9ukh858i8v1jgjowfr3,3r0t90iz1wpdp2mepx3xdbgx3obgcv,dmIbWByz,2020-0188,2020-05-07,18:02:58,18:27:38,NA,incomplete,111,number,1,right,Purple_Star_Stripes_4.jpg,Purple_Plus_Grid_2.jpg,Blue_Triangle_Dots_4.jpg,right,951.0699999991339,true,high,NA,NA,NA,NA,NA,NA,NA,false
dmIbWByz,33cla8o0nlo9ukh858i8v1jgjowfr3,3r0t90iz1wpdp2mepx3xdbgx3obgcv,dmIbWByz,2020-0188,2020-05-07,18:02:58,18:27:38,NA,incomplete,112,number,0,right,Red_Star_Dots_1.jpg,Red_Plus_Stripes_4.jpg,Purple_Triangle_Grid_1.jpg,right,1038.9400000004098,true,high,NA,NA,NA,NA,NA,NA,NA,false
dmIbWByz,33cla8o0nlo9ukh858i8v1jgjowfr3,3r0t90iz1wpdp2mepx3xdbgx3obgcv,dmIbWByz,2020-0188,2020-05-07,18:02:58,18:27:38,NA,incomplete,113,number,1,right,Green_Plus_Chess_2.jpg,Green_Circle_Grid_3.jpg,Blue_Star_Dots_2.jpg,left,980.9949999998789,false,high,NA,NA,NA,NA,NA,NA,NA,false
dmIbWByz,33cla8o0nlo9ukh858i8v1jgjowfr3,3r0t90iz1wpdp2mepx3xdbgx3obgcv,dmIbWByz,2020-0188,2020-05-07,18:02:58,18:27:38,NA,incomplete,114,number,0,right,Purple_Triangle_Stripes_4.jpg,Purple_Plus_Dots_3.jpg,Blue_Circle_Grid_4.jpg,right,848.7299999997485,true,high,NA,NA,NA,NA,NA,NA,NA,false
dmIbWByz,33cla8o0nlo9ukh858i8v1jgjowfr3,3r0t90iz1wpdp2mepx3xdbgx3obgcv,dmIbWByz,2020-0188,2020-05-07,18:02:58,18:27:38,NA,incomplete,115,number,1,right,Green_Triangle_Stripes_1.jpg,Green_Plus_Grid_4.jpg,Purple_Star_Chess_1.jpg,left,756.0699999995995,false,high,NA,NA,NA,NA,NA,NA,NA,false
dmIbWByz,33cla8o0nlo9ukh858i8v1jgjowfr3,3r0t90iz1wpdp2mepx3xdbgx3obgcv,dmIbWByz,2020-0188,2020-05-07,18:02:58,18:27:38,NA,incomplete,116,number,1,right,Red_Plus_Chess_2.jpg,Red_Star_Stripes_3.jpg,Blue_Triangle_Grid_2.jpg,left,699.1899999992456,false,high,NA,NA,NA,NA,NA,NA,NA,false
dmIbWByz,33cla8o0nlo9ukh858i8v1jgjowfr3,3r0t90iz1wpdp2mepx3xdbgx3obgcv,dmIbWByz,2020-0188,2020-05-07,18:02:58,18:27:38,NA,incomplete,117,number,1,right,Red_Star_Dots_3.jpg,Red_Triangle_Chess_4.jpg,Blue_Plus_Grid_3.jpg,left,610.7849999989849,false,high,NA,NA,NA,NA,NA,NA,NA,false
dmIbWByz,33cla8o0nlo9ukh858i8v1jgjowfr3,3r0t90iz1wpdp2mepx3xdbgx3obgcv,dmIbWByz,2020-0188,2020-05-07,18:02:58,18:27:38,NA,incomplete,118,number,1,left,Red_Star_Grid_1.jpg,Green_Plus_Chess_1.jpg,Red_Triangle_Dots_2.jpg,right,1127.5400000014342,false,high,NA,NA,NA,NA,NA,NA,NA,false
dmIbWByz,33cla8o0nlo9ukh858i8v1jgjowfr3,3r0t90iz1wpdp2mepx3xdbgx3obgcv,dmIbWByz,2020-0188,2020-05-07,18:02:58,18:27:38,NA,incomplete,119,number,0,left,Blue_Triangle_Chess_1.jpg,Purple_Star_Grid_1.jpg,Blue_Plus_Stripes_2.jpg,right,729.500000001397,false,high,NA,NA,NA,NA,NA,NA,NA,false
dmIbWByz,33cla8o0nlo9ukh858i8v1jgjowfr3,3r0t90iz1wpdp2mepx3xdbgx3obgcv,dmIbWByz,2020-0188,2020-05-07,18:02:58,18:27:38,NA,incomplete,120,color,1,left,Purple_Plus_Chess_1.jpg,Purple_Star_Stripes_2.jpg,Green_Triangle_Grid_1.jpg,left,567.3750000004657,true,high,NA,NA,NA,NA,NA,NA,NA,false
dmIbWByz,33cla8o0nlo9ukh858i8v1jgjowfr3,3r0t90iz1wpdp2mepx3xdbgx3obgcv,dmIbWByz,2020-0188,2020-05-07,18:02:58,18:27:38,NA,incomplete,121,color,1,right,Blue_Circle_Stripes_1.jpg,Purple_Triangle_Grid_1.jpg,Blue_Plus_Dots_3.jpg,right,493.8450000009034,true,high,NA,NA,NA,NA,NA,NA,NA,false
dmIbWByz,33cla8o0nlo9ukh858i8v1jgjowfr3,3r0t90iz1wpdp2mepx3xdbgx3obgcv,dmIbWByz,2020-0188,2020-05-07,18:02:58,18:27:38,NA,incomplete,122,color,0,left,Purple_Circle_Stripes_3.jpg,Purple_Plus_Grid_2.jpg,Red_Triangle_Chess_3.jpg,left,644.1500000001397,true,high,NA,NA,NA,NA,NA,NA,NA,false
dmIbWByz,33cla8o0nlo9ukh858i8v1jgjowfr3,3r0t90iz1wpdp2mepx3xdbgx3obgcv,dmIbWByz,2020-0188,2020-05-07,18:02:58,18:27:38,NA,incomplete,123,color,1,left,Blue_Circle_Dots_3.jpg,Blue_Star_Chess_2.jpg,Purple_Triangle_Grid_3.jpg,right,785.6899999990128,false,high,NA,NA,NA,NA,NA,NA,NA,false
dmIbWByz,33cla8o0nlo9ukh858i8v1jgjowfr3,3r0t90iz1wpdp2mepx3xdbgx3obgcv,dmIbWByz,2020-0188,2020-05-07,18:02:58,18:27:38,NA,incomplete,124,color,0,right,Blue_Star_Stripes_1.jpg,Purple_Circle_Grid_1.jpg,Blue_Plus_Dots_2.jpg,right,677.6750000009779,true,high,NA,NA,NA,NA,NA,NA,NA,false
dmIbWByz,33cla8o0nlo9ukh858i8v1jgjowfr3,3r0t90iz1wpdp2mepx3xdbgx3obgcv,dmIbWByz,2020-0188,2020-05-07,18:02:58,18:27:38,NA,incomplete,125,color,1,left,Blue_Plus_Stripes_2.jpg,Blue_Triangle_Chess_4.jpg,Purple_Star_Dots_2.jpg,left,644.024999999674,true,high,NA,NA,NA,NA,NA,NA,NA,false
dmIbWByz,33cla8o0nlo9ukh858i8v1jgjowfr3,3r0t90iz1wpdp2mepx3xdbgx3obgcv,dmIbWByz,2020-0188,2020-05-07,18:02:58,18:27:38,NA,incomplete,126,color,1,right,Blue_Circle_Stripes_3.jpg,Purple_Plus_Dots_3.jpg,Blue_Triangle_Grid_1.jpg,right,547.7749999992084,true,high,NA,NA,NA,NA,NA,NA,NA,false
dmIbWByz,33cla8o0nlo9ukh858i8v1jgjowfr3,3r0t90iz1wpdp2mepx3xdbgx3obgcv,dmIbWByz,2020-0188,2020-05-07,18:02:58,18:27:38,NA,incomplete,127,color,1,right,Blue_Circle_Stripes_4.jpg,Red_Star_Grid_4.jpg,Blue_Triangle_Chess_3.jpg,left,932.1949999993667,false,high,NA,NA,NA,NA,NA,NA,NA,false
dmIbWByz,33cla8o0nlo9ukh858i8v1jgjowfr3,3r0t90iz1wpdp2mepx3xdbgx3obgcv,dmIbWByz,2020-0188,2020-05-07,18:02:58,18:27:38,NA,incomplete,128,color,1,right,Green_Plus_Stripes_2.jpg,Blue_Circle_Dots_2.jpg,Green_Triangle_Grid_1.jpg,right,631.7549999984913,true,high,NA,NA,NA,NA,NA,NA,NA,false
dmIbWByz,33cla8o0nlo9ukh858i8v1jgjowfr3,3r0t90iz1wpdp2mepx3xdbgx3obgcv,dmIbWByz,2020-0188,2020-05-07,18:02:58,18:27:38,NA,incomplete,129,color,0,left,Green_Triangle_Dots_2.jpg,Green_Star_Stripes_1.jpg,Blue_Circle_Grid_2.jpg,left,588.9000000008382,true,high,NA,NA,NA,NA,NA,NA,NA,false
dmIbWByz,33cla8o0nlo9ukh858i8v1jgjowfr3,3r0t90iz1wpdp2mepx3xdbgx3obgcv,dmIbWByz,2020-0188,2020-05-07,18:02:58,18:27:38,NA,incomplete,130,color,1,right,Red_Star_Grid_3.jpg,Blue_Circle_Dots_3.jpg,Red_Triangle_Chess_1.jpg,right,642.8450000004377,true,high,NA,NA,NA,NA,NA,NA,NA,false
dmIbWByz,33cla8o0nlo9ukh858i8v1jgjowfr3,3r0t90iz1wpdp2mepx3xdbgx3obgcv,dmIbWByz,2020-0188,2020-05-07,18:02:58,18:27:38,NA,incomplete,131,color,1,right,Purple_Star_Stripes_4.jpg,Red_Plus_Chess_4.jpg,Purple_Triangle_Dots_2.jpg,left,922.5249999999069,false,high,NA,NA,NA,NA,NA,NA,NA,false
dmIbWByz,33cla8o0nlo9ukh858i8v1jgjowfr3,3r0t90iz1wpdp2mepx3xdbgx3obgcv,dmIbWByz,2020-0188,2020-05-07,18:02:58,18:27:38,NA,incomplete,132,color,0,right,Red_Plus_Stripes_2.jpg,Purple_Triangle_Chess_2.jpg,Red_Circle_Grid_1.jpg,right,665.3750000004657,true,high,NA,NA,NA,NA,NA,NA,NA,false
dmIbWByz,33cla8o0nlo9ukh858i8v1jgjowfr3,3r0t90iz1wpdp2mepx3xdbgx3obgcv,dmIbWByz,2020-0188,2020-05-07,18:02:58,18:27:38,NA,incomplete,133,color,1,right,Purple_Plus_Dots_2.jpg,Green_Star_Stripes_2.jpg,Purple_Circle_Chess_3.jpg,left,873.5299999990966,false,high,NA,NA,NA,NA,NA,NA,NA,false
dmIbWByz,33cla8o0nlo9ukh858i8v1jgjowfr3,3r0t90iz1wpdp2mepx3xdbgx3obgcv,dmIbWByz,2020-0188,2020-05-07,18:02:58,18:27:38,NA,incomplete,134,color,1,right,Green_Plus_Dots_1.jpg,Purple_Star_Stripes_1.jpg,Green_Triangle_Chess_4.jpg,left,923.1550000004936,false,high,NA,NA,NA,NA,NA,NA,NA,false
dmIbWByz,33cla8o0nlo9ukh858i8v1jgjowfr3,3r0t90iz1wpdp2mepx3xdbgx3obgcv,dmIbWByz,2020-0188,2020-05-07,18:02:58,18:27:38,NA,incomplete,135,color,1,left,Blue_Triangle_Stripes_2.jpg,Blue_Plus_Dots_1.jpg,Green_Circle_Chess_2.jpg,left,722.8650000016205,true,high,NA,NA,NA,NA,NA,NA,NA,false
dmIbWByz,33cla8o0nlo9ukh858i8v1jgjowfr3,3r0t90iz1wpdp2mepx3xdbgx3obgcv,dmIbWByz,2020-0188,2020-05-07,18:02:58,18:27:38,NA,incomplete,136,color,0,right,Green_Star_Stripes_2.jpg,Blue_Plus_Chess_2.jpg,Green_Circle_Grid_1.jpg,right,561.5899999993853,true,high,NA,NA,NA,NA,NA,NA,NA,false
dmIbWByz,33cla8o0nlo9ukh858i8v1jgjowfr3,3r0t90iz1wpdp2mepx3xdbgx3obgcv,dmIbWByz,2020-0188,2020-05-07,18:02:58,18:27:38,NA,incomplete,137,color,1,right,Red_Star_Grid_4.jpg,Purple_Circle_Chess_4.jpg,Red_Plus_Stripes_1.jpg,right,847.6350000000093,true,high,NA,NA,NA,NA,NA,NA,NA,false
dmIbWByz,33cla8o0nlo9ukh858i8v1jgjowfr3,3r0t90iz1wpdp2mepx3xdbgx3obgcv,dmIbWByz,2020-0188,2020-05-07,18:02:58,18:27:38,NA,incomplete,138,color,1,left,Blue_Triangle_Dots_2.jpg,Blue_Plus_Stripes_4.jpg,Green_Star_Chess_2.jpg,left,850.3300000010058,true,high,NA,NA,NA,NA,NA,NA,NA,false
dmIbWByz,33cla8o0nlo9ukh858i8v1jgjowfr3,3r0t90iz1wpdp2mepx3xdbgx3obgcv,dmIbWByz,2020-0188,2020-05-07,18:02:58,18:27:38,NA,incomplete,139,color,1,left,Purple_Triangle_Dots_3.jpg,Purple_Circle_Grid_2.jpg,Green_Plus_Chess_3.jpg,left,774.359999999404,true,high,NA,NA,NA,NA,NA,NA,NA,false
dmIbWByz,33cla8o0nlo9ukh858i8v1jgjowfr3,3r0t90iz1wpdp2mepx3xdbgx3obgcv,dmIbWByz,2020-0188,2020-05-07,18:02:58,18:27:38,NA,incomplete,140,number,1,left,Green_Triangle_Grid_2.jpg,Purple_Circle_Dots_2.jpg,Green_Star_Chess_1.jpg,right,743.2449999996461,false,high,NA,NA,NA,NA,NA,NA,NA,false
dmIbWByz,33cla8o0nlo9ukh858i8v1jgjowfr3,3r0t90iz1wpdp2mepx3xdbgx3obgcv,dmIbWByz,2020-0188,2020-05-07,18:02:58,18:27:38,NA,incomplete,141,number,1,left,Red_Circle_Chess_2.jpg,Green_Star_Stripes_2.jpg,Red_Plus_Dots_3.jpg,right,664.2200000006706,false,high,NA,NA,NA,NA,NA,NA,NA,false
dmIbWByz,33cla8o0nlo9ukh858i8v1jgjowfr3,3r0t90iz1wpdp2mepx3xdbgx3obgcv,dmIbWByz,2020-0188,2020-05-07,18:02:58,18:27:38,NA,incomplete,142,number,1,right,Green_Star_Dots_4.jpg,Green_Plus_Grid_3.jpg,Red_Circle_Stripes_4.jpg,left,568.6450000011828,false,high,NA,NA,NA,NA,NA,NA,NA,false
dmIbWByz,33cla8o0nlo9ukh858i8v1jgjowfr3,3r0t90iz1wpdp2mepx3xdbgx3obgcv,dmIbWByz,2020-0188,2020-05-07,18:02:58,18:27:38,NA,incomplete,143,number,1,right,Red_Star_Grid_1.jpg,Red_Circle_Dots_4.jpg,Blue_Plus_Chess_1.jpg,left,1323.720000000205,false,high,NA,NA,NA,NA,NA,NA,NA,false
dmIbWByz,33cla8o0nlo9ukh858i8v1jgjowfr3,3r0t90iz1wpdp2mepx3xdbgx3obgcv,dmIbWByz,2020-0188,2020-05-07,18:02:58,18:27:38,NA,incomplete,144,number,1,right,Red_Circle_Chess_4.jpg,Red_Triangle_Grid_1.jpg,Green_Star_Dots_4.jpg,right,721.475000000326,true,high,NA,NA,NA,NA,NA,NA,NA,false
dmIbWByz,33cla8o0nlo9ukh858i8v1jgjowfr3,3r0t90iz1wpdp2mepx3xdbgx3obgcv,dmIbWByz,2020-0188,2020-05-07,18:02:58,18:27:38,NA,incomplete,145,number,0,left,Green_Triangle_Chess_2.jpg,Purple_Plus_Dots_2.jpg,Green_Star_Stripes_3.jpg,left,661.3249999990221,true,high,NA,NA,NA,NA,NA,NA,NA,false
dmIbWByz,33cla8o0nlo9ukh858i8v1jgjowfr3,3r0t90iz1wpdp2mepx3xdbgx3obgcv,dmIbWByz,2020-0188,2020-05-07,18:02:58,18:27:38,NA,incomplete,146,number,1,right,Purple_Triangle_Chess_4.jpg,Purple_Star_Stripes_2.jpg,Green_Plus_Dots_4.jpg,left,582.1799999994691,false,high,NA,NA,NA,NA,NA,NA,NA,false
dmIbWByz,33cla8o0nlo9ukh858i8v1jgjowfr3,3r0t90iz1wpdp2mepx3xdbgx3obgcv,dmIbWByz,2020-0188,2020-05-07,18:02:58,18:27:38,NA,incomplete,147,number,1,left,Blue_Star_Dots_1.jpg,Purple_Plus_Grid_1.jpg,Blue_Circle_Stripes_4.jpg,right,1153.56499999878,false,high,NA,NA,NA,NA,NA,NA,NA,false
dmIbWByz,33cla8o0nlo9ukh858i8v1jgjowfr3,3r0t90iz1wpdp2mepx3xdbgx3obgcv,dmIbWByz,2020-0188,2020-05-07,18:02:58,18:27:38,NA,incomplete,148,number,1,left,Purple_Star_Dots_3.jpg,Blue_Plus_Chess_3.jpg,Purple_Triangle_Grid_1.jpg,left,1101.784999998752,true,high,NA,NA,NA,NA,NA,NA,NA,false
dmIbWByz,33cla8o0nlo9ukh858i8v1jgjowfr3,3r0t90iz1wpdp2mepx3xdbgx3obgcv,dmIbWByz,2020-0188,2020-05-07,18:02:58,18:27:38,NA,incomplete,149,number,1,left,Red_Circle_Dots_3.jpg,Blue_Plus_Chess_3.jpg,Red_Star_Grid_1.jpg,left,583.8650000004563,true,high,NA,NA,NA,NA,NA,NA,NA,false
dmIbWByz,33cla8o0nlo9ukh858i8v1jgjowfr3,3r0t90iz1wpdp2mepx3xdbgx3obgcv,dmIbWByz,2020-0188,2020-05-07,18:02:58,18:27:38,NA,incomplete,150,number,1,left,Green_Circle_Chess_4.jpg,Purple_Triangle_Dots_4.jpg,Green_Star_Stripes_2.jpg,left,615.2550000005867,true,high,NA,NA,NA,NA,NA,NA,NA,false
dmIbWByz,33cla8o0nlo9ukh858i8v1jgjowfr3,3r0t90iz1wpdp2mepx3xdbgx3obgcv,dmIbWByz,2020-0188,2020-05-07,18:02:58,18:27:38,NA,incomplete,151,number,1,left,Purple_Plus_Grid_4.jpg,Red_Circle_Chess_4.jpg,Purple_Star_Stripes_2.jpg,left,772.7549999998882,true,high,NA,NA,NA,NA,NA,NA,NA,false
dmIbWByz,33cla8o0nlo9ukh858i8v1jgjowfr3,3r0t90iz1wpdp2mepx3xdbgx3obgcv,dmIbWByz,2020-0188,2020-05-07,18:02:58,18:27:38,NA,incomplete,152,number,1,left,Blue_Star_Grid_2.jpg,Red_Triangle_Dots_2.jpg,Blue_Circle_Chess_3.jpg,left,761.3499999986961,true,high,NA,NA,NA,NA,NA,NA,NA,false
dmIbWByz,33cla8o0nlo9ukh858i8v1jgjowfr3,3r0t90iz1wpdp2mepx3xdbgx3obgcv,dmIbWByz,2020-0188,2020-05-07,18:02:58,18:27:38,NA,incomplete,153,number,1,right,Purple_Triangle_Grid_2.jpg,Purple_Plus_Dots_3.jpg,Green_Star_Stripes_2.jpg,right,967.5600000007544,true,high,NA,NA,NA,NA,NA,NA,NA,false
dmIbWByz,33cla8o0nlo9ukh858i8v1jgjowfr3,3r0t90iz1wpdp2mepx3xdbgx3obgcv,dmIbWByz,2020-0188,2020-05-07,18:02:58,18:27:38,NA,incomplete,154,number,1,right,Red_Triangle_Dots_3.jpg,Red_Star_Grid_1.jpg,Green_Circle_Stripes_3.jpg,right,654.8149999999441,true,high,NA,NA,NA,NA,NA,NA,NA,false
dmIbWByz,33cla8o0nlo9ukh858i8v1jgjowfr3,3r0t90iz1wpdp2mepx3xdbgx3obgcv,dmIbWByz,2020-0188,2020-05-07,18:02:58,18:27:38,NA,incomplete,155,number,1,left,Blue_Triangle_Grid_3.jpg,Green_Plus_Chess_3.jpg,Blue_Star_Dots_4.jpg,left,699.640000000596,true,high,NA,NA,NA,NA,NA,NA,NA,false
dmIbWByz,33cla8o0nlo9ukh858i8v1jgjowfr3,3r0t90iz1wpdp2mepx3xdbgx3obgcv,dmIbWByz,2020-0188,2020-05-07,18:02:58,18:27:38,NA,incomplete,156,number,1,right,Blue_Triangle_Grid_2.jpg,Blue_Plus_Chess_1.jpg,Green_Circle_Dots_2.jpg,right,649.4349999993574,true,high,NA,NA,NA,NA,NA,NA,NA,false
dmIbWByz,33cla8o0nlo9ukh858i8v1jgjowfr3,3r0t90iz1wpdp2mepx3xdbgx3obgcv,dmIbWByz,2020-0188,2020-05-07,18:02:58,18:27:38,NA,incomplete,157,number,1,left,Purple_Plus_Dots_1.jpg,Blue_Star_Grid_1.jpg,Purple_Circle_Stripes_4.jpg,left,570.9550000010058,true,high,NA,NA,NA,NA,NA,NA,NA,false
dmIbWByz,33cla8o0nlo9ukh858i8v1jgjowfr3,3r0t90iz1wpdp2mepx3xdbgx3obgcv,dmIbWByz,2020-0188,2020-05-07,18:02:58,18:27:38,NA,incomplete,158,number,0,left,Green_Circle_Chess_2.jpg,Blue_Plus_Stripes_2.jpg,Green_Star_Grid_3.jpg,left,783.5749999994878,true,high,NA,NA,NA,NA,NA,NA,NA,false
dmIbWByz,33cla8o0nlo9ukh858i8v1jgjowfr3,3r0t90iz1wpdp2mepx3xdbgx3obgcv,dmIbWByz,2020-0188,2020-05-07,18:02:58,18:27:38,NA,incomplete,159,number,1,left,Blue_Circle_Chess_4.jpg,Purple_Triangle_Dots_4.jpg,Blue_Star_Grid_3.jpg,right,1239.0500000002794,false,high,NA,NA,NA,NA,NA,NA,NA,false
dmIbWByz,33cla8o0nlo9ukh858i8v1jgjowfr3,3r0t90iz1wpdp2mepx3xdbgx3obgcv,dmIbWByz,2020-0188,2020-05-07,18:02:58,18:27:38,NA,incomplete,160,color,1,left,Green_Circle_Stripes_1.jpg,Green_Star_Dots_3.jpg,Blue_Triangle_Chess_1.jpg,left,680.3200000012293,true,high,NA,NA,NA,NA,NA,NA,NA,false
dmIbWByz,33cla8o0nlo9ukh858i8v1jgjowfr3,3r0t90iz1wpdp2mepx3xdbgx3obgcv,dmIbWByz,2020-0188,2020-05-07,18:02:58,18:27:38,NA,incomplete,161,color,1,left,Purple_Triangle_Chess_2.jpg,Purple_Circle_Grid_3.jpg,Green_Star_Dots_2.jpg,left,1048.6199999994133,true,high,NA,NA,NA,NA,NA,NA,NA,false
dmIbWByz,33cla8o0nlo9ukh858i8v1jgjowfr3,3r0t90iz1wpdp2mepx3xdbgx3obgcv,dmIbWByz,2020-0188,2020-05-07,18:02:58,18:27:38,NA,incomplete,162,color,1,right,Green_Circle_Grid_3.jpg,Purple_Triangle_Dots_3.jpg,Green_Plus_Stripes_4.jpg,right,529.8349999994971,true,high,NA,NA,NA,NA,NA,NA,NA,false
dmIbWByz,33cla8o0nlo9ukh858i8v1jgjowfr3,3r0t90iz1wpdp2mepx3xdbgx3obgcv,dmIbWByz,2020-0188,2020-05-07,18:02:58,18:27:38,NA,incomplete,163,color,1,right,Green_Triangle_Grid_4.jpg,Red_Circle_Chess_4.jpg,Green_Star_Stripes_1.jpg,right,626.3049999999348,true,high,NA,NA,NA,NA,NA,NA,NA,false
dmIbWByz,33cla8o0nlo9ukh858i8v1jgjowfr3,3r0t90iz1wpdp2mepx3xdbgx3obgcv,dmIbWByz,2020-0188,2020-05-07,18:02:58,18:27:38,NA,incomplete,164,color,0,left,Blue_Plus_Dots_4.jpg,Blue_Star_Chess_3.jpg,Red_Circle_Grid_4.jpg,left,865.934999999823,true,high,NA,NA,NA,NA,NA,NA,NA,false
dmIbWByz,33cla8o0nlo9ukh858i8v1jgjowfr3,3r0t90iz1wpdp2mepx3xdbgx3obgcv,dmIbWByz,2020-0188,2020-05-07,18:02:58,18:27:38,NA,incomplete,165,color,1,right,Green_Triangle_Stripes_2.jpg,Blue_Plus_Dots_2.jpg,Green_Star_Grid_1.jpg,right,710.684999999823,true,high,NA,NA,NA,NA,NA,NA,NA,false
dmIbWByz,33cla8o0nlo9ukh858i8v1jgjowfr3,3r0t90iz1wpdp2mepx3xdbgx3obgcv,dmIbWByz,2020-0188,2020-05-07,18:02:58,18:27:38,NA,incomplete,166,color,1,right,Purple_Circle_Chess_2.jpg,Green_Plus_Dots_2.jpg,Purple_Triangle_Stripes_1.jpg,right,563.7299999999814,true,high,NA,NA,NA,NA,NA,NA,NA,false
dmIbWByz,33cla8o0nlo9ukh858i8v1jgjowfr3,3r0t90iz1wpdp2mepx3xdbgx3obgcv,dmIbWByz,2020-0188,2020-05-07,18:02:58,18:27:38,NA,incomplete,167,color,1,right,Purple_Triangle_Chess_3.jpg,Green_Star_Grid_3.jpg,Purple_Plus_Dots_4.jpg,right,526.0299999990966,true,high,NA,NA,NA,NA,NA,NA,NA,false
dmIbWByz,33cla8o0nlo9ukh858i8v1jgjowfr3,3r0t90iz1wpdp2mepx3xdbgx3obgcv,dmIbWByz,2020-0188,2020-05-07,18:02:58,18:27:38,NA,incomplete,168,color,0,left,Blue_Triangle_Grid_1.jpg,Blue_Plus_Chess_2.jpg,Purple_Circle_Stripes_1.jpg,left,483.3099999995902,true,high,NA,NA,NA,NA,NA,NA,NA,false
dmIbWByz,33cla8o0nlo9ukh858i8v1jgjowfr3,3r0t90iz1wpdp2mepx3xdbgx3obgcv,dmIbWByz,2020-0188,2020-05-07,18:02:58,18:27:38,NA,incomplete,169,color,1,right,Purple_Circle_Grid_2.jpg,Blue_Triangle_Chess_2.jpg,Purple_Star_Stripes_4.jpg,right,671.609999999404,true,high,NA,NA,NA,NA,NA,NA,NA,false
dmIbWByz,33cla8o0nlo9ukh858i8v1jgjowfr3,3r0t90iz1wpdp2mepx3xdbgx3obgcv,dmIbWByz,2020-0188,2020-05-07,18:02:58,18:27:38,NA,incomplete,170,color,1,right,Green_Triangle_Grid_4.jpg,Purple_Circle_Chess_4.jpg,Green_Plus_Dots_3.jpg,right,538.7399999999907,true,high,NA,NA,NA,NA,NA,NA,NA,false
dmIbWByz,33cla8o0nlo9ukh858i8v1jgjowfr3,3r0t90iz1wpdp2mepx3xdbgx3obgcv,dmIbWByz,2020-0188,2020-05-07,18:02:58,18:27:38,NA,incomplete,171,color,1,right,Red_Plus_Grid_1.jpg,Blue_Star_Dots_1.jpg,Red_Triangle_Stripes_4.jpg,right,782.4650000003166,true,high,NA,NA,NA,NA,NA,NA,NA,false
dmIbWByz,33cla8o0nlo9ukh858i8v1jgjowfr3,3r0t90iz1wpdp2mepx3xdbgx3obgcv,dmIbWByz,2020-0188,2020-05-07,18:02:58,18:27:38,NA,incomplete,172,color,0,left,Red_Triangle_Chess_3.jpg,Red_Plus_Grid_1.jpg,Green_Star_Stripes_3.jpg,left,609.6249999990687,true,high,NA,NA,NA,NA,NA,NA,NA,false
dmIbWByz,33cla8o0nlo9ukh858i8v1jgjowfr3,3r0t90iz1wpdp2mepx3xdbgx3obgcv,dmIbWByz,2020-0188,2020-05-07,18:02:58,18:27:38,NA,incomplete,173,color,1,left,Purple_Star_Chess_4.jpg,Purple_Plus_Dots_3.jpg,Blue_Triangle_Grid_4.jpg,left,927.1600000013132,true,high,NA,NA,NA,NA,NA,NA,NA,false
dmIbWByz,33cla8o0nlo9ukh858i8v1jgjowfr3,3r0t90iz1wpdp2mepx3xdbgx3obgcv,dmIbWByz,2020-0188,2020-05-07,18:02:58,18:27:38,NA,incomplete,174,color,1,left,Purple_Triangle_Dots_1.jpg,Purple_Star_Chess_4.jpg,Red_Circle_Stripes_1.jpg,left,510.83999999891967,true,high,NA,NA,NA,NA,NA,NA,NA,false
dmIbWByz,33cla8o0nlo9ukh858i8v1jgjowfr3,3r0t90iz1wpdp2mepx3xdbgx3obgcv,dmIbWByz,2020-0188,2020-05-07,18:02:58,18:27:38,NA,incomplete,175,color,1,right,Red_Plus_Chess_3.jpg,Green_Triangle_Dots_3.jpg,Red_Circle_Stripes_1.jpg,right,586.4799999999814,true,high,NA,NA,NA,NA,NA,NA,NA,false
dmIbWByz,33cla8o0nlo9ukh858i8v1jgjowfr3,3r0t90iz1wpdp2mepx3xdbgx3obgcv,dmIbWByz,2020-0188,2020-05-07,18:02:58,18:27:38,NA,incomplete,176,color,1,right,Green_Star_Stripes_1.jpg,Purple_Triangle_Dots_1.jpg,Green_Circle_Grid_4.jpg,right,595.9600000004284,true,high,NA,NA,NA,NA,NA,NA,NA,false
dmIbWByz,33cla8o0nlo9ukh858i8v1jgjowfr3,3r0t90iz1wpdp2mepx3xdbgx3obgcv,dmIbWByz,2020-0188,2020-05-07,18:02:58,18:27:38,NA,incomplete,177,color,1,right,Purple_Plus_Chess_4.jpg,Blue_Star_Dots_4.jpg,Purple_Circle_Stripes_2.jpg,right,544.1450000000186,true,high,NA,NA,NA,NA,NA,NA,NA,false
dmIbWByz,33cla8o0nlo9ukh858i8v1jgjowfr3,3r0t90iz1wpdp2mepx3xdbgx3obgcv,dmIbWByz,2020-0188,2020-05-07,18:02:58,18:27:38,NA,incomplete,178,color,1,left,Green_Star_Grid_3.jpg,Green_Triangle_Stripes_4.jpg,Blue_Plus_Dots_3.jpg,left,524.559999999823,true,high,NA,NA,NA,NA,NA,NA,NA,false
dmIbWByz,33cla8o0nlo9ukh858i8v1jgjowfr3,3r0t90iz1wpdp2mepx3xdbgx3obgcv,dmIbWByz,2020-0188,2020-05-07,18:02:58,18:27:38,NA,incomplete,179,color,1,right,Blue_Triangle_Dots_1.jpg,Red_Circle_Chess_1.jpg,Blue_Star_Stripes_4.jpg,right,481.7050000000745,true,high,NA,NA,NA,NA,NA,NA,NA,false
dmIbWByz,33cla8o0nlo9ukh858i8v1jgjowfr3,3r0t90iz1wpdp2mepx3xdbgx3obgcv,dmIbWByz,2020-0188,2020-05-07,18:02:58,18:27:38,NA,incomplete,180,number,1,right,Purple_Plus_Chess_3.jpg,Purple_Star_Grid_1.jpg,Green_Circle_Stripes_3.jpg,left,548.3949999997858,false,high,NA,NA,NA,NA,NA,NA,NA,false
dmIbWByz,33cla8o0nlo9ukh858i8v1jgjowfr3,3r0t90iz1wpdp2mepx3xdbgx3obgcv,dmIbWByz,2020-0188,2020-05-07,18:02:58,18:27:38,NA,incomplete,181,number,1,left,Purple_Circle_Grid_1.jpg,Green_Plus_Chess_1.jpg,Purple_Star_Stripes_4.jpg,right,588.0249999992084,false,high,NA,NA,NA,NA,NA,NA,NA,false
dmIbWByz,33cla8o0nlo9ukh858i8v1jgjowfr3,3r0t90iz1wpdp2mepx3xdbgx3obgcv,dmIbWByz,2020-0188,2020-05-07,18:02:58,18:27:38,NA,incomplete,182,number,0,right,Purple_Plus_Dots_1.jpg,Purple_Triangle_Chess_4.jpg,Blue_Star_Grid_1.jpg,left,538.9249999991152,false,high,NA,NA,NA,NA,NA,NA,NA,false
dmIbWByz,33cla8o0nlo9ukh858i8v1jgjowfr3,3r0t90iz1wpdp2mepx3xdbgx3obgcv,dmIbWByz,2020-0188,2020-05-07,18:02:58,18:27:38,NA,incomplete,183,number,1,right,Red_Circle_Stripes_1.jpg,Red_Plus_Dots_4.jpg,Purple_Star_Chess_1.jpg,left,598.9599999992643,false,high,NA,NA,NA,NA,NA,NA,NA,false
dmIbWByz,33cla8o0nlo9ukh858i8v1jgjowfr3,3r0t90iz1wpdp2mepx3xdbgx3obgcv,dmIbWByz,2020-0188,2020-05-07,18:02:58,18:27:38,NA,incomplete,184,number,1,right,Green_Plus_Dots_3.jpg,Green_Star_Grid_4.jpg,Purple_Circle_Chess_3.jpg,left,898.0100000007078,false,high,NA,NA,NA,NA,NA,NA,NA,false
dmIbWByz,33cla8o0nlo9ukh858i8v1jgjowfr3,3r0t90iz1wpdp2mepx3xdbgx3obgcv,dmIbWByz,2020-0188,2020-05-07,18:02:58,18:27:38,NA,incomplete,185,number,0,right,Red_Triangle_Stripes_3.jpg,Red_Star_Grid_4.jpg,Blue_Circle_Dots_3.jpg,right,929.7949999999255,true,high,NA,NA,NA,NA,NA,NA,NA,false
dmIbWByz,33cla8o0nlo9ukh858i8v1jgjowfr3,3r0t90iz1wpdp2mepx3xdbgx3obgcv,dmIbWByz,2020-0188,2020-05-07,18:02:58,18:27:38,NA,incomplete,186,number,1,left,Blue_Star_Dots_3.jpg,Red_Triangle_Grid_3.jpg,Blue_Plus_Stripes_2.jpg,right,1012.0050000003539,false,high,NA,NA,NA,NA,NA,NA,NA,false
dmIbWByz,33cla8o0nlo9ukh858i8v1jgjowfr3,3r0t90iz1wpdp2mepx3xdbgx3obgcv,dmIbWByz,2020-0188,2020-05-07,18:02:58,18:27:38,NA,incomplete,187,number,0,right,Red_Triangle_Stripes_3.jpg,Red_Plus_Chess_2.jpg,Blue_Circle_Dots_3.jpg,left,715.7849999985192,false,high,NA,NA,NA,NA,NA,NA,NA,false
dmIbWByz,33cla8o0nlo9ukh858i8v1jgjowfr3,3r0t90iz1wpdp2mepx3xdbgx3obgcv,dmIbWByz,2020-0188,2020-05-07,18:02:58,18:27:38,NA,incomplete,188,number,1,right,Blue_Star_Chess_4.jpg,Blue_Plus_Dots_3.jpg,Green_Triangle_Stripes_4.jpg,right,1132.0150000010617,true,high,NA,NA,NA,NA,NA,NA,NA,false
dmIbWByz,33cla8o0nlo9ukh858i8v1jgjowfr3,3r0t90iz1wpdp2mepx3xdbgx3obgcv,dmIbWByz,2020-0188,2020-05-07,18:02:58,18:27:38,NA,incomplete,189,number,1,left,Purple_Circle_Grid_1.jpg,Green_Star_Dots_1.jpg,Purple_Plus_Chess_3.jpg,right,999.2049999982119,false,high,NA,NA,NA,NA,NA,NA,NA,false
dmIbWByz,33cla8o0nlo9ukh858i8v1jgjowfr3,3r0t90iz1wpdp2mepx3xdbgx3obgcv,dmIbWByz,2020-0188,2020-05-07,18:02:58,18:27:38,NA,incomplete,190,number,1,left,Blue_Plus_Dots_2.jpg,Red_Star_Chess_2.jpg,Blue_Triangle_Grid_1.jpg,right,1214.7700000004843,false,high,NA,NA,NA,NA,NA,NA,NA,false
dmIbWByz,33cla8o0nlo9ukh858i8v1jgjowfr3,3r0t90iz1wpdp2mepx3xdbgx3obgcv,dmIbWByz,2020-0188,2020-05-07,18:02:58,18:27:38,NA,incomplete,191,number,1,right,Purple_Star_Dots_1.jpg,Purple_Plus_Stripes_3.jpg,Blue_Circle_Grid_1.jpg,left,673.3650000006892,false,high,NA,NA,NA,NA,NA,NA,NA,false
dmIbWByz,33cla8o0nlo9ukh858i8v1jgjowfr3,3r0t90iz1wpdp2mepx3xdbgx3obgcv,dmIbWByz,2020-0188,2020-05-07,18:02:58,18:27:38,NA,incomplete,192,number,1,right,Green_Circle_Stripes_3.jpg,Green_Star_Grid_4.jpg,Red_Plus_Chess_3.jpg,left,929.5550000006333,false,high,NA,NA,NA,NA,NA,NA,NA,false
dmIbWByz,33cla8o0nlo9ukh858i8v1jgjowfr3,3r0t90iz1wpdp2mepx3xdbgx3obgcv,dmIbWByz,2020-0188,2020-05-07,18:02:58,18:27:38,NA,incomplete,193,number,1,right,Red_Circle_Dots_4.jpg,Red_Triangle_Grid_2.jpg,Green_Star_Stripes_4.jpg,right,300.5599999995902,true,high,NA,NA,NA,NA,NA,NA,NA,false
dmIbWByz,33cla8o0nlo9ukh858i8v1jgjowfr3,3r0t90iz1wpdp2mepx3xdbgx3obgcv,dmIbWByz,2020-0188,2020-05-07,18:02:58,18:27:38,NA,incomplete,194,number,1,left,Red_Star_Grid_4.jpg,Blue_Triangle_Dots_4.jpg,Red_Plus_Chess_3.jpg,left,880.1549999990966,true,high,NA,NA,NA,NA,NA,NA,NA,false
dmIbWByz,33cla8o0nlo9ukh858i8v1jgjowfr3,3r0t90iz1wpdp2mepx3xdbgx3obgcv,dmIbWByz,2020-0188,2020-05-07,18:02:58,18:27:38,NA,incomplete,195,number,0,left,Red_Circle_Dots_3.jpg,Blue_Triangle_Chess_3.jpg,Red_Plus_Stripes_1.jpg,left,648.7099999994971,true,high,NA,NA,NA,NA,NA,NA,NA,false
dmIbWByz,33cla8o0nlo9ukh858i8v1jgjowfr3,3r0t90iz1wpdp2mepx3xdbgx3obgcv,dmIbWByz,2020-0188,2020-05-07,18:02:58,18:27:38,NA,incomplete,196,number,1,left,Blue_Circle_Dots_3.jpg,Red_Triangle_Stripes_3.jpg,Blue_Star_Grid_1.jpg,left,1132.5749999997206,true,high,NA,NA,NA,NA,NA,NA,NA,false
dmIbWByz,33cla8o0nlo9ukh858i8v1jgjowfr3,3r0t90iz1wpdp2mepx3xdbgx3obgcv,dmIbWByz,2020-0188,2020-05-07,18:02:58,18:27:38,NA,incomplete,197,number,1,right,Purple_Triangle_Chess_1.jpg,Purple_Plus_Dots_4.jpg,Red_Star_Stripes_1.jpg,right,771.4750000014901,true,high,NA,NA,NA,NA,NA,NA,NA,false
dmIbWByz,33cla8o0nlo9ukh858i8v1jgjowfr3,3r0t90iz1wpdp2mepx3xdbgx3obgcv,dmIbWByz,2020-0188,2020-05-07,18:02:58,18:27:38,NA,incomplete,198,number,0,left,Green_Circle_Stripes_2.jpg,Blue_Plus_Grid_2.jpg,Green_Triangle_Chess_3.jpg,left,658.8099999988917,true,high,NA,NA,NA,NA,NA,NA,NA,false
dmIbWByz,33cla8o0nlo9ukh858i8v1jgjowfr3,3r0t90iz1wpdp2mepx3xdbgx3obgcv,dmIbWByz,2020-0188,2020-05-07,18:02:58,18:27:38,NA,incomplete,199,number,1,right,Purple_Circle_Stripes_4.jpg,Purple_Plus_Grid_2.jpg,Green_Triangle_Dots_4.jpg,right,827.215000001248,true,high,NA,NA,NA,NA,NA,NA,NA,false
dmIbWByz,33cla8o0nlo9ukh858i8v1jgjowfr3,3r0t90iz1wpdp2mepx3xdbgx3obgcv,dmIbWByz,2020-0188,2020-05-07,18:02:58,18:27:38,NA,incomplete,200,color,0,right,Purple_Triangle_Stripes_1.jpg,Red_Circle_Grid_1.jpg,Purple_Star_Dots_4.jpg,left,747.5450000001583,false,high,NA,NA,NA,NA,NA,NA,NA,false
dmIbWByz,33cla8o0nlo9ukh858i8v1jgjowfr3,3r0t90iz1wpdp2mepx3xdbgx3obgcv,dmIbWByz,2020-0188,2020-05-07,18:02:58,18:27:38,NA,incomplete,201,color,1,left,Green_Triangle_Grid_1.jpg,Green_Star_Chess_4.jpg,Red_Circle_Dots_1.jpg,right,647.0650000011083,false,high,NA,NA,NA,NA,NA,NA,NA,false
dmIbWByz,33cla8o0nlo9ukh858i8v1jgjowfr3,3r0t90iz1wpdp2mepx3xdbgx3obgcv,dmIbWByz,2020-0188,2020-05-07,18:02:58,18:27:38,NA,incomplete,202,color,1,left,Blue_Star_Stripes_3.jpg,Blue_Circle_Grid_2.jpg,Purple_Triangle_Chess_3.jpg,right,630.9799999997485,false,high,NA,NA,NA,NA,NA,NA,NA,false
dmIbWByz,33cla8o0nlo9ukh858i8v1jgjowfr3,3r0t90iz1wpdp2mepx3xdbgx3obgcv,dmIbWByz,2020-0188,2020-05-07,18:02:58,18:27:38,NA,incomplete,203,color,1,left,Green_Circle_Grid_4.jpg,Green_Plus_Dots_1.jpg,Blue_Star_Chess_4.jpg,right,930.8700000001118,false,high,NA,NA,NA,NA,NA,NA,NA,false
dmIbWByz,33cla8o0nlo9ukh858i8v1jgjowfr3,3r0t90iz1wpdp2mepx3xdbgx3obgcv,dmIbWByz,2020-0188,2020-05-07,18:02:58,18:27:38,NA,incomplete,204,color,1,left,Red_Circle_Chess_3.jpg,Red_Star_Dots_4.jpg,Green_Triangle_Grid_3.jpg,right,1293.8949999988545,false,high,NA,NA,NA,NA,NA,NA,NA,false
dmIbWByz,33cla8o0nlo9ukh858i8v1jgjowfr3,3r0t90iz1wpdp2mepx3xdbgx3obgcv,dmIbWByz,2020-0188,2020-05-07,18:02:58,18:27:38,NA,incomplete,205,color,1,left,Red_Circle_Chess_4.jpg,Red_Star_Dots_1.jpg,Blue_Triangle_Grid_4.jpg,left,703.6149999983609,true,high,NA,NA,NA,NA,NA,NA,NA,false
dmIbWByz,33cla8o0nlo9ukh858i8v1jgjowfr3,3r0t90iz1wpdp2mepx3xdbgx3obgcv,dmIbWByz,2020-0188,2020-05-07,18:02:58,18:27:38,NA,incomplete,206,color,1,right,Red_Triangle_Dots_3.jpg,Purple_Star_Chess_3.jpg,Red_Plus_Grid_2.jpg,right,576.8300000000745,true,high,NA,NA,NA,NA,NA,NA,NA,false
dmIbWByz,33cla8o0nlo9ukh858i8v1jgjowfr3,3r0t90iz1wpdp2mepx3xdbgx3obgcv,dmIbWByz,2020-0188,2020-05-07,18:02:58,18:27:38,NA,incomplete,207,color,0,left,Green_Star_Dots_2.jpg,Green_Triangle_Grid_3.jpg,Blue_Plus_Stripes_2.jpg,left,743.8900000015274,true,high,NA,NA,NA,NA,NA,NA,NA,false
dmIbWByz,33cla8o0nlo9ukh858i8v1jgjowfr3,3r0t90iz1wpdp2mepx3xdbgx3obgcv,dmIbWByz,2020-0188,2020-05-07,18:02:58,18:27:38,NA,incomplete,208,color,1,right,Purple_Circle_Dots_4.jpg,Blue_Triangle_Chess_4.jpg,Purple_Plus_Stripes_1.jpg,right,666.8700000008103,true,high,NA,NA,NA,NA,NA,NA,NA,false
dmIbWByz,33cla8o0nlo9ukh858i8v1jgjowfr3,3r0t90iz1wpdp2mepx3xdbgx3obgcv,dmIbWByz,2020-0188,2020-05-07,18:02:58,18:27:38,NA,incomplete,209,color,1,left,Blue_Circle_Dots_2.jpg,Blue_Star_Grid_1.jpg,Green_Plus_Stripes_2.jpg,left,492.6950000007637,true,high,NA,NA,NA,NA,NA,NA,NA,false
dmIbWByz,33cla8o0nlo9ukh858i8v1jgjowfr3,3r0t90iz1wpdp2mepx3xdbgx3obgcv,dmIbWByz,2020-0188,2020-05-07,18:02:58,18:27:38,NA,incomplete,210,color,1,left,Red_Star_Chess_3.jpg,Red_Circle_Grid_4.jpg,Blue_Triangle_Dots_3.jpg,left,605.4000000003725,true,high,NA,NA,NA,NA,NA,NA,NA,false
dmIbWByz,33cla8o0nlo9ukh858i8v1jgjowfr3,3r0t90iz1wpdp2mepx3xdbgx3obgcv,dmIbWByz,2020-0188,2020-05-07,18:02:58,18:27:38,NA,incomplete,211,color,1,right,Green_Circle_Chess_4.jpg,Red_Triangle_Stripes_4.jpg,Green_Star_Grid_3.jpg,right,581.135000000475,true,high,NA,NA,NA,NA,NA,NA,NA,false
dmIbWByz,33cla8o0nlo9ukh858i8v1jgjowfr3,3r0t90iz1wpdp2mepx3xdbgx3obgcv,dmIbWByz,2020-0188,2020-05-07,18:02:58,18:27:38,NA,incomplete,212,color,0,left,Green_Circle_Grid_1.jpg,Green_Plus_Chess_4.jpg,Blue_Triangle_Dots_1.jpg,left,490.2899999998044,true,high,NA,NA,NA,NA,NA,NA,NA,false
dmIbWByz,33cla8o0nlo9ukh858i8v1jgjowfr3,3r0t90iz1wpdp2mepx3xdbgx3obgcv,dmIbWByz,2020-0188,2020-05-07,18:02:58,18:27:38,NA,incomplete,213,color,1,right,Red_Star_Dots_3.jpg,Purple_Triangle_Chess_3.jpg,Red_Plus_Grid_1.jpg,right,883.4299999999348,true,high,NA,NA,NA,NA,NA,NA,NA,false
dmIbWByz,33cla8o0nlo9ukh858i8v1jgjowfr3,3r0t90iz1wpdp2mepx3xdbgx3obgcv,dmIbWByz,2020-0188,2020-05-07,18:02:58,18:27:38,NA,incomplete,214,color,1,left,Purple_Plus_Chess_1.jpg,Purple_Star_Stripes_3.jpg,Green_Circle_Dots_1.jpg,left,494.6249999993015,true,high,NA,NA,NA,NA,NA,NA,NA,false
dmIbWByz,33cla8o0nlo9ukh858i8v1jgjowfr3,3r0t90iz1wpdp2mepx3xdbgx3obgcv,dmIbWByz,2020-0188,2020-05-07,18:02:58,18:27:38,NA,incomplete,215,color,1,right,Green_Circle_Stripes_2.jpg,Red_Plus_Chess_2.jpg,Green_Triangle_Grid_3.jpg,right,459.62999999918975,true,high,NA,NA,NA,NA,NA,NA,NA,false
dmIbWByz,33cla8o0nlo9ukh858i8v1jgjowfr3,3r0t90iz1wpdp2mepx3xdbgx3obgcv,dmIbWByz,2020-0188,2020-05-07,18:02:58,18:27:38,NA,incomplete,216,color,1,right,Blue_Plus_Dots_3.jpg,Purple_Circle_Grid_3.jpg,Blue_Triangle_Chess_2.jpg,right,487.6300000012852,true,high,NA,NA,NA,NA,NA,NA,NA,false
dmIbWByz,33cla8o0nlo9ukh858i8v1jgjowfr3,3r0t90iz1wpdp2mepx3xdbgx3obgcv,dmIbWByz,2020-0188,2020-05-07,18:02:58,18:27:38,NA,incomplete,217,color,0,right,Purple_Star_Grid_2.jpg,Red_Triangle_Stripes_2.jpg,Purple_Circle_Dots_1.jpg,right,517.5449999989942,true,high,NA,NA,NA,NA,NA,NA,NA,false
dmIbWByz,33cla8o0nlo9ukh858i8v1jgjowfr3,3r0t90iz1wpdp2mepx3xdbgx3obgcv,dmIbWByz,2020-0188,2020-05-07,18:02:58,18:27:38,NA,incomplete,218,color,1,right,Red_Star_Dots_2.jpg,Blue_Plus_Chess_2.jpg,Red_Triangle_Stripes_3.jpg,right,569.6750000005122,true,high,NA,NA,NA,NA,NA,NA,NA,false
dmIbWByz,33cla8o0nlo9ukh858i8v1jgjowfr3,3r0t90iz1wpdp2mepx3xdbgx3obgcv,dmIbWByz,2020-0188,2020-05-07,18:02:58,18:27:38,NA,incomplete,219,color,0,left,Green_Star_Chess_4.jpg,Green_Circle_Dots_1.jpg,Red_Plus_Stripes_4.jpg,left,637.7549999996554,true,high,NA,NA,NA,NA,NA,NA,NA,false
dmIbWByz,33cla8o0nlo9ukh858i8v1jgjowfr3,3r0t90iz1wpdp2mepx3xdbgx3obgcv,dmIbWByz,2020-0188,2020-05-07,18:02:58,18:27:38,NA,incomplete,220,number,1,right,Green_Plus_Grid_1.jpg,Green_Triangle_Stripes_4.jpg,Red_Star_Dots_1.jpg,right,598.4600000008941,true,high,NA,NA,NA,NA,NA,NA,NA,false
dmIbWByz,33cla8o0nlo9ukh858i8v1jgjowfr3,3r0t90iz1wpdp2mepx3xdbgx3obgcv,dmIbWByz,2020-0188,2020-05-07,18:02:58,18:27:38,NA,incomplete,221,number,1,left,Red_Triangle_Chess_1.jpg,Blue_Plus_Grid_1.jpg,Red_Circle_Stripes_2.jpg,left,970.7200000011362,true,high,NA,NA,NA,NA,NA,NA,NA,false
dmIbWByz,33cla8o0nlo9ukh858i8v1jgjowfr3,3r0t90iz1wpdp2mepx3xdbgx3obgcv,dmIbWByz,2020-0188,2020-05-07,18:02:58,18:27:38,NA,incomplete,222,number,1,left,Red_Plus_Stripes_2.jpg,Purple_Triangle_Chess_2.jpg,Red_Circle_Dots_3.jpg,left,597.7800000000279,true,high,NA,NA,NA,NA,NA,NA,NA,false
dmIbWByz,33cla8o0nlo9ukh858i8v1jgjowfr3,3r0t90iz1wpdp2mepx3xdbgx3obgcv,dmIbWByz,2020-0188,2020-05-07,18:02:58,18:27:38,NA,incomplete,223,number,1,right,Red_Star_Dots_4.jpg,Red_Circle_Stripes_3.jpg,Blue_Plus_Grid_4.jpg,right,750.5000000002328,true,high,NA,NA,NA,NA,NA,NA,NA,false
dmIbWByz,33cla8o0nlo9ukh858i8v1jgjowfr3,3r0t90iz1wpdp2mepx3xdbgx3obgcv,dmIbWByz,2020-0188,2020-05-07,18:02:58,18:27:38,NA,incomplete,224,number,1,right,Purple_Triangle_Dots_3.jpg,Purple_Plus_Stripes_4.jpg,Green_Circle_Chess_3.jpg,left,578.625,false,high,NA,NA,NA,NA,NA,NA,NA,false
dmIbWByz,33cla8o0nlo9ukh858i8v1jgjowfr3,3r0t90iz1wpdp2mepx3xdbgx3obgcv,dmIbWByz,2020-0188,2020-05-07,18:02:58,18:27:38,NA,incomplete,225,number,0,left,Purple_Circle_Chess_1.jpg,Red_Triangle_Dots_1.jpg,Purple_Star_Stripes_3.jpg,right,671.4050000009593,false,high,NA,NA,NA,NA,NA,NA,NA,false
dmIbWByz,33cla8o0nlo9ukh858i8v1jgjowfr3,3r0t90iz1wpdp2mepx3xdbgx3obgcv,dmIbWByz,2020-0188,2020-05-07,18:02:58,18:27:38,NA,incomplete,226,number,1,right,Green_Triangle_Stripes_3.jpg,Green_Plus_Grid_4.jpg,Red_Circle_Dots_3.jpg,left,979.3100000005215,false,high,NA,NA,NA,NA,NA,NA,NA,false
dmIbWByz,33cla8o0nlo9ukh858i8v1jgjowfr3,3r0t90iz1wpdp2mepx3xdbgx3obgcv,dmIbWByz,2020-0188,2020-05-07,18:02:58,18:27:38,NA,incomplete,227,number,1,right,Blue_Star_Dots_1.jpg,Blue_Circle_Chess_4.jpg,Purple_Triangle_Grid_1.jpg,right,1048.504999998724,true,high,NA,NA,NA,NA,NA,NA,NA,false
dmIbWByz,33cla8o0nlo9ukh858i8v1jgjowfr3,3r0t90iz1wpdp2mepx3xdbgx3obgcv,dmIbWByz,2020-0188,2020-05-07,18:02:58,18:27:38,NA,incomplete,228,number,0,right,Red_Circle_Dots_2.jpg,Red_Plus_Chess_1.jpg,Blue_Star_Stripes_2.jpg,right,810.7849999996834,true,high,NA,NA,NA,NA,NA,NA,NA,false
dmIbWByz,33cla8o0nlo9ukh858i8v1jgjowfr3,3r0t90iz1wpdp2mepx3xdbgx3obgcv,dmIbWByz,2020-0188,2020-05-07,18:02:58,18:27:38,NA,incomplete,229,number,1,left,Blue_Plus_Grid_3.jpg,Purple_Star_Chess_3.jpg,Blue_Triangle_Dots_4.jpg,left,866.9449999995995,true,high,NA,NA,NA,NA,NA,NA,NA,false
dmIbWByz,33cla8o0nlo9ukh858i8v1jgjowfr3,3r0t90iz1wpdp2mepx3xdbgx3obgcv,dmIbWByz,2020-0188,2020-05-07,18:02:58,18:27:38,NA,incomplete,230,number,1,right,Blue_Circle_Grid_2.jpg,Blue_Star_Chess_3.jpg,Red_Triangle_Stripes_2.jpg,left,811.7799999997951,false,high,NA,NA,NA,NA,NA,NA,NA,false
dmIbWByz,33cla8o0nlo9ukh858i8v1jgjowfr3,3r0t90iz1wpdp2mepx3xdbgx3obgcv,dmIbWByz,2020-0188,2020-05-07,18:02:58,18:27:38,NA,incomplete,231,number,0,left,Purple_Plus_Grid_3.jpg,Green_Circle_Stripes_3.jpg,Purple_Star_Chess_2.jpg,right,786.4950000003446,false,high,NA,NA,NA,NA,NA,NA,NA,false
dmIbWByz,33cla8o0nlo9ukh858i8v1jgjowfr3,3r0t90iz1wpdp2mepx3xdbgx3obgcv,dmIbWByz,2020-0188,2020-05-07,18:02:58,18:27:38,NA,incomplete,232,number,1,left,Purple_Circle_Stripes_3.jpg,Blue_Star_Dots_3.jpg,Purple_Plus_Chess_4.jpg,right,637.6500000006054,false,high,NA,NA,NA,NA,NA,NA,NA,false
dmIbWByz,33cla8o0nlo9ukh858i8v1jgjowfr3,3r0t90iz1wpdp2mepx3xdbgx3obgcv,dmIbWByz,2020-0188,2020-05-07,18:02:58,18:27:38,NA,incomplete,233,number,1,left,Blue_Triangle_Dots_1.jpg,Purple_Plus_Grid_1.jpg,Blue_Circle_Chess_3.jpg,right,762.2350000001024,false,high,NA,NA,NA,NA,NA,NA,NA,false
dmIbWByz,33cla8o0nlo9ukh858i8v1jgjowfr3,3r0t90iz1wpdp2mepx3xdbgx3obgcv,dmIbWByz,2020-0188,2020-05-07,18:02:58,18:27:38,NA,incomplete,234,number,1,right,Blue_Star_Chess_2.jpg,Blue_Triangle_Grid_3.jpg,Red_Circle_Dots_2.jpg,left,752.5399999995716,false,high,NA,NA,NA,NA,NA,NA,NA,false
dmIbWByz,33cla8o0nlo9ukh858i8v1jgjowfr3,3r0t90iz1wpdp2mepx3xdbgx3obgcv,dmIbWByz,2020-0188,2020-05-07,18:02:58,18:27:38,NA,incomplete,235,number,0,left,Blue_Triangle_Dots_3.jpg,Green_Plus_Chess_3.jpg,Blue_Circle_Grid_1.jpg,left,616.9599999992643,true,high,NA,NA,NA,NA,NA,NA,NA,false
dmIbWByz,33cla8o0nlo9ukh858i8v1jgjowfr3,3r0t90iz1wpdp2mepx3xdbgx3obgcv,dmIbWByz,2020-0188,2020-05-07,18:02:58,18:27:38,NA,incomplete,236,number,1,right,Purple_Star_Stripes_2.jpg,Purple_Triangle_Grid_1.jpg,Red_Plus_Chess_2.jpg,right,991.9750000007916,true,high,NA,NA,NA,NA,NA,NA,NA,false
dmIbWByz,33cla8o0nlo9ukh858i8v1jgjowfr3,3r0t90iz1wpdp2mepx3xdbgx3obgcv,dmIbWByz,2020-0188,2020-05-07,18:02:58,18:27:38,NA,incomplete,237,number,1,right,Green_Circle_Dots_3.jpg,Green_Star_Stripes_1.jpg,Purple_Triangle_Grid_3.jpg,left,845.0749999992549,false,high,NA,NA,NA,NA,NA,NA,NA,false
dmIbWByz,33cla8o0nlo9ukh858i8v1jgjowfr3,3r0t90iz1wpdp2mepx3xdbgx3obgcv,dmIbWByz,2020-0188,2020-05-07,18:02:58,18:27:38,NA,incomplete,238,number,1,left,Blue_Circle_Dots_1.jpg,Purple_Triangle_Grid_1.jpg,Blue_Plus_Stripes_4.jpg,right,1531.1500000006054,false,high,NA,NA,NA,NA,NA,NA,NA,false
dmIbWByz,33cla8o0nlo9ukh858i8v1jgjowfr3,3r0t90iz1wpdp2mepx3xdbgx3obgcv,dmIbWByz,2020-0188,2020-05-07,18:02:58,18:27:38,NA,incomplete,239,number,1,left,Green_Plus_Dots_4.jpg,Purple_Triangle_Chess_4.jpg,Green_Star_Stripes_1.jpg,right,713.7750000001397,false,high,NA,NA,NA,NA,NA,NA,NA,false
dmIbWByz,33cla8o0nlo9ukh858i8v1jgjowfr3,3r0t90iz1wpdp2mepx3xdbgx3obgcv,dmIbWByz,2020-0188,2020-05-07,18:02:58,18:27:38,1438752.5100000002,1481079.7999999996,NA,NA,NA,NA,NA,NA,NA,NA,NA,NA,NA,31,White/Caucasian,Male,American ,no,yes,no,undefined
