workerId,hitId,assignmentId,subject,studyid,exp_date,exp_start,exp_end,time_start,time_end,trial,type,reward_validity,answer,image_top,image_left,image_right,response,response_time,response_acc,volatility,practice
mE8uQTfh,3ka7ijsnx9iy5qpdnesn7gsg38gpb3,3r2pkq87n0l4uf40saxe1jypce3im1,mE8uQTfh,2020-0188,2020-05-07,17:36:22,17:59:46,NA,incomplete,0,shape,0,left,Blue_Plus_Stripes_4.jpg,Green_Plus_Chess_3.jpg,Blue_Circle_Dots_1.jpg,right,955.7399999903282,false,NA,true
mE8uQTfh,3ka7ijsnx9iy5qpdnesn7gsg38gpb3,3r2pkq87n0l4uf40saxe1jypce3im1,mE8uQTfh,2020-0188,2020-05-07,17:36:22,17:59:46,NA,incomplete,1,shape,1,right,Green_Plus_Stripes_1.jpg,Green_Circle_Grid_4.jpg,Blue_Plus_Chess_3.jpg,right,910.6000000028871,true,NA,true
mE8uQTfh,3ka7ijsnx9iy5qpdnesn7gsg38gpb3,3r2pkq87n0l4uf40saxe1jypce3im1,mE8uQTfh,2020-0188,2020-05-07,17:36:22,17:59:46,NA,incomplete,2,shape,1,left,Purple_Star_Dots_3.jpg,Red_Star_Chess_1.jpg,Purple_Circle_Stripes_4.jpg,left,926.5500000037719,true,NA,true
mE8uQTfh,3ka7ijsnx9iy5qpdnesn7gsg38gpb3,3r2pkq87n0l4uf40saxe1jypce3im1,mE8uQTfh,2020-0188,2020-05-07,17:36:22,17:59:46,NA,incomplete,3,shape,1,left,Red_Plus_Grid_4.jpg,Green_Plus_Stripes_2.jpg,Red_Circle_Chess_1.jpg,left,1093.284999995376,true,NA,true
mE8uQTfh,3ka7ijsnx9iy5qpdnesn7gsg38gpb3,3r2pkq87n0l4uf40saxe1jypce3im1,mE8uQTfh,2020-0188,2020-05-07,17:36:22,17:59:46,NA,incomplete,4,shape,1,right,Red_Triangle_Chess_4.jpg,Red_Plus_Dots_1.jpg,Purple_Triangle_Grid_3.jpg,left,1052.5099999940721,false,NA,true
mE8uQTfh,3ka7ijsnx9iy5qpdnesn7gsg38gpb3,3r2pkq87n0l4uf40saxe1jypce3im1,mE8uQTfh,2020-0188,2020-05-07,17:36:22,17:59:46,NA,incomplete,5,shape,1,left,Blue_Triangle_Dots_2.jpg,Purple_Triangle_Stripes_1.jpg,Blue_Circle_Chess_4.jpg,left,1133.7250000069616,true,NA,true
mE8uQTfh,3ka7ijsnx9iy5qpdnesn7gsg38gpb3,3r2pkq87n0l4uf40saxe1jypce3im1,mE8uQTfh,2020-0188,2020-05-07,17:36:22,17:59:46,NA,incomplete,6,shape,1,left,Green_Star_Grid_3.jpg,Blue_Star_Chess_1.jpg,Green_Plus_Stripes_4.jpg,left,836.6149999928894,true,NA,true
mE8uQTfh,3ka7ijsnx9iy5qpdnesn7gsg38gpb3,3r2pkq87n0l4uf40saxe1jypce3im1,mE8uQTfh,2020-0188,2020-05-07,17:36:22,17:59:46,NA,incomplete,7,shape,1,right,Green_Circle_Dots_1.jpg,Green_Plus_Chess_2.jpg,Red_Circle_Stripes_4.jpg,right,910.7899999944493,true,NA,true
mE8uQTfh,3ka7ijsnx9iy5qpdnesn7gsg38gpb3,3r2pkq87n0l4uf40saxe1jypce3im1,mE8uQTfh,2020-0188,2020-05-07,17:36:22,17:59:46,NA,incomplete,8,shape,1,left,Green_Star_Stripes_1.jpg,Purple_Star_Dots_2.jpg,Green_Triangle_Chess_3.jpg,left,774.2949999956181,true,NA,true
mE8uQTfh,3ka7ijsnx9iy5qpdnesn7gsg38gpb3,3r2pkq87n0l4uf40saxe1jypce3im1,mE8uQTfh,2020-0188,2020-05-07,17:36:22,17:59:46,NA,incomplete,9,shape,0,left,Green_Plus_Stripes_3.jpg,Purple_Plus_Grid_2.jpg,Green_Star_Dots_1.jpg,left,699.6649999928195,true,NA,true
mE8uQTfh,3ka7ijsnx9iy5qpdnesn7gsg38gpb3,3r2pkq87n0l4uf40saxe1jypce3im1,mE8uQTfh,2020-0188,2020-05-07,17:36:22,17:59:46,NA,incomplete,10,shape,0,left,Green_Triangle_Chess_1.jpg,Blue_Triangle_Grid_2.jpg,Green_Plus_Dots_4.jpg,right,1196.5849999978673,false,NA,true
mE8uQTfh,3ka7ijsnx9iy5qpdnesn7gsg38gpb3,3r2pkq87n0l4uf40saxe1jypce3im1,mE8uQTfh,2020-0188,2020-05-07,17:36:22,17:59:46,NA,incomplete,11,shape,0,left,Purple_Triangle_Dots_1.jpg,Blue_Triangle_Stripes_2.jpg,Purple_Circle_Chess_4.jpg,left,1024.440000008326,true,NA,true
mE8uQTfh,3ka7ijsnx9iy5qpdnesn7gsg38gpb3,3r2pkq87n0l4uf40saxe1jypce3im1,mE8uQTfh,2020-0188,2020-05-07,17:36:22,17:59:46,NA,incomplete,12,shape,1,right,Blue_Plus_Chess_4.jpg,Blue_Triangle_Stripes_1.jpg,Purple_Plus_Grid_2.jpg,right,1089.7549999936018,true,NA,true
mE8uQTfh,3ka7ijsnx9iy5qpdnesn7gsg38gpb3,3r2pkq87n0l4uf40saxe1jypce3im1,mE8uQTfh,2020-0188,2020-05-07,17:36:22,17:59:46,NA,incomplete,13,shape,1,right,Green_Plus_Grid_2.jpg,Green_Triangle_Stripes_1.jpg,Blue_Plus_Dots_4.jpg,right,993.5899999982212,true,NA,true
mE8uQTfh,3ka7ijsnx9iy5qpdnesn7gsg38gpb3,3r2pkq87n0l4uf40saxe1jypce3im1,mE8uQTfh,2020-0188,2020-05-07,17:36:22,17:59:46,NA,incomplete,14,shape,1,left,Red_Plus_Grid_2.jpg,Green_Plus_Chess_4.jpg,Red_Star_Stripes_3.jpg,left,988.4650000021793,true,NA,true
mE8uQTfh,3ka7ijsnx9iy5qpdnesn7gsg38gpb3,3r2pkq87n0l4uf40saxe1jypce3im1,mE8uQTfh,2020-0188,2020-05-07,17:36:22,17:59:46,NA,incomplete,15,shape,0,right,Green_Plus_Stripes_4.jpg,Green_Star_Dots_2.jpg,Blue_Plus_Grid_3.jpg,right,834.0400000015507,true,NA,true
mE8uQTfh,3ka7ijsnx9iy5qpdnesn7gsg38gpb3,3r2pkq87n0l4uf40saxe1jypce3im1,mE8uQTfh,2020-0188,2020-05-07,17:36:22,17:59:46,NA,incomplete,16,shape,1,left,Green_Star_Dots_4.jpg,Red_Star_Stripes_3.jpg,Green_Plus_Grid_1.jpg,left,1219.8150000040187,true,NA,true
mE8uQTfh,3ka7ijsnx9iy5qpdnesn7gsg38gpb3,3r2pkq87n0l4uf40saxe1jypce3im1,mE8uQTfh,2020-0188,2020-05-07,17:36:22,17:59:46,NA,incomplete,17,shape,1,right,Purple_Circle_Grid_4.jpg,Purple_Plus_Dots_3.jpg,Green_Circle_Stripes_1.jpg,right,1135.79000000027,true,NA,true
mE8uQTfh,3ka7ijsnx9iy5qpdnesn7gsg38gpb3,3r2pkq87n0l4uf40saxe1jypce3im1,mE8uQTfh,2020-0188,2020-05-07,17:36:22,17:59:46,NA,incomplete,18,shape,1,right,Green_Circle_Dots_3.jpg,Green_Triangle_Stripes_4.jpg,Purple_Circle_Chess_2.jpg,right,1028.150000012829,true,NA,true
mE8uQTfh,3ka7ijsnx9iy5qpdnesn7gsg38gpb3,3r2pkq87n0l4uf40saxe1jypce3im1,mE8uQTfh,2020-0188,2020-05-07,17:36:22,17:59:46,NA,incomplete,19,shape,1,left,Green_Plus_Stripes_2.jpg,Purple_Plus_Grid_1.jpg,Green_Star_Chess_3.jpg,left,935.0200000044424,true,NA,true
mE8uQTfh,3ka7ijsnx9iy5qpdnesn7gsg38gpb3,3r2pkq87n0l4uf40saxe1jypce3im1,mE8uQTfh,2020-0188,2020-05-07,17:36:22,17:59:46,NA,incomplete,20,color,1,right,Blue_Circle_Grid_4.jpg,Purple_Circle_Stripes_1.jpg,Blue_Triangle_Dots_2.jpg,right,1508.975000004284,true,NA,true
mE8uQTfh,3ka7ijsnx9iy5qpdnesn7gsg38gpb3,3r2pkq87n0l4uf40saxe1jypce3im1,mE8uQTfh,2020-0188,2020-05-07,17:36:22,17:59:46,NA,incomplete,21,color,1,left,Purple_Circle_Chess_2.jpg,Purple_Star_Grid_4.jpg,Red_Circle_Stripes_1.jpg,left,866.1500000016531,true,NA,true
mE8uQTfh,3ka7ijsnx9iy5qpdnesn7gsg38gpb3,3r2pkq87n0l4uf40saxe1jypce3im1,mE8uQTfh,2020-0188,2020-05-07,17:36:22,17:59:46,NA,incomplete,22,color,0,left,Purple_Triangle_Grid_1.jpg,Purple_Circle_Stripes_4.jpg,Red_Triangle_Dots_3.jpg,left,876.7300000035902,true,NA,true
mE8uQTfh,3ka7ijsnx9iy5qpdnesn7gsg38gpb3,3r2pkq87n0l4uf40saxe1jypce3im1,mE8uQTfh,2020-0188,2020-05-07,17:36:22,17:59:46,NA,incomplete,23,color,1,left,Green_Triangle_Chess_3.jpg,Green_Circle_Stripes_4.jpg,Red_Triangle_Dots_1.jpg,left,1147.8549999883398,true,NA,true
mE8uQTfh,3ka7ijsnx9iy5qpdnesn7gsg38gpb3,3r2pkq87n0l4uf40saxe1jypce3im1,mE8uQTfh,2020-0188,2020-05-07,17:36:22,17:59:46,NA,incomplete,24,color,1,left,Red_Triangle_Chess_4.jpg,Red_Star_Grid_1.jpg,Blue_Triangle_Dots_3.jpg,left,906.6400000010617,true,NA,true
mE8uQTfh,3ka7ijsnx9iy5qpdnesn7gsg38gpb3,3r2pkq87n0l4uf40saxe1jypce3im1,mE8uQTfh,2020-0188,2020-05-07,17:36:22,17:59:46,NA,incomplete,25,color,1,right,Green_Triangle_Chess_3.jpg,Blue_Triangle_Dots_2.jpg,Green_Plus_Grid_4.jpg,right,1210.2199999935692,true,NA,true
mE8uQTfh,3ka7ijsnx9iy5qpdnesn7gsg38gpb3,3r2pkq87n0l4uf40saxe1jypce3im1,mE8uQTfh,2020-0188,2020-05-07,17:36:22,17:59:46,NA,incomplete,26,color,1,left,Red_Triangle_Chess_3.jpg,Red_Star_Dots_4.jpg,Blue_Triangle_Grid_1.jpg,left,868.0100000055972,true,NA,true
mE8uQTfh,3ka7ijsnx9iy5qpdnesn7gsg38gpb3,3r2pkq87n0l4uf40saxe1jypce3im1,mE8uQTfh,2020-0188,2020-05-07,17:36:22,17:59:46,NA,incomplete,27,color,1,left,Green_Triangle_Grid_2.jpg,Green_Circle_Chess_3.jpg,Purple_Triangle_Stripes_1.jpg,left,878.4400000004098,true,NA,true
mE8uQTfh,3ka7ijsnx9iy5qpdnesn7gsg38gpb3,3r2pkq87n0l4uf40saxe1jypce3im1,mE8uQTfh,2020-0188,2020-05-07,17:36:22,17:59:46,NA,incomplete,28,color,1,right,Purple_Triangle_Stripes_4.jpg,Red_Triangle_Grid_3.jpg,Purple_Circle_Dots_2.jpg,right,797.6650000055088,true,NA,true
mE8uQTfh,3ka7ijsnx9iy5qpdnesn7gsg38gpb3,3r2pkq87n0l4uf40saxe1jypce3im1,mE8uQTfh,2020-0188,2020-05-07,17:36:22,17:59:46,NA,incomplete,29,color,1,left,Blue_Star_Grid_4.jpg,Blue_Circle_Stripes_3.jpg,Purple_Star_Dots_1.jpg,left,682.9100000031758,true,NA,true
mE8uQTfh,3ka7ijsnx9iy5qpdnesn7gsg38gpb3,3r2pkq87n0l4uf40saxe1jypce3im1,mE8uQTfh,2020-0188,2020-05-07,17:36:22,17:59:46,NA,incomplete,30,color,1,right,Green_Circle_Grid_2.jpg,Purple_Circle_Chess_4.jpg,Green_Triangle_Stripes_1.jpg,right,1094.039999996312,true,NA,true
mE8uQTfh,3ka7ijsnx9iy5qpdnesn7gsg38gpb3,3r2pkq87n0l4uf40saxe1jypce3im1,mE8uQTfh,2020-0188,2020-05-07,17:36:22,17:59:46,NA,incomplete,31,color,0,left,Purple_Triangle_Chess_2.jpg,Purple_Star_Dots_1.jpg,Red_Triangle_Grid_4.jpg,left,739.8399999947287,true,NA,true
mE8uQTfh,3ka7ijsnx9iy5qpdnesn7gsg38gpb3,3r2pkq87n0l4uf40saxe1jypce3im1,mE8uQTfh,2020-0188,2020-05-07,17:36:22,17:59:46,NA,incomplete,32,color,1,right,Red_Triangle_Dots_2.jpg,Blue_Triangle_Grid_4.jpg,Red_Plus_Stripes_3.jpg,right,1433.7799999921117,true,NA,true
mE8uQTfh,3ka7ijsnx9iy5qpdnesn7gsg38gpb3,3r2pkq87n0l4uf40saxe1jypce3im1,mE8uQTfh,2020-0188,2020-05-07,17:36:22,17:59:46,NA,incomplete,33,color,1,right,Red_Triangle_Chess_2.jpg,Purple_Triangle_Stripes_3.jpg,Red_Plus_Grid_4.jpg,right,1002.8800000000047,true,NA,true
mE8uQTfh,3ka7ijsnx9iy5qpdnesn7gsg38gpb3,3r2pkq87n0l4uf40saxe1jypce3im1,mE8uQTfh,2020-0188,2020-05-07,17:36:22,17:59:46,NA,incomplete,34,color,0,left,Blue_Circle_Chess_1.jpg,Blue_Triangle_Stripes_2.jpg,Red_Circle_Grid_4.jpg,left,750.8450000023004,true,NA,true
mE8uQTfh,3ka7ijsnx9iy5qpdnesn7gsg38gpb3,3r2pkq87n0l4uf40saxe1jypce3im1,mE8uQTfh,2020-0188,2020-05-07,17:36:22,17:59:46,NA,incomplete,35,color,1,right,Purple_Star_Chess_2.jpg,Red_Star_Grid_3.jpg,Purple_Circle_Stripes_4.jpg,right,901.5499999950407,true,NA,true
mE8uQTfh,3ka7ijsnx9iy5qpdnesn7gsg38gpb3,3r2pkq87n0l4uf40saxe1jypce3im1,mE8uQTfh,2020-0188,2020-05-07,17:36:22,17:59:46,NA,incomplete,36,color,1,left,Green_Triangle_Grid_2.jpg,Green_Circle_Stripes_3.jpg,Red_Triangle_Dots_1.jpg,left,653.4850000025472,true,NA,true
mE8uQTfh,3ka7ijsnx9iy5qpdnesn7gsg38gpb3,3r2pkq87n0l4uf40saxe1jypce3im1,mE8uQTfh,2020-0188,2020-05-07,17:36:22,17:59:46,NA,incomplete,37,color,1,left,Purple_Star_Grid_2.jpg,Purple_Circle_Chess_1.jpg,Green_Star_Dots_4.jpg,left,728.5300000075949,true,NA,true
mE8uQTfh,3ka7ijsnx9iy5qpdnesn7gsg38gpb3,3r2pkq87n0l4uf40saxe1jypce3im1,mE8uQTfh,2020-0188,2020-05-07,17:36:22,17:59:46,NA,incomplete,38,color,1,left,Red_Plus_Chess_1.jpg,Red_Star_Stripes_4.jpg,Purple_Plus_Grid_2.jpg,left,807.3500000027707,true,NA,true
mE8uQTfh,3ka7ijsnx9iy5qpdnesn7gsg38gpb3,3r2pkq87n0l4uf40saxe1jypce3im1,mE8uQTfh,2020-0188,2020-05-07,17:36:22,17:59:46,NA,incomplete,39,color,1,left,Purple_Star_Grid_2.jpg,Purple_Triangle_Chess_1.jpg,Green_Star_Dots_3.jpg,left,770.3150000015739,true,NA,true
mE8uQTfh,3ka7ijsnx9iy5qpdnesn7gsg38gpb3,3r2pkq87n0l4uf40saxe1jypce3im1,mE8uQTfh,2020-0188,2020-05-07,17:36:22,17:59:46,NA,incomplete,0,shape,0,left,Red_Star_Grid_4.jpg,Green_Star_Chess_2.jpg,Red_Circle_Dots_3.jpg,right,711.9850000017323,false,high,false
mE8uQTfh,3ka7ijsnx9iy5qpdnesn7gsg38gpb3,3r2pkq87n0l4uf40saxe1jypce3im1,mE8uQTfh,2020-0188,2020-05-07,17:36:22,17:59:46,NA,incomplete,1,shape,1,left,Red_Plus_Dots_1.jpg,Purple_Plus_Grid_4.jpg,Red_Circle_Chess_3.jpg,right,543.935000008787,false,high,false
mE8uQTfh,3ka7ijsnx9iy5qpdnesn7gsg38gpb3,3r2pkq87n0l4uf40saxe1jypce3im1,mE8uQTfh,2020-0188,2020-05-07,17:36:22,17:59:46,NA,incomplete,2,shape,1,right,Red_Circle_Stripes_3.jpg,Red_Triangle_Chess_1.jpg,Blue_Circle_Dots_2.jpg,right,743.2300000073155,true,high,false
mE8uQTfh,3ka7ijsnx9iy5qpdnesn7gsg38gpb3,3r2pkq87n0l4uf40saxe1jypce3im1,mE8uQTfh,2020-0188,2020-05-07,17:36:22,17:59:46,NA,incomplete,3,shape,1,left,Blue_Star_Stripes_1.jpg,Purple_Star_Chess_3.jpg,Blue_Plus_Dots_2.jpg,left,871.0299999947893,true,high,false
mE8uQTfh,3ka7ijsnx9iy5qpdnesn7gsg38gpb3,3r2pkq87n0l4uf40saxe1jypce3im1,mE8uQTfh,2020-0188,2020-05-07,17:36:22,17:59:46,NA,incomplete,4,shape,0,left,Blue_Plus_Stripes_4.jpg,Purple_Plus_Dots_3.jpg,Blue_Star_Grid_1.jpg,left,983.1600000034086,true,high,false
mE8uQTfh,3ka7ijsnx9iy5qpdnesn7gsg38gpb3,3r2pkq87n0l4uf40saxe1jypce3im1,mE8uQTfh,2020-0188,2020-05-07,17:36:22,17:59:46,NA,incomplete,5,shape,0,left,Red_Star_Dots_4.jpg,Purple_Star_Stripes_3.jpg,Red_Plus_Chess_1.jpg,right,620.1900000014575,false,high,false
mE8uQTfh,3ka7ijsnx9iy5qpdnesn7gsg38gpb3,3r2pkq87n0l4uf40saxe1jypce3im1,mE8uQTfh,2020-0188,2020-05-07,17:36:22,17:59:46,NA,incomplete,6,shape,0,right,Purple_Triangle_Stripes_1.jpg,Purple_Plus_Grid_3.jpg,Green_Triangle_Chess_4.jpg,left,1047.115000008489,false,high,false
mE8uQTfh,3ka7ijsnx9iy5qpdnesn7gsg38gpb3,3r2pkq87n0l4uf40saxe1jypce3im1,mE8uQTfh,2020-0188,2020-05-07,17:36:22,17:59:46,NA,incomplete,7,shape,1,right,Purple_Star_Stripes_1.jpg,Purple_Triangle_Chess_4.jpg,Blue_Star_Dots_2.jpg,left,776.8549999891547,false,high,false
mE8uQTfh,3ka7ijsnx9iy5qpdnesn7gsg38gpb3,3r2pkq87n0l4uf40saxe1jypce3im1,mE8uQTfh,2020-0188,2020-05-07,17:36:22,17:59:46,NA,incomplete,8,shape,1,left,Red_Plus_Stripes_4.jpg,Blue_Plus_Dots_2.jpg,Red_Star_Grid_3.jpg,right,741.8349999934435,false,high,false
mE8uQTfh,3ka7ijsnx9iy5qpdnesn7gsg38gpb3,3r2pkq87n0l4uf40saxe1jypce3im1,mE8uQTfh,2020-0188,2020-05-07,17:36:22,17:59:46,NA,incomplete,9,shape,1,left,Blue_Circle_Stripes_4.jpg,Purple_Circle_Dots_2.jpg,Blue_Star_Grid_3.jpg,left,925.6350000068778,true,high,false
mE8uQTfh,3ka7ijsnx9iy5qpdnesn7gsg38gpb3,3r2pkq87n0l4uf40saxe1jypce3im1,mE8uQTfh,2020-0188,2020-05-07,17:36:22,17:59:46,NA,incomplete,10,color,1,right,Green_Star_Stripes_3.jpg,Blue_Star_Grid_2.jpg,Green_Circle_Chess_4.jpg,left,900.1400000124704,false,high,false
mE8uQTfh,3ka7ijsnx9iy5qpdnesn7gsg38gpb3,3r2pkq87n0l4uf40saxe1jypce3im1,mE8uQTfh,2020-0188,2020-05-07,17:36:22,17:59:46,NA,incomplete,11,color,1,left,Blue_Plus_Grid_2.jpg,Blue_Triangle_Dots_1.jpg,Green_Plus_Stripes_4.jpg,left,867.5500000099419,true,high,false
mE8uQTfh,3ka7ijsnx9iy5qpdnesn7gsg38gpb3,3r2pkq87n0l4uf40saxe1jypce3im1,mE8uQTfh,2020-0188,2020-05-07,17:36:22,17:59:46,NA,incomplete,12,color,1,right,Purple_Plus_Stripes_4.jpg,Green_Plus_Grid_1.jpg,Purple_Circle_Dots_3.jpg,right,557.9350000043632,true,high,false
mE8uQTfh,3ka7ijsnx9iy5qpdnesn7gsg38gpb3,3r2pkq87n0l4uf40saxe1jypce3im1,mE8uQTfh,2020-0188,2020-05-07,17:36:22,17:59:46,NA,incomplete,13,color,1,left,Blue_Circle_Grid_1.jpg,Blue_Triangle_Chess_4.jpg,Green_Circle_Stripes_2.jpg,right,893.1549999979325,false,high,false
mE8uQTfh,3ka7ijsnx9iy5qpdnesn7gsg38gpb3,3r2pkq87n0l4uf40saxe1jypce3im1,mE8uQTfh,2020-0188,2020-05-07,17:36:22,17:59:46,NA,incomplete,14,color,1,left,Green_Circle_Grid_3.jpg,Green_Star_Chess_4.jpg,Red_Circle_Stripes_2.jpg,right,1604.445000004489,false,high,false
mE8uQTfh,3ka7ijsnx9iy5qpdnesn7gsg38gpb3,3r2pkq87n0l4uf40saxe1jypce3im1,mE8uQTfh,2020-0188,2020-05-07,17:36:22,17:59:46,NA,incomplete,15,color,1,left,Blue_Plus_Chess_2.jpg,Blue_Circle_Dots_4.jpg,Green_Plus_Stripes_3.jpg,left,741.9999999983702,true,high,false
mE8uQTfh,3ka7ijsnx9iy5qpdnesn7gsg38gpb3,3r2pkq87n0l4uf40saxe1jypce3im1,mE8uQTfh,2020-0188,2020-05-07,17:36:22,17:59:46,NA,incomplete,16,color,1,left,Red_Star_Stripes_1.jpg,Red_Plus_Grid_4.jpg,Purple_Star_Dots_2.jpg,left,836.5449999982957,true,high,false
mE8uQTfh,3ka7ijsnx9iy5qpdnesn7gsg38gpb3,3r2pkq87n0l4uf40saxe1jypce3im1,mE8uQTfh,2020-0188,2020-05-07,17:36:22,17:59:46,NA,incomplete,17,color,1,left,Purple_Triangle_Grid_1.jpg,Purple_Star_Chess_3.jpg,Red_Triangle_Dots_2.jpg,right,807.3949999961769,false,high,false
mE8uQTfh,3ka7ijsnx9iy5qpdnesn7gsg38gpb3,3r2pkq87n0l4uf40saxe1jypce3im1,mE8uQTfh,2020-0188,2020-05-07,17:36:22,17:59:46,NA,incomplete,18,color,1,left,Green_Star_Dots_1.jpg,Green_Circle_Grid_3.jpg,Purple_Star_Chess_2.jpg,right,930.7950000074925,false,high,false
mE8uQTfh,3ka7ijsnx9iy5qpdnesn7gsg38gpb3,3r2pkq87n0l4uf40saxe1jypce3im1,mE8uQTfh,2020-0188,2020-05-07,17:36:22,17:59:46,NA,incomplete,19,color,1,left,Green_Star_Grid_4.jpg,Green_Circle_Chess_3.jpg,Red_Star_Dots_1.jpg,left,1122.4700000020675,true,high,false
mE8uQTfh,3ka7ijsnx9iy5qpdnesn7gsg38gpb3,3r2pkq87n0l4uf40saxe1jypce3im1,mE8uQTfh,2020-0188,2020-05-07,17:36:22,17:59:46,NA,incomplete,20,shape,1,right,Blue_Plus_Grid_2.jpg,Blue_Star_Chess_3.jpg,Green_Plus_Stripes_4.jpg,left,671.5149999945424,false,high,false
mE8uQTfh,3ka7ijsnx9iy5qpdnesn7gsg38gpb3,3r2pkq87n0l4uf40saxe1jypce3im1,mE8uQTfh,2020-0188,2020-05-07,17:36:22,17:59:46,NA,incomplete,21,shape,1,left,Green_Circle_Grid_4.jpg,Purple_Circle_Stripes_3.jpg,Green_Plus_Chess_2.jpg,left,729.6199999982491,true,high,false
mE8uQTfh,3ka7ijsnx9iy5qpdnesn7gsg38gpb3,3r2pkq87n0l4uf40saxe1jypce3im1,mE8uQTfh,2020-0188,2020-05-07,17:36:22,17:59:46,NA,incomplete,22,shape,1,left,Green_Star_Grid_3.jpg,Blue_Star_Stripes_1.jpg,Green_Circle_Chess_4.jpg,left,1096.960000009858,true,high,false
mE8uQTfh,3ka7ijsnx9iy5qpdnesn7gsg38gpb3,3r2pkq87n0l4uf40saxe1jypce3im1,mE8uQTfh,2020-0188,2020-05-07,17:36:22,17:59:46,NA,incomplete,23,shape,1,right,Red_Circle_Dots_3.jpg,Red_Star_Chess_2.jpg,Purple_Circle_Stripes_1.jpg,right,872.4899999942863,true,high,false
mE8uQTfh,3ka7ijsnx9iy5qpdnesn7gsg38gpb3,3r2pkq87n0l4uf40saxe1jypce3im1,mE8uQTfh,2020-0188,2020-05-07,17:36:22,17:59:46,NA,incomplete,24,shape,0,right,Red_Star_Stripes_4.jpg,Red_Plus_Grid_2.jpg,Green_Star_Dots_1.jpg,right,1082.1750000031898,true,high,false
mE8uQTfh,3ka7ijsnx9iy5qpdnesn7gsg38gpb3,3r2pkq87n0l4uf40saxe1jypce3im1,mE8uQTfh,2020-0188,2020-05-07,17:36:22,17:59:46,NA,incomplete,25,shape,1,right,Blue_Plus_Grid_1.jpg,Blue_Triangle_Chess_4.jpg,Red_Plus_Stripes_3.jpg,left,1353.2699999923352,false,high,false
mE8uQTfh,3ka7ijsnx9iy5qpdnesn7gsg38gpb3,3r2pkq87n0l4uf40saxe1jypce3im1,mE8uQTfh,2020-0188,2020-05-07,17:36:22,17:59:46,NA,incomplete,26,shape,0,left,Blue_Star_Grid_1.jpg,Purple_Star_Chess_2.jpg,Blue_Circle_Stripes_4.jpg,left,773.4950000012759,true,high,false
mE8uQTfh,3ka7ijsnx9iy5qpdnesn7gsg38gpb3,3r2pkq87n0l4uf40saxe1jypce3im1,mE8uQTfh,2020-0188,2020-05-07,17:36:22,17:59:46,NA,incomplete,27,shape,1,right,Purple_Plus_Grid_2.jpg,Purple_Star_Chess_3.jpg,Red_Plus_Dots_4.jpg,left,706.2850000074832,false,high,false
mE8uQTfh,3ka7ijsnx9iy5qpdnesn7gsg38gpb3,3r2pkq87n0l4uf40saxe1jypce3im1,mE8uQTfh,2020-0188,2020-05-07,17:36:22,17:59:46,NA,incomplete,28,shape,1,right,Purple_Circle_Chess_4.jpg,Purple_Plus_Dots_2.jpg,Red_Circle_Stripes_1.jpg,right,826.7500000074506,true,high,false
mE8uQTfh,3ka7ijsnx9iy5qpdnesn7gsg38gpb3,3r2pkq87n0l4uf40saxe1jypce3im1,mE8uQTfh,2020-0188,2020-05-07,17:36:22,17:59:46,NA,incomplete,29,shape,1,left,Green_Star_Dots_3.jpg,Purple_Star_Grid_2.jpg,Green_Circle_Stripes_4.jpg,right,869.5050000096671,false,high,false
mE8uQTfh,3ka7ijsnx9iy5qpdnesn7gsg38gpb3,3r2pkq87n0l4uf40saxe1jypce3im1,mE8uQTfh,2020-0188,2020-05-07,17:36:22,17:59:46,NA,incomplete,30,color,1,left,Green_Triangle_Stripes_3.jpg,Green_Circle_Dots_4.jpg,Purple_Triangle_Grid_1.jpg,right,903.5250000015367,false,high,false
mE8uQTfh,3ka7ijsnx9iy5qpdnesn7gsg38gpb3,3r2pkq87n0l4uf40saxe1jypce3im1,mE8uQTfh,2020-0188,2020-05-07,17:36:22,17:59:46,NA,incomplete,31,color,0,right,Red_Triangle_Dots_2.jpg,Green_Triangle_Chess_4.jpg,Red_Plus_Grid_1.jpg,right,783.3300000056624,true,high,false
mE8uQTfh,3ka7ijsnx9iy5qpdnesn7gsg38gpb3,3r2pkq87n0l4uf40saxe1jypce3im1,mE8uQTfh,2020-0188,2020-05-07,17:36:22,17:59:46,NA,incomplete,32,color,1,left,Blue_Triangle_Chess_2.jpg,Blue_Circle_Dots_4.jpg,Red_Triangle_Grid_3.jpg,left,749.2400000046473,true,high,false
mE8uQTfh,3ka7ijsnx9iy5qpdnesn7gsg38gpb3,3r2pkq87n0l4uf40saxe1jypce3im1,mE8uQTfh,2020-0188,2020-05-07,17:36:22,17:59:46,NA,incomplete,33,color,1,right,Green_Star_Stripes_3.jpg,Purple_Star_Chess_2.jpg,Green_Circle_Grid_4.jpg,right,1219.6050000056857,true,high,false
mE8uQTfh,3ka7ijsnx9iy5qpdnesn7gsg38gpb3,3r2pkq87n0l4uf40saxe1jypce3im1,mE8uQTfh,2020-0188,2020-05-07,17:36:22,17:59:46,NA,incomplete,34,color,1,left,Purple_Star_Stripes_2.jpg,Purple_Plus_Chess_4.jpg,Green_Star_Grid_3.jpg,left,814.3050000071526,true,high,false
mE8uQTfh,3ka7ijsnx9iy5qpdnesn7gsg38gpb3,3r2pkq87n0l4uf40saxe1jypce3im1,mE8uQTfh,2020-0188,2020-05-07,17:36:22,17:59:46,NA,incomplete,35,color,0,left,Purple_Star_Grid_1.jpg,Purple_Triangle_Stripes_3.jpg,Red_Star_Chess_4.jpg,left,801.4750000002095,true,high,false
mE8uQTfh,3ka7ijsnx9iy5qpdnesn7gsg38gpb3,3r2pkq87n0l4uf40saxe1jypce3im1,mE8uQTfh,2020-0188,2020-05-07,17:36:22,17:59:46,NA,incomplete,36,color,1,right,Green_Triangle_Chess_3.jpg,Blue_Triangle_Grid_4.jpg,Green_Star_Stripes_2.jpg,left,878.0299999925774,false,high,false
mE8uQTfh,3ka7ijsnx9iy5qpdnesn7gsg38gpb3,3r2pkq87n0l4uf40saxe1jypce3im1,mE8uQTfh,2020-0188,2020-05-07,17:36:22,17:59:46,NA,incomplete,37,color,1,right,Green_Triangle_Chess_3.jpg,Purple_Triangle_Dots_1.jpg,Green_Circle_Stripes_4.jpg,right,710.2750000049127,true,high,false
mE8uQTfh,3ka7ijsnx9iy5qpdnesn7gsg38gpb3,3r2pkq87n0l4uf40saxe1jypce3im1,mE8uQTfh,2020-0188,2020-05-07,17:36:22,17:59:46,NA,incomplete,38,color,1,right,Blue_Star_Dots_2.jpg,Red_Star_Chess_4.jpg,Blue_Plus_Grid_1.jpg,left,1119.4249999971362,false,high,false
mE8uQTfh,3ka7ijsnx9iy5qpdnesn7gsg38gpb3,3r2pkq87n0l4uf40saxe1jypce3im1,mE8uQTfh,2020-0188,2020-05-07,17:36:22,17:59:46,NA,incomplete,39,color,0,left,Blue_Triangle_Dots_1.jpg,Blue_Star_Stripes_2.jpg,Purple_Triangle_Grid_4.jpg,left,686.9949999963865,true,high,false
mE8uQTfh,3ka7ijsnx9iy5qpdnesn7gsg38gpb3,3r2pkq87n0l4uf40saxe1jypce3im1,mE8uQTfh,2020-0188,2020-05-07,17:36:22,17:59:46,NA,incomplete,40,shape,1,left,Blue_Star_Grid_4.jpg,Purple_Star_Dots_1.jpg,Blue_Circle_Stripes_2.jpg,left,1207.3200000013458,true,high,false
mE8uQTfh,3ka7ijsnx9iy5qpdnesn7gsg38gpb3,3r2pkq87n0l4uf40saxe1jypce3im1,mE8uQTfh,2020-0188,2020-05-07,17:36:22,17:59:46,NA,incomplete,41,shape,1,left,Red_Triangle_Chess_1.jpg,Green_Triangle_Grid_3.jpg,Red_Plus_Dots_4.jpg,right,1247.3949999985052,false,high,false
mE8uQTfh,3ka7ijsnx9iy5qpdnesn7gsg38gpb3,3r2pkq87n0l4uf40saxe1jypce3im1,mE8uQTfh,2020-0188,2020-05-07,17:36:22,17:59:46,NA,incomplete,42,shape,1,left,Blue_Plus_Dots_4.jpg,Green_Plus_Grid_3.jpg,Blue_Circle_Stripes_2.jpg,right,1217.1399999933783,false,high,false
mE8uQTfh,3ka7ijsnx9iy5qpdnesn7gsg38gpb3,3r2pkq87n0l4uf40saxe1jypce3im1,mE8uQTfh,2020-0188,2020-05-07,17:36:22,17:59:46,NA,incomplete,43,shape,1,left,Purple_Triangle_Stripes_4.jpg,Green_Triangle_Dots_1.jpg,Purple_Plus_Chess_2.jpg,left,908.3649999956833,true,high,false
mE8uQTfh,3ka7ijsnx9iy5qpdnesn7gsg38gpb3,3r2pkq87n0l4uf40saxe1jypce3im1,mE8uQTfh,2020-0188,2020-05-07,17:36:22,17:59:46,NA,incomplete,44,shape,1,left,Green_Triangle_Dots_1.jpg,Red_Triangle_Chess_3.jpg,Green_Star_Grid_2.jpg,left,859.3350000010105,true,high,false
mE8uQTfh,3ka7ijsnx9iy5qpdnesn7gsg38gpb3,3r2pkq87n0l4uf40saxe1jypce3im1,mE8uQTfh,2020-0188,2020-05-07,17:36:22,17:59:46,NA,incomplete,45,shape,1,left,Red_Star_Chess_3.jpg,Purple_Star_Dots_4.jpg,Red_Plus_Stripes_1.jpg,left,999.4450000085635,true,high,false
mE8uQTfh,3ka7ijsnx9iy5qpdnesn7gsg38gpb3,3r2pkq87n0l4uf40saxe1jypce3im1,mE8uQTfh,2020-0188,2020-05-07,17:36:22,17:59:46,NA,incomplete,46,shape,1,left,Green_Plus_Grid_3.jpg,Red_Plus_Stripes_2.jpg,Green_Triangle_Dots_1.jpg,left,800.4999999975553,true,high,false
mE8uQTfh,3ka7ijsnx9iy5qpdnesn7gsg38gpb3,3r2pkq87n0l4uf40saxe1jypce3im1,mE8uQTfh,2020-0188,2020-05-07,17:36:22,17:59:46,NA,incomplete,47,shape,0,right,Red_Triangle_Chess_1.jpg,Red_Circle_Dots_4.jpg,Blue_Triangle_Grid_3.jpg,right,941.2949999968987,true,high,false
mE8uQTfh,3ka7ijsnx9iy5qpdnesn7gsg38gpb3,3r2pkq87n0l4uf40saxe1jypce3im1,mE8uQTfh,2020-0188,2020-05-07,17:36:22,17:59:46,NA,incomplete,48,shape,1,right,Green_Star_Dots_3.jpg,Green_Plus_Stripes_2.jpg,Purple_Star_Grid_4.jpg,left,675.1799999910872,false,high,false
mE8uQTfh,3ka7ijsnx9iy5qpdnesn7gsg38gpb3,3r2pkq87n0l4uf40saxe1jypce3im1,mE8uQTfh,2020-0188,2020-05-07,17:36:22,17:59:46,NA,incomplete,49,shape,1,right,Red_Star_Grid_3.jpg,Red_Triangle_Stripes_4.jpg,Purple_Star_Dots_2.jpg,right,892.4050000059651,true,high,false
mE8uQTfh,3ka7ijsnx9iy5qpdnesn7gsg38gpb3,3r2pkq87n0l4uf40saxe1jypce3im1,mE8uQTfh,2020-0188,2020-05-07,17:36:22,17:59:46,NA,incomplete,50,color,1,left,Red_Plus_Dots_3.jpg,Red_Circle_Stripes_2.jpg,Green_Plus_Chess_4.jpg,right,1092.7500000107102,false,high,false
mE8uQTfh,3ka7ijsnx9iy5qpdnesn7gsg38gpb3,3r2pkq87n0l4uf40saxe1jypce3im1,mE8uQTfh,2020-0188,2020-05-07,17:36:22,17:59:46,NA,incomplete,51,color,0,right,Blue_Star_Chess_4.jpg,Purple_Star_Grid_3.jpg,Blue_Plus_Stripes_2.jpg,right,891.8850000045495,true,high,false
mE8uQTfh,3ka7ijsnx9iy5qpdnesn7gsg38gpb3,3r2pkq87n0l4uf40saxe1jypce3im1,mE8uQTfh,2020-0188,2020-05-07,17:36:22,17:59:46,NA,incomplete,52,color,0,left,Blue_Star_Stripes_3.jpg,Blue_Triangle_Dots_2.jpg,Red_Star_Chess_1.jpg,left,837.1800000022631,true,high,false
mE8uQTfh,3ka7ijsnx9iy5qpdnesn7gsg38gpb3,3r2pkq87n0l4uf40saxe1jypce3im1,mE8uQTfh,2020-0188,2020-05-07,17:36:22,17:59:46,NA,incomplete,53,color,1,left,Purple_Triangle_Dots_1.jpg,Purple_Plus_Chess_4.jpg,Green_Triangle_Grid_2.jpg,right,863.8599999976577,false,high,false
mE8uQTfh,3ka7ijsnx9iy5qpdnesn7gsg38gpb3,3r2pkq87n0l4uf40saxe1jypce3im1,mE8uQTfh,2020-0188,2020-05-07,17:36:22,17:59:46,NA,incomplete,54,color,1,right,Red_Plus_Stripes_1.jpg,Blue_Plus_Dots_2.jpg,Red_Star_Chess_3.jpg,left,768.3350000006612,false,high,false
mE8uQTfh,3ka7ijsnx9iy5qpdnesn7gsg38gpb3,3r2pkq87n0l4uf40saxe1jypce3im1,mE8uQTfh,2020-0188,2020-05-07,17:36:22,17:59:46,NA,incomplete,55,color,1,left,Purple_Star_Stripes_1.jpg,Purple_Plus_Grid_3.jpg,Green_Star_Chess_2.jpg,right,942.670000004,false,high,false
mE8uQTfh,3ka7ijsnx9iy5qpdnesn7gsg38gpb3,3r2pkq87n0l4uf40saxe1jypce3im1,mE8uQTfh,2020-0188,2020-05-07,17:36:22,17:59:46,NA,incomplete,56,color,1,right,Green_Star_Dots_4.jpg,Purple_Star_Chess_1.jpg,Green_Plus_Grid_3.jpg,right,1115.655000001425,true,high,false
mE8uQTfh,3ka7ijsnx9iy5qpdnesn7gsg38gpb3,3r2pkq87n0l4uf40saxe1jypce3im1,mE8uQTfh,2020-0188,2020-05-07,17:36:22,17:59:46,NA,incomplete,57,color,1,right,Red_Plus_Dots_1.jpg,Purple_Plus_Stripes_4.jpg,Red_Triangle_Grid_3.jpg,left,1164.2500000016298,false,high,false
mE8uQTfh,3ka7ijsnx9iy5qpdnesn7gsg38gpb3,3r2pkq87n0l4uf40saxe1jypce3im1,mE8uQTfh,2020-0188,2020-05-07,17:36:22,17:59:46,NA,incomplete,58,color,0,right,Purple_Star_Stripes_1.jpg,Blue_Star_Dots_3.jpg,Purple_Triangle_Chess_4.jpg,left,1479.684999998426,false,high,false
mE8uQTfh,3ka7ijsnx9iy5qpdnesn7gsg38gpb3,3r2pkq87n0l4uf40saxe1jypce3im1,mE8uQTfh,2020-0188,2020-05-07,17:36:22,17:59:46,NA,incomplete,59,color,0,right,Green_Star_Dots_1.jpg,Red_Star_Grid_3.jpg,Green_Triangle_Stripes_2.jpg,left,1021.9450000004144,false,high,false
mE8uQTfh,3ka7ijsnx9iy5qpdnesn7gsg38gpb3,3r2pkq87n0l4uf40saxe1jypce3im1,mE8uQTfh,2020-0188,2020-05-07,17:36:22,17:59:46,NA,incomplete,60,shape,1,right,Blue_Circle_Dots_2.jpg,Blue_Star_Grid_4.jpg,Red_Circle_Chess_3.jpg,left,833.2550000050105,false,high,false
mE8uQTfh,3ka7ijsnx9iy5qpdnesn7gsg38gpb3,3r2pkq87n0l4uf40saxe1jypce3im1,mE8uQTfh,2020-0188,2020-05-07,17:36:22,17:59:46,NA,incomplete,61,shape,1,right,Purple_Star_Dots_1.jpg,Purple_Circle_Stripes_4.jpg,Green_Star_Chess_3.jpg,right,419.289999990724,true,high,false
mE8uQTfh,3ka7ijsnx9iy5qpdnesn7gsg38gpb3,3r2pkq87n0l4uf40saxe1jypce3im1,mE8uQTfh,2020-0188,2020-05-07,17:36:22,17:59:46,NA,incomplete,62,shape,1,left,Red_Triangle_Stripes_2.jpg,Blue_Triangle_Dots_1.jpg,Red_Star_Grid_4.jpg,none,0,false,high,false
mE8uQTfh,3ka7ijsnx9iy5qpdnesn7gsg38gpb3,3r2pkq87n0l4uf40saxe1jypce3im1,mE8uQTfh,2020-0188,2020-05-07,17:36:22,17:59:46,NA,incomplete,63,shape,1,left,Blue_Circle_Chess_4.jpg,Red_Circle_Stripes_2.jpg,Blue_Plus_Grid_1.jpg,right,1531.0299999982817,false,high,false
mE8uQTfh,3ka7ijsnx9iy5qpdnesn7gsg38gpb3,3r2pkq87n0l4uf40saxe1jypce3im1,mE8uQTfh,2020-0188,2020-05-07,17:36:22,17:59:46,NA,incomplete,64,shape,0,left,Blue_Circle_Grid_3.jpg,Green_Circle_Chess_2.jpg,Blue_Star_Dots_1.jpg,left,712.8599999996368,true,high,false
mE8uQTfh,3ka7ijsnx9iy5qpdnesn7gsg38gpb3,3r2pkq87n0l4uf40saxe1jypce3im1,mE8uQTfh,2020-0188,2020-05-07,17:36:22,17:59:46,NA,incomplete,65,shape,1,left,Purple_Triangle_Grid_4.jpg,Red_Triangle_Stripes_2.jpg,Purple_Plus_Chess_3.jpg,right,802.7199999924051,false,high,false
mE8uQTfh,3ka7ijsnx9iy5qpdnesn7gsg38gpb3,3r2pkq87n0l4uf40saxe1jypce3im1,mE8uQTfh,2020-0188,2020-05-07,17:36:22,17:59:46,NA,incomplete,66,shape,1,left,Red_Triangle_Grid_4.jpg,Purple_Triangle_Chess_3.jpg,Red_Star_Dots_1.jpg,left,748.2149999996182,true,high,false
mE8uQTfh,3ka7ijsnx9iy5qpdnesn7gsg38gpb3,3r2pkq87n0l4uf40saxe1jypce3im1,mE8uQTfh,2020-0188,2020-05-07,17:36:22,17:59:46,NA,incomplete,67,shape,1,left,Blue_Plus_Dots_4.jpg,Red_Plus_Stripes_2.jpg,Blue_Circle_Chess_3.jpg,left,707.2150000021793,true,high,false
mE8uQTfh,3ka7ijsnx9iy5qpdnesn7gsg38gpb3,3r2pkq87n0l4uf40saxe1jypce3im1,mE8uQTfh,2020-0188,2020-05-07,17:36:22,17:59:46,NA,incomplete,68,shape,1,right,Red_Circle_Dots_2.jpg,Red_Triangle_Grid_3.jpg,Blue_Circle_Stripes_1.jpg,right,644.1549999872223,true,high,false
mE8uQTfh,3ka7ijsnx9iy5qpdnesn7gsg38gpb3,3r2pkq87n0l4uf40saxe1jypce3im1,mE8uQTfh,2020-0188,2020-05-07,17:36:22,17:59:46,NA,incomplete,69,shape,1,right,Blue_Plus_Chess_2.jpg,Blue_Star_Stripes_1.jpg,Purple_Plus_Grid_3.jpg,right,894.109999993816,true,high,false
mE8uQTfh,3ka7ijsnx9iy5qpdnesn7gsg38gpb3,3r2pkq87n0l4uf40saxe1jypce3im1,mE8uQTfh,2020-0188,2020-05-07,17:36:22,17:59:46,NA,incomplete,70,color,1,right,Blue_Circle_Grid_2.jpg,Green_Circle_Chess_4.jpg,Blue_Star_Stripes_1.jpg,left,807.1950000012293,false,high,false
mE8uQTfh,3ka7ijsnx9iy5qpdnesn7gsg38gpb3,3r2pkq87n0l4uf40saxe1jypce3im1,mE8uQTfh,2020-0188,2020-05-07,17:36:22,17:59:46,NA,incomplete,71,color,1,left,Purple_Circle_Stripes_2.jpg,Purple_Plus_Dots_4.jpg,Green_Circle_Grid_3.jpg,right,737.5400000018999,false,high,false
mE8uQTfh,3ka7ijsnx9iy5qpdnesn7gsg38gpb3,3r2pkq87n0l4uf40saxe1jypce3im1,mE8uQTfh,2020-0188,2020-05-07,17:36:22,17:59:46,NA,incomplete,72,color,1,right,Blue_Plus_Grid_2.jpg,Red_Plus_Stripes_4.jpg,Blue_Star_Chess_1.jpg,right,921.0699999966891,true,high,false
mE8uQTfh,3ka7ijsnx9iy5qpdnesn7gsg38gpb3,3r2pkq87n0l4uf40saxe1jypce3im1,mE8uQTfh,2020-0188,2020-05-07,17:36:22,17:59:46,NA,incomplete,73,color,1,right,Blue_Circle_Chess_3.jpg,Green_Circle_Stripes_1.jpg,Blue_Star_Grid_2.jpg,right,703.5150000010617,true,high,false
mE8uQTfh,3ka7ijsnx9iy5qpdnesn7gsg38gpb3,3r2pkq87n0l4uf40saxe1jypce3im1,mE8uQTfh,2020-0188,2020-05-07,17:36:22,17:59:46,NA,incomplete,74,color,0,right,Green_Star_Grid_4.jpg,Purple_Star_Dots_2.jpg,Green_Triangle_Stripes_3.jpg,right,664.1650000092341,true,high,false
mE8uQTfh,3ka7ijsnx9iy5qpdnesn7gsg38gpb3,3r2pkq87n0l4uf40saxe1jypce3im1,mE8uQTfh,2020-0188,2020-05-07,17:36:22,17:59:46,NA,incomplete,75,color,0,left,Green_Star_Dots_4.jpg,Green_Circle_Grid_1.jpg,Red_Star_Chess_2.jpg,left,393.7000000005355,true,high,false
mE8uQTfh,3ka7ijsnx9iy5qpdnesn7gsg38gpb3,3r2pkq87n0l4uf40saxe1jypce3im1,mE8uQTfh,2020-0188,2020-05-07,17:36:22,17:59:46,NA,incomplete,76,color,1,left,Green_Plus_Grid_3.jpg,Green_Star_Stripes_2.jpg,Red_Plus_Dots_4.jpg,left,680.4850000044098,true,high,false
mE8uQTfh,3ka7ijsnx9iy5qpdnesn7gsg38gpb3,3r2pkq87n0l4uf40saxe1jypce3im1,mE8uQTfh,2020-0188,2020-05-07,17:36:22,17:59:46,NA,incomplete,77,color,1,right,Purple_Star_Grid_3.jpg,Green_Star_Dots_1.jpg,Purple_Plus_Stripes_4.jpg,right,610.8399999939138,true,high,false
mE8uQTfh,3ka7ijsnx9iy5qpdnesn7gsg38gpb3,3r2pkq87n0l4uf40saxe1jypce3im1,mE8uQTfh,2020-0188,2020-05-07,17:36:22,17:59:46,NA,incomplete,78,color,1,left,Green_Plus_Stripes_3.jpg,Green_Star_Grid_2.jpg,Red_Plus_Chess_4.jpg,left,742.4449999962235,true,high,false
mE8uQTfh,3ka7ijsnx9iy5qpdnesn7gsg38gpb3,3r2pkq87n0l4uf40saxe1jypce3im1,mE8uQTfh,2020-0188,2020-05-07,17:36:22,17:59:46,NA,incomplete,79,color,1,left,Purple_Circle_Stripes_4.jpg,Purple_Star_Grid_1.jpg,Blue_Circle_Chess_2.jpg,left,1148.7550000019837,true,high,false
mE8uQTfh,3ka7ijsnx9iy5qpdnesn7gsg38gpb3,3r2pkq87n0l4uf40saxe1jypce3im1,mE8uQTfh,2020-0188,2020-05-07,17:36:22,17:59:46,NA,incomplete,80,shape,1,left,Purple_Star_Dots_3.jpg,Green_Star_Chess_1.jpg,Purple_Plus_Stripes_4.jpg,right,617.9700000066077,false,high,false
mE8uQTfh,3ka7ijsnx9iy5qpdnesn7gsg38gpb3,3r2pkq87n0l4uf40saxe1jypce3im1,mE8uQTfh,2020-0188,2020-05-07,17:36:22,17:59:46,NA,incomplete,81,shape,1,left,Blue_Triangle_Stripes_4.jpg,Purple_Triangle_Dots_2.jpg,Blue_Star_Grid_1.jpg,left,1070.3799999901094,true,high,false
mE8uQTfh,3ka7ijsnx9iy5qpdnesn7gsg38gpb3,3r2pkq87n0l4uf40saxe1jypce3im1,mE8uQTfh,2020-0188,2020-05-07,17:36:22,17:59:46,NA,incomplete,82,shape,1,right,Red_Plus_Stripes_2.jpg,Red_Star_Dots_3.jpg,Green_Plus_Chess_4.jpg,right,840.5400000046939,true,high,false
mE8uQTfh,3ka7ijsnx9iy5qpdnesn7gsg38gpb3,3r2pkq87n0l4uf40saxe1jypce3im1,mE8uQTfh,2020-0188,2020-05-07,17:36:22,17:59:46,NA,incomplete,83,shape,1,left,Blue_Star_Chess_1.jpg,Green_Star_Stripes_4.jpg,Blue_Triangle_Grid_2.jpg,left,801.5149999991991,true,high,false
mE8uQTfh,3ka7ijsnx9iy5qpdnesn7gsg38gpb3,3r2pkq87n0l4uf40saxe1jypce3im1,mE8uQTfh,2020-0188,2020-05-07,17:36:22,17:59:46,NA,incomplete,84,shape,0,left,Purple_Star_Stripes_4.jpg,Blue_Star_Dots_3.jpg,Purple_Plus_Chess_2.jpg,left,710.0150000042049,true,high,false
mE8uQTfh,3ka7ijsnx9iy5qpdnesn7gsg38gpb3,3r2pkq87n0l4uf40saxe1jypce3im1,mE8uQTfh,2020-0188,2020-05-07,17:36:22,17:59:46,NA,incomplete,85,shape,1,right,Purple_Plus_Chess_3.jpg,Purple_Star_Dots_2.jpg,Red_Plus_Grid_4.jpg,left,678.475000007893,false,high,false
mE8uQTfh,3ka7ijsnx9iy5qpdnesn7gsg38gpb3,3r2pkq87n0l4uf40saxe1jypce3im1,mE8uQTfh,2020-0188,2020-05-07,17:36:22,17:59:46,NA,incomplete,86,shape,1,right,Green_Circle_Dots_1.jpg,Green_Star_Stripes_3.jpg,Purple_Circle_Grid_2.jpg,left,903.9449999982025,false,high,false
mE8uQTfh,3ka7ijsnx9iy5qpdnesn7gsg38gpb3,3r2pkq87n0l4uf40saxe1jypce3im1,mE8uQTfh,2020-0188,2020-05-07,17:36:22,17:59:46,NA,incomplete,87,shape,0,left,Blue_Triangle_Dots_3.jpg,Red_Triangle_Grid_4.jpg,Blue_Star_Stripes_2.jpg,left,761.049999986426,true,high,false
mE8uQTfh,3ka7ijsnx9iy5qpdnesn7gsg38gpb3,3r2pkq87n0l4uf40saxe1jypce3im1,mE8uQTfh,2020-0188,2020-05-07,17:36:22,17:59:46,NA,incomplete,88,shape,1,right,Green_Star_Stripes_1.jpg,Green_Circle_Chess_4.jpg,Red_Star_Grid_2.jpg,left,708.505000002333,false,high,false
mE8uQTfh,3ka7ijsnx9iy5qpdnesn7gsg38gpb3,3r2pkq87n0l4uf40saxe1jypce3im1,mE8uQTfh,2020-0188,2020-05-07,17:36:22,17:59:46,NA,incomplete,89,shape,1,right,Purple_Plus_Stripes_1.jpg,Purple_Circle_Grid_2.jpg,Red_Plus_Dots_3.jpg,right,860.9900000010384,true,high,false
mE8uQTfh,3ka7ijsnx9iy5qpdnesn7gsg38gpb3,3r2pkq87n0l4uf40saxe1jypce3im1,mE8uQTfh,2020-0188,2020-05-07,17:36:22,17:59:46,NA,incomplete,90,color,1,right,Blue_Plus_Stripes_2.jpg,Green_Plus_Grid_4.jpg,Blue_Star_Chess_1.jpg,right,710.4949999920791,true,high,false
mE8uQTfh,3ka7ijsnx9iy5qpdnesn7gsg38gpb3,3r2pkq87n0l4uf40saxe1jypce3im1,mE8uQTfh,2020-0188,2020-05-07,17:36:22,17:59:46,NA,incomplete,91,color,1,right,Purple_Circle_Chess_1.jpg,Red_Circle_Dots_3.jpg,Purple_Star_Stripes_4.jpg,left,871.9500000006519,false,high,false
mE8uQTfh,3ka7ijsnx9iy5qpdnesn7gsg38gpb3,3r2pkq87n0l4uf40saxe1jypce3im1,mE8uQTfh,2020-0188,2020-05-07,17:36:22,17:59:46,NA,incomplete,92,color,0,right,Green_Circle_Grid_4.jpg,Purple_Circle_Dots_1.jpg,Green_Plus_Stripes_3.jpg,right,599.8950000066543,true,high,false
mE8uQTfh,3ka7ijsnx9iy5qpdnesn7gsg38gpb3,3r2pkq87n0l4uf40saxe1jypce3im1,mE8uQTfh,2020-0188,2020-05-07,17:36:22,17:59:46,NA,incomplete,93,color,1,right,Purple_Circle_Stripes_1.jpg,Green_Circle_Dots_2.jpg,Purple_Triangle_Chess_3.jpg,right,1292.4549999879673,true,high,false
mE8uQTfh,3ka7ijsnx9iy5qpdnesn7gsg38gpb3,3r2pkq87n0l4uf40saxe1jypce3im1,mE8uQTfh,2020-0188,2020-05-07,17:36:22,17:59:46,NA,incomplete,94,color,1,right,Blue_Star_Chess_4.jpg,Green_Star_Dots_1.jpg,Blue_Triangle_Stripes_3.jpg,right,764.5449999981793,true,high,false
mE8uQTfh,3ka7ijsnx9iy5qpdnesn7gsg38gpb3,3r2pkq87n0l4uf40saxe1jypce3im1,mE8uQTfh,2020-0188,2020-05-07,17:36:22,17:59:46,NA,incomplete,95,color,1,left,Green_Star_Dots_2.jpg,Green_Triangle_Grid_1.jpg,Purple_Star_Chess_4.jpg,left,681.9949999917299,true,high,false
mE8uQTfh,3ka7ijsnx9iy5qpdnesn7gsg38gpb3,3r2pkq87n0l4uf40saxe1jypce3im1,mE8uQTfh,2020-0188,2020-05-07,17:36:22,17:59:46,NA,incomplete,96,color,0,left,Green_Plus_Grid_2.jpg,Green_Star_Chess_3.jpg,Red_Plus_Stripes_1.jpg,left,642.9249999928288,true,high,false
mE8uQTfh,3ka7ijsnx9iy5qpdnesn7gsg38gpb3,3r2pkq87n0l4uf40saxe1jypce3im1,mE8uQTfh,2020-0188,2020-05-07,17:36:22,17:59:46,NA,incomplete,97,color,1,left,Red_Triangle_Grid_2.jpg,Red_Star_Chess_1.jpg,Green_Triangle_Stripes_3.jpg,right,870.9499999968102,false,high,false
mE8uQTfh,3ka7ijsnx9iy5qpdnesn7gsg38gpb3,3r2pkq87n0l4uf40saxe1jypce3im1,mE8uQTfh,2020-0188,2020-05-07,17:36:22,17:59:46,NA,incomplete,98,color,1,right,Blue_Circle_Dots_3.jpg,Purple_Circle_Stripes_4.jpg,Blue_Plus_Grid_2.jpg,right,823.0449999973644,true,high,false
mE8uQTfh,3ka7ijsnx9iy5qpdnesn7gsg38gpb3,3r2pkq87n0l4uf40saxe1jypce3im1,mE8uQTfh,2020-0188,2020-05-07,17:36:22,17:59:46,NA,incomplete,99,color,1,left,Red_Plus_Chess_3.jpg,Red_Triangle_Dots_1.jpg,Purple_Plus_Grid_2.jpg,left,673.8699999987148,true,high,false
mE8uQTfh,3ka7ijsnx9iy5qpdnesn7gsg38gpb3,3r2pkq87n0l4uf40saxe1jypce3im1,mE8uQTfh,2020-0188,2020-05-07,17:36:22,17:59:46,NA,incomplete,100,shape,1,right,Green_Circle_Stripes_4.jpg,Green_Plus_Grid_2.jpg,Red_Circle_Chess_3.jpg,left,709.1650000074878,false,high,false
mE8uQTfh,3ka7ijsnx9iy5qpdnesn7gsg38gpb3,3r2pkq87n0l4uf40saxe1jypce3im1,mE8uQTfh,2020-0188,2020-05-07,17:36:22,17:59:46,NA,incomplete,101,shape,1,right,Red_Plus_Stripes_2.jpg,Red_Triangle_Grid_3.jpg,Purple_Plus_Dots_4.jpg,right,988.1700000114506,true,high,false
mE8uQTfh,3ka7ijsnx9iy5qpdnesn7gsg38gpb3,3r2pkq87n0l4uf40saxe1jypce3im1,mE8uQTfh,2020-0188,2020-05-07,17:36:22,17:59:46,NA,incomplete,102,shape,1,left,Purple_Triangle_Chess_4.jpg,Blue_Triangle_Dots_1.jpg,Purple_Star_Stripes_2.jpg,left,991.4200000057463,true,high,false
mE8uQTfh,3ka7ijsnx9iy5qpdnesn7gsg38gpb3,3r2pkq87n0l4uf40saxe1jypce3im1,mE8uQTfh,2020-0188,2020-05-07,17:36:22,17:59:46,NA,incomplete,103,shape,1,right,Blue_Circle_Dots_3.jpg,Blue_Star_Chess_4.jpg,Purple_Circle_Stripes_2.jpg,right,859.1100000048755,true,high,false
mE8uQTfh,3ka7ijsnx9iy5qpdnesn7gsg38gpb3,3r2pkq87n0l4uf40saxe1jypce3im1,mE8uQTfh,2020-0188,2020-05-07,17:36:22,17:59:46,NA,incomplete,104,shape,1,right,Purple_Triangle_Stripes_2.jpg,Purple_Plus_Grid_1.jpg,Red_Triangle_Chess_3.jpg,left,836.250000007567,false,high,false
mE8uQTfh,3ka7ijsnx9iy5qpdnesn7gsg38gpb3,3r2pkq87n0l4uf40saxe1jypce3im1,mE8uQTfh,2020-0188,2020-05-07,17:36:22,17:59:46,NA,incomplete,105,shape,0,right,Purple_Plus_Chess_2.jpg,Purple_Triangle_Dots_3.jpg,Green_Plus_Grid_1.jpg,left,743.9049999957206,false,high,false
mE8uQTfh,3ka7ijsnx9iy5qpdnesn7gsg38gpb3,3r2pkq87n0l4uf40saxe1jypce3im1,mE8uQTfh,2020-0188,2020-05-07,17:36:22,17:59:46,NA,incomplete,106,shape,1,right,Red_Star_Stripes_4.jpg,Red_Circle_Chess_2.jpg,Green_Star_Grid_3.jpg,left,1286.5699999965727,false,high,false
mE8uQTfh,3ka7ijsnx9iy5qpdnesn7gsg38gpb3,3r2pkq87n0l4uf40saxe1jypce3im1,mE8uQTfh,2020-0188,2020-05-07,17:36:22,17:59:46,NA,incomplete,107,shape,1,left,Purple_Triangle_Grid_4.jpg,Blue_Triangle_Chess_2.jpg,Purple_Star_Dots_1.jpg,right,678.1300000002375,false,high,false
mE8uQTfh,3ka7ijsnx9iy5qpdnesn7gsg38gpb3,3r2pkq87n0l4uf40saxe1jypce3im1,mE8uQTfh,2020-0188,2020-05-07,17:36:22,17:59:46,NA,incomplete,108,shape,1,right,Red_Plus_Chess_2.jpg,Red_Triangle_Grid_3.jpg,Blue_Plus_Stripes_1.jpg,left,616.4750000025379,false,high,false
mE8uQTfh,3ka7ijsnx9iy5qpdnesn7gsg38gpb3,3r2pkq87n0l4uf40saxe1jypce3im1,mE8uQTfh,2020-0188,2020-05-07,17:36:22,17:59:46,NA,incomplete,109,shape,0,left,Red_Triangle_Stripes_4.jpg,Purple_Triangle_Chess_1.jpg,Red_Circle_Dots_2.jpg,right,964.9950000022072,false,high,false
mE8uQTfh,3ka7ijsnx9iy5qpdnesn7gsg38gpb3,3r2pkq87n0l4uf40saxe1jypce3im1,mE8uQTfh,2020-0188,2020-05-07,17:36:22,17:59:46,NA,incomplete,110,color,1,left,Green_Plus_Grid_3.jpg,Green_Star_Stripes_2.jpg,Purple_Plus_Dots_1.jpg,left,585.0499999942258,true,high,false
mE8uQTfh,3ka7ijsnx9iy5qpdnesn7gsg38gpb3,3r2pkq87n0l4uf40saxe1jypce3im1,mE8uQTfh,2020-0188,2020-05-07,17:36:22,17:59:46,NA,incomplete,111,color,0,right,Green_Triangle_Chess_3.jpg,Purple_Triangle_Dots_2.jpg,Green_Star_Grid_1.jpg,right,614.7300000013784,true,high,false
mE8uQTfh,3ka7ijsnx9iy5qpdnesn7gsg38gpb3,3r2pkq87n0l4uf40saxe1jypce3im1,mE8uQTfh,2020-0188,2020-05-07,17:36:22,17:59:46,NA,incomplete,112,color,1,left,Red_Plus_Dots_4.jpg,Red_Circle_Grid_1.jpg,Green_Plus_Stripes_3.jpg,right,909.7800000016578,false,high,false
mE8uQTfh,3ka7ijsnx9iy5qpdnesn7gsg38gpb3,3r2pkq87n0l4uf40saxe1jypce3im1,mE8uQTfh,2020-0188,2020-05-07,17:36:22,17:59:46,NA,incomplete,113,color,1,left,Red_Star_Stripes_3.jpg,Red_Circle_Grid_1.jpg,Blue_Star_Dots_2.jpg,right,1914.5450000069104,false,high,false
mE8uQTfh,3ka7ijsnx9iy5qpdnesn7gsg38gpb3,3r2pkq87n0l4uf40saxe1jypce3im1,mE8uQTfh,2020-0188,2020-05-07,17:36:22,17:59:46,NA,incomplete,114,color,1,left,Red_Triangle_Grid_1.jpg,Red_Plus_Stripes_4.jpg,Green_Triangle_Dots_2.jpg,left,959.6350000062957,true,high,false
mE8uQTfh,3ka7ijsnx9iy5qpdnesn7gsg38gpb3,3r2pkq87n0l4uf40saxe1jypce3im1,mE8uQTfh,2020-0188,2020-05-07,17:36:22,17:59:46,NA,incomplete,115,color,1,left,Purple_Plus_Dots_4.jpg,Purple_Triangle_Grid_2.jpg,Green_Plus_Chess_3.jpg,left,899.7600000002421,true,high,false
mE8uQTfh,3ka7ijsnx9iy5qpdnesn7gsg38gpb3,3r2pkq87n0l4uf40saxe1jypce3im1,mE8uQTfh,2020-0188,2020-05-07,17:36:22,17:59:46,NA,incomplete,116,color,1,right,Blue_Plus_Dots_1.jpg,Purple_Plus_Stripes_4.jpg,Blue_Triangle_Grid_2.jpg,left,1412.7199999929871,false,high,false
mE8uQTfh,3ka7ijsnx9iy5qpdnesn7gsg38gpb3,3r2pkq87n0l4uf40saxe1jypce3im1,mE8uQTfh,2020-0188,2020-05-07,17:36:22,17:59:46,NA,incomplete,117,color,1,left,Blue_Star_Dots_4.jpg,Blue_Circle_Grid_1.jpg,Red_Star_Chess_3.jpg,right,742.234999998007,false,high,false
mE8uQTfh,3ka7ijsnx9iy5qpdnesn7gsg38gpb3,3r2pkq87n0l4uf40saxe1jypce3im1,mE8uQTfh,2020-0188,2020-05-07,17:36:22,17:59:46,NA,incomplete,118,color,1,right,Green_Plus_Chess_4.jpg,Purple_Plus_Grid_3.jpg,Green_Triangle_Stripes_2.jpg,right,603.6600000080653,true,high,false
mE8uQTfh,3ka7ijsnx9iy5qpdnesn7gsg38gpb3,3r2pkq87n0l4uf40saxe1jypce3im1,mE8uQTfh,2020-0188,2020-05-07,17:36:22,17:59:46,NA,incomplete,119,color,1,right,Green_Plus_Grid_2.jpg,Purple_Plus_Dots_4.jpg,Green_Star_Chess_1.jpg,right,608.8899999887217,true,high,false
mE8uQTfh,3ka7ijsnx9iy5qpdnesn7gsg38gpb3,3r2pkq87n0l4uf40saxe1jypce3im1,mE8uQTfh,2020-0188,2020-05-07,17:36:22,17:59:46,NA,incomplete,120,shape,1,left,Blue_Triangle_Stripes_2.jpg,Green_Triangle_Grid_4.jpg,Blue_Circle_Chess_1.jpg,right,860.93999999878,false,high,false
mE8uQTfh,3ka7ijsnx9iy5qpdnesn7gsg38gpb3,3r2pkq87n0l4uf40saxe1jypce3im1,mE8uQTfh,2020-0188,2020-05-07,17:36:22,17:59:46,NA,incomplete,121,shape,0,left,Red_Circle_Dots_1.jpg,Blue_Circle_Stripes_3.jpg,Red_Triangle_Grid_4.jpg,right,1862.2749999924563,false,high,false
mE8uQTfh,3ka7ijsnx9iy5qpdnesn7gsg38gpb3,3r2pkq87n0l4uf40saxe1jypce3im1,mE8uQTfh,2020-0188,2020-05-07,17:36:22,17:59:46,NA,incomplete,122,shape,1,left,Blue_Circle_Grid_1.jpg,Red_Circle_Dots_2.jpg,Blue_Triangle_Chess_3.jpg,right,668.2299999957904,false,high,false
mE8uQTfh,3ka7ijsnx9iy5qpdnesn7gsg38gpb3,3r2pkq87n0l4uf40saxe1jypce3im1,mE8uQTfh,2020-0188,2020-05-07,17:36:22,17:59:46,NA,incomplete,123,shape,0,left,Green_Plus_Dots_1.jpg,Purple_Plus_Grid_2.jpg,Green_Triangle_Stripes_4.jpg,right,718.9700000018347,false,high,false
mE8uQTfh,3ka7ijsnx9iy5qpdnesn7gsg38gpb3,3r2pkq87n0l4uf40saxe1jypce3im1,mE8uQTfh,2020-0188,2020-05-07,17:36:22,17:59:46,NA,incomplete,124,shape,1,left,Purple_Star_Dots_2.jpg,Blue_Star_Grid_1.jpg,Purple_Plus_Stripes_4.jpg,right,1799.5050000026822,false,high,false
mE8uQTfh,3ka7ijsnx9iy5qpdnesn7gsg38gpb3,3r2pkq87n0l4uf40saxe1jypce3im1,mE8uQTfh,2020-0188,2020-05-07,17:36:22,17:59:46,NA,incomplete,125,shape,1,left,Purple_Star_Dots_4.jpg,Red_Star_Stripes_1.jpg,Purple_Circle_Grid_2.jpg,left,1128.1250000030268,true,high,false
mE8uQTfh,3ka7ijsnx9iy5qpdnesn7gsg38gpb3,3r2pkq87n0l4uf40saxe1jypce3im1,mE8uQTfh,2020-0188,2020-05-07,17:36:22,17:59:46,NA,incomplete,126,shape,1,right,Green_Triangle_Stripes_4.jpg,Green_Plus_Chess_1.jpg,Blue_Triangle_Dots_2.jpg,right,1245.54499999783,true,high,false
mE8uQTfh,3ka7ijsnx9iy5qpdnesn7gsg38gpb3,3r2pkq87n0l4uf40saxe1jypce3im1,mE8uQTfh,2020-0188,2020-05-07,17:36:22,17:59:46,NA,incomplete,127,shape,1,left,Purple_Circle_Dots_1.jpg,Green_Circle_Stripes_4.jpg,Purple_Star_Grid_2.jpg,left,1598.3349999878556,true,high,false
mE8uQTfh,3ka7ijsnx9iy5qpdnesn7gsg38gpb3,3r2pkq87n0l4uf40saxe1jypce3im1,mE8uQTfh,2020-0188,2020-05-07,17:36:22,17:59:46,NA,incomplete,128,shape,1,left,Red_Star_Grid_4.jpg,Blue_Star_Dots_3.jpg,Red_Circle_Chess_1.jpg,left,968.460000003688,true,high,false
mE8uQTfh,3ka7ijsnx9iy5qpdnesn7gsg38gpb3,3r2pkq87n0l4uf40saxe1jypce3im1,mE8uQTfh,2020-0188,2020-05-07,17:36:22,17:59:46,NA,incomplete,129,shape,1,right,Green_Plus_Dots_1.jpg,Green_Circle_Chess_3.jpg,Blue_Plus_Stripes_4.jpg,right,805.2500000051223,true,high,false
mE8uQTfh,3ka7ijsnx9iy5qpdnesn7gsg38gpb3,3r2pkq87n0l4uf40saxe1jypce3im1,mE8uQTfh,2020-0188,2020-05-07,17:36:22,17:59:46,NA,incomplete,130,shape,0,left,Green_Star_Grid_3.jpg,Red_Star_Chess_1.jpg,Green_Triangle_Stripes_2.jpg,right,960.5299999967683,false,high,false
mE8uQTfh,3ka7ijsnx9iy5qpdnesn7gsg38gpb3,3r2pkq87n0l4uf40saxe1jypce3im1,mE8uQTfh,2020-0188,2020-05-07,17:36:22,17:59:46,NA,incomplete,131,shape,1,right,Green_Triangle_Chess_2.jpg,Green_Star_Stripes_1.jpg,Red_Triangle_Grid_3.jpg,left,830.0000000018626,false,high,false
mE8uQTfh,3ka7ijsnx9iy5qpdnesn7gsg38gpb3,3r2pkq87n0l4uf40saxe1jypce3im1,mE8uQTfh,2020-0188,2020-05-07,17:36:22,17:59:46,NA,incomplete,132,shape,1,left,Blue_Plus_Dots_3.jpg,Red_Plus_Chess_2.jpg,Blue_Triangle_Grid_1.jpg,left,905.7000000029802,true,high,false
mE8uQTfh,3ka7ijsnx9iy5qpdnesn7gsg38gpb3,3r2pkq87n0l4uf40saxe1jypce3im1,mE8uQTfh,2020-0188,2020-05-07,17:36:22,17:59:46,NA,incomplete,133,shape,1,right,Red_Triangle_Dots_4.jpg,Red_Star_Grid_3.jpg,Blue_Triangle_Chess_1.jpg,right,1016.4749999966007,true,high,false
mE8uQTfh,3ka7ijsnx9iy5qpdnesn7gsg38gpb3,3r2pkq87n0l4uf40saxe1jypce3im1,mE8uQTfh,2020-0188,2020-05-07,17:36:22,17:59:46,NA,incomplete,134,shape,1,left,Red_Triangle_Grid_3.jpg,Purple_Triangle_Stripes_1.jpg,Red_Circle_Chess_4.jpg,left,1766.0849999957718,true,high,false
mE8uQTfh,3ka7ijsnx9iy5qpdnesn7gsg38gpb3,3r2pkq87n0l4uf40saxe1jypce3im1,mE8uQTfh,2020-0188,2020-05-07,17:36:22,17:59:46,NA,incomplete,135,shape,1,left,Red_Triangle_Dots_3.jpg,Blue_Triangle_Stripes_4.jpg,Red_Star_Grid_2.jpg,left,838.4000000078231,true,high,false
mE8uQTfh,3ka7ijsnx9iy5qpdnesn7gsg38gpb3,3r2pkq87n0l4uf40saxe1jypce3im1,mE8uQTfh,2020-0188,2020-05-07,17:36:22,17:59:46,NA,incomplete,136,shape,1,right,Purple_Star_Dots_3.jpg,Purple_Circle_Chess_2.jpg,Green_Star_Grid_4.jpg,right,832.8849999960512,true,high,false
mE8uQTfh,3ka7ijsnx9iy5qpdnesn7gsg38gpb3,3r2pkq87n0l4uf40saxe1jypce3im1,mE8uQTfh,2020-0188,2020-05-07,17:36:22,17:59:46,NA,incomplete,137,shape,1,left,Green_Star_Stripes_3.jpg,Blue_Star_Grid_4.jpg,Green_Plus_Chess_1.jpg,left,1029.1199999919627,true,high,false
mE8uQTfh,3ka7ijsnx9iy5qpdnesn7gsg38gpb3,3r2pkq87n0l4uf40saxe1jypce3im1,mE8uQTfh,2020-0188,2020-05-07,17:36:22,17:59:46,NA,incomplete,138,shape,1,right,Red_Plus_Grid_3.jpg,Red_Triangle_Stripes_1.jpg,Green_Plus_Chess_2.jpg,right,869.7500000125729,true,high,false
mE8uQTfh,3ka7ijsnx9iy5qpdnesn7gsg38gpb3,3r2pkq87n0l4uf40saxe1jypce3im1,mE8uQTfh,2020-0188,2020-05-07,17:36:22,17:59:46,NA,incomplete,139,shape,0,right,Red_Triangle_Chess_4.jpg,Red_Plus_Dots_3.jpg,Green_Triangle_Stripes_2.jpg,right,872.9350000065751,true,high,false
mE8uQTfh,3ka7ijsnx9iy5qpdnesn7gsg38gpb3,3r2pkq87n0l4uf40saxe1jypce3im1,mE8uQTfh,2020-0188,2020-05-07,17:36:22,17:59:46,NA,incomplete,140,color,1,left,Blue_Circle_Grid_3.jpg,Blue_Plus_Chess_1.jpg,Red_Circle_Dots_2.jpg,left,641.7050000019372,true,high,false
mE8uQTfh,3ka7ijsnx9iy5qpdnesn7gsg38gpb3,3r2pkq87n0l4uf40saxe1jypce3im1,mE8uQTfh,2020-0188,2020-05-07,17:36:22,17:59:46,NA,incomplete,141,color,0,right,Red_Circle_Stripes_3.jpg,Green_Circle_Dots_1.jpg,Red_Plus_Chess_4.jpg,right,795.4900000041816,true,high,false
mE8uQTfh,3ka7ijsnx9iy5qpdnesn7gsg38gpb3,3r2pkq87n0l4uf40saxe1jypce3im1,mE8uQTfh,2020-0188,2020-05-07,17:36:22,17:59:46,NA,incomplete,142,color,1,left,Green_Plus_Stripes_3.jpg,Green_Triangle_Grid_1.jpg,Red_Plus_Dots_4.jpg,right,872.7650000071153,false,high,false
mE8uQTfh,3ka7ijsnx9iy5qpdnesn7gsg38gpb3,3r2pkq87n0l4uf40saxe1jypce3im1,mE8uQTfh,2020-0188,2020-05-07,17:36:22,17:59:46,NA,incomplete,143,color,1,left,Green_Plus_Grid_2.jpg,Green_Triangle_Dots_4.jpg,Purple_Plus_Stripes_3.jpg,left,1144.109999993816,true,high,false
mE8uQTfh,3ka7ijsnx9iy5qpdnesn7gsg38gpb3,3r2pkq87n0l4uf40saxe1jypce3im1,mE8uQTfh,2020-0188,2020-05-07,17:36:22,17:59:46,NA,incomplete,144,color,0,right,Blue_Star_Chess_4.jpg,Purple_Star_Stripes_1.jpg,Blue_Plus_Dots_3.jpg,right,776.1999999932013,true,high,false
mE8uQTfh,3ka7ijsnx9iy5qpdnesn7gsg38gpb3,3r2pkq87n0l4uf40saxe1jypce3im1,mE8uQTfh,2020-0188,2020-05-07,17:36:22,17:59:46,NA,incomplete,145,color,1,left,Purple_Plus_Chess_2.jpg,Purple_Star_Dots_1.jpg,Red_Plus_Grid_3.jpg,right,986.9550000003073,false,high,false
mE8uQTfh,3ka7ijsnx9iy5qpdnesn7gsg38gpb3,3r2pkq87n0l4uf40saxe1jypce3im1,mE8uQTfh,2020-0188,2020-05-07,17:36:22,17:59:46,NA,incomplete,146,color,0,right,Purple_Circle_Stripes_2.jpg,Blue_Circle_Grid_1.jpg,Purple_Star_Chess_3.jpg,left,1833.1250000046566,false,high,false
mE8uQTfh,3ka7ijsnx9iy5qpdnesn7gsg38gpb3,3r2pkq87n0l4uf40saxe1jypce3im1,mE8uQTfh,2020-0188,2020-05-07,17:36:22,17:59:46,NA,incomplete,147,color,1,right,Purple_Star_Dots_3.jpg,Blue_Star_Grid_4.jpg,Purple_Triangle_Chess_1.jpg,left,743.6199999935925,false,high,false
mE8uQTfh,3ka7ijsnx9iy5qpdnesn7gsg38gpb3,3r2pkq87n0l4uf40saxe1jypce3im1,mE8uQTfh,2020-0188,2020-05-07,17:36:22,17:59:46,NA,incomplete,148,color,1,right,Purple_Triangle_Stripes_1.jpg,Blue_Triangle_Chess_2.jpg,Purple_Plus_Grid_4.jpg,right,645.7050000024028,true,high,false
mE8uQTfh,3ka7ijsnx9iy5qpdnesn7gsg38gpb3,3r2pkq87n0l4uf40saxe1jypce3im1,mE8uQTfh,2020-0188,2020-05-07,17:36:22,17:59:46,NA,incomplete,149,color,1,left,Blue_Triangle_Stripes_1.jpg,Blue_Star_Chess_3.jpg,Green_Triangle_Grid_2.jpg,right,1120.1299999956973,false,high,false
mE8uQTfh,3ka7ijsnx9iy5qpdnesn7gsg38gpb3,3r2pkq87n0l4uf40saxe1jypce3im1,mE8uQTfh,2020-0188,2020-05-07,17:36:22,17:59:46,NA,incomplete,150,color,1,right,Red_Circle_Dots_3.jpg,Green_Circle_Stripes_2.jpg,Red_Triangle_Grid_1.jpg,right,815.9449999949429,true,high,false
mE8uQTfh,3ka7ijsnx9iy5qpdnesn7gsg38gpb3,3r2pkq87n0l4uf40saxe1jypce3im1,mE8uQTfh,2020-0188,2020-05-07,17:36:22,17:59:46,NA,incomplete,151,color,0,right,Green_Triangle_Stripes_2.jpg,Red_Triangle_Grid_3.jpg,Green_Circle_Chess_1.jpg,right,1507.989999998128,true,high,false
mE8uQTfh,3ka7ijsnx9iy5qpdnesn7gsg38gpb3,3r2pkq87n0l4uf40saxe1jypce3im1,mE8uQTfh,2020-0188,2020-05-07,17:36:22,17:59:46,NA,incomplete,152,color,1,left,Blue_Triangle_Dots_3.jpg,Blue_Plus_Chess_1.jpg,Green_Triangle_Grid_2.jpg,left,961.3499999977648,true,high,false
mE8uQTfh,3ka7ijsnx9iy5qpdnesn7gsg38gpb3,3r2pkq87n0l4uf40saxe1jypce3im1,mE8uQTfh,2020-0188,2020-05-07,17:36:22,17:59:46,NA,incomplete,153,color,1,right,Purple_Triangle_Stripes_2.jpg,Green_Triangle_Dots_4.jpg,Purple_Plus_Chess_1.jpg,right,733.2500000046566,true,high,false
mE8uQTfh,3ka7ijsnx9iy5qpdnesn7gsg38gpb3,3r2pkq87n0l4uf40saxe1jypce3im1,mE8uQTfh,2020-0188,2020-05-07,17:36:22,17:59:46,NA,incomplete,154,color,1,left,Green_Circle_Chess_3.jpg,Green_Star_Stripes_1.jpg,Blue_Circle_Dots_2.jpg,left,781.4550000037998,true,high,false
mE8uQTfh,3ka7ijsnx9iy5qpdnesn7gsg38gpb3,3r2pkq87n0l4uf40saxe1jypce3im1,mE8uQTfh,2020-0188,2020-05-07,17:36:22,17:59:46,NA,incomplete,155,color,1,left,Purple_Circle_Chess_2.jpg,Purple_Triangle_Dots_1.jpg,Red_Circle_Stripes_3.jpg,left,770.000000004191,true,high,false
mE8uQTfh,3ka7ijsnx9iy5qpdnesn7gsg38gpb3,3r2pkq87n0l4uf40saxe1jypce3im1,mE8uQTfh,2020-0188,2020-05-07,17:36:22,17:59:46,NA,incomplete,156,color,1,left,Purple_Star_Dots_1.jpg,Purple_Circle_Stripes_4.jpg,Red_Star_Grid_3.jpg,left,704.1449999958277,true,high,false
mE8uQTfh,3ka7ijsnx9iy5qpdnesn7gsg38gpb3,3r2pkq87n0l4uf40saxe1jypce3im1,mE8uQTfh,2020-0188,2020-05-07,17:36:22,17:59:46,NA,incomplete,157,color,1,right,Purple_Triangle_Dots_3.jpg,Green_Triangle_Grid_2.jpg,Purple_Plus_Chess_1.jpg,right,568.2699999888428,true,high,false
mE8uQTfh,3ka7ijsnx9iy5qpdnesn7gsg38gpb3,3r2pkq87n0l4uf40saxe1jypce3im1,mE8uQTfh,2020-0188,2020-05-07,17:36:22,17:59:46,NA,incomplete,158,color,0,left,Purple_Star_Dots_2.jpg,Purple_Plus_Stripes_1.jpg,Green_Star_Chess_4.jpg,left,623.0100000104867,true,high,false
mE8uQTfh,3ka7ijsnx9iy5qpdnesn7gsg38gpb3,3r2pkq87n0l4uf40saxe1jypce3im1,mE8uQTfh,2020-0188,2020-05-07,17:36:22,17:59:46,NA,incomplete,159,color,1,left,Green_Plus_Stripes_4.jpg,Green_Star_Grid_2.jpg,Red_Plus_Chess_1.jpg,left,697.7899999909569,true,high,false
mE8uQTfh,3ka7ijsnx9iy5qpdnesn7gsg38gpb3,3r2pkq87n0l4uf40saxe1jypce3im1,mE8uQTfh,2020-0188,2020-05-07,17:36:22,17:59:46,NA,incomplete,160,shape,1,right,Blue_Circle_Dots_4.jpg,Blue_Triangle_Grid_2.jpg,Green_Circle_Chess_1.jpg,left,874.8499999926426,false,high,false
mE8uQTfh,3ka7ijsnx9iy5qpdnesn7gsg38gpb3,3r2pkq87n0l4uf40saxe1jypce3im1,mE8uQTfh,2020-0188,2020-05-07,17:36:22,17:59:46,NA,incomplete,161,shape,1,right,Green_Plus_Stripes_2.jpg,Green_Triangle_Grid_1.jpg,Blue_Plus_Dots_3.jpg,right,763.585000007879,true,high,false
mE8uQTfh,3ka7ijsnx9iy5qpdnesn7gsg38gpb3,3r2pkq87n0l4uf40saxe1jypce3im1,mE8uQTfh,2020-0188,2020-05-07,17:36:22,17:59:46,NA,incomplete,162,shape,1,left,Red_Triangle_Chess_3.jpg,Purple_Triangle_Grid_4.jpg,Red_Star_Dots_1.jpg,right,746.9450000061188,false,high,false
mE8uQTfh,3ka7ijsnx9iy5qpdnesn7gsg38gpb3,3r2pkq87n0l4uf40saxe1jypce3im1,mE8uQTfh,2020-0188,2020-05-07,17:36:22,17:59:46,NA,incomplete,163,shape,0,left,Blue_Circle_Chess_3.jpg,Purple_Circle_Dots_1.jpg,Blue_Star_Stripes_2.jpg,right,1217.0899999910034,false,high,false
mE8uQTfh,3ka7ijsnx9iy5qpdnesn7gsg38gpb3,3r2pkq87n0l4uf40saxe1jypce3im1,mE8uQTfh,2020-0188,2020-05-07,17:36:22,17:59:46,NA,incomplete,164,shape,1,right,Red_Triangle_Chess_3.jpg,Red_Star_Grid_1.jpg,Green_Triangle_Stripes_2.jpg,none,0,false,high,false
mE8uQTfh,3ka7ijsnx9iy5qpdnesn7gsg38gpb3,3r2pkq87n0l4uf40saxe1jypce3im1,mE8uQTfh,2020-0188,2020-05-07,17:36:22,17:59:46,NA,incomplete,165,shape,0,right,Purple_Star_Grid_2.jpg,Purple_Triangle_Chess_4.jpg,Green_Star_Stripes_1.jpg,left,660.9349999926053,false,high,false
mE8uQTfh,3ka7ijsnx9iy5qpdnesn7gsg38gpb3,3r2pkq87n0l4uf40saxe1jypce3im1,mE8uQTfh,2020-0188,2020-05-07,17:36:22,17:59:46,NA,incomplete,166,shape,1,left,Blue_Plus_Dots_3.jpg,Purple_Plus_Stripes_2.jpg,Blue_Circle_Grid_1.jpg,right,709.2700000065379,false,high,false
mE8uQTfh,3ka7ijsnx9iy5qpdnesn7gsg38gpb3,3r2pkq87n0l4uf40saxe1jypce3im1,mE8uQTfh,2020-0188,2020-05-07,17:36:22,17:59:46,NA,incomplete,167,shape,1,left,Purple_Star_Dots_3.jpg,Green_Star_Stripes_2.jpg,Purple_Plus_Chess_1.jpg,right,830.4649999919347,false,high,false
mE8uQTfh,3ka7ijsnx9iy5qpdnesn7gsg38gpb3,3r2pkq87n0l4uf40saxe1jypce3im1,mE8uQTfh,2020-0188,2020-05-07,17:36:22,17:59:46,NA,incomplete,168,shape,0,left,Purple_Triangle_Stripes_4.jpg,Green_Triangle_Chess_1.jpg,Purple_Circle_Grid_2.jpg,left,872.5299999932759,true,high,false
mE8uQTfh,3ka7ijsnx9iy5qpdnesn7gsg38gpb3,3r2pkq87n0l4uf40saxe1jypce3im1,mE8uQTfh,2020-0188,2020-05-07,17:36:22,17:59:46,NA,incomplete,169,shape,1,right,Red_Star_Chess_3.jpg,Red_Triangle_Stripes_4.jpg,Blue_Star_Grid_2.jpg,left,601.8800000017509,false,high,false
mE8uQTfh,3ka7ijsnx9iy5qpdnesn7gsg38gpb3,3r2pkq87n0l4uf40saxe1jypce3im1,mE8uQTfh,2020-0188,2020-05-07,17:36:22,17:59:46,NA,incomplete,170,shape,1,right,Blue_Triangle_Stripes_3.jpg,Blue_Plus_Grid_1.jpg,Green_Triangle_Chess_2.jpg,right,913.425000006333,true,high,false
mE8uQTfh,3ka7ijsnx9iy5qpdnesn7gsg38gpb3,3r2pkq87n0l4uf40saxe1jypce3im1,mE8uQTfh,2020-0188,2020-05-07,17:36:22,17:59:46,NA,incomplete,171,shape,1,left,Blue_Star_Grid_4.jpg,Green_Star_Chess_2.jpg,Blue_Circle_Stripes_1.jpg,left,864.5249999971129,true,high,false
mE8uQTfh,3ka7ijsnx9iy5qpdnesn7gsg38gpb3,3r2pkq87n0l4uf40saxe1jypce3im1,mE8uQTfh,2020-0188,2020-05-07,17:36:22,17:59:46,NA,incomplete,172,shape,1,right,Blue_Plus_Chess_4.jpg,Blue_Star_Stripes_1.jpg,Purple_Plus_Dots_3.jpg,right,711.7949999957345,true,high,false
mE8uQTfh,3ka7ijsnx9iy5qpdnesn7gsg38gpb3,3r2pkq87n0l4uf40saxe1jypce3im1,mE8uQTfh,2020-0188,2020-05-07,17:36:22,17:59:46,NA,incomplete,173,shape,0,left,Green_Circle_Chess_3.jpg,Blue_Circle_Stripes_4.jpg,Green_Plus_Grid_1.jpg,left,704.2249999940395,true,high,false
mE8uQTfh,3ka7ijsnx9iy5qpdnesn7gsg38gpb3,3r2pkq87n0l4uf40saxe1jypce3im1,mE8uQTfh,2020-0188,2020-05-07,17:36:22,17:59:46,NA,incomplete,174,shape,1,right,Green_Plus_Chess_3.jpg,Green_Circle_Stripes_4.jpg,Red_Plus_Dots_1.jpg,left,1335.5600000065751,false,high,false
mE8uQTfh,3ka7ijsnx9iy5qpdnesn7gsg38gpb3,3r2pkq87n0l4uf40saxe1jypce3im1,mE8uQTfh,2020-0188,2020-05-07,17:36:22,17:59:46,NA,incomplete,175,shape,1,right,Blue_Star_Stripes_4.jpg,Blue_Triangle_Grid_1.jpg,Red_Star_Chess_3.jpg,right,1166.2999999972526,true,high,false
mE8uQTfh,3ka7ijsnx9iy5qpdnesn7gsg38gpb3,3r2pkq87n0l4uf40saxe1jypce3im1,mE8uQTfh,2020-0188,2020-05-07,17:36:22,17:59:46,NA,incomplete,176,shape,1,left,Blue_Plus_Dots_1.jpg,Purple_Plus_Stripes_4.jpg,Blue_Triangle_Chess_2.jpg,left,1057.6149999978952,true,high,false
mE8uQTfh,3ka7ijsnx9iy5qpdnesn7gsg38gpb3,3r2pkq87n0l4uf40saxe1jypce3im1,mE8uQTfh,2020-0188,2020-05-07,17:36:22,17:59:46,NA,incomplete,177,shape,1,left,Red_Star_Chess_3.jpg,Green_Star_Grid_2.jpg,Red_Plus_Dots_4.jpg,left,739.8450000036974,true,high,false
mE8uQTfh,3ka7ijsnx9iy5qpdnesn7gsg38gpb3,3r2pkq87n0l4uf40saxe1jypce3im1,mE8uQTfh,2020-0188,2020-05-07,17:36:22,17:59:46,NA,incomplete,178,shape,1,left,Purple_Plus_Chess_3.jpg,Red_Plus_Grid_4.jpg,Purple_Triangle_Dots_2.jpg,left,857.2049999930896,true,high,false
mE8uQTfh,3ka7ijsnx9iy5qpdnesn7gsg38gpb3,3r2pkq87n0l4uf40saxe1jypce3im1,mE8uQTfh,2020-0188,2020-05-07,17:36:22,17:59:46,NA,incomplete,179,shape,1,right,Blue_Triangle_Grid_2.jpg,Blue_Circle_Dots_4.jpg,Red_Triangle_Chess_3.jpg,right,1050.8750000006985,true,high,false
mE8uQTfh,3ka7ijsnx9iy5qpdnesn7gsg38gpb3,3r2pkq87n0l4uf40saxe1jypce3im1,mE8uQTfh,2020-0188,2020-05-07,17:36:22,17:59:46,NA,incomplete,180,color,1,left,Red_Plus_Grid_1.jpg,Red_Triangle_Chess_3.jpg,Purple_Plus_Stripes_2.jpg,right,780.2099999971688,false,high,false
mE8uQTfh,3ka7ijsnx9iy5qpdnesn7gsg38gpb3,3r2pkq87n0l4uf40saxe1jypce3im1,mE8uQTfh,2020-0188,2020-05-07,17:36:22,17:59:46,NA,incomplete,181,color,0,right,Purple_Triangle_Chess_4.jpg,Blue_Triangle_Grid_3.jpg,Purple_Plus_Stripes_1.jpg,left,1025.7800000107381,false,high,false
mE8uQTfh,3ka7ijsnx9iy5qpdnesn7gsg38gpb3,3r2pkq87n0l4uf40saxe1jypce3im1,mE8uQTfh,2020-0188,2020-05-07,17:36:22,17:59:46,NA,incomplete,182,color,1,left,Red_Triangle_Chess_2.jpg,Red_Plus_Grid_1.jpg,Blue_Triangle_Stripes_4.jpg,right,741.3099999977276,false,high,false
mE8uQTfh,3ka7ijsnx9iy5qpdnesn7gsg38gpb3,3r2pkq87n0l4uf40saxe1jypce3im1,mE8uQTfh,2020-0188,2020-05-07,17:36:22,17:59:46,NA,incomplete,183,color,0,right,Red_Star_Chess_1.jpg,Purple_Star_Dots_2.jpg,Red_Circle_Grid_3.jpg,left,698.3099999926053,false,high,false
mE8uQTfh,3ka7ijsnx9iy5qpdnesn7gsg38gpb3,3r2pkq87n0l4uf40saxe1jypce3im1,mE8uQTfh,2020-0188,2020-05-07,17:36:22,17:59:46,NA,incomplete,184,color,1,right,Red_Plus_Stripes_2.jpg,Green_Plus_Dots_3.jpg,Red_Triangle_Chess_1.jpg,right,1131.5999999935739,true,high,false
mE8uQTfh,3ka7ijsnx9iy5qpdnesn7gsg38gpb3,3r2pkq87n0l4uf40saxe1jypce3im1,mE8uQTfh,2020-0188,2020-05-07,17:36:22,17:59:46,NA,incomplete,185,color,1,right,Green_Triangle_Chess_2.jpg,Purple_Triangle_Dots_3.jpg,Green_Plus_Grid_1.jpg,right,898.1900000071619,true,high,false
mE8uQTfh,3ka7ijsnx9iy5qpdnesn7gsg38gpb3,3r2pkq87n0l4uf40saxe1jypce3im1,mE8uQTfh,2020-0188,2020-05-07,17:36:22,17:59:46,NA,incomplete,186,color,1,left,Red_Plus_Chess_3.jpg,Red_Circle_Stripes_1.jpg,Blue_Plus_Dots_2.jpg,left,682.1899999922607,true,high,false
mE8uQTfh,3ka7ijsnx9iy5qpdnesn7gsg38gpb3,3r2pkq87n0l4uf40saxe1jypce3im1,mE8uQTfh,2020-0188,2020-05-07,17:36:22,17:59:46,NA,incomplete,187,color,1,left,Blue_Star_Dots_1.jpg,Blue_Circle_Chess_4.jpg,Red_Star_Stripes_2.jpg,right,770.8549999950919,false,high,false
mE8uQTfh,3ka7ijsnx9iy5qpdnesn7gsg38gpb3,3r2pkq87n0l4uf40saxe1jypce3im1,mE8uQTfh,2020-0188,2020-05-07,17:36:22,17:59:46,NA,incomplete,188,color,1,left,Green_Star_Chess_1.jpg,Green_Triangle_Grid_2.jpg,Red_Star_Stripes_3.jpg,left,607.7249999942724,true,high,false
mE8uQTfh,3ka7ijsnx9iy5qpdnesn7gsg38gpb3,3r2pkq87n0l4uf40saxe1jypce3im1,mE8uQTfh,2020-0188,2020-05-07,17:36:22,17:59:46,NA,incomplete,189,color,1,right,Blue_Star_Dots_3.jpg,Green_Star_Stripes_2.jpg,Blue_Circle_Grid_4.jpg,left,734.8500000080094,false,high,false
mE8uQTfh,3ka7ijsnx9iy5qpdnesn7gsg38gpb3,3r2pkq87n0l4uf40saxe1jypce3im1,mE8uQTfh,2020-0188,2020-05-07,17:36:22,17:59:46,NA,incomplete,190,color,1,left,Blue_Plus_Chess_4.jpg,Blue_Star_Grid_3.jpg,Purple_Plus_Stripes_1.jpg,left,749.1700000099372,true,high,false
mE8uQTfh,3ka7ijsnx9iy5qpdnesn7gsg38gpb3,3r2pkq87n0l4uf40saxe1jypce3im1,mE8uQTfh,2020-0188,2020-05-07,17:36:22,17:59:46,NA,incomplete,191,color,1,left,Blue_Star_Grid_3.jpg,Blue_Circle_Chess_1.jpg,Purple_Star_Dots_4.jpg,right,739.3500000033528,false,high,false
mE8uQTfh,3ka7ijsnx9iy5qpdnesn7gsg38gpb3,3r2pkq87n0l4uf40saxe1jypce3im1,mE8uQTfh,2020-0188,2020-05-07,17:36:22,17:59:46,NA,incomplete,192,color,1,right,Blue_Plus_Grid_3.jpg,Green_Plus_Stripes_4.jpg,Blue_Star_Dots_2.jpg,right,546.4449999998324,true,high,false
mE8uQTfh,3ka7ijsnx9iy5qpdnesn7gsg38gpb3,3r2pkq87n0l4uf40saxe1jypce3im1,mE8uQTfh,2020-0188,2020-05-07,17:36:22,17:59:46,NA,incomplete,193,color,1,right,Purple_Star_Grid_1.jpg,Red_Star_Chess_2.jpg,Purple_Circle_Dots_4.jpg,right,608.770000006305,true,high,false
mE8uQTfh,3ka7ijsnx9iy5qpdnesn7gsg38gpb3,3r2pkq87n0l4uf40saxe1jypce3im1,mE8uQTfh,2020-0188,2020-05-07,17:36:22,17:59:46,NA,incomplete,194,color,1,right,Red_Circle_Grid_2.jpg,Purple_Circle_Dots_1.jpg,Red_Triangle_Chess_4.jpg,right,517.9150000039954,true,high,false
mE8uQTfh,3ka7ijsnx9iy5qpdnesn7gsg38gpb3,3r2pkq87n0l4uf40saxe1jypce3im1,mE8uQTfh,2020-0188,2020-05-07,17:36:22,17:59:46,NA,incomplete,195,color,1,left,Green_Circle_Grid_1.jpg,Green_Star_Dots_4.jpg,Blue_Circle_Stripes_3.jpg,left,582.069999989355,true,high,false
mE8uQTfh,3ka7ijsnx9iy5qpdnesn7gsg38gpb3,3r2pkq87n0l4uf40saxe1jypce3im1,mE8uQTfh,2020-0188,2020-05-07,17:36:22,17:59:46,NA,incomplete,196,color,1,right,Green_Triangle_Grid_1.jpg,Blue_Triangle_Chess_4.jpg,Green_Circle_Stripes_2.jpg,right,523.9199999922421,true,high,false
mE8uQTfh,3ka7ijsnx9iy5qpdnesn7gsg38gpb3,3r2pkq87n0l4uf40saxe1jypce3im1,mE8uQTfh,2020-0188,2020-05-07,17:36:22,17:59:46,NA,incomplete,197,color,1,left,Green_Triangle_Dots_2.jpg,Green_Circle_Stripes_1.jpg,Blue_Triangle_Grid_4.jpg,left,508.3449999948498,true,high,false
mE8uQTfh,3ka7ijsnx9iy5qpdnesn7gsg38gpb3,3r2pkq87n0l4uf40saxe1jypce3im1,mE8uQTfh,2020-0188,2020-05-07,17:36:22,17:59:46,NA,incomplete,198,color,1,right,Purple_Star_Dots_4.jpg,Red_Star_Stripes_1.jpg,Purple_Circle_Chess_3.jpg,right,613.9249999979511,true,high,false
mE8uQTfh,3ka7ijsnx9iy5qpdnesn7gsg38gpb3,3r2pkq87n0l4uf40saxe1jypce3im1,mE8uQTfh,2020-0188,2020-05-07,17:36:22,17:59:46,NA,incomplete,199,color,1,left,Green_Circle_Stripes_2.jpg,Green_Star_Chess_4.jpg,Purple_Circle_Grid_3.jpg,left,546.3699999963865,true,high,false
mE8uQTfh,3ka7ijsnx9iy5qpdnesn7gsg38gpb3,3r2pkq87n0l4uf40saxe1jypce3im1,mE8uQTfh,2020-0188,2020-05-07,17:36:22,17:59:46,NA,incomplete,200,shape,0,right,Green_Circle_Grid_1.jpg,Green_Plus_Stripes_2.jpg,Purple_Circle_Dots_4.jpg,left,680.7849999896716,false,high,false
mE8uQTfh,3ka7ijsnx9iy5qpdnesn7gsg38gpb3,3r2pkq87n0l4uf40saxe1jypce3im1,mE8uQTfh,2020-0188,2020-05-07,17:36:22,17:59:46,NA,incomplete,201,shape,1,right,Red_Plus_Grid_4.jpg,Red_Star_Stripes_3.jpg,Green_Plus_Dots_2.jpg,left,1122.4300000029616,false,high,false
mE8uQTfh,3ka7ijsnx9iy5qpdnesn7gsg38gpb3,3r2pkq87n0l4uf40saxe1jypce3im1,mE8uQTfh,2020-0188,2020-05-07,17:36:22,17:59:46,NA,incomplete,202,shape,1,left,Blue_Triangle_Dots_1.jpg,Purple_Triangle_Stripes_3.jpg,Blue_Circle_Grid_4.jpg,left,832.2100000076462,true,high,false
mE8uQTfh,3ka7ijsnx9iy5qpdnesn7gsg38gpb3,3r2pkq87n0l4uf40saxe1jypce3im1,mE8uQTfh,2020-0188,2020-05-07,17:36:22,17:59:46,NA,incomplete,203,shape,0,right,Green_Plus_Chess_1.jpg,Green_Triangle_Stripes_2.jpg,Purple_Plus_Dots_3.jpg,right,899.6849999967963,true,high,false
mE8uQTfh,3ka7ijsnx9iy5qpdnesn7gsg38gpb3,3r2pkq87n0l4uf40saxe1jypce3im1,mE8uQTfh,2020-0188,2020-05-07,17:36:22,17:59:46,NA,incomplete,204,shape,1,right,Red_Star_Chess_4.jpg,Red_Plus_Stripes_2.jpg,Purple_Star_Grid_3.jpg,left,683.084999996936,false,high,false
mE8uQTfh,3ka7ijsnx9iy5qpdnesn7gsg38gpb3,3r2pkq87n0l4uf40saxe1jypce3im1,mE8uQTfh,2020-0188,2020-05-07,17:36:22,17:59:46,NA,incomplete,205,shape,1,left,Red_Triangle_Grid_4.jpg,Purple_Triangle_Stripes_3.jpg,Red_Circle_Chess_2.jpg,left,903.8250000013504,true,high,false
mE8uQTfh,3ka7ijsnx9iy5qpdnesn7gsg38gpb3,3r2pkq87n0l4uf40saxe1jypce3im1,mE8uQTfh,2020-0188,2020-05-07,17:36:22,17:59:46,NA,incomplete,206,shape,1,left,Blue_Star_Grid_4.jpg,Green_Star_Dots_1.jpg,Blue_Plus_Chess_3.jpg,left,717.8149999962188,true,high,false
mE8uQTfh,3ka7ijsnx9iy5qpdnesn7gsg38gpb3,3r2pkq87n0l4uf40saxe1jypce3im1,mE8uQTfh,2020-0188,2020-05-07,17:36:22,17:59:46,NA,incomplete,207,shape,1,right,Blue_Plus_Grid_1.jpg,Blue_Star_Stripes_4.jpg,Red_Plus_Chess_3.jpg,right,709.5150000094436,true,high,false
mE8uQTfh,3ka7ijsnx9iy5qpdnesn7gsg38gpb3,3r2pkq87n0l4uf40saxe1jypce3im1,mE8uQTfh,2020-0188,2020-05-07,17:36:22,17:59:46,NA,incomplete,208,shape,0,right,Blue_Triangle_Dots_1.jpg,Blue_Star_Grid_4.jpg,Purple_Triangle_Chess_2.jpg,right,839.1449999909382,true,high,false
mE8uQTfh,3ka7ijsnx9iy5qpdnesn7gsg38gpb3,3r2pkq87n0l4uf40saxe1jypce3im1,mE8uQTfh,2020-0188,2020-05-07,17:36:22,17:59:46,NA,incomplete,209,shape,1,right,Blue_Plus_Dots_4.jpg,Blue_Circle_Stripes_1.jpg,Green_Plus_Grid_2.jpg,right,791.8999999964144,true,high,false
mE8uQTfh,3ka7ijsnx9iy5qpdnesn7gsg38gpb3,3r2pkq87n0l4uf40saxe1jypce3im1,mE8uQTfh,2020-0188,2020-05-07,17:36:22,17:59:46,NA,incomplete,210,shape,0,right,Red_Star_Dots_2.jpg,Red_Plus_Chess_3.jpg,Green_Star_Grid_1.jpg,right,868.2549999938346,true,high,false
mE8uQTfh,3ka7ijsnx9iy5qpdnesn7gsg38gpb3,3r2pkq87n0l4uf40saxe1jypce3im1,mE8uQTfh,2020-0188,2020-05-07,17:36:22,17:59:46,NA,incomplete,211,shape,1,right,Red_Triangle_Grid_1.jpg,Red_Plus_Chess_4.jpg,Blue_Triangle_Dots_3.jpg,left,549.8750000114087,false,high,false
mE8uQTfh,3ka7ijsnx9iy5qpdnesn7gsg38gpb3,3r2pkq87n0l4uf40saxe1jypce3im1,mE8uQTfh,2020-0188,2020-05-07,17:36:22,17:59:46,NA,incomplete,212,shape,1,right,Purple_Plus_Stripes_2.jpg,Purple_Circle_Dots_4.jpg,Blue_Plus_Grid_3.jpg,left,620.7700000088662,false,high,false
mE8uQTfh,3ka7ijsnx9iy5qpdnesn7gsg38gpb3,3r2pkq87n0l4uf40saxe1jypce3im1,mE8uQTfh,2020-0188,2020-05-07,17:36:22,17:59:46,NA,incomplete,213,shape,1,right,Red_Circle_Stripes_4.jpg,Red_Star_Grid_1.jpg,Green_Circle_Chess_3.jpg,right,858.4949999931268,true,high,false
mE8uQTfh,3ka7ijsnx9iy5qpdnesn7gsg38gpb3,3r2pkq87n0l4uf40saxe1jypce3im1,mE8uQTfh,2020-0188,2020-05-07,17:36:22,17:59:46,NA,incomplete,214,shape,1,right,Blue_Plus_Dots_2.jpg,Blue_Circle_Stripes_3.jpg,Green_Plus_Grid_1.jpg,left,1114.014999999199,false,high,false
mE8uQTfh,3ka7ijsnx9iy5qpdnesn7gsg38gpb3,3r2pkq87n0l4uf40saxe1jypce3im1,mE8uQTfh,2020-0188,2020-05-07,17:36:22,17:59:46,NA,incomplete,215,shape,0,right,Green_Star_Grid_1.jpg,Green_Circle_Stripes_2.jpg,Red_Star_Dots_4.jpg,right,1354.315000004135,true,high,false
mE8uQTfh,3ka7ijsnx9iy5qpdnesn7gsg38gpb3,3r2pkq87n0l4uf40saxe1jypce3im1,mE8uQTfh,2020-0188,2020-05-07,17:36:22,17:59:46,NA,incomplete,216,shape,1,right,Purple_Circle_Chess_2.jpg,Purple_Triangle_Stripes_1.jpg,Green_Circle_Grid_3.jpg,right,933.0350000092294,true,high,false
mE8uQTfh,3ka7ijsnx9iy5qpdnesn7gsg38gpb3,3r2pkq87n0l4uf40saxe1jypce3im1,mE8uQTfh,2020-0188,2020-05-07,17:36:22,17:59:46,NA,incomplete,217,shape,1,left,Blue_Star_Grid_3.jpg,Red_Star_Chess_1.jpg,Blue_Triangle_Dots_4.jpg,left,780.7049999975134,true,high,false
mE8uQTfh,3ka7ijsnx9iy5qpdnesn7gsg38gpb3,3r2pkq87n0l4uf40saxe1jypce3im1,mE8uQTfh,2020-0188,2020-05-07,17:36:22,17:59:46,NA,incomplete,218,shape,1,right,Purple_Triangle_Dots_2.jpg,Purple_Star_Grid_3.jpg,Red_Triangle_Chess_1.jpg,right,769.7099999932107,true,high,false
mE8uQTfh,3ka7ijsnx9iy5qpdnesn7gsg38gpb3,3r2pkq87n0l4uf40saxe1jypce3im1,mE8uQTfh,2020-0188,2020-05-07,17:36:22,17:59:46,NA,incomplete,219,shape,1,right,Green_Triangle_Dots_4.jpg,Green_Plus_Chess_3.jpg,Purple_Triangle_Grid_2.jpg,right,863.5800000047311,true,high,false
mE8uQTfh,3ka7ijsnx9iy5qpdnesn7gsg38gpb3,3r2pkq87n0l4uf40saxe1jypce3im1,mE8uQTfh,2020-0188,2020-05-07,17:36:22,17:59:46,NA,incomplete,220,color,1,left,Red_Plus_Dots_1.jpg,Red_Star_Grid_4.jpg,Blue_Plus_Stripes_2.jpg,right,897.4449999951757,false,high,false
mE8uQTfh,3ka7ijsnx9iy5qpdnesn7gsg38gpb3,3r2pkq87n0l4uf40saxe1jypce3im1,mE8uQTfh,2020-0188,2020-05-07,17:36:22,17:59:46,NA,incomplete,221,color,0,left,Green_Plus_Stripes_2.jpg,Green_Circle_Grid_1.jpg,Purple_Plus_Chess_4.jpg,left,769.2850000022445,true,high,false
mE8uQTfh,3ka7ijsnx9iy5qpdnesn7gsg38gpb3,3r2pkq87n0l4uf40saxe1jypce3im1,mE8uQTfh,2020-0188,2020-05-07,17:36:22,17:59:46,NA,incomplete,222,color,1,right,Purple_Star_Dots_4.jpg,Red_Star_Grid_3.jpg,Purple_Circle_Stripes_1.jpg,right,750.4249999909662,true,high,false
mE8uQTfh,3ka7ijsnx9iy5qpdnesn7gsg38gpb3,3r2pkq87n0l4uf40saxe1jypce3im1,mE8uQTfh,2020-0188,2020-05-07,17:36:22,17:59:46,NA,incomplete,223,color,0,right,Blue_Circle_Stripes_1.jpg,Red_Circle_Grid_2.jpg,Blue_Plus_Dots_4.jpg,right,966.9549999963492,true,high,false
mE8uQTfh,3ka7ijsnx9iy5qpdnesn7gsg38gpb3,3r2pkq87n0l4uf40saxe1jypce3im1,mE8uQTfh,2020-0188,2020-05-07,17:36:22,17:59:46,NA,incomplete,224,color,1,right,Red_Triangle_Chess_4.jpg,Blue_Triangle_Dots_1.jpg,Red_Circle_Grid_2.jpg,left,906.5750000008848,false,high,false
mE8uQTfh,3ka7ijsnx9iy5qpdnesn7gsg38gpb3,3r2pkq87n0l4uf40saxe1jypce3im1,mE8uQTfh,2020-0188,2020-05-07,17:36:22,17:59:46,NA,incomplete,225,color,1,right,Blue_Plus_Stripes_2.jpg,Purple_Plus_Dots_4.jpg,Blue_Triangle_Grid_1.jpg,right,698.3599999947473,true,high,false
mE8uQTfh,3ka7ijsnx9iy5qpdnesn7gsg38gpb3,3r2pkq87n0l4uf40saxe1jypce3im1,mE8uQTfh,2020-0188,2020-05-07,17:36:22,17:59:46,NA,incomplete,226,color,0,left,Blue_Circle_Chess_2.jpg,Blue_Star_Grid_4.jpg,Purple_Circle_Dots_1.jpg,left,554.4849999861326,true,high,false
mE8uQTfh,3ka7ijsnx9iy5qpdnesn7gsg38gpb3,3r2pkq87n0l4uf40saxe1jypce3im1,mE8uQTfh,2020-0188,2020-05-07,17:36:22,17:59:46,NA,incomplete,227,color,1,left,Purple_Star_Stripes_3.jpg,Purple_Circle_Dots_4.jpg,Red_Star_Grid_2.jpg,left,793.680000002496,true,high,false
mE8uQTfh,3ka7ijsnx9iy5qpdnesn7gsg38gpb3,3r2pkq87n0l4uf40saxe1jypce3im1,mE8uQTfh,2020-0188,2020-05-07,17:36:22,17:59:46,NA,incomplete,228,color,1,left,Red_Triangle_Stripes_2.jpg,Red_Circle_Chess_4.jpg,Purple_Triangle_Grid_3.jpg,left,741.6599999996834,true,high,false
mE8uQTfh,3ka7ijsnx9iy5qpdnesn7gsg38gpb3,3r2pkq87n0l4uf40saxe1jypce3im1,mE8uQTfh,2020-0188,2020-05-07,17:36:22,17:59:46,NA,incomplete,229,color,1,left,Purple_Plus_Grid_1.jpg,Purple_Triangle_Dots_3.jpg,Blue_Plus_Chess_4.jpg,left,701.9350000044797,true,high,false
mE8uQTfh,3ka7ijsnx9iy5qpdnesn7gsg38gpb3,3r2pkq87n0l4uf40saxe1jypce3im1,mE8uQTfh,2020-0188,2020-05-07,17:36:22,17:59:46,NA,incomplete,230,color,1,left,Green_Circle_Grid_3.jpg,Green_Plus_Stripes_4.jpg,Blue_Circle_Chess_1.jpg,left,590.6350000007078,true,high,false
mE8uQTfh,3ka7ijsnx9iy5qpdnesn7gsg38gpb3,3r2pkq87n0l4uf40saxe1jypce3im1,mE8uQTfh,2020-0188,2020-05-07,17:36:22,17:59:46,NA,incomplete,231,color,1,left,Red_Plus_Grid_2.jpg,Red_Triangle_Dots_3.jpg,Purple_Plus_Stripes_4.jpg,left,666.7050000107847,true,high,false
mE8uQTfh,3ka7ijsnx9iy5qpdnesn7gsg38gpb3,3r2pkq87n0l4uf40saxe1jypce3im1,mE8uQTfh,2020-0188,2020-05-07,17:36:22,17:59:46,NA,incomplete,232,color,1,right,Red_Circle_Dots_3.jpg,Blue_Circle_Grid_4.jpg,Red_Plus_Stripes_1.jpg,right,587.9500000011176,true,high,false
mE8uQTfh,3ka7ijsnx9iy5qpdnesn7gsg38gpb3,3r2pkq87n0l4uf40saxe1jypce3im1,mE8uQTfh,2020-0188,2020-05-07,17:36:22,17:59:46,NA,incomplete,233,color,1,right,Red_Plus_Grid_4.jpg,Blue_Plus_Dots_3.jpg,Red_Triangle_Stripes_1.jpg,right,664.9699999978766,true,high,false
mE8uQTfh,3ka7ijsnx9iy5qpdnesn7gsg38gpb3,3r2pkq87n0l4uf40saxe1jypce3im1,mE8uQTfh,2020-0188,2020-05-07,17:36:22,17:59:46,NA,incomplete,234,color,1,left,Red_Star_Grid_3.jpg,Red_Triangle_Chess_1.jpg,Purple_Star_Dots_2.jpg,left,652.0100000053644,true,high,false
mE8uQTfh,3ka7ijsnx9iy5qpdnesn7gsg38gpb3,3r2pkq87n0l4uf40saxe1jypce3im1,mE8uQTfh,2020-0188,2020-05-07,17:36:22,17:59:46,NA,incomplete,235,color,1,left,Purple_Triangle_Chess_4.jpg,Purple_Circle_Dots_3.jpg,Red_Triangle_Grid_2.jpg,left,518.9949999912642,true,high,false
mE8uQTfh,3ka7ijsnx9iy5qpdnesn7gsg38gpb3,3r2pkq87n0l4uf40saxe1jypce3im1,mE8uQTfh,2020-0188,2020-05-07,17:36:22,17:59:46,NA,incomplete,236,color,0,left,Green_Circle_Grid_3.jpg,Green_Star_Dots_2.jpg,Blue_Circle_Stripes_1.jpg,left,511.90499999187887,true,high,false
mE8uQTfh,3ka7ijsnx9iy5qpdnesn7gsg38gpb3,3r2pkq87n0l4uf40saxe1jypce3im1,mE8uQTfh,2020-0188,2020-05-07,17:36:22,17:59:46,NA,incomplete,237,color,1,left,Purple_Plus_Grid_1.jpg,Purple_Triangle_Stripes_3.jpg,Red_Plus_Dots_2.jpg,left,511.91000000108033,true,high,false
mE8uQTfh,3ka7ijsnx9iy5qpdnesn7gsg38gpb3,3r2pkq87n0l4uf40saxe1jypce3im1,mE8uQTfh,2020-0188,2020-05-07,17:36:22,17:59:46,NA,incomplete,238,color,1,left,Blue_Circle_Grid_4.jpg,Blue_Triangle_Dots_2.jpg,Green_Circle_Stripes_1.jpg,left,617.8199999995995,true,high,false
mE8uQTfh,3ka7ijsnx9iy5qpdnesn7gsg38gpb3,3r2pkq87n0l4uf40saxe1jypce3im1,mE8uQTfh,2020-0188,2020-05-07,17:36:22,17:59:46,NA,incomplete,239,color,1,left,Green_Circle_Stripes_4.jpg,Green_Star_Grid_3.jpg,Blue_Circle_Dots_2.jpg,left,612.8850000095554,true,high,false
mE8uQTfh,3ka7ijsnx9iy5qpdnesn7gsg38gpb3,3r2pkq87n0l4uf40saxe1jypce3im1,mE8uQTfh,2020-0188,2020-05-07,17:36:22,17:59:46,1364085.4300000065,1403965.750000003,NA,NA,NA,NA,NA,NA,NA,NA,NA,NA,NA,undefined
