workerId,hitId,assignmentId,subject,studyid,exp_date,exp_start,exp_end,time_start,time_end,trial,type,reward_validity,answer,image_top,image_left,image_right,response,response_time,response_acc,volatility,practice
tWfiV0VF,385mdvingfsu7ikqnsjzxyjp4abjww,3r6p78pk7ooubjopbjyn2lg1sf3gth,tWfiV0VF,2020-0188,2020-05-08,13:04:58,13:21:11,NA,incomplete,0,color,1,left,Green_Triangle_Stripes_3.jpg,Green_Star_Grid_4.jpg,Blue_Plus_Stripes_1.jpg,left,1541.9099999999162,true,NA,true
tWfiV0VF,385mdvingfsu7ikqnsjzxyjp4abjww,3r6p78pk7ooubjopbjyn2lg1sf3gth,tWfiV0VF,2020-0188,2020-05-08,13:04:58,13:21:11,NA,incomplete,1,color,1,right,Red_Plus_Grid_1.jpg,Green_Circle_Grid_2.jpg,Red_Star_Chess_4.jpg,right,1168.479999999341,true,NA,true
tWfiV0VF,385mdvingfsu7ikqnsjzxyjp4abjww,3r6p78pk7ooubjopbjyn2lg1sf3gth,tWfiV0VF,2020-0188,2020-05-08,13:04:58,13:21:11,NA,incomplete,2,color,1,right,Green_Circle_Dots_4.jpg,Blue_Star_Dots_2.jpg,Green_Triangle_Stripes_1.jpg,right,772.4600000001374,true,NA,true
tWfiV0VF,385mdvingfsu7ikqnsjzxyjp4abjww,3r6p78pk7ooubjopbjyn2lg1sf3gth,tWfiV0VF,2020-0188,2020-05-08,13:04:58,13:21:11,NA,incomplete,3,color,1,right,Blue_Star_Dots_3.jpg,Green_Triangle_Dots_2.jpg,Blue_Plus_Grid_4.jpg,right,637.134999999922,true,NA,true
tWfiV0VF,385mdvingfsu7ikqnsjzxyjp4abjww,3r6p78pk7ooubjopbjyn2lg1sf3gth,tWfiV0VF,2020-0188,2020-05-08,13:04:58,13:21:11,NA,incomplete,4,color,1,right,Green_Circle_Stripes_3.jpg,Red_Plus_Stripes_2.jpg,Green_Triangle_Dots_1.jpg,right,811.9349999997357,true,NA,true
tWfiV0VF,385mdvingfsu7ikqnsjzxyjp4abjww,3r6p78pk7ooubjopbjyn2lg1sf3gth,tWfiV0VF,2020-0188,2020-05-08,13:04:58,13:21:11,NA,incomplete,5,color,1,right,Green_Star_Chess_3.jpg,Blue_Circle_Chess_1.jpg,Green_Triangle_Stripes_2.jpg,right,635.1350000004168,true,NA,true
tWfiV0VF,385mdvingfsu7ikqnsjzxyjp4abjww,3r6p78pk7ooubjopbjyn2lg1sf3gth,tWfiV0VF,2020-0188,2020-05-08,13:04:58,13:21:11,NA,incomplete,6,color,1,left,Purple_Circle_Stripes_1.jpg,Purple_Plus_Chess_2.jpg,Blue_Star_Stripes_3.jpg,right,821.8050000004878,false,NA,true
tWfiV0VF,385mdvingfsu7ikqnsjzxyjp4abjww,3r6p78pk7ooubjopbjyn2lg1sf3gth,tWfiV0VF,2020-0188,2020-05-08,13:04:58,13:21:11,NA,incomplete,7,color,1,left,Green_Plus_Grid_3.jpg,Green_Circle_Dots_2.jpg,Purple_Triangle_Grid_1.jpg,left,717.1099999995786,true,NA,true
tWfiV0VF,385mdvingfsu7ikqnsjzxyjp4abjww,3r6p78pk7ooubjopbjyn2lg1sf3gth,tWfiV0VF,2020-0188,2020-05-08,13:04:58,13:21:11,NA,incomplete,8,color,1,right,Red_Circle_Grid_1.jpg,Green_Plus_Grid_3.jpg,Red_Triangle_Stripes_4.jpg,right,757.7699999992619,true,NA,true
tWfiV0VF,385mdvingfsu7ikqnsjzxyjp4abjww,3r6p78pk7ooubjopbjyn2lg1sf3gth,tWfiV0VF,2020-0188,2020-05-08,13:04:58,13:21:11,NA,incomplete,9,color,1,left,Purple_Circle_Chess_2.jpg,Purple_Plus_Stripes_1.jpg,Blue_Triangle_Chess_3.jpg,left,979.7799999996787,true,NA,true
tWfiV0VF,385mdvingfsu7ikqnsjzxyjp4abjww,3r6p78pk7ooubjopbjyn2lg1sf3gth,tWfiV0VF,2020-0188,2020-05-08,13:04:58,13:21:11,NA,incomplete,10,color,1,right,Green_Triangle_Stripes_4.jpg,Blue_Circle_Stripes_1.jpg,Green_Plus_Dots_3.jpg,right,720.5299999995914,true,NA,true
tWfiV0VF,385mdvingfsu7ikqnsjzxyjp4abjww,3r6p78pk7ooubjopbjyn2lg1sf3gth,tWfiV0VF,2020-0188,2020-05-08,13:04:58,13:21:11,NA,incomplete,11,color,0,right,Green_Triangle_Dots_3.jpg,Red_Star_Dots_1.jpg,Green_Circle_Chess_4.jpg,right,628.939999999624,true,NA,true
tWfiV0VF,385mdvingfsu7ikqnsjzxyjp4abjww,3r6p78pk7ooubjopbjyn2lg1sf3gth,tWfiV0VF,2020-0188,2020-05-08,13:04:58,13:21:11,NA,incomplete,12,color,0,right,Blue_Plus_Dots_4.jpg,Red_Star_Dots_3.jpg,Blue_Triangle_Stripes_2.jpg,right,814.494999999617,true,NA,true
tWfiV0VF,385mdvingfsu7ikqnsjzxyjp4abjww,3r6p78pk7ooubjopbjyn2lg1sf3gth,tWfiV0VF,2020-0188,2020-05-08,13:04:58,13:21:11,NA,incomplete,13,color,1,left,Red_Triangle_Grid_1.jpg,Red_Circle_Chess_3.jpg,Purple_Plus_Grid_4.jpg,left,875.6399999992864,true,NA,true
tWfiV0VF,385mdvingfsu7ikqnsjzxyjp4abjww,3r6p78pk7ooubjopbjyn2lg1sf3gth,tWfiV0VF,2020-0188,2020-05-08,13:04:58,13:21:11,NA,incomplete,14,color,1,right,Green_Plus_Chess_3.jpg,Blue_Circle_Chess_4.jpg,Green_Triangle_Dots_2.jpg,right,891.8449999991863,true,NA,true
tWfiV0VF,385mdvingfsu7ikqnsjzxyjp4abjww,3r6p78pk7ooubjopbjyn2lg1sf3gth,tWfiV0VF,2020-0188,2020-05-08,13:04:58,13:21:11,NA,incomplete,15,color,1,right,Green_Star_Grid_4.jpg,Purple_Plus_Grid_2.jpg,Green_Triangle_Stripes_3.jpg,right,685.9800000001851,true,NA,true
tWfiV0VF,385mdvingfsu7ikqnsjzxyjp4abjww,3r6p78pk7ooubjopbjyn2lg1sf3gth,tWfiV0VF,2020-0188,2020-05-08,13:04:58,13:21:11,NA,incomplete,16,color,1,left,Red_Circle_Chess_4.jpg,Red_Plus_Dots_3.jpg,Blue_Star_Chess_2.jpg,left,643.6350000003586,true,NA,true
tWfiV0VF,385mdvingfsu7ikqnsjzxyjp4abjww,3r6p78pk7ooubjopbjyn2lg1sf3gth,tWfiV0VF,2020-0188,2020-05-08,13:04:58,13:21:11,NA,incomplete,17,color,1,left,Red_Plus_Chess_2.jpg,Red_Circle_Grid_4.jpg,Purple_Triangle_Chess_1.jpg,left,630.7949999991397,true,NA,true
tWfiV0VF,385mdvingfsu7ikqnsjzxyjp4abjww,3r6p78pk7ooubjopbjyn2lg1sf3gth,tWfiV0VF,2020-0188,2020-05-08,13:04:58,13:21:11,NA,incomplete,18,color,1,right,Purple_Star_Stripes_2.jpg,Red_Triangle_Stripes_1.jpg,Purple_Circle_Dots_4.jpg,right,578.0899999999674,true,NA,true
tWfiV0VF,385mdvingfsu7ikqnsjzxyjp4abjww,3r6p78pk7ooubjopbjyn2lg1sf3gth,tWfiV0VF,2020-0188,2020-05-08,13:04:58,13:21:11,NA,incomplete,19,color,0,left,Purple_Star_Chess_2.jpg,Purple_Circle_Grid_4.jpg,Green_Plus_Chess_3.jpg,left,587.3599999995204,true,NA,true
tWfiV0VF,385mdvingfsu7ikqnsjzxyjp4abjww,3r6p78pk7ooubjopbjyn2lg1sf3gth,tWfiV0VF,2020-0188,2020-05-08,13:04:58,13:21:11,NA,incomplete,20,filling,1,right,Purple_Plus_Chess_1.jpg,Purple_Star_Dots_2.jpg,Blue_Circle_Chess_4.jpg,right,1800.2699999997276,true,NA,true
tWfiV0VF,385mdvingfsu7ikqnsjzxyjp4abjww,3r6p78pk7ooubjopbjyn2lg1sf3gth,tWfiV0VF,2020-0188,2020-05-08,13:04:58,13:21:11,NA,incomplete,21,filling,1,left,Blue_Star_Chess_2.jpg,Purple_Plus_Chess_4.jpg,Blue_Circle_Dots_3.jpg,left,1442.2150000000256,true,NA,true
tWfiV0VF,385mdvingfsu7ikqnsjzxyjp4abjww,3r6p78pk7ooubjopbjyn2lg1sf3gth,tWfiV0VF,2020-0188,2020-05-08,13:04:58,13:21:11,NA,incomplete,22,filling,1,left,Red_Plus_Grid_3.jpg,Green_Triangle_Grid_2.jpg,Red_Star_Stripes_1.jpg,left,1438.8499999995402,true,NA,true
tWfiV0VF,385mdvingfsu7ikqnsjzxyjp4abjww,3r6p78pk7ooubjopbjyn2lg1sf3gth,tWfiV0VF,2020-0188,2020-05-08,13:04:58,13:21:11,NA,incomplete,23,filling,1,right,Purple_Plus_Chess_2.jpg,Purple_Star_Stripes_3.jpg,Blue_Triangle_Chess_1.jpg,left,1141.005000000383,false,NA,true
tWfiV0VF,385mdvingfsu7ikqnsjzxyjp4abjww,3r6p78pk7ooubjopbjyn2lg1sf3gth,tWfiV0VF,2020-0188,2020-05-08,13:04:58,13:21:11,NA,incomplete,24,filling,1,left,Purple_Star_Stripes_3.jpg,Blue_Plus_Stripes_4.jpg,Purple_Triangle_Grid_1.jpg,right,1262.9649999999092,false,NA,true
tWfiV0VF,385mdvingfsu7ikqnsjzxyjp4abjww,3r6p78pk7ooubjopbjyn2lg1sf3gth,tWfiV0VF,2020-0188,2020-05-08,13:04:58,13:21:11,NA,incomplete,25,filling,1,left,Blue_Circle_Stripes_3.jpg,Green_Triangle_Stripes_1.jpg,Blue_Star_Chess_2.jpg,left,1296.3900000004505,true,NA,true
tWfiV0VF,385mdvingfsu7ikqnsjzxyjp4abjww,3r6p78pk7ooubjopbjyn2lg1sf3gth,tWfiV0VF,2020-0188,2020-05-08,13:04:58,13:21:11,NA,incomplete,26,filling,1,left,Green_Star_Stripes_3.jpg,Blue_Circle_Stripes_4.jpg,Green_Triangle_Dots_1.jpg,left,1130.0849999997881,true,NA,true
tWfiV0VF,385mdvingfsu7ikqnsjzxyjp4abjww,3r6p78pk7ooubjopbjyn2lg1sf3gth,tWfiV0VF,2020-0188,2020-05-08,13:04:58,13:21:11,NA,incomplete,27,filling,0,right,Purple_Circle_Grid_4.jpg,Purple_Triangle_Dots_3.jpg,Green_Plus_Grid_1.jpg,right,1378.8849999991653,true,NA,true
tWfiV0VF,385mdvingfsu7ikqnsjzxyjp4abjww,3r6p78pk7ooubjopbjyn2lg1sf3gth,tWfiV0VF,2020-0188,2020-05-08,13:04:58,13:21:11,NA,incomplete,28,filling,0,right,Green_Plus_Stripes_2.jpg,Green_Triangle_Chess_1.jpg,Red_Circle_Stripes_3.jpg,right,1518.4300000000512,true,NA,true
tWfiV0VF,385mdvingfsu7ikqnsjzxyjp4abjww,3r6p78pk7ooubjopbjyn2lg1sf3gth,tWfiV0VF,2020-0188,2020-05-08,13:04:58,13:21:11,NA,incomplete,29,filling,1,left,Blue_Triangle_Dots_1.jpg,Purple_Circle_Dots_2.jpg,Blue_Star_Stripes_3.jpg,left,1607.715000000113,true,NA,true
tWfiV0VF,385mdvingfsu7ikqnsjzxyjp4abjww,3r6p78pk7ooubjopbjyn2lg1sf3gth,tWfiV0VF,2020-0188,2020-05-08,13:04:58,13:21:11,NA,incomplete,30,filling,0,right,Red_Plus_Stripes_4.jpg,Red_Star_Grid_3.jpg,Blue_Circle_Stripes_2.jpg,right,1557.8949999999313,true,NA,true
tWfiV0VF,385mdvingfsu7ikqnsjzxyjp4abjww,3r6p78pk7ooubjopbjyn2lg1sf3gth,tWfiV0VF,2020-0188,2020-05-08,13:04:58,13:21:11,NA,incomplete,31,filling,1,left,Blue_Circle_Stripes_2.jpg,Purple_Plus_Stripes_4.jpg,Blue_Triangle_Dots_1.jpg,left,1637.894999999844,true,NA,true
tWfiV0VF,385mdvingfsu7ikqnsjzxyjp4abjww,3r6p78pk7ooubjopbjyn2lg1sf3gth,tWfiV0VF,2020-0188,2020-05-08,13:04:58,13:21:11,NA,incomplete,32,filling,1,left,Red_Triangle_Dots_2.jpg,Green_Star_Dots_4.jpg,Red_Circle_Chess_3.jpg,left,1901.0749999997497,true,NA,true
tWfiV0VF,385mdvingfsu7ikqnsjzxyjp4abjww,3r6p78pk7ooubjopbjyn2lg1sf3gth,tWfiV0VF,2020-0188,2020-05-08,13:04:58,13:21:11,NA,incomplete,33,filling,1,right,Blue_Circle_Stripes_3.jpg,Blue_Triangle_Grid_4.jpg,Purple_Plus_Stripes_1.jpg,right,1411.4849999996077,true,NA,true
tWfiV0VF,385mdvingfsu7ikqnsjzxyjp4abjww,3r6p78pk7ooubjopbjyn2lg1sf3gth,tWfiV0VF,2020-0188,2020-05-08,13:04:58,13:21:11,NA,incomplete,34,filling,1,left,Red_Plus_Stripes_1.jpg,Green_Triangle_Stripes_4.jpg,Red_Star_Chess_3.jpg,left,1385.049999999872,true,NA,true
tWfiV0VF,385mdvingfsu7ikqnsjzxyjp4abjww,3r6p78pk7ooubjopbjyn2lg1sf3gth,tWfiV0VF,2020-0188,2020-05-08,13:04:58,13:21:11,NA,incomplete,35,filling,1,right,Blue_Triangle_Grid_4.jpg,Blue_Plus_Stripes_1.jpg,Green_Star_Grid_2.jpg,right,1656.4050000006391,true,NA,true
tWfiV0VF,385mdvingfsu7ikqnsjzxyjp4abjww,3r6p78pk7ooubjopbjyn2lg1sf3gth,tWfiV0VF,2020-0188,2020-05-08,13:04:58,13:21:11,NA,incomplete,36,filling,1,left,Blue_Circle_Dots_4.jpg,Green_Plus_Dots_2.jpg,Blue_Star_Chess_1.jpg,left,1725.9300000005169,true,NA,true
tWfiV0VF,385mdvingfsu7ikqnsjzxyjp4abjww,3r6p78pk7ooubjopbjyn2lg1sf3gth,tWfiV0VF,2020-0188,2020-05-08,13:04:58,13:21:11,NA,incomplete,37,filling,0,left,Green_Circle_Chess_1.jpg,Red_Plus_Chess_3.jpg,Green_Triangle_Stripes_4.jpg,left,1488.96499999956,true,NA,true
tWfiV0VF,385mdvingfsu7ikqnsjzxyjp4abjww,3r6p78pk7ooubjopbjyn2lg1sf3gth,tWfiV0VF,2020-0188,2020-05-08,13:04:58,13:21:11,NA,incomplete,38,filling,0,right,Green_Plus_Chess_2.jpg,Green_Star_Dots_3.jpg,Red_Circle_Chess_1.jpg,right,1379.3749999995343,true,NA,true
tWfiV0VF,385mdvingfsu7ikqnsjzxyjp4abjww,3r6p78pk7ooubjopbjyn2lg1sf3gth,tWfiV0VF,2020-0188,2020-05-08,13:04:58,13:21:11,NA,incomplete,39,filling,1,right,Purple_Star_Grid_4.jpg,Purple_Triangle_Stripes_3.jpg,Red_Plus_Grid_1.jpg,right,1978.1450000000768,true,NA,true
tWfiV0VF,385mdvingfsu7ikqnsjzxyjp4abjww,3r6p78pk7ooubjopbjyn2lg1sf3gth,tWfiV0VF,2020-0188,2020-05-08,13:04:58,13:21:11,NA,incomplete,0,color,1,right,Purple_Plus_Chess_2.jpg,Red_Star_Chess_4.jpg,Purple_Triangle_Stripes_1.jpg,right,1545.3800000004703,true,high,false
tWfiV0VF,385mdvingfsu7ikqnsjzxyjp4abjww,3r6p78pk7ooubjopbjyn2lg1sf3gth,tWfiV0VF,2020-0188,2020-05-08,13:04:58,13:21:11,NA,incomplete,1,color,1,right,Blue_Triangle_Stripes_3.jpg,Purple_Star_Stripes_1.jpg,Blue_Plus_Dots_2.jpg,left,996.6599999997998,false,high,false
tWfiV0VF,385mdvingfsu7ikqnsjzxyjp4abjww,3r6p78pk7ooubjopbjyn2lg1sf3gth,tWfiV0VF,2020-0188,2020-05-08,13:04:58,13:21:11,NA,incomplete,2,color,1,right,Blue_Star_Stripes_1.jpg,Red_Circle_Stripes_2.jpg,Blue_Triangle_Grid_3.jpg,right,771.4100000002654,true,high,false
tWfiV0VF,385mdvingfsu7ikqnsjzxyjp4abjww,3r6p78pk7ooubjopbjyn2lg1sf3gth,tWfiV0VF,2020-0188,2020-05-08,13:04:58,13:21:11,NA,incomplete,3,color,0,right,Purple_Star_Chess_3.jpg,Blue_Circle_Chess_2.jpg,Purple_Plus_Stripes_1.jpg,right,942.029999999213,true,high,false
tWfiV0VF,385mdvingfsu7ikqnsjzxyjp4abjww,3r6p78pk7ooubjopbjyn2lg1sf3gth,tWfiV0VF,2020-0188,2020-05-08,13:04:58,13:21:11,NA,incomplete,4,color,1,right,Red_Star_Grid_1.jpg,Purple_Circle_Grid_4.jpg,Red_Plus_Dots_3.jpg,left,1100.3399999999674,false,high,false
tWfiV0VF,385mdvingfsu7ikqnsjzxyjp4abjww,3r6p78pk7ooubjopbjyn2lg1sf3gth,tWfiV0VF,2020-0188,2020-05-08,13:04:58,13:21:11,NA,incomplete,5,color,1,left,Blue_Circle_Grid_1.jpg,Blue_Star_Chess_2.jpg,Purple_Plus_Grid_3.jpg,left,1519.970000000263,true,high,false
tWfiV0VF,385mdvingfsu7ikqnsjzxyjp4abjww,3r6p78pk7ooubjopbjyn2lg1sf3gth,tWfiV0VF,2020-0188,2020-05-08,13:04:58,13:21:11,NA,incomplete,6,color,1,right,Purple_Star_Dots_1.jpg,Blue_Plus_Dots_3.jpg,Purple_Triangle_Chess_2.jpg,right,1446.700000000419,true,high,false
tWfiV0VF,385mdvingfsu7ikqnsjzxyjp4abjww,3r6p78pk7ooubjopbjyn2lg1sf3gth,tWfiV0VF,2020-0188,2020-05-08,13:04:58,13:21:11,NA,incomplete,7,color,1,left,Purple_Plus_Chess_3.jpg,Purple_Star_Stripes_1.jpg,Blue_Circle_Chess_2.jpg,left,925.4400000000023,true,high,false
tWfiV0VF,385mdvingfsu7ikqnsjzxyjp4abjww,3r6p78pk7ooubjopbjyn2lg1sf3gth,tWfiV0VF,2020-0188,2020-05-08,13:04:58,13:21:11,NA,incomplete,8,color,1,left,Green_Circle_Dots_3.jpg,Green_Triangle_Chess_2.jpg,Purple_Plus_Dots_4.jpg,left,737.7600000000093,true,high,false
tWfiV0VF,385mdvingfsu7ikqnsjzxyjp4abjww,3r6p78pk7ooubjopbjyn2lg1sf3gth,tWfiV0VF,2020-0188,2020-05-08,13:04:58,13:21:11,NA,incomplete,9,color,1,left,Red_Plus_Grid_4.jpg,Red_Star_Stripes_2.jpg,Purple_Circle_Grid_1.jpg,left,716.8999999994412,true,high,false
tWfiV0VF,385mdvingfsu7ikqnsjzxyjp4abjww,3r6p78pk7ooubjopbjyn2lg1sf3gth,tWfiV0VF,2020-0188,2020-05-08,13:04:58,13:21:11,NA,incomplete,10,filling,1,right,Blue_Triangle_Stripes_4.jpg,Blue_Circle_Dots_2.jpg,Purple_Plus_Stripes_1.jpg,left,1347.399999999674,false,high,false
tWfiV0VF,385mdvingfsu7ikqnsjzxyjp4abjww,3r6p78pk7ooubjopbjyn2lg1sf3gth,tWfiV0VF,2020-0188,2020-05-08,13:04:58,13:21:11,NA,incomplete,11,filling,1,right,Purple_Triangle_Stripes_1.jpg,Purple_Star_Dots_2.jpg,Blue_Plus_Stripes_4.jpg,right,1448.9949999997625,true,high,false
tWfiV0VF,385mdvingfsu7ikqnsjzxyjp4abjww,3r6p78pk7ooubjopbjyn2lg1sf3gth,tWfiV0VF,2020-0188,2020-05-08,13:04:58,13:21:11,NA,incomplete,12,filling,0,left,Purple_Circle_Dots_3.jpg,Blue_Star_Dots_4.jpg,Purple_Triangle_Chess_2.jpg,left,1573.6249999999418,true,high,false
tWfiV0VF,385mdvingfsu7ikqnsjzxyjp4abjww,3r6p78pk7ooubjopbjyn2lg1sf3gth,tWfiV0VF,2020-0188,2020-05-08,13:04:58,13:21:11,NA,incomplete,13,filling,1,right,Red_Triangle_Grid_4.jpg,Red_Plus_Chess_1.jpg,Green_Circle_Grid_3.jpg,right,1303.9600000001956,true,high,false
tWfiV0VF,385mdvingfsu7ikqnsjzxyjp4abjww,3r6p78pk7ooubjopbjyn2lg1sf3gth,tWfiV0VF,2020-0188,2020-05-08,13:04:58,13:21:11,NA,incomplete,14,filling,1,right,Purple_Star_Chess_1.jpg,Purple_Plus_Dots_2.jpg,Red_Triangle_Chess_4.jpg,left,1392.185000000638,false,high,false
tWfiV0VF,385mdvingfsu7ikqnsjzxyjp4abjww,3r6p78pk7ooubjopbjyn2lg1sf3gth,tWfiV0VF,2020-0188,2020-05-08,13:04:58,13:21:11,NA,incomplete,15,filling,1,left,Green_Triangle_Grid_1.jpg,Purple_Star_Grid_3.jpg,Green_Plus_Dots_2.jpg,right,1061.1300000000629,false,high,false
tWfiV0VF,385mdvingfsu7ikqnsjzxyjp4abjww,3r6p78pk7ooubjopbjyn2lg1sf3gth,tWfiV0VF,2020-0188,2020-05-08,13:04:58,13:21:11,NA,incomplete,16,filling,1,left,Purple_Star_Dots_2.jpg,Blue_Triangle_Dots_4.jpg,Purple_Circle_Chess_1.jpg,right,1733.8199999994831,false,high,false
tWfiV0VF,385mdvingfsu7ikqnsjzxyjp4abjww,3r6p78pk7ooubjopbjyn2lg1sf3gth,tWfiV0VF,2020-0188,2020-05-08,13:04:58,13:21:11,NA,incomplete,17,filling,1,right,Blue_Star_Grid_3.jpg,Blue_Triangle_Stripes_2.jpg,Green_Plus_Grid_1.jpg,left,1052.3699999994133,false,high,false
tWfiV0VF,385mdvingfsu7ikqnsjzxyjp4abjww,3r6p78pk7ooubjopbjyn2lg1sf3gth,tWfiV0VF,2020-0188,2020-05-08,13:04:58,13:21:11,NA,incomplete,18,filling,1,left,Red_Plus_Dots_1.jpg,Purple_Circle_Dots_3.jpg,Red_Triangle_Chess_2.jpg,left,1927.5449999995762,true,high,false
tWfiV0VF,385mdvingfsu7ikqnsjzxyjp4abjww,3r6p78pk7ooubjopbjyn2lg1sf3gth,tWfiV0VF,2020-0188,2020-05-08,13:04:58,13:21:11,NA,incomplete,19,filling,0,left,Green_Star_Stripes_2.jpg,Red_Circle_Stripes_1.jpg,Green_Triangle_Chess_3.jpg,left,1473.8600000001024,true,high,false
tWfiV0VF,385mdvingfsu7ikqnsjzxyjp4abjww,3r6p78pk7ooubjopbjyn2lg1sf3gth,tWfiV0VF,2020-0188,2020-05-08,13:04:58,13:21:11,NA,incomplete,20,color,1,right,Purple_Star_Stripes_4.jpg,Blue_Plus_Stripes_3.jpg,Purple_Circle_Chess_1.jpg,left,1946.6600000005565,false,high,false
tWfiV0VF,385mdvingfsu7ikqnsjzxyjp4abjww,3r6p78pk7ooubjopbjyn2lg1sf3gth,tWfiV0VF,2020-0188,2020-05-08,13:04:58,13:21:11,NA,incomplete,21,color,0,left,Green_Triangle_Grid_2.jpg,Green_Circle_Chess_3.jpg,Red_Star_Grid_1.jpg,left,1071.8150000002352,true,high,false
tWfiV0VF,385mdvingfsu7ikqnsjzxyjp4abjww,3r6p78pk7ooubjopbjyn2lg1sf3gth,tWfiV0VF,2020-0188,2020-05-08,13:04:58,13:21:11,NA,incomplete,22,color,1,right,Red_Circle_Dots_3.jpg,Blue_Plus_Dots_2.jpg,Red_Star_Stripes_1.jpg,right,1110.1449999996112,true,high,false
tWfiV0VF,385mdvingfsu7ikqnsjzxyjp4abjww,3r6p78pk7ooubjopbjyn2lg1sf3gth,tWfiV0VF,2020-0188,2020-05-08,13:04:58,13:21:11,NA,incomplete,23,color,1,right,Green_Triangle_Stripes_2.jpg,Red_Plus_Stripes_1.jpg,Green_Circle_Chess_3.jpg,right,589.230000000447,true,high,false
tWfiV0VF,385mdvingfsu7ikqnsjzxyjp4abjww,3r6p78pk7ooubjopbjyn2lg1sf3gth,tWfiV0VF,2020-0188,2020-05-08,13:04:58,13:21:11,NA,incomplete,24,color,0,right,Green_Star_Chess_4.jpg,Blue_Circle_Chess_1.jpg,Green_Triangle_Dots_3.jpg,right,620.7349999995204,true,high,false
tWfiV0VF,385mdvingfsu7ikqnsjzxyjp4abjww,3r6p78pk7ooubjopbjyn2lg1sf3gth,tWfiV0VF,2020-0188,2020-05-08,13:04:58,13:21:11,NA,incomplete,25,color,1,right,Purple_Star_Grid_1.jpg,Blue_Circle_Grid_3.jpg,Purple_Triangle_Chess_4.jpg,none,0,false,high,false
tWfiV0VF,385mdvingfsu7ikqnsjzxyjp4abjww,3r6p78pk7ooubjopbjyn2lg1sf3gth,tWfiV0VF,2020-0188,2020-05-08,13:04:58,13:21:11,NA,incomplete,26,color,1,right,Blue_Star_Dots_1.jpg,Green_Plus_Dots_3.jpg,Blue_Circle_Chess_4.jpg,right,978.2649999997229,true,high,false
tWfiV0VF,385mdvingfsu7ikqnsjzxyjp4abjww,3r6p78pk7ooubjopbjyn2lg1sf3gth,tWfiV0VF,2020-0188,2020-05-08,13:04:58,13:21:11,NA,incomplete,27,color,1,right,Purple_Plus_Chess_4.jpg,Blue_Star_Chess_2.jpg,Purple_Triangle_Grid_1.jpg,left,1065.895000000659,false,high,false
tWfiV0VF,385mdvingfsu7ikqnsjzxyjp4abjww,3r6p78pk7ooubjopbjyn2lg1sf3gth,tWfiV0VF,2020-0188,2020-05-08,13:04:58,13:21:11,NA,incomplete,28,color,1,left,Blue_Star_Dots_1.jpg,Blue_Triangle_Chess_2.jpg,Green_Plus_Dots_3.jpg,left,1217.5149999993155,true,high,false
tWfiV0VF,385mdvingfsu7ikqnsjzxyjp4abjww,3r6p78pk7ooubjopbjyn2lg1sf3gth,tWfiV0VF,2020-0188,2020-05-08,13:04:58,13:21:11,NA,incomplete,29,color,1,left,Purple_Plus_Dots_1.jpg,Purple_Triangle_Stripes_3.jpg,Red_Star_Dots_2.jpg,left,691.4150000002119,true,high,false
tWfiV0VF,385mdvingfsu7ikqnsjzxyjp4abjww,3r6p78pk7ooubjopbjyn2lg1sf3gth,tWfiV0VF,2020-0188,2020-05-08,13:04:58,13:21:11,NA,incomplete,30,filling,1,left,Blue_Triangle_Stripes_4.jpg,Purple_Plus_Stripes_1.jpg,Blue_Star_Grid_2.jpg,right,680.2100000004284,false,high,false
tWfiV0VF,385mdvingfsu7ikqnsjzxyjp4abjww,3r6p78pk7ooubjopbjyn2lg1sf3gth,tWfiV0VF,2020-0188,2020-05-08,13:04:58,13:21:11,NA,incomplete,31,filling,1,left,Purple_Star_Stripes_3.jpg,Blue_Plus_Stripes_2.jpg,Purple_Circle_Chess_4.jpg,right,786.199999999546,false,high,false
tWfiV0VF,385mdvingfsu7ikqnsjzxyjp4abjww,3r6p78pk7ooubjopbjyn2lg1sf3gth,tWfiV0VF,2020-0188,2020-05-08,13:04:58,13:21:11,NA,incomplete,32,filling,1,right,Red_Star_Dots_4.jpg,Red_Plus_Grid_1.jpg,Purple_Triangle_Dots_2.jpg,left,685.2849999995669,false,high,false
tWfiV0VF,385mdvingfsu7ikqnsjzxyjp4abjww,3r6p78pk7ooubjopbjyn2lg1sf3gth,tWfiV0VF,2020-0188,2020-05-08,13:04:58,13:21:11,NA,incomplete,33,filling,1,left,Green_Triangle_Grid_3.jpg,Blue_Star_Grid_2.jpg,Green_Plus_Dots_4.jpg,right,718.1899999995949,false,high,false
tWfiV0VF,385mdvingfsu7ikqnsjzxyjp4abjww,3r6p78pk7ooubjopbjyn2lg1sf3gth,tWfiV0VF,2020-0188,2020-05-08,13:04:58,13:21:11,NA,incomplete,34,filling,1,right,Blue_Star_Stripes_2.jpg,Blue_Triangle_Grid_1.jpg,Green_Plus_Stripes_3.jpg,left,705.0399999998044,false,high,false
tWfiV0VF,385mdvingfsu7ikqnsjzxyjp4abjww,3r6p78pk7ooubjopbjyn2lg1sf3gth,tWfiV0VF,2020-0188,2020-05-08,13:04:58,13:21:11,NA,incomplete,35,filling,0,left,Blue_Star_Stripes_3.jpg,Green_Plus_Stripes_1.jpg,Blue_Triangle_Grid_4.jpg,left,1321.0100000005914,true,high,false
tWfiV0VF,385mdvingfsu7ikqnsjzxyjp4abjww,3r6p78pk7ooubjopbjyn2lg1sf3gth,tWfiV0VF,2020-0188,2020-05-08,13:04:58,13:21:11,NA,incomplete,36,filling,1,right,Purple_Circle_Grid_4.jpg,Purple_Triangle_Chess_2.jpg,Blue_Plus_Grid_3.jpg,right,1298.7149999999092,true,high,false
tWfiV0VF,385mdvingfsu7ikqnsjzxyjp4abjww,3r6p78pk7ooubjopbjyn2lg1sf3gth,tWfiV0VF,2020-0188,2020-05-08,13:04:58,13:21:11,NA,incomplete,37,filling,1,left,Purple_Plus_Stripes_4.jpg,Blue_Star_Stripes_2.jpg,Purple_Circle_Dots_3.jpg,left,1205.904999999795,true,high,false
tWfiV0VF,385mdvingfsu7ikqnsjzxyjp4abjww,3r6p78pk7ooubjopbjyn2lg1sf3gth,tWfiV0VF,2020-0188,2020-05-08,13:04:58,13:21:11,NA,incomplete,38,filling,0,left,Purple_Plus_Grid_2.jpg,Red_Circle_Grid_1.jpg,Purple_Star_Chess_3.jpg,right,985.2099999998463,false,high,false
tWfiV0VF,385mdvingfsu7ikqnsjzxyjp4abjww,3r6p78pk7ooubjopbjyn2lg1sf3gth,tWfiV0VF,2020-0188,2020-05-08,13:04:58,13:21:11,NA,incomplete,39,filling,0,left,Blue_Triangle_Chess_3.jpg,Green_Circle_Chess_4.jpg,Blue_Plus_Dots_2.jpg,right,1114.4500000000116,false,high,false
tWfiV0VF,385mdvingfsu7ikqnsjzxyjp4abjww,3r6p78pk7ooubjopbjyn2lg1sf3gth,tWfiV0VF,2020-0188,2020-05-08,13:04:58,13:21:11,NA,incomplete,40,color,1,right,Blue_Circle_Stripes_4.jpg,Green_Plus_Stripes_2.jpg,Blue_Triangle_Grid_3.jpg,left,1287.5700000004144,false,high,false
tWfiV0VF,385mdvingfsu7ikqnsjzxyjp4abjww,3r6p78pk7ooubjopbjyn2lg1sf3gth,tWfiV0VF,2020-0188,2020-05-08,13:04:58,13:21:11,NA,incomplete,41,color,1,left,Blue_Star_Chess_4.jpg,Blue_Triangle_Stripes_3.jpg,Green_Plus_Chess_2.jpg,right,1349.7150000002584,false,high,false
tWfiV0VF,385mdvingfsu7ikqnsjzxyjp4abjww,3r6p78pk7ooubjopbjyn2lg1sf3gth,tWfiV0VF,2020-0188,2020-05-08,13:04:58,13:21:11,NA,incomplete,42,color,1,right,Blue_Triangle_Grid_2.jpg,Green_Circle_Grid_3.jpg,Blue_Plus_Stripes_4.jpg,left,1145.5249999999069,false,high,false
tWfiV0VF,385mdvingfsu7ikqnsjzxyjp4abjww,3r6p78pk7ooubjopbjyn2lg1sf3gth,tWfiV0VF,2020-0188,2020-05-08,13:04:58,13:21:11,NA,incomplete,43,color,0,right,Red_Star_Stripes_1.jpg,Blue_Circle_Stripes_4.jpg,Red_Triangle_Dots_2.jpg,right,1118.554999999993,true,high,false
tWfiV0VF,385mdvingfsu7ikqnsjzxyjp4abjww,3r6p78pk7ooubjopbjyn2lg1sf3gth,tWfiV0VF,2020-0188,2020-05-08,13:04:58,13:21:11,NA,incomplete,44,color,1,right,Purple_Triangle_Stripes_2.jpg,Green_Star_Stripes_4.jpg,Purple_Circle_Grid_3.jpg,right,1124.4400000005262,true,high,false
tWfiV0VF,385mdvingfsu7ikqnsjzxyjp4abjww,3r6p78pk7ooubjopbjyn2lg1sf3gth,tWfiV0VF,2020-0188,2020-05-08,13:04:58,13:21:11,NA,incomplete,45,color,1,left,Blue_Circle_Dots_2.jpg,Blue_Triangle_Stripes_3.jpg,Purple_Plus_Dots_4.jpg,left,753.7949999996345,true,high,false
tWfiV0VF,385mdvingfsu7ikqnsjzxyjp4abjww,3r6p78pk7ooubjopbjyn2lg1sf3gth,tWfiV0VF,2020-0188,2020-05-08,13:04:58,13:21:11,NA,incomplete,46,color,1,right,Red_Star_Grid_2.jpg,Blue_Circle_Grid_3.jpg,Red_Triangle_Stripes_1.jpg,right,1190.2200000004377,true,high,false
tWfiV0VF,385mdvingfsu7ikqnsjzxyjp4abjww,3r6p78pk7ooubjopbjyn2lg1sf3gth,tWfiV0VF,2020-0188,2020-05-08,13:04:58,13:21:11,NA,incomplete,47,color,0,right,Green_Triangle_Chess_2.jpg,Blue_Star_Chess_1.jpg,Green_Plus_Stripes_3.jpg,right,979.0500000008033,true,high,false
tWfiV0VF,385mdvingfsu7ikqnsjzxyjp4abjww,3r6p78pk7ooubjopbjyn2lg1sf3gth,tWfiV0VF,2020-0188,2020-05-08,13:04:58,13:21:11,NA,incomplete,48,color,1,right,Purple_Plus_Chess_3.jpg,Red_Circle_Chess_1.jpg,Purple_Star_Dots_2.jpg,left,1025.9999999998254,false,high,false
tWfiV0VF,385mdvingfsu7ikqnsjzxyjp4abjww,3r6p78pk7ooubjopbjyn2lg1sf3gth,tWfiV0VF,2020-0188,2020-05-08,13:04:58,13:21:11,NA,incomplete,49,color,1,right,Green_Triangle_Stripes_3.jpg,Purple_Star_Stripes_2.jpg,Green_Circle_Dots_1.jpg,left,1272.5949999994482,false,high,false
tWfiV0VF,385mdvingfsu7ikqnsjzxyjp4abjww,3r6p78pk7ooubjopbjyn2lg1sf3gth,tWfiV0VF,2020-0188,2020-05-08,13:04:58,13:21:11,NA,incomplete,50,filling,1,right,Green_Star_Stripes_3.jpg,Green_Triangle_Chess_1.jpg,Red_Plus_Stripes_2.jpg,left,1058.4349999998813,false,high,false
tWfiV0VF,385mdvingfsu7ikqnsjzxyjp4abjww,3r6p78pk7ooubjopbjyn2lg1sf3gth,tWfiV0VF,2020-0188,2020-05-08,13:04:58,13:21:11,NA,incomplete,51,filling,1,right,Red_Circle_Dots_2.jpg,Red_Triangle_Chess_3.jpg,Blue_Plus_Dots_4.jpg,right,891.4999999997672,true,high,false
tWfiV0VF,385mdvingfsu7ikqnsjzxyjp4abjww,3r6p78pk7ooubjopbjyn2lg1sf3gth,tWfiV0VF,2020-0188,2020-05-08,13:04:58,13:21:11,NA,incomplete,52,filling,0,right,Green_Circle_Grid_4.jpg,Green_Plus_Stripes_2.jpg,Red_Triangle_Grid_3.jpg,left,751.7499999994761,false,high,false
tWfiV0VF,385mdvingfsu7ikqnsjzxyjp4abjww,3r6p78pk7ooubjopbjyn2lg1sf3gth,tWfiV0VF,2020-0188,2020-05-08,13:04:58,13:21:11,NA,incomplete,53,filling,1,left,Blue_Star_Chess_1.jpg,Green_Triangle_Chess_3.jpg,Blue_Circle_Stripes_2.jpg,right,818.229999999865,false,high,false
tWfiV0VF,385mdvingfsu7ikqnsjzxyjp4abjww,3r6p78pk7ooubjopbjyn2lg1sf3gth,tWfiV0VF,2020-0188,2020-05-08,13:04:58,13:21:11,NA,incomplete,54,filling,1,right,Purple_Star_Stripes_2.jpg,Purple_Triangle_Chess_3.jpg,Blue_Plus_Stripes_4.jpg,right,1370.5649999992456,true,high,false
tWfiV0VF,385mdvingfsu7ikqnsjzxyjp4abjww,3r6p78pk7ooubjopbjyn2lg1sf3gth,tWfiV0VF,2020-0188,2020-05-08,13:04:58,13:21:11,NA,incomplete,55,filling,1,right,Blue_Triangle_Stripes_4.jpg,Blue_Star_Grid_3.jpg,Green_Plus_Stripes_1.jpg,right,1157.3449999996228,true,high,false
tWfiV0VF,385mdvingfsu7ikqnsjzxyjp4abjww,3r6p78pk7ooubjopbjyn2lg1sf3gth,tWfiV0VF,2020-0188,2020-05-08,13:04:58,13:21:11,NA,incomplete,56,filling,1,left,Green_Triangle_Dots_1.jpg,Red_Plus_Dots_3.jpg,Green_Circle_Chess_2.jpg,right,1058.1650000003865,false,high,false
tWfiV0VF,385mdvingfsu7ikqnsjzxyjp4abjww,3r6p78pk7ooubjopbjyn2lg1sf3gth,tWfiV0VF,2020-0188,2020-05-08,13:04:58,13:21:11,NA,incomplete,57,filling,1,left,Purple_Star_Chess_2.jpg,Green_Circle_Chess_3.jpg,Purple_Triangle_Grid_1.jpg,right,1431.255000000412,false,high,false
tWfiV0VF,385mdvingfsu7ikqnsjzxyjp4abjww,3r6p78pk7ooubjopbjyn2lg1sf3gth,tWfiV0VF,2020-0188,2020-05-08,13:04:58,13:21:11,NA,incomplete,58,filling,1,right,Purple_Plus_Dots_4.jpg,Purple_Star_Chess_3.jpg,Blue_Triangle_Dots_2.jpg,left,1021.604999999865,false,high,false
tWfiV0VF,385mdvingfsu7ikqnsjzxyjp4abjww,3r6p78pk7ooubjopbjyn2lg1sf3gth,tWfiV0VF,2020-0188,2020-05-08,13:04:58,13:21:11,NA,incomplete,59,filling,1,left,Blue_Triangle_Chess_1.jpg,Purple_Circle_Chess_4.jpg,Blue_Star_Grid_2.jpg,right,889.5449999999837,false,high,false
tWfiV0VF,385mdvingfsu7ikqnsjzxyjp4abjww,3r6p78pk7ooubjopbjyn2lg1sf3gth,tWfiV0VF,2020-0188,2020-05-08,13:04:58,13:21:11,NA,incomplete,60,color,0,right,Red_Triangle_Stripes_4.jpg,Green_Circle_Stripes_2.jpg,Red_Plus_Grid_3.jpg,right,822.6150000000489,true,high,false
tWfiV0VF,385mdvingfsu7ikqnsjzxyjp4abjww,3r6p78pk7ooubjopbjyn2lg1sf3gth,tWfiV0VF,2020-0188,2020-05-08,13:04:58,13:21:11,NA,incomplete,61,color,1,left,Purple_Plus_Stripes_2.jpg,Purple_Circle_Grid_3.jpg,Red_Triangle_Stripes_1.jpg,left,767.4349999997648,true,high,false
tWfiV0VF,385mdvingfsu7ikqnsjzxyjp4abjww,3r6p78pk7ooubjopbjyn2lg1sf3gth,tWfiV0VF,2020-0188,2020-05-08,13:04:58,13:21:11,NA,incomplete,62,color,1,right,Blue_Triangle_Chess_4.jpg,Green_Plus_Chess_1.jpg,Blue_Star_Dots_3.jpg,right,642.5899999994435,true,high,false
tWfiV0VF,385mdvingfsu7ikqnsjzxyjp4abjww,3r6p78pk7ooubjopbjyn2lg1sf3gth,tWfiV0VF,2020-0188,2020-05-08,13:04:58,13:21:11,NA,incomplete,63,color,0,left,Blue_Circle_Chess_2.jpg,Blue_Plus_Grid_1.jpg,Red_Star_Chess_4.jpg,left,698.1450000003097,true,high,false
tWfiV0VF,385mdvingfsu7ikqnsjzxyjp4abjww,3r6p78pk7ooubjopbjyn2lg1sf3gth,tWfiV0VF,2020-0188,2020-05-08,13:04:58,13:21:11,NA,incomplete,64,color,1,right,Green_Triangle_Stripes_2.jpg,Red_Circle_Stripes_3.jpg,Green_Plus_Grid_1.jpg,left,1181.1099999995204,false,high,false
tWfiV0VF,385mdvingfsu7ikqnsjzxyjp4abjww,3r6p78pk7ooubjopbjyn2lg1sf3gth,tWfiV0VF,2020-0188,2020-05-08,13:04:58,13:21:11,NA,incomplete,65,color,1,left,Blue_Star_Dots_3.jpg,Blue_Circle_Stripes_2.jpg,Purple_Triangle_Dots_1.jpg,right,1051.9850000000442,false,high,false
tWfiV0VF,385mdvingfsu7ikqnsjzxyjp4abjww,3r6p78pk7ooubjopbjyn2lg1sf3gth,tWfiV0VF,2020-0188,2020-05-08,13:04:58,13:21:11,NA,incomplete,66,color,1,right,Blue_Plus_Dots_2.jpg,Green_Triangle_Dots_4.jpg,Blue_Circle_Stripes_3.jpg,right,678.5200000003679,true,high,false
tWfiV0VF,385mdvingfsu7ikqnsjzxyjp4abjww,3r6p78pk7ooubjopbjyn2lg1sf3gth,tWfiV0VF,2020-0188,2020-05-08,13:04:58,13:21:11,NA,incomplete,67,color,0,left,Blue_Triangle_Dots_4.jpg,Blue_Plus_Grid_2.jpg,Purple_Star_Dots_1.jpg,left,666.635000000475,true,high,false
tWfiV0VF,385mdvingfsu7ikqnsjzxyjp4abjww,3r6p78pk7ooubjopbjyn2lg1sf3gth,tWfiV0VF,2020-0188,2020-05-08,13:04:58,13:21:11,NA,incomplete,68,color,1,right,Red_Plus_Chess_3.jpg,Purple_Triangle_Chess_1.jpg,Red_Star_Dots_2.jpg,right,660.4649999999674,true,high,false
tWfiV0VF,385mdvingfsu7ikqnsjzxyjp4abjww,3r6p78pk7ooubjopbjyn2lg1sf3gth,tWfiV0VF,2020-0188,2020-05-08,13:04:58,13:21:11,NA,incomplete,69,color,0,left,Purple_Plus_Dots_2.jpg,Purple_Triangle_Stripes_4.jpg,Red_Circle_Dots_1.jpg,left,680.0799999991432,true,high,false
tWfiV0VF,385mdvingfsu7ikqnsjzxyjp4abjww,3r6p78pk7ooubjopbjyn2lg1sf3gth,tWfiV0VF,2020-0188,2020-05-08,13:04:58,13:21:11,NA,incomplete,70,filling,1,right,Green_Triangle_Grid_2.jpg,Green_Circle_Stripes_1.jpg,Purple_Plus_Grid_3.jpg,left,689.3249999993714,false,high,false
tWfiV0VF,385mdvingfsu7ikqnsjzxyjp4abjww,3r6p78pk7ooubjopbjyn2lg1sf3gth,tWfiV0VF,2020-0188,2020-05-08,13:04:58,13:21:11,NA,incomplete,71,filling,0,right,Purple_Circle_Chess_4.jpg,Purple_Star_Stripes_1.jpg,Red_Plus_Chess_2.jpg,right,1231.310000000114,true,high,false
tWfiV0VF,385mdvingfsu7ikqnsjzxyjp4abjww,3r6p78pk7ooubjopbjyn2lg1sf3gth,tWfiV0VF,2020-0188,2020-05-08,13:04:58,13:21:11,NA,incomplete,72,filling,1,right,Blue_Triangle_Dots_1.jpg,Blue_Star_Grid_2.jpg,Purple_Circle_Dots_4.jpg,left,659.4349999995902,false,high,false
tWfiV0VF,385mdvingfsu7ikqnsjzxyjp4abjww,3r6p78pk7ooubjopbjyn2lg1sf3gth,tWfiV0VF,2020-0188,2020-05-08,13:04:58,13:21:11,NA,incomplete,73,filling,1,right,Red_Triangle_Chess_2.jpg,Red_Star_Stripes_1.jpg,Green_Circle_Chess_3.jpg,left,1912.000000000291,false,high,false
tWfiV0VF,385mdvingfsu7ikqnsjzxyjp4abjww,3r6p78pk7ooubjopbjyn2lg1sf3gth,tWfiV0VF,2020-0188,2020-05-08,13:04:58,13:21:11,NA,incomplete,74,filling,1,right,Purple_Star_Stripes_3.jpg,Purple_Circle_Dots_4.jpg,Green_Triangle_Stripes_2.jpg,right,1628.3100000000559,true,high,false
tWfiV0VF,385mdvingfsu7ikqnsjzxyjp4abjww,3r6p78pk7ooubjopbjyn2lg1sf3gth,tWfiV0VF,2020-0188,2020-05-08,13:04:58,13:21:11,NA,incomplete,75,filling,1,left,Purple_Plus_Grid_2.jpg,Green_Triangle_Grid_4.jpg,Purple_Star_Dots_1.jpg,left,1497.3249999993714,true,high,false
tWfiV0VF,385mdvingfsu7ikqnsjzxyjp4abjww,3r6p78pk7ooubjopbjyn2lg1sf3gth,tWfiV0VF,2020-0188,2020-05-08,13:04:58,13:21:11,NA,incomplete,76,filling,0,right,Purple_Plus_Stripes_2.jpg,Purple_Star_Grid_4.jpg,Red_Circle_Stripes_3.jpg,right,1287.7949999992852,true,high,false
tWfiV0VF,385mdvingfsu7ikqnsjzxyjp4abjww,3r6p78pk7ooubjopbjyn2lg1sf3gth,tWfiV0VF,2020-0188,2020-05-08,13:04:58,13:21:11,NA,incomplete,77,filling,0,left,Blue_Circle_Stripes_3.jpg,Purple_Star_Stripes_1.jpg,Blue_Triangle_Chess_4.jpg,right,1480.5999999998603,false,high,false
tWfiV0VF,385mdvingfsu7ikqnsjzxyjp4abjww,3r6p78pk7ooubjopbjyn2lg1sf3gth,tWfiV0VF,2020-0188,2020-05-08,13:04:58,13:21:11,NA,incomplete,78,filling,1,left,Green_Circle_Stripes_3.jpg,Blue_Star_Stripes_1.jpg,Green_Plus_Grid_2.jpg,right,1381.8350000001374,false,high,false
tWfiV0VF,385mdvingfsu7ikqnsjzxyjp4abjww,3r6p78pk7ooubjopbjyn2lg1sf3gth,tWfiV0VF,2020-0188,2020-05-08,13:04:58,13:21:11,NA,incomplete,79,filling,1,right,Purple_Plus_Chess_1.jpg,Purple_Star_Stripes_3.jpg,Red_Triangle_Chess_4.jpg,right,1479.1949999998906,true,high,false
tWfiV0VF,385mdvingfsu7ikqnsjzxyjp4abjww,3r6p78pk7ooubjopbjyn2lg1sf3gth,tWfiV0VF,2020-0188,2020-05-08,13:04:58,13:21:11,NA,incomplete,80,color,0,right,Blue_Star_Stripes_1.jpg,Red_Plus_Stripes_3.jpg,Blue_Triangle_Grid_4.jpg,left,1230.3400000000256,false,high,false
tWfiV0VF,385mdvingfsu7ikqnsjzxyjp4abjww,3r6p78pk7ooubjopbjyn2lg1sf3gth,tWfiV0VF,2020-0188,2020-05-08,13:04:58,13:21:11,NA,incomplete,81,color,1,right,Red_Plus_Grid_1.jpg,Purple_Star_Grid_2.jpg,Red_Triangle_Chess_4.jpg,right,1433.5150000006543,true,high,false
tWfiV0VF,385mdvingfsu7ikqnsjzxyjp4abjww,3r6p78pk7ooubjopbjyn2lg1sf3gth,tWfiV0VF,2020-0188,2020-05-08,13:04:58,13:21:11,NA,incomplete,82,color,1,left,Purple_Circle_Stripes_4.jpg,Purple_Star_Chess_1.jpg,Blue_Plus_Stripes_2.jpg,right,1275.2949999994598,false,high,false
tWfiV0VF,385mdvingfsu7ikqnsjzxyjp4abjww,3r6p78pk7ooubjopbjyn2lg1sf3gth,tWfiV0VF,2020-0188,2020-05-08,13:04:58,13:21:11,NA,incomplete,83,color,1,right,Red_Circle_Grid_3.jpg,Blue_Plus_Grid_1.jpg,Red_Star_Stripes_4.jpg,left,1630.235000000568,false,high,false
tWfiV0VF,385mdvingfsu7ikqnsjzxyjp4abjww,3r6p78pk7ooubjopbjyn2lg1sf3gth,tWfiV0VF,2020-0188,2020-05-08,13:04:58,13:21:11,NA,incomplete,84,color,1,right,Purple_Triangle_Dots_4.jpg,Blue_Circle_Dots_3.jpg,Purple_Star_Chess_1.jpg,right,1228.5750000000698,true,high,false
tWfiV0VF,385mdvingfsu7ikqnsjzxyjp4abjww,3r6p78pk7ooubjopbjyn2lg1sf3gth,tWfiV0VF,2020-0188,2020-05-08,13:04:58,13:21:11,NA,incomplete,85,color,1,left,Red_Circle_Stripes_3.jpg,Red_Triangle_Dots_2.jpg,Purple_Star_Stripes_1.jpg,left,942.6599999996834,true,high,false
tWfiV0VF,385mdvingfsu7ikqnsjzxyjp4abjww,3r6p78pk7ooubjopbjyn2lg1sf3gth,tWfiV0VF,2020-0188,2020-05-08,13:04:58,13:21:11,NA,incomplete,86,color,0,right,Green_Triangle_Chess_2.jpg,Blue_Star_Chess_1.jpg,Green_Plus_Dots_4.jpg,right,801.1150000002235,true,high,false
tWfiV0VF,385mdvingfsu7ikqnsjzxyjp4abjww,3r6p78pk7ooubjopbjyn2lg1sf3gth,tWfiV0VF,2020-0188,2020-05-08,13:04:58,13:21:11,NA,incomplete,87,color,1,right,Green_Star_Dots_2.jpg,Red_Circle_Dots_4.jpg,Green_Triangle_Grid_1.jpg,left,1717.2150000005495,false,high,false
tWfiV0VF,385mdvingfsu7ikqnsjzxyjp4abjww,3r6p78pk7ooubjopbjyn2lg1sf3gth,tWfiV0VF,2020-0188,2020-05-08,13:04:58,13:21:11,NA,incomplete,88,color,0,left,Green_Plus_Grid_4.jpg,Green_Star_Dots_3.jpg,Purple_Triangle_Grid_1.jpg,left,1250.8350000007777,true,high,false
tWfiV0VF,385mdvingfsu7ikqnsjzxyjp4abjww,3r6p78pk7ooubjopbjyn2lg1sf3gth,tWfiV0VF,2020-0188,2020-05-08,13:04:58,13:21:11,NA,incomplete,89,color,1,left,Purple_Circle_Grid_3.jpg,Purple_Star_Dots_4.jpg,Red_Triangle_Grid_1.jpg,left,983.524999999674,true,high,false
tWfiV0VF,385mdvingfsu7ikqnsjzxyjp4abjww,3r6p78pk7ooubjopbjyn2lg1sf3gth,tWfiV0VF,2020-0188,2020-05-08,13:04:58,13:21:11,NA,incomplete,90,filling,1,right,Green_Triangle_Grid_1.jpg,Green_Plus_Chess_4.jpg,Red_Circle_Grid_3.jpg,right,1503.244999999879,true,high,false
tWfiV0VF,385mdvingfsu7ikqnsjzxyjp4abjww,3r6p78pk7ooubjopbjyn2lg1sf3gth,tWfiV0VF,2020-0188,2020-05-08,13:04:58,13:21:11,NA,incomplete,91,filling,1,right,Blue_Star_Grid_3.jpg,Blue_Plus_Stripes_4.jpg,Red_Triangle_Grid_2.jpg,none,0,false,high,false
tWfiV0VF,385mdvingfsu7ikqnsjzxyjp4abjww,3r6p78pk7ooubjopbjyn2lg1sf3gth,tWfiV0VF,2020-0188,2020-05-08,13:04:58,13:21:11,NA,incomplete,92,filling,1,right,Blue_Circle_Dots_2.jpg,Blue_Star_Chess_4.jpg,Green_Plus_Dots_3.jpg,left,442.6999999996042,false,high,false
tWfiV0VF,385mdvingfsu7ikqnsjzxyjp4abjww,3r6p78pk7ooubjopbjyn2lg1sf3gth,tWfiV0VF,2020-0188,2020-05-08,13:04:58,13:21:11,NA,incomplete,93,filling,1,right,Red_Star_Dots_4.jpg,Red_Triangle_Stripes_2.jpg,Green_Circle_Dots_1.jpg,left,957.6500000002561,false,high,false
tWfiV0VF,385mdvingfsu7ikqnsjzxyjp4abjww,3r6p78pk7ooubjopbjyn2lg1sf3gth,tWfiV0VF,2020-0188,2020-05-08,13:04:58,13:21:11,NA,incomplete,94,filling,1,left,Red_Star_Stripes_2.jpg,Green_Triangle_Stripes_1.jpg,Red_Circle_Grid_3.jpg,left,1141.0599999999395,true,high,false
tWfiV0VF,385mdvingfsu7ikqnsjzxyjp4abjww,3r6p78pk7ooubjopbjyn2lg1sf3gth,tWfiV0VF,2020-0188,2020-05-08,13:04:58,13:21:11,NA,incomplete,95,filling,1,left,Red_Star_Chess_3.jpg,Blue_Triangle_Chess_2.jpg,Red_Circle_Stripes_1.jpg,left,1331.5550000006333,true,high,false
tWfiV0VF,385mdvingfsu7ikqnsjzxyjp4abjww,3r6p78pk7ooubjopbjyn2lg1sf3gth,tWfiV0VF,2020-0188,2020-05-08,13:04:58,13:21:11,NA,incomplete,96,filling,0,left,Green_Triangle_Dots_2.jpg,Blue_Circle_Dots_4.jpg,Green_Star_Stripes_3.jpg,left,1338.214999999851,true,high,false
tWfiV0VF,385mdvingfsu7ikqnsjzxyjp4abjww,3r6p78pk7ooubjopbjyn2lg1sf3gth,tWfiV0VF,2020-0188,2020-05-08,13:04:58,13:21:11,NA,incomplete,97,filling,1,right,Purple_Triangle_Chess_1.jpg,Purple_Plus_Stripes_4.jpg,Blue_Star_Chess_2.jpg,right,1409.7749999992084,true,high,false
tWfiV0VF,385mdvingfsu7ikqnsjzxyjp4abjww,3r6p78pk7ooubjopbjyn2lg1sf3gth,tWfiV0VF,2020-0188,2020-05-08,13:04:58,13:21:11,NA,incomplete,98,filling,1,right,Purple_Plus_Grid_4.jpg,Purple_Star_Stripes_2.jpg,Green_Circle_Grid_1.jpg,left,1111.090000000433,false,high,false
tWfiV0VF,385mdvingfsu7ikqnsjzxyjp4abjww,3r6p78pk7ooubjopbjyn2lg1sf3gth,tWfiV0VF,2020-0188,2020-05-08,13:04:58,13:21:11,NA,incomplete,99,filling,1,left,Blue_Circle_Dots_4.jpg,Red_Triangle_Dots_1.jpg,Blue_Star_Grid_2.jpg,right,747.559999999823,false,high,false
tWfiV0VF,385mdvingfsu7ikqnsjzxyjp4abjww,3r6p78pk7ooubjopbjyn2lg1sf3gth,tWfiV0VF,2020-0188,2020-05-08,13:04:58,13:21:11,NA,incomplete,100,color,1,right,Red_Triangle_Grid_2.jpg,Purple_Plus_Grid_1.jpg,Red_Circle_Stripes_3.jpg,left,1341.2099999996135,false,high,false
tWfiV0VF,385mdvingfsu7ikqnsjzxyjp4abjww,3r6p78pk7ooubjopbjyn2lg1sf3gth,tWfiV0VF,2020-0188,2020-05-08,13:04:58,13:21:11,NA,incomplete,101,color,1,right,Blue_Plus_Grid_4.jpg,Purple_Triangle_Grid_2.jpg,Blue_Star_Stripes_3.jpg,right,1356.104999999865,true,high,false
tWfiV0VF,385mdvingfsu7ikqnsjzxyjp4abjww,3r6p78pk7ooubjopbjyn2lg1sf3gth,tWfiV0VF,2020-0188,2020-05-08,13:04:58,13:21:11,NA,incomplete,102,color,1,right,Blue_Triangle_Stripes_3.jpg,Green_Plus_Stripes_4.jpg,Blue_Star_Grid_1.jpg,right,1675.255000000121,true,high,false
tWfiV0VF,385mdvingfsu7ikqnsjzxyjp4abjww,3r6p78pk7ooubjopbjyn2lg1sf3gth,tWfiV0VF,2020-0188,2020-05-08,13:04:58,13:21:11,NA,incomplete,103,color,1,left,Red_Plus_Grid_2.jpg,Red_Circle_Chess_3.jpg,Purple_Star_Grid_4.jpg,left,760.6699999996927,true,high,false
tWfiV0VF,385mdvingfsu7ikqnsjzxyjp4abjww,3r6p78pk7ooubjopbjyn2lg1sf3gth,tWfiV0VF,2020-0188,2020-05-08,13:04:58,13:21:11,NA,incomplete,104,color,1,right,Red_Plus_Grid_4.jpg,Purple_Star_Grid_3.jpg,Red_Triangle_Stripes_1.jpg,left,797.0949999999721,false,high,false
tWfiV0VF,385mdvingfsu7ikqnsjzxyjp4abjww,3r6p78pk7ooubjopbjyn2lg1sf3gth,tWfiV0VF,2020-0188,2020-05-08,13:04:58,13:21:11,NA,incomplete,105,color,0,right,Red_Triangle_Chess_4.jpg,Green_Circle_Chess_1.jpg,Red_Star_Grid_2.jpg,left,967.6049999997485,false,high,false
tWfiV0VF,385mdvingfsu7ikqnsjzxyjp4abjww,3r6p78pk7ooubjopbjyn2lg1sf3gth,tWfiV0VF,2020-0188,2020-05-08,13:04:58,13:21:11,NA,incomplete,106,color,1,right,Red_Circle_Dots_3.jpg,Blue_Star_Dots_1.jpg,Red_Plus_Stripes_4.jpg,left,1293.3650000004563,false,high,false
tWfiV0VF,385mdvingfsu7ikqnsjzxyjp4abjww,3r6p78pk7ooubjopbjyn2lg1sf3gth,tWfiV0VF,2020-0188,2020-05-08,13:04:58,13:21:11,NA,incomplete,107,color,1,right,Green_Triangle_Stripes_2.jpg,Red_Circle_Stripes_3.jpg,Green_Plus_Chess_4.jpg,left,1084.7199999998556,false,high,false
tWfiV0VF,385mdvingfsu7ikqnsjzxyjp4abjww,3r6p78pk7ooubjopbjyn2lg1sf3gth,tWfiV0VF,2020-0188,2020-05-08,13:04:58,13:21:11,NA,incomplete,108,color,1,left,Red_Triangle_Dots_2.jpg,Red_Plus_Chess_4.jpg,Green_Circle_Dots_3.jpg,left,984.6449999994365,true,high,false
tWfiV0VF,385mdvingfsu7ikqnsjzxyjp4abjww,3r6p78pk7ooubjopbjyn2lg1sf3gth,tWfiV0VF,2020-0188,2020-05-08,13:04:58,13:21:11,NA,incomplete,109,color,1,left,Blue_Star_Grid_3.jpg,Blue_Circle_Dots_4.jpg,Green_Plus_Grid_2.jpg,left,698.4000000002561,true,high,false
tWfiV0VF,385mdvingfsu7ikqnsjzxyjp4abjww,3r6p78pk7ooubjopbjyn2lg1sf3gth,tWfiV0VF,2020-0188,2020-05-08,13:04:58,13:21:11,NA,incomplete,110,filling,1,right,Red_Triangle_Stripes_1.jpg,Red_Plus_Chess_3.jpg,Blue_Star_Stripes_2.jpg,right,1004.4500000003027,true,high,false
tWfiV0VF,385mdvingfsu7ikqnsjzxyjp4abjww,3r6p78pk7ooubjopbjyn2lg1sf3gth,tWfiV0VF,2020-0188,2020-05-08,13:04:58,13:21:11,NA,incomplete,111,filling,1,right,Purple_Circle_Dots_2.jpg,Purple_Triangle_Chess_3.jpg,Green_Star_Dots_1.jpg,right,1155.0049999996554,true,high,false
tWfiV0VF,385mdvingfsu7ikqnsjzxyjp4abjww,3r6p78pk7ooubjopbjyn2lg1sf3gth,tWfiV0VF,2020-0188,2020-05-08,13:04:58,13:21:11,NA,incomplete,112,filling,0,right,Red_Star_Stripes_4.jpg,Red_Triangle_Dots_3.jpg,Purple_Plus_Stripes_1.jpg,right,1075.2000000001863,true,high,false
tWfiV0VF,385mdvingfsu7ikqnsjzxyjp4abjww,3r6p78pk7ooubjopbjyn2lg1sf3gth,tWfiV0VF,2020-0188,2020-05-08,13:04:58,13:21:11,NA,incomplete,113,filling,1,right,Purple_Circle_Stripes_1.jpg,Purple_Star_Chess_4.jpg,Green_Triangle_Stripes_3.jpg,left,848.5749999999534,false,high,false
tWfiV0VF,385mdvingfsu7ikqnsjzxyjp4abjww,3r6p78pk7ooubjopbjyn2lg1sf3gth,tWfiV0VF,2020-0188,2020-05-08,13:04:58,13:21:11,NA,incomplete,114,filling,1,left,Green_Triangle_Dots_2.jpg,Blue_Plus_Dots_3.jpg,Green_Star_Stripes_1.jpg,left,1433.269999999553,true,high,false
tWfiV0VF,385mdvingfsu7ikqnsjzxyjp4abjww,3r6p78pk7ooubjopbjyn2lg1sf3gth,tWfiV0VF,2020-0188,2020-05-08,13:04:58,13:21:11,NA,incomplete,115,filling,1,left,Red_Circle_Chess_2.jpg,Blue_Triangle_Chess_4.jpg,Red_Star_Dots_3.jpg,left,1532.3549999993993,true,high,false
tWfiV0VF,385mdvingfsu7ikqnsjzxyjp4abjww,3r6p78pk7ooubjopbjyn2lg1sf3gth,tWfiV0VF,2020-0188,2020-05-08,13:04:58,13:21:11,NA,incomplete,116,filling,1,left,Purple_Star_Dots_1.jpg,Red_Circle_Dots_3.jpg,Purple_Plus_Chess_4.jpg,right,1398.8399999997346,false,high,false
tWfiV0VF,385mdvingfsu7ikqnsjzxyjp4abjww,3r6p78pk7ooubjopbjyn2lg1sf3gth,tWfiV0VF,2020-0188,2020-05-08,13:04:58,13:21:11,NA,incomplete,117,filling,1,right,Purple_Star_Chess_2.jpg,Purple_Circle_Dots_1.jpg,Red_Triangle_Chess_3.jpg,right,1383.0900000002002,true,high,false
tWfiV0VF,385mdvingfsu7ikqnsjzxyjp4abjww,3r6p78pk7ooubjopbjyn2lg1sf3gth,tWfiV0VF,2020-0188,2020-05-08,13:04:58,13:21:11,NA,incomplete,118,filling,1,right,Green_Star_Dots_3.jpg,Green_Circle_Stripes_4.jpg,Red_Triangle_Dots_1.jpg,right,1201.564999999362,true,high,false
tWfiV0VF,385mdvingfsu7ikqnsjzxyjp4abjww,3r6p78pk7ooubjopbjyn2lg1sf3gth,tWfiV0VF,2020-0188,2020-05-08,13:04:58,13:21:11,NA,incomplete,119,filling,1,right,Blue_Circle_Grid_2.jpg,Blue_Star_Chess_3.jpg,Purple_Plus_Grid_1.jpg,right,1654.61500000034,true,high,false
tWfiV0VF,385mdvingfsu7ikqnsjzxyjp4abjww,3r6p78pk7ooubjopbjyn2lg1sf3gth,tWfiV0VF,2020-0188,2020-05-08,13:04:58,13:21:11,NA,incomplete,120,color,1,left,Red_Circle_Chess_4.jpg,Red_Plus_Dots_1.jpg,Green_Triangle_Chess_3.jpg,right,1140.7349999998696,false,high,false
tWfiV0VF,385mdvingfsu7ikqnsjzxyjp4abjww,3r6p78pk7ooubjopbjyn2lg1sf3gth,tWfiV0VF,2020-0188,2020-05-08,13:04:58,13:21:11,NA,incomplete,121,color,1,left,Blue_Circle_Chess_3.jpg,Blue_Plus_Grid_2.jpg,Purple_Star_Chess_4.jpg,right,1533.2150000003166,false,high,false
tWfiV0VF,385mdvingfsu7ikqnsjzxyjp4abjww,3r6p78pk7ooubjopbjyn2lg1sf3gth,tWfiV0VF,2020-0188,2020-05-08,13:04:58,13:21:11,NA,incomplete,122,color,1,right,Purple_Star_Grid_2.jpg,Blue_Circle_Grid_1.jpg,Purple_Plus_Stripes_4.jpg,left,1210.869999999879,false,high,false
tWfiV0VF,385mdvingfsu7ikqnsjzxyjp4abjww,3r6p78pk7ooubjopbjyn2lg1sf3gth,tWfiV0VF,2020-0188,2020-05-08,13:04:58,13:21:11,NA,incomplete,123,color,1,left,Purple_Triangle_Grid_4.jpg,Purple_Circle_Stripes_2.jpg,Red_Plus_Grid_3.jpg,right,1340.7899999993388,false,high,false
tWfiV0VF,385mdvingfsu7ikqnsjzxyjp4abjww,3r6p78pk7ooubjopbjyn2lg1sf3gth,tWfiV0VF,2020-0188,2020-05-08,13:04:58,13:21:11,NA,incomplete,124,color,1,right,Purple_Circle_Dots_3.jpg,Blue_Triangle_Dots_1.jpg,Purple_Plus_Grid_4.jpg,right,867.3800000005867,true,high,false
tWfiV0VF,385mdvingfsu7ikqnsjzxyjp4abjww,3r6p78pk7ooubjopbjyn2lg1sf3gth,tWfiV0VF,2020-0188,2020-05-08,13:04:58,13:21:11,NA,incomplete,125,color,1,left,Green_Triangle_Stripes_3.jpg,Green_Star_Grid_1.jpg,Red_Plus_Stripes_4.jpg,left,608.2749999995576,true,high,false
tWfiV0VF,385mdvingfsu7ikqnsjzxyjp4abjww,3r6p78pk7ooubjopbjyn2lg1sf3gth,tWfiV0VF,2020-0188,2020-05-08,13:04:58,13:21:11,NA,incomplete,126,color,1,right,Purple_Triangle_Stripes_1.jpg,Blue_Plus_Stripes_4.jpg,Purple_Star_Chess_2.jpg,right,730.8099999999395,true,high,false
tWfiV0VF,385mdvingfsu7ikqnsjzxyjp4abjww,3r6p78pk7ooubjopbjyn2lg1sf3gth,tWfiV0VF,2020-0188,2020-05-08,13:04:58,13:21:11,NA,incomplete,127,color,1,left,Blue_Circle_Grid_3.jpg,Blue_Star_Dots_4.jpg,Red_Plus_Grid_2.jpg,left,730.929999999702,true,high,false
tWfiV0VF,385mdvingfsu7ikqnsjzxyjp4abjww,3r6p78pk7ooubjopbjyn2lg1sf3gth,tWfiV0VF,2020-0188,2020-05-08,13:04:58,13:21:11,NA,incomplete,128,color,1,left,Blue_Star_Grid_4.jpg,Blue_Circle_Chess_1.jpg,Purple_Triangle_Grid_3.jpg,left,777.4349999999395,true,high,false
tWfiV0VF,385mdvingfsu7ikqnsjzxyjp4abjww,3r6p78pk7ooubjopbjyn2lg1sf3gth,tWfiV0VF,2020-0188,2020-05-08,13:04:58,13:21:11,NA,incomplete,129,color,1,left,Blue_Star_Chess_3.jpg,Blue_Plus_Dots_4.jpg,Purple_Circle_Chess_1.jpg,left,703.5250000008382,true,high,false
tWfiV0VF,385mdvingfsu7ikqnsjzxyjp4abjww,3r6p78pk7ooubjopbjyn2lg1sf3gth,tWfiV0VF,2020-0188,2020-05-08,13:04:58,13:21:11,NA,incomplete,130,color,1,left,Blue_Circle_Stripes_4.jpg,Blue_Triangle_Grid_3.jpg,Red_Star_Stripes_1.jpg,left,579.3249999996042,true,high,false
tWfiV0VF,385mdvingfsu7ikqnsjzxyjp4abjww,3r6p78pk7ooubjopbjyn2lg1sf3gth,tWfiV0VF,2020-0188,2020-05-08,13:04:58,13:21:11,NA,incomplete,131,color,0,left,Green_Circle_Stripes_2.jpg,Green_Triangle_Chess_4.jpg,Blue_Star_Stripes_1.jpg,left,581.8249999992549,true,high,false
tWfiV0VF,385mdvingfsu7ikqnsjzxyjp4abjww,3r6p78pk7ooubjopbjyn2lg1sf3gth,tWfiV0VF,2020-0188,2020-05-08,13:04:58,13:21:11,NA,incomplete,132,color,1,right,Purple_Circle_Grid_2.jpg,Red_Star_Grid_4.jpg,Purple_Triangle_Chess_3.jpg,left,1716.715000000433,false,high,false
tWfiV0VF,385mdvingfsu7ikqnsjzxyjp4abjww,3r6p78pk7ooubjopbjyn2lg1sf3gth,tWfiV0VF,2020-0188,2020-05-08,13:04:58,13:21:11,NA,incomplete,133,color,1,right,Blue_Star_Stripes_2.jpg,Red_Circle_Stripes_3.jpg,Blue_Triangle_Dots_4.jpg,right,1355.5700000006473,true,high,false
tWfiV0VF,385mdvingfsu7ikqnsjzxyjp4abjww,3r6p78pk7ooubjopbjyn2lg1sf3gth,tWfiV0VF,2020-0188,2020-05-08,13:04:58,13:21:11,NA,incomplete,134,color,0,left,Red_Star_Dots_4.jpg,Red_Plus_Grid_3.jpg,Blue_Triangle_Dots_2.jpg,right,1340.774999999674,false,high,false
tWfiV0VF,385mdvingfsu7ikqnsjzxyjp4abjww,3r6p78pk7ooubjopbjyn2lg1sf3gth,tWfiV0VF,2020-0188,2020-05-08,13:04:58,13:21:11,NA,incomplete,135,color,1,right,Red_Plus_Stripes_4.jpg,Green_Star_Stripes_2.jpg,Red_Circle_Dots_1.jpg,right,872.4149999998044,true,high,false
tWfiV0VF,385mdvingfsu7ikqnsjzxyjp4abjww,3r6p78pk7ooubjopbjyn2lg1sf3gth,tWfiV0VF,2020-0188,2020-05-08,13:04:58,13:21:11,NA,incomplete,136,color,0,left,Green_Triangle_Stripes_2.jpg,Green_Star_Chess_1.jpg,Purple_Circle_Stripes_4.jpg,left,914.7700000003679,true,high,false
tWfiV0VF,385mdvingfsu7ikqnsjzxyjp4abjww,3r6p78pk7ooubjopbjyn2lg1sf3gth,tWfiV0VF,2020-0188,2020-05-08,13:04:58,13:21:11,NA,incomplete,137,color,1,right,Red_Circle_Chess_2.jpg,Blue_Triangle_Chess_1.jpg,Red_Star_Stripes_3.jpg,right,1544.83499999973,true,high,false
tWfiV0VF,385mdvingfsu7ikqnsjzxyjp4abjww,3r6p78pk7ooubjopbjyn2lg1sf3gth,tWfiV0VF,2020-0188,2020-05-08,13:04:58,13:21:11,NA,incomplete,138,color,1,right,Purple_Plus_Dots_1.jpg,Green_Star_Dots_3.jpg,Purple_Triangle_Grid_4.jpg,right,1226.4649999997346,true,high,false
tWfiV0VF,385mdvingfsu7ikqnsjzxyjp4abjww,3r6p78pk7ooubjopbjyn2lg1sf3gth,tWfiV0VF,2020-0188,2020-05-08,13:04:58,13:21:11,NA,incomplete,139,color,1,left,Green_Triangle_Stripes_1.jpg,Green_Circle_Chess_3.jpg,Blue_Star_Stripes_4.jpg,left,1100.5500000000466,true,high,false
tWfiV0VF,385mdvingfsu7ikqnsjzxyjp4abjww,3r6p78pk7ooubjopbjyn2lg1sf3gth,tWfiV0VF,2020-0188,2020-05-08,13:04:58,13:21:11,NA,incomplete,140,filling,1,right,Purple_Triangle_Chess_2.jpg,Purple_Plus_Dots_3.jpg,Green_Circle_Chess_1.jpg,left,859.3500000005588,false,high,false
tWfiV0VF,385mdvingfsu7ikqnsjzxyjp4abjww,3r6p78pk7ooubjopbjyn2lg1sf3gth,tWfiV0VF,2020-0188,2020-05-08,13:04:58,13:21:11,NA,incomplete,141,filling,1,right,Blue_Star_Dots_1.jpg,Blue_Plus_Grid_3.jpg,Red_Circle_Dots_4.jpg,right,1399.3499999996275,true,high,false
tWfiV0VF,385mdvingfsu7ikqnsjzxyjp4abjww,3r6p78pk7ooubjopbjyn2lg1sf3gth,tWfiV0VF,2020-0188,2020-05-08,13:04:58,13:21:11,NA,incomplete,142,filling,1,left,Purple_Plus_Stripes_4.jpg,Green_Circle_Stripes_1.jpg,Purple_Triangle_Chess_2.jpg,right,1404.779999999795,false,high,false
tWfiV0VF,385mdvingfsu7ikqnsjzxyjp4abjww,3r6p78pk7ooubjopbjyn2lg1sf3gth,tWfiV0VF,2020-0188,2020-05-08,13:04:58,13:21:11,NA,incomplete,143,filling,1,right,Red_Circle_Grid_1.jpg,Red_Plus_Stripes_2.jpg,Blue_Triangle_Grid_4.jpg,left,1156.5100000007078,false,high,false
tWfiV0VF,385mdvingfsu7ikqnsjzxyjp4abjww,3r6p78pk7ooubjopbjyn2lg1sf3gth,tWfiV0VF,2020-0188,2020-05-08,13:04:58,13:21:11,NA,incomplete,144,filling,1,right,Purple_Triangle_Chess_4.jpg,Purple_Star_Dots_1.jpg,Red_Plus_Chess_3.jpg,right,1279.929999999702,true,high,false
tWfiV0VF,385mdvingfsu7ikqnsjzxyjp4abjww,3r6p78pk7ooubjopbjyn2lg1sf3gth,tWfiV0VF,2020-0188,2020-05-08,13:04:58,13:21:11,NA,incomplete,145,filling,1,right,Green_Plus_Stripes_1.jpg,Green_Circle_Dots_3.jpg,Red_Triangle_Stripes_2.jpg,left,1440.1599999992177,false,high,false
tWfiV0VF,385mdvingfsu7ikqnsjzxyjp4abjww,3r6p78pk7ooubjopbjyn2lg1sf3gth,tWfiV0VF,2020-0188,2020-05-08,13:04:58,13:21:11,NA,incomplete,146,filling,1,left,Blue_Plus_Grid_1.jpg,Red_Triangle_Grid_3.jpg,Blue_Circle_Dots_4.jpg,right,675.8150000005262,false,high,false
tWfiV0VF,385mdvingfsu7ikqnsjzxyjp4abjww,3r6p78pk7ooubjopbjyn2lg1sf3gth,tWfiV0VF,2020-0188,2020-05-08,13:04:58,13:21:11,NA,incomplete,147,filling,1,left,Purple_Circle_Chess_1.jpg,Red_Star_Chess_4.jpg,Purple_Triangle_Dots_3.jpg,right,707.5299999996787,false,high,false
tWfiV0VF,385mdvingfsu7ikqnsjzxyjp4abjww,3r6p78pk7ooubjopbjyn2lg1sf3gth,tWfiV0VF,2020-0188,2020-05-08,13:04:58,13:21:11,NA,incomplete,148,filling,1,left,Blue_Star_Grid_3.jpg,Green_Circle_Grid_2.jpg,Blue_Plus_Chess_4.jpg,left,937.120000000461,true,high,false
tWfiV0VF,385mdvingfsu7ikqnsjzxyjp4abjww,3r6p78pk7ooubjopbjyn2lg1sf3gth,tWfiV0VF,2020-0188,2020-05-08,13:04:58,13:21:11,NA,incomplete,149,filling,1,right,Green_Star_Grid_3.jpg,Green_Plus_Chess_4.jpg,Purple_Circle_Grid_2.jpg,left,1105.5649999998277,false,high,false
tWfiV0VF,385mdvingfsu7ikqnsjzxyjp4abjww,3r6p78pk7ooubjopbjyn2lg1sf3gth,tWfiV0VF,2020-0188,2020-05-08,13:04:58,13:21:11,NA,incomplete,150,filling,1,left,Green_Triangle_Grid_2.jpg,Purple_Circle_Grid_4.jpg,Green_Star_Stripes_1.jpg,right,854.9899999998743,false,high,false
tWfiV0VF,385mdvingfsu7ikqnsjzxyjp4abjww,3r6p78pk7ooubjopbjyn2lg1sf3gth,tWfiV0VF,2020-0188,2020-05-08,13:04:58,13:21:11,NA,incomplete,151,filling,1,right,Purple_Triangle_Stripes_3.jpg,Purple_Circle_Grid_2.jpg,Red_Star_Stripes_4.jpg,left,625.5300000002608,false,high,false
tWfiV0VF,385mdvingfsu7ikqnsjzxyjp4abjww,3r6p78pk7ooubjopbjyn2lg1sf3gth,tWfiV0VF,2020-0188,2020-05-08,13:04:58,13:21:11,NA,incomplete,152,filling,0,left,Green_Plus_Stripes_1.jpg,Purple_Circle_Stripes_2.jpg,Green_Triangle_Dots_4.jpg,right,620.6999999994878,false,high,false
tWfiV0VF,385mdvingfsu7ikqnsjzxyjp4abjww,3r6p78pk7ooubjopbjyn2lg1sf3gth,tWfiV0VF,2020-0188,2020-05-08,13:04:58,13:21:11,NA,incomplete,153,filling,1,right,Purple_Star_Dots_4.jpg,Purple_Triangle_Stripes_1.jpg,Green_Plus_Dots_2.jpg,right,1273.4400000008754,true,high,false
tWfiV0VF,385mdvingfsu7ikqnsjzxyjp4abjww,3r6p78pk7ooubjopbjyn2lg1sf3gth,tWfiV0VF,2020-0188,2020-05-08,13:04:58,13:21:11,NA,incomplete,154,filling,1,left,Green_Circle_Grid_2.jpg,Purple_Star_Grid_3.jpg,Green_Plus_Stripes_4.jpg,left,1283.174999999581,true,high,false
tWfiV0VF,385mdvingfsu7ikqnsjzxyjp4abjww,3r6p78pk7ooubjopbjyn2lg1sf3gth,tWfiV0VF,2020-0188,2020-05-08,13:04:58,13:21:11,NA,incomplete,155,filling,1,left,Red_Star_Dots_4.jpg,Blue_Triangle_Dots_2.jpg,Red_Circle_Stripes_1.jpg,left,1458.0649999998277,true,high,false
tWfiV0VF,385mdvingfsu7ikqnsjzxyjp4abjww,3r6p78pk7ooubjopbjyn2lg1sf3gth,tWfiV0VF,2020-0188,2020-05-08,13:04:58,13:21:11,NA,incomplete,156,filling,0,left,Purple_Triangle_Grid_1.jpg,Blue_Plus_Grid_3.jpg,Purple_Star_Stripes_4.jpg,left,1158.3199999995995,true,high,false
tWfiV0VF,385mdvingfsu7ikqnsjzxyjp4abjww,3r6p78pk7ooubjopbjyn2lg1sf3gth,tWfiV0VF,2020-0188,2020-05-08,13:04:58,13:21:11,NA,incomplete,157,filling,1,right,Green_Star_Chess_3.jpg,Green_Triangle_Grid_4.jpg,Red_Circle_Chess_2.jpg,right,1267.8299999998417,true,high,false
tWfiV0VF,385mdvingfsu7ikqnsjzxyjp4abjww,3r6p78pk7ooubjopbjyn2lg1sf3gth,tWfiV0VF,2020-0188,2020-05-08,13:04:58,13:21:11,NA,incomplete,158,filling,0,right,Green_Plus_Stripes_4.jpg,Green_Triangle_Grid_3.jpg,Blue_Star_Stripes_2.jpg,right,1256.0850000000792,true,high,false
tWfiV0VF,385mdvingfsu7ikqnsjzxyjp4abjww,3r6p78pk7ooubjopbjyn2lg1sf3gth,tWfiV0VF,2020-0188,2020-05-08,13:04:58,13:21:11,NA,incomplete,159,filling,1,left,Purple_Triangle_Stripes_3.jpg,Red_Star_Stripes_1.jpg,Purple_Circle_Dots_2.jpg,right,1297.225000000326,false,high,false
tWfiV0VF,385mdvingfsu7ikqnsjzxyjp4abjww,3r6p78pk7ooubjopbjyn2lg1sf3gth,tWfiV0VF,2020-0188,2020-05-08,13:04:58,13:21:11,NA,incomplete,160,color,1,left,Green_Star_Chess_2.jpg,Green_Circle_Grid_3.jpg,Purple_Plus_Chess_1.jpg,right,1295.2700000004843,false,high,false
tWfiV0VF,385mdvingfsu7ikqnsjzxyjp4abjww,3r6p78pk7ooubjopbjyn2lg1sf3gth,tWfiV0VF,2020-0188,2020-05-08,13:04:58,13:21:11,NA,incomplete,161,color,1,left,Purple_Star_Dots_4.jpg,Purple_Triangle_Chess_3.jpg,Blue_Plus_Dots_2.jpg,left,554.1700000002747,true,high,false
tWfiV0VF,385mdvingfsu7ikqnsjzxyjp4abjww,3r6p78pk7ooubjopbjyn2lg1sf3gth,tWfiV0VF,2020-0188,2020-05-08,13:04:58,13:21:11,NA,incomplete,162,color,1,left,Purple_Star_Grid_3.jpg,Purple_Circle_Stripes_1.jpg,Red_Plus_Grid_4.jpg,left,737.0250000003725,true,high,false
tWfiV0VF,385mdvingfsu7ikqnsjzxyjp4abjww,3r6p78pk7ooubjopbjyn2lg1sf3gth,tWfiV0VF,2020-0188,2020-05-08,13:04:58,13:21:11,NA,incomplete,163,color,0,right,Red_Triangle_Grid_4.jpg,Blue_Circle_Grid_3.jpg,Red_Plus_Stripes_2.jpg,right,541.7399999996414,true,high,false
tWfiV0VF,385mdvingfsu7ikqnsjzxyjp4abjww,3r6p78pk7ooubjopbjyn2lg1sf3gth,tWfiV0VF,2020-0188,2020-05-08,13:04:58,13:21:11,NA,incomplete,164,color,1,left,Green_Triangle_Chess_1.jpg,Green_Plus_Grid_2.jpg,Red_Circle_Chess_3.jpg,right,1187.6449999999022,false,high,false
tWfiV0VF,385mdvingfsu7ikqnsjzxyjp4abjww,3r6p78pk7ooubjopbjyn2lg1sf3gth,tWfiV0VF,2020-0188,2020-05-08,13:04:58,13:21:11,NA,incomplete,165,color,0,left,Red_Plus_Stripes_2.jpg,Red_Triangle_Chess_1.jpg,Blue_Star_Stripes_3.jpg,left,638.785000000149,true,high,false
tWfiV0VF,385mdvingfsu7ikqnsjzxyjp4abjww,3r6p78pk7ooubjopbjyn2lg1sf3gth,tWfiV0VF,2020-0188,2020-05-08,13:04:58,13:21:11,NA,incomplete,166,color,1,right,Purple_Circle_Stripes_2.jpg,Blue_Plus_Stripes_1.jpg,Purple_Star_Chess_3.jpg,left,1485.9999999998836,false,high,false
tWfiV0VF,385mdvingfsu7ikqnsjzxyjp4abjww,3r6p78pk7ooubjopbjyn2lg1sf3gth,tWfiV0VF,2020-0188,2020-05-08,13:04:58,13:21:11,NA,incomplete,167,color,1,left,Purple_Triangle_Grid_2.jpg,Purple_Star_Stripes_3.jpg,Blue_Plus_Grid_1.jpg,left,721.1299999998882,true,high,false
tWfiV0VF,385mdvingfsu7ikqnsjzxyjp4abjww,3r6p78pk7ooubjopbjyn2lg1sf3gth,tWfiV0VF,2020-0188,2020-05-08,13:04:58,13:21:11,NA,incomplete,168,color,1,right,Purple_Plus_Grid_3.jpg,Blue_Star_Grid_2.jpg,Purple_Circle_Stripes_1.jpg,right,969.2750000003725,true,high,false
tWfiV0VF,385mdvingfsu7ikqnsjzxyjp4abjww,3r6p78pk7ooubjopbjyn2lg1sf3gth,tWfiV0VF,2020-0188,2020-05-08,13:04:58,13:21:11,NA,incomplete,169,color,0,right,Purple_Star_Chess_2.jpg,Green_Plus_Chess_3.jpg,Purple_Triangle_Grid_4.jpg,right,584.2200000006706,true,high,false
tWfiV0VF,385mdvingfsu7ikqnsjzxyjp4abjww,3r6p78pk7ooubjopbjyn2lg1sf3gth,tWfiV0VF,2020-0188,2020-05-08,13:04:58,13:21:11,NA,incomplete,170,color,1,right,Purple_Plus_Grid_3.jpg,Blue_Triangle_Grid_4.jpg,Purple_Star_Stripes_2.jpg,left,1444.8800000000047,false,high,false
tWfiV0VF,385mdvingfsu7ikqnsjzxyjp4abjww,3r6p78pk7ooubjopbjyn2lg1sf3gth,tWfiV0VF,2020-0188,2020-05-08,13:04:58,13:21:11,NA,incomplete,171,color,1,right,Purple_Triangle_Chess_3.jpg,Green_Plus_Chess_2.jpg,Purple_Circle_Grid_4.jpg,right,1525.6500000006054,true,high,false
tWfiV0VF,385mdvingfsu7ikqnsjzxyjp4abjww,3r6p78pk7ooubjopbjyn2lg1sf3gth,tWfiV0VF,2020-0188,2020-05-08,13:04:58,13:21:11,NA,incomplete,172,color,1,left,Green_Circle_Grid_3.jpg,Green_Plus_Stripes_4.jpg,Purple_Star_Grid_1.jpg,left,1088.8899999998976,true,high,false
tWfiV0VF,385mdvingfsu7ikqnsjzxyjp4abjww,3r6p78pk7ooubjopbjyn2lg1sf3gth,tWfiV0VF,2020-0188,2020-05-08,13:04:58,13:21:11,NA,incomplete,173,color,1,left,Green_Star_Stripes_3.jpg,Green_Plus_Chess_1.jpg,Red_Circle_Stripes_4.jpg,left,935.7600000002421,true,high,false
tWfiV0VF,385mdvingfsu7ikqnsjzxyjp4abjww,3r6p78pk7ooubjopbjyn2lg1sf3gth,tWfiV0VF,2020-0188,2020-05-08,13:04:58,13:21:11,NA,incomplete,174,color,1,left,Red_Triangle_Dots_4.jpg,Red_Circle_Chess_3.jpg,Blue_Star_Dots_2.jpg,left,611.8699999997625,true,high,false
tWfiV0VF,385mdvingfsu7ikqnsjzxyjp4abjww,3r6p78pk7ooubjopbjyn2lg1sf3gth,tWfiV0VF,2020-0188,2020-05-08,13:04:58,13:21:11,NA,incomplete,175,color,1,right,Purple_Triangle_Grid_1.jpg,Blue_Plus_Grid_3.jpg,Purple_Circle_Stripes_4.jpg,right,640.2299999999814,true,high,false
tWfiV0VF,385mdvingfsu7ikqnsjzxyjp4abjww,3r6p78pk7ooubjopbjyn2lg1sf3gth,tWfiV0VF,2020-0188,2020-05-08,13:04:58,13:21:11,NA,incomplete,176,color,1,right,Purple_Circle_Chess_1.jpg,Green_Star_Chess_2.jpg,Purple_Triangle_Grid_3.jpg,right,747.6150000002235,true,high,false
tWfiV0VF,385mdvingfsu7ikqnsjzxyjp4abjww,3r6p78pk7ooubjopbjyn2lg1sf3gth,tWfiV0VF,2020-0188,2020-05-08,13:04:58,13:21:11,NA,incomplete,177,color,1,right,Green_Star_Grid_3.jpg,Blue_Triangle_Grid_2.jpg,Green_Plus_Stripes_4.jpg,right,875.5849999997299,true,high,false
tWfiV0VF,385mdvingfsu7ikqnsjzxyjp4abjww,3r6p78pk7ooubjopbjyn2lg1sf3gth,tWfiV0VF,2020-0188,2020-05-08,13:04:58,13:21:11,NA,incomplete,178,color,1,left,Purple_Plus_Stripes_3.jpg,Purple_Star_Dots_4.jpg,Red_Triangle_Stripes_1.jpg,left,1020.5999999998603,true,high,false
tWfiV0VF,385mdvingfsu7ikqnsjzxyjp4abjww,3r6p78pk7ooubjopbjyn2lg1sf3gth,tWfiV0VF,2020-0188,2020-05-08,13:04:58,13:21:11,NA,incomplete,179,color,0,right,Purple_Plus_Stripes_2.jpg,Red_Star_Stripes_1.jpg,Purple_Circle_Dots_4.jpg,right,686.464999999851,true,high,false
tWfiV0VF,385mdvingfsu7ikqnsjzxyjp4abjww,3r6p78pk7ooubjopbjyn2lg1sf3gth,tWfiV0VF,2020-0188,2020-05-08,13:04:58,13:21:11,NA,incomplete,180,filling,1,right,Red_Circle_Chess_4.jpg,Red_Star_Dots_2.jpg,Purple_Triangle_Chess_1.jpg,left,1588.9600000000792,false,high,false
tWfiV0VF,385mdvingfsu7ikqnsjzxyjp4abjww,3r6p78pk7ooubjopbjyn2lg1sf3gth,tWfiV0VF,2020-0188,2020-05-08,13:04:58,13:21:11,NA,incomplete,181,filling,1,left,Blue_Circle_Chess_1.jpg,Purple_Plus_Chess_3.jpg,Blue_Star_Grid_4.jpg,left,1499.4050000004936,true,high,false
tWfiV0VF,385mdvingfsu7ikqnsjzxyjp4abjww,3r6p78pk7ooubjopbjyn2lg1sf3gth,tWfiV0VF,2020-0188,2020-05-08,13:04:58,13:21:11,NA,incomplete,182,filling,0,left,Red_Circle_Chess_4.jpg,Blue_Plus_Chess_1.jpg,Red_Star_Dots_3.jpg,left,1291.2400000004563,true,high,false
tWfiV0VF,385mdvingfsu7ikqnsjzxyjp4abjww,3r6p78pk7ooubjopbjyn2lg1sf3gth,tWfiV0VF,2020-0188,2020-05-08,13:04:58,13:21:11,NA,incomplete,183,filling,1,right,Purple_Plus_Chess_1.jpg,Purple_Star_Stripes_2.jpg,Blue_Circle_Chess_3.jpg,right,1220.135000000475,true,high,false
tWfiV0VF,385mdvingfsu7ikqnsjzxyjp4abjww,3r6p78pk7ooubjopbjyn2lg1sf3gth,tWfiV0VF,2020-0188,2020-05-08,13:04:58,13:21:11,NA,incomplete,184,filling,1,left,Green_Triangle_Grid_4.jpg,Purple_Circle_Grid_2.jpg,Green_Plus_Stripes_1.jpg,left,1063.4199999995762,true,high,false
tWfiV0VF,385mdvingfsu7ikqnsjzxyjp4abjww,3r6p78pk7ooubjopbjyn2lg1sf3gth,tWfiV0VF,2020-0188,2020-05-08,13:04:58,13:21:11,NA,incomplete,185,filling,1,right,Green_Plus_Dots_3.jpg,Green_Star_Stripes_4.jpg,Purple_Circle_Dots_1.jpg,right,1243.6799999995856,true,high,false
tWfiV0VF,385mdvingfsu7ikqnsjzxyjp4abjww,3r6p78pk7ooubjopbjyn2lg1sf3gth,tWfiV0VF,2020-0188,2020-05-08,13:04:58,13:21:11,NA,incomplete,186,filling,1,right,Purple_Circle_Chess_2.jpg,Purple_Triangle_Dots_1.jpg,Red_Star_Chess_3.jpg,right,1128.744999999879,true,high,false
tWfiV0VF,385mdvingfsu7ikqnsjzxyjp4abjww,3r6p78pk7ooubjopbjyn2lg1sf3gth,tWfiV0VF,2020-0188,2020-05-08,13:04:58,13:21:11,NA,incomplete,187,filling,1,right,Red_Star_Stripes_1.jpg,Red_Circle_Chess_2.jpg,Blue_Plus_Stripes_3.jpg,left,640.0400000002701,false,high,false
tWfiV0VF,385mdvingfsu7ikqnsjzxyjp4abjww,3r6p78pk7ooubjopbjyn2lg1sf3gth,tWfiV0VF,2020-0188,2020-05-08,13:04:58,13:21:11,NA,incomplete,188,filling,1,left,Green_Triangle_Stripes_3.jpg,Purple_Circle_Stripes_1.jpg,Green_Plus_Dots_4.jpg,right,589.1599999995669,false,high,false
tWfiV0VF,385mdvingfsu7ikqnsjzxyjp4abjww,3r6p78pk7ooubjopbjyn2lg1sf3gth,tWfiV0VF,2020-0188,2020-05-08,13:04:58,13:21:11,NA,incomplete,189,filling,0,right,Blue_Plus_Grid_1.jpg,Blue_Star_Stripes_3.jpg,Purple_Circle_Grid_4.jpg,left,828.7950000002747,false,high,false
tWfiV0VF,385mdvingfsu7ikqnsjzxyjp4abjww,3r6p78pk7ooubjopbjyn2lg1sf3gth,tWfiV0VF,2020-0188,2020-05-08,13:04:58,13:21:11,NA,incomplete,190,filling,1,left,Purple_Circle_Chess_2.jpg,Red_Triangle_Chess_3.jpg,Purple_Plus_Dots_1.jpg,right,1010.7899999993388,false,high,false
tWfiV0VF,385mdvingfsu7ikqnsjzxyjp4abjww,3r6p78pk7ooubjopbjyn2lg1sf3gth,tWfiV0VF,2020-0188,2020-05-08,13:04:58,13:21:11,NA,incomplete,191,filling,0,right,Blue_Circle_Dots_3.jpg,Blue_Plus_Chess_1.jpg,Red_Star_Dots_2.jpg,left,669.9750000006752,false,high,false
tWfiV0VF,385mdvingfsu7ikqnsjzxyjp4abjww,3r6p78pk7ooubjopbjyn2lg1sf3gth,tWfiV0VF,2020-0188,2020-05-08,13:04:58,13:21:11,NA,incomplete,192,filling,1,left,Blue_Triangle_Dots_1.jpg,Green_Star_Dots_3.jpg,Blue_Circle_Stripes_4.jpg,right,725.1699999996927,false,high,false
tWfiV0VF,385mdvingfsu7ikqnsjzxyjp4abjww,3r6p78pk7ooubjopbjyn2lg1sf3gth,tWfiV0VF,2020-0188,2020-05-08,13:04:58,13:21:11,NA,incomplete,193,filling,1,right,Red_Star_Stripes_2.jpg,Red_Plus_Grid_3.jpg,Green_Circle_Stripes_1.jpg,right,1322.165000000503,true,high,false
tWfiV0VF,385mdvingfsu7ikqnsjzxyjp4abjww,3r6p78pk7ooubjopbjyn2lg1sf3gth,tWfiV0VF,2020-0188,2020-05-08,13:04:58,13:21:11,NA,incomplete,194,filling,1,right,Green_Triangle_Dots_2.jpg,Green_Plus_Chess_3.jpg,Purple_Star_Dots_1.jpg,left,1073.5199999999022,false,high,false
tWfiV0VF,385mdvingfsu7ikqnsjzxyjp4abjww,3r6p78pk7ooubjopbjyn2lg1sf3gth,tWfiV0VF,2020-0188,2020-05-08,13:04:58,13:21:11,NA,incomplete,195,filling,0,right,Red_Triangle_Dots_3.jpg,Red_Plus_Grid_4.jpg,Purple_Star_Dots_2.jpg,right,1214.3850000002421,true,high,false
tWfiV0VF,385mdvingfsu7ikqnsjzxyjp4abjww,3r6p78pk7ooubjopbjyn2lg1sf3gth,tWfiV0VF,2020-0188,2020-05-08,13:04:58,13:21:11,NA,incomplete,196,filling,1,left,Purple_Star_Stripes_1.jpg,Green_Triangle_Stripes_2.jpg,Purple_Plus_Grid_4.jpg,left,1500.2349999995204,true,high,false
tWfiV0VF,385mdvingfsu7ikqnsjzxyjp4abjww,3r6p78pk7ooubjopbjyn2lg1sf3gth,tWfiV0VF,2020-0188,2020-05-08,13:04:58,13:21:11,NA,incomplete,197,filling,1,right,Green_Star_Stripes_1.jpg,Green_Circle_Dots_4.jpg,Red_Plus_Stripes_2.jpg,right,1068.524999999674,true,high,false
tWfiV0VF,385mdvingfsu7ikqnsjzxyjp4abjww,3r6p78pk7ooubjopbjyn2lg1sf3gth,tWfiV0VF,2020-0188,2020-05-08,13:04:58,13:21:11,NA,incomplete,198,filling,0,right,Green_Circle_Dots_1.jpg,Green_Star_Grid_4.jpg,Purple_Plus_Dots_2.jpg,right,1609.059999999823,true,high,false
tWfiV0VF,385mdvingfsu7ikqnsjzxyjp4abjww,3r6p78pk7ooubjopbjyn2lg1sf3gth,tWfiV0VF,2020-0188,2020-05-08,13:04:58,13:21:11,NA,incomplete,199,filling,1,left,Purple_Star_Chess_1.jpg,Red_Circle_Chess_3.jpg,Purple_Plus_Dots_2.jpg,right,668.7849999999162,false,high,false
tWfiV0VF,385mdvingfsu7ikqnsjzxyjp4abjww,3r6p78pk7ooubjopbjyn2lg1sf3gth,tWfiV0VF,2020-0188,2020-05-08,13:04:58,13:21:11,NA,incomplete,200,color,0,right,Red_Star_Grid_4.jpg,Blue_Circle_Grid_1.jpg,Red_Triangle_Chess_3.jpg,left,1172.1499999994412,false,high,false
tWfiV0VF,385mdvingfsu7ikqnsjzxyjp4abjww,3r6p78pk7ooubjopbjyn2lg1sf3gth,tWfiV0VF,2020-0188,2020-05-08,13:04:58,13:21:11,NA,incomplete,201,color,1,right,Green_Star_Dots_4.jpg,Red_Circle_Dots_1.jpg,Green_Triangle_Chess_3.jpg,left,1248.0750000005355,false,high,false
tWfiV0VF,385mdvingfsu7ikqnsjzxyjp4abjww,3r6p78pk7ooubjopbjyn2lg1sf3gth,tWfiV0VF,2020-0188,2020-05-08,13:04:58,13:21:11,NA,incomplete,202,color,1,left,Blue_Triangle_Grid_2.jpg,Blue_Star_Dots_4.jpg,Red_Circle_Grid_1.jpg,right,914.480000000447,false,high,false
tWfiV0VF,385mdvingfsu7ikqnsjzxyjp4abjww,3r6p78pk7ooubjopbjyn2lg1sf3gth,tWfiV0VF,2020-0188,2020-05-08,13:04:58,13:21:11,NA,incomplete,203,color,1,left,Blue_Triangle_Dots_2.jpg,Blue_Star_Stripes_4.jpg,Purple_Plus_Dots_1.jpg,left,987.0900000005495,true,high,false
tWfiV0VF,385mdvingfsu7ikqnsjzxyjp4abjww,3r6p78pk7ooubjopbjyn2lg1sf3gth,tWfiV0VF,2020-0188,2020-05-08,13:04:58,13:21:11,NA,incomplete,204,color,1,right,Green_Plus_Dots_3.jpg,Blue_Triangle_Dots_2.jpg,Green_Star_Grid_4.jpg,left,1329.039999999688,false,high,false
tWfiV0VF,385mdvingfsu7ikqnsjzxyjp4abjww,3r6p78pk7ooubjopbjyn2lg1sf3gth,tWfiV0VF,2020-0188,2020-05-08,13:04:58,13:21:11,NA,incomplete,205,color,1,left,Green_Plus_Stripes_4.jpg,Green_Circle_Grid_3.jpg,Red_Triangle_Stripes_2.jpg,left,803.0900000004331,true,high,false
tWfiV0VF,385mdvingfsu7ikqnsjzxyjp4abjww,3r6p78pk7ooubjopbjyn2lg1sf3gth,tWfiV0VF,2020-0188,2020-05-08,13:04:58,13:21:11,NA,incomplete,206,color,0,right,Blue_Circle_Stripes_3.jpg,Red_Triangle_Stripes_4.jpg,Blue_Plus_Grid_2.jpg,right,1584.399999999674,true,high,false
tWfiV0VF,385mdvingfsu7ikqnsjzxyjp4abjww,3r6p78pk7ooubjopbjyn2lg1sf3gth,tWfiV0VF,2020-0188,2020-05-08,13:04:58,13:21:11,NA,incomplete,207,color,1,left,Blue_Circle_Stripes_1.jpg,Blue_Triangle_Dots_4.jpg,Purple_Star_Stripes_2.jpg,right,1133.2449999999953,false,high,false
tWfiV0VF,385mdvingfsu7ikqnsjzxyjp4abjww,3r6p78pk7ooubjopbjyn2lg1sf3gth,tWfiV0VF,2020-0188,2020-05-08,13:04:58,13:21:11,NA,incomplete,208,color,1,right,Red_Circle_Dots_1.jpg,Purple_Star_Dots_3.jpg,Red_Triangle_Grid_4.jpg,left,1281.2850000000326,false,high,false
tWfiV0VF,385mdvingfsu7ikqnsjzxyjp4abjww,3r6p78pk7ooubjopbjyn2lg1sf3gth,tWfiV0VF,2020-0188,2020-05-08,13:04:58,13:21:11,NA,incomplete,209,color,1,left,Red_Circle_Chess_1.jpg,Red_Triangle_Dots_2.jpg,Green_Plus_Chess_3.jpg,right,1044.700000000419,false,high,false
tWfiV0VF,385mdvingfsu7ikqnsjzxyjp4abjww,3r6p78pk7ooubjopbjyn2lg1sf3gth,tWfiV0VF,2020-0188,2020-05-08,13:04:58,13:21:11,NA,incomplete,210,color,1,right,Green_Star_Grid_4.jpg,Red_Triangle_Grid_3.jpg,Green_Circle_Chess_2.jpg,right,1488.7600000002421,true,high,false
tWfiV0VF,385mdvingfsu7ikqnsjzxyjp4abjww,3r6p78pk7ooubjopbjyn2lg1sf3gth,tWfiV0VF,2020-0188,2020-05-08,13:04:58,13:21:11,NA,incomplete,211,color,1,left,Purple_Circle_Stripes_4.jpg,Purple_Triangle_Chess_2.jpg,Blue_Plus_Stripes_3.jpg,right,1633.0099999995437,false,high,false
tWfiV0VF,385mdvingfsu7ikqnsjzxyjp4abjww,3r6p78pk7ooubjopbjyn2lg1sf3gth,tWfiV0VF,2020-0188,2020-05-08,13:04:58,13:21:11,NA,incomplete,212,color,1,right,Purple_Circle_Dots_1.jpg,Blue_Triangle_Dots_3.jpg,Purple_Star_Grid_2.jpg,left,1606.9499999994878,false,high,false
tWfiV0VF,385mdvingfsu7ikqnsjzxyjp4abjww,3r6p78pk7ooubjopbjyn2lg1sf3gth,tWfiV0VF,2020-0188,2020-05-08,13:04:58,13:21:11,NA,incomplete,213,color,0,right,Red_Triangle_Dots_3.jpg,Green_Circle_Dots_4.jpg,Red_Star_Chess_1.jpg,right,714.8249999999534,true,high,false
tWfiV0VF,385mdvingfsu7ikqnsjzxyjp4abjww,3r6p78pk7ooubjopbjyn2lg1sf3gth,tWfiV0VF,2020-0188,2020-05-08,13:04:58,13:21:11,NA,incomplete,214,color,1,left,Green_Plus_Chess_1.jpg,Green_Circle_Dots_2.jpg,Blue_Triangle_Chess_4.jpg,left,1351.9299999998184,true,high,false
tWfiV0VF,385mdvingfsu7ikqnsjzxyjp4abjww,3r6p78pk7ooubjopbjyn2lg1sf3gth,tWfiV0VF,2020-0188,2020-05-08,13:04:58,13:21:11,NA,incomplete,215,color,1,right,Blue_Triangle_Chess_3.jpg,Red_Star_Chess_1.jpg,Blue_Circle_Stripes_2.jpg,right,1373.2649999993155,true,high,false
tWfiV0VF,385mdvingfsu7ikqnsjzxyjp4abjww,3r6p78pk7ooubjopbjyn2lg1sf3gth,tWfiV0VF,2020-0188,2020-05-08,13:04:58,13:21:11,NA,incomplete,216,color,0,left,Green_Star_Chess_4.jpg,Green_Triangle_Dots_2.jpg,Red_Circle_Chess_3.jpg,left,1279.725000000326,true,high,false
tWfiV0VF,385mdvingfsu7ikqnsjzxyjp4abjww,3r6p78pk7ooubjopbjyn2lg1sf3gth,tWfiV0VF,2020-0188,2020-05-08,13:04:58,13:21:11,NA,incomplete,217,color,1,right,Purple_Plus_Chess_2.jpg,Red_Circle_Chess_4.jpg,Purple_Star_Stripes_3.jpg,left,1817.1400000001304,false,high,false
tWfiV0VF,385mdvingfsu7ikqnsjzxyjp4abjww,3r6p78pk7ooubjopbjyn2lg1sf3gth,tWfiV0VF,2020-0188,2020-05-08,13:04:58,13:21:11,NA,incomplete,218,color,1,left,Blue_Star_Chess_1.jpg,Blue_Triangle_Grid_3.jpg,Green_Circle_Chess_4.jpg,right,958.0200000000186,false,high,false
tWfiV0VF,385mdvingfsu7ikqnsjzxyjp4abjww,3r6p78pk7ooubjopbjyn2lg1sf3gth,tWfiV0VF,2020-0188,2020-05-08,13:04:58,13:21:11,NA,incomplete,219,color,1,right,Red_Plus_Stripes_4.jpg,Blue_Triangle_Stripes_1.jpg,Red_Circle_Chess_3.jpg,left,1189.919999999809,false,high,false
tWfiV0VF,385mdvingfsu7ikqnsjzxyjp4abjww,3r6p78pk7ooubjopbjyn2lg1sf3gth,tWfiV0VF,2020-0188,2020-05-08,13:04:58,13:21:11,NA,incomplete,220,filling,1,left,Red_Plus_Stripes_4.jpg,Green_Star_Stripes_3.jpg,Red_Triangle_Chess_1.jpg,right,1290.58499999973,false,high,false
tWfiV0VF,385mdvingfsu7ikqnsjzxyjp4abjww,3r6p78pk7ooubjopbjyn2lg1sf3gth,tWfiV0VF,2020-0188,2020-05-08,13:04:58,13:21:11,NA,incomplete,221,filling,0,left,Purple_Star_Grid_2.jpg,Red_Triangle_Grid_3.jpg,Purple_Circle_Stripes_4.jpg,right,999.5600000001723,false,high,false
tWfiV0VF,385mdvingfsu7ikqnsjzxyjp4abjww,3r6p78pk7ooubjopbjyn2lg1sf3gth,tWfiV0VF,2020-0188,2020-05-08,13:04:58,13:21:11,NA,incomplete,222,filling,1,left,Green_Triangle_Dots_3.jpg,Red_Plus_Dots_2.jpg,Green_Star_Grid_1.jpg,right,850.0800000001909,false,high,false
tWfiV0VF,385mdvingfsu7ikqnsjzxyjp4abjww,3r6p78pk7ooubjopbjyn2lg1sf3gth,tWfiV0VF,2020-0188,2020-05-08,13:04:58,13:21:11,NA,incomplete,223,filling,1,right,Blue_Triangle_Grid_1.jpg,Blue_Star_Stripes_4.jpg,Purple_Plus_Grid_2.jpg,left,795.204999999376,false,high,false
tWfiV0VF,385mdvingfsu7ikqnsjzxyjp4abjww,3r6p78pk7ooubjopbjyn2lg1sf3gth,tWfiV0VF,2020-0188,2020-05-08,13:04:58,13:21:11,NA,incomplete,224,filling,1,left,Purple_Star_Stripes_4.jpg,Green_Circle_Stripes_1.jpg,Purple_Plus_Chess_2.jpg,left,1203.8450000000885,true,high,false
tWfiV0VF,385mdvingfsu7ikqnsjzxyjp4abjww,3r6p78pk7ooubjopbjyn2lg1sf3gth,tWfiV0VF,2020-0188,2020-05-08,13:04:58,13:21:11,NA,incomplete,225,filling,0,right,Purple_Star_Chess_2.jpg,Purple_Triangle_Dots_1.jpg,Red_Plus_Chess_4.jpg,right,1115.374999999418,true,high,false
tWfiV0VF,385mdvingfsu7ikqnsjzxyjp4abjww,3r6p78pk7ooubjopbjyn2lg1sf3gth,tWfiV0VF,2020-0188,2020-05-08,13:04:58,13:21:11,NA,incomplete,226,filling,1,left,Blue_Circle_Grid_3.jpg,Red_Star_Grid_1.jpg,Blue_Triangle_Chess_2.jpg,left,1507.0599999999395,true,high,false
tWfiV0VF,385mdvingfsu7ikqnsjzxyjp4abjww,3r6p78pk7ooubjopbjyn2lg1sf3gth,tWfiV0VF,2020-0188,2020-05-08,13:04:58,13:21:11,NA,incomplete,227,filling,1,left,Red_Triangle_Grid_1.jpg,Blue_Circle_Grid_3.jpg,Red_Plus_Dots_2.jpg,left,1043.3850000000093,true,high,false
tWfiV0VF,385mdvingfsu7ikqnsjzxyjp4abjww,3r6p78pk7ooubjopbjyn2lg1sf3gth,tWfiV0VF,2020-0188,2020-05-08,13:04:58,13:21:11,NA,incomplete,228,filling,0,left,Blue_Star_Chess_4.jpg,Red_Circle_Chess_1.jpg,Blue_Plus_Stripes_3.jpg,left,1305.9549999998417,true,high,false
tWfiV0VF,385mdvingfsu7ikqnsjzxyjp4abjww,3r6p78pk7ooubjopbjyn2lg1sf3gth,tWfiV0VF,2020-0188,2020-05-08,13:04:58,13:21:11,NA,incomplete,229,filling,1,left,Red_Plus_Stripes_3.jpg,Green_Star_Stripes_1.jpg,Red_Circle_Chess_2.jpg,left,1029.279999999795,true,high,false
tWfiV0VF,385mdvingfsu7ikqnsjzxyjp4abjww,3r6p78pk7ooubjopbjyn2lg1sf3gth,tWfiV0VF,2020-0188,2020-05-08,13:04:58,13:21:11,NA,incomplete,230,filling,0,left,Blue_Star_Dots_4.jpg,Red_Circle_Dots_3.jpg,Blue_Plus_Stripes_2.jpg,left,1239.075000000419,true,high,false
tWfiV0VF,385mdvingfsu7ikqnsjzxyjp4abjww,3r6p78pk7ooubjopbjyn2lg1sf3gth,tWfiV0VF,2020-0188,2020-05-08,13:04:58,13:21:11,NA,incomplete,231,filling,1,right,Red_Circle_Stripes_2.jpg,Red_Plus_Dots_1.jpg,Purple_Triangle_Stripes_3.jpg,right,990.195000000298,true,high,false
tWfiV0VF,385mdvingfsu7ikqnsjzxyjp4abjww,3r6p78pk7ooubjopbjyn2lg1sf3gth,tWfiV0VF,2020-0188,2020-05-08,13:04:58,13:21:11,NA,incomplete,232,filling,1,left,Blue_Star_Stripes_2.jpg,Red_Triangle_Stripes_4.jpg,Blue_Circle_Dots_3.jpg,left,1004.3599999998696,true,high,false
tWfiV0VF,385mdvingfsu7ikqnsjzxyjp4abjww,3r6p78pk7ooubjopbjyn2lg1sf3gth,tWfiV0VF,2020-0188,2020-05-08,13:04:58,13:21:11,NA,incomplete,233,filling,1,left,Green_Star_Stripes_3.jpg,Red_Plus_Stripes_4.jpg,Green_Circle_Chess_1.jpg,right,1281.2899999998044,false,high,false
tWfiV0VF,385mdvingfsu7ikqnsjzxyjp4abjww,3r6p78pk7ooubjopbjyn2lg1sf3gth,tWfiV0VF,2020-0188,2020-05-08,13:04:58,13:21:11,NA,incomplete,234,filling,1,left,Purple_Triangle_Grid_4.jpg,Blue_Plus_Grid_1.jpg,Purple_Circle_Stripes_3.jpg,left,1345.9999999995343,true,high,false
tWfiV0VF,385mdvingfsu7ikqnsjzxyjp4abjww,3r6p78pk7ooubjopbjyn2lg1sf3gth,tWfiV0VF,2020-0188,2020-05-08,13:04:58,13:21:11,NA,incomplete,235,filling,1,left,Blue_Star_Chess_2.jpg,Purple_Circle_Chess_4.jpg,Blue_Plus_Grid_1.jpg,right,1494.5950000000885,false,high,false
tWfiV0VF,385mdvingfsu7ikqnsjzxyjp4abjww,3r6p78pk7ooubjopbjyn2lg1sf3gth,tWfiV0VF,2020-0188,2020-05-08,13:04:58,13:21:11,NA,incomplete,236,filling,0,right,Purple_Plus_Chess_4.jpg,Purple_Circle_Stripes_1.jpg,Blue_Star_Chess_3.jpg,right,1428.6000000002095,true,high,false
tWfiV0VF,385mdvingfsu7ikqnsjzxyjp4abjww,3r6p78pk7ooubjopbjyn2lg1sf3gth,tWfiV0VF,2020-0188,2020-05-08,13:04:58,13:21:11,NA,incomplete,237,filling,1,left,Red_Circle_Grid_4.jpg,Blue_Triangle_Grid_1.jpg,Red_Plus_Dots_2.jpg,left,1112.5849999998463,true,high,false
tWfiV0VF,385mdvingfsu7ikqnsjzxyjp4abjww,3r6p78pk7ooubjopbjyn2lg1sf3gth,tWfiV0VF,2020-0188,2020-05-08,13:04:58,13:21:11,NA,incomplete,238,filling,1,right,Blue_Circle_Grid_4.jpg,Blue_Triangle_Chess_3.jpg,Purple_Star_Grid_2.jpg,left,1487.7749999995576,false,high,false
tWfiV0VF,385mdvingfsu7ikqnsjzxyjp4abjww,3r6p78pk7ooubjopbjyn2lg1sf3gth,tWfiV0VF,2020-0188,2020-05-08,13:04:58,13:21:11,NA,incomplete,239,filling,1,right,Purple_Circle_Dots_4.jpg,Purple_Star_Stripes_1.jpg,Red_Plus_Dots_3.jpg,right,1216.5350000004983,true,high,false
tWfiV0VF,385mdvingfsu7ikqnsjzxyjp4abjww,3r6p78pk7ooubjopbjyn2lg1sf3gth,tWfiV0VF,2020-0188,2020-05-08,13:04:58,13:21:11,934064.4999999995,973823.8199999996,NA,NA,NA,NA,NA,NA,NA,NA,NA,NA,NA,undefined
