workerId,hitId,assignmentId,subject,studyid,exp_date,exp_start,exp_end,time_start,time_end,trial,type,reward_validity,answer,image_top,image_left,image_right,response,response_time,response_acc,volatility,age,race,gender,ethnicity,color,vision,neuro,practice
pYIS9i42,3fhtjgyt9qduw7xo30k18rjdqjggpm,3r8yzbnq9lvyqalw1c0yr3sm82v7qw,pYIS9i42,2020-0188,2020-11-15,07:41:55,07:57:08,NA,incomplete,0,color,1,left,Green_Circle_Grid_1.jpg,Green_Plus_Chess_4.jpg,Purple_Circle_Dots_2.jpg,left,1983.3100000105333,true,NA,NA,NA,NA,NA,NA,NA,NA,true
pYIS9i42,3fhtjgyt9qduw7xo30k18rjdqjggpm,3r8yzbnq9lvyqalw1c0yr3sm82v7qw,pYIS9i42,2020-0188,2020-11-15,07:41:55,07:57:08,NA,incomplete,1,color,1,right,Red_Circle_Dots_2.jpg,Blue_Circle_Grid_3.jpg,Red_Star_Chess_1.jpg,right,1279.370000003837,true,NA,NA,NA,NA,NA,NA,NA,NA,true
pYIS9i42,3fhtjgyt9qduw7xo30k18rjdqjggpm,3r8yzbnq9lvyqalw1c0yr3sm82v7qw,pYIS9i42,2020-0188,2020-11-15,07:41:55,07:57:08,NA,incomplete,2,color,1,left,Red_Plus_Dots_3.jpg,Red_Circle_Grid_1.jpg,Purple_Plus_Chess_4.jpg,left,1117.5349999975879,true,NA,NA,NA,NA,NA,NA,NA,NA,true
pYIS9i42,3fhtjgyt9qduw7xo30k18rjdqjggpm,3r8yzbnq9lvyqalw1c0yr3sm82v7qw,pYIS9i42,2020-0188,2020-11-15,07:41:55,07:57:08,NA,incomplete,3,color,1,left,Green_Star_Stripes_1.jpg,Green_Plus_Dots_3.jpg,Purple_Star_Grid_2.jpg,left,780.5749999824911,true,NA,NA,NA,NA,NA,NA,NA,NA,true
pYIS9i42,3fhtjgyt9qduw7xo30k18rjdqjggpm,3r8yzbnq9lvyqalw1c0yr3sm82v7qw,pYIS9i42,2020-0188,2020-11-15,07:41:55,07:57:08,NA,incomplete,4,color,1,left,Red_Plus_Dots_2.jpg,Red_Circle_Stripes_3.jpg,Purple_Plus_Grid_1.jpg,left,875.8300000044983,true,NA,NA,NA,NA,NA,NA,NA,NA,true
pYIS9i42,3fhtjgyt9qduw7xo30k18rjdqjggpm,3r8yzbnq9lvyqalw1c0yr3sm82v7qw,pYIS9i42,2020-0188,2020-11-15,07:41:55,07:57:08,NA,incomplete,5,color,0,left,Red_Star_Stripes_3.jpg,Red_Circle_Dots_2.jpg,Green_Star_Chess_1.jpg,left,819.9999999778811,true,NA,NA,NA,NA,NA,NA,NA,NA,true
pYIS9i42,3fhtjgyt9qduw7xo30k18rjdqjggpm,3r8yzbnq9lvyqalw1c0yr3sm82v7qw,pYIS9i42,2020-0188,2020-11-15,07:41:55,07:57:08,NA,incomplete,6,color,1,left,Red_Plus_Stripes_3.jpg,Red_Circle_Grid_4.jpg,Purple_Plus_Dots_2.jpg,left,610.9599999908824,true,NA,NA,NA,NA,NA,NA,NA,NA,true
pYIS9i42,3fhtjgyt9qduw7xo30k18rjdqjggpm,3r8yzbnq9lvyqalw1c0yr3sm82v7qw,pYIS9i42,2020-0188,2020-11-15,07:41:55,07:57:08,NA,incomplete,7,color,1,right,Green_Circle_Dots_2.jpg,Blue_Circle_Grid_1.jpg,Green_Star_Stripes_3.jpg,right,635.439999983646,true,NA,NA,NA,NA,NA,NA,NA,NA,true
pYIS9i42,3fhtjgyt9qduw7xo30k18rjdqjggpm,3r8yzbnq9lvyqalw1c0yr3sm82v7qw,pYIS9i42,2020-0188,2020-11-15,07:41:55,07:57:08,NA,incomplete,8,color,1,right,Red_Plus_Grid_1.jpg,Green_Plus_Stripes_2.jpg,Red_Star_Chess_3.jpg,right,828.8900000043213,true,NA,NA,NA,NA,NA,NA,NA,NA,true
pYIS9i42,3fhtjgyt9qduw7xo30k18rjdqjggpm,3r8yzbnq9lvyqalw1c0yr3sm82v7qw,pYIS9i42,2020-0188,2020-11-15,07:41:55,07:57:08,NA,incomplete,9,color,1,right,Green_Plus_Dots_3.jpg,Red_Plus_Chess_2.jpg,Green_Star_Grid_4.jpg,right,912.6300000061747,true,NA,NA,NA,NA,NA,NA,NA,NA,true
pYIS9i42,3fhtjgyt9qduw7xo30k18rjdqjggpm,3r8yzbnq9lvyqalw1c0yr3sm82v7qw,pYIS9i42,2020-0188,2020-11-15,07:41:55,07:57:08,NA,incomplete,10,color,1,right,Red_Circle_Grid_3.jpg,Blue_Circle_Stripes_1.jpg,Red_Plus_Chess_4.jpg,right,1035.4650000226684,true,NA,NA,NA,NA,NA,NA,NA,NA,true
pYIS9i42,3fhtjgyt9qduw7xo30k18rjdqjggpm,3r8yzbnq9lvyqalw1c0yr3sm82v7qw,pYIS9i42,2020-0188,2020-11-15,07:41:55,07:57:08,NA,incomplete,11,color,1,left,Red_Star_Chess_2.jpg,Red_Triangle_Dots_4.jpg,Blue_Star_Stripes_3.jpg,left,1392.649999994319,true,NA,NA,NA,NA,NA,NA,NA,NA,true
pYIS9i42,3fhtjgyt9qduw7xo30k18rjdqjggpm,3r8yzbnq9lvyqalw1c0yr3sm82v7qw,pYIS9i42,2020-0188,2020-11-15,07:41:55,07:57:08,NA,incomplete,12,color,1,right,Purple_Star_Stripes_3.jpg,Blue_Star_Dots_4.jpg,Purple_Circle_Chess_2.jpg,right,1216.9850000063889,true,NA,NA,NA,NA,NA,NA,NA,NA,true
pYIS9i42,3fhtjgyt9qduw7xo30k18rjdqjggpm,3r8yzbnq9lvyqalw1c0yr3sm82v7qw,pYIS9i42,2020-0188,2020-11-15,07:41:55,07:57:08,NA,incomplete,13,color,1,left,Purple_Plus_Chess_3.jpg,Purple_Circle_Grid_4.jpg,Red_Plus_Stripes_1.jpg,left,833.7549999996554,true,NA,NA,NA,NA,NA,NA,NA,NA,true
pYIS9i42,3fhtjgyt9qduw7xo30k18rjdqjggpm,3r8yzbnq9lvyqalw1c0yr3sm82v7qw,pYIS9i42,2020-0188,2020-11-15,07:41:55,07:57:08,NA,incomplete,14,color,0,left,Purple_Star_Grid_4.jpg,Purple_Triangle_Dots_3.jpg,Blue_Star_Chess_2.jpg,left,916.7449999949895,true,NA,NA,NA,NA,NA,NA,NA,NA,true
pYIS9i42,3fhtjgyt9qduw7xo30k18rjdqjggpm,3r8yzbnq9lvyqalw1c0yr3sm82v7qw,pYIS9i42,2020-0188,2020-11-15,07:41:55,07:57:08,NA,incomplete,15,color,1,left,Blue_Plus_Dots_3.jpg,Blue_Triangle_Chess_1.jpg,Purple_Plus_Grid_4.jpg,left,918.7300000048708,true,NA,NA,NA,NA,NA,NA,NA,NA,true
pYIS9i42,3fhtjgyt9qduw7xo30k18rjdqjggpm,3r8yzbnq9lvyqalw1c0yr3sm82v7qw,pYIS9i42,2020-0188,2020-11-15,07:41:55,07:57:08,NA,incomplete,16,color,1,right,Purple_Star_Grid_1.jpg,Green_Star_Stripes_4.jpg,Purple_Circle_Dots_3.jpg,right,1067.9550000058953,true,NA,NA,NA,NA,NA,NA,NA,NA,true
pYIS9i42,3fhtjgyt9qduw7xo30k18rjdqjggpm,3r8yzbnq9lvyqalw1c0yr3sm82v7qw,pYIS9i42,2020-0188,2020-11-15,07:41:55,07:57:08,NA,incomplete,17,color,1,right,Purple_Star_Grid_4.jpg,Green_Star_Chess_2.jpg,Purple_Triangle_Dots_3.jpg,right,630.4899999813642,true,NA,NA,NA,NA,NA,NA,NA,NA,true
pYIS9i42,3fhtjgyt9qduw7xo30k18rjdqjggpm,3r8yzbnq9lvyqalw1c0yr3sm82v7qw,pYIS9i42,2020-0188,2020-11-15,07:41:55,07:57:08,NA,incomplete,18,color,1,left,Blue_Circle_Chess_4.jpg,Blue_Triangle_Grid_3.jpg,Green_Circle_Dots_2.jpg,left,553.6650000140071,true,NA,NA,NA,NA,NA,NA,NA,NA,true
pYIS9i42,3fhtjgyt9qduw7xo30k18rjdqjggpm,3r8yzbnq9lvyqalw1c0yr3sm82v7qw,pYIS9i42,2020-0188,2020-11-15,07:41:55,07:57:08,NA,incomplete,19,color,1,right,Purple_Triangle_Chess_4.jpg,Red_Triangle_Stripes_2.jpg,Purple_Plus_Dots_3.jpg,right,544.5399999734946,true,NA,NA,NA,NA,NA,NA,NA,NA,true
pYIS9i42,3fhtjgyt9qduw7xo30k18rjdqjggpm,3r8yzbnq9lvyqalw1c0yr3sm82v7qw,pYIS9i42,2020-0188,2020-11-15,07:41:55,07:57:08,NA,incomplete,20,shape,1,right,Red_Star_Grid_4.jpg,Red_Plus_Chess_3.jpg,Blue_Star_Dots_1.jpg,left,556.7950000113342,false,NA,NA,NA,NA,NA,NA,NA,NA,true
pYIS9i42,3fhtjgyt9qduw7xo30k18rjdqjggpm,3r8yzbnq9lvyqalw1c0yr3sm82v7qw,pYIS9i42,2020-0188,2020-11-15,07:41:55,07:57:08,NA,incomplete,21,shape,1,right,Blue_Plus_Chess_1.jpg,Blue_Triangle_Dots_2.jpg,Red_Plus_Grid_4.jpg,right,1297.1549999783747,true,NA,NA,NA,NA,NA,NA,NA,NA,true
pYIS9i42,3fhtjgyt9qduw7xo30k18rjdqjggpm,3r8yzbnq9lvyqalw1c0yr3sm82v7qw,pYIS9i42,2020-0188,2020-11-15,07:41:55,07:57:08,NA,incomplete,22,shape,0,left,Blue_Circle_Grid_2.jpg,Purple_Circle_Chess_1.jpg,Blue_Star_Dots_3.jpg,left,1553.539999993518,true,NA,NA,NA,NA,NA,NA,NA,NA,true
pYIS9i42,3fhtjgyt9qduw7xo30k18rjdqjggpm,3r8yzbnq9lvyqalw1c0yr3sm82v7qw,pYIS9i42,2020-0188,2020-11-15,07:41:55,07:57:08,NA,incomplete,23,shape,1,left,Red_Triangle_Chess_1.jpg,Blue_Triangle_Dots_2.jpg,Red_Plus_Stripes_3.jpg,left,1268.9299999910872,true,NA,NA,NA,NA,NA,NA,NA,NA,true
pYIS9i42,3fhtjgyt9qduw7xo30k18rjdqjggpm,3r8yzbnq9lvyqalw1c0yr3sm82v7qw,pYIS9i42,2020-0188,2020-11-15,07:41:55,07:57:08,NA,incomplete,24,shape,0,left,Blue_Star_Grid_4.jpg,Red_Star_Dots_1.jpg,Blue_Circle_Chess_2.jpg,left,1112.185000005411,true,NA,NA,NA,NA,NA,NA,NA,NA,true
pYIS9i42,3fhtjgyt9qduw7xo30k18rjdqjggpm,3r8yzbnq9lvyqalw1c0yr3sm82v7qw,pYIS9i42,2020-0188,2020-11-15,07:41:55,07:57:08,NA,incomplete,25,shape,1,right,Red_Star_Stripes_4.jpg,Red_Triangle_Chess_1.jpg,Purple_Star_Dots_2.jpg,none,0,false,NA,NA,NA,NA,NA,NA,NA,NA,true
pYIS9i42,3fhtjgyt9qduw7xo30k18rjdqjggpm,3r8yzbnq9lvyqalw1c0yr3sm82v7qw,pYIS9i42,2020-0188,2020-11-15,07:41:55,07:57:08,NA,incomplete,26,shape,1,left,Red_Plus_Dots_3.jpg,Purple_Plus_Stripes_4.jpg,Red_Triangle_Chess_2.jpg,left,1868.49500000244,true,NA,NA,NA,NA,NA,NA,NA,NA,true
pYIS9i42,3fhtjgyt9qduw7xo30k18rjdqjggpm,3r8yzbnq9lvyqalw1c0yr3sm82v7qw,pYIS9i42,2020-0188,2020-11-15,07:41:55,07:57:08,NA,incomplete,27,shape,1,left,Purple_Plus_Stripes_4.jpg,Green_Plus_Dots_3.jpg,Purple_Circle_Chess_2.jpg,left,1295.154999999795,true,NA,NA,NA,NA,NA,NA,NA,NA,true
pYIS9i42,3fhtjgyt9qduw7xo30k18rjdqjggpm,3r8yzbnq9lvyqalw1c0yr3sm82v7qw,pYIS9i42,2020-0188,2020-11-15,07:41:55,07:57:08,NA,incomplete,28,shape,1,left,Green_Star_Grid_3.jpg,Purple_Star_Stripes_4.jpg,Green_Plus_Dots_1.jpg,left,1532.2699999960605,true,NA,NA,NA,NA,NA,NA,NA,NA,true
pYIS9i42,3fhtjgyt9qduw7xo30k18rjdqjggpm,3r8yzbnq9lvyqalw1c0yr3sm82v7qw,pYIS9i42,2020-0188,2020-11-15,07:41:55,07:57:08,NA,incomplete,29,shape,1,right,Red_Star_Chess_3.jpg,Red_Plus_Grid_2.jpg,Blue_Star_Dots_4.jpg,right,1781.184999999823,true,NA,NA,NA,NA,NA,NA,NA,NA,true
pYIS9i42,3fhtjgyt9qduw7xo30k18rjdqjggpm,3r8yzbnq9lvyqalw1c0yr3sm82v7qw,pYIS9i42,2020-0188,2020-11-15,07:41:55,07:57:08,NA,incomplete,30,shape,1,left,Red_Star_Grid_3.jpg,Purple_Star_Dots_1.jpg,Red_Triangle_Stripes_4.jpg,left,1140.125000005355,true,NA,NA,NA,NA,NA,NA,NA,NA,true
pYIS9i42,3fhtjgyt9qduw7xo30k18rjdqjggpm,3r8yzbnq9lvyqalw1c0yr3sm82v7qw,pYIS9i42,2020-0188,2020-11-15,07:41:55,07:57:08,NA,incomplete,31,shape,1,right,Blue_Circle_Chess_2.jpg,Blue_Plus_Dots_1.jpg,Purple_Circle_Stripes_4.jpg,right,1651.129999983823,true,NA,NA,NA,NA,NA,NA,NA,NA,true
pYIS9i42,3fhtjgyt9qduw7xo30k18rjdqjggpm,3r8yzbnq9lvyqalw1c0yr3sm82v7qw,pYIS9i42,2020-0188,2020-11-15,07:41:55,07:57:08,NA,incomplete,32,shape,0,right,Blue_Star_Stripes_2.jpg,Blue_Plus_Chess_4.jpg,Purple_Star_Dots_1.jpg,right,1206.5099999890663,true,NA,NA,NA,NA,NA,NA,NA,NA,true
pYIS9i42,3fhtjgyt9qduw7xo30k18rjdqjggpm,3r8yzbnq9lvyqalw1c0yr3sm82v7qw,pYIS9i42,2020-0188,2020-11-15,07:41:55,07:57:08,NA,incomplete,33,shape,1,left,Blue_Triangle_Dots_4.jpg,Purple_Triangle_Chess_2.jpg,Blue_Star_Grid_3.jpg,left,1000.6400000129361,true,NA,NA,NA,NA,NA,NA,NA,NA,true
pYIS9i42,3fhtjgyt9qduw7xo30k18rjdqjggpm,3r8yzbnq9lvyqalw1c0yr3sm82v7qw,pYIS9i42,2020-0188,2020-11-15,07:41:55,07:57:08,NA,incomplete,34,shape,0,left,Green_Triangle_Chess_4.jpg,Red_Triangle_Dots_3.jpg,Green_Plus_Stripes_2.jpg,right,987.2700000123587,false,NA,NA,NA,NA,NA,NA,NA,NA,true
pYIS9i42,3fhtjgyt9qduw7xo30k18rjdqjggpm,3r8yzbnq9lvyqalw1c0yr3sm82v7qw,pYIS9i42,2020-0188,2020-11-15,07:41:55,07:57:08,NA,incomplete,35,shape,1,left,Red_Star_Grid_4.jpg,Purple_Star_Dots_1.jpg,Red_Plus_Chess_3.jpg,left,1164.0599999809638,true,NA,NA,NA,NA,NA,NA,NA,NA,true
pYIS9i42,3fhtjgyt9qduw7xo30k18rjdqjggpm,3r8yzbnq9lvyqalw1c0yr3sm82v7qw,pYIS9i42,2020-0188,2020-11-15,07:41:55,07:57:08,NA,incomplete,36,shape,0,left,Red_Circle_Grid_2.jpg,Blue_Circle_Stripes_4.jpg,Red_Star_Chess_3.jpg,left,1111.3849999965169,true,NA,NA,NA,NA,NA,NA,NA,NA,true
pYIS9i42,3fhtjgyt9qduw7xo30k18rjdqjggpm,3r8yzbnq9lvyqalw1c0yr3sm82v7qw,pYIS9i42,2020-0188,2020-11-15,07:41:55,07:57:08,NA,incomplete,37,shape,1,right,Purple_Triangle_Dots_3.jpg,Purple_Circle_Grid_1.jpg,Green_Triangle_Stripes_2.jpg,right,1504.7800000174902,true,NA,NA,NA,NA,NA,NA,NA,NA,true
pYIS9i42,3fhtjgyt9qduw7xo30k18rjdqjggpm,3r8yzbnq9lvyqalw1c0yr3sm82v7qw,pYIS9i42,2020-0188,2020-11-15,07:41:55,07:57:08,NA,incomplete,38,shape,1,right,Green_Plus_Chess_1.jpg,Green_Star_Dots_2.jpg,Blue_Plus_Grid_3.jpg,right,1412.3599999875296,true,NA,NA,NA,NA,NA,NA,NA,NA,true
pYIS9i42,3fhtjgyt9qduw7xo30k18rjdqjggpm,3r8yzbnq9lvyqalw1c0yr3sm82v7qw,pYIS9i42,2020-0188,2020-11-15,07:41:55,07:57:08,NA,incomplete,39,shape,0,left,Purple_Plus_Chess_2.jpg,Green_Plus_Dots_1.jpg,Purple_Triangle_Stripes_3.jpg,left,1647.2450000001118,true,NA,NA,NA,NA,NA,NA,NA,NA,true
pYIS9i42,3fhtjgyt9qduw7xo30k18rjdqjggpm,3r8yzbnq9lvyqalw1c0yr3sm82v7qw,pYIS9i42,2020-0188,2020-11-15,07:41:55,07:57:08,NA,incomplete,0,color,0,left,Red_Plus_Stripes_2.jpg,Red_Star_Chess_3.jpg,Green_Plus_Dots_1.jpg,right,845.9699999948498,false,high,NA,NA,NA,NA,NA,NA,NA,false
pYIS9i42,3fhtjgyt9qduw7xo30k18rjdqjggpm,3r8yzbnq9lvyqalw1c0yr3sm82v7qw,pYIS9i42,2020-0188,2020-11-15,07:41:55,07:57:08,NA,incomplete,1,color,0,left,Blue_Star_Dots_3.jpg,Blue_Triangle_Stripes_4.jpg,Green_Star_Chess_1.jpg,right,921.7150000040419,false,high,NA,NA,NA,NA,NA,NA,NA,false
pYIS9i42,3fhtjgyt9qduw7xo30k18rjdqjggpm,3r8yzbnq9lvyqalw1c0yr3sm82v7qw,pYIS9i42,2020-0188,2020-11-15,07:41:55,07:57:08,NA,incomplete,2,color,1,left,Blue_Triangle_Chess_1.jpg,Blue_Plus_Grid_4.jpg,Purple_Triangle_Stripes_2.jpg,right,772.4799999850802,false,high,NA,NA,NA,NA,NA,NA,NA,false
pYIS9i42,3fhtjgyt9qduw7xo30k18rjdqjggpm,3r8yzbnq9lvyqalw1c0yr3sm82v7qw,pYIS9i42,2020-0188,2020-11-15,07:41:55,07:57:08,NA,incomplete,3,color,0,left,Green_Triangle_Grid_4.jpg,Green_Star_Dots_1.jpg,Red_Triangle_Stripes_3.jpg,left,795.9399999817833,true,high,NA,NA,NA,NA,NA,NA,NA,false
pYIS9i42,3fhtjgyt9qduw7xo30k18rjdqjggpm,3r8yzbnq9lvyqalw1c0yr3sm82v7qw,pYIS9i42,2020-0188,2020-11-15,07:41:55,07:57:08,NA,incomplete,4,color,1,left,Purple_Star_Chess_3.jpg,Purple_Circle_Dots_1.jpg,Blue_Star_Stripes_2.jpg,right,841.004999994766,false,high,NA,NA,NA,NA,NA,NA,NA,false
pYIS9i42,3fhtjgyt9qduw7xo30k18rjdqjggpm,3r8yzbnq9lvyqalw1c0yr3sm82v7qw,pYIS9i42,2020-0188,2020-11-15,07:41:55,07:57:08,NA,incomplete,5,color,1,left,Green_Plus_Stripes_3.jpg,Green_Triangle_Chess_1.jpg,Blue_Plus_Grid_2.jpg,left,710.7899999828078,true,high,NA,NA,NA,NA,NA,NA,NA,false
pYIS9i42,3fhtjgyt9qduw7xo30k18rjdqjggpm,3r8yzbnq9lvyqalw1c0yr3sm82v7qw,pYIS9i42,2020-0188,2020-11-15,07:41:55,07:57:08,NA,incomplete,6,color,0,right,Green_Star_Dots_2.jpg,Purple_Star_Grid_3.jpg,Green_Circle_Chess_1.jpg,right,768.1950000114739,true,high,NA,NA,NA,NA,NA,NA,NA,false
pYIS9i42,3fhtjgyt9qduw7xo30k18rjdqjggpm,3r8yzbnq9lvyqalw1c0yr3sm82v7qw,pYIS9i42,2020-0188,2020-11-15,07:41:55,07:57:08,NA,incomplete,7,color,0,right,Purple_Triangle_Chess_4.jpg,Blue_Triangle_Stripes_2.jpg,Purple_Circle_Grid_1.jpg,left,695.6449999997858,false,high,NA,NA,NA,NA,NA,NA,NA,false
pYIS9i42,3fhtjgyt9qduw7xo30k18rjdqjggpm,3r8yzbnq9lvyqalw1c0yr3sm82v7qw,pYIS9i42,2020-0188,2020-11-15,07:41:55,07:57:08,NA,incomplete,8,color,1,left,Blue_Triangle_Dots_2.jpg,Blue_Circle_Grid_1.jpg,Red_Triangle_Stripes_3.jpg,right,699.0100000111852,false,high,NA,NA,NA,NA,NA,NA,NA,false
pYIS9i42,3fhtjgyt9qduw7xo30k18rjdqjggpm,3r8yzbnq9lvyqalw1c0yr3sm82v7qw,pYIS9i42,2020-0188,2020-11-15,07:41:55,07:57:08,NA,incomplete,9,color,1,left,Red_Triangle_Dots_2.jpg,Red_Star_Chess_4.jpg,Green_Triangle_Stripes_1.jpg,right,1311.6850000224076,false,high,NA,NA,NA,NA,NA,NA,NA,false
pYIS9i42,3fhtjgyt9qduw7xo30k18rjdqjggpm,3r8yzbnq9lvyqalw1c0yr3sm82v7qw,pYIS9i42,2020-0188,2020-11-15,07:41:55,07:57:08,NA,incomplete,10,shape,1,right,Purple_Plus_Grid_3.jpg,Purple_Star_Chess_4.jpg,Blue_Plus_Stripes_1.jpg,left,801.644999999553,false,high,NA,NA,NA,NA,NA,NA,NA,false
pYIS9i42,3fhtjgyt9qduw7xo30k18rjdqjggpm,3r8yzbnq9lvyqalw1c0yr3sm82v7qw,pYIS9i42,2020-0188,2020-11-15,07:41:55,07:57:08,NA,incomplete,11,shape,1,left,Purple_Plus_Dots_2.jpg,Blue_Plus_Stripes_3.jpg,Purple_Triangle_Chess_1.jpg,left,816.1850000033155,true,high,NA,NA,NA,NA,NA,NA,NA,false
pYIS9i42,3fhtjgyt9qduw7xo30k18rjdqjggpm,3r8yzbnq9lvyqalw1c0yr3sm82v7qw,pYIS9i42,2020-0188,2020-11-15,07:41:55,07:57:08,NA,incomplete,12,shape,1,left,Green_Circle_Chess_3.jpg,Red_Circle_Stripes_4.jpg,Green_Star_Grid_2.jpg,left,797.2650000010617,true,high,NA,NA,NA,NA,NA,NA,NA,false
pYIS9i42,3fhtjgyt9qduw7xo30k18rjdqjggpm,3r8yzbnq9lvyqalw1c0yr3sm82v7qw,pYIS9i42,2020-0188,2020-11-15,07:41:55,07:57:08,NA,incomplete,13,shape,1,right,Red_Plus_Chess_3.jpg,Red_Circle_Grid_4.jpg,Green_Plus_Stripes_1.jpg,right,861.6049999836832,true,high,NA,NA,NA,NA,NA,NA,NA,false
pYIS9i42,3fhtjgyt9qduw7xo30k18rjdqjggpm,3r8yzbnq9lvyqalw1c0yr3sm82v7qw,pYIS9i42,2020-0188,2020-11-15,07:41:55,07:57:08,NA,incomplete,14,shape,1,left,Purple_Plus_Stripes_2.jpg,Green_Plus_Grid_4.jpg,Purple_Triangle_Dots_3.jpg,left,750.930000009248,true,high,NA,NA,NA,NA,NA,NA,NA,false
pYIS9i42,3fhtjgyt9qduw7xo30k18rjdqjggpm,3r8yzbnq9lvyqalw1c0yr3sm82v7qw,pYIS9i42,2020-0188,2020-11-15,07:41:55,07:57:08,NA,incomplete,15,shape,1,left,Purple_Circle_Stripes_2.jpg,Blue_Circle_Dots_4.jpg,Purple_Plus_Chess_3.jpg,left,826.0050000099,true,high,NA,NA,NA,NA,NA,NA,NA,false
pYIS9i42,3fhtjgyt9qduw7xo30k18rjdqjggpm,3r8yzbnq9lvyqalw1c0yr3sm82v7qw,pYIS9i42,2020-0188,2020-11-15,07:41:55,07:57:08,NA,incomplete,16,shape,1,right,Red_Triangle_Grid_3.jpg,Red_Star_Dots_1.jpg,Green_Triangle_Stripes_2.jpg,right,709.4649999926332,true,high,NA,NA,NA,NA,NA,NA,NA,false
pYIS9i42,3fhtjgyt9qduw7xo30k18rjdqjggpm,3r8yzbnq9lvyqalw1c0yr3sm82v7qw,pYIS9i42,2020-0188,2020-11-15,07:41:55,07:57:08,NA,incomplete,17,shape,0,right,Green_Triangle_Grid_1.jpg,Green_Star_Chess_4.jpg,Blue_Triangle_Stripes_3.jpg,right,1077.3800000024494,true,high,NA,NA,NA,NA,NA,NA,NA,false
pYIS9i42,3fhtjgyt9qduw7xo30k18rjdqjggpm,3r8yzbnq9lvyqalw1c0yr3sm82v7qw,pYIS9i42,2020-0188,2020-11-15,07:41:55,07:57:08,NA,incomplete,18,shape,1,left,Green_Star_Chess_3.jpg,Purple_Star_Grid_2.jpg,Green_Triangle_Dots_4.jpg,left,1012.6900000032037,true,high,NA,NA,NA,NA,NA,NA,NA,false
pYIS9i42,3fhtjgyt9qduw7xo30k18rjdqjggpm,3r8yzbnq9lvyqalw1c0yr3sm82v7qw,pYIS9i42,2020-0188,2020-11-15,07:41:55,07:57:08,NA,incomplete,19,shape,1,right,Blue_Plus_Stripes_1.jpg,Blue_Triangle_Grid_2.jpg,Red_Plus_Dots_4.jpg,right,1231.885000015609,true,high,NA,NA,NA,NA,NA,NA,NA,false
pYIS9i42,3fhtjgyt9qduw7xo30k18rjdqjggpm,3r8yzbnq9lvyqalw1c0yr3sm82v7qw,pYIS9i42,2020-0188,2020-11-15,07:41:55,07:57:08,NA,incomplete,20,color,1,left,Green_Triangle_Dots_3.jpg,Green_Star_Grid_1.jpg,Red_Triangle_Chess_2.jpg,left,1217.5400000123773,true,high,NA,NA,NA,NA,NA,NA,NA,false
pYIS9i42,3fhtjgyt9qduw7xo30k18rjdqjggpm,3r8yzbnq9lvyqalw1c0yr3sm82v7qw,pYIS9i42,2020-0188,2020-11-15,07:41:55,07:57:08,NA,incomplete,21,color,0,right,Purple_Triangle_Dots_1.jpg,Blue_Triangle_Grid_4.jpg,Purple_Plus_Stripes_2.jpg,right,1185.5149999901187,true,high,NA,NA,NA,NA,NA,NA,NA,false
pYIS9i42,3fhtjgyt9qduw7xo30k18rjdqjggpm,3r8yzbnq9lvyqalw1c0yr3sm82v7qw,pYIS9i42,2020-0188,2020-11-15,07:41:55,07:57:08,NA,incomplete,22,color,1,right,Blue_Circle_Grid_1.jpg,Green_Circle_Stripes_2.jpg,Blue_Plus_Dots_4.jpg,right,1066.030000016326,true,high,NA,NA,NA,NA,NA,NA,NA,false
pYIS9i42,3fhtjgyt9qduw7xo30k18rjdqjggpm,3r8yzbnq9lvyqalw1c0yr3sm82v7qw,pYIS9i42,2020-0188,2020-11-15,07:41:55,07:57:08,NA,incomplete,23,color,0,left,Red_Plus_Stripes_4.jpg,Red_Triangle_Grid_1.jpg,Blue_Plus_Dots_3.jpg,left,795.0849999906495,true,high,NA,NA,NA,NA,NA,NA,NA,false
pYIS9i42,3fhtjgyt9qduw7xo30k18rjdqjggpm,3r8yzbnq9lvyqalw1c0yr3sm82v7qw,pYIS9i42,2020-0188,2020-11-15,07:41:55,07:57:08,NA,incomplete,24,color,1,right,Red_Star_Grid_2.jpg,Blue_Star_Stripes_3.jpg,Red_Circle_Dots_4.jpg,left,1397.9450000042561,false,high,NA,NA,NA,NA,NA,NA,NA,false
pYIS9i42,3fhtjgyt9qduw7xo30k18rjdqjggpm,3r8yzbnq9lvyqalw1c0yr3sm82v7qw,pYIS9i42,2020-0188,2020-11-15,07:41:55,07:57:08,NA,incomplete,25,color,1,left,Green_Plus_Chess_1.jpg,Green_Circle_Grid_3.jpg,Blue_Plus_Stripes_2.jpg,right,899.2399999988265,false,high,NA,NA,NA,NA,NA,NA,NA,false
pYIS9i42,3fhtjgyt9qduw7xo30k18rjdqjggpm,3r8yzbnq9lvyqalw1c0yr3sm82v7qw,pYIS9i42,2020-0188,2020-11-15,07:41:55,07:57:08,NA,incomplete,26,color,1,right,Purple_Triangle_Stripes_1.jpg,Blue_Triangle_Grid_3.jpg,Purple_Star_Dots_4.jpg,right,1008.5249999829102,true,high,NA,NA,NA,NA,NA,NA,NA,false
pYIS9i42,3fhtjgyt9qduw7xo30k18rjdqjggpm,3r8yzbnq9lvyqalw1c0yr3sm82v7qw,pYIS9i42,2020-0188,2020-11-15,07:41:55,07:57:08,NA,incomplete,27,color,1,left,Green_Star_Stripes_4.jpg,Green_Circle_Grid_2.jpg,Blue_Star_Chess_3.jpg,right,983.5650000022724,false,high,NA,NA,NA,NA,NA,NA,NA,false
pYIS9i42,3fhtjgyt9qduw7xo30k18rjdqjggpm,3r8yzbnq9lvyqalw1c0yr3sm82v7qw,pYIS9i42,2020-0188,2020-11-15,07:41:55,07:57:08,NA,incomplete,28,color,1,right,Green_Plus_Chess_3.jpg,Blue_Plus_Grid_4.jpg,Green_Circle_Stripes_2.jpg,left,948.4400000073947,false,high,NA,NA,NA,NA,NA,NA,NA,false
pYIS9i42,3fhtjgyt9qduw7xo30k18rjdqjggpm,3r8yzbnq9lvyqalw1c0yr3sm82v7qw,pYIS9i42,2020-0188,2020-11-15,07:41:55,07:57:08,NA,incomplete,29,color,0,left,Red_Star_Chess_4.jpg,Red_Plus_Stripes_2.jpg,Purple_Star_Grid_3.jpg,left,812.2149999835528,true,high,NA,NA,NA,NA,NA,NA,NA,false
pYIS9i42,3fhtjgyt9qduw7xo30k18rjdqjggpm,3r8yzbnq9lvyqalw1c0yr3sm82v7qw,pYIS9i42,2020-0188,2020-11-15,07:41:55,07:57:08,NA,incomplete,30,shape,1,right,Purple_Star_Dots_4.jpg,Purple_Triangle_Chess_2.jpg,Green_Star_Stripes_3.jpg,right,820.3400000056718,true,high,NA,NA,NA,NA,NA,NA,NA,false
pYIS9i42,3fhtjgyt9qduw7xo30k18rjdqjggpm,3r8yzbnq9lvyqalw1c0yr3sm82v7qw,pYIS9i42,2020-0188,2020-11-15,07:41:55,07:57:08,NA,incomplete,31,shape,1,left,Blue_Plus_Grid_4.jpg,Green_Plus_Dots_3.jpg,Blue_Circle_Chess_2.jpg,left,817.0250000257511,true,high,NA,NA,NA,NA,NA,NA,NA,false
pYIS9i42,3fhtjgyt9qduw7xo30k18rjdqjggpm,3r8yzbnq9lvyqalw1c0yr3sm82v7qw,pYIS9i42,2020-0188,2020-11-15,07:41:55,07:57:08,NA,incomplete,32,shape,1,left,Purple_Star_Stripes_2.jpg,Red_Star_Grid_1.jpg,Purple_Plus_Chess_4.jpg,left,946.3149999792222,true,high,NA,NA,NA,NA,NA,NA,NA,false
pYIS9i42,3fhtjgyt9qduw7xo30k18rjdqjggpm,3r8yzbnq9lvyqalw1c0yr3sm82v7qw,pYIS9i42,2020-0188,2020-11-15,07:41:55,07:57:08,NA,incomplete,33,shape,1,left,Blue_Star_Dots_1.jpg,Purple_Star_Chess_2.jpg,Blue_Circle_Stripes_4.jpg,left,906.1449999862816,true,high,NA,NA,NA,NA,NA,NA,NA,false
pYIS9i42,3fhtjgyt9qduw7xo30k18rjdqjggpm,3r8yzbnq9lvyqalw1c0yr3sm82v7qw,pYIS9i42,2020-0188,2020-11-15,07:41:55,07:57:08,NA,incomplete,34,shape,1,right,Blue_Plus_Dots_1.jpg,Blue_Circle_Chess_2.jpg,Purple_Plus_Grid_3.jpg,right,748.6299999873154,true,high,NA,NA,NA,NA,NA,NA,NA,false
pYIS9i42,3fhtjgyt9qduw7xo30k18rjdqjggpm,3r8yzbnq9lvyqalw1c0yr3sm82v7qw,pYIS9i42,2020-0188,2020-11-15,07:41:55,07:57:08,NA,incomplete,35,shape,1,left,Green_Star_Grid_4.jpg,Purple_Star_Chess_3.jpg,Green_Circle_Stripes_1.jpg,left,865.3150000027381,true,high,NA,NA,NA,NA,NA,NA,NA,false
pYIS9i42,3fhtjgyt9qduw7xo30k18rjdqjggpm,3r8yzbnq9lvyqalw1c0yr3sm82v7qw,pYIS9i42,2020-0188,2020-11-15,07:41:55,07:57:08,NA,incomplete,36,shape,1,left,Blue_Plus_Stripes_3.jpg,Red_Plus_Chess_2.jpg,Blue_Star_Grid_1.jpg,left,879.3999999761581,true,high,NA,NA,NA,NA,NA,NA,NA,false
pYIS9i42,3fhtjgyt9qduw7xo30k18rjdqjggpm,3r8yzbnq9lvyqalw1c0yr3sm82v7qw,pYIS9i42,2020-0188,2020-11-15,07:41:55,07:57:08,NA,incomplete,37,shape,1,left,Blue_Plus_Grid_3.jpg,Purple_Plus_Stripes_1.jpg,Blue_Circle_Chess_2.jpg,left,814.2799999914132,true,high,NA,NA,NA,NA,NA,NA,NA,false
pYIS9i42,3fhtjgyt9qduw7xo30k18rjdqjggpm,3r8yzbnq9lvyqalw1c0yr3sm82v7qw,pYIS9i42,2020-0188,2020-11-15,07:41:55,07:57:08,NA,incomplete,38,shape,1,left,Green_Star_Stripes_2.jpg,Purple_Star_Grid_3.jpg,Green_Circle_Dots_4.jpg,left,916.3100000005215,true,high,NA,NA,NA,NA,NA,NA,NA,false
pYIS9i42,3fhtjgyt9qduw7xo30k18rjdqjggpm,3r8yzbnq9lvyqalw1c0yr3sm82v7qw,pYIS9i42,2020-0188,2020-11-15,07:41:55,07:57:08,NA,incomplete,39,shape,1,right,Blue_Plus_Grid_4.jpg,Blue_Circle_Dots_3.jpg,Purple_Plus_Stripes_2.jpg,right,774.0449999982957,true,high,NA,NA,NA,NA,NA,NA,NA,false
pYIS9i42,3fhtjgyt9qduw7xo30k18rjdqjggpm,3r8yzbnq9lvyqalw1c0yr3sm82v7qw,pYIS9i42,2020-0188,2020-11-15,07:41:55,07:57:08,NA,incomplete,40,color,0,right,Blue_Circle_Grid_3.jpg,Red_Circle_Dots_4.jpg,Blue_Triangle_Stripes_2.jpg,left,797.6000000198837,false,high,NA,NA,NA,NA,NA,NA,NA,false
pYIS9i42,3fhtjgyt9qduw7xo30k18rjdqjggpm,3r8yzbnq9lvyqalw1c0yr3sm82v7qw,pYIS9i42,2020-0188,2020-11-15,07:41:55,07:57:08,NA,incomplete,41,color,1,right,Blue_Plus_Dots_2.jpg,Red_Plus_Chess_1.jpg,Blue_Triangle_Stripes_3.jpg,left,815.6500000040978,false,high,NA,NA,NA,NA,NA,NA,NA,false
pYIS9i42,3fhtjgyt9qduw7xo30k18rjdqjggpm,3r8yzbnq9lvyqalw1c0yr3sm82v7qw,pYIS9i42,2020-0188,2020-11-15,07:41:55,07:57:08,NA,incomplete,42,color,0,left,Blue_Star_Chess_2.jpg,Blue_Triangle_Stripes_1.jpg,Green_Star_Grid_3.jpg,right,1203.9349999977276,false,high,NA,NA,NA,NA,NA,NA,NA,false
pYIS9i42,3fhtjgyt9qduw7xo30k18rjdqjggpm,3r8yzbnq9lvyqalw1c0yr3sm82v7qw,pYIS9i42,2020-0188,2020-11-15,07:41:55,07:57:08,NA,incomplete,43,color,1,left,Purple_Star_Grid_4.jpg,Purple_Plus_Dots_1.jpg,Red_Star_Chess_3.jpg,right,994.6349999809172,false,high,NA,NA,NA,NA,NA,NA,NA,false
pYIS9i42,3fhtjgyt9qduw7xo30k18rjdqjggpm,3r8yzbnq9lvyqalw1c0yr3sm82v7qw,pYIS9i42,2020-0188,2020-11-15,07:41:55,07:57:08,NA,incomplete,44,color,0,right,Red_Circle_Chess_3.jpg,Green_Circle_Stripes_4.jpg,Red_Star_Grid_2.jpg,left,905.5349999980535,false,high,NA,NA,NA,NA,NA,NA,NA,false
pYIS9i42,3fhtjgyt9qduw7xo30k18rjdqjggpm,3r8yzbnq9lvyqalw1c0yr3sm82v7qw,pYIS9i42,2020-0188,2020-11-15,07:41:55,07:57:08,NA,incomplete,45,color,0,right,Purple_Triangle_Chess_1.jpg,Red_Triangle_Dots_4.jpg,Purple_Star_Grid_3.jpg,left,801.3600000122096,false,high,NA,NA,NA,NA,NA,NA,NA,false
pYIS9i42,3fhtjgyt9qduw7xo30k18rjdqjggpm,3r8yzbnq9lvyqalw1c0yr3sm82v7qw,pYIS9i42,2020-0188,2020-11-15,07:41:55,07:57:08,NA,incomplete,46,color,1,left,Red_Triangle_Stripes_3.jpg,Red_Circle_Chess_1.jpg,Green_Triangle_Grid_4.jpg,right,697.2249999816995,false,high,NA,NA,NA,NA,NA,NA,NA,false
pYIS9i42,3fhtjgyt9qduw7xo30k18rjdqjggpm,3r8yzbnq9lvyqalw1c0yr3sm82v7qw,pYIS9i42,2020-0188,2020-11-15,07:41:55,07:57:08,NA,incomplete,47,color,1,left,Purple_Circle_Grid_3.jpg,Purple_Plus_Dots_1.jpg,Red_Circle_Stripes_2.jpg,right,930.8500000042841,false,high,NA,NA,NA,NA,NA,NA,NA,false
pYIS9i42,3fhtjgyt9qduw7xo30k18rjdqjggpm,3r8yzbnq9lvyqalw1c0yr3sm82v7qw,pYIS9i42,2020-0188,2020-11-15,07:41:55,07:57:08,NA,incomplete,48,color,1,right,Red_Plus_Grid_3.jpg,Green_Plus_Stripes_2.jpg,Red_Triangle_Dots_1.jpg,right,714.9300000164658,true,high,NA,NA,NA,NA,NA,NA,NA,false
pYIS9i42,3fhtjgyt9qduw7xo30k18rjdqjggpm,3r8yzbnq9lvyqalw1c0yr3sm82v7qw,pYIS9i42,2020-0188,2020-11-15,07:41:55,07:57:08,NA,incomplete,49,color,1,right,Purple_Triangle_Dots_4.jpg,Blue_Triangle_Grid_2.jpg,Purple_Star_Stripes_3.jpg,right,700.3649999969639,true,high,NA,NA,NA,NA,NA,NA,NA,false
pYIS9i42,3fhtjgyt9qduw7xo30k18rjdqjggpm,3r8yzbnq9lvyqalw1c0yr3sm82v7qw,pYIS9i42,2020-0188,2020-11-15,07:41:55,07:57:08,NA,incomplete,50,shape,1,right,Blue_Circle_Chess_3.jpg,Blue_Plus_Grid_2.jpg,Red_Circle_Stripes_4.jpg,left,594.7100000048522,false,high,NA,NA,NA,NA,NA,NA,NA,false
pYIS9i42,3fhtjgyt9qduw7xo30k18rjdqjggpm,3r8yzbnq9lvyqalw1c0yr3sm82v7qw,pYIS9i42,2020-0188,2020-11-15,07:41:55,07:57:08,NA,incomplete,51,shape,1,left,Green_Star_Dots_4.jpg,Purple_Star_Stripes_1.jpg,Green_Circle_Grid_2.jpg,left,780.3850000200327,true,high,NA,NA,NA,NA,NA,NA,NA,false
pYIS9i42,3fhtjgyt9qduw7xo30k18rjdqjggpm,3r8yzbnq9lvyqalw1c0yr3sm82v7qw,pYIS9i42,2020-0188,2020-11-15,07:41:55,07:57:08,NA,incomplete,52,shape,1,right,Purple_Circle_Dots_1.jpg,Purple_Plus_Grid_3.jpg,Red_Circle_Stripes_4.jpg,right,701.0700000100769,true,high,NA,NA,NA,NA,NA,NA,NA,false
pYIS9i42,3fhtjgyt9qduw7xo30k18rjdqjggpm,3r8yzbnq9lvyqalw1c0yr3sm82v7qw,pYIS9i42,2020-0188,2020-11-15,07:41:55,07:57:08,NA,incomplete,53,shape,1,right,Red_Plus_Chess_3.jpg,Red_Circle_Grid_4.jpg,Purple_Plus_Stripes_2.jpg,right,744.5050000096671,true,high,NA,NA,NA,NA,NA,NA,NA,false
pYIS9i42,3fhtjgyt9qduw7xo30k18rjdqjggpm,3r8yzbnq9lvyqalw1c0yr3sm82v7qw,pYIS9i42,2020-0188,2020-11-15,07:41:55,07:57:08,NA,incomplete,54,shape,1,right,Green_Circle_Grid_4.jpg,Green_Plus_Dots_2.jpg,Red_Circle_Chess_1.jpg,left,684.4200000050478,false,high,NA,NA,NA,NA,NA,NA,NA,false
pYIS9i42,3fhtjgyt9qduw7xo30k18rjdqjggpm,3r8yzbnq9lvyqalw1c0yr3sm82v7qw,pYIS9i42,2020-0188,2020-11-15,07:41:55,07:57:08,NA,incomplete,55,shape,1,left,Purple_Triangle_Stripes_2.jpg,Green_Triangle_Grid_4.jpg,Purple_Circle_Chess_3.jpg,left,908.6249999818392,true,high,NA,NA,NA,NA,NA,NA,NA,false
pYIS9i42,3fhtjgyt9qduw7xo30k18rjdqjggpm,3r8yzbnq9lvyqalw1c0yr3sm82v7qw,pYIS9i42,2020-0188,2020-11-15,07:41:55,07:57:08,NA,incomplete,56,shape,1,left,Red_Triangle_Grid_1.jpg,Purple_Triangle_Dots_3.jpg,Red_Plus_Stripes_2.jpg,right,937.9450000124052,false,high,NA,NA,NA,NA,NA,NA,NA,false
pYIS9i42,3fhtjgyt9qduw7xo30k18rjdqjggpm,3r8yzbnq9lvyqalw1c0yr3sm82v7qw,pYIS9i42,2020-0188,2020-11-15,07:41:55,07:57:08,NA,incomplete,57,shape,1,right,Blue_Star_Dots_4.jpg,Blue_Plus_Stripes_1.jpg,Red_Star_Chess_3.jpg,right,838.2099999871571,true,high,NA,NA,NA,NA,NA,NA,NA,false
pYIS9i42,3fhtjgyt9qduw7xo30k18rjdqjggpm,3r8yzbnq9lvyqalw1c0yr3sm82v7qw,pYIS9i42,2020-0188,2020-11-15,07:41:55,07:57:08,NA,incomplete,58,shape,1,left,Red_Triangle_Dots_2.jpg,Blue_Triangle_Chess_3.jpg,Red_Star_Stripes_4.jpg,left,637.6900000032037,true,high,NA,NA,NA,NA,NA,NA,NA,false
pYIS9i42,3fhtjgyt9qduw7xo30k18rjdqjggpm,3r8yzbnq9lvyqalw1c0yr3sm82v7qw,pYIS9i42,2020-0188,2020-11-15,07:41:55,07:57:08,NA,incomplete,59,shape,0,right,Blue_Plus_Dots_3.jpg,Blue_Triangle_Stripes_4.jpg,Purple_Plus_Grid_1.jpg,right,676.6099999949802,true,high,NA,NA,NA,NA,NA,NA,NA,false
pYIS9i42,3fhtjgyt9qduw7xo30k18rjdqjggpm,3r8yzbnq9lvyqalw1c0yr3sm82v7qw,pYIS9i42,2020-0188,2020-11-15,07:41:55,07:57:08,NA,incomplete,60,color,1,left,Green_Plus_Chess_1.jpg,Green_Star_Grid_3.jpg,Blue_Plus_Dots_2.jpg,left,693.9350000175182,true,high,NA,NA,NA,NA,NA,NA,NA,false
pYIS9i42,3fhtjgyt9qduw7xo30k18rjdqjggpm,3r8yzbnq9lvyqalw1c0yr3sm82v7qw,pYIS9i42,2020-0188,2020-11-15,07:41:55,07:57:08,NA,incomplete,61,color,1,right,Purple_Plus_Dots_2.jpg,Green_Plus_Grid_4.jpg,Purple_Triangle_Chess_3.jpg,left,763.1349999865051,false,high,NA,NA,NA,NA,NA,NA,NA,false
pYIS9i42,3fhtjgyt9qduw7xo30k18rjdqjggpm,3r8yzbnq9lvyqalw1c0yr3sm82v7qw,pYIS9i42,2020-0188,2020-11-15,07:41:55,07:57:08,NA,incomplete,62,color,1,right,Green_Plus_Grid_4.jpg,Purple_Plus_Dots_2.jpg,Green_Circle_Chess_1.jpg,right,623.6250000074506,true,high,NA,NA,NA,NA,NA,NA,NA,false
pYIS9i42,3fhtjgyt9qduw7xo30k18rjdqjggpm,3r8yzbnq9lvyqalw1c0yr3sm82v7qw,pYIS9i42,2020-0188,2020-11-15,07:41:55,07:57:08,NA,incomplete,63,color,0,right,Purple_Circle_Stripes_1.jpg,Green_Circle_Chess_2.jpg,Purple_Star_Dots_3.jpg,right,798.7000000139233,true,high,NA,NA,NA,NA,NA,NA,NA,false
pYIS9i42,3fhtjgyt9qduw7xo30k18rjdqjggpm,3r8yzbnq9lvyqalw1c0yr3sm82v7qw,pYIS9i42,2020-0188,2020-11-15,07:41:55,07:57:08,NA,incomplete,64,color,1,left,Green_Plus_Grid_4.jpg,Green_Circle_Stripes_1.jpg,Blue_Plus_Dots_2.jpg,left,688.3000000088941,true,high,NA,NA,NA,NA,NA,NA,NA,false
pYIS9i42,3fhtjgyt9qduw7xo30k18rjdqjggpm,3r8yzbnq9lvyqalw1c0yr3sm82v7qw,pYIS9i42,2020-0188,2020-11-15,07:41:55,07:57:08,NA,incomplete,65,color,1,left,Red_Triangle_Dots_2.jpg,Red_Plus_Stripes_1.jpg,Blue_Triangle_Chess_3.jpg,right,956.7600000009406,false,high,NA,NA,NA,NA,NA,NA,NA,false
pYIS9i42,3fhtjgyt9qduw7xo30k18rjdqjggpm,3r8yzbnq9lvyqalw1c0yr3sm82v7qw,pYIS9i42,2020-0188,2020-11-15,07:41:55,07:57:08,NA,incomplete,66,color,1,left,Red_Plus_Dots_4.jpg,Red_Circle_Stripes_2.jpg,Green_Plus_Chess_3.jpg,right,950.0349999871105,false,high,NA,NA,NA,NA,NA,NA,NA,false
pYIS9i42,3fhtjgyt9qduw7xo30k18rjdqjggpm,3r8yzbnq9lvyqalw1c0yr3sm82v7qw,pYIS9i42,2020-0188,2020-11-15,07:41:55,07:57:08,NA,incomplete,67,color,1,right,Purple_Circle_Chess_3.jpg,Blue_Circle_Dots_2.jpg,Purple_Triangle_Stripes_4.jpg,left,1004.0099999750964,false,high,NA,NA,NA,NA,NA,NA,NA,false
pYIS9i42,3fhtjgyt9qduw7xo30k18rjdqjggpm,3r8yzbnq9lvyqalw1c0yr3sm82v7qw,pYIS9i42,2020-0188,2020-11-15,07:41:55,07:57:08,NA,incomplete,68,color,1,left,Green_Triangle_Chess_3.jpg,Green_Circle_Grid_4.jpg,Purple_Triangle_Dots_1.jpg,left,734.9800000083633,true,high,NA,NA,NA,NA,NA,NA,NA,false
pYIS9i42,3fhtjgyt9qduw7xo30k18rjdqjggpm,3r8yzbnq9lvyqalw1c0yr3sm82v7qw,pYIS9i42,2020-0188,2020-11-15,07:41:55,07:57:08,NA,incomplete,69,color,1,right,Red_Plus_Dots_2.jpg,Purple_Plus_Grid_4.jpg,Red_Circle_Stripes_1.jpg,left,888.1349999865051,false,high,NA,NA,NA,NA,NA,NA,NA,false
pYIS9i42,3fhtjgyt9qduw7xo30k18rjdqjggpm,3r8yzbnq9lvyqalw1c0yr3sm82v7qw,pYIS9i42,2020-0188,2020-11-15,07:41:55,07:57:08,NA,incomplete,70,shape,1,left,Red_Circle_Dots_1.jpg,Purple_Circle_Grid_4.jpg,Red_Triangle_Stripes_3.jpg,right,722.0350000134204,false,high,NA,NA,NA,NA,NA,NA,NA,false
pYIS9i42,3fhtjgyt9qduw7xo30k18rjdqjggpm,3r8yzbnq9lvyqalw1c0yr3sm82v7qw,pYIS9i42,2020-0188,2020-11-15,07:41:55,07:57:08,NA,incomplete,71,shape,1,right,Green_Triangle_Chess_1.jpg,Green_Star_Dots_3.jpg,Blue_Triangle_Grid_4.jpg,right,833.0600000044797,true,high,NA,NA,NA,NA,NA,NA,NA,false
pYIS9i42,3fhtjgyt9qduw7xo30k18rjdqjggpm,3r8yzbnq9lvyqalw1c0yr3sm82v7qw,pYIS9i42,2020-0188,2020-11-15,07:41:55,07:57:08,NA,incomplete,72,shape,1,right,Purple_Triangle_Dots_3.jpg,Purple_Circle_Grid_4.jpg,Blue_Triangle_Stripes_1.jpg,left,946.3549999927636,false,high,NA,NA,NA,NA,NA,NA,NA,false
pYIS9i42,3fhtjgyt9qduw7xo30k18rjdqjggpm,3r8yzbnq9lvyqalw1c0yr3sm82v7qw,pYIS9i42,2020-0188,2020-11-15,07:41:55,07:57:08,NA,incomplete,73,shape,1,right,Green_Star_Chess_1.jpg,Green_Triangle_Dots_4.jpg,Red_Star_Grid_3.jpg,right,864.674999989802,true,high,NA,NA,NA,NA,NA,NA,NA,false
pYIS9i42,3fhtjgyt9qduw7xo30k18rjdqjggpm,3r8yzbnq9lvyqalw1c0yr3sm82v7qw,pYIS9i42,2020-0188,2020-11-15,07:41:55,07:57:08,NA,incomplete,74,shape,1,left,Purple_Plus_Stripes_2.jpg,Red_Plus_Chess_1.jpg,Purple_Circle_Grid_4.jpg,left,745.245000027353,true,high,NA,NA,NA,NA,NA,NA,NA,false
pYIS9i42,3fhtjgyt9qduw7xo30k18rjdqjggpm,3r8yzbnq9lvyqalw1c0yr3sm82v7qw,pYIS9i42,2020-0188,2020-11-15,07:41:55,07:57:08,NA,incomplete,75,shape,1,right,Green_Circle_Dots_1.jpg,Green_Star_Chess_3.jpg,Red_Circle_Grid_2.jpg,right,790.8199999947101,true,high,NA,NA,NA,NA,NA,NA,NA,false
pYIS9i42,3fhtjgyt9qduw7xo30k18rjdqjggpm,3r8yzbnq9lvyqalw1c0yr3sm82v7qw,pYIS9i42,2020-0188,2020-11-15,07:41:55,07:57:08,NA,incomplete,76,shape,1,right,Red_Star_Stripes_4.jpg,Red_Circle_Grid_1.jpg,Green_Star_Chess_3.jpg,right,848.8199999846984,true,high,NA,NA,NA,NA,NA,NA,NA,false
pYIS9i42,3fhtjgyt9qduw7xo30k18rjdqjggpm,3r8yzbnq9lvyqalw1c0yr3sm82v7qw,pYIS9i42,2020-0188,2020-11-15,07:41:55,07:57:08,NA,incomplete,77,shape,1,right,Blue_Circle_Stripes_3.jpg,Blue_Star_Dots_2.jpg,Purple_Circle_Grid_4.jpg,left,1033.8300000003073,false,high,NA,NA,NA,NA,NA,NA,NA,false
pYIS9i42,3fhtjgyt9qduw7xo30k18rjdqjggpm,3r8yzbnq9lvyqalw1c0yr3sm82v7qw,pYIS9i42,2020-0188,2020-11-15,07:41:55,07:57:08,NA,incomplete,78,shape,0,right,Blue_Triangle_Dots_1.jpg,Blue_Plus_Chess_3.jpg,Purple_Triangle_Stripes_2.jpg,right,689.9949999933597,true,high,NA,NA,NA,NA,NA,NA,NA,false
pYIS9i42,3fhtjgyt9qduw7xo30k18rjdqjggpm,3r8yzbnq9lvyqalw1c0yr3sm82v7qw,pYIS9i42,2020-0188,2020-11-15,07:41:55,07:57:08,NA,incomplete,79,shape,1,right,Green_Plus_Grid_2.jpg,Green_Star_Stripes_1.jpg,Purple_Plus_Dots_4.jpg,left,720.5250000115484,false,high,NA,NA,NA,NA,NA,NA,NA,false
pYIS9i42,3fhtjgyt9qduw7xo30k18rjdqjggpm,3r8yzbnq9lvyqalw1c0yr3sm82v7qw,pYIS9i42,2020-0188,2020-11-15,07:41:55,07:57:08,NA,incomplete,80,color,0,right,Purple_Circle_Chess_4.jpg,Green_Circle_Grid_2.jpg,Purple_Plus_Stripes_3.jpg,right,682.4699999997392,true,high,NA,NA,NA,NA,NA,NA,NA,false
pYIS9i42,3fhtjgyt9qduw7xo30k18rjdqjggpm,3r8yzbnq9lvyqalw1c0yr3sm82v7qw,pYIS9i42,2020-0188,2020-11-15,07:41:55,07:57:08,NA,incomplete,81,color,1,right,Blue_Triangle_Stripes_4.jpg,Purple_Triangle_Dots_2.jpg,Blue_Plus_Chess_1.jpg,right,684.2900000046939,true,high,NA,NA,NA,NA,NA,NA,NA,false
pYIS9i42,3fhtjgyt9qduw7xo30k18rjdqjggpm,3r8yzbnq9lvyqalw1c0yr3sm82v7qw,pYIS9i42,2020-0188,2020-11-15,07:41:55,07:57:08,NA,incomplete,82,color,1,left,Blue_Triangle_Chess_1.jpg,Blue_Circle_Grid_3.jpg,Green_Triangle_Stripes_4.jpg,left,741.3850000011735,true,high,NA,NA,NA,NA,NA,NA,NA,false
pYIS9i42,3fhtjgyt9qduw7xo30k18rjdqjggpm,3r8yzbnq9lvyqalw1c0yr3sm82v7qw,pYIS9i42,2020-0188,2020-11-15,07:41:55,07:57:08,NA,incomplete,83,color,1,left,Red_Star_Stripes_3.jpg,Red_Circle_Grid_4.jpg,Blue_Star_Chess_2.jpg,left,615.7600000151433,true,high,NA,NA,NA,NA,NA,NA,NA,false
pYIS9i42,3fhtjgyt9qduw7xo30k18rjdqjggpm,3r8yzbnq9lvyqalw1c0yr3sm82v7qw,pYIS9i42,2020-0188,2020-11-15,07:41:55,07:57:08,NA,incomplete,84,color,1,left,Red_Plus_Chess_1.jpg,Red_Star_Grid_4.jpg,Blue_Plus_Stripes_3.jpg,left,834.1599999985192,true,high,NA,NA,NA,NA,NA,NA,NA,false
pYIS9i42,3fhtjgyt9qduw7xo30k18rjdqjggpm,3r8yzbnq9lvyqalw1c0yr3sm82v7qw,pYIS9i42,2020-0188,2020-11-15,07:41:55,07:57:08,NA,incomplete,85,color,1,right,Green_Triangle_Stripes_4.jpg,Purple_Triangle_Grid_2.jpg,Green_Plus_Dots_3.jpg,right,697.6349999895319,true,high,NA,NA,NA,NA,NA,NA,NA,false
pYIS9i42,3fhtjgyt9qduw7xo30k18rjdqjggpm,3r8yzbnq9lvyqalw1c0yr3sm82v7qw,pYIS9i42,2020-0188,2020-11-15,07:41:55,07:57:08,NA,incomplete,86,color,1,left,Purple_Plus_Stripes_3.jpg,Purple_Circle_Dots_2.jpg,Red_Plus_Grid_4.jpg,left,706.239999999525,true,high,NA,NA,NA,NA,NA,NA,NA,false
pYIS9i42,3fhtjgyt9qduw7xo30k18rjdqjggpm,3r8yzbnq9lvyqalw1c0yr3sm82v7qw,pYIS9i42,2020-0188,2020-11-15,07:41:55,07:57:08,NA,incomplete,87,color,1,left,Blue_Plus_Chess_1.jpg,Blue_Triangle_Stripes_3.jpg,Purple_Plus_Grid_2.jpg,right,896.630000002915,false,high,NA,NA,NA,NA,NA,NA,NA,false
pYIS9i42,3fhtjgyt9qduw7xo30k18rjdqjggpm,3r8yzbnq9lvyqalw1c0yr3sm82v7qw,pYIS9i42,2020-0188,2020-11-15,07:41:55,07:57:08,NA,incomplete,88,color,0,right,Purple_Plus_Grid_2.jpg,Red_Plus_Stripes_4.jpg,Purple_Triangle_Dots_1.jpg,right,673.8049999985378,true,high,NA,NA,NA,NA,NA,NA,NA,false
pYIS9i42,3fhtjgyt9qduw7xo30k18rjdqjggpm,3r8yzbnq9lvyqalw1c0yr3sm82v7qw,pYIS9i42,2020-0188,2020-11-15,07:41:55,07:57:08,NA,incomplete,89,color,1,left,Blue_Triangle_Grid_2.jpg,Blue_Plus_Chess_3.jpg,Red_Triangle_Stripes_1.jpg,left,700.6249999976717,true,high,NA,NA,NA,NA,NA,NA,NA,false
pYIS9i42,3fhtjgyt9qduw7xo30k18rjdqjggpm,3r8yzbnq9lvyqalw1c0yr3sm82v7qw,pYIS9i42,2020-0188,2020-11-15,07:41:55,07:57:08,NA,incomplete,90,shape,1,right,Green_Star_Stripes_2.jpg,Green_Plus_Chess_3.jpg,Red_Star_Grid_1.jpg,left,558.1999999994878,false,high,NA,NA,NA,NA,NA,NA,NA,false
pYIS9i42,3fhtjgyt9qduw7xo30k18rjdqjggpm,3r8yzbnq9lvyqalw1c0yr3sm82v7qw,pYIS9i42,2020-0188,2020-11-15,07:41:55,07:57:08,NA,incomplete,91,shape,1,left,Blue_Plus_Dots_1.jpg,Red_Plus_Chess_3.jpg,Blue_Circle_Grid_2.jpg,right,848.0749999871477,false,high,NA,NA,NA,NA,NA,NA,NA,false
pYIS9i42,3fhtjgyt9qduw7xo30k18rjdqjggpm,3r8yzbnq9lvyqalw1c0yr3sm82v7qw,pYIS9i42,2020-0188,2020-11-15,07:41:55,07:57:08,NA,incomplete,92,shape,1,right,Blue_Plus_Stripes_3.jpg,Blue_Star_Dots_1.jpg,Purple_Plus_Grid_2.jpg,right,727.2899999807123,true,high,NA,NA,NA,NA,NA,NA,NA,false
pYIS9i42,3fhtjgyt9qduw7xo30k18rjdqjggpm,3r8yzbnq9lvyqalw1c0yr3sm82v7qw,pYIS9i42,2020-0188,2020-11-15,07:41:55,07:57:08,NA,incomplete,93,shape,1,left,Purple_Circle_Grid_3.jpg,Red_Circle_Chess_2.jpg,Purple_Plus_Stripes_1.jpg,left,639.179999998305,true,high,NA,NA,NA,NA,NA,NA,NA,false
pYIS9i42,3fhtjgyt9qduw7xo30k18rjdqjggpm,3r8yzbnq9lvyqalw1c0yr3sm82v7qw,pYIS9i42,2020-0188,2020-11-15,07:41:55,07:57:08,NA,incomplete,94,shape,1,left,Blue_Plus_Stripes_2.jpg,Green_Plus_Grid_4.jpg,Blue_Circle_Chess_3.jpg,left,1301.7500000132713,true,high,NA,NA,NA,NA,NA,NA,NA,false
pYIS9i42,3fhtjgyt9qduw7xo30k18rjdqjggpm,3r8yzbnq9lvyqalw1c0yr3sm82v7qw,pYIS9i42,2020-0188,2020-11-15,07:41:55,07:57:08,NA,incomplete,95,shape,1,right,Purple_Star_Chess_3.jpg,Purple_Triangle_Dots_4.jpg,Blue_Star_Grid_1.jpg,left,1233.700000011595,false,high,NA,NA,NA,NA,NA,NA,NA,false
pYIS9i42,3fhtjgyt9qduw7xo30k18rjdqjggpm,3r8yzbnq9lvyqalw1c0yr3sm82v7qw,pYIS9i42,2020-0188,2020-11-15,07:41:55,07:57:08,NA,incomplete,96,shape,1,right,Purple_Plus_Dots_4.jpg,Purple_Star_Chess_2.jpg,Green_Plus_Grid_1.jpg,right,919.8200000100769,true,high,NA,NA,NA,NA,NA,NA,NA,false
pYIS9i42,3fhtjgyt9qduw7xo30k18rjdqjggpm,3r8yzbnq9lvyqalw1c0yr3sm82v7qw,pYIS9i42,2020-0188,2020-11-15,07:41:55,07:57:08,NA,incomplete,97,shape,1,right,Red_Plus_Stripes_2.jpg,Red_Circle_Grid_3.jpg,Blue_Plus_Dots_4.jpg,left,629.06499998644,false,high,NA,NA,NA,NA,NA,NA,NA,false
pYIS9i42,3fhtjgyt9qduw7xo30k18rjdqjggpm,3r8yzbnq9lvyqalw1c0yr3sm82v7qw,pYIS9i42,2020-0188,2020-11-15,07:41:55,07:57:08,NA,incomplete,98,shape,1,right,Red_Triangle_Grid_3.jpg,Red_Star_Chess_1.jpg,Blue_Triangle_Stripes_4.jpg,right,674.9399999971502,true,high,NA,NA,NA,NA,NA,NA,NA,false
pYIS9i42,3fhtjgyt9qduw7xo30k18rjdqjggpm,3r8yzbnq9lvyqalw1c0yr3sm82v7qw,pYIS9i42,2020-0188,2020-11-15,07:41:55,07:57:08,NA,incomplete,99,shape,1,right,Red_Plus_Stripes_2.jpg,Red_Star_Chess_1.jpg,Blue_Plus_Grid_3.jpg,left,1029.739999998128,false,high,NA,NA,NA,NA,NA,NA,NA,false
pYIS9i42,3fhtjgyt9qduw7xo30k18rjdqjggpm,3r8yzbnq9lvyqalw1c0yr3sm82v7qw,pYIS9i42,2020-0188,2020-11-15,07:41:55,07:57:08,NA,incomplete,100,color,1,right,Red_Triangle_Grid_1.jpg,Green_Triangle_Dots_3.jpg,Red_Circle_Stripes_2.jpg,right,653.9650000049733,true,high,NA,NA,NA,NA,NA,NA,NA,false
pYIS9i42,3fhtjgyt9qduw7xo30k18rjdqjggpm,3r8yzbnq9lvyqalw1c0yr3sm82v7qw,pYIS9i42,2020-0188,2020-11-15,07:41:55,07:57:08,NA,incomplete,101,color,1,left,Green_Star_Dots_3.jpg,Green_Plus_Stripes_1.jpg,Blue_Star_Grid_2.jpg,right,1233.9600000123028,false,high,NA,NA,NA,NA,NA,NA,NA,false
pYIS9i42,3fhtjgyt9qduw7xo30k18rjdqjggpm,3r8yzbnq9lvyqalw1c0yr3sm82v7qw,pYIS9i42,2020-0188,2020-11-15,07:41:55,07:57:08,NA,incomplete,102,color,1,left,Green_Star_Dots_2.jpg,Green_Plus_Chess_1.jpg,Purple_Star_Stripes_3.jpg,right,1014.3149999785237,false,high,NA,NA,NA,NA,NA,NA,NA,false
pYIS9i42,3fhtjgyt9qduw7xo30k18rjdqjggpm,3r8yzbnq9lvyqalw1c0yr3sm82v7qw,pYIS9i42,2020-0188,2020-11-15,07:41:55,07:57:08,NA,incomplete,103,color,1,right,Red_Star_Stripes_3.jpg,Green_Star_Grid_2.jpg,Red_Circle_Dots_4.jpg,left,792.5300000060815,false,high,NA,NA,NA,NA,NA,NA,NA,false
pYIS9i42,3fhtjgyt9qduw7xo30k18rjdqjggpm,3r8yzbnq9lvyqalw1c0yr3sm82v7qw,pYIS9i42,2020-0188,2020-11-15,07:41:55,07:57:08,NA,incomplete,104,color,0,left,Purple_Star_Chess_1.jpg,Purple_Triangle_Stripes_4.jpg,Red_Star_Dots_3.jpg,left,550.6450000102632,true,high,NA,NA,NA,NA,NA,NA,NA,false
pYIS9i42,3fhtjgyt9qduw7xo30k18rjdqjggpm,3r8yzbnq9lvyqalw1c0yr3sm82v7qw,pYIS9i42,2020-0188,2020-11-15,07:41:55,07:57:08,NA,incomplete,105,color,1,left,Purple_Circle_Grid_3.jpg,Purple_Triangle_Dots_4.jpg,Blue_Circle_Stripes_2.jpg,left,547.6100000087172,true,high,NA,NA,NA,NA,NA,NA,NA,false
pYIS9i42,3fhtjgyt9qduw7xo30k18rjdqjggpm,3r8yzbnq9lvyqalw1c0yr3sm82v7qw,pYIS9i42,2020-0188,2020-11-15,07:41:55,07:57:08,NA,incomplete,106,color,1,left,Purple_Plus_Stripes_1.jpg,Purple_Circle_Chess_4.jpg,Blue_Plus_Grid_2.jpg,left,628.3100000000559,true,high,NA,NA,NA,NA,NA,NA,NA,false
pYIS9i42,3fhtjgyt9qduw7xo30k18rjdqjggpm,3r8yzbnq9lvyqalw1c0yr3sm82v7qw,pYIS9i42,2020-0188,2020-11-15,07:41:55,07:57:08,NA,incomplete,107,color,1,left,Purple_Triangle_Stripes_1.jpg,Purple_Plus_Chess_2.jpg,Blue_Triangle_Grid_3.jpg,left,653.4049999900162,true,high,NA,NA,NA,NA,NA,NA,NA,false
pYIS9i42,3fhtjgyt9qduw7xo30k18rjdqjggpm,3r8yzbnq9lvyqalw1c0yr3sm82v7qw,pYIS9i42,2020-0188,2020-11-15,07:41:55,07:57:08,NA,incomplete,108,color,1,right,Green_Star_Stripes_1.jpg,Purple_Star_Chess_4.jpg,Green_Triangle_Grid_3.jpg,right,671.8000000109896,true,high,NA,NA,NA,NA,NA,NA,NA,false
pYIS9i42,3fhtjgyt9qduw7xo30k18rjdqjggpm,3r8yzbnq9lvyqalw1c0yr3sm82v7qw,pYIS9i42,2020-0188,2020-11-15,07:41:55,07:57:08,NA,incomplete,109,color,1,right,Purple_Circle_Chess_2.jpg,Green_Circle_Stripes_1.jpg,Purple_Star_Dots_3.jpg,left,626.5149999817368,false,high,NA,NA,NA,NA,NA,NA,NA,false
pYIS9i42,3fhtjgyt9qduw7xo30k18rjdqjggpm,3r8yzbnq9lvyqalw1c0yr3sm82v7qw,pYIS9i42,2020-0188,2020-11-15,07:41:55,07:57:08,NA,incomplete,110,shape,0,right,Green_Circle_Stripes_2.jpg,Green_Triangle_Chess_1.jpg,Blue_Circle_Dots_3.jpg,right,1351.2549999868497,true,high,NA,NA,NA,NA,NA,NA,NA,false
pYIS9i42,3fhtjgyt9qduw7xo30k18rjdqjggpm,3r8yzbnq9lvyqalw1c0yr3sm82v7qw,pYIS9i42,2020-0188,2020-11-15,07:41:55,07:57:08,NA,incomplete,111,shape,0,left,Red_Star_Dots_3.jpg,Blue_Star_Grid_2.jpg,Red_Triangle_Stripes_1.jpg,left,865.189999982249,true,high,NA,NA,NA,NA,NA,NA,NA,false
pYIS9i42,3fhtjgyt9qduw7xo30k18rjdqjggpm,3r8yzbnq9lvyqalw1c0yr3sm82v7qw,pYIS9i42,2020-0188,2020-11-15,07:41:55,07:57:08,NA,incomplete,112,shape,0,right,Blue_Circle_Stripes_1.jpg,Blue_Plus_Dots_2.jpg,Green_Circle_Chess_4.jpg,right,816.0599999828264,true,high,NA,NA,NA,NA,NA,NA,NA,false
pYIS9i42,3fhtjgyt9qduw7xo30k18rjdqjggpm,3r8yzbnq9lvyqalw1c0yr3sm82v7qw,pYIS9i42,2020-0188,2020-11-15,07:41:55,07:57:08,NA,incomplete,113,shape,1,left,Purple_Circle_Stripes_2.jpg,Green_Circle_Chess_3.jpg,Purple_Plus_Grid_1.jpg,right,554.4499999959953,false,high,NA,NA,NA,NA,NA,NA,NA,false
pYIS9i42,3fhtjgyt9qduw7xo30k18rjdqjggpm,3r8yzbnq9lvyqalw1c0yr3sm82v7qw,pYIS9i42,2020-0188,2020-11-15,07:41:55,07:57:08,NA,incomplete,114,shape,1,right,Red_Star_Grid_1.jpg,Red_Plus_Dots_2.jpg,Green_Star_Stripes_3.jpg,right,891.1950000037905,true,high,NA,NA,NA,NA,NA,NA,NA,false
pYIS9i42,3fhtjgyt9qduw7xo30k18rjdqjggpm,3r8yzbnq9lvyqalw1c0yr3sm82v7qw,pYIS9i42,2020-0188,2020-11-15,07:41:55,07:57:08,NA,incomplete,115,shape,0,right,Red_Triangle_Grid_2.jpg,Red_Plus_Chess_3.jpg,Purple_Triangle_Dots_1.jpg,right,862.745000020368,true,high,NA,NA,NA,NA,NA,NA,NA,false
pYIS9i42,3fhtjgyt9qduw7xo30k18rjdqjggpm,3r8yzbnq9lvyqalw1c0yr3sm82v7qw,pYIS9i42,2020-0188,2020-11-15,07:41:55,07:57:08,NA,incomplete,116,shape,1,left,Blue_Star_Stripes_2.jpg,Green_Star_Chess_3.jpg,Blue_Plus_Dots_4.jpg,left,930.1449999911711,true,high,NA,NA,NA,NA,NA,NA,NA,false
pYIS9i42,3fhtjgyt9qduw7xo30k18rjdqjggpm,3r8yzbnq9lvyqalw1c0yr3sm82v7qw,pYIS9i42,2020-0188,2020-11-15,07:41:55,07:57:08,NA,incomplete,117,shape,0,left,Purple_Circle_Dots_1.jpg,Green_Circle_Stripes_3.jpg,Purple_Star_Grid_4.jpg,right,702.3350000090431,false,high,NA,NA,NA,NA,NA,NA,NA,false
pYIS9i42,3fhtjgyt9qduw7xo30k18rjdqjggpm,3r8yzbnq9lvyqalw1c0yr3sm82v7qw,pYIS9i42,2020-0188,2020-11-15,07:41:55,07:57:08,NA,incomplete,118,shape,1,left,Green_Star_Grid_1.jpg,Red_Star_Stripes_3.jpg,Green_Circle_Chess_4.jpg,right,779.58000000217,false,high,NA,NA,NA,NA,NA,NA,NA,false
pYIS9i42,3fhtjgyt9qduw7xo30k18rjdqjggpm,3r8yzbnq9lvyqalw1c0yr3sm82v7qw,pYIS9i42,2020-0188,2020-11-15,07:41:55,07:57:08,NA,incomplete,119,shape,1,left,Green_Circle_Grid_3.jpg,Red_Circle_Chess_2.jpg,Green_Star_Stripes_1.jpg,left,764.130000025034,true,high,NA,NA,NA,NA,NA,NA,NA,false
pYIS9i42,3fhtjgyt9qduw7xo30k18rjdqjggpm,3r8yzbnq9lvyqalw1c0yr3sm82v7qw,pYIS9i42,2020-0188,2020-11-15,07:41:55,07:57:08,NA,incomplete,120,color,1,left,Purple_Star_Stripes_1.jpg,Purple_Triangle_Dots_2.jpg,Green_Star_Chess_4.jpg,right,830.1349999965169,false,high,NA,NA,NA,NA,NA,NA,NA,false
pYIS9i42,3fhtjgyt9qduw7xo30k18rjdqjggpm,3r8yzbnq9lvyqalw1c0yr3sm82v7qw,pYIS9i42,2020-0188,2020-11-15,07:41:55,07:57:08,NA,incomplete,121,color,1,right,Purple_Star_Dots_3.jpg,Blue_Star_Grid_4.jpg,Purple_Triangle_Stripes_2.jpg,left,733.7399999960326,false,high,NA,NA,NA,NA,NA,NA,NA,false
pYIS9i42,3fhtjgyt9qduw7xo30k18rjdqjggpm,3r8yzbnq9lvyqalw1c0yr3sm82v7qw,pYIS9i42,2020-0188,2020-11-15,07:41:55,07:57:08,NA,incomplete,122,color,1,right,Blue_Plus_Chess_3.jpg,Green_Plus_Grid_4.jpg,Blue_Triangle_Dots_1.jpg,left,842.3250000050757,false,high,NA,NA,NA,NA,NA,NA,NA,false
pYIS9i42,3fhtjgyt9qduw7xo30k18rjdqjggpm,3r8yzbnq9lvyqalw1c0yr3sm82v7qw,pYIS9i42,2020-0188,2020-11-15,07:41:55,07:57:08,NA,incomplete,123,color,0,right,Blue_Circle_Chess_2.jpg,Purple_Circle_Grid_3.jpg,Blue_Triangle_Dots_1.jpg,left,664.4950000045355,false,high,NA,NA,NA,NA,NA,NA,NA,false
pYIS9i42,3fhtjgyt9qduw7xo30k18rjdqjggpm,3r8yzbnq9lvyqalw1c0yr3sm82v7qw,pYIS9i42,2020-0188,2020-11-15,07:41:55,07:57:08,NA,incomplete,124,color,1,left,Purple_Plus_Dots_4.jpg,Purple_Triangle_Chess_2.jpg,Red_Plus_Stripes_1.jpg,right,760.1100000028964,false,high,NA,NA,NA,NA,NA,NA,NA,false
pYIS9i42,3fhtjgyt9qduw7xo30k18rjdqjggpm,3r8yzbnq9lvyqalw1c0yr3sm82v7qw,pYIS9i42,2020-0188,2020-11-15,07:41:55,07:57:08,NA,incomplete,125,color,0,left,Blue_Circle_Stripes_2.jpg,Blue_Plus_Grid_3.jpg,Purple_Circle_Dots_4.jpg,right,1196.4900000020862,false,high,NA,NA,NA,NA,NA,NA,NA,false
pYIS9i42,3fhtjgyt9qduw7xo30k18rjdqjggpm,3r8yzbnq9lvyqalw1c0yr3sm82v7qw,pYIS9i42,2020-0188,2020-11-15,07:41:55,07:57:08,NA,incomplete,126,color,1,right,Blue_Plus_Chess_1.jpg,Green_Plus_Stripes_2.jpg,Blue_Star_Dots_3.jpg,left,688.575000007404,false,high,NA,NA,NA,NA,NA,NA,NA,false
pYIS9i42,3fhtjgyt9qduw7xo30k18rjdqjggpm,3r8yzbnq9lvyqalw1c0yr3sm82v7qw,pYIS9i42,2020-0188,2020-11-15,07:41:55,07:57:08,NA,incomplete,127,color,0,left,Purple_Circle_Stripes_4.jpg,Purple_Star_Chess_1.jpg,Red_Circle_Grid_3.jpg,right,644.5700000040233,false,high,NA,NA,NA,NA,NA,NA,NA,false
pYIS9i42,3fhtjgyt9qduw7xo30k18rjdqjggpm,3r8yzbnq9lvyqalw1c0yr3sm82v7qw,pYIS9i42,2020-0188,2020-11-15,07:41:55,07:57:08,NA,incomplete,128,color,1,left,Purple_Circle_Stripes_4.jpg,Purple_Plus_Grid_2.jpg,Green_Circle_Chess_3.jpg,right,770.1250000100117,false,high,NA,NA,NA,NA,NA,NA,NA,false
pYIS9i42,3fhtjgyt9qduw7xo30k18rjdqjggpm,3r8yzbnq9lvyqalw1c0yr3sm82v7qw,pYIS9i42,2020-0188,2020-11-15,07:41:55,07:57:08,NA,incomplete,129,color,0,right,Blue_Triangle_Grid_3.jpg,Green_Triangle_Stripes_1.jpg,Blue_Star_Chess_2.jpg,left,602.340000012191,false,high,NA,NA,NA,NA,NA,NA,NA,false
pYIS9i42,3fhtjgyt9qduw7xo30k18rjdqjggpm,3r8yzbnq9lvyqalw1c0yr3sm82v7qw,pYIS9i42,2020-0188,2020-11-15,07:41:55,07:57:08,NA,incomplete,130,color,1,right,Purple_Triangle_Stripes_1.jpg,Red_Triangle_Dots_2.jpg,Purple_Circle_Grid_3.jpg,right,945.5749999906402,true,high,NA,NA,NA,NA,NA,NA,NA,false
pYIS9i42,3fhtjgyt9qduw7xo30k18rjdqjggpm,3r8yzbnq9lvyqalw1c0yr3sm82v7qw,pYIS9i42,2020-0188,2020-11-15,07:41:55,07:57:08,NA,incomplete,131,color,0,right,Red_Circle_Stripes_4.jpg,Blue_Circle_Grid_2.jpg,Red_Plus_Chess_1.jpg,left,657.6250000216532,false,high,NA,NA,NA,NA,NA,NA,NA,false
pYIS9i42,3fhtjgyt9qduw7xo30k18rjdqjggpm,3r8yzbnq9lvyqalw1c0yr3sm82v7qw,pYIS9i42,2020-0188,2020-11-15,07:41:55,07:57:08,NA,incomplete,132,color,1,left,Blue_Plus_Grid_3.jpg,Blue_Triangle_Chess_1.jpg,Purple_Plus_Stripes_4.jpg,right,816.320000012638,false,high,NA,NA,NA,NA,NA,NA,NA,false
pYIS9i42,3fhtjgyt9qduw7xo30k18rjdqjggpm,3r8yzbnq9lvyqalw1c0yr3sm82v7qw,pYIS9i42,2020-0188,2020-11-15,07:41:55,07:57:08,NA,incomplete,133,color,1,left,Blue_Circle_Grid_1.jpg,Blue_Star_Stripes_3.jpg,Red_Circle_Chess_2.jpg,right,607.9749999917112,false,high,NA,NA,NA,NA,NA,NA,NA,false
pYIS9i42,3fhtjgyt9qduw7xo30k18rjdqjggpm,3r8yzbnq9lvyqalw1c0yr3sm82v7qw,pYIS9i42,2020-0188,2020-11-15,07:41:55,07:57:08,NA,incomplete,134,color,1,left,Purple_Plus_Chess_4.jpg,Purple_Triangle_Grid_2.jpg,Blue_Plus_Stripes_1.jpg,left,578.1300000089686,true,high,NA,NA,NA,NA,NA,NA,NA,false
pYIS9i42,3fhtjgyt9qduw7xo30k18rjdqjggpm,3r8yzbnq9lvyqalw1c0yr3sm82v7qw,pYIS9i42,2020-0188,2020-11-15,07:41:55,07:57:08,NA,incomplete,135,color,1,left,Red_Triangle_Grid_2.jpg,Red_Plus_Chess_1.jpg,Blue_Triangle_Stripes_4.jpg,right,806.8950000160839,false,high,NA,NA,NA,NA,NA,NA,NA,false
pYIS9i42,3fhtjgyt9qduw7xo30k18rjdqjggpm,3r8yzbnq9lvyqalw1c0yr3sm82v7qw,pYIS9i42,2020-0188,2020-11-15,07:41:55,07:57:08,NA,incomplete,136,color,1,left,Red_Plus_Chess_3.jpg,Red_Circle_Grid_1.jpg,Blue_Plus_Dots_2.jpg,left,619.4350000005215,true,high,NA,NA,NA,NA,NA,NA,NA,false
pYIS9i42,3fhtjgyt9qduw7xo30k18rjdqjggpm,3r8yzbnq9lvyqalw1c0yr3sm82v7qw,pYIS9i42,2020-0188,2020-11-15,07:41:55,07:57:08,NA,incomplete,137,color,1,right,Red_Plus_Stripes_4.jpg,Green_Plus_Dots_3.jpg,Red_Star_Grid_1.jpg,right,1006.0799999919254,true,high,NA,NA,NA,NA,NA,NA,NA,false
pYIS9i42,3fhtjgyt9qduw7xo30k18rjdqjggpm,3r8yzbnq9lvyqalw1c0yr3sm82v7qw,pYIS9i42,2020-0188,2020-11-15,07:41:55,07:57:08,NA,incomplete,138,color,1,right,Green_Star_Chess_4.jpg,Red_Star_Dots_1.jpg,Green_Triangle_Grid_3.jpg,right,588.1499999959487,true,high,NA,NA,NA,NA,NA,NA,NA,false
pYIS9i42,3fhtjgyt9qduw7xo30k18rjdqjggpm,3r8yzbnq9lvyqalw1c0yr3sm82v7qw,pYIS9i42,2020-0188,2020-11-15,07:41:55,07:57:08,NA,incomplete,139,color,1,left,Blue_Star_Grid_4.jpg,Blue_Plus_Chess_1.jpg,Purple_Star_Stripes_3.jpg,left,654.9250000098255,true,high,NA,NA,NA,NA,NA,NA,NA,false
pYIS9i42,3fhtjgyt9qduw7xo30k18rjdqjggpm,3r8yzbnq9lvyqalw1c0yr3sm82v7qw,pYIS9i42,2020-0188,2020-11-15,07:41:55,07:57:08,NA,incomplete,140,shape,1,left,Purple_Star_Grid_3.jpg,Red_Star_Stripes_1.jpg,Purple_Circle_Chess_2.jpg,right,533.2350000098813,false,high,NA,NA,NA,NA,NA,NA,NA,false
pYIS9i42,3fhtjgyt9qduw7xo30k18rjdqjggpm,3r8yzbnq9lvyqalw1c0yr3sm82v7qw,pYIS9i42,2020-0188,2020-11-15,07:41:55,07:57:08,NA,incomplete,141,shape,1,right,Purple_Plus_Dots_3.jpg,Purple_Triangle_Chess_2.jpg,Blue_Plus_Stripes_1.jpg,left,599.1950000170618,false,high,NA,NA,NA,NA,NA,NA,NA,false
pYIS9i42,3fhtjgyt9qduw7xo30k18rjdqjggpm,3r8yzbnq9lvyqalw1c0yr3sm82v7qw,pYIS9i42,2020-0188,2020-11-15,07:41:55,07:57:08,NA,incomplete,142,shape,1,left,Purple_Triangle_Grid_2.jpg,Green_Triangle_Stripes_1.jpg,Purple_Plus_Chess_4.jpg,left,765.8400000073016,true,high,NA,NA,NA,NA,NA,NA,NA,false
pYIS9i42,3fhtjgyt9qduw7xo30k18rjdqjggpm,3r8yzbnq9lvyqalw1c0yr3sm82v7qw,pYIS9i42,2020-0188,2020-11-15,07:41:55,07:57:08,NA,incomplete,143,shape,0,right,Purple_Star_Dots_4.jpg,Purple_Circle_Stripes_3.jpg,Green_Star_Grid_2.jpg,right,792.6600000064354,true,high,NA,NA,NA,NA,NA,NA,NA,false
pYIS9i42,3fhtjgyt9qduw7xo30k18rjdqjggpm,3r8yzbnq9lvyqalw1c0yr3sm82v7qw,pYIS9i42,2020-0188,2020-11-15,07:41:55,07:57:08,NA,incomplete,144,shape,1,left,Blue_Star_Grid_2.jpg,Purple_Star_Stripes_3.jpg,Blue_Plus_Chess_1.jpg,left,1308.8350000034552,true,high,NA,NA,NA,NA,NA,NA,NA,false
pYIS9i42,3fhtjgyt9qduw7xo30k18rjdqjggpm,3r8yzbnq9lvyqalw1c0yr3sm82v7qw,pYIS9i42,2020-0188,2020-11-15,07:41:55,07:57:08,NA,incomplete,145,shape,0,left,Red_Triangle_Stripes_1.jpg,Blue_Triangle_Dots_2.jpg,Red_Star_Grid_3.jpg,left,723.1150000006892,true,high,NA,NA,NA,NA,NA,NA,NA,false
pYIS9i42,3fhtjgyt9qduw7xo30k18rjdqjggpm,3r8yzbnq9lvyqalw1c0yr3sm82v7qw,pYIS9i42,2020-0188,2020-11-15,07:41:55,07:57:08,NA,incomplete,146,shape,1,left,Blue_Plus_Grid_1.jpg,Purple_Plus_Chess_4.jpg,Blue_Circle_Dots_2.jpg,right,619.9950000154786,false,high,NA,NA,NA,NA,NA,NA,NA,false
pYIS9i42,3fhtjgyt9qduw7xo30k18rjdqjggpm,3r8yzbnq9lvyqalw1c0yr3sm82v7qw,pYIS9i42,2020-0188,2020-11-15,07:41:55,07:57:08,NA,incomplete,147,shape,1,right,Blue_Star_Chess_4.jpg,Blue_Triangle_Dots_3.jpg,Red_Star_Stripes_1.jpg,right,821.795000025304,true,high,NA,NA,NA,NA,NA,NA,NA,false
pYIS9i42,3fhtjgyt9qduw7xo30k18rjdqjggpm,3r8yzbnq9lvyqalw1c0yr3sm82v7qw,pYIS9i42,2020-0188,2020-11-15,07:41:55,07:57:08,NA,incomplete,148,shape,1,left,Green_Circle_Stripes_4.jpg,Red_Circle_Chess_2.jpg,Green_Plus_Dots_3.jpg,left,754.5649999810848,true,high,NA,NA,NA,NA,NA,NA,NA,false
pYIS9i42,3fhtjgyt9qduw7xo30k18rjdqjggpm,3r8yzbnq9lvyqalw1c0yr3sm82v7qw,pYIS9i42,2020-0188,2020-11-15,07:41:55,07:57:08,NA,incomplete,149,shape,1,left,Green_Triangle_Grid_4.jpg,Purple_Triangle_Dots_3.jpg,Green_Circle_Chess_2.jpg,left,902.8300000063609,true,high,NA,NA,NA,NA,NA,NA,NA,false
pYIS9i42,3fhtjgyt9qduw7xo30k18rjdqjggpm,3r8yzbnq9lvyqalw1c0yr3sm82v7qw,pYIS9i42,2020-0188,2020-11-15,07:41:55,07:57:08,NA,incomplete,150,shape,1,right,Red_Circle_Grid_2.jpg,Red_Plus_Stripes_1.jpg,Blue_Circle_Dots_3.jpg,right,691.3100000238046,true,high,NA,NA,NA,NA,NA,NA,NA,false
pYIS9i42,3fhtjgyt9qduw7xo30k18rjdqjggpm,3r8yzbnq9lvyqalw1c0yr3sm82v7qw,pYIS9i42,2020-0188,2020-11-15,07:41:55,07:57:08,NA,incomplete,151,shape,1,left,Green_Triangle_Grid_4.jpg,Purple_Triangle_Dots_1.jpg,Green_Plus_Stripes_2.jpg,right,1064.764999988256,false,high,NA,NA,NA,NA,NA,NA,NA,false
pYIS9i42,3fhtjgyt9qduw7xo30k18rjdqjggpm,3r8yzbnq9lvyqalw1c0yr3sm82v7qw,pYIS9i42,2020-0188,2020-11-15,07:41:55,07:57:08,NA,incomplete,152,shape,1,right,Red_Star_Stripes_1.jpg,Red_Plus_Grid_4.jpg,Blue_Star_Dots_2.jpg,right,720.3750000044238,true,high,NA,NA,NA,NA,NA,NA,NA,false
pYIS9i42,3fhtjgyt9qduw7xo30k18rjdqjggpm,3r8yzbnq9lvyqalw1c0yr3sm82v7qw,pYIS9i42,2020-0188,2020-11-15,07:41:55,07:57:08,NA,incomplete,153,shape,1,left,Blue_Star_Dots_4.jpg,Purple_Star_Stripes_1.jpg,Blue_Triangle_Grid_2.jpg,left,736.7300000041723,true,high,NA,NA,NA,NA,NA,NA,NA,false
pYIS9i42,3fhtjgyt9qduw7xo30k18rjdqjggpm,3r8yzbnq9lvyqalw1c0yr3sm82v7qw,pYIS9i42,2020-0188,2020-11-15,07:41:55,07:57:08,NA,incomplete,154,shape,1,left,Purple_Triangle_Dots_3.jpg,Blue_Triangle_Chess_4.jpg,Purple_Circle_Grid_2.jpg,left,803.7350000231527,true,high,NA,NA,NA,NA,NA,NA,NA,false
pYIS9i42,3fhtjgyt9qduw7xo30k18rjdqjggpm,3r8yzbnq9lvyqalw1c0yr3sm82v7qw,pYIS9i42,2020-0188,2020-11-15,07:41:55,07:57:08,NA,incomplete,155,shape,1,right,Blue_Star_Chess_4.jpg,Blue_Plus_Dots_1.jpg,Purple_Star_Grid_2.jpg,right,656.5849999897182,true,high,NA,NA,NA,NA,NA,NA,NA,false
pYIS9i42,3fhtjgyt9qduw7xo30k18rjdqjggpm,3r8yzbnq9lvyqalw1c0yr3sm82v7qw,pYIS9i42,2020-0188,2020-11-15,07:41:55,07:57:08,NA,incomplete,156,shape,1,left,Green_Triangle_Dots_4.jpg,Blue_Triangle_Chess_1.jpg,Green_Star_Grid_3.jpg,left,760.3499999968335,true,high,NA,NA,NA,NA,NA,NA,NA,false
pYIS9i42,3fhtjgyt9qduw7xo30k18rjdqjggpm,3r8yzbnq9lvyqalw1c0yr3sm82v7qw,pYIS9i42,2020-0188,2020-11-15,07:41:55,07:57:08,NA,incomplete,157,shape,1,right,Red_Plus_Stripes_1.jpg,Red_Circle_Grid_2.jpg,Purple_Plus_Chess_3.jpg,right,688.4199999913108,true,high,NA,NA,NA,NA,NA,NA,NA,false
pYIS9i42,3fhtjgyt9qduw7xo30k18rjdqjggpm,3r8yzbnq9lvyqalw1c0yr3sm82v7qw,pYIS9i42,2020-0188,2020-11-15,07:41:55,07:57:08,NA,incomplete,158,shape,1,left,Blue_Star_Stripes_3.jpg,Purple_Star_Chess_4.jpg,Blue_Triangle_Grid_2.jpg,left,616.3250000099652,true,high,NA,NA,NA,NA,NA,NA,NA,false
pYIS9i42,3fhtjgyt9qduw7xo30k18rjdqjggpm,3r8yzbnq9lvyqalw1c0yr3sm82v7qw,pYIS9i42,2020-0188,2020-11-15,07:41:55,07:57:08,NA,incomplete,159,shape,1,left,Purple_Plus_Chess_4.jpg,Blue_Plus_Grid_2.jpg,Purple_Star_Dots_1.jpg,left,609.9549999926239,true,high,NA,NA,NA,NA,NA,NA,NA,false
pYIS9i42,3fhtjgyt9qduw7xo30k18rjdqjggpm,3r8yzbnq9lvyqalw1c0yr3sm82v7qw,pYIS9i42,2020-0188,2020-11-15,07:41:55,07:57:08,NA,incomplete,160,color,0,right,Red_Star_Dots_4.jpg,Purple_Star_Grid_2.jpg,Red_Triangle_Stripes_3.jpg,left,882.740000000922,false,high,NA,NA,NA,NA,NA,NA,NA,false
pYIS9i42,3fhtjgyt9qduw7xo30k18rjdqjggpm,3r8yzbnq9lvyqalw1c0yr3sm82v7qw,pYIS9i42,2020-0188,2020-11-15,07:41:55,07:57:08,NA,incomplete,161,color,1,right,Purple_Plus_Stripes_2.jpg,Blue_Plus_Dots_1.jpg,Purple_Star_Grid_4.jpg,left,859.7050000098534,false,high,NA,NA,NA,NA,NA,NA,NA,false
pYIS9i42,3fhtjgyt9qduw7xo30k18rjdqjggpm,3r8yzbnq9lvyqalw1c0yr3sm82v7qw,pYIS9i42,2020-0188,2020-11-15,07:41:55,07:57:08,NA,incomplete,162,color,1,right,Green_Circle_Stripes_4.jpg,Purple_Circle_Chess_2.jpg,Green_Triangle_Dots_3.jpg,left,692.7400000276975,false,high,NA,NA,NA,NA,NA,NA,NA,false
pYIS9i42,3fhtjgyt9qduw7xo30k18rjdqjggpm,3r8yzbnq9lvyqalw1c0yr3sm82v7qw,pYIS9i42,2020-0188,2020-11-15,07:41:55,07:57:08,NA,incomplete,163,color,1,left,Purple_Plus_Grid_3.jpg,Purple_Triangle_Stripes_2.jpg,Green_Plus_Chess_4.jpg,right,667.4150000035297,false,high,NA,NA,NA,NA,NA,NA,NA,false
pYIS9i42,3fhtjgyt9qduw7xo30k18rjdqjggpm,3r8yzbnq9lvyqalw1c0yr3sm82v7qw,pYIS9i42,2020-0188,2020-11-15,07:41:55,07:57:08,NA,incomplete,164,color,1,right,Green_Triangle_Grid_2.jpg,Blue_Triangle_Chess_1.jpg,Green_Star_Dots_3.jpg,left,730.0600000016857,false,high,NA,NA,NA,NA,NA,NA,NA,false
pYIS9i42,3fhtjgyt9qduw7xo30k18rjdqjggpm,3r8yzbnq9lvyqalw1c0yr3sm82v7qw,pYIS9i42,2020-0188,2020-11-15,07:41:55,07:57:08,NA,incomplete,165,color,1,right,Green_Star_Stripes_2.jpg,Red_Star_Grid_1.jpg,Green_Plus_Chess_3.jpg,left,826.9349999900442,false,high,NA,NA,NA,NA,NA,NA,NA,false
pYIS9i42,3fhtjgyt9qduw7xo30k18rjdqjggpm,3r8yzbnq9lvyqalw1c0yr3sm82v7qw,pYIS9i42,2020-0188,2020-11-15,07:41:55,07:57:08,NA,incomplete,166,color,1,left,Blue_Star_Chess_2.jpg,Blue_Triangle_Grid_1.jpg,Purple_Star_Dots_4.jpg,left,584.0249999891967,true,high,NA,NA,NA,NA,NA,NA,NA,false
pYIS9i42,3fhtjgyt9qduw7xo30k18rjdqjggpm,3r8yzbnq9lvyqalw1c0yr3sm82v7qw,pYIS9i42,2020-0188,2020-11-15,07:41:55,07:57:08,NA,incomplete,167,color,1,left,Purple_Plus_Dots_1.jpg,Purple_Triangle_Chess_2.jpg,Red_Plus_Grid_4.jpg,left,585.2799999993294,true,high,NA,NA,NA,NA,NA,NA,NA,false
pYIS9i42,3fhtjgyt9qduw7xo30k18rjdqjggpm,3r8yzbnq9lvyqalw1c0yr3sm82v7qw,pYIS9i42,2020-0188,2020-11-15,07:41:55,07:57:08,NA,incomplete,168,color,1,right,Red_Circle_Stripes_2.jpg,Green_Circle_Chess_4.jpg,Red_Triangle_Grid_1.jpg,right,522.9700000199955,true,high,NA,NA,NA,NA,NA,NA,NA,false
pYIS9i42,3fhtjgyt9qduw7xo30k18rjdqjggpm,3r8yzbnq9lvyqalw1c0yr3sm82v7qw,pYIS9i42,2020-0188,2020-11-15,07:41:55,07:57:08,NA,incomplete,169,color,1,right,Blue_Plus_Chess_3.jpg,Green_Plus_Dots_4.jpg,Blue_Triangle_Grid_2.jpg,left,894.5099999837112,false,high,NA,NA,NA,NA,NA,NA,NA,false
pYIS9i42,3fhtjgyt9qduw7xo30k18rjdqjggpm,3r8yzbnq9lvyqalw1c0yr3sm82v7qw,pYIS9i42,2020-0188,2020-11-15,07:41:55,07:57:08,NA,incomplete,170,color,0,left,Green_Plus_Chess_2.jpg,Green_Star_Dots_3.jpg,Red_Plus_Grid_4.jpg,left,633.5700000054203,true,high,NA,NA,NA,NA,NA,NA,NA,false
pYIS9i42,3fhtjgyt9qduw7xo30k18rjdqjggpm,3r8yzbnq9lvyqalw1c0yr3sm82v7qw,pYIS9i42,2020-0188,2020-11-15,07:41:55,07:57:08,NA,incomplete,171,color,1,left,Red_Circle_Stripes_4.jpg,Red_Star_Chess_1.jpg,Green_Circle_Dots_3.jpg,right,665.9500000241678,false,high,NA,NA,NA,NA,NA,NA,NA,false
pYIS9i42,3fhtjgyt9qduw7xo30k18rjdqjggpm,3r8yzbnq9lvyqalw1c0yr3sm82v7qw,pYIS9i42,2020-0188,2020-11-15,07:41:55,07:57:08,NA,incomplete,172,color,1,right,Purple_Plus_Chess_2.jpg,Blue_Plus_Dots_4.jpg,Purple_Star_Stripes_3.jpg,left,1142.8299999970477,false,high,NA,NA,NA,NA,NA,NA,NA,false
pYIS9i42,3fhtjgyt9qduw7xo30k18rjdqjggpm,3r8yzbnq9lvyqalw1c0yr3sm82v7qw,pYIS9i42,2020-0188,2020-11-15,07:41:55,07:57:08,NA,incomplete,173,color,1,left,Red_Star_Grid_1.jpg,Red_Triangle_Stripes_3.jpg,Purple_Star_Chess_4.jpg,right,788.6449999932665,false,high,NA,NA,NA,NA,NA,NA,NA,false
pYIS9i42,3fhtjgyt9qduw7xo30k18rjdqjggpm,3r8yzbnq9lvyqalw1c0yr3sm82v7qw,pYIS9i42,2020-0188,2020-11-15,07:41:55,07:57:08,NA,incomplete,174,color,0,right,Purple_Star_Stripes_4.jpg,Green_Star_Grid_2.jpg,Purple_Circle_Dots_1.jpg,left,694.1200000001118,false,high,NA,NA,NA,NA,NA,NA,NA,false
pYIS9i42,3fhtjgyt9qduw7xo30k18rjdqjggpm,3r8yzbnq9lvyqalw1c0yr3sm82v7qw,pYIS9i42,2020-0188,2020-11-15,07:41:55,07:57:08,NA,incomplete,175,color,1,right,Blue_Star_Dots_1.jpg,Green_Star_Chess_3.jpg,Blue_Plus_Stripes_4.jpg,left,1137.2949999931734,false,high,NA,NA,NA,NA,NA,NA,NA,false
pYIS9i42,3fhtjgyt9qduw7xo30k18rjdqjggpm,3r8yzbnq9lvyqalw1c0yr3sm82v7qw,pYIS9i42,2020-0188,2020-11-15,07:41:55,07:57:08,NA,incomplete,176,color,1,left,Green_Star_Stripes_3.jpg,Green_Circle_Grid_1.jpg,Purple_Star_Dots_4.jpg,right,621.2099999829661,false,high,NA,NA,NA,NA,NA,NA,NA,false
pYIS9i42,3fhtjgyt9qduw7xo30k18rjdqjggpm,3r8yzbnq9lvyqalw1c0yr3sm82v7qw,pYIS9i42,2020-0188,2020-11-15,07:41:55,07:57:08,NA,incomplete,177,color,0,right,Red_Star_Stripes_1.jpg,Purple_Star_Grid_4.jpg,Red_Plus_Chess_3.jpg,left,501.365000003716,false,high,NA,NA,NA,NA,NA,NA,NA,false
pYIS9i42,3fhtjgyt9qduw7xo30k18rjdqjggpm,3r8yzbnq9lvyqalw1c0yr3sm82v7qw,pYIS9i42,2020-0188,2020-11-15,07:41:55,07:57:08,NA,incomplete,178,color,1,right,Purple_Plus_Dots_3.jpg,Red_Plus_Stripes_4.jpg,Purple_Star_Chess_1.jpg,left,732.7199999999721,false,high,NA,NA,NA,NA,NA,NA,NA,false
pYIS9i42,3fhtjgyt9qduw7xo30k18rjdqjggpm,3r8yzbnq9lvyqalw1c0yr3sm82v7qw,pYIS9i42,2020-0188,2020-11-15,07:41:55,07:57:08,NA,incomplete,179,color,1,left,Blue_Star_Grid_4.jpg,Blue_Plus_Stripes_3.jpg,Red_Star_Dots_2.jpg,right,670.8649999927729,false,high,NA,NA,NA,NA,NA,NA,NA,false
pYIS9i42,3fhtjgyt9qduw7xo30k18rjdqjggpm,3r8yzbnq9lvyqalw1c0yr3sm82v7qw,pYIS9i42,2020-0188,2020-11-15,07:41:55,07:57:08,NA,incomplete,180,shape,1,left,Blue_Plus_Dots_4.jpg,Purple_Plus_Chess_3.jpg,Blue_Triangle_Grid_2.jpg,right,757.3049999773502,false,high,NA,NA,NA,NA,NA,NA,NA,false
pYIS9i42,3fhtjgyt9qduw7xo30k18rjdqjggpm,3r8yzbnq9lvyqalw1c0yr3sm82v7qw,pYIS9i42,2020-0188,2020-11-15,07:41:55,07:57:08,NA,incomplete,181,shape,1,left,Blue_Triangle_Grid_3.jpg,Green_Triangle_Dots_4.jpg,Blue_Star_Chess_2.jpg,left,736.9349999935366,true,high,NA,NA,NA,NA,NA,NA,NA,false
pYIS9i42,3fhtjgyt9qduw7xo30k18rjdqjggpm,3r8yzbnq9lvyqalw1c0yr3sm82v7qw,pYIS9i42,2020-0188,2020-11-15,07:41:55,07:57:08,NA,incomplete,182,shape,1,left,Purple_Plus_Stripes_3.jpg,Red_Plus_Dots_4.jpg,Purple_Star_Chess_1.jpg,left,826.5550000069197,true,high,NA,NA,NA,NA,NA,NA,NA,false
pYIS9i42,3fhtjgyt9qduw7xo30k18rjdqjggpm,3r8yzbnq9lvyqalw1c0yr3sm82v7qw,pYIS9i42,2020-0188,2020-11-15,07:41:55,07:57:08,NA,incomplete,183,shape,1,right,Red_Star_Chess_4.jpg,Red_Circle_Stripes_1.jpg,Purple_Star_Dots_2.jpg,right,947.8800000215415,true,high,NA,NA,NA,NA,NA,NA,NA,false
pYIS9i42,3fhtjgyt9qduw7xo30k18rjdqjggpm,3r8yzbnq9lvyqalw1c0yr3sm82v7qw,pYIS9i42,2020-0188,2020-11-15,07:41:55,07:57:08,NA,incomplete,184,shape,1,left,Purple_Triangle_Dots_2.jpg,Green_Triangle_Chess_1.jpg,Purple_Star_Grid_3.jpg,left,685.7200000085868,true,high,NA,NA,NA,NA,NA,NA,NA,false
pYIS9i42,3fhtjgyt9qduw7xo30k18rjdqjggpm,3r8yzbnq9lvyqalw1c0yr3sm82v7qw,pYIS9i42,2020-0188,2020-11-15,07:41:55,07:57:08,NA,incomplete,185,shape,1,right,Blue_Star_Stripes_3.jpg,Blue_Triangle_Grid_2.jpg,Red_Star_Dots_1.jpg,right,940.2699999918696,true,high,NA,NA,NA,NA,NA,NA,NA,false
pYIS9i42,3fhtjgyt9qduw7xo30k18rjdqjggpm,3r8yzbnq9lvyqalw1c0yr3sm82v7qw,pYIS9i42,2020-0188,2020-11-15,07:41:55,07:57:08,NA,incomplete,186,shape,0,right,Green_Plus_Chess_2.jpg,Green_Star_Grid_3.jpg,Purple_Plus_Dots_1.jpg,right,734.6350000007078,true,high,NA,NA,NA,NA,NA,NA,NA,false
pYIS9i42,3fhtjgyt9qduw7xo30k18rjdqjggpm,3r8yzbnq9lvyqalw1c0yr3sm82v7qw,pYIS9i42,2020-0188,2020-11-15,07:41:55,07:57:08,NA,incomplete,187,shape,1,left,Blue_Triangle_Dots_3.jpg,Purple_Triangle_Chess_1.jpg,Blue_Circle_Stripes_4.jpg,left,757.1150000148918,true,high,NA,NA,NA,NA,NA,NA,NA,false
pYIS9i42,3fhtjgyt9qduw7xo30k18rjdqjggpm,3r8yzbnq9lvyqalw1c0yr3sm82v7qw,pYIS9i42,2020-0188,2020-11-15,07:41:55,07:57:08,NA,incomplete,188,shape,1,left,Red_Plus_Chess_2.jpg,Green_Plus_Stripes_1.jpg,Red_Star_Dots_4.jpg,left,922.0249999780208,true,high,NA,NA,NA,NA,NA,NA,NA,false
pYIS9i42,3fhtjgyt9qduw7xo30k18rjdqjggpm,3r8yzbnq9lvyqalw1c0yr3sm82v7qw,pYIS9i42,2020-0188,2020-11-15,07:41:55,07:57:08,NA,incomplete,189,shape,0,left,Red_Circle_Chess_2.jpg,Purple_Circle_Dots_4.jpg,Red_Plus_Stripes_3.jpg,left,826.9149999832734,true,high,NA,NA,NA,NA,NA,NA,NA,false
pYIS9i42,3fhtjgyt9qduw7xo30k18rjdqjggpm,3r8yzbnq9lvyqalw1c0yr3sm82v7qw,pYIS9i42,2020-0188,2020-11-15,07:41:55,07:57:08,NA,incomplete,190,shape,1,left,Blue_Circle_Chess_1.jpg,Red_Circle_Dots_4.jpg,Blue_Triangle_Stripes_3.jpg,right,940.3950000123587,false,high,NA,NA,NA,NA,NA,NA,NA,false
pYIS9i42,3fhtjgyt9qduw7xo30k18rjdqjggpm,3r8yzbnq9lvyqalw1c0yr3sm82v7qw,pYIS9i42,2020-0188,2020-11-15,07:41:55,07:57:08,NA,incomplete,191,shape,1,left,Red_Circle_Chess_1.jpg,Purple_Circle_Stripes_3.jpg,Red_Star_Dots_2.jpg,left,678.2099999836646,true,high,NA,NA,NA,NA,NA,NA,NA,false
pYIS9i42,3fhtjgyt9qduw7xo30k18rjdqjggpm,3r8yzbnq9lvyqalw1c0yr3sm82v7qw,pYIS9i42,2020-0188,2020-11-15,07:41:55,07:57:08,NA,incomplete,192,shape,1,right,Red_Triangle_Grid_4.jpg,Red_Plus_Dots_1.jpg,Green_Triangle_Chess_3.jpg,right,1220.1449999993201,true,high,NA,NA,NA,NA,NA,NA,NA,false
pYIS9i42,3fhtjgyt9qduw7xo30k18rjdqjggpm,3r8yzbnq9lvyqalw1c0yr3sm82v7qw,pYIS9i42,2020-0188,2020-11-15,07:41:55,07:57:08,NA,incomplete,193,shape,1,right,Red_Star_Grid_2.jpg,Red_Plus_Stripes_3.jpg,Blue_Star_Dots_1.jpg,right,859.4950000115205,true,high,NA,NA,NA,NA,NA,NA,NA,false
pYIS9i42,3fhtjgyt9qduw7xo30k18rjdqjggpm,3r8yzbnq9lvyqalw1c0yr3sm82v7qw,pYIS9i42,2020-0188,2020-11-15,07:41:55,07:57:08,NA,incomplete,194,shape,1,left,Red_Circle_Stripes_2.jpg,Green_Circle_Chess_3.jpg,Red_Star_Grid_1.jpg,left,600.3149999887682,true,high,NA,NA,NA,NA,NA,NA,NA,false
pYIS9i42,3fhtjgyt9qduw7xo30k18rjdqjggpm,3r8yzbnq9lvyqalw1c0yr3sm82v7qw,pYIS9i42,2020-0188,2020-11-15,07:41:55,07:57:08,NA,incomplete,195,shape,1,left,Green_Star_Grid_3.jpg,Blue_Star_Stripes_2.jpg,Green_Circle_Dots_1.jpg,left,786.1399999819696,true,high,NA,NA,NA,NA,NA,NA,NA,false
pYIS9i42,3fhtjgyt9qduw7xo30k18rjdqjggpm,3r8yzbnq9lvyqalw1c0yr3sm82v7qw,pYIS9i42,2020-0188,2020-11-15,07:41:55,07:57:08,NA,incomplete,196,shape,1,right,Blue_Star_Stripes_4.jpg,Blue_Triangle_Dots_3.jpg,Green_Star_Grid_2.jpg,right,876.6150000155903,true,high,NA,NA,NA,NA,NA,NA,NA,false
pYIS9i42,3fhtjgyt9qduw7xo30k18rjdqjggpm,3r8yzbnq9lvyqalw1c0yr3sm82v7qw,pYIS9i42,2020-0188,2020-11-15,07:41:55,07:57:08,NA,incomplete,197,shape,0,left,Purple_Triangle_Grid_2.jpg,Blue_Triangle_Dots_4.jpg,Purple_Circle_Chess_1.jpg,right,837.8950000042096,false,high,NA,NA,NA,NA,NA,NA,NA,false
pYIS9i42,3fhtjgyt9qduw7xo30k18rjdqjggpm,3r8yzbnq9lvyqalw1c0yr3sm82v7qw,pYIS9i42,2020-0188,2020-11-15,07:41:55,07:57:08,NA,incomplete,198,shape,1,right,Blue_Star_Dots_4.jpg,Blue_Triangle_Chess_3.jpg,Red_Star_Grid_2.jpg,left,1527.3349999915808,false,high,NA,NA,NA,NA,NA,NA,NA,false
pYIS9i42,3fhtjgyt9qduw7xo30k18rjdqjggpm,3r8yzbnq9lvyqalw1c0yr3sm82v7qw,pYIS9i42,2020-0188,2020-11-15,07:41:55,07:57:08,NA,incomplete,199,shape,1,right,Red_Star_Chess_4.jpg,Red_Plus_Grid_2.jpg,Blue_Star_Dots_3.jpg,right,1029.1199999919627,true,high,NA,NA,NA,NA,NA,NA,NA,false
pYIS9i42,3fhtjgyt9qduw7xo30k18rjdqjggpm,3r8yzbnq9lvyqalw1c0yr3sm82v7qw,pYIS9i42,2020-0188,2020-11-15,07:41:55,07:57:08,NA,incomplete,200,color,1,left,Blue_Plus_Dots_2.jpg,Blue_Circle_Stripes_1.jpg,Red_Plus_Grid_4.jpg,right,667.7099999797065,false,high,NA,NA,NA,NA,NA,NA,NA,false
pYIS9i42,3fhtjgyt9qduw7xo30k18rjdqjggpm,3r8yzbnq9lvyqalw1c0yr3sm82v7qw,pYIS9i42,2020-0188,2020-11-15,07:41:55,07:57:08,NA,incomplete,201,color,1,left,Red_Star_Stripes_1.jpg,Red_Triangle_Dots_4.jpg,Green_Star_Chess_2.jpg,right,599.3449999950826,false,high,NA,NA,NA,NA,NA,NA,NA,false
pYIS9i42,3fhtjgyt9qduw7xo30k18rjdqjggpm,3r8yzbnq9lvyqalw1c0yr3sm82v7qw,pYIS9i42,2020-0188,2020-11-15,07:41:55,07:57:08,NA,incomplete,202,color,1,right,Blue_Triangle_Dots_1.jpg,Purple_Triangle_Chess_2.jpg,Blue_Plus_Grid_4.jpg,left,651.7650000168942,false,high,NA,NA,NA,NA,NA,NA,NA,false
pYIS9i42,3fhtjgyt9qduw7xo30k18rjdqjggpm,3r8yzbnq9lvyqalw1c0yr3sm82v7qw,pYIS9i42,2020-0188,2020-11-15,07:41:55,07:57:08,NA,incomplete,203,color,1,left,Blue_Circle_Dots_4.jpg,Blue_Triangle_Stripes_1.jpg,Purple_Circle_Grid_2.jpg,right,619.66999998549,false,high,NA,NA,NA,NA,NA,NA,NA,false
pYIS9i42,3fhtjgyt9qduw7xo30k18rjdqjggpm,3r8yzbnq9lvyqalw1c0yr3sm82v7qw,pYIS9i42,2020-0188,2020-11-15,07:41:55,07:57:08,NA,incomplete,204,color,1,right,Purple_Triangle_Grid_1.jpg,Red_Triangle_Dots_3.jpg,Purple_Circle_Stripes_2.jpg,right,641.5100000158418,true,high,NA,NA,NA,NA,NA,NA,NA,false
pYIS9i42,3fhtjgyt9qduw7xo30k18rjdqjggpm,3r8yzbnq9lvyqalw1c0yr3sm82v7qw,pYIS9i42,2020-0188,2020-11-15,07:41:55,07:57:08,NA,incomplete,205,color,1,left,Red_Circle_Dots_2.jpg,Red_Star_Stripes_1.jpg,Green_Circle_Chess_3.jpg,left,640.0499999872409,true,high,NA,NA,NA,NA,NA,NA,NA,false
pYIS9i42,3fhtjgyt9qduw7xo30k18rjdqjggpm,3r8yzbnq9lvyqalw1c0yr3sm82v7qw,pYIS9i42,2020-0188,2020-11-15,07:41:55,07:57:08,NA,incomplete,206,color,0,left,Blue_Circle_Stripes_3.jpg,Blue_Plus_Grid_4.jpg,Green_Circle_Dots_2.jpg,right,857.0900000049733,false,high,NA,NA,NA,NA,NA,NA,NA,false
pYIS9i42,3fhtjgyt9qduw7xo30k18rjdqjggpm,3r8yzbnq9lvyqalw1c0yr3sm82v7qw,pYIS9i42,2020-0188,2020-11-15,07:41:55,07:57:08,NA,incomplete,207,color,1,left,Green_Star_Grid_3.jpg,Green_Circle_Chess_4.jpg,Purple_Star_Stripes_1.jpg,left,560.4800000146497,true,high,NA,NA,NA,NA,NA,NA,NA,false
pYIS9i42,3fhtjgyt9qduw7xo30k18rjdqjggpm,3r8yzbnq9lvyqalw1c0yr3sm82v7qw,pYIS9i42,2020-0188,2020-11-15,07:41:55,07:57:08,NA,incomplete,208,color,1,left,Green_Circle_Dots_3.jpg,Green_Triangle_Stripes_1.jpg,Blue_Circle_Grid_2.jpg,right,594.8300000163727,false,high,NA,NA,NA,NA,NA,NA,NA,false
pYIS9i42,3fhtjgyt9qduw7xo30k18rjdqjggpm,3r8yzbnq9lvyqalw1c0yr3sm82v7qw,pYIS9i42,2020-0188,2020-11-15,07:41:55,07:57:08,NA,incomplete,209,color,0,right,Blue_Star_Grid_2.jpg,Red_Star_Chess_4.jpg,Blue_Circle_Dots_1.jpg,left,671.089999988908,false,high,NA,NA,NA,NA,NA,NA,NA,false
pYIS9i42,3fhtjgyt9qduw7xo30k18rjdqjggpm,3r8yzbnq9lvyqalw1c0yr3sm82v7qw,pYIS9i42,2020-0188,2020-11-15,07:41:55,07:57:08,NA,incomplete,210,color,1,left,Red_Plus_Grid_3.jpg,Red_Star_Dots_1.jpg,Green_Plus_Stripes_4.jpg,right,563.1249999860302,false,high,NA,NA,NA,NA,NA,NA,NA,false
pYIS9i42,3fhtjgyt9qduw7xo30k18rjdqjggpm,3r8yzbnq9lvyqalw1c0yr3sm82v7qw,pYIS9i42,2020-0188,2020-11-15,07:41:55,07:57:08,NA,incomplete,211,color,1,left,Green_Triangle_Stripes_4.jpg,Green_Plus_Chess_1.jpg,Blue_Triangle_Grid_2.jpg,left,574.1600000183098,true,high,NA,NA,NA,NA,NA,NA,NA,false
pYIS9i42,3fhtjgyt9qduw7xo30k18rjdqjggpm,3r8yzbnq9lvyqalw1c0yr3sm82v7qw,pYIS9i42,2020-0188,2020-11-15,07:41:55,07:57:08,NA,incomplete,212,color,0,left,Purple_Circle_Dots_4.jpg,Purple_Plus_Grid_1.jpg,Green_Circle_Stripes_2.jpg,left,1222.0350000134204,true,high,NA,NA,NA,NA,NA,NA,NA,false
pYIS9i42,3fhtjgyt9qduw7xo30k18rjdqjggpm,3r8yzbnq9lvyqalw1c0yr3sm82v7qw,pYIS9i42,2020-0188,2020-11-15,07:41:55,07:57:08,NA,incomplete,213,color,1,right,Red_Triangle_Grid_4.jpg,Blue_Triangle_Chess_2.jpg,Red_Star_Dots_3.jpg,right,518.1100000045262,true,high,NA,NA,NA,NA,NA,NA,NA,false
pYIS9i42,3fhtjgyt9qduw7xo30k18rjdqjggpm,3r8yzbnq9lvyqalw1c0yr3sm82v7qw,pYIS9i42,2020-0188,2020-11-15,07:41:55,07:57:08,NA,incomplete,214,color,1,left,Green_Triangle_Grid_1.jpg,Green_Plus_Dots_4.jpg,Purple_Triangle_Stripes_2.jpg,right,550.2550000092015,false,high,NA,NA,NA,NA,NA,NA,NA,false
pYIS9i42,3fhtjgyt9qduw7xo30k18rjdqjggpm,3r8yzbnq9lvyqalw1c0yr3sm82v7qw,pYIS9i42,2020-0188,2020-11-15,07:41:55,07:57:08,NA,incomplete,215,color,1,right,Green_Plus_Dots_4.jpg,Blue_Plus_Grid_1.jpg,Green_Circle_Chess_3.jpg,left,501.09999999403954,false,high,NA,NA,NA,NA,NA,NA,NA,false
pYIS9i42,3fhtjgyt9qduw7xo30k18rjdqjggpm,3r8yzbnq9lvyqalw1c0yr3sm82v7qw,pYIS9i42,2020-0188,2020-11-15,07:41:55,07:57:08,NA,incomplete,216,color,1,left,Green_Triangle_Stripes_1.jpg,Green_Star_Chess_3.jpg,Red_Triangle_Dots_2.jpg,right,1093.315000005532,false,high,NA,NA,NA,NA,NA,NA,NA,false
pYIS9i42,3fhtjgyt9qduw7xo30k18rjdqjggpm,3r8yzbnq9lvyqalw1c0yr3sm82v7qw,pYIS9i42,2020-0188,2020-11-15,07:41:55,07:57:08,NA,incomplete,217,color,1,left,Red_Star_Chess_1.jpg,Red_Circle_Stripes_2.jpg,Green_Star_Dots_4.jpg,left,854.6349999960512,true,high,NA,NA,NA,NA,NA,NA,NA,false
pYIS9i42,3fhtjgyt9qduw7xo30k18rjdqjggpm,3r8yzbnq9lvyqalw1c0yr3sm82v7qw,pYIS9i42,2020-0188,2020-11-15,07:41:55,07:57:08,NA,incomplete,218,color,0,left,Purple_Star_Chess_1.jpg,Purple_Plus_Grid_3.jpg,Green_Star_Stripes_2.jpg,right,804.4649999937974,false,high,NA,NA,NA,NA,NA,NA,NA,false
pYIS9i42,3fhtjgyt9qduw7xo30k18rjdqjggpm,3r8yzbnq9lvyqalw1c0yr3sm82v7qw,pYIS9i42,2020-0188,2020-11-15,07:41:55,07:57:08,NA,incomplete,219,color,1,left,Green_Triangle_Chess_1.jpg,Green_Plus_Dots_2.jpg,Blue_Triangle_Stripes_3.jpg,right,616.0099999979138,false,high,NA,NA,NA,NA,NA,NA,NA,false
pYIS9i42,3fhtjgyt9qduw7xo30k18rjdqjggpm,3r8yzbnq9lvyqalw1c0yr3sm82v7qw,pYIS9i42,2020-0188,2020-11-15,07:41:55,07:57:08,NA,incomplete,220,shape,1,right,Green_Plus_Chess_1.jpg,Green_Circle_Grid_4.jpg,Blue_Plus_Stripes_2.jpg,left,497.3549999995157,false,high,NA,NA,NA,NA,NA,NA,NA,false
pYIS9i42,3fhtjgyt9qduw7xo30k18rjdqjggpm,3r8yzbnq9lvyqalw1c0yr3sm82v7qw,pYIS9i42,2020-0188,2020-11-15,07:41:55,07:57:08,NA,incomplete,221,shape,0,right,Green_Plus_Stripes_3.jpg,Green_Circle_Chess_2.jpg,Red_Plus_Dots_4.jpg,right,711.5549999871291,true,high,NA,NA,NA,NA,NA,NA,NA,false
pYIS9i42,3fhtjgyt9qduw7xo30k18rjdqjggpm,3r8yzbnq9lvyqalw1c0yr3sm82v7qw,pYIS9i42,2020-0188,2020-11-15,07:41:55,07:57:08,NA,incomplete,222,shape,1,left,Green_Triangle_Dots_2.jpg,Blue_Triangle_Stripes_4.jpg,Green_Plus_Grid_1.jpg,right,918.1249999965075,false,high,NA,NA,NA,NA,NA,NA,NA,false
pYIS9i42,3fhtjgyt9qduw7xo30k18rjdqjggpm,3r8yzbnq9lvyqalw1c0yr3sm82v7qw,pYIS9i42,2020-0188,2020-11-15,07:41:55,07:57:08,NA,incomplete,223,shape,1,left,Red_Star_Chess_2.jpg,Purple_Star_Dots_4.jpg,Red_Triangle_Stripes_1.jpg,left,792.0699999958742,true,high,NA,NA,NA,NA,NA,NA,NA,false
pYIS9i42,3fhtjgyt9qduw7xo30k18rjdqjggpm,3r8yzbnq9lvyqalw1c0yr3sm82v7qw,pYIS9i42,2020-0188,2020-11-15,07:41:55,07:57:08,NA,incomplete,224,shape,0,right,Purple_Triangle_Grid_4.jpg,Purple_Plus_Stripes_3.jpg,Red_Triangle_Chess_1.jpg,left,1020.6250000046566,false,high,NA,NA,NA,NA,NA,NA,NA,false
pYIS9i42,3fhtjgyt9qduw7xo30k18rjdqjggpm,3r8yzbnq9lvyqalw1c0yr3sm82v7qw,pYIS9i42,2020-0188,2020-11-15,07:41:55,07:57:08,NA,incomplete,225,shape,1,right,Purple_Triangle_Chess_1.jpg,Purple_Star_Grid_4.jpg,Blue_Triangle_Stripes_3.jpg,right,1072.0750000036787,true,high,NA,NA,NA,NA,NA,NA,NA,false
pYIS9i42,3fhtjgyt9qduw7xo30k18rjdqjggpm,3r8yzbnq9lvyqalw1c0yr3sm82v7qw,pYIS9i42,2020-0188,2020-11-15,07:41:55,07:57:08,NA,incomplete,226,shape,1,right,Red_Triangle_Stripes_4.jpg,Red_Circle_Dots_3.jpg,Blue_Triangle_Grid_1.jpg,right,777.0450000243727,true,high,NA,NA,NA,NA,NA,NA,NA,false
pYIS9i42,3fhtjgyt9qduw7xo30k18rjdqjggpm,3r8yzbnq9lvyqalw1c0yr3sm82v7qw,pYIS9i42,2020-0188,2020-11-15,07:41:55,07:57:08,NA,incomplete,227,shape,1,right,Red_Star_Dots_4.jpg,Red_Triangle_Grid_3.jpg,Purple_Star_Stripes_2.jpg,right,683.0300000146963,true,high,NA,NA,NA,NA,NA,NA,NA,false
pYIS9i42,3fhtjgyt9qduw7xo30k18rjdqjggpm,3r8yzbnq9lvyqalw1c0yr3sm82v7qw,pYIS9i42,2020-0188,2020-11-15,07:41:55,07:57:08,NA,incomplete,228,shape,0,left,Green_Triangle_Stripes_2.jpg,Blue_Triangle_Chess_1.jpg,Green_Star_Grid_3.jpg,left,595.5699999758508,true,high,NA,NA,NA,NA,NA,NA,NA,false
pYIS9i42,3fhtjgyt9qduw7xo30k18rjdqjggpm,3r8yzbnq9lvyqalw1c0yr3sm82v7qw,pYIS9i42,2020-0188,2020-11-15,07:41:55,07:57:08,NA,incomplete,229,shape,1,right,Red_Triangle_Chess_1.jpg,Red_Plus_Stripes_2.jpg,Green_Triangle_Dots_3.jpg,left,743.1299999880139,false,high,NA,NA,NA,NA,NA,NA,NA,false
pYIS9i42,3fhtjgyt9qduw7xo30k18rjdqjggpm,3r8yzbnq9lvyqalw1c0yr3sm82v7qw,pYIS9i42,2020-0188,2020-11-15,07:41:55,07:57:08,NA,incomplete,230,shape,0,left,Green_Star_Dots_4.jpg,Blue_Star_Grid_3.jpg,Green_Plus_Stripes_1.jpg,right,421.53000002144836,false,high,NA,NA,NA,NA,NA,NA,NA,false
pYIS9i42,3fhtjgyt9qduw7xo30k18rjdqjggpm,3r8yzbnq9lvyqalw1c0yr3sm82v7qw,pYIS9i42,2020-0188,2020-11-15,07:41:55,07:57:08,NA,incomplete,231,shape,1,left,Red_Star_Chess_2.jpg,Purple_Star_Stripes_1.jpg,Red_Triangle_Dots_4.jpg,right,494.074999995064,false,high,NA,NA,NA,NA,NA,NA,NA,false
pYIS9i42,3fhtjgyt9qduw7xo30k18rjdqjggpm,3r8yzbnq9lvyqalw1c0yr3sm82v7qw,pYIS9i42,2020-0188,2020-11-15,07:41:55,07:57:08,NA,incomplete,232,shape,0,right,Purple_Plus_Chess_4.jpg,Purple_Circle_Grid_3.jpg,Green_Plus_Stripes_2.jpg,right,671.3649999874178,true,high,NA,NA,NA,NA,NA,NA,NA,false
pYIS9i42,3fhtjgyt9qduw7xo30k18rjdqjggpm,3r8yzbnq9lvyqalw1c0yr3sm82v7qw,pYIS9i42,2020-0188,2020-11-15,07:41:55,07:57:08,NA,incomplete,233,shape,1,left,Purple_Plus_Stripes_1.jpg,Green_Plus_Grid_3.jpg,Purple_Circle_Chess_4.jpg,left,666.1550000135321,true,high,NA,NA,NA,NA,NA,NA,NA,false
pYIS9i42,3fhtjgyt9qduw7xo30k18rjdqjggpm,3r8yzbnq9lvyqalw1c0yr3sm82v7qw,pYIS9i42,2020-0188,2020-11-15,07:41:55,07:57:08,NA,incomplete,234,shape,0,right,Blue_Triangle_Chess_1.jpg,Blue_Star_Grid_2.jpg,Red_Triangle_Dots_3.jpg,right,1186.6850000224076,true,high,NA,NA,NA,NA,NA,NA,NA,false
pYIS9i42,3fhtjgyt9qduw7xo30k18rjdqjggpm,3r8yzbnq9lvyqalw1c0yr3sm82v7qw,pYIS9i42,2020-0188,2020-11-15,07:41:55,07:57:08,NA,incomplete,235,shape,1,left,Red_Star_Dots_1.jpg,Green_Star_Stripes_4.jpg,Red_Triangle_Grid_3.jpg,right,685.0299999932759,false,high,NA,NA,NA,NA,NA,NA,NA,false
pYIS9i42,3fhtjgyt9qduw7xo30k18rjdqjggpm,3r8yzbnq9lvyqalw1c0yr3sm82v7qw,pYIS9i42,2020-0188,2020-11-15,07:41:55,07:57:08,NA,incomplete,236,shape,1,right,Blue_Triangle_Grid_2.jpg,Blue_Star_Dots_1.jpg,Green_Triangle_Chess_4.jpg,right,931.8550000025425,true,high,NA,NA,NA,NA,NA,NA,NA,false
pYIS9i42,3fhtjgyt9qduw7xo30k18rjdqjggpm,3r8yzbnq9lvyqalw1c0yr3sm82v7qw,pYIS9i42,2020-0188,2020-11-15,07:41:55,07:57:08,NA,incomplete,237,shape,1,right,Purple_Plus_Grid_3.jpg,Purple_Star_Stripes_4.jpg,Red_Plus_Chess_2.jpg,right,1390.6449999776669,true,high,NA,NA,NA,NA,NA,NA,NA,false
pYIS9i42,3fhtjgyt9qduw7xo30k18rjdqjggpm,3r8yzbnq9lvyqalw1c0yr3sm82v7qw,pYIS9i42,2020-0188,2020-11-15,07:41:55,07:57:08,NA,incomplete,238,shape,1,right,Blue_Star_Dots_4.jpg,Blue_Triangle_Stripes_3.jpg,Red_Star_Grid_2.jpg,right,1258.365000016056,true,high,NA,NA,NA,NA,NA,NA,NA,false
pYIS9i42,3fhtjgyt9qduw7xo30k18rjdqjggpm,3r8yzbnq9lvyqalw1c0yr3sm82v7qw,pYIS9i42,2020-0188,2020-11-15,07:41:55,07:57:08,NA,incomplete,239,shape,1,left,Purple_Plus_Dots_2.jpg,Green_Plus_Stripes_4.jpg,Purple_Circle_Chess_3.jpg,left,777.4199999985285,true,high,NA,NA,NA,NA,NA,NA,NA,false
pYIS9i42,3fhtjgyt9qduw7xo30k18rjdqjggpm,3r8yzbnq9lvyqalw1c0yr3sm82v7qw,pYIS9i42,2020-0188,2020-11-15,07:41:55,07:57:08,855183.4650000092,913862.0249999803,NA,NA,NA,NA,NA,NA,NA,NA,NA,NA,NA,29,White/Caucasian,Male,Do not wish to reply,no,no,no,undefined
