workerId,hitId,assignmentId,subject,studyid,exp_date,exp_start,exp_end,time_start,time_end,trial,type,reward_validity,answer,image_top,image_left,image_right,response,response_time,response_acc,volatility,practice
hdhQZw3b,33ixyhizc8v0km0rv7j1cbq82t9e2g,3rwe2m8qwlnz528k0ln88unuvdr0nr,hdhQZw3b,2020-0188,2020-11-14,22:08:48,22:26:59,NA,incomplete,0,number,1,left,Blue_Circle_Chess_4.jpg,Purple_Star_Grid_4.jpg,Blue_Plus_Stripes_1.jpg,left,1422,true,NA,true
hdhQZw3b,33ixyhizc8v0km0rv7j1cbq82t9e2g,3rwe2m8qwlnz528k0ln88unuvdr0nr,hdhQZw3b,2020-0188,2020-11-14,22:08:48,22:26:59,NA,incomplete,1,number,1,right,Green_Triangle_Grid_1.jpg,Green_Star_Chess_4.jpg,Purple_Plus_Dots_1.jpg,right,954,true,NA,true
hdhQZw3b,33ixyhizc8v0km0rv7j1cbq82t9e2g,3rwe2m8qwlnz528k0ln88unuvdr0nr,hdhQZw3b,2020-0188,2020-11-14,22:08:48,22:26:59,NA,incomplete,2,number,1,right,Blue_Triangle_Dots_1.jpg,Blue_Plus_Grid_3.jpg,Purple_Circle_Stripes_1.jpg,right,935,true,NA,true
hdhQZw3b,33ixyhizc8v0km0rv7j1cbq82t9e2g,3rwe2m8qwlnz528k0ln88unuvdr0nr,hdhQZw3b,2020-0188,2020-11-14,22:08:48,22:26:59,NA,incomplete,3,number,1,left,Purple_Star_Chess_3.jpg,Red_Triangle_Stripes_3.jpg,Purple_Plus_Grid_4.jpg,left,782,true,NA,true
hdhQZw3b,33ixyhizc8v0km0rv7j1cbq82t9e2g,3rwe2m8qwlnz528k0ln88unuvdr0nr,hdhQZw3b,2020-0188,2020-11-14,22:08:48,22:26:59,NA,incomplete,4,number,1,right,Green_Star_Dots_4.jpg,Green_Triangle_Grid_3.jpg,Red_Circle_Stripes_4.jpg,right,946,true,NA,true
hdhQZw3b,33ixyhizc8v0km0rv7j1cbq82t9e2g,3rwe2m8qwlnz528k0ln88unuvdr0nr,hdhQZw3b,2020-0188,2020-11-14,22:08:48,22:26:59,NA,incomplete,5,number,1,right,Purple_Star_Grid_1.jpg,Purple_Triangle_Chess_2.jpg,Blue_Circle_Stripes_1.jpg,right,882,true,NA,true
hdhQZw3b,33ixyhizc8v0km0rv7j1cbq82t9e2g,3rwe2m8qwlnz528k0ln88unuvdr0nr,hdhQZw3b,2020-0188,2020-11-14,22:08:48,22:26:59,NA,incomplete,6,number,1,right,Green_Star_Chess_1.jpg,Green_Circle_Dots_2.jpg,Blue_Triangle_Grid_1.jpg,right,1160,true,NA,true
hdhQZw3b,33ixyhizc8v0km0rv7j1cbq82t9e2g,3rwe2m8qwlnz528k0ln88unuvdr0nr,hdhQZw3b,2020-0188,2020-11-14,22:08:48,22:26:59,NA,incomplete,7,number,0,left,Purple_Circle_Grid_2.jpg,Blue_Star_Dots_2.jpg,Purple_Plus_Chess_4.jpg,left,697,true,NA,true
hdhQZw3b,33ixyhizc8v0km0rv7j1cbq82t9e2g,3rwe2m8qwlnz528k0ln88unuvdr0nr,hdhQZw3b,2020-0188,2020-11-14,22:08:48,22:26:59,NA,incomplete,8,number,1,left,Purple_Plus_Stripes_3.jpg,Blue_Star_Chess_3.jpg,Purple_Circle_Grid_2.jpg,left,737,true,NA,true
hdhQZw3b,33ixyhizc8v0km0rv7j1cbq82t9e2g,3rwe2m8qwlnz528k0ln88unuvdr0nr,hdhQZw3b,2020-0188,2020-11-14,22:08:48,22:26:59,NA,incomplete,9,number,1,left,Blue_Circle_Dots_2.jpg,Green_Triangle_Grid_2.jpg,Blue_Star_Stripes_1.jpg,left,722,true,NA,true
hdhQZw3b,33ixyhizc8v0km0rv7j1cbq82t9e2g,3rwe2m8qwlnz528k0ln88unuvdr0nr,hdhQZw3b,2020-0188,2020-11-14,22:08:48,22:26:59,NA,incomplete,10,number,1,left,Green_Star_Dots_1.jpg,Purple_Circle_Grid_1.jpg,Green_Plus_Stripes_2.jpg,right,529,false,NA,true
hdhQZw3b,33ixyhizc8v0km0rv7j1cbq82t9e2g,3rwe2m8qwlnz528k0ln88unuvdr0nr,hdhQZw3b,2020-0188,2020-11-14,22:08:48,22:26:59,NA,incomplete,11,number,0,right,Blue_Circle_Dots_3.jpg,Blue_Triangle_Stripes_2.jpg,Purple_Star_Grid_3.jpg,right,862,true,NA,true
hdhQZw3b,33ixyhizc8v0km0rv7j1cbq82t9e2g,3rwe2m8qwlnz528k0ln88unuvdr0nr,hdhQZw3b,2020-0188,2020-11-14,22:08:48,22:26:59,NA,incomplete,12,number,1,right,Red_Star_Dots_1.jpg,Red_Circle_Stripes_4.jpg,Purple_Triangle_Chess_1.jpg,right,1648,true,NA,true
hdhQZw3b,33ixyhizc8v0km0rv7j1cbq82t9e2g,3rwe2m8qwlnz528k0ln88unuvdr0nr,hdhQZw3b,2020-0188,2020-11-14,22:08:48,22:26:59,NA,incomplete,13,number,0,left,Blue_Plus_Stripes_4.jpg,Green_Triangle_Chess_4.jpg,Blue_Circle_Grid_3.jpg,left,1039,true,NA,true
hdhQZw3b,33ixyhizc8v0km0rv7j1cbq82t9e2g,3rwe2m8qwlnz528k0ln88unuvdr0nr,hdhQZw3b,2020-0188,2020-11-14,22:08:48,22:26:59,NA,incomplete,14,number,0,left,Purple_Circle_Grid_4.jpg,Red_Plus_Dots_4.jpg,Purple_Star_Stripes_2.jpg,left,994,true,NA,true
hdhQZw3b,33ixyhizc8v0km0rv7j1cbq82t9e2g,3rwe2m8qwlnz528k0ln88unuvdr0nr,hdhQZw3b,2020-0188,2020-11-14,22:08:48,22:26:59,NA,incomplete,15,number,0,right,Purple_Triangle_Chess_2.jpg,Purple_Star_Dots_1.jpg,Red_Plus_Stripes_2.jpg,right,683,true,NA,true
hdhQZw3b,33ixyhizc8v0km0rv7j1cbq82t9e2g,3rwe2m8qwlnz528k0ln88unuvdr0nr,hdhQZw3b,2020-0188,2020-11-14,22:08:48,22:26:59,NA,incomplete,16,number,1,right,Red_Star_Dots_3.jpg,Red_Plus_Chess_2.jpg,Green_Circle_Stripes_3.jpg,right,1033,true,NA,true
hdhQZw3b,33ixyhizc8v0km0rv7j1cbq82t9e2g,3rwe2m8qwlnz528k0ln88unuvdr0nr,hdhQZw3b,2020-0188,2020-11-14,22:08:48,22:26:59,NA,incomplete,17,number,1,right,Green_Triangle_Grid_1.jpg,Green_Circle_Chess_2.jpg,Blue_Plus_Stripes_1.jpg,right,745,true,NA,true
hdhQZw3b,33ixyhizc8v0km0rv7j1cbq82t9e2g,3rwe2m8qwlnz528k0ln88unuvdr0nr,hdhQZw3b,2020-0188,2020-11-14,22:08:48,22:26:59,NA,incomplete,18,number,0,right,Red_Star_Dots_2.jpg,Red_Plus_Chess_3.jpg,Purple_Circle_Grid_2.jpg,right,824,true,NA,true
hdhQZw3b,33ixyhizc8v0km0rv7j1cbq82t9e2g,3rwe2m8qwlnz528k0ln88unuvdr0nr,hdhQZw3b,2020-0188,2020-11-14,22:08:48,22:26:59,NA,incomplete,19,number,1,left,Purple_Star_Chess_3.jpg,Red_Circle_Stripes_3.jpg,Purple_Plus_Grid_1.jpg,left,602,true,NA,true
hdhQZw3b,33ixyhizc8v0km0rv7j1cbq82t9e2g,3rwe2m8qwlnz528k0ln88unuvdr0nr,hdhQZw3b,2020-0188,2020-11-14,22:08:48,22:26:59,NA,incomplete,20,color,1,right,Green_Star_Chess_2.jpg,Red_Plus_Stripes_2.jpg,Green_Circle_Grid_1.jpg,left,812,false,NA,true
hdhQZw3b,33ixyhizc8v0km0rv7j1cbq82t9e2g,3rwe2m8qwlnz528k0ln88unuvdr0nr,hdhQZw3b,2020-0188,2020-11-14,22:08:48,22:26:59,NA,incomplete,21,color,1,left,Blue_Star_Stripes_1.jpg,Blue_Circle_Dots_4.jpg,Green_Plus_Grid_1.jpg,right,631,false,NA,true
hdhQZw3b,33ixyhizc8v0km0rv7j1cbq82t9e2g,3rwe2m8qwlnz528k0ln88unuvdr0nr,hdhQZw3b,2020-0188,2020-11-14,22:08:48,22:26:59,NA,incomplete,22,color,1,left,Green_Circle_Grid_4.jpg,Green_Plus_Dots_2.jpg,Purple_Star_Stripes_4.jpg,right,715,false,NA,true
hdhQZw3b,33ixyhizc8v0km0rv7j1cbq82t9e2g,3rwe2m8qwlnz528k0ln88unuvdr0nr,hdhQZw3b,2020-0188,2020-11-14,22:08:48,22:26:59,NA,incomplete,23,color,1,right,Green_Circle_Dots_4.jpg,Blue_Star_Grid_4.jpg,Green_Triangle_Chess_2.jpg,right,1256,true,NA,true
hdhQZw3b,33ixyhizc8v0km0rv7j1cbq82t9e2g,3rwe2m8qwlnz528k0ln88unuvdr0nr,hdhQZw3b,2020-0188,2020-11-14,22:08:48,22:26:59,NA,incomplete,24,color,1,right,Red_Circle_Stripes_3.jpg,Purple_Triangle_Dots_3.jpg,Red_Star_Grid_2.jpg,right,776,true,NA,true
hdhQZw3b,33ixyhizc8v0km0rv7j1cbq82t9e2g,3rwe2m8qwlnz528k0ln88unuvdr0nr,hdhQZw3b,2020-0188,2020-11-14,22:08:48,22:26:59,NA,incomplete,25,color,1,left,Green_Circle_Dots_4.jpg,Green_Triangle_Grid_2.jpg,Red_Star_Stripes_4.jpg,left,961,true,NA,true
hdhQZw3b,33ixyhizc8v0km0rv7j1cbq82t9e2g,3rwe2m8qwlnz528k0ln88unuvdr0nr,hdhQZw3b,2020-0188,2020-11-14,22:08:48,22:26:59,NA,incomplete,26,color,1,left,Purple_Star_Stripes_4.jpg,Purple_Plus_Grid_1.jpg,Blue_Triangle_Dots_4.jpg,left,988,true,NA,true
hdhQZw3b,33ixyhizc8v0km0rv7j1cbq82t9e2g,3rwe2m8qwlnz528k0ln88unuvdr0nr,hdhQZw3b,2020-0188,2020-11-14,22:08:48,22:26:59,NA,incomplete,27,color,1,right,Purple_Star_Stripes_1.jpg,Blue_Triangle_Chess_1.jpg,Purple_Plus_Grid_4.jpg,right,799,true,NA,true
hdhQZw3b,33ixyhizc8v0km0rv7j1cbq82t9e2g,3rwe2m8qwlnz528k0ln88unuvdr0nr,hdhQZw3b,2020-0188,2020-11-14,22:08:48,22:26:59,NA,incomplete,28,color,1,right,Purple_Triangle_Stripes_2.jpg,Green_Circle_Chess_2.jpg,Purple_Star_Grid_3.jpg,right,679,true,NA,true
hdhQZw3b,33ixyhizc8v0km0rv7j1cbq82t9e2g,3rwe2m8qwlnz528k0ln88unuvdr0nr,hdhQZw3b,2020-0188,2020-11-14,22:08:48,22:26:59,NA,incomplete,29,color,1,left,Blue_Plus_Stripes_2.jpg,Blue_Circle_Grid_3.jpg,Green_Star_Chess_2.jpg,left,798,true,NA,true
hdhQZw3b,33ixyhizc8v0km0rv7j1cbq82t9e2g,3rwe2m8qwlnz528k0ln88unuvdr0nr,hdhQZw3b,2020-0188,2020-11-14,22:08:48,22:26:59,NA,incomplete,30,color,0,right,Green_Plus_Dots_4.jpg,Blue_Triangle_Chess_4.jpg,Green_Circle_Grid_3.jpg,right,603,true,NA,true
hdhQZw3b,33ixyhizc8v0km0rv7j1cbq82t9e2g,3rwe2m8qwlnz528k0ln88unuvdr0nr,hdhQZw3b,2020-0188,2020-11-14,22:08:48,22:26:59,NA,incomplete,31,color,1,right,Purple_Plus_Stripes_2.jpg,Green_Circle_Grid_2.jpg,Purple_Star_Dots_4.jpg,right,638,true,NA,true
hdhQZw3b,33ixyhizc8v0km0rv7j1cbq82t9e2g,3rwe2m8qwlnz528k0ln88unuvdr0nr,hdhQZw3b,2020-0188,2020-11-14,22:08:48,22:26:59,NA,incomplete,32,color,1,left,Purple_Circle_Chess_3.jpg,Purple_Star_Grid_1.jpg,Red_Triangle_Stripes_3.jpg,left,757,true,NA,true
hdhQZw3b,33ixyhizc8v0km0rv7j1cbq82t9e2g,3rwe2m8qwlnz528k0ln88unuvdr0nr,hdhQZw3b,2020-0188,2020-11-14,22:08:48,22:26:59,NA,incomplete,33,color,1,right,Green_Triangle_Stripes_1.jpg,Red_Circle_Chess_1.jpg,Green_Plus_Grid_2.jpg,right,601,true,NA,true
hdhQZw3b,33ixyhizc8v0km0rv7j1cbq82t9e2g,3rwe2m8qwlnz528k0ln88unuvdr0nr,hdhQZw3b,2020-0188,2020-11-14,22:08:48,22:26:59,NA,incomplete,34,color,1,left,Green_Circle_Chess_4.jpg,Green_Triangle_Dots_3.jpg,Blue_Star_Stripes_4.jpg,left,551,true,NA,true
hdhQZw3b,33ixyhizc8v0km0rv7j1cbq82t9e2g,3rwe2m8qwlnz528k0ln88unuvdr0nr,hdhQZw3b,2020-0188,2020-11-14,22:08:48,22:26:59,NA,incomplete,35,color,1,right,Blue_Star_Chess_1.jpg,Purple_Circle_Grid_1.jpg,Blue_Plus_Stripes_4.jpg,right,671,true,NA,true
hdhQZw3b,33ixyhizc8v0km0rv7j1cbq82t9e2g,3rwe2m8qwlnz528k0ln88unuvdr0nr,hdhQZw3b,2020-0188,2020-11-14,22:08:48,22:26:59,NA,incomplete,36,color,1,left,Purple_Star_Stripes_1.jpg,Purple_Triangle_Dots_4.jpg,Red_Circle_Grid_1.jpg,left,658,true,NA,true
hdhQZw3b,33ixyhizc8v0km0rv7j1cbq82t9e2g,3rwe2m8qwlnz528k0ln88unuvdr0nr,hdhQZw3b,2020-0188,2020-11-14,22:08:48,22:26:59,NA,incomplete,37,color,1,right,Purple_Star_Stripes_4.jpg,Blue_Circle_Dots_4.jpg,Purple_Triangle_Grid_1.jpg,right,639,true,NA,true
hdhQZw3b,33ixyhizc8v0km0rv7j1cbq82t9e2g,3rwe2m8qwlnz528k0ln88unuvdr0nr,hdhQZw3b,2020-0188,2020-11-14,22:08:48,22:26:59,NA,incomplete,38,color,0,left,Red_Circle_Chess_3.jpg,Red_Plus_Stripes_1.jpg,Purple_Star_Grid_3.jpg,left,641,true,NA,true
hdhQZw3b,33ixyhizc8v0km0rv7j1cbq82t9e2g,3rwe2m8qwlnz528k0ln88unuvdr0nr,hdhQZw3b,2020-0188,2020-11-14,22:08:48,22:26:59,NA,incomplete,39,color,1,right,Blue_Triangle_Dots_4.jpg,Red_Plus_Grid_4.jpg,Blue_Star_Chess_1.jpg,right,774,true,NA,true
hdhQZw3b,33ixyhizc8v0km0rv7j1cbq82t9e2g,3rwe2m8qwlnz528k0ln88unuvdr0nr,hdhQZw3b,2020-0188,2020-11-14,22:08:48,22:26:59,NA,incomplete,0,number,1,right,Purple_Circle_Chess_2.jpg,Purple_Star_Grid_3.jpg,Green_Plus_Stripes_2.jpg,left,919,false,low,false
hdhQZw3b,33ixyhizc8v0km0rv7j1cbq82t9e2g,3rwe2m8qwlnz528k0ln88unuvdr0nr,hdhQZw3b,2020-0188,2020-11-14,22:08:48,22:26:59,NA,incomplete,1,number,1,left,Red_Star_Stripes_4.jpg,Purple_Plus_Chess_4.jpg,Red_Triangle_Dots_2.jpg,right,1048,false,low,false
hdhQZw3b,33ixyhizc8v0km0rv7j1cbq82t9e2g,3rwe2m8qwlnz528k0ln88unuvdr0nr,hdhQZw3b,2020-0188,2020-11-14,22:08:48,22:26:59,NA,incomplete,2,number,0,left,Blue_Triangle_Dots_3.jpg,Red_Plus_Chess_3.jpg,Blue_Star_Grid_2.jpg,right,949,false,low,false
hdhQZw3b,33ixyhizc8v0km0rv7j1cbq82t9e2g,3rwe2m8qwlnz528k0ln88unuvdr0nr,hdhQZw3b,2020-0188,2020-11-14,22:08:48,22:26:59,NA,incomplete,3,number,1,right,Purple_Star_Stripes_2.jpg,Purple_Triangle_Chess_3.jpg,Green_Plus_Dots_2.jpg,left,652,false,low,false
hdhQZw3b,33ixyhizc8v0km0rv7j1cbq82t9e2g,3rwe2m8qwlnz528k0ln88unuvdr0nr,hdhQZw3b,2020-0188,2020-11-14,22:08:48,22:26:59,NA,incomplete,4,number,0,left,Red_Plus_Grid_3.jpg,Green_Star_Stripes_3.jpg,Red_Circle_Chess_4.jpg,left,1060,true,low,false
hdhQZw3b,33ixyhizc8v0km0rv7j1cbq82t9e2g,3rwe2m8qwlnz528k0ln88unuvdr0nr,hdhQZw3b,2020-0188,2020-11-14,22:08:48,22:26:59,NA,incomplete,5,number,1,right,Blue_Circle_Dots_1.jpg,Blue_Star_Grid_2.jpg,Red_Triangle_Chess_1.jpg,left,673,false,low,false
hdhQZw3b,33ixyhizc8v0km0rv7j1cbq82t9e2g,3rwe2m8qwlnz528k0ln88unuvdr0nr,hdhQZw3b,2020-0188,2020-11-14,22:08:48,22:26:59,NA,incomplete,6,number,1,right,Red_Circle_Stripes_2.jpg,Red_Triangle_Dots_3.jpg,Green_Plus_Grid_2.jpg,left,667,false,low,false
hdhQZw3b,33ixyhizc8v0km0rv7j1cbq82t9e2g,3rwe2m8qwlnz528k0ln88unuvdr0nr,hdhQZw3b,2020-0188,2020-11-14,22:08:48,22:26:59,NA,incomplete,7,number,0,left,Purple_Star_Chess_3.jpg,Green_Triangle_Grid_3.jpg,Purple_Circle_Stripes_4.jpg,left,1157,true,low,false
hdhQZw3b,33ixyhizc8v0km0rv7j1cbq82t9e2g,3rwe2m8qwlnz528k0ln88unuvdr0nr,hdhQZw3b,2020-0188,2020-11-14,22:08:48,22:26:59,NA,incomplete,8,number,1,left,Red_Circle_Stripes_2.jpg,Purple_Plus_Chess_2.jpg,Red_Star_Grid_1.jpg,right,1493,false,low,false
hdhQZw3b,33ixyhizc8v0km0rv7j1cbq82t9e2g,3rwe2m8qwlnz528k0ln88unuvdr0nr,hdhQZw3b,2020-0188,2020-11-14,22:08:48,22:26:59,NA,incomplete,9,number,1,right,Green_Plus_Chess_3.jpg,Green_Circle_Grid_4.jpg,Blue_Triangle_Stripes_3.jpg,left,1461,false,low,false
hdhQZw3b,33ixyhizc8v0km0rv7j1cbq82t9e2g,3rwe2m8qwlnz528k0ln88unuvdr0nr,hdhQZw3b,2020-0188,2020-11-14,22:08:48,22:26:59,NA,incomplete,10,number,1,right,Blue_Star_Dots_1.jpg,Blue_Circle_Stripes_3.jpg,Red_Triangle_Grid_1.jpg,right,929,true,low,false
hdhQZw3b,33ixyhizc8v0km0rv7j1cbq82t9e2g,3rwe2m8qwlnz528k0ln88unuvdr0nr,hdhQZw3b,2020-0188,2020-11-14,22:08:48,22:26:59,NA,incomplete,11,number,1,left,Green_Star_Chess_4.jpg,Red_Plus_Dots_4.jpg,Green_Circle_Stripes_2.jpg,left,1149,true,low,false
hdhQZw3b,33ixyhizc8v0km0rv7j1cbq82t9e2g,3rwe2m8qwlnz528k0ln88unuvdr0nr,hdhQZw3b,2020-0188,2020-11-14,22:08:48,22:26:59,NA,incomplete,12,number,0,right,Red_Triangle_Grid_4.jpg,Red_Circle_Chess_1.jpg,Purple_Plus_Dots_4.jpg,right,664,true,low,false
hdhQZw3b,33ixyhizc8v0km0rv7j1cbq82t9e2g,3rwe2m8qwlnz528k0ln88unuvdr0nr,hdhQZw3b,2020-0188,2020-11-14,22:08:48,22:26:59,NA,incomplete,13,number,1,right,Purple_Star_Dots_2.jpg,Purple_Circle_Grid_1.jpg,Green_Plus_Stripes_2.jpg,right,897,true,low,false
hdhQZw3b,33ixyhizc8v0km0rv7j1cbq82t9e2g,3rwe2m8qwlnz528k0ln88unuvdr0nr,hdhQZw3b,2020-0188,2020-11-14,22:08:48,22:26:59,NA,incomplete,14,number,1,right,Red_Circle_Chess_2.jpg,Red_Triangle_Grid_1.jpg,Green_Plus_Stripes_2.jpg,right,657,true,low,false
hdhQZw3b,33ixyhizc8v0km0rv7j1cbq82t9e2g,3rwe2m8qwlnz528k0ln88unuvdr0nr,hdhQZw3b,2020-0188,2020-11-14,22:08:48,22:26:59,NA,incomplete,15,number,1,right,Red_Circle_Dots_3.jpg,Red_Plus_Grid_4.jpg,Purple_Star_Stripes_3.jpg,right,872,true,low,false
hdhQZw3b,33ixyhizc8v0km0rv7j1cbq82t9e2g,3rwe2m8qwlnz528k0ln88unuvdr0nr,hdhQZw3b,2020-0188,2020-11-14,22:08:48,22:26:59,NA,incomplete,16,number,1,left,Blue_Plus_Grid_1.jpg,Red_Circle_Chess_1.jpg,Blue_Star_Stripes_2.jpg,left,739,true,low,false
hdhQZw3b,33ixyhizc8v0km0rv7j1cbq82t9e2g,3rwe2m8qwlnz528k0ln88unuvdr0nr,hdhQZw3b,2020-0188,2020-11-14,22:08:48,22:26:59,NA,incomplete,17,number,1,left,Blue_Triangle_Stripes_2.jpg,Green_Circle_Chess_2.jpg,Blue_Plus_Dots_1.jpg,left,663,true,low,false
hdhQZw3b,33ixyhizc8v0km0rv7j1cbq82t9e2g,3rwe2m8qwlnz528k0ln88unuvdr0nr,hdhQZw3b,2020-0188,2020-11-14,22:08:48,22:26:59,NA,incomplete,18,number,1,right,Blue_Circle_Dots_2.jpg,Blue_Plus_Stripes_3.jpg,Green_Triangle_Chess_2.jpg,right,786,true,low,false
hdhQZw3b,33ixyhizc8v0km0rv7j1cbq82t9e2g,3rwe2m8qwlnz528k0ln88unuvdr0nr,hdhQZw3b,2020-0188,2020-11-14,22:08:48,22:26:59,NA,incomplete,19,number,1,left,Blue_Circle_Grid_4.jpg,Green_Star_Stripes_4.jpg,Blue_Triangle_Dots_2.jpg,left,652,true,low,false
hdhQZw3b,33ixyhizc8v0km0rv7j1cbq82t9e2g,3rwe2m8qwlnz528k0ln88unuvdr0nr,hdhQZw3b,2020-0188,2020-11-14,22:08:48,22:26:59,NA,incomplete,20,number,1,left,Green_Circle_Grid_3.jpg,Blue_Triangle_Stripes_3.jpg,Green_Star_Chess_2.jpg,left,700,true,low,false
hdhQZw3b,33ixyhizc8v0km0rv7j1cbq82t9e2g,3rwe2m8qwlnz528k0ln88unuvdr0nr,hdhQZw3b,2020-0188,2020-11-14,22:08:48,22:26:59,NA,incomplete,21,number,1,right,Blue_Triangle_Stripes_3.jpg,Blue_Circle_Dots_1.jpg,Purple_Plus_Grid_3.jpg,right,551,true,low,false
hdhQZw3b,33ixyhizc8v0km0rv7j1cbq82t9e2g,3rwe2m8qwlnz528k0ln88unuvdr0nr,hdhQZw3b,2020-0188,2020-11-14,22:08:48,22:26:59,NA,incomplete,22,number,1,left,Red_Circle_Chess_1.jpg,Blue_Triangle_Stripes_1.jpg,Red_Star_Grid_2.jpg,left,704,true,low,false
hdhQZw3b,33ixyhizc8v0km0rv7j1cbq82t9e2g,3rwe2m8qwlnz528k0ln88unuvdr0nr,hdhQZw3b,2020-0188,2020-11-14,22:08:48,22:26:59,NA,incomplete,23,number,1,left,Blue_Triangle_Chess_3.jpg,Purple_Star_Dots_3.jpg,Blue_Circle_Grid_4.jpg,left,709,true,low,false
hdhQZw3b,33ixyhizc8v0km0rv7j1cbq82t9e2g,3rwe2m8qwlnz528k0ln88unuvdr0nr,hdhQZw3b,2020-0188,2020-11-14,22:08:48,22:26:59,NA,incomplete,24,number,1,right,Purple_Plus_Stripes_4.jpg,Purple_Star_Dots_2.jpg,Blue_Circle_Chess_4.jpg,right,711,true,low,false
hdhQZw3b,33ixyhizc8v0km0rv7j1cbq82t9e2g,3rwe2m8qwlnz528k0ln88unuvdr0nr,hdhQZw3b,2020-0188,2020-11-14,22:08:48,22:26:59,NA,incomplete,25,number,1,left,Green_Star_Chess_4.jpg,Red_Plus_Dots_4.jpg,Green_Triangle_Stripes_1.jpg,left,566,true,low,false
hdhQZw3b,33ixyhizc8v0km0rv7j1cbq82t9e2g,3rwe2m8qwlnz528k0ln88unuvdr0nr,hdhQZw3b,2020-0188,2020-11-14,22:08:48,22:26:59,NA,incomplete,26,number,1,left,Red_Plus_Stripes_2.jpg,Green_Star_Dots_2.jpg,Red_Circle_Grid_1.jpg,left,706,true,low,false
hdhQZw3b,33ixyhizc8v0km0rv7j1cbq82t9e2g,3rwe2m8qwlnz528k0ln88unuvdr0nr,hdhQZw3b,2020-0188,2020-11-14,22:08:48,22:26:59,NA,incomplete,27,number,0,right,Red_Star_Stripes_4.jpg,Red_Triangle_Chess_1.jpg,Purple_Circle_Grid_4.jpg,right,528,true,low,false
hdhQZw3b,33ixyhizc8v0km0rv7j1cbq82t9e2g,3rwe2m8qwlnz528k0ln88unuvdr0nr,hdhQZw3b,2020-0188,2020-11-14,22:08:48,22:26:59,NA,incomplete,28,number,1,left,Purple_Plus_Chess_1.jpg,Blue_Triangle_Stripes_1.jpg,Purple_Circle_Grid_2.jpg,left,1021,true,low,false
hdhQZw3b,33ixyhizc8v0km0rv7j1cbq82t9e2g,3rwe2m8qwlnz528k0ln88unuvdr0nr,hdhQZw3b,2020-0188,2020-11-14,22:08:48,22:26:59,NA,incomplete,29,number,1,left,Purple_Star_Stripes_3.jpg,Red_Triangle_Dots_3.jpg,Purple_Circle_Grid_1.jpg,left,537,true,low,false
hdhQZw3b,33ixyhizc8v0km0rv7j1cbq82t9e2g,3rwe2m8qwlnz528k0ln88unuvdr0nr,hdhQZw3b,2020-0188,2020-11-14,22:08:48,22:26:59,NA,incomplete,30,color,1,right,Blue_Plus_Grid_2.jpg,Purple_Star_Dots_2.jpg,Blue_Triangle_Chess_3.jpg,left,788,false,low,false
hdhQZw3b,33ixyhizc8v0km0rv7j1cbq82t9e2g,3rwe2m8qwlnz528k0ln88unuvdr0nr,hdhQZw3b,2020-0188,2020-11-14,22:08:48,22:26:59,NA,incomplete,31,color,1,right,Blue_Circle_Dots_1.jpg,Red_Plus_Chess_1.jpg,Blue_Star_Stripes_4.jpg,left,775,false,low,false
hdhQZw3b,33ixyhizc8v0km0rv7j1cbq82t9e2g,3rwe2m8qwlnz528k0ln88unuvdr0nr,hdhQZw3b,2020-0188,2020-11-14,22:08:48,22:26:59,NA,incomplete,32,color,1,left,Red_Plus_Stripes_1.jpg,Red_Triangle_Grid_2.jpg,Purple_Star_Chess_1.jpg,right,898,false,low,false
hdhQZw3b,33ixyhizc8v0km0rv7j1cbq82t9e2g,3rwe2m8qwlnz528k0ln88unuvdr0nr,hdhQZw3b,2020-0188,2020-11-14,22:08:48,22:26:59,NA,incomplete,33,color,0,left,Green_Circle_Grid_2.jpg,Green_Star_Dots_3.jpg,Blue_Plus_Chess_2.jpg,right,1153,false,low,false
hdhQZw3b,33ixyhizc8v0km0rv7j1cbq82t9e2g,3rwe2m8qwlnz528k0ln88unuvdr0nr,hdhQZw3b,2020-0188,2020-11-14,22:08:48,22:26:59,NA,incomplete,34,color,0,right,Red_Triangle_Grid_3.jpg,Purple_Circle_Chess_3.jpg,Red_Star_Dots_2.jpg,left,798,false,low,false
hdhQZw3b,33ixyhizc8v0km0rv7j1cbq82t9e2g,3rwe2m8qwlnz528k0ln88unuvdr0nr,hdhQZw3b,2020-0188,2020-11-14,22:08:48,22:26:59,NA,incomplete,35,color,1,left,Green_Star_Chess_4.jpg,Green_Plus_Grid_3.jpg,Blue_Circle_Dots_4.jpg,left,668,true,low,false
hdhQZw3b,33ixyhizc8v0km0rv7j1cbq82t9e2g,3rwe2m8qwlnz528k0ln88unuvdr0nr,hdhQZw3b,2020-0188,2020-11-14,22:08:48,22:26:59,NA,incomplete,36,color,1,left,Purple_Triangle_Dots_1.jpg,Purple_Circle_Chess_3.jpg,Red_Plus_Grid_1.jpg,right,727,false,low,false
hdhQZw3b,33ixyhizc8v0km0rv7j1cbq82t9e2g,3rwe2m8qwlnz528k0ln88unuvdr0nr,hdhQZw3b,2020-0188,2020-11-14,22:08:48,22:26:59,NA,incomplete,37,color,1,left,Blue_Circle_Dots_2.jpg,Blue_Triangle_Grid_3.jpg,Red_Star_Chess_2.jpg,left,1061,true,low,false
hdhQZw3b,33ixyhizc8v0km0rv7j1cbq82t9e2g,3rwe2m8qwlnz528k0ln88unuvdr0nr,hdhQZw3b,2020-0188,2020-11-14,22:08:48,22:26:59,NA,incomplete,38,color,1,right,Blue_Star_Stripes_1.jpg,Green_Triangle_Dots_1.jpg,Blue_Plus_Grid_3.jpg,right,572,true,low,false
hdhQZw3b,33ixyhizc8v0km0rv7j1cbq82t9e2g,3rwe2m8qwlnz528k0ln88unuvdr0nr,hdhQZw3b,2020-0188,2020-11-14,22:08:48,22:26:59,NA,incomplete,39,color,1,right,Red_Circle_Chess_4.jpg,Blue_Plus_Dots_4.jpg,Red_Triangle_Grid_3.jpg,right,713,true,low,false
hdhQZw3b,33ixyhizc8v0km0rv7j1cbq82t9e2g,3rwe2m8qwlnz528k0ln88unuvdr0nr,hdhQZw3b,2020-0188,2020-11-14,22:08:48,22:26:59,NA,incomplete,40,color,1,right,Red_Plus_Grid_4.jpg,Purple_Star_Dots_4.jpg,Red_Circle_Chess_1.jpg,right,728,true,low,false
hdhQZw3b,33ixyhizc8v0km0rv7j1cbq82t9e2g,3rwe2m8qwlnz528k0ln88unuvdr0nr,hdhQZw3b,2020-0188,2020-11-14,22:08:48,22:26:59,NA,incomplete,41,color,1,left,Blue_Plus_Stripes_4.jpg,Blue_Circle_Grid_3.jpg,Purple_Star_Dots_4.jpg,left,782,true,low,false
hdhQZw3b,33ixyhizc8v0km0rv7j1cbq82t9e2g,3rwe2m8qwlnz528k0ln88unuvdr0nr,hdhQZw3b,2020-0188,2020-11-14,22:08:48,22:26:59,NA,incomplete,42,color,1,right,Green_Star_Dots_2.jpg,Red_Triangle_Grid_2.jpg,Green_Circle_Chess_1.jpg,right,545,true,low,false
hdhQZw3b,33ixyhizc8v0km0rv7j1cbq82t9e2g,3rwe2m8qwlnz528k0ln88unuvdr0nr,hdhQZw3b,2020-0188,2020-11-14,22:08:48,22:26:59,NA,incomplete,43,color,1,left,Green_Triangle_Dots_3.jpg,Green_Plus_Grid_4.jpg,Purple_Star_Chess_3.jpg,left,472,true,low,false
hdhQZw3b,33ixyhizc8v0km0rv7j1cbq82t9e2g,3rwe2m8qwlnz528k0ln88unuvdr0nr,hdhQZw3b,2020-0188,2020-11-14,22:08:48,22:26:59,NA,incomplete,44,color,1,right,Red_Plus_Dots_4.jpg,Blue_Circle_Stripes_4.jpg,Red_Star_Chess_2.jpg,right,707,true,low,false
hdhQZw3b,33ixyhizc8v0km0rv7j1cbq82t9e2g,3rwe2m8qwlnz528k0ln88unuvdr0nr,hdhQZw3b,2020-0188,2020-11-14,22:08:48,22:26:59,NA,incomplete,45,color,1,right,Purple_Star_Chess_4.jpg,Green_Circle_Stripes_4.jpg,Purple_Plus_Grid_3.jpg,right,652,true,low,false
hdhQZw3b,33ixyhizc8v0km0rv7j1cbq82t9e2g,3rwe2m8qwlnz528k0ln88unuvdr0nr,hdhQZw3b,2020-0188,2020-11-14,22:08:48,22:26:59,NA,incomplete,46,color,1,right,Red_Star_Chess_2.jpg,Green_Plus_Grid_2.jpg,Red_Circle_Stripes_4.jpg,right,518,true,low,false
hdhQZw3b,33ixyhizc8v0km0rv7j1cbq82t9e2g,3rwe2m8qwlnz528k0ln88unuvdr0nr,hdhQZw3b,2020-0188,2020-11-14,22:08:48,22:26:59,NA,incomplete,47,color,1,left,Purple_Plus_Stripes_2.jpg,Purple_Star_Dots_3.jpg,Red_Circle_Chess_2.jpg,left,633,true,low,false
hdhQZw3b,33ixyhizc8v0km0rv7j1cbq82t9e2g,3rwe2m8qwlnz528k0ln88unuvdr0nr,hdhQZw3b,2020-0188,2020-11-14,22:08:48,22:26:59,NA,incomplete,48,color,1,right,Purple_Star_Dots_1.jpg,Green_Triangle_Grid_1.jpg,Purple_Circle_Stripes_2.jpg,right,517,true,low,false
hdhQZw3b,33ixyhizc8v0km0rv7j1cbq82t9e2g,3rwe2m8qwlnz528k0ln88unuvdr0nr,hdhQZw3b,2020-0188,2020-11-14,22:08:48,22:26:59,NA,incomplete,49,color,1,right,Red_Star_Dots_3.jpg,Blue_Plus_Grid_3.jpg,Red_Triangle_Chess_1.jpg,right,1019,true,low,false
hdhQZw3b,33ixyhizc8v0km0rv7j1cbq82t9e2g,3rwe2m8qwlnz528k0ln88unuvdr0nr,hdhQZw3b,2020-0188,2020-11-14,22:08:48,22:26:59,NA,incomplete,50,color,1,right,Green_Star_Grid_2.jpg,Blue_Circle_Stripes_2.jpg,Green_Triangle_Chess_3.jpg,right,451,true,low,false
hdhQZw3b,33ixyhizc8v0km0rv7j1cbq82t9e2g,3rwe2m8qwlnz528k0ln88unuvdr0nr,hdhQZw3b,2020-0188,2020-11-14,22:08:48,22:26:59,NA,incomplete,51,color,0,left,Green_Circle_Stripes_3.jpg,Green_Star_Grid_1.jpg,Red_Triangle_Dots_3.jpg,left,467,true,low,false
hdhQZw3b,33ixyhizc8v0km0rv7j1cbq82t9e2g,3rwe2m8qwlnz528k0ln88unuvdr0nr,hdhQZw3b,2020-0188,2020-11-14,22:08:48,22:26:59,NA,incomplete,52,color,1,right,Blue_Plus_Dots_1.jpg,Purple_Star_Grid_1.jpg,Blue_Triangle_Stripes_2.jpg,right,438,true,low,false
hdhQZw3b,33ixyhizc8v0km0rv7j1cbq82t9e2g,3rwe2m8qwlnz528k0ln88unuvdr0nr,hdhQZw3b,2020-0188,2020-11-14,22:08:48,22:26:59,NA,incomplete,53,color,1,right,Blue_Plus_Stripes_1.jpg,Purple_Star_Chess_1.jpg,Blue_Triangle_Grid_2.jpg,right,476,true,low,false
hdhQZw3b,33ixyhizc8v0km0rv7j1cbq82t9e2g,3rwe2m8qwlnz528k0ln88unuvdr0nr,hdhQZw3b,2020-0188,2020-11-14,22:08:48,22:26:59,NA,incomplete,54,color,1,right,Blue_Triangle_Stripes_4.jpg,Green_Plus_Chess_4.jpg,Blue_Star_Grid_1.jpg,right,635,true,low,false
hdhQZw3b,33ixyhizc8v0km0rv7j1cbq82t9e2g,3rwe2m8qwlnz528k0ln88unuvdr0nr,hdhQZw3b,2020-0188,2020-11-14,22:08:48,22:26:59,NA,incomplete,55,color,0,left,Red_Circle_Chess_1.jpg,Red_Star_Grid_4.jpg,Blue_Triangle_Stripes_1.jpg,right,429,false,low,false
hdhQZw3b,33ixyhizc8v0km0rv7j1cbq82t9e2g,3rwe2m8qwlnz528k0ln88unuvdr0nr,hdhQZw3b,2020-0188,2020-11-14,22:08:48,22:26:59,NA,incomplete,56,color,1,left,Red_Plus_Chess_4.jpg,Red_Triangle_Dots_1.jpg,Green_Circle_Stripes_4.jpg,left,1051,true,low,false
hdhQZw3b,33ixyhizc8v0km0rv7j1cbq82t9e2g,3rwe2m8qwlnz528k0ln88unuvdr0nr,hdhQZw3b,2020-0188,2020-11-14,22:08:48,22:26:59,NA,incomplete,57,color,1,left,Blue_Star_Chess_2.jpg,Blue_Circle_Stripes_1.jpg,Purple_Plus_Grid_2.jpg,left,1335,true,low,false
hdhQZw3b,33ixyhizc8v0km0rv7j1cbq82t9e2g,3rwe2m8qwlnz528k0ln88unuvdr0nr,hdhQZw3b,2020-0188,2020-11-14,22:08:48,22:26:59,NA,incomplete,58,color,1,left,Blue_Star_Chess_3.jpg,Blue_Plus_Grid_4.jpg,Red_Triangle_Stripes_3.jpg,left,1023,true,low,false
hdhQZw3b,33ixyhizc8v0km0rv7j1cbq82t9e2g,3rwe2m8qwlnz528k0ln88unuvdr0nr,hdhQZw3b,2020-0188,2020-11-14,22:08:48,22:26:59,NA,incomplete,59,color,0,left,Blue_Triangle_Dots_2.jpg,Blue_Circle_Chess_1.jpg,Green_Plus_Stripes_2.jpg,left,480,true,low,false
hdhQZw3b,33ixyhizc8v0km0rv7j1cbq82t9e2g,3rwe2m8qwlnz528k0ln88unuvdr0nr,hdhQZw3b,2020-0188,2020-11-14,22:08:48,22:26:59,NA,incomplete,60,number,1,right,Red_Triangle_Dots_4.jpg,Red_Circle_Stripes_2.jpg,Purple_Plus_Grid_4.jpg,left,503,false,low,false
hdhQZw3b,33ixyhizc8v0km0rv7j1cbq82t9e2g,3rwe2m8qwlnz528k0ln88unuvdr0nr,hdhQZw3b,2020-0188,2020-11-14,22:08:48,22:26:59,NA,incomplete,61,number,1,left,Purple_Triangle_Chess_3.jpg,Green_Plus_Grid_3.jpg,Purple_Circle_Stripes_1.jpg,right,584,false,low,false
hdhQZw3b,33ixyhizc8v0km0rv7j1cbq82t9e2g,3rwe2m8qwlnz528k0ln88unuvdr0nr,hdhQZw3b,2020-0188,2020-11-14,22:08:48,22:26:59,NA,incomplete,62,number,1,right,Green_Triangle_Chess_3.jpg,Green_Plus_Grid_1.jpg,Purple_Star_Dots_3.jpg,left,859,false,low,false
hdhQZw3b,33ixyhizc8v0km0rv7j1cbq82t9e2g,3rwe2m8qwlnz528k0ln88unuvdr0nr,hdhQZw3b,2020-0188,2020-11-14,22:08:48,22:26:59,NA,incomplete,63,number,0,left,Red_Triangle_Dots_2.jpg,Green_Plus_Grid_2.jpg,Red_Star_Stripes_4.jpg,left,939,true,low,false
hdhQZw3b,33ixyhizc8v0km0rv7j1cbq82t9e2g,3rwe2m8qwlnz528k0ln88unuvdr0nr,hdhQZw3b,2020-0188,2020-11-14,22:08:48,22:26:59,NA,incomplete,64,number,1,right,Green_Star_Chess_4.jpg,Green_Circle_Dots_1.jpg,Purple_Plus_Stripes_4.jpg,left,932,false,low,false
hdhQZw3b,33ixyhizc8v0km0rv7j1cbq82t9e2g,3rwe2m8qwlnz528k0ln88unuvdr0nr,hdhQZw3b,2020-0188,2020-11-14,22:08:48,22:26:59,NA,incomplete,65,number,0,left,Green_Circle_Stripes_1.jpg,Red_Star_Grid_1.jpg,Green_Plus_Chess_2.jpg,right,720,false,low,false
hdhQZw3b,33ixyhizc8v0km0rv7j1cbq82t9e2g,3rwe2m8qwlnz528k0ln88unuvdr0nr,hdhQZw3b,2020-0188,2020-11-14,22:08:48,22:26:59,NA,incomplete,66,number,1,left,Green_Circle_Chess_2.jpg,Blue_Plus_Dots_2.jpg,Green_Star_Stripes_3.jpg,right,570,false,low,false
hdhQZw3b,33ixyhizc8v0km0rv7j1cbq82t9e2g,3rwe2m8qwlnz528k0ln88unuvdr0nr,hdhQZw3b,2020-0188,2020-11-14,22:08:48,22:26:59,NA,incomplete,67,number,1,left,Green_Triangle_Dots_2.jpg,Red_Circle_Chess_2.jpg,Green_Plus_Stripes_3.jpg,right,548,false,low,false
hdhQZw3b,33ixyhizc8v0km0rv7j1cbq82t9e2g,3rwe2m8qwlnz528k0ln88unuvdr0nr,hdhQZw3b,2020-0188,2020-11-14,22:08:48,22:26:59,NA,incomplete,68,number,1,left,Purple_Triangle_Chess_3.jpg,Red_Circle_Stripes_3.jpg,Purple_Plus_Grid_4.jpg,right,646,false,low,false
hdhQZw3b,33ixyhizc8v0km0rv7j1cbq82t9e2g,3rwe2m8qwlnz528k0ln88unuvdr0nr,hdhQZw3b,2020-0188,2020-11-14,22:08:48,22:26:59,NA,incomplete,69,number,1,right,Red_Circle_Dots_2.jpg,Red_Star_Grid_1.jpg,Green_Plus_Chess_2.jpg,right,1175,true,low,false
hdhQZw3b,33ixyhizc8v0km0rv7j1cbq82t9e2g,3rwe2m8qwlnz528k0ln88unuvdr0nr,hdhQZw3b,2020-0188,2020-11-14,22:08:48,22:26:59,NA,incomplete,70,number,1,left,Green_Circle_Chess_2.jpg,Red_Plus_Grid_2.jpg,Green_Triangle_Stripes_3.jpg,left,748,true,low,false
hdhQZw3b,33ixyhizc8v0km0rv7j1cbq82t9e2g,3rwe2m8qwlnz528k0ln88unuvdr0nr,hdhQZw3b,2020-0188,2020-11-14,22:08:48,22:26:59,NA,incomplete,71,number,1,right,Red_Circle_Stripes_4.jpg,Red_Plus_Grid_1.jpg,Purple_Star_Chess_4.jpg,right,807,true,low,false
hdhQZw3b,33ixyhizc8v0km0rv7j1cbq82t9e2g,3rwe2m8qwlnz528k0ln88unuvdr0nr,hdhQZw3b,2020-0188,2020-11-14,22:08:48,22:26:59,NA,incomplete,72,number,1,left,Red_Star_Stripes_4.jpg,Blue_Triangle_Chess_4.jpg,Red_Circle_Grid_2.jpg,left,567,true,low,false
hdhQZw3b,33ixyhizc8v0km0rv7j1cbq82t9e2g,3rwe2m8qwlnz528k0ln88unuvdr0nr,hdhQZw3b,2020-0188,2020-11-14,22:08:48,22:26:59,NA,incomplete,73,number,1,left,Purple_Circle_Stripes_1.jpg,Red_Plus_Chess_1.jpg,Purple_Star_Dots_2.jpg,left,726,true,low,false
hdhQZw3b,33ixyhizc8v0km0rv7j1cbq82t9e2g,3rwe2m8qwlnz528k0ln88unuvdr0nr,hdhQZw3b,2020-0188,2020-11-14,22:08:48,22:26:59,NA,incomplete,74,number,0,right,Red_Circle_Stripes_3.jpg,Red_Star_Grid_2.jpg,Blue_Plus_Chess_3.jpg,right,694,true,low,false
hdhQZw3b,33ixyhizc8v0km0rv7j1cbq82t9e2g,3rwe2m8qwlnz528k0ln88unuvdr0nr,hdhQZw3b,2020-0188,2020-11-14,22:08:48,22:26:59,NA,incomplete,75,number,0,right,Purple_Triangle_Stripes_4.jpg,Purple_Circle_Chess_3.jpg,Green_Plus_Grid_4.jpg,right,813,true,low,false
hdhQZw3b,33ixyhizc8v0km0rv7j1cbq82t9e2g,3rwe2m8qwlnz528k0ln88unuvdr0nr,hdhQZw3b,2020-0188,2020-11-14,22:08:48,22:26:59,NA,incomplete,76,number,0,right,Purple_Plus_Dots_1.jpg,Purple_Circle_Chess_3.jpg,Green_Triangle_Stripes_1.jpg,left,1077,false,low,false
hdhQZw3b,33ixyhizc8v0km0rv7j1cbq82t9e2g,3rwe2m8qwlnz528k0ln88unuvdr0nr,hdhQZw3b,2020-0188,2020-11-14,22:08:48,22:26:59,NA,incomplete,77,number,1,left,Red_Star_Dots_1.jpg,Purple_Plus_Grid_1.jpg,Red_Circle_Stripes_4.jpg,right,740,false,low,false
hdhQZw3b,33ixyhizc8v0km0rv7j1cbq82t9e2g,3rwe2m8qwlnz528k0ln88unuvdr0nr,hdhQZw3b,2020-0188,2020-11-14,22:08:48,22:26:59,NA,incomplete,78,number,1,right,Purple_Circle_Grid_3.jpg,Purple_Plus_Dots_2.jpg,Blue_Triangle_Chess_3.jpg,left,1018,false,low,false
hdhQZw3b,33ixyhizc8v0km0rv7j1cbq82t9e2g,3rwe2m8qwlnz528k0ln88unuvdr0nr,hdhQZw3b,2020-0188,2020-11-14,22:08:48,22:26:59,NA,incomplete,79,number,1,left,Blue_Plus_Grid_4.jpg,Red_Star_Dots_4.jpg,Blue_Triangle_Chess_1.jpg,right,1266,false,low,false
hdhQZw3b,33ixyhizc8v0km0rv7j1cbq82t9e2g,3rwe2m8qwlnz528k0ln88unuvdr0nr,hdhQZw3b,2020-0188,2020-11-14,22:08:48,22:26:59,NA,incomplete,80,number,1,right,Red_Star_Grid_3.jpg,Red_Plus_Chess_1.jpg,Blue_Circle_Stripes_3.jpg,right,1010,true,low,false
hdhQZw3b,33ixyhizc8v0km0rv7j1cbq82t9e2g,3rwe2m8qwlnz528k0ln88unuvdr0nr,hdhQZw3b,2020-0188,2020-11-14,22:08:48,22:26:59,NA,incomplete,81,number,1,right,Blue_Circle_Chess_2.jpg,Blue_Triangle_Stripes_1.jpg,Purple_Plus_Dots_2.jpg,right,764,true,low,false
hdhQZw3b,33ixyhizc8v0km0rv7j1cbq82t9e2g,3rwe2m8qwlnz528k0ln88unuvdr0nr,hdhQZw3b,2020-0188,2020-11-14,22:08:48,22:26:59,NA,incomplete,82,number,1,right,Purple_Circle_Stripes_1.jpg,Purple_Star_Chess_2.jpg,Green_Triangle_Grid_1.jpg,right,733,true,low,false
hdhQZw3b,33ixyhizc8v0km0rv7j1cbq82t9e2g,3rwe2m8qwlnz528k0ln88unuvdr0nr,hdhQZw3b,2020-0188,2020-11-14,22:08:48,22:26:59,NA,incomplete,83,number,1,right,Red_Circle_Stripes_2.jpg,Red_Triangle_Chess_1.jpg,Blue_Plus_Grid_2.jpg,right,744,true,low,false
hdhQZw3b,33ixyhizc8v0km0rv7j1cbq82t9e2g,3rwe2m8qwlnz528k0ln88unuvdr0nr,hdhQZw3b,2020-0188,2020-11-14,22:08:48,22:26:59,NA,incomplete,84,number,1,right,Blue_Triangle_Chess_4.jpg,Blue_Circle_Stripes_3.jpg,Purple_Plus_Grid_4.jpg,right,836,true,low,false
hdhQZw3b,33ixyhizc8v0km0rv7j1cbq82t9e2g,3rwe2m8qwlnz528k0ln88unuvdr0nr,hdhQZw3b,2020-0188,2020-11-14,22:08:48,22:26:59,NA,incomplete,85,number,1,left,Purple_Star_Stripes_4.jpg,Green_Plus_Dots_4.jpg,Purple_Triangle_Chess_2.jpg,left,749,true,low,false
hdhQZw3b,33ixyhizc8v0km0rv7j1cbq82t9e2g,3rwe2m8qwlnz528k0ln88unuvdr0nr,hdhQZw3b,2020-0188,2020-11-14,22:08:48,22:26:59,NA,incomplete,86,number,1,right,Purple_Triangle_Grid_4.jpg,Purple_Star_Chess_1.jpg,Blue_Plus_Dots_4.jpg,right,668,true,low,false
hdhQZw3b,33ixyhizc8v0km0rv7j1cbq82t9e2g,3rwe2m8qwlnz528k0ln88unuvdr0nr,hdhQZw3b,2020-0188,2020-11-14,22:08:48,22:26:59,NA,incomplete,87,number,1,right,Purple_Star_Chess_2.jpg,Purple_Circle_Stripes_3.jpg,Green_Triangle_Grid_2.jpg,right,693,true,low,false
hdhQZw3b,33ixyhizc8v0km0rv7j1cbq82t9e2g,3rwe2m8qwlnz528k0ln88unuvdr0nr,hdhQZw3b,2020-0188,2020-11-14,22:08:48,22:26:59,NA,incomplete,88,number,1,left,Red_Star_Dots_2.jpg,Purple_Circle_Chess_2.jpg,Red_Plus_Grid_3.jpg,left,772,true,low,false
hdhQZw3b,33ixyhizc8v0km0rv7j1cbq82t9e2g,3rwe2m8qwlnz528k0ln88unuvdr0nr,hdhQZw3b,2020-0188,2020-11-14,22:08:48,22:26:59,NA,incomplete,89,number,1,right,Purple_Triangle_Stripes_3.jpg,Purple_Circle_Grid_1.jpg,Green_Plus_Dots_3.jpg,right,831,true,low,false
hdhQZw3b,33ixyhizc8v0km0rv7j1cbq82t9e2g,3rwe2m8qwlnz528k0ln88unuvdr0nr,hdhQZw3b,2020-0188,2020-11-14,22:08:48,22:26:59,NA,incomplete,90,color,0,right,Green_Star_Chess_3.jpg,Red_Plus_Grid_3.jpg,Green_Circle_Dots_4.jpg,left,727,false,low,false
hdhQZw3b,33ixyhizc8v0km0rv7j1cbq82t9e2g,3rwe2m8qwlnz528k0ln88unuvdr0nr,hdhQZw3b,2020-0188,2020-11-14,22:08:48,22:26:59,NA,incomplete,91,color,1,right,Green_Circle_Grid_1.jpg,Red_Star_Dots_1.jpg,Green_Triangle_Stripes_2.jpg,left,732,false,low,false
hdhQZw3b,33ixyhizc8v0km0rv7j1cbq82t9e2g,3rwe2m8qwlnz528k0ln88unuvdr0nr,hdhQZw3b,2020-0188,2020-11-14,22:08:48,22:26:59,NA,incomplete,92,color,1,left,Purple_Circle_Dots_1.jpg,Purple_Star_Grid_4.jpg,Red_Plus_Chess_1.jpg,right,705,false,low,false
hdhQZw3b,33ixyhizc8v0km0rv7j1cbq82t9e2g,3rwe2m8qwlnz528k0ln88unuvdr0nr,hdhQZw3b,2020-0188,2020-11-14,22:08:48,22:26:59,NA,incomplete,93,color,0,right,Red_Circle_Grid_2.jpg,Green_Triangle_Chess_2.jpg,Red_Star_Dots_3.jpg,left,732,false,low,false
hdhQZw3b,33ixyhizc8v0km0rv7j1cbq82t9e2g,3rwe2m8qwlnz528k0ln88unuvdr0nr,hdhQZw3b,2020-0188,2020-11-14,22:08:48,22:26:59,NA,incomplete,94,color,1,left,Blue_Plus_Dots_4.jpg,Blue_Circle_Stripes_1.jpg,Green_Triangle_Chess_4.jpg,right,567,false,low,false
hdhQZw3b,33ixyhizc8v0km0rv7j1cbq82t9e2g,3rwe2m8qwlnz528k0ln88unuvdr0nr,hdhQZw3b,2020-0188,2020-11-14,22:08:48,22:26:59,NA,incomplete,95,color,1,left,Purple_Circle_Chess_3.jpg,Purple_Plus_Dots_1.jpg,Blue_Star_Stripes_3.jpg,right,762,false,low,false
hdhQZw3b,33ixyhizc8v0km0rv7j1cbq82t9e2g,3rwe2m8qwlnz528k0ln88unuvdr0nr,hdhQZw3b,2020-0188,2020-11-14,22:08:48,22:26:59,NA,incomplete,96,color,0,left,Green_Plus_Grid_4.jpg,Green_Triangle_Chess_2.jpg,Blue_Star_Stripes_4.jpg,right,881,false,low,false
hdhQZw3b,33ixyhizc8v0km0rv7j1cbq82t9e2g,3rwe2m8qwlnz528k0ln88unuvdr0nr,hdhQZw3b,2020-0188,2020-11-14,22:08:48,22:26:59,NA,incomplete,97,color,1,left,Blue_Plus_Grid_1.jpg,Blue_Star_Stripes_3.jpg,Red_Circle_Chess_1.jpg,right,777,false,low,false
hdhQZw3b,33ixyhizc8v0km0rv7j1cbq82t9e2g,3rwe2m8qwlnz528k0ln88unuvdr0nr,hdhQZw3b,2020-0188,2020-11-14,22:08:48,22:26:59,NA,incomplete,98,color,0,right,Purple_Star_Dots_3.jpg,Blue_Circle_Chess_3.jpg,Purple_Triangle_Grid_2.jpg,right,761,true,low,false
hdhQZw3b,33ixyhizc8v0km0rv7j1cbq82t9e2g,3rwe2m8qwlnz528k0ln88unuvdr0nr,hdhQZw3b,2020-0188,2020-11-14,22:08:48,22:26:59,NA,incomplete,99,color,1,right,Green_Star_Dots_2.jpg,Red_Plus_Grid_2.jpg,Green_Circle_Chess_4.jpg,right,817,true,low,false
hdhQZw3b,33ixyhizc8v0km0rv7j1cbq82t9e2g,3rwe2m8qwlnz528k0ln88unuvdr0nr,hdhQZw3b,2020-0188,2020-11-14,22:08:48,22:26:59,NA,incomplete,100,color,1,right,Green_Triangle_Chess_1.jpg,Blue_Star_Dots_1.jpg,Green_Plus_Grid_4.jpg,right,472,true,low,false
hdhQZw3b,33ixyhizc8v0km0rv7j1cbq82t9e2g,3rwe2m8qwlnz528k0ln88unuvdr0nr,hdhQZw3b,2020-0188,2020-11-14,22:08:48,22:26:59,NA,incomplete,101,color,1,left,Green_Circle_Stripes_1.jpg,Green_Plus_Grid_4.jpg,Red_Triangle_Dots_1.jpg,left,502,true,low,false
hdhQZw3b,33ixyhizc8v0km0rv7j1cbq82t9e2g,3rwe2m8qwlnz528k0ln88unuvdr0nr,hdhQZw3b,2020-0188,2020-11-14,22:08:48,22:26:59,NA,incomplete,102,color,1,right,Blue_Triangle_Chess_4.jpg,Purple_Star_Grid_4.jpg,Blue_Plus_Dots_1.jpg,right,790,true,low,false
hdhQZw3b,33ixyhizc8v0km0rv7j1cbq82t9e2g,3rwe2m8qwlnz528k0ln88unuvdr0nr,hdhQZw3b,2020-0188,2020-11-14,22:08:48,22:26:59,NA,incomplete,103,color,1,left,Green_Triangle_Dots_3.jpg,Green_Star_Stripes_2.jpg,Purple_Plus_Grid_3.jpg,left,772,true,low,false
hdhQZw3b,33ixyhizc8v0km0rv7j1cbq82t9e2g,3rwe2m8qwlnz528k0ln88unuvdr0nr,hdhQZw3b,2020-0188,2020-11-14,22:08:48,22:26:59,NA,incomplete,104,color,0,left,Green_Star_Chess_1.jpg,Green_Triangle_Dots_3.jpg,Blue_Plus_Stripes_1.jpg,left,590,true,low,false
hdhQZw3b,33ixyhizc8v0km0rv7j1cbq82t9e2g,3rwe2m8qwlnz528k0ln88unuvdr0nr,hdhQZw3b,2020-0188,2020-11-14,22:08:48,22:26:59,NA,incomplete,105,color,1,left,Green_Triangle_Chess_2.jpg,Green_Plus_Stripes_1.jpg,Red_Star_Grid_2.jpg,left,472,true,low,false
hdhQZw3b,33ixyhizc8v0km0rv7j1cbq82t9e2g,3rwe2m8qwlnz528k0ln88unuvdr0nr,hdhQZw3b,2020-0188,2020-11-14,22:08:48,22:26:59,NA,incomplete,106,color,1,right,Blue_Triangle_Stripes_4.jpg,Red_Plus_Grid_4.jpg,Blue_Star_Chess_2.jpg,right,471,true,low,false
hdhQZw3b,33ixyhizc8v0km0rv7j1cbq82t9e2g,3rwe2m8qwlnz528k0ln88unuvdr0nr,hdhQZw3b,2020-0188,2020-11-14,22:08:48,22:26:59,NA,incomplete,107,color,1,right,Purple_Triangle_Dots_3.jpg,Blue_Star_Stripes_3.jpg,Purple_Circle_Grid_4.jpg,right,601,true,low,false
hdhQZw3b,33ixyhizc8v0km0rv7j1cbq82t9e2g,3rwe2m8qwlnz528k0ln88unuvdr0nr,hdhQZw3b,2020-0188,2020-11-14,22:08:48,22:26:59,NA,incomplete,108,color,0,right,Red_Plus_Grid_1.jpg,Blue_Star_Chess_1.jpg,Red_Circle_Stripes_3.jpg,right,562,true,low,false
hdhQZw3b,33ixyhizc8v0km0rv7j1cbq82t9e2g,3rwe2m8qwlnz528k0ln88unuvdr0nr,hdhQZw3b,2020-0188,2020-11-14,22:08:48,22:26:59,NA,incomplete,109,color,1,left,Green_Circle_Dots_3.jpg,Green_Triangle_Grid_2.jpg,Blue_Star_Chess_3.jpg,left,460,true,low,false
hdhQZw3b,33ixyhizc8v0km0rv7j1cbq82t9e2g,3rwe2m8qwlnz528k0ln88unuvdr0nr,hdhQZw3b,2020-0188,2020-11-14,22:08:48,22:26:59,NA,incomplete,110,color,1,left,Blue_Circle_Dots_4.jpg,Blue_Plus_Stripes_2.jpg,Green_Star_Grid_4.jpg,left,675,true,low,false
hdhQZw3b,33ixyhizc8v0km0rv7j1cbq82t9e2g,3rwe2m8qwlnz528k0ln88unuvdr0nr,hdhQZw3b,2020-0188,2020-11-14,22:08:48,22:26:59,NA,incomplete,111,color,0,left,Red_Triangle_Chess_1.jpg,Red_Star_Stripes_4.jpg,Blue_Plus_Grid_1.jpg,left,615,true,low,false
hdhQZw3b,33ixyhizc8v0km0rv7j1cbq82t9e2g,3rwe2m8qwlnz528k0ln88unuvdr0nr,hdhQZw3b,2020-0188,2020-11-14,22:08:48,22:26:59,NA,incomplete,112,color,1,right,Purple_Circle_Dots_4.jpg,Red_Star_Chess_4.jpg,Purple_Plus_Stripes_1.jpg,right,838,true,low,false
hdhQZw3b,33ixyhizc8v0km0rv7j1cbq82t9e2g,3rwe2m8qwlnz528k0ln88unuvdr0nr,hdhQZw3b,2020-0188,2020-11-14,22:08:48,22:26:59,NA,incomplete,113,color,1,left,Green_Plus_Dots_2.jpg,Green_Circle_Stripes_4.jpg,Purple_Star_Chess_2.jpg,left,552,true,low,false
hdhQZw3b,33ixyhizc8v0km0rv7j1cbq82t9e2g,3rwe2m8qwlnz528k0ln88unuvdr0nr,hdhQZw3b,2020-0188,2020-11-14,22:08:48,22:26:59,NA,incomplete,114,color,1,left,Blue_Plus_Chess_4.jpg,Blue_Star_Dots_1.jpg,Green_Circle_Grid_4.jpg,left,546,true,low,false
hdhQZw3b,33ixyhizc8v0km0rv7j1cbq82t9e2g,3rwe2m8qwlnz528k0ln88unuvdr0nr,hdhQZw3b,2020-0188,2020-11-14,22:08:48,22:26:59,NA,incomplete,115,color,0,right,Green_Star_Grid_3.jpg,Red_Triangle_Chess_3.jpg,Green_Circle_Dots_1.jpg,right,622,true,low,false
hdhQZw3b,33ixyhizc8v0km0rv7j1cbq82t9e2g,3rwe2m8qwlnz528k0ln88unuvdr0nr,hdhQZw3b,2020-0188,2020-11-14,22:08:48,22:26:59,NA,incomplete,116,color,1,left,Blue_Plus_Grid_2.jpg,Blue_Star_Stripes_1.jpg,Green_Circle_Chess_2.jpg,left,603,true,low,false
hdhQZw3b,33ixyhizc8v0km0rv7j1cbq82t9e2g,3rwe2m8qwlnz528k0ln88unuvdr0nr,hdhQZw3b,2020-0188,2020-11-14,22:08:48,22:26:59,NA,incomplete,117,color,1,right,Purple_Star_Grid_2.jpg,Blue_Triangle_Chess_2.jpg,Purple_Plus_Dots_1.jpg,right,728,true,low,false
hdhQZw3b,33ixyhizc8v0km0rv7j1cbq82t9e2g,3rwe2m8qwlnz528k0ln88unuvdr0nr,hdhQZw3b,2020-0188,2020-11-14,22:08:48,22:26:59,NA,incomplete,118,color,1,right,Green_Plus_Grid_1.jpg,Purple_Star_Chess_1.jpg,Green_Circle_Stripes_2.jpg,right,573,true,low,false
hdhQZw3b,33ixyhizc8v0km0rv7j1cbq82t9e2g,3rwe2m8qwlnz528k0ln88unuvdr0nr,hdhQZw3b,2020-0188,2020-11-14,22:08:48,22:26:59,NA,incomplete,119,color,0,right,Purple_Star_Stripes_1.jpg,Green_Triangle_Chess_1.jpg,Purple_Plus_Grid_2.jpg,right,572,true,low,false
hdhQZw3b,33ixyhizc8v0km0rv7j1cbq82t9e2g,3rwe2m8qwlnz528k0ln88unuvdr0nr,hdhQZw3b,2020-0188,2020-11-14,22:08:48,22:26:59,NA,incomplete,120,number,1,right,Blue_Plus_Chess_3.jpg,Blue_Circle_Stripes_1.jpg,Purple_Triangle_Dots_3.jpg,left,927,false,low,false
hdhQZw3b,33ixyhizc8v0km0rv7j1cbq82t9e2g,3rwe2m8qwlnz528k0ln88unuvdr0nr,hdhQZw3b,2020-0188,2020-11-14,22:08:48,22:26:59,NA,incomplete,121,number,1,right,Purple_Plus_Dots_3.jpg,Purple_Triangle_Stripes_1.jpg,Green_Star_Grid_3.jpg,right,563,true,low,false
hdhQZw3b,33ixyhizc8v0km0rv7j1cbq82t9e2g,3rwe2m8qwlnz528k0ln88unuvdr0nr,hdhQZw3b,2020-0188,2020-11-14,22:08:48,22:26:59,NA,incomplete,122,number,1,right,Blue_Triangle_Chess_4.jpg,Blue_Circle_Stripes_3.jpg,Green_Plus_Dots_4.jpg,right,844,true,low,false
hdhQZw3b,33ixyhizc8v0km0rv7j1cbq82t9e2g,3rwe2m8qwlnz528k0ln88unuvdr0nr,hdhQZw3b,2020-0188,2020-11-14,22:08:48,22:26:59,NA,incomplete,123,number,1,left,Green_Plus_Stripes_1.jpg,Blue_Circle_Chess_1.jpg,Green_Triangle_Dots_4.jpg,left,650,true,low,false
hdhQZw3b,33ixyhizc8v0km0rv7j1cbq82t9e2g,3rwe2m8qwlnz528k0ln88unuvdr0nr,hdhQZw3b,2020-0188,2020-11-14,22:08:48,22:26:59,NA,incomplete,124,number,1,left,Purple_Triangle_Chess_4.jpg,Red_Plus_Stripes_4.jpg,Purple_Star_Dots_3.jpg,left,823,true,low,false
hdhQZw3b,33ixyhizc8v0km0rv7j1cbq82t9e2g,3rwe2m8qwlnz528k0ln88unuvdr0nr,hdhQZw3b,2020-0188,2020-11-14,22:08:48,22:26:59,NA,incomplete,125,number,0,left,Blue_Circle_Stripes_2.jpg,Red_Triangle_Dots_2.jpg,Blue_Plus_Chess_1.jpg,left,610,true,low,false
hdhQZw3b,33ixyhizc8v0km0rv7j1cbq82t9e2g,3rwe2m8qwlnz528k0ln88unuvdr0nr,hdhQZw3b,2020-0188,2020-11-14,22:08:48,22:26:59,NA,incomplete,126,number,1,right,Blue_Star_Grid_4.jpg,Blue_Triangle_Stripes_2.jpg,Red_Plus_Dots_4.jpg,right,618,true,low,false
hdhQZw3b,33ixyhizc8v0km0rv7j1cbq82t9e2g,3rwe2m8qwlnz528k0ln88unuvdr0nr,hdhQZw3b,2020-0188,2020-11-14,22:08:48,22:26:59,NA,incomplete,127,number,1,right,Purple_Circle_Dots_3.jpg,Purple_Plus_Chess_4.jpg,Green_Triangle_Grid_3.jpg,right,955,true,low,false
hdhQZw3b,33ixyhizc8v0km0rv7j1cbq82t9e2g,3rwe2m8qwlnz528k0ln88unuvdr0nr,hdhQZw3b,2020-0188,2020-11-14,22:08:48,22:26:59,NA,incomplete,128,number,0,left,Red_Plus_Dots_2.jpg,Green_Triangle_Grid_2.jpg,Red_Star_Chess_4.jpg,left,696,true,low,false
hdhQZw3b,33ixyhizc8v0km0rv7j1cbq82t9e2g,3rwe2m8qwlnz528k0ln88unuvdr0nr,hdhQZw3b,2020-0188,2020-11-14,22:08:48,22:26:59,NA,incomplete,129,number,1,right,Red_Circle_Stripes_1.jpg,Red_Star_Chess_3.jpg,Purple_Plus_Dots_1.jpg,right,562,true,low,false
hdhQZw3b,33ixyhizc8v0km0rv7j1cbq82t9e2g,3rwe2m8qwlnz528k0ln88unuvdr0nr,hdhQZw3b,2020-0188,2020-11-14,22:08:48,22:26:59,NA,incomplete,130,number,1,right,Purple_Plus_Grid_2.jpg,Purple_Circle_Dots_1.jpg,Red_Star_Chess_2.jpg,right,628,true,low,false
hdhQZw3b,33ixyhizc8v0km0rv7j1cbq82t9e2g,3rwe2m8qwlnz528k0ln88unuvdr0nr,hdhQZw3b,2020-0188,2020-11-14,22:08:48,22:26:59,NA,incomplete,131,number,0,right,Purple_Star_Dots_2.jpg,Purple_Plus_Stripes_1.jpg,Green_Triangle_Grid_2.jpg,right,580,true,low,false
hdhQZw3b,33ixyhizc8v0km0rv7j1cbq82t9e2g,3rwe2m8qwlnz528k0ln88unuvdr0nr,hdhQZw3b,2020-0188,2020-11-14,22:08:48,22:26:59,NA,incomplete,132,number,1,right,Red_Star_Chess_1.jpg,Red_Plus_Stripes_3.jpg,Purple_Triangle_Grid_1.jpg,right,723,true,low,false
hdhQZw3b,33ixyhizc8v0km0rv7j1cbq82t9e2g,3rwe2m8qwlnz528k0ln88unuvdr0nr,hdhQZw3b,2020-0188,2020-11-14,22:08:48,22:26:59,NA,incomplete,133,number,1,right,Green_Triangle_Dots_2.jpg,Green_Plus_Chess_4.jpg,Purple_Circle_Grid_2.jpg,right,569,true,low,false
hdhQZw3b,33ixyhizc8v0km0rv7j1cbq82t9e2g,3rwe2m8qwlnz528k0ln88unuvdr0nr,hdhQZw3b,2020-0188,2020-11-14,22:08:48,22:26:59,NA,incomplete,134,number,1,right,Green_Circle_Stripes_1.jpg,Green_Triangle_Dots_3.jpg,Blue_Star_Grid_1.jpg,right,665,true,low,false
hdhQZw3b,33ixyhizc8v0km0rv7j1cbq82t9e2g,3rwe2m8qwlnz528k0ln88unuvdr0nr,hdhQZw3b,2020-0188,2020-11-14,22:08:48,22:26:59,NA,incomplete,135,number,0,left,Red_Star_Grid_4.jpg,Green_Plus_Dots_4.jpg,Red_Triangle_Chess_3.jpg,left,688,true,low,false
hdhQZw3b,33ixyhizc8v0km0rv7j1cbq82t9e2g,3rwe2m8qwlnz528k0ln88unuvdr0nr,hdhQZw3b,2020-0188,2020-11-14,22:08:48,22:26:59,NA,incomplete,136,number,1,left,Blue_Circle_Grid_2.jpg,Green_Star_Chess_2.jpg,Blue_Plus_Dots_3.jpg,left,802,true,low,false
hdhQZw3b,33ixyhizc8v0km0rv7j1cbq82t9e2g,3rwe2m8qwlnz528k0ln88unuvdr0nr,hdhQZw3b,2020-0188,2020-11-14,22:08:48,22:26:59,NA,incomplete,137,number,0,right,Blue_Plus_Dots_3.jpg,Blue_Star_Chess_1.jpg,Red_Circle_Stripes_3.jpg,right,581,true,low,false
hdhQZw3b,33ixyhizc8v0km0rv7j1cbq82t9e2g,3rwe2m8qwlnz528k0ln88unuvdr0nr,hdhQZw3b,2020-0188,2020-11-14,22:08:48,22:26:59,NA,incomplete,138,number,1,right,Red_Circle_Stripes_4.jpg,Red_Plus_Dots_2.jpg,Green_Star_Chess_4.jpg,right,542,true,low,false
hdhQZw3b,33ixyhizc8v0km0rv7j1cbq82t9e2g,3rwe2m8qwlnz528k0ln88unuvdr0nr,hdhQZw3b,2020-0188,2020-11-14,22:08:48,22:26:59,NA,incomplete,139,number,1,right,Purple_Triangle_Grid_1.jpg,Purple_Plus_Dots_2.jpg,Green_Star_Stripes_1.jpg,right,643,true,low,false
hdhQZw3b,33ixyhizc8v0km0rv7j1cbq82t9e2g,3rwe2m8qwlnz528k0ln88unuvdr0nr,hdhQZw3b,2020-0188,2020-11-14,22:08:48,22:26:59,NA,incomplete,140,color,1,left,Purple_Plus_Stripes_4.jpg,Purple_Triangle_Chess_3.jpg,Blue_Circle_Grid_4.jpg,left,890,true,low,false
hdhQZw3b,33ixyhizc8v0km0rv7j1cbq82t9e2g,3rwe2m8qwlnz528k0ln88unuvdr0nr,hdhQZw3b,2020-0188,2020-11-14,22:08:48,22:26:59,NA,incomplete,141,color,1,left,Purple_Plus_Chess_1.jpg,Purple_Triangle_Stripes_4.jpg,Blue_Circle_Dots_1.jpg,left,683,true,low,false
hdhQZw3b,33ixyhizc8v0km0rv7j1cbq82t9e2g,3rwe2m8qwlnz528k0ln88unuvdr0nr,hdhQZw3b,2020-0188,2020-11-14,22:08:48,22:26:59,NA,incomplete,142,color,0,right,Green_Plus_Grid_2.jpg,Red_Star_Chess_2.jpg,Green_Circle_Dots_3.jpg,right,535,true,low,false
hdhQZw3b,33ixyhizc8v0km0rv7j1cbq82t9e2g,3rwe2m8qwlnz528k0ln88unuvdr0nr,hdhQZw3b,2020-0188,2020-11-14,22:08:48,22:26:59,NA,incomplete,143,color,1,right,Green_Triangle_Dots_4.jpg,Purple_Plus_Stripes_4.jpg,Green_Circle_Chess_1.jpg,right,597,true,low,false
hdhQZw3b,33ixyhizc8v0km0rv7j1cbq82t9e2g,3rwe2m8qwlnz528k0ln88unuvdr0nr,hdhQZw3b,2020-0188,2020-11-14,22:08:48,22:26:59,NA,incomplete,144,color,1,left,Green_Plus_Grid_3.jpg,Green_Circle_Dots_4.jpg,Purple_Star_Chess_3.jpg,left,488,true,low,false
hdhQZw3b,33ixyhizc8v0km0rv7j1cbq82t9e2g,3rwe2m8qwlnz528k0ln88unuvdr0nr,hdhQZw3b,2020-0188,2020-11-14,22:08:48,22:26:59,NA,incomplete,145,color,1,left,Red_Triangle_Dots_3.jpg,Red_Circle_Stripes_2.jpg,Purple_Star_Grid_3.jpg,left,514,true,low,false
hdhQZw3b,33ixyhizc8v0km0rv7j1cbq82t9e2g,3rwe2m8qwlnz528k0ln88unuvdr0nr,hdhQZw3b,2020-0188,2020-11-14,22:08:48,22:26:59,NA,incomplete,146,color,1,right,Green_Plus_Grid_2.jpg,Purple_Triangle_Stripes_2.jpg,Green_Star_Chess_4.jpg,right,521,true,low,false
hdhQZw3b,33ixyhizc8v0km0rv7j1cbq82t9e2g,3rwe2m8qwlnz528k0ln88unuvdr0nr,hdhQZw3b,2020-0188,2020-11-14,22:08:48,22:26:59,NA,incomplete,147,color,1,right,Purple_Plus_Chess_3.jpg,Red_Circle_Grid_3.jpg,Purple_Star_Dots_2.jpg,right,959,true,low,false
hdhQZw3b,33ixyhizc8v0km0rv7j1cbq82t9e2g,3rwe2m8qwlnz528k0ln88unuvdr0nr,hdhQZw3b,2020-0188,2020-11-14,22:08:48,22:26:59,NA,incomplete,148,color,1,right,Green_Star_Chess_2.jpg,Purple_Circle_Grid_2.jpg,Green_Triangle_Stripes_1.jpg,right,458,true,low,false
hdhQZw3b,33ixyhizc8v0km0rv7j1cbq82t9e2g,3rwe2m8qwlnz528k0ln88unuvdr0nr,hdhQZw3b,2020-0188,2020-11-14,22:08:48,22:26:59,NA,incomplete,149,color,1,left,Green_Triangle_Grid_3.jpg,Green_Plus_Dots_1.jpg,Purple_Circle_Chess_3.jpg,left,553,true,low,false
hdhQZw3b,33ixyhizc8v0km0rv7j1cbq82t9e2g,3rwe2m8qwlnz528k0ln88unuvdr0nr,hdhQZw3b,2020-0188,2020-11-14,22:08:48,22:26:59,NA,incomplete,150,color,1,left,Purple_Star_Dots_1.jpg,Purple_Triangle_Chess_4.jpg,Green_Plus_Grid_1.jpg,left,677,true,low,false
hdhQZw3b,33ixyhizc8v0km0rv7j1cbq82t9e2g,3rwe2m8qwlnz528k0ln88unuvdr0nr,hdhQZw3b,2020-0188,2020-11-14,22:08:48,22:26:59,NA,incomplete,151,color,1,right,Purple_Star_Dots_4.jpg,Blue_Plus_Grid_4.jpg,Purple_Circle_Stripes_3.jpg,right,730,true,low,false
hdhQZw3b,33ixyhizc8v0km0rv7j1cbq82t9e2g,3rwe2m8qwlnz528k0ln88unuvdr0nr,hdhQZw3b,2020-0188,2020-11-14,22:08:48,22:26:59,NA,incomplete,152,color,0,right,Purple_Triangle_Stripes_1.jpg,Green_Circle_Dots_1.jpg,Purple_Plus_Grid_3.jpg,right,454,true,low,false
hdhQZw3b,33ixyhizc8v0km0rv7j1cbq82t9e2g,3rwe2m8qwlnz528k0ln88unuvdr0nr,hdhQZw3b,2020-0188,2020-11-14,22:08:48,22:26:59,NA,incomplete,153,color,1,right,Purple_Plus_Dots_3.jpg,Blue_Circle_Grid_3.jpg,Purple_Triangle_Stripes_2.jpg,right,549,true,low,false
hdhQZw3b,33ixyhizc8v0km0rv7j1cbq82t9e2g,3rwe2m8qwlnz528k0ln88unuvdr0nr,hdhQZw3b,2020-0188,2020-11-14,22:08:48,22:26:59,NA,incomplete,154,color,1,left,Blue_Circle_Dots_2.jpg,Blue_Plus_Grid_4.jpg,Red_Triangle_Chess_2.jpg,left,615,true,low,false
hdhQZw3b,33ixyhizc8v0km0rv7j1cbq82t9e2g,3rwe2m8qwlnz528k0ln88unuvdr0nr,hdhQZw3b,2020-0188,2020-11-14,22:08:48,22:26:59,NA,incomplete,155,color,1,left,Red_Plus_Chess_4.jpg,Red_Triangle_Stripes_1.jpg,Green_Star_Dots_4.jpg,left,640,true,low,false
hdhQZw3b,33ixyhizc8v0km0rv7j1cbq82t9e2g,3rwe2m8qwlnz528k0ln88unuvdr0nr,hdhQZw3b,2020-0188,2020-11-14,22:08:48,22:26:59,NA,incomplete,156,color,0,right,Red_Circle_Dots_1.jpg,Green_Plus_Stripes_1.jpg,Red_Star_Chess_3.jpg,right,589,true,low,false
hdhQZw3b,33ixyhizc8v0km0rv7j1cbq82t9e2g,3rwe2m8qwlnz528k0ln88unuvdr0nr,hdhQZw3b,2020-0188,2020-11-14,22:08:48,22:26:59,NA,incomplete,157,color,1,right,Green_Triangle_Stripes_1.jpg,Blue_Circle_Chess_1.jpg,Green_Star_Dots_4.jpg,right,755,true,low,false
hdhQZw3b,33ixyhizc8v0km0rv7j1cbq82t9e2g,3rwe2m8qwlnz528k0ln88unuvdr0nr,hdhQZw3b,2020-0188,2020-11-14,22:08:48,22:26:59,NA,incomplete,158,color,1,left,Purple_Plus_Dots_3.jpg,Purple_Triangle_Stripes_1.jpg,Red_Circle_Chess_3.jpg,left,669,true,low,false
hdhQZw3b,33ixyhizc8v0km0rv7j1cbq82t9e2g,3rwe2m8qwlnz528k0ln88unuvdr0nr,hdhQZw3b,2020-0188,2020-11-14,22:08:48,22:26:59,NA,incomplete,159,color,1,left,Purple_Star_Chess_1.jpg,Purple_Plus_Stripes_2.jpg,Red_Circle_Grid_1.jpg,left,552,true,low,false
hdhQZw3b,33ixyhizc8v0km0rv7j1cbq82t9e2g,3rwe2m8qwlnz528k0ln88unuvdr0nr,hdhQZw3b,2020-0188,2020-11-14,22:08:48,22:26:59,NA,incomplete,160,number,1,left,Purple_Plus_Stripes_1.jpg,Green_Triangle_Grid_1.jpg,Purple_Star_Chess_3.jpg,right,641,false,low,false
hdhQZw3b,33ixyhizc8v0km0rv7j1cbq82t9e2g,3rwe2m8qwlnz528k0ln88unuvdr0nr,hdhQZw3b,2020-0188,2020-11-14,22:08:48,22:26:59,NA,incomplete,161,number,0,right,Red_Triangle_Stripes_3.jpg,Red_Circle_Chess_4.jpg,Purple_Plus_Grid_3.jpg,right,992,true,low,false
hdhQZw3b,33ixyhizc8v0km0rv7j1cbq82t9e2g,3rwe2m8qwlnz528k0ln88unuvdr0nr,hdhQZw3b,2020-0188,2020-11-14,22:08:48,22:26:59,NA,incomplete,162,number,1,right,Blue_Star_Dots_1.jpg,Blue_Circle_Grid_2.jpg,Green_Plus_Stripes_1.jpg,left,653,false,low,false
hdhQZw3b,33ixyhizc8v0km0rv7j1cbq82t9e2g,3rwe2m8qwlnz528k0ln88unuvdr0nr,hdhQZw3b,2020-0188,2020-11-14,22:08:48,22:26:59,NA,incomplete,163,number,1,right,Purple_Plus_Dots_1.jpg,Purple_Star_Stripes_3.jpg,Red_Circle_Chess_1.jpg,left,519,false,low,false
hdhQZw3b,33ixyhizc8v0km0rv7j1cbq82t9e2g,3rwe2m8qwlnz528k0ln88unuvdr0nr,hdhQZw3b,2020-0188,2020-11-14,22:08:48,22:26:59,NA,incomplete,164,number,1,left,Red_Circle_Dots_2.jpg,Green_Triangle_Stripes_2.jpg,Red_Plus_Chess_4.jpg,right,802,false,low,false
hdhQZw3b,33ixyhizc8v0km0rv7j1cbq82t9e2g,3rwe2m8qwlnz528k0ln88unuvdr0nr,hdhQZw3b,2020-0188,2020-11-14,22:08:48,22:26:59,NA,incomplete,165,number,1,right,Purple_Triangle_Grid_4.jpg,Purple_Plus_Stripes_3.jpg,Green_Circle_Chess_4.jpg,right,724,true,low,false
hdhQZw3b,33ixyhizc8v0km0rv7j1cbq82t9e2g,3rwe2m8qwlnz528k0ln88unuvdr0nr,hdhQZw3b,2020-0188,2020-11-14,22:08:48,22:26:59,NA,incomplete,166,number,1,left,Purple_Star_Stripes_4.jpg,Red_Circle_Grid_4.jpg,Purple_Triangle_Dots_3.jpg,left,787,true,low,false
hdhQZw3b,33ixyhizc8v0km0rv7j1cbq82t9e2g,3rwe2m8qwlnz528k0ln88unuvdr0nr,hdhQZw3b,2020-0188,2020-11-14,22:08:48,22:26:59,NA,incomplete,167,number,1,left,Red_Plus_Dots_3.jpg,Purple_Triangle_Grid_3.jpg,Red_Star_Stripes_1.jpg,left,756,true,low,false
hdhQZw3b,33ixyhizc8v0km0rv7j1cbq82t9e2g,3rwe2m8qwlnz528k0ln88unuvdr0nr,hdhQZw3b,2020-0188,2020-11-14,22:08:48,22:26:59,NA,incomplete,168,number,1,right,Green_Plus_Grid_2.jpg,Green_Star_Stripes_3.jpg,Red_Circle_Dots_2.jpg,right,967,true,low,false
hdhQZw3b,33ixyhizc8v0km0rv7j1cbq82t9e2g,3rwe2m8qwlnz528k0ln88unuvdr0nr,hdhQZw3b,2020-0188,2020-11-14,22:08:48,22:26:59,NA,incomplete,169,number,1,left,Purple_Plus_Stripes_3.jpg,Green_Star_Grid_3.jpg,Purple_Triangle_Chess_4.jpg,left,655,true,low,false
hdhQZw3b,33ixyhizc8v0km0rv7j1cbq82t9e2g,3rwe2m8qwlnz528k0ln88unuvdr0nr,hdhQZw3b,2020-0188,2020-11-14,22:08:48,22:26:59,NA,incomplete,170,number,0,right,Green_Plus_Dots_2.jpg,Green_Triangle_Chess_4.jpg,Red_Star_Grid_2.jpg,right,720,true,low,false
hdhQZw3b,33ixyhizc8v0km0rv7j1cbq82t9e2g,3rwe2m8qwlnz528k0ln88unuvdr0nr,hdhQZw3b,2020-0188,2020-11-14,22:08:48,22:26:59,NA,incomplete,171,number,1,left,Blue_Plus_Chess_1.jpg,Purple_Star_Dots_1.jpg,Blue_Circle_Stripes_2.jpg,left,761,true,low,false
hdhQZw3b,33ixyhizc8v0km0rv7j1cbq82t9e2g,3rwe2m8qwlnz528k0ln88unuvdr0nr,hdhQZw3b,2020-0188,2020-11-14,22:08:48,22:26:59,NA,incomplete,172,number,1,left,Blue_Plus_Stripes_3.jpg,Purple_Circle_Dots_3.jpg,Blue_Triangle_Chess_4.jpg,left,757,true,low,false
hdhQZw3b,33ixyhizc8v0km0rv7j1cbq82t9e2g,3rwe2m8qwlnz528k0ln88unuvdr0nr,hdhQZw3b,2020-0188,2020-11-14,22:08:48,22:26:59,NA,incomplete,173,number,0,right,Green_Triangle_Chess_2.jpg,Green_Circle_Dots_4.jpg,Blue_Star_Stripes_2.jpg,right,832,true,low,false
hdhQZw3b,33ixyhizc8v0km0rv7j1cbq82t9e2g,3rwe2m8qwlnz528k0ln88unuvdr0nr,hdhQZw3b,2020-0188,2020-11-14,22:08:48,22:26:59,NA,incomplete,174,number,1,left,Blue_Plus_Stripes_4.jpg,Purple_Circle_Dots_4.jpg,Blue_Star_Grid_2.jpg,left,854,true,low,false
hdhQZw3b,33ixyhizc8v0km0rv7j1cbq82t9e2g,3rwe2m8qwlnz528k0ln88unuvdr0nr,hdhQZw3b,2020-0188,2020-11-14,22:08:48,22:26:59,NA,incomplete,175,number,1,right,Red_Triangle_Stripes_3.jpg,Red_Circle_Chess_4.jpg,Blue_Star_Dots_3.jpg,right,768,true,low,false
hdhQZw3b,33ixyhizc8v0km0rv7j1cbq82t9e2g,3rwe2m8qwlnz528k0ln88unuvdr0nr,hdhQZw3b,2020-0188,2020-11-14,22:08:48,22:26:59,NA,incomplete,176,number,0,right,Green_Circle_Dots_3.jpg,Green_Star_Stripes_2.jpg,Blue_Triangle_Chess_3.jpg,right,550,true,low,false
hdhQZw3b,33ixyhizc8v0km0rv7j1cbq82t9e2g,3rwe2m8qwlnz528k0ln88unuvdr0nr,hdhQZw3b,2020-0188,2020-11-14,22:08:48,22:26:59,NA,incomplete,177,number,1,left,Red_Star_Grid_2.jpg,Purple_Plus_Chess_2.jpg,Red_Triangle_Stripes_1.jpg,left,542,true,low,false
hdhQZw3b,33ixyhizc8v0km0rv7j1cbq82t9e2g,3rwe2m8qwlnz528k0ln88unuvdr0nr,hdhQZw3b,2020-0188,2020-11-14,22:08:48,22:26:59,NA,incomplete,178,number,1,left,Purple_Circle_Chess_1.jpg,Green_Plus_Grid_1.jpg,Purple_Star_Stripes_3.jpg,left,835,true,low,false
hdhQZw3b,33ixyhizc8v0km0rv7j1cbq82t9e2g,3rwe2m8qwlnz528k0ln88unuvdr0nr,hdhQZw3b,2020-0188,2020-11-14,22:08:48,22:26:59,NA,incomplete,179,number,1,right,Red_Plus_Dots_2.jpg,Red_Star_Stripes_3.jpg,Blue_Circle_Grid_2.jpg,right,731,true,low,false
hdhQZw3b,33ixyhizc8v0km0rv7j1cbq82t9e2g,3rwe2m8qwlnz528k0ln88unuvdr0nr,hdhQZw3b,2020-0188,2020-11-14,22:08:48,22:26:59,NA,incomplete,180,color,1,left,Blue_Plus_Chess_2.jpg,Blue_Circle_Stripes_4.jpg,Green_Star_Dots_2.jpg,right,861,false,low,false
hdhQZw3b,33ixyhizc8v0km0rv7j1cbq82t9e2g,3rwe2m8qwlnz528k0ln88unuvdr0nr,hdhQZw3b,2020-0188,2020-11-14,22:08:48,22:26:59,NA,incomplete,181,color,0,left,Blue_Triangle_Stripes_4.jpg,Blue_Plus_Dots_1.jpg,Green_Star_Chess_4.jpg,right,641,false,low,false
hdhQZw3b,33ixyhizc8v0km0rv7j1cbq82t9e2g,3rwe2m8qwlnz528k0ln88unuvdr0nr,hdhQZw3b,2020-0188,2020-11-14,22:08:48,22:26:59,NA,incomplete,182,color,1,right,Blue_Plus_Grid_2.jpg,Purple_Circle_Stripes_2.jpg,Blue_Star_Dots_3.jpg,left,621,false,low,false
hdhQZw3b,33ixyhizc8v0km0rv7j1cbq82t9e2g,3rwe2m8qwlnz528k0ln88unuvdr0nr,hdhQZw3b,2020-0188,2020-11-14,22:08:48,22:26:59,NA,incomplete,183,color,0,right,Green_Star_Stripes_1.jpg,Red_Circle_Chess_1.jpg,Green_Plus_Dots_2.jpg,left,816,false,low,false
hdhQZw3b,33ixyhizc8v0km0rv7j1cbq82t9e2g,3rwe2m8qwlnz528k0ln88unuvdr0nr,hdhQZw3b,2020-0188,2020-11-14,22:08:48,22:26:59,NA,incomplete,184,color,1,right,Blue_Star_Stripes_2.jpg,Purple_Circle_Dots_2.jpg,Blue_Triangle_Chess_3.jpg,left,576,false,low,false
hdhQZw3b,33ixyhizc8v0km0rv7j1cbq82t9e2g,3rwe2m8qwlnz528k0ln88unuvdr0nr,hdhQZw3b,2020-0188,2020-11-14,22:08:48,22:26:59,NA,incomplete,185,color,1,left,Blue_Triangle_Grid_3.jpg,Blue_Star_Dots_2.jpg,Green_Circle_Stripes_3.jpg,right,647,false,low,false
hdhQZw3b,33ixyhizc8v0km0rv7j1cbq82t9e2g,3rwe2m8qwlnz528k0ln88unuvdr0nr,hdhQZw3b,2020-0188,2020-11-14,22:08:48,22:26:59,NA,incomplete,186,color,1,left,Purple_Plus_Chess_3.jpg,Purple_Triangle_Stripes_4.jpg,Red_Star_Dots_3.jpg,right,528,false,low,false
hdhQZw3b,33ixyhizc8v0km0rv7j1cbq82t9e2g,3rwe2m8qwlnz528k0ln88unuvdr0nr,hdhQZw3b,2020-0188,2020-11-14,22:08:48,22:26:59,NA,incomplete,187,color,1,right,Red_Triangle_Chess_4.jpg,Blue_Plus_Stripes_4.jpg,Red_Circle_Grid_3.jpg,right,771,true,low,false
hdhQZw3b,33ixyhizc8v0km0rv7j1cbq82t9e2g,3rwe2m8qwlnz528k0ln88unuvdr0nr,hdhQZw3b,2020-0188,2020-11-14,22:08:48,22:26:59,NA,incomplete,188,color,1,right,Red_Circle_Dots_1.jpg,Purple_Plus_Grid_1.jpg,Red_Star_Chess_4.jpg,right,479,true,low,false
hdhQZw3b,33ixyhizc8v0km0rv7j1cbq82t9e2g,3rwe2m8qwlnz528k0ln88unuvdr0nr,hdhQZw3b,2020-0188,2020-11-14,22:08:48,22:26:59,NA,incomplete,189,color,1,right,Blue_Triangle_Grid_2.jpg,Green_Plus_Dots_2.jpg,Blue_Star_Chess_1.jpg,right,689,true,low,false
hdhQZw3b,33ixyhizc8v0km0rv7j1cbq82t9e2g,3rwe2m8qwlnz528k0ln88unuvdr0nr,hdhQZw3b,2020-0188,2020-11-14,22:08:48,22:26:59,NA,incomplete,190,color,1,right,Green_Plus_Grid_1.jpg,Red_Triangle_Stripes_1.jpg,Green_Star_Dots_4.jpg,right,856,true,low,false
hdhQZw3b,33ixyhizc8v0km0rv7j1cbq82t9e2g,3rwe2m8qwlnz528k0ln88unuvdr0nr,hdhQZw3b,2020-0188,2020-11-14,22:08:48,22:26:59,NA,incomplete,191,color,1,left,Blue_Star_Dots_1.jpg,Blue_Triangle_Grid_3.jpg,Purple_Plus_Stripes_1.jpg,left,435,true,low,false
hdhQZw3b,33ixyhizc8v0km0rv7j1cbq82t9e2g,3rwe2m8qwlnz528k0ln88unuvdr0nr,hdhQZw3b,2020-0188,2020-11-14,22:08:48,22:26:59,NA,incomplete,192,color,1,left,Purple_Circle_Dots_1.jpg,Purple_Star_Grid_4.jpg,Red_Triangle_Chess_1.jpg,left,777,true,low,false
hdhQZw3b,33ixyhizc8v0km0rv7j1cbq82t9e2g,3rwe2m8qwlnz528k0ln88unuvdr0nr,hdhQZw3b,2020-0188,2020-11-14,22:08:48,22:26:59,NA,incomplete,193,color,1,right,Blue_Triangle_Grid_4.jpg,Purple_Plus_Dots_4.jpg,Blue_Circle_Chess_2.jpg,right,737,true,low,false
hdhQZw3b,33ixyhizc8v0km0rv7j1cbq82t9e2g,3rwe2m8qwlnz528k0ln88unuvdr0nr,hdhQZw3b,2020-0188,2020-11-14,22:08:48,22:26:59,NA,incomplete,194,color,0,right,Red_Plus_Chess_1.jpg,Purple_Triangle_Dots_1.jpg,Red_Circle_Grid_4.jpg,right,521,true,low,false
hdhQZw3b,33ixyhizc8v0km0rv7j1cbq82t9e2g,3rwe2m8qwlnz528k0ln88unuvdr0nr,hdhQZw3b,2020-0188,2020-11-14,22:08:48,22:26:59,NA,incomplete,195,color,1,left,Green_Star_Chess_3.jpg,Green_Plus_Dots_1.jpg,Blue_Triangle_Grid_3.jpg,left,433,true,low,false
hdhQZw3b,33ixyhizc8v0km0rv7j1cbq82t9e2g,3rwe2m8qwlnz528k0ln88unuvdr0nr,hdhQZw3b,2020-0188,2020-11-14,22:08:48,22:26:59,NA,incomplete,196,color,1,right,Blue_Circle_Dots_1.jpg,Red_Plus_Stripes_1.jpg,Blue_Triangle_Grid_4.jpg,right,598,true,low,false
hdhQZw3b,33ixyhizc8v0km0rv7j1cbq82t9e2g,3rwe2m8qwlnz528k0ln88unuvdr0nr,hdhQZw3b,2020-0188,2020-11-14,22:08:48,22:26:59,NA,incomplete,197,color,1,left,Blue_Circle_Stripes_4.jpg,Blue_Star_Grid_2.jpg,Purple_Triangle_Dots_4.jpg,left,637,true,low,false
hdhQZw3b,33ixyhizc8v0km0rv7j1cbq82t9e2g,3rwe2m8qwlnz528k0ln88unuvdr0nr,hdhQZw3b,2020-0188,2020-11-14,22:08:48,22:26:59,NA,incomplete,198,color,1,right,Red_Circle_Stripes_3.jpg,Purple_Triangle_Chess_3.jpg,Red_Plus_Dots_1.jpg,left,542,false,low,false
hdhQZw3b,33ixyhizc8v0km0rv7j1cbq82t9e2g,3rwe2m8qwlnz528k0ln88unuvdr0nr,hdhQZw3b,2020-0188,2020-11-14,22:08:48,22:26:59,NA,incomplete,199,color,1,left,Blue_Star_Grid_4.jpg,Blue_Plus_Stripes_3.jpg,Green_Triangle_Chess_4.jpg,left,573,true,low,false
hdhQZw3b,33ixyhizc8v0km0rv7j1cbq82t9e2g,3rwe2m8qwlnz528k0ln88unuvdr0nr,hdhQZw3b,2020-0188,2020-11-14,22:08:48,22:26:59,NA,incomplete,200,number,1,left,Green_Circle_Stripes_1.jpg,Purple_Star_Dots_1.jpg,Green_Plus_Chess_2.jpg,right,522,false,low,false
hdhQZw3b,33ixyhizc8v0km0rv7j1cbq82t9e2g,3rwe2m8qwlnz528k0ln88unuvdr0nr,hdhQZw3b,2020-0188,2020-11-14,22:08:48,22:26:59,NA,incomplete,201,number,1,right,Green_Star_Dots_4.jpg,Green_Circle_Stripes_3.jpg,Red_Triangle_Chess_4.jpg,left,490,false,low,false
hdhQZw3b,33ixyhizc8v0km0rv7j1cbq82t9e2g,3rwe2m8qwlnz528k0ln88unuvdr0nr,hdhQZw3b,2020-0188,2020-11-14,22:08:48,22:26:59,NA,incomplete,202,number,1,left,Green_Triangle_Chess_3.jpg,Red_Star_Grid_3.jpg,Green_Plus_Stripes_1.jpg,right,556,false,low,false
hdhQZw3b,33ixyhizc8v0km0rv7j1cbq82t9e2g,3rwe2m8qwlnz528k0ln88unuvdr0nr,hdhQZw3b,2020-0188,2020-11-14,22:08:48,22:26:59,NA,incomplete,203,number,1,left,Blue_Star_Chess_1.jpg,Green_Circle_Stripes_1.jpg,Blue_Triangle_Grid_2.jpg,right,658,false,low,false
hdhQZw3b,33ixyhizc8v0km0rv7j1cbq82t9e2g,3rwe2m8qwlnz528k0ln88unuvdr0nr,hdhQZw3b,2020-0188,2020-11-14,22:08:48,22:26:59,NA,incomplete,204,number,1,left,Blue_Star_Chess_1.jpg,Purple_Circle_Grid_1.jpg,Blue_Triangle_Dots_4.jpg,left,693,true,low,false
hdhQZw3b,33ixyhizc8v0km0rv7j1cbq82t9e2g,3rwe2m8qwlnz528k0ln88unuvdr0nr,hdhQZw3b,2020-0188,2020-11-14,22:08:48,22:26:59,NA,incomplete,205,number,1,right,Red_Circle_Dots_4.jpg,Red_Plus_Stripes_2.jpg,Purple_Triangle_Grid_4.jpg,right,640,true,low,false
hdhQZw3b,33ixyhizc8v0km0rv7j1cbq82t9e2g,3rwe2m8qwlnz528k0ln88unuvdr0nr,hdhQZw3b,2020-0188,2020-11-14,22:08:48,22:26:59,NA,incomplete,206,number,0,left,Purple_Circle_Stripes_3.jpg,Green_Plus_Grid_3.jpg,Purple_Triangle_Chess_4.jpg,left,647,true,low,false
hdhQZw3b,33ixyhizc8v0km0rv7j1cbq82t9e2g,3rwe2m8qwlnz528k0ln88unuvdr0nr,hdhQZw3b,2020-0188,2020-11-14,22:08:48,22:26:59,NA,incomplete,207,number,1,left,Purple_Plus_Chess_2.jpg,Blue_Circle_Stripes_2.jpg,Purple_Triangle_Grid_3.jpg,left,885,true,low,false
hdhQZw3b,33ixyhizc8v0km0rv7j1cbq82t9e2g,3rwe2m8qwlnz528k0ln88unuvdr0nr,hdhQZw3b,2020-0188,2020-11-14,22:08:48,22:26:59,NA,incomplete,208,number,0,left,Purple_Circle_Stripes_4.jpg,Blue_Star_Dots_4.jpg,Purple_Triangle_Chess_3.jpg,left,762,true,low,false
hdhQZw3b,33ixyhizc8v0km0rv7j1cbq82t9e2g,3rwe2m8qwlnz528k0ln88unuvdr0nr,hdhQZw3b,2020-0188,2020-11-14,22:08:48,22:26:59,NA,incomplete,209,number,1,right,Blue_Plus_Chess_2.jpg,Blue_Circle_Dots_3.jpg,Purple_Star_Stripes_2.jpg,right,625,true,low,false
hdhQZw3b,33ixyhizc8v0km0rv7j1cbq82t9e2g,3rwe2m8qwlnz528k0ln88unuvdr0nr,hdhQZw3b,2020-0188,2020-11-14,22:08:48,22:26:59,NA,incomplete,210,number,1,right,Purple_Plus_Grid_3.jpg,Purple_Star_Stripes_2.jpg,Blue_Circle_Chess_3.jpg,right,883,true,low,false
hdhQZw3b,33ixyhizc8v0km0rv7j1cbq82t9e2g,3rwe2m8qwlnz528k0ln88unuvdr0nr,hdhQZw3b,2020-0188,2020-11-14,22:08:48,22:26:59,NA,incomplete,211,number,0,left,Purple_Plus_Grid_3.jpg,Red_Star_Stripes_3.jpg,Purple_Triangle_Dots_1.jpg,left,693,true,low,false
hdhQZw3b,33ixyhizc8v0km0rv7j1cbq82t9e2g,3rwe2m8qwlnz528k0ln88unuvdr0nr,hdhQZw3b,2020-0188,2020-11-14,22:08:48,22:26:59,NA,incomplete,212,number,1,right,Green_Star_Grid_3.jpg,Green_Plus_Chess_4.jpg,Blue_Triangle_Dots_3.jpg,right,746,true,low,false
hdhQZw3b,33ixyhizc8v0km0rv7j1cbq82t9e2g,3rwe2m8qwlnz528k0ln88unuvdr0nr,hdhQZw3b,2020-0188,2020-11-14,22:08:48,22:26:59,NA,incomplete,213,number,1,right,Green_Triangle_Dots_3.jpg,Green_Circle_Stripes_4.jpg,Red_Plus_Grid_3.jpg,right,760,true,low,false
hdhQZw3b,33ixyhizc8v0km0rv7j1cbq82t9e2g,3rwe2m8qwlnz528k0ln88unuvdr0nr,hdhQZw3b,2020-0188,2020-11-14,22:08:48,22:26:59,NA,incomplete,214,number,1,left,Purple_Plus_Stripes_4.jpg,Green_Star_Grid_4.jpg,Purple_Circle_Chess_1.jpg,left,583,true,low,false
hdhQZw3b,33ixyhizc8v0km0rv7j1cbq82t9e2g,3rwe2m8qwlnz528k0ln88unuvdr0nr,hdhQZw3b,2020-0188,2020-11-14,22:08:48,22:26:59,NA,incomplete,215,number,1,right,Green_Star_Chess_2.jpg,Green_Triangle_Dots_4.jpg,Purple_Circle_Stripes_2.jpg,right,965,true,low,false
hdhQZw3b,33ixyhizc8v0km0rv7j1cbq82t9e2g,3rwe2m8qwlnz528k0ln88unuvdr0nr,hdhQZw3b,2020-0188,2020-11-14,22:08:48,22:26:59,NA,incomplete,216,number,0,left,Green_Star_Grid_3.jpg,Red_Triangle_Dots_3.jpg,Green_Plus_Chess_4.jpg,left,723,true,low,false
hdhQZw3b,33ixyhizc8v0km0rv7j1cbq82t9e2g,3rwe2m8qwlnz528k0ln88unuvdr0nr,hdhQZw3b,2020-0188,2020-11-14,22:08:48,22:26:59,NA,incomplete,217,number,1,right,Red_Star_Chess_1.jpg,Red_Circle_Dots_3.jpg,Green_Plus_Grid_1.jpg,right,716,true,low,false
hdhQZw3b,33ixyhizc8v0km0rv7j1cbq82t9e2g,3rwe2m8qwlnz528k0ln88unuvdr0nr,hdhQZw3b,2020-0188,2020-11-14,22:08:48,22:26:59,NA,incomplete,218,number,1,right,Red_Triangle_Chess_2.jpg,Red_Plus_Grid_3.jpg,Blue_Star_Dots_2.jpg,right,732,true,low,false
hdhQZw3b,33ixyhizc8v0km0rv7j1cbq82t9e2g,3rwe2m8qwlnz528k0ln88unuvdr0nr,hdhQZw3b,2020-0188,2020-11-14,22:08:48,22:26:59,NA,incomplete,219,number,1,right,Red_Plus_Stripes_3.jpg,Red_Circle_Chess_1.jpg,Purple_Star_Dots_3.jpg,right,540,true,low,false
hdhQZw3b,33ixyhizc8v0km0rv7j1cbq82t9e2g,3rwe2m8qwlnz528k0ln88unuvdr0nr,hdhQZw3b,2020-0188,2020-11-14,22:08:48,22:26:59,NA,incomplete,220,color,0,right,Green_Triangle_Dots_3.jpg,Red_Circle_Chess_3.jpg,Green_Plus_Stripes_2.jpg,left,1066,false,low,false
hdhQZw3b,33ixyhizc8v0km0rv7j1cbq82t9e2g,3rwe2m8qwlnz528k0ln88unuvdr0nr,hdhQZw3b,2020-0188,2020-11-14,22:08:48,22:26:59,NA,incomplete,221,color,1,left,Purple_Triangle_Chess_1.jpg,Purple_Plus_Stripes_3.jpg,Blue_Circle_Dots_1.jpg,right,714,false,low,false
hdhQZw3b,33ixyhizc8v0km0rv7j1cbq82t9e2g,3rwe2m8qwlnz528k0ln88unuvdr0nr,hdhQZw3b,2020-0188,2020-11-14,22:08:48,22:26:59,NA,incomplete,222,color,1,left,Blue_Star_Grid_4.jpg,Blue_Plus_Dots_3.jpg,Green_Circle_Chess_4.jpg,right,1004,false,low,false
hdhQZw3b,33ixyhizc8v0km0rv7j1cbq82t9e2g,3rwe2m8qwlnz528k0ln88unuvdr0nr,hdhQZw3b,2020-0188,2020-11-14,22:08:48,22:26:59,NA,incomplete,223,color,0,right,Green_Circle_Grid_4.jpg,Red_Triangle_Dots_4.jpg,Green_Star_Stripes_1.jpg,left,618,false,low,false
hdhQZw3b,33ixyhizc8v0km0rv7j1cbq82t9e2g,3rwe2m8qwlnz528k0ln88unuvdr0nr,hdhQZw3b,2020-0188,2020-11-14,22:08:48,22:26:59,NA,incomplete,224,color,1,right,Green_Circle_Grid_1.jpg,Purple_Star_Stripes_1.jpg,Green_Plus_Chess_4.jpg,right,569,true,low,false
hdhQZw3b,33ixyhizc8v0km0rv7j1cbq82t9e2g,3rwe2m8qwlnz528k0ln88unuvdr0nr,hdhQZw3b,2020-0188,2020-11-14,22:08:48,22:26:59,NA,incomplete,225,color,1,right,Red_Circle_Stripes_3.jpg,Green_Triangle_Grid_3.jpg,Red_Plus_Chess_1.jpg,left,980,false,low,false
hdhQZw3b,33ixyhizc8v0km0rv7j1cbq82t9e2g,3rwe2m8qwlnz528k0ln88unuvdr0nr,hdhQZw3b,2020-0188,2020-11-14,22:08:48,22:26:59,NA,incomplete,226,color,0,right,Green_Circle_Stripes_3.jpg,Blue_Star_Chess_3.jpg,Green_Plus_Grid_1.jpg,right,645,true,low,false
hdhQZw3b,33ixyhizc8v0km0rv7j1cbq82t9e2g,3rwe2m8qwlnz528k0ln88unuvdr0nr,hdhQZw3b,2020-0188,2020-11-14,22:08:48,22:26:59,NA,incomplete,227,color,1,right,Red_Triangle_Grid_3.jpg,Blue_Circle_Dots_3.jpg,Red_Plus_Stripes_4.jpg,right,621,true,low,false
hdhQZw3b,33ixyhizc8v0km0rv7j1cbq82t9e2g,3rwe2m8qwlnz528k0ln88unuvdr0nr,hdhQZw3b,2020-0188,2020-11-14,22:08:48,22:26:59,NA,incomplete,228,color,1,right,Blue_Circle_Dots_2.jpg,Red_Triangle_Stripes_2.jpg,Blue_Plus_Chess_3.jpg,right,603,true,low,false
hdhQZw3b,33ixyhizc8v0km0rv7j1cbq82t9e2g,3rwe2m8qwlnz528k0ln88unuvdr0nr,hdhQZw3b,2020-0188,2020-11-14,22:08:48,22:26:59,NA,incomplete,229,color,1,right,Purple_Star_Stripes_2.jpg,Red_Circle_Chess_2.jpg,Purple_Triangle_Dots_4.jpg,right,531,true,low,false
hdhQZw3b,33ixyhizc8v0km0rv7j1cbq82t9e2g,3rwe2m8qwlnz528k0ln88unuvdr0nr,hdhQZw3b,2020-0188,2020-11-14,22:08:48,22:26:59,NA,incomplete,230,color,1,right,Blue_Star_Dots_2.jpg,Red_Circle_Grid_2.jpg,Blue_Plus_Chess_1.jpg,right,497,true,low,false
hdhQZw3b,33ixyhizc8v0km0rv7j1cbq82t9e2g,3rwe2m8qwlnz528k0ln88unuvdr0nr,hdhQZw3b,2020-0188,2020-11-14,22:08:48,22:26:59,NA,incomplete,231,color,1,right,Red_Circle_Chess_2.jpg,Green_Plus_Dots_2.jpg,Red_Triangle_Stripes_4.jpg,right,514,true,low,false
hdhQZw3b,33ixyhizc8v0km0rv7j1cbq82t9e2g,3rwe2m8qwlnz528k0ln88unuvdr0nr,hdhQZw3b,2020-0188,2020-11-14,22:08:48,22:26:59,NA,incomplete,232,color,1,left,Red_Plus_Dots_2.jpg,Red_Star_Stripes_1.jpg,Green_Circle_Chess_2.jpg,left,504,true,low,false
hdhQZw3b,33ixyhizc8v0km0rv7j1cbq82t9e2g,3rwe2m8qwlnz528k0ln88unuvdr0nr,hdhQZw3b,2020-0188,2020-11-14,22:08:48,22:26:59,NA,incomplete,233,color,0,left,Green_Triangle_Chess_4.jpg,Green_Plus_Grid_3.jpg,Red_Star_Stripes_4.jpg,left,450,true,low,false
hdhQZw3b,33ixyhizc8v0km0rv7j1cbq82t9e2g,3rwe2m8qwlnz528k0ln88unuvdr0nr,hdhQZw3b,2020-0188,2020-11-14,22:08:48,22:26:59,NA,incomplete,234,color,1,right,Red_Circle_Grid_4.jpg,Green_Star_Stripes_4.jpg,Red_Plus_Dots_1.jpg,right,530,true,low,false
hdhQZw3b,33ixyhizc8v0km0rv7j1cbq82t9e2g,3rwe2m8qwlnz528k0ln88unuvdr0nr,hdhQZw3b,2020-0188,2020-11-14,22:08:48,22:26:59,NA,incomplete,235,color,0,left,Red_Star_Grid_4.jpg,Red_Circle_Stripes_2.jpg,Purple_Triangle_Chess_4.jpg,left,537,true,low,false
hdhQZw3b,33ixyhizc8v0km0rv7j1cbq82t9e2g,3rwe2m8qwlnz528k0ln88unuvdr0nr,hdhQZw3b,2020-0188,2020-11-14,22:08:48,22:26:59,NA,incomplete,236,color,1,left,Blue_Triangle_Grid_4.jpg,Blue_Circle_Chess_3.jpg,Green_Star_Stripes_4.jpg,left,513,true,low,false
hdhQZw3b,33ixyhizc8v0km0rv7j1cbq82t9e2g,3rwe2m8qwlnz528k0ln88unuvdr0nr,hdhQZw3b,2020-0188,2020-11-14,22:08:48,22:26:59,NA,incomplete,237,color,1,right,Blue_Circle_Dots_4.jpg,Red_Plus_Chess_4.jpg,Blue_Star_Grid_3.jpg,right,443,true,low,false
hdhQZw3b,33ixyhizc8v0km0rv7j1cbq82t9e2g,3rwe2m8qwlnz528k0ln88unuvdr0nr,hdhQZw3b,2020-0188,2020-11-14,22:08:48,22:26:59,NA,incomplete,238,color,1,left,Purple_Star_Chess_1.jpg,Purple_Circle_Stripes_2.jpg,Red_Plus_Grid_1.jpg,left,468,true,low,false
hdhQZw3b,33ixyhizc8v0km0rv7j1cbq82t9e2g,3rwe2m8qwlnz528k0ln88unuvdr0nr,hdhQZw3b,2020-0188,2020-11-14,22:08:48,22:26:59,NA,incomplete,239,color,1,right,Purple_Circle_Chess_3.jpg,Red_Star_Dots_3.jpg,Purple_Plus_Stripes_2.jpg,right,1041,true,low,false
hdhQZw3b,33ixyhizc8v0km0rv7j1cbq82t9e2g,3rwe2m8qwlnz528k0ln88unuvdr0nr,hdhQZw3b,2020-0188,2020-11-14,22:08:48,22:26:59,1048131,1091149,NA,NA,NA,NA,NA,NA,NA,NA,NA,NA,NA,undefined
