workerId,hitId,assignmentId,subject,studyid,exp_date,exp_start,exp_end,time_start,time_end,trial,type,reward_validity,answer,image_top,image_left,image_right,response,response_time,response_acc,volatility,age,race,gender,ethnicity,color,vision,neuro,practice
ufT3gHyh,3zvpamtjxqgf8kd3gsoqdmjsr77grt,3s3amizx3yiadicnn72p7qd1s9adcr,ufT3gHyh,2020-0188,2020-11-21,10:55:07,11:16:07,NA,incomplete,0,number,1,left,Red_Circle_Grid_4.jpg,Purple_Plus_Chess_4.jpg,Blue_Triangle_Grid_1.jpg,left,1700.184999994235,true,NA,NA,NA,NA,NA,NA,NA,NA,true
ufT3gHyh,3zvpamtjxqgf8kd3gsoqdmjsr77grt,3s3amizx3yiadicnn72p7qd1s9adcr,ufT3gHyh,2020-0188,2020-11-21,10:55:07,11:16:07,NA,incomplete,1,number,1,right,Red_Plus_Stripes_1.jpg,Purple_Star_Stripes_4.jpg,Blue_Triangle_Grid_1.jpg,right,1722.1450000070035,true,NA,NA,NA,NA,NA,NA,NA,NA,true
ufT3gHyh,3zvpamtjxqgf8kd3gsoqdmjsr77grt,3s3amizx3yiadicnn72p7qd1s9adcr,ufT3gHyh,2020-0188,2020-11-21,10:55:07,11:16:07,NA,incomplete,2,number,1,left,Green_Triangle_Grid_4.jpg,Blue_Star_Stripes_4.jpg,Purple_Circle_Grid_3.jpg,left,1079.4150000147056,true,NA,NA,NA,NA,NA,NA,NA,NA,true
ufT3gHyh,3zvpamtjxqgf8kd3gsoqdmjsr77grt,3s3amizx3yiadicnn72p7qd1s9adcr,ufT3gHyh,2020-0188,2020-11-21,10:55:07,11:16:07,NA,incomplete,3,number,1,left,Purple_Star_Stripes_1.jpg,Blue_Triangle_Grid_1.jpg,Red_Plus_Stripes_2.jpg,left,852.389999985462,true,NA,NA,NA,NA,NA,NA,NA,NA,true
ufT3gHyh,3zvpamtjxqgf8kd3gsoqdmjsr77grt,3s3amizx3yiadicnn72p7qd1s9adcr,ufT3gHyh,2020-0188,2020-11-21,10:55:07,11:16:07,NA,incomplete,4,number,1,right,Purple_Star_Stripes_3.jpg,Green_Triangle_Stripes_4.jpg,Blue_Circle_Chess_3.jpg,right,820.6449999997858,true,NA,NA,NA,NA,NA,NA,NA,NA,true
ufT3gHyh,3zvpamtjxqgf8kd3gsoqdmjsr77grt,3s3amizx3yiadicnn72p7qd1s9adcr,ufT3gHyh,2020-0188,2020-11-21,10:55:07,11:16:07,NA,incomplete,5,number,0,right,Green_Star_Stripes_2.jpg,Blue_Circle_Stripes_4.jpg,Purple_Plus_Dots_2.jpg,right,1070.8149999845773,true,NA,NA,NA,NA,NA,NA,NA,NA,true
ufT3gHyh,3zvpamtjxqgf8kd3gsoqdmjsr77grt,3s3amizx3yiadicnn72p7qd1s9adcr,ufT3gHyh,2020-0188,2020-11-21,10:55:07,11:16:07,NA,incomplete,6,number,1,right,Purple_Star_Stripes_1.jpg,Green_Plus_Stripes_4.jpg,Red_Circle_Chess_1.jpg,right,1197.5450000027195,true,NA,NA,NA,NA,NA,NA,NA,NA,true
ufT3gHyh,3zvpamtjxqgf8kd3gsoqdmjsr77grt,3s3amizx3yiadicnn72p7qd1s9adcr,ufT3gHyh,2020-0188,2020-11-21,10:55:07,11:16:07,NA,incomplete,7,number,1,right,Purple_Star_Chess_1.jpg,Green_Triangle_Chess_4.jpg,Blue_Plus_Grid_1.jpg,right,760.9300000185613,true,NA,NA,NA,NA,NA,NA,NA,NA,true
ufT3gHyh,3zvpamtjxqgf8kd3gsoqdmjsr77grt,3s3amizx3yiadicnn72p7qd1s9adcr,ufT3gHyh,2020-0188,2020-11-21,10:55:07,11:16:07,NA,incomplete,8,number,1,right,Purple_Circle_Dots_2.jpg,Red_Plus_Dots_1.jpg,Blue_Star_Chess_2.jpg,right,1058.5599999758415,true,NA,NA,NA,NA,NA,NA,NA,NA,true
ufT3gHyh,3zvpamtjxqgf8kd3gsoqdmjsr77grt,3s3amizx3yiadicnn72p7qd1s9adcr,ufT3gHyh,2020-0188,2020-11-21,10:55:07,11:16:07,NA,incomplete,9,number,1,left,Green_Plus_Dots_2.jpg,Purple_Circle_Stripes_2.jpg,Blue_Triangle_Dots_3.jpg,left,845.5149999936111,true,NA,NA,NA,NA,NA,NA,NA,NA,true
ufT3gHyh,3zvpamtjxqgf8kd3gsoqdmjsr77grt,3s3amizx3yiadicnn72p7qd1s9adcr,ufT3gHyh,2020-0188,2020-11-21,10:55:07,11:16:07,NA,incomplete,10,number,1,right,Green_Star_Chess_2.jpg,Blue_Triangle_Chess_1.jpg,Red_Plus_Grid_2.jpg,right,945.1999999873806,true,NA,NA,NA,NA,NA,NA,NA,NA,true
ufT3gHyh,3zvpamtjxqgf8kd3gsoqdmjsr77grt,3s3amizx3yiadicnn72p7qd1s9adcr,ufT3gHyh,2020-0188,2020-11-21,10:55:07,11:16:07,NA,incomplete,11,number,1,right,Purple_Star_Chess_2.jpg,Green_Circle_Chess_1.jpg,Red_Plus_Dots_2.jpg,right,705.8749999850988,true,NA,NA,NA,NA,NA,NA,NA,NA,true
ufT3gHyh,3zvpamtjxqgf8kd3gsoqdmjsr77grt,3s3amizx3yiadicnn72p7qd1s9adcr,ufT3gHyh,2020-0188,2020-11-21,10:55:07,11:16:07,NA,incomplete,12,number,1,left,Red_Circle_Chess_3.jpg,Green_Star_Dots_3.jpg,Purple_Triangle_Chess_2.jpg,left,863.8800000189804,true,NA,NA,NA,NA,NA,NA,NA,NA,true
ufT3gHyh,3zvpamtjxqgf8kd3gsoqdmjsr77grt,3s3amizx3yiadicnn72p7qd1s9adcr,ufT3gHyh,2020-0188,2020-11-21,10:55:07,11:16:07,NA,incomplete,13,number,1,left,Blue_Circle_Stripes_1.jpg,Green_Triangle_Chess_1.jpg,Red_Plus_Stripes_2.jpg,left,1250.1200000115205,true,NA,NA,NA,NA,NA,NA,NA,NA,true
ufT3gHyh,3zvpamtjxqgf8kd3gsoqdmjsr77grt,3s3amizx3yiadicnn72p7qd1s9adcr,ufT3gHyh,2020-0188,2020-11-21,10:55:07,11:16:07,NA,incomplete,14,number,1,left,Green_Circle_Dots_1.jpg,Red_Plus_Grid_1.jpg,Blue_Triangle_Dots_4.jpg,left,670.2999999979511,true,NA,NA,NA,NA,NA,NA,NA,NA,true
ufT3gHyh,3zvpamtjxqgf8kd3gsoqdmjsr77grt,3s3amizx3yiadicnn72p7qd1s9adcr,ufT3gHyh,2020-0188,2020-11-21,10:55:07,11:16:07,NA,incomplete,15,number,1,left,Blue_Star_Grid_4.jpg,Green_Triangle_Dots_4.jpg,Red_Plus_Grid_3.jpg,left,1141.0199999809265,true,NA,NA,NA,NA,NA,NA,NA,NA,true
ufT3gHyh,3zvpamtjxqgf8kd3gsoqdmjsr77grt,3s3amizx3yiadicnn72p7qd1s9adcr,ufT3gHyh,2020-0188,2020-11-21,10:55:07,11:16:07,NA,incomplete,16,number,0,left,Blue_Triangle_Stripes_2.jpg,Red_Circle_Grid_2.jpg,Purple_Plus_Stripes_1.jpg,left,955.5800000089221,true,NA,NA,NA,NA,NA,NA,NA,NA,true
ufT3gHyh,3zvpamtjxqgf8kd3gsoqdmjsr77grt,3s3amizx3yiadicnn72p7qd1s9adcr,ufT3gHyh,2020-0188,2020-11-21,10:55:07,11:16:07,NA,incomplete,17,number,0,left,Purple_Star_Chess_4.jpg,Red_Circle_Dots_4.jpg,Green_Triangle_Chess_1.jpg,left,1031.010000006063,true,NA,NA,NA,NA,NA,NA,NA,NA,true
ufT3gHyh,3zvpamtjxqgf8kd3gsoqdmjsr77grt,3s3amizx3yiadicnn72p7qd1s9adcr,ufT3gHyh,2020-0188,2020-11-21,10:55:07,11:16:07,NA,incomplete,18,number,1,left,Red_Plus_Stripes_3.jpg,Blue_Circle_Chess_3.jpg,Green_Star_Stripes_1.jpg,left,1449.7550000087358,true,NA,NA,NA,NA,NA,NA,NA,NA,true
ufT3gHyh,3zvpamtjxqgf8kd3gsoqdmjsr77grt,3s3amizx3yiadicnn72p7qd1s9adcr,ufT3gHyh,2020-0188,2020-11-21,10:55:07,11:16:07,NA,incomplete,19,number,1,left,Purple_Star_Grid_1.jpg,Blue_Triangle_Dots_1.jpg,Green_Plus_Grid_2.jpg,left,907.9300000157673,true,NA,NA,NA,NA,NA,NA,NA,NA,true
ufT3gHyh,3zvpamtjxqgf8kd3gsoqdmjsr77grt,3s3amizx3yiadicnn72p7qd1s9adcr,ufT3gHyh,2020-0188,2020-11-21,10:55:07,11:16:07,NA,incomplete,20,filling,1,right,Red_Plus_Grid_1.jpg,Green_Circle_Chess_1.jpg,Blue_Star_Grid_3.jpg,none,0,false,NA,NA,NA,NA,NA,NA,NA,NA,true
ufT3gHyh,3zvpamtjxqgf8kd3gsoqdmjsr77grt,3s3amizx3yiadicnn72p7qd1s9adcr,ufT3gHyh,2020-0188,2020-11-21,10:55:07,11:16:07,NA,incomplete,21,filling,1,right,Red_Star_Dots_1.jpg,Purple_Triangle_Stripes_1.jpg,Green_Plus_Dots_3.jpg,right,1390.4299999994691,true,NA,NA,NA,NA,NA,NA,NA,NA,true
ufT3gHyh,3zvpamtjxqgf8kd3gsoqdmjsr77grt,3s3amizx3yiadicnn72p7qd1s9adcr,ufT3gHyh,2020-0188,2020-11-21,10:55:07,11:16:07,NA,incomplete,22,filling,0,right,Red_Star_Dots_3.jpg,Green_Triangle_Chess_3.jpg,Purple_Plus_Dots_1.jpg,right,1040.2800000156276,true,NA,NA,NA,NA,NA,NA,NA,NA,true
ufT3gHyh,3zvpamtjxqgf8kd3gsoqdmjsr77grt,3s3amizx3yiadicnn72p7qd1s9adcr,ufT3gHyh,2020-0188,2020-11-21,10:55:07,11:16:07,NA,incomplete,23,filling,1,right,Green_Circle_Chess_1.jpg,Blue_Triangle_Stripes_1.jpg,Red_Plus_Chess_4.jpg,right,1398.319999978412,true,NA,NA,NA,NA,NA,NA,NA,NA,true
ufT3gHyh,3zvpamtjxqgf8kd3gsoqdmjsr77grt,3s3amizx3yiadicnn72p7qd1s9adcr,ufT3gHyh,2020-0188,2020-11-21,10:55:07,11:16:07,NA,incomplete,24,filling,1,right,Blue_Triangle_Grid_4.jpg,Red_Plus_Dots_4.jpg,Green_Star_Grid_3.jpg,right,1252.1399999968708,true,NA,NA,NA,NA,NA,NA,NA,NA,true
ufT3gHyh,3zvpamtjxqgf8kd3gsoqdmjsr77grt,3s3amizx3yiadicnn72p7qd1s9adcr,ufT3gHyh,2020-0188,2020-11-21,10:55:07,11:16:07,NA,incomplete,25,filling,1,right,Green_Star_Chess_3.jpg,Red_Circle_Stripes_3.jpg,Purple_Triangle_Chess_2.jpg,right,1170.1100000063889,true,NA,NA,NA,NA,NA,NA,NA,NA,true
ufT3gHyh,3zvpamtjxqgf8kd3gsoqdmjsr77grt,3s3amizx3yiadicnn72p7qd1s9adcr,ufT3gHyh,2020-0188,2020-11-21,10:55:07,11:16:07,NA,incomplete,26,filling,1,left,Green_Plus_Stripes_2.jpg,Red_Triangle_Stripes_4.jpg,Blue_Star_Chess_2.jpg,left,847.4949999945238,true,NA,NA,NA,NA,NA,NA,NA,NA,true
ufT3gHyh,3zvpamtjxqgf8kd3gsoqdmjsr77grt,3s3amizx3yiadicnn72p7qd1s9adcr,ufT3gHyh,2020-0188,2020-11-21,10:55:07,11:16:07,NA,incomplete,27,filling,1,left,Red_Circle_Grid_2.jpg,Purple_Triangle_Grid_4.jpg,Green_Plus_Stripes_2.jpg,left,973.3450000057928,true,NA,NA,NA,NA,NA,NA,NA,NA,true
ufT3gHyh,3zvpamtjxqgf8kd3gsoqdmjsr77grt,3s3amizx3yiadicnn72p7qd1s9adcr,ufT3gHyh,2020-0188,2020-11-21,10:55:07,11:16:07,NA,incomplete,28,filling,1,left,Purple_Plus_Grid_1.jpg,Green_Triangle_Grid_3.jpg,Blue_Star_Dots_1.jpg,left,777.4150000186637,true,NA,NA,NA,NA,NA,NA,NA,NA,true
ufT3gHyh,3zvpamtjxqgf8kd3gsoqdmjsr77grt,3s3amizx3yiadicnn72p7qd1s9adcr,ufT3gHyh,2020-0188,2020-11-21,10:55:07,11:16:07,NA,incomplete,29,filling,1,left,Purple_Circle_Stripes_3.jpg,Red_Plus_Stripes_1.jpg,Green_Star_Dots_3.jpg,left,994.1300000064075,true,NA,NA,NA,NA,NA,NA,NA,NA,true
ufT3gHyh,3zvpamtjxqgf8kd3gsoqdmjsr77grt,3s3amizx3yiadicnn72p7qd1s9adcr,ufT3gHyh,2020-0188,2020-11-21,10:55:07,11:16:07,NA,incomplete,30,filling,0,right,Red_Triangle_Chess_1.jpg,Green_Circle_Stripes_1.jpg,Blue_Plus_Chess_2.jpg,right,725.5299999960698,true,NA,NA,NA,NA,NA,NA,NA,NA,true
ufT3gHyh,3zvpamtjxqgf8kd3gsoqdmjsr77grt,3s3amizx3yiadicnn72p7qd1s9adcr,ufT3gHyh,2020-0188,2020-11-21,10:55:07,11:16:07,NA,incomplete,31,filling,1,left,Blue_Plus_Chess_1.jpg,Red_Star_Chess_4.jpg,Purple_Circle_Stripes_1.jpg,left,1068.4049999981653,true,NA,NA,NA,NA,NA,NA,NA,NA,true
ufT3gHyh,3zvpamtjxqgf8kd3gsoqdmjsr77grt,3s3amizx3yiadicnn72p7qd1s9adcr,ufT3gHyh,2020-0188,2020-11-21,10:55:07,11:16:07,NA,incomplete,32,filling,0,right,Green_Plus_Stripes_4.jpg,Purple_Triangle_Dots_4.jpg,Blue_Star_Stripes_1.jpg,right,1068.5600000142585,true,NA,NA,NA,NA,NA,NA,NA,NA,true
ufT3gHyh,3zvpamtjxqgf8kd3gsoqdmjsr77grt,3s3amizx3yiadicnn72p7qd1s9adcr,ufT3gHyh,2020-0188,2020-11-21,10:55:07,11:16:07,NA,incomplete,33,filling,1,right,Green_Triangle_Chess_1.jpg,Red_Circle_Stripes_1.jpg,Purple_Star_Chess_4.jpg,right,1445.3949999879114,true,NA,NA,NA,NA,NA,NA,NA,NA,true
ufT3gHyh,3zvpamtjxqgf8kd3gsoqdmjsr77grt,3s3amizx3yiadicnn72p7qd1s9adcr,ufT3gHyh,2020-0188,2020-11-21,10:55:07,11:16:07,NA,incomplete,34,filling,1,right,Purple_Circle_Grid_1.jpg,Blue_Star_Chess_1.jpg,Green_Plus_Grid_3.jpg,right,1322.7500000211876,true,NA,NA,NA,NA,NA,NA,NA,NA,true
ufT3gHyh,3zvpamtjxqgf8kd3gsoqdmjsr77grt,3s3amizx3yiadicnn72p7qd1s9adcr,ufT3gHyh,2020-0188,2020-11-21,10:55:07,11:16:07,NA,incomplete,35,filling,1,left,Red_Triangle_Chess_2.jpg,Blue_Circle_Chess_4.jpg,Green_Plus_Dots_2.jpg,left,1163.0849999783095,true,NA,NA,NA,NA,NA,NA,NA,NA,true
ufT3gHyh,3zvpamtjxqgf8kd3gsoqdmjsr77grt,3s3amizx3yiadicnn72p7qd1s9adcr,ufT3gHyh,2020-0188,2020-11-21,10:55:07,11:16:07,NA,incomplete,36,filling,0,left,Blue_Plus_Grid_1.jpg,Green_Triangle_Grid_2.jpg,Red_Star_Dots_1.jpg,left,868.255000008503,true,NA,NA,NA,NA,NA,NA,NA,NA,true
ufT3gHyh,3zvpamtjxqgf8kd3gsoqdmjsr77grt,3s3amizx3yiadicnn72p7qd1s9adcr,ufT3gHyh,2020-0188,2020-11-21,10:55:07,11:16:07,NA,incomplete,37,filling,1,right,Blue_Plus_Stripes_1.jpg,Red_Triangle_Dots_1.jpg,Purple_Circle_Stripes_3.jpg,right,1088.6949999839999,true,NA,NA,NA,NA,NA,NA,NA,NA,true
ufT3gHyh,3zvpamtjxqgf8kd3gsoqdmjsr77grt,3s3amizx3yiadicnn72p7qd1s9adcr,ufT3gHyh,2020-0188,2020-11-21,10:55:07,11:16:07,NA,incomplete,38,filling,1,right,Green_Star_Stripes_1.jpg,Red_Triangle_Dots_1.jpg,Blue_Circle_Stripes_4.jpg,right,978.6449999955948,true,NA,NA,NA,NA,NA,NA,NA,NA,true
ufT3gHyh,3zvpamtjxqgf8kd3gsoqdmjsr77grt,3s3amizx3yiadicnn72p7qd1s9adcr,ufT3gHyh,2020-0188,2020-11-21,10:55:07,11:16:07,NA,incomplete,39,filling,0,left,Red_Star_Chess_4.jpg,Blue_Plus_Chess_1.jpg,Green_Circle_Stripes_4.jpg,left,1151.6549999942072,true,NA,NA,NA,NA,NA,NA,NA,NA,true
ufT3gHyh,3zvpamtjxqgf8kd3gsoqdmjsr77grt,3s3amizx3yiadicnn72p7qd1s9adcr,ufT3gHyh,2020-0188,2020-11-21,10:55:07,11:16:07,NA,incomplete,0,number,1,right,Red_Circle_Grid_2.jpg,Green_Triangle_Grid_4.jpg,Blue_Plus_Stripes_2.jpg,right,1406.4499999803957,true,high,NA,NA,NA,NA,NA,NA,NA,false
ufT3gHyh,3zvpamtjxqgf8kd3gsoqdmjsr77grt,3s3amizx3yiadicnn72p7qd1s9adcr,ufT3gHyh,2020-0188,2020-11-21,10:55:07,11:16:07,NA,incomplete,1,number,1,left,Red_Star_Grid_1.jpg,Blue_Circle_Stripes_1.jpg,Green_Plus_Grid_2.jpg,left,848.3599999744911,true,high,NA,NA,NA,NA,NA,NA,NA,false
ufT3gHyh,3zvpamtjxqgf8kd3gsoqdmjsr77grt,3s3amizx3yiadicnn72p7qd1s9adcr,ufT3gHyh,2020-0188,2020-11-21,10:55:07,11:16:07,NA,incomplete,2,number,1,right,Purple_Circle_Grid_1.jpg,Green_Plus_Grid_4.jpg,Blue_Triangle_Stripes_1.jpg,right,690.4549999744631,true,high,NA,NA,NA,NA,NA,NA,NA,false
ufT3gHyh,3zvpamtjxqgf8kd3gsoqdmjsr77grt,3s3amizx3yiadicnn72p7qd1s9adcr,ufT3gHyh,2020-0188,2020-11-21,10:55:07,11:16:07,NA,incomplete,3,number,1,right,Purple_Plus_Dots_3.jpg,Blue_Circle_Dots_1.jpg,Green_Star_Grid_3.jpg,right,1343.1149999960326,true,high,NA,NA,NA,NA,NA,NA,NA,false
ufT3gHyh,3zvpamtjxqgf8kd3gsoqdmjsr77grt,3s3amizx3yiadicnn72p7qd1s9adcr,ufT3gHyh,2020-0188,2020-11-21,10:55:07,11:16:07,NA,incomplete,4,number,1,left,Blue_Plus_Stripes_1.jpg,Green_Triangle_Grid_1.jpg,Red_Circle_Stripes_2.jpg,left,897.2100000246428,true,high,NA,NA,NA,NA,NA,NA,NA,false
ufT3gHyh,3zvpamtjxqgf8kd3gsoqdmjsr77grt,3s3amizx3yiadicnn72p7qd1s9adcr,ufT3gHyh,2020-0188,2020-11-21,10:55:07,11:16:07,NA,incomplete,5,number,1,right,Blue_Triangle_Dots_4.jpg,Green_Plus_Dots_2.jpg,Purple_Circle_Stripes_4.jpg,right,654.1500000166707,true,high,NA,NA,NA,NA,NA,NA,NA,false
ufT3gHyh,3zvpamtjxqgf8kd3gsoqdmjsr77grt,3s3amizx3yiadicnn72p7qd1s9adcr,ufT3gHyh,2020-0188,2020-11-21,10:55:07,11:16:07,NA,incomplete,6,number,1,left,Blue_Plus_Chess_1.jpg,Green_Star_Grid_1.jpg,Purple_Triangle_Chess_3.jpg,left,754.1149999888148,true,high,NA,NA,NA,NA,NA,NA,NA,false
ufT3gHyh,3zvpamtjxqgf8kd3gsoqdmjsr77grt,3s3amizx3yiadicnn72p7qd1s9adcr,ufT3gHyh,2020-0188,2020-11-21,10:55:07,11:16:07,NA,incomplete,7,number,1,left,Purple_Plus_Dots_4.jpg,Red_Star_Stripes_4.jpg,Blue_Triangle_Dots_3.jpg,left,763.1099999998696,true,high,NA,NA,NA,NA,NA,NA,NA,false
ufT3gHyh,3zvpamtjxqgf8kd3gsoqdmjsr77grt,3s3amizx3yiadicnn72p7qd1s9adcr,ufT3gHyh,2020-0188,2020-11-21,10:55:07,11:16:07,NA,incomplete,8,number,1,left,Green_Plus_Stripes_4.jpg,Purple_Triangle_Grid_4.jpg,Red_Circle_Stripes_2.jpg,left,616.3599999854341,true,high,NA,NA,NA,NA,NA,NA,NA,false
ufT3gHyh,3zvpamtjxqgf8kd3gsoqdmjsr77grt,3s3amizx3yiadicnn72p7qd1s9adcr,ufT3gHyh,2020-0188,2020-11-21,10:55:07,11:16:07,NA,incomplete,9,number,1,left,Green_Triangle_Chess_2.jpg,Blue_Star_Stripes_2.jpg,Purple_Plus_Chess_3.jpg,left,874.3149999936577,true,high,NA,NA,NA,NA,NA,NA,NA,false
ufT3gHyh,3zvpamtjxqgf8kd3gsoqdmjsr77grt,3s3amizx3yiadicnn72p7qd1s9adcr,ufT3gHyh,2020-0188,2020-11-21,10:55:07,11:16:07,NA,incomplete,10,filling,1,right,Blue_Circle_Stripes_1.jpg,Red_Plus_Grid_1.jpg,Purple_Star_Stripes_2.jpg,left,607.3250000190455,false,high,NA,NA,NA,NA,NA,NA,NA,false
ufT3gHyh,3zvpamtjxqgf8kd3gsoqdmjsr77grt,3s3amizx3yiadicnn72p7qd1s9adcr,ufT3gHyh,2020-0188,2020-11-21,10:55:07,11:16:07,NA,incomplete,11,filling,1,left,Green_Triangle_Stripes_3.jpg,Purple_Star_Stripes_2.jpg,Red_Plus_Dots_3.jpg,right,599.1100000101142,false,high,NA,NA,NA,NA,NA,NA,NA,false
ufT3gHyh,3zvpamtjxqgf8kd3gsoqdmjsr77grt,3s3amizx3yiadicnn72p7qd1s9adcr,ufT3gHyh,2020-0188,2020-11-21,10:55:07,11:16:07,NA,incomplete,12,filling,1,right,Purple_Triangle_Dots_3.jpg,Blue_Plus_Stripes_3.jpg,Red_Circle_Dots_4.jpg,right,920.2649999933783,true,high,NA,NA,NA,NA,NA,NA,NA,false
ufT3gHyh,3zvpamtjxqgf8kd3gsoqdmjsr77grt,3s3amizx3yiadicnn72p7qd1s9adcr,ufT3gHyh,2020-0188,2020-11-21,10:55:07,11:16:07,NA,incomplete,13,filling,1,left,Red_Triangle_Chess_4.jpg,Green_Star_Chess_3.jpg,Blue_Plus_Stripes_4.jpg,left,849.129999987781,true,high,NA,NA,NA,NA,NA,NA,NA,false
ufT3gHyh,3zvpamtjxqgf8kd3gsoqdmjsr77grt,3s3amizx3yiadicnn72p7qd1s9adcr,ufT3gHyh,2020-0188,2020-11-21,10:55:07,11:16:07,NA,incomplete,14,filling,1,right,Purple_Star_Stripes_1.jpg,Green_Circle_Chess_1.jpg,Red_Triangle_Stripes_4.jpg,right,847.9050000023562,true,high,NA,NA,NA,NA,NA,NA,NA,false
ufT3gHyh,3zvpamtjxqgf8kd3gsoqdmjsr77grt,3s3amizx3yiadicnn72p7qd1s9adcr,ufT3gHyh,2020-0188,2020-11-21,10:55:07,11:16:07,NA,incomplete,15,filling,1,left,Green_Circle_Grid_3.jpg,Blue_Star_Grid_1.jpg,Purple_Plus_Dots_3.jpg,left,1031.2750000157394,true,high,NA,NA,NA,NA,NA,NA,NA,false
ufT3gHyh,3zvpamtjxqgf8kd3gsoqdmjsr77grt,3s3amizx3yiadicnn72p7qd1s9adcr,ufT3gHyh,2020-0188,2020-11-21,10:55:07,11:16:07,NA,incomplete,16,filling,1,left,Green_Star_Grid_1.jpg,Purple_Plus_Grid_2.jpg,Red_Triangle_Dots_1.jpg,left,760.2449999831151,true,high,NA,NA,NA,NA,NA,NA,NA,false
ufT3gHyh,3zvpamtjxqgf8kd3gsoqdmjsr77grt,3s3amizx3yiadicnn72p7qd1s9adcr,ufT3gHyh,2020-0188,2020-11-21,10:55:07,11:16:07,NA,incomplete,17,filling,1,left,Blue_Circle_Stripes_3.jpg,Green_Plus_Stripes_4.jpg,Purple_Star_Grid_3.jpg,left,1187.5899999868125,true,high,NA,NA,NA,NA,NA,NA,NA,false
ufT3gHyh,3zvpamtjxqgf8kd3gsoqdmjsr77grt,3s3amizx3yiadicnn72p7qd1s9adcr,ufT3gHyh,2020-0188,2020-11-21,10:55:07,11:16:07,NA,incomplete,18,filling,1,left,Red_Triangle_Stripes_1.jpg,Purple_Circle_Stripes_2.jpg,Green_Plus_Chess_1.jpg,left,915.1150000107009,true,high,NA,NA,NA,NA,NA,NA,NA,false
ufT3gHyh,3zvpamtjxqgf8kd3gsoqdmjsr77grt,3s3amizx3yiadicnn72p7qd1s9adcr,ufT3gHyh,2020-0188,2020-11-21,10:55:07,11:16:07,NA,incomplete,19,filling,1,right,Purple_Circle_Stripes_3.jpg,Red_Plus_Grid_3.jpg,Green_Triangle_Stripes_1.jpg,right,841.6100000031292,true,high,NA,NA,NA,NA,NA,NA,NA,false
ufT3gHyh,3zvpamtjxqgf8kd3gsoqdmjsr77grt,3s3amizx3yiadicnn72p7qd1s9adcr,ufT3gHyh,2020-0188,2020-11-21,10:55:07,11:16:07,NA,incomplete,20,number,0,right,Purple_Triangle_Dots_3.jpg,Green_Star_Dots_2.jpg,Red_Plus_Stripes_3.jpg,left,865.7949999906123,false,high,NA,NA,NA,NA,NA,NA,NA,false
ufT3gHyh,3zvpamtjxqgf8kd3gsoqdmjsr77grt,3s3amizx3yiadicnn72p7qd1s9adcr,ufT3gHyh,2020-0188,2020-11-21,10:55:07,11:16:07,NA,incomplete,21,number,1,left,Green_Circle_Dots_1.jpg,Purple_Star_Chess_1.jpg,Red_Triangle_Dots_3.jpg,right,1396.214999986114,false,high,NA,NA,NA,NA,NA,NA,NA,false
ufT3gHyh,3zvpamtjxqgf8kd3gsoqdmjsr77grt,3s3amizx3yiadicnn72p7qd1s9adcr,ufT3gHyh,2020-0188,2020-11-21,10:55:07,11:16:07,NA,incomplete,22,number,1,left,Red_Circle_Chess_2.jpg,Blue_Plus_Dots_2.jpg,Green_Triangle_Chess_1.jpg,left,1561.7550000024494,true,high,NA,NA,NA,NA,NA,NA,NA,false
ufT3gHyh,3zvpamtjxqgf8kd3gsoqdmjsr77grt,3s3amizx3yiadicnn72p7qd1s9adcr,ufT3gHyh,2020-0188,2020-11-21,10:55:07,11:16:07,NA,incomplete,23,number,1,right,Purple_Star_Grid_1.jpg,Blue_Circle_Grid_2.jpg,Green_Plus_Dots_1.jpg,left,905.6799999962095,false,high,NA,NA,NA,NA,NA,NA,NA,false
ufT3gHyh,3zvpamtjxqgf8kd3gsoqdmjsr77grt,3s3amizx3yiadicnn72p7qd1s9adcr,ufT3gHyh,2020-0188,2020-11-21,10:55:07,11:16:07,NA,incomplete,24,number,1,left,Blue_Circle_Stripes_3.jpg,Green_Plus_Grid_3.jpg,Purple_Star_Stripes_1.jpg,left,836.29999999539,true,high,NA,NA,NA,NA,NA,NA,NA,false
ufT3gHyh,3zvpamtjxqgf8kd3gsoqdmjsr77grt,3s3amizx3yiadicnn72p7qd1s9adcr,ufT3gHyh,2020-0188,2020-11-21,10:55:07,11:16:07,NA,incomplete,25,number,1,left,Purple_Plus_Grid_2.jpg,Red_Triangle_Stripes_2.jpg,Blue_Circle_Grid_4.jpg,left,923.754999996163,true,high,NA,NA,NA,NA,NA,NA,NA,false
ufT3gHyh,3zvpamtjxqgf8kd3gsoqdmjsr77grt,3s3amizx3yiadicnn72p7qd1s9adcr,ufT3gHyh,2020-0188,2020-11-21,10:55:07,11:16:07,NA,incomplete,26,number,1,right,Green_Star_Chess_1.jpg,Red_Triangle_Chess_4.jpg,Blue_Circle_Dots_1.jpg,right,709.1549999895506,true,high,NA,NA,NA,NA,NA,NA,NA,false
ufT3gHyh,3zvpamtjxqgf8kd3gsoqdmjsr77grt,3s3amizx3yiadicnn72p7qd1s9adcr,ufT3gHyh,2020-0188,2020-11-21,10:55:07,11:16:07,NA,incomplete,27,number,1,left,Blue_Star_Stripes_1.jpg,Purple_Triangle_Dots_1.jpg,Green_Circle_Stripes_4.jpg,left,612.3500000103377,true,high,NA,NA,NA,NA,NA,NA,NA,false
ufT3gHyh,3zvpamtjxqgf8kd3gsoqdmjsr77grt,3s3amizx3yiadicnn72p7qd1s9adcr,ufT3gHyh,2020-0188,2020-11-21,10:55:07,11:16:07,NA,incomplete,28,number,1,right,Blue_Circle_Chess_3.jpg,Red_Triangle_Chess_1.jpg,Green_Star_Dots_3.jpg,right,566.4450000040233,true,high,NA,NA,NA,NA,NA,NA,NA,false
ufT3gHyh,3zvpamtjxqgf8kd3gsoqdmjsr77grt,3s3amizx3yiadicnn72p7qd1s9adcr,ufT3gHyh,2020-0188,2020-11-21,10:55:07,11:16:07,NA,incomplete,29,number,1,left,Purple_Triangle_Grid_3.jpg,Green_Plus_Dots_3.jpg,Red_Star_Grid_4.jpg,right,546.7449999996461,false,high,NA,NA,NA,NA,NA,NA,NA,false
ufT3gHyh,3zvpamtjxqgf8kd3gsoqdmjsr77grt,3s3amizx3yiadicnn72p7qd1s9adcr,ufT3gHyh,2020-0188,2020-11-21,10:55:07,11:16:07,NA,incomplete,30,filling,0,left,Blue_Triangle_Grid_1.jpg,Green_Circle_Grid_2.jpg,Purple_Plus_Dots_1.jpg,right,903.1200000026729,false,high,NA,NA,NA,NA,NA,NA,NA,false
ufT3gHyh,3zvpamtjxqgf8kd3gsoqdmjsr77grt,3s3amizx3yiadicnn72p7qd1s9adcr,ufT3gHyh,2020-0188,2020-11-21,10:55:07,11:16:07,NA,incomplete,31,filling,1,right,Green_Triangle_Stripes_2.jpg,Blue_Circle_Dots_2.jpg,Purple_Plus_Stripes_1.jpg,left,711.1049999948591,false,high,NA,NA,NA,NA,NA,NA,NA,false
ufT3gHyh,3zvpamtjxqgf8kd3gsoqdmjsr77grt,3s3amizx3yiadicnn72p7qd1s9adcr,ufT3gHyh,2020-0188,2020-11-21,10:55:07,11:16:07,NA,incomplete,32,filling,1,right,Blue_Star_Stripes_3.jpg,Red_Triangle_Dots_3.jpg,Green_Circle_Stripes_1.jpg,right,847.7350000175647,true,high,NA,NA,NA,NA,NA,NA,NA,false
ufT3gHyh,3zvpamtjxqgf8kd3gsoqdmjsr77grt,3s3amizx3yiadicnn72p7qd1s9adcr,ufT3gHyh,2020-0188,2020-11-21,10:55:07,11:16:07,NA,incomplete,33,filling,0,left,Purple_Plus_Dots_2.jpg,Red_Triangle_Dots_1.jpg,Blue_Circle_Stripes_2.jpg,left,870.6200000015087,true,high,NA,NA,NA,NA,NA,NA,NA,false
ufT3gHyh,3zvpamtjxqgf8kd3gsoqdmjsr77grt,3s3amizx3yiadicnn72p7qd1s9adcr,ufT3gHyh,2020-0188,2020-11-21,10:55:07,11:16:07,NA,incomplete,34,filling,1,right,Purple_Triangle_Grid_1.jpg,Green_Plus_Chess_1.jpg,Red_Star_Grid_2.jpg,left,742.9849999898579,false,high,NA,NA,NA,NA,NA,NA,NA,false
ufT3gHyh,3zvpamtjxqgf8kd3gsoqdmjsr77grt,3s3amizx3yiadicnn72p7qd1s9adcr,ufT3gHyh,2020-0188,2020-11-21,10:55:07,11:16:07,NA,incomplete,35,filling,1,left,Purple_Star_Chess_2.jpg,Green_Plus_Chess_3.jpg,Red_Triangle_Stripes_2.jpg,left,1004.2599999869708,true,high,NA,NA,NA,NA,NA,NA,NA,false
ufT3gHyh,3zvpamtjxqgf8kd3gsoqdmjsr77grt,3s3amizx3yiadicnn72p7qd1s9adcr,ufT3gHyh,2020-0188,2020-11-21,10:55:07,11:16:07,NA,incomplete,36,filling,1,right,Purple_Plus_Grid_1.jpg,Blue_Circle_Chess_1.jpg,Red_Star_Grid_4.jpg,right,924.7899999900255,true,high,NA,NA,NA,NA,NA,NA,NA,false
ufT3gHyh,3zvpamtjxqgf8kd3gsoqdmjsr77grt,3s3amizx3yiadicnn72p7qd1s9adcr,ufT3gHyh,2020-0188,2020-11-21,10:55:07,11:16:07,NA,incomplete,37,filling,1,right,Red_Plus_Dots_3.jpg,Blue_Triangle_Grid_3.jpg,Green_Circle_Dots_2.jpg,right,848.6249999841675,true,high,NA,NA,NA,NA,NA,NA,NA,false
ufT3gHyh,3zvpamtjxqgf8kd3gsoqdmjsr77grt,3s3amizx3yiadicnn72p7qd1s9adcr,ufT3gHyh,2020-0188,2020-11-21,10:55:07,11:16:07,NA,incomplete,38,filling,0,left,Purple_Circle_Grid_3.jpg,Blue_Plus_Grid_1.jpg,Green_Star_Chess_3.jpg,left,862.1899999852758,true,high,NA,NA,NA,NA,NA,NA,NA,false
ufT3gHyh,3zvpamtjxqgf8kd3gsoqdmjsr77grt,3s3amizx3yiadicnn72p7qd1s9adcr,ufT3gHyh,2020-0188,2020-11-21,10:55:07,11:16:07,NA,incomplete,39,filling,1,left,Green_Plus_Chess_3.jpg,Purple_Star_Chess_1.jpg,Blue_Circle_Grid_3.jpg,right,781.5950000076555,false,high,NA,NA,NA,NA,NA,NA,NA,false
ufT3gHyh,3zvpamtjxqgf8kd3gsoqdmjsr77grt,3s3amizx3yiadicnn72p7qd1s9adcr,ufT3gHyh,2020-0188,2020-11-21,10:55:07,11:16:07,NA,incomplete,40,number,1,left,Red_Circle_Grid_1.jpg,Blue_Plus_Dots_1.jpg,Green_Triangle_Grid_4.jpg,right,1007.595000002766,false,high,NA,NA,NA,NA,NA,NA,NA,false
ufT3gHyh,3zvpamtjxqgf8kd3gsoqdmjsr77grt,3s3amizx3yiadicnn72p7qd1s9adcr,ufT3gHyh,2020-0188,2020-11-21,10:55:07,11:16:07,NA,incomplete,41,number,1,left,Blue_Triangle_Dots_3.jpg,Purple_Star_Stripes_3.jpg,Red_Circle_Dots_4.jpg,left,1087.3700000229292,true,high,NA,NA,NA,NA,NA,NA,NA,false
ufT3gHyh,3zvpamtjxqgf8kd3gsoqdmjsr77grt,3s3amizx3yiadicnn72p7qd1s9adcr,ufT3gHyh,2020-0188,2020-11-21,10:55:07,11:16:07,NA,incomplete,42,number,1,right,Blue_Plus_Stripes_2.jpg,Red_Star_Stripes_1.jpg,Green_Circle_Dots_2.jpg,right,751.7949999892153,true,high,NA,NA,NA,NA,NA,NA,NA,false
ufT3gHyh,3zvpamtjxqgf8kd3gsoqdmjsr77grt,3s3amizx3yiadicnn72p7qd1s9adcr,ufT3gHyh,2020-0188,2020-11-21,10:55:07,11:16:07,NA,incomplete,43,number,0,right,Green_Star_Stripes_3.jpg,Red_Triangle_Stripes_4.jpg,Purple_Circle_Grid_3.jpg,right,1264.4450000079814,true,high,NA,NA,NA,NA,NA,NA,NA,false
ufT3gHyh,3zvpamtjxqgf8kd3gsoqdmjsr77grt,3s3amizx3yiadicnn72p7qd1s9adcr,ufT3gHyh,2020-0188,2020-11-21,10:55:07,11:16:07,NA,incomplete,44,number,1,right,Red_Triangle_Dots_4.jpg,Purple_Star_Dots_1.jpg,Green_Circle_Stripes_4.jpg,left,1106.0799999977462,false,high,NA,NA,NA,NA,NA,NA,NA,false
ufT3gHyh,3zvpamtjxqgf8kd3gsoqdmjsr77grt,3s3amizx3yiadicnn72p7qd1s9adcr,ufT3gHyh,2020-0188,2020-11-21,10:55:07,11:16:07,NA,incomplete,45,number,1,left,Blue_Plus_Chess_1.jpg,Red_Circle_Stripes_1.jpg,Green_Star_Chess_4.jpg,right,1053.634999989299,false,high,NA,NA,NA,NA,NA,NA,NA,false
ufT3gHyh,3zvpamtjxqgf8kd3gsoqdmjsr77grt,3s3amizx3yiadicnn72p7qd1s9adcr,ufT3gHyh,2020-0188,2020-11-21,10:55:07,11:16:07,NA,incomplete,46,number,1,left,Red_Triangle_Grid_2.jpg,Blue_Circle_Dots_2.jpg,Purple_Plus_Grid_3.jpg,left,804.5850000053179,true,high,NA,NA,NA,NA,NA,NA,NA,false
ufT3gHyh,3zvpamtjxqgf8kd3gsoqdmjsr77grt,3s3amizx3yiadicnn72p7qd1s9adcr,ufT3gHyh,2020-0188,2020-11-21,10:55:07,11:16:07,NA,incomplete,47,number,1,right,Blue_Circle_Chess_1.jpg,Red_Plus_Chess_2.jpg,Green_Star_Grid_1.jpg,right,571.3650000107009,true,high,NA,NA,NA,NA,NA,NA,NA,false
ufT3gHyh,3zvpamtjxqgf8kd3gsoqdmjsr77grt,3s3amizx3yiadicnn72p7qd1s9adcr,ufT3gHyh,2020-0188,2020-11-21,10:55:07,11:16:07,NA,incomplete,48,number,1,left,Green_Star_Grid_4.jpg,Blue_Circle_Chess_4.jpg,Purple_Plus_Grid_2.jpg,left,774.4299999903888,true,high,NA,NA,NA,NA,NA,NA,NA,false
ufT3gHyh,3zvpamtjxqgf8kd3gsoqdmjsr77grt,3s3amizx3yiadicnn72p7qd1s9adcr,ufT3gHyh,2020-0188,2020-11-21,10:55:07,11:16:07,NA,incomplete,49,number,1,right,Purple_Plus_Stripes_2.jpg,Green_Star_Stripes_1.jpg,Red_Circle_Grid_2.jpg,right,648.4099999943282,true,high,NA,NA,NA,NA,NA,NA,NA,false
ufT3gHyh,3zvpamtjxqgf8kd3gsoqdmjsr77grt,3s3amizx3yiadicnn72p7qd1s9adcr,ufT3gHyh,2020-0188,2020-11-21,10:55:07,11:16:07,NA,incomplete,50,filling,1,left,Purple_Plus_Stripes_2.jpg,Blue_Star_Stripes_4.jpg,Green_Triangle_Chess_2.jpg,right,632.5000000069849,false,high,NA,NA,NA,NA,NA,NA,NA,false
ufT3gHyh,3zvpamtjxqgf8kd3gsoqdmjsr77grt,3s3amizx3yiadicnn72p7qd1s9adcr,ufT3gHyh,2020-0188,2020-11-21,10:55:07,11:16:07,NA,incomplete,51,filling,1,left,Red_Star_Grid_2.jpg,Purple_Triangle_Grid_3.jpg,Green_Circle_Chess_2.jpg,right,565.6199999793898,false,high,NA,NA,NA,NA,NA,NA,NA,false
ufT3gHyh,3zvpamtjxqgf8kd3gsoqdmjsr77grt,3s3amizx3yiadicnn72p7qd1s9adcr,ufT3gHyh,2020-0188,2020-11-21,10:55:07,11:16:07,NA,incomplete,52,filling,1,right,Red_Plus_Dots_2.jpg,Green_Triangle_Chess_2.jpg,Purple_Circle_Dots_1.jpg,right,921.329999982845,true,high,NA,NA,NA,NA,NA,NA,NA,false
ufT3gHyh,3zvpamtjxqgf8kd3gsoqdmjsr77grt,3s3amizx3yiadicnn72p7qd1s9adcr,ufT3gHyh,2020-0188,2020-11-21,10:55:07,11:16:07,NA,incomplete,53,filling,1,left,Green_Circle_Dots_3.jpg,Blue_Triangle_Dots_1.jpg,Red_Plus_Chess_3.jpg,left,1110.225000011269,true,high,NA,NA,NA,NA,NA,NA,NA,false
ufT3gHyh,3zvpamtjxqgf8kd3gsoqdmjsr77grt,3s3amizx3yiadicnn72p7qd1s9adcr,ufT3gHyh,2020-0188,2020-11-21,10:55:07,11:16:07,NA,incomplete,54,filling,0,right,Blue_Plus_Stripes_3.jpg,Red_Star_Chess_3.jpg,Purple_Circle_Stripes_4.jpg,left,804.3449999822769,false,high,NA,NA,NA,NA,NA,NA,NA,false
ufT3gHyh,3zvpamtjxqgf8kd3gsoqdmjsr77grt,3s3amizx3yiadicnn72p7qd1s9adcr,ufT3gHyh,2020-0188,2020-11-21,10:55:07,11:16:07,NA,incomplete,55,filling,1,left,Green_Plus_Dots_2.jpg,Blue_Triangle_Dots_1.jpg,Purple_Star_Grid_2.jpg,right,686.1649999918882,false,high,NA,NA,NA,NA,NA,NA,NA,false
ufT3gHyh,3zvpamtjxqgf8kd3gsoqdmjsr77grt,3s3amizx3yiadicnn72p7qd1s9adcr,ufT3gHyh,2020-0188,2020-11-21,10:55:07,11:16:07,NA,incomplete,56,filling,1,left,Green_Plus_Dots_3.jpg,Blue_Circle_Dots_4.jpg,Purple_Star_Stripes_3.jpg,left,809.4700000074226,true,high,NA,NA,NA,NA,NA,NA,NA,false
ufT3gHyh,3zvpamtjxqgf8kd3gsoqdmjsr77grt,3s3amizx3yiadicnn72p7qd1s9adcr,ufT3gHyh,2020-0188,2020-11-21,10:55:07,11:16:07,NA,incomplete,57,filling,0,right,Purple_Triangle_Chess_3.jpg,Red_Star_Dots_3.jpg,Green_Circle_Chess_1.jpg,right,931.9400000094902,true,high,NA,NA,NA,NA,NA,NA,NA,false
ufT3gHyh,3zvpamtjxqgf8kd3gsoqdmjsr77grt,3s3amizx3yiadicnn72p7qd1s9adcr,ufT3gHyh,2020-0188,2020-11-21,10:55:07,11:16:07,NA,incomplete,58,filling,1,right,Blue_Star_Grid_4.jpg,Green_Triangle_Chess_4.jpg,Purple_Plus_Grid_1.jpg,left,828.0650000087917,false,high,NA,NA,NA,NA,NA,NA,NA,false
ufT3gHyh,3zvpamtjxqgf8kd3gsoqdmjsr77grt,3s3amizx3yiadicnn72p7qd1s9adcr,ufT3gHyh,2020-0188,2020-11-21,10:55:07,11:16:07,NA,incomplete,59,filling,1,right,Blue_Circle_Grid_3.jpg,Green_Plus_Stripes_3.jpg,Red_Triangle_Grid_1.jpg,right,871.0399999981746,true,high,NA,NA,NA,NA,NA,NA,NA,false
ufT3gHyh,3zvpamtjxqgf8kd3gsoqdmjsr77grt,3s3amizx3yiadicnn72p7qd1s9adcr,ufT3gHyh,2020-0188,2020-11-21,10:55:07,11:16:07,NA,incomplete,60,number,1,left,Blue_Plus_Dots_2.jpg,Purple_Triangle_Stripes_2.jpg,Red_Star_Dots_1.jpg,right,692.7499999874271,false,high,NA,NA,NA,NA,NA,NA,NA,false
ufT3gHyh,3zvpamtjxqgf8kd3gsoqdmjsr77grt,3s3amizx3yiadicnn72p7qd1s9adcr,ufT3gHyh,2020-0188,2020-11-21,10:55:07,11:16:07,NA,incomplete,61,number,0,right,Green_Plus_Chess_2.jpg,Purple_Star_Chess_4.jpg,Red_Triangle_Grid_2.jpg,right,855.119999992894,true,high,NA,NA,NA,NA,NA,NA,NA,false
ufT3gHyh,3zvpamtjxqgf8kd3gsoqdmjsr77grt,3s3amizx3yiadicnn72p7qd1s9adcr,ufT3gHyh,2020-0188,2020-11-21,10:55:07,11:16:07,NA,incomplete,62,number,0,left,Green_Plus_Grid_2.jpg,Red_Triangle_Dots_2.jpg,Blue_Circle_Grid_4.jpg,right,1276.865000021644,false,high,NA,NA,NA,NA,NA,NA,NA,false
ufT3gHyh,3zvpamtjxqgf8kd3gsoqdmjsr77grt,3s3amizx3yiadicnn72p7qd1s9adcr,ufT3gHyh,2020-0188,2020-11-21,10:55:07,11:16:07,NA,incomplete,63,number,0,right,Purple_Triangle_Dots_2.jpg,Blue_Star_Dots_1.jpg,Red_Circle_Stripes_2.jpg,left,866.8800000159536,false,high,NA,NA,NA,NA,NA,NA,NA,false
ufT3gHyh,3zvpamtjxqgf8kd3gsoqdmjsr77grt,3s3amizx3yiadicnn72p7qd1s9adcr,ufT3gHyh,2020-0188,2020-11-21,10:55:07,11:16:07,NA,incomplete,64,number,1,right,Red_Triangle_Dots_2.jpg,Green_Star_Dots_4.jpg,Blue_Plus_Chess_2.jpg,left,921.875,false,high,NA,NA,NA,NA,NA,NA,NA,false
ufT3gHyh,3zvpamtjxqgf8kd3gsoqdmjsr77grt,3s3amizx3yiadicnn72p7qd1s9adcr,ufT3gHyh,2020-0188,2020-11-21,10:55:07,11:16:07,NA,incomplete,65,number,0,left,Purple_Triangle_Chess_1.jpg,Blue_Circle_Dots_1.jpg,Green_Star_Chess_4.jpg,left,847.5849999813363,true,high,NA,NA,NA,NA,NA,NA,NA,false
ufT3gHyh,3zvpamtjxqgf8kd3gsoqdmjsr77grt,3s3amizx3yiadicnn72p7qd1s9adcr,ufT3gHyh,2020-0188,2020-11-21,10:55:07,11:16:07,NA,incomplete,66,number,1,right,Green_Plus_Chess_4.jpg,Purple_Circle_Chess_1.jpg,Red_Triangle_Grid_4.jpg,left,1022.7500000037253,false,high,NA,NA,NA,NA,NA,NA,NA,false
ufT3gHyh,3zvpamtjxqgf8kd3gsoqdmjsr77grt,3s3amizx3yiadicnn72p7qd1s9adcr,ufT3gHyh,2020-0188,2020-11-21,10:55:07,11:16:07,NA,incomplete,67,number,1,left,Red_Triangle_Chess_2.jpg,Green_Plus_Stripes_2.jpg,Purple_Star_Chess_1.jpg,left,822.0799999835435,true,high,NA,NA,NA,NA,NA,NA,NA,false
ufT3gHyh,3zvpamtjxqgf8kd3gsoqdmjsr77grt,3s3amizx3yiadicnn72p7qd1s9adcr,ufT3gHyh,2020-0188,2020-11-21,10:55:07,11:16:07,NA,incomplete,68,number,1,left,Purple_Star_Chess_1.jpg,Red_Plus_Grid_1.jpg,Blue_Triangle_Chess_4.jpg,left,766.7599999986123,true,high,NA,NA,NA,NA,NA,NA,NA,false
ufT3gHyh,3zvpamtjxqgf8kd3gsoqdmjsr77grt,3s3amizx3yiadicnn72p7qd1s9adcr,ufT3gHyh,2020-0188,2020-11-21,10:55:07,11:16:07,NA,incomplete,69,number,1,left,Purple_Circle_Dots_2.jpg,Red_Plus_Stripes_2.jpg,Green_Star_Dots_1.jpg,left,687.1749999991152,true,high,NA,NA,NA,NA,NA,NA,NA,false
ufT3gHyh,3zvpamtjxqgf8kd3gsoqdmjsr77grt,3s3amizx3yiadicnn72p7qd1s9adcr,ufT3gHyh,2020-0188,2020-11-21,10:55:07,11:16:07,NA,incomplete,70,filling,0,right,Red_Triangle_Chess_1.jpg,Blue_Circle_Dots_1.jpg,Green_Star_Chess_4.jpg,left,722.7249999996275,false,high,NA,NA,NA,NA,NA,NA,NA,false
ufT3gHyh,3zvpamtjxqgf8kd3gsoqdmjsr77grt,3s3amizx3yiadicnn72p7qd1s9adcr,ufT3gHyh,2020-0188,2020-11-21,10:55:07,11:16:07,NA,incomplete,71,filling,1,right,Green_Triangle_Grid_4.jpg,Purple_Circle_Chess_4.jpg,Blue_Star_Grid_2.jpg,left,635.1399999985006,false,high,NA,NA,NA,NA,NA,NA,NA,false
ufT3gHyh,3zvpamtjxqgf8kd3gsoqdmjsr77grt,3s3amizx3yiadicnn72p7qd1s9adcr,ufT3gHyh,2020-0188,2020-11-21,10:55:07,11:16:07,NA,incomplete,72,filling,1,right,Purple_Circle_Dots_2.jpg,Blue_Triangle_Grid_2.jpg,Red_Plus_Dots_1.jpg,left,611.3400000031106,false,high,NA,NA,NA,NA,NA,NA,NA,false
ufT3gHyh,3zvpamtjxqgf8kd3gsoqdmjsr77grt,3s3amizx3yiadicnn72p7qd1s9adcr,ufT3gHyh,2020-0188,2020-11-21,10:55:07,11:16:07,NA,incomplete,73,filling,1,left,Purple_Plus_Stripes_1.jpg,Green_Circle_Stripes_4.jpg,Red_Triangle_Grid_1.jpg,right,771.919999999227,false,high,NA,NA,NA,NA,NA,NA,NA,false
ufT3gHyh,3zvpamtjxqgf8kd3gsoqdmjsr77grt,3s3amizx3yiadicnn72p7qd1s9adcr,ufT3gHyh,2020-0188,2020-11-21,10:55:07,11:16:07,NA,incomplete,74,filling,0,left,Red_Circle_Stripes_3.jpg,Blue_Plus_Stripes_4.jpg,Purple_Star_Chess_3.jpg,left,900.6850000005215,true,high,NA,NA,NA,NA,NA,NA,NA,false
ufT3gHyh,3zvpamtjxqgf8kd3gsoqdmjsr77grt,3s3amizx3yiadicnn72p7qd1s9adcr,ufT3gHyh,2020-0188,2020-11-21,10:55:07,11:16:07,NA,incomplete,75,filling,1,right,Blue_Circle_Chess_1.jpg,Red_Plus_Dots_1.jpg,Purple_Star_Chess_4.jpg,right,779.2899999767542,true,high,NA,NA,NA,NA,NA,NA,NA,false
ufT3gHyh,3zvpamtjxqgf8kd3gsoqdmjsr77grt,3s3amizx3yiadicnn72p7qd1s9adcr,ufT3gHyh,2020-0188,2020-11-21,10:55:07,11:16:07,NA,incomplete,76,filling,1,left,Green_Star_Grid_1.jpg,Purple_Triangle_Grid_3.jpg,Blue_Plus_Stripes_1.jpg,left,1071.9399999943562,true,high,NA,NA,NA,NA,NA,NA,NA,false
ufT3gHyh,3zvpamtjxqgf8kd3gsoqdmjsr77grt,3s3amizx3yiadicnn72p7qd1s9adcr,ufT3gHyh,2020-0188,2020-11-21,10:55:07,11:16:07,NA,incomplete,77,filling,1,right,Purple_Triangle_Chess_4.jpg,Blue_Plus_Grid_4.jpg,Red_Circle_Chess_1.jpg,right,943.5449999873526,true,high,NA,NA,NA,NA,NA,NA,NA,false
ufT3gHyh,3zvpamtjxqgf8kd3gsoqdmjsr77grt,3s3amizx3yiadicnn72p7qd1s9adcr,ufT3gHyh,2020-0188,2020-11-21,10:55:07,11:16:07,NA,incomplete,78,filling,0,left,Blue_Plus_Grid_2.jpg,Red_Circle_Grid_4.jpg,Green_Star_Dots_2.jpg,left,812.099999981001,true,high,NA,NA,NA,NA,NA,NA,NA,false
ufT3gHyh,3zvpamtjxqgf8kd3gsoqdmjsr77grt,3s3amizx3yiadicnn72p7qd1s9adcr,ufT3gHyh,2020-0188,2020-11-21,10:55:07,11:16:07,NA,incomplete,79,filling,1,left,Green_Triangle_Grid_3.jpg,Red_Circle_Grid_1.jpg,Blue_Plus_Chess_3.jpg,left,702.7499999967404,true,high,NA,NA,NA,NA,NA,NA,NA,false
ufT3gHyh,3zvpamtjxqgf8kd3gsoqdmjsr77grt,3s3amizx3yiadicnn72p7qd1s9adcr,ufT3gHyh,2020-0188,2020-11-21,10:55:07,11:16:07,NA,incomplete,80,number,0,left,Purple_Triangle_Grid_1.jpg,Blue_Plus_Chess_1.jpg,Red_Star_Grid_3.jpg,left,890.1999999943655,true,high,NA,NA,NA,NA,NA,NA,NA,false
ufT3gHyh,3zvpamtjxqgf8kd3gsoqdmjsr77grt,3s3amizx3yiadicnn72p7qd1s9adcr,ufT3gHyh,2020-0188,2020-11-21,10:55:07,11:16:07,NA,incomplete,81,number,1,left,Blue_Plus_Stripes_1.jpg,Purple_Circle_Chess_1.jpg,Green_Star_Stripes_2.jpg,right,970.6600000208709,false,high,NA,NA,NA,NA,NA,NA,NA,false
ufT3gHyh,3zvpamtjxqgf8kd3gsoqdmjsr77grt,3s3amizx3yiadicnn72p7qd1s9adcr,ufT3gHyh,2020-0188,2020-11-21,10:55:07,11:16:07,NA,incomplete,82,number,1,left,Red_Star_Dots_4.jpg,Purple_Plus_Stripes_4.jpg,Blue_Triangle_Dots_2.jpg,left,675.8050000062212,true,high,NA,NA,NA,NA,NA,NA,NA,false
ufT3gHyh,3zvpamtjxqgf8kd3gsoqdmjsr77grt,3s3amizx3yiadicnn72p7qd1s9adcr,ufT3gHyh,2020-0188,2020-11-21,10:55:07,11:16:07,NA,incomplete,83,number,1,right,Purple_Star_Grid_1.jpg,Green_Circle_Grid_4.jpg,Red_Plus_Chess_1.jpg,right,649.3550000013784,true,high,NA,NA,NA,NA,NA,NA,NA,false
ufT3gHyh,3zvpamtjxqgf8kd3gsoqdmjsr77grt,3s3amizx3yiadicnn72p7qd1s9adcr,ufT3gHyh,2020-0188,2020-11-21,10:55:07,11:16:07,NA,incomplete,84,number,0,right,Purple_Triangle_Stripes_4.jpg,Blue_Circle_Stripes_2.jpg,Red_Plus_Dots_4.jpg,right,944.0949999843724,true,high,NA,NA,NA,NA,NA,NA,NA,false
ufT3gHyh,3zvpamtjxqgf8kd3gsoqdmjsr77grt,3s3amizx3yiadicnn72p7qd1s9adcr,ufT3gHyh,2020-0188,2020-11-21,10:55:07,11:16:07,NA,incomplete,85,number,0,left,Green_Plus_Stripes_3.jpg,Red_Triangle_Chess_3.jpg,Blue_Star_Stripes_2.jpg,left,1027.4650000210386,true,high,NA,NA,NA,NA,NA,NA,NA,false
ufT3gHyh,3zvpamtjxqgf8kd3gsoqdmjsr77grt,3s3amizx3yiadicnn72p7qd1s9adcr,ufT3gHyh,2020-0188,2020-11-21,10:55:07,11:16:07,NA,incomplete,86,number,1,right,Purple_Star_Dots_2.jpg,Green_Triangle_Dots_1.jpg,Red_Circle_Chess_2.jpg,left,1041.9800000090618,false,high,NA,NA,NA,NA,NA,NA,NA,false
ufT3gHyh,3zvpamtjxqgf8kd3gsoqdmjsr77grt,3s3amizx3yiadicnn72p7qd1s9adcr,ufT3gHyh,2020-0188,2020-11-21,10:55:07,11:16:07,NA,incomplete,87,number,0,left,Purple_Plus_Stripes_3.jpg,Blue_Star_Grid_3.jpg,Green_Triangle_Stripes_1.jpg,right,1801.7150000086986,false,high,NA,NA,NA,NA,NA,NA,NA,false
ufT3gHyh,3zvpamtjxqgf8kd3gsoqdmjsr77grt,3s3amizx3yiadicnn72p7qd1s9adcr,ufT3gHyh,2020-0188,2020-11-21,10:55:07,11:16:07,NA,incomplete,88,number,1,left,Red_Star_Grid_4.jpg,Purple_Plus_Dots_4.jpg,Blue_Triangle_Grid_3.jpg,right,830.084999994142,false,high,NA,NA,NA,NA,NA,NA,NA,false
ufT3gHyh,3zvpamtjxqgf8kd3gsoqdmjsr77grt,3s3amizx3yiadicnn72p7qd1s9adcr,ufT3gHyh,2020-0188,2020-11-21,10:55:07,11:16:07,NA,incomplete,89,number,1,left,Purple_Circle_Chess_2.jpg,Blue_Plus_Grid_2.jpg,Red_Triangle_Chess_1.jpg,left,805.7849999750033,true,high,NA,NA,NA,NA,NA,NA,NA,false
ufT3gHyh,3zvpamtjxqgf8kd3gsoqdmjsr77grt,3s3amizx3yiadicnn72p7qd1s9adcr,ufT3gHyh,2020-0188,2020-11-21,10:55:07,11:16:07,NA,incomplete,90,filling,1,left,Green_Plus_Dots_2.jpg,Blue_Triangle_Dots_3.jpg,Purple_Star_Grid_2.jpg,right,739.1549999883864,false,high,NA,NA,NA,NA,NA,NA,NA,false
ufT3gHyh,3zvpamtjxqgf8kd3gsoqdmjsr77grt,3s3amizx3yiadicnn72p7qd1s9adcr,ufT3gHyh,2020-0188,2020-11-21,10:55:07,11:16:07,NA,incomplete,91,filling,0,right,Red_Plus_Chess_1.jpg,Green_Star_Stripes_1.jpg,Blue_Circle_Chess_2.jpg,left,754.1799999889918,false,high,NA,NA,NA,NA,NA,NA,NA,false
ufT3gHyh,3zvpamtjxqgf8kd3gsoqdmjsr77grt,3s3amizx3yiadicnn72p7qd1s9adcr,ufT3gHyh,2020-0188,2020-11-21,10:55:07,11:16:07,NA,incomplete,92,filling,1,right,Green_Star_Stripes_2.jpg,Purple_Triangle_Dots_2.jpg,Blue_Circle_Stripes_4.jpg,left,807.5450000178535,false,high,NA,NA,NA,NA,NA,NA,NA,false
ufT3gHyh,3zvpamtjxqgf8kd3gsoqdmjsr77grt,3s3amizx3yiadicnn72p7qd1s9adcr,ufT3gHyh,2020-0188,2020-11-21,10:55:07,11:16:07,NA,incomplete,93,filling,1,left,Blue_Triangle_Grid_3.jpg,Purple_Star_Grid_1.jpg,Red_Plus_Stripes_3.jpg,left,1743.2350000017323,true,high,NA,NA,NA,NA,NA,NA,NA,false
ufT3gHyh,3zvpamtjxqgf8kd3gsoqdmjsr77grt,3s3amizx3yiadicnn72p7qd1s9adcr,ufT3gHyh,2020-0188,2020-11-21,10:55:07,11:16:07,NA,incomplete,94,filling,1,right,Purple_Triangle_Grid_3.jpg,Green_Star_Dots_3.jpg,Blue_Plus_Grid_2.jpg,right,826.230000006035,true,high,NA,NA,NA,NA,NA,NA,NA,false
ufT3gHyh,3zvpamtjxqgf8kd3gsoqdmjsr77grt,3s3amizx3yiadicnn72p7qd1s9adcr,ufT3gHyh,2020-0188,2020-11-21,10:55:07,11:16:07,NA,incomplete,95,filling,1,left,Red_Circle_Dots_3.jpg,Green_Star_Dots_4.jpg,Blue_Triangle_Chess_3.jpg,left,770.5049999931362,true,high,NA,NA,NA,NA,NA,NA,NA,false
ufT3gHyh,3zvpamtjxqgf8kd3gsoqdmjsr77grt,3s3amizx3yiadicnn72p7qd1s9adcr,ufT3gHyh,2020-0188,2020-11-21,10:55:07,11:16:07,NA,incomplete,96,filling,1,left,Red_Triangle_Chess_3.jpg,Green_Star_Chess_4.jpg,Blue_Plus_Dots_3.jpg,left,800.455000018701,true,high,NA,NA,NA,NA,NA,NA,NA,false
ufT3gHyh,3zvpamtjxqgf8kd3gsoqdmjsr77grt,3s3amizx3yiadicnn72p7qd1s9adcr,ufT3gHyh,2020-0188,2020-11-21,10:55:07,11:16:07,NA,incomplete,97,filling,1,left,Blue_Star_Dots_3.jpg,Green_Triangle_Dots_4.jpg,Purple_Circle_Stripes_3.jpg,left,892.8200000082143,true,high,NA,NA,NA,NA,NA,NA,NA,false
ufT3gHyh,3zvpamtjxqgf8kd3gsoqdmjsr77grt,3s3amizx3yiadicnn72p7qd1s9adcr,ufT3gHyh,2020-0188,2020-11-21,10:55:07,11:16:07,NA,incomplete,98,filling,1,left,Green_Triangle_Dots_2.jpg,Blue_Circle_Dots_4.jpg,Purple_Plus_Chess_2.jpg,left,737.7249999844935,true,high,NA,NA,NA,NA,NA,NA,NA,false
ufT3gHyh,3zvpamtjxqgf8kd3gsoqdmjsr77grt,3s3amizx3yiadicnn72p7qd1s9adcr,ufT3gHyh,2020-0188,2020-11-21,10:55:07,11:16:07,NA,incomplete,99,filling,1,left,Purple_Triangle_Chess_3.jpg,Green_Star_Chess_2.jpg,Blue_Circle_Stripes_3.jpg,left,832.1500000020023,true,high,NA,NA,NA,NA,NA,NA,NA,false
ufT3gHyh,3zvpamtjxqgf8kd3gsoqdmjsr77grt,3s3amizx3yiadicnn72p7qd1s9adcr,ufT3gHyh,2020-0188,2020-11-21,10:55:07,11:16:07,NA,incomplete,100,number,1,right,Green_Plus_Grid_2.jpg,Blue_Star_Grid_3.jpg,Red_Circle_Stripes_2.jpg,left,791.4250000030734,false,high,NA,NA,NA,NA,NA,NA,NA,false
ufT3gHyh,3zvpamtjxqgf8kd3gsoqdmjsr77grt,3s3amizx3yiadicnn72p7qd1s9adcr,ufT3gHyh,2020-0188,2020-11-21,10:55:07,11:16:07,NA,incomplete,101,number,1,left,Blue_Circle_Chess_3.jpg,Red_Triangle_Grid_3.jpg,Green_Plus_Chess_1.jpg,left,779.7800000116695,true,high,NA,NA,NA,NA,NA,NA,NA,false
ufT3gHyh,3zvpamtjxqgf8kd3gsoqdmjsr77grt,3s3amizx3yiadicnn72p7qd1s9adcr,ufT3gHyh,2020-0188,2020-11-21,10:55:07,11:16:07,NA,incomplete,102,number,1,right,Purple_Circle_Stripes_2.jpg,Red_Star_Stripes_1.jpg,Green_Triangle_Chess_2.jpg,right,761.6700000071432,true,high,NA,NA,NA,NA,NA,NA,NA,false
ufT3gHyh,3zvpamtjxqgf8kd3gsoqdmjsr77grt,3s3amizx3yiadicnn72p7qd1s9adcr,ufT3gHyh,2020-0188,2020-11-21,10:55:07,11:16:07,NA,incomplete,103,number,1,right,Blue_Plus_Dots_3.jpg,Purple_Triangle_Dots_4.jpg,Green_Star_Chess_3.jpg,right,856.7150000017136,true,high,NA,NA,NA,NA,NA,NA,NA,false
ufT3gHyh,3zvpamtjxqgf8kd3gsoqdmjsr77grt,3s3amizx3yiadicnn72p7qd1s9adcr,ufT3gHyh,2020-0188,2020-11-21,10:55:07,11:16:07,NA,incomplete,104,number,1,right,Green_Circle_Stripes_4.jpg,Red_Triangle_Stripes_1.jpg,Purple_Plus_Dots_4.jpg,right,796.6400000150315,true,high,NA,NA,NA,NA,NA,NA,NA,false
ufT3gHyh,3zvpamtjxqgf8kd3gsoqdmjsr77grt,3s3amizx3yiadicnn72p7qd1s9adcr,ufT3gHyh,2020-0188,2020-11-21,10:55:07,11:16:07,NA,incomplete,105,number,0,left,Purple_Circle_Dots_4.jpg,Red_Triangle_Grid_4.jpg,Green_Plus_Dots_2.jpg,left,923.1800000125077,true,high,NA,NA,NA,NA,NA,NA,NA,false
ufT3gHyh,3zvpamtjxqgf8kd3gsoqdmjsr77grt,3s3amizx3yiadicnn72p7qd1s9adcr,ufT3gHyh,2020-0188,2020-11-21,10:55:07,11:16:07,NA,incomplete,106,number,1,left,Red_Circle_Chess_4.jpg,Purple_Plus_Grid_4.jpg,Blue_Star_Chess_1.jpg,right,857.7899999800138,false,high,NA,NA,NA,NA,NA,NA,NA,false
ufT3gHyh,3zvpamtjxqgf8kd3gsoqdmjsr77grt,3s3amizx3yiadicnn72p7qd1s9adcr,ufT3gHyh,2020-0188,2020-11-21,10:55:07,11:16:07,NA,incomplete,107,number,0,left,Blue_Plus_Dots_3.jpg,Purple_Triangle_Chess_3.jpg,Red_Star_Dots_1.jpg,left,760.630000004312,true,high,NA,NA,NA,NA,NA,NA,NA,false
ufT3gHyh,3zvpamtjxqgf8kd3gsoqdmjsr77grt,3s3amizx3yiadicnn72p7qd1s9adcr,ufT3gHyh,2020-0188,2020-11-21,10:55:07,11:16:07,NA,incomplete,108,number,1,left,Blue_Star_Chess_2.jpg,Green_Triangle_Grid_2.jpg,Purple_Plus_Chess_3.jpg,right,760.5200000107288,false,high,NA,NA,NA,NA,NA,NA,NA,false
ufT3gHyh,3zvpamtjxqgf8kd3gsoqdmjsr77grt,3s3amizx3yiadicnn72p7qd1s9adcr,ufT3gHyh,2020-0188,2020-11-21,10:55:07,11:16:07,NA,incomplete,109,number,1,left,Purple_Triangle_Chess_2.jpg,Blue_Star_Stripes_2.jpg,Green_Circle_Chess_4.jpg,right,1054.9149999860674,false,high,NA,NA,NA,NA,NA,NA,NA,false
ufT3gHyh,3zvpamtjxqgf8kd3gsoqdmjsr77grt,3s3amizx3yiadicnn72p7qd1s9adcr,ufT3gHyh,2020-0188,2020-11-21,10:55:07,11:16:07,NA,incomplete,110,filling,1,right,Green_Plus_Grid_2.jpg,Blue_Circle_Chess_2.jpg,Purple_Star_Grid_3.jpg,left,830.8549999783281,false,high,NA,NA,NA,NA,NA,NA,NA,false
ufT3gHyh,3zvpamtjxqgf8kd3gsoqdmjsr77grt,3s3amizx3yiadicnn72p7qd1s9adcr,ufT3gHyh,2020-0188,2020-11-21,10:55:07,11:16:07,NA,incomplete,111,filling,0,right,Purple_Triangle_Dots_2.jpg,Red_Star_Stripes_2.jpg,Green_Plus_Dots_3.jpg,left,657.7500000130385,false,high,NA,NA,NA,NA,NA,NA,NA,false
ufT3gHyh,3zvpamtjxqgf8kd3gsoqdmjsr77grt,3s3amizx3yiadicnn72p7qd1s9adcr,ufT3gHyh,2020-0188,2020-11-21,10:55:07,11:16:07,NA,incomplete,112,filling,1,left,Blue_Triangle_Dots_3.jpg,Green_Circle_Dots_2.jpg,Purple_Star_Grid_3.jpg,left,886.2749999971129,true,high,NA,NA,NA,NA,NA,NA,NA,false
ufT3gHyh,3zvpamtjxqgf8kd3gsoqdmjsr77grt,3s3amizx3yiadicnn72p7qd1s9adcr,ufT3gHyh,2020-0188,2020-11-21,10:55:07,11:16:07,NA,incomplete,113,filling,0,right,Purple_Circle_Grid_1.jpg,Red_Triangle_Stripes_1.jpg,Green_Star_Grid_3.jpg,left,684.544999996433,false,high,NA,NA,NA,NA,NA,NA,NA,false
ufT3gHyh,3zvpamtjxqgf8kd3gsoqdmjsr77grt,3s3amizx3yiadicnn72p7qd1s9adcr,ufT3gHyh,2020-0188,2020-11-21,10:55:07,11:16:07,NA,incomplete,114,filling,1,right,Purple_Circle_Stripes_4.jpg,Green_Triangle_Chess_4.jpg,Red_Star_Stripes_3.jpg,right,1191.6650000202935,true,high,NA,NA,NA,NA,NA,NA,NA,false
ufT3gHyh,3zvpamtjxqgf8kd3gsoqdmjsr77grt,3s3amizx3yiadicnn72p7qd1s9adcr,ufT3gHyh,2020-0188,2020-11-21,10:55:07,11:16:07,NA,incomplete,115,filling,0,right,Red_Plus_Stripes_2.jpg,Purple_Triangle_Dots_2.jpg,Blue_Star_Stripes_3.jpg,right,956.754999991972,true,high,NA,NA,NA,NA,NA,NA,NA,false
ufT3gHyh,3zvpamtjxqgf8kd3gsoqdmjsr77grt,3s3amizx3yiadicnn72p7qd1s9adcr,ufT3gHyh,2020-0188,2020-11-21,10:55:07,11:16:07,NA,incomplete,116,filling,1,right,Green_Circle_Grid_3.jpg,Blue_Triangle_Chess_3.jpg,Red_Star_Grid_2.jpg,left,918.695000000298,false,high,NA,NA,NA,NA,NA,NA,NA,false
ufT3gHyh,3zvpamtjxqgf8kd3gsoqdmjsr77grt,3s3amizx3yiadicnn72p7qd1s9adcr,ufT3gHyh,2020-0188,2020-11-21,10:55:07,11:16:07,NA,incomplete,117,filling,1,right,Red_Triangle_Dots_1.jpg,Blue_Star_Chess_1.jpg,Purple_Circle_Dots_4.jpg,right,858.6300000024494,true,high,NA,NA,NA,NA,NA,NA,NA,false
ufT3gHyh,3zvpamtjxqgf8kd3gsoqdmjsr77grt,3s3amizx3yiadicnn72p7qd1s9adcr,ufT3gHyh,2020-0188,2020-11-21,10:55:07,11:16:07,NA,incomplete,118,filling,1,left,Purple_Circle_Stripes_1.jpg,Red_Star_Stripes_2.jpg,Blue_Plus_Dots_1.jpg,left,857.9850000096485,true,high,NA,NA,NA,NA,NA,NA,NA,false
ufT3gHyh,3zvpamtjxqgf8kd3gsoqdmjsr77grt,3s3amizx3yiadicnn72p7qd1s9adcr,ufT3gHyh,2020-0188,2020-11-21,10:55:07,11:16:07,NA,incomplete,119,filling,1,right,Blue_Triangle_Stripes_4.jpg,Purple_Plus_Chess_4.jpg,Green_Circle_Stripes_2.jpg,right,837.3049999936484,true,high,NA,NA,NA,NA,NA,NA,NA,false
ufT3gHyh,3zvpamtjxqgf8kd3gsoqdmjsr77grt,3s3amizx3yiadicnn72p7qd1s9adcr,ufT3gHyh,2020-0188,2020-11-21,10:55:07,11:16:07,NA,incomplete,120,number,1,right,Red_Triangle_Dots_4.jpg,Green_Circle_Dots_3.jpg,Blue_Plus_Stripes_4.jpg,left,769.8399999935646,false,high,NA,NA,NA,NA,NA,NA,NA,false
ufT3gHyh,3zvpamtjxqgf8kd3gsoqdmjsr77grt,3s3amizx3yiadicnn72p7qd1s9adcr,ufT3gHyh,2020-0188,2020-11-21,10:55:07,11:16:07,NA,incomplete,121,number,1,right,Purple_Plus_Grid_4.jpg,Green_Triangle_Grid_1.jpg,Red_Circle_Stripes_4.jpg,right,570.3800000192132,true,high,NA,NA,NA,NA,NA,NA,NA,false
ufT3gHyh,3zvpamtjxqgf8kd3gsoqdmjsr77grt,3s3amizx3yiadicnn72p7qd1s9adcr,ufT3gHyh,2020-0188,2020-11-21,10:55:07,11:16:07,NA,incomplete,122,number,0,left,Purple_Star_Dots_4.jpg,Red_Circle_Grid_4.jpg,Blue_Triangle_Dots_1.jpg,left,1059.7149999812245,true,high,NA,NA,NA,NA,NA,NA,NA,false
ufT3gHyh,3zvpamtjxqgf8kd3gsoqdmjsr77grt,3s3amizx3yiadicnn72p7qd1s9adcr,ufT3gHyh,2020-0188,2020-11-21,10:55:07,11:16:07,NA,incomplete,123,number,1,right,Green_Plus_Chess_4.jpg,Red_Triangle_Chess_2.jpg,Blue_Circle_Stripes_4.jpg,right,533.5299999860581,true,high,NA,NA,NA,NA,NA,NA,NA,false
ufT3gHyh,3zvpamtjxqgf8kd3gsoqdmjsr77grt,3s3amizx3yiadicnn72p7qd1s9adcr,ufT3gHyh,2020-0188,2020-11-21,10:55:07,11:16:07,NA,incomplete,124,number,0,left,Red_Triangle_Grid_4.jpg,Blue_Plus_Chess_4.jpg,Purple_Circle_Grid_1.jpg,left,592.2049999935552,true,high,NA,NA,NA,NA,NA,NA,NA,false
ufT3gHyh,3zvpamtjxqgf8kd3gsoqdmjsr77grt,3s3amizx3yiadicnn72p7qd1s9adcr,ufT3gHyh,2020-0188,2020-11-21,10:55:07,11:16:07,NA,incomplete,125,number,1,right,Green_Circle_Grid_2.jpg,Red_Star_Grid_3.jpg,Purple_Plus_Chess_2.jpg,left,1197.6199999917299,false,high,NA,NA,NA,NA,NA,NA,NA,false
ufT3gHyh,3zvpamtjxqgf8kd3gsoqdmjsr77grt,3s3amizx3yiadicnn72p7qd1s9adcr,ufT3gHyh,2020-0188,2020-11-21,10:55:07,11:16:07,NA,incomplete,126,number,0,right,Red_Plus_Chess_3.jpg,Purple_Circle_Chess_4.jpg,Blue_Triangle_Dots_3.jpg,left,793.2499999878928,false,high,NA,NA,NA,NA,NA,NA,NA,false
ufT3gHyh,3zvpamtjxqgf8kd3gsoqdmjsr77grt,3s3amizx3yiadicnn72p7qd1s9adcr,ufT3gHyh,2020-0188,2020-11-21,10:55:07,11:16:07,NA,incomplete,127,number,1,right,Blue_Circle_Dots_3.jpg,Red_Triangle_Dots_4.jpg,Green_Plus_Grid_3.jpg,left,1482.0999999938067,false,high,NA,NA,NA,NA,NA,NA,NA,false
ufT3gHyh,3zvpamtjxqgf8kd3gsoqdmjsr77grt,3s3amizx3yiadicnn72p7qd1s9adcr,ufT3gHyh,2020-0188,2020-11-21,10:55:07,11:16:07,NA,incomplete,128,number,1,left,Blue_Circle_Chess_4.jpg,Red_Plus_Dots_4.jpg,Green_Star_Chess_2.jpg,right,1161.114999995334,false,high,NA,NA,NA,NA,NA,NA,NA,false
ufT3gHyh,3zvpamtjxqgf8kd3gsoqdmjsr77grt,3s3amizx3yiadicnn72p7qd1s9adcr,ufT3gHyh,2020-0188,2020-11-21,10:55:07,11:16:07,NA,incomplete,129,number,1,left,Purple_Triangle_Stripes_3.jpg,Green_Circle_Chess_3.jpg,Blue_Star_Stripes_4.jpg,left,655.02999999444,true,high,NA,NA,NA,NA,NA,NA,NA,false
ufT3gHyh,3zvpamtjxqgf8kd3gsoqdmjsr77grt,3s3amizx3yiadicnn72p7qd1s9adcr,ufT3gHyh,2020-0188,2020-11-21,10:55:07,11:16:07,NA,incomplete,130,number,1,left,Blue_Triangle_Dots_4.jpg,Purple_Circle_Stripes_4.jpg,Green_Plus_Dots_1.jpg,left,709.3300000124145,true,high,NA,NA,NA,NA,NA,NA,NA,false
ufT3gHyh,3zvpamtjxqgf8kd3gsoqdmjsr77grt,3s3amizx3yiadicnn72p7qd1s9adcr,ufT3gHyh,2020-0188,2020-11-21,10:55:07,11:16:07,NA,incomplete,131,number,1,right,Purple_Triangle_Grid_1.jpg,Blue_Star_Grid_3.jpg,Red_Plus_Chess_1.jpg,right,584.530000021914,true,high,NA,NA,NA,NA,NA,NA,NA,false
ufT3gHyh,3zvpamtjxqgf8kd3gsoqdmjsr77grt,3s3amizx3yiadicnn72p7qd1s9adcr,ufT3gHyh,2020-0188,2020-11-21,10:55:07,11:16:07,NA,incomplete,132,number,1,left,Red_Triangle_Grid_4.jpg,Blue_Star_Stripes_4.jpg,Purple_Circle_Grid_3.jpg,left,778.4749999991618,true,high,NA,NA,NA,NA,NA,NA,NA,false
ufT3gHyh,3zvpamtjxqgf8kd3gsoqdmjsr77grt,3s3amizx3yiadicnn72p7qd1s9adcr,ufT3gHyh,2020-0188,2020-11-21,10:55:07,11:16:07,NA,incomplete,133,number,1,left,Blue_Triangle_Stripes_2.jpg,Green_Star_Chess_2.jpg,Red_Circle_Stripes_1.jpg,right,680.5599999788683,false,high,NA,NA,NA,NA,NA,NA,NA,false
ufT3gHyh,3zvpamtjxqgf8kd3gsoqdmjsr77grt,3s3amizx3yiadicnn72p7qd1s9adcr,ufT3gHyh,2020-0188,2020-11-21,10:55:07,11:16:07,NA,incomplete,134,number,0,right,Green_Plus_Stripes_4.jpg,Purple_Star_Stripes_2.jpg,Red_Circle_Dots_4.jpg,right,808.6650000186637,true,high,NA,NA,NA,NA,NA,NA,NA,false
ufT3gHyh,3zvpamtjxqgf8kd3gsoqdmjsr77grt,3s3amizx3yiadicnn72p7qd1s9adcr,ufT3gHyh,2020-0188,2020-11-21,10:55:07,11:16:07,NA,incomplete,135,number,1,right,Green_Triangle_Dots_1.jpg,Blue_Star_Dots_4.jpg,Purple_Plus_Stripes_1.jpg,right,819.3200000096112,true,high,NA,NA,NA,NA,NA,NA,NA,false
ufT3gHyh,3zvpamtjxqgf8kd3gsoqdmjsr77grt,3s3amizx3yiadicnn72p7qd1s9adcr,ufT3gHyh,2020-0188,2020-11-21,10:55:07,11:16:07,NA,incomplete,136,number,1,left,Blue_Star_Grid_3.jpg,Green_Triangle_Chess_3.jpg,Purple_Plus_Grid_1.jpg,left,955.7649999915157,true,high,NA,NA,NA,NA,NA,NA,NA,false
ufT3gHyh,3zvpamtjxqgf8kd3gsoqdmjsr77grt,3s3amizx3yiadicnn72p7qd1s9adcr,ufT3gHyh,2020-0188,2020-11-21,10:55:07,11:16:07,NA,incomplete,137,number,1,right,Red_Triangle_Grid_3.jpg,Purple_Plus_Grid_4.jpg,Blue_Star_Chess_3.jpg,right,633.5550000076182,true,high,NA,NA,NA,NA,NA,NA,NA,false
ufT3gHyh,3zvpamtjxqgf8kd3gsoqdmjsr77grt,3s3amizx3yiadicnn72p7qd1s9adcr,ufT3gHyh,2020-0188,2020-11-21,10:55:07,11:16:07,NA,incomplete,138,number,1,left,Red_Circle_Dots_2.jpg,Blue_Star_Chess_2.jpg,Green_Plus_Dots_1.jpg,left,734.0499999991152,true,high,NA,NA,NA,NA,NA,NA,NA,false
ufT3gHyh,3zvpamtjxqgf8kd3gsoqdmjsr77grt,3s3amizx3yiadicnn72p7qd1s9adcr,ufT3gHyh,2020-0188,2020-11-21,10:55:07,11:16:07,NA,incomplete,139,number,1,left,Green_Triangle_Dots_1.jpg,Blue_Star_Grid_1.jpg,Purple_Circle_Dots_4.jpg,left,847.4700000078883,true,high,NA,NA,NA,NA,NA,NA,NA,false
ufT3gHyh,3zvpamtjxqgf8kd3gsoqdmjsr77grt,3s3amizx3yiadicnn72p7qd1s9adcr,ufT3gHyh,2020-0188,2020-11-21,10:55:07,11:16:07,NA,incomplete,140,filling,0,left,Red_Circle_Grid_2.jpg,Blue_Triangle_Grid_1.jpg,Purple_Plus_Chess_2.jpg,right,588.240000011865,false,high,NA,NA,NA,NA,NA,NA,NA,false
ufT3gHyh,3zvpamtjxqgf8kd3gsoqdmjsr77grt,3s3amizx3yiadicnn72p7qd1s9adcr,ufT3gHyh,2020-0188,2020-11-21,10:55:07,11:16:07,NA,incomplete,141,filling,1,left,Green_Plus_Stripes_4.jpg,Red_Star_Stripes_3.jpg,Blue_Triangle_Chess_4.jpg,right,543.8750000030268,false,high,NA,NA,NA,NA,NA,NA,NA,false
ufT3gHyh,3zvpamtjxqgf8kd3gsoqdmjsr77grt,3s3amizx3yiadicnn72p7qd1s9adcr,ufT3gHyh,2020-0188,2020-11-21,10:55:07,11:16:07,NA,incomplete,142,filling,1,left,Purple_Plus_Grid_3.jpg,Blue_Circle_Grid_2.jpg,Red_Triangle_Dots_3.jpg,left,710.8350000053179,true,high,NA,NA,NA,NA,NA,NA,NA,false
ufT3gHyh,3zvpamtjxqgf8kd3gsoqdmjsr77grt,3s3amizx3yiadicnn72p7qd1s9adcr,ufT3gHyh,2020-0188,2020-11-21,10:55:07,11:16:07,NA,incomplete,143,filling,0,right,Red_Circle_Chess_4.jpg,Purple_Plus_Stripes_4.jpg,Green_Triangle_Chess_2.jpg,right,844.1250000032596,true,high,NA,NA,NA,NA,NA,NA,NA,false
ufT3gHyh,3zvpamtjxqgf8kd3gsoqdmjsr77grt,3s3amizx3yiadicnn72p7qd1s9adcr,ufT3gHyh,2020-0188,2020-11-21,10:55:07,11:16:07,NA,incomplete,144,filling,1,left,Blue_Circle_Chess_1.jpg,Red_Plus_Chess_4.jpg,Green_Star_Grid_1.jpg,left,705.0300000119023,true,high,NA,NA,NA,NA,NA,NA,NA,false
ufT3gHyh,3zvpamtjxqgf8kd3gsoqdmjsr77grt,3s3amizx3yiadicnn72p7qd1s9adcr,ufT3gHyh,2020-0188,2020-11-21,10:55:07,11:16:07,NA,incomplete,145,filling,1,right,Green_Circle_Chess_4.jpg,Red_Plus_Stripes_4.jpg,Purple_Star_Chess_2.jpg,right,915.949999995064,true,high,NA,NA,NA,NA,NA,NA,NA,false
ufT3gHyh,3zvpamtjxqgf8kd3gsoqdmjsr77grt,3s3amizx3yiadicnn72p7qd1s9adcr,ufT3gHyh,2020-0188,2020-11-21,10:55:07,11:16:07,NA,incomplete,146,filling,1,right,Green_Star_Grid_4.jpg,Red_Circle_Chess_4.jpg,Blue_Triangle_Grid_3.jpg,right,905.0099999876693,true,high,NA,NA,NA,NA,NA,NA,NA,false
ufT3gHyh,3zvpamtjxqgf8kd3gsoqdmjsr77grt,3s3amizx3yiadicnn72p7qd1s9adcr,ufT3gHyh,2020-0188,2020-11-21,10:55:07,11:16:07,NA,incomplete,147,filling,1,right,Blue_Plus_Grid_4.jpg,Red_Triangle_Stripes_4.jpg,Purple_Star_Grid_2.jpg,right,1199.190000013914,true,high,NA,NA,NA,NA,NA,NA,NA,false
ufT3gHyh,3zvpamtjxqgf8kd3gsoqdmjsr77grt,3s3amizx3yiadicnn72p7qd1s9adcr,ufT3gHyh,2020-0188,2020-11-21,10:55:07,11:16:07,NA,incomplete,148,filling,1,right,Blue_Triangle_Dots_4.jpg,Purple_Circle_Chess_4.jpg,Green_Plus_Dots_1.jpg,right,1012.5200000184122,true,high,NA,NA,NA,NA,NA,NA,NA,false
ufT3gHyh,3zvpamtjxqgf8kd3gsoqdmjsr77grt,3s3amizx3yiadicnn72p7qd1s9adcr,ufT3gHyh,2020-0188,2020-11-21,10:55:07,11:16:07,NA,incomplete,149,filling,1,left,Red_Triangle_Chess_1.jpg,Green_Plus_Chess_4.jpg,Purple_Circle_Dots_1.jpg,left,962.9999999888241,true,high,NA,NA,NA,NA,NA,NA,NA,false
ufT3gHyh,3zvpamtjxqgf8kd3gsoqdmjsr77grt,3s3amizx3yiadicnn72p7qd1s9adcr,ufT3gHyh,2020-0188,2020-11-21,10:55:07,11:16:07,NA,incomplete,150,filling,1,right,Purple_Star_Stripes_3.jpg,Red_Plus_Dots_3.jpg,Blue_Circle_Stripes_2.jpg,right,939.4200000097044,true,high,NA,NA,NA,NA,NA,NA,NA,false
ufT3gHyh,3zvpamtjxqgf8kd3gsoqdmjsr77grt,3s3amizx3yiadicnn72p7qd1s9adcr,ufT3gHyh,2020-0188,2020-11-21,10:55:07,11:16:07,NA,incomplete,151,filling,1,left,Purple_Triangle_Grid_2.jpg,Green_Star_Grid_4.jpg,Blue_Circle_Stripes_2.jpg,left,1086.9449999881908,true,high,NA,NA,NA,NA,NA,NA,NA,false
ufT3gHyh,3zvpamtjxqgf8kd3gsoqdmjsr77grt,3s3amizx3yiadicnn72p7qd1s9adcr,ufT3gHyh,2020-0188,2020-11-21,10:55:07,11:16:07,NA,incomplete,152,filling,0,right,Green_Triangle_Grid_2.jpg,Red_Plus_Stripes_2.jpg,Purple_Circle_Grid_1.jpg,right,804.1249999951106,true,high,NA,NA,NA,NA,NA,NA,NA,false
ufT3gHyh,3zvpamtjxqgf8kd3gsoqdmjsr77grt,3s3amizx3yiadicnn72p7qd1s9adcr,ufT3gHyh,2020-0188,2020-11-21,10:55:07,11:16:07,NA,incomplete,153,filling,1,left,Red_Circle_Grid_2.jpg,Green_Triangle_Grid_1.jpg,Purple_Plus_Dots_2.jpg,right,823.1249999953434,false,high,NA,NA,NA,NA,NA,NA,NA,false
ufT3gHyh,3zvpamtjxqgf8kd3gsoqdmjsr77grt,3s3amizx3yiadicnn72p7qd1s9adcr,ufT3gHyh,2020-0188,2020-11-21,10:55:07,11:16:07,NA,incomplete,154,filling,1,right,Blue_Star_Chess_1.jpg,Red_Circle_Dots_1.jpg,Green_Plus_Chess_4.jpg,right,775.4899999999907,true,high,NA,NA,NA,NA,NA,NA,NA,false
ufT3gHyh,3zvpamtjxqgf8kd3gsoqdmjsr77grt,3s3amizx3yiadicnn72p7qd1s9adcr,ufT3gHyh,2020-0188,2020-11-21,10:55:07,11:16:07,NA,incomplete,155,filling,1,right,Green_Plus_Stripes_2.jpg,Purple_Circle_Dots_2.jpg,Red_Triangle_Stripes_1.jpg,right,796.6399999859277,true,high,NA,NA,NA,NA,NA,NA,NA,false
ufT3gHyh,3zvpamtjxqgf8kd3gsoqdmjsr77grt,3s3amizx3yiadicnn72p7qd1s9adcr,ufT3gHyh,2020-0188,2020-11-21,10:55:07,11:16:07,NA,incomplete,156,filling,0,left,Red_Plus_Dots_4.jpg,Blue_Star_Dots_3.jpg,Purple_Triangle_Grid_4.jpg,left,915.949999995064,true,high,NA,NA,NA,NA,NA,NA,NA,false
ufT3gHyh,3zvpamtjxqgf8kd3gsoqdmjsr77grt,3s3amizx3yiadicnn72p7qd1s9adcr,ufT3gHyh,2020-0188,2020-11-21,10:55:07,11:16:07,NA,incomplete,157,filling,1,right,Red_Star_Stripes_3.jpg,Green_Triangle_Grid_3.jpg,Blue_Circle_Stripes_2.jpg,left,740.0950000155717,false,high,NA,NA,NA,NA,NA,NA,NA,false
ufT3gHyh,3zvpamtjxqgf8kd3gsoqdmjsr77grt,3s3amizx3yiadicnn72p7qd1s9adcr,ufT3gHyh,2020-0188,2020-11-21,10:55:07,11:16:07,NA,incomplete,158,filling,1,right,Red_Star_Dots_1.jpg,Blue_Circle_Chess_1.jpg,Purple_Triangle_Dots_2.jpg,right,910.9049999970011,true,high,NA,NA,NA,NA,NA,NA,NA,false
ufT3gHyh,3zvpamtjxqgf8kd3gsoqdmjsr77grt,3s3amizx3yiadicnn72p7qd1s9adcr,ufT3gHyh,2020-0188,2020-11-21,10:55:07,11:16:07,NA,incomplete,159,filling,1,left,Blue_Plus_Grid_3.jpg,Purple_Triangle_Grid_1.jpg,Red_Star_Stripes_3.jpg,left,818.249999982072,true,high,NA,NA,NA,NA,NA,NA,NA,false
ufT3gHyh,3zvpamtjxqgf8kd3gsoqdmjsr77grt,3s3amizx3yiadicnn72p7qd1s9adcr,ufT3gHyh,2020-0188,2020-11-21,10:55:07,11:16:07,NA,incomplete,160,number,0,right,Red_Plus_Stripes_1.jpg,Green_Triangle_Stripes_3.jpg,Purple_Star_Dots_1.jpg,left,868.9349999767728,false,high,NA,NA,NA,NA,NA,NA,NA,false
ufT3gHyh,3zvpamtjxqgf8kd3gsoqdmjsr77grt,3s3amizx3yiadicnn72p7qd1s9adcr,ufT3gHyh,2020-0188,2020-11-21,10:55:07,11:16:07,NA,incomplete,161,number,1,right,Purple_Plus_Dots_4.jpg,Blue_Triangle_Dots_2.jpg,Red_Circle_Grid_4.jpg,left,811.5149999794085,false,high,NA,NA,NA,NA,NA,NA,NA,false
ufT3gHyh,3zvpamtjxqgf8kd3gsoqdmjsr77grt,3s3amizx3yiadicnn72p7qd1s9adcr,ufT3gHyh,2020-0188,2020-11-21,10:55:07,11:16:07,NA,incomplete,162,number,1,right,Green_Plus_Chess_4.jpg,Red_Triangle_Chess_2.jpg,Purple_Star_Dots_4.jpg,right,751.5750000020489,true,high,NA,NA,NA,NA,NA,NA,NA,false
ufT3gHyh,3zvpamtjxqgf8kd3gsoqdmjsr77grt,3s3amizx3yiadicnn72p7qd1s9adcr,ufT3gHyh,2020-0188,2020-11-21,10:55:07,11:16:07,NA,incomplete,163,number,1,left,Red_Star_Dots_3.jpg,Green_Triangle_Chess_3.jpg,Blue_Circle_Dots_1.jpg,left,565.4250000079628,true,high,NA,NA,NA,NA,NA,NA,NA,false
ufT3gHyh,3zvpamtjxqgf8kd3gsoqdmjsr77grt,3s3amizx3yiadicnn72p7qd1s9adcr,ufT3gHyh,2020-0188,2020-11-21,10:55:07,11:16:07,NA,incomplete,164,number,1,left,Red_Plus_Stripes_1.jpg,Blue_Triangle_Chess_1.jpg,Green_Star_Stripes_3.jpg,left,677.5499999930616,true,high,NA,NA,NA,NA,NA,NA,NA,false
ufT3gHyh,3zvpamtjxqgf8kd3gsoqdmjsr77grt,3s3amizx3yiadicnn72p7qd1s9adcr,ufT3gHyh,2020-0188,2020-11-21,10:55:07,11:16:07,NA,incomplete,165,number,0,right,Green_Star_Grid_3.jpg,Red_Circle_Grid_1.jpg,Purple_Plus_Chess_3.jpg,right,766.8349999876227,true,high,NA,NA,NA,NA,NA,NA,NA,false
ufT3gHyh,3zvpamtjxqgf8kd3gsoqdmjsr77grt,3s3amizx3yiadicnn72p7qd1s9adcr,ufT3gHyh,2020-0188,2020-11-21,10:55:07,11:16:07,NA,incomplete,166,number,1,left,Purple_Triangle_Dots_4.jpg,Blue_Star_Chess_4.jpg,Green_Plus_Dots_3.jpg,left,686.4150000037625,true,high,NA,NA,NA,NA,NA,NA,NA,false
ufT3gHyh,3zvpamtjxqgf8kd3gsoqdmjsr77grt,3s3amizx3yiadicnn72p7qd1s9adcr,ufT3gHyh,2020-0188,2020-11-21,10:55:07,11:16:07,NA,incomplete,167,number,0,right,Green_Triangle_Chess_3.jpg,Purple_Plus_Chess_2.jpg,Red_Star_Stripes_3.jpg,right,588.3249999897089,true,high,NA,NA,NA,NA,NA,NA,NA,false
ufT3gHyh,3zvpamtjxqgf8kd3gsoqdmjsr77grt,3s3amizx3yiadicnn72p7qd1s9adcr,ufT3gHyh,2020-0188,2020-11-21,10:55:07,11:16:07,NA,incomplete,168,number,1,left,Green_Circle_Chess_2.jpg,Purple_Triangle_Dots_2.jpg,Blue_Star_Chess_1.jpg,left,763.264999986859,true,high,NA,NA,NA,NA,NA,NA,NA,false
ufT3gHyh,3zvpamtjxqgf8kd3gsoqdmjsr77grt,3s3amizx3yiadicnn72p7qd1s9adcr,ufT3gHyh,2020-0188,2020-11-21,10:55:07,11:16:07,NA,incomplete,169,number,1,right,Green_Triangle_Stripes_3.jpg,Red_Circle_Stripes_2.jpg,Blue_Plus_Chess_3.jpg,right,722.1049999934621,true,high,NA,NA,NA,NA,NA,NA,NA,false
ufT3gHyh,3zvpamtjxqgf8kd3gsoqdmjsr77grt,3s3amizx3yiadicnn72p7qd1s9adcr,ufT3gHyh,2020-0188,2020-11-21,10:55:07,11:16:07,NA,incomplete,170,number,1,right,Red_Star_Dots_2.jpg,Green_Circle_Dots_1.jpg,Purple_Plus_Stripes_2.jpg,right,604.3899999931455,true,high,NA,NA,NA,NA,NA,NA,NA,false
ufT3gHyh,3zvpamtjxqgf8kd3gsoqdmjsr77grt,3s3amizx3yiadicnn72p7qd1s9adcr,ufT3gHyh,2020-0188,2020-11-21,10:55:07,11:16:07,NA,incomplete,171,number,1,right,Blue_Circle_Stripes_2.jpg,Purple_Star_Stripes_4.jpg,Green_Plus_Dots_2.jpg,right,955.6199999933597,true,high,NA,NA,NA,NA,NA,NA,NA,false
ufT3gHyh,3zvpamtjxqgf8kd3gsoqdmjsr77grt,3s3amizx3yiadicnn72p7qd1s9adcr,ufT3gHyh,2020-0188,2020-11-21,10:55:07,11:16:07,NA,incomplete,172,number,1,right,Green_Plus_Chess_4.jpg,Purple_Triangle_Chess_2.jpg,Blue_Star_Stripes_4.jpg,right,701.5600000158884,true,high,NA,NA,NA,NA,NA,NA,NA,false
ufT3gHyh,3zvpamtjxqgf8kd3gsoqdmjsr77grt,3s3amizx3yiadicnn72p7qd1s9adcr,ufT3gHyh,2020-0188,2020-11-21,10:55:07,11:16:07,NA,incomplete,173,number,1,right,Green_Triangle_Grid_2.jpg,Purple_Star_Grid_1.jpg,Red_Circle_Chess_2.jpg,right,724.0100000053644,true,high,NA,NA,NA,NA,NA,NA,NA,false
ufT3gHyh,3zvpamtjxqgf8kd3gsoqdmjsr77grt,3s3amizx3yiadicnn72p7qd1s9adcr,ufT3gHyh,2020-0188,2020-11-21,10:55:07,11:16:07,NA,incomplete,174,number,1,right,Purple_Circle_Chess_2.jpg,Red_Plus_Chess_4.jpg,Green_Triangle_Grid_2.jpg,right,689.2099999822676,true,high,NA,NA,NA,NA,NA,NA,NA,false
ufT3gHyh,3zvpamtjxqgf8kd3gsoqdmjsr77grt,3s3amizx3yiadicnn72p7qd1s9adcr,ufT3gHyh,2020-0188,2020-11-21,10:55:07,11:16:07,NA,incomplete,175,number,1,right,Blue_Star_Stripes_2.jpg,Purple_Triangle_Stripes_3.jpg,Red_Plus_Grid_2.jpg,right,658.7450000224635,true,high,NA,NA,NA,NA,NA,NA,NA,false
ufT3gHyh,3zvpamtjxqgf8kd3gsoqdmjsr77grt,3s3amizx3yiadicnn72p7qd1s9adcr,ufT3gHyh,2020-0188,2020-11-21,10:55:07,11:16:07,NA,incomplete,176,number,1,left,Red_Plus_Stripes_4.jpg,Green_Triangle_Chess_4.jpg,Purple_Circle_Stripes_3.jpg,left,741.4049999788404,true,high,NA,NA,NA,NA,NA,NA,NA,false
ufT3gHyh,3zvpamtjxqgf8kd3gsoqdmjsr77grt,3s3amizx3yiadicnn72p7qd1s9adcr,ufT3gHyh,2020-0188,2020-11-21,10:55:07,11:16:07,NA,incomplete,177,number,1,right,Purple_Plus_Chess_4.jpg,Green_Star_Chess_1.jpg,Blue_Circle_Stripes_4.jpg,right,628.5650000208989,true,high,NA,NA,NA,NA,NA,NA,NA,false
ufT3gHyh,3zvpamtjxqgf8kd3gsoqdmjsr77grt,3s3amizx3yiadicnn72p7qd1s9adcr,ufT3gHyh,2020-0188,2020-11-21,10:55:07,11:16:07,NA,incomplete,178,number,1,right,Red_Plus_Grid_3.jpg,Purple_Triangle_Grid_1.jpg,Blue_Circle_Stripes_3.jpg,right,753.0649999971502,true,high,NA,NA,NA,NA,NA,NA,NA,false
ufT3gHyh,3zvpamtjxqgf8kd3gsoqdmjsr77grt,3s3amizx3yiadicnn72p7qd1s9adcr,ufT3gHyh,2020-0188,2020-11-21,10:55:07,11:16:07,NA,incomplete,179,number,1,left,Blue_Triangle_Grid_3.jpg,Red_Circle_Chess_3.jpg,Purple_Star_Grid_2.jpg,left,732.7649999933783,true,high,NA,NA,NA,NA,NA,NA,NA,false
ufT3gHyh,3zvpamtjxqgf8kd3gsoqdmjsr77grt,3s3amizx3yiadicnn72p7qd1s9adcr,ufT3gHyh,2020-0188,2020-11-21,10:55:07,11:16:07,NA,incomplete,180,filling,1,left,Red_Triangle_Stripes_4.jpg,Purple_Circle_Stripes_3.jpg,Green_Plus_Dots_4.jpg,right,604.0799999900628,false,high,NA,NA,NA,NA,NA,NA,NA,false
ufT3gHyh,3zvpamtjxqgf8kd3gsoqdmjsr77grt,3s3amizx3yiadicnn72p7qd1s9adcr,ufT3gHyh,2020-0188,2020-11-21,10:55:07,11:16:07,NA,incomplete,181,filling,1,right,Blue_Plus_Stripes_3.jpg,Green_Triangle_Dots_3.jpg,Purple_Star_Stripes_2.jpg,right,718.6649999930523,true,high,NA,NA,NA,NA,NA,NA,NA,false
ufT3gHyh,3zvpamtjxqgf8kd3gsoqdmjsr77grt,3s3amizx3yiadicnn72p7qd1s9adcr,ufT3gHyh,2020-0188,2020-11-21,10:55:07,11:16:07,NA,incomplete,182,filling,1,right,Blue_Star_Grid_3.jpg,Red_Circle_Stripes_3.jpg,Purple_Triangle_Grid_4.jpg,right,892.0849999994971,true,high,NA,NA,NA,NA,NA,NA,NA,false
ufT3gHyh,3zvpamtjxqgf8kd3gsoqdmjsr77grt,3s3amizx3yiadicnn72p7qd1s9adcr,ufT3gHyh,2020-0188,2020-11-21,10:55:07,11:16:07,NA,incomplete,183,filling,1,left,Green_Triangle_Dots_4.jpg,Blue_Plus_Dots_2.jpg,Red_Circle_Stripes_4.jpg,left,934.945000015432,true,high,NA,NA,NA,NA,NA,NA,NA,false
ufT3gHyh,3zvpamtjxqgf8kd3gsoqdmjsr77grt,3s3amizx3yiadicnn72p7qd1s9adcr,ufT3gHyh,2020-0188,2020-11-21,10:55:07,11:16:07,NA,incomplete,184,filling,1,right,Green_Star_Dots_1.jpg,Blue_Circle_Chess_1.jpg,Purple_Plus_Dots_3.jpg,right,872.9300000122748,true,high,NA,NA,NA,NA,NA,NA,NA,false
ufT3gHyh,3zvpamtjxqgf8kd3gsoqdmjsr77grt,3s3amizx3yiadicnn72p7qd1s9adcr,ufT3gHyh,2020-0188,2020-11-21,10:55:07,11:16:07,NA,incomplete,185,filling,1,right,Purple_Star_Dots_1.jpg,Green_Plus_Grid_1.jpg,Blue_Circle_Dots_2.jpg,right,762.3449999955483,true,high,NA,NA,NA,NA,NA,NA,NA,false
ufT3gHyh,3zvpamtjxqgf8kd3gsoqdmjsr77grt,3s3amizx3yiadicnn72p7qd1s9adcr,ufT3gHyh,2020-0188,2020-11-21,10:55:07,11:16:07,NA,incomplete,186,filling,1,right,Green_Circle_Dots_3.jpg,Blue_Plus_Chess_3.jpg,Purple_Triangle_Dots_2.jpg,right,666.5499999944586,true,high,NA,NA,NA,NA,NA,NA,NA,false
ufT3gHyh,3zvpamtjxqgf8kd3gsoqdmjsr77grt,3s3amizx3yiadicnn72p7qd1s9adcr,ufT3gHyh,2020-0188,2020-11-21,10:55:07,11:16:07,NA,incomplete,187,filling,1,right,Red_Plus_Dots_4.jpg,Purple_Triangle_Chess_4.jpg,Blue_Star_Dots_2.jpg,right,711.2950000155251,true,high,NA,NA,NA,NA,NA,NA,NA,false
ufT3gHyh,3zvpamtjxqgf8kd3gsoqdmjsr77grt,3s3amizx3yiadicnn72p7qd1s9adcr,ufT3gHyh,2020-0188,2020-11-21,10:55:07,11:16:07,NA,incomplete,188,filling,1,right,Green_Triangle_Dots_3.jpg,Blue_Star_Chess_3.jpg,Red_Circle_Dots_4.jpg,right,653.7850000022445,true,high,NA,NA,NA,NA,NA,NA,NA,false
ufT3gHyh,3zvpamtjxqgf8kd3gsoqdmjsr77grt,3s3amizx3yiadicnn72p7qd1s9adcr,ufT3gHyh,2020-0188,2020-11-21,10:55:07,11:16:07,NA,incomplete,189,filling,1,right,Purple_Star_Stripes_4.jpg,Green_Circle_Grid_4.jpg,Red_Triangle_Stripes_3.jpg,right,792.3650000011548,true,high,NA,NA,NA,NA,NA,NA,NA,false
ufT3gHyh,3zvpamtjxqgf8kd3gsoqdmjsr77grt,3s3amizx3yiadicnn72p7qd1s9adcr,ufT3gHyh,2020-0188,2020-11-21,10:55:07,11:16:07,NA,incomplete,190,filling,0,right,Green_Circle_Stripes_1.jpg,Red_Triangle_Dots_1.jpg,Blue_Plus_Stripes_3.jpg,right,646.6550000186544,true,high,NA,NA,NA,NA,NA,NA,NA,false
ufT3gHyh,3zvpamtjxqgf8kd3gsoqdmjsr77grt,3s3amizx3yiadicnn72p7qd1s9adcr,ufT3gHyh,2020-0188,2020-11-21,10:55:07,11:16:07,NA,incomplete,191,filling,1,left,Purple_Plus_Chess_3.jpg,Blue_Circle_Chess_4.jpg,Green_Star_Dots_3.jpg,left,693.859999999404,true,high,NA,NA,NA,NA,NA,NA,NA,false
ufT3gHyh,3zvpamtjxqgf8kd3gsoqdmjsr77grt,3s3amizx3yiadicnn72p7qd1s9adcr,ufT3gHyh,2020-0188,2020-11-21,10:55:07,11:16:07,NA,incomplete,192,filling,1,left,Blue_Plus_Dots_4.jpg,Purple_Triangle_Dots_1.jpg,Green_Star_Chess_4.jpg,left,811.5300000063144,true,high,NA,NA,NA,NA,NA,NA,NA,false
ufT3gHyh,3zvpamtjxqgf8kd3gsoqdmjsr77grt,3s3amizx3yiadicnn72p7qd1s9adcr,ufT3gHyh,2020-0188,2020-11-21,10:55:07,11:16:07,NA,incomplete,193,filling,1,right,Blue_Star_Chess_1.jpg,Purple_Circle_Stripes_1.jpg,Red_Triangle_Chess_2.jpg,right,691.915000003064,true,high,NA,NA,NA,NA,NA,NA,NA,false
ufT3gHyh,3zvpamtjxqgf8kd3gsoqdmjsr77grt,3s3amizx3yiadicnn72p7qd1s9adcr,ufT3gHyh,2020-0188,2020-11-21,10:55:07,11:16:07,NA,incomplete,194,filling,0,right,Blue_Plus_Chess_3.jpg,Purple_Circle_Stripes_3.jpg,Green_Triangle_Chess_4.jpg,right,810.4200000234414,true,high,NA,NA,NA,NA,NA,NA,NA,false
ufT3gHyh,3zvpamtjxqgf8kd3gsoqdmjsr77grt,3s3amizx3yiadicnn72p7qd1s9adcr,ufT3gHyh,2020-0188,2020-11-21,10:55:07,11:16:07,NA,incomplete,195,filling,1,left,Blue_Star_Dots_1.jpg,Purple_Triangle_Dots_4.jpg,Red_Plus_Stripes_1.jpg,right,554.4049999734852,false,high,NA,NA,NA,NA,NA,NA,NA,false
ufT3gHyh,3zvpamtjxqgf8kd3gsoqdmjsr77grt,3s3amizx3yiadicnn72p7qd1s9adcr,ufT3gHyh,2020-0188,2020-11-21,10:55:07,11:16:07,NA,incomplete,196,filling,1,right,Red_Star_Chess_1.jpg,Blue_Triangle_Stripes_1.jpg,Green_Plus_Chess_3.jpg,right,826.1699999857228,true,high,NA,NA,NA,NA,NA,NA,NA,false
ufT3gHyh,3zvpamtjxqgf8kd3gsoqdmjsr77grt,3s3amizx3yiadicnn72p7qd1s9adcr,ufT3gHyh,2020-0188,2020-11-21,10:55:07,11:16:07,NA,incomplete,197,filling,1,left,Blue_Circle_Dots_4.jpg,Purple_Plus_Dots_3.jpg,Red_Star_Grid_4.jpg,left,881.519999995362,true,high,NA,NA,NA,NA,NA,NA,NA,false
ufT3gHyh,3zvpamtjxqgf8kd3gsoqdmjsr77grt,3s3amizx3yiadicnn72p7qd1s9adcr,ufT3gHyh,2020-0188,2020-11-21,10:55:07,11:16:07,NA,incomplete,198,filling,1,left,Green_Star_Chess_3.jpg,Purple_Triangle_Chess_2.jpg,Blue_Plus_Dots_3.jpg,left,734.5449999847915,true,high,NA,NA,NA,NA,NA,NA,NA,false
ufT3gHyh,3zvpamtjxqgf8kd3gsoqdmjsr77grt,3s3amizx3yiadicnn72p7qd1s9adcr,ufT3gHyh,2020-0188,2020-11-21,10:55:07,11:16:07,NA,incomplete,199,filling,0,left,Green_Plus_Stripes_1.jpg,Red_Star_Stripes_4.jpg,Purple_Triangle_Dots_1.jpg,left,1229.3549999885727,true,high,NA,NA,NA,NA,NA,NA,NA,false
ufT3gHyh,3zvpamtjxqgf8kd3gsoqdmjsr77grt,3s3amizx3yiadicnn72p7qd1s9adcr,ufT3gHyh,2020-0188,2020-11-21,10:55:07,11:16:07,NA,incomplete,200,number,1,right,Purple_Triangle_Dots_4.jpg,Green_Circle_Dots_3.jpg,Red_Plus_Stripes_4.jpg,left,735.8600000152364,false,high,NA,NA,NA,NA,NA,NA,NA,false
ufT3gHyh,3zvpamtjxqgf8kd3gsoqdmjsr77grt,3s3amizx3yiadicnn72p7qd1s9adcr,ufT3gHyh,2020-0188,2020-11-21,10:55:07,11:16:07,NA,incomplete,201,number,1,left,Red_Plus_Stripes_1.jpg,Blue_Circle_Chess_1.jpg,Purple_Triangle_Stripes_2.jpg,right,634.2549999826588,false,high,NA,NA,NA,NA,NA,NA,NA,false
ufT3gHyh,3zvpamtjxqgf8kd3gsoqdmjsr77grt,3s3amizx3yiadicnn72p7qd1s9adcr,ufT3gHyh,2020-0188,2020-11-21,10:55:07,11:16:07,NA,incomplete,202,number,0,right,Red_Triangle_Stripes_1.jpg,Blue_Circle_Stripes_4.jpg,Green_Star_Grid_1.jpg,right,1099.660000007134,true,high,NA,NA,NA,NA,NA,NA,NA,false
ufT3gHyh,3zvpamtjxqgf8kd3gsoqdmjsr77grt,3s3amizx3yiadicnn72p7qd1s9adcr,ufT3gHyh,2020-0188,2020-11-21,10:55:07,11:16:07,NA,incomplete,203,number,1,right,Green_Triangle_Grid_4.jpg,Red_Circle_Grid_1.jpg,Blue_Plus_Chess_4.jpg,left,915.9949999884702,false,high,NA,NA,NA,NA,NA,NA,NA,false
ufT3gHyh,3zvpamtjxqgf8kd3gsoqdmjsr77grt,3s3amizx3yiadicnn72p7qd1s9adcr,ufT3gHyh,2020-0188,2020-11-21,10:55:07,11:16:07,NA,incomplete,204,number,1,right,Red_Circle_Grid_4.jpg,Purple_Star_Grid_1.jpg,Blue_Plus_Dots_4.jpg,right,1898.270000005141,true,high,NA,NA,NA,NA,NA,NA,NA,false
ufT3gHyh,3zvpamtjxqgf8kd3gsoqdmjsr77grt,3s3amizx3yiadicnn72p7qd1s9adcr,ufT3gHyh,2020-0188,2020-11-21,10:55:07,11:16:07,NA,incomplete,205,number,1,left,Blue_Triangle_Chess_2.jpg,Green_Plus_Grid_2.jpg,Purple_Star_Chess_3.jpg,left,649.4949999905657,true,high,NA,NA,NA,NA,NA,NA,NA,false
ufT3gHyh,3zvpamtjxqgf8kd3gsoqdmjsr77grt,3s3amizx3yiadicnn72p7qd1s9adcr,ufT3gHyh,2020-0188,2020-11-21,10:55:07,11:16:07,NA,incomplete,206,number,1,right,Red_Circle_Chess_4.jpg,Blue_Triangle_Chess_3.jpg,Green_Star_Grid_4.jpg,right,1102.8949999890756,true,high,NA,NA,NA,NA,NA,NA,NA,false
ufT3gHyh,3zvpamtjxqgf8kd3gsoqdmjsr77grt,3s3amizx3yiadicnn72p7qd1s9adcr,ufT3gHyh,2020-0188,2020-11-21,10:55:07,11:16:07,NA,incomplete,207,number,1,left,Blue_Plus_Grid_2.jpg,Red_Triangle_Stripes_2.jpg,Green_Circle_Grid_3.jpg,left,643.034999986412,true,high,NA,NA,NA,NA,NA,NA,NA,false
ufT3gHyh,3zvpamtjxqgf8kd3gsoqdmjsr77grt,3s3amizx3yiadicnn72p7qd1s9adcr,ufT3gHyh,2020-0188,2020-11-21,10:55:07,11:16:07,NA,incomplete,208,number,0,left,Green_Circle_Dots_2.jpg,Red_Triangle_Grid_2.jpg,Purple_Star_Dots_1.jpg,left,736.5249999857042,true,high,NA,NA,NA,NA,NA,NA,NA,false
ufT3gHyh,3zvpamtjxqgf8kd3gsoqdmjsr77grt,3s3amizx3yiadicnn72p7qd1s9adcr,ufT3gHyh,2020-0188,2020-11-21,10:55:07,11:16:07,NA,incomplete,209,number,1,right,Blue_Circle_Dots_1.jpg,Red_Star_Dots_2.jpg,Purple_Plus_Stripes_1.jpg,right,619.1650000109803,true,high,NA,NA,NA,NA,NA,NA,NA,false
ufT3gHyh,3zvpamtjxqgf8kd3gsoqdmjsr77grt,3s3amizx3yiadicnn72p7qd1s9adcr,ufT3gHyh,2020-0188,2020-11-21,10:55:07,11:16:07,NA,incomplete,210,number,1,left,Red_Plus_Grid_1.jpg,Blue_Circle_Stripes_1.jpg,Purple_Star_Grid_4.jpg,left,565.3399999719113,true,high,NA,NA,NA,NA,NA,NA,NA,false
ufT3gHyh,3zvpamtjxqgf8kd3gsoqdmjsr77grt,3s3amizx3yiadicnn72p7qd1s9adcr,ufT3gHyh,2020-0188,2020-11-21,10:55:07,11:16:07,NA,incomplete,211,number,0,right,Green_Circle_Stripes_4.jpg,Red_Triangle_Stripes_3.jpg,Purple_Star_Chess_4.jpg,right,547.549999988405,true,high,NA,NA,NA,NA,NA,NA,NA,false
ufT3gHyh,3zvpamtjxqgf8kd3gsoqdmjsr77grt,3s3amizx3yiadicnn72p7qd1s9adcr,ufT3gHyh,2020-0188,2020-11-21,10:55:07,11:16:07,NA,incomplete,212,number,1,left,Red_Star_Grid_3.jpg,Green_Plus_Chess_3.jpg,Blue_Triangle_Grid_1.jpg,left,730.8799999882467,true,high,NA,NA,NA,NA,NA,NA,NA,false
ufT3gHyh,3zvpamtjxqgf8kd3gsoqdmjsr77grt,3s3amizx3yiadicnn72p7qd1s9adcr,ufT3gHyh,2020-0188,2020-11-21,10:55:07,11:16:07,NA,incomplete,213,number,1,left,Green_Triangle_Dots_3.jpg,Red_Plus_Chess_3.jpg,Purple_Star_Dots_1.jpg,left,712.2650000092108,true,high,NA,NA,NA,NA,NA,NA,NA,false
ufT3gHyh,3zvpamtjxqgf8kd3gsoqdmjsr77grt,3s3amizx3yiadicnn72p7qd1s9adcr,ufT3gHyh,2020-0188,2020-11-21,10:55:07,11:16:07,NA,incomplete,214,number,1,right,Purple_Triangle_Chess_3.jpg,Green_Plus_Chess_2.jpg,Red_Star_Dots_3.jpg,right,533.7599999911617,true,high,NA,NA,NA,NA,NA,NA,NA,false
ufT3gHyh,3zvpamtjxqgf8kd3gsoqdmjsr77grt,3s3amizx3yiadicnn72p7qd1s9adcr,ufT3gHyh,2020-0188,2020-11-21,10:55:07,11:16:07,NA,incomplete,215,number,1,left,Green_Triangle_Stripes_4.jpg,Blue_Plus_Chess_4.jpg,Red_Star_Stripes_3.jpg,left,984.230000001844,true,high,NA,NA,NA,NA,NA,NA,NA,false
ufT3gHyh,3zvpamtjxqgf8kd3gsoqdmjsr77grt,3s3amizx3yiadicnn72p7qd1s9adcr,ufT3gHyh,2020-0188,2020-11-21,10:55:07,11:16:07,NA,incomplete,216,number,1,right,Green_Triangle_Grid_2.jpg,Blue_Plus_Grid_3.jpg,Red_Circle_Dots_2.jpg,right,934.4799999962561,true,high,NA,NA,NA,NA,NA,NA,NA,false
ufT3gHyh,3zvpamtjxqgf8kd3gsoqdmjsr77grt,3s3amizx3yiadicnn72p7qd1s9adcr,ufT3gHyh,2020-0188,2020-11-21,10:55:07,11:16:07,NA,incomplete,217,number,1,left,Green_Plus_Grid_3.jpg,Red_Triangle_Chess_3.jpg,Purple_Circle_Grid_4.jpg,left,724.2200000036974,true,high,NA,NA,NA,NA,NA,NA,NA,false
ufT3gHyh,3zvpamtjxqgf8kd3gsoqdmjsr77grt,3s3amizx3yiadicnn72p7qd1s9adcr,ufT3gHyh,2020-0188,2020-11-21,10:55:07,11:16:07,NA,incomplete,218,number,0,left,Purple_Plus_Stripes_3.jpg,Green_Star_Grid_3.jpg,Red_Triangle_Stripes_4.jpg,left,741.0099999979138,true,high,NA,NA,NA,NA,NA,NA,NA,false
ufT3gHyh,3zvpamtjxqgf8kd3gsoqdmjsr77grt,3s3amizx3yiadicnn72p7qd1s9adcr,ufT3gHyh,2020-0188,2020-11-21,10:55:07,11:16:07,NA,incomplete,219,number,1,left,Red_Triangle_Stripes_2.jpg,Purple_Star_Grid_2.jpg,Green_Circle_Stripes_3.jpg,left,689.234999998007,true,high,NA,NA,NA,NA,NA,NA,NA,false
ufT3gHyh,3zvpamtjxqgf8kd3gsoqdmjsr77grt,3s3amizx3yiadicnn72p7qd1s9adcr,ufT3gHyh,2020-0188,2020-11-21,10:55:07,11:16:07,NA,incomplete,220,filling,1,right,Blue_Plus_Dots_2.jpg,Green_Circle_Grid_2.jpg,Purple_Star_Dots_3.jpg,left,681.0500000137836,false,high,NA,NA,NA,NA,NA,NA,NA,false
ufT3gHyh,3zvpamtjxqgf8kd3gsoqdmjsr77grt,3s3amizx3yiadicnn72p7qd1s9adcr,ufT3gHyh,2020-0188,2020-11-21,10:55:07,11:16:07,NA,incomplete,221,filling,1,right,Purple_Plus_Dots_4.jpg,Red_Triangle_Grid_4.jpg,Blue_Star_Dots_3.jpg,left,781.4199999847915,false,high,NA,NA,NA,NA,NA,NA,NA,false
ufT3gHyh,3zvpamtjxqgf8kd3gsoqdmjsr77grt,3s3amizx3yiadicnn72p7qd1s9adcr,ufT3gHyh,2020-0188,2020-11-21,10:55:07,11:16:07,NA,incomplete,222,filling,0,left,Green_Triangle_Chess_4.jpg,Blue_Star_Chess_2.jpg,Purple_Plus_Dots_4.jpg,right,615.7250000105705,false,high,NA,NA,NA,NA,NA,NA,NA,false
ufT3gHyh,3zvpamtjxqgf8kd3gsoqdmjsr77grt,3s3amizx3yiadicnn72p7qd1s9adcr,ufT3gHyh,2020-0188,2020-11-21,10:55:07,11:16:07,NA,incomplete,223,filling,1,left,Blue_Triangle_Dots_4.jpg,Red_Star_Dots_3.jpg,Green_Circle_Stripes_4.jpg,right,926.4700000057928,false,high,NA,NA,NA,NA,NA,NA,NA,false
ufT3gHyh,3zvpamtjxqgf8kd3gsoqdmjsr77grt,3s3amizx3yiadicnn72p7qd1s9adcr,ufT3gHyh,2020-0188,2020-11-21,10:55:07,11:16:07,NA,incomplete,224,filling,0,right,Green_Star_Stripes_4.jpg,Purple_Plus_Grid_4.jpg,Blue_Circle_Stripes_3.jpg,left,752.2999999928288,false,high,NA,NA,NA,NA,NA,NA,NA,false
ufT3gHyh,3zvpamtjxqgf8kd3gsoqdmjsr77grt,3s3amizx3yiadicnn72p7qd1s9adcr,ufT3gHyh,2020-0188,2020-11-21,10:55:07,11:16:07,NA,incomplete,225,filling,1,left,Green_Plus_Grid_4.jpg,Purple_Circle_Grid_2.jpg,Red_Triangle_Dots_4.jpg,right,573.1850000156555,false,high,NA,NA,NA,NA,NA,NA,NA,false
ufT3gHyh,3zvpamtjxqgf8kd3gsoqdmjsr77grt,3s3amizx3yiadicnn72p7qd1s9adcr,ufT3gHyh,2020-0188,2020-11-21,10:55:07,11:16:07,NA,incomplete,226,filling,1,right,Red_Triangle_Chess_2.jpg,Green_Circle_Grid_2.jpg,Blue_Star_Chess_3.jpg,left,677.9600000008941,false,high,NA,NA,NA,NA,NA,NA,NA,false
ufT3gHyh,3zvpamtjxqgf8kd3gsoqdmjsr77grt,3s3amizx3yiadicnn72p7qd1s9adcr,ufT3gHyh,2020-0188,2020-11-21,10:55:07,11:16:07,NA,incomplete,227,filling,1,right,Red_Plus_Chess_2.jpg,Green_Circle_Grid_2.jpg,Blue_Star_Chess_3.jpg,left,600.2850000222679,false,high,NA,NA,NA,NA,NA,NA,NA,false
ufT3gHyh,3zvpamtjxqgf8kd3gsoqdmjsr77grt,3s3amizx3yiadicnn72p7qd1s9adcr,ufT3gHyh,2020-0188,2020-11-21,10:55:07,11:16:07,NA,incomplete,228,filling,0,right,Purple_Triangle_Grid_1.jpg,Red_Star_Chess_1.jpg,Blue_Plus_Grid_3.jpg,right,955.2799999946728,true,high,NA,NA,NA,NA,NA,NA,NA,false
ufT3gHyh,3zvpamtjxqgf8kd3gsoqdmjsr77grt,3s3amizx3yiadicnn72p7qd1s9adcr,ufT3gHyh,2020-0188,2020-11-21,10:55:07,11:16:07,NA,incomplete,229,filling,1,right,Green_Star_Chess_3.jpg,Red_Circle_Grid_3.jpg,Blue_Plus_Chess_1.jpg,left,1040.4900000139605,false,high,NA,NA,NA,NA,NA,NA,NA,false
ufT3gHyh,3zvpamtjxqgf8kd3gsoqdmjsr77grt,3s3amizx3yiadicnn72p7qd1s9adcr,ufT3gHyh,2020-0188,2020-11-21,10:55:07,11:16:07,NA,incomplete,230,filling,1,left,Red_Circle_Stripes_4.jpg,Purple_Triangle_Stripes_1.jpg,Green_Plus_Dots_4.jpg,left,1138.4750000142958,true,high,NA,NA,NA,NA,NA,NA,NA,false
ufT3gHyh,3zvpamtjxqgf8kd3gsoqdmjsr77grt,3s3amizx3yiadicnn72p7qd1s9adcr,ufT3gHyh,2020-0188,2020-11-21,10:55:07,11:16:07,NA,incomplete,231,filling,1,left,Purple_Star_Dots_3.jpg,Green_Triangle_Dots_1.jpg,Red_Plus_Stripes_3.jpg,left,1025.0700000033248,true,high,NA,NA,NA,NA,NA,NA,NA,false
ufT3gHyh,3zvpamtjxqgf8kd3gsoqdmjsr77grt,3s3amizx3yiadicnn72p7qd1s9adcr,ufT3gHyh,2020-0188,2020-11-21,10:55:07,11:16:07,NA,incomplete,232,filling,1,left,Red_Circle_Stripes_3.jpg,Green_Star_Stripes_4.jpg,Purple_Plus_Dots_3.jpg,left,773.8200000021607,true,high,NA,NA,NA,NA,NA,NA,NA,false
ufT3gHyh,3zvpamtjxqgf8kd3gsoqdmjsr77grt,3s3amizx3yiadicnn72p7qd1s9adcr,ufT3gHyh,2020-0188,2020-11-21,10:55:07,11:16:07,NA,incomplete,233,filling,0,left,Blue_Star_Stripes_1.jpg,Purple_Plus_Stripes_3.jpg,Green_Circle_Chess_1.jpg,left,712.5800000212621,true,high,NA,NA,NA,NA,NA,NA,NA,false
ufT3gHyh,3zvpamtjxqgf8kd3gsoqdmjsr77grt,3s3amizx3yiadicnn72p7qd1s9adcr,ufT3gHyh,2020-0188,2020-11-21,10:55:07,11:16:07,NA,incomplete,234,filling,1,left,Red_Circle_Stripes_3.jpg,Purple_Triangle_Stripes_4.jpg,Blue_Star_Dots_3.jpg,left,624.10000001546,true,high,NA,NA,NA,NA,NA,NA,NA,false
ufT3gHyh,3zvpamtjxqgf8kd3gsoqdmjsr77grt,3s3amizx3yiadicnn72p7qd1s9adcr,ufT3gHyh,2020-0188,2020-11-21,10:55:07,11:16:07,NA,incomplete,235,filling,1,left,Green_Plus_Stripes_2.jpg,Blue_Triangle_Stripes_1.jpg,Red_Star_Chess_2.jpg,left,597.3550000053365,true,high,NA,NA,NA,NA,NA,NA,NA,false
ufT3gHyh,3zvpamtjxqgf8kd3gsoqdmjsr77grt,3s3amizx3yiadicnn72p7qd1s9adcr,ufT3gHyh,2020-0188,2020-11-21,10:55:07,11:16:07,NA,incomplete,236,filling,0,left,Red_Triangle_Chess_3.jpg,Blue_Plus_Chess_1.jpg,Green_Circle_Grid_3.jpg,left,775.6449999869801,true,high,NA,NA,NA,NA,NA,NA,NA,false
ufT3gHyh,3zvpamtjxqgf8kd3gsoqdmjsr77grt,3s3amizx3yiadicnn72p7qd1s9adcr,ufT3gHyh,2020-0188,2020-11-21,10:55:07,11:16:07,NA,incomplete,237,filling,1,left,Red_Plus_Grid_4.jpg,Green_Triangle_Grid_2.jpg,Blue_Star_Dots_4.jpg,left,737.6799999910872,true,high,NA,NA,NA,NA,NA,NA,NA,false
ufT3gHyh,3zvpamtjxqgf8kd3gsoqdmjsr77grt,3s3amizx3yiadicnn72p7qd1s9adcr,ufT3gHyh,2020-0188,2020-11-21,10:55:07,11:16:07,NA,incomplete,238,filling,0,right,Red_Triangle_Grid_2.jpg,Purple_Plus_Stripes_2.jpg,Green_Circle_Grid_3.jpg,right,962.2499999823049,true,high,NA,NA,NA,NA,NA,NA,NA,false
ufT3gHyh,3zvpamtjxqgf8kd3gsoqdmjsr77grt,3s3amizx3yiadicnn72p7qd1s9adcr,ufT3gHyh,2020-0188,2020-11-21,10:55:07,11:16:07,NA,incomplete,239,filling,1,right,Red_Star_Grid_4.jpg,Blue_Plus_Stripes_4.jpg,Purple_Circle_Grid_3.jpg,right,837.7899999904912,true,high,NA,NA,NA,NA,NA,NA,NA,false
ufT3gHyh,3zvpamtjxqgf8kd3gsoqdmjsr77grt,3s3amizx3yiadicnn72p7qd1s9adcr,ufT3gHyh,2020-0188,2020-11-21,10:55:07,11:16:07,1241623.1449999905,1260217.410000012,NA,NA,NA,NA,NA,NA,NA,NA,NA,NA,NA,22,Asian,Female,korean,no,yes,no,undefined
