workerId,hitId,assignmentId,subject,studyid,exp_date,exp_start,exp_end,time_start,time_end,trial,type,reward_validity,answer,image_top,image_left,image_right,response,response_time,response_acc,volatility,practice
RDO2nQ4Q,3r6rzgk0yip7nifkjif6ljfzh9ayv2,3s96kq6i9qhrzzey9txfw0d5gz4dtc,RDO2nQ4Q,2020-0188,2020-11-22,00:03:22,00:18:29,NA,incomplete,0,number,1,left,Red_Circle_Dots_1.jpg,Blue_Plus_Grid_1.jpg,Red_Star_Stripes_3.jpg,left,1329,true,NA,true
RDO2nQ4Q,3r6rzgk0yip7nifkjif6ljfzh9ayv2,3s96kq6i9qhrzzey9txfw0d5gz4dtc,RDO2nQ4Q,2020-0188,2020-11-22,00:03:22,00:18:29,NA,incomplete,1,number,0,right,Blue_Circle_Grid_4.jpg,Blue_Star_Chess_1.jpg,Purple_Plus_Stripes_4.jpg,left,789,false,NA,true
RDO2nQ4Q,3r6rzgk0yip7nifkjif6ljfzh9ayv2,3s96kq6i9qhrzzey9txfw0d5gz4dtc,RDO2nQ4Q,2020-0188,2020-11-22,00:03:22,00:18:29,NA,incomplete,2,number,1,left,Red_Star_Dots_4.jpg,Green_Circle_Chess_4.jpg,Red_Triangle_Grid_2.jpg,left,900,true,NA,true
RDO2nQ4Q,3r6rzgk0yip7nifkjif6ljfzh9ayv2,3s96kq6i9qhrzzey9txfw0d5gz4dtc,RDO2nQ4Q,2020-0188,2020-11-22,00:03:22,00:18:29,NA,incomplete,3,number,1,right,Red_Circle_Dots_2.jpg,Red_Triangle_Chess_1.jpg,Purple_Plus_Grid_2.jpg,right,753,true,NA,true
RDO2nQ4Q,3r6rzgk0yip7nifkjif6ljfzh9ayv2,3s96kq6i9qhrzzey9txfw0d5gz4dtc,RDO2nQ4Q,2020-0188,2020-11-22,00:03:22,00:18:29,NA,incomplete,4,number,1,right,Green_Triangle_Stripes_4.jpg,Green_Plus_Chess_2.jpg,Blue_Circle_Dots_4.jpg,right,733,true,NA,true
RDO2nQ4Q,3r6rzgk0yip7nifkjif6ljfzh9ayv2,3s96kq6i9qhrzzey9txfw0d5gz4dtc,RDO2nQ4Q,2020-0188,2020-11-22,00:03:22,00:18:29,NA,incomplete,5,number,1,right,Red_Star_Stripes_2.jpg,Red_Plus_Chess_3.jpg,Green_Triangle_Grid_2.jpg,right,762,true,NA,true
RDO2nQ4Q,3r6rzgk0yip7nifkjif6ljfzh9ayv2,3s96kq6i9qhrzzey9txfw0d5gz4dtc,RDO2nQ4Q,2020-0188,2020-11-22,00:03:22,00:18:29,NA,incomplete,6,number,1,right,Purple_Triangle_Grid_3.jpg,Purple_Circle_Dots_4.jpg,Red_Plus_Chess_3.jpg,right,894,true,NA,true
RDO2nQ4Q,3r6rzgk0yip7nifkjif6ljfzh9ayv2,3s96kq6i9qhrzzey9txfw0d5gz4dtc,RDO2nQ4Q,2020-0188,2020-11-22,00:03:22,00:18:29,NA,incomplete,7,number,1,right,Green_Circle_Stripes_3.jpg,Green_Triangle_Dots_2.jpg,Purple_Star_Chess_3.jpg,right,773,true,NA,true
RDO2nQ4Q,3r6rzgk0yip7nifkjif6ljfzh9ayv2,3s96kq6i9qhrzzey9txfw0d5gz4dtc,RDO2nQ4Q,2020-0188,2020-11-22,00:03:22,00:18:29,NA,incomplete,8,number,1,left,Blue_Triangle_Dots_4.jpg,Red_Plus_Grid_4.jpg,Blue_Circle_Chess_2.jpg,left,597,true,NA,true
RDO2nQ4Q,3r6rzgk0yip7nifkjif6ljfzh9ayv2,3s96kq6i9qhrzzey9txfw0d5gz4dtc,RDO2nQ4Q,2020-0188,2020-11-22,00:03:22,00:18:29,NA,incomplete,9,number,0,right,Red_Plus_Stripes_3.jpg,Red_Triangle_Dots_2.jpg,Green_Star_Grid_3.jpg,right,681,true,NA,true
RDO2nQ4Q,3r6rzgk0yip7nifkjif6ljfzh9ayv2,3s96kq6i9qhrzzey9txfw0d5gz4dtc,RDO2nQ4Q,2020-0188,2020-11-22,00:03:22,00:18:29,NA,incomplete,10,number,1,right,Blue_Triangle_Chess_1.jpg,Blue_Star_Stripes_3.jpg,Purple_Plus_Dots_1.jpg,right,985,true,NA,true
RDO2nQ4Q,3r6rzgk0yip7nifkjif6ljfzh9ayv2,3s96kq6i9qhrzzey9txfw0d5gz4dtc,RDO2nQ4Q,2020-0188,2020-11-22,00:03:22,00:18:29,NA,incomplete,11,number,1,left,Green_Star_Dots_1.jpg,Blue_Plus_Grid_1.jpg,Green_Circle_Chess_2.jpg,left,605,true,NA,true
RDO2nQ4Q,3r6rzgk0yip7nifkjif6ljfzh9ayv2,3s96kq6i9qhrzzey9txfw0d5gz4dtc,RDO2nQ4Q,2020-0188,2020-11-22,00:03:22,00:18:29,NA,incomplete,12,number,1,right,Green_Plus_Chess_1.jpg,Green_Star_Stripes_4.jpg,Blue_Circle_Dots_1.jpg,right,656,true,NA,true
RDO2nQ4Q,3r6rzgk0yip7nifkjif6ljfzh9ayv2,3s96kq6i9qhrzzey9txfw0d5gz4dtc,RDO2nQ4Q,2020-0188,2020-11-22,00:03:22,00:18:29,NA,incomplete,13,number,1,left,Red_Circle_Chess_2.jpg,Blue_Triangle_Grid_2.jpg,Red_Star_Dots_3.jpg,left,974,true,NA,true
RDO2nQ4Q,3r6rzgk0yip7nifkjif6ljfzh9ayv2,3s96kq6i9qhrzzey9txfw0d5gz4dtc,RDO2nQ4Q,2020-0188,2020-11-22,00:03:22,00:18:29,NA,incomplete,14,number,1,left,Blue_Star_Dots_1.jpg,Red_Circle_Stripes_1.jpg,Blue_Plus_Chess_3.jpg,left,645,true,NA,true
RDO2nQ4Q,3r6rzgk0yip7nifkjif6ljfzh9ayv2,3s96kq6i9qhrzzey9txfw0d5gz4dtc,RDO2nQ4Q,2020-0188,2020-11-22,00:03:22,00:18:29,NA,incomplete,15,number,0,right,Blue_Star_Dots_1.jpg,Blue_Plus_Chess_2.jpg,Red_Circle_Stripes_1.jpg,right,594,true,NA,true
RDO2nQ4Q,3r6rzgk0yip7nifkjif6ljfzh9ayv2,3s96kq6i9qhrzzey9txfw0d5gz4dtc,RDO2nQ4Q,2020-0188,2020-11-22,00:03:22,00:18:29,NA,incomplete,16,number,0,right,Blue_Plus_Dots_4.jpg,Blue_Circle_Stripes_2.jpg,Purple_Star_Grid_4.jpg,right,752,true,NA,true
RDO2nQ4Q,3r6rzgk0yip7nifkjif6ljfzh9ayv2,3s96kq6i9qhrzzey9txfw0d5gz4dtc,RDO2nQ4Q,2020-0188,2020-11-22,00:03:22,00:18:29,NA,incomplete,17,number,1,left,Green_Circle_Chess_4.jpg,Purple_Star_Dots_4.jpg,Green_Plus_Grid_2.jpg,left,798,true,NA,true
RDO2nQ4Q,3r6rzgk0yip7nifkjif6ljfzh9ayv2,3s96kq6i9qhrzzey9txfw0d5gz4dtc,RDO2nQ4Q,2020-0188,2020-11-22,00:03:22,00:18:29,NA,incomplete,18,number,1,left,Green_Star_Stripes_4.jpg,Blue_Triangle_Grid_4.jpg,Green_Plus_Chess_3.jpg,left,773,true,NA,true
RDO2nQ4Q,3r6rzgk0yip7nifkjif6ljfzh9ayv2,3s96kq6i9qhrzzey9txfw0d5gz4dtc,RDO2nQ4Q,2020-0188,2020-11-22,00:03:22,00:18:29,NA,incomplete,19,number,1,right,Green_Triangle_Dots_2.jpg,Green_Plus_Stripes_4.jpg,Purple_Star_Chess_2.jpg,right,713,true,NA,true
RDO2nQ4Q,3r6rzgk0yip7nifkjif6ljfzh9ayv2,3s96kq6i9qhrzzey9txfw0d5gz4dtc,RDO2nQ4Q,2020-0188,2020-11-22,00:03:22,00:18:29,NA,incomplete,20,color,1,right,Purple_Star_Dots_1.jpg,Green_Circle_Grid_1.jpg,Purple_Plus_Stripes_3.jpg,right,1059,true,NA,true
RDO2nQ4Q,3r6rzgk0yip7nifkjif6ljfzh9ayv2,3s96kq6i9qhrzzey9txfw0d5gz4dtc,RDO2nQ4Q,2020-0188,2020-11-22,00:03:22,00:18:29,NA,incomplete,21,color,0,right,Purple_Triangle_Dots_1.jpg,Blue_Star_Grid_1.jpg,Purple_Circle_Stripes_3.jpg,right,686,true,NA,true
RDO2nQ4Q,3r6rzgk0yip7nifkjif6ljfzh9ayv2,3s96kq6i9qhrzzey9txfw0d5gz4dtc,RDO2nQ4Q,2020-0188,2020-11-22,00:03:22,00:18:29,NA,incomplete,22,color,1,left,Green_Star_Grid_1.jpg,Green_Circle_Stripes_4.jpg,Red_Triangle_Dots_1.jpg,left,511,true,NA,true
RDO2nQ4Q,3r6rzgk0yip7nifkjif6ljfzh9ayv2,3s96kq6i9qhrzzey9txfw0d5gz4dtc,RDO2nQ4Q,2020-0188,2020-11-22,00:03:22,00:18:29,NA,incomplete,23,color,1,right,Green_Circle_Chess_4.jpg,Purple_Plus_Stripes_4.jpg,Green_Triangle_Dots_2.jpg,right,751,true,NA,true
RDO2nQ4Q,3r6rzgk0yip7nifkjif6ljfzh9ayv2,3s96kq6i9qhrzzey9txfw0d5gz4dtc,RDO2nQ4Q,2020-0188,2020-11-22,00:03:22,00:18:29,NA,incomplete,24,color,0,right,Purple_Star_Dots_2.jpg,Green_Circle_Grid_2.jpg,Purple_Triangle_Stripes_1.jpg,right,821,true,NA,true
RDO2nQ4Q,3r6rzgk0yip7nifkjif6ljfzh9ayv2,3s96kq6i9qhrzzey9txfw0d5gz4dtc,RDO2nQ4Q,2020-0188,2020-11-22,00:03:22,00:18:29,NA,incomplete,25,color,1,right,Purple_Star_Grid_2.jpg,Green_Circle_Stripes_2.jpg,Purple_Plus_Chess_4.jpg,right,789,true,NA,true
RDO2nQ4Q,3r6rzgk0yip7nifkjif6ljfzh9ayv2,3s96kq6i9qhrzzey9txfw0d5gz4dtc,RDO2nQ4Q,2020-0188,2020-11-22,00:03:22,00:18:29,NA,incomplete,26,color,1,left,Green_Star_Chess_3.jpg,Green_Plus_Grid_4.jpg,Purple_Triangle_Stripes_3.jpg,left,625,true,NA,true
RDO2nQ4Q,3r6rzgk0yip7nifkjif6ljfzh9ayv2,3s96kq6i9qhrzzey9txfw0d5gz4dtc,RDO2nQ4Q,2020-0188,2020-11-22,00:03:22,00:18:29,NA,incomplete,27,color,1,right,Green_Plus_Chess_2.jpg,Red_Circle_Grid_2.jpg,Green_Star_Stripes_4.jpg,right,551,true,NA,true
RDO2nQ4Q,3r6rzgk0yip7nifkjif6ljfzh9ayv2,3s96kq6i9qhrzzey9txfw0d5gz4dtc,RDO2nQ4Q,2020-0188,2020-11-22,00:03:22,00:18:29,NA,incomplete,28,color,1,right,Red_Star_Chess_2.jpg,Purple_Circle_Stripes_2.jpg,Red_Plus_Grid_1.jpg,right,725,true,NA,true
RDO2nQ4Q,3r6rzgk0yip7nifkjif6ljfzh9ayv2,3s96kq6i9qhrzzey9txfw0d5gz4dtc,RDO2nQ4Q,2020-0188,2020-11-22,00:03:22,00:18:29,NA,incomplete,29,color,0,left,Purple_Plus_Grid_4.jpg,Purple_Star_Dots_1.jpg,Red_Circle_Stripes_4.jpg,left,537,true,NA,true
RDO2nQ4Q,3r6rzgk0yip7nifkjif6ljfzh9ayv2,3s96kq6i9qhrzzey9txfw0d5gz4dtc,RDO2nQ4Q,2020-0188,2020-11-22,00:03:22,00:18:29,NA,incomplete,30,color,1,left,Blue_Triangle_Grid_3.jpg,Blue_Plus_Chess_4.jpg,Green_Star_Stripes_3.jpg,left,568,true,NA,true
RDO2nQ4Q,3r6rzgk0yip7nifkjif6ljfzh9ayv2,3s96kq6i9qhrzzey9txfw0d5gz4dtc,RDO2nQ4Q,2020-0188,2020-11-22,00:03:22,00:18:29,NA,incomplete,31,color,1,left,Blue_Plus_Stripes_2.jpg,Blue_Triangle_Chess_4.jpg,Red_Circle_Grid_2.jpg,left,695,true,NA,true
RDO2nQ4Q,3r6rzgk0yip7nifkjif6ljfzh9ayv2,3s96kq6i9qhrzzey9txfw0d5gz4dtc,RDO2nQ4Q,2020-0188,2020-11-22,00:03:22,00:18:29,NA,incomplete,32,color,1,right,Green_Triangle_Dots_1.jpg,Purple_Plus_Grid_1.jpg,Green_Star_Chess_4.jpg,right,604,true,NA,true
RDO2nQ4Q,3r6rzgk0yip7nifkjif6ljfzh9ayv2,3s96kq6i9qhrzzey9txfw0d5gz4dtc,RDO2nQ4Q,2020-0188,2020-11-22,00:03:22,00:18:29,NA,incomplete,33,color,1,right,Purple_Circle_Grid_4.jpg,Green_Star_Dots_4.jpg,Purple_Triangle_Chess_1.jpg,right,574,true,NA,true
RDO2nQ4Q,3r6rzgk0yip7nifkjif6ljfzh9ayv2,3s96kq6i9qhrzzey9txfw0d5gz4dtc,RDO2nQ4Q,2020-0188,2020-11-22,00:03:22,00:18:29,NA,incomplete,34,color,1,right,Blue_Triangle_Chess_3.jpg,Green_Circle_Dots_3.jpg,Blue_Plus_Stripes_2.jpg,right,601,true,NA,true
RDO2nQ4Q,3r6rzgk0yip7nifkjif6ljfzh9ayv2,3s96kq6i9qhrzzey9txfw0d5gz4dtc,RDO2nQ4Q,2020-0188,2020-11-22,00:03:22,00:18:29,NA,incomplete,35,color,0,left,Green_Circle_Dots_2.jpg,Green_Star_Grid_3.jpg,Red_Triangle_Chess_2.jpg,left,436,true,NA,true
RDO2nQ4Q,3r6rzgk0yip7nifkjif6ljfzh9ayv2,3s96kq6i9qhrzzey9txfw0d5gz4dtc,RDO2nQ4Q,2020-0188,2020-11-22,00:03:22,00:18:29,NA,incomplete,36,color,1,left,Blue_Circle_Dots_3.jpg,Blue_Plus_Chess_4.jpg,Red_Star_Grid_3.jpg,left,537,true,NA,true
RDO2nQ4Q,3r6rzgk0yip7nifkjif6ljfzh9ayv2,3s96kq6i9qhrzzey9txfw0d5gz4dtc,RDO2nQ4Q,2020-0188,2020-11-22,00:03:22,00:18:29,NA,incomplete,37,color,1,left,Green_Plus_Grid_4.jpg,Green_Triangle_Dots_3.jpg,Purple_Circle_Stripes_4.jpg,left,578,true,NA,true
RDO2nQ4Q,3r6rzgk0yip7nifkjif6ljfzh9ayv2,3s96kq6i9qhrzzey9txfw0d5gz4dtc,RDO2nQ4Q,2020-0188,2020-11-22,00:03:22,00:18:29,NA,incomplete,38,color,1,left,Purple_Triangle_Grid_4.jpg,Purple_Plus_Chess_2.jpg,Green_Star_Dots_4.jpg,left,568,true,NA,true
RDO2nQ4Q,3r6rzgk0yip7nifkjif6ljfzh9ayv2,3s96kq6i9qhrzzey9txfw0d5gz4dtc,RDO2nQ4Q,2020-0188,2020-11-22,00:03:22,00:18:29,NA,incomplete,39,color,1,left,Purple_Star_Dots_3.jpg,Purple_Circle_Grid_2.jpg,Red_Plus_Stripes_3.jpg,left,457,true,NA,true
RDO2nQ4Q,3r6rzgk0yip7nifkjif6ljfzh9ayv2,3s96kq6i9qhrzzey9txfw0d5gz4dtc,RDO2nQ4Q,2020-0188,2020-11-22,00:03:22,00:18:29,NA,incomplete,0,number,0,right,Red_Circle_Grid_1.jpg,Red_Plus_Stripes_4.jpg,Blue_Triangle_Chess_1.jpg,right,1033,true,high,false
RDO2nQ4Q,3r6rzgk0yip7nifkjif6ljfzh9ayv2,3s96kq6i9qhrzzey9txfw0d5gz4dtc,RDO2nQ4Q,2020-0188,2020-11-22,00:03:22,00:18:29,NA,incomplete,1,number,1,right,Green_Star_Stripes_3.jpg,Green_Circle_Dots_4.jpg,Blue_Triangle_Chess_3.jpg,left,604,false,high,false
RDO2nQ4Q,3r6rzgk0yip7nifkjif6ljfzh9ayv2,3s96kq6i9qhrzzey9txfw0d5gz4dtc,RDO2nQ4Q,2020-0188,2020-11-22,00:03:22,00:18:29,NA,incomplete,2,number,1,right,Green_Triangle_Dots_1.jpg,Green_Circle_Chess_4.jpg,Blue_Star_Stripes_1.jpg,right,706,true,high,false
RDO2nQ4Q,3r6rzgk0yip7nifkjif6ljfzh9ayv2,3s96kq6i9qhrzzey9txfw0d5gz4dtc,RDO2nQ4Q,2020-0188,2020-11-22,00:03:22,00:18:29,NA,incomplete,3,number,1,left,Green_Star_Grid_1.jpg,Red_Circle_Stripes_1.jpg,Green_Triangle_Chess_2.jpg,right,719,false,high,false
RDO2nQ4Q,3r6rzgk0yip7nifkjif6ljfzh9ayv2,3s96kq6i9qhrzzey9txfw0d5gz4dtc,RDO2nQ4Q,2020-0188,2020-11-22,00:03:22,00:18:29,NA,incomplete,4,number,1,left,Red_Star_Grid_3.jpg,Purple_Triangle_Stripes_3.jpg,Red_Circle_Dots_4.jpg,left,636,true,high,false
RDO2nQ4Q,3r6rzgk0yip7nifkjif6ljfzh9ayv2,3s96kq6i9qhrzzey9txfw0d5gz4dtc,RDO2nQ4Q,2020-0188,2020-11-22,00:03:22,00:18:29,NA,incomplete,5,number,1,right,Blue_Star_Chess_1.jpg,Blue_Plus_Stripes_3.jpg,Red_Triangle_Grid_1.jpg,right,734,true,high,false
RDO2nQ4Q,3r6rzgk0yip7nifkjif6ljfzh9ayv2,3s96kq6i9qhrzzey9txfw0d5gz4dtc,RDO2nQ4Q,2020-0188,2020-11-22,00:03:22,00:18:29,NA,incomplete,6,number,1,left,Green_Star_Dots_3.jpg,Blue_Triangle_Stripes_3.jpg,Green_Plus_Chess_1.jpg,left,575,true,high,false
RDO2nQ4Q,3r6rzgk0yip7nifkjif6ljfzh9ayv2,3s96kq6i9qhrzzey9txfw0d5gz4dtc,RDO2nQ4Q,2020-0188,2020-11-22,00:03:22,00:18:29,NA,incomplete,7,number,1,right,Purple_Plus_Dots_1.jpg,Purple_Triangle_Stripes_3.jpg,Red_Star_Grid_1.jpg,right,763,true,high,false
RDO2nQ4Q,3r6rzgk0yip7nifkjif6ljfzh9ayv2,3s96kq6i9qhrzzey9txfw0d5gz4dtc,RDO2nQ4Q,2020-0188,2020-11-22,00:03:22,00:18:29,NA,incomplete,8,number,1,right,Red_Circle_Stripes_1.jpg,Red_Triangle_Grid_2.jpg,Purple_Plus_Dots_1.jpg,left,849,false,high,false
RDO2nQ4Q,3r6rzgk0yip7nifkjif6ljfzh9ayv2,3s96kq6i9qhrzzey9txfw0d5gz4dtc,RDO2nQ4Q,2020-0188,2020-11-22,00:03:22,00:18:29,NA,incomplete,9,number,1,right,Green_Plus_Grid_4.jpg,Green_Triangle_Stripes_2.jpg,Red_Star_Dots_4.jpg,right,699,true,high,false
RDO2nQ4Q,3r6rzgk0yip7nifkjif6ljfzh9ayv2,3s96kq6i9qhrzzey9txfw0d5gz4dtc,RDO2nQ4Q,2020-0188,2020-11-22,00:03:22,00:18:29,NA,incomplete,10,color,1,left,Green_Star_Chess_2.jpg,Green_Triangle_Grid_1.jpg,Blue_Plus_Dots_2.jpg,right,683,false,high,false
RDO2nQ4Q,3r6rzgk0yip7nifkjif6ljfzh9ayv2,3s96kq6i9qhrzzey9txfw0d5gz4dtc,RDO2nQ4Q,2020-0188,2020-11-22,00:03:22,00:18:29,NA,incomplete,11,color,1,right,Red_Plus_Stripes_3.jpg,Green_Star_Grid_3.jpg,Red_Circle_Dots_2.jpg,left,590,false,high,false
RDO2nQ4Q,3r6rzgk0yip7nifkjif6ljfzh9ayv2,3s96kq6i9qhrzzey9txfw0d5gz4dtc,RDO2nQ4Q,2020-0188,2020-11-22,00:03:22,00:18:29,NA,incomplete,12,color,1,left,Green_Circle_Stripes_1.jpg,Green_Plus_Chess_2.jpg,Purple_Star_Grid_1.jpg,left,550,true,high,false
RDO2nQ4Q,3r6rzgk0yip7nifkjif6ljfzh9ayv2,3s96kq6i9qhrzzey9txfw0d5gz4dtc,RDO2nQ4Q,2020-0188,2020-11-22,00:03:22,00:18:29,NA,incomplete,13,color,1,right,Purple_Plus_Chess_4.jpg,Red_Circle_Stripes_4.jpg,Purple_Triangle_Dots_1.jpg,right,536,true,high,false
RDO2nQ4Q,3r6rzgk0yip7nifkjif6ljfzh9ayv2,3s96kq6i9qhrzzey9txfw0d5gz4dtc,RDO2nQ4Q,2020-0188,2020-11-22,00:03:22,00:18:29,NA,incomplete,14,color,0,left,Blue_Circle_Dots_3.jpg,Blue_Plus_Chess_1.jpg,Red_Star_Stripes_3.jpg,left,601,true,high,false
RDO2nQ4Q,3r6rzgk0yip7nifkjif6ljfzh9ayv2,3s96kq6i9qhrzzey9txfw0d5gz4dtc,RDO2nQ4Q,2020-0188,2020-11-22,00:03:22,00:18:29,NA,incomplete,15,color,1,right,Green_Plus_Chess_1.jpg,Red_Star_Stripes_1.jpg,Green_Circle_Grid_3.jpg,right,889,true,high,false
RDO2nQ4Q,3r6rzgk0yip7nifkjif6ljfzh9ayv2,3s96kq6i9qhrzzey9txfw0d5gz4dtc,RDO2nQ4Q,2020-0188,2020-11-22,00:03:22,00:18:29,NA,incomplete,16,color,1,right,Green_Plus_Chess_4.jpg,Blue_Triangle_Dots_4.jpg,Green_Star_Stripes_1.jpg,right,751,true,high,false
RDO2nQ4Q,3r6rzgk0yip7nifkjif6ljfzh9ayv2,3s96kq6i9qhrzzey9txfw0d5gz4dtc,RDO2nQ4Q,2020-0188,2020-11-22,00:03:22,00:18:29,NA,incomplete,17,color,1,left,Red_Star_Stripes_4.jpg,Red_Triangle_Chess_1.jpg,Purple_Plus_Grid_4.jpg,left,515,true,high,false
RDO2nQ4Q,3r6rzgk0yip7nifkjif6ljfzh9ayv2,3s96kq6i9qhrzzey9txfw0d5gz4dtc,RDO2nQ4Q,2020-0188,2020-11-22,00:03:22,00:18:29,NA,incomplete,18,color,0,left,Purple_Star_Grid_3.jpg,Purple_Triangle_Dots_1.jpg,Green_Circle_Stripes_3.jpg,left,449,true,high,false
RDO2nQ4Q,3r6rzgk0yip7nifkjif6ljfzh9ayv2,3s96kq6i9qhrzzey9txfw0d5gz4dtc,RDO2nQ4Q,2020-0188,2020-11-22,00:03:22,00:18:29,NA,incomplete,19,color,1,right,Blue_Star_Dots_3.jpg,Purple_Circle_Grid_3.jpg,Blue_Triangle_Stripes_2.jpg,right,494,true,high,false
RDO2nQ4Q,3r6rzgk0yip7nifkjif6ljfzh9ayv2,3s96kq6i9qhrzzey9txfw0d5gz4dtc,RDO2nQ4Q,2020-0188,2020-11-22,00:03:22,00:18:29,NA,incomplete,20,number,1,right,Blue_Circle_Dots_4.jpg,Blue_Triangle_Chess_1.jpg,Red_Star_Grid_4.jpg,left,532,false,high,false
RDO2nQ4Q,3r6rzgk0yip7nifkjif6ljfzh9ayv2,3s96kq6i9qhrzzey9txfw0d5gz4dtc,RDO2nQ4Q,2020-0188,2020-11-22,00:03:22,00:18:29,NA,incomplete,21,number,0,left,Blue_Circle_Dots_2.jpg,Green_Plus_Grid_2.jpg,Blue_Triangle_Stripes_4.jpg,right,535,false,high,false
RDO2nQ4Q,3r6rzgk0yip7nifkjif6ljfzh9ayv2,3s96kq6i9qhrzzey9txfw0d5gz4dtc,RDO2nQ4Q,2020-0188,2020-11-22,00:03:22,00:18:29,NA,incomplete,22,number,1,left,Blue_Triangle_Stripes_2.jpg,Purple_Circle_Dots_2.jpg,Blue_Star_Chess_4.jpg,right,501,false,high,false
RDO2nQ4Q,3r6rzgk0yip7nifkjif6ljfzh9ayv2,3s96kq6i9qhrzzey9txfw0d5gz4dtc,RDO2nQ4Q,2020-0188,2020-11-22,00:03:22,00:18:29,NA,incomplete,23,number,1,right,Red_Circle_Stripes_3.jpg,Red_Star_Grid_1.jpg,Green_Plus_Dots_3.jpg,left,489,false,high,false
RDO2nQ4Q,3r6rzgk0yip7nifkjif6ljfzh9ayv2,3s96kq6i9qhrzzey9txfw0d5gz4dtc,RDO2nQ4Q,2020-0188,2020-11-22,00:03:22,00:18:29,NA,incomplete,24,number,1,right,Red_Star_Stripes_2.jpg,Red_Triangle_Dots_3.jpg,Green_Circle_Grid_2.jpg,right,610,true,high,false
RDO2nQ4Q,3r6rzgk0yip7nifkjif6ljfzh9ayv2,3s96kq6i9qhrzzey9txfw0d5gz4dtc,RDO2nQ4Q,2020-0188,2020-11-22,00:03:22,00:18:29,NA,incomplete,25,number,0,right,Red_Circle_Chess_1.jpg,Red_Star_Stripes_4.jpg,Purple_Triangle_Dots_1.jpg,right,690,true,high,false
RDO2nQ4Q,3r6rzgk0yip7nifkjif6ljfzh9ayv2,3s96kq6i9qhrzzey9txfw0d5gz4dtc,RDO2nQ4Q,2020-0188,2020-11-22,00:03:22,00:18:29,NA,incomplete,26,number,1,right,Blue_Plus_Grid_2.jpg,Blue_Star_Dots_4.jpg,Purple_Circle_Chess_2.jpg,right,642,true,high,false
RDO2nQ4Q,3r6rzgk0yip7nifkjif6ljfzh9ayv2,3s96kq6i9qhrzzey9txfw0d5gz4dtc,RDO2nQ4Q,2020-0188,2020-11-22,00:03:22,00:18:29,NA,incomplete,27,number,0,left,Blue_Circle_Stripes_3.jpg,Purple_Plus_Chess_3.jpg,Blue_Star_Grid_1.jpg,left,565,true,high,false
RDO2nQ4Q,3r6rzgk0yip7nifkjif6ljfzh9ayv2,3s96kq6i9qhrzzey9txfw0d5gz4dtc,RDO2nQ4Q,2020-0188,2020-11-22,00:03:22,00:18:29,NA,incomplete,28,number,1,right,Red_Circle_Grid_4.jpg,Red_Plus_Stripes_1.jpg,Green_Star_Chess_4.jpg,right,627,true,high,false
RDO2nQ4Q,3r6rzgk0yip7nifkjif6ljfzh9ayv2,3s96kq6i9qhrzzey9txfw0d5gz4dtc,RDO2nQ4Q,2020-0188,2020-11-22,00:03:22,00:18:29,NA,incomplete,29,number,1,right,Red_Star_Stripes_4.jpg,Red_Plus_Grid_2.jpg,Purple_Circle_Dots_4.jpg,right,688,true,high,false
RDO2nQ4Q,3r6rzgk0yip7nifkjif6ljfzh9ayv2,3s96kq6i9qhrzzey9txfw0d5gz4dtc,RDO2nQ4Q,2020-0188,2020-11-22,00:03:22,00:18:29,NA,incomplete,30,color,0,right,Blue_Triangle_Dots_2.jpg,Purple_Circle_Stripes_2.jpg,Blue_Star_Grid_4.jpg,left,598,false,high,false
RDO2nQ4Q,3r6rzgk0yip7nifkjif6ljfzh9ayv2,3s96kq6i9qhrzzey9txfw0d5gz4dtc,RDO2nQ4Q,2020-0188,2020-11-22,00:03:22,00:18:29,NA,incomplete,31,color,0,right,Purple_Triangle_Grid_3.jpg,Blue_Star_Stripes_3.jpg,Purple_Plus_Chess_2.jpg,left,723,false,high,false
RDO2nQ4Q,3r6rzgk0yip7nifkjif6ljfzh9ayv2,3s96kq6i9qhrzzey9txfw0d5gz4dtc,RDO2nQ4Q,2020-0188,2020-11-22,00:03:22,00:18:29,NA,incomplete,32,color,0,right,Red_Plus_Grid_2.jpg,Purple_Star_Chess_2.jpg,Red_Triangle_Dots_3.jpg,left,550,false,high,false
RDO2nQ4Q,3r6rzgk0yip7nifkjif6ljfzh9ayv2,3s96kq6i9qhrzzey9txfw0d5gz4dtc,RDO2nQ4Q,2020-0188,2020-11-22,00:03:22,00:18:29,NA,incomplete,33,color,1,left,Green_Plus_Stripes_2.jpg,Green_Star_Dots_3.jpg,Red_Circle_Grid_2.jpg,right,578,false,high,false
RDO2nQ4Q,3r6rzgk0yip7nifkjif6ljfzh9ayv2,3s96kq6i9qhrzzey9txfw0d5gz4dtc,RDO2nQ4Q,2020-0188,2020-11-22,00:03:22,00:18:29,NA,incomplete,34,color,1,left,Green_Star_Grid_4.jpg,Green_Circle_Stripes_2.jpg,Purple_Plus_Dots_4.jpg,left,630,true,high,false
RDO2nQ4Q,3r6rzgk0yip7nifkjif6ljfzh9ayv2,3s96kq6i9qhrzzey9txfw0d5gz4dtc,RDO2nQ4Q,2020-0188,2020-11-22,00:03:22,00:18:29,NA,incomplete,35,color,1,right,Purple_Star_Dots_4.jpg,Blue_Plus_Stripes_4.jpg,Purple_Triangle_Chess_2.jpg,right,626,true,high,false
RDO2nQ4Q,3r6rzgk0yip7nifkjif6ljfzh9ayv2,3s96kq6i9qhrzzey9txfw0d5gz4dtc,RDO2nQ4Q,2020-0188,2020-11-22,00:03:22,00:18:29,NA,incomplete,36,color,0,right,Blue_Triangle_Stripes_1.jpg,Purple_Circle_Grid_1.jpg,Blue_Plus_Chess_3.jpg,right,1388,true,high,false
RDO2nQ4Q,3r6rzgk0yip7nifkjif6ljfzh9ayv2,3s96kq6i9qhrzzey9txfw0d5gz4dtc,RDO2nQ4Q,2020-0188,2020-11-22,00:03:22,00:18:29,NA,incomplete,37,color,1,left,Blue_Star_Stripes_1.jpg,Blue_Circle_Chess_2.jpg,Purple_Triangle_Dots_1.jpg,left,507,true,high,false
RDO2nQ4Q,3r6rzgk0yip7nifkjif6ljfzh9ayv2,3s96kq6i9qhrzzey9txfw0d5gz4dtc,RDO2nQ4Q,2020-0188,2020-11-22,00:03:22,00:18:29,NA,incomplete,38,color,1,right,Purple_Triangle_Stripes_3.jpg,Red_Star_Dots_3.jpg,Purple_Circle_Grid_4.jpg,right,546,true,high,false
RDO2nQ4Q,3r6rzgk0yip7nifkjif6ljfzh9ayv2,3s96kq6i9qhrzzey9txfw0d5gz4dtc,RDO2nQ4Q,2020-0188,2020-11-22,00:03:22,00:18:29,NA,incomplete,39,color,1,right,Blue_Triangle_Stripes_1.jpg,Red_Plus_Chess_1.jpg,Blue_Circle_Grid_2.jpg,right,649,true,high,false
RDO2nQ4Q,3r6rzgk0yip7nifkjif6ljfzh9ayv2,3s96kq6i9qhrzzey9txfw0d5gz4dtc,RDO2nQ4Q,2020-0188,2020-11-22,00:03:22,00:18:29,NA,incomplete,40,number,1,right,Green_Plus_Stripes_4.jpg,Green_Triangle_Grid_3.jpg,Purple_Star_Dots_4.jpg,left,458,false,high,false
RDO2nQ4Q,3r6rzgk0yip7nifkjif6ljfzh9ayv2,3s96kq6i9qhrzzey9txfw0d5gz4dtc,RDO2nQ4Q,2020-0188,2020-11-22,00:03:22,00:18:29,NA,incomplete,41,number,1,left,Green_Circle_Stripes_3.jpg,Purple_Triangle_Grid_3.jpg,Green_Star_Chess_4.jpg,right,455,false,high,false
RDO2nQ4Q,3r6rzgk0yip7nifkjif6ljfzh9ayv2,3s96kq6i9qhrzzey9txfw0d5gz4dtc,RDO2nQ4Q,2020-0188,2020-11-22,00:03:22,00:18:29,NA,incomplete,42,number,1,left,Purple_Plus_Chess_1.jpg,Blue_Star_Grid_1.jpg,Purple_Triangle_Stripes_2.jpg,left,808,true,high,false
RDO2nQ4Q,3r6rzgk0yip7nifkjif6ljfzh9ayv2,3s96kq6i9qhrzzey9txfw0d5gz4dtc,RDO2nQ4Q,2020-0188,2020-11-22,00:03:22,00:18:29,NA,incomplete,43,number,1,left,Purple_Circle_Grid_4.jpg,Red_Star_Chess_4.jpg,Purple_Plus_Stripes_2.jpg,left,673,true,high,false
RDO2nQ4Q,3r6rzgk0yip7nifkjif6ljfzh9ayv2,3s96kq6i9qhrzzey9txfw0d5gz4dtc,RDO2nQ4Q,2020-0188,2020-11-22,00:03:22,00:18:29,NA,incomplete,44,number,1,right,Red_Star_Chess_1.jpg,Red_Circle_Dots_3.jpg,Purple_Plus_Grid_1.jpg,right,568,true,high,false
RDO2nQ4Q,3r6rzgk0yip7nifkjif6ljfzh9ayv2,3s96kq6i9qhrzzey9txfw0d5gz4dtc,RDO2nQ4Q,2020-0188,2020-11-22,00:03:22,00:18:29,NA,incomplete,45,number,0,right,Red_Circle_Grid_1.jpg,Red_Triangle_Dots_2.jpg,Blue_Plus_Chess_1.jpg,left,411,false,high,false
RDO2nQ4Q,3r6rzgk0yip7nifkjif6ljfzh9ayv2,3s96kq6i9qhrzzey9txfw0d5gz4dtc,RDO2nQ4Q,2020-0188,2020-11-22,00:03:22,00:18:29,NA,incomplete,46,number,1,right,Purple_Plus_Dots_2.jpg,Purple_Triangle_Stripes_4.jpg,Green_Star_Grid_2.jpg,left,873,false,high,false
RDO2nQ4Q,3r6rzgk0yip7nifkjif6ljfzh9ayv2,3s96kq6i9qhrzzey9txfw0d5gz4dtc,RDO2nQ4Q,2020-0188,2020-11-22,00:03:22,00:18:29,NA,incomplete,47,number,1,left,Green_Plus_Stripes_1.jpg,Red_Circle_Dots_1.jpg,Green_Triangle_Grid_4.jpg,left,871,true,high,false
RDO2nQ4Q,3r6rzgk0yip7nifkjif6ljfzh9ayv2,3s96kq6i9qhrzzey9txfw0d5gz4dtc,RDO2nQ4Q,2020-0188,2020-11-22,00:03:22,00:18:29,NA,incomplete,48,number,0,left,Green_Plus_Stripes_2.jpg,Blue_Triangle_Dots_2.jpg,Green_Circle_Grid_1.jpg,left,840,true,high,false
RDO2nQ4Q,3r6rzgk0yip7nifkjif6ljfzh9ayv2,3s96kq6i9qhrzzey9txfw0d5gz4dtc,RDO2nQ4Q,2020-0188,2020-11-22,00:03:22,00:18:29,NA,incomplete,49,number,1,right,Green_Plus_Grid_4.jpg,Green_Triangle_Chess_3.jpg,Purple_Circle_Dots_4.jpg,left,540,false,high,false
RDO2nQ4Q,3r6rzgk0yip7nifkjif6ljfzh9ayv2,3s96kq6i9qhrzzey9txfw0d5gz4dtc,RDO2nQ4Q,2020-0188,2020-11-22,00:03:22,00:18:29,NA,incomplete,50,color,1,left,Red_Plus_Stripes_2.jpg,Red_Circle_Chess_3.jpg,Blue_Triangle_Dots_2.jpg,right,739,false,high,false
RDO2nQ4Q,3r6rzgk0yip7nifkjif6ljfzh9ayv2,3s96kq6i9qhrzzey9txfw0d5gz4dtc,RDO2nQ4Q,2020-0188,2020-11-22,00:03:22,00:18:29,NA,incomplete,51,color,1,left,Red_Circle_Chess_1.jpg,Red_Plus_Grid_4.jpg,Blue_Star_Stripes_1.jpg,left,584,true,high,false
RDO2nQ4Q,3r6rzgk0yip7nifkjif6ljfzh9ayv2,3s96kq6i9qhrzzey9txfw0d5gz4dtc,RDO2nQ4Q,2020-0188,2020-11-22,00:03:22,00:18:29,NA,incomplete,52,color,1,left,Blue_Circle_Stripes_2.jpg,Blue_Star_Grid_4.jpg,Red_Triangle_Dots_2.jpg,left,687,true,high,false
RDO2nQ4Q,3r6rzgk0yip7nifkjif6ljfzh9ayv2,3s96kq6i9qhrzzey9txfw0d5gz4dtc,RDO2nQ4Q,2020-0188,2020-11-22,00:03:22,00:18:29,NA,incomplete,53,color,1,left,Purple_Circle_Chess_1.jpg,Purple_Plus_Dots_3.jpg,Red_Star_Stripes_1.jpg,left,566,true,high,false
RDO2nQ4Q,3r6rzgk0yip7nifkjif6ljfzh9ayv2,3s96kq6i9qhrzzey9txfw0d5gz4dtc,RDO2nQ4Q,2020-0188,2020-11-22,00:03:22,00:18:29,NA,incomplete,54,color,1,left,Red_Triangle_Chess_2.jpg,Red_Circle_Stripes_4.jpg,Purple_Plus_Dots_2.jpg,left,619,true,high,false
RDO2nQ4Q,3r6rzgk0yip7nifkjif6ljfzh9ayv2,3s96kq6i9qhrzzey9txfw0d5gz4dtc,RDO2nQ4Q,2020-0188,2020-11-22,00:03:22,00:18:29,NA,incomplete,55,color,1,right,Blue_Triangle_Chess_1.jpg,Purple_Star_Stripes_1.jpg,Blue_Plus_Dots_2.jpg,right,567,true,high,false
RDO2nQ4Q,3r6rzgk0yip7nifkjif6ljfzh9ayv2,3s96kq6i9qhrzzey9txfw0d5gz4dtc,RDO2nQ4Q,2020-0188,2020-11-22,00:03:22,00:18:29,NA,incomplete,56,color,1,right,Red_Star_Stripes_3.jpg,Green_Circle_Dots_3.jpg,Red_Triangle_Grid_4.jpg,right,571,true,high,false
RDO2nQ4Q,3r6rzgk0yip7nifkjif6ljfzh9ayv2,3s96kq6i9qhrzzey9txfw0d5gz4dtc,RDO2nQ4Q,2020-0188,2020-11-22,00:03:22,00:18:29,NA,incomplete,57,color,1,left,Green_Triangle_Chess_2.jpg,Green_Plus_Grid_4.jpg,Purple_Star_Stripes_2.jpg,left,513,true,high,false
RDO2nQ4Q,3r6rzgk0yip7nifkjif6ljfzh9ayv2,3s96kq6i9qhrzzey9txfw0d5gz4dtc,RDO2nQ4Q,2020-0188,2020-11-22,00:03:22,00:18:29,NA,incomplete,58,color,1,left,Red_Plus_Stripes_1.jpg,Red_Star_Chess_3.jpg,Blue_Circle_Grid_1.jpg,left,546,true,high,false
RDO2nQ4Q,3r6rzgk0yip7nifkjif6ljfzh9ayv2,3s96kq6i9qhrzzey9txfw0d5gz4dtc,RDO2nQ4Q,2020-0188,2020-11-22,00:03:22,00:18:29,NA,incomplete,59,color,1,left,Purple_Triangle_Chess_4.jpg,Purple_Circle_Stripes_1.jpg,Red_Star_Dots_4.jpg,right,687,false,high,false
RDO2nQ4Q,3r6rzgk0yip7nifkjif6ljfzh9ayv2,3s96kq6i9qhrzzey9txfw0d5gz4dtc,RDO2nQ4Q,2020-0188,2020-11-22,00:03:22,00:18:29,NA,incomplete,60,number,1,left,Blue_Plus_Chess_2.jpg,Red_Circle_Stripes_2.jpg,Blue_Star_Dots_3.jpg,right,558,false,high,false
RDO2nQ4Q,3r6rzgk0yip7nifkjif6ljfzh9ayv2,3s96kq6i9qhrzzey9txfw0d5gz4dtc,RDO2nQ4Q,2020-0188,2020-11-22,00:03:22,00:18:29,NA,incomplete,61,number,1,right,Red_Plus_Dots_1.jpg,Red_Star_Grid_2.jpg,Green_Circle_Stripes_1.jpg,left,797,false,high,false
RDO2nQ4Q,3r6rzgk0yip7nifkjif6ljfzh9ayv2,3s96kq6i9qhrzzey9txfw0d5gz4dtc,RDO2nQ4Q,2020-0188,2020-11-22,00:03:22,00:18:29,NA,incomplete,62,number,0,right,Purple_Plus_Dots_4.jpg,Purple_Star_Chess_1.jpg,Red_Triangle_Stripes_4.jpg,right,590,true,high,false
RDO2nQ4Q,3r6rzgk0yip7nifkjif6ljfzh9ayv2,3s96kq6i9qhrzzey9txfw0d5gz4dtc,RDO2nQ4Q,2020-0188,2020-11-22,00:03:22,00:18:29,NA,incomplete,63,number,1,left,Green_Triangle_Grid_2.jpg,Blue_Circle_Dots_2.jpg,Green_Star_Chess_3.jpg,right,493,false,high,false
RDO2nQ4Q,3r6rzgk0yip7nifkjif6ljfzh9ayv2,3s96kq6i9qhrzzey9txfw0d5gz4dtc,RDO2nQ4Q,2020-0188,2020-11-22,00:03:22,00:18:29,NA,incomplete,64,number,1,right,Purple_Triangle_Chess_1.jpg,Purple_Plus_Grid_3.jpg,Blue_Circle_Stripes_1.jpg,left,775,false,high,false
RDO2nQ4Q,3r6rzgk0yip7nifkjif6ljfzh9ayv2,3s96kq6i9qhrzzey9txfw0d5gz4dtc,RDO2nQ4Q,2020-0188,2020-11-22,00:03:22,00:18:29,NA,incomplete,65,number,1,right,Green_Plus_Stripes_3.jpg,Green_Circle_Grid_2.jpg,Red_Star_Chess_3.jpg,right,1176,true,high,false
RDO2nQ4Q,3r6rzgk0yip7nifkjif6ljfzh9ayv2,3s96kq6i9qhrzzey9txfw0d5gz4dtc,RDO2nQ4Q,2020-0188,2020-11-22,00:03:22,00:18:29,NA,incomplete,66,number,0,left,Green_Plus_Chess_2.jpg,Blue_Triangle_Dots_2.jpg,Green_Star_Grid_4.jpg,left,713,true,high,false
RDO2nQ4Q,3r6rzgk0yip7nifkjif6ljfzh9ayv2,3s96kq6i9qhrzzey9txfw0d5gz4dtc,RDO2nQ4Q,2020-0188,2020-11-22,00:03:22,00:18:29,NA,incomplete,67,number,1,right,Blue_Star_Dots_4.jpg,Blue_Circle_Grid_1.jpg,Purple_Plus_Chess_4.jpg,right,550,true,high,false
RDO2nQ4Q,3r6rzgk0yip7nifkjif6ljfzh9ayv2,3s96kq6i9qhrzzey9txfw0d5gz4dtc,RDO2nQ4Q,2020-0188,2020-11-22,00:03:22,00:18:29,NA,incomplete,68,number,0,right,Green_Star_Dots_2.jpg,Green_Circle_Chess_4.jpg,Purple_Plus_Grid_2.jpg,right,599,true,high,false
RDO2nQ4Q,3r6rzgk0yip7nifkjif6ljfzh9ayv2,3s96kq6i9qhrzzey9txfw0d5gz4dtc,RDO2nQ4Q,2020-0188,2020-11-22,00:03:22,00:18:29,NA,incomplete,69,number,1,left,Purple_Star_Dots_2.jpg,Blue_Circle_Grid_2.jpg,Purple_Plus_Chess_1.jpg,left,732,true,high,false
RDO2nQ4Q,3r6rzgk0yip7nifkjif6ljfzh9ayv2,3s96kq6i9qhrzzey9txfw0d5gz4dtc,RDO2nQ4Q,2020-0188,2020-11-22,00:03:22,00:18:29,NA,incomplete,70,color,1,left,Red_Circle_Stripes_4.jpg,Red_Triangle_Chess_1.jpg,Blue_Star_Grid_4.jpg,right,515,false,high,false
RDO2nQ4Q,3r6rzgk0yip7nifkjif6ljfzh9ayv2,3s96kq6i9qhrzzey9txfw0d5gz4dtc,RDO2nQ4Q,2020-0188,2020-11-22,00:03:22,00:18:29,NA,incomplete,71,color,0,left,Blue_Triangle_Stripes_3.jpg,Blue_Circle_Chess_1.jpg,Red_Star_Grid_3.jpg,right,589,false,high,false
RDO2nQ4Q,3r6rzgk0yip7nifkjif6ljfzh9ayv2,3s96kq6i9qhrzzey9txfw0d5gz4dtc,RDO2nQ4Q,2020-0188,2020-11-22,00:03:22,00:18:29,NA,incomplete,72,color,1,left,Blue_Circle_Dots_4.jpg,Blue_Triangle_Grid_3.jpg,Red_Star_Stripes_4.jpg,right,613,false,high,false
RDO2nQ4Q,3r6rzgk0yip7nifkjif6ljfzh9ayv2,3s96kq6i9qhrzzey9txfw0d5gz4dtc,RDO2nQ4Q,2020-0188,2020-11-22,00:03:22,00:18:29,NA,incomplete,73,color,1,right,Red_Star_Dots_4.jpg,Green_Triangle_Grid_4.jpg,Red_Plus_Chess_1.jpg,left,610,false,high,false
RDO2nQ4Q,3r6rzgk0yip7nifkjif6ljfzh9ayv2,3s96kq6i9qhrzzey9txfw0d5gz4dtc,RDO2nQ4Q,2020-0188,2020-11-22,00:03:22,00:18:29,NA,incomplete,74,color,0,left,Blue_Star_Grid_3.jpg,Blue_Plus_Stripes_2.jpg,Purple_Triangle_Chess_3.jpg,left,535,true,high,false
RDO2nQ4Q,3r6rzgk0yip7nifkjif6ljfzh9ayv2,3s96kq6i9qhrzzey9txfw0d5gz4dtc,RDO2nQ4Q,2020-0188,2020-11-22,00:03:22,00:18:29,NA,incomplete,75,color,1,right,Blue_Triangle_Dots_4.jpg,Purple_Circle_Grid_4.jpg,Blue_Star_Stripes_2.jpg,left,624,false,high,false
RDO2nQ4Q,3r6rzgk0yip7nifkjif6ljfzh9ayv2,3s96kq6i9qhrzzey9txfw0d5gz4dtc,RDO2nQ4Q,2020-0188,2020-11-22,00:03:22,00:18:29,NA,incomplete,76,color,1,left,Purple_Triangle_Chess_2.jpg,Purple_Plus_Dots_4.jpg,Red_Star_Stripes_2.jpg,left,517,true,high,false
RDO2nQ4Q,3r6rzgk0yip7nifkjif6ljfzh9ayv2,3s96kq6i9qhrzzey9txfw0d5gz4dtc,RDO2nQ4Q,2020-0188,2020-11-22,00:03:22,00:18:29,NA,incomplete,77,color,1,right,Blue_Circle_Chess_3.jpg,Purple_Triangle_Dots_3.jpg,Blue_Star_Grid_4.jpg,right,736,true,high,false
RDO2nQ4Q,3r6rzgk0yip7nifkjif6ljfzh9ayv2,3s96kq6i9qhrzzey9txfw0d5gz4dtc,RDO2nQ4Q,2020-0188,2020-11-22,00:03:22,00:18:29,NA,incomplete,78,color,1,left,Blue_Circle_Grid_1.jpg,Blue_Triangle_Stripes_2.jpg,Purple_Star_Chess_1.jpg,left,693,true,high,false
RDO2nQ4Q,3r6rzgk0yip7nifkjif6ljfzh9ayv2,3s96kq6i9qhrzzey9txfw0d5gz4dtc,RDO2nQ4Q,2020-0188,2020-11-22,00:03:22,00:18:29,NA,incomplete,79,color,0,right,Blue_Star_Stripes_4.jpg,Red_Triangle_Dots_4.jpg,Blue_Circle_Grid_3.jpg,right,790,true,high,false
RDO2nQ4Q,3r6rzgk0yip7nifkjif6ljfzh9ayv2,3s96kq6i9qhrzzey9txfw0d5gz4dtc,RDO2nQ4Q,2020-0188,2020-11-22,00:03:22,00:18:29,NA,incomplete,80,number,1,right,Purple_Circle_Grid_3.jpg,Purple_Star_Dots_2.jpg,Green_Plus_Chess_3.jpg,left,624,false,high,false
RDO2nQ4Q,3r6rzgk0yip7nifkjif6ljfzh9ayv2,3s96kq6i9qhrzzey9txfw0d5gz4dtc,RDO2nQ4Q,2020-0188,2020-11-22,00:03:22,00:18:29,NA,incomplete,81,number,1,right,Green_Plus_Chess_1.jpg,Green_Triangle_Stripes_3.jpg,Blue_Circle_Dots_1.jpg,right,675,true,high,false
RDO2nQ4Q,3r6rzgk0yip7nifkjif6ljfzh9ayv2,3s96kq6i9qhrzzey9txfw0d5gz4dtc,RDO2nQ4Q,2020-0188,2020-11-22,00:03:22,00:18:29,NA,incomplete,82,number,1,right,Purple_Star_Grid_3.jpg,Purple_Circle_Dots_1.jpg,Red_Plus_Chess_3.jpg,right,636,true,high,false
RDO2nQ4Q,3r6rzgk0yip7nifkjif6ljfzh9ayv2,3s96kq6i9qhrzzey9txfw0d5gz4dtc,RDO2nQ4Q,2020-0188,2020-11-22,00:03:22,00:18:29,NA,incomplete,83,number,1,left,Green_Circle_Chess_2.jpg,Blue_Triangle_Stripes_2.jpg,Green_Star_Grid_1.jpg,left,569,true,high,false
RDO2nQ4Q,3r6rzgk0yip7nifkjif6ljfzh9ayv2,3s96kq6i9qhrzzey9txfw0d5gz4dtc,RDO2nQ4Q,2020-0188,2020-11-22,00:03:22,00:18:29,NA,incomplete,84,number,1,right,Green_Star_Grid_2.jpg,Green_Circle_Stripes_4.jpg,Purple_Triangle_Chess_2.jpg,right,537,true,high,false
RDO2nQ4Q,3r6rzgk0yip7nifkjif6ljfzh9ayv2,3s96kq6i9qhrzzey9txfw0d5gz4dtc,RDO2nQ4Q,2020-0188,2020-11-22,00:03:22,00:18:29,NA,incomplete,85,number,1,left,Red_Circle_Chess_1.jpg,Purple_Star_Stripes_1.jpg,Red_Plus_Dots_2.jpg,left,581,true,high,false
RDO2nQ4Q,3r6rzgk0yip7nifkjif6ljfzh9ayv2,3s96kq6i9qhrzzey9txfw0d5gz4dtc,RDO2nQ4Q,2020-0188,2020-11-22,00:03:22,00:18:29,NA,incomplete,86,number,0,left,Purple_Triangle_Dots_3.jpg,Blue_Plus_Grid_3.jpg,Purple_Circle_Chess_2.jpg,left,658,true,high,false
RDO2nQ4Q,3r6rzgk0yip7nifkjif6ljfzh9ayv2,3s96kq6i9qhrzzey9txfw0d5gz4dtc,RDO2nQ4Q,2020-0188,2020-11-22,00:03:22,00:18:29,NA,incomplete,87,number,1,left,Blue_Circle_Stripes_1.jpg,Purple_Triangle_Grid_1.jpg,Blue_Star_Dots_4.jpg,left,535,true,high,false
RDO2nQ4Q,3r6rzgk0yip7nifkjif6ljfzh9ayv2,3s96kq6i9qhrzzey9txfw0d5gz4dtc,RDO2nQ4Q,2020-0188,2020-11-22,00:03:22,00:18:29,NA,incomplete,88,number,1,right,Red_Triangle_Dots_1.jpg,Red_Star_Stripes_2.jpg,Green_Circle_Grid_1.jpg,right,826,true,high,false
RDO2nQ4Q,3r6rzgk0yip7nifkjif6ljfzh9ayv2,3s96kq6i9qhrzzey9txfw0d5gz4dtc,RDO2nQ4Q,2020-0188,2020-11-22,00:03:22,00:18:29,NA,incomplete,89,number,1,right,Red_Plus_Chess_1.jpg,Red_Triangle_Stripes_2.jpg,Purple_Circle_Dots_1.jpg,right,564,true,high,false
RDO2nQ4Q,3r6rzgk0yip7nifkjif6ljfzh9ayv2,3s96kq6i9qhrzzey9txfw0d5gz4dtc,RDO2nQ4Q,2020-0188,2020-11-22,00:03:22,00:18:29,NA,incomplete,90,color,1,right,Purple_Star_Grid_2.jpg,Green_Plus_Dots_2.jpg,Purple_Circle_Chess_3.jpg,left,539,false,high,false
RDO2nQ4Q,3r6rzgk0yip7nifkjif6ljfzh9ayv2,3s96kq6i9qhrzzey9txfw0d5gz4dtc,RDO2nQ4Q,2020-0188,2020-11-22,00:03:22,00:18:29,NA,incomplete,91,color,1,left,Green_Triangle_Dots_3.jpg,Green_Star_Stripes_1.jpg,Blue_Plus_Chess_3.jpg,right,572,false,high,false
RDO2nQ4Q,3r6rzgk0yip7nifkjif6ljfzh9ayv2,3s96kq6i9qhrzzey9txfw0d5gz4dtc,RDO2nQ4Q,2020-0188,2020-11-22,00:03:22,00:18:29,NA,incomplete,92,color,1,left,Red_Plus_Grid_3.jpg,Red_Triangle_Stripes_4.jpg,Purple_Circle_Chess_3.jpg,left,536,true,high,false
RDO2nQ4Q,3r6rzgk0yip7nifkjif6ljfzh9ayv2,3s96kq6i9qhrzzey9txfw0d5gz4dtc,RDO2nQ4Q,2020-0188,2020-11-22,00:03:22,00:18:29,NA,incomplete,93,color,1,left,Red_Plus_Chess_1.jpg,Red_Circle_Grid_3.jpg,Blue_Triangle_Dots_1.jpg,left,582,true,high,false
RDO2nQ4Q,3r6rzgk0yip7nifkjif6ljfzh9ayv2,3s96kq6i9qhrzzey9txfw0d5gz4dtc,RDO2nQ4Q,2020-0188,2020-11-22,00:03:22,00:18:29,NA,incomplete,94,color,1,right,Blue_Plus_Stripes_2.jpg,Purple_Triangle_Dots_2.jpg,Blue_Star_Grid_1.jpg,right,505,true,high,false
RDO2nQ4Q,3r6rzgk0yip7nifkjif6ljfzh9ayv2,3s96kq6i9qhrzzey9txfw0d5gz4dtc,RDO2nQ4Q,2020-0188,2020-11-22,00:03:22,00:18:29,NA,incomplete,95,color,0,left,Purple_Star_Chess_2.jpg,Purple_Plus_Dots_4.jpg,Green_Circle_Stripes_2.jpg,left,490,true,high,false
RDO2nQ4Q,3r6rzgk0yip7nifkjif6ljfzh9ayv2,3s96kq6i9qhrzzey9txfw0d5gz4dtc,RDO2nQ4Q,2020-0188,2020-11-22,00:03:22,00:18:29,NA,incomplete,96,color,1,left,Purple_Plus_Dots_3.jpg,Purple_Triangle_Stripes_2.jpg,Blue_Star_Chess_3.jpg,left,584,true,high,false
RDO2nQ4Q,3r6rzgk0yip7nifkjif6ljfzh9ayv2,3s96kq6i9qhrzzey9txfw0d5gz4dtc,RDO2nQ4Q,2020-0188,2020-11-22,00:03:22,00:18:29,NA,incomplete,97,color,1,right,Red_Triangle_Grid_3.jpg,Purple_Circle_Stripes_3.jpg,Red_Plus_Dots_4.jpg,right,1017,true,high,false
RDO2nQ4Q,3r6rzgk0yip7nifkjif6ljfzh9ayv2,3s96kq6i9qhrzzey9txfw0d5gz4dtc,RDO2nQ4Q,2020-0188,2020-11-22,00:03:22,00:18:29,NA,incomplete,98,color,1,left,Red_Triangle_Grid_2.jpg,Red_Circle_Dots_1.jpg,Purple_Star_Chess_2.jpg,left,488,true,high,false
RDO2nQ4Q,3r6rzgk0yip7nifkjif6ljfzh9ayv2,3s96kq6i9qhrzzey9txfw0d5gz4dtc,RDO2nQ4Q,2020-0188,2020-11-22,00:03:22,00:18:29,NA,incomplete,99,color,0,right,Green_Plus_Dots_2.jpg,Blue_Triangle_Grid_2.jpg,Green_Circle_Stripes_1.jpg,right,539,true,high,false
RDO2nQ4Q,3r6rzgk0yip7nifkjif6ljfzh9ayv2,3s96kq6i9qhrzzey9txfw0d5gz4dtc,RDO2nQ4Q,2020-0188,2020-11-22,00:03:22,00:18:29,NA,incomplete,100,number,1,right,Green_Triangle_Grid_1.jpg,Green_Star_Chess_2.jpg,Purple_Circle_Dots_1.jpg,left,453,false,high,false
RDO2nQ4Q,3r6rzgk0yip7nifkjif6ljfzh9ayv2,3s96kq6i9qhrzzey9txfw0d5gz4dtc,RDO2nQ4Q,2020-0188,2020-11-22,00:03:22,00:18:29,NA,incomplete,101,number,1,left,Red_Triangle_Grid_4.jpg,Purple_Circle_Stripes_4.jpg,Red_Star_Chess_2.jpg,left,563,true,high,false
RDO2nQ4Q,3r6rzgk0yip7nifkjif6ljfzh9ayv2,3s96kq6i9qhrzzey9txfw0d5gz4dtc,RDO2nQ4Q,2020-0188,2020-11-22,00:03:22,00:18:29,NA,incomplete,102,number,1,left,Red_Star_Chess_4.jpg,Blue_Triangle_Dots_4.jpg,Red_Plus_Stripes_1.jpg,left,586,true,high,false
RDO2nQ4Q,3r6rzgk0yip7nifkjif6ljfzh9ayv2,3s96kq6i9qhrzzey9txfw0d5gz4dtc,RDO2nQ4Q,2020-0188,2020-11-22,00:03:22,00:18:29,NA,incomplete,103,number,0,right,Blue_Plus_Chess_1.jpg,Blue_Circle_Dots_4.jpg,Green_Triangle_Grid_1.jpg,right,562,true,high,false
RDO2nQ4Q,3r6rzgk0yip7nifkjif6ljfzh9ayv2,3s96kq6i9qhrzzey9txfw0d5gz4dtc,RDO2nQ4Q,2020-0188,2020-11-22,00:03:22,00:18:29,NA,incomplete,104,number,0,left,Red_Circle_Dots_2.jpg,Purple_Triangle_Stripes_2.jpg,Red_Star_Grid_3.jpg,left,565,true,high,false
RDO2nQ4Q,3r6rzgk0yip7nifkjif6ljfzh9ayv2,3s96kq6i9qhrzzey9txfw0d5gz4dtc,RDO2nQ4Q,2020-0188,2020-11-22,00:03:22,00:18:29,NA,incomplete,105,number,1,left,Purple_Circle_Grid_1.jpg,Blue_Plus_Chess_1.jpg,Purple_Star_Stripes_2.jpg,right,594,false,high,false
RDO2nQ4Q,3r6rzgk0yip7nifkjif6ljfzh9ayv2,3s96kq6i9qhrzzey9txfw0d5gz4dtc,RDO2nQ4Q,2020-0188,2020-11-22,00:03:22,00:18:29,NA,incomplete,106,number,1,left,Green_Triangle_Chess_2.jpg,Purple_Plus_Grid_2.jpg,Green_Circle_Dots_1.jpg,left,573,true,high,false
RDO2nQ4Q,3r6rzgk0yip7nifkjif6ljfzh9ayv2,3s96kq6i9qhrzzey9txfw0d5gz4dtc,RDO2nQ4Q,2020-0188,2020-11-22,00:03:22,00:18:29,NA,incomplete,107,number,1,right,Purple_Plus_Stripes_3.jpg,Purple_Triangle_Chess_4.jpg,Green_Circle_Grid_3.jpg,right,677,true,high,false
RDO2nQ4Q,3r6rzgk0yip7nifkjif6ljfzh9ayv2,3s96kq6i9qhrzzey9txfw0d5gz4dtc,RDO2nQ4Q,2020-0188,2020-11-22,00:03:22,00:18:29,NA,incomplete,108,number,1,left,Red_Star_Stripes_3.jpg,Green_Circle_Chess_3.jpg,Red_Plus_Grid_2.jpg,left,556,true,high,false
RDO2nQ4Q,3r6rzgk0yip7nifkjif6ljfzh9ayv2,3s96kq6i9qhrzzey9txfw0d5gz4dtc,RDO2nQ4Q,2020-0188,2020-11-22,00:03:22,00:18:29,NA,incomplete,109,number,1,left,Purple_Star_Chess_1.jpg,Red_Triangle_Dots_1.jpg,Purple_Plus_Stripes_4.jpg,left,480,true,high,false
RDO2nQ4Q,3r6rzgk0yip7nifkjif6ljfzh9ayv2,3s96kq6i9qhrzzey9txfw0d5gz4dtc,RDO2nQ4Q,2020-0188,2020-11-22,00:03:22,00:18:29,NA,incomplete,110,color,1,right,Purple_Circle_Dots_2.jpg,Green_Triangle_Grid_2.jpg,Purple_Plus_Stripes_3.jpg,left,547,false,high,false
RDO2nQ4Q,3r6rzgk0yip7nifkjif6ljfzh9ayv2,3s96kq6i9qhrzzey9txfw0d5gz4dtc,RDO2nQ4Q,2020-0188,2020-11-22,00:03:22,00:18:29,NA,incomplete,111,color,1,right,Red_Plus_Grid_4.jpg,Purple_Triangle_Dots_4.jpg,Red_Star_Chess_1.jpg,left,568,false,high,false
RDO2nQ4Q,3r6rzgk0yip7nifkjif6ljfzh9ayv2,3s96kq6i9qhrzzey9txfw0d5gz4dtc,RDO2nQ4Q,2020-0188,2020-11-22,00:03:22,00:18:29,NA,incomplete,112,color,1,left,Green_Circle_Dots_1.jpg,Green_Star_Stripes_4.jpg,Purple_Plus_Chess_1.jpg,left,502,true,high,false
RDO2nQ4Q,3r6rzgk0yip7nifkjif6ljfzh9ayv2,3s96kq6i9qhrzzey9txfw0d5gz4dtc,RDO2nQ4Q,2020-0188,2020-11-22,00:03:22,00:18:29,NA,incomplete,113,color,0,right,Red_Star_Chess_4.jpg,Purple_Circle_Dots_4.jpg,Red_Plus_Stripes_1.jpg,right,484,true,high,false
RDO2nQ4Q,3r6rzgk0yip7nifkjif6ljfzh9ayv2,3s96kq6i9qhrzzey9txfw0d5gz4dtc,RDO2nQ4Q,2020-0188,2020-11-22,00:03:22,00:18:29,NA,incomplete,114,color,1,right,Purple_Star_Chess_1.jpg,Blue_Circle_Stripes_1.jpg,Purple_Triangle_Dots_3.jpg,right,463,true,high,false
RDO2nQ4Q,3r6rzgk0yip7nifkjif6ljfzh9ayv2,3s96kq6i9qhrzzey9txfw0d5gz4dtc,RDO2nQ4Q,2020-0188,2020-11-22,00:03:22,00:18:29,NA,incomplete,115,color,1,left,Blue_Star_Stripes_2.jpg,Blue_Circle_Grid_1.jpg,Purple_Triangle_Dots_2.jpg,left,461,true,high,false
RDO2nQ4Q,3r6rzgk0yip7nifkjif6ljfzh9ayv2,3s96kq6i9qhrzzey9txfw0d5gz4dtc,RDO2nQ4Q,2020-0188,2020-11-22,00:03:22,00:18:29,NA,incomplete,116,color,1,right,Green_Star_Chess_1.jpg,Blue_Circle_Dots_1.jpg,Green_Triangle_Grid_3.jpg,right,559,true,high,false
RDO2nQ4Q,3r6rzgk0yip7nifkjif6ljfzh9ayv2,3s96kq6i9qhrzzey9txfw0d5gz4dtc,RDO2nQ4Q,2020-0188,2020-11-22,00:03:22,00:18:29,NA,incomplete,117,color,1,left,Purple_Plus_Stripes_2.jpg,Purple_Star_Chess_1.jpg,Green_Circle_Dots_2.jpg,left,515,true,high,false
RDO2nQ4Q,3r6rzgk0yip7nifkjif6ljfzh9ayv2,3s96kq6i9qhrzzey9txfw0d5gz4dtc,RDO2nQ4Q,2020-0188,2020-11-22,00:03:22,00:18:29,NA,incomplete,118,color,1,left,Blue_Star_Stripes_4.jpg,Blue_Plus_Grid_3.jpg,Green_Triangle_Dots_4.jpg,left,450,true,high,false
RDO2nQ4Q,3r6rzgk0yip7nifkjif6ljfzh9ayv2,3s96kq6i9qhrzzey9txfw0d5gz4dtc,RDO2nQ4Q,2020-0188,2020-11-22,00:03:22,00:18:29,NA,incomplete,119,color,1,left,Blue_Plus_Stripes_4.jpg,Blue_Circle_Dots_1.jpg,Red_Star_Chess_4.jpg,left,464,true,high,false
RDO2nQ4Q,3r6rzgk0yip7nifkjif6ljfzh9ayv2,3s96kq6i9qhrzzey9txfw0d5gz4dtc,RDO2nQ4Q,2020-0188,2020-11-22,00:03:22,00:18:29,NA,incomplete,120,number,1,right,Purple_Plus_Dots_1.jpg,Purple_Triangle_Grid_2.jpg,Blue_Circle_Stripes_1.jpg,left,503,false,high,false
RDO2nQ4Q,3r6rzgk0yip7nifkjif6ljfzh9ayv2,3s96kq6i9qhrzzey9txfw0d5gz4dtc,RDO2nQ4Q,2020-0188,2020-11-22,00:03:22,00:18:29,NA,incomplete,121,number,0,right,Red_Circle_Stripes_2.jpg,Red_Plus_Dots_4.jpg,Purple_Triangle_Grid_2.jpg,left,587,false,high,false
RDO2nQ4Q,3r6rzgk0yip7nifkjif6ljfzh9ayv2,3s96kq6i9qhrzzey9txfw0d5gz4dtc,RDO2nQ4Q,2020-0188,2020-11-22,00:03:22,00:18:29,NA,incomplete,122,number,1,right,Blue_Plus_Stripes_2.jpg,Blue_Triangle_Chess_3.jpg,Red_Star_Dots_2.jpg,left,563,false,high,false
RDO2nQ4Q,3r6rzgk0yip7nifkjif6ljfzh9ayv2,3s96kq6i9qhrzzey9txfw0d5gz4dtc,RDO2nQ4Q,2020-0188,2020-11-22,00:03:22,00:18:29,NA,incomplete,123,number,0,right,Blue_Plus_Dots_3.jpg,Blue_Star_Chess_2.jpg,Purple_Circle_Grid_3.jpg,left,1016,false,high,false
RDO2nQ4Q,3r6rzgk0yip7nifkjif6ljfzh9ayv2,3s96kq6i9qhrzzey9txfw0d5gz4dtc,RDO2nQ4Q,2020-0188,2020-11-22,00:03:22,00:18:29,NA,incomplete,124,number,1,left,Green_Circle_Chess_2.jpg,Purple_Star_Stripes_2.jpg,Green_Triangle_Dots_4.jpg,right,609,false,high,false
RDO2nQ4Q,3r6rzgk0yip7nifkjif6ljfzh9ayv2,3s96kq6i9qhrzzey9txfw0d5gz4dtc,RDO2nQ4Q,2020-0188,2020-11-22,00:03:22,00:18:29,NA,incomplete,125,number,1,right,Purple_Star_Chess_3.jpg,Purple_Circle_Dots_2.jpg,Green_Plus_Grid_3.jpg,left,567,false,high,false
RDO2nQ4Q,3r6rzgk0yip7nifkjif6ljfzh9ayv2,3s96kq6i9qhrzzey9txfw0d5gz4dtc,RDO2nQ4Q,2020-0188,2020-11-22,00:03:22,00:18:29,NA,incomplete,126,number,1,left,Red_Plus_Chess_4.jpg,Green_Star_Stripes_4.jpg,Red_Triangle_Dots_3.jpg,left,678,true,high,false
RDO2nQ4Q,3r6rzgk0yip7nifkjif6ljfzh9ayv2,3s96kq6i9qhrzzey9txfw0d5gz4dtc,RDO2nQ4Q,2020-0188,2020-11-22,00:03:22,00:18:29,NA,incomplete,127,number,1,right,Blue_Star_Chess_4.jpg,Blue_Plus_Dots_2.jpg,Red_Circle_Grid_4.jpg,right,580,true,high,false
RDO2nQ4Q,3r6rzgk0yip7nifkjif6ljfzh9ayv2,3s96kq6i9qhrzzey9txfw0d5gz4dtc,RDO2nQ4Q,2020-0188,2020-11-22,00:03:22,00:18:29,NA,incomplete,128,number,1,right,Green_Plus_Grid_1.jpg,Green_Circle_Dots_4.jpg,Red_Triangle_Chess_1.jpg,right,728,true,high,false
RDO2nQ4Q,3r6rzgk0yip7nifkjif6ljfzh9ayv2,3s96kq6i9qhrzzey9txfw0d5gz4dtc,RDO2nQ4Q,2020-0188,2020-11-22,00:03:22,00:18:29,NA,incomplete,129,number,1,left,Purple_Circle_Chess_4.jpg,Blue_Plus_Dots_4.jpg,Purple_Triangle_Grid_2.jpg,left,523,true,high,false
RDO2nQ4Q,3r6rzgk0yip7nifkjif6ljfzh9ayv2,3s96kq6i9qhrzzey9txfw0d5gz4dtc,RDO2nQ4Q,2020-0188,2020-11-22,00:03:22,00:18:29,NA,incomplete,130,number,0,right,Red_Plus_Grid_2.jpg,Red_Circle_Dots_4.jpg,Blue_Star_Chess_2.jpg,right,546,true,high,false
RDO2nQ4Q,3r6rzgk0yip7nifkjif6ljfzh9ayv2,3s96kq6i9qhrzzey9txfw0d5gz4dtc,RDO2nQ4Q,2020-0188,2020-11-22,00:03:22,00:18:29,NA,incomplete,131,number,1,left,Red_Triangle_Stripes_3.jpg,Blue_Star_Dots_3.jpg,Red_Plus_Chess_4.jpg,left,574,true,high,false
RDO2nQ4Q,3r6rzgk0yip7nifkjif6ljfzh9ayv2,3s96kq6i9qhrzzey9txfw0d5gz4dtc,RDO2nQ4Q,2020-0188,2020-11-22,00:03:22,00:18:29,NA,incomplete,132,number,0,right,Red_Plus_Stripes_1.jpg,Red_Triangle_Dots_3.jpg,Blue_Star_Chess_1.jpg,right,514,true,high,false
RDO2nQ4Q,3r6rzgk0yip7nifkjif6ljfzh9ayv2,3s96kq6i9qhrzzey9txfw0d5gz4dtc,RDO2nQ4Q,2020-0188,2020-11-22,00:03:22,00:18:29,NA,incomplete,133,number,1,left,Green_Triangle_Stripes_3.jpg,Blue_Plus_Dots_3.jpg,Green_Star_Chess_4.jpg,left,562,true,high,false
RDO2nQ4Q,3r6rzgk0yip7nifkjif6ljfzh9ayv2,3s96kq6i9qhrzzey9txfw0d5gz4dtc,RDO2nQ4Q,2020-0188,2020-11-22,00:03:22,00:18:29,NA,incomplete,134,number,1,left,Purple_Plus_Stripes_4.jpg,Green_Circle_Grid_4.jpg,Purple_Triangle_Chess_2.jpg,left,494,true,high,false
RDO2nQ4Q,3r6rzgk0yip7nifkjif6ljfzh9ayv2,3s96kq6i9qhrzzey9txfw0d5gz4dtc,RDO2nQ4Q,2020-0188,2020-11-22,00:03:22,00:18:29,NA,incomplete,135,number,1,left,Red_Plus_Stripes_3.jpg,Purple_Circle_Dots_3.jpg,Red_Triangle_Grid_1.jpg,left,522,true,high,false
RDO2nQ4Q,3r6rzgk0yip7nifkjif6ljfzh9ayv2,3s96kq6i9qhrzzey9txfw0d5gz4dtc,RDO2nQ4Q,2020-0188,2020-11-22,00:03:22,00:18:29,NA,incomplete,136,number,0,right,Green_Circle_Dots_1.jpg,Green_Triangle_Grid_4.jpg,Red_Star_Chess_1.jpg,right,481,true,high,false
RDO2nQ4Q,3r6rzgk0yip7nifkjif6ljfzh9ayv2,3s96kq6i9qhrzzey9txfw0d5gz4dtc,RDO2nQ4Q,2020-0188,2020-11-22,00:03:22,00:18:29,NA,incomplete,137,number,1,right,Green_Circle_Stripes_2.jpg,Green_Plus_Chess_1.jpg,Blue_Triangle_Grid_2.jpg,right,662,true,high,false
RDO2nQ4Q,3r6rzgk0yip7nifkjif6ljfzh9ayv2,3s96kq6i9qhrzzey9txfw0d5gz4dtc,RDO2nQ4Q,2020-0188,2020-11-22,00:03:22,00:18:29,NA,incomplete,138,number,0,right,Blue_Circle_Chess_1.jpg,Blue_Star_Grid_3.jpg,Red_Plus_Dots_1.jpg,right,510,true,high,false
RDO2nQ4Q,3r6rzgk0yip7nifkjif6ljfzh9ayv2,3s96kq6i9qhrzzey9txfw0d5gz4dtc,RDO2nQ4Q,2020-0188,2020-11-22,00:03:22,00:18:29,NA,incomplete,139,number,1,right,Red_Circle_Chess_2.jpg,Red_Plus_Stripes_4.jpg,Purple_Triangle_Dots_2.jpg,right,666,true,high,false
RDO2nQ4Q,3r6rzgk0yip7nifkjif6ljfzh9ayv2,3s96kq6i9qhrzzey9txfw0d5gz4dtc,RDO2nQ4Q,2020-0188,2020-11-22,00:03:22,00:18:29,NA,incomplete,140,color,1,right,Blue_Circle_Grid_2.jpg,Red_Triangle_Chess_2.jpg,Blue_Star_Dots_3.jpg,left,507,false,high,false
RDO2nQ4Q,3r6rzgk0yip7nifkjif6ljfzh9ayv2,3s96kq6i9qhrzzey9txfw0d5gz4dtc,RDO2nQ4Q,2020-0188,2020-11-22,00:03:22,00:18:29,NA,incomplete,141,color,1,right,Green_Triangle_Dots_4.jpg,Purple_Plus_Grid_4.jpg,Green_Star_Chess_3.jpg,left,503,false,high,false
RDO2nQ4Q,3r6rzgk0yip7nifkjif6ljfzh9ayv2,3s96kq6i9qhrzzey9txfw0d5gz4dtc,RDO2nQ4Q,2020-0188,2020-11-22,00:03:22,00:18:29,NA,incomplete,142,color,1,right,Green_Circle_Chess_2.jpg,Blue_Plus_Stripes_2.jpg,Green_Triangle_Grid_1.jpg,right,496,true,high,false
RDO2nQ4Q,3r6rzgk0yip7nifkjif6ljfzh9ayv2,3s96kq6i9qhrzzey9txfw0d5gz4dtc,RDO2nQ4Q,2020-0188,2020-11-22,00:03:22,00:18:29,NA,incomplete,143,color,1,left,Green_Circle_Chess_3.jpg,Green_Plus_Grid_4.jpg,Purple_Triangle_Stripes_3.jpg,left,450,true,high,false
RDO2nQ4Q,3r6rzgk0yip7nifkjif6ljfzh9ayv2,3s96kq6i9qhrzzey9txfw0d5gz4dtc,RDO2nQ4Q,2020-0188,2020-11-22,00:03:22,00:18:29,NA,incomplete,144,color,1,left,Red_Plus_Dots_4.jpg,Red_Triangle_Grid_1.jpg,Purple_Circle_Stripes_4.jpg,right,499,false,high,false
RDO2nQ4Q,3r6rzgk0yip7nifkjif6ljfzh9ayv2,3s96kq6i9qhrzzey9txfw0d5gz4dtc,RDO2nQ4Q,2020-0188,2020-11-22,00:03:22,00:18:29,NA,incomplete,145,color,1,right,Red_Star_Stripes_2.jpg,Green_Circle_Dots_2.jpg,Red_Triangle_Grid_4.jpg,left,537,false,high,false
RDO2nQ4Q,3r6rzgk0yip7nifkjif6ljfzh9ayv2,3s96kq6i9qhrzzey9txfw0d5gz4dtc,RDO2nQ4Q,2020-0188,2020-11-22,00:03:22,00:18:29,NA,incomplete,146,color,1,right,Purple_Circle_Dots_1.jpg,Green_Plus_Chess_1.jpg,Purple_Star_Grid_2.jpg,left,1033,false,high,false
RDO2nQ4Q,3r6rzgk0yip7nifkjif6ljfzh9ayv2,3s96kq6i9qhrzzey9txfw0d5gz4dtc,RDO2nQ4Q,2020-0188,2020-11-22,00:03:22,00:18:29,NA,incomplete,147,color,1,left,Purple_Circle_Stripes_3.jpg,Purple_Plus_Dots_1.jpg,Green_Triangle_Grid_3.jpg,right,572,false,high,false
RDO2nQ4Q,3r6rzgk0yip7nifkjif6ljfzh9ayv2,3s96kq6i9qhrzzey9txfw0d5gz4dtc,RDO2nQ4Q,2020-0188,2020-11-22,00:03:22,00:18:29,NA,incomplete,148,color,1,right,Purple_Triangle_Stripes_1.jpg,Green_Star_Chess_1.jpg,Purple_Plus_Grid_4.jpg,right,674,true,high,false
RDO2nQ4Q,3r6rzgk0yip7nifkjif6ljfzh9ayv2,3s96kq6i9qhrzzey9txfw0d5gz4dtc,RDO2nQ4Q,2020-0188,2020-11-22,00:03:22,00:18:29,NA,incomplete,149,color,1,right,Red_Triangle_Chess_1.jpg,Green_Plus_Dots_1.jpg,Red_Circle_Grid_4.jpg,right,491,true,high,false
RDO2nQ4Q,3r6rzgk0yip7nifkjif6ljfzh9ayv2,3s96kq6i9qhrzzey9txfw0d5gz4dtc,RDO2nQ4Q,2020-0188,2020-11-22,00:03:22,00:18:29,NA,incomplete,150,color,1,left,Blue_Triangle_Grid_1.jpg,Blue_Circle_Chess_4.jpg,Red_Plus_Stripes_1.jpg,left,415,true,high,false
RDO2nQ4Q,3r6rzgk0yip7nifkjif6ljfzh9ayv2,3s96kq6i9qhrzzey9txfw0d5gz4dtc,RDO2nQ4Q,2020-0188,2020-11-22,00:03:22,00:18:29,NA,incomplete,151,color,1,left,Blue_Triangle_Chess_3.jpg,Blue_Plus_Stripes_2.jpg,Purple_Star_Grid_3.jpg,left,570,true,high,false
RDO2nQ4Q,3r6rzgk0yip7nifkjif6ljfzh9ayv2,3s96kq6i9qhrzzey9txfw0d5gz4dtc,RDO2nQ4Q,2020-0188,2020-11-22,00:03:22,00:18:29,NA,incomplete,152,color,1,right,Purple_Triangle_Grid_1.jpg,Red_Plus_Stripes_1.jpg,Purple_Circle_Chess_3.jpg,right,431,true,high,false
RDO2nQ4Q,3r6rzgk0yip7nifkjif6ljfzh9ayv2,3s96kq6i9qhrzzey9txfw0d5gz4dtc,RDO2nQ4Q,2020-0188,2020-11-22,00:03:22,00:18:29,NA,incomplete,153,color,1,right,Blue_Triangle_Dots_3.jpg,Red_Circle_Chess_3.jpg,Blue_Star_Stripes_2.jpg,right,558,true,high,false
RDO2nQ4Q,3r6rzgk0yip7nifkjif6ljfzh9ayv2,3s96kq6i9qhrzzey9txfw0d5gz4dtc,RDO2nQ4Q,2020-0188,2020-11-22,00:03:22,00:18:29,NA,incomplete,154,color,0,right,Green_Triangle_Dots_2.jpg,Blue_Circle_Grid_2.jpg,Green_Star_Chess_4.jpg,right,560,true,high,false
RDO2nQ4Q,3r6rzgk0yip7nifkjif6ljfzh9ayv2,3s96kq6i9qhrzzey9txfw0d5gz4dtc,RDO2nQ4Q,2020-0188,2020-11-22,00:03:22,00:18:29,NA,incomplete,155,color,1,left,Green_Triangle_Chess_4.jpg,Green_Circle_Stripes_1.jpg,Red_Star_Grid_4.jpg,left,495,true,high,false
RDO2nQ4Q,3r6rzgk0yip7nifkjif6ljfzh9ayv2,3s96kq6i9qhrzzey9txfw0d5gz4dtc,RDO2nQ4Q,2020-0188,2020-11-22,00:03:22,00:18:29,NA,incomplete,156,color,1,left,Blue_Triangle_Grid_1.jpg,Blue_Plus_Chess_2.jpg,Red_Circle_Dots_1.jpg,left,402,true,high,false
RDO2nQ4Q,3r6rzgk0yip7nifkjif6ljfzh9ayv2,3s96kq6i9qhrzzey9txfw0d5gz4dtc,RDO2nQ4Q,2020-0188,2020-11-22,00:03:22,00:18:29,NA,incomplete,157,color,1,right,Red_Circle_Grid_2.jpg,Blue_Plus_Stripes_2.jpg,Red_Triangle_Dots_1.jpg,right,607,true,high,false
RDO2nQ4Q,3r6rzgk0yip7nifkjif6ljfzh9ayv2,3s96kq6i9qhrzzey9txfw0d5gz4dtc,RDO2nQ4Q,2020-0188,2020-11-22,00:03:22,00:18:29,NA,incomplete,158,color,0,right,Green_Star_Chess_2.jpg,Red_Plus_Grid_2.jpg,Green_Triangle_Dots_3.jpg,right,531,true,high,false
RDO2nQ4Q,3r6rzgk0yip7nifkjif6ljfzh9ayv2,3s96kq6i9qhrzzey9txfw0d5gz4dtc,RDO2nQ4Q,2020-0188,2020-11-22,00:03:22,00:18:29,NA,incomplete,159,color,1,left,Red_Triangle_Grid_2.jpg,Red_Star_Stripes_1.jpg,Blue_Plus_Dots_2.jpg,left,452,true,high,false
RDO2nQ4Q,3r6rzgk0yip7nifkjif6ljfzh9ayv2,3s96kq6i9qhrzzey9txfw0d5gz4dtc,RDO2nQ4Q,2020-0188,2020-11-22,00:03:22,00:18:29,NA,incomplete,160,number,1,left,Purple_Plus_Grid_1.jpg,Blue_Circle_Dots_1.jpg,Purple_Triangle_Chess_2.jpg,right,470,false,high,false
RDO2nQ4Q,3r6rzgk0yip7nifkjif6ljfzh9ayv2,3s96kq6i9qhrzzey9txfw0d5gz4dtc,RDO2nQ4Q,2020-0188,2020-11-22,00:03:22,00:18:29,NA,incomplete,161,number,1,right,Red_Star_Grid_1.jpg,Red_Triangle_Dots_2.jpg,Purple_Circle_Chess_1.jpg,left,448,false,high,false
RDO2nQ4Q,3r6rzgk0yip7nifkjif6ljfzh9ayv2,3s96kq6i9qhrzzey9txfw0d5gz4dtc,RDO2nQ4Q,2020-0188,2020-11-22,00:03:22,00:18:29,NA,incomplete,162,number,0,right,Green_Star_Grid_1.jpg,Green_Circle_Chess_4.jpg,Purple_Triangle_Dots_1.jpg,right,665,true,high,false
RDO2nQ4Q,3r6rzgk0yip7nifkjif6ljfzh9ayv2,3s96kq6i9qhrzzey9txfw0d5gz4dtc,RDO2nQ4Q,2020-0188,2020-11-22,00:03:22,00:18:29,NA,incomplete,163,number,1,right,Blue_Triangle_Dots_3.jpg,Blue_Plus_Grid_2.jpg,Red_Circle_Stripes_3.jpg,left,1035,false,high,false
RDO2nQ4Q,3r6rzgk0yip7nifkjif6ljfzh9ayv2,3s96kq6i9qhrzzey9txfw0d5gz4dtc,RDO2nQ4Q,2020-0188,2020-11-22,00:03:22,00:18:29,NA,incomplete,164,number,1,right,Purple_Triangle_Chess_1.jpg,Purple_Circle_Dots_2.jpg,Blue_Star_Stripes_1.jpg,right,697,true,high,false
RDO2nQ4Q,3r6rzgk0yip7nifkjif6ljfzh9ayv2,3s96kq6i9qhrzzey9txfw0d5gz4dtc,RDO2nQ4Q,2020-0188,2020-11-22,00:03:22,00:18:29,NA,incomplete,165,number,1,right,Blue_Circle_Dots_1.jpg,Blue_Triangle_Chess_3.jpg,Purple_Plus_Grid_1.jpg,right,714,true,high,false
RDO2nQ4Q,3r6rzgk0yip7nifkjif6ljfzh9ayv2,3s96kq6i9qhrzzey9txfw0d5gz4dtc,RDO2nQ4Q,2020-0188,2020-11-22,00:03:22,00:18:29,NA,incomplete,166,number,1,right,Purple_Triangle_Grid_2.jpg,Purple_Plus_Stripes_1.jpg,Green_Star_Dots_2.jpg,right,699,true,high,false
RDO2nQ4Q,3r6rzgk0yip7nifkjif6ljfzh9ayv2,3s96kq6i9qhrzzey9txfw0d5gz4dtc,RDO2nQ4Q,2020-0188,2020-11-22,00:03:22,00:18:29,NA,incomplete,167,number,1,left,Blue_Star_Grid_4.jpg,Red_Plus_Dots_4.jpg,Blue_Triangle_Stripes_1.jpg,left,529,true,high,false
RDO2nQ4Q,3r6rzgk0yip7nifkjif6ljfzh9ayv2,3s96kq6i9qhrzzey9txfw0d5gz4dtc,RDO2nQ4Q,2020-0188,2020-11-22,00:03:22,00:18:29,NA,incomplete,168,number,1,left,Purple_Star_Dots_4.jpg,Blue_Triangle_Chess_4.jpg,Purple_Circle_Stripes_1.jpg,left,493,true,high,false
RDO2nQ4Q,3r6rzgk0yip7nifkjif6ljfzh9ayv2,3s96kq6i9qhrzzey9txfw0d5gz4dtc,RDO2nQ4Q,2020-0188,2020-11-22,00:03:22,00:18:29,NA,incomplete,169,number,0,right,Green_Star_Grid_3.jpg,Green_Plus_Dots_4.jpg,Purple_Circle_Stripes_3.jpg,right,524,true,high,false
RDO2nQ4Q,3r6rzgk0yip7nifkjif6ljfzh9ayv2,3s96kq6i9qhrzzey9txfw0d5gz4dtc,RDO2nQ4Q,2020-0188,2020-11-22,00:03:22,00:18:29,NA,incomplete,170,number,1,left,Purple_Plus_Dots_4.jpg,Green_Circle_Grid_4.jpg,Purple_Star_Chess_2.jpg,left,510,true,high,false
RDO2nQ4Q,3r6rzgk0yip7nifkjif6ljfzh9ayv2,3s96kq6i9qhrzzey9txfw0d5gz4dtc,RDO2nQ4Q,2020-0188,2020-11-22,00:03:22,00:18:29,NA,incomplete,171,number,1,left,Blue_Circle_Chess_3.jpg,Purple_Plus_Dots_3.jpg,Blue_Triangle_Stripes_2.jpg,right,566,false,high,false
RDO2nQ4Q,3r6rzgk0yip7nifkjif6ljfzh9ayv2,3s96kq6i9qhrzzey9txfw0d5gz4dtc,RDO2nQ4Q,2020-0188,2020-11-22,00:03:22,00:18:29,NA,incomplete,172,number,1,left,Red_Triangle_Chess_4.jpg,Blue_Plus_Grid_4.jpg,Red_Circle_Dots_2.jpg,left,541,true,high,false
RDO2nQ4Q,3r6rzgk0yip7nifkjif6ljfzh9ayv2,3s96kq6i9qhrzzey9txfw0d5gz4dtc,RDO2nQ4Q,2020-0188,2020-11-22,00:03:22,00:18:29,NA,incomplete,173,number,1,left,Green_Triangle_Stripes_1.jpg,Purple_Star_Grid_1.jpg,Green_Plus_Chess_3.jpg,left,597,true,high,false
RDO2nQ4Q,3r6rzgk0yip7nifkjif6ljfzh9ayv2,3s96kq6i9qhrzzey9txfw0d5gz4dtc,RDO2nQ4Q,2020-0188,2020-11-22,00:03:22,00:18:29,NA,incomplete,174,number,1,left,Blue_Plus_Chess_2.jpg,Purple_Triangle_Dots_2.jpg,Blue_Circle_Stripes_4.jpg,left,563,true,high,false
RDO2nQ4Q,3r6rzgk0yip7nifkjif6ljfzh9ayv2,3s96kq6i9qhrzzey9txfw0d5gz4dtc,RDO2nQ4Q,2020-0188,2020-11-22,00:03:22,00:18:29,NA,incomplete,175,number,1,left,Red_Plus_Chess_2.jpg,Blue_Star_Stripes_2.jpg,Red_Triangle_Dots_3.jpg,left,556,true,high,false
RDO2nQ4Q,3r6rzgk0yip7nifkjif6ljfzh9ayv2,3s96kq6i9qhrzzey9txfw0d5gz4dtc,RDO2nQ4Q,2020-0188,2020-11-22,00:03:22,00:18:29,NA,incomplete,176,number,1,right,Red_Star_Chess_4.jpg,Red_Circle_Grid_1.jpg,Blue_Triangle_Stripes_4.jpg,right,510,true,high,false
RDO2nQ4Q,3r6rzgk0yip7nifkjif6ljfzh9ayv2,3s96kq6i9qhrzzey9txfw0d5gz4dtc,RDO2nQ4Q,2020-0188,2020-11-22,00:03:22,00:18:29,NA,incomplete,177,number,1,left,Blue_Plus_Stripes_1.jpg,Red_Star_Grid_1.jpg,Blue_Triangle_Chess_3.jpg,left,497,true,high,false
RDO2nQ4Q,3r6rzgk0yip7nifkjif6ljfzh9ayv2,3s96kq6i9qhrzzey9txfw0d5gz4dtc,RDO2nQ4Q,2020-0188,2020-11-22,00:03:22,00:18:29,NA,incomplete,178,number,1,right,Green_Circle_Dots_2.jpg,Green_Plus_Grid_1.jpg,Purple_Star_Chess_2.jpg,right,586,true,high,false
RDO2nQ4Q,3r6rzgk0yip7nifkjif6ljfzh9ayv2,3s96kq6i9qhrzzey9txfw0d5gz4dtc,RDO2nQ4Q,2020-0188,2020-11-22,00:03:22,00:18:29,NA,incomplete,179,number,1,right,Purple_Star_Dots_4.jpg,Purple_Plus_Grid_2.jpg,Blue_Triangle_Stripes_4.jpg,right,514,true,high,false
RDO2nQ4Q,3r6rzgk0yip7nifkjif6ljfzh9ayv2,3s96kq6i9qhrzzey9txfw0d5gz4dtc,RDO2nQ4Q,2020-0188,2020-11-22,00:03:22,00:18:29,NA,incomplete,180,color,1,right,Green_Triangle_Stripes_3.jpg,Blue_Plus_Chess_3.jpg,Green_Circle_Dots_2.jpg,left,452,false,high,false
RDO2nQ4Q,3r6rzgk0yip7nifkjif6ljfzh9ayv2,3s96kq6i9qhrzzey9txfw0d5gz4dtc,RDO2nQ4Q,2020-0188,2020-11-22,00:03:22,00:18:29,NA,incomplete,181,color,0,right,Purple_Plus_Stripes_2.jpg,Blue_Star_Chess_2.jpg,Purple_Circle_Dots_3.jpg,right,589,true,high,false
RDO2nQ4Q,3r6rzgk0yip7nifkjif6ljfzh9ayv2,3s96kq6i9qhrzzey9txfw0d5gz4dtc,RDO2nQ4Q,2020-0188,2020-11-22,00:03:22,00:18:29,NA,incomplete,182,color,1,right,Red_Circle_Dots_4.jpg,Green_Plus_Grid_4.jpg,Red_Triangle_Chess_2.jpg,left,575,false,high,false
RDO2nQ4Q,3r6rzgk0yip7nifkjif6ljfzh9ayv2,3s96kq6i9qhrzzey9txfw0d5gz4dtc,RDO2nQ4Q,2020-0188,2020-11-22,00:03:22,00:18:29,NA,incomplete,183,color,0,right,Purple_Plus_Stripes_4.jpg,Red_Circle_Chess_4.jpg,Purple_Star_Grid_2.jpg,right,594,true,high,false
RDO2nQ4Q,3r6rzgk0yip7nifkjif6ljfzh9ayv2,3s96kq6i9qhrzzey9txfw0d5gz4dtc,RDO2nQ4Q,2020-0188,2020-11-22,00:03:22,00:18:29,NA,incomplete,184,color,1,left,Green_Circle_Stripes_1.jpg,Green_Star_Chess_3.jpg,Red_Plus_Grid_1.jpg,right,526,false,high,false
RDO2nQ4Q,3r6rzgk0yip7nifkjif6ljfzh9ayv2,3s96kq6i9qhrzzey9txfw0d5gz4dtc,RDO2nQ4Q,2020-0188,2020-11-22,00:03:22,00:18:29,NA,incomplete,185,color,1,left,Green_Circle_Dots_3.jpg,Green_Star_Stripes_2.jpg,Blue_Triangle_Chess_3.jpg,right,619,false,high,false
RDO2nQ4Q,3r6rzgk0yip7nifkjif6ljfzh9ayv2,3s96kq6i9qhrzzey9txfw0d5gz4dtc,RDO2nQ4Q,2020-0188,2020-11-22,00:03:22,00:18:29,NA,incomplete,186,color,1,right,Red_Plus_Chess_1.jpg,Green_Triangle_Stripes_1.jpg,Red_Circle_Dots_3.jpg,right,496,true,high,false
RDO2nQ4Q,3r6rzgk0yip7nifkjif6ljfzh9ayv2,3s96kq6i9qhrzzey9txfw0d5gz4dtc,RDO2nQ4Q,2020-0188,2020-11-22,00:03:22,00:18:29,NA,incomplete,187,color,1,right,Blue_Star_Stripes_4.jpg,Purple_Plus_Chess_4.jpg,Blue_Triangle_Dots_3.jpg,right,489,true,high,false
RDO2nQ4Q,3r6rzgk0yip7nifkjif6ljfzh9ayv2,3s96kq6i9qhrzzey9txfw0d5gz4dtc,RDO2nQ4Q,2020-0188,2020-11-22,00:03:22,00:18:29,NA,incomplete,188,color,1,right,Green_Star_Chess_4.jpg,Blue_Triangle_Grid_4.jpg,Green_Plus_Stripes_3.jpg,right,521,true,high,false
RDO2nQ4Q,3r6rzgk0yip7nifkjif6ljfzh9ayv2,3s96kq6i9qhrzzey9txfw0d5gz4dtc,RDO2nQ4Q,2020-0188,2020-11-22,00:03:22,00:18:29,NA,incomplete,189,color,0,left,Blue_Star_Stripes_2.jpg,Blue_Circle_Chess_1.jpg,Red_Plus_Dots_2.jpg,left,456,true,high,false
RDO2nQ4Q,3r6rzgk0yip7nifkjif6ljfzh9ayv2,3s96kq6i9qhrzzey9txfw0d5gz4dtc,RDO2nQ4Q,2020-0188,2020-11-22,00:03:22,00:18:29,NA,incomplete,190,color,1,right,Red_Circle_Dots_4.jpg,Green_Star_Chess_4.jpg,Red_Triangle_Stripes_2.jpg,right,410,true,high,false
RDO2nQ4Q,3r6rzgk0yip7nifkjif6ljfzh9ayv2,3s96kq6i9qhrzzey9txfw0d5gz4dtc,RDO2nQ4Q,2020-0188,2020-11-22,00:03:22,00:18:29,NA,incomplete,191,color,1,right,Red_Star_Dots_4.jpg,Green_Circle_Stripes_4.jpg,Red_Triangle_Chess_3.jpg,right,627,true,high,false
RDO2nQ4Q,3r6rzgk0yip7nifkjif6ljfzh9ayv2,3s96kq6i9qhrzzey9txfw0d5gz4dtc,RDO2nQ4Q,2020-0188,2020-11-22,00:03:22,00:18:29,NA,incomplete,192,color,0,left,Green_Star_Chess_4.jpg,Green_Plus_Dots_2.jpg,Blue_Triangle_Grid_4.jpg,left,443,true,high,false
RDO2nQ4Q,3r6rzgk0yip7nifkjif6ljfzh9ayv2,3s96kq6i9qhrzzey9txfw0d5gz4dtc,RDO2nQ4Q,2020-0188,2020-11-22,00:03:22,00:18:29,NA,incomplete,193,color,1,left,Green_Plus_Chess_2.jpg,Green_Triangle_Stripes_4.jpg,Purple_Star_Grid_2.jpg,left,435,true,high,false
RDO2nQ4Q,3r6rzgk0yip7nifkjif6ljfzh9ayv2,3s96kq6i9qhrzzey9txfw0d5gz4dtc,RDO2nQ4Q,2020-0188,2020-11-22,00:03:22,00:18:29,NA,incomplete,194,color,1,right,Blue_Circle_Grid_4.jpg,Purple_Star_Chess_4.jpg,Blue_Plus_Dots_1.jpg,right,578,true,high,false
RDO2nQ4Q,3r6rzgk0yip7nifkjif6ljfzh9ayv2,3s96kq6i9qhrzzey9txfw0d5gz4dtc,RDO2nQ4Q,2020-0188,2020-11-22,00:03:22,00:18:29,NA,incomplete,195,color,1,right,Blue_Star_Grid_1.jpg,Purple_Circle_Chess_1.jpg,Blue_Triangle_Stripes_3.jpg,right,485,true,high,false
RDO2nQ4Q,3r6rzgk0yip7nifkjif6ljfzh9ayv2,3s96kq6i9qhrzzey9txfw0d5gz4dtc,RDO2nQ4Q,2020-0188,2020-11-22,00:03:22,00:18:29,NA,incomplete,196,color,0,left,Red_Plus_Dots_1.jpg,Red_Circle_Grid_3.jpg,Green_Triangle_Stripes_1.jpg,left,461,true,high,false
RDO2nQ4Q,3r6rzgk0yip7nifkjif6ljfzh9ayv2,3s96kq6i9qhrzzey9txfw0d5gz4dtc,RDO2nQ4Q,2020-0188,2020-11-22,00:03:22,00:18:29,NA,incomplete,197,color,1,left,Red_Triangle_Chess_3.jpg,Red_Star_Stripes_2.jpg,Blue_Circle_Dots_3.jpg,left,434,true,high,false
RDO2nQ4Q,3r6rzgk0yip7nifkjif6ljfzh9ayv2,3s96kq6i9qhrzzey9txfw0d5gz4dtc,RDO2nQ4Q,2020-0188,2020-11-22,00:03:22,00:18:29,NA,incomplete,198,color,1,left,Purple_Plus_Grid_2.jpg,Purple_Triangle_Chess_4.jpg,Red_Star_Dots_2.jpg,left,500,true,high,false
RDO2nQ4Q,3r6rzgk0yip7nifkjif6ljfzh9ayv2,3s96kq6i9qhrzzey9txfw0d5gz4dtc,RDO2nQ4Q,2020-0188,2020-11-22,00:03:22,00:18:29,NA,incomplete,199,color,0,right,Purple_Triangle_Dots_2.jpg,Red_Star_Grid_2.jpg,Purple_Plus_Stripes_4.jpg,right,469,true,high,false
RDO2nQ4Q,3r6rzgk0yip7nifkjif6ljfzh9ayv2,3s96kq6i9qhrzzey9txfw0d5gz4dtc,RDO2nQ4Q,2020-0188,2020-11-22,00:03:22,00:18:29,NA,incomplete,200,number,1,right,Red_Triangle_Stripes_3.jpg,Red_Circle_Dots_1.jpg,Blue_Star_Grid_3.jpg,left,468,false,high,false
RDO2nQ4Q,3r6rzgk0yip7nifkjif6ljfzh9ayv2,3s96kq6i9qhrzzey9txfw0d5gz4dtc,RDO2nQ4Q,2020-0188,2020-11-22,00:03:22,00:18:29,NA,incomplete,201,number,1,left,Green_Star_Stripes_1.jpg,Purple_Plus_Chess_1.jpg,Green_Circle_Dots_2.jpg,left,643,true,high,false
RDO2nQ4Q,3r6rzgk0yip7nifkjif6ljfzh9ayv2,3s96kq6i9qhrzzey9txfw0d5gz4dtc,RDO2nQ4Q,2020-0188,2020-11-22,00:03:22,00:18:29,NA,incomplete,202,number,0,left,Green_Circle_Chess_3.jpg,Purple_Star_Grid_3.jpg,Green_Triangle_Stripes_4.jpg,left,564,true,high,false
RDO2nQ4Q,3r6rzgk0yip7nifkjif6ljfzh9ayv2,3s96kq6i9qhrzzey9txfw0d5gz4dtc,RDO2nQ4Q,2020-0188,2020-11-22,00:03:22,00:18:29,NA,incomplete,203,number,1,right,Purple_Plus_Grid_3.jpg,Purple_Circle_Dots_4.jpg,Blue_Triangle_Chess_3.jpg,right,607,true,high,false
RDO2nQ4Q,3r6rzgk0yip7nifkjif6ljfzh9ayv2,3s96kq6i9qhrzzey9txfw0d5gz4dtc,RDO2nQ4Q,2020-0188,2020-11-22,00:03:22,00:18:29,NA,incomplete,204,number,1,left,Purple_Circle_Stripes_2.jpg,Red_Plus_Chess_2.jpg,Purple_Star_Grid_4.jpg,left,576,true,high,false
RDO2nQ4Q,3r6rzgk0yip7nifkjif6ljfzh9ayv2,3s96kq6i9qhrzzey9txfw0d5gz4dtc,RDO2nQ4Q,2020-0188,2020-11-22,00:03:22,00:18:29,NA,incomplete,205,number,0,right,Red_Star_Grid_4.jpg,Red_Circle_Chess_3.jpg,Blue_Plus_Dots_4.jpg,right,587,true,high,false
RDO2nQ4Q,3r6rzgk0yip7nifkjif6ljfzh9ayv2,3s96kq6i9qhrzzey9txfw0d5gz4dtc,RDO2nQ4Q,2020-0188,2020-11-22,00:03:22,00:18:29,NA,incomplete,206,number,1,right,Green_Circle_Grid_1.jpg,Green_Plus_Chess_3.jpg,Red_Triangle_Dots_1.jpg,right,585,true,high,false
RDO2nQ4Q,3r6rzgk0yip7nifkjif6ljfzh9ayv2,3s96kq6i9qhrzzey9txfw0d5gz4dtc,RDO2nQ4Q,2020-0188,2020-11-22,00:03:22,00:18:29,NA,incomplete,207,number,1,right,Blue_Circle_Grid_2.jpg,Blue_Triangle_Chess_3.jpg,Purple_Star_Dots_2.jpg,right,674,true,high,false
RDO2nQ4Q,3r6rzgk0yip7nifkjif6ljfzh9ayv2,3s96kq6i9qhrzzey9txfw0d5gz4dtc,RDO2nQ4Q,2020-0188,2020-11-22,00:03:22,00:18:29,NA,incomplete,208,number,1,left,Red_Circle_Chess_4.jpg,Blue_Triangle_Dots_4.jpg,Red_Star_Stripes_2.jpg,left,544,true,high,false
RDO2nQ4Q,3r6rzgk0yip7nifkjif6ljfzh9ayv2,3s96kq6i9qhrzzey9txfw0d5gz4dtc,RDO2nQ4Q,2020-0188,2020-11-22,00:03:22,00:18:29,NA,incomplete,209,number,1,left,Red_Triangle_Stripes_2.jpg,Purple_Plus_Chess_2.jpg,Red_Circle_Grid_4.jpg,left,508,true,high,false
RDO2nQ4Q,3r6rzgk0yip7nifkjif6ljfzh9ayv2,3s96kq6i9qhrzzey9txfw0d5gz4dtc,RDO2nQ4Q,2020-0188,2020-11-22,00:03:22,00:18:29,NA,incomplete,210,number,1,left,Red_Circle_Chess_4.jpg,Purple_Star_Grid_4.jpg,Red_Triangle_Dots_3.jpg,left,463,true,high,false
RDO2nQ4Q,3r6rzgk0yip7nifkjif6ljfzh9ayv2,3s96kq6i9qhrzzey9txfw0d5gz4dtc,RDO2nQ4Q,2020-0188,2020-11-22,00:03:22,00:18:29,NA,incomplete,211,number,1,right,Blue_Circle_Stripes_3.jpg,Blue_Triangle_Grid_2.jpg,Green_Plus_Chess_3.jpg,right,560,true,high,false
RDO2nQ4Q,3r6rzgk0yip7nifkjif6ljfzh9ayv2,3s96kq6i9qhrzzey9txfw0d5gz4dtc,RDO2nQ4Q,2020-0188,2020-11-22,00:03:22,00:18:29,NA,incomplete,212,number,1,left,Green_Circle_Chess_1.jpg,Red_Triangle_Dots_1.jpg,Green_Star_Stripes_2.jpg,left,779,true,high,false
RDO2nQ4Q,3r6rzgk0yip7nifkjif6ljfzh9ayv2,3s96kq6i9qhrzzey9txfw0d5gz4dtc,RDO2nQ4Q,2020-0188,2020-11-22,00:03:22,00:18:29,NA,incomplete,213,number,1,right,Green_Circle_Chess_4.jpg,Green_Plus_Dots_1.jpg,Red_Star_Stripes_4.jpg,right,556,true,high,false
RDO2nQ4Q,3r6rzgk0yip7nifkjif6ljfzh9ayv2,3s96kq6i9qhrzzey9txfw0d5gz4dtc,RDO2nQ4Q,2020-0188,2020-11-22,00:03:22,00:18:29,NA,incomplete,214,number,0,right,Red_Star_Chess_1.jpg,Red_Triangle_Dots_3.jpg,Green_Plus_Stripes_1.jpg,right,514,true,high,false
RDO2nQ4Q,3r6rzgk0yip7nifkjif6ljfzh9ayv2,3s96kq6i9qhrzzey9txfw0d5gz4dtc,RDO2nQ4Q,2020-0188,2020-11-22,00:03:22,00:18:29,NA,incomplete,215,number,1,left,Red_Circle_Chess_1.jpg,Purple_Plus_Dots_1.jpg,Red_Star_Stripes_2.jpg,left,564,true,high,false
RDO2nQ4Q,3r6rzgk0yip7nifkjif6ljfzh9ayv2,3s96kq6i9qhrzzey9txfw0d5gz4dtc,RDO2nQ4Q,2020-0188,2020-11-22,00:03:22,00:18:29,NA,incomplete,216,number,1,left,Purple_Plus_Dots_4.jpg,Green_Triangle_Stripes_4.jpg,Purple_Circle_Chess_2.jpg,left,529,true,high,false
RDO2nQ4Q,3r6rzgk0yip7nifkjif6ljfzh9ayv2,3s96kq6i9qhrzzey9txfw0d5gz4dtc,RDO2nQ4Q,2020-0188,2020-11-22,00:03:22,00:18:29,NA,incomplete,217,number,1,right,Green_Circle_Chess_2.jpg,Green_Plus_Dots_3.jpg,Purple_Star_Grid_2.jpg,right,521,true,high,false
RDO2nQ4Q,3r6rzgk0yip7nifkjif6ljfzh9ayv2,3s96kq6i9qhrzzey9txfw0d5gz4dtc,RDO2nQ4Q,2020-0188,2020-11-22,00:03:22,00:18:29,NA,incomplete,218,number,1,right,Blue_Triangle_Dots_2.jpg,Blue_Circle_Stripes_1.jpg,Red_Star_Grid_2.jpg,right,606,true,high,false
RDO2nQ4Q,3r6rzgk0yip7nifkjif6ljfzh9ayv2,3s96kq6i9qhrzzey9txfw0d5gz4dtc,RDO2nQ4Q,2020-0188,2020-11-22,00:03:22,00:18:29,NA,incomplete,219,number,1,right,Green_Circle_Dots_2.jpg,Green_Plus_Chess_3.jpg,Red_Star_Stripes_2.jpg,right,531,true,high,false
RDO2nQ4Q,3r6rzgk0yip7nifkjif6ljfzh9ayv2,3s96kq6i9qhrzzey9txfw0d5gz4dtc,RDO2nQ4Q,2020-0188,2020-11-22,00:03:22,00:18:29,NA,incomplete,220,color,1,right,Blue_Plus_Grid_4.jpg,Purple_Triangle_Dots_4.jpg,Blue_Circle_Stripes_1.jpg,left,445,false,high,false
RDO2nQ4Q,3r6rzgk0yip7nifkjif6ljfzh9ayv2,3s96kq6i9qhrzzey9txfw0d5gz4dtc,RDO2nQ4Q,2020-0188,2020-11-22,00:03:22,00:18:29,NA,incomplete,221,color,1,left,Green_Plus_Dots_3.jpg,Green_Star_Grid_1.jpg,Purple_Triangle_Stripes_3.jpg,right,578,false,high,false
RDO2nQ4Q,3r6rzgk0yip7nifkjif6ljfzh9ayv2,3s96kq6i9qhrzzey9txfw0d5gz4dtc,RDO2nQ4Q,2020-0188,2020-11-22,00:03:22,00:18:29,NA,incomplete,222,color,0,right,Red_Star_Stripes_2.jpg,Purple_Plus_Dots_2.jpg,Red_Circle_Grid_1.jpg,right,520,true,high,false
RDO2nQ4Q,3r6rzgk0yip7nifkjif6ljfzh9ayv2,3s96kq6i9qhrzzey9txfw0d5gz4dtc,RDO2nQ4Q,2020-0188,2020-11-22,00:03:22,00:18:29,NA,incomplete,223,color,1,right,Green_Circle_Grid_1.jpg,Blue_Star_Dots_1.jpg,Green_Triangle_Chess_4.jpg,right,757,true,high,false
RDO2nQ4Q,3r6rzgk0yip7nifkjif6ljfzh9ayv2,3s96kq6i9qhrzzey9txfw0d5gz4dtc,RDO2nQ4Q,2020-0188,2020-11-22,00:03:22,00:18:29,NA,incomplete,224,color,1,left,Green_Circle_Dots_3.jpg,Green_Star_Grid_2.jpg,Blue_Plus_Stripes_3.jpg,left,609,true,high,false
RDO2nQ4Q,3r6rzgk0yip7nifkjif6ljfzh9ayv2,3s96kq6i9qhrzzey9txfw0d5gz4dtc,RDO2nQ4Q,2020-0188,2020-11-22,00:03:22,00:18:29,NA,incomplete,225,color,1,right,Red_Triangle_Grid_3.jpg,Green_Plus_Chess_3.jpg,Red_Star_Stripes_2.jpg,right,653,true,high,false
RDO2nQ4Q,3r6rzgk0yip7nifkjif6ljfzh9ayv2,3s96kq6i9qhrzzey9txfw0d5gz4dtc,RDO2nQ4Q,2020-0188,2020-11-22,00:03:22,00:18:29,NA,incomplete,226,color,1,left,Purple_Circle_Dots_4.jpg,Purple_Triangle_Chess_3.jpg,Red_Star_Grid_4.jpg,left,668,true,high,false
RDO2nQ4Q,3r6rzgk0yip7nifkjif6ljfzh9ayv2,3s96kq6i9qhrzzey9txfw0d5gz4dtc,RDO2nQ4Q,2020-0188,2020-11-22,00:03:22,00:18:29,NA,incomplete,227,color,1,left,Blue_Star_Stripes_2.jpg,Blue_Triangle_Grid_1.jpg,Green_Circle_Chess_2.jpg,left,507,true,high,false
RDO2nQ4Q,3r6rzgk0yip7nifkjif6ljfzh9ayv2,3s96kq6i9qhrzzey9txfw0d5gz4dtc,RDO2nQ4Q,2020-0188,2020-11-22,00:03:22,00:18:29,NA,incomplete,228,color,0,right,Blue_Triangle_Chess_2.jpg,Red_Star_Stripes_2.jpg,Blue_Circle_Grid_3.jpg,right,466,true,high,false
RDO2nQ4Q,3r6rzgk0yip7nifkjif6ljfzh9ayv2,3s96kq6i9qhrzzey9txfw0d5gz4dtc,RDO2nQ4Q,2020-0188,2020-11-22,00:03:22,00:18:29,NA,incomplete,229,color,1,right,Purple_Circle_Dots_4.jpg,Red_Plus_Grid_4.jpg,Purple_Star_Stripes_1.jpg,right,507,true,high,false
RDO2nQ4Q,3r6rzgk0yip7nifkjif6ljfzh9ayv2,3s96kq6i9qhrzzey9txfw0d5gz4dtc,RDO2nQ4Q,2020-0188,2020-11-22,00:03:22,00:18:29,NA,incomplete,230,color,1,right,Red_Triangle_Grid_4.jpg,Blue_Circle_Chess_4.jpg,Red_Plus_Stripes_3.jpg,right,469,true,high,false
RDO2nQ4Q,3r6rzgk0yip7nifkjif6ljfzh9ayv2,3s96kq6i9qhrzzey9txfw0d5gz4dtc,RDO2nQ4Q,2020-0188,2020-11-22,00:03:22,00:18:29,NA,incomplete,231,color,1,left,Blue_Plus_Chess_1.jpg,Blue_Circle_Grid_4.jpg,Purple_Triangle_Dots_1.jpg,left,394,true,high,false
RDO2nQ4Q,3r6rzgk0yip7nifkjif6ljfzh9ayv2,3s96kq6i9qhrzzey9txfw0d5gz4dtc,RDO2nQ4Q,2020-0188,2020-11-22,00:03:22,00:18:29,NA,incomplete,232,color,1,right,Green_Triangle_Dots_2.jpg,Red_Star_Stripes_2.jpg,Green_Plus_Chess_4.jpg,right,391,true,high,false
RDO2nQ4Q,3r6rzgk0yip7nifkjif6ljfzh9ayv2,3s96kq6i9qhrzzey9txfw0d5gz4dtc,RDO2nQ4Q,2020-0188,2020-11-22,00:03:22,00:18:29,NA,incomplete,233,color,0,left,Blue_Star_Grid_3.jpg,Blue_Triangle_Dots_4.jpg,Purple_Circle_Chess_3.jpg,left,458,true,high,false
RDO2nQ4Q,3r6rzgk0yip7nifkjif6ljfzh9ayv2,3s96kq6i9qhrzzey9txfw0d5gz4dtc,RDO2nQ4Q,2020-0188,2020-11-22,00:03:22,00:18:29,NA,incomplete,234,color,1,right,Purple_Plus_Chess_2.jpg,Green_Circle_Grid_2.jpg,Purple_Star_Stripes_3.jpg,right,427,true,high,false
RDO2nQ4Q,3r6rzgk0yip7nifkjif6ljfzh9ayv2,3s96kq6i9qhrzzey9txfw0d5gz4dtc,RDO2nQ4Q,2020-0188,2020-11-22,00:03:22,00:18:29,NA,incomplete,235,color,0,left,Purple_Plus_Grid_4.jpg,Purple_Star_Stripes_3.jpg,Green_Triangle_Dots_4.jpg,left,420,true,high,false
RDO2nQ4Q,3r6rzgk0yip7nifkjif6ljfzh9ayv2,3s96kq6i9qhrzzey9txfw0d5gz4dtc,RDO2nQ4Q,2020-0188,2020-11-22,00:03:22,00:18:29,NA,incomplete,236,color,1,right,Green_Star_Grid_4.jpg,Red_Plus_Dots_4.jpg,Green_Triangle_Stripes_2.jpg,right,467,true,high,false
RDO2nQ4Q,3r6rzgk0yip7nifkjif6ljfzh9ayv2,3s96kq6i9qhrzzey9txfw0d5gz4dtc,RDO2nQ4Q,2020-0188,2020-11-22,00:03:22,00:18:29,NA,incomplete,237,color,1,left,Purple_Circle_Grid_1.jpg,Purple_Triangle_Dots_3.jpg,Red_Star_Chess_1.jpg,left,467,true,high,false
RDO2nQ4Q,3r6rzgk0yip7nifkjif6ljfzh9ayv2,3s96kq6i9qhrzzey9txfw0d5gz4dtc,RDO2nQ4Q,2020-0188,2020-11-22,00:03:22,00:18:29,NA,incomplete,238,color,0,left,Blue_Circle_Stripes_4.jpg,Blue_Triangle_Dots_2.jpg,Purple_Plus_Chess_4.jpg,left,404,true,high,false
RDO2nQ4Q,3r6rzgk0yip7nifkjif6ljfzh9ayv2,3s96kq6i9qhrzzey9txfw0d5gz4dtc,RDO2nQ4Q,2020-0188,2020-11-22,00:03:22,00:18:29,NA,incomplete,239,color,1,right,Purple_Triangle_Chess_4.jpg,Green_Circle_Dots_4.jpg,Purple_Plus_Grid_1.jpg,right,480,true,high,false
RDO2nQ4Q,3r6rzgk0yip7nifkjif6ljfzh9ayv2,3s96kq6i9qhrzzey9txfw0d5gz4dtc,RDO2nQ4Q,2020-0188,2020-11-22,00:03:22,00:18:29,743013,906916,NA,NA,NA,NA,NA,NA,NA,NA,NA,NA,NA,undefined
