workerId,hitId,assignmentId,subject,studyid,exp_date,exp_start,exp_end,time_start,time_end,trial,type,reward_validity,answer,image_top,image_left,image_right,response,response_time,response_acc,volatility,practice
9JQufhYi,3ktcj4scwjer7pa8t176k0lcjvpm1b,3strjbfxo04zd5k81aj20d8v047ktu,9JQufhYi,2020-0188,2020-11-21,12:53:49,13:11:19,NA,incomplete,0,color,1,left,Red_Triangle_Dots_2.jpg,Red_Star_Stripes_4.jpg,Purple_Circle_Grid_2.jpg,left,1463.469999958761,true,NA,true
9JQufhYi,3ktcj4scwjer7pa8t176k0lcjvpm1b,3strjbfxo04zd5k81aj20d8v047ktu,9JQufhYi,2020-0188,2020-11-21,12:53:49,13:11:19,NA,incomplete,1,color,1,right,Blue_Circle_Grid_1.jpg,Red_Star_Dots_1.jpg,Blue_Plus_Chess_4.jpg,right,895.8550000097603,true,NA,true
9JQufhYi,3ktcj4scwjer7pa8t176k0lcjvpm1b,3strjbfxo04zd5k81aj20d8v047ktu,9JQufhYi,2020-0188,2020-11-21,12:53:49,13:11:19,NA,incomplete,2,color,0,left,Purple_Star_Grid_3.jpg,Purple_Triangle_Chess_4.jpg,Blue_Plus_Stripes_3.jpg,left,680.2349999779835,true,NA,true
9JQufhYi,3ktcj4scwjer7pa8t176k0lcjvpm1b,3strjbfxo04zd5k81aj20d8v047ktu,9JQufhYi,2020-0188,2020-11-21,12:53:49,13:11:19,NA,incomplete,3,color,1,left,Red_Triangle_Stripes_3.jpg,Red_Circle_Chess_4.jpg,Blue_Plus_Dots_3.jpg,left,749.9250000109896,true,NA,true
9JQufhYi,3ktcj4scwjer7pa8t176k0lcjvpm1b,3strjbfxo04zd5k81aj20d8v047ktu,9JQufhYi,2020-0188,2020-11-21,12:53:49,13:11:19,NA,incomplete,4,color,0,right,Blue_Plus_Dots_1.jpg,Red_Circle_Grid_1.jpg,Blue_Triangle_Stripes_2.jpg,right,557.5899999821559,true,NA,true
9JQufhYi,3ktcj4scwjer7pa8t176k0lcjvpm1b,3strjbfxo04zd5k81aj20d8v047ktu,9JQufhYi,2020-0188,2020-11-21,12:53:49,13:11:19,NA,incomplete,5,color,1,left,Green_Triangle_Grid_3.jpg,Green_Star_Chess_2.jpg,Red_Circle_Dots_3.jpg,left,503.0649999389425,true,NA,true
9JQufhYi,3ktcj4scwjer7pa8t176k0lcjvpm1b,3strjbfxo04zd5k81aj20d8v047ktu,9JQufhYi,2020-0188,2020-11-21,12:53:49,13:11:19,NA,incomplete,6,color,1,right,Blue_Circle_Stripes_2.jpg,Purple_Star_Chess_2.jpg,Blue_Plus_Dots_4.jpg,right,722.5499999476597,true,NA,true
9JQufhYi,3ktcj4scwjer7pa8t176k0lcjvpm1b,3strjbfxo04zd5k81aj20d8v047ktu,9JQufhYi,2020-0188,2020-11-21,12:53:49,13:11:19,NA,incomplete,7,color,1,right,Blue_Star_Chess_2.jpg,Green_Triangle_Dots_2.jpg,Blue_Circle_Stripes_3.jpg,right,594.0849999897182,true,NA,true
9JQufhYi,3ktcj4scwjer7pa8t176k0lcjvpm1b,3strjbfxo04zd5k81aj20d8v047ktu,9JQufhYi,2020-0188,2020-11-21,12:53:49,13:11:19,NA,incomplete,8,color,1,right,Green_Circle_Dots_2.jpg,Red_Plus_Chess_2.jpg,Green_Star_Grid_3.jpg,right,584.7950000315905,true,NA,true
9JQufhYi,3ktcj4scwjer7pa8t176k0lcjvpm1b,3strjbfxo04zd5k81aj20d8v047ktu,9JQufhYi,2020-0188,2020-11-21,12:53:49,13:11:19,NA,incomplete,9,color,0,right,Purple_Triangle_Stripes_3.jpg,Blue_Circle_Chess_3.jpg,Purple_Plus_Grid_4.jpg,right,605.1250000018626,true,NA,true
9JQufhYi,3ktcj4scwjer7pa8t176k0lcjvpm1b,3strjbfxo04zd5k81aj20d8v047ktu,9JQufhYi,2020-0188,2020-11-21,12:53:49,13:11:19,NA,incomplete,10,color,1,left,Purple_Triangle_Grid_2.jpg,Purple_Circle_Stripes_1.jpg,Red_Plus_Dots_2.jpg,left,756.3450000016019,true,NA,true
9JQufhYi,3ktcj4scwjer7pa8t176k0lcjvpm1b,3strjbfxo04zd5k81aj20d8v047ktu,9JQufhYi,2020-0188,2020-11-21,12:53:49,13:11:19,NA,incomplete,11,color,0,right,Blue_Plus_Grid_2.jpg,Green_Triangle_Stripes_2.jpg,Blue_Star_Dots_1.jpg,right,619.2700000246987,true,NA,true
9JQufhYi,3ktcj4scwjer7pa8t176k0lcjvpm1b,3strjbfxo04zd5k81aj20d8v047ktu,9JQufhYi,2020-0188,2020-11-21,12:53:49,13:11:19,NA,incomplete,12,color,1,right,Blue_Circle_Stripes_4.jpg,Green_Triangle_Grid_4.jpg,Blue_Star_Chess_3.jpg,right,618.8149999361485,true,NA,true
9JQufhYi,3ktcj4scwjer7pa8t176k0lcjvpm1b,3strjbfxo04zd5k81aj20d8v047ktu,9JQufhYi,2020-0188,2020-11-21,12:53:49,13:11:19,NA,incomplete,13,color,1,left,Red_Star_Chess_2.jpg,Red_Triangle_Grid_3.jpg,Purple_Circle_Dots_2.jpg,left,653.0400000046939,true,NA,true
9JQufhYi,3ktcj4scwjer7pa8t176k0lcjvpm1b,3strjbfxo04zd5k81aj20d8v047ktu,9JQufhYi,2020-0188,2020-11-21,12:53:49,13:11:19,NA,incomplete,14,color,1,right,Purple_Circle_Grid_1.jpg,Green_Plus_Dots_1.jpg,Purple_Triangle_Chess_3.jpg,right,517.7999999141321,true,NA,true
9JQufhYi,3ktcj4scwjer7pa8t176k0lcjvpm1b,3strjbfxo04zd5k81aj20d8v047ktu,9JQufhYi,2020-0188,2020-11-21,12:53:49,13:11:19,NA,incomplete,15,color,1,right,Blue_Circle_Grid_3.jpg,Red_Triangle_Stripes_3.jpg,Blue_Plus_Dots_1.jpg,right,681.9050000049174,true,NA,true
9JQufhYi,3ktcj4scwjer7pa8t176k0lcjvpm1b,3strjbfxo04zd5k81aj20d8v047ktu,9JQufhYi,2020-0188,2020-11-21,12:53:49,13:11:19,NA,incomplete,16,color,1,right,Red_Plus_Dots_4.jpg,Purple_Star_Stripes_4.jpg,Red_Triangle_Chess_3.jpg,right,593.9149999758229,true,NA,true
9JQufhYi,3ktcj4scwjer7pa8t176k0lcjvpm1b,3strjbfxo04zd5k81aj20d8v047ktu,9JQufhYi,2020-0188,2020-11-21,12:53:49,13:11:19,NA,incomplete,17,color,1,left,Purple_Star_Chess_1.jpg,Purple_Triangle_Grid_3.jpg,Red_Circle_Stripes_1.jpg,left,655.629999935627,true,NA,true
9JQufhYi,3ktcj4scwjer7pa8t176k0lcjvpm1b,3strjbfxo04zd5k81aj20d8v047ktu,9JQufhYi,2020-0188,2020-11-21,12:53:49,13:11:19,NA,incomplete,18,color,1,left,Red_Triangle_Stripes_2.jpg,Red_Plus_Chess_1.jpg,Green_Circle_Grid_2.jpg,left,599.3049999233335,true,NA,true
9JQufhYi,3ktcj4scwjer7pa8t176k0lcjvpm1b,3strjbfxo04zd5k81aj20d8v047ktu,9JQufhYi,2020-0188,2020-11-21,12:53:49,13:11:19,NA,incomplete,19,color,1,left,Red_Triangle_Dots_1.jpg,Red_Plus_Stripes_3.jpg,Blue_Circle_Chess_1.jpg,left,480.09000008460134,true,NA,true
9JQufhYi,3ktcj4scwjer7pa8t176k0lcjvpm1b,3strjbfxo04zd5k81aj20d8v047ktu,9JQufhYi,2020-0188,2020-11-21,12:53:49,13:11:19,NA,incomplete,20,number,0,right,Green_Star_Grid_2.jpg,Green_Triangle_Dots_1.jpg,Purple_Circle_Stripes_2.jpg,left,540.4250000137836,false,NA,true
9JQufhYi,3ktcj4scwjer7pa8t176k0lcjvpm1b,3strjbfxo04zd5k81aj20d8v047ktu,9JQufhYi,2020-0188,2020-11-21,12:53:49,13:11:19,NA,incomplete,21,number,1,right,Blue_Triangle_Chess_2.jpg,Blue_Star_Stripes_3.jpg,Red_Circle_Grid_2.jpg,right,1263.9999999664724,true,NA,true
9JQufhYi,3ktcj4scwjer7pa8t176k0lcjvpm1b,3strjbfxo04zd5k81aj20d8v047ktu,9JQufhYi,2020-0188,2020-11-21,12:53:49,13:11:19,NA,incomplete,22,number,1,right,Purple_Circle_Grid_1.jpg,Purple_Plus_Dots_4.jpg,Blue_Triangle_Stripes_1.jpg,right,1002.015000092797,true,NA,true
9JQufhYi,3ktcj4scwjer7pa8t176k0lcjvpm1b,3strjbfxo04zd5k81aj20d8v047ktu,9JQufhYi,2020-0188,2020-11-21,12:53:49,13:11:19,NA,incomplete,23,number,1,right,Purple_Star_Stripes_4.jpg,Purple_Plus_Grid_2.jpg,Blue_Circle_Chess_4.jpg,left,1103.0299999983981,false,NA,true
9JQufhYi,3ktcj4scwjer7pa8t176k0lcjvpm1b,3strjbfxo04zd5k81aj20d8v047ktu,9JQufhYi,2020-0188,2020-11-21,12:53:49,13:11:19,NA,incomplete,24,number,1,left,Blue_Triangle_Stripes_3.jpg,Red_Circle_Dots_3.jpg,Blue_Star_Grid_2.jpg,left,946.8549999874085,true,NA,true
9JQufhYi,3ktcj4scwjer7pa8t176k0lcjvpm1b,3strjbfxo04zd5k81aj20d8v047ktu,9JQufhYi,2020-0188,2020-11-21,12:53:49,13:11:19,NA,incomplete,25,number,0,left,Red_Circle_Grid_4.jpg,Green_Triangle_Dots_4.jpg,Red_Plus_Stripes_1.jpg,left,1292.26999997627,true,NA,true
9JQufhYi,3ktcj4scwjer7pa8t176k0lcjvpm1b,3strjbfxo04zd5k81aj20d8v047ktu,9JQufhYi,2020-0188,2020-11-21,12:53:49,13:11:19,NA,incomplete,26,number,1,left,Purple_Circle_Stripes_1.jpg,Blue_Plus_Dots_1.jpg,Purple_Star_Grid_4.jpg,left,861.6149999434128,true,NA,true
9JQufhYi,3ktcj4scwjer7pa8t176k0lcjvpm1b,3strjbfxo04zd5k81aj20d8v047ktu,9JQufhYi,2020-0188,2020-11-21,12:53:49,13:11:19,NA,incomplete,27,number,1,left,Red_Plus_Dots_2.jpg,Purple_Star_Grid_2.jpg,Red_Triangle_Chess_4.jpg,left,791.4599999785423,true,NA,true
9JQufhYi,3ktcj4scwjer7pa8t176k0lcjvpm1b,3strjbfxo04zd5k81aj20d8v047ktu,9JQufhYi,2020-0188,2020-11-21,12:53:49,13:11:19,NA,incomplete,28,number,0,left,Blue_Plus_Stripes_2.jpg,Red_Triangle_Grid_2.jpg,Blue_Star_Chess_1.jpg,left,725.6749999942258,true,NA,true
9JQufhYi,3ktcj4scwjer7pa8t176k0lcjvpm1b,3strjbfxo04zd5k81aj20d8v047ktu,9JQufhYi,2020-0188,2020-11-21,12:53:49,13:11:19,NA,incomplete,29,number,1,left,Green_Plus_Grid_1.jpg,Blue_Circle_Chess_1.jpg,Green_Triangle_Dots_3.jpg,left,855.6300000054762,true,NA,true
9JQufhYi,3ktcj4scwjer7pa8t176k0lcjvpm1b,3strjbfxo04zd5k81aj20d8v047ktu,9JQufhYi,2020-0188,2020-11-21,12:53:49,13:11:19,NA,incomplete,30,number,1,left,Purple_Plus_Grid_1.jpg,Blue_Circle_Dots_1.jpg,Purple_Star_Stripes_2.jpg,left,777.7500000083819,true,NA,true
9JQufhYi,3ktcj4scwjer7pa8t176k0lcjvpm1b,3strjbfxo04zd5k81aj20d8v047ktu,9JQufhYi,2020-0188,2020-11-21,12:53:49,13:11:19,NA,incomplete,31,number,1,left,Purple_Plus_Dots_3.jpg,Red_Circle_Grid_3.jpg,Purple_Star_Chess_1.jpg,left,803.5450000315905,true,NA,true
9JQufhYi,3ktcj4scwjer7pa8t176k0lcjvpm1b,3strjbfxo04zd5k81aj20d8v047ktu,9JQufhYi,2020-0188,2020-11-21,12:53:49,13:11:19,NA,incomplete,32,number,0,left,Green_Triangle_Dots_2.jpg,Purple_Plus_Stripes_2.jpg,Green_Circle_Chess_4.jpg,left,718.7299999641255,true,NA,true
9JQufhYi,3ktcj4scwjer7pa8t176k0lcjvpm1b,3strjbfxo04zd5k81aj20d8v047ktu,9JQufhYi,2020-0188,2020-11-21,12:53:49,13:11:19,NA,incomplete,33,number,1,right,Red_Star_Dots_4.jpg,Red_Triangle_Chess_3.jpg,Green_Plus_Grid_4.jpg,right,1219.4100000197068,true,NA,true
9JQufhYi,3ktcj4scwjer7pa8t176k0lcjvpm1b,3strjbfxo04zd5k81aj20d8v047ktu,9JQufhYi,2020-0188,2020-11-21,12:53:49,13:11:19,NA,incomplete,34,number,1,left,Purple_Star_Grid_4.jpg,Blue_Triangle_Dots_4.jpg,Purple_Plus_Stripes_2.jpg,left,832.1199999190867,true,NA,true
9JQufhYi,3ktcj4scwjer7pa8t176k0lcjvpm1b,3strjbfxo04zd5k81aj20d8v047ktu,9JQufhYi,2020-0188,2020-11-21,12:53:49,13:11:19,NA,incomplete,35,number,1,left,Blue_Triangle_Chess_1.jpg,Purple_Circle_Stripes_1.jpg,Blue_Star_Dots_2.jpg,left,703.4500000299886,true,NA,true
9JQufhYi,3ktcj4scwjer7pa8t176k0lcjvpm1b,3strjbfxo04zd5k81aj20d8v047ktu,9JQufhYi,2020-0188,2020-11-21,12:53:49,13:11:19,NA,incomplete,36,number,1,left,Green_Triangle_Grid_3.jpg,Blue_Circle_Stripes_3.jpg,Green_Plus_Chess_2.jpg,left,788.8200000161305,true,NA,true
9JQufhYi,3ktcj4scwjer7pa8t176k0lcjvpm1b,3strjbfxo04zd5k81aj20d8v047ktu,9JQufhYi,2020-0188,2020-11-21,12:53:49,13:11:19,NA,incomplete,37,number,1,right,Blue_Circle_Stripes_2.jpg,Blue_Triangle_Grid_4.jpg,Red_Star_Chess_2.jpg,right,830.2050000056624,true,NA,true
9JQufhYi,3ktcj4scwjer7pa8t176k0lcjvpm1b,3strjbfxo04zd5k81aj20d8v047ktu,9JQufhYi,2020-0188,2020-11-21,12:53:49,13:11:19,NA,incomplete,38,number,1,right,Blue_Star_Stripes_3.jpg,Blue_Circle_Chess_1.jpg,Purple_Plus_Grid_3.jpg,right,717.7450000308454,true,NA,true
9JQufhYi,3ktcj4scwjer7pa8t176k0lcjvpm1b,3strjbfxo04zd5k81aj20d8v047ktu,9JQufhYi,2020-0188,2020-11-21,12:53:49,13:11:19,NA,incomplete,39,number,1,left,Blue_Plus_Dots_3.jpg,Red_Triangle_Chess_3.jpg,Blue_Circle_Grid_1.jpg,left,771.7699999921024,true,NA,true
9JQufhYi,3ktcj4scwjer7pa8t176k0lcjvpm1b,3strjbfxo04zd5k81aj20d8v047ktu,9JQufhYi,2020-0188,2020-11-21,12:53:49,13:11:19,NA,incomplete,0,color,1,left,Green_Star_Dots_4.jpg,Green_Triangle_Stripes_1.jpg,Blue_Plus_Grid_4.jpg,right,1414.214999997057,false,high,false
9JQufhYi,3ktcj4scwjer7pa8t176k0lcjvpm1b,3strjbfxo04zd5k81aj20d8v047ktu,9JQufhYi,2020-0188,2020-11-21,12:53:49,13:11:19,NA,incomplete,1,color,1,right,Green_Plus_Dots_2.jpg,Purple_Triangle_Grid_2.jpg,Green_Star_Stripes_4.jpg,right,1062.305000028573,true,high,false
9JQufhYi,3ktcj4scwjer7pa8t176k0lcjvpm1b,3strjbfxo04zd5k81aj20d8v047ktu,9JQufhYi,2020-0188,2020-11-21,12:53:49,13:11:19,NA,incomplete,2,color,1,left,Green_Triangle_Chess_3.jpg,Green_Star_Stripes_4.jpg,Purple_Circle_Grid_3.jpg,left,725.2800000132993,true,high,false
9JQufhYi,3ktcj4scwjer7pa8t176k0lcjvpm1b,3strjbfxo04zd5k81aj20d8v047ktu,9JQufhYi,2020-0188,2020-11-21,12:53:49,13:11:19,NA,incomplete,3,color,1,right,Purple_Triangle_Grid_1.jpg,Green_Circle_Stripes_1.jpg,Purple_Star_Dots_3.jpg,right,1372.679999913089,true,high,false
9JQufhYi,3ktcj4scwjer7pa8t176k0lcjvpm1b,3strjbfxo04zd5k81aj20d8v047ktu,9JQufhYi,2020-0188,2020-11-21,12:53:49,13:11:19,NA,incomplete,4,color,1,right,Blue_Triangle_Chess_1.jpg,Green_Star_Stripes_1.jpg,Blue_Plus_Dots_3.jpg,right,962.180000031367,true,high,false
9JQufhYi,3ktcj4scwjer7pa8t176k0lcjvpm1b,3strjbfxo04zd5k81aj20d8v047ktu,9JQufhYi,2020-0188,2020-11-21,12:53:49,13:11:19,NA,incomplete,5,color,0,right,Blue_Circle_Chess_3.jpg,Red_Plus_Grid_3.jpg,Blue_Star_Dots_4.jpg,right,799.6399999829009,true,high,false
9JQufhYi,3ktcj4scwjer7pa8t176k0lcjvpm1b,3strjbfxo04zd5k81aj20d8v047ktu,9JQufhYi,2020-0188,2020-11-21,12:53:49,13:11:19,NA,incomplete,6,color,0,right,Purple_Plus_Stripes_1.jpg,Red_Star_Chess_1.jpg,Purple_Triangle_Dots_4.jpg,right,639.4750000908971,true,high,false
9JQufhYi,3ktcj4scwjer7pa8t176k0lcjvpm1b,3strjbfxo04zd5k81aj20d8v047ktu,9JQufhYi,2020-0188,2020-11-21,12:53:49,13:11:19,NA,incomplete,7,color,1,left,Blue_Star_Grid_2.jpg,Blue_Circle_Dots_1.jpg,Green_Plus_Stripes_2.jpg,right,1118.0350000504404,false,high,false
9JQufhYi,3ktcj4scwjer7pa8t176k0lcjvpm1b,3strjbfxo04zd5k81aj20d8v047ktu,9JQufhYi,2020-0188,2020-11-21,12:53:49,13:11:19,NA,incomplete,8,color,1,right,Purple_Star_Chess_1.jpg,Green_Plus_Dots_1.jpg,Purple_Circle_Grid_3.jpg,right,718.4250000864267,true,high,false
9JQufhYi,3ktcj4scwjer7pa8t176k0lcjvpm1b,3strjbfxo04zd5k81aj20d8v047ktu,9JQufhYi,2020-0188,2020-11-21,12:53:49,13:11:19,NA,incomplete,9,color,1,right,Purple_Circle_Dots_4.jpg,Green_Triangle_Grid_4.jpg,Purple_Plus_Chess_3.jpg,right,776.465000002645,true,high,false
9JQufhYi,3ktcj4scwjer7pa8t176k0lcjvpm1b,3strjbfxo04zd5k81aj20d8v047ktu,9JQufhYi,2020-0188,2020-11-21,12:53:49,13:11:19,NA,incomplete,10,number,1,left,Green_Circle_Chess_2.jpg,Red_Star_Dots_2.jpg,Green_Triangle_Grid_3.jpg,right,769.6950000245124,false,high,false
9JQufhYi,3ktcj4scwjer7pa8t176k0lcjvpm1b,3strjbfxo04zd5k81aj20d8v047ktu,9JQufhYi,2020-0188,2020-11-21,12:53:49,13:11:19,NA,incomplete,11,number,1,right,Purple_Star_Dots_3.jpg,Purple_Plus_Chess_1.jpg,Red_Triangle_Grid_3.jpg,left,802.1200000075623,false,high,false
9JQufhYi,3ktcj4scwjer7pa8t176k0lcjvpm1b,3strjbfxo04zd5k81aj20d8v047ktu,9JQufhYi,2020-0188,2020-11-21,12:53:49,13:11:19,NA,incomplete,12,number,1,right,Purple_Circle_Stripes_4.jpg,Purple_Plus_Dots_2.jpg,Green_Triangle_Grid_4.jpg,left,775.4150000400841,false,high,false
9JQufhYi,3ktcj4scwjer7pa8t176k0lcjvpm1b,3strjbfxo04zd5k81aj20d8v047ktu,9JQufhYi,2020-0188,2020-11-21,12:53:49,13:11:19,NA,incomplete,13,number,1,left,Red_Star_Stripes_2.jpg,Blue_Triangle_Dots_2.jpg,Red_Plus_Grid_4.jpg,left,859.580000047572,true,high,false
9JQufhYi,3ktcj4scwjer7pa8t176k0lcjvpm1b,3strjbfxo04zd5k81aj20d8v047ktu,9JQufhYi,2020-0188,2020-11-21,12:53:49,13:11:19,NA,incomplete,14,number,1,right,Red_Star_Dots_1.jpg,Red_Circle_Chess_3.jpg,Blue_Plus_Grid_1.jpg,right,836.2450000131503,true,high,false
9JQufhYi,3ktcj4scwjer7pa8t176k0lcjvpm1b,3strjbfxo04zd5k81aj20d8v047ktu,9JQufhYi,2020-0188,2020-11-21,12:53:49,13:11:19,NA,incomplete,15,number,1,left,Blue_Plus_Grid_1.jpg,Green_Circle_Dots_1.jpg,Blue_Star_Stripes_3.jpg,left,1651.4550000429153,true,high,false
9JQufhYi,3ktcj4scwjer7pa8t176k0lcjvpm1b,3strjbfxo04zd5k81aj20d8v047ktu,9JQufhYi,2020-0188,2020-11-21,12:53:49,13:11:19,NA,incomplete,16,number,0,left,Purple_Plus_Stripes_1.jpg,Green_Star_Grid_1.jpg,Purple_Circle_Chess_3.jpg,left,723.3100000303239,true,high,false
9JQufhYi,3ktcj4scwjer7pa8t176k0lcjvpm1b,3strjbfxo04zd5k81aj20d8v047ktu,9JQufhYi,2020-0188,2020-11-21,12:53:49,13:11:19,NA,incomplete,17,number,0,left,Blue_Circle_Grid_2.jpg,Red_Plus_Stripes_2.jpg,Blue_Triangle_Chess_1.jpg,right,1453.4500000299886,false,high,false
9JQufhYi,3ktcj4scwjer7pa8t176k0lcjvpm1b,3strjbfxo04zd5k81aj20d8v047ktu,9JQufhYi,2020-0188,2020-11-21,12:53:49,13:11:19,NA,incomplete,18,number,1,left,Purple_Plus_Chess_3.jpg,Red_Circle_Grid_3.jpg,Purple_Triangle_Dots_4.jpg,left,1835.1000000257045,true,high,false
9JQufhYi,3ktcj4scwjer7pa8t176k0lcjvpm1b,3strjbfxo04zd5k81aj20d8v047ktu,9JQufhYi,2020-0188,2020-11-21,12:53:49,13:11:19,NA,incomplete,19,number,1,right,Red_Triangle_Stripes_1.jpg,Red_Circle_Dots_2.jpg,Blue_Plus_Chess_1.jpg,right,826.4649999327958,true,high,false
9JQufhYi,3ktcj4scwjer7pa8t176k0lcjvpm1b,3strjbfxo04zd5k81aj20d8v047ktu,9JQufhYi,2020-0188,2020-11-21,12:53:49,13:11:19,NA,incomplete,20,color,0,right,Purple_Triangle_Grid_1.jpg,Red_Circle_Stripes_1.jpg,Purple_Star_Dots_4.jpg,left,720.8300000056624,false,high,false
9JQufhYi,3ktcj4scwjer7pa8t176k0lcjvpm1b,3strjbfxo04zd5k81aj20d8v047ktu,9JQufhYi,2020-0188,2020-11-21,12:53:49,13:11:19,NA,incomplete,21,color,1,left,Green_Triangle_Stripes_2.jpg,Green_Plus_Chess_4.jpg,Red_Star_Dots_2.jpg,right,846.4249999960884,false,high,false
9JQufhYi,3ktcj4scwjer7pa8t176k0lcjvpm1b,3strjbfxo04zd5k81aj20d8v047ktu,9JQufhYi,2020-0188,2020-11-21,12:53:49,13:11:19,NA,incomplete,22,color,1,right,Red_Triangle_Grid_1.jpg,Purple_Star_Stripes_1.jpg,Red_Circle_Dots_2.jpg,left,1261.7750000208616,false,high,false
9JQufhYi,3ktcj4scwjer7pa8t176k0lcjvpm1b,3strjbfxo04zd5k81aj20d8v047ktu,9JQufhYi,2020-0188,2020-11-21,12:53:49,13:11:19,NA,incomplete,23,color,1,right,Purple_Circle_Dots_4.jpg,Blue_Star_Grid_4.jpg,Purple_Plus_Stripes_3.jpg,right,888.6549999006093,true,high,false
9JQufhYi,3ktcj4scwjer7pa8t176k0lcjvpm1b,3strjbfxo04zd5k81aj20d8v047ktu,9JQufhYi,2020-0188,2020-11-21,12:53:49,13:11:19,NA,incomplete,24,color,1,left,Red_Triangle_Grid_4.jpg,Red_Plus_Chess_2.jpg,Green_Star_Dots_4.jpg,left,836.1799999838695,true,high,false
9JQufhYi,3ktcj4scwjer7pa8t176k0lcjvpm1b,3strjbfxo04zd5k81aj20d8v047ktu,9JQufhYi,2020-0188,2020-11-21,12:53:49,13:11:19,NA,incomplete,25,color,1,left,Purple_Star_Dots_2.jpg,Purple_Triangle_Stripes_4.jpg,Red_Plus_Chess_2.jpg,left,600.5049999803305,true,high,false
9JQufhYi,3ktcj4scwjer7pa8t176k0lcjvpm1b,3strjbfxo04zd5k81aj20d8v047ktu,9JQufhYi,2020-0188,2020-11-21,12:53:49,13:11:19,NA,incomplete,26,color,1,right,Purple_Star_Dots_4.jpg,Green_Circle_Chess_4.jpg,Purple_Plus_Grid_3.jpg,right,595.2350000152364,true,high,false
9JQufhYi,3ktcj4scwjer7pa8t176k0lcjvpm1b,3strjbfxo04zd5k81aj20d8v047ktu,9JQufhYi,2020-0188,2020-11-21,12:53:49,13:11:19,NA,incomplete,27,color,1,right,Blue_Star_Dots_3.jpg,Red_Triangle_Grid_3.jpg,Blue_Circle_Chess_2.jpg,right,588.5449999477714,true,high,false
9JQufhYi,3ktcj4scwjer7pa8t176k0lcjvpm1b,3strjbfxo04zd5k81aj20d8v047ktu,9JQufhYi,2020-0188,2020-11-21,12:53:49,13:11:19,NA,incomplete,28,color,1,right,Red_Plus_Dots_4.jpg,Green_Star_Stripes_4.jpg,Red_Circle_Grid_3.jpg,right,540.4799999669194,true,high,false
9JQufhYi,3ktcj4scwjer7pa8t176k0lcjvpm1b,3strjbfxo04zd5k81aj20d8v047ktu,9JQufhYi,2020-0188,2020-11-21,12:53:49,13:11:19,NA,incomplete,29,color,1,left,Green_Plus_Chess_4.jpg,Green_Triangle_Dots_3.jpg,Purple_Star_Stripes_4.jpg,left,781.7150000482798,true,high,false
9JQufhYi,3ktcj4scwjer7pa8t176k0lcjvpm1b,3strjbfxo04zd5k81aj20d8v047ktu,9JQufhYi,2020-0188,2020-11-21,12:53:49,13:11:19,NA,incomplete,30,number,1,left,Red_Plus_Chess_3.jpg,Green_Star_Stripes_3.jpg,Red_Triangle_Grid_1.jpg,right,1019.1849999828264,false,high,false
9JQufhYi,3ktcj4scwjer7pa8t176k0lcjvpm1b,3strjbfxo04zd5k81aj20d8v047ktu,9JQufhYi,2020-0188,2020-11-21,12:53:49,13:11:19,NA,incomplete,31,number,1,left,Red_Triangle_Grid_3.jpg,Purple_Plus_Dots_3.jpg,Red_Star_Chess_4.jpg,right,591.1899999482557,false,high,false
9JQufhYi,3ktcj4scwjer7pa8t176k0lcjvpm1b,3strjbfxo04zd5k81aj20d8v047ktu,9JQufhYi,2020-0188,2020-11-21,12:53:49,13:11:19,NA,incomplete,32,number,1,right,Purple_Triangle_Grid_3.jpg,Purple_Plus_Dots_1.jpg,Blue_Star_Chess_3.jpg,left,654.234999907203,false,high,false
9JQufhYi,3ktcj4scwjer7pa8t176k0lcjvpm1b,3strjbfxo04zd5k81aj20d8v047ktu,9JQufhYi,2020-0188,2020-11-21,12:53:49,13:11:19,NA,incomplete,33,number,0,right,Purple_Star_Dots_3.jpg,Purple_Plus_Grid_4.jpg,Red_Circle_Stripes_3.jpg,right,731.6750000463799,true,high,false
9JQufhYi,3ktcj4scwjer7pa8t176k0lcjvpm1b,3strjbfxo04zd5k81aj20d8v047ktu,9JQufhYi,2020-0188,2020-11-21,12:53:49,13:11:19,NA,incomplete,34,number,1,left,Purple_Plus_Grid_1.jpg,Red_Star_Dots_1.jpg,Purple_Triangle_Stripes_3.jpg,left,802.8450000565499,true,high,false
9JQufhYi,3ktcj4scwjer7pa8t176k0lcjvpm1b,3strjbfxo04zd5k81aj20d8v047ktu,9JQufhYi,2020-0188,2020-11-21,12:53:49,13:11:19,NA,incomplete,35,number,0,right,Blue_Star_Chess_1.jpg,Blue_Triangle_Dots_2.jpg,Purple_Circle_Grid_1.jpg,right,946.6249999823049,true,high,false
9JQufhYi,3ktcj4scwjer7pa8t176k0lcjvpm1b,3strjbfxo04zd5k81aj20d8v047ktu,9JQufhYi,2020-0188,2020-11-21,12:53:49,13:11:19,NA,incomplete,36,number,1,left,Red_Triangle_Dots_4.jpg,Purple_Star_Chess_4.jpg,Red_Circle_Stripes_2.jpg,left,1660.4199999710545,true,high,false
9JQufhYi,3ktcj4scwjer7pa8t176k0lcjvpm1b,3strjbfxo04zd5k81aj20d8v047ktu,9JQufhYi,2020-0188,2020-11-21,12:53:49,13:11:19,NA,incomplete,37,number,1,right,Blue_Plus_Grid_4.jpg,Blue_Triangle_Chess_1.jpg,Green_Circle_Stripes_4.jpg,right,963.1550000049174,true,high,false
9JQufhYi,3ktcj4scwjer7pa8t176k0lcjvpm1b,3strjbfxo04zd5k81aj20d8v047ktu,9JQufhYi,2020-0188,2020-11-21,12:53:49,13:11:19,NA,incomplete,38,number,1,left,Blue_Triangle_Dots_4.jpg,Green_Star_Stripes_4.jpg,Blue_Circle_Chess_1.jpg,left,653.7249999819323,true,high,false
9JQufhYi,3ktcj4scwjer7pa8t176k0lcjvpm1b,3strjbfxo04zd5k81aj20d8v047ktu,9JQufhYi,2020-0188,2020-11-21,12:53:49,13:11:19,NA,incomplete,39,number,1,right,Green_Star_Grid_3.jpg,Green_Plus_Stripes_1.jpg,Blue_Circle_Chess_3.jpg,right,787.4149999115616,true,high,false
9JQufhYi,3ktcj4scwjer7pa8t176k0lcjvpm1b,3strjbfxo04zd5k81aj20d8v047ktu,9JQufhYi,2020-0188,2020-11-21,12:53:49,13:11:19,NA,incomplete,40,color,1,left,Blue_Plus_Grid_1.jpg,Blue_Star_Chess_3.jpg,Red_Triangle_Stripes_1.jpg,left,1290.6899999361485,true,high,false
9JQufhYi,3ktcj4scwjer7pa8t176k0lcjvpm1b,3strjbfxo04zd5k81aj20d8v047ktu,9JQufhYi,2020-0188,2020-11-21,12:53:49,13:11:19,NA,incomplete,41,color,1,left,Green_Triangle_Chess_3.jpg,Green_Circle_Dots_4.jpg,Red_Star_Stripes_3.jpg,right,1221.8649999704212,false,high,false
9JQufhYi,3ktcj4scwjer7pa8t176k0lcjvpm1b,3strjbfxo04zd5k81aj20d8v047ktu,9JQufhYi,2020-0188,2020-11-21,12:53:49,13:11:19,NA,incomplete,42,color,0,right,Green_Plus_Dots_1.jpg,Blue_Circle_Grid_1.jpg,Green_Star_Stripes_3.jpg,left,863.0450000055134,false,high,false
9JQufhYi,3ktcj4scwjer7pa8t176k0lcjvpm1b,3strjbfxo04zd5k81aj20d8v047ktu,9JQufhYi,2020-0188,2020-11-21,12:53:49,13:11:19,NA,incomplete,43,color,1,right,Blue_Star_Dots_2.jpg,Red_Plus_Grid_2.jpg,Blue_Triangle_Stripes_3.jpg,left,697.0949999522418,false,high,false
9JQufhYi,3ktcj4scwjer7pa8t176k0lcjvpm1b,3strjbfxo04zd5k81aj20d8v047ktu,9JQufhYi,2020-0188,2020-11-21,12:53:49,13:11:19,NA,incomplete,44,color,1,left,Purple_Star_Dots_1.jpg,Purple_Plus_Grid_4.jpg,Green_Circle_Stripes_1.jpg,right,871.8000000808388,false,high,false
9JQufhYi,3ktcj4scwjer7pa8t176k0lcjvpm1b,3strjbfxo04zd5k81aj20d8v047ktu,9JQufhYi,2020-0188,2020-11-21,12:53:49,13:11:19,NA,incomplete,45,color,1,left,Blue_Circle_Dots_2.jpg,Blue_Star_Chess_1.jpg,Red_Plus_Grid_2.jpg,left,643.0750000290573,true,high,false
9JQufhYi,3ktcj4scwjer7pa8t176k0lcjvpm1b,3strjbfxo04zd5k81aj20d8v047ktu,9JQufhYi,2020-0188,2020-11-21,12:53:49,13:11:19,NA,incomplete,46,color,1,left,Red_Plus_Chess_2.jpg,Red_Star_Grid_3.jpg,Blue_Triangle_Stripes_2.jpg,left,554.0449999971315,true,high,false
9JQufhYi,3ktcj4scwjer7pa8t176k0lcjvpm1b,3strjbfxo04zd5k81aj20d8v047ktu,9JQufhYi,2020-0188,2020-11-21,12:53:49,13:11:19,NA,incomplete,47,color,1,right,Red_Star_Stripes_4.jpg,Green_Triangle_Dots_4.jpg,Red_Circle_Chess_1.jpg,right,710.7349999714643,true,high,false
9JQufhYi,3ktcj4scwjer7pa8t176k0lcjvpm1b,3strjbfxo04zd5k81aj20d8v047ktu,9JQufhYi,2020-0188,2020-11-21,12:53:49,13:11:19,NA,incomplete,48,color,1,right,Purple_Triangle_Chess_4.jpg,Green_Plus_Dots_4.jpg,Purple_Circle_Stripes_1.jpg,right,751.0699999984354,true,high,false
9JQufhYi,3ktcj4scwjer7pa8t176k0lcjvpm1b,3strjbfxo04zd5k81aj20d8v047ktu,9JQufhYi,2020-0188,2020-11-21,12:53:49,13:11:19,NA,incomplete,49,color,1,left,Purple_Plus_Dots_1.jpg,Purple_Star_Stripes_3.jpg,Blue_Circle_Chess_1.jpg,left,696.0200000321493,true,high,false
9JQufhYi,3ktcj4scwjer7pa8t176k0lcjvpm1b,3strjbfxo04zd5k81aj20d8v047ktu,9JQufhYi,2020-0188,2020-11-21,12:53:49,13:11:19,NA,incomplete,50,number,1,left,Blue_Star_Dots_2.jpg,Purple_Triangle_Stripes_2.jpg,Blue_Plus_Chess_4.jpg,right,675.3950000274926,false,high,false
9JQufhYi,3ktcj4scwjer7pa8t176k0lcjvpm1b,3strjbfxo04zd5k81aj20d8v047ktu,9JQufhYi,2020-0188,2020-11-21,12:53:49,13:11:19,NA,incomplete,51,number,0,right,Green_Plus_Dots_4.jpg,Green_Triangle_Grid_3.jpg,Red_Circle_Chess_4.jpg,left,667.8199999732897,false,high,false
9JQufhYi,3ktcj4scwjer7pa8t176k0lcjvpm1b,3strjbfxo04zd5k81aj20d8v047ktu,9JQufhYi,2020-0188,2020-11-21,12:53:49,13:11:19,NA,incomplete,52,number,1,right,Red_Plus_Grid_4.jpg,Red_Star_Stripes_2.jpg,Purple_Circle_Chess_4.jpg,left,488.9950000215322,false,high,false
9JQufhYi,3ktcj4scwjer7pa8t176k0lcjvpm1b,3strjbfxo04zd5k81aj20d8v047ktu,9JQufhYi,2020-0188,2020-11-21,12:53:49,13:11:19,NA,incomplete,53,number,1,right,Blue_Circle_Dots_1.jpg,Blue_Plus_Stripes_4.jpg,Purple_Star_Chess_1.jpg,left,532.3250000365078,false,high,false
9JQufhYi,3ktcj4scwjer7pa8t176k0lcjvpm1b,3strjbfxo04zd5k81aj20d8v047ktu,9JQufhYi,2020-0188,2020-11-21,12:53:49,13:11:19,NA,incomplete,54,number,1,right,Purple_Star_Stripes_3.jpg,Purple_Triangle_Dots_4.jpg,Blue_Circle_Grid_3.jpg,right,774.6400000760332,true,high,false
9JQufhYi,3ktcj4scwjer7pa8t176k0lcjvpm1b,3strjbfxo04zd5k81aj20d8v047ktu,9JQufhYi,2020-0188,2020-11-21,12:53:49,13:11:19,NA,incomplete,55,number,0,left,Green_Star_Dots_4.jpg,Red_Triangle_Grid_4.jpg,Green_Plus_Chess_3.jpg,left,859.6299999626353,true,high,false
9JQufhYi,3ktcj4scwjer7pa8t176k0lcjvpm1b,3strjbfxo04zd5k81aj20d8v047ktu,9JQufhYi,2020-0188,2020-11-21,12:53:49,13:11:19,NA,incomplete,56,number,1,left,Blue_Star_Stripes_4.jpg,Purple_Circle_Dots_4.jpg,Blue_Triangle_Chess_2.jpg,left,755.7849999284372,true,high,false
9JQufhYi,3ktcj4scwjer7pa8t176k0lcjvpm1b,3strjbfxo04zd5k81aj20d8v047ktu,9JQufhYi,2020-0188,2020-11-21,12:53:49,13:11:19,NA,incomplete,57,number,1,left,Blue_Plus_Grid_3.jpg,Red_Circle_Chess_3.jpg,Blue_Triangle_Dots_2.jpg,left,695.6650000065565,true,high,false
9JQufhYi,3ktcj4scwjer7pa8t176k0lcjvpm1b,3strjbfxo04zd5k81aj20d8v047ktu,9JQufhYi,2020-0188,2020-11-21,12:53:49,13:11:19,NA,incomplete,58,number,0,left,Green_Plus_Chess_1.jpg,Blue_Star_Stripes_1.jpg,Green_Triangle_Dots_2.jpg,left,669.8750000214204,true,high,false
9JQufhYi,3ktcj4scwjer7pa8t176k0lcjvpm1b,3strjbfxo04zd5k81aj20d8v047ktu,9JQufhYi,2020-0188,2020-11-21,12:53:49,13:11:19,NA,incomplete,59,number,1,left,Purple_Triangle_Dots_4.jpg,Green_Plus_Grid_4.jpg,Purple_Circle_Chess_1.jpg,right,1345.4400000628084,false,high,false
9JQufhYi,3ktcj4scwjer7pa8t176k0lcjvpm1b,3strjbfxo04zd5k81aj20d8v047ktu,9JQufhYi,2020-0188,2020-11-21,12:53:49,13:11:19,NA,incomplete,60,color,1,left,Purple_Triangle_Grid_4.jpg,Purple_Circle_Chess_1.jpg,Green_Plus_Stripes_4.jpg,right,928.7049999693409,false,high,false
9JQufhYi,3ktcj4scwjer7pa8t176k0lcjvpm1b,3strjbfxo04zd5k81aj20d8v047ktu,9JQufhYi,2020-0188,2020-11-21,12:53:49,13:11:19,NA,incomplete,61,color,1,left,Red_Circle_Stripes_1.jpg,Red_Star_Chess_3.jpg,Green_Plus_Grid_1.jpg,left,642.8400001022965,true,high,false
9JQufhYi,3ktcj4scwjer7pa8t176k0lcjvpm1b,3strjbfxo04zd5k81aj20d8v047ktu,9JQufhYi,2020-0188,2020-11-21,12:53:49,13:11:19,NA,incomplete,62,color,1,left,Purple_Star_Chess_4.jpg,Purple_Circle_Dots_3.jpg,Blue_Plus_Stripes_4.jpg,left,866.4049999788404,true,high,false
9JQufhYi,3ktcj4scwjer7pa8t176k0lcjvpm1b,3strjbfxo04zd5k81aj20d8v047ktu,9JQufhYi,2020-0188,2020-11-21,12:53:49,13:11:19,NA,incomplete,63,color,1,left,Blue_Triangle_Grid_4.jpg,Blue_Plus_Dots_3.jpg,Red_Star_Chess_4.jpg,left,779.575000051409,true,high,false
9JQufhYi,3ktcj4scwjer7pa8t176k0lcjvpm1b,3strjbfxo04zd5k81aj20d8v047ktu,9JQufhYi,2020-0188,2020-11-21,12:53:49,13:11:19,NA,incomplete,64,color,1,left,Purple_Star_Stripes_2.jpg,Purple_Circle_Grid_3.jpg,Red_Plus_Dots_2.jpg,left,806.7100000334904,true,high,false
9JQufhYi,3ktcj4scwjer7pa8t176k0lcjvpm1b,3strjbfxo04zd5k81aj20d8v047ktu,9JQufhYi,2020-0188,2020-11-21,12:53:49,13:11:19,NA,incomplete,65,color,0,left,Purple_Triangle_Dots_1.jpg,Purple_Plus_Grid_2.jpg,Red_Star_Chess_1.jpg,left,680.0999999977648,true,high,false
9JQufhYi,3ktcj4scwjer7pa8t176k0lcjvpm1b,3strjbfxo04zd5k81aj20d8v047ktu,9JQufhYi,2020-0188,2020-11-21,12:53:49,13:11:19,NA,incomplete,66,color,1,left,Red_Circle_Dots_2.jpg,Red_Triangle_Chess_1.jpg,Green_Star_Grid_2.jpg,left,618.4600000269711,true,high,false
9JQufhYi,3ktcj4scwjer7pa8t176k0lcjvpm1b,3strjbfxo04zd5k81aj20d8v047ktu,9JQufhYi,2020-0188,2020-11-21,12:53:49,13:11:19,NA,incomplete,67,color,1,left,Red_Star_Stripes_4.jpg,Red_Triangle_Grid_1.jpg,Green_Circle_Dots_4.jpg,left,486.5799999097362,true,high,false
9JQufhYi,3ktcj4scwjer7pa8t176k0lcjvpm1b,3strjbfxo04zd5k81aj20d8v047ktu,9JQufhYi,2020-0188,2020-11-21,12:53:49,13:11:19,NA,incomplete,68,color,0,left,Blue_Star_Grid_3.jpg,Blue_Triangle_Stripes_1.jpg,Purple_Circle_Dots_3.jpg,left,759.8500000312924,true,high,false
9JQufhYi,3ktcj4scwjer7pa8t176k0lcjvpm1b,3strjbfxo04zd5k81aj20d8v047ktu,9JQufhYi,2020-0188,2020-11-21,12:53:49,13:11:19,NA,incomplete,69,color,1,left,Red_Plus_Chess_1.jpg,Red_Circle_Dots_2.jpg,Purple_Triangle_Grid_1.jpg,left,560.0850000046194,true,high,false
9JQufhYi,3ktcj4scwjer7pa8t176k0lcjvpm1b,3strjbfxo04zd5k81aj20d8v047ktu,9JQufhYi,2020-0188,2020-11-21,12:53:49,13:11:19,NA,incomplete,70,number,1,left,Green_Plus_Chess_2.jpg,Blue_Triangle_Stripes_2.jpg,Green_Star_Grid_1.jpg,right,982.8749999869615,false,high,false
9JQufhYi,3ktcj4scwjer7pa8t176k0lcjvpm1b,3strjbfxo04zd5k81aj20d8v047ktu,9JQufhYi,2020-0188,2020-11-21,12:53:49,13:11:19,NA,incomplete,71,number,1,right,Green_Triangle_Grid_2.jpg,Green_Circle_Chess_3.jpg,Blue_Plus_Stripes_2.jpg,left,613.7850000523031,false,high,false
9JQufhYi,3ktcj4scwjer7pa8t176k0lcjvpm1b,3strjbfxo04zd5k81aj20d8v047ktu,9JQufhYi,2020-0188,2020-11-21,12:53:49,13:11:19,NA,incomplete,72,number,0,right,Green_Circle_Stripes_1.jpg,Green_Plus_Grid_3.jpg,Blue_Triangle_Chess_1.jpg,right,847.2199999960139,true,high,false
9JQufhYi,3ktcj4scwjer7pa8t176k0lcjvpm1b,3strjbfxo04zd5k81aj20d8v047ktu,9JQufhYi,2020-0188,2020-11-21,12:53:49,13:11:19,NA,incomplete,73,number,1,left,Purple_Plus_Stripes_1.jpg,Green_Triangle_Grid_1.jpg,Purple_Star_Chess_2.jpg,left,845.6050000386313,true,high,false
9JQufhYi,3ktcj4scwjer7pa8t176k0lcjvpm1b,3strjbfxo04zd5k81aj20d8v047ktu,9JQufhYi,2020-0188,2020-11-21,12:53:49,13:11:19,NA,incomplete,74,number,0,right,Purple_Plus_Grid_1.jpg,Purple_Circle_Stripes_4.jpg,Red_Triangle_Dots_1.jpg,right,735.854999977164,true,high,false
9JQufhYi,3ktcj4scwjer7pa8t176k0lcjvpm1b,3strjbfxo04zd5k81aj20d8v047ktu,9JQufhYi,2020-0188,2020-11-21,12:53:49,13:11:19,NA,incomplete,75,number,1,right,Purple_Plus_Dots_4.jpg,Purple_Triangle_Stripes_3.jpg,Red_Circle_Chess_4.jpg,right,1136.3400000846013,true,high,false
9JQufhYi,3ktcj4scwjer7pa8t176k0lcjvpm1b,3strjbfxo04zd5k81aj20d8v047ktu,9JQufhYi,2020-0188,2020-11-21,12:53:49,13:11:19,NA,incomplete,76,number,1,left,Red_Triangle_Chess_2.jpg,Green_Circle_Stripes_2.jpg,Red_Star_Dots_4.jpg,left,779.5349999796599,true,high,false
9JQufhYi,3ktcj4scwjer7pa8t176k0lcjvpm1b,3strjbfxo04zd5k81aj20d8v047ktu,9JQufhYi,2020-0188,2020-11-21,12:53:49,13:11:19,NA,incomplete,77,number,1,left,Purple_Star_Chess_3.jpg,Red_Plus_Stripes_3.jpg,Purple_Circle_Dots_1.jpg,left,724.7950000455603,true,high,false
9JQufhYi,3ktcj4scwjer7pa8t176k0lcjvpm1b,3strjbfxo04zd5k81aj20d8v047ktu,9JQufhYi,2020-0188,2020-11-21,12:53:49,13:11:19,NA,incomplete,78,number,0,left,Green_Circle_Dots_4.jpg,Blue_Plus_Chess_4.jpg,Green_Star_Stripes_1.jpg,left,681.3949999632314,true,high,false
9JQufhYi,3ktcj4scwjer7pa8t176k0lcjvpm1b,3strjbfxo04zd5k81aj20d8v047ktu,9JQufhYi,2020-0188,2020-11-21,12:53:49,13:11:19,NA,incomplete,79,number,0,right,Purple_Circle_Chess_1.jpg,Purple_Triangle_Grid_4.jpg,Red_Plus_Stripes_1.jpg,right,730.6800000369549,true,high,false
9JQufhYi,3ktcj4scwjer7pa8t176k0lcjvpm1b,3strjbfxo04zd5k81aj20d8v047ktu,9JQufhYi,2020-0188,2020-11-21,12:53:49,13:11:19,NA,incomplete,80,color,1,right,Blue_Plus_Stripes_4.jpg,Purple_Circle_Grid_4.jpg,Blue_Star_Chess_2.jpg,right,607.3550001019612,true,high,false
9JQufhYi,3ktcj4scwjer7pa8t176k0lcjvpm1b,3strjbfxo04zd5k81aj20d8v047ktu,9JQufhYi,2020-0188,2020-11-21,12:53:49,13:11:19,NA,incomplete,81,color,1,right,Purple_Circle_Dots_2.jpg,Blue_Plus_Chess_2.jpg,Purple_Star_Stripes_1.jpg,right,740.834999945946,true,high,false
9JQufhYi,3ktcj4scwjer7pa8t176k0lcjvpm1b,3strjbfxo04zd5k81aj20d8v047ktu,9JQufhYi,2020-0188,2020-11-21,12:53:49,13:11:19,NA,incomplete,82,color,1,right,Blue_Star_Chess_3.jpg,Green_Circle_Grid_3.jpg,Blue_Triangle_Dots_4.jpg,right,577.2799999685958,true,high,false
9JQufhYi,3ktcj4scwjer7pa8t176k0lcjvpm1b,3strjbfxo04zd5k81aj20d8v047ktu,9JQufhYi,2020-0188,2020-11-21,12:53:49,13:11:19,NA,incomplete,83,color,1,right,Red_Triangle_Grid_2.jpg,Blue_Circle_Dots_2.jpg,Red_Star_Chess_3.jpg,right,482.0299999555573,true,high,false
9JQufhYi,3ktcj4scwjer7pa8t176k0lcjvpm1b,3strjbfxo04zd5k81aj20d8v047ktu,9JQufhYi,2020-0188,2020-11-21,12:53:49,13:11:19,NA,incomplete,84,color,1,right,Red_Star_Stripes_1.jpg,Purple_Circle_Chess_1.jpg,Red_Triangle_Dots_2.jpg,right,442.99000001046807,true,high,false
9JQufhYi,3ktcj4scwjer7pa8t176k0lcjvpm1b,3strjbfxo04zd5k81aj20d8v047ktu,9JQufhYi,2020-0188,2020-11-21,12:53:49,13:11:19,NA,incomplete,85,color,1,right,Red_Plus_Grid_2.jpg,Purple_Star_Chess_2.jpg,Red_Circle_Stripes_1.jpg,right,603.135000099428,true,high,false
9JQufhYi,3ktcj4scwjer7pa8t176k0lcjvpm1b,3strjbfxo04zd5k81aj20d8v047ktu,9JQufhYi,2020-0188,2020-11-21,12:53:49,13:11:19,NA,incomplete,86,color,1,right,Green_Circle_Stripes_4.jpg,Purple_Star_Grid_4.jpg,Green_Plus_Chess_2.jpg,right,430.52000005263835,true,high,false
9JQufhYi,3ktcj4scwjer7pa8t176k0lcjvpm1b,3strjbfxo04zd5k81aj20d8v047ktu,9JQufhYi,2020-0188,2020-11-21,12:53:49,13:11:19,NA,incomplete,87,color,0,right,Purple_Plus_Dots_3.jpg,Red_Triangle_Grid_3.jpg,Purple_Star_Chess_4.jpg,right,621.1500000208616,true,high,false
9JQufhYi,3ktcj4scwjer7pa8t176k0lcjvpm1b,3strjbfxo04zd5k81aj20d8v047ktu,9JQufhYi,2020-0188,2020-11-21,12:53:49,13:11:19,NA,incomplete,88,color,0,left,Purple_Star_Chess_2.jpg,Purple_Plus_Stripes_4.jpg,Red_Circle_Grid_2.jpg,left,913.4150000754744,true,high,false
9JQufhYi,3ktcj4scwjer7pa8t176k0lcjvpm1b,3strjbfxo04zd5k81aj20d8v047ktu,9JQufhYi,2020-0188,2020-11-21,12:53:49,13:11:19,NA,incomplete,89,color,1,right,Purple_Plus_Stripes_2.jpg,Green_Star_Grid_2.jpg,Purple_Circle_Chess_3.jpg,left,707.1699999505654,false,high,false
9JQufhYi,3ktcj4scwjer7pa8t176k0lcjvpm1b,3strjbfxo04zd5k81aj20d8v047ktu,9JQufhYi,2020-0188,2020-11-21,12:53:49,13:11:19,NA,incomplete,90,number,1,right,Purple_Triangle_Grid_1.jpg,Purple_Star_Dots_2.jpg,Blue_Circle_Stripes_1.jpg,right,991.1149999825284,true,high,false
9JQufhYi,3ktcj4scwjer7pa8t176k0lcjvpm1b,3strjbfxo04zd5k81aj20d8v047ktu,9JQufhYi,2020-0188,2020-11-21,12:53:49,13:11:19,NA,incomplete,91,number,1,right,Red_Circle_Grid_4.jpg,Red_Star_Dots_2.jpg,Blue_Triangle_Stripes_4.jpg,right,1148.9349999465048,true,high,false
9JQufhYi,3ktcj4scwjer7pa8t176k0lcjvpm1b,3strjbfxo04zd5k81aj20d8v047ktu,9JQufhYi,2020-0188,2020-11-21,12:53:49,13:11:19,NA,incomplete,92,number,1,left,Green_Star_Stripes_4.jpg,Red_Circle_Chess_4.jpg,Green_Triangle_Dots_3.jpg,left,1191.190000041388,true,high,false
9JQufhYi,3ktcj4scwjer7pa8t176k0lcjvpm1b,3strjbfxo04zd5k81aj20d8v047ktu,9JQufhYi,2020-0188,2020-11-21,12:53:49,13:11:19,NA,incomplete,93,number,1,right,Green_Triangle_Grid_2.jpg,Green_Circle_Chess_1.jpg,Red_Plus_Stripes_2.jpg,right,990.4099999694154,true,high,false
9JQufhYi,3ktcj4scwjer7pa8t176k0lcjvpm1b,3strjbfxo04zd5k81aj20d8v047ktu,9JQufhYi,2020-0188,2020-11-21,12:53:49,13:11:19,NA,incomplete,94,number,1,right,Purple_Triangle_Stripes_3.jpg,Purple_Star_Grid_4.jpg,Blue_Circle_Dots_3.jpg,right,994.1999999573454,true,high,false
9JQufhYi,3ktcj4scwjer7pa8t176k0lcjvpm1b,3strjbfxo04zd5k81aj20d8v047ktu,9JQufhYi,2020-0188,2020-11-21,12:53:49,13:11:19,NA,incomplete,95,number,1,right,Purple_Plus_Chess_2.jpg,Purple_Triangle_Stripes_1.jpg,Red_Circle_Grid_2.jpg,right,800.6100000347942,true,high,false
9JQufhYi,3ktcj4scwjer7pa8t176k0lcjvpm1b,3strjbfxo04zd5k81aj20d8v047ktu,9JQufhYi,2020-0188,2020-11-21,12:53:49,13:11:19,NA,incomplete,96,number,1,right,Red_Plus_Dots_1.jpg,Red_Star_Chess_4.jpg,Blue_Circle_Grid_1.jpg,right,910.5700000654906,true,high,false
9JQufhYi,3ktcj4scwjer7pa8t176k0lcjvpm1b,3strjbfxo04zd5k81aj20d8v047ktu,9JQufhYi,2020-0188,2020-11-21,12:53:49,13:11:19,NA,incomplete,97,number,1,right,Green_Circle_Stripes_1.jpg,Green_Star_Dots_2.jpg,Purple_Triangle_Grid_1.jpg,right,704.4599999208003,true,high,false
9JQufhYi,3ktcj4scwjer7pa8t176k0lcjvpm1b,3strjbfxo04zd5k81aj20d8v047ktu,9JQufhYi,2020-0188,2020-11-21,12:53:49,13:11:19,NA,incomplete,98,number,0,right,Red_Circle_Stripes_2.jpg,Red_Plus_Dots_3.jpg,Blue_Triangle_Grid_2.jpg,right,656.554999994114,true,high,false
9JQufhYi,3ktcj4scwjer7pa8t176k0lcjvpm1b,3strjbfxo04zd5k81aj20d8v047ktu,9JQufhYi,2020-0188,2020-11-21,12:53:49,13:11:19,NA,incomplete,99,number,1,left,Blue_Circle_Dots_3.jpg,Green_Plus_Grid_3.jpg,Blue_Star_Chess_2.jpg,left,727.5399999925867,true,high,false
9JQufhYi,3ktcj4scwjer7pa8t176k0lcjvpm1b,3strjbfxo04zd5k81aj20d8v047ktu,9JQufhYi,2020-0188,2020-11-21,12:53:49,13:11:19,NA,incomplete,100,color,1,right,Green_Triangle_Stripes_3.jpg,Red_Plus_Chess_3.jpg,Green_Circle_Grid_4.jpg,left,797.2199999494478,false,high,false
9JQufhYi,3ktcj4scwjer7pa8t176k0lcjvpm1b,3strjbfxo04zd5k81aj20d8v047ktu,9JQufhYi,2020-0188,2020-11-21,12:53:49,13:11:19,NA,incomplete,101,color,0,right,Red_Star_Grid_4.jpg,Green_Plus_Chess_4.jpg,Red_Triangle_Dots_3.jpg,left,755.1899999380112,false,high,false
9JQufhYi,3ktcj4scwjer7pa8t176k0lcjvpm1b,3strjbfxo04zd5k81aj20d8v047ktu,9JQufhYi,2020-0188,2020-11-21,12:53:49,13:11:19,NA,incomplete,102,color,1,left,Purple_Star_Dots_4.jpg,Purple_Circle_Stripes_3.jpg,Red_Triangle_Chess_4.jpg,right,855.1349999615923,false,high,false
9JQufhYi,3ktcj4scwjer7pa8t176k0lcjvpm1b,3strjbfxo04zd5k81aj20d8v047ktu,9JQufhYi,2020-0188,2020-11-21,12:53:49,13:11:19,NA,incomplete,103,color,1,left,Purple_Plus_Dots_2.jpg,Purple_Triangle_Chess_4.jpg,Blue_Circle_Grid_2.jpg,right,797.7750001009554,false,high,false
9JQufhYi,3ktcj4scwjer7pa8t176k0lcjvpm1b,3strjbfxo04zd5k81aj20d8v047ktu,9JQufhYi,2020-0188,2020-11-21,12:53:49,13:11:19,NA,incomplete,104,color,1,left,Purple_Circle_Dots_4.jpg,Purple_Triangle_Stripes_3.jpg,Red_Star_Grid_4.jpg,left,617.3699999926612,true,high,false
9JQufhYi,3ktcj4scwjer7pa8t176k0lcjvpm1b,3strjbfxo04zd5k81aj20d8v047ktu,9JQufhYi,2020-0188,2020-11-21,12:53:49,13:11:19,NA,incomplete,105,color,1,left,Blue_Triangle_Grid_4.jpg,Blue_Star_Dots_1.jpg,Purple_Plus_Stripes_4.jpg,left,604.869999922812,true,high,false
9JQufhYi,3ktcj4scwjer7pa8t176k0lcjvpm1b,3strjbfxo04zd5k81aj20d8v047ktu,9JQufhYi,2020-0188,2020-11-21,12:53:49,13:11:19,NA,incomplete,106,color,1,left,Green_Circle_Chess_2.jpg,Green_Triangle_Dots_3.jpg,Blue_Star_Stripes_2.jpg,left,402.47999993152916,true,high,false
9JQufhYi,3ktcj4scwjer7pa8t176k0lcjvpm1b,3strjbfxo04zd5k81aj20d8v047ktu,9JQufhYi,2020-0188,2020-11-21,12:53:49,13:11:19,NA,incomplete,107,color,1,left,Green_Triangle_Dots_4.jpg,Green_Circle_Chess_1.jpg,Purple_Plus_Grid_4.jpg,left,329.31000005919486,true,high,false
9JQufhYi,3ktcj4scwjer7pa8t176k0lcjvpm1b,3strjbfxo04zd5k81aj20d8v047ktu,9JQufhYi,2020-0188,2020-11-21,12:53:49,13:11:19,NA,incomplete,108,color,1,left,Green_Star_Dots_2.jpg,Green_Plus_Stripes_1.jpg,Purple_Triangle_Grid_2.jpg,left,315.5249999836087,true,high,false
9JQufhYi,3ktcj4scwjer7pa8t176k0lcjvpm1b,3strjbfxo04zd5k81aj20d8v047ktu,9JQufhYi,2020-0188,2020-11-21,12:53:49,13:11:19,NA,incomplete,109,color,1,right,Purple_Triangle_Dots_1.jpg,Green_Star_Grid_1.jpg,Purple_Circle_Stripes_4.jpg,left,646.6800000052899,false,high,false
9JQufhYi,3ktcj4scwjer7pa8t176k0lcjvpm1b,3strjbfxo04zd5k81aj20d8v047ktu,9JQufhYi,2020-0188,2020-11-21,12:53:49,13:11:19,NA,incomplete,110,number,1,left,Red_Circle_Chess_3.jpg,Blue_Star_Stripes_3.jpg,Red_Plus_Dots_4.jpg,right,600.5749999312684,false,high,false
9JQufhYi,3ktcj4scwjer7pa8t176k0lcjvpm1b,3strjbfxo04zd5k81aj20d8v047ktu,9JQufhYi,2020-0188,2020-11-21,12:53:49,13:11:19,NA,incomplete,111,number,1,left,Blue_Plus_Grid_1.jpg,Red_Star_Stripes_1.jpg,Blue_Triangle_Dots_3.jpg,right,483.13999990932643,false,high,false
9JQufhYi,3ktcj4scwjer7pa8t176k0lcjvpm1b,3strjbfxo04zd5k81aj20d8v047ktu,9JQufhYi,2020-0188,2020-11-21,12:53:49,13:11:19,NA,incomplete,112,number,1,left,Green_Triangle_Grid_1.jpg,Red_Plus_Dots_1.jpg,Green_Circle_Stripes_2.jpg,left,582.469999906607,true,high,false
9JQufhYi,3ktcj4scwjer7pa8t176k0lcjvpm1b,3strjbfxo04zd5k81aj20d8v047ktu,9JQufhYi,2020-0188,2020-11-21,12:53:49,13:11:19,NA,incomplete,113,number,0,left,Green_Plus_Dots_4.jpg,Purple_Star_Stripes_4.jpg,Green_Circle_Chess_1.jpg,left,1410.7899999944493,true,high,false
9JQufhYi,3ktcj4scwjer7pa8t176k0lcjvpm1b,3strjbfxo04zd5k81aj20d8v047ktu,9JQufhYi,2020-0188,2020-11-21,12:53:49,13:11:19,NA,incomplete,114,number,1,right,Red_Plus_Dots_1.jpg,Red_Triangle_Chess_4.jpg,Blue_Star_Stripes_1.jpg,right,654.17500003241,true,high,false
9JQufhYi,3ktcj4scwjer7pa8t176k0lcjvpm1b,3strjbfxo04zd5k81aj20d8v047ktu,9JQufhYi,2020-0188,2020-11-21,12:53:49,13:11:19,NA,incomplete,115,number,1,right,Blue_Triangle_Dots_2.jpg,Blue_Plus_Chess_1.jpg,Red_Star_Stripes_2.jpg,right,895.7050000317395,true,high,false
9JQufhYi,3ktcj4scwjer7pa8t176k0lcjvpm1b,3strjbfxo04zd5k81aj20d8v047ktu,9JQufhYi,2020-0188,2020-11-21,12:53:49,13:11:19,NA,incomplete,116,number,1,right,Green_Triangle_Chess_1.jpg,Green_Star_Dots_4.jpg,Purple_Plus_Stripes_1.jpg,right,600.1300000352785,true,high,false
9JQufhYi,3ktcj4scwjer7pa8t176k0lcjvpm1b,3strjbfxo04zd5k81aj20d8v047ktu,9JQufhYi,2020-0188,2020-11-21,12:53:49,13:11:19,NA,incomplete,117,number,1,right,Purple_Circle_Grid_2.jpg,Purple_Triangle_Stripes_1.jpg,Red_Plus_Chess_2.jpg,right,732.0400000317022,true,high,false
9JQufhYi,3ktcj4scwjer7pa8t176k0lcjvpm1b,3strjbfxo04zd5k81aj20d8v047ktu,9JQufhYi,2020-0188,2020-11-21,12:53:49,13:11:19,NA,incomplete,118,number,0,right,Purple_Star_Chess_4.jpg,Purple_Circle_Dots_3.jpg,Red_Plus_Grid_4.jpg,right,1034.4799999147654,true,high,false
9JQufhYi,3ktcj4scwjer7pa8t176k0lcjvpm1b,3strjbfxo04zd5k81aj20d8v047ktu,9JQufhYi,2020-0188,2020-11-21,12:53:49,13:11:19,NA,incomplete,119,number,0,right,Green_Plus_Stripes_2.jpg,Green_Star_Dots_1.jpg,Blue_Triangle_Grid_2.jpg,right,630.1450000610203,true,high,false
9JQufhYi,3ktcj4scwjer7pa8t176k0lcjvpm1b,3strjbfxo04zd5k81aj20d8v047ktu,9JQufhYi,2020-0188,2020-11-21,12:53:49,13:11:19,NA,incomplete,120,color,1,left,Green_Plus_Dots_1.jpg,Green_Circle_Stripes_4.jpg,Red_Star_Grid_1.jpg,left,728.5449999617413,true,high,false
9JQufhYi,3ktcj4scwjer7pa8t176k0lcjvpm1b,3strjbfxo04zd5k81aj20d8v047ktu,9JQufhYi,2020-0188,2020-11-21,12:53:49,13:11:19,NA,incomplete,121,color,1,right,Green_Triangle_Chess_3.jpg,Blue_Plus_Grid_3.jpg,Green_Star_Dots_2.jpg,left,402.5999999139458,false,high,false
9JQufhYi,3ktcj4scwjer7pa8t176k0lcjvpm1b,3strjbfxo04zd5k81aj20d8v047ktu,9JQufhYi,2020-0188,2020-11-21,12:53:49,13:11:19,NA,incomplete,122,color,0,left,Purple_Star_Grid_1.jpg,Purple_Plus_Dots_3.jpg,Green_Triangle_Chess_1.jpg,left,561.3199999788776,true,high,false
9JQufhYi,3ktcj4scwjer7pa8t176k0lcjvpm1b,3strjbfxo04zd5k81aj20d8v047ktu,9JQufhYi,2020-0188,2020-11-21,12:53:49,13:11:19,NA,incomplete,123,color,1,left,Red_Star_Stripes_2.jpg,Red_Plus_Dots_3.jpg,Purple_Circle_Grid_2.jpg,left,527.0899999886751,true,high,false
9JQufhYi,3ktcj4scwjer7pa8t176k0lcjvpm1b,3strjbfxo04zd5k81aj20d8v047ktu,9JQufhYi,2020-0188,2020-11-21,12:53:49,13:11:19,NA,incomplete,124,color,0,left,Purple_Plus_Dots_4.jpg,Purple_Triangle_Grid_2.jpg,Red_Circle_Chess_4.jpg,left,565.7349999528378,true,high,false
9JQufhYi,3ktcj4scwjer7pa8t176k0lcjvpm1b,3strjbfxo04zd5k81aj20d8v047ktu,9JQufhYi,2020-0188,2020-11-21,12:53:49,13:11:19,NA,incomplete,125,color,1,right,Red_Circle_Stripes_3.jpg,Purple_Star_Grid_3.jpg,Red_Triangle_Dots_1.jpg,right,602.5900000240654,true,high,false
9JQufhYi,3ktcj4scwjer7pa8t176k0lcjvpm1b,3strjbfxo04zd5k81aj20d8v047ktu,9JQufhYi,2020-0188,2020-11-21,12:53:49,13:11:19,NA,incomplete,126,color,1,left,Red_Plus_Grid_4.jpg,Red_Star_Dots_3.jpg,Blue_Triangle_Chess_4.jpg,left,516.2849999032915,true,high,false
9JQufhYi,3ktcj4scwjer7pa8t176k0lcjvpm1b,3strjbfxo04zd5k81aj20d8v047ktu,9JQufhYi,2020-0188,2020-11-21,12:53:49,13:11:19,NA,incomplete,127,color,1,left,Green_Triangle_Chess_1.jpg,Green_Star_Grid_4.jpg,Purple_Plus_Dots_1.jpg,left,747.899999958463,true,high,false
9JQufhYi,3ktcj4scwjer7pa8t176k0lcjvpm1b,3strjbfxo04zd5k81aj20d8v047ktu,9JQufhYi,2020-0188,2020-11-21,12:53:49,13:11:19,NA,incomplete,128,color,0,left,Blue_Circle_Grid_1.jpg,Blue_Plus_Stripes_4.jpg,Red_Star_Dots_1.jpg,left,465.55500000249594,true,high,false
9JQufhYi,3ktcj4scwjer7pa8t176k0lcjvpm1b,3strjbfxo04zd5k81aj20d8v047ktu,9JQufhYi,2020-0188,2020-11-21,12:53:49,13:11:19,NA,incomplete,129,color,1,left,Green_Plus_Stripes_4.jpg,Green_Star_Grid_2.jpg,Purple_Circle_Dots_4.jpg,left,575.4399999277666,true,high,false
9JQufhYi,3ktcj4scwjer7pa8t176k0lcjvpm1b,3strjbfxo04zd5k81aj20d8v047ktu,9JQufhYi,2020-0188,2020-11-21,12:53:49,13:11:19,NA,incomplete,130,color,1,left,Purple_Circle_Dots_2.jpg,Purple_Plus_Grid_3.jpg,Blue_Star_Chess_2.jpg,left,505.18999993801117,true,high,false
9JQufhYi,3ktcj4scwjer7pa8t176k0lcjvpm1b,3strjbfxo04zd5k81aj20d8v047ktu,9JQufhYi,2020-0188,2020-11-21,12:53:49,13:11:19,NA,incomplete,131,color,1,right,Red_Star_Chess_1.jpg,Green_Circle_Grid_1.jpg,Red_Triangle_Stripes_3.jpg,right,477.1750000072643,true,high,false
9JQufhYi,3ktcj4scwjer7pa8t176k0lcjvpm1b,3strjbfxo04zd5k81aj20d8v047ktu,9JQufhYi,2020-0188,2020-11-21,12:53:49,13:11:19,NA,incomplete,132,color,1,left,Purple_Circle_Dots_3.jpg,Purple_Plus_Chess_1.jpg,Blue_Triangle_Grid_3.jpg,left,639.2850000411272,true,high,false
9JQufhYi,3ktcj4scwjer7pa8t176k0lcjvpm1b,3strjbfxo04zd5k81aj20d8v047ktu,9JQufhYi,2020-0188,2020-11-21,12:53:49,13:11:19,NA,incomplete,133,color,0,left,Green_Star_Chess_3.jpg,Green_Triangle_Dots_2.jpg,Red_Plus_Grid_3.jpg,left,667.6300000399351,true,high,false
9JQufhYi,3ktcj4scwjer7pa8t176k0lcjvpm1b,3strjbfxo04zd5k81aj20d8v047ktu,9JQufhYi,2020-0188,2020-11-21,12:53:49,13:11:19,NA,incomplete,134,color,1,left,Green_Circle_Dots_1.jpg,Green_Triangle_Chess_3.jpg,Blue_Plus_Grid_1.jpg,left,640.0050000520423,true,high,false
9JQufhYi,3ktcj4scwjer7pa8t176k0lcjvpm1b,3strjbfxo04zd5k81aj20d8v047ktu,9JQufhYi,2020-0188,2020-11-21,12:53:49,13:11:19,NA,incomplete,135,color,1,left,Green_Circle_Dots_1.jpg,Green_Plus_Grid_4.jpg,Blue_Triangle_Chess_1.jpg,left,441.8049999512732,true,high,false
9JQufhYi,3ktcj4scwjer7pa8t176k0lcjvpm1b,3strjbfxo04zd5k81aj20d8v047ktu,9JQufhYi,2020-0188,2020-11-21,12:53:49,13:11:19,NA,incomplete,136,color,0,right,Blue_Circle_Chess_3.jpg,Green_Star_Stripes_3.jpg,Blue_Triangle_Dots_2.jpg,right,428.3649999415502,true,high,false
9JQufhYi,3ktcj4scwjer7pa8t176k0lcjvpm1b,3strjbfxo04zd5k81aj20d8v047ktu,9JQufhYi,2020-0188,2020-11-21,12:53:49,13:11:19,NA,incomplete,137,color,1,left,Red_Plus_Dots_2.jpg,Red_Star_Stripes_1.jpg,Blue_Circle_Chess_2.jpg,right,1552.3200000170618,false,high,false
9JQufhYi,3ktcj4scwjer7pa8t176k0lcjvpm1b,3strjbfxo04zd5k81aj20d8v047ktu,9JQufhYi,2020-0188,2020-11-21,12:53:49,13:11:19,NA,incomplete,138,color,0,right,Blue_Triangle_Dots_1.jpg,Purple_Star_Chess_1.jpg,Blue_Plus_Grid_4.jpg,left,1114.7700001019984,false,high,false
9JQufhYi,3ktcj4scwjer7pa8t176k0lcjvpm1b,3strjbfxo04zd5k81aj20d8v047ktu,9JQufhYi,2020-0188,2020-11-21,12:53:49,13:11:19,NA,incomplete,139,color,1,right,Green_Plus_Dots_2.jpg,Red_Circle_Stripes_2.jpg,Green_Triangle_Grid_4.jpg,left,809.4600000185892,false,high,false
9JQufhYi,3ktcj4scwjer7pa8t176k0lcjvpm1b,3strjbfxo04zd5k81aj20d8v047ktu,9JQufhYi,2020-0188,2020-11-21,12:53:49,13:11:19,NA,incomplete,140,number,1,right,Red_Circle_Chess_2.jpg,Red_Plus_Stripes_3.jpg,Green_Star_Dots_2.jpg,right,773.4149999450892,true,high,false
9JQufhYi,3ktcj4scwjer7pa8t176k0lcjvpm1b,3strjbfxo04zd5k81aj20d8v047ktu,9JQufhYi,2020-0188,2020-11-21,12:53:49,13:11:19,NA,incomplete,141,number,0,right,Green_Star_Chess_2.jpg,Green_Circle_Grid_4.jpg,Blue_Plus_Dots_2.jpg,right,507.02000001911074,true,high,false
9JQufhYi,3ktcj4scwjer7pa8t176k0lcjvpm1b,3strjbfxo04zd5k81aj20d8v047ktu,9JQufhYi,2020-0188,2020-11-21,12:53:49,13:11:19,NA,incomplete,142,number,1,left,Red_Star_Dots_2.jpg,Blue_Circle_Stripes_2.jpg,Red_Triangle_Grid_4.jpg,left,1163.605000008829,true,high,false
9JQufhYi,3ktcj4scwjer7pa8t176k0lcjvpm1b,3strjbfxo04zd5k81aj20d8v047ktu,9JQufhYi,2020-0188,2020-11-21,12:53:49,13:11:19,NA,incomplete,143,number,1,right,Red_Circle_Grid_1.jpg,Red_Plus_Stripes_3.jpg,Blue_Star_Dots_1.jpg,right,701.3900000602007,true,high,false
9JQufhYi,3ktcj4scwjer7pa8t176k0lcjvpm1b,3strjbfxo04zd5k81aj20d8v047ktu,9JQufhYi,2020-0188,2020-11-21,12:53:49,13:11:19,NA,incomplete,144,number,0,left,Blue_Plus_Chess_4.jpg,Purple_Circle_Stripes_4.jpg,Blue_Triangle_Grid_2.jpg,left,650.400000042282,true,high,false
9JQufhYi,3ktcj4scwjer7pa8t176k0lcjvpm1b,3strjbfxo04zd5k81aj20d8v047ktu,9JQufhYi,2020-0188,2020-11-21,12:53:49,13:11:19,NA,incomplete,145,number,1,left,Green_Star_Grid_2.jpg,Purple_Plus_Chess_2.jpg,Green_Triangle_Stripes_4.jpg,left,674.144999939017,true,high,false
9JQufhYi,3ktcj4scwjer7pa8t176k0lcjvpm1b,3strjbfxo04zd5k81aj20d8v047ktu,9JQufhYi,2020-0188,2020-11-21,12:53:49,13:11:19,NA,incomplete,146,number,1,right,Red_Triangle_Dots_2.jpg,Red_Plus_Grid_1.jpg,Blue_Circle_Stripes_2.jpg,right,701.0899999877438,true,high,false
9JQufhYi,3ktcj4scwjer7pa8t176k0lcjvpm1b,3strjbfxo04zd5k81aj20d8v047ktu,9JQufhYi,2020-0188,2020-11-21,12:53:49,13:11:19,NA,incomplete,147,number,0,left,Blue_Star_Chess_2.jpg,Red_Plus_Stripes_2.jpg,Blue_Triangle_Grid_4.jpg,left,747.135000070557,true,high,false
9JQufhYi,3ktcj4scwjer7pa8t176k0lcjvpm1b,3strjbfxo04zd5k81aj20d8v047ktu,9JQufhYi,2020-0188,2020-11-21,12:53:49,13:11:19,NA,incomplete,148,number,1,right,Red_Circle_Grid_3.jpg,Red_Star_Dots_4.jpg,Purple_Plus_Stripes_3.jpg,left,803.4549999283627,false,high,false
9JQufhYi,3ktcj4scwjer7pa8t176k0lcjvpm1b,3strjbfxo04zd5k81aj20d8v047ktu,9JQufhYi,2020-0188,2020-11-21,12:53:49,13:11:19,NA,incomplete,149,number,0,left,Green_Star_Dots_3.jpg,Purple_Circle_Grid_3.jpg,Green_Triangle_Stripes_4.jpg,right,776.1600000085309,false,high,false
9JQufhYi,3ktcj4scwjer7pa8t176k0lcjvpm1b,3strjbfxo04zd5k81aj20d8v047ktu,9JQufhYi,2020-0188,2020-11-21,12:53:49,13:11:19,NA,incomplete,150,number,1,right,Red_Plus_Dots_3.jpg,Red_Circle_Grid_1.jpg,Green_Triangle_Chess_3.jpg,left,1332.2950000874698,false,high,false
9JQufhYi,3ktcj4scwjer7pa8t176k0lcjvpm1b,3strjbfxo04zd5k81aj20d8v047ktu,9JQufhYi,2020-0188,2020-11-21,12:53:49,13:11:19,NA,incomplete,151,number,1,left,Green_Triangle_Chess_4.jpg,Red_Circle_Dots_4.jpg,Green_Star_Grid_1.jpg,right,577.5150000117719,false,high,false
9JQufhYi,3ktcj4scwjer7pa8t176k0lcjvpm1b,3strjbfxo04zd5k81aj20d8v047ktu,9JQufhYi,2020-0188,2020-11-21,12:53:49,13:11:19,NA,incomplete,152,number,1,right,Red_Star_Stripes_2.jpg,Red_Plus_Grid_4.jpg,Blue_Triangle_Dots_2.jpg,left,748.8000000594184,false,high,false
9JQufhYi,3ktcj4scwjer7pa8t176k0lcjvpm1b,3strjbfxo04zd5k81aj20d8v047ktu,9JQufhYi,2020-0188,2020-11-21,12:53:49,13:11:19,NA,incomplete,153,number,1,left,Green_Triangle_Grid_2.jpg,Red_Star_Chess_2.jpg,Green_Plus_Dots_1.jpg,right,665.6649999786168,false,high,false
9JQufhYi,3ktcj4scwjer7pa8t176k0lcjvpm1b,3strjbfxo04zd5k81aj20d8v047ktu,9JQufhYi,2020-0188,2020-11-21,12:53:49,13:11:19,NA,incomplete,154,number,1,right,Green_Triangle_Grid_4.jpg,Green_Star_Dots_3.jpg,Blue_Circle_Chess_4.jpg,right,813.0449999589473,true,high,false
9JQufhYi,3ktcj4scwjer7pa8t176k0lcjvpm1b,3strjbfxo04zd5k81aj20d8v047ktu,9JQufhYi,2020-0188,2020-11-21,12:53:49,13:11:19,NA,incomplete,155,number,0,left,Green_Triangle_Chess_4.jpg,Red_Circle_Dots_4.jpg,Green_Star_Stripes_2.jpg,left,729.4150000670925,true,high,false
9JQufhYi,3ktcj4scwjer7pa8t176k0lcjvpm1b,3strjbfxo04zd5k81aj20d8v047ktu,9JQufhYi,2020-0188,2020-11-21,12:53:49,13:11:19,NA,incomplete,156,number,1,left,Blue_Plus_Grid_1.jpg,Green_Triangle_Chess_1.jpg,Blue_Star_Dots_2.jpg,left,687.9550000885502,true,high,false
9JQufhYi,3ktcj4scwjer7pa8t176k0lcjvpm1b,3strjbfxo04zd5k81aj20d8v047ktu,9JQufhYi,2020-0188,2020-11-21,12:53:49,13:11:19,NA,incomplete,157,number,1,left,Red_Triangle_Grid_1.jpg,Blue_Star_Chess_1.jpg,Red_Plus_Dots_2.jpg,left,603.2499999273568,true,high,false
9JQufhYi,3ktcj4scwjer7pa8t176k0lcjvpm1b,3strjbfxo04zd5k81aj20d8v047ktu,9JQufhYi,2020-0188,2020-11-21,12:53:49,13:11:19,NA,incomplete,158,number,1,left,Purple_Plus_Grid_3.jpg,Blue_Circle_Chess_3.jpg,Purple_Star_Stripes_2.jpg,left,717.5949999364093,true,high,false
9JQufhYi,3ktcj4scwjer7pa8t176k0lcjvpm1b,3strjbfxo04zd5k81aj20d8v047ktu,9JQufhYi,2020-0188,2020-11-21,12:53:49,13:11:19,NA,incomplete,159,number,1,left,Red_Plus_Chess_4.jpg,Green_Triangle_Stripes_4.jpg,Red_Star_Grid_2.jpg,left,630.8000000426546,true,high,false
9JQufhYi,3ktcj4scwjer7pa8t176k0lcjvpm1b,3strjbfxo04zd5k81aj20d8v047ktu,9JQufhYi,2020-0188,2020-11-21,12:53:49,13:11:19,NA,incomplete,160,color,1,left,Blue_Circle_Grid_2.jpg,Blue_Star_Dots_3.jpg,Purple_Triangle_Chess_2.jpg,right,582.8400000464171,false,high,false
9JQufhYi,3ktcj4scwjer7pa8t176k0lcjvpm1b,3strjbfxo04zd5k81aj20d8v047ktu,9JQufhYi,2020-0188,2020-11-21,12:53:49,13:11:19,NA,incomplete,161,color,1,left,Purple_Plus_Stripes_2.jpg,Purple_Star_Chess_4.jpg,Red_Triangle_Dots_2.jpg,right,689.0349999302998,false,high,false
9JQufhYi,3ktcj4scwjer7pa8t176k0lcjvpm1b,3strjbfxo04zd5k81aj20d8v047ktu,9JQufhYi,2020-0188,2020-11-21,12:53:49,13:11:19,NA,incomplete,162,color,1,left,Green_Star_Dots_4.jpg,Green_Circle_Grid_1.jpg,Purple_Triangle_Chess_4.jpg,left,545.6650000996888,true,high,false
9JQufhYi,3ktcj4scwjer7pa8t176k0lcjvpm1b,3strjbfxo04zd5k81aj20d8v047ktu,9JQufhYi,2020-0188,2020-11-21,12:53:49,13:11:19,NA,incomplete,163,color,0,right,Purple_Triangle_Chess_4.jpg,Blue_Circle_Stripes_4.jpg,Purple_Star_Grid_3.jpg,right,602.0700000226498,true,high,false
9JQufhYi,3ktcj4scwjer7pa8t176k0lcjvpm1b,3strjbfxo04zd5k81aj20d8v047ktu,9JQufhYi,2020-0188,2020-11-21,12:53:49,13:11:19,NA,incomplete,164,color,1,left,Blue_Star_Chess_2.jpg,Blue_Plus_Stripes_3.jpg,Green_Circle_Dots_2.jpg,left,442.5249999621883,true,high,false
9JQufhYi,3ktcj4scwjer7pa8t176k0lcjvpm1b,3strjbfxo04zd5k81aj20d8v047ktu,9JQufhYi,2020-0188,2020-11-21,12:53:49,13:11:19,NA,incomplete,165,color,1,right,Red_Triangle_Grid_3.jpg,Blue_Plus_Dots_3.jpg,Red_Circle_Chess_2.jpg,right,526.1249999748543,true,high,false
9JQufhYi,3ktcj4scwjer7pa8t176k0lcjvpm1b,3strjbfxo04zd5k81aj20d8v047ktu,9JQufhYi,2020-0188,2020-11-21,12:53:49,13:11:19,NA,incomplete,166,color,1,right,Purple_Plus_Grid_1.jpg,Green_Circle_Chess_1.jpg,Purple_Triangle_Stripes_2.jpg,right,679.1449999436736,true,high,false
9JQufhYi,3ktcj4scwjer7pa8t176k0lcjvpm1b,3strjbfxo04zd5k81aj20d8v047ktu,9JQufhYi,2020-0188,2020-11-21,12:53:49,13:11:19,NA,incomplete,167,color,1,left,Purple_Star_Grid_3.jpg,Purple_Plus_Dots_4.jpg,Blue_Triangle_Stripes_3.jpg,left,547.3750000819564,true,high,false
9JQufhYi,3ktcj4scwjer7pa8t176k0lcjvpm1b,3strjbfxo04zd5k81aj20d8v047ktu,9JQufhYi,2020-0188,2020-11-21,12:53:49,13:11:19,NA,incomplete,168,color,1,right,Blue_Triangle_Stripes_3.jpg,Purple_Circle_Chess_3.jpg,Blue_Plus_Dots_1.jpg,right,528.7300000200048,true,high,false
9JQufhYi,3ktcj4scwjer7pa8t176k0lcjvpm1b,3strjbfxo04zd5k81aj20d8v047ktu,9JQufhYi,2020-0188,2020-11-21,12:53:49,13:11:19,NA,incomplete,169,color,1,right,Red_Circle_Chess_2.jpg,Purple_Plus_Grid_2.jpg,Red_Star_Stripes_4.jpg,right,600.1399999950081,true,high,false
9JQufhYi,3ktcj4scwjer7pa8t176k0lcjvpm1b,3strjbfxo04zd5k81aj20d8v047ktu,9JQufhYi,2020-0188,2020-11-21,12:53:49,13:11:19,NA,incomplete,170,color,0,left,Purple_Triangle_Dots_4.jpg,Purple_Plus_Grid_1.jpg,Red_Star_Chess_4.jpg,left,481.2699999893084,true,high,false
9JQufhYi,3ktcj4scwjer7pa8t176k0lcjvpm1b,3strjbfxo04zd5k81aj20d8v047ktu,9JQufhYi,2020-0188,2020-11-21,12:53:49,13:11:19,NA,incomplete,171,color,1,left,Green_Triangle_Stripes_3.jpg,Green_Circle_Chess_1.jpg,Red_Star_Dots_3.jpg,left,544.6399999782443,true,high,false
9JQufhYi,3ktcj4scwjer7pa8t176k0lcjvpm1b,3strjbfxo04zd5k81aj20d8v047ktu,9JQufhYi,2020-0188,2020-11-21,12:53:49,13:11:19,NA,incomplete,172,color,0,left,Green_Plus_Grid_3.jpg,Green_Circle_Dots_2.jpg,Red_Triangle_Stripes_3.jpg,left,444.04500001110137,true,high,false
9JQufhYi,3ktcj4scwjer7pa8t176k0lcjvpm1b,3strjbfxo04zd5k81aj20d8v047ktu,9JQufhYi,2020-0188,2020-11-21,12:53:49,13:11:19,NA,incomplete,173,color,1,right,Purple_Star_Grid_2.jpg,Green_Circle_Chess_2.jpg,Purple_Triangle_Stripes_3.jpg,right,445.36000001244247,true,high,false
9JQufhYi,3ktcj4scwjer7pa8t176k0lcjvpm1b,3strjbfxo04zd5k81aj20d8v047ktu,9JQufhYi,2020-0188,2020-11-21,12:53:49,13:11:19,NA,incomplete,174,color,1,left,Green_Circle_Stripes_4.jpg,Green_Plus_Grid_3.jpg,Red_Star_Chess_4.jpg,left,359.6200000029057,true,high,false
9JQufhYi,3ktcj4scwjer7pa8t176k0lcjvpm1b,3strjbfxo04zd5k81aj20d8v047ktu,9JQufhYi,2020-0188,2020-11-21,12:53:49,13:11:19,NA,incomplete,175,color,1,right,Green_Circle_Stripes_3.jpg,Red_Triangle_Chess_3.jpg,Green_Plus_Dots_4.jpg,right,415.87499994784594,true,high,false
9JQufhYi,3ktcj4scwjer7pa8t176k0lcjvpm1b,3strjbfxo04zd5k81aj20d8v047ktu,9JQufhYi,2020-0188,2020-11-21,12:53:49,13:11:19,NA,incomplete,176,color,1,right,Blue_Circle_Grid_3.jpg,Purple_Triangle_Stripes_3.jpg,Blue_Star_Dots_1.jpg,right,646.6199998976663,true,high,false
9JQufhYi,3ktcj4scwjer7pa8t176k0lcjvpm1b,3strjbfxo04zd5k81aj20d8v047ktu,9JQufhYi,2020-0188,2020-11-21,12:53:49,13:11:19,NA,incomplete,177,color,0,right,Red_Star_Chess_3.jpg,Blue_Plus_Dots_3.jpg,Red_Circle_Grid_4.jpg,right,514.6149999927729,true,high,false
9JQufhYi,3ktcj4scwjer7pa8t176k0lcjvpm1b,3strjbfxo04zd5k81aj20d8v047ktu,9JQufhYi,2020-0188,2020-11-21,12:53:49,13:11:19,NA,incomplete,178,color,1,left,Green_Star_Chess_3.jpg,Green_Triangle_Stripes_2.jpg,Purple_Plus_Grid_3.jpg,left,464.670000015758,true,high,false
9JQufhYi,3ktcj4scwjer7pa8t176k0lcjvpm1b,3strjbfxo04zd5k81aj20d8v047ktu,9JQufhYi,2020-0188,2020-11-21,12:53:49,13:11:19,NA,incomplete,179,color,0,right,Green_Circle_Stripes_4.jpg,Purple_Star_Grid_4.jpg,Green_Triangle_Chess_1.jpg,right,486.6349999792874,true,high,false
9JQufhYi,3ktcj4scwjer7pa8t176k0lcjvpm1b,3strjbfxo04zd5k81aj20d8v047ktu,9JQufhYi,2020-0188,2020-11-21,12:53:49,13:11:19,NA,incomplete,180,number,1,left,Red_Triangle_Dots_2.jpg,Green_Circle_Chess_2.jpg,Red_Star_Stripes_1.jpg,right,558.324999990873,false,high,false
9JQufhYi,3ktcj4scwjer7pa8t176k0lcjvpm1b,3strjbfxo04zd5k81aj20d8v047ktu,9JQufhYi,2020-0188,2020-11-21,12:53:49,13:11:19,NA,incomplete,181,number,1,right,Blue_Circle_Grid_2.jpg,Blue_Star_Dots_4.jpg,Purple_Plus_Stripes_2.jpg,right,634.4900000840425,true,high,false
9JQufhYi,3ktcj4scwjer7pa8t176k0lcjvpm1b,3strjbfxo04zd5k81aj20d8v047ktu,9JQufhYi,2020-0188,2020-11-21,12:53:49,13:11:19,NA,incomplete,182,number,0,left,Red_Plus_Stripes_1.jpg,Green_Triangle_Grid_1.jpg,Red_Star_Dots_4.jpg,left,610.1550000021234,true,high,false
9JQufhYi,3ktcj4scwjer7pa8t176k0lcjvpm1b,3strjbfxo04zd5k81aj20d8v047ktu,9JQufhYi,2020-0188,2020-11-21,12:53:49,13:11:19,NA,incomplete,183,number,1,right,Green_Star_Chess_1.jpg,Green_Plus_Dots_2.jpg,Blue_Circle_Grid_1.jpg,right,592.8699999349192,true,high,false
9JQufhYi,3ktcj4scwjer7pa8t176k0lcjvpm1b,3strjbfxo04zd5k81aj20d8v047ktu,9JQufhYi,2020-0188,2020-11-21,12:53:49,13:11:19,NA,incomplete,184,number,1,left,Purple_Circle_Dots_3.jpg,Red_Triangle_Stripes_3.jpg,Purple_Plus_Chess_1.jpg,left,645.8600000478327,true,high,false
9JQufhYi,3ktcj4scwjer7pa8t176k0lcjvpm1b,3strjbfxo04zd5k81aj20d8v047ktu,9JQufhYi,2020-0188,2020-11-21,12:53:49,13:11:19,NA,incomplete,185,number,1,left,Red_Circle_Chess_4.jpg,Green_Plus_Stripes_4.jpg,Red_Triangle_Grid_2.jpg,left,1020.2499999431893,true,high,false
9JQufhYi,3ktcj4scwjer7pa8t176k0lcjvpm1b,3strjbfxo04zd5k81aj20d8v047ktu,9JQufhYi,2020-0188,2020-11-21,12:53:49,13:11:19,NA,incomplete,186,number,1,right,Red_Star_Chess_4.jpg,Red_Triangle_Dots_3.jpg,Blue_Plus_Grid_4.jpg,right,892.8450000239536,true,high,false
9JQufhYi,3ktcj4scwjer7pa8t176k0lcjvpm1b,3strjbfxo04zd5k81aj20d8v047ktu,9JQufhYi,2020-0188,2020-11-21,12:53:49,13:11:19,NA,incomplete,187,number,1,left,Green_Circle_Dots_4.jpg,Red_Plus_Chess_4.jpg,Green_Star_Grid_2.jpg,right,581.1850000172853,false,high,false
9JQufhYi,3ktcj4scwjer7pa8t176k0lcjvpm1b,3strjbfxo04zd5k81aj20d8v047ktu,9JQufhYi,2020-0188,2020-11-21,12:53:49,13:11:19,NA,incomplete,188,number,1,right,Purple_Plus_Grid_2.jpg,Purple_Star_Chess_1.jpg,Red_Triangle_Dots_2.jpg,left,612.7599999308586,false,high,false
9JQufhYi,3ktcj4scwjer7pa8t176k0lcjvpm1b,3strjbfxo04zd5k81aj20d8v047ktu,9JQufhYi,2020-0188,2020-11-21,12:53:49,13:11:19,NA,incomplete,189,number,1,right,Blue_Plus_Chess_3.jpg,Blue_Star_Stripes_1.jpg,Red_Circle_Dots_3.jpg,left,771.4550000382587,false,high,false
9JQufhYi,3ktcj4scwjer7pa8t176k0lcjvpm1b,3strjbfxo04zd5k81aj20d8v047ktu,9JQufhYi,2020-0188,2020-11-21,12:53:49,13:11:19,NA,incomplete,190,number,1,right,Red_Triangle_Grid_1.jpg,Red_Plus_Stripes_3.jpg,Purple_Star_Chess_1.jpg,right,759.2149999691173,true,high,false
9JQufhYi,3ktcj4scwjer7pa8t176k0lcjvpm1b,3strjbfxo04zd5k81aj20d8v047ktu,9JQufhYi,2020-0188,2020-11-21,12:53:49,13:11:19,NA,incomplete,191,number,1,left,Purple_Circle_Dots_1.jpg,Green_Star_Grid_1.jpg,Purple_Plus_Stripes_2.jpg,left,716.9049999210984,true,high,false
9JQufhYi,3ktcj4scwjer7pa8t176k0lcjvpm1b,3strjbfxo04zd5k81aj20d8v047ktu,9JQufhYi,2020-0188,2020-11-21,12:53:49,13:11:19,NA,incomplete,192,number,1,right,Purple_Triangle_Stripes_3.jpg,Purple_Circle_Grid_4.jpg,Red_Star_Chess_3.jpg,right,663.3450000081211,true,high,false
9JQufhYi,3ktcj4scwjer7pa8t176k0lcjvpm1b,3strjbfxo04zd5k81aj20d8v047ktu,9JQufhYi,2020-0188,2020-11-21,12:53:49,13:11:19,NA,incomplete,193,number,1,left,Blue_Plus_Grid_1.jpg,Green_Triangle_Dots_1.jpg,Blue_Star_Chess_3.jpg,left,663.1549999583513,true,high,false
9JQufhYi,3ktcj4scwjer7pa8t176k0lcjvpm1b,3strjbfxo04zd5k81aj20d8v047ktu,9JQufhYi,2020-0188,2020-11-21,12:53:49,13:11:19,NA,incomplete,194,number,1,left,Blue_Plus_Stripes_4.jpg,Green_Circle_Dots_4.jpg,Blue_Star_Grid_1.jpg,left,620.5099999206141,true,high,false
9JQufhYi,3ktcj4scwjer7pa8t176k0lcjvpm1b,3strjbfxo04zd5k81aj20d8v047ktu,9JQufhYi,2020-0188,2020-11-21,12:53:49,13:11:19,NA,incomplete,195,number,1,left,Blue_Circle_Grid_2.jpg,Purple_Plus_Chess_2.jpg,Blue_Star_Dots_1.jpg,left,662.2799999313429,true,high,false
9JQufhYi,3ktcj4scwjer7pa8t176k0lcjvpm1b,3strjbfxo04zd5k81aj20d8v047ktu,9JQufhYi,2020-0188,2020-11-21,12:53:49,13:11:19,NA,incomplete,196,number,1,right,Purple_Circle_Stripes_2.jpg,Purple_Star_Grid_3.jpg,Red_Triangle_Chess_2.jpg,right,689.964999910444,true,high,false
9JQufhYi,3ktcj4scwjer7pa8t176k0lcjvpm1b,3strjbfxo04zd5k81aj20d8v047ktu,9JQufhYi,2020-0188,2020-11-21,12:53:49,13:11:19,NA,incomplete,197,number,1,right,Blue_Plus_Chess_2.jpg,Blue_Star_Grid_3.jpg,Purple_Triangle_Stripes_2.jpg,left,1037.6600000308827,false,high,false
9JQufhYi,3ktcj4scwjer7pa8t176k0lcjvpm1b,3strjbfxo04zd5k81aj20d8v047ktu,9JQufhYi,2020-0188,2020-11-21,12:53:49,13:11:19,NA,incomplete,198,number,1,left,Blue_Star_Grid_4.jpg,Green_Plus_Dots_4.jpg,Blue_Triangle_Stripes_1.jpg,left,557.0600000210106,true,high,false
9JQufhYi,3ktcj4scwjer7pa8t176k0lcjvpm1b,3strjbfxo04zd5k81aj20d8v047ktu,9JQufhYi,2020-0188,2020-11-21,12:53:49,13:11:19,NA,incomplete,199,number,1,left,Blue_Triangle_Grid_3.jpg,Red_Star_Chess_3.jpg,Blue_Circle_Stripes_1.jpg,left,711.6049999604002,true,high,false
9JQufhYi,3ktcj4scwjer7pa8t176k0lcjvpm1b,3strjbfxo04zd5k81aj20d8v047ktu,9JQufhYi,2020-0188,2020-11-21,12:53:49,13:11:19,NA,incomplete,200,color,1,right,Blue_Circle_Stripes_4.jpg,Green_Triangle_Grid_4.jpg,Blue_Star_Dots_2.jpg,left,642.1600000467151,false,high,false
9JQufhYi,3ktcj4scwjer7pa8t176k0lcjvpm1b,3strjbfxo04zd5k81aj20d8v047ktu,9JQufhYi,2020-0188,2020-11-21,12:53:49,13:11:19,NA,incomplete,201,color,1,left,Blue_Star_Stripes_1.jpg,Blue_Circle_Dots_4.jpg,Red_Plus_Grid_1.jpg,right,1153.0100000090897,false,high,false
9JQufhYi,3ktcj4scwjer7pa8t176k0lcjvpm1b,3strjbfxo04zd5k81aj20d8v047ktu,9JQufhYi,2020-0188,2020-11-21,12:53:49,13:11:19,NA,incomplete,202,color,1,left,Blue_Star_Grid_1.jpg,Blue_Triangle_Dots_2.jpg,Purple_Plus_Stripes_1.jpg,right,1100.8699999656528,false,high,false
9JQufhYi,3ktcj4scwjer7pa8t176k0lcjvpm1b,3strjbfxo04zd5k81aj20d8v047ktu,9JQufhYi,2020-0188,2020-11-21,12:53:49,13:11:19,NA,incomplete,203,color,0,left,Purple_Triangle_Chess_1.jpg,Purple_Circle_Stripes_4.jpg,Green_Plus_Grid_1.jpg,left,549.7100000502542,true,high,false
9JQufhYi,3ktcj4scwjer7pa8t176k0lcjvpm1b,3strjbfxo04zd5k81aj20d8v047ktu,9JQufhYi,2020-0188,2020-11-21,12:53:49,13:11:19,NA,incomplete,204,color,1,right,Red_Star_Stripes_1.jpg,Purple_Plus_Dots_1.jpg,Red_Circle_Chess_3.jpg,right,533.3849999587983,true,high,false
9JQufhYi,3ktcj4scwjer7pa8t176k0lcjvpm1b,3strjbfxo04zd5k81aj20d8v047ktu,9JQufhYi,2020-0188,2020-11-21,12:53:49,13:11:19,NA,incomplete,205,color,1,left,Blue_Circle_Chess_4.jpg,Blue_Star_Grid_3.jpg,Red_Plus_Dots_4.jpg,left,567.0199999585748,true,high,false
9JQufhYi,3ktcj4scwjer7pa8t176k0lcjvpm1b,3strjbfxo04zd5k81aj20d8v047ktu,9JQufhYi,2020-0188,2020-11-21,12:53:49,13:11:19,NA,incomplete,206,color,0,right,Green_Star_Dots_2.jpg,Blue_Plus_Chess_2.jpg,Green_Triangle_Stripes_1.jpg,right,524.3699999991804,true,high,false
9JQufhYi,3ktcj4scwjer7pa8t176k0lcjvpm1b,3strjbfxo04zd5k81aj20d8v047ktu,9JQufhYi,2020-0188,2020-11-21,12:53:49,13:11:19,NA,incomplete,207,color,1,right,Blue_Star_Stripes_1.jpg,Purple_Circle_Chess_1.jpg,Blue_Triangle_Dots_4.jpg,right,403.76000001560897,true,high,false
9JQufhYi,3ktcj4scwjer7pa8t176k0lcjvpm1b,3strjbfxo04zd5k81aj20d8v047ktu,9JQufhYi,2020-0188,2020-11-21,12:53:49,13:11:19,NA,incomplete,208,color,0,right,Purple_Circle_Dots_2.jpg,Blue_Plus_Chess_2.jpg,Purple_Star_Grid_1.jpg,right,489.68999995850027,true,high,false
9JQufhYi,3ktcj4scwjer7pa8t176k0lcjvpm1b,3strjbfxo04zd5k81aj20d8v047ktu,9JQufhYi,2020-0188,2020-11-21,12:53:49,13:11:19,NA,incomplete,209,color,1,left,Blue_Star_Dots_4.jpg,Blue_Circle_Chess_1.jpg,Purple_Plus_Stripes_4.jpg,left,500.4200000548735,true,high,false
9JQufhYi,3ktcj4scwjer7pa8t176k0lcjvpm1b,3strjbfxo04zd5k81aj20d8v047ktu,9JQufhYi,2020-0188,2020-11-21,12:53:49,13:11:19,NA,incomplete,210,color,1,left,Purple_Plus_Dots_4.jpg,Purple_Circle_Chess_3.jpg,Blue_Triangle_Stripes_4.jpg,left,502.7199999894947,true,high,false
9JQufhYi,3ktcj4scwjer7pa8t176k0lcjvpm1b,3strjbfxo04zd5k81aj20d8v047ktu,9JQufhYi,2020-0188,2020-11-21,12:53:49,13:11:19,NA,incomplete,211,color,1,left,Blue_Circle_Grid_3.jpg,Blue_Triangle_Chess_2.jpg,Red_Star_Dots_3.jpg,left,514.8050000425428,true,high,false
9JQufhYi,3ktcj4scwjer7pa8t176k0lcjvpm1b,3strjbfxo04zd5k81aj20d8v047ktu,9JQufhYi,2020-0188,2020-11-21,12:53:49,13:11:19,NA,incomplete,212,color,1,right,Purple_Star_Stripes_3.jpg,Blue_Circle_Grid_3.jpg,Purple_Plus_Chess_2.jpg,right,480.64500000327826,true,high,false
9JQufhYi,3ktcj4scwjer7pa8t176k0lcjvpm1b,3strjbfxo04zd5k81aj20d8v047ktu,9JQufhYi,2020-0188,2020-11-21,12:53:49,13:11:19,NA,incomplete,213,color,1,right,Red_Plus_Grid_1.jpg,Blue_Circle_Chess_1.jpg,Red_Star_Dots_2.jpg,right,776.4200000092387,true,high,false
9JQufhYi,3ktcj4scwjer7pa8t176k0lcjvpm1b,3strjbfxo04zd5k81aj20d8v047ktu,9JQufhYi,2020-0188,2020-11-21,12:53:49,13:11:19,NA,incomplete,214,color,0,right,Green_Star_Grid_3.jpg,Blue_Circle_Dots_3.jpg,Green_Plus_Stripes_4.jpg,right,527.254999964498,true,high,false
9JQufhYi,3ktcj4scwjer7pa8t176k0lcjvpm1b,3strjbfxo04zd5k81aj20d8v047ktu,9JQufhYi,2020-0188,2020-11-21,12:53:49,13:11:19,NA,incomplete,215,color,1,right,Green_Triangle_Chess_1.jpg,Purple_Circle_Stripes_1.jpg,Green_Star_Grid_4.jpg,right,494.0550000173971,true,high,false
9JQufhYi,3ktcj4scwjer7pa8t176k0lcjvpm1b,3strjbfxo04zd5k81aj20d8v047ktu,9JQufhYi,2020-0188,2020-11-21,12:53:49,13:11:19,NA,incomplete,216,color,1,left,Purple_Triangle_Grid_1.jpg,Purple_Star_Stripes_4.jpg,Blue_Circle_Chess_1.jpg,left,453.4749999875203,true,high,false
9JQufhYi,3ktcj4scwjer7pa8t176k0lcjvpm1b,3strjbfxo04zd5k81aj20d8v047ktu,9JQufhYi,2020-0188,2020-11-21,12:53:49,13:11:19,NA,incomplete,217,color,0,right,Purple_Star_Stripes_4.jpg,Red_Triangle_Dots_4.jpg,Purple_Plus_Grid_3.jpg,right,499.99499996192753,true,high,false
9JQufhYi,3ktcj4scwjer7pa8t176k0lcjvpm1b,3strjbfxo04zd5k81aj20d8v047ktu,9JQufhYi,2020-0188,2020-11-21,12:53:49,13:11:19,NA,incomplete,218,color,1,right,Red_Plus_Grid_4.jpg,Blue_Triangle_Dots_4.jpg,Red_Star_Chess_3.jpg,right,407.20999997574836,true,high,false
9JQufhYi,3ktcj4scwjer7pa8t176k0lcjvpm1b,3strjbfxo04zd5k81aj20d8v047ktu,9JQufhYi,2020-0188,2020-11-21,12:53:49,13:11:19,NA,incomplete,219,color,1,right,Purple_Star_Chess_1.jpg,Green_Circle_Dots_1.jpg,Purple_Plus_Stripes_3.jpg,right,425.64500006847084,true,high,false
9JQufhYi,3ktcj4scwjer7pa8t176k0lcjvpm1b,3strjbfxo04zd5k81aj20d8v047ktu,9JQufhYi,2020-0188,2020-11-21,12:53:49,13:11:19,NA,incomplete,220,number,1,right,Green_Star_Chess_2.jpg,Green_Circle_Stripes_1.jpg,Red_Plus_Grid_2.jpg,left,449.10999992862344,false,high,false
9JQufhYi,3ktcj4scwjer7pa8t176k0lcjvpm1b,3strjbfxo04zd5k81aj20d8v047ktu,9JQufhYi,2020-0188,2020-11-21,12:53:49,13:11:19,NA,incomplete,221,number,1,right,Purple_Triangle_Dots_4.jpg,Purple_Circle_Chess_1.jpg,Blue_Star_Stripes_4.jpg,left,665.0849999859929,false,high,false
9JQufhYi,3ktcj4scwjer7pa8t176k0lcjvpm1b,3strjbfxo04zd5k81aj20d8v047ktu,9JQufhYi,2020-0188,2020-11-21,12:53:49,13:11:19,NA,incomplete,222,number,1,left,Green_Triangle_Stripes_3.jpg,Purple_Circle_Grid_3.jpg,Green_Plus_Dots_4.jpg,left,660.6299999402836,true,high,false
9JQufhYi,3ktcj4scwjer7pa8t176k0lcjvpm1b,3strjbfxo04zd5k81aj20d8v047ktu,9JQufhYi,2020-0188,2020-11-21,12:53:49,13:11:19,NA,incomplete,223,number,1,right,Purple_Triangle_Grid_3.jpg,Purple_Circle_Stripes_4.jpg,Green_Star_Dots_3.jpg,right,649.6299999998882,true,high,false
9JQufhYi,3ktcj4scwjer7pa8t176k0lcjvpm1b,3strjbfxo04zd5k81aj20d8v047ktu,9JQufhYi,2020-0188,2020-11-21,12:53:49,13:11:19,NA,incomplete,224,number,1,left,Purple_Star_Grid_2.jpg,Blue_Plus_Dots_2.jpg,Purple_Triangle_Stripes_4.jpg,left,585.7400000095367,true,high,false
9JQufhYi,3ktcj4scwjer7pa8t176k0lcjvpm1b,3strjbfxo04zd5k81aj20d8v047ktu,9JQufhYi,2020-0188,2020-11-21,12:53:49,13:11:19,NA,incomplete,225,number,1,left,Green_Circle_Grid_2.jpg,Purple_Star_Dots_2.jpg,Green_Triangle_Chess_4.jpg,right,468.54499995242804,false,high,false
9JQufhYi,3ktcj4scwjer7pa8t176k0lcjvpm1b,3strjbfxo04zd5k81aj20d8v047ktu,9JQufhYi,2020-0188,2020-11-21,12:53:49,13:11:19,NA,incomplete,226,number,1,right,Red_Star_Chess_3.jpg,Red_Triangle_Grid_2.jpg,Green_Plus_Dots_3.jpg,right,664.9299999698997,true,high,false
9JQufhYi,3ktcj4scwjer7pa8t176k0lcjvpm1b,3strjbfxo04zd5k81aj20d8v047ktu,9JQufhYi,2020-0188,2020-11-21,12:53:49,13:11:19,NA,incomplete,227,number,0,right,Blue_Triangle_Grid_4.jpg,Blue_Plus_Stripes_1.jpg,Red_Circle_Dots_4.jpg,right,736.5899999858811,true,high,false
9JQufhYi,3ktcj4scwjer7pa8t176k0lcjvpm1b,3strjbfxo04zd5k81aj20d8v047ktu,9JQufhYi,2020-0188,2020-11-21,12:53:49,13:11:19,NA,incomplete,228,number,1,right,Blue_Plus_Dots_1.jpg,Blue_Star_Stripes_2.jpg,Red_Triangle_Grid_1.jpg,right,668.6650000046939,true,high,false
9JQufhYi,3ktcj4scwjer7pa8t176k0lcjvpm1b,3strjbfxo04zd5k81aj20d8v047ktu,9JQufhYi,2020-0188,2020-11-21,12:53:49,13:11:19,NA,incomplete,229,number,0,left,Blue_Star_Dots_2.jpg,Red_Triangle_Chess_2.jpg,Blue_Circle_Stripes_1.jpg,left,666.9799999799579,true,high,false
9JQufhYi,3ktcj4scwjer7pa8t176k0lcjvpm1b,3strjbfxo04zd5k81aj20d8v047ktu,9JQufhYi,2020-0188,2020-11-21,12:53:49,13:11:19,NA,incomplete,230,number,1,right,Red_Star_Dots_2.jpg,Red_Plus_Stripes_4.jpg,Blue_Triangle_Chess_2.jpg,right,661.0899999504909,true,high,false
9JQufhYi,3ktcj4scwjer7pa8t176k0lcjvpm1b,3strjbfxo04zd5k81aj20d8v047ktu,9JQufhYi,2020-0188,2020-11-21,12:53:49,13:11:19,NA,incomplete,231,number,1,right,Blue_Plus_Grid_1.jpg,Blue_Star_Chess_4.jpg,Green_Triangle_Stripes_1.jpg,right,654.2500000214204,true,high,false
9JQufhYi,3ktcj4scwjer7pa8t176k0lcjvpm1b,3strjbfxo04zd5k81aj20d8v047ktu,9JQufhYi,2020-0188,2020-11-21,12:53:49,13:11:19,NA,incomplete,232,number,1,right,Blue_Circle_Dots_4.jpg,Blue_Triangle_Chess_1.jpg,Red_Star_Stripes_4.jpg,right,1029.854999971576,true,high,false
9JQufhYi,3ktcj4scwjer7pa8t176k0lcjvpm1b,3strjbfxo04zd5k81aj20d8v047ktu,9JQufhYi,2020-0188,2020-11-21,12:53:49,13:11:19,NA,incomplete,233,number,1,left,Purple_Triangle_Dots_1.jpg,Red_Plus_Chess_1.jpg,Purple_Circle_Stripes_2.jpg,left,706.4600000157952,true,high,false
9JQufhYi,3ktcj4scwjer7pa8t176k0lcjvpm1b,3strjbfxo04zd5k81aj20d8v047ktu,9JQufhYi,2020-0188,2020-11-21,12:53:49,13:11:19,NA,incomplete,234,number,1,left,Green_Plus_Chess_3.jpg,Blue_Circle_Stripes_3.jpg,Green_Star_Grid_2.jpg,left,837.2600000584498,true,high,false
9JQufhYi,3ktcj4scwjer7pa8t176k0lcjvpm1b,3strjbfxo04zd5k81aj20d8v047ktu,9JQufhYi,2020-0188,2020-11-21,12:53:49,13:11:19,NA,incomplete,235,number,1,right,Purple_Triangle_Dots_1.jpg,Purple_Circle_Grid_2.jpg,Red_Star_Stripes_1.jpg,right,895.7299999892712,true,high,false
9JQufhYi,3ktcj4scwjer7pa8t176k0lcjvpm1b,3strjbfxo04zd5k81aj20d8v047ktu,9JQufhYi,2020-0188,2020-11-21,12:53:49,13:11:19,NA,incomplete,236,number,1,right,Red_Plus_Grid_2.jpg,Red_Triangle_Dots_1.jpg,Blue_Star_Stripes_2.jpg,right,959.5800000242889,true,high,false
9JQufhYi,3ktcj4scwjer7pa8t176k0lcjvpm1b,3strjbfxo04zd5k81aj20d8v047ktu,9JQufhYi,2020-0188,2020-11-21,12:53:49,13:11:19,NA,incomplete,237,number,1,right,Green_Triangle_Dots_2.jpg,Green_Plus_Grid_1.jpg,Blue_Star_Stripes_2.jpg,right,696.3650000980124,true,high,false
9JQufhYi,3ktcj4scwjer7pa8t176k0lcjvpm1b,3strjbfxo04zd5k81aj20d8v047ktu,9JQufhYi,2020-0188,2020-11-21,12:53:49,13:11:19,NA,incomplete,238,number,1,right,Purple_Plus_Stripes_1.jpg,Purple_Star_Chess_2.jpg,Green_Triangle_Dots_1.jpg,right,751.3249999610707,true,high,false
9JQufhYi,3ktcj4scwjer7pa8t176k0lcjvpm1b,3strjbfxo04zd5k81aj20d8v047ktu,9JQufhYi,2020-0188,2020-11-21,12:53:49,13:11:19,NA,incomplete,239,number,1,right,Red_Star_Chess_1.jpg,Red_Triangle_Grid_2.jpg,Green_Plus_Stripes_1.jpg,right,618.9699999522418,true,high,false
9JQufhYi,3ktcj4scwjer7pa8t176k0lcjvpm1b,3strjbfxo04zd5k81aj20d8v047ktu,9JQufhYi,2020-0188,2020-11-21,12:53:49,13:11:19,1008308.8749999879,1050224.8649999965,NA,NA,NA,NA,NA,NA,NA,NA,NA,NA,NA,undefined
