workerId,hitId,assignmentId,subject,studyid,exp_date,exp_start,exp_end,time_start,time_end,trial,type,reward_validity,answer,image_top,image_left,image_right,response,response_time,response_acc,volatility,age,race,gender,ethnicity,color,vision,neuro,practice
dspudva9,3vll1pieot1c2ogsesvb4yutk6poza,3tvrfo09goshesbarkw04g6f1t3xlf,dspudva9,2020-0188,2020-05-08,12:28:15,12:59:58,NA,incomplete,0,color,1,left,Red_Star_Dots_4.jpg,Red_Circle_Stripes_1.jpg,Blue_Star_Grid_2.jpg,left,1401.4250000473112,true,NA,NA,NA,NA,NA,NA,NA,NA,true
dspudva9,3vll1pieot1c2ogsesvb4yutk6poza,3tvrfo09goshesbarkw04g6f1t3xlf,dspudva9,2020-0188,2020-05-08,12:28:15,12:59:58,NA,incomplete,1,color,1,right,Red_Triangle_Dots_1.jpg,Blue_Triangle_Chess_2.jpg,Red_Circle_Grid_3.jpg,right,542.4899999052286,true,NA,NA,NA,NA,NA,NA,NA,NA,true
dspudva9,3vll1pieot1c2ogsesvb4yutk6poza,3tvrfo09goshesbarkw04g6f1t3xlf,dspudva9,2020-0188,2020-05-08,12:28:15,12:59:58,NA,incomplete,2,color,1,left,Red_Circle_Stripes_2.jpg,Red_Plus_Grid_1.jpg,Green_Circle_Dots_4.jpg,left,786.1399999819696,true,NA,NA,NA,NA,NA,NA,NA,NA,true
dspudva9,3vll1pieot1c2ogsesvb4yutk6poza,3tvrfo09goshesbarkw04g6f1t3xlf,dspudva9,2020-0188,2020-05-08,12:28:15,12:59:58,NA,incomplete,3,color,1,left,Blue_Circle_Chess_2.jpg,Blue_Triangle_Dots_3.jpg,Green_Circle_Stripes_1.jpg,left,679.2899998836219,true,NA,NA,NA,NA,NA,NA,NA,NA,true
dspudva9,3vll1pieot1c2ogsesvb4yutk6poza,3tvrfo09goshesbarkw04g6f1t3xlf,dspudva9,2020-0188,2020-05-08,12:28:15,12:59:58,NA,incomplete,4,color,1,left,Blue_Star_Chess_3.jpg,Blue_Circle_Stripes_2.jpg,Purple_Star_Grid_4.jpg,left,936.3899999298155,true,NA,NA,NA,NA,NA,NA,NA,NA,true
dspudva9,3vll1pieot1c2ogsesvb4yutk6poza,3tvrfo09goshesbarkw04g6f1t3xlf,dspudva9,2020-0188,2020-05-08,12:28:15,12:59:58,NA,incomplete,5,color,1,left,Red_Circle_Grid_2.jpg,Red_Triangle_Dots_1.jpg,Purple_Circle_Chess_3.jpg,left,674.0300001110882,true,NA,NA,NA,NA,NA,NA,NA,NA,true
dspudva9,3vll1pieot1c2ogsesvb4yutk6poza,3tvrfo09goshesbarkw04g6f1t3xlf,dspudva9,2020-0188,2020-05-08,12:28:15,12:59:58,NA,incomplete,6,color,1,left,Purple_Triangle_Grid_2.jpg,Purple_Star_Dots_1.jpg,Green_Triangle_Chess_4.jpg,left,968.8200000673532,true,NA,NA,NA,NA,NA,NA,NA,NA,true
dspudva9,3vll1pieot1c2ogsesvb4yutk6poza,3tvrfo09goshesbarkw04g6f1t3xlf,dspudva9,2020-0188,2020-05-08,12:28:15,12:59:58,NA,incomplete,7,color,1,left,Red_Star_Chess_2.jpg,Red_Triangle_Grid_1.jpg,Purple_Star_Dots_3.jpg,left,847.9999999981374,true,NA,NA,NA,NA,NA,NA,NA,NA,true
dspudva9,3vll1pieot1c2ogsesvb4yutk6poza,3tvrfo09goshesbarkw04g6f1t3xlf,dspudva9,2020-0188,2020-05-08,12:28:15,12:59:58,NA,incomplete,8,color,1,right,Red_Triangle_Chess_4.jpg,Green_Triangle_Grid_1.jpg,Red_Circle_Dots_2.jpg,right,637.7100001554936,true,NA,NA,NA,NA,NA,NA,NA,NA,true
dspudva9,3vll1pieot1c2ogsesvb4yutk6poza,3tvrfo09goshesbarkw04g6f1t3xlf,dspudva9,2020-0188,2020-05-08,12:28:15,12:59:58,NA,incomplete,9,color,1,right,Blue_Triangle_Dots_1.jpg,Green_Triangle_Chess_3.jpg,Blue_Circle_Grid_4.jpg,right,601.3299999758601,true,NA,NA,NA,NA,NA,NA,NA,NA,true
dspudva9,3vll1pieot1c2ogsesvb4yutk6poza,3tvrfo09goshesbarkw04g6f1t3xlf,dspudva9,2020-0188,2020-05-08,12:28:15,12:59:58,NA,incomplete,10,color,1,left,Blue_Triangle_Chess_2.jpg,Blue_Plus_Stripes_1.jpg,Green_Triangle_Dots_3.jpg,left,657.4999999720603,true,NA,NA,NA,NA,NA,NA,NA,NA,true
dspudva9,3vll1pieot1c2ogsesvb4yutk6poza,3tvrfo09goshesbarkw04g6f1t3xlf,dspudva9,2020-0188,2020-05-08,12:28:15,12:59:58,NA,incomplete,11,color,0,left,Purple_Circle_Dots_1.jpg,Purple_Plus_Stripes_2.jpg,Red_Circle_Grid_4.jpg,left,861.5399999544024,true,NA,NA,NA,NA,NA,NA,NA,NA,true
dspudva9,3vll1pieot1c2ogsesvb4yutk6poza,3tvrfo09goshesbarkw04g6f1t3xlf,dspudva9,2020-0188,2020-05-08,12:28:15,12:59:58,NA,incomplete,12,color,0,right,Green_Triangle_Stripes_1.jpg,Purple_Triangle_Grid_3.jpg,Green_Star_Dots_4.jpg,right,556.6050000488758,true,NA,NA,NA,NA,NA,NA,NA,NA,true
dspudva9,3vll1pieot1c2ogsesvb4yutk6poza,3tvrfo09goshesbarkw04g6f1t3xlf,dspudva9,2020-0188,2020-05-08,12:28:15,12:59:58,NA,incomplete,13,color,0,left,Red_Triangle_Grid_2.jpg,Red_Plus_Stripes_3.jpg,Purple_Triangle_Chess_1.jpg,left,542.4399999901652,true,NA,NA,NA,NA,NA,NA,NA,NA,true
dspudva9,3vll1pieot1c2ogsesvb4yutk6poza,3tvrfo09goshesbarkw04g6f1t3xlf,dspudva9,2020-0188,2020-05-08,12:28:15,12:59:58,NA,incomplete,14,color,1,right,Red_Circle_Stripes_4.jpg,Green_Circle_Chess_3.jpg,Red_Plus_Grid_2.jpg,right,689.3750000745058,true,NA,NA,NA,NA,NA,NA,NA,NA,true
dspudva9,3vll1pieot1c2ogsesvb4yutk6poza,3tvrfo09goshesbarkw04g6f1t3xlf,dspudva9,2020-0188,2020-05-08,12:28:15,12:59:58,NA,incomplete,15,color,1,left,Purple_Plus_Grid_2.jpg,Purple_Triangle_Stripes_3.jpg,Green_Plus_Dots_4.jpg,left,711.4750000182539,true,NA,NA,NA,NA,NA,NA,NA,NA,true
dspudva9,3vll1pieot1c2ogsesvb4yutk6poza,3tvrfo09goshesbarkw04g6f1t3xlf,dspudva9,2020-0188,2020-05-08,12:28:15,12:59:58,NA,incomplete,16,color,1,left,Purple_Circle_Stripes_1.jpg,Purple_Plus_Dots_3.jpg,Red_Circle_Chess_4.jpg,left,582.3500000406057,true,NA,NA,NA,NA,NA,NA,NA,NA,true
dspudva9,3vll1pieot1c2ogsesvb4yutk6poza,3tvrfo09goshesbarkw04g6f1t3xlf,dspudva9,2020-0188,2020-05-08,12:28:15,12:59:58,NA,incomplete,17,color,1,right,Red_Star_Dots_2.jpg,Blue_Star_Chess_4.jpg,Red_Plus_Stripes_1.jpg,right,588.7549999170005,true,NA,NA,NA,NA,NA,NA,NA,NA,true
dspudva9,3vll1pieot1c2ogsesvb4yutk6poza,3tvrfo09goshesbarkw04g6f1t3xlf,dspudva9,2020-0188,2020-05-08,12:28:15,12:59:58,NA,incomplete,18,color,1,left,Green_Circle_Dots_2.jpg,Green_Star_Stripes_4.jpg,Red_Circle_Chess_3.jpg,left,731.1849999241531,true,NA,NA,NA,NA,NA,NA,NA,NA,true
dspudva9,3vll1pieot1c2ogsesvb4yutk6poza,3tvrfo09goshesbarkw04g6f1t3xlf,dspudva9,2020-0188,2020-05-08,12:28:15,12:59:58,NA,incomplete,19,color,1,right,Blue_Plus_Dots_3.jpg,Purple_Plus_Grid_2.jpg,Blue_Circle_Chess_1.jpg,right,761.9049998465925,true,NA,NA,NA,NA,NA,NA,NA,NA,true
dspudva9,3vll1pieot1c2ogsesvb4yutk6poza,3tvrfo09goshesbarkw04g6f1t3xlf,dspudva9,2020-0188,2020-05-08,12:28:15,12:59:58,NA,incomplete,20,shape,0,left,Green_Triangle_Dots_2.jpg,Purple_Triangle_Chess_4.jpg,Green_Plus_Stripes_3.jpg,right,648.215000052005,false,NA,NA,NA,NA,NA,NA,NA,NA,true
dspudva9,3vll1pieot1c2ogsesvb4yutk6poza,3tvrfo09goshesbarkw04g6f1t3xlf,dspudva9,2020-0188,2020-05-08,12:28:15,12:59:58,NA,incomplete,21,shape,1,left,Red_Triangle_Chess_2.jpg,Blue_Triangle_Grid_1.jpg,Red_Star_Stripes_4.jpg,right,559.9149998743087,false,NA,NA,NA,NA,NA,NA,NA,NA,true
dspudva9,3vll1pieot1c2ogsesvb4yutk6poza,3tvrfo09goshesbarkw04g6f1t3xlf,dspudva9,2020-0188,2020-05-08,12:28:15,12:59:58,NA,incomplete,22,shape,1,right,Green_Plus_Chess_1.jpg,Green_Triangle_Dots_2.jpg,Red_Plus_Stripes_4.jpg,left,1025.9749998804182,false,NA,NA,NA,NA,NA,NA,NA,NA,true
dspudva9,3vll1pieot1c2ogsesvb4yutk6poza,3tvrfo09goshesbarkw04g6f1t3xlf,dspudva9,2020-0188,2020-05-08,12:28:15,12:59:58,NA,incomplete,23,shape,1,right,Red_Triangle_Stripes_1.jpg,Red_Plus_Dots_2.jpg,Blue_Triangle_Grid_4.jpg,right,1115.2949999086559,true,NA,NA,NA,NA,NA,NA,NA,NA,true
dspudva9,3vll1pieot1c2ogsesvb4yutk6poza,3tvrfo09goshesbarkw04g6f1t3xlf,dspudva9,2020-0188,2020-05-08,12:28:15,12:59:58,NA,incomplete,24,shape,1,left,Purple_Triangle_Grid_4.jpg,Blue_Triangle_Stripes_2.jpg,Purple_Plus_Dots_1.jpg,left,662.4799999408424,true,NA,NA,NA,NA,NA,NA,NA,NA,true
dspudva9,3vll1pieot1c2ogsesvb4yutk6poza,3tvrfo09goshesbarkw04g6f1t3xlf,dspudva9,2020-0188,2020-05-08,12:28:15,12:59:58,NA,incomplete,25,shape,1,right,Purple_Circle_Dots_1.jpg,Purple_Star_Grid_4.jpg,Red_Circle_Chess_3.jpg,right,865.0849999394268,true,NA,NA,NA,NA,NA,NA,NA,NA,true
dspudva9,3vll1pieot1c2ogsesvb4yutk6poza,3tvrfo09goshesbarkw04g6f1t3xlf,dspudva9,2020-0188,2020-05-08,12:28:15,12:59:58,NA,incomplete,26,shape,1,right,Blue_Plus_Dots_4.jpg,Blue_Circle_Stripes_3.jpg,Purple_Plus_Grid_2.jpg,right,605.8950000442564,true,NA,NA,NA,NA,NA,NA,NA,NA,true
dspudva9,3vll1pieot1c2ogsesvb4yutk6poza,3tvrfo09goshesbarkw04g6f1t3xlf,dspudva9,2020-0188,2020-05-08,12:28:15,12:59:58,NA,incomplete,27,shape,0,right,Green_Star_Dots_4.jpg,Green_Circle_Chess_3.jpg,Purple_Star_Grid_1.jpg,right,729.0399998892099,true,NA,NA,NA,NA,NA,NA,NA,NA,true
dspudva9,3vll1pieot1c2ogsesvb4yutk6poza,3tvrfo09goshesbarkw04g6f1t3xlf,dspudva9,2020-0188,2020-05-08,12:28:15,12:59:58,NA,incomplete,28,shape,1,right,Red_Star_Grid_2.jpg,Red_Plus_Chess_3.jpg,Purple_Star_Stripes_1.jpg,right,522.4950001575053,true,NA,NA,NA,NA,NA,NA,NA,NA,true
dspudva9,3vll1pieot1c2ogsesvb4yutk6poza,3tvrfo09goshesbarkw04g6f1t3xlf,dspudva9,2020-0188,2020-05-08,12:28:15,12:59:58,NA,incomplete,29,shape,1,right,Blue_Circle_Stripes_2.jpg,Blue_Star_Grid_3.jpg,Purple_Circle_Dots_4.jpg,right,580.8049999177456,true,NA,NA,NA,NA,NA,NA,NA,NA,true
dspudva9,3vll1pieot1c2ogsesvb4yutk6poza,3tvrfo09goshesbarkw04g6f1t3xlf,dspudva9,2020-0188,2020-05-08,12:28:15,12:59:58,NA,incomplete,30,shape,1,right,Green_Circle_Dots_1.jpg,Green_Triangle_Chess_4.jpg,Red_Circle_Grid_3.jpg,right,545.030000153929,true,NA,NA,NA,NA,NA,NA,NA,NA,true
dspudva9,3vll1pieot1c2ogsesvb4yutk6poza,3tvrfo09goshesbarkw04g6f1t3xlf,dspudva9,2020-0188,2020-05-08,12:28:15,12:59:58,NA,incomplete,31,shape,0,right,Blue_Triangle_Grid_4.jpg,Blue_Star_Chess_3.jpg,Purple_Triangle_Dots_2.jpg,right,586.4899998996407,true,NA,NA,NA,NA,NA,NA,NA,NA,true
dspudva9,3vll1pieot1c2ogsesvb4yutk6poza,3tvrfo09goshesbarkw04g6f1t3xlf,dspudva9,2020-0188,2020-05-08,12:28:15,12:59:58,NA,incomplete,32,shape,1,left,Blue_Star_Chess_1.jpg,Red_Star_Grid_3.jpg,Blue_Plus_Stripes_2.jpg,left,712.9649999551475,true,NA,NA,NA,NA,NA,NA,NA,NA,true
dspudva9,3vll1pieot1c2ogsesvb4yutk6poza,3tvrfo09goshesbarkw04g6f1t3xlf,dspudva9,2020-0188,2020-05-08,12:28:15,12:59:58,NA,incomplete,33,shape,1,right,Green_Plus_Dots_1.jpg,Green_Star_Chess_4.jpg,Purple_Plus_Stripes_2.jpg,right,796.559999929741,true,NA,NA,NA,NA,NA,NA,NA,NA,true
dspudva9,3vll1pieot1c2ogsesvb4yutk6poza,3tvrfo09goshesbarkw04g6f1t3xlf,dspudva9,2020-0188,2020-05-08,12:28:15,12:59:58,NA,incomplete,34,shape,0,right,Purple_Circle_Grid_3.jpg,Purple_Plus_Chess_1.jpg,Green_Circle_Dots_2.jpg,right,658.850000007078,true,NA,NA,NA,NA,NA,NA,NA,NA,true
dspudva9,3vll1pieot1c2ogsesvb4yutk6poza,3tvrfo09goshesbarkw04g6f1t3xlf,dspudva9,2020-0188,2020-05-08,12:28:15,12:59:58,NA,incomplete,35,shape,1,right,Blue_Triangle_Dots_4.jpg,Blue_Star_Grid_2.jpg,Red_Triangle_Stripes_1.jpg,right,795.2049998566508,true,NA,NA,NA,NA,NA,NA,NA,NA,true
dspudva9,3vll1pieot1c2ogsesvb4yutk6poza,3tvrfo09goshesbarkw04g6f1t3xlf,dspudva9,2020-0188,2020-05-08,12:28:15,12:59:58,NA,incomplete,36,shape,0,left,Blue_Star_Grid_4.jpg,Green_Star_Chess_3.jpg,Blue_Circle_Stripes_2.jpg,left,580.8550000656396,true,NA,NA,NA,NA,NA,NA,NA,NA,true
dspudva9,3vll1pieot1c2ogsesvb4yutk6poza,3tvrfo09goshesbarkw04g6f1t3xlf,dspudva9,2020-0188,2020-05-08,12:28:15,12:59:58,NA,incomplete,37,shape,1,right,Purple_Circle_Dots_2.jpg,Purple_Star_Chess_1.jpg,Green_Circle_Grid_3.jpg,right,660.2350000757724,true,NA,NA,NA,NA,NA,NA,NA,NA,true
dspudva9,3vll1pieot1c2ogsesvb4yutk6poza,3tvrfo09goshesbarkw04g6f1t3xlf,dspudva9,2020-0188,2020-05-08,12:28:15,12:59:58,NA,incomplete,38,shape,1,right,Purple_Circle_Dots_3.jpg,Purple_Triangle_Chess_1.jpg,Blue_Circle_Stripes_4.jpg,right,502.97500006854534,true,NA,NA,NA,NA,NA,NA,NA,NA,true
dspudva9,3vll1pieot1c2ogsesvb4yutk6poza,3tvrfo09goshesbarkw04g6f1t3xlf,dspudva9,2020-0188,2020-05-08,12:28:15,12:59:58,NA,incomplete,39,shape,1,left,Red_Circle_Stripes_2.jpg,Purple_Circle_Chess_1.jpg,Red_Plus_Grid_3.jpg,left,686.0749998595566,true,NA,NA,NA,NA,NA,NA,NA,NA,true
dspudva9,3vll1pieot1c2ogsesvb4yutk6poza,3tvrfo09goshesbarkw04g6f1t3xlf,dspudva9,2020-0188,2020-05-08,12:28:15,12:59:58,NA,incomplete,0,color,1,right,Purple_Plus_Stripes_2.jpg,Red_Plus_Dots_4.jpg,Purple_Star_Chess_3.jpg,right,1258.6949998512864,true,low,NA,NA,NA,NA,NA,NA,NA,false
dspudva9,3vll1pieot1c2ogsesvb4yutk6poza,3tvrfo09goshesbarkw04g6f1t3xlf,dspudva9,2020-0188,2020-05-08,12:28:15,12:59:58,NA,incomplete,1,color,0,left,Green_Plus_Stripes_4.jpg,Green_Circle_Chess_3.jpg,Blue_Plus_Grid_2.jpg,left,665.0350000709295,true,low,NA,NA,NA,NA,NA,NA,NA,false
dspudva9,3vll1pieot1c2ogsesvb4yutk6poza,3tvrfo09goshesbarkw04g6f1t3xlf,dspudva9,2020-0188,2020-05-08,12:28:15,12:59:58,NA,incomplete,2,color,1,right,Green_Circle_Dots_4.jpg,Red_Circle_Stripes_3.jpg,Green_Triangle_Chess_1.jpg,right,743.2450000196695,true,low,NA,NA,NA,NA,NA,NA,NA,false
dspudva9,3vll1pieot1c2ogsesvb4yutk6poza,3tvrfo09goshesbarkw04g6f1t3xlf,dspudva9,2020-0188,2020-05-08,12:28:15,12:59:58,NA,incomplete,3,color,0,right,Green_Triangle_Chess_4.jpg,Red_Triangle_Stripes_1.jpg,Green_Circle_Grid_3.jpg,right,631.0250000096858,true,low,NA,NA,NA,NA,NA,NA,NA,false
dspudva9,3vll1pieot1c2ogsesvb4yutk6poza,3tvrfo09goshesbarkw04g6f1t3xlf,dspudva9,2020-0188,2020-05-08,12:28:15,12:59:58,NA,incomplete,4,color,1,left,Red_Plus_Chess_2.jpg,Red_Triangle_Grid_1.jpg,Green_Plus_Dots_4.jpg,left,894.1849998664111,true,low,NA,NA,NA,NA,NA,NA,NA,false
dspudva9,3vll1pieot1c2ogsesvb4yutk6poza,3tvrfo09goshesbarkw04g6f1t3xlf,dspudva9,2020-0188,2020-05-08,12:28:15,12:59:58,NA,incomplete,5,color,1,left,Blue_Triangle_Chess_3.jpg,Blue_Star_Stripes_2.jpg,Purple_Triangle_Dots_4.jpg,left,633.2149999216199,true,low,NA,NA,NA,NA,NA,NA,NA,false
dspudva9,3vll1pieot1c2ogsesvb4yutk6poza,3tvrfo09goshesbarkw04g6f1t3xlf,dspudva9,2020-0188,2020-05-08,12:28:15,12:59:58,NA,incomplete,6,color,1,left,Purple_Triangle_Grid_2.jpg,Purple_Circle_Stripes_3.jpg,Blue_Triangle_Chess_1.jpg,left,911.3450001459569,true,low,NA,NA,NA,NA,NA,NA,NA,false
dspudva9,3vll1pieot1c2ogsesvb4yutk6poza,3tvrfo09goshesbarkw04g6f1t3xlf,dspudva9,2020-0188,2020-05-08,12:28:15,12:59:58,NA,incomplete,7,color,0,right,Blue_Star_Stripes_4.jpg,Red_Star_Grid_1.jpg,Blue_Plus_Dots_3.jpg,right,784.0499999001622,true,low,NA,NA,NA,NA,NA,NA,NA,false
dspudva9,3vll1pieot1c2ogsesvb4yutk6poza,3tvrfo09goshesbarkw04g6f1t3xlf,dspudva9,2020-0188,2020-05-08,12:28:15,12:59:58,NA,incomplete,8,color,1,right,Blue_Circle_Grid_1.jpg,Purple_Circle_Dots_2.jpg,Blue_Triangle_Stripes_4.jpg,right,1189.2300001345575,true,low,NA,NA,NA,NA,NA,NA,NA,false
dspudva9,3vll1pieot1c2ogsesvb4yutk6poza,3tvrfo09goshesbarkw04g6f1t3xlf,dspudva9,2020-0188,2020-05-08,12:28:15,12:59:58,NA,incomplete,9,color,1,left,Green_Star_Stripes_2.jpg,Green_Plus_Dots_4.jpg,Red_Star_Chess_3.jpg,left,650.2999998629093,true,low,NA,NA,NA,NA,NA,NA,NA,false
dspudva9,3vll1pieot1c2ogsesvb4yutk6poza,3tvrfo09goshesbarkw04g6f1t3xlf,dspudva9,2020-0188,2020-05-08,12:28:15,12:59:58,NA,incomplete,10,color,0,left,Blue_Plus_Chess_2.jpg,Blue_Star_Dots_1.jpg,Purple_Plus_Grid_4.jpg,left,696.9949998892844,true,low,NA,NA,NA,NA,NA,NA,NA,false
dspudva9,3vll1pieot1c2ogsesvb4yutk6poza,3tvrfo09goshesbarkw04g6f1t3xlf,dspudva9,2020-0188,2020-05-08,12:28:15,12:59:58,NA,incomplete,11,color,1,left,Purple_Star_Stripes_1.jpg,Purple_Plus_Chess_3.jpg,Red_Star_Grid_2.jpg,left,1178.234999999404,true,low,NA,NA,NA,NA,NA,NA,NA,false
dspudva9,3vll1pieot1c2ogsesvb4yutk6poza,3tvrfo09goshesbarkw04g6f1t3xlf,dspudva9,2020-0188,2020-05-08,12:28:15,12:59:58,NA,incomplete,12,color,1,left,Green_Star_Dots_2.jpg,Green_Plus_Stripes_1.jpg,Purple_Star_Grid_3.jpg,left,722.330000018701,true,low,NA,NA,NA,NA,NA,NA,NA,false
dspudva9,3vll1pieot1c2ogsesvb4yutk6poza,3tvrfo09goshesbarkw04g6f1t3xlf,dspudva9,2020-0188,2020-05-08,12:28:15,12:59:58,NA,incomplete,13,color,1,right,Blue_Star_Chess_3.jpg,Red_Star_Dots_2.jpg,Blue_Plus_Grid_4.jpg,right,790.3699998278171,true,low,NA,NA,NA,NA,NA,NA,NA,false
dspudva9,3vll1pieot1c2ogsesvb4yutk6poza,3tvrfo09goshesbarkw04g6f1t3xlf,dspudva9,2020-0188,2020-05-08,12:28:15,12:59:58,NA,incomplete,14,color,1,left,Purple_Circle_Stripes_2.jpg,Purple_Triangle_Chess_3.jpg,Red_Circle_Dots_4.jpg,left,777.2949999198318,true,low,NA,NA,NA,NA,NA,NA,NA,false
dspudva9,3vll1pieot1c2ogsesvb4yutk6poza,3tvrfo09goshesbarkw04g6f1t3xlf,dspudva9,2020-0188,2020-05-08,12:28:15,12:59:58,NA,incomplete,15,color,1,right,Blue_Triangle_Grid_2.jpg,Red_Triangle_Chess_4.jpg,Blue_Plus_Stripes_1.jpg,right,636.3799998071045,true,low,NA,NA,NA,NA,NA,NA,NA,false
dspudva9,3vll1pieot1c2ogsesvb4yutk6poza,3tvrfo09goshesbarkw04g6f1t3xlf,dspudva9,2020-0188,2020-05-08,12:28:15,12:59:58,NA,incomplete,16,color,1,right,Green_Plus_Stripes_4.jpg,Blue_Plus_Grid_3.jpg,Green_Circle_Dots_2.jpg,right,652.6550000999123,true,low,NA,NA,NA,NA,NA,NA,NA,false
dspudva9,3vll1pieot1c2ogsesvb4yutk6poza,3tvrfo09goshesbarkw04g6f1t3xlf,dspudva9,2020-0188,2020-05-08,12:28:15,12:59:58,NA,incomplete,17,color,1,right,Purple_Triangle_Stripes_1.jpg,Red_Triangle_Dots_3.jpg,Purple_Circle_Grid_4.jpg,right,727.2749999538064,true,low,NA,NA,NA,NA,NA,NA,NA,false
dspudva9,3vll1pieot1c2ogsesvb4yutk6poza,3tvrfo09goshesbarkw04g6f1t3xlf,dspudva9,2020-0188,2020-05-08,12:28:15,12:59:58,NA,incomplete,18,color,1,left,Green_Triangle_Grid_1.jpg,Green_Star_Dots_4.jpg,Blue_Triangle_Chess_3.jpg,left,689.0300000086427,true,low,NA,NA,NA,NA,NA,NA,NA,false
dspudva9,3vll1pieot1c2ogsesvb4yutk6poza,3tvrfo09goshesbarkw04g6f1t3xlf,dspudva9,2020-0188,2020-05-08,12:28:15,12:59:58,NA,incomplete,19,color,0,right,Red_Triangle_Grid_4.jpg,Purple_Triangle_Dots_3.jpg,Red_Plus_Chess_1.jpg,right,577.3599999956787,true,low,NA,NA,NA,NA,NA,NA,NA,false
dspudva9,3vll1pieot1c2ogsesvb4yutk6poza,3tvrfo09goshesbarkw04g6f1t3xlf,dspudva9,2020-0188,2020-05-08,12:28:15,12:59:58,NA,incomplete,20,color,1,right,Green_Star_Grid_4.jpg,Red_Star_Dots_1.jpg,Green_Plus_Stripes_3.jpg,right,478.3249997999519,true,low,NA,NA,NA,NA,NA,NA,NA,false
dspudva9,3vll1pieot1c2ogsesvb4yutk6poza,3tvrfo09goshesbarkw04g6f1t3xlf,dspudva9,2020-0188,2020-05-08,12:28:15,12:59:58,NA,incomplete,21,color,1,right,Red_Circle_Grid_1.jpg,Purple_Circle_Stripes_3.jpg,Red_Star_Chess_2.jpg,right,551.7899999395013,true,low,NA,NA,NA,NA,NA,NA,NA,false
dspudva9,3vll1pieot1c2ogsesvb4yutk6poza,3tvrfo09goshesbarkw04g6f1t3xlf,dspudva9,2020-0188,2020-05-08,12:28:15,12:59:58,NA,incomplete,22,color,1,right,Purple_Star_Chess_2.jpg,Blue_Star_Dots_1.jpg,Purple_Plus_Stripes_4.jpg,right,621.5399999637157,true,low,NA,NA,NA,NA,NA,NA,NA,false
dspudva9,3vll1pieot1c2ogsesvb4yutk6poza,3tvrfo09goshesbarkw04g6f1t3xlf,dspudva9,2020-0188,2020-05-08,12:28:15,12:59:58,NA,incomplete,23,color,1,left,Purple_Plus_Chess_1.jpg,Purple_Circle_Grid_3.jpg,Blue_Plus_Dots_2.jpg,left,634.5399999991059,true,low,NA,NA,NA,NA,NA,NA,NA,false
dspudva9,3vll1pieot1c2ogsesvb4yutk6poza,3tvrfo09goshesbarkw04g6f1t3xlf,dspudva9,2020-0188,2020-05-08,12:28:15,12:59:58,NA,incomplete,24,color,1,left,Red_Star_Dots_4.jpg,Red_Triangle_Stripes_2.jpg,Blue_Star_Grid_3.jpg,left,732.8250000718981,true,low,NA,NA,NA,NA,NA,NA,NA,false
dspudva9,3vll1pieot1c2ogsesvb4yutk6poza,3tvrfo09goshesbarkw04g6f1t3xlf,dspudva9,2020-0188,2020-05-08,12:28:15,12:59:58,NA,incomplete,25,color,1,right,Green_Circle_Chess_4.jpg,Blue_Circle_Grid_3.jpg,Green_Plus_Dots_2.jpg,right,578.2549998257309,true,low,NA,NA,NA,NA,NA,NA,NA,false
dspudva9,3vll1pieot1c2ogsesvb4yutk6poza,3tvrfo09goshesbarkw04g6f1t3xlf,dspudva9,2020-0188,2020-05-08,12:28:15,12:59:58,NA,incomplete,26,color,1,right,Purple_Star_Chess_3.jpg,Green_Star_Stripes_4.jpg,Purple_Plus_Dots_1.jpg,right,871.8000000808388,true,low,NA,NA,NA,NA,NA,NA,NA,false
dspudva9,3vll1pieot1c2ogsesvb4yutk6poza,3tvrfo09goshesbarkw04g6f1t3xlf,dspudva9,2020-0188,2020-05-08,12:28:15,12:59:58,NA,incomplete,27,color,1,right,Purple_Star_Stripes_3.jpg,Red_Star_Chess_2.jpg,Purple_Plus_Dots_1.jpg,right,909.4549999572337,true,low,NA,NA,NA,NA,NA,NA,NA,false
dspudva9,3vll1pieot1c2ogsesvb4yutk6poza,3tvrfo09goshesbarkw04g6f1t3xlf,dspudva9,2020-0188,2020-05-08,12:28:15,12:59:58,NA,incomplete,28,color,1,right,Blue_Triangle_Dots_3.jpg,Green_Triangle_Chess_4.jpg,Blue_Circle_Grid_1.jpg,right,928.5500000696629,true,low,NA,NA,NA,NA,NA,NA,NA,false
dspudva9,3vll1pieot1c2ogsesvb4yutk6poza,3tvrfo09goshesbarkw04g6f1t3xlf,dspudva9,2020-0188,2020-05-08,12:28:15,12:59:58,NA,incomplete,29,color,1,left,Purple_Plus_Chess_4.jpg,Purple_Circle_Dots_3.jpg,Blue_Plus_Grid_2.jpg,left,924.1500000935048,true,low,NA,NA,NA,NA,NA,NA,NA,false
dspudva9,3vll1pieot1c2ogsesvb4yutk6poza,3tvrfo09goshesbarkw04g6f1t3xlf,dspudva9,2020-0188,2020-05-08,12:28:15,12:59:58,NA,incomplete,30,shape,1,right,Green_Plus_Chess_1.jpg,Green_Circle_Dots_3.jpg,Purple_Plus_Grid_2.jpg,left,637.3000000603497,false,low,NA,NA,NA,NA,NA,NA,NA,false
dspudva9,3vll1pieot1c2ogsesvb4yutk6poza,3tvrfo09goshesbarkw04g6f1t3xlf,dspudva9,2020-0188,2020-05-08,12:28:15,12:59:58,NA,incomplete,31,shape,1,right,Purple_Star_Stripes_1.jpg,Purple_Triangle_Grid_3.jpg,Blue_Star_Dots_4.jpg,left,721.8049999792129,false,low,NA,NA,NA,NA,NA,NA,NA,false
dspudva9,3vll1pieot1c2ogsesvb4yutk6poza,3tvrfo09goshesbarkw04g6f1t3xlf,dspudva9,2020-0188,2020-05-08,12:28:15,12:59:58,NA,incomplete,32,shape,0,right,Red_Circle_Chess_2.jpg,Red_Star_Dots_4.jpg,Green_Circle_Stripes_3.jpg,left,771.1549999658018,false,low,NA,NA,NA,NA,NA,NA,NA,false
dspudva9,3vll1pieot1c2ogsesvb4yutk6poza,3tvrfo09goshesbarkw04g6f1t3xlf,dspudva9,2020-0188,2020-05-08,12:28:15,12:59:58,NA,incomplete,33,shape,1,left,Green_Plus_Chess_1.jpg,Red_Plus_Stripes_2.jpg,Green_Star_Grid_4.jpg,right,528.4899999387562,false,low,NA,NA,NA,NA,NA,NA,NA,false
dspudva9,3vll1pieot1c2ogsesvb4yutk6poza,3tvrfo09goshesbarkw04g6f1t3xlf,dspudva9,2020-0188,2020-05-08,12:28:15,12:59:58,NA,incomplete,34,shape,1,right,Purple_Plus_Grid_4.jpg,Purple_Circle_Dots_1.jpg,Green_Plus_Chess_3.jpg,left,653.7300001364201,false,low,NA,NA,NA,NA,NA,NA,NA,false
dspudva9,3vll1pieot1c2ogsesvb4yutk6poza,3tvrfo09goshesbarkw04g6f1t3xlf,dspudva9,2020-0188,2020-05-08,12:28:15,12:59:58,NA,incomplete,35,shape,0,left,Purple_Plus_Dots_4.jpg,Green_Plus_Stripes_3.jpg,Purple_Circle_Chess_2.jpg,right,777.7550001628697,false,low,NA,NA,NA,NA,NA,NA,NA,false
dspudva9,3vll1pieot1c2ogsesvb4yutk6poza,3tvrfo09goshesbarkw04g6f1t3xlf,dspudva9,2020-0188,2020-05-08,12:28:15,12:59:58,NA,incomplete,36,shape,1,left,Red_Circle_Grid_2.jpg,Green_Circle_Stripes_4.jpg,Red_Plus_Dots_1.jpg,right,686.8650000542402,false,low,NA,NA,NA,NA,NA,NA,NA,false
dspudva9,3vll1pieot1c2ogsesvb4yutk6poza,3tvrfo09goshesbarkw04g6f1t3xlf,dspudva9,2020-0188,2020-05-08,12:28:15,12:59:58,NA,incomplete,37,shape,1,left,Blue_Triangle_Stripes_3.jpg,Red_Triangle_Chess_1.jpg,Blue_Circle_Grid_4.jpg,right,1018.4300001710653,false,low,NA,NA,NA,NA,NA,NA,NA,false
dspudva9,3vll1pieot1c2ogsesvb4yutk6poza,3tvrfo09goshesbarkw04g6f1t3xlf,dspudva9,2020-0188,2020-05-08,12:28:15,12:59:58,NA,incomplete,38,shape,1,left,Blue_Star_Grid_4.jpg,Green_Star_Dots_3.jpg,Blue_Circle_Chess_1.jpg,left,601.0300000198185,true,low,NA,NA,NA,NA,NA,NA,NA,false
dspudva9,3vll1pieot1c2ogsesvb4yutk6poza,3tvrfo09goshesbarkw04g6f1t3xlf,dspudva9,2020-0188,2020-05-08,12:28:15,12:59:58,NA,incomplete,39,shape,1,right,Blue_Plus_Stripes_3.jpg,Blue_Triangle_Chess_2.jpg,Red_Plus_Dots_1.jpg,right,1373.314999975264,true,low,NA,NA,NA,NA,NA,NA,NA,false
dspudva9,3vll1pieot1c2ogsesvb4yutk6poza,3tvrfo09goshesbarkw04g6f1t3xlf,dspudva9,2020-0188,2020-05-08,12:28:15,12:59:58,NA,incomplete,40,shape,1,left,Green_Triangle_Dots_1.jpg,Blue_Triangle_Chess_3.jpg,Green_Plus_Stripes_4.jpg,left,920.9499999415129,true,low,NA,NA,NA,NA,NA,NA,NA,false
dspudva9,3vll1pieot1c2ogsesvb4yutk6poza,3tvrfo09goshesbarkw04g6f1t3xlf,dspudva9,2020-0188,2020-05-08,12:28:15,12:59:58,NA,incomplete,41,shape,1,right,Green_Plus_Dots_1.jpg,Green_Triangle_Grid_4.jpg,Blue_Plus_Stripes_2.jpg,right,1063.9800000935793,true,low,NA,NA,NA,NA,NA,NA,NA,false
dspudva9,3vll1pieot1c2ogsesvb4yutk6poza,3tvrfo09goshesbarkw04g6f1t3xlf,dspudva9,2020-0188,2020-05-08,12:28:15,12:59:58,NA,incomplete,42,shape,1,left,Blue_Triangle_Grid_2.jpg,Purple_Triangle_Chess_1.jpg,Blue_Plus_Dots_3.jpg,left,752.6699998416007,true,low,NA,NA,NA,NA,NA,NA,NA,false
dspudva9,3vll1pieot1c2ogsesvb4yutk6poza,3tvrfo09goshesbarkw04g6f1t3xlf,dspudva9,2020-0188,2020-05-08,12:28:15,12:59:58,NA,incomplete,43,shape,1,right,Green_Plus_Dots_1.jpg,Green_Circle_Grid_2.jpg,Purple_Plus_Chess_3.jpg,right,775.1150000840425,true,low,NA,NA,NA,NA,NA,NA,NA,false
dspudva9,3vll1pieot1c2ogsesvb4yutk6poza,3tvrfo09goshesbarkw04g6f1t3xlf,dspudva9,2020-0188,2020-05-08,12:28:15,12:59:58,NA,incomplete,44,shape,0,left,Purple_Triangle_Dots_1.jpg,Green_Triangle_Stripes_2.jpg,Purple_Circle_Grid_3.jpg,left,940.7250001095235,true,low,NA,NA,NA,NA,NA,NA,NA,false
dspudva9,3vll1pieot1c2ogsesvb4yutk6poza,3tvrfo09goshesbarkw04g6f1t3xlf,dspudva9,2020-0188,2020-05-08,12:28:15,12:59:58,NA,incomplete,45,shape,1,left,Purple_Plus_Chess_2.jpg,Red_Plus_Dots_4.jpg,Purple_Triangle_Grid_1.jpg,left,788.3649999275804,true,low,NA,NA,NA,NA,NA,NA,NA,false
dspudva9,3vll1pieot1c2ogsesvb4yutk6poza,3tvrfo09goshesbarkw04g6f1t3xlf,dspudva9,2020-0188,2020-05-08,12:28:15,12:59:58,NA,incomplete,46,shape,1,left,Green_Circle_Grid_3.jpg,Purple_Circle_Dots_1.jpg,Green_Plus_Chess_4.jpg,left,775.7149999961257,true,low,NA,NA,NA,NA,NA,NA,NA,false
dspudva9,3vll1pieot1c2ogsesvb4yutk6poza,3tvrfo09goshesbarkw04g6f1t3xlf,dspudva9,2020-0188,2020-05-08,12:28:15,12:59:58,NA,incomplete,47,shape,1,right,Purple_Circle_Grid_2.jpg,Purple_Plus_Dots_1.jpg,Blue_Circle_Chess_4.jpg,right,899.0899999625981,true,low,NA,NA,NA,NA,NA,NA,NA,false
dspudva9,3vll1pieot1c2ogsesvb4yutk6poza,3tvrfo09goshesbarkw04g6f1t3xlf,dspudva9,2020-0188,2020-05-08,12:28:15,12:59:58,NA,incomplete,48,shape,1,left,Green_Triangle_Stripes_1.jpg,Blue_Triangle_Grid_2.jpg,Green_Star_Dots_4.jpg,left,806.80499994196,true,low,NA,NA,NA,NA,NA,NA,NA,false
dspudva9,3vll1pieot1c2ogsesvb4yutk6poza,3tvrfo09goshesbarkw04g6f1t3xlf,dspudva9,2020-0188,2020-05-08,12:28:15,12:59:58,NA,incomplete,49,shape,1,left,Blue_Triangle_Grid_4.jpg,Green_Triangle_Chess_2.jpg,Blue_Circle_Dots_3.jpg,left,694.1850001458079,true,low,NA,NA,NA,NA,NA,NA,NA,false
dspudva9,3vll1pieot1c2ogsesvb4yutk6poza,3tvrfo09goshesbarkw04g6f1t3xlf,dspudva9,2020-0188,2020-05-08,12:28:15,12:59:58,NA,incomplete,50,shape,1,left,Green_Plus_Chess_3.jpg,Blue_Plus_Grid_4.jpg,Green_Star_Stripes_2.jpg,left,830.7199999690056,true,low,NA,NA,NA,NA,NA,NA,NA,false
dspudva9,3vll1pieot1c2ogsesvb4yutk6poza,3tvrfo09goshesbarkw04g6f1t3xlf,dspudva9,2020-0188,2020-05-08,12:28:15,12:59:58,NA,incomplete,51,shape,0,left,Red_Circle_Grid_1.jpg,Purple_Circle_Stripes_3.jpg,Red_Plus_Dots_4.jpg,left,616.9499999377877,true,low,NA,NA,NA,NA,NA,NA,NA,false
dspudva9,3vll1pieot1c2ogsesvb4yutk6poza,3tvrfo09goshesbarkw04g6f1t3xlf,dspudva9,2020-0188,2020-05-08,12:28:15,12:59:58,NA,incomplete,52,shape,0,left,Blue_Plus_Stripes_3.jpg,Purple_Plus_Chess_4.jpg,Blue_Circle_Grid_1.jpg,left,551.5950000844896,true,low,NA,NA,NA,NA,NA,NA,NA,false
dspudva9,3vll1pieot1c2ogsesvb4yutk6poza,3tvrfo09goshesbarkw04g6f1t3xlf,dspudva9,2020-0188,2020-05-08,12:28:15,12:59:58,NA,incomplete,53,shape,1,right,Red_Star_Grid_4.jpg,Red_Triangle_Chess_2.jpg,Green_Star_Stripes_1.jpg,right,643.4450000524521,true,low,NA,NA,NA,NA,NA,NA,NA,false
dspudva9,3vll1pieot1c2ogsesvb4yutk6poza,3tvrfo09goshesbarkw04g6f1t3xlf,dspudva9,2020-0188,2020-05-08,12:28:15,12:59:58,NA,incomplete,54,shape,1,left,Purple_Plus_Dots_2.jpg,Green_Plus_Grid_4.jpg,Purple_Triangle_Stripes_3.jpg,left,595.9699999075383,true,low,NA,NA,NA,NA,NA,NA,NA,false
dspudva9,3vll1pieot1c2ogsesvb4yutk6poza,3tvrfo09goshesbarkw04g6f1t3xlf,dspudva9,2020-0188,2020-05-08,12:28:15,12:59:58,NA,incomplete,55,shape,1,right,Green_Circle_Chess_1.jpg,Green_Plus_Stripes_4.jpg,Purple_Circle_Dots_3.jpg,right,604.5650001615286,true,low,NA,NA,NA,NA,NA,NA,NA,false
dspudva9,3vll1pieot1c2ogsesvb4yutk6poza,3tvrfo09goshesbarkw04g6f1t3xlf,dspudva9,2020-0188,2020-05-08,12:28:15,12:59:58,NA,incomplete,56,shape,1,right,Green_Plus_Stripes_1.jpg,Green_Circle_Chess_3.jpg,Blue_Plus_Grid_2.jpg,right,653.5950000397861,true,low,NA,NA,NA,NA,NA,NA,NA,false
dspudva9,3vll1pieot1c2ogsesvb4yutk6poza,3tvrfo09goshesbarkw04g6f1t3xlf,dspudva9,2020-0188,2020-05-08,12:28:15,12:59:58,NA,incomplete,57,shape,0,left,Purple_Plus_Dots_4.jpg,Blue_Plus_Grid_2.jpg,Purple_Circle_Stripes_1.jpg,left,675.7000000216067,true,low,NA,NA,NA,NA,NA,NA,NA,false
dspudva9,3vll1pieot1c2ogsesvb4yutk6poza,3tvrfo09goshesbarkw04g6f1t3xlf,dspudva9,2020-0188,2020-05-08,12:28:15,12:59:58,NA,incomplete,58,shape,1,right,Green_Triangle_Chess_2.jpg,Green_Circle_Grid_4.jpg,Red_Triangle_Dots_1.jpg,right,580.9449998196214,true,low,NA,NA,NA,NA,NA,NA,NA,false
dspudva9,3vll1pieot1c2ogsesvb4yutk6poza,3tvrfo09goshesbarkw04g6f1t3xlf,dspudva9,2020-0188,2020-05-08,12:28:15,12:59:58,NA,incomplete,59,shape,1,left,Blue_Plus_Dots_3.jpg,Purple_Plus_Chess_2.jpg,Blue_Triangle_Stripes_4.jpg,left,657.3000000789762,true,low,NA,NA,NA,NA,NA,NA,NA,false
dspudva9,3vll1pieot1c2ogsesvb4yutk6poza,3tvrfo09goshesbarkw04g6f1t3xlf,dspudva9,2020-0188,2020-05-08,12:28:15,12:59:58,NA,incomplete,60,color,0,left,Green_Circle_Chess_4.jpg,Green_Triangle_Grid_3.jpg,Purple_Circle_Dots_2.jpg,right,830.1800000481308,false,low,NA,NA,NA,NA,NA,NA,NA,false
dspudva9,3vll1pieot1c2ogsesvb4yutk6poza,3tvrfo09goshesbarkw04g6f1t3xlf,dspudva9,2020-0188,2020-05-08,12:28:15,12:59:58,NA,incomplete,61,color,1,right,Green_Plus_Stripes_2.jpg,Red_Plus_Dots_1.jpg,Green_Triangle_Grid_3.jpg,left,663.4450000710785,false,low,NA,NA,NA,NA,NA,NA,NA,false
dspudva9,3vll1pieot1c2ogsesvb4yutk6poza,3tvrfo09goshesbarkw04g6f1t3xlf,dspudva9,2020-0188,2020-05-08,12:28:15,12:59:58,NA,incomplete,62,color,1,left,Blue_Circle_Stripes_2.jpg,Blue_Triangle_Dots_1.jpg,Purple_Circle_Chess_3.jpg,right,848.1499999761581,false,low,NA,NA,NA,NA,NA,NA,NA,false
dspudva9,3vll1pieot1c2ogsesvb4yutk6poza,3tvrfo09goshesbarkw04g6f1t3xlf,dspudva9,2020-0188,2020-05-08,12:28:15,12:59:58,NA,incomplete,63,color,1,right,Purple_Triangle_Grid_4.jpg,Red_Triangle_Dots_1.jpg,Purple_Plus_Chess_3.jpg,right,746.8299998436123,true,low,NA,NA,NA,NA,NA,NA,NA,false
dspudva9,3vll1pieot1c2ogsesvb4yutk6poza,3tvrfo09goshesbarkw04g6f1t3xlf,dspudva9,2020-0188,2020-05-08,12:28:15,12:59:58,NA,incomplete,64,color,1,left,Purple_Plus_Dots_3.jpg,Purple_Star_Stripes_2.jpg,Blue_Plus_Grid_4.jpg,left,648.7700000870973,true,low,NA,NA,NA,NA,NA,NA,NA,false
dspudva9,3vll1pieot1c2ogsesvb4yutk6poza,3tvrfo09goshesbarkw04g6f1t3xlf,dspudva9,2020-0188,2020-05-08,12:28:15,12:59:58,NA,incomplete,65,color,0,left,Red_Star_Chess_4.jpg,Red_Triangle_Stripes_3.jpg,Blue_Star_Dots_1.jpg,left,740.6799998134375,true,low,NA,NA,NA,NA,NA,NA,NA,false
dspudva9,3vll1pieot1c2ogsesvb4yutk6poza,3tvrfo09goshesbarkw04g6f1t3xlf,dspudva9,2020-0188,2020-05-08,12:28:15,12:59:58,NA,incomplete,66,color,1,right,Green_Triangle_Stripes_4.jpg,Blue_Triangle_Chess_1.jpg,Green_Plus_Grid_3.jpg,right,609.7599999047816,true,low,NA,NA,NA,NA,NA,NA,NA,false
dspudva9,3vll1pieot1c2ogsesvb4yutk6poza,3tvrfo09goshesbarkw04g6f1t3xlf,dspudva9,2020-0188,2020-05-08,12:28:15,12:59:58,NA,incomplete,67,color,1,right,Red_Plus_Grid_4.jpg,Green_Plus_Dots_1.jpg,Red_Triangle_Chess_3.jpg,right,1025.1350000035018,true,low,NA,NA,NA,NA,NA,NA,NA,false
dspudva9,3vll1pieot1c2ogsesvb4yutk6poza,3tvrfo09goshesbarkw04g6f1t3xlf,dspudva9,2020-0188,2020-05-08,12:28:15,12:59:58,NA,incomplete,68,color,1,right,Purple_Triangle_Grid_2.jpg,Red_Triangle_Stripes_4.jpg,Purple_Plus_Chess_3.jpg,right,961.8999999947846,true,low,NA,NA,NA,NA,NA,NA,NA,false
dspudva9,3vll1pieot1c2ogsesvb4yutk6poza,3tvrfo09goshesbarkw04g6f1t3xlf,dspudva9,2020-0188,2020-05-08,12:28:15,12:59:58,NA,incomplete,69,color,0,right,Green_Plus_Chess_1.jpg,Blue_Plus_Grid_2.jpg,Green_Triangle_Stripes_4.jpg,right,965.5550001189113,true,low,NA,NA,NA,NA,NA,NA,NA,false
dspudva9,3vll1pieot1c2ogsesvb4yutk6poza,3tvrfo09goshesbarkw04g6f1t3xlf,dspudva9,2020-0188,2020-05-08,12:28:15,12:59:58,NA,incomplete,70,color,1,right,Green_Star_Grid_2.jpg,Blue_Star_Dots_1.jpg,Green_Plus_Stripes_3.jpg,right,591.3500001188368,true,low,NA,NA,NA,NA,NA,NA,NA,false
dspudva9,3vll1pieot1c2ogsesvb4yutk6poza,3tvrfo09goshesbarkw04g6f1t3xlf,dspudva9,2020-0188,2020-05-08,12:28:15,12:59:58,NA,incomplete,71,color,1,left,Red_Triangle_Chess_2.jpg,Red_Star_Stripes_4.jpg,Green_Triangle_Grid_3.jpg,left,802.57000005804,true,low,NA,NA,NA,NA,NA,NA,NA,false
dspudva9,3vll1pieot1c2ogsesvb4yutk6poza,3tvrfo09goshesbarkw04g6f1t3xlf,dspudva9,2020-0188,2020-05-08,12:28:15,12:59:58,NA,incomplete,72,color,1,left,Blue_Triangle_Dots_2.jpg,Blue_Star_Grid_3.jpg,Purple_Triangle_Chess_4.jpg,left,656.1799999326468,true,low,NA,NA,NA,NA,NA,NA,NA,false
dspudva9,3vll1pieot1c2ogsesvb4yutk6poza,3tvrfo09goshesbarkw04g6f1t3xlf,dspudva9,2020-0188,2020-05-08,12:28:15,12:59:58,NA,incomplete,73,color,1,left,Red_Circle_Dots_3.jpg,Red_Star_Stripes_4.jpg,Green_Circle_Grid_2.jpg,left,990.4299997724593,true,low,NA,NA,NA,NA,NA,NA,NA,false
dspudva9,3vll1pieot1c2ogsesvb4yutk6poza,3tvrfo09goshesbarkw04g6f1t3xlf,dspudva9,2020-0188,2020-05-08,12:28:15,12:59:58,NA,incomplete,74,color,1,right,Green_Star_Chess_3.jpg,Purple_Star_Stripes_4.jpg,Green_Plus_Dots_1.jpg,right,593.9650000073016,true,low,NA,NA,NA,NA,NA,NA,NA,false
dspudva9,3vll1pieot1c2ogsesvb4yutk6poza,3tvrfo09goshesbarkw04g6f1t3xlf,dspudva9,2020-0188,2020-05-08,12:28:15,12:59:58,NA,incomplete,75,color,1,right,Green_Circle_Stripes_2.jpg,Purple_Circle_Chess_4.jpg,Green_Star_Grid_1.jpg,right,623.3449999708682,true,low,NA,NA,NA,NA,NA,NA,NA,false
dspudva9,3vll1pieot1c2ogsesvb4yutk6poza,3tvrfo09goshesbarkw04g6f1t3xlf,dspudva9,2020-0188,2020-05-08,12:28:15,12:59:58,NA,incomplete,76,color,1,left,Green_Triangle_Chess_1.jpg,Green_Circle_Grid_2.jpg,Purple_Triangle_Stripes_4.jpg,left,559.0500000398606,true,low,NA,NA,NA,NA,NA,NA,NA,false
dspudva9,3vll1pieot1c2ogsesvb4yutk6poza,3tvrfo09goshesbarkw04g6f1t3xlf,dspudva9,2020-0188,2020-05-08,12:28:15,12:59:58,NA,incomplete,77,color,0,right,Red_Plus_Stripes_2.jpg,Green_Plus_Dots_3.jpg,Red_Star_Grid_1.jpg,right,1161.9749998208135,true,low,NA,NA,NA,NA,NA,NA,NA,false
dspudva9,3vll1pieot1c2ogsesvb4yutk6poza,3tvrfo09goshesbarkw04g6f1t3xlf,dspudva9,2020-0188,2020-05-08,12:28:15,12:59:58,NA,incomplete,78,color,1,left,Blue_Triangle_Dots_1.jpg,Blue_Circle_Grid_3.jpg,Red_Triangle_Stripes_4.jpg,left,516.7099998798221,true,low,NA,NA,NA,NA,NA,NA,NA,false
dspudva9,3vll1pieot1c2ogsesvb4yutk6poza,3tvrfo09goshesbarkw04g6f1t3xlf,dspudva9,2020-0188,2020-05-08,12:28:15,12:59:58,NA,incomplete,79,color,1,right,Purple_Star_Stripes_2.jpg,Blue_Star_Chess_1.jpg,Purple_Triangle_Grid_4.jpg,right,1221.2000000290573,true,low,NA,NA,NA,NA,NA,NA,NA,false
dspudva9,3vll1pieot1c2ogsesvb4yutk6poza,3tvrfo09goshesbarkw04g6f1t3xlf,dspudva9,2020-0188,2020-05-08,12:28:15,12:59:58,NA,incomplete,80,color,1,left,Purple_Star_Chess_3.jpg,Purple_Circle_Dots_2.jpg,Green_Star_Grid_1.jpg,left,633.7000001221895,true,low,NA,NA,NA,NA,NA,NA,NA,false
dspudva9,3vll1pieot1c2ogsesvb4yutk6poza,3tvrfo09goshesbarkw04g6f1t3xlf,dspudva9,2020-0188,2020-05-08,12:28:15,12:59:58,NA,incomplete,81,color,1,left,Blue_Star_Stripes_1.jpg,Blue_Plus_Chess_3.jpg,Purple_Star_Grid_2.jpg,left,673.8550001755357,true,low,NA,NA,NA,NA,NA,NA,NA,false
dspudva9,3vll1pieot1c2ogsesvb4yutk6poza,3tvrfo09goshesbarkw04g6f1t3xlf,dspudva9,2020-0188,2020-05-08,12:28:15,12:59:58,NA,incomplete,82,color,1,right,Blue_Plus_Dots_2.jpg,Red_Plus_Chess_4.jpg,Blue_Circle_Grid_3.jpg,right,806.3350000884384,true,low,NA,NA,NA,NA,NA,NA,NA,false
dspudva9,3vll1pieot1c2ogsesvb4yutk6poza,3tvrfo09goshesbarkw04g6f1t3xlf,dspudva9,2020-0188,2020-05-08,12:28:15,12:59:58,NA,incomplete,83,color,1,right,Green_Circle_Dots_1.jpg,Red_Circle_Grid_2.jpg,Green_Star_Stripes_3.jpg,right,653.120000148192,true,low,NA,NA,NA,NA,NA,NA,NA,false
dspudva9,3vll1pieot1c2ogsesvb4yutk6poza,3tvrfo09goshesbarkw04g6f1t3xlf,dspudva9,2020-0188,2020-05-08,12:28:15,12:59:58,NA,incomplete,84,color,0,left,Blue_Star_Chess_2.jpg,Blue_Triangle_Dots_3.jpg,Purple_Star_Stripes_1.jpg,left,526.1499998159707,true,low,NA,NA,NA,NA,NA,NA,NA,false
dspudva9,3vll1pieot1c2ogsesvb4yutk6poza,3tvrfo09goshesbarkw04g6f1t3xlf,dspudva9,2020-0188,2020-05-08,12:28:15,12:59:58,NA,incomplete,85,color,1,left,Red_Star_Grid_3.jpg,Red_Circle_Dots_2.jpg,Blue_Star_Chess_4.jpg,left,569.4850001018494,true,low,NA,NA,NA,NA,NA,NA,NA,false
dspudva9,3vll1pieot1c2ogsesvb4yutk6poza,3tvrfo09goshesbarkw04g6f1t3xlf,dspudva9,2020-0188,2020-05-08,12:28:15,12:59:58,NA,incomplete,86,color,1,left,Green_Triangle_Stripes_1.jpg,Green_Star_Dots_2.jpg,Blue_Triangle_Chess_3.jpg,left,522.3049998749048,true,low,NA,NA,NA,NA,NA,NA,NA,false
dspudva9,3vll1pieot1c2ogsesvb4yutk6poza,3tvrfo09goshesbarkw04g6f1t3xlf,dspudva9,2020-0188,2020-05-08,12:28:15,12:59:58,NA,incomplete,87,color,1,left,Purple_Triangle_Chess_4.jpg,Purple_Circle_Stripes_2.jpg,Red_Triangle_Grid_1.jpg,left,695.7800001837313,true,low,NA,NA,NA,NA,NA,NA,NA,false
dspudva9,3vll1pieot1c2ogsesvb4yutk6poza,3tvrfo09goshesbarkw04g6f1t3xlf,dspudva9,2020-0188,2020-05-08,12:28:15,12:59:58,NA,incomplete,88,color,1,left,Purple_Star_Stripes_2.jpg,Purple_Plus_Chess_3.jpg,Blue_Star_Grid_1.jpg,left,708.335000090301,true,low,NA,NA,NA,NA,NA,NA,NA,false
dspudva9,3vll1pieot1c2ogsesvb4yutk6poza,3tvrfo09goshesbarkw04g6f1t3xlf,dspudva9,2020-0188,2020-05-08,12:28:15,12:59:58,NA,incomplete,89,color,0,left,Blue_Circle_Chess_3.jpg,Blue_Plus_Dots_4.jpg,Red_Circle_Grid_1.jpg,left,1178.895000135526,true,low,NA,NA,NA,NA,NA,NA,NA,false
dspudva9,3vll1pieot1c2ogsesvb4yutk6poza,3tvrfo09goshesbarkw04g6f1t3xlf,dspudva9,2020-0188,2020-05-08,12:28:15,12:59:58,NA,incomplete,90,shape,1,right,Blue_Star_Grid_3.jpg,Blue_Plus_Chess_1.jpg,Green_Star_Stripes_2.jpg,left,590.9649999812245,false,low,NA,NA,NA,NA,NA,NA,NA,false
dspudva9,3vll1pieot1c2ogsesvb4yutk6poza,3tvrfo09goshesbarkw04g6f1t3xlf,dspudva9,2020-0188,2020-05-08,12:28:15,12:59:58,NA,incomplete,91,shape,1,right,Green_Triangle_Chess_4.jpg,Green_Plus_Stripes_2.jpg,Purple_Triangle_Grid_1.jpg,left,576.5700000338256,false,low,NA,NA,NA,NA,NA,NA,NA,false
dspudva9,3vll1pieot1c2ogsesvb4yutk6poza,3tvrfo09goshesbarkw04g6f1t3xlf,dspudva9,2020-0188,2020-05-08,12:28:15,12:59:58,NA,incomplete,92,shape,1,right,Red_Circle_Chess_4.jpg,Red_Star_Stripes_3.jpg,Green_Circle_Grid_1.jpg,left,779.2950000148267,false,low,NA,NA,NA,NA,NA,NA,NA,false
dspudva9,3vll1pieot1c2ogsesvb4yutk6poza,3tvrfo09goshesbarkw04g6f1t3xlf,dspudva9,2020-0188,2020-05-08,12:28:15,12:59:58,NA,incomplete,93,shape,1,left,Blue_Plus_Grid_3.jpg,Purple_Plus_Chess_4.jpg,Blue_Star_Stripes_2.jpg,left,1014.7599999327213,true,low,NA,NA,NA,NA,NA,NA,NA,false
dspudva9,3vll1pieot1c2ogsesvb4yutk6poza,3tvrfo09goshesbarkw04g6f1t3xlf,dspudva9,2020-0188,2020-05-08,12:28:15,12:59:58,NA,incomplete,94,shape,1,left,Purple_Circle_Grid_2.jpg,Red_Circle_Chess_4.jpg,Purple_Triangle_Dots_3.jpg,left,605.489999987185,true,low,NA,NA,NA,NA,NA,NA,NA,false
dspudva9,3vll1pieot1c2ogsesvb4yutk6poza,3tvrfo09goshesbarkw04g6f1t3xlf,dspudva9,2020-0188,2020-05-08,12:28:15,12:59:58,NA,incomplete,95,shape,1,left,Purple_Circle_Dots_2.jpg,Green_Circle_Stripes_4.jpg,Purple_Plus_Chess_1.jpg,left,615.3750000521541,true,low,NA,NA,NA,NA,NA,NA,NA,false
dspudva9,3vll1pieot1c2ogsesvb4yutk6poza,3tvrfo09goshesbarkw04g6f1t3xlf,dspudva9,2020-0188,2020-05-08,12:28:15,12:59:58,NA,incomplete,96,shape,1,left,Green_Triangle_Stripes_1.jpg,Red_Triangle_Dots_2.jpg,Green_Circle_Chess_3.jpg,right,642.6750000100583,false,low,NA,NA,NA,NA,NA,NA,NA,false
dspudva9,3vll1pieot1c2ogsesvb4yutk6poza,3tvrfo09goshesbarkw04g6f1t3xlf,dspudva9,2020-0188,2020-05-08,12:28:15,12:59:58,NA,incomplete,97,shape,1,left,Green_Plus_Grid_2.jpg,Blue_Plus_Stripes_1.jpg,Green_Circle_Dots_3.jpg,left,777.5550000369549,true,low,NA,NA,NA,NA,NA,NA,NA,false
dspudva9,3vll1pieot1c2ogsesvb4yutk6poza,3tvrfo09goshesbarkw04g6f1t3xlf,dspudva9,2020-0188,2020-05-08,12:28:15,12:59:58,NA,incomplete,98,shape,0,right,Green_Plus_Grid_3.jpg,Green_Triangle_Chess_2.jpg,Red_Plus_Dots_4.jpg,right,836.284999968484,true,low,NA,NA,NA,NA,NA,NA,NA,false
dspudva9,3vll1pieot1c2ogsesvb4yutk6poza,3tvrfo09goshesbarkw04g6f1t3xlf,dspudva9,2020-0188,2020-05-08,12:28:15,12:59:58,NA,incomplete,99,shape,1,left,Red_Circle_Grid_4.jpg,Blue_Circle_Dots_3.jpg,Red_Triangle_Chess_2.jpg,left,1075.9799999650568,true,low,NA,NA,NA,NA,NA,NA,NA,false
dspudva9,3vll1pieot1c2ogsesvb4yutk6poza,3tvrfo09goshesbarkw04g6f1t3xlf,dspudva9,2020-0188,2020-05-08,12:28:15,12:59:58,NA,incomplete,100,shape,0,left,Purple_Circle_Chess_2.jpg,Red_Circle_Grid_4.jpg,Purple_Triangle_Dots_3.jpg,left,736.1600000876933,true,low,NA,NA,NA,NA,NA,NA,NA,false
dspudva9,3vll1pieot1c2ogsesvb4yutk6poza,3tvrfo09goshesbarkw04g6f1t3xlf,dspudva9,2020-0188,2020-05-08,12:28:15,12:59:58,NA,incomplete,101,shape,1,left,Purple_Star_Dots_3.jpg,Red_Star_Stripes_2.jpg,Purple_Plus_Grid_4.jpg,left,829.2600000277162,true,low,NA,NA,NA,NA,NA,NA,NA,false
dspudva9,3vll1pieot1c2ogsesvb4yutk6poza,3tvrfo09goshesbarkw04g6f1t3xlf,dspudva9,2020-0188,2020-05-08,12:28:15,12:59:58,NA,incomplete,102,shape,0,right,Red_Star_Chess_2.jpg,Red_Triangle_Dots_3.jpg,Green_Star_Grid_4.jpg,right,696.0249999538064,true,low,NA,NA,NA,NA,NA,NA,NA,false
dspudva9,3vll1pieot1c2ogsesvb4yutk6poza,3tvrfo09goshesbarkw04g6f1t3xlf,dspudva9,2020-0188,2020-05-08,12:28:15,12:59:58,NA,incomplete,103,shape,1,right,Green_Star_Dots_2.jpg,Green_Plus_Grid_1.jpg,Purple_Star_Chess_3.jpg,right,860.1500000804663,true,low,NA,NA,NA,NA,NA,NA,NA,false
dspudva9,3vll1pieot1c2ogsesvb4yutk6poza,3tvrfo09goshesbarkw04g6f1t3xlf,dspudva9,2020-0188,2020-05-08,12:28:15,12:59:58,NA,incomplete,104,shape,0,right,Purple_Triangle_Dots_3.jpg,Purple_Circle_Chess_4.jpg,Red_Triangle_Grid_1.jpg,right,776.8649999052286,true,low,NA,NA,NA,NA,NA,NA,NA,false
dspudva9,3vll1pieot1c2ogsesvb4yutk6poza,3tvrfo09goshesbarkw04g6f1t3xlf,dspudva9,2020-0188,2020-05-08,12:28:15,12:59:58,NA,incomplete,105,shape,1,left,Blue_Circle_Grid_2.jpg,Green_Circle_Dots_4.jpg,Blue_Triangle_Stripes_3.jpg,left,801.3550001196563,true,low,NA,NA,NA,NA,NA,NA,NA,false
dspudva9,3vll1pieot1c2ogsesvb4yutk6poza,3tvrfo09goshesbarkw04g6f1t3xlf,dspudva9,2020-0188,2020-05-08,12:28:15,12:59:58,NA,incomplete,106,shape,0,left,Green_Triangle_Stripes_2.jpg,Blue_Triangle_Dots_3.jpg,Green_Circle_Chess_1.jpg,left,997.9000000748783,true,low,NA,NA,NA,NA,NA,NA,NA,false
dspudva9,3vll1pieot1c2ogsesvb4yutk6poza,3tvrfo09goshesbarkw04g6f1t3xlf,dspudva9,2020-0188,2020-05-08,12:28:15,12:59:58,NA,incomplete,107,shape,1,left,Green_Circle_Chess_2.jpg,Red_Circle_Stripes_1.jpg,Green_Plus_Grid_3.jpg,left,1320.7749999128282,true,low,NA,NA,NA,NA,NA,NA,NA,false
dspudva9,3vll1pieot1c2ogsesvb4yutk6poza,3tvrfo09goshesbarkw04g6f1t3xlf,dspudva9,2020-0188,2020-05-08,12:28:15,12:59:58,NA,incomplete,108,shape,1,left,Red_Star_Grid_3.jpg,Purple_Star_Dots_2.jpg,Red_Circle_Chess_1.jpg,left,864.3249999731779,true,low,NA,NA,NA,NA,NA,NA,NA,false
dspudva9,3vll1pieot1c2ogsesvb4yutk6poza,3tvrfo09goshesbarkw04g6f1t3xlf,dspudva9,2020-0188,2020-05-08,12:28:15,12:59:58,NA,incomplete,109,shape,1,left,Green_Plus_Chess_1.jpg,Blue_Plus_Dots_2.jpg,Green_Circle_Grid_3.jpg,left,671.4149999897927,true,low,NA,NA,NA,NA,NA,NA,NA,false
dspudva9,3vll1pieot1c2ogsesvb4yutk6poza,3tvrfo09goshesbarkw04g6f1t3xlf,dspudva9,2020-0188,2020-05-08,12:28:15,12:59:58,NA,incomplete,110,shape,0,right,Green_Circle_Chess_2.jpg,Green_Plus_Stripes_4.jpg,Purple_Circle_Dots_1.jpg,right,939.5500000100583,true,low,NA,NA,NA,NA,NA,NA,NA,false
dspudva9,3vll1pieot1c2ogsesvb4yutk6poza,3tvrfo09goshesbarkw04g6f1t3xlf,dspudva9,2020-0188,2020-05-08,12:28:15,12:59:58,NA,incomplete,111,shape,1,left,Blue_Triangle_Dots_3.jpg,Purple_Triangle_Stripes_2.jpg,Blue_Star_Chess_1.jpg,left,663.4999997913837,true,low,NA,NA,NA,NA,NA,NA,NA,false
dspudva9,3vll1pieot1c2ogsesvb4yutk6poza,3tvrfo09goshesbarkw04g6f1t3xlf,dspudva9,2020-0188,2020-05-08,12:28:15,12:59:58,NA,incomplete,112,shape,1,left,Purple_Star_Grid_2.jpg,Green_Star_Chess_1.jpg,Purple_Plus_Stripes_4.jpg,left,618.2949999347329,true,low,NA,NA,NA,NA,NA,NA,NA,false
dspudva9,3vll1pieot1c2ogsesvb4yutk6poza,3tvrfo09goshesbarkw04g6f1t3xlf,dspudva9,2020-0188,2020-05-08,12:28:15,12:59:58,NA,incomplete,113,shape,1,left,Green_Star_Chess_4.jpg,Purple_Star_Dots_1.jpg,Green_Circle_Grid_2.jpg,left,683.5200001951307,true,low,NA,NA,NA,NA,NA,NA,NA,false
dspudva9,3vll1pieot1c2ogsesvb4yutk6poza,3tvrfo09goshesbarkw04g6f1t3xlf,dspudva9,2020-0188,2020-05-08,12:28:15,12:59:58,NA,incomplete,114,shape,0,right,Blue_Circle_Chess_3.jpg,Blue_Triangle_Stripes_1.jpg,Green_Circle_Grid_2.jpg,right,790.9500000532717,true,low,NA,NA,NA,NA,NA,NA,NA,false
dspudva9,3vll1pieot1c2ogsesvb4yutk6poza,3tvrfo09goshesbarkw04g6f1t3xlf,dspudva9,2020-0188,2020-05-08,12:28:15,12:59:58,NA,incomplete,115,shape,1,left,Blue_Star_Chess_3.jpg,Purple_Star_Stripes_4.jpg,Blue_Plus_Dots_1.jpg,left,541.1249999888241,true,low,NA,NA,NA,NA,NA,NA,NA,false
dspudva9,3vll1pieot1c2ogsesvb4yutk6poza,3tvrfo09goshesbarkw04g6f1t3xlf,dspudva9,2020-0188,2020-05-08,12:28:15,12:59:58,NA,incomplete,116,shape,1,right,Blue_Circle_Grid_1.jpg,Blue_Plus_Dots_3.jpg,Red_Circle_Stripes_2.jpg,right,693.5000000521541,true,low,NA,NA,NA,NA,NA,NA,NA,false
dspudva9,3vll1pieot1c2ogsesvb4yutk6poza,3tvrfo09goshesbarkw04g6f1t3xlf,dspudva9,2020-0188,2020-05-08,12:28:15,12:59:58,NA,incomplete,117,shape,1,left,Green_Plus_Grid_4.jpg,Purple_Plus_Chess_3.jpg,Green_Triangle_Stripes_2.jpg,left,724.2350000888109,true,low,NA,NA,NA,NA,NA,NA,NA,false
dspudva9,3vll1pieot1c2ogsesvb4yutk6poza,3tvrfo09goshesbarkw04g6f1t3xlf,dspudva9,2020-0188,2020-05-08,12:28:15,12:59:58,NA,incomplete,118,shape,1,right,Red_Star_Chess_3.jpg,Red_Plus_Dots_4.jpg,Blue_Star_Stripes_1.jpg,right,696.6500000562519,true,low,NA,NA,NA,NA,NA,NA,NA,false
dspudva9,3vll1pieot1c2ogsesvb4yutk6poza,3tvrfo09goshesbarkw04g6f1t3xlf,dspudva9,2020-0188,2020-05-08,12:28:15,12:59:58,NA,incomplete,119,shape,1,left,Green_Circle_Stripes_4.jpg,Red_Circle_Dots_2.jpg,Green_Triangle_Grid_1.jpg,left,844.6649999823421,true,low,NA,NA,NA,NA,NA,NA,NA,false
dspudva9,3vll1pieot1c2ogsesvb4yutk6poza,3tvrfo09goshesbarkw04g6f1t3xlf,dspudva9,2020-0188,2020-05-08,12:28:15,12:59:58,NA,incomplete,120,color,0,right,Red_Circle_Grid_2.jpg,Green_Circle_Chess_4.jpg,Red_Plus_Dots_1.jpg,left,640.2300000190735,false,low,NA,NA,NA,NA,NA,NA,NA,false
dspudva9,3vll1pieot1c2ogsesvb4yutk6poza,3tvrfo09goshesbarkw04g6f1t3xlf,dspudva9,2020-0188,2020-05-08,12:28:15,12:59:58,NA,incomplete,121,color,1,right,Green_Circle_Stripes_3.jpg,Purple_Circle_Chess_1.jpg,Green_Star_Grid_2.jpg,left,1075.0599999446422,false,low,NA,NA,NA,NA,NA,NA,NA,false
dspudva9,3vll1pieot1c2ogsesvb4yutk6poza,3tvrfo09goshesbarkw04g6f1t3xlf,dspudva9,2020-0188,2020-05-08,12:28:15,12:59:58,NA,incomplete,122,color,1,right,Purple_Triangle_Stripes_2.jpg,Red_Triangle_Chess_1.jpg,Purple_Star_Grid_4.jpg,left,734.6200000029057,false,low,NA,NA,NA,NA,NA,NA,NA,false
dspudva9,3vll1pieot1c2ogsesvb4yutk6poza,3tvrfo09goshesbarkw04g6f1t3xlf,dspudva9,2020-0188,2020-05-08,12:28:15,12:59:58,NA,incomplete,123,color,1,left,Green_Plus_Grid_2.jpg,Green_Triangle_Dots_4.jpg,Blue_Plus_Chess_3.jpg,right,847.4749999586493,false,low,NA,NA,NA,NA,NA,NA,NA,false
dspudva9,3vll1pieot1c2ogsesvb4yutk6poza,3tvrfo09goshesbarkw04g6f1t3xlf,dspudva9,2020-0188,2020-05-08,12:28:15,12:59:58,NA,incomplete,124,color,1,right,Purple_Plus_Grid_1.jpg,Red_Plus_Chess_3.jpg,Purple_Triangle_Dots_4.jpg,left,576.680000172928,false,low,NA,NA,NA,NA,NA,NA,NA,false
dspudva9,3vll1pieot1c2ogsesvb4yutk6poza,3tvrfo09goshesbarkw04g6f1t3xlf,dspudva9,2020-0188,2020-05-08,12:28:15,12:59:58,NA,incomplete,125,color,1,left,Blue_Triangle_Chess_4.jpg,Blue_Plus_Grid_1.jpg,Purple_Triangle_Dots_3.jpg,left,642.1050000935793,true,low,NA,NA,NA,NA,NA,NA,NA,false
dspudva9,3vll1pieot1c2ogsesvb4yutk6poza,3tvrfo09goshesbarkw04g6f1t3xlf,dspudva9,2020-0188,2020-05-08,12:28:15,12:59:58,NA,incomplete,126,color,0,left,Blue_Star_Stripes_1.jpg,Blue_Triangle_Chess_2.jpg,Red_Star_Grid_3.jpg,left,598.204999929294,true,low,NA,NA,NA,NA,NA,NA,NA,false
dspudva9,3vll1pieot1c2ogsesvb4yutk6poza,3tvrfo09goshesbarkw04g6f1t3xlf,dspudva9,2020-0188,2020-05-08,12:28:15,12:59:58,NA,incomplete,127,color,1,right,Blue_Circle_Grid_1.jpg,Red_Circle_Stripes_3.jpg,Blue_Triangle_Chess_2.jpg,right,743.4549999888986,true,low,NA,NA,NA,NA,NA,NA,NA,false
dspudva9,3vll1pieot1c2ogsesvb4yutk6poza,3tvrfo09goshesbarkw04g6f1t3xlf,dspudva9,2020-0188,2020-05-08,12:28:15,12:59:58,NA,incomplete,128,color,1,left,Blue_Triangle_Chess_2.jpg,Blue_Plus_Dots_4.jpg,Purple_Triangle_Stripes_3.jpg,right,958.515000063926,false,low,NA,NA,NA,NA,NA,NA,NA,false
dspudva9,3vll1pieot1c2ogsesvb4yutk6poza,3tvrfo09goshesbarkw04g6f1t3xlf,dspudva9,2020-0188,2020-05-08,12:28:15,12:59:58,NA,incomplete,129,color,1,left,Blue_Circle_Dots_4.jpg,Blue_Star_Stripes_3.jpg,Red_Circle_Chess_1.jpg,left,616.8700000271201,true,low,NA,NA,NA,NA,NA,NA,NA,false
dspudva9,3vll1pieot1c2ogsesvb4yutk6poza,3tvrfo09goshesbarkw04g6f1t3xlf,dspudva9,2020-0188,2020-05-08,12:28:15,12:59:58,NA,incomplete,130,color,1,left,Green_Star_Stripes_3.jpg,Green_Triangle_Grid_4.jpg,Blue_Star_Dots_1.jpg,left,1252.0200000144541,true,low,NA,NA,NA,NA,NA,NA,NA,false
dspudva9,3vll1pieot1c2ogsesvb4yutk6poza,3tvrfo09goshesbarkw04g6f1t3xlf,dspudva9,2020-0188,2020-05-08,12:28:15,12:59:58,NA,incomplete,131,color,0,right,Blue_Star_Stripes_4.jpg,Green_Star_Chess_3.jpg,Blue_Triangle_Grid_2.jpg,right,635.9550000634044,true,low,NA,NA,NA,NA,NA,NA,NA,false
dspudva9,3vll1pieot1c2ogsesvb4yutk6poza,3tvrfo09goshesbarkw04g6f1t3xlf,dspudva9,2020-0188,2020-05-08,12:28:15,12:59:58,NA,incomplete,132,color,1,left,Purple_Star_Stripes_2.jpg,Purple_Circle_Chess_4.jpg,Blue_Star_Dots_1.jpg,left,729.4999998994172,true,low,NA,NA,NA,NA,NA,NA,NA,false
dspudva9,3vll1pieot1c2ogsesvb4yutk6poza,3tvrfo09goshesbarkw04g6f1t3xlf,dspudva9,2020-0188,2020-05-08,12:28:15,12:59:58,NA,incomplete,133,color,1,left,Green_Plus_Stripes_1.jpg,Green_Triangle_Chess_4.jpg,Purple_Plus_Grid_3.jpg,left,676.6900001093745,true,low,NA,NA,NA,NA,NA,NA,NA,false
dspudva9,3vll1pieot1c2ogsesvb4yutk6poza,3tvrfo09goshesbarkw04g6f1t3xlf,dspudva9,2020-0188,2020-05-08,12:28:15,12:59:58,NA,incomplete,134,color,1,left,Green_Circle_Stripes_4.jpg,Green_Triangle_Grid_2.jpg,Blue_Circle_Dots_3.jpg,left,563.4500000160187,true,low,NA,NA,NA,NA,NA,NA,NA,false
dspudva9,3vll1pieot1c2ogsesvb4yutk6poza,3tvrfo09goshesbarkw04g6f1t3xlf,dspudva9,2020-0188,2020-05-08,12:28:15,12:59:58,NA,incomplete,135,color,1,right,Green_Plus_Grid_1.jpg,Blue_Plus_Dots_2.jpg,Green_Circle_Stripes_3.jpg,right,555.9750001411885,true,low,NA,NA,NA,NA,NA,NA,NA,false
dspudva9,3vll1pieot1c2ogsesvb4yutk6poza,3tvrfo09goshesbarkw04g6f1t3xlf,dspudva9,2020-0188,2020-05-08,12:28:15,12:59:58,NA,incomplete,136,color,1,right,Blue_Plus_Chess_1.jpg,Red_Plus_Dots_4.jpg,Blue_Circle_Grid_2.jpg,right,672.0000000204891,true,low,NA,NA,NA,NA,NA,NA,NA,false
dspudva9,3vll1pieot1c2ogsesvb4yutk6poza,3tvrfo09goshesbarkw04g6f1t3xlf,dspudva9,2020-0188,2020-05-08,12:28:15,12:59:58,NA,incomplete,137,color,1,left,Purple_Circle_Grid_4.jpg,Purple_Star_Stripes_3.jpg,Green_Circle_Dots_1.jpg,left,751.2199999764562,true,low,NA,NA,NA,NA,NA,NA,NA,false
dspudva9,3vll1pieot1c2ogsesvb4yutk6poza,3tvrfo09goshesbarkw04g6f1t3xlf,dspudva9,2020-0188,2020-05-08,12:28:15,12:59:58,NA,incomplete,138,color,1,left,Purple_Circle_Chess_4.jpg,Purple_Triangle_Stripes_3.jpg,Blue_Circle_Grid_1.jpg,left,590.7099999021739,true,low,NA,NA,NA,NA,NA,NA,NA,false
dspudva9,3vll1pieot1c2ogsesvb4yutk6poza,3tvrfo09goshesbarkw04g6f1t3xlf,dspudva9,2020-0188,2020-05-08,12:28:15,12:59:58,NA,incomplete,139,color,1,left,Red_Star_Grid_1.jpg,Red_Circle_Chess_2.jpg,Blue_Star_Stripes_3.jpg,left,577.2150000557303,true,low,NA,NA,NA,NA,NA,NA,NA,false
dspudva9,3vll1pieot1c2ogsesvb4yutk6poza,3tvrfo09goshesbarkw04g6f1t3xlf,dspudva9,2020-0188,2020-05-08,12:28:15,12:59:58,NA,incomplete,140,shape,1,right,Red_Triangle_Grid_1.jpg,Red_Circle_Stripes_3.jpg,Blue_Triangle_Dots_2.jpg,left,590.3650000691414,false,low,NA,NA,NA,NA,NA,NA,NA,false
dspudva9,3vll1pieot1c2ogsesvb4yutk6poza,3tvrfo09goshesbarkw04g6f1t3xlf,dspudva9,2020-0188,2020-05-08,12:28:15,12:59:58,NA,incomplete,141,shape,1,left,Purple_Circle_Stripes_1.jpg,Green_Circle_Dots_3.jpg,Purple_Plus_Chess_4.jpg,right,958.6199999321252,false,low,NA,NA,NA,NA,NA,NA,NA,false
dspudva9,3vll1pieot1c2ogsesvb4yutk6poza,3tvrfo09goshesbarkw04g6f1t3xlf,dspudva9,2020-0188,2020-05-08,12:28:15,12:59:58,NA,incomplete,142,shape,1,right,Red_Circle_Stripes_3.jpg,Red_Star_Dots_2.jpg,Blue_Circle_Grid_4.jpg,left,660.1650000084192,false,low,NA,NA,NA,NA,NA,NA,NA,false
dspudva9,3vll1pieot1c2ogsesvb4yutk6poza,3tvrfo09goshesbarkw04g6f1t3xlf,dspudva9,2020-0188,2020-05-08,12:28:15,12:59:58,NA,incomplete,143,shape,1,right,Green_Circle_Grid_1.jpg,Green_Plus_Stripes_3.jpg,Purple_Circle_Chess_2.jpg,right,897.0749999862164,true,low,NA,NA,NA,NA,NA,NA,NA,false
dspudva9,3vll1pieot1c2ogsesvb4yutk6poza,3tvrfo09goshesbarkw04g6f1t3xlf,dspudva9,2020-0188,2020-05-08,12:28:15,12:59:58,NA,incomplete,144,shape,1,right,Red_Circle_Dots_3.jpg,Red_Star_Stripes_1.jpg,Green_Circle_Grid_4.jpg,right,683.0199998803437,true,low,NA,NA,NA,NA,NA,NA,NA,false
dspudva9,3vll1pieot1c2ogsesvb4yutk6poza,3tvrfo09goshesbarkw04g6f1t3xlf,dspudva9,2020-0188,2020-05-08,12:28:15,12:59:58,NA,incomplete,145,shape,1,left,Green_Circle_Stripes_1.jpg,Red_Circle_Dots_2.jpg,Green_Plus_Grid_3.jpg,left,752.234999788925,true,low,NA,NA,NA,NA,NA,NA,NA,false
dspudva9,3vll1pieot1c2ogsesvb4yutk6poza,3tvrfo09goshesbarkw04g6f1t3xlf,dspudva9,2020-0188,2020-05-08,12:28:15,12:59:58,NA,incomplete,146,shape,0,left,Green_Plus_Dots_4.jpg,Blue_Plus_Chess_2.jpg,Green_Star_Stripes_3.jpg,left,641.9649999588728,true,low,NA,NA,NA,NA,NA,NA,NA,false
dspudva9,3vll1pieot1c2ogsesvb4yutk6poza,3tvrfo09goshesbarkw04g6f1t3xlf,dspudva9,2020-0188,2020-05-08,12:28:15,12:59:58,NA,incomplete,147,shape,1,left,Purple_Plus_Dots_1.jpg,Red_Plus_Chess_4.jpg,Purple_Triangle_Stripes_2.jpg,left,635.9850000590086,true,low,NA,NA,NA,NA,NA,NA,NA,false
dspudva9,3vll1pieot1c2ogsesvb4yutk6poza,3tvrfo09goshesbarkw04g6f1t3xlf,dspudva9,2020-0188,2020-05-08,12:28:15,12:59:58,NA,incomplete,148,shape,1,right,Purple_Circle_Grid_3.jpg,Purple_Plus_Stripes_1.jpg,Blue_Circle_Dots_2.jpg,right,703.9599998388439,true,low,NA,NA,NA,NA,NA,NA,NA,false
dspudva9,3vll1pieot1c2ogsesvb4yutk6poza,3tvrfo09goshesbarkw04g6f1t3xlf,dspudva9,2020-0188,2020-05-08,12:28:15,12:59:58,NA,incomplete,149,shape,1,left,Blue_Triangle_Chess_4.jpg,Red_Triangle_Grid_3.jpg,Blue_Plus_Stripes_1.jpg,left,510.01000008545816,true,low,NA,NA,NA,NA,NA,NA,NA,false
dspudva9,3vll1pieot1c2ogsesvb4yutk6poza,3tvrfo09goshesbarkw04g6f1t3xlf,dspudva9,2020-0188,2020-05-08,12:28:15,12:59:58,NA,incomplete,150,shape,1,left,Purple_Star_Stripes_3.jpg,Green_Star_Dots_2.jpg,Purple_Triangle_Grid_4.jpg,left,716.7800001334399,true,low,NA,NA,NA,NA,NA,NA,NA,false
dspudva9,3vll1pieot1c2ogsesvb4yutk6poza,3tvrfo09goshesbarkw04g6f1t3xlf,dspudva9,2020-0188,2020-05-08,12:28:15,12:59:58,NA,incomplete,151,shape,0,right,Purple_Circle_Dots_3.jpg,Purple_Triangle_Chess_1.jpg,Blue_Circle_Grid_2.jpg,right,519.2150000948459,true,low,NA,NA,NA,NA,NA,NA,NA,false
dspudva9,3vll1pieot1c2ogsesvb4yutk6poza,3tvrfo09goshesbarkw04g6f1t3xlf,dspudva9,2020-0188,2020-05-08,12:28:15,12:59:58,NA,incomplete,152,shape,1,left,Green_Circle_Stripes_4.jpg,Purple_Circle_Chess_3.jpg,Green_Triangle_Dots_1.jpg,left,595.6900001037866,true,low,NA,NA,NA,NA,NA,NA,NA,false
dspudva9,3vll1pieot1c2ogsesvb4yutk6poza,3tvrfo09goshesbarkw04g6f1t3xlf,dspudva9,2020-0188,2020-05-08,12:28:15,12:59:58,NA,incomplete,153,shape,1,left,Purple_Star_Dots_1.jpg,Blue_Star_Grid_3.jpg,Purple_Plus_Stripes_4.jpg,left,519.9549999088049,true,low,NA,NA,NA,NA,NA,NA,NA,false
dspudva9,3vll1pieot1c2ogsesvb4yutk6poza,3tvrfo09goshesbarkw04g6f1t3xlf,dspudva9,2020-0188,2020-05-08,12:28:15,12:59:58,NA,incomplete,154,shape,1,left,Purple_Triangle_Dots_2.jpg,Red_Triangle_Grid_1.jpg,Purple_Circle_Chess_3.jpg,left,614.7900000214577,true,low,NA,NA,NA,NA,NA,NA,NA,false
dspudva9,3vll1pieot1c2ogsesvb4yutk6poza,3tvrfo09goshesbarkw04g6f1t3xlf,dspudva9,2020-0188,2020-05-08,12:28:15,12:59:58,NA,incomplete,155,shape,1,left,Red_Plus_Grid_3.jpg,Purple_Plus_Chess_2.jpg,Red_Star_Stripes_4.jpg,left,715.3000000398606,true,low,NA,NA,NA,NA,NA,NA,NA,false
dspudva9,3vll1pieot1c2ogsesvb4yutk6poza,3tvrfo09goshesbarkw04g6f1t3xlf,dspudva9,2020-0188,2020-05-08,12:28:15,12:59:58,NA,incomplete,156,shape,1,left,Blue_Star_Chess_4.jpg,Green_Star_Grid_2.jpg,Blue_Circle_Stripes_3.jpg,left,672.8199999779463,true,low,NA,NA,NA,NA,NA,NA,NA,false
dspudva9,3vll1pieot1c2ogsesvb4yutk6poza,3tvrfo09goshesbarkw04g6f1t3xlf,dspudva9,2020-0188,2020-05-08,12:28:15,12:59:58,NA,incomplete,157,shape,1,left,Blue_Circle_Grid_1.jpg,Red_Circle_Dots_3.jpg,Blue_Triangle_Chess_4.jpg,left,547.9349999222904,true,low,NA,NA,NA,NA,NA,NA,NA,false
dspudva9,3vll1pieot1c2ogsesvb4yutk6poza,3tvrfo09goshesbarkw04g6f1t3xlf,dspudva9,2020-0188,2020-05-08,12:28:15,12:59:58,NA,incomplete,158,shape,0,right,Purple_Circle_Stripes_2.jpg,Purple_Star_Grid_4.jpg,Red_Circle_Dots_3.jpg,right,737.5950000714511,true,low,NA,NA,NA,NA,NA,NA,NA,false
dspudva9,3vll1pieot1c2ogsesvb4yutk6poza,3tvrfo09goshesbarkw04g6f1t3xlf,dspudva9,2020-0188,2020-05-08,12:28:15,12:59:58,NA,incomplete,159,shape,1,left,Purple_Star_Stripes_1.jpg,Red_Star_Grid_3.jpg,Purple_Circle_Chess_4.jpg,left,632.6849998440593,true,low,NA,NA,NA,NA,NA,NA,NA,false
dspudva9,3vll1pieot1c2ogsesvb4yutk6poza,3tvrfo09goshesbarkw04g6f1t3xlf,dspudva9,2020-0188,2020-05-08,12:28:15,12:59:58,NA,incomplete,160,color,0,left,Green_Plus_Grid_4.jpg,Green_Circle_Chess_1.jpg,Blue_Plus_Dots_3.jpg,right,621.1200000252575,false,low,NA,NA,NA,NA,NA,NA,NA,false
dspudva9,3vll1pieot1c2ogsesvb4yutk6poza,3tvrfo09goshesbarkw04g6f1t3xlf,dspudva9,2020-0188,2020-05-08,12:28:15,12:59:58,NA,incomplete,161,color,1,left,Blue_Circle_Stripes_1.jpg,Blue_Plus_Grid_2.jpg,Purple_Circle_Chess_3.jpg,right,658.1549998372793,false,low,NA,NA,NA,NA,NA,NA,NA,false
dspudva9,3vll1pieot1c2ogsesvb4yutk6poza,3tvrfo09goshesbarkw04g6f1t3xlf,dspudva9,2020-0188,2020-05-08,12:28:15,12:59:58,NA,incomplete,162,color,1,right,Red_Triangle_Dots_2.jpg,Blue_Triangle_Chess_1.jpg,Red_Plus_Stripes_4.jpg,left,603.9550001733005,false,low,NA,NA,NA,NA,NA,NA,NA,false
dspudva9,3vll1pieot1c2ogsesvb4yutk6poza,3tvrfo09goshesbarkw04g6f1t3xlf,dspudva9,2020-0188,2020-05-08,12:28:15,12:59:58,NA,incomplete,163,color,1,right,Green_Star_Chess_1.jpg,Purple_Star_Dots_3.jpg,Green_Triangle_Grid_4.jpg,right,784.029999980703,true,low,NA,NA,NA,NA,NA,NA,NA,false
dspudva9,3vll1pieot1c2ogsesvb4yutk6poza,3tvrfo09goshesbarkw04g6f1t3xlf,dspudva9,2020-0188,2020-05-08,12:28:15,12:59:58,NA,incomplete,164,color,1,left,Red_Triangle_Chess_4.jpg,Red_Plus_Stripes_1.jpg,Purple_Triangle_Dots_3.jpg,left,789.6600000094622,true,low,NA,NA,NA,NA,NA,NA,NA,false
dspudva9,3vll1pieot1c2ogsesvb4yutk6poza,3tvrfo09goshesbarkw04g6f1t3xlf,dspudva9,2020-0188,2020-05-08,12:28:15,12:59:58,NA,incomplete,165,color,1,right,Red_Star_Chess_4.jpg,Purple_Star_Dots_2.jpg,Red_Triangle_Stripes_3.jpg,right,653.1700000632554,true,low,NA,NA,NA,NA,NA,NA,NA,false
dspudva9,3vll1pieot1c2ogsesvb4yutk6poza,3tvrfo09goshesbarkw04g6f1t3xlf,dspudva9,2020-0188,2020-05-08,12:28:15,12:59:58,NA,incomplete,166,color,1,right,Purple_Circle_Stripes_3.jpg,Green_Circle_Chess_4.jpg,Purple_Plus_Grid_2.jpg,right,916.4899999741465,true,low,NA,NA,NA,NA,NA,NA,NA,false
dspudva9,3vll1pieot1c2ogsesvb4yutk6poza,3tvrfo09goshesbarkw04g6f1t3xlf,dspudva9,2020-0188,2020-05-08,12:28:15,12:59:58,NA,incomplete,167,color,0,left,Green_Star_Dots_1.jpg,Green_Triangle_Stripes_2.jpg,Purple_Star_Chess_3.jpg,left,616.7150000110269,true,low,NA,NA,NA,NA,NA,NA,NA,false
dspudva9,3vll1pieot1c2ogsesvb4yutk6poza,3tvrfo09goshesbarkw04g6f1t3xlf,dspudva9,2020-0188,2020-05-08,12:28:15,12:59:58,NA,incomplete,168,color,1,left,Purple_Triangle_Grid_3.jpg,Purple_Circle_Dots_2.jpg,Red_Triangle_Stripes_4.jpg,left,599.8600001912564,true,low,NA,NA,NA,NA,NA,NA,NA,false
dspudva9,3vll1pieot1c2ogsesvb4yutk6poza,3tvrfo09goshesbarkw04g6f1t3xlf,dspudva9,2020-0188,2020-05-08,12:28:15,12:59:58,NA,incomplete,169,color,0,right,Green_Plus_Stripes_1.jpg,Blue_Plus_Chess_3.jpg,Green_Triangle_Grid_4.jpg,right,572.0849998760968,true,low,NA,NA,NA,NA,NA,NA,NA,false
dspudva9,3vll1pieot1c2ogsesvb4yutk6poza,3tvrfo09goshesbarkw04g6f1t3xlf,dspudva9,2020-0188,2020-05-08,12:28:15,12:59:58,NA,incomplete,170,color,1,right,Green_Star_Stripes_2.jpg,Red_Star_Dots_1.jpg,Green_Triangle_Chess_3.jpg,right,543.2249999139458,true,low,NA,NA,NA,NA,NA,NA,NA,false
dspudva9,3vll1pieot1c2ogsesvb4yutk6poza,3tvrfo09goshesbarkw04g6f1t3xlf,dspudva9,2020-0188,2020-05-08,12:28:15,12:59:58,NA,incomplete,171,color,1,right,Purple_Circle_Dots_2.jpg,Blue_Circle_Grid_1.jpg,Purple_Plus_Stripes_3.jpg,right,824.2450000252575,true,low,NA,NA,NA,NA,NA,NA,NA,false
dspudva9,3vll1pieot1c2ogsesvb4yutk6poza,3tvrfo09goshesbarkw04g6f1t3xlf,dspudva9,2020-0188,2020-05-08,12:28:15,12:59:58,NA,incomplete,172,color,1,right,Purple_Plus_Grid_4.jpg,Green_Plus_Dots_2.jpg,Purple_Star_Chess_3.jpg,right,760.370000032708,true,low,NA,NA,NA,NA,NA,NA,NA,false
dspudva9,3vll1pieot1c2ogsesvb4yutk6poza,3tvrfo09goshesbarkw04g6f1t3xlf,dspudva9,2020-0188,2020-05-08,12:28:15,12:59:58,NA,incomplete,173,color,1,left,Red_Plus_Dots_2.jpg,Red_Star_Stripes_3.jpg,Blue_Plus_Chess_1.jpg,left,502.9300001915544,true,low,NA,NA,NA,NA,NA,NA,NA,false
dspudva9,3vll1pieot1c2ogsesvb4yutk6poza,3tvrfo09goshesbarkw04g6f1t3xlf,dspudva9,2020-0188,2020-05-08,12:28:15,12:59:58,NA,incomplete,174,color,1,right,Green_Plus_Grid_2.jpg,Red_Plus_Dots_1.jpg,Green_Star_Chess_3.jpg,right,701.7950001172721,true,low,NA,NA,NA,NA,NA,NA,NA,false
dspudva9,3vll1pieot1c2ogsesvb4yutk6poza,3tvrfo09goshesbarkw04g6f1t3xlf,dspudva9,2020-0188,2020-05-08,12:28:15,12:59:58,NA,incomplete,175,color,1,left,Purple_Star_Dots_4.jpg,Purple_Plus_Stripes_1.jpg,Blue_Star_Chess_3.jpg,left,747.9550000280142,true,low,NA,NA,NA,NA,NA,NA,NA,false
dspudva9,3vll1pieot1c2ogsesvb4yutk6poza,3tvrfo09goshesbarkw04g6f1t3xlf,dspudva9,2020-0188,2020-05-08,12:28:15,12:59:58,NA,incomplete,176,color,1,left,Blue_Plus_Grid_1.jpg,Blue_Triangle_Chess_2.jpg,Green_Plus_Stripes_4.jpg,left,686.5949998609722,true,low,NA,NA,NA,NA,NA,NA,NA,false
dspudva9,3vll1pieot1c2ogsesvb4yutk6poza,3tvrfo09goshesbarkw04g6f1t3xlf,dspudva9,2020-0188,2020-05-08,12:28:15,12:59:58,NA,incomplete,177,color,0,left,Blue_Circle_Chess_1.jpg,Blue_Plus_Stripes_3.jpg,Red_Circle_Grid_2.jpg,left,482.5499998405576,true,low,NA,NA,NA,NA,NA,NA,NA,false
dspudva9,3vll1pieot1c2ogsesvb4yutk6poza,3tvrfo09goshesbarkw04g6f1t3xlf,dspudva9,2020-0188,2020-05-08,12:28:15,12:59:58,NA,incomplete,178,color,1,right,Blue_Triangle_Grid_2.jpg,Red_Triangle_Stripes_1.jpg,Blue_Circle_Chess_3.jpg,right,590.7199999783188,true,low,NA,NA,NA,NA,NA,NA,NA,false
dspudva9,3vll1pieot1c2ogsesvb4yutk6poza,3tvrfo09goshesbarkw04g6f1t3xlf,dspudva9,2020-0188,2020-05-08,12:28:15,12:59:58,NA,incomplete,179,color,1,left,Red_Plus_Grid_1.jpg,Red_Triangle_Stripes_4.jpg,Blue_Plus_Dots_2.jpg,left,572.8850001469254,true,low,NA,NA,NA,NA,NA,NA,NA,false
dspudva9,3vll1pieot1c2ogsesvb4yutk6poza,3tvrfo09goshesbarkw04g6f1t3xlf,dspudva9,2020-0188,2020-05-08,12:28:15,12:59:58,NA,incomplete,180,shape,0,left,Green_Star_Stripes_3.jpg,Purple_Star_Chess_1.jpg,Green_Circle_Grid_4.jpg,right,585.6850000564009,false,low,NA,NA,NA,NA,NA,NA,NA,false
dspudva9,3vll1pieot1c2ogsesvb4yutk6poza,3tvrfo09goshesbarkw04g6f1t3xlf,dspudva9,2020-0188,2020-05-08,12:28:15,12:59:58,NA,incomplete,181,shape,1,left,Green_Star_Grid_1.jpg,Blue_Star_Chess_4.jpg,Green_Circle_Stripes_2.jpg,right,571.9850000459701,false,low,NA,NA,NA,NA,NA,NA,NA,false
dspudva9,3vll1pieot1c2ogsesvb4yutk6poza,3tvrfo09goshesbarkw04g6f1t3xlf,dspudva9,2020-0188,2020-05-08,12:28:15,12:59:58,NA,incomplete,182,shape,1,right,Purple_Star_Stripes_3.jpg,Purple_Triangle_Grid_2.jpg,Green_Star_Chess_1.jpg,left,909.1849999967963,false,low,NA,NA,NA,NA,NA,NA,NA,false
dspudva9,3vll1pieot1c2ogsesvb4yutk6poza,3tvrfo09goshesbarkw04g6f1t3xlf,dspudva9,2020-0188,2020-05-08,12:28:15,12:59:58,NA,incomplete,183,shape,0,right,Red_Plus_Dots_3.jpg,Red_Circle_Grid_4.jpg,Purple_Plus_Chess_2.jpg,left,579.0199998300523,false,low,NA,NA,NA,NA,NA,NA,NA,false
dspudva9,3vll1pieot1c2ogsesvb4yutk6poza,3tvrfo09goshesbarkw04g6f1t3xlf,dspudva9,2020-0188,2020-05-08,12:28:15,12:59:58,NA,incomplete,184,shape,1,right,Purple_Star_Dots_2.jpg,Purple_Plus_Chess_3.jpg,Blue_Star_Stripes_1.jpg,left,1041.5700001176447,false,low,NA,NA,NA,NA,NA,NA,NA,false
dspudva9,3vll1pieot1c2ogsesvb4yutk6poza,3tvrfo09goshesbarkw04g6f1t3xlf,dspudva9,2020-0188,2020-05-08,12:28:15,12:59:58,NA,incomplete,185,shape,0,right,Green_Star_Grid_4.jpg,Green_Triangle_Chess_3.jpg,Purple_Star_Dots_1.jpg,left,680.8400000445545,false,low,NA,NA,NA,NA,NA,NA,NA,false
dspudva9,3vll1pieot1c2ogsesvb4yutk6poza,3tvrfo09goshesbarkw04g6f1t3xlf,dspudva9,2020-0188,2020-05-08,12:28:15,12:59:58,NA,incomplete,186,shape,1,right,Red_Triangle_Dots_2.jpg,Red_Circle_Stripes_3.jpg,Blue_Triangle_Chess_4.jpg,left,627.2150001022965,false,low,NA,NA,NA,NA,NA,NA,NA,false
dspudva9,3vll1pieot1c2ogsesvb4yutk6poza,3tvrfo09goshesbarkw04g6f1t3xlf,dspudva9,2020-0188,2020-05-08,12:28:15,12:59:58,NA,incomplete,187,shape,1,left,Purple_Circle_Stripes_2.jpg,Blue_Circle_Dots_4.jpg,Purple_Plus_Grid_1.jpg,right,832.2450001724064,false,low,NA,NA,NA,NA,NA,NA,NA,false
dspudva9,3vll1pieot1c2ogsesvb4yutk6poza,3tvrfo09goshesbarkw04g6f1t3xlf,dspudva9,2020-0188,2020-05-08,12:28:15,12:59:58,NA,incomplete,188,shape,0,right,Purple_Circle_Chess_4.jpg,Purple_Plus_Stripes_2.jpg,Green_Circle_Grid_3.jpg,left,1078.0249999370426,false,low,NA,NA,NA,NA,NA,NA,NA,false
dspudva9,3vll1pieot1c2ogsesvb4yutk6poza,3tvrfo09goshesbarkw04g6f1t3xlf,dspudva9,2020-0188,2020-05-08,12:28:15,12:59:58,NA,incomplete,189,shape,1,left,Red_Plus_Grid_2.jpg,Blue_Plus_Dots_3.jpg,Red_Star_Chess_4.jpg,right,731.2950000632554,false,low,NA,NA,NA,NA,NA,NA,NA,false
dspudva9,3vll1pieot1c2ogsesvb4yutk6poza,3tvrfo09goshesbarkw04g6f1t3xlf,dspudva9,2020-0188,2020-05-08,12:28:15,12:59:58,NA,incomplete,190,shape,1,left,Blue_Circle_Dots_1.jpg,Green_Circle_Chess_3.jpg,Blue_Star_Grid_4.jpg,right,778.6700001452118,false,low,NA,NA,NA,NA,NA,NA,NA,false
dspudva9,3vll1pieot1c2ogsesvb4yutk6poza,3tvrfo09goshesbarkw04g6f1t3xlf,dspudva9,2020-0188,2020-05-08,12:28:15,12:59:58,NA,incomplete,191,shape,1,left,Blue_Triangle_Stripes_1.jpg,Purple_Triangle_Chess_2.jpg,Blue_Circle_Dots_4.jpg,left,715.3149999212474,true,low,NA,NA,NA,NA,NA,NA,NA,false
dspudva9,3vll1pieot1c2ogsesvb4yutk6poza,3tvrfo09goshesbarkw04g6f1t3xlf,dspudva9,2020-0188,2020-05-08,12:28:15,12:59:58,NA,incomplete,192,shape,1,right,Purple_Circle_Chess_1.jpg,Purple_Star_Grid_4.jpg,Red_Circle_Dots_3.jpg,right,622.6950001437217,true,low,NA,NA,NA,NA,NA,NA,NA,false
dspudva9,3vll1pieot1c2ogsesvb4yutk6poza,3tvrfo09goshesbarkw04g6f1t3xlf,dspudva9,2020-0188,2020-05-08,12:28:15,12:59:58,NA,incomplete,193,shape,1,right,Red_Circle_Stripes_4.jpg,Red_Plus_Grid_2.jpg,Blue_Circle_Chess_3.jpg,left,890.3150002006441,false,low,NA,NA,NA,NA,NA,NA,NA,false
dspudva9,3vll1pieot1c2ogsesvb4yutk6poza,3tvrfo09goshesbarkw04g6f1t3xlf,dspudva9,2020-0188,2020-05-08,12:28:15,12:59:58,NA,incomplete,194,shape,1,right,Blue_Plus_Stripes_1.jpg,Blue_Triangle_Grid_3.jpg,Purple_Plus_Chess_2.jpg,right,690.4599999543279,true,low,NA,NA,NA,NA,NA,NA,NA,false
dspudva9,3vll1pieot1c2ogsesvb4yutk6poza,3tvrfo09goshesbarkw04g6f1t3xlf,dspudva9,2020-0188,2020-05-08,12:28:15,12:59:58,NA,incomplete,195,shape,1,left,Red_Triangle_Stripes_2.jpg,Purple_Triangle_Dots_1.jpg,Red_Plus_Chess_3.jpg,left,857.480000006035,true,low,NA,NA,NA,NA,NA,NA,NA,false
dspudva9,3vll1pieot1c2ogsesvb4yutk6poza,3tvrfo09goshesbarkw04g6f1t3xlf,dspudva9,2020-0188,2020-05-08,12:28:15,12:59:58,NA,incomplete,196,shape,0,right,Green_Circle_Chess_4.jpg,Green_Plus_Grid_2.jpg,Blue_Circle_Dots_3.jpg,right,784.8499999381602,true,low,NA,NA,NA,NA,NA,NA,NA,false
dspudva9,3vll1pieot1c2ogsesvb4yutk6poza,3tvrfo09goshesbarkw04g6f1t3xlf,dspudva9,2020-0188,2020-05-08,12:28:15,12:59:58,NA,incomplete,197,shape,1,right,Blue_Plus_Chess_3.jpg,Blue_Star_Dots_4.jpg,Green_Plus_Stripes_1.jpg,right,899.3999999947846,true,low,NA,NA,NA,NA,NA,NA,NA,false
dspudva9,3vll1pieot1c2ogsesvb4yutk6poza,3tvrfo09goshesbarkw04g6f1t3xlf,dspudva9,2020-0188,2020-05-08,12:28:15,12:59:58,NA,incomplete,198,shape,1,left,Blue_Star_Stripes_4.jpg,Red_Star_Dots_2.jpg,Blue_Circle_Chess_1.jpg,left,637.3150001745671,true,low,NA,NA,NA,NA,NA,NA,NA,false
dspudva9,3vll1pieot1c2ogsesvb4yutk6poza,3tvrfo09goshesbarkw04g6f1t3xlf,dspudva9,2020-0188,2020-05-08,12:28:15,12:59:58,NA,incomplete,199,shape,1,left,Red_Circle_Dots_4.jpg,Blue_Circle_Stripes_1.jpg,Red_Plus_Chess_3.jpg,left,620.9449998568743,true,low,NA,NA,NA,NA,NA,NA,NA,false
dspudva9,3vll1pieot1c2ogsesvb4yutk6poza,3tvrfo09goshesbarkw04g6f1t3xlf,dspudva9,2020-0188,2020-05-08,12:28:15,12:59:58,NA,incomplete,200,color,1,right,Purple_Plus_Dots_4.jpg,Red_Plus_Chess_2.jpg,Purple_Circle_Stripes_3.jpg,left,647.2900002263486,false,low,NA,NA,NA,NA,NA,NA,NA,false
dspudva9,3vll1pieot1c2ogsesvb4yutk6poza,3tvrfo09goshesbarkw04g6f1t3xlf,dspudva9,2020-0188,2020-05-08,12:28:15,12:59:58,NA,incomplete,201,color,1,right,Green_Star_Stripes_1.jpg,Red_Star_Chess_4.jpg,Green_Circle_Grid_2.jpg,left,984.2949998565018,false,low,NA,NA,NA,NA,NA,NA,NA,false
dspudva9,3vll1pieot1c2ogsesvb4yutk6poza,3tvrfo09goshesbarkw04g6f1t3xlf,dspudva9,2020-0188,2020-05-08,12:28:15,12:59:58,NA,incomplete,202,color,1,right,Blue_Star_Chess_1.jpg,Red_Star_Stripes_3.jpg,Blue_Circle_Grid_2.jpg,left,1197.0000001601875,false,low,NA,NA,NA,NA,NA,NA,NA,false
dspudva9,3vll1pieot1c2ogsesvb4yutk6poza,3tvrfo09goshesbarkw04g6f1t3xlf,dspudva9,2020-0188,2020-05-08,12:28:15,12:59:58,NA,incomplete,203,color,1,left,Blue_Star_Stripes_3.jpg,Blue_Triangle_Dots_2.jpg,Green_Star_Grid_1.jpg,left,724.879999877885,true,low,NA,NA,NA,NA,NA,NA,NA,false
dspudva9,3vll1pieot1c2ogsesvb4yutk6poza,3tvrfo09goshesbarkw04g6f1t3xlf,dspudva9,2020-0188,2020-05-08,12:28:15,12:59:58,NA,incomplete,204,color,1,left,Green_Star_Chess_3.jpg,Green_Triangle_Dots_4.jpg,Red_Star_Grid_1.jpg,left,671.339999884367,true,low,NA,NA,NA,NA,NA,NA,NA,false
dspudva9,3vll1pieot1c2ogsesvb4yutk6poza,3tvrfo09goshesbarkw04g6f1t3xlf,dspudva9,2020-0188,2020-05-08,12:28:15,12:59:58,NA,incomplete,205,color,0,right,Red_Plus_Stripes_2.jpg,Blue_Plus_Grid_1.jpg,Red_Triangle_Chess_4.jpg,right,939.2200000584126,true,low,NA,NA,NA,NA,NA,NA,NA,false
dspudva9,3vll1pieot1c2ogsesvb4yutk6poza,3tvrfo09goshesbarkw04g6f1t3xlf,dspudva9,2020-0188,2020-05-08,12:28:15,12:59:58,NA,incomplete,206,color,1,right,Purple_Triangle_Stripes_2.jpg,Green_Triangle_Chess_4.jpg,Purple_Star_Dots_3.jpg,right,924.170000012964,true,low,NA,NA,NA,NA,NA,NA,NA,false
dspudva9,3vll1pieot1c2ogsesvb4yutk6poza,3tvrfo09goshesbarkw04g6f1t3xlf,dspudva9,2020-0188,2020-05-08,12:28:15,12:59:58,NA,incomplete,207,color,1,left,Red_Circle_Dots_1.jpg,Red_Star_Grid_2.jpg,Green_Circle_Stripes_3.jpg,left,737.5400001183152,true,low,NA,NA,NA,NA,NA,NA,NA,false
dspudva9,3vll1pieot1c2ogsesvb4yutk6poza,3tvrfo09goshesbarkw04g6f1t3xlf,dspudva9,2020-0188,2020-05-08,12:28:15,12:59:58,NA,incomplete,208,color,1,right,Red_Circle_Chess_2.jpg,Green_Circle_Grid_4.jpg,Red_Triangle_Stripes_1.jpg,right,674.5949999894947,true,low,NA,NA,NA,NA,NA,NA,NA,false
dspudva9,3vll1pieot1c2ogsesvb4yutk6poza,3tvrfo09goshesbarkw04g6f1t3xlf,dspudva9,2020-0188,2020-05-08,12:28:15,12:59:58,NA,incomplete,209,color,1,right,Green_Circle_Grid_3.jpg,Blue_Circle_Chess_1.jpg,Green_Plus_Dots_2.jpg,right,820.8850000519305,true,low,NA,NA,NA,NA,NA,NA,NA,false
dspudva9,3vll1pieot1c2ogsesvb4yutk6poza,3tvrfo09goshesbarkw04g6f1t3xlf,dspudva9,2020-0188,2020-05-08,12:28:15,12:59:58,NA,incomplete,210,color,0,right,Green_Circle_Chess_3.jpg,Purple_Circle_Stripes_1.jpg,Green_Star_Dots_2.jpg,right,562.8450000658631,true,low,NA,NA,NA,NA,NA,NA,NA,false
dspudva9,3vll1pieot1c2ogsesvb4yutk6poza,3tvrfo09goshesbarkw04g6f1t3xlf,dspudva9,2020-0188,2020-05-08,12:28:15,12:59:58,NA,incomplete,211,color,1,left,Green_Plus_Stripes_1.jpg,Green_Circle_Grid_4.jpg,Purple_Plus_Chess_2.jpg,left,513.2400000002235,true,low,NA,NA,NA,NA,NA,NA,NA,false
dspudva9,3vll1pieot1c2ogsesvb4yutk6poza,3tvrfo09goshesbarkw04g6f1t3xlf,dspudva9,2020-0188,2020-05-08,12:28:15,12:59:58,NA,incomplete,212,color,1,left,Green_Star_Stripes_1.jpg,Green_Plus_Chess_3.jpg,Blue_Star_Grid_4.jpg,left,625.9500000160187,true,low,NA,NA,NA,NA,NA,NA,NA,false
dspudva9,3vll1pieot1c2ogsesvb4yutk6poza,3tvrfo09goshesbarkw04g6f1t3xlf,dspudva9,2020-0188,2020-05-08,12:28:15,12:59:58,NA,incomplete,213,color,1,left,Blue_Triangle_Stripes_3.jpg,Blue_Star_Grid_1.jpg,Green_Triangle_Chess_4.jpg,left,636.3150000106543,true,low,NA,NA,NA,NA,NA,NA,NA,false
dspudva9,3vll1pieot1c2ogsesvb4yutk6poza,3tvrfo09goshesbarkw04g6f1t3xlf,dspudva9,2020-0188,2020-05-08,12:28:15,12:59:58,NA,incomplete,214,color,0,left,Purple_Plus_Stripes_2.jpg,Purple_Circle_Chess_4.jpg,Red_Plus_Dots_1.jpg,left,920.380000025034,true,low,NA,NA,NA,NA,NA,NA,NA,false
dspudva9,3vll1pieot1c2ogsesvb4yutk6poza,3tvrfo09goshesbarkw04g6f1t3xlf,dspudva9,2020-0188,2020-05-08,12:28:15,12:59:58,NA,incomplete,215,color,1,right,Green_Plus_Chess_1.jpg,Red_Plus_Stripes_3.jpg,Green_Circle_Grid_4.jpg,right,678.0600000638515,true,low,NA,NA,NA,NA,NA,NA,NA,false
dspudva9,3vll1pieot1c2ogsesvb4yutk6poza,3tvrfo09goshesbarkw04g6f1t3xlf,dspudva9,2020-0188,2020-05-08,12:28:15,12:59:58,NA,incomplete,216,color,0,right,Blue_Star_Chess_1.jpg,Red_Star_Grid_4.jpg,Blue_Triangle_Dots_2.jpg,right,780.9399999678135,true,low,NA,NA,NA,NA,NA,NA,NA,false
dspudva9,3vll1pieot1c2ogsesvb4yutk6poza,3tvrfo09goshesbarkw04g6f1t3xlf,dspudva9,2020-0188,2020-05-08,12:28:15,12:59:58,NA,incomplete,217,color,1,right,Purple_Star_Chess_2.jpg,Green_Star_Dots_1.jpg,Purple_Circle_Stripes_4.jpg,right,918.0900000501424,true,low,NA,NA,NA,NA,NA,NA,NA,false
dspudva9,3vll1pieot1c2ogsesvb4yutk6poza,3tvrfo09goshesbarkw04g6f1t3xlf,dspudva9,2020-0188,2020-05-08,12:28:15,12:59:58,NA,incomplete,218,color,1,left,Blue_Plus_Dots_4.jpg,Blue_Triangle_Stripes_2.jpg,Purple_Plus_Grid_3.jpg,left,898.6850001383573,true,low,NA,NA,NA,NA,NA,NA,NA,false
dspudva9,3vll1pieot1c2ogsesvb4yutk6poza,3tvrfo09goshesbarkw04g6f1t3xlf,dspudva9,2020-0188,2020-05-08,12:28:15,12:59:58,NA,incomplete,219,color,0,left,Purple_Circle_Grid_3.jpg,Purple_Triangle_Stripes_2.jpg,Green_Circle_Chess_1.jpg,left,667.2900000121444,true,low,NA,NA,NA,NA,NA,NA,NA,false
dspudva9,3vll1pieot1c2ogsesvb4yutk6poza,3tvrfo09goshesbarkw04g6f1t3xlf,dspudva9,2020-0188,2020-05-08,12:28:15,12:59:58,NA,incomplete,220,shape,1,right,Green_Circle_Grid_4.jpg,Green_Star_Chess_1.jpg,Red_Circle_Dots_3.jpg,left,876.4250001404434,false,low,NA,NA,NA,NA,NA,NA,NA,false
dspudva9,3vll1pieot1c2ogsesvb4yutk6poza,3tvrfo09goshesbarkw04g6f1t3xlf,dspudva9,2020-0188,2020-05-08,12:28:15,12:59:58,NA,incomplete,221,shape,0,left,Blue_Plus_Stripes_4.jpg,Red_Plus_Chess_2.jpg,Blue_Circle_Grid_3.jpg,right,1290.3500001411885,false,low,NA,NA,NA,NA,NA,NA,NA,false
dspudva9,3vll1pieot1c2ogsesvb4yutk6poza,3tvrfo09goshesbarkw04g6f1t3xlf,dspudva9,2020-0188,2020-05-08,12:28:15,12:59:58,NA,incomplete,222,shape,1,right,Blue_Triangle_Dots_2.jpg,Blue_Star_Stripes_1.jpg,Green_Triangle_Chess_4.jpg,left,507.42499995976686,false,low,NA,NA,NA,NA,NA,NA,NA,false
dspudva9,3vll1pieot1c2ogsesvb4yutk6poza,3tvrfo09goshesbarkw04g6f1t3xlf,dspudva9,2020-0188,2020-05-08,12:28:15,12:59:58,NA,incomplete,223,shape,1,right,Green_Circle_Dots_4.jpg,Green_Star_Chess_3.jpg,Purple_Circle_Grid_1.jpg,left,707.9800001811236,false,low,NA,NA,NA,NA,NA,NA,NA,false
dspudva9,3vll1pieot1c2ogsesvb4yutk6poza,3tvrfo09goshesbarkw04g6f1t3xlf,dspudva9,2020-0188,2020-05-08,12:28:15,12:59:58,NA,incomplete,224,shape,1,left,Green_Triangle_Chess_3.jpg,Blue_Triangle_Stripes_2.jpg,Green_Star_Grid_1.jpg,right,810.8200000133365,false,low,NA,NA,NA,NA,NA,NA,NA,false
dspudva9,3vll1pieot1c2ogsesvb4yutk6poza,3tvrfo09goshesbarkw04g6f1t3xlf,dspudva9,2020-0188,2020-05-08,12:28:15,12:59:58,NA,incomplete,225,shape,0,left,Blue_Circle_Stripes_1.jpg,Green_Circle_Grid_4.jpg,Blue_Triangle_Chess_2.jpg,left,1156.745000043884,true,low,NA,NA,NA,NA,NA,NA,NA,false
dspudva9,3vll1pieot1c2ogsesvb4yutk6poza,3tvrfo09goshesbarkw04g6f1t3xlf,dspudva9,2020-0188,2020-05-08,12:28:15,12:59:58,NA,incomplete,226,shape,1,left,Purple_Plus_Chess_4.jpg,Red_Plus_Stripes_3.jpg,Purple_Star_Dots_2.jpg,right,743.6000001616776,false,low,NA,NA,NA,NA,NA,NA,NA,false
dspudva9,3vll1pieot1c2ogsesvb4yutk6poza,3tvrfo09goshesbarkw04g6f1t3xlf,dspudva9,2020-0188,2020-05-08,12:28:15,12:59:58,NA,incomplete,227,shape,1,right,Purple_Star_Grid_4.jpg,Purple_Circle_Chess_1.jpg,Red_Star_Stripes_2.jpg,left,903.1249999534339,false,low,NA,NA,NA,NA,NA,NA,NA,false
dspudva9,3vll1pieot1c2ogsesvb4yutk6poza,3tvrfo09goshesbarkw04g6f1t3xlf,dspudva9,2020-0188,2020-05-08,12:28:15,12:59:58,NA,incomplete,228,shape,1,right,Red_Star_Dots_4.jpg,Red_Circle_Grid_2.jpg,Blue_Star_Chess_1.jpg,right,1325.9600000455976,true,low,NA,NA,NA,NA,NA,NA,NA,false
dspudva9,3vll1pieot1c2ogsesvb4yutk6poza,3tvrfo09goshesbarkw04g6f1t3xlf,dspudva9,2020-0188,2020-05-08,12:28:15,12:59:58,NA,incomplete,229,shape,1,left,Blue_Plus_Grid_3.jpg,Red_Plus_Chess_1.jpg,Blue_Star_Dots_2.jpg,left,869.7999999858439,true,low,NA,NA,NA,NA,NA,NA,NA,false
dspudva9,3vll1pieot1c2ogsesvb4yutk6poza,3tvrfo09goshesbarkw04g6f1t3xlf,dspudva9,2020-0188,2020-05-08,12:28:15,12:59:58,NA,incomplete,230,shape,1,right,Red_Plus_Chess_4.jpg,Red_Star_Grid_2.jpg,Green_Plus_Dots_3.jpg,right,816.7900000698864,true,low,NA,NA,NA,NA,NA,NA,NA,false
dspudva9,3vll1pieot1c2ogsesvb4yutk6poza,3tvrfo09goshesbarkw04g6f1t3xlf,dspudva9,2020-0188,2020-05-08,12:28:15,12:59:58,NA,incomplete,231,shape,0,left,Red_Triangle_Dots_1.jpg,Green_Triangle_Stripes_4.jpg,Red_Plus_Grid_3.jpg,left,706.3500001095235,true,low,NA,NA,NA,NA,NA,NA,NA,false
dspudva9,3vll1pieot1c2ogsesvb4yutk6poza,3tvrfo09goshesbarkw04g6f1t3xlf,dspudva9,2020-0188,2020-05-08,12:28:15,12:59:58,NA,incomplete,232,shape,1,right,Green_Circle_Grid_1.jpg,Green_Triangle_Chess_4.jpg,Red_Circle_Stripes_2.jpg,right,656.8499999120831,true,low,NA,NA,NA,NA,NA,NA,NA,false
dspudva9,3vll1pieot1c2ogsesvb4yutk6poza,3tvrfo09goshesbarkw04g6f1t3xlf,dspudva9,2020-0188,2020-05-08,12:28:15,12:59:58,NA,incomplete,233,shape,1,right,Purple_Plus_Stripes_2.jpg,Purple_Circle_Dots_1.jpg,Blue_Plus_Chess_3.jpg,right,865.8799999393523,true,low,NA,NA,NA,NA,NA,NA,NA,false
dspudva9,3vll1pieot1c2ogsesvb4yutk6poza,3tvrfo09goshesbarkw04g6f1t3xlf,dspudva9,2020-0188,2020-05-08,12:28:15,12:59:58,NA,incomplete,234,shape,0,right,Blue_Star_Stripes_2.jpg,Blue_Plus_Grid_4.jpg,Red_Star_Chess_1.jpg,right,819.7400001809001,true,low,NA,NA,NA,NA,NA,NA,NA,false
dspudva9,3vll1pieot1c2ogsesvb4yutk6poza,3tvrfo09goshesbarkw04g6f1t3xlf,dspudva9,2020-0188,2020-05-08,12:28:15,12:59:58,NA,incomplete,235,shape,1,right,Blue_Circle_Chess_3.jpg,Blue_Star_Stripes_1.jpg,Purple_Circle_Grid_2.jpg,right,598.4600000083447,true,low,NA,NA,NA,NA,NA,NA,NA,false
dspudva9,3vll1pieot1c2ogsesvb4yutk6poza,3tvrfo09goshesbarkw04g6f1t3xlf,dspudva9,2020-0188,2020-05-08,12:28:15,12:59:58,NA,incomplete,236,shape,1,right,Green_Star_Dots_3.jpg,Green_Plus_Chess_1.jpg,Purple_Star_Stripes_2.jpg,right,622.8150001261383,true,low,NA,NA,NA,NA,NA,NA,NA,false
dspudva9,3vll1pieot1c2ogsesvb4yutk6poza,3tvrfo09goshesbarkw04g6f1t3xlf,dspudva9,2020-0188,2020-05-08,12:28:15,12:59:58,NA,incomplete,237,shape,1,right,Red_Triangle_Chess_3.jpg,Red_Star_Grid_4.jpg,Blue_Triangle_Stripes_2.jpg,right,834.3350000213832,true,low,NA,NA,NA,NA,NA,NA,NA,false
dspudva9,3vll1pieot1c2ogsesvb4yutk6poza,3tvrfo09goshesbarkw04g6f1t3xlf,dspudva9,2020-0188,2020-05-08,12:28:15,12:59:58,NA,incomplete,238,shape,1,left,Blue_Star_Grid_2.jpg,Red_Star_Dots_3.jpg,Blue_Plus_Chess_4.jpg,left,998.5650000162423,true,low,NA,NA,NA,NA,NA,NA,NA,false
dspudva9,3vll1pieot1c2ogsesvb4yutk6poza,3tvrfo09goshesbarkw04g6f1t3xlf,dspudva9,2020-0188,2020-05-08,12:28:15,12:59:58,NA,incomplete,239,shape,1,right,Blue_Circle_Chess_2.jpg,Blue_Star_Stripes_3.jpg,Red_Circle_Grid_1.jpg,right,634.1600001323968,true,low,NA,NA,NA,NA,NA,NA,NA,false
dspudva9,3vll1pieot1c2ogsesvb4yutk6poza,3tvrfo09goshesbarkw04g6f1t3xlf,dspudva9,2020-0188,2020-05-08,12:28:15,12:59:58,1881921.0850000381,1903622.005000012,NA,NA,NA,NA,NA,NA,NA,NA,NA,NA,NA,38,White/Caucasian,Male,american,no,yes,no,undefined
