workerId,hitId,assignmentId,subject,studyid,exp_date,exp_start,exp_end,time_start,time_end,trial,type,reward_validity,answer,image_top,image_left,image_right,response,response_time,response_acc,volatility,age,race,gender,ethnicity,color,vision,neuro,practice
FVGCyN3I,3b6f54kms5pu5knddy3sw9ki4gws13,3txd01zld8utzgaugnmwys50kk8u4x,FVGCyN3I,2020-0188,2020-05-07,21:49:17,22:23:23,NA,incomplete,0,number,1,left,Green_Plus_Grid_2.jpg,Red_Star_Chess_2.jpg,Green_Circle_Dots_1.jpg,left,1341.7049999115989,true,NA,NA,NA,NA,NA,NA,NA,NA,true
FVGCyN3I,3b6f54kms5pu5knddy3sw9ki4gws13,3txd01zld8utzgaugnmwys50kk8u4x,FVGCyN3I,2020-0188,2020-05-07,21:49:17,22:23:23,NA,incomplete,1,number,1,right,Red_Plus_Stripes_1.jpg,Red_Star_Grid_3.jpg,Blue_Triangle_Dots_1.jpg,right,1060.7249999884516,true,NA,NA,NA,NA,NA,NA,NA,NA,true
FVGCyN3I,3b6f54kms5pu5knddy3sw9ki4gws13,3txd01zld8utzgaugnmwys50kk8u4x,FVGCyN3I,2020-0188,2020-05-07,21:49:17,22:23:23,NA,incomplete,2,number,1,right,Purple_Plus_Chess_3.jpg,Purple_Star_Dots_2.jpg,Blue_Circle_Stripes_3.jpg,right,1174.9849999323487,true,NA,NA,NA,NA,NA,NA,NA,NA,true
FVGCyN3I,3b6f54kms5pu5knddy3sw9ki4gws13,3txd01zld8utzgaugnmwys50kk8u4x,FVGCyN3I,2020-0188,2020-05-07,21:49:17,22:23:23,NA,incomplete,3,number,1,right,Red_Plus_Grid_1.jpg,Red_Circle_Dots_3.jpg,Purple_Triangle_Stripes_1.jpg,right,1460.910000023432,true,NA,NA,NA,NA,NA,NA,NA,NA,true
FVGCyN3I,3b6f54kms5pu5knddy3sw9ki4gws13,3txd01zld8utzgaugnmwys50kk8u4x,FVGCyN3I,2020-0188,2020-05-07,21:49:17,22:23:23,NA,incomplete,4,number,0,right,Green_Star_Stripes_4.jpg,Green_Plus_Dots_2.jpg,Red_Circle_Grid_4.jpg,left,1638.8100000331178,false,NA,NA,NA,NA,NA,NA,NA,NA,true
FVGCyN3I,3b6f54kms5pu5knddy3sw9ki4gws13,3txd01zld8utzgaugnmwys50kk8u4x,FVGCyN3I,2020-0188,2020-05-07,21:49:17,22:23:23,NA,incomplete,5,number,1,right,Blue_Triangle_Chess_4.jpg,Blue_Star_Dots_3.jpg,Red_Plus_Stripes_4.jpg,left,1377.7250000275671,false,NA,NA,NA,NA,NA,NA,NA,NA,true
FVGCyN3I,3b6f54kms5pu5knddy3sw9ki4gws13,3txd01zld8utzgaugnmwys50kk8u4x,FVGCyN3I,2020-0188,2020-05-07,21:49:17,22:23:23,NA,incomplete,6,number,1,right,Red_Plus_Chess_4.jpg,Red_Triangle_Stripes_2.jpg,Blue_Circle_Grid_4.jpg,left,1455.409999936819,false,NA,NA,NA,NA,NA,NA,NA,NA,true
FVGCyN3I,3b6f54kms5pu5knddy3sw9ki4gws13,3txd01zld8utzgaugnmwys50kk8u4x,FVGCyN3I,2020-0188,2020-05-07,21:49:17,22:23:23,NA,incomplete,7,number,1,right,Red_Star_Stripes_3.jpg,Red_Triangle_Grid_4.jpg,Purple_Circle_Chess_3.jpg,right,1305.9249999932945,true,NA,NA,NA,NA,NA,NA,NA,NA,true
FVGCyN3I,3b6f54kms5pu5knddy3sw9ki4gws13,3txd01zld8utzgaugnmwys50kk8u4x,FVGCyN3I,2020-0188,2020-05-07,21:49:17,22:23:23,NA,incomplete,8,number,0,right,Green_Star_Dots_3.jpg,Green_Circle_Chess_2.jpg,Purple_Plus_Grid_3.jpg,right,794.0250000683591,true,NA,NA,NA,NA,NA,NA,NA,NA,true
FVGCyN3I,3b6f54kms5pu5knddy3sw9ki4gws13,3txd01zld8utzgaugnmwys50kk8u4x,FVGCyN3I,2020-0188,2020-05-07,21:49:17,22:23:23,NA,incomplete,9,number,0,right,Blue_Circle_Dots_3.jpg,Blue_Triangle_Stripes_2.jpg,Green_Plus_Grid_3.jpg,right,670.8099999232218,true,NA,NA,NA,NA,NA,NA,NA,NA,true
FVGCyN3I,3b6f54kms5pu5knddy3sw9ki4gws13,3txd01zld8utzgaugnmwys50kk8u4x,FVGCyN3I,2020-0188,2020-05-07,21:49:17,22:23:23,NA,incomplete,10,number,1,right,Red_Plus_Grid_3.jpg,Red_Triangle_Stripes_1.jpg,Green_Star_Dots_3.jpg,right,632.5000000651926,true,NA,NA,NA,NA,NA,NA,NA,NA,true
FVGCyN3I,3b6f54kms5pu5knddy3sw9ki4gws13,3txd01zld8utzgaugnmwys50kk8u4x,FVGCyN3I,2020-0188,2020-05-07,21:49:17,22:23:23,NA,incomplete,11,number,0,left,Red_Triangle_Stripes_2.jpg,Blue_Plus_Grid_2.jpg,Red_Star_Dots_4.jpg,left,812.1099999407306,true,NA,NA,NA,NA,NA,NA,NA,NA,true
FVGCyN3I,3b6f54kms5pu5knddy3sw9ki4gws13,3txd01zld8utzgaugnmwys50kk8u4x,FVGCyN3I,2020-0188,2020-05-07,21:49:17,22:23:23,NA,incomplete,12,number,1,left,Green_Triangle_Chess_2.jpg,Blue_Circle_Dots_2.jpg,Green_Plus_Grid_1.jpg,left,720.6800000276417,true,NA,NA,NA,NA,NA,NA,NA,NA,true
FVGCyN3I,3b6f54kms5pu5knddy3sw9ki4gws13,3txd01zld8utzgaugnmwys50kk8u4x,FVGCyN3I,2020-0188,2020-05-07,21:49:17,22:23:23,NA,incomplete,13,number,0,right,Green_Circle_Stripes_1.jpg,Green_Plus_Chess_4.jpg,Red_Triangle_Dots_1.jpg,right,623.8750000484288,true,NA,NA,NA,NA,NA,NA,NA,NA,true
FVGCyN3I,3b6f54kms5pu5knddy3sw9ki4gws13,3txd01zld8utzgaugnmwys50kk8u4x,FVGCyN3I,2020-0188,2020-05-07,21:49:17,22:23:23,NA,incomplete,14,number,0,left,Green_Circle_Dots_2.jpg,Purple_Star_Chess_2.jpg,Green_Plus_Stripes_4.jpg,left,641.7349999537691,true,NA,NA,NA,NA,NA,NA,NA,NA,true
FVGCyN3I,3b6f54kms5pu5knddy3sw9ki4gws13,3txd01zld8utzgaugnmwys50kk8u4x,FVGCyN3I,2020-0188,2020-05-07,21:49:17,22:23:23,NA,incomplete,15,number,1,left,Green_Plus_Dots_3.jpg,Purple_Circle_Grid_3.jpg,Green_Star_Stripes_4.jpg,left,830.1949999295175,true,NA,NA,NA,NA,NA,NA,NA,NA,true
FVGCyN3I,3b6f54kms5pu5knddy3sw9ki4gws13,3txd01zld8utzgaugnmwys50kk8u4x,FVGCyN3I,2020-0188,2020-05-07,21:49:17,22:23:23,NA,incomplete,16,number,1,right,Purple_Star_Stripes_4.jpg,Purple_Plus_Grid_2.jpg,Red_Triangle_Chess_4.jpg,right,761.8700000457466,true,NA,NA,NA,NA,NA,NA,NA,NA,true
FVGCyN3I,3b6f54kms5pu5knddy3sw9ki4gws13,3txd01zld8utzgaugnmwys50kk8u4x,FVGCyN3I,2020-0188,2020-05-07,21:49:17,22:23:23,NA,incomplete,17,number,1,right,Red_Triangle_Chess_1.jpg,Red_Star_Stripes_4.jpg,Blue_Circle_Dots_1.jpg,right,688.384999986738,true,NA,NA,NA,NA,NA,NA,NA,NA,true
FVGCyN3I,3b6f54kms5pu5knddy3sw9ki4gws13,3txd01zld8utzgaugnmwys50kk8u4x,FVGCyN3I,2020-0188,2020-05-07,21:49:17,22:23:23,NA,incomplete,18,number,1,left,Green_Plus_Dots_2.jpg,Red_Star_Stripes_2.jpg,Green_Circle_Chess_3.jpg,left,689.4350000657141,true,NA,NA,NA,NA,NA,NA,NA,NA,true
FVGCyN3I,3b6f54kms5pu5knddy3sw9ki4gws13,3txd01zld8utzgaugnmwys50kk8u4x,FVGCyN3I,2020-0188,2020-05-07,21:49:17,22:23:23,NA,incomplete,19,number,1,right,Red_Star_Grid_4.jpg,Red_Triangle_Stripes_2.jpg,Purple_Plus_Dots_4.jpg,right,921.9949999824166,true,NA,NA,NA,NA,NA,NA,NA,NA,true
FVGCyN3I,3b6f54kms5pu5knddy3sw9ki4gws13,3txd01zld8utzgaugnmwys50kk8u4x,FVGCyN3I,2020-0188,2020-05-07,21:49:17,22:23:23,NA,incomplete,20,color,1,right,Red_Star_Dots_1.jpg,Blue_Triangle_Stripes_1.jpg,Red_Plus_Chess_3.jpg,right,1145.4549999907613,true,NA,NA,NA,NA,NA,NA,NA,NA,true
FVGCyN3I,3b6f54kms5pu5knddy3sw9ki4gws13,3txd01zld8utzgaugnmwys50kk8u4x,FVGCyN3I,2020-0188,2020-05-07,21:49:17,22:23:23,NA,incomplete,21,color,1,left,Red_Plus_Chess_3.jpg,Red_Circle_Grid_1.jpg,Purple_Star_Dots_3.jpg,left,904.4699999503791,true,NA,NA,NA,NA,NA,NA,NA,NA,true
FVGCyN3I,3b6f54kms5pu5knddy3sw9ki4gws13,3txd01zld8utzgaugnmwys50kk8u4x,FVGCyN3I,2020-0188,2020-05-07,21:49:17,22:23:23,NA,incomplete,22,color,1,left,Blue_Circle_Stripes_2.jpg,Blue_Plus_Dots_3.jpg,Purple_Triangle_Grid_2.jpg,left,817.1399999409914,true,NA,NA,NA,NA,NA,NA,NA,NA,true
FVGCyN3I,3b6f54kms5pu5knddy3sw9ki4gws13,3txd01zld8utzgaugnmwys50kk8u4x,FVGCyN3I,2020-0188,2020-05-07,21:49:17,22:23:23,NA,incomplete,23,color,1,right,Blue_Circle_Chess_2.jpg,Red_Plus_Grid_2.jpg,Blue_Star_Dots_4.jpg,right,828.2349999062717,true,NA,NA,NA,NA,NA,NA,NA,NA,true
FVGCyN3I,3b6f54kms5pu5knddy3sw9ki4gws13,3txd01zld8utzgaugnmwys50kk8u4x,FVGCyN3I,2020-0188,2020-05-07,21:49:17,22:23:23,NA,incomplete,24,color,1,right,Blue_Star_Dots_4.jpg,Purple_Triangle_Chess_4.jpg,Blue_Plus_Stripes_2.jpg,right,791.8300000019372,true,NA,NA,NA,NA,NA,NA,NA,NA,true
FVGCyN3I,3b6f54kms5pu5knddy3sw9ki4gws13,3txd01zld8utzgaugnmwys50kk8u4x,FVGCyN3I,2020-0188,2020-05-07,21:49:17,22:23:23,NA,incomplete,25,color,1,right,Blue_Star_Stripes_2.jpg,Red_Triangle_Chess_2.jpg,Blue_Plus_Dots_3.jpg,right,860.7949999859557,true,NA,NA,NA,NA,NA,NA,NA,NA,true
FVGCyN3I,3b6f54kms5pu5knddy3sw9ki4gws13,3txd01zld8utzgaugnmwys50kk8u4x,FVGCyN3I,2020-0188,2020-05-07,21:49:17,22:23:23,NA,incomplete,26,color,1,right,Blue_Circle_Dots_3.jpg,Red_Star_Grid_3.jpg,Blue_Plus_Chess_2.jpg,right,710.9550000168383,true,NA,NA,NA,NA,NA,NA,NA,NA,true
FVGCyN3I,3b6f54kms5pu5knddy3sw9ki4gws13,3txd01zld8utzgaugnmwys50kk8u4x,FVGCyN3I,2020-0188,2020-05-07,21:49:17,22:23:23,NA,incomplete,27,color,1,left,Red_Triangle_Stripes_3.jpg,Red_Plus_Grid_1.jpg,Purple_Star_Chess_3.jpg,left,711.3400000380352,true,NA,NA,NA,NA,NA,NA,NA,NA,true
FVGCyN3I,3b6f54kms5pu5knddy3sw9ki4gws13,3txd01zld8utzgaugnmwys50kk8u4x,FVGCyN3I,2020-0188,2020-05-07,21:49:17,22:23:23,NA,incomplete,28,color,0,left,Green_Plus_Chess_1.jpg,Green_Star_Grid_3.jpg,Blue_Triangle_Stripes_1.jpg,right,679.2499999282882,false,NA,NA,NA,NA,NA,NA,NA,NA,true
FVGCyN3I,3b6f54kms5pu5knddy3sw9ki4gws13,3txd01zld8utzgaugnmwys50kk8u4x,FVGCyN3I,2020-0188,2020-05-07,21:49:17,22:23:23,NA,incomplete,29,color,1,left,Red_Triangle_Dots_3.jpg,Red_Plus_Grid_4.jpg,Green_Circle_Stripes_3.jpg,left,777.0000000018626,true,NA,NA,NA,NA,NA,NA,NA,NA,true
FVGCyN3I,3b6f54kms5pu5knddy3sw9ki4gws13,3txd01zld8utzgaugnmwys50kk8u4x,FVGCyN3I,2020-0188,2020-05-07,21:49:17,22:23:23,NA,incomplete,30,color,1,right,Green_Triangle_Chess_1.jpg,Purple_Circle_Grid_1.jpg,Green_Plus_Stripes_3.jpg,right,662.4900000169873,true,NA,NA,NA,NA,NA,NA,NA,NA,true
FVGCyN3I,3b6f54kms5pu5knddy3sw9ki4gws13,3txd01zld8utzgaugnmwys50kk8u4x,FVGCyN3I,2020-0188,2020-05-07,21:49:17,22:23:23,NA,incomplete,31,color,1,right,Red_Circle_Stripes_3.jpg,Green_Star_Chess_3.jpg,Red_Plus_Dots_1.jpg,right,584.764999919571,true,NA,NA,NA,NA,NA,NA,NA,NA,true
FVGCyN3I,3b6f54kms5pu5knddy3sw9ki4gws13,3txd01zld8utzgaugnmwys50kk8u4x,FVGCyN3I,2020-0188,2020-05-07,21:49:17,22:23:23,NA,incomplete,32,color,1,left,Purple_Star_Dots_3.jpg,Purple_Triangle_Stripes_4.jpg,Blue_Plus_Grid_3.jpg,left,613.9950000215322,true,NA,NA,NA,NA,NA,NA,NA,NA,true
FVGCyN3I,3b6f54kms5pu5knddy3sw9ki4gws13,3txd01zld8utzgaugnmwys50kk8u4x,FVGCyN3I,2020-0188,2020-05-07,21:49:17,22:23:23,NA,incomplete,33,color,1,right,Purple_Circle_Chess_2.jpg,Red_Star_Dots_2.jpg,Purple_Triangle_Stripes_3.jpg,right,577.8500000014901,true,NA,NA,NA,NA,NA,NA,NA,NA,true
FVGCyN3I,3b6f54kms5pu5knddy3sw9ki4gws13,3txd01zld8utzgaugnmwys50kk8u4x,FVGCyN3I,2020-0188,2020-05-07,21:49:17,22:23:23,NA,incomplete,34,color,1,right,Blue_Plus_Stripes_3.jpg,Purple_Star_Dots_3.jpg,Blue_Triangle_Grid_2.jpg,right,695.3599998960271,true,NA,NA,NA,NA,NA,NA,NA,NA,true
FVGCyN3I,3b6f54kms5pu5knddy3sw9ki4gws13,3txd01zld8utzgaugnmwys50kk8u4x,FVGCyN3I,2020-0188,2020-05-07,21:49:17,22:23:23,NA,incomplete,35,color,1,right,Blue_Plus_Dots_3.jpg,Red_Triangle_Chess_3.jpg,Blue_Star_Stripes_2.jpg,right,552.2300000302494,true,NA,NA,NA,NA,NA,NA,NA,NA,true
FVGCyN3I,3b6f54kms5pu5knddy3sw9ki4gws13,3txd01zld8utzgaugnmwys50kk8u4x,FVGCyN3I,2020-0188,2020-05-07,21:49:17,22:23:23,NA,incomplete,36,color,1,right,Blue_Circle_Stripes_4.jpg,Green_Star_Dots_4.jpg,Blue_Triangle_Chess_1.jpg,right,550.6250000325963,true,NA,NA,NA,NA,NA,NA,NA,NA,true
FVGCyN3I,3b6f54kms5pu5knddy3sw9ki4gws13,3txd01zld8utzgaugnmwys50kk8u4x,FVGCyN3I,2020-0188,2020-05-07,21:49:17,22:23:23,NA,incomplete,37,color,1,left,Red_Star_Dots_2.jpg,Red_Plus_Grid_3.jpg,Blue_Circle_Chess_2.jpg,left,500.8950000628829,true,NA,NA,NA,NA,NA,NA,NA,NA,true
FVGCyN3I,3b6f54kms5pu5knddy3sw9ki4gws13,3txd01zld8utzgaugnmwys50kk8u4x,FVGCyN3I,2020-0188,2020-05-07,21:49:17,22:23:23,NA,incomplete,38,color,1,left,Red_Triangle_Stripes_4.jpg,Red_Plus_Chess_1.jpg,Green_Circle_Dots_4.jpg,left,565.5549999792129,true,NA,NA,NA,NA,NA,NA,NA,NA,true
FVGCyN3I,3b6f54kms5pu5knddy3sw9ki4gws13,3txd01zld8utzgaugnmwys50kk8u4x,FVGCyN3I,2020-0188,2020-05-07,21:49:17,22:23:23,NA,incomplete,39,color,0,left,Red_Triangle_Stripes_2.jpg,Red_Plus_Chess_1.jpg,Purple_Star_Grid_2.jpg,left,530.1250000484288,true,NA,NA,NA,NA,NA,NA,NA,NA,true
FVGCyN3I,3b6f54kms5pu5knddy3sw9ki4gws13,3txd01zld8utzgaugnmwys50kk8u4x,FVGCyN3I,2020-0188,2020-05-07,21:49:17,22:23:23,NA,incomplete,0,number,1,right,Blue_Plus_Grid_3.jpg,Blue_Circle_Chess_4.jpg,Green_Triangle_Dots_3.jpg,left,761.6850000340492,false,low,NA,NA,NA,NA,NA,NA,NA,false
FVGCyN3I,3b6f54kms5pu5knddy3sw9ki4gws13,3txd01zld8utzgaugnmwys50kk8u4x,FVGCyN3I,2020-0188,2020-05-07,21:49:17,22:23:23,NA,incomplete,1,number,1,right,Red_Plus_Stripes_2.jpg,Red_Star_Grid_1.jpg,Purple_Triangle_Dots_2.jpg,right,807.8499999828637,true,low,NA,NA,NA,NA,NA,NA,NA,false
FVGCyN3I,3b6f54kms5pu5knddy3sw9ki4gws13,3txd01zld8utzgaugnmwys50kk8u4x,FVGCyN3I,2020-0188,2020-05-07,21:49:17,22:23:23,NA,incomplete,2,number,1,left,Purple_Plus_Dots_4.jpg,Blue_Star_Grid_4.jpg,Purple_Circle_Chess_3.jpg,left,764.2500000074506,true,low,NA,NA,NA,NA,NA,NA,NA,false
FVGCyN3I,3b6f54kms5pu5knddy3sw9ki4gws13,3txd01zld8utzgaugnmwys50kk8u4x,FVGCyN3I,2020-0188,2020-05-07,21:49:17,22:23:23,NA,incomplete,3,number,1,left,Blue_Star_Chess_3.jpg,Purple_Plus_Stripes_3.jpg,Blue_Circle_Grid_4.jpg,left,778.6149999592453,true,low,NA,NA,NA,NA,NA,NA,NA,false
FVGCyN3I,3b6f54kms5pu5knddy3sw9ki4gws13,3txd01zld8utzgaugnmwys50kk8u4x,FVGCyN3I,2020-0188,2020-05-07,21:49:17,22:23:23,NA,incomplete,4,number,1,right,Red_Triangle_Dots_2.jpg,Red_Plus_Stripes_1.jpg,Green_Circle_Chess_2.jpg,right,1016.4299999596551,true,low,NA,NA,NA,NA,NA,NA,NA,false
FVGCyN3I,3b6f54kms5pu5knddy3sw9ki4gws13,3txd01zld8utzgaugnmwys50kk8u4x,FVGCyN3I,2020-0188,2020-05-07,21:49:17,22:23:23,NA,incomplete,5,number,1,left,Blue_Star_Stripes_3.jpg,Purple_Circle_Dots_3.jpg,Blue_Plus_Chess_2.jpg,left,812.4250000109896,true,low,NA,NA,NA,NA,NA,NA,NA,false
FVGCyN3I,3b6f54kms5pu5knddy3sw9ki4gws13,3txd01zld8utzgaugnmwys50kk8u4x,FVGCyN3I,2020-0188,2020-05-07,21:49:17,22:23:23,NA,incomplete,6,number,0,right,Red_Plus_Stripes_3.jpg,Red_Star_Dots_1.jpg,Purple_Circle_Chess_3.jpg,right,848.7850000383332,true,low,NA,NA,NA,NA,NA,NA,NA,false
FVGCyN3I,3b6f54kms5pu5knddy3sw9ki4gws13,3txd01zld8utzgaugnmwys50kk8u4x,FVGCyN3I,2020-0188,2020-05-07,21:49:17,22:23:23,NA,incomplete,7,number,1,left,Purple_Star_Grid_3.jpg,Red_Circle_Stripes_3.jpg,Purple_Triangle_Dots_2.jpg,left,715.6400000676513,true,low,NA,NA,NA,NA,NA,NA,NA,false
FVGCyN3I,3b6f54kms5pu5knddy3sw9ki4gws13,3txd01zld8utzgaugnmwys50kk8u4x,FVGCyN3I,2020-0188,2020-05-07,21:49:17,22:23:23,NA,incomplete,8,number,1,right,Red_Plus_Chess_2.jpg,Red_Circle_Grid_4.jpg,Purple_Triangle_Dots_2.jpg,right,635.7250000583008,true,low,NA,NA,NA,NA,NA,NA,NA,false
FVGCyN3I,3b6f54kms5pu5knddy3sw9ki4gws13,3txd01zld8utzgaugnmwys50kk8u4x,FVGCyN3I,2020-0188,2020-05-07,21:49:17,22:23:23,NA,incomplete,9,number,1,right,Red_Circle_Grid_2.jpg,Red_Star_Chess_4.jpg,Blue_Triangle_Stripes_2.jpg,right,735.0249999435619,true,low,NA,NA,NA,NA,NA,NA,NA,false
FVGCyN3I,3b6f54kms5pu5knddy3sw9ki4gws13,3txd01zld8utzgaugnmwys50kk8u4x,FVGCyN3I,2020-0188,2020-05-07,21:49:17,22:23:23,NA,incomplete,10,number,1,right,Green_Circle_Grid_3.jpg,Green_Triangle_Stripes_4.jpg,Blue_Star_Chess_3.jpg,right,717.3900000052527,true,low,NA,NA,NA,NA,NA,NA,NA,false
FVGCyN3I,3b6f54kms5pu5knddy3sw9ki4gws13,3txd01zld8utzgaugnmwys50kk8u4x,FVGCyN3I,2020-0188,2020-05-07,21:49:17,22:23:23,NA,incomplete,11,number,1,left,Blue_Star_Stripes_2.jpg,Red_Plus_Chess_2.jpg,Blue_Circle_Grid_4.jpg,left,700.8400000631809,true,low,NA,NA,NA,NA,NA,NA,NA,false
FVGCyN3I,3b6f54kms5pu5knddy3sw9ki4gws13,3txd01zld8utzgaugnmwys50kk8u4x,FVGCyN3I,2020-0188,2020-05-07,21:49:17,22:23:23,NA,incomplete,12,number,1,left,Blue_Triangle_Chess_2.jpg,Green_Plus_Dots_2.jpg,Blue_Star_Grid_1.jpg,left,725.304999970831,true,low,NA,NA,NA,NA,NA,NA,NA,false
FVGCyN3I,3b6f54kms5pu5knddy3sw9ki4gws13,3txd01zld8utzgaugnmwys50kk8u4x,FVGCyN3I,2020-0188,2020-05-07,21:49:17,22:23:23,NA,incomplete,13,number,1,left,Purple_Star_Dots_3.jpg,Red_Triangle_Chess_3.jpg,Purple_Plus_Stripes_4.jpg,left,844.8050000006333,true,low,NA,NA,NA,NA,NA,NA,NA,false
FVGCyN3I,3b6f54kms5pu5knddy3sw9ki4gws13,3txd01zld8utzgaugnmwys50kk8u4x,FVGCyN3I,2020-0188,2020-05-07,21:49:17,22:23:23,NA,incomplete,14,number,1,left,Green_Star_Stripes_2.jpg,Purple_Triangle_Grid_2.jpg,Green_Circle_Dots_4.jpg,left,720.1150000328198,true,low,NA,NA,NA,NA,NA,NA,NA,false
FVGCyN3I,3b6f54kms5pu5knddy3sw9ki4gws13,3txd01zld8utzgaugnmwys50kk8u4x,FVGCyN3I,2020-0188,2020-05-07,21:49:17,22:23:23,NA,incomplete,15,number,1,left,Blue_Star_Dots_3.jpg,Green_Triangle_Chess_3.jpg,Blue_Circle_Stripes_1.jpg,left,639.5300000440329,true,low,NA,NA,NA,NA,NA,NA,NA,false
FVGCyN3I,3b6f54kms5pu5knddy3sw9ki4gws13,3txd01zld8utzgaugnmwys50kk8u4x,FVGCyN3I,2020-0188,2020-05-07,21:49:17,22:23:23,NA,incomplete,16,number,1,left,Red_Triangle_Stripes_1.jpg,Green_Plus_Dots_1.jpg,Red_Star_Grid_4.jpg,left,738.2999999681488,true,low,NA,NA,NA,NA,NA,NA,NA,false
FVGCyN3I,3b6f54kms5pu5knddy3sw9ki4gws13,3txd01zld8utzgaugnmwys50kk8u4x,FVGCyN3I,2020-0188,2020-05-07,21:49:17,22:23:23,NA,incomplete,17,number,1,right,Red_Circle_Dots_4.jpg,Red_Triangle_Chess_1.jpg,Purple_Star_Stripes_4.jpg,right,1137.2449999907985,true,low,NA,NA,NA,NA,NA,NA,NA,false
FVGCyN3I,3b6f54kms5pu5knddy3sw9ki4gws13,3txd01zld8utzgaugnmwys50kk8u4x,FVGCyN3I,2020-0188,2020-05-07,21:49:17,22:23:23,NA,incomplete,18,number,1,right,Green_Star_Grid_4.jpg,Green_Plus_Dots_2.jpg,Red_Triangle_Stripes_4.jpg,right,696.1400000145659,true,low,NA,NA,NA,NA,NA,NA,NA,false
FVGCyN3I,3b6f54kms5pu5knddy3sw9ki4gws13,3txd01zld8utzgaugnmwys50kk8u4x,FVGCyN3I,2020-0188,2020-05-07,21:49:17,22:23:23,NA,incomplete,19,number,1,right,Purple_Star_Dots_2.jpg,Purple_Triangle_Grid_3.jpg,Green_Circle_Stripes_2.jpg,right,825.3249999834225,true,low,NA,NA,NA,NA,NA,NA,NA,false
FVGCyN3I,3b6f54kms5pu5knddy3sw9ki4gws13,3txd01zld8utzgaugnmwys50kk8u4x,FVGCyN3I,2020-0188,2020-05-07,21:49:17,22:23:23,NA,incomplete,20,number,1,left,Red_Triangle_Stripes_2.jpg,Green_Plus_Dots_2.jpg,Red_Circle_Chess_1.jpg,left,724.6399999130517,true,low,NA,NA,NA,NA,NA,NA,NA,false
FVGCyN3I,3b6f54kms5pu5knddy3sw9ki4gws13,3txd01zld8utzgaugnmwys50kk8u4x,FVGCyN3I,2020-0188,2020-05-07,21:49:17,22:23:23,NA,incomplete,21,number,1,left,Purple_Plus_Grid_1.jpg,Red_Star_Chess_1.jpg,Purple_Circle_Dots_2.jpg,left,812.1249999385327,true,low,NA,NA,NA,NA,NA,NA,NA,false
FVGCyN3I,3b6f54kms5pu5knddy3sw9ki4gws13,3txd01zld8utzgaugnmwys50kk8u4x,FVGCyN3I,2020-0188,2020-05-07,21:49:17,22:23:23,NA,incomplete,22,number,1,right,Red_Circle_Dots_4.jpg,Red_Triangle_Chess_2.jpg,Blue_Star_Stripes_4.jpg,right,680.4499999852851,true,low,NA,NA,NA,NA,NA,NA,NA,false
FVGCyN3I,3b6f54kms5pu5knddy3sw9ki4gws13,3txd01zld8utzgaugnmwys50kk8u4x,FVGCyN3I,2020-0188,2020-05-07,21:49:17,22:23:23,NA,incomplete,23,number,1,left,Purple_Triangle_Stripes_4.jpg,Red_Plus_Dots_4.jpg,Purple_Circle_Chess_1.jpg,left,713.9549999265,true,low,NA,NA,NA,NA,NA,NA,NA,false
FVGCyN3I,3b6f54kms5pu5knddy3sw9ki4gws13,3txd01zld8utzgaugnmwys50kk8u4x,FVGCyN3I,2020-0188,2020-05-07,21:49:17,22:23:23,NA,incomplete,24,number,0,left,Red_Circle_Dots_3.jpg,Green_Triangle_Chess_3.jpg,Red_Plus_Stripes_2.jpg,left,890.4999999795109,true,low,NA,NA,NA,NA,NA,NA,NA,false
FVGCyN3I,3b6f54kms5pu5knddy3sw9ki4gws13,3txd01zld8utzgaugnmwys50kk8u4x,FVGCyN3I,2020-0188,2020-05-07,21:49:17,22:23:23,NA,incomplete,25,number,1,right,Green_Plus_Dots_2.jpg,Green_Circle_Chess_1.jpg,Purple_Triangle_Grid_2.jpg,left,867.255000048317,false,low,NA,NA,NA,NA,NA,NA,NA,false
FVGCyN3I,3b6f54kms5pu5knddy3sw9ki4gws13,3txd01zld8utzgaugnmwys50kk8u4x,FVGCyN3I,2020-0188,2020-05-07,21:49:17,22:23:23,NA,incomplete,26,number,0,left,Purple_Triangle_Chess_2.jpg,Green_Plus_Dots_2.jpg,Purple_Star_Stripes_3.jpg,left,1338.990000076592,true,low,NA,NA,NA,NA,NA,NA,NA,false
FVGCyN3I,3b6f54kms5pu5knddy3sw9ki4gws13,3txd01zld8utzgaugnmwys50kk8u4x,FVGCyN3I,2020-0188,2020-05-07,21:49:17,22:23:23,NA,incomplete,27,number,1,left,Blue_Plus_Stripes_1.jpg,Red_Star_Grid_1.jpg,Blue_Circle_Chess_4.jpg,left,859.4799999846146,true,low,NA,NA,NA,NA,NA,NA,NA,false
FVGCyN3I,3b6f54kms5pu5knddy3sw9ki4gws13,3txd01zld8utzgaugnmwys50kk8u4x,FVGCyN3I,2020-0188,2020-05-07,21:49:17,22:23:23,NA,incomplete,28,number,1,right,Green_Plus_Dots_3.jpg,Green_Triangle_Chess_4.jpg,Blue_Circle_Stripes_3.jpg,left,1062.2349999612197,false,low,NA,NA,NA,NA,NA,NA,NA,false
FVGCyN3I,3b6f54kms5pu5knddy3sw9ki4gws13,3txd01zld8utzgaugnmwys50kk8u4x,FVGCyN3I,2020-0188,2020-05-07,21:49:17,22:23:23,NA,incomplete,29,number,1,right,Green_Star_Stripes_3.jpg,Green_Triangle_Grid_1.jpg,Red_Circle_Chess_3.jpg,right,712.2299999464303,true,low,NA,NA,NA,NA,NA,NA,NA,false
FVGCyN3I,3b6f54kms5pu5knddy3sw9ki4gws13,3txd01zld8utzgaugnmwys50kk8u4x,FVGCyN3I,2020-0188,2020-05-07,21:49:17,22:23:23,NA,incomplete,30,color,1,left,Red_Circle_Chess_3.jpg,Red_Triangle_Stripes_1.jpg,Green_Plus_Grid_3.jpg,right,680.2799999713898,false,low,NA,NA,NA,NA,NA,NA,NA,false
FVGCyN3I,3b6f54kms5pu5knddy3sw9ki4gws13,3txd01zld8utzgaugnmwys50kk8u4x,FVGCyN3I,2020-0188,2020-05-07,21:49:17,22:23:23,NA,incomplete,31,color,1,left,Red_Triangle_Chess_1.jpg,Red_Plus_Dots_4.jpg,Green_Star_Stripes_1.jpg,right,866.039999993518,false,low,NA,NA,NA,NA,NA,NA,NA,false
FVGCyN3I,3b6f54kms5pu5knddy3sw9ki4gws13,3txd01zld8utzgaugnmwys50kk8u4x,FVGCyN3I,2020-0188,2020-05-07,21:49:17,22:23:23,NA,incomplete,32,color,1,right,Green_Plus_Dots_3.jpg,Red_Circle_Grid_3.jpg,Green_Triangle_Stripes_4.jpg,right,1020.4600000288337,true,low,NA,NA,NA,NA,NA,NA,NA,false
FVGCyN3I,3b6f54kms5pu5knddy3sw9ki4gws13,3txd01zld8utzgaugnmwys50kk8u4x,FVGCyN3I,2020-0188,2020-05-07,21:49:17,22:23:23,NA,incomplete,33,color,1,right,Blue_Star_Dots_3.jpg,Green_Plus_Stripes_3.jpg,Blue_Triangle_Chess_2.jpg,right,632.1500000776723,true,low,NA,NA,NA,NA,NA,NA,NA,false
FVGCyN3I,3b6f54kms5pu5knddy3sw9ki4gws13,3txd01zld8utzgaugnmwys50kk8u4x,FVGCyN3I,2020-0188,2020-05-07,21:49:17,22:23:23,NA,incomplete,34,color,1,right,Red_Plus_Grid_4.jpg,Blue_Triangle_Chess_4.jpg,Red_Star_Dots_1.jpg,right,899.4399999501184,true,low,NA,NA,NA,NA,NA,NA,NA,false
FVGCyN3I,3b6f54kms5pu5knddy3sw9ki4gws13,3txd01zld8utzgaugnmwys50kk8u4x,FVGCyN3I,2020-0188,2020-05-07,21:49:17,22:23:23,NA,incomplete,35,color,1,right,Green_Circle_Grid_1.jpg,Blue_Plus_Chess_1.jpg,Green_Star_Stripes_2.jpg,right,908.4599999478087,true,low,NA,NA,NA,NA,NA,NA,NA,false
FVGCyN3I,3b6f54kms5pu5knddy3sw9ki4gws13,3txd01zld8utzgaugnmwys50kk8u4x,FVGCyN3I,2020-0188,2020-05-07,21:49:17,22:23:23,NA,incomplete,36,color,1,left,Purple_Plus_Dots_1.jpg,Purple_Circle_Chess_3.jpg,Red_Star_Grid_1.jpg,left,892.3900000518188,true,low,NA,NA,NA,NA,NA,NA,NA,false
FVGCyN3I,3b6f54kms5pu5knddy3sw9ki4gws13,3txd01zld8utzgaugnmwys50kk8u4x,FVGCyN3I,2020-0188,2020-05-07,21:49:17,22:23:23,NA,incomplete,37,color,1,right,Blue_Plus_Dots_1.jpg,Red_Triangle_Grid_1.jpg,Blue_Circle_Chess_2.jpg,right,653.4250000258908,true,low,NA,NA,NA,NA,NA,NA,NA,false
FVGCyN3I,3b6f54kms5pu5knddy3sw9ki4gws13,3txd01zld8utzgaugnmwys50kk8u4x,FVGCyN3I,2020-0188,2020-05-07,21:49:17,22:23:23,NA,incomplete,38,color,1,left,Red_Star_Stripes_3.jpg,Red_Triangle_Chess_1.jpg,Green_Circle_Grid_3.jpg,left,840.085000032559,true,low,NA,NA,NA,NA,NA,NA,NA,false
FVGCyN3I,3b6f54kms5pu5knddy3sw9ki4gws13,3txd01zld8utzgaugnmwys50kk8u4x,FVGCyN3I,2020-0188,2020-05-07,21:49:17,22:23:23,NA,incomplete,39,color,1,left,Purple_Star_Dots_1.jpg,Purple_Plus_Grid_4.jpg,Red_Triangle_Chess_1.jpg,left,626.6349999932572,true,low,NA,NA,NA,NA,NA,NA,NA,false
FVGCyN3I,3b6f54kms5pu5knddy3sw9ki4gws13,3txd01zld8utzgaugnmwys50kk8u4x,FVGCyN3I,2020-0188,2020-05-07,21:49:17,22:23:23,NA,incomplete,40,color,1,right,Blue_Circle_Chess_3.jpg,Green_Plus_Grid_3.jpg,Blue_Triangle_Dots_1.jpg,right,702.0499999634922,true,low,NA,NA,NA,NA,NA,NA,NA,false
FVGCyN3I,3b6f54kms5pu5knddy3sw9ki4gws13,3txd01zld8utzgaugnmwys50kk8u4x,FVGCyN3I,2020-0188,2020-05-07,21:49:17,22:23:23,NA,incomplete,41,color,1,right,Purple_Circle_Chess_4.jpg,Green_Plus_Grid_4.jpg,Purple_Triangle_Stripes_3.jpg,right,686.369999893941,true,low,NA,NA,NA,NA,NA,NA,NA,false
FVGCyN3I,3b6f54kms5pu5knddy3sw9ki4gws13,3txd01zld8utzgaugnmwys50kk8u4x,FVGCyN3I,2020-0188,2020-05-07,21:49:17,22:23:23,NA,incomplete,42,color,1,right,Blue_Triangle_Chess_4.jpg,Red_Plus_Stripes_4.jpg,Blue_Star_Grid_3.jpg,right,759.0799999888986,true,low,NA,NA,NA,NA,NA,NA,NA,false
FVGCyN3I,3b6f54kms5pu5knddy3sw9ki4gws13,3txd01zld8utzgaugnmwys50kk8u4x,FVGCyN3I,2020-0188,2020-05-07,21:49:17,22:23:23,NA,incomplete,43,color,0,left,Blue_Plus_Chess_4.jpg,Blue_Star_Grid_2.jpg,Red_Triangle_Stripes_4.jpg,left,709.789999993518,true,low,NA,NA,NA,NA,NA,NA,NA,false
FVGCyN3I,3b6f54kms5pu5knddy3sw9ki4gws13,3txd01zld8utzgaugnmwys50kk8u4x,FVGCyN3I,2020-0188,2020-05-07,21:49:17,22:23:23,NA,incomplete,44,color,1,right,Blue_Star_Grid_3.jpg,Red_Triangle_Stripes_3.jpg,Blue_Plus_Chess_2.jpg,right,525.7050000363961,true,low,NA,NA,NA,NA,NA,NA,NA,false
FVGCyN3I,3b6f54kms5pu5knddy3sw9ki4gws13,3txd01zld8utzgaugnmwys50kk8u4x,FVGCyN3I,2020-0188,2020-05-07,21:49:17,22:23:23,NA,incomplete,45,color,0,right,Green_Plus_Stripes_2.jpg,Red_Star_Grid_2.jpg,Green_Circle_Chess_3.jpg,right,637.2699999483302,true,low,NA,NA,NA,NA,NA,NA,NA,false
FVGCyN3I,3b6f54kms5pu5knddy3sw9ki4gws13,3txd01zld8utzgaugnmwys50kk8u4x,FVGCyN3I,2020-0188,2020-05-07,21:49:17,22:23:23,NA,incomplete,46,color,1,left,Red_Star_Grid_2.jpg,Red_Circle_Chess_1.jpg,Purple_Plus_Dots_2.jpg,left,800.3550000721589,true,low,NA,NA,NA,NA,NA,NA,NA,false
FVGCyN3I,3b6f54kms5pu5knddy3sw9ki4gws13,3txd01zld8utzgaugnmwys50kk8u4x,FVGCyN3I,2020-0188,2020-05-07,21:49:17,22:23:23,NA,incomplete,47,color,1,right,Blue_Circle_Stripes_1.jpg,Purple_Star_Grid_1.jpg,Blue_Plus_Chess_2.jpg,right,644.3449999205768,true,low,NA,NA,NA,NA,NA,NA,NA,false
FVGCyN3I,3b6f54kms5pu5knddy3sw9ki4gws13,3txd01zld8utzgaugnmwys50kk8u4x,FVGCyN3I,2020-0188,2020-05-07,21:49:17,22:23:23,NA,incomplete,48,color,1,right,Red_Triangle_Dots_2.jpg,Purple_Circle_Grid_2.jpg,Red_Star_Chess_1.jpg,right,655.7850000681356,true,low,NA,NA,NA,NA,NA,NA,NA,false
FVGCyN3I,3b6f54kms5pu5knddy3sw9ki4gws13,3txd01zld8utzgaugnmwys50kk8u4x,FVGCyN3I,2020-0188,2020-05-07,21:49:17,22:23:23,NA,incomplete,49,color,0,right,Green_Triangle_Chess_1.jpg,Red_Plus_Dots_1.jpg,Green_Circle_Grid_4.jpg,right,705.625000060536,true,low,NA,NA,NA,NA,NA,NA,NA,false
FVGCyN3I,3b6f54kms5pu5knddy3sw9ki4gws13,3txd01zld8utzgaugnmwys50kk8u4x,FVGCyN3I,2020-0188,2020-05-07,21:49:17,22:23:23,NA,incomplete,50,color,1,left,Purple_Triangle_Dots_3.jpg,Purple_Star_Chess_4.jpg,Red_Plus_Stripes_3.jpg,left,753.5749999806285,true,low,NA,NA,NA,NA,NA,NA,NA,false
FVGCyN3I,3b6f54kms5pu5knddy3sw9ki4gws13,3txd01zld8utzgaugnmwys50kk8u4x,FVGCyN3I,2020-0188,2020-05-07,21:49:17,22:23:23,NA,incomplete,51,color,1,right,Purple_Triangle_Grid_4.jpg,Blue_Star_Stripes_4.jpg,Purple_Plus_Dots_2.jpg,right,639.9049999890849,true,low,NA,NA,NA,NA,NA,NA,NA,false
FVGCyN3I,3b6f54kms5pu5knddy3sw9ki4gws13,3txd01zld8utzgaugnmwys50kk8u4x,FVGCyN3I,2020-0188,2020-05-07,21:49:17,22:23:23,NA,incomplete,52,color,1,left,Green_Star_Stripes_3.jpg,Green_Plus_Grid_2.jpg,Red_Circle_Chess_3.jpg,left,562.7000000094995,true,low,NA,NA,NA,NA,NA,NA,NA,false
FVGCyN3I,3b6f54kms5pu5knddy3sw9ki4gws13,3txd01zld8utzgaugnmwys50kk8u4x,FVGCyN3I,2020-0188,2020-05-07,21:49:17,22:23:23,NA,incomplete,53,color,0,right,Green_Circle_Grid_4.jpg,Red_Plus_Stripes_4.jpg,Green_Star_Dots_1.jpg,right,593.3199999853969,true,low,NA,NA,NA,NA,NA,NA,NA,false
FVGCyN3I,3b6f54kms5pu5knddy3sw9ki4gws13,3txd01zld8utzgaugnmwys50kk8u4x,FVGCyN3I,2020-0188,2020-05-07,21:49:17,22:23:23,NA,incomplete,54,color,1,left,Purple_Star_Dots_2.jpg,Purple_Plus_Stripes_3.jpg,Green_Circle_Chess_2.jpg,left,645.8349999738857,true,low,NA,NA,NA,NA,NA,NA,NA,false
FVGCyN3I,3b6f54kms5pu5knddy3sw9ki4gws13,3txd01zld8utzgaugnmwys50kk8u4x,FVGCyN3I,2020-0188,2020-05-07,21:49:17,22:23:23,NA,incomplete,55,color,0,left,Green_Star_Chess_2.jpg,Green_Triangle_Dots_3.jpg,Blue_Circle_Grid_2.jpg,left,568.8100000843406,true,low,NA,NA,NA,NA,NA,NA,NA,false
FVGCyN3I,3b6f54kms5pu5knddy3sw9ki4gws13,3txd01zld8utzgaugnmwys50kk8u4x,FVGCyN3I,2020-0188,2020-05-07,21:49:17,22:23:23,NA,incomplete,56,color,1,left,Blue_Triangle_Grid_3.jpg,Blue_Circle_Stripes_1.jpg,Green_Plus_Dots_3.jpg,left,638.3100000675768,true,low,NA,NA,NA,NA,NA,NA,NA,false
FVGCyN3I,3b6f54kms5pu5knddy3sw9ki4gws13,3txd01zld8utzgaugnmwys50kk8u4x,FVGCyN3I,2020-0188,2020-05-07,21:49:17,22:23:23,NA,incomplete,57,color,0,left,Green_Star_Stripes_2.jpg,Green_Circle_Grid_1.jpg,Red_Plus_Chess_2.jpg,left,553.3350000623614,true,low,NA,NA,NA,NA,NA,NA,NA,false
FVGCyN3I,3b6f54kms5pu5knddy3sw9ki4gws13,3txd01zld8utzgaugnmwys50kk8u4x,FVGCyN3I,2020-0188,2020-05-07,21:49:17,22:23:23,NA,incomplete,58,color,1,left,Green_Circle_Grid_3.jpg,Green_Triangle_Dots_2.jpg,Purple_Plus_Chess_3.jpg,left,559.7150000976399,true,low,NA,NA,NA,NA,NA,NA,NA,false
FVGCyN3I,3b6f54kms5pu5knddy3sw9ki4gws13,3txd01zld8utzgaugnmwys50kk8u4x,FVGCyN3I,2020-0188,2020-05-07,21:49:17,22:23:23,NA,incomplete,59,color,1,left,Blue_Circle_Chess_2.jpg,Blue_Plus_Grid_1.jpg,Green_Triangle_Stripes_2.jpg,left,621.6399999102578,true,low,NA,NA,NA,NA,NA,NA,NA,false
FVGCyN3I,3b6f54kms5pu5knddy3sw9ki4gws13,3txd01zld8utzgaugnmwys50kk8u4x,FVGCyN3I,2020-0188,2020-05-07,21:49:17,22:23:23,NA,incomplete,60,number,1,right,Blue_Plus_Grid_3.jpg,Blue_Circle_Dots_4.jpg,Purple_Triangle_Chess_3.jpg,left,537.2499999357387,false,low,NA,NA,NA,NA,NA,NA,NA,false
FVGCyN3I,3b6f54kms5pu5knddy3sw9ki4gws13,3txd01zld8utzgaugnmwys50kk8u4x,FVGCyN3I,2020-0188,2020-05-07,21:49:17,22:23:23,NA,incomplete,61,number,1,left,Blue_Circle_Stripes_3.jpg,Red_Star_Chess_3.jpg,Blue_Triangle_Grid_4.jpg,right,567.9000000236556,false,low,NA,NA,NA,NA,NA,NA,NA,false
FVGCyN3I,3b6f54kms5pu5knddy3sw9ki4gws13,3txd01zld8utzgaugnmwys50kk8u4x,FVGCyN3I,2020-0188,2020-05-07,21:49:17,22:23:23,NA,incomplete,62,number,1,right,Purple_Triangle_Dots_2.jpg,Purple_Star_Grid_1.jpg,Green_Plus_Chess_2.jpg,right,805.6000000797212,true,low,NA,NA,NA,NA,NA,NA,NA,false
FVGCyN3I,3b6f54kms5pu5knddy3sw9ki4gws13,3txd01zld8utzgaugnmwys50kk8u4x,FVGCyN3I,2020-0188,2020-05-07,21:49:17,22:23:23,NA,incomplete,63,number,1,right,Purple_Circle_Dots_3.jpg,Purple_Star_Chess_1.jpg,Green_Plus_Stripes_3.jpg,right,786.5100000053644,true,low,NA,NA,NA,NA,NA,NA,NA,false
FVGCyN3I,3b6f54kms5pu5knddy3sw9ki4gws13,3txd01zld8utzgaugnmwys50kk8u4x,FVGCyN3I,2020-0188,2020-05-07,21:49:17,22:23:23,NA,incomplete,64,number,1,left,Blue_Circle_Grid_4.jpg,Red_Plus_Dots_4.jpg,Blue_Triangle_Chess_1.jpg,left,734.8100000526756,true,low,NA,NA,NA,NA,NA,NA,NA,false
FVGCyN3I,3b6f54kms5pu5knddy3sw9ki4gws13,3txd01zld8utzgaugnmwys50kk8u4x,FVGCyN3I,2020-0188,2020-05-07,21:49:17,22:23:23,NA,incomplete,65,number,0,left,Blue_Triangle_Stripes_1.jpg,Red_Circle_Dots_1.jpg,Blue_Plus_Grid_3.jpg,left,853.7599999690428,true,low,NA,NA,NA,NA,NA,NA,NA,false
FVGCyN3I,3b6f54kms5pu5knddy3sw9ki4gws13,3txd01zld8utzgaugnmwys50kk8u4x,FVGCyN3I,2020-0188,2020-05-07,21:49:17,22:23:23,NA,incomplete,66,number,1,right,Red_Star_Grid_1.jpg,Red_Circle_Chess_3.jpg,Green_Triangle_Dots_1.jpg,right,656.1499999370426,true,low,NA,NA,NA,NA,NA,NA,NA,false
FVGCyN3I,3b6f54kms5pu5knddy3sw9ki4gws13,3txd01zld8utzgaugnmwys50kk8u4x,FVGCyN3I,2020-0188,2020-05-07,21:49:17,22:23:23,NA,incomplete,67,number,1,left,Blue_Star_Stripes_2.jpg,Purple_Triangle_Dots_2.jpg,Blue_Circle_Grid_1.jpg,left,786.3300000317395,true,low,NA,NA,NA,NA,NA,NA,NA,false
FVGCyN3I,3b6f54kms5pu5knddy3sw9ki4gws13,3txd01zld8utzgaugnmwys50kk8u4x,FVGCyN3I,2020-0188,2020-05-07,21:49:17,22:23:23,NA,incomplete,68,number,1,right,Purple_Circle_Grid_1.jpg,Purple_Triangle_Dots_2.jpg,Green_Star_Stripes_1.jpg,right,735.370000009425,true,low,NA,NA,NA,NA,NA,NA,NA,false
FVGCyN3I,3b6f54kms5pu5knddy3sw9ki4gws13,3txd01zld8utzgaugnmwys50kk8u4x,FVGCyN3I,2020-0188,2020-05-07,21:49:17,22:23:23,NA,incomplete,69,number,1,left,Purple_Star_Dots_2.jpg,Red_Triangle_Stripes_2.jpg,Purple_Circle_Chess_4.jpg,left,742.2050000168383,true,low,NA,NA,NA,NA,NA,NA,NA,false
FVGCyN3I,3b6f54kms5pu5knddy3sw9ki4gws13,3txd01zld8utzgaugnmwys50kk8u4x,FVGCyN3I,2020-0188,2020-05-07,21:49:17,22:23:23,NA,incomplete,70,number,0,left,Red_Circle_Stripes_3.jpg,Purple_Star_Chess_3.jpg,Red_Plus_Dots_1.jpg,left,724.9999999767169,true,low,NA,NA,NA,NA,NA,NA,NA,false
FVGCyN3I,3b6f54kms5pu5knddy3sw9ki4gws13,3txd01zld8utzgaugnmwys50kk8u4x,FVGCyN3I,2020-0188,2020-05-07,21:49:17,22:23:23,NA,incomplete,71,number,1,right,Green_Triangle_Chess_4.jpg,Green_Plus_Stripes_2.jpg,Red_Star_Grid_4.jpg,left,980.6099999696016,false,low,NA,NA,NA,NA,NA,NA,NA,false
FVGCyN3I,3b6f54kms5pu5knddy3sw9ki4gws13,3txd01zld8utzgaugnmwys50kk8u4x,FVGCyN3I,2020-0188,2020-05-07,21:49:17,22:23:23,NA,incomplete,72,number,1,right,Purple_Star_Chess_2.jpg,Purple_Plus_Stripes_3.jpg,Red_Circle_Dots_2.jpg,right,698.0949999997392,true,low,NA,NA,NA,NA,NA,NA,NA,false
FVGCyN3I,3b6f54kms5pu5knddy3sw9ki4gws13,3txd01zld8utzgaugnmwys50kk8u4x,FVGCyN3I,2020-0188,2020-05-07,21:49:17,22:23:23,NA,incomplete,73,number,0,right,Purple_Plus_Chess_1.jpg,Purple_Star_Stripes_3.jpg,Blue_Triangle_Grid_1.jpg,right,795.4049999825656,true,low,NA,NA,NA,NA,NA,NA,NA,false
FVGCyN3I,3b6f54kms5pu5knddy3sw9ki4gws13,3txd01zld8utzgaugnmwys50kk8u4x,FVGCyN3I,2020-0188,2020-05-07,21:49:17,22:23:23,NA,incomplete,74,number,1,left,Red_Plus_Grid_4.jpg,Purple_Triangle_Dots_4.jpg,Red_Circle_Chess_3.jpg,left,783.9699999894947,true,low,NA,NA,NA,NA,NA,NA,NA,false
FVGCyN3I,3b6f54kms5pu5knddy3sw9ki4gws13,3txd01zld8utzgaugnmwys50kk8u4x,FVGCyN3I,2020-0188,2020-05-07,21:49:17,22:23:23,NA,incomplete,75,number,0,right,Red_Triangle_Grid_1.jpg,Red_Star_Dots_2.jpg,Green_Plus_Stripes_1.jpg,right,604.7750000143424,true,low,NA,NA,NA,NA,NA,NA,NA,false
FVGCyN3I,3b6f54kms5pu5knddy3sw9ki4gws13,3txd01zld8utzgaugnmwys50kk8u4x,FVGCyN3I,2020-0188,2020-05-07,21:49:17,22:23:23,NA,incomplete,76,number,1,left,Purple_Star_Grid_2.jpg,Green_Circle_Chess_2.jpg,Purple_Plus_Stripes_1.jpg,right,641.0249999025837,false,low,NA,NA,NA,NA,NA,NA,NA,false
FVGCyN3I,3b6f54kms5pu5knddy3sw9ki4gws13,3txd01zld8utzgaugnmwys50kk8u4x,FVGCyN3I,2020-0188,2020-05-07,21:49:17,22:23:23,NA,incomplete,77,number,1,right,Red_Circle_Chess_3.jpg,Red_Plus_Grid_2.jpg,Purple_Star_Stripes_3.jpg,right,1363.880000077188,true,low,NA,NA,NA,NA,NA,NA,NA,false
FVGCyN3I,3b6f54kms5pu5knddy3sw9ki4gws13,3txd01zld8utzgaugnmwys50kk8u4x,FVGCyN3I,2020-0188,2020-05-07,21:49:17,22:23:23,NA,incomplete,78,number,0,right,Red_Circle_Stripes_1.jpg,Red_Star_Dots_3.jpg,Purple_Plus_Grid_1.jpg,right,658.5650000488386,true,low,NA,NA,NA,NA,NA,NA,NA,false
FVGCyN3I,3b6f54kms5pu5knddy3sw9ki4gws13,3txd01zld8utzgaugnmwys50kk8u4x,FVGCyN3I,2020-0188,2020-05-07,21:49:17,22:23:23,NA,incomplete,79,number,0,left,Green_Circle_Stripes_1.jpg,Purple_Plus_Grid_1.jpg,Green_Star_Dots_4.jpg,right,1020.3800000017509,false,low,NA,NA,NA,NA,NA,NA,NA,false
FVGCyN3I,3b6f54kms5pu5knddy3sw9ki4gws13,3txd01zld8utzgaugnmwys50kk8u4x,FVGCyN3I,2020-0188,2020-05-07,21:49:17,22:23:23,NA,incomplete,80,number,1,left,Green_Plus_Stripes_1.jpg,Purple_Star_Grid_1.jpg,Green_Triangle_Chess_2.jpg,left,960.0299999583513,true,low,NA,NA,NA,NA,NA,NA,NA,false
FVGCyN3I,3b6f54kms5pu5knddy3sw9ki4gws13,3txd01zld8utzgaugnmwys50kk8u4x,FVGCyN3I,2020-0188,2020-05-07,21:49:17,22:23:23,NA,incomplete,81,number,0,left,Red_Triangle_Stripes_4.jpg,Purple_Star_Dots_4.jpg,Red_Plus_Grid_3.jpg,right,566.2899999879301,false,low,NA,NA,NA,NA,NA,NA,NA,false
FVGCyN3I,3b6f54kms5pu5knddy3sw9ki4gws13,3txd01zld8utzgaugnmwys50kk8u4x,FVGCyN3I,2020-0188,2020-05-07,21:49:17,22:23:23,NA,incomplete,82,number,0,right,Red_Circle_Stripes_3.jpg,Red_Star_Chess_4.jpg,Green_Triangle_Grid_3.jpg,right,1244.5499999448657,true,low,NA,NA,NA,NA,NA,NA,NA,false
FVGCyN3I,3b6f54kms5pu5knddy3sw9ki4gws13,3txd01zld8utzgaugnmwys50kk8u4x,FVGCyN3I,2020-0188,2020-05-07,21:49:17,22:23:23,NA,incomplete,83,number,1,right,Green_Circle_Stripes_1.jpg,Green_Triangle_Dots_4.jpg,Purple_Star_Chess_1.jpg,left,519.5600000442937,false,low,NA,NA,NA,NA,NA,NA,NA,false
FVGCyN3I,3b6f54kms5pu5knddy3sw9ki4gws13,3txd01zld8utzgaugnmwys50kk8u4x,FVGCyN3I,2020-0188,2020-05-07,21:49:17,22:23:23,NA,incomplete,84,number,1,right,Red_Star_Grid_4.jpg,Red_Circle_Dots_1.jpg,Green_Plus_Chess_4.jpg,right,615.0549999438226,true,low,NA,NA,NA,NA,NA,NA,NA,false
FVGCyN3I,3b6f54kms5pu5knddy3sw9ki4gws13,3txd01zld8utzgaugnmwys50kk8u4x,FVGCyN3I,2020-0188,2020-05-07,21:49:17,22:23:23,NA,incomplete,85,number,1,left,Blue_Triangle_Dots_1.jpg,Green_Plus_Chess_1.jpg,Blue_Star_Grid_3.jpg,left,675.1699999440461,true,low,NA,NA,NA,NA,NA,NA,NA,false
FVGCyN3I,3b6f54kms5pu5knddy3sw9ki4gws13,3txd01zld8utzgaugnmwys50kk8u4x,FVGCyN3I,2020-0188,2020-05-07,21:49:17,22:23:23,NA,incomplete,86,number,1,right,Green_Star_Dots_3.jpg,Green_Plus_Grid_1.jpg,Purple_Triangle_Stripes_3.jpg,right,660.7399999629706,true,low,NA,NA,NA,NA,NA,NA,NA,false
FVGCyN3I,3b6f54kms5pu5knddy3sw9ki4gws13,3txd01zld8utzgaugnmwys50kk8u4x,FVGCyN3I,2020-0188,2020-05-07,21:49:17,22:23:23,NA,incomplete,87,number,1,left,Red_Star_Grid_4.jpg,Purple_Plus_Dots_4.jpg,Red_Triangle_Chess_2.jpg,left,935.0899999262765,true,low,NA,NA,NA,NA,NA,NA,NA,false
FVGCyN3I,3b6f54kms5pu5knddy3sw9ki4gws13,3txd01zld8utzgaugnmwys50kk8u4x,FVGCyN3I,2020-0188,2020-05-07,21:49:17,22:23:23,NA,incomplete,88,number,1,left,Blue_Circle_Grid_3.jpg,Red_Plus_Chess_3.jpg,Blue_Triangle_Dots_1.jpg,left,814.3750000745058,true,low,NA,NA,NA,NA,NA,NA,NA,false
FVGCyN3I,3b6f54kms5pu5knddy3sw9ki4gws13,3txd01zld8utzgaugnmwys50kk8u4x,FVGCyN3I,2020-0188,2020-05-07,21:49:17,22:23:23,NA,incomplete,89,number,1,right,Purple_Triangle_Grid_4.jpg,Purple_Circle_Chess_3.jpg,Red_Star_Stripes_4.jpg,right,666.120000067167,true,low,NA,NA,NA,NA,NA,NA,NA,false
FVGCyN3I,3b6f54kms5pu5knddy3sw9ki4gws13,3txd01zld8utzgaugnmwys50kk8u4x,FVGCyN3I,2020-0188,2020-05-07,21:49:17,22:23:23,NA,incomplete,90,color,1,right,Red_Star_Stripes_4.jpg,Purple_Plus_Dots_4.jpg,Red_Triangle_Chess_3.jpg,left,740.4200000455603,false,low,NA,NA,NA,NA,NA,NA,NA,false
FVGCyN3I,3b6f54kms5pu5knddy3sw9ki4gws13,3txd01zld8utzgaugnmwys50kk8u4x,FVGCyN3I,2020-0188,2020-05-07,21:49:17,22:23:23,NA,incomplete,91,color,0,left,Green_Circle_Stripes_3.jpg,Green_Triangle_Grid_2.jpg,Red_Plus_Dots_3.jpg,left,699.2450000252575,true,low,NA,NA,NA,NA,NA,NA,NA,false
FVGCyN3I,3b6f54kms5pu5knddy3sw9ki4gws13,3txd01zld8utzgaugnmwys50kk8u4x,FVGCyN3I,2020-0188,2020-05-07,21:49:17,22:23:23,NA,incomplete,92,color,1,left,Purple_Star_Stripes_1.jpg,Purple_Circle_Grid_2.jpg,Blue_Plus_Chess_1.jpg,right,636.2500000977889,false,low,NA,NA,NA,NA,NA,NA,NA,false
FVGCyN3I,3b6f54kms5pu5knddy3sw9ki4gws13,3txd01zld8utzgaugnmwys50kk8u4x,FVGCyN3I,2020-0188,2020-05-07,21:49:17,22:23:23,NA,incomplete,93,color,1,right,Red_Plus_Stripes_2.jpg,Blue_Star_Dots_2.jpg,Red_Triangle_Grid_3.jpg,right,631.3549999613315,true,low,NA,NA,NA,NA,NA,NA,NA,false
FVGCyN3I,3b6f54kms5pu5knddy3sw9ki4gws13,3txd01zld8utzgaugnmwys50kk8u4x,FVGCyN3I,2020-0188,2020-05-07,21:49:17,22:23:23,NA,incomplete,94,color,1,left,Blue_Triangle_Grid_2.jpg,Blue_Star_Chess_1.jpg,Red_Circle_Stripes_2.jpg,left,570.7099999999627,true,low,NA,NA,NA,NA,NA,NA,NA,false
FVGCyN3I,3b6f54kms5pu5knddy3sw9ki4gws13,3txd01zld8utzgaugnmwys50kk8u4x,FVGCyN3I,2020-0188,2020-05-07,21:49:17,22:23:23,NA,incomplete,95,color,1,left,Green_Triangle_Stripes_3.jpg,Green_Plus_Dots_1.jpg,Red_Star_Chess_3.jpg,left,656.4699999289587,true,low,NA,NA,NA,NA,NA,NA,NA,false
FVGCyN3I,3b6f54kms5pu5knddy3sw9ki4gws13,3txd01zld8utzgaugnmwys50kk8u4x,FVGCyN3I,2020-0188,2020-05-07,21:49:17,22:23:23,NA,incomplete,96,color,0,left,Red_Plus_Grid_2.jpg,Red_Triangle_Dots_1.jpg,Green_Circle_Stripes_2.jpg,left,690.3450000099838,true,low,NA,NA,NA,NA,NA,NA,NA,false
FVGCyN3I,3b6f54kms5pu5knddy3sw9ki4gws13,3txd01zld8utzgaugnmwys50kk8u4x,FVGCyN3I,2020-0188,2020-05-07,21:49:17,22:23:23,NA,incomplete,97,color,1,right,Purple_Circle_Grid_2.jpg,Green_Triangle_Stripes_2.jpg,Purple_Plus_Chess_3.jpg,right,801.6800000332296,true,low,NA,NA,NA,NA,NA,NA,NA,false
FVGCyN3I,3b6f54kms5pu5knddy3sw9ki4gws13,3txd01zld8utzgaugnmwys50kk8u4x,FVGCyN3I,2020-0188,2020-05-07,21:49:17,22:23:23,NA,incomplete,98,color,1,left,Red_Triangle_Stripes_4.jpg,Red_Plus_Chess_1.jpg,Green_Star_Dots_4.jpg,left,727.9550000093877,true,low,NA,NA,NA,NA,NA,NA,NA,false
FVGCyN3I,3b6f54kms5pu5knddy3sw9ki4gws13,3txd01zld8utzgaugnmwys50kk8u4x,FVGCyN3I,2020-0188,2020-05-07,21:49:17,22:23:23,NA,incomplete,99,color,0,left,Purple_Star_Stripes_4.jpg,Purple_Plus_Dots_1.jpg,Red_Circle_Grid_4.jpg,left,639.2250000499189,true,low,NA,NA,NA,NA,NA,NA,NA,false
FVGCyN3I,3b6f54kms5pu5knddy3sw9ki4gws13,3txd01zld8utzgaugnmwys50kk8u4x,FVGCyN3I,2020-0188,2020-05-07,21:49:17,22:23:23,NA,incomplete,100,color,1,right,Purple_Circle_Stripes_2.jpg,Red_Star_Grid_2.jpg,Purple_Plus_Chess_1.jpg,right,666.1199999507517,true,low,NA,NA,NA,NA,NA,NA,NA,false
FVGCyN3I,3b6f54kms5pu5knddy3sw9ki4gws13,3txd01zld8utzgaugnmwys50kk8u4x,FVGCyN3I,2020-0188,2020-05-07,21:49:17,22:23:23,NA,incomplete,101,color,1,right,Purple_Plus_Grid_4.jpg,Green_Triangle_Chess_4.jpg,Purple_Circle_Stripes_3.jpg,right,532.3050000006333,true,low,NA,NA,NA,NA,NA,NA,NA,false
FVGCyN3I,3b6f54kms5pu5knddy3sw9ki4gws13,3txd01zld8utzgaugnmwys50kk8u4x,FVGCyN3I,2020-0188,2020-05-07,21:49:17,22:23:23,NA,incomplete,102,color,1,left,Green_Plus_Grid_1.jpg,Green_Triangle_Stripes_3.jpg,Red_Star_Dots_1.jpg,left,571.8549999874085,true,low,NA,NA,NA,NA,NA,NA,NA,false
FVGCyN3I,3b6f54kms5pu5knddy3sw9ki4gws13,3txd01zld8utzgaugnmwys50kk8u4x,FVGCyN3I,2020-0188,2020-05-07,21:49:17,22:23:23,NA,incomplete,103,color,1,right,Blue_Star_Chess_2.jpg,Purple_Plus_Dots_2.jpg,Blue_Circle_Stripes_1.jpg,right,648.0650000739843,true,low,NA,NA,NA,NA,NA,NA,NA,false
FVGCyN3I,3b6f54kms5pu5knddy3sw9ki4gws13,3txd01zld8utzgaugnmwys50kk8u4x,FVGCyN3I,2020-0188,2020-05-07,21:49:17,22:23:23,NA,incomplete,104,color,1,left,Green_Circle_Chess_1.jpg,Green_Triangle_Stripes_3.jpg,Red_Star_Dots_1.jpg,left,588.1449999287724,true,low,NA,NA,NA,NA,NA,NA,NA,false
FVGCyN3I,3b6f54kms5pu5knddy3sw9ki4gws13,3txd01zld8utzgaugnmwys50kk8u4x,FVGCyN3I,2020-0188,2020-05-07,21:49:17,22:23:23,NA,incomplete,105,color,0,left,Red_Triangle_Stripes_1.jpg,Red_Star_Chess_2.jpg,Green_Circle_Grid_1.jpg,left,721.1949999909848,true,low,NA,NA,NA,NA,NA,NA,NA,false
FVGCyN3I,3b6f54kms5pu5knddy3sw9ki4gws13,3txd01zld8utzgaugnmwys50kk8u4x,FVGCyN3I,2020-0188,2020-05-07,21:49:17,22:23:23,NA,incomplete,106,color,1,left,Blue_Triangle_Stripes_2.jpg,Blue_Plus_Grid_1.jpg,Green_Circle_Chess_2.jpg,left,536.8650000309572,true,low,NA,NA,NA,NA,NA,NA,NA,false
FVGCyN3I,3b6f54kms5pu5knddy3sw9ki4gws13,3txd01zld8utzgaugnmwys50kk8u4x,FVGCyN3I,2020-0188,2020-05-07,21:49:17,22:23:23,NA,incomplete,107,color,1,right,Green_Plus_Grid_4.jpg,Purple_Triangle_Chess_4.jpg,Green_Circle_Stripes_3.jpg,right,767.4799999222159,true,low,NA,NA,NA,NA,NA,NA,NA,false
FVGCyN3I,3b6f54kms5pu5knddy3sw9ki4gws13,3txd01zld8utzgaugnmwys50kk8u4x,FVGCyN3I,2020-0188,2020-05-07,21:49:17,22:23:23,NA,incomplete,108,color,1,left,Blue_Circle_Stripes_2.jpg,Blue_Star_Grid_4.jpg,Purple_Triangle_Chess_2.jpg,left,589.3650000216439,true,low,NA,NA,NA,NA,NA,NA,NA,false
FVGCyN3I,3b6f54kms5pu5knddy3sw9ki4gws13,3txd01zld8utzgaugnmwys50kk8u4x,FVGCyN3I,2020-0188,2020-05-07,21:49:17,22:23:23,NA,incomplete,109,color,0,right,Green_Circle_Stripes_4.jpg,Purple_Star_Dots_4.jpg,Green_Plus_Chess_3.jpg,right,586.0249999677762,true,low,NA,NA,NA,NA,NA,NA,NA,false
FVGCyN3I,3b6f54kms5pu5knddy3sw9ki4gws13,3txd01zld8utzgaugnmwys50kk8u4x,FVGCyN3I,2020-0188,2020-05-07,21:49:17,22:23:23,NA,incomplete,110,color,1,left,Purple_Circle_Chess_4.jpg,Purple_Star_Grid_1.jpg,Green_Plus_Dots_4.jpg,left,622.9600000660866,true,low,NA,NA,NA,NA,NA,NA,NA,false
FVGCyN3I,3b6f54kms5pu5knddy3sw9ki4gws13,3txd01zld8utzgaugnmwys50kk8u4x,FVGCyN3I,2020-0188,2020-05-07,21:49:17,22:23:23,NA,incomplete,111,color,0,right,Green_Circle_Chess_2.jpg,Purple_Plus_Dots_2.jpg,Green_Triangle_Stripes_4.jpg,right,650.7050000363961,true,low,NA,NA,NA,NA,NA,NA,NA,false
FVGCyN3I,3b6f54kms5pu5knddy3sw9ki4gws13,3txd01zld8utzgaugnmwys50kk8u4x,FVGCyN3I,2020-0188,2020-05-07,21:49:17,22:23:23,NA,incomplete,112,color,1,left,Blue_Circle_Chess_3.jpg,Blue_Triangle_Dots_2.jpg,Purple_Plus_Stripes_3.jpg,right,820.7349999574944,false,low,NA,NA,NA,NA,NA,NA,NA,false
FVGCyN3I,3b6f54kms5pu5knddy3sw9ki4gws13,3txd01zld8utzgaugnmwys50kk8u4x,FVGCyN3I,2020-0188,2020-05-07,21:49:17,22:23:23,NA,incomplete,113,color,1,right,Purple_Star_Stripes_2.jpg,Blue_Circle_Chess_2.jpg,Purple_Triangle_Dots_1.jpg,right,664.699999964796,true,low,NA,NA,NA,NA,NA,NA,NA,false
FVGCyN3I,3b6f54kms5pu5knddy3sw9ki4gws13,3txd01zld8utzgaugnmwys50kk8u4x,FVGCyN3I,2020-0188,2020-05-07,21:49:17,22:23:23,NA,incomplete,114,color,1,right,Red_Triangle_Chess_1.jpg,Purple_Plus_Grid_1.jpg,Red_Star_Stripes_2.jpg,right,826.6999999759719,true,low,NA,NA,NA,NA,NA,NA,NA,false
FVGCyN3I,3b6f54kms5pu5knddy3sw9ki4gws13,3txd01zld8utzgaugnmwys50kk8u4x,FVGCyN3I,2020-0188,2020-05-07,21:49:17,22:23:23,NA,incomplete,115,color,1,left,Green_Triangle_Grid_1.jpg,Green_Circle_Stripes_4.jpg,Red_Star_Chess_1.jpg,left,654.270000057295,true,low,NA,NA,NA,NA,NA,NA,NA,false
FVGCyN3I,3b6f54kms5pu5knddy3sw9ki4gws13,3txd01zld8utzgaugnmwys50kk8u4x,FVGCyN3I,2020-0188,2020-05-07,21:49:17,22:23:23,NA,incomplete,116,color,1,left,Blue_Star_Grid_4.jpg,Blue_Triangle_Dots_3.jpg,Green_Circle_Stripes_4.jpg,left,504.45999996736646,true,low,NA,NA,NA,NA,NA,NA,NA,false
FVGCyN3I,3b6f54kms5pu5knddy3sw9ki4gws13,3txd01zld8utzgaugnmwys50kk8u4x,FVGCyN3I,2020-0188,2020-05-07,21:49:17,22:23:23,NA,incomplete,117,color,1,right,Green_Star_Chess_4.jpg,Purple_Triangle_Dots_4.jpg,Green_Circle_Grid_3.jpg,right,528.6850000265986,true,low,NA,NA,NA,NA,NA,NA,NA,false
FVGCyN3I,3b6f54kms5pu5knddy3sw9ki4gws13,3txd01zld8utzgaugnmwys50kk8u4x,FVGCyN3I,2020-0188,2020-05-07,21:49:17,22:23:23,NA,incomplete,118,color,1,left,Blue_Plus_Stripes_4.jpg,Blue_Star_Chess_3.jpg,Purple_Triangle_Dots_4.jpg,left,512.3799999710172,true,low,NA,NA,NA,NA,NA,NA,NA,false
FVGCyN3I,3b6f54kms5pu5knddy3sw9ki4gws13,3txd01zld8utzgaugnmwys50kk8u4x,FVGCyN3I,2020-0188,2020-05-07,21:49:17,22:23:23,NA,incomplete,119,color,0,right,Red_Star_Stripes_2.jpg,Purple_Plus_Dots_2.jpg,Red_Triangle_Chess_1.jpg,right,512.1849999995902,true,low,NA,NA,NA,NA,NA,NA,NA,false
FVGCyN3I,3b6f54kms5pu5knddy3sw9ki4gws13,3txd01zld8utzgaugnmwys50kk8u4x,FVGCyN3I,2020-0188,2020-05-07,21:49:17,22:23:23,NA,incomplete,120,number,1,right,Green_Plus_Chess_1.jpg,Green_Star_Grid_2.jpg,Blue_Circle_Stripes_1.jpg,left,888.55000003241,false,low,NA,NA,NA,NA,NA,NA,NA,false
FVGCyN3I,3b6f54kms5pu5knddy3sw9ki4gws13,3txd01zld8utzgaugnmwys50kk8u4x,FVGCyN3I,2020-0188,2020-05-07,21:49:17,22:23:23,NA,incomplete,121,number,0,left,Green_Plus_Chess_4.jpg,Blue_Triangle_Stripes_4.jpg,Green_Star_Grid_2.jpg,left,777.2400000831112,true,low,NA,NA,NA,NA,NA,NA,NA,false
FVGCyN3I,3b6f54kms5pu5knddy3sw9ki4gws13,3txd01zld8utzgaugnmwys50kk8u4x,FVGCyN3I,2020-0188,2020-05-07,21:49:17,22:23:23,NA,incomplete,122,number,1,right,Red_Star_Dots_1.jpg,Red_Plus_Grid_4.jpg,Purple_Triangle_Stripes_1.jpg,left,559.0699999593198,false,low,NA,NA,NA,NA,NA,NA,NA,false
FVGCyN3I,3b6f54kms5pu5knddy3sw9ki4gws13,3txd01zld8utzgaugnmwys50kk8u4x,FVGCyN3I,2020-0188,2020-05-07,21:49:17,22:23:23,NA,incomplete,123,number,0,left,Purple_Plus_Stripes_2.jpg,Blue_Circle_Chess_2.jpg,Purple_Star_Dots_4.jpg,right,517.4750000005588,false,low,NA,NA,NA,NA,NA,NA,NA,false
FVGCyN3I,3b6f54kms5pu5knddy3sw9ki4gws13,3txd01zld8utzgaugnmwys50kk8u4x,FVGCyN3I,2020-0188,2020-05-07,21:49:17,22:23:23,NA,incomplete,124,number,1,right,Red_Circle_Grid_3.jpg,Red_Star_Dots_4.jpg,Blue_Triangle_Stripes_3.jpg,left,556.6650000400841,false,low,NA,NA,NA,NA,NA,NA,NA,false
FVGCyN3I,3b6f54kms5pu5knddy3sw9ki4gws13,3txd01zld8utzgaugnmwys50kk8u4x,FVGCyN3I,2020-0188,2020-05-07,21:49:17,22:23:23,NA,incomplete,125,number,1,right,Purple_Circle_Stripes_1.jpg,Purple_Star_Dots_4.jpg,Blue_Triangle_Chess_1.jpg,left,570.8849999355152,false,low,NA,NA,NA,NA,NA,NA,NA,false
FVGCyN3I,3b6f54kms5pu5knddy3sw9ki4gws13,3txd01zld8utzgaugnmwys50kk8u4x,FVGCyN3I,2020-0188,2020-05-07,21:49:17,22:23:23,NA,incomplete,126,number,1,right,Red_Circle_Grid_2.jpg,Red_Plus_Chess_1.jpg,Green_Star_Stripes_2.jpg,left,1039.3649999750778,false,low,NA,NA,NA,NA,NA,NA,NA,false
FVGCyN3I,3b6f54kms5pu5knddy3sw9ki4gws13,3txd01zld8utzgaugnmwys50kk8u4x,FVGCyN3I,2020-0188,2020-05-07,21:49:17,22:23:23,NA,incomplete,127,number,1,left,Red_Plus_Chess_2.jpg,Blue_Triangle_Dots_2.jpg,Red_Star_Grid_4.jpg,left,859.3950000358745,true,low,NA,NA,NA,NA,NA,NA,NA,false
FVGCyN3I,3b6f54kms5pu5knddy3sw9ki4gws13,3txd01zld8utzgaugnmwys50kk8u4x,FVGCyN3I,2020-0188,2020-05-07,21:49:17,22:23:23,NA,incomplete,128,number,1,right,Purple_Triangle_Chess_3.jpg,Purple_Star_Dots_4.jpg,Green_Circle_Grid_3.jpg,right,654.1649999562651,true,low,NA,NA,NA,NA,NA,NA,NA,false
FVGCyN3I,3b6f54kms5pu5knddy3sw9ki4gws13,3txd01zld8utzgaugnmwys50kk8u4x,FVGCyN3I,2020-0188,2020-05-07,21:49:17,22:23:23,NA,incomplete,129,number,0,right,Red_Triangle_Dots_3.jpg,Red_Plus_Stripes_2.jpg,Blue_Star_Grid_3.jpg,right,736.075000022538,true,low,NA,NA,NA,NA,NA,NA,NA,false
FVGCyN3I,3b6f54kms5pu5knddy3sw9ki4gws13,3txd01zld8utzgaugnmwys50kk8u4x,FVGCyN3I,2020-0188,2020-05-07,21:49:17,22:23:23,NA,incomplete,130,number,1,right,Red_Circle_Dots_1.jpg,Red_Triangle_Chess_2.jpg,Green_Plus_Stripes_1.jpg,right,630.7699999306351,true,low,NA,NA,NA,NA,NA,NA,NA,false
FVGCyN3I,3b6f54kms5pu5knddy3sw9ki4gws13,3txd01zld8utzgaugnmwys50kk8u4x,FVGCyN3I,2020-0188,2020-05-07,21:49:17,22:23:23,NA,incomplete,131,number,1,right,Purple_Plus_Chess_2.jpg,Purple_Star_Stripes_1.jpg,Red_Triangle_Dots_2.jpg,right,674.3250000290573,true,low,NA,NA,NA,NA,NA,NA,NA,false
FVGCyN3I,3b6f54kms5pu5knddy3sw9ki4gws13,3txd01zld8utzgaugnmwys50kk8u4x,FVGCyN3I,2020-0188,2020-05-07,21:49:17,22:23:23,NA,incomplete,132,number,1,left,Red_Plus_Stripes_2.jpg,Blue_Circle_Grid_2.jpg,Red_Star_Chess_1.jpg,left,724.0449999226257,true,low,NA,NA,NA,NA,NA,NA,NA,false
FVGCyN3I,3b6f54kms5pu5knddy3sw9ki4gws13,3txd01zld8utzgaugnmwys50kk8u4x,FVGCyN3I,2020-0188,2020-05-07,21:49:17,22:23:23,NA,incomplete,133,number,1,right,Purple_Circle_Chess_3.jpg,Purple_Star_Dots_1.jpg,Blue_Plus_Grid_3.jpg,right,947.8050000034273,true,low,NA,NA,NA,NA,NA,NA,NA,false
FVGCyN3I,3b6f54kms5pu5knddy3sw9ki4gws13,3txd01zld8utzgaugnmwys50kk8u4x,FVGCyN3I,2020-0188,2020-05-07,21:49:17,22:23:23,NA,incomplete,134,number,1,right,Blue_Star_Stripes_2.jpg,Blue_Circle_Chess_1.jpg,Red_Plus_Grid_2.jpg,right,698.5100000165403,true,low,NA,NA,NA,NA,NA,NA,NA,false
FVGCyN3I,3b6f54kms5pu5knddy3sw9ki4gws13,3txd01zld8utzgaugnmwys50kk8u4x,FVGCyN3I,2020-0188,2020-05-07,21:49:17,22:23:23,NA,incomplete,135,number,1,left,Red_Plus_Grid_2.jpg,Green_Triangle_Chess_2.jpg,Red_Star_Stripes_1.jpg,left,771.3649999350309,true,low,NA,NA,NA,NA,NA,NA,NA,false
FVGCyN3I,3b6f54kms5pu5knddy3sw9ki4gws13,3txd01zld8utzgaugnmwys50kk8u4x,FVGCyN3I,2020-0188,2020-05-07,21:49:17,22:23:23,NA,incomplete,136,number,1,left,Purple_Triangle_Chess_2.jpg,Green_Circle_Dots_2.jpg,Purple_Star_Stripes_1.jpg,left,656.8950000219047,true,low,NA,NA,NA,NA,NA,NA,NA,false
FVGCyN3I,3b6f54kms5pu5knddy3sw9ki4gws13,3txd01zld8utzgaugnmwys50kk8u4x,FVGCyN3I,2020-0188,2020-05-07,21:49:17,22:23:23,NA,incomplete,137,number,0,left,Red_Triangle_Stripes_2.jpg,Green_Circle_Chess_2.jpg,Red_Star_Grid_4.jpg,left,643.0949999485165,true,low,NA,NA,NA,NA,NA,NA,NA,false
FVGCyN3I,3b6f54kms5pu5knddy3sw9ki4gws13,3txd01zld8utzgaugnmwys50kk8u4x,FVGCyN3I,2020-0188,2020-05-07,21:49:17,22:23:23,NA,incomplete,138,number,1,left,Blue_Plus_Stripes_3.jpg,Red_Triangle_Chess_3.jpg,Blue_Circle_Dots_1.jpg,left,558.3199999528006,true,low,NA,NA,NA,NA,NA,NA,NA,false
FVGCyN3I,3b6f54kms5pu5knddy3sw9ki4gws13,3txd01zld8utzgaugnmwys50kk8u4x,FVGCyN3I,2020-0188,2020-05-07,21:49:17,22:23:23,NA,incomplete,139,number,0,left,Purple_Star_Dots_3.jpg,Green_Triangle_Stripes_3.jpg,Purple_Circle_Grid_4.jpg,left,676.3100000098348,true,low,NA,NA,NA,NA,NA,NA,NA,false
FVGCyN3I,3b6f54kms5pu5knddy3sw9ki4gws13,3txd01zld8utzgaugnmwys50kk8u4x,FVGCyN3I,2020-0188,2020-05-07,21:49:17,22:23:23,NA,incomplete,140,color,1,left,Red_Plus_Chess_2.jpg,Red_Star_Grid_1.jpg,Purple_Circle_Stripes_2.jpg,left,750.0399999553338,true,low,NA,NA,NA,NA,NA,NA,NA,false
FVGCyN3I,3b6f54kms5pu5knddy3sw9ki4gws13,3txd01zld8utzgaugnmwys50kk8u4x,FVGCyN3I,2020-0188,2020-05-07,21:49:17,22:23:23,NA,incomplete,141,color,1,left,Red_Star_Stripes_1.jpg,Red_Circle_Chess_3.jpg,Purple_Plus_Dots_1.jpg,left,491.08499998692423,true,low,NA,NA,NA,NA,NA,NA,NA,false
FVGCyN3I,3b6f54kms5pu5knddy3sw9ki4gws13,3txd01zld8utzgaugnmwys50kk8u4x,FVGCyN3I,2020-0188,2020-05-07,21:49:17,22:23:23,NA,incomplete,142,color,1,right,Red_Circle_Dots_4.jpg,Blue_Star_Stripes_4.jpg,Red_Plus_Grid_2.jpg,right,613.6100000003353,true,low,NA,NA,NA,NA,NA,NA,NA,false
FVGCyN3I,3b6f54kms5pu5knddy3sw9ki4gws13,3txd01zld8utzgaugnmwys50kk8u4x,FVGCyN3I,2020-0188,2020-05-07,21:49:17,22:23:23,NA,incomplete,143,color,1,right,Red_Plus_Chess_1.jpg,Green_Circle_Dots_1.jpg,Red_Triangle_Stripes_4.jpg,right,466.2450000178069,true,low,NA,NA,NA,NA,NA,NA,NA,false
FVGCyN3I,3b6f54kms5pu5knddy3sw9ki4gws13,3txd01zld8utzgaugnmwys50kk8u4x,FVGCyN3I,2020-0188,2020-05-07,21:49:17,22:23:23,NA,incomplete,144,color,0,right,Green_Triangle_Dots_4.jpg,Blue_Star_Stripes_4.jpg,Green_Circle_Chess_1.jpg,right,940.1099999668077,true,low,NA,NA,NA,NA,NA,NA,NA,false
FVGCyN3I,3b6f54kms5pu5knddy3sw9ki4gws13,3txd01zld8utzgaugnmwys50kk8u4x,FVGCyN3I,2020-0188,2020-05-07,21:49:17,22:23:23,NA,incomplete,145,color,1,right,Green_Plus_Chess_1.jpg,Blue_Star_Stripes_1.jpg,Green_Triangle_Grid_2.jpg,right,554.8849999904633,true,low,NA,NA,NA,NA,NA,NA,NA,false
FVGCyN3I,3b6f54kms5pu5knddy3sw9ki4gws13,3txd01zld8utzgaugnmwys50kk8u4x,FVGCyN3I,2020-0188,2020-05-07,21:49:17,22:23:23,NA,incomplete,146,color,1,left,Blue_Circle_Stripes_4.jpg,Blue_Plus_Chess_3.jpg,Red_Triangle_Dots_4.jpg,left,705.089999944903,true,low,NA,NA,NA,NA,NA,NA,NA,false
FVGCyN3I,3b6f54kms5pu5knddy3sw9ki4gws13,3txd01zld8utzgaugnmwys50kk8u4x,FVGCyN3I,2020-0188,2020-05-07,21:49:17,22:23:23,NA,incomplete,147,color,1,right,Blue_Circle_Dots_3.jpg,Purple_Triangle_Stripes_3.jpg,Blue_Star_Chess_4.jpg,right,481.3099999446422,true,low,NA,NA,NA,NA,NA,NA,NA,false
FVGCyN3I,3b6f54kms5pu5knddy3sw9ki4gws13,3txd01zld8utzgaugnmwys50kk8u4x,FVGCyN3I,2020-0188,2020-05-07,21:49:17,22:23:23,NA,incomplete,148,color,0,right,Red_Star_Chess_1.jpg,Green_Triangle_Dots_1.jpg,Red_Plus_Grid_3.jpg,right,499.18499996419996,true,low,NA,NA,NA,NA,NA,NA,NA,false
FVGCyN3I,3b6f54kms5pu5knddy3sw9ki4gws13,3txd01zld8utzgaugnmwys50kk8u4x,FVGCyN3I,2020-0188,2020-05-07,21:49:17,22:23:23,NA,incomplete,149,color,1,right,Green_Triangle_Stripes_4.jpg,Red_Star_Dots_4.jpg,Green_Plus_Grid_3.jpg,right,547.8150000562891,true,low,NA,NA,NA,NA,NA,NA,NA,false
FVGCyN3I,3b6f54kms5pu5knddy3sw9ki4gws13,3txd01zld8utzgaugnmwys50kk8u4x,FVGCyN3I,2020-0188,2020-05-07,21:49:17,22:23:23,NA,incomplete,150,color,1,right,Green_Circle_Dots_4.jpg,Purple_Plus_Chess_4.jpg,Green_Triangle_Grid_1.jpg,right,498.77499998547137,true,low,NA,NA,NA,NA,NA,NA,NA,false
FVGCyN3I,3b6f54kms5pu5knddy3sw9ki4gws13,3txd01zld8utzgaugnmwys50kk8u4x,FVGCyN3I,2020-0188,2020-05-07,21:49:17,22:23:23,NA,incomplete,151,color,1,left,Blue_Triangle_Chess_1.jpg,Blue_Circle_Stripes_2.jpg,Green_Star_Dots_1.jpg,left,651.6099999425933,true,low,NA,NA,NA,NA,NA,NA,NA,false
FVGCyN3I,3b6f54kms5pu5knddy3sw9ki4gws13,3txd01zld8utzgaugnmwys50kk8u4x,FVGCyN3I,2020-0188,2020-05-07,21:49:17,22:23:23,NA,incomplete,152,color,1,left,Green_Circle_Grid_1.jpg,Green_Star_Stripes_2.jpg,Purple_Plus_Dots_1.jpg,left,509.74999996833503,true,low,NA,NA,NA,NA,NA,NA,NA,false
FVGCyN3I,3b6f54kms5pu5knddy3sw9ki4gws13,3txd01zld8utzgaugnmwys50kk8u4x,FVGCyN3I,2020-0188,2020-05-07,21:49:17,22:23:23,NA,incomplete,153,color,0,right,Red_Triangle_Stripes_2.jpg,Purple_Circle_Dots_2.jpg,Red_Plus_Chess_1.jpg,right,654.2549999430776,true,low,NA,NA,NA,NA,NA,NA,NA,false
FVGCyN3I,3b6f54kms5pu5knddy3sw9ki4gws13,3txd01zld8utzgaugnmwys50kk8u4x,FVGCyN3I,2020-0188,2020-05-07,21:49:17,22:23:23,NA,incomplete,154,color,1,left,Red_Circle_Chess_2.jpg,Red_Plus_Stripes_3.jpg,Blue_Star_Grid_2.jpg,left,688.1750000175089,true,low,NA,NA,NA,NA,NA,NA,NA,false
FVGCyN3I,3b6f54kms5pu5knddy3sw9ki4gws13,3txd01zld8utzgaugnmwys50kk8u4x,FVGCyN3I,2020-0188,2020-05-07,21:49:17,22:23:23,NA,incomplete,155,color,1,left,Blue_Circle_Chess_1.jpg,Blue_Triangle_Dots_2.jpg,Red_Plus_Grid_1.jpg,left,568.9100000308827,true,low,NA,NA,NA,NA,NA,NA,NA,false
FVGCyN3I,3b6f54kms5pu5knddy3sw9ki4gws13,3txd01zld8utzgaugnmwys50kk8u4x,FVGCyN3I,2020-0188,2020-05-07,21:49:17,22:23:23,NA,incomplete,156,color,0,right,Purple_Plus_Grid_4.jpg,Blue_Star_Chess_4.jpg,Purple_Triangle_Stripes_3.jpg,right,590.8549999585375,true,low,NA,NA,NA,NA,NA,NA,NA,false
FVGCyN3I,3b6f54kms5pu5knddy3sw9ki4gws13,3txd01zld8utzgaugnmwys50kk8u4x,FVGCyN3I,2020-0188,2020-05-07,21:49:17,22:23:23,NA,incomplete,157,color,1,right,Green_Circle_Stripes_1.jpg,Red_Star_Dots_1.jpg,Green_Triangle_Grid_4.jpg,right,659.5049999887124,true,low,NA,NA,NA,NA,NA,NA,NA,false
FVGCyN3I,3b6f54kms5pu5knddy3sw9ki4gws13,3txd01zld8utzgaugnmwys50kk8u4x,FVGCyN3I,2020-0188,2020-05-07,21:49:17,22:23:23,NA,incomplete,158,color,1,right,Green_Star_Chess_4.jpg,Purple_Plus_Stripes_4.jpg,Green_Circle_Dots_2.jpg,right,413.97499991580844,true,low,NA,NA,NA,NA,NA,NA,NA,false
FVGCyN3I,3b6f54kms5pu5knddy3sw9ki4gws13,3txd01zld8utzgaugnmwys50kk8u4x,FVGCyN3I,2020-0188,2020-05-07,21:49:17,22:23:23,NA,incomplete,159,color,0,right,Blue_Circle_Chess_2.jpg,Purple_Star_Stripes_2.jpg,Blue_Plus_Dots_1.jpg,right,538.230000063777,true,low,NA,NA,NA,NA,NA,NA,NA,false
FVGCyN3I,3b6f54kms5pu5knddy3sw9ki4gws13,3txd01zld8utzgaugnmwys50kk8u4x,FVGCyN3I,2020-0188,2020-05-07,21:49:17,22:23:23,NA,incomplete,160,number,1,right,Green_Star_Grid_3.jpg,Green_Triangle_Stripes_1.jpg,Blue_Plus_Dots_3.jpg,left,680.8449999662116,false,low,NA,NA,NA,NA,NA,NA,NA,false
FVGCyN3I,3b6f54kms5pu5knddy3sw9ki4gws13,3txd01zld8utzgaugnmwys50kk8u4x,FVGCyN3I,2020-0188,2020-05-07,21:49:17,22:23:23,NA,incomplete,161,number,1,left,Green_Circle_Stripes_1.jpg,Blue_Plus_Chess_1.jpg,Green_Triangle_Grid_2.jpg,right,554.3300000717863,false,low,NA,NA,NA,NA,NA,NA,NA,false
FVGCyN3I,3b6f54kms5pu5knddy3sw9ki4gws13,3txd01zld8utzgaugnmwys50kk8u4x,FVGCyN3I,2020-0188,2020-05-07,21:49:17,22:23:23,NA,incomplete,162,number,1,left,Green_Circle_Dots_1.jpg,Purple_Plus_Stripes_1.jpg,Green_Star_Grid_3.jpg,left,600.6950000301003,true,low,NA,NA,NA,NA,NA,NA,NA,false
FVGCyN3I,3b6f54kms5pu5knddy3sw9ki4gws13,3txd01zld8utzgaugnmwys50kk8u4x,FVGCyN3I,2020-0188,2020-05-07,21:49:17,22:23:23,NA,incomplete,163,number,1,right,Purple_Plus_Stripes_4.jpg,Purple_Circle_Chess_2.jpg,Green_Star_Grid_4.jpg,right,773.0549999978393,true,low,NA,NA,NA,NA,NA,NA,NA,false
FVGCyN3I,3b6f54kms5pu5knddy3sw9ki4gws13,3txd01zld8utzgaugnmwys50kk8u4x,FVGCyN3I,2020-0188,2020-05-07,21:49:17,22:23:23,NA,incomplete,164,number,1,left,Green_Star_Chess_2.jpg,Blue_Triangle_Stripes_2.jpg,Green_Circle_Dots_1.jpg,left,634.3700001016259,true,low,NA,NA,NA,NA,NA,NA,NA,false
FVGCyN3I,3b6f54kms5pu5knddy3sw9ki4gws13,3txd01zld8utzgaugnmwys50kk8u4x,FVGCyN3I,2020-0188,2020-05-07,21:49:17,22:23:23,NA,incomplete,165,number,1,left,Purple_Circle_Grid_2.jpg,Red_Triangle_Dots_2.jpg,Purple_Star_Chess_4.jpg,left,621.4400000171736,true,low,NA,NA,NA,NA,NA,NA,NA,false
FVGCyN3I,3b6f54kms5pu5knddy3sw9ki4gws13,3txd01zld8utzgaugnmwys50kk8u4x,FVGCyN3I,2020-0188,2020-05-07,21:49:17,22:23:23,NA,incomplete,166,number,1,right,Purple_Circle_Dots_3.jpg,Purple_Triangle_Grid_2.jpg,Blue_Plus_Stripes_3.jpg,right,792.6899999147281,true,low,NA,NA,NA,NA,NA,NA,NA,false
FVGCyN3I,3b6f54kms5pu5knddy3sw9ki4gws13,3txd01zld8utzgaugnmwys50kk8u4x,FVGCyN3I,2020-0188,2020-05-07,21:49:17,22:23:23,NA,incomplete,167,number,0,left,Green_Triangle_Stripes_1.jpg,Red_Star_Grid_1.jpg,Green_Circle_Chess_4.jpg,left,597.8899999754503,true,low,NA,NA,NA,NA,NA,NA,NA,false
FVGCyN3I,3b6f54kms5pu5knddy3sw9ki4gws13,3txd01zld8utzgaugnmwys50kk8u4x,FVGCyN3I,2020-0188,2020-05-07,21:49:17,22:23:23,NA,incomplete,168,number,1,left,Green_Circle_Dots_1.jpg,Blue_Triangle_Stripes_1.jpg,Green_Star_Chess_2.jpg,left,642.9899999639019,true,low,NA,NA,NA,NA,NA,NA,NA,false
FVGCyN3I,3b6f54kms5pu5knddy3sw9ki4gws13,3txd01zld8utzgaugnmwys50kk8u4x,FVGCyN3I,2020-0188,2020-05-07,21:49:17,22:23:23,NA,incomplete,169,number,1,right,Purple_Triangle_Chess_3.jpg,Purple_Circle_Dots_2.jpg,Green_Plus_Stripes_3.jpg,right,677.5099999504164,true,low,NA,NA,NA,NA,NA,NA,NA,false
FVGCyN3I,3b6f54kms5pu5knddy3sw9ki4gws13,3txd01zld8utzgaugnmwys50kk8u4x,FVGCyN3I,2020-0188,2020-05-07,21:49:17,22:23:23,NA,incomplete,170,number,1,left,Green_Plus_Stripes_2.jpg,Blue_Triangle_Dots_2.jpg,Green_Circle_Chess_1.jpg,left,687.2150000417605,true,low,NA,NA,NA,NA,NA,NA,NA,false
FVGCyN3I,3b6f54kms5pu5knddy3sw9ki4gws13,3txd01zld8utzgaugnmwys50kk8u4x,FVGCyN3I,2020-0188,2020-05-07,21:49:17,22:23:23,NA,incomplete,171,number,0,left,Blue_Plus_Stripes_3.jpg,Red_Star_Dots_3.jpg,Blue_Triangle_Grid_2.jpg,left,719.9849999742582,true,low,NA,NA,NA,NA,NA,NA,NA,false
FVGCyN3I,3b6f54kms5pu5knddy3sw9ki4gws13,3txd01zld8utzgaugnmwys50kk8u4x,FVGCyN3I,2020-0188,2020-05-07,21:49:17,22:23:23,NA,incomplete,172,number,1,left,Purple_Circle_Grid_4.jpg,Red_Plus_Dots_4.jpg,Purple_Triangle_Stripes_1.jpg,right,967.4899999517947,false,low,NA,NA,NA,NA,NA,NA,NA,false
FVGCyN3I,3b6f54kms5pu5knddy3sw9ki4gws13,3txd01zld8utzgaugnmwys50kk8u4x,FVGCyN3I,2020-0188,2020-05-07,21:49:17,22:23:23,NA,incomplete,173,number,1,left,Purple_Circle_Grid_3.jpg,Green_Star_Stripes_3.jpg,Purple_Triangle_Chess_1.jpg,left,741.9100000988692,true,low,NA,NA,NA,NA,NA,NA,NA,false
FVGCyN3I,3b6f54kms5pu5knddy3sw9ki4gws13,3txd01zld8utzgaugnmwys50kk8u4x,FVGCyN3I,2020-0188,2020-05-07,21:49:17,22:23:23,NA,incomplete,174,number,1,right,Red_Star_Grid_3.jpg,Red_Plus_Stripes_4.jpg,Green_Triangle_Chess_3.jpg,right,1036.9150000624359,true,low,NA,NA,NA,NA,NA,NA,NA,false
FVGCyN3I,3b6f54kms5pu5knddy3sw9ki4gws13,3txd01zld8utzgaugnmwys50kk8u4x,FVGCyN3I,2020-0188,2020-05-07,21:49:17,22:23:23,NA,incomplete,175,number,1,left,Green_Star_Grid_4.jpg,Blue_Plus_Dots_4.jpg,Green_Triangle_Stripes_3.jpg,right,871.6649999842048,false,low,NA,NA,NA,NA,NA,NA,NA,false
FVGCyN3I,3b6f54kms5pu5knddy3sw9ki4gws13,3txd01zld8utzgaugnmwys50kk8u4x,FVGCyN3I,2020-0188,2020-05-07,21:49:17,22:23:23,NA,incomplete,176,number,0,right,Red_Plus_Dots_2.jpg,Red_Star_Chess_4.jpg,Purple_Triangle_Stripes_2.jpg,right,953.3949999604374,true,low,NA,NA,NA,NA,NA,NA,NA,false
FVGCyN3I,3b6f54kms5pu5knddy3sw9ki4gws13,3txd01zld8utzgaugnmwys50kk8u4x,FVGCyN3I,2020-0188,2020-05-07,21:49:17,22:23:23,NA,incomplete,177,number,1,right,Red_Plus_Stripes_2.jpg,Red_Star_Chess_4.jpg,Blue_Triangle_Dots_2.jpg,left,1224.0400000009686,false,low,NA,NA,NA,NA,NA,NA,NA,false
FVGCyN3I,3b6f54kms5pu5knddy3sw9ki4gws13,3txd01zld8utzgaugnmwys50kk8u4x,FVGCyN3I,2020-0188,2020-05-07,21:49:17,22:23:23,NA,incomplete,178,number,1,right,Blue_Circle_Chess_2.jpg,Blue_Triangle_Dots_1.jpg,Green_Star_Grid_2.jpg,right,683.1999999703839,true,low,NA,NA,NA,NA,NA,NA,NA,false
FVGCyN3I,3b6f54kms5pu5knddy3sw9ki4gws13,3txd01zld8utzgaugnmwys50kk8u4x,FVGCyN3I,2020-0188,2020-05-07,21:49:17,22:23:23,NA,incomplete,179,number,1,right,Blue_Plus_Stripes_2.jpg,Blue_Star_Dots_1.jpg,Red_Circle_Grid_2.jpg,right,604.6499999938533,true,low,NA,NA,NA,NA,NA,NA,NA,false
FVGCyN3I,3b6f54kms5pu5knddy3sw9ki4gws13,3txd01zld8utzgaugnmwys50kk8u4x,FVGCyN3I,2020-0188,2020-05-07,21:49:17,22:23:23,NA,incomplete,180,color,0,right,Purple_Plus_Dots_2.jpg,Green_Circle_Stripes_2.jpg,Purple_Triangle_Chess_4.jpg,left,904.9400000367314,false,low,NA,NA,NA,NA,NA,NA,NA,false
FVGCyN3I,3b6f54kms5pu5knddy3sw9ki4gws13,3txd01zld8utzgaugnmwys50kk8u4x,FVGCyN3I,2020-0188,2020-05-07,21:49:17,22:23:23,NA,incomplete,181,color,1,left,Blue_Star_Chess_3.jpg,Blue_Circle_Stripes_1.jpg,Purple_Triangle_Dots_3.jpg,right,985.1600000401959,false,low,NA,NA,NA,NA,NA,NA,NA,false
FVGCyN3I,3b6f54kms5pu5knddy3sw9ki4gws13,3txd01zld8utzgaugnmwys50kk8u4x,FVGCyN3I,2020-0188,2020-05-07,21:49:17,22:23:23,NA,incomplete,182,color,1,right,Red_Star_Stripes_3.jpg,Purple_Triangle_Dots_3.jpg,Red_Circle_Grid_4.jpg,left,790.379999903962,false,low,NA,NA,NA,NA,NA,NA,NA,false
FVGCyN3I,3b6f54kms5pu5knddy3sw9ki4gws13,3txd01zld8utzgaugnmwys50kk8u4x,FVGCyN3I,2020-0188,2020-05-07,21:49:17,22:23:23,NA,incomplete,183,color,1,left,Green_Circle_Stripes_2.jpg,Green_Plus_Dots_1.jpg,Red_Triangle_Chess_2.jpg,left,603.0300001148134,true,low,NA,NA,NA,NA,NA,NA,NA,false
FVGCyN3I,3b6f54kms5pu5knddy3sw9ki4gws13,3txd01zld8utzgaugnmwys50kk8u4x,FVGCyN3I,2020-0188,2020-05-07,21:49:17,22:23:23,NA,incomplete,184,color,1,left,Red_Star_Stripes_1.jpg,Red_Plus_Dots_2.jpg,Green_Triangle_Chess_1.jpg,left,743.4749999083579,true,low,NA,NA,NA,NA,NA,NA,NA,false
FVGCyN3I,3b6f54kms5pu5knddy3sw9ki4gws13,3txd01zld8utzgaugnmwys50kk8u4x,FVGCyN3I,2020-0188,2020-05-07,21:49:17,22:23:23,NA,incomplete,185,color,0,left,Blue_Plus_Grid_3.jpg,Blue_Circle_Dots_2.jpg,Purple_Triangle_Stripes_3.jpg,left,774.0850000409409,true,low,NA,NA,NA,NA,NA,NA,NA,false
FVGCyN3I,3b6f54kms5pu5knddy3sw9ki4gws13,3txd01zld8utzgaugnmwys50kk8u4x,FVGCyN3I,2020-0188,2020-05-07,21:49:17,22:23:23,NA,incomplete,186,color,1,right,Blue_Star_Grid_3.jpg,Red_Circle_Stripes_3.jpg,Blue_Triangle_Chess_4.jpg,right,875.8549999911338,true,low,NA,NA,NA,NA,NA,NA,NA,false
FVGCyN3I,3b6f54kms5pu5knddy3sw9ki4gws13,3txd01zld8utzgaugnmwys50kk8u4x,FVGCyN3I,2020-0188,2020-05-07,21:49:17,22:23:23,NA,incomplete,187,color,0,left,Blue_Plus_Dots_4.jpg,Blue_Triangle_Chess_2.jpg,Purple_Circle_Grid_4.jpg,left,1005.765000008978,true,low,NA,NA,NA,NA,NA,NA,NA,false
FVGCyN3I,3b6f54kms5pu5knddy3sw9ki4gws13,3txd01zld8utzgaugnmwys50kk8u4x,FVGCyN3I,2020-0188,2020-05-07,21:49:17,22:23:23,NA,incomplete,188,color,1,right,Blue_Circle_Dots_3.jpg,Green_Triangle_Stripes_3.jpg,Blue_Plus_Grid_2.jpg,left,673.7399999983609,false,low,NA,NA,NA,NA,NA,NA,NA,false
FVGCyN3I,3b6f54kms5pu5knddy3sw9ki4gws13,3txd01zld8utzgaugnmwys50kk8u4x,FVGCyN3I,2020-0188,2020-05-07,21:49:17,22:23:23,NA,incomplete,189,color,1,left,Purple_Triangle_Grid_4.jpg,Purple_Plus_Chess_1.jpg,Blue_Circle_Stripes_4.jpg,left,891.1899999948218,true,low,NA,NA,NA,NA,NA,NA,NA,false
FVGCyN3I,3b6f54kms5pu5knddy3sw9ki4gws13,3txd01zld8utzgaugnmwys50kk8u4x,FVGCyN3I,2020-0188,2020-05-07,21:49:17,22:23:23,NA,incomplete,190,color,1,right,Purple_Triangle_Dots_3.jpg,Blue_Plus_Grid_3.jpg,Purple_Star_Chess_2.jpg,right,668.0750000523403,true,low,NA,NA,NA,NA,NA,NA,NA,false
FVGCyN3I,3b6f54kms5pu5knddy3sw9ki4gws13,3txd01zld8utzgaugnmwys50kk8u4x,FVGCyN3I,2020-0188,2020-05-07,21:49:17,22:23:23,NA,incomplete,191,color,1,right,Purple_Star_Chess_4.jpg,Green_Plus_Stripes_4.jpg,Purple_Circle_Grid_3.jpg,right,541.5700000012293,true,low,NA,NA,NA,NA,NA,NA,NA,false
FVGCyN3I,3b6f54kms5pu5knddy3sw9ki4gws13,3txd01zld8utzgaugnmwys50kk8u4x,FVGCyN3I,2020-0188,2020-05-07,21:49:17,22:23:23,NA,incomplete,192,color,1,left,Green_Triangle_Dots_3.jpg,Green_Star_Grid_2.jpg,Purple_Circle_Chess_3.jpg,left,924.7600000817329,true,low,NA,NA,NA,NA,NA,NA,NA,false
FVGCyN3I,3b6f54kms5pu5knddy3sw9ki4gws13,3txd01zld8utzgaugnmwys50kk8u4x,FVGCyN3I,2020-0188,2020-05-07,21:49:17,22:23:23,NA,incomplete,193,color,1,right,Red_Circle_Chess_3.jpg,Blue_Star_Dots_3.jpg,Red_Plus_Stripes_2.jpg,right,515.8749999245629,true,low,NA,NA,NA,NA,NA,NA,NA,false
FVGCyN3I,3b6f54kms5pu5knddy3sw9ki4gws13,3txd01zld8utzgaugnmwys50kk8u4x,FVGCyN3I,2020-0188,2020-05-07,21:49:17,22:23:23,NA,incomplete,194,color,0,right,Red_Triangle_Chess_1.jpg,Green_Star_Dots_1.jpg,Red_Plus_Stripes_3.jpg,right,484.00000005494803,true,low,NA,NA,NA,NA,NA,NA,NA,false
FVGCyN3I,3b6f54kms5pu5knddy3sw9ki4gws13,3txd01zld8utzgaugnmwys50kk8u4x,FVGCyN3I,2020-0188,2020-05-07,21:49:17,22:23:23,NA,incomplete,195,color,1,right,Purple_Star_Stripes_3.jpg,Green_Circle_Grid_3.jpg,Purple_Triangle_Chess_1.jpg,right,709.0300000272691,true,low,NA,NA,NA,NA,NA,NA,NA,false
FVGCyN3I,3b6f54kms5pu5knddy3sw9ki4gws13,3txd01zld8utzgaugnmwys50kk8u4x,FVGCyN3I,2020-0188,2020-05-07,21:49:17,22:23:23,NA,incomplete,196,color,1,left,Green_Plus_Stripes_4.jpg,Green_Star_Grid_3.jpg,Purple_Circle_Dots_4.jpg,left,613.3400000398979,true,low,NA,NA,NA,NA,NA,NA,NA,false
FVGCyN3I,3b6f54kms5pu5knddy3sw9ki4gws13,3txd01zld8utzgaugnmwys50kk8u4x,FVGCyN3I,2020-0188,2020-05-07,21:49:17,22:23:23,NA,incomplete,197,color,1,right,Red_Circle_Grid_1.jpg,Green_Triangle_Chess_1.jpg,Red_Plus_Stripes_4.jpg,right,705.8299999916926,true,low,NA,NA,NA,NA,NA,NA,NA,false
FVGCyN3I,3b6f54kms5pu5knddy3sw9ki4gws13,3txd01zld8utzgaugnmwys50kk8u4x,FVGCyN3I,2020-0188,2020-05-07,21:49:17,22:23:23,NA,incomplete,198,color,1,left,Blue_Triangle_Stripes_4.jpg,Blue_Plus_Chess_3.jpg,Red_Star_Grid_4.jpg,left,649.9649999896064,true,low,NA,NA,NA,NA,NA,NA,NA,false
FVGCyN3I,3b6f54kms5pu5knddy3sw9ki4gws13,3txd01zld8utzgaugnmwys50kk8u4x,FVGCyN3I,2020-0188,2020-05-07,21:49:17,22:23:23,NA,incomplete,199,color,1,left,Blue_Star_Stripes_2.jpg,Blue_Plus_Dots_4.jpg,Green_Circle_Chess_2.jpg,left,636.5099999820814,true,low,NA,NA,NA,NA,NA,NA,NA,false
FVGCyN3I,3b6f54kms5pu5knddy3sw9ki4gws13,3txd01zld8utzgaugnmwys50kk8u4x,FVGCyN3I,2020-0188,2020-05-07,21:49:17,22:23:23,NA,incomplete,200,number,1,left,Red_Star_Dots_4.jpg,Purple_Plus_Stripes_4.jpg,Red_Circle_Chess_3.jpg,right,497.0800000010058,false,low,NA,NA,NA,NA,NA,NA,NA,false
FVGCyN3I,3b6f54kms5pu5knddy3sw9ki4gws13,3txd01zld8utzgaugnmwys50kk8u4x,FVGCyN3I,2020-0188,2020-05-07,21:49:17,22:23:23,NA,incomplete,201,number,1,right,Red_Star_Stripes_1.jpg,Red_Circle_Chess_4.jpg,Blue_Plus_Dots_1.jpg,right,1016.6949999984354,true,low,NA,NA,NA,NA,NA,NA,NA,false
FVGCyN3I,3b6f54kms5pu5knddy3sw9ki4gws13,3txd01zld8utzgaugnmwys50kk8u4x,FVGCyN3I,2020-0188,2020-05-07,21:49:17,22:23:23,NA,incomplete,202,number,1,right,Purple_Star_Chess_1.jpg,Purple_Triangle_Stripes_3.jpg,Red_Plus_Dots_1.jpg,right,637.1249998919666,true,low,NA,NA,NA,NA,NA,NA,NA,false
FVGCyN3I,3b6f54kms5pu5knddy3sw9ki4gws13,3txd01zld8utzgaugnmwys50kk8u4x,FVGCyN3I,2020-0188,2020-05-07,21:49:17,22:23:23,NA,incomplete,203,number,0,right,Blue_Circle_Chess_1.jpg,Blue_Plus_Stripes_2.jpg,Red_Triangle_Grid_1.jpg,right,551.5699998941272,true,low,NA,NA,NA,NA,NA,NA,NA,false
FVGCyN3I,3b6f54kms5pu5knddy3sw9ki4gws13,3txd01zld8utzgaugnmwys50kk8u4x,FVGCyN3I,2020-0188,2020-05-07,21:49:17,22:23:23,NA,incomplete,204,number,1,right,Purple_Triangle_Stripes_3.jpg,Purple_Plus_Dots_1.jpg,Blue_Star_Grid_3.jpg,right,1317.7900000009686,true,low,NA,NA,NA,NA,NA,NA,NA,false
FVGCyN3I,3b6f54kms5pu5knddy3sw9ki4gws13,3txd01zld8utzgaugnmwys50kk8u4x,FVGCyN3I,2020-0188,2020-05-07,21:49:17,22:23:23,NA,incomplete,205,number,1,right,Red_Plus_Chess_3.jpg,Red_Circle_Dots_4.jpg,Purple_Triangle_Grid_3.jpg,right,613.3699999190867,true,low,NA,NA,NA,NA,NA,NA,NA,false
FVGCyN3I,3b6f54kms5pu5knddy3sw9ki4gws13,3txd01zld8utzgaugnmwys50kk8u4x,FVGCyN3I,2020-0188,2020-05-07,21:49:17,22:23:23,NA,incomplete,206,number,1,right,Red_Plus_Stripes_1.jpg,Red_Star_Dots_3.jpg,Purple_Triangle_Grid_1.jpg,right,1225.8200000505894,true,low,NA,NA,NA,NA,NA,NA,NA,false
FVGCyN3I,3b6f54kms5pu5knddy3sw9ki4gws13,3txd01zld8utzgaugnmwys50kk8u4x,FVGCyN3I,2020-0188,2020-05-07,21:49:17,22:23:23,NA,incomplete,207,number,1,right,Red_Star_Chess_2.jpg,Red_Plus_Grid_4.jpg,Green_Circle_Stripes_2.jpg,right,709.5650000264868,true,low,NA,NA,NA,NA,NA,NA,NA,false
FVGCyN3I,3b6f54kms5pu5knddy3sw9ki4gws13,3txd01zld8utzgaugnmwys50kk8u4x,FVGCyN3I,2020-0188,2020-05-07,21:49:17,22:23:23,NA,incomplete,208,number,1,left,Red_Circle_Grid_3.jpg,Purple_Plus_Stripes_3.jpg,Red_Star_Dots_1.jpg,right,677.6250000111759,false,low,NA,NA,NA,NA,NA,NA,NA,false
FVGCyN3I,3b6f54kms5pu5knddy3sw9ki4gws13,3txd01zld8utzgaugnmwys50kk8u4x,FVGCyN3I,2020-0188,2020-05-07,21:49:17,22:23:23,NA,incomplete,209,number,1,left,Red_Circle_Grid_3.jpg,Blue_Plus_Chess_3.jpg,Red_Star_Stripes_1.jpg,left,647.1850000089034,true,low,NA,NA,NA,NA,NA,NA,NA,false
FVGCyN3I,3b6f54kms5pu5knddy3sw9ki4gws13,3txd01zld8utzgaugnmwys50kk8u4x,FVGCyN3I,2020-0188,2020-05-07,21:49:17,22:23:23,NA,incomplete,210,number,1,left,Green_Plus_Dots_4.jpg,Blue_Triangle_Stripes_4.jpg,Green_Star_Chess_1.jpg,left,913.9450000366196,true,low,NA,NA,NA,NA,NA,NA,NA,false
FVGCyN3I,3b6f54kms5pu5knddy3sw9ki4gws13,3txd01zld8utzgaugnmwys50kk8u4x,FVGCyN3I,2020-0188,2020-05-07,21:49:17,22:23:23,NA,incomplete,211,number,1,left,Red_Star_Dots_2.jpg,Blue_Circle_Stripes_2.jpg,Red_Triangle_Grid_3.jpg,left,930.2250000182539,true,low,NA,NA,NA,NA,NA,NA,NA,false
FVGCyN3I,3b6f54kms5pu5knddy3sw9ki4gws13,3txd01zld8utzgaugnmwys50kk8u4x,FVGCyN3I,2020-0188,2020-05-07,21:49:17,22:23:23,NA,incomplete,212,number,1,right,Purple_Star_Stripes_1.jpg,Purple_Circle_Dots_3.jpg,Blue_Triangle_Chess_1.jpg,right,690.1949999155477,true,low,NA,NA,NA,NA,NA,NA,NA,false
FVGCyN3I,3b6f54kms5pu5knddy3sw9ki4gws13,3txd01zld8utzgaugnmwys50kk8u4x,FVGCyN3I,2020-0188,2020-05-07,21:49:17,22:23:23,NA,incomplete,213,number,1,right,Green_Circle_Dots_4.jpg,Green_Triangle_Grid_3.jpg,Blue_Plus_Chess_4.jpg,right,746.7450000112876,true,low,NA,NA,NA,NA,NA,NA,NA,false
FVGCyN3I,3b6f54kms5pu5knddy3sw9ki4gws13,3txd01zld8utzgaugnmwys50kk8u4x,FVGCyN3I,2020-0188,2020-05-07,21:49:17,22:23:23,NA,incomplete,214,number,0,right,Blue_Star_Stripes_2.jpg,Blue_Triangle_Chess_3.jpg,Red_Plus_Dots_2.jpg,right,697.7999999653548,true,low,NA,NA,NA,NA,NA,NA,NA,false
FVGCyN3I,3b6f54kms5pu5knddy3sw9ki4gws13,3txd01zld8utzgaugnmwys50kk8u4x,FVGCyN3I,2020-0188,2020-05-07,21:49:17,22:23:23,NA,incomplete,215,number,1,right,Green_Triangle_Chess_1.jpg,Green_Star_Grid_4.jpg,Purple_Circle_Dots_1.jpg,left,514.5250000059605,false,low,NA,NA,NA,NA,NA,NA,NA,false
FVGCyN3I,3b6f54kms5pu5knddy3sw9ki4gws13,3txd01zld8utzgaugnmwys50kk8u4x,FVGCyN3I,2020-0188,2020-05-07,21:49:17,22:23:23,NA,incomplete,216,number,1,left,Red_Circle_Stripes_1.jpg,Green_Plus_Dots_1.jpg,Red_Triangle_Chess_2.jpg,left,618.6049999669194,true,low,NA,NA,NA,NA,NA,NA,NA,false
FVGCyN3I,3b6f54kms5pu5knddy3sw9ki4gws13,3txd01zld8utzgaugnmwys50kk8u4x,FVGCyN3I,2020-0188,2020-05-07,21:49:17,22:23:23,NA,incomplete,217,number,0,left,Red_Circle_Stripes_4.jpg,Green_Plus_Chess_4.jpg,Red_Triangle_Grid_2.jpg,left,582.410000031814,true,low,NA,NA,NA,NA,NA,NA,NA,false
FVGCyN3I,3b6f54kms5pu5knddy3sw9ki4gws13,3txd01zld8utzgaugnmwys50kk8u4x,FVGCyN3I,2020-0188,2020-05-07,21:49:17,22:23:23,NA,incomplete,218,number,1,left,Purple_Circle_Dots_4.jpg,Red_Plus_Chess_4.jpg,Purple_Triangle_Grid_1.jpg,right,635.6900000246242,false,low,NA,NA,NA,NA,NA,NA,NA,false
FVGCyN3I,3b6f54kms5pu5knddy3sw9ki4gws13,3txd01zld8utzgaugnmwys50kk8u4x,FVGCyN3I,2020-0188,2020-05-07,21:49:17,22:23:23,NA,incomplete,219,number,1,left,Green_Triangle_Chess_2.jpg,Red_Plus_Stripes_2.jpg,Green_Circle_Grid_4.jpg,left,902.8450000332668,true,low,NA,NA,NA,NA,NA,NA,NA,false
FVGCyN3I,3b6f54kms5pu5knddy3sw9ki4gws13,3txd01zld8utzgaugnmwys50kk8u4x,FVGCyN3I,2020-0188,2020-05-07,21:49:17,22:23:23,NA,incomplete,220,color,1,left,Red_Star_Chess_1.jpg,Red_Plus_Dots_2.jpg,Purple_Triangle_Grid_1.jpg,right,702.9349999502301,false,low,NA,NA,NA,NA,NA,NA,NA,false
FVGCyN3I,3b6f54kms5pu5knddy3sw9ki4gws13,3txd01zld8utzgaugnmwys50kk8u4x,FVGCyN3I,2020-0188,2020-05-07,21:49:17,22:23:23,NA,incomplete,221,color,0,left,Purple_Circle_Grid_2.jpg,Purple_Triangle_Dots_3.jpg,Red_Plus_Stripes_2.jpg,left,607.3749999050051,true,low,NA,NA,NA,NA,NA,NA,NA,false
FVGCyN3I,3b6f54kms5pu5knddy3sw9ki4gws13,3txd01zld8utzgaugnmwys50kk8u4x,FVGCyN3I,2020-0188,2020-05-07,21:49:17,22:23:23,NA,incomplete,222,color,1,right,Blue_Star_Chess_2.jpg,Red_Circle_Grid_2.jpg,Blue_Triangle_Stripes_3.jpg,left,675.7899998920038,false,low,NA,NA,NA,NA,NA,NA,NA,false
FVGCyN3I,3b6f54kms5pu5knddy3sw9ki4gws13,3txd01zld8utzgaugnmwys50kk8u4x,FVGCyN3I,2020-0188,2020-05-07,21:49:17,22:23:23,NA,incomplete,223,color,1,right,Red_Triangle_Dots_2.jpg,Blue_Plus_Chess_2.jpg,Red_Circle_Grid_4.jpg,right,693.1299999123439,true,low,NA,NA,NA,NA,NA,NA,NA,false
FVGCyN3I,3b6f54kms5pu5knddy3sw9ki4gws13,3txd01zld8utzgaugnmwys50kk8u4x,FVGCyN3I,2020-0188,2020-05-07,21:49:17,22:23:23,NA,incomplete,224,color,1,right,Blue_Star_Dots_4.jpg,Purple_Triangle_Grid_4.jpg,Blue_Circle_Stripes_1.jpg,right,661.8699999526143,true,low,NA,NA,NA,NA,NA,NA,NA,false
FVGCyN3I,3b6f54kms5pu5knddy3sw9ki4gws13,3txd01zld8utzgaugnmwys50kk8u4x,FVGCyN3I,2020-0188,2020-05-07,21:49:17,22:23:23,NA,incomplete,225,color,0,left,Purple_Circle_Stripes_2.jpg,Purple_Star_Chess_1.jpg,Blue_Triangle_Grid_2.jpg,left,624.089999939315,true,low,NA,NA,NA,NA,NA,NA,NA,false
FVGCyN3I,3b6f54kms5pu5knddy3sw9ki4gws13,3txd01zld8utzgaugnmwys50kk8u4x,FVGCyN3I,2020-0188,2020-05-07,21:49:17,22:23:23,NA,incomplete,226,color,1,right,Green_Circle_Stripes_1.jpg,Red_Plus_Chess_1.jpg,Green_Star_Dots_4.jpg,right,955.6749999755993,true,low,NA,NA,NA,NA,NA,NA,NA,false
FVGCyN3I,3b6f54kms5pu5knddy3sw9ki4gws13,3txd01zld8utzgaugnmwys50kk8u4x,FVGCyN3I,2020-0188,2020-05-07,21:49:17,22:23:23,NA,incomplete,227,color,1,left,Purple_Triangle_Dots_2.jpg,Purple_Plus_Grid_3.jpg,Blue_Star_Stripes_2.jpg,left,642.3299999441952,true,low,NA,NA,NA,NA,NA,NA,NA,false
FVGCyN3I,3b6f54kms5pu5knddy3sw9ki4gws13,3txd01zld8utzgaugnmwys50kk8u4x,FVGCyN3I,2020-0188,2020-05-07,21:49:17,22:23:23,NA,incomplete,228,color,0,right,Purple_Circle_Stripes_1.jpg,Green_Triangle_Grid_1.jpg,Purple_Plus_Chess_2.jpg,right,1004.9000000581145,true,low,NA,NA,NA,NA,NA,NA,NA,false
FVGCyN3I,3b6f54kms5pu5knddy3sw9ki4gws13,3txd01zld8utzgaugnmwys50kk8u4x,FVGCyN3I,2020-0188,2020-05-07,21:49:17,22:23:23,NA,incomplete,229,color,1,left,Purple_Circle_Dots_3.jpg,Purple_Triangle_Stripes_2.jpg,Blue_Star_Chess_3.jpg,left,657.0550000760704,true,low,NA,NA,NA,NA,NA,NA,NA,false
FVGCyN3I,3b6f54kms5pu5knddy3sw9ki4gws13,3txd01zld8utzgaugnmwys50kk8u4x,FVGCyN3I,2020-0188,2020-05-07,21:49:17,22:23:23,NA,incomplete,230,color,1,left,Purple_Triangle_Grid_3.jpg,Purple_Plus_Chess_4.jpg,Blue_Circle_Stripes_3.jpg,left,515.320000005886,true,low,NA,NA,NA,NA,NA,NA,NA,false
FVGCyN3I,3b6f54kms5pu5knddy3sw9ki4gws13,3txd01zld8utzgaugnmwys50kk8u4x,FVGCyN3I,2020-0188,2020-05-07,21:49:17,22:23:23,NA,incomplete,231,color,1,left,Green_Circle_Stripes_4.jpg,Green_Plus_Dots_3.jpg,Purple_Star_Chess_4.jpg,left,515.6349999597296,true,low,NA,NA,NA,NA,NA,NA,NA,false
FVGCyN3I,3b6f54kms5pu5knddy3sw9ki4gws13,3txd01zld8utzgaugnmwys50kk8u4x,FVGCyN3I,2020-0188,2020-05-07,21:49:17,22:23:23,NA,incomplete,232,color,1,left,Red_Triangle_Grid_2.jpg,Red_Star_Stripes_1.jpg,Green_Circle_Dots_2.jpg,left,572.1200000261888,true,low,NA,NA,NA,NA,NA,NA,NA,false
FVGCyN3I,3b6f54kms5pu5knddy3sw9ki4gws13,3txd01zld8utzgaugnmwys50kk8u4x,FVGCyN3I,2020-0188,2020-05-07,21:49:17,22:23:23,NA,incomplete,233,color,1,right,Red_Triangle_Grid_1.jpg,Green_Plus_Chess_1.jpg,Red_Circle_Dots_3.jpg,right,569.4450000301003,true,low,NA,NA,NA,NA,NA,NA,NA,false
FVGCyN3I,3b6f54kms5pu5knddy3sw9ki4gws13,3txd01zld8utzgaugnmwys50kk8u4x,FVGCyN3I,2020-0188,2020-05-07,21:49:17,22:23:23,NA,incomplete,234,color,1,left,Red_Triangle_Grid_2.jpg,Red_Plus_Dots_4.jpg,Blue_Star_Stripes_2.jpg,left,670.9249999839813,true,low,NA,NA,NA,NA,NA,NA,NA,false
FVGCyN3I,3b6f54kms5pu5knddy3sw9ki4gws13,3txd01zld8utzgaugnmwys50kk8u4x,FVGCyN3I,2020-0188,2020-05-07,21:49:17,22:23:23,NA,incomplete,235,color,1,left,Red_Plus_Dots_2.jpg,Red_Star_Grid_4.jpg,Blue_Circle_Chess_2.jpg,left,520.4849999863654,true,low,NA,NA,NA,NA,NA,NA,NA,false
FVGCyN3I,3b6f54kms5pu5knddy3sw9ki4gws13,3txd01zld8utzgaugnmwys50kk8u4x,FVGCyN3I,2020-0188,2020-05-07,21:49:17,22:23:23,NA,incomplete,236,color,1,right,Purple_Star_Chess_2.jpg,Red_Triangle_Grid_2.jpg,Purple_Circle_Stripes_3.jpg,right,543.9100000075996,true,low,NA,NA,NA,NA,NA,NA,NA,false
FVGCyN3I,3b6f54kms5pu5knddy3sw9ki4gws13,3txd01zld8utzgaugnmwys50kk8u4x,FVGCyN3I,2020-0188,2020-05-07,21:49:17,22:23:23,NA,incomplete,237,color,1,right,Blue_Circle_Chess_1.jpg,Purple_Plus_Dots_1.jpg,Blue_Triangle_Stripes_4.jpg,right,631.1350000323728,true,low,NA,NA,NA,NA,NA,NA,NA,false
FVGCyN3I,3b6f54kms5pu5knddy3sw9ki4gws13,3txd01zld8utzgaugnmwys50kk8u4x,FVGCyN3I,2020-0188,2020-05-07,21:49:17,22:23:23,NA,incomplete,238,color,0,left,Purple_Star_Stripes_4.jpg,Purple_Circle_Chess_1.jpg,Green_Triangle_Dots_4.jpg,left,610.3400000138208,true,low,NA,NA,NA,NA,NA,NA,NA,false
FVGCyN3I,3b6f54kms5pu5knddy3sw9ki4gws13,3txd01zld8utzgaugnmwys50kk8u4x,FVGCyN3I,2020-0188,2020-05-07,21:49:17,22:23:23,NA,incomplete,239,color,1,right,Red_Star_Dots_4.jpg,Green_Circle_Chess_4.jpg,Red_Triangle_Stripes_2.jpg,right,550.6000000750646,true,low,NA,NA,NA,NA,NA,NA,NA,false
FVGCyN3I,3b6f54kms5pu5knddy3sw9ki4gws13,3txd01zld8utzgaugnmwys50kk8u4x,FVGCyN3I,2020-0188,2020-05-07,21:49:17,22:23:23,1943633.514999994,2046250.1299999421,NA,NA,NA,NA,NA,NA,NA,NA,NA,NA,NA,38,White/Caucasian,Male,European,no,no,no,undefined
