workerId,hitId,assignmentId,subject,studyid,exp_date,exp_start,exp_end,time_start,time_end,trial,type,reward_validity,answer,image_top,image_left,image_right,response,response_time,response_acc,volatility,practice
czVkjAj9,3hy86pzxq1vtv1ivc3jn7sg3anve1z,3urfvvm169v92dyj1gcmsoialg7uz9,czVkjAj9,2020-0188,2020-11-14,23:36:20,23:51:15,NA,incomplete,0,number,1,left,Green_Plus_Grid_4.jpg,Blue_Triangle_Chess_4.jpg,Green_Star_Stripes_3.jpg,none,0,false,NA,true
czVkjAj9,3hy86pzxq1vtv1ivc3jn7sg3anve1z,3urfvvm169v92dyj1gcmsoialg7uz9,czVkjAj9,2020-0188,2020-11-14,23:36:20,23:51:15,NA,incomplete,1,number,1,right,Blue_Circle_Grid_3.jpg,Blue_Star_Stripes_4.jpg,Purple_Triangle_Dots_3.jpg,right,1406.97499999078,true,NA,true
czVkjAj9,3hy86pzxq1vtv1ivc3jn7sg3anve1z,3urfvvm169v92dyj1gcmsoialg7uz9,czVkjAj9,2020-0188,2020-11-14,23:36:20,23:51:15,NA,incomplete,2,number,1,right,Blue_Star_Chess_4.jpg,Blue_Plus_Dots_1.jpg,Purple_Triangle_Stripes_4.jpg,right,943.2949999463744,true,NA,true
czVkjAj9,3hy86pzxq1vtv1ivc3jn7sg3anve1z,3urfvvm169v92dyj1gcmsoialg7uz9,czVkjAj9,2020-0188,2020-11-14,23:36:20,23:51:15,NA,incomplete,3,number,0,right,Red_Circle_Chess_2.jpg,Red_Triangle_Stripes_1.jpg,Purple_Star_Dots_2.jpg,right,1410.5899999849498,true,NA,true
czVkjAj9,3hy86pzxq1vtv1ivc3jn7sg3anve1z,3urfvvm169v92dyj1gcmsoialg7uz9,czVkjAj9,2020-0188,2020-11-14,23:36:20,23:51:15,NA,incomplete,4,number,0,left,Purple_Plus_Grid_3.jpg,Green_Star_Chess_3.jpg,Purple_Triangle_Stripes_1.jpg,left,1358.879999956116,true,NA,true
czVkjAj9,3hy86pzxq1vtv1ivc3jn7sg3anve1z,3urfvvm169v92dyj1gcmsoialg7uz9,czVkjAj9,2020-0188,2020-11-14,23:36:20,23:51:15,NA,incomplete,5,number,1,left,Red_Triangle_Chess_2.jpg,Purple_Star_Dots_2.jpg,Red_Circle_Stripes_3.jpg,left,1615.410000027623,true,NA,true
czVkjAj9,3hy86pzxq1vtv1ivc3jn7sg3anve1z,3urfvvm169v92dyj1gcmsoialg7uz9,czVkjAj9,2020-0188,2020-11-14,23:36:20,23:51:15,NA,incomplete,6,number,1,right,Green_Star_Chess_4.jpg,Green_Plus_Grid_2.jpg,Purple_Circle_Stripes_4.jpg,right,1241.6150000062771,true,NA,true
czVkjAj9,3hy86pzxq1vtv1ivc3jn7sg3anve1z,3urfvvm169v92dyj1gcmsoialg7uz9,czVkjAj9,2020-0188,2020-11-14,23:36:20,23:51:15,NA,incomplete,7,number,1,left,Purple_Triangle_Stripes_1.jpg,Blue_Plus_Grid_1.jpg,Purple_Star_Chess_2.jpg,right,1360.0000000442378,false,NA,true
czVkjAj9,3hy86pzxq1vtv1ivc3jn7sg3anve1z,3urfvvm169v92dyj1gcmsoialg7uz9,czVkjAj9,2020-0188,2020-11-14,23:36:20,23:51:15,NA,incomplete,8,number,0,right,Red_Triangle_Grid_1.jpg,Red_Plus_Stripes_2.jpg,Blue_Circle_Dots_1.jpg,right,1806.9050000049174,true,NA,true
czVkjAj9,3hy86pzxq1vtv1ivc3jn7sg3anve1z,3urfvvm169v92dyj1gcmsoialg7uz9,czVkjAj9,2020-0188,2020-11-14,23:36:20,23:51:15,NA,incomplete,9,number,0,left,Green_Triangle_Stripes_4.jpg,Red_Star_Grid_4.jpg,Green_Circle_Chess_2.jpg,left,1402.9500000178814,true,NA,true
czVkjAj9,3hy86pzxq1vtv1ivc3jn7sg3anve1z,3urfvvm169v92dyj1gcmsoialg7uz9,czVkjAj9,2020-0188,2020-11-14,23:36:20,23:51:15,NA,incomplete,10,number,1,right,Purple_Plus_Dots_2.jpg,Purple_Circle_Grid_3.jpg,Red_Triangle_Chess_2.jpg,none,0,false,NA,true
czVkjAj9,3hy86pzxq1vtv1ivc3jn7sg3anve1z,3urfvvm169v92dyj1gcmsoialg7uz9,czVkjAj9,2020-0188,2020-11-14,23:36:20,23:51:15,NA,incomplete,11,number,1,right,Green_Plus_Chess_3.jpg,Green_Star_Stripes_2.jpg,Purple_Circle_Dots_3.jpg,right,1384.3599999672733,true,NA,true
czVkjAj9,3hy86pzxq1vtv1ivc3jn7sg3anve1z,3urfvvm169v92dyj1gcmsoialg7uz9,czVkjAj9,2020-0188,2020-11-14,23:36:20,23:51:15,NA,incomplete,12,number,1,left,Red_Circle_Dots_2.jpg,Green_Plus_Grid_2.jpg,Red_Star_Chess_3.jpg,left,1344.7349999914877,true,NA,true
czVkjAj9,3hy86pzxq1vtv1ivc3jn7sg3anve1z,3urfvvm169v92dyj1gcmsoialg7uz9,czVkjAj9,2020-0188,2020-11-14,23:36:20,23:51:15,NA,incomplete,13,number,1,left,Purple_Plus_Chess_1.jpg,Green_Triangle_Stripes_1.jpg,Purple_Star_Dots_4.jpg,left,1280.6500000297092,true,NA,true
czVkjAj9,3hy86pzxq1vtv1ivc3jn7sg3anve1z,3urfvvm169v92dyj1gcmsoialg7uz9,czVkjAj9,2020-0188,2020-11-14,23:36:20,23:51:15,NA,incomplete,14,number,1,right,Green_Star_Dots_3.jpg,Green_Plus_Stripes_4.jpg,Red_Triangle_Grid_3.jpg,right,1178.2449999591336,true,NA,true
czVkjAj9,3hy86pzxq1vtv1ivc3jn7sg3anve1z,3urfvvm169v92dyj1gcmsoialg7uz9,czVkjAj9,2020-0188,2020-11-14,23:36:20,23:51:15,NA,incomplete,15,number,1,right,Green_Star_Grid_4.jpg,Green_Circle_Chess_2.jpg,Purple_Triangle_Stripes_4.jpg,right,1158.0299999914132,true,NA,true
czVkjAj9,3hy86pzxq1vtv1ivc3jn7sg3anve1z,3urfvvm169v92dyj1gcmsoialg7uz9,czVkjAj9,2020-0188,2020-11-14,23:36:20,23:51:15,NA,incomplete,16,number,1,left,Blue_Plus_Grid_3.jpg,Purple_Circle_Chess_3.jpg,Blue_Triangle_Stripes_1.jpg,left,1117.7800000295974,true,NA,true
czVkjAj9,3hy86pzxq1vtv1ivc3jn7sg3anve1z,3urfvvm169v92dyj1gcmsoialg7uz9,czVkjAj9,2020-0188,2020-11-14,23:36:20,23:51:15,NA,incomplete,17,number,1,left,Purple_Plus_Dots_2.jpg,Blue_Circle_Chess_2.jpg,Purple_Triangle_Stripes_3.jpg,left,1835.0650000502355,true,NA,true
czVkjAj9,3hy86pzxq1vtv1ivc3jn7sg3anve1z,3urfvvm169v92dyj1gcmsoialg7uz9,czVkjAj9,2020-0188,2020-11-14,23:36:20,23:51:15,NA,incomplete,18,number,0,right,Blue_Triangle_Dots_1.jpg,Blue_Circle_Chess_2.jpg,Red_Plus_Stripes_1.jpg,right,1044.4300000090152,true,NA,true
czVkjAj9,3hy86pzxq1vtv1ivc3jn7sg3anve1z,3urfvvm169v92dyj1gcmsoialg7uz9,czVkjAj9,2020-0188,2020-11-14,23:36:20,23:51:15,NA,incomplete,19,number,1,left,Purple_Triangle_Dots_1.jpg,Blue_Star_Grid_1.jpg,Purple_Circle_Stripes_2.jpg,left,1217.3850000253879,true,NA,true
czVkjAj9,3hy86pzxq1vtv1ivc3jn7sg3anve1z,3urfvvm169v92dyj1gcmsoialg7uz9,czVkjAj9,2020-0188,2020-11-14,23:36:20,23:51:15,NA,incomplete,20,color,1,right,Green_Plus_Chess_2.jpg,Purple_Circle_Dots_2.jpg,Green_Star_Grid_1.jpg,right,917.9850000073202,true,NA,true
czVkjAj9,3hy86pzxq1vtv1ivc3jn7sg3anve1z,3urfvvm169v92dyj1gcmsoialg7uz9,czVkjAj9,2020-0188,2020-11-14,23:36:20,23:51:15,NA,incomplete,21,color,1,left,Purple_Star_Dots_4.jpg,Purple_Plus_Grid_2.jpg,Green_Circle_Stripes_4.jpg,left,726.3500000117347,true,NA,true
czVkjAj9,3hy86pzxq1vtv1ivc3jn7sg3anve1z,3urfvvm169v92dyj1gcmsoialg7uz9,czVkjAj9,2020-0188,2020-11-14,23:36:20,23:51:15,NA,incomplete,22,color,1,left,Blue_Plus_Chess_1.jpg,Blue_Star_Stripes_2.jpg,Green_Triangle_Dots_1.jpg,left,1308.5950000095181,true,NA,true
czVkjAj9,3hy86pzxq1vtv1ivc3jn7sg3anve1z,3urfvvm169v92dyj1gcmsoialg7uz9,czVkjAj9,2020-0188,2020-11-14,23:36:20,23:51:15,NA,incomplete,23,color,1,right,Blue_Circle_Stripes_1.jpg,Red_Star_Grid_1.jpg,Blue_Plus_Dots_4.jpg,right,1090.7850000075996,true,NA,true
czVkjAj9,3hy86pzxq1vtv1ivc3jn7sg3anve1z,3urfvvm169v92dyj1gcmsoialg7uz9,czVkjAj9,2020-0188,2020-11-14,23:36:20,23:51:15,NA,incomplete,24,color,1,right,Green_Triangle_Stripes_3.jpg,Red_Star_Dots_3.jpg,Green_Circle_Grid_1.jpg,left,1195.140000025276,false,NA,true
czVkjAj9,3hy86pzxq1vtv1ivc3jn7sg3anve1z,3urfvvm169v92dyj1gcmsoialg7uz9,czVkjAj9,2020-0188,2020-11-14,23:36:20,23:51:15,NA,incomplete,25,color,0,right,Blue_Plus_Dots_4.jpg,Green_Circle_Grid_4.jpg,Blue_Star_Chess_2.jpg,right,812.1149999788031,true,NA,true
czVkjAj9,3hy86pzxq1vtv1ivc3jn7sg3anve1z,3urfvvm169v92dyj1gcmsoialg7uz9,czVkjAj9,2020-0188,2020-11-14,23:36:20,23:51:15,NA,incomplete,26,color,1,right,Green_Star_Stripes_1.jpg,Red_Triangle_Grid_1.jpg,Green_Plus_Chess_2.jpg,right,833.1699999980628,true,NA,true
czVkjAj9,3hy86pzxq1vtv1ivc3jn7sg3anve1z,3urfvvm169v92dyj1gcmsoialg7uz9,czVkjAj9,2020-0188,2020-11-14,23:36:20,23:51:15,NA,incomplete,27,color,1,left,Blue_Star_Stripes_1.jpg,Blue_Triangle_Chess_4.jpg,Green_Plus_Dots_1.jpg,left,856.6350000328384,true,NA,true
czVkjAj9,3hy86pzxq1vtv1ivc3jn7sg3anve1z,3urfvvm169v92dyj1gcmsoialg7uz9,czVkjAj9,2020-0188,2020-11-14,23:36:20,23:51:15,NA,incomplete,28,color,1,left,Blue_Plus_Dots_2.jpg,Blue_Triangle_Grid_1.jpg,Purple_Star_Stripes_2.jpg,left,1284.0099999448285,true,NA,true
czVkjAj9,3hy86pzxq1vtv1ivc3jn7sg3anve1z,3urfvvm169v92dyj1gcmsoialg7uz9,czVkjAj9,2020-0188,2020-11-14,23:36:20,23:51:15,NA,incomplete,29,color,1,right,Purple_Star_Grid_3.jpg,Green_Triangle_Chess_3.jpg,Purple_Plus_Stripes_1.jpg,right,961.4549999823794,true,NA,true
czVkjAj9,3hy86pzxq1vtv1ivc3jn7sg3anve1z,3urfvvm169v92dyj1gcmsoialg7uz9,czVkjAj9,2020-0188,2020-11-14,23:36:20,23:51:15,NA,incomplete,30,color,1,left,Blue_Star_Stripes_4.jpg,Blue_Circle_Dots_2.jpg,Purple_Plus_Chess_4.jpg,left,1781.5500000142492,true,NA,true
czVkjAj9,3hy86pzxq1vtv1ivc3jn7sg3anve1z,3urfvvm169v92dyj1gcmsoialg7uz9,czVkjAj9,2020-0188,2020-11-14,23:36:20,23:51:15,NA,incomplete,31,color,1,right,Purple_Star_Chess_4.jpg,Red_Plus_Stripes_4.jpg,Purple_Triangle_Dots_2.jpg,right,1197.440000018105,true,NA,true
czVkjAj9,3hy86pzxq1vtv1ivc3jn7sg3anve1z,3urfvvm169v92dyj1gcmsoialg7uz9,czVkjAj9,2020-0188,2020-11-14,23:36:20,23:51:15,NA,incomplete,32,color,1,right,Red_Plus_Chess_4.jpg,Purple_Triangle_Stripes_4.jpg,Red_Circle_Grid_2.jpg,right,1335.2849999791943,true,NA,true
czVkjAj9,3hy86pzxq1vtv1ivc3jn7sg3anve1z,3urfvvm169v92dyj1gcmsoialg7uz9,czVkjAj9,2020-0188,2020-11-14,23:36:20,23:51:15,NA,incomplete,33,color,1,right,Blue_Star_Chess_1.jpg,Red_Circle_Dots_1.jpg,Blue_Plus_Stripes_4.jpg,right,853.9650000166148,true,NA,true
czVkjAj9,3hy86pzxq1vtv1ivc3jn7sg3anve1z,3urfvvm169v92dyj1gcmsoialg7uz9,czVkjAj9,2020-0188,2020-11-14,23:36:20,23:51:15,NA,incomplete,34,color,1,left,Green_Star_Chess_4.jpg,Green_Circle_Stripes_2.jpg,Purple_Plus_Dots_4.jpg,left,986.5400000126101,true,NA,true
czVkjAj9,3hy86pzxq1vtv1ivc3jn7sg3anve1z,3urfvvm169v92dyj1gcmsoialg7uz9,czVkjAj9,2020-0188,2020-11-14,23:36:20,23:51:15,NA,incomplete,35,color,0,right,Blue_Triangle_Chess_3.jpg,Red_Plus_Dots_3.jpg,Blue_Star_Grid_4.jpg,right,827.8649999992922,true,NA,true
czVkjAj9,3hy86pzxq1vtv1ivc3jn7sg3anve1z,3urfvvm169v92dyj1gcmsoialg7uz9,czVkjAj9,2020-0188,2020-11-14,23:36:20,23:51:15,NA,incomplete,36,color,1,left,Green_Triangle_Grid_4.jpg,Green_Circle_Dots_3.jpg,Blue_Plus_Stripes_4.jpg,left,884.8049999796785,true,NA,true
czVkjAj9,3hy86pzxq1vtv1ivc3jn7sg3anve1z,3urfvvm169v92dyj1gcmsoialg7uz9,czVkjAj9,2020-0188,2020-11-14,23:36:20,23:51:15,NA,incomplete,37,color,1,right,Purple_Plus_Dots_4.jpg,Blue_Triangle_Chess_4.jpg,Purple_Circle_Stripes_1.jpg,right,746.1599999805912,true,NA,true
czVkjAj9,3hy86pzxq1vtv1ivc3jn7sg3anve1z,3urfvvm169v92dyj1gcmsoialg7uz9,czVkjAj9,2020-0188,2020-11-14,23:36:20,23:51:15,NA,incomplete,38,color,1,right,Blue_Star_Chess_1.jpg,Red_Triangle_Dots_1.jpg,Blue_Plus_Grid_3.jpg,right,842.3850000253879,true,NA,true
czVkjAj9,3hy86pzxq1vtv1ivc3jn7sg3anve1z,3urfvvm169v92dyj1gcmsoialg7uz9,czVkjAj9,2020-0188,2020-11-14,23:36:20,23:51:15,NA,incomplete,39,color,0,right,Blue_Star_Grid_1.jpg,Red_Plus_Chess_1.jpg,Blue_Circle_Dots_2.jpg,right,771.355000033509,true,NA,true
czVkjAj9,3hy86pzxq1vtv1ivc3jn7sg3anve1z,3urfvvm169v92dyj1gcmsoialg7uz9,czVkjAj9,2020-0188,2020-11-14,23:36:20,23:51:15,NA,incomplete,0,number,1,right,Blue_Star_Chess_3.jpg,Blue_Circle_Dots_1.jpg,Red_Triangle_Grid_3.jpg,right,1088.1999999983236,true,low,false
czVkjAj9,3hy86pzxq1vtv1ivc3jn7sg3anve1z,3urfvvm169v92dyj1gcmsoialg7uz9,czVkjAj9,2020-0188,2020-11-14,23:36:20,23:51:15,NA,incomplete,1,number,1,right,Green_Triangle_Chess_1.jpg,Green_Star_Stripes_2.jpg,Red_Plus_Dots_1.jpg,left,998.5800000140443,false,low,false
czVkjAj9,3hy86pzxq1vtv1ivc3jn7sg3anve1z,3urfvvm169v92dyj1gcmsoialg7uz9,czVkjAj9,2020-0188,2020-11-14,23:36:20,23:51:15,NA,incomplete,2,number,0,right,Red_Star_Chess_1.jpg,Red_Plus_Grid_3.jpg,Blue_Triangle_Dots_1.jpg,right,871.8699999735691,true,low,false
czVkjAj9,3hy86pzxq1vtv1ivc3jn7sg3anve1z,3urfvvm169v92dyj1gcmsoialg7uz9,czVkjAj9,2020-0188,2020-11-14,23:36:20,23:51:15,NA,incomplete,3,number,0,right,Red_Star_Chess_3.jpg,Red_Plus_Stripes_2.jpg,Blue_Circle_Grid_3.jpg,right,994.3849999690428,true,low,false
czVkjAj9,3hy86pzxq1vtv1ivc3jn7sg3anve1z,3urfvvm169v92dyj1gcmsoialg7uz9,czVkjAj9,2020-0188,2020-11-14,23:36:20,23:51:15,NA,incomplete,4,number,1,right,Blue_Plus_Grid_3.jpg,Blue_Star_Dots_4.jpg,Red_Triangle_Chess_3.jpg,left,648.0100000044331,false,low,false
czVkjAj9,3hy86pzxq1vtv1ivc3jn7sg3anve1z,3urfvvm169v92dyj1gcmsoialg7uz9,czVkjAj9,2020-0188,2020-11-14,23:36:20,23:51:15,NA,incomplete,5,number,1,right,Blue_Plus_Dots_4.jpg,Blue_Circle_Grid_1.jpg,Purple_Triangle_Stripes_4.jpg,left,1047.4199999589473,false,low,false
czVkjAj9,3hy86pzxq1vtv1ivc3jn7sg3anve1z,3urfvvm169v92dyj1gcmsoialg7uz9,czVkjAj9,2020-0188,2020-11-14,23:36:20,23:51:15,NA,incomplete,6,number,1,right,Red_Triangle_Stripes_4.jpg,Red_Circle_Chess_1.jpg,Purple_Plus_Grid_4.jpg,right,803.3799999975599,true,low,false
czVkjAj9,3hy86pzxq1vtv1ivc3jn7sg3anve1z,3urfvvm169v92dyj1gcmsoialg7uz9,czVkjAj9,2020-0188,2020-11-14,23:36:20,23:51:15,NA,incomplete,7,number,1,right,Green_Circle_Stripes_1.jpg,Green_Triangle_Dots_2.jpg,Purple_Plus_Chess_1.jpg,left,1068.9750000019558,false,low,false
czVkjAj9,3hy86pzxq1vtv1ivc3jn7sg3anve1z,3urfvvm169v92dyj1gcmsoialg7uz9,czVkjAj9,2020-0188,2020-11-14,23:36:20,23:51:15,NA,incomplete,8,number,1,right,Green_Star_Chess_4.jpg,Green_Plus_Dots_2.jpg,Red_Triangle_Grid_4.jpg,right,1256.299999949988,true,low,false
czVkjAj9,3hy86pzxq1vtv1ivc3jn7sg3anve1z,3urfvvm169v92dyj1gcmsoialg7uz9,czVkjAj9,2020-0188,2020-11-14,23:36:20,23:51:15,NA,incomplete,9,number,1,right,Blue_Triangle_Dots_2.jpg,Blue_Circle_Stripes_1.jpg,Red_Star_Chess_2.jpg,right,933.614999987185,true,low,false
czVkjAj9,3hy86pzxq1vtv1ivc3jn7sg3anve1z,3urfvvm169v92dyj1gcmsoialg7uz9,czVkjAj9,2020-0188,2020-11-14,23:36:20,23:51:15,NA,incomplete,10,number,1,left,Blue_Triangle_Grid_3.jpg,Red_Circle_Stripes_3.jpg,Blue_Star_Chess_4.jpg,left,952.2850000066683,true,low,false
czVkjAj9,3hy86pzxq1vtv1ivc3jn7sg3anve1z,3urfvvm169v92dyj1gcmsoialg7uz9,czVkjAj9,2020-0188,2020-11-14,23:36:20,23:51:15,NA,incomplete,11,number,1,right,Blue_Triangle_Chess_3.jpg,Blue_Circle_Grid_1.jpg,Green_Plus_Stripes_3.jpg,right,807.7149999444373,true,low,false
czVkjAj9,3hy86pzxq1vtv1ivc3jn7sg3anve1z,3urfvvm169v92dyj1gcmsoialg7uz9,czVkjAj9,2020-0188,2020-11-14,23:36:20,23:51:15,NA,incomplete,12,number,0,left,Green_Triangle_Grid_1.jpg,Blue_Star_Stripes_1.jpg,Green_Plus_Chess_2.jpg,left,1050.745000015013,true,low,false
czVkjAj9,3hy86pzxq1vtv1ivc3jn7sg3anve1z,3urfvvm169v92dyj1gcmsoialg7uz9,czVkjAj9,2020-0188,2020-11-14,23:36:20,23:51:15,NA,incomplete,13,number,1,right,Green_Triangle_Chess_3.jpg,Green_Circle_Grid_1.jpg,Red_Star_Stripes_3.jpg,right,812.1999999857508,true,low,false
czVkjAj9,3hy86pzxq1vtv1ivc3jn7sg3anve1z,3urfvvm169v92dyj1gcmsoialg7uz9,czVkjAj9,2020-0188,2020-11-14,23:36:20,23:51:15,NA,incomplete,14,number,1,right,Blue_Star_Grid_1.jpg,Blue_Triangle_Chess_3.jpg,Green_Circle_Stripes_1.jpg,right,835.640000004787,true,low,false
czVkjAj9,3hy86pzxq1vtv1ivc3jn7sg3anve1z,3urfvvm169v92dyj1gcmsoialg7uz9,czVkjAj9,2020-0188,2020-11-14,23:36:20,23:51:15,NA,incomplete,15,number,1,left,Red_Star_Stripes_4.jpg,Blue_Triangle_Chess_4.jpg,Red_Plus_Grid_3.jpg,right,1206.4799999934621,false,low,false
czVkjAj9,3hy86pzxq1vtv1ivc3jn7sg3anve1z,3urfvvm169v92dyj1gcmsoialg7uz9,czVkjAj9,2020-0188,2020-11-14,23:36:20,23:51:15,NA,incomplete,16,number,1,right,Blue_Triangle_Stripes_3.jpg,Blue_Circle_Chess_2.jpg,Purple_Plus_Grid_3.jpg,right,962.5299999606796,true,low,false
czVkjAj9,3hy86pzxq1vtv1ivc3jn7sg3anve1z,3urfvvm169v92dyj1gcmsoialg7uz9,czVkjAj9,2020-0188,2020-11-14,23:36:20,23:51:15,NA,incomplete,17,number,1,right,Green_Circle_Grid_4.jpg,Green_Star_Chess_1.jpg,Red_Plus_Stripes_4.jpg,right,877.600000007078,true,low,false
czVkjAj9,3hy86pzxq1vtv1ivc3jn7sg3anve1z,3urfvvm169v92dyj1gcmsoialg7uz9,czVkjAj9,2020-0188,2020-11-14,23:36:20,23:51:15,NA,incomplete,18,number,1,right,Red_Circle_Chess_2.jpg,Red_Triangle_Dots_1.jpg,Blue_Star_Stripes_2.jpg,right,883.9649999863468,true,low,false
czVkjAj9,3hy86pzxq1vtv1ivc3jn7sg3anve1z,3urfvvm169v92dyj1gcmsoialg7uz9,czVkjAj9,2020-0188,2020-11-14,23:36:20,23:51:15,NA,incomplete,19,number,1,right,Purple_Star_Dots_4.jpg,Purple_Circle_Grid_2.jpg,Green_Triangle_Chess_4.jpg,right,867.0150000252761,true,low,false
czVkjAj9,3hy86pzxq1vtv1ivc3jn7sg3anve1z,3urfvvm169v92dyj1gcmsoialg7uz9,czVkjAj9,2020-0188,2020-11-14,23:36:20,23:51:15,NA,incomplete,20,number,1,left,Green_Circle_Chess_2.jpg,Purple_Plus_Stripes_2.jpg,Green_Star_Dots_4.jpg,left,766.6949999984354,true,low,false
czVkjAj9,3hy86pzxq1vtv1ivc3jn7sg3anve1z,3urfvvm169v92dyj1gcmsoialg7uz9,czVkjAj9,2020-0188,2020-11-14,23:36:20,23:51:15,NA,incomplete,21,number,1,right,Blue_Plus_Grid_1.jpg,Blue_Star_Dots_4.jpg,Purple_Triangle_Stripes_1.jpg,right,757.9299999633804,true,low,false
czVkjAj9,3hy86pzxq1vtv1ivc3jn7sg3anve1z,3urfvvm169v92dyj1gcmsoialg7uz9,czVkjAj9,2020-0188,2020-11-14,23:36:20,23:51:15,NA,incomplete,22,number,1,right,Red_Triangle_Stripes_1.jpg,Red_Star_Grid_3.jpg,Purple_Circle_Chess_1.jpg,right,855.440000013914,true,low,false
czVkjAj9,3hy86pzxq1vtv1ivc3jn7sg3anve1z,3urfvvm169v92dyj1gcmsoialg7uz9,czVkjAj9,2020-0188,2020-11-14,23:36:20,23:51:15,NA,incomplete,23,number,1,right,Blue_Circle_Stripes_1.jpg,Blue_Plus_Chess_2.jpg,Purple_Triangle_Grid_1.jpg,right,890.2949999901466,true,low,false
czVkjAj9,3hy86pzxq1vtv1ivc3jn7sg3anve1z,3urfvvm169v92dyj1gcmsoialg7uz9,czVkjAj9,2020-0188,2020-11-14,23:36:20,23:51:15,NA,incomplete,24,number,1,left,Green_Plus_Chess_4.jpg,Red_Star_Dots_4.jpg,Green_Circle_Grid_3.jpg,left,1136.159999994561,true,low,false
czVkjAj9,3hy86pzxq1vtv1ivc3jn7sg3anve1z,3urfvvm169v92dyj1gcmsoialg7uz9,czVkjAj9,2020-0188,2020-11-14,23:36:20,23:51:15,NA,incomplete,25,number,1,left,Red_Circle_Grid_1.jpg,Purple_Plus_Stripes_1.jpg,Red_Triangle_Chess_4.jpg,left,866.0249999957159,true,low,false
czVkjAj9,3hy86pzxq1vtv1ivc3jn7sg3anve1z,3urfvvm169v92dyj1gcmsoialg7uz9,czVkjAj9,2020-0188,2020-11-14,23:36:20,23:51:15,NA,incomplete,26,number,0,right,Green_Star_Dots_3.jpg,Green_Plus_Stripes_2.jpg,Red_Circle_Chess_3.jpg,right,910.7049999875017,true,low,false
czVkjAj9,3hy86pzxq1vtv1ivc3jn7sg3anve1z,3urfvvm169v92dyj1gcmsoialg7uz9,czVkjAj9,2020-0188,2020-11-14,23:36:20,23:51:15,NA,incomplete,27,number,1,left,Blue_Plus_Grid_1.jpg,Purple_Star_Dots_1.jpg,Blue_Triangle_Stripes_3.jpg,left,843.5099999769591,true,low,false
czVkjAj9,3hy86pzxq1vtv1ivc3jn7sg3anve1z,3urfvvm169v92dyj1gcmsoialg7uz9,czVkjAj9,2020-0188,2020-11-14,23:36:20,23:51:15,NA,incomplete,28,number,1,right,Red_Triangle_Dots_2.jpg,Red_Plus_Stripes_4.jpg,Green_Star_Grid_2.jpg,right,843.4400000260212,true,low,false
czVkjAj9,3hy86pzxq1vtv1ivc3jn7sg3anve1z,3urfvvm169v92dyj1gcmsoialg7uz9,czVkjAj9,2020-0188,2020-11-14,23:36:20,23:51:15,NA,incomplete,29,number,1,left,Purple_Circle_Grid_4.jpg,Blue_Star_Stripes_4.jpg,Purple_Triangle_Chess_3.jpg,left,1105.3500000271015,true,low,false
czVkjAj9,3hy86pzxq1vtv1ivc3jn7sg3anve1z,3urfvvm169v92dyj1gcmsoialg7uz9,czVkjAj9,2020-0188,2020-11-14,23:36:20,23:51:15,NA,incomplete,30,color,0,left,Purple_Circle_Stripes_3.jpg,Purple_Triangle_Dots_1.jpg,Blue_Star_Chess_3.jpg,right,939.8300000466406,false,low,false
czVkjAj9,3hy86pzxq1vtv1ivc3jn7sg3anve1z,3urfvvm169v92dyj1gcmsoialg7uz9,czVkjAj9,2020-0188,2020-11-14,23:36:20,23:51:15,NA,incomplete,31,color,0,left,Green_Plus_Dots_3.jpg,Green_Circle_Grid_2.jpg,Purple_Triangle_Stripes_3.jpg,right,885.9749999828637,false,low,false
czVkjAj9,3hy86pzxq1vtv1ivc3jn7sg3anve1z,3urfvvm169v92dyj1gcmsoialg7uz9,czVkjAj9,2020-0188,2020-11-14,23:36:20,23:51:15,NA,incomplete,32,color,0,right,Blue_Triangle_Stripes_2.jpg,Green_Plus_Dots_2.jpg,Blue_Star_Chess_1.jpg,left,726.6299999901094,false,low,false
czVkjAj9,3hy86pzxq1vtv1ivc3jn7sg3anve1z,3urfvvm169v92dyj1gcmsoialg7uz9,czVkjAj9,2020-0188,2020-11-14,23:36:20,23:51:15,NA,incomplete,33,color,1,left,Green_Triangle_Dots_4.jpg,Green_Plus_Stripes_3.jpg,Red_Circle_Grid_4.jpg,right,1230.5899999919347,false,low,false
czVkjAj9,3hy86pzxq1vtv1ivc3jn7sg3anve1z,3urfvvm169v92dyj1gcmsoialg7uz9,czVkjAj9,2020-0188,2020-11-14,23:36:20,23:51:15,NA,incomplete,34,color,0,left,Green_Triangle_Chess_2.jpg,Green_Star_Dots_3.jpg,Red_Plus_Stripes_2.jpg,right,942.6349999848753,false,low,false
czVkjAj9,3hy86pzxq1vtv1ivc3jn7sg3anve1z,3urfvvm169v92dyj1gcmsoialg7uz9,czVkjAj9,2020-0188,2020-11-14,23:36:20,23:51:15,NA,incomplete,35,color,1,right,Red_Plus_Stripes_3.jpg,Blue_Triangle_Chess_3.jpg,Red_Star_Grid_1.jpg,left,778.5600000061095,false,low,false
czVkjAj9,3hy86pzxq1vtv1ivc3jn7sg3anve1z,3urfvvm169v92dyj1gcmsoialg7uz9,czVkjAj9,2020-0188,2020-11-14,23:36:20,23:51:15,NA,incomplete,36,color,1,right,Red_Circle_Grid_1.jpg,Purple_Triangle_Dots_1.jpg,Red_Plus_Stripes_2.jpg,left,761.289999994915,false,low,false
czVkjAj9,3hy86pzxq1vtv1ivc3jn7sg3anve1z,3urfvvm169v92dyj1gcmsoialg7uz9,czVkjAj9,2020-0188,2020-11-14,23:36:20,23:51:15,NA,incomplete,37,color,1,right,Purple_Star_Dots_1.jpg,Blue_Plus_Grid_1.jpg,Purple_Triangle_Stripes_4.jpg,right,713.9900000183843,true,low,false
czVkjAj9,3hy86pzxq1vtv1ivc3jn7sg3anve1z,3urfvvm169v92dyj1gcmsoialg7uz9,czVkjAj9,2020-0188,2020-11-14,23:36:20,23:51:15,NA,incomplete,38,color,0,right,Green_Star_Chess_3.jpg,Blue_Triangle_Dots_3.jpg,Green_Plus_Stripes_2.jpg,right,743.4350000112318,true,low,false
czVkjAj9,3hy86pzxq1vtv1ivc3jn7sg3anve1z,3urfvvm169v92dyj1gcmsoialg7uz9,czVkjAj9,2020-0188,2020-11-14,23:36:20,23:51:15,NA,incomplete,39,color,0,right,Red_Triangle_Chess_3.jpg,Blue_Plus_Grid_3.jpg,Red_Circle_Dots_2.jpg,left,845.3600000357255,false,low,false
czVkjAj9,3hy86pzxq1vtv1ivc3jn7sg3anve1z,3urfvvm169v92dyj1gcmsoialg7uz9,czVkjAj9,2020-0188,2020-11-14,23:36:20,23:51:15,NA,incomplete,40,color,1,right,Purple_Plus_Grid_3.jpg,Green_Star_Stripes_3.jpg,Purple_Circle_Dots_4.jpg,right,616.2399999448098,true,low,false
czVkjAj9,3hy86pzxq1vtv1ivc3jn7sg3anve1z,3urfvvm169v92dyj1gcmsoialg7uz9,czVkjAj9,2020-0188,2020-11-14,23:36:20,23:51:15,NA,incomplete,41,color,1,right,Green_Star_Grid_1.jpg,Red_Circle_Dots_1.jpg,Green_Triangle_Chess_4.jpg,left,726.5599999809638,false,low,false
czVkjAj9,3hy86pzxq1vtv1ivc3jn7sg3anve1z,3urfvvm169v92dyj1gcmsoialg7uz9,czVkjAj9,2020-0188,2020-11-14,23:36:20,23:51:15,NA,incomplete,42,color,1,right,Red_Star_Chess_3.jpg,Green_Triangle_Dots_3.jpg,Red_Circle_Stripes_1.jpg,left,951.9549999968149,false,low,false
czVkjAj9,3hy86pzxq1vtv1ivc3jn7sg3anve1z,3urfvvm169v92dyj1gcmsoialg7uz9,czVkjAj9,2020-0188,2020-11-14,23:36:20,23:51:15,NA,incomplete,43,color,0,right,Purple_Plus_Chess_4.jpg,Green_Triangle_Stripes_4.jpg,Purple_Circle_Grid_1.jpg,right,702.2500000311993,true,low,false
czVkjAj9,3hy86pzxq1vtv1ivc3jn7sg3anve1z,3urfvvm169v92dyj1gcmsoialg7uz9,czVkjAj9,2020-0188,2020-11-14,23:36:20,23:51:15,NA,incomplete,44,color,0,left,Blue_Triangle_Grid_1.jpg,Blue_Plus_Chess_2.jpg,Red_Star_Stripes_1.jpg,left,835.869999951683,true,low,false
czVkjAj9,3hy86pzxq1vtv1ivc3jn7sg3anve1z,3urfvvm169v92dyj1gcmsoialg7uz9,czVkjAj9,2020-0188,2020-11-14,23:36:20,23:51:15,NA,incomplete,45,color,1,right,Green_Triangle_Grid_2.jpg,Blue_Plus_Chess_2.jpg,Green_Star_Dots_3.jpg,left,809.0699999593198,false,low,false
czVkjAj9,3hy86pzxq1vtv1ivc3jn7sg3anve1z,3urfvvm169v92dyj1gcmsoialg7uz9,czVkjAj9,2020-0188,2020-11-14,23:36:20,23:51:15,NA,incomplete,46,color,1,right,Red_Circle_Grid_4.jpg,Blue_Plus_Chess_4.jpg,Red_Triangle_Dots_3.jpg,right,1037.9749999847263,true,low,false
czVkjAj9,3hy86pzxq1vtv1ivc3jn7sg3anve1z,3urfvvm169v92dyj1gcmsoialg7uz9,czVkjAj9,2020-0188,2020-11-14,23:36:20,23:51:15,NA,incomplete,47,color,1,left,Blue_Star_Chess_2.jpg,Blue_Circle_Grid_1.jpg,Red_Plus_Stripes_2.jpg,left,642.5249999738298,true,low,false
czVkjAj9,3hy86pzxq1vtv1ivc3jn7sg3anve1z,3urfvvm169v92dyj1gcmsoialg7uz9,czVkjAj9,2020-0188,2020-11-14,23:36:20,23:51:15,NA,incomplete,48,color,0,right,Purple_Triangle_Stripes_2.jpg,Blue_Circle_Chess_2.jpg,Purple_Star_Dots_4.jpg,right,565.7750000245869,true,low,false
czVkjAj9,3hy86pzxq1vtv1ivc3jn7sg3anve1z,3urfvvm169v92dyj1gcmsoialg7uz9,czVkjAj9,2020-0188,2020-11-14,23:36:20,23:51:15,NA,incomplete,49,color,1,right,Purple_Star_Stripes_4.jpg,Blue_Plus_Dots_4.jpg,Purple_Circle_Chess_3.jpg,left,897.0149999950081,false,low,false
czVkjAj9,3hy86pzxq1vtv1ivc3jn7sg3anve1z,3urfvvm169v92dyj1gcmsoialg7uz9,czVkjAj9,2020-0188,2020-11-14,23:36:20,23:51:15,NA,incomplete,50,color,1,right,Green_Plus_Grid_2.jpg,Red_Circle_Chess_2.jpg,Green_Star_Dots_4.jpg,left,961.9349999702536,false,low,false
czVkjAj9,3hy86pzxq1vtv1ivc3jn7sg3anve1z,3urfvvm169v92dyj1gcmsoialg7uz9,czVkjAj9,2020-0188,2020-11-14,23:36:20,23:51:15,NA,incomplete,51,color,1,right,Green_Star_Dots_3.jpg,Purple_Triangle_Stripes_3.jpg,Green_Circle_Chess_1.jpg,right,754.4599999673665,true,low,false
czVkjAj9,3hy86pzxq1vtv1ivc3jn7sg3anve1z,3urfvvm169v92dyj1gcmsoialg7uz9,czVkjAj9,2020-0188,2020-11-14,23:36:20,23:51:15,NA,incomplete,52,color,1,left,Red_Triangle_Grid_4.jpg,Red_Plus_Dots_2.jpg,Purple_Circle_Stripes_4.jpg,right,1126.3649999746121,false,low,false
czVkjAj9,3hy86pzxq1vtv1ivc3jn7sg3anve1z,3urfvvm169v92dyj1gcmsoialg7uz9,czVkjAj9,2020-0188,2020-11-14,23:36:20,23:51:15,NA,incomplete,53,color,1,left,Purple_Plus_Chess_1.jpg,Purple_Triangle_Stripes_3.jpg,Red_Circle_Dots_1.jpg,left,871.515000006184,true,low,false
czVkjAj9,3hy86pzxq1vtv1ivc3jn7sg3anve1z,3urfvvm169v92dyj1gcmsoialg7uz9,czVkjAj9,2020-0188,2020-11-14,23:36:20,23:51:15,NA,incomplete,54,color,1,right,Purple_Plus_Stripes_4.jpg,Blue_Circle_Chess_4.jpg,Purple_Triangle_Dots_1.jpg,right,610.8100000419654,true,low,false
czVkjAj9,3hy86pzxq1vtv1ivc3jn7sg3anve1z,3urfvvm169v92dyj1gcmsoialg7uz9,czVkjAj9,2020-0188,2020-11-14,23:36:20,23:51:15,NA,incomplete,55,color,1,left,Purple_Circle_Chess_3.jpg,Purple_Star_Grid_2.jpg,Green_Plus_Stripes_3.jpg,left,628.9450000040233,true,low,false
czVkjAj9,3hy86pzxq1vtv1ivc3jn7sg3anve1z,3urfvvm169v92dyj1gcmsoialg7uz9,czVkjAj9,2020-0188,2020-11-14,23:36:20,23:51:15,NA,incomplete,56,color,1,left,Purple_Triangle_Chess_3.jpg,Purple_Star_Stripes_4.jpg,Red_Circle_Grid_3.jpg,left,478.5200000042096,true,low,false
czVkjAj9,3hy86pzxq1vtv1ivc3jn7sg3anve1z,3urfvvm169v92dyj1gcmsoialg7uz9,czVkjAj9,2020-0188,2020-11-14,23:36:20,23:51:15,NA,incomplete,57,color,1,right,Green_Circle_Chess_3.jpg,Red_Triangle_Grid_3.jpg,Green_Star_Dots_1.jpg,right,514.3999999854714,true,low,false
czVkjAj9,3hy86pzxq1vtv1ivc3jn7sg3anve1z,3urfvvm169v92dyj1gcmsoialg7uz9,czVkjAj9,2020-0188,2020-11-14,23:36:20,23:51:15,NA,incomplete,58,color,1,left,Purple_Triangle_Stripes_4.jpg,Purple_Star_Chess_3.jpg,Red_Circle_Grid_4.jpg,left,463.37499999208376,true,low,false
czVkjAj9,3hy86pzxq1vtv1ivc3jn7sg3anve1z,3urfvvm169v92dyj1gcmsoialg7uz9,czVkjAj9,2020-0188,2020-11-14,23:36:20,23:51:15,NA,incomplete,59,color,1,left,Red_Plus_Grid_2.jpg,Red_Triangle_Dots_3.jpg,Blue_Star_Chess_2.jpg,left,474.71999999834225,true,low,false
czVkjAj9,3hy86pzxq1vtv1ivc3jn7sg3anve1z,3urfvvm169v92dyj1gcmsoialg7uz9,czVkjAj9,2020-0188,2020-11-14,23:36:20,23:51:15,NA,incomplete,60,number,1,right,Red_Circle_Dots_4.jpg,Red_Triangle_Chess_1.jpg,Green_Plus_Grid_4.jpg,left,506.90499995835125,false,low,false
czVkjAj9,3hy86pzxq1vtv1ivc3jn7sg3anve1z,3urfvvm169v92dyj1gcmsoialg7uz9,czVkjAj9,2020-0188,2020-11-14,23:36:20,23:51:15,NA,incomplete,61,number,0,left,Blue_Star_Grid_3.jpg,Purple_Triangle_Chess_3.jpg,Blue_Circle_Dots_1.jpg,left,738.0400000256486,true,low,false
czVkjAj9,3hy86pzxq1vtv1ivc3jn7sg3anve1z,3urfvvm169v92dyj1gcmsoialg7uz9,czVkjAj9,2020-0188,2020-11-14,23:36:20,23:51:15,NA,incomplete,62,number,1,right,Purple_Circle_Stripes_3.jpg,Purple_Star_Dots_4.jpg,Green_Triangle_Grid_3.jpg,left,610.3400000138208,false,low,false
czVkjAj9,3hy86pzxq1vtv1ivc3jn7sg3anve1z,3urfvvm169v92dyj1gcmsoialg7uz9,czVkjAj9,2020-0188,2020-11-14,23:36:20,23:51:15,NA,incomplete,63,number,0,right,Blue_Plus_Stripes_3.jpg,Blue_Circle_Dots_4.jpg,Green_Triangle_Chess_3.jpg,right,804.8849999904633,true,low,false
czVkjAj9,3hy86pzxq1vtv1ivc3jn7sg3anve1z,3urfvvm169v92dyj1gcmsoialg7uz9,czVkjAj9,2020-0188,2020-11-14,23:36:20,23:51:15,NA,incomplete,64,number,1,right,Blue_Plus_Stripes_4.jpg,Blue_Circle_Chess_2.jpg,Red_Triangle_Dots_4.jpg,left,706.2349999905564,false,low,false
czVkjAj9,3hy86pzxq1vtv1ivc3jn7sg3anve1z,3urfvvm169v92dyj1gcmsoialg7uz9,czVkjAj9,2020-0188,2020-11-14,23:36:20,23:51:15,NA,incomplete,65,number,1,right,Red_Star_Dots_3.jpg,Red_Circle_Chess_2.jpg,Green_Plus_Stripes_3.jpg,left,772.2949999733828,false,low,false
czVkjAj9,3hy86pzxq1vtv1ivc3jn7sg3anve1z,3urfvvm169v92dyj1gcmsoialg7uz9,czVkjAj9,2020-0188,2020-11-14,23:36:20,23:51:15,NA,incomplete,66,number,1,left,Purple_Triangle_Dots_2.jpg,Green_Plus_Stripes_2.jpg,Purple_Circle_Grid_3.jpg,left,815.4949999880046,true,low,false
czVkjAj9,3hy86pzxq1vtv1ivc3jn7sg3anve1z,3urfvvm169v92dyj1gcmsoialg7uz9,czVkjAj9,2020-0188,2020-11-14,23:36:20,23:51:15,NA,incomplete,67,number,0,right,Blue_Triangle_Grid_3.jpg,Blue_Plus_Stripes_2.jpg,Green_Circle_Dots_3.jpg,right,848.9399999962188,true,low,false
czVkjAj9,3hy86pzxq1vtv1ivc3jn7sg3anve1z,3urfvvm169v92dyj1gcmsoialg7uz9,czVkjAj9,2020-0188,2020-11-14,23:36:20,23:51:15,NA,incomplete,68,number,1,left,Green_Circle_Dots_2.jpg,Red_Star_Chess_2.jpg,Green_Triangle_Stripes_3.jpg,left,821.2250000215136,true,low,false
czVkjAj9,3hy86pzxq1vtv1ivc3jn7sg3anve1z,3urfvvm169v92dyj1gcmsoialg7uz9,czVkjAj9,2020-0188,2020-11-14,23:36:20,23:51:15,NA,incomplete,69,number,1,left,Red_Star_Dots_3.jpg,Blue_Plus_Stripes_3.jpg,Red_Triangle_Chess_1.jpg,right,612.9499999806285,false,low,false
czVkjAj9,3hy86pzxq1vtv1ivc3jn7sg3anve1z,3urfvvm169v92dyj1gcmsoialg7uz9,czVkjAj9,2020-0188,2020-11-14,23:36:20,23:51:15,NA,incomplete,70,number,1,right,Green_Plus_Chess_4.jpg,Green_Triangle_Grid_3.jpg,Purple_Circle_Stripes_4.jpg,right,816.9999999809079,true,low,false
czVkjAj9,3hy86pzxq1vtv1ivc3jn7sg3anve1z,3urfvvm169v92dyj1gcmsoialg7uz9,czVkjAj9,2020-0188,2020-11-14,23:36:20,23:51:15,NA,incomplete,71,number,1,right,Purple_Plus_Stripes_2.jpg,Purple_Circle_Grid_1.jpg,Blue_Triangle_Chess_2.jpg,right,802.4350000196137,true,low,false
czVkjAj9,3hy86pzxq1vtv1ivc3jn7sg3anve1z,3urfvvm169v92dyj1gcmsoialg7uz9,czVkjAj9,2020-0188,2020-11-14,23:36:20,23:51:15,NA,incomplete,72,number,1,left,Green_Triangle_Dots_1.jpg,Red_Star_Stripes_1.jpg,Green_Plus_Grid_4.jpg,left,705.4850000422448,true,low,false
czVkjAj9,3hy86pzxq1vtv1ivc3jn7sg3anve1z,3urfvvm169v92dyj1gcmsoialg7uz9,czVkjAj9,2020-0188,2020-11-14,23:36:20,23:51:15,NA,incomplete,73,number,1,right,Red_Plus_Stripes_1.jpg,Red_Triangle_Chess_2.jpg,Purple_Star_Grid_1.jpg,left,798.9800000214018,false,low,false
czVkjAj9,3hy86pzxq1vtv1ivc3jn7sg3anve1z,3urfvvm169v92dyj1gcmsoialg7uz9,czVkjAj9,2020-0188,2020-11-14,23:36:20,23:51:15,NA,incomplete,74,number,1,left,Blue_Triangle_Chess_3.jpg,Purple_Plus_Dots_3.jpg,Blue_Circle_Grid_1.jpg,left,687.1299999766052,true,low,false
czVkjAj9,3hy86pzxq1vtv1ivc3jn7sg3anve1z,3urfvvm169v92dyj1gcmsoialg7uz9,czVkjAj9,2020-0188,2020-11-14,23:36:20,23:51:15,NA,incomplete,75,number,0,right,Green_Star_Stripes_2.jpg,Green_Plus_Dots_1.jpg,Blue_Circle_Chess_2.jpg,right,667.3700000392273,true,low,false
czVkjAj9,3hy86pzxq1vtv1ivc3jn7sg3anve1z,3urfvvm169v92dyj1gcmsoialg7uz9,czVkjAj9,2020-0188,2020-11-14,23:36:20,23:51:15,NA,incomplete,76,number,1,left,Blue_Star_Dots_2.jpg,Green_Triangle_Stripes_2.jpg,Blue_Plus_Grid_3.jpg,right,543.0100000230595,false,low,false
czVkjAj9,3hy86pzxq1vtv1ivc3jn7sg3anve1z,3urfvvm169v92dyj1gcmsoialg7uz9,czVkjAj9,2020-0188,2020-11-14,23:36:20,23:51:15,NA,incomplete,77,number,1,left,Purple_Triangle_Dots_4.jpg,Green_Circle_Chess_4.jpg,Purple_Plus_Grid_3.jpg,left,927.8749999939464,true,low,false
czVkjAj9,3hy86pzxq1vtv1ivc3jn7sg3anve1z,3urfvvm169v92dyj1gcmsoialg7uz9,czVkjAj9,2020-0188,2020-11-14,23:36:20,23:51:15,NA,incomplete,78,number,1,left,Purple_Triangle_Grid_1.jpg,Green_Star_Stripes_1.jpg,Purple_Circle_Dots_2.jpg,left,691.8650000006892,true,low,false
czVkjAj9,3hy86pzxq1vtv1ivc3jn7sg3anve1z,3urfvvm169v92dyj1gcmsoialg7uz9,czVkjAj9,2020-0188,2020-11-14,23:36:20,23:51:15,NA,incomplete,79,number,1,right,Purple_Star_Chess_1.jpg,Purple_Circle_Dots_4.jpg,Green_Triangle_Stripes_1.jpg,right,699.3900000234134,true,low,false
czVkjAj9,3hy86pzxq1vtv1ivc3jn7sg3anve1z,3urfvvm169v92dyj1gcmsoialg7uz9,czVkjAj9,2020-0188,2020-11-14,23:36:20,23:51:15,NA,incomplete,80,number,0,left,Red_Triangle_Stripes_1.jpg,Blue_Circle_Dots_1.jpg,Red_Star_Grid_4.jpg,left,649.4850000017323,true,low,false
czVkjAj9,3hy86pzxq1vtv1ivc3jn7sg3anve1z,3urfvvm169v92dyj1gcmsoialg7uz9,czVkjAj9,2020-0188,2020-11-14,23:36:20,23:51:15,NA,incomplete,81,number,1,right,Purple_Circle_Grid_4.jpg,Purple_Triangle_Dots_3.jpg,Blue_Plus_Chess_4.jpg,right,711.4350000047125,true,low,false
czVkjAj9,3hy86pzxq1vtv1ivc3jn7sg3anve1z,3urfvvm169v92dyj1gcmsoialg7uz9,czVkjAj9,2020-0188,2020-11-14,23:36:20,23:51:15,NA,incomplete,82,number,1,left,Purple_Star_Chess_3.jpg,Green_Plus_Grid_3.jpg,Purple_Circle_Dots_1.jpg,left,700.6900000269525,true,low,false
czVkjAj9,3hy86pzxq1vtv1ivc3jn7sg3anve1z,3urfvvm169v92dyj1gcmsoialg7uz9,czVkjAj9,2020-0188,2020-11-14,23:36:20,23:51:15,NA,incomplete,83,number,0,right,Purple_Plus_Stripes_3.jpg,Purple_Triangle_Dots_4.jpg,Red_Star_Grid_3.jpg,right,752.6599999982864,true,low,false
czVkjAj9,3hy86pzxq1vtv1ivc3jn7sg3anve1z,3urfvvm169v92dyj1gcmsoialg7uz9,czVkjAj9,2020-0188,2020-11-14,23:36:20,23:51:15,NA,incomplete,84,number,1,right,Red_Circle_Dots_4.jpg,Red_Star_Chess_2.jpg,Purple_Triangle_Grid_4.jpg,right,913.5149999638088,true,low,false
czVkjAj9,3hy86pzxq1vtv1ivc3jn7sg3anve1z,3urfvvm169v92dyj1gcmsoialg7uz9,czVkjAj9,2020-0188,2020-11-14,23:36:20,23:51:15,NA,incomplete,85,number,1,left,Red_Plus_Dots_1.jpg,Purple_Circle_Chess_1.jpg,Red_Star_Grid_4.jpg,left,607.979999971576,true,low,false
czVkjAj9,3hy86pzxq1vtv1ivc3jn7sg3anve1z,3urfvvm169v92dyj1gcmsoialg7uz9,czVkjAj9,2020-0188,2020-11-14,23:36:20,23:51:15,NA,incomplete,86,number,1,left,Purple_Plus_Stripes_2.jpg,Blue_Circle_Dots_2.jpg,Purple_Triangle_Grid_4.jpg,left,692.9949999903329,true,low,false
czVkjAj9,3hy86pzxq1vtv1ivc3jn7sg3anve1z,3urfvvm169v92dyj1gcmsoialg7uz9,czVkjAj9,2020-0188,2020-11-14,23:36:20,23:51:15,NA,incomplete,87,number,1,left,Red_Star_Dots_4.jpg,Blue_Plus_Chess_4.jpg,Red_Triangle_Stripes_3.jpg,left,1035.6449999962933,true,low,false
czVkjAj9,3hy86pzxq1vtv1ivc3jn7sg3anve1z,3urfvvm169v92dyj1gcmsoialg7uz9,czVkjAj9,2020-0188,2020-11-14,23:36:20,23:51:15,NA,incomplete,88,number,1,right,Purple_Star_Chess_1.jpg,Purple_Circle_Stripes_3.jpg,Blue_Plus_Dots_1.jpg,right,704.3049999629147,true,low,false
czVkjAj9,3hy86pzxq1vtv1ivc3jn7sg3anve1z,3urfvvm169v92dyj1gcmsoialg7uz9,czVkjAj9,2020-0188,2020-11-14,23:36:20,23:51:15,NA,incomplete,89,number,1,left,Purple_Circle_Dots_3.jpg,Red_Triangle_Chess_3.jpg,Purple_Plus_Stripes_4.jpg,left,711.6950000054203,true,low,false
czVkjAj9,3hy86pzxq1vtv1ivc3jn7sg3anve1z,3urfvvm169v92dyj1gcmsoialg7uz9,czVkjAj9,2020-0188,2020-11-14,23:36:20,23:51:15,NA,incomplete,90,color,1,right,Green_Star_Dots_2.jpg,Purple_Plus_Grid_2.jpg,Green_Circle_Chess_3.jpg,left,754.7800000174902,false,low,false
czVkjAj9,3hy86pzxq1vtv1ivc3jn7sg3anve1z,3urfvvm169v92dyj1gcmsoialg7uz9,czVkjAj9,2020-0188,2020-11-14,23:36:20,23:51:15,NA,incomplete,91,color,1,left,Green_Circle_Stripes_4.jpg,Green_Triangle_Dots_2.jpg,Red_Star_Grid_4.jpg,right,839.2150000436231,false,low,false
czVkjAj9,3hy86pzxq1vtv1ivc3jn7sg3anve1z,3urfvvm169v92dyj1gcmsoialg7uz9,czVkjAj9,2020-0188,2020-11-14,23:36:20,23:51:15,NA,incomplete,92,color,1,right,Red_Plus_Grid_4.jpg,Blue_Star_Stripes_4.jpg,Red_Circle_Dots_1.jpg,left,716.0300000105053,false,low,false
czVkjAj9,3hy86pzxq1vtv1ivc3jn7sg3anve1z,3urfvvm169v92dyj1gcmsoialg7uz9,czVkjAj9,2020-0188,2020-11-14,23:36:20,23:51:15,NA,incomplete,93,color,1,right,Purple_Circle_Stripes_4.jpg,Red_Triangle_Chess_4.jpg,Purple_Star_Grid_3.jpg,right,618.9049999811687,true,low,false
czVkjAj9,3hy86pzxq1vtv1ivc3jn7sg3anve1z,3urfvvm169v92dyj1gcmsoialg7uz9,czVkjAj9,2020-0188,2020-11-14,23:36:20,23:51:15,NA,incomplete,94,color,1,right,Purple_Circle_Stripes_2.jpg,Red_Triangle_Dots_2.jpg,Purple_Star_Grid_1.jpg,right,653.519999992568,true,low,false
czVkjAj9,3hy86pzxq1vtv1ivc3jn7sg3anve1z,3urfvvm169v92dyj1gcmsoialg7uz9,czVkjAj9,2020-0188,2020-11-14,23:36:20,23:51:15,NA,incomplete,95,color,0,right,Green_Circle_Stripes_2.jpg,Blue_Star_Grid_2.jpg,Green_Triangle_Chess_1.jpg,right,455.45000000856817,true,low,false
czVkjAj9,3hy86pzxq1vtv1ivc3jn7sg3anve1z,3urfvvm169v92dyj1gcmsoialg7uz9,czVkjAj9,2020-0188,2020-11-14,23:36:20,23:51:15,NA,incomplete,96,color,1,right,Green_Triangle_Stripes_3.jpg,Blue_Circle_Dots_3.jpg,Green_Star_Grid_2.jpg,left,791.3149999803863,false,low,false
czVkjAj9,3hy86pzxq1vtv1ivc3jn7sg3anve1z,3urfvvm169v92dyj1gcmsoialg7uz9,czVkjAj9,2020-0188,2020-11-14,23:36:20,23:51:15,NA,incomplete,97,color,1,left,Purple_Plus_Grid_4.jpg,Purple_Star_Chess_2.jpg,Green_Triangle_Dots_4.jpg,left,850.6550000165589,true,low,false
czVkjAj9,3hy86pzxq1vtv1ivc3jn7sg3anve1z,3urfvvm169v92dyj1gcmsoialg7uz9,czVkjAj9,2020-0188,2020-11-14,23:36:20,23:51:15,NA,incomplete,98,color,1,left,Green_Triangle_Dots_2.jpg,Green_Plus_Chess_3.jpg,Blue_Circle_Grid_2.jpg,left,734.325000026729,true,low,false
czVkjAj9,3hy86pzxq1vtv1ivc3jn7sg3anve1z,3urfvvm169v92dyj1gcmsoialg7uz9,czVkjAj9,2020-0188,2020-11-14,23:36:20,23:51:15,NA,incomplete,99,color,1,left,Purple_Circle_Chess_3.jpg,Purple_Triangle_Stripes_2.jpg,Blue_Star_Grid_3.jpg,left,591.6250000009313,true,low,false
czVkjAj9,3hy86pzxq1vtv1ivc3jn7sg3anve1z,3urfvvm169v92dyj1gcmsoialg7uz9,czVkjAj9,2020-0188,2020-11-14,23:36:20,23:51:15,NA,incomplete,100,color,1,left,Blue_Plus_Dots_2.jpg,Blue_Triangle_Grid_4.jpg,Green_Circle_Stripes_2.jpg,left,501.54000002657995,true,low,false
czVkjAj9,3hy86pzxq1vtv1ivc3jn7sg3anve1z,3urfvvm169v92dyj1gcmsoialg7uz9,czVkjAj9,2020-0188,2020-11-14,23:36:20,23:51:15,NA,incomplete,101,color,1,right,Blue_Triangle_Grid_2.jpg,Green_Circle_Stripes_2.jpg,Blue_Star_Dots_4.jpg,right,470.7399999606423,true,low,false
czVkjAj9,3hy86pzxq1vtv1ivc3jn7sg3anve1z,3urfvvm169v92dyj1gcmsoialg7uz9,czVkjAj9,2020-0188,2020-11-14,23:36:20,23:51:15,NA,incomplete,102,color,1,right,Red_Circle_Stripes_2.jpg,Green_Plus_Grid_2.jpg,Red_Triangle_Dots_3.jpg,right,497.4250000086613,true,low,false
czVkjAj9,3hy86pzxq1vtv1ivc3jn7sg3anve1z,3urfvvm169v92dyj1gcmsoialg7uz9,czVkjAj9,2020-0188,2020-11-14,23:36:20,23:51:15,NA,incomplete,103,color,0,right,Red_Circle_Stripes_4.jpg,Green_Star_Grid_4.jpg,Red_Triangle_Dots_1.jpg,right,542.7650000201538,true,low,false
czVkjAj9,3hy86pzxq1vtv1ivc3jn7sg3anve1z,3urfvvm169v92dyj1gcmsoialg7uz9,czVkjAj9,2020-0188,2020-11-14,23:36:20,23:51:15,NA,incomplete,104,color,1,left,Red_Star_Stripes_2.jpg,Red_Plus_Grid_1.jpg,Purple_Circle_Chess_2.jpg,right,1131.3550000195391,false,low,false
czVkjAj9,3hy86pzxq1vtv1ivc3jn7sg3anve1z,3urfvvm169v92dyj1gcmsoialg7uz9,czVkjAj9,2020-0188,2020-11-14,23:36:20,23:51:15,NA,incomplete,105,color,0,left,Green_Circle_Chess_3.jpg,Green_Star_Stripes_4.jpg,Blue_Triangle_Dots_3.jpg,left,684.5050000119954,true,low,false
czVkjAj9,3hy86pzxq1vtv1ivc3jn7sg3anve1z,3urfvvm169v92dyj1gcmsoialg7uz9,czVkjAj9,2020-0188,2020-11-14,23:36:20,23:51:15,NA,incomplete,106,color,1,left,Blue_Triangle_Stripes_3.jpg,Blue_Plus_Grid_2.jpg,Red_Circle_Chess_3.jpg,right,760.8100000070408,false,low,false
czVkjAj9,3hy86pzxq1vtv1ivc3jn7sg3anve1z,3urfvvm169v92dyj1gcmsoialg7uz9,czVkjAj9,2020-0188,2020-11-14,23:36:20,23:51:15,NA,incomplete,107,color,1,left,Red_Triangle_Dots_1.jpg,Red_Plus_Chess_4.jpg,Green_Circle_Stripes_1.jpg,left,531.0149999568239,true,low,false
czVkjAj9,3hy86pzxq1vtv1ivc3jn7sg3anve1z,3urfvvm169v92dyj1gcmsoialg7uz9,czVkjAj9,2020-0188,2020-11-14,23:36:20,23:51:15,NA,incomplete,108,color,1,left,Purple_Triangle_Dots_2.jpg,Purple_Circle_Grid_3.jpg,Blue_Plus_Stripes_2.jpg,left,629.6100000035949,true,low,false
czVkjAj9,3hy86pzxq1vtv1ivc3jn7sg3anve1z,3urfvvm169v92dyj1gcmsoialg7uz9,czVkjAj9,2020-0188,2020-11-14,23:36:20,23:51:15,NA,incomplete,109,color,0,right,Blue_Circle_Grid_4.jpg,Purple_Star_Stripes_4.jpg,Blue_Plus_Chess_2.jpg,right,471.5699999942444,true,low,false
czVkjAj9,3hy86pzxq1vtv1ivc3jn7sg3anve1z,3urfvvm169v92dyj1gcmsoialg7uz9,czVkjAj9,2020-0188,2020-11-14,23:36:20,23:51:15,NA,incomplete,110,color,1,left,Blue_Plus_Chess_2.jpg,Blue_Circle_Grid_3.jpg,Purple_Star_Stripes_2.jpg,left,588.3650000323541,true,low,false
czVkjAj9,3hy86pzxq1vtv1ivc3jn7sg3anve1z,3urfvvm169v92dyj1gcmsoialg7uz9,czVkjAj9,2020-0188,2020-11-14,23:36:20,23:51:15,NA,incomplete,111,color,1,right,Red_Star_Stripes_4.jpg,Blue_Circle_Grid_4.jpg,Red_Triangle_Dots_1.jpg,right,579.8700000159442,true,low,false
czVkjAj9,3hy86pzxq1vtv1ivc3jn7sg3anve1z,3urfvvm169v92dyj1gcmsoialg7uz9,czVkjAj9,2020-0188,2020-11-14,23:36:20,23:51:15,NA,incomplete,112,color,1,right,Blue_Plus_Dots_3.jpg,Green_Star_Stripes_3.jpg,Blue_Triangle_Grid_2.jpg,right,506.9849999854341,true,low,false
czVkjAj9,3hy86pzxq1vtv1ivc3jn7sg3anve1z,3urfvvm169v92dyj1gcmsoialg7uz9,czVkjAj9,2020-0188,2020-11-14,23:36:20,23:51:15,NA,incomplete,113,color,1,right,Green_Circle_Chess_4.jpg,Blue_Plus_Stripes_4.jpg,Green_Triangle_Dots_2.jpg,right,592.9500000202097,true,low,false
czVkjAj9,3hy86pzxq1vtv1ivc3jn7sg3anve1z,3urfvvm169v92dyj1gcmsoialg7uz9,czVkjAj9,2020-0188,2020-11-14,23:36:20,23:51:15,NA,incomplete,114,color,1,right,Red_Circle_Grid_4.jpg,Purple_Triangle_Stripes_4.jpg,Red_Star_Chess_3.jpg,left,885.0850000162609,false,low,false
czVkjAj9,3hy86pzxq1vtv1ivc3jn7sg3anve1z,3urfvvm169v92dyj1gcmsoialg7uz9,czVkjAj9,2020-0188,2020-11-14,23:36:20,23:51:15,NA,incomplete,115,color,1,right,Red_Plus_Grid_4.jpg,Green_Triangle_Dots_4.jpg,Red_Circle_Chess_2.jpg,right,568.3650000137277,true,low,false
czVkjAj9,3hy86pzxq1vtv1ivc3jn7sg3anve1z,3urfvvm169v92dyj1gcmsoialg7uz9,czVkjAj9,2020-0188,2020-11-14,23:36:20,23:51:15,NA,incomplete,116,color,1,right,Blue_Circle_Grid_4.jpg,Purple_Plus_Chess_4.jpg,Blue_Star_Dots_2.jpg,right,605.8600000105798,true,low,false
czVkjAj9,3hy86pzxq1vtv1ivc3jn7sg3anve1z,3urfvvm169v92dyj1gcmsoialg7uz9,czVkjAj9,2020-0188,2020-11-14,23:36:20,23:51:15,NA,incomplete,117,color,1,right,Red_Triangle_Dots_2.jpg,Purple_Plus_Grid_2.jpg,Red_Star_Chess_4.jpg,right,584.0199999511242,true,low,false
czVkjAj9,3hy86pzxq1vtv1ivc3jn7sg3anve1z,3urfvvm169v92dyj1gcmsoialg7uz9,czVkjAj9,2020-0188,2020-11-14,23:36:20,23:51:15,NA,incomplete,118,color,0,left,Green_Circle_Grid_2.jpg,Green_Plus_Dots_3.jpg,Purple_Triangle_Chess_2.jpg,right,803.9749999879859,false,low,false
czVkjAj9,3hy86pzxq1vtv1ivc3jn7sg3anve1z,3urfvvm169v92dyj1gcmsoialg7uz9,czVkjAj9,2020-0188,2020-11-14,23:36:20,23:51:15,NA,incomplete,119,color,1,right,Purple_Triangle_Stripes_4.jpg,Green_Plus_Dots_4.jpg,Purple_Star_Chess_3.jpg,right,599.9900000169873,true,low,false
czVkjAj9,3hy86pzxq1vtv1ivc3jn7sg3anve1z,3urfvvm169v92dyj1gcmsoialg7uz9,czVkjAj9,2020-0188,2020-11-14,23:36:20,23:51:15,NA,incomplete,120,number,0,left,Green_Star_Chess_2.jpg,Red_Plus_Dots_2.jpg,Green_Circle_Stripes_3.jpg,left,790.4250000137836,true,low,false
czVkjAj9,3hy86pzxq1vtv1ivc3jn7sg3anve1z,3urfvvm169v92dyj1gcmsoialg7uz9,czVkjAj9,2020-0188,2020-11-14,23:36:20,23:51:15,NA,incomplete,121,number,1,right,Blue_Plus_Dots_1.jpg,Blue_Circle_Grid_4.jpg,Red_Star_Chess_1.jpg,right,809.9200000287965,true,low,false
czVkjAj9,3hy86pzxq1vtv1ivc3jn7sg3anve1z,3urfvvm169v92dyj1gcmsoialg7uz9,czVkjAj9,2020-0188,2020-11-14,23:36:20,23:51:15,NA,incomplete,122,number,1,right,Purple_Circle_Grid_3.jpg,Purple_Star_Dots_4.jpg,Red_Triangle_Chess_3.jpg,right,837.630000023637,true,low,false
czVkjAj9,3hy86pzxq1vtv1ivc3jn7sg3anve1z,3urfvvm169v92dyj1gcmsoialg7uz9,czVkjAj9,2020-0188,2020-11-14,23:36:20,23:51:15,NA,incomplete,123,number,1,left,Green_Circle_Stripes_2.jpg,Blue_Star_Chess_2.jpg,Green_Triangle_Grid_4.jpg,right,681.2500000232831,false,low,false
czVkjAj9,3hy86pzxq1vtv1ivc3jn7sg3anve1z,3urfvvm169v92dyj1gcmsoialg7uz9,czVkjAj9,2020-0188,2020-11-14,23:36:20,23:51:15,NA,incomplete,124,number,0,left,Blue_Triangle_Grid_4.jpg,Purple_Circle_Stripes_4.jpg,Blue_Star_Chess_1.jpg,left,691.9599999673665,true,low,false
czVkjAj9,3hy86pzxq1vtv1ivc3jn7sg3anve1z,3urfvvm169v92dyj1gcmsoialg7uz9,czVkjAj9,2020-0188,2020-11-14,23:36:20,23:51:15,NA,incomplete,125,number,1,left,Purple_Triangle_Chess_2.jpg,Green_Star_Dots_2.jpg,Purple_Plus_Grid_4.jpg,right,660.3700000559911,false,low,false
czVkjAj9,3hy86pzxq1vtv1ivc3jn7sg3anve1z,3urfvvm169v92dyj1gcmsoialg7uz9,czVkjAj9,2020-0188,2020-11-14,23:36:20,23:51:15,NA,incomplete,126,number,1,left,Blue_Plus_Chess_4.jpg,Red_Star_Dots_4.jpg,Blue_Circle_Grid_2.jpg,right,647.1199999796227,false,low,false
czVkjAj9,3hy86pzxq1vtv1ivc3jn7sg3anve1z,3urfvvm169v92dyj1gcmsoialg7uz9,czVkjAj9,2020-0188,2020-11-14,23:36:20,23:51:15,NA,incomplete,127,number,1,left,Green_Plus_Chess_4.jpg,Blue_Circle_Grid_4.jpg,Green_Triangle_Dots_3.jpg,right,572.6250000298023,false,low,false
czVkjAj9,3hy86pzxq1vtv1ivc3jn7sg3anve1z,3urfvvm169v92dyj1gcmsoialg7uz9,czVkjAj9,2020-0188,2020-11-14,23:36:20,23:51:15,NA,incomplete,128,number,1,left,Blue_Circle_Stripes_1.jpg,Green_Star_Chess_1.jpg,Blue_Triangle_Dots_3.jpg,left,618.7349999672733,true,low,false
czVkjAj9,3hy86pzxq1vtv1ivc3jn7sg3anve1z,3urfvvm169v92dyj1gcmsoialg7uz9,czVkjAj9,2020-0188,2020-11-14,23:36:20,23:51:15,NA,incomplete,129,number,0,left,Green_Circle_Dots_2.jpg,Purple_Triangle_Grid_2.jpg,Green_Plus_Stripes_4.jpg,left,733.4799999953248,true,low,false
czVkjAj9,3hy86pzxq1vtv1ivc3jn7sg3anve1z,3urfvvm169v92dyj1gcmsoialg7uz9,czVkjAj9,2020-0188,2020-11-14,23:36:20,23:51:15,NA,incomplete,130,number,1,right,Red_Circle_Dots_3.jpg,Red_Plus_Chess_4.jpg,Blue_Star_Stripes_3.jpg,right,837.8549999906681,true,low,false
czVkjAj9,3hy86pzxq1vtv1ivc3jn7sg3anve1z,3urfvvm169v92dyj1gcmsoialg7uz9,czVkjAj9,2020-0188,2020-11-14,23:36:20,23:51:15,NA,incomplete,131,number,1,left,Red_Plus_Dots_3.jpg,Purple_Triangle_Grid_3.jpg,Red_Star_Stripes_2.jpg,left,888.2299999822862,true,low,false
czVkjAj9,3hy86pzxq1vtv1ivc3jn7sg3anve1z,3urfvvm169v92dyj1gcmsoialg7uz9,czVkjAj9,2020-0188,2020-11-14,23:36:20,23:51:15,NA,incomplete,132,number,1,left,Blue_Triangle_Stripes_4.jpg,Purple_Star_Dots_4.jpg,Blue_Plus_Grid_2.jpg,left,778.8949999958277,true,low,false
czVkjAj9,3hy86pzxq1vtv1ivc3jn7sg3anve1z,3urfvvm169v92dyj1gcmsoialg7uz9,czVkjAj9,2020-0188,2020-11-14,23:36:20,23:51:15,NA,incomplete,133,number,1,right,Purple_Circle_Chess_3.jpg,Purple_Triangle_Grid_4.jpg,Red_Star_Dots_3.jpg,right,709.644999995362,true,low,false
czVkjAj9,3hy86pzxq1vtv1ivc3jn7sg3anve1z,3urfvvm169v92dyj1gcmsoialg7uz9,czVkjAj9,2020-0188,2020-11-14,23:36:20,23:51:15,NA,incomplete,134,number,1,right,Red_Plus_Chess_3.jpg,Red_Triangle_Stripes_4.jpg,Green_Star_Grid_3.jpg,right,633.414999989327,true,low,false
czVkjAj9,3hy86pzxq1vtv1ivc3jn7sg3anve1z,3urfvvm169v92dyj1gcmsoialg7uz9,czVkjAj9,2020-0188,2020-11-14,23:36:20,23:51:15,NA,incomplete,135,number,0,left,Blue_Triangle_Dots_1.jpg,Red_Star_Chess_1.jpg,Blue_Plus_Stripes_4.jpg,left,643.06500001112,true,low,false
czVkjAj9,3hy86pzxq1vtv1ivc3jn7sg3anve1z,3urfvvm169v92dyj1gcmsoialg7uz9,czVkjAj9,2020-0188,2020-11-14,23:36:20,23:51:15,NA,incomplete,136,number,1,right,Purple_Triangle_Dots_3.jpg,Purple_Plus_Chess_1.jpg,Green_Star_Stripes_3.jpg,left,576.245000003837,false,low,false
czVkjAj9,3hy86pzxq1vtv1ivc3jn7sg3anve1z,3urfvvm169v92dyj1gcmsoialg7uz9,czVkjAj9,2020-0188,2020-11-14,23:36:20,23:51:15,NA,incomplete,137,number,1,right,Green_Triangle_Chess_3.jpg,Green_Star_Dots_1.jpg,Purple_Plus_Stripes_3.jpg,right,674.7100000502542,true,low,false
czVkjAj9,3hy86pzxq1vtv1ivc3jn7sg3anve1z,3urfvvm169v92dyj1gcmsoialg7uz9,czVkjAj9,2020-0188,2020-11-14,23:36:20,23:51:15,NA,incomplete,138,number,1,left,Purple_Circle_Chess_1.jpg,Red_Star_Grid_1.jpg,Purple_Triangle_Dots_2.jpg,left,638.3400000049733,true,low,false
czVkjAj9,3hy86pzxq1vtv1ivc3jn7sg3anve1z,3urfvvm169v92dyj1gcmsoialg7uz9,czVkjAj9,2020-0188,2020-11-14,23:36:20,23:51:15,NA,incomplete,139,number,1,right,Green_Plus_Chess_2.jpg,Green_Triangle_Stripes_1.jpg,Red_Circle_Grid_2.jpg,right,653.214999998454,true,low,false
czVkjAj9,3hy86pzxq1vtv1ivc3jn7sg3anve1z,3urfvvm169v92dyj1gcmsoialg7uz9,czVkjAj9,2020-0188,2020-11-14,23:36:20,23:51:15,NA,incomplete,140,color,0,left,Red_Triangle_Grid_4.jpg,Red_Star_Stripes_1.jpg,Purple_Plus_Chess_4.jpg,right,656.0100000351667,false,low,false
czVkjAj9,3hy86pzxq1vtv1ivc3jn7sg3anve1z,3urfvvm169v92dyj1gcmsoialg7uz9,czVkjAj9,2020-0188,2020-11-14,23:36:20,23:51:15,NA,incomplete,141,color,1,right,Blue_Star_Dots_2.jpg,Purple_Circle_Stripes_2.jpg,Blue_Plus_Chess_3.jpg,left,651.2349999975413,false,low,false
czVkjAj9,3hy86pzxq1vtv1ivc3jn7sg3anve1z,3urfvvm169v92dyj1gcmsoialg7uz9,czVkjAj9,2020-0188,2020-11-14,23:36:20,23:51:15,NA,incomplete,142,color,0,left,Green_Plus_Stripes_2.jpg,Green_Circle_Dots_3.jpg,Red_Triangle_Grid_2.jpg,left,502.039999992121,true,low,false
czVkjAj9,3hy86pzxq1vtv1ivc3jn7sg3anve1z,3urfvvm169v92dyj1gcmsoialg7uz9,czVkjAj9,2020-0188,2020-11-14,23:36:20,23:51:15,NA,incomplete,143,color,1,right,Red_Triangle_Grid_2.jpg,Blue_Circle_Dots_2.jpg,Red_Star_Stripes_3.jpg,left,709.5700000063516,false,low,false
czVkjAj9,3hy86pzxq1vtv1ivc3jn7sg3anve1z,3urfvvm169v92dyj1gcmsoialg7uz9,czVkjAj9,2020-0188,2020-11-14,23:36:20,23:51:15,NA,incomplete,144,color,1,left,Green_Circle_Grid_1.jpg,Green_Plus_Dots_2.jpg,Blue_Star_Chess_1.jpg,left,522.2699999576434,true,low,false
czVkjAj9,3hy86pzxq1vtv1ivc3jn7sg3anve1z,3urfvvm169v92dyj1gcmsoialg7uz9,czVkjAj9,2020-0188,2020-11-14,23:36:20,23:51:15,NA,incomplete,145,color,0,right,Red_Circle_Dots_4.jpg,Green_Star_Chess_4.jpg,Red_Plus_Stripes_2.jpg,right,532.7699999907054,true,low,false
czVkjAj9,3hy86pzxq1vtv1ivc3jn7sg3anve1z,3urfvvm169v92dyj1gcmsoialg7uz9,czVkjAj9,2020-0188,2020-11-14,23:36:20,23:51:15,NA,incomplete,146,color,1,left,Blue_Plus_Grid_4.jpg,Blue_Star_Chess_2.jpg,Purple_Triangle_Stripes_4.jpg,left,579.859999998007,true,low,false
czVkjAj9,3hy86pzxq1vtv1ivc3jn7sg3anve1z,3urfvvm169v92dyj1gcmsoialg7uz9,czVkjAj9,2020-0188,2020-11-14,23:36:20,23:51:15,NA,incomplete,147,color,1,left,Purple_Triangle_Chess_1.jpg,Purple_Star_Dots_4.jpg,Green_Plus_Stripes_1.jpg,left,547.0150000182912,true,low,false
czVkjAj9,3hy86pzxq1vtv1ivc3jn7sg3anve1z,3urfvvm169v92dyj1gcmsoialg7uz9,czVkjAj9,2020-0188,2020-11-14,23:36:20,23:51:15,NA,incomplete,148,color,1,right,Blue_Star_Stripes_2.jpg,Red_Plus_Dots_2.jpg,Blue_Circle_Chess_4.jpg,right,424.0799999679439,true,low,false
czVkjAj9,3hy86pzxq1vtv1ivc3jn7sg3anve1z,3urfvvm169v92dyj1gcmsoialg7uz9,czVkjAj9,2020-0188,2020-11-14,23:36:20,23:51:15,NA,incomplete,149,color,1,right,Purple_Star_Stripes_2.jpg,Red_Plus_Dots_2.jpg,Purple_Circle_Chess_4.jpg,right,493.6650000163354,true,low,false
czVkjAj9,3hy86pzxq1vtv1ivc3jn7sg3anve1z,3urfvvm169v92dyj1gcmsoialg7uz9,czVkjAj9,2020-0188,2020-11-14,23:36:20,23:51:15,NA,incomplete,150,color,1,left,Blue_Plus_Stripes_4.jpg,Blue_Triangle_Grid_2.jpg,Red_Star_Chess_4.jpg,left,561.1100000096485,true,low,false
czVkjAj9,3hy86pzxq1vtv1ivc3jn7sg3anve1z,3urfvvm169v92dyj1gcmsoialg7uz9,czVkjAj9,2020-0188,2020-11-14,23:36:20,23:51:15,NA,incomplete,151,color,1,left,Purple_Star_Dots_1.jpg,Purple_Circle_Chess_4.jpg,Blue_Plus_Stripes_1.jpg,right,740.9699999843724,false,low,false
czVkjAj9,3hy86pzxq1vtv1ivc3jn7sg3anve1z,3urfvvm169v92dyj1gcmsoialg7uz9,czVkjAj9,2020-0188,2020-11-14,23:36:20,23:51:15,NA,incomplete,152,color,0,left,Red_Circle_Chess_1.jpg,Red_Star_Grid_3.jpg,Blue_Triangle_Dots_1.jpg,left,576.1049999855459,true,low,false
czVkjAj9,3hy86pzxq1vtv1ivc3jn7sg3anve1z,3urfvvm169v92dyj1gcmsoialg7uz9,czVkjAj9,2020-0188,2020-11-14,23:36:20,23:51:15,NA,incomplete,153,color,1,left,Green_Triangle_Grid_2.jpg,Green_Plus_Stripes_4.jpg,Purple_Circle_Chess_2.jpg,right,740.189999982249,false,low,false
czVkjAj9,3hy86pzxq1vtv1ivc3jn7sg3anve1z,3urfvvm169v92dyj1gcmsoialg7uz9,czVkjAj9,2020-0188,2020-11-14,23:36:20,23:51:15,NA,incomplete,154,color,1,left,Red_Circle_Dots_1.jpg,Red_Plus_Chess_3.jpg,Purple_Star_Stripes_1.jpg,right,710.9049999853596,false,low,false
czVkjAj9,3hy86pzxq1vtv1ivc3jn7sg3anve1z,3urfvvm169v92dyj1gcmsoialg7uz9,czVkjAj9,2020-0188,2020-11-14,23:36:20,23:51:15,NA,incomplete,155,color,1,left,Blue_Plus_Chess_4.jpg,Blue_Circle_Grid_1.jpg,Purple_Triangle_Dots_4.jpg,right,691.7400000384077,false,low,false
czVkjAj9,3hy86pzxq1vtv1ivc3jn7sg3anve1z,3urfvvm169v92dyj1gcmsoialg7uz9,czVkjAj9,2020-0188,2020-11-14,23:36:20,23:51:15,NA,incomplete,156,color,1,right,Blue_Plus_Grid_2.jpg,Green_Star_Stripes_2.jpg,Blue_Circle_Chess_1.jpg,right,543.2000000146218,true,low,false
czVkjAj9,3hy86pzxq1vtv1ivc3jn7sg3anve1z,3urfvvm169v92dyj1gcmsoialg7uz9,czVkjAj9,2020-0188,2020-11-14,23:36:20,23:51:15,NA,incomplete,157,color,1,right,Red_Triangle_Stripes_1.jpg,Green_Circle_Grid_1.jpg,Red_Plus_Chess_4.jpg,right,514.4250000012107,true,low,false
czVkjAj9,3hy86pzxq1vtv1ivc3jn7sg3anve1z,3urfvvm169v92dyj1gcmsoialg7uz9,czVkjAj9,2020-0188,2020-11-14,23:36:20,23:51:15,NA,incomplete,158,color,0,right,Blue_Star_Grid_3.jpg,Purple_Triangle_Stripes_3.jpg,Blue_Plus_Dots_4.jpg,right,509.39000002108514,true,low,false
czVkjAj9,3hy86pzxq1vtv1ivc3jn7sg3anve1z,3urfvvm169v92dyj1gcmsoialg7uz9,czVkjAj9,2020-0188,2020-11-14,23:36:20,23:51:15,NA,incomplete,159,color,1,left,Blue_Plus_Chess_3.jpg,Blue_Triangle_Grid_2.jpg,Red_Circle_Stripes_3.jpg,right,768.5349999810569,false,low,false
czVkjAj9,3hy86pzxq1vtv1ivc3jn7sg3anve1z,3urfvvm169v92dyj1gcmsoialg7uz9,czVkjAj9,2020-0188,2020-11-14,23:36:20,23:51:15,NA,incomplete,160,number,1,right,Purple_Triangle_Stripes_3.jpg,Purple_Plus_Chess_2.jpg,Green_Circle_Grid_3.jpg,right,848.664999997709,true,low,false
czVkjAj9,3hy86pzxq1vtv1ivc3jn7sg3anve1z,3urfvvm169v92dyj1gcmsoialg7uz9,czVkjAj9,2020-0188,2020-11-14,23:36:20,23:51:15,NA,incomplete,161,number,1,right,Purple_Circle_Stripes_1.jpg,Purple_Star_Grid_2.jpg,Blue_Plus_Dots_1.jpg,left,590.5149999889545,false,low,false
czVkjAj9,3hy86pzxq1vtv1ivc3jn7sg3anve1z,3urfvvm169v92dyj1gcmsoialg7uz9,czVkjAj9,2020-0188,2020-11-14,23:36:20,23:51:15,NA,incomplete,162,number,1,left,Blue_Circle_Chess_3.jpg,Purple_Plus_Grid_3.jpg,Blue_Star_Stripes_2.jpg,left,825.6800000090152,true,low,false
czVkjAj9,3hy86pzxq1vtv1ivc3jn7sg3anve1z,3urfvvm169v92dyj1gcmsoialg7uz9,czVkjAj9,2020-0188,2020-11-14,23:36:20,23:51:15,NA,incomplete,163,number,1,left,Purple_Plus_Chess_3.jpg,Green_Circle_Stripes_3.jpg,Purple_Triangle_Dots_4.jpg,left,869.2250000312924,true,low,false
czVkjAj9,3hy86pzxq1vtv1ivc3jn7sg3anve1z,3urfvvm169v92dyj1gcmsoialg7uz9,czVkjAj9,2020-0188,2020-11-14,23:36:20,23:51:15,NA,incomplete,164,number,1,left,Green_Star_Stripes_1.jpg,Red_Triangle_Grid_1.jpg,Green_Circle_Dots_4.jpg,left,637.7299999585375,true,low,false
czVkjAj9,3hy86pzxq1vtv1ivc3jn7sg3anve1z,3urfvvm169v92dyj1gcmsoialg7uz9,czVkjAj9,2020-0188,2020-11-14,23:36:20,23:51:15,NA,incomplete,165,number,0,right,Green_Star_Dots_3.jpg,Green_Plus_Grid_1.jpg,Purple_Triangle_Stripes_3.jpg,right,662.804999970831,true,low,false
czVkjAj9,3hy86pzxq1vtv1ivc3jn7sg3anve1z,3urfvvm169v92dyj1gcmsoialg7uz9,czVkjAj9,2020-0188,2020-11-14,23:36:20,23:51:15,NA,incomplete,166,number,1,left,Blue_Star_Chess_1.jpg,Red_Plus_Dots_1.jpg,Blue_Triangle_Stripes_2.jpg,right,554.1749999974854,false,low,false
czVkjAj9,3hy86pzxq1vtv1ivc3jn7sg3anve1z,3urfvvm169v92dyj1gcmsoialg7uz9,czVkjAj9,2020-0188,2020-11-14,23:36:20,23:51:15,NA,incomplete,167,number,0,left,Green_Star_Chess_1.jpg,Purple_Circle_Stripes_1.jpg,Green_Plus_Grid_2.jpg,left,700.2900000079535,true,low,false
czVkjAj9,3hy86pzxq1vtv1ivc3jn7sg3anve1z,3urfvvm169v92dyj1gcmsoialg7uz9,czVkjAj9,2020-0188,2020-11-14,23:36:20,23:51:15,NA,incomplete,168,number,1,right,Green_Plus_Dots_2.jpg,Green_Triangle_Stripes_3.jpg,Purple_Star_Grid_2.jpg,right,839.1899999696761,true,low,false
czVkjAj9,3hy86pzxq1vtv1ivc3jn7sg3anve1z,3urfvvm169v92dyj1gcmsoialg7uz9,czVkjAj9,2020-0188,2020-11-14,23:36:20,23:51:15,NA,incomplete,169,number,0,left,Purple_Triangle_Stripes_2.jpg,Red_Star_Grid_2.jpg,Purple_Plus_Dots_3.jpg,left,723.5050000017509,true,low,false
czVkjAj9,3hy86pzxq1vtv1ivc3jn7sg3anve1z,3urfvvm169v92dyj1gcmsoialg7uz9,czVkjAj9,2020-0188,2020-11-14,23:36:20,23:51:15,NA,incomplete,170,number,1,left,Green_Circle_Stripes_3.jpg,Purple_Triangle_Dots_3.jpg,Green_Star_Chess_4.jpg,right,609.4800000428222,false,low,false
czVkjAj9,3hy86pzxq1vtv1ivc3jn7sg3anve1z,3urfvvm169v92dyj1gcmsoialg7uz9,czVkjAj9,2020-0188,2020-11-14,23:36:20,23:51:15,NA,incomplete,171,number,1,left,Red_Star_Grid_2.jpg,Purple_Triangle_Stripes_2.jpg,Red_Circle_Chess_1.jpg,left,748.7349999719299,true,low,false
czVkjAj9,3hy86pzxq1vtv1ivc3jn7sg3anve1z,3urfvvm169v92dyj1gcmsoialg7uz9,czVkjAj9,2020-0188,2020-11-14,23:36:20,23:51:15,NA,incomplete,172,number,1,left,Green_Triangle_Stripes_4.jpg,Red_Plus_Dots_4.jpg,Green_Circle_Grid_2.jpg,left,922.1549999783747,true,low,false
czVkjAj9,3hy86pzxq1vtv1ivc3jn7sg3anve1z,3urfvvm169v92dyj1gcmsoialg7uz9,czVkjAj9,2020-0188,2020-11-14,23:36:20,23:51:15,NA,incomplete,173,number,0,left,Red_Circle_Grid_4.jpg,Blue_Plus_Dots_4.jpg,Red_Star_Stripes_3.jpg,left,859.969999990426,true,low,false
czVkjAj9,3hy86pzxq1vtv1ivc3jn7sg3anve1z,3urfvvm169v92dyj1gcmsoialg7uz9,czVkjAj9,2020-0188,2020-11-14,23:36:20,23:51:15,NA,incomplete,174,number,1,left,Red_Triangle_Dots_2.jpg,Purple_Plus_Grid_2.jpg,Red_Star_Stripes_1.jpg,right,668.5099999886006,false,low,false
czVkjAj9,3hy86pzxq1vtv1ivc3jn7sg3anve1z,3urfvvm169v92dyj1gcmsoialg7uz9,czVkjAj9,2020-0188,2020-11-14,23:36:20,23:51:15,NA,incomplete,175,number,1,left,Blue_Plus_Grid_3.jpg,Purple_Star_Dots_3.jpg,Blue_Triangle_Stripes_1.jpg,left,709.2200000188313,true,low,false
czVkjAj9,3hy86pzxq1vtv1ivc3jn7sg3anve1z,3urfvvm169v92dyj1gcmsoialg7uz9,czVkjAj9,2020-0188,2020-11-14,23:36:20,23:51:15,NA,incomplete,176,number,1,right,Red_Circle_Stripes_2.jpg,Red_Star_Dots_3.jpg,Blue_Plus_Chess_2.jpg,right,782.7600000309758,true,low,false
czVkjAj9,3hy86pzxq1vtv1ivc3jn7sg3anve1z,3urfvvm169v92dyj1gcmsoialg7uz9,czVkjAj9,2020-0188,2020-11-14,23:36:20,23:51:15,NA,incomplete,177,number,1,right,Purple_Circle_Dots_2.jpg,Purple_Star_Stripes_4.jpg,Blue_Triangle_Chess_2.jpg,right,754.7199999680743,true,low,false
czVkjAj9,3hy86pzxq1vtv1ivc3jn7sg3anve1z,3urfvvm169v92dyj1gcmsoialg7uz9,czVkjAj9,2020-0188,2020-11-14,23:36:20,23:51:15,NA,incomplete,178,number,1,right,Red_Circle_Dots_3.jpg,Red_Triangle_Stripes_2.jpg,Green_Star_Grid_3.jpg,right,682.4499999638647,true,low,false
czVkjAj9,3hy86pzxq1vtv1ivc3jn7sg3anve1z,3urfvvm169v92dyj1gcmsoialg7uz9,czVkjAj9,2020-0188,2020-11-14,23:36:20,23:51:15,NA,incomplete,179,number,1,right,Blue_Star_Grid_2.jpg,Blue_Plus_Chess_1.jpg,Red_Circle_Dots_2.jpg,right,783.5349999950267,true,low,false
czVkjAj9,3hy86pzxq1vtv1ivc3jn7sg3anve1z,3urfvvm169v92dyj1gcmsoialg7uz9,czVkjAj9,2020-0188,2020-11-14,23:36:20,23:51:15,NA,incomplete,180,color,1,right,Green_Star_Grid_3.jpg,Blue_Plus_Stripes_3.jpg,Green_Triangle_Chess_4.jpg,left,822.0499999588355,false,low,false
czVkjAj9,3hy86pzxq1vtv1ivc3jn7sg3anve1z,3urfvvm169v92dyj1gcmsoialg7uz9,czVkjAj9,2020-0188,2020-11-14,23:36:20,23:51:15,NA,incomplete,181,color,1,left,Blue_Star_Stripes_3.jpg,Blue_Circle_Chess_4.jpg,Green_Plus_Grid_3.jpg,right,757.3349999729544,false,low,false
czVkjAj9,3hy86pzxq1vtv1ivc3jn7sg3anve1z,3urfvvm169v92dyj1gcmsoialg7uz9,czVkjAj9,2020-0188,2020-11-14,23:36:20,23:51:15,NA,incomplete,182,color,0,right,Red_Triangle_Stripes_3.jpg,Blue_Plus_Chess_3.jpg,Red_Star_Dots_4.jpg,right,681.5499999793246,true,low,false
czVkjAj9,3hy86pzxq1vtv1ivc3jn7sg3anve1z,3urfvvm169v92dyj1gcmsoialg7uz9,czVkjAj9,2020-0188,2020-11-14,23:36:20,23:51:15,NA,incomplete,183,color,1,right,Blue_Star_Chess_1.jpg,Red_Triangle_Dots_1.jpg,Blue_Circle_Grid_4.jpg,right,458.03999999770895,true,low,false
czVkjAj9,3hy86pzxq1vtv1ivc3jn7sg3anve1z,3urfvvm169v92dyj1gcmsoialg7uz9,czVkjAj9,2020-0188,2020-11-14,23:36:20,23:51:15,NA,incomplete,184,color,0,right,Blue_Triangle_Dots_3.jpg,Red_Plus_Grid_3.jpg,Blue_Star_Chess_2.jpg,right,728.0700000119396,true,low,false
czVkjAj9,3hy86pzxq1vtv1ivc3jn7sg3anve1z,3urfvvm169v92dyj1gcmsoialg7uz9,czVkjAj9,2020-0188,2020-11-14,23:36:20,23:51:15,NA,incomplete,185,color,1,right,Red_Star_Stripes_3.jpg,Blue_Triangle_Dots_3.jpg,Red_Plus_Grid_1.jpg,left,811.504999990575,false,low,false
czVkjAj9,3hy86pzxq1vtv1ivc3jn7sg3anve1z,3urfvvm169v92dyj1gcmsoialg7uz9,czVkjAj9,2020-0188,2020-11-14,23:36:20,23:51:15,NA,incomplete,186,color,1,left,Red_Triangle_Dots_3.jpg,Red_Star_Chess_4.jpg,Green_Plus_Stripes_3.jpg,right,865.2149999979883,false,low,false
czVkjAj9,3hy86pzxq1vtv1ivc3jn7sg3anve1z,3urfvvm169v92dyj1gcmsoialg7uz9,czVkjAj9,2020-0188,2020-11-14,23:36:20,23:51:15,NA,incomplete,187,color,1,right,Purple_Star_Dots_1.jpg,Red_Circle_Chess_1.jpg,Purple_Triangle_Stripes_2.jpg,right,590.3150000376627,true,low,false
czVkjAj9,3hy86pzxq1vtv1ivc3jn7sg3anve1z,3urfvvm169v92dyj1gcmsoialg7uz9,czVkjAj9,2020-0188,2020-11-14,23:36:20,23:51:15,NA,incomplete,188,color,1,right,Green_Star_Stripes_3.jpg,Red_Plus_Grid_3.jpg,Green_Triangle_Chess_2.jpg,right,523.1599999824539,true,low,false
czVkjAj9,3hy86pzxq1vtv1ivc3jn7sg3anve1z,3urfvvm169v92dyj1gcmsoialg7uz9,czVkjAj9,2020-0188,2020-11-14,23:36:20,23:51:15,NA,incomplete,189,color,0,right,Red_Triangle_Chess_4.jpg,Green_Plus_Grid_4.jpg,Red_Star_Stripes_2.jpg,right,760.2850000257604,true,low,false
czVkjAj9,3hy86pzxq1vtv1ivc3jn7sg3anve1z,3urfvvm169v92dyj1gcmsoialg7uz9,czVkjAj9,2020-0188,2020-11-14,23:36:20,23:51:15,NA,incomplete,190,color,1,right,Purple_Star_Dots_3.jpg,Green_Plus_Stripes_3.jpg,Purple_Triangle_Grid_2.jpg,left,852.7350000222214,false,low,false
czVkjAj9,3hy86pzxq1vtv1ivc3jn7sg3anve1z,3urfvvm169v92dyj1gcmsoialg7uz9,czVkjAj9,2020-0188,2020-11-14,23:36:20,23:51:15,NA,incomplete,191,color,1,right,Green_Plus_Stripes_1.jpg,Blue_Triangle_Grid_1.jpg,Green_Circle_Chess_3.jpg,right,527.2949999780394,true,low,false
czVkjAj9,3hy86pzxq1vtv1ivc3jn7sg3anve1z,3urfvvm169v92dyj1gcmsoialg7uz9,czVkjAj9,2020-0188,2020-11-14,23:36:20,23:51:15,NA,incomplete,192,color,1,right,Purple_Star_Dots_3.jpg,Red_Triangle_Grid_3.jpg,Purple_Plus_Stripes_1.jpg,right,540.1599999750033,true,low,false
czVkjAj9,3hy86pzxq1vtv1ivc3jn7sg3anve1z,3urfvvm169v92dyj1gcmsoialg7uz9,czVkjAj9,2020-0188,2020-11-14,23:36:20,23:51:15,NA,incomplete,193,color,1,left,Green_Triangle_Stripes_4.jpg,Green_Plus_Grid_1.jpg,Purple_Star_Dots_4.jpg,left,592.1550000202842,true,low,false
czVkjAj9,3hy86pzxq1vtv1ivc3jn7sg3anve1z,3urfvvm169v92dyj1gcmsoialg7uz9,czVkjAj9,2020-0188,2020-11-14,23:36:20,23:51:15,NA,incomplete,194,color,0,left,Purple_Star_Grid_4.jpg,Purple_Triangle_Chess_3.jpg,Blue_Plus_Dots_4.jpg,right,816.6499999933876,false,low,false
czVkjAj9,3hy86pzxq1vtv1ivc3jn7sg3anve1z,3urfvvm169v92dyj1gcmsoialg7uz9,czVkjAj9,2020-0188,2020-11-14,23:36:20,23:51:15,NA,incomplete,195,color,1,left,Green_Circle_Chess_4.jpg,Green_Star_Grid_1.jpg,Red_Triangle_Stripes_4.jpg,left,525.4600000334904,true,low,false
czVkjAj9,3hy86pzxq1vtv1ivc3jn7sg3anve1z,3urfvvm169v92dyj1gcmsoialg7uz9,czVkjAj9,2020-0188,2020-11-14,23:36:20,23:51:15,NA,incomplete,196,color,1,right,Purple_Triangle_Chess_3.jpg,Red_Circle_Stripes_3.jpg,Purple_Plus_Dots_1.jpg,right,543.500000028871,true,low,false
czVkjAj9,3hy86pzxq1vtv1ivc3jn7sg3anve1z,3urfvvm169v92dyj1gcmsoialg7uz9,czVkjAj9,2020-0188,2020-11-14,23:36:20,23:51:15,NA,incomplete,197,color,1,left,Purple_Plus_Chess_2.jpg,Purple_Circle_Grid_1.jpg,Red_Star_Dots_2.jpg,left,817.1849999926053,true,low,false
czVkjAj9,3hy86pzxq1vtv1ivc3jn7sg3anve1z,3urfvvm169v92dyj1gcmsoialg7uz9,czVkjAj9,2020-0188,2020-11-14,23:36:20,23:51:15,NA,incomplete,198,color,1,left,Green_Star_Grid_4.jpg,Green_Plus_Stripes_1.jpg,Blue_Circle_Chess_4.jpg,right,635.2850000257604,false,low,false
czVkjAj9,3hy86pzxq1vtv1ivc3jn7sg3anve1z,3urfvvm169v92dyj1gcmsoialg7uz9,czVkjAj9,2020-0188,2020-11-14,23:36:20,23:51:15,NA,incomplete,199,color,1,right,Purple_Plus_Dots_2.jpg,Blue_Triangle_Chess_2.jpg,Purple_Circle_Grid_1.jpg,left,713.8949999934994,false,low,false
czVkjAj9,3hy86pzxq1vtv1ivc3jn7sg3anve1z,3urfvvm169v92dyj1gcmsoialg7uz9,czVkjAj9,2020-0188,2020-11-14,23:36:20,23:51:15,NA,incomplete,200,number,0,right,Blue_Plus_Chess_1.jpg,Blue_Star_Stripes_2.jpg,Red_Triangle_Grid_1.jpg,left,511.26999995904043,false,low,false
czVkjAj9,3hy86pzxq1vtv1ivc3jn7sg3anve1z,3urfvvm169v92dyj1gcmsoialg7uz9,czVkjAj9,2020-0188,2020-11-14,23:36:20,23:51:15,NA,incomplete,201,number,1,right,Red_Triangle_Dots_2.jpg,Red_Plus_Grid_4.jpg,Purple_Circle_Chess_2.jpg,left,631.4349999884143,false,low,false
czVkjAj9,3hy86pzxq1vtv1ivc3jn7sg3anve1z,3urfvvm169v92dyj1gcmsoialg7uz9,czVkjAj9,2020-0188,2020-11-14,23:36:20,23:51:15,NA,incomplete,202,number,0,right,Red_Plus_Dots_2.jpg,Red_Star_Chess_3.jpg,Green_Circle_Grid_2.jpg,right,624.7650000150315,true,low,false
czVkjAj9,3hy86pzxq1vtv1ivc3jn7sg3anve1z,3urfvvm169v92dyj1gcmsoialg7uz9,czVkjAj9,2020-0188,2020-11-14,23:36:20,23:51:15,NA,incomplete,203,number,1,right,Blue_Triangle_Grid_2.jpg,Blue_Star_Stripes_4.jpg,Red_Plus_Chess_2.jpg,left,493.4750000247732,false,low,false
czVkjAj9,3hy86pzxq1vtv1ivc3jn7sg3anve1z,3urfvvm169v92dyj1gcmsoialg7uz9,czVkjAj9,2020-0188,2020-11-14,23:36:20,23:51:15,NA,incomplete,204,number,1,left,Blue_Triangle_Grid_4.jpg,Purple_Star_Chess_4.jpg,Blue_Circle_Stripes_1.jpg,left,883.0350000062026,true,low,false
czVkjAj9,3hy86pzxq1vtv1ivc3jn7sg3anve1z,3urfvvm169v92dyj1gcmsoialg7uz9,czVkjAj9,2020-0188,2020-11-14,23:36:20,23:51:15,NA,incomplete,205,number,1,right,Red_Circle_Chess_2.jpg,Red_Plus_Dots_4.jpg,Green_Star_Grid_2.jpg,right,782.8650000155903,true,low,false
czVkjAj9,3hy86pzxq1vtv1ivc3jn7sg3anve1z,3urfvvm169v92dyj1gcmsoialg7uz9,czVkjAj9,2020-0188,2020-11-14,23:36:20,23:51:15,NA,incomplete,206,number,1,left,Green_Triangle_Stripes_4.jpg,Purple_Plus_Chess_4.jpg,Green_Star_Grid_3.jpg,left,812.1249999967404,true,low,false
czVkjAj9,3hy86pzxq1vtv1ivc3jn7sg3anve1z,3urfvvm169v92dyj1gcmsoialg7uz9,czVkjAj9,2020-0188,2020-11-14,23:36:20,23:51:15,NA,incomplete,207,number,1,left,Blue_Star_Grid_3.jpg,Green_Circle_Chess_3.jpg,Blue_Triangle_Stripes_1.jpg,left,786.1150000244379,true,low,false
czVkjAj9,3hy86pzxq1vtv1ivc3jn7sg3anve1z,3urfvvm169v92dyj1gcmsoialg7uz9,czVkjAj9,2020-0188,2020-11-14,23:36:20,23:51:15,NA,incomplete,208,number,1,left,Red_Plus_Chess_2.jpg,Purple_Triangle_Stripes_2.jpg,Red_Star_Dots_1.jpg,right,688.9000000082888,false,low,false
czVkjAj9,3hy86pzxq1vtv1ivc3jn7sg3anve1z,3urfvvm169v92dyj1gcmsoialg7uz9,czVkjAj9,2020-0188,2020-11-14,23:36:20,23:51:15,NA,incomplete,209,number,1,right,Red_Star_Grid_1.jpg,Red_Plus_Chess_2.jpg,Green_Circle_Dots_1.jpg,right,649.2500000167638,true,low,false
czVkjAj9,3hy86pzxq1vtv1ivc3jn7sg3anve1z,3urfvvm169v92dyj1gcmsoialg7uz9,czVkjAj9,2020-0188,2020-11-14,23:36:20,23:51:15,NA,incomplete,210,number,1,left,Purple_Plus_Dots_4.jpg,Blue_Circle_Grid_4.jpg,Purple_Star_Stripes_2.jpg,left,752.6749999960884,true,low,false
czVkjAj9,3hy86pzxq1vtv1ivc3jn7sg3anve1z,3urfvvm169v92dyj1gcmsoialg7uz9,czVkjAj9,2020-0188,2020-11-14,23:36:20,23:51:15,NA,incomplete,211,number,1,left,Blue_Triangle_Dots_4.jpg,Purple_Star_Chess_4.jpg,Blue_Plus_Grid_2.jpg,left,671.585000003688,true,low,false
czVkjAj9,3hy86pzxq1vtv1ivc3jn7sg3anve1z,3urfvvm169v92dyj1gcmsoialg7uz9,czVkjAj9,2020-0188,2020-11-14,23:36:20,23:51:15,NA,incomplete,212,number,1,right,Red_Triangle_Grid_3.jpg,Red_Star_Dots_1.jpg,Purple_Plus_Stripes_3.jpg,right,614.1499999794178,true,low,false
czVkjAj9,3hy86pzxq1vtv1ivc3jn7sg3anve1z,3urfvvm169v92dyj1gcmsoialg7uz9,czVkjAj9,2020-0188,2020-11-14,23:36:20,23:51:15,NA,incomplete,213,number,1,right,Purple_Circle_Grid_2.jpg,Purple_Plus_Stripes_1.jpg,Blue_Triangle_Dots_2.jpg,right,652.9449999798089,true,low,false
czVkjAj9,3hy86pzxq1vtv1ivc3jn7sg3anve1z,3urfvvm169v92dyj1gcmsoialg7uz9,czVkjAj9,2020-0188,2020-11-14,23:36:20,23:51:15,NA,incomplete,214,number,0,right,Green_Circle_Stripes_2.jpg,Green_Star_Grid_3.jpg,Purple_Triangle_Dots_2.jpg,right,547.8499999735504,true,low,false
czVkjAj9,3hy86pzxq1vtv1ivc3jn7sg3anve1z,3urfvvm169v92dyj1gcmsoialg7uz9,czVkjAj9,2020-0188,2020-11-14,23:36:20,23:51:15,NA,incomplete,215,number,1,left,Blue_Plus_Dots_2.jpg,Green_Triangle_Grid_2.jpg,Blue_Circle_Chess_3.jpg,right,572.3700000089593,false,low,false
czVkjAj9,3hy86pzxq1vtv1ivc3jn7sg3anve1z,3urfvvm169v92dyj1gcmsoialg7uz9,czVkjAj9,2020-0188,2020-11-14,23:36:20,23:51:15,NA,incomplete,216,number,0,left,Blue_Star_Stripes_1.jpg,Green_Circle_Grid_1.jpg,Blue_Triangle_Dots_3.jpg,left,670.685000019148,true,low,false
czVkjAj9,3hy86pzxq1vtv1ivc3jn7sg3anve1z,3urfvvm169v92dyj1gcmsoialg7uz9,czVkjAj9,2020-0188,2020-11-14,23:36:20,23:51:15,NA,incomplete,217,number,1,left,Purple_Plus_Grid_4.jpg,Red_Circle_Chess_4.jpg,Purple_Triangle_Dots_1.jpg,left,763.6599999968894,true,low,false
czVkjAj9,3hy86pzxq1vtv1ivc3jn7sg3anve1z,3urfvvm169v92dyj1gcmsoialg7uz9,czVkjAj9,2020-0188,2020-11-14,23:36:20,23:51:15,NA,incomplete,218,number,0,right,Green_Circle_Chess_2.jpg,Green_Triangle_Grid_4.jpg,Blue_Plus_Stripes_2.jpg,left,750.0550000113435,false,low,false
czVkjAj9,3hy86pzxq1vtv1ivc3jn7sg3anve1z,3urfvvm169v92dyj1gcmsoialg7uz9,czVkjAj9,2020-0188,2020-11-14,23:36:20,23:51:15,NA,incomplete,219,number,1,left,Green_Star_Stripes_4.jpg,Purple_Triangle_Grid_4.jpg,Green_Plus_Chess_3.jpg,right,474.58500001812354,false,low,false
czVkjAj9,3hy86pzxq1vtv1ivc3jn7sg3anve1z,3urfvvm169v92dyj1gcmsoialg7uz9,czVkjAj9,2020-0188,2020-11-14,23:36:20,23:51:15,NA,incomplete,220,color,1,left,Green_Triangle_Grid_4.jpg,Green_Star_Dots_2.jpg,Blue_Circle_Chess_4.jpg,right,801.4749999856576,false,low,false
czVkjAj9,3hy86pzxq1vtv1ivc3jn7sg3anve1z,3urfvvm169v92dyj1gcmsoialg7uz9,czVkjAj9,2020-0188,2020-11-14,23:36:20,23:51:15,NA,incomplete,221,color,1,left,Red_Star_Stripes_4.jpg,Red_Triangle_Chess_1.jpg,Blue_Circle_Dots_4.jpg,left,509.4999999855645,true,low,false
czVkjAj9,3hy86pzxq1vtv1ivc3jn7sg3anve1z,3urfvvm169v92dyj1gcmsoialg7uz9,czVkjAj9,2020-0188,2020-11-14,23:36:20,23:51:15,NA,incomplete,222,color,1,right,Red_Triangle_Stripes_4.jpg,Green_Plus_Chess_4.jpg,Red_Circle_Grid_1.jpg,right,504.04999998863786,true,low,false
czVkjAj9,3hy86pzxq1vtv1ivc3jn7sg3anve1z,3urfvvm169v92dyj1gcmsoialg7uz9,czVkjAj9,2020-0188,2020-11-14,23:36:20,23:51:15,NA,incomplete,223,color,1,left,Blue_Triangle_Grid_3.jpg,Blue_Circle_Stripes_1.jpg,Green_Star_Dots_3.jpg,left,549.9800000106916,true,low,false
czVkjAj9,3hy86pzxq1vtv1ivc3jn7sg3anve1z,3urfvvm169v92dyj1gcmsoialg7uz9,czVkjAj9,2020-0188,2020-11-14,23:36:20,23:51:15,NA,incomplete,224,color,1,right,Blue_Star_Grid_4.jpg,Purple_Circle_Dots_4.jpg,Blue_Plus_Stripes_2.jpg,right,467.48499997192994,true,low,false
czVkjAj9,3hy86pzxq1vtv1ivc3jn7sg3anve1z,3urfvvm169v92dyj1gcmsoialg7uz9,czVkjAj9,2020-0188,2020-11-14,23:36:20,23:51:15,NA,incomplete,225,color,1,right,Red_Plus_Dots_2.jpg,Purple_Circle_Stripes_2.jpg,Red_Star_Chess_3.jpg,right,444.31500002974644,true,low,false
czVkjAj9,3hy86pzxq1vtv1ivc3jn7sg3anve1z,3urfvvm169v92dyj1gcmsoialg7uz9,czVkjAj9,2020-0188,2020-11-14,23:36:20,23:51:15,NA,incomplete,226,color,1,right,Purple_Circle_Stripes_4.jpg,Red_Triangle_Dots_4.jpg,Purple_Plus_Grid_1.jpg,right,520.0250000343658,true,low,false
czVkjAj9,3hy86pzxq1vtv1ivc3jn7sg3anve1z,3urfvvm169v92dyj1gcmsoialg7uz9,czVkjAj9,2020-0188,2020-11-14,23:36:20,23:51:15,NA,incomplete,227,color,1,left,Green_Triangle_Grid_4.jpg,Green_Star_Stripes_1.jpg,Purple_Circle_Chess_4.jpg,left,511.545000015758,true,low,false
czVkjAj9,3hy86pzxq1vtv1ivc3jn7sg3anve1z,3urfvvm169v92dyj1gcmsoialg7uz9,czVkjAj9,2020-0188,2020-11-14,23:36:20,23:51:15,NA,incomplete,228,color,0,right,Red_Star_Chess_4.jpg,Blue_Plus_Stripes_4.jpg,Red_Triangle_Dots_1.jpg,right,385.2799999876879,true,low,false
czVkjAj9,3hy86pzxq1vtv1ivc3jn7sg3anve1z,3urfvvm169v92dyj1gcmsoialg7uz9,czVkjAj9,2020-0188,2020-11-14,23:36:20,23:51:15,NA,incomplete,229,color,1,left,Purple_Star_Grid_1.jpg,Purple_Circle_Chess_2.jpg,Blue_Plus_Stripes_1.jpg,right,638.150000013411,false,low,false
czVkjAj9,3hy86pzxq1vtv1ivc3jn7sg3anve1z,3urfvvm169v92dyj1gcmsoialg7uz9,czVkjAj9,2020-0188,2020-11-14,23:36:20,23:51:15,NA,incomplete,230,color,1,left,Blue_Plus_Dots_4.jpg,Blue_Star_Chess_2.jpg,Red_Circle_Grid_4.jpg,left,587.0949999662116,true,low,false
czVkjAj9,3hy86pzxq1vtv1ivc3jn7sg3anve1z,3urfvvm169v92dyj1gcmsoialg7uz9,czVkjAj9,2020-0188,2020-11-14,23:36:20,23:51:15,NA,incomplete,231,color,1,right,Red_Circle_Dots_3.jpg,Purple_Star_Chess_3.jpg,Red_Triangle_Stripes_4.jpg,right,376.7200000002049,true,low,false
czVkjAj9,3hy86pzxq1vtv1ivc3jn7sg3anve1z,3urfvvm169v92dyj1gcmsoialg7uz9,czVkjAj9,2020-0188,2020-11-14,23:36:20,23:51:15,NA,incomplete,232,color,1,left,Green_Triangle_Stripes_1.jpg,Green_Star_Chess_2.jpg,Red_Plus_Grid_1.jpg,left,446.9050000188872,true,low,false
czVkjAj9,3hy86pzxq1vtv1ivc3jn7sg3anve1z,3urfvvm169v92dyj1gcmsoialg7uz9,czVkjAj9,2020-0188,2020-11-14,23:36:20,23:51:15,NA,incomplete,233,color,1,right,Blue_Circle_Chess_1.jpg,Purple_Triangle_Grid_1.jpg,Blue_Star_Dots_4.jpg,right,397.4199999938719,true,low,false
czVkjAj9,3hy86pzxq1vtv1ivc3jn7sg3anve1z,3urfvvm169v92dyj1gcmsoialg7uz9,czVkjAj9,2020-0188,2020-11-14,23:36:20,23:51:15,NA,incomplete,234,color,1,left,Green_Circle_Stripes_3.jpg,Green_Star_Dots_4.jpg,Purple_Plus_Grid_3.jpg,left,504.1599999531172,true,low,false
czVkjAj9,3hy86pzxq1vtv1ivc3jn7sg3anve1z,3urfvvm169v92dyj1gcmsoialg7uz9,czVkjAj9,2020-0188,2020-11-14,23:36:20,23:51:15,NA,incomplete,235,color,0,right,Red_Star_Dots_1.jpg,Purple_Plus_Grid_1.jpg,Red_Circle_Chess_2.jpg,right,429.1250000242144,true,low,false
czVkjAj9,3hy86pzxq1vtv1ivc3jn7sg3anve1z,3urfvvm169v92dyj1gcmsoialg7uz9,czVkjAj9,2020-0188,2020-11-14,23:36:20,23:51:15,NA,incomplete,236,color,1,right,Red_Plus_Grid_4.jpg,Blue_Circle_Chess_4.jpg,Red_Star_Dots_2.jpg,left,896.2699999683537,false,low,false
czVkjAj9,3hy86pzxq1vtv1ivc3jn7sg3anve1z,3urfvvm169v92dyj1gcmsoialg7uz9,czVkjAj9,2020-0188,2020-11-14,23:36:20,23:51:15,NA,incomplete,237,color,1,left,Purple_Circle_Grid_1.jpg,Purple_Triangle_Dots_2.jpg,Green_Plus_Chess_1.jpg,right,619.5699999807402,false,low,false
czVkjAj9,3hy86pzxq1vtv1ivc3jn7sg3anve1z,3urfvvm169v92dyj1gcmsoialg7uz9,czVkjAj9,2020-0188,2020-11-14,23:36:20,23:51:15,NA,incomplete,238,color,1,right,Green_Plus_Grid_3.jpg,Red_Star_Dots_3.jpg,Green_Triangle_Stripes_4.jpg,right,469.10500002559274,true,low,false
czVkjAj9,3hy86pzxq1vtv1ivc3jn7sg3anve1z,3urfvvm169v92dyj1gcmsoialg7uz9,czVkjAj9,2020-0188,2020-11-14,23:36:20,23:51:15,NA,incomplete,239,color,1,left,Purple_Star_Chess_1.jpg,Purple_Triangle_Grid_4.jpg,Red_Plus_Dots_1.jpg,left,457.43000000948086,true,low,false
czVkjAj9,3hy86pzxq1vtv1ivc3jn7sg3anve1z,3urfvvm169v92dyj1gcmsoialg7uz9,czVkjAj9,2020-0188,2020-11-14,23:36:20,23:51:15,868853.7650000071,895993.2850000332,NA,NA,NA,NA,NA,NA,NA,NA,NA,NA,NA,undefined
