workerId,hitId,assignmentId,subject,studyid,exp_date,exp_start,exp_end,time_start,time_end,trial,type,reward_validity,answer,image_top,image_left,image_right,response,response_time,response_acc,volatility,practice
6hpuoF6S,36d1bwbeiqeywas4c57kpjvh4xs2mi,3uxuoq9okia63uefcg3c13dg4hda7o,6hpuoF6S,2020-0188,2020-05-07,18:50:43,19:09:11,NA,incomplete,0,color,1,left,Green_Circle_Chess_2.jpg,Green_Triangle_Dots_1.jpg,Blue_Plus_Chess_3.jpg,left,950,true,NA,true
6hpuoF6S,36d1bwbeiqeywas4c57kpjvh4xs2mi,3uxuoq9okia63uefcg3c13dg4hda7o,6hpuoF6S,2020-0188,2020-05-07,18:50:43,19:09:11,NA,incomplete,1,color,1,right,Red_Plus_Dots_3.jpg,Green_Circle_Dots_2.jpg,Red_Triangle_Chess_1.jpg,right,773,true,NA,true
6hpuoF6S,36d1bwbeiqeywas4c57kpjvh4xs2mi,3uxuoq9okia63uefcg3c13dg4hda7o,6hpuoF6S,2020-0188,2020-05-07,18:50:43,19:09:11,NA,incomplete,2,color,1,left,Red_Plus_Chess_3.jpg,Red_Circle_Dots_2.jpg,Blue_Star_Chess_1.jpg,left,602,true,NA,true
6hpuoF6S,36d1bwbeiqeywas4c57kpjvh4xs2mi,3uxuoq9okia63uefcg3c13dg4hda7o,6hpuoF6S,2020-0188,2020-05-07,18:50:43,19:09:11,NA,incomplete,3,color,1,right,Purple_Circle_Stripes_4.jpg,Blue_Triangle_Stripes_1.jpg,Purple_Star_Grid_3.jpg,right,677,true,NA,true
6hpuoF6S,36d1bwbeiqeywas4c57kpjvh4xs2mi,3uxuoq9okia63uefcg3c13dg4hda7o,6hpuoF6S,2020-0188,2020-05-07,18:50:43,19:09:11,NA,incomplete,4,color,0,left,Green_Star_Dots_3.jpg,Green_Plus_Grid_4.jpg,Purple_Triangle_Dots_1.jpg,left,605,true,NA,true
6hpuoF6S,36d1bwbeiqeywas4c57kpjvh4xs2mi,3uxuoq9okia63uefcg3c13dg4hda7o,6hpuoF6S,2020-0188,2020-05-07,18:50:43,19:09:11,NA,incomplete,5,color,1,right,Blue_Star_Stripes_3.jpg,Purple_Plus_Stripes_4.jpg,Blue_Circle_Chess_1.jpg,right,809,true,NA,true
6hpuoF6S,36d1bwbeiqeywas4c57kpjvh4xs2mi,3uxuoq9okia63uefcg3c13dg4hda7o,6hpuoF6S,2020-0188,2020-05-07,18:50:43,19:09:11,NA,incomplete,6,color,1,left,Red_Triangle_Stripes_1.jpg,Red_Star_Dots_3.jpg,Green_Plus_Stripes_4.jpg,left,660,true,NA,true
6hpuoF6S,36d1bwbeiqeywas4c57kpjvh4xs2mi,3uxuoq9okia63uefcg3c13dg4hda7o,6hpuoF6S,2020-0188,2020-05-07,18:50:43,19:09:11,NA,incomplete,7,color,1,right,Purple_Circle_Chess_4.jpg,Blue_Star_Chess_2.jpg,Purple_Triangle_Stripes_1.jpg,right,740,true,NA,true
6hpuoF6S,36d1bwbeiqeywas4c57kpjvh4xs2mi,3uxuoq9okia63uefcg3c13dg4hda7o,6hpuoF6S,2020-0188,2020-05-07,18:50:43,19:09:11,NA,incomplete,8,color,1,right,Purple_Triangle_Dots_1.jpg,Blue_Circle_Dots_2.jpg,Purple_Plus_Stripes_4.jpg,right,781,true,NA,true
6hpuoF6S,36d1bwbeiqeywas4c57kpjvh4xs2mi,3uxuoq9okia63uefcg3c13dg4hda7o,6hpuoF6S,2020-0188,2020-05-07,18:50:43,19:09:11,NA,incomplete,9,color,1,right,Red_Triangle_Dots_4.jpg,Purple_Circle_Dots_1.jpg,Red_Star_Chess_3.jpg,right,597,true,NA,true
6hpuoF6S,36d1bwbeiqeywas4c57kpjvh4xs2mi,3uxuoq9okia63uefcg3c13dg4hda7o,6hpuoF6S,2020-0188,2020-05-07,18:50:43,19:09:11,NA,incomplete,10,color,1,right,Green_Triangle_Stripes_3.jpg,Red_Circle_Stripes_4.jpg,Green_Plus_Grid_2.jpg,right,509,true,NA,true
6hpuoF6S,36d1bwbeiqeywas4c57kpjvh4xs2mi,3uxuoq9okia63uefcg3c13dg4hda7o,6hpuoF6S,2020-0188,2020-05-07,18:50:43,19:09:11,NA,incomplete,11,color,1,right,Green_Plus_Dots_2.jpg,Blue_Triangle_Dots_4.jpg,Green_Circle_Grid_1.jpg,right,709,true,NA,true
6hpuoF6S,36d1bwbeiqeywas4c57kpjvh4xs2mi,3uxuoq9okia63uefcg3c13dg4hda7o,6hpuoF6S,2020-0188,2020-05-07,18:50:43,19:09:11,NA,incomplete,12,color,1,right,Blue_Circle_Stripes_2.jpg,Purple_Plus_Stripes_1.jpg,Blue_Star_Chess_4.jpg,right,653,true,NA,true
6hpuoF6S,36d1bwbeiqeywas4c57kpjvh4xs2mi,3uxuoq9okia63uefcg3c13dg4hda7o,6hpuoF6S,2020-0188,2020-05-07,18:50:43,19:09:11,NA,incomplete,13,color,1,right,Purple_Star_Stripes_2.jpg,Green_Plus_Stripes_1.jpg,Purple_Circle_Grid_4.jpg,right,609,true,NA,true
6hpuoF6S,36d1bwbeiqeywas4c57kpjvh4xs2mi,3uxuoq9okia63uefcg3c13dg4hda7o,6hpuoF6S,2020-0188,2020-05-07,18:50:43,19:09:11,NA,incomplete,14,color,0,left,Blue_Triangle_Grid_1.jpg,Blue_Circle_Stripes_3.jpg,Green_Plus_Grid_2.jpg,left,621,true,NA,true
6hpuoF6S,36d1bwbeiqeywas4c57kpjvh4xs2mi,3uxuoq9okia63uefcg3c13dg4hda7o,6hpuoF6S,2020-0188,2020-05-07,18:50:43,19:09:11,NA,incomplete,15,color,1,left,Blue_Star_Chess_1.jpg,Blue_Triangle_Stripes_2.jpg,Purple_Plus_Chess_4.jpg,left,988,true,NA,true
6hpuoF6S,36d1bwbeiqeywas4c57kpjvh4xs2mi,3uxuoq9okia63uefcg3c13dg4hda7o,6hpuoF6S,2020-0188,2020-05-07,18:50:43,19:09:11,NA,incomplete,16,color,1,right,Red_Star_Chess_1.jpg,Green_Circle_Chess_3.jpg,Red_Plus_Grid_4.jpg,right,604,true,NA,true
6hpuoF6S,36d1bwbeiqeywas4c57kpjvh4xs2mi,3uxuoq9okia63uefcg3c13dg4hda7o,6hpuoF6S,2020-0188,2020-05-07,18:50:43,19:09:11,NA,incomplete,17,color,0,right,Blue_Plus_Stripes_2.jpg,Purple_Circle_Stripes_4.jpg,Blue_Star_Chess_3.jpg,right,535,true,NA,true
6hpuoF6S,36d1bwbeiqeywas4c57kpjvh4xs2mi,3uxuoq9okia63uefcg3c13dg4hda7o,6hpuoF6S,2020-0188,2020-05-07,18:50:43,19:09:11,NA,incomplete,18,color,0,right,Blue_Plus_Stripes_1.jpg,Green_Triangle_Stripes_2.jpg,Blue_Star_Dots_3.jpg,right,668,true,NA,true
6hpuoF6S,36d1bwbeiqeywas4c57kpjvh4xs2mi,3uxuoq9okia63uefcg3c13dg4hda7o,6hpuoF6S,2020-0188,2020-05-07,18:50:43,19:09:11,NA,incomplete,19,color,1,left,Red_Star_Stripes_1.jpg,Red_Plus_Dots_3.jpg,Green_Triangle_Stripes_4.jpg,left,804,true,NA,true
6hpuoF6S,36d1bwbeiqeywas4c57kpjvh4xs2mi,3uxuoq9okia63uefcg3c13dg4hda7o,6hpuoF6S,2020-0188,2020-05-07,18:50:43,19:09:11,NA,incomplete,20,filling,1,right,Blue_Plus_Dots_1.jpg,Blue_Triangle_Stripes_2.jpg,Purple_Circle_Dots_3.jpg,left,656,false,NA,true
6hpuoF6S,36d1bwbeiqeywas4c57kpjvh4xs2mi,3uxuoq9okia63uefcg3c13dg4hda7o,6hpuoF6S,2020-0188,2020-05-07,18:50:43,19:09:11,NA,incomplete,21,filling,1,right,Red_Star_Chess_2.jpg,Red_Triangle_Dots_4.jpg,Purple_Plus_Chess_1.jpg,right,1717,true,NA,true
6hpuoF6S,36d1bwbeiqeywas4c57kpjvh4xs2mi,3uxuoq9okia63uefcg3c13dg4hda7o,6hpuoF6S,2020-0188,2020-05-07,18:50:43,19:09:11,NA,incomplete,22,filling,1,left,Green_Plus_Stripes_2.jpg,Red_Triangle_Stripes_1.jpg,Green_Circle_Chess_3.jpg,left,1332,true,NA,true
6hpuoF6S,36d1bwbeiqeywas4c57kpjvh4xs2mi,3uxuoq9okia63uefcg3c13dg4hda7o,6hpuoF6S,2020-0188,2020-05-07,18:50:43,19:09:11,NA,incomplete,23,filling,1,right,Blue_Plus_Grid_4.jpg,Blue_Star_Stripes_2.jpg,Purple_Circle_Grid_1.jpg,right,1594,true,NA,true
6hpuoF6S,36d1bwbeiqeywas4c57kpjvh4xs2mi,3uxuoq9okia63uefcg3c13dg4hda7o,6hpuoF6S,2020-0188,2020-05-07,18:50:43,19:09:11,NA,incomplete,24,filling,1,left,Blue_Circle_Dots_2.jpg,Green_Plus_Dots_4.jpg,Blue_Triangle_Grid_1.jpg,right,1464,false,NA,true
6hpuoF6S,36d1bwbeiqeywas4c57kpjvh4xs2mi,3uxuoq9okia63uefcg3c13dg4hda7o,6hpuoF6S,2020-0188,2020-05-07,18:50:43,19:09:11,NA,incomplete,25,filling,1,right,Blue_Circle_Stripes_3.jpg,Blue_Star_Chess_1.jpg,Green_Triangle_Stripes_4.jpg,right,1119,true,NA,true
6hpuoF6S,36d1bwbeiqeywas4c57kpjvh4xs2mi,3uxuoq9okia63uefcg3c13dg4hda7o,6hpuoF6S,2020-0188,2020-05-07,18:50:43,19:09:11,NA,incomplete,26,filling,1,left,Green_Star_Grid_3.jpg,Purple_Circle_Grid_2.jpg,Green_Plus_Chess_4.jpg,left,1232,true,NA,true
6hpuoF6S,36d1bwbeiqeywas4c57kpjvh4xs2mi,3uxuoq9okia63uefcg3c13dg4hda7o,6hpuoF6S,2020-0188,2020-05-07,18:50:43,19:09:11,NA,incomplete,27,filling,0,left,Red_Plus_Chess_3.jpg,Green_Circle_Chess_2.jpg,Red_Triangle_Dots_1.jpg,left,1104,true,NA,true
6hpuoF6S,36d1bwbeiqeywas4c57kpjvh4xs2mi,3uxuoq9okia63uefcg3c13dg4hda7o,6hpuoF6S,2020-0188,2020-05-07,18:50:43,19:09:11,NA,incomplete,28,filling,0,left,Blue_Triangle_Stripes_4.jpg,Red_Plus_Stripes_3.jpg,Blue_Star_Dots_1.jpg,left,1400,true,NA,true
6hpuoF6S,36d1bwbeiqeywas4c57kpjvh4xs2mi,3uxuoq9okia63uefcg3c13dg4hda7o,6hpuoF6S,2020-0188,2020-05-07,18:50:43,19:09:11,NA,incomplete,29,filling,1,left,Purple_Circle_Chess_3.jpg,Blue_Star_Chess_2.jpg,Purple_Plus_Grid_4.jpg,left,1395,true,NA,true
6hpuoF6S,36d1bwbeiqeywas4c57kpjvh4xs2mi,3uxuoq9okia63uefcg3c13dg4hda7o,6hpuoF6S,2020-0188,2020-05-07,18:50:43,19:09:11,NA,incomplete,30,filling,1,left,Blue_Star_Grid_1.jpg,Green_Triangle_Grid_3.jpg,Blue_Circle_Dots_2.jpg,left,1431,true,NA,true
6hpuoF6S,36d1bwbeiqeywas4c57kpjvh4xs2mi,3uxuoq9okia63uefcg3c13dg4hda7o,6hpuoF6S,2020-0188,2020-05-07,18:50:43,19:09:11,NA,incomplete,31,filling,1,right,Red_Star_Chess_3.jpg,Red_Circle_Grid_4.jpg,Blue_Triangle_Chess_1.jpg,right,1319,true,NA,true
6hpuoF6S,36d1bwbeiqeywas4c57kpjvh4xs2mi,3uxuoq9okia63uefcg3c13dg4hda7o,6hpuoF6S,2020-0188,2020-05-07,18:50:43,19:09:11,NA,incomplete,32,filling,1,left,Red_Triangle_Grid_4.jpg,Green_Plus_Grid_3.jpg,Red_Circle_Dots_1.jpg,left,1198,true,NA,true
6hpuoF6S,36d1bwbeiqeywas4c57kpjvh4xs2mi,3uxuoq9okia63uefcg3c13dg4hda7o,6hpuoF6S,2020-0188,2020-05-07,18:50:43,19:09:11,NA,incomplete,33,filling,0,left,Purple_Plus_Dots_3.jpg,Blue_Circle_Dots_4.jpg,Purple_Triangle_Grid_2.jpg,left,1239,true,NA,true
6hpuoF6S,36d1bwbeiqeywas4c57kpjvh4xs2mi,3uxuoq9okia63uefcg3c13dg4hda7o,6hpuoF6S,2020-0188,2020-05-07,18:50:43,19:09:11,NA,incomplete,34,filling,1,left,Red_Plus_Stripes_4.jpg,Purple_Triangle_Stripes_1.jpg,Red_Circle_Chess_2.jpg,left,1199,true,NA,true
6hpuoF6S,36d1bwbeiqeywas4c57kpjvh4xs2mi,3uxuoq9okia63uefcg3c13dg4hda7o,6hpuoF6S,2020-0188,2020-05-07,18:50:43,19:09:11,NA,incomplete,35,filling,1,left,Purple_Circle_Chess_2.jpg,Blue_Triangle_Chess_3.jpg,Purple_Plus_Stripes_1.jpg,left,1023,true,NA,true
6hpuoF6S,36d1bwbeiqeywas4c57kpjvh4xs2mi,3uxuoq9okia63uefcg3c13dg4hda7o,6hpuoF6S,2020-0188,2020-05-07,18:50:43,19:09:11,NA,incomplete,36,filling,1,left,Green_Circle_Grid_2.jpg,Blue_Star_Grid_3.jpg,Green_Triangle_Chess_4.jpg,left,1342,true,NA,true
6hpuoF6S,36d1bwbeiqeywas4c57kpjvh4xs2mi,3uxuoq9okia63uefcg3c13dg4hda7o,6hpuoF6S,2020-0188,2020-05-07,18:50:43,19:09:11,NA,incomplete,37,filling,1,right,Purple_Triangle_Grid_3.jpg,Purple_Star_Stripes_1.jpg,Blue_Plus_Grid_4.jpg,right,1383,true,NA,true
6hpuoF6S,36d1bwbeiqeywas4c57kpjvh4xs2mi,3uxuoq9okia63uefcg3c13dg4hda7o,6hpuoF6S,2020-0188,2020-05-07,18:50:43,19:09:11,NA,incomplete,38,filling,1,left,Red_Triangle_Chess_2.jpg,Green_Plus_Chess_1.jpg,Red_Circle_Dots_3.jpg,left,1127,true,NA,true
6hpuoF6S,36d1bwbeiqeywas4c57kpjvh4xs2mi,3uxuoq9okia63uefcg3c13dg4hda7o,6hpuoF6S,2020-0188,2020-05-07,18:50:43,19:09:11,NA,incomplete,39,filling,0,left,Green_Triangle_Stripes_4.jpg,Purple_Circle_Stripes_2.jpg,Green_Star_Chess_3.jpg,left,1107,true,NA,true
6hpuoF6S,36d1bwbeiqeywas4c57kpjvh4xs2mi,3uxuoq9okia63uefcg3c13dg4hda7o,6hpuoF6S,2020-0188,2020-05-07,18:50:43,19:09:11,NA,incomplete,0,color,1,right,Red_Star_Chess_2.jpg,Green_Plus_Chess_3.jpg,Red_Triangle_Stripes_1.jpg,left,1225,false,low,false
6hpuoF6S,36d1bwbeiqeywas4c57kpjvh4xs2mi,3uxuoq9okia63uefcg3c13dg4hda7o,6hpuoF6S,2020-0188,2020-05-07,18:50:43,19:09:11,NA,incomplete,1,color,1,right,Green_Triangle_Chess_3.jpg,Red_Circle_Chess_2.jpg,Green_Plus_Stripes_1.jpg,right,850,true,low,false
6hpuoF6S,36d1bwbeiqeywas4c57kpjvh4xs2mi,3uxuoq9okia63uefcg3c13dg4hda7o,6hpuoF6S,2020-0188,2020-05-07,18:50:43,19:09:11,NA,incomplete,2,color,1,left,Green_Triangle_Stripes_1.jpg,Green_Circle_Dots_3.jpg,Red_Star_Stripes_2.jpg,left,654,true,low,false
6hpuoF6S,36d1bwbeiqeywas4c57kpjvh4xs2mi,3uxuoq9okia63uefcg3c13dg4hda7o,6hpuoF6S,2020-0188,2020-05-07,18:50:43,19:09:11,NA,incomplete,3,color,1,right,Red_Star_Stripes_2.jpg,Green_Circle_Stripes_3.jpg,Red_Triangle_Dots_1.jpg,right,809,true,low,false
6hpuoF6S,36d1bwbeiqeywas4c57kpjvh4xs2mi,3uxuoq9okia63uefcg3c13dg4hda7o,6hpuoF6S,2020-0188,2020-05-07,18:50:43,19:09:11,NA,incomplete,4,color,1,left,Red_Star_Stripes_1.jpg,Red_Circle_Dots_2.jpg,Green_Plus_Stripes_4.jpg,left,631,true,low,false
6hpuoF6S,36d1bwbeiqeywas4c57kpjvh4xs2mi,3uxuoq9okia63uefcg3c13dg4hda7o,6hpuoF6S,2020-0188,2020-05-07,18:50:43,19:09:11,NA,incomplete,5,color,1,right,Red_Circle_Chess_2.jpg,Green_Star_Chess_1.jpg,Red_Triangle_Stripes_4.jpg,right,524,true,low,false
6hpuoF6S,36d1bwbeiqeywas4c57kpjvh4xs2mi,3uxuoq9okia63uefcg3c13dg4hda7o,6hpuoF6S,2020-0188,2020-05-07,18:50:43,19:09:11,NA,incomplete,6,color,1,right,Green_Star_Stripes_1.jpg,Purple_Triangle_Stripes_4.jpg,Green_Plus_Dots_2.jpg,right,612,true,low,false
6hpuoF6S,36d1bwbeiqeywas4c57kpjvh4xs2mi,3uxuoq9okia63uefcg3c13dg4hda7o,6hpuoF6S,2020-0188,2020-05-07,18:50:43,19:09:11,NA,incomplete,7,color,1,right,Red_Circle_Grid_3.jpg,Blue_Star_Grid_4.jpg,Red_Plus_Stripes_2.jpg,right,583,true,low,false
6hpuoF6S,36d1bwbeiqeywas4c57kpjvh4xs2mi,3uxuoq9okia63uefcg3c13dg4hda7o,6hpuoF6S,2020-0188,2020-05-07,18:50:43,19:09:11,NA,incomplete,8,color,1,right,Red_Circle_Grid_1.jpg,Green_Triangle_Grid_4.jpg,Red_Plus_Stripes_2.jpg,right,574,true,low,false
6hpuoF6S,36d1bwbeiqeywas4c57kpjvh4xs2mi,3uxuoq9okia63uefcg3c13dg4hda7o,6hpuoF6S,2020-0188,2020-05-07,18:50:43,19:09:11,NA,incomplete,9,color,1,right,Purple_Circle_Dots_3.jpg,Red_Plus_Dots_4.jpg,Purple_Star_Chess_1.jpg,right,641,true,low,false
6hpuoF6S,36d1bwbeiqeywas4c57kpjvh4xs2mi,3uxuoq9okia63uefcg3c13dg4hda7o,6hpuoF6S,2020-0188,2020-05-07,18:50:43,19:09:11,NA,incomplete,10,color,1,left,Red_Circle_Grid_4.jpg,Red_Star_Stripes_3.jpg,Blue_Plus_Grid_2.jpg,left,606,true,low,false
6hpuoF6S,36d1bwbeiqeywas4c57kpjvh4xs2mi,3uxuoq9okia63uefcg3c13dg4hda7o,6hpuoF6S,2020-0188,2020-05-07,18:50:43,19:09:11,NA,incomplete,11,color,1,left,Purple_Star_Chess_4.jpg,Purple_Triangle_Stripes_2.jpg,Red_Plus_Chess_3.jpg,left,794,true,low,false
6hpuoF6S,36d1bwbeiqeywas4c57kpjvh4xs2mi,3uxuoq9okia63uefcg3c13dg4hda7o,6hpuoF6S,2020-0188,2020-05-07,18:50:43,19:09:11,NA,incomplete,12,color,0,right,Green_Plus_Grid_2.jpg,Purple_Circle_Grid_1.jpg,Green_Triangle_Stripes_3.jpg,right,778,true,low,false
6hpuoF6S,36d1bwbeiqeywas4c57kpjvh4xs2mi,3uxuoq9okia63uefcg3c13dg4hda7o,6hpuoF6S,2020-0188,2020-05-07,18:50:43,19:09:11,NA,incomplete,13,color,1,left,Green_Star_Stripes_2.jpg,Green_Plus_Grid_1.jpg,Red_Triangle_Stripes_3.jpg,right,1086,false,low,false
6hpuoF6S,36d1bwbeiqeywas4c57kpjvh4xs2mi,3uxuoq9okia63uefcg3c13dg4hda7o,6hpuoF6S,2020-0188,2020-05-07,18:50:43,19:09:11,NA,incomplete,14,color,1,left,Red_Circle_Stripes_1.jpg,Red_Triangle_Grid_3.jpg,Blue_Plus_Stripes_4.jpg,left,706,true,low,false
6hpuoF6S,36d1bwbeiqeywas4c57kpjvh4xs2mi,3uxuoq9okia63uefcg3c13dg4hda7o,6hpuoF6S,2020-0188,2020-05-07,18:50:43,19:09:11,NA,incomplete,15,color,1,right,Green_Triangle_Chess_1.jpg,Blue_Plus_Chess_4.jpg,Green_Circle_Dots_3.jpg,right,826,true,low,false
6hpuoF6S,36d1bwbeiqeywas4c57kpjvh4xs2mi,3uxuoq9okia63uefcg3c13dg4hda7o,6hpuoF6S,2020-0188,2020-05-07,18:50:43,19:09:11,NA,incomplete,16,color,1,right,Green_Triangle_Chess_2.jpg,Purple_Plus_Chess_3.jpg,Green_Circle_Dots_1.jpg,left,818,false,low,false
6hpuoF6S,36d1bwbeiqeywas4c57kpjvh4xs2mi,3uxuoq9okia63uefcg3c13dg4hda7o,6hpuoF6S,2020-0188,2020-05-07,18:50:43,19:09:11,NA,incomplete,17,color,1,left,Blue_Plus_Chess_1.jpg,Blue_Circle_Dots_4.jpg,Purple_Star_Chess_2.jpg,left,725,true,low,false
6hpuoF6S,36d1bwbeiqeywas4c57kpjvh4xs2mi,3uxuoq9okia63uefcg3c13dg4hda7o,6hpuoF6S,2020-0188,2020-05-07,18:50:43,19:09:11,NA,incomplete,18,color,0,right,Purple_Triangle_Chess_2.jpg,Red_Star_Chess_3.jpg,Purple_Circle_Grid_1.jpg,right,698,true,low,false
6hpuoF6S,36d1bwbeiqeywas4c57kpjvh4xs2mi,3uxuoq9okia63uefcg3c13dg4hda7o,6hpuoF6S,2020-0188,2020-05-07,18:50:43,19:09:11,NA,incomplete,19,color,1,right,Red_Triangle_Dots_2.jpg,Blue_Circle_Dots_1.jpg,Red_Star_Grid_4.jpg,left,998,false,low,false
6hpuoF6S,36d1bwbeiqeywas4c57kpjvh4xs2mi,3uxuoq9okia63uefcg3c13dg4hda7o,6hpuoF6S,2020-0188,2020-05-07,18:50:43,19:09:11,NA,incomplete,20,color,1,left,Red_Circle_Dots_4.jpg,Red_Triangle_Chess_3.jpg,Blue_Star_Dots_1.jpg,left,653,true,low,false
6hpuoF6S,36d1bwbeiqeywas4c57kpjvh4xs2mi,3uxuoq9okia63uefcg3c13dg4hda7o,6hpuoF6S,2020-0188,2020-05-07,18:50:43,19:09:11,NA,incomplete,21,color,1,left,Red_Circle_Grid_1.jpg,Red_Star_Dots_4.jpg,Green_Plus_Grid_3.jpg,left,578,true,low,false
6hpuoF6S,36d1bwbeiqeywas4c57kpjvh4xs2mi,3uxuoq9okia63uefcg3c13dg4hda7o,6hpuoF6S,2020-0188,2020-05-07,18:50:43,19:09:11,NA,incomplete,22,color,1,left,Green_Star_Stripes_3.jpg,Green_Plus_Grid_4.jpg,Blue_Triangle_Stripes_1.jpg,left,670,true,low,false
6hpuoF6S,36d1bwbeiqeywas4c57kpjvh4xs2mi,3uxuoq9okia63uefcg3c13dg4hda7o,6hpuoF6S,2020-0188,2020-05-07,18:50:43,19:09:11,NA,incomplete,23,color,1,left,Blue_Triangle_Chess_4.jpg,Blue_Plus_Dots_2.jpg,Purple_Circle_Chess_1.jpg,left,518,true,low,false
6hpuoF6S,36d1bwbeiqeywas4c57kpjvh4xs2mi,3uxuoq9okia63uefcg3c13dg4hda7o,6hpuoF6S,2020-0188,2020-05-07,18:50:43,19:09:11,NA,incomplete,24,color,1,right,Green_Circle_Chess_4.jpg,Red_Triangle_Chess_1.jpg,Green_Plus_Dots_3.jpg,right,542,true,low,false
6hpuoF6S,36d1bwbeiqeywas4c57kpjvh4xs2mi,3uxuoq9okia63uefcg3c13dg4hda7o,6hpuoF6S,2020-0188,2020-05-07,18:50:43,19:09:11,NA,incomplete,25,color,1,right,Purple_Plus_Chess_1.jpg,Red_Star_Chess_3.jpg,Purple_Circle_Stripes_2.jpg,right,653,true,low,false
6hpuoF6S,36d1bwbeiqeywas4c57kpjvh4xs2mi,3uxuoq9okia63uefcg3c13dg4hda7o,6hpuoF6S,2020-0188,2020-05-07,18:50:43,19:09:11,NA,incomplete,26,color,1,left,Blue_Star_Dots_2.jpg,Blue_Circle_Chess_3.jpg,Green_Triangle_Dots_4.jpg,left,609,true,low,false
6hpuoF6S,36d1bwbeiqeywas4c57kpjvh4xs2mi,3uxuoq9okia63uefcg3c13dg4hda7o,6hpuoF6S,2020-0188,2020-05-07,18:50:43,19:09:11,NA,incomplete,27,color,1,left,Red_Plus_Stripes_3.jpg,Red_Star_Grid_1.jpg,Blue_Circle_Stripes_2.jpg,left,590,true,low,false
6hpuoF6S,36d1bwbeiqeywas4c57kpjvh4xs2mi,3uxuoq9okia63uefcg3c13dg4hda7o,6hpuoF6S,2020-0188,2020-05-07,18:50:43,19:09:11,NA,incomplete,28,color,1,right,Green_Plus_Chess_2.jpg,Red_Triangle_Chess_1.jpg,Green_Star_Stripes_3.jpg,right,605,true,low,false
6hpuoF6S,36d1bwbeiqeywas4c57kpjvh4xs2mi,3uxuoq9okia63uefcg3c13dg4hda7o,6hpuoF6S,2020-0188,2020-05-07,18:50:43,19:09:11,NA,incomplete,29,color,0,left,Blue_Star_Chess_2.jpg,Blue_Circle_Dots_3.jpg,Red_Plus_Chess_4.jpg,left,545,true,low,false
6hpuoF6S,36d1bwbeiqeywas4c57kpjvh4xs2mi,3uxuoq9okia63uefcg3c13dg4hda7o,6hpuoF6S,2020-0188,2020-05-07,18:50:43,19:09:11,NA,incomplete,30,filling,1,right,Blue_Star_Grid_1.jpg,Blue_Circle_Stripes_2.jpg,Red_Plus_Grid_3.jpg,left,881,false,low,false
6hpuoF6S,36d1bwbeiqeywas4c57kpjvh4xs2mi,3uxuoq9okia63uefcg3c13dg4hda7o,6hpuoF6S,2020-0188,2020-05-07,18:50:43,19:09:11,NA,incomplete,31,filling,1,right,Purple_Plus_Dots_1.jpg,Purple_Triangle_Stripes_2.jpg,Red_Star_Dots_4.jpg,right,813,true,low,false
6hpuoF6S,36d1bwbeiqeywas4c57kpjvh4xs2mi,3uxuoq9okia63uefcg3c13dg4hda7o,6hpuoF6S,2020-0188,2020-05-07,18:50:43,19:09:11,NA,incomplete,32,filling,1,right,Green_Star_Chess_4.jpg,Green_Circle_Grid_1.jpg,Red_Triangle_Chess_2.jpg,right,1000,true,low,false
6hpuoF6S,36d1bwbeiqeywas4c57kpjvh4xs2mi,3uxuoq9okia63uefcg3c13dg4hda7o,6hpuoF6S,2020-0188,2020-05-07,18:50:43,19:09:11,NA,incomplete,33,filling,1,left,Red_Star_Dots_4.jpg,Green_Plus_Dots_1.jpg,Red_Circle_Stripes_3.jpg,left,780,true,low,false
6hpuoF6S,36d1bwbeiqeywas4c57kpjvh4xs2mi,3uxuoq9okia63uefcg3c13dg4hda7o,6hpuoF6S,2020-0188,2020-05-07,18:50:43,19:09:11,NA,incomplete,34,filling,1,right,Blue_Triangle_Grid_3.jpg,Blue_Plus_Chess_2.jpg,Red_Star_Grid_1.jpg,right,877,true,low,false
6hpuoF6S,36d1bwbeiqeywas4c57kpjvh4xs2mi,3uxuoq9okia63uefcg3c13dg4hda7o,6hpuoF6S,2020-0188,2020-05-07,18:50:43,19:09:11,NA,incomplete,35,filling,1,left,Red_Circle_Chess_4.jpg,Green_Triangle_Chess_1.jpg,Red_Plus_Stripes_3.jpg,left,908,true,low,false
6hpuoF6S,36d1bwbeiqeywas4c57kpjvh4xs2mi,3uxuoq9okia63uefcg3c13dg4hda7o,6hpuoF6S,2020-0188,2020-05-07,18:50:43,19:09:11,NA,incomplete,36,filling,1,right,Green_Circle_Stripes_1.jpg,Green_Triangle_Grid_2.jpg,Red_Star_Stripes_3.jpg,left,940,false,low,false
6hpuoF6S,36d1bwbeiqeywas4c57kpjvh4xs2mi,3uxuoq9okia63uefcg3c13dg4hda7o,6hpuoF6S,2020-0188,2020-05-07,18:50:43,19:09:11,NA,incomplete,37,filling,0,left,Green_Star_Grid_2.jpg,Red_Triangle_Grid_4.jpg,Green_Circle_Stripes_3.jpg,left,1004,true,low,false
6hpuoF6S,36d1bwbeiqeywas4c57kpjvh4xs2mi,3uxuoq9okia63uefcg3c13dg4hda7o,6hpuoF6S,2020-0188,2020-05-07,18:50:43,19:09:11,NA,incomplete,38,filling,1,right,Blue_Plus_Stripes_3.jpg,Blue_Star_Dots_2.jpg,Purple_Triangle_Stripes_1.jpg,left,544,false,low,false
6hpuoF6S,36d1bwbeiqeywas4c57kpjvh4xs2mi,3uxuoq9okia63uefcg3c13dg4hda7o,6hpuoF6S,2020-0188,2020-05-07,18:50:43,19:09:11,NA,incomplete,39,filling,1,right,Red_Plus_Chess_2.jpg,Red_Star_Grid_1.jpg,Purple_Triangle_Chess_3.jpg,right,880,true,low,false
6hpuoF6S,36d1bwbeiqeywas4c57kpjvh4xs2mi,3uxuoq9okia63uefcg3c13dg4hda7o,6hpuoF6S,2020-0188,2020-05-07,18:50:43,19:09:11,NA,incomplete,40,filling,1,right,Purple_Triangle_Grid_4.jpg,Purple_Plus_Chess_1.jpg,Red_Star_Grid_2.jpg,right,1012,true,low,false
6hpuoF6S,36d1bwbeiqeywas4c57kpjvh4xs2mi,3uxuoq9okia63uefcg3c13dg4hda7o,6hpuoF6S,2020-0188,2020-05-07,18:50:43,19:09:11,NA,incomplete,41,filling,1,right,Purple_Circle_Stripes_3.jpg,Purple_Star_Grid_2.jpg,Blue_Triangle_Stripes_1.jpg,right,801,true,low,false
6hpuoF6S,36d1bwbeiqeywas4c57kpjvh4xs2mi,3uxuoq9okia63uefcg3c13dg4hda7o,6hpuoF6S,2020-0188,2020-05-07,18:50:43,19:09:11,NA,incomplete,42,filling,1,left,Green_Star_Chess_4.jpg,Purple_Triangle_Chess_3.jpg,Green_Plus_Stripes_2.jpg,right,956,false,low,false
6hpuoF6S,36d1bwbeiqeywas4c57kpjvh4xs2mi,3uxuoq9okia63uefcg3c13dg4hda7o,6hpuoF6S,2020-0188,2020-05-07,18:50:43,19:09:11,NA,incomplete,43,filling,1,left,Red_Triangle_Grid_2.jpg,Green_Star_Grid_4.jpg,Red_Plus_Dots_1.jpg,left,892,true,low,false
6hpuoF6S,36d1bwbeiqeywas4c57kpjvh4xs2mi,3uxuoq9okia63uefcg3c13dg4hda7o,6hpuoF6S,2020-0188,2020-05-07,18:50:43,19:09:11,NA,incomplete,44,filling,0,right,Red_Plus_Stripes_1.jpg,Red_Circle_Grid_3.jpg,Blue_Triangle_Stripes_2.jpg,right,1216,true,low,false
6hpuoF6S,36d1bwbeiqeywas4c57kpjvh4xs2mi,3uxuoq9okia63uefcg3c13dg4hda7o,6hpuoF6S,2020-0188,2020-05-07,18:50:43,19:09:11,NA,incomplete,45,filling,1,right,Purple_Circle_Stripes_3.jpg,Purple_Star_Chess_2.jpg,Blue_Plus_Stripes_1.jpg,left,589,false,low,false
6hpuoF6S,36d1bwbeiqeywas4c57kpjvh4xs2mi,3uxuoq9okia63uefcg3c13dg4hda7o,6hpuoF6S,2020-0188,2020-05-07,18:50:43,19:09:11,NA,incomplete,46,filling,1,right,Green_Circle_Dots_1.jpg,Green_Triangle_Chess_3.jpg,Purple_Plus_Dots_2.jpg,right,885,true,low,false
6hpuoF6S,36d1bwbeiqeywas4c57kpjvh4xs2mi,3uxuoq9okia63uefcg3c13dg4hda7o,6hpuoF6S,2020-0188,2020-05-07,18:50:43,19:09:11,NA,incomplete,47,filling,0,right,Purple_Triangle_Chess_4.jpg,Purple_Circle_Dots_1.jpg,Red_Star_Chess_2.jpg,right,856,true,low,false
6hpuoF6S,36d1bwbeiqeywas4c57kpjvh4xs2mi,3uxuoq9okia63uefcg3c13dg4hda7o,6hpuoF6S,2020-0188,2020-05-07,18:50:43,19:09:11,NA,incomplete,48,filling,0,left,Blue_Circle_Stripes_4.jpg,Green_Plus_Stripes_3.jpg,Blue_Triangle_Grid_2.jpg,left,1307,true,low,false
6hpuoF6S,36d1bwbeiqeywas4c57kpjvh4xs2mi,3uxuoq9okia63uefcg3c13dg4hda7o,6hpuoF6S,2020-0188,2020-05-07,18:50:43,19:09:11,NA,incomplete,49,filling,0,left,Purple_Circle_Dots_2.jpg,Blue_Plus_Dots_1.jpg,Purple_Triangle_Chess_3.jpg,right,589,false,low,false
6hpuoF6S,36d1bwbeiqeywas4c57kpjvh4xs2mi,3uxuoq9okia63uefcg3c13dg4hda7o,6hpuoF6S,2020-0188,2020-05-07,18:50:43,19:09:11,NA,incomplete,50,filling,1,left,Blue_Plus_Stripes_3.jpg,Red_Circle_Stripes_4.jpg,Blue_Star_Dots_2.jpg,right,605,false,low,false
6hpuoF6S,36d1bwbeiqeywas4c57kpjvh4xs2mi,3uxuoq9okia63uefcg3c13dg4hda7o,6hpuoF6S,2020-0188,2020-05-07,18:50:43,19:09:11,NA,incomplete,51,filling,1,left,Purple_Star_Chess_4.jpg,Blue_Plus_Chess_2.jpg,Purple_Triangle_Stripes_1.jpg,right,712,false,low,false
6hpuoF6S,36d1bwbeiqeywas4c57kpjvh4xs2mi,3uxuoq9okia63uefcg3c13dg4hda7o,6hpuoF6S,2020-0188,2020-05-07,18:50:43,19:09:11,NA,incomplete,52,filling,1,right,Red_Plus_Dots_3.jpg,Red_Star_Chess_1.jpg,Purple_Circle_Dots_4.jpg,right,1088,true,low,false
6hpuoF6S,36d1bwbeiqeywas4c57kpjvh4xs2mi,3uxuoq9okia63uefcg3c13dg4hda7o,6hpuoF6S,2020-0188,2020-05-07,18:50:43,19:09:11,NA,incomplete,53,filling,0,right,Green_Star_Chess_4.jpg,Green_Plus_Dots_3.jpg,Purple_Circle_Chess_1.jpg,right,963,true,low,false
6hpuoF6S,36d1bwbeiqeywas4c57kpjvh4xs2mi,3uxuoq9okia63uefcg3c13dg4hda7o,6hpuoF6S,2020-0188,2020-05-07,18:50:43,19:09:11,NA,incomplete,54,filling,1,right,Green_Plus_Grid_4.jpg,Green_Triangle_Dots_2.jpg,Red_Star_Grid_3.jpg,left,1313,false,low,false
6hpuoF6S,36d1bwbeiqeywas4c57kpjvh4xs2mi,3uxuoq9okia63uefcg3c13dg4hda7o,6hpuoF6S,2020-0188,2020-05-07,18:50:43,19:09:11,NA,incomplete,55,filling,1,left,Purple_Triangle_Grid_3.jpg,Red_Plus_Grid_4.jpg,Purple_Star_Chess_2.jpg,left,1175,true,low,false
6hpuoF6S,36d1bwbeiqeywas4c57kpjvh4xs2mi,3uxuoq9okia63uefcg3c13dg4hda7o,6hpuoF6S,2020-0188,2020-05-07,18:50:43,19:09:11,NA,incomplete,56,filling,0,left,Red_Star_Dots_2.jpg,Purple_Plus_Dots_1.jpg,Red_Triangle_Stripes_4.jpg,left,1147,true,low,false
6hpuoF6S,36d1bwbeiqeywas4c57kpjvh4xs2mi,3uxuoq9okia63uefcg3c13dg4hda7o,6hpuoF6S,2020-0188,2020-05-07,18:50:43,19:09:11,NA,incomplete,57,filling,1,left,Green_Triangle_Chess_1.jpg,Purple_Star_Chess_4.jpg,Green_Plus_Dots_2.jpg,left,1196,true,low,false
6hpuoF6S,36d1bwbeiqeywas4c57kpjvh4xs2mi,3uxuoq9okia63uefcg3c13dg4hda7o,6hpuoF6S,2020-0188,2020-05-07,18:50:43,19:09:11,NA,incomplete,58,filling,1,right,Green_Star_Chess_3.jpg,Green_Circle_Dots_1.jpg,Red_Plus_Chess_2.jpg,left,709,false,low,false
6hpuoF6S,36d1bwbeiqeywas4c57kpjvh4xs2mi,3uxuoq9okia63uefcg3c13dg4hda7o,6hpuoF6S,2020-0188,2020-05-07,18:50:43,19:09:11,NA,incomplete,59,filling,1,right,Purple_Triangle_Dots_3.jpg,Purple_Star_Chess_1.jpg,Blue_Plus_Dots_2.jpg,right,1076,true,low,false
6hpuoF6S,36d1bwbeiqeywas4c57kpjvh4xs2mi,3uxuoq9okia63uefcg3c13dg4hda7o,6hpuoF6S,2020-0188,2020-05-07,18:50:43,19:09:11,NA,incomplete,60,color,1,left,Green_Plus_Dots_3.jpg,Green_Star_Chess_2.jpg,Blue_Triangle_Dots_1.jpg,right,980,false,low,false
6hpuoF6S,36d1bwbeiqeywas4c57kpjvh4xs2mi,3uxuoq9okia63uefcg3c13dg4hda7o,6hpuoF6S,2020-0188,2020-05-07,18:50:43,19:09:11,NA,incomplete,61,color,1,left,Purple_Star_Grid_1.jpg,Purple_Circle_Stripes_2.jpg,Blue_Plus_Grid_3.jpg,left,855,true,low,false
6hpuoF6S,36d1bwbeiqeywas4c57kpjvh4xs2mi,3uxuoq9okia63uefcg3c13dg4hda7o,6hpuoF6S,2020-0188,2020-05-07,18:50:43,19:09:11,NA,incomplete,62,color,1,right,Red_Star_Chess_4.jpg,Purple_Plus_Chess_3.jpg,Red_Circle_Dots_2.jpg,right,820,true,low,false
6hpuoF6S,36d1bwbeiqeywas4c57kpjvh4xs2mi,3uxuoq9okia63uefcg3c13dg4hda7o,6hpuoF6S,2020-0188,2020-05-07,18:50:43,19:09:11,NA,incomplete,63,color,1,left,Green_Star_Stripes_4.jpg,Green_Plus_Chess_2.jpg,Blue_Circle_Stripes_1.jpg,left,496,true,low,false
6hpuoF6S,36d1bwbeiqeywas4c57kpjvh4xs2mi,3uxuoq9okia63uefcg3c13dg4hda7o,6hpuoF6S,2020-0188,2020-05-07,18:50:43,19:09:11,NA,incomplete,64,color,1,left,Purple_Plus_Grid_3.jpg,Purple_Circle_Chess_2.jpg,Blue_Triangle_Grid_1.jpg,left,588,true,low,false
6hpuoF6S,36d1bwbeiqeywas4c57kpjvh4xs2mi,3uxuoq9okia63uefcg3c13dg4hda7o,6hpuoF6S,2020-0188,2020-05-07,18:50:43,19:09:11,NA,incomplete,65,color,1,right,Red_Plus_Chess_4.jpg,Green_Circle_Chess_1.jpg,Red_Star_Stripes_3.jpg,right,556,true,low,false
6hpuoF6S,36d1bwbeiqeywas4c57kpjvh4xs2mi,3uxuoq9okia63uefcg3c13dg4hda7o,6hpuoF6S,2020-0188,2020-05-07,18:50:43,19:09:11,NA,incomplete,66,color,1,right,Red_Star_Grid_2.jpg,Blue_Plus_Grid_3.jpg,Red_Triangle_Stripes_1.jpg,right,596,true,low,false
6hpuoF6S,36d1bwbeiqeywas4c57kpjvh4xs2mi,3uxuoq9okia63uefcg3c13dg4hda7o,6hpuoF6S,2020-0188,2020-05-07,18:50:43,19:09:11,NA,incomplete,67,color,1,left,Red_Circle_Dots_3.jpg,Red_Triangle_Chess_1.jpg,Blue_Plus_Dots_4.jpg,left,476,true,low,false
6hpuoF6S,36d1bwbeiqeywas4c57kpjvh4xs2mi,3uxuoq9okia63uefcg3c13dg4hda7o,6hpuoF6S,2020-0188,2020-05-07,18:50:43,19:09:11,NA,incomplete,68,color,1,right,Red_Circle_Dots_4.jpg,Green_Plus_Dots_2.jpg,Red_Triangle_Chess_1.jpg,right,483,true,low,false
6hpuoF6S,36d1bwbeiqeywas4c57kpjvh4xs2mi,3uxuoq9okia63uefcg3c13dg4hda7o,6hpuoF6S,2020-0188,2020-05-07,18:50:43,19:09:11,NA,incomplete,69,color,1,left,Red_Circle_Chess_4.jpg,Red_Plus_Dots_1.jpg,Blue_Triangle_Chess_2.jpg,left,447,true,low,false
6hpuoF6S,36d1bwbeiqeywas4c57kpjvh4xs2mi,3uxuoq9okia63uefcg3c13dg4hda7o,6hpuoF6S,2020-0188,2020-05-07,18:50:43,19:09:11,NA,incomplete,70,color,1,left,Green_Circle_Chess_1.jpg,Green_Plus_Dots_3.jpg,Red_Triangle_Chess_2.jpg,left,515,true,low,false
6hpuoF6S,36d1bwbeiqeywas4c57kpjvh4xs2mi,3uxuoq9okia63uefcg3c13dg4hda7o,6hpuoF6S,2020-0188,2020-05-07,18:50:43,19:09:11,NA,incomplete,71,color,1,left,Blue_Plus_Chess_2.jpg,Blue_Circle_Stripes_3.jpg,Purple_Triangle_Chess_4.jpg,left,586,true,low,false
6hpuoF6S,36d1bwbeiqeywas4c57kpjvh4xs2mi,3uxuoq9okia63uefcg3c13dg4hda7o,6hpuoF6S,2020-0188,2020-05-07,18:50:43,19:09:11,NA,incomplete,72,color,0,left,Blue_Plus_Dots_3.jpg,Blue_Circle_Grid_1.jpg,Purple_Triangle_Dots_2.jpg,left,683,true,low,false
6hpuoF6S,36d1bwbeiqeywas4c57kpjvh4xs2mi,3uxuoq9okia63uefcg3c13dg4hda7o,6hpuoF6S,2020-0188,2020-05-07,18:50:43,19:09:11,NA,incomplete,73,color,1,left,Purple_Triangle_Chess_3.jpg,Purple_Plus_Dots_4.jpg,Green_Star_Chess_2.jpg,right,713,false,low,false
6hpuoF6S,36d1bwbeiqeywas4c57kpjvh4xs2mi,3uxuoq9okia63uefcg3c13dg4hda7o,6hpuoF6S,2020-0188,2020-05-07,18:50:43,19:09:11,NA,incomplete,74,color,1,right,Red_Circle_Chess_2.jpg,Green_Star_Chess_1.jpg,Red_Plus_Dots_4.jpg,right,558,true,low,false
6hpuoF6S,36d1bwbeiqeywas4c57kpjvh4xs2mi,3uxuoq9okia63uefcg3c13dg4hda7o,6hpuoF6S,2020-0188,2020-05-07,18:50:43,19:09:11,NA,incomplete,75,color,0,right,Purple_Triangle_Stripes_2.jpg,Blue_Circle_Stripes_4.jpg,Purple_Plus_Dots_1.jpg,right,751,true,low,false
6hpuoF6S,36d1bwbeiqeywas4c57kpjvh4xs2mi,3uxuoq9okia63uefcg3c13dg4hda7o,6hpuoF6S,2020-0188,2020-05-07,18:50:43,19:09:11,NA,incomplete,76,color,0,right,Red_Plus_Stripes_2.jpg,Purple_Triangle_Stripes_3.jpg,Red_Star_Chess_1.jpg,left,879,false,low,false
6hpuoF6S,36d1bwbeiqeywas4c57kpjvh4xs2mi,3uxuoq9okia63uefcg3c13dg4hda7o,6hpuoF6S,2020-0188,2020-05-07,18:50:43,19:09:11,NA,incomplete,77,color,1,right,Red_Triangle_Dots_1.jpg,Blue_Plus_Dots_2.jpg,Red_Circle_Stripes_4.jpg,left,839,false,low,false
6hpuoF6S,36d1bwbeiqeywas4c57kpjvh4xs2mi,3uxuoq9okia63uefcg3c13dg4hda7o,6hpuoF6S,2020-0188,2020-05-07,18:50:43,19:09:11,NA,incomplete,78,color,1,right,Green_Triangle_Chess_1.jpg,Blue_Circle_Chess_2.jpg,Green_Star_Stripes_4.jpg,left,919,false,low,false
6hpuoF6S,36d1bwbeiqeywas4c57kpjvh4xs2mi,3uxuoq9okia63uefcg3c13dg4hda7o,6hpuoF6S,2020-0188,2020-05-07,18:50:43,19:09:11,NA,incomplete,79,color,0,left,Red_Circle_Chess_4.jpg,Red_Plus_Dots_3.jpg,Purple_Triangle_Chess_1.jpg,left,560,true,low,false
6hpuoF6S,36d1bwbeiqeywas4c57kpjvh4xs2mi,3uxuoq9okia63uefcg3c13dg4hda7o,6hpuoF6S,2020-0188,2020-05-07,18:50:43,19:09:11,NA,incomplete,80,color,1,right,Blue_Star_Dots_4.jpg,Red_Plus_Dots_1.jpg,Blue_Triangle_Chess_2.jpg,left,943,false,low,false
6hpuoF6S,36d1bwbeiqeywas4c57kpjvh4xs2mi,3uxuoq9okia63uefcg3c13dg4hda7o,6hpuoF6S,2020-0188,2020-05-07,18:50:43,19:09:11,NA,incomplete,81,color,0,right,Green_Triangle_Stripes_3.jpg,Blue_Plus_Stripes_4.jpg,Green_Star_Chess_2.jpg,right,791,true,low,false
6hpuoF6S,36d1bwbeiqeywas4c57kpjvh4xs2mi,3uxuoq9okia63uefcg3c13dg4hda7o,6hpuoF6S,2020-0188,2020-05-07,18:50:43,19:09:11,NA,incomplete,82,color,1,right,Purple_Plus_Stripes_4.jpg,Red_Star_Stripes_3.jpg,Purple_Circle_Chess_2.jpg,left,972,false,low,false
6hpuoF6S,36d1bwbeiqeywas4c57kpjvh4xs2mi,3uxuoq9okia63uefcg3c13dg4hda7o,6hpuoF6S,2020-0188,2020-05-07,18:50:43,19:09:11,NA,incomplete,83,color,1,left,Blue_Star_Dots_2.jpg,Blue_Circle_Stripes_4.jpg,Red_Plus_Dots_3.jpg,right,1282,false,low,false
6hpuoF6S,36d1bwbeiqeywas4c57kpjvh4xs2mi,3uxuoq9okia63uefcg3c13dg4hda7o,6hpuoF6S,2020-0188,2020-05-07,18:50:43,19:09:11,NA,incomplete,84,color,1,left,Red_Star_Grid_3.jpg,Red_Plus_Stripes_4.jpg,Blue_Triangle_Grid_1.jpg,left,758,true,low,false
6hpuoF6S,36d1bwbeiqeywas4c57kpjvh4xs2mi,3uxuoq9okia63uefcg3c13dg4hda7o,6hpuoF6S,2020-0188,2020-05-07,18:50:43,19:09:11,NA,incomplete,85,color,1,right,Blue_Triangle_Grid_3.jpg,Purple_Plus_Grid_4.jpg,Blue_Star_Dots_2.jpg,right,678,true,low,false
6hpuoF6S,36d1bwbeiqeywas4c57kpjvh4xs2mi,3uxuoq9okia63uefcg3c13dg4hda7o,6hpuoF6S,2020-0188,2020-05-07,18:50:43,19:09:11,NA,incomplete,86,color,1,left,Red_Circle_Stripes_4.jpg,Red_Triangle_Chess_1.jpg,Blue_Star_Stripes_2.jpg,left,510,true,low,false
6hpuoF6S,36d1bwbeiqeywas4c57kpjvh4xs2mi,3uxuoq9okia63uefcg3c13dg4hda7o,6hpuoF6S,2020-0188,2020-05-07,18:50:43,19:09:11,NA,incomplete,87,color,1,left,Green_Circle_Dots_2.jpg,Green_Plus_Grid_3.jpg,Purple_Star_Dots_4.jpg,left,549,true,low,false
6hpuoF6S,36d1bwbeiqeywas4c57kpjvh4xs2mi,3uxuoq9okia63uefcg3c13dg4hda7o,6hpuoF6S,2020-0188,2020-05-07,18:50:43,19:09:11,NA,incomplete,88,color,0,right,Purple_Plus_Chess_2.jpg,Red_Star_Chess_4.jpg,Purple_Triangle_Stripes_1.jpg,right,631,true,low,false
6hpuoF6S,36d1bwbeiqeywas4c57kpjvh4xs2mi,3uxuoq9okia63uefcg3c13dg4hda7o,6hpuoF6S,2020-0188,2020-05-07,18:50:43,19:09:11,NA,incomplete,89,color,1,left,Blue_Plus_Dots_3.jpg,Blue_Star_Stripes_4.jpg,Purple_Circle_Dots_1.jpg,right,1157,false,low,false
6hpuoF6S,36d1bwbeiqeywas4c57kpjvh4xs2mi,3uxuoq9okia63uefcg3c13dg4hda7o,6hpuoF6S,2020-0188,2020-05-07,18:50:43,19:09:11,NA,incomplete,90,filling,1,right,Green_Triangle_Grid_2.jpg,Green_Plus_Stripes_3.jpg,Red_Star_Grid_1.jpg,left,1342,false,low,false
6hpuoF6S,36d1bwbeiqeywas4c57kpjvh4xs2mi,3uxuoq9okia63uefcg3c13dg4hda7o,6hpuoF6S,2020-0188,2020-05-07,18:50:43,19:09:11,NA,incomplete,91,filling,1,right,Blue_Triangle_Chess_3.jpg,Blue_Plus_Stripes_4.jpg,Red_Star_Chess_2.jpg,right,1023,true,low,false
6hpuoF6S,36d1bwbeiqeywas4c57kpjvh4xs2mi,3uxuoq9okia63uefcg3c13dg4hda7o,6hpuoF6S,2020-0188,2020-05-07,18:50:43,19:09:11,NA,incomplete,92,filling,0,right,Blue_Circle_Dots_4.jpg,Blue_Star_Stripes_1.jpg,Green_Plus_Dots_2.jpg,right,934,true,low,false
6hpuoF6S,36d1bwbeiqeywas4c57kpjvh4xs2mi,3uxuoq9okia63uefcg3c13dg4hda7o,6hpuoF6S,2020-0188,2020-05-07,18:50:43,19:09:11,NA,incomplete,93,filling,1,right,Green_Circle_Grid_1.jpg,Green_Plus_Stripes_2.jpg,Purple_Triangle_Grid_4.jpg,right,1282,true,low,false
6hpuoF6S,36d1bwbeiqeywas4c57kpjvh4xs2mi,3uxuoq9okia63uefcg3c13dg4hda7o,6hpuoF6S,2020-0188,2020-05-07,18:50:43,19:09:11,NA,incomplete,94,filling,1,left,Blue_Plus_Chess_3.jpg,Purple_Triangle_Chess_4.jpg,Blue_Circle_Stripes_2.jpg,left,1071,true,low,false
6hpuoF6S,36d1bwbeiqeywas4c57kpjvh4xs2mi,3uxuoq9okia63uefcg3c13dg4hda7o,6hpuoF6S,2020-0188,2020-05-07,18:50:43,19:09:11,NA,incomplete,95,filling,1,right,Blue_Star_Stripes_4.jpg,Blue_Circle_Dots_3.jpg,Purple_Plus_Stripes_2.jpg,right,1158,true,low,false
6hpuoF6S,36d1bwbeiqeywas4c57kpjvh4xs2mi,3uxuoq9okia63uefcg3c13dg4hda7o,6hpuoF6S,2020-0188,2020-05-07,18:50:43,19:09:11,NA,incomplete,96,filling,1,left,Blue_Circle_Grid_3.jpg,Purple_Plus_Grid_4.jpg,Blue_Star_Dots_1.jpg,left,1119,true,low,false
6hpuoF6S,36d1bwbeiqeywas4c57kpjvh4xs2mi,3uxuoq9okia63uefcg3c13dg4hda7o,6hpuoF6S,2020-0188,2020-05-07,18:50:43,19:09:11,NA,incomplete,97,filling,1,left,Red_Circle_Dots_2.jpg,Green_Star_Dots_3.jpg,Red_Triangle_Stripes_1.jpg,left,861,true,low,false
6hpuoF6S,36d1bwbeiqeywas4c57kpjvh4xs2mi,3uxuoq9okia63uefcg3c13dg4hda7o,6hpuoF6S,2020-0188,2020-05-07,18:50:43,19:09:11,NA,incomplete,98,filling,1,right,Purple_Plus_Stripes_3.jpg,Purple_Star_Chess_4.jpg,Red_Triangle_Stripes_2.jpg,right,909,true,low,false
6hpuoF6S,36d1bwbeiqeywas4c57kpjvh4xs2mi,3uxuoq9okia63uefcg3c13dg4hda7o,6hpuoF6S,2020-0188,2020-05-07,18:50:43,19:09:11,NA,incomplete,99,filling,0,left,Red_Star_Stripes_3.jpg,Blue_Circle_Stripes_4.jpg,Red_Triangle_Grid_2.jpg,left,1030,true,low,false
6hpuoF6S,36d1bwbeiqeywas4c57kpjvh4xs2mi,3uxuoq9okia63uefcg3c13dg4hda7o,6hpuoF6S,2020-0188,2020-05-07,18:50:43,19:09:11,NA,incomplete,100,filling,1,left,Green_Triangle_Grid_3.jpg,Red_Plus_Grid_4.jpg,Green_Circle_Chess_1.jpg,right,581,false,low,false
6hpuoF6S,36d1bwbeiqeywas4c57kpjvh4xs2mi,3uxuoq9okia63uefcg3c13dg4hda7o,6hpuoF6S,2020-0188,2020-05-07,18:50:43,19:09:11,NA,incomplete,101,filling,0,right,Green_Plus_Stripes_2.jpg,Green_Star_Grid_3.jpg,Purple_Circle_Stripes_4.jpg,left,686,false,low,false
6hpuoF6S,36d1bwbeiqeywas4c57kpjvh4xs2mi,3uxuoq9okia63uefcg3c13dg4hda7o,6hpuoF6S,2020-0188,2020-05-07,18:50:43,19:09:11,NA,incomplete,102,filling,1,right,Blue_Plus_Dots_4.jpg,Blue_Circle_Grid_3.jpg,Red_Star_Dots_1.jpg,left,1169,false,low,false
6hpuoF6S,36d1bwbeiqeywas4c57kpjvh4xs2mi,3uxuoq9okia63uefcg3c13dg4hda7o,6hpuoF6S,2020-0188,2020-05-07,18:50:43,19:09:11,NA,incomplete,103,filling,0,left,Purple_Plus_Dots_3.jpg,Red_Circle_Dots_4.jpg,Purple_Triangle_Stripes_1.jpg,right,758,false,low,false
6hpuoF6S,36d1bwbeiqeywas4c57kpjvh4xs2mi,3uxuoq9okia63uefcg3c13dg4hda7o,6hpuoF6S,2020-0188,2020-05-07,18:50:43,19:09:11,NA,incomplete,104,filling,1,left,Blue_Star_Chess_2.jpg,Green_Plus_Chess_1.jpg,Blue_Triangle_Stripes_3.jpg,left,934,true,low,false
6hpuoF6S,36d1bwbeiqeywas4c57kpjvh4xs2mi,3uxuoq9okia63uefcg3c13dg4hda7o,6hpuoF6S,2020-0188,2020-05-07,18:50:43,19:09:11,NA,incomplete,105,filling,0,right,Purple_Triangle_Chess_4.jpg,Purple_Circle_Grid_1.jpg,Green_Plus_Chess_3.jpg,left,657,false,low,false
6hpuoF6S,36d1bwbeiqeywas4c57kpjvh4xs2mi,3uxuoq9okia63uefcg3c13dg4hda7o,6hpuoF6S,2020-0188,2020-05-07,18:50:43,19:09:11,NA,incomplete,106,filling,0,left,Purple_Circle_Dots_1.jpg,Blue_Plus_Dots_2.jpg,Purple_Triangle_Chess_3.jpg,left,902,true,low,false
6hpuoF6S,36d1bwbeiqeywas4c57kpjvh4xs2mi,3uxuoq9okia63uefcg3c13dg4hda7o,6hpuoF6S,2020-0188,2020-05-07,18:50:43,19:09:11,NA,incomplete,107,filling,0,left,Purple_Triangle_Stripes_2.jpg,Green_Star_Stripes_3.jpg,Purple_Circle_Chess_4.jpg,right,695,false,low,false
6hpuoF6S,36d1bwbeiqeywas4c57kpjvh4xs2mi,3uxuoq9okia63uefcg3c13dg4hda7o,6hpuoF6S,2020-0188,2020-05-07,18:50:43,19:09:11,NA,incomplete,108,filling,1,right,Blue_Triangle_Dots_2.jpg,Blue_Plus_Chess_1.jpg,Purple_Star_Dots_4.jpg,right,969,true,low,false
6hpuoF6S,36d1bwbeiqeywas4c57kpjvh4xs2mi,3uxuoq9okia63uefcg3c13dg4hda7o,6hpuoF6S,2020-0188,2020-05-07,18:50:43,19:09:11,NA,incomplete,109,filling,1,right,Red_Triangle_Chess_1.jpg,Red_Star_Grid_4.jpg,Green_Circle_Chess_3.jpg,left,1403,false,low,false
6hpuoF6S,36d1bwbeiqeywas4c57kpjvh4xs2mi,3uxuoq9okia63uefcg3c13dg4hda7o,6hpuoF6S,2020-0188,2020-05-07,18:50:43,19:09:11,NA,incomplete,110,filling,1,right,Red_Star_Stripes_4.jpg,Red_Triangle_Chess_1.jpg,Purple_Plus_Stripes_2.jpg,right,1533,true,low,false
6hpuoF6S,36d1bwbeiqeywas4c57kpjvh4xs2mi,3uxuoq9okia63uefcg3c13dg4hda7o,6hpuoF6S,2020-0188,2020-05-07,18:50:43,19:09:11,NA,incomplete,111,filling,1,left,Purple_Star_Chess_2.jpg,Red_Plus_Chess_4.jpg,Purple_Circle_Grid_1.jpg,right,1025,false,low,false
6hpuoF6S,36d1bwbeiqeywas4c57kpjvh4xs2mi,3uxuoq9okia63uefcg3c13dg4hda7o,6hpuoF6S,2020-0188,2020-05-07,18:50:43,19:09:11,NA,incomplete,112,filling,1,right,Purple_Circle_Chess_3.jpg,Purple_Triangle_Dots_1.jpg,Green_Plus_Chess_2.jpg,left,1403,false,low,false
6hpuoF6S,36d1bwbeiqeywas4c57kpjvh4xs2mi,3uxuoq9okia63uefcg3c13dg4hda7o,6hpuoF6S,2020-0188,2020-05-07,18:50:43,19:09:11,NA,incomplete,113,filling,1,left,Green_Triangle_Dots_2.jpg,Red_Star_Dots_3.jpg,Green_Plus_Chess_4.jpg,right,1137,false,low,false
6hpuoF6S,36d1bwbeiqeywas4c57kpjvh4xs2mi,3uxuoq9okia63uefcg3c13dg4hda7o,6hpuoF6S,2020-0188,2020-05-07,18:50:43,19:09:11,NA,incomplete,114,filling,0,right,Green_Circle_Stripes_4.jpg,Green_Plus_Grid_1.jpg,Purple_Star_Stripes_2.jpg,right,1222,true,low,false
6hpuoF6S,36d1bwbeiqeywas4c57kpjvh4xs2mi,3uxuoq9okia63uefcg3c13dg4hda7o,6hpuoF6S,2020-0188,2020-05-07,18:50:43,19:09:11,NA,incomplete,115,filling,1,right,Blue_Circle_Grid_1.jpg,Blue_Star_Dots_3.jpg,Purple_Triangle_Grid_4.jpg,right,1529,true,low,false
6hpuoF6S,36d1bwbeiqeywas4c57kpjvh4xs2mi,3uxuoq9okia63uefcg3c13dg4hda7o,6hpuoF6S,2020-0188,2020-05-07,18:50:43,19:09:11,NA,incomplete,116,filling,1,left,Purple_Triangle_Grid_1.jpg,Green_Circle_Grid_2.jpg,Purple_Star_Dots_3.jpg,left,1292,true,low,false
6hpuoF6S,36d1bwbeiqeywas4c57kpjvh4xs2mi,3uxuoq9okia63uefcg3c13dg4hda7o,6hpuoF6S,2020-0188,2020-05-07,18:50:43,19:09:11,NA,incomplete,117,filling,1,right,Red_Star_Dots_2.jpg,Red_Triangle_Grid_1.jpg,Green_Circle_Dots_3.jpg,left,697,false,low,false
6hpuoF6S,36d1bwbeiqeywas4c57kpjvh4xs2mi,3uxuoq9okia63uefcg3c13dg4hda7o,6hpuoF6S,2020-0188,2020-05-07,18:50:43,19:09:11,NA,incomplete,118,filling,1,right,Purple_Plus_Stripes_2.jpg,Purple_Star_Dots_4.jpg,Green_Triangle_Stripes_1.jpg,right,1020,true,low,false
6hpuoF6S,36d1bwbeiqeywas4c57kpjvh4xs2mi,3uxuoq9okia63uefcg3c13dg4hda7o,6hpuoF6S,2020-0188,2020-05-07,18:50:43,19:09:11,NA,incomplete,119,filling,1,left,Green_Triangle_Stripes_2.jpg,Red_Circle_Stripes_3.jpg,Green_Star_Dots_4.jpg,left,968,true,low,false
6hpuoF6S,36d1bwbeiqeywas4c57kpjvh4xs2mi,3uxuoq9okia63uefcg3c13dg4hda7o,6hpuoF6S,2020-0188,2020-05-07,18:50:43,19:09:11,NA,incomplete,120,color,1,left,Red_Circle_Dots_4.jpg,Red_Star_Stripes_3.jpg,Green_Triangle_Dots_1.jpg,right,1571,false,low,false
6hpuoF6S,36d1bwbeiqeywas4c57kpjvh4xs2mi,3uxuoq9okia63uefcg3c13dg4hda7o,6hpuoF6S,2020-0188,2020-05-07,18:50:43,19:09:11,NA,incomplete,121,color,1,left,Blue_Star_Dots_1.jpg,Blue_Triangle_Chess_2.jpg,Green_Circle_Dots_4.jpg,left,823,true,low,false
6hpuoF6S,36d1bwbeiqeywas4c57kpjvh4xs2mi,3uxuoq9okia63uefcg3c13dg4hda7o,6hpuoF6S,2020-0188,2020-05-07,18:50:43,19:09:11,NA,incomplete,122,color,1,left,Red_Plus_Grid_2.jpg,Red_Star_Chess_1.jpg,Purple_Triangle_Grid_3.jpg,right,945,false,low,false
6hpuoF6S,36d1bwbeiqeywas4c57kpjvh4xs2mi,3uxuoq9okia63uefcg3c13dg4hda7o,6hpuoF6S,2020-0188,2020-05-07,18:50:43,19:09:11,NA,incomplete,123,color,0,right,Blue_Circle_Grid_2.jpg,Red_Triangle_Grid_1.jpg,Blue_Plus_Chess_3.jpg,left,1529,false,low,false
6hpuoF6S,36d1bwbeiqeywas4c57kpjvh4xs2mi,3uxuoq9okia63uefcg3c13dg4hda7o,6hpuoF6S,2020-0188,2020-05-07,18:50:43,19:09:11,NA,incomplete,124,color,1,right,Red_Triangle_Chess_2.jpg,Purple_Plus_Chess_4.jpg,Red_Star_Stripes_1.jpg,left,1357,false,low,false
6hpuoF6S,36d1bwbeiqeywas4c57kpjvh4xs2mi,3uxuoq9okia63uefcg3c13dg4hda7o,6hpuoF6S,2020-0188,2020-05-07,18:50:43,19:09:11,NA,incomplete,125,color,1,right,Purple_Star_Chess_3.jpg,Blue_Circle_Chess_4.jpg,Purple_Plus_Dots_2.jpg,left,1268,false,low,false
6hpuoF6S,36d1bwbeiqeywas4c57kpjvh4xs2mi,3uxuoq9okia63uefcg3c13dg4hda7o,6hpuoF6S,2020-0188,2020-05-07,18:50:43,19:09:11,NA,incomplete,126,color,1,left,Green_Star_Chess_4.jpg,Green_Triangle_Stripes_2.jpg,Red_Circle_Chess_3.jpg,right,1221,false,low,false
6hpuoF6S,36d1bwbeiqeywas4c57kpjvh4xs2mi,3uxuoq9okia63uefcg3c13dg4hda7o,6hpuoF6S,2020-0188,2020-05-07,18:50:43,19:09:11,NA,incomplete,127,color,0,left,Purple_Star_Chess_1.jpg,Purple_Triangle_Grid_3.jpg,Green_Plus_Chess_4.jpg,right,1512,false,low,false
6hpuoF6S,36d1bwbeiqeywas4c57kpjvh4xs2mi,3uxuoq9okia63uefcg3c13dg4hda7o,6hpuoF6S,2020-0188,2020-05-07,18:50:43,19:09:11,NA,incomplete,128,color,1,right,Blue_Circle_Grid_2.jpg,Green_Plus_Grid_1.jpg,Blue_Triangle_Dots_4.jpg,left,1248,false,low,false
6hpuoF6S,36d1bwbeiqeywas4c57kpjvh4xs2mi,3uxuoq9okia63uefcg3c13dg4hda7o,6hpuoF6S,2020-0188,2020-05-07,18:50:43,19:09:11,NA,incomplete,129,color,0,right,Purple_Triangle_Chess_1.jpg,Blue_Circle_Chess_3.jpg,Purple_Star_Stripes_4.jpg,left,979,false,low,false
6hpuoF6S,36d1bwbeiqeywas4c57kpjvh4xs2mi,3uxuoq9okia63uefcg3c13dg4hda7o,6hpuoF6S,2020-0188,2020-05-07,18:50:43,19:09:11,NA,incomplete,130,color,1,left,Red_Plus_Grid_1.jpg,Red_Triangle_Chess_4.jpg,Green_Star_Grid_2.jpg,right,1480,false,low,false
6hpuoF6S,36d1bwbeiqeywas4c57kpjvh4xs2mi,3uxuoq9okia63uefcg3c13dg4hda7o,6hpuoF6S,2020-0188,2020-05-07,18:50:43,19:09:11,NA,incomplete,131,color,1,right,Red_Circle_Stripes_1.jpg,Green_Plus_Stripes_2.jpg,Red_Triangle_Grid_4.jpg,left,1077,false,low,false
6hpuoF6S,36d1bwbeiqeywas4c57kpjvh4xs2mi,3uxuoq9okia63uefcg3c13dg4hda7o,6hpuoF6S,2020-0188,2020-05-07,18:50:43,19:09:11,NA,incomplete,132,color,1,right,Green_Triangle_Stripes_3.jpg,Blue_Star_Stripes_1.jpg,Green_Plus_Grid_2.jpg,right,556,true,low,false
6hpuoF6S,36d1bwbeiqeywas4c57kpjvh4xs2mi,3uxuoq9okia63uefcg3c13dg4hda7o,6hpuoF6S,2020-0188,2020-05-07,18:50:43,19:09:11,NA,incomplete,133,color,0,left,Red_Plus_Stripes_2.jpg,Red_Triangle_Grid_3.jpg,Purple_Star_Stripes_4.jpg,left,516,true,low,false
6hpuoF6S,36d1bwbeiqeywas4c57kpjvh4xs2mi,3uxuoq9okia63uefcg3c13dg4hda7o,6hpuoF6S,2020-0188,2020-05-07,18:50:43,19:09:11,NA,incomplete,134,color,1,right,Red_Triangle_Chess_3.jpg,Green_Circle_Chess_1.jpg,Red_Plus_Dots_2.jpg,right,1395,true,low,false
6hpuoF6S,36d1bwbeiqeywas4c57kpjvh4xs2mi,3uxuoq9okia63uefcg3c13dg4hda7o,6hpuoF6S,2020-0188,2020-05-07,18:50:43,19:09:11,NA,incomplete,135,color,0,left,Purple_Plus_Stripes_3.jpg,Purple_Star_Grid_2.jpg,Blue_Circle_Stripes_4.jpg,right,1388,false,low,false
6hpuoF6S,36d1bwbeiqeywas4c57kpjvh4xs2mi,3uxuoq9okia63uefcg3c13dg4hda7o,6hpuoF6S,2020-0188,2020-05-07,18:50:43,19:09:11,NA,incomplete,136,color,1,left,Red_Triangle_Grid_2.jpg,Red_Star_Chess_1.jpg,Purple_Plus_Grid_4.jpg,left,628,true,low,false
6hpuoF6S,36d1bwbeiqeywas4c57kpjvh4xs2mi,3uxuoq9okia63uefcg3c13dg4hda7o,6hpuoF6S,2020-0188,2020-05-07,18:50:43,19:09:11,NA,incomplete,137,color,1,left,Purple_Triangle_Grid_2.jpg,Purple_Circle_Chess_1.jpg,Red_Plus_Grid_4.jpg,right,1028,false,low,false
6hpuoF6S,36d1bwbeiqeywas4c57kpjvh4xs2mi,3uxuoq9okia63uefcg3c13dg4hda7o,6hpuoF6S,2020-0188,2020-05-07,18:50:43,19:09:11,NA,incomplete,138,color,1,left,Blue_Star_Chess_2.jpg,Blue_Plus_Stripes_4.jpg,Green_Triangle_Chess_3.jpg,right,1644,false,low,false
6hpuoF6S,36d1bwbeiqeywas4c57kpjvh4xs2mi,3uxuoq9okia63uefcg3c13dg4hda7o,6hpuoF6S,2020-0188,2020-05-07,18:50:43,19:09:11,NA,incomplete,139,color,1,right,Purple_Triangle_Dots_3.jpg,Red_Plus_Dots_2.jpg,Purple_Star_Chess_1.jpg,right,1343,true,low,false
6hpuoF6S,36d1bwbeiqeywas4c57kpjvh4xs2mi,3uxuoq9okia63uefcg3c13dg4hda7o,6hpuoF6S,2020-0188,2020-05-07,18:50:43,19:09:11,NA,incomplete,140,filling,1,right,Purple_Plus_Dots_1.jpg,Purple_Circle_Stripes_3.jpg,Blue_Triangle_Dots_2.jpg,left,840,false,low,false
6hpuoF6S,36d1bwbeiqeywas4c57kpjvh4xs2mi,3uxuoq9okia63uefcg3c13dg4hda7o,6hpuoF6S,2020-0188,2020-05-07,18:50:43,19:09:11,NA,incomplete,141,filling,1,left,Blue_Plus_Chess_3.jpg,Green_Triangle_Chess_1.jpg,Blue_Star_Stripes_4.jpg,none,0,false,low,false
6hpuoF6S,36d1bwbeiqeywas4c57kpjvh4xs2mi,3uxuoq9okia63uefcg3c13dg4hda7o,6hpuoF6S,2020-0188,2020-05-07,18:50:43,19:09:11,NA,incomplete,142,filling,1,right,Green_Triangle_Dots_2.jpg,Green_Star_Stripes_3.jpg,Red_Plus_Dots_4.jpg,left,1136,false,low,false
6hpuoF6S,36d1bwbeiqeywas4c57kpjvh4xs2mi,3uxuoq9okia63uefcg3c13dg4hda7o,6hpuoF6S,2020-0188,2020-05-07,18:50:43,19:09:11,NA,incomplete,143,filling,1,right,Red_Triangle_Grid_3.jpg,Red_Star_Chess_2.jpg,Green_Plus_Grid_4.jpg,right,1163,true,low,false
6hpuoF6S,36d1bwbeiqeywas4c57kpjvh4xs2mi,3uxuoq9okia63uefcg3c13dg4hda7o,6hpuoF6S,2020-0188,2020-05-07,18:50:43,19:09:11,NA,incomplete,144,filling,1,right,Green_Plus_Stripes_2.jpg,Green_Star_Dots_4.jpg,Purple_Triangle_Stripes_1.jpg,left,1257,false,low,false
6hpuoF6S,36d1bwbeiqeywas4c57kpjvh4xs2mi,3uxuoq9okia63uefcg3c13dg4hda7o,6hpuoF6S,2020-0188,2020-05-07,18:50:43,19:09:11,NA,incomplete,145,filling,1,left,Green_Triangle_Chess_1.jpg,Red_Plus_Chess_4.jpg,Green_Circle_Dots_2.jpg,left,1612,true,low,false
6hpuoF6S,36d1bwbeiqeywas4c57kpjvh4xs2mi,3uxuoq9okia63uefcg3c13dg4hda7o,6hpuoF6S,2020-0188,2020-05-07,18:50:43,19:09:11,NA,incomplete,146,filling,0,left,Blue_Plus_Stripes_3.jpg,Purple_Star_Stripes_2.jpg,Blue_Circle_Dots_4.jpg,right,983,false,low,false
6hpuoF6S,36d1bwbeiqeywas4c57kpjvh4xs2mi,3uxuoq9okia63uefcg3c13dg4hda7o,6hpuoF6S,2020-0188,2020-05-07,18:50:43,19:09:11,NA,incomplete,147,filling,1,right,Blue_Plus_Stripes_4.jpg,Blue_Circle_Dots_3.jpg,Green_Triangle_Stripes_2.jpg,left,584,false,low,false
6hpuoF6S,36d1bwbeiqeywas4c57kpjvh4xs2mi,3uxuoq9okia63uefcg3c13dg4hda7o,6hpuoF6S,2020-0188,2020-05-07,18:50:43,19:09:11,NA,incomplete,148,filling,1,left,Red_Circle_Dots_2.jpg,Blue_Triangle_Dots_4.jpg,Red_Plus_Grid_3.jpg,left,1271,true,low,false
6hpuoF6S,36d1bwbeiqeywas4c57kpjvh4xs2mi,3uxuoq9okia63uefcg3c13dg4hda7o,6hpuoF6S,2020-0188,2020-05-07,18:50:43,19:09:11,NA,incomplete,149,filling,1,left,Blue_Triangle_Dots_2.jpg,Red_Plus_Dots_1.jpg,Blue_Star_Stripes_4.jpg,left,1105,true,low,false
6hpuoF6S,36d1bwbeiqeywas4c57kpjvh4xs2mi,3uxuoq9okia63uefcg3c13dg4hda7o,6hpuoF6S,2020-0188,2020-05-07,18:50:43,19:09:11,NA,incomplete,150,filling,0,right,Green_Circle_Chess_3.jpg,Green_Plus_Dots_1.jpg,Red_Star_Chess_4.jpg,right,1023,true,low,false
6hpuoF6S,36d1bwbeiqeywas4c57kpjvh4xs2mi,3uxuoq9okia63uefcg3c13dg4hda7o,6hpuoF6S,2020-0188,2020-05-07,18:50:43,19:09:11,NA,incomplete,151,filling,1,right,Green_Star_Grid_4.jpg,Green_Plus_Chess_2.jpg,Purple_Triangle_Grid_3.jpg,left,1143,false,low,false
6hpuoF6S,36d1bwbeiqeywas4c57kpjvh4xs2mi,3uxuoq9okia63uefcg3c13dg4hda7o,6hpuoF6S,2020-0188,2020-05-07,18:50:43,19:09:11,NA,incomplete,152,filling,1,left,Blue_Triangle_Stripes_1.jpg,Green_Circle_Stripes_3.jpg,Blue_Plus_Dots_2.jpg,left,831,true,low,false
6hpuoF6S,36d1bwbeiqeywas4c57kpjvh4xs2mi,3uxuoq9okia63uefcg3c13dg4hda7o,6hpuoF6S,2020-0188,2020-05-07,18:50:43,19:09:11,NA,incomplete,153,filling,0,left,Purple_Star_Stripes_1.jpg,Green_Triangle_Stripes_3.jpg,Purple_Plus_Grid_4.jpg,left,1064,true,low,false
6hpuoF6S,36d1bwbeiqeywas4c57kpjvh4xs2mi,3uxuoq9okia63uefcg3c13dg4hda7o,6hpuoF6S,2020-0188,2020-05-07,18:50:43,19:09:11,NA,incomplete,154,filling,1,right,Red_Plus_Grid_1.jpg,Red_Triangle_Chess_4.jpg,Green_Star_Grid_2.jpg,right,1055,true,low,false
6hpuoF6S,36d1bwbeiqeywas4c57kpjvh4xs2mi,3uxuoq9okia63uefcg3c13dg4hda7o,6hpuoF6S,2020-0188,2020-05-07,18:50:43,19:09:11,NA,incomplete,155,filling,1,right,Purple_Star_Dots_1.jpg,Purple_Plus_Grid_2.jpg,Red_Triangle_Dots_4.jpg,right,1005,true,low,false
6hpuoF6S,36d1bwbeiqeywas4c57kpjvh4xs2mi,3uxuoq9okia63uefcg3c13dg4hda7o,6hpuoF6S,2020-0188,2020-05-07,18:50:43,19:09:11,NA,incomplete,156,filling,0,left,Purple_Star_Chess_3.jpg,Green_Circle_Chess_4.jpg,Purple_Triangle_Dots_2.jpg,left,895,true,low,false
6hpuoF6S,36d1bwbeiqeywas4c57kpjvh4xs2mi,3uxuoq9okia63uefcg3c13dg4hda7o,6hpuoF6S,2020-0188,2020-05-07,18:50:43,19:09:11,NA,incomplete,157,filling,1,left,Blue_Circle_Chess_3.jpg,Purple_Star_Chess_2.jpg,Blue_Plus_Stripes_4.jpg,left,932,true,low,false
6hpuoF6S,36d1bwbeiqeywas4c57kpjvh4xs2mi,3uxuoq9okia63uefcg3c13dg4hda7o,6hpuoF6S,2020-0188,2020-05-07,18:50:43,19:09:11,NA,incomplete,158,filling,1,right,Purple_Triangle_Stripes_4.jpg,Purple_Star_Grid_2.jpg,Blue_Circle_Stripes_3.jpg,right,997,true,low,false
6hpuoF6S,36d1bwbeiqeywas4c57kpjvh4xs2mi,3uxuoq9okia63uefcg3c13dg4hda7o,6hpuoF6S,2020-0188,2020-05-07,18:50:43,19:09:11,NA,incomplete,159,filling,1,right,Green_Triangle_Dots_4.jpg,Green_Star_Chess_1.jpg,Purple_Circle_Dots_2.jpg,right,862,true,low,false
6hpuoF6S,36d1bwbeiqeywas4c57kpjvh4xs2mi,3uxuoq9okia63uefcg3c13dg4hda7o,6hpuoF6S,2020-0188,2020-05-07,18:50:43,19:09:11,NA,incomplete,160,color,0,left,Blue_Plus_Grid_3.jpg,Blue_Triangle_Dots_4.jpg,Red_Circle_Grid_1.jpg,right,870,false,low,false
6hpuoF6S,36d1bwbeiqeywas4c57kpjvh4xs2mi,3uxuoq9okia63uefcg3c13dg4hda7o,6hpuoF6S,2020-0188,2020-05-07,18:50:43,19:09:11,NA,incomplete,161,color,1,left,Purple_Circle_Dots_2.jpg,Purple_Star_Stripes_3.jpg,Red_Plus_Dots_4.jpg,right,1213,false,low,false
6hpuoF6S,36d1bwbeiqeywas4c57kpjvh4xs2mi,3uxuoq9okia63uefcg3c13dg4hda7o,6hpuoF6S,2020-0188,2020-05-07,18:50:43,19:09:11,NA,incomplete,162,color,1,right,Purple_Circle_Dots_2.jpg,Green_Triangle_Dots_4.jpg,Purple_Star_Grid_3.jpg,left,878,false,low,false
6hpuoF6S,36d1bwbeiqeywas4c57kpjvh4xs2mi,3uxuoq9okia63uefcg3c13dg4hda7o,6hpuoF6S,2020-0188,2020-05-07,18:50:43,19:09:11,NA,incomplete,163,color,1,left,Purple_Triangle_Grid_3.jpg,Purple_Plus_Chess_1.jpg,Green_Star_Grid_4.jpg,left,711,true,low,false
6hpuoF6S,36d1bwbeiqeywas4c57kpjvh4xs2mi,3uxuoq9okia63uefcg3c13dg4hda7o,6hpuoF6S,2020-0188,2020-05-07,18:50:43,19:09:11,NA,incomplete,164,color,0,right,Red_Triangle_Dots_1.jpg,Blue_Star_Dots_4.jpg,Red_Circle_Chess_3.jpg,right,645,true,low,false
6hpuoF6S,36d1bwbeiqeywas4c57kpjvh4xs2mi,3uxuoq9okia63uefcg3c13dg4hda7o,6hpuoF6S,2020-0188,2020-05-07,18:50:43,19:09:11,NA,incomplete,165,color,1,left,Red_Circle_Grid_4.jpg,Red_Plus_Stripes_3.jpg,Blue_Star_Grid_2.jpg,left,690,true,low,false
6hpuoF6S,36d1bwbeiqeywas4c57kpjvh4xs2mi,3uxuoq9okia63uefcg3c13dg4hda7o,6hpuoF6S,2020-0188,2020-05-07,18:50:43,19:09:11,NA,incomplete,166,color,1,right,Green_Circle_Grid_4.jpg,Red_Star_Grid_3.jpg,Green_Plus_Stripes_1.jpg,right,622,true,low,false
6hpuoF6S,36d1bwbeiqeywas4c57kpjvh4xs2mi,3uxuoq9okia63uefcg3c13dg4hda7o,6hpuoF6S,2020-0188,2020-05-07,18:50:43,19:09:11,NA,incomplete,167,color,1,left,Purple_Star_Stripes_4.jpg,Purple_Plus_Chess_1.jpg,Green_Triangle_Stripes_2.jpg,left,1014,true,low,false
6hpuoF6S,36d1bwbeiqeywas4c57kpjvh4xs2mi,3uxuoq9okia63uefcg3c13dg4hda7o,6hpuoF6S,2020-0188,2020-05-07,18:50:43,19:09:11,NA,incomplete,168,color,1,right,Red_Star_Chess_3.jpg,Purple_Triangle_Chess_1.jpg,Red_Plus_Stripes_4.jpg,right,507,true,low,false
6hpuoF6S,36d1bwbeiqeywas4c57kpjvh4xs2mi,3uxuoq9okia63uefcg3c13dg4hda7o,6hpuoF6S,2020-0188,2020-05-07,18:50:43,19:09:11,NA,incomplete,169,color,1,right,Red_Circle_Dots_1.jpg,Blue_Triangle_Dots_3.jpg,Red_Star_Grid_4.jpg,right,602,true,low,false
6hpuoF6S,36d1bwbeiqeywas4c57kpjvh4xs2mi,3uxuoq9okia63uefcg3c13dg4hda7o,6hpuoF6S,2020-0188,2020-05-07,18:50:43,19:09:11,NA,incomplete,170,color,1,right,Red_Star_Chess_2.jpg,Blue_Circle_Chess_1.jpg,Red_Triangle_Grid_4.jpg,right,502,true,low,false
6hpuoF6S,36d1bwbeiqeywas4c57kpjvh4xs2mi,3uxuoq9okia63uefcg3c13dg4hda7o,6hpuoF6S,2020-0188,2020-05-07,18:50:43,19:09:11,NA,incomplete,171,color,1,right,Blue_Circle_Stripes_1.jpg,Red_Star_Stripes_3.jpg,Blue_Plus_Chess_2.jpg,left,853,false,low,false
6hpuoF6S,36d1bwbeiqeywas4c57kpjvh4xs2mi,3uxuoq9okia63uefcg3c13dg4hda7o,6hpuoF6S,2020-0188,2020-05-07,18:50:43,19:09:11,NA,incomplete,172,color,1,left,Purple_Circle_Stripes_4.jpg,Purple_Star_Grid_3.jpg,Green_Plus_Stripes_2.jpg,left,554,true,low,false
6hpuoF6S,36d1bwbeiqeywas4c57kpjvh4xs2mi,3uxuoq9okia63uefcg3c13dg4hda7o,6hpuoF6S,2020-0188,2020-05-07,18:50:43,19:09:11,NA,incomplete,173,color,1,right,Green_Star_Dots_1.jpg,Blue_Plus_Dots_4.jpg,Green_Triangle_Chess_3.jpg,right,554,true,low,false
6hpuoF6S,36d1bwbeiqeywas4c57kpjvh4xs2mi,3uxuoq9okia63uefcg3c13dg4hda7o,6hpuoF6S,2020-0188,2020-05-07,18:50:43,19:09:11,NA,incomplete,174,color,0,right,Green_Circle_Stripes_2.jpg,Purple_Star_Stripes_1.jpg,Green_Plus_Grid_4.jpg,right,610,true,low,false
6hpuoF6S,36d1bwbeiqeywas4c57kpjvh4xs2mi,3uxuoq9okia63uefcg3c13dg4hda7o,6hpuoF6S,2020-0188,2020-05-07,18:50:43,19:09:11,NA,incomplete,175,color,1,left,Blue_Circle_Stripes_1.jpg,Blue_Star_Grid_2.jpg,Purple_Triangle_Stripes_4.jpg,left,716,true,low,false
6hpuoF6S,36d1bwbeiqeywas4c57kpjvh4xs2mi,3uxuoq9okia63uefcg3c13dg4hda7o,6hpuoF6S,2020-0188,2020-05-07,18:50:43,19:09:11,NA,incomplete,176,color,1,right,Green_Star_Chess_3.jpg,Purple_Circle_Chess_2.jpg,Green_Plus_Grid_1.jpg,right,1764,true,low,false
6hpuoF6S,36d1bwbeiqeywas4c57kpjvh4xs2mi,3uxuoq9okia63uefcg3c13dg4hda7o,6hpuoF6S,2020-0188,2020-05-07,18:50:43,19:09:11,NA,incomplete,177,color,1,right,Blue_Star_Grid_2.jpg,Green_Circle_Grid_4.jpg,Blue_Plus_Dots_3.jpg,left,1625,false,low,false
6hpuoF6S,36d1bwbeiqeywas4c57kpjvh4xs2mi,3uxuoq9okia63uefcg3c13dg4hda7o,6hpuoF6S,2020-0188,2020-05-07,18:50:43,19:09:11,NA,incomplete,178,color,1,right,Blue_Triangle_Grid_2.jpg,Red_Circle_Grid_1.jpg,Blue_Star_Dots_4.jpg,right,818,true,low,false
6hpuoF6S,36d1bwbeiqeywas4c57kpjvh4xs2mi,3uxuoq9okia63uefcg3c13dg4hda7o,6hpuoF6S,2020-0188,2020-05-07,18:50:43,19:09:11,NA,incomplete,179,color,1,right,Purple_Triangle_Dots_3.jpg,Red_Circle_Dots_4.jpg,Purple_Plus_Stripes_1.jpg,right,733,true,low,false
6hpuoF6S,36d1bwbeiqeywas4c57kpjvh4xs2mi,3uxuoq9okia63uefcg3c13dg4hda7o,6hpuoF6S,2020-0188,2020-05-07,18:50:43,19:09:11,NA,incomplete,180,filling,1,left,Purple_Triangle_Dots_2.jpg,Green_Circle_Dots_4.jpg,Purple_Star_Chess_1.jpg,right,585,false,low,false
6hpuoF6S,36d1bwbeiqeywas4c57kpjvh4xs2mi,3uxuoq9okia63uefcg3c13dg4hda7o,6hpuoF6S,2020-0188,2020-05-07,18:50:43,19:09:11,NA,incomplete,181,filling,1,right,Blue_Plus_Dots_2.jpg,Blue_Circle_Stripes_4.jpg,Green_Star_Dots_1.jpg,left,662,false,low,false
6hpuoF6S,36d1bwbeiqeywas4c57kpjvh4xs2mi,3uxuoq9okia63uefcg3c13dg4hda7o,6hpuoF6S,2020-0188,2020-05-07,18:50:43,19:09:11,NA,incomplete,182,filling,1,left,Green_Star_Chess_1.jpg,Red_Plus_Chess_2.jpg,Green_Circle_Stripes_3.jpg,right,577,false,low,false
6hpuoF6S,36d1bwbeiqeywas4c57kpjvh4xs2mi,3uxuoq9okia63uefcg3c13dg4hda7o,6hpuoF6S,2020-0188,2020-05-07,18:50:43,19:09:11,NA,incomplete,183,filling,0,right,Red_Triangle_Stripes_1.jpg,Red_Circle_Grid_2.jpg,Blue_Plus_Stripes_3.jpg,right,1046,true,low,false
6hpuoF6S,36d1bwbeiqeywas4c57kpjvh4xs2mi,3uxuoq9okia63uefcg3c13dg4hda7o,6hpuoF6S,2020-0188,2020-05-07,18:50:43,19:09:11,NA,incomplete,184,filling,1,right,Green_Triangle_Grid_3.jpg,Green_Plus_Chess_1.jpg,Blue_Star_Grid_2.jpg,left,699,false,low,false
6hpuoF6S,36d1bwbeiqeywas4c57kpjvh4xs2mi,3uxuoq9okia63uefcg3c13dg4hda7o,6hpuoF6S,2020-0188,2020-05-07,18:50:43,19:09:11,NA,incomplete,185,filling,1,left,Green_Star_Grid_2.jpg,Purple_Circle_Grid_3.jpg,Green_Triangle_Chess_1.jpg,left,1341,true,low,false
6hpuoF6S,36d1bwbeiqeywas4c57kpjvh4xs2mi,3uxuoq9okia63uefcg3c13dg4hda7o,6hpuoF6S,2020-0188,2020-05-07,18:50:43,19:09:11,NA,incomplete,186,filling,1,left,Purple_Triangle_Stripes_3.jpg,Blue_Plus_Stripes_2.jpg,Purple_Star_Dots_1.jpg,right,829,false,low,false
6hpuoF6S,36d1bwbeiqeywas4c57kpjvh4xs2mi,3uxuoq9okia63uefcg3c13dg4hda7o,6hpuoF6S,2020-0188,2020-05-07,18:50:43,19:09:11,NA,incomplete,187,filling,1,left,Purple_Plus_Chess_1.jpg,Red_Triangle_Chess_2.jpg,Purple_Circle_Dots_3.jpg,left,1253,true,low,false
6hpuoF6S,36d1bwbeiqeywas4c57kpjvh4xs2mi,3uxuoq9okia63uefcg3c13dg4hda7o,6hpuoF6S,2020-0188,2020-05-07,18:50:43,19:09:11,NA,incomplete,188,filling,0,left,Blue_Star_Grid_1.jpg,Red_Triangle_Grid_3.jpg,Blue_Circle_Stripes_2.jpg,left,1353,true,low,false
6hpuoF6S,36d1bwbeiqeywas4c57kpjvh4xs2mi,3uxuoq9okia63uefcg3c13dg4hda7o,6hpuoF6S,2020-0188,2020-05-07,18:50:43,19:09:11,NA,incomplete,189,filling,1,right,Red_Triangle_Stripes_1.jpg,Red_Circle_Dots_4.jpg,Green_Star_Stripes_2.jpg,left,711,false,low,false
6hpuoF6S,36d1bwbeiqeywas4c57kpjvh4xs2mi,3uxuoq9okia63uefcg3c13dg4hda7o,6hpuoF6S,2020-0188,2020-05-07,18:50:43,19:09:11,NA,incomplete,190,filling,1,left,Red_Circle_Stripes_2.jpg,Blue_Triangle_Stripes_3.jpg,Red_Plus_Grid_1.jpg,left,794,true,low,false
6hpuoF6S,36d1bwbeiqeywas4c57kpjvh4xs2mi,3uxuoq9okia63uefcg3c13dg4hda7o,6hpuoF6S,2020-0188,2020-05-07,18:50:43,19:09:11,NA,incomplete,191,filling,1,right,Green_Triangle_Dots_1.jpg,Green_Plus_Stripes_3.jpg,Blue_Circle_Dots_4.jpg,left,898,false,low,false
6hpuoF6S,36d1bwbeiqeywas4c57kpjvh4xs2mi,3uxuoq9okia63uefcg3c13dg4hda7o,6hpuoF6S,2020-0188,2020-05-07,18:50:43,19:09:11,NA,incomplete,192,filling,1,right,Purple_Star_Grid_2.jpg,Purple_Plus_Dots_3.jpg,Green_Circle_Grid_4.jpg,right,1229,true,low,false
6hpuoF6S,36d1bwbeiqeywas4c57kpjvh4xs2mi,3uxuoq9okia63uefcg3c13dg4hda7o,6hpuoF6S,2020-0188,2020-05-07,18:50:43,19:09:11,NA,incomplete,193,filling,0,left,Green_Star_Chess_2.jpg,Red_Plus_Chess_3.jpg,Green_Triangle_Stripes_4.jpg,right,716,false,low,false
6hpuoF6S,36d1bwbeiqeywas4c57kpjvh4xs2mi,3uxuoq9okia63uefcg3c13dg4hda7o,6hpuoF6S,2020-0188,2020-05-07,18:50:43,19:09:11,NA,incomplete,194,filling,1,left,Green_Star_Chess_3.jpg,Red_Circle_Chess_2.jpg,Green_Plus_Dots_4.jpg,right,549,false,low,false
6hpuoF6S,36d1bwbeiqeywas4c57kpjvh4xs2mi,3uxuoq9okia63uefcg3c13dg4hda7o,6hpuoF6S,2020-0188,2020-05-07,18:50:43,19:09:11,NA,incomplete,195,filling,1,right,Purple_Circle_Grid_1.jpg,Purple_Plus_Chess_2.jpg,Blue_Star_Grid_3.jpg,left,636,false,low,false
6hpuoF6S,36d1bwbeiqeywas4c57kpjvh4xs2mi,3uxuoq9okia63uefcg3c13dg4hda7o,6hpuoF6S,2020-0188,2020-05-07,18:50:43,19:09:11,NA,incomplete,196,filling,1,left,Blue_Plus_Stripes_1.jpg,Green_Star_Stripes_4.jpg,Blue_Triangle_Chess_2.jpg,right,870,false,low,false
6hpuoF6S,36d1bwbeiqeywas4c57kpjvh4xs2mi,3uxuoq9okia63uefcg3c13dg4hda7o,6hpuoF6S,2020-0188,2020-05-07,18:50:43,19:09:11,NA,incomplete,197,filling,0,right,Red_Star_Chess_4.jpg,Red_Triangle_Grid_2.jpg,Purple_Plus_Chess_3.jpg,right,1030,true,low,false
6hpuoF6S,36d1bwbeiqeywas4c57kpjvh4xs2mi,3uxuoq9okia63uefcg3c13dg4hda7o,6hpuoF6S,2020-0188,2020-05-07,18:50:43,19:09:11,NA,incomplete,198,filling,1,right,Red_Plus_Chess_1.jpg,Red_Triangle_Grid_3.jpg,Green_Circle_Chess_4.jpg,left,836,false,low,false
6hpuoF6S,36d1bwbeiqeywas4c57kpjvh4xs2mi,3uxuoq9okia63uefcg3c13dg4hda7o,6hpuoF6S,2020-0188,2020-05-07,18:50:43,19:09:11,NA,incomplete,199,filling,1,left,Red_Triangle_Grid_4.jpg,Purple_Circle_Grid_2.jpg,Red_Star_Stripes_3.jpg,right,805,false,low,false
6hpuoF6S,36d1bwbeiqeywas4c57kpjvh4xs2mi,3uxuoq9okia63uefcg3c13dg4hda7o,6hpuoF6S,2020-0188,2020-05-07,18:50:43,19:09:11,NA,incomplete,200,color,1,right,Purple_Triangle_Stripes_3.jpg,Red_Star_Stripes_4.jpg,Purple_Circle_Grid_2.jpg,left,1209,false,low,false
6hpuoF6S,36d1bwbeiqeywas4c57kpjvh4xs2mi,3uxuoq9okia63uefcg3c13dg4hda7o,6hpuoF6S,2020-0188,2020-05-07,18:50:43,19:09:11,NA,incomplete,201,color,0,right,Green_Circle_Stripes_4.jpg,Purple_Star_Stripes_2.jpg,Green_Triangle_Chess_1.jpg,right,574,true,low,false
6hpuoF6S,36d1bwbeiqeywas4c57kpjvh4xs2mi,3uxuoq9okia63uefcg3c13dg4hda7o,6hpuoF6S,2020-0188,2020-05-07,18:50:43,19:09:11,NA,incomplete,202,color,1,right,Green_Circle_Chess_4.jpg,Blue_Plus_Chess_1.jpg,Green_Triangle_Dots_3.jpg,left,809,false,low,false
6hpuoF6S,36d1bwbeiqeywas4c57kpjvh4xs2mi,3uxuoq9okia63uefcg3c13dg4hda7o,6hpuoF6S,2020-0188,2020-05-07,18:50:43,19:09:11,NA,incomplete,203,color,0,right,Blue_Triangle_Chess_2.jpg,Red_Star_Chess_4.jpg,Blue_Circle_Dots_1.jpg,left,1133,false,low,false
6hpuoF6S,36d1bwbeiqeywas4c57kpjvh4xs2mi,3uxuoq9okia63uefcg3c13dg4hda7o,6hpuoF6S,2020-0188,2020-05-07,18:50:43,19:09:11,NA,incomplete,204,color,1,left,Green_Star_Dots_4.jpg,Green_Triangle_Stripes_1.jpg,Purple_Circle_Dots_2.jpg,right,784,false,low,false
6hpuoF6S,36d1bwbeiqeywas4c57kpjvh4xs2mi,3uxuoq9okia63uefcg3c13dg4hda7o,6hpuoF6S,2020-0188,2020-05-07,18:50:43,19:09:11,NA,incomplete,205,color,1,left,Purple_Star_Chess_3.jpg,Purple_Circle_Grid_1.jpg,Green_Plus_Chess_2.jpg,left,633,true,low,false
6hpuoF6S,36d1bwbeiqeywas4c57kpjvh4xs2mi,3uxuoq9okia63uefcg3c13dg4hda7o,6hpuoF6S,2020-0188,2020-05-07,18:50:43,19:09:11,NA,incomplete,206,color,1,right,Red_Circle_Dots_3.jpg,Purple_Triangle_Dots_1.jpg,Red_Plus_Stripes_2.jpg,right,607,true,low,false
6hpuoF6S,36d1bwbeiqeywas4c57kpjvh4xs2mi,3uxuoq9okia63uefcg3c13dg4hda7o,6hpuoF6S,2020-0188,2020-05-07,18:50:43,19:09:11,NA,incomplete,207,color,0,right,Green_Plus_Chess_1.jpg,Red_Triangle_Chess_2.jpg,Green_Star_Stripes_4.jpg,right,517,true,low,false
6hpuoF6S,36d1bwbeiqeywas4c57kpjvh4xs2mi,3uxuoq9okia63uefcg3c13dg4hda7o,6hpuoF6S,2020-0188,2020-05-07,18:50:43,19:09:11,NA,incomplete,208,color,1,left,Red_Circle_Chess_1.jpg,Red_Triangle_Stripes_2.jpg,Green_Plus_Chess_4.jpg,left,492,true,low,false
6hpuoF6S,36d1bwbeiqeywas4c57kpjvh4xs2mi,3uxuoq9okia63uefcg3c13dg4hda7o,6hpuoF6S,2020-0188,2020-05-07,18:50:43,19:09:11,NA,incomplete,209,color,1,left,Red_Plus_Stripes_1.jpg,Red_Circle_Dots_4.jpg,Green_Star_Stripes_2.jpg,left,447,true,low,false
6hpuoF6S,36d1bwbeiqeywas4c57kpjvh4xs2mi,3uxuoq9okia63uefcg3c13dg4hda7o,6hpuoF6S,2020-0188,2020-05-07,18:50:43,19:09:11,NA,incomplete,210,color,1,left,Blue_Plus_Grid_1.jpg,Blue_Triangle_Chess_4.jpg,Purple_Star_Grid_3.jpg,left,564,true,low,false
6hpuoF6S,36d1bwbeiqeywas4c57kpjvh4xs2mi,3uxuoq9okia63uefcg3c13dg4hda7o,6hpuoF6S,2020-0188,2020-05-07,18:50:43,19:09:11,NA,incomplete,211,color,1,left,Blue_Star_Stripes_3.jpg,Blue_Plus_Grid_4.jpg,Purple_Circle_Stripes_1.jpg,left,482,true,low,false
6hpuoF6S,36d1bwbeiqeywas4c57kpjvh4xs2mi,3uxuoq9okia63uefcg3c13dg4hda7o,6hpuoF6S,2020-0188,2020-05-07,18:50:43,19:09:11,NA,incomplete,212,color,0,left,Red_Circle_Stripes_2.jpg,Red_Triangle_Dots_3.jpg,Purple_Plus_Stripes_1.jpg,left,548,true,low,false
6hpuoF6S,36d1bwbeiqeywas4c57kpjvh4xs2mi,3uxuoq9okia63uefcg3c13dg4hda7o,6hpuoF6S,2020-0188,2020-05-07,18:50:43,19:09:11,NA,incomplete,213,color,1,right,Blue_Star_Stripes_1.jpg,Purple_Triangle_Stripes_3.jpg,Blue_Circle_Chess_4.jpg,right,573,true,low,false
6hpuoF6S,36d1bwbeiqeywas4c57kpjvh4xs2mi,3uxuoq9okia63uefcg3c13dg4hda7o,6hpuoF6S,2020-0188,2020-05-07,18:50:43,19:09:11,NA,incomplete,214,color,1,right,Blue_Star_Stripes_1.jpg,Purple_Plus_Stripes_2.jpg,Blue_Triangle_Dots_3.jpg,right,480,true,low,false
6hpuoF6S,36d1bwbeiqeywas4c57kpjvh4xs2mi,3uxuoq9okia63uefcg3c13dg4hda7o,6hpuoF6S,2020-0188,2020-05-07,18:50:43,19:09:11,NA,incomplete,215,color,1,left,Green_Plus_Dots_2.jpg,Green_Triangle_Grid_1.jpg,Red_Star_Dots_4.jpg,left,488,true,low,false
6hpuoF6S,36d1bwbeiqeywas4c57kpjvh4xs2mi,3uxuoq9okia63uefcg3c13dg4hda7o,6hpuoF6S,2020-0188,2020-05-07,18:50:43,19:09:11,NA,incomplete,216,color,0,right,Purple_Triangle_Grid_1.jpg,Green_Star_Grid_4.jpg,Purple_Plus_Dots_3.jpg,right,500,true,low,false
6hpuoF6S,36d1bwbeiqeywas4c57kpjvh4xs2mi,3uxuoq9okia63uefcg3c13dg4hda7o,6hpuoF6S,2020-0188,2020-05-07,18:50:43,19:09:11,NA,incomplete,217,color,1,left,Red_Plus_Grid_3.jpg,Red_Star_Stripes_1.jpg,Blue_Circle_Grid_4.jpg,left,544,true,low,false
6hpuoF6S,36d1bwbeiqeywas4c57kpjvh4xs2mi,3uxuoq9okia63uefcg3c13dg4hda7o,6hpuoF6S,2020-0188,2020-05-07,18:50:43,19:09:11,NA,incomplete,218,color,1,left,Blue_Triangle_Grid_4.jpg,Blue_Circle_Stripes_1.jpg,Green_Plus_Grid_2.jpg,left,512,true,low,false
6hpuoF6S,36d1bwbeiqeywas4c57kpjvh4xs2mi,3uxuoq9okia63uefcg3c13dg4hda7o,6hpuoF6S,2020-0188,2020-05-07,18:50:43,19:09:11,NA,incomplete,219,color,1,right,Blue_Triangle_Stripes_4.jpg,Red_Circle_Stripes_2.jpg,Blue_Plus_Dots_1.jpg,right,544,true,low,false
6hpuoF6S,36d1bwbeiqeywas4c57kpjvh4xs2mi,3uxuoq9okia63uefcg3c13dg4hda7o,6hpuoF6S,2020-0188,2020-05-07,18:50:43,19:09:11,NA,incomplete,220,filling,1,right,Blue_Star_Dots_4.jpg,Blue_Plus_Grid_3.jpg,Green_Triangle_Dots_1.jpg,left,536,false,low,false
6hpuoF6S,36d1bwbeiqeywas4c57kpjvh4xs2mi,3uxuoq9okia63uefcg3c13dg4hda7o,6hpuoF6S,2020-0188,2020-05-07,18:50:43,19:09:11,NA,incomplete,221,filling,0,right,Green_Plus_Chess_4.jpg,Green_Circle_Grid_3.jpg,Purple_Triangle_Chess_1.jpg,left,484,false,low,false
6hpuoF6S,36d1bwbeiqeywas4c57kpjvh4xs2mi,3uxuoq9okia63uefcg3c13dg4hda7o,6hpuoF6S,2020-0188,2020-05-07,18:50:43,19:09:11,NA,incomplete,222,filling,1,left,Blue_Triangle_Stripes_4.jpg,Green_Plus_Stripes_2.jpg,Blue_Star_Chess_1.jpg,right,536,false,low,false
6hpuoF6S,36d1bwbeiqeywas4c57kpjvh4xs2mi,3uxuoq9okia63uefcg3c13dg4hda7o,6hpuoF6S,2020-0188,2020-05-07,18:50:43,19:09:11,NA,incomplete,223,filling,1,left,Green_Plus_Grid_4.jpg,Blue_Circle_Grid_2.jpg,Green_Triangle_Dots_3.jpg,right,539,false,low,false
6hpuoF6S,36d1bwbeiqeywas4c57kpjvh4xs2mi,3uxuoq9okia63uefcg3c13dg4hda7o,6hpuoF6S,2020-0188,2020-05-07,18:50:43,19:09:11,NA,incomplete,224,filling,1,left,Purple_Plus_Stripes_1.jpg,Red_Triangle_Stripes_4.jpg,Purple_Circle_Grid_2.jpg,right,568,false,low,false
6hpuoF6S,36d1bwbeiqeywas4c57kpjvh4xs2mi,3uxuoq9okia63uefcg3c13dg4hda7o,6hpuoF6S,2020-0188,2020-05-07,18:50:43,19:09:11,NA,incomplete,225,filling,1,right,Red_Triangle_Chess_3.jpg,Red_Star_Stripes_2.jpg,Green_Circle_Chess_1.jpg,left,540,false,low,false
6hpuoF6S,36d1bwbeiqeywas4c57kpjvh4xs2mi,3uxuoq9okia63uefcg3c13dg4hda7o,6hpuoF6S,2020-0188,2020-05-07,18:50:43,19:09:11,NA,incomplete,226,filling,1,right,Red_Plus_Chess_4.jpg,Red_Triangle_Stripes_3.jpg,Blue_Star_Chess_2.jpg,left,536,false,low,false
6hpuoF6S,36d1bwbeiqeywas4c57kpjvh4xs2mi,3uxuoq9okia63uefcg3c13dg4hda7o,6hpuoF6S,2020-0188,2020-05-07,18:50:43,19:09:11,NA,incomplete,227,filling,1,right,Purple_Star_Stripes_4.jpg,Purple_Plus_Chess_1.jpg,Blue_Circle_Stripes_3.jpg,left,663,false,low,false
6hpuoF6S,36d1bwbeiqeywas4c57kpjvh4xs2mi,3uxuoq9okia63uefcg3c13dg4hda7o,6hpuoF6S,2020-0188,2020-05-07,18:50:43,19:09:11,NA,incomplete,228,filling,1,left,Green_Star_Chess_1.jpg,Red_Plus_Chess_3.jpg,Green_Circle_Stripes_2.jpg,right,673,false,low,false
6hpuoF6S,36d1bwbeiqeywas4c57kpjvh4xs2mi,3uxuoq9okia63uefcg3c13dg4hda7o,6hpuoF6S,2020-0188,2020-05-07,18:50:43,19:09:11,NA,incomplete,229,filling,1,left,Green_Star_Grid_3.jpg,Blue_Plus_Grid_4.jpg,Green_Triangle_Chess_2.jpg,left,903,true,low,false
6hpuoF6S,36d1bwbeiqeywas4c57kpjvh4xs2mi,3uxuoq9okia63uefcg3c13dg4hda7o,6hpuoF6S,2020-0188,2020-05-07,18:50:43,19:09:11,NA,incomplete,230,filling,1,right,Blue_Plus_Stripes_2.jpg,Blue_Star_Chess_4.jpg,Red_Triangle_Stripes_1.jpg,right,1070,true,low,false
6hpuoF6S,36d1bwbeiqeywas4c57kpjvh4xs2mi,3uxuoq9okia63uefcg3c13dg4hda7o,6hpuoF6S,2020-0188,2020-05-07,18:50:43,19:09:11,NA,incomplete,231,filling,1,right,Purple_Star_Dots_2.jpg,Purple_Triangle_Chess_3.jpg,Red_Circle_Dots_1.jpg,right,776,true,low,false
6hpuoF6S,36d1bwbeiqeywas4c57kpjvh4xs2mi,3uxuoq9okia63uefcg3c13dg4hda7o,6hpuoF6S,2020-0188,2020-05-07,18:50:43,19:09:11,NA,incomplete,232,filling,1,left,Green_Plus_Grid_1.jpg,Red_Circle_Grid_2.jpg,Green_Star_Dots_3.jpg,left,842,true,low,false
6hpuoF6S,36d1bwbeiqeywas4c57kpjvh4xs2mi,3uxuoq9okia63uefcg3c13dg4hda7o,6hpuoF6S,2020-0188,2020-05-07,18:50:43,19:09:11,NA,incomplete,233,filling,0,left,Red_Plus_Grid_2.jpg,Blue_Star_Grid_3.jpg,Red_Triangle_Stripes_1.jpg,left,1047,true,low,false
6hpuoF6S,36d1bwbeiqeywas4c57kpjvh4xs2mi,3uxuoq9okia63uefcg3c13dg4hda7o,6hpuoF6S,2020-0188,2020-05-07,18:50:43,19:09:11,NA,incomplete,234,filling,1,left,Green_Star_Chess_2.jpg,Red_Circle_Chess_1.jpg,Green_Plus_Grid_4.jpg,right,531,false,low,false
6hpuoF6S,36d1bwbeiqeywas4c57kpjvh4xs2mi,3uxuoq9okia63uefcg3c13dg4hda7o,6hpuoF6S,2020-0188,2020-05-07,18:50:43,19:09:11,NA,incomplete,235,filling,1,right,Blue_Triangle_Grid_2.jpg,Blue_Star_Chess_3.jpg,Red_Plus_Grid_1.jpg,left,551,false,low,false
6hpuoF6S,36d1bwbeiqeywas4c57kpjvh4xs2mi,3uxuoq9okia63uefcg3c13dg4hda7o,6hpuoF6S,2020-0188,2020-05-07,18:50:43,19:09:11,NA,incomplete,236,filling,1,left,Green_Circle_Stripes_1.jpg,Blue_Triangle_Stripes_3.jpg,Green_Plus_Grid_4.jpg,left,840,true,low,false
6hpuoF6S,36d1bwbeiqeywas4c57kpjvh4xs2mi,3uxuoq9okia63uefcg3c13dg4hda7o,6hpuoF6S,2020-0188,2020-05-07,18:50:43,19:09:11,NA,incomplete,237,filling,1,right,Green_Star_Chess_3.jpg,Green_Triangle_Dots_2.jpg,Blue_Circle_Chess_1.jpg,right,822,true,low,false
6hpuoF6S,36d1bwbeiqeywas4c57kpjvh4xs2mi,3uxuoq9okia63uefcg3c13dg4hda7o,6hpuoF6S,2020-0188,2020-05-07,18:50:43,19:09:11,NA,incomplete,238,filling,0,right,Blue_Plus_Stripes_4.jpg,Blue_Star_Grid_3.jpg,Purple_Triangle_Stripes_1.jpg,left,663,false,low,false
6hpuoF6S,36d1bwbeiqeywas4c57kpjvh4xs2mi,3uxuoq9okia63uefcg3c13dg4hda7o,6hpuoF6S,2020-0188,2020-05-07,18:50:43,19:09:11,NA,incomplete,239,filling,1,right,Purple_Circle_Dots_2.jpg,Purple_Triangle_Stripes_1.jpg,Blue_Star_Dots_3.jpg,right,975,true,low,false
6hpuoF6S,36d1bwbeiqeywas4c57kpjvh4xs2mi,3uxuoq9okia63uefcg3c13dg4hda7o,6hpuoF6S,2020-0188,2020-05-07,18:50:43,19:09:11,1045173,1137099,NA,NA,NA,NA,NA,NA,NA,NA,NA,NA,NA,undefined
