workerId,hitId,assignmentId,subject,studyid,exp_date,exp_start,exp_end,time_start,time_end,trial,type,reward_validity,answer,image_top,image_left,image_right,response,response_time,response_acc,volatility,age,race,gender,ethnicity,color,vision,neuro,practice
BHYmdRSe,33cla8o0nlo9ukh858i8v1jgjoffrm,3v5q80fxi14zx8ioxp77i4i2nv132f,BHYmdRSe,2020-0188,2020-05-08,09:47:30,10:04:16,NA,incomplete,0,color,1,left,Green_Circle_Dots_3.jpg,Green_Triangle_Chess_1.jpg,Blue_Circle_Stripes_2.jpg,right,1289.2450001090765,false,NA,NA,NA,NA,NA,NA,NA,NA,true
BHYmdRSe,33cla8o0nlo9ukh858i8v1jgjoffrm,3v5q80fxi14zx8ioxp77i4i2nv132f,BHYmdRSe,2020-0188,2020-05-08,09:47:30,10:04:16,NA,incomplete,1,color,1,right,Red_Plus_Dots_1.jpg,Green_Plus_Stripes_4.jpg,Red_Triangle_Chess_3.jpg,right,780.1599998492748,true,NA,NA,NA,NA,NA,NA,NA,NA,true
BHYmdRSe,33cla8o0nlo9ukh858i8v1jgjoffrm,3v5q80fxi14zx8ioxp77i4i2nv132f,BHYmdRSe,2020-0188,2020-05-08,09:47:30,10:04:16,NA,incomplete,2,color,1,right,Green_Star_Chess_2.jpg,Red_Star_Grid_1.jpg,Green_Triangle_Dots_4.jpg,right,707.9650000669062,true,NA,NA,NA,NA,NA,NA,NA,NA,true
BHYmdRSe,33cla8o0nlo9ukh858i8v1jgjoffrm,3v5q80fxi14zx8ioxp77i4i2nv132f,BHYmdRSe,2020-0188,2020-05-08,09:47:30,10:04:16,NA,incomplete,3,color,1,left,Blue_Star_Chess_1.jpg,Blue_Circle_Dots_2.jpg,Purple_Star_Stripes_4.jpg,left,887.8349999431521,true,NA,NA,NA,NA,NA,NA,NA,NA,true
BHYmdRSe,33cla8o0nlo9ukh858i8v1jgjoffrm,3v5q80fxi14zx8ioxp77i4i2nv132f,BHYmdRSe,2020-0188,2020-05-08,09:47:30,10:04:16,NA,incomplete,4,color,1,left,Green_Circle_Grid_2.jpg,Green_Triangle_Stripes_1.jpg,Purple_Circle_Chess_3.jpg,left,720.2649998944253,true,NA,NA,NA,NA,NA,NA,NA,NA,true
BHYmdRSe,33cla8o0nlo9ukh858i8v1jgjoffrm,3v5q80fxi14zx8ioxp77i4i2nv132f,BHYmdRSe,2020-0188,2020-05-08,09:47:30,10:04:16,NA,incomplete,5,color,1,right,Green_Circle_Grid_3.jpg,Red_Circle_Stripes_2.jpg,Green_Plus_Chess_1.jpg,right,676.2600000947714,true,NA,NA,NA,NA,NA,NA,NA,NA,true
BHYmdRSe,33cla8o0nlo9ukh858i8v1jgjoffrm,3v5q80fxi14zx8ioxp77i4i2nv132f,BHYmdRSe,2020-0188,2020-05-08,09:47:30,10:04:16,NA,incomplete,6,color,1,right,Red_Triangle_Chess_1.jpg,Green_Triangle_Stripes_3.jpg,Red_Plus_Dots_4.jpg,right,690.0300001725554,true,NA,NA,NA,NA,NA,NA,NA,NA,true
BHYmdRSe,33cla8o0nlo9ukh858i8v1jgjoffrm,3v5q80fxi14zx8ioxp77i4i2nv132f,BHYmdRSe,2020-0188,2020-05-08,09:47:30,10:04:16,NA,incomplete,7,color,1,right,Blue_Circle_Dots_2.jpg,Red_Circle_Chess_1.jpg,Blue_Triangle_Grid_4.jpg,right,774.1550002247095,true,NA,NA,NA,NA,NA,NA,NA,NA,true
BHYmdRSe,33cla8o0nlo9ukh858i8v1jgjoffrm,3v5q80fxi14zx8ioxp77i4i2nv132f,BHYmdRSe,2020-0188,2020-05-08,09:47:30,10:04:16,NA,incomplete,8,color,1,left,Green_Plus_Chess_2.jpg,Green_Circle_Dots_1.jpg,Red_Plus_Stripes_4.jpg,left,628.214999800548,true,NA,NA,NA,NA,NA,NA,NA,NA,true
BHYmdRSe,33cla8o0nlo9ukh858i8v1jgjoffrm,3v5q80fxi14zx8ioxp77i4i2nv132f,BHYmdRSe,2020-0188,2020-05-08,09:47:30,10:04:16,NA,incomplete,9,color,0,right,Red_Triangle_Stripes_2.jpg,Green_Triangle_Chess_4.jpg,Red_Circle_Grid_3.jpg,right,631.4699999056756,true,NA,NA,NA,NA,NA,NA,NA,NA,true
BHYmdRSe,33cla8o0nlo9ukh858i8v1jgjoffrm,3v5q80fxi14zx8ioxp77i4i2nv132f,BHYmdRSe,2020-0188,2020-05-08,09:47:30,10:04:16,NA,incomplete,10,color,1,left,Red_Circle_Chess_4.jpg,Red_Plus_Grid_3.jpg,Purple_Circle_Dots_2.jpg,left,717.3850000835955,true,NA,NA,NA,NA,NA,NA,NA,NA,true
BHYmdRSe,33cla8o0nlo9ukh858i8v1jgjoffrm,3v5q80fxi14zx8ioxp77i4i2nv132f,BHYmdRSe,2020-0188,2020-05-08,09:47:30,10:04:16,NA,incomplete,11,color,1,left,Green_Triangle_Dots_4.jpg,Green_Star_Grid_3.jpg,Purple_Triangle_Stripes_1.jpg,left,635.0749998819083,true,NA,NA,NA,NA,NA,NA,NA,NA,true
BHYmdRSe,33cla8o0nlo9ukh858i8v1jgjoffrm,3v5q80fxi14zx8ioxp77i4i2nv132f,BHYmdRSe,2020-0188,2020-05-08,09:47:30,10:04:16,NA,incomplete,12,color,1,left,Purple_Plus_Grid_2.jpg,Purple_Circle_Chess_1.jpg,Red_Plus_Stripes_4.jpg,left,679.2099999729544,true,NA,NA,NA,NA,NA,NA,NA,NA,true
BHYmdRSe,33cla8o0nlo9ukh858i8v1jgjoffrm,3v5q80fxi14zx8ioxp77i4i2nv132f,BHYmdRSe,2020-0188,2020-05-08,09:47:30,10:04:16,NA,incomplete,13,color,0,right,Blue_Plus_Grid_1.jpg,Purple_Plus_Dots_3.jpg,Blue_Circle_Stripes_4.jpg,right,670.1500001363456,true,NA,NA,NA,NA,NA,NA,NA,NA,true
BHYmdRSe,33cla8o0nlo9ukh858i8v1jgjoffrm,3v5q80fxi14zx8ioxp77i4i2nv132f,BHYmdRSe,2020-0188,2020-05-08,09:47:30,10:04:16,NA,incomplete,14,color,0,left,Purple_Plus_Chess_4.jpg,Purple_Star_Dots_2.jpg,Blue_Plus_Grid_3.jpg,left,713.8350000604987,true,NA,NA,NA,NA,NA,NA,NA,NA,true
BHYmdRSe,33cla8o0nlo9ukh858i8v1jgjoffrm,3v5q80fxi14zx8ioxp77i4i2nv132f,BHYmdRSe,2020-0188,2020-05-08,09:47:30,10:04:16,NA,incomplete,15,color,1,right,Blue_Triangle_Stripes_4.jpg,Green_Triangle_Grid_3.jpg,Blue_Star_Dots_2.jpg,right,537.3350000008941,true,NA,NA,NA,NA,NA,NA,NA,NA,true
BHYmdRSe,33cla8o0nlo9ukh858i8v1jgjoffrm,3v5q80fxi14zx8ioxp77i4i2nv132f,BHYmdRSe,2020-0188,2020-05-08,09:47:30,10:04:16,NA,incomplete,16,color,1,left,Purple_Circle_Stripes_3.jpg,Purple_Star_Chess_1.jpg,Blue_Circle_Grid_4.jpg,left,670.3950001392514,true,NA,NA,NA,NA,NA,NA,NA,NA,true
BHYmdRSe,33cla8o0nlo9ukh858i8v1jgjoffrm,3v5q80fxi14zx8ioxp77i4i2nv132f,BHYmdRSe,2020-0188,2020-05-08,09:47:30,10:04:16,NA,incomplete,17,color,1,left,Red_Circle_Grid_1.jpg,Red_Plus_Stripes_3.jpg,Blue_Circle_Dots_4.jpg,left,657.9999998211861,true,NA,NA,NA,NA,NA,NA,NA,NA,true
BHYmdRSe,33cla8o0nlo9ukh858i8v1jgjoffrm,3v5q80fxi14zx8ioxp77i4i2nv132f,BHYmdRSe,2020-0188,2020-05-08,09:47:30,10:04:16,NA,incomplete,18,color,1,right,Purple_Star_Stripes_1.jpg,Red_Star_Dots_3.jpg,Purple_Circle_Chess_4.jpg,right,670.8599999547005,true,NA,NA,NA,NA,NA,NA,NA,NA,true
BHYmdRSe,33cla8o0nlo9ukh858i8v1jgjoffrm,3v5q80fxi14zx8ioxp77i4i2nv132f,BHYmdRSe,2020-0188,2020-05-08,09:47:30,10:04:16,NA,incomplete,19,color,1,left,Red_Star_Stripes_2.jpg,Red_Circle_Chess_4.jpg,Blue_Star_Dots_3.jpg,left,554.6300001442432,true,NA,NA,NA,NA,NA,NA,NA,NA,true
BHYmdRSe,33cla8o0nlo9ukh858i8v1jgjoffrm,3v5q80fxi14zx8ioxp77i4i2nv132f,BHYmdRSe,2020-0188,2020-05-08,09:47:30,10:04:16,NA,incomplete,20,shape,1,right,Red_Circle_Grid_1.jpg,Red_Triangle_Stripes_2.jpg,Green_Circle_Chess_3.jpg,left,641.2049999926239,false,NA,NA,NA,NA,NA,NA,NA,NA,true
BHYmdRSe,33cla8o0nlo9ukh858i8v1jgjoffrm,3v5q80fxi14zx8ioxp77i4i2nv132f,BHYmdRSe,2020-0188,2020-05-08,09:47:30,10:04:16,NA,incomplete,21,shape,1,right,Green_Circle_Grid_1.jpg,Green_Star_Stripes_3.jpg,Purple_Circle_Dots_4.jpg,right,838.9850000385195,true,NA,NA,NA,NA,NA,NA,NA,NA,true
BHYmdRSe,33cla8o0nlo9ukh858i8v1jgjoffrm,3v5q80fxi14zx8ioxp77i4i2nv132f,BHYmdRSe,2020-0188,2020-05-08,09:47:30,10:04:16,NA,incomplete,22,shape,0,left,Purple_Plus_Stripes_3.jpg,Red_Plus_Dots_2.jpg,Purple_Circle_Chess_4.jpg,left,846.4949999470264,true,NA,NA,NA,NA,NA,NA,NA,NA,true
BHYmdRSe,33cla8o0nlo9ukh858i8v1jgjoffrm,3v5q80fxi14zx8ioxp77i4i2nv132f,BHYmdRSe,2020-0188,2020-05-08,09:47:30,10:04:16,NA,incomplete,23,shape,1,right,Purple_Plus_Grid_2.jpg,Purple_Triangle_Stripes_4.jpg,Green_Plus_Dots_3.jpg,right,990.4699998442084,true,NA,NA,NA,NA,NA,NA,NA,NA,true
BHYmdRSe,33cla8o0nlo9ukh858i8v1jgjoffrm,3v5q80fxi14zx8ioxp77i4i2nv132f,BHYmdRSe,2020-0188,2020-05-08,09:47:30,10:04:16,NA,incomplete,24,shape,1,left,Green_Plus_Grid_3.jpg,Blue_Plus_Chess_4.jpg,Green_Triangle_Stripes_1.jpg,left,985.7299998402596,true,NA,NA,NA,NA,NA,NA,NA,NA,true
BHYmdRSe,33cla8o0nlo9ukh858i8v1jgjoffrm,3v5q80fxi14zx8ioxp77i4i2nv132f,BHYmdRSe,2020-0188,2020-05-08,09:47:30,10:04:16,NA,incomplete,25,shape,0,left,Blue_Circle_Dots_1.jpg,Red_Circle_Chess_4.jpg,Blue_Triangle_Grid_2.jpg,left,880.4999999701977,true,NA,NA,NA,NA,NA,NA,NA,NA,true
BHYmdRSe,33cla8o0nlo9ukh858i8v1jgjoffrm,3v5q80fxi14zx8ioxp77i4i2nv132f,BHYmdRSe,2020-0188,2020-05-08,09:47:30,10:04:16,NA,incomplete,26,shape,1,right,Red_Plus_Grid_3.jpg,Red_Triangle_Stripes_2.jpg,Blue_Plus_Chess_4.jpg,right,742.06000007689,true,NA,NA,NA,NA,NA,NA,NA,NA,true
BHYmdRSe,33cla8o0nlo9ukh858i8v1jgjoffrm,3v5q80fxi14zx8ioxp77i4i2nv132f,BHYmdRSe,2020-0188,2020-05-08,09:47:30,10:04:16,NA,incomplete,27,shape,0,right,Blue_Plus_Dots_3.jpg,Blue_Circle_Stripes_4.jpg,Red_Plus_Chess_2.jpg,right,856.4199998509139,true,NA,NA,NA,NA,NA,NA,NA,NA,true
BHYmdRSe,33cla8o0nlo9ukh858i8v1jgjoffrm,3v5q80fxi14zx8ioxp77i4i2nv132f,BHYmdRSe,2020-0188,2020-05-08,09:47:30,10:04:16,NA,incomplete,28,shape,1,left,Red_Triangle_Dots_1.jpg,Blue_Triangle_Chess_2.jpg,Red_Circle_Stripes_3.jpg,left,786.8249998427927,true,NA,NA,NA,NA,NA,NA,NA,NA,true
BHYmdRSe,33cla8o0nlo9ukh858i8v1jgjoffrm,3v5q80fxi14zx8ioxp77i4i2nv132f,BHYmdRSe,2020-0188,2020-05-08,09:47:30,10:04:16,NA,incomplete,29,shape,1,left,Red_Plus_Dots_1.jpg,Green_Plus_Grid_2.jpg,Red_Star_Stripes_3.jpg,left,860.8499998226762,true,NA,NA,NA,NA,NA,NA,NA,NA,true
BHYmdRSe,33cla8o0nlo9ukh858i8v1jgjoffrm,3v5q80fxi14zx8ioxp77i4i2nv132f,BHYmdRSe,2020-0188,2020-05-08,09:47:30,10:04:16,NA,incomplete,30,shape,1,left,Purple_Star_Dots_1.jpg,Green_Star_Stripes_3.jpg,Purple_Circle_Chess_2.jpg,left,781.5050000790507,true,NA,NA,NA,NA,NA,NA,NA,NA,true
BHYmdRSe,33cla8o0nlo9ukh858i8v1jgjoffrm,3v5q80fxi14zx8ioxp77i4i2nv132f,BHYmdRSe,2020-0188,2020-05-08,09:47:30,10:04:16,NA,incomplete,31,shape,1,left,Green_Circle_Chess_4.jpg,Red_Circle_Stripes_2.jpg,Green_Star_Grid_3.jpg,left,706.2299998942763,true,NA,NA,NA,NA,NA,NA,NA,NA,true
BHYmdRSe,33cla8o0nlo9ukh858i8v1jgjoffrm,3v5q80fxi14zx8ioxp77i4i2nv132f,BHYmdRSe,2020-0188,2020-05-08,09:47:30,10:04:16,NA,incomplete,32,shape,1,left,Purple_Triangle_Dots_3.jpg,Green_Triangle_Grid_2.jpg,Purple_Circle_Chess_1.jpg,left,805.4700000211596,true,NA,NA,NA,NA,NA,NA,NA,NA,true
BHYmdRSe,33cla8o0nlo9ukh858i8v1jgjoffrm,3v5q80fxi14zx8ioxp77i4i2nv132f,BHYmdRSe,2020-0188,2020-05-08,09:47:30,10:04:16,NA,incomplete,33,shape,1,right,Red_Star_Grid_4.jpg,Red_Circle_Chess_3.jpg,Blue_Star_Stripes_2.jpg,right,717.7000001538545,true,NA,NA,NA,NA,NA,NA,NA,NA,true
BHYmdRSe,33cla8o0nlo9ukh858i8v1jgjoffrm,3v5q80fxi14zx8ioxp77i4i2nv132f,BHYmdRSe,2020-0188,2020-05-08,09:47:30,10:04:16,NA,incomplete,34,shape,0,left,Green_Triangle_Grid_4.jpg,Purple_Triangle_Dots_2.jpg,Green_Plus_Chess_1.jpg,left,761.2400001380593,true,NA,NA,NA,NA,NA,NA,NA,NA,true
BHYmdRSe,33cla8o0nlo9ukh858i8v1jgjoffrm,3v5q80fxi14zx8ioxp77i4i2nv132f,BHYmdRSe,2020-0188,2020-05-08,09:47:30,10:04:16,NA,incomplete,35,shape,1,left,Red_Triangle_Grid_4.jpg,Purple_Triangle_Dots_2.jpg,Red_Circle_Stripes_3.jpg,left,810.0300000514835,true,NA,NA,NA,NA,NA,NA,NA,NA,true
BHYmdRSe,33cla8o0nlo9ukh858i8v1jgjoffrm,3v5q80fxi14zx8ioxp77i4i2nv132f,BHYmdRSe,2020-0188,2020-05-08,09:47:30,10:04:16,NA,incomplete,36,shape,1,right,Blue_Triangle_Stripes_2.jpg,Blue_Circle_Grid_3.jpg,Green_Triangle_Chess_1.jpg,right,645.3450000844896,true,NA,NA,NA,NA,NA,NA,NA,NA,true
BHYmdRSe,33cla8o0nlo9ukh858i8v1jgjoffrm,3v5q80fxi14zx8ioxp77i4i2nv132f,BHYmdRSe,2020-0188,2020-05-08,09:47:30,10:04:16,NA,incomplete,37,shape,1,left,Green_Triangle_Dots_1.jpg,Red_Triangle_Grid_2.jpg,Green_Circle_Chess_4.jpg,left,740.5149999540299,true,NA,NA,NA,NA,NA,NA,NA,NA,true
BHYmdRSe,33cla8o0nlo9ukh858i8v1jgjoffrm,3v5q80fxi14zx8ioxp77i4i2nv132f,BHYmdRSe,2020-0188,2020-05-08,09:47:30,10:04:16,NA,incomplete,38,shape,0,right,Red_Circle_Dots_2.jpg,Red_Star_Grid_3.jpg,Green_Circle_Chess_1.jpg,right,717.7249998785555,true,NA,NA,NA,NA,NA,NA,NA,NA,true
BHYmdRSe,33cla8o0nlo9ukh858i8v1jgjoffrm,3v5q80fxi14zx8ioxp77i4i2nv132f,BHYmdRSe,2020-0188,2020-05-08,09:47:30,10:04:16,NA,incomplete,39,shape,1,right,Blue_Triangle_Chess_4.jpg,Blue_Plus_Dots_1.jpg,Green_Triangle_Grid_2.jpg,right,658.8699999265373,true,NA,NA,NA,NA,NA,NA,NA,NA,true
BHYmdRSe,33cla8o0nlo9ukh858i8v1jgjoffrm,3v5q80fxi14zx8ioxp77i4i2nv132f,BHYmdRSe,2020-0188,2020-05-08,09:47:30,10:04:16,NA,incomplete,0,color,1,right,Red_Triangle_Dots_4.jpg,Blue_Triangle_Stripes_2.jpg,Red_Star_Grid_1.jpg,left,1089.4949999637902,false,high,NA,NA,NA,NA,NA,NA,NA,false
BHYmdRSe,33cla8o0nlo9ukh858i8v1jgjoffrm,3v5q80fxi14zx8ioxp77i4i2nv132f,BHYmdRSe,2020-0188,2020-05-08,09:47:30,10:04:16,NA,incomplete,1,color,1,left,Red_Circle_Chess_3.jpg,Red_Plus_Grid_4.jpg,Blue_Circle_Dots_1.jpg,left,607.1900001261383,true,high,NA,NA,NA,NA,NA,NA,NA,false
BHYmdRSe,33cla8o0nlo9ukh858i8v1jgjoffrm,3v5q80fxi14zx8ioxp77i4i2nv132f,BHYmdRSe,2020-0188,2020-05-08,09:47:30,10:04:16,NA,incomplete,2,color,1,left,Purple_Circle_Stripes_4.jpg,Purple_Star_Chess_3.jpg,Red_Circle_Grid_2.jpg,left,602.7899999171495,true,high,NA,NA,NA,NA,NA,NA,NA,false
BHYmdRSe,33cla8o0nlo9ukh858i8v1jgjoffrm,3v5q80fxi14zx8ioxp77i4i2nv132f,BHYmdRSe,2020-0188,2020-05-08,09:47:30,10:04:16,NA,incomplete,3,color,1,left,Red_Triangle_Grid_2.jpg,Red_Star_Chess_1.jpg,Blue_Triangle_Dots_3.jpg,left,850.6249999627471,true,high,NA,NA,NA,NA,NA,NA,NA,false
BHYmdRSe,33cla8o0nlo9ukh858i8v1jgjoffrm,3v5q80fxi14zx8ioxp77i4i2nv132f,BHYmdRSe,2020-0188,2020-05-08,09:47:30,10:04:16,NA,incomplete,4,color,0,right,Blue_Triangle_Grid_4.jpg,Red_Triangle_Chess_2.jpg,Blue_Plus_Dots_1.jpg,right,542.9849999491125,true,high,NA,NA,NA,NA,NA,NA,NA,false
BHYmdRSe,33cla8o0nlo9ukh858i8v1jgjoffrm,3v5q80fxi14zx8ioxp77i4i2nv132f,BHYmdRSe,2020-0188,2020-05-08,09:47:30,10:04:16,NA,incomplete,5,color,1,right,Blue_Circle_Grid_1.jpg,Red_Circle_Chess_3.jpg,Blue_Triangle_Stripes_4.jpg,right,523.869999917224,true,high,NA,NA,NA,NA,NA,NA,NA,false
BHYmdRSe,33cla8o0nlo9ukh858i8v1jgjoffrm,3v5q80fxi14zx8ioxp77i4i2nv132f,BHYmdRSe,2020-0188,2020-05-08,09:47:30,10:04:16,NA,incomplete,6,color,1,left,Blue_Plus_Chess_1.jpg,Blue_Circle_Stripes_4.jpg,Green_Plus_Dots_2.jpg,left,527.6000001467764,true,high,NA,NA,NA,NA,NA,NA,NA,false
BHYmdRSe,33cla8o0nlo9ukh858i8v1jgjoffrm,3v5q80fxi14zx8ioxp77i4i2nv132f,BHYmdRSe,2020-0188,2020-05-08,09:47:30,10:04:16,NA,incomplete,7,color,0,left,Blue_Plus_Stripes_1.jpg,Blue_Triangle_Dots_4.jpg,Red_Plus_Grid_3.jpg,left,533.3500001579523,true,high,NA,NA,NA,NA,NA,NA,NA,false
BHYmdRSe,33cla8o0nlo9ukh858i8v1jgjoffrm,3v5q80fxi14zx8ioxp77i4i2nv132f,BHYmdRSe,2020-0188,2020-05-08,09:47:30,10:04:16,NA,incomplete,8,color,1,right,Green_Plus_Grid_4.jpg,Red_Plus_Dots_1.jpg,Green_Star_Stripes_2.jpg,right,516.6599999647588,true,high,NA,NA,NA,NA,NA,NA,NA,false
BHYmdRSe,33cla8o0nlo9ukh858i8v1jgjoffrm,3v5q80fxi14zx8ioxp77i4i2nv132f,BHYmdRSe,2020-0188,2020-05-08,09:47:30,10:04:16,NA,incomplete,9,color,1,left,Blue_Triangle_Grid_3.jpg,Blue_Star_Dots_4.jpg,Green_Triangle_Chess_2.jpg,left,527.2250000853091,true,high,NA,NA,NA,NA,NA,NA,NA,false
BHYmdRSe,33cla8o0nlo9ukh858i8v1jgjoffrm,3v5q80fxi14zx8ioxp77i4i2nv132f,BHYmdRSe,2020-0188,2020-05-08,09:47:30,10:04:16,NA,incomplete,10,shape,1,right,Purple_Circle_Grid_3.jpg,Purple_Triangle_Chess_1.jpg,Red_Circle_Stripes_4.jpg,left,620.9500001277775,false,high,NA,NA,NA,NA,NA,NA,NA,false
BHYmdRSe,33cla8o0nlo9ukh858i8v1jgjoffrm,3v5q80fxi14zx8ioxp77i4i2nv132f,BHYmdRSe,2020-0188,2020-05-08,09:47:30,10:04:16,NA,incomplete,11,shape,1,right,Red_Circle_Chess_1.jpg,Red_Star_Dots_2.jpg,Green_Circle_Stripes_4.jpg,left,566.8500000610948,false,high,NA,NA,NA,NA,NA,NA,NA,false
BHYmdRSe,33cla8o0nlo9ukh858i8v1jgjoffrm,3v5q80fxi14zx8ioxp77i4i2nv132f,BHYmdRSe,2020-0188,2020-05-08,09:47:30,10:04:16,NA,incomplete,12,shape,1,right,Red_Circle_Dots_3.jpg,Red_Star_Grid_4.jpg,Blue_Circle_Chess_2.jpg,right,705.274999840185,true,high,NA,NA,NA,NA,NA,NA,NA,false
BHYmdRSe,33cla8o0nlo9ukh858i8v1jgjoffrm,3v5q80fxi14zx8ioxp77i4i2nv132f,BHYmdRSe,2020-0188,2020-05-08,09:47:30,10:04:16,NA,incomplete,13,shape,1,left,Purple_Plus_Grid_4.jpg,Blue_Plus_Chess_3.jpg,Purple_Circle_Stripes_2.jpg,left,644.7499999776483,true,high,NA,NA,NA,NA,NA,NA,NA,false
BHYmdRSe,33cla8o0nlo9ukh858i8v1jgjoffrm,3v5q80fxi14zx8ioxp77i4i2nv132f,BHYmdRSe,2020-0188,2020-05-08,09:47:30,10:04:16,NA,incomplete,14,shape,1,left,Blue_Triangle_Stripes_3.jpg,Red_Triangle_Dots_2.jpg,Blue_Circle_Chess_4.jpg,left,764.3150000367314,true,high,NA,NA,NA,NA,NA,NA,NA,false
BHYmdRSe,33cla8o0nlo9ukh858i8v1jgjoffrm,3v5q80fxi14zx8ioxp77i4i2nv132f,BHYmdRSe,2020-0188,2020-05-08,09:47:30,10:04:16,NA,incomplete,15,shape,1,left,Blue_Plus_Grid_1.jpg,Red_Plus_Chess_4.jpg,Blue_Triangle_Dots_3.jpg,left,981.5849999431521,true,high,NA,NA,NA,NA,NA,NA,NA,false
BHYmdRSe,33cla8o0nlo9ukh858i8v1jgjoffrm,3v5q80fxi14zx8ioxp77i4i2nv132f,BHYmdRSe,2020-0188,2020-05-08,09:47:30,10:04:16,NA,incomplete,16,shape,0,left,Purple_Triangle_Stripes_2.jpg,Red_Triangle_Dots_1.jpg,Purple_Star_Chess_3.jpg,left,665.2699999976903,true,high,NA,NA,NA,NA,NA,NA,NA,false
BHYmdRSe,33cla8o0nlo9ukh858i8v1jgjoffrm,3v5q80fxi14zx8ioxp77i4i2nv132f,BHYmdRSe,2020-0188,2020-05-08,09:47:30,10:04:16,NA,incomplete,17,shape,0,right,Green_Circle_Grid_3.jpg,Green_Star_Dots_4.jpg,Blue_Circle_Stripes_1.jpg,right,804.7350000124425,true,high,NA,NA,NA,NA,NA,NA,NA,false
BHYmdRSe,33cla8o0nlo9ukh858i8v1jgjoffrm,3v5q80fxi14zx8ioxp77i4i2nv132f,BHYmdRSe,2020-0188,2020-05-08,09:47:30,10:04:16,NA,incomplete,18,shape,0,right,Green_Triangle_Grid_4.jpg,Green_Star_Dots_3.jpg,Purple_Triangle_Stripes_1.jpg,left,1746.9750000163913,false,high,NA,NA,NA,NA,NA,NA,NA,false
BHYmdRSe,33cla8o0nlo9ukh858i8v1jgjoffrm,3v5q80fxi14zx8ioxp77i4i2nv132f,BHYmdRSe,2020-0188,2020-05-08,09:47:30,10:04:16,NA,incomplete,19,shape,1,right,Blue_Circle_Dots_4.jpg,Blue_Triangle_Stripes_2.jpg,Purple_Circle_Grid_1.jpg,left,980.1199999637902,false,high,NA,NA,NA,NA,NA,NA,NA,false
BHYmdRSe,33cla8o0nlo9ukh858i8v1jgjoffrm,3v5q80fxi14zx8ioxp77i4i2nv132f,BHYmdRSe,2020-0188,2020-05-08,09:47:30,10:04:16,NA,incomplete,20,color,0,left,Green_Plus_Dots_1.jpg,Green_Circle_Grid_3.jpg,Red_Plus_Stripes_4.jpg,left,732.4399999342859,true,high,NA,NA,NA,NA,NA,NA,NA,false
BHYmdRSe,33cla8o0nlo9ukh858i8v1jgjoffrm,3v5q80fxi14zx8ioxp77i4i2nv132f,BHYmdRSe,2020-0188,2020-05-08,09:47:30,10:04:16,NA,incomplete,21,color,1,right,Red_Triangle_Chess_4.jpg,Green_Triangle_Stripes_1.jpg,Red_Plus_Dots_2.jpg,right,1421.1150000337511,true,high,NA,NA,NA,NA,NA,NA,NA,false
BHYmdRSe,33cla8o0nlo9ukh858i8v1jgjoffrm,3v5q80fxi14zx8ioxp77i4i2nv132f,BHYmdRSe,2020-0188,2020-05-08,09:47:30,10:04:16,NA,incomplete,22,color,1,right,Green_Triangle_Dots_4.jpg,Purple_Triangle_Grid_2.jpg,Green_Star_Stripes_3.jpg,right,591.9550000689924,true,high,NA,NA,NA,NA,NA,NA,NA,false
BHYmdRSe,33cla8o0nlo9ukh858i8v1jgjoffrm,3v5q80fxi14zx8ioxp77i4i2nv132f,BHYmdRSe,2020-0188,2020-05-08,09:47:30,10:04:16,NA,incomplete,23,color,0,left,Blue_Triangle_Chess_1.jpg,Blue_Star_Stripes_2.jpg,Red_Triangle_Grid_4.jpg,left,557.8049998730421,true,high,NA,NA,NA,NA,NA,NA,NA,false
BHYmdRSe,33cla8o0nlo9ukh858i8v1jgjoffrm,3v5q80fxi14zx8ioxp77i4i2nv132f,BHYmdRSe,2020-0188,2020-05-08,09:47:30,10:04:16,NA,incomplete,24,color,1,left,Red_Circle_Chess_2.jpg,Red_Triangle_Stripes_4.jpg,Purple_Circle_Dots_3.jpg,left,604.7350000590086,true,high,NA,NA,NA,NA,NA,NA,NA,false
BHYmdRSe,33cla8o0nlo9ukh858i8v1jgjoffrm,3v5q80fxi14zx8ioxp77i4i2nv132f,BHYmdRSe,2020-0188,2020-05-08,09:47:30,10:04:16,NA,incomplete,25,color,0,left,Red_Star_Chess_2.jpg,Red_Plus_Grid_1.jpg,Blue_Star_Stripes_4.jpg,left,604.7400000970811,true,high,NA,NA,NA,NA,NA,NA,NA,false
BHYmdRSe,33cla8o0nlo9ukh858i8v1jgjoffrm,3v5q80fxi14zx8ioxp77i4i2nv132f,BHYmdRSe,2020-0188,2020-05-08,09:47:30,10:04:16,NA,incomplete,26,color,1,right,Red_Star_Stripes_4.jpg,Green_Star_Chess_2.jpg,Red_Triangle_Grid_3.jpg,right,501.80500000715256,true,high,NA,NA,NA,NA,NA,NA,NA,false
BHYmdRSe,33cla8o0nlo9ukh858i8v1jgjoffrm,3v5q80fxi14zx8ioxp77i4i2nv132f,BHYmdRSe,2020-0188,2020-05-08,09:47:30,10:04:16,NA,incomplete,27,color,1,right,Red_Circle_Grid_4.jpg,Purple_Circle_Dots_2.jpg,Red_Star_Chess_3.jpg,right,594.0199999604374,true,high,NA,NA,NA,NA,NA,NA,NA,false
BHYmdRSe,33cla8o0nlo9ukh858i8v1jgjoffrm,3v5q80fxi14zx8ioxp77i4i2nv132f,BHYmdRSe,2020-0188,2020-05-08,09:47:30,10:04:16,NA,incomplete,28,color,1,right,Red_Triangle_Grid_4.jpg,Green_Triangle_Dots_2.jpg,Red_Star_Chess_1.jpg,right,541.4249999448657,true,high,NA,NA,NA,NA,NA,NA,NA,false
BHYmdRSe,33cla8o0nlo9ukh858i8v1jgjoffrm,3v5q80fxi14zx8ioxp77i4i2nv132f,BHYmdRSe,2020-0188,2020-05-08,09:47:30,10:04:16,NA,incomplete,29,color,0,left,Purple_Plus_Chess_3.jpg,Purple_Triangle_Grid_4.jpg,Red_Plus_Stripes_2.jpg,left,474.8949999921024,true,high,NA,NA,NA,NA,NA,NA,NA,false
BHYmdRSe,33cla8o0nlo9ukh858i8v1jgjoffrm,3v5q80fxi14zx8ioxp77i4i2nv132f,BHYmdRSe,2020-0188,2020-05-08,09:47:30,10:04:16,NA,incomplete,30,shape,0,left,Green_Circle_Stripes_1.jpg,Blue_Circle_Chess_4.jpg,Green_Triangle_Dots_3.jpg,left,683.4950000047684,true,high,NA,NA,NA,NA,NA,NA,NA,false
BHYmdRSe,33cla8o0nlo9ukh858i8v1jgjoffrm,3v5q80fxi14zx8ioxp77i4i2nv132f,BHYmdRSe,2020-0188,2020-05-08,09:47:30,10:04:16,NA,incomplete,31,shape,1,left,Red_Circle_Chess_4.jpg,Green_Circle_Dots_1.jpg,Red_Triangle_Stripes_3.jpg,right,1029.2650000192225,false,high,NA,NA,NA,NA,NA,NA,NA,false
BHYmdRSe,33cla8o0nlo9ukh858i8v1jgjoffrm,3v5q80fxi14zx8ioxp77i4i2nv132f,BHYmdRSe,2020-0188,2020-05-08,09:47:30,10:04:16,NA,incomplete,32,shape,1,left,Green_Star_Chess_3.jpg,Purple_Star_Dots_2.jpg,Green_Plus_Grid_1.jpg,left,1577.714999904856,true,high,NA,NA,NA,NA,NA,NA,NA,false
BHYmdRSe,33cla8o0nlo9ukh858i8v1jgjoffrm,3v5q80fxi14zx8ioxp77i4i2nv132f,BHYmdRSe,2020-0188,2020-05-08,09:47:30,10:04:16,NA,incomplete,33,shape,1,right,Red_Triangle_Chess_1.jpg,Red_Plus_Stripes_2.jpg,Green_Triangle_Grid_3.jpg,right,1015.929999994114,true,high,NA,NA,NA,NA,NA,NA,NA,false
BHYmdRSe,33cla8o0nlo9ukh858i8v1jgjoffrm,3v5q80fxi14zx8ioxp77i4i2nv132f,BHYmdRSe,2020-0188,2020-05-08,09:47:30,10:04:16,NA,incomplete,34,shape,1,left,Blue_Star_Dots_2.jpg,Purple_Star_Grid_4.jpg,Blue_Plus_Chess_3.jpg,left,797.6250001229346,true,high,NA,NA,NA,NA,NA,NA,NA,false
BHYmdRSe,33cla8o0nlo9ukh858i8v1jgjoffrm,3v5q80fxi14zx8ioxp77i4i2nv132f,BHYmdRSe,2020-0188,2020-05-08,09:47:30,10:04:16,NA,incomplete,35,shape,1,left,Green_Plus_Dots_4.jpg,Blue_Plus_Stripes_3.jpg,Green_Triangle_Chess_2.jpg,left,693.2250000536442,true,high,NA,NA,NA,NA,NA,NA,NA,false
BHYmdRSe,33cla8o0nlo9ukh858i8v1jgjoffrm,3v5q80fxi14zx8ioxp77i4i2nv132f,BHYmdRSe,2020-0188,2020-05-08,09:47:30,10:04:16,NA,incomplete,36,shape,1,left,Green_Circle_Dots_2.jpg,Blue_Circle_Grid_1.jpg,Green_Star_Stripes_3.jpg,left,617.7649998571724,true,high,NA,NA,NA,NA,NA,NA,NA,false
BHYmdRSe,33cla8o0nlo9ukh858i8v1jgjoffrm,3v5q80fxi14zx8ioxp77i4i2nv132f,BHYmdRSe,2020-0188,2020-05-08,09:47:30,10:04:16,NA,incomplete,37,shape,0,right,Purple_Triangle_Chess_2.jpg,Purple_Star_Stripes_3.jpg,Blue_Triangle_Grid_4.jpg,right,691.5349999908358,true,high,NA,NA,NA,NA,NA,NA,NA,false
BHYmdRSe,33cla8o0nlo9ukh858i8v1jgjoffrm,3v5q80fxi14zx8ioxp77i4i2nv132f,BHYmdRSe,2020-0188,2020-05-08,09:47:30,10:04:16,NA,incomplete,38,shape,1,left,Purple_Triangle_Chess_2.jpg,Blue_Triangle_Stripes_1.jpg,Purple_Circle_Grid_3.jpg,left,981.7550000734627,true,high,NA,NA,NA,NA,NA,NA,NA,false
BHYmdRSe,33cla8o0nlo9ukh858i8v1jgjoffrm,3v5q80fxi14zx8ioxp77i4i2nv132f,BHYmdRSe,2020-0188,2020-05-08,09:47:30,10:04:16,NA,incomplete,39,shape,1,left,Blue_Circle_Stripes_2.jpg,Green_Circle_Grid_3.jpg,Blue_Plus_Dots_1.jpg,left,772.0449999906123,true,high,NA,NA,NA,NA,NA,NA,NA,false
BHYmdRSe,33cla8o0nlo9ukh858i8v1jgjoffrm,3v5q80fxi14zx8ioxp77i4i2nv132f,BHYmdRSe,2020-0188,2020-05-08,09:47:30,10:04:16,NA,incomplete,40,color,1,left,Green_Plus_Chess_4.jpg,Green_Star_Dots_1.jpg,Red_Plus_Stripes_3.jpg,right,753.6949999630451,false,high,NA,NA,NA,NA,NA,NA,NA,false
BHYmdRSe,33cla8o0nlo9ukh858i8v1jgjoffrm,3v5q80fxi14zx8ioxp77i4i2nv132f,BHYmdRSe,2020-0188,2020-05-08,09:47:30,10:04:16,NA,incomplete,41,color,1,right,Green_Plus_Chess_4.jpg,Blue_Plus_Stripes_1.jpg,Green_Triangle_Dots_2.jpg,left,792.1299999579787,false,high,NA,NA,NA,NA,NA,NA,NA,false
BHYmdRSe,33cla8o0nlo9ukh858i8v1jgjoffrm,3v5q80fxi14zx8ioxp77i4i2nv132f,BHYmdRSe,2020-0188,2020-05-08,09:47:30,10:04:16,NA,incomplete,42,color,0,left,Green_Plus_Stripes_3.jpg,Green_Star_Dots_4.jpg,Purple_Plus_Chess_2.jpg,none,0,false,high,NA,NA,NA,NA,NA,NA,NA,false
BHYmdRSe,33cla8o0nlo9ukh858i8v1jgjoffrm,3v5q80fxi14zx8ioxp77i4i2nv132f,BHYmdRSe,2020-0188,2020-05-08,09:47:30,10:04:16,NA,incomplete,43,color,1,right,Purple_Plus_Grid_4.jpg,Green_Plus_Stripes_2.jpg,Purple_Circle_Dots_1.jpg,right,994.169999845326,true,high,NA,NA,NA,NA,NA,NA,NA,false
BHYmdRSe,33cla8o0nlo9ukh858i8v1jgjoffrm,3v5q80fxi14zx8ioxp77i4i2nv132f,BHYmdRSe,2020-0188,2020-05-08,09:47:30,10:04:16,NA,incomplete,44,color,1,right,Green_Plus_Grid_1.jpg,Blue_Plus_Stripes_4.jpg,Green_Circle_Dots_2.jpg,right,681.4599998760968,true,high,NA,NA,NA,NA,NA,NA,NA,false
BHYmdRSe,33cla8o0nlo9ukh858i8v1jgjoffrm,3v5q80fxi14zx8ioxp77i4i2nv132f,BHYmdRSe,2020-0188,2020-05-08,09:47:30,10:04:16,NA,incomplete,45,color,1,right,Blue_Star_Chess_3.jpg,Purple_Star_Grid_2.jpg,Blue_Triangle_Stripes_1.jpg,right,754.1650000493973,true,high,NA,NA,NA,NA,NA,NA,NA,false
BHYmdRSe,33cla8o0nlo9ukh858i8v1jgjoffrm,3v5q80fxi14zx8ioxp77i4i2nv132f,BHYmdRSe,2020-0188,2020-05-08,09:47:30,10:04:16,NA,incomplete,46,color,1,left,Purple_Plus_Chess_1.jpg,Purple_Star_Grid_3.jpg,Blue_Plus_Dots_2.jpg,left,552.3950001224875,true,high,NA,NA,NA,NA,NA,NA,NA,false
BHYmdRSe,33cla8o0nlo9ukh858i8v1jgjoffrm,3v5q80fxi14zx8ioxp77i4i2nv132f,BHYmdRSe,2020-0188,2020-05-08,09:47:30,10:04:16,NA,incomplete,47,color,0,left,Purple_Triangle_Stripes_2.jpg,Purple_Star_Grid_1.jpg,Red_Triangle_Chess_3.jpg,left,638.6400000192225,true,high,NA,NA,NA,NA,NA,NA,NA,false
BHYmdRSe,33cla8o0nlo9ukh858i8v1jgjoffrm,3v5q80fxi14zx8ioxp77i4i2nv132f,BHYmdRSe,2020-0188,2020-05-08,09:47:30,10:04:16,NA,incomplete,48,color,0,right,Purple_Circle_Chess_2.jpg,Red_Circle_Grid_4.jpg,Purple_Triangle_Stripes_3.jpg,right,676.3650001958013,true,high,NA,NA,NA,NA,NA,NA,NA,false
BHYmdRSe,33cla8o0nlo9ukh858i8v1jgjoffrm,3v5q80fxi14zx8ioxp77i4i2nv132f,BHYmdRSe,2020-0188,2020-05-08,09:47:30,10:04:16,NA,incomplete,49,color,1,left,Purple_Triangle_Grid_1.jpg,Purple_Circle_Stripes_3.jpg,Green_Triangle_Dots_2.jpg,right,1748.3800000045449,false,high,NA,NA,NA,NA,NA,NA,NA,false
BHYmdRSe,33cla8o0nlo9ukh858i8v1jgjoffrm,3v5q80fxi14zx8ioxp77i4i2nv132f,BHYmdRSe,2020-0188,2020-05-08,09:47:30,10:04:16,NA,incomplete,50,shape,1,left,Purple_Star_Dots_3.jpg,Red_Star_Stripes_2.jpg,Purple_Plus_Grid_1.jpg,left,686.4850001875311,true,high,NA,NA,NA,NA,NA,NA,NA,false
BHYmdRSe,33cla8o0nlo9ukh858i8v1jgjoffrm,3v5q80fxi14zx8ioxp77i4i2nv132f,BHYmdRSe,2020-0188,2020-05-08,09:47:30,10:04:16,NA,incomplete,51,shape,1,right,Green_Star_Grid_2.jpg,Green_Triangle_Chess_1.jpg,Red_Star_Dots_3.jpg,right,745.809999993071,true,high,NA,NA,NA,NA,NA,NA,NA,false
BHYmdRSe,33cla8o0nlo9ukh858i8v1jgjoffrm,3v5q80fxi14zx8ioxp77i4i2nv132f,BHYmdRSe,2020-0188,2020-05-08,09:47:30,10:04:16,NA,incomplete,52,shape,1,left,Red_Circle_Dots_1.jpg,Blue_Circle_Chess_2.jpg,Red_Star_Stripes_4.jpg,left,766.7499999515712,true,high,NA,NA,NA,NA,NA,NA,NA,false
BHYmdRSe,33cla8o0nlo9ukh858i8v1jgjoffrm,3v5q80fxi14zx8ioxp77i4i2nv132f,BHYmdRSe,2020-0188,2020-05-08,09:47:30,10:04:16,NA,incomplete,53,shape,1,right,Blue_Circle_Chess_2.jpg,Blue_Triangle_Stripes_3.jpg,Purple_Circle_Dots_1.jpg,right,637.9399998113513,true,high,NA,NA,NA,NA,NA,NA,NA,false
BHYmdRSe,33cla8o0nlo9ukh858i8v1jgjoffrm,3v5q80fxi14zx8ioxp77i4i2nv132f,BHYmdRSe,2020-0188,2020-05-08,09:47:30,10:04:16,NA,incomplete,54,shape,1,right,Blue_Circle_Dots_4.jpg,Blue_Star_Grid_1.jpg,Red_Circle_Chess_3.jpg,right,664.1299999319017,true,high,NA,NA,NA,NA,NA,NA,NA,false
BHYmdRSe,33cla8o0nlo9ukh858i8v1jgjoffrm,3v5q80fxi14zx8ioxp77i4i2nv132f,BHYmdRSe,2020-0188,2020-05-08,09:47:30,10:04:16,NA,incomplete,55,shape,0,right,Blue_Plus_Grid_4.jpg,Blue_Circle_Stripes_3.jpg,Green_Plus_Dots_1.jpg,right,658.2850001286715,true,high,NA,NA,NA,NA,NA,NA,NA,false
BHYmdRSe,33cla8o0nlo9ukh858i8v1jgjoffrm,3v5q80fxi14zx8ioxp77i4i2nv132f,BHYmdRSe,2020-0188,2020-05-08,09:47:30,10:04:16,NA,incomplete,56,shape,1,left,Green_Triangle_Chess_1.jpg,Red_Triangle_Dots_3.jpg,Green_Plus_Stripes_2.jpg,right,639.8200001567602,false,high,NA,NA,NA,NA,NA,NA,NA,false
BHYmdRSe,33cla8o0nlo9ukh858i8v1jgjoffrm,3v5q80fxi14zx8ioxp77i4i2nv132f,BHYmdRSe,2020-0188,2020-05-08,09:47:30,10:04:16,NA,incomplete,57,shape,1,right,Purple_Star_Grid_1.jpg,Purple_Circle_Stripes_2.jpg,Blue_Star_Chess_3.jpg,right,798.1400000862777,true,high,NA,NA,NA,NA,NA,NA,NA,false
BHYmdRSe,33cla8o0nlo9ukh858i8v1jgjoffrm,3v5q80fxi14zx8ioxp77i4i2nv132f,BHYmdRSe,2020-0188,2020-05-08,09:47:30,10:04:16,NA,incomplete,58,shape,1,left,Purple_Triangle_Grid_4.jpg,Red_Triangle_Stripes_3.jpg,Purple_Star_Dots_1.jpg,left,724.4899999350309,true,high,NA,NA,NA,NA,NA,NA,NA,false
BHYmdRSe,33cla8o0nlo9ukh858i8v1jgjoffrm,3v5q80fxi14zx8ioxp77i4i2nv132f,BHYmdRSe,2020-0188,2020-05-08,09:47:30,10:04:16,NA,incomplete,59,shape,1,right,Red_Circle_Grid_3.jpg,Red_Star_Dots_4.jpg,Purple_Circle_Chess_1.jpg,right,759.4200000166893,true,high,NA,NA,NA,NA,NA,NA,NA,false
BHYmdRSe,33cla8o0nlo9ukh858i8v1jgjoffrm,3v5q80fxi14zx8ioxp77i4i2nv132f,BHYmdRSe,2020-0188,2020-05-08,09:47:30,10:04:16,NA,incomplete,60,color,0,right,Green_Star_Dots_2.jpg,Purple_Star_Grid_4.jpg,Green_Circle_Stripes_1.jpg,left,740.5300000682473,false,high,NA,NA,NA,NA,NA,NA,NA,false
BHYmdRSe,33cla8o0nlo9ukh858i8v1jgjoffrm,3v5q80fxi14zx8ioxp77i4i2nv132f,BHYmdRSe,2020-0188,2020-05-08,09:47:30,10:04:16,NA,incomplete,61,color,1,right,Purple_Triangle_Dots_2.jpg,Green_Triangle_Stripes_1.jpg,Purple_Circle_Grid_4.jpg,left,715.6149998772889,false,high,NA,NA,NA,NA,NA,NA,NA,false
BHYmdRSe,33cla8o0nlo9ukh858i8v1jgjoffrm,3v5q80fxi14zx8ioxp77i4i2nv132f,BHYmdRSe,2020-0188,2020-05-08,09:47:30,10:04:16,NA,incomplete,62,color,1,left,Blue_Plus_Stripes_1.jpg,Blue_Triangle_Chess_3.jpg,Purple_Plus_Dots_2.jpg,right,826.145000057295,false,high,NA,NA,NA,NA,NA,NA,NA,false
BHYmdRSe,33cla8o0nlo9ukh858i8v1jgjoffrm,3v5q80fxi14zx8ioxp77i4i2nv132f,BHYmdRSe,2020-0188,2020-05-08,09:47:30,10:04:16,NA,incomplete,63,color,1,left,Green_Triangle_Grid_1.jpg,Green_Plus_Stripes_3.jpg,Blue_Triangle_Dots_4.jpg,left,821.4800001587719,true,high,NA,NA,NA,NA,NA,NA,NA,false
BHYmdRSe,33cla8o0nlo9ukh858i8v1jgjoffrm,3v5q80fxi14zx8ioxp77i4i2nv132f,BHYmdRSe,2020-0188,2020-05-08,09:47:30,10:04:16,NA,incomplete,64,color,1,left,Green_Circle_Grid_1.jpg,Green_Star_Dots_3.jpg,Blue_Circle_Stripes_4.jpg,left,605.1549999974668,true,high,NA,NA,NA,NA,NA,NA,NA,false
BHYmdRSe,33cla8o0nlo9ukh858i8v1jgjoffrm,3v5q80fxi14zx8ioxp77i4i2nv132f,BHYmdRSe,2020-0188,2020-05-08,09:47:30,10:04:16,NA,incomplete,65,color,1,right,Purple_Circle_Grid_2.jpg,Blue_Circle_Chess_4.jpg,Purple_Triangle_Dots_1.jpg,left,745.1949999667704,false,high,NA,NA,NA,NA,NA,NA,NA,false
BHYmdRSe,33cla8o0nlo9ukh858i8v1jgjoffrm,3v5q80fxi14zx8ioxp77i4i2nv132f,BHYmdRSe,2020-0188,2020-05-08,09:47:30,10:04:16,NA,incomplete,66,color,0,left,Blue_Triangle_Dots_3.jpg,Blue_Circle_Grid_2.jpg,Green_Triangle_Chess_4.jpg,left,676.5050000976771,true,high,NA,NA,NA,NA,NA,NA,NA,false
BHYmdRSe,33cla8o0nlo9ukh858i8v1jgjoffrm,3v5q80fxi14zx8ioxp77i4i2nv132f,BHYmdRSe,2020-0188,2020-05-08,09:47:30,10:04:16,NA,incomplete,67,color,1,right,Purple_Star_Dots_2.jpg,Red_Star_Stripes_4.jpg,Purple_Triangle_Grid_1.jpg,right,803.7000000476837,true,high,NA,NA,NA,NA,NA,NA,NA,false
BHYmdRSe,33cla8o0nlo9ukh858i8v1jgjoffrm,3v5q80fxi14zx8ioxp77i4i2nv132f,BHYmdRSe,2020-0188,2020-05-08,09:47:30,10:04:16,NA,incomplete,68,color,1,right,Blue_Triangle_Stripes_4.jpg,Purple_Triangle_Chess_3.jpg,Blue_Plus_Grid_1.jpg,right,656.0349999926984,true,high,NA,NA,NA,NA,NA,NA,NA,false
BHYmdRSe,33cla8o0nlo9ukh858i8v1jgjoffrm,3v5q80fxi14zx8ioxp77i4i2nv132f,BHYmdRSe,2020-0188,2020-05-08,09:47:30,10:04:16,NA,incomplete,69,color,1,right,Green_Circle_Grid_3.jpg,Red_Circle_Dots_4.jpg,Green_Triangle_Chess_2.jpg,right,794.7350000031292,true,high,NA,NA,NA,NA,NA,NA,NA,false
BHYmdRSe,33cla8o0nlo9ukh858i8v1jgjoffrm,3v5q80fxi14zx8ioxp77i4i2nv132f,BHYmdRSe,2020-0188,2020-05-08,09:47:30,10:04:16,NA,incomplete,70,shape,0,left,Blue_Star_Grid_2.jpg,Green_Star_Stripes_1.jpg,Blue_Circle_Chess_4.jpg,right,738.5299999732524,false,high,NA,NA,NA,NA,NA,NA,NA,false
BHYmdRSe,33cla8o0nlo9ukh858i8v1jgjoffrm,3v5q80fxi14zx8ioxp77i4i2nv132f,BHYmdRSe,2020-0188,2020-05-08,09:47:30,10:04:16,NA,incomplete,71,shape,1,left,Green_Plus_Stripes_3.jpg,Blue_Plus_Grid_1.jpg,Green_Circle_Dots_4.jpg,right,599.2499999701977,false,high,NA,NA,NA,NA,NA,NA,NA,false
BHYmdRSe,33cla8o0nlo9ukh858i8v1jgjoffrm,3v5q80fxi14zx8ioxp77i4i2nv132f,BHYmdRSe,2020-0188,2020-05-08,09:47:30,10:04:16,NA,incomplete,72,shape,1,right,Purple_Circle_Dots_4.jpg,Purple_Triangle_Grid_2.jpg,Green_Circle_Stripes_3.jpg,left,589.0450000297278,false,high,NA,NA,NA,NA,NA,NA,NA,false
BHYmdRSe,33cla8o0nlo9ukh858i8v1jgjoffrm,3v5q80fxi14zx8ioxp77i4i2nv132f,BHYmdRSe,2020-0188,2020-05-08,09:47:30,10:04:16,NA,incomplete,73,shape,1,left,Blue_Circle_Grid_4.jpg,Red_Circle_Dots_2.jpg,Blue_Star_Chess_3.jpg,left,699.690000154078,true,high,NA,NA,NA,NA,NA,NA,NA,false
BHYmdRSe,33cla8o0nlo9ukh858i8v1jgjoffrm,3v5q80fxi14zx8ioxp77i4i2nv132f,BHYmdRSe,2020-0188,2020-05-08,09:47:30,10:04:16,NA,incomplete,74,shape,0,right,Purple_Plus_Grid_3.jpg,Purple_Star_Stripes_2.jpg,Red_Plus_Dots_4.jpg,right,905.4800001904368,true,high,NA,NA,NA,NA,NA,NA,NA,false
BHYmdRSe,33cla8o0nlo9ukh858i8v1jgjoffrm,3v5q80fxi14zx8ioxp77i4i2nv132f,BHYmdRSe,2020-0188,2020-05-08,09:47:30,10:04:16,NA,incomplete,75,shape,1,left,Blue_Triangle_Grid_1.jpg,Green_Triangle_Chess_2.jpg,Blue_Star_Dots_4.jpg,left,722.234999993816,true,high,NA,NA,NA,NA,NA,NA,NA,false
BHYmdRSe,33cla8o0nlo9ukh858i8v1jgjoffrm,3v5q80fxi14zx8ioxp77i4i2nv132f,BHYmdRSe,2020-0188,2020-05-08,09:47:30,10:04:16,NA,incomplete,76,shape,1,right,Green_Star_Stripes_3.jpg,Green_Triangle_Grid_2.jpg,Blue_Star_Dots_1.jpg,right,949.06000001356,true,high,NA,NA,NA,NA,NA,NA,NA,false
BHYmdRSe,33cla8o0nlo9ukh858i8v1jgjoffrm,3v5q80fxi14zx8ioxp77i4i2nv132f,BHYmdRSe,2020-0188,2020-05-08,09:47:30,10:04:16,NA,incomplete,77,shape,1,left,Red_Circle_Stripes_3.jpg,Blue_Circle_Grid_1.jpg,Red_Star_Chess_2.jpg,left,698.670000070706,true,high,NA,NA,NA,NA,NA,NA,NA,false
BHYmdRSe,33cla8o0nlo9ukh858i8v1jgjoffrm,3v5q80fxi14zx8ioxp77i4i2nv132f,BHYmdRSe,2020-0188,2020-05-08,09:47:30,10:04:16,NA,incomplete,78,shape,1,right,Green_Circle_Grid_2.jpg,Green_Plus_Dots_4.jpg,Red_Circle_Stripes_3.jpg,right,599.370000185445,true,high,NA,NA,NA,NA,NA,NA,NA,false
BHYmdRSe,33cla8o0nlo9ukh858i8v1jgjoffrm,3v5q80fxi14zx8ioxp77i4i2nv132f,BHYmdRSe,2020-0188,2020-05-08,09:47:30,10:04:16,NA,incomplete,79,shape,1,right,Red_Star_Dots_1.jpg,Red_Circle_Grid_2.jpg,Blue_Star_Chess_3.jpg,right,634.614999871701,true,high,NA,NA,NA,NA,NA,NA,NA,false
BHYmdRSe,33cla8o0nlo9ukh858i8v1jgjoffrm,3v5q80fxi14zx8ioxp77i4i2nv132f,BHYmdRSe,2020-0188,2020-05-08,09:47:30,10:04:16,NA,incomplete,80,color,0,right,Purple_Star_Chess_3.jpg,Blue_Star_Grid_1.jpg,Purple_Circle_Dots_2.jpg,left,714.8199998773634,false,high,NA,NA,NA,NA,NA,NA,NA,false
BHYmdRSe,33cla8o0nlo9ukh858i8v1jgjoffrm,3v5q80fxi14zx8ioxp77i4i2nv132f,BHYmdRSe,2020-0188,2020-05-08,09:47:30,10:04:16,NA,incomplete,81,color,1,right,Red_Triangle_Stripes_2.jpg,Green_Triangle_Grid_4.jpg,Red_Circle_Chess_3.jpg,left,732.7300000470132,false,high,NA,NA,NA,NA,NA,NA,NA,false
BHYmdRSe,33cla8o0nlo9ukh858i8v1jgjoffrm,3v5q80fxi14zx8ioxp77i4i2nv132f,BHYmdRSe,2020-0188,2020-05-08,09:47:30,10:04:16,NA,incomplete,82,color,1,left,Green_Plus_Dots_4.jpg,Green_Triangle_Grid_3.jpg,Red_Plus_Chess_1.jpg,right,756.0499999672174,false,high,NA,NA,NA,NA,NA,NA,NA,false
BHYmdRSe,33cla8o0nlo9ukh858i8v1jgjoffrm,3v5q80fxi14zx8ioxp77i4i2nv132f,BHYmdRSe,2020-0188,2020-05-08,09:47:30,10:04:16,NA,incomplete,83,color,1,right,Red_Plus_Chess_1.jpg,Green_Plus_Dots_2.jpg,Red_Star_Stripes_3.jpg,left,1218.3400001376867,false,high,NA,NA,NA,NA,NA,NA,NA,false
BHYmdRSe,33cla8o0nlo9ukh858i8v1jgjoffrm,3v5q80fxi14zx8ioxp77i4i2nv132f,BHYmdRSe,2020-0188,2020-05-08,09:47:30,10:04:16,NA,incomplete,84,color,1,right,Purple_Star_Stripes_1.jpg,Green_Star_Chess_2.jpg,Purple_Circle_Grid_4.jpg,right,649.6749999932945,true,high,NA,NA,NA,NA,NA,NA,NA,false
BHYmdRSe,33cla8o0nlo9ukh858i8v1jgjoffrm,3v5q80fxi14zx8ioxp77i4i2nv132f,BHYmdRSe,2020-0188,2020-05-08,09:47:30,10:04:16,NA,incomplete,85,color,0,right,Red_Plus_Stripes_2.jpg,Green_Plus_Grid_3.jpg,Red_Circle_Dots_1.jpg,right,994.6749999653548,true,high,NA,NA,NA,NA,NA,NA,NA,false
BHYmdRSe,33cla8o0nlo9ukh858i8v1jgjoffrm,3v5q80fxi14zx8ioxp77i4i2nv132f,BHYmdRSe,2020-0188,2020-05-08,09:47:30,10:04:16,NA,incomplete,86,color,1,right,Blue_Circle_Grid_2.jpg,Red_Circle_Dots_4.jpg,Blue_Triangle_Stripes_3.jpg,right,849.4499998632818,true,high,NA,NA,NA,NA,NA,NA,NA,false
BHYmdRSe,33cla8o0nlo9ukh858i8v1jgjoffrm,3v5q80fxi14zx8ioxp77i4i2nv132f,BHYmdRSe,2020-0188,2020-05-08,09:47:30,10:04:16,NA,incomplete,87,color,1,left,Blue_Circle_Chess_1.jpg,Blue_Plus_Stripes_2.jpg,Purple_Circle_Dots_3.jpg,left,651.9850001204759,true,high,NA,NA,NA,NA,NA,NA,NA,false
BHYmdRSe,33cla8o0nlo9ukh858i8v1jgjoffrm,3v5q80fxi14zx8ioxp77i4i2nv132f,BHYmdRSe,2020-0188,2020-05-08,09:47:30,10:04:16,NA,incomplete,88,color,1,left,Blue_Triangle_Dots_2.jpg,Blue_Circle_Chess_4.jpg,Red_Triangle_Stripes_3.jpg,left,692.1550000552088,true,high,NA,NA,NA,NA,NA,NA,NA,false
BHYmdRSe,33cla8o0nlo9ukh858i8v1jgjoffrm,3v5q80fxi14zx8ioxp77i4i2nv132f,BHYmdRSe,2020-0188,2020-05-08,09:47:30,10:04:16,NA,incomplete,89,color,1,left,Red_Star_Dots_1.jpg,Red_Circle_Stripes_4.jpg,Blue_Star_Grid_2.jpg,left,562.9149999003857,true,high,NA,NA,NA,NA,NA,NA,NA,false
BHYmdRSe,33cla8o0nlo9ukh858i8v1jgjoffrm,3v5q80fxi14zx8ioxp77i4i2nv132f,BHYmdRSe,2020-0188,2020-05-08,09:47:30,10:04:16,NA,incomplete,90,shape,1,right,Purple_Plus_Stripes_3.jpg,Purple_Star_Grid_2.jpg,Red_Plus_Chess_4.jpg,left,765.6450001522899,false,high,NA,NA,NA,NA,NA,NA,NA,false
BHYmdRSe,33cla8o0nlo9ukh858i8v1jgjoffrm,3v5q80fxi14zx8ioxp77i4i2nv132f,BHYmdRSe,2020-0188,2020-05-08,09:47:30,10:04:16,NA,incomplete,91,shape,1,left,Green_Star_Stripes_3.jpg,Red_Star_Dots_2.jpg,Green_Circle_Chess_1.jpg,left,1381.6250001545995,true,high,NA,NA,NA,NA,NA,NA,NA,false
BHYmdRSe,33cla8o0nlo9ukh858i8v1jgjoffrm,3v5q80fxi14zx8ioxp77i4i2nv132f,BHYmdRSe,2020-0188,2020-05-08,09:47:30,10:04:16,NA,incomplete,92,shape,1,left,Blue_Circle_Chess_3.jpg,Green_Circle_Stripes_2.jpg,Blue_Plus_Dots_1.jpg,left,790.074999909848,true,high,NA,NA,NA,NA,NA,NA,NA,false
BHYmdRSe,33cla8o0nlo9ukh858i8v1jgjoffrm,3v5q80fxi14zx8ioxp77i4i2nv132f,BHYmdRSe,2020-0188,2020-05-08,09:47:30,10:04:16,NA,incomplete,93,shape,1,left,Purple_Circle_Stripes_2.jpg,Green_Circle_Grid_1.jpg,Purple_Plus_Chess_3.jpg,left,789.2199999187142,true,high,NA,NA,NA,NA,NA,NA,NA,false
BHYmdRSe,33cla8o0nlo9ukh858i8v1jgjoffrm,3v5q80fxi14zx8ioxp77i4i2nv132f,BHYmdRSe,2020-0188,2020-05-08,09:47:30,10:04:16,NA,incomplete,94,shape,1,right,Green_Circle_Chess_1.jpg,Green_Triangle_Stripes_4.jpg,Purple_Circle_Grid_3.jpg,right,867.0950001105666,true,high,NA,NA,NA,NA,NA,NA,NA,false
BHYmdRSe,33cla8o0nlo9ukh858i8v1jgjoffrm,3v5q80fxi14zx8ioxp77i4i2nv132f,BHYmdRSe,2020-0188,2020-05-08,09:47:30,10:04:16,NA,incomplete,95,shape,0,right,Purple_Triangle_Chess_4.jpg,Purple_Plus_Dots_3.jpg,Blue_Triangle_Grid_1.jpg,right,969.855000032112,true,high,NA,NA,NA,NA,NA,NA,NA,false
BHYmdRSe,33cla8o0nlo9ukh858i8v1jgjoffrm,3v5q80fxi14zx8ioxp77i4i2nv132f,BHYmdRSe,2020-0188,2020-05-08,09:47:30,10:04:16,NA,incomplete,96,shape,1,left,Red_Circle_Dots_1.jpg,Green_Circle_Grid_2.jpg,Red_Triangle_Chess_4.jpg,left,638.8250000309199,true,high,NA,NA,NA,NA,NA,NA,NA,false
BHYmdRSe,33cla8o0nlo9ukh858i8v1jgjoffrm,3v5q80fxi14zx8ioxp77i4i2nv132f,BHYmdRSe,2020-0188,2020-05-08,09:47:30,10:04:16,NA,incomplete,97,shape,1,right,Green_Triangle_Chess_3.jpg,Green_Star_Stripes_1.jpg,Purple_Triangle_Dots_4.jpg,right,885.5149999726564,true,high,NA,NA,NA,NA,NA,NA,NA,false
BHYmdRSe,33cla8o0nlo9ukh858i8v1jgjoffrm,3v5q80fxi14zx8ioxp77i4i2nv132f,BHYmdRSe,2020-0188,2020-05-08,09:47:30,10:04:16,NA,incomplete,98,shape,1,right,Purple_Star_Chess_2.jpg,Purple_Circle_Grid_3.jpg,Blue_Star_Stripes_4.jpg,right,772.1450000535697,true,high,NA,NA,NA,NA,NA,NA,NA,false
BHYmdRSe,33cla8o0nlo9ukh858i8v1jgjoffrm,3v5q80fxi14zx8ioxp77i4i2nv132f,BHYmdRSe,2020-0188,2020-05-08,09:47:30,10:04:16,NA,incomplete,99,shape,1,left,Red_Star_Grid_4.jpg,Blue_Star_Dots_3.jpg,Red_Plus_Stripes_2.jpg,left,680.1500001456589,true,high,NA,NA,NA,NA,NA,NA,NA,false
BHYmdRSe,33cla8o0nlo9ukh858i8v1jgjoffrm,3v5q80fxi14zx8ioxp77i4i2nv132f,BHYmdRSe,2020-0188,2020-05-08,09:47:30,10:04:16,NA,incomplete,100,color,1,right,Red_Star_Chess_1.jpg,Green_Star_Grid_3.jpg,Red_Circle_Stripes_2.jpg,left,747.1999998670071,false,high,NA,NA,NA,NA,NA,NA,NA,false
BHYmdRSe,33cla8o0nlo9ukh858i8v1jgjoffrm,3v5q80fxi14zx8ioxp77i4i2nv132f,BHYmdRSe,2020-0188,2020-05-08,09:47:30,10:04:16,NA,incomplete,101,color,0,left,Green_Plus_Dots_4.jpg,Green_Triangle_Stripes_2.jpg,Blue_Plus_Grid_3.jpg,left,603.3799999859184,true,high,NA,NA,NA,NA,NA,NA,NA,false
BHYmdRSe,33cla8o0nlo9ukh858i8v1jgjoffrm,3v5q80fxi14zx8ioxp77i4i2nv132f,BHYmdRSe,2020-0188,2020-05-08,09:47:30,10:04:16,NA,incomplete,102,color,1,left,Green_Triangle_Dots_3.jpg,Green_Plus_Chess_2.jpg,Purple_Triangle_Grid_4.jpg,right,768.3599998708814,false,high,NA,NA,NA,NA,NA,NA,NA,false
BHYmdRSe,33cla8o0nlo9ukh858i8v1jgjoffrm,3v5q80fxi14zx8ioxp77i4i2nv132f,BHYmdRSe,2020-0188,2020-05-08,09:47:30,10:04:16,NA,incomplete,103,color,1,right,Purple_Plus_Chess_2.jpg,Red_Plus_Dots_3.jpg,Purple_Circle_Grid_4.jpg,right,841.2549998611212,true,high,NA,NA,NA,NA,NA,NA,NA,false
BHYmdRSe,33cla8o0nlo9ukh858i8v1jgjoffrm,3v5q80fxi14zx8ioxp77i4i2nv132f,BHYmdRSe,2020-0188,2020-05-08,09:47:30,10:04:16,NA,incomplete,104,color,1,left,Red_Circle_Stripes_2.jpg,Red_Star_Chess_4.jpg,Green_Circle_Grid_3.jpg,left,753.179999999702,true,high,NA,NA,NA,NA,NA,NA,NA,false
BHYmdRSe,33cla8o0nlo9ukh858i8v1jgjoffrm,3v5q80fxi14zx8ioxp77i4i2nv132f,BHYmdRSe,2020-0188,2020-05-08,09:47:30,10:04:16,NA,incomplete,105,color,0,left,Purple_Triangle_Dots_1.jpg,Purple_Plus_Grid_4.jpg,Green_Triangle_Chess_2.jpg,left,632.2599998675287,true,high,NA,NA,NA,NA,NA,NA,NA,false
BHYmdRSe,33cla8o0nlo9ukh858i8v1jgjoffrm,3v5q80fxi14zx8ioxp77i4i2nv132f,BHYmdRSe,2020-0188,2020-05-08,09:47:30,10:04:16,NA,incomplete,106,color,1,left,Purple_Circle_Dots_3.jpg,Purple_Triangle_Stripes_1.jpg,Blue_Circle_Grid_4.jpg,left,610.7600000686944,true,high,NA,NA,NA,NA,NA,NA,NA,false
BHYmdRSe,33cla8o0nlo9ukh858i8v1jgjoffrm,3v5q80fxi14zx8ioxp77i4i2nv132f,BHYmdRSe,2020-0188,2020-05-08,09:47:30,10:04:16,NA,incomplete,107,color,1,right,Red_Plus_Grid_2.jpg,Green_Plus_Chess_3.jpg,Red_Circle_Stripes_1.jpg,right,562.3099999502301,true,high,NA,NA,NA,NA,NA,NA,NA,false
BHYmdRSe,33cla8o0nlo9ukh858i8v1jgjoffrm,3v5q80fxi14zx8ioxp77i4i2nv132f,BHYmdRSe,2020-0188,2020-05-08,09:47:30,10:04:16,NA,incomplete,108,color,1,left,Blue_Circle_Grid_4.jpg,Blue_Plus_Dots_2.jpg,Red_Circle_Stripes_1.jpg,left,709.4149999320507,true,high,NA,NA,NA,NA,NA,NA,NA,false
BHYmdRSe,33cla8o0nlo9ukh858i8v1jgjoffrm,3v5q80fxi14zx8ioxp77i4i2nv132f,BHYmdRSe,2020-0188,2020-05-08,09:47:30,10:04:16,NA,incomplete,109,color,1,right,Purple_Star_Chess_3.jpg,Green_Star_Stripes_4.jpg,Purple_Triangle_Dots_2.jpg,right,722.5800000596792,true,high,NA,NA,NA,NA,NA,NA,NA,false
BHYmdRSe,33cla8o0nlo9ukh858i8v1jgjoffrm,3v5q80fxi14zx8ioxp77i4i2nv132f,BHYmdRSe,2020-0188,2020-05-08,09:47:30,10:04:16,NA,incomplete,110,shape,1,left,Purple_Star_Stripes_1.jpg,Red_Star_Dots_3.jpg,Purple_Plus_Chess_2.jpg,right,592.3699999693781,false,high,NA,NA,NA,NA,NA,NA,NA,false
BHYmdRSe,33cla8o0nlo9ukh858i8v1jgjoffrm,3v5q80fxi14zx8ioxp77i4i2nv132f,BHYmdRSe,2020-0188,2020-05-08,09:47:30,10:04:16,NA,incomplete,111,shape,1,right,Blue_Star_Chess_3.jpg,Blue_Triangle_Grid_4.jpg,Purple_Star_Stripes_2.jpg,left,617.280000122264,false,high,NA,NA,NA,NA,NA,NA,NA,false
BHYmdRSe,33cla8o0nlo9ukh858i8v1jgjoffrm,3v5q80fxi14zx8ioxp77i4i2nv132f,BHYmdRSe,2020-0188,2020-05-08,09:47:30,10:04:16,NA,incomplete,112,shape,1,left,Red_Triangle_Stripes_1.jpg,Purple_Triangle_Dots_2.jpg,Red_Star_Grid_3.jpg,left,766.645000083372,true,high,NA,NA,NA,NA,NA,NA,NA,false
BHYmdRSe,33cla8o0nlo9ukh858i8v1jgjoffrm,3v5q80fxi14zx8ioxp77i4i2nv132f,BHYmdRSe,2020-0188,2020-05-08,09:47:30,10:04:16,NA,incomplete,113,shape,1,left,Blue_Triangle_Dots_2.jpg,Red_Triangle_Stripes_3.jpg,Blue_Plus_Chess_1.jpg,left,784.7100000362843,true,high,NA,NA,NA,NA,NA,NA,NA,false
BHYmdRSe,33cla8o0nlo9ukh858i8v1jgjoffrm,3v5q80fxi14zx8ioxp77i4i2nv132f,BHYmdRSe,2020-0188,2020-05-08,09:47:30,10:04:16,NA,incomplete,114,shape,1,right,Green_Plus_Grid_2.jpg,Green_Star_Chess_4.jpg,Purple_Plus_Dots_1.jpg,right,792.9700000677258,true,high,NA,NA,NA,NA,NA,NA,NA,false
BHYmdRSe,33cla8o0nlo9ukh858i8v1jgjoffrm,3v5q80fxi14zx8ioxp77i4i2nv132f,BHYmdRSe,2020-0188,2020-05-08,09:47:30,10:04:16,NA,incomplete,115,shape,1,right,Red_Plus_Grid_4.jpg,Red_Star_Stripes_2.jpg,Blue_Plus_Chess_1.jpg,right,830.3749999031425,true,high,NA,NA,NA,NA,NA,NA,NA,false
BHYmdRSe,33cla8o0nlo9ukh858i8v1jgjoffrm,3v5q80fxi14zx8ioxp77i4i2nv132f,BHYmdRSe,2020-0188,2020-05-08,09:47:30,10:04:16,NA,incomplete,116,shape,1,left,Red_Triangle_Dots_2.jpg,Blue_Triangle_Stripes_3.jpg,Red_Plus_Grid_4.jpg,left,798.8499999046326,true,high,NA,NA,NA,NA,NA,NA,NA,false
BHYmdRSe,33cla8o0nlo9ukh858i8v1jgjoffrm,3v5q80fxi14zx8ioxp77i4i2nv132f,BHYmdRSe,2020-0188,2020-05-08,09:47:30,10:04:16,NA,incomplete,117,shape,1,right,Purple_Circle_Stripes_1.jpg,Purple_Star_Chess_4.jpg,Green_Circle_Grid_3.jpg,right,770.310000050813,true,high,NA,NA,NA,NA,NA,NA,NA,false
BHYmdRSe,33cla8o0nlo9ukh858i8v1jgjoffrm,3v5q80fxi14zx8ioxp77i4i2nv132f,BHYmdRSe,2020-0188,2020-05-08,09:47:30,10:04:16,NA,incomplete,118,shape,1,left,Green_Plus_Stripes_3.jpg,Blue_Plus_Dots_2.jpg,Green_Star_Grid_1.jpg,left,900.8349999785423,true,high,NA,NA,NA,NA,NA,NA,NA,false
BHYmdRSe,33cla8o0nlo9ukh858i8v1jgjoffrm,3v5q80fxi14zx8ioxp77i4i2nv132f,BHYmdRSe,2020-0188,2020-05-08,09:47:30,10:04:16,NA,incomplete,119,shape,1,right,Blue_Star_Grid_2.jpg,Blue_Plus_Stripes_3.jpg,Green_Star_Chess_4.jpg,right,924.739999929443,true,high,NA,NA,NA,NA,NA,NA,NA,false
BHYmdRSe,33cla8o0nlo9ukh858i8v1jgjoffrm,3v5q80fxi14zx8ioxp77i4i2nv132f,BHYmdRSe,2020-0188,2020-05-08,09:47:30,10:04:16,NA,incomplete,120,color,0,right,Red_Star_Grid_4.jpg,Blue_Star_Chess_2.jpg,Red_Triangle_Stripes_3.jpg,right,1158.8250000495464,true,high,NA,NA,NA,NA,NA,NA,NA,false
BHYmdRSe,33cla8o0nlo9ukh858i8v1jgjoffrm,3v5q80fxi14zx8ioxp77i4i2nv132f,BHYmdRSe,2020-0188,2020-05-08,09:47:30,10:04:16,NA,incomplete,121,color,1,right,Red_Plus_Chess_4.jpg,Green_Plus_Stripes_3.jpg,Red_Triangle_Dots_1.jpg,left,761.5999998524785,false,high,NA,NA,NA,NA,NA,NA,NA,false
BHYmdRSe,33cla8o0nlo9ukh858i8v1jgjoffrm,3v5q80fxi14zx8ioxp77i4i2nv132f,BHYmdRSe,2020-0188,2020-05-08,09:47:30,10:04:16,NA,incomplete,122,color,0,left,Red_Circle_Stripes_3.jpg,Red_Plus_Chess_4.jpg,Green_Circle_Dots_2.jpg,left,1313.4349999018013,true,high,NA,NA,NA,NA,NA,NA,NA,false
BHYmdRSe,33cla8o0nlo9ukh858i8v1jgjoffrm,3v5q80fxi14zx8ioxp77i4i2nv132f,BHYmdRSe,2020-0188,2020-05-08,09:47:30,10:04:16,NA,incomplete,123,color,1,right,Red_Triangle_Stripes_4.jpg,Blue_Triangle_Dots_2.jpg,Red_Star_Grid_3.jpg,right,1831.284999847412,true,high,NA,NA,NA,NA,NA,NA,NA,false
BHYmdRSe,33cla8o0nlo9ukh858i8v1jgjoffrm,3v5q80fxi14zx8ioxp77i4i2nv132f,BHYmdRSe,2020-0188,2020-05-08,09:47:30,10:04:16,NA,incomplete,124,color,1,right,Blue_Triangle_Stripes_3.jpg,Red_Triangle_Dots_4.jpg,Blue_Star_Grid_1.jpg,right,745.2750001102686,true,high,NA,NA,NA,NA,NA,NA,NA,false
BHYmdRSe,33cla8o0nlo9ukh858i8v1jgjoffrm,3v5q80fxi14zx8ioxp77i4i2nv132f,BHYmdRSe,2020-0188,2020-05-08,09:47:30,10:04:16,NA,incomplete,125,color,1,right,Purple_Star_Chess_2.jpg,Green_Star_Stripes_4.jpg,Purple_Circle_Grid_3.jpg,right,725.0749999657273,true,high,NA,NA,NA,NA,NA,NA,NA,false
BHYmdRSe,33cla8o0nlo9ukh858i8v1jgjoffrm,3v5q80fxi14zx8ioxp77i4i2nv132f,BHYmdRSe,2020-0188,2020-05-08,09:47:30,10:04:16,NA,incomplete,126,color,1,right,Purple_Plus_Chess_1.jpg,Blue_Plus_Grid_4.jpg,Purple_Star_Stripes_2.jpg,right,794.9550000485033,true,high,NA,NA,NA,NA,NA,NA,NA,false
BHYmdRSe,33cla8o0nlo9ukh858i8v1jgjoffrm,3v5q80fxi14zx8ioxp77i4i2nv132f,BHYmdRSe,2020-0188,2020-05-08,09:47:30,10:04:16,NA,incomplete,127,color,0,left,Red_Plus_Dots_2.jpg,Red_Circle_Grid_1.jpg,Blue_Plus_Stripes_3.jpg,left,681.2299999874085,true,high,NA,NA,NA,NA,NA,NA,NA,false
BHYmdRSe,33cla8o0nlo9ukh858i8v1jgjoffrm,3v5q80fxi14zx8ioxp77i4i2nv132f,BHYmdRSe,2020-0188,2020-05-08,09:47:30,10:04:16,NA,incomplete,128,color,1,left,Blue_Plus_Stripes_2.jpg,Blue_Star_Chess_4.jpg,Red_Plus_Grid_3.jpg,left,939.9600001052022,true,high,NA,NA,NA,NA,NA,NA,NA,false
BHYmdRSe,33cla8o0nlo9ukh858i8v1jgjoffrm,3v5q80fxi14zx8ioxp77i4i2nv132f,BHYmdRSe,2020-0188,2020-05-08,09:47:30,10:04:16,NA,incomplete,129,color,0,right,Blue_Star_Chess_4.jpg,Red_Star_Stripes_3.jpg,Blue_Plus_Dots_2.jpg,right,910.6850000098348,true,high,NA,NA,NA,NA,NA,NA,NA,false
BHYmdRSe,33cla8o0nlo9ukh858i8v1jgjoffrm,3v5q80fxi14zx8ioxp77i4i2nv132f,BHYmdRSe,2020-0188,2020-05-08,09:47:30,10:04:16,NA,incomplete,130,color,1,right,Blue_Star_Stripes_1.jpg,Red_Star_Chess_4.jpg,Blue_Triangle_Grid_2.jpg,left,769.910000031814,false,high,NA,NA,NA,NA,NA,NA,NA,false
BHYmdRSe,33cla8o0nlo9ukh858i8v1jgjoffrm,3v5q80fxi14zx8ioxp77i4i2nv132f,BHYmdRSe,2020-0188,2020-05-08,09:47:30,10:04:16,NA,incomplete,131,color,1,right,Red_Triangle_Grid_2.jpg,Purple_Triangle_Dots_3.jpg,Red_Circle_Stripes_1.jpg,right,849.4200001005083,true,high,NA,NA,NA,NA,NA,NA,NA,false
BHYmdRSe,33cla8o0nlo9ukh858i8v1jgjoffrm,3v5q80fxi14zx8ioxp77i4i2nv132f,BHYmdRSe,2020-0188,2020-05-08,09:47:30,10:04:16,NA,incomplete,132,color,1,left,Purple_Circle_Stripes_4.jpg,Purple_Star_Dots_1.jpg,Red_Circle_Grid_3.jpg,left,865.2349999174476,true,high,NA,NA,NA,NA,NA,NA,NA,false
BHYmdRSe,33cla8o0nlo9ukh858i8v1jgjoffrm,3v5q80fxi14zx8ioxp77i4i2nv132f,BHYmdRSe,2020-0188,2020-05-08,09:47:30,10:04:16,NA,incomplete,133,color,1,left,Purple_Triangle_Grid_1.jpg,Purple_Star_Chess_4.jpg,Green_Triangle_Dots_2.jpg,left,654.5899999327958,true,high,NA,NA,NA,NA,NA,NA,NA,false
BHYmdRSe,33cla8o0nlo9ukh858i8v1jgjoffrm,3v5q80fxi14zx8ioxp77i4i2nv132f,BHYmdRSe,2020-0188,2020-05-08,09:47:30,10:04:16,NA,incomplete,134,color,1,right,Purple_Star_Chess_4.jpg,Red_Star_Stripes_1.jpg,Purple_Plus_Grid_2.jpg,right,556.0949998907745,true,high,NA,NA,NA,NA,NA,NA,NA,false
BHYmdRSe,33cla8o0nlo9ukh858i8v1jgjoffrm,3v5q80fxi14zx8ioxp77i4i2nv132f,BHYmdRSe,2020-0188,2020-05-08,09:47:30,10:04:16,NA,incomplete,135,color,1,left,Blue_Plus_Chess_4.jpg,Blue_Star_Stripes_3.jpg,Purple_Plus_Dots_2.jpg,left,554.3100000359118,true,high,NA,NA,NA,NA,NA,NA,NA,false
BHYmdRSe,33cla8o0nlo9ukh858i8v1jgjoffrm,3v5q80fxi14zx8ioxp77i4i2nv132f,BHYmdRSe,2020-0188,2020-05-08,09:47:30,10:04:16,NA,incomplete,136,color,1,left,Red_Triangle_Dots_4.jpg,Red_Plus_Stripes_2.jpg,Green_Triangle_Chess_1.jpg,left,583.6350000463426,true,high,NA,NA,NA,NA,NA,NA,NA,false
BHYmdRSe,33cla8o0nlo9ukh858i8v1jgjoffrm,3v5q80fxi14zx8ioxp77i4i2nv132f,BHYmdRSe,2020-0188,2020-05-08,09:47:30,10:04:16,NA,incomplete,137,color,1,left,Blue_Star_Stripes_1.jpg,Blue_Plus_Grid_2.jpg,Red_Star_Dots_4.jpg,left,701.3749999459833,true,high,NA,NA,NA,NA,NA,NA,NA,false
BHYmdRSe,33cla8o0nlo9ukh858i8v1jgjoffrm,3v5q80fxi14zx8ioxp77i4i2nv132f,BHYmdRSe,2020-0188,2020-05-08,09:47:30,10:04:16,NA,incomplete,138,color,1,right,Green_Triangle_Dots_2.jpg,Blue_Triangle_Chess_4.jpg,Green_Star_Stripes_3.jpg,right,602.0150000695139,true,high,NA,NA,NA,NA,NA,NA,NA,false
BHYmdRSe,33cla8o0nlo9ukh858i8v1jgjoffrm,3v5q80fxi14zx8ioxp77i4i2nv132f,BHYmdRSe,2020-0188,2020-05-08,09:47:30,10:04:16,NA,incomplete,139,color,1,left,Purple_Circle_Grid_3.jpg,Purple_Triangle_Chess_2.jpg,Blue_Circle_Dots_1.jpg,left,574.104999890551,true,high,NA,NA,NA,NA,NA,NA,NA,false
BHYmdRSe,33cla8o0nlo9ukh858i8v1jgjoffrm,3v5q80fxi14zx8ioxp77i4i2nv132f,BHYmdRSe,2020-0188,2020-05-08,09:47:30,10:04:16,NA,incomplete,140,shape,1,right,Red_Triangle_Stripes_2.jpg,Red_Plus_Dots_1.jpg,Green_Triangle_Chess_4.jpg,left,549.919999903068,false,high,NA,NA,NA,NA,NA,NA,NA,false
BHYmdRSe,33cla8o0nlo9ukh858i8v1jgjoffrm,3v5q80fxi14zx8ioxp77i4i2nv132f,BHYmdRSe,2020-0188,2020-05-08,09:47:30,10:04:16,NA,incomplete,141,shape,1,left,Red_Plus_Chess_2.jpg,Purple_Plus_Stripes_4.jpg,Red_Triangle_Grid_1.jpg,left,707.0650001987815,true,high,NA,NA,NA,NA,NA,NA,NA,false
BHYmdRSe,33cla8o0nlo9ukh858i8v1jgjoffrm,3v5q80fxi14zx8ioxp77i4i2nv132f,BHYmdRSe,2020-0188,2020-05-08,09:47:30,10:04:16,NA,incomplete,142,shape,1,left,Purple_Star_Chess_4.jpg,Green_Star_Dots_1.jpg,Purple_Triangle_Stripes_3.jpg,left,727.1700000856072,true,high,NA,NA,NA,NA,NA,NA,NA,false
BHYmdRSe,33cla8o0nlo9ukh858i8v1jgjoffrm,3v5q80fxi14zx8ioxp77i4i2nv132f,BHYmdRSe,2020-0188,2020-05-08,09:47:30,10:04:16,NA,incomplete,143,shape,1,right,Red_Star_Stripes_2.jpg,Red_Circle_Grid_3.jpg,Green_Star_Chess_4.jpg,right,810.5999999679625,true,high,NA,NA,NA,NA,NA,NA,NA,false
BHYmdRSe,33cla8o0nlo9ukh858i8v1jgjoffrm,3v5q80fxi14zx8ioxp77i4i2nv132f,BHYmdRSe,2020-0188,2020-05-08,09:47:30,10:04:16,NA,incomplete,144,shape,0,right,Purple_Star_Chess_2.jpg,Purple_Plus_Stripes_1.jpg,Green_Star_Grid_3.jpg,right,737.6600001007318,true,high,NA,NA,NA,NA,NA,NA,NA,false
BHYmdRSe,33cla8o0nlo9ukh858i8v1jgjoffrm,3v5q80fxi14zx8ioxp77i4i2nv132f,BHYmdRSe,2020-0188,2020-05-08,09:47:30,10:04:16,NA,incomplete,145,shape,1,right,Green_Triangle_Chess_2.jpg,Green_Plus_Dots_3.jpg,Blue_Triangle_Stripes_1.jpg,right,727.7249998878688,true,high,NA,NA,NA,NA,NA,NA,NA,false
BHYmdRSe,33cla8o0nlo9ukh858i8v1jgjoffrm,3v5q80fxi14zx8ioxp77i4i2nv132f,BHYmdRSe,2020-0188,2020-05-08,09:47:30,10:04:16,NA,incomplete,146,shape,1,left,Purple_Circle_Chess_4.jpg,Red_Circle_Grid_3.jpg,Purple_Triangle_Stripes_2.jpg,left,669.495000038296,true,high,NA,NA,NA,NA,NA,NA,NA,false
BHYmdRSe,33cla8o0nlo9ukh858i8v1jgjoffrm,3v5q80fxi14zx8ioxp77i4i2nv132f,BHYmdRSe,2020-0188,2020-05-08,09:47:30,10:04:16,NA,incomplete,147,shape,1,right,Red_Plus_Chess_3.jpg,Red_Triangle_Grid_4.jpg,Blue_Plus_Dots_2.jpg,right,687.7099999692291,true,high,NA,NA,NA,NA,NA,NA,NA,false
BHYmdRSe,33cla8o0nlo9ukh858i8v1jgjoffrm,3v5q80fxi14zx8ioxp77i4i2nv132f,BHYmdRSe,2020-0188,2020-05-08,09:47:30,10:04:16,NA,incomplete,148,shape,1,right,Red_Star_Stripes_1.jpg,Red_Circle_Grid_2.jpg,Blue_Star_Chess_3.jpg,right,659.2250000685453,true,high,NA,NA,NA,NA,NA,NA,NA,false
BHYmdRSe,33cla8o0nlo9ukh858i8v1jgjoffrm,3v5q80fxi14zx8ioxp77i4i2nv132f,BHYmdRSe,2020-0188,2020-05-08,09:47:30,10:04:16,NA,incomplete,149,shape,1,right,Red_Star_Grid_3.jpg,Red_Circle_Stripes_4.jpg,Green_Star_Chess_2.jpg,right,719.1649999003857,true,high,NA,NA,NA,NA,NA,NA,NA,false
BHYmdRSe,33cla8o0nlo9ukh858i8v1jgjoffrm,3v5q80fxi14zx8ioxp77i4i2nv132f,BHYmdRSe,2020-0188,2020-05-08,09:47:30,10:04:16,NA,incomplete,150,shape,1,left,Green_Circle_Chess_4.jpg,Blue_Circle_Dots_1.jpg,Green_Triangle_Stripes_3.jpg,left,738.9050000347197,true,high,NA,NA,NA,NA,NA,NA,NA,false
BHYmdRSe,33cla8o0nlo9ukh858i8v1jgjoffrm,3v5q80fxi14zx8ioxp77i4i2nv132f,BHYmdRSe,2020-0188,2020-05-08,09:47:30,10:04:16,NA,incomplete,151,shape,1,right,Purple_Star_Stripes_3.jpg,Purple_Circle_Grid_4.jpg,Red_Star_Dots_2.jpg,right,707.9499999526888,true,high,NA,NA,NA,NA,NA,NA,NA,false
BHYmdRSe,33cla8o0nlo9ukh858i8v1jgjoffrm,3v5q80fxi14zx8ioxp77i4i2nv132f,BHYmdRSe,2020-0188,2020-05-08,09:47:30,10:04:16,NA,incomplete,152,shape,1,left,Blue_Plus_Grid_4.jpg,Purple_Plus_Dots_1.jpg,Blue_Circle_Chess_2.jpg,left,748.060000129044,true,high,NA,NA,NA,NA,NA,NA,NA,false
BHYmdRSe,33cla8o0nlo9ukh858i8v1jgjoffrm,3v5q80fxi14zx8ioxp77i4i2nv132f,BHYmdRSe,2020-0188,2020-05-08,09:47:30,10:04:16,NA,incomplete,153,shape,0,left,Green_Triangle_Chess_2.jpg,Red_Triangle_Dots_4.jpg,Green_Star_Stripes_1.jpg,left,721.1399998050183,true,high,NA,NA,NA,NA,NA,NA,NA,false
BHYmdRSe,33cla8o0nlo9ukh858i8v1jgjoffrm,3v5q80fxi14zx8ioxp77i4i2nv132f,BHYmdRSe,2020-0188,2020-05-08,09:47:30,10:04:16,NA,incomplete,154,shape,1,left,Green_Triangle_Grid_1.jpg,Red_Triangle_Chess_4.jpg,Green_Circle_Stripes_2.jpg,left,1264.3999999854714,true,high,NA,NA,NA,NA,NA,NA,NA,false
BHYmdRSe,33cla8o0nlo9ukh858i8v1jgjoffrm,3v5q80fxi14zx8ioxp77i4i2nv132f,BHYmdRSe,2020-0188,2020-05-08,09:47:30,10:04:16,NA,incomplete,155,shape,0,right,Blue_Plus_Dots_4.jpg,Blue_Circle_Stripes_3.jpg,Red_Plus_Chess_2.jpg,right,672.4249999970198,true,high,NA,NA,NA,NA,NA,NA,NA,false
BHYmdRSe,33cla8o0nlo9ukh858i8v1jgjoffrm,3v5q80fxi14zx8ioxp77i4i2nv132f,BHYmdRSe,2020-0188,2020-05-08,09:47:30,10:04:16,NA,incomplete,156,shape,1,right,Green_Circle_Chess_4.jpg,Green_Triangle_Dots_2.jpg,Purple_Circle_Grid_1.jpg,left,578.9950001053512,false,high,NA,NA,NA,NA,NA,NA,NA,false
BHYmdRSe,33cla8o0nlo9ukh858i8v1jgjoffrm,3v5q80fxi14zx8ioxp77i4i2nv132f,BHYmdRSe,2020-0188,2020-05-08,09:47:30,10:04:16,NA,incomplete,157,shape,0,right,Green_Circle_Dots_3.jpg,Green_Triangle_Grid_4.jpg,Red_Circle_Chess_1.jpg,left,722.7300000376999,false,high,NA,NA,NA,NA,NA,NA,NA,false
BHYmdRSe,33cla8o0nlo9ukh858i8v1jgjoffrm,3v5q80fxi14zx8ioxp77i4i2nv132f,BHYmdRSe,2020-0188,2020-05-08,09:47:30,10:04:16,NA,incomplete,158,shape,1,left,Purple_Circle_Grid_4.jpg,Green_Circle_Chess_3.jpg,Purple_Triangle_Dots_1.jpg,right,652.0750001072884,false,high,NA,NA,NA,NA,NA,NA,NA,false
BHYmdRSe,33cla8o0nlo9ukh858i8v1jgjoffrm,3v5q80fxi14zx8ioxp77i4i2nv132f,BHYmdRSe,2020-0188,2020-05-08,09:47:30,10:04:16,NA,incomplete,159,shape,1,left,Purple_Circle_Stripes_4.jpg,Blue_Circle_Chess_2.jpg,Purple_Triangle_Grid_1.jpg,right,637.5750000588596,false,high,NA,NA,NA,NA,NA,NA,NA,false
BHYmdRSe,33cla8o0nlo9ukh858i8v1jgjoffrm,3v5q80fxi14zx8ioxp77i4i2nv132f,BHYmdRSe,2020-0188,2020-05-08,09:47:30,10:04:16,NA,incomplete,160,color,1,left,Red_Triangle_Stripes_4.jpg,Red_Star_Dots_3.jpg,Green_Triangle_Chess_2.jpg,none,0,false,high,NA,NA,NA,NA,NA,NA,NA,false
BHYmdRSe,33cla8o0nlo9ukh858i8v1jgjoffrm,3v5q80fxi14zx8ioxp77i4i2nv132f,BHYmdRSe,2020-0188,2020-05-08,09:47:30,10:04:16,NA,incomplete,161,color,0,right,Blue_Triangle_Grid_3.jpg,Red_Triangle_Stripes_1.jpg,Blue_Circle_Dots_4.jpg,left,795.6749999430031,false,high,NA,NA,NA,NA,NA,NA,NA,false
BHYmdRSe,33cla8o0nlo9ukh858i8v1jgjoffrm,3v5q80fxi14zx8ioxp77i4i2nv132f,BHYmdRSe,2020-0188,2020-05-08,09:47:30,10:04:16,NA,incomplete,162,color,1,left,Red_Triangle_Chess_1.jpg,Red_Circle_Grid_2.jpg,Green_Triangle_Stripes_3.jpg,right,771.7049999628216,false,high,NA,NA,NA,NA,NA,NA,NA,false
BHYmdRSe,33cla8o0nlo9ukh858i8v1jgjoffrm,3v5q80fxi14zx8ioxp77i4i2nv132f,BHYmdRSe,2020-0188,2020-05-08,09:47:30,10:04:16,NA,incomplete,163,color,1,right,Purple_Triangle_Stripes_2.jpg,Green_Triangle_Grid_4.jpg,Purple_Plus_Dots_3.jpg,right,566.9199998956174,true,high,NA,NA,NA,NA,NA,NA,NA,false
BHYmdRSe,33cla8o0nlo9ukh858i8v1jgjoffrm,3v5q80fxi14zx8ioxp77i4i2nv132f,BHYmdRSe,2020-0188,2020-05-08,09:47:30,10:04:16,NA,incomplete,164,color,1,left,Purple_Plus_Grid_1.jpg,Purple_Star_Stripes_2.jpg,Blue_Plus_Dots_4.jpg,left,663.0349999759346,true,high,NA,NA,NA,NA,NA,NA,NA,false
BHYmdRSe,33cla8o0nlo9ukh858i8v1jgjoffrm,3v5q80fxi14zx8ioxp77i4i2nv132f,BHYmdRSe,2020-0188,2020-05-08,09:47:30,10:04:16,NA,incomplete,165,color,1,left,Purple_Star_Grid_1.jpg,Purple_Triangle_Dots_3.jpg,Green_Star_Stripes_2.jpg,right,1018.6749999411404,false,high,NA,NA,NA,NA,NA,NA,NA,false
BHYmdRSe,33cla8o0nlo9ukh858i8v1jgjoffrm,3v5q80fxi14zx8ioxp77i4i2nv132f,BHYmdRSe,2020-0188,2020-05-08,09:47:30,10:04:16,NA,incomplete,166,color,1,right,Red_Circle_Stripes_1.jpg,Blue_Circle_Grid_2.jpg,Red_Triangle_Chess_3.jpg,right,682.8099999111146,true,high,NA,NA,NA,NA,NA,NA,NA,false
BHYmdRSe,33cla8o0nlo9ukh858i8v1jgjoffrm,3v5q80fxi14zx8ioxp77i4i2nv132f,BHYmdRSe,2020-0188,2020-05-08,09:47:30,10:04:16,NA,incomplete,167,color,1,right,Blue_Plus_Dots_3.jpg,Red_Plus_Chess_1.jpg,Blue_Star_Grid_2.jpg,right,807.5650001410395,true,high,NA,NA,NA,NA,NA,NA,NA,false
BHYmdRSe,33cla8o0nlo9ukh858i8v1jgjoffrm,3v5q80fxi14zx8ioxp77i4i2nv132f,BHYmdRSe,2020-0188,2020-05-08,09:47:30,10:04:16,NA,incomplete,168,color,1,left,Red_Plus_Grid_3.jpg,Red_Triangle_Stripes_4.jpg,Blue_Plus_Dots_2.jpg,left,681.1299999244511,true,high,NA,NA,NA,NA,NA,NA,NA,false
BHYmdRSe,33cla8o0nlo9ukh858i8v1jgjoffrm,3v5q80fxi14zx8ioxp77i4i2nv132f,BHYmdRSe,2020-0188,2020-05-08,09:47:30,10:04:16,NA,incomplete,169,color,1,right,Purple_Plus_Stripes_4.jpg,Red_Plus_Dots_2.jpg,Purple_Star_Grid_3.jpg,right,646.9650000799447,true,high,NA,NA,NA,NA,NA,NA,NA,false
BHYmdRSe,33cla8o0nlo9ukh858i8v1jgjoffrm,3v5q80fxi14zx8ioxp77i4i2nv132f,BHYmdRSe,2020-0188,2020-05-08,09:47:30,10:04:16,NA,incomplete,170,color,1,left,Blue_Circle_Dots_1.jpg,Blue_Triangle_Chess_2.jpg,Red_Circle_Grid_4.jpg,left,578.755000140518,true,high,NA,NA,NA,NA,NA,NA,NA,false
BHYmdRSe,33cla8o0nlo9ukh858i8v1jgjoffrm,3v5q80fxi14zx8ioxp77i4i2nv132f,BHYmdRSe,2020-0188,2020-05-08,09:47:30,10:04:16,NA,incomplete,171,color,1,right,Green_Plus_Grid_2.jpg,Blue_Plus_Chess_1.jpg,Green_Star_Stripes_4.jpg,right,681.2950000166893,true,high,NA,NA,NA,NA,NA,NA,NA,false
BHYmdRSe,33cla8o0nlo9ukh858i8v1jgjoffrm,3v5q80fxi14zx8ioxp77i4i2nv132f,BHYmdRSe,2020-0188,2020-05-08,09:47:30,10:04:16,NA,incomplete,172,color,1,left,Red_Plus_Chess_3.jpg,Red_Circle_Grid_2.jpg,Purple_Plus_Dots_4.jpg,left,582.4349999893457,true,high,NA,NA,NA,NA,NA,NA,NA,false
BHYmdRSe,33cla8o0nlo9ukh858i8v1jgjoffrm,3v5q80fxi14zx8ioxp77i4i2nv132f,BHYmdRSe,2020-0188,2020-05-08,09:47:30,10:04:16,NA,incomplete,173,color,1,left,Blue_Circle_Stripes_4.jpg,Blue_Triangle_Grid_2.jpg,Green_Circle_Dots_1.jpg,left,560.8099999371916,true,high,NA,NA,NA,NA,NA,NA,NA,false
BHYmdRSe,33cla8o0nlo9ukh858i8v1jgjoffrm,3v5q80fxi14zx8ioxp77i4i2nv132f,BHYmdRSe,2020-0188,2020-05-08,09:47:30,10:04:16,NA,incomplete,174,color,1,left,Red_Plus_Grid_4.jpg,Red_Triangle_Dots_3.jpg,Blue_Plus_Chess_1.jpg,left,512.8399999812245,true,high,NA,NA,NA,NA,NA,NA,NA,false
BHYmdRSe,33cla8o0nlo9ukh858i8v1jgjoffrm,3v5q80fxi14zx8ioxp77i4i2nv132f,BHYmdRSe,2020-0188,2020-05-08,09:47:30,10:04:16,NA,incomplete,175,color,0,left,Blue_Star_Dots_3.jpg,Blue_Plus_Stripes_1.jpg,Purple_Star_Chess_2.jpg,left,558.469999814406,true,high,NA,NA,NA,NA,NA,NA,NA,false
BHYmdRSe,33cla8o0nlo9ukh858i8v1jgjoffrm,3v5q80fxi14zx8ioxp77i4i2nv132f,BHYmdRSe,2020-0188,2020-05-08,09:47:30,10:04:16,NA,incomplete,176,color,1,left,Green_Star_Chess_3.jpg,Green_Triangle_Stripes_4.jpg,Red_Star_Dots_2.jpg,right,776.9150000531226,false,high,NA,NA,NA,NA,NA,NA,NA,false
BHYmdRSe,33cla8o0nlo9ukh858i8v1jgjoffrm,3v5q80fxi14zx8ioxp77i4i2nv132f,BHYmdRSe,2020-0188,2020-05-08,09:47:30,10:04:16,NA,incomplete,177,color,1,right,Red_Plus_Stripes_1.jpg,Green_Plus_Dots_2.jpg,Red_Star_Grid_3.jpg,right,608.6399999912828,true,high,NA,NA,NA,NA,NA,NA,NA,false
BHYmdRSe,33cla8o0nlo9ukh858i8v1jgjoffrm,3v5q80fxi14zx8ioxp77i4i2nv132f,BHYmdRSe,2020-0188,2020-05-08,09:47:30,10:04:16,NA,incomplete,178,color,1,left,Green_Star_Chess_1.jpg,Green_Triangle_Stripes_3.jpg,Blue_Star_Dots_4.jpg,left,698.3199999667704,true,high,NA,NA,NA,NA,NA,NA,NA,false
BHYmdRSe,33cla8o0nlo9ukh858i8v1jgjoffrm,3v5q80fxi14zx8ioxp77i4i2nv132f,BHYmdRSe,2020-0188,2020-05-08,09:47:30,10:04:16,NA,incomplete,179,color,0,right,Purple_Triangle_Stripes_3.jpg,Red_Triangle_Chess_2.jpg,Purple_Plus_Grid_4.jpg,right,639.3950001802295,true,high,NA,NA,NA,NA,NA,NA,NA,false
BHYmdRSe,33cla8o0nlo9ukh858i8v1jgjoffrm,3v5q80fxi14zx8ioxp77i4i2nv132f,BHYmdRSe,2020-0188,2020-05-08,09:47:30,10:04:16,NA,incomplete,180,shape,1,left,Green_Circle_Chess_2.jpg,Red_Circle_Grid_4.jpg,Green_Plus_Dots_3.jpg,left,733.8450001552701,true,high,NA,NA,NA,NA,NA,NA,NA,false
BHYmdRSe,33cla8o0nlo9ukh858i8v1jgjoffrm,3v5q80fxi14zx8ioxp77i4i2nv132f,BHYmdRSe,2020-0188,2020-05-08,09:47:30,10:04:16,NA,incomplete,181,shape,1,left,Green_Circle_Grid_2.jpg,Red_Circle_Stripes_4.jpg,Green_Triangle_Dots_3.jpg,left,632.8249999787658,true,high,NA,NA,NA,NA,NA,NA,NA,false
BHYmdRSe,33cla8o0nlo9ukh858i8v1jgjoffrm,3v5q80fxi14zx8ioxp77i4i2nv132f,BHYmdRSe,2020-0188,2020-05-08,09:47:30,10:04:16,NA,incomplete,182,shape,1,left,Green_Triangle_Grid_1.jpg,Purple_Triangle_Dots_4.jpg,Green_Circle_Chess_2.jpg,left,1178.529999917373,true,high,NA,NA,NA,NA,NA,NA,NA,false
BHYmdRSe,33cla8o0nlo9ukh858i8v1jgjoffrm,3v5q80fxi14zx8ioxp77i4i2nv132f,BHYmdRSe,2020-0188,2020-05-08,09:47:30,10:04:16,NA,incomplete,183,shape,0,right,Purple_Star_Grid_1.jpg,Purple_Triangle_Dots_3.jpg,Green_Star_Stripes_4.jpg,right,794.3100000265986,true,high,NA,NA,NA,NA,NA,NA,NA,false
BHYmdRSe,33cla8o0nlo9ukh858i8v1jgjoffrm,3v5q80fxi14zx8ioxp77i4i2nv132f,BHYmdRSe,2020-0188,2020-05-08,09:47:30,10:04:16,NA,incomplete,184,shape,1,right,Red_Plus_Chess_1.jpg,Red_Star_Dots_3.jpg,Purple_Plus_Stripes_4.jpg,right,696.3200001046062,true,high,NA,NA,NA,NA,NA,NA,NA,false
BHYmdRSe,33cla8o0nlo9ukh858i8v1jgjoffrm,3v5q80fxi14zx8ioxp77i4i2nv132f,BHYmdRSe,2020-0188,2020-05-08,09:47:30,10:04:16,NA,incomplete,185,shape,1,left,Blue_Star_Dots_4.jpg,Purple_Star_Stripes_3.jpg,Blue_Plus_Chess_1.jpg,left,704.494999954477,true,high,NA,NA,NA,NA,NA,NA,NA,false
BHYmdRSe,33cla8o0nlo9ukh858i8v1jgjoffrm,3v5q80fxi14zx8ioxp77i4i2nv132f,BHYmdRSe,2020-0188,2020-05-08,09:47:30,10:04:16,NA,incomplete,186,shape,0,left,Red_Triangle_Grid_1.jpg,Blue_Triangle_Dots_3.jpg,Red_Circle_Chess_2.jpg,left,731.6800002008677,true,high,NA,NA,NA,NA,NA,NA,NA,false
BHYmdRSe,33cla8o0nlo9ukh858i8v1jgjoffrm,3v5q80fxi14zx8ioxp77i4i2nv132f,BHYmdRSe,2020-0188,2020-05-08,09:47:30,10:04:16,NA,incomplete,187,shape,1,right,Green_Triangle_Stripes_2.jpg,Green_Star_Dots_1.jpg,Purple_Triangle_Chess_3.jpg,right,790.4550000093877,true,high,NA,NA,NA,NA,NA,NA,NA,false
BHYmdRSe,33cla8o0nlo9ukh858i8v1jgjoffrm,3v5q80fxi14zx8ioxp77i4i2nv132f,BHYmdRSe,2020-0188,2020-05-08,09:47:30,10:04:16,NA,incomplete,188,shape,1,right,Red_Triangle_Stripes_2.jpg,Red_Plus_Chess_1.jpg,Blue_Triangle_Dots_3.jpg,right,693.7600001692772,true,high,NA,NA,NA,NA,NA,NA,NA,false
BHYmdRSe,33cla8o0nlo9ukh858i8v1jgjoffrm,3v5q80fxi14zx8ioxp77i4i2nv132f,BHYmdRSe,2020-0188,2020-05-08,09:47:30,10:04:16,NA,incomplete,189,shape,1,left,Red_Plus_Stripes_1.jpg,Green_Plus_Chess_2.jpg,Red_Circle_Grid_3.jpg,left,672.3249999340624,true,high,NA,NA,NA,NA,NA,NA,NA,false
BHYmdRSe,33cla8o0nlo9ukh858i8v1jgjoffrm,3v5q80fxi14zx8ioxp77i4i2nv132f,BHYmdRSe,2020-0188,2020-05-08,09:47:30,10:04:16,NA,incomplete,190,shape,1,right,Red_Plus_Grid_2.jpg,Red_Circle_Stripes_4.jpg,Blue_Plus_Chess_1.jpg,right,680.0899999216199,true,high,NA,NA,NA,NA,NA,NA,NA,false
BHYmdRSe,33cla8o0nlo9ukh858i8v1jgjoffrm,3v5q80fxi14zx8ioxp77i4i2nv132f,BHYmdRSe,2020-0188,2020-05-08,09:47:30,10:04:16,NA,incomplete,191,shape,1,right,Green_Triangle_Stripes_2.jpg,Green_Circle_Chess_4.jpg,Purple_Triangle_Grid_1.jpg,right,681.7149999551475,true,high,NA,NA,NA,NA,NA,NA,NA,false
BHYmdRSe,33cla8o0nlo9ukh858i8v1jgjoffrm,3v5q80fxi14zx8ioxp77i4i2nv132f,BHYmdRSe,2020-0188,2020-05-08,09:47:30,10:04:16,NA,incomplete,192,shape,1,left,Blue_Star_Dots_2.jpg,Purple_Star_Chess_1.jpg,Blue_Circle_Stripes_4.jpg,left,834.169999929145,true,high,NA,NA,NA,NA,NA,NA,NA,false
BHYmdRSe,33cla8o0nlo9ukh858i8v1jgjoffrm,3v5q80fxi14zx8ioxp77i4i2nv132f,BHYmdRSe,2020-0188,2020-05-08,09:47:30,10:04:16,NA,incomplete,193,shape,1,right,Purple_Star_Dots_1.jpg,Purple_Circle_Chess_4.jpg,Green_Star_Grid_3.jpg,right,667.7099999506027,true,high,NA,NA,NA,NA,NA,NA,NA,false
BHYmdRSe,33cla8o0nlo9ukh858i8v1jgjoffrm,3v5q80fxi14zx8ioxp77i4i2nv132f,BHYmdRSe,2020-0188,2020-05-08,09:47:30,10:04:16,NA,incomplete,194,shape,1,left,Red_Plus_Grid_3.jpg,Blue_Plus_Dots_2.jpg,Red_Circle_Chess_4.jpg,left,682.5900000985712,true,high,NA,NA,NA,NA,NA,NA,NA,false
BHYmdRSe,33cla8o0nlo9ukh858i8v1jgjoffrm,3v5q80fxi14zx8ioxp77i4i2nv132f,BHYmdRSe,2020-0188,2020-05-08,09:47:30,10:04:16,NA,incomplete,195,shape,1,right,Blue_Star_Grid_4.jpg,Blue_Triangle_Stripes_1.jpg,Green_Star_Chess_3.jpg,right,672.4849999882281,true,high,NA,NA,NA,NA,NA,NA,NA,false
BHYmdRSe,33cla8o0nlo9ukh858i8v1jgjoffrm,3v5q80fxi14zx8ioxp77i4i2nv132f,BHYmdRSe,2020-0188,2020-05-08,09:47:30,10:04:16,NA,incomplete,196,shape,0,left,Green_Plus_Chess_3.jpg,Purple_Plus_Dots_1.jpg,Green_Circle_Grid_2.jpg,left,648.090000031516,true,high,NA,NA,NA,NA,NA,NA,NA,false
BHYmdRSe,33cla8o0nlo9ukh858i8v1jgjoffrm,3v5q80fxi14zx8ioxp77i4i2nv132f,BHYmdRSe,2020-0188,2020-05-08,09:47:30,10:04:16,NA,incomplete,197,shape,1,right,Purple_Star_Grid_3.jpg,Purple_Triangle_Stripes_1.jpg,Red_Star_Dots_4.jpg,left,618.5749999713153,false,high,NA,NA,NA,NA,NA,NA,NA,false
BHYmdRSe,33cla8o0nlo9ukh858i8v1jgjoffrm,3v5q80fxi14zx8ioxp77i4i2nv132f,BHYmdRSe,2020-0188,2020-05-08,09:47:30,10:04:16,NA,incomplete,198,shape,1,right,Purple_Triangle_Stripes_4.jpg,Purple_Plus_Dots_1.jpg,Blue_Triangle_Chess_3.jpg,left,760.9549998305738,false,high,NA,NA,NA,NA,NA,NA,NA,false
BHYmdRSe,33cla8o0nlo9ukh858i8v1jgjoffrm,3v5q80fxi14zx8ioxp77i4i2nv132f,BHYmdRSe,2020-0188,2020-05-08,09:47:30,10:04:16,NA,incomplete,199,shape,0,right,Red_Plus_Chess_4.jpg,Red_Star_Dots_3.jpg,Purple_Plus_Stripes_2.jpg,right,715.1599999051541,true,high,NA,NA,NA,NA,NA,NA,NA,false
BHYmdRSe,33cla8o0nlo9ukh858i8v1jgjoffrm,3v5q80fxi14zx8ioxp77i4i2nv132f,BHYmdRSe,2020-0188,2020-05-08,09:47:30,10:04:16,NA,incomplete,200,color,1,right,Blue_Star_Grid_2.jpg,Red_Star_Chess_1.jpg,Blue_Plus_Dots_3.jpg,right,524.6900001075119,true,high,NA,NA,NA,NA,NA,NA,NA,false
BHYmdRSe,33cla8o0nlo9ukh858i8v1jgjoffrm,3v5q80fxi14zx8ioxp77i4i2nv132f,BHYmdRSe,2020-0188,2020-05-08,09:47:30,10:04:16,NA,incomplete,201,color,1,left,Blue_Circle_Grid_3.jpg,Blue_Plus_Dots_4.jpg,Red_Circle_Stripes_2.jpg,left,1105.6349999271333,true,high,NA,NA,NA,NA,NA,NA,NA,false
BHYmdRSe,33cla8o0nlo9ukh858i8v1jgjoffrm,3v5q80fxi14zx8ioxp77i4i2nv132f,BHYmdRSe,2020-0188,2020-05-08,09:47:30,10:04:16,NA,incomplete,202,color,0,right,Purple_Circle_Grid_4.jpg,Red_Circle_Dots_2.jpg,Purple_Star_Chess_3.jpg,right,624.3650000542402,true,high,NA,NA,NA,NA,NA,NA,NA,false
BHYmdRSe,33cla8o0nlo9ukh858i8v1jgjoffrm,3v5q80fxi14zx8ioxp77i4i2nv132f,BHYmdRSe,2020-0188,2020-05-08,09:47:30,10:04:16,NA,incomplete,203,color,1,right,Purple_Circle_Dots_3.jpg,Red_Circle_Chess_1.jpg,Purple_Star_Stripes_2.jpg,right,568.3949999511242,true,high,NA,NA,NA,NA,NA,NA,NA,false
BHYmdRSe,33cla8o0nlo9ukh858i8v1jgjoffrm,3v5q80fxi14zx8ioxp77i4i2nv132f,BHYmdRSe,2020-0188,2020-05-08,09:47:30,10:04:16,NA,incomplete,204,color,1,left,Green_Triangle_Grid_1.jpg,Green_Circle_Chess_4.jpg,Red_Triangle_Stripes_2.jpg,left,660.1899999659508,true,high,NA,NA,NA,NA,NA,NA,NA,false
BHYmdRSe,33cla8o0nlo9ukh858i8v1jgjoffrm,3v5q80fxi14zx8ioxp77i4i2nv132f,BHYmdRSe,2020-0188,2020-05-08,09:47:30,10:04:16,NA,incomplete,205,color,1,left,Green_Circle_Grid_1.jpg,Green_Triangle_Chess_3.jpg,Blue_Circle_Dots_2.jpg,left,1178.7550000008196,true,high,NA,NA,NA,NA,NA,NA,NA,false
BHYmdRSe,33cla8o0nlo9ukh858i8v1jgjoffrm,3v5q80fxi14zx8ioxp77i4i2nv132f,BHYmdRSe,2020-0188,2020-05-08,09:47:30,10:04:16,NA,incomplete,206,color,1,right,Blue_Star_Stripes_3.jpg,Green_Star_Grid_4.jpg,Blue_Plus_Dots_2.jpg,right,591.50500013493,true,high,NA,NA,NA,NA,NA,NA,NA,false
BHYmdRSe,33cla8o0nlo9ukh858i8v1jgjoffrm,3v5q80fxi14zx8ioxp77i4i2nv132f,BHYmdRSe,2020-0188,2020-05-08,09:47:30,10:04:16,NA,incomplete,207,color,0,right,Blue_Triangle_Dots_1.jpg,Green_Triangle_Grid_3.jpg,Blue_Circle_Chess_4.jpg,right,640.4949999414384,true,high,NA,NA,NA,NA,NA,NA,NA,false
BHYmdRSe,33cla8o0nlo9ukh858i8v1jgjoffrm,3v5q80fxi14zx8ioxp77i4i2nv132f,BHYmdRSe,2020-0188,2020-05-08,09:47:30,10:04:16,NA,incomplete,208,color,1,left,Purple_Plus_Dots_3.jpg,Purple_Star_Stripes_4.jpg,Red_Plus_Chess_2.jpg,left,635.6599999126047,true,high,NA,NA,NA,NA,NA,NA,NA,false
BHYmdRSe,33cla8o0nlo9ukh858i8v1jgjoffrm,3v5q80fxi14zx8ioxp77i4i2nv132f,BHYmdRSe,2020-0188,2020-05-08,09:47:30,10:04:16,NA,incomplete,209,color,1,left,Red_Circle_Chess_1.jpg,Red_Star_Dots_2.jpg,Purple_Circle_Stripes_4.jpg,left,565.7049999572337,true,high,NA,NA,NA,NA,NA,NA,NA,false
BHYmdRSe,33cla8o0nlo9ukh858i8v1jgjoffrm,3v5q80fxi14zx8ioxp77i4i2nv132f,BHYmdRSe,2020-0188,2020-05-08,09:47:30,10:04:16,NA,incomplete,210,color,1,left,Blue_Plus_Stripes_4.jpg,Blue_Star_Chess_1.jpg,Green_Plus_Grid_3.jpg,left,539.0600000973791,true,high,NA,NA,NA,NA,NA,NA,NA,false
BHYmdRSe,33cla8o0nlo9ukh858i8v1jgjoffrm,3v5q80fxi14zx8ioxp77i4i2nv132f,BHYmdRSe,2020-0188,2020-05-08,09:47:30,10:04:16,NA,incomplete,211,color,1,right,Blue_Triangle_Grid_2.jpg,Green_Triangle_Stripes_1.jpg,Blue_Circle_Chess_3.jpg,right,516.4300000760704,true,high,NA,NA,NA,NA,NA,NA,NA,false
BHYmdRSe,33cla8o0nlo9ukh858i8v1jgjoffrm,3v5q80fxi14zx8ioxp77i4i2nv132f,BHYmdRSe,2020-0188,2020-05-08,09:47:30,10:04:16,NA,incomplete,212,color,0,right,Purple_Star_Dots_2.jpg,Blue_Star_Chess_3.jpg,Purple_Circle_Grid_4.jpg,right,575.3550000954419,true,high,NA,NA,NA,NA,NA,NA,NA,false
BHYmdRSe,33cla8o0nlo9ukh858i8v1jgjoffrm,3v5q80fxi14zx8ioxp77i4i2nv132f,BHYmdRSe,2020-0188,2020-05-08,09:47:30,10:04:16,NA,incomplete,213,color,1,right,Purple_Triangle_Grid_4.jpg,Red_Triangle_Dots_2.jpg,Purple_Circle_Stripes_3.jpg,right,513.6949999723583,true,high,NA,NA,NA,NA,NA,NA,NA,false
BHYmdRSe,33cla8o0nlo9ukh858i8v1jgjoffrm,3v5q80fxi14zx8ioxp77i4i2nv132f,BHYmdRSe,2020-0188,2020-05-08,09:47:30,10:04:16,NA,incomplete,214,color,1,right,Red_Star_Grid_1.jpg,Green_Star_Stripes_2.jpg,Red_Triangle_Chess_4.jpg,right,578.6650001537055,true,high,NA,NA,NA,NA,NA,NA,NA,false
BHYmdRSe,33cla8o0nlo9ukh858i8v1jgjoffrm,3v5q80fxi14zx8ioxp77i4i2nv132f,BHYmdRSe,2020-0188,2020-05-08,09:47:30,10:04:16,NA,incomplete,215,color,1,left,Red_Circle_Grid_3.jpg,Red_Triangle_Chess_4.jpg,Purple_Circle_Dots_1.jpg,left,487.0200001168996,true,high,NA,NA,NA,NA,NA,NA,NA,false
BHYmdRSe,33cla8o0nlo9ukh858i8v1jgjoffrm,3v5q80fxi14zx8ioxp77i4i2nv132f,BHYmdRSe,2020-0188,2020-05-08,09:47:30,10:04:16,NA,incomplete,216,color,1,right,Green_Star_Chess_3.jpg,Red_Star_Grid_2.jpg,Green_Circle_Dots_4.jpg,right,500.7549999281764,true,high,NA,NA,NA,NA,NA,NA,NA,false
BHYmdRSe,33cla8o0nlo9ukh858i8v1jgjoffrm,3v5q80fxi14zx8ioxp77i4i2nv132f,BHYmdRSe,2020-0188,2020-05-08,09:47:30,10:04:16,NA,incomplete,217,color,0,right,Blue_Circle_Stripes_1.jpg,Red_Circle_Grid_3.jpg,Blue_Plus_Dots_4.jpg,right,505.9750000946224,true,high,NA,NA,NA,NA,NA,NA,NA,false
BHYmdRSe,33cla8o0nlo9ukh858i8v1jgjoffrm,3v5q80fxi14zx8ioxp77i4i2nv132f,BHYmdRSe,2020-0188,2020-05-08,09:47:30,10:04:16,NA,incomplete,218,color,1,right,Red_Plus_Chess_4.jpg,Purple_Plus_Dots_1.jpg,Red_Star_Grid_3.jpg,left,722.014999948442,false,high,NA,NA,NA,NA,NA,NA,NA,false
BHYmdRSe,33cla8o0nlo9ukh858i8v1jgjoffrm,3v5q80fxi14zx8ioxp77i4i2nv132f,BHYmdRSe,2020-0188,2020-05-08,09:47:30,10:04:16,NA,incomplete,219,color,1,right,Purple_Triangle_Chess_2.jpg,Red_Triangle_Grid_3.jpg,Purple_Star_Stripes_4.jpg,right,567.9949999321252,true,high,NA,NA,NA,NA,NA,NA,NA,false
BHYmdRSe,33cla8o0nlo9ukh858i8v1jgjoffrm,3v5q80fxi14zx8ioxp77i4i2nv132f,BHYmdRSe,2020-0188,2020-05-08,09:47:30,10:04:16,NA,incomplete,220,shape,1,right,Blue_Triangle_Dots_1.jpg,Blue_Plus_Stripes_4.jpg,Red_Triangle_Grid_3.jpg,left,532.8750000335276,false,high,NA,NA,NA,NA,NA,NA,NA,false
BHYmdRSe,33cla8o0nlo9ukh858i8v1jgjoffrm,3v5q80fxi14zx8ioxp77i4i2nv132f,BHYmdRSe,2020-0188,2020-05-08,09:47:30,10:04:16,NA,incomplete,221,shape,1,right,Purple_Triangle_Chess_3.jpg,Purple_Star_Grid_1.jpg,Blue_Triangle_Stripes_2.jpg,left,587.0250000152737,false,high,NA,NA,NA,NA,NA,NA,NA,false
BHYmdRSe,33cla8o0nlo9ukh858i8v1jgjoffrm,3v5q80fxi14zx8ioxp77i4i2nv132f,BHYmdRSe,2020-0188,2020-05-08,09:47:30,10:04:16,NA,incomplete,222,shape,0,left,Red_Star_Grid_1.jpg,Green_Star_Chess_3.jpg,Red_Plus_Stripes_2.jpg,left,771.1799999233335,true,high,NA,NA,NA,NA,NA,NA,NA,false
BHYmdRSe,33cla8o0nlo9ukh858i8v1jgjoffrm,3v5q80fxi14zx8ioxp77i4i2nv132f,BHYmdRSe,2020-0188,2020-05-08,09:47:30,10:04:16,NA,incomplete,223,shape,1,right,Purple_Circle_Grid_3.jpg,Purple_Plus_Chess_2.jpg,Green_Circle_Stripes_1.jpg,right,849.3600001093,true,high,NA,NA,NA,NA,NA,NA,NA,false
BHYmdRSe,33cla8o0nlo9ukh858i8v1jgjoffrm,3v5q80fxi14zx8ioxp77i4i2nv132f,BHYmdRSe,2020-0188,2020-05-08,09:47:30,10:04:16,NA,incomplete,224,shape,1,right,Purple_Plus_Grid_4.jpg,Purple_Circle_Dots_1.jpg,Blue_Plus_Stripes_3.jpg,right,715.6850001774728,true,high,NA,NA,NA,NA,NA,NA,NA,false
BHYmdRSe,33cla8o0nlo9ukh858i8v1jgjoffrm,3v5q80fxi14zx8ioxp77i4i2nv132f,BHYmdRSe,2020-0188,2020-05-08,09:47:30,10:04:16,NA,incomplete,225,shape,1,left,Green_Star_Dots_4.jpg,Blue_Star_Chess_2.jpg,Green_Circle_Grid_3.jpg,left,755.1150000654161,true,high,NA,NA,NA,NA,NA,NA,NA,false
BHYmdRSe,33cla8o0nlo9ukh858i8v1jgjoffrm,3v5q80fxi14zx8ioxp77i4i2nv132f,BHYmdRSe,2020-0188,2020-05-08,09:47:30,10:04:16,NA,incomplete,226,shape,1,left,Blue_Circle_Grid_2.jpg,Green_Circle_Stripes_4.jpg,Blue_Triangle_Chess_1.jpg,left,772.2599999979138,true,high,NA,NA,NA,NA,NA,NA,NA,false
BHYmdRSe,33cla8o0nlo9ukh858i8v1jgjoffrm,3v5q80fxi14zx8ioxp77i4i2nv132f,BHYmdRSe,2020-0188,2020-05-08,09:47:30,10:04:16,NA,incomplete,227,shape,1,left,Purple_Triangle_Stripes_3.jpg,Red_Triangle_Chess_2.jpg,Purple_Circle_Grid_1.jpg,left,665.6649999786168,true,high,NA,NA,NA,NA,NA,NA,NA,false
BHYmdRSe,33cla8o0nlo9ukh858i8v1jgjoffrm,3v5q80fxi14zx8ioxp77i4i2nv132f,BHYmdRSe,2020-0188,2020-05-08,09:47:30,10:04:16,NA,incomplete,228,shape,0,right,Blue_Star_Stripes_1.jpg,Blue_Plus_Chess_4.jpg,Green_Star_Grid_2.jpg,right,910.8100000303239,true,high,NA,NA,NA,NA,NA,NA,NA,false
BHYmdRSe,33cla8o0nlo9ukh858i8v1jgjoffrm,3v5q80fxi14zx8ioxp77i4i2nv132f,BHYmdRSe,2020-0188,2020-05-08,09:47:30,10:04:16,NA,incomplete,229,shape,1,left,Green_Triangle_Stripes_4.jpg,Blue_Triangle_Grid_2.jpg,Green_Star_Dots_1.jpg,left,704.5400000642985,true,high,NA,NA,NA,NA,NA,NA,NA,false
BHYmdRSe,33cla8o0nlo9ukh858i8v1jgjoffrm,3v5q80fxi14zx8ioxp77i4i2nv132f,BHYmdRSe,2020-0188,2020-05-08,09:47:30,10:04:16,NA,incomplete,230,shape,1,right,Blue_Circle_Chess_1.jpg,Blue_Star_Grid_2.jpg,Red_Circle_Dots_3.jpg,right,681.3749999273568,true,high,NA,NA,NA,NA,NA,NA,NA,false
BHYmdRSe,33cla8o0nlo9ukh858i8v1jgjoffrm,3v5q80fxi14zx8ioxp77i4i2nv132f,BHYmdRSe,2020-0188,2020-05-08,09:47:30,10:04:16,NA,incomplete,231,shape,0,right,Red_Triangle_Grid_4.jpg,Red_Plus_Dots_3.jpg,Purple_Triangle_Stripes_2.jpg,right,999.3999998550862,true,high,NA,NA,NA,NA,NA,NA,NA,false
BHYmdRSe,33cla8o0nlo9ukh858i8v1jgjoffrm,3v5q80fxi14zx8ioxp77i4i2nv132f,BHYmdRSe,2020-0188,2020-05-08,09:47:30,10:04:16,NA,incomplete,232,shape,1,right,Green_Circle_Grid_3.jpg,Green_Plus_Chess_1.jpg,Blue_Circle_Dots_4.jpg,right,828.1350000761449,true,high,NA,NA,NA,NA,NA,NA,NA,false
BHYmdRSe,33cla8o0nlo9ukh858i8v1jgjoffrm,3v5q80fxi14zx8ioxp77i4i2nv132f,BHYmdRSe,2020-0188,2020-05-08,09:47:30,10:04:16,NA,incomplete,233,shape,0,right,Green_Star_Chess_1.jpg,Green_Triangle_Grid_3.jpg,Blue_Star_Dots_4.jpg,right,677.0449997857213,true,high,NA,NA,NA,NA,NA,NA,NA,false
BHYmdRSe,33cla8o0nlo9ukh858i8v1jgjoffrm,3v5q80fxi14zx8ioxp77i4i2nv132f,BHYmdRSe,2020-0188,2020-05-08,09:47:30,10:04:16,NA,incomplete,234,shape,1,right,Purple_Circle_Grid_1.jpg,Purple_Star_Stripes_3.jpg,Blue_Circle_Dots_4.jpg,left,622.9900000616908,false,high,NA,NA,NA,NA,NA,NA,NA,false
BHYmdRSe,33cla8o0nlo9ukh858i8v1jgjoffrm,3v5q80fxi14zx8ioxp77i4i2nv132f,BHYmdRSe,2020-0188,2020-05-08,09:47:30,10:04:16,NA,incomplete,235,shape,1,left,Blue_Triangle_Dots_4.jpg,Green_Triangle_Grid_2.jpg,Blue_Plus_Stripes_1.jpg,left,965.2400000486523,true,high,NA,NA,NA,NA,NA,NA,NA,false
BHYmdRSe,33cla8o0nlo9ukh858i8v1jgjoffrm,3v5q80fxi14zx8ioxp77i4i2nv132f,BHYmdRSe,2020-0188,2020-05-08,09:47:30,10:04:16,NA,incomplete,236,shape,0,right,Purple_Plus_Grid_2.jpg,Purple_Star_Chess_4.jpg,Green_Plus_Dots_1.jpg,right,1052.0749997813255,true,high,NA,NA,NA,NA,NA,NA,NA,false
BHYmdRSe,33cla8o0nlo9ukh858i8v1jgjoffrm,3v5q80fxi14zx8ioxp77i4i2nv132f,BHYmdRSe,2020-0188,2020-05-08,09:47:30,10:04:16,NA,incomplete,237,shape,1,left,Purple_Triangle_Grid_1.jpg,Green_Triangle_Chess_3.jpg,Purple_Plus_Dots_2.jpg,right,487.99500009045005,false,high,NA,NA,NA,NA,NA,NA,NA,false
BHYmdRSe,33cla8o0nlo9ukh858i8v1jgjoffrm,3v5q80fxi14zx8ioxp77i4i2nv132f,BHYmdRSe,2020-0188,2020-05-08,09:47:30,10:04:16,NA,incomplete,238,shape,1,right,Red_Circle_Stripes_4.jpg,Red_Triangle_Chess_1.jpg,Blue_Circle_Dots_2.jpg,left,1024.2099999450147,false,high,NA,NA,NA,NA,NA,NA,NA,false
BHYmdRSe,33cla8o0nlo9ukh858i8v1jgjoffrm,3v5q80fxi14zx8ioxp77i4i2nv132f,BHYmdRSe,2020-0188,2020-05-08,09:47:30,10:04:16,NA,incomplete,239,shape,1,right,Green_Circle_Dots_1.jpg,Green_Plus_Grid_2.jpg,Blue_Circle_Stripes_4.jpg,right,770.9949999116361,true,high,NA,NA,NA,NA,NA,NA,NA,false
BHYmdRSe,33cla8o0nlo9ukh858i8v1jgjoffrm,3v5q80fxi14zx8ioxp77i4i2nv132f,BHYmdRSe,2020-0188,2020-05-08,09:47:30,10:04:16,979518.1400000583,1006382.3300001677,NA,NA,NA,NA,NA,NA,NA,NA,NA,NA,NA,48,White/Caucasian,Male,Caucaissian,no,yes,no,undefined
