workerId,hitId,assignmentId,subject,studyid,exp_date,exp_start,exp_end,time_start,time_end,trial,type,reward_validity,answer,image_top,image_left,image_right,response,response_time,response_acc,volatility,practice
1YuWzNFr,3r6rzgk0yip7nifkjif6ljfzh9ayv2,3vd82fohku11hf3cdgg5ikp0wq2coe,1YuWzNFr,2020-0188,2020-11-21,18:03:17,18:25:43,NA,incomplete,0,color,0,left,Blue_Plus_Dots_2.jpg,Blue_Star_Grid_3.jpg,Red_Circle_Dots_4.jpg,left,789.6249999757856,true,NA,true
1YuWzNFr,3r6rzgk0yip7nifkjif6ljfzh9ayv2,3vd82fohku11hf3cdgg5ikp0wq2coe,1YuWzNFr,2020-0188,2020-11-21,18:03:17,18:25:43,NA,incomplete,1,color,1,right,Green_Triangle_Grid_3.jpg,Purple_Star_Grid_2.jpg,Green_Plus_Dots_1.jpg,right,467.81499998178333,true,NA,true
1YuWzNFr,3r6rzgk0yip7nifkjif6ljfzh9ayv2,3vd82fohku11hf3cdgg5ikp0wq2coe,1YuWzNFr,2020-0188,2020-11-21,18:03:17,18:25:43,NA,incomplete,2,color,1,left,Red_Star_Grid_4.jpg,Red_Circle_Chess_3.jpg,Blue_Triangle_Grid_2.jpg,left,514.214999973774,true,NA,true
1YuWzNFr,3r6rzgk0yip7nifkjif6ljfzh9ayv2,3vd82fohku11hf3cdgg5ikp0wq2coe,1YuWzNFr,2020-0188,2020-11-21,18:03:17,18:25:43,NA,incomplete,3,color,1,right,Green_Plus_Grid_4.jpg,Red_Triangle_Grid_1.jpg,Green_Star_Dots_3.jpg,right,488.9899999834597,true,NA,true
1YuWzNFr,3r6rzgk0yip7nifkjif6ljfzh9ayv2,3vd82fohku11hf3cdgg5ikp0wq2coe,1YuWzNFr,2020-0188,2020-11-21,18:03:17,18:25:43,NA,incomplete,4,color,1,right,Green_Plus_Stripes_2.jpg,Red_Circle_Stripes_3.jpg,Green_Triangle_Dots_1.jpg,right,621.6550000244752,true,NA,true
1YuWzNFr,3r6rzgk0yip7nifkjif6ljfzh9ayv2,3vd82fohku11hf3cdgg5ikp0wq2coe,1YuWzNFr,2020-0188,2020-11-21,18:03:17,18:25:43,NA,incomplete,5,color,1,left,Purple_Star_Chess_4.jpg,Purple_Circle_Grid_2.jpg,Blue_Triangle_Chess_1.jpg,left,476.18999995756894,true,NA,true
1YuWzNFr,3r6rzgk0yip7nifkjif6ljfzh9ayv2,3vd82fohku11hf3cdgg5ikp0wq2coe,1YuWzNFr,2020-0188,2020-11-21,18:03:17,18:25:43,NA,incomplete,6,color,0,right,Red_Star_Dots_3.jpg,Blue_Plus_Dots_1.jpg,Red_Triangle_Chess_2.jpg,right,473.4800000442192,true,NA,true
1YuWzNFr,3r6rzgk0yip7nifkjif6ljfzh9ayv2,3vd82fohku11hf3cdgg5ikp0wq2coe,1YuWzNFr,2020-0188,2020-11-21,18:03:17,18:25:43,NA,incomplete,7,color,1,left,Red_Plus_Grid_1.jpg,Red_Circle_Stripes_3.jpg,Green_Triangle_Grid_2.jpg,left,473.55999995488673,true,NA,true
1YuWzNFr,3r6rzgk0yip7nifkjif6ljfzh9ayv2,3vd82fohku11hf3cdgg5ikp0wq2coe,1YuWzNFr,2020-0188,2020-11-21,18:03:17,18:25:43,NA,incomplete,8,color,1,left,Blue_Plus_Grid_3.jpg,Blue_Triangle_Dots_2.jpg,Purple_Star_Grid_4.jpg,left,555.5999999633059,true,NA,true
1YuWzNFr,3r6rzgk0yip7nifkjif6ljfzh9ayv2,3vd82fohku11hf3cdgg5ikp0wq2coe,1YuWzNFr,2020-0188,2020-11-21,18:03:17,18:25:43,NA,incomplete,9,color,1,right,Red_Plus_Grid_1.jpg,Green_Circle_Grid_2.jpg,Red_Star_Dots_4.jpg,right,446.5199999976903,true,NA,true
1YuWzNFr,3r6rzgk0yip7nifkjif6ljfzh9ayv2,3vd82fohku11hf3cdgg5ikp0wq2coe,1YuWzNFr,2020-0188,2020-11-21,18:03:17,18:25:43,NA,incomplete,10,color,0,left,Red_Triangle_Dots_3.jpg,Red_Circle_Grid_4.jpg,Purple_Plus_Dots_1.jpg,left,514.4200000213459,true,NA,true
1YuWzNFr,3r6rzgk0yip7nifkjif6ljfzh9ayv2,3vd82fohku11hf3cdgg5ikp0wq2coe,1YuWzNFr,2020-0188,2020-11-21,18:03:17,18:25:43,NA,incomplete,11,color,0,left,Blue_Triangle_Dots_1.jpg,Blue_Star_Chess_4.jpg,Purple_Plus_Dots_3.jpg,left,611.4950000774115,true,NA,true
1YuWzNFr,3r6rzgk0yip7nifkjif6ljfzh9ayv2,3vd82fohku11hf3cdgg5ikp0wq2coe,1YuWzNFr,2020-0188,2020-11-21,18:03:17,18:25:43,NA,incomplete,12,color,1,right,Green_Star_Chess_3.jpg,Purple_Circle_Chess_4.jpg,Green_Plus_Stripes_1.jpg,right,503.1749999616295,true,NA,true
1YuWzNFr,3r6rzgk0yip7nifkjif6ljfzh9ayv2,3vd82fohku11hf3cdgg5ikp0wq2coe,1YuWzNFr,2020-0188,2020-11-21,18:03:17,18:25:43,NA,incomplete,13,color,1,right,Purple_Plus_Dots_1.jpg,Green_Triangle_Dots_2.jpg,Purple_Circle_Grid_4.jpg,right,508.68999992962927,true,NA,true
1YuWzNFr,3r6rzgk0yip7nifkjif6ljfzh9ayv2,3vd82fohku11hf3cdgg5ikp0wq2coe,1YuWzNFr,2020-0188,2020-11-21,18:03:17,18:25:43,NA,incomplete,14,color,1,left,Purple_Plus_Dots_3.jpg,Purple_Circle_Stripes_4.jpg,Green_Star_Dots_2.jpg,left,493.49999998230487,true,NA,true
1YuWzNFr,3r6rzgk0yip7nifkjif6ljfzh9ayv2,3vd82fohku11hf3cdgg5ikp0wq2coe,1YuWzNFr,2020-0188,2020-11-21,18:03:17,18:25:43,NA,incomplete,15,color,0,right,Blue_Star_Chess_1.jpg,Purple_Circle_Chess_3.jpg,Blue_Plus_Stripes_4.jpg,right,501.54500000644475,true,NA,true
1YuWzNFr,3r6rzgk0yip7nifkjif6ljfzh9ayv2,3vd82fohku11hf3cdgg5ikp0wq2coe,1YuWzNFr,2020-0188,2020-11-21,18:03:17,18:25:43,NA,incomplete,16,color,1,left,Red_Circle_Chess_4.jpg,Red_Star_Grid_1.jpg,Blue_Plus_Chess_2.jpg,left,554.9100000644103,true,NA,true
1YuWzNFr,3r6rzgk0yip7nifkjif6ljfzh9ayv2,3vd82fohku11hf3cdgg5ikp0wq2coe,1YuWzNFr,2020-0188,2020-11-21,18:03:17,18:25:43,NA,incomplete,17,color,1,left,Blue_Triangle_Grid_2.jpg,Blue_Plus_Stripes_4.jpg,Purple_Star_Grid_1.jpg,left,421.77000001538545,true,NA,true
1YuWzNFr,3r6rzgk0yip7nifkjif6ljfzh9ayv2,3vd82fohku11hf3cdgg5ikp0wq2coe,1YuWzNFr,2020-0188,2020-11-21,18:03:17,18:25:43,NA,incomplete,18,color,1,left,Red_Plus_Chess_4.jpg,Red_Triangle_Grid_3.jpg,Blue_Star_Chess_1.jpg,left,489.19499991461635,true,NA,true
1YuWzNFr,3r6rzgk0yip7nifkjif6ljfzh9ayv2,3vd82fohku11hf3cdgg5ikp0wq2coe,1YuWzNFr,2020-0188,2020-11-21,18:03:17,18:25:43,NA,incomplete,19,color,1,left,Purple_Plus_Stripes_4.jpg,Purple_Star_Grid_1.jpg,Green_Circle_Stripes_2.jpg,left,678.8749999832362,true,NA,true
1YuWzNFr,3r6rzgk0yip7nifkjif6ljfzh9ayv2,3vd82fohku11hf3cdgg5ikp0wq2coe,1YuWzNFr,2020-0188,2020-11-21,18:03:17,18:25:43,NA,incomplete,20,filling,1,left,Red_Triangle_Dots_4.jpg,Purple_Circle_Dots_1.jpg,Red_Plus_Chess_2.jpg,left,973.0250000720844,true,NA,true
1YuWzNFr,3r6rzgk0yip7nifkjif6ljfzh9ayv2,3vd82fohku11hf3cdgg5ikp0wq2coe,1YuWzNFr,2020-0188,2020-11-21,18:03:17,18:25:43,NA,incomplete,21,filling,1,right,Red_Circle_Grid_3.jpg,Red_Plus_Dots_4.jpg,Purple_Triangle_Grid_2.jpg,right,1022.1250000176951,true,NA,true
1YuWzNFr,3r6rzgk0yip7nifkjif6ljfzh9ayv2,3vd82fohku11hf3cdgg5ikp0wq2coe,1YuWzNFr,2020-0188,2020-11-21,18:03:17,18:25:43,NA,incomplete,22,filling,0,left,Purple_Circle_Chess_1.jpg,Green_Star_Chess_3.jpg,Purple_Plus_Grid_2.jpg,right,1074.5600000955164,false,NA,true
1YuWzNFr,3r6rzgk0yip7nifkjif6ljfzh9ayv2,3vd82fohku11hf3cdgg5ikp0wq2coe,1YuWzNFr,2020-0188,2020-11-21,18:03:17,18:25:43,NA,incomplete,23,filling,1,left,Red_Star_Stripes_1.jpg,Green_Circle_Stripes_4.jpg,Red_Plus_Grid_3.jpg,left,795.0599999167025,true,NA,true
1YuWzNFr,3r6rzgk0yip7nifkjif6ljfzh9ayv2,3vd82fohku11hf3cdgg5ikp0wq2coe,1YuWzNFr,2020-0188,2020-11-21,18:03:17,18:25:43,NA,incomplete,24,filling,1,right,Red_Plus_Stripes_1.jpg,Red_Triangle_Dots_3.jpg,Blue_Star_Stripes_4.jpg,right,859.0649999678135,true,NA,true
1YuWzNFr,3r6rzgk0yip7nifkjif6ljfzh9ayv2,3vd82fohku11hf3cdgg5ikp0wq2coe,1YuWzNFr,2020-0188,2020-11-21,18:03:17,18:25:43,NA,incomplete,25,filling,1,right,Purple_Circle_Chess_3.jpg,Purple_Star_Dots_2.jpg,Blue_Plus_Chess_1.jpg,right,752.0350000122562,true,NA,true
1YuWzNFr,3r6rzgk0yip7nifkjif6ljfzh9ayv2,3vd82fohku11hf3cdgg5ikp0wq2coe,1YuWzNFr,2020-0188,2020-11-21,18:03:17,18:25:43,NA,incomplete,26,filling,1,right,Purple_Triangle_Stripes_1.jpg,Purple_Star_Chess_3.jpg,Red_Plus_Stripes_4.jpg,right,890.8050000900403,true,NA,true
1YuWzNFr,3r6rzgk0yip7nifkjif6ljfzh9ayv2,3vd82fohku11hf3cdgg5ikp0wq2coe,1YuWzNFr,2020-0188,2020-11-21,18:03:17,18:25:43,NA,incomplete,27,filling,0,left,Red_Circle_Chess_4.jpg,Purple_Plus_Chess_1.jpg,Red_Star_Grid_3.jpg,left,838.3299999404699,true,NA,true
1YuWzNFr,3r6rzgk0yip7nifkjif6ljfzh9ayv2,3vd82fohku11hf3cdgg5ikp0wq2coe,1YuWzNFr,2020-0188,2020-11-21,18:03:17,18:25:43,NA,incomplete,28,filling,1,right,Purple_Plus_Chess_2.jpg,Purple_Triangle_Dots_3.jpg,Green_Star_Chess_1.jpg,right,827.7300000190735,true,NA,true
1YuWzNFr,3r6rzgk0yip7nifkjif6ljfzh9ayv2,3vd82fohku11hf3cdgg5ikp0wq2coe,1YuWzNFr,2020-0188,2020-11-21,18:03:17,18:25:43,NA,incomplete,29,filling,1,left,Green_Circle_Dots_3.jpg,Blue_Triangle_Dots_4.jpg,Green_Plus_Chess_1.jpg,left,962.2650000965223,true,NA,true
1YuWzNFr,3r6rzgk0yip7nifkjif6ljfzh9ayv2,3vd82fohku11hf3cdgg5ikp0wq2coe,1YuWzNFr,2020-0188,2020-11-21,18:03:17,18:25:43,NA,incomplete,30,filling,1,left,Purple_Star_Stripes_1.jpg,Green_Circle_Stripes_3.jpg,Purple_Plus_Dots_4.jpg,left,870.9449999732897,true,NA,true
1YuWzNFr,3r6rzgk0yip7nifkjif6ljfzh9ayv2,3vd82fohku11hf3cdgg5ikp0wq2coe,1YuWzNFr,2020-0188,2020-11-21,18:03:17,18:25:43,NA,incomplete,31,filling,0,right,Red_Triangle_Dots_1.jpg,Red_Plus_Chess_2.jpg,Purple_Circle_Dots_3.jpg,right,705.0799999851733,true,NA,true
1YuWzNFr,3r6rzgk0yip7nifkjif6ljfzh9ayv2,3vd82fohku11hf3cdgg5ikp0wq2coe,1YuWzNFr,2020-0188,2020-11-21,18:03:17,18:25:43,NA,incomplete,32,filling,1,left,Purple_Triangle_Dots_4.jpg,Red_Plus_Dots_1.jpg,Purple_Circle_Stripes_2.jpg,left,919.5299999555573,true,NA,true
1YuWzNFr,3r6rzgk0yip7nifkjif6ljfzh9ayv2,3vd82fohku11hf3cdgg5ikp0wq2coe,1YuWzNFr,2020-0188,2020-11-21,18:03:17,18:25:43,NA,incomplete,33,filling,1,left,Blue_Circle_Stripes_3.jpg,Red_Triangle_Stripes_4.jpg,Blue_Plus_Chess_1.jpg,left,910.5950000230223,true,NA,true
1YuWzNFr,3r6rzgk0yip7nifkjif6ljfzh9ayv2,3vd82fohku11hf3cdgg5ikp0wq2coe,1YuWzNFr,2020-0188,2020-11-21,18:03:17,18:25:43,NA,incomplete,34,filling,1,left,Purple_Star_Grid_2.jpg,Red_Circle_Grid_3.jpg,Purple_Plus_Stripes_1.jpg,right,859.5999999670312,false,NA,true
1YuWzNFr,3r6rzgk0yip7nifkjif6ljfzh9ayv2,3vd82fohku11hf3cdgg5ikp0wq2coe,1YuWzNFr,2020-0188,2020-11-21,18:03:17,18:25:43,NA,incomplete,35,filling,1,left,Red_Plus_Chess_4.jpg,Blue_Circle_Chess_3.jpg,Red_Star_Stripes_1.jpg,left,806.7149999551475,true,NA,true
1YuWzNFr,3r6rzgk0yip7nifkjif6ljfzh9ayv2,3vd82fohku11hf3cdgg5ikp0wq2coe,1YuWzNFr,2020-0188,2020-11-21,18:03:17,18:25:43,NA,incomplete,36,filling,1,left,Green_Star_Chess_3.jpg,Blue_Circle_Chess_1.jpg,Green_Plus_Dots_4.jpg,left,1145.835000090301,true,NA,true
1YuWzNFr,3r6rzgk0yip7nifkjif6ljfzh9ayv2,3vd82fohku11hf3cdgg5ikp0wq2coe,1YuWzNFr,2020-0188,2020-11-21,18:03:17,18:25:43,NA,incomplete,37,filling,1,right,Blue_Star_Grid_4.jpg,Blue_Triangle_Stripes_2.jpg,Red_Plus_Grid_1.jpg,right,1254.3600000208244,true,NA,true
1YuWzNFr,3r6rzgk0yip7nifkjif6ljfzh9ayv2,3vd82fohku11hf3cdgg5ikp0wq2coe,1YuWzNFr,2020-0188,2020-11-21,18:03:17,18:25:43,NA,incomplete,38,filling,1,right,Green_Plus_Grid_2.jpg,Green_Star_Chess_4.jpg,Blue_Circle_Grid_1.jpg,left,1017.2349999193102,false,NA,true
1YuWzNFr,3r6rzgk0yip7nifkjif6ljfzh9ayv2,3vd82fohku11hf3cdgg5ikp0wq2coe,1YuWzNFr,2020-0188,2020-11-21,18:03:17,18:25:43,NA,incomplete,39,filling,1,left,Green_Plus_Dots_4.jpg,Purple_Triangle_Dots_3.jpg,Green_Star_Grid_1.jpg,left,889.6399999503046,true,NA,true
1YuWzNFr,3r6rzgk0yip7nifkjif6ljfzh9ayv2,3vd82fohku11hf3cdgg5ikp0wq2coe,1YuWzNFr,2020-0188,2020-11-21,18:03:17,18:25:43,NA,incomplete,0,color,1,left,Blue_Star_Stripes_2.jpg,Blue_Triangle_Chess_3.jpg,Purple_Plus_Stripes_4.jpg,left,1249.5249999919906,true,high,false
1YuWzNFr,3r6rzgk0yip7nifkjif6ljfzh9ayv2,3vd82fohku11hf3cdgg5ikp0wq2coe,1YuWzNFr,2020-0188,2020-11-21,18:03:17,18:25:43,NA,incomplete,1,color,1,left,Blue_Plus_Dots_4.jpg,Blue_Star_Chess_2.jpg,Purple_Triangle_Dots_3.jpg,left,644.3050000816584,true,high,false
1YuWzNFr,3r6rzgk0yip7nifkjif6ljfzh9ayv2,3vd82fohku11hf3cdgg5ikp0wq2coe,1YuWzNFr,2020-0188,2020-11-21,18:03:17,18:25:43,NA,incomplete,2,color,1,right,Purple_Plus_Chess_4.jpg,Red_Triangle_Chess_1.jpg,Purple_Star_Stripes_2.jpg,right,463.080000015907,true,high,false
1YuWzNFr,3r6rzgk0yip7nifkjif6ljfzh9ayv2,3vd82fohku11hf3cdgg5ikp0wq2coe,1YuWzNFr,2020-0188,2020-11-21,18:03:17,18:25:43,NA,incomplete,3,color,1,left,Blue_Star_Dots_2.jpg,Blue_Triangle_Chess_4.jpg,Red_Circle_Dots_1.jpg,left,399.4100000709295,true,high,false
1YuWzNFr,3r6rzgk0yip7nifkjif6ljfzh9ayv2,3vd82fohku11hf3cdgg5ikp0wq2coe,1YuWzNFr,2020-0188,2020-11-21,18:03:17,18:25:43,NA,incomplete,4,color,0,right,Red_Circle_Dots_2.jpg,Purple_Triangle_Dots_1.jpg,Red_Star_Chess_3.jpg,right,435.60500000603497,true,high,false
1YuWzNFr,3r6rzgk0yip7nifkjif6ljfzh9ayv2,3vd82fohku11hf3cdgg5ikp0wq2coe,1YuWzNFr,2020-0188,2020-11-21,18:03:17,18:25:43,NA,incomplete,5,color,1,right,Green_Star_Dots_4.jpg,Blue_Plus_Dots_1.jpg,Green_Triangle_Grid_2.jpg,right,464.31499999016523,true,high,false
1YuWzNFr,3r6rzgk0yip7nifkjif6ljfzh9ayv2,3vd82fohku11hf3cdgg5ikp0wq2coe,1YuWzNFr,2020-0188,2020-11-21,18:03:17,18:25:43,NA,incomplete,6,color,1,left,Red_Triangle_Dots_1.jpg,Red_Plus_Stripes_2.jpg,Blue_Star_Dots_3.jpg,left,446.3500001002103,true,high,false
1YuWzNFr,3r6rzgk0yip7nifkjif6ljfzh9ayv2,3vd82fohku11hf3cdgg5ikp0wq2coe,1YuWzNFr,2020-0188,2020-11-21,18:03:17,18:25:43,NA,incomplete,7,color,1,right,Purple_Triangle_Dots_2.jpg,Red_Circle_Dots_1.jpg,Purple_Star_Stripes_4.jpg,right,525.6550000049174,true,high,false
1YuWzNFr,3r6rzgk0yip7nifkjif6ljfzh9ayv2,3vd82fohku11hf3cdgg5ikp0wq2coe,1YuWzNFr,2020-0188,2020-11-21,18:03:17,18:25:43,NA,incomplete,8,color,1,left,Purple_Star_Stripes_2.jpg,Purple_Circle_Chess_3.jpg,Blue_Triangle_Stripes_1.jpg,left,429.2350000469014,true,high,false
1YuWzNFr,3r6rzgk0yip7nifkjif6ljfzh9ayv2,3vd82fohku11hf3cdgg5ikp0wq2coe,1YuWzNFr,2020-0188,2020-11-21,18:03:17,18:25:43,NA,incomplete,9,color,1,right,Purple_Star_Dots_4.jpg,Red_Circle_Dots_2.jpg,Purple_Plus_Grid_1.jpg,right,353.35999995004386,true,high,false
1YuWzNFr,3r6rzgk0yip7nifkjif6ljfzh9ayv2,3vd82fohku11hf3cdgg5ikp0wq2coe,1YuWzNFr,2020-0188,2020-11-21,18:03:17,18:25:43,NA,incomplete,10,filling,1,right,Purple_Triangle_Chess_3.jpg,Purple_Star_Stripes_2.jpg,Blue_Circle_Chess_1.jpg,left,402.20000001136214,false,high,false
1YuWzNFr,3r6rzgk0yip7nifkjif6ljfzh9ayv2,3vd82fohku11hf3cdgg5ikp0wq2coe,1YuWzNFr,2020-0188,2020-11-21,18:03:17,18:25:43,NA,incomplete,11,filling,1,right,Blue_Plus_Dots_3.jpg,Blue_Star_Grid_2.jpg,Red_Circle_Dots_4.jpg,left,400.1949999947101,false,high,false
1YuWzNFr,3r6rzgk0yip7nifkjif6ljfzh9ayv2,3vd82fohku11hf3cdgg5ikp0wq2coe,1YuWzNFr,2020-0188,2020-11-21,18:03:17,18:25:43,NA,incomplete,12,filling,1,right,Red_Triangle_Chess_4.jpg,Red_Star_Dots_1.jpg,Green_Circle_Chess_3.jpg,right,867.1899999026209,true,high,false
1YuWzNFr,3r6rzgk0yip7nifkjif6ljfzh9ayv2,3vd82fohku11hf3cdgg5ikp0wq2coe,1YuWzNFr,2020-0188,2020-11-21,18:03:17,18:25:43,NA,incomplete,13,filling,1,left,Green_Circle_Stripes_2.jpg,Purple_Triangle_Stripes_1.jpg,Green_Plus_Dots_4.jpg,left,666.9450000626966,true,high,false
1YuWzNFr,3r6rzgk0yip7nifkjif6ljfzh9ayv2,3vd82fohku11hf3cdgg5ikp0wq2coe,1YuWzNFr,2020-0188,2020-11-21,18:03:17,18:25:43,NA,incomplete,14,filling,0,left,Green_Circle_Chess_3.jpg,Blue_Triangle_Chess_4.jpg,Green_Plus_Dots_1.jpg,left,797.4799999501556,true,high,false
1YuWzNFr,3r6rzgk0yip7nifkjif6ljfzh9ayv2,3vd82fohku11hf3cdgg5ikp0wq2coe,1YuWzNFr,2020-0188,2020-11-21,18:03:17,18:25:43,NA,incomplete,15,filling,1,right,Purple_Star_Stripes_3.jpg,Purple_Circle_Chess_1.jpg,Green_Triangle_Stripes_4.jpg,right,1053.2200000016019,true,high,false
1YuWzNFr,3r6rzgk0yip7nifkjif6ljfzh9ayv2,3vd82fohku11hf3cdgg5ikp0wq2coe,1YuWzNFr,2020-0188,2020-11-21,18:03:17,18:25:43,NA,incomplete,16,filling,0,right,Purple_Circle_Chess_3.jpg,Purple_Star_Dots_2.jpg,Green_Plus_Chess_4.jpg,right,1056.1649999581277,true,high,false
1YuWzNFr,3r6rzgk0yip7nifkjif6ljfzh9ayv2,3vd82fohku11hf3cdgg5ikp0wq2coe,1YuWzNFr,2020-0188,2020-11-21,18:03:17,18:25:43,NA,incomplete,17,filling,1,left,Purple_Plus_Chess_1.jpg,Green_Triangle_Chess_2.jpg,Purple_Star_Dots_4.jpg,right,740.2349999174476,false,high,false
1YuWzNFr,3r6rzgk0yip7nifkjif6ljfzh9ayv2,3vd82fohku11hf3cdgg5ikp0wq2coe,1YuWzNFr,2020-0188,2020-11-21,18:03:17,18:25:43,NA,incomplete,18,filling,1,left,Purple_Triangle_Grid_1.jpg,Blue_Star_Grid_3.jpg,Purple_Circle_Dots_2.jpg,left,888.3450001012534,true,high,false
1YuWzNFr,3r6rzgk0yip7nifkjif6ljfzh9ayv2,3vd82fohku11hf3cdgg5ikp0wq2coe,1YuWzNFr,2020-0188,2020-11-21,18:03:17,18:25:43,NA,incomplete,19,filling,1,left,Blue_Plus_Stripes_2.jpg,Green_Star_Stripes_1.jpg,Blue_Circle_Dots_3.jpg,left,996.9350000610575,true,high,false
1YuWzNFr,3r6rzgk0yip7nifkjif6ljfzh9ayv2,3vd82fohku11hf3cdgg5ikp0wq2coe,1YuWzNFr,2020-0188,2020-11-21,18:03:17,18:25:43,NA,incomplete,20,color,1,right,Blue_Circle_Dots_2.jpg,Purple_Star_Dots_1.jpg,Blue_Triangle_Stripes_3.jpg,left,834.5299999928102,false,high,false
1YuWzNFr,3r6rzgk0yip7nifkjif6ljfzh9ayv2,3vd82fohku11hf3cdgg5ikp0wq2coe,1YuWzNFr,2020-0188,2020-11-21,18:03:17,18:25:43,NA,incomplete,21,color,1,left,Green_Star_Dots_1.jpg,Green_Plus_Stripes_2.jpg,Red_Circle_Dots_3.jpg,left,786.8249999592081,true,high,false
1YuWzNFr,3r6rzgk0yip7nifkjif6ljfzh9ayv2,3vd82fohku11hf3cdgg5ikp0wq2coe,1YuWzNFr,2020-0188,2020-11-21,18:03:17,18:25:43,NA,incomplete,22,color,1,left,Blue_Plus_Stripes_1.jpg,Blue_Triangle_Dots_4.jpg,Purple_Star_Stripes_2.jpg,left,513.7749999994412,true,high,false
1YuWzNFr,3r6rzgk0yip7nifkjif6ljfzh9ayv2,3vd82fohku11hf3cdgg5ikp0wq2coe,1YuWzNFr,2020-0188,2020-11-21,18:03:17,18:25:43,NA,incomplete,23,color,0,right,Purple_Star_Stripes_2.jpg,Red_Triangle_Stripes_1.jpg,Purple_Circle_Chess_3.jpg,right,537.4000000301749,true,high,false
1YuWzNFr,3r6rzgk0yip7nifkjif6ljfzh9ayv2,3vd82fohku11hf3cdgg5ikp0wq2coe,1YuWzNFr,2020-0188,2020-11-21,18:03:17,18:25:43,NA,incomplete,24,color,1,right,Red_Star_Dots_4.jpg,Purple_Plus_Dots_3.jpg,Red_Circle_Grid_2.jpg,right,464.3949999008328,true,high,false
1YuWzNFr,3r6rzgk0yip7nifkjif6ljfzh9ayv2,3vd82fohku11hf3cdgg5ikp0wq2coe,1YuWzNFr,2020-0188,2020-11-21,18:03:17,18:25:43,NA,incomplete,25,color,1,left,Green_Star_Stripes_2.jpg,Green_Triangle_Grid_3.jpg,Red_Plus_Stripes_1.jpg,left,452.36500003375113,true,high,false
1YuWzNFr,3r6rzgk0yip7nifkjif6ljfzh9ayv2,3vd82fohku11hf3cdgg5ikp0wq2coe,1YuWzNFr,2020-0188,2020-11-21,18:03:17,18:25:43,NA,incomplete,26,color,1,right,Blue_Circle_Dots_1.jpg,Red_Star_Dots_3.jpg,Blue_Plus_Chess_4.jpg,right,432.4100000085309,true,high,false
1YuWzNFr,3r6rzgk0yip7nifkjif6ljfzh9ayv2,3vd82fohku11hf3cdgg5ikp0wq2coe,1YuWzNFr,2020-0188,2020-11-21,18:03:17,18:25:43,NA,incomplete,27,color,1,right,Green_Circle_Grid_3.jpg,Blue_Star_Grid_2.jpg,Green_Plus_Stripes_4.jpg,right,437.6850000116974,true,high,false
1YuWzNFr,3r6rzgk0yip7nifkjif6ljfzh9ayv2,3vd82fohku11hf3cdgg5ikp0wq2coe,1YuWzNFr,2020-0188,2020-11-21,18:03:17,18:25:43,NA,incomplete,28,color,1,right,Green_Circle_Stripes_1.jpg,Purple_Plus_Stripes_3.jpg,Green_Star_Grid_4.jpg,right,447.7050000568852,true,high,false
1YuWzNFr,3r6rzgk0yip7nifkjif6ljfzh9ayv2,3vd82fohku11hf3cdgg5ikp0wq2coe,1YuWzNFr,2020-0188,2020-11-21,18:03:17,18:25:43,NA,incomplete,29,color,0,left,Blue_Triangle_Stripes_4.jpg,Blue_Circle_Chess_1.jpg,Purple_Star_Stripes_3.jpg,left,417.1599999535829,true,high,false
1YuWzNFr,3r6rzgk0yip7nifkjif6ljfzh9ayv2,3vd82fohku11hf3cdgg5ikp0wq2coe,1YuWzNFr,2020-0188,2020-11-21,18:03:17,18:25:43,NA,incomplete,30,filling,1,right,Red_Circle_Stripes_1.jpg,Red_Triangle_Dots_3.jpg,Purple_Plus_Stripes_2.jpg,left,477.74000000208616,false,high,false
1YuWzNFr,3r6rzgk0yip7nifkjif6ljfzh9ayv2,3vd82fohku11hf3cdgg5ikp0wq2coe,1YuWzNFr,2020-0188,2020-11-21,18:03:17,18:25:43,NA,incomplete,31,filling,1,left,Red_Triangle_Grid_2.jpg,Blue_Plus_Grid_1.jpg,Red_Circle_Stripes_4.jpg,right,837.8049999009818,false,high,false
1YuWzNFr,3r6rzgk0yip7nifkjif6ljfzh9ayv2,3vd82fohku11hf3cdgg5ikp0wq2coe,1YuWzNFr,2020-0188,2020-11-21,18:03:17,18:25:43,NA,incomplete,32,filling,1,right,Purple_Plus_Grid_1.jpg,Purple_Star_Chess_3.jpg,Blue_Triangle_Grid_4.jpg,left,1076.119999983348,false,high,false
1YuWzNFr,3r6rzgk0yip7nifkjif6ljfzh9ayv2,3vd82fohku11hf3cdgg5ikp0wq2coe,1YuWzNFr,2020-0188,2020-11-21,18:03:17,18:25:43,NA,incomplete,33,filling,1,right,Red_Plus_Grid_4.jpg,Red_Star_Dots_3.jpg,Purple_Triangle_Grid_2.jpg,right,1158.8950000004843,true,high,false
1YuWzNFr,3r6rzgk0yip7nifkjif6ljfzh9ayv2,3vd82fohku11hf3cdgg5ikp0wq2coe,1YuWzNFr,2020-0188,2020-11-21,18:03:17,18:25:43,NA,incomplete,34,filling,0,left,Blue_Star_Stripes_2.jpg,Green_Plus_Stripes_1.jpg,Blue_Circle_Grid_4.jpg,left,1130.2099999738857,true,high,false
1YuWzNFr,3r6rzgk0yip7nifkjif6ljfzh9ayv2,3vd82fohku11hf3cdgg5ikp0wq2coe,1YuWzNFr,2020-0188,2020-11-21,18:03:17,18:25:43,NA,incomplete,35,filling,1,left,Red_Plus_Dots_1.jpg,Purple_Circle_Dots_4.jpg,Red_Star_Grid_3.jpg,right,685.8050000155345,false,high,false
1YuWzNFr,3r6rzgk0yip7nifkjif6ljfzh9ayv2,3vd82fohku11hf3cdgg5ikp0wq2coe,1YuWzNFr,2020-0188,2020-11-21,18:03:17,18:25:43,NA,incomplete,36,filling,1,right,Blue_Star_Dots_4.jpg,Blue_Triangle_Stripes_3.jpg,Red_Plus_Dots_1.jpg,right,1215.9899999387562,true,high,false
1YuWzNFr,3r6rzgk0yip7nifkjif6ljfzh9ayv2,3vd82fohku11hf3cdgg5ikp0wq2coe,1YuWzNFr,2020-0188,2020-11-21,18:03:17,18:25:43,NA,incomplete,37,filling,0,right,Red_Circle_Stripes_4.jpg,Red_Star_Chess_1.jpg,Green_Plus_Stripes_2.jpg,right,926.4850000618026,true,high,false
1YuWzNFr,3r6rzgk0yip7nifkjif6ljfzh9ayv2,3vd82fohku11hf3cdgg5ikp0wq2coe,1YuWzNFr,2020-0188,2020-11-21,18:03:17,18:25:43,NA,incomplete,38,filling,1,left,Purple_Circle_Chess_3.jpg,Blue_Plus_Chess_1.jpg,Purple_Star_Grid_2.jpg,right,756.8899999605492,false,high,false
1YuWzNFr,3r6rzgk0yip7nifkjif6ljfzh9ayv2,3vd82fohku11hf3cdgg5ikp0wq2coe,1YuWzNFr,2020-0188,2020-11-21,18:03:17,18:25:43,NA,incomplete,39,filling,0,right,Red_Triangle_Grid_2.jpg,Red_Plus_Dots_4.jpg,Blue_Star_Grid_1.jpg,right,1196.559999953024,true,high,false
1YuWzNFr,3r6rzgk0yip7nifkjif6ljfzh9ayv2,3vd82fohku11hf3cdgg5ikp0wq2coe,1YuWzNFr,2020-0188,2020-11-21,18:03:17,18:25:43,NA,incomplete,40,color,1,left,Red_Triangle_Chess_2.jpg,Red_Circle_Stripes_1.jpg,Green_Plus_Chess_4.jpg,left,1097.914999932982,true,high,false
1YuWzNFr,3r6rzgk0yip7nifkjif6ljfzh9ayv2,3vd82fohku11hf3cdgg5ikp0wq2coe,1YuWzNFr,2020-0188,2020-11-21,18:03:17,18:25:43,NA,incomplete,41,color,0,right,Blue_Star_Chess_3.jpg,Green_Triangle_Chess_2.jpg,Blue_Circle_Stripes_1.jpg,left,1062.1049999026582,false,high,false
1YuWzNFr,3r6rzgk0yip7nifkjif6ljfzh9ayv2,3vd82fohku11hf3cdgg5ikp0wq2coe,1YuWzNFr,2020-0188,2020-11-21,18:03:17,18:25:43,NA,incomplete,42,color,1,left,Blue_Circle_Stripes_3.jpg,Blue_Star_Grid_4.jpg,Green_Plus_Stripes_2.jpg,right,1096.0650000488386,false,high,false
1YuWzNFr,3r6rzgk0yip7nifkjif6ljfzh9ayv2,3vd82fohku11hf3cdgg5ikp0wq2coe,1YuWzNFr,2020-0188,2020-11-21,18:03:17,18:25:43,NA,incomplete,43,color,0,right,Blue_Star_Grid_2.jpg,Green_Circle_Grid_4.jpg,Blue_Triangle_Stripes_3.jpg,right,827.5249999715015,true,high,false
1YuWzNFr,3r6rzgk0yip7nifkjif6ljfzh9ayv2,3vd82fohku11hf3cdgg5ikp0wq2coe,1YuWzNFr,2020-0188,2020-11-21,18:03:17,18:25:43,NA,incomplete,44,color,0,left,Blue_Circle_Dots_2.jpg,Blue_Triangle_Chess_1.jpg,Purple_Star_Dots_4.jpg,right,972.3850000882521,false,high,false
1YuWzNFr,3r6rzgk0yip7nifkjif6ljfzh9ayv2,3vd82fohku11hf3cdgg5ikp0wq2coe,1YuWzNFr,2020-0188,2020-11-21,18:03:17,18:25:43,NA,incomplete,45,color,1,right,Green_Plus_Chess_2.jpg,Blue_Star_Chess_1.jpg,Green_Circle_Stripes_3.jpg,left,1410.7200000435114,false,high,false
1YuWzNFr,3r6rzgk0yip7nifkjif6ljfzh9ayv2,3vd82fohku11hf3cdgg5ikp0wq2coe,1YuWzNFr,2020-0188,2020-11-21,18:03:17,18:25:43,NA,incomplete,46,color,1,left,Blue_Triangle_Dots_2.jpg,Blue_Plus_Chess_4.jpg,Green_Circle_Dots_1.jpg,right,1006.3549999613315,false,high,false
1YuWzNFr,3r6rzgk0yip7nifkjif6ljfzh9ayv2,3vd82fohku11hf3cdgg5ikp0wq2coe,1YuWzNFr,2020-0188,2020-11-21,18:03:17,18:25:43,NA,incomplete,47,color,1,right,Purple_Star_Grid_3.jpg,Green_Triangle_Grid_4.jpg,Purple_Circle_Dots_2.jpg,right,832.605000003241,true,high,false
1YuWzNFr,3r6rzgk0yip7nifkjif6ljfzh9ayv2,3vd82fohku11hf3cdgg5ikp0wq2coe,1YuWzNFr,2020-0188,2020-11-21,18:03:17,18:25:43,NA,incomplete,48,color,1,right,Purple_Triangle_Chess_2.jpg,Blue_Plus_Chess_4.jpg,Purple_Circle_Stripes_3.jpg,right,739.9849999928847,true,high,false
1YuWzNFr,3r6rzgk0yip7nifkjif6ljfzh9ayv2,3vd82fohku11hf3cdgg5ikp0wq2coe,1YuWzNFr,2020-0188,2020-11-21,18:03:17,18:25:43,NA,incomplete,49,color,1,right,Purple_Star_Chess_4.jpg,Red_Circle_Chess_2.jpg,Purple_Triangle_Stripes_3.jpg,right,630.1349999848753,true,high,false
1YuWzNFr,3r6rzgk0yip7nifkjif6ljfzh9ayv2,3vd82fohku11hf3cdgg5ikp0wq2coe,1YuWzNFr,2020-0188,2020-11-21,18:03:17,18:25:43,NA,incomplete,50,filling,1,right,Green_Star_Stripes_1.jpg,Green_Plus_Grid_4.jpg,Purple_Triangle_Stripes_2.jpg,left,570.7200000761077,false,high,false
1YuWzNFr,3r6rzgk0yip7nifkjif6ljfzh9ayv2,3vd82fohku11hf3cdgg5ikp0wq2coe,1YuWzNFr,2020-0188,2020-11-21,18:03:17,18:25:43,NA,incomplete,51,filling,1,right,Blue_Circle_Grid_3.jpg,Blue_Plus_Chess_2.jpg,Green_Star_Grid_1.jpg,left,493.5950000071898,false,high,false
1YuWzNFr,3r6rzgk0yip7nifkjif6ljfzh9ayv2,3vd82fohku11hf3cdgg5ikp0wq2coe,1YuWzNFr,2020-0188,2020-11-21,18:03:17,18:25:43,NA,incomplete,52,filling,1,right,Red_Circle_Dots_3.jpg,Red_Plus_Stripes_1.jpg,Blue_Star_Dots_2.jpg,left,931.2549999449402,false,high,false
1YuWzNFr,3r6rzgk0yip7nifkjif6ljfzh9ayv2,3vd82fohku11hf3cdgg5ikp0wq2coe,1YuWzNFr,2020-0188,2020-11-21,18:03:17,18:25:43,NA,incomplete,53,filling,1,right,Red_Plus_Grid_1.jpg,Red_Triangle_Stripes_3.jpg,Purple_Star_Grid_2.jpg,right,1129.1049999417737,true,high,false
1YuWzNFr,3r6rzgk0yip7nifkjif6ljfzh9ayv2,3vd82fohku11hf3cdgg5ikp0wq2coe,1YuWzNFr,2020-0188,2020-11-21,18:03:17,18:25:43,NA,incomplete,54,filling,1,right,Purple_Star_Grid_1.jpg,Purple_Circle_Stripes_2.jpg,Red_Plus_Grid_3.jpg,right,1002.6700000744313,true,high,false
1YuWzNFr,3r6rzgk0yip7nifkjif6ljfzh9ayv2,3vd82fohku11hf3cdgg5ikp0wq2coe,1YuWzNFr,2020-0188,2020-11-21,18:03:17,18:25:43,NA,incomplete,55,filling,1,left,Purple_Circle_Grid_1.jpg,Blue_Triangle_Grid_4.jpg,Purple_Plus_Stripes_3.jpg,left,1253.5600000992417,true,high,false
1YuWzNFr,3r6rzgk0yip7nifkjif6ljfzh9ayv2,3vd82fohku11hf3cdgg5ikp0wq2coe,1YuWzNFr,2020-0188,2020-11-21,18:03:17,18:25:43,NA,incomplete,56,filling,1,right,Purple_Circle_Dots_2.jpg,Purple_Triangle_Chess_3.jpg,Green_Star_Dots_1.jpg,right,764.6199999144301,true,high,false
1YuWzNFr,3r6rzgk0yip7nifkjif6ljfzh9ayv2,3vd82fohku11hf3cdgg5ikp0wq2coe,1YuWzNFr,2020-0188,2020-11-21,18:03:17,18:25:43,NA,incomplete,57,filling,0,left,Green_Plus_Dots_4.jpg,Red_Star_Dots_2.jpg,Green_Circle_Grid_3.jpg,left,954.4299999251962,true,high,false
1YuWzNFr,3r6rzgk0yip7nifkjif6ljfzh9ayv2,3vd82fohku11hf3cdgg5ikp0wq2coe,1YuWzNFr,2020-0188,2020-11-21,18:03:17,18:25:43,NA,incomplete,58,filling,1,left,Purple_Plus_Grid_3.jpg,Green_Circle_Grid_1.jpg,Purple_Star_Chess_2.jpg,right,1074.5950000127777,false,high,false
1YuWzNFr,3r6rzgk0yip7nifkjif6ljfzh9ayv2,3vd82fohku11hf3cdgg5ikp0wq2coe,1YuWzNFr,2020-0188,2020-11-21,18:03:17,18:25:43,NA,incomplete,59,filling,1,right,Purple_Triangle_Stripes_4.jpg,Purple_Plus_Chess_1.jpg,Red_Circle_Stripes_3.jpg,right,1046.2099999422207,true,high,false
1YuWzNFr,3r6rzgk0yip7nifkjif6ljfzh9ayv2,3vd82fohku11hf3cdgg5ikp0wq2coe,1YuWzNFr,2020-0188,2020-11-21,18:03:17,18:25:43,NA,incomplete,60,color,1,left,Purple_Star_Grid_4.jpg,Purple_Plus_Stripes_3.jpg,Blue_Circle_Grid_2.jpg,right,1071.5549999149516,false,high,false
1YuWzNFr,3r6rzgk0yip7nifkjif6ljfzh9ayv2,3vd82fohku11hf3cdgg5ikp0wq2coe,1YuWzNFr,2020-0188,2020-11-21,18:03:17,18:25:43,NA,incomplete,61,color,1,right,Purple_Circle_Grid_1.jpg,Red_Star_Grid_2.jpg,Purple_Plus_Chess_3.jpg,right,906.8350000306964,true,high,false
1YuWzNFr,3r6rzgk0yip7nifkjif6ljfzh9ayv2,3vd82fohku11hf3cdgg5ikp0wq2coe,1YuWzNFr,2020-0188,2020-11-21,18:03:17,18:25:43,NA,incomplete,62,color,0,left,Purple_Triangle_Dots_3.jpg,Purple_Circle_Stripes_2.jpg,Green_Plus_Dots_4.jpg,left,691.6150000179186,true,high,false
1YuWzNFr,3r6rzgk0yip7nifkjif6ljfzh9ayv2,3vd82fohku11hf3cdgg5ikp0wq2coe,1YuWzNFr,2020-0188,2020-11-21,18:03:17,18:25:43,NA,incomplete,63,color,1,left,Green_Circle_Dots_2.jpg,Green_Star_Grid_4.jpg,Purple_Triangle_Dots_3.jpg,right,975.609999964945,false,high,false
1YuWzNFr,3r6rzgk0yip7nifkjif6ljfzh9ayv2,3vd82fohku11hf3cdgg5ikp0wq2coe,1YuWzNFr,2020-0188,2020-11-21,18:03:17,18:25:43,NA,incomplete,64,color,1,left,Purple_Circle_Stripes_1.jpg,Purple_Triangle_Dots_2.jpg,Blue_Star_Stripes_3.jpg,right,1075.3150000236928,false,high,false
1YuWzNFr,3r6rzgk0yip7nifkjif6ljfzh9ayv2,3vd82fohku11hf3cdgg5ikp0wq2coe,1YuWzNFr,2020-0188,2020-11-21,18:03:17,18:25:43,NA,incomplete,65,color,1,left,Green_Star_Chess_4.jpg,Green_Circle_Stripes_2.jpg,Red_Triangle_Chess_1.jpg,left,872.2650000127032,true,high,false
1YuWzNFr,3r6rzgk0yip7nifkjif6ljfzh9ayv2,3vd82fohku11hf3cdgg5ikp0wq2coe,1YuWzNFr,2020-0188,2020-11-21,18:03:17,18:25:43,NA,incomplete,66,color,1,left,Blue_Triangle_Stripes_1.jpg,Blue_Plus_Dots_3.jpg,Purple_Star_Stripes_4.jpg,left,1224.4749999372289,true,high,false
1YuWzNFr,3r6rzgk0yip7nifkjif6ljfzh9ayv2,3vd82fohku11hf3cdgg5ikp0wq2coe,1YuWzNFr,2020-0188,2020-11-21,18:03:17,18:25:43,NA,incomplete,67,color,0,right,Purple_Star_Chess_1.jpg,Green_Plus_Chess_4.jpg,Purple_Circle_Stripes_2.jpg,right,591.054999968037,true,high,false
1YuWzNFr,3r6rzgk0yip7nifkjif6ljfzh9ayv2,3vd82fohku11hf3cdgg5ikp0wq2coe,1YuWzNFr,2020-0188,2020-11-21,18:03:17,18:25:43,NA,incomplete,68,color,1,right,Green_Triangle_Stripes_2.jpg,Red_Star_Stripes_1.jpg,Green_Plus_Chess_3.jpg,right,564.6949999500066,true,high,false
1YuWzNFr,3r6rzgk0yip7nifkjif6ljfzh9ayv2,3vd82fohku11hf3cdgg5ikp0wq2coe,1YuWzNFr,2020-0188,2020-11-21,18:03:17,18:25:43,NA,incomplete,69,color,1,left,Red_Plus_Chess_2.jpg,Red_Triangle_Grid_1.jpg,Blue_Star_Chess_3.jpg,left,567.6349999848753,true,high,false
1YuWzNFr,3r6rzgk0yip7nifkjif6ljfzh9ayv2,3vd82fohku11hf3cdgg5ikp0wq2coe,1YuWzNFr,2020-0188,2020-11-21,18:03:17,18:25:43,NA,incomplete,70,filling,1,left,Red_Circle_Dots_4.jpg,Blue_Triangle_Dots_1.jpg,Red_Star_Stripes_3.jpg,right,545.8250000374392,false,high,false
1YuWzNFr,3r6rzgk0yip7nifkjif6ljfzh9ayv2,3vd82fohku11hf3cdgg5ikp0wq2coe,1YuWzNFr,2020-0188,2020-11-21,18:03:17,18:25:43,NA,incomplete,71,filling,1,left,Red_Plus_Stripes_3.jpg,Purple_Triangle_Stripes_2.jpg,Red_Star_Grid_1.jpg,right,573.3849999960512,false,high,false
1YuWzNFr,3r6rzgk0yip7nifkjif6ljfzh9ayv2,3vd82fohku11hf3cdgg5ikp0wq2coe,1YuWzNFr,2020-0188,2020-11-21,18:03:17,18:25:43,NA,incomplete,72,filling,1,right,Green_Plus_Grid_2.jpg,Green_Star_Chess_1.jpg,Red_Triangle_Grid_4.jpg,left,1055.5200000526384,false,high,false
1YuWzNFr,3r6rzgk0yip7nifkjif6ljfzh9ayv2,3vd82fohku11hf3cdgg5ikp0wq2coe,1YuWzNFr,2020-0188,2020-11-21,18:03:17,18:25:43,NA,incomplete,73,filling,1,right,Blue_Star_Chess_3.jpg,Blue_Plus_Stripes_2.jpg,Red_Triangle_Chess_1.jpg,right,1432.0050000678748,true,high,false
1YuWzNFr,3r6rzgk0yip7nifkjif6ljfzh9ayv2,3vd82fohku11hf3cdgg5ikp0wq2coe,1YuWzNFr,2020-0188,2020-11-21,18:03:17,18:25:43,NA,incomplete,74,filling,1,right,Blue_Circle_Stripes_2.jpg,Blue_Triangle_Grid_1.jpg,Green_Plus_Stripes_4.jpg,right,972.5899999029934,true,high,false
1YuWzNFr,3r6rzgk0yip7nifkjif6ljfzh9ayv2,3vd82fohku11hf3cdgg5ikp0wq2coe,1YuWzNFr,2020-0188,2020-11-21,18:03:17,18:25:43,NA,incomplete,75,filling,1,left,Green_Plus_Dots_2.jpg,Blue_Star_Dots_3.jpg,Green_Circle_Chess_1.jpg,left,846.1249999236315,true,high,false
1YuWzNFr,3r6rzgk0yip7nifkjif6ljfzh9ayv2,3vd82fohku11hf3cdgg5ikp0wq2coe,1YuWzNFr,2020-0188,2020-11-21,18:03:17,18:25:43,NA,incomplete,76,filling,1,right,Red_Circle_Dots_1.jpg,Red_Star_Stripes_2.jpg,Purple_Plus_Dots_4.jpg,right,1076.3349999906495,true,high,false
1YuWzNFr,3r6rzgk0yip7nifkjif6ljfzh9ayv2,3vd82fohku11hf3cdgg5ikp0wq2coe,1YuWzNFr,2020-0188,2020-11-21,18:03:17,18:25:43,NA,incomplete,77,filling,1,right,Red_Circle_Dots_4.jpg,Red_Plus_Stripes_2.jpg,Blue_Star_Dots_1.jpg,right,732.9850000096485,true,high,false
1YuWzNFr,3r6rzgk0yip7nifkjif6ljfzh9ayv2,3vd82fohku11hf3cdgg5ikp0wq2coe,1YuWzNFr,2020-0188,2020-11-21,18:03:17,18:25:43,NA,incomplete,78,filling,1,left,Green_Plus_Grid_2.jpg,Blue_Circle_Grid_1.jpg,Green_Star_Stripes_3.jpg,left,1567.3799999058247,true,high,false
1YuWzNFr,3r6rzgk0yip7nifkjif6ljfzh9ayv2,3vd82fohku11hf3cdgg5ikp0wq2coe,1YuWzNFr,2020-0188,2020-11-21,18:03:17,18:25:43,NA,incomplete,79,filling,1,right,Blue_Triangle_Dots_4.jpg,Blue_Plus_Stripes_1.jpg,Green_Circle_Dots_3.jpg,right,1008.2799999509007,true,high,false
1YuWzNFr,3r6rzgk0yip7nifkjif6ljfzh9ayv2,3vd82fohku11hf3cdgg5ikp0wq2coe,1YuWzNFr,2020-0188,2020-11-21,18:03:17,18:25:43,NA,incomplete,80,color,0,right,Red_Triangle_Dots_4.jpg,Blue_Plus_Dots_1.jpg,Red_Circle_Grid_3.jpg,left,1023.5799999209121,false,high,false
1YuWzNFr,3r6rzgk0yip7nifkjif6ljfzh9ayv2,3vd82fohku11hf3cdgg5ikp0wq2coe,1YuWzNFr,2020-0188,2020-11-21,18:03:17,18:25:43,NA,incomplete,81,color,1,left,Blue_Star_Grid_2.jpg,Blue_Circle_Stripes_1.jpg,Red_Plus_Grid_4.jpg,right,1061.4150000037625,false,high,false
1YuWzNFr,3r6rzgk0yip7nifkjif6ljfzh9ayv2,3vd82fohku11hf3cdgg5ikp0wq2coe,1YuWzNFr,2020-0188,2020-11-21,18:03:17,18:25:43,NA,incomplete,82,color,1,right,Red_Circle_Grid_1.jpg,Purple_Star_Grid_2.jpg,Red_Plus_Chess_4.jpg,right,1203.8149998988956,true,high,false
1YuWzNFr,3r6rzgk0yip7nifkjif6ljfzh9ayv2,3vd82fohku11hf3cdgg5ikp0wq2coe,1YuWzNFr,2020-0188,2020-11-21,18:03:17,18:25:43,NA,incomplete,83,color,1,left,Blue_Triangle_Stripes_1.jpg,Blue_Star_Dots_3.jpg,Red_Circle_Stripes_2.jpg,left,966.2199999438599,true,high,false
1YuWzNFr,3r6rzgk0yip7nifkjif6ljfzh9ayv2,3vd82fohku11hf3cdgg5ikp0wq2coe,1YuWzNFr,2020-0188,2020-11-21,18:03:17,18:25:43,NA,incomplete,84,color,1,right,Purple_Triangle_Dots_4.jpg,Green_Star_Dots_2.jpg,Purple_Circle_Chess_1.jpg,right,614.629999967292,true,high,false
1YuWzNFr,3r6rzgk0yip7nifkjif6ljfzh9ayv2,3vd82fohku11hf3cdgg5ikp0wq2coe,1YuWzNFr,2020-0188,2020-11-21,18:03:17,18:25:43,NA,incomplete,85,color,0,left,Red_Star_Dots_3.jpg,Red_Plus_Stripes_1.jpg,Purple_Triangle_Dots_4.jpg,left,472.2750000655651,true,high,false
1YuWzNFr,3r6rzgk0yip7nifkjif6ljfzh9ayv2,3vd82fohku11hf3cdgg5ikp0wq2coe,1YuWzNFr,2020-0188,2020-11-21,18:03:17,18:25:43,NA,incomplete,86,color,1,right,Green_Circle_Stripes_4.jpg,Blue_Triangle_Stripes_1.jpg,Green_Star_Dots_2.jpg,right,499.6050000190735,true,high,false
1YuWzNFr,3r6rzgk0yip7nifkjif6ljfzh9ayv2,3vd82fohku11hf3cdgg5ikp0wq2coe,1YuWzNFr,2020-0188,2020-11-21,18:03:17,18:25:43,NA,incomplete,87,color,1,left,Blue_Triangle_Dots_4.jpg,Blue_Circle_Stripes_1.jpg,Purple_Plus_Dots_3.jpg,left,437.47999996412545,true,high,false
1YuWzNFr,3r6rzgk0yip7nifkjif6ljfzh9ayv2,3vd82fohku11hf3cdgg5ikp0wq2coe,1YuWzNFr,2020-0188,2020-11-21,18:03:17,18:25:43,NA,incomplete,88,color,1,right,Red_Plus_Stripes_4.jpg,Green_Circle_Stripes_2.jpg,Red_Triangle_Grid_3.jpg,right,543.874999973923,true,high,false
1YuWzNFr,3r6rzgk0yip7nifkjif6ljfzh9ayv2,3vd82fohku11hf3cdgg5ikp0wq2coe,1YuWzNFr,2020-0188,2020-11-21,18:03:17,18:25:43,NA,incomplete,89,color,1,left,Purple_Triangle_Dots_2.jpg,Purple_Circle_Chess_1.jpg,Green_Plus_Dots_3.jpg,left,610.675000003539,true,high,false
1YuWzNFr,3r6rzgk0yip7nifkjif6ljfzh9ayv2,3vd82fohku11hf3cdgg5ikp0wq2coe,1YuWzNFr,2020-0188,2020-11-21,18:03:17,18:25:43,NA,incomplete,90,filling,1,left,Green_Circle_Chess_3.jpg,Purple_Triangle_Chess_2.jpg,Green_Plus_Stripes_1.jpg,right,811.3200000952929,false,high,false
1YuWzNFr,3r6rzgk0yip7nifkjif6ljfzh9ayv2,3vd82fohku11hf3cdgg5ikp0wq2coe,1YuWzNFr,2020-0188,2020-11-21,18:03:17,18:25:43,NA,incomplete,91,filling,1,left,Red_Star_Chess_1.jpg,Purple_Circle_Chess_2.jpg,Red_Plus_Stripes_4.jpg,left,1026.4050000114366,true,high,false
1YuWzNFr,3r6rzgk0yip7nifkjif6ljfzh9ayv2,3vd82fohku11hf3cdgg5ikp0wq2coe,1YuWzNFr,2020-0188,2020-11-21,18:03:17,18:25:43,NA,incomplete,92,filling,1,right,Green_Star_Grid_1.jpg,Green_Plus_Dots_4.jpg,Blue_Triangle_Grid_2.jpg,right,1079.9450000049546,true,high,false
1YuWzNFr,3r6rzgk0yip7nifkjif6ljfzh9ayv2,3vd82fohku11hf3cdgg5ikp0wq2coe,1YuWzNFr,2020-0188,2020-11-21,18:03:17,18:25:43,NA,incomplete,93,filling,1,right,Blue_Triangle_Dots_3.jpg,Blue_Circle_Chess_1.jpg,Purple_Plus_Dots_4.jpg,right,1010.7600000919774,true,high,false
1YuWzNFr,3r6rzgk0yip7nifkjif6ljfzh9ayv2,3vd82fohku11hf3cdgg5ikp0wq2coe,1YuWzNFr,2020-0188,2020-11-21,18:03:17,18:25:43,NA,incomplete,94,filling,1,right,Purple_Star_Grid_2.jpg,Purple_Triangle_Dots_3.jpg,Green_Plus_Grid_1.jpg,right,1019.109999993816,true,high,false
1YuWzNFr,3r6rzgk0yip7nifkjif6ljfzh9ayv2,3vd82fohku11hf3cdgg5ikp0wq2coe,1YuWzNFr,2020-0188,2020-11-21,18:03:17,18:25:43,NA,incomplete,95,filling,1,right,Green_Triangle_Stripes_4.jpg,Green_Plus_Chess_1.jpg,Purple_Circle_Stripes_2.jpg,left,1131.0250000096858,false,high,false
1YuWzNFr,3r6rzgk0yip7nifkjif6ljfzh9ayv2,3vd82fohku11hf3cdgg5ikp0wq2coe,1YuWzNFr,2020-0188,2020-11-21,18:03:17,18:25:43,NA,incomplete,96,filling,0,right,Green_Triangle_Grid_2.jpg,Green_Plus_Stripes_4.jpg,Purple_Star_Grid_3.jpg,right,1133.549999911338,true,high,false
1YuWzNFr,3r6rzgk0yip7nifkjif6ljfzh9ayv2,3vd82fohku11hf3cdgg5ikp0wq2coe,1YuWzNFr,2020-0188,2020-11-21,18:03:17,18:25:43,NA,incomplete,97,filling,1,right,Green_Triangle_Dots_4.jpg,Green_Star_Grid_3.jpg,Red_Plus_Dots_1.jpg,right,927.2750000236556,true,high,false
1YuWzNFr,3r6rzgk0yip7nifkjif6ljfzh9ayv2,3vd82fohku11hf3cdgg5ikp0wq2coe,1YuWzNFr,2020-0188,2020-11-21,18:03:17,18:25:43,NA,incomplete,98,filling,0,right,Green_Star_Chess_3.jpg,Green_Triangle_Grid_1.jpg,Red_Plus_Chess_2.jpg,left,1256.110000074841,false,high,false
1YuWzNFr,3r6rzgk0yip7nifkjif6ljfzh9ayv2,3vd82fohku11hf3cdgg5ikp0wq2coe,1YuWzNFr,2020-0188,2020-11-21,18:03:17,18:25:43,NA,incomplete,99,filling,1,right,Purple_Circle_Dots_3.jpg,Purple_Triangle_Grid_1.jpg,Blue_Star_Dots_4.jpg,right,842.0799999730662,true,high,false
1YuWzNFr,3r6rzgk0yip7nifkjif6ljfzh9ayv2,3vd82fohku11hf3cdgg5ikp0wq2coe,1YuWzNFr,2020-0188,2020-11-21,18:03:17,18:25:43,NA,incomplete,100,color,1,left,Red_Triangle_Stripes_2.jpg,Red_Star_Grid_4.jpg,Green_Plus_Stripes_3.jpg,right,1061.7299999576062,false,high,false
1YuWzNFr,3r6rzgk0yip7nifkjif6ljfzh9ayv2,3vd82fohku11hf3cdgg5ikp0wq2coe,1YuWzNFr,2020-0188,2020-11-21,18:03:17,18:25:43,NA,incomplete,101,color,1,left,Blue_Star_Dots_4.jpg,Blue_Circle_Grid_3.jpg,Green_Plus_Dots_1.jpg,left,617.2950000036508,true,high,false
1YuWzNFr,3r6rzgk0yip7nifkjif6ljfzh9ayv2,3vd82fohku11hf3cdgg5ikp0wq2coe,1YuWzNFr,2020-0188,2020-11-21,18:03:17,18:25:43,NA,incomplete,102,color,1,left,Red_Plus_Chess_2.jpg,Red_Triangle_Stripes_1.jpg,Green_Star_Chess_4.jpg,left,506.8400000454858,true,high,false
1YuWzNFr,3r6rzgk0yip7nifkjif6ljfzh9ayv2,3vd82fohku11hf3cdgg5ikp0wq2coe,1YuWzNFr,2020-0188,2020-11-21,18:03:17,18:25:43,NA,incomplete,103,color,1,left,Red_Circle_Grid_2.jpg,Red_Triangle_Stripes_3.jpg,Purple_Star_Grid_1.jpg,left,452.87000003736466,true,high,false
1YuWzNFr,3r6rzgk0yip7nifkjif6ljfzh9ayv2,3vd82fohku11hf3cdgg5ikp0wq2coe,1YuWzNFr,2020-0188,2020-11-21,18:03:17,18:25:43,NA,incomplete,104,color,1,left,Purple_Triangle_Stripes_2.jpg,Purple_Circle_Dots_1.jpg,Red_Plus_Stripes_3.jpg,left,633.9100000914186,true,high,false
1YuWzNFr,3r6rzgk0yip7nifkjif6ljfzh9ayv2,3vd82fohku11hf3cdgg5ikp0wq2coe,1YuWzNFr,2020-0188,2020-11-21,18:03:17,18:25:43,NA,incomplete,105,color,1,left,Blue_Star_Chess_1.jpg,Blue_Triangle_Grid_2.jpg,Green_Plus_Chess_4.jpg,left,670.7099999766797,true,high,false
1YuWzNFr,3r6rzgk0yip7nifkjif6ljfzh9ayv2,3vd82fohku11hf3cdgg5ikp0wq2coe,1YuWzNFr,2020-0188,2020-11-21,18:03:17,18:25:43,NA,incomplete,106,color,1,left,Green_Plus_Grid_4.jpg,Green_Star_Dots_1.jpg,Purple_Triangle_Grid_2.jpg,left,554.4099999824539,true,high,false
1YuWzNFr,3r6rzgk0yip7nifkjif6ljfzh9ayv2,3vd82fohku11hf3cdgg5ikp0wq2coe,1YuWzNFr,2020-0188,2020-11-21,18:03:17,18:25:43,NA,incomplete,107,color,1,right,Green_Triangle_Dots_4.jpg,Red_Star_Dots_1.jpg,Green_Circle_Stripes_2.jpg,right,517.8849999792874,true,high,false
1YuWzNFr,3r6rzgk0yip7nifkjif6ljfzh9ayv2,3vd82fohku11hf3cdgg5ikp0wq2coe,1YuWzNFr,2020-0188,2020-11-21,18:03:17,18:25:43,NA,incomplete,108,color,0,right,Purple_Plus_Chess_2.jpg,Red_Circle_Chess_1.jpg,Purple_Star_Dots_4.jpg,right,874.3399999802932,true,high,false
1YuWzNFr,3r6rzgk0yip7nifkjif6ljfzh9ayv2,3vd82fohku11hf3cdgg5ikp0wq2coe,1YuWzNFr,2020-0188,2020-11-21,18:03:17,18:25:43,NA,incomplete,109,color,0,right,Green_Star_Chess_4.jpg,Purple_Circle_Chess_3.jpg,Green_Plus_Dots_1.jpg,right,515.2600000146776,true,high,false
1YuWzNFr,3r6rzgk0yip7nifkjif6ljfzh9ayv2,3vd82fohku11hf3cdgg5ikp0wq2coe,1YuWzNFr,2020-0188,2020-11-21,18:03:17,18:25:43,NA,incomplete,110,filling,1,left,Blue_Triangle_Stripes_2.jpg,Red_Circle_Stripes_4.jpg,Blue_Plus_Chess_1.jpg,left,1001.6700000269338,true,high,false
1YuWzNFr,3r6rzgk0yip7nifkjif6ljfzh9ayv2,3vd82fohku11hf3cdgg5ikp0wq2coe,1YuWzNFr,2020-0188,2020-11-21,18:03:17,18:25:43,NA,incomplete,111,filling,1,right,Blue_Circle_Dots_1.jpg,Blue_Plus_Chess_4.jpg,Red_Triangle_Dots_2.jpg,right,753.8349999813363,true,high,false
1YuWzNFr,3r6rzgk0yip7nifkjif6ljfzh9ayv2,3vd82fohku11hf3cdgg5ikp0wq2coe,1YuWzNFr,2020-0188,2020-11-21,18:03:17,18:25:43,NA,incomplete,112,filling,1,right,Green_Triangle_Stripes_1.jpg,Green_Plus_Grid_2.jpg,Purple_Star_Stripes_3.jpg,right,977.3299999069422,true,high,false
1YuWzNFr,3r6rzgk0yip7nifkjif6ljfzh9ayv2,3vd82fohku11hf3cdgg5ikp0wq2coe,1YuWzNFr,2020-0188,2020-11-21,18:03:17,18:25:43,NA,incomplete,113,filling,1,left,Blue_Star_Dots_4.jpg,Green_Triangle_Dots_3.jpg,Blue_Plus_Stripes_2.jpg,left,977.3950000526384,true,high,false
1YuWzNFr,3r6rzgk0yip7nifkjif6ljfzh9ayv2,3vd82fohku11hf3cdgg5ikp0wq2coe,1YuWzNFr,2020-0188,2020-11-21,18:03:17,18:25:43,NA,incomplete,114,filling,1,right,Red_Plus_Dots_2.jpg,Red_Star_Stripes_4.jpg,Purple_Triangle_Dots_1.jpg,right,747.0750000793487,true,high,false
1YuWzNFr,3r6rzgk0yip7nifkjif6ljfzh9ayv2,3vd82fohku11hf3cdgg5ikp0wq2coe,1YuWzNFr,2020-0188,2020-11-21,18:03:17,18:25:43,NA,incomplete,115,filling,0,left,Red_Plus_Stripes_1.jpg,Blue_Circle_Stripes_3.jpg,Red_Triangle_Chess_4.jpg,left,1060.5950000463054,true,high,false
1YuWzNFr,3r6rzgk0yip7nifkjif6ljfzh9ayv2,3vd82fohku11hf3cdgg5ikp0wq2coe,1YuWzNFr,2020-0188,2020-11-21,18:03:17,18:25:43,NA,incomplete,116,filling,1,left,Red_Plus_Stripes_3.jpg,Green_Triangle_Stripes_2.jpg,Red_Star_Chess_1.jpg,right,629.7400000039488,false,high,false
1YuWzNFr,3r6rzgk0yip7nifkjif6ljfzh9ayv2,3vd82fohku11hf3cdgg5ikp0wq2coe,1YuWzNFr,2020-0188,2020-11-21,18:03:17,18:25:43,NA,incomplete,117,filling,0,left,Blue_Plus_Dots_2.jpg,Green_Triangle_Dots_3.jpg,Blue_Star_Stripes_4.jpg,left,884.9349999800324,true,high,false
1YuWzNFr,3r6rzgk0yip7nifkjif6ljfzh9ayv2,3vd82fohku11hf3cdgg5ikp0wq2coe,1YuWzNFr,2020-0188,2020-11-21,18:03:17,18:25:43,NA,incomplete,118,filling,0,right,Blue_Plus_Grid_1.jpg,Blue_Circle_Stripes_4.jpg,Purple_Star_Grid_2.jpg,left,772.3249999107793,false,high,false
1YuWzNFr,3r6rzgk0yip7nifkjif6ljfzh9ayv2,3vd82fohku11hf3cdgg5ikp0wq2coe,1YuWzNFr,2020-0188,2020-11-21,18:03:17,18:25:43,NA,incomplete,119,filling,0,right,Purple_Plus_Grid_3.jpg,Purple_Triangle_Dots_4.jpg,Red_Star_Grid_2.jpg,left,493.20499994792044,false,high,false
1YuWzNFr,3r6rzgk0yip7nifkjif6ljfzh9ayv2,3vd82fohku11hf3cdgg5ikp0wq2coe,1YuWzNFr,2020-0188,2020-11-21,18:03:17,18:25:43,NA,incomplete,120,color,1,right,Green_Triangle_Dots_4.jpg,Purple_Circle_Dots_2.jpg,Green_Star_Chess_3.jpg,right,586.6049999604002,true,high,false
1YuWzNFr,3r6rzgk0yip7nifkjif6ljfzh9ayv2,3vd82fohku11hf3cdgg5ikp0wq2coe,1YuWzNFr,2020-0188,2020-11-21,18:03:17,18:25:43,NA,incomplete,121,color,1,right,Red_Circle_Stripes_2.jpg,Blue_Triangle_Stripes_4.jpg,Red_Star_Dots_1.jpg,right,535.2299999212846,true,high,false
1YuWzNFr,3r6rzgk0yip7nifkjif6ljfzh9ayv2,3vd82fohku11hf3cdgg5ikp0wq2coe,1YuWzNFr,2020-0188,2020-11-21,18:03:17,18:25:43,NA,incomplete,122,color,1,right,Green_Plus_Chess_3.jpg,Purple_Circle_Chess_2.jpg,Green_Star_Dots_1.jpg,right,752.1100000012666,true,high,false
1YuWzNFr,3r6rzgk0yip7nifkjif6ljfzh9ayv2,3vd82fohku11hf3cdgg5ikp0wq2coe,1YuWzNFr,2020-0188,2020-11-21,18:03:17,18:25:43,NA,incomplete,123,color,1,left,Red_Circle_Stripes_1.jpg,Red_Triangle_Grid_2.jpg,Purple_Star_Stripes_4.jpg,left,566.7949999915436,true,high,false
1YuWzNFr,3r6rzgk0yip7nifkjif6ljfzh9ayv2,3vd82fohku11hf3cdgg5ikp0wq2coe,1YuWzNFr,2020-0188,2020-11-21,18:03:17,18:25:43,NA,incomplete,124,color,1,left,Red_Plus_Dots_3.jpg,Red_Circle_Chess_4.jpg,Blue_Triangle_Dots_1.jpg,left,675.0250000040978,true,high,false
1YuWzNFr,3r6rzgk0yip7nifkjif6ljfzh9ayv2,3vd82fohku11hf3cdgg5ikp0wq2coe,1YuWzNFr,2020-0188,2020-11-21,18:03:17,18:25:43,NA,incomplete,125,color,0,right,Red_Triangle_Grid_2.jpg,Purple_Star_Grid_4.jpg,Red_Circle_Dots_3.jpg,right,736.6349999792874,true,high,false
1YuWzNFr,3r6rzgk0yip7nifkjif6ljfzh9ayv2,3vd82fohku11hf3cdgg5ikp0wq2coe,1YuWzNFr,2020-0188,2020-11-21,18:03:17,18:25:43,NA,incomplete,126,color,1,right,Green_Triangle_Stripes_4.jpg,Red_Circle_Stripes_1.jpg,Green_Plus_Grid_2.jpg,right,538.0450000520796,true,high,false
1YuWzNFr,3r6rzgk0yip7nifkjif6ljfzh9ayv2,3vd82fohku11hf3cdgg5ikp0wq2coe,1YuWzNFr,2020-0188,2020-11-21,18:03:17,18:25:43,NA,incomplete,127,color,1,left,Purple_Star_Stripes_4.jpg,Purple_Triangle_Grid_2.jpg,Blue_Plus_Stripes_3.jpg,left,476.09000001102686,true,high,false
1YuWzNFr,3r6rzgk0yip7nifkjif6ljfzh9ayv2,3vd82fohku11hf3cdgg5ikp0wq2coe,1YuWzNFr,2020-0188,2020-11-21,18:03:17,18:25:43,NA,incomplete,128,color,1,right,Red_Triangle_Dots_3.jpg,Blue_Star_Dots_2.jpg,Red_Circle_Grid_1.jpg,right,609.0349999722093,true,high,false
1YuWzNFr,3r6rzgk0yip7nifkjif6ljfzh9ayv2,3vd82fohku11hf3cdgg5ikp0wq2coe,1YuWzNFr,2020-0188,2020-11-21,18:03:17,18:25:43,NA,incomplete,129,color,0,right,Red_Circle_Dots_4.jpg,Purple_Triangle_Dots_3.jpg,Red_Star_Chess_2.jpg,right,684.804999968037,true,high,false
1YuWzNFr,3r6rzgk0yip7nifkjif6ljfzh9ayv2,3vd82fohku11hf3cdgg5ikp0wq2coe,1YuWzNFr,2020-0188,2020-11-21,18:03:17,18:25:43,NA,incomplete,130,color,1,right,Blue_Triangle_Dots_3.jpg,Red_Circle_Dots_1.jpg,Blue_Star_Stripes_2.jpg,right,547.9950000299141,true,high,false
1YuWzNFr,3r6rzgk0yip7nifkjif6ljfzh9ayv2,3vd82fohku11hf3cdgg5ikp0wq2coe,1YuWzNFr,2020-0188,2020-11-21,18:03:17,18:25:43,NA,incomplete,131,color,1,left,Blue_Circle_Stripes_4.jpg,Blue_Triangle_Chess_3.jpg,Purple_Star_Stripes_2.jpg,left,505.88000006973743,true,high,false
1YuWzNFr,3r6rzgk0yip7nifkjif6ljfzh9ayv2,3vd82fohku11hf3cdgg5ikp0wq2coe,1YuWzNFr,2020-0188,2020-11-21,18:03:17,18:25:43,NA,incomplete,132,color,0,left,Green_Plus_Stripes_3.jpg,Green_Circle_Dots_4.jpg,Red_Star_Stripes_2.jpg,left,544.0549999475479,true,high,false
1YuWzNFr,3r6rzgk0yip7nifkjif6ljfzh9ayv2,3vd82fohku11hf3cdgg5ikp0wq2coe,1YuWzNFr,2020-0188,2020-11-21,18:03:17,18:25:43,NA,incomplete,133,color,1,right,Blue_Triangle_Grid_2.jpg,Green_Circle_Grid_3.jpg,Blue_Star_Stripes_1.jpg,right,456.4099999843165,true,high,false
1YuWzNFr,3r6rzgk0yip7nifkjif6ljfzh9ayv2,3vd82fohku11hf3cdgg5ikp0wq2coe,1YuWzNFr,2020-0188,2020-11-21,18:03:17,18:25:43,NA,incomplete,134,color,1,right,Green_Plus_Grid_4.jpg,Red_Star_Grid_1.jpg,Green_Circle_Stripes_3.jpg,right,472.12000004947186,true,high,false
1YuWzNFr,3r6rzgk0yip7nifkjif6ljfzh9ayv2,3vd82fohku11hf3cdgg5ikp0wq2coe,1YuWzNFr,2020-0188,2020-11-21,18:03:17,18:25:43,NA,incomplete,135,color,1,right,Blue_Circle_Stripes_2.jpg,Red_Triangle_Stripes_1.jpg,Blue_Star_Chess_3.jpg,right,501.5399999683723,true,high,false
1YuWzNFr,3r6rzgk0yip7nifkjif6ljfzh9ayv2,3vd82fohku11hf3cdgg5ikp0wq2coe,1YuWzNFr,2020-0188,2020-11-21,18:03:17,18:25:43,NA,incomplete,136,color,1,right,Purple_Star_Grid_1.jpg,Blue_Triangle_Grid_3.jpg,Purple_Circle_Stripes_4.jpg,right,490.2850000653416,true,high,false
1YuWzNFr,3r6rzgk0yip7nifkjif6ljfzh9ayv2,3vd82fohku11hf3cdgg5ikp0wq2coe,1YuWzNFr,2020-0188,2020-11-21,18:03:17,18:25:43,NA,incomplete,137,color,0,right,Red_Star_Grid_3.jpg,Green_Triangle_Grid_1.jpg,Red_Plus_Dots_2.jpg,right,581.415000022389,true,high,false
1YuWzNFr,3r6rzgk0yip7nifkjif6ljfzh9ayv2,3vd82fohku11hf3cdgg5ikp0wq2coe,1YuWzNFr,2020-0188,2020-11-21,18:03:17,18:25:43,NA,incomplete,138,color,1,right,Green_Circle_Grid_4.jpg,Red_Star_Grid_2.jpg,Green_Triangle_Chess_1.jpg,right,533.24000001885,true,high,false
1YuWzNFr,3r6rzgk0yip7nifkjif6ljfzh9ayv2,3vd82fohku11hf3cdgg5ikp0wq2coe,1YuWzNFr,2020-0188,2020-11-21,18:03:17,18:25:43,NA,incomplete,139,color,1,right,Red_Triangle_Dots_2.jpg,Blue_Star_Dots_4.jpg,Red_Plus_Grid_3.jpg,right,641.8449999764562,true,high,false
1YuWzNFr,3r6rzgk0yip7nifkjif6ljfzh9ayv2,3vd82fohku11hf3cdgg5ikp0wq2coe,1YuWzNFr,2020-0188,2020-11-21,18:03:17,18:25:43,NA,incomplete,140,filling,0,right,Green_Plus_Chess_1.jpg,Green_Star_Grid_3.jpg,Purple_Triangle_Chess_4.jpg,left,561.4549999590963,false,high,false
1YuWzNFr,3r6rzgk0yip7nifkjif6ljfzh9ayv2,3vd82fohku11hf3cdgg5ikp0wq2coe,1YuWzNFr,2020-0188,2020-11-21,18:03:17,18:25:43,NA,incomplete,141,filling,1,left,Blue_Star_Grid_1.jpg,Green_Triangle_Grid_3.jpg,Blue_Plus_Chess_2.jpg,right,484.86500000581145,false,high,false
1YuWzNFr,3r6rzgk0yip7nifkjif6ljfzh9ayv2,3vd82fohku11hf3cdgg5ikp0wq2coe,1YuWzNFr,2020-0188,2020-11-21,18:03:17,18:25:43,NA,incomplete,142,filling,1,left,Red_Triangle_Chess_3.jpg,Blue_Plus_Chess_2.jpg,Red_Star_Dots_4.jpg,right,520.5550000537187,false,high,false
1YuWzNFr,3r6rzgk0yip7nifkjif6ljfzh9ayv2,3vd82fohku11hf3cdgg5ikp0wq2coe,1YuWzNFr,2020-0188,2020-11-21,18:03:17,18:25:43,NA,incomplete,143,filling,1,left,Red_Star_Grid_1.jpg,Green_Circle_Grid_3.jpg,Red_Triangle_Chess_2.jpg,left,1114.0799999702722,true,high,false
1YuWzNFr,3r6rzgk0yip7nifkjif6ljfzh9ayv2,3vd82fohku11hf3cdgg5ikp0wq2coe,1YuWzNFr,2020-0188,2020-11-21,18:03:17,18:25:43,NA,incomplete,144,filling,1,right,Purple_Circle_Chess_1.jpg,Purple_Star_Grid_2.jpg,Green_Plus_Chess_3.jpg,left,801.6049999278039,false,high,false
1YuWzNFr,3r6rzgk0yip7nifkjif6ljfzh9ayv2,3vd82fohku11hf3cdgg5ikp0wq2coe,1YuWzNFr,2020-0188,2020-11-21,18:03:17,18:25:43,NA,incomplete,145,filling,0,right,Blue_Circle_Grid_1.jpg,Blue_Triangle_Dots_4.jpg,Purple_Star_Grid_2.jpg,right,882.1000000461936,true,high,false
1YuWzNFr,3r6rzgk0yip7nifkjif6ljfzh9ayv2,3vd82fohku11hf3cdgg5ikp0wq2coe,1YuWzNFr,2020-0188,2020-11-21,18:03:17,18:25:43,NA,incomplete,146,filling,1,right,Blue_Star_Dots_2.jpg,Blue_Circle_Stripes_4.jpg,Green_Plus_Dots_1.jpg,right,987.7900000428781,true,high,false
1YuWzNFr,3r6rzgk0yip7nifkjif6ljfzh9ayv2,3vd82fohku11hf3cdgg5ikp0wq2coe,1YuWzNFr,2020-0188,2020-11-21,18:03:17,18:25:43,NA,incomplete,147,filling,1,right,Blue_Circle_Stripes_3.jpg,Blue_Star_Chess_2.jpg,Green_Plus_Stripes_4.jpg,right,1293.969999998808,true,high,false
1YuWzNFr,3r6rzgk0yip7nifkjif6ljfzh9ayv2,3vd82fohku11hf3cdgg5ikp0wq2coe,1YuWzNFr,2020-0188,2020-11-21,18:03:17,18:25:43,NA,incomplete,148,filling,1,right,Red_Triangle_Grid_4.jpg,Red_Circle_Stripes_3.jpg,Blue_Plus_Grid_1.jpg,right,839.6200001006946,true,high,false
1YuWzNFr,3r6rzgk0yip7nifkjif6ljfzh9ayv2,3vd82fohku11hf3cdgg5ikp0wq2coe,1YuWzNFr,2020-0188,2020-11-21,18:03:17,18:25:43,NA,incomplete,149,filling,1,right,Green_Star_Grid_1.jpg,Green_Plus_Stripes_2.jpg,Red_Circle_Grid_3.jpg,right,1151.4600000809878,true,high,false
1YuWzNFr,3r6rzgk0yip7nifkjif6ljfzh9ayv2,3vd82fohku11hf3cdgg5ikp0wq2coe,1YuWzNFr,2020-0188,2020-11-21,18:03:17,18:25:43,NA,incomplete,150,filling,0,left,Purple_Plus_Stripes_2.jpg,Blue_Circle_Stripes_4.jpg,Purple_Star_Chess_3.jpg,left,913.2500000996515,true,high,false
1YuWzNFr,3r6rzgk0yip7nifkjif6ljfzh9ayv2,3vd82fohku11hf3cdgg5ikp0wq2coe,1YuWzNFr,2020-0188,2020-11-21,18:03:17,18:25:43,NA,incomplete,151,filling,1,right,Blue_Triangle_Grid_3.jpg,Blue_Star_Dots_1.jpg,Green_Circle_Grid_2.jpg,right,1006.1149999964982,true,high,false
1YuWzNFr,3r6rzgk0yip7nifkjif6ljfzh9ayv2,3vd82fohku11hf3cdgg5ikp0wq2coe,1YuWzNFr,2020-0188,2020-11-21,18:03:17,18:25:43,NA,incomplete,152,filling,1,right,Green_Star_Dots_4.jpg,Green_Plus_Chess_2.jpg,Red_Triangle_Dots_3.jpg,right,944.0000000176951,true,high,false
1YuWzNFr,3r6rzgk0yip7nifkjif6ljfzh9ayv2,3vd82fohku11hf3cdgg5ikp0wq2coe,1YuWzNFr,2020-0188,2020-11-21,18:03:17,18:25:43,NA,incomplete,153,filling,1,left,Red_Circle_Dots_4.jpg,Blue_Plus_Dots_1.jpg,Red_Triangle_Chess_3.jpg,left,823.7850000150502,true,high,false
1YuWzNFr,3r6rzgk0yip7nifkjif6ljfzh9ayv2,3vd82fohku11hf3cdgg5ikp0wq2coe,1YuWzNFr,2020-0188,2020-11-21,18:03:17,18:25:43,NA,incomplete,154,filling,0,left,Blue_Circle_Stripes_2.jpg,Green_Star_Stripes_3.jpg,Blue_Plus_Grid_1.jpg,left,806.0599999735132,true,high,false
1YuWzNFr,3r6rzgk0yip7nifkjif6ljfzh9ayv2,3vd82fohku11hf3cdgg5ikp0wq2coe,1YuWzNFr,2020-0188,2020-11-21,18:03:17,18:25:43,NA,incomplete,155,filling,1,left,Red_Plus_Dots_4.jpg,Blue_Star_Dots_1.jpg,Red_Circle_Chess_3.jpg,right,1074.3149999761954,false,high,false
1YuWzNFr,3r6rzgk0yip7nifkjif6ljfzh9ayv2,3vd82fohku11hf3cdgg5ikp0wq2coe,1YuWzNFr,2020-0188,2020-11-21,18:03:17,18:25:43,NA,incomplete,156,filling,1,left,Red_Plus_Stripes_4.jpg,Green_Triangle_Stripes_3.jpg,Red_Star_Chess_2.jpg,left,1121.0600000340492,true,high,false
1YuWzNFr,3r6rzgk0yip7nifkjif6ljfzh9ayv2,3vd82fohku11hf3cdgg5ikp0wq2coe,1YuWzNFr,2020-0188,2020-11-21,18:03:17,18:25:43,NA,incomplete,157,filling,1,left,Green_Circle_Chess_1.jpg,Blue_Triangle_Chess_4.jpg,Green_Plus_Stripes_3.jpg,left,1093.4549999656156,true,high,false
1YuWzNFr,3r6rzgk0yip7nifkjif6ljfzh9ayv2,3vd82fohku11hf3cdgg5ikp0wq2coe,1YuWzNFr,2020-0188,2020-11-21,18:03:17,18:25:43,NA,incomplete,158,filling,1,right,Blue_Plus_Grid_4.jpg,Blue_Circle_Chess_1.jpg,Purple_Star_Grid_2.jpg,left,1210.3650000644848,false,high,false
1YuWzNFr,3r6rzgk0yip7nifkjif6ljfzh9ayv2,3vd82fohku11hf3cdgg5ikp0wq2coe,1YuWzNFr,2020-0188,2020-11-21,18:03:17,18:25:43,NA,incomplete,159,filling,0,right,Green_Plus_Chess_1.jpg,Green_Star_Stripes_3.jpg,Red_Triangle_Chess_2.jpg,left,853.5149999661371,false,high,false
1YuWzNFr,3r6rzgk0yip7nifkjif6ljfzh9ayv2,3vd82fohku11hf3cdgg5ikp0wq2coe,1YuWzNFr,2020-0188,2020-11-21,18:03:17,18:25:43,NA,incomplete,160,color,1,right,Purple_Star_Chess_1.jpg,Green_Triangle_Chess_3.jpg,Purple_Circle_Stripes_2.jpg,right,621.4749999344349,true,high,false
1YuWzNFr,3r6rzgk0yip7nifkjif6ljfzh9ayv2,3vd82fohku11hf3cdgg5ikp0wq2coe,1YuWzNFr,2020-0188,2020-11-21,18:03:17,18:25:43,NA,incomplete,161,color,1,left,Purple_Star_Grid_4.jpg,Purple_Circle_Stripes_1.jpg,Red_Triangle_Grid_2.jpg,left,619.4100000429899,true,high,false
1YuWzNFr,3r6rzgk0yip7nifkjif6ljfzh9ayv2,3vd82fohku11hf3cdgg5ikp0wq2coe,1YuWzNFr,2020-0188,2020-11-21,18:03:17,18:25:43,NA,incomplete,162,color,1,right,Green_Star_Chess_2.jpg,Red_Triangle_Chess_4.jpg,Green_Circle_Stripes_3.jpg,right,685.9799999510869,true,high,false
1YuWzNFr,3r6rzgk0yip7nifkjif6ljfzh9ayv2,3vd82fohku11hf3cdgg5ikp0wq2coe,1YuWzNFr,2020-0188,2020-11-21,18:03:17,18:25:43,NA,incomplete,163,color,1,right,Red_Circle_Dots_3.jpg,Purple_Triangle_Dots_2.jpg,Red_Star_Grid_1.jpg,right,569.0399999730289,true,high,false
1YuWzNFr,3r6rzgk0yip7nifkjif6ljfzh9ayv2,3vd82fohku11hf3cdgg5ikp0wq2coe,1YuWzNFr,2020-0188,2020-11-21,18:03:17,18:25:43,NA,incomplete,164,color,0,right,Red_Plus_Dots_1.jpg,Purple_Star_Dots_3.jpg,Red_Triangle_Stripes_2.jpg,right,481.6550000105053,true,high,false
1YuWzNFr,3r6rzgk0yip7nifkjif6ljfzh9ayv2,3vd82fohku11hf3cdgg5ikp0wq2coe,1YuWzNFr,2020-0188,2020-11-21,18:03:17,18:25:43,NA,incomplete,165,color,1,left,Blue_Circle_Dots_1.jpg,Blue_Plus_Chess_3.jpg,Green_Triangle_Dots_2.jpg,left,717.85000001546,true,high,false
1YuWzNFr,3r6rzgk0yip7nifkjif6ljfzh9ayv2,3vd82fohku11hf3cdgg5ikp0wq2coe,1YuWzNFr,2020-0188,2020-11-21,18:03:17,18:25:43,NA,incomplete,166,color,1,left,Blue_Circle_Dots_4.jpg,Blue_Star_Stripes_2.jpg,Purple_Plus_Dots_1.jpg,left,646.6250000521541,true,high,false
1YuWzNFr,3r6rzgk0yip7nifkjif6ljfzh9ayv2,3vd82fohku11hf3cdgg5ikp0wq2coe,1YuWzNFr,2020-0188,2020-11-21,18:03:17,18:25:43,NA,incomplete,167,color,1,left,Blue_Circle_Grid_1.jpg,Blue_Star_Chess_2.jpg,Red_Triangle_Grid_3.jpg,left,558.9400000171736,true,high,false
1YuWzNFr,3r6rzgk0yip7nifkjif6ljfzh9ayv2,3vd82fohku11hf3cdgg5ikp0wq2coe,1YuWzNFr,2020-0188,2020-11-21,18:03:17,18:25:43,NA,incomplete,168,color,0,right,Red_Star_Dots_1.jpg,Purple_Triangle_Dots_4.jpg,Red_Plus_Grid_3.jpg,right,539.9749999633059,true,high,false
1YuWzNFr,3r6rzgk0yip7nifkjif6ljfzh9ayv2,3vd82fohku11hf3cdgg5ikp0wq2coe,1YuWzNFr,2020-0188,2020-11-21,18:03:17,18:25:43,NA,incomplete,169,color,1,left,Green_Circle_Dots_1.jpg,Green_Plus_Chess_2.jpg,Red_Star_Dots_4.jpg,left,489.4250000361353,true,high,false
1YuWzNFr,3r6rzgk0yip7nifkjif6ljfzh9ayv2,3vd82fohku11hf3cdgg5ikp0wq2coe,1YuWzNFr,2020-0188,2020-11-21,18:03:17,18:25:43,NA,incomplete,170,color,1,left,Blue_Plus_Stripes_2.jpg,Blue_Triangle_Chess_1.jpg,Purple_Star_Stripes_3.jpg,left,503.1400000443682,true,high,false
1YuWzNFr,3r6rzgk0yip7nifkjif6ljfzh9ayv2,3vd82fohku11hf3cdgg5ikp0wq2coe,1YuWzNFr,2020-0188,2020-11-21,18:03:17,18:25:43,NA,incomplete,171,color,1,left,Green_Plus_Grid_3.jpg,Green_Star_Chess_2.jpg,Red_Circle_Grid_1.jpg,left,621.1749999783933,true,high,false
1YuWzNFr,3r6rzgk0yip7nifkjif6ljfzh9ayv2,3vd82fohku11hf3cdgg5ikp0wq2coe,1YuWzNFr,2020-0188,2020-11-21,18:03:17,18:25:43,NA,incomplete,172,color,1,left,Blue_Plus_Dots_4.jpg,Blue_Star_Stripes_3.jpg,Purple_Triangle_Dots_2.jpg,left,580.6050000246614,true,high,false
1YuWzNFr,3r6rzgk0yip7nifkjif6ljfzh9ayv2,3vd82fohku11hf3cdgg5ikp0wq2coe,1YuWzNFr,2020-0188,2020-11-21,18:03:17,18:25:43,NA,incomplete,173,color,1,right,Purple_Triangle_Chess_2.jpg,Green_Plus_Chess_4.jpg,Purple_Circle_Grid_3.jpg,right,682.4699999997392,true,high,false
1YuWzNFr,3r6rzgk0yip7nifkjif6ljfzh9ayv2,3vd82fohku11hf3cdgg5ikp0wq2coe,1YuWzNFr,2020-0188,2020-11-21,18:03:17,18:25:43,NA,incomplete,174,color,1,right,Purple_Triangle_Dots_3.jpg,Green_Circle_Dots_4.jpg,Purple_Plus_Stripes_2.jpg,right,773.5300000058487,true,high,false
1YuWzNFr,3r6rzgk0yip7nifkjif6ljfzh9ayv2,3vd82fohku11hf3cdgg5ikp0wq2coe,1YuWzNFr,2020-0188,2020-11-21,18:03:17,18:25:43,NA,incomplete,175,color,0,right,Purple_Triangle_Grid_3.jpg,Blue_Plus_Grid_2.jpg,Purple_Star_Chess_4.jpg,right,596.7749999836087,true,high,false
1YuWzNFr,3r6rzgk0yip7nifkjif6ljfzh9ayv2,3vd82fohku11hf3cdgg5ikp0wq2coe,1YuWzNFr,2020-0188,2020-11-21,18:03:17,18:25:43,NA,incomplete,176,color,1,right,Purple_Triangle_Dots_1.jpg,Blue_Star_Dots_2.jpg,Purple_Circle_Grid_4.jpg,left,902.1150000626221,false,high,false
1YuWzNFr,3r6rzgk0yip7nifkjif6ljfzh9ayv2,3vd82fohku11hf3cdgg5ikp0wq2coe,1YuWzNFr,2020-0188,2020-11-21,18:03:17,18:25:43,NA,incomplete,177,color,1,right,Red_Star_Chess_1.jpg,Purple_Triangle_Chess_3.jpg,Red_Circle_Stripes_2.jpg,right,754.674999974668,true,high,false
1YuWzNFr,3r6rzgk0yip7nifkjif6ljfzh9ayv2,3vd82fohku11hf3cdgg5ikp0wq2coe,1YuWzNFr,2020-0188,2020-11-21,18:03:17,18:25:43,NA,incomplete,178,color,0,right,Red_Triangle_Dots_4.jpg,Purple_Star_Dots_2.jpg,Red_Circle_Stripes_1.jpg,right,879.4849999248981,true,high,false
1YuWzNFr,3r6rzgk0yip7nifkjif6ljfzh9ayv2,3vd82fohku11hf3cdgg5ikp0wq2coe,1YuWzNFr,2020-0188,2020-11-21,18:03:17,18:25:43,NA,incomplete,179,color,1,left,Purple_Triangle_Chess_2.jpg,Purple_Circle_Stripes_1.jpg,Blue_Star_Chess_3.jpg,right,1107.205000007525,false,high,false
1YuWzNFr,3r6rzgk0yip7nifkjif6ljfzh9ayv2,3vd82fohku11hf3cdgg5ikp0wq2coe,1YuWzNFr,2020-0188,2020-11-21,18:03:17,18:25:43,NA,incomplete,180,filling,1,left,Blue_Circle_Grid_2.jpg,Purple_Triangle_Grid_3.jpg,Blue_Plus_Chess_1.jpg,left,1073.770000017248,true,high,false
1YuWzNFr,3r6rzgk0yip7nifkjif6ljfzh9ayv2,3vd82fohku11hf3cdgg5ikp0wq2coe,1YuWzNFr,2020-0188,2020-11-21,18:03:17,18:25:43,NA,incomplete,181,filling,1,right,Red_Circle_Grid_4.jpg,Red_Plus_Stripes_3.jpg,Purple_Star_Grid_1.jpg,right,1027.074999990873,true,high,false
1YuWzNFr,3r6rzgk0yip7nifkjif6ljfzh9ayv2,3vd82fohku11hf3cdgg5ikp0wq2coe,1YuWzNFr,2020-0188,2020-11-21,18:03:17,18:25:43,NA,incomplete,182,filling,0,right,Blue_Star_Dots_4.jpg,Blue_Plus_Chess_2.jpg,Green_Triangle_Dots_3.jpg,right,857.2050000075251,true,high,false
1YuWzNFr,3r6rzgk0yip7nifkjif6ljfzh9ayv2,3vd82fohku11hf3cdgg5ikp0wq2coe,1YuWzNFr,2020-0188,2020-11-21,18:03:17,18:25:43,NA,incomplete,183,filling,1,left,Red_Triangle_Dots_3.jpg,Blue_Plus_Dots_4.jpg,Red_Circle_Chess_2.jpg,left,861.975000007078,true,high,false
1YuWzNFr,3r6rzgk0yip7nifkjif6ljfzh9ayv2,3vd82fohku11hf3cdgg5ikp0wq2coe,1YuWzNFr,2020-0188,2020-11-21,18:03:17,18:25:43,NA,incomplete,184,filling,0,right,Green_Triangle_Chess_4.jpg,Green_Star_Grid_2.jpg,Purple_Plus_Chess_1.jpg,left,973.3199999900535,false,high,false
1YuWzNFr,3r6rzgk0yip7nifkjif6ljfzh9ayv2,3vd82fohku11hf3cdgg5ikp0wq2coe,1YuWzNFr,2020-0188,2020-11-21,18:03:17,18:25:43,NA,incomplete,185,filling,1,right,Red_Triangle_Grid_2.jpg,Red_Star_Dots_3.jpg,Blue_Circle_Grid_1.jpg,right,1030.4149999283254,true,high,false
1YuWzNFr,3r6rzgk0yip7nifkjif6ljfzh9ayv2,3vd82fohku11hf3cdgg5ikp0wq2coe,1YuWzNFr,2020-0188,2020-11-21,18:03:17,18:25:43,NA,incomplete,186,filling,0,right,Green_Plus_Grid_1.jpg,Green_Circle_Dots_4.jpg,Blue_Star_Grid_2.jpg,right,1021.0900000529364,true,high,false
1YuWzNFr,3r6rzgk0yip7nifkjif6ljfzh9ayv2,3vd82fohku11hf3cdgg5ikp0wq2coe,1YuWzNFr,2020-0188,2020-11-21,18:03:17,18:25:43,NA,incomplete,187,filling,1,right,Red_Star_Dots_1.jpg,Red_Triangle_Grid_2.jpg,Green_Plus_Dots_3.jpg,left,917.8850000025705,false,high,false
1YuWzNFr,3r6rzgk0yip7nifkjif6ljfzh9ayv2,3vd82fohku11hf3cdgg5ikp0wq2coe,1YuWzNFr,2020-0188,2020-11-21,18:03:17,18:25:43,NA,incomplete,188,filling,1,left,Purple_Triangle_Chess_3.jpg,Blue_Star_Chess_1.jpg,Purple_Plus_Grid_2.jpg,left,1067.8049999987707,true,high,false
1YuWzNFr,3r6rzgk0yip7nifkjif6ljfzh9ayv2,3vd82fohku11hf3cdgg5ikp0wq2coe,1YuWzNFr,2020-0188,2020-11-21,18:03:17,18:25:43,NA,incomplete,189,filling,1,right,Purple_Triangle_Dots_1.jpg,Purple_Star_Stripes_3.jpg,Green_Circle_Dots_4.jpg,right,843.0299999890849,true,high,false
1YuWzNFr,3r6rzgk0yip7nifkjif6ljfzh9ayv2,3vd82fohku11hf3cdgg5ikp0wq2coe,1YuWzNFr,2020-0188,2020-11-21,18:03:17,18:25:43,NA,incomplete,190,filling,1,right,Red_Circle_Stripes_2.jpg,Red_Triangle_Grid_1.jpg,Green_Star_Stripes_4.jpg,left,907.3100000387058,false,high,false
1YuWzNFr,3r6rzgk0yip7nifkjif6ljfzh9ayv2,3vd82fohku11hf3cdgg5ikp0wq2coe,1YuWzNFr,2020-0188,2020-11-21,18:03:17,18:25:43,NA,incomplete,191,filling,1,right,Red_Triangle_Chess_1.jpg,Red_Plus_Dots_2.jpg,Green_Star_Chess_4.jpg,right,980.1549999974668,true,high,false
1YuWzNFr,3r6rzgk0yip7nifkjif6ljfzh9ayv2,3vd82fohku11hf3cdgg5ikp0wq2coe,1YuWzNFr,2020-0188,2020-11-21,18:03:17,18:25:43,NA,incomplete,192,filling,1,left,Blue_Circle_Dots_1.jpg,Green_Plus_Dots_2.jpg,Blue_Triangle_Grid_4.jpg,left,917.6200000802055,true,high,false
1YuWzNFr,3r6rzgk0yip7nifkjif6ljfzh9ayv2,3vd82fohku11hf3cdgg5ikp0wq2coe,1YuWzNFr,2020-0188,2020-11-21,18:03:17,18:25:43,NA,incomplete,193,filling,1,right,Purple_Circle_Dots_1.jpg,Purple_Star_Grid_4.jpg,Red_Plus_Dots_3.jpg,right,759.7100000130013,true,high,false
1YuWzNFr,3r6rzgk0yip7nifkjif6ljfzh9ayv2,3vd82fohku11hf3cdgg5ikp0wq2coe,1YuWzNFr,2020-0188,2020-11-21,18:03:17,18:25:43,NA,incomplete,194,filling,1,right,Green_Circle_Stripes_2.jpg,Green_Star_Grid_3.jpg,Blue_Triangle_Stripes_4.jpg,right,1036.4550000522286,true,high,false
1YuWzNFr,3r6rzgk0yip7nifkjif6ljfzh9ayv2,3vd82fohku11hf3cdgg5ikp0wq2coe,1YuWzNFr,2020-0188,2020-11-21,18:03:17,18:25:43,NA,incomplete,195,filling,1,right,Red_Star_Dots_3.jpg,Red_Plus_Chess_4.jpg,Purple_Circle_Dots_2.jpg,right,762.4150000046939,true,high,false
1YuWzNFr,3r6rzgk0yip7nifkjif6ljfzh9ayv2,3vd82fohku11hf3cdgg5ikp0wq2coe,1YuWzNFr,2020-0188,2020-11-21,18:03:17,18:25:43,NA,incomplete,196,filling,1,right,Red_Star_Stripes_4.jpg,Red_Triangle_Chess_3.jpg,Purple_Plus_Stripes_1.jpg,right,1017.0950000174344,true,high,false
1YuWzNFr,3r6rzgk0yip7nifkjif6ljfzh9ayv2,3vd82fohku11hf3cdgg5ikp0wq2coe,1YuWzNFr,2020-0188,2020-11-21,18:03:17,18:25:43,NA,incomplete,197,filling,0,right,Green_Star_Chess_3.jpg,Green_Plus_Dots_4.jpg,Red_Triangle_Chess_2.jpg,right,989.42499991972,true,high,false
1YuWzNFr,3r6rzgk0yip7nifkjif6ljfzh9ayv2,3vd82fohku11hf3cdgg5ikp0wq2coe,1YuWzNFr,2020-0188,2020-11-21,18:03:17,18:25:43,NA,incomplete,198,filling,1,left,Blue_Circle_Grid_4.jpg,Red_Star_Grid_1.jpg,Blue_Triangle_Stripes_2.jpg,left,1177.5399999460205,true,high,false
1YuWzNFr,3r6rzgk0yip7nifkjif6ljfzh9ayv2,3vd82fohku11hf3cdgg5ikp0wq2coe,1YuWzNFr,2020-0188,2020-11-21,18:03:17,18:25:43,NA,incomplete,199,filling,1,left,Purple_Triangle_Stripes_2.jpg,Red_Plus_Stripes_3.jpg,Purple_Star_Grid_1.jpg,left,905.1450000843033,true,high,false
1YuWzNFr,3r6rzgk0yip7nifkjif6ljfzh9ayv2,3vd82fohku11hf3cdgg5ikp0wq2coe,1YuWzNFr,2020-0188,2020-11-21,18:03:17,18:25:43,NA,incomplete,200,color,1,left,Green_Plus_Stripes_1.jpg,Green_Star_Grid_4.jpg,Purple_Circle_Stripes_3.jpg,left,1215.834999922663,true,high,false
1YuWzNFr,3r6rzgk0yip7nifkjif6ljfzh9ayv2,3vd82fohku11hf3cdgg5ikp0wq2coe,1YuWzNFr,2020-0188,2020-11-21,18:03:17,18:25:43,NA,incomplete,201,color,0,left,Red_Circle_Dots_2.jpg,Red_Triangle_Chess_4.jpg,Purple_Star_Dots_3.jpg,left,682.0150000276044,true,high,false
1YuWzNFr,3r6rzgk0yip7nifkjif6ljfzh9ayv2,3vd82fohku11hf3cdgg5ikp0wq2coe,1YuWzNFr,2020-0188,2020-11-21,18:03:17,18:25:43,NA,incomplete,202,color,1,right,Red_Triangle_Stripes_4.jpg,Purple_Circle_Stripes_2.jpg,Red_Star_Chess_3.jpg,right,516.3099999772385,true,high,false
1YuWzNFr,3r6rzgk0yip7nifkjif6ljfzh9ayv2,3vd82fohku11hf3cdgg5ikp0wq2coe,1YuWzNFr,2020-0188,2020-11-21,18:03:17,18:25:43,NA,incomplete,203,color,1,right,Green_Plus_Dots_3.jpg,Blue_Triangle_Dots_1.jpg,Green_Circle_Grid_2.jpg,right,757.2400000644848,true,high,false
1YuWzNFr,3r6rzgk0yip7nifkjif6ljfzh9ayv2,3vd82fohku11hf3cdgg5ikp0wq2coe,1YuWzNFr,2020-0188,2020-11-21,18:03:17,18:25:43,NA,incomplete,204,color,1,right,Purple_Star_Grid_2.jpg,Red_Triangle_Grid_3.jpg,Purple_Plus_Dots_1.jpg,right,740.944999968633,true,high,false
1YuWzNFr,3r6rzgk0yip7nifkjif6ljfzh9ayv2,3vd82fohku11hf3cdgg5ikp0wq2coe,1YuWzNFr,2020-0188,2020-11-21,18:03:17,18:25:43,NA,incomplete,205,color,1,left,Purple_Circle_Grid_1.jpg,Purple_Star_Stripes_3.jpg,Red_Plus_Grid_2.jpg,left,562.4100000131875,true,high,false
1YuWzNFr,3r6rzgk0yip7nifkjif6ljfzh9ayv2,3vd82fohku11hf3cdgg5ikp0wq2coe,1YuWzNFr,2020-0188,2020-11-21,18:03:17,18:25:43,NA,incomplete,206,color,0,right,Red_Triangle_Dots_4.jpg,Purple_Circle_Dots_3.jpg,Red_Plus_Stripes_1.jpg,left,950.1550000859424,false,high,false
1YuWzNFr,3r6rzgk0yip7nifkjif6ljfzh9ayv2,3vd82fohku11hf3cdgg5ikp0wq2coe,1YuWzNFr,2020-0188,2020-11-21,18:03:17,18:25:43,NA,incomplete,207,color,1,right,Green_Star_Grid_1.jpg,Red_Triangle_Grid_2.jpg,Green_Plus_Chess_3.jpg,right,1385.3749999543652,true,high,false
1YuWzNFr,3r6rzgk0yip7nifkjif6ljfzh9ayv2,3vd82fohku11hf3cdgg5ikp0wq2coe,1YuWzNFr,2020-0188,2020-11-21,18:03:17,18:25:43,NA,incomplete,208,color,1,right,Red_Triangle_Chess_3.jpg,Purple_Star_Chess_4.jpg,Red_Circle_Stripes_2.jpg,left,1141.7050000745803,false,high,false
1YuWzNFr,3r6rzgk0yip7nifkjif6ljfzh9ayv2,3vd82fohku11hf3cdgg5ikp0wq2coe,1YuWzNFr,2020-0188,2020-11-21,18:03:17,18:25:43,NA,incomplete,209,color,0,right,Blue_Star_Stripes_3.jpg,Green_Triangle_Stripes_2.jpg,Blue_Circle_Grid_4.jpg,left,1124.9450000468642,false,high,false
1YuWzNFr,3r6rzgk0yip7nifkjif6ljfzh9ayv2,3vd82fohku11hf3cdgg5ikp0wq2coe,1YuWzNFr,2020-0188,2020-11-21,18:03:17,18:25:43,NA,incomplete,210,color,1,right,Purple_Circle_Stripes_3.jpg,Blue_Plus_Stripes_1.jpg,Purple_Triangle_Dots_4.jpg,left,888.1050000200048,false,high,false
1YuWzNFr,3r6rzgk0yip7nifkjif6ljfzh9ayv2,3vd82fohku11hf3cdgg5ikp0wq2coe,1YuWzNFr,2020-0188,2020-11-21,18:03:17,18:25:43,NA,incomplete,211,color,1,left,Blue_Triangle_Dots_2.jpg,Blue_Plus_Chess_4.jpg,Purple_Star_Dots_1.jpg,left,741.1599999759346,true,high,false
1YuWzNFr,3r6rzgk0yip7nifkjif6ljfzh9ayv2,3vd82fohku11hf3cdgg5ikp0wq2coe,1YuWzNFr,2020-0188,2020-11-21,18:03:17,18:25:43,NA,incomplete,212,color,1,left,Green_Plus_Dots_4.jpg,Green_Triangle_Stripes_2.jpg,Blue_Star_Dots_1.jpg,left,678.3449999056756,true,high,false
1YuWzNFr,3r6rzgk0yip7nifkjif6ljfzh9ayv2,3vd82fohku11hf3cdgg5ikp0wq2coe,1YuWzNFr,2020-0188,2020-11-21,18:03:17,18:25:43,NA,incomplete,213,color,0,right,Blue_Star_Stripes_4.jpg,Red_Triangle_Stripes_2.jpg,Blue_Plus_Chess_1.jpg,right,610.6050000526011,true,high,false
1YuWzNFr,3r6rzgk0yip7nifkjif6ljfzh9ayv2,3vd82fohku11hf3cdgg5ikp0wq2coe,1YuWzNFr,2020-0188,2020-11-21,18:03:17,18:25:43,NA,incomplete,214,color,1,right,Purple_Plus_Dots_2.jpg,Blue_Circle_Dots_1.jpg,Purple_Star_Chess_4.jpg,right,898.1550000607967,true,high,false
1YuWzNFr,3r6rzgk0yip7nifkjif6ljfzh9ayv2,3vd82fohku11hf3cdgg5ikp0wq2coe,1YuWzNFr,2020-0188,2020-11-21,18:03:17,18:25:43,NA,incomplete,215,color,1,right,Red_Circle_Chess_3.jpg,Blue_Star_Chess_4.jpg,Red_Triangle_Stripes_2.jpg,right,860.7550000306219,true,high,false
1YuWzNFr,3r6rzgk0yip7nifkjif6ljfzh9ayv2,3vd82fohku11hf3cdgg5ikp0wq2coe,1YuWzNFr,2020-0188,2020-11-21,18:03:17,18:25:43,NA,incomplete,216,color,1,left,Purple_Triangle_Stripes_4.jpg,Purple_Circle_Dots_3.jpg,Green_Star_Stripes_2.jpg,left,519.8349999263883,true,high,false
1YuWzNFr,3r6rzgk0yip7nifkjif6ljfzh9ayv2,3vd82fohku11hf3cdgg5ikp0wq2coe,1YuWzNFr,2020-0188,2020-11-21,18:03:17,18:25:43,NA,incomplete,217,color,1,left,Green_Triangle_Stripes_2.jpg,Green_Circle_Dots_4.jpg,Purple_Plus_Stripes_1.jpg,left,607.4900000821799,true,high,false
1YuWzNFr,3r6rzgk0yip7nifkjif6ljfzh9ayv2,3vd82fohku11hf3cdgg5ikp0wq2coe,1YuWzNFr,2020-0188,2020-11-21,18:03:17,18:25:43,NA,incomplete,218,color,0,left,Purple_Star_Chess_4.jpg,Purple_Triangle_Dots_1.jpg,Blue_Circle_Chess_3.jpg,left,562.0300000300631,true,high,false
1YuWzNFr,3r6rzgk0yip7nifkjif6ljfzh9ayv2,3vd82fohku11hf3cdgg5ikp0wq2coe,1YuWzNFr,2020-0188,2020-11-21,18:03:17,18:25:43,NA,incomplete,219,color,1,right,Green_Triangle_Stripes_3.jpg,Red_Circle_Stripes_1.jpg,Green_Plus_Dots_2.jpg,right,482.9199999803677,true,high,false
1YuWzNFr,3r6rzgk0yip7nifkjif6ljfzh9ayv2,3vd82fohku11hf3cdgg5ikp0wq2coe,1YuWzNFr,2020-0188,2020-11-21,18:03:17,18:25:43,NA,incomplete,220,filling,1,left,Blue_Triangle_Grid_4.jpg,Red_Star_Grid_3.jpg,Blue_Circle_Stripes_2.jpg,right,504.6700000530109,false,high,false
1YuWzNFr,3r6rzgk0yip7nifkjif6ljfzh9ayv2,3vd82fohku11hf3cdgg5ikp0wq2coe,1YuWzNFr,2020-0188,2020-11-21,18:03:17,18:25:43,NA,incomplete,221,filling,1,right,Green_Triangle_Grid_2.jpg,Green_Star_Dots_3.jpg,Red_Circle_Grid_1.jpg,left,471.28499997779727,false,high,false
1YuWzNFr,3r6rzgk0yip7nifkjif6ljfzh9ayv2,3vd82fohku11hf3cdgg5ikp0wq2coe,1YuWzNFr,2020-0188,2020-11-21,18:03:17,18:25:43,NA,incomplete,222,filling,1,left,Green_Circle_Dots_1.jpg,Blue_Triangle_Dots_3.jpg,Green_Star_Stripes_2.jpg,left,1050.8549999212846,true,high,false
1YuWzNFr,3r6rzgk0yip7nifkjif6ljfzh9ayv2,3vd82fohku11hf3cdgg5ikp0wq2coe,1YuWzNFr,2020-0188,2020-11-21,18:03:17,18:25:43,NA,incomplete,223,filling,1,left,Blue_Triangle_Chess_3.jpg,Red_Plus_Chess_2.jpg,Blue_Star_Stripes_1.jpg,left,999.7600000351667,true,high,false
1YuWzNFr,3r6rzgk0yip7nifkjif6ljfzh9ayv2,3vd82fohku11hf3cdgg5ikp0wq2coe,1YuWzNFr,2020-0188,2020-11-21,18:03:17,18:25:43,NA,incomplete,224,filling,1,left,Green_Circle_Stripes_3.jpg,Blue_Plus_Stripes_4.jpg,Green_Triangle_Grid_2.jpg,left,1086.8150000460446,true,high,false
1YuWzNFr,3r6rzgk0yip7nifkjif6ljfzh9ayv2,3vd82fohku11hf3cdgg5ikp0wq2coe,1YuWzNFr,2020-0188,2020-11-21,18:03:17,18:25:43,NA,incomplete,225,filling,1,right,Purple_Triangle_Dots_3.jpg,Purple_Star_Stripes_1.jpg,Blue_Plus_Dots_4.jpg,right,934.9599999841303,true,high,false
1YuWzNFr,3r6rzgk0yip7nifkjif6ljfzh9ayv2,3vd82fohku11hf3cdgg5ikp0wq2coe,1YuWzNFr,2020-0188,2020-11-21,18:03:17,18:25:43,NA,incomplete,226,filling,1,left,Green_Triangle_Chess_3.jpg,Blue_Plus_Chess_1.jpg,Green_Circle_Grid_2.jpg,left,998.0900000082329,true,high,false
1YuWzNFr,3r6rzgk0yip7nifkjif6ljfzh9ayv2,3vd82fohku11hf3cdgg5ikp0wq2coe,1YuWzNFr,2020-0188,2020-11-21,18:03:17,18:25:43,NA,incomplete,227,filling,1,right,Blue_Triangle_Stripes_1.jpg,Blue_Circle_Grid_4.jpg,Green_Star_Stripes_3.jpg,right,948.2350000180304,true,high,false
1YuWzNFr,3r6rzgk0yip7nifkjif6ljfzh9ayv2,3vd82fohku11hf3cdgg5ikp0wq2coe,1YuWzNFr,2020-0188,2020-11-21,18:03:17,18:25:43,NA,incomplete,228,filling,0,left,Purple_Circle_Stripes_1.jpg,Blue_Star_Stripes_3.jpg,Purple_Plus_Chess_2.jpg,left,851.9400000805035,true,high,false
1YuWzNFr,3r6rzgk0yip7nifkjif6ljfzh9ayv2,3vd82fohku11hf3cdgg5ikp0wq2coe,1YuWzNFr,2020-0188,2020-11-21,18:03:17,18:25:43,NA,incomplete,229,filling,1,left,Purple_Triangle_Chess_1.jpg,Green_Plus_Chess_2.jpg,Purple_Star_Grid_3.jpg,left,1105.695000034757,true,high,false
1YuWzNFr,3r6rzgk0yip7nifkjif6ljfzh9ayv2,3vd82fohku11hf3cdgg5ikp0wq2coe,1YuWzNFr,2020-0188,2020-11-21,18:03:17,18:25:43,NA,incomplete,230,filling,1,right,Blue_Circle_Chess_4.jpg,Blue_Plus_Dots_2.jpg,Green_Star_Chess_3.jpg,right,817.8899999475107,true,high,false
1YuWzNFr,3r6rzgk0yip7nifkjif6ljfzh9ayv2,3vd82fohku11hf3cdgg5ikp0wq2coe,1YuWzNFr,2020-0188,2020-11-21,18:03:17,18:25:43,NA,incomplete,231,filling,0,left,Green_Triangle_Stripes_4.jpg,Blue_Circle_Stripes_1.jpg,Green_Plus_Grid_2.jpg,right,1081.9549999432638,false,high,false
1YuWzNFr,3r6rzgk0yip7nifkjif6ljfzh9ayv2,3vd82fohku11hf3cdgg5ikp0wq2coe,1YuWzNFr,2020-0188,2020-11-21,18:03:17,18:25:43,NA,incomplete,232,filling,1,left,Purple_Circle_Grid_3.jpg,Blue_Star_Grid_2.jpg,Purple_Triangle_Chess_4.jpg,right,966.7099999496713,false,high,false
1YuWzNFr,3r6rzgk0yip7nifkjif6ljfzh9ayv2,3vd82fohku11hf3cdgg5ikp0wq2coe,1YuWzNFr,2020-0188,2020-11-21,18:03:17,18:25:43,NA,incomplete,233,filling,1,right,Red_Plus_Dots_3.jpg,Red_Triangle_Stripes_1.jpg,Green_Circle_Dots_2.jpg,left,525.9849999565631,false,high,false
1YuWzNFr,3r6rzgk0yip7nifkjif6ljfzh9ayv2,3vd82fohku11hf3cdgg5ikp0wq2coe,1YuWzNFr,2020-0188,2020-11-21,18:03:17,18:25:43,NA,incomplete,234,filling,1,left,Green_Plus_Grid_2.jpg,Purple_Circle_Grid_1.jpg,Green_Triangle_Chess_3.jpg,left,1107.480000006035,true,high,false
1YuWzNFr,3r6rzgk0yip7nifkjif6ljfzh9ayv2,3vd82fohku11hf3cdgg5ikp0wq2coe,1YuWzNFr,2020-0188,2020-11-21,18:03:17,18:25:43,NA,incomplete,235,filling,1,left,Blue_Triangle_Chess_4.jpg,Red_Plus_Chess_1.jpg,Blue_Star_Dots_3.jpg,left,1033.6849999148399,true,high,false
1YuWzNFr,3r6rzgk0yip7nifkjif6ljfzh9ayv2,3vd82fohku11hf3cdgg5ikp0wq2coe,1YuWzNFr,2020-0188,2020-11-21,18:03:17,18:25:43,NA,incomplete,236,filling,1,left,Purple_Circle_Dots_1.jpg,Red_Star_Dots_3.jpg,Purple_Triangle_Grid_4.jpg,left,874.8400000622496,true,high,false
1YuWzNFr,3r6rzgk0yip7nifkjif6ljfzh9ayv2,3vd82fohku11hf3cdgg5ikp0wq2coe,1YuWzNFr,2020-0188,2020-11-21,18:03:17,18:25:43,NA,incomplete,237,filling,1,left,Purple_Plus_Stripes_3.jpg,Red_Triangle_Stripes_1.jpg,Purple_Star_Chess_2.jpg,left,991.5950000286102,true,high,false
1YuWzNFr,3r6rzgk0yip7nifkjif6ljfzh9ayv2,3vd82fohku11hf3cdgg5ikp0wq2coe,1YuWzNFr,2020-0188,2020-11-21,18:03:17,18:25:43,NA,incomplete,238,filling,1,left,Blue_Plus_Stripes_1.jpg,Purple_Circle_Stripes_4.jpg,Blue_Triangle_Grid_3.jpg,left,1302.049999940209,true,high,false
1YuWzNFr,3r6rzgk0yip7nifkjif6ljfzh9ayv2,3vd82fohku11hf3cdgg5ikp0wq2coe,1YuWzNFr,2020-0188,2020-11-21,18:03:17,18:25:43,NA,incomplete,239,filling,1,right,Green_Triangle_Stripes_2.jpg,Green_Plus_Grid_1.jpg,Purple_Star_Stripes_4.jpg,right,916.3949999492615,true,high,false
1YuWzNFr,3r6rzgk0yip7nifkjif6ljfzh9ayv2,3vd82fohku11hf3cdgg5ikp0wq2coe,1YuWzNFr,2020-0188,2020-11-21,18:03:17,18:25:43,1325504.5749999117,1346839.8999999044,NA,NA,NA,NA,NA,NA,NA,NA,NA,NA,NA,undefined
