workerId,hitId,assignmentId,subject,studyid,exp_date,exp_start,exp_end,time_start,time_end,trial,type,reward_validity,answer,image_top,image_left,image_right,response,response_time,response_acc,volatility,practice
NHkcbAL5,36d1bwbeiqeywas4c57kpjvh4xs2mi,3vhp9mdgrrx7b2qjedxfvqgl291cfi,NHkcbAL5,2020-0188,2020-05-07,20:59:52,21:15:47,NA,incomplete,0,color,0,left,Red_Circle_Dots_3.jpg,Red_Triangle_Grid_4.jpg,Blue_Circle_Stripes_1.jpg,left,1031.1350000556558,true,NA,true
NHkcbAL5,36d1bwbeiqeywas4c57kpjvh4xs2mi,3vhp9mdgrrx7b2qjedxfvqgl291cfi,NHkcbAL5,2020-0188,2020-05-07,20:59:52,21:15:47,NA,incomplete,1,color,1,right,Blue_Circle_Dots_2.jpg,Green_Circle_Grid_1.jpg,Blue_Triangle_Stripes_4.jpg,right,1005.4849999723956,true,NA,true
NHkcbAL5,36d1bwbeiqeywas4c57kpjvh4xs2mi,3vhp9mdgrrx7b2qjedxfvqgl291cfi,NHkcbAL5,2020-0188,2020-05-07,20:59:52,21:15:47,NA,incomplete,2,color,1,right,Blue_Triangle_Grid_4.jpg,Green_Triangle_Dots_1.jpg,Blue_Star_Chess_2.jpg,right,801.5449999365956,true,NA,true
NHkcbAL5,36d1bwbeiqeywas4c57kpjvh4xs2mi,3vhp9mdgrrx7b2qjedxfvqgl291cfi,NHkcbAL5,2020-0188,2020-05-07,20:59:52,21:15:47,NA,incomplete,3,color,1,left,Blue_Triangle_Grid_4.jpg,Blue_Plus_Dots_3.jpg,Purple_Triangle_Chess_2.jpg,left,691.5399999124929,true,NA,true
NHkcbAL5,36d1bwbeiqeywas4c57kpjvh4xs2mi,3vhp9mdgrrx7b2qjedxfvqgl291cfi,NHkcbAL5,2020-0188,2020-05-07,20:59:52,21:15:47,NA,incomplete,4,color,1,left,Red_Plus_Grid_2.jpg,Red_Star_Chess_4.jpg,Green_Plus_Stripes_3.jpg,left,594.6400000248104,true,NA,true
NHkcbAL5,36d1bwbeiqeywas4c57kpjvh4xs2mi,3vhp9mdgrrx7b2qjedxfvqgl291cfi,NHkcbAL5,2020-0188,2020-05-07,20:59:52,21:15:47,NA,incomplete,5,color,1,left,Purple_Triangle_Dots_2.jpg,Purple_Plus_Chess_4.jpg,Green_Triangle_Stripes_1.jpg,left,591.4249999914318,true,NA,true
NHkcbAL5,36d1bwbeiqeywas4c57kpjvh4xs2mi,3vhp9mdgrrx7b2qjedxfvqgl291cfi,NHkcbAL5,2020-0188,2020-05-07,20:59:52,21:15:47,NA,incomplete,6,color,1,left,Green_Star_Dots_1.jpg,Green_Circle_Stripes_3.jpg,Blue_Star_Grid_4.jpg,left,519.815000006929,true,NA,true
NHkcbAL5,36d1bwbeiqeywas4c57kpjvh4xs2mi,3vhp9mdgrrx7b2qjedxfvqgl291cfi,NHkcbAL5,2020-0188,2020-05-07,20:59:52,21:15:47,NA,incomplete,7,color,1,right,Purple_Plus_Chess_4.jpg,Blue_Plus_Stripes_1.jpg,Purple_Star_Grid_2.jpg,right,638.7400000821799,true,NA,true
NHkcbAL5,36d1bwbeiqeywas4c57kpjvh4xs2mi,3vhp9mdgrrx7b2qjedxfvqgl291cfi,NHkcbAL5,2020-0188,2020-05-07,20:59:52,21:15:47,NA,incomplete,8,color,1,left,Green_Circle_Chess_2.jpg,Green_Star_Dots_4.jpg,Blue_Circle_Grid_3.jpg,left,612.0649999938905,true,NA,true
NHkcbAL5,36d1bwbeiqeywas4c57kpjvh4xs2mi,3vhp9mdgrrx7b2qjedxfvqgl291cfi,NHkcbAL5,2020-0188,2020-05-07,20:59:52,21:15:47,NA,incomplete,9,color,0,left,Red_Circle_Grid_3.jpg,Red_Star_Stripes_1.jpg,Blue_Circle_Chess_2.jpg,left,653.9999999804422,true,NA,true
NHkcbAL5,36d1bwbeiqeywas4c57kpjvh4xs2mi,3vhp9mdgrrx7b2qjedxfvqgl291cfi,NHkcbAL5,2020-0188,2020-05-07,20:59:52,21:15:47,NA,incomplete,10,color,0,right,Purple_Circle_Stripes_2.jpg,Blue_Circle_Chess_3.jpg,Purple_Triangle_Grid_4.jpg,right,743.9950000261888,true,NA,true
NHkcbAL5,36d1bwbeiqeywas4c57kpjvh4xs2mi,3vhp9mdgrrx7b2qjedxfvqgl291cfi,NHkcbAL5,2020-0188,2020-05-07,20:59:52,21:15:47,NA,incomplete,11,color,1,left,Green_Circle_Stripes_2.jpg,Green_Plus_Dots_4.jpg,Red_Circle_Chess_3.jpg,left,741.0699999891222,true,NA,true
NHkcbAL5,36d1bwbeiqeywas4c57kpjvh4xs2mi,3vhp9mdgrrx7b2qjedxfvqgl291cfi,NHkcbAL5,2020-0188,2020-05-07,20:59:52,21:15:47,NA,incomplete,12,color,0,right,Purple_Star_Chess_4.jpg,Red_Star_Stripes_3.jpg,Purple_Plus_Dots_1.jpg,right,1000.7650000043213,true,NA,true
NHkcbAL5,36d1bwbeiqeywas4c57kpjvh4xs2mi,3vhp9mdgrrx7b2qjedxfvqgl291cfi,NHkcbAL5,2020-0188,2020-05-07,20:59:52,21:15:47,NA,incomplete,13,color,1,left,Purple_Star_Chess_2.jpg,Purple_Circle_Stripes_4.jpg,Blue_Star_Grid_1.jpg,left,947.9099999880418,true,NA,true
NHkcbAL5,36d1bwbeiqeywas4c57kpjvh4xs2mi,3vhp9mdgrrx7b2qjedxfvqgl291cfi,NHkcbAL5,2020-0188,2020-05-07,20:59:52,21:15:47,NA,incomplete,14,color,0,right,Blue_Star_Grid_3.jpg,Green_Star_Stripes_1.jpg,Blue_Circle_Chess_2.jpg,right,743.4000000357628,true,NA,true
NHkcbAL5,36d1bwbeiqeywas4c57kpjvh4xs2mi,3vhp9mdgrrx7b2qjedxfvqgl291cfi,NHkcbAL5,2020-0188,2020-05-07,20:59:52,21:15:47,NA,incomplete,15,color,1,left,Blue_Star_Grid_1.jpg,Blue_Plus_Chess_4.jpg,Red_Star_Stripes_3.jpg,left,782.024999964051,true,NA,true
NHkcbAL5,36d1bwbeiqeywas4c57kpjvh4xs2mi,3vhp9mdgrrx7b2qjedxfvqgl291cfi,NHkcbAL5,2020-0188,2020-05-07,20:59:52,21:15:47,NA,incomplete,16,color,1,right,Blue_Triangle_Stripes_1.jpg,Green_Triangle_Chess_4.jpg,Blue_Star_Dots_3.jpg,right,958.7550000287592,true,NA,true
NHkcbAL5,36d1bwbeiqeywas4c57kpjvh4xs2mi,3vhp9mdgrrx7b2qjedxfvqgl291cfi,NHkcbAL5,2020-0188,2020-05-07,20:59:52,21:15:47,NA,incomplete,17,color,1,left,Purple_Circle_Stripes_3.jpg,Purple_Triangle_Dots_2.jpg,Blue_Circle_Grid_4.jpg,left,979.1350000305101,true,NA,true
NHkcbAL5,36d1bwbeiqeywas4c57kpjvh4xs2mi,3vhp9mdgrrx7b2qjedxfvqgl291cfi,NHkcbAL5,2020-0188,2020-05-07,20:59:52,21:15:47,NA,incomplete,18,color,1,right,Red_Circle_Stripes_2.jpg,Purple_Circle_Dots_4.jpg,Red_Triangle_Grid_1.jpg,right,559.3299999600276,true,NA,true
NHkcbAL5,36d1bwbeiqeywas4c57kpjvh4xs2mi,3vhp9mdgrrx7b2qjedxfvqgl291cfi,NHkcbAL5,2020-0188,2020-05-07,20:59:52,21:15:47,NA,incomplete,19,color,1,left,Blue_Triangle_Chess_3.jpg,Blue_Star_Stripes_2.jpg,Purple_Triangle_Grid_4.jpg,left,511.36500004213303,true,NA,true
NHkcbAL5,36d1bwbeiqeywas4c57kpjvh4xs2mi,3vhp9mdgrrx7b2qjedxfvqgl291cfi,NHkcbAL5,2020-0188,2020-05-07,20:59:52,21:15:47,NA,incomplete,20,shape,1,right,Red_Plus_Chess_1.jpg,Red_Triangle_Dots_2.jpg,Green_Plus_Grid_4.jpg,left,514.9449999444187,false,NA,true
NHkcbAL5,36d1bwbeiqeywas4c57kpjvh4xs2mi,3vhp9mdgrrx7b2qjedxfvqgl291cfi,NHkcbAL5,2020-0188,2020-05-07,20:59:52,21:15:47,NA,incomplete,21,shape,1,left,Blue_Plus_Dots_2.jpg,Red_Plus_Grid_1.jpg,Blue_Triangle_Chess_4.jpg,left,1656.819999916479,true,NA,true
NHkcbAL5,36d1bwbeiqeywas4c57kpjvh4xs2mi,3vhp9mdgrrx7b2qjedxfvqgl291cfi,NHkcbAL5,2020-0188,2020-05-07,20:59:52,21:15:47,NA,incomplete,22,shape,0,right,Green_Triangle_Stripes_4.jpg,Green_Circle_Grid_2.jpg,Red_Triangle_Chess_3.jpg,right,1276.1249999748543,true,NA,true
NHkcbAL5,36d1bwbeiqeywas4c57kpjvh4xs2mi,3vhp9mdgrrx7b2qjedxfvqgl291cfi,NHkcbAL5,2020-0188,2020-05-07,20:59:52,21:15:47,NA,incomplete,23,shape,0,left,Blue_Triangle_Grid_4.jpg,Red_Triangle_Chess_3.jpg,Blue_Circle_Dots_2.jpg,left,978.2899999991059,true,NA,true
NHkcbAL5,36d1bwbeiqeywas4c57kpjvh4xs2mi,3vhp9mdgrrx7b2qjedxfvqgl291cfi,NHkcbAL5,2020-0188,2020-05-07,20:59:52,21:15:47,NA,incomplete,24,shape,1,left,Purple_Plus_Grid_1.jpg,Red_Plus_Chess_2.jpg,Purple_Triangle_Stripes_4.jpg,left,1114.949999959208,true,NA,true
NHkcbAL5,36d1bwbeiqeywas4c57kpjvh4xs2mi,3vhp9mdgrrx7b2qjedxfvqgl291cfi,NHkcbAL5,2020-0188,2020-05-07,20:59:52,21:15:47,NA,incomplete,25,shape,1,left,Red_Circle_Grid_2.jpg,Purple_Circle_Chess_4.jpg,Red_Star_Stripes_3.jpg,right,1437.0500000659376,false,NA,true
NHkcbAL5,36d1bwbeiqeywas4c57kpjvh4xs2mi,3vhp9mdgrrx7b2qjedxfvqgl291cfi,NHkcbAL5,2020-0188,2020-05-07,20:59:52,21:15:47,NA,incomplete,26,shape,1,right,Green_Circle_Grid_1.jpg,Green_Triangle_Dots_4.jpg,Blue_Circle_Chess_2.jpg,right,1222.249999991618,true,NA,true
NHkcbAL5,36d1bwbeiqeywas4c57kpjvh4xs2mi,3vhp9mdgrrx7b2qjedxfvqgl291cfi,NHkcbAL5,2020-0188,2020-05-07,20:59:52,21:15:47,NA,incomplete,27,shape,1,right,Red_Circle_Dots_2.jpg,Red_Star_Stripes_3.jpg,Green_Circle_Chess_4.jpg,right,1110.0700000533834,true,NA,true
NHkcbAL5,36d1bwbeiqeywas4c57kpjvh4xs2mi,3vhp9mdgrrx7b2qjedxfvqgl291cfi,NHkcbAL5,2020-0188,2020-05-07,20:59:52,21:15:47,NA,incomplete,28,shape,1,right,Red_Triangle_Dots_1.jpg,Red_Star_Chess_4.jpg,Blue_Triangle_Grid_3.jpg,right,987.9249999066815,true,NA,true
NHkcbAL5,36d1bwbeiqeywas4c57kpjvh4xs2mi,3vhp9mdgrrx7b2qjedxfvqgl291cfi,NHkcbAL5,2020-0188,2020-05-07,20:59:52,21:15:47,NA,incomplete,29,shape,1,left,Blue_Triangle_Dots_3.jpg,Purple_Triangle_Grid_2.jpg,Blue_Plus_Chess_4.jpg,left,1084.1050000162795,true,NA,true
NHkcbAL5,36d1bwbeiqeywas4c57kpjvh4xs2mi,3vhp9mdgrrx7b2qjedxfvqgl291cfi,NHkcbAL5,2020-0188,2020-05-07,20:59:52,21:15:47,NA,incomplete,30,shape,1,right,Blue_Plus_Chess_3.jpg,Blue_Star_Dots_4.jpg,Red_Plus_Stripes_2.jpg,right,1143.6550000216812,true,NA,true
NHkcbAL5,36d1bwbeiqeywas4c57kpjvh4xs2mi,3vhp9mdgrrx7b2qjedxfvqgl291cfi,NHkcbAL5,2020-0188,2020-05-07,20:59:52,21:15:47,NA,incomplete,31,shape,1,right,Blue_Circle_Grid_1.jpg,Blue_Triangle_Dots_4.jpg,Green_Circle_Stripes_3.jpg,right,1123.7199999159202,true,NA,true
NHkcbAL5,36d1bwbeiqeywas4c57kpjvh4xs2mi,3vhp9mdgrrx7b2qjedxfvqgl291cfi,NHkcbAL5,2020-0188,2020-05-07,20:59:52,21:15:47,NA,incomplete,32,shape,1,left,Blue_Star_Dots_3.jpg,Red_Star_Stripes_4.jpg,Blue_Plus_Chess_2.jpg,left,1003.1850000377744,true,NA,true
NHkcbAL5,36d1bwbeiqeywas4c57kpjvh4xs2mi,3vhp9mdgrrx7b2qjedxfvqgl291cfi,NHkcbAL5,2020-0188,2020-05-07,20:59:52,21:15:47,NA,incomplete,33,shape,0,right,Blue_Circle_Chess_1.jpg,Blue_Star_Dots_2.jpg,Red_Circle_Stripes_3.jpg,right,951.2099999701604,true,NA,true
NHkcbAL5,36d1bwbeiqeywas4c57kpjvh4xs2mi,3vhp9mdgrrx7b2qjedxfvqgl291cfi,NHkcbAL5,2020-0188,2020-05-07,20:59:52,21:15:47,NA,incomplete,34,shape,1,right,Red_Plus_Grid_4.jpg,Red_Star_Chess_1.jpg,Purple_Plus_Stripes_2.jpg,right,1067.3450001049787,true,NA,true
NHkcbAL5,36d1bwbeiqeywas4c57kpjvh4xs2mi,3vhp9mdgrrx7b2qjedxfvqgl291cfi,NHkcbAL5,2020-0188,2020-05-07,20:59:52,21:15:47,NA,incomplete,35,shape,1,right,Blue_Circle_Chess_3.jpg,Blue_Plus_Dots_4.jpg,Green_Circle_Stripes_1.jpg,right,1029.3349999701604,true,NA,true
NHkcbAL5,36d1bwbeiqeywas4c57kpjvh4xs2mi,3vhp9mdgrrx7b2qjedxfvqgl291cfi,NHkcbAL5,2020-0188,2020-05-07,20:59:52,21:15:47,NA,incomplete,36,shape,1,left,Green_Circle_Grid_3.jpg,Red_Circle_Chess_2.jpg,Green_Plus_Stripes_4.jpg,left,1136.9100000010803,true,NA,true
NHkcbAL5,36d1bwbeiqeywas4c57kpjvh4xs2mi,3vhp9mdgrrx7b2qjedxfvqgl291cfi,NHkcbAL5,2020-0188,2020-05-07,20:59:52,21:15:47,NA,incomplete,37,shape,1,right,Purple_Triangle_Dots_4.jpg,Purple_Circle_Stripes_2.jpg,Red_Triangle_Chess_1.jpg,right,1111.3700000569224,true,NA,true
NHkcbAL5,36d1bwbeiqeywas4c57kpjvh4xs2mi,3vhp9mdgrrx7b2qjedxfvqgl291cfi,NHkcbAL5,2020-0188,2020-05-07,20:59:52,21:15:47,NA,incomplete,38,shape,1,right,Red_Plus_Dots_3.jpg,Red_Triangle_Chess_2.jpg,Purple_Plus_Stripes_1.jpg,right,893.2550000026822,true,NA,true
NHkcbAL5,36d1bwbeiqeywas4c57kpjvh4xs2mi,3vhp9mdgrrx7b2qjedxfvqgl291cfi,NHkcbAL5,2020-0188,2020-05-07,20:59:52,21:15:47,NA,incomplete,39,shape,1,left,Blue_Triangle_Chess_2.jpg,Red_Triangle_Grid_1.jpg,Blue_Circle_Stripes_4.jpg,left,745.6600000150502,true,NA,true
NHkcbAL5,36d1bwbeiqeywas4c57kpjvh4xs2mi,3vhp9mdgrrx7b2qjedxfvqgl291cfi,NHkcbAL5,2020-0188,2020-05-07,20:59:52,21:15:47,NA,incomplete,0,color,1,right,Green_Plus_Grid_4.jpg,Blue_Plus_Chess_1.jpg,Green_Triangle_Stripes_2.jpg,left,891.6699999244884,false,high,false
NHkcbAL5,36d1bwbeiqeywas4c57kpjvh4xs2mi,3vhp9mdgrrx7b2qjedxfvqgl291cfi,NHkcbAL5,2020-0188,2020-05-07,20:59:52,21:15:47,NA,incomplete,1,color,1,right,Red_Star_Grid_2.jpg,Green_Star_Stripes_1.jpg,Red_Plus_Chess_4.jpg,right,543.8599999761209,true,high,false
NHkcbAL5,36d1bwbeiqeywas4c57kpjvh4xs2mi,3vhp9mdgrrx7b2qjedxfvqgl291cfi,NHkcbAL5,2020-0188,2020-05-07,20:59:52,21:15:47,NA,incomplete,2,color,1,left,Green_Plus_Grid_1.jpg,Green_Circle_Stripes_4.jpg,Purple_Plus_Chess_2.jpg,left,615.3550000162795,true,high,false
NHkcbAL5,36d1bwbeiqeywas4c57kpjvh4xs2mi,3vhp9mdgrrx7b2qjedxfvqgl291cfi,NHkcbAL5,2020-0188,2020-05-07,20:59:52,21:15:47,NA,incomplete,3,color,1,right,Red_Triangle_Chess_2.jpg,Blue_Triangle_Dots_4.jpg,Red_Star_Stripes_1.jpg,right,510.3400000371039,true,high,false
NHkcbAL5,36d1bwbeiqeywas4c57kpjvh4xs2mi,3vhp9mdgrrx7b2qjedxfvqgl291cfi,NHkcbAL5,2020-0188,2020-05-07,20:59:52,21:15:47,NA,incomplete,4,color,1,right,Purple_Triangle_Grid_4.jpg,Blue_Triangle_Chess_3.jpg,Purple_Plus_Stripes_1.jpg,right,485.8750000130385,true,high,false
NHkcbAL5,36d1bwbeiqeywas4c57kpjvh4xs2mi,3vhp9mdgrrx7b2qjedxfvqgl291cfi,NHkcbAL5,2020-0188,2020-05-07,20:59:52,21:15:47,NA,incomplete,5,color,0,right,Red_Triangle_Dots_3.jpg,Green_Triangle_Stripes_1.jpg,Red_Plus_Chess_2.jpg,right,532.8750000335276,true,high,false
NHkcbAL5,36d1bwbeiqeywas4c57kpjvh4xs2mi,3vhp9mdgrrx7b2qjedxfvqgl291cfi,NHkcbAL5,2020-0188,2020-05-07,20:59:52,21:15:47,NA,incomplete,6,color,1,left,Purple_Circle_Chess_3.jpg,Purple_Triangle_Dots_4.jpg,Blue_Circle_Stripes_1.jpg,right,670.8499999949709,false,high,false
NHkcbAL5,36d1bwbeiqeywas4c57kpjvh4xs2mi,3vhp9mdgrrx7b2qjedxfvqgl291cfi,NHkcbAL5,2020-0188,2020-05-07,20:59:52,21:15:47,NA,incomplete,7,color,1,right,Purple_Star_Dots_2.jpg,Green_Star_Grid_4.jpg,Purple_Circle_Chess_3.jpg,right,492.68499994650483,true,high,false
NHkcbAL5,36d1bwbeiqeywas4c57kpjvh4xs2mi,3vhp9mdgrrx7b2qjedxfvqgl291cfi,NHkcbAL5,2020-0188,2020-05-07,20:59:52,21:15:47,NA,incomplete,8,color,1,left,Green_Plus_Grid_3.jpg,Green_Triangle_Stripes_1.jpg,Red_Plus_Chess_4.jpg,left,572.965000057593,true,high,false
NHkcbAL5,36d1bwbeiqeywas4c57kpjvh4xs2mi,3vhp9mdgrrx7b2qjedxfvqgl291cfi,NHkcbAL5,2020-0188,2020-05-07,20:59:52,21:15:47,NA,incomplete,9,color,1,right,Red_Star_Chess_4.jpg,Blue_Star_Dots_1.jpg,Red_Plus_Stripes_2.jpg,right,487.55000007804483,true,high,false
NHkcbAL5,36d1bwbeiqeywas4c57kpjvh4xs2mi,3vhp9mdgrrx7b2qjedxfvqgl291cfi,NHkcbAL5,2020-0188,2020-05-07,20:59:52,21:15:47,NA,incomplete,10,shape,1,left,Blue_Star_Grid_1.jpg,Red_Star_Stripes_3.jpg,Blue_Circle_Dots_4.jpg,right,597.8650000179186,false,high,false
NHkcbAL5,36d1bwbeiqeywas4c57kpjvh4xs2mi,3vhp9mdgrrx7b2qjedxfvqgl291cfi,NHkcbAL5,2020-0188,2020-05-07,20:59:52,21:15:47,NA,incomplete,11,shape,0,right,Red_Star_Dots_2.jpg,Red_Triangle_Stripes_4.jpg,Green_Star_Grid_1.jpg,right,725.3100000089034,true,high,false
NHkcbAL5,36d1bwbeiqeywas4c57kpjvh4xs2mi,3vhp9mdgrrx7b2qjedxfvqgl291cfi,NHkcbAL5,2020-0188,2020-05-07,20:59:52,21:15:47,NA,incomplete,12,shape,1,right,Red_Star_Grid_4.jpg,Red_Circle_Chess_2.jpg,Purple_Star_Dots_1.jpg,right,658.3600000012666,true,high,false
NHkcbAL5,36d1bwbeiqeywas4c57kpjvh4xs2mi,3vhp9mdgrrx7b2qjedxfvqgl291cfi,NHkcbAL5,2020-0188,2020-05-07,20:59:52,21:15:47,NA,incomplete,13,shape,1,right,Purple_Circle_Stripes_3.jpg,Purple_Star_Dots_2.jpg,Red_Circle_Chess_4.jpg,right,595.5149999354035,true,high,false
NHkcbAL5,36d1bwbeiqeywas4c57kpjvh4xs2mi,3vhp9mdgrrx7b2qjedxfvqgl291cfi,NHkcbAL5,2020-0188,2020-05-07,20:59:52,21:15:47,NA,incomplete,14,shape,1,right,Green_Plus_Grid_4.jpg,Green_Star_Dots_2.jpg,Blue_Plus_Chess_1.jpg,right,685.3350000455976,true,high,false
NHkcbAL5,36d1bwbeiqeywas4c57kpjvh4xs2mi,3vhp9mdgrrx7b2qjedxfvqgl291cfi,NHkcbAL5,2020-0188,2020-05-07,20:59:52,21:15:47,NA,incomplete,15,shape,0,right,Purple_Star_Dots_3.jpg,Purple_Triangle_Chess_2.jpg,Green_Star_Grid_4.jpg,right,591.4450000273064,true,high,false
NHkcbAL5,36d1bwbeiqeywas4c57kpjvh4xs2mi,3vhp9mdgrrx7b2qjedxfvqgl291cfi,NHkcbAL5,2020-0188,2020-05-07,20:59:52,21:15:47,NA,incomplete,16,shape,1,right,Blue_Triangle_Stripes_2.jpg,Blue_Star_Grid_1.jpg,Red_Triangle_Dots_3.jpg,right,717.1450000023469,true,high,false
NHkcbAL5,36d1bwbeiqeywas4c57kpjvh4xs2mi,3vhp9mdgrrx7b2qjedxfvqgl291cfi,NHkcbAL5,2020-0188,2020-05-07,20:59:52,21:15:47,NA,incomplete,17,shape,1,right,Red_Triangle_Grid_4.jpg,Red_Star_Stripes_1.jpg,Green_Triangle_Chess_2.jpg,right,583.1500000786036,true,high,false
NHkcbAL5,36d1bwbeiqeywas4c57kpjvh4xs2mi,3vhp9mdgrrx7b2qjedxfvqgl291cfi,NHkcbAL5,2020-0188,2020-05-07,20:59:52,21:15:47,NA,incomplete,18,shape,1,left,Purple_Star_Chess_1.jpg,Green_Star_Grid_2.jpg,Purple_Circle_Dots_3.jpg,left,657.9950000159442,true,high,false
NHkcbAL5,36d1bwbeiqeywas4c57kpjvh4xs2mi,3vhp9mdgrrx7b2qjedxfvqgl291cfi,NHkcbAL5,2020-0188,2020-05-07,20:59:52,21:15:47,NA,incomplete,19,shape,0,left,Red_Plus_Dots_1.jpg,Blue_Plus_Stripes_4.jpg,Red_Circle_Grid_3.jpg,left,782.9749999800697,true,high,false
NHkcbAL5,36d1bwbeiqeywas4c57kpjvh4xs2mi,3vhp9mdgrrx7b2qjedxfvqgl291cfi,NHkcbAL5,2020-0188,2020-05-07,20:59:52,21:15:47,NA,incomplete,20,color,1,right,Purple_Plus_Chess_3.jpg,Green_Plus_Dots_4.jpg,Purple_Star_Stripes_1.jpg,left,1028.0850001145154,false,high,false
NHkcbAL5,36d1bwbeiqeywas4c57kpjvh4xs2mi,3vhp9mdgrrx7b2qjedxfvqgl291cfi,NHkcbAL5,2020-0188,2020-05-07,20:59:52,21:15:47,NA,incomplete,21,color,1,right,Purple_Star_Dots_2.jpg,Blue_Star_Chess_1.jpg,Purple_Triangle_Grid_4.jpg,right,445.55000006221235,true,high,false
NHkcbAL5,36d1bwbeiqeywas4c57kpjvh4xs2mi,3vhp9mdgrrx7b2qjedxfvqgl291cfi,NHkcbAL5,2020-0188,2020-05-07,20:59:52,21:15:47,NA,incomplete,22,color,1,right,Purple_Plus_Chess_4.jpg,Blue_Plus_Grid_3.jpg,Purple_Circle_Stripes_2.jpg,right,593.4650000417605,true,high,false
NHkcbAL5,36d1bwbeiqeywas4c57kpjvh4xs2mi,3vhp9mdgrrx7b2qjedxfvqgl291cfi,NHkcbAL5,2020-0188,2020-05-07,20:59:52,21:15:47,NA,incomplete,23,color,1,right,Purple_Plus_Chess_4.jpg,Green_Plus_Dots_1.jpg,Purple_Star_Grid_2.jpg,right,504.17500000912696,true,high,false
NHkcbAL5,36d1bwbeiqeywas4c57kpjvh4xs2mi,3vhp9mdgrrx7b2qjedxfvqgl291cfi,NHkcbAL5,2020-0188,2020-05-07,20:59:52,21:15:47,NA,incomplete,24,color,1,right,Red_Plus_Chess_3.jpg,Purple_Plus_Dots_1.jpg,Red_Circle_Stripes_2.jpg,right,488.4799999417737,true,high,false
NHkcbAL5,36d1bwbeiqeywas4c57kpjvh4xs2mi,3vhp9mdgrrx7b2qjedxfvqgl291cfi,NHkcbAL5,2020-0188,2020-05-07,20:59:52,21:15:47,NA,incomplete,25,color,1,right,Blue_Star_Chess_4.jpg,Purple_Star_Grid_1.jpg,Blue_Plus_Stripes_3.jpg,right,468.0650000227615,true,high,false
NHkcbAL5,36d1bwbeiqeywas4c57kpjvh4xs2mi,3vhp9mdgrrx7b2qjedxfvqgl291cfi,NHkcbAL5,2020-0188,2020-05-07,20:59:52,21:15:47,NA,incomplete,26,color,0,left,Green_Circle_Chess_4.jpg,Green_Triangle_Grid_3.jpg,Blue_Circle_Dots_2.jpg,left,744.0850000130013,true,high,false
NHkcbAL5,36d1bwbeiqeywas4c57kpjvh4xs2mi,3vhp9mdgrrx7b2qjedxfvqgl291cfi,NHkcbAL5,2020-0188,2020-05-07,20:59:52,21:15:47,NA,incomplete,27,color,1,right,Blue_Plus_Stripes_1.jpg,Red_Plus_Chess_4.jpg,Blue_Star_Grid_2.jpg,left,783.5050000576302,false,high,false
NHkcbAL5,36d1bwbeiqeywas4c57kpjvh4xs2mi,3vhp9mdgrrx7b2qjedxfvqgl291cfi,NHkcbAL5,2020-0188,2020-05-07,20:59:52,21:15:47,NA,incomplete,28,color,0,left,Green_Star_Stripes_2.jpg,Green_Triangle_Chess_1.jpg,Purple_Star_Dots_3.jpg,left,471.1349999997765,true,high,false
NHkcbAL5,36d1bwbeiqeywas4c57kpjvh4xs2mi,3vhp9mdgrrx7b2qjedxfvqgl291cfi,NHkcbAL5,2020-0188,2020-05-07,20:59:52,21:15:47,NA,incomplete,29,color,1,right,Red_Star_Grid_3.jpg,Purple_Star_Stripes_4.jpg,Red_Plus_Chess_1.jpg,left,1002.6500000385568,false,high,false
NHkcbAL5,36d1bwbeiqeywas4c57kpjvh4xs2mi,3vhp9mdgrrx7b2qjedxfvqgl291cfi,NHkcbAL5,2020-0188,2020-05-07,20:59:52,21:15:47,NA,incomplete,30,shape,1,left,Purple_Star_Chess_2.jpg,Blue_Star_Stripes_3.jpg,Purple_Circle_Dots_1.jpg,left,552.1949999965727,true,high,false
NHkcbAL5,36d1bwbeiqeywas4c57kpjvh4xs2mi,3vhp9mdgrrx7b2qjedxfvqgl291cfi,NHkcbAL5,2020-0188,2020-05-07,20:59:52,21:15:47,NA,incomplete,31,shape,1,left,Green_Circle_Stripes_1.jpg,Blue_Circle_Grid_3.jpg,Green_Plus_Chess_2.jpg,left,579.1299999691546,true,high,false
NHkcbAL5,36d1bwbeiqeywas4c57kpjvh4xs2mi,3vhp9mdgrrx7b2qjedxfvqgl291cfi,NHkcbAL5,2020-0188,2020-05-07,20:59:52,21:15:47,NA,incomplete,32,shape,1,left,Purple_Triangle_Chess_3.jpg,Blue_Triangle_Stripes_1.jpg,Purple_Plus_Dots_2.jpg,left,616.1400000564754,true,high,false
NHkcbAL5,36d1bwbeiqeywas4c57kpjvh4xs2mi,3vhp9mdgrrx7b2qjedxfvqgl291cfi,NHkcbAL5,2020-0188,2020-05-07,20:59:52,21:15:47,NA,incomplete,33,shape,1,right,Purple_Star_Dots_1.jpg,Purple_Circle_Grid_4.jpg,Green_Star_Stripes_2.jpg,right,1012.419999926351,true,high,false
NHkcbAL5,36d1bwbeiqeywas4c57kpjvh4xs2mi,3vhp9mdgrrx7b2qjedxfvqgl291cfi,NHkcbAL5,2020-0188,2020-05-07,20:59:52,21:15:47,NA,incomplete,34,shape,1,right,Green_Plus_Grid_2.jpg,Green_Star_Dots_4.jpg,Blue_Plus_Chess_1.jpg,right,789.8349999450147,true,high,false
NHkcbAL5,36d1bwbeiqeywas4c57kpjvh4xs2mi,3vhp9mdgrrx7b2qjedxfvqgl291cfi,NHkcbAL5,2020-0188,2020-05-07,20:59:52,21:15:47,NA,incomplete,35,shape,1,left,Purple_Plus_Stripes_3.jpg,Blue_Plus_Grid_1.jpg,Purple_Circle_Chess_4.jpg,left,678.1799999298528,true,high,false
NHkcbAL5,36d1bwbeiqeywas4c57kpjvh4xs2mi,3vhp9mdgrrx7b2qjedxfvqgl291cfi,NHkcbAL5,2020-0188,2020-05-07,20:59:52,21:15:47,NA,incomplete,36,shape,0,right,Green_Triangle_Stripes_3.jpg,Green_Plus_Grid_4.jpg,Purple_Triangle_Chess_2.jpg,right,594.6000000694767,true,high,false
NHkcbAL5,36d1bwbeiqeywas4c57kpjvh4xs2mi,3vhp9mdgrrx7b2qjedxfvqgl291cfi,NHkcbAL5,2020-0188,2020-05-07,20:59:52,21:15:47,NA,incomplete,37,shape,1,right,Green_Circle_Dots_2.jpg,Green_Star_Grid_1.jpg,Red_Circle_Chess_3.jpg,right,641.7099999962375,true,high,false
NHkcbAL5,36d1bwbeiqeywas4c57kpjvh4xs2mi,3vhp9mdgrrx7b2qjedxfvqgl291cfi,NHkcbAL5,2020-0188,2020-05-07,20:59:52,21:15:47,NA,incomplete,38,shape,0,right,Green_Circle_Dots_3.jpg,Green_Star_Chess_2.jpg,Red_Circle_Stripes_4.jpg,right,636.5800000494346,true,high,false
NHkcbAL5,36d1bwbeiqeywas4c57kpjvh4xs2mi,3vhp9mdgrrx7b2qjedxfvqgl291cfi,NHkcbAL5,2020-0188,2020-05-07,20:59:52,21:15:47,NA,incomplete,39,shape,1,left,Blue_Triangle_Stripes_1.jpg,Purple_Triangle_Chess_4.jpg,Blue_Circle_Dots_2.jpg,right,705.3550001000986,false,high,false
NHkcbAL5,36d1bwbeiqeywas4c57kpjvh4xs2mi,3vhp9mdgrrx7b2qjedxfvqgl291cfi,NHkcbAL5,2020-0188,2020-05-07,20:59:52,21:15:47,NA,incomplete,40,color,0,right,Purple_Star_Grid_4.jpg,Green_Star_Dots_1.jpg,Purple_Plus_Stripes_3.jpg,left,618.1099999230355,false,high,false
NHkcbAL5,36d1bwbeiqeywas4c57kpjvh4xs2mi,3vhp9mdgrrx7b2qjedxfvqgl291cfi,NHkcbAL5,2020-0188,2020-05-07,20:59:52,21:15:47,NA,incomplete,41,color,1,right,Red_Triangle_Dots_4.jpg,Purple_Triangle_Stripes_2.jpg,Red_Circle_Grid_1.jpg,left,652.1400000201538,false,high,false
NHkcbAL5,36d1bwbeiqeywas4c57kpjvh4xs2mi,3vhp9mdgrrx7b2qjedxfvqgl291cfi,NHkcbAL5,2020-0188,2020-05-07,20:59:52,21:15:47,NA,incomplete,42,color,1,left,Green_Plus_Dots_3.jpg,Green_Triangle_Grid_2.jpg,Red_Plus_Stripes_1.jpg,right,748.810000019148,false,high,false
NHkcbAL5,36d1bwbeiqeywas4c57kpjvh4xs2mi,3vhp9mdgrrx7b2qjedxfvqgl291cfi,NHkcbAL5,2020-0188,2020-05-07,20:59:52,21:15:47,NA,incomplete,43,color,1,left,Green_Triangle_Stripes_1.jpg,Green_Plus_Dots_2.jpg,Purple_Triangle_Grid_3.jpg,right,569.480000063777,false,high,false
NHkcbAL5,36d1bwbeiqeywas4c57kpjvh4xs2mi,3vhp9mdgrrx7b2qjedxfvqgl291cfi,NHkcbAL5,2020-0188,2020-05-07,20:59:52,21:15:47,NA,incomplete,44,color,1,right,Red_Circle_Stripes_3.jpg,Green_Circle_Grid_4.jpg,Red_Triangle_Chess_1.jpg,left,681.5649999771267,false,high,false
NHkcbAL5,36d1bwbeiqeywas4c57kpjvh4xs2mi,3vhp9mdgrrx7b2qjedxfvqgl291cfi,NHkcbAL5,2020-0188,2020-05-07,20:59:52,21:15:47,NA,incomplete,45,color,1,left,Green_Circle_Dots_1.jpg,Green_Star_Stripes_2.jpg,Blue_Circle_Chess_4.jpg,right,608.0550000770018,false,high,false
NHkcbAL5,36d1bwbeiqeywas4c57kpjvh4xs2mi,3vhp9mdgrrx7b2qjedxfvqgl291cfi,NHkcbAL5,2020-0188,2020-05-07,20:59:52,21:15:47,NA,incomplete,46,color,1,left,Green_Star_Chess_2.jpg,Green_Circle_Dots_3.jpg,Blue_Star_Grid_1.jpg,right,813.5250000050291,false,high,false
NHkcbAL5,36d1bwbeiqeywas4c57kpjvh4xs2mi,3vhp9mdgrrx7b2qjedxfvqgl291cfi,NHkcbAL5,2020-0188,2020-05-07,20:59:52,21:15:47,NA,incomplete,47,color,1,left,Green_Circle_Stripes_1.jpg,Green_Plus_Dots_2.jpg,Red_Circle_Grid_4.jpg,right,725.3400000045076,false,high,false
NHkcbAL5,36d1bwbeiqeywas4c57kpjvh4xs2mi,3vhp9mdgrrx7b2qjedxfvqgl291cfi,NHkcbAL5,2020-0188,2020-05-07,20:59:52,21:15:47,NA,incomplete,48,color,0,right,Green_Triangle_Chess_4.jpg,Blue_Triangle_Grid_3.jpg,Green_Plus_Dots_1.jpg,right,530.1499998895451,true,high,false
NHkcbAL5,36d1bwbeiqeywas4c57kpjvh4xs2mi,3vhp9mdgrrx7b2qjedxfvqgl291cfi,NHkcbAL5,2020-0188,2020-05-07,20:59:52,21:15:47,NA,incomplete,49,color,0,left,Red_Circle_Grid_1.jpg,Red_Plus_Chess_2.jpg,Green_Circle_Dots_4.jpg,right,1100.1300000352785,false,high,false
NHkcbAL5,36d1bwbeiqeywas4c57kpjvh4xs2mi,3vhp9mdgrrx7b2qjedxfvqgl291cfi,NHkcbAL5,2020-0188,2020-05-07,20:59:52,21:15:47,NA,incomplete,50,shape,1,left,Green_Circle_Chess_3.jpg,Blue_Circle_Stripes_2.jpg,Green_Triangle_Grid_4.jpg,left,593.1499999715015,true,high,false
NHkcbAL5,36d1bwbeiqeywas4c57kpjvh4xs2mi,3vhp9mdgrrx7b2qjedxfvqgl291cfi,NHkcbAL5,2020-0188,2020-05-07,20:59:52,21:15:47,NA,incomplete,51,shape,1,left,Red_Triangle_Grid_2.jpg,Green_Triangle_Stripes_4.jpg,Red_Star_Dots_1.jpg,left,713.5550000239164,true,high,false
NHkcbAL5,36d1bwbeiqeywas4c57kpjvh4xs2mi,3vhp9mdgrrx7b2qjedxfvqgl291cfi,NHkcbAL5,2020-0188,2020-05-07,20:59:52,21:15:47,NA,incomplete,52,shape,1,right,Red_Circle_Dots_2.jpg,Red_Triangle_Chess_4.jpg,Purple_Circle_Stripes_1.jpg,right,808.0550000304356,true,high,false
NHkcbAL5,36d1bwbeiqeywas4c57kpjvh4xs2mi,3vhp9mdgrrx7b2qjedxfvqgl291cfi,NHkcbAL5,2020-0188,2020-05-07,20:59:52,21:15:47,NA,incomplete,53,shape,1,right,Green_Circle_Dots_1.jpg,Green_Triangle_Chess_4.jpg,Purple_Circle_Stripes_2.jpg,right,628.1200000084937,true,high,false
NHkcbAL5,36d1bwbeiqeywas4c57kpjvh4xs2mi,3vhp9mdgrrx7b2qjedxfvqgl291cfi,NHkcbAL5,2020-0188,2020-05-07,20:59:52,21:15:47,NA,incomplete,54,shape,0,left,Red_Star_Stripes_4.jpg,Green_Star_Dots_2.jpg,Red_Triangle_Grid_3.jpg,left,728.6950000561774,true,high,false
NHkcbAL5,36d1bwbeiqeywas4c57kpjvh4xs2mi,3vhp9mdgrrx7b2qjedxfvqgl291cfi,NHkcbAL5,2020-0188,2020-05-07,20:59:52,21:15:47,NA,incomplete,55,shape,1,left,Purple_Circle_Stripes_2.jpg,Blue_Circle_Grid_3.jpg,Purple_Star_Chess_4.jpg,right,646.1050000507385,false,high,false
NHkcbAL5,36d1bwbeiqeywas4c57kpjvh4xs2mi,3vhp9mdgrrx7b2qjedxfvqgl291cfi,NHkcbAL5,2020-0188,2020-05-07,20:59:52,21:15:47,NA,incomplete,56,shape,1,left,Green_Triangle_Grid_2.jpg,Purple_Triangle_Dots_4.jpg,Green_Circle_Chess_1.jpg,right,487.044999958016,false,high,false
NHkcbAL5,36d1bwbeiqeywas4c57kpjvh4xs2mi,3vhp9mdgrrx7b2qjedxfvqgl291cfi,NHkcbAL5,2020-0188,2020-05-07,20:59:52,21:15:47,NA,incomplete,57,shape,1,right,Purple_Star_Grid_3.jpg,Purple_Circle_Stripes_1.jpg,Blue_Star_Chess_2.jpg,right,736.0849999822676,true,high,false
NHkcbAL5,36d1bwbeiqeywas4c57kpjvh4xs2mi,3vhp9mdgrrx7b2qjedxfvqgl291cfi,NHkcbAL5,2020-0188,2020-05-07,20:59:52,21:15:47,NA,incomplete,58,shape,0,right,Blue_Triangle_Chess_3.jpg,Blue_Circle_Grid_2.jpg,Green_Triangle_Stripes_1.jpg,right,968.1700000073761,true,high,false
NHkcbAL5,36d1bwbeiqeywas4c57kpjvh4xs2mi,3vhp9mdgrrx7b2qjedxfvqgl291cfi,NHkcbAL5,2020-0188,2020-05-07,20:59:52,21:15:47,NA,incomplete,59,shape,1,right,Purple_Triangle_Stripes_3.jpg,Purple_Plus_Grid_4.jpg,Red_Triangle_Dots_1.jpg,right,656.455000047572,true,high,false
NHkcbAL5,36d1bwbeiqeywas4c57kpjvh4xs2mi,3vhp9mdgrrx7b2qjedxfvqgl291cfi,NHkcbAL5,2020-0188,2020-05-07,20:59:52,21:15:47,NA,incomplete,60,color,0,right,Purple_Circle_Stripes_4.jpg,Blue_Circle_Dots_1.jpg,Purple_Star_Grid_2.jpg,left,832.4250000296161,false,high,false
NHkcbAL5,36d1bwbeiqeywas4c57kpjvh4xs2mi,3vhp9mdgrrx7b2qjedxfvqgl291cfi,NHkcbAL5,2020-0188,2020-05-07,20:59:52,21:15:47,NA,incomplete,61,color,1,right,Blue_Circle_Grid_3.jpg,Green_Circle_Stripes_1.jpg,Blue_Star_Dots_4.jpg,left,668.2449999498203,false,high,false
NHkcbAL5,36d1bwbeiqeywas4c57kpjvh4xs2mi,3vhp9mdgrrx7b2qjedxfvqgl291cfi,NHkcbAL5,2020-0188,2020-05-07,20:59:52,21:15:47,NA,incomplete,62,color,1,right,Blue_Circle_Dots_2.jpg,Red_Circle_Grid_4.jpg,Blue_Plus_Stripes_3.jpg,right,450.6950000068173,true,high,false
NHkcbAL5,36d1bwbeiqeywas4c57kpjvh4xs2mi,3vhp9mdgrrx7b2qjedxfvqgl291cfi,NHkcbAL5,2020-0188,2020-05-07,20:59:52,21:15:47,NA,incomplete,63,color,0,right,Blue_Plus_Grid_4.jpg,Purple_Plus_Dots_2.jpg,Blue_Circle_Chess_1.jpg,right,588.495000032708,true,high,false
NHkcbAL5,36d1bwbeiqeywas4c57kpjvh4xs2mi,3vhp9mdgrrx7b2qjedxfvqgl291cfi,NHkcbAL5,2020-0188,2020-05-07,20:59:52,21:15:47,NA,incomplete,64,color,1,left,Red_Triangle_Chess_3.jpg,Red_Plus_Dots_1.jpg,Green_Triangle_Stripes_4.jpg,left,1101.3050000183284,true,high,false
NHkcbAL5,36d1bwbeiqeywas4c57kpjvh4xs2mi,3vhp9mdgrrx7b2qjedxfvqgl291cfi,NHkcbAL5,2020-0188,2020-05-07,20:59:52,21:15:47,NA,incomplete,65,color,1,left,Purple_Plus_Grid_4.jpg,Purple_Star_Stripes_1.jpg,Green_Plus_Chess_3.jpg,left,721.6999999945983,true,high,false
NHkcbAL5,36d1bwbeiqeywas4c57kpjvh4xs2mi,3vhp9mdgrrx7b2qjedxfvqgl291cfi,NHkcbAL5,2020-0188,2020-05-07,20:59:52,21:15:47,NA,incomplete,66,color,1,left,Green_Circle_Grid_3.jpg,Green_Star_Stripes_2.jpg,Blue_Circle_Chess_1.jpg,left,780.2349999547005,true,high,false
NHkcbAL5,36d1bwbeiqeywas4c57kpjvh4xs2mi,3vhp9mdgrrx7b2qjedxfvqgl291cfi,NHkcbAL5,2020-0188,2020-05-07,20:59:52,21:15:47,NA,incomplete,67,color,1,left,Green_Plus_Grid_3.jpg,Green_Star_Dots_2.jpg,Blue_Plus_Stripes_1.jpg,left,543.790000025183,true,high,false
NHkcbAL5,36d1bwbeiqeywas4c57kpjvh4xs2mi,3vhp9mdgrrx7b2qjedxfvqgl291cfi,NHkcbAL5,2020-0188,2020-05-07,20:59:52,21:15:47,NA,incomplete,68,color,1,right,Blue_Plus_Chess_1.jpg,Green_Plus_Dots_3.jpg,Blue_Triangle_Stripes_2.jpg,right,748.810000019148,true,high,false
NHkcbAL5,36d1bwbeiqeywas4c57kpjvh4xs2mi,3vhp9mdgrrx7b2qjedxfvqgl291cfi,NHkcbAL5,2020-0188,2020-05-07,20:59:52,21:15:47,NA,incomplete,69,color,0,right,Green_Circle_Dots_4.jpg,Purple_Circle_Grid_2.jpg,Green_Plus_Stripes_3.jpg,right,1042.6250000018626,true,high,false
NHkcbAL5,36d1bwbeiqeywas4c57kpjvh4xs2mi,3vhp9mdgrrx7b2qjedxfvqgl291cfi,NHkcbAL5,2020-0188,2020-05-07,20:59:52,21:15:47,NA,incomplete,70,shape,1,left,Purple_Star_Stripes_2.jpg,Blue_Star_Dots_1.jpg,Purple_Circle_Grid_3.jpg,left,761.3450000062585,true,high,false
NHkcbAL5,36d1bwbeiqeywas4c57kpjvh4xs2mi,3vhp9mdgrrx7b2qjedxfvqgl291cfi,NHkcbAL5,2020-0188,2020-05-07,20:59:52,21:15:47,NA,incomplete,71,shape,1,right,Red_Plus_Grid_1.jpg,Red_Circle_Chess_2.jpg,Green_Plus_Dots_4.jpg,right,845.3150000423193,true,high,false
NHkcbAL5,36d1bwbeiqeywas4c57kpjvh4xs2mi,3vhp9mdgrrx7b2qjedxfvqgl291cfi,NHkcbAL5,2020-0188,2020-05-07,20:59:52,21:15:47,NA,incomplete,72,shape,1,left,Green_Plus_Dots_4.jpg,Red_Plus_Stripes_3.jpg,Green_Circle_Grid_2.jpg,left,874.5799999451265,true,high,false
NHkcbAL5,36d1bwbeiqeywas4c57kpjvh4xs2mi,3vhp9mdgrrx7b2qjedxfvqgl291cfi,NHkcbAL5,2020-0188,2020-05-07,20:59:52,21:15:47,NA,incomplete,73,shape,1,left,Red_Circle_Grid_4.jpg,Blue_Circle_Chess_1.jpg,Red_Plus_Dots_2.jpg,left,874.3400000967085,true,high,false
NHkcbAL5,36d1bwbeiqeywas4c57kpjvh4xs2mi,3vhp9mdgrrx7b2qjedxfvqgl291cfi,NHkcbAL5,2020-0188,2020-05-07,20:59:52,21:15:47,NA,incomplete,74,shape,1,right,Blue_Plus_Stripes_2.jpg,Blue_Triangle_Grid_1.jpg,Purple_Plus_Chess_3.jpg,right,948.4099999535829,true,high,false
NHkcbAL5,36d1bwbeiqeywas4c57kpjvh4xs2mi,3vhp9mdgrrx7b2qjedxfvqgl291cfi,NHkcbAL5,2020-0188,2020-05-07,20:59:52,21:15:47,NA,incomplete,75,shape,1,right,Purple_Star_Dots_2.jpg,Purple_Plus_Grid_3.jpg,Green_Star_Chess_4.jpg,right,796.2899999693036,true,high,false
NHkcbAL5,36d1bwbeiqeywas4c57kpjvh4xs2mi,3vhp9mdgrrx7b2qjedxfvqgl291cfi,NHkcbAL5,2020-0188,2020-05-07,20:59:52,21:15:47,NA,incomplete,76,shape,1,left,Blue_Plus_Grid_4.jpg,Purple_Plus_Chess_1.jpg,Blue_Circle_Stripes_2.jpg,left,644.1399999894202,true,high,false
NHkcbAL5,36d1bwbeiqeywas4c57kpjvh4xs2mi,3vhp9mdgrrx7b2qjedxfvqgl291cfi,NHkcbAL5,2020-0188,2020-05-07,20:59:52,21:15:47,NA,incomplete,77,shape,1,right,Blue_Star_Grid_1.jpg,Blue_Circle_Stripes_3.jpg,Green_Star_Chess_2.jpg,right,1108.1750000594184,true,high,false
NHkcbAL5,36d1bwbeiqeywas4c57kpjvh4xs2mi,3vhp9mdgrrx7b2qjedxfvqgl291cfi,NHkcbAL5,2020-0188,2020-05-07,20:59:52,21:15:47,NA,incomplete,78,shape,1,left,Blue_Plus_Grid_1.jpg,Red_Plus_Chess_3.jpg,Blue_Triangle_Stripes_4.jpg,left,980.7399999117479,true,high,false
NHkcbAL5,36d1bwbeiqeywas4c57kpjvh4xs2mi,3vhp9mdgrrx7b2qjedxfvqgl291cfi,NHkcbAL5,2020-0188,2020-05-07,20:59:52,21:15:47,NA,incomplete,79,shape,1,right,Red_Star_Chess_1.jpg,Red_Triangle_Stripes_2.jpg,Purple_Star_Grid_4.jpg,right,813.2149999728426,true,high,false
NHkcbAL5,36d1bwbeiqeywas4c57kpjvh4xs2mi,3vhp9mdgrrx7b2qjedxfvqgl291cfi,NHkcbAL5,2020-0188,2020-05-07,20:59:52,21:15:47,NA,incomplete,80,color,1,left,Green_Circle_Dots_4.jpg,Green_Star_Grid_2.jpg,Blue_Circle_Stripes_3.jpg,right,1152.6349999476224,false,high,false
NHkcbAL5,36d1bwbeiqeywas4c57kpjvh4xs2mi,3vhp9mdgrrx7b2qjedxfvqgl291cfi,NHkcbAL5,2020-0188,2020-05-07,20:59:52,21:15:47,NA,incomplete,81,color,1,left,Green_Triangle_Dots_4.jpg,Green_Circle_Chess_1.jpg,Blue_Triangle_Stripes_2.jpg,left,568.2049999013543,true,high,false
NHkcbAL5,36d1bwbeiqeywas4c57kpjvh4xs2mi,3vhp9mdgrrx7b2qjedxfvqgl291cfi,NHkcbAL5,2020-0188,2020-05-07,20:59:52,21:15:47,NA,incomplete,82,color,1,left,Blue_Circle_Chess_2.jpg,Blue_Triangle_Stripes_3.jpg,Red_Circle_Grid_1.jpg,left,904.3199999723583,true,high,false
NHkcbAL5,36d1bwbeiqeywas4c57kpjvh4xs2mi,3vhp9mdgrrx7b2qjedxfvqgl291cfi,NHkcbAL5,2020-0188,2020-05-07,20:59:52,21:15:47,NA,incomplete,83,color,1,right,Purple_Star_Grid_4.jpg,Red_Star_Dots_2.jpg,Purple_Circle_Chess_1.jpg,right,709.584999945946,true,high,false
NHkcbAL5,36d1bwbeiqeywas4c57kpjvh4xs2mi,3vhp9mdgrrx7b2qjedxfvqgl291cfi,NHkcbAL5,2020-0188,2020-05-07,20:59:52,21:15:47,NA,incomplete,84,color,1,right,Red_Star_Chess_3.jpg,Blue_Star_Dots_4.jpg,Red_Triangle_Stripes_2.jpg,right,688.8899999903515,true,high,false
NHkcbAL5,36d1bwbeiqeywas4c57kpjvh4xs2mi,3vhp9mdgrrx7b2qjedxfvqgl291cfi,NHkcbAL5,2020-0188,2020-05-07,20:59:52,21:15:47,NA,incomplete,85,color,1,right,Red_Circle_Chess_4.jpg,Green_Circle_Grid_1.jpg,Red_Star_Stripes_2.jpg,right,431.2599999830127,true,high,false
NHkcbAL5,36d1bwbeiqeywas4c57kpjvh4xs2mi,3vhp9mdgrrx7b2qjedxfvqgl291cfi,NHkcbAL5,2020-0188,2020-05-07,20:59:52,21:15:47,NA,incomplete,86,color,1,left,Blue_Triangle_Dots_3.jpg,Blue_Star_Grid_4.jpg,Red_Triangle_Stripes_1.jpg,left,630.1550000207499,true,high,false
NHkcbAL5,36d1bwbeiqeywas4c57kpjvh4xs2mi,3vhp9mdgrrx7b2qjedxfvqgl291cfi,NHkcbAL5,2020-0188,2020-05-07,20:59:52,21:15:47,NA,incomplete,87,color,1,left,Purple_Plus_Chess_2.jpg,Purple_Circle_Grid_1.jpg,Red_Plus_Dots_4.jpg,left,780.3400000557303,true,high,false
NHkcbAL5,36d1bwbeiqeywas4c57kpjvh4xs2mi,3vhp9mdgrrx7b2qjedxfvqgl291cfi,NHkcbAL5,2020-0188,2020-05-07,20:59:52,21:15:47,NA,incomplete,88,color,1,left,Red_Plus_Chess_1.jpg,Red_Circle_Dots_3.jpg,Blue_Plus_Grid_2.jpg,left,600.745000061579,true,high,false
NHkcbAL5,36d1bwbeiqeywas4c57kpjvh4xs2mi,3vhp9mdgrrx7b2qjedxfvqgl291cfi,NHkcbAL5,2020-0188,2020-05-07,20:59:52,21:15:47,NA,incomplete,89,color,1,left,Green_Triangle_Stripes_4.jpg,Green_Plus_Grid_3.jpg,Purple_Triangle_Chess_2.jpg,left,599.540000082925,true,high,false
NHkcbAL5,36d1bwbeiqeywas4c57kpjvh4xs2mi,3vhp9mdgrrx7b2qjedxfvqgl291cfi,NHkcbAL5,2020-0188,2020-05-07,20:59:52,21:15:47,NA,incomplete,90,shape,1,left,Red_Circle_Grid_3.jpg,Blue_Circle_Stripes_4.jpg,Red_Star_Dots_1.jpg,right,535.9900000039488,false,high,false
NHkcbAL5,36d1bwbeiqeywas4c57kpjvh4xs2mi,3vhp9mdgrrx7b2qjedxfvqgl291cfi,NHkcbAL5,2020-0188,2020-05-07,20:59:52,21:15:47,NA,incomplete,91,shape,1,right,Blue_Circle_Chess_3.jpg,Blue_Triangle_Dots_1.jpg,Green_Circle_Stripes_4.jpg,left,627.5550000136718,false,high,false
NHkcbAL5,36d1bwbeiqeywas4c57kpjvh4xs2mi,3vhp9mdgrrx7b2qjedxfvqgl291cfi,NHkcbAL5,2020-0188,2020-05-07,20:59:52,21:15:47,NA,incomplete,92,shape,0,right,Blue_Circle_Dots_4.jpg,Blue_Star_Grid_1.jpg,Purple_Circle_Chess_3.jpg,left,596.1349999997765,false,high,false
NHkcbAL5,36d1bwbeiqeywas4c57kpjvh4xs2mi,3vhp9mdgrrx7b2qjedxfvqgl291cfi,NHkcbAL5,2020-0188,2020-05-07,20:59:52,21:15:47,NA,incomplete,93,shape,1,left,Blue_Star_Chess_4.jpg,Purple_Star_Dots_1.jpg,Blue_Triangle_Grid_3.jpg,right,561.710000038147,false,high,false
NHkcbAL5,36d1bwbeiqeywas4c57kpjvh4xs2mi,3vhp9mdgrrx7b2qjedxfvqgl291cfi,NHkcbAL5,2020-0188,2020-05-07,20:59:52,21:15:47,NA,incomplete,94,shape,0,left,Green_Star_Stripes_3.jpg,Purple_Star_Dots_1.jpg,Green_Circle_Grid_4.jpg,left,833.8599998969585,true,high,false
NHkcbAL5,36d1bwbeiqeywas4c57kpjvh4xs2mi,3vhp9mdgrrx7b2qjedxfvqgl291cfi,NHkcbAL5,2020-0188,2020-05-07,20:59:52,21:15:47,NA,incomplete,95,shape,1,left,Blue_Star_Grid_2.jpg,Purple_Star_Stripes_1.jpg,Blue_Circle_Chess_3.jpg,left,1039.1550000058487,true,high,false
NHkcbAL5,36d1bwbeiqeywas4c57kpjvh4xs2mi,3vhp9mdgrrx7b2qjedxfvqgl291cfi,NHkcbAL5,2020-0188,2020-05-07,20:59:52,21:15:47,NA,incomplete,96,shape,0,left,Green_Plus_Chess_1.jpg,Blue_Plus_Dots_3.jpg,Green_Star_Stripes_2.jpg,left,759.275000076741,true,high,false
NHkcbAL5,36d1bwbeiqeywas4c57kpjvh4xs2mi,3vhp9mdgrrx7b2qjedxfvqgl291cfi,NHkcbAL5,2020-0188,2020-05-07,20:59:52,21:15:47,NA,incomplete,97,shape,1,left,Green_Triangle_Dots_2.jpg,Purple_Triangle_Chess_3.jpg,Green_Star_Grid_4.jpg,right,637.7949999878183,false,high,false
NHkcbAL5,36d1bwbeiqeywas4c57kpjvh4xs2mi,3vhp9mdgrrx7b2qjedxfvqgl291cfi,NHkcbAL5,2020-0188,2020-05-07,20:59:52,21:15:47,NA,incomplete,98,shape,1,right,Red_Triangle_Chess_3.jpg,Red_Plus_Stripes_4.jpg,Purple_Triangle_Grid_2.jpg,right,742.4149999860674,true,high,false
NHkcbAL5,36d1bwbeiqeywas4c57kpjvh4xs2mi,3vhp9mdgrrx7b2qjedxfvqgl291cfi,NHkcbAL5,2020-0188,2020-05-07,20:59:52,21:15:47,NA,incomplete,99,shape,1,left,Red_Plus_Chess_4.jpg,Green_Plus_Grid_2.jpg,Red_Star_Dots_1.jpg,left,773.6799999838695,true,high,false
NHkcbAL5,36d1bwbeiqeywas4c57kpjvh4xs2mi,3vhp9mdgrrx7b2qjedxfvqgl291cfi,NHkcbAL5,2020-0188,2020-05-07,20:59:52,21:15:47,NA,incomplete,100,color,0,right,Blue_Circle_Chess_1.jpg,Green_Circle_Grid_4.jpg,Blue_Star_Stripes_3.jpg,left,1317.4850000068545,false,high,false
NHkcbAL5,36d1bwbeiqeywas4c57kpjvh4xs2mi,3vhp9mdgrrx7b2qjedxfvqgl291cfi,NHkcbAL5,2020-0188,2020-05-07,20:59:52,21:15:47,NA,incomplete,101,color,1,right,Blue_Triangle_Grid_4.jpg,Purple_Triangle_Chess_3.jpg,Blue_Plus_Dots_1.jpg,left,760.6900000246242,false,high,false
NHkcbAL5,36d1bwbeiqeywas4c57kpjvh4xs2mi,3vhp9mdgrrx7b2qjedxfvqgl291cfi,NHkcbAL5,2020-0188,2020-05-07,20:59:52,21:15:47,NA,incomplete,102,color,1,left,Red_Triangle_Stripes_2.jpg,Red_Plus_Grid_3.jpg,Green_Triangle_Dots_4.jpg,right,796.8899999978021,false,high,false
NHkcbAL5,36d1bwbeiqeywas4c57kpjvh4xs2mi,3vhp9mdgrrx7b2qjedxfvqgl291cfi,NHkcbAL5,2020-0188,2020-05-07,20:59:52,21:15:47,NA,incomplete,103,color,1,right,Green_Plus_Dots_1.jpg,Blue_Plus_Stripes_4.jpg,Green_Triangle_Chess_3.jpg,left,781.029999954626,false,high,false
NHkcbAL5,36d1bwbeiqeywas4c57kpjvh4xs2mi,3vhp9mdgrrx7b2qjedxfvqgl291cfi,NHkcbAL5,2020-0188,2020-05-07,20:59:52,21:15:47,NA,incomplete,104,color,1,left,Green_Triangle_Dots_4.jpg,Green_Circle_Grid_3.jpg,Purple_Triangle_Stripes_1.jpg,left,532.4450000189245,true,high,false
NHkcbAL5,36d1bwbeiqeywas4c57kpjvh4xs2mi,3vhp9mdgrrx7b2qjedxfvqgl291cfi,NHkcbAL5,2020-0188,2020-05-07,20:59:52,21:15:47,NA,incomplete,105,color,1,right,Green_Star_Chess_2.jpg,Blue_Star_Dots_3.jpg,Green_Circle_Stripes_4.jpg,right,545.3400000697002,true,high,false
NHkcbAL5,36d1bwbeiqeywas4c57kpjvh4xs2mi,3vhp9mdgrrx7b2qjedxfvqgl291cfi,NHkcbAL5,2020-0188,2020-05-07,20:59:52,21:15:47,NA,incomplete,106,color,0,left,Blue_Triangle_Grid_2.jpg,Blue_Star_Stripes_3.jpg,Red_Triangle_Chess_1.jpg,left,667.7800000179559,true,high,false
NHkcbAL5,36d1bwbeiqeywas4c57kpjvh4xs2mi,3vhp9mdgrrx7b2qjedxfvqgl291cfi,NHkcbAL5,2020-0188,2020-05-07,20:59:52,21:15:47,NA,incomplete,107,color,1,left,Blue_Star_Stripes_1.jpg,Blue_Triangle_Chess_4.jpg,Red_Star_Grid_3.jpg,left,688.2849999237806,true,high,false
NHkcbAL5,36d1bwbeiqeywas4c57kpjvh4xs2mi,3vhp9mdgrrx7b2qjedxfvqgl291cfi,NHkcbAL5,2020-0188,2020-05-07,20:59:52,21:15:47,NA,incomplete,108,color,1,right,Blue_Star_Grid_3.jpg,Green_Star_Dots_4.jpg,Blue_Circle_Chess_2.jpg,right,602.7299999259412,true,high,false
NHkcbAL5,36d1bwbeiqeywas4c57kpjvh4xs2mi,3vhp9mdgrrx7b2qjedxfvqgl291cfi,NHkcbAL5,2020-0188,2020-05-07,20:59:52,21:15:47,NA,incomplete,109,color,1,right,Purple_Circle_Grid_4.jpg,Green_Circle_Stripes_2.jpg,Purple_Plus_Chess_1.jpg,right,636.7999999783933,true,high,false
NHkcbAL5,36d1bwbeiqeywas4c57kpjvh4xs2mi,3vhp9mdgrrx7b2qjedxfvqgl291cfi,NHkcbAL5,2020-0188,2020-05-07,20:59:52,21:15:47,NA,incomplete,110,shape,1,left,Green_Triangle_Dots_2.jpg,Blue_Triangle_Chess_1.jpg,Green_Star_Stripes_4.jpg,right,528.775000013411,false,high,false
NHkcbAL5,36d1bwbeiqeywas4c57kpjvh4xs2mi,3vhp9mdgrrx7b2qjedxfvqgl291cfi,NHkcbAL5,2020-0188,2020-05-07,20:59:52,21:15:47,NA,incomplete,111,shape,0,right,Red_Star_Stripes_2.jpg,Red_Circle_Grid_1.jpg,Blue_Star_Dots_3.jpg,right,1405.8100000256673,true,high,false
NHkcbAL5,36d1bwbeiqeywas4c57kpjvh4xs2mi,3vhp9mdgrrx7b2qjedxfvqgl291cfi,NHkcbAL5,2020-0188,2020-05-07,20:59:52,21:15:47,NA,incomplete,112,shape,1,left,Red_Star_Chess_3.jpg,Purple_Star_Dots_4.jpg,Red_Circle_Grid_1.jpg,left,737.4350000172853,true,high,false
NHkcbAL5,36d1bwbeiqeywas4c57kpjvh4xs2mi,3vhp9mdgrrx7b2qjedxfvqgl291cfi,NHkcbAL5,2020-0188,2020-05-07,20:59:52,21:15:47,NA,incomplete,113,shape,1,left,Purple_Circle_Dots_2.jpg,Blue_Circle_Grid_3.jpg,Purple_Plus_Chess_4.jpg,left,574.0150000201538,true,high,false
NHkcbAL5,36d1bwbeiqeywas4c57kpjvh4xs2mi,3vhp9mdgrrx7b2qjedxfvqgl291cfi,NHkcbAL5,2020-0188,2020-05-07,20:59:52,21:15:47,NA,incomplete,114,shape,1,right,Purple_Plus_Dots_4.jpg,Purple_Star_Grid_2.jpg,Blue_Plus_Chess_3.jpg,right,645.1599999563769,true,high,false
NHkcbAL5,36d1bwbeiqeywas4c57kpjvh4xs2mi,3vhp9mdgrrx7b2qjedxfvqgl291cfi,NHkcbAL5,2020-0188,2020-05-07,20:59:52,21:15:47,NA,incomplete,115,shape,0,right,Red_Plus_Stripes_1.jpg,Red_Triangle_Grid_2.jpg,Blue_Plus_Chess_3.jpg,right,646.0799999767914,true,high,false
NHkcbAL5,36d1bwbeiqeywas4c57kpjvh4xs2mi,3vhp9mdgrrx7b2qjedxfvqgl291cfi,NHkcbAL5,2020-0188,2020-05-07,20:59:52,21:15:47,NA,incomplete,116,shape,1,left,Green_Plus_Chess_4.jpg,Blue_Plus_Stripes_2.jpg,Green_Circle_Grid_3.jpg,right,646.7249999986961,false,high,false
NHkcbAL5,36d1bwbeiqeywas4c57kpjvh4xs2mi,3vhp9mdgrrx7b2qjedxfvqgl291cfi,NHkcbAL5,2020-0188,2020-05-07,20:59:52,21:15:47,NA,incomplete,117,shape,1,left,Red_Circle_Grid_2.jpg,Purple_Circle_Stripes_1.jpg,Red_Plus_Dots_4.jpg,left,615.334999980405,true,high,false
NHkcbAL5,36d1bwbeiqeywas4c57kpjvh4xs2mi,3vhp9mdgrrx7b2qjedxfvqgl291cfi,NHkcbAL5,2020-0188,2020-05-07,20:59:52,21:15:47,NA,incomplete,118,shape,1,right,Purple_Triangle_Dots_4.jpg,Purple_Plus_Grid_2.jpg,Blue_Triangle_Chess_3.jpg,right,612.0149999624118,true,high,false
NHkcbAL5,36d1bwbeiqeywas4c57kpjvh4xs2mi,3vhp9mdgrrx7b2qjedxfvqgl291cfi,NHkcbAL5,2020-0188,2020-05-07,20:59:52,21:15:47,NA,incomplete,119,shape,0,right,Purple_Triangle_Chess_4.jpg,Purple_Star_Stripes_2.jpg,Red_Triangle_Dots_1.jpg,right,585.9900000505149,true,high,false
NHkcbAL5,36d1bwbeiqeywas4c57kpjvh4xs2mi,3vhp9mdgrrx7b2qjedxfvqgl291cfi,NHkcbAL5,2020-0188,2020-05-07,20:59:52,21:15:47,NA,incomplete,120,color,0,right,Green_Triangle_Grid_1.jpg,Purple_Triangle_Chess_2.jpg,Green_Plus_Stripes_3.jpg,left,805.3349999245256,false,high,false
NHkcbAL5,36d1bwbeiqeywas4c57kpjvh4xs2mi,3vhp9mdgrrx7b2qjedxfvqgl291cfi,NHkcbAL5,2020-0188,2020-05-07,20:59:52,21:15:47,NA,incomplete,121,color,1,right,Blue_Plus_Dots_2.jpg,Purple_Plus_Stripes_3.jpg,Blue_Triangle_Grid_4.jpg,left,775.359999970533,false,high,false
NHkcbAL5,36d1bwbeiqeywas4c57kpjvh4xs2mi,3vhp9mdgrrx7b2qjedxfvqgl291cfi,NHkcbAL5,2020-0188,2020-05-07,20:59:52,21:15:47,NA,incomplete,122,color,1,left,Blue_Circle_Chess_3.jpg,Blue_Triangle_Dots_1.jpg,Red_Circle_Grid_4.jpg,right,740.4799999203533,false,high,false
NHkcbAL5,36d1bwbeiqeywas4c57kpjvh4xs2mi,3vhp9mdgrrx7b2qjedxfvqgl291cfi,NHkcbAL5,2020-0188,2020-05-07,20:59:52,21:15:47,NA,incomplete,123,color,1,right,Green_Circle_Stripes_4.jpg,Blue_Circle_Grid_2.jpg,Green_Plus_Chess_1.jpg,right,468.63500005565584,true,high,false
NHkcbAL5,36d1bwbeiqeywas4c57kpjvh4xs2mi,3vhp9mdgrrx7b2qjedxfvqgl291cfi,NHkcbAL5,2020-0188,2020-05-07,20:59:52,21:15:47,NA,incomplete,124,color,1,left,Red_Circle_Dots_3.jpg,Red_Plus_Stripes_1.jpg,Blue_Circle_Chess_2.jpg,left,806.2700000591576,true,high,false
NHkcbAL5,36d1bwbeiqeywas4c57kpjvh4xs2mi,3vhp9mdgrrx7b2qjedxfvqgl291cfi,NHkcbAL5,2020-0188,2020-05-07,20:59:52,21:15:47,NA,incomplete,125,color,1,left,Purple_Circle_Dots_2.jpg,Purple_Star_Chess_1.jpg,Green_Circle_Stripes_3.jpg,left,597.2499999916181,true,high,false
NHkcbAL5,36d1bwbeiqeywas4c57kpjvh4xs2mi,3vhp9mdgrrx7b2qjedxfvqgl291cfi,NHkcbAL5,2020-0188,2020-05-07,20:59:52,21:15:47,NA,incomplete,126,color,0,left,Blue_Circle_Stripes_1.jpg,Blue_Triangle_Chess_2.jpg,Red_Circle_Dots_4.jpg,left,556.6849999595433,true,high,false
NHkcbAL5,36d1bwbeiqeywas4c57kpjvh4xs2mi,3vhp9mdgrrx7b2qjedxfvqgl291cfi,NHkcbAL5,2020-0188,2020-05-07,20:59:52,21:15:47,NA,incomplete,127,color,1,right,Purple_Circle_Grid_2.jpg,Blue_Circle_Chess_4.jpg,Purple_Triangle_Stripes_3.jpg,right,410.28000006917864,true,high,false
NHkcbAL5,36d1bwbeiqeywas4c57kpjvh4xs2mi,3vhp9mdgrrx7b2qjedxfvqgl291cfi,NHkcbAL5,2020-0188,2020-05-07,20:59:52,21:15:47,NA,incomplete,128,color,1,right,Green_Circle_Stripes_3.jpg,Red_Circle_Dots_4.jpg,Green_Triangle_Chess_1.jpg,right,463.3400000166148,true,high,false
NHkcbAL5,36d1bwbeiqeywas4c57kpjvh4xs2mi,3vhp9mdgrrx7b2qjedxfvqgl291cfi,NHkcbAL5,2020-0188,2020-05-07,20:59:52,21:15:47,NA,incomplete,129,color,1,right,Purple_Plus_Grid_2.jpg,Blue_Plus_Dots_1.jpg,Purple_Circle_Stripes_3.jpg,right,444.0249999752268,true,high,false
NHkcbAL5,36d1bwbeiqeywas4c57kpjvh4xs2mi,3vhp9mdgrrx7b2qjedxfvqgl291cfi,NHkcbAL5,2020-0188,2020-05-07,20:59:52,21:15:47,NA,incomplete,130,color,1,right,Blue_Circle_Chess_3.jpg,Red_Circle_Grid_1.jpg,Blue_Triangle_Stripes_4.jpg,right,622.6650000317022,true,high,false
NHkcbAL5,36d1bwbeiqeywas4c57kpjvh4xs2mi,3vhp9mdgrrx7b2qjedxfvqgl291cfi,NHkcbAL5,2020-0188,2020-05-07,20:59:52,21:15:47,NA,incomplete,131,color,0,right,Red_Star_Grid_2.jpg,Green_Star_Chess_4.jpg,Red_Plus_Stripes_1.jpg,right,447.01500004157424,true,high,false
NHkcbAL5,36d1bwbeiqeywas4c57kpjvh4xs2mi,3vhp9mdgrrx7b2qjedxfvqgl291cfi,NHkcbAL5,2020-0188,2020-05-07,20:59:52,21:15:47,NA,incomplete,132,color,1,right,Purple_Plus_Grid_2.jpg,Green_Plus_Stripes_1.jpg,Purple_Circle_Dots_4.jpg,right,431.45000003278255,true,high,false
NHkcbAL5,36d1bwbeiqeywas4c57kpjvh4xs2mi,3vhp9mdgrrx7b2qjedxfvqgl291cfi,NHkcbAL5,2020-0188,2020-05-07,20:59:52,21:15:47,NA,incomplete,133,color,1,left,Green_Plus_Dots_2.jpg,Green_Star_Chess_4.jpg,Purple_Plus_Stripes_3.jpg,left,669.7699999203905,true,high,false
NHkcbAL5,36d1bwbeiqeywas4c57kpjvh4xs2mi,3vhp9mdgrrx7b2qjedxfvqgl291cfi,NHkcbAL5,2020-0188,2020-05-07,20:59:52,21:15:47,NA,incomplete,134,color,1,left,Red_Circle_Stripes_1.jpg,Red_Plus_Chess_2.jpg,Green_Circle_Grid_4.jpg,left,776.8700000597164,true,high,false
NHkcbAL5,36d1bwbeiqeywas4c57kpjvh4xs2mi,3vhp9mdgrrx7b2qjedxfvqgl291cfi,NHkcbAL5,2020-0188,2020-05-07,20:59:52,21:15:47,NA,incomplete,135,color,0,right,Red_Circle_Dots_3.jpg,Blue_Circle_Chess_2.jpg,Red_Plus_Stripes_4.jpg,right,617.545000044629,true,high,false
NHkcbAL5,36d1bwbeiqeywas4c57kpjvh4xs2mi,3vhp9mdgrrx7b2qjedxfvqgl291cfi,NHkcbAL5,2020-0188,2020-05-07,20:59:52,21:15:47,NA,incomplete,136,color,1,left,Green_Star_Grid_4.jpg,Green_Plus_Stripes_3.jpg,Red_Star_Dots_1.jpg,left,584.0850000968203,true,high,false
NHkcbAL5,36d1bwbeiqeywas4c57kpjvh4xs2mi,3vhp9mdgrrx7b2qjedxfvqgl291cfi,NHkcbAL5,2020-0188,2020-05-07,20:59:52,21:15:47,NA,incomplete,137,color,1,right,Green_Triangle_Grid_4.jpg,Blue_Triangle_Dots_3.jpg,Green_Circle_Chess_1.jpg,right,483.0349999247119,true,high,false
NHkcbAL5,36d1bwbeiqeywas4c57kpjvh4xs2mi,3vhp9mdgrrx7b2qjedxfvqgl291cfi,NHkcbAL5,2020-0188,2020-05-07,20:59:52,21:15:47,NA,incomplete,138,color,1,left,Blue_Triangle_Stripes_2.jpg,Blue_Circle_Grid_4.jpg,Purple_Triangle_Chess_3.jpg,left,497.37499991897494,true,high,false
NHkcbAL5,36d1bwbeiqeywas4c57kpjvh4xs2mi,3vhp9mdgrrx7b2qjedxfvqgl291cfi,NHkcbAL5,2020-0188,2020-05-07,20:59:52,21:15:47,NA,incomplete,139,color,1,right,Green_Circle_Grid_4.jpg,Blue_Circle_Stripes_3.jpg,Green_Plus_Dots_1.jpg,right,687.8700000233948,true,high,false
NHkcbAL5,36d1bwbeiqeywas4c57kpjvh4xs2mi,3vhp9mdgrrx7b2qjedxfvqgl291cfi,NHkcbAL5,2020-0188,2020-05-07,20:59:52,21:15:47,NA,incomplete,140,shape,0,left,Green_Plus_Dots_2.jpg,Blue_Plus_Chess_3.jpg,Green_Star_Stripes_1.jpg,right,603.0049999244511,false,high,false
NHkcbAL5,36d1bwbeiqeywas4c57kpjvh4xs2mi,3vhp9mdgrrx7b2qjedxfvqgl291cfi,NHkcbAL5,2020-0188,2020-05-07,20:59:52,21:15:47,NA,incomplete,141,shape,1,right,Red_Plus_Dots_1.jpg,Red_Star_Chess_4.jpg,Blue_Plus_Stripes_3.jpg,left,554.1450000600889,false,high,false
NHkcbAL5,36d1bwbeiqeywas4c57kpjvh4xs2mi,3vhp9mdgrrx7b2qjedxfvqgl291cfi,NHkcbAL5,2020-0188,2020-05-07,20:59:52,21:15:47,NA,incomplete,142,shape,1,right,Red_Plus_Chess_4.jpg,Red_Star_Stripes_3.jpg,Purple_Plus_Dots_1.jpg,left,528.7399999797344,false,high,false
NHkcbAL5,36d1bwbeiqeywas4c57kpjvh4xs2mi,3vhp9mdgrrx7b2qjedxfvqgl291cfi,NHkcbAL5,2020-0188,2020-05-07,20:59:52,21:15:47,NA,incomplete,143,shape,0,left,Purple_Star_Chess_1.jpg,Blue_Star_Grid_4.jpg,Purple_Circle_Dots_3.jpg,left,683.1800000509247,true,high,false
NHkcbAL5,36d1bwbeiqeywas4c57kpjvh4xs2mi,3vhp9mdgrrx7b2qjedxfvqgl291cfi,NHkcbAL5,2020-0188,2020-05-07,20:59:52,21:15:47,NA,incomplete,144,shape,1,right,Green_Plus_Stripes_1.jpg,Green_Triangle_Grid_4.jpg,Purple_Plus_Chess_3.jpg,right,860.8600000152364,true,high,false
NHkcbAL5,36d1bwbeiqeywas4c57kpjvh4xs2mi,3vhp9mdgrrx7b2qjedxfvqgl291cfi,NHkcbAL5,2020-0188,2020-05-07,20:59:52,21:15:47,NA,incomplete,145,shape,1,left,Blue_Circle_Dots_1.jpg,Purple_Circle_Grid_4.jpg,Blue_Plus_Stripes_3.jpg,left,744.8750000912696,true,high,false
NHkcbAL5,36d1bwbeiqeywas4c57kpjvh4xs2mi,3vhp9mdgrrx7b2qjedxfvqgl291cfi,NHkcbAL5,2020-0188,2020-05-07,20:59:52,21:15:47,NA,incomplete,146,shape,1,right,Purple_Star_Stripes_2.jpg,Purple_Plus_Dots_1.jpg,Green_Star_Chess_4.jpg,right,597.8549999417737,true,high,false
NHkcbAL5,36d1bwbeiqeywas4c57kpjvh4xs2mi,3vhp9mdgrrx7b2qjedxfvqgl291cfi,NHkcbAL5,2020-0188,2020-05-07,20:59:52,21:15:47,NA,incomplete,147,shape,1,right,Green_Plus_Stripes_3.jpg,Green_Circle_Chess_2.jpg,Red_Plus_Grid_1.jpg,right,694.9199999216944,true,high,false
NHkcbAL5,36d1bwbeiqeywas4c57kpjvh4xs2mi,3vhp9mdgrrx7b2qjedxfvqgl291cfi,NHkcbAL5,2020-0188,2020-05-07,20:59:52,21:15:47,NA,incomplete,148,shape,1,right,Green_Triangle_Grid_1.jpg,Green_Star_Dots_4.jpg,Blue_Triangle_Chess_3.jpg,right,510.5350000085309,true,high,false
NHkcbAL5,36d1bwbeiqeywas4c57kpjvh4xs2mi,3vhp9mdgrrx7b2qjedxfvqgl291cfi,NHkcbAL5,2020-0188,2020-05-07,20:59:52,21:15:47,NA,incomplete,149,shape,0,left,Green_Star_Stripes_3.jpg,Blue_Star_Chess_2.jpg,Green_Triangle_Grid_4.jpg,left,700.2250000368804,true,high,false
NHkcbAL5,36d1bwbeiqeywas4c57kpjvh4xs2mi,3vhp9mdgrrx7b2qjedxfvqgl291cfi,NHkcbAL5,2020-0188,2020-05-07,20:59:52,21:15:47,NA,incomplete,150,shape,1,left,Purple_Circle_Chess_2.jpg,Green_Circle_Grid_3.jpg,Purple_Star_Stripes_4.jpg,left,569.7049999143928,true,high,false
NHkcbAL5,36d1bwbeiqeywas4c57kpjvh4xs2mi,3vhp9mdgrrx7b2qjedxfvqgl291cfi,NHkcbAL5,2020-0188,2020-05-07,20:59:52,21:15:47,NA,incomplete,151,shape,0,left,Purple_Plus_Stripes_2.jpg,Blue_Plus_Grid_3.jpg,Purple_Triangle_Chess_4.jpg,left,582.7549999812618,true,high,false
NHkcbAL5,36d1bwbeiqeywas4c57kpjvh4xs2mi,3vhp9mdgrrx7b2qjedxfvqgl291cfi,NHkcbAL5,2020-0188,2020-05-07,20:59:52,21:15:47,NA,incomplete,152,shape,1,right,Green_Triangle_Dots_2.jpg,Green_Circle_Chess_1.jpg,Purple_Triangle_Stripes_4.jpg,right,608.3299999590963,true,high,false
NHkcbAL5,36d1bwbeiqeywas4c57kpjvh4xs2mi,3vhp9mdgrrx7b2qjedxfvqgl291cfi,NHkcbAL5,2020-0188,2020-05-07,20:59:52,21:15:47,NA,incomplete,153,shape,1,right,Blue_Circle_Dots_1.jpg,Blue_Star_Grid_3.jpg,Red_Circle_Chess_4.jpg,right,635.6549999909475,true,high,false
NHkcbAL5,36d1bwbeiqeywas4c57kpjvh4xs2mi,3vhp9mdgrrx7b2qjedxfvqgl291cfi,NHkcbAL5,2020-0188,2020-05-07,20:59:52,21:15:47,NA,incomplete,154,shape,1,left,Purple_Plus_Stripes_2.jpg,Green_Plus_Grid_4.jpg,Purple_Triangle_Chess_3.jpg,left,806.9099999265745,true,high,false
NHkcbAL5,36d1bwbeiqeywas4c57kpjvh4xs2mi,3vhp9mdgrrx7b2qjedxfvqgl291cfi,NHkcbAL5,2020-0188,2020-05-07,20:59:52,21:15:47,NA,incomplete,155,shape,1,left,Purple_Triangle_Stripes_2.jpg,Blue_Triangle_Grid_4.jpg,Purple_Circle_Dots_1.jpg,left,681.4699999522418,true,high,false
NHkcbAL5,36d1bwbeiqeywas4c57kpjvh4xs2mi,3vhp9mdgrrx7b2qjedxfvqgl291cfi,NHkcbAL5,2020-0188,2020-05-07,20:59:52,21:15:47,NA,incomplete,156,shape,0,right,Blue_Triangle_Chess_4.jpg,Blue_Star_Stripes_3.jpg,Green_Triangle_Grid_1.jpg,right,804.2399999685585,true,high,false
NHkcbAL5,36d1bwbeiqeywas4c57kpjvh4xs2mi,3vhp9mdgrrx7b2qjedxfvqgl291cfi,NHkcbAL5,2020-0188,2020-05-07,20:59:52,21:15:47,NA,incomplete,157,shape,1,right,Red_Star_Stripes_3.jpg,Red_Circle_Grid_4.jpg,Green_Star_Chess_1.jpg,right,712.485000025481,true,high,false
NHkcbAL5,36d1bwbeiqeywas4c57kpjvh4xs2mi,3vhp9mdgrrx7b2qjedxfvqgl291cfi,NHkcbAL5,2020-0188,2020-05-07,20:59:52,21:15:47,NA,incomplete,158,shape,1,right,Green_Plus_Stripes_2.jpg,Green_Circle_Chess_3.jpg,Purple_Plus_Grid_4.jpg,right,611.9050000561401,true,high,false
NHkcbAL5,36d1bwbeiqeywas4c57kpjvh4xs2mi,3vhp9mdgrrx7b2qjedxfvqgl291cfi,NHkcbAL5,2020-0188,2020-05-07,20:59:52,21:15:47,NA,incomplete,159,shape,1,left,Purple_Star_Chess_3.jpg,Red_Star_Dots_4.jpg,Purple_Circle_Stripes_2.jpg,left,1044.4750000024214,true,high,false
NHkcbAL5,36d1bwbeiqeywas4c57kpjvh4xs2mi,3vhp9mdgrrx7b2qjedxfvqgl291cfi,NHkcbAL5,2020-0188,2020-05-07,20:59:52,21:15:47,NA,incomplete,160,color,1,right,Blue_Triangle_Grid_4.jpg,Purple_Triangle_Chess_3.jpg,Blue_Plus_Stripes_1.jpg,left,539.6800000453368,false,high,false
NHkcbAL5,36d1bwbeiqeywas4c57kpjvh4xs2mi,3vhp9mdgrrx7b2qjedxfvqgl291cfi,NHkcbAL5,2020-0188,2020-05-07,20:59:52,21:15:47,NA,incomplete,161,color,1,right,Purple_Triangle_Stripes_4.jpg,Blue_Triangle_Dots_2.jpg,Purple_Circle_Chess_1.jpg,left,873.105000006035,false,high,false
NHkcbAL5,36d1bwbeiqeywas4c57kpjvh4xs2mi,3vhp9mdgrrx7b2qjedxfvqgl291cfi,NHkcbAL5,2020-0188,2020-05-07,20:59:52,21:15:47,NA,incomplete,162,color,1,left,Purple_Circle_Grid_2.jpg,Purple_Star_Dots_3.jpg,Blue_Circle_Chess_1.jpg,left,481.25499999150634,true,high,false
NHkcbAL5,36d1bwbeiqeywas4c57kpjvh4xs2mi,3vhp9mdgrrx7b2qjedxfvqgl291cfi,NHkcbAL5,2020-0188,2020-05-07,20:59:52,21:15:47,NA,incomplete,163,color,1,left,Red_Triangle_Stripes_1.jpg,Red_Circle_Chess_4.jpg,Purple_Triangle_Dots_2.jpg,left,459.46000004187226,true,high,false
NHkcbAL5,36d1bwbeiqeywas4c57kpjvh4xs2mi,3vhp9mdgrrx7b2qjedxfvqgl291cfi,NHkcbAL5,2020-0188,2020-05-07,20:59:52,21:15:47,NA,incomplete,164,color,0,left,Blue_Plus_Chess_3.jpg,Blue_Star_Stripes_2.jpg,Red_Plus_Grid_1.jpg,left,451.84999995399266,true,high,false
NHkcbAL5,36d1bwbeiqeywas4c57kpjvh4xs2mi,3vhp9mdgrrx7b2qjedxfvqgl291cfi,NHkcbAL5,2020-0188,2020-05-07,20:59:52,21:15:47,NA,incomplete,165,color,1,right,Purple_Star_Stripes_1.jpg,Blue_Star_Chess_3.jpg,Purple_Triangle_Dots_2.jpg,right,412.87999995984137,true,high,false
NHkcbAL5,36d1bwbeiqeywas4c57kpjvh4xs2mi,3vhp9mdgrrx7b2qjedxfvqgl291cfi,NHkcbAL5,2020-0188,2020-05-07,20:59:52,21:15:47,NA,incomplete,166,color,0,right,Blue_Plus_Dots_2.jpg,Purple_Plus_Stripes_1.jpg,Blue_Star_Grid_3.jpg,right,473.0399999534711,true,high,false
NHkcbAL5,36d1bwbeiqeywas4c57kpjvh4xs2mi,3vhp9mdgrrx7b2qjedxfvqgl291cfi,NHkcbAL5,2020-0188,2020-05-07,20:59:52,21:15:47,NA,incomplete,167,color,1,left,Blue_Star_Grid_4.jpg,Blue_Plus_Dots_3.jpg,Purple_Star_Stripes_1.jpg,left,447.2400000086054,true,high,false
NHkcbAL5,36d1bwbeiqeywas4c57kpjvh4xs2mi,3vhp9mdgrrx7b2qjedxfvqgl291cfi,NHkcbAL5,2020-0188,2020-05-07,20:59:52,21:15:47,NA,incomplete,168,color,0,right,Green_Plus_Chess_4.jpg,Blue_Plus_Dots_2.jpg,Green_Triangle_Grid_3.jpg,right,483.20500005502254,true,high,false
NHkcbAL5,36d1bwbeiqeywas4c57kpjvh4xs2mi,3vhp9mdgrrx7b2qjedxfvqgl291cfi,NHkcbAL5,2020-0188,2020-05-07,20:59:52,21:15:47,NA,incomplete,169,color,1,right,Green_Plus_Stripes_1.jpg,Blue_Plus_Dots_4.jpg,Green_Triangle_Chess_2.jpg,right,400.4549999954179,true,high,false
NHkcbAL5,36d1bwbeiqeywas4c57kpjvh4xs2mi,3vhp9mdgrrx7b2qjedxfvqgl291cfi,NHkcbAL5,2020-0188,2020-05-07,20:59:52,21:15:47,NA,incomplete,170,color,1,left,Blue_Triangle_Grid_4.jpg,Blue_Circle_Dots_1.jpg,Purple_Triangle_Chess_2.jpg,left,424.9299999792129,true,high,false
NHkcbAL5,36d1bwbeiqeywas4c57kpjvh4xs2mi,3vhp9mdgrrx7b2qjedxfvqgl291cfi,NHkcbAL5,2020-0188,2020-05-07,20:59:52,21:15:47,NA,incomplete,171,color,1,right,Green_Triangle_Stripes_3.jpg,Blue_Triangle_Chess_1.jpg,Green_Circle_Dots_4.jpg,right,481.53999994974583,true,high,false
NHkcbAL5,36d1bwbeiqeywas4c57kpjvh4xs2mi,3vhp9mdgrrx7b2qjedxfvqgl291cfi,NHkcbAL5,2020-0188,2020-05-07,20:59:52,21:15:47,NA,incomplete,172,color,1,right,Red_Plus_Stripes_3.jpg,Green_Plus_Grid_2.jpg,Red_Circle_Chess_4.jpg,right,457.6249999227002,true,high,false
NHkcbAL5,36d1bwbeiqeywas4c57kpjvh4xs2mi,3vhp9mdgrrx7b2qjedxfvqgl291cfi,NHkcbAL5,2020-0188,2020-05-07,20:59:52,21:15:47,NA,incomplete,173,color,1,right,Blue_Circle_Stripes_1.jpg,Purple_Circle_Dots_2.jpg,Blue_Star_Grid_3.jpg,right,460.45500005129725,true,high,false
NHkcbAL5,36d1bwbeiqeywas4c57kpjvh4xs2mi,3vhp9mdgrrx7b2qjedxfvqgl291cfi,NHkcbAL5,2020-0188,2020-05-07,20:59:52,21:15:47,NA,incomplete,174,color,1,right,Green_Plus_Stripes_2.jpg,Red_Plus_Grid_1.jpg,Green_Star_Dots_3.jpg,right,420.2400000067428,true,high,false
NHkcbAL5,36d1bwbeiqeywas4c57kpjvh4xs2mi,3vhp9mdgrrx7b2qjedxfvqgl291cfi,NHkcbAL5,2020-0188,2020-05-07,20:59:52,21:15:47,NA,incomplete,175,color,1,left,Blue_Circle_Dots_4.jpg,Blue_Plus_Chess_1.jpg,Red_Circle_Grid_2.jpg,left,972.065000096336,true,high,false
NHkcbAL5,36d1bwbeiqeywas4c57kpjvh4xs2mi,3vhp9mdgrrx7b2qjedxfvqgl291cfi,NHkcbAL5,2020-0188,2020-05-07,20:59:52,21:15:47,NA,incomplete,176,color,1,left,Blue_Circle_Grid_1.jpg,Blue_Star_Stripes_4.jpg,Purple_Circle_Dots_2.jpg,left,484.8049998981878,true,high,false
NHkcbAL5,36d1bwbeiqeywas4c57kpjvh4xs2mi,3vhp9mdgrrx7b2qjedxfvqgl291cfi,NHkcbAL5,2020-0188,2020-05-07,20:59:52,21:15:47,NA,incomplete,177,color,0,right,Purple_Circle_Dots_2.jpg,Blue_Circle_Grid_1.jpg,Purple_Plus_Stripes_3.jpg,right,392.6099999807775,true,high,false
NHkcbAL5,36d1bwbeiqeywas4c57kpjvh4xs2mi,3vhp9mdgrrx7b2qjedxfvqgl291cfi,NHkcbAL5,2020-0188,2020-05-07,20:59:52,21:15:47,NA,incomplete,178,color,1,right,Blue_Triangle_Stripes_2.jpg,Red_Triangle_Grid_1.jpg,Blue_Star_Chess_4.jpg,right,404.22000002581626,true,high,false
NHkcbAL5,36d1bwbeiqeywas4c57kpjvh4xs2mi,3vhp9mdgrrx7b2qjedxfvqgl291cfi,NHkcbAL5,2020-0188,2020-05-07,20:59:52,21:15:47,NA,incomplete,179,color,1,left,Purple_Triangle_Chess_4.jpg,Purple_Circle_Grid_1.jpg,Red_Triangle_Dots_3.jpg,left,437.14499997440726,true,high,false
NHkcbAL5,36d1bwbeiqeywas4c57kpjvh4xs2mi,3vhp9mdgrrx7b2qjedxfvqgl291cfi,NHkcbAL5,2020-0188,2020-05-07,20:59:52,21:15:47,NA,incomplete,180,shape,1,right,Blue_Circle_Dots_1.jpg,Blue_Triangle_Grid_4.jpg,Green_Circle_Chess_3.jpg,left,474.7300000162795,false,high,false
NHkcbAL5,36d1bwbeiqeywas4c57kpjvh4xs2mi,3vhp9mdgrrx7b2qjedxfvqgl291cfi,NHkcbAL5,2020-0188,2020-05-07,20:59:52,21:15:47,NA,incomplete,181,shape,1,left,Red_Star_Stripes_4.jpg,Green_Star_Dots_3.jpg,Red_Triangle_Grid_1.jpg,right,458.7449999526143,false,high,false
NHkcbAL5,36d1bwbeiqeywas4c57kpjvh4xs2mi,3vhp9mdgrrx7b2qjedxfvqgl291cfi,NHkcbAL5,2020-0188,2020-05-07,20:59:52,21:15:47,NA,incomplete,182,shape,1,left,Red_Plus_Dots_2.jpg,Blue_Plus_Chess_3.jpg,Red_Circle_Grid_4.jpg,right,593.0299999890849,false,high,false
NHkcbAL5,36d1bwbeiqeywas4c57kpjvh4xs2mi,3vhp9mdgrrx7b2qjedxfvqgl291cfi,NHkcbAL5,2020-0188,2020-05-07,20:59:52,21:15:47,NA,incomplete,183,shape,0,right,Green_Star_Stripes_2.jpg,Green_Plus_Grid_3.jpg,Purple_Star_Chess_1.jpg,right,798.5699999844655,true,high,false
NHkcbAL5,36d1bwbeiqeywas4c57kpjvh4xs2mi,3vhp9mdgrrx7b2qjedxfvqgl291cfi,NHkcbAL5,2020-0188,2020-05-07,20:59:52,21:15:47,NA,incomplete,184,shape,1,right,Blue_Star_Dots_1.jpg,Blue_Plus_Chess_4.jpg,Red_Star_Stripes_2.jpg,right,629.4299999717623,true,high,false
NHkcbAL5,36d1bwbeiqeywas4c57kpjvh4xs2mi,3vhp9mdgrrx7b2qjedxfvqgl291cfi,NHkcbAL5,2020-0188,2020-05-07,20:59:52,21:15:47,NA,incomplete,185,shape,1,left,Purple_Star_Stripes_2.jpg,Blue_Star_Dots_3.jpg,Purple_Circle_Chess_4.jpg,left,823.9299999549985,true,high,false
NHkcbAL5,36d1bwbeiqeywas4c57kpjvh4xs2mi,3vhp9mdgrrx7b2qjedxfvqgl291cfi,NHkcbAL5,2020-0188,2020-05-07,20:59:52,21:15:47,NA,incomplete,186,shape,1,left,Blue_Plus_Stripes_2.jpg,Green_Plus_Dots_1.jpg,Blue_Star_Grid_3.jpg,left,790.3599999845028,true,high,false
NHkcbAL5,36d1bwbeiqeywas4c57kpjvh4xs2mi,3vhp9mdgrrx7b2qjedxfvqgl291cfi,NHkcbAL5,2020-0188,2020-05-07,20:59:52,21:15:47,NA,incomplete,187,shape,0,left,Red_Circle_Chess_1.jpg,Green_Circle_Stripes_4.jpg,Red_Triangle_Dots_3.jpg,left,624.6600000886247,true,high,false
NHkcbAL5,36d1bwbeiqeywas4c57kpjvh4xs2mi,3vhp9mdgrrx7b2qjedxfvqgl291cfi,NHkcbAL5,2020-0188,2020-05-07,20:59:52,21:15:47,NA,incomplete,188,shape,1,left,Purple_Triangle_Dots_1.jpg,Blue_Triangle_Grid_2.jpg,Purple_Star_Stripes_3.jpg,left,578.6250000819564,true,high,false
NHkcbAL5,36d1bwbeiqeywas4c57kpjvh4xs2mi,3vhp9mdgrrx7b2qjedxfvqgl291cfi,NHkcbAL5,2020-0188,2020-05-07,20:59:52,21:15:47,NA,incomplete,189,shape,1,right,Blue_Star_Grid_1.jpg,Blue_Triangle_Dots_3.jpg,Red_Star_Chess_2.jpg,right,640.1949999853969,true,high,false
NHkcbAL5,36d1bwbeiqeywas4c57kpjvh4xs2mi,3vhp9mdgrrx7b2qjedxfvqgl291cfi,NHkcbAL5,2020-0188,2020-05-07,20:59:52,21:15:47,NA,incomplete,190,shape,1,right,Purple_Circle_Chess_2.jpg,Purple_Plus_Dots_3.jpg,Green_Circle_Stripes_4.jpg,right,1194.690000033006,true,high,false
NHkcbAL5,36d1bwbeiqeywas4c57kpjvh4xs2mi,3vhp9mdgrrx7b2qjedxfvqgl291cfi,NHkcbAL5,2020-0188,2020-05-07,20:59:52,21:15:47,NA,incomplete,191,shape,1,right,Blue_Star_Chess_4.jpg,Blue_Circle_Grid_2.jpg,Green_Star_Stripes_3.jpg,right,913.5699999751523,true,high,false
NHkcbAL5,36d1bwbeiqeywas4c57kpjvh4xs2mi,3vhp9mdgrrx7b2qjedxfvqgl291cfi,NHkcbAL5,2020-0188,2020-05-07,20:59:52,21:15:47,NA,incomplete,192,shape,1,right,Blue_Triangle_Stripes_4.jpg,Blue_Circle_Grid_2.jpg,Green_Triangle_Chess_3.jpg,right,1001.0250000050291,true,high,false
NHkcbAL5,36d1bwbeiqeywas4c57kpjvh4xs2mi,3vhp9mdgrrx7b2qjedxfvqgl291cfi,NHkcbAL5,2020-0188,2020-05-07,20:59:52,21:15:47,NA,incomplete,193,shape,1,right,Purple_Plus_Chess_2.jpg,Purple_Triangle_Stripes_3.jpg,Blue_Plus_Dots_4.jpg,right,664.6799999289215,true,high,false
NHkcbAL5,36d1bwbeiqeywas4c57kpjvh4xs2mi,3vhp9mdgrrx7b2qjedxfvqgl291cfi,NHkcbAL5,2020-0188,2020-05-07,20:59:52,21:15:47,NA,incomplete,194,shape,1,left,Purple_Triangle_Dots_1.jpg,Blue_Triangle_Chess_3.jpg,Purple_Circle_Stripes_2.jpg,left,576.3499999884516,true,high,false
NHkcbAL5,36d1bwbeiqeywas4c57kpjvh4xs2mi,3vhp9mdgrrx7b2qjedxfvqgl291cfi,NHkcbAL5,2020-0188,2020-05-07,20:59:52,21:15:47,NA,incomplete,195,shape,1,right,Green_Star_Chess_4.jpg,Green_Plus_Grid_3.jpg,Blue_Star_Dots_1.jpg,right,942.7150000119582,true,high,false
NHkcbAL5,36d1bwbeiqeywas4c57kpjvh4xs2mi,3vhp9mdgrrx7b2qjedxfvqgl291cfi,NHkcbAL5,2020-0188,2020-05-07,20:59:52,21:15:47,NA,incomplete,196,shape,1,right,Red_Star_Grid_4.jpg,Red_Plus_Dots_2.jpg,Green_Star_Chess_1.jpg,right,716.480000060983,true,high,false
NHkcbAL5,36d1bwbeiqeywas4c57kpjvh4xs2mi,3vhp9mdgrrx7b2qjedxfvqgl291cfi,NHkcbAL5,2020-0188,2020-05-07,20:59:52,21:15:47,NA,incomplete,197,shape,0,left,Red_Plus_Chess_2.jpg,Green_Plus_Grid_1.jpg,Red_Triangle_Dots_4.jpg,left,632.1250000037253,true,high,false
NHkcbAL5,36d1bwbeiqeywas4c57kpjvh4xs2mi,3vhp9mdgrrx7b2qjedxfvqgl291cfi,NHkcbAL5,2020-0188,2020-05-07,20:59:52,21:15:47,NA,incomplete,198,shape,1,right,Red_Circle_Stripes_1.jpg,Red_Plus_Dots_2.jpg,Purple_Circle_Grid_3.jpg,left,947.8150000795722,false,high,false
NHkcbAL5,36d1bwbeiqeywas4c57kpjvh4xs2mi,3vhp9mdgrrx7b2qjedxfvqgl291cfi,NHkcbAL5,2020-0188,2020-05-07,20:59:52,21:15:47,NA,incomplete,199,shape,0,right,Red_Plus_Grid_1.jpg,Red_Star_Chess_4.jpg,Purple_Plus_Dots_3.jpg,left,538.6399999260902,false,high,false
NHkcbAL5,36d1bwbeiqeywas4c57kpjvh4xs2mi,3vhp9mdgrrx7b2qjedxfvqgl291cfi,NHkcbAL5,2020-0188,2020-05-07,20:59:52,21:15:47,NA,incomplete,200,color,1,left,Blue_Circle_Dots_4.jpg,Blue_Triangle_Grid_2.jpg,Red_Circle_Chess_1.jpg,left,596.0999999660999,true,high,false
NHkcbAL5,36d1bwbeiqeywas4c57kpjvh4xs2mi,3vhp9mdgrrx7b2qjedxfvqgl291cfi,NHkcbAL5,2020-0188,2020-05-07,20:59:52,21:15:47,NA,incomplete,201,color,1,right,Blue_Plus_Dots_1.jpg,Green_Plus_Grid_3.jpg,Blue_Circle_Stripes_4.jpg,right,458.0500000156462,true,high,false
NHkcbAL5,36d1bwbeiqeywas4c57kpjvh4xs2mi,3vhp9mdgrrx7b2qjedxfvqgl291cfi,NHkcbAL5,2020-0188,2020-05-07,20:59:52,21:15:47,NA,incomplete,202,color,1,left,Purple_Triangle_Grid_1.jpg,Purple_Plus_Dots_4.jpg,Green_Triangle_Stripes_2.jpg,left,563.6149999918416,true,high,false
NHkcbAL5,36d1bwbeiqeywas4c57kpjvh4xs2mi,3vhp9mdgrrx7b2qjedxfvqgl291cfi,NHkcbAL5,2020-0188,2020-05-07,20:59:52,21:15:47,NA,incomplete,203,color,1,right,Green_Star_Chess_4.jpg,Blue_Star_Grid_1.jpg,Green_Circle_Stripes_3.jpg,right,438.0200000014156,true,high,false
NHkcbAL5,36d1bwbeiqeywas4c57kpjvh4xs2mi,3vhp9mdgrrx7b2qjedxfvqgl291cfi,NHkcbAL5,2020-0188,2020-05-07,20:59:52,21:15:47,NA,incomplete,204,color,1,right,Red_Star_Grid_1.jpg,Blue_Star_Dots_2.jpg,Red_Circle_Stripes_4.jpg,right,580.0900000613183,true,high,false
NHkcbAL5,36d1bwbeiqeywas4c57kpjvh4xs2mi,3vhp9mdgrrx7b2qjedxfvqgl291cfi,NHkcbAL5,2020-0188,2020-05-07,20:59:52,21:15:47,NA,incomplete,205,color,1,right,Purple_Circle_Dots_2.jpg,Red_Circle_Grid_4.jpg,Purple_Triangle_Stripes_1.jpg,right,502.8049999382347,true,high,false
NHkcbAL5,36d1bwbeiqeywas4c57kpjvh4xs2mi,3vhp9mdgrrx7b2qjedxfvqgl291cfi,NHkcbAL5,2020-0188,2020-05-07,20:59:52,21:15:47,NA,incomplete,206,color,1,right,Blue_Triangle_Stripes_1.jpg,Green_Triangle_Grid_4.jpg,Blue_Circle_Dots_2.jpg,right,529.17500003241,true,high,false
NHkcbAL5,36d1bwbeiqeywas4c57kpjvh4xs2mi,3vhp9mdgrrx7b2qjedxfvqgl291cfi,NHkcbAL5,2020-0188,2020-05-07,20:59:52,21:15:47,NA,incomplete,207,color,0,right,Blue_Plus_Chess_4.jpg,Purple_Plus_Stripes_3.jpg,Blue_Star_Grid_2.jpg,right,594.1549999406561,true,high,false
NHkcbAL5,36d1bwbeiqeywas4c57kpjvh4xs2mi,3vhp9mdgrrx7b2qjedxfvqgl291cfi,NHkcbAL5,2020-0188,2020-05-07,20:59:52,21:15:47,NA,incomplete,208,color,1,left,Red_Plus_Grid_4.jpg,Red_Star_Dots_3.jpg,Purple_Plus_Chess_1.jpg,left,933.8649999117479,true,high,false
NHkcbAL5,36d1bwbeiqeywas4c57kpjvh4xs2mi,3vhp9mdgrrx7b2qjedxfvqgl291cfi,NHkcbAL5,2020-0188,2020-05-07,20:59:52,21:15:47,NA,incomplete,209,color,1,left,Purple_Circle_Grid_2.jpg,Purple_Plus_Dots_1.jpg,Green_Circle_Chess_3.jpg,left,576.799999922514,true,high,false
NHkcbAL5,36d1bwbeiqeywas4c57kpjvh4xs2mi,3vhp9mdgrrx7b2qjedxfvqgl291cfi,NHkcbAL5,2020-0188,2020-05-07,20:59:52,21:15:47,NA,incomplete,210,color,1,right,Red_Plus_Dots_1.jpg,Purple_Plus_Grid_4.jpg,Red_Star_Chess_3.jpg,right,622.4650000222027,true,high,false
NHkcbAL5,36d1bwbeiqeywas4c57kpjvh4xs2mi,3vhp9mdgrrx7b2qjedxfvqgl291cfi,NHkcbAL5,2020-0188,2020-05-07,20:59:52,21:15:47,NA,incomplete,211,color,1,left,Red_Triangle_Stripes_3.jpg,Red_Circle_Grid_4.jpg,Blue_Triangle_Chess_1.jpg,left,438.33999999333173,true,high,false
NHkcbAL5,36d1bwbeiqeywas4c57kpjvh4xs2mi,3vhp9mdgrrx7b2qjedxfvqgl291cfi,NHkcbAL5,2020-0188,2020-05-07,20:59:52,21:15:47,NA,incomplete,212,color,0,right,Purple_Plus_Grid_4.jpg,Blue_Plus_Stripes_1.jpg,Purple_Triangle_Chess_3.jpg,right,732.6050000265241,true,high,false
NHkcbAL5,36d1bwbeiqeywas4c57kpjvh4xs2mi,3vhp9mdgrrx7b2qjedxfvqgl291cfi,NHkcbAL5,2020-0188,2020-05-07,20:59:52,21:15:47,NA,incomplete,213,color,1,right,Blue_Plus_Chess_2.jpg,Red_Plus_Grid_3.jpg,Blue_Triangle_Dots_1.jpg,right,446.91499997861683,true,high,false
NHkcbAL5,36d1bwbeiqeywas4c57kpjvh4xs2mi,3vhp9mdgrrx7b2qjedxfvqgl291cfi,NHkcbAL5,2020-0188,2020-05-07,20:59:52,21:15:47,NA,incomplete,214,color,1,left,Blue_Star_Grid_1.jpg,Blue_Triangle_Dots_4.jpg,Green_Star_Stripes_2.jpg,left,455.42499993462116,true,high,false
NHkcbAL5,36d1bwbeiqeywas4c57kpjvh4xs2mi,3vhp9mdgrrx7b2qjedxfvqgl291cfi,NHkcbAL5,2020-0188,2020-05-07,20:59:52,21:15:47,NA,incomplete,215,color,1,left,Blue_Plus_Grid_2.jpg,Blue_Triangle_Dots_4.jpg,Purple_Plus_Stripes_3.jpg,left,425.4250000230968,true,high,false
NHkcbAL5,36d1bwbeiqeywas4c57kpjvh4xs2mi,3vhp9mdgrrx7b2qjedxfvqgl291cfi,NHkcbAL5,2020-0188,2020-05-07,20:59:52,21:15:47,NA,incomplete,216,color,0,right,Blue_Circle_Chess_2.jpg,Purple_Circle_Grid_4.jpg,Blue_Star_Stripes_3.jpg,right,573.534999974072,true,high,false
NHkcbAL5,36d1bwbeiqeywas4c57kpjvh4xs2mi,3vhp9mdgrrx7b2qjedxfvqgl291cfi,NHkcbAL5,2020-0188,2020-05-07,20:59:52,21:15:47,NA,incomplete,217,color,1,left,Red_Triangle_Stripes_2.jpg,Red_Circle_Chess_1.jpg,Blue_Triangle_Dots_4.jpg,left,406.76499996334314,true,high,false
NHkcbAL5,36d1bwbeiqeywas4c57kpjvh4xs2mi,3vhp9mdgrrx7b2qjedxfvqgl291cfi,NHkcbAL5,2020-0188,2020-05-07,20:59:52,21:15:47,NA,incomplete,218,color,1,left,Green_Star_Stripes_2.jpg,Green_Plus_Dots_4.jpg,Purple_Star_Grid_3.jpg,left,553.3150000264868,true,high,false
NHkcbAL5,36d1bwbeiqeywas4c57kpjvh4xs2mi,3vhp9mdgrrx7b2qjedxfvqgl291cfi,NHkcbAL5,2020-0188,2020-05-07,20:59:52,21:15:47,NA,incomplete,219,color,1,right,Green_Plus_Dots_2.jpg,Blue_Plus_Grid_4.jpg,Green_Circle_Chess_3.jpg,right,455.8850000612438,true,high,false
NHkcbAL5,36d1bwbeiqeywas4c57kpjvh4xs2mi,3vhp9mdgrrx7b2qjedxfvqgl291cfi,NHkcbAL5,2020-0188,2020-05-07,20:59:52,21:15:47,NA,incomplete,220,shape,1,right,Purple_Star_Dots_3.jpg,Purple_Triangle_Stripes_1.jpg,Blue_Star_Grid_2.jpg,left,408.629999961704,false,high,false
NHkcbAL5,36d1bwbeiqeywas4c57kpjvh4xs2mi,3vhp9mdgrrx7b2qjedxfvqgl291cfi,NHkcbAL5,2020-0188,2020-05-07,20:59:52,21:15:47,NA,incomplete,221,shape,1,left,Red_Star_Stripes_1.jpg,Blue_Star_Grid_4.jpg,Red_Plus_Dots_2.jpg,right,604.9849999835715,false,high,false
NHkcbAL5,36d1bwbeiqeywas4c57kpjvh4xs2mi,3vhp9mdgrrx7b2qjedxfvqgl291cfi,NHkcbAL5,2020-0188,2020-05-07,20:59:52,21:15:47,NA,incomplete,222,shape,1,right,Green_Circle_Grid_2.jpg,Green_Plus_Stripes_4.jpg,Blue_Circle_Chess_3.jpg,left,428.42500004917383,false,high,false
NHkcbAL5,36d1bwbeiqeywas4c57kpjvh4xs2mi,3vhp9mdgrrx7b2qjedxfvqgl291cfi,NHkcbAL5,2020-0188,2020-05-07,20:59:52,21:15:47,NA,incomplete,223,shape,1,right,Red_Circle_Grid_2.jpg,Red_Star_Stripes_1.jpg,Purple_Circle_Chess_3.jpg,right,493.77499998081475,true,high,false
NHkcbAL5,36d1bwbeiqeywas4c57kpjvh4xs2mi,3vhp9mdgrrx7b2qjedxfvqgl291cfi,NHkcbAL5,2020-0188,2020-05-07,20:59:52,21:15:47,NA,incomplete,224,shape,1,left,Red_Circle_Grid_1.jpg,Blue_Circle_Stripes_2.jpg,Red_Star_Chess_3.jpg,left,601.894999970682,true,high,false
NHkcbAL5,36d1bwbeiqeywas4c57kpjvh4xs2mi,3vhp9mdgrrx7b2qjedxfvqgl291cfi,NHkcbAL5,2020-0188,2020-05-07,20:59:52,21:15:47,NA,incomplete,225,shape,1,left,Blue_Triangle_Dots_2.jpg,Purple_Triangle_Stripes_1.jpg,Blue_Circle_Chess_3.jpg,left,727.6400000555441,true,high,false
NHkcbAL5,36d1bwbeiqeywas4c57kpjvh4xs2mi,3vhp9mdgrrx7b2qjedxfvqgl291cfi,NHkcbAL5,2020-0188,2020-05-07,20:59:52,21:15:47,NA,incomplete,226,shape,1,left,Blue_Triangle_Chess_1.jpg,Green_Triangle_Stripes_4.jpg,Blue_Plus_Dots_3.jpg,left,732.1999999694526,true,high,false
NHkcbAL5,36d1bwbeiqeywas4c57kpjvh4xs2mi,3vhp9mdgrrx7b2qjedxfvqgl291cfi,NHkcbAL5,2020-0188,2020-05-07,20:59:52,21:15:47,NA,incomplete,227,shape,0,right,Blue_Triangle_Stripes_2.jpg,Blue_Plus_Chess_4.jpg,Red_Triangle_Dots_3.jpg,right,735.9850000357255,true,high,false
NHkcbAL5,36d1bwbeiqeywas4c57kpjvh4xs2mi,3vhp9mdgrrx7b2qjedxfvqgl291cfi,NHkcbAL5,2020-0188,2020-05-07,20:59:52,21:15:47,NA,incomplete,228,shape,1,left,Blue_Circle_Stripes_1.jpg,Green_Circle_Chess_4.jpg,Blue_Star_Grid_2.jpg,left,627.8300000121817,true,high,false
NHkcbAL5,36d1bwbeiqeywas4c57kpjvh4xs2mi,3vhp9mdgrrx7b2qjedxfvqgl291cfi,NHkcbAL5,2020-0188,2020-05-07,20:59:52,21:15:47,NA,incomplete,229,shape,1,left,Blue_Circle_Chess_4.jpg,Red_Circle_Grid_3.jpg,Blue_Plus_Stripes_2.jpg,left,514.8800000315532,true,high,false
NHkcbAL5,36d1bwbeiqeywas4c57kpjvh4xs2mi,3vhp9mdgrrx7b2qjedxfvqgl291cfi,NHkcbAL5,2020-0188,2020-05-07,20:59:52,21:15:47,NA,incomplete,230,shape,0,left,Purple_Plus_Grid_2.jpg,Blue_Plus_Chess_4.jpg,Purple_Circle_Dots_3.jpg,left,509.2449999647215,true,high,false
NHkcbAL5,36d1bwbeiqeywas4c57kpjvh4xs2mi,3vhp9mdgrrx7b2qjedxfvqgl291cfi,NHkcbAL5,2020-0188,2020-05-07,20:59:52,21:15:47,NA,incomplete,231,shape,1,left,Green_Plus_Grid_4.jpg,Purple_Plus_Dots_1.jpg,Green_Star_Chess_2.jpg,left,961.5800000028685,true,high,false
NHkcbAL5,36d1bwbeiqeywas4c57kpjvh4xs2mi,3vhp9mdgrrx7b2qjedxfvqgl291cfi,NHkcbAL5,2020-0188,2020-05-07,20:59:52,21:15:47,NA,incomplete,232,shape,1,left,Blue_Star_Dots_4.jpg,Purple_Star_Stripes_1.jpg,Blue_Plus_Grid_2.jpg,left,618.4549999888986,true,high,false
NHkcbAL5,36d1bwbeiqeywas4c57kpjvh4xs2mi,3vhp9mdgrrx7b2qjedxfvqgl291cfi,NHkcbAL5,2020-0188,2020-05-07,20:59:52,21:15:47,NA,incomplete,233,shape,1,right,Blue_Circle_Dots_2.jpg,Blue_Plus_Stripes_4.jpg,Purple_Circle_Grid_1.jpg,right,684.0800000354648,true,high,false
NHkcbAL5,36d1bwbeiqeywas4c57kpjvh4xs2mi,3vhp9mdgrrx7b2qjedxfvqgl291cfi,NHkcbAL5,2020-0188,2020-05-07,20:59:52,21:15:47,NA,incomplete,234,shape,1,left,Purple_Circle_Stripes_2.jpg,Red_Circle_Dots_1.jpg,Purple_Triangle_Grid_4.jpg,left,484.9549999926239,true,high,false
NHkcbAL5,36d1bwbeiqeywas4c57kpjvh4xs2mi,3vhp9mdgrrx7b2qjedxfvqgl291cfi,NHkcbAL5,2020-0188,2020-05-07,20:59:52,21:15:47,NA,incomplete,235,shape,0,left,Blue_Star_Stripes_3.jpg,Purple_Star_Chess_1.jpg,Blue_Triangle_Dots_4.jpg,left,656.33499994874,true,high,false
NHkcbAL5,36d1bwbeiqeywas4c57kpjvh4xs2mi,3vhp9mdgrrx7b2qjedxfvqgl291cfi,NHkcbAL5,2020-0188,2020-05-07,20:59:52,21:15:47,NA,incomplete,236,shape,1,right,Red_Star_Dots_4.jpg,Red_Plus_Grid_2.jpg,Blue_Star_Chess_3.jpg,right,839.1999999294057,true,high,false
NHkcbAL5,36d1bwbeiqeywas4c57kpjvh4xs2mi,3vhp9mdgrrx7b2qjedxfvqgl291cfi,NHkcbAL5,2020-0188,2020-05-07,20:59:52,21:15:47,NA,incomplete,237,shape,0,left,Purple_Triangle_Chess_3.jpg,Green_Triangle_Stripes_1.jpg,Purple_Circle_Grid_4.jpg,left,797.8500000899658,true,high,false
NHkcbAL5,36d1bwbeiqeywas4c57kpjvh4xs2mi,3vhp9mdgrrx7b2qjedxfvqgl291cfi,NHkcbAL5,2020-0188,2020-05-07,20:59:52,21:15:47,NA,incomplete,238,shape,1,left,Purple_Star_Grid_4.jpg,Red_Star_Dots_1.jpg,Purple_Triangle_Stripes_2.jpg,left,602.1849999669939,true,high,false
NHkcbAL5,36d1bwbeiqeywas4c57kpjvh4xs2mi,3vhp9mdgrrx7b2qjedxfvqgl291cfi,NHkcbAL5,2020-0188,2020-05-07,20:59:52,21:15:47,NA,incomplete,239,shape,1,left,Purple_Circle_Chess_1.jpg,Green_Circle_Dots_3.jpg,Purple_Star_Grid_4.jpg,left,482.8599999891594,true,high,false
NHkcbAL5,36d1bwbeiqeywas4c57kpjvh4xs2mi,3vhp9mdgrrx7b2qjedxfvqgl291cfi,NHkcbAL5,2020-0188,2020-05-07,20:59:52,21:15:47,927056.2549999449,956162.3799999943,NA,NA,NA,NA,NA,NA,NA,NA,NA,NA,NA,undefined
