workerId,hitId,assignmentId,subject,studyid,exp_date,exp_start,exp_end,time_start,time_end,trial,type,reward_validity,answer,image_top,image_left,image_right,response,response_time,response_acc,volatility,practice
dy1bfc4T,33ixyhizc8v0km0rv7j1cbq82t9e2g,3vw6495tlndqew8jfv7sh2flbacyyi,dy1bfc4T,2020-0188,2020-11-15,00:14:55,00:31:24,NA,incomplete,0,filling,1,left,Red_Star_Dots_2.jpg,Green_Triangle_Dots_3.jpg,Blue_Star_Stripes_1.jpg,none,0,false,NA,true
dy1bfc4T,33ixyhizc8v0km0rv7j1cbq82t9e2g,3vw6495tlndqew8jfv7sh2flbacyyi,dy1bfc4T,2020-0188,2020-11-15,00:14:55,00:31:24,NA,incomplete,1,filling,1,right,Blue_Circle_Stripes_1.jpg,Purple_Circle_Grid_4.jpg,Green_Plus_Stripes_2.jpg,right,1198.5949999652803,true,NA,true
dy1bfc4T,33ixyhizc8v0km0rv7j1cbq82t9e2g,3vw6495tlndqew8jfv7sh2flbacyyi,dy1bfc4T,2020-0188,2020-11-15,00:14:55,00:31:24,NA,incomplete,2,filling,0,right,Red_Plus_Chess_2.jpg,Purple_Plus_Grid_4.jpg,Green_Star_Chess_1.jpg,right,925.1050000311807,true,NA,true
dy1bfc4T,33ixyhizc8v0km0rv7j1cbq82t9e2g,3vw6495tlndqew8jfv7sh2flbacyyi,dy1bfc4T,2020-0188,2020-11-15,00:14:55,00:31:24,NA,incomplete,3,filling,1,right,Blue_Triangle_Grid_2.jpg,Red_Triangle_Dots_4.jpg,Purple_Circle_Grid_3.jpg,right,952.5049999938346,true,NA,true
dy1bfc4T,33ixyhizc8v0km0rv7j1cbq82t9e2g,3vw6495tlndqew8jfv7sh2flbacyyi,dy1bfc4T,2020-0188,2020-11-15,00:14:55,00:31:24,NA,incomplete,4,filling,1,right,Green_Triangle_Grid_1.jpg,Red_Triangle_Chess_3.jpg,Blue_Plus_Grid_4.jpg,right,1315.9450000384822,true,NA,true
dy1bfc4T,33ixyhizc8v0km0rv7j1cbq82t9e2g,3vw6495tlndqew8jfv7sh2flbacyyi,dy1bfc4T,2020-0188,2020-11-15,00:14:55,00:31:24,NA,incomplete,5,filling,1,right,Red_Triangle_Chess_3.jpg,Green_Triangle_Stripes_4.jpg,Blue_Star_Chess_1.jpg,right,1057.8199999872595,true,NA,true
dy1bfc4T,33ixyhizc8v0km0rv7j1cbq82t9e2g,3vw6495tlndqew8jfv7sh2flbacyyi,dy1bfc4T,2020-0188,2020-11-15,00:14:55,00:31:24,NA,incomplete,6,filling,1,left,Red_Plus_Dots_2.jpg,Purple_Triangle_Dots_3.jpg,Blue_Plus_Chess_4.jpg,left,1074.4549999944866,true,NA,true
dy1bfc4T,33ixyhizc8v0km0rv7j1cbq82t9e2g,3vw6495tlndqew8jfv7sh2flbacyyi,dy1bfc4T,2020-0188,2020-11-15,00:14:55,00:31:24,NA,incomplete,7,filling,1,left,Blue_Star_Stripes_3.jpg,Red_Triangle_Stripes_2.jpg,Green_Star_Dots_1.jpg,left,1161.8650000309572,true,NA,true
dy1bfc4T,33ixyhizc8v0km0rv7j1cbq82t9e2g,3vw6495tlndqew8jfv7sh2flbacyyi,dy1bfc4T,2020-0188,2020-11-15,00:14:55,00:31:24,NA,incomplete,8,filling,1,left,Purple_Circle_Dots_2.jpg,Green_Star_Dots_1.jpg,Blue_Circle_Grid_4.jpg,left,1080.1850000279956,true,NA,true
dy1bfc4T,33ixyhizc8v0km0rv7j1cbq82t9e2g,3vw6495tlndqew8jfv7sh2flbacyyi,dy1bfc4T,2020-0188,2020-11-15,00:14:55,00:31:24,NA,incomplete,9,filling,1,right,Red_Star_Grid_3.jpg,Purple_Star_Dots_2.jpg,Blue_Plus_Grid_4.jpg,right,1096.480000007432,true,NA,true
dy1bfc4T,33ixyhizc8v0km0rv7j1cbq82t9e2g,3vw6495tlndqew8jfv7sh2flbacyyi,dy1bfc4T,2020-0188,2020-11-15,00:14:55,00:31:24,NA,incomplete,10,filling,1,right,Purple_Triangle_Stripes_3.jpg,Blue_Triangle_Chess_1.jpg,Green_Circle_Stripes_2.jpg,right,974.9599999631755,true,NA,true
dy1bfc4T,33ixyhizc8v0km0rv7j1cbq82t9e2g,3vw6495tlndqew8jfv7sh2flbacyyi,dy1bfc4T,2020-0188,2020-11-15,00:14:55,00:31:24,NA,incomplete,11,filling,0,left,Red_Star_Dots_2.jpg,Green_Circle_Dots_3.jpg,Purple_Star_Grid_4.jpg,left,1478.9799999562092,true,NA,true
dy1bfc4T,33ixyhizc8v0km0rv7j1cbq82t9e2g,3vw6495tlndqew8jfv7sh2flbacyyi,dy1bfc4T,2020-0188,2020-11-15,00:14:55,00:31:24,NA,incomplete,12,filling,0,left,Blue_Triangle_Chess_1.jpg,Purple_Circle_Chess_2.jpg,Green_Triangle_Grid_4.jpg,left,1040.2999999932945,true,NA,true
dy1bfc4T,33ixyhizc8v0km0rv7j1cbq82t9e2g,3vw6495tlndqew8jfv7sh2flbacyyi,dy1bfc4T,2020-0188,2020-11-15,00:14:55,00:31:24,NA,incomplete,13,filling,1,right,Blue_Circle_Grid_2.jpg,Green_Circle_Stripes_4.jpg,Purple_Star_Grid_1.jpg,left,894.739999959711,false,NA,true
dy1bfc4T,33ixyhizc8v0km0rv7j1cbq82t9e2g,3vw6495tlndqew8jfv7sh2flbacyyi,dy1bfc4T,2020-0188,2020-11-15,00:14:55,00:31:24,NA,incomplete,14,filling,1,right,Purple_Triangle_Stripes_3.jpg,Green_Triangle_Dots_4.jpg,Red_Circle_Stripes_1.jpg,right,993.140000035055,true,NA,true
dy1bfc4T,33ixyhizc8v0km0rv7j1cbq82t9e2g,3vw6495tlndqew8jfv7sh2flbacyyi,dy1bfc4T,2020-0188,2020-11-15,00:14:55,00:31:24,NA,incomplete,15,filling,0,right,Blue_Star_Chess_1.jpg,Purple_Star_Dots_2.jpg,Red_Triangle_Chess_3.jpg,right,901.7299999832176,true,NA,true
dy1bfc4T,33ixyhizc8v0km0rv7j1cbq82t9e2g,3vw6495tlndqew8jfv7sh2flbacyyi,dy1bfc4T,2020-0188,2020-11-15,00:14:55,00:31:24,NA,incomplete,16,filling,1,left,Red_Circle_Stripes_2.jpg,Purple_Plus_Stripes_1.jpg,Blue_Circle_Dots_4.jpg,left,866.6749999974854,true,NA,true
dy1bfc4T,33ixyhizc8v0km0rv7j1cbq82t9e2g,3vw6495tlndqew8jfv7sh2flbacyyi,dy1bfc4T,2020-0188,2020-11-15,00:14:55,00:31:24,NA,incomplete,17,filling,1,right,Purple_Circle_Grid_1.jpg,Red_Circle_Stripes_4.jpg,Green_Triangle_Grid_3.jpg,right,1152.9849999933504,true,NA,true
dy1bfc4T,33ixyhizc8v0km0rv7j1cbq82t9e2g,3vw6495tlndqew8jfv7sh2flbacyyi,dy1bfc4T,2020-0188,2020-11-15,00:14:55,00:31:24,NA,incomplete,18,filling,1,right,Purple_Star_Dots_3.jpg,Red_Star_Stripes_2.jpg,Green_Circle_Dots_4.jpg,right,1092.5799999968149,true,NA,true
dy1bfc4T,33ixyhizc8v0km0rv7j1cbq82t9e2g,3vw6495tlndqew8jfv7sh2flbacyyi,dy1bfc4T,2020-0188,2020-11-15,00:14:55,00:31:24,NA,incomplete,19,filling,1,right,Purple_Triangle_Chess_3.jpg,Red_Triangle_Grid_2.jpg,Blue_Plus_Chess_4.jpg,right,946.494999981951,true,NA,true
dy1bfc4T,33ixyhizc8v0km0rv7j1cbq82t9e2g,3vw6495tlndqew8jfv7sh2flbacyyi,dy1bfc4T,2020-0188,2020-11-15,00:14:55,00:31:24,NA,incomplete,20,shape,0,right,Red_Star_Grid_1.jpg,Green_Circle_Grid_2.jpg,Blue_Star_Dots_4.jpg,right,1501.300000003539,true,NA,true
dy1bfc4T,33ixyhizc8v0km0rv7j1cbq82t9e2g,3vw6495tlndqew8jfv7sh2flbacyyi,dy1bfc4T,2020-0188,2020-11-15,00:14:55,00:31:24,NA,incomplete,21,shape,1,left,Blue_Star_Stripes_4.jpg,Red_Star_Chess_3.jpg,Green_Plus_Stripes_1.jpg,left,811.6500000469387,true,NA,true
dy1bfc4T,33ixyhizc8v0km0rv7j1cbq82t9e2g,3vw6495tlndqew8jfv7sh2flbacyyi,dy1bfc4T,2020-0188,2020-11-15,00:14:55,00:31:24,NA,incomplete,22,shape,1,left,Purple_Star_Stripes_3.jpg,Green_Star_Dots_1.jpg,Blue_Circle_Stripes_4.jpg,left,883.8149999501184,true,NA,true
dy1bfc4T,33ixyhizc8v0km0rv7j1cbq82t9e2g,3vw6495tlndqew8jfv7sh2flbacyyi,dy1bfc4T,2020-0188,2020-11-15,00:14:55,00:31:24,NA,incomplete,23,shape,1,right,Purple_Star_Chess_3.jpg,Green_Circle_Chess_2.jpg,Red_Star_Dots_4.jpg,right,1203.2749999780208,true,NA,true
dy1bfc4T,33ixyhizc8v0km0rv7j1cbq82t9e2g,3vw6495tlndqew8jfv7sh2flbacyyi,dy1bfc4T,2020-0188,2020-11-15,00:14:55,00:31:24,NA,incomplete,24,shape,0,left,Blue_Triangle_Chess_1.jpg,Purple_Triangle_Dots_2.jpg,Red_Circle_Chess_3.jpg,left,876.9600000232458,true,NA,true
dy1bfc4T,33ixyhizc8v0km0rv7j1cbq82t9e2g,3vw6495tlndqew8jfv7sh2flbacyyi,dy1bfc4T,2020-0188,2020-11-15,00:14:55,00:31:24,NA,incomplete,25,shape,1,right,Green_Star_Grid_2.jpg,Purple_Plus_Grid_1.jpg,Blue_Star_Dots_3.jpg,right,647.5700000301003,true,NA,true
dy1bfc4T,33ixyhizc8v0km0rv7j1cbq82t9e2g,3vw6495tlndqew8jfv7sh2flbacyyi,dy1bfc4T,2020-0188,2020-11-15,00:14:55,00:31:24,NA,incomplete,26,shape,1,right,Red_Triangle_Chess_4.jpg,Purple_Circle_Chess_1.jpg,Blue_Triangle_Stripes_3.jpg,right,557.0200000074692,true,NA,true
dy1bfc4T,33ixyhizc8v0km0rv7j1cbq82t9e2g,3vw6495tlndqew8jfv7sh2flbacyyi,dy1bfc4T,2020-0188,2020-11-15,00:14:55,00:31:24,NA,incomplete,27,shape,1,left,Red_Triangle_Dots_2.jpg,Green_Triangle_Grid_3.jpg,Purple_Plus_Dots_1.jpg,left,563.1100000464357,true,NA,true
dy1bfc4T,33ixyhizc8v0km0rv7j1cbq82t9e2g,3vw6495tlndqew8jfv7sh2flbacyyi,dy1bfc4T,2020-0188,2020-11-15,00:14:55,00:31:24,NA,incomplete,28,shape,1,left,Green_Circle_Dots_1.jpg,Purple_Circle_Stripes_3.jpg,Red_Plus_Dots_2.jpg,left,650.6449999869801,true,NA,true
dy1bfc4T,33ixyhizc8v0km0rv7j1cbq82t9e2g,3vw6495tlndqew8jfv7sh2flbacyyi,dy1bfc4T,2020-0188,2020-11-15,00:14:55,00:31:24,NA,incomplete,29,shape,1,left,Green_Plus_Dots_4.jpg,Purple_Plus_Chess_1.jpg,Red_Triangle_Dots_3.jpg,left,718.010000011418,true,NA,true
dy1bfc4T,33ixyhizc8v0km0rv7j1cbq82t9e2g,3vw6495tlndqew8jfv7sh2flbacyyi,dy1bfc4T,2020-0188,2020-11-15,00:14:55,00:31:24,NA,incomplete,30,shape,0,right,Blue_Circle_Stripes_4.jpg,Red_Star_Stripes_2.jpg,Purple_Circle_Chess_1.jpg,right,673.6650000093505,true,NA,true
dy1bfc4T,33ixyhizc8v0km0rv7j1cbq82t9e2g,3vw6495tlndqew8jfv7sh2flbacyyi,dy1bfc4T,2020-0188,2020-11-15,00:14:55,00:31:24,NA,incomplete,31,shape,1,left,Blue_Triangle_Dots_1.jpg,Purple_Triangle_Chess_2.jpg,Green_Plus_Dots_4.jpg,left,659.6400000271387,true,NA,true
dy1bfc4T,33ixyhizc8v0km0rv7j1cbq82t9e2g,3vw6495tlndqew8jfv7sh2flbacyyi,dy1bfc4T,2020-0188,2020-11-15,00:14:55,00:31:24,NA,incomplete,32,shape,1,right,Purple_Star_Dots_3.jpg,Red_Plus_Dots_1.jpg,Green_Star_Grid_4.jpg,right,640.5550000490621,true,NA,true
dy1bfc4T,33ixyhizc8v0km0rv7j1cbq82t9e2g,3vw6495tlndqew8jfv7sh2flbacyyi,dy1bfc4T,2020-0188,2020-11-15,00:14:55,00:31:24,NA,incomplete,33,shape,1,right,Purple_Star_Dots_3.jpg,Green_Circle_Dots_4.jpg,Blue_Star_Chess_2.jpg,right,657.6999999815598,true,NA,true
dy1bfc4T,33ixyhizc8v0km0rv7j1cbq82t9e2g,3vw6495tlndqew8jfv7sh2flbacyyi,dy1bfc4T,2020-0188,2020-11-15,00:14:55,00:31:24,NA,incomplete,34,shape,0,left,Green_Plus_Grid_4.jpg,Blue_Plus_Chess_2.jpg,Red_Star_Grid_1.jpg,left,660.1999999838881,true,NA,true
dy1bfc4T,33ixyhizc8v0km0rv7j1cbq82t9e2g,3vw6495tlndqew8jfv7sh2flbacyyi,dy1bfc4T,2020-0188,2020-11-15,00:14:55,00:31:24,NA,incomplete,35,shape,1,left,Purple_Plus_Chess_3.jpg,Red_Plus_Grid_2.jpg,Green_Star_Chess_1.jpg,left,758.4700000006706,true,NA,true
dy1bfc4T,33ixyhizc8v0km0rv7j1cbq82t9e2g,3vw6495tlndqew8jfv7sh2flbacyyi,dy1bfc4T,2020-0188,2020-11-15,00:14:55,00:31:24,NA,incomplete,36,shape,1,left,Blue_Triangle_Stripes_4.jpg,Purple_Triangle_Chess_1.jpg,Green_Circle_Stripes_2.jpg,left,606.8099999683909,true,NA,true
dy1bfc4T,33ixyhizc8v0km0rv7j1cbq82t9e2g,3vw6495tlndqew8jfv7sh2flbacyyi,dy1bfc4T,2020-0188,2020-11-15,00:14:55,00:31:24,NA,incomplete,37,shape,1,left,Red_Star_Stripes_4.jpg,Green_Star_Grid_1.jpg,Purple_Circle_Stripes_3.jpg,left,678.2749999547377,true,NA,true
dy1bfc4T,33ixyhizc8v0km0rv7j1cbq82t9e2g,3vw6495tlndqew8jfv7sh2flbacyyi,dy1bfc4T,2020-0188,2020-11-15,00:14:55,00:31:24,NA,incomplete,38,shape,1,right,Green_Star_Stripes_3.jpg,Purple_Triangle_Stripes_4.jpg,Red_Star_Grid_2.jpg,right,576.6350000048988,true,NA,true
dy1bfc4T,33ixyhizc8v0km0rv7j1cbq82t9e2g,3vw6495tlndqew8jfv7sh2flbacyyi,dy1bfc4T,2020-0188,2020-11-15,00:14:55,00:31:24,NA,incomplete,39,shape,1,right,Blue_Plus_Dots_2.jpg,Green_Star_Dots_4.jpg,Purple_Plus_Chess_3.jpg,right,622.0500000054017,true,NA,true
dy1bfc4T,33ixyhizc8v0km0rv7j1cbq82t9e2g,3vw6495tlndqew8jfv7sh2flbacyyi,dy1bfc4T,2020-0188,2020-11-15,00:14:55,00:31:24,NA,incomplete,0,filling,0,right,Red_Circle_Stripes_2.jpg,Green_Circle_Dots_3.jpg,Blue_Star_Stripes_4.jpg,right,1241.4100000169128,true,low,false
dy1bfc4T,33ixyhizc8v0km0rv7j1cbq82t9e2g,3vw6495tlndqew8jfv7sh2flbacyyi,dy1bfc4T,2020-0188,2020-11-15,00:14:55,00:31:24,NA,incomplete,1,filling,1,right,Green_Plus_Stripes_2.jpg,Red_Plus_Dots_3.jpg,Purple_Circle_Stripes_1.jpg,right,1229.3949999730103,true,low,false
dy1bfc4T,33ixyhizc8v0km0rv7j1cbq82t9e2g,3vw6495tlndqew8jfv7sh2flbacyyi,dy1bfc4T,2020-0188,2020-11-15,00:14:55,00:31:24,NA,incomplete,2,filling,1,right,Green_Triangle_Dots_4.jpg,Purple_Triangle_Stripes_3.jpg,Red_Circle_Dots_2.jpg,right,1103.194999974221,true,low,false
dy1bfc4T,33ixyhizc8v0km0rv7j1cbq82t9e2g,3vw6495tlndqew8jfv7sh2flbacyyi,dy1bfc4T,2020-0188,2020-11-15,00:14:55,00:31:24,NA,incomplete,3,filling,1,left,Blue_Triangle_Chess_4.jpg,Green_Plus_Chess_1.jpg,Purple_Triangle_Dots_2.jpg,right,1033.705000008922,false,low,false
dy1bfc4T,33ixyhizc8v0km0rv7j1cbq82t9e2g,3vw6495tlndqew8jfv7sh2flbacyyi,dy1bfc4T,2020-0188,2020-11-15,00:14:55,00:31:24,NA,incomplete,4,filling,1,right,Green_Triangle_Chess_1.jpg,Blue_Triangle_Grid_3.jpg,Red_Circle_Chess_4.jpg,right,943.5050000320189,true,low,false
dy1bfc4T,33ixyhizc8v0km0rv7j1cbq82t9e2g,3vw6495tlndqew8jfv7sh2flbacyyi,dy1bfc4T,2020-0188,2020-11-15,00:14:55,00:31:24,NA,incomplete,5,filling,0,left,Blue_Plus_Dots_4.jpg,Purple_Circle_Dots_2.jpg,Green_Plus_Chess_1.jpg,left,813.3899999666028,true,low,false
dy1bfc4T,33ixyhizc8v0km0rv7j1cbq82t9e2g,3vw6495tlndqew8jfv7sh2flbacyyi,dy1bfc4T,2020-0188,2020-11-15,00:14:55,00:31:24,NA,incomplete,6,filling,1,right,Purple_Plus_Chess_3.jpg,Green_Plus_Dots_2.jpg,Blue_Circle_Chess_4.jpg,right,891.3900000043213,true,low,false
dy1bfc4T,33ixyhizc8v0km0rv7j1cbq82t9e2g,3vw6495tlndqew8jfv7sh2flbacyyi,dy1bfc4T,2020-0188,2020-11-15,00:14:55,00:31:24,NA,incomplete,7,filling,1,right,Red_Triangle_Chess_4.jpg,Green_Triangle_Dots_3.jpg,Blue_Circle_Chess_1.jpg,right,675.2350000315346,true,low,false
dy1bfc4T,33ixyhizc8v0km0rv7j1cbq82t9e2g,3vw6495tlndqew8jfv7sh2flbacyyi,dy1bfc4T,2020-0188,2020-11-15,00:14:55,00:31:24,NA,incomplete,8,filling,0,left,Red_Circle_Dots_2.jpg,Green_Plus_Dots_1.jpg,Blue_Circle_Chess_4.jpg,left,703.4400000120513,true,low,false
dy1bfc4T,33ixyhizc8v0km0rv7j1cbq82t9e2g,3vw6495tlndqew8jfv7sh2flbacyyi,dy1bfc4T,2020-0188,2020-11-15,00:14:55,00:31:24,NA,incomplete,9,filling,0,left,Purple_Plus_Dots_2.jpg,Red_Circle_Dots_3.jpg,Green_Plus_Stripes_4.jpg,left,861.220000020694,true,low,false
dy1bfc4T,33ixyhizc8v0km0rv7j1cbq82t9e2g,3vw6495tlndqew8jfv7sh2flbacyyi,dy1bfc4T,2020-0188,2020-11-15,00:14:55,00:31:24,NA,incomplete,10,filling,1,right,Blue_Plus_Grid_3.jpg,Purple_Plus_Stripes_4.jpg,Red_Triangle_Grid_2.jpg,left,1081.5399999846704,false,low,false
dy1bfc4T,33ixyhizc8v0km0rv7j1cbq82t9e2g,3vw6495tlndqew8jfv7sh2flbacyyi,dy1bfc4T,2020-0188,2020-11-15,00:14:55,00:31:24,NA,incomplete,11,filling,1,right,Green_Star_Chess_2.jpg,Red_Star_Stripes_3.jpg,Blue_Plus_Chess_4.jpg,right,1087.664999999106,true,low,false
dy1bfc4T,33ixyhizc8v0km0rv7j1cbq82t9e2g,3vw6495tlndqew8jfv7sh2flbacyyi,dy1bfc4T,2020-0188,2020-11-15,00:14:55,00:31:24,NA,incomplete,12,filling,1,right,Purple_Plus_Grid_4.jpg,Blue_Plus_Dots_3.jpg,Red_Star_Grid_1.jpg,right,1058.1200000015087,true,low,false
dy1bfc4T,33ixyhizc8v0km0rv7j1cbq82t9e2g,3vw6495tlndqew8jfv7sh2flbacyyi,dy1bfc4T,2020-0188,2020-11-15,00:14:55,00:31:24,NA,incomplete,13,filling,0,left,Green_Triangle_Dots_1.jpg,Purple_Star_Dots_4.jpg,Red_Triangle_Chess_2.jpg,left,1300.5799999809824,true,low,false
dy1bfc4T,33ixyhizc8v0km0rv7j1cbq82t9e2g,3vw6495tlndqew8jfv7sh2flbacyyi,dy1bfc4T,2020-0188,2020-11-15,00:14:55,00:31:24,NA,incomplete,14,filling,0,left,Blue_Star_Grid_2.jpg,Red_Triangle_Grid_3.jpg,Purple_Star_Stripes_1.jpg,left,1001.3850000104867,true,low,false
dy1bfc4T,33ixyhizc8v0km0rv7j1cbq82t9e2g,3vw6495tlndqew8jfv7sh2flbacyyi,dy1bfc4T,2020-0188,2020-11-15,00:14:55,00:31:24,NA,incomplete,15,filling,1,right,Purple_Plus_Stripes_4.jpg,Green_Plus_Chess_1.jpg,Red_Circle_Stripes_2.jpg,right,1043.7249999959022,true,low,false
dy1bfc4T,33ixyhizc8v0km0rv7j1cbq82t9e2g,3vw6495tlndqew8jfv7sh2flbacyyi,dy1bfc4T,2020-0188,2020-11-15,00:14:55,00:31:24,NA,incomplete,16,filling,1,left,Blue_Circle_Chess_1.jpg,Red_Triangle_Chess_2.jpg,Purple_Circle_Dots_4.jpg,left,733.6249999934807,true,low,false
dy1bfc4T,33ixyhizc8v0km0rv7j1cbq82t9e2g,3vw6495tlndqew8jfv7sh2flbacyyi,dy1bfc4T,2020-0188,2020-11-15,00:14:55,00:31:24,NA,incomplete,17,filling,0,left,Red_Circle_Chess_2.jpg,Purple_Star_Chess_3.jpg,Blue_Circle_Grid_4.jpg,right,634.7999999998137,false,low,false
dy1bfc4T,33ixyhizc8v0km0rv7j1cbq82t9e2g,3vw6495tlndqew8jfv7sh2flbacyyi,dy1bfc4T,2020-0188,2020-11-15,00:14:55,00:31:24,NA,incomplete,18,filling,1,left,Purple_Triangle_Chess_4.jpg,Green_Star_Chess_2.jpg,Blue_Triangle_Dots_3.jpg,right,930.1550000091083,false,low,false
dy1bfc4T,33ixyhizc8v0km0rv7j1cbq82t9e2g,3vw6495tlndqew8jfv7sh2flbacyyi,dy1bfc4T,2020-0188,2020-11-15,00:14:55,00:31:24,NA,incomplete,19,filling,1,left,Red_Triangle_Dots_3.jpg,Purple_Circle_Dots_1.jpg,Green_Triangle_Grid_4.jpg,left,950.4350000061095,true,low,false
dy1bfc4T,33ixyhizc8v0km0rv7j1cbq82t9e2g,3vw6495tlndqew8jfv7sh2flbacyyi,dy1bfc4T,2020-0188,2020-11-15,00:14:55,00:31:24,NA,incomplete,20,filling,1,left,Red_Star_Grid_3.jpg,Blue_Triangle_Grid_1.jpg,Purple_Star_Stripes_2.jpg,left,1082.7100000460632,true,low,false
dy1bfc4T,33ixyhizc8v0km0rv7j1cbq82t9e2g,3vw6495tlndqew8jfv7sh2flbacyyi,dy1bfc4T,2020-0188,2020-11-15,00:14:55,00:31:24,NA,incomplete,21,filling,1,right,Blue_Plus_Grid_2.jpg,Green_Plus_Chess_1.jpg,Purple_Triangle_Grid_4.jpg,right,1098.100000002887,true,low,false
dy1bfc4T,33ixyhizc8v0km0rv7j1cbq82t9e2g,3vw6495tlndqew8jfv7sh2flbacyyi,dy1bfc4T,2020-0188,2020-11-15,00:14:55,00:31:24,NA,incomplete,22,filling,1,left,Purple_Triangle_Grid_2.jpg,Green_Plus_Grid_4.jpg,Red_Triangle_Chess_1.jpg,left,1033.4750000038184,true,low,false
dy1bfc4T,33ixyhizc8v0km0rv7j1cbq82t9e2g,3vw6495tlndqew8jfv7sh2flbacyyi,dy1bfc4T,2020-0188,2020-11-15,00:14:55,00:31:24,NA,incomplete,23,filling,1,right,Red_Triangle_Chess_3.jpg,Green_Triangle_Stripes_4.jpg,Blue_Plus_Chess_1.jpg,right,860.7549999724142,true,low,false
dy1bfc4T,33ixyhizc8v0km0rv7j1cbq82t9e2g,3vw6495tlndqew8jfv7sh2flbacyyi,dy1bfc4T,2020-0188,2020-11-15,00:14:55,00:31:24,NA,incomplete,24,filling,1,right,Blue_Circle_Chess_3.jpg,Purple_Circle_Dots_4.jpg,Red_Plus_Chess_2.jpg,right,1056.4899999881163,true,low,false
dy1bfc4T,33ixyhizc8v0km0rv7j1cbq82t9e2g,3vw6495tlndqew8jfv7sh2flbacyyi,dy1bfc4T,2020-0188,2020-11-15,00:14:55,00:31:24,NA,incomplete,25,filling,1,left,Green_Triangle_Grid_3.jpg,Blue_Star_Grid_2.jpg,Red_Triangle_Dots_1.jpg,left,785.1649999502115,true,low,false
dy1bfc4T,33ixyhizc8v0km0rv7j1cbq82t9e2g,3vw6495tlndqew8jfv7sh2flbacyyi,dy1bfc4T,2020-0188,2020-11-15,00:14:55,00:31:24,NA,incomplete,26,filling,1,left,Red_Triangle_Grid_2.jpg,Blue_Circle_Grid_3.jpg,Green_Triangle_Stripes_1.jpg,left,779.500000004191,true,low,false
dy1bfc4T,33ixyhizc8v0km0rv7j1cbq82t9e2g,3vw6495tlndqew8jfv7sh2flbacyyi,dy1bfc4T,2020-0188,2020-11-15,00:14:55,00:31:24,NA,incomplete,27,filling,1,left,Blue_Triangle_Chess_4.jpg,Red_Circle_Chess_1.jpg,Purple_Triangle_Dots_2.jpg,left,750.6600000197068,true,low,false
dy1bfc4T,33ixyhizc8v0km0rv7j1cbq82t9e2g,3vw6495tlndqew8jfv7sh2flbacyyi,dy1bfc4T,2020-0188,2020-11-15,00:14:55,00:31:24,NA,incomplete,28,filling,1,right,Blue_Plus_Dots_2.jpg,Red_Plus_Chess_3.jpg,Purple_Triangle_Dots_4.jpg,right,1147.9249999974854,true,low,false
dy1bfc4T,33ixyhizc8v0km0rv7j1cbq82t9e2g,3vw6495tlndqew8jfv7sh2flbacyyi,dy1bfc4T,2020-0188,2020-11-15,00:14:55,00:31:24,NA,incomplete,29,filling,1,right,Purple_Plus_Grid_4.jpg,Red_Plus_Chess_3.jpg,Blue_Triangle_Grid_1.jpg,right,1068.329999980051,true,low,false
dy1bfc4T,33ixyhizc8v0km0rv7j1cbq82t9e2g,3vw6495tlndqew8jfv7sh2flbacyyi,dy1bfc4T,2020-0188,2020-11-15,00:14:55,00:31:24,NA,incomplete,30,shape,1,right,Purple_Plus_Chess_1.jpg,Blue_Circle_Chess_3.jpg,Green_Plus_Stripes_2.jpg,left,777.5799999944866,false,low,false
dy1bfc4T,33ixyhizc8v0km0rv7j1cbq82t9e2g,3vw6495tlndqew8jfv7sh2flbacyyi,dy1bfc4T,2020-0188,2020-11-15,00:14:55,00:31:24,NA,incomplete,31,shape,1,left,Green_Circle_Stripes_3.jpg,Purple_Circle_Chess_2.jpg,Red_Star_Stripes_1.jpg,right,945.2149999560788,false,low,false
dy1bfc4T,33ixyhizc8v0km0rv7j1cbq82t9e2g,3vw6495tlndqew8jfv7sh2flbacyyi,dy1bfc4T,2020-0188,2020-11-15,00:14:55,00:31:24,NA,incomplete,32,shape,1,right,Blue_Plus_Dots_3.jpg,Green_Star_Dots_2.jpg,Red_Plus_Grid_1.jpg,left,1467.9400000022724,false,low,false
dy1bfc4T,33ixyhizc8v0km0rv7j1cbq82t9e2g,3vw6495tlndqew8jfv7sh2flbacyyi,dy1bfc4T,2020-0188,2020-11-15,00:14:55,00:31:24,NA,incomplete,33,shape,1,right,Red_Circle_Stripes_4.jpg,Purple_Star_Stripes_3.jpg,Green_Circle_Grid_1.jpg,right,757.6000000117347,true,low,false
dy1bfc4T,33ixyhizc8v0km0rv7j1cbq82t9e2g,3vw6495tlndqew8jfv7sh2flbacyyi,dy1bfc4T,2020-0188,2020-11-15,00:14:55,00:31:24,NA,incomplete,34,shape,1,left,Green_Triangle_Chess_2.jpg,Red_Triangle_Stripes_4.jpg,Blue_Circle_Chess_3.jpg,left,898.9849999779835,true,low,false
dy1bfc4T,33ixyhizc8v0km0rv7j1cbq82t9e2g,3vw6495tlndqew8jfv7sh2flbacyyi,dy1bfc4T,2020-0188,2020-11-15,00:14:55,00:31:24,NA,incomplete,35,shape,1,left,Green_Plus_Dots_4.jpg,Red_Plus_Stripes_2.jpg,Blue_Star_Dots_3.jpg,left,731.4100000075996,true,low,false
dy1bfc4T,33ixyhizc8v0km0rv7j1cbq82t9e2g,3vw6495tlndqew8jfv7sh2flbacyyi,dy1bfc4T,2020-0188,2020-11-15,00:14:55,00:31:24,NA,incomplete,36,shape,1,left,Purple_Plus_Dots_3.jpg,Red_Plus_Grid_4.jpg,Green_Triangle_Dots_1.jpg,left,747.8349999873899,true,low,false
dy1bfc4T,33ixyhizc8v0km0rv7j1cbq82t9e2g,3vw6495tlndqew8jfv7sh2flbacyyi,dy1bfc4T,2020-0188,2020-11-15,00:14:55,00:31:24,NA,incomplete,37,shape,1,right,Green_Star_Grid_3.jpg,Purple_Triangle_Grid_2.jpg,Blue_Star_Chess_4.jpg,right,1286.6950000170618,true,low,false
dy1bfc4T,33ixyhizc8v0km0rv7j1cbq82t9e2g,3vw6495tlndqew8jfv7sh2flbacyyi,dy1bfc4T,2020-0188,2020-11-15,00:14:55,00:31:24,NA,incomplete,38,shape,1,right,Red_Star_Grid_3.jpg,Green_Plus_Grid_2.jpg,Purple_Star_Stripes_4.jpg,right,859.3600000021979,true,low,false
dy1bfc4T,33ixyhizc8v0km0rv7j1cbq82t9e2g,3vw6495tlndqew8jfv7sh2flbacyyi,dy1bfc4T,2020-0188,2020-11-15,00:14:55,00:31:24,NA,incomplete,39,shape,1,right,Blue_Plus_Grid_2.jpg,Green_Star_Grid_4.jpg,Red_Plus_Dots_3.jpg,right,811.6950000403449,true,low,false
dy1bfc4T,33ixyhizc8v0km0rv7j1cbq82t9e2g,3vw6495tlndqew8jfv7sh2flbacyyi,dy1bfc4T,2020-0188,2020-11-15,00:14:55,00:31:24,NA,incomplete,40,shape,1,right,Purple_Plus_Grid_2.jpg,Blue_Star_Grid_4.jpg,Red_Plus_Stripes_3.jpg,right,721.6699999989942,true,low,false
dy1bfc4T,33ixyhizc8v0km0rv7j1cbq82t9e2g,3vw6495tlndqew8jfv7sh2flbacyyi,dy1bfc4T,2020-0188,2020-11-15,00:14:55,00:31:24,NA,incomplete,41,shape,1,left,Purple_Plus_Grid_4.jpg,Blue_Plus_Dots_3.jpg,Green_Triangle_Grid_2.jpg,left,799.0249999566004,true,low,false
dy1bfc4T,33ixyhizc8v0km0rv7j1cbq82t9e2g,3vw6495tlndqew8jfv7sh2flbacyyi,dy1bfc4T,2020-0188,2020-11-15,00:14:55,00:31:24,NA,incomplete,42,shape,1,right,Green_Star_Chess_4.jpg,Red_Plus_Chess_3.jpg,Blue_Star_Dots_2.jpg,right,740.6600000103936,true,low,false
dy1bfc4T,33ixyhizc8v0km0rv7j1cbq82t9e2g,3vw6495tlndqew8jfv7sh2flbacyyi,dy1bfc4T,2020-0188,2020-11-15,00:14:55,00:31:24,NA,incomplete,43,shape,1,right,Purple_Circle_Grid_2.jpg,Green_Plus_Grid_1.jpg,Blue_Circle_Dots_3.jpg,right,817.3050000332296,true,low,false
dy1bfc4T,33ixyhizc8v0km0rv7j1cbq82t9e2g,3vw6495tlndqew8jfv7sh2flbacyyi,dy1bfc4T,2020-0188,2020-11-15,00:14:55,00:31:24,NA,incomplete,44,shape,1,right,Purple_Plus_Stripes_3.jpg,Green_Circle_Stripes_2.jpg,Red_Plus_Grid_4.jpg,right,686.2199999741279,true,low,false
dy1bfc4T,33ixyhizc8v0km0rv7j1cbq82t9e2g,3vw6495tlndqew8jfv7sh2flbacyyi,dy1bfc4T,2020-0188,2020-11-15,00:14:55,00:31:24,NA,incomplete,45,shape,1,right,Blue_Circle_Dots_4.jpg,Green_Star_Dots_2.jpg,Red_Circle_Grid_3.jpg,right,631.325000023935,true,low,false
dy1bfc4T,33ixyhizc8v0km0rv7j1cbq82t9e2g,3vw6495tlndqew8jfv7sh2flbacyyi,dy1bfc4T,2020-0188,2020-11-15,00:14:55,00:31:24,NA,incomplete,46,shape,1,left,Red_Triangle_Stripes_1.jpg,Purple_Triangle_Chess_2.jpg,Green_Circle_Stripes_3.jpg,left,827.5049999938346,true,low,false
dy1bfc4T,33ixyhizc8v0km0rv7j1cbq82t9e2g,3vw6495tlndqew8jfv7sh2flbacyyi,dy1bfc4T,2020-0188,2020-11-15,00:14:55,00:31:24,NA,incomplete,47,shape,1,right,Green_Triangle_Dots_1.jpg,Purple_Circle_Dots_3.jpg,Blue_Triangle_Grid_4.jpg,right,715.299999981653,true,low,false
dy1bfc4T,33ixyhizc8v0km0rv7j1cbq82t9e2g,3vw6495tlndqew8jfv7sh2flbacyyi,dy1bfc4T,2020-0188,2020-11-15,00:14:55,00:31:24,NA,incomplete,48,shape,1,left,Red_Plus_Stripes_2.jpg,Purple_Plus_Dots_3.jpg,Blue_Triangle_Stripes_4.jpg,left,713.3599999942817,true,low,false
dy1bfc4T,33ixyhizc8v0km0rv7j1cbq82t9e2g,3vw6495tlndqew8jfv7sh2flbacyyi,dy1bfc4T,2020-0188,2020-11-15,00:14:55,00:31:24,NA,incomplete,49,shape,1,left,Blue_Plus_Grid_4.jpg,Green_Plus_Dots_2.jpg,Red_Triangle_Grid_1.jpg,left,733.7349999579601,true,low,false
dy1bfc4T,33ixyhizc8v0km0rv7j1cbq82t9e2g,3vw6495tlndqew8jfv7sh2flbacyyi,dy1bfc4T,2020-0188,2020-11-15,00:14:55,00:31:24,NA,incomplete,50,shape,1,left,Red_Plus_Grid_1.jpg,Blue_Plus_Stripes_3.jpg,Green_Star_Grid_2.jpg,left,735.3550000116229,true,low,false
dy1bfc4T,33ixyhizc8v0km0rv7j1cbq82t9e2g,3vw6495tlndqew8jfv7sh2flbacyyi,dy1bfc4T,2020-0188,2020-11-15,00:14:55,00:31:24,NA,incomplete,51,shape,1,left,Red_Triangle_Grid_3.jpg,Blue_Triangle_Stripes_1.jpg,Green_Plus_Grid_4.jpg,left,751.1900000390597,true,low,false
dy1bfc4T,33ixyhizc8v0km0rv7j1cbq82t9e2g,3vw6495tlndqew8jfv7sh2flbacyyi,dy1bfc4T,2020-0188,2020-11-15,00:14:55,00:31:24,NA,incomplete,52,shape,1,left,Purple_Plus_Dots_4.jpg,Red_Plus_Stripes_2.jpg,Blue_Star_Dots_3.jpg,left,653.4250000258908,true,low,false
dy1bfc4T,33ixyhizc8v0km0rv7j1cbq82t9e2g,3vw6495tlndqew8jfv7sh2flbacyyi,dy1bfc4T,2020-0188,2020-11-15,00:14:55,00:31:24,NA,incomplete,53,shape,1,left,Purple_Plus_Chess_4.jpg,Green_Plus_Stripes_3.jpg,Blue_Circle_Chess_1.jpg,left,654.2099999496713,true,low,false
dy1bfc4T,33ixyhizc8v0km0rv7j1cbq82t9e2g,3vw6495tlndqew8jfv7sh2flbacyyi,dy1bfc4T,2020-0188,2020-11-15,00:14:55,00:31:24,NA,incomplete,54,shape,0,left,Green_Star_Grid_3.jpg,Blue_Star_Chess_1.jpg,Purple_Circle_Grid_2.jpg,left,675.4049999872223,true,low,false
dy1bfc4T,33ixyhizc8v0km0rv7j1cbq82t9e2g,3vw6495tlndqew8jfv7sh2flbacyyi,dy1bfc4T,2020-0188,2020-11-15,00:14:55,00:31:24,NA,incomplete,55,shape,0,left,Purple_Circle_Chess_4.jpg,Red_Circle_Stripes_2.jpg,Green_Triangle_Chess_1.jpg,left,690.2550000231713,true,low,false
dy1bfc4T,33ixyhizc8v0km0rv7j1cbq82t9e2g,3vw6495tlndqew8jfv7sh2flbacyyi,dy1bfc4T,2020-0188,2020-11-15,00:14:55,00:31:24,NA,incomplete,56,shape,1,right,Blue_Star_Stripes_2.jpg,Purple_Plus_Stripes_3.jpg,Red_Star_Dots_4.jpg,left,816.0999999963678,false,low,false
dy1bfc4T,33ixyhizc8v0km0rv7j1cbq82t9e2g,3vw6495tlndqew8jfv7sh2flbacyyi,dy1bfc4T,2020-0188,2020-11-15,00:14:55,00:31:24,NA,incomplete,57,shape,1,right,Blue_Triangle_Chess_1.jpg,Purple_Plus_Chess_2.jpg,Red_Triangle_Grid_4.jpg,right,749.1750000044703,true,low,false
dy1bfc4T,33ixyhizc8v0km0rv7j1cbq82t9e2g,3vw6495tlndqew8jfv7sh2flbacyyi,dy1bfc4T,2020-0188,2020-11-15,00:14:55,00:31:24,NA,incomplete,58,shape,1,left,Purple_Circle_Chess_2.jpg,Red_Circle_Grid_4.jpg,Blue_Plus_Chess_1.jpg,left,667.4950000015087,true,low,false
dy1bfc4T,33ixyhizc8v0km0rv7j1cbq82t9e2g,3vw6495tlndqew8jfv7sh2flbacyyi,dy1bfc4T,2020-0188,2020-11-15,00:14:55,00:31:24,NA,incomplete,59,shape,0,right,Blue_Star_Chess_2.jpg,Purple_Plus_Chess_1.jpg,Green_Star_Stripes_3.jpg,right,697.6649999851361,true,low,false
dy1bfc4T,33ixyhizc8v0km0rv7j1cbq82t9e2g,3vw6495tlndqew8jfv7sh2flbacyyi,dy1bfc4T,2020-0188,2020-11-15,00:14:55,00:31:24,NA,incomplete,60,filling,1,right,Purple_Plus_Chess_3.jpg,Blue_Plus_Stripes_1.jpg,Green_Circle_Chess_4.jpg,left,1066.1800000234507,false,low,false
dy1bfc4T,33ixyhizc8v0km0rv7j1cbq82t9e2g,3vw6495tlndqew8jfv7sh2flbacyyi,dy1bfc4T,2020-0188,2020-11-15,00:14:55,00:31:24,NA,incomplete,61,filling,1,right,Green_Star_Dots_3.jpg,Blue_Star_Stripes_2.jpg,Purple_Plus_Dots_1.jpg,right,1144.41499998793,true,low,false
dy1bfc4T,33ixyhizc8v0km0rv7j1cbq82t9e2g,3vw6495tlndqew8jfv7sh2flbacyyi,dy1bfc4T,2020-0188,2020-11-15,00:14:55,00:31:24,NA,incomplete,62,filling,1,left,Green_Star_Grid_3.jpg,Purple_Triangle_Grid_2.jpg,Blue_Star_Stripes_1.jpg,left,1017.554999969434,true,low,false
dy1bfc4T,33ixyhizc8v0km0rv7j1cbq82t9e2g,3vw6495tlndqew8jfv7sh2flbacyyi,dy1bfc4T,2020-0188,2020-11-15,00:14:55,00:31:24,NA,incomplete,63,filling,1,left,Purple_Triangle_Grid_2.jpg,Green_Star_Grid_4.jpg,Red_Triangle_Stripes_1.jpg,left,1058.995000028517,true,low,false
dy1bfc4T,33ixyhizc8v0km0rv7j1cbq82t9e2g,3vw6495tlndqew8jfv7sh2flbacyyi,dy1bfc4T,2020-0188,2020-11-15,00:14:55,00:31:24,NA,incomplete,64,filling,0,right,Blue_Circle_Chess_1.jpg,Purple_Circle_Stripes_3.jpg,Red_Plus_Chess_2.jpg,right,893.6800000374205,true,low,false
dy1bfc4T,33ixyhizc8v0km0rv7j1cbq82t9e2g,3vw6495tlndqew8jfv7sh2flbacyyi,dy1bfc4T,2020-0188,2020-11-15,00:14:55,00:31:24,NA,incomplete,65,filling,1,right,Red_Plus_Chess_3.jpg,Purple_Plus_Stripes_2.jpg,Green_Star_Chess_4.jpg,right,989.9700000532903,true,low,false
dy1bfc4T,33ixyhizc8v0km0rv7j1cbq82t9e2g,3vw6495tlndqew8jfv7sh2flbacyyi,dy1bfc4T,2020-0188,2020-11-15,00:14:55,00:31:24,NA,incomplete,66,filling,0,left,Green_Star_Dots_4.jpg,Red_Circle_Dots_2.jpg,Blue_Star_Chess_1.jpg,left,805.3199999849312,true,low,false
dy1bfc4T,33ixyhizc8v0km0rv7j1cbq82t9e2g,3vw6495tlndqew8jfv7sh2flbacyyi,dy1bfc4T,2020-0188,2020-11-15,00:14:55,00:31:24,NA,incomplete,67,filling,1,left,Red_Plus_Grid_1.jpg,Purple_Circle_Grid_2.jpg,Blue_Plus_Chess_4.jpg,left,1346.4000000385568,true,low,false
dy1bfc4T,33ixyhizc8v0km0rv7j1cbq82t9e2g,3vw6495tlndqew8jfv7sh2flbacyyi,dy1bfc4T,2020-0188,2020-11-15,00:14:55,00:31:24,NA,incomplete,68,filling,1,right,Green_Circle_Grid_3.jpg,Purple_Circle_Dots_1.jpg,Blue_Star_Grid_2.jpg,right,881.5400000312366,true,low,false
dy1bfc4T,33ixyhizc8v0km0rv7j1cbq82t9e2g,3vw6495tlndqew8jfv7sh2flbacyyi,dy1bfc4T,2020-0188,2020-11-15,00:14:55,00:31:24,NA,incomplete,69,filling,0,left,Red_Star_Dots_3.jpg,Purple_Plus_Dots_2.jpg,Green_Star_Stripes_1.jpg,left,1040.4750000452623,true,low,false
dy1bfc4T,33ixyhizc8v0km0rv7j1cbq82t9e2g,3vw6495tlndqew8jfv7sh2flbacyyi,dy1bfc4T,2020-0188,2020-11-15,00:14:55,00:31:24,NA,incomplete,70,filling,0,right,Green_Star_Chess_3.jpg,Purple_Star_Stripes_1.jpg,Blue_Plus_Chess_4.jpg,right,895.1550000347197,true,low,false
dy1bfc4T,33ixyhizc8v0km0rv7j1cbq82t9e2g,3vw6495tlndqew8jfv7sh2flbacyyi,dy1bfc4T,2020-0188,2020-11-15,00:14:55,00:31:24,NA,incomplete,71,filling,1,right,Green_Triangle_Stripes_4.jpg,Purple_Triangle_Dots_1.jpg,Blue_Star_Stripes_3.jpg,right,1206.6450000274926,true,low,false
dy1bfc4T,33ixyhizc8v0km0rv7j1cbq82t9e2g,3vw6495tlndqew8jfv7sh2flbacyyi,dy1bfc4T,2020-0188,2020-11-15,00:14:55,00:31:24,NA,incomplete,72,filling,1,right,Red_Plus_Stripes_2.jpg,Blue_Plus_Dots_3.jpg,Green_Circle_Stripes_4.jpg,right,764.095000049565,true,low,false
dy1bfc4T,33ixyhizc8v0km0rv7j1cbq82t9e2g,3vw6495tlndqew8jfv7sh2flbacyyi,dy1bfc4T,2020-0188,2020-11-15,00:14:55,00:31:24,NA,incomplete,73,filling,1,left,Purple_Triangle_Chess_2.jpg,Blue_Circle_Chess_3.jpg,Green_Triangle_Dots_1.jpg,left,827.8249999857508,true,low,false
dy1bfc4T,33ixyhizc8v0km0rv7j1cbq82t9e2g,3vw6495tlndqew8jfv7sh2flbacyyi,dy1bfc4T,2020-0188,2020-11-15,00:14:55,00:31:24,NA,incomplete,74,filling,1,left,Blue_Circle_Dots_4.jpg,Green_Plus_Dots_1.jpg,Purple_Circle_Chess_2.jpg,left,825.0750000006519,true,low,false
dy1bfc4T,33ixyhizc8v0km0rv7j1cbq82t9e2g,3vw6495tlndqew8jfv7sh2flbacyyi,dy1bfc4T,2020-0188,2020-11-15,00:14:55,00:31:24,NA,incomplete,75,filling,0,left,Red_Circle_Grid_3.jpg,Blue_Triangle_Grid_1.jpg,Purple_Circle_Chess_4.jpg,left,1280.945000005886,true,low,false
dy1bfc4T,33ixyhizc8v0km0rv7j1cbq82t9e2g,3vw6495tlndqew8jfv7sh2flbacyyi,dy1bfc4T,2020-0188,2020-11-15,00:14:55,00:31:24,NA,incomplete,76,filling,1,left,Green_Star_Dots_4.jpg,Purple_Circle_Dots_2.jpg,Red_Star_Grid_3.jpg,right,1247.254999994766,false,low,false
dy1bfc4T,33ixyhizc8v0km0rv7j1cbq82t9e2g,3vw6495tlndqew8jfv7sh2flbacyyi,dy1bfc4T,2020-0188,2020-11-15,00:14:55,00:31:24,NA,incomplete,77,filling,1,left,Blue_Star_Dots_2.jpg,Green_Circle_Dots_3.jpg,Purple_Star_Grid_4.jpg,right,795.4700000118464,false,low,false
dy1bfc4T,33ixyhizc8v0km0rv7j1cbq82t9e2g,3vw6495tlndqew8jfv7sh2flbacyyi,dy1bfc4T,2020-0188,2020-11-15,00:14:55,00:31:24,NA,incomplete,78,filling,1,left,Blue_Triangle_Dots_4.jpg,Red_Circle_Dots_1.jpg,Green_Triangle_Grid_3.jpg,left,811.9450000231154,true,low,false
dy1bfc4T,33ixyhizc8v0km0rv7j1cbq82t9e2g,3vw6495tlndqew8jfv7sh2flbacyyi,dy1bfc4T,2020-0188,2020-11-15,00:14:55,00:31:24,NA,incomplete,79,filling,1,right,Purple_Plus_Dots_2.jpg,Red_Plus_Stripes_3.jpg,Green_Circle_Dots_4.jpg,right,917.7350000245497,true,low,false
dy1bfc4T,33ixyhizc8v0km0rv7j1cbq82t9e2g,3vw6495tlndqew8jfv7sh2flbacyyi,dy1bfc4T,2020-0188,2020-11-15,00:14:55,00:31:24,NA,incomplete,80,filling,1,right,Green_Plus_Chess_4.jpg,Blue_Plus_Dots_3.jpg,Red_Circle_Chess_1.jpg,right,1027.91000000434,true,low,false
dy1bfc4T,33ixyhizc8v0km0rv7j1cbq82t9e2g,3vw6495tlndqew8jfv7sh2flbacyyi,dy1bfc4T,2020-0188,2020-11-15,00:14:55,00:31:24,NA,incomplete,81,filling,1,right,Red_Plus_Stripes_3.jpg,Purple_Plus_Dots_1.jpg,Green_Star_Stripes_2.jpg,right,1125.8150000358,true,low,false
dy1bfc4T,33ixyhizc8v0km0rv7j1cbq82t9e2g,3vw6495tlndqew8jfv7sh2flbacyyi,dy1bfc4T,2020-0188,2020-11-15,00:14:55,00:31:24,NA,incomplete,82,filling,1,right,Blue_Circle_Grid_4.jpg,Purple_Circle_Dots_3.jpg,Green_Star_Grid_2.jpg,right,893.4149999986403,true,low,false
dy1bfc4T,33ixyhizc8v0km0rv7j1cbq82t9e2g,3vw6495tlndqew8jfv7sh2flbacyyi,dy1bfc4T,2020-0188,2020-11-15,00:14:55,00:31:24,NA,incomplete,83,filling,1,left,Blue_Triangle_Dots_2.jpg,Purple_Circle_Dots_4.jpg,Red_Triangle_Grid_1.jpg,left,1028.5349999903701,true,low,false
dy1bfc4T,33ixyhizc8v0km0rv7j1cbq82t9e2g,3vw6495tlndqew8jfv7sh2flbacyyi,dy1bfc4T,2020-0188,2020-11-15,00:14:55,00:31:24,NA,incomplete,84,filling,0,right,Blue_Star_Grid_4.jpg,Purple_Star_Stripes_3.jpg,Green_Triangle_Grid_1.jpg,right,1037.2799999895506,true,low,false
dy1bfc4T,33ixyhizc8v0km0rv7j1cbq82t9e2g,3vw6495tlndqew8jfv7sh2flbacyyi,dy1bfc4T,2020-0188,2020-11-15,00:14:55,00:31:24,NA,incomplete,85,filling,1,left,Red_Star_Chess_1.jpg,Purple_Plus_Chess_2.jpg,Green_Star_Stripes_3.jpg,left,787.6150000374764,true,low,false
dy1bfc4T,33ixyhizc8v0km0rv7j1cbq82t9e2g,3vw6495tlndqew8jfv7sh2flbacyyi,dy1bfc4T,2020-0188,2020-11-15,00:14:55,00:31:24,NA,incomplete,86,filling,1,left,Red_Star_Grid_3.jpg,Green_Plus_Grid_1.jpg,Purple_Star_Chess_2.jpg,left,1201.2650000397116,true,low,false
dy1bfc4T,33ixyhizc8v0km0rv7j1cbq82t9e2g,3vw6495tlndqew8jfv7sh2flbacyyi,dy1bfc4T,2020-0188,2020-11-15,00:14:55,00:31:24,NA,incomplete,87,filling,1,left,Green_Triangle_Dots_1.jpg,Blue_Plus_Dots_4.jpg,Purple_Triangle_Stripes_2.jpg,left,1136.4900000044145,true,low,false
dy1bfc4T,33ixyhizc8v0km0rv7j1cbq82t9e2g,3vw6495tlndqew8jfv7sh2flbacyyi,dy1bfc4T,2020-0188,2020-11-15,00:14:55,00:31:24,NA,incomplete,88,filling,1,right,Red_Triangle_Stripes_2.jpg,Green_Triangle_Grid_4.jpg,Purple_Circle_Stripes_3.jpg,right,1389.90000000922,true,low,false
dy1bfc4T,33ixyhizc8v0km0rv7j1cbq82t9e2g,3vw6495tlndqew8jfv7sh2flbacyyi,dy1bfc4T,2020-0188,2020-11-15,00:14:55,00:31:24,NA,incomplete,89,filling,1,right,Purple_Triangle_Stripes_2.jpg,Green_Triangle_Dots_3.jpg,Blue_Star_Stripes_4.jpg,right,1075.6099999998696,true,low,false
dy1bfc4T,33ixyhizc8v0km0rv7j1cbq82t9e2g,3vw6495tlndqew8jfv7sh2flbacyyi,dy1bfc4T,2020-0188,2020-11-15,00:14:55,00:31:24,NA,incomplete,90,shape,1,right,Green_Triangle_Stripes_4.jpg,Blue_Star_Stripes_3.jpg,Purple_Triangle_Grid_1.jpg,right,894.7099999641068,true,low,false
dy1bfc4T,33ixyhizc8v0km0rv7j1cbq82t9e2g,3vw6495tlndqew8jfv7sh2flbacyyi,dy1bfc4T,2020-0188,2020-11-15,00:14:55,00:31:24,NA,incomplete,91,shape,0,left,Purple_Triangle_Chess_2.jpg,Red_Triangle_Stripes_1.jpg,Blue_Circle_Chess_4.jpg,right,858.7900000275113,false,low,false
dy1bfc4T,33ixyhizc8v0km0rv7j1cbq82t9e2g,3vw6495tlndqew8jfv7sh2flbacyyi,dy1bfc4T,2020-0188,2020-11-15,00:14:55,00:31:24,NA,incomplete,92,shape,0,left,Green_Star_Chess_2.jpg,Purple_Star_Stripes_1.jpg,Blue_Plus_Chess_4.jpg,right,969.0950000076555,false,low,false
dy1bfc4T,33ixyhizc8v0km0rv7j1cbq82t9e2g,3vw6495tlndqew8jfv7sh2flbacyyi,dy1bfc4T,2020-0188,2020-11-15,00:14:55,00:31:24,NA,incomplete,93,shape,1,left,Green_Star_Stripes_3.jpg,Red_Star_Chess_2.jpg,Purple_Plus_Stripes_1.jpg,right,961.455000040587,false,low,false
dy1bfc4T,33ixyhizc8v0km0rv7j1cbq82t9e2g,3vw6495tlndqew8jfv7sh2flbacyyi,dy1bfc4T,2020-0188,2020-11-15,00:14:55,00:31:24,NA,incomplete,94,shape,0,left,Blue_Triangle_Stripes_1.jpg,Purple_Triangle_Chess_2.jpg,Red_Circle_Stripes_3.jpg,right,910.4850000003353,false,low,false
dy1bfc4T,33ixyhizc8v0km0rv7j1cbq82t9e2g,3vw6495tlndqew8jfv7sh2flbacyyi,dy1bfc4T,2020-0188,2020-11-15,00:14:55,00:31:24,NA,incomplete,95,shape,1,left,Red_Plus_Grid_3.jpg,Blue_Plus_Stripes_2.jpg,Green_Circle_Grid_4.jpg,right,1601.955000020098,false,low,false
dy1bfc4T,33ixyhizc8v0km0rv7j1cbq82t9e2g,3vw6495tlndqew8jfv7sh2flbacyyi,dy1bfc4T,2020-0188,2020-11-15,00:14:55,00:31:24,NA,incomplete,96,shape,1,right,Purple_Star_Grid_3.jpg,Red_Plus_Grid_2.jpg,Green_Star_Dots_4.jpg,left,892.3049999866635,false,low,false
dy1bfc4T,33ixyhizc8v0km0rv7j1cbq82t9e2g,3vw6495tlndqew8jfv7sh2flbacyyi,dy1bfc4T,2020-0188,2020-11-15,00:14:55,00:31:24,NA,incomplete,97,shape,0,right,Blue_Plus_Grid_4.jpg,Purple_Circle_Grid_2.jpg,Green_Plus_Chess_1.jpg,left,1249.5149999740534,false,low,false
dy1bfc4T,33ixyhizc8v0km0rv7j1cbq82t9e2g,3vw6495tlndqew8jfv7sh2flbacyyi,dy1bfc4T,2020-0188,2020-11-15,00:14:55,00:31:24,NA,incomplete,98,shape,1,left,Red_Plus_Dots_2.jpg,Purple_Plus_Stripes_3.jpg,Blue_Star_Dots_4.jpg,right,907.5749999610707,false,low,false
dy1bfc4T,33ixyhizc8v0km0rv7j1cbq82t9e2g,3vw6495tlndqew8jfv7sh2flbacyyi,dy1bfc4T,2020-0188,2020-11-15,00:14:55,00:31:24,NA,incomplete,99,shape,1,right,Red_Circle_Stripes_1.jpg,Blue_Triangle_Stripes_3.jpg,Purple_Circle_Dots_4.jpg,left,801.9799999892712,false,low,false
dy1bfc4T,33ixyhizc8v0km0rv7j1cbq82t9e2g,3vw6495tlndqew8jfv7sh2flbacyyi,dy1bfc4T,2020-0188,2020-11-15,00:14:55,00:31:24,NA,incomplete,100,shape,0,right,Blue_Star_Stripes_2.jpg,Red_Triangle_Stripes_1.jpg,Green_Star_Dots_4.jpg,right,649.890000000596,true,low,false
dy1bfc4T,33ixyhizc8v0km0rv7j1cbq82t9e2g,3vw6495tlndqew8jfv7sh2flbacyyi,dy1bfc4T,2020-0188,2020-11-15,00:14:55,00:31:24,NA,incomplete,101,shape,1,left,Red_Plus_Dots_1.jpg,Green_Plus_Stripes_3.jpg,Purple_Circle_Dots_4.jpg,left,722.3750000121072,true,low,false
dy1bfc4T,33ixyhizc8v0km0rv7j1cbq82t9e2g,3vw6495tlndqew8jfv7sh2flbacyyi,dy1bfc4T,2020-0188,2020-11-15,00:14:55,00:31:24,NA,incomplete,102,shape,1,left,Green_Triangle_Dots_1.jpg,Purple_Triangle_Chess_4.jpg,Blue_Star_Dots_3.jpg,left,792.5300000351854,true,low,false
dy1bfc4T,33ixyhizc8v0km0rv7j1cbq82t9e2g,3vw6495tlndqew8jfv7sh2flbacyyi,dy1bfc4T,2020-0188,2020-11-15,00:14:55,00:31:24,NA,incomplete,103,shape,0,left,Blue_Triangle_Dots_2.jpg,Green_Triangle_Chess_3.jpg,Purple_Circle_Dots_1.jpg,left,889.9549999623559,true,low,false
dy1bfc4T,33ixyhizc8v0km0rv7j1cbq82t9e2g,3vw6495tlndqew8jfv7sh2flbacyyi,dy1bfc4T,2020-0188,2020-11-15,00:14:55,00:31:24,NA,incomplete,104,shape,1,right,Green_Star_Dots_4.jpg,Blue_Circle_Dots_2.jpg,Purple_Star_Grid_3.jpg,right,1330.4650000063702,true,low,false
dy1bfc4T,33ixyhizc8v0km0rv7j1cbq82t9e2g,3vw6495tlndqew8jfv7sh2flbacyyi,dy1bfc4T,2020-0188,2020-11-15,00:14:55,00:31:24,NA,incomplete,105,shape,1,right,Blue_Star_Grid_1.jpg,Red_Triangle_Grid_3.jpg,Green_Star_Dots_4.jpg,right,738.0750000011176,true,low,false
dy1bfc4T,33ixyhizc8v0km0rv7j1cbq82t9e2g,3vw6495tlndqew8jfv7sh2flbacyyi,dy1bfc4T,2020-0188,2020-11-15,00:14:55,00:31:24,NA,incomplete,106,shape,1,left,Purple_Star_Grid_2.jpg,Green_Star_Dots_1.jpg,Blue_Circle_Grid_3.jpg,left,724.5099999709055,true,low,false
dy1bfc4T,33ixyhizc8v0km0rv7j1cbq82t9e2g,3vw6495tlndqew8jfv7sh2flbacyyi,dy1bfc4T,2020-0188,2020-11-15,00:14:55,00:31:24,NA,incomplete,107,shape,1,left,Green_Plus_Dots_1.jpg,Red_Plus_Stripes_2.jpg,Purple_Star_Dots_4.jpg,right,634.5250000013039,false,low,false
dy1bfc4T,33ixyhizc8v0km0rv7j1cbq82t9e2g,3vw6495tlndqew8jfv7sh2flbacyyi,dy1bfc4T,2020-0188,2020-11-15,00:14:55,00:31:24,NA,incomplete,108,shape,1,left,Green_Triangle_Dots_1.jpg,Red_Triangle_Stripes_4.jpg,Blue_Star_Dots_3.jpg,left,751.2599999899976,true,low,false
dy1bfc4T,33ixyhizc8v0km0rv7j1cbq82t9e2g,3vw6495tlndqew8jfv7sh2flbacyyi,dy1bfc4T,2020-0188,2020-11-15,00:14:55,00:31:24,NA,incomplete,109,shape,0,right,Purple_Circle_Stripes_1.jpg,Green_Star_Stripes_4.jpg,Red_Circle_Dots_2.jpg,right,880.6900000199676,true,low,false
dy1bfc4T,33ixyhizc8v0km0rv7j1cbq82t9e2g,3vw6495tlndqew8jfv7sh2flbacyyi,dy1bfc4T,2020-0188,2020-11-15,00:14:55,00:31:24,NA,incomplete,110,shape,1,left,Red_Triangle_Stripes_2.jpg,Green_Triangle_Grid_3.jpg,Purple_Star_Stripes_1.jpg,left,646.5399999869987,true,low,false
dy1bfc4T,33ixyhizc8v0km0rv7j1cbq82t9e2g,3vw6495tlndqew8jfv7sh2flbacyyi,dy1bfc4T,2020-0188,2020-11-15,00:14:55,00:31:24,NA,incomplete,111,shape,0,right,Red_Circle_Chess_2.jpg,Blue_Star_Chess_1.jpg,Green_Circle_Dots_4.jpg,right,599.2299999925308,true,low,false
dy1bfc4T,33ixyhizc8v0km0rv7j1cbq82t9e2g,3vw6495tlndqew8jfv7sh2flbacyyi,dy1bfc4T,2020-0188,2020-11-15,00:14:55,00:31:24,NA,incomplete,112,shape,1,right,Blue_Circle_Grid_2.jpg,Red_Plus_Grid_1.jpg,Purple_Circle_Dots_4.jpg,right,672.4599999724887,true,low,false
dy1bfc4T,33ixyhizc8v0km0rv7j1cbq82t9e2g,3vw6495tlndqew8jfv7sh2flbacyyi,dy1bfc4T,2020-0188,2020-11-15,00:14:55,00:31:24,NA,incomplete,113,shape,1,right,Red_Star_Chess_3.jpg,Green_Plus_Chess_2.jpg,Purple_Star_Stripes_4.jpg,right,713.8749999576248,true,low,false
dy1bfc4T,33ixyhizc8v0km0rv7j1cbq82t9e2g,3vw6495tlndqew8jfv7sh2flbacyyi,dy1bfc4T,2020-0188,2020-11-15,00:14:55,00:31:24,NA,incomplete,114,shape,1,right,Red_Circle_Chess_2.jpg,Green_Plus_Chess_3.jpg,Blue_Circle_Stripes_1.jpg,right,634.9300000001676,true,low,false
dy1bfc4T,33ixyhizc8v0km0rv7j1cbq82t9e2g,3vw6495tlndqew8jfv7sh2flbacyyi,dy1bfc4T,2020-0188,2020-11-15,00:14:55,00:31:24,NA,incomplete,115,shape,1,left,Blue_Triangle_Grid_4.jpg,Purple_Triangle_Dots_3.jpg,Red_Plus_Grid_2.jpg,left,669.6050000027753,true,low,false
dy1bfc4T,33ixyhizc8v0km0rv7j1cbq82t9e2g,3vw6495tlndqew8jfv7sh2flbacyyi,dy1bfc4T,2020-0188,2020-11-15,00:14:55,00:31:24,NA,incomplete,116,shape,1,left,Purple_Star_Chess_4.jpg,Blue_Star_Stripes_2.jpg,Green_Circle_Chess_3.jpg,left,654.3950000195764,true,low,false
dy1bfc4T,33ixyhizc8v0km0rv7j1cbq82t9e2g,3vw6495tlndqew8jfv7sh2flbacyyi,dy1bfc4T,2020-0188,2020-11-15,00:14:55,00:31:24,NA,incomplete,117,shape,1,right,Green_Circle_Dots_4.jpg,Red_Plus_Dots_3.jpg,Purple_Circle_Grid_1.jpg,right,575.4050000105053,true,low,false
dy1bfc4T,33ixyhizc8v0km0rv7j1cbq82t9e2g,3vw6495tlndqew8jfv7sh2flbacyyi,dy1bfc4T,2020-0188,2020-11-15,00:14:55,00:31:24,NA,incomplete,118,shape,1,right,Purple_Plus_Chess_2.jpg,Red_Triangle_Chess_1.jpg,Green_Plus_Dots_3.jpg,right,704.3950000079349,true,low,false
dy1bfc4T,33ixyhizc8v0km0rv7j1cbq82t9e2g,3vw6495tlndqew8jfv7sh2flbacyyi,dy1bfc4T,2020-0188,2020-11-15,00:14:55,00:31:24,NA,incomplete,119,shape,1,left,Red_Triangle_Grid_2.jpg,Purple_Triangle_Dots_1.jpg,Green_Plus_Grid_3.jpg,left,600.1349999569356,true,low,false
dy1bfc4T,33ixyhizc8v0km0rv7j1cbq82t9e2g,3vw6495tlndqew8jfv7sh2flbacyyi,dy1bfc4T,2020-0188,2020-11-15,00:14:55,00:31:24,NA,incomplete,120,filling,1,right,Blue_Triangle_Stripes_1.jpg,Green_Triangle_Grid_2.jpg,Red_Circle_Stripes_3.jpg,left,714.3250000081025,false,low,false
dy1bfc4T,33ixyhizc8v0km0rv7j1cbq82t9e2g,3vw6495tlndqew8jfv7sh2flbacyyi,dy1bfc4T,2020-0188,2020-11-15,00:14:55,00:31:24,NA,incomplete,121,filling,1,left,Red_Plus_Grid_2.jpg,Purple_Circle_Grid_1.jpg,Green_Plus_Dots_4.jpg,right,591.8800000217743,false,low,false
dy1bfc4T,33ixyhizc8v0km0rv7j1cbq82t9e2g,3vw6495tlndqew8jfv7sh2flbacyyi,dy1bfc4T,2020-0188,2020-11-15,00:14:55,00:31:24,NA,incomplete,122,filling,1,right,Blue_Star_Grid_3.jpg,Purple_Star_Dots_1.jpg,Red_Plus_Grid_2.jpg,left,697.005000023637,false,low,false
dy1bfc4T,33ixyhizc8v0km0rv7j1cbq82t9e2g,3vw6495tlndqew8jfv7sh2flbacyyi,dy1bfc4T,2020-0188,2020-11-15,00:14:55,00:31:24,NA,incomplete,123,filling,1,right,Green_Circle_Chess_3.jpg,Blue_Circle_Dots_4.jpg,Purple_Star_Chess_2.jpg,right,905.0150000257418,true,low,false
dy1bfc4T,33ixyhizc8v0km0rv7j1cbq82t9e2g,3vw6495tlndqew8jfv7sh2flbacyyi,dy1bfc4T,2020-0188,2020-11-15,00:14:55,00:31:24,NA,incomplete,124,filling,1,right,Blue_Plus_Chess_4.jpg,Red_Plus_Stripes_2.jpg,Purple_Circle_Chess_1.jpg,right,787.0800000382587,true,low,false
dy1bfc4T,33ixyhizc8v0km0rv7j1cbq82t9e2g,3vw6495tlndqew8jfv7sh2flbacyyi,dy1bfc4T,2020-0188,2020-11-15,00:14:55,00:31:24,NA,incomplete,125,filling,1,left,Green_Circle_Stripes_1.jpg,Red_Triangle_Stripes_4.jpg,Blue_Circle_Grid_2.jpg,left,786.6199999698438,true,low,false
dy1bfc4T,33ixyhizc8v0km0rv7j1cbq82t9e2g,3vw6495tlndqew8jfv7sh2flbacyyi,dy1bfc4T,2020-0188,2020-11-15,00:14:55,00:31:24,NA,incomplete,126,filling,1,right,Blue_Triangle_Grid_1.jpg,Green_Triangle_Chess_3.jpg,Purple_Plus_Grid_4.jpg,right,896.0849999566562,true,low,false
dy1bfc4T,33ixyhizc8v0km0rv7j1cbq82t9e2g,3vw6495tlndqew8jfv7sh2flbacyyi,dy1bfc4T,2020-0188,2020-11-15,00:14:55,00:31:24,NA,incomplete,127,filling,0,right,Purple_Circle_Chess_4.jpg,Blue_Circle_Grid_1.jpg,Red_Plus_Chess_2.jpg,right,910.6900000479072,true,low,false
dy1bfc4T,33ixyhizc8v0km0rv7j1cbq82t9e2g,3vw6495tlndqew8jfv7sh2flbacyyi,dy1bfc4T,2020-0188,2020-11-15,00:14:55,00:31:24,NA,incomplete,128,filling,1,right,Green_Plus_Grid_3.jpg,Purple_Plus_Dots_2.jpg,Blue_Triangle_Grid_4.jpg,right,992.919999989681,true,low,false
dy1bfc4T,33ixyhizc8v0km0rv7j1cbq82t9e2g,3vw6495tlndqew8jfv7sh2flbacyyi,dy1bfc4T,2020-0188,2020-11-15,00:14:55,00:31:24,NA,incomplete,129,filling,1,left,Green_Star_Dots_3.jpg,Purple_Plus_Dots_4.jpg,Red_Star_Grid_2.jpg,left,1199.0700000314973,true,low,false
dy1bfc4T,33ixyhizc8v0km0rv7j1cbq82t9e2g,3vw6495tlndqew8jfv7sh2flbacyyi,dy1bfc4T,2020-0188,2020-11-15,00:14:55,00:31:24,NA,incomplete,130,filling,1,left,Blue_Triangle_Dots_2.jpg,Green_Star_Dots_1.jpg,Purple_Triangle_Stripes_3.jpg,right,681.284999998752,false,low,false
dy1bfc4T,33ixyhizc8v0km0rv7j1cbq82t9e2g,3vw6495tlndqew8jfv7sh2flbacyyi,dy1bfc4T,2020-0188,2020-11-15,00:14:55,00:31:24,NA,incomplete,131,filling,1,right,Purple_Triangle_Chess_1.jpg,Green_Triangle_Stripes_4.jpg,Blue_Plus_Chess_3.jpg,right,912.6199999591336,true,low,false
dy1bfc4T,33ixyhizc8v0km0rv7j1cbq82t9e2g,3vw6495tlndqew8jfv7sh2flbacyyi,dy1bfc4T,2020-0188,2020-11-15,00:14:55,00:31:24,NA,incomplete,132,filling,0,left,Purple_Plus_Chess_4.jpg,Blue_Triangle_Chess_2.jpg,Green_Plus_Stripes_3.jpg,left,875.5699999746867,true,low,false
dy1bfc4T,33ixyhizc8v0km0rv7j1cbq82t9e2g,3vw6495tlndqew8jfv7sh2flbacyyi,dy1bfc4T,2020-0188,2020-11-15,00:14:55,00:31:24,NA,incomplete,133,filling,1,right,Purple_Star_Grid_3.jpg,Red_Star_Stripes_2.jpg,Blue_Triangle_Grid_1.jpg,right,1051.1500000138767,true,low,false
dy1bfc4T,33ixyhizc8v0km0rv7j1cbq82t9e2g,3vw6495tlndqew8jfv7sh2flbacyyi,dy1bfc4T,2020-0188,2020-11-15,00:14:55,00:31:24,NA,incomplete,134,filling,1,right,Red_Star_Dots_1.jpg,Purple_Star_Grid_3.jpg,Green_Circle_Dots_4.jpg,right,794.9549999902956,true,low,false
dy1bfc4T,33ixyhizc8v0km0rv7j1cbq82t9e2g,3vw6495tlndqew8jfv7sh2flbacyyi,dy1bfc4T,2020-0188,2020-11-15,00:14:55,00:31:24,NA,incomplete,135,filling,1,right,Blue_Circle_Grid_3.jpg,Purple_Circle_Stripes_4.jpg,Red_Triangle_Grid_1.jpg,right,992.740000016056,true,low,false
dy1bfc4T,33ixyhizc8v0km0rv7j1cbq82t9e2g,3vw6495tlndqew8jfv7sh2flbacyyi,dy1bfc4T,2020-0188,2020-11-15,00:14:55,00:31:24,NA,incomplete,136,filling,1,right,Purple_Star_Grid_3.jpg,Blue_Star_Dots_1.jpg,Green_Plus_Grid_4.jpg,right,853.6600000225008,true,low,false
dy1bfc4T,33ixyhizc8v0km0rv7j1cbq82t9e2g,3vw6495tlndqew8jfv7sh2flbacyyi,dy1bfc4T,2020-0188,2020-11-15,00:14:55,00:31:24,NA,incomplete,137,filling,1,right,Purple_Plus_Grid_4.jpg,Red_Plus_Stripes_2.jpg,Blue_Circle_Grid_3.jpg,right,851.7049999791197,true,low,false
dy1bfc4T,33ixyhizc8v0km0rv7j1cbq82t9e2g,3vw6495tlndqew8jfv7sh2flbacyyi,dy1bfc4T,2020-0188,2020-11-15,00:14:55,00:31:24,NA,incomplete,138,filling,1,right,Red_Circle_Dots_1.jpg,Blue_Circle_Chess_2.jpg,Purple_Star_Dots_3.jpg,right,869.9099999503233,true,low,false
dy1bfc4T,33ixyhizc8v0km0rv7j1cbq82t9e2g,3vw6495tlndqew8jfv7sh2flbacyyi,dy1bfc4T,2020-0188,2020-11-15,00:14:55,00:31:24,NA,incomplete,139,filling,0,left,Purple_Plus_Stripes_2.jpg,Red_Star_Stripes_4.jpg,Blue_Plus_Grid_3.jpg,left,980.9799999929965,true,low,false
dy1bfc4T,33ixyhizc8v0km0rv7j1cbq82t9e2g,3vw6495tlndqew8jfv7sh2flbacyyi,dy1bfc4T,2020-0188,2020-11-15,00:14:55,00:31:24,NA,incomplete,140,shape,1,left,Green_Circle_Grid_4.jpg,Red_Circle_Chess_2.jpg,Purple_Plus_Grid_3.jpg,right,941.9699999853037,false,low,false
dy1bfc4T,33ixyhizc8v0km0rv7j1cbq82t9e2g,3vw6495tlndqew8jfv7sh2flbacyyi,dy1bfc4T,2020-0188,2020-11-15,00:14:55,00:31:24,NA,incomplete,141,shape,1,right,Green_Triangle_Grid_3.jpg,Red_Circle_Grid_4.jpg,Blue_Triangle_Dots_2.jpg,right,718.75,true,low,false
dy1bfc4T,33ixyhizc8v0km0rv7j1cbq82t9e2g,3vw6495tlndqew8jfv7sh2flbacyyi,dy1bfc4T,2020-0188,2020-11-15,00:14:55,00:31:24,NA,incomplete,142,shape,1,right,Blue_Plus_Stripes_1.jpg,Red_Triangle_Stripes_3.jpg,Purple_Plus_Chess_2.jpg,right,746.5199999860488,true,low,false
dy1bfc4T,33ixyhizc8v0km0rv7j1cbq82t9e2g,3vw6495tlndqew8jfv7sh2flbacyyi,dy1bfc4T,2020-0188,2020-11-15,00:14:55,00:31:24,NA,incomplete,143,shape,1,left,Purple_Star_Grid_2.jpg,Red_Star_Dots_1.jpg,Blue_Triangle_Grid_3.jpg,right,943.6100000166334,false,low,false
dy1bfc4T,33ixyhizc8v0km0rv7j1cbq82t9e2g,3vw6495tlndqew8jfv7sh2flbacyyi,dy1bfc4T,2020-0188,2020-11-15,00:14:55,00:31:24,NA,incomplete,144,shape,0,left,Green_Star_Grid_4.jpg,Red_Star_Stripes_3.jpg,Blue_Plus_Grid_1.jpg,left,662.9250000114553,true,low,false
dy1bfc4T,33ixyhizc8v0km0rv7j1cbq82t9e2g,3vw6495tlndqew8jfv7sh2flbacyyi,dy1bfc4T,2020-0188,2020-11-15,00:14:55,00:31:24,NA,incomplete,145,shape,1,left,Green_Triangle_Dots_1.jpg,Blue_Triangle_Grid_2.jpg,Red_Plus_Dots_3.jpg,left,738.3499999996275,true,low,false
dy1bfc4T,33ixyhizc8v0km0rv7j1cbq82t9e2g,3vw6495tlndqew8jfv7sh2flbacyyi,dy1bfc4T,2020-0188,2020-11-15,00:14:55,00:31:24,NA,incomplete,146,shape,1,right,Red_Plus_Chess_3.jpg,Purple_Triangle_Chess_4.jpg,Blue_Plus_Grid_2.jpg,right,636.5799999912269,true,low,false
dy1bfc4T,33ixyhizc8v0km0rv7j1cbq82t9e2g,3vw6495tlndqew8jfv7sh2flbacyyi,dy1bfc4T,2020-0188,2020-11-15,00:14:55,00:31:24,NA,incomplete,147,shape,1,right,Blue_Plus_Dots_4.jpg,Green_Triangle_Dots_3.jpg,Red_Plus_Stripes_2.jpg,right,689.9650000268593,true,low,false
dy1bfc4T,33ixyhizc8v0km0rv7j1cbq82t9e2g,3vw6495tlndqew8jfv7sh2flbacyyi,dy1bfc4T,2020-0188,2020-11-15,00:14:55,00:31:24,NA,incomplete,148,shape,1,left,Purple_Circle_Dots_3.jpg,Blue_Circle_Chess_1.jpg,Red_Star_Dots_4.jpg,left,586.745000036899,true,low,false
dy1bfc4T,33ixyhizc8v0km0rv7j1cbq82t9e2g,3vw6495tlndqew8jfv7sh2flbacyyi,dy1bfc4T,2020-0188,2020-11-15,00:14:55,00:31:24,NA,incomplete,149,shape,1,left,Red_Plus_Stripes_2.jpg,Blue_Plus_Dots_3.jpg,Purple_Star_Stripes_1.jpg,left,640.0600000051782,true,low,false
dy1bfc4T,33ixyhizc8v0km0rv7j1cbq82t9e2g,3vw6495tlndqew8jfv7sh2flbacyyi,dy1bfc4T,2020-0188,2020-11-15,00:14:55,00:31:24,NA,incomplete,150,shape,1,right,Purple_Star_Chess_1.jpg,Red_Plus_Chess_4.jpg,Blue_Star_Stripes_3.jpg,right,670.1950000133365,true,low,false
dy1bfc4T,33ixyhizc8v0km0rv7j1cbq82t9e2g,3vw6495tlndqew8jfv7sh2flbacyyi,dy1bfc4T,2020-0188,2020-11-15,00:14:55,00:31:24,NA,incomplete,151,shape,1,left,Green_Plus_Chess_2.jpg,Red_Plus_Stripes_1.jpg,Purple_Triangle_Chess_4.jpg,left,753.824999963399,true,low,false
dy1bfc4T,33ixyhizc8v0km0rv7j1cbq82t9e2g,3vw6495tlndqew8jfv7sh2flbacyyi,dy1bfc4T,2020-0188,2020-11-15,00:14:55,00:31:24,NA,incomplete,152,shape,1,left,Green_Star_Grid_3.jpg,Red_Star_Stripes_1.jpg,Purple_Circle_Grid_2.jpg,left,711.1600000062026,true,low,false
dy1bfc4T,33ixyhizc8v0km0rv7j1cbq82t9e2g,3vw6495tlndqew8jfv7sh2flbacyyi,dy1bfc4T,2020-0188,2020-11-15,00:14:55,00:31:24,NA,incomplete,153,shape,1,left,Green_Plus_Grid_2.jpg,Red_Plus_Chess_3.jpg,Purple_Circle_Grid_1.jpg,left,690.6050000106916,true,low,false
dy1bfc4T,33ixyhizc8v0km0rv7j1cbq82t9e2g,3vw6495tlndqew8jfv7sh2flbacyyi,dy1bfc4T,2020-0188,2020-11-15,00:14:55,00:31:24,NA,incomplete,154,shape,1,right,Blue_Triangle_Stripes_1.jpg,Green_Star_Stripes_2.jpg,Red_Triangle_Chess_3.jpg,right,711.7100000032224,true,low,false
dy1bfc4T,33ixyhizc8v0km0rv7j1cbq82t9e2g,3vw6495tlndqew8jfv7sh2flbacyyi,dy1bfc4T,2020-0188,2020-11-15,00:14:55,00:31:24,NA,incomplete,155,shape,1,left,Green_Triangle_Grid_4.jpg,Blue_Triangle_Chess_1.jpg,Purple_Plus_Grid_2.jpg,left,789.359999995213,true,low,false
dy1bfc4T,33ixyhizc8v0km0rv7j1cbq82t9e2g,3vw6495tlndqew8jfv7sh2flbacyyi,dy1bfc4T,2020-0188,2020-11-15,00:14:55,00:31:24,NA,incomplete,156,shape,0,right,Red_Plus_Stripes_4.jpg,Purple_Triangle_Stripes_2.jpg,Green_Plus_Grid_3.jpg,right,868.2600000174716,true,low,false
dy1bfc4T,33ixyhizc8v0km0rv7j1cbq82t9e2g,3vw6495tlndqew8jfv7sh2flbacyyi,dy1bfc4T,2020-0188,2020-11-15,00:14:55,00:31:24,NA,incomplete,157,shape,1,right,Purple_Circle_Stripes_2.jpg,Blue_Star_Stripes_1.jpg,Green_Circle_Dots_4.jpg,right,686.3149999990128,true,low,false
dy1bfc4T,33ixyhizc8v0km0rv7j1cbq82t9e2g,3vw6495tlndqew8jfv7sh2flbacyyi,dy1bfc4T,2020-0188,2020-11-15,00:14:55,00:31:24,NA,incomplete,158,shape,1,right,Blue_Circle_Chess_4.jpg,Green_Plus_Chess_1.jpg,Red_Circle_Dots_2.jpg,right,680.2199999801815,true,low,false
dy1bfc4T,33ixyhizc8v0km0rv7j1cbq82t9e2g,3vw6495tlndqew8jfv7sh2flbacyyi,dy1bfc4T,2020-0188,2020-11-15,00:14:55,00:31:24,NA,incomplete,159,shape,1,right,Blue_Plus_Dots_4.jpg,Red_Circle_Dots_1.jpg,Green_Plus_Stripes_3.jpg,right,738.039999967441,true,low,false
dy1bfc4T,33ixyhizc8v0km0rv7j1cbq82t9e2g,3vw6495tlndqew8jfv7sh2flbacyyi,dy1bfc4T,2020-0188,2020-11-15,00:14:55,00:31:24,NA,incomplete,160,filling,1,right,Purple_Circle_Chess_1.jpg,Blue_Circle_Stripes_2.jpg,Red_Star_Chess_4.jpg,left,781.5799999516457,false,low,false
dy1bfc4T,33ixyhizc8v0km0rv7j1cbq82t9e2g,3vw6495tlndqew8jfv7sh2flbacyyi,dy1bfc4T,2020-0188,2020-11-15,00:14:55,00:31:24,NA,incomplete,161,filling,1,left,Purple_Circle_Chess_3.jpg,Red_Plus_Chess_4.jpg,Green_Circle_Stripes_2.jpg,left,1017.3550000181422,true,low,false
dy1bfc4T,33ixyhizc8v0km0rv7j1cbq82t9e2g,3vw6495tlndqew8jfv7sh2flbacyyi,dy1bfc4T,2020-0188,2020-11-15,00:14:55,00:31:24,NA,incomplete,162,filling,1,left,Green_Plus_Stripes_1.jpg,Blue_Triangle_Stripes_3.jpg,Purple_Plus_Dots_2.jpg,right,1219.8399999761023,false,low,false
dy1bfc4T,33ixyhizc8v0km0rv7j1cbq82t9e2g,3vw6495tlndqew8jfv7sh2flbacyyi,dy1bfc4T,2020-0188,2020-11-15,00:14:55,00:31:24,NA,incomplete,163,filling,1,right,Blue_Circle_Chess_4.jpg,Red_Circle_Stripes_3.jpg,Green_Triangle_Chess_2.jpg,left,1579.7099999617785,false,low,false
dy1bfc4T,33ixyhizc8v0km0rv7j1cbq82t9e2g,3vw6495tlndqew8jfv7sh2flbacyyi,dy1bfc4T,2020-0188,2020-11-15,00:14:55,00:31:24,NA,incomplete,164,filling,1,right,Green_Triangle_Grid_3.jpg,Red_Triangle_Stripes_4.jpg,Blue_Circle_Grid_2.jpg,right,1785.7000000076368,true,low,false
dy1bfc4T,33ixyhizc8v0km0rv7j1cbq82t9e2g,3vw6495tlndqew8jfv7sh2flbacyyi,dy1bfc4T,2020-0188,2020-11-15,00:14:55,00:31:24,NA,incomplete,165,filling,1,left,Purple_Circle_Grid_2.jpg,Red_Triangle_Grid_3.jpg,Blue_Circle_Dots_1.jpg,left,893.0350000155158,true,low,false
dy1bfc4T,33ixyhizc8v0km0rv7j1cbq82t9e2g,3vw6495tlndqew8jfv7sh2flbacyyi,dy1bfc4T,2020-0188,2020-11-15,00:14:55,00:31:24,NA,incomplete,166,filling,0,left,Green_Circle_Dots_4.jpg,Blue_Star_Dots_2.jpg,Red_Circle_Stripes_3.jpg,left,871.6850000200793,true,low,false
dy1bfc4T,33ixyhizc8v0km0rv7j1cbq82t9e2g,3vw6495tlndqew8jfv7sh2flbacyyi,dy1bfc4T,2020-0188,2020-11-15,00:14:55,00:31:24,NA,incomplete,167,filling,1,left,Purple_Plus_Grid_4.jpg,Red_Circle_Grid_1.jpg,Green_Plus_Stripes_2.jpg,left,1057.7249999623746,true,low,false
dy1bfc4T,33ixyhizc8v0km0rv7j1cbq82t9e2g,3vw6495tlndqew8jfv7sh2flbacyyi,dy1bfc4T,2020-0188,2020-11-15,00:14:55,00:31:24,NA,incomplete,168,filling,0,left,Blue_Circle_Stripes_1.jpg,Green_Star_Stripes_2.jpg,Purple_Circle_Chess_4.jpg,left,1232.140000036452,true,low,false
dy1bfc4T,33ixyhizc8v0km0rv7j1cbq82t9e2g,3vw6495tlndqew8jfv7sh2flbacyyi,dy1bfc4T,2020-0188,2020-11-15,00:14:55,00:31:24,NA,incomplete,169,filling,1,left,Purple_Circle_Dots_4.jpg,Red_Plus_Dots_3.jpg,Green_Circle_Stripes_2.jpg,left,999.8999999952503,true,low,false
dy1bfc4T,33ixyhizc8v0km0rv7j1cbq82t9e2g,3vw6495tlndqew8jfv7sh2flbacyyi,dy1bfc4T,2020-0188,2020-11-15,00:14:55,00:31:24,NA,incomplete,170,filling,0,left,Blue_Triangle_Dots_3.jpg,Purple_Circle_Dots_2.jpg,Green_Triangle_Chess_4.jpg,left,1005.875000031665,true,low,false
dy1bfc4T,33ixyhizc8v0km0rv7j1cbq82t9e2g,3vw6495tlndqew8jfv7sh2flbacyyi,dy1bfc4T,2020-0188,2020-11-15,00:14:55,00:31:24,NA,incomplete,171,filling,1,right,Red_Triangle_Dots_4.jpg,Blue_Triangle_Stripes_3.jpg,Purple_Circle_Dots_1.jpg,right,770.3299999702722,true,low,false
dy1bfc4T,33ixyhizc8v0km0rv7j1cbq82t9e2g,3vw6495tlndqew8jfv7sh2flbacyyi,dy1bfc4T,2020-0188,2020-11-15,00:14:55,00:31:24,NA,incomplete,172,filling,1,right,Red_Circle_Stripes_2.jpg,Green_Circle_Grid_3.jpg,Purple_Star_Stripes_4.jpg,right,894.2900000256486,true,low,false
dy1bfc4T,33ixyhizc8v0km0rv7j1cbq82t9e2g,3vw6495tlndqew8jfv7sh2flbacyyi,dy1bfc4T,2020-0188,2020-11-15,00:14:55,00:31:24,NA,incomplete,173,filling,1,right,Green_Triangle_Grid_2.jpg,Purple_Triangle_Dots_1.jpg,Blue_Plus_Grid_4.jpg,right,943.3849999913946,true,low,false
dy1bfc4T,33ixyhizc8v0km0rv7j1cbq82t9e2g,3vw6495tlndqew8jfv7sh2flbacyyi,dy1bfc4T,2020-0188,2020-11-15,00:14:55,00:31:24,NA,incomplete,174,filling,1,left,Purple_Star_Stripes_1.jpg,Green_Circle_Stripes_3.jpg,Blue_Star_Grid_2.jpg,right,797.2650000010617,false,low,false
dy1bfc4T,33ixyhizc8v0km0rv7j1cbq82t9e2g,3vw6495tlndqew8jfv7sh2flbacyyi,dy1bfc4T,2020-0188,2020-11-15,00:14:55,00:31:24,NA,incomplete,175,filling,0,left,Purple_Circle_Grid_4.jpg,Red_Triangle_Grid_1.jpg,Blue_Circle_Chess_3.jpg,left,928.3249999862164,true,low,false
dy1bfc4T,33ixyhizc8v0km0rv7j1cbq82t9e2g,3vw6495tlndqew8jfv7sh2flbacyyi,dy1bfc4T,2020-0188,2020-11-15,00:14:55,00:31:24,NA,incomplete,176,filling,1,left,Green_Circle_Grid_3.jpg,Purple_Star_Grid_4.jpg,Blue_Circle_Dots_2.jpg,left,941.5349999908358,true,low,false
dy1bfc4T,33ixyhizc8v0km0rv7j1cbq82t9e2g,3vw6495tlndqew8jfv7sh2flbacyyi,dy1bfc4T,2020-0188,2020-11-15,00:14:55,00:31:24,NA,incomplete,177,filling,1,left,Green_Plus_Chess_1.jpg,Red_Star_Chess_4.jpg,Blue_Plus_Stripes_3.jpg,left,850.0650000059977,true,low,false
dy1bfc4T,33ixyhizc8v0km0rv7j1cbq82t9e2g,3vw6495tlndqew8jfv7sh2flbacyyi,dy1bfc4T,2020-0188,2020-11-15,00:14:55,00:31:24,NA,incomplete,178,filling,1,left,Green_Plus_Chess_2.jpg,Red_Circle_Chess_1.jpg,Purple_Plus_Stripes_3.jpg,left,716.489999962505,true,low,false
dy1bfc4T,33ixyhizc8v0km0rv7j1cbq82t9e2g,3vw6495tlndqew8jfv7sh2flbacyyi,dy1bfc4T,2020-0188,2020-11-15,00:14:55,00:31:24,NA,incomplete,179,filling,1,left,Blue_Circle_Chess_1.jpg,Green_Star_Chess_3.jpg,Purple_Circle_Stripes_4.jpg,left,847.0800000359304,true,low,false
dy1bfc4T,33ixyhizc8v0km0rv7j1cbq82t9e2g,3vw6495tlndqew8jfv7sh2flbacyyi,dy1bfc4T,2020-0188,2020-11-15,00:14:55,00:31:24,NA,incomplete,180,shape,0,left,Red_Plus_Grid_1.jpg,Green_Plus_Dots_2.jpg,Purple_Triangle_Grid_3.jpg,left,776.6849999898113,true,low,false
dy1bfc4T,33ixyhizc8v0km0rv7j1cbq82t9e2g,3vw6495tlndqew8jfv7sh2flbacyyi,dy1bfc4T,2020-0188,2020-11-15,00:14:55,00:31:24,NA,incomplete,181,shape,1,right,Green_Triangle_Chess_2.jpg,Purple_Plus_Chess_4.jpg,Blue_Triangle_Grid_1.jpg,left,770.250000001397,false,low,false
dy1bfc4T,33ixyhizc8v0km0rv7j1cbq82t9e2g,3vw6495tlndqew8jfv7sh2flbacyyi,dy1bfc4T,2020-0188,2020-11-15,00:14:55,00:31:24,NA,incomplete,182,shape,1,left,Green_Plus_Chess_1.jpg,Red_Plus_Grid_4.jpg,Blue_Star_Chess_2.jpg,right,869.4449999602512,false,low,false
dy1bfc4T,33ixyhizc8v0km0rv7j1cbq82t9e2g,3vw6495tlndqew8jfv7sh2flbacyyi,dy1bfc4T,2020-0188,2020-11-15,00:14:55,00:31:24,NA,incomplete,183,shape,0,right,Purple_Circle_Grid_4.jpg,Red_Star_Grid_3.jpg,Green_Circle_Stripes_2.jpg,right,658.9350000140257,true,low,false
dy1bfc4T,33ixyhizc8v0km0rv7j1cbq82t9e2g,3vw6495tlndqew8jfv7sh2flbacyyi,dy1bfc4T,2020-0188,2020-11-15,00:14:55,00:31:24,NA,incomplete,184,shape,1,right,Purple_Circle_Dots_2.jpg,Red_Plus_Dots_1.jpg,Green_Circle_Chess_4.jpg,right,687.389999977313,true,low,false
dy1bfc4T,33ixyhizc8v0km0rv7j1cbq82t9e2g,3vw6495tlndqew8jfv7sh2flbacyyi,dy1bfc4T,2020-0188,2020-11-15,00:14:55,00:31:24,NA,incomplete,185,shape,0,left,Red_Plus_Chess_1.jpg,Blue_Plus_Dots_4.jpg,Green_Circle_Chess_2.jpg,left,714.5400000154041,true,low,false
dy1bfc4T,33ixyhizc8v0km0rv7j1cbq82t9e2g,3vw6495tlndqew8jfv7sh2flbacyyi,dy1bfc4T,2020-0188,2020-11-15,00:14:55,00:31:24,NA,incomplete,186,shape,1,left,Purple_Circle_Grid_1.jpg,Green_Circle_Stripes_4.jpg,Red_Star_Grid_3.jpg,left,1071.4349999907427,true,low,false
dy1bfc4T,33ixyhizc8v0km0rv7j1cbq82t9e2g,3vw6495tlndqew8jfv7sh2flbacyyi,dy1bfc4T,2020-0188,2020-11-15,00:14:55,00:31:24,NA,incomplete,187,shape,0,right,Purple_Plus_Dots_1.jpg,Red_Triangle_Dots_4.jpg,Blue_Plus_Grid_3.jpg,right,693.7149999430403,true,low,false
dy1bfc4T,33ixyhizc8v0km0rv7j1cbq82t9e2g,3vw6495tlndqew8jfv7sh2flbacyyi,dy1bfc4T,2020-0188,2020-11-15,00:14:55,00:31:24,NA,incomplete,188,shape,1,right,Purple_Circle_Stripes_1.jpg,Green_Star_Stripes_3.jpg,Blue_Circle_Grid_4.jpg,right,804.5250000432134,true,low,false
dy1bfc4T,33ixyhizc8v0km0rv7j1cbq82t9e2g,3vw6495tlndqew8jfv7sh2flbacyyi,dy1bfc4T,2020-0188,2020-11-15,00:14:55,00:31:24,NA,incomplete,189,shape,0,right,Purple_Plus_Dots_2.jpg,Green_Star_Dots_4.jpg,Blue_Plus_Chess_1.jpg,right,1260.3399999788962,true,low,false
dy1bfc4T,33ixyhizc8v0km0rv7j1cbq82t9e2g,3vw6495tlndqew8jfv7sh2flbacyyi,dy1bfc4T,2020-0188,2020-11-15,00:14:55,00:31:24,NA,incomplete,190,shape,1,left,Blue_Circle_Dots_1.jpg,Red_Circle_Stripes_4.jpg,Purple_Triangle_Dots_2.jpg,left,672.5900000310503,true,low,false
dy1bfc4T,33ixyhizc8v0km0rv7j1cbq82t9e2g,3vw6495tlndqew8jfv7sh2flbacyyi,dy1bfc4T,2020-0188,2020-11-15,00:14:55,00:31:24,NA,incomplete,191,shape,0,right,Green_Star_Dots_1.jpg,Blue_Circle_Dots_4.jpg,Red_Star_Grid_2.jpg,right,656.6100000054576,true,low,false
dy1bfc4T,33ixyhizc8v0km0rv7j1cbq82t9e2g,3vw6495tlndqew8jfv7sh2flbacyyi,dy1bfc4T,2020-0188,2020-11-15,00:14:55,00:31:24,NA,incomplete,192,shape,1,right,Purple_Circle_Stripes_4.jpg,Red_Plus_Stripes_2.jpg,Blue_Circle_Grid_1.jpg,left,867.2099999967031,false,low,false
dy1bfc4T,33ixyhizc8v0km0rv7j1cbq82t9e2g,3vw6495tlndqew8jfv7sh2flbacyyi,dy1bfc4T,2020-0188,2020-11-15,00:14:55,00:31:24,NA,incomplete,193,shape,1,right,Blue_Triangle_Dots_2.jpg,Green_Plus_Dots_1.jpg,Red_Triangle_Stripes_3.jpg,left,864.6099999896251,false,low,false
dy1bfc4T,33ixyhizc8v0km0rv7j1cbq82t9e2g,3vw6495tlndqew8jfv7sh2flbacyyi,dy1bfc4T,2020-0188,2020-11-15,00:14:55,00:31:24,NA,incomplete,194,shape,1,left,Green_Circle_Dots_3.jpg,Purple_Circle_Chess_4.jpg,Red_Triangle_Dots_1.jpg,left,720.6700000097044,true,low,false
dy1bfc4T,33ixyhizc8v0km0rv7j1cbq82t9e2g,3vw6495tlndqew8jfv7sh2flbacyyi,dy1bfc4T,2020-0188,2020-11-15,00:14:55,00:31:24,NA,incomplete,195,shape,1,left,Blue_Plus_Chess_4.jpg,Purple_Plus_Stripes_1.jpg,Red_Star_Chess_3.jpg,right,606.3450000365265,false,low,false
dy1bfc4T,33ixyhizc8v0km0rv7j1cbq82t9e2g,3vw6495tlndqew8jfv7sh2flbacyyi,dy1bfc4T,2020-0188,2020-11-15,00:14:55,00:31:24,NA,incomplete,196,shape,1,right,Purple_Triangle_Grid_1.jpg,Blue_Star_Grid_2.jpg,Red_Triangle_Chess_4.jpg,right,826.0100000188686,true,low,false
dy1bfc4T,33ixyhizc8v0km0rv7j1cbq82t9e2g,3vw6495tlndqew8jfv7sh2flbacyyi,dy1bfc4T,2020-0188,2020-11-15,00:14:55,00:31:24,NA,incomplete,197,shape,0,left,Blue_Circle_Grid_1.jpg,Red_Circle_Chess_3.jpg,Purple_Star_Grid_2.jpg,left,710.5250000022352,true,low,false
dy1bfc4T,33ixyhizc8v0km0rv7j1cbq82t9e2g,3vw6495tlndqew8jfv7sh2flbacyyi,dy1bfc4T,2020-0188,2020-11-15,00:14:55,00:31:24,NA,incomplete,198,shape,1,right,Green_Star_Chess_3.jpg,Blue_Triangle_Chess_4.jpg,Purple_Star_Grid_1.jpg,right,836.3549999776296,true,low,false
dy1bfc4T,33ixyhizc8v0km0rv7j1cbq82t9e2g,3vw6495tlndqew8jfv7sh2flbacyyi,dy1bfc4T,2020-0188,2020-11-15,00:14:55,00:31:24,NA,incomplete,199,shape,1,right,Blue_Star_Grid_1.jpg,Red_Circle_Grid_2.jpg,Green_Star_Dots_4.jpg,right,771.0100000258535,true,low,false
dy1bfc4T,33ixyhizc8v0km0rv7j1cbq82t9e2g,3vw6495tlndqew8jfv7sh2flbacyyi,dy1bfc4T,2020-0188,2020-11-15,00:14:55,00:31:24,NA,incomplete,200,filling,1,right,Blue_Star_Chess_3.jpg,Purple_Star_Dots_2.jpg,Green_Plus_Chess_1.jpg,left,812.1200000168756,false,low,false
dy1bfc4T,33ixyhizc8v0km0rv7j1cbq82t9e2g,3vw6495tlndqew8jfv7sh2flbacyyi,dy1bfc4T,2020-0188,2020-11-15,00:14:55,00:31:24,NA,incomplete,201,filling,1,left,Blue_Triangle_Chess_4.jpg,Purple_Star_Chess_1.jpg,Green_Triangle_Grid_2.jpg,right,612.7099999575876,false,low,false
dy1bfc4T,33ixyhizc8v0km0rv7j1cbq82t9e2g,3vw6495tlndqew8jfv7sh2flbacyyi,dy1bfc4T,2020-0188,2020-11-15,00:14:55,00:31:24,NA,incomplete,202,filling,1,right,Red_Triangle_Stripes_2.jpg,Blue_Triangle_Grid_4.jpg,Purple_Circle_Stripes_3.jpg,left,647.5249999784864,false,low,false
dy1bfc4T,33ixyhizc8v0km0rv7j1cbq82t9e2g,3vw6495tlndqew8jfv7sh2flbacyyi,dy1bfc4T,2020-0188,2020-11-15,00:14:55,00:31:24,NA,incomplete,203,filling,0,right,Purple_Plus_Stripes_4.jpg,Red_Plus_Grid_3.jpg,Green_Circle_Stripes_1.jpg,right,970.0549999834038,true,low,false
dy1bfc4T,33ixyhizc8v0km0rv7j1cbq82t9e2g,3vw6495tlndqew8jfv7sh2flbacyyi,dy1bfc4T,2020-0188,2020-11-15,00:14:55,00:31:24,NA,incomplete,204,filling,1,right,Blue_Plus_Grid_3.jpg,Green_Plus_Dots_1.jpg,Red_Circle_Grid_4.jpg,right,995.9149999776855,true,low,false
dy1bfc4T,33ixyhizc8v0km0rv7j1cbq82t9e2g,3vw6495tlndqew8jfv7sh2flbacyyi,dy1bfc4T,2020-0188,2020-11-15,00:14:55,00:31:24,NA,incomplete,205,filling,1,right,Green_Triangle_Stripes_4.jpg,Blue_Triangle_Dots_2.jpg,Purple_Circle_Stripes_1.jpg,right,1147.9050000198185,true,low,false
dy1bfc4T,33ixyhizc8v0km0rv7j1cbq82t9e2g,3vw6495tlndqew8jfv7sh2flbacyyi,dy1bfc4T,2020-0188,2020-11-15,00:14:55,00:31:24,NA,incomplete,206,filling,1,right,Red_Star_Stripes_4.jpg,Purple_Star_Dots_2.jpg,Blue_Triangle_Stripes_1.jpg,right,1089.174999971874,true,low,false
dy1bfc4T,33ixyhizc8v0km0rv7j1cbq82t9e2g,3vw6495tlndqew8jfv7sh2flbacyyi,dy1bfc4T,2020-0188,2020-11-15,00:14:55,00:31:24,NA,incomplete,207,filling,1,right,Red_Circle_Stripes_1.jpg,Purple_Circle_Grid_4.jpg,Blue_Star_Stripes_2.jpg,right,991.039999993518,true,low,false
dy1bfc4T,33ixyhizc8v0km0rv7j1cbq82t9e2g,3vw6495tlndqew8jfv7sh2flbacyyi,dy1bfc4T,2020-0188,2020-11-15,00:14:55,00:31:24,NA,incomplete,208,filling,0,right,Green_Plus_Dots_3.jpg,Red_Plus_Grid_4.jpg,Purple_Triangle_Dots_2.jpg,right,885.4849999770522,true,low,false
dy1bfc4T,33ixyhizc8v0km0rv7j1cbq82t9e2g,3vw6495tlndqew8jfv7sh2flbacyyi,dy1bfc4T,2020-0188,2020-11-15,00:14:55,00:31:24,NA,incomplete,209,filling,1,right,Blue_Circle_Chess_4.jpg,Green_Circle_Stripes_3.jpg,Red_Plus_Chess_2.jpg,right,985.8600000152364,true,low,false
dy1bfc4T,33ixyhizc8v0km0rv7j1cbq82t9e2g,3vw6495tlndqew8jfv7sh2flbacyyi,dy1bfc4T,2020-0188,2020-11-15,00:14:55,00:31:24,NA,incomplete,210,filling,0,left,Purple_Plus_Grid_2.jpg,Green_Star_Grid_4.jpg,Red_Plus_Stripes_1.jpg,left,1217.4700000323355,true,low,false
dy1bfc4T,33ixyhizc8v0km0rv7j1cbq82t9e2g,3vw6495tlndqew8jfv7sh2flbacyyi,dy1bfc4T,2020-0188,2020-11-15,00:14:55,00:31:24,NA,incomplete,211,filling,1,right,Blue_Circle_Stripes_2.jpg,Green_Circle_Grid_4.jpg,Purple_Plus_Stripes_3.jpg,right,952.2149999975227,true,low,false
dy1bfc4T,33ixyhizc8v0km0rv7j1cbq82t9e2g,3vw6495tlndqew8jfv7sh2flbacyyi,dy1bfc4T,2020-0188,2020-11-15,00:14:55,00:31:24,NA,incomplete,212,filling,1,right,Green_Triangle_Chess_4.jpg,Red_Triangle_Grid_2.jpg,Purple_Plus_Chess_3.jpg,right,1008.9850000222214,true,low,false
dy1bfc4T,33ixyhizc8v0km0rv7j1cbq82t9e2g,3vw6495tlndqew8jfv7sh2flbacyyi,dy1bfc4T,2020-0188,2020-11-15,00:14:55,00:31:24,NA,incomplete,213,filling,0,left,Blue_Star_Stripes_4.jpg,Purple_Triangle_Stripes_1.jpg,Red_Star_Dots_2.jpg,left,833.8949999888428,true,low,false
dy1bfc4T,33ixyhizc8v0km0rv7j1cbq82t9e2g,3vw6495tlndqew8jfv7sh2flbacyyi,dy1bfc4T,2020-0188,2020-11-15,00:14:55,00:31:24,NA,incomplete,214,filling,1,right,Green_Triangle_Dots_4.jpg,Blue_Triangle_Grid_3.jpg,Red_Plus_Dots_2.jpg,right,998.6449999851175,true,low,false
dy1bfc4T,33ixyhizc8v0km0rv7j1cbq82t9e2g,3vw6495tlndqew8jfv7sh2flbacyyi,dy1bfc4T,2020-0188,2020-11-15,00:14:55,00:31:24,NA,incomplete,215,filling,1,right,Green_Circle_Grid_3.jpg,Purple_Circle_Chess_4.jpg,Blue_Triangle_Grid_2.jpg,right,1023.2650000252761,true,low,false
dy1bfc4T,33ixyhizc8v0km0rv7j1cbq82t9e2g,3vw6495tlndqew8jfv7sh2flbacyyi,dy1bfc4T,2020-0188,2020-11-15,00:14:55,00:31:24,NA,incomplete,216,filling,1,right,Red_Triangle_Chess_4.jpg,Green_Triangle_Dots_3.jpg,Blue_Plus_Chess_2.jpg,right,860.0549999973737,true,low,false
dy1bfc4T,33ixyhizc8v0km0rv7j1cbq82t9e2g,3vw6495tlndqew8jfv7sh2flbacyyi,dy1bfc4T,2020-0188,2020-11-15,00:14:55,00:31:24,NA,incomplete,217,filling,1,left,Blue_Triangle_Dots_4.jpg,Red_Star_Dots_1.jpg,Green_Triangle_Stripes_2.jpg,left,871.4650000329129,true,low,false
dy1bfc4T,33ixyhizc8v0km0rv7j1cbq82t9e2g,3vw6495tlndqew8jfv7sh2flbacyyi,dy1bfc4T,2020-0188,2020-11-15,00:14:55,00:31:24,NA,incomplete,218,filling,1,left,Blue_Circle_Grid_4.jpg,Red_Star_Grid_3.jpg,Purple_Circle_Dots_2.jpg,left,987.0100000407547,true,low,false
dy1bfc4T,33ixyhizc8v0km0rv7j1cbq82t9e2g,3vw6495tlndqew8jfv7sh2flbacyyi,dy1bfc4T,2020-0188,2020-11-15,00:14:55,00:31:24,NA,incomplete,219,filling,1,right,Red_Triangle_Stripes_1.jpg,Blue_Triangle_Grid_2.jpg,Purple_Circle_Stripes_4.jpg,right,1030.9349999879487,true,low,false
dy1bfc4T,33ixyhizc8v0km0rv7j1cbq82t9e2g,3vw6495tlndqew8jfv7sh2flbacyyi,dy1bfc4T,2020-0188,2020-11-15,00:14:55,00:31:24,NA,incomplete,220,shape,1,left,Blue_Star_Chess_4.jpg,Green_Star_Dots_3.jpg,Purple_Plus_Chess_2.jpg,right,755.2600000053644,false,low,false
dy1bfc4T,33ixyhizc8v0km0rv7j1cbq82t9e2g,3vw6495tlndqew8jfv7sh2flbacyyi,dy1bfc4T,2020-0188,2020-11-15,00:14:55,00:31:24,NA,incomplete,221,shape,1,left,Red_Triangle_Stripes_3.jpg,Purple_Triangle_Chess_2.jpg,Green_Star_Stripes_1.jpg,right,901.8550000037067,false,low,false
dy1bfc4T,33ixyhizc8v0km0rv7j1cbq82t9e2g,3vw6495tlndqew8jfv7sh2flbacyyi,dy1bfc4T,2020-0188,2020-11-15,00:14:55,00:31:24,NA,incomplete,222,shape,1,left,Purple_Star_Stripes_4.jpg,Blue_Star_Chess_3.jpg,Green_Plus_Stripes_1.jpg,right,927.3200000170618,false,low,false
dy1bfc4T,33ixyhizc8v0km0rv7j1cbq82t9e2g,3vw6495tlndqew8jfv7sh2flbacyyi,dy1bfc4T,2020-0188,2020-11-15,00:14:55,00:31:24,NA,incomplete,223,shape,0,left,Green_Plus_Dots_1.jpg,Blue_Plus_Stripes_2.jpg,Purple_Triangle_Dots_3.jpg,left,1120.3049999894574,true,low,false
dy1bfc4T,33ixyhizc8v0km0rv7j1cbq82t9e2g,3vw6495tlndqew8jfv7sh2flbacyyi,dy1bfc4T,2020-0188,2020-11-15,00:14:55,00:31:24,NA,incomplete,224,shape,1,left,Blue_Circle_Stripes_3.jpg,Red_Circle_Chess_2.jpg,Purple_Plus_Stripes_4.jpg,left,724.8450000188313,true,low,false
dy1bfc4T,33ixyhizc8v0km0rv7j1cbq82t9e2g,3vw6495tlndqew8jfv7sh2flbacyyi,dy1bfc4T,2020-0188,2020-11-15,00:14:55,00:31:24,NA,incomplete,225,shape,1,left,Blue_Plus_Grid_1.jpg,Red_Plus_Stripes_3.jpg,Green_Star_Grid_2.jpg,left,643.5850000125356,true,low,false
dy1bfc4T,33ixyhizc8v0km0rv7j1cbq82t9e2g,3vw6495tlndqew8jfv7sh2flbacyyi,dy1bfc4T,2020-0188,2020-11-15,00:14:55,00:31:24,NA,incomplete,226,shape,1,left,Red_Triangle_Stripes_2.jpg,Purple_Triangle_Grid_3.jpg,Blue_Star_Stripes_4.jpg,left,705.9199999785051,true,low,false
dy1bfc4T,33ixyhizc8v0km0rv7j1cbq82t9e2g,3vw6495tlndqew8jfv7sh2flbacyyi,dy1bfc4T,2020-0188,2020-11-15,00:14:55,00:31:24,NA,incomplete,227,shape,1,right,Red_Triangle_Dots_1.jpg,Blue_Plus_Dots_2.jpg,Green_Triangle_Stripes_3.jpg,right,624.7899999725632,true,low,false
dy1bfc4T,33ixyhizc8v0km0rv7j1cbq82t9e2g,3vw6495tlndqew8jfv7sh2flbacyyi,dy1bfc4T,2020-0188,2020-11-15,00:14:55,00:31:24,NA,incomplete,228,shape,1,left,Blue_Plus_Chess_4.jpg,Purple_Plus_Dots_3.jpg,Red_Circle_Chess_1.jpg,left,605.829999956768,true,low,false
dy1bfc4T,33ixyhizc8v0km0rv7j1cbq82t9e2g,3vw6495tlndqew8jfv7sh2flbacyyi,dy1bfc4T,2020-0188,2020-11-15,00:14:55,00:31:24,NA,incomplete,229,shape,0,right,Red_Circle_Grid_3.jpg,Blue_Star_Grid_1.jpg,Purple_Circle_Chess_2.jpg,right,547.9799999739043,true,low,false
dy1bfc4T,33ixyhizc8v0km0rv7j1cbq82t9e2g,3vw6495tlndqew8jfv7sh2flbacyyi,dy1bfc4T,2020-0188,2020-11-15,00:14:55,00:31:24,NA,incomplete,230,shape,1,right,Blue_Plus_Chess_3.jpg,Purple_Star_Chess_2.jpg,Red_Plus_Dots_4.jpg,right,748.4749999712221,true,low,false
dy1bfc4T,33ixyhizc8v0km0rv7j1cbq82t9e2g,3vw6495tlndqew8jfv7sh2flbacyyi,dy1bfc4T,2020-0188,2020-11-15,00:14:55,00:31:24,NA,incomplete,231,shape,0,right,Purple_Triangle_Stripes_1.jpg,Green_Star_Stripes_3.jpg,Blue_Triangle_Dots_4.jpg,right,592.2600000048988,true,low,false
dy1bfc4T,33ixyhizc8v0km0rv7j1cbq82t9e2g,3vw6495tlndqew8jfv7sh2flbacyyi,dy1bfc4T,2020-0188,2020-11-15,00:14:55,00:31:24,NA,incomplete,232,shape,1,right,Green_Circle_Grid_1.jpg,Purple_Triangle_Grid_2.jpg,Red_Circle_Stripes_3.jpg,right,697.5899999961257,true,low,false
dy1bfc4T,33ixyhizc8v0km0rv7j1cbq82t9e2g,3vw6495tlndqew8jfv7sh2flbacyyi,dy1bfc4T,2020-0188,2020-11-15,00:14:55,00:31:24,NA,incomplete,233,shape,1,right,Green_Circle_Stripes_4.jpg,Red_Plus_Stripes_1.jpg,Purple_Circle_Dots_3.jpg,right,602.1449999534525,true,low,false
dy1bfc4T,33ixyhizc8v0km0rv7j1cbq82t9e2g,3vw6495tlndqew8jfv7sh2flbacyyi,dy1bfc4T,2020-0188,2020-11-15,00:14:55,00:31:24,NA,incomplete,234,shape,1,left,Red_Triangle_Chess_2.jpg,Green_Triangle_Grid_4.jpg,Purple_Circle_Chess_3.jpg,left,704.9949999782257,true,low,false
dy1bfc4T,33ixyhizc8v0km0rv7j1cbq82t9e2g,3vw6495tlndqew8jfv7sh2flbacyyi,dy1bfc4T,2020-0188,2020-11-15,00:14:55,00:31:24,NA,incomplete,235,shape,1,left,Blue_Star_Chess_2.jpg,Red_Star_Dots_4.jpg,Green_Plus_Chess_3.jpg,left,810.6599999591708,true,low,false
dy1bfc4T,33ixyhizc8v0km0rv7j1cbq82t9e2g,3vw6495tlndqew8jfv7sh2flbacyyi,dy1bfc4T,2020-0188,2020-11-15,00:14:55,00:31:24,NA,incomplete,236,shape,1,right,Red_Star_Stripes_3.jpg,Purple_Plus_Stripes_4.jpg,Blue_Star_Chess_2.jpg,right,708.6250000284053,true,low,false
dy1bfc4T,33ixyhizc8v0km0rv7j1cbq82t9e2g,3vw6495tlndqew8jfv7sh2flbacyyi,dy1bfc4T,2020-0188,2020-11-15,00:14:55,00:31:24,NA,incomplete,237,shape,1,right,Red_Plus_Chess_3.jpg,Purple_Circle_Chess_2.jpg,Blue_Plus_Dots_4.jpg,right,528.3899999922141,true,low,false
dy1bfc4T,33ixyhizc8v0km0rv7j1cbq82t9e2g,3vw6495tlndqew8jfv7sh2flbacyyi,dy1bfc4T,2020-0188,2020-11-15,00:14:55,00:31:24,NA,incomplete,238,shape,0,right,Purple_Plus_Stripes_1.jpg,Green_Star_Stripes_2.jpg,Blue_Plus_Dots_4.jpg,right,653.649999992922,true,low,false
dy1bfc4T,33ixyhizc8v0km0rv7j1cbq82t9e2g,3vw6495tlndqew8jfv7sh2flbacyyi,dy1bfc4T,2020-0188,2020-11-15,00:14:55,00:31:24,NA,incomplete,239,shape,1,right,Purple_Circle_Stripes_3.jpg,Red_Plus_Stripes_4.jpg,Green_Circle_Grid_1.jpg,right,565.5450000194833,true,low,false
dy1bfc4T,33ixyhizc8v0km0rv7j1cbq82t9e2g,3vw6495tlndqew8jfv7sh2flbacyyi,dy1bfc4T,2020-0188,2020-11-15,00:14:55,00:31:24,970709.1299999738,990272.9500000132,NA,NA,NA,NA,NA,NA,NA,NA,NA,NA,NA,undefined
