workerId,hitId,assignmentId,subject,studyid,exp_date,exp_start,exp_end,time_start,time_end,trial,type,reward_validity,answer,image_top,image_left,image_right,response,response_time,response_acc,volatility,practice
ghvl54vZ,33cla8o0nlo9ukh858i8v1jgjoffrm,3vzlgyjeypn1jhse6ln9cvhdfz0xzg,ghvl54vZ,2020-0188,2020-05-08,09:44:35,10:00:53,NA,incomplete,0,filling,0,left,Red_Circle_Chess_4.jpg,Green_Plus_Chess_1.jpg,Purple_Circle_Dots_2.jpg,left,1046.860000002198,true,NA,true
ghvl54vZ,33cla8o0nlo9ukh858i8v1jgjoffrm,3vzlgyjeypn1jhse6ln9cvhdfz0xzg,ghvl54vZ,2020-0188,2020-05-08,09:44:35,10:00:53,NA,incomplete,1,filling,1,right,Purple_Triangle_Chess_4.jpg,Blue_Triangle_Dots_2.jpg,Red_Star_Chess_1.jpg,right,1082.6550000347197,true,NA,true
ghvl54vZ,33cla8o0nlo9ukh858i8v1jgjoffrm,3vzlgyjeypn1jhse6ln9cvhdfz0xzg,ghvl54vZ,2020-0188,2020-05-08,09:44:35,10:00:53,NA,incomplete,2,filling,1,left,Red_Circle_Grid_2.jpg,Purple_Plus_Grid_3.jpg,Blue_Circle_Chess_1.jpg,left,1118.1199999991804,true,NA,true
ghvl54vZ,33cla8o0nlo9ukh858i8v1jgjoffrm,3vzlgyjeypn1jhse6ln9cvhdfz0xzg,ghvl54vZ,2020-0188,2020-05-08,09:44:35,10:00:53,NA,incomplete,3,filling,0,left,Blue_Plus_Stripes_4.jpg,Red_Triangle_Stripes_3.jpg,Green_Plus_Dots_2.jpg,left,1130.170000018552,true,NA,true
ghvl54vZ,33cla8o0nlo9ukh858i8v1jgjoffrm,3vzlgyjeypn1jhse6ln9cvhdfz0xzg,ghvl54vZ,2020-0188,2020-05-08,09:44:35,10:00:53,NA,incomplete,4,filling,1,right,Blue_Plus_Stripes_2.jpg,Red_Plus_Chess_3.jpg,Green_Star_Stripes_1.jpg,right,1054.6749999048188,true,NA,true
ghvl54vZ,33cla8o0nlo9ukh858i8v1jgjoffrm,3vzlgyjeypn1jhse6ln9cvhdfz0xzg,ghvl54vZ,2020-0188,2020-05-08,09:44:35,10:00:53,NA,incomplete,5,filling,1,left,Purple_Plus_Grid_1.jpg,Blue_Triangle_Grid_3.jpg,Green_Plus_Stripes_4.jpg,left,1031.1600000131875,true,NA,true
ghvl54vZ,33cla8o0nlo9ukh858i8v1jgjoffrm,3vzlgyjeypn1jhse6ln9cvhdfz0xzg,ghvl54vZ,2020-0188,2020-05-08,09:44:35,10:00:53,NA,incomplete,6,filling,1,left,Green_Star_Grid_4.jpg,Blue_Plus_Grid_1.jpg,Red_Star_Chess_3.jpg,left,992.6099999574944,true,NA,true
ghvl54vZ,33cla8o0nlo9ukh858i8v1jgjoffrm,3vzlgyjeypn1jhse6ln9cvhdfz0xzg,ghvl54vZ,2020-0188,2020-05-08,09:44:35,10:00:53,NA,incomplete,7,filling,1,left,Green_Circle_Chess_2.jpg,Purple_Star_Chess_1.jpg,Blue_Circle_Stripes_4.jpg,left,1013.6649999767542,true,NA,true
ghvl54vZ,33cla8o0nlo9ukh858i8v1jgjoffrm,3vzlgyjeypn1jhse6ln9cvhdfz0xzg,ghvl54vZ,2020-0188,2020-05-08,09:44:35,10:00:53,NA,incomplete,8,filling,1,left,Green_Plus_Dots_1.jpg,Red_Star_Dots_3.jpg,Purple_Plus_Grid_4.jpg,left,994.2899999441579,true,NA,true
ghvl54vZ,33cla8o0nlo9ukh858i8v1jgjoffrm,3vzlgyjeypn1jhse6ln9cvhdfz0xzg,ghvl54vZ,2020-0188,2020-05-08,09:44:35,10:00:53,NA,incomplete,9,filling,1,right,Green_Plus_Chess_3.jpg,Blue_Plus_Stripes_4.jpg,Red_Circle_Chess_2.jpg,right,935.715000028722,true,NA,true
ghvl54vZ,33cla8o0nlo9ukh858i8v1jgjoffrm,3vzlgyjeypn1jhse6ln9cvhdfz0xzg,ghvl54vZ,2020-0188,2020-05-08,09:44:35,10:00:53,NA,incomplete,10,filling,1,right,Red_Plus_Chess_3.jpg,Green_Plus_Dots_4.jpg,Blue_Circle_Chess_2.jpg,right,855.1750000333413,true,NA,true
ghvl54vZ,33cla8o0nlo9ukh858i8v1jgjoffrm,3vzlgyjeypn1jhse6ln9cvhdfz0xzg,ghvl54vZ,2020-0188,2020-05-08,09:44:35,10:00:53,NA,incomplete,11,filling,0,left,Purple_Triangle_Chess_4.jpg,Green_Circle_Chess_3.jpg,Red_Triangle_Grid_2.jpg,left,1073.7349999835715,true,NA,true
ghvl54vZ,33cla8o0nlo9ukh858i8v1jgjoffrm,3vzlgyjeypn1jhse6ln9cvhdfz0xzg,ghvl54vZ,2020-0188,2020-05-08,09:44:35,10:00:53,NA,incomplete,12,filling,1,left,Purple_Triangle_Chess_1.jpg,Blue_Star_Chess_3.jpg,Green_Triangle_Dots_4.jpg,left,815.3700000839308,true,NA,true
ghvl54vZ,33cla8o0nlo9ukh858i8v1jgjoffrm,3vzlgyjeypn1jhse6ln9cvhdfz0xzg,ghvl54vZ,2020-0188,2020-05-08,09:44:35,10:00:53,NA,incomplete,13,filling,1,left,Red_Triangle_Dots_4.jpg,Blue_Circle_Dots_2.jpg,Green_Triangle_Chess_1.jpg,left,979.9900000216439,true,NA,true
ghvl54vZ,33cla8o0nlo9ukh858i8v1jgjoffrm,3vzlgyjeypn1jhse6ln9cvhdfz0xzg,ghvl54vZ,2020-0188,2020-05-08,09:44:35,10:00:53,NA,incomplete,14,filling,1,left,Purple_Star_Dots_2.jpg,Green_Plus_Dots_3.jpg,Red_Star_Stripes_1.jpg,left,1176.644999999553,true,NA,true
ghvl54vZ,33cla8o0nlo9ukh858i8v1jgjoffrm,3vzlgyjeypn1jhse6ln9cvhdfz0xzg,ghvl54vZ,2020-0188,2020-05-08,09:44:35,10:00:53,NA,incomplete,15,filling,1,left,Blue_Triangle_Chess_1.jpg,Purple_Plus_Chess_2.jpg,Green_Triangle_Dots_3.jpg,left,788.6949999956414,true,NA,true
ghvl54vZ,33cla8o0nlo9ukh858i8v1jgjoffrm,3vzlgyjeypn1jhse6ln9cvhdfz0xzg,ghvl54vZ,2020-0188,2020-05-08,09:44:35,10:00:53,NA,incomplete,16,filling,1,right,Blue_Triangle_Grid_1.jpg,Purple_Triangle_Stripes_4.jpg,Green_Plus_Grid_3.jpg,left,832.9849999863654,false,NA,true
ghvl54vZ,33cla8o0nlo9ukh858i8v1jgjoffrm,3vzlgyjeypn1jhse6ln9cvhdfz0xzg,ghvl54vZ,2020-0188,2020-05-08,09:44:35,10:00:53,NA,incomplete,17,filling,1,left,Red_Star_Dots_2.jpg,Blue_Circle_Dots_4.jpg,Purple_Star_Chess_3.jpg,left,1095.325000002049,true,NA,true
ghvl54vZ,33cla8o0nlo9ukh858i8v1jgjoffrm,3vzlgyjeypn1jhse6ln9cvhdfz0xzg,ghvl54vZ,2020-0188,2020-05-08,09:44:35,10:00:53,NA,incomplete,18,filling,1,right,Green_Circle_Chess_1.jpg,Blue_Circle_Dots_3.jpg,Red_Triangle_Chess_2.jpg,right,847.389999893494,true,NA,true
ghvl54vZ,33cla8o0nlo9ukh858i8v1jgjoffrm,3vzlgyjeypn1jhse6ln9cvhdfz0xzg,ghvl54vZ,2020-0188,2020-05-08,09:44:35,10:00:53,NA,incomplete,19,filling,0,right,Green_Triangle_Grid_2.jpg,Blue_Triangle_Stripes_4.jpg,Red_Star_Grid_1.jpg,right,1196.4300000108778,true,NA,true
ghvl54vZ,33cla8o0nlo9ukh858i8v1jgjoffrm,3vzlgyjeypn1jhse6ln9cvhdfz0xzg,ghvl54vZ,2020-0188,2020-05-08,09:44:35,10:00:53,NA,incomplete,20,shape,1,right,Blue_Star_Chess_2.jpg,Purple_Triangle_Chess_1.jpg,Green_Star_Dots_3.jpg,left,967.0850000111386,false,NA,true
ghvl54vZ,33cla8o0nlo9ukh858i8v1jgjoffrm,3vzlgyjeypn1jhse6ln9cvhdfz0xzg,ghvl54vZ,2020-0188,2020-05-08,09:44:35,10:00:53,NA,incomplete,21,shape,1,right,Purple_Circle_Dots_2.jpg,Blue_Plus_Dots_3.jpg,Green_Circle_Grid_4.jpg,right,742.9899999406189,true,NA,true
ghvl54vZ,33cla8o0nlo9ukh858i8v1jgjoffrm,3vzlgyjeypn1jhse6ln9cvhdfz0xzg,ghvl54vZ,2020-0188,2020-05-08,09:44:35,10:00:53,NA,incomplete,22,shape,1,right,Red_Star_Dots_4.jpg,Green_Plus_Dots_2.jpg,Purple_Star_Grid_1.jpg,right,775.6500000832602,true,NA,true
ghvl54vZ,33cla8o0nlo9ukh858i8v1jgjoffrm,3vzlgyjeypn1jhse6ln9cvhdfz0xzg,ghvl54vZ,2020-0188,2020-05-08,09:44:35,10:00:53,NA,incomplete,23,shape,1,right,Purple_Plus_Grid_3.jpg,Red_Triangle_Grid_1.jpg,Blue_Plus_Dots_4.jpg,right,708.2999999402091,true,NA,true
ghvl54vZ,33cla8o0nlo9ukh858i8v1jgjoffrm,3vzlgyjeypn1jhse6ln9cvhdfz0xzg,ghvl54vZ,2020-0188,2020-05-08,09:44:35,10:00:53,NA,incomplete,24,shape,0,right,Green_Plus_Grid_2.jpg,Blue_Circle_Grid_3.jpg,Purple_Plus_Stripes_4.jpg,right,718.7450000783429,true,NA,true
ghvl54vZ,33cla8o0nlo9ukh858i8v1jgjoffrm,3vzlgyjeypn1jhse6ln9cvhdfz0xzg,ghvl54vZ,2020-0188,2020-05-08,09:44:35,10:00:53,NA,incomplete,25,shape,1,right,Red_Triangle_Dots_2.jpg,Blue_Star_Dots_1.jpg,Purple_Triangle_Grid_4.jpg,right,748.0249999789521,true,NA,true
ghvl54vZ,33cla8o0nlo9ukh858i8v1jgjoffrm,3vzlgyjeypn1jhse6ln9cvhdfz0xzg,ghvl54vZ,2020-0188,2020-05-08,09:44:35,10:00:53,NA,incomplete,26,shape,0,left,Red_Star_Dots_2.jpg,Green_Star_Chess_3.jpg,Purple_Circle_Dots_1.jpg,left,643.0349999573082,true,NA,true
ghvl54vZ,33cla8o0nlo9ukh858i8v1jgjoffrm,3vzlgyjeypn1jhse6ln9cvhdfz0xzg,ghvl54vZ,2020-0188,2020-05-08,09:44:35,10:00:53,NA,incomplete,27,shape,1,left,Blue_Plus_Stripes_2.jpg,Purple_Plus_Chess_4.jpg,Red_Star_Stripes_3.jpg,left,815.8500000135973,true,NA,true
ghvl54vZ,33cla8o0nlo9ukh858i8v1jgjoffrm,3vzlgyjeypn1jhse6ln9cvhdfz0xzg,ghvl54vZ,2020-0188,2020-05-08,09:44:35,10:00:53,NA,incomplete,28,shape,1,right,Red_Star_Grid_3.jpg,Purple_Triangle_Grid_2.jpg,Green_Star_Chess_1.jpg,right,689.9449999909848,true,NA,true
ghvl54vZ,33cla8o0nlo9ukh858i8v1jgjoffrm,3vzlgyjeypn1jhse6ln9cvhdfz0xzg,ghvl54vZ,2020-0188,2020-05-08,09:44:35,10:00:53,NA,incomplete,29,shape,1,left,Purple_Plus_Chess_3.jpg,Red_Plus_Dots_4.jpg,Blue_Star_Chess_1.jpg,left,731.5850000595674,true,NA,true
ghvl54vZ,33cla8o0nlo9ukh858i8v1jgjoffrm,3vzlgyjeypn1jhse6ln9cvhdfz0xzg,ghvl54vZ,2020-0188,2020-05-08,09:44:35,10:00:53,NA,incomplete,30,shape,1,right,Green_Triangle_Dots_2.jpg,Red_Star_Dots_1.jpg,Purple_Triangle_Chess_3.jpg,right,558.445000089705,true,NA,true
ghvl54vZ,33cla8o0nlo9ukh858i8v1jgjoffrm,3vzlgyjeypn1jhse6ln9cvhdfz0xzg,ghvl54vZ,2020-0188,2020-05-08,09:44:35,10:00:53,NA,incomplete,31,shape,0,left,Red_Circle_Grid_3.jpg,Green_Circle_Stripes_2.jpg,Purple_Triangle_Grid_4.jpg,left,674.9350000172853,true,NA,true
ghvl54vZ,33cla8o0nlo9ukh858i8v1jgjoffrm,3vzlgyjeypn1jhse6ln9cvhdfz0xzg,ghvl54vZ,2020-0188,2020-05-08,09:44:35,10:00:53,NA,incomplete,32,shape,1,left,Green_Circle_Dots_2.jpg,Purple_Circle_Grid_3.jpg,Blue_Star_Dots_4.jpg,left,558.6200000252575,true,NA,true
ghvl54vZ,33cla8o0nlo9ukh858i8v1jgjoffrm,3vzlgyjeypn1jhse6ln9cvhdfz0xzg,ghvl54vZ,2020-0188,2020-05-08,09:44:35,10:00:53,NA,incomplete,33,shape,1,right,Purple_Circle_Chess_2.jpg,Green_Triangle_Chess_3.jpg,Red_Circle_Stripes_1.jpg,right,619.1899999976158,true,NA,true
ghvl54vZ,33cla8o0nlo9ukh858i8v1jgjoffrm,3vzlgyjeypn1jhse6ln9cvhdfz0xzg,ghvl54vZ,2020-0188,2020-05-08,09:44:35,10:00:53,NA,incomplete,34,shape,0,left,Green_Star_Stripes_1.jpg,Purple_Star_Dots_4.jpg,Red_Plus_Stripes_3.jpg,right,912.8299999283627,false,NA,true
ghvl54vZ,33cla8o0nlo9ukh858i8v1jgjoffrm,3vzlgyjeypn1jhse6ln9cvhdfz0xzg,ghvl54vZ,2020-0188,2020-05-08,09:44:35,10:00:53,NA,incomplete,35,shape,1,right,Blue_Plus_Stripes_2.jpg,Purple_Circle_Stripes_1.jpg,Red_Plus_Dots_3.jpg,right,691.9550000457093,true,NA,true
ghvl54vZ,33cla8o0nlo9ukh858i8v1jgjoffrm,3vzlgyjeypn1jhse6ln9cvhdfz0xzg,ghvl54vZ,2020-0188,2020-05-08,09:44:35,10:00:53,NA,incomplete,36,shape,1,right,Blue_Plus_Stripes_1.jpg,Purple_Star_Stripes_2.jpg,Red_Plus_Dots_3.jpg,right,671.4400000637397,true,NA,true
ghvl54vZ,33cla8o0nlo9ukh858i8v1jgjoffrm,3vzlgyjeypn1jhse6ln9cvhdfz0xzg,ghvl54vZ,2020-0188,2020-05-08,09:44:35,10:00:53,NA,incomplete,37,shape,1,left,Purple_Star_Chess_3.jpg,Red_Star_Grid_2.jpg,Blue_Plus_Chess_1.jpg,left,585.4550000512972,true,NA,true
ghvl54vZ,33cla8o0nlo9ukh858i8v1jgjoffrm,3vzlgyjeypn1jhse6ln9cvhdfz0xzg,ghvl54vZ,2020-0188,2020-05-08,09:44:35,10:00:53,NA,incomplete,38,shape,1,left,Purple_Triangle_Stripes_4.jpg,Green_Triangle_Chess_1.jpg,Blue_Circle_Stripes_2.jpg,left,742.119999951683,true,NA,true
ghvl54vZ,33cla8o0nlo9ukh858i8v1jgjoffrm,3vzlgyjeypn1jhse6ln9cvhdfz0xzg,ghvl54vZ,2020-0188,2020-05-08,09:44:35,10:00:53,NA,incomplete,39,shape,1,right,Green_Star_Grid_2.jpg,Red_Triangle_Grid_3.jpg,Purple_Star_Stripes_4.jpg,right,729.5100000919774,true,NA,true
ghvl54vZ,33cla8o0nlo9ukh858i8v1jgjoffrm,3vzlgyjeypn1jhse6ln9cvhdfz0xzg,ghvl54vZ,2020-0188,2020-05-08,09:44:35,10:00:53,NA,incomplete,0,filling,0,left,Purple_Star_Chess_4.jpg,Green_Plus_Chess_2.jpg,Red_Star_Grid_1.jpg,right,1321.3449999457225,false,low,false
ghvl54vZ,33cla8o0nlo9ukh858i8v1jgjoffrm,3vzlgyjeypn1jhse6ln9cvhdfz0xzg,ghvl54vZ,2020-0188,2020-05-08,09:44:35,10:00:53,NA,incomplete,1,filling,1,left,Blue_Circle_Grid_2.jpg,Green_Plus_Grid_4.jpg,Purple_Circle_Chess_3.jpg,right,891.8550000526011,false,low,false
ghvl54vZ,33cla8o0nlo9ukh858i8v1jgjoffrm,3vzlgyjeypn1jhse6ln9cvhdfz0xzg,ghvl54vZ,2020-0188,2020-05-08,09:44:35,10:00:53,NA,incomplete,2,filling,1,right,Purple_Plus_Grid_3.jpg,Green_Plus_Chess_4.jpg,Red_Star_Grid_1.jpg,left,716.6749999159947,false,low,false
ghvl54vZ,33cla8o0nlo9ukh858i8v1jgjoffrm,3vzlgyjeypn1jhse6ln9cvhdfz0xzg,ghvl54vZ,2020-0188,2020-05-08,09:44:35,10:00:53,NA,incomplete,3,filling,1,right,Red_Plus_Dots_3.jpg,Purple_Plus_Grid_4.jpg,Green_Circle_Dots_2.jpg,left,728.1750000547618,false,low,false
ghvl54vZ,33cla8o0nlo9ukh858i8v1jgjoffrm,3vzlgyjeypn1jhse6ln9cvhdfz0xzg,ghvl54vZ,2020-0188,2020-05-08,09:44:35,10:00:53,NA,incomplete,4,filling,1,right,Blue_Star_Grid_1.jpg,Green_Star_Chess_4.jpg,Purple_Circle_Grid_2.jpg,right,1286.3199999555945,true,low,false
ghvl54vZ,33cla8o0nlo9ukh858i8v1jgjoffrm,3vzlgyjeypn1jhse6ln9cvhdfz0xzg,ghvl54vZ,2020-0188,2020-05-08,09:44:35,10:00:53,NA,incomplete,5,filling,1,right,Purple_Star_Dots_1.jpg,Red_Star_Chess_2.jpg,Blue_Plus_Dots_4.jpg,right,998.7349999137223,true,low,false
ghvl54vZ,33cla8o0nlo9ukh858i8v1jgjoffrm,3vzlgyjeypn1jhse6ln9cvhdfz0xzg,ghvl54vZ,2020-0188,2020-05-08,09:44:35,10:00:53,NA,incomplete,6,filling,1,right,Purple_Circle_Stripes_3.jpg,Blue_Circle_Dots_4.jpg,Green_Plus_Stripes_2.jpg,right,1028.1550000654534,true,low,false
ghvl54vZ,33cla8o0nlo9ukh858i8v1jgjoffrm,3vzlgyjeypn1jhse6ln9cvhdfz0xzg,ghvl54vZ,2020-0188,2020-05-08,09:44:35,10:00:53,NA,incomplete,7,filling,1,right,Purple_Circle_Chess_4.jpg,Red_Circle_Stripes_2.jpg,Blue_Plus_Chess_3.jpg,right,946.2150000035763,true,low,false
ghvl54vZ,33cla8o0nlo9ukh858i8v1jgjoffrm,3vzlgyjeypn1jhse6ln9cvhdfz0xzg,ghvl54vZ,2020-0188,2020-05-08,09:44:35,10:00:53,NA,incomplete,8,filling,1,right,Blue_Circle_Stripes_2.jpg,Green_Circle_Dots_1.jpg,Red_Plus_Stripes_4.jpg,right,1012.3950000852346,true,low,false
ghvl54vZ,33cla8o0nlo9ukh858i8v1jgjoffrm,3vzlgyjeypn1jhse6ln9cvhdfz0xzg,ghvl54vZ,2020-0188,2020-05-08,09:44:35,10:00:53,NA,incomplete,9,filling,0,left,Blue_Star_Chess_3.jpg,Red_Plus_Chess_1.jpg,Green_Star_Dots_2.jpg,left,1513.4900000412017,true,low,false
ghvl54vZ,33cla8o0nlo9ukh858i8v1jgjoffrm,3vzlgyjeypn1jhse6ln9cvhdfz0xzg,ghvl54vZ,2020-0188,2020-05-08,09:44:35,10:00:53,NA,incomplete,10,filling,1,right,Green_Circle_Dots_2.jpg,Blue_Circle_Chess_3.jpg,Purple_Triangle_Dots_1.jpg,right,879.0550000267103,true,low,false
ghvl54vZ,33cla8o0nlo9ukh858i8v1jgjoffrm,3vzlgyjeypn1jhse6ln9cvhdfz0xzg,ghvl54vZ,2020-0188,2020-05-08,09:44:35,10:00:53,NA,incomplete,11,filling,0,right,Blue_Circle_Grid_4.jpg,Red_Circle_Dots_1.jpg,Purple_Triangle_Grid_2.jpg,right,792.2750000143424,true,low,false
ghvl54vZ,33cla8o0nlo9ukh858i8v1jgjoffrm,3vzlgyjeypn1jhse6ln9cvhdfz0xzg,ghvl54vZ,2020-0188,2020-05-08,09:44:35,10:00:53,NA,incomplete,12,filling,1,right,Green_Circle_Chess_2.jpg,Purple_Circle_Grid_3.jpg,Red_Star_Chess_1.jpg,right,885.6449999148026,true,low,false
ghvl54vZ,33cla8o0nlo9ukh858i8v1jgjoffrm,3vzlgyjeypn1jhse6ln9cvhdfz0xzg,ghvl54vZ,2020-0188,2020-05-08,09:44:35,10:00:53,NA,incomplete,13,filling,1,right,Blue_Star_Stripes_3.jpg,Green_Star_Chess_4.jpg,Purple_Circle_Stripes_2.jpg,right,943.1099999928847,true,low,false
ghvl54vZ,33cla8o0nlo9ukh858i8v1jgjoffrm,3vzlgyjeypn1jhse6ln9cvhdfz0xzg,ghvl54vZ,2020-0188,2020-05-08,09:44:35,10:00:53,NA,incomplete,14,filling,1,left,Green_Circle_Stripes_3.jpg,Purple_Plus_Stripes_2.jpg,Blue_Circle_Grid_1.jpg,left,936.4800000330433,true,low,false
ghvl54vZ,33cla8o0nlo9ukh858i8v1jgjoffrm,3vzlgyjeypn1jhse6ln9cvhdfz0xzg,ghvl54vZ,2020-0188,2020-05-08,09:44:35,10:00:53,NA,incomplete,15,filling,1,right,Purple_Plus_Grid_4.jpg,Green_Plus_Chess_2.jpg,Blue_Circle_Grid_3.jpg,left,949.239999987185,false,low,false
ghvl54vZ,33cla8o0nlo9ukh858i8v1jgjoffrm,3vzlgyjeypn1jhse6ln9cvhdfz0xzg,ghvl54vZ,2020-0188,2020-05-08,09:44:35,10:00:53,NA,incomplete,16,filling,1,right,Purple_Star_Grid_3.jpg,Red_Star_Dots_4.jpg,Green_Triangle_Grid_1.jpg,right,1078.2900000922382,true,low,false
ghvl54vZ,33cla8o0nlo9ukh858i8v1jgjoffrm,3vzlgyjeypn1jhse6ln9cvhdfz0xzg,ghvl54vZ,2020-0188,2020-05-08,09:44:35,10:00:53,NA,incomplete,17,filling,1,right,Blue_Triangle_Grid_1.jpg,Purple_Triangle_Stripes_3.jpg,Green_Plus_Grid_4.jpg,right,896.2700000265613,true,low,false
ghvl54vZ,33cla8o0nlo9ukh858i8v1jgjoffrm,3vzlgyjeypn1jhse6ln9cvhdfz0xzg,ghvl54vZ,2020-0188,2020-05-08,09:44:35,10:00:53,NA,incomplete,18,filling,1,right,Green_Circle_Dots_2.jpg,Red_Circle_Chess_3.jpg,Blue_Plus_Dots_4.jpg,right,867.4100000644103,true,low,false
ghvl54vZ,33cla8o0nlo9ukh858i8v1jgjoffrm,3vzlgyjeypn1jhse6ln9cvhdfz0xzg,ghvl54vZ,2020-0188,2020-05-08,09:44:35,10:00:53,NA,incomplete,19,filling,1,right,Purple_Triangle_Stripes_1.jpg,Red_Triangle_Chess_2.jpg,Green_Plus_Stripes_3.jpg,right,882.2449999861419,true,low,false
ghvl54vZ,33cla8o0nlo9ukh858i8v1jgjoffrm,3vzlgyjeypn1jhse6ln9cvhdfz0xzg,ghvl54vZ,2020-0188,2020-05-08,09:44:35,10:00:53,NA,incomplete,20,filling,1,right,Green_Circle_Chess_2.jpg,Red_Circle_Grid_1.jpg,Blue_Plus_Chess_4.jpg,right,846.250000060536,true,low,false
ghvl54vZ,33cla8o0nlo9ukh858i8v1jgjoffrm,3vzlgyjeypn1jhse6ln9cvhdfz0xzg,ghvl54vZ,2020-0188,2020-05-08,09:44:35,10:00:53,NA,incomplete,21,filling,1,left,Red_Plus_Stripes_2.jpg,Blue_Triangle_Stripes_1.jpg,Purple_Plus_Grid_4.jpg,left,984.0550000080839,true,low,false
ghvl54vZ,33cla8o0nlo9ukh858i8v1jgjoffrm,3vzlgyjeypn1jhse6ln9cvhdfz0xzg,ghvl54vZ,2020-0188,2020-05-08,09:44:35,10:00:53,NA,incomplete,22,filling,0,left,Green_Triangle_Grid_4.jpg,Red_Circle_Grid_1.jpg,Blue_Triangle_Dots_3.jpg,left,925.6150000728667,true,low,false
ghvl54vZ,33cla8o0nlo9ukh858i8v1jgjoffrm,3vzlgyjeypn1jhse6ln9cvhdfz0xzg,ghvl54vZ,2020-0188,2020-05-08,09:44:35,10:00:53,NA,incomplete,23,filling,1,right,Green_Circle_Chess_2.jpg,Red_Circle_Stripes_1.jpg,Purple_Star_Chess_4.jpg,right,887.845000019297,true,low,false
ghvl54vZ,33cla8o0nlo9ukh858i8v1jgjoffrm,3vzlgyjeypn1jhse6ln9cvhdfz0xzg,ghvl54vZ,2020-0188,2020-05-08,09:44:35,10:00:53,NA,incomplete,24,filling,1,left,Blue_Circle_Dots_3.jpg,Red_Plus_Dots_2.jpg,Green_Circle_Grid_1.jpg,left,880.5249999277294,true,low,false
ghvl54vZ,33cla8o0nlo9ukh858i8v1jgjoffrm,3vzlgyjeypn1jhse6ln9cvhdfz0xzg,ghvl54vZ,2020-0188,2020-05-08,09:44:35,10:00:53,NA,incomplete,25,filling,1,left,Green_Star_Dots_2.jpg,Blue_Circle_Dots_4.jpg,Red_Star_Chess_3.jpg,left,868.1850000284612,true,low,false
ghvl54vZ,33cla8o0nlo9ukh858i8v1jgjoffrm,3vzlgyjeypn1jhse6ln9cvhdfz0xzg,ghvl54vZ,2020-0188,2020-05-08,09:44:35,10:00:53,NA,incomplete,26,filling,1,left,Red_Circle_Stripes_3.jpg,Purple_Star_Stripes_1.jpg,Green_Circle_Dots_2.jpg,left,1025.2800000598654,true,low,false
ghvl54vZ,33cla8o0nlo9ukh858i8v1jgjoffrm,3vzlgyjeypn1jhse6ln9cvhdfz0xzg,ghvl54vZ,2020-0188,2020-05-08,09:44:35,10:00:53,NA,incomplete,27,filling,1,right,Red_Triangle_Grid_1.jpg,Purple_Triangle_Stripes_3.jpg,Blue_Star_Grid_2.jpg,right,879.1249999776483,true,low,false
ghvl54vZ,33cla8o0nlo9ukh858i8v1jgjoffrm,3vzlgyjeypn1jhse6ln9cvhdfz0xzg,ghvl54vZ,2020-0188,2020-05-08,09:44:35,10:00:53,NA,incomplete,28,filling,1,left,Blue_Circle_Dots_4.jpg,Red_Plus_Dots_3.jpg,Purple_Circle_Chess_2.jpg,left,800.8350000018254,true,low,false
ghvl54vZ,33cla8o0nlo9ukh858i8v1jgjoffrm,3vzlgyjeypn1jhse6ln9cvhdfz0xzg,ghvl54vZ,2020-0188,2020-05-08,09:44:35,10:00:53,NA,incomplete,29,filling,1,right,Red_Circle_Chess_4.jpg,Purple_Circle_Stripes_3.jpg,Blue_Triangle_Chess_2.jpg,right,1055.255000013858,true,low,false
ghvl54vZ,33cla8o0nlo9ukh858i8v1jgjoffrm,3vzlgyjeypn1jhse6ln9cvhdfz0xzg,ghvl54vZ,2020-0188,2020-05-08,09:44:35,10:00:53,NA,incomplete,30,shape,1,left,Purple_Star_Stripes_3.jpg,Red_Star_Chess_4.jpg,Blue_Triangle_Stripes_2.jpg,right,991.9300000183284,false,low,false
ghvl54vZ,33cla8o0nlo9ukh858i8v1jgjoffrm,3vzlgyjeypn1jhse6ln9cvhdfz0xzg,ghvl54vZ,2020-0188,2020-05-08,09:44:35,10:00:53,NA,incomplete,31,shape,1,left,Red_Plus_Stripes_3.jpg,Blue_Plus_Dots_4.jpg,Green_Circle_Stripes_1.jpg,right,826.9550000550225,false,low,false
ghvl54vZ,33cla8o0nlo9ukh858i8v1jgjoffrm,3vzlgyjeypn1jhse6ln9cvhdfz0xzg,ghvl54vZ,2020-0188,2020-05-08,09:44:35,10:00:53,NA,incomplete,32,shape,1,right,Purple_Plus_Grid_4.jpg,Blue_Star_Grid_3.jpg,Red_Plus_Chess_1.jpg,left,975.0750000821427,false,low,false
ghvl54vZ,33cla8o0nlo9ukh858i8v1jgjoffrm,3vzlgyjeypn1jhse6ln9cvhdfz0xzg,ghvl54vZ,2020-0188,2020-05-08,09:44:35,10:00:53,NA,incomplete,33,shape,1,right,Blue_Plus_Chess_3.jpg,Green_Triangle_Chess_4.jpg,Red_Plus_Grid_2.jpg,right,810.4850000236183,true,low,false
ghvl54vZ,33cla8o0nlo9ukh858i8v1jgjoffrm,3vzlgyjeypn1jhse6ln9cvhdfz0xzg,ghvl54vZ,2020-0188,2020-05-08,09:44:35,10:00:53,NA,incomplete,34,shape,1,left,Red_Triangle_Chess_1.jpg,Purple_Triangle_Stripes_3.jpg,Blue_Plus_Chess_2.jpg,left,746.199999935925,true,low,false
ghvl54vZ,33cla8o0nlo9ukh858i8v1jgjoffrm,3vzlgyjeypn1jhse6ln9cvhdfz0xzg,ghvl54vZ,2020-0188,2020-05-08,09:44:35,10:00:53,NA,incomplete,35,shape,1,right,Green_Circle_Stripes_3.jpg,Red_Triangle_Stripes_1.jpg,Blue_Circle_Chess_4.jpg,right,626.5150000108406,true,low,false
ghvl54vZ,33cla8o0nlo9ukh858i8v1jgjoffrm,3vzlgyjeypn1jhse6ln9cvhdfz0xzg,ghvl54vZ,2020-0188,2020-05-08,09:44:35,10:00:53,NA,incomplete,36,shape,1,left,Red_Plus_Chess_1.jpg,Blue_Plus_Grid_4.jpg,Green_Star_Chess_3.jpg,left,817.8150000749156,true,low,false
ghvl54vZ,33cla8o0nlo9ukh858i8v1jgjoffrm,3vzlgyjeypn1jhse6ln9cvhdfz0xzg,ghvl54vZ,2020-0188,2020-05-08,09:44:35,10:00:53,NA,incomplete,37,shape,1,right,Blue_Star_Grid_4.jpg,Green_Triangle_Grid_1.jpg,Red_Star_Dots_3.jpg,right,607.9349999781698,true,low,false
ghvl54vZ,33cla8o0nlo9ukh858i8v1jgjoffrm,3vzlgyjeypn1jhse6ln9cvhdfz0xzg,ghvl54vZ,2020-0188,2020-05-08,09:44:35,10:00:53,NA,incomplete,38,shape,0,right,Red_Triangle_Chess_2.jpg,Blue_Plus_Chess_3.jpg,Green_Triangle_Stripes_1.jpg,left,769.6500000311062,false,low,false
ghvl54vZ,33cla8o0nlo9ukh858i8v1jgjoffrm,3vzlgyjeypn1jhse6ln9cvhdfz0xzg,ghvl54vZ,2020-0188,2020-05-08,09:44:35,10:00:53,NA,incomplete,39,shape,1,left,Blue_Triangle_Dots_2.jpg,Purple_Triangle_Grid_1.jpg,Red_Star_Dots_3.jpg,left,777.4699999717996,true,low,false
ghvl54vZ,33cla8o0nlo9ukh858i8v1jgjoffrm,3vzlgyjeypn1jhse6ln9cvhdfz0xzg,ghvl54vZ,2020-0188,2020-05-08,09:44:35,10:00:53,NA,incomplete,40,shape,1,left,Blue_Circle_Chess_1.jpg,Purple_Circle_Grid_3.jpg,Red_Triangle_Chess_4.jpg,left,721.2550000986084,true,low,false
ghvl54vZ,33cla8o0nlo9ukh858i8v1jgjoffrm,3vzlgyjeypn1jhse6ln9cvhdfz0xzg,ghvl54vZ,2020-0188,2020-05-08,09:44:35,10:00:53,NA,incomplete,41,shape,1,left,Purple_Plus_Grid_4.jpg,Red_Plus_Dots_2.jpg,Blue_Star_Grid_3.jpg,left,908.9300000341609,true,low,false
ghvl54vZ,33cla8o0nlo9ukh858i8v1jgjoffrm,3vzlgyjeypn1jhse6ln9cvhdfz0xzg,ghvl54vZ,2020-0188,2020-05-08,09:44:35,10:00:53,NA,incomplete,42,shape,0,right,Purple_Circle_Chess_3.jpg,Green_Plus_Chess_1.jpg,Blue_Circle_Grid_2.jpg,right,958.8999999687076,true,low,false
ghvl54vZ,33cla8o0nlo9ukh858i8v1jgjoffrm,3vzlgyjeypn1jhse6ln9cvhdfz0xzg,ghvl54vZ,2020-0188,2020-05-08,09:44:35,10:00:53,NA,incomplete,43,shape,0,left,Blue_Star_Chess_3.jpg,Purple_Star_Grid_1.jpg,Red_Circle_Chess_4.jpg,left,715.1000000303611,true,low,false
ghvl54vZ,33cla8o0nlo9ukh858i8v1jgjoffrm,3vzlgyjeypn1jhse6ln9cvhdfz0xzg,ghvl54vZ,2020-0188,2020-05-08,09:44:35,10:00:53,NA,incomplete,44,shape,1,left,Purple_Circle_Grid_4.jpg,Red_Circle_Chess_3.jpg,Green_Plus_Grid_1.jpg,left,1326.2650000397116,true,low,false
ghvl54vZ,33cla8o0nlo9ukh858i8v1jgjoffrm,3vzlgyjeypn1jhse6ln9cvhdfz0xzg,ghvl54vZ,2020-0188,2020-05-08,09:44:35,10:00:53,NA,incomplete,45,shape,1,right,Blue_Circle_Dots_1.jpg,Red_Plus_Dots_3.jpg,Green_Circle_Grid_2.jpg,right,677.7299999957904,true,low,false
ghvl54vZ,33cla8o0nlo9ukh858i8v1jgjoffrm,3vzlgyjeypn1jhse6ln9cvhdfz0xzg,ghvl54vZ,2020-0188,2020-05-08,09:44:35,10:00:53,NA,incomplete,46,shape,1,left,Purple_Circle_Grid_1.jpg,Blue_Circle_Chess_4.jpg,Red_Triangle_Grid_3.jpg,left,759.0199999976903,true,low,false
ghvl54vZ,33cla8o0nlo9ukh858i8v1jgjoffrm,3vzlgyjeypn1jhse6ln9cvhdfz0xzg,ghvl54vZ,2020-0188,2020-05-08,09:44:35,10:00:53,NA,incomplete,47,shape,1,left,Red_Triangle_Grid_4.jpg,Green_Triangle_Chess_2.jpg,Purple_Circle_Grid_3.jpg,left,729.3350000400096,true,low,false
ghvl54vZ,33cla8o0nlo9ukh858i8v1jgjoffrm,3vzlgyjeypn1jhse6ln9cvhdfz0xzg,ghvl54vZ,2020-0188,2020-05-08,09:44:35,10:00:53,NA,incomplete,48,shape,1,right,Red_Plus_Stripes_3.jpg,Green_Star_Stripes_2.jpg,Purple_Plus_Dots_4.jpg,right,649.3400000035763,true,low,false
ghvl54vZ,33cla8o0nlo9ukh858i8v1jgjoffrm,3vzlgyjeypn1jhse6ln9cvhdfz0xzg,ghvl54vZ,2020-0188,2020-05-08,09:44:35,10:00:53,NA,incomplete,49,shape,1,left,Green_Plus_Grid_1.jpg,Blue_Plus_Dots_2.jpg,Purple_Triangle_Grid_4.jpg,left,833.3199999760836,true,low,false
ghvl54vZ,33cla8o0nlo9ukh858i8v1jgjoffrm,3vzlgyjeypn1jhse6ln9cvhdfz0xzg,ghvl54vZ,2020-0188,2020-05-08,09:44:35,10:00:53,NA,incomplete,50,shape,1,left,Blue_Star_Chess_3.jpg,Red_Star_Grid_2.jpg,Green_Plus_Chess_4.jpg,left,1066.569999908097,true,low,false
ghvl54vZ,33cla8o0nlo9ukh858i8v1jgjoffrm,3vzlgyjeypn1jhse6ln9cvhdfz0xzg,ghvl54vZ,2020-0188,2020-05-08,09:44:35,10:00:53,NA,incomplete,51,shape,1,left,Purple_Triangle_Stripes_2.jpg,Green_Triangle_Grid_3.jpg,Red_Plus_Stripes_1.jpg,left,784.2650000238791,true,low,false
ghvl54vZ,33cla8o0nlo9ukh858i8v1jgjoffrm,3vzlgyjeypn1jhse6ln9cvhdfz0xzg,ghvl54vZ,2020-0188,2020-05-08,09:44:35,10:00:53,NA,incomplete,52,shape,1,left,Blue_Plus_Chess_1.jpg,Green_Plus_Stripes_2.jpg,Purple_Circle_Chess_4.jpg,left,663.0100000184029,true,low,false
ghvl54vZ,33cla8o0nlo9ukh858i8v1jgjoffrm,3vzlgyjeypn1jhse6ln9cvhdfz0xzg,ghvl54vZ,2020-0188,2020-05-08,09:44:35,10:00:53,NA,incomplete,53,shape,1,left,Purple_Circle_Grid_2.jpg,Green_Circle_Dots_1.jpg,Red_Triangle_Grid_3.jpg,left,775.6799999624491,true,low,false
ghvl54vZ,33cla8o0nlo9ukh858i8v1jgjoffrm,3vzlgyjeypn1jhse6ln9cvhdfz0xzg,ghvl54vZ,2020-0188,2020-05-08,09:44:35,10:00:53,NA,incomplete,54,shape,0,left,Red_Circle_Chess_4.jpg,Green_Circle_Stripes_3.jpg,Purple_Star_Chess_1.jpg,left,609.5000000204891,true,low,false
ghvl54vZ,33cla8o0nlo9ukh858i8v1jgjoffrm,3vzlgyjeypn1jhse6ln9cvhdfz0xzg,ghvl54vZ,2020-0188,2020-05-08,09:44:35,10:00:53,NA,incomplete,55,shape,1,left,Red_Plus_Stripes_2.jpg,Purple_Plus_Chess_4.jpg,Blue_Star_Stripes_1.jpg,left,670.3449999913573,true,low,false
ghvl54vZ,33cla8o0nlo9ukh858i8v1jgjoffrm,3vzlgyjeypn1jhse6ln9cvhdfz0xzg,ghvl54vZ,2020-0188,2020-05-08,09:44:35,10:00:53,NA,incomplete,56,shape,1,left,Blue_Star_Grid_2.jpg,Red_Star_Stripes_1.jpg,Purple_Triangle_Grid_4.jpg,left,875.9599999757484,true,low,false
ghvl54vZ,33cla8o0nlo9ukh858i8v1jgjoffrm,3vzlgyjeypn1jhse6ln9cvhdfz0xzg,ghvl54vZ,2020-0188,2020-05-08,09:44:35,10:00:53,NA,incomplete,57,shape,0,left,Purple_Triangle_Dots_2.jpg,Green_Triangle_Chess_4.jpg,Blue_Circle_Dots_1.jpg,left,729.7099999850616,true,low,false
ghvl54vZ,33cla8o0nlo9ukh858i8v1jgjoffrm,3vzlgyjeypn1jhse6ln9cvhdfz0xzg,ghvl54vZ,2020-0188,2020-05-08,09:44:35,10:00:53,NA,incomplete,58,shape,1,left,Green_Star_Chess_1.jpg,Purple_Star_Grid_3.jpg,Blue_Triangle_Chess_4.jpg,left,728.2549999654293,true,low,false
ghvl54vZ,33cla8o0nlo9ukh858i8v1jgjoffrm,3vzlgyjeypn1jhse6ln9cvhdfz0xzg,ghvl54vZ,2020-0188,2020-05-08,09:44:35,10:00:53,NA,incomplete,59,shape,1,left,Purple_Circle_Dots_2.jpg,Red_Circle_Stripes_4.jpg,Blue_Plus_Dots_3.jpg,left,621.335000032559,true,low,false
ghvl54vZ,33cla8o0nlo9ukh858i8v1jgjoffrm,3vzlgyjeypn1jhse6ln9cvhdfz0xzg,ghvl54vZ,2020-0188,2020-05-08,09:44:35,10:00:53,NA,incomplete,60,filling,0,left,Blue_Circle_Dots_3.jpg,Red_Triangle_Dots_4.jpg,Green_Circle_Grid_1.jpg,right,703.5000000614673,false,low,false
ghvl54vZ,33cla8o0nlo9ukh858i8v1jgjoffrm,3vzlgyjeypn1jhse6ln9cvhdfz0xzg,ghvl54vZ,2020-0188,2020-05-08,09:44:35,10:00:53,NA,incomplete,61,filling,1,right,Red_Circle_Grid_1.jpg,Blue_Circle_Chess_2.jpg,Green_Star_Grid_4.jpg,left,637.8999999724329,false,low,false
ghvl54vZ,33cla8o0nlo9ukh858i8v1jgjoffrm,3vzlgyjeypn1jhse6ln9cvhdfz0xzg,ghvl54vZ,2020-0188,2020-05-08,09:44:35,10:00:53,NA,incomplete,62,filling,1,right,Green_Plus_Chess_1.jpg,Blue_Plus_Grid_2.jpg,Purple_Circle_Chess_3.jpg,left,666.3849999895319,false,low,false
ghvl54vZ,33cla8o0nlo9ukh858i8v1jgjoffrm,3vzlgyjeypn1jhse6ln9cvhdfz0xzg,ghvl54vZ,2020-0188,2020-05-08,09:44:35,10:00:53,NA,incomplete,63,filling,0,right,Blue_Circle_Chess_1.jpg,Purple_Circle_Stripes_2.jpg,Green_Plus_Chess_4.jpg,left,700.0049999915063,false,low,false
ghvl54vZ,33cla8o0nlo9ukh858i8v1jgjoffrm,3vzlgyjeypn1jhse6ln9cvhdfz0xzg,ghvl54vZ,2020-0188,2020-05-08,09:44:35,10:00:53,NA,incomplete,64,filling,1,right,Green_Circle_Grid_3.jpg,Red_Circle_Dots_2.jpg,Blue_Plus_Grid_4.jpg,left,748.5100000631064,false,low,false
ghvl54vZ,33cla8o0nlo9ukh858i8v1jgjoffrm,3vzlgyjeypn1jhse6ln9cvhdfz0xzg,ghvl54vZ,2020-0188,2020-05-08,09:44:35,10:00:53,NA,incomplete,65,filling,1,left,Blue_Plus_Stripes_1.jpg,Purple_Circle_Stripes_2.jpg,Green_Plus_Grid_4.jpg,right,804.4600000139326,false,low,false
ghvl54vZ,33cla8o0nlo9ukh858i8v1jgjoffrm,3vzlgyjeypn1jhse6ln9cvhdfz0xzg,ghvl54vZ,2020-0188,2020-05-08,09:44:35,10:00:53,NA,incomplete,66,filling,1,right,Blue_Plus_Grid_3.jpg,Red_Plus_Stripes_2.jpg,Purple_Star_Grid_1.jpg,left,669.264999916777,false,low,false
ghvl54vZ,33cla8o0nlo9ukh858i8v1jgjoffrm,3vzlgyjeypn1jhse6ln9cvhdfz0xzg,ghvl54vZ,2020-0188,2020-05-08,09:44:35,10:00:53,NA,incomplete,67,filling,0,left,Purple_Circle_Dots_2.jpg,Green_Star_Dots_1.jpg,Red_Circle_Chess_4.jpg,left,1093.6600000131875,true,low,false
ghvl54vZ,33cla8o0nlo9ukh858i8v1jgjoffrm,3vzlgyjeypn1jhse6ln9cvhdfz0xzg,ghvl54vZ,2020-0188,2020-05-08,09:44:35,10:00:53,NA,incomplete,68,filling,0,left,Red_Triangle_Chess_4.jpg,Blue_Plus_Chess_1.jpg,Purple_Triangle_Grid_2.jpg,left,1108.8000000454485,true,low,false
ghvl54vZ,33cla8o0nlo9ukh858i8v1jgjoffrm,3vzlgyjeypn1jhse6ln9cvhdfz0xzg,ghvl54vZ,2020-0188,2020-05-08,09:44:35,10:00:53,NA,incomplete,69,filling,0,left,Blue_Star_Stripes_1.jpg,Green_Triangle_Stripes_3.jpg,Red_Star_Chess_4.jpg,right,818.7650000909343,false,low,false
ghvl54vZ,33cla8o0nlo9ukh858i8v1jgjoffrm,3vzlgyjeypn1jhse6ln9cvhdfz0xzg,ghvl54vZ,2020-0188,2020-05-08,09:44:35,10:00:53,NA,incomplete,70,filling,1,right,Blue_Plus_Stripes_3.jpg,Green_Plus_Dots_1.jpg,Purple_Star_Stripes_2.jpg,left,918.5299999080598,false,low,false
ghvl54vZ,33cla8o0nlo9ukh858i8v1jgjoffrm,3vzlgyjeypn1jhse6ln9cvhdfz0xzg,ghvl54vZ,2020-0188,2020-05-08,09:44:35,10:00:53,NA,incomplete,71,filling,1,right,Green_Triangle_Dots_2.jpg,Purple_Triangle_Stripes_1.jpg,Blue_Circle_Dots_3.jpg,left,1175.0100000062957,false,low,false
ghvl54vZ,33cla8o0nlo9ukh858i8v1jgjoffrm,3vzlgyjeypn1jhse6ln9cvhdfz0xzg,ghvl54vZ,2020-0188,2020-05-08,09:44:35,10:00:53,NA,incomplete,72,filling,1,left,Green_Triangle_Chess_3.jpg,Blue_Circle_Chess_1.jpg,Purple_Triangle_Dots_4.jpg,right,716.7550000594929,false,low,false
ghvl54vZ,33cla8o0nlo9ukh858i8v1jgjoffrm,3vzlgyjeypn1jhse6ln9cvhdfz0xzg,ghvl54vZ,2020-0188,2020-05-08,09:44:35,10:00:53,NA,incomplete,73,filling,0,right,Green_Star_Dots_2.jpg,Purple_Star_Grid_3.jpg,Red_Plus_Dots_1.jpg,right,1129.1650000493973,true,low,false
ghvl54vZ,33cla8o0nlo9ukh858i8v1jgjoffrm,3vzlgyjeypn1jhse6ln9cvhdfz0xzg,ghvl54vZ,2020-0188,2020-05-08,09:44:35,10:00:53,NA,incomplete,74,filling,1,left,Purple_Circle_Chess_2.jpg,Red_Star_Chess_4.jpg,Blue_Circle_Grid_1.jpg,left,1063.5749999200925,true,low,false
ghvl54vZ,33cla8o0nlo9ukh858i8v1jgjoffrm,3vzlgyjeypn1jhse6ln9cvhdfz0xzg,ghvl54vZ,2020-0188,2020-05-08,09:44:35,10:00:53,NA,incomplete,75,filling,1,right,Red_Circle_Chess_2.jpg,Blue_Circle_Grid_4.jpg,Purple_Plus_Chess_3.jpg,right,1018.625000026077,true,low,false
ghvl54vZ,33cla8o0nlo9ukh858i8v1jgjoffrm,3vzlgyjeypn1jhse6ln9cvhdfz0xzg,ghvl54vZ,2020-0188,2020-05-08,09:44:35,10:00:53,NA,incomplete,76,filling,1,left,Red_Plus_Dots_1.jpg,Purple_Circle_Dots_4.jpg,Blue_Plus_Grid_3.jpg,left,979.6850000275299,true,low,false
ghvl54vZ,33cla8o0nlo9ukh858i8v1jgjoffrm,3vzlgyjeypn1jhse6ln9cvhdfz0xzg,ghvl54vZ,2020-0188,2020-05-08,09:44:35,10:00:53,NA,incomplete,77,filling,1,left,Green_Circle_Grid_2.jpg,Purple_Star_Grid_3.jpg,Red_Circle_Dots_4.jpg,left,991.6199999861419,true,low,false
ghvl54vZ,33cla8o0nlo9ukh858i8v1jgjoffrm,3vzlgyjeypn1jhse6ln9cvhdfz0xzg,ghvl54vZ,2020-0188,2020-05-08,09:44:35,10:00:53,NA,incomplete,78,filling,1,right,Red_Circle_Grid_4.jpg,Green_Circle_Dots_1.jpg,Purple_Triangle_Grid_3.jpg,right,906.5049999626353,true,low,false
ghvl54vZ,33cla8o0nlo9ukh858i8v1jgjoffrm,3vzlgyjeypn1jhse6ln9cvhdfz0xzg,ghvl54vZ,2020-0188,2020-05-08,09:44:35,10:00:53,NA,incomplete,79,filling,1,right,Green_Plus_Grid_4.jpg,Blue_Plus_Chess_2.jpg,Purple_Star_Grid_1.jpg,right,989.1749999951571,true,low,false
ghvl54vZ,33cla8o0nlo9ukh858i8v1jgjoffrm,3vzlgyjeypn1jhse6ln9cvhdfz0xzg,ghvl54vZ,2020-0188,2020-05-08,09:44:35,10:00:53,NA,incomplete,80,filling,1,right,Green_Star_Grid_2.jpg,Blue_Star_Chess_1.jpg,Red_Plus_Grid_3.jpg,right,908.8899999624118,true,low,false
ghvl54vZ,33cla8o0nlo9ukh858i8v1jgjoffrm,3vzlgyjeypn1jhse6ln9cvhdfz0xzg,ghvl54vZ,2020-0188,2020-05-08,09:44:35,10:00:53,NA,incomplete,81,filling,1,left,Blue_Star_Dots_3.jpg,Green_Triangle_Dots_1.jpg,Purple_Star_Stripes_2.jpg,left,904.4899999862537,true,low,false
ghvl54vZ,33cla8o0nlo9ukh858i8v1jgjoffrm,3vzlgyjeypn1jhse6ln9cvhdfz0xzg,ghvl54vZ,2020-0188,2020-05-08,09:44:35,10:00:53,NA,incomplete,82,filling,1,right,Blue_Circle_Stripes_1.jpg,Purple_Circle_Grid_4.jpg,Green_Triangle_Stripes_2.jpg,right,933.6050000274554,true,low,false
ghvl54vZ,33cla8o0nlo9ukh858i8v1jgjoffrm,3vzlgyjeypn1jhse6ln9cvhdfz0xzg,ghvl54vZ,2020-0188,2020-05-08,09:44:35,10:00:53,NA,incomplete,83,filling,0,left,Red_Star_Chess_3.jpg,Purple_Circle_Chess_2.jpg,Blue_Star_Grid_1.jpg,left,1004.5699999900535,true,low,false
ghvl54vZ,33cla8o0nlo9ukh858i8v1jgjoffrm,3vzlgyjeypn1jhse6ln9cvhdfz0xzg,ghvl54vZ,2020-0188,2020-05-08,09:44:35,10:00:53,NA,incomplete,84,filling,0,left,Red_Triangle_Grid_4.jpg,Purple_Plus_Grid_1.jpg,Green_Triangle_Stripes_2.jpg,left,888.8049999950454,true,low,false
ghvl54vZ,33cla8o0nlo9ukh858i8v1jgjoffrm,3vzlgyjeypn1jhse6ln9cvhdfz0xzg,ghvl54vZ,2020-0188,2020-05-08,09:44:35,10:00:53,NA,incomplete,85,filling,1,left,Blue_Star_Stripes_2.jpg,Red_Triangle_Stripes_3.jpg,Purple_Star_Chess_4.jpg,left,1021.3699999731034,true,low,false
ghvl54vZ,33cla8o0nlo9ukh858i8v1jgjoffrm,3vzlgyjeypn1jhse6ln9cvhdfz0xzg,ghvl54vZ,2020-0188,2020-05-08,09:44:35,10:00:53,NA,incomplete,86,filling,1,left,Red_Triangle_Grid_1.jpg,Green_Plus_Grid_2.jpg,Blue_Triangle_Dots_3.jpg,left,1128.1650000019,true,low,false
ghvl54vZ,33cla8o0nlo9ukh858i8v1jgjoffrm,3vzlgyjeypn1jhse6ln9cvhdfz0xzg,ghvl54vZ,2020-0188,2020-05-08,09:44:35,10:00:53,NA,incomplete,87,filling,1,right,Green_Plus_Grid_4.jpg,Purple_Plus_Stripes_1.jpg,Blue_Star_Grid_2.jpg,left,1087.9200000781566,false,low,false
ghvl54vZ,33cla8o0nlo9ukh858i8v1jgjoffrm,3vzlgyjeypn1jhse6ln9cvhdfz0xzg,ghvl54vZ,2020-0188,2020-05-08,09:44:35,10:00:53,NA,incomplete,88,filling,1,left,Purple_Plus_Stripes_4.jpg,Blue_Triangle_Stripes_3.jpg,Red_Plus_Dots_2.jpg,left,959.0249999891967,true,low,false
ghvl54vZ,33cla8o0nlo9ukh858i8v1jgjoffrm,3vzlgyjeypn1jhse6ln9cvhdfz0xzg,ghvl54vZ,2020-0188,2020-05-08,09:44:35,10:00:53,NA,incomplete,89,filling,1,right,Purple_Circle_Dots_1.jpg,Blue_Circle_Chess_3.jpg,Green_Triangle_Dots_2.jpg,right,742.4299999838695,true,low,false
ghvl54vZ,33cla8o0nlo9ukh858i8v1jgjoffrm,3vzlgyjeypn1jhse6ln9cvhdfz0xzg,ghvl54vZ,2020-0188,2020-05-08,09:44:35,10:00:53,NA,incomplete,90,shape,0,right,Blue_Triangle_Chess_4.jpg,Red_Star_Chess_3.jpg,Green_Triangle_Dots_1.jpg,left,870.9899999666959,false,low,false
ghvl54vZ,33cla8o0nlo9ukh858i8v1jgjoffrm,3vzlgyjeypn1jhse6ln9cvhdfz0xzg,ghvl54vZ,2020-0188,2020-05-08,09:44:35,10:00:53,NA,incomplete,91,shape,1,right,Red_Circle_Dots_2.jpg,Blue_Triangle_Dots_4.jpg,Purple_Circle_Chess_1.jpg,left,842.1899999957532,false,low,false
ghvl54vZ,33cla8o0nlo9ukh858i8v1jgjoffrm,3vzlgyjeypn1jhse6ln9cvhdfz0xzg,ghvl54vZ,2020-0188,2020-05-08,09:44:35,10:00:53,NA,incomplete,92,shape,0,right,Red_Triangle_Grid_4.jpg,Blue_Plus_Grid_3.jpg,Purple_Triangle_Stripes_1.jpg,left,1117.0899999560788,false,low,false
ghvl54vZ,33cla8o0nlo9ukh858i8v1jgjoffrm,3vzlgyjeypn1jhse6ln9cvhdfz0xzg,ghvl54vZ,2020-0188,2020-05-08,09:44:35,10:00:53,NA,incomplete,93,shape,1,left,Purple_Plus_Grid_4.jpg,Green_Plus_Stripes_1.jpg,Red_Star_Grid_2.jpg,left,978.7500000093132,true,low,false
ghvl54vZ,33cla8o0nlo9ukh858i8v1jgjoffrm,3vzlgyjeypn1jhse6ln9cvhdfz0xzg,ghvl54vZ,2020-0188,2020-05-08,09:44:35,10:00:53,NA,incomplete,94,shape,1,left,Purple_Circle_Chess_4.jpg,Green_Circle_Dots_3.jpg,Red_Triangle_Chess_1.jpg,right,862.9749999381602,false,low,false
ghvl54vZ,33cla8o0nlo9ukh858i8v1jgjoffrm,3vzlgyjeypn1jhse6ln9cvhdfz0xzg,ghvl54vZ,2020-0188,2020-05-08,09:44:35,10:00:53,NA,incomplete,95,shape,1,left,Red_Star_Stripes_1.jpg,Blue_Star_Chess_4.jpg,Purple_Plus_Stripes_2.jpg,left,900.6599999265745,true,low,false
ghvl54vZ,33cla8o0nlo9ukh858i8v1jgjoffrm,3vzlgyjeypn1jhse6ln9cvhdfz0xzg,ghvl54vZ,2020-0188,2020-05-08,09:44:35,10:00:53,NA,incomplete,96,shape,1,right,Red_Circle_Grid_1.jpg,Blue_Star_Grid_3.jpg,Green_Circle_Dots_2.jpg,right,859.1099999612197,true,low,false
ghvl54vZ,33cla8o0nlo9ukh858i8v1jgjoffrm,3vzlgyjeypn1jhse6ln9cvhdfz0xzg,ghvl54vZ,2020-0188,2020-05-08,09:44:35,10:00:53,NA,incomplete,97,shape,1,left,Blue_Circle_Stripes_3.jpg,Green_Circle_Chess_4.jpg,Red_Triangle_Stripes_1.jpg,left,750.6900000153109,true,low,false
ghvl54vZ,33cla8o0nlo9ukh858i8v1jgjoffrm,3vzlgyjeypn1jhse6ln9cvhdfz0xzg,ghvl54vZ,2020-0188,2020-05-08,09:44:35,10:00:53,NA,incomplete,98,shape,1,right,Red_Star_Chess_4.jpg,Blue_Triangle_Chess_1.jpg,Green_Star_Stripes_3.jpg,right,792.8499999688938,true,low,false
ghvl54vZ,33cla8o0nlo9ukh858i8v1jgjoffrm,3vzlgyjeypn1jhse6ln9cvhdfz0xzg,ghvl54vZ,2020-0188,2020-05-08,09:44:35,10:00:53,NA,incomplete,99,shape,1,left,Red_Star_Dots_2.jpg,Blue_Star_Stripes_1.jpg,Green_Plus_Dots_3.jpg,left,970.1500000664964,true,low,false
ghvl54vZ,33cla8o0nlo9ukh858i8v1jgjoffrm,3vzlgyjeypn1jhse6ln9cvhdfz0xzg,ghvl54vZ,2020-0188,2020-05-08,09:44:35,10:00:53,NA,incomplete,100,shape,1,left,Blue_Star_Stripes_1.jpg,Green_Star_Dots_3.jpg,Red_Plus_Stripes_2.jpg,left,676.0350000113249,true,low,false
ghvl54vZ,33cla8o0nlo9ukh858i8v1jgjoffrm,3vzlgyjeypn1jhse6ln9cvhdfz0xzg,ghvl54vZ,2020-0188,2020-05-08,09:44:35,10:00:53,NA,incomplete,101,shape,1,left,Blue_Plus_Chess_1.jpg,Purple_Plus_Dots_4.jpg,Red_Triangle_Chess_3.jpg,left,704.0699999779463,true,low,false
ghvl54vZ,33cla8o0nlo9ukh858i8v1jgjoffrm,3vzlgyjeypn1jhse6ln9cvhdfz0xzg,ghvl54vZ,2020-0188,2020-05-08,09:44:35,10:00:53,NA,incomplete,102,shape,1,right,Purple_Star_Chess_1.jpg,Red_Circle_Chess_3.jpg,Green_Star_Dots_4.jpg,right,709.3400000594556,true,low,false
ghvl54vZ,33cla8o0nlo9ukh858i8v1jgjoffrm,3vzlgyjeypn1jhse6ln9cvhdfz0xzg,ghvl54vZ,2020-0188,2020-05-08,09:44:35,10:00:53,NA,incomplete,103,shape,0,left,Blue_Triangle_Stripes_3.jpg,Red_Triangle_Grid_1.jpg,Purple_Circle_Stripes_4.jpg,left,754.674999974668,true,low,false
ghvl54vZ,33cla8o0nlo9ukh858i8v1jgjoffrm,3vzlgyjeypn1jhse6ln9cvhdfz0xzg,ghvl54vZ,2020-0188,2020-05-08,09:44:35,10:00:53,NA,incomplete,104,shape,1,right,Red_Triangle_Dots_3.jpg,Purple_Star_Dots_4.jpg,Blue_Triangle_Grid_2.jpg,right,929.9050000263378,true,low,false
ghvl54vZ,33cla8o0nlo9ukh858i8v1jgjoffrm,3vzlgyjeypn1jhse6ln9cvhdfz0xzg,ghvl54vZ,2020-0188,2020-05-08,09:44:35,10:00:53,NA,incomplete,105,shape,1,left,Red_Circle_Grid_1.jpg,Blue_Circle_Stripes_3.jpg,Purple_Star_Grid_2.jpg,left,752.4599999887869,true,low,false
ghvl54vZ,33cla8o0nlo9ukh858i8v1jgjoffrm,3vzlgyjeypn1jhse6ln9cvhdfz0xzg,ghvl54vZ,2020-0188,2020-05-08,09:44:35,10:00:53,NA,incomplete,106,shape,1,right,Purple_Circle_Stripes_3.jpg,Red_Star_Stripes_2.jpg,Blue_Circle_Grid_1.jpg,right,613.054999965243,true,low,false
ghvl54vZ,33cla8o0nlo9ukh858i8v1jgjoffrm,3vzlgyjeypn1jhse6ln9cvhdfz0xzg,ghvl54vZ,2020-0188,2020-05-08,09:44:35,10:00:53,NA,incomplete,107,shape,0,left,Purple_Circle_Chess_3.jpg,Red_Circle_Stripes_1.jpg,Green_Plus_Chess_4.jpg,left,614.7500000661239,true,low,false
ghvl54vZ,33cla8o0nlo9ukh858i8v1jgjoffrm,3vzlgyjeypn1jhse6ln9cvhdfz0xzg,ghvl54vZ,2020-0188,2020-05-08,09:44:35,10:00:53,NA,incomplete,108,shape,1,left,Blue_Circle_Dots_3.jpg,Red_Circle_Chess_1.jpg,Purple_Triangle_Dots_2.jpg,left,646.3000000221655,true,low,false
ghvl54vZ,33cla8o0nlo9ukh858i8v1jgjoffrm,3vzlgyjeypn1jhse6ln9cvhdfz0xzg,ghvl54vZ,2020-0188,2020-05-08,09:44:35,10:00:53,NA,incomplete,109,shape,1,left,Purple_Star_Dots_2.jpg,Green_Star_Stripes_1.jpg,Red_Circle_Dots_4.jpg,left,779.575000051409,true,low,false
ghvl54vZ,33cla8o0nlo9ukh858i8v1jgjoffrm,3vzlgyjeypn1jhse6ln9cvhdfz0xzg,ghvl54vZ,2020-0188,2020-05-08,09:44:35,10:00:53,NA,incomplete,110,shape,0,right,Green_Triangle_Chess_3.jpg,Blue_Plus_Chess_2.jpg,Purple_Triangle_Dots_1.jpg,right,742.3000000417233,true,low,false
ghvl54vZ,33cla8o0nlo9ukh858i8v1jgjoffrm,3vzlgyjeypn1jhse6ln9cvhdfz0xzg,ghvl54vZ,2020-0188,2020-05-08,09:44:35,10:00:53,NA,incomplete,111,shape,0,right,Blue_Star_Chess_4.jpg,Red_Triangle_Chess_1.jpg,Purple_Star_Stripes_3.jpg,right,671.1249999934807,true,low,false
ghvl54vZ,33cla8o0nlo9ukh858i8v1jgjoffrm,3vzlgyjeypn1jhse6ln9cvhdfz0xzg,ghvl54vZ,2020-0188,2020-05-08,09:44:35,10:00:53,NA,incomplete,112,shape,1,right,Green_Triangle_Stripes_1.jpg,Blue_Star_Stripes_4.jpg,Purple_Triangle_Grid_2.jpg,right,804.619999951683,true,low,false
ghvl54vZ,33cla8o0nlo9ukh858i8v1jgjoffrm,3vzlgyjeypn1jhse6ln9cvhdfz0xzg,ghvl54vZ,2020-0188,2020-05-08,09:44:35,10:00:53,NA,incomplete,113,shape,0,right,Green_Circle_Grid_4.jpg,Blue_Star_Grid_2.jpg,Red_Circle_Chess_3.jpg,right,667.4299999140203,true,low,false
ghvl54vZ,33cla8o0nlo9ukh858i8v1jgjoffrm,3vzlgyjeypn1jhse6ln9cvhdfz0xzg,ghvl54vZ,2020-0188,2020-05-08,09:44:35,10:00:53,NA,incomplete,114,shape,1,left,Red_Star_Dots_1.jpg,Blue_Star_Grid_4.jpg,Green_Circle_Dots_3.jpg,left,679.7250000527129,true,low,false
ghvl54vZ,33cla8o0nlo9ukh858i8v1jgjoffrm,3vzlgyjeypn1jhse6ln9cvhdfz0xzg,ghvl54vZ,2020-0188,2020-05-08,09:44:35,10:00:53,NA,incomplete,115,shape,1,left,Blue_Plus_Chess_2.jpg,Purple_Plus_Grid_1.jpg,Red_Star_Chess_4.jpg,left,651.5650000656024,true,low,false
ghvl54vZ,33cla8o0nlo9ukh858i8v1jgjoffrm,3vzlgyjeypn1jhse6ln9cvhdfz0xzg,ghvl54vZ,2020-0188,2020-05-08,09:44:35,10:00:53,NA,incomplete,116,shape,1,left,Red_Star_Stripes_3.jpg,Blue_Star_Grid_1.jpg,Purple_Plus_Stripes_4.jpg,left,883.3449999801815,true,low,false
ghvl54vZ,33cla8o0nlo9ukh858i8v1jgjoffrm,3vzlgyjeypn1jhse6ln9cvhdfz0xzg,ghvl54vZ,2020-0188,2020-05-08,09:44:35,10:00:53,NA,incomplete,117,shape,1,left,Purple_Star_Stripes_4.jpg,Blue_Star_Dots_1.jpg,Red_Triangle_Stripes_3.jpg,left,687.4899999238551,true,low,false
ghvl54vZ,33cla8o0nlo9ukh858i8v1jgjoffrm,3vzlgyjeypn1jhse6ln9cvhdfz0xzg,ghvl54vZ,2020-0188,2020-05-08,09:44:35,10:00:53,NA,incomplete,118,shape,1,right,Green_Triangle_Chess_1.jpg,Blue_Star_Chess_3.jpg,Red_Triangle_Grid_2.jpg,right,604.9650000641122,true,low,false
ghvl54vZ,33cla8o0nlo9ukh858i8v1jgjoffrm,3vzlgyjeypn1jhse6ln9cvhdfz0xzg,ghvl54vZ,2020-0188,2020-05-08,09:44:35,10:00:53,NA,incomplete,119,shape,1,right,Red_Plus_Chess_4.jpg,Green_Circle_Chess_3.jpg,Blue_Plus_Grid_1.jpg,right,764.1150000272319,true,low,false
ghvl54vZ,33cla8o0nlo9ukh858i8v1jgjoffrm,3vzlgyjeypn1jhse6ln9cvhdfz0xzg,ghvl54vZ,2020-0188,2020-05-08,09:44:35,10:00:53,NA,incomplete,120,filling,1,left,Green_Triangle_Dots_3.jpg,Red_Star_Dots_2.jpg,Purple_Triangle_Grid_1.jpg,right,883.1399999326095,false,low,false
ghvl54vZ,33cla8o0nlo9ukh858i8v1jgjoffrm,3vzlgyjeypn1jhse6ln9cvhdfz0xzg,ghvl54vZ,2020-0188,2020-05-08,09:44:35,10:00:53,NA,incomplete,121,filling,0,left,Red_Plus_Dots_2.jpg,Blue_Triangle_Dots_1.jpg,Green_Plus_Stripes_3.jpg,right,782.0000000065193,false,low,false
ghvl54vZ,33cla8o0nlo9ukh858i8v1jgjoffrm,3vzlgyjeypn1jhse6ln9cvhdfz0xzg,ghvl54vZ,2020-0188,2020-05-08,09:44:35,10:00:53,NA,incomplete,122,filling,1,right,Red_Plus_Stripes_1.jpg,Purple_Plus_Chess_4.jpg,Blue_Star_Stripes_2.jpg,left,654.3400000082329,false,low,false
ghvl54vZ,33cla8o0nlo9ukh858i8v1jgjoffrm,3vzlgyjeypn1jhse6ln9cvhdfz0xzg,ghvl54vZ,2020-0188,2020-05-08,09:44:35,10:00:53,NA,incomplete,123,filling,1,left,Red_Circle_Grid_3.jpg,Blue_Star_Grid_4.jpg,Purple_Circle_Stripes_1.jpg,right,593.7099999282509,false,low,false
ghvl54vZ,33cla8o0nlo9ukh858i8v1jgjoffrm,3vzlgyjeypn1jhse6ln9cvhdfz0xzg,ghvl54vZ,2020-0188,2020-05-08,09:44:35,10:00:53,NA,incomplete,124,filling,1,left,Green_Circle_Chess_2.jpg,Purple_Star_Chess_4.jpg,Red_Circle_Grid_1.jpg,right,585.2949999971315,false,low,false
ghvl54vZ,33cla8o0nlo9ukh858i8v1jgjoffrm,3vzlgyjeypn1jhse6ln9cvhdfz0xzg,ghvl54vZ,2020-0188,2020-05-08,09:44:35,10:00:53,NA,incomplete,125,filling,0,right,Purple_Circle_Chess_1.jpg,Red_Circle_Grid_2.jpg,Green_Triangle_Chess_3.jpg,right,937.7800000365824,true,low,false
ghvl54vZ,33cla8o0nlo9ukh858i8v1jgjoffrm,3vzlgyjeypn1jhse6ln9cvhdfz0xzg,ghvl54vZ,2020-0188,2020-05-08,09:44:35,10:00:53,NA,incomplete,126,filling,1,left,Green_Plus_Chess_1.jpg,Red_Triangle_Chess_2.jpg,Blue_Plus_Grid_4.jpg,left,976.2449999107048,true,low,false
ghvl54vZ,33cla8o0nlo9ukh858i8v1jgjoffrm,3vzlgyjeypn1jhse6ln9cvhdfz0xzg,ghvl54vZ,2020-0188,2020-05-08,09:44:35,10:00:53,NA,incomplete,127,filling,0,right,Red_Triangle_Stripes_4.jpg,Blue_Triangle_Grid_2.jpg,Purple_Star_Stripes_1.jpg,right,1076.0950000258163,true,low,false
ghvl54vZ,33cla8o0nlo9ukh858i8v1jgjoffrm,3vzlgyjeypn1jhse6ln9cvhdfz0xzg,ghvl54vZ,2020-0188,2020-05-08,09:44:35,10:00:53,NA,incomplete,128,filling,1,left,Red_Circle_Grid_1.jpg,Green_Plus_Grid_4.jpg,Purple_Circle_Stripes_2.jpg,left,893.2849999982864,true,low,false
ghvl54vZ,33cla8o0nlo9ukh858i8v1jgjoffrm,3vzlgyjeypn1jhse6ln9cvhdfz0xzg,ghvl54vZ,2020-0188,2020-05-08,09:44:35,10:00:53,NA,incomplete,129,filling,0,right,Purple_Star_Stripes_2.jpg,Green_Star_Dots_3.jpg,Red_Plus_Stripes_1.jpg,right,1074.7850000625476,true,low,false
ghvl54vZ,33cla8o0nlo9ukh858i8v1jgjoffrm,3vzlgyjeypn1jhse6ln9cvhdfz0xzg,ghvl54vZ,2020-0188,2020-05-08,09:44:35,10:00:53,NA,incomplete,130,filling,1,right,Blue_Plus_Grid_4.jpg,Purple_Plus_Stripes_3.jpg,Green_Star_Grid_2.jpg,right,949.0849999710917,true,low,false
ghvl54vZ,33cla8o0nlo9ukh858i8v1jgjoffrm,3vzlgyjeypn1jhse6ln9cvhdfz0xzg,ghvl54vZ,2020-0188,2020-05-08,09:44:35,10:00:53,NA,incomplete,131,filling,1,left,Green_Star_Grid_4.jpg,Red_Triangle_Grid_1.jpg,Blue_Star_Stripes_3.jpg,left,1166.8550000758842,true,low,false
ghvl54vZ,33cla8o0nlo9ukh858i8v1jgjoffrm,3vzlgyjeypn1jhse6ln9cvhdfz0xzg,ghvl54vZ,2020-0188,2020-05-08,09:44:35,10:00:53,NA,incomplete,132,filling,1,left,Blue_Star_Chess_3.jpg,Purple_Plus_Chess_1.jpg,Green_Star_Dots_4.jpg,left,1134.1999999713153,true,low,false
ghvl54vZ,33cla8o0nlo9ukh858i8v1jgjoffrm,3vzlgyjeypn1jhse6ln9cvhdfz0xzg,ghvl54vZ,2020-0188,2020-05-08,09:44:35,10:00:53,NA,incomplete,133,filling,1,left,Blue_Plus_Chess_4.jpg,Red_Star_Chess_2.jpg,Purple_Plus_Grid_1.jpg,left,933.4650000091642,true,low,false
ghvl54vZ,33cla8o0nlo9ukh858i8v1jgjoffrm,3vzlgyjeypn1jhse6ln9cvhdfz0xzg,ghvl54vZ,2020-0188,2020-05-08,09:44:35,10:00:53,NA,incomplete,134,filling,0,left,Red_Circle_Chess_1.jpg,Green_Plus_Chess_3.jpg,Purple_Circle_Grid_2.jpg,left,895.299999974668,true,low,false
ghvl54vZ,33cla8o0nlo9ukh858i8v1jgjoffrm,3vzlgyjeypn1jhse6ln9cvhdfz0xzg,ghvl54vZ,2020-0188,2020-05-08,09:44:35,10:00:53,NA,incomplete,135,filling,1,right,Red_Plus_Stripes_2.jpg,Green_Plus_Chess_3.jpg,Blue_Circle_Stripes_1.jpg,right,846.1649999953806,true,low,false
ghvl54vZ,33cla8o0nlo9ukh858i8v1jgjoffrm,3vzlgyjeypn1jhse6ln9cvhdfz0xzg,ghvl54vZ,2020-0188,2020-05-08,09:44:35,10:00:53,NA,incomplete,136,filling,1,right,Purple_Star_Chess_2.jpg,Blue_Star_Dots_1.jpg,Green_Plus_Chess_3.jpg,right,1104.5450000092387,true,low,false
ghvl54vZ,33cla8o0nlo9ukh858i8v1jgjoffrm,3vzlgyjeypn1jhse6ln9cvhdfz0xzg,ghvl54vZ,2020-0188,2020-05-08,09:44:35,10:00:53,NA,incomplete,137,filling,1,left,Green_Plus_Chess_4.jpg,Purple_Circle_Chess_1.jpg,Blue_Plus_Grid_2.jpg,left,892.7400000393391,true,low,false
ghvl54vZ,33cla8o0nlo9ukh858i8v1jgjoffrm,3vzlgyjeypn1jhse6ln9cvhdfz0xzg,ghvl54vZ,2020-0188,2020-05-08,09:44:35,10:00:53,NA,incomplete,138,filling,1,right,Blue_Triangle_Grid_3.jpg,Red_Triangle_Dots_2.jpg,Purple_Plus_Grid_1.jpg,right,884.6549999434501,true,low,false
ghvl54vZ,33cla8o0nlo9ukh858i8v1jgjoffrm,3vzlgyjeypn1jhse6ln9cvhdfz0xzg,ghvl54vZ,2020-0188,2020-05-08,09:44:35,10:00:53,NA,incomplete,139,filling,1,left,Red_Plus_Dots_3.jpg,Green_Triangle_Dots_2.jpg,Purple_Plus_Chess_4.jpg,left,810.3399999672547,true,low,false
ghvl54vZ,33cla8o0nlo9ukh858i8v1jgjoffrm,3vzlgyjeypn1jhse6ln9cvhdfz0xzg,ghvl54vZ,2020-0188,2020-05-08,09:44:35,10:00:53,NA,incomplete,140,shape,1,right,Blue_Plus_Dots_1.jpg,Red_Triangle_Dots_2.jpg,Purple_Plus_Stripes_4.jpg,left,711.3399999216199,false,low,false
ghvl54vZ,33cla8o0nlo9ukh858i8v1jgjoffrm,3vzlgyjeypn1jhse6ln9cvhdfz0xzg,ghvl54vZ,2020-0188,2020-05-08,09:44:35,10:00:53,NA,incomplete,141,shape,1,right,Blue_Star_Grid_3.jpg,Red_Plus_Grid_1.jpg,Purple_Star_Stripes_2.jpg,left,1121.610000031069,false,low,false
ghvl54vZ,33cla8o0nlo9ukh858i8v1jgjoffrm,3vzlgyjeypn1jhse6ln9cvhdfz0xzg,ghvl54vZ,2020-0188,2020-05-08,09:44:35,10:00:53,NA,incomplete,142,shape,1,right,Purple_Circle_Chess_3.jpg,Blue_Plus_Chess_4.jpg,Green_Circle_Grid_1.jpg,left,1077.445000060834,false,low,false
ghvl54vZ,33cla8o0nlo9ukh858i8v1jgjoffrm,3vzlgyjeypn1jhse6ln9cvhdfz0xzg,ghvl54vZ,2020-0188,2020-05-08,09:44:35,10:00:53,NA,incomplete,143,shape,1,right,Purple_Circle_Grid_4.jpg,Red_Plus_Grid_1.jpg,Blue_Circle_Dots_3.jpg,right,691.7099999263883,true,low,false
ghvl54vZ,33cla8o0nlo9ukh858i8v1jgjoffrm,3vzlgyjeypn1jhse6ln9cvhdfz0xzg,ghvl54vZ,2020-0188,2020-05-08,09:44:35,10:00:53,NA,incomplete,144,shape,1,right,Red_Triangle_Dots_3.jpg,Blue_Circle_Dots_4.jpg,Purple_Triangle_Stripes_2.jpg,right,645.9449999965727,true,low,false
ghvl54vZ,33cla8o0nlo9ukh858i8v1jgjoffrm,3vzlgyjeypn1jhse6ln9cvhdfz0xzg,ghvl54vZ,2020-0188,2020-05-08,09:44:35,10:00:53,NA,incomplete,145,shape,1,left,Blue_Plus_Dots_3.jpg,Red_Plus_Stripes_4.jpg,Purple_Star_Dots_2.jpg,left,909.0700000524521,true,low,false
ghvl54vZ,33cla8o0nlo9ukh858i8v1jgjoffrm,3vzlgyjeypn1jhse6ln9cvhdfz0xzg,ghvl54vZ,2020-0188,2020-05-08,09:44:35,10:00:53,NA,incomplete,146,shape,0,right,Blue_Plus_Chess_3.jpg,Purple_Circle_Chess_4.jpg,Green_Plus_Stripes_2.jpg,right,761.9499999564141,true,low,false
ghvl54vZ,33cla8o0nlo9ukh858i8v1jgjoffrm,3vzlgyjeypn1jhse6ln9cvhdfz0xzg,ghvl54vZ,2020-0188,2020-05-08,09:44:35,10:00:53,NA,incomplete,147,shape,1,left,Blue_Circle_Dots_4.jpg,Green_Circle_Grid_1.jpg,Purple_Triangle_Dots_3.jpg,left,721.8400000128895,true,low,false
ghvl54vZ,33cla8o0nlo9ukh858i8v1jgjoffrm,3vzlgyjeypn1jhse6ln9cvhdfz0xzg,ghvl54vZ,2020-0188,2020-05-08,09:44:35,10:00:53,NA,incomplete,148,shape,1,right,Purple_Plus_Grid_4.jpg,Red_Star_Grid_1.jpg,Green_Plus_Chess_2.jpg,right,560.8200000133365,true,low,false
ghvl54vZ,33cla8o0nlo9ukh858i8v1jgjoffrm,3vzlgyjeypn1jhse6ln9cvhdfz0xzg,ghvl54vZ,2020-0188,2020-05-08,09:44:35,10:00:53,NA,incomplete,149,shape,0,left,Green_Star_Grid_1.jpg,Purple_Star_Stripes_2.jpg,Red_Plus_Grid_4.jpg,left,629.5000000391155,true,low,false
ghvl54vZ,33cla8o0nlo9ukh858i8v1jgjoffrm,3vzlgyjeypn1jhse6ln9cvhdfz0xzg,ghvl54vZ,2020-0188,2020-05-08,09:44:35,10:00:53,NA,incomplete,150,shape,1,left,Green_Star_Stripes_3.jpg,Blue_Star_Chess_2.jpg,Purple_Triangle_Stripes_1.jpg,left,618.7200000276789,true,low,false
ghvl54vZ,33cla8o0nlo9ukh858i8v1jgjoffrm,3vzlgyjeypn1jhse6ln9cvhdfz0xzg,ghvl54vZ,2020-0188,2020-05-08,09:44:35,10:00:53,NA,incomplete,151,shape,1,right,Green_Plus_Dots_3.jpg,Purple_Circle_Dots_2.jpg,Red_Plus_Grid_1.jpg,right,516.8850000482053,true,low,false
ghvl54vZ,33cla8o0nlo9ukh858i8v1jgjoffrm,3vzlgyjeypn1jhse6ln9cvhdfz0xzg,ghvl54vZ,2020-0188,2020-05-08,09:44:35,10:00:53,NA,incomplete,152,shape,0,left,Green_Triangle_Grid_3.jpg,Blue_Triangle_Dots_2.jpg,Purple_Star_Grid_4.jpg,left,655.0900000147521,true,low,false
ghvl54vZ,33cla8o0nlo9ukh858i8v1jgjoffrm,3vzlgyjeypn1jhse6ln9cvhdfz0xzg,ghvl54vZ,2020-0188,2020-05-08,09:44:35,10:00:53,NA,incomplete,153,shape,1,left,Blue_Triangle_Stripes_2.jpg,Red_Triangle_Dots_4.jpg,Green_Plus_Stripes_1.jpg,left,546.2650000117719,true,low,false
ghvl54vZ,33cla8o0nlo9ukh858i8v1jgjoffrm,3vzlgyjeypn1jhse6ln9cvhdfz0xzg,ghvl54vZ,2020-0188,2020-05-08,09:44:35,10:00:53,NA,incomplete,154,shape,1,right,Purple_Triangle_Grid_4.jpg,Red_Star_Grid_1.jpg,Green_Triangle_Stripes_3.jpg,right,634.8649999126792,true,low,false
ghvl54vZ,33cla8o0nlo9ukh858i8v1jgjoffrm,3vzlgyjeypn1jhse6ln9cvhdfz0xzg,ghvl54vZ,2020-0188,2020-05-08,09:44:35,10:00:53,NA,incomplete,155,shape,1,right,Green_Star_Grid_3.jpg,Red_Circle_Grid_2.jpg,Purple_Star_Dots_4.jpg,right,752.005000016652,true,low,false
ghvl54vZ,33cla8o0nlo9ukh858i8v1jgjoffrm,3vzlgyjeypn1jhse6ln9cvhdfz0xzg,ghvl54vZ,2020-0188,2020-05-08,09:44:35,10:00:53,NA,incomplete,156,shape,1,left,Purple_Plus_Chess_1.jpg,Red_Plus_Grid_2.jpg,Green_Circle_Chess_4.jpg,left,600.2899999730289,true,low,false
ghvl54vZ,33cla8o0nlo9ukh858i8v1jgjoffrm,3vzlgyjeypn1jhse6ln9cvhdfz0xzg,ghvl54vZ,2020-0188,2020-05-08,09:44:35,10:00:53,NA,incomplete,157,shape,1,left,Red_Plus_Grid_4.jpg,Purple_Plus_Chess_3.jpg,Blue_Triangle_Grid_2.jpg,left,517.4650000408292,true,low,false
ghvl54vZ,33cla8o0nlo9ukh858i8v1jgjoffrm,3vzlgyjeypn1jhse6ln9cvhdfz0xzg,ghvl54vZ,2020-0188,2020-05-08,09:44:35,10:00:53,NA,incomplete,158,shape,0,right,Green_Circle_Chess_3.jpg,Red_Plus_Chess_1.jpg,Purple_Circle_Dots_2.jpg,right,610.6400000862777,true,low,false
ghvl54vZ,33cla8o0nlo9ukh858i8v1jgjoffrm,3vzlgyjeypn1jhse6ln9cvhdfz0xzg,ghvl54vZ,2020-0188,2020-05-08,09:44:35,10:00:53,NA,incomplete,159,shape,1,left,Blue_Circle_Stripes_4.jpg,Red_Circle_Dots_3.jpg,Purple_Triangle_Stripes_2.jpg,left,600.7900000549853,true,low,false
ghvl54vZ,33cla8o0nlo9ukh858i8v1jgjoffrm,3vzlgyjeypn1jhse6ln9cvhdfz0xzg,ghvl54vZ,2020-0188,2020-05-08,09:44:35,10:00:53,NA,incomplete,160,filling,0,left,Purple_Plus_Chess_1.jpg,Red_Triangle_Chess_3.jpg,Blue_Plus_Grid_2.jpg,right,583.6549999658018,false,low,false
ghvl54vZ,33cla8o0nlo9ukh858i8v1jgjoffrm,3vzlgyjeypn1jhse6ln9cvhdfz0xzg,ghvl54vZ,2020-0188,2020-05-08,09:44:35,10:00:53,NA,incomplete,161,filling,1,left,Green_Triangle_Chess_4.jpg,Purple_Star_Chess_1.jpg,Blue_Triangle_Stripes_2.jpg,right,571.1349999764934,false,low,false
ghvl54vZ,33cla8o0nlo9ukh858i8v1jgjoffrm,3vzlgyjeypn1jhse6ln9cvhdfz0xzg,ghvl54vZ,2020-0188,2020-05-08,09:44:35,10:00:53,NA,incomplete,162,filling,0,left,Blue_Star_Chess_2.jpg,Red_Plus_Chess_1.jpg,Purple_Star_Dots_4.jpg,right,748.2900000177324,false,low,false
ghvl54vZ,33cla8o0nlo9ukh858i8v1jgjoffrm,3vzlgyjeypn1jhse6ln9cvhdfz0xzg,ghvl54vZ,2020-0188,2020-05-08,09:44:35,10:00:53,NA,incomplete,163,filling,1,right,Blue_Circle_Dots_3.jpg,Purple_Circle_Stripes_4.jpg,Red_Plus_Dots_1.jpg,left,571.3450000621378,false,low,false
ghvl54vZ,33cla8o0nlo9ukh858i8v1jgjoffrm,3vzlgyjeypn1jhse6ln9cvhdfz0xzg,ghvl54vZ,2020-0188,2020-05-08,09:44:35,10:00:53,NA,incomplete,164,filling,1,left,Red_Star_Dots_1.jpg,Purple_Plus_Dots_4.jpg,Blue_Star_Chess_2.jpg,right,522.5199999986216,false,low,false
ghvl54vZ,33cla8o0nlo9ukh858i8v1jgjoffrm,3vzlgyjeypn1jhse6ln9cvhdfz0xzg,ghvl54vZ,2020-0188,2020-05-08,09:44:35,10:00:53,NA,incomplete,165,filling,0,right,Red_Triangle_Stripes_3.jpg,Purple_Triangle_Grid_2.jpg,Green_Circle_Stripes_1.jpg,left,626.0550000006333,false,low,false
ghvl54vZ,33cla8o0nlo9ukh858i8v1jgjoffrm,3vzlgyjeypn1jhse6ln9cvhdfz0xzg,ghvl54vZ,2020-0188,2020-05-08,09:44:35,10:00:53,NA,incomplete,166,filling,1,left,Green_Triangle_Stripes_1.jpg,Red_Star_Stripes_4.jpg,Blue_Triangle_Chess_2.jpg,right,625.9050000226125,false,low,false
ghvl54vZ,33cla8o0nlo9ukh858i8v1jgjoffrm,3vzlgyjeypn1jhse6ln9cvhdfz0xzg,ghvl54vZ,2020-0188,2020-05-08,09:44:35,10:00:53,NA,incomplete,167,filling,1,left,Blue_Triangle_Stripes_4.jpg,Green_Star_Stripes_2.jpg,Red_Triangle_Chess_3.jpg,right,559.1099999146536,false,low,false
ghvl54vZ,33cla8o0nlo9ukh858i8v1jgjoffrm,3vzlgyjeypn1jhse6ln9cvhdfz0xzg,ghvl54vZ,2020-0188,2020-05-08,09:44:35,10:00:53,NA,incomplete,168,filling,0,left,Blue_Triangle_Grid_2.jpg,Green_Circle_Grid_1.jpg,Red_Triangle_Dots_3.jpg,right,779.6949999174103,false,low,false
ghvl54vZ,33cla8o0nlo9ukh858i8v1jgjoffrm,3vzlgyjeypn1jhse6ln9cvhdfz0xzg,ghvl54vZ,2020-0188,2020-05-08,09:44:35,10:00:53,NA,incomplete,169,filling,1,right,Red_Plus_Dots_1.jpg,Green_Plus_Stripes_2.jpg,Blue_Triangle_Dots_3.jpg,left,792.3850000370294,false,low,false
ghvl54vZ,33cla8o0nlo9ukh858i8v1jgjoffrm,3vzlgyjeypn1jhse6ln9cvhdfz0xzg,ghvl54vZ,2020-0188,2020-05-08,09:44:35,10:00:53,NA,incomplete,170,filling,1,left,Green_Star_Grid_1.jpg,Red_Plus_Grid_3.jpg,Purple_Star_Chess_2.jpg,right,659.2749999836087,false,low,false
ghvl54vZ,33cla8o0nlo9ukh858i8v1jgjoffrm,3vzlgyjeypn1jhse6ln9cvhdfz0xzg,ghvl54vZ,2020-0188,2020-05-08,09:44:35,10:00:53,NA,incomplete,171,filling,1,right,Green_Triangle_Grid_3.jpg,Red_Triangle_Chess_2.jpg,Purple_Star_Grid_1.jpg,left,633.6450000526384,false,low,false
ghvl54vZ,33cla8o0nlo9ukh858i8v1jgjoffrm,3vzlgyjeypn1jhse6ln9cvhdfz0xzg,ghvl54vZ,2020-0188,2020-05-08,09:44:35,10:00:53,NA,incomplete,172,filling,0,right,Red_Circle_Dots_4.jpg,Blue_Circle_Grid_1.jpg,Purple_Star_Dots_2.jpg,right,861.8149999529123,true,low,false
ghvl54vZ,33cla8o0nlo9ukh858i8v1jgjoffrm,3vzlgyjeypn1jhse6ln9cvhdfz0xzg,ghvl54vZ,2020-0188,2020-05-08,09:44:35,10:00:53,NA,incomplete,173,filling,1,left,Blue_Circle_Chess_1.jpg,Red_Triangle_Chess_4.jpg,Purple_Circle_Dots_3.jpg,left,777.1149999462068,true,low,false
ghvl54vZ,33cla8o0nlo9ukh858i8v1jgjoffrm,3vzlgyjeypn1jhse6ln9cvhdfz0xzg,ghvl54vZ,2020-0188,2020-05-08,09:44:35,10:00:53,NA,incomplete,174,filling,1,left,Green_Circle_Chess_2.jpg,Purple_Triangle_Chess_1.jpg,Red_Circle_Grid_4.jpg,left,752.3049999726936,true,low,false
ghvl54vZ,33cla8o0nlo9ukh858i8v1jgjoffrm,3vzlgyjeypn1jhse6ln9cvhdfz0xzg,ghvl54vZ,2020-0188,2020-05-08,09:44:35,10:00:53,NA,incomplete,175,filling,1,right,Blue_Circle_Stripes_1.jpg,Green_Circle_Grid_3.jpg,Purple_Plus_Stripes_2.jpg,right,947.7549999719486,true,low,false
ghvl54vZ,33cla8o0nlo9ukh858i8v1jgjoffrm,3vzlgyjeypn1jhse6ln9cvhdfz0xzg,ghvl54vZ,2020-0188,2020-05-08,09:44:35,10:00:53,NA,incomplete,176,filling,1,right,Purple_Circle_Grid_3.jpg,Red_Circle_Stripes_1.jpg,Green_Plus_Grid_4.jpg,right,860.3400000138208,true,low,false
ghvl54vZ,33cla8o0nlo9ukh858i8v1jgjoffrm,3vzlgyjeypn1jhse6ln9cvhdfz0xzg,ghvl54vZ,2020-0188,2020-05-08,09:44:35,10:00:53,NA,incomplete,177,filling,0,left,Blue_Triangle_Dots_1.jpg,Purple_Circle_Dots_4.jpg,Green_Triangle_Stripes_2.jpg,left,764.7700000088662,true,low,false
ghvl54vZ,33cla8o0nlo9ukh858i8v1jgjoffrm,3vzlgyjeypn1jhse6ln9cvhdfz0xzg,ghvl54vZ,2020-0188,2020-05-08,09:44:35,10:00:53,NA,incomplete,178,filling,1,right,Purple_Star_Dots_1.jpg,Blue_Star_Chess_3.jpg,Green_Circle_Dots_2.jpg,right,1035.634999978356,true,low,false
ghvl54vZ,33cla8o0nlo9ukh858i8v1jgjoffrm,3vzlgyjeypn1jhse6ln9cvhdfz0xzg,ghvl54vZ,2020-0188,2020-05-08,09:44:35,10:00:53,NA,incomplete,179,filling,1,right,Blue_Plus_Chess_1.jpg,Purple_Plus_Stripes_4.jpg,Green_Circle_Chess_3.jpg,right,1044.700000085868,true,low,false
ghvl54vZ,33cla8o0nlo9ukh858i8v1jgjoffrm,3vzlgyjeypn1jhse6ln9cvhdfz0xzg,ghvl54vZ,2020-0188,2020-05-08,09:44:35,10:00:53,NA,incomplete,180,shape,1,left,Red_Circle_Chess_2.jpg,Purple_Circle_Dots_4.jpg,Blue_Star_Chess_3.jpg,right,983.4450000198558,false,low,false
ghvl54vZ,33cla8o0nlo9ukh858i8v1jgjoffrm,3vzlgyjeypn1jhse6ln9cvhdfz0xzg,ghvl54vZ,2020-0188,2020-05-08,09:44:35,10:00:53,NA,incomplete,181,shape,1,right,Blue_Star_Grid_4.jpg,Red_Circle_Grid_1.jpg,Green_Star_Stripes_3.jpg,left,1142.8450000239536,false,low,false
ghvl54vZ,33cla8o0nlo9ukh858i8v1jgjoffrm,3vzlgyjeypn1jhse6ln9cvhdfz0xzg,ghvl54vZ,2020-0188,2020-05-08,09:44:35,10:00:53,NA,incomplete,182,shape,1,right,Red_Plus_Dots_4.jpg,Green_Star_Dots_1.jpg,Purple_Plus_Grid_2.jpg,left,1013.0099999951199,false,low,false
ghvl54vZ,33cla8o0nlo9ukh858i8v1jgjoffrm,3vzlgyjeypn1jhse6ln9cvhdfz0xzg,ghvl54vZ,2020-0188,2020-05-08,09:44:35,10:00:53,NA,incomplete,183,shape,1,left,Blue_Plus_Grid_3.jpg,Green_Plus_Stripes_1.jpg,Purple_Star_Grid_4.jpg,right,1235.5299999471754,false,low,false
ghvl54vZ,33cla8o0nlo9ukh858i8v1jgjoffrm,3vzlgyjeypn1jhse6ln9cvhdfz0xzg,ghvl54vZ,2020-0188,2020-05-08,09:44:35,10:00:53,NA,incomplete,184,shape,1,right,Green_Plus_Dots_1.jpg,Purple_Star_Dots_3.jpg,Blue_Plus_Stripes_4.jpg,left,1034.9600000772625,false,low,false
ghvl54vZ,33cla8o0nlo9ukh858i8v1jgjoffrm,3vzlgyjeypn1jhse6ln9cvhdfz0xzg,ghvl54vZ,2020-0188,2020-05-08,09:44:35,10:00:53,NA,incomplete,185,shape,1,left,Blue_Star_Dots_4.jpg,Purple_Star_Chess_2.jpg,Green_Circle_Dots_1.jpg,left,871.5450000017881,true,low,false
ghvl54vZ,33cla8o0nlo9ukh858i8v1jgjoffrm,3vzlgyjeypn1jhse6ln9cvhdfz0xzg,ghvl54vZ,2020-0188,2020-05-08,09:44:35,10:00:53,NA,incomplete,186,shape,1,left,Green_Circle_Dots_2.jpg,Red_Circle_Chess_1.jpg,Blue_Triangle_Dots_3.jpg,left,622.9650001041591,true,low,false
ghvl54vZ,33cla8o0nlo9ukh858i8v1jgjoffrm,3vzlgyjeypn1jhse6ln9cvhdfz0xzg,ghvl54vZ,2020-0188,2020-05-08,09:44:35,10:00:53,NA,incomplete,187,shape,1,right,Purple_Triangle_Dots_4.jpg,Green_Star_Dots_3.jpg,Blue_Triangle_Grid_2.jpg,right,637.7799999900162,true,low,false
ghvl54vZ,33cla8o0nlo9ukh858i8v1jgjoffrm,3vzlgyjeypn1jhse6ln9cvhdfz0xzg,ghvl54vZ,2020-0188,2020-05-08,09:44:35,10:00:53,NA,incomplete,188,shape,1,right,Green_Triangle_Dots_1.jpg,Blue_Circle_Dots_3.jpg,Red_Triangle_Chess_2.jpg,right,542.3299999674782,true,low,false
ghvl54vZ,33cla8o0nlo9ukh858i8v1jgjoffrm,3vzlgyjeypn1jhse6ln9cvhdfz0xzg,ghvl54vZ,2020-0188,2020-05-08,09:44:35,10:00:53,NA,incomplete,189,shape,1,left,Red_Circle_Stripes_4.jpg,Blue_Circle_Grid_3.jpg,Purple_Triangle_Stripes_1.jpg,left,559.0300000039861,true,low,false
ghvl54vZ,33cla8o0nlo9ukh858i8v1jgjoffrm,3vzlgyjeypn1jhse6ln9cvhdfz0xzg,ghvl54vZ,2020-0188,2020-05-08,09:44:35,10:00:53,NA,incomplete,190,shape,1,right,Red_Triangle_Dots_4.jpg,Purple_Plus_Dots_2.jpg,Blue_Triangle_Chess_3.jpg,right,513.8899999437854,true,low,false
ghvl54vZ,33cla8o0nlo9ukh858i8v1jgjoffrm,3vzlgyjeypn1jhse6ln9cvhdfz0xzg,ghvl54vZ,2020-0188,2020-05-08,09:44:35,10:00:53,NA,incomplete,191,shape,1,left,Blue_Triangle_Dots_1.jpg,Green_Triangle_Grid_2.jpg,Red_Star_Dots_4.jpg,left,575.6800000090152,true,low,false
ghvl54vZ,33cla8o0nlo9ukh858i8v1jgjoffrm,3vzlgyjeypn1jhse6ln9cvhdfz0xzg,ghvl54vZ,2020-0188,2020-05-08,09:44:35,10:00:53,NA,incomplete,192,shape,0,right,Blue_Star_Chess_3.jpg,Red_Triangle_Chess_4.jpg,Green_Star_Stripes_2.jpg,right,1078.1800000695512,true,low,false
ghvl54vZ,33cla8o0nlo9ukh858i8v1jgjoffrm,3vzlgyjeypn1jhse6ln9cvhdfz0xzg,ghvl54vZ,2020-0188,2020-05-08,09:44:35,10:00:53,NA,incomplete,193,shape,1,left,Green_Star_Stripes_4.jpg,Purple_Star_Dots_2.jpg,Red_Circle_Stripes_1.jpg,left,594.2999999970198,true,low,false
ghvl54vZ,33cla8o0nlo9ukh858i8v1jgjoffrm,3vzlgyjeypn1jhse6ln9cvhdfz0xzg,ghvl54vZ,2020-0188,2020-05-08,09:44:35,10:00:53,NA,incomplete,194,shape,1,left,Purple_Circle_Stripes_2.jpg,Blue_Circle_Chess_1.jpg,Red_Star_Stripes_4.jpg,left,554.3449999531731,true,low,false
ghvl54vZ,33cla8o0nlo9ukh858i8v1jgjoffrm,3vzlgyjeypn1jhse6ln9cvhdfz0xzg,ghvl54vZ,2020-0188,2020-05-08,09:44:35,10:00:53,NA,incomplete,195,shape,0,left,Green_Plus_Dots_2.jpg,Red_Plus_Stripes_3.jpg,Blue_Star_Dots_4.jpg,left,888.71999992989,true,low,false
ghvl54vZ,33cla8o0nlo9ukh858i8v1jgjoffrm,3vzlgyjeypn1jhse6ln9cvhdfz0xzg,ghvl54vZ,2020-0188,2020-05-08,09:44:35,10:00:53,NA,incomplete,196,shape,1,right,Purple_Star_Grid_1.jpg,Red_Plus_Grid_2.jpg,Blue_Star_Chess_3.jpg,right,734.9349999567494,true,low,false
ghvl54vZ,33cla8o0nlo9ukh858i8v1jgjoffrm,3vzlgyjeypn1jhse6ln9cvhdfz0xzg,ghvl54vZ,2020-0188,2020-05-08,09:44:35,10:00:53,NA,incomplete,197,shape,0,left,Blue_Circle_Chess_4.jpg,Green_Circle_Dots_3.jpg,Purple_Star_Chess_1.jpg,left,624.9750000424683,true,low,false
ghvl54vZ,33cla8o0nlo9ukh858i8v1jgjoffrm,3vzlgyjeypn1jhse6ln9cvhdfz0xzg,ghvl54vZ,2020-0188,2020-05-08,09:44:35,10:00:53,NA,incomplete,198,shape,1,right,Green_Circle_Dots_4.jpg,Purple_Plus_Dots_2.jpg,Blue_Circle_Grid_1.jpg,right,687.984999967739,true,low,false
ghvl54vZ,33cla8o0nlo9ukh858i8v1jgjoffrm,3vzlgyjeypn1jhse6ln9cvhdfz0xzg,ghvl54vZ,2020-0188,2020-05-08,09:44:35,10:00:53,NA,incomplete,199,shape,0,left,Red_Circle_Stripes_4.jpg,Purple_Circle_Grid_3.jpg,Green_Triangle_Stripes_1.jpg,left,671.3599999202415,true,low,false
ghvl54vZ,33cla8o0nlo9ukh858i8v1jgjoffrm,3vzlgyjeypn1jhse6ln9cvhdfz0xzg,ghvl54vZ,2020-0188,2020-05-08,09:44:35,10:00:53,NA,incomplete,200,filling,1,left,Green_Circle_Chess_3.jpg,Blue_Plus_Chess_4.jpg,Purple_Circle_Grid_1.jpg,right,634.1049999464303,false,low,false
ghvl54vZ,33cla8o0nlo9ukh858i8v1jgjoffrm,3vzlgyjeypn1jhse6ln9cvhdfz0xzg,ghvl54vZ,2020-0188,2020-05-08,09:44:35,10:00:53,NA,incomplete,201,filling,1,right,Green_Triangle_Dots_1.jpg,Blue_Triangle_Grid_3.jpg,Purple_Circle_Dots_4.jpg,left,527.6350000640377,false,low,false
ghvl54vZ,33cla8o0nlo9ukh858i8v1jgjoffrm,3vzlgyjeypn1jhse6ln9cvhdfz0xzg,ghvl54vZ,2020-0188,2020-05-08,09:44:35,10:00:53,NA,incomplete,202,filling,0,left,Blue_Triangle_Dots_3.jpg,Red_Circle_Dots_2.jpg,Green_Triangle_Stripes_1.jpg,right,563.179999939166,false,low,false
ghvl54vZ,33cla8o0nlo9ukh858i8v1jgjoffrm,3vzlgyjeypn1jhse6ln9cvhdfz0xzg,ghvl54vZ,2020-0188,2020-05-08,09:44:35,10:00:53,NA,incomplete,203,filling,1,left,Green_Triangle_Chess_3.jpg,Red_Star_Chess_1.jpg,Blue_Triangle_Grid_4.jpg,right,645.494999946095,false,low,false
ghvl54vZ,33cla8o0nlo9ukh858i8v1jgjoffrm,3vzlgyjeypn1jhse6ln9cvhdfz0xzg,ghvl54vZ,2020-0188,2020-05-08,09:44:35,10:00:53,NA,incomplete,204,filling,1,left,Purple_Circle_Chess_1.jpg,Green_Plus_Chess_4.jpg,Blue_Circle_Dots_2.jpg,right,586.8350000819191,false,low,false
ghvl54vZ,33cla8o0nlo9ukh858i8v1jgjoffrm,3vzlgyjeypn1jhse6ln9cvhdfz0xzg,ghvl54vZ,2020-0188,2020-05-08,09:44:35,10:00:53,NA,incomplete,205,filling,1,right,Purple_Triangle_Dots_2.jpg,Blue_Triangle_Chess_3.jpg,Red_Circle_Dots_4.jpg,left,588.3799999719486,false,low,false
ghvl54vZ,33cla8o0nlo9ukh858i8v1jgjoffrm,3vzlgyjeypn1jhse6ln9cvhdfz0xzg,ghvl54vZ,2020-0188,2020-05-08,09:44:35,10:00:53,NA,incomplete,206,filling,1,left,Purple_Plus_Stripes_1.jpg,Blue_Triangle_Stripes_2.jpg,Green_Plus_Chess_3.jpg,right,616.6000000666827,false,low,false
ghvl54vZ,33cla8o0nlo9ukh858i8v1jgjoffrm,3vzlgyjeypn1jhse6ln9cvhdfz0xzg,ghvl54vZ,2020-0188,2020-05-08,09:44:35,10:00:53,NA,incomplete,207,filling,1,right,Green_Star_Grid_4.jpg,Purple_Star_Dots_1.jpg,Red_Plus_Grid_3.jpg,left,804.8600000329316,false,low,false
ghvl54vZ,33cla8o0nlo9ukh858i8v1jgjoffrm,3vzlgyjeypn1jhse6ln9cvhdfz0xzg,ghvl54vZ,2020-0188,2020-05-08,09:44:35,10:00:53,NA,incomplete,208,filling,1,left,Purple_Circle_Stripes_1.jpg,Red_Star_Stripes_3.jpg,Blue_Circle_Grid_4.jpg,left,917.0000000158325,true,low,false
ghvl54vZ,33cla8o0nlo9ukh858i8v1jgjoffrm,3vzlgyjeypn1jhse6ln9cvhdfz0xzg,ghvl54vZ,2020-0188,2020-05-08,09:44:35,10:00:53,NA,incomplete,209,filling,1,left,Blue_Plus_Dots_1.jpg,Purple_Star_Dots_2.jpg,Green_Plus_Grid_3.jpg,left,954.5999999390915,true,low,false
ghvl54vZ,33cla8o0nlo9ukh858i8v1jgjoffrm,3vzlgyjeypn1jhse6ln9cvhdfz0xzg,ghvl54vZ,2020-0188,2020-05-08,09:44:35,10:00:53,NA,incomplete,210,filling,0,right,Green_Triangle_Chess_1.jpg,Red_Triangle_Dots_2.jpg,Purple_Plus_Chess_3.jpg,right,766.9799999566749,true,low,false
ghvl54vZ,33cla8o0nlo9ukh858i8v1jgjoffrm,3vzlgyjeypn1jhse6ln9cvhdfz0xzg,ghvl54vZ,2020-0188,2020-05-08,09:44:35,10:00:53,NA,incomplete,211,filling,1,left,Blue_Circle_Chess_3.jpg,Purple_Plus_Chess_2.jpg,Green_Circle_Dots_4.jpg,left,816.9299999717623,true,low,false
ghvl54vZ,33cla8o0nlo9ukh858i8v1jgjoffrm,3vzlgyjeypn1jhse6ln9cvhdfz0xzg,ghvl54vZ,2020-0188,2020-05-08,09:44:35,10:00:53,NA,incomplete,212,filling,1,right,Red_Triangle_Dots_1.jpg,Blue_Triangle_Grid_3.jpg,Green_Circle_Dots_2.jpg,right,750.3999999025837,true,low,false
ghvl54vZ,33cla8o0nlo9ukh858i8v1jgjoffrm,3vzlgyjeypn1jhse6ln9cvhdfz0xzg,ghvl54vZ,2020-0188,2020-05-08,09:44:35,10:00:53,NA,incomplete,213,filling,1,left,Purple_Star_Chess_3.jpg,Red_Circle_Chess_1.jpg,Blue_Star_Stripes_4.jpg,left,1048.2499999925494,true,low,false
ghvl54vZ,33cla8o0nlo9ukh858i8v1jgjoffrm,3vzlgyjeypn1jhse6ln9cvhdfz0xzg,ghvl54vZ,2020-0188,2020-05-08,09:44:35,10:00:53,NA,incomplete,214,filling,1,left,Green_Star_Chess_2.jpg,Purple_Triangle_Chess_3.jpg,Blue_Star_Stripes_1.jpg,left,771.669999929145,true,low,false
ghvl54vZ,33cla8o0nlo9ukh858i8v1jgjoffrm,3vzlgyjeypn1jhse6ln9cvhdfz0xzg,ghvl54vZ,2020-0188,2020-05-08,09:44:35,10:00:53,NA,incomplete,215,filling,1,left,Green_Plus_Grid_3.jpg,Red_Triangle_Grid_4.jpg,Blue_Plus_Dots_1.jpg,left,954.1100000496954,true,low,false
ghvl54vZ,33cla8o0nlo9ukh858i8v1jgjoffrm,3vzlgyjeypn1jhse6ln9cvhdfz0xzg,ghvl54vZ,2020-0188,2020-05-08,09:44:35,10:00:53,NA,incomplete,216,filling,1,left,Green_Circle_Grid_3.jpg,Purple_Star_Grid_2.jpg,Red_Circle_Dots_4.jpg,left,820.7949999487028,true,low,false
ghvl54vZ,33cla8o0nlo9ukh858i8v1jgjoffrm,3vzlgyjeypn1jhse6ln9cvhdfz0xzg,ghvl54vZ,2020-0188,2020-05-08,09:44:35,10:00:53,NA,incomplete,217,filling,1,right,Purple_Plus_Grid_4.jpg,Green_Plus_Chess_3.jpg,Blue_Triangle_Grid_2.jpg,right,959.2100000008941,true,low,false
ghvl54vZ,33cla8o0nlo9ukh858i8v1jgjoffrm,3vzlgyjeypn1jhse6ln9cvhdfz0xzg,ghvl54vZ,2020-0188,2020-05-08,09:44:35,10:00:53,NA,incomplete,218,filling,0,left,Red_Plus_Stripes_4.jpg,Purple_Star_Stripes_1.jpg,Blue_Plus_Dots_2.jpg,left,1004.5750000281259,true,low,false
ghvl54vZ,33cla8o0nlo9ukh858i8v1jgjoffrm,3vzlgyjeypn1jhse6ln9cvhdfz0xzg,ghvl54vZ,2020-0188,2020-05-08,09:44:35,10:00:53,NA,incomplete,219,filling,1,left,Green_Circle_Chess_1.jpg,Purple_Triangle_Chess_3.jpg,Blue_Circle_Dots_4.jpg,left,840.9550000214949,true,low,false
ghvl54vZ,33cla8o0nlo9ukh858i8v1jgjoffrm,3vzlgyjeypn1jhse6ln9cvhdfz0xzg,ghvl54vZ,2020-0188,2020-05-08,09:44:35,10:00:53,NA,incomplete,220,shape,1,left,Green_Circle_Chess_2.jpg,Purple_Circle_Dots_3.jpg,Blue_Triangle_Chess_4.jpg,right,734.4600000651553,false,low,false
ghvl54vZ,33cla8o0nlo9ukh858i8v1jgjoffrm,3vzlgyjeypn1jhse6ln9cvhdfz0xzg,ghvl54vZ,2020-0188,2020-05-08,09:44:35,10:00:53,NA,incomplete,221,shape,1,left,Purple_Star_Grid_3.jpg,Green_Star_Stripes_4.jpg,Red_Circle_Grid_2.jpg,right,1035.6449999380857,false,low,false
ghvl54vZ,33cla8o0nlo9ukh858i8v1jgjoffrm,3vzlgyjeypn1jhse6ln9cvhdfz0xzg,ghvl54vZ,2020-0188,2020-05-08,09:44:35,10:00:53,NA,incomplete,222,shape,0,right,Green_Star_Stripes_4.jpg,Blue_Circle_Stripes_1.jpg,Purple_Star_Chess_3.jpg,left,879.854999948293,false,low,false
ghvl54vZ,33cla8o0nlo9ukh858i8v1jgjoffrm,3vzlgyjeypn1jhse6ln9cvhdfz0xzg,ghvl54vZ,2020-0188,2020-05-08,09:44:35,10:00:53,NA,incomplete,223,shape,1,right,Purple_Circle_Grid_4.jpg,Red_Plus_Grid_2.jpg,Blue_Circle_Chess_1.jpg,right,692.3350000288337,true,low,false
ghvl54vZ,33cla8o0nlo9ukh858i8v1jgjoffrm,3vzlgyjeypn1jhse6ln9cvhdfz0xzg,ghvl54vZ,2020-0188,2020-05-08,09:44:35,10:00:53,NA,incomplete,224,shape,1,right,Blue_Circle_Stripes_1.jpg,Purple_Triangle_Stripes_4.jpg,Red_Circle_Chess_3.jpg,right,608.8049999671057,true,low,false
ghvl54vZ,33cla8o0nlo9ukh858i8v1jgjoffrm,3vzlgyjeypn1jhse6ln9cvhdfz0xzg,ghvl54vZ,2020-0188,2020-05-08,09:44:35,10:00:53,NA,incomplete,225,shape,1,left,Green_Triangle_Stripes_2.jpg,Blue_Triangle_Grid_1.jpg,Purple_Star_Stripes_3.jpg,left,642.9550000466406,true,low,false
ghvl54vZ,33cla8o0nlo9ukh858i8v1jgjoffrm,3vzlgyjeypn1jhse6ln9cvhdfz0xzg,ghvl54vZ,2020-0188,2020-05-08,09:44:35,10:00:53,NA,incomplete,226,shape,1,right,Blue_Plus_Grid_3.jpg,Green_Star_Grid_1.jpg,Purple_Plus_Stripes_2.jpg,right,620.5900000641122,true,low,false
ghvl54vZ,33cla8o0nlo9ukh858i8v1jgjoffrm,3vzlgyjeypn1jhse6ln9cvhdfz0xzg,ghvl54vZ,2020-0188,2020-05-08,09:44:35,10:00:53,NA,incomplete,227,shape,1,left,Blue_Triangle_Grid_3.jpg,Purple_Triangle_Chess_2.jpg,Red_Plus_Grid_1.jpg,left,577.9600000241771,true,low,false
ghvl54vZ,33cla8o0nlo9ukh858i8v1jgjoffrm,3vzlgyjeypn1jhse6ln9cvhdfz0xzg,ghvl54vZ,2020-0188,2020-05-08,09:44:35,10:00:53,NA,incomplete,228,shape,1,left,Red_Plus_Chess_4.jpg,Purple_Plus_Dots_1.jpg,Blue_Triangle_Chess_3.jpg,left,675.7399999769405,true,low,false
ghvl54vZ,33cla8o0nlo9ukh858i8v1jgjoffrm,3vzlgyjeypn1jhse6ln9cvhdfz0xzg,ghvl54vZ,2020-0188,2020-05-08,09:44:35,10:00:53,NA,incomplete,229,shape,1,left,Green_Plus_Stripes_2.jpg,Purple_Plus_Grid_3.jpg,Blue_Star_Stripes_1.jpg,left,550.3449999960139,true,low,false
ghvl54vZ,33cla8o0nlo9ukh858i8v1jgjoffrm,3vzlgyjeypn1jhse6ln9cvhdfz0xzg,ghvl54vZ,2020-0188,2020-05-08,09:44:35,10:00:53,NA,incomplete,230,shape,1,right,Purple_Circle_Dots_1.jpg,Blue_Triangle_Dots_4.jpg,Red_Circle_Chess_3.jpg,right,544.1850000061095,true,low,false
ghvl54vZ,33cla8o0nlo9ukh858i8v1jgjoffrm,3vzlgyjeypn1jhse6ln9cvhdfz0xzg,ghvl54vZ,2020-0188,2020-05-08,09:44:35,10:00:53,NA,incomplete,231,shape,1,left,Blue_Star_Stripes_2.jpg,Green_Star_Grid_4.jpg,Purple_Circle_Stripes_3.jpg,left,634.1000000247732,true,low,false
ghvl54vZ,33cla8o0nlo9ukh858i8v1jgjoffrm,3vzlgyjeypn1jhse6ln9cvhdfz0xzg,ghvl54vZ,2020-0188,2020-05-08,09:44:35,10:00:53,NA,incomplete,232,shape,1,right,Green_Circle_Stripes_4.jpg,Blue_Triangle_Stripes_3.jpg,Purple_Circle_Grid_1.jpg,right,633.1950000021607,true,low,false
ghvl54vZ,33cla8o0nlo9ukh858i8v1jgjoffrm,3vzlgyjeypn1jhse6ln9cvhdfz0xzg,ghvl54vZ,2020-0188,2020-05-08,09:44:35,10:00:53,NA,incomplete,233,shape,1,right,Purple_Circle_Chess_2.jpg,Red_Star_Chess_1.jpg,Blue_Circle_Stripes_4.jpg,right,525.9599999990314,true,low,false
ghvl54vZ,33cla8o0nlo9ukh858i8v1jgjoffrm,3vzlgyjeypn1jhse6ln9cvhdfz0xzg,ghvl54vZ,2020-0188,2020-05-08,09:44:35,10:00:53,NA,incomplete,234,shape,1,left,Purple_Triangle_Stripes_4.jpg,Red_Triangle_Chess_2.jpg,Green_Plus_Stripes_3.jpg,left,537.3250000411645,true,low,false
ghvl54vZ,33cla8o0nlo9ukh858i8v1jgjoffrm,3vzlgyjeypn1jhse6ln9cvhdfz0xzg,ghvl54vZ,2020-0188,2020-05-08,09:44:35,10:00:53,NA,incomplete,235,shape,0,right,Green_Circle_Stripes_2.jpg,Purple_Triangle_Stripes_3.jpg,Red_Circle_Grid_4.jpg,right,585.4500000132248,true,low,false
ghvl54vZ,33cla8o0nlo9ukh858i8v1jgjoffrm,3vzlgyjeypn1jhse6ln9cvhdfz0xzg,ghvl54vZ,2020-0188,2020-05-08,09:44:35,10:00:53,NA,incomplete,236,shape,1,right,Blue_Triangle_Stripes_1.jpg,Green_Plus_Stripes_4.jpg,Purple_Triangle_Grid_2.jpg,right,579.7649999149144,true,low,false
ghvl54vZ,33cla8o0nlo9ukh858i8v1jgjoffrm,3vzlgyjeypn1jhse6ln9cvhdfz0xzg,ghvl54vZ,2020-0188,2020-05-08,09:44:35,10:00:53,NA,incomplete,237,shape,1,right,Green_Circle_Grid_3.jpg,Red_Triangle_Grid_1.jpg,Blue_Circle_Chess_4.jpg,right,497.86999996285886,true,low,false
ghvl54vZ,33cla8o0nlo9ukh858i8v1jgjoffrm,3vzlgyjeypn1jhse6ln9cvhdfz0xzg,ghvl54vZ,2020-0188,2020-05-08,09:44:35,10:00:53,NA,incomplete,238,shape,1,left,Blue_Circle_Dots_4.jpg,Red_Circle_Stripes_2.jpg,Green_Plus_Dots_1.jpg,left,508.91500001307577,true,low,false
ghvl54vZ,33cla8o0nlo9ukh858i8v1jgjoffrm,3vzlgyjeypn1jhse6ln9cvhdfz0xzg,ghvl54vZ,2020-0188,2020-05-08,09:44:35,10:00:53,NA,incomplete,239,shape,1,right,Blue_Circle_Grid_1.jpg,Green_Star_Grid_3.jpg,Red_Circle_Chess_2.jpg,right,513.2300000404939,true,low,false
ghvl54vZ,33cla8o0nlo9ukh858i8v1jgjoffrm,3vzlgyjeypn1jhse6ln9cvhdfz0xzg,ghvl54vZ,2020-0188,2020-05-08,09:44:35,10:00:53,953166.5599999251,979070.9599999245,NA,NA,NA,NA,NA,NA,NA,NA,NA,NA,NA,undefined
