workerId,hitId,assignmentId,subject,studyid,exp_date,exp_start,exp_end,time_start,time_end,trial,type,reward_validity,answer,image_top,image_left,image_right,response,response_time,response_acc,volatility,age,race,gender,ethnicity,color,vision,neuro,practice
pH7fWVbP,3en4yvuovf59wipgxxflzhxwdchjxp,3wq3b2kgectxbi45temzv469jh0b1x,pH7fWVbP,2020-0188,2020-05-08,07:13:08,07:28:55,NA,incomplete,0,shape,1,left,Red_Circle_Chess_4.jpg,Blue_Circle_Stripes_3.jpg,Purple_Star_Chess_2.jpg,left,1599.1349999967497,true,NA,NA,NA,NA,NA,NA,NA,NA,true
pH7fWVbP,3en4yvuovf59wipgxxflzhxwdchjxp,3wq3b2kgectxbi45temzv469jh0b1x,pH7fWVbP,2020-0188,2020-05-08,07:13:08,07:28:55,NA,incomplete,1,shape,0,right,Red_Plus_Stripes_1.jpg,Green_Star_Stripes_2.jpg,Blue_Plus_Dots_4.jpg,right,1067.9800000070827,true,NA,NA,NA,NA,NA,NA,NA,NA,true
pH7fWVbP,3en4yvuovf59wipgxxflzhxwdchjxp,3wq3b2kgectxbi45temzv469jh0b1x,pH7fWVbP,2020-0188,2020-05-08,07:13:08,07:28:55,NA,incomplete,2,shape,1,right,Blue_Star_Dots_3.jpg,Green_Circle_Dots_4.jpg,Red_Star_Chess_2.jpg,right,869.6150000032503,true,NA,NA,NA,NA,NA,NA,NA,NA,true
pH7fWVbP,3en4yvuovf59wipgxxflzhxwdchjxp,3wq3b2kgectxbi45temzv469jh0b1x,pH7fWVbP,2020-0188,2020-05-08,07:13:08,07:28:55,NA,incomplete,3,shape,1,left,Purple_Triangle_Grid_3.jpg,Red_Triangle_Dots_2.jpg,Green_Circle_Grid_4.jpg,left,640.5399999930523,true,NA,NA,NA,NA,NA,NA,NA,NA,true
pH7fWVbP,3en4yvuovf59wipgxxflzhxwdchjxp,3wq3b2kgectxbi45temzv469jh0b1x,pH7fWVbP,2020-0188,2020-05-08,07:13:08,07:28:55,NA,incomplete,4,shape,1,left,Red_Plus_Chess_4.jpg,Blue_Plus_Grid_1.jpg,Purple_Circle_Chess_2.jpg,left,772.4149999994552,true,NA,NA,NA,NA,NA,NA,NA,NA,true
pH7fWVbP,3en4yvuovf59wipgxxflzhxwdchjxp,3wq3b2kgectxbi45temzv469jh0b1x,pH7fWVbP,2020-0188,2020-05-08,07:13:08,07:28:55,NA,incomplete,5,shape,1,right,Green_Circle_Stripes_1.jpg,Purple_Triangle_Stripes_3.jpg,Red_Circle_Dots_2.jpg,right,529.5550000009825,true,NA,NA,NA,NA,NA,NA,NA,NA,true
pH7fWVbP,3en4yvuovf59wipgxxflzhxwdchjxp,3wq3b2kgectxbi45temzv469jh0b1x,pH7fWVbP,2020-0188,2020-05-08,07:13:08,07:28:55,NA,incomplete,6,shape,1,left,Purple_Triangle_Grid_1.jpg,Red_Triangle_Stripes_4.jpg,Blue_Circle_Grid_2.jpg,left,585.7400000095367,true,NA,NA,NA,NA,NA,NA,NA,NA,true
pH7fWVbP,3en4yvuovf59wipgxxflzhxwdchjxp,3wq3b2kgectxbi45temzv469jh0b1x,pH7fWVbP,2020-0188,2020-05-08,07:13:08,07:28:55,NA,incomplete,7,shape,0,left,Red_Star_Chess_3.jpg,Green_Star_Dots_1.jpg,Blue_Plus_Chess_4.jpg,left,926.7700000054901,true,NA,NA,NA,NA,NA,NA,NA,NA,true
pH7fWVbP,3en4yvuovf59wipgxxflzhxwdchjxp,3wq3b2kgectxbi45temzv469jh0b1x,pH7fWVbP,2020-0188,2020-05-08,07:13:08,07:28:55,NA,incomplete,8,shape,1,right,Blue_Star_Dots_3.jpg,Purple_Circle_Dots_2.jpg,Red_Star_Grid_4.jpg,right,694.8750000010477,true,NA,NA,NA,NA,NA,NA,NA,NA,true
pH7fWVbP,3en4yvuovf59wipgxxflzhxwdchjxp,3wq3b2kgectxbi45temzv469jh0b1x,pH7fWVbP,2020-0188,2020-05-08,07:13:08,07:28:55,NA,incomplete,9,shape,1,right,Green_Triangle_Grid_3.jpg,Red_Circle_Grid_1.jpg,Blue_Triangle_Stripes_2.jpg,right,702.449999997043,true,NA,NA,NA,NA,NA,NA,NA,NA,true
pH7fWVbP,3en4yvuovf59wipgxxflzhxwdchjxp,3wq3b2kgectxbi45temzv469jh0b1x,pH7fWVbP,2020-0188,2020-05-08,07:13:08,07:28:55,NA,incomplete,10,shape,0,right,Green_Circle_Stripes_1.jpg,Purple_Plus_Stripes_2.jpg,Blue_Circle_Chess_3.jpg,right,584.9199999938719,true,NA,NA,NA,NA,NA,NA,NA,NA,true
pH7fWVbP,3en4yvuovf59wipgxxflzhxwdchjxp,3wq3b2kgectxbi45temzv469jh0b1x,pH7fWVbP,2020-0188,2020-05-08,07:13:08,07:28:55,NA,incomplete,11,shape,1,left,Red_Plus_Dots_4.jpg,Green_Plus_Grid_2.jpg,Blue_Circle_Dots_1.jpg,left,749.2800000036368,true,NA,NA,NA,NA,NA,NA,NA,NA,true
pH7fWVbP,3en4yvuovf59wipgxxflzhxwdchjxp,3wq3b2kgectxbi45temzv469jh0b1x,pH7fWVbP,2020-0188,2020-05-08,07:13:08,07:28:55,NA,incomplete,12,shape,1,left,Green_Triangle_Stripes_3.jpg,Blue_Triangle_Dots_1.jpg,Purple_Plus_Stripes_4.jpg,left,1269.560000000638,true,NA,NA,NA,NA,NA,NA,NA,NA,true
pH7fWVbP,3en4yvuovf59wipgxxflzhxwdchjxp,3wq3b2kgectxbi45temzv469jh0b1x,pH7fWVbP,2020-0188,2020-05-08,07:13:08,07:28:55,NA,incomplete,13,shape,1,left,Purple_Triangle_Stripes_2.jpg,Blue_Triangle_Dots_3.jpg,Red_Plus_Stripes_4.jpg,left,878.0499999993481,true,NA,NA,NA,NA,NA,NA,NA,NA,true
pH7fWVbP,3en4yvuovf59wipgxxflzhxwdchjxp,3wq3b2kgectxbi45temzv469jh0b1x,pH7fWVbP,2020-0188,2020-05-08,07:13:08,07:28:55,NA,incomplete,14,shape,1,right,Red_Circle_Chess_4.jpg,Purple_Triangle_Chess_2.jpg,Blue_Circle_Grid_3.jpg,right,1033.7299999955576,true,NA,NA,NA,NA,NA,NA,NA,NA,true
pH7fWVbP,3en4yvuovf59wipgxxflzhxwdchjxp,3wq3b2kgectxbi45temzv469jh0b1x,pH7fWVbP,2020-0188,2020-05-08,07:13:08,07:28:55,NA,incomplete,15,shape,1,left,Purple_Star_Stripes_2.jpg,Red_Star_Dots_3.jpg,Green_Triangle_Stripes_1.jpg,left,748.2600000075763,true,NA,NA,NA,NA,NA,NA,NA,NA,true
pH7fWVbP,3en4yvuovf59wipgxxflzhxwdchjxp,3wq3b2kgectxbi45temzv469jh0b1x,pH7fWVbP,2020-0188,2020-05-08,07:13:08,07:28:55,NA,incomplete,16,shape,1,right,Red_Star_Grid_1.jpg,Blue_Circle_Grid_2.jpg,Purple_Star_Dots_3.jpg,right,820.5250000028173,true,NA,NA,NA,NA,NA,NA,NA,NA,true
pH7fWVbP,3en4yvuovf59wipgxxflzhxwdchjxp,3wq3b2kgectxbi45temzv469jh0b1x,pH7fWVbP,2020-0188,2020-05-08,07:13:08,07:28:55,NA,incomplete,17,shape,0,right,Blue_Triangle_Dots_2.jpg,Red_Star_Dots_4.jpg,Green_Triangle_Grid_3.jpg,right,784.3299999949522,true,NA,NA,NA,NA,NA,NA,NA,NA,true
pH7fWVbP,3en4yvuovf59wipgxxflzhxwdchjxp,3wq3b2kgectxbi45temzv469jh0b1x,pH7fWVbP,2020-0188,2020-05-08,07:13:08,07:28:55,NA,incomplete,18,shape,1,left,Blue_Circle_Grid_4.jpg,Purple_Circle_Chess_2.jpg,Green_Plus_Grid_1.jpg,left,837.2449999878881,true,NA,NA,NA,NA,NA,NA,NA,NA,true
pH7fWVbP,3en4yvuovf59wipgxxflzhxwdchjxp,3wq3b2kgectxbi45temzv469jh0b1x,pH7fWVbP,2020-0188,2020-05-08,07:13:08,07:28:55,NA,incomplete,19,shape,1,left,Green_Plus_Dots_3.jpg,Red_Plus_Stripes_4.jpg,Blue_Triangle_Dots_1.jpg,left,1024.4200000015553,true,NA,NA,NA,NA,NA,NA,NA,NA,true
pH7fWVbP,3en4yvuovf59wipgxxflzhxwdchjxp,3wq3b2kgectxbi45temzv469jh0b1x,pH7fWVbP,2020-0188,2020-05-08,07:13:08,07:28:55,NA,incomplete,20,filling,1,right,Red_Triangle_Dots_3.jpg,Green_Triangle_Grid_1.jpg,Purple_Star_Dots_4.jpg,left,1180.6300000025658,false,NA,NA,NA,NA,NA,NA,NA,NA,true
pH7fWVbP,3en4yvuovf59wipgxxflzhxwdchjxp,3wq3b2kgectxbi45temzv469jh0b1x,pH7fWVbP,2020-0188,2020-05-08,07:13:08,07:28:55,NA,incomplete,21,filling,1,left,Red_Star_Grid_3.jpg,Purple_Triangle_Grid_2.jpg,Blue_Star_Dots_4.jpg,left,1242.3450000060257,true,NA,NA,NA,NA,NA,NA,NA,NA,true
pH7fWVbP,3en4yvuovf59wipgxxflzhxwdchjxp,3wq3b2kgectxbi45temzv469jh0b1x,pH7fWVbP,2020-0188,2020-05-08,07:13:08,07:28:55,NA,incomplete,22,filling,1,left,Green_Plus_Dots_1.jpg,Blue_Circle_Dots_2.jpg,Purple_Plus_Stripes_4.jpg,right,1319.1099999967264,false,NA,NA,NA,NA,NA,NA,NA,NA,true
pH7fWVbP,3en4yvuovf59wipgxxflzhxwdchjxp,3wq3b2kgectxbi45temzv469jh0b1x,pH7fWVbP,2020-0188,2020-05-08,07:13:08,07:28:55,NA,incomplete,23,filling,1,right,Blue_Plus_Stripes_4.jpg,Green_Plus_Chess_2.jpg,Purple_Star_Stripes_3.jpg,right,1127.230000012787,true,NA,NA,NA,NA,NA,NA,NA,NA,true
pH7fWVbP,3en4yvuovf59wipgxxflzhxwdchjxp,3wq3b2kgectxbi45temzv469jh0b1x,pH7fWVbP,2020-0188,2020-05-08,07:13:08,07:28:55,NA,incomplete,24,filling,1,left,Purple_Triangle_Stripes_3.jpg,Blue_Plus_Stripes_1.jpg,Red_Triangle_Chess_4.jpg,left,1134.5599999913247,true,NA,NA,NA,NA,NA,NA,NA,NA,true
pH7fWVbP,3en4yvuovf59wipgxxflzhxwdchjxp,3wq3b2kgectxbi45temzv469jh0b1x,pH7fWVbP,2020-0188,2020-05-08,07:13:08,07:28:55,NA,incomplete,25,filling,1,left,Purple_Circle_Chess_4.jpg,Blue_Triangle_Chess_1.jpg,Green_Circle_Stripes_2.jpg,left,1150.485000005574,true,NA,NA,NA,NA,NA,NA,NA,NA,true
pH7fWVbP,3en4yvuovf59wipgxxflzhxwdchjxp,3wq3b2kgectxbi45temzv469jh0b1x,pH7fWVbP,2020-0188,2020-05-08,07:13:08,07:28:55,NA,incomplete,26,filling,1,right,Green_Triangle_Stripes_4.jpg,Blue_Triangle_Chess_3.jpg,Purple_Star_Stripes_2.jpg,right,1125.5600000004051,true,NA,NA,NA,NA,NA,NA,NA,NA,true
pH7fWVbP,3en4yvuovf59wipgxxflzhxwdchjxp,3wq3b2kgectxbi45temzv469jh0b1x,pH7fWVbP,2020-0188,2020-05-08,07:13:08,07:28:55,NA,incomplete,27,filling,0,left,Red_Circle_Chess_4.jpg,Green_Star_Chess_2.jpg,Blue_Circle_Dots_3.jpg,left,1109.855000002426,true,NA,NA,NA,NA,NA,NA,NA,NA,true
pH7fWVbP,3en4yvuovf59wipgxxflzhxwdchjxp,3wq3b2kgectxbi45temzv469jh0b1x,pH7fWVbP,2020-0188,2020-05-08,07:13:08,07:28:55,NA,incomplete,28,filling,1,left,Red_Star_Grid_3.jpg,Green_Triangle_Grid_4.jpg,Blue_Star_Dots_2.jpg,right,1446.4699999953154,false,NA,NA,NA,NA,NA,NA,NA,NA,true
pH7fWVbP,3en4yvuovf59wipgxxflzhxwdchjxp,3wq3b2kgectxbi45temzv469jh0b1x,pH7fWVbP,2020-0188,2020-05-08,07:13:08,07:28:55,NA,incomplete,29,filling,1,left,Green_Triangle_Chess_2.jpg,Blue_Circle_Chess_4.jpg,Red_Triangle_Grid_3.jpg,right,1234.4350000057602,false,NA,NA,NA,NA,NA,NA,NA,NA,true
pH7fWVbP,3en4yvuovf59wipgxxflzhxwdchjxp,3wq3b2kgectxbi45temzv469jh0b1x,pH7fWVbP,2020-0188,2020-05-08,07:13:08,07:28:55,NA,incomplete,30,filling,1,left,Green_Plus_Chess_1.jpg,Blue_Star_Chess_4.jpg,Red_Plus_Dots_2.jpg,left,1166.5700000012293,true,NA,NA,NA,NA,NA,NA,NA,NA,true
pH7fWVbP,3en4yvuovf59wipgxxflzhxwdchjxp,3wq3b2kgectxbi45temzv469jh0b1x,pH7fWVbP,2020-0188,2020-05-08,07:13:08,07:28:55,NA,incomplete,31,filling,0,left,Red_Plus_Chess_3.jpg,Green_Circle_Chess_4.jpg,Blue_Plus_Stripes_1.jpg,left,1150.3800000064075,true,NA,NA,NA,NA,NA,NA,NA,NA,true
pH7fWVbP,3en4yvuovf59wipgxxflzhxwdchjxp,3wq3b2kgectxbi45temzv469jh0b1x,pH7fWVbP,2020-0188,2020-05-08,07:13:08,07:28:55,NA,incomplete,32,filling,1,right,Green_Plus_Chess_3.jpg,Blue_Plus_Dots_4.jpg,Red_Star_Chess_2.jpg,right,1220.2249999972992,true,NA,NA,NA,NA,NA,NA,NA,NA,true
pH7fWVbP,3en4yvuovf59wipgxxflzhxwdchjxp,3wq3b2kgectxbi45temzv469jh0b1x,pH7fWVbP,2020-0188,2020-05-08,07:13:08,07:28:55,NA,incomplete,33,filling,0,right,Green_Circle_Chess_2.jpg,Blue_Circle_Stripes_1.jpg,Purple_Triangle_Chess_3.jpg,right,1176.0599999979604,true,NA,NA,NA,NA,NA,NA,NA,NA,true
pH7fWVbP,3en4yvuovf59wipgxxflzhxwdchjxp,3wq3b2kgectxbi45temzv469jh0b1x,pH7fWVbP,2020-0188,2020-05-08,07:13:08,07:28:55,NA,incomplete,34,filling,1,right,Green_Star_Grid_3.jpg,Blue_Star_Chess_4.jpg,Red_Circle_Grid_2.jpg,right,1813.334999998915,true,NA,NA,NA,NA,NA,NA,NA,NA,true
pH7fWVbP,3en4yvuovf59wipgxxflzhxwdchjxp,3wq3b2kgectxbi45temzv469jh0b1x,pH7fWVbP,2020-0188,2020-05-08,07:13:08,07:28:55,NA,incomplete,35,filling,1,left,Green_Circle_Stripes_2.jpg,Blue_Triangle_Stripes_1.jpg,Red_Circle_Dots_3.jpg,left,1009.8649999999907,true,NA,NA,NA,NA,NA,NA,NA,NA,true
pH7fWVbP,3en4yvuovf59wipgxxflzhxwdchjxp,3wq3b2kgectxbi45temzv469jh0b1x,pH7fWVbP,2020-0188,2020-05-08,07:13:08,07:28:55,NA,incomplete,36,filling,1,left,Green_Star_Grid_2.jpg,Blue_Triangle_Grid_1.jpg,Red_Star_Chess_4.jpg,left,1487.3999999981606,true,NA,NA,NA,NA,NA,NA,NA,NA,true
pH7fWVbP,3en4yvuovf59wipgxxflzhxwdchjxp,3wq3b2kgectxbi45temzv469jh0b1x,pH7fWVbP,2020-0188,2020-05-08,07:13:08,07:28:55,NA,incomplete,37,filling,1,right,Green_Circle_Dots_1.jpg,Blue_Circle_Grid_4.jpg,Purple_Triangle_Dots_3.jpg,right,1264.2049999994924,true,NA,NA,NA,NA,NA,NA,NA,NA,true
pH7fWVbP,3en4yvuovf59wipgxxflzhxwdchjxp,3wq3b2kgectxbi45temzv469jh0b1x,pH7fWVbP,2020-0188,2020-05-08,07:13:08,07:28:55,NA,incomplete,38,filling,1,left,Purple_Circle_Grid_2.jpg,Green_Star_Grid_3.jpg,Red_Circle_Dots_4.jpg,left,1514.0950000059092,true,NA,NA,NA,NA,NA,NA,NA,NA,true
pH7fWVbP,3en4yvuovf59wipgxxflzhxwdchjxp,3wq3b2kgectxbi45temzv469jh0b1x,pH7fWVbP,2020-0188,2020-05-08,07:13:08,07:28:55,NA,incomplete,39,filling,0,right,Green_Circle_Chess_1.jpg,Purple_Circle_Dots_2.jpg,Blue_Triangle_Chess_4.jpg,right,1221.254999996745,true,NA,NA,NA,NA,NA,NA,NA,NA,true
pH7fWVbP,3en4yvuovf59wipgxxflzhxwdchjxp,3wq3b2kgectxbi45temzv469jh0b1x,pH7fWVbP,2020-0188,2020-05-08,07:13:08,07:28:55,NA,incomplete,0,shape,0,right,Blue_Star_Stripes_3.jpg,Green_Circle_Stripes_4.jpg,Purple_Star_Grid_1.jpg,right,1969.3649999971967,true,high,NA,NA,NA,NA,NA,NA,NA,false
pH7fWVbP,3en4yvuovf59wipgxxflzhxwdchjxp,3wq3b2kgectxbi45temzv469jh0b1x,pH7fWVbP,2020-0188,2020-05-08,07:13:08,07:28:55,NA,incomplete,1,shape,1,right,Red_Triangle_Grid_3.jpg,Blue_Circle_Grid_4.jpg,Purple_Triangle_Dots_2.jpg,left,1135.3000000090105,false,high,NA,NA,NA,NA,NA,NA,NA,false
pH7fWVbP,3en4yvuovf59wipgxxflzhxwdchjxp,3wq3b2kgectxbi45temzv469jh0b1x,pH7fWVbP,2020-0188,2020-05-08,07:13:08,07:28:55,NA,incomplete,2,shape,1,left,Green_Triangle_Dots_3.jpg,Red_Triangle_Stripes_2.jpg,Blue_Star_Dots_1.jpg,right,1383.50999999966,false,high,NA,NA,NA,NA,NA,NA,NA,false
pH7fWVbP,3en4yvuovf59wipgxxflzhxwdchjxp,3wq3b2kgectxbi45temzv469jh0b1x,pH7fWVbP,2020-0188,2020-05-08,07:13:08,07:28:55,NA,incomplete,3,shape,1,left,Red_Plus_Chess_4.jpg,Blue_Plus_Dots_2.jpg,Purple_Circle_Chess_1.jpg,left,901.769999996759,true,high,NA,NA,NA,NA,NA,NA,NA,false
pH7fWVbP,3en4yvuovf59wipgxxflzhxwdchjxp,3wq3b2kgectxbi45temzv469jh0b1x,pH7fWVbP,2020-0188,2020-05-08,07:13:08,07:28:55,NA,incomplete,4,shape,1,right,Red_Star_Chess_4.jpg,Blue_Triangle_Chess_1.jpg,Green_Star_Grid_2.jpg,right,822.1449999982724,true,high,NA,NA,NA,NA,NA,NA,NA,false
pH7fWVbP,3en4yvuovf59wipgxxflzhxwdchjxp,3wq3b2kgectxbi45temzv469jh0b1x,pH7fWVbP,2020-0188,2020-05-08,07:13:08,07:28:55,NA,incomplete,5,shape,1,left,Purple_Circle_Stripes_4.jpg,Red_Circle_Grid_1.jpg,Blue_Triangle_Stripes_3.jpg,left,889.275000008638,true,high,NA,NA,NA,NA,NA,NA,NA,false
pH7fWVbP,3en4yvuovf59wipgxxflzhxwdchjxp,3wq3b2kgectxbi45temzv469jh0b1x,pH7fWVbP,2020-0188,2020-05-08,07:13:08,07:28:55,NA,incomplete,6,shape,1,right,Red_Circle_Chess_4.jpg,Purple_Star_Chess_3.jpg,Blue_Circle_Dots_2.jpg,right,706.9900000060443,true,high,NA,NA,NA,NA,NA,NA,NA,false
pH7fWVbP,3en4yvuovf59wipgxxflzhxwdchjxp,3wq3b2kgectxbi45temzv469jh0b1x,pH7fWVbP,2020-0188,2020-05-08,07:13:08,07:28:55,NA,incomplete,7,shape,1,right,Red_Triangle_Chess_2.jpg,Green_Circle_Chess_4.jpg,Blue_Triangle_Grid_1.jpg,right,707.4500000016997,true,high,NA,NA,NA,NA,NA,NA,NA,false
pH7fWVbP,3en4yvuovf59wipgxxflzhxwdchjxp,3wq3b2kgectxbi45temzv469jh0b1x,pH7fWVbP,2020-0188,2020-05-08,07:13:08,07:28:55,NA,incomplete,8,shape,1,right,Blue_Circle_Chess_2.jpg,Green_Plus_Chess_4.jpg,Purple_Circle_Stripes_1.jpg,right,804.8200000048382,true,high,NA,NA,NA,NA,NA,NA,NA,false
pH7fWVbP,3en4yvuovf59wipgxxflzhxwdchjxp,3wq3b2kgectxbi45temzv469jh0b1x,pH7fWVbP,2020-0188,2020-05-08,07:13:08,07:28:55,NA,incomplete,9,shape,1,left,Blue_Star_Dots_4.jpg,Green_Star_Chess_3.jpg,Red_Triangle_Dots_1.jpg,left,856.6800000116928,true,high,NA,NA,NA,NA,NA,NA,NA,false
pH7fWVbP,3en4yvuovf59wipgxxflzhxwdchjxp,3wq3b2kgectxbi45temzv469jh0b1x,pH7fWVbP,2020-0188,2020-05-08,07:13:08,07:28:55,NA,incomplete,10,filling,0,left,Blue_Star_Grid_2.jpg,Red_Plus_Grid_4.jpg,Purple_Star_Chess_3.jpg,right,626.6800000012154,false,high,NA,NA,NA,NA,NA,NA,NA,false
pH7fWVbP,3en4yvuovf59wipgxxflzhxwdchjxp,3wq3b2kgectxbi45temzv469jh0b1x,pH7fWVbP,2020-0188,2020-05-08,07:13:08,07:28:55,NA,incomplete,11,filling,1,left,Green_Triangle_Grid_1.jpg,Blue_Circle_Grid_2.jpg,Red_Triangle_Chess_3.jpg,right,712.52000000095,false,high,NA,NA,NA,NA,NA,NA,NA,false
pH7fWVbP,3en4yvuovf59wipgxxflzhxwdchjxp,3wq3b2kgectxbi45temzv469jh0b1x,pH7fWVbP,2020-0188,2020-05-08,07:13:08,07:28:55,NA,incomplete,12,filling,0,left,Green_Circle_Chess_3.jpg,Red_Triangle_Chess_4.jpg,Blue_Circle_Grid_1.jpg,right,816.0449999995762,false,high,NA,NA,NA,NA,NA,NA,NA,false
pH7fWVbP,3en4yvuovf59wipgxxflzhxwdchjxp,3wq3b2kgectxbi45temzv469jh0b1x,pH7fWVbP,2020-0188,2020-05-08,07:13:08,07:28:55,NA,incomplete,13,filling,1,left,Blue_Circle_Grid_2.jpg,Purple_Triangle_Grid_4.jpg,Green_Circle_Chess_1.jpg,right,580.5149999941932,false,high,NA,NA,NA,NA,NA,NA,NA,false
pH7fWVbP,3en4yvuovf59wipgxxflzhxwdchjxp,3wq3b2kgectxbi45temzv469jh0b1x,pH7fWVbP,2020-0188,2020-05-08,07:13:08,07:28:55,NA,incomplete,14,filling,1,right,Green_Plus_Stripes_3.jpg,Blue_Plus_Chess_2.jpg,Red_Triangle_Stripes_1.jpg,left,945.5949999974109,false,high,NA,NA,NA,NA,NA,NA,NA,false
pH7fWVbP,3en4yvuovf59wipgxxflzhxwdchjxp,3wq3b2kgectxbi45temzv469jh0b1x,pH7fWVbP,2020-0188,2020-05-08,07:13:08,07:28:55,NA,incomplete,15,filling,0,left,Red_Circle_Stripes_1.jpg,Blue_Star_Stripes_4.jpg,Purple_Circle_Chess_3.jpg,right,825.5000000062864,false,high,NA,NA,NA,NA,NA,NA,NA,false
pH7fWVbP,3en4yvuovf59wipgxxflzhxwdchjxp,3wq3b2kgectxbi45temzv469jh0b1x,pH7fWVbP,2020-0188,2020-05-08,07:13:08,07:28:55,NA,incomplete,16,filling,1,left,Red_Triangle_Stripes_1.jpg,Purple_Plus_Stripes_3.jpg,Green_Triangle_Dots_4.jpg,right,805.7299999927636,false,high,NA,NA,NA,NA,NA,NA,NA,false
pH7fWVbP,3en4yvuovf59wipgxxflzhxwdchjxp,3wq3b2kgectxbi45temzv469jh0b1x,pH7fWVbP,2020-0188,2020-05-08,07:13:08,07:28:55,NA,incomplete,17,filling,1,right,Purple_Star_Grid_3.jpg,Green_Star_Chess_4.jpg,Blue_Plus_Grid_1.jpg,left,907.3950000019977,false,high,NA,NA,NA,NA,NA,NA,NA,false
pH7fWVbP,3en4yvuovf59wipgxxflzhxwdchjxp,3wq3b2kgectxbi45temzv469jh0b1x,pH7fWVbP,2020-0188,2020-05-08,07:13:08,07:28:55,NA,incomplete,18,filling,1,right,Purple_Triangle_Stripes_4.jpg,Red_Triangle_Chess_1.jpg,Green_Plus_Stripes_2.jpg,left,1132.1699999971315,false,high,NA,NA,NA,NA,NA,NA,NA,false
pH7fWVbP,3en4yvuovf59wipgxxflzhxwdchjxp,3wq3b2kgectxbi45temzv469jh0b1x,pH7fWVbP,2020-0188,2020-05-08,07:13:08,07:28:55,NA,incomplete,19,filling,0,left,Green_Triangle_Dots_4.jpg,Red_Star_Dots_3.jpg,Purple_Triangle_Grid_1.jpg,left,1715.0499999988824,true,high,NA,NA,NA,NA,NA,NA,NA,false
pH7fWVbP,3en4yvuovf59wipgxxflzhxwdchjxp,3wq3b2kgectxbi45temzv469jh0b1x,pH7fWVbP,2020-0188,2020-05-08,07:13:08,07:28:55,NA,incomplete,20,shape,1,right,Green_Star_Grid_4.jpg,Red_Plus_Grid_2.jpg,Purple_Star_Chess_1.jpg,right,667.9149999981746,true,high,NA,NA,NA,NA,NA,NA,NA,false
pH7fWVbP,3en4yvuovf59wipgxxflzhxwdchjxp,3wq3b2kgectxbi45temzv469jh0b1x,pH7fWVbP,2020-0188,2020-05-08,07:13:08,07:28:55,NA,incomplete,21,shape,1,right,Blue_Plus_Dots_2.jpg,Green_Triangle_Dots_3.jpg,Red_Plus_Stripes_1.jpg,right,765.2699999889592,true,high,NA,NA,NA,NA,NA,NA,NA,false
pH7fWVbP,3en4yvuovf59wipgxxflzhxwdchjxp,3wq3b2kgectxbi45temzv469jh0b1x,pH7fWVbP,2020-0188,2020-05-08,07:13:08,07:28:55,NA,incomplete,22,shape,0,left,Green_Plus_Stripes_3.jpg,Purple_Plus_Grid_1.jpg,Blue_Circle_Stripes_2.jpg,left,708.0299999943236,true,high,NA,NA,NA,NA,NA,NA,NA,false
pH7fWVbP,3en4yvuovf59wipgxxflzhxwdchjxp,3wq3b2kgectxbi45temzv469jh0b1x,pH7fWVbP,2020-0188,2020-05-08,07:13:08,07:28:55,NA,incomplete,23,shape,0,right,Blue_Star_Chess_4.jpg,Red_Plus_Chess_1.jpg,Green_Star_Stripes_3.jpg,right,620.8849999966333,true,high,NA,NA,NA,NA,NA,NA,NA,false
pH7fWVbP,3en4yvuovf59wipgxxflzhxwdchjxp,3wq3b2kgectxbi45temzv469jh0b1x,pH7fWVbP,2020-0188,2020-05-08,07:13:08,07:28:55,NA,incomplete,24,shape,0,left,Green_Triangle_Grid_3.jpg,Blue_Triangle_Dots_4.jpg,Red_Star_Grid_2.jpg,left,1616.6799999919022,true,high,NA,NA,NA,NA,NA,NA,NA,false
pH7fWVbP,3en4yvuovf59wipgxxflzhxwdchjxp,3wq3b2kgectxbi45temzv469jh0b1x,pH7fWVbP,2020-0188,2020-05-08,07:13:08,07:28:55,NA,incomplete,25,shape,1,right,Purple_Star_Grid_1.jpg,Blue_Plus_Grid_4.jpg,Red_Star_Stripes_3.jpg,right,749.6700000046985,true,high,NA,NA,NA,NA,NA,NA,NA,false
pH7fWVbP,3en4yvuovf59wipgxxflzhxwdchjxp,3wq3b2kgectxbi45temzv469jh0b1x,pH7fWVbP,2020-0188,2020-05-08,07:13:08,07:28:55,NA,incomplete,26,shape,1,right,Blue_Plus_Stripes_2.jpg,Purple_Star_Stripes_1.jpg,Red_Plus_Dots_3.jpg,right,605.4650000005495,true,high,NA,NA,NA,NA,NA,NA,NA,false
pH7fWVbP,3en4yvuovf59wipgxxflzhxwdchjxp,3wq3b2kgectxbi45temzv469jh0b1x,pH7fWVbP,2020-0188,2020-05-08,07:13:08,07:28:55,NA,incomplete,27,shape,1,right,Purple_Plus_Grid_1.jpg,Red_Triangle_Grid_4.jpg,Green_Plus_Dots_3.jpg,right,769.1000000049826,true,high,NA,NA,NA,NA,NA,NA,NA,false
pH7fWVbP,3en4yvuovf59wipgxxflzhxwdchjxp,3wq3b2kgectxbi45temzv469jh0b1x,pH7fWVbP,2020-0188,2020-05-08,07:13:08,07:28:55,NA,incomplete,28,shape,1,left,Purple_Circle_Chess_1.jpg,Green_Circle_Stripes_4.jpg,Red_Triangle_Chess_3.jpg,left,1038.509999998496,true,high,NA,NA,NA,NA,NA,NA,NA,false
pH7fWVbP,3en4yvuovf59wipgxxflzhxwdchjxp,3wq3b2kgectxbi45temzv469jh0b1x,pH7fWVbP,2020-0188,2020-05-08,07:13:08,07:28:55,NA,incomplete,29,shape,1,left,Red_Triangle_Dots_4.jpg,Blue_Triangle_Stripes_2.jpg,Green_Star_Dots_1.jpg,left,778.9650000049733,true,high,NA,NA,NA,NA,NA,NA,NA,false
pH7fWVbP,3en4yvuovf59wipgxxflzhxwdchjxp,3wq3b2kgectxbi45temzv469jh0b1x,pH7fWVbP,2020-0188,2020-05-08,07:13:08,07:28:55,NA,incomplete,30,filling,1,right,Purple_Circle_Dots_2.jpg,Blue_Circle_Stripes_3.jpg,Red_Plus_Dots_1.jpg,left,720.6250000017462,false,high,NA,NA,NA,NA,NA,NA,NA,false
pH7fWVbP,3en4yvuovf59wipgxxflzhxwdchjxp,3wq3b2kgectxbi45temzv469jh0b1x,pH7fWVbP,2020-0188,2020-05-08,07:13:08,07:28:55,NA,incomplete,31,filling,1,right,Red_Circle_Chess_3.jpg,Green_Circle_Stripes_1.jpg,Blue_Star_Chess_2.jpg,right,1177.0200000028126,true,high,NA,NA,NA,NA,NA,NA,NA,false
pH7fWVbP,3en4yvuovf59wipgxxflzhxwdchjxp,3wq3b2kgectxbi45temzv469jh0b1x,pH7fWVbP,2020-0188,2020-05-08,07:13:08,07:28:55,NA,incomplete,32,filling,1,left,Blue_Triangle_Chess_3.jpg,Red_Plus_Chess_1.jpg,Green_Triangle_Dots_2.jpg,left,1567.0649999956368,true,high,NA,NA,NA,NA,NA,NA,NA,false
pH7fWVbP,3en4yvuovf59wipgxxflzhxwdchjxp,3wq3b2kgectxbi45temzv469jh0b1x,pH7fWVbP,2020-0188,2020-05-08,07:13:08,07:28:55,NA,incomplete,33,filling,1,left,Green_Plus_Dots_3.jpg,Red_Star_Dots_4.jpg,Purple_Plus_Stripes_1.jpg,left,1429.3600000091828,true,high,NA,NA,NA,NA,NA,NA,NA,false
pH7fWVbP,3en4yvuovf59wipgxxflzhxwdchjxp,3wq3b2kgectxbi45temzv469jh0b1x,pH7fWVbP,2020-0188,2020-05-08,07:13:08,07:28:55,NA,incomplete,34,filling,1,left,Purple_Triangle_Grid_1.jpg,Red_Circle_Grid_3.jpg,Green_Triangle_Chess_2.jpg,left,1264.949999997043,true,high,NA,NA,NA,NA,NA,NA,NA,false
pH7fWVbP,3en4yvuovf59wipgxxflzhxwdchjxp,3wq3b2kgectxbi45temzv469jh0b1x,pH7fWVbP,2020-0188,2020-05-08,07:13:08,07:28:55,NA,incomplete,35,filling,1,right,Blue_Circle_Grid_1.jpg,Red_Circle_Stripes_4.jpg,Green_Star_Grid_3.jpg,right,1220.3799999988405,true,high,NA,NA,NA,NA,NA,NA,NA,false
pH7fWVbP,3en4yvuovf59wipgxxflzhxwdchjxp,3wq3b2kgectxbi45temzv469jh0b1x,pH7fWVbP,2020-0188,2020-05-08,07:13:08,07:28:55,NA,incomplete,36,filling,0,left,Green_Circle_Grid_4.jpg,Blue_Plus_Grid_3.jpg,Red_Circle_Stripes_2.jpg,left,1687.5850000069477,true,high,NA,NA,NA,NA,NA,NA,NA,false
pH7fWVbP,3en4yvuovf59wipgxxflzhxwdchjxp,3wq3b2kgectxbi45temzv469jh0b1x,pH7fWVbP,2020-0188,2020-05-08,07:13:08,07:28:55,NA,incomplete,37,filling,1,left,Green_Circle_Grid_1.jpg,Red_Star_Grid_3.jpg,Purple_Circle_Stripes_2.jpg,right,578.0899999954272,false,high,NA,NA,NA,NA,NA,NA,NA,false
pH7fWVbP,3en4yvuovf59wipgxxflzhxwdchjxp,3wq3b2kgectxbi45temzv469jh0b1x,pH7fWVbP,2020-0188,2020-05-08,07:13:08,07:28:55,NA,incomplete,38,filling,1,left,Green_Triangle_Dots_3.jpg,Blue_Circle_Dots_4.jpg,Purple_Triangle_Grid_1.jpg,right,767.90500000061,false,high,NA,NA,NA,NA,NA,NA,NA,false
pH7fWVbP,3en4yvuovf59wipgxxflzhxwdchjxp,3wq3b2kgectxbi45temzv469jh0b1x,pH7fWVbP,2020-0188,2020-05-08,07:13:08,07:28:55,NA,incomplete,39,filling,1,right,Purple_Star_Dots_3.jpg,Blue_Star_Grid_2.jpg,Red_Circle_Dots_4.jpg,right,1340.7549999974435,true,high,NA,NA,NA,NA,NA,NA,NA,false
pH7fWVbP,3en4yvuovf59wipgxxflzhxwdchjxp,3wq3b2kgectxbi45temzv469jh0b1x,pH7fWVbP,2020-0188,2020-05-08,07:13:08,07:28:55,NA,incomplete,40,shape,1,right,Green_Plus_Stripes_2.jpg,Blue_Circle_Stripes_4.jpg,Red_Plus_Dots_1.jpg,left,949.5049999968614,false,high,NA,NA,NA,NA,NA,NA,NA,false
pH7fWVbP,3en4yvuovf59wipgxxflzhxwdchjxp,3wq3b2kgectxbi45temzv469jh0b1x,pH7fWVbP,2020-0188,2020-05-08,07:13:08,07:28:55,NA,incomplete,41,shape,1,left,Blue_Triangle_Stripes_1.jpg,Green_Triangle_Dots_4.jpg,Red_Plus_Stripes_3.jpg,left,860.9449999930803,true,high,NA,NA,NA,NA,NA,NA,NA,false
pH7fWVbP,3en4yvuovf59wipgxxflzhxwdchjxp,3wq3b2kgectxbi45temzv469jh0b1x,pH7fWVbP,2020-0188,2020-05-08,07:13:08,07:28:55,NA,incomplete,42,shape,1,right,Purple_Triangle_Grid_4.jpg,Red_Star_Grid_3.jpg,Blue_Triangle_Chess_1.jpg,right,757.9499999992549,true,high,NA,NA,NA,NA,NA,NA,NA,false
pH7fWVbP,3en4yvuovf59wipgxxflzhxwdchjxp,3wq3b2kgectxbi45temzv469jh0b1x,pH7fWVbP,2020-0188,2020-05-08,07:13:08,07:28:55,NA,incomplete,43,shape,1,right,Purple_Star_Stripes_1.jpg,Red_Plus_Stripes_2.jpg,Green_Star_Chess_4.jpg,left,1238.3549999940442,false,high,NA,NA,NA,NA,NA,NA,NA,false
pH7fWVbP,3en4yvuovf59wipgxxflzhxwdchjxp,3wq3b2kgectxbi45temzv469jh0b1x,pH7fWVbP,2020-0188,2020-05-08,07:13:08,07:28:55,NA,incomplete,44,shape,1,right,Green_Circle_Grid_3.jpg,Purple_Star_Grid_1.jpg,Red_Circle_Dots_4.jpg,right,817.3050000041258,true,high,NA,NA,NA,NA,NA,NA,NA,false
pH7fWVbP,3en4yvuovf59wipgxxflzhxwdchjxp,3wq3b2kgectxbi45temzv469jh0b1x,pH7fWVbP,2020-0188,2020-05-08,07:13:08,07:28:55,NA,incomplete,45,shape,0,right,Blue_Triangle_Chess_1.jpg,Green_Circle_Chess_4.jpg,Purple_Triangle_Grid_3.jpg,right,653.3150000032037,true,high,NA,NA,NA,NA,NA,NA,NA,false
pH7fWVbP,3en4yvuovf59wipgxxflzhxwdchjxp,3wq3b2kgectxbi45temzv469jh0b1x,pH7fWVbP,2020-0188,2020-05-08,07:13:08,07:28:55,NA,incomplete,46,shape,0,left,Purple_Triangle_Stripes_1.jpg,Red_Triangle_Chess_3.jpg,Blue_Plus_Stripes_2.jpg,right,1455.4449999995995,false,high,NA,NA,NA,NA,NA,NA,NA,false
pH7fWVbP,3en4yvuovf59wipgxxflzhxwdchjxp,3wq3b2kgectxbi45temzv469jh0b1x,pH7fWVbP,2020-0188,2020-05-08,07:13:08,07:28:55,NA,incomplete,47,shape,0,right,Purple_Circle_Grid_2.jpg,Red_Plus_Grid_1.jpg,Blue_Circle_Dots_4.jpg,left,987.570000012056,false,high,NA,NA,NA,NA,NA,NA,NA,false
pH7fWVbP,3en4yvuovf59wipgxxflzhxwdchjxp,3wq3b2kgectxbi45temzv469jh0b1x,pH7fWVbP,2020-0188,2020-05-08,07:13:08,07:28:55,NA,incomplete,48,shape,0,left,Red_Circle_Chess_1.jpg,Purple_Circle_Dots_4.jpg,Blue_Triangle_Chess_3.jpg,right,1144.6149999974295,false,high,NA,NA,NA,NA,NA,NA,NA,false
pH7fWVbP,3en4yvuovf59wipgxxflzhxwdchjxp,3wq3b2kgectxbi45temzv469jh0b1x,pH7fWVbP,2020-0188,2020-05-08,07:13:08,07:28:55,NA,incomplete,49,shape,1,left,Green_Triangle_Grid_1.jpg,Blue_Triangle_Dots_3.jpg,Purple_Star_Grid_2.jpg,right,1094.1949999978533,false,high,NA,NA,NA,NA,NA,NA,NA,false
pH7fWVbP,3en4yvuovf59wipgxxflzhxwdchjxp,3wq3b2kgectxbi45temzv469jh0b1x,pH7fWVbP,2020-0188,2020-05-08,07:13:08,07:28:55,NA,incomplete,50,filling,1,right,Blue_Plus_Stripes_4.jpg,Red_Plus_Grid_2.jpg,Purple_Triangle_Stripes_1.jpg,left,1297.4350000004051,false,high,NA,NA,NA,NA,NA,NA,NA,false
pH7fWVbP,3en4yvuovf59wipgxxflzhxwdchjxp,3wq3b2kgectxbi45temzv469jh0b1x,pH7fWVbP,2020-0188,2020-05-08,07:13:08,07:28:55,NA,incomplete,51,filling,1,right,Green_Plus_Grid_2.jpg,Blue_Plus_Stripes_1.jpg,Red_Triangle_Grid_3.jpg,right,1794.2550000007031,true,high,NA,NA,NA,NA,NA,NA,NA,false
pH7fWVbP,3en4yvuovf59wipgxxflzhxwdchjxp,3wq3b2kgectxbi45temzv469jh0b1x,pH7fWVbP,2020-0188,2020-05-08,07:13:08,07:28:55,NA,incomplete,52,filling,1,left,Red_Star_Stripes_2.jpg,Purple_Plus_Stripes_1.jpg,Blue_Star_Chess_3.jpg,left,1471.0049999994226,true,high,NA,NA,NA,NA,NA,NA,NA,false
pH7fWVbP,3en4yvuovf59wipgxxflzhxwdchjxp,3wq3b2kgectxbi45temzv469jh0b1x,pH7fWVbP,2020-0188,2020-05-08,07:13:08,07:28:55,NA,incomplete,53,filling,1,right,Purple_Circle_Grid_3.jpg,Blue_Circle_Chess_4.jpg,Red_Triangle_Grid_1.jpg,right,1401.7199999943841,true,high,NA,NA,NA,NA,NA,NA,NA,false
pH7fWVbP,3en4yvuovf59wipgxxflzhxwdchjxp,3wq3b2kgectxbi45temzv469jh0b1x,pH7fWVbP,2020-0188,2020-05-08,07:13:08,07:28:55,NA,incomplete,54,filling,1,left,Green_Circle_Grid_2.jpg,Red_Plus_Grid_3.jpg,Purple_Circle_Dots_1.jpg,left,1078.9249999943422,true,high,NA,NA,NA,NA,NA,NA,NA,false
pH7fWVbP,3en4yvuovf59wipgxxflzhxwdchjxp,3wq3b2kgectxbi45temzv469jh0b1x,pH7fWVbP,2020-0188,2020-05-08,07:13:08,07:28:55,NA,incomplete,55,filling,1,left,Green_Triangle_Grid_2.jpg,Red_Circle_Grid_4.jpg,Blue_Triangle_Dots_1.jpg,left,1072.3350000043865,true,high,NA,NA,NA,NA,NA,NA,NA,false
pH7fWVbP,3en4yvuovf59wipgxxflzhxwdchjxp,3wq3b2kgectxbi45temzv469jh0b1x,pH7fWVbP,2020-0188,2020-05-08,07:13:08,07:28:55,NA,incomplete,56,filling,1,left,Purple_Plus_Grid_1.jpg,Green_Triangle_Grid_3.jpg,Blue_Plus_Chess_2.jpg,left,1490.44499998854,true,high,NA,NA,NA,NA,NA,NA,NA,false
pH7fWVbP,3en4yvuovf59wipgxxflzhxwdchjxp,3wq3b2kgectxbi45temzv469jh0b1x,pH7fWVbP,2020-0188,2020-05-08,07:13:08,07:28:55,NA,incomplete,57,filling,1,right,Blue_Circle_Chess_2.jpg,Green_Circle_Dots_4.jpg,Red_Star_Chess_3.jpg,right,1067.960000000312,true,high,NA,NA,NA,NA,NA,NA,NA,false
pH7fWVbP,3en4yvuovf59wipgxxflzhxwdchjxp,3wq3b2kgectxbi45temzv469jh0b1x,pH7fWVbP,2020-0188,2020-05-08,07:13:08,07:28:55,NA,incomplete,58,filling,1,right,Green_Circle_Stripes_1.jpg,Red_Circle_Chess_3.jpg,Purple_Star_Stripes_4.jpg,right,1174.5049999881303,true,high,NA,NA,NA,NA,NA,NA,NA,false
pH7fWVbP,3en4yvuovf59wipgxxflzhxwdchjxp,3wq3b2kgectxbi45temzv469jh0b1x,pH7fWVbP,2020-0188,2020-05-08,07:13:08,07:28:55,NA,incomplete,59,filling,1,left,Purple_Star_Grid_1.jpg,Red_Plus_Grid_2.jpg,Green_Star_Dots_3.jpg,left,1075.6750000000466,true,high,NA,NA,NA,NA,NA,NA,NA,false
pH7fWVbP,3en4yvuovf59wipgxxflzhxwdchjxp,3wq3b2kgectxbi45temzv469jh0b1x,pH7fWVbP,2020-0188,2020-05-08,07:13:08,07:28:55,NA,incomplete,60,shape,0,right,Green_Star_Dots_4.jpg,Blue_Plus_Dots_2.jpg,Red_Star_Grid_3.jpg,left,1469.0249999985099,false,high,NA,NA,NA,NA,NA,NA,NA,false
pH7fWVbP,3en4yvuovf59wipgxxflzhxwdchjxp,3wq3b2kgectxbi45temzv469jh0b1x,pH7fWVbP,2020-0188,2020-05-08,07:13:08,07:28:55,NA,incomplete,61,shape,1,left,Purple_Circle_Dots_1.jpg,Green_Circle_Stripes_4.jpg,Blue_Triangle_Dots_2.jpg,right,1040.1050000073155,false,high,NA,NA,NA,NA,NA,NA,NA,false
pH7fWVbP,3en4yvuovf59wipgxxflzhxwdchjxp,3wq3b2kgectxbi45temzv469jh0b1x,pH7fWVbP,2020-0188,2020-05-08,07:13:08,07:28:55,NA,incomplete,62,shape,1,left,Green_Circle_Grid_2.jpg,Purple_Circle_Stripes_1.jpg,Blue_Plus_Grid_3.jpg,left,948.0400000029476,true,high,NA,NA,NA,NA,NA,NA,NA,false
pH7fWVbP,3en4yvuovf59wipgxxflzhxwdchjxp,3wq3b2kgectxbi45temzv469jh0b1x,pH7fWVbP,2020-0188,2020-05-08,07:13:08,07:28:55,NA,incomplete,63,shape,1,right,Green_Plus_Chess_4.jpg,Blue_Triangle_Chess_2.jpg,Red_Plus_Stripes_1.jpg,right,1299.2799999919953,true,high,NA,NA,NA,NA,NA,NA,NA,false
pH7fWVbP,3en4yvuovf59wipgxxflzhxwdchjxp,3wq3b2kgectxbi45temzv469jh0b1x,pH7fWVbP,2020-0188,2020-05-08,07:13:08,07:28:55,NA,incomplete,64,shape,1,left,Red_Circle_Chess_3.jpg,Purple_Circle_Dots_1.jpg,Blue_Plus_Chess_2.jpg,left,1004.769999999553,true,high,NA,NA,NA,NA,NA,NA,NA,false
pH7fWVbP,3en4yvuovf59wipgxxflzhxwdchjxp,3wq3b2kgectxbi45temzv469jh0b1x,pH7fWVbP,2020-0188,2020-05-08,07:13:08,07:28:55,NA,incomplete,65,shape,1,left,Red_Plus_Grid_4.jpg,Blue_Plus_Chess_1.jpg,Purple_Circle_Grid_3.jpg,left,857.3699999978999,true,high,NA,NA,NA,NA,NA,NA,NA,false
pH7fWVbP,3en4yvuovf59wipgxxflzhxwdchjxp,3wq3b2kgectxbi45temzv469jh0b1x,pH7fWVbP,2020-0188,2020-05-08,07:13:08,07:28:55,NA,incomplete,66,shape,1,left,Purple_Plus_Chess_4.jpg,Green_Plus_Stripes_3.jpg,Blue_Triangle_Chess_1.jpg,left,700.23499999661,true,high,NA,NA,NA,NA,NA,NA,NA,false
pH7fWVbP,3en4yvuovf59wipgxxflzhxwdchjxp,3wq3b2kgectxbi45temzv469jh0b1x,pH7fWVbP,2020-0188,2020-05-08,07:13:08,07:28:55,NA,incomplete,67,shape,1,right,Blue_Circle_Chess_2.jpg,Red_Plus_Chess_4.jpg,Green_Circle_Dots_3.jpg,right,845.9000000002561,true,high,NA,NA,NA,NA,NA,NA,NA,false
pH7fWVbP,3en4yvuovf59wipgxxflzhxwdchjxp,3wq3b2kgectxbi45temzv469jh0b1x,pH7fWVbP,2020-0188,2020-05-08,07:13:08,07:28:55,NA,incomplete,68,shape,1,left,Red_Triangle_Grid_4.jpg,Purple_Triangle_Chess_2.jpg,Blue_Star_Grid_3.jpg,left,791.8050000007497,true,high,NA,NA,NA,NA,NA,NA,NA,false
pH7fWVbP,3en4yvuovf59wipgxxflzhxwdchjxp,3wq3b2kgectxbi45temzv469jh0b1x,pH7fWVbP,2020-0188,2020-05-08,07:13:08,07:28:55,NA,incomplete,69,shape,0,left,Purple_Plus_Stripes_1.jpg,Green_Plus_Grid_2.jpg,Red_Circle_Stripes_3.jpg,left,693.4349999937695,true,high,NA,NA,NA,NA,NA,NA,NA,false
pH7fWVbP,3en4yvuovf59wipgxxflzhxwdchjxp,3wq3b2kgectxbi45temzv469jh0b1x,pH7fWVbP,2020-0188,2020-05-08,07:13:08,07:28:55,NA,incomplete,70,filling,1,left,Purple_Star_Chess_3.jpg,Red_Circle_Chess_1.jpg,Blue_Star_Stripes_2.jpg,left,1821.8750000087311,true,high,NA,NA,NA,NA,NA,NA,NA,false
pH7fWVbP,3en4yvuovf59wipgxxflzhxwdchjxp,3wq3b2kgectxbi45temzv469jh0b1x,pH7fWVbP,2020-0188,2020-05-08,07:13:08,07:28:55,NA,incomplete,71,filling,1,left,Blue_Star_Chess_4.jpg,Red_Triangle_Chess_3.jpg,Green_Star_Grid_2.jpg,left,1107.4299999891082,true,high,NA,NA,NA,NA,NA,NA,NA,false
pH7fWVbP,3en4yvuovf59wipgxxflzhxwdchjxp,3wq3b2kgectxbi45temzv469jh0b1x,pH7fWVbP,2020-0188,2020-05-08,07:13:08,07:28:55,NA,incomplete,72,filling,0,left,Purple_Star_Stripes_1.jpg,Green_Plus_Stripes_2.jpg,Blue_Star_Grid_3.jpg,left,1035.7599999988452,true,high,NA,NA,NA,NA,NA,NA,NA,false
pH7fWVbP,3en4yvuovf59wipgxxflzhxwdchjxp,3wq3b2kgectxbi45temzv469jh0b1x,pH7fWVbP,2020-0188,2020-05-08,07:13:08,07:28:55,NA,incomplete,73,filling,1,right,Green_Plus_Chess_3.jpg,Red_Plus_Dots_1.jpg,Purple_Star_Chess_4.jpg,left,815.1199999992969,false,high,NA,NA,NA,NA,NA,NA,NA,false
pH7fWVbP,3en4yvuovf59wipgxxflzhxwdchjxp,3wq3b2kgectxbi45temzv469jh0b1x,pH7fWVbP,2020-0188,2020-05-08,07:13:08,07:28:55,NA,incomplete,74,filling,1,right,Purple_Triangle_Dots_1.jpg,Green_Triangle_Grid_3.jpg,Red_Circle_Dots_2.jpg,right,954.9700000061421,true,high,NA,NA,NA,NA,NA,NA,NA,false
pH7fWVbP,3en4yvuovf59wipgxxflzhxwdchjxp,3wq3b2kgectxbi45temzv469jh0b1x,pH7fWVbP,2020-0188,2020-05-08,07:13:08,07:28:55,NA,incomplete,75,filling,1,left,Red_Plus_Chess_1.jpg,Blue_Triangle_Chess_4.jpg,Green_Plus_Grid_2.jpg,left,1058.950000006007,true,high,NA,NA,NA,NA,NA,NA,NA,false
pH7fWVbP,3en4yvuovf59wipgxxflzhxwdchjxp,3wq3b2kgectxbi45temzv469jh0b1x,pH7fWVbP,2020-0188,2020-05-08,07:13:08,07:28:55,NA,incomplete,76,filling,1,right,Green_Triangle_Chess_1.jpg,Red_Triangle_Stripes_2.jpg,Blue_Circle_Chess_3.jpg,right,1027.4649999919347,true,high,NA,NA,NA,NA,NA,NA,NA,false
pH7fWVbP,3en4yvuovf59wipgxxflzhxwdchjxp,3wq3b2kgectxbi45temzv469jh0b1x,pH7fWVbP,2020-0188,2020-05-08,07:13:08,07:28:55,NA,incomplete,77,filling,1,left,Green_Triangle_Stripes_2.jpg,Purple_Star_Stripes_1.jpg,Red_Triangle_Dots_3.jpg,left,1120.4799999977695,true,high,NA,NA,NA,NA,NA,NA,NA,false
pH7fWVbP,3en4yvuovf59wipgxxflzhxwdchjxp,3wq3b2kgectxbi45temzv469jh0b1x,pH7fWVbP,2020-0188,2020-05-08,07:13:08,07:28:55,NA,incomplete,78,filling,1,right,Purple_Circle_Stripes_2.jpg,Red_Circle_Chess_4.jpg,Green_Plus_Stripes_1.jpg,right,985.5000000097789,true,high,NA,NA,NA,NA,NA,NA,NA,false
pH7fWVbP,3en4yvuovf59wipgxxflzhxwdchjxp,3wq3b2kgectxbi45temzv469jh0b1x,pH7fWVbP,2020-0188,2020-05-08,07:13:08,07:28:55,NA,incomplete,79,filling,1,right,Green_Star_Stripes_4.jpg,Blue_Star_Dots_3.jpg,Red_Circle_Stripes_2.jpg,right,1182.0350000052713,true,high,NA,NA,NA,NA,NA,NA,NA,false
pH7fWVbP,3en4yvuovf59wipgxxflzhxwdchjxp,3wq3b2kgectxbi45temzv469jh0b1x,pH7fWVbP,2020-0188,2020-05-08,07:13:08,07:28:55,NA,incomplete,80,shape,0,right,Red_Star_Stripes_2.jpg,Blue_Triangle_Stripes_3.jpg,Purple_Star_Dots_4.jpg,left,1052.5500000076136,false,high,NA,NA,NA,NA,NA,NA,NA,false
pH7fWVbP,3en4yvuovf59wipgxxflzhxwdchjxp,3wq3b2kgectxbi45temzv469jh0b1x,pH7fWVbP,2020-0188,2020-05-08,07:13:08,07:28:55,NA,incomplete,81,shape,1,left,Blue_Triangle_Stripes_3.jpg,Purple_Triangle_Dots_1.jpg,Green_Star_Stripes_2.jpg,right,958.7699999974575,false,high,NA,NA,NA,NA,NA,NA,NA,false
pH7fWVbP,3en4yvuovf59wipgxxflzhxwdchjxp,3wq3b2kgectxbi45temzv469jh0b1x,pH7fWVbP,2020-0188,2020-05-08,07:13:08,07:28:55,NA,incomplete,82,shape,0,right,Purple_Star_Dots_2.jpg,Green_Plus_Dots_1.jpg,Blue_Star_Stripes_4.jpg,right,949.6599999984028,true,high,NA,NA,NA,NA,NA,NA,NA,false
pH7fWVbP,3en4yvuovf59wipgxxflzhxwdchjxp,3wq3b2kgectxbi45temzv469jh0b1x,pH7fWVbP,2020-0188,2020-05-08,07:13:08,07:28:55,NA,incomplete,83,shape,1,left,Red_Circle_Chess_4.jpg,Purple_Circle_Dots_2.jpg,Blue_Plus_Chess_3.jpg,left,588.7999999977183,true,high,NA,NA,NA,NA,NA,NA,NA,false
pH7fWVbP,3en4yvuovf59wipgxxflzhxwdchjxp,3wq3b2kgectxbi45temzv469jh0b1x,pH7fWVbP,2020-0188,2020-05-08,07:13:08,07:28:55,NA,incomplete,84,shape,1,left,Red_Plus_Chess_1.jpg,Green_Plus_Dots_4.jpg,Purple_Triangle_Chess_3.jpg,left,841.0850000072969,true,high,NA,NA,NA,NA,NA,NA,NA,false
pH7fWVbP,3en4yvuovf59wipgxxflzhxwdchjxp,3wq3b2kgectxbi45temzv469jh0b1x,pH7fWVbP,2020-0188,2020-05-08,07:13:08,07:28:55,NA,incomplete,85,shape,1,left,Red_Triangle_Grid_2.jpg,Blue_Triangle_Chess_3.jpg,Green_Plus_Grid_1.jpg,left,654.1200000065146,true,high,NA,NA,NA,NA,NA,NA,NA,false
pH7fWVbP,3en4yvuovf59wipgxxflzhxwdchjxp,3wq3b2kgectxbi45temzv469jh0b1x,pH7fWVbP,2020-0188,2020-05-08,07:13:08,07:28:55,NA,incomplete,86,shape,1,left,Purple_Triangle_Grid_4.jpg,Blue_Triangle_Chess_3.jpg,Red_Circle_Grid_2.jpg,left,598.8000000070315,true,high,NA,NA,NA,NA,NA,NA,NA,false
pH7fWVbP,3en4yvuovf59wipgxxflzhxwdchjxp,3wq3b2kgectxbi45temzv469jh0b1x,pH7fWVbP,2020-0188,2020-05-08,07:13:08,07:28:55,NA,incomplete,87,shape,1,left,Green_Triangle_Dots_4.jpg,Blue_Triangle_Stripes_3.jpg,Red_Plus_Dots_1.jpg,left,549.0200000058394,true,high,NA,NA,NA,NA,NA,NA,NA,false
pH7fWVbP,3en4yvuovf59wipgxxflzhxwdchjxp,3wq3b2kgectxbi45temzv469jh0b1x,pH7fWVbP,2020-0188,2020-05-08,07:13:08,07:28:55,NA,incomplete,88,shape,1,right,Red_Triangle_Grid_2.jpg,Blue_Star_Grid_1.jpg,Green_Triangle_Dots_3.jpg,right,659.4800000020768,true,high,NA,NA,NA,NA,NA,NA,NA,false
pH7fWVbP,3en4yvuovf59wipgxxflzhxwdchjxp,3wq3b2kgectxbi45temzv469jh0b1x,pH7fWVbP,2020-0188,2020-05-08,07:13:08,07:28:55,NA,incomplete,89,shape,1,left,Blue_Star_Chess_2.jpg,Purple_Star_Stripes_4.jpg,Red_Plus_Chess_3.jpg,left,760.1349999895319,true,high,NA,NA,NA,NA,NA,NA,NA,false
pH7fWVbP,3en4yvuovf59wipgxxflzhxwdchjxp,3wq3b2kgectxbi45temzv469jh0b1x,pH7fWVbP,2020-0188,2020-05-08,07:13:08,07:28:55,NA,incomplete,90,filling,1,right,Red_Circle_Chess_2.jpg,Blue_Circle_Dots_1.jpg,Green_Plus_Chess_4.jpg,left,558.1949999905191,false,high,NA,NA,NA,NA,NA,NA,NA,false
pH7fWVbP,3en4yvuovf59wipgxxflzhxwdchjxp,3wq3b2kgectxbi45temzv469jh0b1x,pH7fWVbP,2020-0188,2020-05-08,07:13:08,07:28:55,NA,incomplete,91,filling,1,left,Red_Plus_Grid_3.jpg,Blue_Triangle_Grid_2.jpg,Green_Plus_Chess_1.jpg,left,1603.8649999973131,true,high,NA,NA,NA,NA,NA,NA,NA,false
pH7fWVbP,3en4yvuovf59wipgxxflzhxwdchjxp,3wq3b2kgectxbi45temzv469jh0b1x,pH7fWVbP,2020-0188,2020-05-08,07:13:08,07:28:55,NA,incomplete,92,filling,1,right,Green_Circle_Grid_4.jpg,Red_Circle_Stripes_1.jpg,Blue_Triangle_Grid_2.jpg,right,992.5249999942025,true,high,NA,NA,NA,NA,NA,NA,NA,false
pH7fWVbP,3en4yvuovf59wipgxxflzhxwdchjxp,3wq3b2kgectxbi45temzv469jh0b1x,pH7fWVbP,2020-0188,2020-05-08,07:13:08,07:28:55,NA,incomplete,93,filling,1,left,Purple_Star_Chess_3.jpg,Blue_Plus_Chess_1.jpg,Green_Star_Dots_2.jpg,left,1062.2149999981048,true,high,NA,NA,NA,NA,NA,NA,NA,false
pH7fWVbP,3en4yvuovf59wipgxxflzhxwdchjxp,3wq3b2kgectxbi45temzv469jh0b1x,pH7fWVbP,2020-0188,2020-05-08,07:13:08,07:28:55,NA,incomplete,94,filling,1,left,Green_Plus_Stripes_1.jpg,Blue_Triangle_Stripes_4.jpg,Red_Plus_Chess_2.jpg,left,1009.2949999962002,true,high,NA,NA,NA,NA,NA,NA,NA,false
pH7fWVbP,3en4yvuovf59wipgxxflzhxwdchjxp,3wq3b2kgectxbi45temzv469jh0b1x,pH7fWVbP,2020-0188,2020-05-08,07:13:08,07:28:55,NA,incomplete,95,filling,1,left,Blue_Triangle_Chess_3.jpg,Purple_Circle_Chess_1.jpg,Green_Triangle_Stripes_2.jpg,left,997.6299999980256,true,high,NA,NA,NA,NA,NA,NA,NA,false
pH7fWVbP,3en4yvuovf59wipgxxflzhxwdchjxp,3wq3b2kgectxbi45temzv469jh0b1x,pH7fWVbP,2020-0188,2020-05-08,07:13:08,07:28:55,NA,incomplete,96,filling,1,left,Blue_Star_Dots_1.jpg,Purple_Triangle_Dots_2.jpg,Green_Star_Grid_4.jpg,left,905.8700000023236,true,high,NA,NA,NA,NA,NA,NA,NA,false
pH7fWVbP,3en4yvuovf59wipgxxflzhxwdchjxp,3wq3b2kgectxbi45temzv469jh0b1x,pH7fWVbP,2020-0188,2020-05-08,07:13:08,07:28:55,NA,incomplete,97,filling,1,right,Purple_Circle_Grid_3.jpg,Green_Circle_Dots_1.jpg,Blue_Triangle_Grid_4.jpg,right,907.695000001695,true,high,NA,NA,NA,NA,NA,NA,NA,false
pH7fWVbP,3en4yvuovf59wipgxxflzhxwdchjxp,3wq3b2kgectxbi45temzv469jh0b1x,pH7fWVbP,2020-0188,2020-05-08,07:13:08,07:28:55,NA,incomplete,98,filling,1,left,Green_Triangle_Dots_2.jpg,Red_Plus_Dots_1.jpg,Blue_Triangle_Grid_3.jpg,left,860.7300000003306,true,high,NA,NA,NA,NA,NA,NA,NA,false
pH7fWVbP,3en4yvuovf59wipgxxflzhxwdchjxp,3wq3b2kgectxbi45temzv469jh0b1x,pH7fWVbP,2020-0188,2020-05-08,07:13:08,07:28:55,NA,incomplete,99,filling,1,right,Purple_Triangle_Dots_3.jpg,Red_Triangle_Stripes_2.jpg,Green_Circle_Dots_4.jpg,right,910.8350000024075,true,high,NA,NA,NA,NA,NA,NA,NA,false
pH7fWVbP,3en4yvuovf59wipgxxflzhxwdchjxp,3wq3b2kgectxbi45temzv469jh0b1x,pH7fWVbP,2020-0188,2020-05-08,07:13:08,07:28:55,NA,incomplete,100,shape,1,right,Red_Star_Grid_3.jpg,Green_Plus_Grid_2.jpg,Purple_Star_Stripes_4.jpg,left,909.7449999972014,false,high,NA,NA,NA,NA,NA,NA,NA,false
pH7fWVbP,3en4yvuovf59wipgxxflzhxwdchjxp,3wq3b2kgectxbi45temzv469jh0b1x,pH7fWVbP,2020-0188,2020-05-08,07:13:08,07:28:55,NA,incomplete,101,shape,0,left,Red_Plus_Grid_2.jpg,Purple_Plus_Chess_1.jpg,Green_Triangle_Grid_3.jpg,right,1007.1250000037253,false,high,NA,NA,NA,NA,NA,NA,NA,false
pH7fWVbP,3en4yvuovf59wipgxxflzhxwdchjxp,3wq3b2kgectxbi45temzv469jh0b1x,pH7fWVbP,2020-0188,2020-05-08,07:13:08,07:28:55,NA,incomplete,102,shape,1,left,Red_Circle_Grid_4.jpg,Blue_Circle_Dots_1.jpg,Purple_Triangle_Grid_3.jpg,right,1012.8700000059325,false,high,NA,NA,NA,NA,NA,NA,NA,false
pH7fWVbP,3en4yvuovf59wipgxxflzhxwdchjxp,3wq3b2kgectxbi45temzv469jh0b1x,pH7fWVbP,2020-0188,2020-05-08,07:13:08,07:28:55,NA,incomplete,103,shape,0,left,Green_Star_Chess_4.jpg,Blue_Star_Grid_3.jpg,Red_Circle_Chess_2.jpg,right,1447.4200000113342,false,high,NA,NA,NA,NA,NA,NA,NA,false
pH7fWVbP,3en4yvuovf59wipgxxflzhxwdchjxp,3wq3b2kgectxbi45temzv469jh0b1x,pH7fWVbP,2020-0188,2020-05-08,07:13:08,07:28:55,NA,incomplete,104,shape,1,left,Green_Circle_Chess_1.jpg,Red_Circle_Grid_3.jpg,Purple_Plus_Chess_2.jpg,right,1106.8450000020675,false,high,NA,NA,NA,NA,NA,NA,NA,false
pH7fWVbP,3en4yvuovf59wipgxxflzhxwdchjxp,3wq3b2kgectxbi45temzv469jh0b1x,pH7fWVbP,2020-0188,2020-05-08,07:13:08,07:28:55,NA,incomplete,105,shape,1,left,Green_Plus_Grid_1.jpg,Red_Plus_Dots_2.jpg,Blue_Circle_Grid_3.jpg,right,981.0700000089128,false,high,NA,NA,NA,NA,NA,NA,NA,false
pH7fWVbP,3en4yvuovf59wipgxxflzhxwdchjxp,3wq3b2kgectxbi45temzv469jh0b1x,pH7fWVbP,2020-0188,2020-05-08,07:13:08,07:28:55,NA,incomplete,106,shape,0,left,Green_Triangle_Chess_3.jpg,Purple_Triangle_Stripes_4.jpg,Blue_Plus_Chess_1.jpg,left,794.7100000019418,true,high,NA,NA,NA,NA,NA,NA,NA,false
pH7fWVbP,3en4yvuovf59wipgxxflzhxwdchjxp,3wq3b2kgectxbi45temzv469jh0b1x,pH7fWVbP,2020-0188,2020-05-08,07:13:08,07:28:55,NA,incomplete,107,shape,1,right,Blue_Circle_Dots_4.jpg,Green_Plus_Dots_2.jpg,Red_Circle_Chess_3.jpg,right,687.8250000008848,true,high,NA,NA,NA,NA,NA,NA,NA,false
pH7fWVbP,3en4yvuovf59wipgxxflzhxwdchjxp,3wq3b2kgectxbi45temzv469jh0b1x,pH7fWVbP,2020-0188,2020-05-08,07:13:08,07:28:55,NA,incomplete,108,shape,1,right,Blue_Star_Grid_2.jpg,Green_Circle_Grid_4.jpg,Red_Star_Dots_3.jpg,right,641.4300000033109,true,high,NA,NA,NA,NA,NA,NA,NA,false
pH7fWVbP,3en4yvuovf59wipgxxflzhxwdchjxp,3wq3b2kgectxbi45temzv469jh0b1x,pH7fWVbP,2020-0188,2020-05-08,07:13:08,07:28:55,NA,incomplete,109,shape,0,right,Green_Star_Dots_2.jpg,Blue_Triangle_Dots_4.jpg,Purple_Star_Chess_3.jpg,right,604.6099999948638,true,high,NA,NA,NA,NA,NA,NA,NA,false
pH7fWVbP,3en4yvuovf59wipgxxflzhxwdchjxp,3wq3b2kgectxbi45temzv469jh0b1x,pH7fWVbP,2020-0188,2020-05-08,07:13:08,07:28:55,NA,incomplete,110,filling,1,left,Blue_Circle_Dots_3.jpg,Red_Plus_Dots_1.jpg,Green_Circle_Grid_2.jpg,right,569.3900000042049,false,high,NA,NA,NA,NA,NA,NA,NA,false
pH7fWVbP,3en4yvuovf59wipgxxflzhxwdchjxp,3wq3b2kgectxbi45temzv469jh0b1x,pH7fWVbP,2020-0188,2020-05-08,07:13:08,07:28:55,NA,incomplete,111,filling,1,right,Purple_Triangle_Chess_2.jpg,Red_Triangle_Stripes_4.jpg,Blue_Star_Chess_3.jpg,left,1047.229999996489,false,high,NA,NA,NA,NA,NA,NA,NA,false
pH7fWVbP,3en4yvuovf59wipgxxflzhxwdchjxp,3wq3b2kgectxbi45temzv469jh0b1x,pH7fWVbP,2020-0188,2020-05-08,07:13:08,07:28:55,NA,incomplete,112,filling,1,right,Blue_Circle_Chess_1.jpg,Red_Circle_Dots_4.jpg,Purple_Triangle_Chess_2.jpg,right,1305.4750000010245,true,high,NA,NA,NA,NA,NA,NA,NA,false
pH7fWVbP,3en4yvuovf59wipgxxflzhxwdchjxp,3wq3b2kgectxbi45temzv469jh0b1x,pH7fWVbP,2020-0188,2020-05-08,07:13:08,07:28:55,NA,incomplete,113,filling,0,left,Red_Plus_Dots_3.jpg,Purple_Triangle_Dots_2.jpg,Blue_Plus_Grid_1.jpg,left,1010.1250000006985,true,high,NA,NA,NA,NA,NA,NA,NA,false
pH7fWVbP,3en4yvuovf59wipgxxflzhxwdchjxp,3wq3b2kgectxbi45temzv469jh0b1x,pH7fWVbP,2020-0188,2020-05-08,07:13:08,07:28:55,NA,incomplete,114,filling,1,left,Blue_Plus_Grid_4.jpg,Green_Triangle_Grid_3.jpg,Red_Plus_Stripes_1.jpg,left,1687.9099999932805,true,high,NA,NA,NA,NA,NA,NA,NA,false
pH7fWVbP,3en4yvuovf59wipgxxflzhxwdchjxp,3wq3b2kgectxbi45temzv469jh0b1x,pH7fWVbP,2020-0188,2020-05-08,07:13:08,07:28:55,NA,incomplete,115,filling,1,right,Purple_Triangle_Dots_2.jpg,Red_Triangle_Chess_1.jpg,Blue_Plus_Dots_4.jpg,left,832.5650000042515,false,high,NA,NA,NA,NA,NA,NA,NA,false
pH7fWVbP,3en4yvuovf59wipgxxflzhxwdchjxp,3wq3b2kgectxbi45temzv469jh0b1x,pH7fWVbP,2020-0188,2020-05-08,07:13:08,07:28:55,NA,incomplete,116,filling,1,left,Purple_Plus_Grid_4.jpg,Green_Star_Grid_1.jpg,Red_Plus_Chess_3.jpg,right,1596.1800000077346,false,high,NA,NA,NA,NA,NA,NA,NA,false
pH7fWVbP,3en4yvuovf59wipgxxflzhxwdchjxp,3wq3b2kgectxbi45temzv469jh0b1x,pH7fWVbP,2020-0188,2020-05-08,07:13:08,07:28:55,NA,incomplete,117,filling,0,left,Green_Circle_Grid_2.jpg,Red_Plus_Grid_3.jpg,Purple_Circle_Stripes_4.jpg,left,1154.275000008056,true,high,NA,NA,NA,NA,NA,NA,NA,false
pH7fWVbP,3en4yvuovf59wipgxxflzhxwdchjxp,3wq3b2kgectxbi45temzv469jh0b1x,pH7fWVbP,2020-0188,2020-05-08,07:13:08,07:28:55,NA,incomplete,118,filling,1,right,Green_Plus_Grid_3.jpg,Purple_Plus_Chess_2.jpg,Red_Star_Grid_1.jpg,right,1439.8050000017975,true,high,NA,NA,NA,NA,NA,NA,NA,false
pH7fWVbP,3en4yvuovf59wipgxxflzhxwdchjxp,3wq3b2kgectxbi45temzv469jh0b1x,pH7fWVbP,2020-0188,2020-05-08,07:13:08,07:28:55,NA,incomplete,119,filling,1,left,Blue_Circle_Grid_4.jpg,Red_Star_Grid_1.jpg,Green_Circle_Stripes_3.jpg,left,1664.904999997816,true,high,NA,NA,NA,NA,NA,NA,NA,false
pH7fWVbP,3en4yvuovf59wipgxxflzhxwdchjxp,3wq3b2kgectxbi45temzv469jh0b1x,pH7fWVbP,2020-0188,2020-05-08,07:13:08,07:28:55,NA,incomplete,120,shape,0,left,Purple_Plus_Chess_1.jpg,Green_Plus_Grid_3.jpg,Red_Circle_Chess_2.jpg,right,1079.9950000073295,false,high,NA,NA,NA,NA,NA,NA,NA,false
pH7fWVbP,3en4yvuovf59wipgxxflzhxwdchjxp,3wq3b2kgectxbi45temzv469jh0b1x,pH7fWVbP,2020-0188,2020-05-08,07:13:08,07:28:55,NA,incomplete,121,shape,1,right,Purple_Triangle_Stripes_3.jpg,Blue_Plus_Stripes_1.jpg,Green_Triangle_Chess_4.jpg,left,1193.344999992405,false,high,NA,NA,NA,NA,NA,NA,NA,false
pH7fWVbP,3en4yvuovf59wipgxxflzhxwdchjxp,3wq3b2kgectxbi45temzv469jh0b1x,pH7fWVbP,2020-0188,2020-05-08,07:13:08,07:28:55,NA,incomplete,122,shape,1,left,Blue_Star_Stripes_2.jpg,Red_Star_Chess_4.jpg,Green_Circle_Stripes_1.jpg,right,1310.2550000039628,false,high,NA,NA,NA,NA,NA,NA,NA,false
pH7fWVbP,3en4yvuovf59wipgxxflzhxwdchjxp,3wq3b2kgectxbi45temzv469jh0b1x,pH7fWVbP,2020-0188,2020-05-08,07:13:08,07:28:55,NA,incomplete,123,shape,0,right,Green_Triangle_Stripes_4.jpg,Red_Star_Stripes_3.jpg,Blue_Triangle_Dots_1.jpg,right,1077.8450000070734,true,high,NA,NA,NA,NA,NA,NA,NA,false
pH7fWVbP,3en4yvuovf59wipgxxflzhxwdchjxp,3wq3b2kgectxbi45temzv469jh0b1x,pH7fWVbP,2020-0188,2020-05-08,07:13:08,07:28:55,NA,incomplete,124,shape,1,right,Purple_Triangle_Dots_4.jpg,Green_Circle_Dots_3.jpg,Blue_Triangle_Grid_2.jpg,right,521.2949999986449,true,high,NA,NA,NA,NA,NA,NA,NA,false
pH7fWVbP,3en4yvuovf59wipgxxflzhxwdchjxp,3wq3b2kgectxbi45temzv469jh0b1x,pH7fWVbP,2020-0188,2020-05-08,07:13:08,07:28:55,NA,incomplete,125,shape,1,right,Red_Plus_Dots_4.jpg,Green_Triangle_Dots_3.jpg,Purple_Plus_Chess_1.jpg,right,665.3000000078464,true,high,NA,NA,NA,NA,NA,NA,NA,false
pH7fWVbP,3en4yvuovf59wipgxxflzhxwdchjxp,3wq3b2kgectxbi45temzv469jh0b1x,pH7fWVbP,2020-0188,2020-05-08,07:13:08,07:28:55,NA,incomplete,126,shape,1,left,Green_Star_Chess_4.jpg,Red_Star_Dots_1.jpg,Blue_Circle_Chess_3.jpg,left,675.8499999996275,true,high,NA,NA,NA,NA,NA,NA,NA,false
pH7fWVbP,3en4yvuovf59wipgxxflzhxwdchjxp,3wq3b2kgectxbi45temzv469jh0b1x,pH7fWVbP,2020-0188,2020-05-08,07:13:08,07:28:55,NA,incomplete,127,shape,1,left,Blue_Triangle_Grid_3.jpg,Green_Triangle_Chess_1.jpg,Red_Plus_Grid_4.jpg,left,607.4300000036601,true,high,NA,NA,NA,NA,NA,NA,NA,false
pH7fWVbP,3en4yvuovf59wipgxxflzhxwdchjxp,3wq3b2kgectxbi45temzv469jh0b1x,pH7fWVbP,2020-0188,2020-05-08,07:13:08,07:28:55,NA,incomplete,128,shape,1,right,Green_Triangle_Dots_3.jpg,Blue_Circle_Dots_2.jpg,Purple_Triangle_Grid_4.jpg,right,609.5499999937601,true,high,NA,NA,NA,NA,NA,NA,NA,false
pH7fWVbP,3en4yvuovf59wipgxxflzhxwdchjxp,3wq3b2kgectxbi45temzv469jh0b1x,pH7fWVbP,2020-0188,2020-05-08,07:13:08,07:28:55,NA,incomplete,129,shape,0,right,Purple_Triangle_Dots_2.jpg,Green_Circle_Dots_4.jpg,Blue_Triangle_Stripes_1.jpg,right,518.3000000106404,true,high,NA,NA,NA,NA,NA,NA,NA,false
pH7fWVbP,3en4yvuovf59wipgxxflzhxwdchjxp,3wq3b2kgectxbi45temzv469jh0b1x,pH7fWVbP,2020-0188,2020-05-08,07:13:08,07:28:55,NA,incomplete,130,shape,1,left,Purple_Triangle_Chess_3.jpg,Red_Triangle_Grid_4.jpg,Green_Plus_Chess_2.jpg,right,1062.1649999957299,false,high,NA,NA,NA,NA,NA,NA,NA,false
pH7fWVbP,3en4yvuovf59wipgxxflzhxwdchjxp,3wq3b2kgectxbi45temzv469jh0b1x,pH7fWVbP,2020-0188,2020-05-08,07:13:08,07:28:55,NA,incomplete,131,shape,1,left,Purple_Circle_Dots_4.jpg,Red_Circle_Grid_3.jpg,Green_Plus_Dots_1.jpg,right,1505.1649999950314,false,high,NA,NA,NA,NA,NA,NA,NA,false
pH7fWVbP,3en4yvuovf59wipgxxflzhxwdchjxp,3wq3b2kgectxbi45temzv469jh0b1x,pH7fWVbP,2020-0188,2020-05-08,07:13:08,07:28:55,NA,incomplete,132,shape,1,left,Purple_Triangle_Dots_2.jpg,Green_Triangle_Chess_3.jpg,Red_Circle_Dots_4.jpg,right,904.8400000028778,false,high,NA,NA,NA,NA,NA,NA,NA,false
pH7fWVbP,3en4yvuovf59wipgxxflzhxwdchjxp,3wq3b2kgectxbi45temzv469jh0b1x,pH7fWVbP,2020-0188,2020-05-08,07:13:08,07:28:55,NA,incomplete,133,shape,0,right,Blue_Circle_Chess_4.jpg,Red_Plus_Chess_2.jpg,Purple_Circle_Grid_3.jpg,left,1059.3799999915063,false,high,NA,NA,NA,NA,NA,NA,NA,false
pH7fWVbP,3en4yvuovf59wipgxxflzhxwdchjxp,3wq3b2kgectxbi45temzv469jh0b1x,pH7fWVbP,2020-0188,2020-05-08,07:13:08,07:28:55,NA,incomplete,134,shape,1,right,Green_Circle_Chess_3.jpg,Purple_Plus_Chess_4.jpg,Red_Circle_Stripes_1.jpg,left,1134.1649999958463,false,high,NA,NA,NA,NA,NA,NA,NA,false
pH7fWVbP,3en4yvuovf59wipgxxflzhxwdchjxp,3wq3b2kgectxbi45temzv469jh0b1x,pH7fWVbP,2020-0188,2020-05-08,07:13:08,07:28:55,NA,incomplete,135,shape,1,right,Green_Star_Dots_2.jpg,Purple_Triangle_Dots_1.jpg,Blue_Star_Chess_3.jpg,right,741.6200000006938,true,high,NA,NA,NA,NA,NA,NA,NA,false
pH7fWVbP,3en4yvuovf59wipgxxflzhxwdchjxp,3wq3b2kgectxbi45temzv469jh0b1x,pH7fWVbP,2020-0188,2020-05-08,07:13:08,07:28:55,NA,incomplete,136,shape,1,left,Red_Triangle_Chess_4.jpg,Blue_Triangle_Stripes_3.jpg,Purple_Star_Chess_2.jpg,right,1333.5599999991246,false,high,NA,NA,NA,NA,NA,NA,NA,false
pH7fWVbP,3en4yvuovf59wipgxxflzhxwdchjxp,3wq3b2kgectxbi45temzv469jh0b1x,pH7fWVbP,2020-0188,2020-05-08,07:13:08,07:28:55,NA,incomplete,137,shape,1,right,Green_Star_Dots_3.jpg,Red_Plus_Dots_1.jpg,Blue_Star_Stripes_4.jpg,right,821.5300000010757,true,high,NA,NA,NA,NA,NA,NA,NA,false
pH7fWVbP,3en4yvuovf59wipgxxflzhxwdchjxp,3wq3b2kgectxbi45temzv469jh0b1x,pH7fWVbP,2020-0188,2020-05-08,07:13:08,07:28:55,NA,incomplete,138,shape,1,left,Blue_Triangle_Grid_3.jpg,Purple_Triangle_Chess_1.jpg,Red_Plus_Grid_4.jpg,left,751.9850000098813,true,high,NA,NA,NA,NA,NA,NA,NA,false
pH7fWVbP,3en4yvuovf59wipgxxflzhxwdchjxp,3wq3b2kgectxbi45temzv469jh0b1x,pH7fWVbP,2020-0188,2020-05-08,07:13:08,07:28:55,NA,incomplete,139,shape,1,left,Purple_Star_Grid_1.jpg,Green_Star_Dots_4.jpg,Red_Circle_Grid_3.jpg,left,744.1150000086054,true,high,NA,NA,NA,NA,NA,NA,NA,false
pH7fWVbP,3en4yvuovf59wipgxxflzhxwdchjxp,3wq3b2kgectxbi45temzv469jh0b1x,pH7fWVbP,2020-0188,2020-05-08,07:13:08,07:28:55,NA,incomplete,140,filling,1,left,Green_Circle_Grid_4.jpg,Red_Plus_Grid_3.jpg,Blue_Circle_Stripes_2.jpg,right,686.3850000081584,false,high,NA,NA,NA,NA,NA,NA,NA,false
pH7fWVbP,3en4yvuovf59wipgxxflzhxwdchjxp,3wq3b2kgectxbi45temzv469jh0b1x,pH7fWVbP,2020-0188,2020-05-08,07:13:08,07:28:55,NA,incomplete,141,filling,1,left,Blue_Circle_Chess_3.jpg,Green_Star_Chess_4.jpg,Red_Circle_Stripes_1.jpg,left,983.2150000002002,true,high,NA,NA,NA,NA,NA,NA,NA,false
pH7fWVbP,3en4yvuovf59wipgxxflzhxwdchjxp,3wq3b2kgectxbi45temzv469jh0b1x,pH7fWVbP,2020-0188,2020-05-08,07:13:08,07:28:55,NA,incomplete,142,filling,1,left,Red_Triangle_Stripes_4.jpg,Purple_Star_Stripes_1.jpg,Green_Triangle_Chess_3.jpg,left,956.5949999960139,true,high,NA,NA,NA,NA,NA,NA,NA,false
pH7fWVbP,3en4yvuovf59wipgxxflzhxwdchjxp,3wq3b2kgectxbi45temzv469jh0b1x,pH7fWVbP,2020-0188,2020-05-08,07:13:08,07:28:55,NA,incomplete,143,filling,1,right,Blue_Circle_Chess_2.jpg,Red_Circle_Stripes_1.jpg,Purple_Plus_Chess_4.jpg,right,908.2600000110688,true,high,NA,NA,NA,NA,NA,NA,NA,false
pH7fWVbP,3en4yvuovf59wipgxxflzhxwdchjxp,3wq3b2kgectxbi45temzv469jh0b1x,pH7fWVbP,2020-0188,2020-05-08,07:13:08,07:28:55,NA,incomplete,144,filling,1,left,Purple_Triangle_Dots_1.jpg,Blue_Star_Dots_3.jpg,Red_Triangle_Grid_2.jpg,left,965.9600000013597,true,high,NA,NA,NA,NA,NA,NA,NA,false
pH7fWVbP,3en4yvuovf59wipgxxflzhxwdchjxp,3wq3b2kgectxbi45temzv469jh0b1x,pH7fWVbP,2020-0188,2020-05-08,07:13:08,07:28:55,NA,incomplete,145,filling,1,right,Blue_Star_Stripes_1.jpg,Red_Star_Chess_2.jpg,Purple_Circle_Stripes_3.jpg,right,961.7849999922328,true,high,NA,NA,NA,NA,NA,NA,NA,false
pH7fWVbP,3en4yvuovf59wipgxxflzhxwdchjxp,3wq3b2kgectxbi45temzv469jh0b1x,pH7fWVbP,2020-0188,2020-05-08,07:13:08,07:28:55,NA,incomplete,146,filling,1,right,Green_Star_Chess_3.jpg,Blue_Star_Grid_1.jpg,Red_Triangle_Chess_2.jpg,right,1250.9549999958836,true,high,NA,NA,NA,NA,NA,NA,NA,false
pH7fWVbP,3en4yvuovf59wipgxxflzhxwdchjxp,3wq3b2kgectxbi45temzv469jh0b1x,pH7fWVbP,2020-0188,2020-05-08,07:13:08,07:28:55,NA,incomplete,147,filling,1,left,Red_Plus_Dots_2.jpg,Green_Circle_Dots_4.jpg,Purple_Plus_Stripes_3.jpg,left,1029.3349999992643,true,high,NA,NA,NA,NA,NA,NA,NA,false
pH7fWVbP,3en4yvuovf59wipgxxflzhxwdchjxp,3wq3b2kgectxbi45temzv469jh0b1x,pH7fWVbP,2020-0188,2020-05-08,07:13:08,07:28:55,NA,incomplete,148,filling,1,left,Blue_Circle_Chess_2.jpg,Green_Triangle_Chess_4.jpg,Purple_Circle_Grid_3.jpg,left,850.8350000047358,true,high,NA,NA,NA,NA,NA,NA,NA,false
pH7fWVbP,3en4yvuovf59wipgxxflzhxwdchjxp,3wq3b2kgectxbi45temzv469jh0b1x,pH7fWVbP,2020-0188,2020-05-08,07:13:08,07:28:55,NA,incomplete,149,filling,0,left,Blue_Circle_Dots_2.jpg,Red_Triangle_Dots_3.jpg,Purple_Circle_Grid_1.jpg,left,1124.679999993532,true,high,NA,NA,NA,NA,NA,NA,NA,false
pH7fWVbP,3en4yvuovf59wipgxxflzhxwdchjxp,3wq3b2kgectxbi45temzv469jh0b1x,pH7fWVbP,2020-0188,2020-05-08,07:13:08,07:28:55,NA,incomplete,150,filling,1,right,Purple_Plus_Stripes_2.jpg,Blue_Plus_Dots_3.jpg,Green_Star_Stripes_4.jpg,left,1324.3300000031013,false,high,NA,NA,NA,NA,NA,NA,NA,false
pH7fWVbP,3en4yvuovf59wipgxxflzhxwdchjxp,3wq3b2kgectxbi45temzv469jh0b1x,pH7fWVbP,2020-0188,2020-05-08,07:13:08,07:28:55,NA,incomplete,151,filling,1,right,Red_Circle_Chess_1.jpg,Blue_Circle_Stripes_3.jpg,Green_Star_Chess_2.jpg,left,677.5849999976344,false,high,NA,NA,NA,NA,NA,NA,NA,false
pH7fWVbP,3en4yvuovf59wipgxxflzhxwdchjxp,3wq3b2kgectxbi45temzv469jh0b1x,pH7fWVbP,2020-0188,2020-05-08,07:13:08,07:28:55,NA,incomplete,152,filling,1,right,Green_Triangle_Stripes_2.jpg,Red_Triangle_Chess_4.jpg,Purple_Plus_Stripes_1.jpg,left,701.3399999996182,false,high,NA,NA,NA,NA,NA,NA,NA,false
pH7fWVbP,3en4yvuovf59wipgxxflzhxwdchjxp,3wq3b2kgectxbi45temzv469jh0b1x,pH7fWVbP,2020-0188,2020-05-08,07:13:08,07:28:55,NA,incomplete,153,filling,0,right,Blue_Star_Grid_4.jpg,Green_Star_Chess_1.jpg,Purple_Triangle_Grid_3.jpg,right,1719.1750000056345,true,high,NA,NA,NA,NA,NA,NA,NA,false
pH7fWVbP,3en4yvuovf59wipgxxflzhxwdchjxp,3wq3b2kgectxbi45temzv469jh0b1x,pH7fWVbP,2020-0188,2020-05-08,07:13:08,07:28:55,NA,incomplete,154,filling,1,left,Green_Star_Chess_2.jpg,Blue_Triangle_Chess_1.jpg,Purple_Star_Stripes_4.jpg,right,1071.8049999995856,false,high,NA,NA,NA,NA,NA,NA,NA,false
pH7fWVbP,3en4yvuovf59wipgxxflzhxwdchjxp,3wq3b2kgectxbi45temzv469jh0b1x,pH7fWVbP,2020-0188,2020-05-08,07:13:08,07:28:55,NA,incomplete,155,filling,1,right,Green_Star_Stripes_2.jpg,Blue_Star_Grid_3.jpg,Red_Circle_Stripes_4.jpg,right,1938.5949999996228,true,high,NA,NA,NA,NA,NA,NA,NA,false
pH7fWVbP,3en4yvuovf59wipgxxflzhxwdchjxp,3wq3b2kgectxbi45temzv469jh0b1x,pH7fWVbP,2020-0188,2020-05-08,07:13:08,07:28:55,NA,incomplete,156,filling,0,right,Green_Plus_Grid_1.jpg,Purple_Plus_Stripes_4.jpg,Blue_Circle_Grid_3.jpg,left,1104.81499999878,false,high,NA,NA,NA,NA,NA,NA,NA,false
pH7fWVbP,3en4yvuovf59wipgxxflzhxwdchjxp,3wq3b2kgectxbi45temzv469jh0b1x,pH7fWVbP,2020-0188,2020-05-08,07:13:08,07:28:55,NA,incomplete,157,filling,1,left,Purple_Circle_Dots_4.jpg,Blue_Triangle_Dots_1.jpg,Green_Circle_Chess_2.jpg,left,913.6799999978393,true,high,NA,NA,NA,NA,NA,NA,NA,false
pH7fWVbP,3en4yvuovf59wipgxxflzhxwdchjxp,3wq3b2kgectxbi45temzv469jh0b1x,pH7fWVbP,2020-0188,2020-05-08,07:13:08,07:28:55,NA,incomplete,158,filling,1,right,Purple_Triangle_Chess_1.jpg,Green_Triangle_Dots_2.jpg,Red_Star_Chess_3.jpg,right,1026.5000000072177,true,high,NA,NA,NA,NA,NA,NA,NA,false
pH7fWVbP,3en4yvuovf59wipgxxflzhxwdchjxp,3wq3b2kgectxbi45temzv469jh0b1x,pH7fWVbP,2020-0188,2020-05-08,07:13:08,07:28:55,NA,incomplete,159,filling,1,left,Green_Triangle_Chess_2.jpg,Blue_Circle_Chess_4.jpg,Purple_Triangle_Stripes_1.jpg,left,1152.7350000105798,true,high,NA,NA,NA,NA,NA,NA,NA,false
pH7fWVbP,3en4yvuovf59wipgxxflzhxwdchjxp,3wq3b2kgectxbi45temzv469jh0b1x,pH7fWVbP,2020-0188,2020-05-08,07:13:08,07:28:55,NA,incomplete,160,shape,1,right,Blue_Plus_Stripes_1.jpg,Green_Star_Stripes_3.jpg,Red_Plus_Chess_4.jpg,left,990.0999999954365,false,high,NA,NA,NA,NA,NA,NA,NA,false
pH7fWVbP,3en4yvuovf59wipgxxflzhxwdchjxp,3wq3b2kgectxbi45temzv469jh0b1x,pH7fWVbP,2020-0188,2020-05-08,07:13:08,07:28:55,NA,incomplete,161,shape,1,left,Blue_Plus_Stripes_4.jpg,Purple_Plus_Chess_1.jpg,Red_Star_Stripes_3.jpg,left,930.835000006482,true,high,NA,NA,NA,NA,NA,NA,NA,false
pH7fWVbP,3en4yvuovf59wipgxxflzhxwdchjxp,3wq3b2kgectxbi45temzv469jh0b1x,pH7fWVbP,2020-0188,2020-05-08,07:13:08,07:28:55,NA,incomplete,162,shape,0,right,Red_Plus_Chess_2.jpg,Blue_Star_Chess_1.jpg,Green_Plus_Dots_4.jpg,right,883.0549999984214,true,high,NA,NA,NA,NA,NA,NA,NA,false
pH7fWVbP,3en4yvuovf59wipgxxflzhxwdchjxp,3wq3b2kgectxbi45temzv469jh0b1x,pH7fWVbP,2020-0188,2020-05-08,07:13:08,07:28:55,NA,incomplete,163,shape,1,left,Green_Star_Dots_2.jpg,Purple_Star_Grid_4.jpg,Red_Plus_Dots_1.jpg,left,783.3299999911105,true,high,NA,NA,NA,NA,NA,NA,NA,false
pH7fWVbP,3en4yvuovf59wipgxxflzhxwdchjxp,3wq3b2kgectxbi45temzv469jh0b1x,pH7fWVbP,2020-0188,2020-05-08,07:13:08,07:28:55,NA,incomplete,164,shape,1,left,Red_Triangle_Chess_1.jpg,Blue_Triangle_Stripes_3.jpg,Green_Plus_Chess_4.jpg,left,594.8500000085915,true,high,NA,NA,NA,NA,NA,NA,NA,false
pH7fWVbP,3en4yvuovf59wipgxxflzhxwdchjxp,3wq3b2kgectxbi45temzv469jh0b1x,pH7fWVbP,2020-0188,2020-05-08,07:13:08,07:28:55,NA,incomplete,165,shape,1,right,Red_Circle_Grid_2.jpg,Purple_Plus_Grid_4.jpg,Green_Circle_Chess_3.jpg,right,584.3499999900814,true,high,NA,NA,NA,NA,NA,NA,NA,false
pH7fWVbP,3en4yvuovf59wipgxxflzhxwdchjxp,3wq3b2kgectxbi45temzv469jh0b1x,pH7fWVbP,2020-0188,2020-05-08,07:13:08,07:28:55,NA,incomplete,166,shape,1,right,Green_Plus_Chess_2.jpg,Blue_Triangle_Chess_1.jpg,Red_Plus_Grid_3.jpg,right,789.4450000021607,true,high,NA,NA,NA,NA,NA,NA,NA,false
pH7fWVbP,3en4yvuovf59wipgxxflzhxwdchjxp,3wq3b2kgectxbi45temzv469jh0b1x,pH7fWVbP,2020-0188,2020-05-08,07:13:08,07:28:55,NA,incomplete,167,shape,1,right,Blue_Circle_Grid_2.jpg,Red_Plus_Grid_4.jpg,Purple_Circle_Chess_3.jpg,right,593.5600000084378,true,high,NA,NA,NA,NA,NA,NA,NA,false
pH7fWVbP,3en4yvuovf59wipgxxflzhxwdchjxp,3wq3b2kgectxbi45temzv469jh0b1x,pH7fWVbP,2020-0188,2020-05-08,07:13:08,07:28:55,NA,incomplete,168,shape,0,left,Purple_Star_Stripes_2.jpg,Green_Star_Grid_3.jpg,Blue_Circle_Stripes_4.jpg,left,569.1300000034971,true,high,NA,NA,NA,NA,NA,NA,NA,false
pH7fWVbP,3en4yvuovf59wipgxxflzhxwdchjxp,3wq3b2kgectxbi45temzv469jh0b1x,pH7fWVbP,2020-0188,2020-05-08,07:13:08,07:28:55,NA,incomplete,169,shape,1,left,Purple_Star_Grid_3.jpg,Red_Star_Chess_1.jpg,Blue_Circle_Grid_2.jpg,right,1414.6400000026915,false,high,NA,NA,NA,NA,NA,NA,NA,false
pH7fWVbP,3en4yvuovf59wipgxxflzhxwdchjxp,3wq3b2kgectxbi45temzv469jh0b1x,pH7fWVbP,2020-0188,2020-05-08,07:13:08,07:28:55,NA,incomplete,170,shape,1,right,Green_Star_Chess_2.jpg,Purple_Circle_Chess_3.jpg,Blue_Star_Dots_4.jpg,right,873.3899999933783,true,high,NA,NA,NA,NA,NA,NA,NA,false
pH7fWVbP,3en4yvuovf59wipgxxflzhxwdchjxp,3wq3b2kgectxbi45temzv469jh0b1x,pH7fWVbP,2020-0188,2020-05-08,07:13:08,07:28:55,NA,incomplete,171,shape,1,left,Green_Triangle_Chess_4.jpg,Blue_Triangle_Stripes_3.jpg,Purple_Plus_Chess_1.jpg,left,620.1949999958742,true,high,NA,NA,NA,NA,NA,NA,NA,false
pH7fWVbP,3en4yvuovf59wipgxxflzhxwdchjxp,3wq3b2kgectxbi45temzv469jh0b1x,pH7fWVbP,2020-0188,2020-05-08,07:13:08,07:28:55,NA,incomplete,172,shape,1,right,Purple_Circle_Stripes_3.jpg,Green_Star_Stripes_4.jpg,Red_Circle_Grid_1.jpg,right,615.9150000021327,true,high,NA,NA,NA,NA,NA,NA,NA,false
pH7fWVbP,3en4yvuovf59wipgxxflzhxwdchjxp,3wq3b2kgectxbi45temzv469jh0b1x,pH7fWVbP,2020-0188,2020-05-08,07:13:08,07:28:55,NA,incomplete,173,shape,0,right,Red_Plus_Stripes_2.jpg,Green_Circle_Stripes_3.jpg,Blue_Plus_Chess_1.jpg,right,629.0200000075856,true,high,NA,NA,NA,NA,NA,NA,NA,false
pH7fWVbP,3en4yvuovf59wipgxxflzhxwdchjxp,3wq3b2kgectxbi45temzv469jh0b1x,pH7fWVbP,2020-0188,2020-05-08,07:13:08,07:28:55,NA,incomplete,174,shape,1,left,Green_Plus_Grid_4.jpg,Blue_Plus_Chess_1.jpg,Red_Star_Grid_2.jpg,left,656.9049999961862,true,high,NA,NA,NA,NA,NA,NA,NA,false
pH7fWVbP,3en4yvuovf59wipgxxflzhxwdchjxp,3wq3b2kgectxbi45temzv469jh0b1x,pH7fWVbP,2020-0188,2020-05-08,07:13:08,07:28:55,NA,incomplete,175,shape,1,right,Red_Star_Chess_1.jpg,Blue_Plus_Chess_3.jpg,Green_Star_Dots_4.jpg,right,675.3849999950035,true,high,NA,NA,NA,NA,NA,NA,NA,false
pH7fWVbP,3en4yvuovf59wipgxxflzhxwdchjxp,3wq3b2kgectxbi45temzv469jh0b1x,pH7fWVbP,2020-0188,2020-05-08,07:13:08,07:28:55,NA,incomplete,176,shape,1,right,Purple_Star_Stripes_1.jpg,Green_Circle_Stripes_3.jpg,Red_Star_Chess_4.jpg,right,550.0150000007125,true,high,NA,NA,NA,NA,NA,NA,NA,false
pH7fWVbP,3en4yvuovf59wipgxxflzhxwdchjxp,3wq3b2kgectxbi45temzv469jh0b1x,pH7fWVbP,2020-0188,2020-05-08,07:13:08,07:28:55,NA,incomplete,177,shape,1,left,Purple_Star_Grid_4.jpg,Blue_Star_Dots_3.jpg,Green_Triangle_Grid_1.jpg,left,580.7099999947241,true,high,NA,NA,NA,NA,NA,NA,NA,false
pH7fWVbP,3en4yvuovf59wipgxxflzhxwdchjxp,3wq3b2kgectxbi45temzv469jh0b1x,pH7fWVbP,2020-0188,2020-05-08,07:13:08,07:28:55,NA,incomplete,178,shape,1,right,Purple_Triangle_Stripes_2.jpg,Red_Plus_Stripes_4.jpg,Green_Triangle_Chess_3.jpg,right,769.7149999876274,true,high,NA,NA,NA,NA,NA,NA,NA,false
pH7fWVbP,3en4yvuovf59wipgxxflzhxwdchjxp,3wq3b2kgectxbi45temzv469jh0b1x,pH7fWVbP,2020-0188,2020-05-08,07:13:08,07:28:55,NA,incomplete,179,shape,1,left,Blue_Triangle_Dots_2.jpg,Red_Triangle_Chess_4.jpg,Green_Plus_Dots_1.jpg,left,624.4250000017928,true,high,NA,NA,NA,NA,NA,NA,NA,false
pH7fWVbP,3en4yvuovf59wipgxxflzhxwdchjxp,3wq3b2kgectxbi45temzv469jh0b1x,pH7fWVbP,2020-0188,2020-05-08,07:13:08,07:28:55,NA,incomplete,180,filling,1,left,Purple_Plus_Grid_2.jpg,Green_Triangle_Grid_1.jpg,Red_Plus_Stripes_4.jpg,right,555.289999989327,false,high,NA,NA,NA,NA,NA,NA,NA,false
pH7fWVbP,3en4yvuovf59wipgxxflzhxwdchjxp,3wq3b2kgectxbi45temzv469jh0b1x,pH7fWVbP,2020-0188,2020-05-08,07:13:08,07:28:55,NA,incomplete,181,filling,1,right,Blue_Star_Dots_4.jpg,Red_Star_Stripes_2.jpg,Green_Triangle_Dots_3.jpg,left,673.6349999991944,false,high,NA,NA,NA,NA,NA,NA,NA,false
pH7fWVbP,3en4yvuovf59wipgxxflzhxwdchjxp,3wq3b2kgectxbi45temzv469jh0b1x,pH7fWVbP,2020-0188,2020-05-08,07:13:08,07:28:55,NA,incomplete,182,filling,1,right,Blue_Triangle_Chess_2.jpg,Purple_Triangle_Stripes_1.jpg,Green_Plus_Chess_3.jpg,left,861.4349999988917,false,high,NA,NA,NA,NA,NA,NA,NA,false
pH7fWVbP,3en4yvuovf59wipgxxflzhxwdchjxp,3wq3b2kgectxbi45temzv469jh0b1x,pH7fWVbP,2020-0188,2020-05-08,07:13:08,07:28:55,NA,incomplete,183,filling,0,right,Red_Star_Grid_2.jpg,Purple_Star_Chess_3.jpg,Blue_Plus_Grid_1.jpg,right,1344.280000004801,true,high,NA,NA,NA,NA,NA,NA,NA,false
pH7fWVbP,3en4yvuovf59wipgxxflzhxwdchjxp,3wq3b2kgectxbi45temzv469jh0b1x,pH7fWVbP,2020-0188,2020-05-08,07:13:08,07:28:55,NA,incomplete,184,filling,1,right,Purple_Triangle_Grid_3.jpg,Green_Triangle_Dots_4.jpg,Red_Circle_Grid_1.jpg,right,1150.8150000008754,true,high,NA,NA,NA,NA,NA,NA,NA,false
pH7fWVbP,3en4yvuovf59wipgxxflzhxwdchjxp,3wq3b2kgectxbi45temzv469jh0b1x,pH7fWVbP,2020-0188,2020-05-08,07:13:08,07:28:55,NA,incomplete,185,filling,1,right,Red_Plus_Stripes_1.jpg,Purple_Plus_Chess_3.jpg,Green_Triangle_Stripes_2.jpg,right,997.8449999907752,true,high,NA,NA,NA,NA,NA,NA,NA,false
pH7fWVbP,3en4yvuovf59wipgxxflzhxwdchjxp,3wq3b2kgectxbi45temzv469jh0b1x,pH7fWVbP,2020-0188,2020-05-08,07:13:08,07:28:55,NA,incomplete,186,filling,1,left,Green_Circle_Dots_1.jpg,Blue_Triangle_Dots_2.jpg,Red_Circle_Stripes_4.jpg,left,1027.2250000125496,true,high,NA,NA,NA,NA,NA,NA,NA,false
pH7fWVbP,3en4yvuovf59wipgxxflzhxwdchjxp,3wq3b2kgectxbi45temzv469jh0b1x,pH7fWVbP,2020-0188,2020-05-08,07:13:08,07:28:55,NA,incomplete,187,filling,0,left,Green_Circle_Grid_4.jpg,Purple_Star_Grid_3.jpg,Blue_Circle_Stripes_2.jpg,left,1142.984999998589,true,high,NA,NA,NA,NA,NA,NA,NA,false
pH7fWVbP,3en4yvuovf59wipgxxflzhxwdchjxp,3wq3b2kgectxbi45temzv469jh0b1x,pH7fWVbP,2020-0188,2020-05-08,07:13:08,07:28:55,NA,incomplete,188,filling,1,right,Green_Triangle_Grid_2.jpg,Purple_Triangle_Chess_4.jpg,Blue_Plus_Grid_1.jpg,left,718.684999999823,false,high,NA,NA,NA,NA,NA,NA,NA,false
pH7fWVbP,3en4yvuovf59wipgxxflzhxwdchjxp,3wq3b2kgectxbi45temzv469jh0b1x,pH7fWVbP,2020-0188,2020-05-08,07:13:08,07:28:55,NA,incomplete,189,filling,0,right,Red_Plus_Grid_1.jpg,Blue_Plus_Dots_4.jpg,Green_Circle_Grid_2.jpg,right,1028.8699999946402,true,high,NA,NA,NA,NA,NA,NA,NA,false
pH7fWVbP,3en4yvuovf59wipgxxflzhxwdchjxp,3wq3b2kgectxbi45temzv469jh0b1x,pH7fWVbP,2020-0188,2020-05-08,07:13:08,07:28:55,NA,incomplete,190,filling,1,left,Red_Triangle_Stripes_3.jpg,Purple_Plus_Stripes_2.jpg,Green_Triangle_Dots_1.jpg,right,1098.5450000007404,false,high,NA,NA,NA,NA,NA,NA,NA,false
pH7fWVbP,3en4yvuovf59wipgxxflzhxwdchjxp,3wq3b2kgectxbi45temzv469jh0b1x,pH7fWVbP,2020-0188,2020-05-08,07:13:08,07:28:55,NA,incomplete,191,filling,1,left,Blue_Triangle_Grid_1.jpg,Red_Circle_Grid_3.jpg,Purple_Triangle_Chess_4.jpg,right,643.4400000143796,false,high,NA,NA,NA,NA,NA,NA,NA,false
pH7fWVbP,3en4yvuovf59wipgxxflzhxwdchjxp,3wq3b2kgectxbi45temzv469jh0b1x,pH7fWVbP,2020-0188,2020-05-08,07:13:08,07:28:55,NA,incomplete,192,filling,0,right,Green_Star_Chess_4.jpg,Blue_Star_Dots_3.jpg,Purple_Triangle_Chess_1.jpg,left,639.4000000000233,false,high,NA,NA,NA,NA,NA,NA,NA,false
pH7fWVbP,3en4yvuovf59wipgxxflzhxwdchjxp,3wq3b2kgectxbi45temzv469jh0b1x,pH7fWVbP,2020-0188,2020-05-08,07:13:08,07:28:55,NA,incomplete,193,filling,1,left,Green_Star_Grid_1.jpg,Purple_Circle_Grid_4.jpg,Blue_Star_Stripes_2.jpg,right,625.9450000070501,false,high,NA,NA,NA,NA,NA,NA,NA,false
pH7fWVbP,3en4yvuovf59wipgxxflzhxwdchjxp,3wq3b2kgectxbi45temzv469jh0b1x,pH7fWVbP,2020-0188,2020-05-08,07:13:08,07:28:55,NA,incomplete,194,filling,1,left,Blue_Star_Dots_2.jpg,Purple_Plus_Dots_1.jpg,Green_Star_Chess_4.jpg,right,598.1549999996787,false,high,NA,NA,NA,NA,NA,NA,NA,false
pH7fWVbP,3en4yvuovf59wipgxxflzhxwdchjxp,3wq3b2kgectxbi45temzv469jh0b1x,pH7fWVbP,2020-0188,2020-05-08,07:13:08,07:28:55,NA,incomplete,195,filling,1,right,Blue_Circle_Grid_3.jpg,Red_Circle_Stripes_1.jpg,Purple_Star_Grid_4.jpg,right,1260.0900000106776,true,high,NA,NA,NA,NA,NA,NA,NA,false
pH7fWVbP,3en4yvuovf59wipgxxflzhxwdchjxp,3wq3b2kgectxbi45temzv469jh0b1x,pH7fWVbP,2020-0188,2020-05-08,07:13:08,07:28:55,NA,incomplete,196,filling,1,left,Red_Triangle_Dots_4.jpg,Green_Star_Dots_1.jpg,Purple_Triangle_Chess_3.jpg,left,974.5700000057695,true,high,NA,NA,NA,NA,NA,NA,NA,false
pH7fWVbP,3en4yvuovf59wipgxxflzhxwdchjxp,3wq3b2kgectxbi45temzv469jh0b1x,pH7fWVbP,2020-0188,2020-05-08,07:13:08,07:28:55,NA,incomplete,197,filling,0,left,Blue_Plus_Grid_1.jpg,Red_Star_Grid_4.jpg,Green_Plus_Chess_3.jpg,left,1108.3600000129081,true,high,NA,NA,NA,NA,NA,NA,NA,false
pH7fWVbP,3en4yvuovf59wipgxxflzhxwdchjxp,3wq3b2kgectxbi45temzv469jh0b1x,pH7fWVbP,2020-0188,2020-05-08,07:13:08,07:28:55,NA,incomplete,198,filling,1,left,Purple_Star_Dots_4.jpg,Red_Circle_Dots_3.jpg,Blue_Star_Stripes_2.jpg,right,675.2600000036182,false,high,NA,NA,NA,NA,NA,NA,NA,false
pH7fWVbP,3en4yvuovf59wipgxxflzhxwdchjxp,3wq3b2kgectxbi45temzv469jh0b1x,pH7fWVbP,2020-0188,2020-05-08,07:13:08,07:28:55,NA,incomplete,199,filling,1,right,Purple_Plus_Grid_1.jpg,Blue_Plus_Dots_2.jpg,Green_Star_Grid_4.jpg,left,758.9149999985239,false,high,NA,NA,NA,NA,NA,NA,NA,false
pH7fWVbP,3en4yvuovf59wipgxxflzhxwdchjxp,3wq3b2kgectxbi45temzv469jh0b1x,pH7fWVbP,2020-0188,2020-05-08,07:13:08,07:28:55,NA,incomplete,200,shape,0,left,Red_Triangle_Stripes_4.jpg,Blue_Triangle_Dots_2.jpg,Green_Plus_Stripes_3.jpg,right,1428.8899999955902,false,high,NA,NA,NA,NA,NA,NA,NA,false
pH7fWVbP,3en4yvuovf59wipgxxflzhxwdchjxp,3wq3b2kgectxbi45temzv469jh0b1x,pH7fWVbP,2020-0188,2020-05-08,07:13:08,07:28:55,NA,incomplete,201,shape,1,right,Blue_Plus_Stripes_2.jpg,Purple_Triangle_Stripes_4.jpg,Red_Plus_Grid_3.jpg,left,1273.5350000002654,false,high,NA,NA,NA,NA,NA,NA,NA,false
pH7fWVbP,3en4yvuovf59wipgxxflzhxwdchjxp,3wq3b2kgectxbi45temzv469jh0b1x,pH7fWVbP,2020-0188,2020-05-08,07:13:08,07:28:55,NA,incomplete,202,shape,1,right,Green_Plus_Chess_2.jpg,Red_Triangle_Chess_3.jpg,Purple_Plus_Grid_4.jpg,left,1179.260000004433,false,high,NA,NA,NA,NA,NA,NA,NA,false
pH7fWVbP,3en4yvuovf59wipgxxflzhxwdchjxp,3wq3b2kgectxbi45temzv469jh0b1x,pH7fWVbP,2020-0188,2020-05-08,07:13:08,07:28:55,NA,incomplete,203,shape,1,right,Green_Plus_Chess_3.jpg,Purple_Circle_Chess_2.jpg,Blue_Plus_Stripes_1.jpg,right,754.1350000101374,true,high,NA,NA,NA,NA,NA,NA,NA,false
pH7fWVbP,3en4yvuovf59wipgxxflzhxwdchjxp,3wq3b2kgectxbi45temzv469jh0b1x,pH7fWVbP,2020-0188,2020-05-08,07:13:08,07:28:55,NA,incomplete,204,shape,1,left,Red_Star_Chess_2.jpg,Purple_Star_Dots_4.jpg,Blue_Circle_Chess_1.jpg,left,521.3800000055926,true,high,NA,NA,NA,NA,NA,NA,NA,false
pH7fWVbP,3en4yvuovf59wipgxxflzhxwdchjxp,3wq3b2kgectxbi45temzv469jh0b1x,pH7fWVbP,2020-0188,2020-05-08,07:13:08,07:28:55,NA,incomplete,205,shape,1,right,Purple_Plus_Chess_2.jpg,Red_Triangle_Chess_1.jpg,Blue_Plus_Grid_4.jpg,right,543.0850000120699,true,high,NA,NA,NA,NA,NA,NA,NA,false
pH7fWVbP,3en4yvuovf59wipgxxflzhxwdchjxp,3wq3b2kgectxbi45temzv469jh0b1x,pH7fWVbP,2020-0188,2020-05-08,07:13:08,07:28:55,NA,incomplete,206,shape,0,right,Purple_Triangle_Stripes_3.jpg,Blue_Plus_Stripes_4.jpg,Red_Triangle_Chess_2.jpg,right,952.7749999979278,true,high,NA,NA,NA,NA,NA,NA,NA,false
pH7fWVbP,3en4yvuovf59wipgxxflzhxwdchjxp,3wq3b2kgectxbi45temzv469jh0b1x,pH7fWVbP,2020-0188,2020-05-08,07:13:08,07:28:55,NA,incomplete,207,shape,1,right,Blue_Plus_Stripes_3.jpg,Red_Star_Stripes_4.jpg,Purple_Plus_Dots_2.jpg,right,726.3399999937974,true,high,NA,NA,NA,NA,NA,NA,NA,false
pH7fWVbP,3en4yvuovf59wipgxxflzhxwdchjxp,3wq3b2kgectxbi45temzv469jh0b1x,pH7fWVbP,2020-0188,2020-05-08,07:13:08,07:28:55,NA,incomplete,208,shape,0,right,Purple_Plus_Grid_2.jpg,Green_Star_Grid_1.jpg,Red_Plus_Chess_3.jpg,right,493.7799999897834,true,high,NA,NA,NA,NA,NA,NA,NA,false
pH7fWVbP,3en4yvuovf59wipgxxflzhxwdchjxp,3wq3b2kgectxbi45temzv469jh0b1x,pH7fWVbP,2020-0188,2020-05-08,07:13:08,07:28:55,NA,incomplete,209,shape,1,right,Blue_Triangle_Dots_2.jpg,Red_Circle_Dots_4.jpg,Purple_Triangle_Chess_1.jpg,right,727.2550000052433,true,high,NA,NA,NA,NA,NA,NA,NA,false
pH7fWVbP,3en4yvuovf59wipgxxflzhxwdchjxp,3wq3b2kgectxbi45temzv469jh0b1x,pH7fWVbP,2020-0188,2020-05-08,07:13:08,07:28:55,NA,incomplete,210,shape,0,left,Green_Star_Stripes_3.jpg,Blue_Star_Chess_2.jpg,Red_Circle_Stripes_4.jpg,left,565.8350000012433,true,high,NA,NA,NA,NA,NA,NA,NA,false
pH7fWVbP,3en4yvuovf59wipgxxflzhxwdchjxp,3wq3b2kgectxbi45temzv469jh0b1x,pH7fWVbP,2020-0188,2020-05-08,07:13:08,07:28:55,NA,incomplete,211,shape,1,right,Green_Circle_Dots_3.jpg,Blue_Star_Dots_4.jpg,Red_Circle_Stripes_1.jpg,right,565.614999999525,true,high,NA,NA,NA,NA,NA,NA,NA,false
pH7fWVbP,3en4yvuovf59wipgxxflzhxwdchjxp,3wq3b2kgectxbi45temzv469jh0b1x,pH7fWVbP,2020-0188,2020-05-08,07:13:08,07:28:55,NA,incomplete,212,shape,1,right,Blue_Triangle_Stripes_1.jpg,Red_Star_Stripes_3.jpg,Purple_Triangle_Chess_2.jpg,right,627.0700000022771,true,high,NA,NA,NA,NA,NA,NA,NA,false
pH7fWVbP,3en4yvuovf59wipgxxflzhxwdchjxp,3wq3b2kgectxbi45temzv469jh0b1x,pH7fWVbP,2020-0188,2020-05-08,07:13:08,07:28:55,NA,incomplete,213,shape,1,right,Purple_Star_Chess_1.jpg,Blue_Plus_Chess_3.jpg,Red_Star_Grid_4.jpg,right,487.0450000016717,true,high,NA,NA,NA,NA,NA,NA,NA,false
pH7fWVbP,3en4yvuovf59wipgxxflzhxwdchjxp,3wq3b2kgectxbi45temzv469jh0b1x,pH7fWVbP,2020-0188,2020-05-08,07:13:08,07:28:55,NA,incomplete,214,shape,0,right,Blue_Triangle_Dots_2.jpg,Green_Plus_Dots_3.jpg,Red_Triangle_Stripes_1.jpg,right,489.79000000690576,true,high,NA,NA,NA,NA,NA,NA,NA,false
pH7fWVbP,3en4yvuovf59wipgxxflzhxwdchjxp,3wq3b2kgectxbi45temzv469jh0b1x,pH7fWVbP,2020-0188,2020-05-08,07:13:08,07:28:55,NA,incomplete,215,shape,1,left,Green_Triangle_Stripes_4.jpg,Red_Triangle_Grid_3.jpg,Blue_Plus_Stripes_2.jpg,left,666.2800000049174,true,high,NA,NA,NA,NA,NA,NA,NA,false
pH7fWVbP,3en4yvuovf59wipgxxflzhxwdchjxp,3wq3b2kgectxbi45temzv469jh0b1x,pH7fWVbP,2020-0188,2020-05-08,07:13:08,07:28:55,NA,incomplete,216,shape,0,right,Green_Triangle_Grid_2.jpg,Blue_Circle_Grid_3.jpg,Purple_Triangle_Chess_4.jpg,right,524.3400000035763,true,high,NA,NA,NA,NA,NA,NA,NA,false
pH7fWVbP,3en4yvuovf59wipgxxflzhxwdchjxp,3wq3b2kgectxbi45temzv469jh0b1x,pH7fWVbP,2020-0188,2020-05-08,07:13:08,07:28:55,NA,incomplete,217,shape,1,left,Blue_Star_Dots_1.jpg,Red_Star_Grid_4.jpg,Purple_Circle_Dots_3.jpg,left,556.0649999970337,true,high,NA,NA,NA,NA,NA,NA,NA,false
pH7fWVbP,3en4yvuovf59wipgxxflzhxwdchjxp,3wq3b2kgectxbi45temzv469jh0b1x,pH7fWVbP,2020-0188,2020-05-08,07:13:08,07:28:55,NA,incomplete,218,shape,1,right,Green_Circle_Stripes_2.jpg,Red_Star_Stripes_3.jpg,Blue_Circle_Dots_1.jpg,right,538.0949999962468,true,high,NA,NA,NA,NA,NA,NA,NA,false
pH7fWVbP,3en4yvuovf59wipgxxflzhxwdchjxp,3wq3b2kgectxbi45temzv469jh0b1x,pH7fWVbP,2020-0188,2020-05-08,07:13:08,07:28:55,NA,incomplete,219,shape,1,right,Blue_Star_Grid_4.jpg,Purple_Plus_Grid_2.jpg,Red_Star_Chess_1.jpg,right,569.8149999952875,true,high,NA,NA,NA,NA,NA,NA,NA,false
pH7fWVbP,3en4yvuovf59wipgxxflzhxwdchjxp,3wq3b2kgectxbi45temzv469jh0b1x,pH7fWVbP,2020-0188,2020-05-08,07:13:08,07:28:55,NA,incomplete,220,filling,1,right,Red_Plus_Dots_2.jpg,Green_Plus_Grid_4.jpg,Blue_Star_Dots_3.jpg,left,656.9799999997485,false,high,NA,NA,NA,NA,NA,NA,NA,false
pH7fWVbP,3en4yvuovf59wipgxxflzhxwdchjxp,3wq3b2kgectxbi45temzv469jh0b1x,pH7fWVbP,2020-0188,2020-05-08,07:13:08,07:28:55,NA,incomplete,221,filling,1,left,Green_Circle_Dots_3.jpg,Blue_Star_Dots_4.jpg,Red_Circle_Grid_2.jpg,right,499.7350000048755,false,high,NA,NA,NA,NA,NA,NA,NA,false
pH7fWVbP,3en4yvuovf59wipgxxflzhxwdchjxp,3wq3b2kgectxbi45temzv469jh0b1x,pH7fWVbP,2020-0188,2020-05-08,07:13:08,07:28:55,NA,incomplete,222,filling,0,right,Red_Plus_Dots_2.jpg,Purple_Plus_Chess_4.jpg,Blue_Circle_Dots_1.jpg,left,717.0099999930244,false,high,NA,NA,NA,NA,NA,NA,NA,false
pH7fWVbP,3en4yvuovf59wipgxxflzhxwdchjxp,3wq3b2kgectxbi45temzv469jh0b1x,pH7fWVbP,2020-0188,2020-05-08,07:13:08,07:28:55,NA,incomplete,223,filling,1,left,Blue_Triangle_Dots_1.jpg,Purple_Star_Dots_3.jpg,Green_Triangle_Stripes_4.jpg,right,548.2749999937369,false,high,NA,NA,NA,NA,NA,NA,NA,false
pH7fWVbP,3en4yvuovf59wipgxxflzhxwdchjxp,3wq3b2kgectxbi45temzv469jh0b1x,pH7fWVbP,2020-0188,2020-05-08,07:13:08,07:28:55,NA,incomplete,224,filling,1,left,Red_Star_Grid_2.jpg,Blue_Plus_Grid_4.jpg,Purple_Star_Dots_3.jpg,right,532.6349999959348,false,high,NA,NA,NA,NA,NA,NA,NA,false
pH7fWVbP,3en4yvuovf59wipgxxflzhxwdchjxp,3wq3b2kgectxbi45temzv469jh0b1x,pH7fWVbP,2020-0188,2020-05-08,07:13:08,07:28:55,NA,incomplete,225,filling,1,right,Green_Plus_Chess_3.jpg,Purple_Plus_Stripes_4.jpg,Red_Star_Chess_1.jpg,left,620.3499999974156,false,high,NA,NA,NA,NA,NA,NA,NA,false
pH7fWVbP,3en4yvuovf59wipgxxflzhxwdchjxp,3wq3b2kgectxbi45temzv469jh0b1x,pH7fWVbP,2020-0188,2020-05-08,07:13:08,07:28:55,NA,incomplete,226,filling,0,left,Green_Triangle_Dots_4.jpg,Purple_Star_Dots_1.jpg,Red_Triangle_Grid_3.jpg,right,535.9150000003865,false,high,NA,NA,NA,NA,NA,NA,NA,false
pH7fWVbP,3en4yvuovf59wipgxxflzhxwdchjxp,3wq3b2kgectxbi45temzv469jh0b1x,pH7fWVbP,2020-0188,2020-05-08,07:13:08,07:28:55,NA,incomplete,227,filling,1,right,Red_Plus_Stripes_4.jpg,Purple_Plus_Grid_1.jpg,Blue_Circle_Stripes_2.jpg,left,759.0999999956694,false,high,NA,NA,NA,NA,NA,NA,NA,false
pH7fWVbP,3en4yvuovf59wipgxxflzhxwdchjxp,3wq3b2kgectxbi45temzv469jh0b1x,pH7fWVbP,2020-0188,2020-05-08,07:13:08,07:28:55,NA,incomplete,228,filling,1,right,Green_Triangle_Grid_1.jpg,Red_Triangle_Dots_3.jpg,Blue_Plus_Grid_4.jpg,none,0,false,high,NA,NA,NA,NA,NA,NA,NA,false
pH7fWVbP,3en4yvuovf59wipgxxflzhxwdchjxp,3wq3b2kgectxbi45temzv469jh0b1x,pH7fWVbP,2020-0188,2020-05-08,07:13:08,07:28:55,NA,incomplete,229,filling,1,left,Green_Plus_Grid_2.jpg,Blue_Star_Grid_4.jpg,Purple_Plus_Stripes_3.jpg,left,1284.670000008191,true,high,NA,NA,NA,NA,NA,NA,NA,false
pH7fWVbP,3en4yvuovf59wipgxxflzhxwdchjxp,3wq3b2kgectxbi45temzv469jh0b1x,pH7fWVbP,2020-0188,2020-05-08,07:13:08,07:28:55,NA,incomplete,230,filling,1,left,Purple_Star_Dots_2.jpg,Blue_Circle_Dots_1.jpg,Red_Star_Grid_4.jpg,left,1108.4849999897415,true,high,NA,NA,NA,NA,NA,NA,NA,false
pH7fWVbP,3en4yvuovf59wipgxxflzhxwdchjxp,3wq3b2kgectxbi45temzv469jh0b1x,pH7fWVbP,2020-0188,2020-05-08,07:13:08,07:28:55,NA,incomplete,231,filling,1,right,Green_Circle_Chess_2.jpg,Purple_Circle_Dots_4.jpg,Red_Triangle_Chess_1.jpg,right,1076.8149999930756,true,high,NA,NA,NA,NA,NA,NA,NA,false
pH7fWVbP,3en4yvuovf59wipgxxflzhxwdchjxp,3wq3b2kgectxbi45temzv469jh0b1x,pH7fWVbP,2020-0188,2020-05-08,07:13:08,07:28:55,NA,incomplete,232,filling,1,right,Green_Plus_Dots_1.jpg,Blue_Plus_Grid_3.jpg,Red_Star_Dots_2.jpg,right,966.9149999972433,true,high,NA,NA,NA,NA,NA,NA,NA,false
pH7fWVbP,3en4yvuovf59wipgxxflzhxwdchjxp,3wq3b2kgectxbi45temzv469jh0b1x,pH7fWVbP,2020-0188,2020-05-08,07:13:08,07:28:55,NA,incomplete,233,filling,1,right,Blue_Plus_Chess_4.jpg,Purple_Plus_Dots_3.jpg,Green_Star_Chess_2.jpg,right,1156.9050000107381,true,high,NA,NA,NA,NA,NA,NA,NA,false
pH7fWVbP,3en4yvuovf59wipgxxflzhxwdchjxp,3wq3b2kgectxbi45temzv469jh0b1x,pH7fWVbP,2020-0188,2020-05-08,07:13:08,07:28:55,NA,incomplete,234,filling,1,left,Purple_Circle_Stripes_1.jpg,Blue_Star_Stripes_2.jpg,Red_Circle_Grid_4.jpg,left,1133.1300000019837,true,high,NA,NA,NA,NA,NA,NA,NA,false
pH7fWVbP,3en4yvuovf59wipgxxflzhxwdchjxp,3wq3b2kgectxbi45temzv469jh0b1x,pH7fWVbP,2020-0188,2020-05-08,07:13:08,07:28:55,NA,incomplete,235,filling,1,left,Green_Plus_Dots_4.jpg,Red_Triangle_Dots_2.jpg,Purple_Plus_Stripes_3.jpg,left,1012.0400000014342,true,high,NA,NA,NA,NA,NA,NA,NA,false
pH7fWVbP,3en4yvuovf59wipgxxflzhxwdchjxp,3wq3b2kgectxbi45temzv469jh0b1x,pH7fWVbP,2020-0188,2020-05-08,07:13:08,07:28:55,NA,incomplete,236,filling,1,left,Red_Circle_Dots_4.jpg,Green_Triangle_Dots_1.jpg,Purple_Circle_Stripes_3.jpg,left,1008.5050000052433,true,high,NA,NA,NA,NA,NA,NA,NA,false
pH7fWVbP,3en4yvuovf59wipgxxflzhxwdchjxp,3wq3b2kgectxbi45temzv469jh0b1x,pH7fWVbP,2020-0188,2020-05-08,07:13:08,07:28:55,NA,incomplete,237,filling,1,left,Purple_Circle_Dots_4.jpg,Blue_Plus_Dots_1.jpg,Green_Circle_Grid_2.jpg,left,1012.9199999937555,true,high,NA,NA,NA,NA,NA,NA,NA,false
pH7fWVbP,3en4yvuovf59wipgxxflzhxwdchjxp,3wq3b2kgectxbi45temzv469jh0b1x,pH7fWVbP,2020-0188,2020-05-08,07:13:08,07:28:55,NA,incomplete,238,filling,0,right,Blue_Plus_Chess_4.jpg,Red_Plus_Grid_2.jpg,Purple_Triangle_Chess_3.jpg,right,1074.285000009695,true,high,NA,NA,NA,NA,NA,NA,NA,false
pH7fWVbP,3en4yvuovf59wipgxxflzhxwdchjxp,3wq3b2kgectxbi45temzv469jh0b1x,pH7fWVbP,2020-0188,2020-05-08,07:13:08,07:28:55,NA,incomplete,239,filling,1,left,Blue_Plus_Grid_1.jpg,Purple_Star_Grid_2.jpg,Red_Plus_Dots_3.jpg,none,0,false,high,NA,NA,NA,NA,NA,NA,NA,false
pH7fWVbP,3en4yvuovf59wipgxxflzhxwdchjxp,3wq3b2kgectxbi45temzv469jh0b1x,pH7fWVbP,2020-0188,2020-05-08,07:13:08,07:28:55,908873.0599999981,947350.5599999917,NA,NA,NA,NA,NA,NA,NA,NA,NA,NA,NA,57,White/Caucasian,Female,white,no,yes,no,undefined
