workerId,hitId,assignmentId,subject,studyid,exp_date,exp_start,exp_end,time_start,time_end,trial,type,reward_validity,answer,image_top,image_left,image_right,response,response_time,response_acc,volatility,practice
SWxGPKqQ,3ygyp13654mlicup3w1l36spsdqnrt,3wseltnvr7ft1sbmpj6d6z5zthttag,SWxGPKqQ,2020-0188,2020-11-15,03:08:40,03:24:03,NA,incomplete,0,filling,1,left,Purple_Plus_Stripes_2.jpg,Green_Triangle_Stripes_1.jpg,Purple_Circle_Dots_3.jpg,left,1419.3550000200048,true,NA,true
SWxGPKqQ,3ygyp13654mlicup3w1l36spsdqnrt,3wseltnvr7ft1sbmpj6d6z5zthttag,SWxGPKqQ,2020-0188,2020-11-15,03:08:40,03:24:03,NA,incomplete,1,filling,1,right,Green_Star_Stripes_2.jpg,Green_Plus_Grid_3.jpg,Red_Circle_Stripes_1.jpg,right,1640.8249999512918,true,NA,true
SWxGPKqQ,3ygyp13654mlicup3w1l36spsdqnrt,3wseltnvr7ft1sbmpj6d6z5zthttag,SWxGPKqQ,2020-0188,2020-11-15,03:08:40,03:24:03,NA,incomplete,2,filling,1,left,Green_Star_Chess_4.jpg,Red_Triangle_Chess_1.jpg,Green_Plus_Dots_3.jpg,left,1013.8949999818578,true,NA,true
SWxGPKqQ,3ygyp13654mlicup3w1l36spsdqnrt,3wseltnvr7ft1sbmpj6d6z5zthttag,SWxGPKqQ,2020-0188,2020-11-15,03:08:40,03:24:03,NA,incomplete,3,filling,1,right,Red_Triangle_Dots_1.jpg,Red_Circle_Grid_2.jpg,Purple_Star_Dots_3.jpg,right,1205.3399999858811,true,NA,true
SWxGPKqQ,3ygyp13654mlicup3w1l36spsdqnrt,3wseltnvr7ft1sbmpj6d6z5zthttag,SWxGPKqQ,2020-0188,2020-11-15,03:08:40,03:24:03,NA,incomplete,4,filling,0,right,Purple_Triangle_Chess_1.jpg,Purple_Plus_Stripes_2.jpg,Green_Star_Chess_4.jpg,right,1261.865000007674,true,NA,true
SWxGPKqQ,3ygyp13654mlicup3w1l36spsdqnrt,3wseltnvr7ft1sbmpj6d6z5zthttag,SWxGPKqQ,2020-0188,2020-11-15,03:08:40,03:24:03,NA,incomplete,5,filling,1,right,Blue_Triangle_Grid_1.jpg,Blue_Circle_Dots_4.jpg,Red_Star_Grid_3.jpg,left,1142.7499999990687,false,NA,true
SWxGPKqQ,3ygyp13654mlicup3w1l36spsdqnrt,3wseltnvr7ft1sbmpj6d6z5zthttag,SWxGPKqQ,2020-0188,2020-11-15,03:08:40,03:24:03,NA,incomplete,6,filling,0,right,Purple_Plus_Stripes_3.jpg,Purple_Triangle_Dots_2.jpg,Green_Circle_Stripes_4.jpg,right,1540.949999995064,true,NA,true
SWxGPKqQ,3ygyp13654mlicup3w1l36spsdqnrt,3wseltnvr7ft1sbmpj6d6z5zthttag,SWxGPKqQ,2020-0188,2020-11-15,03:08:40,03:24:03,NA,incomplete,7,filling,0,right,Blue_Triangle_Grid_3.jpg,Blue_Plus_Stripes_4.jpg,Red_Star_Grid_1.jpg,left,1259.6100000082515,false,NA,true
SWxGPKqQ,3ygyp13654mlicup3w1l36spsdqnrt,3wseltnvr7ft1sbmpj6d6z5zthttag,SWxGPKqQ,2020-0188,2020-11-15,03:08:40,03:24:03,NA,incomplete,8,filling,1,left,Green_Triangle_Dots_4.jpg,Blue_Plus_Dots_1.jpg,Green_Star_Grid_3.jpg,left,1326.2700000195764,true,NA,true
SWxGPKqQ,3ygyp13654mlicup3w1l36spsdqnrt,3wseltnvr7ft1sbmpj6d6z5zthttag,SWxGPKqQ,2020-0188,2020-11-15,03:08:40,03:24:03,NA,incomplete,9,filling,1,right,Blue_Circle_Stripes_4.jpg,Blue_Plus_Grid_3.jpg,Purple_Star_Stripes_2.jpg,right,1256.4499999862164,true,NA,true
SWxGPKqQ,3ygyp13654mlicup3w1l36spsdqnrt,3wseltnvr7ft1sbmpj6d6z5zthttag,SWxGPKqQ,2020-0188,2020-11-15,03:08:40,03:24:03,NA,incomplete,10,filling,1,right,Red_Plus_Grid_4.jpg,Red_Triangle_Chess_3.jpg,Green_Star_Grid_2.jpg,right,1523.6100000329316,true,NA,true
SWxGPKqQ,3ygyp13654mlicup3w1l36spsdqnrt,3wseltnvr7ft1sbmpj6d6z5zthttag,SWxGPKqQ,2020-0188,2020-11-15,03:08:40,03:24:03,NA,incomplete,11,filling,1,left,Blue_Circle_Chess_3.jpg,Green_Plus_Chess_4.jpg,Blue_Star_Stripes_1.jpg,left,1015.4400000465102,true,NA,true
SWxGPKqQ,3ygyp13654mlicup3w1l36spsdqnrt,3wseltnvr7ft1sbmpj6d6z5zthttag,SWxGPKqQ,2020-0188,2020-11-15,03:08:40,03:24:03,NA,incomplete,12,filling,1,right,Red_Circle_Grid_2.jpg,Red_Star_Stripes_1.jpg,Blue_Plus_Grid_3.jpg,left,1249.6350000146776,false,NA,true
SWxGPKqQ,3ygyp13654mlicup3w1l36spsdqnrt,3wseltnvr7ft1sbmpj6d6z5zthttag,SWxGPKqQ,2020-0188,2020-11-15,03:08:40,03:24:03,NA,incomplete,13,filling,1,right,Purple_Circle_Chess_2.jpg,Purple_Plus_Stripes_1.jpg,Blue_Star_Chess_3.jpg,right,1228.7400000495836,true,NA,true
SWxGPKqQ,3ygyp13654mlicup3w1l36spsdqnrt,3wseltnvr7ft1sbmpj6d6z5zthttag,SWxGPKqQ,2020-0188,2020-11-15,03:08:40,03:24:03,NA,incomplete,14,filling,1,right,Red_Star_Chess_3.jpg,Red_Circle_Grid_2.jpg,Green_Triangle_Chess_4.jpg,right,1325.795000011567,true,NA,true
SWxGPKqQ,3ygyp13654mlicup3w1l36spsdqnrt,3wseltnvr7ft1sbmpj6d6z5zthttag,SWxGPKqQ,2020-0188,2020-11-15,03:08:40,03:24:03,NA,incomplete,15,filling,1,left,Green_Triangle_Chess_4.jpg,Blue_Star_Chess_1.jpg,Green_Circle_Stripes_3.jpg,left,1112.4999999883585,true,NA,true
SWxGPKqQ,3ygyp13654mlicup3w1l36spsdqnrt,3wseltnvr7ft1sbmpj6d6z5zthttag,SWxGPKqQ,2020-0188,2020-11-15,03:08:40,03:24:03,NA,incomplete,16,filling,1,right,Red_Circle_Dots_3.jpg,Red_Triangle_Stripes_1.jpg,Blue_Star_Dots_4.jpg,right,1151.6600000322796,true,NA,true
SWxGPKqQ,3ygyp13654mlicup3w1l36spsdqnrt,3wseltnvr7ft1sbmpj6d6z5zthttag,SWxGPKqQ,2020-0188,2020-11-15,03:08:40,03:24:03,NA,incomplete,17,filling,1,right,Blue_Star_Dots_1.jpg,Blue_Triangle_Chess_4.jpg,Green_Circle_Dots_3.jpg,right,1016.7699999874458,true,NA,true
SWxGPKqQ,3ygyp13654mlicup3w1l36spsdqnrt,3wseltnvr7ft1sbmpj6d6z5zthttag,SWxGPKqQ,2020-0188,2020-11-15,03:08:40,03:24:03,NA,incomplete,18,filling,1,right,Purple_Star_Chess_4.jpg,Purple_Triangle_Stripes_3.jpg,Red_Plus_Chess_2.jpg,right,1082.9549999907613,true,NA,true
SWxGPKqQ,3ygyp13654mlicup3w1l36spsdqnrt,3wseltnvr7ft1sbmpj6d6z5zthttag,SWxGPKqQ,2020-0188,2020-11-15,03:08:40,03:24:03,NA,incomplete,19,filling,0,left,Purple_Triangle_Chess_2.jpg,Green_Circle_Chess_1.jpg,Purple_Plus_Dots_4.jpg,left,1309.929999988526,true,NA,true
SWxGPKqQ,3ygyp13654mlicup3w1l36spsdqnrt,3wseltnvr7ft1sbmpj6d6z5zthttag,SWxGPKqQ,2020-0188,2020-11-15,03:08:40,03:24:03,NA,incomplete,20,color,1,left,Purple_Triangle_Chess_3.jpg,Purple_Circle_Dots_4.jpg,Blue_Plus_Chess_1.jpg,left,920.3850000048988,true,NA,true
SWxGPKqQ,3ygyp13654mlicup3w1l36spsdqnrt,3wseltnvr7ft1sbmpj6d6z5zthttag,SWxGPKqQ,2020-0188,2020-11-15,03:08:40,03:24:03,NA,incomplete,21,color,0,right,Green_Plus_Dots_4.jpg,Purple_Triangle_Dots_1.jpg,Green_Star_Chess_2.jpg,right,604.5400000293739,true,NA,true
SWxGPKqQ,3ygyp13654mlicup3w1l36spsdqnrt,3wseltnvr7ft1sbmpj6d6z5zthttag,SWxGPKqQ,2020-0188,2020-11-15,03:08:40,03:24:03,NA,incomplete,22,color,1,left,Blue_Star_Stripes_3.jpg,Blue_Triangle_Grid_4.jpg,Purple_Circle_Stripes_1.jpg,left,802.1399999852292,true,NA,true
SWxGPKqQ,3ygyp13654mlicup3w1l36spsdqnrt,3wseltnvr7ft1sbmpj6d6z5zthttag,SWxGPKqQ,2020-0188,2020-11-15,03:08:40,03:24:03,NA,incomplete,23,color,1,right,Blue_Star_Chess_4.jpg,Green_Plus_Chess_3.jpg,Blue_Circle_Dots_2.jpg,right,670.540000020992,true,NA,true
SWxGPKqQ,3ygyp13654mlicup3w1l36spsdqnrt,3wseltnvr7ft1sbmpj6d6z5zthttag,SWxGPKqQ,2020-0188,2020-11-15,03:08:40,03:24:03,NA,incomplete,24,color,0,right,Green_Circle_Grid_1.jpg,Red_Plus_Grid_4.jpg,Green_Star_Dots_3.jpg,right,641.1799999768846,true,NA,true
SWxGPKqQ,3ygyp13654mlicup3w1l36spsdqnrt,3wseltnvr7ft1sbmpj6d6z5zthttag,SWxGPKqQ,2020-0188,2020-11-15,03:08:40,03:24:03,NA,incomplete,25,color,1,right,Red_Triangle_Chess_2.jpg,Green_Plus_Chess_1.jpg,Red_Star_Dots_3.jpg,right,1016.1000000080094,true,NA,true
SWxGPKqQ,3ygyp13654mlicup3w1l36spsdqnrt,3wseltnvr7ft1sbmpj6d6z5zthttag,SWxGPKqQ,2020-0188,2020-11-15,03:08:40,03:24:03,NA,incomplete,26,color,1,left,Green_Triangle_Grid_3.jpg,Green_Star_Stripes_4.jpg,Red_Plus_Grid_2.jpg,left,855.5649999761954,true,NA,true
SWxGPKqQ,3ygyp13654mlicup3w1l36spsdqnrt,3wseltnvr7ft1sbmpj6d6z5zthttag,SWxGPKqQ,2020-0188,2020-11-15,03:08:40,03:24:03,NA,incomplete,27,color,1,left,Blue_Plus_Chess_4.jpg,Blue_Triangle_Dots_3.jpg,Red_Circle_Chess_1.jpg,left,686.1299999873154,true,NA,true
SWxGPKqQ,3ygyp13654mlicup3w1l36spsdqnrt,3wseltnvr7ft1sbmpj6d6z5zthttag,SWxGPKqQ,2020-0188,2020-11-15,03:08:40,03:24:03,NA,incomplete,28,color,1,right,Purple_Circle_Grid_3.jpg,Green_Star_Grid_1.jpg,Purple_Plus_Chess_4.jpg,right,596.3200000114739,true,NA,true
SWxGPKqQ,3ygyp13654mlicup3w1l36spsdqnrt,3wseltnvr7ft1sbmpj6d6z5zthttag,SWxGPKqQ,2020-0188,2020-11-15,03:08:40,03:24:03,NA,incomplete,29,color,1,left,Blue_Plus_Dots_1.jpg,Blue_Star_Stripes_2.jpg,Red_Circle_Dots_3.jpg,left,763.9499999932013,true,NA,true
SWxGPKqQ,3ygyp13654mlicup3w1l36spsdqnrt,3wseltnvr7ft1sbmpj6d6z5zthttag,SWxGPKqQ,2020-0188,2020-11-15,03:08:40,03:24:03,NA,incomplete,30,color,0,left,Red_Plus_Grid_2.jpg,Red_Triangle_Chess_3.jpg,Green_Star_Grid_4.jpg,left,602.8299999888986,true,NA,true
SWxGPKqQ,3ygyp13654mlicup3w1l36spsdqnrt,3wseltnvr7ft1sbmpj6d6z5zthttag,SWxGPKqQ,2020-0188,2020-11-15,03:08:40,03:24:03,NA,incomplete,31,color,1,left,Red_Star_Stripes_2.jpg,Red_Triangle_Chess_1.jpg,Purple_Plus_Stripes_4.jpg,left,604.1100000147708,true,NA,true
SWxGPKqQ,3ygyp13654mlicup3w1l36spsdqnrt,3wseltnvr7ft1sbmpj6d6z5zthttag,SWxGPKqQ,2020-0188,2020-11-15,03:08:40,03:24:03,NA,incomplete,32,color,1,right,Purple_Star_Grid_2.jpg,Green_Triangle_Grid_4.jpg,Purple_Plus_Dots_3.jpg,right,537.8449999843724,true,NA,true
SWxGPKqQ,3ygyp13654mlicup3w1l36spsdqnrt,3wseltnvr7ft1sbmpj6d6z5zthttag,SWxGPKqQ,2020-0188,2020-11-15,03:08:40,03:24:03,NA,incomplete,33,color,1,right,Red_Star_Chess_1.jpg,Blue_Plus_Chess_2.jpg,Red_Triangle_Grid_4.jpg,right,718.9249999937601,true,NA,true
SWxGPKqQ,3ygyp13654mlicup3w1l36spsdqnrt,3wseltnvr7ft1sbmpj6d6z5zthttag,SWxGPKqQ,2020-0188,2020-11-15,03:08:40,03:24:03,NA,incomplete,34,color,1,right,Blue_Star_Stripes_2.jpg,Red_Triangle_Stripes_1.jpg,Blue_Plus_Chess_3.jpg,right,823.8250000285916,true,NA,true
SWxGPKqQ,3ygyp13654mlicup3w1l36spsdqnrt,3wseltnvr7ft1sbmpj6d6z5zthttag,SWxGPKqQ,2020-0188,2020-11-15,03:08:40,03:24:03,NA,incomplete,35,color,1,left,Blue_Star_Grid_3.jpg,Blue_Plus_Stripes_4.jpg,Purple_Triangle_Grid_2.jpg,left,564.3000000272878,true,NA,true
SWxGPKqQ,3ygyp13654mlicup3w1l36spsdqnrt,3wseltnvr7ft1sbmpj6d6z5zthttag,SWxGPKqQ,2020-0188,2020-11-15,03:08:40,03:24:03,NA,incomplete,36,color,1,left,Red_Triangle_Chess_1.jpg,Red_Plus_Grid_2.jpg,Green_Circle_Chess_4.jpg,left,521.355000033509,true,NA,true
SWxGPKqQ,3ygyp13654mlicup3w1l36spsdqnrt,3wseltnvr7ft1sbmpj6d6z5zthttag,SWxGPKqQ,2020-0188,2020-11-15,03:08:40,03:24:03,NA,incomplete,37,color,1,right,Green_Plus_Stripes_1.jpg,Red_Triangle_Stripes_3.jpg,Green_Circle_Grid_2.jpg,right,534.0149999829009,true,NA,true
SWxGPKqQ,3ygyp13654mlicup3w1l36spsdqnrt,3wseltnvr7ft1sbmpj6d6z5zthttag,SWxGPKqQ,2020-0188,2020-11-15,03:08:40,03:24:03,NA,incomplete,38,color,1,right,Red_Star_Chess_1.jpg,Blue_Circle_Chess_4.jpg,Red_Plus_Grid_3.jpg,right,497.11500003468245,true,NA,true
SWxGPKqQ,3ygyp13654mlicup3w1l36spsdqnrt,3wseltnvr7ft1sbmpj6d6z5zthttag,SWxGPKqQ,2020-0188,2020-11-15,03:08:40,03:24:03,NA,incomplete,39,color,0,right,Green_Star_Chess_3.jpg,Blue_Circle_Chess_1.jpg,Green_Plus_Stripes_2.jpg,right,588.724999979604,true,NA,true
SWxGPKqQ,3ygyp13654mlicup3w1l36spsdqnrt,3wseltnvr7ft1sbmpj6d6z5zthttag,SWxGPKqQ,2020-0188,2020-11-15,03:08:40,03:24:03,NA,incomplete,0,filling,1,left,Blue_Star_Chess_1.jpg,Purple_Circle_Chess_4.jpg,Blue_Triangle_Stripes_3.jpg,right,1138.5449999943376,false,low,false
SWxGPKqQ,3ygyp13654mlicup3w1l36spsdqnrt,3wseltnvr7ft1sbmpj6d6z5zthttag,SWxGPKqQ,2020-0188,2020-11-15,03:08:40,03:24:03,NA,incomplete,1,filling,1,left,Red_Plus_Stripes_2.jpg,Green_Triangle_Stripes_1.jpg,Red_Star_Dots_4.jpg,left,823.355000000447,true,low,false
SWxGPKqQ,3ygyp13654mlicup3w1l36spsdqnrt,3wseltnvr7ft1sbmpj6d6z5zthttag,SWxGPKqQ,2020-0188,2020-11-15,03:08:40,03:24:03,NA,incomplete,2,filling,1,left,Blue_Plus_Dots_4.jpg,Green_Circle_Dots_3.jpg,Blue_Triangle_Chess_1.jpg,left,913.4399999747984,true,low,false
SWxGPKqQ,3ygyp13654mlicup3w1l36spsdqnrt,3wseltnvr7ft1sbmpj6d6z5zthttag,SWxGPKqQ,2020-0188,2020-11-15,03:08:40,03:24:03,NA,incomplete,3,filling,1,left,Red_Triangle_Grid_4.jpg,Purple_Circle_Grid_3.jpg,Red_Star_Chess_1.jpg,left,916.4500000188127,true,low,false
SWxGPKqQ,3ygyp13654mlicup3w1l36spsdqnrt,3wseltnvr7ft1sbmpj6d6z5zthttag,SWxGPKqQ,2020-0188,2020-11-15,03:08:40,03:24:03,NA,incomplete,4,filling,1,right,Purple_Triangle_Dots_2.jpg,Purple_Star_Grid_4.jpg,Blue_Circle_Dots_1.jpg,right,804.6850000391714,true,low,false
SWxGPKqQ,3ygyp13654mlicup3w1l36spsdqnrt,3wseltnvr7ft1sbmpj6d6z5zthttag,SWxGPKqQ,2020-0188,2020-11-15,03:08:40,03:24:03,NA,incomplete,5,filling,1,left,Blue_Star_Chess_4.jpg,Red_Circle_Chess_3.jpg,Blue_Triangle_Stripes_1.jpg,left,853.4349999972619,true,low,false
SWxGPKqQ,3ygyp13654mlicup3w1l36spsdqnrt,3wseltnvr7ft1sbmpj6d6z5zthttag,SWxGPKqQ,2020-0188,2020-11-15,03:08:40,03:24:03,NA,incomplete,6,filling,1,left,Purple_Triangle_Chess_4.jpg,Blue_Plus_Chess_2.jpg,Purple_Star_Dots_1.jpg,left,719.1899999743327,true,low,false
SWxGPKqQ,3ygyp13654mlicup3w1l36spsdqnrt,3wseltnvr7ft1sbmpj6d6z5zthttag,SWxGPKqQ,2020-0188,2020-11-15,03:08:40,03:24:03,NA,incomplete,7,filling,1,right,Red_Circle_Grid_2.jpg,Red_Plus_Dots_4.jpg,Green_Triangle_Grid_1.jpg,right,875.3649999853224,true,low,false
SWxGPKqQ,3ygyp13654mlicup3w1l36spsdqnrt,3wseltnvr7ft1sbmpj6d6z5zthttag,SWxGPKqQ,2020-0188,2020-11-15,03:08:40,03:24:03,NA,incomplete,8,filling,1,right,Red_Plus_Stripes_3.jpg,Red_Star_Chess_1.jpg,Blue_Circle_Stripes_2.jpg,right,934.175000002142,true,low,false
SWxGPKqQ,3ygyp13654mlicup3w1l36spsdqnrt,3wseltnvr7ft1sbmpj6d6z5zthttag,SWxGPKqQ,2020-0188,2020-11-15,03:08:40,03:24:03,NA,incomplete,9,filling,0,left,Blue_Star_Chess_4.jpg,Purple_Plus_Chess_2.jpg,Blue_Triangle_Stripes_3.jpg,left,733.0249999649823,true,low,false
SWxGPKqQ,3ygyp13654mlicup3w1l36spsdqnrt,3wseltnvr7ft1sbmpj6d6z5zthttag,SWxGPKqQ,2020-0188,2020-11-15,03:08:40,03:24:03,NA,incomplete,10,filling,1,right,Red_Star_Chess_2.jpg,Red_Plus_Dots_1.jpg,Purple_Triangle_Chess_4.jpg,left,600.815000012517,false,low,false
SWxGPKqQ,3ygyp13654mlicup3w1l36spsdqnrt,3wseltnvr7ft1sbmpj6d6z5zthttag,SWxGPKqQ,2020-0188,2020-11-15,03:08:40,03:24:03,NA,incomplete,11,filling,0,right,Red_Star_Chess_3.jpg,Red_Plus_Stripes_4.jpg,Blue_Circle_Chess_1.jpg,right,1288.150000036694,true,low,false
SWxGPKqQ,3ygyp13654mlicup3w1l36spsdqnrt,3wseltnvr7ft1sbmpj6d6z5zthttag,SWxGPKqQ,2020-0188,2020-11-15,03:08:40,03:24:03,NA,incomplete,12,filling,0,left,Purple_Triangle_Dots_1.jpg,Blue_Plus_Dots_4.jpg,Purple_Star_Chess_2.jpg,right,531.6200000233948,false,low,false
SWxGPKqQ,3ygyp13654mlicup3w1l36spsdqnrt,3wseltnvr7ft1sbmpj6d6z5zthttag,SWxGPKqQ,2020-0188,2020-11-15,03:08:40,03:24:03,NA,incomplete,13,filling,1,left,Blue_Triangle_Chess_2.jpg,Purple_Plus_Chess_3.jpg,Blue_Circle_Stripes_1.jpg,right,468.13499997369945,false,low,false
SWxGPKqQ,3ygyp13654mlicup3w1l36spsdqnrt,3wseltnvr7ft1sbmpj6d6z5zthttag,SWxGPKqQ,2020-0188,2020-11-15,03:08:40,03:24:03,NA,incomplete,14,filling,1,left,Blue_Triangle_Chess_2.jpg,Red_Star_Chess_3.jpg,Blue_Circle_Grid_1.jpg,left,897.3150000092573,true,low,false
SWxGPKqQ,3ygyp13654mlicup3w1l36spsdqnrt,3wseltnvr7ft1sbmpj6d6z5zthttag,SWxGPKqQ,2020-0188,2020-11-15,03:08:40,03:24:03,NA,incomplete,15,filling,1,right,Blue_Triangle_Stripes_4.jpg,Blue_Plus_Grid_2.jpg,Purple_Star_Stripes_3.jpg,left,928.6900000297464,false,low,false
SWxGPKqQ,3ygyp13654mlicup3w1l36spsdqnrt,3wseltnvr7ft1sbmpj6d6z5zthttag,SWxGPKqQ,2020-0188,2020-11-15,03:08:40,03:24:03,NA,incomplete,16,filling,1,left,Red_Triangle_Grid_4.jpg,Green_Plus_Grid_2.jpg,Red_Star_Stripes_1.jpg,right,878.9850000175647,false,low,false
SWxGPKqQ,3ygyp13654mlicup3w1l36spsdqnrt,3wseltnvr7ft1sbmpj6d6z5zthttag,SWxGPKqQ,2020-0188,2020-11-15,03:08:40,03:24:03,NA,incomplete,17,filling,1,right,Red_Plus_Stripes_3.jpg,Red_Circle_Dots_2.jpg,Purple_Star_Stripes_4.jpg,right,928.6399999982677,true,low,false
SWxGPKqQ,3ygyp13654mlicup3w1l36spsdqnrt,3wseltnvr7ft1sbmpj6d6z5zthttag,SWxGPKqQ,2020-0188,2020-11-15,03:08:40,03:24:03,NA,incomplete,18,filling,1,left,Red_Plus_Chess_4.jpg,Blue_Triangle_Chess_3.jpg,Red_Circle_Stripes_1.jpg,left,1239.899999985937,true,low,false
SWxGPKqQ,3ygyp13654mlicup3w1l36spsdqnrt,3wseltnvr7ft1sbmpj6d6z5zthttag,SWxGPKqQ,2020-0188,2020-11-15,03:08:40,03:24:03,NA,incomplete,19,filling,1,right,Red_Star_Dots_2.jpg,Red_Circle_Chess_3.jpg,Purple_Plus_Dots_1.jpg,right,938.1750000175089,true,low,false
SWxGPKqQ,3ygyp13654mlicup3w1l36spsdqnrt,3wseltnvr7ft1sbmpj6d6z5zthttag,SWxGPKqQ,2020-0188,2020-11-15,03:08:40,03:24:03,NA,incomplete,20,filling,1,right,Purple_Plus_Chess_2.jpg,Purple_Star_Stripes_4.jpg,Green_Triangle_Chess_1.jpg,right,750.304999994114,true,low,false
SWxGPKqQ,3ygyp13654mlicup3w1l36spsdqnrt,3wseltnvr7ft1sbmpj6d6z5zthttag,SWxGPKqQ,2020-0188,2020-11-15,03:08:40,03:24:03,NA,incomplete,21,filling,1,right,Blue_Star_Grid_3.jpg,Blue_Circle_Stripes_1.jpg,Purple_Plus_Grid_4.jpg,left,922.5999999907799,false,low,false
SWxGPKqQ,3ygyp13654mlicup3w1l36spsdqnrt,3wseltnvr7ft1sbmpj6d6z5zthttag,SWxGPKqQ,2020-0188,2020-11-15,03:08:40,03:24:03,NA,incomplete,22,filling,0,right,Blue_Plus_Grid_2.jpg,Blue_Triangle_Chess_4.jpg,Red_Star_Grid_1.jpg,right,982.0699999690987,true,low,false
SWxGPKqQ,3ygyp13654mlicup3w1l36spsdqnrt,3wseltnvr7ft1sbmpj6d6z5zthttag,SWxGPKqQ,2020-0188,2020-11-15,03:08:40,03:24:03,NA,incomplete,23,filling,1,right,Blue_Triangle_Dots_1.jpg,Blue_Plus_Stripes_3.jpg,Red_Circle_Dots_4.jpg,left,631.824999989476,false,low,false
SWxGPKqQ,3ygyp13654mlicup3w1l36spsdqnrt,3wseltnvr7ft1sbmpj6d6z5zthttag,SWxGPKqQ,2020-0188,2020-11-15,03:08:40,03:24:03,NA,incomplete,24,filling,1,right,Green_Circle_Stripes_2.jpg,Green_Star_Chess_3.jpg,Blue_Triangle_Stripes_1.jpg,right,831.3949999865144,true,low,false
SWxGPKqQ,3ygyp13654mlicup3w1l36spsdqnrt,3wseltnvr7ft1sbmpj6d6z5zthttag,SWxGPKqQ,2020-0188,2020-11-15,03:08:40,03:24:03,NA,incomplete,25,filling,1,left,Red_Triangle_Grid_2.jpg,Green_Circle_Grid_1.jpg,Red_Star_Stripes_4.jpg,left,903.165000025183,true,low,false
SWxGPKqQ,3ygyp13654mlicup3w1l36spsdqnrt,3wseltnvr7ft1sbmpj6d6z5zthttag,SWxGPKqQ,2020-0188,2020-11-15,03:08:40,03:24:03,NA,incomplete,26,filling,1,left,Green_Star_Stripes_2.jpg,Red_Triangle_Stripes_3.jpg,Green_Circle_Grid_1.jpg,left,746.1250000051223,true,low,false
SWxGPKqQ,3ygyp13654mlicup3w1l36spsdqnrt,3wseltnvr7ft1sbmpj6d6z5zthttag,SWxGPKqQ,2020-0188,2020-11-15,03:08:40,03:24:03,NA,incomplete,27,filling,1,right,Blue_Plus_Grid_4.jpg,Blue_Circle_Dots_1.jpg,Green_Triangle_Grid_3.jpg,right,909.5949999755248,true,low,false
SWxGPKqQ,3ygyp13654mlicup3w1l36spsdqnrt,3wseltnvr7ft1sbmpj6d6z5zthttag,SWxGPKqQ,2020-0188,2020-11-15,03:08:40,03:24:03,NA,incomplete,28,filling,1,left,Purple_Triangle_Chess_2.jpg,Red_Circle_Chess_4.jpg,Purple_Star_Dots_3.jpg,left,797.8049999801442,true,low,false
SWxGPKqQ,3ygyp13654mlicup3w1l36spsdqnrt,3wseltnvr7ft1sbmpj6d6z5zthttag,SWxGPKqQ,2020-0188,2020-11-15,03:08:40,03:24:03,NA,incomplete,29,filling,1,left,Blue_Star_Stripes_3.jpg,Red_Triangle_Stripes_4.jpg,Blue_Plus_Dots_2.jpg,left,894.6349999750964,true,low,false
SWxGPKqQ,3ygyp13654mlicup3w1l36spsdqnrt,3wseltnvr7ft1sbmpj6d6z5zthttag,SWxGPKqQ,2020-0188,2020-11-15,03:08:40,03:24:03,NA,incomplete,30,color,1,left,Blue_Star_Dots_2.jpg,Blue_Plus_Chess_3.jpg,Red_Triangle_Dots_1.jpg,right,817.670000018552,false,low,false
SWxGPKqQ,3ygyp13654mlicup3w1l36spsdqnrt,3wseltnvr7ft1sbmpj6d6z5zthttag,SWxGPKqQ,2020-0188,2020-11-15,03:08:40,03:24:03,NA,incomplete,31,color,1,left,Green_Plus_Grid_2.jpg,Green_Circle_Chess_3.jpg,Blue_Triangle_Grid_4.jpg,left,545.1099999481812,true,low,false
SWxGPKqQ,3ygyp13654mlicup3w1l36spsdqnrt,3wseltnvr7ft1sbmpj6d6z5zthttag,SWxGPKqQ,2020-0188,2020-11-15,03:08:40,03:24:03,NA,incomplete,32,color,1,left,Red_Star_Chess_4.jpg,Red_Circle_Dots_1.jpg,Blue_Triangle_Chess_2.jpg,left,466.29499999107793,true,low,false
SWxGPKqQ,3ygyp13654mlicup3w1l36spsdqnrt,3wseltnvr7ft1sbmpj6d6z5zthttag,SWxGPKqQ,2020-0188,2020-11-15,03:08:40,03:24:03,NA,incomplete,33,color,1,right,Red_Plus_Stripes_4.jpg,Blue_Circle_Stripes_1.jpg,Red_Triangle_Grid_3.jpg,right,544.9750000261702,true,low,false
SWxGPKqQ,3ygyp13654mlicup3w1l36spsdqnrt,3wseltnvr7ft1sbmpj6d6z5zthttag,SWxGPKqQ,2020-0188,2020-11-15,03:08:40,03:24:03,NA,incomplete,34,color,1,right,Blue_Plus_Grid_1.jpg,Green_Triangle_Grid_2.jpg,Blue_Star_Chess_4.jpg,right,631.6349999979138,true,low,false
SWxGPKqQ,3ygyp13654mlicup3w1l36spsdqnrt,3wseltnvr7ft1sbmpj6d6z5zthttag,SWxGPKqQ,2020-0188,2020-11-15,03:08:40,03:24:03,NA,incomplete,35,color,1,right,Red_Circle_Chess_4.jpg,Blue_Triangle_Chess_1.jpg,Red_Star_Stripes_2.jpg,right,603.3649999881163,true,low,false
SWxGPKqQ,3ygyp13654mlicup3w1l36spsdqnrt,3wseltnvr7ft1sbmpj6d6z5zthttag,SWxGPKqQ,2020-0188,2020-11-15,03:08:40,03:24:03,NA,incomplete,36,color,1,right,Green_Circle_Dots_3.jpg,Purple_Triangle_Dots_4.jpg,Green_Star_Grid_2.jpg,right,486.40499997418374,true,low,false
SWxGPKqQ,3ygyp13654mlicup3w1l36spsdqnrt,3wseltnvr7ft1sbmpj6d6z5zthttag,SWxGPKqQ,2020-0188,2020-11-15,03:08:40,03:24:03,NA,incomplete,37,color,1,left,Red_Star_Grid_1.jpg,Red_Circle_Chess_4.jpg,Purple_Plus_Grid_2.jpg,left,372.0599999651313,true,low,false
SWxGPKqQ,3ygyp13654mlicup3w1l36spsdqnrt,3wseltnvr7ft1sbmpj6d6z5zthttag,SWxGPKqQ,2020-0188,2020-11-15,03:08:40,03:24:03,NA,incomplete,38,color,1,left,Blue_Star_Chess_2.jpg,Blue_Plus_Grid_1.jpg,Green_Circle_Chess_3.jpg,left,436.3550000125542,true,low,false
SWxGPKqQ,3ygyp13654mlicup3w1l36spsdqnrt,3wseltnvr7ft1sbmpj6d6z5zthttag,SWxGPKqQ,2020-0188,2020-11-15,03:08:40,03:24:03,NA,incomplete,39,color,1,left,Purple_Triangle_Grid_1.jpg,Purple_Plus_Stripes_2.jpg,Green_Circle_Grid_3.jpg,left,439.89000003784895,true,low,false
SWxGPKqQ,3ygyp13654mlicup3w1l36spsdqnrt,3wseltnvr7ft1sbmpj6d6z5zthttag,SWxGPKqQ,2020-0188,2020-11-15,03:08:40,03:24:03,NA,incomplete,40,color,0,right,Purple_Triangle_Stripes_1.jpg,Blue_Star_Stripes_4.jpg,Purple_Plus_Chess_3.jpg,right,457.3600000003353,true,low,false
SWxGPKqQ,3ygyp13654mlicup3w1l36spsdqnrt,3wseltnvr7ft1sbmpj6d6z5zthttag,SWxGPKqQ,2020-0188,2020-11-15,03:08:40,03:24:03,NA,incomplete,41,color,1,right,Blue_Star_Stripes_3.jpg,Green_Triangle_Stripes_1.jpg,Blue_Plus_Dots_4.jpg,left,951.1599999968894,false,low,false
SWxGPKqQ,3ygyp13654mlicup3w1l36spsdqnrt,3wseltnvr7ft1sbmpj6d6z5zthttag,SWxGPKqQ,2020-0188,2020-11-15,03:08:40,03:24:03,NA,incomplete,42,color,1,right,Red_Star_Stripes_2.jpg,Green_Circle_Stripes_4.jpg,Red_Triangle_Grid_3.jpg,right,529.7600000048988,true,low,false
SWxGPKqQ,3ygyp13654mlicup3w1l36spsdqnrt,3wseltnvr7ft1sbmpj6d6z5zthttag,SWxGPKqQ,2020-0188,2020-11-15,03:08:40,03:24:03,NA,incomplete,43,color,1,right,Green_Plus_Stripes_1.jpg,Blue_Circle_Stripes_4.jpg,Green_Triangle_Dots_3.jpg,right,431.9299999624491,true,low,false
SWxGPKqQ,3ygyp13654mlicup3w1l36spsdqnrt,3wseltnvr7ft1sbmpj6d6z5zthttag,SWxGPKqQ,2020-0188,2020-11-15,03:08:40,03:24:03,NA,incomplete,44,color,0,left,Red_Circle_Grid_2.jpg,Red_Triangle_Dots_3.jpg,Green_Plus_Grid_1.jpg,left,419.2250000196509,true,low,false
SWxGPKqQ,3ygyp13654mlicup3w1l36spsdqnrt,3wseltnvr7ft1sbmpj6d6z5zthttag,SWxGPKqQ,2020-0188,2020-11-15,03:08:40,03:24:03,NA,incomplete,45,color,1,right,Purple_Circle_Chess_4.jpg,Red_Plus_Chess_2.jpg,Purple_Triangle_Dots_3.jpg,right,461.8899999768473,true,low,false
SWxGPKqQ,3ygyp13654mlicup3w1l36spsdqnrt,3wseltnvr7ft1sbmpj6d6z5zthttag,SWxGPKqQ,2020-0188,2020-11-15,03:08:40,03:24:03,NA,incomplete,46,color,1,right,Blue_Star_Chess_2.jpg,Red_Circle_Chess_4.jpg,Blue_Triangle_Dots_1.jpg,right,458.50000000791624,true,low,false
SWxGPKqQ,3ygyp13654mlicup3w1l36spsdqnrt,3wseltnvr7ft1sbmpj6d6z5zthttag,SWxGPKqQ,2020-0188,2020-11-15,03:08:40,03:24:03,NA,incomplete,47,color,0,left,Green_Triangle_Dots_1.jpg,Green_Plus_Grid_3.jpg,Red_Circle_Dots_2.jpg,left,448.6349999788217,true,low,false
SWxGPKqQ,3ygyp13654mlicup3w1l36spsdqnrt,3wseltnvr7ft1sbmpj6d6z5zthttag,SWxGPKqQ,2020-0188,2020-11-15,03:08:40,03:24:03,NA,incomplete,48,color,1,left,Green_Triangle_Dots_1.jpg,Green_Plus_Stripes_4.jpg,Red_Circle_Dots_2.jpg,right,728.2950000371784,false,low,false
SWxGPKqQ,3ygyp13654mlicup3w1l36spsdqnrt,3wseltnvr7ft1sbmpj6d6z5zthttag,SWxGPKqQ,2020-0188,2020-11-15,03:08:40,03:24:03,NA,incomplete,49,color,1,right,Blue_Circle_Grid_2.jpg,Purple_Triangle_Grid_1.jpg,Blue_Star_Chess_4.jpg,right,628.179999999702,true,low,false
SWxGPKqQ,3ygyp13654mlicup3w1l36spsdqnrt,3wseltnvr7ft1sbmpj6d6z5zthttag,SWxGPKqQ,2020-0188,2020-11-15,03:08:40,03:24:03,NA,incomplete,50,color,1,left,Green_Circle_Stripes_3.jpg,Green_Star_Grid_4.jpg,Red_Triangle_Stripes_2.jpg,left,524.9550000298768,true,low,false
SWxGPKqQ,3ygyp13654mlicup3w1l36spsdqnrt,3wseltnvr7ft1sbmpj6d6z5zthttag,SWxGPKqQ,2020-0188,2020-11-15,03:08:40,03:24:03,NA,incomplete,51,color,0,right,Purple_Circle_Stripes_3.jpg,Blue_Star_Stripes_1.jpg,Purple_Triangle_Dots_2.jpg,right,410.5349999736063,true,low,false
SWxGPKqQ,3ygyp13654mlicup3w1l36spsdqnrt,3wseltnvr7ft1sbmpj6d6z5zthttag,SWxGPKqQ,2020-0188,2020-11-15,03:08:40,03:24:03,NA,incomplete,52,color,1,left,Blue_Plus_Stripes_3.jpg,Blue_Triangle_Chess_1.jpg,Green_Circle_Stripes_2.jpg,right,858.7950000073761,false,low,false
SWxGPKqQ,3ygyp13654mlicup3w1l36spsdqnrt,3wseltnvr7ft1sbmpj6d6z5zthttag,SWxGPKqQ,2020-0188,2020-11-15,03:08:40,03:24:03,NA,incomplete,53,color,1,right,Green_Star_Grid_4.jpg,Blue_Circle_Grid_3.jpg,Green_Triangle_Chess_1.jpg,right,505.33000001451,true,low,false
SWxGPKqQ,3ygyp13654mlicup3w1l36spsdqnrt,3wseltnvr7ft1sbmpj6d6z5zthttag,SWxGPKqQ,2020-0188,2020-11-15,03:08:40,03:24:03,NA,incomplete,54,color,1,left,Purple_Plus_Chess_3.jpg,Purple_Triangle_Stripes_4.jpg,Red_Star_Chess_1.jpg,left,468.51500001503155,true,low,false
SWxGPKqQ,3ygyp13654mlicup3w1l36spsdqnrt,3wseltnvr7ft1sbmpj6d6z5zthttag,SWxGPKqQ,2020-0188,2020-11-15,03:08:40,03:24:03,NA,incomplete,55,color,1,left,Purple_Circle_Grid_1.jpg,Purple_Star_Dots_4.jpg,Red_Triangle_Grid_2.jpg,left,452.43000000482425,true,low,false
SWxGPKqQ,3ygyp13654mlicup3w1l36spsdqnrt,3wseltnvr7ft1sbmpj6d6z5zthttag,SWxGPKqQ,2020-0188,2020-11-15,03:08:40,03:24:03,NA,incomplete,56,color,1,left,Green_Star_Chess_4.jpg,Green_Plus_Stripes_1.jpg,Purple_Triangle_Chess_3.jpg,left,629.4249999918975,true,low,false
SWxGPKqQ,3ygyp13654mlicup3w1l36spsdqnrt,3wseltnvr7ft1sbmpj6d6z5zthttag,SWxGPKqQ,2020-0188,2020-11-15,03:08:40,03:24:03,NA,incomplete,57,color,0,left,Purple_Circle_Grid_3.jpg,Purple_Plus_Dots_2.jpg,Blue_Star_Grid_4.jpg,left,472.2649999894202,true,low,false
SWxGPKqQ,3ygyp13654mlicup3w1l36spsdqnrt,3wseltnvr7ft1sbmpj6d6z5zthttag,SWxGPKqQ,2020-0188,2020-11-15,03:08:40,03:24:03,NA,incomplete,58,color,0,left,Purple_Plus_Stripes_1.jpg,Purple_Triangle_Dots_2.jpg,Red_Circle_Stripes_3.jpg,right,752.8750000055879,false,low,false
SWxGPKqQ,3ygyp13654mlicup3w1l36spsdqnrt,3wseltnvr7ft1sbmpj6d6z5zthttag,SWxGPKqQ,2020-0188,2020-11-15,03:08:40,03:24:03,NA,incomplete,59,color,1,left,Green_Star_Dots_3.jpg,Green_Circle_Grid_1.jpg,Purple_Triangle_Dots_2.jpg,right,885.7549999956973,false,low,false
SWxGPKqQ,3ygyp13654mlicup3w1l36spsdqnrt,3wseltnvr7ft1sbmpj6d6z5zthttag,SWxGPKqQ,2020-0188,2020-11-15,03:08:40,03:24:03,NA,incomplete,60,filling,1,right,Green_Circle_Dots_4.jpg,Green_Triangle_Stripes_2.jpg,Purple_Star_Dots_3.jpg,left,561.0400000005029,false,low,false
SWxGPKqQ,3ygyp13654mlicup3w1l36spsdqnrt,3wseltnvr7ft1sbmpj6d6z5zthttag,SWxGPKqQ,2020-0188,2020-11-15,03:08:40,03:24:03,NA,incomplete,61,filling,1,right,Blue_Star_Dots_1.jpg,Blue_Triangle_Chess_4.jpg,Red_Circle_Dots_2.jpg,right,763.4149999939837,true,low,false
SWxGPKqQ,3ygyp13654mlicup3w1l36spsdqnrt,3wseltnvr7ft1sbmpj6d6z5zthttag,SWxGPKqQ,2020-0188,2020-11-15,03:08:40,03:24:03,NA,incomplete,62,filling,1,right,Blue_Star_Stripes_1.jpg,Blue_Triangle_Grid_3.jpg,Red_Circle_Stripes_2.jpg,right,793.0199999827892,true,low,false
SWxGPKqQ,3ygyp13654mlicup3w1l36spsdqnrt,3wseltnvr7ft1sbmpj6d6z5zthttag,SWxGPKqQ,2020-0188,2020-11-15,03:08:40,03:24:03,NA,incomplete,63,filling,0,left,Green_Triangle_Chess_1.jpg,Purple_Star_Chess_2.jpg,Green_Plus_Grid_4.jpg,left,818.6400000122376,true,low,false
SWxGPKqQ,3ygyp13654mlicup3w1l36spsdqnrt,3wseltnvr7ft1sbmpj6d6z5zthttag,SWxGPKqQ,2020-0188,2020-11-15,03:08:40,03:24:03,NA,incomplete,64,filling,1,right,Blue_Circle_Stripes_3.jpg,Blue_Triangle_Chess_4.jpg,Green_Plus_Stripes_1.jpg,left,605.66999996081,false,low,false
SWxGPKqQ,3ygyp13654mlicup3w1l36spsdqnrt,3wseltnvr7ft1sbmpj6d6z5zthttag,SWxGPKqQ,2020-0188,2020-11-15,03:08:40,03:24:03,NA,incomplete,65,filling,1,left,Blue_Star_Dots_4.jpg,Purple_Triangle_Dots_2.jpg,Blue_Circle_Chess_1.jpg,left,1117.5250000087544,true,low,false
SWxGPKqQ,3ygyp13654mlicup3w1l36spsdqnrt,3wseltnvr7ft1sbmpj6d6z5zthttag,SWxGPKqQ,2020-0188,2020-11-15,03:08:40,03:24:03,NA,incomplete,66,filling,1,left,Blue_Plus_Stripes_4.jpg,Purple_Star_Stripes_2.jpg,Blue_Triangle_Dots_1.jpg,left,932.2000000393018,true,low,false
SWxGPKqQ,3ygyp13654mlicup3w1l36spsdqnrt,3wseltnvr7ft1sbmpj6d6z5zthttag,SWxGPKqQ,2020-0188,2020-11-15,03:08:40,03:24:03,NA,incomplete,67,filling,0,left,Purple_Star_Stripes_3.jpg,Red_Plus_Stripes_4.jpg,Purple_Triangle_Chess_1.jpg,left,1286.7700000060722,true,low,false
SWxGPKqQ,3ygyp13654mlicup3w1l36spsdqnrt,3wseltnvr7ft1sbmpj6d6z5zthttag,SWxGPKqQ,2020-0188,2020-11-15,03:08:40,03:24:03,NA,incomplete,68,filling,1,right,Green_Star_Grid_2.jpg,Green_Triangle_Chess_4.jpg,Blue_Plus_Grid_1.jpg,right,775.4049999639392,true,low,false
SWxGPKqQ,3ygyp13654mlicup3w1l36spsdqnrt,3wseltnvr7ft1sbmpj6d6z5zthttag,SWxGPKqQ,2020-0188,2020-11-15,03:08:40,03:24:03,NA,incomplete,69,filling,1,right,Green_Plus_Stripes_1.jpg,Green_Star_Grid_3.jpg,Red_Triangle_Stripes_4.jpg,right,1110.515000007581,true,low,false
SWxGPKqQ,3ygyp13654mlicup3w1l36spsdqnrt,3wseltnvr7ft1sbmpj6d6z5zthttag,SWxGPKqQ,2020-0188,2020-11-15,03:08:40,03:24:03,NA,incomplete,70,filling,1,right,Purple_Plus_Chess_2.jpg,Purple_Star_Dots_3.jpg,Green_Triangle_Chess_1.jpg,right,1197.7500000502914,true,low,false
SWxGPKqQ,3ygyp13654mlicup3w1l36spsdqnrt,3wseltnvr7ft1sbmpj6d6z5zthttag,SWxGPKqQ,2020-0188,2020-11-15,03:08:40,03:24:03,NA,incomplete,71,filling,1,right,Green_Plus_Dots_4.jpg,Green_Circle_Stripes_1.jpg,Blue_Star_Dots_2.jpg,left,839.525000017602,false,low,false
SWxGPKqQ,3ygyp13654mlicup3w1l36spsdqnrt,3wseltnvr7ft1sbmpj6d6z5zthttag,SWxGPKqQ,2020-0188,2020-11-15,03:08:40,03:24:03,NA,incomplete,72,filling,1,left,Purple_Circle_Stripes_4.jpg,Green_Plus_Stripes_3.jpg,Purple_Triangle_Chess_2.jpg,right,746.7999999644235,false,low,false
SWxGPKqQ,3ygyp13654mlicup3w1l36spsdqnrt,3wseltnvr7ft1sbmpj6d6z5zthttag,SWxGPKqQ,2020-0188,2020-11-15,03:08:40,03:24:03,NA,incomplete,73,filling,1,right,Purple_Plus_Dots_2.jpg,Purple_Star_Chess_1.jpg,Green_Circle_Dots_3.jpg,right,481.64000001270324,true,low,false
SWxGPKqQ,3ygyp13654mlicup3w1l36spsdqnrt,3wseltnvr7ft1sbmpj6d6z5zthttag,SWxGPKqQ,2020-0188,2020-11-15,03:08:40,03:24:03,NA,incomplete,74,filling,1,left,Blue_Star_Grid_4.jpg,Green_Plus_Grid_3.jpg,Blue_Circle_Chess_2.jpg,right,524.0099999937229,false,low,false
SWxGPKqQ,3ygyp13654mlicup3w1l36spsdqnrt,3wseltnvr7ft1sbmpj6d6z5zthttag,SWxGPKqQ,2020-0188,2020-11-15,03:08:40,03:24:03,NA,incomplete,75,filling,0,left,Purple_Circle_Stripes_2.jpg,Green_Star_Stripes_4.jpg,Purple_Plus_Chess_3.jpg,none,0,false,low,false
SWxGPKqQ,3ygyp13654mlicup3w1l36spsdqnrt,3wseltnvr7ft1sbmpj6d6z5zthttag,SWxGPKqQ,2020-0188,2020-11-15,03:08:40,03:24:03,NA,incomplete,76,filling,1,left,Purple_Star_Dots_4.jpg,Red_Triangle_Dots_3.jpg,Purple_Circle_Grid_2.jpg,right,658.3250000257976,false,low,false
SWxGPKqQ,3ygyp13654mlicup3w1l36spsdqnrt,3wseltnvr7ft1sbmpj6d6z5zthttag,SWxGPKqQ,2020-0188,2020-11-15,03:08:40,03:24:03,NA,incomplete,77,filling,0,left,Purple_Triangle_Chess_1.jpg,Green_Circle_Chess_2.jpg,Purple_Star_Grid_4.jpg,right,611.304999969434,false,low,false
SWxGPKqQ,3ygyp13654mlicup3w1l36spsdqnrt,3wseltnvr7ft1sbmpj6d6z5zthttag,SWxGPKqQ,2020-0188,2020-11-15,03:08:40,03:24:03,NA,incomplete,78,filling,1,right,Red_Star_Dots_4.jpg,Red_Circle_Stripes_2.jpg,Green_Triangle_Dots_1.jpg,right,912.3450000188313,true,low,false
SWxGPKqQ,3ygyp13654mlicup3w1l36spsdqnrt,3wseltnvr7ft1sbmpj6d6z5zthttag,SWxGPKqQ,2020-0188,2020-11-15,03:08:40,03:24:03,NA,incomplete,79,filling,1,right,Green_Plus_Chess_2.jpg,Green_Star_Grid_1.jpg,Purple_Triangle_Chess_4.jpg,right,803.9100000169128,true,low,false
SWxGPKqQ,3ygyp13654mlicup3w1l36spsdqnrt,3wseltnvr7ft1sbmpj6d6z5zthttag,SWxGPKqQ,2020-0188,2020-11-15,03:08:40,03:24:03,NA,incomplete,80,filling,1,left,Blue_Star_Chess_4.jpg,Green_Triangle_Chess_2.jpg,Blue_Circle_Dots_1.jpg,left,822.3049999796785,true,low,false
SWxGPKqQ,3ygyp13654mlicup3w1l36spsdqnrt,3wseltnvr7ft1sbmpj6d6z5zthttag,SWxGPKqQ,2020-0188,2020-11-15,03:08:40,03:24:03,NA,incomplete,81,filling,1,right,Green_Star_Grid_2.jpg,Green_Triangle_Chess_3.jpg,Blue_Circle_Grid_1.jpg,right,775.6500000250526,true,low,false
SWxGPKqQ,3ygyp13654mlicup3w1l36spsdqnrt,3wseltnvr7ft1sbmpj6d6z5zthttag,SWxGPKqQ,2020-0188,2020-11-15,03:08:40,03:24:03,NA,incomplete,82,filling,1,left,Purple_Plus_Dots_1.jpg,Blue_Triangle_Dots_2.jpg,Purple_Circle_Grid_4.jpg,left,823.2149999821559,true,low,false
SWxGPKqQ,3ygyp13654mlicup3w1l36spsdqnrt,3wseltnvr7ft1sbmpj6d6z5zthttag,SWxGPKqQ,2020-0188,2020-11-15,03:08:40,03:24:03,NA,incomplete,83,filling,1,right,Purple_Plus_Dots_1.jpg,Purple_Triangle_Stripes_3.jpg,Red_Circle_Dots_4.jpg,right,666.3249999983236,true,low,false
SWxGPKqQ,3ygyp13654mlicup3w1l36spsdqnrt,3wseltnvr7ft1sbmpj6d6z5zthttag,SWxGPKqQ,2020-0188,2020-11-15,03:08:40,03:24:03,NA,incomplete,84,filling,0,left,Red_Star_Grid_4.jpg,Green_Triangle_Grid_3.jpg,Red_Plus_Dots_1.jpg,left,802.7749999891967,true,low,false
SWxGPKqQ,3ygyp13654mlicup3w1l36spsdqnrt,3wseltnvr7ft1sbmpj6d6z5zthttag,SWxGPKqQ,2020-0188,2020-11-15,03:08:40,03:24:03,NA,incomplete,85,filling,1,left,Purple_Triangle_Stripes_3.jpg,Red_Plus_Stripes_1.jpg,Purple_Circle_Chess_2.jpg,left,761.8550000479445,true,low,false
SWxGPKqQ,3ygyp13654mlicup3w1l36spsdqnrt,3wseltnvr7ft1sbmpj6d6z5zthttag,SWxGPKqQ,2020-0188,2020-11-15,03:08:40,03:24:03,NA,incomplete,86,filling,1,right,Blue_Star_Chess_3.jpg,Blue_Triangle_Grid_4.jpg,Green_Plus_Chess_2.jpg,right,684.8599999793805,true,low,false
SWxGPKqQ,3ygyp13654mlicup3w1l36spsdqnrt,3wseltnvr7ft1sbmpj6d6z5zthttag,SWxGPKqQ,2020-0188,2020-11-15,03:08:40,03:24:03,NA,incomplete,87,filling,0,left,Blue_Triangle_Grid_2.jpg,Green_Circle_Grid_1.jpg,Blue_Plus_Chess_4.jpg,left,718.2299999985844,true,low,false
SWxGPKqQ,3ygyp13654mlicup3w1l36spsdqnrt,3wseltnvr7ft1sbmpj6d6z5zthttag,SWxGPKqQ,2020-0188,2020-11-15,03:08:40,03:24:03,NA,incomplete,88,filling,1,left,Red_Triangle_Dots_2.jpg,Blue_Circle_Dots_3.jpg,Red_Plus_Chess_4.jpg,left,758.0949999974109,true,low,false
SWxGPKqQ,3ygyp13654mlicup3w1l36spsdqnrt,3wseltnvr7ft1sbmpj6d6z5zthttag,SWxGPKqQ,2020-0188,2020-11-15,03:08:40,03:24:03,NA,incomplete,89,filling,1,right,Purple_Star_Dots_3.jpg,Purple_Triangle_Chess_2.jpg,Green_Plus_Dots_4.jpg,right,815.4199999989942,true,low,false
SWxGPKqQ,3ygyp13654mlicup3w1l36spsdqnrt,3wseltnvr7ft1sbmpj6d6z5zthttag,SWxGPKqQ,2020-0188,2020-11-15,03:08:40,03:24:03,NA,incomplete,90,color,0,right,Blue_Circle_Dots_2.jpg,Green_Star_Dots_1.jpg,Blue_Plus_Stripes_4.jpg,right,794.0299999900162,true,low,false
SWxGPKqQ,3ygyp13654mlicup3w1l36spsdqnrt,3wseltnvr7ft1sbmpj6d6z5zthttag,SWxGPKqQ,2020-0188,2020-11-15,03:08:40,03:24:03,NA,incomplete,91,color,1,left,Purple_Star_Chess_2.jpg,Purple_Circle_Grid_3.jpg,Green_Triangle_Chess_1.jpg,right,725.4350000293925,false,low,false
SWxGPKqQ,3ygyp13654mlicup3w1l36spsdqnrt,3wseltnvr7ft1sbmpj6d6z5zthttag,SWxGPKqQ,2020-0188,2020-11-15,03:08:40,03:24:03,NA,incomplete,92,color,1,right,Purple_Triangle_Chess_2.jpg,Blue_Plus_Chess_4.jpg,Purple_Star_Grid_3.jpg,left,894.7850000113249,false,low,false
SWxGPKqQ,3ygyp13654mlicup3w1l36spsdqnrt,3wseltnvr7ft1sbmpj6d6z5zthttag,SWxGPKqQ,2020-0188,2020-11-15,03:08:40,03:24:03,NA,incomplete,93,color,0,left,Red_Star_Grid_1.jpg,Red_Triangle_Chess_4.jpg,Purple_Circle_Grid_2.jpg,left,487.76000004727393,true,low,false
SWxGPKqQ,3ygyp13654mlicup3w1l36spsdqnrt,3wseltnvr7ft1sbmpj6d6z5zthttag,SWxGPKqQ,2020-0188,2020-11-15,03:08:40,03:24:03,NA,incomplete,94,color,1,right,Green_Circle_Chess_3.jpg,Purple_Plus_Chess_4.jpg,Green_Star_Stripes_2.jpg,right,596.529999980703,true,low,false
SWxGPKqQ,3ygyp13654mlicup3w1l36spsdqnrt,3wseltnvr7ft1sbmpj6d6z5zthttag,SWxGPKqQ,2020-0188,2020-11-15,03:08:40,03:24:03,NA,incomplete,95,color,1,right,Red_Triangle_Grid_1.jpg,Purple_Plus_Grid_2.jpg,Red_Circle_Chess_4.jpg,right,437.06999998539686,true,low,false
SWxGPKqQ,3ygyp13654mlicup3w1l36spsdqnrt,3wseltnvr7ft1sbmpj6d6z5zthttag,SWxGPKqQ,2020-0188,2020-11-15,03:08:40,03:24:03,NA,incomplete,96,color,1,right,Blue_Plus_Stripes_1.jpg,Green_Star_Stripes_4.jpg,Blue_Triangle_Chess_2.jpg,right,419.8949999990873,true,low,false
SWxGPKqQ,3ygyp13654mlicup3w1l36spsdqnrt,3wseltnvr7ft1sbmpj6d6z5zthttag,SWxGPKqQ,2020-0188,2020-11-15,03:08:40,03:24:03,NA,incomplete,97,color,1,left,Red_Triangle_Chess_2.jpg,Red_Circle_Grid_4.jpg,Purple_Plus_Chess_3.jpg,left,526.1549999704584,true,low,false
SWxGPKqQ,3ygyp13654mlicup3w1l36spsdqnrt,3wseltnvr7ft1sbmpj6d6z5zthttag,SWxGPKqQ,2020-0188,2020-11-15,03:08:40,03:24:03,NA,incomplete,98,color,1,left,Blue_Star_Stripes_4.jpg,Blue_Plus_Grid_2.jpg,Purple_Triangle_Stripes_1.jpg,left,551.1200000182725,true,low,false
SWxGPKqQ,3ygyp13654mlicup3w1l36spsdqnrt,3wseltnvr7ft1sbmpj6d6z5zthttag,SWxGPKqQ,2020-0188,2020-11-15,03:08:40,03:24:03,NA,incomplete,99,color,0,left,Green_Plus_Chess_2.jpg,Green_Star_Stripes_4.jpg,Blue_Circle_Chess_1.jpg,left,420.029999979306,true,low,false
SWxGPKqQ,3ygyp13654mlicup3w1l36spsdqnrt,3wseltnvr7ft1sbmpj6d6z5zthttag,SWxGPKqQ,2020-0188,2020-11-15,03:08:40,03:24:03,NA,incomplete,100,color,1,right,Green_Star_Grid_1.jpg,Red_Plus_Grid_3.jpg,Green_Triangle_Chess_4.jpg,right,472.27500000735745,true,low,false
SWxGPKqQ,3ygyp13654mlicup3w1l36spsdqnrt,3wseltnvr7ft1sbmpj6d6z5zthttag,SWxGPKqQ,2020-0188,2020-11-15,03:08:40,03:24:03,NA,incomplete,101,color,1,right,Blue_Triangle_Grid_3.jpg,Purple_Circle_Grid_4.jpg,Blue_Plus_Dots_1.jpg,right,668.5249999864027,true,low,false
SWxGPKqQ,3ygyp13654mlicup3w1l36spsdqnrt,3wseltnvr7ft1sbmpj6d6z5zthttag,SWxGPKqQ,2020-0188,2020-11-15,03:08:40,03:24:03,NA,incomplete,102,color,1,left,Purple_Triangle_Stripes_2.jpg,Purple_Star_Chess_1.jpg,Green_Circle_Stripes_3.jpg,left,430.6300000171177,true,low,false
SWxGPKqQ,3ygyp13654mlicup3w1l36spsdqnrt,3wseltnvr7ft1sbmpj6d6z5zthttag,SWxGPKqQ,2020-0188,2020-11-15,03:08:40,03:24:03,NA,incomplete,103,color,1,right,Purple_Circle_Chess_4.jpg,Green_Plus_Chess_2.jpg,Purple_Triangle_Stripes_1.jpg,right,423.464999999851,true,low,false
SWxGPKqQ,3ygyp13654mlicup3w1l36spsdqnrt,3wseltnvr7ft1sbmpj6d6z5zthttag,SWxGPKqQ,2020-0188,2020-11-15,03:08:40,03:24:03,NA,incomplete,104,color,1,left,Blue_Plus_Grid_1.jpg,Blue_Circle_Dots_4.jpg,Purple_Triangle_Grid_3.jpg,left,389.8200000403449,true,low,false
SWxGPKqQ,3ygyp13654mlicup3w1l36spsdqnrt,3wseltnvr7ft1sbmpj6d6z5zthttag,SWxGPKqQ,2020-0188,2020-11-15,03:08:40,03:24:03,NA,incomplete,105,color,0,left,Red_Circle_Stripes_4.jpg,Red_Triangle_Grid_1.jpg,Blue_Star_Stripes_2.jpg,left,407.9649999621324,true,low,false
SWxGPKqQ,3ygyp13654mlicup3w1l36spsdqnrt,3wseltnvr7ft1sbmpj6d6z5zthttag,SWxGPKqQ,2020-0188,2020-11-15,03:08:40,03:24:03,NA,incomplete,106,color,0,left,Red_Plus_Stripes_2.jpg,Red_Triangle_Chess_3.jpg,Purple_Circle_Stripes_4.jpg,right,744.9950000154786,false,low,false
SWxGPKqQ,3ygyp13654mlicup3w1l36spsdqnrt,3wseltnvr7ft1sbmpj6d6z5zthttag,SWxGPKqQ,2020-0188,2020-11-15,03:08:40,03:24:03,NA,incomplete,107,color,1,right,Purple_Plus_Grid_2.jpg,Red_Triangle_Grid_4.jpg,Purple_Circle_Chess_1.jpg,left,974.7149999602698,false,low,false
SWxGPKqQ,3ygyp13654mlicup3w1l36spsdqnrt,3wseltnvr7ft1sbmpj6d6z5zthttag,SWxGPKqQ,2020-0188,2020-11-15,03:08:40,03:24:03,NA,incomplete,108,color,1,right,Red_Circle_Grid_1.jpg,Blue_Triangle_Grid_3.jpg,Red_Plus_Stripes_4.jpg,right,725.8349999901839,true,low,false
SWxGPKqQ,3ygyp13654mlicup3w1l36spsdqnrt,3wseltnvr7ft1sbmpj6d6z5zthttag,SWxGPKqQ,2020-0188,2020-11-15,03:08:40,03:24:03,NA,incomplete,109,color,1,left,Purple_Star_Chess_4.jpg,Purple_Triangle_Grid_2.jpg,Red_Plus_Chess_1.jpg,left,427.315000037197,true,low,false
SWxGPKqQ,3ygyp13654mlicup3w1l36spsdqnrt,3wseltnvr7ft1sbmpj6d6z5zthttag,SWxGPKqQ,2020-0188,2020-11-15,03:08:40,03:24:03,NA,incomplete,110,color,1,left,Purple_Star_Dots_4.jpg,Purple_Plus_Stripes_1.jpg,Blue_Circle_Dots_3.jpg,left,461.0300000058487,true,low,false
SWxGPKqQ,3ygyp13654mlicup3w1l36spsdqnrt,3wseltnvr7ft1sbmpj6d6z5zthttag,SWxGPKqQ,2020-0188,2020-11-15,03:08:40,03:24:03,NA,incomplete,111,color,1,left,Green_Star_Stripes_2.jpg,Green_Triangle_Grid_3.jpg,Blue_Plus_Stripes_1.jpg,left,370.5150000168942,true,low,false
SWxGPKqQ,3ygyp13654mlicup3w1l36spsdqnrt,3wseltnvr7ft1sbmpj6d6z5zthttag,SWxGPKqQ,2020-0188,2020-11-15,03:08:40,03:24:03,NA,incomplete,112,color,1,left,Green_Circle_Grid_2.jpg,Green_Star_Chess_4.jpg,Purple_Triangle_Grid_1.jpg,left,382.9600000171922,true,low,false
SWxGPKqQ,3ygyp13654mlicup3w1l36spsdqnrt,3wseltnvr7ft1sbmpj6d6z5zthttag,SWxGPKqQ,2020-0188,2020-11-15,03:08:40,03:24:03,NA,incomplete,113,color,1,right,Green_Circle_Dots_2.jpg,Red_Plus_Dots_1.jpg,Green_Triangle_Chess_4.jpg,right,393.17499997559935,true,low,false
SWxGPKqQ,3ygyp13654mlicup3w1l36spsdqnrt,3wseltnvr7ft1sbmpj6d6z5zthttag,SWxGPKqQ,2020-0188,2020-11-15,03:08:40,03:24:03,NA,incomplete,114,color,1,right,Green_Circle_Grid_1.jpg,Blue_Triangle_Grid_3.jpg,Green_Star_Chess_4.jpg,right,338.3349999785423,true,low,false
SWxGPKqQ,3ygyp13654mlicup3w1l36spsdqnrt,3wseltnvr7ft1sbmpj6d6z5zthttag,SWxGPKqQ,2020-0188,2020-11-15,03:08:40,03:24:03,NA,incomplete,115,color,0,right,Purple_Circle_Dots_1.jpg,Red_Plus_Dots_4.jpg,Purple_Star_Chess_2.jpg,left,373.77000000560656,false,low,false
SWxGPKqQ,3ygyp13654mlicup3w1l36spsdqnrt,3wseltnvr7ft1sbmpj6d6z5zthttag,SWxGPKqQ,2020-0188,2020-11-15,03:08:40,03:24:03,NA,incomplete,116,color,1,left,Green_Star_Chess_4.jpg,Green_Circle_Dots_2.jpg,Red_Triangle_Chess_3.jpg,left,450.0850000185892,true,low,false
SWxGPKqQ,3ygyp13654mlicup3w1l36spsdqnrt,3wseltnvr7ft1sbmpj6d6z5zthttag,SWxGPKqQ,2020-0188,2020-11-15,03:08:40,03:24:03,NA,incomplete,117,color,0,left,Blue_Star_Dots_3.jpg,Blue_Circle_Grid_2.jpg,Red_Triangle_Dots_4.jpg,left,399.89000000059605,true,low,false
SWxGPKqQ,3ygyp13654mlicup3w1l36spsdqnrt,3wseltnvr7ft1sbmpj6d6z5zthttag,SWxGPKqQ,2020-0188,2020-11-15,03:08:40,03:24:03,NA,incomplete,118,color,1,left,Green_Star_Grid_4.jpg,Green_Triangle_Dots_1.jpg,Blue_Plus_Grid_3.jpg,left,520.8450000500306,true,low,false
SWxGPKqQ,3ygyp13654mlicup3w1l36spsdqnrt,3wseltnvr7ft1sbmpj6d6z5zthttag,SWxGPKqQ,2020-0188,2020-11-15,03:08:40,03:24:03,NA,incomplete,119,color,0,left,Blue_Circle_Stripes_4.jpg,Blue_Star_Chess_2.jpg,Red_Plus_Stripes_1.jpg,left,403.18999998271465,true,low,false
SWxGPKqQ,3ygyp13654mlicup3w1l36spsdqnrt,3wseltnvr7ft1sbmpj6d6z5zthttag,SWxGPKqQ,2020-0188,2020-11-15,03:08:40,03:24:03,NA,incomplete,120,filling,1,left,Purple_Triangle_Stripes_1.jpg,Red_Star_Stripes_2.jpg,Purple_Plus_Grid_4.jpg,right,427.58499999763444,false,low,false
SWxGPKqQ,3ygyp13654mlicup3w1l36spsdqnrt,3wseltnvr7ft1sbmpj6d6z5zthttag,SWxGPKqQ,2020-0188,2020-11-15,03:08:40,03:24:03,NA,incomplete,121,filling,1,left,Blue_Plus_Grid_3.jpg,Green_Star_Grid_1.jpg,Blue_Circle_Dots_2.jpg,right,451.98499999241903,false,low,false
SWxGPKqQ,3ygyp13654mlicup3w1l36spsdqnrt,3wseltnvr7ft1sbmpj6d6z5zthttag,SWxGPKqQ,2020-0188,2020-11-15,03:08:40,03:24:03,NA,incomplete,122,filling,1,left,Red_Circle_Chess_1.jpg,Blue_Star_Chess_3.jpg,Red_Plus_Grid_4.jpg,left,701.0649999720044,true,low,false
SWxGPKqQ,3ygyp13654mlicup3w1l36spsdqnrt,3wseltnvr7ft1sbmpj6d6z5zthttag,SWxGPKqQ,2020-0188,2020-11-15,03:08:40,03:24:03,NA,incomplete,123,filling,1,right,Red_Triangle_Chess_2.jpg,Red_Plus_Dots_4.jpg,Purple_Circle_Chess_3.jpg,right,468.03000004729256,true,low,false
SWxGPKqQ,3ygyp13654mlicup3w1l36spsdqnrt,3wseltnvr7ft1sbmpj6d6z5zthttag,SWxGPKqQ,2020-0188,2020-11-15,03:08:40,03:24:03,NA,incomplete,124,filling,1,left,Purple_Star_Grid_1.jpg,Red_Triangle_Grid_4.jpg,Purple_Circle_Stripes_3.jpg,left,645.2899999567308,true,low,false
SWxGPKqQ,3ygyp13654mlicup3w1l36spsdqnrt,3wseltnvr7ft1sbmpj6d6z5zthttag,SWxGPKqQ,2020-0188,2020-11-15,03:08:40,03:24:03,NA,incomplete,125,filling,1,left,Blue_Plus_Grid_3.jpg,Purple_Star_Grid_2.jpg,Blue_Triangle_Chess_4.jpg,right,679.2049999930896,false,low,false
SWxGPKqQ,3ygyp13654mlicup3w1l36spsdqnrt,3wseltnvr7ft1sbmpj6d6z5zthttag,SWxGPKqQ,2020-0188,2020-11-15,03:08:40,03:24:03,NA,incomplete,126,filling,0,right,Red_Circle_Dots_1.jpg,Red_Plus_Chess_4.jpg,Green_Star_Dots_3.jpg,right,688.9549999614246,true,low,false
SWxGPKqQ,3ygyp13654mlicup3w1l36spsdqnrt,3wseltnvr7ft1sbmpj6d6z5zthttag,SWxGPKqQ,2020-0188,2020-11-15,03:08:40,03:24:03,NA,incomplete,127,filling,1,left,Blue_Plus_Dots_3.jpg,Purple_Triangle_Dots_4.jpg,Blue_Circle_Grid_2.jpg,left,802.5500000221655,true,low,false
SWxGPKqQ,3ygyp13654mlicup3w1l36spsdqnrt,3wseltnvr7ft1sbmpj6d6z5zthttag,SWxGPKqQ,2020-0188,2020-11-15,03:08:40,03:24:03,NA,incomplete,128,filling,1,left,Red_Star_Grid_4.jpg,Green_Triangle_Grid_1.jpg,Red_Circle_Stripes_2.jpg,left,797.4000000394881,true,low,false
SWxGPKqQ,3ygyp13654mlicup3w1l36spsdqnrt,3wseltnvr7ft1sbmpj6d6z5zthttag,SWxGPKqQ,2020-0188,2020-11-15,03:08:40,03:24:03,NA,incomplete,129,filling,1,left,Red_Star_Grid_3.jpg,Purple_Circle_Grid_4.jpg,Red_Triangle_Dots_1.jpg,left,667.7700000000186,true,low,false
SWxGPKqQ,3ygyp13654mlicup3w1l36spsdqnrt,3wseltnvr7ft1sbmpj6d6z5zthttag,SWxGPKqQ,2020-0188,2020-11-15,03:08:40,03:24:03,NA,incomplete,130,filling,1,left,Blue_Plus_Chess_4.jpg,Red_Triangle_Chess_1.jpg,Blue_Star_Stripes_2.jpg,left,723.775000020396,true,low,false
SWxGPKqQ,3ygyp13654mlicup3w1l36spsdqnrt,3wseltnvr7ft1sbmpj6d6z5zthttag,SWxGPKqQ,2020-0188,2020-11-15,03:08:40,03:24:03,NA,incomplete,131,filling,1,right,Green_Plus_Chess_4.jpg,Green_Triangle_Dots_1.jpg,Red_Star_Chess_2.jpg,right,628.7700000102632,true,low,false
SWxGPKqQ,3ygyp13654mlicup3w1l36spsdqnrt,3wseltnvr7ft1sbmpj6d6z5zthttag,SWxGPKqQ,2020-0188,2020-11-15,03:08:40,03:24:03,NA,incomplete,132,filling,1,right,Blue_Triangle_Stripes_1.jpg,Blue_Star_Chess_3.jpg,Purple_Plus_Stripes_2.jpg,right,659.479999972973,true,low,false
SWxGPKqQ,3ygyp13654mlicup3w1l36spsdqnrt,3wseltnvr7ft1sbmpj6d6z5zthttag,SWxGPKqQ,2020-0188,2020-11-15,03:08:40,03:24:03,NA,incomplete,133,filling,0,right,Green_Star_Grid_2.jpg,Green_Plus_Stripes_3.jpg,Blue_Triangle_Grid_1.jpg,left,691.4749999996275,false,low,false
SWxGPKqQ,3ygyp13654mlicup3w1l36spsdqnrt,3wseltnvr7ft1sbmpj6d6z5zthttag,SWxGPKqQ,2020-0188,2020-11-15,03:08:40,03:24:03,NA,incomplete,134,filling,1,left,Blue_Triangle_Stripes_3.jpg,Purple_Plus_Stripes_2.jpg,Blue_Star_Grid_1.jpg,left,842.85000001546,true,low,false
SWxGPKqQ,3ygyp13654mlicup3w1l36spsdqnrt,3wseltnvr7ft1sbmpj6d6z5zthttag,SWxGPKqQ,2020-0188,2020-11-15,03:08:40,03:24:03,NA,incomplete,135,filling,1,left,Blue_Triangle_Dots_4.jpg,Purple_Plus_Dots_1.jpg,Blue_Star_Grid_2.jpg,right,796.909999975469,false,low,false
SWxGPKqQ,3ygyp13654mlicup3w1l36spsdqnrt,3wseltnvr7ft1sbmpj6d6z5zthttag,SWxGPKqQ,2020-0188,2020-11-15,03:08:40,03:24:03,NA,incomplete,136,filling,0,left,Blue_Plus_Dots_2.jpg,Green_Circle_Dots_1.jpg,Blue_Star_Stripes_4.jpg,left,754.1399999754503,true,low,false
SWxGPKqQ,3ygyp13654mlicup3w1l36spsdqnrt,3wseltnvr7ft1sbmpj6d6z5zthttag,SWxGPKqQ,2020-0188,2020-11-15,03:08:40,03:24:03,NA,incomplete,137,filling,1,right,Green_Triangle_Chess_2.jpg,Green_Star_Grid_4.jpg,Blue_Circle_Chess_1.jpg,left,398.1350000249222,false,low,false
SWxGPKqQ,3ygyp13654mlicup3w1l36spsdqnrt,3wseltnvr7ft1sbmpj6d6z5zthttag,SWxGPKqQ,2020-0188,2020-11-15,03:08:40,03:24:03,NA,incomplete,138,filling,1,left,Blue_Star_Grid_4.jpg,Green_Plus_Grid_2.jpg,Blue_Circle_Stripes_1.jpg,right,817.9099999833852,false,low,false
SWxGPKqQ,3ygyp13654mlicup3w1l36spsdqnrt,3wseltnvr7ft1sbmpj6d6z5zthttag,SWxGPKqQ,2020-0188,2020-11-15,03:08:40,03:24:03,NA,incomplete,139,filling,1,left,Red_Circle_Chess_2.jpg,Green_Triangle_Chess_3.jpg,Red_Star_Stripes_1.jpg,left,672.2849999787286,true,low,false
SWxGPKqQ,3ygyp13654mlicup3w1l36spsdqnrt,3wseltnvr7ft1sbmpj6d6z5zthttag,SWxGPKqQ,2020-0188,2020-11-15,03:08:40,03:24:03,NA,incomplete,140,color,0,right,Green_Circle_Grid_2.jpg,Blue_Plus_Grid_1.jpg,Green_Star_Chess_3.jpg,left,592.3250000341795,false,low,false
SWxGPKqQ,3ygyp13654mlicup3w1l36spsdqnrt,3wseltnvr7ft1sbmpj6d6z5zthttag,SWxGPKqQ,2020-0188,2020-11-15,03:08:40,03:24:03,NA,incomplete,141,color,1,left,Red_Circle_Stripes_2.jpg,Red_Triangle_Dots_4.jpg,Purple_Star_Stripes_3.jpg,right,749.1449999506585,false,low,false
SWxGPKqQ,3ygyp13654mlicup3w1l36spsdqnrt,3wseltnvr7ft1sbmpj6d6z5zthttag,SWxGPKqQ,2020-0188,2020-11-15,03:08:40,03:24:03,NA,incomplete,142,color,1,left,Purple_Circle_Chess_2.jpg,Purple_Star_Stripes_1.jpg,Green_Plus_Chess_4.jpg,right,744.8499999591149,false,low,false
SWxGPKqQ,3ygyp13654mlicup3w1l36spsdqnrt,3wseltnvr7ft1sbmpj6d6z5zthttag,SWxGPKqQ,2020-0188,2020-11-15,03:08:40,03:24:03,NA,incomplete,143,color,0,right,Red_Circle_Stripes_4.jpg,Purple_Plus_Stripes_2.jpg,Red_Star_Dots_3.jpg,right,482.6199999661185,true,low,false
SWxGPKqQ,3ygyp13654mlicup3w1l36spsdqnrt,3wseltnvr7ft1sbmpj6d6z5zthttag,SWxGPKqQ,2020-0188,2020-11-15,03:08:40,03:24:03,NA,incomplete,144,color,1,right,Red_Star_Dots_1.jpg,Purple_Plus_Dots_4.jpg,Red_Circle_Chess_2.jpg,left,651.259999955073,false,low,false
SWxGPKqQ,3ygyp13654mlicup3w1l36spsdqnrt,3wseltnvr7ft1sbmpj6d6z5zthttag,SWxGPKqQ,2020-0188,2020-11-15,03:08:40,03:24:03,NA,incomplete,145,color,0,left,Purple_Plus_Grid_2.jpg,Purple_Triangle_Stripes_3.jpg,Green_Circle_Grid_4.jpg,left,789.9450000259094,true,low,false
SWxGPKqQ,3ygyp13654mlicup3w1l36spsdqnrt,3wseltnvr7ft1sbmpj6d6z5zthttag,SWxGPKqQ,2020-0188,2020-11-15,03:08:40,03:24:03,NA,incomplete,146,color,1,left,Red_Plus_Dots_1.jpg,Red_Triangle_Chess_3.jpg,Green_Circle_Dots_2.jpg,left,839.31999997003,true,low,false
SWxGPKqQ,3ygyp13654mlicup3w1l36spsdqnrt,3wseltnvr7ft1sbmpj6d6z5zthttag,SWxGPKqQ,2020-0188,2020-11-15,03:08:40,03:24:03,NA,incomplete,147,color,1,right,Red_Triangle_Stripes_3.jpg,Blue_Circle_Stripes_1.jpg,Red_Plus_Grid_2.jpg,right,960.2200000081211,true,low,false
SWxGPKqQ,3ygyp13654mlicup3w1l36spsdqnrt,3wseltnvr7ft1sbmpj6d6z5zthttag,SWxGPKqQ,2020-0188,2020-11-15,03:08:40,03:24:03,NA,incomplete,148,color,1,right,Blue_Plus_Grid_4.jpg,Green_Triangle_Grid_2.jpg,Blue_Circle_Stripes_1.jpg,right,517.9999999818392,true,low,false
SWxGPKqQ,3ygyp13654mlicup3w1l36spsdqnrt,3wseltnvr7ft1sbmpj6d6z5zthttag,SWxGPKqQ,2020-0188,2020-11-15,03:08:40,03:24:03,NA,incomplete,149,color,0,right,Green_Circle_Grid_1.jpg,Red_Star_Grid_3.jpg,Green_Triangle_Dots_2.jpg,right,650.4599999752827,true,low,false
SWxGPKqQ,3ygyp13654mlicup3w1l36spsdqnrt,3wseltnvr7ft1sbmpj6d6z5zthttag,SWxGPKqQ,2020-0188,2020-11-15,03:08:40,03:24:03,NA,incomplete,150,color,1,right,Green_Plus_Dots_1.jpg,Purple_Star_Dots_2.jpg,Green_Circle_Grid_3.jpg,left,606.339999998454,false,low,false
SWxGPKqQ,3ygyp13654mlicup3w1l36spsdqnrt,3wseltnvr7ft1sbmpj6d6z5zthttag,SWxGPKqQ,2020-0188,2020-11-15,03:08:40,03:24:03,NA,incomplete,151,color,1,left,Red_Circle_Dots_4.jpg,Red_Star_Chess_1.jpg,Purple_Plus_Dots_3.jpg,left,644.5800000219606,true,low,false
SWxGPKqQ,3ygyp13654mlicup3w1l36spsdqnrt,3wseltnvr7ft1sbmpj6d6z5zthttag,SWxGPKqQ,2020-0188,2020-11-15,03:08:40,03:24:03,NA,incomplete,152,color,0,left,Green_Star_Stripes_4.jpg,Green_Plus_Grid_3.jpg,Blue_Circle_Stripes_2.jpg,left,625.6500000017695,true,low,false
SWxGPKqQ,3ygyp13654mlicup3w1l36spsdqnrt,3wseltnvr7ft1sbmpj6d6z5zthttag,SWxGPKqQ,2020-0188,2020-11-15,03:08:40,03:24:03,NA,incomplete,153,color,1,right,Green_Star_Chess_4.jpg,Red_Triangle_Chess_2.jpg,Green_Plus_Stripes_1.jpg,left,789.9099999922328,false,low,false
SWxGPKqQ,3ygyp13654mlicup3w1l36spsdqnrt,3wseltnvr7ft1sbmpj6d6z5zthttag,SWxGPKqQ,2020-0188,2020-11-15,03:08:40,03:24:03,NA,incomplete,154,color,1,left,Green_Star_Dots_3.jpg,Green_Circle_Stripes_4.jpg,Red_Triangle_Dots_1.jpg,right,745.7649999996647,false,low,false
SWxGPKqQ,3ygyp13654mlicup3w1l36spsdqnrt,3wseltnvr7ft1sbmpj6d6z5zthttag,SWxGPKqQ,2020-0188,2020-11-15,03:08:40,03:24:03,NA,incomplete,155,color,1,left,Red_Star_Grid_1.jpg,Red_Plus_Stripes_4.jpg,Green_Triangle_Grid_3.jpg,left,597.5949999992736,true,low,false
SWxGPKqQ,3ygyp13654mlicup3w1l36spsdqnrt,3wseltnvr7ft1sbmpj6d6z5zthttag,SWxGPKqQ,2020-0188,2020-11-15,03:08:40,03:24:03,NA,incomplete,156,color,1,left,Purple_Circle_Dots_4.jpg,Purple_Triangle_Stripes_3.jpg,Red_Star_Dots_1.jpg,right,845.195000001695,false,low,false
SWxGPKqQ,3ygyp13654mlicup3w1l36spsdqnrt,3wseltnvr7ft1sbmpj6d6z5zthttag,SWxGPKqQ,2020-0188,2020-11-15,03:08:40,03:24:03,NA,incomplete,157,color,0,right,Red_Circle_Grid_1.jpg,Blue_Plus_Grid_3.jpg,Red_Triangle_Dots_4.jpg,right,667.8650000249036,true,low,false
SWxGPKqQ,3ygyp13654mlicup3w1l36spsdqnrt,3wseltnvr7ft1sbmpj6d6z5zthttag,SWxGPKqQ,2020-0188,2020-11-15,03:08:40,03:24:03,NA,incomplete,158,color,1,right,Blue_Plus_Dots_3.jpg,Purple_Star_Dots_1.jpg,Blue_Circle_Chess_2.jpg,left,926.0200000135228,false,low,false
SWxGPKqQ,3ygyp13654mlicup3w1l36spsdqnrt,3wseltnvr7ft1sbmpj6d6z5zthttag,SWxGPKqQ,2020-0188,2020-11-15,03:08:40,03:24:03,NA,incomplete,159,color,1,left,Green_Triangle_Dots_1.jpg,Green_Plus_Grid_3.jpg,Purple_Circle_Dots_2.jpg,left,575.8950000163168,true,low,false
SWxGPKqQ,3ygyp13654mlicup3w1l36spsdqnrt,3wseltnvr7ft1sbmpj6d6z5zthttag,SWxGPKqQ,2020-0188,2020-11-15,03:08:40,03:24:03,NA,incomplete,160,filling,1,right,Purple_Plus_Chess_1.jpg,Purple_Circle_Grid_2.jpg,Green_Triangle_Chess_4.jpg,right,882.6950000366196,true,low,false
SWxGPKqQ,3ygyp13654mlicup3w1l36spsdqnrt,3wseltnvr7ft1sbmpj6d6z5zthttag,SWxGPKqQ,2020-0188,2020-11-15,03:08:40,03:24:03,NA,incomplete,161,filling,1,left,Red_Triangle_Grid_1.jpg,Purple_Plus_Grid_3.jpg,Red_Circle_Chess_4.jpg,left,903.2900000456721,true,low,false
SWxGPKqQ,3ygyp13654mlicup3w1l36spsdqnrt,3wseltnvr7ft1sbmpj6d6z5zthttag,SWxGPKqQ,2020-0188,2020-11-15,03:08:40,03:24:03,NA,incomplete,162,filling,1,left,Blue_Triangle_Stripes_2.jpg,Red_Circle_Stripes_3.jpg,Blue_Plus_Chess_4.jpg,left,816.8149999692105,true,low,false
SWxGPKqQ,3ygyp13654mlicup3w1l36spsdqnrt,3wseltnvr7ft1sbmpj6d6z5zthttag,SWxGPKqQ,2020-0188,2020-11-15,03:08:40,03:24:03,NA,incomplete,163,filling,1,right,Red_Plus_Dots_4.jpg,Red_Triangle_Stripes_3.jpg,Green_Star_Dots_1.jpg,right,764.5599999814294,true,low,false
SWxGPKqQ,3ygyp13654mlicup3w1l36spsdqnrt,3wseltnvr7ft1sbmpj6d6z5zthttag,SWxGPKqQ,2020-0188,2020-11-15,03:08:40,03:24:03,NA,incomplete,164,filling,1,left,Green_Triangle_Stripes_3.jpg,Blue_Star_Stripes_2.jpg,Green_Plus_Grid_4.jpg,left,891.364999988582,true,low,false
SWxGPKqQ,3ygyp13654mlicup3w1l36spsdqnrt,3wseltnvr7ft1sbmpj6d6z5zthttag,SWxGPKqQ,2020-0188,2020-11-15,03:08:40,03:24:03,NA,incomplete,165,filling,1,left,Red_Triangle_Grid_4.jpg,Purple_Star_Grid_3.jpg,Red_Circle_Chess_1.jpg,left,922.2350000054576,true,low,false
SWxGPKqQ,3ygyp13654mlicup3w1l36spsdqnrt,3wseltnvr7ft1sbmpj6d6z5zthttag,SWxGPKqQ,2020-0188,2020-11-15,03:08:40,03:24:03,NA,incomplete,166,filling,1,right,Blue_Circle_Chess_2.jpg,Blue_Plus_Grid_1.jpg,Purple_Triangle_Chess_4.jpg,right,769.1750000230968,true,low,false
SWxGPKqQ,3ygyp13654mlicup3w1l36spsdqnrt,3wseltnvr7ft1sbmpj6d6z5zthttag,SWxGPKqQ,2020-0188,2020-11-15,03:08:40,03:24:03,NA,incomplete,167,filling,1,right,Blue_Circle_Grid_2.jpg,Blue_Triangle_Stripes_4.jpg,Red_Star_Grid_1.jpg,left,724.625000031665,false,low,false
SWxGPKqQ,3ygyp13654mlicup3w1l36spsdqnrt,3wseltnvr7ft1sbmpj6d6z5zthttag,SWxGPKqQ,2020-0188,2020-11-15,03:08:40,03:24:03,NA,incomplete,168,filling,1,left,Green_Triangle_Dots_3.jpg,Purple_Plus_Dots_4.jpg,Green_Circle_Chess_2.jpg,left,737.0300000184216,true,low,false
SWxGPKqQ,3ygyp13654mlicup3w1l36spsdqnrt,3wseltnvr7ft1sbmpj6d6z5zthttag,SWxGPKqQ,2020-0188,2020-11-15,03:08:40,03:24:03,NA,incomplete,169,filling,0,left,Red_Triangle_Chess_3.jpg,Green_Plus_Chess_4.jpg,Red_Circle_Stripes_1.jpg,left,705.6199999642558,true,low,false
SWxGPKqQ,3ygyp13654mlicup3w1l36spsdqnrt,3wseltnvr7ft1sbmpj6d6z5zthttag,SWxGPKqQ,2020-0188,2020-11-15,03:08:40,03:24:03,NA,incomplete,170,filling,1,right,Blue_Circle_Grid_3.jpg,Blue_Plus_Chess_2.jpg,Red_Star_Grid_1.jpg,left,687.3449999839067,false,low,false
SWxGPKqQ,3ygyp13654mlicup3w1l36spsdqnrt,3wseltnvr7ft1sbmpj6d6z5zthttag,SWxGPKqQ,2020-0188,2020-11-15,03:08:40,03:24:03,NA,incomplete,171,filling,1,right,Purple_Plus_Dots_1.jpg,Purple_Triangle_Stripes_2.jpg,Red_Circle_Dots_4.jpg,right,715.4000000446104,true,low,false
SWxGPKqQ,3ygyp13654mlicup3w1l36spsdqnrt,3wseltnvr7ft1sbmpj6d6z5zthttag,SWxGPKqQ,2020-0188,2020-11-15,03:08:40,03:24:03,NA,incomplete,172,filling,1,right,Blue_Star_Stripes_1.jpg,Blue_Triangle_Grid_2.jpg,Purple_Circle_Stripes_4.jpg,left,838.6150000151247,false,low,false
SWxGPKqQ,3ygyp13654mlicup3w1l36spsdqnrt,3wseltnvr7ft1sbmpj6d6z5zthttag,SWxGPKqQ,2020-0188,2020-11-15,03:08:40,03:24:03,NA,incomplete,173,filling,1,left,Red_Triangle_Stripes_1.jpg,Purple_Circle_Stripes_3.jpg,Red_Star_Dots_4.jpg,left,670.1600000378676,true,low,false
SWxGPKqQ,3ygyp13654mlicup3w1l36spsdqnrt,3wseltnvr7ft1sbmpj6d6z5zthttag,SWxGPKqQ,2020-0188,2020-11-15,03:08:40,03:24:03,NA,incomplete,174,filling,1,right,Red_Triangle_Chess_3.jpg,Red_Plus_Grid_2.jpg,Blue_Star_Chess_1.jpg,right,735.3900000452995,true,low,false
SWxGPKqQ,3ygyp13654mlicup3w1l36spsdqnrt,3wseltnvr7ft1sbmpj6d6z5zthttag,SWxGPKqQ,2020-0188,2020-11-15,03:08:40,03:24:03,NA,incomplete,175,filling,1,right,Green_Triangle_Grid_1.jpg,Green_Plus_Stripes_3.jpg,Blue_Circle_Grid_2.jpg,left,819.3500000052154,false,low,false
SWxGPKqQ,3ygyp13654mlicup3w1l36spsdqnrt,3wseltnvr7ft1sbmpj6d6z5zthttag,SWxGPKqQ,2020-0188,2020-11-15,03:08:40,03:24:03,NA,incomplete,176,filling,1,right,Green_Triangle_Grid_1.jpg,Green_Circle_Chess_3.jpg,Blue_Star_Grid_4.jpg,right,775.7899999851361,true,low,false
SWxGPKqQ,3ygyp13654mlicup3w1l36spsdqnrt,3wseltnvr7ft1sbmpj6d6z5zthttag,SWxGPKqQ,2020-0188,2020-11-15,03:08:40,03:24:03,NA,incomplete,177,filling,0,left,Red_Triangle_Stripes_2.jpg,Purple_Circle_Stripes_4.jpg,Red_Star_Chess_1.jpg,left,783.6249999818392,true,low,false
SWxGPKqQ,3ygyp13654mlicup3w1l36spsdqnrt,3wseltnvr7ft1sbmpj6d6z5zthttag,SWxGPKqQ,2020-0188,2020-11-15,03:08:40,03:24:03,NA,incomplete,178,filling,1,right,Green_Triangle_Stripes_4.jpg,Green_Plus_Dots_2.jpg,Red_Circle_Stripes_3.jpg,left,518.3599999872968,false,low,false
SWxGPKqQ,3ygyp13654mlicup3w1l36spsdqnrt,3wseltnvr7ft1sbmpj6d6z5zthttag,SWxGPKqQ,2020-0188,2020-11-15,03:08:40,03:24:03,NA,incomplete,179,filling,1,right,Green_Circle_Grid_3.jpg,Green_Star_Stripes_2.jpg,Purple_Triangle_Grid_4.jpg,right,702.095000015106,true,low,false
SWxGPKqQ,3ygyp13654mlicup3w1l36spsdqnrt,3wseltnvr7ft1sbmpj6d6z5zthttag,SWxGPKqQ,2020-0188,2020-11-15,03:08:40,03:24:03,NA,incomplete,180,color,0,right,Purple_Circle_Stripes_2.jpg,Blue_Star_Stripes_1.jpg,Purple_Plus_Chess_3.jpg,left,828.0449999729171,false,low,false
SWxGPKqQ,3ygyp13654mlicup3w1l36spsdqnrt,3wseltnvr7ft1sbmpj6d6z5zthttag,SWxGPKqQ,2020-0188,2020-11-15,03:08:40,03:24:03,NA,incomplete,181,color,1,right,Green_Circle_Dots_4.jpg,Purple_Plus_Dots_2.jpg,Green_Star_Chess_3.jpg,left,778.504999994766,false,low,false
SWxGPKqQ,3ygyp13654mlicup3w1l36spsdqnrt,3wseltnvr7ft1sbmpj6d6z5zthttag,SWxGPKqQ,2020-0188,2020-11-15,03:08:40,03:24:03,NA,incomplete,182,color,0,right,Purple_Star_Stripes_1.jpg,Red_Plus_Stripes_3.jpg,Purple_Triangle_Chess_2.jpg,left,762.5000000116415,false,low,false
SWxGPKqQ,3ygyp13654mlicup3w1l36spsdqnrt,3wseltnvr7ft1sbmpj6d6z5zthttag,SWxGPKqQ,2020-0188,2020-11-15,03:08:40,03:24:03,NA,incomplete,183,color,1,right,Purple_Circle_Dots_1.jpg,Green_Plus_Dots_2.jpg,Purple_Triangle_Stripes_4.jpg,left,721.0199999972247,false,low,false
SWxGPKqQ,3ygyp13654mlicup3w1l36spsdqnrt,3wseltnvr7ft1sbmpj6d6z5zthttag,SWxGPKqQ,2020-0188,2020-11-15,03:08:40,03:24:03,NA,incomplete,184,color,1,left,Green_Plus_Chess_3.jpg,Green_Circle_Stripes_2.jpg,Purple_Star_Chess_1.jpg,right,767.920000012964,false,low,false
SWxGPKqQ,3ygyp13654mlicup3w1l36spsdqnrt,3wseltnvr7ft1sbmpj6d6z5zthttag,SWxGPKqQ,2020-0188,2020-11-15,03:08:40,03:24:03,NA,incomplete,185,color,0,right,Purple_Star_Stripes_2.jpg,Green_Plus_Stripes_1.jpg,Purple_Circle_Dots_4.jpg,right,488.8199999695644,true,low,false
SWxGPKqQ,3ygyp13654mlicup3w1l36spsdqnrt,3wseltnvr7ft1sbmpj6d6z5zthttag,SWxGPKqQ,2020-0188,2020-11-15,03:08:40,03:24:03,NA,incomplete,186,color,1,right,Blue_Plus_Stripes_4.jpg,Purple_Triangle_Stripes_3.jpg,Blue_Star_Chess_1.jpg,left,978.5200000042096,false,low,false
SWxGPKqQ,3ygyp13654mlicup3w1l36spsdqnrt,3wseltnvr7ft1sbmpj6d6z5zthttag,SWxGPKqQ,2020-0188,2020-11-15,03:08:40,03:24:03,NA,incomplete,187,color,1,left,Blue_Circle_Chess_2.jpg,Blue_Plus_Stripes_1.jpg,Red_Triangle_Chess_3.jpg,right,851.3099999981932,false,low,false
SWxGPKqQ,3ygyp13654mlicup3w1l36spsdqnrt,3wseltnvr7ft1sbmpj6d6z5zthttag,SWxGPKqQ,2020-0188,2020-11-15,03:08:40,03:24:03,NA,incomplete,188,color,1,right,Red_Plus_Chess_2.jpg,Green_Star_Chess_1.jpg,Red_Triangle_Dots_3.jpg,left,771.1300000082701,false,low,false
SWxGPKqQ,3ygyp13654mlicup3w1l36spsdqnrt,3wseltnvr7ft1sbmpj6d6z5zthttag,SWxGPKqQ,2020-0188,2020-11-15,03:08:40,03:24:03,NA,incomplete,189,color,1,left,Purple_Circle_Dots_2.jpg,Purple_Plus_Grid_1.jpg,Red_Triangle_Dots_3.jpg,left,539.4850000157021,true,low,false
SWxGPKqQ,3ygyp13654mlicup3w1l36spsdqnrt,3wseltnvr7ft1sbmpj6d6z5zthttag,SWxGPKqQ,2020-0188,2020-11-15,03:08:40,03:24:03,NA,incomplete,190,color,1,left,Purple_Plus_Chess_2.jpg,Purple_Triangle_Grid_1.jpg,Green_Star_Chess_4.jpg,left,516.2799999816343,true,low,false
SWxGPKqQ,3ygyp13654mlicup3w1l36spsdqnrt,3wseltnvr7ft1sbmpj6d6z5zthttag,SWxGPKqQ,2020-0188,2020-11-15,03:08:40,03:24:03,NA,incomplete,191,color,1,left,Red_Circle_Grid_3.jpg,Red_Star_Chess_2.jpg,Blue_Triangle_Grid_1.jpg,left,485.97999999765307,true,low,false
SWxGPKqQ,3ygyp13654mlicup3w1l36spsdqnrt,3wseltnvr7ft1sbmpj6d6z5zthttag,SWxGPKqQ,2020-0188,2020-11-15,03:08:40,03:24:03,NA,incomplete,192,color,1,right,Red_Circle_Dots_2.jpg,Blue_Plus_Dots_1.jpg,Red_Triangle_Stripes_3.jpg,right,434.10000001313165,true,low,false
SWxGPKqQ,3ygyp13654mlicup3w1l36spsdqnrt,3wseltnvr7ft1sbmpj6d6z5zthttag,SWxGPKqQ,2020-0188,2020-11-15,03:08:40,03:24:03,NA,incomplete,193,color,1,right,Blue_Triangle_Stripes_4.jpg,Red_Star_Stripes_3.jpg,Blue_Plus_Chess_1.jpg,right,456.92999998573214,true,low,false
SWxGPKqQ,3ygyp13654mlicup3w1l36spsdqnrt,3wseltnvr7ft1sbmpj6d6z5zthttag,SWxGPKqQ,2020-0188,2020-11-15,03:08:40,03:24:03,NA,incomplete,194,color,1,right,Blue_Star_Chess_4.jpg,Red_Circle_Chess_3.jpg,Blue_Triangle_Stripes_2.jpg,right,425.3550000139512,true,low,false
SWxGPKqQ,3ygyp13654mlicup3w1l36spsdqnrt,3wseltnvr7ft1sbmpj6d6z5zthttag,SWxGPKqQ,2020-0188,2020-11-15,03:08:40,03:24:03,NA,incomplete,195,color,1,right,Green_Circle_Dots_1.jpg,Red_Star_Dots_3.jpg,Green_Plus_Grid_4.jpg,right,434.914999990724,true,low,false
SWxGPKqQ,3ygyp13654mlicup3w1l36spsdqnrt,3wseltnvr7ft1sbmpj6d6z5zthttag,SWxGPKqQ,2020-0188,2020-11-15,03:08:40,03:24:03,NA,incomplete,196,color,1,right,Blue_Star_Grid_4.jpg,Purple_Plus_Grid_1.jpg,Blue_Circle_Chess_3.jpg,right,396.90500003052875,true,low,false
SWxGPKqQ,3ygyp13654mlicup3w1l36spsdqnrt,3wseltnvr7ft1sbmpj6d6z5zthttag,SWxGPKqQ,2020-0188,2020-11-15,03:08:40,03:24:03,NA,incomplete,197,color,0,left,Purple_Triangle_Dots_4.jpg,Purple_Circle_Chess_1.jpg,Green_Star_Dots_3.jpg,left,430.60000002151355,true,low,false
SWxGPKqQ,3ygyp13654mlicup3w1l36spsdqnrt,3wseltnvr7ft1sbmpj6d6z5zthttag,SWxGPKqQ,2020-0188,2020-11-15,03:08:40,03:24:03,NA,incomplete,198,color,1,right,Green_Triangle_Stripes_3.jpg,Purple_Star_Stripes_1.jpg,Green_Plus_Chess_2.jpg,left,799.7549999854527,false,low,false
SWxGPKqQ,3ygyp13654mlicup3w1l36spsdqnrt,3wseltnvr7ft1sbmpj6d6z5zthttag,SWxGPKqQ,2020-0188,2020-11-15,03:08:40,03:24:03,NA,incomplete,199,color,0,right,Purple_Star_Dots_4.jpg,Green_Triangle_Dots_1.jpg,Purple_Circle_Grid_3.jpg,right,743.7100000097416,true,low,false
SWxGPKqQ,3ygyp13654mlicup3w1l36spsdqnrt,3wseltnvr7ft1sbmpj6d6z5zthttag,SWxGPKqQ,2020-0188,2020-11-15,03:08:40,03:24:03,NA,incomplete,200,filling,1,right,Green_Star_Chess_4.jpg,Green_Triangle_Grid_3.jpg,Purple_Plus_Chess_1.jpg,left,542.9299999959767,false,low,false
SWxGPKqQ,3ygyp13654mlicup3w1l36spsdqnrt,3wseltnvr7ft1sbmpj6d6z5zthttag,SWxGPKqQ,2020-0188,2020-11-15,03:08:40,03:24:03,NA,incomplete,201,filling,1,right,Purple_Triangle_Chess_4.jpg,Purple_Plus_Stripes_2.jpg,Red_Circle_Chess_1.jpg,right,773.4900000505149,true,low,false
SWxGPKqQ,3ygyp13654mlicup3w1l36spsdqnrt,3wseltnvr7ft1sbmpj6d6z5zthttag,SWxGPKqQ,2020-0188,2020-11-15,03:08:40,03:24:03,NA,incomplete,202,filling,1,right,Blue_Circle_Grid_1.jpg,Blue_Plus_Stripes_4.jpg,Purple_Triangle_Grid_2.jpg,right,1087.4750000075437,true,low,false
SWxGPKqQ,3ygyp13654mlicup3w1l36spsdqnrt,3wseltnvr7ft1sbmpj6d6z5zthttag,SWxGPKqQ,2020-0188,2020-11-15,03:08:40,03:24:03,NA,incomplete,203,filling,0,right,Green_Triangle_Stripes_4.jpg,Green_Circle_Dots_1.jpg,Red_Plus_Stripes_3.jpg,right,696.4300000108778,true,low,false
SWxGPKqQ,3ygyp13654mlicup3w1l36spsdqnrt,3wseltnvr7ft1sbmpj6d6z5zthttag,SWxGPKqQ,2020-0188,2020-11-15,03:08:40,03:24:03,NA,incomplete,204,filling,1,left,Red_Star_Stripes_4.jpg,Green_Plus_Stripes_2.jpg,Red_Circle_Chess_3.jpg,left,798.1349999899976,true,low,false
SWxGPKqQ,3ygyp13654mlicup3w1l36spsdqnrt,3wseltnvr7ft1sbmpj6d6z5zthttag,SWxGPKqQ,2020-0188,2020-11-15,03:08:40,03:24:03,NA,incomplete,205,filling,1,left,Purple_Circle_Dots_2.jpg,Blue_Triangle_Dots_3.jpg,Purple_Plus_Chess_1.jpg,left,804.9800000153482,true,low,false
SWxGPKqQ,3ygyp13654mlicup3w1l36spsdqnrt,3wseltnvr7ft1sbmpj6d6z5zthttag,SWxGPKqQ,2020-0188,2020-11-15,03:08:40,03:24:03,NA,incomplete,206,filling,1,left,Green_Circle_Chess_3.jpg,Red_Plus_Chess_4.jpg,Green_Triangle_Stripes_2.jpg,left,946.3550000218675,true,low,false
SWxGPKqQ,3ygyp13654mlicup3w1l36spsdqnrt,3wseltnvr7ft1sbmpj6d6z5zthttag,SWxGPKqQ,2020-0188,2020-11-15,03:08:40,03:24:03,NA,incomplete,207,filling,1,left,Purple_Star_Dots_3.jpg,Green_Plus_Dots_4.jpg,Purple_Circle_Grid_2.jpg,right,837.7499999478459,false,low,false
SWxGPKqQ,3ygyp13654mlicup3w1l36spsdqnrt,3wseltnvr7ft1sbmpj6d6z5zthttag,SWxGPKqQ,2020-0188,2020-11-15,03:08:40,03:24:03,NA,incomplete,208,filling,1,right,Blue_Star_Chess_2.jpg,Blue_Circle_Grid_4.jpg,Purple_Plus_Chess_1.jpg,right,782.134999986738,true,low,false
SWxGPKqQ,3ygyp13654mlicup3w1l36spsdqnrt,3wseltnvr7ft1sbmpj6d6z5zthttag,SWxGPKqQ,2020-0188,2020-11-15,03:08:40,03:24:03,NA,incomplete,209,filling,0,left,Blue_Star_Chess_1.jpg,Green_Plus_Chess_2.jpg,Blue_Circle_Dots_3.jpg,left,597.8500000201166,true,low,false
SWxGPKqQ,3ygyp13654mlicup3w1l36spsdqnrt,3wseltnvr7ft1sbmpj6d6z5zthttag,SWxGPKqQ,2020-0188,2020-11-15,03:08:40,03:24:03,NA,incomplete,210,filling,1,right,Purple_Circle_Grid_2.jpg,Purple_Triangle_Chess_4.jpg,Green_Plus_Grid_1.jpg,left,915.1399999973364,false,low,false
SWxGPKqQ,3ygyp13654mlicup3w1l36spsdqnrt,3wseltnvr7ft1sbmpj6d6z5zthttag,SWxGPKqQ,2020-0188,2020-11-15,03:08:40,03:24:03,NA,incomplete,211,filling,1,right,Purple_Triangle_Dots_2.jpg,Purple_Star_Chess_1.jpg,Blue_Circle_Dots_4.jpg,right,709.6049999818206,true,low,false
SWxGPKqQ,3ygyp13654mlicup3w1l36spsdqnrt,3wseltnvr7ft1sbmpj6d6z5zthttag,SWxGPKqQ,2020-0188,2020-11-15,03:08:40,03:24:03,NA,incomplete,212,filling,1,left,Purple_Triangle_Stripes_3.jpg,Red_Plus_Stripes_4.jpg,Purple_Circle_Grid_1.jpg,left,740.1700000045821,true,low,false
SWxGPKqQ,3ygyp13654mlicup3w1l36spsdqnrt,3wseltnvr7ft1sbmpj6d6z5zthttag,SWxGPKqQ,2020-0188,2020-11-15,03:08:40,03:24:03,NA,incomplete,213,filling,1,right,Green_Plus_Dots_2.jpg,Green_Star_Grid_4.jpg,Purple_Circle_Dots_3.jpg,right,636.8299999739975,true,low,false
SWxGPKqQ,3ygyp13654mlicup3w1l36spsdqnrt,3wseltnvr7ft1sbmpj6d6z5zthttag,SWxGPKqQ,2020-0188,2020-11-15,03:08:40,03:24:03,NA,incomplete,214,filling,0,right,Purple_Plus_Dots_3.jpg,Purple_Circle_Stripes_1.jpg,Blue_Triangle_Dots_2.jpg,right,770.1150000211783,true,low,false
SWxGPKqQ,3ygyp13654mlicup3w1l36spsdqnrt,3wseltnvr7ft1sbmpj6d6z5zthttag,SWxGPKqQ,2020-0188,2020-11-15,03:08:40,03:24:03,NA,incomplete,215,filling,1,left,Green_Triangle_Grid_2.jpg,Red_Star_Grid_4.jpg,Green_Plus_Stripes_1.jpg,left,983.7699999916367,true,low,false
SWxGPKqQ,3ygyp13654mlicup3w1l36spsdqnrt,3wseltnvr7ft1sbmpj6d6z5zthttag,SWxGPKqQ,2020-0188,2020-11-15,03:08:40,03:24:03,NA,incomplete,216,filling,1,right,Purple_Triangle_Dots_3.jpg,Purple_Circle_Stripes_4.jpg,Blue_Star_Dots_1.jpg,right,654.4350000331178,true,low,false
SWxGPKqQ,3ygyp13654mlicup3w1l36spsdqnrt,3wseltnvr7ft1sbmpj6d6z5zthttag,SWxGPKqQ,2020-0188,2020-11-15,03:08:40,03:24:03,NA,incomplete,217,filling,1,left,Green_Circle_Grid_4.jpg,Purple_Star_Grid_3.jpg,Green_Plus_Stripes_1.jpg,left,784.845000016503,true,low,false
SWxGPKqQ,3ygyp13654mlicup3w1l36spsdqnrt,3wseltnvr7ft1sbmpj6d6z5zthttag,SWxGPKqQ,2020-0188,2020-11-15,03:08:40,03:24:03,NA,incomplete,218,filling,1,left,Red_Star_Grid_3.jpg,Blue_Circle_Grid_4.jpg,Red_Triangle_Dots_2.jpg,left,875.7900000200607,true,low,false
SWxGPKqQ,3ygyp13654mlicup3w1l36spsdqnrt,3wseltnvr7ft1sbmpj6d6z5zthttag,SWxGPKqQ,2020-0188,2020-11-15,03:08:40,03:24:03,NA,incomplete,219,filling,1,left,Red_Star_Grid_2.jpg,Blue_Triangle_Grid_3.jpg,Red_Plus_Chess_4.jpg,left,863.9149999944493,true,low,false
SWxGPKqQ,3ygyp13654mlicup3w1l36spsdqnrt,3wseltnvr7ft1sbmpj6d6z5zthttag,SWxGPKqQ,2020-0188,2020-11-15,03:08:40,03:24:03,NA,incomplete,220,color,0,left,Purple_Triangle_Dots_3.jpg,Purple_Circle_Chess_2.jpg,Blue_Star_Dots_1.jpg,right,650.4900000290945,false,low,false
SWxGPKqQ,3ygyp13654mlicup3w1l36spsdqnrt,3wseltnvr7ft1sbmpj6d6z5zthttag,SWxGPKqQ,2020-0188,2020-11-15,03:08:40,03:24:03,NA,incomplete,221,color,1,left,Green_Circle_Grid_1.jpg,Green_Star_Chess_2.jpg,Purple_Triangle_Grid_4.jpg,right,828.4550000098534,false,low,false
SWxGPKqQ,3ygyp13654mlicup3w1l36spsdqnrt,3wseltnvr7ft1sbmpj6d6z5zthttag,SWxGPKqQ,2020-0188,2020-11-15,03:08:40,03:24:03,NA,incomplete,222,color,1,left,Red_Star_Grid_2.jpg,Red_Triangle_Chess_3.jpg,Green_Circle_Grid_4.jpg,right,822.4949999712408,false,low,false
SWxGPKqQ,3ygyp13654mlicup3w1l36spsdqnrt,3wseltnvr7ft1sbmpj6d6z5zthttag,SWxGPKqQ,2020-0188,2020-11-15,03:08:40,03:24:03,NA,incomplete,223,color,0,left,Green_Plus_Chess_2.jpg,Green_Circle_Grid_4.jpg,Purple_Triangle_Chess_1.jpg,left,422.55499999737367,true,low,false
SWxGPKqQ,3ygyp13654mlicup3w1l36spsdqnrt,3wseltnvr7ft1sbmpj6d6z5zthttag,SWxGPKqQ,2020-0188,2020-11-15,03:08:40,03:24:03,NA,incomplete,224,color,1,right,Purple_Plus_Dots_2.jpg,Red_Triangle_Dots_4.jpg,Purple_Star_Stripes_1.jpg,left,749.1600000066683,false,low,false
SWxGPKqQ,3ygyp13654mlicup3w1l36spsdqnrt,3wseltnvr7ft1sbmpj6d6z5zthttag,SWxGPKqQ,2020-0188,2020-11-15,03:08:40,03:24:03,NA,incomplete,225,color,0,right,Blue_Circle_Stripes_2.jpg,Green_Plus_Stripes_4.jpg,Blue_Triangle_Dots_1.jpg,left,811.8750000139698,false,low,false
SWxGPKqQ,3ygyp13654mlicup3w1l36spsdqnrt,3wseltnvr7ft1sbmpj6d6z5zthttag,SWxGPKqQ,2020-0188,2020-11-15,03:08:40,03:24:03,NA,incomplete,226,color,1,left,Blue_Plus_Stripes_3.jpg,Blue_Triangle_Chess_2.jpg,Purple_Star_Stripes_1.jpg,right,792.3099999898113,false,low,false
SWxGPKqQ,3ygyp13654mlicup3w1l36spsdqnrt,3wseltnvr7ft1sbmpj6d6z5zthttag,SWxGPKqQ,2020-0188,2020-11-15,03:08:40,03:24:03,NA,incomplete,227,color,1,left,Blue_Triangle_Chess_3.jpg,Blue_Plus_Stripes_1.jpg,Green_Circle_Chess_2.jpg,right,721.6650000191294,false,low,false
SWxGPKqQ,3ygyp13654mlicup3w1l36spsdqnrt,3wseltnvr7ft1sbmpj6d6z5zthttag,SWxGPKqQ,2020-0188,2020-11-15,03:08:40,03:24:03,NA,incomplete,228,color,0,right,Red_Star_Grid_2.jpg,Blue_Plus_Grid_1.jpg,Red_Triangle_Chess_3.jpg,left,757.8649999923073,false,low,false
SWxGPKqQ,3ygyp13654mlicup3w1l36spsdqnrt,3wseltnvr7ft1sbmpj6d6z5zthttag,SWxGPKqQ,2020-0188,2020-11-15,03:08:40,03:24:03,NA,incomplete,229,color,1,left,Purple_Star_Stripes_2.jpg,Purple_Triangle_Chess_4.jpg,Green_Circle_Stripes_3.jpg,right,850.7399999652989,false,low,false
SWxGPKqQ,3ygyp13654mlicup3w1l36spsdqnrt,3wseltnvr7ft1sbmpj6d6z5zthttag,SWxGPKqQ,2020-0188,2020-11-15,03:08:40,03:24:03,NA,incomplete,230,color,1,right,Purple_Plus_Chess_4.jpg,Green_Triangle_Chess_3.jpg,Purple_Star_Grid_2.jpg,left,828.319999971427,false,low,false
SWxGPKqQ,3ygyp13654mlicup3w1l36spsdqnrt,3wseltnvr7ft1sbmpj6d6z5zthttag,SWxGPKqQ,2020-0188,2020-11-15,03:08:40,03:24:03,NA,incomplete,231,color,0,right,Purple_Circle_Stripes_4.jpg,Green_Plus_Stripes_3.jpg,Purple_Triangle_Grid_1.jpg,right,468.9699999871664,true,low,false
SWxGPKqQ,3ygyp13654mlicup3w1l36spsdqnrt,3wseltnvr7ft1sbmpj6d6z5zthttag,SWxGPKqQ,2020-0188,2020-11-15,03:08:40,03:24:03,NA,incomplete,232,color,1,left,Red_Triangle_Dots_3.jpg,Red_Star_Stripes_1.jpg,Purple_Circle_Dots_2.jpg,left,515.8099999534898,true,low,false
SWxGPKqQ,3ygyp13654mlicup3w1l36spsdqnrt,3wseltnvr7ft1sbmpj6d6z5zthttag,SWxGPKqQ,2020-0188,2020-11-15,03:08:40,03:24:03,NA,incomplete,233,color,1,left,Purple_Star_Chess_4.jpg,Purple_Plus_Stripes_1.jpg,Red_Triangle_Chess_2.jpg,left,568.3899999712594,true,low,false
SWxGPKqQ,3ygyp13654mlicup3w1l36spsdqnrt,3wseltnvr7ft1sbmpj6d6z5zthttag,SWxGPKqQ,2020-0188,2020-11-15,03:08:40,03:24:03,NA,incomplete,234,color,1,right,Purple_Triangle_Chess_1.jpg,Blue_Plus_Chess_2.jpg,Purple_Star_Stripes_3.jpg,right,395.79500001855195,true,low,false
SWxGPKqQ,3ygyp13654mlicup3w1l36spsdqnrt,3wseltnvr7ft1sbmpj6d6z5zthttag,SWxGPKqQ,2020-0188,2020-11-15,03:08:40,03:24:03,NA,incomplete,235,color,1,right,Red_Circle_Dots_4.jpg,Green_Plus_Dots_2.jpg,Red_Star_Chess_3.jpg,right,447.07500003278255,true,low,false
SWxGPKqQ,3ygyp13654mlicup3w1l36spsdqnrt,3wseltnvr7ft1sbmpj6d6z5zthttag,SWxGPKqQ,2020-0188,2020-11-15,03:08:40,03:24:03,NA,incomplete,236,color,1,left,Green_Plus_Chess_4.jpg,Green_Triangle_Dots_1.jpg,Blue_Star_Chess_2.jpg,left,445.82500000251457,true,low,false
SWxGPKqQ,3ygyp13654mlicup3w1l36spsdqnrt,3wseltnvr7ft1sbmpj6d6z5zthttag,SWxGPKqQ,2020-0188,2020-11-15,03:08:40,03:24:03,NA,incomplete,237,color,1,left,Purple_Star_Stripes_1.jpg,Purple_Circle_Chess_2.jpg,Green_Triangle_Stripes_3.jpg,left,549.2349999840371,true,low,false
SWxGPKqQ,3ygyp13654mlicup3w1l36spsdqnrt,3wseltnvr7ft1sbmpj6d6z5zthttag,SWxGPKqQ,2020-0188,2020-11-15,03:08:40,03:24:03,NA,incomplete,238,color,1,left,Red_Plus_Grid_1.jpg,Red_Circle_Stripes_4.jpg,Purple_Star_Grid_3.jpg,left,396.2650000466965,true,low,false
SWxGPKqQ,3ygyp13654mlicup3w1l36spsdqnrt,3wseltnvr7ft1sbmpj6d6z5zthttag,SWxGPKqQ,2020-0188,2020-11-15,03:08:40,03:24:03,NA,incomplete,239,color,1,right,Red_Triangle_Dots_3.jpg,Purple_Plus_Dots_1.jpg,Red_Circle_Chess_4.jpg,right,390.6299999798648,true,low,false
SWxGPKqQ,3ygyp13654mlicup3w1l36spsdqnrt,3wseltnvr7ft1sbmpj6d6z5zthttag,SWxGPKqQ,2020-0188,2020-11-15,03:08:40,03:24:03,907353.2300000079,924162.7850000514,NA,NA,NA,NA,NA,NA,NA,NA,NA,NA,NA,undefined
