workerId,hitId,assignmentId,subject,studyid,exp_date,exp_start,exp_end,time_start,time_end,trial,type,reward_validity,answer,image_top,image_left,image_right,response,response_time,response_acc,volatility,practice
evOJKqAp,30oitawpctgn4gcs6h6m71vz0jeh92,3x3or7wpz3drzra2jck8ohpnack8lu,evOJKqAp,2020-0188,2020-11-19,21:16:05,21:47:11,NA,incomplete,0,number,1,left,Blue_Triangle_Stripes_4.jpg,Purple_Plus_Dots_4.jpg,Blue_Star_Chess_3.jpg,left,1180.9749999083579,true,NA,true
evOJKqAp,30oitawpctgn4gcs6h6m71vz0jeh92,3x3or7wpz3drzra2jck8ohpnack8lu,evOJKqAp,2020-0188,2020-11-19,21:16:05,21:47:11,NA,incomplete,1,number,1,right,Blue_Circle_Stripes_2.jpg,Blue_Star_Dots_3.jpg,Purple_Triangle_Chess_2.jpg,right,714.6649998612702,true,NA,true
evOJKqAp,30oitawpctgn4gcs6h6m71vz0jeh92,3x3or7wpz3drzra2jck8ohpnack8lu,evOJKqAp,2020-0188,2020-11-19,21:16:05,21:47:11,NA,incomplete,2,number,0,left,Blue_Plus_Grid_1.jpg,Green_Triangle_Stripes_1.jpg,Blue_Star_Chess_3.jpg,left,778.3900001086295,true,NA,true
evOJKqAp,30oitawpctgn4gcs6h6m71vz0jeh92,3x3or7wpz3drzra2jck8ohpnack8lu,evOJKqAp,2020-0188,2020-11-19,21:16:05,21:47:11,NA,incomplete,3,number,1,left,Purple_Plus_Grid_2.jpg,Blue_Circle_Dots_2.jpg,Purple_Star_Stripes_1.jpg,left,696.5299998410046,true,NA,true
evOJKqAp,30oitawpctgn4gcs6h6m71vz0jeh92,3x3or7wpz3drzra2jck8ohpnack8lu,evOJKqAp,2020-0188,2020-11-19,21:16:05,21:47:11,NA,incomplete,4,number,1,left,Green_Plus_Dots_3.jpg,Red_Star_Stripes_3.jpg,Green_Circle_Chess_2.jpg,left,697.0850001089275,true,NA,true
evOJKqAp,30oitawpctgn4gcs6h6m71vz0jeh92,3x3or7wpz3drzra2jck8ohpnack8lu,evOJKqAp,2020-0188,2020-11-19,21:16:05,21:47:11,NA,incomplete,5,number,1,right,Purple_Plus_Chess_3.jpg,Purple_Triangle_Dots_4.jpg,Green_Circle_Grid_3.jpg,right,713.5250000283122,true,NA,true
evOJKqAp,30oitawpctgn4gcs6h6m71vz0jeh92,3x3or7wpz3drzra2jck8ohpnack8lu,evOJKqAp,2020-0188,2020-11-19,21:16:05,21:47:11,NA,incomplete,6,number,1,right,Purple_Circle_Chess_1.jpg,Purple_Plus_Dots_3.jpg,Red_Triangle_Stripes_1.jpg,right,681.9150000810623,true,NA,true
evOJKqAp,30oitawpctgn4gcs6h6m71vz0jeh92,3x3or7wpz3drzra2jck8ohpnack8lu,evOJKqAp,2020-0188,2020-11-19,21:16:05,21:47:11,NA,incomplete,7,number,0,left,Green_Star_Stripes_2.jpg,Purple_Circle_Chess_2.jpg,Green_Plus_Dots_4.jpg,left,635.5249998159707,true,NA,true
evOJKqAp,30oitawpctgn4gcs6h6m71vz0jeh92,3x3or7wpz3drzra2jck8ohpnack8lu,evOJKqAp,2020-0188,2020-11-19,21:16:05,21:47:11,NA,incomplete,8,number,1,right,Green_Star_Stripes_3.jpg,Green_Circle_Chess_2.jpg,Blue_Triangle_Grid_3.jpg,right,652.4849999696016,true,NA,true
evOJKqAp,30oitawpctgn4gcs6h6m71vz0jeh92,3x3or7wpz3drzra2jck8ohpnack8lu,evOJKqAp,2020-0188,2020-11-19,21:16:05,21:47:11,NA,incomplete,9,number,1,right,Green_Triangle_Stripes_4.jpg,Green_Star_Grid_1.jpg,Purple_Plus_Chess_4.jpg,right,674.7349998913705,true,NA,true
evOJKqAp,30oitawpctgn4gcs6h6m71vz0jeh92,3x3or7wpz3drzra2jck8ohpnack8lu,evOJKqAp,2020-0188,2020-11-19,21:16:05,21:47:11,NA,incomplete,10,number,1,right,Red_Star_Stripes_3.jpg,Red_Plus_Grid_4.jpg,Purple_Triangle_Dots_3.jpg,right,883.6999996565282,true,NA,true
evOJKqAp,30oitawpctgn4gcs6h6m71vz0jeh92,3x3or7wpz3drzra2jck8ohpnack8lu,evOJKqAp,2020-0188,2020-11-19,21:16:05,21:47:11,NA,incomplete,11,number,1,left,Green_Plus_Chess_2.jpg,Blue_Triangle_Stripes_2.jpg,Green_Circle_Dots_4.jpg,left,652.8750001452863,true,NA,true
evOJKqAp,30oitawpctgn4gcs6h6m71vz0jeh92,3x3or7wpz3drzra2jck8ohpnack8lu,evOJKqAp,2020-0188,2020-11-19,21:16:05,21:47:11,NA,incomplete,12,number,1,right,Green_Circle_Dots_1.jpg,Green_Plus_Stripes_2.jpg,Red_Triangle_Grid_1.jpg,right,624.5999997481704,true,NA,true
evOJKqAp,30oitawpctgn4gcs6h6m71vz0jeh92,3x3or7wpz3drzra2jck8ohpnack8lu,evOJKqAp,2020-0188,2020-11-19,21:16:05,21:47:11,NA,incomplete,13,number,0,left,Purple_Plus_Dots_1.jpg,Blue_Circle_Chess_1.jpg,Purple_Star_Grid_3.jpg,left,563.9449995942414,true,NA,true
evOJKqAp,30oitawpctgn4gcs6h6m71vz0jeh92,3x3or7wpz3drzra2jck8ohpnack8lu,evOJKqAp,2020-0188,2020-11-19,21:16:05,21:47:11,NA,incomplete,14,number,1,left,Blue_Circle_Grid_3.jpg,Green_Triangle_Stripes_3.jpg,Blue_Star_Dots_1.jpg,left,650.419999845326,true,NA,true
evOJKqAp,30oitawpctgn4gcs6h6m71vz0jeh92,3x3or7wpz3drzra2jck8ohpnack8lu,evOJKqAp,2020-0188,2020-11-19,21:16:05,21:47:11,NA,incomplete,15,number,0,right,Blue_Circle_Stripes_3.jpg,Blue_Triangle_Chess_1.jpg,Red_Plus_Dots_3.jpg,right,588.9200000092387,true,NA,true
evOJKqAp,30oitawpctgn4gcs6h6m71vz0jeh92,3x3or7wpz3drzra2jck8ohpnack8lu,evOJKqAp,2020-0188,2020-11-19,21:16:05,21:47:11,NA,incomplete,16,number,1,left,Red_Star_Stripes_1.jpg,Green_Triangle_Chess_1.jpg,Red_Circle_Grid_4.jpg,left,522.2599999979138,true,NA,true
evOJKqAp,30oitawpctgn4gcs6h6m71vz0jeh92,3x3or7wpz3drzra2jck8ohpnack8lu,evOJKqAp,2020-0188,2020-11-19,21:16:05,21:47:11,NA,incomplete,17,number,1,left,Blue_Circle_Stripes_3.jpg,Purple_Plus_Chess_3.jpg,Blue_Triangle_Dots_1.jpg,left,623.2300000265241,true,NA,true
evOJKqAp,30oitawpctgn4gcs6h6m71vz0jeh92,3x3or7wpz3drzra2jck8ohpnack8lu,evOJKqAp,2020-0188,2020-11-19,21:16:05,21:47:11,NA,incomplete,18,number,1,right,Blue_Plus_Stripes_1.jpg,Blue_Star_Chess_4.jpg,Purple_Triangle_Grid_1.jpg,right,704.6950003132224,true,NA,true
evOJKqAp,30oitawpctgn4gcs6h6m71vz0jeh92,3x3or7wpz3drzra2jck8ohpnack8lu,evOJKqAp,2020-0188,2020-11-19,21:16:05,21:47:11,NA,incomplete,19,number,1,left,Green_Plus_Stripes_2.jpg,Red_Star_Grid_2.jpg,Green_Circle_Dots_1.jpg,left,546.1149998009205,true,NA,true
evOJKqAp,30oitawpctgn4gcs6h6m71vz0jeh92,3x3or7wpz3drzra2jck8ohpnack8lu,evOJKqAp,2020-0188,2020-11-19,21:16:05,21:47:11,NA,incomplete,20,color,1,right,Purple_Plus_Stripes_4.jpg,Green_Triangle_Chess_4.jpg,Purple_Circle_Grid_2.jpg,left,659.4699998386204,false,NA,true
evOJKqAp,30oitawpctgn4gcs6h6m71vz0jeh92,3x3or7wpz3drzra2jck8ohpnack8lu,evOJKqAp,2020-0188,2020-11-19,21:16:05,21:47:11,NA,incomplete,21,color,1,left,Blue_Circle_Grid_1.jpg,Blue_Plus_Dots_2.jpg,Red_Triangle_Chess_1.jpg,right,589.1350000165403,false,NA,true
evOJKqAp,30oitawpctgn4gcs6h6m71vz0jeh92,3x3or7wpz3drzra2jck8ohpnack8lu,evOJKqAp,2020-0188,2020-11-19,21:16:05,21:47:11,NA,incomplete,22,color,1,right,Purple_Plus_Stripes_1.jpg,Blue_Triangle_Chess_1.jpg,Purple_Star_Dots_4.jpg,left,586.8299999274313,false,NA,true
evOJKqAp,30oitawpctgn4gcs6h6m71vz0jeh92,3x3or7wpz3drzra2jck8ohpnack8lu,evOJKqAp,2020-0188,2020-11-19,21:16:05,21:47:11,NA,incomplete,23,color,0,left,Purple_Triangle_Grid_1.jpg,Purple_Plus_Dots_2.jpg,Green_Star_Stripes_1.jpg,left,1013.610000256449,true,NA,true
evOJKqAp,30oitawpctgn4gcs6h6m71vz0jeh92,3x3or7wpz3drzra2jck8ohpnack8lu,evOJKqAp,2020-0188,2020-11-19,21:16:05,21:47:11,NA,incomplete,24,color,1,left,Blue_Triangle_Stripes_3.jpg,Blue_Star_Chess_4.jpg,Green_Plus_Grid_3.jpg,left,952.520000282675,true,NA,true
evOJKqAp,30oitawpctgn4gcs6h6m71vz0jeh92,3x3or7wpz3drzra2jck8ohpnack8lu,evOJKqAp,2020-0188,2020-11-19,21:16:05,21:47:11,NA,incomplete,25,color,1,right,Blue_Circle_Grid_1.jpg,Green_Plus_Chess_1.jpg,Blue_Star_Dots_4.jpg,right,650.605000089854,true,NA,true
evOJKqAp,30oitawpctgn4gcs6h6m71vz0jeh92,3x3or7wpz3drzra2jck8ohpnack8lu,evOJKqAp,2020-0188,2020-11-19,21:16:05,21:47:11,NA,incomplete,26,color,0,right,Red_Circle_Chess_1.jpg,Purple_Star_Grid_1.jpg,Red_Triangle_Dots_2.jpg,right,784.965000115335,true,NA,true
evOJKqAp,30oitawpctgn4gcs6h6m71vz0jeh92,3x3or7wpz3drzra2jck8ohpnack8lu,evOJKqAp,2020-0188,2020-11-19,21:16:05,21:47:11,NA,incomplete,27,color,1,left,Red_Circle_Stripes_1.jpg,Red_Star_Grid_4.jpg,Green_Triangle_Dots_1.jpg,left,718.5300001874566,true,NA,true
evOJKqAp,30oitawpctgn4gcs6h6m71vz0jeh92,3x3or7wpz3drzra2jck8ohpnack8lu,evOJKqAp,2020-0188,2020-11-19,21:16:05,21:47:11,NA,incomplete,28,color,1,right,Blue_Star_Chess_4.jpg,Purple_Circle_Stripes_4.jpg,Blue_Plus_Dots_3.jpg,right,1008.1600002013147,true,NA,true
evOJKqAp,30oitawpctgn4gcs6h6m71vz0jeh92,3x3or7wpz3drzra2jck8ohpnack8lu,evOJKqAp,2020-0188,2020-11-19,21:16:05,21:47:11,NA,incomplete,29,color,1,left,Purple_Plus_Chess_2.jpg,Purple_Circle_Stripes_4.jpg,Blue_Star_Grid_2.jpg,left,690.2050003409386,true,NA,true
evOJKqAp,30oitawpctgn4gcs6h6m71vz0jeh92,3x3or7wpz3drzra2jck8ohpnack8lu,evOJKqAp,2020-0188,2020-11-19,21:16:05,21:47:11,NA,incomplete,30,color,1,right,Green_Triangle_Chess_4.jpg,Red_Circle_Stripes_4.jpg,Green_Plus_Dots_2.jpg,right,947.6699996739626,true,NA,true
evOJKqAp,30oitawpctgn4gcs6h6m71vz0jeh92,3x3or7wpz3drzra2jck8ohpnack8lu,evOJKqAp,2020-0188,2020-11-19,21:16:05,21:47:11,NA,incomplete,31,color,1,left,Red_Triangle_Grid_1.jpg,Red_Circle_Stripes_4.jpg,Blue_Star_Chess_1.jpg,left,789.0950003638864,true,NA,true
evOJKqAp,30oitawpctgn4gcs6h6m71vz0jeh92,3x3or7wpz3drzra2jck8ohpnack8lu,evOJKqAp,2020-0188,2020-11-19,21:16:05,21:47:11,NA,incomplete,32,color,1,right,Purple_Star_Dots_3.jpg,Blue_Triangle_Stripes_3.jpg,Purple_Circle_Chess_4.jpg,right,1159.1950003057718,true,NA,true
evOJKqAp,30oitawpctgn4gcs6h6m71vz0jeh92,3x3or7wpz3drzra2jck8ohpnack8lu,evOJKqAp,2020-0188,2020-11-19,21:16:05,21:47:11,NA,incomplete,33,color,0,left,Purple_Plus_Chess_1.jpg,Purple_Star_Dots_4.jpg,Green_Circle_Stripes_1.jpg,left,804.2049999348819,true,NA,true
evOJKqAp,30oitawpctgn4gcs6h6m71vz0jeh92,3x3or7wpz3drzra2jck8ohpnack8lu,evOJKqAp,2020-0188,2020-11-19,21:16:05,21:47:11,NA,incomplete,34,color,1,left,Purple_Plus_Grid_1.jpg,Purple_Circle_Dots_2.jpg,Blue_Star_Stripes_1.jpg,left,689.174999948591,true,NA,true
evOJKqAp,30oitawpctgn4gcs6h6m71vz0jeh92,3x3or7wpz3drzra2jck8ohpnack8lu,evOJKqAp,2020-0188,2020-11-19,21:16:05,21:47:11,NA,incomplete,35,color,1,left,Blue_Circle_Stripes_1.jpg,Blue_Triangle_Dots_4.jpg,Purple_Star_Grid_1.jpg,left,768.6399999074638,true,NA,true
evOJKqAp,30oitawpctgn4gcs6h6m71vz0jeh92,3x3or7wpz3drzra2jck8ohpnack8lu,evOJKqAp,2020-0188,2020-11-19,21:16:05,21:47:11,NA,incomplete,36,color,1,left,Red_Star_Chess_4.jpg,Red_Plus_Grid_2.jpg,Purple_Circle_Stripes_4.jpg,left,1039.7349996492267,true,NA,true
evOJKqAp,30oitawpctgn4gcs6h6m71vz0jeh92,3x3or7wpz3drzra2jck8ohpnack8lu,evOJKqAp,2020-0188,2020-11-19,21:16:05,21:47:11,NA,incomplete,37,color,1,left,Purple_Triangle_Dots_2.jpg,Purple_Circle_Grid_1.jpg,Red_Star_Stripes_2.jpg,right,1057.380000129342,false,NA,true
evOJKqAp,30oitawpctgn4gcs6h6m71vz0jeh92,3x3or7wpz3drzra2jck8ohpnack8lu,evOJKqAp,2020-0188,2020-11-19,21:16:05,21:47:11,NA,incomplete,38,color,0,left,Blue_Triangle_Chess_3.jpg,Blue_Star_Grid_4.jpg,Purple_Circle_Dots_3.jpg,left,913.3549998514354,true,NA,true
evOJKqAp,30oitawpctgn4gcs6h6m71vz0jeh92,3x3or7wpz3drzra2jck8ohpnack8lu,evOJKqAp,2020-0188,2020-11-19,21:16:05,21:47:11,NA,incomplete,39,color,1,right,Red_Triangle_Grid_3.jpg,Blue_Circle_Chess_3.jpg,Red_Plus_Dots_2.jpg,right,1162.9250003024936,true,NA,true
evOJKqAp,30oitawpctgn4gcs6h6m71vz0jeh92,3x3or7wpz3drzra2jck8ohpnack8lu,evOJKqAp,2020-0188,2020-11-19,21:16:05,21:47:11,NA,incomplete,0,number,1,left,Green_Plus_Dots_1.jpg,Blue_Triangle_Grid_1.jpg,Green_Star_Stripes_2.jpg,right,816.7400001548231,false,low,false
evOJKqAp,30oitawpctgn4gcs6h6m71vz0jeh92,3x3or7wpz3drzra2jck8ohpnack8lu,evOJKqAp,2020-0188,2020-11-19,21:16:05,21:47:11,NA,incomplete,1,number,1,right,Blue_Triangle_Grid_4.jpg,Blue_Star_Dots_3.jpg,Purple_Circle_Chess_4.jpg,left,748.1049997732043,false,low,false
evOJKqAp,30oitawpctgn4gcs6h6m71vz0jeh92,3x3or7wpz3drzra2jck8ohpnack8lu,evOJKqAp,2020-0188,2020-11-19,21:16:05,21:47:11,NA,incomplete,2,number,1,right,Green_Triangle_Dots_4.jpg,Green_Circle_Chess_3.jpg,Purple_Plus_Stripes_4.jpg,right,878.0749998986721,true,low,false
evOJKqAp,30oitawpctgn4gcs6h6m71vz0jeh92,3x3or7wpz3drzra2jck8ohpnack8lu,evOJKqAp,2020-0188,2020-11-19,21:16:05,21:47:11,NA,incomplete,3,number,1,right,Blue_Circle_Stripes_3.jpg,Blue_Triangle_Dots_1.jpg,Red_Plus_Grid_3.jpg,right,838.3600004017353,true,low,false
evOJKqAp,30oitawpctgn4gcs6h6m71vz0jeh92,3x3or7wpz3drzra2jck8ohpnack8lu,evOJKqAp,2020-0188,2020-11-19,21:16:05,21:47:11,NA,incomplete,4,number,1,left,Purple_Triangle_Chess_4.jpg,Green_Circle_Dots_4.jpg,Purple_Plus_Grid_1.jpg,left,799.6550002135336,true,low,false
evOJKqAp,30oitawpctgn4gcs6h6m71vz0jeh92,3x3or7wpz3drzra2jck8ohpnack8lu,evOJKqAp,2020-0188,2020-11-19,21:16:05,21:47:11,NA,incomplete,5,number,1,right,Purple_Star_Grid_2.jpg,Purple_Circle_Dots_1.jpg,Green_Triangle_Stripes_2.jpg,right,667.7649999037385,true,low,false
evOJKqAp,30oitawpctgn4gcs6h6m71vz0jeh92,3x3or7wpz3drzra2jck8ohpnack8lu,evOJKqAp,2020-0188,2020-11-19,21:16:05,21:47:11,NA,incomplete,6,number,0,left,Green_Star_Grid_3.jpg,Red_Circle_Stripes_3.jpg,Green_Triangle_Chess_2.jpg,left,697.7799995802343,true,low,false
evOJKqAp,30oitawpctgn4gcs6h6m71vz0jeh92,3x3or7wpz3drzra2jck8ohpnack8lu,evOJKqAp,2020-0188,2020-11-19,21:16:05,21:47:11,NA,incomplete,7,number,1,right,Red_Triangle_Grid_1.jpg,Red_Circle_Dots_2.jpg,Green_Star_Chess_1.jpg,right,623.494999948889,true,low,false
evOJKqAp,30oitawpctgn4gcs6h6m71vz0jeh92,3x3or7wpz3drzra2jck8ohpnack8lu,evOJKqAp,2020-0188,2020-11-19,21:16:05,21:47:11,NA,incomplete,8,number,1,left,Purple_Triangle_Grid_3.jpg,Green_Circle_Stripes_3.jpg,Purple_Plus_Dots_1.jpg,left,675.574999768287,true,low,false
evOJKqAp,30oitawpctgn4gcs6h6m71vz0jeh92,3x3or7wpz3drzra2jck8ohpnack8lu,evOJKqAp,2020-0188,2020-11-19,21:16:05,21:47:11,NA,incomplete,9,number,1,left,Purple_Circle_Stripes_2.jpg,Blue_Star_Dots_2.jpg,Purple_Triangle_Grid_3.jpg,left,646.1349995806813,true,low,false
evOJKqAp,30oitawpctgn4gcs6h6m71vz0jeh92,3x3or7wpz3drzra2jck8ohpnack8lu,evOJKqAp,2020-0188,2020-11-19,21:16:05,21:47:11,NA,incomplete,10,number,1,left,Blue_Star_Grid_4.jpg,Green_Plus_Chess_4.jpg,Blue_Triangle_Stripes_2.jpg,left,600.3849999979138,true,low,false
evOJKqAp,30oitawpctgn4gcs6h6m71vz0jeh92,3x3or7wpz3drzra2jck8ohpnack8lu,evOJKqAp,2020-0188,2020-11-19,21:16:05,21:47:11,NA,incomplete,11,number,1,left,Red_Triangle_Stripes_2.jpg,Green_Star_Chess_2.jpg,Red_Plus_Grid_1.jpg,left,668.8999999314547,true,low,false
evOJKqAp,30oitawpctgn4gcs6h6m71vz0jeh92,3x3or7wpz3drzra2jck8ohpnack8lu,evOJKqAp,2020-0188,2020-11-19,21:16:05,21:47:11,NA,incomplete,12,number,1,right,Red_Plus_Dots_3.jpg,Red_Star_Stripes_4.jpg,Green_Triangle_Grid_3.jpg,right,688.3199997246265,true,low,false
evOJKqAp,30oitawpctgn4gcs6h6m71vz0jeh92,3x3or7wpz3drzra2jck8ohpnack8lu,evOJKqAp,2020-0188,2020-11-19,21:16:05,21:47:11,NA,incomplete,13,number,0,left,Purple_Triangle_Chess_2.jpg,Blue_Plus_Grid_2.jpg,Purple_Star_Dots_3.jpg,left,656.955000013113,true,low,false
evOJKqAp,30oitawpctgn4gcs6h6m71vz0jeh92,3x3or7wpz3drzra2jck8ohpnack8lu,evOJKqAp,2020-0188,2020-11-19,21:16:05,21:47:11,NA,incomplete,14,number,1,right,Blue_Plus_Grid_3.jpg,Blue_Star_Dots_2.jpg,Green_Circle_Chess_3.jpg,right,740.5599998310208,true,low,false
evOJKqAp,30oitawpctgn4gcs6h6m71vz0jeh92,3x3or7wpz3drzra2jck8ohpnack8lu,evOJKqAp,2020-0188,2020-11-19,21:16:05,21:47:11,NA,incomplete,15,number,1,left,Blue_Star_Chess_1.jpg,Green_Plus_Stripes_1.jpg,Blue_Circle_Grid_4.jpg,left,578.5199999809265,true,low,false
evOJKqAp,30oitawpctgn4gcs6h6m71vz0jeh92,3x3or7wpz3drzra2jck8ohpnack8lu,evOJKqAp,2020-0188,2020-11-19,21:16:05,21:47:11,NA,incomplete,16,number,1,right,Blue_Plus_Chess_1.jpg,Blue_Circle_Dots_3.jpg,Green_Triangle_Stripes_1.jpg,right,600.4099999554455,true,low,false
evOJKqAp,30oitawpctgn4gcs6h6m71vz0jeh92,3x3or7wpz3drzra2jck8ohpnack8lu,evOJKqAp,2020-0188,2020-11-19,21:16:05,21:47:11,NA,incomplete,17,number,1,right,Green_Star_Grid_3.jpg,Green_Plus_Stripes_2.jpg,Purple_Circle_Chess_3.jpg,right,685.8199997805059,true,low,false
evOJKqAp,30oitawpctgn4gcs6h6m71vz0jeh92,3x3or7wpz3drzra2jck8ohpnack8lu,evOJKqAp,2020-0188,2020-11-19,21:16:05,21:47:11,NA,incomplete,18,number,1,left,Red_Triangle_Chess_4.jpg,Green_Plus_Stripes_4.jpg,Red_Circle_Grid_3.jpg,left,607.6850001700222,true,low,false
evOJKqAp,30oitawpctgn4gcs6h6m71vz0jeh92,3x3or7wpz3drzra2jck8ohpnack8lu,evOJKqAp,2020-0188,2020-11-19,21:16:05,21:47:11,NA,incomplete,19,number,1,left,Red_Plus_Chess_4.jpg,Green_Circle_Grid_4.jpg,Red_Star_Dots_1.jpg,left,612.3449997976422,true,low,false
evOJKqAp,30oitawpctgn4gcs6h6m71vz0jeh92,3x3or7wpz3drzra2jck8ohpnack8lu,evOJKqAp,2020-0188,2020-11-19,21:16:05,21:47:11,NA,incomplete,20,number,0,right,Red_Star_Chess_4.jpg,Red_Circle_Dots_1.jpg,Purple_Plus_Grid_4.jpg,right,553.3900000154972,true,low,false
evOJKqAp,30oitawpctgn4gcs6h6m71vz0jeh92,3x3or7wpz3drzra2jck8ohpnack8lu,evOJKqAp,2020-0188,2020-11-19,21:16:05,21:47:11,NA,incomplete,21,number,1,left,Green_Triangle_Chess_1.jpg,Blue_Circle_Dots_1.jpg,Green_Plus_Stripes_2.jpg,left,586.610000114888,true,low,false
evOJKqAp,30oitawpctgn4gcs6h6m71vz0jeh92,3x3or7wpz3drzra2jck8ohpnack8lu,evOJKqAp,2020-0188,2020-11-19,21:16:05,21:47:11,NA,incomplete,22,number,1,left,Red_Triangle_Dots_1.jpg,Purple_Circle_Stripes_1.jpg,Red_Plus_Grid_4.jpg,left,624.2349999956787,true,low,false
evOJKqAp,30oitawpctgn4gcs6h6m71vz0jeh92,3x3or7wpz3drzra2jck8ohpnack8lu,evOJKqAp,2020-0188,2020-11-19,21:16:05,21:47:11,NA,incomplete,23,number,1,right,Green_Triangle_Stripes_4.jpg,Green_Circle_Grid_2.jpg,Blue_Plus_Dots_4.jpg,right,584.3250001780689,true,low,false
evOJKqAp,30oitawpctgn4gcs6h6m71vz0jeh92,3x3or7wpz3drzra2jck8ohpnack8lu,evOJKqAp,2020-0188,2020-11-19,21:16:05,21:47:11,NA,incomplete,24,number,1,right,Red_Star_Stripes_1.jpg,Red_Plus_Dots_4.jpg,Blue_Triangle_Chess_1.jpg,right,603.3699996769428,true,low,false
evOJKqAp,30oitawpctgn4gcs6h6m71vz0jeh92,3x3or7wpz3drzra2jck8ohpnack8lu,evOJKqAp,2020-0188,2020-11-19,21:16:05,21:47:11,NA,incomplete,25,number,1,left,Purple_Circle_Dots_3.jpg,Blue_Triangle_Grid_3.jpg,Purple_Star_Chess_1.jpg,left,607.2300001978874,true,low,false
evOJKqAp,30oitawpctgn4gcs6h6m71vz0jeh92,3x3or7wpz3drzra2jck8ohpnack8lu,evOJKqAp,2020-0188,2020-11-19,21:16:05,21:47:11,NA,incomplete,26,number,1,left,Green_Triangle_Stripes_2.jpg,Purple_Plus_Grid_2.jpg,Green_Circle_Dots_3.jpg,left,696.0049998015165,true,low,false
evOJKqAp,30oitawpctgn4gcs6h6m71vz0jeh92,3x3or7wpz3drzra2jck8ohpnack8lu,evOJKqAp,2020-0188,2020-11-19,21:16:05,21:47:11,NA,incomplete,27,number,1,right,Green_Triangle_Stripes_2.jpg,Green_Circle_Grid_3.jpg,Red_Star_Dots_2.jpg,right,696.7599997296929,true,low,false
evOJKqAp,30oitawpctgn4gcs6h6m71vz0jeh92,3x3or7wpz3drzra2jck8ohpnack8lu,evOJKqAp,2020-0188,2020-11-19,21:16:05,21:47:11,NA,incomplete,28,number,1,left,Green_Circle_Stripes_3.jpg,Purple_Triangle_Dots_3.jpg,Green_Plus_Grid_2.jpg,left,618.0050000548363,true,low,false
evOJKqAp,30oitawpctgn4gcs6h6m71vz0jeh92,3x3or7wpz3drzra2jck8ohpnack8lu,evOJKqAp,2020-0188,2020-11-19,21:16:05,21:47:11,NA,incomplete,29,number,1,right,Green_Circle_Grid_2.jpg,Green_Triangle_Dots_1.jpg,Red_Star_Chess_2.jpg,right,624.1000001318753,true,low,false
evOJKqAp,30oitawpctgn4gcs6h6m71vz0jeh92,3x3or7wpz3drzra2jck8ohpnack8lu,evOJKqAp,2020-0188,2020-11-19,21:16:05,21:47:11,NA,incomplete,30,color,1,right,Green_Plus_Grid_4.jpg,Red_Star_Dots_4.jpg,Green_Triangle_Chess_3.jpg,left,562.8200001083314,false,low,false
evOJKqAp,30oitawpctgn4gcs6h6m71vz0jeh92,3x3or7wpz3drzra2jck8ohpnack8lu,evOJKqAp,2020-0188,2020-11-19,21:16:05,21:47:11,NA,incomplete,31,color,0,right,Blue_Triangle_Grid_4.jpg,Green_Star_Chess_4.jpg,Blue_Circle_Stripes_2.jpg,left,585.0700000301003,false,low,false
evOJKqAp,30oitawpctgn4gcs6h6m71vz0jeh92,3x3or7wpz3drzra2jck8ohpnack8lu,evOJKqAp,2020-0188,2020-11-19,21:16:05,21:47:11,NA,incomplete,32,color,1,right,Red_Triangle_Chess_1.jpg,Green_Star_Dots_1.jpg,Red_Plus_Stripes_3.jpg,left,751.1900002136827,false,low,false
evOJKqAp,30oitawpctgn4gcs6h6m71vz0jeh92,3x3or7wpz3drzra2jck8ohpnack8lu,evOJKqAp,2020-0188,2020-11-19,21:16:05,21:47:11,NA,incomplete,33,color,0,right,Red_Triangle_Grid_1.jpg,Blue_Circle_Stripes_1.jpg,Red_Star_Chess_3.jpg,left,657.3449997231364,false,low,false
evOJKqAp,30oitawpctgn4gcs6h6m71vz0jeh92,3x3or7wpz3drzra2jck8ohpnack8lu,evOJKqAp,2020-0188,2020-11-19,21:16:05,21:47:11,NA,incomplete,34,color,1,left,Red_Circle_Stripes_1.jpg,Red_Plus_Grid_2.jpg,Blue_Star_Dots_1.jpg,right,594.0700001083314,false,low,false
evOJKqAp,30oitawpctgn4gcs6h6m71vz0jeh92,3x3or7wpz3drzra2jck8ohpnack8lu,evOJKqAp,2020-0188,2020-11-19,21:16:05,21:47:11,NA,incomplete,35,color,0,right,Blue_Triangle_Grid_3.jpg,Green_Plus_Stripes_3.jpg,Blue_Circle_Chess_2.jpg,left,787.8400003537536,false,low,false
evOJKqAp,30oitawpctgn4gcs6h6m71vz0jeh92,3x3or7wpz3drzra2jck8ohpnack8lu,evOJKqAp,2020-0188,2020-11-19,21:16:05,21:47:11,NA,incomplete,36,color,1,left,Purple_Star_Chess_1.jpg,Purple_Circle_Grid_4.jpg,Red_Triangle_Stripes_1.jpg,right,531.5200001932681,false,low,false
evOJKqAp,30oitawpctgn4gcs6h6m71vz0jeh92,3x3or7wpz3drzra2jck8ohpnack8lu,evOJKqAp,2020-0188,2020-11-19,21:16:05,21:47:11,NA,incomplete,37,color,1,right,Red_Plus_Chess_3.jpg,Purple_Triangle_Grid_3.jpg,Red_Star_Dots_2.jpg,left,1259.980000089854,false,low,false
evOJKqAp,30oitawpctgn4gcs6h6m71vz0jeh92,3x3or7wpz3drzra2jck8ohpnack8lu,evOJKqAp,2020-0188,2020-11-19,21:16:05,21:47:11,NA,incomplete,38,color,1,right,Red_Triangle_Dots_4.jpg,Blue_Star_Chess_4.jpg,Red_Circle_Grid_2.jpg,left,1172.0350002869964,false,low,false
evOJKqAp,30oitawpctgn4gcs6h6m71vz0jeh92,3x3or7wpz3drzra2jck8ohpnack8lu,evOJKqAp,2020-0188,2020-11-19,21:16:05,21:47:11,NA,incomplete,39,color,1,left,Purple_Star_Dots_1.jpg,Purple_Plus_Stripes_2.jpg,Red_Triangle_Grid_1.jpg,left,817.2049997374415,true,low,false
evOJKqAp,30oitawpctgn4gcs6h6m71vz0jeh92,3x3or7wpz3drzra2jck8ohpnack8lu,evOJKqAp,2020-0188,2020-11-19,21:16:05,21:47:11,NA,incomplete,40,color,0,left,Purple_Plus_Stripes_3.jpg,Purple_Circle_Dots_4.jpg,Blue_Triangle_Grid_3.jpg,left,700.3349997103214,true,low,false
evOJKqAp,30oitawpctgn4gcs6h6m71vz0jeh92,3x3or7wpz3drzra2jck8ohpnack8lu,evOJKqAp,2020-0188,2020-11-19,21:16:05,21:47:11,NA,incomplete,41,color,1,right,Green_Triangle_Dots_2.jpg,Red_Circle_Grid_2.jpg,Green_Star_Chess_3.jpg,right,685.485000256449,true,low,false
evOJKqAp,30oitawpctgn4gcs6h6m71vz0jeh92,3x3or7wpz3drzra2jck8ohpnack8lu,evOJKqAp,2020-0188,2020-11-19,21:16:05,21:47:11,NA,incomplete,42,color,0,left,Green_Star_Dots_1.jpg,Green_Circle_Grid_3.jpg,Blue_Triangle_Chess_1.jpg,left,553.2499998807907,true,low,false
evOJKqAp,30oitawpctgn4gcs6h6m71vz0jeh92,3x3or7wpz3drzra2jck8ohpnack8lu,evOJKqAp,2020-0188,2020-11-19,21:16:05,21:47:11,NA,incomplete,43,color,1,left,Red_Circle_Dots_2.jpg,Red_Star_Grid_4.jpg,Green_Plus_Chess_2.jpg,left,614.8100001737475,true,low,false
evOJKqAp,30oitawpctgn4gcs6h6m71vz0jeh92,3x3or7wpz3drzra2jck8ohpnack8lu,evOJKqAp,2020-0188,2020-11-19,21:16:05,21:47:11,NA,incomplete,44,color,1,left,Red_Circle_Stripes_1.jpg,Red_Plus_Dots_3.jpg,Blue_Triangle_Grid_1.jpg,left,714.6250000223517,true,low,false
evOJKqAp,30oitawpctgn4gcs6h6m71vz0jeh92,3x3or7wpz3drzra2jck8ohpnack8lu,evOJKqAp,2020-0188,2020-11-19,21:16:05,21:47:11,NA,incomplete,45,color,0,right,Blue_Plus_Dots_4.jpg,Purple_Circle_Grid_4.jpg,Blue_Star_Stripes_2.jpg,right,657.7349998988211,true,low,false
evOJKqAp,30oitawpctgn4gcs6h6m71vz0jeh92,3x3or7wpz3drzra2jck8ohpnack8lu,evOJKqAp,2020-0188,2020-11-19,21:16:05,21:47:11,NA,incomplete,46,color,1,left,Purple_Circle_Dots_3.jpg,Purple_Plus_Grid_1.jpg,Red_Triangle_Stripes_3.jpg,left,1308.7499998509884,true,low,false
evOJKqAp,30oitawpctgn4gcs6h6m71vz0jeh92,3x3or7wpz3drzra2jck8ohpnack8lu,evOJKqAp,2020-0188,2020-11-19,21:16:05,21:47:11,NA,incomplete,47,color,1,right,Blue_Plus_Stripes_3.jpg,Green_Triangle_Dots_3.jpg,Blue_Circle_Chess_4.jpg,right,1107.2149998508394,true,low,false
evOJKqAp,30oitawpctgn4gcs6h6m71vz0jeh92,3x3or7wpz3drzra2jck8ohpnack8lu,evOJKqAp,2020-0188,2020-11-19,21:16:05,21:47:11,NA,incomplete,48,color,1,right,Purple_Triangle_Stripes_2.jpg,Red_Star_Chess_2.jpg,Purple_Plus_Dots_1.jpg,right,993.9500000327826,true,low,false
evOJKqAp,30oitawpctgn4gcs6h6m71vz0jeh92,3x3or7wpz3drzra2jck8ohpnack8lu,evOJKqAp,2020-0188,2020-11-19,21:16:05,21:47:11,NA,incomplete,49,color,1,left,Red_Star_Dots_2.jpg,Red_Triangle_Stripes_1.jpg,Purple_Plus_Chess_2.jpg,left,934.4299999065697,true,low,false
evOJKqAp,30oitawpctgn4gcs6h6m71vz0jeh92,3x3or7wpz3drzra2jck8ohpnack8lu,evOJKqAp,2020-0188,2020-11-19,21:16:05,21:47:11,NA,incomplete,50,color,0,left,Blue_Star_Grid_1.jpg,Blue_Triangle_Chess_3.jpg,Red_Plus_Dots_1.jpg,left,590.1999999769032,true,low,false
evOJKqAp,30oitawpctgn4gcs6h6m71vz0jeh92,3x3or7wpz3drzra2jck8ohpnack8lu,evOJKqAp,2020-0188,2020-11-19,21:16:05,21:47:11,NA,incomplete,51,color,1,right,Blue_Star_Stripes_1.jpg,Red_Circle_Chess_1.jpg,Blue_Triangle_Grid_4.jpg,right,690.1549999602139,true,low,false
evOJKqAp,30oitawpctgn4gcs6h6m71vz0jeh92,3x3or7wpz3drzra2jck8ohpnack8lu,evOJKqAp,2020-0188,2020-11-19,21:16:05,21:47:11,NA,incomplete,52,color,1,left,Blue_Plus_Grid_2.jpg,Blue_Star_Stripes_1.jpg,Purple_Triangle_Chess_2.jpg,left,543.8250000588596,true,low,false
evOJKqAp,30oitawpctgn4gcs6h6m71vz0jeh92,3x3or7wpz3drzra2jck8ohpnack8lu,evOJKqAp,2020-0188,2020-11-19,21:16:05,21:47:11,NA,incomplete,53,color,1,right,Red_Star_Stripes_4.jpg,Blue_Circle_Dots_4.jpg,Red_Triangle_Grid_3.jpg,right,668.1649996899068,true,low,false
evOJKqAp,30oitawpctgn4gcs6h6m71vz0jeh92,3x3or7wpz3drzra2jck8ohpnack8lu,evOJKqAp,2020-0188,2020-11-19,21:16:05,21:47:11,NA,incomplete,54,color,0,left,Blue_Triangle_Dots_1.jpg,Blue_Circle_Chess_4.jpg,Purple_Star_Stripes_1.jpg,left,531.4549999311566,true,low,false
evOJKqAp,30oitawpctgn4gcs6h6m71vz0jeh92,3x3or7wpz3drzra2jck8ohpnack8lu,evOJKqAp,2020-0188,2020-11-19,21:16:05,21:47:11,NA,incomplete,55,color,0,right,Green_Triangle_Dots_4.jpg,Blue_Circle_Grid_4.jpg,Green_Plus_Chess_2.jpg,right,644.6400000713766,true,low,false
evOJKqAp,30oitawpctgn4gcs6h6m71vz0jeh92,3x3or7wpz3drzra2jck8ohpnack8lu,evOJKqAp,2020-0188,2020-11-19,21:16:05,21:47:11,NA,incomplete,56,color,1,left,Purple_Plus_Stripes_1.jpg,Purple_Circle_Chess_2.jpg,Blue_Triangle_Grid_1.jpg,left,1096.7950001358986,true,low,false
evOJKqAp,30oitawpctgn4gcs6h6m71vz0jeh92,3x3or7wpz3drzra2jck8ohpnack8lu,evOJKqAp,2020-0188,2020-11-19,21:16:05,21:47:11,NA,incomplete,57,color,0,right,Purple_Star_Dots_3.jpg,Green_Plus_Chess_3.jpg,Purple_Circle_Grid_1.jpg,right,875.7000002078712,true,low,false
evOJKqAp,30oitawpctgn4gcs6h6m71vz0jeh92,3x3or7wpz3drzra2jck8ohpnack8lu,evOJKqAp,2020-0188,2020-11-19,21:16:05,21:47:11,NA,incomplete,58,color,1,right,Green_Circle_Chess_4.jpg,Purple_Triangle_Grid_4.jpg,Green_Plus_Stripes_1.jpg,left,689.7199996747077,false,low,false
evOJKqAp,30oitawpctgn4gcs6h6m71vz0jeh92,3x3or7wpz3drzra2jck8ohpnack8lu,evOJKqAp,2020-0188,2020-11-19,21:16:05,21:47:11,NA,incomplete,59,color,1,left,Blue_Plus_Dots_4.jpg,Blue_Star_Grid_1.jpg,Green_Triangle_Stripes_4.jpg,right,690.4699997976422,false,low,false
evOJKqAp,30oitawpctgn4gcs6h6m71vz0jeh92,3x3or7wpz3drzra2jck8ohpnack8lu,evOJKqAp,2020-0188,2020-11-19,21:16:05,21:47:11,NA,incomplete,60,number,1,right,Blue_Triangle_Grid_3.jpg,Blue_Plus_Chess_1.jpg,Green_Circle_Stripes_3.jpg,left,725.9149998426437,false,low,false
evOJKqAp,30oitawpctgn4gcs6h6m71vz0jeh92,3x3or7wpz3drzra2jck8ohpnack8lu,evOJKqAp,2020-0188,2020-11-19,21:16:05,21:47:11,NA,incomplete,61,number,1,left,Blue_Plus_Stripes_1.jpg,Green_Triangle_Grid_1.jpg,Blue_Circle_Chess_4.jpg,right,672.3100002855062,false,low,false
evOJKqAp,30oitawpctgn4gcs6h6m71vz0jeh92,3x3or7wpz3drzra2jck8ohpnack8lu,evOJKqAp,2020-0188,2020-11-19,21:16:05,21:47:11,NA,incomplete,62,number,0,right,Blue_Circle_Stripes_3.jpg,Blue_Plus_Chess_1.jpg,Green_Triangle_Grid_3.jpg,right,821.9249998219311,true,low,false
evOJKqAp,30oitawpctgn4gcs6h6m71vz0jeh92,3x3or7wpz3drzra2jck8ohpnack8lu,evOJKqAp,2020-0188,2020-11-19,21:16:05,21:47:11,NA,incomplete,63,number,1,right,Purple_Plus_Stripes_2.jpg,Purple_Triangle_Dots_3.jpg,Green_Star_Chess_2.jpg,left,625.5700001493096,false,low,false
evOJKqAp,30oitawpctgn4gcs6h6m71vz0jeh92,3x3or7wpz3drzra2jck8ohpnack8lu,evOJKqAp,2020-0188,2020-11-19,21:16:05,21:47:11,NA,incomplete,64,number,1,right,Red_Triangle_Chess_3.jpg,Red_Plus_Stripes_1.jpg,Purple_Star_Dots_3.jpg,left,723.5300000756979,false,low,false
evOJKqAp,30oitawpctgn4gcs6h6m71vz0jeh92,3x3or7wpz3drzra2jck8ohpnack8lu,evOJKqAp,2020-0188,2020-11-19,21:16:05,21:47:11,NA,incomplete,65,number,1,right,Purple_Triangle_Stripes_2.jpg,Purple_Plus_Grid_3.jpg,Red_Star_Dots_2.jpg,right,832.9350003041327,true,low,false
evOJKqAp,30oitawpctgn4gcs6h6m71vz0jeh92,3x3or7wpz3drzra2jck8ohpnack8lu,evOJKqAp,2020-0188,2020-11-19,21:16:05,21:47:11,NA,incomplete,66,number,0,right,Green_Plus_Chess_1.jpg,Green_Circle_Dots_3.jpg,Purple_Star_Stripes_1.jpg,right,783.4850000217557,true,low,false
evOJKqAp,30oitawpctgn4gcs6h6m71vz0jeh92,3x3or7wpz3drzra2jck8ohpnack8lu,evOJKqAp,2020-0188,2020-11-19,21:16:05,21:47:11,NA,incomplete,67,number,1,left,Green_Triangle_Chess_3.jpg,Blue_Circle_Grid_3.jpg,Green_Plus_Stripes_2.jpg,right,1147.8999997489154,false,low,false
evOJKqAp,30oitawpctgn4gcs6h6m71vz0jeh92,3x3or7wpz3drzra2jck8ohpnack8lu,evOJKqAp,2020-0188,2020-11-19,21:16:05,21:47:11,NA,incomplete,68,number,1,right,Blue_Triangle_Dots_2.jpg,Blue_Plus_Stripes_4.jpg,Green_Circle_Grid_2.jpg,left,762.2800003737211,false,low,false
evOJKqAp,30oitawpctgn4gcs6h6m71vz0jeh92,3x3or7wpz3drzra2jck8ohpnack8lu,evOJKqAp,2020-0188,2020-11-19,21:16:05,21:47:11,NA,incomplete,69,number,0,right,Purple_Star_Grid_1.jpg,Purple_Plus_Dots_3.jpg,Blue_Triangle_Chess_1.jpg,left,664.1099997796118,false,low,false
evOJKqAp,30oitawpctgn4gcs6h6m71vz0jeh92,3x3or7wpz3drzra2jck8ohpnack8lu,evOJKqAp,2020-0188,2020-11-19,21:16:05,21:47:11,NA,incomplete,70,number,1,right,Blue_Plus_Dots_1.jpg,Blue_Triangle_Stripes_3.jpg,Red_Star_Grid_1.jpg,left,518.2399996556342,false,low,false
evOJKqAp,30oitawpctgn4gcs6h6m71vz0jeh92,3x3or7wpz3drzra2jck8ohpnack8lu,evOJKqAp,2020-0188,2020-11-19,21:16:05,21:47:11,NA,incomplete,71,number,1,left,Purple_Star_Chess_4.jpg,Blue_Plus_Stripes_4.jpg,Purple_Triangle_Grid_2.jpg,left,962.3099998570979,true,low,false
evOJKqAp,30oitawpctgn4gcs6h6m71vz0jeh92,3x3or7wpz3drzra2jck8ohpnack8lu,evOJKqAp,2020-0188,2020-11-19,21:16:05,21:47:11,NA,incomplete,72,number,1,right,Green_Plus_Stripes_2.jpg,Green_Triangle_Chess_4.jpg,Blue_Circle_Grid_2.jpg,right,1175.3899999894202,true,low,false
evOJKqAp,30oitawpctgn4gcs6h6m71vz0jeh92,3x3or7wpz3drzra2jck8ohpnack8lu,evOJKqAp,2020-0188,2020-11-19,21:16:05,21:47:11,NA,incomplete,73,number,1,right,Red_Circle_Grid_4.jpg,Red_Star_Chess_2.jpg,Blue_Plus_Stripes_4.jpg,right,740.8549999818206,true,low,false
evOJKqAp,30oitawpctgn4gcs6h6m71vz0jeh92,3x3or7wpz3drzra2jck8ohpnack8lu,evOJKqAp,2020-0188,2020-11-19,21:16:05,21:47:11,NA,incomplete,74,number,1,left,Red_Star_Grid_3.jpg,Purple_Circle_Chess_3.jpg,Red_Plus_Stripes_1.jpg,left,647.875000257045,true,low,false
evOJKqAp,30oitawpctgn4gcs6h6m71vz0jeh92,3x3or7wpz3drzra2jck8ohpnack8lu,evOJKqAp,2020-0188,2020-11-19,21:16:05,21:47:11,NA,incomplete,75,number,1,right,Purple_Plus_Dots_3.jpg,Purple_Circle_Stripes_4.jpg,Green_Triangle_Grid_3.jpg,right,739.5500000566244,true,low,false
evOJKqAp,30oitawpctgn4gcs6h6m71vz0jeh92,3x3or7wpz3drzra2jck8ohpnack8lu,evOJKqAp,2020-0188,2020-11-19,21:16:05,21:47:11,NA,incomplete,76,number,1,right,Red_Plus_Stripes_1.jpg,Red_Star_Chess_2.jpg,Blue_Circle_Grid_1.jpg,right,661.640000063926,true,low,false
evOJKqAp,30oitawpctgn4gcs6h6m71vz0jeh92,3x3or7wpz3drzra2jck8ohpnack8lu,evOJKqAp,2020-0188,2020-11-19,21:16:05,21:47:11,NA,incomplete,77,number,1,right,Red_Star_Stripes_4.jpg,Red_Triangle_Dots_2.jpg,Blue_Circle_Chess_4.jpg,right,728.110000025481,true,low,false
evOJKqAp,30oitawpctgn4gcs6h6m71vz0jeh92,3x3or7wpz3drzra2jck8ohpnack8lu,evOJKqAp,2020-0188,2020-11-19,21:16:05,21:47:11,NA,incomplete,78,number,1,right,Blue_Circle_Chess_1.jpg,Blue_Triangle_Stripes_4.jpg,Purple_Plus_Dots_1.jpg,right,647.9400000534952,true,low,false
evOJKqAp,30oitawpctgn4gcs6h6m71vz0jeh92,3x3or7wpz3drzra2jck8ohpnack8lu,evOJKqAp,2020-0188,2020-11-19,21:16:05,21:47:11,NA,incomplete,79,number,1,left,Blue_Star_Chess_1.jpg,Green_Circle_Grid_1.jpg,Blue_Triangle_Stripes_3.jpg,left,616.0349999554455,true,low,false
evOJKqAp,30oitawpctgn4gcs6h6m71vz0jeh92,3x3or7wpz3drzra2jck8ohpnack8lu,evOJKqAp,2020-0188,2020-11-19,21:16:05,21:47:11,NA,incomplete,80,number,0,left,Purple_Triangle_Stripes_1.jpg,Green_Plus_Grid_1.jpg,Purple_Circle_Chess_2.jpg,left,724.6550000272691,true,low,false
evOJKqAp,30oitawpctgn4gcs6h6m71vz0jeh92,3x3or7wpz3drzra2jck8ohpnack8lu,evOJKqAp,2020-0188,2020-11-19,21:16:05,21:47:11,NA,incomplete,81,number,1,right,Blue_Star_Grid_4.jpg,Blue_Plus_Chess_3.jpg,Purple_Triangle_Dots_4.jpg,right,831.4000000245869,true,low,false
evOJKqAp,30oitawpctgn4gcs6h6m71vz0jeh92,3x3or7wpz3drzra2jck8ohpnack8lu,evOJKqAp,2020-0188,2020-11-19,21:16:05,21:47:11,NA,incomplete,82,number,1,right,Green_Circle_Stripes_3.jpg,Green_Star_Grid_2.jpg,Red_Triangle_Chess_3.jpg,right,714.6900002844632,true,low,false
evOJKqAp,30oitawpctgn4gcs6h6m71vz0jeh92,3x3or7wpz3drzra2jck8ohpnack8lu,evOJKqAp,2020-0188,2020-11-19,21:16:05,21:47:11,NA,incomplete,83,number,0,right,Red_Plus_Chess_1.jpg,Red_Circle_Stripes_4.jpg,Blue_Star_Dots_1.jpg,right,699.070000089705,true,low,false
evOJKqAp,30oitawpctgn4gcs6h6m71vz0jeh92,3x3or7wpz3drzra2jck8ohpnack8lu,evOJKqAp,2020-0188,2020-11-19,21:16:05,21:47:11,NA,incomplete,84,number,1,right,Blue_Plus_Stripes_1.jpg,Blue_Triangle_Dots_3.jpg,Purple_Circle_Grid_1.jpg,right,731.9249999709427,true,low,false
evOJKqAp,30oitawpctgn4gcs6h6m71vz0jeh92,3x3or7wpz3drzra2jck8ohpnack8lu,evOJKqAp,2020-0188,2020-11-19,21:16:05,21:47:11,NA,incomplete,85,number,1,left,Red_Circle_Grid_1.jpg,Green_Plus_Dots_1.jpg,Red_Triangle_Chess_3.jpg,left,651.2399995699525,true,low,false
evOJKqAp,30oitawpctgn4gcs6h6m71vz0jeh92,3x3or7wpz3drzra2jck8ohpnack8lu,evOJKqAp,2020-0188,2020-11-19,21:16:05,21:47:11,NA,incomplete,86,number,0,left,Green_Circle_Dots_1.jpg,Red_Plus_Chess_1.jpg,Green_Triangle_Grid_3.jpg,left,574.1849998012185,true,low,false
evOJKqAp,30oitawpctgn4gcs6h6m71vz0jeh92,3x3or7wpz3drzra2jck8ohpnack8lu,evOJKqAp,2020-0188,2020-11-19,21:16:05,21:47:11,NA,incomplete,87,number,1,right,Purple_Plus_Grid_3.jpg,Purple_Circle_Chess_1.jpg,Blue_Triangle_Dots_3.jpg,right,1076.9199999049306,true,low,false
evOJKqAp,30oitawpctgn4gcs6h6m71vz0jeh92,3x3or7wpz3drzra2jck8ohpnack8lu,evOJKqAp,2020-0188,2020-11-19,21:16:05,21:47:11,NA,incomplete,88,number,1,right,Purple_Plus_Stripes_1.jpg,Purple_Star_Dots_2.jpg,Green_Circle_Chess_1.jpg,right,869.9799999594688,true,low,false
evOJKqAp,30oitawpctgn4gcs6h6m71vz0jeh92,3x3or7wpz3drzra2jck8ohpnack8lu,evOJKqAp,2020-0188,2020-11-19,21:16:05,21:47:11,NA,incomplete,89,number,1,right,Green_Star_Chess_2.jpg,Green_Circle_Grid_1.jpg,Blue_Triangle_Stripes_2.jpg,right,734.9550002254546,true,low,false
evOJKqAp,30oitawpctgn4gcs6h6m71vz0jeh92,3x3or7wpz3drzra2jck8ohpnack8lu,evOJKqAp,2020-0188,2020-11-19,21:16:05,21:47:11,NA,incomplete,90,color,0,left,Green_Plus_Grid_1.jpg,Green_Circle_Dots_3.jpg,Purple_Triangle_Chess_1.jpg,right,574.3549996986985,false,low,false
evOJKqAp,30oitawpctgn4gcs6h6m71vz0jeh92,3x3or7wpz3drzra2jck8ohpnack8lu,evOJKqAp,2020-0188,2020-11-19,21:16:05,21:47:11,NA,incomplete,91,color,0,left,Green_Triangle_Grid_1.jpg,Green_Circle_Dots_4.jpg,Red_Star_Chess_1.jpg,right,612.4099995940924,false,low,false
evOJKqAp,30oitawpctgn4gcs6h6m71vz0jeh92,3x3or7wpz3drzra2jck8ohpnack8lu,evOJKqAp,2020-0188,2020-11-19,21:16:05,21:47:11,NA,incomplete,92,color,0,left,Red_Triangle_Chess_2.jpg,Red_Plus_Stripes_4.jpg,Green_Circle_Dots_2.jpg,right,680.7200000621378,false,low,false
evOJKqAp,30oitawpctgn4gcs6h6m71vz0jeh92,3x3or7wpz3drzra2jck8ohpnack8lu,evOJKqAp,2020-0188,2020-11-19,21:16:05,21:47:11,NA,incomplete,93,color,1,left,Purple_Plus_Dots_4.jpg,Purple_Circle_Chess_2.jpg,Green_Triangle_Stripes_4.jpg,right,731.2300000339746,false,low,false
evOJKqAp,30oitawpctgn4gcs6h6m71vz0jeh92,3x3or7wpz3drzra2jck8ohpnack8lu,evOJKqAp,2020-0188,2020-11-19,21:16:05,21:47:11,NA,incomplete,94,color,1,right,Blue_Circle_Grid_3.jpg,Green_Star_Dots_3.jpg,Blue_Triangle_Chess_2.jpg,left,956.5400001592934,false,low,false
evOJKqAp,30oitawpctgn4gcs6h6m71vz0jeh92,3x3or7wpz3drzra2jck8ohpnack8lu,evOJKqAp,2020-0188,2020-11-19,21:16:05,21:47:11,NA,incomplete,95,color,1,left,Blue_Triangle_Chess_4.jpg,Blue_Circle_Dots_1.jpg,Green_Plus_Stripes_4.jpg,right,864.7849997505546,false,low,false
evOJKqAp,30oitawpctgn4gcs6h6m71vz0jeh92,3x3or7wpz3drzra2jck8ohpnack8lu,evOJKqAp,2020-0188,2020-11-19,21:16:05,21:47:11,NA,incomplete,96,color,1,right,Purple_Star_Chess_2.jpg,Red_Plus_Dots_2.jpg,Purple_Circle_Grid_3.jpg,right,903.7199998274446,true,low,false
evOJKqAp,30oitawpctgn4gcs6h6m71vz0jeh92,3x3or7wpz3drzra2jck8ohpnack8lu,evOJKqAp,2020-0188,2020-11-19,21:16:05,21:47:11,NA,incomplete,97,color,1,left,Blue_Circle_Grid_1.jpg,Blue_Star_Dots_3.jpg,Red_Triangle_Stripes_1.jpg,left,513.0900000222027,true,low,false
evOJKqAp,30oitawpctgn4gcs6h6m71vz0jeh92,3x3or7wpz3drzra2jck8ohpnack8lu,evOJKqAp,2020-0188,2020-11-19,21:16:05,21:47:11,NA,incomplete,98,color,1,left,Red_Plus_Chess_2.jpg,Red_Star_Stripes_1.jpg,Green_Triangle_Grid_2.jpg,left,587.1849996037781,true,low,false
evOJKqAp,30oitawpctgn4gcs6h6m71vz0jeh92,3x3or7wpz3drzra2jck8ohpnack8lu,evOJKqAp,2020-0188,2020-11-19,21:16:05,21:47:11,NA,incomplete,99,color,1,left,Purple_Triangle_Stripes_4.jpg,Purple_Plus_Grid_3.jpg,Green_Star_Chess_4.jpg,left,653.2000000588596,true,low,false
evOJKqAp,30oitawpctgn4gcs6h6m71vz0jeh92,3x3or7wpz3drzra2jck8ohpnack8lu,evOJKqAp,2020-0188,2020-11-19,21:16:05,21:47:11,NA,incomplete,100,color,1,left,Purple_Plus_Dots_2.jpg,Purple_Circle_Stripes_3.jpg,Blue_Triangle_Grid_2.jpg,left,590.919999871403,true,low,false
evOJKqAp,30oitawpctgn4gcs6h6m71vz0jeh92,3x3or7wpz3drzra2jck8ohpnack8lu,evOJKqAp,2020-0188,2020-11-19,21:16:05,21:47:11,NA,incomplete,101,color,1,right,Red_Plus_Stripes_2.jpg,Green_Star_Dots_2.jpg,Red_Circle_Chess_1.jpg,right,546.7999996617436,true,low,false
evOJKqAp,30oitawpctgn4gcs6h6m71vz0jeh92,3x3or7wpz3drzra2jck8ohpnack8lu,evOJKqAp,2020-0188,2020-11-19,21:16:05,21:47:11,NA,incomplete,102,color,1,left,Green_Star_Chess_2.jpg,Green_Circle_Dots_4.jpg,Blue_Plus_Grid_2.jpg,left,589.9799996986985,true,low,false
evOJKqAp,30oitawpctgn4gcs6h6m71vz0jeh92,3x3or7wpz3drzra2jck8ohpnack8lu,evOJKqAp,2020-0188,2020-11-19,21:16:05,21:47:11,NA,incomplete,103,color,1,left,Purple_Star_Stripes_3.jpg,Purple_Plus_Chess_4.jpg,Green_Triangle_Grid_3.jpg,left,581.2400002032518,true,low,false
evOJKqAp,30oitawpctgn4gcs6h6m71vz0jeh92,3x3or7wpz3drzra2jck8ohpnack8lu,evOJKqAp,2020-0188,2020-11-19,21:16:05,21:47:11,NA,incomplete,104,color,1,left,Purple_Triangle_Grid_4.jpg,Purple_Star_Dots_3.jpg,Red_Plus_Stripes_4.jpg,left,634.2099998146296,true,low,false
evOJKqAp,30oitawpctgn4gcs6h6m71vz0jeh92,3x3or7wpz3drzra2jck8ohpnack8lu,evOJKqAp,2020-0188,2020-11-19,21:16:05,21:47:11,NA,incomplete,105,color,1,right,Purple_Circle_Grid_2.jpg,Blue_Star_Dots_2.jpg,Purple_Triangle_Chess_1.jpg,right,606.4450000412762,true,low,false
evOJKqAp,30oitawpctgn4gcs6h6m71vz0jeh92,3x3or7wpz3drzra2jck8ohpnack8lu,evOJKqAp,2020-0188,2020-11-19,21:16:05,21:47:11,NA,incomplete,106,color,1,left,Blue_Star_Stripes_1.jpg,Blue_Plus_Chess_2.jpg,Green_Circle_Grid_1.jpg,left,514.1750001348555,true,low,false
evOJKqAp,30oitawpctgn4gcs6h6m71vz0jeh92,3x3or7wpz3drzra2jck8ohpnack8lu,evOJKqAp,2020-0188,2020-11-19,21:16:05,21:47:11,NA,incomplete,107,color,1,left,Blue_Plus_Grid_4.jpg,Blue_Triangle_Dots_2.jpg,Green_Circle_Stripes_4.jpg,left,588.7199998833239,true,low,false
evOJKqAp,30oitawpctgn4gcs6h6m71vz0jeh92,3x3or7wpz3drzra2jck8ohpnack8lu,evOJKqAp,2020-0188,2020-11-19,21:16:05,21:47:11,NA,incomplete,108,color,1,left,Red_Star_Dots_4.jpg,Red_Triangle_Chess_3.jpg,Purple_Circle_Stripes_4.jpg,left,606.3149999827147,true,low,false
evOJKqAp,30oitawpctgn4gcs6h6m71vz0jeh92,3x3or7wpz3drzra2jck8ohpnack8lu,evOJKqAp,2020-0188,2020-11-19,21:16:05,21:47:11,NA,incomplete,109,color,1,left,Blue_Star_Chess_4.jpg,Blue_Circle_Grid_1.jpg,Red_Triangle_Dots_4.jpg,left,1269.35000019148,true,low,false
evOJKqAp,30oitawpctgn4gcs6h6m71vz0jeh92,3x3or7wpz3drzra2jck8ohpnack8lu,evOJKqAp,2020-0188,2020-11-19,21:16:05,21:47:11,NA,incomplete,110,color,1,right,Red_Triangle_Dots_4.jpg,Blue_Star_Stripes_4.jpg,Red_Plus_Chess_1.jpg,right,526.3800001703203,true,low,false
evOJKqAp,30oitawpctgn4gcs6h6m71vz0jeh92,3x3or7wpz3drzra2jck8ohpnack8lu,evOJKqAp,2020-0188,2020-11-19,21:16:05,21:47:11,NA,incomplete,111,color,1,right,Red_Circle_Dots_3.jpg,Purple_Triangle_Chess_3.jpg,Red_Star_Stripes_2.jpg,right,818.8300002366304,true,low,false
evOJKqAp,30oitawpctgn4gcs6h6m71vz0jeh92,3x3or7wpz3drzra2jck8ohpnack8lu,evOJKqAp,2020-0188,2020-11-19,21:16:05,21:47:11,NA,incomplete,112,color,1,left,Purple_Circle_Stripes_4.jpg,Purple_Plus_Chess_1.jpg,Green_Triangle_Dots_4.jpg,left,624.2099995724857,true,low,false
evOJKqAp,30oitawpctgn4gcs6h6m71vz0jeh92,3x3or7wpz3drzra2jck8ohpnack8lu,evOJKqAp,2020-0188,2020-11-19,21:16:05,21:47:11,NA,incomplete,113,color,1,right,Green_Triangle_Stripes_2.jpg,Blue_Circle_Grid_2.jpg,Green_Star_Chess_4.jpg,right,582.9350003041327,true,low,false
evOJKqAp,30oitawpctgn4gcs6h6m71vz0jeh92,3x3or7wpz3drzra2jck8ohpnack8lu,evOJKqAp,2020-0188,2020-11-19,21:16:05,21:47:11,NA,incomplete,114,color,1,right,Blue_Plus_Grid_3.jpg,Red_Circle_Stripes_3.jpg,Blue_Triangle_Dots_2.jpg,right,651.575000025332,true,low,false
evOJKqAp,30oitawpctgn4gcs6h6m71vz0jeh92,3x3or7wpz3drzra2jck8ohpnack8lu,evOJKqAp,2020-0188,2020-11-19,21:16:05,21:47:11,NA,incomplete,115,color,0,right,Purple_Star_Dots_2.jpg,Blue_Triangle_Grid_2.jpg,Purple_Circle_Chess_1.jpg,right,846.5899997390807,true,low,false
evOJKqAp,30oitawpctgn4gcs6h6m71vz0jeh92,3x3or7wpz3drzra2jck8ohpnack8lu,evOJKqAp,2020-0188,2020-11-19,21:16:05,21:47:11,NA,incomplete,116,color,0,left,Purple_Plus_Grid_1.jpg,Purple_Star_Chess_3.jpg,Red_Triangle_Stripes_1.jpg,left,1013.1700001657009,true,low,false
evOJKqAp,30oitawpctgn4gcs6h6m71vz0jeh92,3x3or7wpz3drzra2jck8ohpnack8lu,evOJKqAp,2020-0188,2020-11-19,21:16:05,21:47:11,NA,incomplete,117,color,1,right,Green_Plus_Stripes_4.jpg,Purple_Star_Chess_4.jpg,Green_Circle_Grid_1.jpg,left,684.6449999138713,false,low,false
evOJKqAp,30oitawpctgn4gcs6h6m71vz0jeh92,3x3or7wpz3drzra2jck8ohpnack8lu,evOJKqAp,2020-0188,2020-11-19,21:16:05,21:47:11,NA,incomplete,118,color,1,right,Blue_Star_Grid_2.jpg,Purple_Plus_Dots_2.jpg,Blue_Circle_Stripes_3.jpg,left,734.7200000658631,false,low,false
evOJKqAp,30oitawpctgn4gcs6h6m71vz0jeh92,3x3or7wpz3drzra2jck8ohpnack8lu,evOJKqAp,2020-0188,2020-11-19,21:16:05,21:47:11,NA,incomplete,119,color,1,right,Red_Triangle_Stripes_3.jpg,Purple_Star_Chess_3.jpg,Red_Circle_Dots_2.jpg,left,1133.8599999435246,false,low,false
evOJKqAp,30oitawpctgn4gcs6h6m71vz0jeh92,3x3or7wpz3drzra2jck8ohpnack8lu,evOJKqAp,2020-0188,2020-11-19,21:16:05,21:47:11,NA,incomplete,120,number,1,right,Green_Circle_Dots_3.jpg,Green_Star_Grid_4.jpg,Purple_Triangle_Stripes_3.jpg,left,684.1649999842048,false,low,false
evOJKqAp,30oitawpctgn4gcs6h6m71vz0jeh92,3x3or7wpz3drzra2jck8ohpnack8lu,evOJKqAp,2020-0188,2020-11-19,21:16:05,21:47:11,NA,incomplete,121,number,1,right,Purple_Triangle_Chess_4.jpg,Purple_Star_Stripes_1.jpg,Green_Plus_Grid_4.jpg,right,1293.3899997733533,true,low,false
evOJKqAp,30oitawpctgn4gcs6h6m71vz0jeh92,3x3or7wpz3drzra2jck8ohpnack8lu,evOJKqAp,2020-0188,2020-11-19,21:16:05,21:47:11,NA,incomplete,122,number,1,right,Red_Circle_Grid_3.jpg,Red_Star_Chess_2.jpg,Green_Plus_Stripes_3.jpg,right,868.6800003051758,true,low,false
evOJKqAp,30oitawpctgn4gcs6h6m71vz0jeh92,3x3or7wpz3drzra2jck8ohpnack8lu,evOJKqAp,2020-0188,2020-11-19,21:16:05,21:47:11,NA,incomplete,123,number,1,left,Red_Triangle_Dots_4.jpg,Green_Plus_Grid_4.jpg,Red_Star_Chess_3.jpg,left,728.3850000239909,true,low,false
evOJKqAp,30oitawpctgn4gcs6h6m71vz0jeh92,3x3or7wpz3drzra2jck8ohpnack8lu,evOJKqAp,2020-0188,2020-11-19,21:16:05,21:47:11,NA,incomplete,124,number,1,right,Purple_Circle_Chess_4.jpg,Purple_Plus_Stripes_1.jpg,Green_Triangle_Dots_4.jpg,right,1294.400000013411,true,low,false
evOJKqAp,30oitawpctgn4gcs6h6m71vz0jeh92,3x3or7wpz3drzra2jck8ohpnack8lu,evOJKqAp,2020-0188,2020-11-19,21:16:05,21:47:11,NA,incomplete,125,number,1,left,Blue_Plus_Chess_4.jpg,Purple_Star_Grid_4.jpg,Blue_Triangle_Stripes_2.jpg,left,692.5650001503527,true,low,false
evOJKqAp,30oitawpctgn4gcs6h6m71vz0jeh92,3x3or7wpz3drzra2jck8ohpnack8lu,evOJKqAp,2020-0188,2020-11-19,21:16:05,21:47:11,NA,incomplete,126,number,1,right,Blue_Circle_Grid_2.jpg,Blue_Triangle_Chess_1.jpg,Green_Star_Stripes_2.jpg,right,754.4249999336898,true,low,false
evOJKqAp,30oitawpctgn4gcs6h6m71vz0jeh92,3x3or7wpz3drzra2jck8ohpnack8lu,evOJKqAp,2020-0188,2020-11-19,21:16:05,21:47:11,NA,incomplete,127,number,1,left,Purple_Circle_Dots_2.jpg,Blue_Plus_Stripes_2.jpg,Purple_Triangle_Chess_3.jpg,left,849.3249998427927,true,low,false
evOJKqAp,30oitawpctgn4gcs6h6m71vz0jeh92,3x3or7wpz3drzra2jck8ohpnack8lu,evOJKqAp,2020-0188,2020-11-19,21:16:05,21:47:11,NA,incomplete,128,number,1,right,Red_Star_Dots_2.jpg,Red_Circle_Chess_4.jpg,Purple_Triangle_Grid_2.jpg,right,672.7099996060133,true,low,false
evOJKqAp,30oitawpctgn4gcs6h6m71vz0jeh92,3x3or7wpz3drzra2jck8ohpnack8lu,evOJKqAp,2020-0188,2020-11-19,21:16:05,21:47:11,NA,incomplete,129,number,0,left,Red_Star_Stripes_3.jpg,Green_Plus_Chess_3.jpg,Red_Circle_Dots_1.jpg,left,640.725000295788,true,low,false
evOJKqAp,30oitawpctgn4gcs6h6m71vz0jeh92,3x3or7wpz3drzra2jck8ohpnack8lu,evOJKqAp,2020-0188,2020-11-19,21:16:05,21:47:11,NA,incomplete,130,number,1,right,Purple_Plus_Dots_4.jpg,Purple_Star_Chess_1.jpg,Red_Triangle_Stripes_4.jpg,right,804.8499999567866,true,low,false
evOJKqAp,30oitawpctgn4gcs6h6m71vz0jeh92,3x3or7wpz3drzra2jck8ohpnack8lu,evOJKqAp,2020-0188,2020-11-19,21:16:05,21:47:11,NA,incomplete,131,number,1,right,Purple_Triangle_Stripes_4.jpg,Purple_Circle_Grid_2.jpg,Red_Star_Chess_4.jpg,right,769.0849998034537,true,low,false
evOJKqAp,30oitawpctgn4gcs6h6m71vz0jeh92,3x3or7wpz3drzra2jck8ohpnack8lu,evOJKqAp,2020-0188,2020-11-19,21:16:05,21:47:11,NA,incomplete,132,number,1,left,Purple_Plus_Dots_2.jpg,Green_Star_Stripes_2.jpg,Purple_Triangle_Grid_3.jpg,left,846.8599999323487,true,low,false
evOJKqAp,30oitawpctgn4gcs6h6m71vz0jeh92,3x3or7wpz3drzra2jck8ohpnack8lu,evOJKqAp,2020-0188,2020-11-19,21:16:05,21:47:11,NA,incomplete,133,number,0,left,Blue_Triangle_Stripes_2.jpg,Red_Star_Chess_2.jpg,Blue_Plus_Grid_4.jpg,left,632.7800001017749,true,low,false
evOJKqAp,30oitawpctgn4gcs6h6m71vz0jeh92,3x3or7wpz3drzra2jck8ohpnack8lu,evOJKqAp,2020-0188,2020-11-19,21:16:05,21:47:11,NA,incomplete,134,number,1,right,Purple_Triangle_Dots_2.jpg,Purple_Circle_Grid_1.jpg,Red_Plus_Stripes_2.jpg,right,877.8800000436604,true,low,false
evOJKqAp,30oitawpctgn4gcs6h6m71vz0jeh92,3x3or7wpz3drzra2jck8ohpnack8lu,evOJKqAp,2020-0188,2020-11-19,21:16:05,21:47:11,NA,incomplete,135,number,1,left,Green_Triangle_Dots_2.jpg,Red_Star_Stripes_2.jpg,Green_Circle_Chess_4.jpg,left,625.6999997422099,true,low,false
evOJKqAp,30oitawpctgn4gcs6h6m71vz0jeh92,3x3or7wpz3drzra2jck8ohpnack8lu,evOJKqAp,2020-0188,2020-11-19,21:16:05,21:47:11,NA,incomplete,136,number,1,right,Purple_Star_Dots_3.jpg,Purple_Circle_Stripes_1.jpg,Red_Triangle_Grid_3.jpg,right,572.395000141114,true,low,false
evOJKqAp,30oitawpctgn4gcs6h6m71vz0jeh92,3x3or7wpz3drzra2jck8ohpnack8lu,evOJKqAp,2020-0188,2020-11-19,21:16:05,21:47:11,NA,incomplete,137,number,0,right,Red_Plus_Stripes_2.jpg,Red_Triangle_Chess_1.jpg,Purple_Circle_Dots_2.jpg,left,592.9650003090501,false,low,false
evOJKqAp,30oitawpctgn4gcs6h6m71vz0jeh92,3x3or7wpz3drzra2jck8ohpnack8lu,evOJKqAp,2020-0188,2020-11-19,21:16:05,21:47:11,NA,incomplete,138,number,1,right,Green_Triangle_Chess_4.jpg,Green_Circle_Dots_3.jpg,Blue_Plus_Grid_4.jpg,left,613.6699998751283,false,low,false
evOJKqAp,30oitawpctgn4gcs6h6m71vz0jeh92,3x3or7wpz3drzra2jck8ohpnack8lu,evOJKqAp,2020-0188,2020-11-19,21:16:05,21:47:11,NA,incomplete,139,number,1,right,Green_Plus_Dots_3.jpg,Green_Circle_Grid_1.jpg,Blue_Star_Stripes_3.jpg,left,556.0400001704693,false,low,false
evOJKqAp,30oitawpctgn4gcs6h6m71vz0jeh92,3x3or7wpz3drzra2jck8ohpnack8lu,evOJKqAp,2020-0188,2020-11-19,21:16:05,21:47:11,NA,incomplete,140,color,1,right,Blue_Star_Chess_1.jpg,Purple_Circle_Stripes_1.jpg,Blue_Triangle_Dots_2.jpg,left,658.2150002941489,false,low,false
evOJKqAp,30oitawpctgn4gcs6h6m71vz0jeh92,3x3or7wpz3drzra2jck8ohpnack8lu,evOJKqAp,2020-0188,2020-11-19,21:16:05,21:47:11,NA,incomplete,141,color,0,right,Purple_Star_Grid_4.jpg,Blue_Circle_Dots_4.jpg,Purple_Plus_Stripes_2.jpg,right,1268.4350004419684,true,low,false
evOJKqAp,30oitawpctgn4gcs6h6m71vz0jeh92,3x3or7wpz3drzra2jck8ohpnack8lu,evOJKqAp,2020-0188,2020-11-19,21:16:05,21:47:11,NA,incomplete,142,color,1,right,Blue_Plus_Dots_2.jpg,Red_Star_Stripes_2.jpg,Blue_Triangle_Chess_1.jpg,left,764.6150002256036,false,low,false
evOJKqAp,30oitawpctgn4gcs6h6m71vz0jeh92,3x3or7wpz3drzra2jck8ohpnack8lu,evOJKqAp,2020-0188,2020-11-19,21:16:05,21:47:11,NA,incomplete,143,color,0,right,Red_Star_Dots_4.jpg,Purple_Circle_Grid_4.jpg,Red_Triangle_Stripes_3.jpg,left,747.7249996736646,false,low,false
evOJKqAp,30oitawpctgn4gcs6h6m71vz0jeh92,3x3or7wpz3drzra2jck8ohpnack8lu,evOJKqAp,2020-0188,2020-11-19,21:16:05,21:47:11,NA,incomplete,144,color,1,right,Red_Plus_Stripes_1.jpg,Blue_Triangle_Dots_1.jpg,Red_Star_Chess_2.jpg,left,833.1200000829995,false,low,false
evOJKqAp,30oitawpctgn4gcs6h6m71vz0jeh92,3x3or7wpz3drzra2jck8ohpnack8lu,evOJKqAp,2020-0188,2020-11-19,21:16:05,21:47:11,NA,incomplete,145,color,1,left,Purple_Circle_Dots_4.jpg,Purple_Star_Stripes_3.jpg,Red_Triangle_Chess_4.jpg,right,1206.5400001592934,false,low,false
evOJKqAp,30oitawpctgn4gcs6h6m71vz0jeh92,3x3or7wpz3drzra2jck8ohpnack8lu,evOJKqAp,2020-0188,2020-11-19,21:16:05,21:47:11,NA,incomplete,146,color,0,right,Blue_Star_Dots_3.jpg,Red_Circle_Stripes_3.jpg,Blue_Plus_Grid_2.jpg,right,1151.7650000751019,true,low,false
evOJKqAp,30oitawpctgn4gcs6h6m71vz0jeh92,3x3or7wpz3drzra2jck8ohpnack8lu,evOJKqAp,2020-0188,2020-11-19,21:16:05,21:47:11,NA,incomplete,147,color,1,left,Green_Star_Chess_4.jpg,Green_Plus_Dots_3.jpg,Red_Circle_Grid_4.jpg,left,1084.125000052154,true,low,false
evOJKqAp,30oitawpctgn4gcs6h6m71vz0jeh92,3x3or7wpz3drzra2jck8ohpnack8lu,evOJKqAp,2020-0188,2020-11-19,21:16:05,21:47:11,NA,incomplete,148,color,0,left,Purple_Plus_Dots_4.jpg,Purple_Triangle_Grid_1.jpg,Green_Circle_Stripes_4.jpg,left,1324.6199996210635,true,low,false
evOJKqAp,30oitawpctgn4gcs6h6m71vz0jeh92,3x3or7wpz3drzra2jck8ohpnack8lu,evOJKqAp,2020-0188,2020-11-19,21:16:05,21:47:11,NA,incomplete,149,color,1,right,Red_Star_Stripes_2.jpg,Blue_Triangle_Grid_2.jpg,Red_Circle_Chess_3.jpg,right,626.7550000920892,true,low,false
evOJKqAp,30oitawpctgn4gcs6h6m71vz0jeh92,3x3or7wpz3drzra2jck8ohpnack8lu,evOJKqAp,2020-0188,2020-11-19,21:16:05,21:47:11,NA,incomplete,150,color,0,left,Purple_Plus_Dots_1.jpg,Purple_Triangle_Stripes_2.jpg,Blue_Circle_Chess_1.jpg,left,663.0850001238286,true,low,false
evOJKqAp,30oitawpctgn4gcs6h6m71vz0jeh92,3x3or7wpz3drzra2jck8ohpnack8lu,evOJKqAp,2020-0188,2020-11-19,21:16:05,21:47:11,NA,incomplete,151,color,1,left,Blue_Triangle_Dots_4.jpg,Blue_Circle_Stripes_1.jpg,Purple_Plus_Chess_4.jpg,right,601.170000154525,false,low,false
evOJKqAp,30oitawpctgn4gcs6h6m71vz0jeh92,3x3or7wpz3drzra2jck8ohpnack8lu,evOJKqAp,2020-0188,2020-11-19,21:16:05,21:47:11,NA,incomplete,152,color,1,left,Blue_Star_Grid_2.jpg,Blue_Plus_Stripes_4.jpg,Purple_Circle_Chess_2.jpg,right,688.300000037998,false,low,false
evOJKqAp,30oitawpctgn4gcs6h6m71vz0jeh92,3x3or7wpz3drzra2jck8ohpnack8lu,evOJKqAp,2020-0188,2020-11-19,21:16:05,21:47:11,NA,incomplete,153,color,1,left,Purple_Star_Chess_2.jpg,Purple_Circle_Dots_4.jpg,Red_Plus_Stripes_2.jpg,right,591.8749999254942,false,low,false
evOJKqAp,30oitawpctgn4gcs6h6m71vz0jeh92,3x3or7wpz3drzra2jck8ohpnack8lu,evOJKqAp,2020-0188,2020-11-19,21:16:05,21:47:11,NA,incomplete,154,color,1,right,Blue_Plus_Chess_1.jpg,Purple_Star_Grid_1.jpg,Blue_Triangle_Stripes_3.jpg,right,1191.6799996979535,true,low,false
evOJKqAp,30oitawpctgn4gcs6h6m71vz0jeh92,3x3or7wpz3drzra2jck8ohpnack8lu,evOJKqAp,2020-0188,2020-11-19,21:16:05,21:47:11,NA,incomplete,155,color,1,right,Green_Triangle_Chess_4.jpg,Blue_Plus_Dots_4.jpg,Green_Star_Grid_1.jpg,right,1286.1000001430511,true,low,false
evOJKqAp,30oitawpctgn4gcs6h6m71vz0jeh92,3x3or7wpz3drzra2jck8ohpnack8lu,evOJKqAp,2020-0188,2020-11-19,21:16:05,21:47:11,NA,incomplete,156,color,1,right,Blue_Star_Grid_1.jpg,Purple_Circle_Stripes_1.jpg,Blue_Plus_Chess_3.jpg,right,596.3149997405708,true,low,false
evOJKqAp,30oitawpctgn4gcs6h6m71vz0jeh92,3x3or7wpz3drzra2jck8ohpnack8lu,evOJKqAp,2020-0188,2020-11-19,21:16:05,21:47:11,NA,incomplete,157,color,1,right,Blue_Plus_Grid_2.jpg,Red_Triangle_Stripes_2.jpg,Blue_Circle_Chess_4.jpg,right,608.3700000308454,true,low,false
evOJKqAp,30oitawpctgn4gcs6h6m71vz0jeh92,3x3or7wpz3drzra2jck8ohpnack8lu,evOJKqAp,2020-0188,2020-11-19,21:16:05,21:47:11,NA,incomplete,158,color,1,right,Red_Circle_Grid_1.jpg,Blue_Plus_Chess_1.jpg,Red_Star_Dots_2.jpg,right,563.2699998095632,true,low,false
evOJKqAp,30oitawpctgn4gcs6h6m71vz0jeh92,3x3or7wpz3drzra2jck8ohpnack8lu,evOJKqAp,2020-0188,2020-11-19,21:16:05,21:47:11,NA,incomplete,159,color,1,left,Red_Triangle_Dots_1.jpg,Red_Circle_Grid_2.jpg,Blue_Plus_Chess_1.jpg,left,554.1199999861419,true,low,false
evOJKqAp,30oitawpctgn4gcs6h6m71vz0jeh92,3x3or7wpz3drzra2jck8ohpnack8lu,evOJKqAp,2020-0188,2020-11-19,21:16:05,21:47:11,NA,incomplete,160,number,1,right,Purple_Triangle_Grid_4.jpg,Purple_Plus_Dots_3.jpg,Red_Circle_Chess_4.jpg,left,625.1599998213351,false,low,false
evOJKqAp,30oitawpctgn4gcs6h6m71vz0jeh92,3x3or7wpz3drzra2jck8ohpnack8lu,evOJKqAp,2020-0188,2020-11-19,21:16:05,21:47:11,NA,incomplete,161,number,1,right,Green_Circle_Chess_4.jpg,Green_Plus_Grid_3.jpg,Blue_Star_Dots_4.jpg,left,595.6000001169741,false,low,false
evOJKqAp,30oitawpctgn4gcs6h6m71vz0jeh92,3x3or7wpz3drzra2jck8ohpnack8lu,evOJKqAp,2020-0188,2020-11-19,21:16:05,21:47:11,NA,incomplete,162,number,0,right,Red_Plus_Chess_3.jpg,Red_Circle_Dots_2.jpg,Blue_Triangle_Stripes_3.jpg,right,874.5849998667836,true,low,false
evOJKqAp,30oitawpctgn4gcs6h6m71vz0jeh92,3x3or7wpz3drzra2jck8ohpnack8lu,evOJKqAp,2020-0188,2020-11-19,21:16:05,21:47:11,NA,incomplete,163,number,1,left,Red_Circle_Chess_1.jpg,Blue_Star_Grid_1.jpg,Red_Triangle_Dots_2.jpg,left,739.5700002089143,true,low,false
evOJKqAp,30oitawpctgn4gcs6h6m71vz0jeh92,3x3or7wpz3drzra2jck8ohpnack8lu,evOJKqAp,2020-0188,2020-11-19,21:16:05,21:47:11,NA,incomplete,164,number,1,right,Red_Circle_Dots_3.jpg,Red_Plus_Stripes_1.jpg,Green_Star_Chess_3.jpg,right,675.3500001505017,true,low,false
evOJKqAp,30oitawpctgn4gcs6h6m71vz0jeh92,3x3or7wpz3drzra2jck8ohpnack8lu,evOJKqAp,2020-0188,2020-11-19,21:16:05,21:47:11,NA,incomplete,165,number,1,right,Blue_Star_Dots_1.jpg,Blue_Circle_Chess_2.jpg,Red_Plus_Grid_1.jpg,right,641.7000000365078,true,low,false
evOJKqAp,30oitawpctgn4gcs6h6m71vz0jeh92,3x3or7wpz3drzra2jck8ohpnack8lu,evOJKqAp,2020-0188,2020-11-19,21:16:05,21:47:11,NA,incomplete,166,number,1,right,Blue_Plus_Dots_1.jpg,Blue_Triangle_Grid_2.jpg,Green_Star_Chess_1.jpg,right,677.1350000053644,true,low,false
evOJKqAp,30oitawpctgn4gcs6h6m71vz0jeh92,3x3or7wpz3drzra2jck8ohpnack8lu,evOJKqAp,2020-0188,2020-11-19,21:16:05,21:47:11,NA,incomplete,167,number,1,right,Red_Star_Dots_3.jpg,Red_Plus_Stripes_1.jpg,Blue_Circle_Grid_3.jpg,right,823.694999795407,true,low,false
evOJKqAp,30oitawpctgn4gcs6h6m71vz0jeh92,3x3or7wpz3drzra2jck8ohpnack8lu,evOJKqAp,2020-0188,2020-11-19,21:16:05,21:47:11,NA,incomplete,168,number,0,left,Green_Triangle_Grid_4.jpg,Purple_Plus_Stripes_4.jpg,Green_Circle_Dots_3.jpg,left,691.7400001548231,true,low,false
evOJKqAp,30oitawpctgn4gcs6h6m71vz0jeh92,3x3or7wpz3drzra2jck8ohpnack8lu,evOJKqAp,2020-0188,2020-11-19,21:16:05,21:47:11,NA,incomplete,169,number,1,right,Green_Plus_Chess_4.jpg,Green_Circle_Grid_1.jpg,Blue_Triangle_Dots_4.jpg,right,754.9199997447431,true,low,false
evOJKqAp,30oitawpctgn4gcs6h6m71vz0jeh92,3x3or7wpz3drzra2jck8ohpnack8lu,evOJKqAp,2020-0188,2020-11-19,21:16:05,21:47:11,NA,incomplete,170,number,0,right,Blue_Circle_Grid_2.jpg,Blue_Triangle_Chess_4.jpg,Green_Plus_Dots_2.jpg,right,723.0150001123548,true,low,false
evOJKqAp,30oitawpctgn4gcs6h6m71vz0jeh92,3x3or7wpz3drzra2jck8ohpnack8lu,evOJKqAp,2020-0188,2020-11-19,21:16:05,21:47:11,NA,incomplete,171,number,1,left,Green_Star_Grid_4.jpg,Purple_Circle_Chess_4.jpg,Green_Triangle_Dots_1.jpg,left,671.2499996647239,true,low,false
evOJKqAp,30oitawpctgn4gcs6h6m71vz0jeh92,3x3or7wpz3drzra2jck8ohpnack8lu,evOJKqAp,2020-0188,2020-11-19,21:16:05,21:47:11,NA,incomplete,172,number,0,right,Red_Plus_Dots_3.jpg,Red_Star_Chess_4.jpg,Purple_Triangle_Stripes_3.jpg,right,726.0799999348819,true,low,false
evOJKqAp,30oitawpctgn4gcs6h6m71vz0jeh92,3x3or7wpz3drzra2jck8ohpnack8lu,evOJKqAp,2020-0188,2020-11-19,21:16:05,21:47:11,NA,incomplete,173,number,1,left,Purple_Triangle_Chess_3.jpg,Blue_Plus_Dots_3.jpg,Purple_Star_Grid_1.jpg,right,1180.2250002510846,false,low,false
evOJKqAp,30oitawpctgn4gcs6h6m71vz0jeh92,3x3or7wpz3drzra2jck8ohpnack8lu,evOJKqAp,2020-0188,2020-11-19,21:16:05,21:47:11,NA,incomplete,174,number,1,left,Green_Triangle_Chess_2.jpg,Purple_Circle_Stripes_2.jpg,Green_Star_Dots_1.jpg,right,752.3349998518825,false,low,false
evOJKqAp,30oitawpctgn4gcs6h6m71vz0jeh92,3x3or7wpz3drzra2jck8ohpnack8lu,evOJKqAp,2020-0188,2020-11-19,21:16:05,21:47:11,NA,incomplete,175,number,1,left,Green_Plus_Dots_2.jpg,Red_Circle_Grid_2.jpg,Green_Triangle_Stripes_4.jpg,left,1167.4550003372133,true,low,false
evOJKqAp,30oitawpctgn4gcs6h6m71vz0jeh92,3x3or7wpz3drzra2jck8ohpnack8lu,evOJKqAp,2020-0188,2020-11-19,21:16:05,21:47:11,NA,incomplete,176,number,1,left,Green_Circle_Stripes_4.jpg,Red_Plus_Dots_4.jpg,Green_Triangle_Grid_3.jpg,left,651.5599996782839,true,low,false
evOJKqAp,30oitawpctgn4gcs6h6m71vz0jeh92,3x3or7wpz3drzra2jck8ohpnack8lu,evOJKqAp,2020-0188,2020-11-19,21:16:05,21:47:11,NA,incomplete,177,number,1,left,Purple_Triangle_Dots_3.jpg,Red_Plus_Grid_3.jpg,Purple_Circle_Chess_4.jpg,left,939.4350000657141,true,low,false
evOJKqAp,30oitawpctgn4gcs6h6m71vz0jeh92,3x3or7wpz3drzra2jck8ohpnack8lu,evOJKqAp,2020-0188,2020-11-19,21:16:05,21:47:11,NA,incomplete,178,number,1,left,Green_Circle_Dots_3.jpg,Blue_Triangle_Chess_3.jpg,Green_Plus_Stripes_2.jpg,left,837.8099999390543,true,low,false
evOJKqAp,30oitawpctgn4gcs6h6m71vz0jeh92,3x3or7wpz3drzra2jck8ohpnack8lu,evOJKqAp,2020-0188,2020-11-19,21:16:05,21:47:11,NA,incomplete,179,number,1,left,Red_Circle_Stripes_4.jpg,Blue_Triangle_Dots_4.jpg,Red_Plus_Grid_2.jpg,left,687.1450003236532,true,low,false
evOJKqAp,30oitawpctgn4gcs6h6m71vz0jeh92,3x3or7wpz3drzra2jck8ohpnack8lu,evOJKqAp,2020-0188,2020-11-19,21:16:05,21:47:11,NA,incomplete,180,color,1,right,Red_Star_Grid_4.jpg,Blue_Plus_Dots_4.jpg,Red_Triangle_Chess_1.jpg,left,570.9250001236796,false,low,false
evOJKqAp,30oitawpctgn4gcs6h6m71vz0jeh92,3x3or7wpz3drzra2jck8ohpnack8lu,evOJKqAp,2020-0188,2020-11-19,21:16:05,21:47:11,NA,incomplete,181,color,1,left,Green_Circle_Chess_3.jpg,Green_Star_Dots_4.jpg,Blue_Plus_Stripes_3.jpg,right,727.5700001046062,false,low,false
evOJKqAp,30oitawpctgn4gcs6h6m71vz0jeh92,3x3or7wpz3drzra2jck8ohpnack8lu,evOJKqAp,2020-0188,2020-11-19,21:16:05,21:47:11,NA,incomplete,182,color,1,left,Purple_Triangle_Dots_4.jpg,Purple_Star_Stripes_1.jpg,Green_Plus_Grid_4.jpg,right,583.684999961406,false,low,false
evOJKqAp,30oitawpctgn4gcs6h6m71vz0jeh92,3x3or7wpz3drzra2jck8ohpnack8lu,evOJKqAp,2020-0188,2020-11-19,21:16:05,21:47:11,NA,incomplete,183,color,1,left,Green_Triangle_Chess_1.jpg,Green_Circle_Stripes_4.jpg,Red_Star_Dots_1.jpg,right,655.5200000293553,false,low,false
evOJKqAp,30oitawpctgn4gcs6h6m71vz0jeh92,3x3or7wpz3drzra2jck8ohpnack8lu,evOJKqAp,2020-0188,2020-11-19,21:16:05,21:47:11,NA,incomplete,184,color,1,right,Blue_Triangle_Grid_4.jpg,Green_Circle_Chess_4.jpg,Blue_Plus_Dots_2.jpg,right,815.5949995853007,true,low,false
evOJKqAp,30oitawpctgn4gcs6h6m71vz0jeh92,3x3or7wpz3drzra2jck8ohpnack8lu,evOJKqAp,2020-0188,2020-11-19,21:16:05,21:47:11,NA,incomplete,185,color,0,right,Green_Plus_Dots_3.jpg,Blue_Circle_Stripes_3.jpg,Green_Triangle_Grid_4.jpg,right,589.3850000575185,true,low,false
evOJKqAp,30oitawpctgn4gcs6h6m71vz0jeh92,3x3or7wpz3drzra2jck8ohpnack8lu,evOJKqAp,2020-0188,2020-11-19,21:16:05,21:47:11,NA,incomplete,186,color,1,right,Red_Circle_Stripes_2.jpg,Green_Triangle_Chess_2.jpg,Red_Plus_Grid_1.jpg,right,722.9049997404218,true,low,false
evOJKqAp,30oitawpctgn4gcs6h6m71vz0jeh92,3x3or7wpz3drzra2jck8ohpnack8lu,evOJKqAp,2020-0188,2020-11-19,21:16:05,21:47:11,NA,incomplete,187,color,0,left,Red_Triangle_Chess_3.jpg,Red_Plus_Dots_4.jpg,Blue_Circle_Grid_3.jpg,left,786.5900001488626,true,low,false
evOJKqAp,30oitawpctgn4gcs6h6m71vz0jeh92,3x3or7wpz3drzra2jck8ohpnack8lu,evOJKqAp,2020-0188,2020-11-19,21:16:05,21:47:11,NA,incomplete,188,color,1,left,Red_Circle_Stripes_1.jpg,Red_Plus_Chess_4.jpg,Green_Star_Dots_1.jpg,right,1071.7500001192093,false,low,false
evOJKqAp,30oitawpctgn4gcs6h6m71vz0jeh92,3x3or7wpz3drzra2jck8ohpnack8lu,evOJKqAp,2020-0188,2020-11-19,21:16:05,21:47:11,NA,incomplete,189,color,0,left,Blue_Triangle_Stripes_2.jpg,Blue_Circle_Chess_3.jpg,Red_Plus_Dots_2.jpg,left,768.2250002399087,true,low,false
evOJKqAp,30oitawpctgn4gcs6h6m71vz0jeh92,3x3or7wpz3drzra2jck8ohpnack8lu,evOJKqAp,2020-0188,2020-11-19,21:16:05,21:47:11,NA,incomplete,190,color,1,right,Green_Plus_Stripes_2.jpg,Blue_Triangle_Dots_2.jpg,Green_Circle_Grid_3.jpg,right,710.1199999451637,true,low,false
evOJKqAp,30oitawpctgn4gcs6h6m71vz0jeh92,3x3or7wpz3drzra2jck8ohpnack8lu,evOJKqAp,2020-0188,2020-11-19,21:16:05,21:47:11,NA,incomplete,191,color,1,left,Red_Plus_Grid_3.jpg,Red_Star_Stripes_1.jpg,Blue_Circle_Dots_3.jpg,left,1166.3299999199808,true,low,false
evOJKqAp,30oitawpctgn4gcs6h6m71vz0jeh92,3x3or7wpz3drzra2jck8ohpnack8lu,evOJKqAp,2020-0188,2020-11-19,21:16:05,21:47:11,NA,incomplete,192,color,1,left,Green_Star_Stripes_2.jpg,Green_Triangle_Dots_1.jpg,Red_Circle_Grid_2.jpg,left,580.6550001725554,true,low,false
evOJKqAp,30oitawpctgn4gcs6h6m71vz0jeh92,3x3or7wpz3drzra2jck8ohpnack8lu,evOJKqAp,2020-0188,2020-11-19,21:16:05,21:47:11,NA,incomplete,193,color,1,left,Green_Plus_Chess_1.jpg,Green_Star_Grid_4.jpg,Red_Triangle_Stripes_1.jpg,left,1406.3400002196431,true,low,false
evOJKqAp,30oitawpctgn4gcs6h6m71vz0jeh92,3x3or7wpz3drzra2jck8ohpnack8lu,evOJKqAp,2020-0188,2020-11-19,21:16:05,21:47:11,NA,incomplete,194,color,1,left,Red_Triangle_Chess_4.jpg,Red_Plus_Stripes_1.jpg,Purple_Star_Grid_4.jpg,left,738.3950003422797,true,low,false
evOJKqAp,30oitawpctgn4gcs6h6m71vz0jeh92,3x3or7wpz3drzra2jck8ohpnack8lu,evOJKqAp,2020-0188,2020-11-19,21:16:05,21:47:11,NA,incomplete,195,color,1,left,Green_Star_Dots_1.jpg,Green_Triangle_Stripes_2.jpg,Red_Circle_Chess_1.jpg,left,1201.5800001099706,true,low,false
evOJKqAp,30oitawpctgn4gcs6h6m71vz0jeh92,3x3or7wpz3drzra2jck8ohpnack8lu,evOJKqAp,2020-0188,2020-11-19,21:16:05,21:47:11,NA,incomplete,196,color,0,left,Blue_Triangle_Stripes_4.jpg,Blue_Plus_Grid_3.jpg,Green_Star_Dots_4.jpg,left,697.8400000371039,true,low,false
evOJKqAp,30oitawpctgn4gcs6h6m71vz0jeh92,3x3or7wpz3drzra2jck8ohpnack8lu,evOJKqAp,2020-0188,2020-11-19,21:16:05,21:47:11,NA,incomplete,197,color,1,left,Green_Plus_Grid_4.jpg,Green_Star_Stripes_3.jpg,Red_Triangle_Dots_4.jpg,left,907.8349997289479,true,low,false
evOJKqAp,30oitawpctgn4gcs6h6m71vz0jeh92,3x3or7wpz3drzra2jck8ohpnack8lu,evOJKqAp,2020-0188,2020-11-19,21:16:05,21:47:11,NA,incomplete,198,color,0,left,Green_Plus_Stripes_2.jpg,Green_Star_Chess_4.jpg,Red_Circle_Dots_2.jpg,left,1072.0249996520579,true,low,false
evOJKqAp,30oitawpctgn4gcs6h6m71vz0jeh92,3x3or7wpz3drzra2jck8ohpnack8lu,evOJKqAp,2020-0188,2020-11-19,21:16:05,21:47:11,NA,incomplete,199,color,1,right,Green_Star_Grid_3.jpg,Purple_Circle_Chess_3.jpg,Green_Plus_Stripes_2.jpg,right,692.1299998648465,true,low,false
evOJKqAp,30oitawpctgn4gcs6h6m71vz0jeh92,3x3or7wpz3drzra2jck8ohpnack8lu,evOJKqAp,2020-0188,2020-11-19,21:16:05,21:47:11,NA,incomplete,200,number,0,right,Blue_Star_Chess_3.jpg,Blue_Plus_Grid_1.jpg,Red_Circle_Stripes_3.jpg,left,563.4099999442697,false,low,false
evOJKqAp,30oitawpctgn4gcs6h6m71vz0jeh92,3x3or7wpz3drzra2jck8ohpnack8lu,evOJKqAp,2020-0188,2020-11-19,21:16:05,21:47:11,NA,incomplete,201,number,1,left,Purple_Circle_Dots_4.jpg,Blue_Plus_Chess_4.jpg,Purple_Triangle_Grid_3.jpg,right,844.6100000292063,false,low,false
evOJKqAp,30oitawpctgn4gcs6h6m71vz0jeh92,3x3or7wpz3drzra2jck8ohpnack8lu,evOJKqAp,2020-0188,2020-11-19,21:16:05,21:47:11,NA,incomplete,202,number,1,right,Blue_Plus_Chess_2.jpg,Blue_Star_Dots_1.jpg,Green_Circle_Stripes_2.jpg,left,569.385000038892,false,low,false
evOJKqAp,30oitawpctgn4gcs6h6m71vz0jeh92,3x3or7wpz3drzra2jck8ohpnack8lu,evOJKqAp,2020-0188,2020-11-19,21:16:05,21:47:11,NA,incomplete,203,number,1,left,Red_Triangle_Stripes_2.jpg,Purple_Plus_Grid_2.jpg,Red_Star_Dots_3.jpg,right,655.3850001655519,false,low,false
evOJKqAp,30oitawpctgn4gcs6h6m71vz0jeh92,3x3or7wpz3drzra2jck8ohpnack8lu,evOJKqAp,2020-0188,2020-11-19,21:16:05,21:47:11,NA,incomplete,204,number,1,left,Green_Triangle_Grid_2.jpg,Red_Plus_Stripes_2.jpg,Green_Circle_Chess_3.jpg,right,1343.6300000175834,false,low,false
evOJKqAp,30oitawpctgn4gcs6h6m71vz0jeh92,3x3or7wpz3drzra2jck8ohpnack8lu,evOJKqAp,2020-0188,2020-11-19,21:16:05,21:47:11,NA,incomplete,205,number,1,left,Blue_Triangle_Stripes_1.jpg,Green_Circle_Chess_1.jpg,Blue_Star_Grid_3.jpg,left,997.8000000119209,true,low,false
evOJKqAp,30oitawpctgn4gcs6h6m71vz0jeh92,3x3or7wpz3drzra2jck8ohpnack8lu,evOJKqAp,2020-0188,2020-11-19,21:16:05,21:47:11,NA,incomplete,206,number,0,left,Red_Plus_Dots_1.jpg,Blue_Circle_Stripes_1.jpg,Red_Star_Grid_3.jpg,left,794.919999781996,true,low,false
evOJKqAp,30oitawpctgn4gcs6h6m71vz0jeh92,3x3or7wpz3drzra2jck8ohpnack8lu,evOJKqAp,2020-0188,2020-11-19,21:16:05,21:47:11,NA,incomplete,207,number,1,left,Purple_Star_Grid_2.jpg,Red_Plus_Dots_2.jpg,Purple_Circle_Chess_3.jpg,left,886.6799999959767,true,low,false
evOJKqAp,30oitawpctgn4gcs6h6m71vz0jeh92,3x3or7wpz3drzra2jck8ohpnack8lu,evOJKqAp,2020-0188,2020-11-19,21:16:05,21:47:11,NA,incomplete,208,number,0,right,Red_Star_Dots_4.jpg,Red_Circle_Grid_2.jpg,Purple_Triangle_Stripes_4.jpg,right,651.9899996928871,true,low,false
evOJKqAp,30oitawpctgn4gcs6h6m71vz0jeh92,3x3or7wpz3drzra2jck8ohpnack8lu,evOJKqAp,2020-0188,2020-11-19,21:16:05,21:47:11,NA,incomplete,209,number,1,left,Blue_Triangle_Dots_4.jpg,Purple_Plus_Stripes_4.jpg,Blue_Star_Chess_1.jpg,left,785.204999614507,true,low,false
evOJKqAp,30oitawpctgn4gcs6h6m71vz0jeh92,3x3or7wpz3drzra2jck8ohpnack8lu,evOJKqAp,2020-0188,2020-11-19,21:16:05,21:47:11,NA,incomplete,210,number,1,left,Red_Circle_Dots_3.jpg,Blue_Plus_Grid_3.jpg,Red_Triangle_Stripes_1.jpg,left,734.4049997627735,true,low,false
evOJKqAp,30oitawpctgn4gcs6h6m71vz0jeh92,3x3or7wpz3drzra2jck8ohpnack8lu,evOJKqAp,2020-0188,2020-11-19,21:16:05,21:47:11,NA,incomplete,211,number,1,right,Red_Star_Grid_4.jpg,Red_Circle_Dots_3.jpg,Blue_Plus_Chess_4.jpg,right,591.9550000689924,true,low,false
evOJKqAp,30oitawpctgn4gcs6h6m71vz0jeh92,3x3or7wpz3drzra2jck8ohpnack8lu,evOJKqAp,2020-0188,2020-11-19,21:16:05,21:47:11,NA,incomplete,212,number,0,left,Red_Circle_Grid_1.jpg,Blue_Plus_Stripes_1.jpg,Red_Triangle_Dots_2.jpg,left,836.244999896735,true,low,false
evOJKqAp,30oitawpctgn4gcs6h6m71vz0jeh92,3x3or7wpz3drzra2jck8ohpnack8lu,evOJKqAp,2020-0188,2020-11-19,21:16:05,21:47:11,NA,incomplete,213,number,1,left,Red_Star_Grid_2.jpg,Green_Circle_Chess_2.jpg,Red_Triangle_Stripes_1.jpg,left,655.5699999444187,true,low,false
evOJKqAp,30oitawpctgn4gcs6h6m71vz0jeh92,3x3or7wpz3drzra2jck8ohpnack8lu,evOJKqAp,2020-0188,2020-11-19,21:16:05,21:47:11,NA,incomplete,214,number,1,left,Blue_Star_Chess_4.jpg,Red_Circle_Stripes_4.jpg,Blue_Plus_Grid_3.jpg,left,641.229999717325,true,low,false
evOJKqAp,30oitawpctgn4gcs6h6m71vz0jeh92,3x3or7wpz3drzra2jck8ohpnack8lu,evOJKqAp,2020-0188,2020-11-19,21:16:05,21:47:11,NA,incomplete,215,number,1,right,Blue_Star_Grid_1.jpg,Blue_Circle_Dots_3.jpg,Red_Triangle_Stripes_1.jpg,right,770.7650000229478,true,low,false
evOJKqAp,30oitawpctgn4gcs6h6m71vz0jeh92,3x3or7wpz3drzra2jck8ohpnack8lu,evOJKqAp,2020-0188,2020-11-19,21:16:05,21:47:11,NA,incomplete,216,number,0,left,Red_Star_Chess_1.jpg,Purple_Plus_Grid_1.jpg,Red_Circle_Stripes_3.jpg,left,578.0950002372265,true,low,false
evOJKqAp,30oitawpctgn4gcs6h6m71vz0jeh92,3x3or7wpz3drzra2jck8ohpnack8lu,evOJKqAp,2020-0188,2020-11-19,21:16:05,21:47:11,NA,incomplete,217,number,1,right,Green_Triangle_Chess_3.jpg,Green_Star_Grid_1.jpg,Blue_Plus_Dots_3.jpg,right,664.470000192523,true,low,false
evOJKqAp,30oitawpctgn4gcs6h6m71vz0jeh92,3x3or7wpz3drzra2jck8ohpnack8lu,evOJKqAp,2020-0188,2020-11-19,21:16:05,21:47:11,NA,incomplete,218,number,1,left,Purple_Plus_Dots_2.jpg,Red_Circle_Stripes_2.jpg,Purple_Star_Grid_4.jpg,left,795.4349997453392,true,low,false
evOJKqAp,30oitawpctgn4gcs6h6m71vz0jeh92,3x3or7wpz3drzra2jck8ohpnack8lu,evOJKqAp,2020-0188,2020-11-19,21:16:05,21:47:11,NA,incomplete,219,number,1,left,Red_Triangle_Dots_4.jpg,Blue_Star_Chess_4.jpg,Red_Circle_Grid_1.jpg,left,631.885000038892,true,low,false
evOJKqAp,30oitawpctgn4gcs6h6m71vz0jeh92,3x3or7wpz3drzra2jck8ohpnack8lu,evOJKqAp,2020-0188,2020-11-19,21:16:05,21:47:11,NA,incomplete,220,color,1,right,Green_Plus_Dots_1.jpg,Red_Circle_Grid_1.jpg,Green_Triangle_Chess_2.jpg,left,603.4550000913441,false,low,false
evOJKqAp,30oitawpctgn4gcs6h6m71vz0jeh92,3x3or7wpz3drzra2jck8ohpnack8lu,evOJKqAp,2020-0188,2020-11-19,21:16:05,21:47:11,NA,incomplete,221,color,1,right,Green_Circle_Dots_4.jpg,Red_Plus_Grid_4.jpg,Green_Triangle_Stripes_1.jpg,left,608.2550003193319,false,low,false
evOJKqAp,30oitawpctgn4gcs6h6m71vz0jeh92,3x3or7wpz3drzra2jck8ohpnack8lu,evOJKqAp,2020-0188,2020-11-19,21:16:05,21:47:11,NA,incomplete,222,color,1,right,Purple_Circle_Chess_1.jpg,Green_Star_Dots_1.jpg,Purple_Plus_Stripes_3.jpg,left,612.8750001080334,false,low,false
evOJKqAp,30oitawpctgn4gcs6h6m71vz0jeh92,3x3or7wpz3drzra2jck8ohpnack8lu,evOJKqAp,2020-0188,2020-11-19,21:16:05,21:47:11,NA,incomplete,223,color,1,left,Red_Plus_Dots_2.jpg,Red_Circle_Grid_4.jpg,Blue_Star_Stripes_2.jpg,right,924.3799997493625,false,low,false
evOJKqAp,30oitawpctgn4gcs6h6m71vz0jeh92,3x3or7wpz3drzra2jck8ohpnack8lu,evOJKqAp,2020-0188,2020-11-19,21:16:05,21:47:11,NA,incomplete,224,color,1,left,Blue_Plus_Dots_1.jpg,Blue_Star_Stripes_3.jpg,Red_Circle_Chess_1.jpg,left,605.3450000472367,true,low,false
evOJKqAp,30oitawpctgn4gcs6h6m71vz0jeh92,3x3or7wpz3drzra2jck8ohpnack8lu,evOJKqAp,2020-0188,2020-11-19,21:16:05,21:47:11,NA,incomplete,225,color,1,left,Green_Star_Stripes_3.jpg,Green_Triangle_Dots_1.jpg,Purple_Circle_Chess_3.jpg,left,691.7150001972914,true,low,false
evOJKqAp,30oitawpctgn4gcs6h6m71vz0jeh92,3x3or7wpz3drzra2jck8ohpnack8lu,evOJKqAp,2020-0188,2020-11-19,21:16:05,21:47:11,NA,incomplete,226,color,0,right,Green_Plus_Stripes_1.jpg,Purple_Star_Chess_1.jpg,Green_Circle_Dots_2.jpg,right,662.8399998880923,true,low,false
evOJKqAp,30oitawpctgn4gcs6h6m71vz0jeh92,3x3or7wpz3drzra2jck8ohpnack8lu,evOJKqAp,2020-0188,2020-11-19,21:16:05,21:47:11,NA,incomplete,227,color,1,left,Purple_Triangle_Chess_4.jpg,Purple_Star_Stripes_1.jpg,Red_Plus_Grid_4.jpg,left,680.8600001968443,true,low,false
evOJKqAp,30oitawpctgn4gcs6h6m71vz0jeh92,3x3or7wpz3drzra2jck8ohpnack8lu,evOJKqAp,2020-0188,2020-11-19,21:16:05,21:47:11,NA,incomplete,228,color,1,right,Blue_Plus_Dots_2.jpg,Red_Triangle_Grid_2.jpg,Blue_Circle_Chess_4.jpg,right,826.3199999928474,true,low,false
evOJKqAp,30oitawpctgn4gcs6h6m71vz0jeh92,3x3or7wpz3drzra2jck8ohpnack8lu,evOJKqAp,2020-0188,2020-11-19,21:16:05,21:47:11,NA,incomplete,229,color,1,left,Purple_Plus_Stripes_3.jpg,Purple_Circle_Chess_1.jpg,Blue_Star_Grid_3.jpg,left,609.5500001683831,true,low,false
evOJKqAp,30oitawpctgn4gcs6h6m71vz0jeh92,3x3or7wpz3drzra2jck8ohpnack8lu,evOJKqAp,2020-0188,2020-11-19,21:16:05,21:47:11,NA,incomplete,230,color,1,left,Green_Plus_Dots_1.jpg,Green_Circle_Stripes_3.jpg,Purple_Star_Grid_1.jpg,left,729.5249998569489,true,low,false
evOJKqAp,30oitawpctgn4gcs6h6m71vz0jeh92,3x3or7wpz3drzra2jck8ohpnack8lu,evOJKqAp,2020-0188,2020-11-19,21:16:05,21:47:11,NA,incomplete,231,color,1,right,Red_Circle_Stripes_2.jpg,Blue_Star_Chess_2.jpg,Red_Plus_Grid_1.jpg,right,568.3199996128678,true,low,false
evOJKqAp,30oitawpctgn4gcs6h6m71vz0jeh92,3x3or7wpz3drzra2jck8ohpnack8lu,evOJKqAp,2020-0188,2020-11-19,21:16:05,21:47:11,NA,incomplete,232,color,0,left,Blue_Star_Grid_1.jpg,Blue_Triangle_Stripes_3.jpg,Green_Plus_Chess_1.jpg,left,511.75000006332994,true,low,false
evOJKqAp,30oitawpctgn4gcs6h6m71vz0jeh92,3x3or7wpz3drzra2jck8ohpnack8lu,evOJKqAp,2020-0188,2020-11-19,21:16:05,21:47:11,NA,incomplete,233,color,1,right,Red_Plus_Grid_2.jpg,Blue_Triangle_Dots_2.jpg,Red_Star_Chess_1.jpg,right,568.7199998646975,true,low,false
evOJKqAp,30oitawpctgn4gcs6h6m71vz0jeh92,3x3or7wpz3drzra2jck8ohpnack8lu,evOJKqAp,2020-0188,2020-11-19,21:16:05,21:47:11,NA,incomplete,234,color,1,right,Green_Triangle_Stripes_2.jpg,Blue_Star_Grid_2.jpg,Green_Plus_Chess_1.jpg,right,669.1700001247227,true,low,false
evOJKqAp,30oitawpctgn4gcs6h6m71vz0jeh92,3x3or7wpz3drzra2jck8ohpnack8lu,evOJKqAp,2020-0188,2020-11-19,21:16:05,21:47:11,NA,incomplete,235,color,1,left,Blue_Star_Grid_1.jpg,Blue_Triangle_Dots_2.jpg,Red_Plus_Chess_1.jpg,left,1182.920000050217,true,low,false
evOJKqAp,30oitawpctgn4gcs6h6m71vz0jeh92,3x3or7wpz3drzra2jck8ohpnack8lu,evOJKqAp,2020-0188,2020-11-19,21:16:05,21:47:11,NA,incomplete,236,color,1,left,Green_Triangle_Stripes_1.jpg,Green_Circle_Chess_4.jpg,Blue_Star_Grid_1.jpg,left,621.5249998494983,true,low,false
evOJKqAp,30oitawpctgn4gcs6h6m71vz0jeh92,3x3or7wpz3drzra2jck8ohpnack8lu,evOJKqAp,2020-0188,2020-11-19,21:16:05,21:47:11,NA,incomplete,237,color,1,right,Red_Plus_Stripes_3.jpg,Purple_Star_Chess_3.jpg,Red_Triangle_Grid_1.jpg,right,914.0400001779199,true,low,false
evOJKqAp,30oitawpctgn4gcs6h6m71vz0jeh92,3x3or7wpz3drzra2jck8ohpnack8lu,evOJKqAp,2020-0188,2020-11-19,21:16:05,21:47:11,NA,incomplete,238,color,1,right,Red_Triangle_Stripes_3.jpg,Blue_Star_Chess_3.jpg,Red_Circle_Dots_2.jpg,right,872.1700003370643,true,low,false
evOJKqAp,30oitawpctgn4gcs6h6m71vz0jeh92,3x3or7wpz3drzra2jck8ohpnack8lu,evOJKqAp,2020-0188,2020-11-19,21:16:05,21:47:11,NA,incomplete,239,color,1,right,Red_Star_Dots_1.jpg,Purple_Circle_Chess_1.jpg,Red_Plus_Grid_4.jpg,right,590.7200002111495,true,low,false
evOJKqAp,30oitawpctgn4gcs6h6m71vz0jeh92,3x3or7wpz3drzra2jck8ohpnack8lu,evOJKqAp,2020-0188,2020-11-19,21:16:05,21:47:11,1844404.9400002696,1867497.5950000808,NA,NA,NA,NA,NA,NA,NA,NA,NA,NA,NA,undefined
