workerId,hitId,assignmentId,subject,studyid,exp_date,exp_start,exp_end,time_start,time_end,trial,type,reward_validity,answer,image_top,image_left,image_right,response,response_time,response_acc,volatility,practice
kW8oNHLG,3ygyp13654mlicup3w1l36spsdqnrt,3xc1o3lbowzaxb2qmav3fdlant2tl8,kW8oNHLG,2020-0188,2020-11-15,08:19:15,08:41:02,NA,incomplete,0,shape,1,left,Purple_Circle_Dots_2.jpg,Red_Circle_Stripes_1.jpg,Green_Triangle_Chess_2.jpg,left,966.8899999960558,true,NA,true
kW8oNHLG,3ygyp13654mlicup3w1l36spsdqnrt,3xc1o3lbowzaxb2qmav3fdlant2tl8,kW8oNHLG,2020-0188,2020-11-15,08:19:15,08:41:02,NA,incomplete,1,shape,1,right,Green_Circle_Dots_4.jpg,Blue_Plus_Chess_4.jpg,Red_Circle_Grid_1.jpg,right,694.6000000025379,true,NA,true
kW8oNHLG,3ygyp13654mlicup3w1l36spsdqnrt,3xc1o3lbowzaxb2qmav3fdlant2tl8,kW8oNHLG,2020-0188,2020-11-15,08:19:15,08:41:02,NA,incomplete,2,shape,0,left,Purple_Plus_Grid_3.jpg,Red_Plus_Stripes_4.jpg,Blue_Circle_Chess_3.jpg,left,1206.7049999895971,true,NA,true
kW8oNHLG,3ygyp13654mlicup3w1l36spsdqnrt,3xc1o3lbowzaxb2qmav3fdlant2tl8,kW8oNHLG,2020-0188,2020-11-15,08:19:15,08:41:02,NA,incomplete,3,shape,1,left,Green_Circle_Chess_4.jpg,Blue_Circle_Dots_1.jpg,Red_Star_Grid_4.jpg,left,902.2449999902165,true,NA,true
kW8oNHLG,3ygyp13654mlicup3w1l36spsdqnrt,3xc1o3lbowzaxb2qmav3fdlant2tl8,kW8oNHLG,2020-0188,2020-11-15,08:19:15,08:41:02,NA,incomplete,4,shape,1,right,Purple_Star_Grid_1.jpg,Blue_Circle_Dots_1.jpg,Green_Star_Chess_2.jpg,right,1295.1299999986077,true,NA,true
kW8oNHLG,3ygyp13654mlicup3w1l36spsdqnrt,3xc1o3lbowzaxb2qmav3fdlant2tl8,kW8oNHLG,2020-0188,2020-11-15,08:19:15,08:41:02,NA,incomplete,5,shape,1,right,Red_Star_Dots_3.jpg,Green_Triangle_Stripes_3.jpg,Blue_Star_Chess_4.jpg,none,0,false,NA,true
kW8oNHLG,3ygyp13654mlicup3w1l36spsdqnrt,3xc1o3lbowzaxb2qmav3fdlant2tl8,kW8oNHLG,2020-0188,2020-11-15,08:19:15,08:41:02,NA,incomplete,6,shape,1,left,Blue_Star_Stripes_4.jpg,Purple_Star_Chess_1.jpg,Green_Circle_Grid_4.jpg,left,1148.990000001504,true,NA,true
kW8oNHLG,3ygyp13654mlicup3w1l36spsdqnrt,3xc1o3lbowzaxb2qmav3fdlant2tl8,kW8oNHLG,2020-0188,2020-11-15,08:19:15,08:41:02,NA,incomplete,7,shape,1,left,Purple_Circle_Grid_2.jpg,Red_Circle_Chess_3.jpg,Blue_Plus_Stripes_2.jpg,left,734.7049999953015,true,NA,true
kW8oNHLG,3ygyp13654mlicup3w1l36spsdqnrt,3xc1o3lbowzaxb2qmav3fdlant2tl8,kW8oNHLG,2020-0188,2020-11-15,08:19:15,08:41:02,NA,incomplete,8,shape,0,right,Blue_Circle_Chess_4.jpg,Red_Triangle_Grid_4.jpg,Green_Circle_Dots_1.jpg,right,1122.4099999963073,true,NA,true
kW8oNHLG,3ygyp13654mlicup3w1l36spsdqnrt,3xc1o3lbowzaxb2qmav3fdlant2tl8,kW8oNHLG,2020-0188,2020-11-15,08:19:15,08:41:02,NA,incomplete,9,shape,1,right,Red_Circle_Chess_3.jpg,Green_Star_Dots_3.jpg,Purple_Circle_Stripes_4.jpg,right,904.0250000107335,true,NA,true
kW8oNHLG,3ygyp13654mlicup3w1l36spsdqnrt,3xc1o3lbowzaxb2qmav3fdlant2tl8,kW8oNHLG,2020-0188,2020-11-15,08:19:15,08:41:02,NA,incomplete,10,shape,1,right,Purple_Triangle_Dots_3.jpg,Red_Plus_Stripes_3.jpg,Blue_Triangle_Chess_1.jpg,right,824.2900000041118,true,NA,true
kW8oNHLG,3ygyp13654mlicup3w1l36spsdqnrt,3xc1o3lbowzaxb2qmav3fdlant2tl8,kW8oNHLG,2020-0188,2020-11-15,08:19:15,08:41:02,NA,incomplete,11,shape,1,right,Red_Circle_Grid_3.jpg,Blue_Plus_Dots_3.jpg,Green_Circle_Stripes_1.jpg,right,891.0500000056345,true,NA,true
kW8oNHLG,3ygyp13654mlicup3w1l36spsdqnrt,3xc1o3lbowzaxb2qmav3fdlant2tl8,kW8oNHLG,2020-0188,2020-11-15,08:19:15,08:41:02,NA,incomplete,12,shape,0,right,Green_Triangle_Dots_1.jpg,Purple_Plus_Stripes_1.jpg,Blue_Triangle_Chess_2.jpg,right,994.8750000039581,true,NA,true
kW8oNHLG,3ygyp13654mlicup3w1l36spsdqnrt,3xc1o3lbowzaxb2qmav3fdlant2tl8,kW8oNHLG,2020-0188,2020-11-15,08:19:15,08:41:02,NA,incomplete,13,shape,1,left,Purple_Star_Dots_3.jpg,Blue_Star_Stripes_1.jpg,Red_Plus_Grid_3.jpg,left,1233.3650000073249,true,NA,true
kW8oNHLG,3ygyp13654mlicup3w1l36spsdqnrt,3xc1o3lbowzaxb2qmav3fdlant2tl8,kW8oNHLG,2020-0188,2020-11-15,08:19:15,08:41:02,NA,incomplete,14,shape,1,left,Green_Plus_Chess_4.jpg,Red_Plus_Stripes_1.jpg,Blue_Star_Dots_4.jpg,left,1348.7499999901047,true,NA,true
kW8oNHLG,3ygyp13654mlicup3w1l36spsdqnrt,3xc1o3lbowzaxb2qmav3fdlant2tl8,kW8oNHLG,2020-0188,2020-11-15,08:19:15,08:41:02,NA,incomplete,15,shape,1,right,Blue_Plus_Chess_2.jpg,Purple_Star_Grid_2.jpg,Green_Plus_Stripes_3.jpg,right,1128.8199999980861,true,NA,true
kW8oNHLG,3ygyp13654mlicup3w1l36spsdqnrt,3xc1o3lbowzaxb2qmav3fdlant2tl8,kW8oNHLG,2020-0188,2020-11-15,08:19:15,08:41:02,NA,incomplete,16,shape,1,left,Red_Circle_Stripes_4.jpg,Green_Circle_Grid_1.jpg,Purple_Plus_Chess_4.jpg,left,890.8200000005309,true,NA,true
kW8oNHLG,3ygyp13654mlicup3w1l36spsdqnrt,3xc1o3lbowzaxb2qmav3fdlant2tl8,kW8oNHLG,2020-0188,2020-11-15,08:19:15,08:41:02,NA,incomplete,17,shape,1,left,Red_Circle_Dots_4.jpg,Purple_Circle_Stripes_2.jpg,Green_Triangle_Grid_4.jpg,left,769.8300000047311,true,NA,true
kW8oNHLG,3ygyp13654mlicup3w1l36spsdqnrt,3xc1o3lbowzaxb2qmav3fdlant2tl8,kW8oNHLG,2020-0188,2020-11-15,08:19:15,08:41:02,NA,incomplete,18,shape,1,left,Purple_Triangle_Stripes_3.jpg,Red_Triangle_Chess_4.jpg,Blue_Plus_Dots_3.jpg,left,997.6900000037858,true,NA,true
kW8oNHLG,3ygyp13654mlicup3w1l36spsdqnrt,3xc1o3lbowzaxb2qmav3fdlant2tl8,kW8oNHLG,2020-0188,2020-11-15,08:19:15,08:41:02,NA,incomplete,19,shape,1,right,Red_Triangle_Stripes_1.jpg,Green_Plus_Chess_1.jpg,Blue_Triangle_Grid_4.jpg,right,660.6449999962933,true,NA,true
kW8oNHLG,3ygyp13654mlicup3w1l36spsdqnrt,3xc1o3lbowzaxb2qmav3fdlant2tl8,kW8oNHLG,2020-0188,2020-11-15,08:19:15,08:41:02,NA,incomplete,20,number,0,left,Green_Plus_Chess_4.jpg,Red_Circle_Grid_4.jpg,Purple_Plus_Stripes_1.jpg,right,791.2950000027195,false,NA,true
kW8oNHLG,3ygyp13654mlicup3w1l36spsdqnrt,3xc1o3lbowzaxb2qmav3fdlant2tl8,kW8oNHLG,2020-0188,2020-11-15,08:19:15,08:41:02,NA,incomplete,21,number,1,left,Blue_Triangle_Chess_1.jpg,Purple_Plus_Dots_1.jpg,Green_Triangle_Grid_2.jpg,right,724.6299999969779,false,NA,true
kW8oNHLG,3ygyp13654mlicup3w1l36spsdqnrt,3xc1o3lbowzaxb2qmav3fdlant2tl8,kW8oNHLG,2020-0188,2020-11-15,08:19:15,08:41:02,NA,incomplete,22,number,1,left,Purple_Star_Dots_1.jpg,Blue_Triangle_Stripes_1.jpg,Green_Star_Grid_4.jpg,right,1135.0000000093132,false,NA,true
kW8oNHLG,3ygyp13654mlicup3w1l36spsdqnrt,3xc1o3lbowzaxb2qmav3fdlant2tl8,kW8oNHLG,2020-0188,2020-11-15,08:19:15,08:41:02,NA,incomplete,23,number,0,left,Green_Circle_Grid_1.jpg,Red_Plus_Chess_1.jpg,Purple_Circle_Dots_2.jpg,left,839.5449999952689,true,NA,true
kW8oNHLG,3ygyp13654mlicup3w1l36spsdqnrt,3xc1o3lbowzaxb2qmav3fdlant2tl8,kW8oNHLG,2020-0188,2020-11-15,08:19:15,08:41:02,NA,incomplete,24,number,1,left,Red_Plus_Chess_2.jpg,Blue_Circle_Dots_2.jpg,Green_Plus_Grid_4.jpg,left,1053.1800000026124,true,NA,true
kW8oNHLG,3ygyp13654mlicup3w1l36spsdqnrt,3xc1o3lbowzaxb2qmav3fdlant2tl8,kW8oNHLG,2020-0188,2020-11-15,08:19:15,08:41:02,NA,incomplete,25,number,1,right,Blue_Plus_Grid_2.jpg,Green_Plus_Stripes_1.jpg,Purple_Circle_Chess_2.jpg,right,908.3200000022771,true,NA,true
kW8oNHLG,3ygyp13654mlicup3w1l36spsdqnrt,3xc1o3lbowzaxb2qmav3fdlant2tl8,kW8oNHLG,2020-0188,2020-11-15,08:19:15,08:41:02,NA,incomplete,26,number,1,left,Green_Star_Chess_2.jpg,Blue_Plus_Grid_2.jpg,Red_Star_Stripes_4.jpg,left,824.7400000109337,true,NA,true
kW8oNHLG,3ygyp13654mlicup3w1l36spsdqnrt,3xc1o3lbowzaxb2qmav3fdlant2tl8,kW8oNHLG,2020-0188,2020-11-15,08:19:15,08:41:02,NA,incomplete,27,number,1,right,Red_Circle_Stripes_3.jpg,Green_Circle_Chess_4.jpg,Purple_Plus_Dots_3.jpg,right,1222.6550000050338,true,NA,true
kW8oNHLG,3ygyp13654mlicup3w1l36spsdqnrt,3xc1o3lbowzaxb2qmav3fdlant2tl8,kW8oNHLG,2020-0188,2020-11-15,08:19:15,08:41:02,NA,incomplete,28,number,0,left,Green_Star_Stripes_3.jpg,Purple_Triangle_Dots_3.jpg,Red_Star_Chess_1.jpg,left,904.4050000084098,true,NA,true
kW8oNHLG,3ygyp13654mlicup3w1l36spsdqnrt,3xc1o3lbowzaxb2qmav3fdlant2tl8,kW8oNHLG,2020-0188,2020-11-15,08:19:15,08:41:02,NA,incomplete,29,number,1,right,Red_Plus_Stripes_3.jpg,Green_Plus_Dots_4.jpg,Purple_Triangle_Chess_3.jpg,right,1264.9699999892619,true,NA,true
kW8oNHLG,3ygyp13654mlicup3w1l36spsdqnrt,3xc1o3lbowzaxb2qmav3fdlant2tl8,kW8oNHLG,2020-0188,2020-11-15,08:19:15,08:41:02,NA,incomplete,30,number,1,right,Blue_Circle_Dots_1.jpg,Green_Circle_Chess_3.jpg,Purple_Plus_Grid_1.jpg,right,1048.20999999356,true,NA,true
kW8oNHLG,3ygyp13654mlicup3w1l36spsdqnrt,3xc1o3lbowzaxb2qmav3fdlant2tl8,kW8oNHLG,2020-0188,2020-11-15,08:19:15,08:41:02,NA,incomplete,31,number,1,left,Red_Star_Stripes_4.jpg,Purple_Plus_Grid_4.jpg,Blue_Star_Chess_2.jpg,left,946.1299999966286,true,NA,true
kW8oNHLG,3ygyp13654mlicup3w1l36spsdqnrt,3xc1o3lbowzaxb2qmav3fdlant2tl8,kW8oNHLG,2020-0188,2020-11-15,08:19:15,08:41:02,NA,incomplete,32,number,1,left,Green_Star_Stripes_2.jpg,Red_Triangle_Grid_2.jpg,Purple_Star_Dots_4.jpg,left,837.7900000050431,true,NA,true
kW8oNHLG,3ygyp13654mlicup3w1l36spsdqnrt,3xc1o3lbowzaxb2qmav3fdlant2tl8,kW8oNHLG,2020-0188,2020-11-15,08:19:15,08:41:02,NA,incomplete,33,number,0,left,Red_Triangle_Dots_1.jpg,Purple_Circle_Grid_1.jpg,Green_Triangle_Stripes_3.jpg,left,853.384999994887,true,NA,true
kW8oNHLG,3ygyp13654mlicup3w1l36spsdqnrt,3xc1o3lbowzaxb2qmav3fdlant2tl8,kW8oNHLG,2020-0188,2020-11-15,08:19:15,08:41:02,NA,incomplete,34,number,1,right,Red_Circle_Grid_1.jpg,Blue_Circle_Dots_3.jpg,Green_Star_Chess_1.jpg,right,1874.9749999988126,true,NA,true
kW8oNHLG,3ygyp13654mlicup3w1l36spsdqnrt,3xc1o3lbowzaxb2qmav3fdlant2tl8,kW8oNHLG,2020-0188,2020-11-15,08:19:15,08:41:02,NA,incomplete,35,number,1,left,Green_Circle_Stripes_1.jpg,Blue_Star_Grid_1.jpg,Red_Circle_Dots_3.jpg,left,1366.6799999919022,true,NA,true
kW8oNHLG,3ygyp13654mlicup3w1l36spsdqnrt,3xc1o3lbowzaxb2qmav3fdlant2tl8,kW8oNHLG,2020-0188,2020-11-15,08:19:15,08:41:02,NA,incomplete,36,number,1,left,Red_Circle_Chess_4.jpg,Purple_Triangle_Stripes_4.jpg,Green_Circle_Dots_3.jpg,left,996.6949999943608,true,NA,true
kW8oNHLG,3ygyp13654mlicup3w1l36spsdqnrt,3xc1o3lbowzaxb2qmav3fdlant2tl8,kW8oNHLG,2020-0188,2020-11-15,08:19:15,08:41:02,NA,incomplete,37,number,1,right,Blue_Plus_Stripes_1.jpg,Purple_Plus_Dots_2.jpg,Green_Triangle_Chess_1.jpg,right,829.6850000042468,true,NA,true
kW8oNHLG,3ygyp13654mlicup3w1l36spsdqnrt,3xc1o3lbowzaxb2qmav3fdlant2tl8,kW8oNHLG,2020-0188,2020-11-15,08:19:15,08:41:02,NA,incomplete,38,number,1,left,Red_Plus_Dots_4.jpg,Green_Triangle_Grid_4.jpg,Purple_Plus_Stripes_2.jpg,left,1126.9800000009127,true,NA,true
kW8oNHLG,3ygyp13654mlicup3w1l36spsdqnrt,3xc1o3lbowzaxb2qmav3fdlant2tl8,kW8oNHLG,2020-0188,2020-11-15,08:19:15,08:41:02,NA,incomplete,39,number,0,left,Purple_Star_Grid_2.jpg,Red_Circle_Stripes_2.jpg,Green_Star_Dots_4.jpg,left,877.6550000038696,true,NA,true
kW8oNHLG,3ygyp13654mlicup3w1l36spsdqnrt,3xc1o3lbowzaxb2qmav3fdlant2tl8,kW8oNHLG,2020-0188,2020-11-15,08:19:15,08:41:02,NA,incomplete,0,shape,1,right,Red_Star_Chess_4.jpg,Purple_Circle_Grid_4.jpg,Green_Star_Dots_1.jpg,left,1216.6599999909522,false,low,false
kW8oNHLG,3ygyp13654mlicup3w1l36spsdqnrt,3xc1o3lbowzaxb2qmav3fdlant2tl8,kW8oNHLG,2020-0188,2020-11-15,08:19:15,08:41:02,NA,incomplete,1,shape,0,right,Blue_Triangle_Dots_4.jpg,Red_Plus_Grid_4.jpg,Green_Triangle_Stripes_2.jpg,left,958.1600000092294,false,low,false
kW8oNHLG,3ygyp13654mlicup3w1l36spsdqnrt,3xc1o3lbowzaxb2qmav3fdlant2tl8,kW8oNHLG,2020-0188,2020-11-15,08:19:15,08:41:02,NA,incomplete,2,shape,1,left,Blue_Circle_Stripes_2.jpg,Red_Circle_Grid_4.jpg,Purple_Triangle_Dots_2.jpg,right,921.3799999997718,false,low,false
kW8oNHLG,3ygyp13654mlicup3w1l36spsdqnrt,3xc1o3lbowzaxb2qmav3fdlant2tl8,kW8oNHLG,2020-0188,2020-11-15,08:19:15,08:41:02,NA,incomplete,3,shape,1,right,Red_Star_Stripes_4.jpg,Blue_Circle_Chess_4.jpg,Purple_Star_Grid_2.jpg,right,865.814999997383,true,low,false
kW8oNHLG,3ygyp13654mlicup3w1l36spsdqnrt,3xc1o3lbowzaxb2qmav3fdlant2tl8,kW8oNHLG,2020-0188,2020-11-15,08:19:15,08:41:02,NA,incomplete,4,shape,1,left,Blue_Triangle_Chess_4.jpg,Green_Triangle_Stripes_1.jpg,Purple_Plus_Dots_4.jpg,left,1090.1449999946635,true,low,false
kW8oNHLG,3ygyp13654mlicup3w1l36spsdqnrt,3xc1o3lbowzaxb2qmav3fdlant2tl8,kW8oNHLG,2020-0188,2020-11-15,08:19:15,08:41:02,NA,incomplete,5,shape,1,left,Red_Triangle_Chess_1.jpg,Purple_Triangle_Stripes_3.jpg,Blue_Plus_Dots_1.jpg,left,1215.0300000066636,true,low,false
kW8oNHLG,3ygyp13654mlicup3w1l36spsdqnrt,3xc1o3lbowzaxb2qmav3fdlant2tl8,kW8oNHLG,2020-0188,2020-11-15,08:19:15,08:41:02,NA,incomplete,6,shape,1,right,Purple_Triangle_Dots_2.jpg,Green_Plus_Chess_2.jpg,Red_Triangle_Stripes_3.jpg,right,748.6249999928987,true,low,false
kW8oNHLG,3ygyp13654mlicup3w1l36spsdqnrt,3xc1o3lbowzaxb2qmav3fdlant2tl8,kW8oNHLG,2020-0188,2020-11-15,08:19:15,08:41:02,NA,incomplete,7,shape,1,left,Red_Star_Dots_3.jpg,Purple_Star_Stripes_2.jpg,Green_Circle_Chess_3.jpg,left,1342.2050000081072,true,low,false
kW8oNHLG,3ygyp13654mlicup3w1l36spsdqnrt,3xc1o3lbowzaxb2qmav3fdlant2tl8,kW8oNHLG,2020-0188,2020-11-15,08:19:15,08:41:02,NA,incomplete,8,shape,1,right,Blue_Star_Stripes_4.jpg,Green_Circle_Dots_4.jpg,Purple_Star_Chess_3.jpg,right,1003.1549999985145,true,low,false
kW8oNHLG,3ygyp13654mlicup3w1l36spsdqnrt,3xc1o3lbowzaxb2qmav3fdlant2tl8,kW8oNHLG,2020-0188,2020-11-15,08:19:15,08:41:02,NA,incomplete,9,shape,1,left,Green_Star_Stripes_3.jpg,Blue_Star_Dots_4.jpg,Red_Circle_Chess_3.jpg,left,895.8399999974063,true,low,false
kW8oNHLG,3ygyp13654mlicup3w1l36spsdqnrt,3xc1o3lbowzaxb2qmav3fdlant2tl8,kW8oNHLG,2020-0188,2020-11-15,08:19:15,08:41:02,NA,incomplete,10,shape,1,left,Red_Plus_Grid_4.jpg,Green_Plus_Stripes_2.jpg,Purple_Star_Chess_4.jpg,left,954.0700000070501,true,low,false
kW8oNHLG,3ygyp13654mlicup3w1l36spsdqnrt,3xc1o3lbowzaxb2qmav3fdlant2tl8,kW8oNHLG,2020-0188,2020-11-15,08:19:15,08:41:02,NA,incomplete,11,shape,1,left,Red_Triangle_Grid_3.jpg,Purple_Triangle_Stripes_1.jpg,Blue_Plus_Dots_3.jpg,left,931.7599999922095,true,low,false
kW8oNHLG,3ygyp13654mlicup3w1l36spsdqnrt,3xc1o3lbowzaxb2qmav3fdlant2tl8,kW8oNHLG,2020-0188,2020-11-15,08:19:15,08:41:02,NA,incomplete,12,shape,1,left,Red_Circle_Dots_1.jpg,Green_Circle_Chess_3.jpg,Blue_Star_Stripes_1.jpg,left,947.3399999988033,true,low,false
kW8oNHLG,3ygyp13654mlicup3w1l36spsdqnrt,3xc1o3lbowzaxb2qmav3fdlant2tl8,kW8oNHLG,2020-0188,2020-11-15,08:19:15,08:41:02,NA,incomplete,13,shape,1,right,Blue_Triangle_Chess_1.jpg,Red_Plus_Stripes_1.jpg,Purple_Triangle_Dots_3.jpg,right,808.3000000042375,true,low,false
kW8oNHLG,3ygyp13654mlicup3w1l36spsdqnrt,3xc1o3lbowzaxb2qmav3fdlant2tl8,kW8oNHLG,2020-0188,2020-11-15,08:19:15,08:41:02,NA,incomplete,14,shape,1,right,Red_Triangle_Chess_4.jpg,Green_Circle_Stripes_4.jpg,Purple_Triangle_Grid_3.jpg,right,892.1600000030594,true,low,false
kW8oNHLG,3ygyp13654mlicup3w1l36spsdqnrt,3xc1o3lbowzaxb2qmav3fdlant2tl8,kW8oNHLG,2020-0188,2020-11-15,08:19:15,08:41:02,NA,incomplete,15,shape,1,left,Green_Star_Stripes_1.jpg,Blue_Star_Grid_3.jpg,Red_Plus_Chess_1.jpg,left,1041.720000008354,true,low,false
kW8oNHLG,3ygyp13654mlicup3w1l36spsdqnrt,3xc1o3lbowzaxb2qmav3fdlant2tl8,kW8oNHLG,2020-0188,2020-11-15,08:19:15,08:41:02,NA,incomplete,16,shape,0,right,Green_Star_Chess_4.jpg,Blue_Plus_Grid_4.jpg,Purple_Star_Stripes_1.jpg,right,998.9199999981793,true,low,false
kW8oNHLG,3ygyp13654mlicup3w1l36spsdqnrt,3xc1o3lbowzaxb2qmav3fdlant2tl8,kW8oNHLG,2020-0188,2020-11-15,08:19:15,08:41:02,NA,incomplete,17,shape,1,left,Red_Star_Chess_2.jpg,Blue_Star_Dots_3.jpg,Green_Circle_Grid_2.jpg,left,885.3249999956461,true,low,false
kW8oNHLG,3ygyp13654mlicup3w1l36spsdqnrt,3xc1o3lbowzaxb2qmav3fdlant2tl8,kW8oNHLG,2020-0188,2020-11-15,08:19:15,08:41:02,NA,incomplete,18,shape,1,left,Green_Plus_Dots_4.jpg,Red_Plus_Chess_2.jpg,Blue_Circle_Stripes_4.jpg,left,851.5350000088802,true,low,false
kW8oNHLG,3ygyp13654mlicup3w1l36spsdqnrt,3xc1o3lbowzaxb2qmav3fdlant2tl8,kW8oNHLG,2020-0188,2020-11-15,08:19:15,08:41:02,NA,incomplete,19,shape,1,right,Purple_Star_Stripes_2.jpg,Blue_Triangle_Dots_2.jpg,Red_Star_Grid_3.jpg,right,814.3049999926006,true,low,false
kW8oNHLG,3ygyp13654mlicup3w1l36spsdqnrt,3xc1o3lbowzaxb2qmav3fdlant2tl8,kW8oNHLG,2020-0188,2020-11-15,08:19:15,08:41:02,NA,incomplete,20,shape,1,right,Blue_Plus_Chess_3.jpg,Green_Circle_Grid_3.jpg,Purple_Plus_Dots_4.jpg,right,949.174999987008,true,low,false
kW8oNHLG,3ygyp13654mlicup3w1l36spsdqnrt,3xc1o3lbowzaxb2qmav3fdlant2tl8,kW8oNHLG,2020-0188,2020-11-15,08:19:15,08:41:02,NA,incomplete,21,shape,0,right,Red_Circle_Stripes_3.jpg,Purple_Star_Dots_3.jpg,Green_Circle_Chess_2.jpg,right,764.5649999903981,true,low,false
kW8oNHLG,3ygyp13654mlicup3w1l36spsdqnrt,3xc1o3lbowzaxb2qmav3fdlant2tl8,kW8oNHLG,2020-0188,2020-11-15,08:19:15,08:41:02,NA,incomplete,22,shape,1,left,Green_Star_Dots_1.jpg,Purple_Star_Grid_3.jpg,Red_Plus_Stripes_1.jpg,left,838.7999999977183,true,low,false
kW8oNHLG,3ygyp13654mlicup3w1l36spsdqnrt,3xc1o3lbowzaxb2qmav3fdlant2tl8,kW8oNHLG,2020-0188,2020-11-15,08:19:15,08:41:02,NA,incomplete,23,shape,1,left,Blue_Plus_Grid_2.jpg,Green_Plus_Dots_1.jpg,Purple_Star_Chess_2.jpg,left,818.4199999959674,true,low,false
kW8oNHLG,3ygyp13654mlicup3w1l36spsdqnrt,3xc1o3lbowzaxb2qmav3fdlant2tl8,kW8oNHLG,2020-0188,2020-11-15,08:19:15,08:41:02,NA,incomplete,24,shape,1,left,Red_Triangle_Dots_3.jpg,Blue_Triangle_Stripes_1.jpg,Green_Star_Chess_3.jpg,left,818.1150000018533,true,low,false
kW8oNHLG,3ygyp13654mlicup3w1l36spsdqnrt,3xc1o3lbowzaxb2qmav3fdlant2tl8,kW8oNHLG,2020-0188,2020-11-15,08:19:15,08:41:02,NA,incomplete,25,shape,1,left,Blue_Plus_Grid_3.jpg,Red_Plus_Stripes_4.jpg,Purple_Triangle_Chess_3.jpg,left,745.1149999978952,true,low,false
kW8oNHLG,3ygyp13654mlicup3w1l36spsdqnrt,3xc1o3lbowzaxb2qmav3fdlant2tl8,kW8oNHLG,2020-0188,2020-11-15,08:19:15,08:41:02,NA,incomplete,26,shape,0,left,Blue_Circle_Grid_3.jpg,Green_Circle_Dots_1.jpg,Red_Plus_Chess_3.jpg,left,750.0149999978021,true,low,false
kW8oNHLG,3ygyp13654mlicup3w1l36spsdqnrt,3xc1o3lbowzaxb2qmav3fdlant2tl8,kW8oNHLG,2020-0188,2020-11-15,08:19:15,08:41:02,NA,incomplete,27,shape,1,left,Green_Circle_Chess_4.jpg,Blue_Circle_Grid_1.jpg,Purple_Plus_Stripes_4.jpg,left,736.6899999906309,true,low,false
kW8oNHLG,3ygyp13654mlicup3w1l36spsdqnrt,3xc1o3lbowzaxb2qmav3fdlant2tl8,kW8oNHLG,2020-0188,2020-11-15,08:19:15,08:41:02,NA,incomplete,28,shape,1,right,Red_Plus_Grid_4.jpg,Blue_Star_Dots_4.jpg,Purple_Plus_Chess_2.jpg,right,1064.9950000079116,true,low,false
kW8oNHLG,3ygyp13654mlicup3w1l36spsdqnrt,3xc1o3lbowzaxb2qmav3fdlant2tl8,kW8oNHLG,2020-0188,2020-11-15,08:19:15,08:41:02,NA,incomplete,29,shape,1,right,Purple_Triangle_Dots_1.jpg,Green_Star_Stripes_1.jpg,Blue_Triangle_Chess_4.jpg,right,888.7399999948684,true,low,false
kW8oNHLG,3ygyp13654mlicup3w1l36spsdqnrt,3xc1o3lbowzaxb2qmav3fdlant2tl8,kW8oNHLG,2020-0188,2020-11-15,08:19:15,08:41:02,NA,incomplete,30,number,1,right,Green_Triangle_Grid_3.jpg,Purple_Triangle_Chess_1.jpg,Blue_Circle_Dots_3.jpg,left,833.0149999965215,false,low,false
kW8oNHLG,3ygyp13654mlicup3w1l36spsdqnrt,3xc1o3lbowzaxb2qmav3fdlant2tl8,kW8oNHLG,2020-0188,2020-11-15,08:19:15,08:41:02,NA,incomplete,31,number,1,right,Red_Plus_Dots_2.jpg,Purple_Plus_Grid_1.jpg,Blue_Star_Chess_2.jpg,left,739.4800000038231,false,low,false
kW8oNHLG,3ygyp13654mlicup3w1l36spsdqnrt,3xc1o3lbowzaxb2qmav3fdlant2tl8,kW8oNHLG,2020-0188,2020-11-15,08:19:15,08:41:02,NA,incomplete,32,number,1,right,Purple_Triangle_Dots_3.jpg,Blue_Triangle_Stripes_1.jpg,Green_Plus_Chess_3.jpg,right,819.6600000082981,true,low,false
kW8oNHLG,3ygyp13654mlicup3w1l36spsdqnrt,3xc1o3lbowzaxb2qmav3fdlant2tl8,kW8oNHLG,2020-0188,2020-11-15,08:19:15,08:41:02,NA,incomplete,33,number,1,right,Blue_Triangle_Stripes_1.jpg,Red_Triangle_Dots_2.jpg,Green_Plus_Chess_1.jpg,right,921.7250000074273,true,low,false
kW8oNHLG,3ygyp13654mlicup3w1l36spsdqnrt,3xc1o3lbowzaxb2qmav3fdlant2tl8,kW8oNHLG,2020-0188,2020-11-15,08:19:15,08:41:02,NA,incomplete,34,number,1,left,Red_Star_Stripes_2.jpg,Purple_Circle_Chess_2.jpg,Blue_Star_Dots_4.jpg,left,1105.6549999921117,true,low,false
kW8oNHLG,3ygyp13654mlicup3w1l36spsdqnrt,3xc1o3lbowzaxb2qmav3fdlant2tl8,kW8oNHLG,2020-0188,2020-11-15,08:19:15,08:41:02,NA,incomplete,35,number,0,left,Purple_Circle_Dots_4.jpg,Red_Star_Grid_4.jpg,Blue_Circle_Chess_1.jpg,left,843.2299999985844,true,low,false
kW8oNHLG,3ygyp13654mlicup3w1l36spsdqnrt,3xc1o3lbowzaxb2qmav3fdlant2tl8,kW8oNHLG,2020-0188,2020-11-15,08:19:15,08:41:02,NA,incomplete,36,number,1,left,Blue_Triangle_Stripes_1.jpg,Red_Plus_Chess_1.jpg,Green_Triangle_Grid_2.jpg,left,865.814999997383,true,low,false
kW8oNHLG,3ygyp13654mlicup3w1l36spsdqnrt,3xc1o3lbowzaxb2qmav3fdlant2tl8,kW8oNHLG,2020-0188,2020-11-15,08:19:15,08:41:02,NA,incomplete,37,number,1,left,Green_Triangle_Stripes_2.jpg,Blue_Plus_Grid_2.jpg,Purple_Triangle_Chess_4.jpg,left,972.9350000125123,true,low,false
kW8oNHLG,3ygyp13654mlicup3w1l36spsdqnrt,3xc1o3lbowzaxb2qmav3fdlant2tl8,kW8oNHLG,2020-0188,2020-11-15,08:19:15,08:41:02,NA,incomplete,38,number,1,left,Blue_Circle_Chess_3.jpg,Red_Triangle_Dots_3.jpg,Green_Circle_Stripes_4.jpg,left,1295.2450000011595,true,low,false
kW8oNHLG,3ygyp13654mlicup3w1l36spsdqnrt,3xc1o3lbowzaxb2qmav3fdlant2tl8,kW8oNHLG,2020-0188,2020-11-15,08:19:15,08:41:02,NA,incomplete,39,number,0,right,Green_Plus_Stripes_4.jpg,Blue_Plus_Chess_3.jpg,Purple_Star_Grid_4.jpg,right,983.4699999919394,true,low,false
kW8oNHLG,3ygyp13654mlicup3w1l36spsdqnrt,3xc1o3lbowzaxb2qmav3fdlant2tl8,kW8oNHLG,2020-0188,2020-11-15,08:19:15,08:41:02,NA,incomplete,40,number,1,left,Blue_Triangle_Grid_3.jpg,Purple_Star_Dots_3.jpg,Green_Triangle_Chess_2.jpg,left,867.7049999969313,true,low,false
kW8oNHLG,3ygyp13654mlicup3w1l36spsdqnrt,3xc1o3lbowzaxb2qmav3fdlant2tl8,kW8oNHLG,2020-0188,2020-11-15,08:19:15,08:41:02,NA,incomplete,41,number,1,left,Green_Triangle_Dots_3.jpg,Blue_Star_Grid_3.jpg,Purple_Triangle_Stripes_2.jpg,left,1293.3349999948405,true,low,false
kW8oNHLG,3ygyp13654mlicup3w1l36spsdqnrt,3xc1o3lbowzaxb2qmav3fdlant2tl8,kW8oNHLG,2020-0188,2020-11-15,08:19:15,08:41:02,NA,incomplete,42,number,1,left,Red_Triangle_Dots_3.jpg,Green_Circle_Chess_3.jpg,Purple_Triangle_Grid_1.jpg,left,839.6400000056019,true,low,false
kW8oNHLG,3ygyp13654mlicup3w1l36spsdqnrt,3xc1o3lbowzaxb2qmav3fdlant2tl8,kW8oNHLG,2020-0188,2020-11-15,08:19:15,08:41:02,NA,incomplete,43,number,1,left,Purple_Circle_Dots_4.jpg,Green_Plus_Grid_4.jpg,Red_Circle_Stripes_2.jpg,left,801.3650000066264,true,low,false
kW8oNHLG,3ygyp13654mlicup3w1l36spsdqnrt,3xc1o3lbowzaxb2qmav3fdlant2tl8,kW8oNHLG,2020-0188,2020-11-15,08:19:15,08:41:02,NA,incomplete,44,number,1,right,Green_Star_Grid_3.jpg,Red_Star_Chess_2.jpg,Purple_Plus_Stripes_3.jpg,right,1001.7050000024028,true,low,false
kW8oNHLG,3ygyp13654mlicup3w1l36spsdqnrt,3xc1o3lbowzaxb2qmav3fdlant2tl8,kW8oNHLG,2020-0188,2020-11-15,08:19:15,08:41:02,NA,incomplete,45,number,1,left,Red_Circle_Grid_3.jpg,Purple_Plus_Stripes_3.jpg,Green_Circle_Dots_1.jpg,left,752.9450000001816,true,low,false
kW8oNHLG,3ygyp13654mlicup3w1l36spsdqnrt,3xc1o3lbowzaxb2qmav3fdlant2tl8,kW8oNHLG,2020-0188,2020-11-15,08:19:15,08:41:02,NA,incomplete,46,number,1,left,Purple_Triangle_Dots_1.jpg,Blue_Plus_Grid_1.jpg,Red_Triangle_Chess_4.jpg,left,953.1500000011874,true,low,false
kW8oNHLG,3ygyp13654mlicup3w1l36spsdqnrt,3xc1o3lbowzaxb2qmav3fdlant2tl8,kW8oNHLG,2020-0188,2020-11-15,08:19:15,08:41:02,NA,incomplete,47,number,1,left,Red_Triangle_Grid_3.jpg,Purple_Plus_Stripes_3.jpg,Green_Triangle_Chess_1.jpg,left,800.2350000024308,true,low,false
kW8oNHLG,3ygyp13654mlicup3w1l36spsdqnrt,3xc1o3lbowzaxb2qmav3fdlant2tl8,kW8oNHLG,2020-0188,2020-11-15,08:19:15,08:41:02,NA,incomplete,48,number,1,left,Green_Plus_Chess_2.jpg,Blue_Triangle_Dots_2.jpg,Purple_Plus_Grid_1.jpg,left,989.8600000014994,true,low,false
kW8oNHLG,3ygyp13654mlicup3w1l36spsdqnrt,3xc1o3lbowzaxb2qmav3fdlant2tl8,kW8oNHLG,2020-0188,2020-11-15,08:19:15,08:41:02,NA,incomplete,49,number,1,right,Blue_Star_Grid_4.jpg,Purple_Star_Stripes_2.jpg,Green_Plus_Dots_4.jpg,right,770.4149999917718,true,low,false
kW8oNHLG,3ygyp13654mlicup3w1l36spsdqnrt,3xc1o3lbowzaxb2qmav3fdlant2tl8,kW8oNHLG,2020-0188,2020-11-15,08:19:15,08:41:02,NA,incomplete,50,number,1,left,Green_Star_Dots_3.jpg,Red_Triangle_Grid_3.jpg,Blue_Star_Chess_4.jpg,left,861.0300000000279,true,low,false
kW8oNHLG,3ygyp13654mlicup3w1l36spsdqnrt,3xc1o3lbowzaxb2qmav3fdlant2tl8,kW8oNHLG,2020-0188,2020-11-15,08:19:15,08:41:02,NA,incomplete,51,number,0,left,Purple_Plus_Stripes_1.jpg,Blue_Triangle_Chess_1.jpg,Green_Plus_Dots_4.jpg,left,780.8650000079069,true,low,false
kW8oNHLG,3ygyp13654mlicup3w1l36spsdqnrt,3xc1o3lbowzaxb2qmav3fdlant2tl8,kW8oNHLG,2020-0188,2020-11-15,08:19:15,08:41:02,NA,incomplete,52,number,1,left,Red_Triangle_Dots_2.jpg,Purple_Circle_Grid_2.jpg,Blue_Triangle_Stripes_1.jpg,left,845.9899999870686,true,low,false
kW8oNHLG,3ygyp13654mlicup3w1l36spsdqnrt,3xc1o3lbowzaxb2qmav3fdlant2tl8,kW8oNHLG,2020-0188,2020-11-15,08:19:15,08:41:02,NA,incomplete,53,number,1,right,Blue_Star_Dots_1.jpg,Purple_Star_Chess_4.jpg,Red_Triangle_Grid_1.jpg,right,800.2050000068266,true,low,false
kW8oNHLG,3ygyp13654mlicup3w1l36spsdqnrt,3xc1o3lbowzaxb2qmav3fdlant2tl8,kW8oNHLG,2020-0188,2020-11-15,08:19:15,08:41:02,NA,incomplete,54,number,1,left,Purple_Plus_Grid_2.jpg,Blue_Triangle_Stripes_2.jpg,Red_Plus_Dots_1.jpg,left,750.9750000026543,true,low,false
kW8oNHLG,3ygyp13654mlicup3w1l36spsdqnrt,3xc1o3lbowzaxb2qmav3fdlant2tl8,kW8oNHLG,2020-0188,2020-11-15,08:19:15,08:41:02,NA,incomplete,55,number,0,right,Blue_Circle_Dots_4.jpg,Red_Circle_Stripes_2.jpg,Purple_Triangle_Grid_4.jpg,right,786.6499999945518,true,low,false
kW8oNHLG,3ygyp13654mlicup3w1l36spsdqnrt,3xc1o3lbowzaxb2qmav3fdlant2tl8,kW8oNHLG,2020-0188,2020-11-15,08:19:15,08:41:02,NA,incomplete,56,number,1,left,Red_Star_Grid_1.jpg,Blue_Circle_Dots_1.jpg,Purple_Star_Chess_3.jpg,left,679.8950000084005,true,low,false
kW8oNHLG,3ygyp13654mlicup3w1l36spsdqnrt,3xc1o3lbowzaxb2qmav3fdlant2tl8,kW8oNHLG,2020-0188,2020-11-15,08:19:15,08:41:02,NA,incomplete,57,number,1,right,Green_Triangle_Dots_4.jpg,Blue_Triangle_Stripes_1.jpg,Purple_Circle_Grid_4.jpg,right,778.5650000005262,true,low,false
kW8oNHLG,3ygyp13654mlicup3w1l36spsdqnrt,3xc1o3lbowzaxb2qmav3fdlant2tl8,kW8oNHLG,2020-0188,2020-11-15,08:19:15,08:41:02,NA,incomplete,58,number,1,right,Green_Star_Dots_1.jpg,Purple_Star_Grid_2.jpg,Red_Circle_Stripes_1.jpg,right,786.9900000077905,true,low,false
kW8oNHLG,3ygyp13654mlicup3w1l36spsdqnrt,3xc1o3lbowzaxb2qmav3fdlant2tl8,kW8oNHLG,2020-0188,2020-11-15,08:19:15,08:41:02,NA,incomplete,59,number,1,left,Green_Star_Dots_1.jpg,Purple_Triangle_Grid_1.jpg,Red_Star_Chess_4.jpg,left,832.5299999996787,true,low,false
kW8oNHLG,3ygyp13654mlicup3w1l36spsdqnrt,3xc1o3lbowzaxb2qmav3fdlant2tl8,kW8oNHLG,2020-0188,2020-11-15,08:19:15,08:41:02,NA,incomplete,60,shape,1,left,Green_Triangle_Dots_4.jpg,Red_Triangle_Chess_3.jpg,Purple_Circle_Grid_4.jpg,right,812.6950000005309,false,low,false
kW8oNHLG,3ygyp13654mlicup3w1l36spsdqnrt,3xc1o3lbowzaxb2qmav3fdlant2tl8,kW8oNHLG,2020-0188,2020-11-15,08:19:15,08:41:02,NA,incomplete,61,shape,1,left,Blue_Triangle_Dots_1.jpg,Red_Triangle_Stripes_3.jpg,Purple_Plus_Chess_1.jpg,right,828.9700000023004,false,low,false
kW8oNHLG,3ygyp13654mlicup3w1l36spsdqnrt,3xc1o3lbowzaxb2qmav3fdlant2tl8,kW8oNHLG,2020-0188,2020-11-15,08:19:15,08:41:02,NA,incomplete,62,shape,0,right,Purple_Plus_Grid_3.jpg,Red_Triangle_Dots_3.jpg,Green_Plus_Stripes_1.jpg,right,1114.965000000666,true,low,false
kW8oNHLG,3ygyp13654mlicup3w1l36spsdqnrt,3xc1o3lbowzaxb2qmav3fdlant2tl8,kW8oNHLG,2020-0188,2020-11-15,08:19:15,08:41:02,NA,incomplete,63,shape,0,right,Purple_Triangle_Grid_1.jpg,Red_Plus_Dots_1.jpg,Green_Triangle_Stripes_2.jpg,right,1265.9199999907287,true,low,false
kW8oNHLG,3ygyp13654mlicup3w1l36spsdqnrt,3xc1o3lbowzaxb2qmav3fdlant2tl8,kW8oNHLG,2020-0188,2020-11-15,08:19:15,08:41:02,NA,incomplete,64,shape,1,left,Green_Plus_Dots_2.jpg,Blue_Plus_Stripes_3.jpg,Purple_Star_Chess_2.jpg,right,865.204999994603,false,low,false
kW8oNHLG,3ygyp13654mlicup3w1l36spsdqnrt,3xc1o3lbowzaxb2qmav3fdlant2tl8,kW8oNHLG,2020-0188,2020-11-15,08:19:15,08:41:02,NA,incomplete,65,shape,1,left,Red_Triangle_Chess_1.jpg,Blue_Triangle_Grid_2.jpg,Purple_Star_Dots_1.jpg,right,947.0299999957206,false,low,false
kW8oNHLG,3ygyp13654mlicup3w1l36spsdqnrt,3xc1o3lbowzaxb2qmav3fdlant2tl8,kW8oNHLG,2020-0188,2020-11-15,08:19:15,08:41:02,NA,incomplete,66,shape,1,right,Blue_Plus_Stripes_4.jpg,Red_Star_Chess_4.jpg,Purple_Plus_Dots_3.jpg,right,1210.6999999959953,true,low,false
kW8oNHLG,3ygyp13654mlicup3w1l36spsdqnrt,3xc1o3lbowzaxb2qmav3fdlant2tl8,kW8oNHLG,2020-0188,2020-11-15,08:19:15,08:41:02,NA,incomplete,67,shape,0,left,Green_Star_Stripes_4.jpg,Purple_Star_Chess_1.jpg,Blue_Triangle_Grid_4.jpg,left,974.9100000044564,true,low,false
kW8oNHLG,3ygyp13654mlicup3w1l36spsdqnrt,3xc1o3lbowzaxb2qmav3fdlant2tl8,kW8oNHLG,2020-0188,2020-11-15,08:19:15,08:41:02,NA,incomplete,68,shape,1,right,Green_Triangle_Chess_1.jpg,Red_Star_Grid_1.jpg,Purple_Triangle_Dots_4.jpg,right,1117.2500000102445,true,low,false
kW8oNHLG,3ygyp13654mlicup3w1l36spsdqnrt,3xc1o3lbowzaxb2qmav3fdlant2tl8,kW8oNHLG,2020-0188,2020-11-15,08:19:15,08:41:02,NA,incomplete,69,shape,1,right,Purple_Plus_Grid_2.jpg,Blue_Triangle_Stripes_2.jpg,Green_Plus_Dots_1.jpg,right,982.0600000093691,true,low,false
kW8oNHLG,3ygyp13654mlicup3w1l36spsdqnrt,3xc1o3lbowzaxb2qmav3fdlant2tl8,kW8oNHLG,2020-0188,2020-11-15,08:19:15,08:41:02,NA,incomplete,70,shape,0,left,Red_Star_Stripes_4.jpg,Green_Star_Chess_3.jpg,Purple_Circle_Grid_4.jpg,left,805.4200000042329,true,low,false
kW8oNHLG,3ygyp13654mlicup3w1l36spsdqnrt,3xc1o3lbowzaxb2qmav3fdlant2tl8,kW8oNHLG,2020-0188,2020-11-15,08:19:15,08:41:02,NA,incomplete,71,shape,0,left,Red_Plus_Grid_2.jpg,Green_Plus_Dots_1.jpg,Blue_Circle_Stripes_2.jpg,left,934.1350000031525,true,low,false
kW8oNHLG,3ygyp13654mlicup3w1l36spsdqnrt,3xc1o3lbowzaxb2qmav3fdlant2tl8,kW8oNHLG,2020-0188,2020-11-15,08:19:15,08:41:02,NA,incomplete,72,shape,1,right,Green_Circle_Grid_1.jpg,Blue_Triangle_Stripes_1.jpg,Purple_Circle_Chess_4.jpg,left,830.470000000787,false,low,false
kW8oNHLG,3ygyp13654mlicup3w1l36spsdqnrt,3xc1o3lbowzaxb2qmav3fdlant2tl8,kW8oNHLG,2020-0188,2020-11-15,08:19:15,08:41:02,NA,incomplete,73,shape,1,right,Green_Plus_Dots_1.jpg,Blue_Triangle_Grid_1.jpg,Purple_Plus_Chess_2.jpg,right,1226.9599999999627,true,low,false
kW8oNHLG,3ygyp13654mlicup3w1l36spsdqnrt,3xc1o3lbowzaxb2qmav3fdlant2tl8,kW8oNHLG,2020-0188,2020-11-15,08:19:15,08:41:02,NA,incomplete,74,shape,1,right,Purple_Plus_Grid_1.jpg,Blue_Triangle_Chess_1.jpg,Red_Plus_Stripes_4.jpg,right,809.6599999989849,true,low,false
kW8oNHLG,3ygyp13654mlicup3w1l36spsdqnrt,3xc1o3lbowzaxb2qmav3fdlant2tl8,kW8oNHLG,2020-0188,2020-11-15,08:19:15,08:41:02,NA,incomplete,75,shape,1,left,Red_Plus_Grid_2.jpg,Purple_Plus_Stripes_3.jpg,Blue_Circle_Dots_2.jpg,left,834.7550000034971,true,low,false
kW8oNHLG,3ygyp13654mlicup3w1l36spsdqnrt,3xc1o3lbowzaxb2qmav3fdlant2tl8,kW8oNHLG,2020-0188,2020-11-15,08:19:15,08:41:02,NA,incomplete,76,shape,1,left,Purple_Triangle_Stripes_4.jpg,Red_Triangle_Grid_3.jpg,Green_Plus_Dots_4.jpg,left,878.0899999983376,true,low,false
kW8oNHLG,3ygyp13654mlicup3w1l36spsdqnrt,3xc1o3lbowzaxb2qmav3fdlant2tl8,kW8oNHLG,2020-0188,2020-11-15,08:19:15,08:41:02,NA,incomplete,77,shape,1,right,Red_Triangle_Stripes_1.jpg,Purple_Circle_Grid_1.jpg,Green_Triangle_Chess_2.jpg,right,901.2999999977183,true,low,false
kW8oNHLG,3ygyp13654mlicup3w1l36spsdqnrt,3xc1o3lbowzaxb2qmav3fdlant2tl8,kW8oNHLG,2020-0188,2020-11-15,08:19:15,08:41:02,NA,incomplete,78,shape,1,left,Red_Circle_Dots_3.jpg,Blue_Circle_Stripes_4.jpg,Purple_Star_Grid_3.jpg,left,686.4349999959813,true,low,false
kW8oNHLG,3ygyp13654mlicup3w1l36spsdqnrt,3xc1o3lbowzaxb2qmav3fdlant2tl8,kW8oNHLG,2020-0188,2020-11-15,08:19:15,08:41:02,NA,incomplete,79,shape,1,left,Green_Plus_Grid_3.jpg,Blue_Plus_Chess_4.jpg,Purple_Triangle_Stripes_3.jpg,left,803.474999993341,true,low,false
kW8oNHLG,3ygyp13654mlicup3w1l36spsdqnrt,3xc1o3lbowzaxb2qmav3fdlant2tl8,kW8oNHLG,2020-0188,2020-11-15,08:19:15,08:41:02,NA,incomplete,80,shape,1,right,Green_Star_Grid_4.jpg,Red_Plus_Stripes_4.jpg,Blue_Star_Chess_1.jpg,right,1026.2950000033015,true,low,false
kW8oNHLG,3ygyp13654mlicup3w1l36spsdqnrt,3xc1o3lbowzaxb2qmav3fdlant2tl8,kW8oNHLG,2020-0188,2020-11-15,08:19:15,08:41:02,NA,incomplete,81,shape,1,left,Green_Star_Dots_1.jpg,Red_Star_Grid_2.jpg,Purple_Circle_Chess_1.jpg,left,686.4999999961583,true,low,false
kW8oNHLG,3ygyp13654mlicup3w1l36spsdqnrt,3xc1o3lbowzaxb2qmav3fdlant2tl8,kW8oNHLG,2020-0188,2020-11-15,08:19:15,08:41:02,NA,incomplete,82,shape,1,right,Purple_Star_Grid_2.jpg,Green_Triangle_Chess_2.jpg,Red_Star_Dots_3.jpg,right,911.3150000048336,true,low,false
kW8oNHLG,3ygyp13654mlicup3w1l36spsdqnrt,3xc1o3lbowzaxb2qmav3fdlant2tl8,kW8oNHLG,2020-0188,2020-11-15,08:19:15,08:41:02,NA,incomplete,83,shape,1,left,Green_Circle_Stripes_4.jpg,Purple_Circle_Grid_1.jpg,Red_Triangle_Chess_4.jpg,left,731.9549999956507,true,low,false
kW8oNHLG,3ygyp13654mlicup3w1l36spsdqnrt,3xc1o3lbowzaxb2qmav3fdlant2tl8,kW8oNHLG,2020-0188,2020-11-15,08:19:15,08:41:02,NA,incomplete,84,shape,1,left,Red_Circle_Stripes_1.jpg,Purple_Circle_Dots_3.jpg,Blue_Triangle_Grid_1.jpg,left,793.0000000051223,true,low,false
kW8oNHLG,3ygyp13654mlicup3w1l36spsdqnrt,3xc1o3lbowzaxb2qmav3fdlant2tl8,kW8oNHLG,2020-0188,2020-11-15,08:19:15,08:41:02,NA,incomplete,85,shape,1,left,Red_Triangle_Grid_3.jpg,Blue_Triangle_Stripes_1.jpg,Purple_Plus_Dots_3.jpg,left,705.6449999945471,true,low,false
kW8oNHLG,3ygyp13654mlicup3w1l36spsdqnrt,3xc1o3lbowzaxb2qmav3fdlant2tl8,kW8oNHLG,2020-0188,2020-11-15,08:19:15,08:41:02,NA,incomplete,86,shape,1,left,Red_Triangle_Chess_1.jpg,Blue_Triangle_Dots_4.jpg,Purple_Star_Grid_1.jpg,left,687.5199999922188,true,low,false
kW8oNHLG,3ygyp13654mlicup3w1l36spsdqnrt,3xc1o3lbowzaxb2qmav3fdlant2tl8,kW8oNHLG,2020-0188,2020-11-15,08:19:15,08:41:02,NA,incomplete,87,shape,1,left,Green_Star_Stripes_2.jpg,Purple_Star_Chess_3.jpg,Red_Circle_Dots_2.jpg,left,960.8299999963492,true,low,false
kW8oNHLG,3ygyp13654mlicup3w1l36spsdqnrt,3xc1o3lbowzaxb2qmav3fdlant2tl8,kW8oNHLG,2020-0188,2020-11-15,08:19:15,08:41:02,NA,incomplete,88,shape,1,left,Green_Plus_Stripes_3.jpg,Red_Plus_Dots_2.jpg,Blue_Star_Grid_3.jpg,left,946.5999999956694,true,low,false
kW8oNHLG,3ygyp13654mlicup3w1l36spsdqnrt,3xc1o3lbowzaxb2qmav3fdlant2tl8,kW8oNHLG,2020-0188,2020-11-15,08:19:15,08:41:02,NA,incomplete,89,shape,1,right,Purple_Triangle_Grid_1.jpg,Blue_Star_Chess_1.jpg,Green_Triangle_Dots_2.jpg,right,723.2150000054389,true,low,false
kW8oNHLG,3ygyp13654mlicup3w1l36spsdqnrt,3xc1o3lbowzaxb2qmav3fdlant2tl8,kW8oNHLG,2020-0188,2020-11-15,08:19:15,08:41:02,NA,incomplete,90,number,1,right,Blue_Circle_Chess_1.jpg,Red_Circle_Dots_4.jpg,Purple_Triangle_Stripes_1.jpg,left,806.349999998929,false,low,false
kW8oNHLG,3ygyp13654mlicup3w1l36spsdqnrt,3xc1o3lbowzaxb2qmav3fdlant2tl8,kW8oNHLG,2020-0188,2020-11-15,08:19:15,08:41:02,NA,incomplete,91,number,1,right,Blue_Plus_Grid_3.jpg,Red_Plus_Dots_1.jpg,Green_Triangle_Stripes_3.jpg,left,758.4599999972852,false,low,false
kW8oNHLG,3ygyp13654mlicup3w1l36spsdqnrt,3xc1o3lbowzaxb2qmav3fdlant2tl8,kW8oNHLG,2020-0188,2020-11-15,08:19:15,08:41:02,NA,incomplete,92,number,0,right,Purple_Circle_Stripes_1.jpg,Red_Circle_Dots_2.jpg,Blue_Star_Chess_1.jpg,right,748.6649999918882,true,low,false
kW8oNHLG,3ygyp13654mlicup3w1l36spsdqnrt,3xc1o3lbowzaxb2qmav3fdlant2tl8,kW8oNHLG,2020-0188,2020-11-15,08:19:15,08:41:02,NA,incomplete,93,number,1,right,Red_Plus_Dots_3.jpg,Green_Plus_Stripes_1.jpg,Purple_Triangle_Grid_3.jpg,right,961.8199999968056,true,low,false
kW8oNHLG,3ygyp13654mlicup3w1l36spsdqnrt,3xc1o3lbowzaxb2qmav3fdlant2tl8,kW8oNHLG,2020-0188,2020-11-15,08:19:15,08:41:02,NA,incomplete,94,number,1,right,Blue_Star_Chess_4.jpg,Purple_Star_Stripes_1.jpg,Green_Plus_Grid_4.jpg,right,1123.9500000083353,true,low,false
kW8oNHLG,3ygyp13654mlicup3w1l36spsdqnrt,3xc1o3lbowzaxb2qmav3fdlant2tl8,kW8oNHLG,2020-0188,2020-11-15,08:19:15,08:41:02,NA,incomplete,95,number,0,right,Red_Plus_Dots_2.jpg,Blue_Plus_Chess_3.jpg,Purple_Star_Stripes_2.jpg,right,1061.3799999991897,true,low,false
kW8oNHLG,3ygyp13654mlicup3w1l36spsdqnrt,3xc1o3lbowzaxb2qmav3fdlant2tl8,kW8oNHLG,2020-0188,2020-11-15,08:19:15,08:41:02,NA,incomplete,96,number,1,right,Red_Star_Stripes_1.jpg,Green_Star_Chess_2.jpg,Blue_Plus_Dots_1.jpg,right,826.310000004014,true,low,false
kW8oNHLG,3ygyp13654mlicup3w1l36spsdqnrt,3xc1o3lbowzaxb2qmav3fdlant2tl8,kW8oNHLG,2020-0188,2020-11-15,08:19:15,08:41:02,NA,incomplete,97,number,0,right,Green_Plus_Dots_4.jpg,Blue_Plus_Stripes_1.jpg,Red_Circle_Grid_4.jpg,right,1001.1150000063935,true,low,false
kW8oNHLG,3ygyp13654mlicup3w1l36spsdqnrt,3xc1o3lbowzaxb2qmav3fdlant2tl8,kW8oNHLG,2020-0188,2020-11-15,08:19:15,08:41:02,NA,incomplete,98,number,1,right,Blue_Star_Chess_3.jpg,Red_Star_Dots_2.jpg,Purple_Triangle_Grid_3.jpg,right,1163.9049999939743,true,low,false
kW8oNHLG,3ygyp13654mlicup3w1l36spsdqnrt,3xc1o3lbowzaxb2qmav3fdlant2tl8,kW8oNHLG,2020-0188,2020-11-15,08:19:15,08:41:02,NA,incomplete,99,number,0,left,Blue_Triangle_Stripes_2.jpg,Green_Circle_Chess_2.jpg,Red_Triangle_Dots_1.jpg,left,951.0399999999208,true,low,false
kW8oNHLG,3ygyp13654mlicup3w1l36spsdqnrt,3xc1o3lbowzaxb2qmav3fdlant2tl8,kW8oNHLG,2020-0188,2020-11-15,08:19:15,08:41:02,NA,incomplete,100,number,0,left,Purple_Plus_Dots_4.jpg,Red_Star_Grid_4.jpg,Green_Plus_Stripes_3.jpg,right,777.4549999885494,false,low,false
kW8oNHLG,3ygyp13654mlicup3w1l36spsdqnrt,3xc1o3lbowzaxb2qmav3fdlant2tl8,kW8oNHLG,2020-0188,2020-11-15,08:19:15,08:41:02,NA,incomplete,101,number,1,left,Blue_Star_Grid_1.jpg,Purple_Circle_Chess_1.jpg,Red_Star_Dots_3.jpg,right,1059.464999998454,false,low,false
kW8oNHLG,3ygyp13654mlicup3w1l36spsdqnrt,3xc1o3lbowzaxb2qmav3fdlant2tl8,kW8oNHLG,2020-0188,2020-11-15,08:19:15,08:41:02,NA,incomplete,102,number,1,right,Purple_Star_Dots_1.jpg,Blue_Star_Chess_4.jpg,Green_Triangle_Grid_1.jpg,left,734.2900000076042,false,low,false
kW8oNHLG,3ygyp13654mlicup3w1l36spsdqnrt,3xc1o3lbowzaxb2qmav3fdlant2tl8,kW8oNHLG,2020-0188,2020-11-15,08:19:15,08:41:02,NA,incomplete,103,number,1,right,Green_Triangle_Stripes_4.jpg,Blue_Triangle_Dots_1.jpg,Red_Plus_Grid_4.jpg,right,868.2400000107009,true,low,false
kW8oNHLG,3ygyp13654mlicup3w1l36spsdqnrt,3xc1o3lbowzaxb2qmav3fdlant2tl8,kW8oNHLG,2020-0188,2020-11-15,08:19:15,08:41:02,NA,incomplete,104,number,0,right,Blue_Plus_Chess_2.jpg,Red_Plus_Dots_1.jpg,Purple_Triangle_Stripes_2.jpg,right,842.2649999993155,true,low,false
kW8oNHLG,3ygyp13654mlicup3w1l36spsdqnrt,3xc1o3lbowzaxb2qmav3fdlant2tl8,kW8oNHLG,2020-0188,2020-11-15,08:19:15,08:41:02,NA,incomplete,105,number,1,left,Green_Plus_Grid_1.jpg,Blue_Triangle_Chess_1.jpg,Purple_Plus_Dots_4.jpg,left,863.0750000011176,true,low,false
kW8oNHLG,3ygyp13654mlicup3w1l36spsdqnrt,3xc1o3lbowzaxb2qmav3fdlant2tl8,kW8oNHLG,2020-0188,2020-11-15,08:19:15,08:41:02,NA,incomplete,106,number,1,left,Green_Circle_Chess_3.jpg,Purple_Plus_Grid_3.jpg,Blue_Circle_Stripes_4.jpg,left,970.7449999987148,true,low,false
kW8oNHLG,3ygyp13654mlicup3w1l36spsdqnrt,3xc1o3lbowzaxb2qmav3fdlant2tl8,kW8oNHLG,2020-0188,2020-11-15,08:19:15,08:41:02,NA,incomplete,107,number,1,left,Red_Triangle_Stripes_4.jpg,Green_Circle_Chess_4.jpg,Blue_Triangle_Dots_2.jpg,left,871.0149999969872,true,low,false
kW8oNHLG,3ygyp13654mlicup3w1l36spsdqnrt,3xc1o3lbowzaxb2qmav3fdlant2tl8,kW8oNHLG,2020-0188,2020-11-15,08:19:15,08:41:02,NA,incomplete,108,number,1,right,Blue_Plus_Grid_3.jpg,Purple_Plus_Stripes_1.jpg,Green_Star_Chess_3.jpg,right,899.5900000008987,true,low,false
kW8oNHLG,3ygyp13654mlicup3w1l36spsdqnrt,3xc1o3lbowzaxb2qmav3fdlant2tl8,kW8oNHLG,2020-0188,2020-11-15,08:19:15,08:41:02,NA,incomplete,109,number,1,left,Blue_Triangle_Stripes_1.jpg,Red_Circle_Grid_1.jpg,Purple_Triangle_Dots_4.jpg,left,773.4849999978906,true,low,false
kW8oNHLG,3ygyp13654mlicup3w1l36spsdqnrt,3xc1o3lbowzaxb2qmav3fdlant2tl8,kW8oNHLG,2020-0188,2020-11-15,08:19:15,08:41:02,NA,incomplete,110,number,1,right,Purple_Circle_Chess_1.jpg,Green_Circle_Dots_4.jpg,Red_Plus_Stripes_1.jpg,right,835.3449999995064,true,low,false
kW8oNHLG,3ygyp13654mlicup3w1l36spsdqnrt,3xc1o3lbowzaxb2qmav3fdlant2tl8,kW8oNHLG,2020-0188,2020-11-15,08:19:15,08:41:02,NA,incomplete,111,number,1,right,Red_Star_Dots_1.jpg,Green_Star_Stripes_4.jpg,Blue_Circle_Chess_1.jpg,right,726.2249999912456,true,low,false
kW8oNHLG,3ygyp13654mlicup3w1l36spsdqnrt,3xc1o3lbowzaxb2qmav3fdlant2tl8,kW8oNHLG,2020-0188,2020-11-15,08:19:15,08:41:02,NA,incomplete,112,number,0,left,Blue_Triangle_Grid_1.jpg,Red_Circle_Chess_1.jpg,Green_Triangle_Stripes_4.jpg,left,703.6999999982072,true,low,false
kW8oNHLG,3ygyp13654mlicup3w1l36spsdqnrt,3xc1o3lbowzaxb2qmav3fdlant2tl8,kW8oNHLG,2020-0188,2020-11-15,08:19:15,08:41:02,NA,incomplete,113,number,1,left,Purple_Star_Chess_3.jpg,Red_Triangle_Dots_3.jpg,Blue_Star_Stripes_4.jpg,right,1340.6249999970896,false,low,false
kW8oNHLG,3ygyp13654mlicup3w1l36spsdqnrt,3xc1o3lbowzaxb2qmav3fdlant2tl8,kW8oNHLG,2020-0188,2020-11-15,08:19:15,08:41:02,NA,incomplete,114,number,1,right,Green_Plus_Stripes_4.jpg,Blue_Plus_Chess_1.jpg,Purple_Circle_Grid_4.jpg,right,1016.5049999923212,true,low,false
kW8oNHLG,3ygyp13654mlicup3w1l36spsdqnrt,3xc1o3lbowzaxb2qmav3fdlant2tl8,kW8oNHLG,2020-0188,2020-11-15,08:19:15,08:41:02,NA,incomplete,115,number,0,left,Green_Triangle_Dots_4.jpg,Red_Plus_Chess_4.jpg,Blue_Triangle_Stripes_2.jpg,left,789.31000000739,true,low,false
kW8oNHLG,3ygyp13654mlicup3w1l36spsdqnrt,3xc1o3lbowzaxb2qmav3fdlant2tl8,kW8oNHLG,2020-0188,2020-11-15,08:19:15,08:41:02,NA,incomplete,116,number,0,left,Green_Star_Stripes_1.jpg,Blue_Triangle_Grid_1.jpg,Red_Star_Chess_4.jpg,right,962.2950000048149,false,low,false
kW8oNHLG,3ygyp13654mlicup3w1l36spsdqnrt,3xc1o3lbowzaxb2qmav3fdlant2tl8,kW8oNHLG,2020-0188,2020-11-15,08:19:15,08:41:02,NA,incomplete,117,number,0,left,Blue_Star_Chess_2.jpg,Green_Plus_Stripes_2.jpg,Red_Star_Dots_1.jpg,right,812.5949999957811,false,low,false
kW8oNHLG,3ygyp13654mlicup3w1l36spsdqnrt,3xc1o3lbowzaxb2qmav3fdlant2tl8,kW8oNHLG,2020-0188,2020-11-15,08:19:15,08:41:02,NA,incomplete,118,number,0,left,Purple_Circle_Stripes_1.jpg,Green_Plus_Chess_1.jpg,Red_Circle_Grid_2.jpg,right,964.944999999716,false,low,false
kW8oNHLG,3ygyp13654mlicup3w1l36spsdqnrt,3xc1o3lbowzaxb2qmav3fdlant2tl8,kW8oNHLG,2020-0188,2020-11-15,08:19:15,08:41:02,NA,incomplete,119,number,1,right,Blue_Triangle_Stripes_3.jpg,Purple_Triangle_Grid_2.jpg,Green_Plus_Chess_3.jpg,left,998.6300000018673,false,low,false
kW8oNHLG,3ygyp13654mlicup3w1l36spsdqnrt,3xc1o3lbowzaxb2qmav3fdlant2tl8,kW8oNHLG,2020-0188,2020-11-15,08:19:15,08:41:02,NA,incomplete,120,shape,1,right,Red_Star_Grid_4.jpg,Green_Triangle_Stripes_4.jpg,Purple_Star_Dots_3.jpg,right,1063.5549999860814,true,low,false
kW8oNHLG,3ygyp13654mlicup3w1l36spsdqnrt,3xc1o3lbowzaxb2qmav3fdlant2tl8,kW8oNHLG,2020-0188,2020-11-15,08:19:15,08:41:02,NA,incomplete,121,shape,1,left,Blue_Circle_Stripes_1.jpg,Purple_Circle_Chess_3.jpg,Red_Triangle_Dots_1.jpg,left,894.335000004503,true,low,false
kW8oNHLG,3ygyp13654mlicup3w1l36spsdqnrt,3xc1o3lbowzaxb2qmav3fdlant2tl8,kW8oNHLG,2020-0188,2020-11-15,08:19:15,08:41:02,NA,incomplete,122,shape,0,right,Red_Circle_Chess_1.jpg,Green_Star_Grid_1.jpg,Purple_Circle_Stripes_2.jpg,right,707.6550000056159,true,low,false
kW8oNHLG,3ygyp13654mlicup3w1l36spsdqnrt,3xc1o3lbowzaxb2qmav3fdlant2tl8,kW8oNHLG,2020-0188,2020-11-15,08:19:15,08:41:02,NA,incomplete,123,shape,1,left,Red_Plus_Stripes_3.jpg,Purple_Plus_Grid_4.jpg,Blue_Star_Dots_3.jpg,left,1351.3200000015786,true,low,false
kW8oNHLG,3ygyp13654mlicup3w1l36spsdqnrt,3xc1o3lbowzaxb2qmav3fdlant2tl8,kW8oNHLG,2020-0188,2020-11-15,08:19:15,08:41:02,NA,incomplete,124,shape,1,right,Green_Star_Stripes_1.jpg,Blue_Circle_Dots_1.jpg,Purple_Star_Grid_4.jpg,right,802.2199999977602,true,low,false
kW8oNHLG,3ygyp13654mlicup3w1l36spsdqnrt,3xc1o3lbowzaxb2qmav3fdlant2tl8,kW8oNHLG,2020-0188,2020-11-15,08:19:15,08:41:02,NA,incomplete,125,shape,0,right,Red_Circle_Grid_3.jpg,Green_Triangle_Chess_3.jpg,Purple_Circle_Stripes_4.jpg,right,937.6300000003539,true,low,false
kW8oNHLG,3ygyp13654mlicup3w1l36spsdqnrt,3xc1o3lbowzaxb2qmav3fdlant2tl8,kW8oNHLG,2020-0188,2020-11-15,08:19:15,08:41:02,NA,incomplete,126,shape,1,left,Green_Star_Stripes_3.jpg,Purple_Star_Chess_4.jpg,Blue_Plus_Dots_3.jpg,left,1051.6099999949802,true,low,false
kW8oNHLG,3ygyp13654mlicup3w1l36spsdqnrt,3xc1o3lbowzaxb2qmav3fdlant2tl8,kW8oNHLG,2020-0188,2020-11-15,08:19:15,08:41:02,NA,incomplete,127,shape,1,right,Red_Plus_Dots_2.jpg,Purple_Circle_Stripes_2.jpg,Green_Plus_Grid_3.jpg,right,961.314999993192,true,low,false
kW8oNHLG,3ygyp13654mlicup3w1l36spsdqnrt,3xc1o3lbowzaxb2qmav3fdlant2tl8,kW8oNHLG,2020-0188,2020-11-15,08:19:15,08:41:02,NA,incomplete,128,shape,0,left,Purple_Plus_Grid_3.jpg,Red_Plus_Chess_4.jpg,Green_Circle_Stripes_3.jpg,left,729.380000004312,true,low,false
kW8oNHLG,3ygyp13654mlicup3w1l36spsdqnrt,3xc1o3lbowzaxb2qmav3fdlant2tl8,kW8oNHLG,2020-0188,2020-11-15,08:19:15,08:41:02,NA,incomplete,129,shape,1,left,Purple_Star_Dots_2.jpg,Green_Star_Stripes_4.jpg,Red_Triangle_Grid_2.jpg,left,950.5050000007031,true,low,false
kW8oNHLG,3ygyp13654mlicup3w1l36spsdqnrt,3xc1o3lbowzaxb2qmav3fdlant2tl8,kW8oNHLG,2020-0188,2020-11-15,08:19:15,08:41:02,NA,incomplete,130,shape,1,right,Purple_Plus_Stripes_2.jpg,Blue_Star_Dots_2.jpg,Green_Plus_Grid_1.jpg,right,812.1899999969173,true,low,false
kW8oNHLG,3ygyp13654mlicup3w1l36spsdqnrt,3xc1o3lbowzaxb2qmav3fdlant2tl8,kW8oNHLG,2020-0188,2020-11-15,08:19:15,08:41:02,NA,incomplete,131,shape,1,right,Purple_Circle_Grid_2.jpg,Green_Triangle_Chess_2.jpg,Blue_Circle_Stripes_4.jpg,right,765.800000008312,true,low,false
kW8oNHLG,3ygyp13654mlicup3w1l36spsdqnrt,3xc1o3lbowzaxb2qmav3fdlant2tl8,kW8oNHLG,2020-0188,2020-11-15,08:19:15,08:41:02,NA,incomplete,132,shape,1,left,Purple_Plus_Grid_2.jpg,Red_Plus_Dots_3.jpg,Blue_Triangle_Chess_2.jpg,left,892.3799999902258,true,low,false
kW8oNHLG,3ygyp13654mlicup3w1l36spsdqnrt,3xc1o3lbowzaxb2qmav3fdlant2tl8,kW8oNHLG,2020-0188,2020-11-15,08:19:15,08:41:02,NA,incomplete,133,shape,0,left,Red_Triangle_Dots_3.jpg,Blue_Triangle_Stripes_4.jpg,Green_Plus_Grid_3.jpg,left,823.3650000038324,true,low,false
kW8oNHLG,3ygyp13654mlicup3w1l36spsdqnrt,3xc1o3lbowzaxb2qmav3fdlant2tl8,kW8oNHLG,2020-0188,2020-11-15,08:19:15,08:41:02,NA,incomplete,134,shape,1,left,Red_Plus_Grid_2.jpg,Green_Plus_Chess_3.jpg,Blue_Triangle_Dots_2.jpg,left,883.9500000030966,true,low,false
kW8oNHLG,3ygyp13654mlicup3w1l36spsdqnrt,3xc1o3lbowzaxb2qmav3fdlant2tl8,kW8oNHLG,2020-0188,2020-11-15,08:19:15,08:41:02,NA,incomplete,135,shape,1,right,Green_Triangle_Dots_4.jpg,Purple_Circle_Stripes_4.jpg,Red_Triangle_Grid_2.jpg,right,741.3549999910174,true,low,false
kW8oNHLG,3ygyp13654mlicup3w1l36spsdqnrt,3xc1o3lbowzaxb2qmav3fdlant2tl8,kW8oNHLG,2020-0188,2020-11-15,08:19:15,08:41:02,NA,incomplete,136,shape,1,left,Purple_Triangle_Stripes_1.jpg,Red_Triangle_Dots_3.jpg,Green_Circle_Chess_1.jpg,left,710.3249999927357,true,low,false
kW8oNHLG,3ygyp13654mlicup3w1l36spsdqnrt,3xc1o3lbowzaxb2qmav3fdlant2tl8,kW8oNHLG,2020-0188,2020-11-15,08:19:15,08:41:02,NA,incomplete,137,shape,1,right,Blue_Circle_Dots_2.jpg,Purple_Star_Grid_2.jpg,Red_Circle_Stripes_3.jpg,right,669.5049999980256,true,low,false
kW8oNHLG,3ygyp13654mlicup3w1l36spsdqnrt,3xc1o3lbowzaxb2qmav3fdlant2tl8,kW8oNHLG,2020-0188,2020-11-15,08:19:15,08:41:02,NA,incomplete,138,shape,1,left,Red_Plus_Chess_1.jpg,Green_Plus_Dots_2.jpg,Purple_Star_Grid_1.jpg,left,928.234999999404,true,low,false
kW8oNHLG,3ygyp13654mlicup3w1l36spsdqnrt,3xc1o3lbowzaxb2qmav3fdlant2tl8,kW8oNHLG,2020-0188,2020-11-15,08:19:15,08:41:02,NA,incomplete,139,shape,1,right,Blue_Circle_Stripes_2.jpg,Green_Star_Grid_2.jpg,Red_Circle_Dots_4.jpg,right,760.775000002468,true,low,false
kW8oNHLG,3ygyp13654mlicup3w1l36spsdqnrt,3xc1o3lbowzaxb2qmav3fdlant2tl8,kW8oNHLG,2020-0188,2020-11-15,08:19:15,08:41:02,NA,incomplete,140,number,1,right,Purple_Plus_Grid_1.jpg,Red_Plus_Chess_2.jpg,Blue_Circle_Stripes_1.jpg,left,658.3649999956833,false,low,false
kW8oNHLG,3ygyp13654mlicup3w1l36spsdqnrt,3xc1o3lbowzaxb2qmav3fdlant2tl8,kW8oNHLG,2020-0188,2020-11-15,08:19:15,08:41:02,NA,incomplete,141,number,0,left,Green_Circle_Grid_2.jpg,Blue_Plus_Dots_2.jpg,Purple_Circle_Stripes_3.jpg,right,842.9200000100536,false,low,false
kW8oNHLG,3ygyp13654mlicup3w1l36spsdqnrt,3xc1o3lbowzaxb2qmav3fdlant2tl8,kW8oNHLG,2020-0188,2020-11-15,08:19:15,08:41:02,NA,incomplete,142,number,1,right,Green_Plus_Stripes_2.jpg,Red_Plus_Dots_4.jpg,Purple_Triangle_Grid_2.jpg,left,815.5949999927543,false,low,false
kW8oNHLG,3ygyp13654mlicup3w1l36spsdqnrt,3xc1o3lbowzaxb2qmav3fdlant2tl8,kW8oNHLG,2020-0188,2020-11-15,08:19:15,08:41:02,NA,incomplete,143,number,1,left,Red_Triangle_Stripes_2.jpg,Blue_Circle_Grid_2.jpg,Green_Triangle_Dots_3.jpg,right,685.0550000090152,false,low,false
kW8oNHLG,3ygyp13654mlicup3w1l36spsdqnrt,3xc1o3lbowzaxb2qmav3fdlant2tl8,kW8oNHLG,2020-0188,2020-11-15,08:19:15,08:41:02,NA,incomplete,144,number,1,right,Blue_Circle_Chess_3.jpg,Red_Circle_Dots_2.jpg,Green_Star_Grid_3.jpg,right,849.6400000003632,true,low,false
kW8oNHLG,3ygyp13654mlicup3w1l36spsdqnrt,3xc1o3lbowzaxb2qmav3fdlant2tl8,kW8oNHLG,2020-0188,2020-11-15,08:19:15,08:41:02,NA,incomplete,145,number,1,left,Red_Circle_Chess_2.jpg,Green_Triangle_Dots_2.jpg,Purple_Circle_Stripes_4.jpg,left,1009.2149999982212,true,low,false
kW8oNHLG,3ygyp13654mlicup3w1l36spsdqnrt,3xc1o3lbowzaxb2qmav3fdlant2tl8,kW8oNHLG,2020-0188,2020-11-15,08:19:15,08:41:02,NA,incomplete,146,number,1,left,Blue_Triangle_Dots_3.jpg,Purple_Circle_Grid_3.jpg,Red_Triangle_Stripes_2.jpg,left,876.4349999983096,true,low,false
kW8oNHLG,3ygyp13654mlicup3w1l36spsdqnrt,3xc1o3lbowzaxb2qmav3fdlant2tl8,kW8oNHLG,2020-0188,2020-11-15,08:19:15,08:41:02,NA,incomplete,147,number,1,left,Red_Star_Grid_4.jpg,Blue_Triangle_Chess_4.jpg,Green_Star_Stripes_3.jpg,left,936.6849999933038,true,low,false
kW8oNHLG,3ygyp13654mlicup3w1l36spsdqnrt,3xc1o3lbowzaxb2qmav3fdlant2tl8,kW8oNHLG,2020-0188,2020-11-15,08:19:15,08:41:02,NA,incomplete,148,number,0,right,Blue_Triangle_Chess_3.jpg,Green_Triangle_Grid_4.jpg,Red_Star_Dots_3.jpg,right,1005.604999998468,true,low,false
kW8oNHLG,3ygyp13654mlicup3w1l36spsdqnrt,3xc1o3lbowzaxb2qmav3fdlant2tl8,kW8oNHLG,2020-0188,2020-11-15,08:19:15,08:41:02,NA,incomplete,149,number,1,left,Blue_Circle_Dots_1.jpg,Red_Triangle_Stripes_1.jpg,Green_Circle_Grid_3.jpg,left,832.3200000013458,true,low,false
kW8oNHLG,3ygyp13654mlicup3w1l36spsdqnrt,3xc1o3lbowzaxb2qmav3fdlant2tl8,kW8oNHLG,2020-0188,2020-11-15,08:19:15,08:41:02,NA,incomplete,150,number,0,left,Blue_Plus_Chess_4.jpg,Purple_Triangle_Dots_4.jpg,Red_Plus_Grid_2.jpg,left,989.079999999376,true,low,false
kW8oNHLG,3ygyp13654mlicup3w1l36spsdqnrt,3xc1o3lbowzaxb2qmav3fdlant2tl8,kW8oNHLG,2020-0188,2020-11-15,08:19:15,08:41:02,NA,incomplete,151,number,1,right,Blue_Circle_Grid_4.jpg,Green_Circle_Dots_1.jpg,Red_Plus_Stripes_4.jpg,left,778.294999996433,false,low,false
kW8oNHLG,3ygyp13654mlicup3w1l36spsdqnrt,3xc1o3lbowzaxb2qmav3fdlant2tl8,kW8oNHLG,2020-0188,2020-11-15,08:19:15,08:41:02,NA,incomplete,152,number,1,left,Blue_Plus_Stripes_2.jpg,Red_Circle_Chess_2.jpg,Purple_Plus_Grid_4.jpg,left,862.0500000106404,true,low,false
kW8oNHLG,3ygyp13654mlicup3w1l36spsdqnrt,3xc1o3lbowzaxb2qmav3fdlant2tl8,kW8oNHLG,2020-0188,2020-11-15,08:19:15,08:41:02,NA,incomplete,153,number,1,right,Green_Triangle_Chess_1.jpg,Red_Triangle_Stripes_4.jpg,Purple_Star_Dots_1.jpg,right,717.3250000050757,true,low,false
kW8oNHLG,3ygyp13654mlicup3w1l36spsdqnrt,3xc1o3lbowzaxb2qmav3fdlant2tl8,kW8oNHLG,2020-0188,2020-11-15,08:19:15,08:41:02,NA,incomplete,154,number,1,left,Red_Plus_Grid_2.jpg,Blue_Triangle_Dots_2.jpg,Purple_Plus_Chess_3.jpg,left,918.004999999539,true,low,false
kW8oNHLG,3ygyp13654mlicup3w1l36spsdqnrt,3xc1o3lbowzaxb2qmav3fdlant2tl8,kW8oNHLG,2020-0188,2020-11-15,08:19:15,08:41:02,NA,incomplete,155,number,0,left,Red_Star_Dots_2.jpg,Green_Circle_Stripes_2.jpg,Purple_Star_Chess_1.jpg,left,828.57499999227,true,low,false
kW8oNHLG,3ygyp13654mlicup3w1l36spsdqnrt,3xc1o3lbowzaxb2qmav3fdlant2tl8,kW8oNHLG,2020-0188,2020-11-15,08:19:15,08:41:02,NA,incomplete,156,number,1,left,Purple_Circle_Chess_4.jpg,Green_Triangle_Dots_4.jpg,Blue_Circle_Stripes_2.jpg,left,905.7699999975739,true,low,false
kW8oNHLG,3ygyp13654mlicup3w1l36spsdqnrt,3xc1o3lbowzaxb2qmav3fdlant2tl8,kW8oNHLG,2020-0188,2020-11-15,08:19:15,08:41:02,NA,incomplete,157,number,1,left,Red_Star_Dots_3.jpg,Green_Plus_Grid_3.jpg,Blue_Star_Stripes_1.jpg,left,862.1600000042235,true,low,false
kW8oNHLG,3ygyp13654mlicup3w1l36spsdqnrt,3xc1o3lbowzaxb2qmav3fdlant2tl8,kW8oNHLG,2020-0188,2020-11-15,08:19:15,08:41:02,NA,incomplete,158,number,0,right,Blue_Triangle_Grid_2.jpg,Purple_Triangle_Dots_4.jpg,Red_Circle_Stripes_2.jpg,right,879.0549999976065,true,low,false
kW8oNHLG,3ygyp13654mlicup3w1l36spsdqnrt,3xc1o3lbowzaxb2qmav3fdlant2tl8,kW8oNHLG,2020-0188,2020-11-15,08:19:15,08:41:02,NA,incomplete,159,number,1,right,Red_Triangle_Stripes_2.jpg,Blue_Triangle_Grid_3.jpg,Purple_Circle_Dots_2.jpg,right,862.399999998277,true,low,false
kW8oNHLG,3ygyp13654mlicup3w1l36spsdqnrt,3xc1o3lbowzaxb2qmav3fdlant2tl8,kW8oNHLG,2020-0188,2020-11-15,08:19:15,08:41:02,NA,incomplete,160,shape,1,left,Purple_Star_Stripes_1.jpg,Red_Star_Grid_4.jpg,Blue_Plus_Dots_1.jpg,right,806.5449999994598,false,low,false
kW8oNHLG,3ygyp13654mlicup3w1l36spsdqnrt,3xc1o3lbowzaxb2qmav3fdlant2tl8,kW8oNHLG,2020-0188,2020-11-15,08:19:15,08:41:02,NA,incomplete,161,shape,1,right,Red_Star_Chess_4.jpg,Green_Triangle_Stripes_4.jpg,Blue_Star_Dots_1.jpg,right,1287.7650000010617,true,low,false
kW8oNHLG,3ygyp13654mlicup3w1l36spsdqnrt,3xc1o3lbowzaxb2qmav3fdlant2tl8,kW8oNHLG,2020-0188,2020-11-15,08:19:15,08:41:02,NA,incomplete,162,shape,1,left,Green_Star_Dots_4.jpg,Purple_Star_Chess_1.jpg,Blue_Plus_Stripes_4.jpg,left,811.9100000038743,true,low,false
kW8oNHLG,3ygyp13654mlicup3w1l36spsdqnrt,3xc1o3lbowzaxb2qmav3fdlant2tl8,kW8oNHLG,2020-0188,2020-11-15,08:19:15,08:41:02,NA,incomplete,163,shape,0,left,Blue_Plus_Stripes_4.jpg,Red_Plus_Dots_2.jpg,Purple_Triangle_Grid_4.jpg,left,1186.4700000006706,true,low,false
kW8oNHLG,3ygyp13654mlicup3w1l36spsdqnrt,3xc1o3lbowzaxb2qmav3fdlant2tl8,kW8oNHLG,2020-0188,2020-11-15,08:19:15,08:41:02,NA,incomplete,164,shape,1,right,Purple_Plus_Grid_1.jpg,Blue_Triangle_Dots_1.jpg,Green_Plus_Chess_4.jpg,right,879.7300000006799,true,low,false
kW8oNHLG,3ygyp13654mlicup3w1l36spsdqnrt,3xc1o3lbowzaxb2qmav3fdlant2tl8,kW8oNHLG,2020-0188,2020-11-15,08:19:15,08:41:02,NA,incomplete,165,shape,0,left,Blue_Triangle_Grid_1.jpg,Green_Triangle_Chess_3.jpg,Purple_Star_Dots_1.jpg,left,855.665000010049,true,low,false
kW8oNHLG,3ygyp13654mlicup3w1l36spsdqnrt,3xc1o3lbowzaxb2qmav3fdlant2tl8,kW8oNHLG,2020-0188,2020-11-15,08:19:15,08:41:02,NA,incomplete,166,shape,1,left,Blue_Triangle_Dots_3.jpg,Green_Triangle_Chess_1.jpg,Purple_Plus_Grid_3.jpg,left,1100.8500000024214,true,low,false
kW8oNHLG,3ygyp13654mlicup3w1l36spsdqnrt,3xc1o3lbowzaxb2qmav3fdlant2tl8,kW8oNHLG,2020-0188,2020-11-15,08:19:15,08:41:02,NA,incomplete,167,shape,1,left,Green_Triangle_Dots_3.jpg,Red_Triangle_Grid_4.jpg,Blue_Circle_Chess_3.jpg,left,906.0200000093319,true,low,false
kW8oNHLG,3ygyp13654mlicup3w1l36spsdqnrt,3xc1o3lbowzaxb2qmav3fdlant2tl8,kW8oNHLG,2020-0188,2020-11-15,08:19:15,08:41:02,NA,incomplete,168,shape,1,right,Red_Plus_Chess_4.jpg,Blue_Triangle_Grid_4.jpg,Green_Plus_Dots_1.jpg,left,827.5450000073761,false,low,false
kW8oNHLG,3ygyp13654mlicup3w1l36spsdqnrt,3xc1o3lbowzaxb2qmav3fdlant2tl8,kW8oNHLG,2020-0188,2020-11-15,08:19:15,08:41:02,NA,incomplete,169,shape,0,right,Green_Star_Grid_1.jpg,Purple_Triangle_Dots_1.jpg,Red_Star_Chess_2.jpg,right,1125.0900000014808,true,low,false
kW8oNHLG,3ygyp13654mlicup3w1l36spsdqnrt,3xc1o3lbowzaxb2qmav3fdlant2tl8,kW8oNHLG,2020-0188,2020-11-15,08:19:15,08:41:02,NA,incomplete,170,shape,1,left,Red_Star_Grid_4.jpg,Green_Star_Stripes_1.jpg,Purple_Triangle_Dots_4.jpg,right,837.1200000112876,false,low,false
kW8oNHLG,3ygyp13654mlicup3w1l36spsdqnrt,3xc1o3lbowzaxb2qmav3fdlant2tl8,kW8oNHLG,2020-0188,2020-11-15,08:19:15,08:41:02,NA,incomplete,171,shape,1,left,Blue_Circle_Stripes_3.jpg,Red_Circle_Grid_2.jpg,Green_Star_Dots_3.jpg,left,691.4700000050943,true,low,false
kW8oNHLG,3ygyp13654mlicup3w1l36spsdqnrt,3xc1o3lbowzaxb2qmav3fdlant2tl8,kW8oNHLG,2020-0188,2020-11-15,08:19:15,08:41:02,NA,incomplete,172,shape,0,left,Purple_Star_Stripes_3.jpg,Green_Star_Grid_1.jpg,Blue_Triangle_Dots_3.jpg,left,901.519999999553,true,low,false
kW8oNHLG,3ygyp13654mlicup3w1l36spsdqnrt,3xc1o3lbowzaxb2qmav3fdlant2tl8,kW8oNHLG,2020-0188,2020-11-15,08:19:15,08:41:02,NA,incomplete,173,shape,1,left,Purple_Circle_Chess_4.jpg,Blue_Circle_Grid_3.jpg,Red_Star_Dots_4.jpg,left,1031.5249999985099,true,low,false
kW8oNHLG,3ygyp13654mlicup3w1l36spsdqnrt,3xc1o3lbowzaxb2qmav3fdlant2tl8,kW8oNHLG,2020-0188,2020-11-15,08:19:15,08:41:02,NA,incomplete,174,shape,1,right,Red_Plus_Stripes_1.jpg,Blue_Triangle_Grid_1.jpg,Green_Plus_Dots_3.jpg,right,1206.0449999989942,true,low,false
kW8oNHLG,3ygyp13654mlicup3w1l36spsdqnrt,3xc1o3lbowzaxb2qmav3fdlant2tl8,kW8oNHLG,2020-0188,2020-11-15,08:19:15,08:41:02,NA,incomplete,175,shape,1,left,Purple_Star_Chess_1.jpg,Blue_Star_Dots_2.jpg,Red_Circle_Grid_1.jpg,left,672.6550000021234,true,low,false
kW8oNHLG,3ygyp13654mlicup3w1l36spsdqnrt,3xc1o3lbowzaxb2qmav3fdlant2tl8,kW8oNHLG,2020-0188,2020-11-15,08:19:15,08:41:02,NA,incomplete,176,shape,1,left,Green_Plus_Stripes_2.jpg,Red_Plus_Chess_4.jpg,Blue_Circle_Dots_2.jpg,left,747.7150000049733,true,low,false
kW8oNHLG,3ygyp13654mlicup3w1l36spsdqnrt,3xc1o3lbowzaxb2qmav3fdlant2tl8,kW8oNHLG,2020-0188,2020-11-15,08:19:15,08:41:02,NA,incomplete,177,shape,0,left,Red_Plus_Dots_3.jpg,Purple_Plus_Grid_2.jpg,Blue_Triangle_Chess_3.jpg,left,1011.0750000022817,true,low,false
kW8oNHLG,3ygyp13654mlicup3w1l36spsdqnrt,3xc1o3lbowzaxb2qmav3fdlant2tl8,kW8oNHLG,2020-0188,2020-11-15,08:19:15,08:41:02,NA,incomplete,178,shape,1,left,Purple_Star_Stripes_2.jpg,Green_Star_Chess_3.jpg,Blue_Triangle_Dots_2.jpg,left,885.9249999951571,true,low,false
kW8oNHLG,3ygyp13654mlicup3w1l36spsdqnrt,3xc1o3lbowzaxb2qmav3fdlant2tl8,kW8oNHLG,2020-0188,2020-11-15,08:19:15,08:41:02,NA,incomplete,179,shape,1,left,Blue_Triangle_Chess_2.jpg,Purple_Triangle_Dots_1.jpg,Green_Star_Grid_2.jpg,left,823.2500000011642,true,low,false
kW8oNHLG,3ygyp13654mlicup3w1l36spsdqnrt,3xc1o3lbowzaxb2qmav3fdlant2tl8,kW8oNHLG,2020-0188,2020-11-15,08:19:15,08:41:02,NA,incomplete,180,number,1,left,Green_Circle_Grid_3.jpg,Red_Star_Dots_3.jpg,Purple_Circle_Stripes_1.jpg,right,852.0299999946728,false,low,false
kW8oNHLG,3ygyp13654mlicup3w1l36spsdqnrt,3xc1o3lbowzaxb2qmav3fdlant2tl8,kW8oNHLG,2020-0188,2020-11-15,08:19:15,08:41:02,NA,incomplete,181,number,1,right,Red_Plus_Grid_1.jpg,Green_Plus_Chess_4.jpg,Purple_Circle_Dots_1.jpg,left,903.3999999954831,false,low,false
kW8oNHLG,3ygyp13654mlicup3w1l36spsdqnrt,3xc1o3lbowzaxb2qmav3fdlant2tl8,kW8oNHLG,2020-0188,2020-11-15,08:19:15,08:41:02,NA,incomplete,182,number,1,left,Green_Star_Stripes_4.jpg,Purple_Plus_Chess_4.jpg,Red_Star_Dots_2.jpg,left,750.2800000077114,true,low,false
kW8oNHLG,3ygyp13654mlicup3w1l36spsdqnrt,3xc1o3lbowzaxb2qmav3fdlant2tl8,kW8oNHLG,2020-0188,2020-11-15,08:19:15,08:41:02,NA,incomplete,183,number,1,left,Red_Plus_Dots_4.jpg,Blue_Star_Grid_4.jpg,Purple_Plus_Stripes_1.jpg,left,845.909999989206,true,low,false
kW8oNHLG,3ygyp13654mlicup3w1l36spsdqnrt,3xc1o3lbowzaxb2qmav3fdlant2tl8,kW8oNHLG,2020-0188,2020-11-15,08:19:15,08:41:02,NA,incomplete,184,number,0,left,Purple_Triangle_Dots_3.jpg,Green_Star_Stripes_3.jpg,Blue_Triangle_Grid_1.jpg,left,870.030000005383,true,low,false
kW8oNHLG,3ygyp13654mlicup3w1l36spsdqnrt,3xc1o3lbowzaxb2qmav3fdlant2tl8,kW8oNHLG,2020-0188,2020-11-15,08:19:15,08:41:02,NA,incomplete,185,number,1,right,Red_Circle_Dots_4.jpg,Purple_Circle_Stripes_3.jpg,Blue_Star_Grid_4.jpg,right,938.7900000000373,true,low,false
kW8oNHLG,3ygyp13654mlicup3w1l36spsdqnrt,3xc1o3lbowzaxb2qmav3fdlant2tl8,kW8oNHLG,2020-0188,2020-11-15,08:19:15,08:41:02,NA,incomplete,186,number,1,left,Purple_Triangle_Stripes_3.jpg,Green_Star_Dots_3.jpg,Blue_Triangle_Grid_4.jpg,left,991.945000001695,true,low,false
kW8oNHLG,3ygyp13654mlicup3w1l36spsdqnrt,3xc1o3lbowzaxb2qmav3fdlant2tl8,kW8oNHLG,2020-0188,2020-11-15,08:19:15,08:41:02,NA,incomplete,187,number,1,left,Purple_Triangle_Chess_1.jpg,Green_Circle_Dots_1.jpg,Red_Triangle_Stripes_4.jpg,left,957.4700000085868,true,low,false
kW8oNHLG,3ygyp13654mlicup3w1l36spsdqnrt,3xc1o3lbowzaxb2qmav3fdlant2tl8,kW8oNHLG,2020-0188,2020-11-15,08:19:15,08:41:02,NA,incomplete,188,number,1,left,Purple_Plus_Chess_3.jpg,Red_Triangle_Stripes_3.jpg,Blue_Plus_Grid_1.jpg,left,824.7899999986403,true,low,false
kW8oNHLG,3ygyp13654mlicup3w1l36spsdqnrt,3xc1o3lbowzaxb2qmav3fdlant2tl8,kW8oNHLG,2020-0188,2020-11-15,08:19:15,08:41:02,NA,incomplete,189,number,1,right,Blue_Circle_Chess_1.jpg,Red_Circle_Stripes_3.jpg,Purple_Star_Grid_1.jpg,right,833.2400000072084,true,low,false
kW8oNHLG,3ygyp13654mlicup3w1l36spsdqnrt,3xc1o3lbowzaxb2qmav3fdlant2tl8,kW8oNHLG,2020-0188,2020-11-15,08:19:15,08:41:02,NA,incomplete,190,number,1,right,Purple_Triangle_Chess_4.jpg,Red_Triangle_Grid_3.jpg,Blue_Star_Dots_4.jpg,right,902.925000002142,true,low,false
kW8oNHLG,3ygyp13654mlicup3w1l36spsdqnrt,3xc1o3lbowzaxb2qmav3fdlant2tl8,kW8oNHLG,2020-0188,2020-11-15,08:19:15,08:41:02,NA,incomplete,191,number,1,left,Green_Plus_Dots_1.jpg,Blue_Triangle_Chess_1.jpg,Red_Plus_Stripes_3.jpg,left,726.1699999945704,true,low,false
kW8oNHLG,3ygyp13654mlicup3w1l36spsdqnrt,3xc1o3lbowzaxb2qmav3fdlant2tl8,kW8oNHLG,2020-0188,2020-11-15,08:19:15,08:41:02,NA,incomplete,192,number,1,right,Purple_Triangle_Dots_2.jpg,Blue_Triangle_Stripes_3.jpg,Red_Star_Grid_2.jpg,right,851.1299999956973,true,low,false
kW8oNHLG,3ygyp13654mlicup3w1l36spsdqnrt,3xc1o3lbowzaxb2qmav3fdlant2tl8,kW8oNHLG,2020-0188,2020-11-15,08:19:15,08:41:02,NA,incomplete,193,number,1,left,Red_Plus_Chess_1.jpg,Blue_Triangle_Dots_1.jpg,Purple_Plus_Grid_3.jpg,left,686.0449999948032,true,low,false
kW8oNHLG,3ygyp13654mlicup3w1l36spsdqnrt,3xc1o3lbowzaxb2qmav3fdlant2tl8,kW8oNHLG,2020-0188,2020-11-15,08:19:15,08:41:02,NA,incomplete,194,number,1,right,Green_Star_Dots_2.jpg,Purple_Star_Grid_1.jpg,Blue_Triangle_Stripes_2.jpg,right,783.8899999917485,true,low,false
kW8oNHLG,3ygyp13654mlicup3w1l36spsdqnrt,3xc1o3lbowzaxb2qmav3fdlant2tl8,kW8oNHLG,2020-0188,2020-11-15,08:19:15,08:41:02,NA,incomplete,195,number,0,right,Blue_Triangle_Grid_1.jpg,Purple_Triangle_Dots_3.jpg,Red_Plus_Stripes_1.jpg,right,649.2599999911617,true,low,false
kW8oNHLG,3ygyp13654mlicup3w1l36spsdqnrt,3xc1o3lbowzaxb2qmav3fdlant2tl8,kW8oNHLG,2020-0188,2020-11-15,08:19:15,08:41:02,NA,incomplete,196,number,1,right,Green_Plus_Grid_3.jpg,Purple_Plus_Chess_1.jpg,Red_Star_Stripes_3.jpg,right,876.5399999974761,true,low,false
kW8oNHLG,3ygyp13654mlicup3w1l36spsdqnrt,3xc1o3lbowzaxb2qmav3fdlant2tl8,kW8oNHLG,2020-0188,2020-11-15,08:19:15,08:41:02,NA,incomplete,197,number,1,left,Purple_Triangle_Dots_2.jpg,Blue_Circle_Grid_2.jpg,Red_Triangle_Stripes_1.jpg,left,807.4650000052061,true,low,false
kW8oNHLG,3ygyp13654mlicup3w1l36spsdqnrt,3xc1o3lbowzaxb2qmav3fdlant2tl8,kW8oNHLG,2020-0188,2020-11-15,08:19:15,08:41:02,NA,incomplete,198,number,1,right,Green_Circle_Grid_3.jpg,Purple_Circle_Chess_2.jpg,Blue_Plus_Stripes_3.jpg,right,837.8300000040326,true,low,false
kW8oNHLG,3ygyp13654mlicup3w1l36spsdqnrt,3xc1o3lbowzaxb2qmav3fdlant2tl8,kW8oNHLG,2020-0188,2020-11-15,08:19:15,08:41:02,NA,incomplete,199,number,1,left,Green_Triangle_Chess_1.jpg,Purple_Plus_Stripes_1.jpg,Blue_Triangle_Dots_3.jpg,left,641.0150000010617,true,low,false
kW8oNHLG,3ygyp13654mlicup3w1l36spsdqnrt,3xc1o3lbowzaxb2qmav3fdlant2tl8,kW8oNHLG,2020-0188,2020-11-15,08:19:15,08:41:02,NA,incomplete,200,shape,1,left,Red_Plus_Chess_2.jpg,Blue_Plus_Stripes_4.jpg,Purple_Star_Grid_2.jpg,right,723.6400000110734,false,low,false
kW8oNHLG,3ygyp13654mlicup3w1l36spsdqnrt,3xc1o3lbowzaxb2qmav3fdlant2tl8,kW8oNHLG,2020-0188,2020-11-15,08:19:15,08:41:02,NA,incomplete,201,shape,1,right,Green_Plus_Grid_3.jpg,Blue_Triangle_Dots_3.jpg,Purple_Plus_Chess_1.jpg,left,711.3549999920651,false,low,false
kW8oNHLG,3ygyp13654mlicup3w1l36spsdqnrt,3xc1o3lbowzaxb2qmav3fdlant2tl8,kW8oNHLG,2020-0188,2020-11-15,08:19:15,08:41:02,NA,incomplete,202,shape,0,right,Red_Triangle_Dots_4.jpg,Blue_Circle_Grid_4.jpg,Purple_Triangle_Chess_2.jpg,right,1150.7799999960698,true,low,false
kW8oNHLG,3ygyp13654mlicup3w1l36spsdqnrt,3xc1o3lbowzaxb2qmav3fdlant2tl8,kW8oNHLG,2020-0188,2020-11-15,08:19:15,08:41:02,NA,incomplete,203,shape,1,left,Green_Star_Dots_4.jpg,Blue_Star_Chess_3.jpg,Red_Circle_Grid_4.jpg,right,928.3500000019558,false,low,false
kW8oNHLG,3ygyp13654mlicup3w1l36spsdqnrt,3xc1o3lbowzaxb2qmav3fdlant2tl8,kW8oNHLG,2020-0188,2020-11-15,08:19:15,08:41:02,NA,incomplete,204,shape,1,right,Red_Plus_Chess_2.jpg,Blue_Triangle_Dots_2.jpg,Green_Plus_Grid_4.jpg,right,900.9000000078231,true,low,false
kW8oNHLG,3ygyp13654mlicup3w1l36spsdqnrt,3xc1o3lbowzaxb2qmav3fdlant2tl8,kW8oNHLG,2020-0188,2020-11-15,08:19:15,08:41:02,NA,incomplete,205,shape,1,right,Blue_Circle_Dots_2.jpg,Green_Plus_Grid_2.jpg,Red_Circle_Stripes_4.jpg,right,883.9750000042841,true,low,false
kW8oNHLG,3ygyp13654mlicup3w1l36spsdqnrt,3xc1o3lbowzaxb2qmav3fdlant2tl8,kW8oNHLG,2020-0188,2020-11-15,08:19:15,08:41:02,NA,incomplete,206,shape,1,right,Purple_Plus_Dots_2.jpg,Green_Triangle_Grid_2.jpg,Red_Plus_Stripes_3.jpg,left,900.494999994291,false,low,false
kW8oNHLG,3ygyp13654mlicup3w1l36spsdqnrt,3xc1o3lbowzaxb2qmav3fdlant2tl8,kW8oNHLG,2020-0188,2020-11-15,08:19:15,08:41:02,NA,incomplete,207,shape,1,right,Green_Star_Dots_3.jpg,Blue_Triangle_Grid_3.jpg,Red_Star_Chess_1.jpg,right,1199.9649999926332,true,low,false
kW8oNHLG,3ygyp13654mlicup3w1l36spsdqnrt,3xc1o3lbowzaxb2qmav3fdlant2tl8,kW8oNHLG,2020-0188,2020-11-15,08:19:15,08:41:02,NA,incomplete,208,shape,1,right,Green_Circle_Chess_1.jpg,Purple_Star_Dots_1.jpg,Blue_Circle_Grid_2.jpg,right,739.6650000009686,true,low,false
kW8oNHLG,3ygyp13654mlicup3w1l36spsdqnrt,3xc1o3lbowzaxb2qmav3fdlant2tl8,kW8oNHLG,2020-0188,2020-11-15,08:19:15,08:41:02,NA,incomplete,209,shape,1,left,Purple_Triangle_Chess_4.jpg,Red_Triangle_Stripes_1.jpg,Green_Star_Grid_4.jpg,left,876.709999996936,true,low,false
kW8oNHLG,3ygyp13654mlicup3w1l36spsdqnrt,3xc1o3lbowzaxb2qmav3fdlant2tl8,kW8oNHLG,2020-0188,2020-11-15,08:19:15,08:41:02,NA,incomplete,210,shape,1,left,Blue_Plus_Stripes_2.jpg,Red_Plus_Grid_1.jpg,Purple_Circle_Chess_2.jpg,left,917.3149999985471,true,low,false
kW8oNHLG,3ygyp13654mlicup3w1l36spsdqnrt,3xc1o3lbowzaxb2qmav3fdlant2tl8,kW8oNHLG,2020-0188,2020-11-15,08:19:15,08:41:02,NA,incomplete,211,shape,0,right,Purple_Star_Chess_4.jpg,Red_Circle_Dots_4.jpg,Blue_Star_Grid_1.jpg,right,905.3350000032224,true,low,false
kW8oNHLG,3ygyp13654mlicup3w1l36spsdqnrt,3xc1o3lbowzaxb2qmav3fdlant2tl8,kW8oNHLG,2020-0188,2020-11-15,08:19:15,08:41:02,NA,incomplete,212,shape,1,right,Blue_Triangle_Chess_4.jpg,Red_Circle_Stripes_4.jpg,Green_Triangle_Dots_1.jpg,right,847.885000010021,true,low,false
kW8oNHLG,3ygyp13654mlicup3w1l36spsdqnrt,3xc1o3lbowzaxb2qmav3fdlant2tl8,kW8oNHLG,2020-0188,2020-11-15,08:19:15,08:41:02,NA,incomplete,213,shape,1,right,Blue_Circle_Stripes_1.jpg,Red_Triangle_Chess_1.jpg,Green_Circle_Grid_2.jpg,right,764.4500000025146,true,low,false
kW8oNHLG,3ygyp13654mlicup3w1l36spsdqnrt,3xc1o3lbowzaxb2qmav3fdlant2tl8,kW8oNHLG,2020-0188,2020-11-15,08:19:15,08:41:02,NA,incomplete,214,shape,1,left,Red_Star_Chess_4.jpg,Blue_Star_Dots_1.jpg,Purple_Circle_Grid_4.jpg,left,960.95500000217,true,low,false
kW8oNHLG,3ygyp13654mlicup3w1l36spsdqnrt,3xc1o3lbowzaxb2qmav3fdlant2tl8,kW8oNHLG,2020-0188,2020-11-15,08:19:15,08:41:02,NA,incomplete,215,shape,1,left,Purple_Triangle_Chess_2.jpg,Blue_Triangle_Stripes_1.jpg,Red_Circle_Grid_2.jpg,left,735.1199999975506,true,low,false
kW8oNHLG,3ygyp13654mlicup3w1l36spsdqnrt,3xc1o3lbowzaxb2qmav3fdlant2tl8,kW8oNHLG,2020-0188,2020-11-15,08:19:15,08:41:02,NA,incomplete,216,shape,1,left,Green_Plus_Dots_4.jpg,Purple_Plus_Grid_3.jpg,Blue_Star_Chess_4.jpg,left,691.209999989951,true,low,false
kW8oNHLG,3ygyp13654mlicup3w1l36spsdqnrt,3xc1o3lbowzaxb2qmav3fdlant2tl8,kW8oNHLG,2020-0188,2020-11-15,08:19:15,08:41:02,NA,incomplete,217,shape,1,right,Red_Triangle_Stripes_4.jpg,Purple_Circle_Dots_4.jpg,Blue_Triangle_Grid_2.jpg,right,705.420000012964,true,low,false
kW8oNHLG,3ygyp13654mlicup3w1l36spsdqnrt,3xc1o3lbowzaxb2qmav3fdlant2tl8,kW8oNHLG,2020-0188,2020-11-15,08:19:15,08:41:02,NA,incomplete,218,shape,0,left,Blue_Plus_Chess_2.jpg,Red_Plus_Grid_4.jpg,Green_Triangle_Dots_2.jpg,left,885.4250000002794,true,low,false
kW8oNHLG,3ygyp13654mlicup3w1l36spsdqnrt,3xc1o3lbowzaxb2qmav3fdlant2tl8,kW8oNHLG,2020-0188,2020-11-15,08:19:15,08:41:02,NA,incomplete,219,shape,1,right,Green_Star_Stripes_3.jpg,Purple_Circle_Dots_3.jpg,Blue_Star_Chess_1.jpg,right,889.5999999949709,true,low,false
kW8oNHLG,3ygyp13654mlicup3w1l36spsdqnrt,3xc1o3lbowzaxb2qmav3fdlant2tl8,kW8oNHLG,2020-0188,2020-11-15,08:19:15,08:41:02,NA,incomplete,220,number,1,left,Blue_Plus_Grid_3.jpg,Green_Circle_Stripes_3.jpg,Red_Plus_Dots_1.jpg,right,707.3999999994412,false,low,false
kW8oNHLG,3ygyp13654mlicup3w1l36spsdqnrt,3xc1o3lbowzaxb2qmav3fdlant2tl8,kW8oNHLG,2020-0188,2020-11-15,08:19:15,08:41:02,NA,incomplete,221,number,1,right,Blue_Star_Stripes_1.jpg,Red_Star_Chess_4.jpg,Green_Triangle_Dots_1.jpg,left,793.560000005411,false,low,false
kW8oNHLG,3ygyp13654mlicup3w1l36spsdqnrt,3xc1o3lbowzaxb2qmav3fdlant2tl8,kW8oNHLG,2020-0188,2020-11-15,08:19:15,08:41:02,NA,incomplete,222,number,1,right,Green_Triangle_Chess_1.jpg,Blue_Triangle_Dots_3.jpg,Red_Circle_Stripes_1.jpg,right,700.0000000116415,true,low,false
kW8oNHLG,3ygyp13654mlicup3w1l36spsdqnrt,3xc1o3lbowzaxb2qmav3fdlant2tl8,kW8oNHLG,2020-0188,2020-11-15,08:19:15,08:41:02,NA,incomplete,223,number,1,left,Blue_Circle_Dots_1.jpg,Red_Star_Stripes_1.jpg,Purple_Circle_Chess_3.jpg,left,720.0149999991991,true,low,false
kW8oNHLG,3ygyp13654mlicup3w1l36spsdqnrt,3xc1o3lbowzaxb2qmav3fdlant2tl8,kW8oNHLG,2020-0188,2020-11-15,08:19:15,08:41:02,NA,incomplete,224,number,0,left,Red_Plus_Stripes_1.jpg,Purple_Triangle_Chess_1.jpg,Blue_Plus_Dots_2.jpg,right,745.1299999956973,false,low,false
kW8oNHLG,3ygyp13654mlicup3w1l36spsdqnrt,3xc1o3lbowzaxb2qmav3fdlant2tl8,kW8oNHLG,2020-0188,2020-11-15,08:19:15,08:41:02,NA,incomplete,225,number,1,right,Blue_Star_Dots_2.jpg,Purple_Star_Grid_1.jpg,Green_Circle_Chess_2.jpg,right,949.810000005411,true,low,false
kW8oNHLG,3ygyp13654mlicup3w1l36spsdqnrt,3xc1o3lbowzaxb2qmav3fdlant2tl8,kW8oNHLG,2020-0188,2020-11-15,08:19:15,08:41:02,NA,incomplete,226,number,1,right,Red_Circle_Grid_4.jpg,Blue_Circle_Chess_3.jpg,Green_Triangle_Dots_4.jpg,right,957.3049999889918,true,low,false
kW8oNHLG,3ygyp13654mlicup3w1l36spsdqnrt,3xc1o3lbowzaxb2qmav3fdlant2tl8,kW8oNHLG,2020-0188,2020-11-15,08:19:15,08:41:02,NA,incomplete,227,number,1,right,Red_Triangle_Chess_4.jpg,Blue_Triangle_Dots_1.jpg,Green_Star_Stripes_4.jpg,right,893.5849999978673,true,low,false
kW8oNHLG,3ygyp13654mlicup3w1l36spsdqnrt,3xc1o3lbowzaxb2qmav3fdlant2tl8,kW8oNHLG,2020-0188,2020-11-15,08:19:15,08:41:02,NA,incomplete,228,number,1,right,Purple_Circle_Stripes_2.jpg,Blue_Circle_Grid_3.jpg,Red_Plus_Chess_2.jpg,right,707.2649999898858,true,low,false
kW8oNHLG,3ygyp13654mlicup3w1l36spsdqnrt,3xc1o3lbowzaxb2qmav3fdlant2tl8,kW8oNHLG,2020-0188,2020-11-15,08:19:15,08:41:02,NA,incomplete,229,number,1,right,Purple_Star_Stripes_1.jpg,Blue_Star_Dots_2.jpg,Red_Circle_Grid_1.jpg,right,721.7150000070687,true,low,false
kW8oNHLG,3ygyp13654mlicup3w1l36spsdqnrt,3xc1o3lbowzaxb2qmav3fdlant2tl8,kW8oNHLG,2020-0188,2020-11-15,08:19:15,08:41:02,NA,incomplete,230,number,0,right,Green_Circle_Dots_1.jpg,Red_Circle_Stripes_4.jpg,Blue_Plus_Grid_1.jpg,right,753.6350000011735,true,low,false
kW8oNHLG,3ygyp13654mlicup3w1l36spsdqnrt,3xc1o3lbowzaxb2qmav3fdlant2tl8,kW8oNHLG,2020-0188,2020-11-15,08:19:15,08:41:02,NA,incomplete,231,number,1,left,Purple_Triangle_Chess_3.jpg,Green_Circle_Dots_3.jpg,Blue_Triangle_Grid_2.jpg,left,843.0550000048243,true,low,false
kW8oNHLG,3ygyp13654mlicup3w1l36spsdqnrt,3xc1o3lbowzaxb2qmav3fdlant2tl8,kW8oNHLG,2020-0188,2020-11-15,08:19:15,08:41:02,NA,incomplete,232,number,0,left,Purple_Circle_Chess_4.jpg,Green_Triangle_Dots_4.jpg,Red_Circle_Grid_1.jpg,left,737.1750000019092,true,low,false
kW8oNHLG,3ygyp13654mlicup3w1l36spsdqnrt,3xc1o3lbowzaxb2qmav3fdlant2tl8,kW8oNHLG,2020-0188,2020-11-15,08:19:15,08:41:02,NA,incomplete,233,number,1,left,Blue_Star_Chess_4.jpg,Green_Plus_Grid_4.jpg,Purple_Star_Stripes_1.jpg,right,898.0449999943376,false,low,false
kW8oNHLG,3ygyp13654mlicup3w1l36spsdqnrt,3xc1o3lbowzaxb2qmav3fdlant2tl8,kW8oNHLG,2020-0188,2020-11-15,08:19:15,08:41:02,NA,incomplete,234,number,1,left,Purple_Star_Chess_4.jpg,Red_Plus_Grid_4.jpg,Blue_Star_Stripes_3.jpg,left,887.3649999878835,true,low,false
kW8oNHLG,3ygyp13654mlicup3w1l36spsdqnrt,3xc1o3lbowzaxb2qmav3fdlant2tl8,kW8oNHLG,2020-0188,2020-11-15,08:19:15,08:41:02,NA,incomplete,235,number,1,left,Purple_Triangle_Chess_3.jpg,Green_Star_Dots_3.jpg,Red_Triangle_Stripes_2.jpg,left,978.399999992922,true,low,false
kW8oNHLG,3ygyp13654mlicup3w1l36spsdqnrt,3xc1o3lbowzaxb2qmav3fdlant2tl8,kW8oNHLG,2020-0188,2020-11-15,08:19:15,08:41:02,NA,incomplete,236,number,0,right,Purple_Circle_Dots_4.jpg,Red_Circle_Grid_3.jpg,Blue_Plus_Chess_4.jpg,right,770.0999999942724,true,low,false
kW8oNHLG,3ygyp13654mlicup3w1l36spsdqnrt,3xc1o3lbowzaxb2qmav3fdlant2tl8,kW8oNHLG,2020-0188,2020-11-15,08:19:15,08:41:02,NA,incomplete,237,number,1,right,Purple_Circle_Dots_2.jpg,Red_Circle_Grid_3.jpg,Green_Star_Chess_2.jpg,right,829.6700000064448,true,low,false
kW8oNHLG,3ygyp13654mlicup3w1l36spsdqnrt,3xc1o3lbowzaxb2qmav3fdlant2tl8,kW8oNHLG,2020-0188,2020-11-15,08:19:15,08:41:02,NA,incomplete,238,number,0,right,Purple_Star_Dots_2.jpg,Green_Star_Chess_4.jpg,Blue_Circle_Grid_2.jpg,right,958.6399999971036,true,low,false
kW8oNHLG,3ygyp13654mlicup3w1l36spsdqnrt,3xc1o3lbowzaxb2qmav3fdlant2tl8,kW8oNHLG,2020-0188,2020-11-15,08:19:15,08:41:02,NA,incomplete,239,number,1,right,Red_Triangle_Grid_4.jpg,Blue_Triangle_Dots_2.jpg,Purple_Plus_Stripes_4.jpg,left,746.3200000056531,false,low,false
kW8oNHLG,3ygyp13654mlicup3w1l36spsdqnrt,3xc1o3lbowzaxb2qmav3fdlant2tl8,kW8oNHLG,2020-0188,2020-11-15,08:19:15,08:41:02,1245136.0949999944,1309616.1949999952,NA,NA,NA,NA,NA,NA,NA,NA,NA,NA,NA,undefined
