workerId,hitId,assignmentId,subject,studyid,exp_date,exp_start,exp_end,time_start,time_end,trial,type,reward_validity,answer,image_top,image_left,image_right,response,response_time,response_acc,volatility,practice
THoXdnTV,3zvpamtjxqgf8kd3gsoqdmjsr77grt,3xm0hyn6nocyzdzro7zfx8utr88epp,THoXdnTV,2020-0188,2020-11-22,00:50:11,01:05:31,NA,incomplete,0,filling,1,left,Purple_Triangle_Dots_4.jpg,Blue_Circle_Dots_2.jpg,Purple_Plus_Stripes_1.jpg,none,0,false,NA,true
THoXdnTV,3zvpamtjxqgf8kd3gsoqdmjsr77grt,3xm0hyn6nocyzdzro7zfx8utr88epp,THoXdnTV,2020-0188,2020-11-22,00:50:11,01:05:31,NA,incomplete,1,filling,1,right,Purple_Plus_Chess_3.jpg,Purple_Circle_Grid_1.jpg,Red_Star_Chess_4.jpg,right,1576.0999999474734,true,NA,true
THoXdnTV,3zvpamtjxqgf8kd3gsoqdmjsr77grt,3xm0hyn6nocyzdzro7zfx8utr88epp,THoXdnTV,2020-0188,2020-11-22,00:50:11,01:05:31,NA,incomplete,2,filling,1,right,Green_Circle_Chess_1.jpg,Green_Star_Dots_2.jpg,Red_Plus_Chess_3.jpg,right,1317.6799999782816,true,NA,true
THoXdnTV,3zvpamtjxqgf8kd3gsoqdmjsr77grt,3xm0hyn6nocyzdzro7zfx8utr88epp,THoXdnTV,2020-0188,2020-11-22,00:50:11,01:05:31,NA,incomplete,3,filling,0,left,Purple_Plus_Dots_3.jpg,Blue_Circle_Dots_1.jpg,Purple_Triangle_Chess_4.jpg,left,1215.449999901466,true,NA,true
THoXdnTV,3zvpamtjxqgf8kd3gsoqdmjsr77grt,3xm0hyn6nocyzdzro7zfx8utr88epp,THoXdnTV,2020-0188,2020-11-22,00:50:11,01:05:31,NA,incomplete,4,filling,1,left,Green_Triangle_Chess_2.jpg,Red_Circle_Chess_1.jpg,Green_Star_Dots_4.jpg,left,1115.170000004582,true,NA,true
THoXdnTV,3zvpamtjxqgf8kd3gsoqdmjsr77grt,3xm0hyn6nocyzdzro7zfx8utr88epp,THoXdnTV,2020-0188,2020-11-22,00:50:11,01:05:31,NA,incomplete,5,filling,1,right,Red_Star_Stripes_2.jpg,Red_Triangle_Chess_3.jpg,Blue_Circle_Stripes_4.jpg,right,1005.1799999782816,true,NA,true
THoXdnTV,3zvpamtjxqgf8kd3gsoqdmjsr77grt,3xm0hyn6nocyzdzro7zfx8utr88epp,THoXdnTV,2020-0188,2020-11-22,00:50:11,01:05:31,NA,incomplete,6,filling,0,right,Purple_Triangle_Grid_3.jpg,Purple_Plus_Stripes_1.jpg,Red_Circle_Grid_4.jpg,right,948.8249999703839,true,NA,true
THoXdnTV,3zvpamtjxqgf8kd3gsoqdmjsr77grt,3xm0hyn6nocyzdzro7zfx8utr88epp,THoXdnTV,2020-0188,2020-11-22,00:50:11,01:05:31,NA,incomplete,7,filling,1,right,Red_Star_Grid_2.jpg,Red_Plus_Dots_3.jpg,Purple_Circle_Grid_4.jpg,right,1109.8750000819564,true,NA,true
THoXdnTV,3zvpamtjxqgf8kd3gsoqdmjsr77grt,3xm0hyn6nocyzdzro7zfx8utr88epp,THoXdnTV,2020-0188,2020-11-22,00:50:11,01:05:31,NA,incomplete,8,filling,1,right,Blue_Plus_Grid_2.jpg,Blue_Triangle_Chess_1.jpg,Red_Circle_Grid_4.jpg,right,1226.7449999926612,true,NA,true
THoXdnTV,3zvpamtjxqgf8kd3gsoqdmjsr77grt,3xm0hyn6nocyzdzro7zfx8utr88epp,THoXdnTV,2020-0188,2020-11-22,00:50:11,01:05:31,NA,incomplete,9,filling,1,left,Red_Circle_Stripes_2.jpg,Green_Triangle_Stripes_4.jpg,Red_Star_Dots_1.jpg,left,849.8499999986961,true,NA,true
THoXdnTV,3zvpamtjxqgf8kd3gsoqdmjsr77grt,3xm0hyn6nocyzdzro7zfx8utr88epp,THoXdnTV,2020-0188,2020-11-22,00:50:11,01:05:31,NA,incomplete,10,filling,0,left,Blue_Circle_Stripes_2.jpg,Red_Triangle_Stripes_1.jpg,Blue_Plus_Chess_3.jpg,left,917.879999964498,true,NA,true
THoXdnTV,3zvpamtjxqgf8kd3gsoqdmjsr77grt,3xm0hyn6nocyzdzro7zfx8utr88epp,THoXdnTV,2020-0188,2020-11-22,00:50:11,01:05:31,NA,incomplete,11,filling,0,right,Blue_Triangle_Dots_1.jpg,Blue_Plus_Stripes_4.jpg,Green_Circle_Dots_2.jpg,left,1184.3749999534339,false,NA,true
THoXdnTV,3zvpamtjxqgf8kd3gsoqdmjsr77grt,3xm0hyn6nocyzdzro7zfx8utr88epp,THoXdnTV,2020-0188,2020-11-22,00:50:11,01:05:31,NA,incomplete,12,filling,1,left,Purple_Star_Grid_2.jpg,Blue_Plus_Grid_3.jpg,Purple_Triangle_Stripes_4.jpg,left,1568.610000074841,true,NA,true
THoXdnTV,3zvpamtjxqgf8kd3gsoqdmjsr77grt,3xm0hyn6nocyzdzro7zfx8utr88epp,THoXdnTV,2020-0188,2020-11-22,00:50:11,01:05:31,NA,incomplete,13,filling,1,right,Red_Star_Stripes_4.jpg,Red_Triangle_Dots_1.jpg,Purple_Circle_Stripes_2.jpg,right,1245.905000017956,true,NA,true
THoXdnTV,3zvpamtjxqgf8kd3gsoqdmjsr77grt,3xm0hyn6nocyzdzro7zfx8utr88epp,THoXdnTV,2020-0188,2020-11-22,00:50:11,01:05:31,NA,incomplete,14,filling,1,left,Purple_Star_Grid_3.jpg,Green_Plus_Grid_1.jpg,Purple_Circle_Stripes_2.jpg,left,1015.4900000197813,true,NA,true
THoXdnTV,3zvpamtjxqgf8kd3gsoqdmjsr77grt,3xm0hyn6nocyzdzro7zfx8utr88epp,THoXdnTV,2020-0188,2020-11-22,00:50:11,01:05:31,NA,incomplete,15,filling,0,left,Green_Plus_Chess_3.jpg,Blue_Star_Chess_4.jpg,Green_Triangle_Dots_2.jpg,left,1067.075000028126,true,NA,true
THoXdnTV,3zvpamtjxqgf8kd3gsoqdmjsr77grt,3xm0hyn6nocyzdzro7zfx8utr88epp,THoXdnTV,2020-0188,2020-11-22,00:50:11,01:05:31,NA,incomplete,16,filling,1,left,Blue_Circle_Chess_2.jpg,Red_Plus_Chess_4.jpg,Blue_Star_Stripes_3.jpg,left,1290.19500000868,true,NA,true
THoXdnTV,3zvpamtjxqgf8kd3gsoqdmjsr77grt,3xm0hyn6nocyzdzro7zfx8utr88epp,THoXdnTV,2020-0188,2020-11-22,00:50:11,01:05:31,NA,incomplete,17,filling,1,left,Green_Triangle_Dots_3.jpg,Purple_Star_Dots_1.jpg,Green_Circle_Chess_4.jpg,left,862.7400000113994,true,NA,true
THoXdnTV,3zvpamtjxqgf8kd3gsoqdmjsr77grt,3xm0hyn6nocyzdzro7zfx8utr88epp,THoXdnTV,2020-0188,2020-11-22,00:50:11,01:05:31,NA,incomplete,18,filling,1,left,Green_Triangle_Grid_4.jpg,Red_Star_Grid_1.jpg,Green_Plus_Chess_2.jpg,left,817.1100000618026,true,NA,true
THoXdnTV,3zvpamtjxqgf8kd3gsoqdmjsr77grt,3xm0hyn6nocyzdzro7zfx8utr88epp,THoXdnTV,2020-0188,2020-11-22,00:50:11,01:05:31,NA,incomplete,19,filling,1,right,Purple_Circle_Stripes_4.jpg,Purple_Plus_Chess_1.jpg,Green_Star_Stripes_3.jpg,right,906.639999942854,true,NA,true
THoXdnTV,3zvpamtjxqgf8kd3gsoqdmjsr77grt,3xm0hyn6nocyzdzro7zfx8utr88epp,THoXdnTV,2020-0188,2020-11-22,00:50:11,01:05:31,NA,incomplete,20,color,1,right,Purple_Plus_Chess_2.jpg,Red_Triangle_Chess_4.jpg,Purple_Star_Grid_3.jpg,left,920.1899999752641,false,NA,true
THoXdnTV,3zvpamtjxqgf8kd3gsoqdmjsr77grt,3xm0hyn6nocyzdzro7zfx8utr88epp,THoXdnTV,2020-0188,2020-11-22,00:50:11,01:05:31,NA,incomplete,21,color,0,right,Green_Triangle_Dots_4.jpg,Purple_Plus_Dots_2.jpg,Green_Circle_Grid_1.jpg,right,1257.1800000732765,true,NA,true
THoXdnTV,3zvpamtjxqgf8kd3gsoqdmjsr77grt,3xm0hyn6nocyzdzro7zfx8utr88epp,THoXdnTV,2020-0188,2020-11-22,00:50:11,01:05:31,NA,incomplete,22,color,1,right,Red_Triangle_Grid_1.jpg,Blue_Circle_Grid_3.jpg,Red_Plus_Chess_4.jpg,right,1019.6449999930337,true,NA,true
THoXdnTV,3zvpamtjxqgf8kd3gsoqdmjsr77grt,3xm0hyn6nocyzdzro7zfx8utr88epp,THoXdnTV,2020-0188,2020-11-22,00:50:11,01:05:31,NA,incomplete,23,color,1,left,Green_Circle_Dots_3.jpg,Green_Plus_Stripes_4.jpg,Red_Triangle_Dots_1.jpg,left,618.8049999764189,true,NA,true
THoXdnTV,3zvpamtjxqgf8kd3gsoqdmjsr77grt,3xm0hyn6nocyzdzro7zfx8utr88epp,THoXdnTV,2020-0188,2020-11-22,00:50:11,01:05:31,NA,incomplete,24,color,0,right,Red_Circle_Stripes_3.jpg,Green_Star_Stripes_2.jpg,Red_Triangle_Dots_1.jpg,right,724.5549999643117,true,NA,true
THoXdnTV,3zvpamtjxqgf8kd3gsoqdmjsr77grt,3xm0hyn6nocyzdzro7zfx8utr88epp,THoXdnTV,2020-0188,2020-11-22,00:50:11,01:05:31,NA,incomplete,25,color,0,right,Blue_Circle_Grid_4.jpg,Red_Plus_Grid_3.jpg,Blue_Star_Dots_2.jpg,right,701.5200000023469,true,NA,true
THoXdnTV,3zvpamtjxqgf8kd3gsoqdmjsr77grt,3xm0hyn6nocyzdzro7zfx8utr88epp,THoXdnTV,2020-0188,2020-11-22,00:50:11,01:05:31,NA,incomplete,26,color,1,left,Purple_Circle_Dots_4.jpg,Purple_Plus_Chess_2.jpg,Green_Triangle_Dots_3.jpg,left,798.2949999859557,true,NA,true
THoXdnTV,3zvpamtjxqgf8kd3gsoqdmjsr77grt,3xm0hyn6nocyzdzro7zfx8utr88epp,THoXdnTV,2020-0188,2020-11-22,00:50:11,01:05:31,NA,incomplete,27,color,1,right,Red_Triangle_Dots_1.jpg,Blue_Star_Dots_3.jpg,Red_Circle_Stripes_4.jpg,right,969.7999999625608,true,NA,true
THoXdnTV,3zvpamtjxqgf8kd3gsoqdmjsr77grt,3xm0hyn6nocyzdzro7zfx8utr88epp,THoXdnTV,2020-0188,2020-11-22,00:50:11,01:05:31,NA,incomplete,28,color,1,left,Green_Triangle_Chess_1.jpg,Green_Circle_Stripes_4.jpg,Purple_Star_Chess_2.jpg,left,869.0199999837205,true,NA,true
THoXdnTV,3zvpamtjxqgf8kd3gsoqdmjsr77grt,3xm0hyn6nocyzdzro7zfx8utr88epp,THoXdnTV,2020-0188,2020-11-22,00:50:11,01:05:31,NA,incomplete,29,color,1,right,Blue_Plus_Chess_3.jpg,Green_Circle_Chess_1.jpg,Blue_Triangle_Grid_2.jpg,right,750.135000096634,true,NA,true
THoXdnTV,3zvpamtjxqgf8kd3gsoqdmjsr77grt,3xm0hyn6nocyzdzro7zfx8utr88epp,THoXdnTV,2020-0188,2020-11-22,00:50:11,01:05:31,NA,incomplete,30,color,1,right,Blue_Star_Chess_3.jpg,Green_Triangle_Chess_2.jpg,Blue_Circle_Dots_1.jpg,right,748.6650000791997,true,NA,true
THoXdnTV,3zvpamtjxqgf8kd3gsoqdmjsr77grt,3xm0hyn6nocyzdzro7zfx8utr88epp,THoXdnTV,2020-0188,2020-11-22,00:50:11,01:05:31,NA,incomplete,31,color,1,left,Green_Plus_Dots_2.jpg,Green_Triangle_Chess_1.jpg,Blue_Circle_Dots_4.jpg,left,868.1900000665337,true,NA,true
THoXdnTV,3zvpamtjxqgf8kd3gsoqdmjsr77grt,3xm0hyn6nocyzdzro7zfx8utr88epp,THoXdnTV,2020-0188,2020-11-22,00:50:11,01:05:31,NA,incomplete,32,color,1,left,Green_Star_Chess_4.jpg,Green_Plus_Dots_3.jpg,Blue_Circle_Chess_1.jpg,left,702.0099998917431,true,NA,true
THoXdnTV,3zvpamtjxqgf8kd3gsoqdmjsr77grt,3xm0hyn6nocyzdzro7zfx8utr88epp,THoXdnTV,2020-0188,2020-11-22,00:50:11,01:05:31,NA,incomplete,33,color,1,right,Purple_Star_Dots_3.jpg,Red_Circle_Dots_2.jpg,Purple_Triangle_Chess_1.jpg,right,804.4799999333918,true,NA,true
THoXdnTV,3zvpamtjxqgf8kd3gsoqdmjsr77grt,3xm0hyn6nocyzdzro7zfx8utr88epp,THoXdnTV,2020-0188,2020-11-22,00:50:11,01:05:31,NA,incomplete,34,color,1,left,Blue_Circle_Stripes_4.jpg,Blue_Triangle_Chess_1.jpg,Green_Star_Stripes_2.jpg,left,616.1850000498816,true,NA,true
THoXdnTV,3zvpamtjxqgf8kd3gsoqdmjsr77grt,3xm0hyn6nocyzdzro7zfx8utr88epp,THoXdnTV,2020-0188,2020-11-22,00:50:11,01:05:31,NA,incomplete,35,color,1,left,Red_Star_Dots_2.jpg,Red_Circle_Chess_1.jpg,Blue_Plus_Dots_3.jpg,left,941.869999980554,true,NA,true
THoXdnTV,3zvpamtjxqgf8kd3gsoqdmjsr77grt,3xm0hyn6nocyzdzro7zfx8utr88epp,THoXdnTV,2020-0188,2020-11-22,00:50:11,01:05:31,NA,incomplete,36,color,1,right,Red_Triangle_Grid_4.jpg,Blue_Star_Grid_2.jpg,Red_Plus_Stripes_1.jpg,right,742.1799999428913,true,NA,true
THoXdnTV,3zvpamtjxqgf8kd3gsoqdmjsr77grt,3xm0hyn6nocyzdzro7zfx8utr88epp,THoXdnTV,2020-0188,2020-11-22,00:50:11,01:05:31,NA,incomplete,37,color,1,left,Blue_Triangle_Stripes_1.jpg,Blue_Star_Chess_3.jpg,Purple_Circle_Stripes_2.jpg,left,735.9250000445172,true,NA,true
THoXdnTV,3zvpamtjxqgf8kd3gsoqdmjsr77grt,3xm0hyn6nocyzdzro7zfx8utr88epp,THoXdnTV,2020-0188,2020-11-22,00:50:11,01:05:31,NA,incomplete,38,color,1,left,Blue_Circle_Dots_3.jpg,Blue_Triangle_Stripes_2.jpg,Purple_Plus_Dots_4.jpg,left,609.1149999992922,true,NA,true
THoXdnTV,3zvpamtjxqgf8kd3gsoqdmjsr77grt,3xm0hyn6nocyzdzro7zfx8utr88epp,THoXdnTV,2020-0188,2020-11-22,00:50:11,01:05:31,NA,incomplete,39,color,1,right,Blue_Triangle_Grid_2.jpg,Green_Star_Grid_4.jpg,Blue_Plus_Chess_1.jpg,right,718.1750000454485,true,NA,true
THoXdnTV,3zvpamtjxqgf8kd3gsoqdmjsr77grt,3xm0hyn6nocyzdzro7zfx8utr88epp,THoXdnTV,2020-0188,2020-11-22,00:50:11,01:05:31,NA,incomplete,0,filling,1,left,Green_Triangle_Chess_1.jpg,Purple_Circle_Chess_3.jpg,Green_Plus_Stripes_2.jpg,right,805.3399999625981,false,high,false
THoXdnTV,3zvpamtjxqgf8kd3gsoqdmjsr77grt,3xm0hyn6nocyzdzro7zfx8utr88epp,THoXdnTV,2020-0188,2020-11-22,00:50:11,01:05:31,NA,incomplete,1,filling,1,right,Green_Plus_Dots_1.jpg,Green_Circle_Chess_3.jpg,Purple_Star_Dots_4.jpg,right,1357.6500000199303,true,high,false
THoXdnTV,3zvpamtjxqgf8kd3gsoqdmjsr77grt,3xm0hyn6nocyzdzro7zfx8utr88epp,THoXdnTV,2020-0188,2020-11-22,00:50:11,01:05:31,NA,incomplete,2,filling,0,right,Red_Circle_Dots_3.jpg,Red_Star_Stripes_2.jpg,Green_Triangle_Dots_4.jpg,right,874.4149999693036,true,high,false
THoXdnTV,3zvpamtjxqgf8kd3gsoqdmjsr77grt,3xm0hyn6nocyzdzro7zfx8utr88epp,THoXdnTV,2020-0188,2020-11-22,00:50:11,01:05:31,NA,incomplete,3,filling,1,right,Red_Plus_Dots_3.jpg,Red_Triangle_Grid_1.jpg,Blue_Circle_Dots_2.jpg,right,1035.6149999424815,true,high,false
THoXdnTV,3zvpamtjxqgf8kd3gsoqdmjsr77grt,3xm0hyn6nocyzdzro7zfx8utr88epp,THoXdnTV,2020-0188,2020-11-22,00:50:11,01:05:31,NA,incomplete,4,filling,1,left,Purple_Star_Dots_2.jpg,Red_Triangle_Dots_4.jpg,Purple_Plus_Chess_3.jpg,left,876.7650000518188,true,high,false
THoXdnTV,3zvpamtjxqgf8kd3gsoqdmjsr77grt,3xm0hyn6nocyzdzro7zfx8utr88epp,THoXdnTV,2020-0188,2020-11-22,00:50:11,01:05:31,NA,incomplete,5,filling,0,right,Green_Star_Dots_3.jpg,Green_Circle_Stripes_1.jpg,Red_Triangle_Dots_4.jpg,right,875.8199999574572,true,high,false
THoXdnTV,3zvpamtjxqgf8kd3gsoqdmjsr77grt,3xm0hyn6nocyzdzro7zfx8utr88epp,THoXdnTV,2020-0188,2020-11-22,00:50:11,01:05:31,NA,incomplete,6,filling,0,right,Purple_Triangle_Dots_2.jpg,Purple_Circle_Grid_3.jpg,Red_Star_Dots_1.jpg,right,971.3749999646097,true,high,false
THoXdnTV,3zvpamtjxqgf8kd3gsoqdmjsr77grt,3xm0hyn6nocyzdzro7zfx8utr88epp,THoXdnTV,2020-0188,2020-11-22,00:50:11,01:05:31,NA,incomplete,7,filling,1,right,Red_Plus_Stripes_2.jpg,Red_Circle_Grid_1.jpg,Green_Triangle_Stripes_3.jpg,left,606.8799999775365,false,high,false
THoXdnTV,3zvpamtjxqgf8kd3gsoqdmjsr77grt,3xm0hyn6nocyzdzro7zfx8utr88epp,THoXdnTV,2020-0188,2020-11-22,00:50:11,01:05:31,NA,incomplete,8,filling,1,left,Red_Circle_Grid_3.jpg,Purple_Star_Grid_2.jpg,Red_Plus_Chess_4.jpg,left,874.9400000087917,true,high,false
THoXdnTV,3zvpamtjxqgf8kd3gsoqdmjsr77grt,3xm0hyn6nocyzdzro7zfx8utr88epp,THoXdnTV,2020-0188,2020-11-22,00:50:11,01:05:31,NA,incomplete,9,filling,1,left,Purple_Star_Stripes_4.jpg,Green_Circle_Stripes_3.jpg,Purple_Triangle_Dots_1.jpg,left,939.0000000130385,true,high,false
THoXdnTV,3zvpamtjxqgf8kd3gsoqdmjsr77grt,3xm0hyn6nocyzdzro7zfx8utr88epp,THoXdnTV,2020-0188,2020-11-22,00:50:11,01:05:31,NA,incomplete,10,color,1,right,Red_Plus_Chess_2.jpg,Blue_Star_Chess_3.jpg,Red_Circle_Grid_1.jpg,left,861.5099999587983,false,high,false
THoXdnTV,3zvpamtjxqgf8kd3gsoqdmjsr77grt,3xm0hyn6nocyzdzro7zfx8utr88epp,THoXdnTV,2020-0188,2020-11-22,00:50:11,01:05:31,NA,incomplete,11,color,1,right,Blue_Star_Grid_4.jpg,Purple_Triangle_Grid_3.jpg,Blue_Plus_Chess_2.jpg,left,911.640000063926,false,high,false
THoXdnTV,3zvpamtjxqgf8kd3gsoqdmjsr77grt,3xm0hyn6nocyzdzro7zfx8utr88epp,THoXdnTV,2020-0188,2020-11-22,00:50:11,01:05:31,NA,incomplete,12,color,1,left,Purple_Triangle_Dots_2.jpg,Purple_Plus_Stripes_4.jpg,Red_Circle_Dots_1.jpg,left,1030.5799999041483,true,high,false
THoXdnTV,3zvpamtjxqgf8kd3gsoqdmjsr77grt,3xm0hyn6nocyzdzro7zfx8utr88epp,THoXdnTV,2020-0188,2020-11-22,00:50:11,01:05:31,NA,incomplete,13,color,0,right,Green_Triangle_Grid_2.jpg,Red_Star_Grid_1.jpg,Green_Circle_Dots_4.jpg,right,500.9200000204146,true,high,false
THoXdnTV,3zvpamtjxqgf8kd3gsoqdmjsr77grt,3xm0hyn6nocyzdzro7zfx8utr88epp,THoXdnTV,2020-0188,2020-11-22,00:50:11,01:05:31,NA,incomplete,14,color,1,left,Green_Triangle_Grid_2.jpg,Green_Plus_Chess_3.jpg,Purple_Star_Grid_1.jpg,left,897.3649999825284,true,high,false
THoXdnTV,3zvpamtjxqgf8kd3gsoqdmjsr77grt,3xm0hyn6nocyzdzro7zfx8utr88epp,THoXdnTV,2020-0188,2020-11-22,00:50:11,01:05:31,NA,incomplete,15,color,1,right,Red_Star_Stripes_1.jpg,Blue_Circle_Stripes_4.jpg,Red_Triangle_Grid_3.jpg,right,604.204999981448,true,high,false
THoXdnTV,3zvpamtjxqgf8kd3gsoqdmjsr77grt,3xm0hyn6nocyzdzro7zfx8utr88epp,THoXdnTV,2020-0188,2020-11-22,00:50:11,01:05:31,NA,incomplete,16,color,1,right,Red_Plus_Stripes_4.jpg,Purple_Triangle_Stripes_3.jpg,Red_Star_Grid_1.jpg,right,600.4050000337884,true,high,false
THoXdnTV,3zvpamtjxqgf8kd3gsoqdmjsr77grt,3xm0hyn6nocyzdzro7zfx8utr88epp,THoXdnTV,2020-0188,2020-11-22,00:50:11,01:05:31,NA,incomplete,17,color,1,right,Green_Triangle_Dots_4.jpg,Blue_Star_Dots_3.jpg,Green_Circle_Stripes_1.jpg,right,665.6900000525638,true,high,false
THoXdnTV,3zvpamtjxqgf8kd3gsoqdmjsr77grt,3xm0hyn6nocyzdzro7zfx8utr88epp,THoXdnTV,2020-0188,2020-11-22,00:50:11,01:05:31,NA,incomplete,18,color,1,left,Purple_Circle_Stripes_1.jpg,Purple_Plus_Chess_3.jpg,Red_Star_Stripes_4.jpg,left,617.850000038743,true,high,false
THoXdnTV,3zvpamtjxqgf8kd3gsoqdmjsr77grt,3xm0hyn6nocyzdzro7zfx8utr88epp,THoXdnTV,2020-0188,2020-11-22,00:50:11,01:05:31,NA,incomplete,19,color,1,right,Red_Star_Chess_1.jpg,Green_Circle_Chess_4.jpg,Red_Plus_Stripes_3.jpg,right,646.9799999613315,true,high,false
THoXdnTV,3zvpamtjxqgf8kd3gsoqdmjsr77grt,3xm0hyn6nocyzdzro7zfx8utr88epp,THoXdnTV,2020-0188,2020-11-22,00:50:11,01:05:31,NA,incomplete,20,filling,1,left,Purple_Plus_Chess_4.jpg,Green_Triangle_Chess_1.jpg,Purple_Star_Dots_2.jpg,right,578.8849999662489,false,high,false
THoXdnTV,3zvpamtjxqgf8kd3gsoqdmjsr77grt,3xm0hyn6nocyzdzro7zfx8utr88epp,THoXdnTV,2020-0188,2020-11-22,00:50:11,01:05:31,NA,incomplete,21,filling,1,right,Purple_Plus_Dots_4.jpg,Purple_Triangle_Chess_2.jpg,Green_Star_Dots_3.jpg,left,447.31000007595867,false,high,false
THoXdnTV,3zvpamtjxqgf8kd3gsoqdmjsr77grt,3xm0hyn6nocyzdzro7zfx8utr88epp,THoXdnTV,2020-0188,2020-11-22,00:50:11,01:05:31,NA,incomplete,22,filling,1,right,Blue_Plus_Stripes_2.jpg,Blue_Circle_Dots_1.jpg,Purple_Star_Stripes_4.jpg,left,568.0699999211356,false,high,false
THoXdnTV,3zvpamtjxqgf8kd3gsoqdmjsr77grt,3xm0hyn6nocyzdzro7zfx8utr88epp,THoXdnTV,2020-0188,2020-11-22,00:50:11,01:05:31,NA,incomplete,23,filling,1,right,Purple_Circle_Chess_1.jpg,Purple_Star_Stripes_2.jpg,Blue_Plus_Chess_3.jpg,right,805.3450000006706,true,high,false
THoXdnTV,3zvpamtjxqgf8kd3gsoqdmjsr77grt,3xm0hyn6nocyzdzro7zfx8utr88epp,THoXdnTV,2020-0188,2020-11-22,00:50:11,01:05:31,NA,incomplete,24,filling,1,left,Green_Circle_Grid_4.jpg,Blue_Plus_Grid_2.jpg,Green_Triangle_Stripes_1.jpg,right,824.7850000625476,false,high,false
THoXdnTV,3zvpamtjxqgf8kd3gsoqdmjsr77grt,3xm0hyn6nocyzdzro7zfx8utr88epp,THoXdnTV,2020-0188,2020-11-22,00:50:11,01:05:31,NA,incomplete,25,filling,1,right,Purple_Triangle_Stripes_4.jpg,Purple_Circle_Grid_2.jpg,Red_Star_Stripes_1.jpg,right,821.2350000394508,true,high,false
THoXdnTV,3zvpamtjxqgf8kd3gsoqdmjsr77grt,3xm0hyn6nocyzdzro7zfx8utr88epp,THoXdnTV,2020-0188,2020-11-22,00:50:11,01:05:31,NA,incomplete,26,filling,0,right,Red_Circle_Dots_2.jpg,Red_Star_Grid_1.jpg,Purple_Plus_Dots_3.jpg,right,865.734999999404,true,high,false
THoXdnTV,3zvpamtjxqgf8kd3gsoqdmjsr77grt,3xm0hyn6nocyzdzro7zfx8utr88epp,THoXdnTV,2020-0188,2020-11-22,00:50:11,01:05:31,NA,incomplete,27,filling,1,right,Red_Plus_Grid_2.jpg,Red_Circle_Stripes_3.jpg,Blue_Triangle_Grid_4.jpg,left,571.3250000262633,false,high,false
THoXdnTV,3zvpamtjxqgf8kd3gsoqdmjsr77grt,3xm0hyn6nocyzdzro7zfx8utr88epp,THoXdnTV,2020-0188,2020-11-22,00:50:11,01:05:31,NA,incomplete,28,filling,1,left,Green_Plus_Dots_1.jpg,Red_Star_Dots_4.jpg,Green_Circle_Chess_3.jpg,left,843.1000000564381,true,high,false
THoXdnTV,3zvpamtjxqgf8kd3gsoqdmjsr77grt,3xm0hyn6nocyzdzro7zfx8utr88epp,THoXdnTV,2020-0188,2020-11-22,00:50:11,01:05:31,NA,incomplete,29,filling,1,right,Red_Star_Grid_3.jpg,Red_Plus_Dots_4.jpg,Purple_Circle_Grid_1.jpg,right,896.2400000309572,true,high,false
THoXdnTV,3zvpamtjxqgf8kd3gsoqdmjsr77grt,3xm0hyn6nocyzdzro7zfx8utr88epp,THoXdnTV,2020-0188,2020-11-22,00:50:11,01:05:31,NA,incomplete,30,color,1,left,Purple_Star_Chess_4.jpg,Purple_Plus_Grid_3.jpg,Green_Circle_Chess_2.jpg,right,941.3049999857321,false,high,false
THoXdnTV,3zvpamtjxqgf8kd3gsoqdmjsr77grt,3xm0hyn6nocyzdzro7zfx8utr88epp,THoXdnTV,2020-0188,2020-11-22,00:50:11,01:05:31,NA,incomplete,31,color,1,left,Red_Triangle_Chess_3.jpg,Red_Plus_Stripes_4.jpg,Purple_Circle_Chess_1.jpg,right,796.9049999956042,false,high,false
THoXdnTV,3zvpamtjxqgf8kd3gsoqdmjsr77grt,3xm0hyn6nocyzdzro7zfx8utr88epp,THoXdnTV,2020-0188,2020-11-22,00:50:11,01:05:31,NA,incomplete,32,color,1,left,Green_Plus_Stripes_4.jpg,Green_Star_Chess_3.jpg,Purple_Triangle_Stripes_2.jpg,right,769.4199999095872,false,high,false
THoXdnTV,3zvpamtjxqgf8kd3gsoqdmjsr77grt,3xm0hyn6nocyzdzro7zfx8utr88epp,THoXdnTV,2020-0188,2020-11-22,00:50:11,01:05:31,NA,incomplete,33,color,1,left,Green_Star_Grid_1.jpg,Green_Plus_Dots_4.jpg,Purple_Triangle_Grid_3.jpg,left,648.4599999384955,true,high,false
THoXdnTV,3zvpamtjxqgf8kd3gsoqdmjsr77grt,3xm0hyn6nocyzdzro7zfx8utr88epp,THoXdnTV,2020-0188,2020-11-22,00:50:11,01:05:31,NA,incomplete,34,color,1,right,Purple_Plus_Chess_4.jpg,Green_Star_Chess_2.jpg,Purple_Circle_Dots_1.jpg,right,632.080000010319,true,high,false
THoXdnTV,3zvpamtjxqgf8kd3gsoqdmjsr77grt,3xm0hyn6nocyzdzro7zfx8utr88epp,THoXdnTV,2020-0188,2020-11-22,00:50:11,01:05:31,NA,incomplete,35,color,1,right,Purple_Triangle_Chess_2.jpg,Blue_Star_Chess_3.jpg,Purple_Plus_Grid_4.jpg,right,563.8299999991432,true,high,false
THoXdnTV,3zvpamtjxqgf8kd3gsoqdmjsr77grt,3xm0hyn6nocyzdzro7zfx8utr88epp,THoXdnTV,2020-0188,2020-11-22,00:50:11,01:05:31,NA,incomplete,36,color,1,right,Blue_Circle_Dots_1.jpg,Red_Triangle_Dots_3.jpg,Blue_Star_Stripes_4.jpg,right,545.0100000016391,true,high,false
THoXdnTV,3zvpamtjxqgf8kd3gsoqdmjsr77grt,3xm0hyn6nocyzdzro7zfx8utr88epp,THoXdnTV,2020-0188,2020-11-22,00:50:11,01:05:31,NA,incomplete,37,color,1,left,Blue_Triangle_Stripes_3.jpg,Blue_Plus_Chess_1.jpg,Red_Circle_Stripes_4.jpg,left,549.8799999477342,true,high,false
THoXdnTV,3zvpamtjxqgf8kd3gsoqdmjsr77grt,3xm0hyn6nocyzdzro7zfx8utr88epp,THoXdnTV,2020-0188,2020-11-22,00:50:11,01:05:31,NA,incomplete,38,color,1,left,Green_Star_Stripes_1.jpg,Green_Circle_Dots_2.jpg,Purple_Triangle_Stripes_4.jpg,left,494.0049999859184,true,high,false
THoXdnTV,3zvpamtjxqgf8kd3gsoqdmjsr77grt,3xm0hyn6nocyzdzro7zfx8utr88epp,THoXdnTV,2020-0188,2020-11-22,00:50:11,01:05:31,NA,incomplete,39,color,0,right,Red_Plus_Dots_3.jpg,Green_Circle_Dots_1.jpg,Red_Triangle_Stripes_2.jpg,right,447.21500005107373,true,high,false
THoXdnTV,3zvpamtjxqgf8kd3gsoqdmjsr77grt,3xm0hyn6nocyzdzro7zfx8utr88epp,THoXdnTV,2020-0188,2020-11-22,00:50:11,01:05:31,NA,incomplete,40,filling,1,right,Green_Plus_Stripes_4.jpg,Green_Star_Grid_1.jpg,Red_Triangle_Stripes_3.jpg,left,477.06000006292015,false,high,false
THoXdnTV,3zvpamtjxqgf8kd3gsoqdmjsr77grt,3xm0hyn6nocyzdzro7zfx8utr88epp,THoXdnTV,2020-0188,2020-11-22,00:50:11,01:05:31,NA,incomplete,41,filling,1,left,Blue_Plus_Stripes_1.jpg,Purple_Star_Stripes_4.jpg,Blue_Triangle_Grid_2.jpg,left,842.354999971576,true,high,false
THoXdnTV,3zvpamtjxqgf8kd3gsoqdmjsr77grt,3xm0hyn6nocyzdzro7zfx8utr88epp,THoXdnTV,2020-0188,2020-11-22,00:50:11,01:05:31,NA,incomplete,42,filling,1,left,Blue_Star_Stripes_1.jpg,Green_Plus_Stripes_2.jpg,Blue_Triangle_Grid_4.jpg,left,894.6500000311062,true,high,false
THoXdnTV,3zvpamtjxqgf8kd3gsoqdmjsr77grt,3xm0hyn6nocyzdzro7zfx8utr88epp,THoXdnTV,2020-0188,2020-11-22,00:50:11,01:05:31,NA,incomplete,43,filling,0,right,Blue_Star_Grid_1.jpg,Blue_Plus_Chess_4.jpg,Purple_Triangle_Grid_2.jpg,left,954.4549999991432,false,high,false
THoXdnTV,3zvpamtjxqgf8kd3gsoqdmjsr77grt,3xm0hyn6nocyzdzro7zfx8utr88epp,THoXdnTV,2020-0188,2020-11-22,00:50:11,01:05:31,NA,incomplete,44,filling,1,left,Green_Star_Grid_1.jpg,Purple_Triangle_Grid_2.jpg,Green_Circle_Stripes_4.jpg,right,491.6650000959635,false,high,false
THoXdnTV,3zvpamtjxqgf8kd3gsoqdmjsr77grt,3xm0hyn6nocyzdzro7zfx8utr88epp,THoXdnTV,2020-0188,2020-11-22,00:50:11,01:05:31,NA,incomplete,45,filling,1,right,Green_Triangle_Dots_4.jpg,Green_Circle_Grid_3.jpg,Red_Star_Dots_2.jpg,right,738.465000060387,true,high,false
THoXdnTV,3zvpamtjxqgf8kd3gsoqdmjsr77grt,3xm0hyn6nocyzdzro7zfx8utr88epp,THoXdnTV,2020-0188,2020-11-22,00:50:11,01:05:31,NA,incomplete,46,filling,1,left,Green_Triangle_Dots_3.jpg,Blue_Star_Dots_2.jpg,Green_Plus_Stripes_1.jpg,left,842.1500000404194,true,high,false
THoXdnTV,3zvpamtjxqgf8kd3gsoqdmjsr77grt,3xm0hyn6nocyzdzro7zfx8utr88epp,THoXdnTV,2020-0188,2020-11-22,00:50:11,01:05:31,NA,incomplete,47,filling,1,right,Green_Circle_Grid_3.jpg,Green_Star_Chess_4.jpg,Blue_Triangle_Grid_2.jpg,right,734.8250000504777,true,high,false
THoXdnTV,3zvpamtjxqgf8kd3gsoqdmjsr77grt,3xm0hyn6nocyzdzro7zfx8utr88epp,THoXdnTV,2020-0188,2020-11-22,00:50:11,01:05:31,NA,incomplete,48,filling,1,left,Blue_Circle_Chess_3.jpg,Green_Star_Chess_4.jpg,Blue_Triangle_Stripes_1.jpg,left,806.999999913387,true,high,false
THoXdnTV,3zvpamtjxqgf8kd3gsoqdmjsr77grt,3xm0hyn6nocyzdzro7zfx8utr88epp,THoXdnTV,2020-0188,2020-11-22,00:50:11,01:05:31,NA,incomplete,49,filling,1,left,Green_Star_Dots_2.jpg,Blue_Triangle_Dots_3.jpg,Green_Circle_Grid_4.jpg,left,809.8450000397861,true,high,false
THoXdnTV,3zvpamtjxqgf8kd3gsoqdmjsr77grt,3xm0hyn6nocyzdzro7zfx8utr88epp,THoXdnTV,2020-0188,2020-11-22,00:50:11,01:05:31,NA,incomplete,50,color,1,left,Blue_Triangle_Chess_3.jpg,Blue_Circle_Stripes_1.jpg,Purple_Star_Chess_2.jpg,right,755.7749999687076,false,high,false
THoXdnTV,3zvpamtjxqgf8kd3gsoqdmjsr77grt,3xm0hyn6nocyzdzro7zfx8utr88epp,THoXdnTV,2020-0188,2020-11-22,00:50:11,01:05:31,NA,incomplete,51,color,1,right,Purple_Plus_Dots_3.jpg,Red_Circle_Dots_4.jpg,Purple_Star_Grid_2.jpg,left,867.4050000263378,false,high,false
THoXdnTV,3zvpamtjxqgf8kd3gsoqdmjsr77grt,3xm0hyn6nocyzdzro7zfx8utr88epp,THoXdnTV,2020-0188,2020-11-22,00:50:11,01:05:31,NA,incomplete,52,color,1,left,Green_Circle_Chess_2.jpg,Green_Plus_Stripes_3.jpg,Red_Star_Chess_4.jpg,right,726.274999906309,false,high,false
THoXdnTV,3zvpamtjxqgf8kd3gsoqdmjsr77grt,3xm0hyn6nocyzdzro7zfx8utr88epp,THoXdnTV,2020-0188,2020-11-22,00:50:11,01:05:31,NA,incomplete,53,color,1,left,Blue_Star_Chess_3.jpg,Blue_Plus_Grid_2.jpg,Red_Triangle_Chess_1.jpg,left,625.3850000211969,true,high,false
THoXdnTV,3zvpamtjxqgf8kd3gsoqdmjsr77grt,3xm0hyn6nocyzdzro7zfx8utr88epp,THoXdnTV,2020-0188,2020-11-22,00:50:11,01:05:31,NA,incomplete,54,color,1,right,Green_Star_Stripes_4.jpg,Purple_Circle_Stripes_2.jpg,Green_Plus_Dots_3.jpg,right,450.4050000105053,true,high,false
THoXdnTV,3zvpamtjxqgf8kd3gsoqdmjsr77grt,3xm0hyn6nocyzdzro7zfx8utr88epp,THoXdnTV,2020-0188,2020-11-22,00:50:11,01:05:31,NA,incomplete,55,color,0,right,Green_Triangle_Chess_3.jpg,Blue_Star_Chess_4.jpg,Green_Circle_Stripes_2.jpg,right,423.5150000313297,true,high,false
THoXdnTV,3zvpamtjxqgf8kd3gsoqdmjsr77grt,3xm0hyn6nocyzdzro7zfx8utr88epp,THoXdnTV,2020-0188,2020-11-22,00:50:11,01:05:31,NA,incomplete,56,color,1,right,Purple_Star_Dots_3.jpg,Red_Plus_Dots_2.jpg,Purple_Triangle_Grid_4.jpg,left,388.2799999555573,false,high,false
THoXdnTV,3zvpamtjxqgf8kd3gsoqdmjsr77grt,3xm0hyn6nocyzdzro7zfx8utr88epp,THoXdnTV,2020-0188,2020-11-22,00:50:11,01:05:31,NA,incomplete,57,color,1,left,Blue_Triangle_Stripes_3.jpg,Blue_Circle_Dots_4.jpg,Purple_Star_Stripes_2.jpg,left,508.534999913536,true,high,false
THoXdnTV,3zvpamtjxqgf8kd3gsoqdmjsr77grt,3xm0hyn6nocyzdzro7zfx8utr88epp,THoXdnTV,2020-0188,2020-11-22,00:50:11,01:05:31,NA,incomplete,58,color,1,left,Blue_Triangle_Stripes_3.jpg,Blue_Plus_Chess_1.jpg,Red_Star_Stripes_2.jpg,left,480.3450000472367,true,high,false
THoXdnTV,3zvpamtjxqgf8kd3gsoqdmjsr77grt,3xm0hyn6nocyzdzro7zfx8utr88epp,THoXdnTV,2020-0188,2020-11-22,00:50:11,01:05:31,NA,incomplete,59,color,1,left,Green_Triangle_Dots_1.jpg,Green_Star_Stripes_2.jpg,Purple_Circle_Dots_4.jpg,left,714.2499999608845,true,high,false
THoXdnTV,3zvpamtjxqgf8kd3gsoqdmjsr77grt,3xm0hyn6nocyzdzro7zfx8utr88epp,THoXdnTV,2020-0188,2020-11-22,00:50:11,01:05:31,NA,incomplete,60,filling,1,right,Purple_Plus_Dots_1.jpg,Purple_Circle_Chess_4.jpg,Red_Triangle_Dots_3.jpg,left,625.8900000248104,false,high,false
THoXdnTV,3zvpamtjxqgf8kd3gsoqdmjsr77grt,3xm0hyn6nocyzdzro7zfx8utr88epp,THoXdnTV,2020-0188,2020-11-22,00:50:11,01:05:31,NA,incomplete,61,filling,1,left,Purple_Circle_Chess_4.jpg,Blue_Triangle_Chess_3.jpg,Purple_Plus_Dots_1.jpg,right,614.0049999812618,false,high,false
THoXdnTV,3zvpamtjxqgf8kd3gsoqdmjsr77grt,3xm0hyn6nocyzdzro7zfx8utr88epp,THoXdnTV,2020-0188,2020-11-22,00:50:11,01:05:31,NA,incomplete,62,filling,1,left,Purple_Triangle_Chess_3.jpg,Blue_Plus_Chess_2.jpg,Purple_Circle_Dots_4.jpg,left,856.0150000266731,true,high,false
THoXdnTV,3zvpamtjxqgf8kd3gsoqdmjsr77grt,3xm0hyn6nocyzdzro7zfx8utr88epp,THoXdnTV,2020-0188,2020-11-22,00:50:11,01:05:31,NA,incomplete,63,filling,0,right,Purple_Star_Chess_3.jpg,Purple_Triangle_Stripes_1.jpg,Green_Plus_Chess_2.jpg,right,743.4999999823049,true,high,false
THoXdnTV,3zvpamtjxqgf8kd3gsoqdmjsr77grt,3xm0hyn6nocyzdzro7zfx8utr88epp,THoXdnTV,2020-0188,2020-11-22,00:50:11,01:05:31,NA,incomplete,64,filling,0,left,Purple_Triangle_Stripes_3.jpg,Green_Star_Stripes_2.jpg,Purple_Plus_Grid_1.jpg,left,764.7449999349192,true,high,false
THoXdnTV,3zvpamtjxqgf8kd3gsoqdmjsr77grt,3xm0hyn6nocyzdzro7zfx8utr88epp,THoXdnTV,2020-0188,2020-11-22,00:50:11,01:05:31,NA,incomplete,65,filling,1,left,Blue_Plus_Stripes_1.jpg,Red_Triangle_Stripes_4.jpg,Blue_Star_Grid_3.jpg,left,1210.6999999377877,true,high,false
THoXdnTV,3zvpamtjxqgf8kd3gsoqdmjsr77grt,3xm0hyn6nocyzdzro7zfx8utr88epp,THoXdnTV,2020-0188,2020-11-22,00:50:11,01:05:31,NA,incomplete,66,filling,0,right,Blue_Circle_Dots_4.jpg,Blue_Star_Chess_2.jpg,Green_Triangle_Dots_3.jpg,right,822.3849999485537,true,high,false
THoXdnTV,3zvpamtjxqgf8kd3gsoqdmjsr77grt,3xm0hyn6nocyzdzro7zfx8utr88epp,THoXdnTV,2020-0188,2020-11-22,00:50:11,01:05:31,NA,incomplete,67,filling,1,right,Purple_Plus_Dots_4.jpg,Purple_Circle_Chess_1.jpg,Green_Star_Dots_3.jpg,left,525.0649999361485,false,high,false
THoXdnTV,3zvpamtjxqgf8kd3gsoqdmjsr77grt,3xm0hyn6nocyzdzro7zfx8utr88epp,THoXdnTV,2020-0188,2020-11-22,00:50:11,01:05:31,NA,incomplete,68,filling,0,right,Green_Star_Dots_3.jpg,Green_Triangle_Chess_1.jpg,Red_Circle_Dots_4.jpg,right,725.899999961257,true,high,false
THoXdnTV,3zvpamtjxqgf8kd3gsoqdmjsr77grt,3xm0hyn6nocyzdzro7zfx8utr88epp,THoXdnTV,2020-0188,2020-11-22,00:50:11,01:05:31,NA,incomplete,69,filling,1,left,Green_Circle_Dots_4.jpg,Red_Triangle_Dots_3.jpg,Green_Plus_Grid_2.jpg,right,647.3899999400601,false,high,false
THoXdnTV,3zvpamtjxqgf8kd3gsoqdmjsr77grt,3xm0hyn6nocyzdzro7zfx8utr88epp,THoXdnTV,2020-0188,2020-11-22,00:50:11,01:05:31,NA,incomplete,70,color,1,right,Green_Circle_Stripes_1.jpg,Blue_Star_Stripes_4.jpg,Green_Plus_Chess_2.jpg,left,800.8899999549612,false,high,false
THoXdnTV,3zvpamtjxqgf8kd3gsoqdmjsr77grt,3xm0hyn6nocyzdzro7zfx8utr88epp,THoXdnTV,2020-0188,2020-11-22,00:50:11,01:05:31,NA,incomplete,71,color,1,right,Green_Triangle_Stripes_2.jpg,Red_Star_Stripes_1.jpg,Green_Plus_Chess_3.jpg,left,885.5700000422075,false,high,false
THoXdnTV,3zvpamtjxqgf8kd3gsoqdmjsr77grt,3xm0hyn6nocyzdzro7zfx8utr88epp,THoXdnTV,2020-0188,2020-11-22,00:50:11,01:05:31,NA,incomplete,72,color,0,right,Green_Plus_Chess_2.jpg,Blue_Circle_Chess_1.jpg,Green_Star_Grid_3.jpg,left,895.5099999438971,false,high,false
THoXdnTV,3zvpamtjxqgf8kd3gsoqdmjsr77grt,3xm0hyn6nocyzdzro7zfx8utr88epp,THoXdnTV,2020-0188,2020-11-22,00:50:11,01:05:31,NA,incomplete,73,color,1,right,Purple_Triangle_Stripes_2.jpg,Green_Circle_Stripes_1.jpg,Purple_Plus_Dots_3.jpg,left,951.8000000389293,false,high,false
THoXdnTV,3zvpamtjxqgf8kd3gsoqdmjsr77grt,3xm0hyn6nocyzdzro7zfx8utr88epp,THoXdnTV,2020-0188,2020-11-22,00:50:11,01:05:31,NA,incomplete,74,color,1,right,Green_Star_Stripes_4.jpg,Blue_Circle_Stripes_1.jpg,Green_Plus_Chess_3.jpg,right,462.47499994933605,true,high,false
THoXdnTV,3zvpamtjxqgf8kd3gsoqdmjsr77grt,3xm0hyn6nocyzdzro7zfx8utr88epp,THoXdnTV,2020-0188,2020-11-22,00:50:11,01:05:31,NA,incomplete,75,color,1,left,Blue_Plus_Chess_4.jpg,Blue_Triangle_Grid_2.jpg,Purple_Circle_Chess_1.jpg,left,511.99499994982034,true,high,false
THoXdnTV,3zvpamtjxqgf8kd3gsoqdmjsr77grt,3xm0hyn6nocyzdzro7zfx8utr88epp,THoXdnTV,2020-0188,2020-11-22,00:50:11,01:05:31,NA,incomplete,76,color,1,left,Green_Star_Dots_3.jpg,Green_Triangle_Chess_2.jpg,Blue_Plus_Dots_4.jpg,left,597.8749999776483,true,high,false
THoXdnTV,3zvpamtjxqgf8kd3gsoqdmjsr77grt,3xm0hyn6nocyzdzro7zfx8utr88epp,THoXdnTV,2020-0188,2020-11-22,00:50:11,01:05:31,NA,incomplete,77,color,1,left,Green_Star_Chess_3.jpg,Green_Circle_Stripes_1.jpg,Red_Plus_Chess_4.jpg,left,487.93999990448356,true,high,false
THoXdnTV,3zvpamtjxqgf8kd3gsoqdmjsr77grt,3xm0hyn6nocyzdzro7zfx8utr88epp,THoXdnTV,2020-0188,2020-11-22,00:50:11,01:05:31,NA,incomplete,78,color,0,right,Blue_Triangle_Chess_3.jpg,Red_Circle_Chess_2.jpg,Blue_Plus_Stripes_4.jpg,right,591.4450000273064,true,high,false
THoXdnTV,3zvpamtjxqgf8kd3gsoqdmjsr77grt,3xm0hyn6nocyzdzro7zfx8utr88epp,THoXdnTV,2020-0188,2020-11-22,00:50:11,01:05:31,NA,incomplete,79,color,1,right,Purple_Triangle_Grid_1.jpg,Blue_Star_Grid_4.jpg,Purple_Circle_Stripes_3.jpg,left,873.3899999642745,false,high,false
THoXdnTV,3zvpamtjxqgf8kd3gsoqdmjsr77grt,3xm0hyn6nocyzdzro7zfx8utr88epp,THoXdnTV,2020-0188,2020-11-22,00:50:11,01:05:31,NA,incomplete,80,filling,1,right,Purple_Circle_Stripes_4.jpg,Purple_Triangle_Dots_3.jpg,Green_Plus_Stripes_2.jpg,left,463.98999996017665,false,high,false
THoXdnTV,3zvpamtjxqgf8kd3gsoqdmjsr77grt,3xm0hyn6nocyzdzro7zfx8utr88epp,THoXdnTV,2020-0188,2020-11-22,00:50:11,01:05:31,NA,incomplete,81,filling,1,left,Blue_Plus_Dots_2.jpg,Green_Triangle_Dots_1.jpg,Blue_Star_Chess_4.jpg,right,804.6600000234321,false,high,false
THoXdnTV,3zvpamtjxqgf8kd3gsoqdmjsr77grt,3xm0hyn6nocyzdzro7zfx8utr88epp,THoXdnTV,2020-0188,2020-11-22,00:50:11,01:05:31,NA,incomplete,82,filling,1,right,Green_Star_Stripes_1.jpg,Green_Triangle_Dots_2.jpg,Purple_Plus_Stripes_4.jpg,right,872.8600000031292,true,high,false
THoXdnTV,3zvpamtjxqgf8kd3gsoqdmjsr77grt,3xm0hyn6nocyzdzro7zfx8utr88epp,THoXdnTV,2020-0188,2020-11-22,00:50:11,01:05:31,NA,incomplete,83,filling,1,left,Purple_Star_Chess_3.jpg,Red_Circle_Chess_1.jpg,Purple_Triangle_Dots_4.jpg,left,780.0050000660121,true,high,false
THoXdnTV,3zvpamtjxqgf8kd3gsoqdmjsr77grt,3xm0hyn6nocyzdzro7zfx8utr88epp,THoXdnTV,2020-0188,2020-11-22,00:50:11,01:05:31,NA,incomplete,84,filling,1,right,Green_Circle_Dots_3.jpg,Green_Plus_Stripes_1.jpg,Red_Triangle_Dots_2.jpg,right,868.1449999567121,true,high,false
THoXdnTV,3zvpamtjxqgf8kd3gsoqdmjsr77grt,3xm0hyn6nocyzdzro7zfx8utr88epp,THoXdnTV,2020-0188,2020-11-22,00:50:11,01:05:31,NA,incomplete,85,filling,1,left,Green_Circle_Stripes_3.jpg,Purple_Star_Stripes_2.jpg,Green_Plus_Grid_4.jpg,left,758.1200000131503,true,high,false
THoXdnTV,3zvpamtjxqgf8kd3gsoqdmjsr77grt,3xm0hyn6nocyzdzro7zfx8utr88epp,THoXdnTV,2020-0188,2020-11-22,00:50:11,01:05:31,NA,incomplete,86,filling,1,right,Red_Triangle_Chess_4.jpg,Red_Plus_Grid_2.jpg,Green_Star_Chess_1.jpg,right,760.0249999668449,true,high,false
THoXdnTV,3zvpamtjxqgf8kd3gsoqdmjsr77grt,3xm0hyn6nocyzdzro7zfx8utr88epp,THoXdnTV,2020-0188,2020-11-22,00:50:11,01:05:31,NA,incomplete,87,filling,0,right,Red_Plus_Chess_1.jpg,Red_Triangle_Dots_2.jpg,Blue_Star_Chess_3.jpg,right,743.6050000833347,true,high,false
THoXdnTV,3zvpamtjxqgf8kd3gsoqdmjsr77grt,3xm0hyn6nocyzdzro7zfx8utr88epp,THoXdnTV,2020-0188,2020-11-22,00:50:11,01:05:31,NA,incomplete,88,filling,0,left,Green_Plus_Dots_1.jpg,Blue_Circle_Dots_2.jpg,Green_Star_Stripes_3.jpg,left,781.3849999802187,true,high,false
THoXdnTV,3zvpamtjxqgf8kd3gsoqdmjsr77grt,3xm0hyn6nocyzdzro7zfx8utr88epp,THoXdnTV,2020-0188,2020-11-22,00:50:11,01:05:31,NA,incomplete,89,filling,1,left,Red_Plus_Chess_1.jpg,Purple_Star_Chess_3.jpg,Red_Triangle_Stripes_4.jpg,right,861.6949999704957,false,high,false
THoXdnTV,3zvpamtjxqgf8kd3gsoqdmjsr77grt,3xm0hyn6nocyzdzro7zfx8utr88epp,THoXdnTV,2020-0188,2020-11-22,00:50:11,01:05:31,NA,incomplete,90,color,0,right,Green_Triangle_Dots_4.jpg,Red_Circle_Dots_2.jpg,Green_Plus_Grid_3.jpg,left,726.2950000585988,false,high,false
THoXdnTV,3zvpamtjxqgf8kd3gsoqdmjsr77grt,3xm0hyn6nocyzdzro7zfx8utr88epp,THoXdnTV,2020-0188,2020-11-22,00:50:11,01:05:31,NA,incomplete,91,color,0,right,Purple_Star_Grid_3.jpg,Red_Circle_Grid_2.jpg,Purple_Triangle_Chess_1.jpg,right,747.3549999995157,true,high,false
THoXdnTV,3zvpamtjxqgf8kd3gsoqdmjsr77grt,3xm0hyn6nocyzdzro7zfx8utr88epp,THoXdnTV,2020-0188,2020-11-22,00:50:11,01:05:31,NA,incomplete,92,color,1,right,Green_Star_Grid_3.jpg,Blue_Plus_Grid_1.jpg,Green_Circle_Stripes_4.jpg,left,834.0299999108538,false,high,false
THoXdnTV,3zvpamtjxqgf8kd3gsoqdmjsr77grt,3xm0hyn6nocyzdzro7zfx8utr88epp,THoXdnTV,2020-0188,2020-11-22,00:50:11,01:05:31,NA,incomplete,93,color,1,right,Red_Circle_Stripes_4.jpg,Purple_Star_Stripes_2.jpg,Red_Plus_Dots_3.jpg,left,800.7699999725446,false,high,false
THoXdnTV,3zvpamtjxqgf8kd3gsoqdmjsr77grt,3xm0hyn6nocyzdzro7zfx8utr88epp,THoXdnTV,2020-0188,2020-11-22,00:50:11,01:05:31,NA,incomplete,94,color,1,right,Blue_Plus_Chess_4.jpg,Green_Triangle_Chess_3.jpg,Blue_Star_Dots_1.jpg,left,1023.8899999530986,false,high,false
THoXdnTV,3zvpamtjxqgf8kd3gsoqdmjsr77grt,3xm0hyn6nocyzdzro7zfx8utr88epp,THoXdnTV,2020-0188,2020-11-22,00:50:11,01:05:31,NA,incomplete,95,color,1,right,Red_Triangle_Chess_2.jpg,Green_Circle_Chess_3.jpg,Red_Star_Grid_4.jpg,right,499.2649999912828,true,high,false
THoXdnTV,3zvpamtjxqgf8kd3gsoqdmjsr77grt,3xm0hyn6nocyzdzro7zfx8utr88epp,THoXdnTV,2020-0188,2020-11-22,00:50:11,01:05:31,NA,incomplete,96,color,0,left,Purple_Circle_Chess_3.jpg,Purple_Star_Dots_1.jpg,Blue_Plus_Chess_4.jpg,left,512.2499999124557,true,high,false
THoXdnTV,3zvpamtjxqgf8kd3gsoqdmjsr77grt,3xm0hyn6nocyzdzro7zfx8utr88epp,THoXdnTV,2020-0188,2020-11-22,00:50:11,01:05:31,NA,incomplete,97,color,0,left,Red_Triangle_Dots_1.jpg,Red_Star_Chess_4.jpg,Blue_Circle_Dots_2.jpg,left,874.9000000534579,true,high,false
THoXdnTV,3zvpamtjxqgf8kd3gsoqdmjsr77grt,3xm0hyn6nocyzdzro7zfx8utr88epp,THoXdnTV,2020-0188,2020-11-22,00:50:11,01:05:31,NA,incomplete,98,color,1,right,Purple_Plus_Stripes_4.jpg,Blue_Star_Stripes_2.jpg,Purple_Triangle_Chess_3.jpg,left,1128.5749999806285,false,high,false
THoXdnTV,3zvpamtjxqgf8kd3gsoqdmjsr77grt,3xm0hyn6nocyzdzro7zfx8utr88epp,THoXdnTV,2020-0188,2020-11-22,00:50:11,01:05:31,NA,incomplete,99,color,1,right,Green_Triangle_Grid_4.jpg,Blue_Circle_Grid_1.jpg,Green_Plus_Stripes_3.jpg,left,1167.0750000048429,false,high,false
THoXdnTV,3zvpamtjxqgf8kd3gsoqdmjsr77grt,3xm0hyn6nocyzdzro7zfx8utr88epp,THoXdnTV,2020-0188,2020-11-22,00:50:11,01:05:31,NA,incomplete,100,filling,1,right,Green_Triangle_Chess_4.jpg,Green_Plus_Grid_1.jpg,Red_Star_Chess_3.jpg,right,807.230000034906,true,high,false
THoXdnTV,3zvpamtjxqgf8kd3gsoqdmjsr77grt,3xm0hyn6nocyzdzro7zfx8utr88epp,THoXdnTV,2020-0188,2020-11-22,00:50:11,01:05:31,NA,incomplete,101,filling,1,left,Red_Circle_Grid_4.jpg,Blue_Plus_Grid_3.jpg,Red_Star_Chess_1.jpg,right,839.9399999761954,false,high,false
THoXdnTV,3zvpamtjxqgf8kd3gsoqdmjsr77grt,3xm0hyn6nocyzdzro7zfx8utr88epp,THoXdnTV,2020-0188,2020-11-22,00:50:11,01:05:31,NA,incomplete,102,filling,0,right,Green_Circle_Grid_3.jpg,Green_Star_Chess_4.jpg,Red_Triangle_Grid_1.jpg,right,851.189999957569,true,high,false
THoXdnTV,3zvpamtjxqgf8kd3gsoqdmjsr77grt,3xm0hyn6nocyzdzro7zfx8utr88epp,THoXdnTV,2020-0188,2020-11-22,00:50:11,01:05:31,NA,incomplete,103,filling,1,right,Green_Circle_Stripes_4.jpg,Green_Triangle_Grid_2.jpg,Red_Plus_Stripes_1.jpg,right,892.8549999836832,true,high,false
THoXdnTV,3zvpamtjxqgf8kd3gsoqdmjsr77grt,3xm0hyn6nocyzdzro7zfx8utr88epp,THoXdnTV,2020-0188,2020-11-22,00:50:11,01:05:31,NA,incomplete,104,filling,0,left,Purple_Triangle_Chess_4.jpg,Red_Circle_Chess_3.jpg,Purple_Plus_Dots_2.jpg,left,793.5750000178814,true,high,false
THoXdnTV,3zvpamtjxqgf8kd3gsoqdmjsr77grt,3xm0hyn6nocyzdzro7zfx8utr88epp,THoXdnTV,2020-0188,2020-11-22,00:50:11,01:05:31,NA,incomplete,105,filling,0,left,Red_Triangle_Grid_2.jpg,Blue_Plus_Grid_4.jpg,Red_Star_Dots_1.jpg,left,870.1700000092387,true,high,false
THoXdnTV,3zvpamtjxqgf8kd3gsoqdmjsr77grt,3xm0hyn6nocyzdzro7zfx8utr88epp,THoXdnTV,2020-0188,2020-11-22,00:50:11,01:05:31,NA,incomplete,106,filling,1,left,Red_Circle_Grid_3.jpg,Green_Star_Grid_1.jpg,Red_Plus_Chess_2.jpg,right,499.1050000535324,false,high,false
THoXdnTV,3zvpamtjxqgf8kd3gsoqdmjsr77grt,3xm0hyn6nocyzdzro7zfx8utr88epp,THoXdnTV,2020-0188,2020-11-22,00:50:11,01:05:31,NA,incomplete,107,filling,1,left,Green_Triangle_Stripes_2.jpg,Red_Circle_Stripes_1.jpg,Green_Plus_Chess_3.jpg,right,839.7200000472367,false,high,false
THoXdnTV,3zvpamtjxqgf8kd3gsoqdmjsr77grt,3xm0hyn6nocyzdzro7zfx8utr88epp,THoXdnTV,2020-0188,2020-11-22,00:50:11,01:05:31,NA,incomplete,108,filling,1,right,Red_Star_Grid_2.jpg,Red_Circle_Dots_4.jpg,Blue_Plus_Grid_3.jpg,right,1215.165000059642,true,high,false
THoXdnTV,3zvpamtjxqgf8kd3gsoqdmjsr77grt,3xm0hyn6nocyzdzro7zfx8utr88epp,THoXdnTV,2020-0188,2020-11-22,00:50:11,01:05:31,NA,incomplete,109,filling,1,right,Purple_Circle_Dots_4.jpg,Purple_Triangle_Chess_3.jpg,Blue_Plus_Dots_2.jpg,right,797.3050000146031,true,high,false
THoXdnTV,3zvpamtjxqgf8kd3gsoqdmjsr77grt,3xm0hyn6nocyzdzro7zfx8utr88epp,THoXdnTV,2020-0188,2020-11-22,00:50:11,01:05:31,NA,incomplete,110,color,1,left,Blue_Triangle_Dots_3.jpg,Blue_Plus_Chess_2.jpg,Purple_Circle_Dots_4.jpg,right,966.8949999613687,false,high,false
THoXdnTV,3zvpamtjxqgf8kd3gsoqdmjsr77grt,3xm0hyn6nocyzdzro7zfx8utr88epp,THoXdnTV,2020-0188,2020-11-22,00:50:11,01:05:31,NA,incomplete,111,color,1,right,Purple_Circle_Stripes_3.jpg,Blue_Plus_Stripes_2.jpg,Purple_Triangle_Dots_1.jpg,left,1035.5149999959394,false,high,false
THoXdnTV,3zvpamtjxqgf8kd3gsoqdmjsr77grt,3xm0hyn6nocyzdzro7zfx8utr88epp,THoXdnTV,2020-0188,2020-11-22,00:50:11,01:05:31,NA,incomplete,112,color,1,left,Blue_Circle_Grid_2.jpg,Blue_Triangle_Dots_1.jpg,Purple_Star_Grid_3.jpg,right,995.6500000553206,false,high,false
THoXdnTV,3zvpamtjxqgf8kd3gsoqdmjsr77grt,3xm0hyn6nocyzdzro7zfx8utr88epp,THoXdnTV,2020-0188,2020-11-22,00:50:11,01:05:31,NA,incomplete,113,color,1,right,Red_Plus_Grid_2.jpg,Purple_Star_Grid_1.jpg,Red_Circle_Stripes_4.jpg,left,1063.9399999054149,false,high,false
THoXdnTV,3zvpamtjxqgf8kd3gsoqdmjsr77grt,3xm0hyn6nocyzdzro7zfx8utr88epp,THoXdnTV,2020-0188,2020-11-22,00:50:11,01:05:31,NA,incomplete,114,color,1,right,Green_Circle_Chess_2.jpg,Purple_Plus_Chess_4.jpg,Green_Triangle_Dots_3.jpg,right,621.5650000376627,true,high,false
THoXdnTV,3zvpamtjxqgf8kd3gsoqdmjsr77grt,3xm0hyn6nocyzdzro7zfx8utr88epp,THoXdnTV,2020-0188,2020-11-22,00:50:11,01:05:31,NA,incomplete,115,color,1,right,Green_Star_Grid_2.jpg,Blue_Plus_Grid_3.jpg,Green_Triangle_Dots_4.jpg,right,468.7849999172613,true,high,false
THoXdnTV,3zvpamtjxqgf8kd3gsoqdmjsr77grt,3xm0hyn6nocyzdzro7zfx8utr88epp,THoXdnTV,2020-0188,2020-11-22,00:50:11,01:05:31,NA,incomplete,116,color,1,left,Blue_Plus_Grid_4.jpg,Blue_Star_Dots_2.jpg,Red_Triangle_Grid_3.jpg,left,511.06500008609146,true,high,false
THoXdnTV,3zvpamtjxqgf8kd3gsoqdmjsr77grt,3xm0hyn6nocyzdzro7zfx8utr88epp,THoXdnTV,2020-0188,2020-11-22,00:50:11,01:05:31,NA,incomplete,117,color,0,left,Red_Triangle_Chess_2.jpg,Red_Star_Stripes_3.jpg,Blue_Plus_Chess_4.jpg,left,734.3800000380725,true,high,false
THoXdnTV,3zvpamtjxqgf8kd3gsoqdmjsr77grt,3xm0hyn6nocyzdzro7zfx8utr88epp,THoXdnTV,2020-0188,2020-11-22,00:50:11,01:05:31,NA,incomplete,118,color,1,right,Blue_Circle_Grid_3.jpg,Purple_Triangle_Grid_4.jpg,Blue_Star_Dots_2.jpg,right,512.8299999050796,true,high,false
THoXdnTV,3zvpamtjxqgf8kd3gsoqdmjsr77grt,3xm0hyn6nocyzdzro7zfx8utr88epp,THoXdnTV,2020-0188,2020-11-22,00:50:11,01:05:31,NA,incomplete,119,color,1,right,Green_Star_Chess_2.jpg,Blue_Triangle_Chess_1.jpg,Green_Plus_Grid_3.jpg,right,545.3599999891594,true,high,false
THoXdnTV,3zvpamtjxqgf8kd3gsoqdmjsr77grt,3xm0hyn6nocyzdzro7zfx8utr88epp,THoXdnTV,2020-0188,2020-11-22,00:50:11,01:05:31,NA,incomplete,120,filling,0,left,Green_Circle_Chess_1.jpg,Blue_Triangle_Chess_3.jpg,Green_Plus_Grid_4.jpg,right,492.37500003073364,false,high,false
THoXdnTV,3zvpamtjxqgf8kd3gsoqdmjsr77grt,3xm0hyn6nocyzdzro7zfx8utr88epp,THoXdnTV,2020-0188,2020-11-22,00:50:11,01:05:31,NA,incomplete,121,filling,1,left,Red_Triangle_Stripes_3.jpg,Green_Star_Stripes_4.jpg,Red_Plus_Dots_2.jpg,right,744.4800001103431,false,high,false
THoXdnTV,3zvpamtjxqgf8kd3gsoqdmjsr77grt,3xm0hyn6nocyzdzro7zfx8utr88epp,THoXdnTV,2020-0188,2020-11-22,00:50:11,01:05:31,NA,incomplete,122,filling,1,left,Purple_Triangle_Stripes_4.jpg,Blue_Plus_Stripes_3.jpg,Purple_Star_Grid_1.jpg,left,1171.2249999400228,true,high,false
THoXdnTV,3zvpamtjxqgf8kd3gsoqdmjsr77grt,3xm0hyn6nocyzdzro7zfx8utr88epp,THoXdnTV,2020-0188,2020-11-22,00:50:11,01:05:31,NA,incomplete,123,filling,0,right,Blue_Triangle_Stripes_1.jpg,Blue_Circle_Grid_4.jpg,Purple_Star_Stripes_2.jpg,right,817.1350000193343,true,high,false
THoXdnTV,3zvpamtjxqgf8kd3gsoqdmjsr77grt,3xm0hyn6nocyzdzro7zfx8utr88epp,THoXdnTV,2020-0188,2020-11-22,00:50:11,01:05:31,NA,incomplete,124,filling,1,left,Green_Plus_Stripes_3.jpg,Purple_Star_Stripes_1.jpg,Green_Circle_Dots_4.jpg,left,826.2899999972433,true,high,false
THoXdnTV,3zvpamtjxqgf8kd3gsoqdmjsr77grt,3xm0hyn6nocyzdzro7zfx8utr88epp,THoXdnTV,2020-0188,2020-11-22,00:50:11,01:05:31,NA,incomplete,125,filling,1,right,Green_Triangle_Stripes_1.jpg,Green_Plus_Dots_3.jpg,Red_Circle_Stripes_2.jpg,right,751.8250000430271,true,high,false
THoXdnTV,3zvpamtjxqgf8kd3gsoqdmjsr77grt,3xm0hyn6nocyzdzro7zfx8utr88epp,THoXdnTV,2020-0188,2020-11-22,00:50:11,01:05:31,NA,incomplete,126,filling,1,left,Red_Triangle_Stripes_4.jpg,Blue_Circle_Stripes_2.jpg,Red_Plus_Dots_1.jpg,left,848.935000016354,true,high,false
THoXdnTV,3zvpamtjxqgf8kd3gsoqdmjsr77grt,3xm0hyn6nocyzdzro7zfx8utr88epp,THoXdnTV,2020-0188,2020-11-22,00:50:11,01:05:31,NA,incomplete,127,filling,1,left,Purple_Plus_Grid_3.jpg,Blue_Triangle_Grid_2.jpg,Purple_Circle_Chess_4.jpg,left,981.5700000617653,true,high,false
THoXdnTV,3zvpamtjxqgf8kd3gsoqdmjsr77grt,3xm0hyn6nocyzdzro7zfx8utr88epp,THoXdnTV,2020-0188,2020-11-22,00:50:11,01:05:31,NA,incomplete,128,filling,1,right,Purple_Circle_Dots_2.jpg,Purple_Star_Grid_3.jpg,Red_Plus_Dots_4.jpg,right,937.7450000029057,true,high,false
THoXdnTV,3zvpamtjxqgf8kd3gsoqdmjsr77grt,3xm0hyn6nocyzdzro7zfx8utr88epp,THoXdnTV,2020-0188,2020-11-22,00:50:11,01:05:31,NA,incomplete,129,filling,1,right,Blue_Star_Stripes_4.jpg,Blue_Plus_Chess_3.jpg,Purple_Circle_Stripes_1.jpg,right,926.0200000135228,true,high,false
THoXdnTV,3zvpamtjxqgf8kd3gsoqdmjsr77grt,3xm0hyn6nocyzdzro7zfx8utr88epp,THoXdnTV,2020-0188,2020-11-22,00:50:11,01:05:31,NA,incomplete,130,filling,1,right,Purple_Plus_Grid_1.jpg,Purple_Star_Chess_4.jpg,Red_Triangle_Grid_2.jpg,right,1057.5050000334159,true,high,false
THoXdnTV,3zvpamtjxqgf8kd3gsoqdmjsr77grt,3xm0hyn6nocyzdzro7zfx8utr88epp,THoXdnTV,2020-0188,2020-11-22,00:50:11,01:05:31,NA,incomplete,131,filling,1,right,Green_Plus_Chess_3.jpg,Green_Circle_Stripes_1.jpg,Purple_Star_Chess_4.jpg,right,882.7649999875575,true,high,false
THoXdnTV,3zvpamtjxqgf8kd3gsoqdmjsr77grt,3xm0hyn6nocyzdzro7zfx8utr88epp,THoXdnTV,2020-0188,2020-11-22,00:50:11,01:05:31,NA,incomplete,132,filling,1,right,Green_Plus_Chess_1.jpg,Green_Circle_Grid_3.jpg,Purple_Star_Chess_4.jpg,right,985.964999999851,true,high,false
THoXdnTV,3zvpamtjxqgf8kd3gsoqdmjsr77grt,3xm0hyn6nocyzdzro7zfx8utr88epp,THoXdnTV,2020-0188,2020-11-22,00:50:11,01:05:31,NA,incomplete,133,filling,1,left,Green_Plus_Grid_2.jpg,Blue_Circle_Grid_1.jpg,Green_Star_Stripes_3.jpg,left,811.9299999671057,true,high,false
THoXdnTV,3zvpamtjxqgf8kd3gsoqdmjsr77grt,3xm0hyn6nocyzdzro7zfx8utr88epp,THoXdnTV,2020-0188,2020-11-22,00:50:11,01:05:31,NA,incomplete,134,filling,1,right,Purple_Triangle_Chess_1.jpg,Purple_Circle_Dots_4.jpg,Green_Plus_Chess_3.jpg,left,1190.7800000626594,false,high,false
THoXdnTV,3zvpamtjxqgf8kd3gsoqdmjsr77grt,3xm0hyn6nocyzdzro7zfx8utr88epp,THoXdnTV,2020-0188,2020-11-22,00:50:11,01:05:31,NA,incomplete,135,filling,1,left,Blue_Circle_Grid_2.jpg,Purple_Star_Grid_4.jpg,Blue_Plus_Stripes_3.jpg,left,1117.50499997288,true,high,false
THoXdnTV,3zvpamtjxqgf8kd3gsoqdmjsr77grt,3xm0hyn6nocyzdzro7zfx8utr88epp,THoXdnTV,2020-0188,2020-11-22,00:50:11,01:05:31,NA,incomplete,136,filling,1,right,Blue_Triangle_Grid_4.jpg,Blue_Circle_Stripes_1.jpg,Red_Star_Grid_3.jpg,right,1263.8349999906495,true,high,false
THoXdnTV,3zvpamtjxqgf8kd3gsoqdmjsr77grt,3xm0hyn6nocyzdzro7zfx8utr88epp,THoXdnTV,2020-0188,2020-11-22,00:50:11,01:05:31,NA,incomplete,137,filling,0,left,Blue_Star_Chess_4.jpg,Green_Circle_Chess_3.jpg,Blue_Triangle_Grid_2.jpg,right,1094.9150000233203,false,high,false
THoXdnTV,3zvpamtjxqgf8kd3gsoqdmjsr77grt,3xm0hyn6nocyzdzro7zfx8utr88epp,THoXdnTV,2020-0188,2020-11-22,00:50:11,01:05:31,NA,incomplete,138,filling,1,left,Blue_Circle_Dots_4.jpg,Red_Triangle_Dots_3.jpg,Blue_Plus_Grid_2.jpg,left,843.155000009574,true,high,false
THoXdnTV,3zvpamtjxqgf8kd3gsoqdmjsr77grt,3xm0hyn6nocyzdzro7zfx8utr88epp,THoXdnTV,2020-0188,2020-11-22,00:50:11,01:05:31,NA,incomplete,139,filling,1,right,Green_Circle_Dots_2.jpg,Green_Star_Stripes_4.jpg,Blue_Triangle_Dots_3.jpg,left,1176.2350000208244,false,high,false
THoXdnTV,3zvpamtjxqgf8kd3gsoqdmjsr77grt,3xm0hyn6nocyzdzro7zfx8utr88epp,THoXdnTV,2020-0188,2020-11-22,00:50:11,01:05:31,NA,incomplete,140,color,1,left,Purple_Circle_Dots_4.jpg,Purple_Triangle_Chess_1.jpg,Red_Plus_Dots_2.jpg,right,920.3050000360236,false,high,false
THoXdnTV,3zvpamtjxqgf8kd3gsoqdmjsr77grt,3xm0hyn6nocyzdzro7zfx8utr88epp,THoXdnTV,2020-0188,2020-11-22,00:50:11,01:05:31,NA,incomplete,141,color,1,left,Green_Star_Stripes_1.jpg,Green_Circle_Chess_4.jpg,Purple_Plus_Stripes_3.jpg,left,970.1599999098107,true,high,false
THoXdnTV,3zvpamtjxqgf8kd3gsoqdmjsr77grt,3xm0hyn6nocyzdzro7zfx8utr88epp,THoXdnTV,2020-0188,2020-11-22,00:50:11,01:05:31,NA,incomplete,142,color,1,right,Blue_Plus_Dots_2.jpg,Red_Star_Dots_1.jpg,Blue_Circle_Chess_4.jpg,right,530.280000064522,true,high,false
THoXdnTV,3zvpamtjxqgf8kd3gsoqdmjsr77grt,3xm0hyn6nocyzdzro7zfx8utr88epp,THoXdnTV,2020-0188,2020-11-22,00:50:11,01:05:31,NA,incomplete,143,color,1,right,Purple_Triangle_Chess_1.jpg,Blue_Plus_Chess_4.jpg,Purple_Star_Dots_2.jpg,right,587.900000042282,true,high,false
THoXdnTV,3zvpamtjxqgf8kd3gsoqdmjsr77grt,3xm0hyn6nocyzdzro7zfx8utr88epp,THoXdnTV,2020-0188,2020-11-22,00:50:11,01:05:31,NA,incomplete,144,color,1,left,Green_Circle_Dots_1.jpg,Green_Triangle_Stripes_3.jpg,Red_Star_Dots_4.jpg,left,540.0849999859929,true,high,false
THoXdnTV,3zvpamtjxqgf8kd3gsoqdmjsr77grt,3xm0hyn6nocyzdzro7zfx8utr88epp,THoXdnTV,2020-0188,2020-11-22,00:50:11,01:05:31,NA,incomplete,145,color,0,left,Green_Circle_Dots_1.jpg,Green_Triangle_Chess_4.jpg,Red_Star_Dots_2.jpg,left,696.4800000423566,true,high,false
THoXdnTV,3zvpamtjxqgf8kd3gsoqdmjsr77grt,3xm0hyn6nocyzdzro7zfx8utr88epp,THoXdnTV,2020-0188,2020-11-22,00:50:11,01:05:31,NA,incomplete,146,color,1,right,Green_Circle_Dots_2.jpg,Red_Star_Dots_3.jpg,Green_Plus_Stripes_4.jpg,right,560.8500000089407,true,high,false
THoXdnTV,3zvpamtjxqgf8kd3gsoqdmjsr77grt,3xm0hyn6nocyzdzro7zfx8utr88epp,THoXdnTV,2020-0188,2020-11-22,00:50:11,01:05:31,NA,incomplete,147,color,1,right,Blue_Triangle_Stripes_1.jpg,Purple_Star_Stripes_4.jpg,Blue_Plus_Grid_2.jpg,right,975.1149999210611,true,high,false
THoXdnTV,3zvpamtjxqgf8kd3gsoqdmjsr77grt,3xm0hyn6nocyzdzro7zfx8utr88epp,THoXdnTV,2020-0188,2020-11-22,00:50:11,01:05:31,NA,incomplete,148,color,1,right,Purple_Circle_Stripes_4.jpg,Red_Star_Stripes_2.jpg,Purple_Plus_Dots_3.jpg,right,606.9099999731407,true,high,false
THoXdnTV,3zvpamtjxqgf8kd3gsoqdmjsr77grt,3xm0hyn6nocyzdzro7zfx8utr88epp,THoXdnTV,2020-0188,2020-11-22,00:50:11,01:05:31,NA,incomplete,149,color,1,left,Red_Star_Chess_2.jpg,Red_Circle_Grid_3.jpg,Blue_Triangle_Chess_1.jpg,left,577.0799999590963,true,high,false
THoXdnTV,3zvpamtjxqgf8kd3gsoqdmjsr77grt,3xm0hyn6nocyzdzro7zfx8utr88epp,THoXdnTV,2020-0188,2020-11-22,00:50:11,01:05:31,NA,incomplete,150,color,1,left,Blue_Circle_Chess_2.jpg,Blue_Plus_Stripes_1.jpg,Green_Triangle_Chess_3.jpg,left,584.9600000074133,true,high,false
THoXdnTV,3zvpamtjxqgf8kd3gsoqdmjsr77grt,3xm0hyn6nocyzdzro7zfx8utr88epp,THoXdnTV,2020-0188,2020-11-22,00:50:11,01:05:31,NA,incomplete,151,color,1,left,Purple_Plus_Grid_1.jpg,Purple_Star_Chess_3.jpg,Green_Circle_Grid_2.jpg,left,636.7150000296533,true,high,false
THoXdnTV,3zvpamtjxqgf8kd3gsoqdmjsr77grt,3xm0hyn6nocyzdzro7zfx8utr88epp,THoXdnTV,2020-0188,2020-11-22,00:50:11,01:05:31,NA,incomplete,152,color,1,left,Blue_Triangle_Stripes_2.jpg,Blue_Star_Dots_4.jpg,Purple_Plus_Stripes_3.jpg,left,945.6500000087544,true,high,false
THoXdnTV,3zvpamtjxqgf8kd3gsoqdmjsr77grt,3xm0hyn6nocyzdzro7zfx8utr88epp,THoXdnTV,2020-0188,2020-11-22,00:50:11,01:05:31,NA,incomplete,153,color,1,right,Green_Circle_Dots_2.jpg,Blue_Plus_Dots_4.jpg,Green_Star_Stripes_3.jpg,right,509.39999998081475,true,high,false
THoXdnTV,3zvpamtjxqgf8kd3gsoqdmjsr77grt,3xm0hyn6nocyzdzro7zfx8utr88epp,THoXdnTV,2020-0188,2020-11-22,00:50:11,01:05:31,NA,incomplete,154,color,1,right,Red_Plus_Chess_1.jpg,Green_Circle_Chess_2.jpg,Red_Triangle_Stripes_4.jpg,right,466.6650000726804,true,high,false
THoXdnTV,3zvpamtjxqgf8kd3gsoqdmjsr77grt,3xm0hyn6nocyzdzro7zfx8utr88epp,THoXdnTV,2020-0188,2020-11-22,00:50:11,01:05:31,NA,incomplete,155,color,1,left,Blue_Plus_Chess_4.jpg,Blue_Triangle_Grid_2.jpg,Green_Star_Chess_1.jpg,left,549.7600000817329,true,high,false
THoXdnTV,3zvpamtjxqgf8kd3gsoqdmjsr77grt,3xm0hyn6nocyzdzro7zfx8utr88epp,THoXdnTV,2020-0188,2020-11-22,00:50:11,01:05:31,NA,incomplete,156,color,0,left,Blue_Plus_Stripes_3.jpg,Blue_Star_Chess_1.jpg,Green_Triangle_Stripes_2.jpg,left,666.6250000707805,true,high,false
THoXdnTV,3zvpamtjxqgf8kd3gsoqdmjsr77grt,3xm0hyn6nocyzdzro7zfx8utr88epp,THoXdnTV,2020-0188,2020-11-22,00:50:11,01:05:31,NA,incomplete,157,color,1,left,Red_Plus_Dots_1.jpg,Red_Star_Grid_4.jpg,Blue_Circle_Dots_2.jpg,left,709.5600001048297,true,high,false
THoXdnTV,3zvpamtjxqgf8kd3gsoqdmjsr77grt,3xm0hyn6nocyzdzro7zfx8utr88epp,THoXdnTV,2020-0188,2020-11-22,00:50:11,01:05:31,NA,incomplete,158,color,1,right,Purple_Star_Stripes_1.jpg,Green_Triangle_Stripes_2.jpg,Purple_Plus_Grid_4.jpg,right,599.5600000023842,true,high,false
THoXdnTV,3zvpamtjxqgf8kd3gsoqdmjsr77grt,3xm0hyn6nocyzdzro7zfx8utr88epp,THoXdnTV,2020-0188,2020-11-22,00:50:11,01:05:31,NA,incomplete,159,color,0,right,Green_Circle_Stripes_3.jpg,Purple_Plus_Stripes_2.jpg,Green_Star_Dots_4.jpg,right,770.0500000501052,true,high,false
THoXdnTV,3zvpamtjxqgf8kd3gsoqdmjsr77grt,3xm0hyn6nocyzdzro7zfx8utr88epp,THoXdnTV,2020-0188,2020-11-22,00:50:11,01:05:31,NA,incomplete,160,filling,1,right,Blue_Plus_Grid_4.jpg,Blue_Circle_Chess_1.jpg,Green_Star_Grid_3.jpg,left,986.8199999909848,false,high,false
THoXdnTV,3zvpamtjxqgf8kd3gsoqdmjsr77grt,3xm0hyn6nocyzdzro7zfx8utr88epp,THoXdnTV,2020-0188,2020-11-22,00:50:11,01:05:31,NA,incomplete,161,filling,1,left,Purple_Triangle_Stripes_2.jpg,Green_Circle_Stripes_4.jpg,Purple_Plus_Chess_1.jpg,right,557.3700000531971,false,high,false
THoXdnTV,3zvpamtjxqgf8kd3gsoqdmjsr77grt,3xm0hyn6nocyzdzro7zfx8utr88epp,THoXdnTV,2020-0188,2020-11-22,00:50:11,01:05:31,NA,incomplete,162,filling,1,left,Green_Triangle_Grid_3.jpg,Purple_Circle_Grid_1.jpg,Green_Star_Dots_4.jpg,left,852.1000000182539,true,high,false
THoXdnTV,3zvpamtjxqgf8kd3gsoqdmjsr77grt,3xm0hyn6nocyzdzro7zfx8utr88epp,THoXdnTV,2020-0188,2020-11-22,00:50:11,01:05:31,NA,incomplete,163,filling,1,left,Blue_Plus_Stripes_3.jpg,Purple_Triangle_Stripes_2.jpg,Blue_Star_Dots_4.jpg,left,856.1350000090897,true,high,false
THoXdnTV,3zvpamtjxqgf8kd3gsoqdmjsr77grt,3xm0hyn6nocyzdzro7zfx8utr88epp,THoXdnTV,2020-0188,2020-11-22,00:50:11,01:05:31,NA,incomplete,164,filling,1,right,Red_Plus_Chess_3.jpg,Red_Triangle_Grid_4.jpg,Purple_Star_Chess_2.jpg,right,844.429999939166,true,high,false
THoXdnTV,3zvpamtjxqgf8kd3gsoqdmjsr77grt,3xm0hyn6nocyzdzro7zfx8utr88epp,THoXdnTV,2020-0188,2020-11-22,00:50:11,01:05:31,NA,incomplete,165,filling,1,left,Red_Plus_Chess_1.jpg,Green_Triangle_Chess_2.jpg,Red_Star_Stripes_4.jpg,left,876.7800000496209,true,high,false
THoXdnTV,3zvpamtjxqgf8kd3gsoqdmjsr77grt,3xm0hyn6nocyzdzro7zfx8utr88epp,THoXdnTV,2020-0188,2020-11-22,00:50:11,01:05:31,NA,incomplete,166,filling,0,left,Red_Plus_Grid_3.jpg,Green_Triangle_Grid_2.jpg,Red_Circle_Dots_1.jpg,left,1019.3699999945238,true,high,false
THoXdnTV,3zvpamtjxqgf8kd3gsoqdmjsr77grt,3xm0hyn6nocyzdzro7zfx8utr88epp,THoXdnTV,2020-0188,2020-11-22,00:50:11,01:05:31,NA,incomplete,167,filling,1,left,Blue_Plus_Chess_2.jpg,Red_Circle_Chess_3.jpg,Blue_Star_Stripes_4.jpg,left,815.6700000399724,true,high,false
THoXdnTV,3zvpamtjxqgf8kd3gsoqdmjsr77grt,3xm0hyn6nocyzdzro7zfx8utr88epp,THoXdnTV,2020-0188,2020-11-22,00:50:11,01:05:31,NA,incomplete,168,filling,1,left,Blue_Star_Grid_3.jpg,Red_Plus_Grid_4.jpg,Blue_Triangle_Stripes_1.jpg,right,1109.2950000893325,false,high,false
THoXdnTV,3zvpamtjxqgf8kd3gsoqdmjsr77grt,3xm0hyn6nocyzdzro7zfx8utr88epp,THoXdnTV,2020-0188,2020-11-22,00:50:11,01:05:31,NA,incomplete,169,filling,1,right,Green_Circle_Chess_3.jpg,Green_Triangle_Stripes_4.jpg,Red_Star_Chess_2.jpg,right,769.6399999549612,true,high,false
THoXdnTV,3zvpamtjxqgf8kd3gsoqdmjsr77grt,3xm0hyn6nocyzdzro7zfx8utr88epp,THoXdnTV,2020-0188,2020-11-22,00:50:11,01:05:31,NA,incomplete,170,filling,0,right,Green_Triangle_Dots_4.jpg,Green_Circle_Chess_3.jpg,Blue_Star_Dots_2.jpg,left,1028.9349999511614,false,high,false
THoXdnTV,3zvpamtjxqgf8kd3gsoqdmjsr77grt,3xm0hyn6nocyzdzro7zfx8utr88epp,THoXdnTV,2020-0188,2020-11-22,00:50:11,01:05:31,NA,incomplete,171,filling,1,left,Blue_Plus_Stripes_4.jpg,Red_Star_Stripes_2.jpg,Blue_Circle_Dots_3.jpg,left,995.5349999945611,true,high,false
THoXdnTV,3zvpamtjxqgf8kd3gsoqdmjsr77grt,3xm0hyn6nocyzdzro7zfx8utr88epp,THoXdnTV,2020-0188,2020-11-22,00:50:11,01:05:31,NA,incomplete,172,filling,0,right,Purple_Star_Chess_2.jpg,Purple_Plus_Dots_1.jpg,Blue_Triangle_Chess_4.jpg,right,757.93999992311,true,high,false
THoXdnTV,3zvpamtjxqgf8kd3gsoqdmjsr77grt,3xm0hyn6nocyzdzro7zfx8utr88epp,THoXdnTV,2020-0188,2020-11-22,00:50:11,01:05:31,NA,incomplete,173,filling,1,right,Purple_Plus_Dots_1.jpg,Purple_Circle_Grid_4.jpg,Red_Triangle_Dots_3.jpg,right,869.4050000049174,true,high,false
THoXdnTV,3zvpamtjxqgf8kd3gsoqdmjsr77grt,3xm0hyn6nocyzdzro7zfx8utr88epp,THoXdnTV,2020-0188,2020-11-22,00:50:11,01:05:31,NA,incomplete,174,filling,1,left,Green_Triangle_Chess_3.jpg,Red_Star_Chess_4.jpg,Green_Circle_Grid_1.jpg,left,942.9950000485405,true,high,false
THoXdnTV,3zvpamtjxqgf8kd3gsoqdmjsr77grt,3xm0hyn6nocyzdzro7zfx8utr88epp,THoXdnTV,2020-0188,2020-11-22,00:50:11,01:05:31,NA,incomplete,175,filling,0,left,Green_Star_Grid_3.jpg,Red_Plus_Grid_2.jpg,Green_Circle_Chess_1.jpg,right,1144.895000034012,false,high,false
THoXdnTV,3zvpamtjxqgf8kd3gsoqdmjsr77grt,3xm0hyn6nocyzdzro7zfx8utr88epp,THoXdnTV,2020-0188,2020-11-22,00:50:11,01:05:31,NA,incomplete,176,filling,1,right,Purple_Star_Stripes_2.jpg,Purple_Triangle_Dots_3.jpg,Green_Circle_Stripes_1.jpg,left,791.9850000180304,false,high,false
THoXdnTV,3zvpamtjxqgf8kd3gsoqdmjsr77grt,3xm0hyn6nocyzdzro7zfx8utr88epp,THoXdnTV,2020-0188,2020-11-22,00:50:11,01:05:31,NA,incomplete,177,filling,0,left,Blue_Circle_Chess_1.jpg,Purple_Star_Chess_2.jpg,Blue_Triangle_Dots_4.jpg,left,691.7949999915436,true,high,false
THoXdnTV,3zvpamtjxqgf8kd3gsoqdmjsr77grt,3xm0hyn6nocyzdzro7zfx8utr88epp,THoXdnTV,2020-0188,2020-11-22,00:50:11,01:05:31,NA,incomplete,178,filling,1,left,Red_Plus_Chess_4.jpg,Purple_Triangle_Chess_3.jpg,Red_Circle_Dots_2.jpg,left,1068.129999912344,true,high,false
THoXdnTV,3zvpamtjxqgf8kd3gsoqdmjsr77grt,3xm0hyn6nocyzdzro7zfx8utr88epp,THoXdnTV,2020-0188,2020-11-22,00:50:11,01:05:31,NA,incomplete,179,filling,1,left,Blue_Circle_Chess_3.jpg,Red_Triangle_Chess_1.jpg,Blue_Star_Dots_2.jpg,left,812.1050000190735,true,high,false
THoXdnTV,3zvpamtjxqgf8kd3gsoqdmjsr77grt,3xm0hyn6nocyzdzro7zfx8utr88epp,THoXdnTV,2020-0188,2020-11-22,00:50:11,01:05:31,NA,incomplete,180,color,0,left,Green_Plus_Stripes_3.jpg,Green_Triangle_Grid_1.jpg,Red_Star_Stripes_2.jpg,right,892.4450000049546,false,high,false
THoXdnTV,3zvpamtjxqgf8kd3gsoqdmjsr77grt,3xm0hyn6nocyzdzro7zfx8utr88epp,THoXdnTV,2020-0188,2020-11-22,00:50:11,01:05:31,NA,incomplete,181,color,1,right,Purple_Circle_Chess_3.jpg,Green_Triangle_Chess_1.jpg,Purple_Star_Stripes_4.jpg,left,873.2249999884516,false,high,false
THoXdnTV,3zvpamtjxqgf8kd3gsoqdmjsr77grt,3xm0hyn6nocyzdzro7zfx8utr88epp,THoXdnTV,2020-0188,2020-11-22,00:50:11,01:05:31,NA,incomplete,182,color,1,left,Green_Circle_Dots_4.jpg,Green_Triangle_Chess_3.jpg,Red_Plus_Dots_2.jpg,left,942.4700000090525,true,high,false
THoXdnTV,3zvpamtjxqgf8kd3gsoqdmjsr77grt,3xm0hyn6nocyzdzro7zfx8utr88epp,THoXdnTV,2020-0188,2020-11-22,00:50:11,01:05:31,NA,incomplete,183,color,1,right,Red_Circle_Grid_4.jpg,Purple_Star_Grid_2.jpg,Red_Triangle_Dots_3.jpg,right,593.4999999590218,true,high,false
THoXdnTV,3zvpamtjxqgf8kd3gsoqdmjsr77grt,3xm0hyn6nocyzdzro7zfx8utr88epp,THoXdnTV,2020-0188,2020-11-22,00:50:11,01:05:31,NA,incomplete,184,color,1,left,Purple_Plus_Dots_4.jpg,Purple_Circle_Chess_3.jpg,Green_Star_Dots_2.jpg,left,522.3949999781325,true,high,false
THoXdnTV,3zvpamtjxqgf8kd3gsoqdmjsr77grt,3xm0hyn6nocyzdzro7zfx8utr88epp,THoXdnTV,2020-0188,2020-11-22,00:50:11,01:05:31,NA,incomplete,185,color,1,right,Purple_Star_Chess_2.jpg,Red_Circle_Chess_3.jpg,Purple_Triangle_Stripes_1.jpg,right,649.5500000892207,true,high,false
THoXdnTV,3zvpamtjxqgf8kd3gsoqdmjsr77grt,3xm0hyn6nocyzdzro7zfx8utr88epp,THoXdnTV,2020-0188,2020-11-22,00:50:11,01:05:31,NA,incomplete,186,color,1,right,Blue_Circle_Dots_4.jpg,Purple_Star_Dots_2.jpg,Blue_Triangle_Chess_3.jpg,right,506.6799999913201,true,high,false
THoXdnTV,3zvpamtjxqgf8kd3gsoqdmjsr77grt,3xm0hyn6nocyzdzro7zfx8utr88epp,THoXdnTV,2020-0188,2020-11-22,00:50:11,01:05:31,NA,incomplete,187,color,1,right,Purple_Circle_Stripes_4.jpg,Blue_Triangle_Stripes_2.jpg,Purple_Star_Grid_1.jpg,right,572.0350000774488,true,high,false
THoXdnTV,3zvpamtjxqgf8kd3gsoqdmjsr77grt,3xm0hyn6nocyzdzro7zfx8utr88epp,THoXdnTV,2020-0188,2020-11-22,00:50:11,01:05:31,NA,incomplete,188,color,1,right,Green_Triangle_Stripes_1.jpg,Blue_Plus_Stripes_3.jpg,Green_Star_Grid_2.jpg,right,564.064999925904,true,high,false
THoXdnTV,3zvpamtjxqgf8kd3gsoqdmjsr77grt,3xm0hyn6nocyzdzro7zfx8utr88epp,THoXdnTV,2020-0188,2020-11-22,00:50:11,01:05:31,NA,incomplete,189,color,1,right,Blue_Star_Grid_4.jpg,Purple_Triangle_Grid_3.jpg,Blue_Plus_Chess_2.jpg,right,626.7850000876933,true,high,false
THoXdnTV,3zvpamtjxqgf8kd3gsoqdmjsr77grt,3xm0hyn6nocyzdzro7zfx8utr88epp,THoXdnTV,2020-0188,2020-11-22,00:50:11,01:05:31,NA,incomplete,190,color,1,left,Red_Circle_Chess_4.jpg,Red_Star_Stripes_3.jpg,Purple_Plus_Chess_2.jpg,left,486.4199999719858,true,high,false
THoXdnTV,3zvpamtjxqgf8kd3gsoqdmjsr77grt,3xm0hyn6nocyzdzro7zfx8utr88epp,THoXdnTV,2020-0188,2020-11-22,00:50:11,01:05:31,NA,incomplete,191,color,1,right,Blue_Star_Dots_2.jpg,Purple_Circle_Dots_3.jpg,Blue_Triangle_Chess_4.jpg,right,478.86000003200024,true,high,false
THoXdnTV,3zvpamtjxqgf8kd3gsoqdmjsr77grt,3xm0hyn6nocyzdzro7zfx8utr88epp,THoXdnTV,2020-0188,2020-11-22,00:50:11,01:05:31,NA,incomplete,192,color,1,left,Green_Circle_Dots_3.jpg,Green_Star_Stripes_4.jpg,Purple_Plus_Dots_1.jpg,left,436.7149999598041,true,high,false
THoXdnTV,3zvpamtjxqgf8kd3gsoqdmjsr77grt,3xm0hyn6nocyzdzro7zfx8utr88epp,THoXdnTV,2020-0188,2020-11-22,00:50:11,01:05:31,NA,incomplete,193,color,0,left,Green_Plus_Dots_2.jpg,Green_Triangle_Grid_3.jpg,Red_Circle_Dots_4.jpg,left,415.34000006504357,true,high,false
THoXdnTV,3zvpamtjxqgf8kd3gsoqdmjsr77grt,3xm0hyn6nocyzdzro7zfx8utr88epp,THoXdnTV,2020-0188,2020-11-22,00:50:11,01:05:31,NA,incomplete,194,color,1,left,Green_Plus_Dots_4.jpg,Green_Circle_Grid_1.jpg,Blue_Star_Dots_3.jpg,left,464.7200000472367,true,high,false
THoXdnTV,3zvpamtjxqgf8kd3gsoqdmjsr77grt,3xm0hyn6nocyzdzro7zfx8utr88epp,THoXdnTV,2020-0188,2020-11-22,00:50:11,01:05:31,NA,incomplete,195,color,1,left,Green_Star_Chess_3.jpg,Green_Triangle_Dots_2.jpg,Purple_Circle_Chess_4.jpg,left,397.89500006008893,true,high,false
THoXdnTV,3zvpamtjxqgf8kd3gsoqdmjsr77grt,3xm0hyn6nocyzdzro7zfx8utr88epp,THoXdnTV,2020-0188,2020-11-22,00:50:11,01:05:31,NA,incomplete,196,color,1,right,Purple_Star_Stripes_2.jpg,Blue_Plus_Stripes_3.jpg,Purple_Circle_Chess_1.jpg,right,567.9549999767914,true,high,false
THoXdnTV,3zvpamtjxqgf8kd3gsoqdmjsr77grt,3xm0hyn6nocyzdzro7zfx8utr88epp,THoXdnTV,2020-0188,2020-11-22,00:50:11,01:05:31,NA,incomplete,197,color,1,right,Green_Triangle_Grid_2.jpg,Red_Plus_Grid_1.jpg,Green_Circle_Stripes_4.jpg,right,464.0950000612065,true,high,false
THoXdnTV,3zvpamtjxqgf8kd3gsoqdmjsr77grt,3xm0hyn6nocyzdzro7zfx8utr88epp,THoXdnTV,2020-0188,2020-11-22,00:50:11,01:05:31,NA,incomplete,198,color,0,left,Green_Star_Stripes_1.jpg,Green_Triangle_Dots_4.jpg,Red_Circle_Stripes_2.jpg,left,453.74000002630055,true,high,false
THoXdnTV,3zvpamtjxqgf8kd3gsoqdmjsr77grt,3xm0hyn6nocyzdzro7zfx8utr88epp,THoXdnTV,2020-0188,2020-11-22,00:50:11,01:05:31,NA,incomplete,199,color,1,left,Blue_Star_Grid_4.jpg,Blue_Circle_Dots_1.jpg,Purple_Triangle_Grid_3.jpg,left,446.8700001016259,true,high,false
THoXdnTV,3zvpamtjxqgf8kd3gsoqdmjsr77grt,3xm0hyn6nocyzdzro7zfx8utr88epp,THoXdnTV,2020-0188,2020-11-22,00:50:11,01:05:31,NA,incomplete,200,filling,1,left,Green_Plus_Dots_3.jpg,Red_Triangle_Dots_4.jpg,Green_Circle_Chess_2.jpg,right,592.8849999327213,false,high,false
THoXdnTV,3zvpamtjxqgf8kd3gsoqdmjsr77grt,3xm0hyn6nocyzdzro7zfx8utr88epp,THoXdnTV,2020-0188,2020-11-22,00:50:11,01:05:31,NA,incomplete,201,filling,0,left,Purple_Plus_Dots_2.jpg,Green_Star_Dots_3.jpg,Purple_Triangle_Stripes_4.jpg,left,853.3250000327826,true,high,false
THoXdnTV,3zvpamtjxqgf8kd3gsoqdmjsr77grt,3xm0hyn6nocyzdzro7zfx8utr88epp,THoXdnTV,2020-0188,2020-11-22,00:50:11,01:05:31,NA,incomplete,202,filling,1,left,Blue_Triangle_Chess_4.jpg,Green_Circle_Chess_2.jpg,Blue_Star_Grid_3.jpg,right,482.0299999555573,false,high,false
THoXdnTV,3zvpamtjxqgf8kd3gsoqdmjsr77grt,3xm0hyn6nocyzdzro7zfx8utr88epp,THoXdnTV,2020-0188,2020-11-22,00:50:11,01:05:31,NA,incomplete,203,filling,1,right,Purple_Triangle_Stripes_2.jpg,Purple_Circle_Dots_3.jpg,Green_Plus_Stripes_1.jpg,left,1048.8700000569224,false,high,false
THoXdnTV,3zvpamtjxqgf8kd3gsoqdmjsr77grt,3xm0hyn6nocyzdzro7zfx8utr88epp,THoXdnTV,2020-0188,2020-11-22,00:50:11,01:05:31,NA,incomplete,204,filling,0,left,Red_Star_Dots_3.jpg,Blue_Plus_Dots_1.jpg,Red_Circle_Stripes_4.jpg,left,767.2199999215081,true,high,false
THoXdnTV,3zvpamtjxqgf8kd3gsoqdmjsr77grt,3xm0hyn6nocyzdzro7zfx8utr88epp,THoXdnTV,2020-0188,2020-11-22,00:50:11,01:05:31,NA,incomplete,205,filling,1,left,Green_Triangle_Stripes_3.jpg,Red_Plus_Stripes_1.jpg,Green_Circle_Dots_2.jpg,right,1045.8199999993667,false,high,false
THoXdnTV,3zvpamtjxqgf8kd3gsoqdmjsr77grt,3xm0hyn6nocyzdzro7zfx8utr88epp,THoXdnTV,2020-0188,2020-11-22,00:50:11,01:05:31,NA,incomplete,206,filling,0,left,Green_Plus_Chess_2.jpg,Red_Star_Chess_3.jpg,Green_Triangle_Dots_4.jpg,left,776.3300000224262,true,high,false
THoXdnTV,3zvpamtjxqgf8kd3gsoqdmjsr77grt,3xm0hyn6nocyzdzro7zfx8utr88epp,THoXdnTV,2020-0188,2020-11-22,00:50:11,01:05:31,NA,incomplete,207,filling,1,left,Purple_Triangle_Dots_4.jpg,Green_Star_Dots_2.jpg,Purple_Plus_Grid_1.jpg,left,908.6050000041723,true,high,false
THoXdnTV,3zvpamtjxqgf8kd3gsoqdmjsr77grt,3xm0hyn6nocyzdzro7zfx8utr88epp,THoXdnTV,2020-0188,2020-11-22,00:50:11,01:05:31,NA,incomplete,208,filling,0,right,Blue_Star_Stripes_3.jpg,Blue_Triangle_Grid_1.jpg,Red_Circle_Stripes_4.jpg,right,758.2000000402331,true,high,false
THoXdnTV,3zvpamtjxqgf8kd3gsoqdmjsr77grt,3xm0hyn6nocyzdzro7zfx8utr88epp,THoXdnTV,2020-0188,2020-11-22,00:50:11,01:05:31,NA,incomplete,209,filling,1,right,Red_Plus_Dots_4.jpg,Red_Triangle_Stripes_1.jpg,Blue_Star_Dots_2.jpg,left,575.014999951236,false,high,false
THoXdnTV,3zvpamtjxqgf8kd3gsoqdmjsr77grt,3xm0hyn6nocyzdzro7zfx8utr88epp,THoXdnTV,2020-0188,2020-11-22,00:50:11,01:05:31,NA,incomplete,210,filling,1,left,Blue_Star_Chess_3.jpg,Green_Circle_Chess_2.jpg,Blue_Plus_Stripes_1.jpg,right,1356.8250000244007,false,high,false
THoXdnTV,3zvpamtjxqgf8kd3gsoqdmjsr77grt,3xm0hyn6nocyzdzro7zfx8utr88epp,THoXdnTV,2020-0188,2020-11-22,00:50:11,01:05:31,NA,incomplete,211,filling,1,left,Blue_Triangle_Grid_4.jpg,Purple_Plus_Grid_3.jpg,Blue_Circle_Dots_2.jpg,left,782.3949999874458,true,high,false
THoXdnTV,3zvpamtjxqgf8kd3gsoqdmjsr77grt,3xm0hyn6nocyzdzro7zfx8utr88epp,THoXdnTV,2020-0188,2020-11-22,00:50:11,01:05:31,NA,incomplete,212,filling,1,right,Purple_Plus_Dots_2.jpg,Purple_Star_Chess_3.jpg,Blue_Circle_Dots_4.jpg,right,763.2799999555573,true,high,false
THoXdnTV,3zvpamtjxqgf8kd3gsoqdmjsr77grt,3xm0hyn6nocyzdzro7zfx8utr88epp,THoXdnTV,2020-0188,2020-11-22,00:50:11,01:05:31,NA,incomplete,213,filling,0,left,Purple_Circle_Stripes_2.jpg,Green_Plus_Stripes_1.jpg,Purple_Star_Dots_3.jpg,left,764.0700000338256,true,high,false
THoXdnTV,3zvpamtjxqgf8kd3gsoqdmjsr77grt,3xm0hyn6nocyzdzro7zfx8utr88epp,THoXdnTV,2020-0188,2020-11-22,00:50:11,01:05:31,NA,incomplete,214,filling,1,right,Blue_Triangle_Dots_3.jpg,Blue_Star_Stripes_4.jpg,Red_Circle_Dots_2.jpg,left,914.2749999882653,false,high,false
THoXdnTV,3zvpamtjxqgf8kd3gsoqdmjsr77grt,3xm0hyn6nocyzdzro7zfx8utr88epp,THoXdnTV,2020-0188,2020-11-22,00:50:11,01:05:31,NA,incomplete,215,filling,1,left,Blue_Plus_Grid_3.jpg,Green_Circle_Grid_1.jpg,Blue_Star_Dots_2.jpg,left,943.2400000514463,true,high,false
THoXdnTV,3zvpamtjxqgf8kd3gsoqdmjsr77grt,3xm0hyn6nocyzdzro7zfx8utr88epp,THoXdnTV,2020-0188,2020-11-22,00:50:11,01:05:31,NA,incomplete,216,filling,0,right,Red_Triangle_Grid_1.jpg,Red_Plus_Chess_4.jpg,Purple_Star_Grid_2.jpg,right,867.8800000343472,true,high,false
THoXdnTV,3zvpamtjxqgf8kd3gsoqdmjsr77grt,3xm0hyn6nocyzdzro7zfx8utr88epp,THoXdnTV,2020-0188,2020-11-22,00:50:11,01:05:31,NA,incomplete,217,filling,1,right,Blue_Plus_Grid_1.jpg,Blue_Circle_Stripes_2.jpg,Red_Triangle_Grid_3.jpg,right,783.8649998884648,true,high,false
THoXdnTV,3zvpamtjxqgf8kd3gsoqdmjsr77grt,3xm0hyn6nocyzdzro7zfx8utr88epp,THoXdnTV,2020-0188,2020-11-22,00:50:11,01:05:31,NA,incomplete,218,filling,0,right,Blue_Circle_Stripes_1.jpg,Blue_Plus_Chess_4.jpg,Red_Star_Stripes_3.jpg,right,880.2099999738857,true,high,false
THoXdnTV,3zvpamtjxqgf8kd3gsoqdmjsr77grt,3xm0hyn6nocyzdzro7zfx8utr88epp,THoXdnTV,2020-0188,2020-11-22,00:50:11,01:05:31,NA,incomplete,219,filling,1,left,Purple_Triangle_Grid_2.jpg,Blue_Circle_Grid_4.jpg,Purple_Star_Chess_3.jpg,left,1035.120000015013,true,high,false
THoXdnTV,3zvpamtjxqgf8kd3gsoqdmjsr77grt,3xm0hyn6nocyzdzro7zfx8utr88epp,THoXdnTV,2020-0188,2020-11-22,00:50:11,01:05:31,NA,incomplete,220,color,1,left,Red_Star_Stripes_1.jpg,Red_Circle_Dots_2.jpg,Blue_Triangle_Stripes_4.jpg,right,806.5049999859184,false,high,false
THoXdnTV,3zvpamtjxqgf8kd3gsoqdmjsr77grt,3xm0hyn6nocyzdzro7zfx8utr88epp,THoXdnTV,2020-0188,2020-11-22,00:50:11,01:05:31,NA,incomplete,221,color,1,left,Purple_Star_Dots_4.jpg,Purple_Circle_Chess_2.jpg,Red_Triangle_Dots_1.jpg,left,588.8900000136346,true,high,false
THoXdnTV,3zvpamtjxqgf8kd3gsoqdmjsr77grt,3xm0hyn6nocyzdzro7zfx8utr88epp,THoXdnTV,2020-0188,2020-11-22,00:50:11,01:05:31,NA,incomplete,222,color,0,right,Green_Star_Dots_3.jpg,Purple_Circle_Dots_1.jpg,Green_Triangle_Chess_4.jpg,right,476.21500003151596,true,high,false
THoXdnTV,3zvpamtjxqgf8kd3gsoqdmjsr77grt,3xm0hyn6nocyzdzro7zfx8utr88epp,THoXdnTV,2020-0188,2020-11-22,00:50:11,01:05:31,NA,incomplete,223,color,1,left,Red_Plus_Stripes_2.jpg,Red_Circle_Dots_1.jpg,Blue_Triangle_Stripes_3.jpg,right,850.2899999730289,false,high,false
THoXdnTV,3zvpamtjxqgf8kd3gsoqdmjsr77grt,3xm0hyn6nocyzdzro7zfx8utr88epp,THoXdnTV,2020-0188,2020-11-22,00:50:11,01:05:31,NA,incomplete,224,color,1,right,Purple_Circle_Chess_4.jpg,Red_Triangle_Chess_1.jpg,Purple_Plus_Grid_3.jpg,right,573.644999996759,true,high,false
THoXdnTV,3zvpamtjxqgf8kd3gsoqdmjsr77grt,3xm0hyn6nocyzdzro7zfx8utr88epp,THoXdnTV,2020-0188,2020-11-22,00:50:11,01:05:31,NA,incomplete,225,color,1,left,Blue_Plus_Dots_1.jpg,Blue_Circle_Chess_3.jpg,Red_Star_Dots_2.jpg,left,474.6349999913946,true,high,false
THoXdnTV,3zvpamtjxqgf8kd3gsoqdmjsr77grt,3xm0hyn6nocyzdzro7zfx8utr88epp,THoXdnTV,2020-0188,2020-11-22,00:50:11,01:05:31,NA,incomplete,226,color,1,left,Purple_Circle_Grid_1.jpg,Purple_Plus_Stripes_4.jpg,Green_Star_Grid_3.jpg,left,659.830000018701,true,high,false
THoXdnTV,3zvpamtjxqgf8kd3gsoqdmjsr77grt,3xm0hyn6nocyzdzro7zfx8utr88epp,THoXdnTV,2020-0188,2020-11-22,00:50:11,01:05:31,NA,incomplete,227,color,1,right,Red_Circle_Chess_3.jpg,Purple_Triangle_Chess_4.jpg,Red_Star_Dots_2.jpg,right,542.4549999879673,true,high,false
THoXdnTV,3zvpamtjxqgf8kd3gsoqdmjsr77grt,3xm0hyn6nocyzdzro7zfx8utr88epp,THoXdnTV,2020-0188,2020-11-22,00:50:11,01:05:31,NA,incomplete,228,color,1,left,Purple_Star_Dots_1.jpg,Purple_Circle_Grid_4.jpg,Green_Plus_Dots_3.jpg,left,543.4449999593198,true,high,false
THoXdnTV,3zvpamtjxqgf8kd3gsoqdmjsr77grt,3xm0hyn6nocyzdzro7zfx8utr88epp,THoXdnTV,2020-0188,2020-11-22,00:50:11,01:05:31,NA,incomplete,229,color,1,right,Green_Triangle_Chess_4.jpg,Blue_Plus_Chess_1.jpg,Green_Circle_Dots_3.jpg,right,497.6449999958277,true,high,false
THoXdnTV,3zvpamtjxqgf8kd3gsoqdmjsr77grt,3xm0hyn6nocyzdzro7zfx8utr88epp,THoXdnTV,2020-0188,2020-11-22,00:50:11,01:05:31,NA,incomplete,230,color,1,right,Green_Triangle_Grid_4.jpg,Red_Plus_Grid_1.jpg,Green_Circle_Stripes_2.jpg,right,506.37499999720603,true,high,false
THoXdnTV,3zvpamtjxqgf8kd3gsoqdmjsr77grt,3xm0hyn6nocyzdzro7zfx8utr88epp,THoXdnTV,2020-0188,2020-11-22,00:50:11,01:05:31,NA,incomplete,231,color,1,right,Red_Plus_Stripes_3.jpg,Purple_Circle_Stripes_2.jpg,Red_Triangle_Grid_4.jpg,right,484.9049999611452,true,high,false
THoXdnTV,3zvpamtjxqgf8kd3gsoqdmjsr77grt,3xm0hyn6nocyzdzro7zfx8utr88epp,THoXdnTV,2020-0188,2020-11-22,00:50:11,01:05:31,NA,incomplete,232,color,1,right,Blue_Circle_Chess_2.jpg,Green_Triangle_Chess_3.jpg,Blue_Plus_Stripes_4.jpg,right,474.3599999928847,true,high,false
THoXdnTV,3zvpamtjxqgf8kd3gsoqdmjsr77grt,3xm0hyn6nocyzdzro7zfx8utr88epp,THoXdnTV,2020-0188,2020-11-22,00:50:11,01:05:31,NA,incomplete,233,color,0,left,Purple_Circle_Stripes_1.jpg,Purple_Triangle_Grid_3.jpg,Red_Star_Stripes_2.jpg,left,587.2949999757111,true,high,false
THoXdnTV,3zvpamtjxqgf8kd3gsoqdmjsr77grt,3xm0hyn6nocyzdzro7zfx8utr88epp,THoXdnTV,2020-0188,2020-11-22,00:50:11,01:05:31,NA,incomplete,234,color,1,left,Red_Triangle_Grid_3.jpg,Red_Circle_Stripes_2.jpg,Blue_Star_Grid_4.jpg,left,571.7050000093877,true,high,false
THoXdnTV,3zvpamtjxqgf8kd3gsoqdmjsr77grt,3xm0hyn6nocyzdzro7zfx8utr88epp,THoXdnTV,2020-0188,2020-11-22,00:50:11,01:05:31,NA,incomplete,235,color,1,left,Green_Plus_Dots_4.jpg,Green_Circle_Grid_1.jpg,Red_Triangle_Dots_2.jpg,left,490.73499999940395,true,high,false
THoXdnTV,3zvpamtjxqgf8kd3gsoqdmjsr77grt,3xm0hyn6nocyzdzro7zfx8utr88epp,THoXdnTV,2020-0188,2020-11-22,00:50:11,01:05:31,NA,incomplete,236,color,1,right,Blue_Star_Grid_3.jpg,Green_Triangle_Grid_1.jpg,Blue_Plus_Stripes_2.jpg,right,588.2650000276044,true,high,false
THoXdnTV,3zvpamtjxqgf8kd3gsoqdmjsr77grt,3xm0hyn6nocyzdzro7zfx8utr88epp,THoXdnTV,2020-0188,2020-11-22,00:50:11,01:05:31,NA,incomplete,237,color,1,right,Purple_Plus_Stripes_3.jpg,Green_Star_Stripes_2.jpg,Purple_Triangle_Chess_4.jpg,right,505.9100000653416,true,high,false
THoXdnTV,3zvpamtjxqgf8kd3gsoqdmjsr77grt,3xm0hyn6nocyzdzro7zfx8utr88epp,THoXdnTV,2020-0188,2020-11-22,00:50:11,01:05:31,NA,incomplete,238,color,0,left,Green_Circle_Stripes_3.jpg,Green_Plus_Chess_1.jpg,Blue_Star_Stripes_4.jpg,left,405.9399999678135,true,high,false
THoXdnTV,3zvpamtjxqgf8kd3gsoqdmjsr77grt,3xm0hyn6nocyzdzro7zfx8utr88epp,THoXdnTV,2020-0188,2020-11-22,00:50:11,01:05:31,NA,incomplete,239,color,1,right,Green_Circle_Dots_1.jpg,Blue_Triangle_Dots_2.jpg,Green_Plus_Stripes_3.jpg,right,452.9349999502301,true,high,false
THoXdnTV,3zvpamtjxqgf8kd3gsoqdmjsr77grt,3xm0hyn6nocyzdzro7zfx8utr88epp,THoXdnTV,2020-0188,2020-11-22,00:50:11,01:05:31,861142.8149999119,920774.1449999157,NA,NA,NA,NA,NA,NA,NA,NA,NA,NA,NA,undefined
