workerId,hitId,assignmentId,subject,studyid,exp_date,exp_start,exp_end,time_start,time_end,trial,type,reward_validity,answer,image_top,image_left,image_right,response,response_time,response_acc,volatility,practice
5xHEbaS6,36818z1kw6qmfrfyj2vkz259guma30,3xuhv3nrvob6qd8auty7k5moqaa5hp,5xHEbaS6,2020-0188,2020-05-08,08:00:40,08:20:05,NA,incomplete,0,filling,0,left,Red_Plus_Chess_1.jpg,Green_Triangle_Chess_2.jpg,Blue_Star_Stripes_1.jpg,left,1234.9199999589473,true,NA,true
5xHEbaS6,36818z1kw6qmfrfyj2vkz259guma30,3xuhv3nrvob6qd8auty7k5moqaa5hp,5xHEbaS6,2020-0188,2020-05-08,08:00:40,08:20:05,NA,incomplete,1,filling,1,right,Red_Triangle_Stripes_3.jpg,Purple_Circle_Chess_3.jpg,Blue_Star_Stripes_2.jpg,right,1148.0649998411536,true,NA,true
5xHEbaS6,36818z1kw6qmfrfyj2vkz259guma30,3xuhv3nrvob6qd8auty7k5moqaa5hp,5xHEbaS6,2020-0188,2020-05-08,08:00:40,08:20:05,NA,incomplete,2,filling,0,left,Blue_Circle_Dots_3.jpg,Red_Plus_Dots_2.jpg,Green_Star_Stripes_3.jpg,left,1184.1799998655915,true,NA,true
5xHEbaS6,36818z1kw6qmfrfyj2vkz259guma30,3xuhv3nrvob6qd8auty7k5moqaa5hp,5xHEbaS6,2020-0188,2020-05-08,08:00:40,08:20:05,NA,incomplete,3,filling,0,left,Green_Star_Stripes_4.jpg,Blue_Plus_Stripes_1.jpg,Purple_Triangle_Grid_4.jpg,left,904.7900000587106,true,NA,true
5xHEbaS6,36818z1kw6qmfrfyj2vkz259guma30,3xuhv3nrvob6qd8auty7k5moqaa5hp,5xHEbaS6,2020-0188,2020-05-08,08:00:40,08:20:05,NA,incomplete,4,filling,1,right,Blue_Plus_Stripes_1.jpg,Red_Circle_Grid_1.jpg,Green_Triangle_Stripes_2.jpg,right,1053.984999889508,true,NA,true
5xHEbaS6,36818z1kw6qmfrfyj2vkz259guma30,3xuhv3nrvob6qd8auty7k5moqaa5hp,5xHEbaS6,2020-0188,2020-05-08,08:00:40,08:20:05,NA,incomplete,5,filling,1,right,Purple_Plus_Stripes_3.jpg,Green_Star_Chess_3.jpg,Blue_Triangle_Stripes_1.jpg,right,892.5149999558926,true,NA,true
5xHEbaS6,36818z1kw6qmfrfyj2vkz259guma30,3xuhv3nrvob6qd8auty7k5moqaa5hp,5xHEbaS6,2020-0188,2020-05-08,08:00:40,08:20:05,NA,incomplete,6,filling,1,left,Blue_Plus_Grid_2.jpg,Red_Star_Grid_4.jpg,Green_Triangle_Stripes_2.jpg,left,946.2599998805672,true,NA,true
5xHEbaS6,36818z1kw6qmfrfyj2vkz259guma30,3xuhv3nrvob6qd8auty7k5moqaa5hp,5xHEbaS6,2020-0188,2020-05-08,08:00:40,08:20:05,NA,incomplete,7,filling,1,left,Blue_Triangle_Dots_2.jpg,Green_Circle_Dots_1.jpg,Red_Star_Chess_2.jpg,left,811.5099999122322,true,NA,true
5xHEbaS6,36818z1kw6qmfrfyj2vkz259guma30,3xuhv3nrvob6qd8auty7k5moqaa5hp,5xHEbaS6,2020-0188,2020-05-08,08:00:40,08:20:05,NA,incomplete,8,filling,1,right,Purple_Circle_Dots_3.jpg,Red_Plus_Chess_3.jpg,Blue_Triangle_Dots_4.jpg,right,1091.0800001583993,true,NA,true
5xHEbaS6,36818z1kw6qmfrfyj2vkz259guma30,3xuhv3nrvob6qd8auty7k5moqaa5hp,5xHEbaS6,2020-0188,2020-05-08,08:00:40,08:20:05,NA,incomplete,9,filling,1,left,Green_Star_Dots_2.jpg,Red_Circle_Dots_4.jpg,Blue_Plus_Grid_2.jpg,left,929.3750000651926,true,NA,true
5xHEbaS6,36818z1kw6qmfrfyj2vkz259guma30,3xuhv3nrvob6qd8auty7k5moqaa5hp,5xHEbaS6,2020-0188,2020-05-08,08:00:40,08:20:05,NA,incomplete,10,filling,1,left,Blue_Circle_Dots_4.jpg,Purple_Plus_Dots_3.jpg,Red_Star_Stripes_4.jpg,left,887.6050000544637,true,NA,true
5xHEbaS6,36818z1kw6qmfrfyj2vkz259guma30,3xuhv3nrvob6qd8auty7k5moqaa5hp,5xHEbaS6,2020-0188,2020-05-08,08:00:40,08:20:05,NA,incomplete,11,filling,1,left,Blue_Star_Stripes_3.jpg,Red_Triangle_Stripes_1.jpg,Purple_Plus_Chess_3.jpg,left,1002.6149998884648,true,NA,true
5xHEbaS6,36818z1kw6qmfrfyj2vkz259guma30,3xuhv3nrvob6qd8auty7k5moqaa5hp,5xHEbaS6,2020-0188,2020-05-08,08:00:40,08:20:05,NA,incomplete,12,filling,1,left,Red_Star_Chess_2.jpg,Purple_Circle_Chess_4.jpg,Blue_Plus_Grid_2.jpg,left,900.8500000927597,true,NA,true
5xHEbaS6,36818z1kw6qmfrfyj2vkz259guma30,3xuhv3nrvob6qd8auty7k5moqaa5hp,5xHEbaS6,2020-0188,2020-05-08,08:00:40,08:20:05,NA,incomplete,13,filling,1,left,Green_Plus_Stripes_1.jpg,Purple_Triangle_Stripes_4.jpg,Blue_Star_Grid_1.jpg,left,794.8650000616908,true,NA,true
5xHEbaS6,36818z1kw6qmfrfyj2vkz259guma30,3xuhv3nrvob6qd8auty7k5moqaa5hp,5xHEbaS6,2020-0188,2020-05-08,08:00:40,08:20:05,NA,incomplete,14,filling,1,left,Purple_Plus_Grid_2.jpg,Red_Triangle_Grid_1.jpg,Green_Star_Stripes_2.jpg,left,692.1699999365956,true,NA,true
5xHEbaS6,36818z1kw6qmfrfyj2vkz259guma30,3xuhv3nrvob6qd8auty7k5moqaa5hp,5xHEbaS6,2020-0188,2020-05-08,08:00:40,08:20:05,NA,incomplete,15,filling,1,right,Blue_Circle_Stripes_1.jpg,Red_Triangle_Grid_1.jpg,Green_Star_Stripes_3.jpg,left,685.4149999562651,false,NA,true
5xHEbaS6,36818z1kw6qmfrfyj2vkz259guma30,3xuhv3nrvob6qd8auty7k5moqaa5hp,5xHEbaS6,2020-0188,2020-05-08,08:00:40,08:20:05,NA,incomplete,16,filling,1,left,Purple_Star_Stripes_2.jpg,Red_Triangle_Stripes_4.jpg,Blue_Plus_Grid_2.jpg,left,867.0449999626726,true,NA,true
5xHEbaS6,36818z1kw6qmfrfyj2vkz259guma30,3xuhv3nrvob6qd8auty7k5moqaa5hp,5xHEbaS6,2020-0188,2020-05-08,08:00:40,08:20:05,NA,incomplete,17,filling,1,left,Purple_Star_Stripes_4.jpg,Red_Circle_Stripes_3.jpg,Blue_Triangle_Dots_4.jpg,left,694.8100000154227,true,NA,true
5xHEbaS6,36818z1kw6qmfrfyj2vkz259guma30,3xuhv3nrvob6qd8auty7k5moqaa5hp,5xHEbaS6,2020-0188,2020-05-08,08:00:40,08:20:05,NA,incomplete,18,filling,1,left,Green_Star_Chess_2.jpg,Red_Plus_Chess_3.jpg,Purple_Circle_Dots_2.jpg,left,900.2600000239909,true,NA,true
5xHEbaS6,36818z1kw6qmfrfyj2vkz259guma30,3xuhv3nrvob6qd8auty7k5moqaa5hp,5xHEbaS6,2020-0188,2020-05-08,08:00:40,08:20:05,NA,incomplete,19,filling,0,right,Blue_Star_Stripes_3.jpg,Red_Plus_Grid_3.jpg,Green_Circle_Stripes_1.jpg,right,796.6000000014901,true,NA,true
5xHEbaS6,36818z1kw6qmfrfyj2vkz259guma30,3xuhv3nrvob6qd8auty7k5moqaa5hp,5xHEbaS6,2020-0188,2020-05-08,08:00:40,08:20:05,NA,incomplete,20,number,0,right,Red_Circle_Chess_1.jpg,Green_Triangle_Chess_4.jpg,Purple_Plus_Dots_1.jpg,left,621.8349998816848,false,NA,true
5xHEbaS6,36818z1kw6qmfrfyj2vkz259guma30,3xuhv3nrvob6qd8auty7k5moqaa5hp,5xHEbaS6,2020-0188,2020-05-08,08:00:40,08:20:05,NA,incomplete,21,number,1,right,Green_Triangle_Dots_1.jpg,Red_Star_Dots_4.jpg,Purple_Circle_Chess_1.jpg,left,862.944999942556,false,NA,true
5xHEbaS6,36818z1kw6qmfrfyj2vkz259guma30,3xuhv3nrvob6qd8auty7k5moqaa5hp,5xHEbaS6,2020-0188,2020-05-08,08:00:40,08:20:05,NA,incomplete,22,number,1,right,Green_Star_Dots_2.jpg,Red_Circle_Dots_4.jpg,Blue_Plus_Chess_2.jpg,right,1111.1300000920892,true,NA,true
5xHEbaS6,36818z1kw6qmfrfyj2vkz259guma30,3xuhv3nrvob6qd8auty7k5moqaa5hp,5xHEbaS6,2020-0188,2020-05-08,08:00:40,08:20:05,NA,incomplete,23,number,0,left,Blue_Star_Stripes_3.jpg,Purple_Circle_Dots_3.jpg,Red_Plus_Stripes_1.jpg,left,1080.8000001125038,true,NA,true
5xHEbaS6,36818z1kw6qmfrfyj2vkz259guma30,3xuhv3nrvob6qd8auty7k5moqaa5hp,5xHEbaS6,2020-0188,2020-05-08,08:00:40,08:20:05,NA,incomplete,24,number,1,right,Red_Triangle_Dots_4.jpg,Green_Star_Dots_2.jpg,Blue_Circle_Grid_4.jpg,right,1075.0349999871105,true,NA,true
5xHEbaS6,36818z1kw6qmfrfyj2vkz259guma30,3xuhv3nrvob6qd8auty7k5moqaa5hp,5xHEbaS6,2020-0188,2020-05-08,08:00:40,08:20:05,NA,incomplete,25,number,1,right,Blue_Triangle_Chess_1.jpg,Red_Plus_Chess_4.jpg,Purple_Circle_Grid_1.jpg,right,851.2249998748302,true,NA,true
5xHEbaS6,36818z1kw6qmfrfyj2vkz259guma30,3xuhv3nrvob6qd8auty7k5moqaa5hp,5xHEbaS6,2020-0188,2020-05-08,08:00:40,08:20:05,NA,incomplete,26,number,1,left,Green_Star_Chess_1.jpg,Blue_Circle_Dots_1.jpg,Purple_Triangle_Chess_3.jpg,left,901.8000001087785,true,NA,true
5xHEbaS6,36818z1kw6qmfrfyj2vkz259guma30,3xuhv3nrvob6qd8auty7k5moqaa5hp,5xHEbaS6,2020-0188,2020-05-08,08:00:40,08:20:05,NA,incomplete,27,number,1,left,Blue_Circle_Stripes_1.jpg,Green_Star_Chess_1.jpg,Purple_Triangle_Stripes_4.jpg,left,889.339999994263,true,NA,true
5xHEbaS6,36818z1kw6qmfrfyj2vkz259guma30,3xuhv3nrvob6qd8auty7k5moqaa5hp,5xHEbaS6,2020-0188,2020-05-08,08:00:40,08:20:05,NA,incomplete,28,number,1,right,Green_Plus_Chess_2.jpg,Purple_Circle_Chess_4.jpg,Red_Star_Grid_2.jpg,right,856.0999999754131,true,NA,true
5xHEbaS6,36818z1kw6qmfrfyj2vkz259guma30,3xuhv3nrvob6qd8auty7k5moqaa5hp,5xHEbaS6,2020-0188,2020-05-08,08:00:40,08:20:05,NA,incomplete,29,number,1,left,Blue_Circle_Chess_4.jpg,Purple_Star_Dots_4.jpg,Green_Plus_Chess_3.jpg,left,984.5049998257309,true,NA,true
5xHEbaS6,36818z1kw6qmfrfyj2vkz259guma30,3xuhv3nrvob6qd8auty7k5moqaa5hp,5xHEbaS6,2020-0188,2020-05-08,08:00:40,08:20:05,NA,incomplete,30,number,1,left,Blue_Triangle_Stripes_2.jpg,Purple_Star_Chess_2.jpg,Green_Circle_Stripes_4.jpg,left,805.0999999977648,true,NA,true
5xHEbaS6,36818z1kw6qmfrfyj2vkz259guma30,3xuhv3nrvob6qd8auty7k5moqaa5hp,5xHEbaS6,2020-0188,2020-05-08,08:00:40,08:20:05,NA,incomplete,31,number,1,left,Blue_Triangle_Dots_2.jpg,Green_Star_Stripes_2.jpg,Purple_Circle_Dots_3.jpg,left,774.3899999186397,true,NA,true
5xHEbaS6,36818z1kw6qmfrfyj2vkz259guma30,3xuhv3nrvob6qd8auty7k5moqaa5hp,5xHEbaS6,2020-0188,2020-05-08,08:00:40,08:20:05,NA,incomplete,32,number,1,right,Red_Circle_Stripes_2.jpg,Purple_Star_Stripes_3.jpg,Blue_Plus_Grid_2.jpg,right,866.6499999817461,true,NA,true
5xHEbaS6,36818z1kw6qmfrfyj2vkz259guma30,3xuhv3nrvob6qd8auty7k5moqaa5hp,5xHEbaS6,2020-0188,2020-05-08,08:00:40,08:20:05,NA,incomplete,33,number,1,left,Red_Circle_Dots_4.jpg,Blue_Star_Chess_4.jpg,Green_Triangle_Dots_3.jpg,left,742.9599999450147,true,NA,true
5xHEbaS6,36818z1kw6qmfrfyj2vkz259guma30,3xuhv3nrvob6qd8auty7k5moqaa5hp,5xHEbaS6,2020-0188,2020-05-08,08:00:40,08:20:05,NA,incomplete,34,number,1,left,Red_Star_Dots_3.jpg,Blue_Plus_Grid_3.jpg,Green_Circle_Dots_4.jpg,left,769.9400000274181,true,NA,true
5xHEbaS6,36818z1kw6qmfrfyj2vkz259guma30,3xuhv3nrvob6qd8auty7k5moqaa5hp,5xHEbaS6,2020-0188,2020-05-08,08:00:40,08:20:05,NA,incomplete,35,number,1,left,Purple_Plus_Dots_1.jpg,Blue_Triangle_Chess_1.jpg,Red_Circle_Dots_2.jpg,left,780.9300001244992,true,NA,true
5xHEbaS6,36818z1kw6qmfrfyj2vkz259guma30,3xuhv3nrvob6qd8auty7k5moqaa5hp,5xHEbaS6,2020-0188,2020-05-08,08:00:40,08:20:05,NA,incomplete,36,number,0,left,Green_Star_Dots_3.jpg,Blue_Circle_Grid_3.jpg,Purple_Plus_Dots_1.jpg,left,772.7550000417978,true,NA,true
5xHEbaS6,36818z1kw6qmfrfyj2vkz259guma30,3xuhv3nrvob6qd8auty7k5moqaa5hp,5xHEbaS6,2020-0188,2020-05-08,08:00:40,08:20:05,NA,incomplete,37,number,1,left,Red_Plus_Stripes_3.jpg,Purple_Triangle_Dots_3.jpg,Green_Circle_Stripes_1.jpg,left,923.939999891445,true,NA,true
5xHEbaS6,36818z1kw6qmfrfyj2vkz259guma30,3xuhv3nrvob6qd8auty7k5moqaa5hp,5xHEbaS6,2020-0188,2020-05-08,08:00:40,08:20:05,NA,incomplete,38,number,0,left,Red_Triangle_Grid_1.jpg,Green_Circle_Dots_1.jpg,Purple_Star_Grid_2.jpg,left,756.929999915883,true,NA,true
5xHEbaS6,36818z1kw6qmfrfyj2vkz259guma30,3xuhv3nrvob6qd8auty7k5moqaa5hp,5xHEbaS6,2020-0188,2020-05-08,08:00:40,08:20:05,NA,incomplete,39,number,1,left,Blue_Circle_Stripes_3.jpg,Red_Triangle_Dots_3.jpg,Green_Plus_Stripes_2.jpg,left,827.3650000337511,true,NA,true
5xHEbaS6,36818z1kw6qmfrfyj2vkz259guma30,3xuhv3nrvob6qd8auty7k5moqaa5hp,5xHEbaS6,2020-0188,2020-05-08,08:00:40,08:20:05,NA,incomplete,0,filling,0,left,Purple_Star_Chess_2.jpg,Green_Plus_Chess_4.jpg,Blue_Circle_Grid_2.jpg,right,1047.1549998037517,false,low,false
5xHEbaS6,36818z1kw6qmfrfyj2vkz259guma30,3xuhv3nrvob6qd8auty7k5moqaa5hp,5xHEbaS6,2020-0188,2020-05-08,08:00:40,08:20:05,NA,incomplete,1,filling,0,right,Green_Star_Chess_1.jpg,Red_Plus_Dots_1.jpg,Purple_Triangle_Chess_3.jpg,left,910.7349999248981,false,low,false
5xHEbaS6,36818z1kw6qmfrfyj2vkz259guma30,3xuhv3nrvob6qd8auty7k5moqaa5hp,5xHEbaS6,2020-0188,2020-05-08,08:00:40,08:20:05,NA,incomplete,2,filling,1,left,Red_Circle_Dots_3.jpg,Green_Star_Dots_1.jpg,Blue_Triangle_Stripes_3.jpg,right,860.2950000204146,false,low,false
5xHEbaS6,36818z1kw6qmfrfyj2vkz259guma30,3xuhv3nrvob6qd8auty7k5moqaa5hp,5xHEbaS6,2020-0188,2020-05-08,08:00:40,08:20:05,NA,incomplete,3,filling,1,left,Purple_Circle_Chess_1.jpg,Green_Plus_Chess_4.jpg,Red_Star_Stripes_1.jpg,right,949.9949999153614,false,low,false
5xHEbaS6,36818z1kw6qmfrfyj2vkz259guma30,3xuhv3nrvob6qd8auty7k5moqaa5hp,5xHEbaS6,2020-0188,2020-05-08,08:00:40,08:20:05,NA,incomplete,4,filling,1,right,Red_Plus_Stripes_2.jpg,Blue_Triangle_Grid_2.jpg,Purple_Circle_Stripes_4.jpg,left,1365.375000052154,false,low,false
5xHEbaS6,36818z1kw6qmfrfyj2vkz259guma30,3xuhv3nrvob6qd8auty7k5moqaa5hp,5xHEbaS6,2020-0188,2020-05-08,08:00:40,08:20:05,NA,incomplete,5,filling,1,left,Green_Star_Dots_4.jpg,Purple_Circle_Dots_3.jpg,Blue_Triangle_Stripes_4.jpg,left,871.9000001437962,true,low,false
5xHEbaS6,36818z1kw6qmfrfyj2vkz259guma30,3xuhv3nrvob6qd8auty7k5moqaa5hp,5xHEbaS6,2020-0188,2020-05-08,08:00:40,08:20:05,NA,incomplete,6,filling,1,right,Purple_Triangle_Grid_3.jpg,Blue_Star_Dots_3.jpg,Red_Circle_Grid_4.jpg,right,924.7149999719113,true,low,false
5xHEbaS6,36818z1kw6qmfrfyj2vkz259guma30,3xuhv3nrvob6qd8auty7k5moqaa5hp,5xHEbaS6,2020-0188,2020-05-08,08:00:40,08:20:05,NA,incomplete,7,filling,1,right,Purple_Triangle_Grid_4.jpg,Blue_Plus_Dots_4.jpg,Green_Circle_Grid_3.jpg,right,866.524999961257,true,low,false
5xHEbaS6,36818z1kw6qmfrfyj2vkz259guma30,3xuhv3nrvob6qd8auty7k5moqaa5hp,5xHEbaS6,2020-0188,2020-05-08,08:00:40,08:20:05,NA,incomplete,8,filling,1,right,Purple_Circle_Stripes_1.jpg,Red_Triangle_Grid_1.jpg,Green_Plus_Stripes_4.jpg,right,1022.6950000505894,true,low,false
5xHEbaS6,36818z1kw6qmfrfyj2vkz259guma30,3xuhv3nrvob6qd8auty7k5moqaa5hp,5xHEbaS6,2020-0188,2020-05-08,08:00:40,08:20:05,NA,incomplete,9,filling,1,left,Blue_Circle_Stripes_4.jpg,Red_Star_Stripes_2.jpg,Green_Triangle_Chess_4.jpg,left,895.9449999965727,true,low,false
5xHEbaS6,36818z1kw6qmfrfyj2vkz259guma30,3xuhv3nrvob6qd8auty7k5moqaa5hp,5xHEbaS6,2020-0188,2020-05-08,08:00:40,08:20:05,NA,incomplete,10,filling,1,right,Red_Star_Stripes_2.jpg,Blue_Circle_Grid_2.jpg,Green_Triangle_Stripes_4.jpg,right,950.5399998743087,true,low,false
5xHEbaS6,36818z1kw6qmfrfyj2vkz259guma30,3xuhv3nrvob6qd8auty7k5moqaa5hp,5xHEbaS6,2020-0188,2020-05-08,08:00:40,08:20:05,NA,incomplete,11,filling,1,left,Purple_Star_Stripes_4.jpg,Green_Circle_Stripes_1.jpg,Red_Plus_Chess_4.jpg,left,735.9800001140684,true,low,false
5xHEbaS6,36818z1kw6qmfrfyj2vkz259guma30,3xuhv3nrvob6qd8auty7k5moqaa5hp,5xHEbaS6,2020-0188,2020-05-08,08:00:40,08:20:05,NA,incomplete,12,filling,0,left,Green_Plus_Grid_1.jpg,Blue_Circle_Grid_3.jpg,Red_Star_Stripes_1.jpg,left,740.8799999393523,true,low,false
5xHEbaS6,36818z1kw6qmfrfyj2vkz259guma30,3xuhv3nrvob6qd8auty7k5moqaa5hp,5xHEbaS6,2020-0188,2020-05-08,08:00:40,08:20:05,NA,incomplete,13,filling,1,left,Blue_Triangle_Chess_2.jpg,Purple_Circle_Chess_4.jpg,Red_Plus_Stripes_2.jpg,left,845.2549998182803,true,low,false
5xHEbaS6,36818z1kw6qmfrfyj2vkz259guma30,3xuhv3nrvob6qd8auty7k5moqaa5hp,5xHEbaS6,2020-0188,2020-05-08,08:00:40,08:20:05,NA,incomplete,14,filling,1,left,Green_Plus_Grid_2.jpg,Purple_Circle_Grid_3.jpg,Red_Triangle_Dots_2.jpg,left,842.8950000088662,true,low,false
5xHEbaS6,36818z1kw6qmfrfyj2vkz259guma30,3xuhv3nrvob6qd8auty7k5moqaa5hp,5xHEbaS6,2020-0188,2020-05-08,08:00:40,08:20:05,NA,incomplete,15,filling,1,left,Purple_Triangle_Dots_3.jpg,Green_Plus_Dots_4.jpg,Blue_Circle_Stripes_3.jpg,left,937.8700000233948,true,low,false
5xHEbaS6,36818z1kw6qmfrfyj2vkz259guma30,3xuhv3nrvob6qd8auty7k5moqaa5hp,5xHEbaS6,2020-0188,2020-05-08,08:00:40,08:20:05,NA,incomplete,16,filling,1,right,Blue_Plus_Stripes_4.jpg,Purple_Star_Grid_4.jpg,Red_Circle_Stripes_3.jpg,right,1121.7149998992682,true,low,false
5xHEbaS6,36818z1kw6qmfrfyj2vkz259guma30,3xuhv3nrvob6qd8auty7k5moqaa5hp,5xHEbaS6,2020-0188,2020-05-08,08:00:40,08:20:05,NA,incomplete,17,filling,1,right,Red_Circle_Chess_1.jpg,Green_Plus_Grid_1.jpg,Purple_Star_Chess_4.jpg,right,842.9950000718236,true,low,false
5xHEbaS6,36818z1kw6qmfrfyj2vkz259guma30,3xuhv3nrvob6qd8auty7k5moqaa5hp,5xHEbaS6,2020-0188,2020-05-08,08:00:40,08:20:05,NA,incomplete,18,filling,1,left,Green_Circle_Stripes_1.jpg,Blue_Triangle_Stripes_2.jpg,Red_Star_Dots_1.jpg,left,707.5650000479072,true,low,false
5xHEbaS6,36818z1kw6qmfrfyj2vkz259guma30,3xuhv3nrvob6qd8auty7k5moqaa5hp,5xHEbaS6,2020-0188,2020-05-08,08:00:40,08:20:05,NA,incomplete,19,filling,1,left,Blue_Circle_Dots_2.jpg,Red_Triangle_Dots_1.jpg,Green_Plus_Grid_2.jpg,left,841.0450001247227,true,low,false
5xHEbaS6,36818z1kw6qmfrfyj2vkz259guma30,3xuhv3nrvob6qd8auty7k5moqaa5hp,5xHEbaS6,2020-0188,2020-05-08,08:00:40,08:20:05,NA,incomplete,20,filling,0,right,Red_Star_Stripes_4.jpg,Purple_Circle_Chess_4.jpg,Blue_Triangle_Stripes_3.jpg,right,841.5449999738485,true,low,false
5xHEbaS6,36818z1kw6qmfrfyj2vkz259guma30,3xuhv3nrvob6qd8auty7k5moqaa5hp,5xHEbaS6,2020-0188,2020-05-08,08:00:40,08:20:05,NA,incomplete,21,filling,1,left,Purple_Star_Grid_2.jpg,Blue_Circle_Grid_4.jpg,Red_Triangle_Stripes_2.jpg,left,948.4599998686463,true,low,false
5xHEbaS6,36818z1kw6qmfrfyj2vkz259guma30,3xuhv3nrvob6qd8auty7k5moqaa5hp,5xHEbaS6,2020-0188,2020-05-08,08:00:40,08:20:05,NA,incomplete,22,filling,1,right,Red_Star_Dots_3.jpg,Blue_Circle_Chess_3.jpg,Purple_Plus_Dots_2.jpg,right,821.4499999303371,true,low,false
5xHEbaS6,36818z1kw6qmfrfyj2vkz259guma30,3xuhv3nrvob6qd8auty7k5moqaa5hp,5xHEbaS6,2020-0188,2020-05-08,08:00:40,08:20:05,NA,incomplete,23,filling,1,left,Purple_Star_Grid_4.jpg,Blue_Triangle_Grid_3.jpg,Red_Plus_Chess_4.jpg,left,733.9349999092519,true,low,false
5xHEbaS6,36818z1kw6qmfrfyj2vkz259guma30,3xuhv3nrvob6qd8auty7k5moqaa5hp,5xHEbaS6,2020-0188,2020-05-08,08:00:40,08:20:05,NA,incomplete,24,filling,0,right,Red_Plus_Stripes_3.jpg,Green_Star_Chess_3.jpg,Purple_Triangle_Stripes_1.jpg,right,765.5450000893325,true,low,false
5xHEbaS6,36818z1kw6qmfrfyj2vkz259guma30,3xuhv3nrvob6qd8auty7k5moqaa5hp,5xHEbaS6,2020-0188,2020-05-08,08:00:40,08:20:05,NA,incomplete,25,filling,0,left,Purple_Circle_Stripes_2.jpg,Blue_Star_Stripes_4.jpg,Green_Plus_Grid_2.jpg,left,764.6599998697639,true,low,false
5xHEbaS6,36818z1kw6qmfrfyj2vkz259guma30,3xuhv3nrvob6qd8auty7k5moqaa5hp,5xHEbaS6,2020-0188,2020-05-08,08:00:40,08:20:05,NA,incomplete,26,filling,1,left,Purple_Star_Dots_4.jpg,Blue_Plus_Dots_2.jpg,Red_Circle_Stripes_4.jpg,right,973.560000071302,false,low,false
5xHEbaS6,36818z1kw6qmfrfyj2vkz259guma30,3xuhv3nrvob6qd8auty7k5moqaa5hp,5xHEbaS6,2020-0188,2020-05-08,08:00:40,08:20:05,NA,incomplete,27,filling,0,left,Red_Plus_Grid_4.jpg,Green_Triangle_Grid_3.jpg,Blue_Circle_Chess_4.jpg,right,853.9199999067932,false,low,false
5xHEbaS6,36818z1kw6qmfrfyj2vkz259guma30,3xuhv3nrvob6qd8auty7k5moqaa5hp,5xHEbaS6,2020-0188,2020-05-08,08:00:40,08:20:05,NA,incomplete,28,filling,1,right,Purple_Star_Dots_1.jpg,Green_Plus_Chess_1.jpg,Red_Circle_Dots_3.jpg,left,803.6900002043694,false,low,false
5xHEbaS6,36818z1kw6qmfrfyj2vkz259guma30,3xuhv3nrvob6qd8auty7k5moqaa5hp,5xHEbaS6,2020-0188,2020-05-08,08:00:40,08:20:05,NA,incomplete,29,filling,0,right,Blue_Plus_Stripes_3.jpg,Purple_Star_Grid_3.jpg,Red_Triangle_Stripes_1.jpg,left,1093.5349999926984,false,low,false
5xHEbaS6,36818z1kw6qmfrfyj2vkz259guma30,3xuhv3nrvob6qd8auty7k5moqaa5hp,5xHEbaS6,2020-0188,2020-05-08,08:00:40,08:20:05,NA,incomplete,30,number,1,right,Green_Triangle_Chess_2.jpg,Red_Plus_Chess_4.jpg,Purple_Circle_Grid_2.jpg,right,756.6250001545995,true,low,false
5xHEbaS6,36818z1kw6qmfrfyj2vkz259guma30,3xuhv3nrvob6qd8auty7k5moqaa5hp,5xHEbaS6,2020-0188,2020-05-08,08:00:40,08:20:05,NA,incomplete,31,number,1,left,Purple_Triangle_Stripes_4.jpg,Red_Star_Grid_4.jpg,Green_Circle_Stripes_2.jpg,left,704.664999851957,true,low,false
5xHEbaS6,36818z1kw6qmfrfyj2vkz259guma30,3xuhv3nrvob6qd8auty7k5moqaa5hp,5xHEbaS6,2020-0188,2020-05-08,08:00:40,08:20:05,NA,incomplete,32,number,1,left,Blue_Plus_Chess_1.jpg,Purple_Circle_Stripes_1.jpg,Red_Star_Chess_3.jpg,left,591.1650001071393,true,low,false
5xHEbaS6,36818z1kw6qmfrfyj2vkz259guma30,3xuhv3nrvob6qd8auty7k5moqaa5hp,5xHEbaS6,2020-0188,2020-05-08,08:00:40,08:20:05,NA,incomplete,33,number,1,right,Purple_Circle_Dots_4.jpg,Red_Triangle_Dots_3.jpg,Blue_Plus_Stripes_4.jpg,right,787.3549999203533,true,low,false
5xHEbaS6,36818z1kw6qmfrfyj2vkz259guma30,3xuhv3nrvob6qd8auty7k5moqaa5hp,5xHEbaS6,2020-0188,2020-05-08,08:00:40,08:20:05,NA,incomplete,34,number,1,right,Purple_Triangle_Chess_2.jpg,Blue_Plus_Chess_3.jpg,Green_Circle_Stripes_2.jpg,right,686.5000000689179,true,low,false
5xHEbaS6,36818z1kw6qmfrfyj2vkz259guma30,3xuhv3nrvob6qd8auty7k5moqaa5hp,5xHEbaS6,2020-0188,2020-05-08,08:00:40,08:20:05,NA,incomplete,35,number,1,right,Red_Triangle_Grid_3.jpg,Green_Plus_Grid_1.jpg,Purple_Circle_Chess_3.jpg,right,648.0399998836219,true,low,false
5xHEbaS6,36818z1kw6qmfrfyj2vkz259guma30,3xuhv3nrvob6qd8auty7k5moqaa5hp,5xHEbaS6,2020-0188,2020-05-08,08:00:40,08:20:05,NA,incomplete,36,number,1,left,Red_Triangle_Dots_4.jpg,Purple_Star_Chess_4.jpg,Blue_Plus_Dots_1.jpg,left,693.2399999350309,true,low,false
5xHEbaS6,36818z1kw6qmfrfyj2vkz259guma30,3xuhv3nrvob6qd8auty7k5moqaa5hp,5xHEbaS6,2020-0188,2020-05-08,08:00:40,08:20:05,NA,incomplete,37,number,1,right,Purple_Circle_Chess_3.jpg,Red_Star_Chess_1.jpg,Blue_Triangle_Dots_3.jpg,right,619.2149999551475,true,low,false
5xHEbaS6,36818z1kw6qmfrfyj2vkz259guma30,3xuhv3nrvob6qd8auty7k5moqaa5hp,5xHEbaS6,2020-0188,2020-05-08,08:00:40,08:20:05,NA,incomplete,38,number,0,left,Red_Plus_Chess_3.jpg,Purple_Circle_Dots_3.jpg,Green_Triangle_Chess_4.jpg,left,599.1199999116361,true,low,false
5xHEbaS6,36818z1kw6qmfrfyj2vkz259guma30,3xuhv3nrvob6qd8auty7k5moqaa5hp,5xHEbaS6,2020-0188,2020-05-08,08:00:40,08:20:05,NA,incomplete,39,number,1,left,Purple_Circle_Stripes_1.jpg,Red_Star_Grid_1.jpg,Blue_Plus_Stripes_2.jpg,left,647.2950000315905,true,low,false
5xHEbaS6,36818z1kw6qmfrfyj2vkz259guma30,3xuhv3nrvob6qd8auty7k5moqaa5hp,5xHEbaS6,2020-0188,2020-05-08,08:00:40,08:20:05,NA,incomplete,40,number,1,right,Purple_Triangle_Dots_4.jpg,Green_Plus_Dots_1.jpg,Red_Circle_Stripes_4.jpg,right,591.3550001569092,true,low,false
5xHEbaS6,36818z1kw6qmfrfyj2vkz259guma30,3xuhv3nrvob6qd8auty7k5moqaa5hp,5xHEbaS6,2020-0188,2020-05-08,08:00:40,08:20:05,NA,incomplete,41,number,1,right,Purple_Plus_Stripes_2.jpg,Red_Star_Stripes_1.jpg,Blue_Circle_Chess_2.jpg,right,696.9249998219311,true,low,false
5xHEbaS6,36818z1kw6qmfrfyj2vkz259guma30,3xuhv3nrvob6qd8auty7k5moqaa5hp,5xHEbaS6,2020-0188,2020-05-08,08:00:40,08:20:05,NA,incomplete,42,number,0,left,Red_Circle_Chess_3.jpg,Blue_Star_Grid_3.jpg,Green_Triangle_Chess_4.jpg,left,752.0250000525266,true,low,false
5xHEbaS6,36818z1kw6qmfrfyj2vkz259guma30,3xuhv3nrvob6qd8auty7k5moqaa5hp,5xHEbaS6,2020-0188,2020-05-08,08:00:40,08:20:05,NA,incomplete,43,number,1,right,Red_Plus_Dots_4.jpg,Purple_Circle_Dots_2.jpg,Blue_Star_Grid_4.jpg,right,559.9049997981638,true,low,false
5xHEbaS6,36818z1kw6qmfrfyj2vkz259guma30,3xuhv3nrvob6qd8auty7k5moqaa5hp,5xHEbaS6,2020-0188,2020-05-08,08:00:40,08:20:05,NA,incomplete,44,number,0,left,Blue_Star_Grid_1.jpg,Green_Plus_Stripes_1.jpg,Red_Triangle_Grid_4.jpg,left,619.7099999990314,true,low,false
5xHEbaS6,36818z1kw6qmfrfyj2vkz259guma30,3xuhv3nrvob6qd8auty7k5moqaa5hp,5xHEbaS6,2020-0188,2020-05-08,08:00:40,08:20:05,NA,incomplete,45,number,1,right,Red_Circle_Stripes_4.jpg,Green_Triangle_Stripes_1.jpg,Purple_Plus_Grid_4.jpg,right,600.1999999862164,true,low,false
5xHEbaS6,36818z1kw6qmfrfyj2vkz259guma30,3xuhv3nrvob6qd8auty7k5moqaa5hp,5xHEbaS6,2020-0188,2020-05-08,08:00:40,08:20:05,NA,incomplete,46,number,1,left,Green_Triangle_Chess_2.jpg,Red_Circle_Grid_2.jpg,Purple_Plus_Chess_3.jpg,left,1306.3400001265109,true,low,false
5xHEbaS6,36818z1kw6qmfrfyj2vkz259guma30,3xuhv3nrvob6qd8auty7k5moqaa5hp,5xHEbaS6,2020-0188,2020-05-08,08:00:40,08:20:05,NA,incomplete,47,number,1,right,Green_Circle_Grid_4.jpg,Red_Plus_Grid_3.jpg,Blue_Triangle_Stripes_4.jpg,right,734.3699999619275,true,low,false
5xHEbaS6,36818z1kw6qmfrfyj2vkz259guma30,3xuhv3nrvob6qd8auty7k5moqaa5hp,5xHEbaS6,2020-0188,2020-05-08,08:00:40,08:20:05,NA,incomplete,48,number,1,left,Green_Triangle_Dots_1.jpg,Red_Plus_Chess_1.jpg,Purple_Circle_Dots_3.jpg,left,565.9600000362843,true,low,false
5xHEbaS6,36818z1kw6qmfrfyj2vkz259guma30,3xuhv3nrvob6qd8auty7k5moqaa5hp,5xHEbaS6,2020-0188,2020-05-08,08:00:40,08:20:05,NA,incomplete,49,number,1,right,Green_Circle_Grid_1.jpg,Blue_Plus_Grid_3.jpg,Purple_Star_Stripes_1.jpg,right,609.6099999267608,true,low,false
5xHEbaS6,36818z1kw6qmfrfyj2vkz259guma30,3xuhv3nrvob6qd8auty7k5moqaa5hp,5xHEbaS6,2020-0188,2020-05-08,08:00:40,08:20:05,NA,incomplete,50,number,1,right,Red_Circle_Grid_3.jpg,Green_Star_Grid_1.jpg,Blue_Triangle_Chess_3.jpg,right,583.8999999687076,true,low,false
5xHEbaS6,36818z1kw6qmfrfyj2vkz259guma30,3xuhv3nrvob6qd8auty7k5moqaa5hp,5xHEbaS6,2020-0188,2020-05-08,08:00:40,08:20:05,NA,incomplete,51,number,1,left,Purple_Star_Dots_2.jpg,Red_Plus_Chess_2.jpg,Blue_Circle_Dots_4.jpg,left,658.484999788925,true,low,false
5xHEbaS6,36818z1kw6qmfrfyj2vkz259guma30,3xuhv3nrvob6qd8auty7k5moqaa5hp,5xHEbaS6,2020-0188,2020-05-08,08:00:40,08:20:05,NA,incomplete,52,number,1,left,Purple_Star_Chess_2.jpg,Red_Triangle_Stripes_2.jpg,Blue_Plus_Chess_3.jpg,left,568.5600000433624,true,low,false
5xHEbaS6,36818z1kw6qmfrfyj2vkz259guma30,3xuhv3nrvob6qd8auty7k5moqaa5hp,5xHEbaS6,2020-0188,2020-05-08,08:00:40,08:20:05,NA,incomplete,53,number,1,right,Red_Circle_Stripes_2.jpg,Purple_Plus_Stripes_3.jpg,Blue_Triangle_Chess_2.jpg,right,678.3249999862164,true,low,false
5xHEbaS6,36818z1kw6qmfrfyj2vkz259guma30,3xuhv3nrvob6qd8auty7k5moqaa5hp,5xHEbaS6,2020-0188,2020-05-08,08:00:40,08:20:05,NA,incomplete,54,number,1,left,Green_Triangle_Dots_4.jpg,Blue_Plus_Stripes_4.jpg,Purple_Circle_Dots_3.jpg,left,681.2799999024719,true,low,false
5xHEbaS6,36818z1kw6qmfrfyj2vkz259guma30,3xuhv3nrvob6qd8auty7k5moqaa5hp,5xHEbaS6,2020-0188,2020-05-08,08:00:40,08:20:05,NA,incomplete,55,number,0,left,Red_Circle_Dots_2.jpg,Blue_Triangle_Stripes_2.jpg,Purple_Star_Dots_3.jpg,left,682.109999936074,true,low,false
5xHEbaS6,36818z1kw6qmfrfyj2vkz259guma30,3xuhv3nrvob6qd8auty7k5moqaa5hp,5xHEbaS6,2020-0188,2020-05-08,08:00:40,08:20:05,NA,incomplete,56,number,1,left,Blue_Plus_Chess_3.jpg,Red_Triangle_Dots_3.jpg,Purple_Star_Chess_4.jpg,left,874.4099999312311,true,low,false
5xHEbaS6,36818z1kw6qmfrfyj2vkz259guma30,3xuhv3nrvob6qd8auty7k5moqaa5hp,5xHEbaS6,2020-0188,2020-05-08,08:00:40,08:20:05,NA,incomplete,57,number,1,left,Purple_Star_Dots_4.jpg,Blue_Triangle_Stripes_4.jpg,Green_Circle_Dots_1.jpg,left,817.9200000595301,true,low,false
5xHEbaS6,36818z1kw6qmfrfyj2vkz259guma30,3xuhv3nrvob6qd8auty7k5moqaa5hp,5xHEbaS6,2020-0188,2020-05-08,08:00:40,08:20:05,NA,incomplete,58,number,1,right,Red_Plus_Grid_2.jpg,Purple_Circle_Grid_3.jpg,Green_Star_Chess_2.jpg,right,674.1949999704957,true,low,false
5xHEbaS6,36818z1kw6qmfrfyj2vkz259guma30,3xuhv3nrvob6qd8auty7k5moqaa5hp,5xHEbaS6,2020-0188,2020-05-08,08:00:40,08:20:05,NA,incomplete,59,number,1,left,Purple_Triangle_Dots_1.jpg,Red_Star_Grid_1.jpg,Green_Plus_Dots_4.jpg,left,701.6049998346716,true,low,false
5xHEbaS6,36818z1kw6qmfrfyj2vkz259guma30,3xuhv3nrvob6qd8auty7k5moqaa5hp,5xHEbaS6,2020-0188,2020-05-08,08:00:40,08:20:05,NA,incomplete,60,filling,1,right,Green_Plus_Dots_4.jpg,Blue_Circle_Chess_4.jpg,Purple_Triangle_Dots_3.jpg,left,745.8799998275936,false,low,false
5xHEbaS6,36818z1kw6qmfrfyj2vkz259guma30,3xuhv3nrvob6qd8auty7k5moqaa5hp,5xHEbaS6,2020-0188,2020-05-08,08:00:40,08:20:05,NA,incomplete,61,filling,1,right,Red_Circle_Stripes_4.jpg,Green_Plus_Chess_4.jpg,Blue_Star_Stripes_3.jpg,left,619.6300000883639,false,low,false
5xHEbaS6,36818z1kw6qmfrfyj2vkz259guma30,3xuhv3nrvob6qd8auty7k5moqaa5hp,5xHEbaS6,2020-0188,2020-05-08,08:00:40,08:20:05,NA,incomplete,62,filling,1,right,Blue_Star_Stripes_1.jpg,Red_Plus_Chess_1.jpg,Green_Circle_Stripes_4.jpg,right,800.529999891296,true,low,false
5xHEbaS6,36818z1kw6qmfrfyj2vkz259guma30,3xuhv3nrvob6qd8auty7k5moqaa5hp,5xHEbaS6,2020-0188,2020-05-08,08:00:40,08:20:05,NA,incomplete,63,filling,0,right,Blue_Star_Stripes_1.jpg,Red_Plus_Grid_1.jpg,Green_Circle_Stripes_2.jpg,right,970.0399998109788,true,low,false
5xHEbaS6,36818z1kw6qmfrfyj2vkz259guma30,3xuhv3nrvob6qd8auty7k5moqaa5hp,5xHEbaS6,2020-0188,2020-05-08,08:00:40,08:20:05,NA,incomplete,64,filling,1,left,Purple_Triangle_Chess_2.jpg,Red_Star_Chess_1.jpg,Blue_Plus_Stripes_2.jpg,left,1045.905000064522,true,low,false
5xHEbaS6,36818z1kw6qmfrfyj2vkz259guma30,3xuhv3nrvob6qd8auty7k5moqaa5hp,5xHEbaS6,2020-0188,2020-05-08,08:00:40,08:20:05,NA,incomplete,65,filling,0,right,Red_Circle_Grid_2.jpg,Green_Star_Dots_2.jpg,Blue_Plus_Grid_3.jpg,right,1066.774999955669,true,low,false
5xHEbaS6,36818z1kw6qmfrfyj2vkz259guma30,3xuhv3nrvob6qd8auty7k5moqaa5hp,5xHEbaS6,2020-0188,2020-05-08,08:00:40,08:20:05,NA,incomplete,66,filling,1,left,Purple_Triangle_Stripes_1.jpg,Green_Plus_Stripes_3.jpg,Red_Circle_Grid_1.jpg,left,1056.1850001104176,true,low,false
5xHEbaS6,36818z1kw6qmfrfyj2vkz259guma30,3xuhv3nrvob6qd8auty7k5moqaa5hp,5xHEbaS6,2020-0188,2020-05-08,08:00:40,08:20:05,NA,incomplete,67,filling,1,left,Purple_Circle_Stripes_4.jpg,Green_Star_Stripes_1.jpg,Red_Plus_Grid_4.jpg,left,812.3199997935444,true,low,false
5xHEbaS6,36818z1kw6qmfrfyj2vkz259guma30,3xuhv3nrvob6qd8auty7k5moqaa5hp,5xHEbaS6,2020-0188,2020-05-08,08:00:40,08:20:05,NA,incomplete,68,filling,1,left,Red_Circle_Dots_2.jpg,Blue_Plus_Dots_3.jpg,Purple_Triangle_Grid_2.jpg,left,892.7100000437349,true,low,false
5xHEbaS6,36818z1kw6qmfrfyj2vkz259guma30,3xuhv3nrvob6qd8auty7k5moqaa5hp,5xHEbaS6,2020-0188,2020-05-08,08:00:40,08:20:05,NA,incomplete,69,filling,1,left,Blue_Star_Grid_3.jpg,Purple_Triangle_Grid_2.jpg,Green_Circle_Chess_3.jpg,left,998.1700000353158,true,low,false
5xHEbaS6,36818z1kw6qmfrfyj2vkz259guma30,3xuhv3nrvob6qd8auty7k5moqaa5hp,5xHEbaS6,2020-0188,2020-05-08,08:00:40,08:20:05,NA,incomplete,70,filling,0,left,Green_Plus_Dots_1.jpg,Blue_Circle_Dots_3.jpg,Purple_Star_Chess_1.jpg,left,692.2850001137704,true,low,false
5xHEbaS6,36818z1kw6qmfrfyj2vkz259guma30,3xuhv3nrvob6qd8auty7k5moqaa5hp,5xHEbaS6,2020-0188,2020-05-08,08:00:40,08:20:05,NA,incomplete,71,filling,1,left,Green_Plus_Grid_3.jpg,Red_Circle_Grid_4.jpg,Purple_Star_Stripes_3.jpg,left,815.7899999059737,true,low,false
5xHEbaS6,36818z1kw6qmfrfyj2vkz259guma30,3xuhv3nrvob6qd8auty7k5moqaa5hp,5xHEbaS6,2020-0188,2020-05-08,08:00:40,08:20:05,NA,incomplete,72,filling,1,left,Purple_Plus_Dots_4.jpg,Blue_Triangle_Dots_1.jpg,Red_Star_Grid_4.jpg,left,778.5150001291186,true,low,false
5xHEbaS6,36818z1kw6qmfrfyj2vkz259guma30,3xuhv3nrvob6qd8auty7k5moqaa5hp,5xHEbaS6,2020-0188,2020-05-08,08:00:40,08:20:05,NA,incomplete,73,filling,1,right,Blue_Plus_Dots_1.jpg,Green_Triangle_Chess_1.jpg,Purple_Circle_Dots_2.jpg,left,780.365000013262,false,low,false
5xHEbaS6,36818z1kw6qmfrfyj2vkz259guma30,3xuhv3nrvob6qd8auty7k5moqaa5hp,5xHEbaS6,2020-0188,2020-05-08,08:00:40,08:20:05,NA,incomplete,74,filling,1,right,Purple_Triangle_Stripes_1.jpg,Green_Star_Grid_1.jpg,Red_Plus_Stripes_4.jpg,right,876.0400000028312,true,low,false
5xHEbaS6,36818z1kw6qmfrfyj2vkz259guma30,3xuhv3nrvob6qd8auty7k5moqaa5hp,5xHEbaS6,2020-0188,2020-05-08,08:00:40,08:20:05,NA,incomplete,75,filling,1,left,Purple_Circle_Grid_2.jpg,Green_Triangle_Grid_3.jpg,Blue_Plus_Chess_2.jpg,left,1134.6849999390543,true,low,false
5xHEbaS6,36818z1kw6qmfrfyj2vkz259guma30,3xuhv3nrvob6qd8auty7k5moqaa5hp,5xHEbaS6,2020-0188,2020-05-08,08:00:40,08:20:05,NA,incomplete,76,filling,1,right,Red_Circle_Stripes_3.jpg,Purple_Star_Chess_3.jpg,Green_Triangle_Stripes_4.jpg,right,809.8349999636412,true,low,false
5xHEbaS6,36818z1kw6qmfrfyj2vkz259guma30,3xuhv3nrvob6qd8auty7k5moqaa5hp,5xHEbaS6,2020-0188,2020-05-08,08:00:40,08:20:05,NA,incomplete,77,filling,1,left,Green_Plus_Chess_4.jpg,Red_Triangle_Chess_2.jpg,Purple_Star_Grid_4.jpg,left,687.9699998535216,true,low,false
5xHEbaS6,36818z1kw6qmfrfyj2vkz259guma30,3xuhv3nrvob6qd8auty7k5moqaa5hp,5xHEbaS6,2020-0188,2020-05-08,08:00:40,08:20:05,NA,incomplete,78,filling,1,right,Red_Triangle_Chess_4.jpg,Blue_Plus_Dots_4.jpg,Purple_Circle_Chess_1.jpg,right,762.4650001525879,true,low,false
5xHEbaS6,36818z1kw6qmfrfyj2vkz259guma30,3xuhv3nrvob6qd8auty7k5moqaa5hp,5xHEbaS6,2020-0188,2020-05-08,08:00:40,08:20:05,NA,incomplete,79,filling,1,right,Blue_Circle_Grid_4.jpg,Purple_Star_Stripes_4.jpg,Green_Plus_Grid_2.jpg,left,775.3449999727309,false,low,false
5xHEbaS6,36818z1kw6qmfrfyj2vkz259guma30,3xuhv3nrvob6qd8auty7k5moqaa5hp,5xHEbaS6,2020-0188,2020-05-08,08:00:40,08:20:05,NA,incomplete,80,filling,1,right,Purple_Plus_Chess_4.jpg,Red_Triangle_Stripes_4.jpg,Green_Star_Chess_1.jpg,right,840.3650000691414,true,low,false
5xHEbaS6,36818z1kw6qmfrfyj2vkz259guma30,3xuhv3nrvob6qd8auty7k5moqaa5hp,5xHEbaS6,2020-0188,2020-05-08,08:00:40,08:20:05,NA,incomplete,81,filling,1,left,Red_Plus_Chess_1.jpg,Green_Circle_Chess_2.jpg,Purple_Triangle_Stripes_1.jpg,left,838.7150000780821,true,low,false
5xHEbaS6,36818z1kw6qmfrfyj2vkz259guma30,3xuhv3nrvob6qd8auty7k5moqaa5hp,5xHEbaS6,2020-0188,2020-05-08,08:00:40,08:20:05,NA,incomplete,82,filling,1,left,Red_Circle_Grid_3.jpg,Purple_Triangle_Grid_1.jpg,Blue_Plus_Stripes_3.jpg,left,802.4200000800192,true,low,false
5xHEbaS6,36818z1kw6qmfrfyj2vkz259guma30,3xuhv3nrvob6qd8auty7k5moqaa5hp,5xHEbaS6,2020-0188,2020-05-08,08:00:40,08:20:05,NA,incomplete,83,filling,0,right,Purple_Triangle_Grid_2.jpg,Blue_Star_Stripes_2.jpg,Green_Plus_Grid_1.jpg,right,791.1199999507517,true,low,false
5xHEbaS6,36818z1kw6qmfrfyj2vkz259guma30,3xuhv3nrvob6qd8auty7k5moqaa5hp,5xHEbaS6,2020-0188,2020-05-08,08:00:40,08:20:05,NA,incomplete,84,filling,1,right,Blue_Triangle_Chess_1.jpg,Red_Star_Stripes_1.jpg,Green_Circle_Chess_4.jpg,right,830.0450001843274,true,low,false
5xHEbaS6,36818z1kw6qmfrfyj2vkz259guma30,3xuhv3nrvob6qd8auty7k5moqaa5hp,5xHEbaS6,2020-0188,2020-05-08,08:00:40,08:20:05,NA,incomplete,85,filling,1,left,Blue_Plus_Grid_2.jpg,Green_Star_Grid_3.jpg,Purple_Triangle_Stripes_2.jpg,left,800.9349999483675,true,low,false
5xHEbaS6,36818z1kw6qmfrfyj2vkz259guma30,3xuhv3nrvob6qd8auty7k5moqaa5hp,5xHEbaS6,2020-0188,2020-05-08,08:00:40,08:20:05,NA,incomplete,86,filling,0,right,Purple_Star_Dots_2.jpg,Green_Plus_Chess_2.jpg,Blue_Triangle_Dots_3.jpg,right,773.615000071004,true,low,false
5xHEbaS6,36818z1kw6qmfrfyj2vkz259guma30,3xuhv3nrvob6qd8auty7k5moqaa5hp,5xHEbaS6,2020-0188,2020-05-08,08:00:40,08:20:05,NA,incomplete,87,filling,1,left,Red_Star_Stripes_2.jpg,Blue_Circle_Stripes_3.jpg,Green_Triangle_Dots_2.jpg,left,706.2049999367446,true,low,false
5xHEbaS6,36818z1kw6qmfrfyj2vkz259guma30,3xuhv3nrvob6qd8auty7k5moqaa5hp,5xHEbaS6,2020-0188,2020-05-08,08:00:40,08:20:05,NA,incomplete,88,filling,0,right,Blue_Star_Grid_2.jpg,Green_Circle_Stripes_2.jpg,Red_Plus_Grid_3.jpg,right,784.2000001110137,true,low,false
5xHEbaS6,36818z1kw6qmfrfyj2vkz259guma30,3xuhv3nrvob6qd8auty7k5moqaa5hp,5xHEbaS6,2020-0188,2020-05-08,08:00:40,08:20:05,NA,incomplete,89,filling,1,left,Blue_Star_Dots_2.jpg,Purple_Plus_Dots_3.jpg,Green_Circle_Chess_2.jpg,left,829.704999923706,true,low,false
5xHEbaS6,36818z1kw6qmfrfyj2vkz259guma30,3xuhv3nrvob6qd8auty7k5moqaa5hp,5xHEbaS6,2020-0188,2020-05-08,08:00:40,08:20:05,NA,incomplete,90,number,1,right,Purple_Triangle_Chess_4.jpg,Red_Star_Chess_3.jpg,Green_Plus_Stripes_4.jpg,left,847.89999993518,false,low,false
5xHEbaS6,36818z1kw6qmfrfyj2vkz259guma30,3xuhv3nrvob6qd8auty7k5moqaa5hp,5xHEbaS6,2020-0188,2020-05-08,08:00:40,08:20:05,NA,incomplete,91,number,1,right,Blue_Plus_Grid_1.jpg,Purple_Circle_Grid_4.jpg,Red_Triangle_Stripes_1.jpg,left,924.5649999938905,false,low,false
5xHEbaS6,36818z1kw6qmfrfyj2vkz259guma30,3xuhv3nrvob6qd8auty7k5moqaa5hp,5xHEbaS6,2020-0188,2020-05-08,08:00:40,08:20:05,NA,incomplete,92,number,1,left,Green_Circle_Dots_1.jpg,Red_Triangle_Grid_1.jpg,Purple_Star_Dots_4.jpg,right,1014.289999846369,false,low,false
5xHEbaS6,36818z1kw6qmfrfyj2vkz259guma30,3xuhv3nrvob6qd8auty7k5moqaa5hp,5xHEbaS6,2020-0188,2020-05-08,08:00:40,08:20:05,NA,incomplete,93,number,1,left,Red_Circle_Grid_2.jpg,Green_Triangle_Dots_2.jpg,Purple_Star_Grid_3.jpg,left,663.5000000242144,true,low,false
5xHEbaS6,36818z1kw6qmfrfyj2vkz259guma30,3xuhv3nrvob6qd8auty7k5moqaa5hp,5xHEbaS6,2020-0188,2020-05-08,08:00:40,08:20:05,NA,incomplete,94,number,1,left,Purple_Circle_Dots_4.jpg,Blue_Triangle_Chess_4.jpg,Green_Star_Dots_1.jpg,right,855.6500000413507,false,low,false
5xHEbaS6,36818z1kw6qmfrfyj2vkz259guma30,3xuhv3nrvob6qd8auty7k5moqaa5hp,5xHEbaS6,2020-0188,2020-05-08,08:00:40,08:20:05,NA,incomplete,95,number,1,right,Red_Circle_Chess_3.jpg,Blue_Star_Chess_1.jpg,Green_Plus_Stripes_3.jpg,right,819.249999942258,true,low,false
5xHEbaS6,36818z1kw6qmfrfyj2vkz259guma30,3xuhv3nrvob6qd8auty7k5moqaa5hp,5xHEbaS6,2020-0188,2020-05-08,08:00:40,08:20:05,NA,incomplete,96,number,1,right,Blue_Star_Stripes_4.jpg,Green_Plus_Stripes_2.jpg,Red_Circle_Chess_4.jpg,right,650.1299999654293,true,low,false
5xHEbaS6,36818z1kw6qmfrfyj2vkz259guma30,3xuhv3nrvob6qd8auty7k5moqaa5hp,5xHEbaS6,2020-0188,2020-05-08,08:00:40,08:20:05,NA,incomplete,97,number,1,right,Purple_Triangle_Chess_4.jpg,Blue_Star_Chess_1.jpg,Red_Plus_Dots_4.jpg,right,977.5249999947846,true,low,false
5xHEbaS6,36818z1kw6qmfrfyj2vkz259guma30,3xuhv3nrvob6qd8auty7k5moqaa5hp,5xHEbaS6,2020-0188,2020-05-08,08:00:40,08:20:05,NA,incomplete,98,number,1,right,Purple_Star_Stripes_4.jpg,Red_Plus_Stripes_3.jpg,Green_Triangle_Dots_4.jpg,right,817.4149999395013,true,low,false
5xHEbaS6,36818z1kw6qmfrfyj2vkz259guma30,3xuhv3nrvob6qd8auty7k5moqaa5hp,5xHEbaS6,2020-0188,2020-05-08,08:00:40,08:20:05,NA,incomplete,99,number,1,right,Green_Triangle_Dots_1.jpg,Blue_Circle_Dots_4.jpg,Red_Plus_Grid_1.jpg,right,678.5750000271946,true,low,false
5xHEbaS6,36818z1kw6qmfrfyj2vkz259guma30,3xuhv3nrvob6qd8auty7k5moqaa5hp,5xHEbaS6,2020-0188,2020-05-08,08:00:40,08:20:05,NA,incomplete,100,number,1,left,Red_Star_Dots_2.jpg,Green_Plus_Grid_2.jpg,Purple_Circle_Dots_3.jpg,left,659.6550000831485,true,low,false
5xHEbaS6,36818z1kw6qmfrfyj2vkz259guma30,3xuhv3nrvob6qd8auty7k5moqaa5hp,5xHEbaS6,2020-0188,2020-05-08,08:00:40,08:20:05,NA,incomplete,101,number,1,right,Red_Triangle_Dots_2.jpg,Green_Star_Dots_3.jpg,Blue_Plus_Stripes_2.jpg,right,678.0350001063198,true,low,false
5xHEbaS6,36818z1kw6qmfrfyj2vkz259guma30,3xuhv3nrvob6qd8auty7k5moqaa5hp,5xHEbaS6,2020-0188,2020-05-08,08:00:40,08:20:05,NA,incomplete,102,number,0,left,Green_Circle_Stripes_2.jpg,Purple_Star_Grid_2.jpg,Blue_Plus_Stripes_4.jpg,left,690.5699998605996,true,low,false
5xHEbaS6,36818z1kw6qmfrfyj2vkz259guma30,3xuhv3nrvob6qd8auty7k5moqaa5hp,5xHEbaS6,2020-0188,2020-05-08,08:00:40,08:20:05,NA,incomplete,103,number,1,left,Green_Circle_Dots_2.jpg,Purple_Triangle_Chess_2.jpg,Red_Plus_Dots_1.jpg,left,643.709999974817,true,low,false
5xHEbaS6,36818z1kw6qmfrfyj2vkz259guma30,3xuhv3nrvob6qd8auty7k5moqaa5hp,5xHEbaS6,2020-0188,2020-05-08,08:00:40,08:20:05,NA,incomplete,104,number,1,left,Blue_Plus_Dots_1.jpg,Purple_Star_Grid_1.jpg,Green_Triangle_Dots_3.jpg,left,701.38999982737,true,low,false
5xHEbaS6,36818z1kw6qmfrfyj2vkz259guma30,3xuhv3nrvob6qd8auty7k5moqaa5hp,5xHEbaS6,2020-0188,2020-05-08,08:00:40,08:20:05,NA,incomplete,105,number,1,right,Purple_Star_Grid_4.jpg,Red_Plus_Grid_3.jpg,Green_Circle_Dots_4.jpg,right,738.6650000698864,true,low,false
5xHEbaS6,36818z1kw6qmfrfyj2vkz259guma30,3xuhv3nrvob6qd8auty7k5moqaa5hp,5xHEbaS6,2020-0188,2020-05-08,08:00:40,08:20:05,NA,incomplete,106,number,0,right,Purple_Plus_Chess_1.jpg,Green_Triangle_Chess_3.jpg,Red_Circle_Stripes_1.jpg,right,674.5150000788271,true,low,false
5xHEbaS6,36818z1kw6qmfrfyj2vkz259guma30,3xuhv3nrvob6qd8auty7k5moqaa5hp,5xHEbaS6,2020-0188,2020-05-08,08:00:40,08:20:05,NA,incomplete,107,number,1,right,Green_Star_Stripes_2.jpg,Red_Plus_Stripes_1.jpg,Blue_Circle_Dots_2.jpg,right,685.1999999489635,true,low,false
5xHEbaS6,36818z1kw6qmfrfyj2vkz259guma30,3xuhv3nrvob6qd8auty7k5moqaa5hp,5xHEbaS6,2020-0188,2020-05-08,08:00:40,08:20:05,NA,incomplete,108,number,1,left,Green_Plus_Chess_2.jpg,Purple_Circle_Grid_2.jpg,Red_Star_Chess_4.jpg,left,970.8549999631941,true,low,false
5xHEbaS6,36818z1kw6qmfrfyj2vkz259guma30,3xuhv3nrvob6qd8auty7k5moqaa5hp,5xHEbaS6,2020-0188,2020-05-08,08:00:40,08:20:05,NA,incomplete,109,number,1,right,Green_Plus_Grid_1.jpg,Blue_Circle_Grid_2.jpg,Red_Triangle_Stripes_1.jpg,right,792.7600000984967,true,low,false
5xHEbaS6,36818z1kw6qmfrfyj2vkz259guma30,3xuhv3nrvob6qd8auty7k5moqaa5hp,5xHEbaS6,2020-0188,2020-05-08,08:00:40,08:20:05,NA,incomplete,110,number,1,left,Purple_Star_Grid_4.jpg,Red_Plus_Dots_4.jpg,Green_Triangle_Grid_3.jpg,left,726.7150001134723,true,low,false
5xHEbaS6,36818z1kw6qmfrfyj2vkz259guma30,3xuhv3nrvob6qd8auty7k5moqaa5hp,5xHEbaS6,2020-0188,2020-05-08,08:00:40,08:20:05,NA,incomplete,111,number,0,right,Green_Star_Grid_1.jpg,Purple_Triangle_Grid_3.jpg,Blue_Plus_Dots_1.jpg,right,798.6649998929352,true,low,false
5xHEbaS6,36818z1kw6qmfrfyj2vkz259guma30,3xuhv3nrvob6qd8auty7k5moqaa5hp,5xHEbaS6,2020-0188,2020-05-08,08:00:40,08:20:05,NA,incomplete,112,number,0,left,Red_Triangle_Grid_4.jpg,Blue_Circle_Stripes_4.jpg,Purple_Star_Grid_2.jpg,left,754.3800000566989,true,low,false
5xHEbaS6,36818z1kw6qmfrfyj2vkz259guma30,3xuhv3nrvob6qd8auty7k5moqaa5hp,5xHEbaS6,2020-0188,2020-05-08,08:00:40,08:20:05,NA,incomplete,113,number,0,left,Purple_Star_Stripes_2.jpg,Red_Plus_Grid_2.jpg,Blue_Triangle_Stripes_4.jpg,right,843.0199997965246,false,low,false
5xHEbaS6,36818z1kw6qmfrfyj2vkz259guma30,3xuhv3nrvob6qd8auty7k5moqaa5hp,5xHEbaS6,2020-0188,2020-05-08,08:00:40,08:20:05,NA,incomplete,114,number,1,left,Blue_Star_Chess_4.jpg,Purple_Plus_Stripes_4.jpg,Green_Triangle_Chess_2.jpg,right,831.5900000743568,false,low,false
5xHEbaS6,36818z1kw6qmfrfyj2vkz259guma30,3xuhv3nrvob6qd8auty7k5moqaa5hp,5xHEbaS6,2020-0188,2020-05-08,08:00:40,08:20:05,NA,incomplete,115,number,0,left,Red_Star_Chess_1.jpg,Purple_Triangle_Grid_1.jpg,Blue_Circle_Chess_3.jpg,left,738.6549999937415,true,low,false
5xHEbaS6,36818z1kw6qmfrfyj2vkz259guma30,3xuhv3nrvob6qd8auty7k5moqaa5hp,5xHEbaS6,2020-0188,2020-05-08,08:00:40,08:20:05,NA,incomplete,116,number,1,left,Blue_Star_Dots_1.jpg,Red_Triangle_Chess_1.jpg,Purple_Plus_Dots_4.jpg,right,1143.8349999953061,false,low,false
5xHEbaS6,36818z1kw6qmfrfyj2vkz259guma30,3xuhv3nrvob6qd8auty7k5moqaa5hp,5xHEbaS6,2020-0188,2020-05-08,08:00:40,08:20:05,NA,incomplete,117,number,1,left,Blue_Star_Stripes_2.jpg,Red_Triangle_Chess_2.jpg,Purple_Circle_Stripes_1.jpg,left,848.8099998794496,true,low,false
5xHEbaS6,36818z1kw6qmfrfyj2vkz259guma30,3xuhv3nrvob6qd8auty7k5moqaa5hp,5xHEbaS6,2020-0188,2020-05-08,08:00:40,08:20:05,NA,incomplete,118,number,1,left,Green_Plus_Grid_3.jpg,Blue_Star_Chess_3.jpg,Red_Circle_Grid_4.jpg,left,724.1350000258535,true,low,false
5xHEbaS6,36818z1kw6qmfrfyj2vkz259guma30,3xuhv3nrvob6qd8auty7k5moqaa5hp,5xHEbaS6,2020-0188,2020-05-08,08:00:40,08:20:05,NA,incomplete,119,number,1,left,Blue_Plus_Chess_2.jpg,Red_Circle_Stripes_2.jpg,Purple_Star_Chess_1.jpg,left,658.2649999763817,true,low,false
5xHEbaS6,36818z1kw6qmfrfyj2vkz259guma30,3xuhv3nrvob6qd8auty7k5moqaa5hp,5xHEbaS6,2020-0188,2020-05-08,08:00:40,08:20:05,NA,incomplete,120,filling,1,left,Purple_Star_Chess_3.jpg,Blue_Triangle_Chess_2.jpg,Red_Plus_Dots_3.jpg,left,706.2450000084937,true,low,false
5xHEbaS6,36818z1kw6qmfrfyj2vkz259guma30,3xuhv3nrvob6qd8auty7k5moqaa5hp,5xHEbaS6,2020-0188,2020-05-08,08:00:40,08:20:05,NA,incomplete,121,filling,1,left,Purple_Circle_Stripes_1.jpg,Blue_Star_Stripes_4.jpg,Red_Triangle_Grid_1.jpg,left,1454.2050000745803,true,low,false
5xHEbaS6,36818z1kw6qmfrfyj2vkz259guma30,3xuhv3nrvob6qd8auty7k5moqaa5hp,5xHEbaS6,2020-0188,2020-05-08,08:00:40,08:20:05,NA,incomplete,122,filling,1,left,Purple_Plus_Chess_3.jpg,Blue_Triangle_Chess_4.jpg,Red_Star_Stripes_3.jpg,left,802.4500000756234,true,low,false
5xHEbaS6,36818z1kw6qmfrfyj2vkz259guma30,3xuhv3nrvob6qd8auty7k5moqaa5hp,5xHEbaS6,2020-0188,2020-05-08,08:00:40,08:20:05,NA,incomplete,123,filling,1,left,Red_Plus_Grid_4.jpg,Blue_Triangle_Grid_1.jpg,Purple_Star_Dots_4.jpg,left,1171.800000127405,true,low,false
5xHEbaS6,36818z1kw6qmfrfyj2vkz259guma30,3xuhv3nrvob6qd8auty7k5moqaa5hp,5xHEbaS6,2020-0188,2020-05-08,08:00:40,08:20:05,NA,incomplete,124,filling,1,right,Purple_Triangle_Stripes_1.jpg,Green_Star_Dots_1.jpg,Red_Circle_Stripes_2.jpg,right,821.229999884963,true,low,false
5xHEbaS6,36818z1kw6qmfrfyj2vkz259guma30,3xuhv3nrvob6qd8auty7k5moqaa5hp,5xHEbaS6,2020-0188,2020-05-08,08:00:40,08:20:05,NA,incomplete,125,filling,1,left,Blue_Star_Dots_1.jpg,Green_Circle_Dots_4.jpg,Purple_Triangle_Grid_1.jpg,left,824.2999999783933,true,low,false
5xHEbaS6,36818z1kw6qmfrfyj2vkz259guma30,3xuhv3nrvob6qd8auty7k5moqaa5hp,5xHEbaS6,2020-0188,2020-05-08,08:00:40,08:20:05,NA,incomplete,126,filling,1,right,Purple_Circle_Grid_1.jpg,Blue_Plus_Dots_1.jpg,Green_Star_Grid_3.jpg,left,803.9350002072752,false,low,false
5xHEbaS6,36818z1kw6qmfrfyj2vkz259guma30,3xuhv3nrvob6qd8auty7k5moqaa5hp,5xHEbaS6,2020-0188,2020-05-08,08:00:40,08:20:05,NA,incomplete,127,filling,1,right,Green_Plus_Dots_1.jpg,Purple_Triangle_Grid_1.jpg,Blue_Star_Dots_3.jpg,right,954.5400000642985,true,low,false
5xHEbaS6,36818z1kw6qmfrfyj2vkz259guma30,3xuhv3nrvob6qd8auty7k5moqaa5hp,5xHEbaS6,2020-0188,2020-05-08,08:00:40,08:20:05,NA,incomplete,128,filling,1,right,Green_Circle_Stripes_1.jpg,Red_Plus_Dots_1.jpg,Purple_Triangle_Stripes_2.jpg,right,712.9999999888241,true,low,false
5xHEbaS6,36818z1kw6qmfrfyj2vkz259guma30,3xuhv3nrvob6qd8auty7k5moqaa5hp,5xHEbaS6,2020-0188,2020-05-08,08:00:40,08:20:05,NA,incomplete,129,filling,0,left,Purple_Triangle_Grid_1.jpg,Blue_Plus_Grid_2.jpg,Red_Star_Dots_1.jpg,left,790.9349999390543,true,low,false
5xHEbaS6,36818z1kw6qmfrfyj2vkz259guma30,3xuhv3nrvob6qd8auty7k5moqaa5hp,5xHEbaS6,2020-0188,2020-05-08,08:00:40,08:20:05,NA,incomplete,130,filling,1,right,Green_Plus_Chess_4.jpg,Blue_Triangle_Dots_4.jpg,Purple_Star_Chess_3.jpg,right,956.2300001271069,true,low,false
5xHEbaS6,36818z1kw6qmfrfyj2vkz259guma30,3xuhv3nrvob6qd8auty7k5moqaa5hp,5xHEbaS6,2020-0188,2020-05-08,08:00:40,08:20:05,NA,incomplete,131,filling,1,right,Blue_Circle_Grid_3.jpg,Green_Triangle_Chess_3.jpg,Purple_Plus_Grid_2.jpg,right,963.6649999301881,true,low,false
5xHEbaS6,36818z1kw6qmfrfyj2vkz259guma30,3xuhv3nrvob6qd8auty7k5moqaa5hp,5xHEbaS6,2020-0188,2020-05-08,08:00:40,08:20:05,NA,incomplete,132,filling,1,right,Blue_Star_Grid_1.jpg,Purple_Triangle_Dots_1.jpg,Red_Circle_Grid_4.jpg,right,732.6350000221282,true,low,false
5xHEbaS6,36818z1kw6qmfrfyj2vkz259guma30,3xuhv3nrvob6qd8auty7k5moqaa5hp,5xHEbaS6,2020-0188,2020-05-08,08:00:40,08:20:05,NA,incomplete,133,filling,1,left,Red_Plus_Grid_3.jpg,Purple_Triangle_Grid_2.jpg,Blue_Star_Chess_3.jpg,left,734.9650000687689,true,low,false
5xHEbaS6,36818z1kw6qmfrfyj2vkz259guma30,3xuhv3nrvob6qd8auty7k5moqaa5hp,5xHEbaS6,2020-0188,2020-05-08,08:00:40,08:20:05,NA,incomplete,134,filling,1,right,Blue_Triangle_Chess_2.jpg,Purple_Star_Stripes_2.jpg,Green_Circle_Chess_4.jpg,right,699.860000051558,true,low,false
5xHEbaS6,36818z1kw6qmfrfyj2vkz259guma30,3xuhv3nrvob6qd8auty7k5moqaa5hp,5xHEbaS6,2020-0188,2020-05-08,08:00:40,08:20:05,NA,incomplete,135,filling,1,left,Red_Star_Dots_1.jpg,Purple_Circle_Dots_4.jpg,Green_Triangle_Stripes_1.jpg,right,834.739999845624,false,low,false
5xHEbaS6,36818z1kw6qmfrfyj2vkz259guma30,3xuhv3nrvob6qd8auty7k5moqaa5hp,5xHEbaS6,2020-0188,2020-05-08,08:00:40,08:20:05,NA,incomplete,136,filling,1,left,Purple_Triangle_Stripes_3.jpg,Green_Plus_Stripes_4.jpg,Red_Circle_Chess_3.jpg,left,888.8550000265241,true,low,false
5xHEbaS6,36818z1kw6qmfrfyj2vkz259guma30,3xuhv3nrvob6qd8auty7k5moqaa5hp,5xHEbaS6,2020-0188,2020-05-08,08:00:40,08:20:05,NA,incomplete,137,filling,1,left,Green_Plus_Grid_3.jpg,Purple_Triangle_Grid_4.jpg,Red_Star_Stripes_3.jpg,left,824.0300000179559,true,low,false
5xHEbaS6,36818z1kw6qmfrfyj2vkz259guma30,3xuhv3nrvob6qd8auty7k5moqaa5hp,5xHEbaS6,2020-0188,2020-05-08,08:00:40,08:20:05,NA,incomplete,138,filling,1,left,Blue_Triangle_Stripes_4.jpg,Purple_Star_Stripes_2.jpg,Red_Plus_Dots_4.jpg,left,847.8850000537932,true,low,false
5xHEbaS6,36818z1kw6qmfrfyj2vkz259guma30,3xuhv3nrvob6qd8auty7k5moqaa5hp,5xHEbaS6,2020-0188,2020-05-08,08:00:40,08:20:05,NA,incomplete,139,filling,0,right,Red_Plus_Stripes_4.jpg,Green_Star_Chess_4.jpg,Blue_Circle_Stripes_1.jpg,right,850.9400000330061,true,low,false
5xHEbaS6,36818z1kw6qmfrfyj2vkz259guma30,3xuhv3nrvob6qd8auty7k5moqaa5hp,5xHEbaS6,2020-0188,2020-05-08,08:00:40,08:20:05,NA,incomplete,140,number,1,right,Purple_Plus_Grid_3.jpg,Blue_Triangle_Grid_4.jpg,Green_Star_Stripes_3.jpg,left,766.7949998285621,false,low,false
5xHEbaS6,36818z1kw6qmfrfyj2vkz259guma30,3xuhv3nrvob6qd8auty7k5moqaa5hp,5xHEbaS6,2020-0188,2020-05-08,08:00:40,08:20:05,NA,incomplete,141,number,0,right,Blue_Triangle_Chess_3.jpg,Green_Star_Chess_2.jpg,Red_Plus_Dots_3.jpg,right,715.3849999886006,true,low,false
5xHEbaS6,36818z1kw6qmfrfyj2vkz259guma30,3xuhv3nrvob6qd8auty7k5moqaa5hp,5xHEbaS6,2020-0188,2020-05-08,08:00:40,08:20:05,NA,incomplete,142,number,1,right,Blue_Triangle_Chess_2.jpg,Red_Circle_Chess_3.jpg,Green_Star_Dots_2.jpg,left,773.1599998660386,false,low,false
5xHEbaS6,36818z1kw6qmfrfyj2vkz259guma30,3xuhv3nrvob6qd8auty7k5moqaa5hp,5xHEbaS6,2020-0188,2020-05-08,08:00:40,08:20:05,NA,incomplete,143,number,1,right,Green_Circle_Dots_3.jpg,Blue_Triangle_Dots_1.jpg,Purple_Plus_Stripes_3.jpg,right,738.0700001958758,true,low,false
5xHEbaS6,36818z1kw6qmfrfyj2vkz259guma30,3xuhv3nrvob6qd8auty7k5moqaa5hp,5xHEbaS6,2020-0188,2020-05-08,08:00:40,08:20:05,NA,incomplete,144,number,1,left,Blue_Triangle_Stripes_4.jpg,Purple_Star_Chess_4.jpg,Red_Circle_Stripes_3.jpg,left,721.2800001725554,true,low,false
5xHEbaS6,36818z1kw6qmfrfyj2vkz259guma30,3xuhv3nrvob6qd8auty7k5moqaa5hp,5xHEbaS6,2020-0188,2020-05-08,08:00:40,08:20:05,NA,incomplete,145,number,1,right,Purple_Star_Dots_1.jpg,Green_Plus_Dots_3.jpg,Blue_Circle_Stripes_1.jpg,right,710.72500012815,true,low,false
5xHEbaS6,36818z1kw6qmfrfyj2vkz259guma30,3xuhv3nrvob6qd8auty7k5moqaa5hp,5xHEbaS6,2020-0188,2020-05-08,08:00:40,08:20:05,NA,incomplete,146,number,1,right,Purple_Star_Chess_3.jpg,Red_Triangle_Chess_1.jpg,Green_Circle_Stripes_3.jpg,right,712.1649999171495,true,low,false
5xHEbaS6,36818z1kw6qmfrfyj2vkz259guma30,3xuhv3nrvob6qd8auty7k5moqaa5hp,5xHEbaS6,2020-0188,2020-05-08,08:00:40,08:20:05,NA,incomplete,147,number,1,left,Red_Triangle_Dots_2.jpg,Green_Plus_Grid_2.jpg,Blue_Circle_Dots_4.jpg,left,678.5949999466538,true,low,false
5xHEbaS6,36818z1kw6qmfrfyj2vkz259guma30,3xuhv3nrvob6qd8auty7k5moqaa5hp,5xHEbaS6,2020-0188,2020-05-08,08:00:40,08:20:05,NA,incomplete,148,number,0,left,Green_Plus_Grid_4.jpg,Purple_Triangle_Chess_4.jpg,Red_Star_Grid_2.jpg,left,613.6249999981374,true,low,false
5xHEbaS6,36818z1kw6qmfrfyj2vkz259guma30,3xuhv3nrvob6qd8auty7k5moqaa5hp,5xHEbaS6,2020-0188,2020-05-08,08:00:40,08:20:05,NA,incomplete,149,number,1,right,Green_Triangle_Stripes_4.jpg,Red_Plus_Stripes_2.jpg,Purple_Circle_Grid_4.jpg,right,719.0199999604374,true,low,false
5xHEbaS6,36818z1kw6qmfrfyj2vkz259guma30,3xuhv3nrvob6qd8auty7k5moqaa5hp,5xHEbaS6,2020-0188,2020-05-08,08:00:40,08:20:05,NA,incomplete,150,number,1,left,Blue_Star_Chess_2.jpg,Purple_Circle_Grid_2.jpg,Green_Triangle_Chess_4.jpg,left,862.1149999089539,true,low,false
5xHEbaS6,36818z1kw6qmfrfyj2vkz259guma30,3xuhv3nrvob6qd8auty7k5moqaa5hp,5xHEbaS6,2020-0188,2020-05-08,08:00:40,08:20:05,NA,incomplete,151,number,1,right,Purple_Plus_Stripes_1.jpg,Red_Star_Stripes_2.jpg,Green_Circle_Grid_1.jpg,right,780.3350000176579,true,low,false
5xHEbaS6,36818z1kw6qmfrfyj2vkz259guma30,3xuhv3nrvob6qd8auty7k5moqaa5hp,5xHEbaS6,2020-0188,2020-05-08,08:00:40,08:20:05,NA,incomplete,152,number,0,left,Purple_Triangle_Dots_3.jpg,Green_Plus_Stripes_3.jpg,Blue_Star_Dots_2.jpg,left,652.0500001497567,true,low,false
5xHEbaS6,36818z1kw6qmfrfyj2vkz259guma30,3xuhv3nrvob6qd8auty7k5moqaa5hp,5xHEbaS6,2020-0188,2020-05-08,08:00:40,08:20:05,NA,incomplete,153,number,1,right,Purple_Plus_Stripes_4.jpg,Blue_Triangle_Stripes_1.jpg,Green_Star_Chess_4.jpg,right,574.5900000911206,true,low,false
5xHEbaS6,36818z1kw6qmfrfyj2vkz259guma30,3xuhv3nrvob6qd8auty7k5moqaa5hp,5xHEbaS6,2020-0188,2020-05-08,08:00:40,08:20:05,NA,incomplete,154,number,1,left,Green_Circle_Dots_4.jpg,Blue_Triangle_Stripes_4.jpg,Red_Star_Dots_3.jpg,left,802.834999980405,true,low,false
5xHEbaS6,36818z1kw6qmfrfyj2vkz259guma30,3xuhv3nrvob6qd8auty7k5moqaa5hp,5xHEbaS6,2020-0188,2020-05-08,08:00:40,08:20:05,NA,incomplete,155,number,1,right,Purple_Star_Stripes_4.jpg,Red_Triangle_Stripes_1.jpg,Blue_Plus_Dots_4.jpg,right,641.730000032112,true,low,false
5xHEbaS6,36818z1kw6qmfrfyj2vkz259guma30,3xuhv3nrvob6qd8auty7k5moqaa5hp,5xHEbaS6,2020-0188,2020-05-08,08:00:40,08:20:05,NA,incomplete,156,number,1,right,Green_Circle_Stripes_3.jpg,Purple_Plus_Stripes_4.jpg,Blue_Star_Dots_3.jpg,right,715.8200000412762,true,low,false
5xHEbaS6,36818z1kw6qmfrfyj2vkz259guma30,3xuhv3nrvob6qd8auty7k5moqaa5hp,5xHEbaS6,2020-0188,2020-05-08,08:00:40,08:20:05,NA,incomplete,157,number,0,left,Blue_Circle_Grid_4.jpg,Red_Plus_Chess_4.jpg,Green_Triangle_Grid_1.jpg,left,715.6449998728931,true,low,false
5xHEbaS6,36818z1kw6qmfrfyj2vkz259guma30,3xuhv3nrvob6qd8auty7k5moqaa5hp,5xHEbaS6,2020-0188,2020-05-08,08:00:40,08:20:05,NA,incomplete,158,number,1,left,Red_Plus_Grid_4.jpg,Blue_Star_Dots_4.jpg,Green_Triangle_Grid_1.jpg,left,595.9399999119341,true,low,false
5xHEbaS6,36818z1kw6qmfrfyj2vkz259guma30,3xuhv3nrvob6qd8auty7k5moqaa5hp,5xHEbaS6,2020-0188,2020-05-08,08:00:40,08:20:05,NA,incomplete,159,number,1,left,Green_Triangle_Chess_1.jpg,Blue_Star_Stripes_1.jpg,Purple_Plus_Chess_2.jpg,left,617.595000192523,true,low,false
5xHEbaS6,36818z1kw6qmfrfyj2vkz259guma30,3xuhv3nrvob6qd8auty7k5moqaa5hp,5xHEbaS6,2020-0188,2020-05-08,08:00:40,08:20:05,NA,incomplete,160,filling,1,right,Purple_Star_Dots_3.jpg,Red_Plus_Grid_3.jpg,Blue_Triangle_Dots_2.jpg,left,607.9900001641363,false,low,false
5xHEbaS6,36818z1kw6qmfrfyj2vkz259guma30,3xuhv3nrvob6qd8auty7k5moqaa5hp,5xHEbaS6,2020-0188,2020-05-08,08:00:40,08:20:05,NA,incomplete,161,filling,1,right,Purple_Triangle_Chess_2.jpg,Blue_Star_Grid_2.jpg,Red_Circle_Chess_1.jpg,left,745.9800001233816,false,low,false
5xHEbaS6,36818z1kw6qmfrfyj2vkz259guma30,3xuhv3nrvob6qd8auty7k5moqaa5hp,5xHEbaS6,2020-0188,2020-05-08,08:00:40,08:20:05,NA,incomplete,162,filling,1,left,Green_Triangle_Chess_1.jpg,Blue_Circle_Chess_2.jpg,Purple_Star_Dots_1.jpg,left,910.670000128448,true,low,false
5xHEbaS6,36818z1kw6qmfrfyj2vkz259guma30,3xuhv3nrvob6qd8auty7k5moqaa5hp,5xHEbaS6,2020-0188,2020-05-08,08:00:40,08:20:05,NA,incomplete,163,filling,1,right,Purple_Plus_Stripes_1.jpg,Blue_Circle_Grid_1.jpg,Red_Star_Stripes_4.jpg,right,903.7199998274446,true,low,false
5xHEbaS6,36818z1kw6qmfrfyj2vkz259guma30,3xuhv3nrvob6qd8auty7k5moqaa5hp,5xHEbaS6,2020-0188,2020-05-08,08:00:40,08:20:05,NA,incomplete,164,filling,1,left,Blue_Plus_Dots_4.jpg,Red_Circle_Dots_3.jpg,Green_Triangle_Stripes_4.jpg,left,1046.1450000293553,true,low,false
5xHEbaS6,36818z1kw6qmfrfyj2vkz259guma30,3xuhv3nrvob6qd8auty7k5moqaa5hp,5xHEbaS6,2020-0188,2020-05-08,08:00:40,08:20:05,NA,incomplete,165,filling,1,left,Red_Plus_Chess_3.jpg,Blue_Triangle_Chess_1.jpg,Green_Circle_Grid_3.jpg,left,712.9999999888241,true,low,false
5xHEbaS6,36818z1kw6qmfrfyj2vkz259guma30,3xuhv3nrvob6qd8auty7k5moqaa5hp,5xHEbaS6,2020-0188,2020-05-08,08:00:40,08:20:05,NA,incomplete,166,filling,1,right,Purple_Star_Chess_4.jpg,Red_Circle_Stripes_4.jpg,Green_Plus_Chess_2.jpg,right,830.870000179857,true,low,false
5xHEbaS6,36818z1kw6qmfrfyj2vkz259guma30,3xuhv3nrvob6qd8auty7k5moqaa5hp,5xHEbaS6,2020-0188,2020-05-08,08:00:40,08:20:05,NA,incomplete,167,filling,1,left,Purple_Triangle_Dots_3.jpg,Red_Plus_Dots_1.jpg,Blue_Star_Chess_3.jpg,left,771.4299999643117,true,low,false
5xHEbaS6,36818z1kw6qmfrfyj2vkz259guma30,3xuhv3nrvob6qd8auty7k5moqaa5hp,5xHEbaS6,2020-0188,2020-05-08,08:00:40,08:20:05,NA,incomplete,168,filling,1,left,Blue_Star_Stripes_2.jpg,Green_Circle_Stripes_1.jpg,Red_Plus_Dots_2.jpg,left,755.7000000961125,true,low,false
5xHEbaS6,36818z1kw6qmfrfyj2vkz259guma30,3xuhv3nrvob6qd8auty7k5moqaa5hp,5xHEbaS6,2020-0188,2020-05-08,08:00:40,08:20:05,NA,incomplete,169,filling,0,left,Purple_Star_Grid_2.jpg,Red_Circle_Grid_4.jpg,Blue_Plus_Chess_2.jpg,left,703.3700000029057,true,low,false
5xHEbaS6,36818z1kw6qmfrfyj2vkz259guma30,3xuhv3nrvob6qd8auty7k5moqaa5hp,5xHEbaS6,2020-0188,2020-05-08,08:00:40,08:20:05,NA,incomplete,170,filling,1,left,Purple_Triangle_Dots_1.jpg,Green_Circle_Dots_2.jpg,Blue_Star_Stripes_1.jpg,left,661.1649999395013,true,low,false
5xHEbaS6,36818z1kw6qmfrfyj2vkz259guma30,3xuhv3nrvob6qd8auty7k5moqaa5hp,5xHEbaS6,2020-0188,2020-05-08,08:00:40,08:20:05,NA,incomplete,171,filling,1,right,Purple_Plus_Grid_4.jpg,Blue_Triangle_Stripes_4.jpg,Green_Star_Grid_1.jpg,left,718.83499994874,false,low,false
5xHEbaS6,36818z1kw6qmfrfyj2vkz259guma30,3xuhv3nrvob6qd8auty7k5moqaa5hp,5xHEbaS6,2020-0188,2020-05-08,08:00:40,08:20:05,NA,incomplete,172,filling,1,right,Blue_Circle_Chess_2.jpg,Red_Plus_Grid_2.jpg,Purple_Triangle_Chess_4.jpg,right,940.2349998708814,true,low,false
5xHEbaS6,36818z1kw6qmfrfyj2vkz259guma30,3xuhv3nrvob6qd8auty7k5moqaa5hp,5xHEbaS6,2020-0188,2020-05-08,08:00:40,08:20:05,NA,incomplete,173,filling,1,left,Blue_Triangle_Stripes_4.jpg,Red_Plus_Stripes_2.jpg,Purple_Star_Chess_4.jpg,left,689.7149998694658,true,low,false
5xHEbaS6,36818z1kw6qmfrfyj2vkz259guma30,3xuhv3nrvob6qd8auty7k5moqaa5hp,5xHEbaS6,2020-0188,2020-05-08,08:00:40,08:20:05,NA,incomplete,174,filling,1,right,Green_Triangle_Grid_3.jpg,Red_Star_Chess_3.jpg,Blue_Circle_Grid_1.jpg,right,771.5600000228733,true,low,false
5xHEbaS6,36818z1kw6qmfrfyj2vkz259guma30,3xuhv3nrvob6qd8auty7k5moqaa5hp,5xHEbaS6,2020-0188,2020-05-08,08:00:40,08:20:05,NA,incomplete,175,filling,0,left,Green_Plus_Stripes_1.jpg,Red_Circle_Stripes_2.jpg,Purple_Star_Dots_1.jpg,left,712.6700000371784,true,low,false
5xHEbaS6,36818z1kw6qmfrfyj2vkz259guma30,3xuhv3nrvob6qd8auty7k5moqaa5hp,5xHEbaS6,2020-0188,2020-05-08,08:00:40,08:20:05,NA,incomplete,176,filling,1,right,Purple_Circle_Dots_4.jpg,Blue_Plus_Stripes_4.jpg,Red_Triangle_Dots_3.jpg,right,851.9300001207739,true,low,false
5xHEbaS6,36818z1kw6qmfrfyj2vkz259guma30,3xuhv3nrvob6qd8auty7k5moqaa5hp,5xHEbaS6,2020-0188,2020-05-08,08:00:40,08:20:05,NA,incomplete,177,filling,1,left,Red_Triangle_Grid_2.jpg,Green_Star_Grid_1.jpg,Purple_Circle_Chess_2.jpg,left,1040.084999985993,true,low,false
5xHEbaS6,36818z1kw6qmfrfyj2vkz259guma30,3xuhv3nrvob6qd8auty7k5moqaa5hp,5xHEbaS6,2020-0188,2020-05-08,08:00:40,08:20:05,NA,incomplete,178,filling,1,right,Blue_Plus_Stripes_4.jpg,Purple_Triangle_Dots_4.jpg,Green_Star_Stripes_2.jpg,right,935.0050000939518,true,low,false
5xHEbaS6,36818z1kw6qmfrfyj2vkz259guma30,3xuhv3nrvob6qd8auty7k5moqaa5hp,5xHEbaS6,2020-0188,2020-05-08,08:00:40,08:20:05,NA,incomplete,179,filling,0,left,Blue_Triangle_Grid_2.jpg,Green_Star_Grid_4.jpg,Red_Plus_Dots_2.jpg,left,931.6100000869483,true,low,false
5xHEbaS6,36818z1kw6qmfrfyj2vkz259guma30,3xuhv3nrvob6qd8auty7k5moqaa5hp,5xHEbaS6,2020-0188,2020-05-08,08:00:40,08:20:05,NA,incomplete,180,number,1,right,Green_Star_Dots_3.jpg,Red_Circle_Dots_1.jpg,Blue_Triangle_Grid_3.jpg,left,932.7249999623746,false,low,false
5xHEbaS6,36818z1kw6qmfrfyj2vkz259guma30,3xuhv3nrvob6qd8auty7k5moqaa5hp,5xHEbaS6,2020-0188,2020-05-08,08:00:40,08:20:05,NA,incomplete,181,number,0,left,Blue_Plus_Stripes_4.jpg,Green_Star_Chess_4.jpg,Red_Circle_Stripes_1.jpg,left,703.9000000804663,true,low,false
5xHEbaS6,36818z1kw6qmfrfyj2vkz259guma30,3xuhv3nrvob6qd8auty7k5moqaa5hp,5xHEbaS6,2020-0188,2020-05-08,08:00:40,08:20:05,NA,incomplete,182,number,1,left,Green_Plus_Grid_3.jpg,Blue_Triangle_Stripes_3.jpg,Red_Star_Grid_4.jpg,right,1160.5849999468774,false,low,false
5xHEbaS6,36818z1kw6qmfrfyj2vkz259guma30,3xuhv3nrvob6qd8auty7k5moqaa5hp,5xHEbaS6,2020-0188,2020-05-08,08:00:40,08:20:05,NA,incomplete,183,number,0,right,Green_Triangle_Dots_4.jpg,Purple_Star_Dots_2.jpg,Red_Circle_Grid_4.jpg,left,1233.055000193417,false,low,false
5xHEbaS6,36818z1kw6qmfrfyj2vkz259guma30,3xuhv3nrvob6qd8auty7k5moqaa5hp,5xHEbaS6,2020-0188,2020-05-08,08:00:40,08:20:05,NA,incomplete,184,number,1,right,Red_Circle_Chess_2.jpg,Purple_Triangle_Chess_1.jpg,Blue_Star_Stripes_2.jpg,left,831.9099999498576,false,low,false
5xHEbaS6,36818z1kw6qmfrfyj2vkz259guma30,3xuhv3nrvob6qd8auty7k5moqaa5hp,5xHEbaS6,2020-0188,2020-05-08,08:00:40,08:20:05,NA,incomplete,185,number,1,right,Purple_Star_Grid_3.jpg,Green_Circle_Grid_2.jpg,Red_Triangle_Stripes_3.jpg,right,753.654999891296,true,low,false
5xHEbaS6,36818z1kw6qmfrfyj2vkz259guma30,3xuhv3nrvob6qd8auty7k5moqaa5hp,5xHEbaS6,2020-0188,2020-05-08,08:00:40,08:20:05,NA,incomplete,186,number,0,right,Purple_Circle_Dots_3.jpg,Red_Triangle_Dots_1.jpg,Green_Star_Chess_3.jpg,right,702.5500000454485,true,low,false
5xHEbaS6,36818z1kw6qmfrfyj2vkz259guma30,3xuhv3nrvob6qd8auty7k5moqaa5hp,5xHEbaS6,2020-0188,2020-05-08,08:00:40,08:20:05,NA,incomplete,187,number,1,left,Blue_Star_Chess_4.jpg,Purple_Plus_Grid_4.jpg,Red_Triangle_Chess_3.jpg,left,751.4899999368936,true,low,false
5xHEbaS6,36818z1kw6qmfrfyj2vkz259guma30,3xuhv3nrvob6qd8auty7k5moqaa5hp,5xHEbaS6,2020-0188,2020-05-08,08:00:40,08:20:05,NA,incomplete,188,number,1,right,Purple_Triangle_Stripes_3.jpg,Green_Star_Stripes_4.jpg,Blue_Circle_Chess_3.jpg,right,721.5650000143796,true,low,false
5xHEbaS6,36818z1kw6qmfrfyj2vkz259guma30,3xuhv3nrvob6qd8auty7k5moqaa5hp,5xHEbaS6,2020-0188,2020-05-08,08:00:40,08:20:05,NA,incomplete,189,number,0,right,Blue_Star_Dots_4.jpg,Green_Triangle_Dots_3.jpg,Purple_Circle_Chess_4.jpg,right,702.5150000117719,true,low,false
5xHEbaS6,36818z1kw6qmfrfyj2vkz259guma30,3xuhv3nrvob6qd8auty7k5moqaa5hp,5xHEbaS6,2020-0188,2020-05-08,08:00:40,08:20:05,NA,incomplete,190,number,1,right,Red_Triangle_Dots_2.jpg,Green_Plus_Dots_3.jpg,Blue_Circle_Grid_2.jpg,right,1119.9550000019372,true,low,false
5xHEbaS6,36818z1kw6qmfrfyj2vkz259guma30,3xuhv3nrvob6qd8auty7k5moqaa5hp,5xHEbaS6,2020-0188,2020-05-08,08:00:40,08:20:05,NA,incomplete,191,number,1,right,Red_Star_Grid_2.jpg,Blue_Plus_Grid_4.jpg,Purple_Triangle_Chess_2.jpg,right,692.5850000698119,true,low,false
5xHEbaS6,36818z1kw6qmfrfyj2vkz259guma30,3xuhv3nrvob6qd8auty7k5moqaa5hp,5xHEbaS6,2020-0188,2020-05-08,08:00:40,08:20:05,NA,incomplete,192,number,1,left,Blue_Star_Chess_1.jpg,Red_Plus_Dots_1.jpg,Green_Triangle_Chess_2.jpg,left,727.2549998015165,true,low,false
5xHEbaS6,36818z1kw6qmfrfyj2vkz259guma30,3xuhv3nrvob6qd8auty7k5moqaa5hp,5xHEbaS6,2020-0188,2020-05-08,08:00:40,08:20:05,NA,incomplete,193,number,0,left,Purple_Triangle_Dots_2.jpg,Blue_Plus_Stripes_2.jpg,Green_Circle_Dots_1.jpg,left,893.3899998664856,true,low,false
5xHEbaS6,36818z1kw6qmfrfyj2vkz259guma30,3xuhv3nrvob6qd8auty7k5moqaa5hp,5xHEbaS6,2020-0188,2020-05-08,08:00:40,08:20:05,NA,incomplete,194,number,1,right,Blue_Plus_Chess_1.jpg,Red_Triangle_Chess_2.jpg,Purple_Star_Grid_1.jpg,right,834.4100001268089,true,low,false
5xHEbaS6,36818z1kw6qmfrfyj2vkz259guma30,3xuhv3nrvob6qd8auty7k5moqaa5hp,5xHEbaS6,2020-0188,2020-05-08,08:00:40,08:20:05,NA,incomplete,195,number,0,left,Green_Plus_Chess_2.jpg,Blue_Triangle_Stripes_2.jpg,Red_Star_Chess_1.jpg,left,728.4850000869483,true,low,false
5xHEbaS6,36818z1kw6qmfrfyj2vkz259guma30,3xuhv3nrvob6qd8auty7k5moqaa5hp,5xHEbaS6,2020-0188,2020-05-08,08:00:40,08:20:05,NA,incomplete,196,number,1,left,Green_Circle_Dots_1.jpg,Purple_Plus_Grid_1.jpg,Red_Star_Dots_4.jpg,right,1009.5750000327826,false,low,false
5xHEbaS6,36818z1kw6qmfrfyj2vkz259guma30,3xuhv3nrvob6qd8auty7k5moqaa5hp,5xHEbaS6,2020-0188,2020-05-08,08:00:40,08:20:05,NA,incomplete,197,number,1,right,Purple_Circle_Dots_2.jpg,Green_Triangle_Dots_3.jpg,Red_Star_Stripes_2.jpg,right,1369.3250000942498,true,low,false
5xHEbaS6,36818z1kw6qmfrfyj2vkz259guma30,3xuhv3nrvob6qd8auty7k5moqaa5hp,5xHEbaS6,2020-0188,2020-05-08,08:00:40,08:20:05,NA,incomplete,198,number,0,left,Red_Plus_Dots_2.jpg,Blue_Circle_Stripes_2.jpg,Purple_Star_Dots_4.jpg,left,817.185000050813,true,low,false
5xHEbaS6,36818z1kw6qmfrfyj2vkz259guma30,3xuhv3nrvob6qd8auty7k5moqaa5hp,5xHEbaS6,2020-0188,2020-05-08,08:00:40,08:20:05,NA,incomplete,199,number,1,right,Purple_Plus_Stripes_2.jpg,Blue_Circle_Stripes_1.jpg,Green_Star_Grid_2.jpg,right,878.6400000099093,true,low,false
5xHEbaS6,36818z1kw6qmfrfyj2vkz259guma30,3xuhv3nrvob6qd8auty7k5moqaa5hp,5xHEbaS6,2020-0188,2020-05-08,08:00:40,08:20:05,NA,incomplete,200,filling,1,right,Green_Circle_Dots_3.jpg,Red_Triangle_Stripes_3.jpg,Blue_Plus_Dots_2.jpg,left,899.7000001836568,false,low,false
5xHEbaS6,36818z1kw6qmfrfyj2vkz259guma30,3xuhv3nrvob6qd8auty7k5moqaa5hp,5xHEbaS6,2020-0188,2020-05-08,08:00:40,08:20:05,NA,incomplete,201,filling,1,left,Purple_Plus_Grid_4.jpg,Red_Star_Grid_2.jpg,Green_Triangle_Chess_4.jpg,right,795.505000045523,false,low,false
5xHEbaS6,36818z1kw6qmfrfyj2vkz259guma30,3xuhv3nrvob6qd8auty7k5moqaa5hp,5xHEbaS6,2020-0188,2020-05-08,08:00:40,08:20:05,NA,incomplete,202,filling,1,left,Blue_Circle_Stripes_4.jpg,Red_Star_Stripes_2.jpg,Purple_Plus_Grid_4.jpg,left,810.6249999254942,true,low,false
5xHEbaS6,36818z1kw6qmfrfyj2vkz259guma30,3xuhv3nrvob6qd8auty7k5moqaa5hp,5xHEbaS6,2020-0188,2020-05-08,08:00:40,08:20:05,NA,incomplete,203,filling,1,left,Blue_Star_Dots_1.jpg,Green_Triangle_Dots_4.jpg,Red_Plus_Grid_1.jpg,left,1199.06000001356,true,low,false
5xHEbaS6,36818z1kw6qmfrfyj2vkz259guma30,3xuhv3nrvob6qd8auty7k5moqaa5hp,5xHEbaS6,2020-0188,2020-05-08,08:00:40,08:20:05,NA,incomplete,204,filling,0,right,Red_Circle_Grid_2.jpg,Green_Triangle_Stripes_2.jpg,Purple_Plus_Grid_3.jpg,right,1133.8949999772012,true,low,false
5xHEbaS6,36818z1kw6qmfrfyj2vkz259guma30,3xuhv3nrvob6qd8auty7k5moqaa5hp,5xHEbaS6,2020-0188,2020-05-08,08:00:40,08:20:05,NA,incomplete,205,filling,1,right,Blue_Plus_Chess_2.jpg,Green_Triangle_Dots_2.jpg,Red_Star_Chess_1.jpg,right,824.6150000486523,true,low,false
5xHEbaS6,36818z1kw6qmfrfyj2vkz259guma30,3xuhv3nrvob6qd8auty7k5moqaa5hp,5xHEbaS6,2020-0188,2020-05-08,08:00:40,08:20:05,NA,incomplete,206,filling,0,right,Purple_Plus_Stripes_2.jpg,Blue_Circle_Chess_2.jpg,Green_Star_Stripes_3.jpg,right,956.8799999542534,true,low,false
5xHEbaS6,36818z1kw6qmfrfyj2vkz259guma30,3xuhv3nrvob6qd8auty7k5moqaa5hp,5xHEbaS6,2020-0188,2020-05-08,08:00:40,08:20:05,NA,incomplete,207,filling,1,left,Purple_Star_Dots_4.jpg,Red_Circle_Dots_2.jpg,Green_Triangle_Stripes_4.jpg,left,865.334999980405,true,low,false
5xHEbaS6,36818z1kw6qmfrfyj2vkz259guma30,3xuhv3nrvob6qd8auty7k5moqaa5hp,5xHEbaS6,2020-0188,2020-05-08,08:00:40,08:20:05,NA,incomplete,208,filling,1,right,Green_Plus_Grid_4.jpg,Purple_Star_Dots_4.jpg,Blue_Triangle_Grid_3.jpg,right,1113.870000001043,true,low,false
5xHEbaS6,36818z1kw6qmfrfyj2vkz259guma30,3xuhv3nrvob6qd8auty7k5moqaa5hp,5xHEbaS6,2020-0188,2020-05-08,08:00:40,08:20:05,NA,incomplete,209,filling,1,right,Purple_Triangle_Chess_4.jpg,Red_Plus_Dots_4.jpg,Blue_Circle_Chess_3.jpg,right,792.515000095591,true,low,false
5xHEbaS6,36818z1kw6qmfrfyj2vkz259guma30,3xuhv3nrvob6qd8auty7k5moqaa5hp,5xHEbaS6,2020-0188,2020-05-08,08:00:40,08:20:05,NA,incomplete,210,filling,1,right,Blue_Triangle_Grid_4.jpg,Green_Star_Stripes_4.jpg,Red_Plus_Grid_1.jpg,right,965.7300000544637,true,low,false
5xHEbaS6,36818z1kw6qmfrfyj2vkz259guma30,3xuhv3nrvob6qd8auty7k5moqaa5hp,5xHEbaS6,2020-0188,2020-05-08,08:00:40,08:20:05,NA,incomplete,211,filling,1,right,Blue_Plus_Dots_4.jpg,Red_Circle_Chess_4.jpg,Purple_Triangle_Dots_2.jpg,right,995.3850000165403,true,low,false
5xHEbaS6,36818z1kw6qmfrfyj2vkz259guma30,3xuhv3nrvob6qd8auty7k5moqaa5hp,5xHEbaS6,2020-0188,2020-05-08,08:00:40,08:20:05,NA,incomplete,212,filling,1,right,Red_Star_Chess_1.jpg,Blue_Triangle_Grid_1.jpg,Purple_Plus_Chess_3.jpg,right,930.384999839589,true,low,false
5xHEbaS6,36818z1kw6qmfrfyj2vkz259guma30,3xuhv3nrvob6qd8auty7k5moqaa5hp,5xHEbaS6,2020-0188,2020-05-08,08:00:40,08:20:05,NA,incomplete,213,filling,1,left,Blue_Circle_Grid_3.jpg,Green_Triangle_Grid_2.jpg,Purple_Plus_Dots_3.jpg,left,873.1299999635667,true,low,false
5xHEbaS6,36818z1kw6qmfrfyj2vkz259guma30,3xuhv3nrvob6qd8auty7k5moqaa5hp,5xHEbaS6,2020-0188,2020-05-08,08:00:40,08:20:05,NA,incomplete,214,filling,1,right,Green_Circle_Grid_1.jpg,Blue_Star_Chess_1.jpg,Red_Triangle_Grid_3.jpg,right,774.5699998922646,true,low,false
5xHEbaS6,36818z1kw6qmfrfyj2vkz259guma30,3xuhv3nrvob6qd8auty7k5moqaa5hp,5xHEbaS6,2020-0188,2020-05-08,08:00:40,08:20:05,NA,incomplete,215,filling,1,left,Blue_Plus_Chess_2.jpg,Green_Star_Chess_1.jpg,Red_Triangle_Stripes_2.jpg,left,795.2449999283999,true,low,false
5xHEbaS6,36818z1kw6qmfrfyj2vkz259guma30,3xuhv3nrvob6qd8auty7k5moqaa5hp,5xHEbaS6,2020-0188,2020-05-08,08:00:40,08:20:05,NA,incomplete,216,filling,0,left,Purple_Circle_Dots_1.jpg,Red_Star_Dots_4.jpg,Green_Triangle_Grid_1.jpg,left,840.7149999402463,true,low,false
5xHEbaS6,36818z1kw6qmfrfyj2vkz259guma30,3xuhv3nrvob6qd8auty7k5moqaa5hp,5xHEbaS6,2020-0188,2020-05-08,08:00:40,08:20:05,NA,incomplete,217,filling,1,left,Blue_Triangle_Chess_4.jpg,Purple_Circle_Chess_1.jpg,Green_Star_Dots_4.jpg,left,795.4450000543147,true,low,false
5xHEbaS6,36818z1kw6qmfrfyj2vkz259guma30,3xuhv3nrvob6qd8auty7k5moqaa5hp,5xHEbaS6,2020-0188,2020-05-08,08:00:40,08:20:05,NA,incomplete,218,filling,1,left,Green_Triangle_Chess_3.jpg,Blue_Circle_Chess_4.jpg,Red_Plus_Dots_3.jpg,left,761.7949999403208,true,low,false
5xHEbaS6,36818z1kw6qmfrfyj2vkz259guma30,3xuhv3nrvob6qd8auty7k5moqaa5hp,5xHEbaS6,2020-0188,2020-05-08,08:00:40,08:20:05,NA,incomplete,219,filling,1,left,Red_Triangle_Stripes_1.jpg,Purple_Plus_Stripes_2.jpg,Green_Circle_Dots_1.jpg,left,889.5650000777096,true,low,false
5xHEbaS6,36818z1kw6qmfrfyj2vkz259guma30,3xuhv3nrvob6qd8auty7k5moqaa5hp,5xHEbaS6,2020-0188,2020-05-08,08:00:40,08:20:05,NA,incomplete,220,number,1,left,Green_Circle_Stripes_3.jpg,Purple_Triangle_Grid_3.jpg,Red_Plus_Stripes_1.jpg,right,863.0899998825043,false,low,false
5xHEbaS6,36818z1kw6qmfrfyj2vkz259guma30,3xuhv3nrvob6qd8auty7k5moqaa5hp,5xHEbaS6,2020-0188,2020-05-08,08:00:40,08:20:05,NA,incomplete,221,number,1,right,Blue_Triangle_Grid_2.jpg,Green_Star_Grid_1.jpg,Red_Plus_Chess_2.jpg,left,854.8099999316037,false,low,false
5xHEbaS6,36818z1kw6qmfrfyj2vkz259guma30,3xuhv3nrvob6qd8auty7k5moqaa5hp,5xHEbaS6,2020-0188,2020-05-08,08:00:40,08:20:05,NA,incomplete,222,number,1,right,Green_Circle_Chess_4.jpg,Purple_Star_Chess_3.jpg,Red_Triangle_Dots_4.jpg,right,764.4199999049306,true,low,false
5xHEbaS6,36818z1kw6qmfrfyj2vkz259guma30,3xuhv3nrvob6qd8auty7k5moqaa5hp,5xHEbaS6,2020-0188,2020-05-08,08:00:40,08:20:05,NA,incomplete,223,number,0,right,Red_Triangle_Stripes_3.jpg,Green_Plus_Stripes_1.jpg,Purple_Circle_Grid_3.jpg,right,746.2199998553842,true,low,false
5xHEbaS6,36818z1kw6qmfrfyj2vkz259guma30,3xuhv3nrvob6qd8auty7k5moqaa5hp,5xHEbaS6,2020-0188,2020-05-08,08:00:40,08:20:05,NA,incomplete,224,number,1,right,Blue_Circle_Dots_1.jpg,Green_Star_Dots_2.jpg,Red_Triangle_Grid_1.jpg,right,709.7799999173731,true,low,false
5xHEbaS6,36818z1kw6qmfrfyj2vkz259guma30,3xuhv3nrvob6qd8auty7k5moqaa5hp,5xHEbaS6,2020-0188,2020-05-08,08:00:40,08:20:05,NA,incomplete,225,number,0,left,Purple_Circle_Grid_1.jpg,Blue_Triangle_Chess_1.jpg,Red_Star_Grid_3.jpg,left,625.874999910593,true,low,false
5xHEbaS6,36818z1kw6qmfrfyj2vkz259guma30,3xuhv3nrvob6qd8auty7k5moqaa5hp,5xHEbaS6,2020-0188,2020-05-08,08:00:40,08:20:05,NA,incomplete,226,number,1,right,Red_Circle_Dots_4.jpg,Blue_Plus_Dots_2.jpg,Green_Triangle_Chess_4.jpg,right,729.5500000473112,true,low,false
5xHEbaS6,36818z1kw6qmfrfyj2vkz259guma30,3xuhv3nrvob6qd8auty7k5moqaa5hp,5xHEbaS6,2020-0188,2020-05-08,08:00:40,08:20:05,NA,incomplete,227,number,0,left,Green_Circle_Chess_1.jpg,Purple_Triangle_Stripes_1.jpg,Blue_Star_Chess_4.jpg,left,680.6700001470745,true,low,false
5xHEbaS6,36818z1kw6qmfrfyj2vkz259guma30,3xuhv3nrvob6qd8auty7k5moqaa5hp,5xHEbaS6,2020-0188,2020-05-08,08:00:40,08:20:05,NA,incomplete,228,number,1,right,Blue_Star_Stripes_2.jpg,Purple_Triangle_Stripes_4.jpg,Red_Circle_Dots_2.jpg,right,782.5749998446554,true,low,false
5xHEbaS6,36818z1kw6qmfrfyj2vkz259guma30,3xuhv3nrvob6qd8auty7k5moqaa5hp,5xHEbaS6,2020-0188,2020-05-08,08:00:40,08:20:05,NA,incomplete,229,number,1,right,Red_Triangle_Stripes_3.jpg,Green_Star_Stripes_4.jpg,Blue_Plus_Grid_3.jpg,right,725.1550001092255,true,low,false
5xHEbaS6,36818z1kw6qmfrfyj2vkz259guma30,3xuhv3nrvob6qd8auty7k5moqaa5hp,5xHEbaS6,2020-0188,2020-05-08,08:00:40,08:20:05,NA,incomplete,230,number,0,right,Purple_Plus_Grid_4.jpg,Green_Circle_Grid_1.jpg,Blue_Triangle_Dots_4.jpg,right,676.915000192821,true,low,false
5xHEbaS6,36818z1kw6qmfrfyj2vkz259guma30,3xuhv3nrvob6qd8auty7k5moqaa5hp,5xHEbaS6,2020-0188,2020-05-08,08:00:40,08:20:05,NA,incomplete,231,number,1,right,Green_Triangle_Stripes_2.jpg,Purple_Star_Stripes_3.jpg,Red_Circle_Grid_2.jpg,right,728.5699998028576,true,low,false
5xHEbaS6,36818z1kw6qmfrfyj2vkz259guma30,3xuhv3nrvob6qd8auty7k5moqaa5hp,5xHEbaS6,2020-0188,2020-05-08,08:00:40,08:20:05,NA,incomplete,232,number,0,right,Blue_Star_Chess_4.jpg,Green_Circle_Chess_3.jpg,Red_Plus_Stripes_4.jpg,right,749.7049998492002,true,low,false
5xHEbaS6,36818z1kw6qmfrfyj2vkz259guma30,3xuhv3nrvob6qd8auty7k5moqaa5hp,5xHEbaS6,2020-0188,2020-05-08,08:00:40,08:20:05,NA,incomplete,233,number,1,left,Green_Plus_Grid_1.jpg,Blue_Triangle_Dots_1.jpg,Red_Circle_Grid_3.jpg,left,614.9450000375509,true,low,false
5xHEbaS6,36818z1kw6qmfrfyj2vkz259guma30,3xuhv3nrvob6qd8auty7k5moqaa5hp,5xHEbaS6,2020-0188,2020-05-08,08:00:40,08:20:05,NA,incomplete,234,number,1,left,Red_Star_Dots_1.jpg,Purple_Circle_Chess_1.jpg,Blue_Triangle_Dots_4.jpg,left,633.5450001060963,true,low,false
5xHEbaS6,36818z1kw6qmfrfyj2vkz259guma30,3xuhv3nrvob6qd8auty7k5moqaa5hp,5xHEbaS6,2020-0188,2020-05-08,08:00:40,08:20:05,NA,incomplete,235,number,1,left,Blue_Star_Chess_1.jpg,Red_Plus_Stripes_1.jpg,Purple_Triangle_Chess_3.jpg,left,536.0149999614805,true,low,false
5xHEbaS6,36818z1kw6qmfrfyj2vkz259guma30,3xuhv3nrvob6qd8auty7k5moqaa5hp,5xHEbaS6,2020-0188,2020-05-08,08:00:40,08:20:05,NA,incomplete,236,number,1,left,Blue_Plus_Chess_4.jpg,Red_Circle_Stripes_4.jpg,Purple_Triangle_Chess_3.jpg,left,741.6399999056011,true,low,false
5xHEbaS6,36818z1kw6qmfrfyj2vkz259guma30,3xuhv3nrvob6qd8auty7k5moqaa5hp,5xHEbaS6,2020-0188,2020-05-08,08:00:40,08:20:05,NA,incomplete,237,number,1,right,Blue_Circle_Grid_3.jpg,Purple_Plus_Grid_1.jpg,Green_Star_Chess_3.jpg,right,715.8099999651313,true,low,false
5xHEbaS6,36818z1kw6qmfrfyj2vkz259guma30,3xuhv3nrvob6qd8auty7k5moqaa5hp,5xHEbaS6,2020-0188,2020-05-08,08:00:40,08:20:05,NA,incomplete,238,number,1,left,Green_Triangle_Dots_3.jpg,Red_Plus_Stripes_3.jpg,Blue_Star_Dots_2.jpg,left,737.9099999088794,true,low,false
5xHEbaS6,36818z1kw6qmfrfyj2vkz259guma30,3xuhv3nrvob6qd8auty7k5moqaa5hp,5xHEbaS6,2020-0188,2020-05-08,08:00:40,08:20:05,NA,incomplete,239,number,1,right,Blue_Circle_Chess_2.jpg,Purple_Triangle_Chess_1.jpg,Green_Star_Grid_2.jpg,right,758.3650001324713,true,low,false
5xHEbaS6,36818z1kw6qmfrfyj2vkz259guma30,3xuhv3nrvob6qd8auty7k5moqaa5hp,5xHEbaS6,2020-0188,2020-05-08,08:00:40,08:20:05,1138320.690000197,1166881.5050001722,NA,NA,NA,NA,NA,NA,NA,NA,NA,NA,NA,undefined
