workerId,hitId,assignmentId,subject,studyid,exp_date,exp_start,exp_end,time_start,time_end,trial,type,reward_validity,answer,image_top,image_left,image_right,response,response_time,response_acc,volatility,age,race,gender,ethnicity,color,vision,neuro,practice
2zpK0aYb,385mdvingfsu7ikqnsjzxyjp4abjww,3xxu1swe8q8sljevrhi3mo3txdka0m,2zpK0aYb,2020-0188,2020-05-08,19:04:29,19:18:41,NA,incomplete,0,shape,1,left,Green_Circle_Stripes_2.jpg,Red_Circle_Chess_1.jpg,Green_Plus_Grid_3.jpg,none,0,false,NA,NA,NA,NA,NA,NA,NA,NA,true
2zpK0aYb,385mdvingfsu7ikqnsjzxyjp4abjww,3xxu1swe8q8sljevrhi3mo3txdka0m,2zpK0aYb,2020-0188,2020-05-08,19:04:29,19:18:41,NA,incomplete,1,shape,1,right,Red_Circle_Chess_3.jpg,Red_Star_Dots_2.jpg,Purple_Circle_Grid_4.jpg,right,953.1149999238551,true,NA,NA,NA,NA,NA,NA,NA,NA,true
2zpK0aYb,385mdvingfsu7ikqnsjzxyjp4abjww,3xxu1swe8q8sljevrhi3mo3txdka0m,2zpK0aYb,2020-0188,2020-05-08,19:04:29,19:18:41,NA,incomplete,2,shape,1,right,Blue_Circle_Chess_2.jpg,Blue_Triangle_Stripes_3.jpg,Purple_Circle_Grid_4.jpg,right,948.2849999330938,true,NA,NA,NA,NA,NA,NA,NA,NA,true
2zpK0aYb,385mdvingfsu7ikqnsjzxyjp4abjww,3xxu1swe8q8sljevrhi3mo3txdka0m,2zpK0aYb,2020-0188,2020-05-08,19:04:29,19:18:41,NA,incomplete,3,shape,1,left,Green_Circle_Stripes_3.jpg,Purple_Circle_Chess_1.jpg,Green_Triangle_Grid_4.jpg,left,815.4299999587238,true,NA,NA,NA,NA,NA,NA,NA,NA,true
2zpK0aYb,385mdvingfsu7ikqnsjzxyjp4abjww,3xxu1swe8q8sljevrhi3mo3txdka0m,2zpK0aYb,2020-0188,2020-05-08,19:04:29,19:18:41,NA,incomplete,4,shape,1,left,Blue_Plus_Grid_2.jpg,Red_Plus_Stripes_1.jpg,Blue_Triangle_Chess_4.jpg,right,853.8449998013675,false,NA,NA,NA,NA,NA,NA,NA,NA,true
2zpK0aYb,385mdvingfsu7ikqnsjzxyjp4abjww,3xxu1swe8q8sljevrhi3mo3txdka0m,2zpK0aYb,2020-0188,2020-05-08,19:04:29,19:18:41,NA,incomplete,5,shape,0,left,Red_Star_Dots_3.jpg,Green_Star_Stripes_4.jpg,Red_Triangle_Chess_1.jpg,left,847.0950000919402,true,NA,NA,NA,NA,NA,NA,NA,NA,true
2zpK0aYb,385mdvingfsu7ikqnsjzxyjp4abjww,3xxu1swe8q8sljevrhi3mo3txdka0m,2zpK0aYb,2020-0188,2020-05-08,19:04:29,19:18:41,NA,incomplete,6,shape,1,right,Green_Triangle_Stripes_4.jpg,Green_Circle_Grid_3.jpg,Blue_Triangle_Dots_2.jpg,right,794.5550000295043,true,NA,NA,NA,NA,NA,NA,NA,NA,true
2zpK0aYb,385mdvingfsu7ikqnsjzxyjp4abjww,3xxu1swe8q8sljevrhi3mo3txdka0m,2zpK0aYb,2020-0188,2020-05-08,19:04:29,19:18:41,NA,incomplete,7,shape,1,left,Purple_Circle_Stripes_4.jpg,Green_Circle_Dots_1.jpg,Purple_Plus_Grid_2.jpg,left,795.9350000601262,true,NA,NA,NA,NA,NA,NA,NA,NA,true
2zpK0aYb,385mdvingfsu7ikqnsjzxyjp4abjww,3xxu1swe8q8sljevrhi3mo3txdka0m,2zpK0aYb,2020-0188,2020-05-08,19:04:29,19:18:41,NA,incomplete,8,shape,0,left,Purple_Triangle_Dots_4.jpg,Green_Triangle_Stripes_1.jpg,Purple_Star_Grid_3.jpg,left,957.315000006929,true,NA,NA,NA,NA,NA,NA,NA,NA,true
2zpK0aYb,385mdvingfsu7ikqnsjzxyjp4abjww,3xxu1swe8q8sljevrhi3mo3txdka0m,2zpK0aYb,2020-0188,2020-05-08,19:04:29,19:18:41,NA,incomplete,9,shape,0,left,Red_Triangle_Grid_2.jpg,Green_Triangle_Stripes_1.jpg,Red_Circle_Dots_3.jpg,left,869.490000186488,true,NA,NA,NA,NA,NA,NA,NA,NA,true
2zpK0aYb,385mdvingfsu7ikqnsjzxyjp4abjww,3xxu1swe8q8sljevrhi3mo3txdka0m,2zpK0aYb,2020-0188,2020-05-08,19:04:29,19:18:41,NA,incomplete,10,shape,1,right,Green_Plus_Grid_3.jpg,Green_Star_Stripes_2.jpg,Blue_Plus_Dots_4.jpg,right,802.4549998808652,true,NA,NA,NA,NA,NA,NA,NA,NA,true
2zpK0aYb,385mdvingfsu7ikqnsjzxyjp4abjww,3xxu1swe8q8sljevrhi3mo3txdka0m,2zpK0aYb,2020-0188,2020-05-08,19:04:29,19:18:41,NA,incomplete,11,shape,0,right,Green_Star_Chess_2.jpg,Green_Triangle_Dots_4.jpg,Blue_Star_Stripes_1.jpg,right,1086.9700000621378,true,NA,NA,NA,NA,NA,NA,NA,NA,true
2zpK0aYb,385mdvingfsu7ikqnsjzxyjp4abjww,3xxu1swe8q8sljevrhi3mo3txdka0m,2zpK0aYb,2020-0188,2020-05-08,19:04:29,19:18:41,NA,incomplete,12,shape,1,left,Green_Triangle_Stripes_1.jpg,Purple_Triangle_Chess_3.jpg,Green_Star_Grid_4.jpg,left,708.5750000551343,true,NA,NA,NA,NA,NA,NA,NA,NA,true
2zpK0aYb,385mdvingfsu7ikqnsjzxyjp4abjww,3xxu1swe8q8sljevrhi3mo3txdka0m,2zpK0aYb,2020-0188,2020-05-08,19:04:29,19:18:41,NA,incomplete,13,shape,1,right,Red_Plus_Grid_1.jpg,Red_Triangle_Chess_3.jpg,Blue_Plus_Stripes_2.jpg,right,769.5299999322742,true,NA,NA,NA,NA,NA,NA,NA,NA,true
2zpK0aYb,385mdvingfsu7ikqnsjzxyjp4abjww,3xxu1swe8q8sljevrhi3mo3txdka0m,2zpK0aYb,2020-0188,2020-05-08,19:04:29,19:18:41,NA,incomplete,14,shape,1,right,Purple_Plus_Chess_4.jpg,Purple_Star_Stripes_1.jpg,Green_Plus_Grid_2.jpg,right,773.174999980256,true,NA,NA,NA,NA,NA,NA,NA,NA,true
2zpK0aYb,385mdvingfsu7ikqnsjzxyjp4abjww,3xxu1swe8q8sljevrhi3mo3txdka0m,2zpK0aYb,2020-0188,2020-05-08,19:04:29,19:18:41,NA,incomplete,15,shape,1,left,Blue_Triangle_Grid_4.jpg,Red_Triangle_Chess_2.jpg,Blue_Plus_Stripes_1.jpg,left,845.6600001081824,true,NA,NA,NA,NA,NA,NA,NA,NA,true
2zpK0aYb,385mdvingfsu7ikqnsjzxyjp4abjww,3xxu1swe8q8sljevrhi3mo3txdka0m,2zpK0aYb,2020-0188,2020-05-08,19:04:29,19:18:41,NA,incomplete,16,shape,1,right,Red_Star_Dots_3.jpg,Red_Triangle_Grid_4.jpg,Blue_Star_Chess_1.jpg,right,808.8750001043081,true,NA,NA,NA,NA,NA,NA,NA,NA,true
2zpK0aYb,385mdvingfsu7ikqnsjzxyjp4abjww,3xxu1swe8q8sljevrhi3mo3txdka0m,2zpK0aYb,2020-0188,2020-05-08,19:04:29,19:18:41,NA,incomplete,17,shape,1,left,Blue_Triangle_Stripes_2.jpg,Red_Triangle_Grid_3.jpg,Blue_Star_Dots_1.jpg,left,665.9349999390543,true,NA,NA,NA,NA,NA,NA,NA,NA,true
2zpK0aYb,385mdvingfsu7ikqnsjzxyjp4abjww,3xxu1swe8q8sljevrhi3mo3txdka0m,2zpK0aYb,2020-0188,2020-05-08,19:04:29,19:18:41,NA,incomplete,18,shape,1,right,Purple_Circle_Stripes_1.jpg,Purple_Star_Dots_2.jpg,Blue_Circle_Grid_3.jpg,right,864.5299999043345,true,NA,NA,NA,NA,NA,NA,NA,NA,true
2zpK0aYb,385mdvingfsu7ikqnsjzxyjp4abjww,3xxu1swe8q8sljevrhi3mo3txdka0m,2zpK0aYb,2020-0188,2020-05-08,19:04:29,19:18:41,NA,incomplete,19,shape,1,left,Blue_Plus_Stripes_1.jpg,Red_Plus_Chess_2.jpg,Blue_Circle_Dots_4.jpg,left,861.0149999149144,true,NA,NA,NA,NA,NA,NA,NA,NA,true
2zpK0aYb,385mdvingfsu7ikqnsjzxyjp4abjww,3xxu1swe8q8sljevrhi3mo3txdka0m,2zpK0aYb,2020-0188,2020-05-08,19:04:29,19:18:41,NA,incomplete,20,color,0,right,Red_Plus_Chess_3.jpg,Green_Plus_Dots_1.jpg,Red_Circle_Grid_2.jpg,left,878.3950000070035,false,NA,NA,NA,NA,NA,NA,NA,NA,true
2zpK0aYb,385mdvingfsu7ikqnsjzxyjp4abjww,3xxu1swe8q8sljevrhi3mo3txdka0m,2zpK0aYb,2020-0188,2020-05-08,19:04:29,19:18:41,NA,incomplete,21,color,1,left,Green_Triangle_Stripes_4.jpg,Green_Star_Dots_1.jpg,Red_Triangle_Chess_3.jpg,left,984.1599999926984,true,NA,NA,NA,NA,NA,NA,NA,NA,true
2zpK0aYb,385mdvingfsu7ikqnsjzxyjp4abjww,3xxu1swe8q8sljevrhi3mo3txdka0m,2zpK0aYb,2020-0188,2020-05-08,19:04:29,19:18:41,NA,incomplete,22,color,1,right,Blue_Circle_Grid_3.jpg,Red_Circle_Dots_4.jpg,Blue_Triangle_Chess_1.jpg,right,657.694999827072,true,NA,NA,NA,NA,NA,NA,NA,NA,true
2zpK0aYb,385mdvingfsu7ikqnsjzxyjp4abjww,3xxu1swe8q8sljevrhi3mo3txdka0m,2zpK0aYb,2020-0188,2020-05-08,19:04:29,19:18:41,NA,incomplete,23,color,1,right,Green_Star_Dots_1.jpg,Red_Star_Grid_2.jpg,Green_Circle_Chess_3.jpg,right,572.7800000458956,true,NA,NA,NA,NA,NA,NA,NA,NA,true
2zpK0aYb,385mdvingfsu7ikqnsjzxyjp4abjww,3xxu1swe8q8sljevrhi3mo3txdka0m,2zpK0aYb,2020-0188,2020-05-08,19:04:29,19:18:41,NA,incomplete,24,color,1,right,Purple_Triangle_Dots_2.jpg,Red_Triangle_Stripes_1.jpg,Purple_Star_Chess_3.jpg,left,1196.0550001822412,false,NA,NA,NA,NA,NA,NA,NA,NA,true
2zpK0aYb,385mdvingfsu7ikqnsjzxyjp4abjww,3xxu1swe8q8sljevrhi3mo3txdka0m,2zpK0aYb,2020-0188,2020-05-08,19:04:29,19:18:41,NA,incomplete,25,color,1,right,Red_Plus_Dots_4.jpg,Purple_Plus_Grid_1.jpg,Red_Triangle_Chess_2.jpg,right,888.1900000851601,true,NA,NA,NA,NA,NA,NA,NA,NA,true
2zpK0aYb,385mdvingfsu7ikqnsjzxyjp4abjww,3xxu1swe8q8sljevrhi3mo3txdka0m,2zpK0aYb,2020-0188,2020-05-08,19:04:29,19:18:41,NA,incomplete,26,color,1,right,Red_Star_Stripes_4.jpg,Blue_Star_Dots_1.jpg,Red_Triangle_Chess_3.jpg,right,621.735000051558,true,NA,NA,NA,NA,NA,NA,NA,NA,true
2zpK0aYb,385mdvingfsu7ikqnsjzxyjp4abjww,3xxu1swe8q8sljevrhi3mo3txdka0m,2zpK0aYb,2020-0188,2020-05-08,19:04:29,19:18:41,NA,incomplete,27,color,1,right,Red_Plus_Dots_3.jpg,Green_Plus_Stripes_1.jpg,Red_Star_Chess_2.jpg,right,701.7150002066046,true,NA,NA,NA,NA,NA,NA,NA,NA,true
2zpK0aYb,385mdvingfsu7ikqnsjzxyjp4abjww,3xxu1swe8q8sljevrhi3mo3txdka0m,2zpK0aYb,2020-0188,2020-05-08,19:04:29,19:18:41,NA,incomplete,28,color,1,right,Purple_Triangle_Stripes_1.jpg,Blue_Triangle_Grid_2.jpg,Purple_Circle_Chess_3.jpg,right,802.1249999292195,true,NA,NA,NA,NA,NA,NA,NA,NA,true
2zpK0aYb,385mdvingfsu7ikqnsjzxyjp4abjww,3xxu1swe8q8sljevrhi3mo3txdka0m,2zpK0aYb,2020-0188,2020-05-08,19:04:29,19:18:41,NA,incomplete,29,color,1,left,Green_Triangle_Stripes_2.jpg,Green_Circle_Chess_4.jpg,Red_Triangle_Grid_1.jpg,left,832.9150001518428,true,NA,NA,NA,NA,NA,NA,NA,NA,true
2zpK0aYb,385mdvingfsu7ikqnsjzxyjp4abjww,3xxu1swe8q8sljevrhi3mo3txdka0m,2zpK0aYb,2020-0188,2020-05-08,19:04:29,19:18:41,NA,incomplete,30,color,1,right,Red_Plus_Chess_3.jpg,Green_Plus_Grid_2.jpg,Red_Triangle_Dots_1.jpg,right,791.365000186488,true,NA,NA,NA,NA,NA,NA,NA,NA,true
2zpK0aYb,385mdvingfsu7ikqnsjzxyjp4abjww,3xxu1swe8q8sljevrhi3mo3txdka0m,2zpK0aYb,2020-0188,2020-05-08,19:04:29,19:18:41,NA,incomplete,31,color,1,left,Blue_Triangle_Dots_4.jpg,Blue_Star_Grid_2.jpg,Purple_Triangle_Stripes_3.jpg,left,552.7250000741333,true,NA,NA,NA,NA,NA,NA,NA,NA,true
2zpK0aYb,385mdvingfsu7ikqnsjzxyjp4abjww,3xxu1swe8q8sljevrhi3mo3txdka0m,2zpK0aYb,2020-0188,2020-05-08,19:04:29,19:18:41,NA,incomplete,32,color,0,left,Blue_Triangle_Grid_2.jpg,Blue_Star_Stripes_1.jpg,Green_Triangle_Dots_4.jpg,left,675.5450000055134,true,NA,NA,NA,NA,NA,NA,NA,NA,true
2zpK0aYb,385mdvingfsu7ikqnsjzxyjp4abjww,3xxu1swe8q8sljevrhi3mo3txdka0m,2zpK0aYb,2020-0188,2020-05-08,19:04:29,19:18:41,NA,incomplete,33,color,0,right,Green_Circle_Chess_3.jpg,Blue_Circle_Dots_2.jpg,Green_Triangle_Stripes_4.jpg,right,533.7399998679757,true,NA,NA,NA,NA,NA,NA,NA,NA,true
2zpK0aYb,385mdvingfsu7ikqnsjzxyjp4abjww,3xxu1swe8q8sljevrhi3mo3txdka0m,2zpK0aYb,2020-0188,2020-05-08,19:04:29,19:18:41,NA,incomplete,34,color,1,left,Green_Plus_Stripes_4.jpg,Green_Triangle_Grid_1.jpg,Blue_Plus_Chess_2.jpg,left,1454.5150001067668,true,NA,NA,NA,NA,NA,NA,NA,NA,true
2zpK0aYb,385mdvingfsu7ikqnsjzxyjp4abjww,3xxu1swe8q8sljevrhi3mo3txdka0m,2zpK0aYb,2020-0188,2020-05-08,19:04:29,19:18:41,NA,incomplete,35,color,1,right,Blue_Circle_Dots_2.jpg,Red_Circle_Chess_4.jpg,Blue_Plus_Stripes_1.jpg,right,867.5449998117983,true,NA,NA,NA,NA,NA,NA,NA,NA,true
2zpK0aYb,385mdvingfsu7ikqnsjzxyjp4abjww,3xxu1swe8q8sljevrhi3mo3txdka0m,2zpK0aYb,2020-0188,2020-05-08,19:04:29,19:18:41,NA,incomplete,36,color,1,right,Green_Plus_Stripes_1.jpg,Blue_Plus_Chess_2.jpg,Green_Circle_Grid_3.jpg,right,1253.664999967441,true,NA,NA,NA,NA,NA,NA,NA,NA,true
2zpK0aYb,385mdvingfsu7ikqnsjzxyjp4abjww,3xxu1swe8q8sljevrhi3mo3txdka0m,2zpK0aYb,2020-0188,2020-05-08,19:04:29,19:18:41,NA,incomplete,37,color,1,right,Green_Plus_Dots_4.jpg,Purple_Plus_Stripes_1.jpg,Green_Star_Chess_3.jpg,right,720.9149999544024,true,NA,NA,NA,NA,NA,NA,NA,NA,true
2zpK0aYb,385mdvingfsu7ikqnsjzxyjp4abjww,3xxu1swe8q8sljevrhi3mo3txdka0m,2zpK0aYb,2020-0188,2020-05-08,19:04:29,19:18:41,NA,incomplete,38,color,0,right,Green_Triangle_Dots_2.jpg,Blue_Triangle_Stripes_1.jpg,Green_Plus_Chess_4.jpg,right,841.0100000910461,true,NA,NA,NA,NA,NA,NA,NA,NA,true
2zpK0aYb,385mdvingfsu7ikqnsjzxyjp4abjww,3xxu1swe8q8sljevrhi3mo3txdka0m,2zpK0aYb,2020-0188,2020-05-08,19:04:29,19:18:41,NA,incomplete,39,color,1,right,Red_Plus_Dots_4.jpg,Green_Plus_Stripes_2.jpg,Red_Star_Chess_1.jpg,right,1266.0799999721348,true,NA,NA,NA,NA,NA,NA,NA,NA,true
2zpK0aYb,385mdvingfsu7ikqnsjzxyjp4abjww,3xxu1swe8q8sljevrhi3mo3txdka0m,2zpK0aYb,2020-0188,2020-05-08,19:04:29,19:18:41,NA,incomplete,0,shape,1,left,Blue_Triangle_Grid_4.jpg,Green_Triangle_Dots_2.jpg,Blue_Circle_Stripes_3.jpg,right,703.8350000511855,false,low,NA,NA,NA,NA,NA,NA,NA,false
2zpK0aYb,385mdvingfsu7ikqnsjzxyjp4abjww,3xxu1swe8q8sljevrhi3mo3txdka0m,2zpK0aYb,2020-0188,2020-05-08,19:04:29,19:18:41,NA,incomplete,1,shape,1,right,Red_Circle_Dots_3.jpg,Red_Plus_Chess_2.jpg,Blue_Circle_Grid_1.jpg,left,864.3400000873953,false,low,NA,NA,NA,NA,NA,NA,NA,false
2zpK0aYb,385mdvingfsu7ikqnsjzxyjp4abjww,3xxu1swe8q8sljevrhi3mo3txdka0m,2zpK0aYb,2020-0188,2020-05-08,19:04:29,19:18:41,NA,incomplete,2,shape,0,left,Green_Star_Dots_3.jpg,Red_Star_Chess_4.jpg,Green_Plus_Stripes_2.jpg,right,991.2250000052154,false,low,NA,NA,NA,NA,NA,NA,NA,false
2zpK0aYb,385mdvingfsu7ikqnsjzxyjp4abjww,3xxu1swe8q8sljevrhi3mo3txdka0m,2zpK0aYb,2020-0188,2020-05-08,19:04:29,19:18:41,NA,incomplete,3,shape,1,right,Green_Triangle_Stripes_3.jpg,Green_Plus_Dots_2.jpg,Blue_Triangle_Chess_1.jpg,left,796.7600000556558,false,low,NA,NA,NA,NA,NA,NA,NA,false
2zpK0aYb,385mdvingfsu7ikqnsjzxyjp4abjww,3xxu1swe8q8sljevrhi3mo3txdka0m,2zpK0aYb,2020-0188,2020-05-08,19:04:29,19:18:41,NA,incomplete,4,shape,1,right,Blue_Plus_Grid_3.jpg,Blue_Circle_Chess_2.jpg,Purple_Plus_Stripes_1.jpg,right,775.859999936074,true,low,NA,NA,NA,NA,NA,NA,NA,false
2zpK0aYb,385mdvingfsu7ikqnsjzxyjp4abjww,3xxu1swe8q8sljevrhi3mo3txdka0m,2zpK0aYb,2020-0188,2020-05-08,19:04:29,19:18:41,NA,incomplete,5,shape,1,right,Blue_Plus_Chess_3.jpg,Blue_Circle_Dots_2.jpg,Red_Plus_Grid_4.jpg,right,744.3399999756366,true,low,NA,NA,NA,NA,NA,NA,NA,false
2zpK0aYb,385mdvingfsu7ikqnsjzxyjp4abjww,3xxu1swe8q8sljevrhi3mo3txdka0m,2zpK0aYb,2020-0188,2020-05-08,19:04:29,19:18:41,NA,incomplete,6,shape,0,left,Blue_Triangle_Dots_3.jpg,Purple_Triangle_Stripes_2.jpg,Blue_Star_Grid_4.jpg,left,763.8150001876056,true,low,NA,NA,NA,NA,NA,NA,NA,false
2zpK0aYb,385mdvingfsu7ikqnsjzxyjp4abjww,3xxu1swe8q8sljevrhi3mo3txdka0m,2zpK0aYb,2020-0188,2020-05-08,19:04:29,19:18:41,NA,incomplete,7,shape,1,right,Red_Plus_Grid_2.jpg,Red_Circle_Chess_4.jpg,Green_Plus_Dots_1.jpg,right,798.5199999529868,true,low,NA,NA,NA,NA,NA,NA,NA,false
2zpK0aYb,385mdvingfsu7ikqnsjzxyjp4abjww,3xxu1swe8q8sljevrhi3mo3txdka0m,2zpK0aYb,2020-0188,2020-05-08,19:04:29,19:18:41,NA,incomplete,8,shape,1,left,Red_Plus_Chess_4.jpg,Green_Plus_Stripes_2.jpg,Red_Triangle_Dots_3.jpg,left,700.2400001510978,true,low,NA,NA,NA,NA,NA,NA,NA,false
2zpK0aYb,385mdvingfsu7ikqnsjzxyjp4abjww,3xxu1swe8q8sljevrhi3mo3txdka0m,2zpK0aYb,2020-0188,2020-05-08,19:04:29,19:18:41,NA,incomplete,9,shape,0,right,Purple_Triangle_Stripes_2.jpg,Purple_Star_Dots_3.jpg,Blue_Triangle_Chess_4.jpg,right,634.6099998336285,true,low,NA,NA,NA,NA,NA,NA,NA,false
2zpK0aYb,385mdvingfsu7ikqnsjzxyjp4abjww,3xxu1swe8q8sljevrhi3mo3txdka0m,2zpK0aYb,2020-0188,2020-05-08,19:04:29,19:18:41,NA,incomplete,10,shape,1,right,Purple_Triangle_Grid_1.jpg,Purple_Circle_Stripes_2.jpg,Green_Triangle_Chess_3.jpg,right,711.8800000753254,true,low,NA,NA,NA,NA,NA,NA,NA,false
2zpK0aYb,385mdvingfsu7ikqnsjzxyjp4abjww,3xxu1swe8q8sljevrhi3mo3txdka0m,2zpK0aYb,2020-0188,2020-05-08,19:04:29,19:18:41,NA,incomplete,11,shape,1,left,Blue_Circle_Grid_2.jpg,Purple_Circle_Chess_1.jpg,Blue_Star_Stripes_3.jpg,left,764.7600001655519,true,low,NA,NA,NA,NA,NA,NA,NA,false
2zpK0aYb,385mdvingfsu7ikqnsjzxyjp4abjww,3xxu1swe8q8sljevrhi3mo3txdka0m,2zpK0aYb,2020-0188,2020-05-08,19:04:29,19:18:41,NA,incomplete,12,shape,0,right,Red_Star_Stripes_4.jpg,Red_Plus_Chess_3.jpg,Green_Star_Grid_1.jpg,right,731.8899999372661,true,low,NA,NA,NA,NA,NA,NA,NA,false
2zpK0aYb,385mdvingfsu7ikqnsjzxyjp4abjww,3xxu1swe8q8sljevrhi3mo3txdka0m,2zpK0aYb,2020-0188,2020-05-08,19:04:29,19:18:41,NA,incomplete,13,shape,1,left,Blue_Circle_Dots_4.jpg,Green_Circle_Chess_2.jpg,Blue_Star_Grid_3.jpg,left,803.770000115037,true,low,NA,NA,NA,NA,NA,NA,NA,false
2zpK0aYb,385mdvingfsu7ikqnsjzxyjp4abjww,3xxu1swe8q8sljevrhi3mo3txdka0m,2zpK0aYb,2020-0188,2020-05-08,19:04:29,19:18:41,NA,incomplete,14,shape,0,right,Blue_Triangle_Dots_3.jpg,Blue_Plus_Grid_2.jpg,Green_Triangle_Stripes_1.jpg,right,770.1899998355657,true,low,NA,NA,NA,NA,NA,NA,NA,false
2zpK0aYb,385mdvingfsu7ikqnsjzxyjp4abjww,3xxu1swe8q8sljevrhi3mo3txdka0m,2zpK0aYb,2020-0188,2020-05-08,19:04:29,19:18:41,NA,incomplete,15,shape,1,left,Red_Triangle_Chess_2.jpg,Blue_Triangle_Stripes_4.jpg,Red_Star_Dots_1.jpg,right,1018.4700000099838,false,low,NA,NA,NA,NA,NA,NA,NA,false
2zpK0aYb,385mdvingfsu7ikqnsjzxyjp4abjww,3xxu1swe8q8sljevrhi3mo3txdka0m,2zpK0aYb,2020-0188,2020-05-08,19:04:29,19:18:41,NA,incomplete,16,shape,0,left,Green_Circle_Stripes_2.jpg,Blue_Circle_Dots_1.jpg,Green_Triangle_Chess_3.jpg,left,750.8049998432398,true,low,NA,NA,NA,NA,NA,NA,NA,false
2zpK0aYb,385mdvingfsu7ikqnsjzxyjp4abjww,3xxu1swe8q8sljevrhi3mo3txdka0m,2zpK0aYb,2020-0188,2020-05-08,19:04:29,19:18:41,NA,incomplete,17,shape,1,left,Green_Circle_Chess_2.jpg,Blue_Circle_Stripes_3.jpg,Green_Triangle_Dots_4.jpg,left,1133.8700000196695,true,low,NA,NA,NA,NA,NA,NA,NA,false
2zpK0aYb,385mdvingfsu7ikqnsjzxyjp4abjww,3xxu1swe8q8sljevrhi3mo3txdka0m,2zpK0aYb,2020-0188,2020-05-08,19:04:29,19:18:41,NA,incomplete,18,shape,1,right,Green_Star_Dots_2.jpg,Green_Plus_Stripes_4.jpg,Purple_Star_Grid_1.jpg,right,953.1800001859665,true,low,NA,NA,NA,NA,NA,NA,NA,false
2zpK0aYb,385mdvingfsu7ikqnsjzxyjp4abjww,3xxu1swe8q8sljevrhi3mo3txdka0m,2zpK0aYb,2020-0188,2020-05-08,19:04:29,19:18:41,NA,incomplete,19,shape,1,right,Purple_Circle_Stripes_1.jpg,Purple_Star_Grid_2.jpg,Blue_Circle_Chess_3.jpg,right,733.9549998287112,true,low,NA,NA,NA,NA,NA,NA,NA,false
2zpK0aYb,385mdvingfsu7ikqnsjzxyjp4abjww,3xxu1swe8q8sljevrhi3mo3txdka0m,2zpK0aYb,2020-0188,2020-05-08,19:04:29,19:18:41,NA,incomplete,20,shape,1,right,Blue_Circle_Grid_1.jpg,Blue_Star_Stripes_2.jpg,Purple_Circle_Dots_3.jpg,right,707.3600001167506,true,low,NA,NA,NA,NA,NA,NA,NA,false
2zpK0aYb,385mdvingfsu7ikqnsjzxyjp4abjww,3xxu1swe8q8sljevrhi3mo3txdka0m,2zpK0aYb,2020-0188,2020-05-08,19:04:29,19:18:41,NA,incomplete,21,shape,1,right,Green_Circle_Stripes_4.jpg,Green_Triangle_Chess_3.jpg,Blue_Circle_Dots_2.jpg,right,732.0549997966737,true,low,NA,NA,NA,NA,NA,NA,NA,false
2zpK0aYb,385mdvingfsu7ikqnsjzxyjp4abjww,3xxu1swe8q8sljevrhi3mo3txdka0m,2zpK0aYb,2020-0188,2020-05-08,19:04:29,19:18:41,NA,incomplete,22,shape,1,right,Red_Triangle_Dots_2.jpg,Red_Plus_Grid_1.jpg,Purple_Triangle_Stripes_4.jpg,right,896.0000001825392,true,low,NA,NA,NA,NA,NA,NA,NA,false
2zpK0aYb,385mdvingfsu7ikqnsjzxyjp4abjww,3xxu1swe8q8sljevrhi3mo3txdka0m,2zpK0aYb,2020-0188,2020-05-08,19:04:29,19:18:41,NA,incomplete,23,shape,1,left,Purple_Star_Stripes_1.jpg,Blue_Star_Dots_3.jpg,Purple_Circle_Grid_4.jpg,left,889.5750001538545,true,low,NA,NA,NA,NA,NA,NA,NA,false
2zpK0aYb,385mdvingfsu7ikqnsjzxyjp4abjww,3xxu1swe8q8sljevrhi3mo3txdka0m,2zpK0aYb,2020-0188,2020-05-08,19:04:29,19:18:41,NA,incomplete,24,shape,1,left,Blue_Triangle_Grid_4.jpg,Purple_Triangle_Chess_2.jpg,Blue_Plus_Dots_3.jpg,left,872.525000013411,true,low,NA,NA,NA,NA,NA,NA,NA,false
2zpK0aYb,385mdvingfsu7ikqnsjzxyjp4abjww,3xxu1swe8q8sljevrhi3mo3txdka0m,2zpK0aYb,2020-0188,2020-05-08,19:04:29,19:18:41,NA,incomplete,25,shape,1,right,Blue_Plus_Dots_4.jpg,Blue_Star_Grid_2.jpg,Green_Plus_Chess_3.jpg,right,941.3300000596792,true,low,NA,NA,NA,NA,NA,NA,NA,false
2zpK0aYb,385mdvingfsu7ikqnsjzxyjp4abjww,3xxu1swe8q8sljevrhi3mo3txdka0m,2zpK0aYb,2020-0188,2020-05-08,19:04:29,19:18:41,NA,incomplete,26,shape,1,right,Blue_Triangle_Stripes_2.jpg,Blue_Plus_Grid_1.jpg,Green_Triangle_Dots_3.jpg,right,832.8499998897314,true,low,NA,NA,NA,NA,NA,NA,NA,false
2zpK0aYb,385mdvingfsu7ikqnsjzxyjp4abjww,3xxu1swe8q8sljevrhi3mo3txdka0m,2zpK0aYb,2020-0188,2020-05-08,19:04:29,19:18:41,NA,incomplete,27,shape,1,right,Blue_Plus_Stripes_1.jpg,Blue_Circle_Grid_4.jpg,Green_Plus_Dots_2.jpg,right,765.0199998170137,true,low,NA,NA,NA,NA,NA,NA,NA,false
2zpK0aYb,385mdvingfsu7ikqnsjzxyjp4abjww,3xxu1swe8q8sljevrhi3mo3txdka0m,2zpK0aYb,2020-0188,2020-05-08,19:04:29,19:18:41,NA,incomplete,28,shape,1,right,Green_Plus_Chess_3.jpg,Green_Circle_Dots_1.jpg,Red_Plus_Stripes_2.jpg,right,651.7749999184161,true,low,NA,NA,NA,NA,NA,NA,NA,false
2zpK0aYb,385mdvingfsu7ikqnsjzxyjp4abjww,3xxu1swe8q8sljevrhi3mo3txdka0m,2zpK0aYb,2020-0188,2020-05-08,19:04:29,19:18:41,NA,incomplete,29,shape,0,left,Green_Circle_Grid_4.jpg,Red_Circle_Stripes_3.jpg,Green_Star_Chess_2.jpg,left,847.940000006929,true,low,NA,NA,NA,NA,NA,NA,NA,false
2zpK0aYb,385mdvingfsu7ikqnsjzxyjp4abjww,3xxu1swe8q8sljevrhi3mo3txdka0m,2zpK0aYb,2020-0188,2020-05-08,19:04:29,19:18:41,NA,incomplete,30,color,1,left,Blue_Star_Grid_3.jpg,Blue_Triangle_Stripes_1.jpg,Green_Star_Dots_4.jpg,right,761.9500001892447,false,low,NA,NA,NA,NA,NA,NA,NA,false
2zpK0aYb,385mdvingfsu7ikqnsjzxyjp4abjww,3xxu1swe8q8sljevrhi3mo3txdka0m,2zpK0aYb,2020-0188,2020-05-08,19:04:29,19:18:41,NA,incomplete,31,color,1,right,Red_Triangle_Grid_4.jpg,Purple_Triangle_Dots_1.jpg,Red_Circle_Chess_2.jpg,left,856.6349998582155,false,low,NA,NA,NA,NA,NA,NA,NA,false
2zpK0aYb,385mdvingfsu7ikqnsjzxyjp4abjww,3xxu1swe8q8sljevrhi3mo3txdka0m,2zpK0aYb,2020-0188,2020-05-08,19:04:29,19:18:41,NA,incomplete,32,color,1,right,Purple_Triangle_Chess_1.jpg,Blue_Triangle_Grid_2.jpg,Purple_Plus_Dots_4.jpg,right,1107.3750001378357,true,low,NA,NA,NA,NA,NA,NA,NA,false
2zpK0aYb,385mdvingfsu7ikqnsjzxyjp4abjww,3xxu1swe8q8sljevrhi3mo3txdka0m,2zpK0aYb,2020-0188,2020-05-08,19:04:29,19:18:41,NA,incomplete,33,color,1,left,Red_Star_Dots_3.jpg,Red_Plus_Chess_1.jpg,Blue_Star_Stripes_4.jpg,left,707.9199999570847,true,low,NA,NA,NA,NA,NA,NA,NA,false
2zpK0aYb,385mdvingfsu7ikqnsjzxyjp4abjww,3xxu1swe8q8sljevrhi3mo3txdka0m,2zpK0aYb,2020-0188,2020-05-08,19:04:29,19:18:41,NA,incomplete,34,color,1,right,Green_Star_Stripes_3.jpg,Red_Star_Dots_2.jpg,Green_Circle_Chess_1.jpg,right,682.6099997851998,true,low,NA,NA,NA,NA,NA,NA,NA,false
2zpK0aYb,385mdvingfsu7ikqnsjzxyjp4abjww,3xxu1swe8q8sljevrhi3mo3txdka0m,2zpK0aYb,2020-0188,2020-05-08,19:04:29,19:18:41,NA,incomplete,35,color,1,right,Purple_Triangle_Stripes_1.jpg,Red_Triangle_Dots_3.jpg,Purple_Plus_Grid_2.jpg,right,710.9100001398474,true,low,NA,NA,NA,NA,NA,NA,NA,false
2zpK0aYb,385mdvingfsu7ikqnsjzxyjp4abjww,3xxu1swe8q8sljevrhi3mo3txdka0m,2zpK0aYb,2020-0188,2020-05-08,19:04:29,19:18:41,NA,incomplete,36,color,1,left,Red_Plus_Dots_3.jpg,Red_Circle_Stripes_1.jpg,Green_Plus_Chess_2.jpg,left,679.7700000461191,true,low,NA,NA,NA,NA,NA,NA,NA,false
2zpK0aYb,385mdvingfsu7ikqnsjzxyjp4abjww,3xxu1swe8q8sljevrhi3mo3txdka0m,2zpK0aYb,2020-0188,2020-05-08,19:04:29,19:18:41,NA,incomplete,37,color,1,right,Green_Circle_Dots_1.jpg,Blue_Circle_Grid_3.jpg,Green_Plus_Stripes_2.jpg,right,570.219999877736,true,low,NA,NA,NA,NA,NA,NA,NA,false
2zpK0aYb,385mdvingfsu7ikqnsjzxyjp4abjww,3xxu1swe8q8sljevrhi3mo3txdka0m,2zpK0aYb,2020-0188,2020-05-08,19:04:29,19:18:41,NA,incomplete,38,color,1,left,Blue_Plus_Dots_1.jpg,Blue_Triangle_Stripes_3.jpg,Purple_Plus_Grid_2.jpg,left,515.974999871105,true,low,NA,NA,NA,NA,NA,NA,NA,false
2zpK0aYb,385mdvingfsu7ikqnsjzxyjp4abjww,3xxu1swe8q8sljevrhi3mo3txdka0m,2zpK0aYb,2020-0188,2020-05-08,19:04:29,19:18:41,NA,incomplete,39,color,0,right,Blue_Star_Dots_2.jpg,Red_Star_Grid_3.jpg,Blue_Triangle_Chess_4.jpg,right,706.4050000626594,true,low,NA,NA,NA,NA,NA,NA,NA,false
2zpK0aYb,385mdvingfsu7ikqnsjzxyjp4abjww,3xxu1swe8q8sljevrhi3mo3txdka0m,2zpK0aYb,2020-0188,2020-05-08,19:04:29,19:18:41,NA,incomplete,40,color,1,right,Purple_Plus_Chess_4.jpg,Blue_Plus_Grid_3.jpg,Purple_Star_Stripes_1.jpg,right,853.2549999654293,true,low,NA,NA,NA,NA,NA,NA,NA,false
2zpK0aYb,385mdvingfsu7ikqnsjzxyjp4abjww,3xxu1swe8q8sljevrhi3mo3txdka0m,2zpK0aYb,2020-0188,2020-05-08,19:04:29,19:18:41,NA,incomplete,41,color,0,left,Blue_Plus_Stripes_3.jpg,Blue_Triangle_Chess_4.jpg,Purple_Plus_Dots_1.jpg,left,604.204999981448,true,low,NA,NA,NA,NA,NA,NA,NA,false
2zpK0aYb,385mdvingfsu7ikqnsjzxyjp4abjww,3xxu1swe8q8sljevrhi3mo3txdka0m,2zpK0aYb,2020-0188,2020-05-08,19:04:29,19:18:41,NA,incomplete,42,color,1,left,Green_Star_Grid_1.jpg,Green_Plus_Chess_2.jpg,Purple_Star_Dots_4.jpg,left,668.8249998260289,true,low,NA,NA,NA,NA,NA,NA,NA,false
2zpK0aYb,385mdvingfsu7ikqnsjzxyjp4abjww,3xxu1swe8q8sljevrhi3mo3txdka0m,2zpK0aYb,2020-0188,2020-05-08,19:04:29,19:18:41,NA,incomplete,43,color,1,right,Blue_Circle_Dots_3.jpg,Purple_Circle_Chess_1.jpg,Blue_Plus_Grid_4.jpg,right,434.9299999885261,true,low,NA,NA,NA,NA,NA,NA,NA,false
2zpK0aYb,385mdvingfsu7ikqnsjzxyjp4abjww,3xxu1swe8q8sljevrhi3mo3txdka0m,2zpK0aYb,2020-0188,2020-05-08,19:04:29,19:18:41,NA,incomplete,44,color,1,right,Red_Star_Grid_1.jpg,Blue_Star_Chess_4.jpg,Red_Circle_Dots_2.jpg,right,747.8249999694526,true,low,NA,NA,NA,NA,NA,NA,NA,false
2zpK0aYb,385mdvingfsu7ikqnsjzxyjp4abjww,3xxu1swe8q8sljevrhi3mo3txdka0m,2zpK0aYb,2020-0188,2020-05-08,19:04:29,19:18:41,NA,incomplete,45,color,1,left,Blue_Plus_Dots_3.jpg,Blue_Star_Grid_1.jpg,Purple_Plus_Stripes_2.jpg,left,610.0499997846782,true,low,NA,NA,NA,NA,NA,NA,NA,false
2zpK0aYb,385mdvingfsu7ikqnsjzxyjp4abjww,3xxu1swe8q8sljevrhi3mo3txdka0m,2zpK0aYb,2020-0188,2020-05-08,19:04:29,19:18:41,NA,incomplete,46,color,1,left,Green_Star_Grid_2.jpg,Green_Circle_Chess_3.jpg,Red_Star_Dots_1.jpg,left,562.2300000395626,true,low,NA,NA,NA,NA,NA,NA,NA,false
2zpK0aYb,385mdvingfsu7ikqnsjzxyjp4abjww,3xxu1swe8q8sljevrhi3mo3txdka0m,2zpK0aYb,2020-0188,2020-05-08,19:04:29,19:18:41,NA,incomplete,47,color,1,right,Purple_Star_Dots_4.jpg,Blue_Star_Grid_3.jpg,Purple_Plus_Stripes_2.jpg,right,500.68000005558133,true,low,NA,NA,NA,NA,NA,NA,NA,false
2zpK0aYb,385mdvingfsu7ikqnsjzxyjp4abjww,3xxu1swe8q8sljevrhi3mo3txdka0m,2zpK0aYb,2020-0188,2020-05-08,19:04:29,19:18:41,NA,incomplete,48,color,1,right,Green_Triangle_Stripes_3.jpg,Purple_Triangle_Chess_1.jpg,Green_Circle_Dots_4.jpg,right,573.6950000282377,true,low,NA,NA,NA,NA,NA,NA,NA,false
2zpK0aYb,385mdvingfsu7ikqnsjzxyjp4abjww,3xxu1swe8q8sljevrhi3mo3txdka0m,2zpK0aYb,2020-0188,2020-05-08,19:04:29,19:18:41,NA,incomplete,49,color,1,right,Blue_Plus_Grid_2.jpg,Purple_Plus_Chess_1.jpg,Blue_Circle_Dots_3.jpg,left,1109.5700000878423,false,low,NA,NA,NA,NA,NA,NA,NA,false
2zpK0aYb,385mdvingfsu7ikqnsjzxyjp4abjww,3xxu1swe8q8sljevrhi3mo3txdka0m,2zpK0aYb,2020-0188,2020-05-08,19:04:29,19:18:41,NA,incomplete,50,color,1,right,Purple_Plus_Dots_1.jpg,Red_Plus_Chess_3.jpg,Purple_Star_Grid_2.jpg,left,1016.6499998886138,false,low,NA,NA,NA,NA,NA,NA,NA,false
2zpK0aYb,385mdvingfsu7ikqnsjzxyjp4abjww,3xxu1swe8q8sljevrhi3mo3txdka0m,2zpK0aYb,2020-0188,2020-05-08,19:04:29,19:18:41,NA,incomplete,51,color,1,left,Green_Plus_Chess_4.jpg,Green_Triangle_Grid_2.jpg,Red_Plus_Stripes_1.jpg,left,737.4950000084937,true,low,NA,NA,NA,NA,NA,NA,NA,false
2zpK0aYb,385mdvingfsu7ikqnsjzxyjp4abjww,3xxu1swe8q8sljevrhi3mo3txdka0m,2zpK0aYb,2020-0188,2020-05-08,19:04:29,19:18:41,NA,incomplete,52,color,1,right,Blue_Star_Grid_3.jpg,Red_Star_Dots_4.jpg,Blue_Circle_Stripes_2.jpg,right,568.764999974519,true,low,NA,NA,NA,NA,NA,NA,NA,false
2zpK0aYb,385mdvingfsu7ikqnsjzxyjp4abjww,3xxu1swe8q8sljevrhi3mo3txdka0m,2zpK0aYb,2020-0188,2020-05-08,19:04:29,19:18:41,NA,incomplete,53,color,1,right,Blue_Plus_Dots_1.jpg,Purple_Plus_Chess_4.jpg,Blue_Triangle_Grid_2.jpg,right,478.8350001908839,true,low,NA,NA,NA,NA,NA,NA,NA,false
2zpK0aYb,385mdvingfsu7ikqnsjzxyjp4abjww,3xxu1swe8q8sljevrhi3mo3txdka0m,2zpK0aYb,2020-0188,2020-05-08,19:04:29,19:18:41,NA,incomplete,54,color,1,right,Red_Star_Dots_3.jpg,Green_Star_Chess_4.jpg,Red_Circle_Stripes_2.jpg,right,630.6600000243634,true,low,NA,NA,NA,NA,NA,NA,NA,false
2zpK0aYb,385mdvingfsu7ikqnsjzxyjp4abjww,3xxu1swe8q8sljevrhi3mo3txdka0m,2zpK0aYb,2020-0188,2020-05-08,19:04:29,19:18:41,NA,incomplete,55,color,1,right,Red_Circle_Chess_2.jpg,Purple_Circle_Grid_3.jpg,Red_Plus_Stripes_4.jpg,right,417.22499998286366,true,low,NA,NA,NA,NA,NA,NA,NA,false
2zpK0aYb,385mdvingfsu7ikqnsjzxyjp4abjww,3xxu1swe8q8sljevrhi3mo3txdka0m,2zpK0aYb,2020-0188,2020-05-08,19:04:29,19:18:41,NA,incomplete,56,color,0,left,Green_Circle_Dots_3.jpg,Green_Triangle_Grid_2.jpg,Red_Circle_Stripes_1.jpg,left,476.98500007390976,true,low,NA,NA,NA,NA,NA,NA,NA,false
2zpK0aYb,385mdvingfsu7ikqnsjzxyjp4abjww,3xxu1swe8q8sljevrhi3mo3txdka0m,2zpK0aYb,2020-0188,2020-05-08,19:04:29,19:18:41,NA,incomplete,57,color,1,right,Blue_Plus_Chess_1.jpg,Red_Plus_Stripes_2.jpg,Blue_Star_Dots_4.jpg,right,454.95499996468425,true,low,NA,NA,NA,NA,NA,NA,NA,false
2zpK0aYb,385mdvingfsu7ikqnsjzxyjp4abjww,3xxu1swe8q8sljevrhi3mo3txdka0m,2zpK0aYb,2020-0188,2020-05-08,19:04:29,19:18:41,NA,incomplete,58,color,1,left,Purple_Star_Stripes_1.jpg,Purple_Circle_Grid_3.jpg,Red_Star_Dots_2.jpg,left,485.61000009067357,true,low,NA,NA,NA,NA,NA,NA,NA,false
2zpK0aYb,385mdvingfsu7ikqnsjzxyjp4abjww,3xxu1swe8q8sljevrhi3mo3txdka0m,2zpK0aYb,2020-0188,2020-05-08,19:04:29,19:18:41,NA,incomplete,59,color,1,right,Purple_Plus_Chess_2.jpg,Green_Plus_Stripes_3.jpg,Purple_Triangle_Grid_4.jpg,right,446.6750000137836,true,low,NA,NA,NA,NA,NA,NA,NA,false
2zpK0aYb,385mdvingfsu7ikqnsjzxyjp4abjww,3xxu1swe8q8sljevrhi3mo3txdka0m,2zpK0aYb,2020-0188,2020-05-08,19:04:29,19:18:41,NA,incomplete,60,shape,0,right,Green_Circle_Grid_4.jpg,Green_Plus_Chess_1.jpg,Purple_Circle_Stripes_2.jpg,left,563.7399998959154,false,low,NA,NA,NA,NA,NA,NA,NA,false
2zpK0aYb,385mdvingfsu7ikqnsjzxyjp4abjww,3xxu1swe8q8sljevrhi3mo3txdka0m,2zpK0aYb,2020-0188,2020-05-08,19:04:29,19:18:41,NA,incomplete,61,shape,1,right,Green_Triangle_Dots_4.jpg,Green_Plus_Stripes_1.jpg,Blue_Triangle_Chess_2.jpg,left,616.6900000534952,false,low,NA,NA,NA,NA,NA,NA,NA,false
2zpK0aYb,385mdvingfsu7ikqnsjzxyjp4abjww,3xxu1swe8q8sljevrhi3mo3txdka0m,2zpK0aYb,2020-0188,2020-05-08,19:04:29,19:18:41,NA,incomplete,62,shape,1,right,Red_Plus_Stripes_2.jpg,Red_Circle_Grid_4.jpg,Blue_Plus_Dots_1.jpg,left,417.420000070706,false,low,NA,NA,NA,NA,NA,NA,NA,false
2zpK0aYb,385mdvingfsu7ikqnsjzxyjp4abjww,3xxu1swe8q8sljevrhi3mo3txdka0m,2zpK0aYb,2020-0188,2020-05-08,19:04:29,19:18:41,NA,incomplete,63,shape,0,left,Purple_Star_Stripes_1.jpg,Red_Star_Grid_3.jpg,Purple_Triangle_Dots_4.jpg,right,585.0700000301003,false,low,NA,NA,NA,NA,NA,NA,NA,false
2zpK0aYb,385mdvingfsu7ikqnsjzxyjp4abjww,3xxu1swe8q8sljevrhi3mo3txdka0m,2zpK0aYb,2020-0188,2020-05-08,19:04:29,19:18:41,NA,incomplete,64,shape,1,left,Blue_Circle_Grid_3.jpg,Red_Circle_Chess_1.jpg,Blue_Triangle_Dots_4.jpg,right,490.3250001370907,false,low,NA,NA,NA,NA,NA,NA,NA,false
2zpK0aYb,385mdvingfsu7ikqnsjzxyjp4abjww,3xxu1swe8q8sljevrhi3mo3txdka0m,2zpK0aYb,2020-0188,2020-05-08,19:04:29,19:18:41,NA,incomplete,65,shape,0,right,Blue_Star_Grid_1.jpg,Blue_Triangle_Dots_3.jpg,Red_Star_Stripes_2.jpg,left,573.1800000648946,false,low,NA,NA,NA,NA,NA,NA,NA,false
2zpK0aYb,385mdvingfsu7ikqnsjzxyjp4abjww,3xxu1swe8q8sljevrhi3mo3txdka0m,2zpK0aYb,2020-0188,2020-05-08,19:04:29,19:18:41,NA,incomplete,66,shape,1,right,Purple_Triangle_Grid_2.jpg,Purple_Plus_Chess_4.jpg,Red_Triangle_Dots_3.jpg,left,709.5449999906123,false,low,NA,NA,NA,NA,NA,NA,NA,false
2zpK0aYb,385mdvingfsu7ikqnsjzxyjp4abjww,3xxu1swe8q8sljevrhi3mo3txdka0m,2zpK0aYb,2020-0188,2020-05-08,19:04:29,19:18:41,NA,incomplete,67,shape,0,left,Blue_Plus_Dots_2.jpg,Red_Plus_Stripes_1.jpg,Blue_Triangle_Grid_4.jpg,left,826.3950000982732,true,low,NA,NA,NA,NA,NA,NA,NA,false
2zpK0aYb,385mdvingfsu7ikqnsjzxyjp4abjww,3xxu1swe8q8sljevrhi3mo3txdka0m,2zpK0aYb,2020-0188,2020-05-08,19:04:29,19:18:41,NA,incomplete,68,shape,1,right,Green_Triangle_Chess_1.jpg,Green_Circle_Stripes_3.jpg,Purple_Triangle_Dots_2.jpg,right,1178.6599999759346,true,low,NA,NA,NA,NA,NA,NA,NA,false
2zpK0aYb,385mdvingfsu7ikqnsjzxyjp4abjww,3xxu1swe8q8sljevrhi3mo3txdka0m,2zpK0aYb,2020-0188,2020-05-08,19:04:29,19:18:41,NA,incomplete,69,shape,1,left,Purple_Circle_Chess_2.jpg,Red_Circle_Grid_1.jpg,Purple_Star_Dots_4.jpg,left,752.7149999514222,true,low,NA,NA,NA,NA,NA,NA,NA,false
2zpK0aYb,385mdvingfsu7ikqnsjzxyjp4abjww,3xxu1swe8q8sljevrhi3mo3txdka0m,2zpK0aYb,2020-0188,2020-05-08,19:04:29,19:18:41,NA,incomplete,70,shape,1,left,Green_Plus_Chess_1.jpg,Red_Plus_Grid_2.jpg,Green_Star_Stripes_3.jpg,left,805.180000141263,true,low,NA,NA,NA,NA,NA,NA,NA,false
2zpK0aYb,385mdvingfsu7ikqnsjzxyjp4abjww,3xxu1swe8q8sljevrhi3mo3txdka0m,2zpK0aYb,2020-0188,2020-05-08,19:04:29,19:18:41,NA,incomplete,71,shape,1,right,Purple_Triangle_Chess_4.jpg,Purple_Plus_Grid_2.jpg,Blue_Triangle_Stripes_3.jpg,right,1124.47000015527,true,low,NA,NA,NA,NA,NA,NA,NA,false
2zpK0aYb,385mdvingfsu7ikqnsjzxyjp4abjww,3xxu1swe8q8sljevrhi3mo3txdka0m,2zpK0aYb,2020-0188,2020-05-08,19:04:29,19:18:41,NA,incomplete,72,shape,1,right,Green_Triangle_Chess_3.jpg,Green_Star_Grid_4.jpg,Red_Triangle_Stripes_2.jpg,right,784.3899999279529,true,low,NA,NA,NA,NA,NA,NA,NA,false
2zpK0aYb,385mdvingfsu7ikqnsjzxyjp4abjww,3xxu1swe8q8sljevrhi3mo3txdka0m,2zpK0aYb,2020-0188,2020-05-08,19:04:29,19:18:41,NA,incomplete,73,shape,1,left,Blue_Star_Grid_3.jpg,Red_Star_Chess_2.jpg,Blue_Plus_Stripes_1.jpg,left,774.4799999054521,true,low,NA,NA,NA,NA,NA,NA,NA,false
2zpK0aYb,385mdvingfsu7ikqnsjzxyjp4abjww,3xxu1swe8q8sljevrhi3mo3txdka0m,2zpK0aYb,2020-0188,2020-05-08,19:04:29,19:18:41,NA,incomplete,74,shape,1,left,Purple_Star_Stripes_2.jpg,Green_Star_Grid_4.jpg,Purple_Plus_Chess_3.jpg,left,1104.0550000034273,true,low,NA,NA,NA,NA,NA,NA,NA,false
2zpK0aYb,385mdvingfsu7ikqnsjzxyjp4abjww,3xxu1swe8q8sljevrhi3mo3txdka0m,2zpK0aYb,2020-0188,2020-05-08,19:04:29,19:18:41,NA,incomplete,75,shape,1,right,Purple_Circle_Dots_1.jpg,Purple_Star_Chess_4.jpg,Blue_Circle_Stripes_3.jpg,right,670.4199998639524,true,low,NA,NA,NA,NA,NA,NA,NA,false
2zpK0aYb,385mdvingfsu7ikqnsjzxyjp4abjww,3xxu1swe8q8sljevrhi3mo3txdka0m,2zpK0aYb,2020-0188,2020-05-08,19:04:29,19:18:41,NA,incomplete,76,shape,1,right,Purple_Circle_Chess_2.jpg,Purple_Triangle_Grid_3.jpg,Green_Circle_Stripes_4.jpg,right,826.7800000030547,true,low,NA,NA,NA,NA,NA,NA,NA,false
2zpK0aYb,385mdvingfsu7ikqnsjzxyjp4abjww,3xxu1swe8q8sljevrhi3mo3txdka0m,2zpK0aYb,2020-0188,2020-05-08,19:04:29,19:18:41,NA,incomplete,77,shape,1,left,Purple_Circle_Grid_3.jpg,Blue_Circle_Dots_2.jpg,Purple_Triangle_Stripes_1.jpg,left,634.7199999727309,true,low,NA,NA,NA,NA,NA,NA,NA,false
2zpK0aYb,385mdvingfsu7ikqnsjzxyjp4abjww,3xxu1swe8q8sljevrhi3mo3txdka0m,2zpK0aYb,2020-0188,2020-05-08,19:04:29,19:18:41,NA,incomplete,78,shape,0,right,Red_Circle_Grid_4.jpg,Red_Triangle_Stripes_2.jpg,Blue_Circle_Dots_1.jpg,right,606.4949999563396,true,low,NA,NA,NA,NA,NA,NA,NA,false
2zpK0aYb,385mdvingfsu7ikqnsjzxyjp4abjww,3xxu1swe8q8sljevrhi3mo3txdka0m,2zpK0aYb,2020-0188,2020-05-08,19:04:29,19:18:41,NA,incomplete,79,shape,1,right,Red_Star_Stripes_3.jpg,Red_Circle_Dots_2.jpg,Blue_Star_Grid_1.jpg,left,671.1999999824911,false,low,NA,NA,NA,NA,NA,NA,NA,false
2zpK0aYb,385mdvingfsu7ikqnsjzxyjp4abjww,3xxu1swe8q8sljevrhi3mo3txdka0m,2zpK0aYb,2020-0188,2020-05-08,19:04:29,19:18:41,NA,incomplete,80,shape,0,left,Blue_Star_Stripes_1.jpg,Green_Star_Dots_2.jpg,Blue_Circle_Grid_3.jpg,left,787.1900000609457,true,low,NA,NA,NA,NA,NA,NA,NA,false
2zpK0aYb,385mdvingfsu7ikqnsjzxyjp4abjww,3xxu1swe8q8sljevrhi3mo3txdka0m,2zpK0aYb,2020-0188,2020-05-08,19:04:29,19:18:41,NA,incomplete,81,shape,1,left,Red_Plus_Grid_1.jpg,Green_Plus_Chess_3.jpg,Red_Star_Dots_2.jpg,left,882.7599999494851,true,low,NA,NA,NA,NA,NA,NA,NA,false
2zpK0aYb,385mdvingfsu7ikqnsjzxyjp4abjww,3xxu1swe8q8sljevrhi3mo3txdka0m,2zpK0aYb,2020-0188,2020-05-08,19:04:29,19:18:41,NA,incomplete,82,shape,1,left,Blue_Star_Grid_3.jpg,Purple_Star_Stripes_1.jpg,Blue_Plus_Chess_4.jpg,left,844.9899998959154,true,low,NA,NA,NA,NA,NA,NA,NA,false
2zpK0aYb,385mdvingfsu7ikqnsjzxyjp4abjww,3xxu1swe8q8sljevrhi3mo3txdka0m,2zpK0aYb,2020-0188,2020-05-08,19:04:29,19:18:41,NA,incomplete,83,shape,1,right,Red_Plus_Dots_3.jpg,Red_Circle_Stripes_4.jpg,Blue_Plus_Chess_1.jpg,right,679.994999896735,true,low,NA,NA,NA,NA,NA,NA,NA,false
2zpK0aYb,385mdvingfsu7ikqnsjzxyjp4abjww,3xxu1swe8q8sljevrhi3mo3txdka0m,2zpK0aYb,2020-0188,2020-05-08,19:04:29,19:18:41,NA,incomplete,84,shape,0,right,Green_Star_Stripes_4.jpg,Green_Triangle_Chess_2.jpg,Blue_Star_Dots_3.jpg,right,1018.6100001446903,true,low,NA,NA,NA,NA,NA,NA,NA,false
2zpK0aYb,385mdvingfsu7ikqnsjzxyjp4abjww,3xxu1swe8q8sljevrhi3mo3txdka0m,2zpK0aYb,2020-0188,2020-05-08,19:04:29,19:18:41,NA,incomplete,85,shape,0,right,Red_Triangle_Grid_2.jpg,Red_Star_Dots_3.jpg,Purple_Triangle_Stripes_1.jpg,right,732.2849999181926,true,low,NA,NA,NA,NA,NA,NA,NA,false
2zpK0aYb,385mdvingfsu7ikqnsjzxyjp4abjww,3xxu1swe8q8sljevrhi3mo3txdka0m,2zpK0aYb,2020-0188,2020-05-08,19:04:29,19:18:41,NA,incomplete,86,shape,0,left,Blue_Plus_Grid_1.jpg,Green_Plus_Dots_4.jpg,Blue_Circle_Chess_3.jpg,right,710.8500001486391,false,low,NA,NA,NA,NA,NA,NA,NA,false
2zpK0aYb,385mdvingfsu7ikqnsjzxyjp4abjww,3xxu1swe8q8sljevrhi3mo3txdka0m,2zpK0aYb,2020-0188,2020-05-08,19:04:29,19:18:41,NA,incomplete,87,shape,1,right,Blue_Star_Dots_4.jpg,Blue_Circle_Stripes_3.jpg,Red_Star_Chess_1.jpg,left,635.0849999580532,false,low,NA,NA,NA,NA,NA,NA,NA,false
2zpK0aYb,385mdvingfsu7ikqnsjzxyjp4abjww,3xxu1swe8q8sljevrhi3mo3txdka0m,2zpK0aYb,2020-0188,2020-05-08,19:04:29,19:18:41,NA,incomplete,88,shape,1,left,Green_Triangle_Dots_4.jpg,Blue_Triangle_Stripes_3.jpg,Green_Star_Chess_2.jpg,right,1558.760000159964,false,low,NA,NA,NA,NA,NA,NA,NA,false
2zpK0aYb,385mdvingfsu7ikqnsjzxyjp4abjww,3xxu1swe8q8sljevrhi3mo3txdka0m,2zpK0aYb,2020-0188,2020-05-08,19:04:29,19:18:41,NA,incomplete,89,shape,1,right,Purple_Star_Chess_3.jpg,Purple_Triangle_Grid_4.jpg,Red_Star_Stripes_2.jpg,right,869.7849998716265,true,low,NA,NA,NA,NA,NA,NA,NA,false
2zpK0aYb,385mdvingfsu7ikqnsjzxyjp4abjww,3xxu1swe8q8sljevrhi3mo3txdka0m,2zpK0aYb,2020-0188,2020-05-08,19:04:29,19:18:41,NA,incomplete,90,color,1,left,Red_Star_Grid_4.jpg,Red_Plus_Dots_1.jpg,Purple_Star_Chess_3.jpg,right,689.6399999968708,false,low,NA,NA,NA,NA,NA,NA,NA,false
2zpK0aYb,385mdvingfsu7ikqnsjzxyjp4abjww,3xxu1swe8q8sljevrhi3mo3txdka0m,2zpK0aYb,2020-0188,2020-05-08,19:04:29,19:18:41,NA,incomplete,91,color,1,right,Purple_Circle_Stripes_4.jpg,Green_Circle_Grid_2.jpg,Purple_Triangle_Dots_3.jpg,left,693.4849999379367,false,low,NA,NA,NA,NA,NA,NA,NA,false
2zpK0aYb,385mdvingfsu7ikqnsjzxyjp4abjww,3xxu1swe8q8sljevrhi3mo3txdka0m,2zpK0aYb,2020-0188,2020-05-08,19:04:29,19:18:41,NA,incomplete,92,color,0,right,Red_Triangle_Chess_4.jpg,Purple_Triangle_Grid_3.jpg,Red_Plus_Dots_1.jpg,left,914.4500000402331,false,low,NA,NA,NA,NA,NA,NA,NA,false
2zpK0aYb,385mdvingfsu7ikqnsjzxyjp4abjww,3xxu1swe8q8sljevrhi3mo3txdka0m,2zpK0aYb,2020-0188,2020-05-08,19:04:29,19:18:41,NA,incomplete,93,color,1,left,Red_Circle_Grid_4.jpg,Red_Plus_Stripes_1.jpg,Purple_Circle_Dots_3.jpg,right,639.655000064522,false,low,NA,NA,NA,NA,NA,NA,NA,false
2zpK0aYb,385mdvingfsu7ikqnsjzxyjp4abjww,3xxu1swe8q8sljevrhi3mo3txdka0m,2zpK0aYb,2020-0188,2020-05-08,19:04:29,19:18:41,NA,incomplete,94,color,1,left,Purple_Triangle_Chess_3.jpg,Purple_Star_Dots_2.jpg,Blue_Triangle_Stripes_4.jpg,left,878.8600000552833,true,low,NA,NA,NA,NA,NA,NA,NA,false
2zpK0aYb,385mdvingfsu7ikqnsjzxyjp4abjww,3xxu1swe8q8sljevrhi3mo3txdka0m,2zpK0aYb,2020-0188,2020-05-08,19:04:29,19:18:41,NA,incomplete,95,color,1,right,Red_Plus_Grid_3.jpg,Blue_Plus_Dots_1.jpg,Red_Star_Stripes_2.jpg,right,446.7599999625236,true,low,NA,NA,NA,NA,NA,NA,NA,false
2zpK0aYb,385mdvingfsu7ikqnsjzxyjp4abjww,3xxu1swe8q8sljevrhi3mo3txdka0m,2zpK0aYb,2020-0188,2020-05-08,19:04:29,19:18:41,NA,incomplete,96,color,1,left,Green_Star_Stripes_4.jpg,Green_Triangle_Dots_1.jpg,Purple_Star_Grid_2.jpg,left,504.5450001489371,true,low,NA,NA,NA,NA,NA,NA,NA,false
2zpK0aYb,385mdvingfsu7ikqnsjzxyjp4abjww,3xxu1swe8q8sljevrhi3mo3txdka0m,2zpK0aYb,2020-0188,2020-05-08,19:04:29,19:18:41,NA,incomplete,97,color,1,left,Red_Circle_Stripes_1.jpg,Red_Star_Chess_2.jpg,Green_Circle_Dots_4.jpg,left,665.1300000958145,true,low,NA,NA,NA,NA,NA,NA,NA,false
2zpK0aYb,385mdvingfsu7ikqnsjzxyjp4abjww,3xxu1swe8q8sljevrhi3mo3txdka0m,2zpK0aYb,2020-0188,2020-05-08,19:04:29,19:18:41,NA,incomplete,98,color,1,left,Red_Star_Grid_4.jpg,Red_Triangle_Dots_3.jpg,Purple_Star_Stripes_2.jpg,left,559.8849998787045,true,low,NA,NA,NA,NA,NA,NA,NA,false
2zpK0aYb,385mdvingfsu7ikqnsjzxyjp4abjww,3xxu1swe8q8sljevrhi3mo3txdka0m,2zpK0aYb,2020-0188,2020-05-08,19:04:29,19:18:41,NA,incomplete,99,color,1,left,Blue_Star_Grid_2.jpg,Blue_Triangle_Chess_4.jpg,Purple_Star_Dots_1.jpg,left,470.53000004962087,true,low,NA,NA,NA,NA,NA,NA,NA,false
2zpK0aYb,385mdvingfsu7ikqnsjzxyjp4abjww,3xxu1swe8q8sljevrhi3mo3txdka0m,2zpK0aYb,2020-0188,2020-05-08,19:04:29,19:18:41,NA,incomplete,100,color,1,right,Green_Circle_Chess_2.jpg,Red_Circle_Stripes_4.jpg,Green_Star_Dots_1.jpg,left,790.3249999508262,false,low,NA,NA,NA,NA,NA,NA,NA,false
2zpK0aYb,385mdvingfsu7ikqnsjzxyjp4abjww,3xxu1swe8q8sljevrhi3mo3txdka0m,2zpK0aYb,2020-0188,2020-05-08,19:04:29,19:18:41,NA,incomplete,101,color,1,right,Purple_Triangle_Chess_4.jpg,Green_Triangle_Stripes_2.jpg,Purple_Plus_Dots_3.jpg,right,781.9349998608232,true,low,NA,NA,NA,NA,NA,NA,NA,false
2zpK0aYb,385mdvingfsu7ikqnsjzxyjp4abjww,3xxu1swe8q8sljevrhi3mo3txdka0m,2zpK0aYb,2020-0188,2020-05-08,19:04:29,19:18:41,NA,incomplete,102,color,0,right,Purple_Circle_Chess_3.jpg,Red_Circle_Grid_4.jpg,Purple_Star_Stripes_2.jpg,right,928.1850000843406,true,low,NA,NA,NA,NA,NA,NA,NA,false
2zpK0aYb,385mdvingfsu7ikqnsjzxyjp4abjww,3xxu1swe8q8sljevrhi3mo3txdka0m,2zpK0aYb,2020-0188,2020-05-08,19:04:29,19:18:41,NA,incomplete,103,color,0,left,Red_Plus_Grid_1.jpg,Red_Star_Chess_4.jpg,Blue_Plus_Stripes_2.jpg,left,452.2949999663979,true,low,NA,NA,NA,NA,NA,NA,NA,false
2zpK0aYb,385mdvingfsu7ikqnsjzxyjp4abjww,3xxu1swe8q8sljevrhi3mo3txdka0m,2zpK0aYb,2020-0188,2020-05-08,19:04:29,19:18:41,NA,incomplete,104,color,1,left,Blue_Star_Chess_1.jpg,Blue_Triangle_Stripes_3.jpg,Red_Star_Grid_2.jpg,left,646.754999877885,true,low,NA,NA,NA,NA,NA,NA,NA,false
2zpK0aYb,385mdvingfsu7ikqnsjzxyjp4abjww,3xxu1swe8q8sljevrhi3mo3txdka0m,2zpK0aYb,2020-0188,2020-05-08,19:04:29,19:18:41,NA,incomplete,105,color,1,left,Blue_Plus_Chess_4.jpg,Blue_Circle_Dots_3.jpg,Green_Plus_Grid_1.jpg,left,811.9399999268353,true,low,NA,NA,NA,NA,NA,NA,NA,false
2zpK0aYb,385mdvingfsu7ikqnsjzxyjp4abjww,3xxu1swe8q8sljevrhi3mo3txdka0m,2zpK0aYb,2020-0188,2020-05-08,19:04:29,19:18:41,NA,incomplete,106,color,1,left,Blue_Triangle_Grid_3.jpg,Blue_Star_Dots_1.jpg,Purple_Triangle_Chess_4.jpg,left,1163.0450000520796,true,low,NA,NA,NA,NA,NA,NA,NA,false
2zpK0aYb,385mdvingfsu7ikqnsjzxyjp4abjww,3xxu1swe8q8sljevrhi3mo3txdka0m,2zpK0aYb,2020-0188,2020-05-08,19:04:29,19:18:41,NA,incomplete,107,color,1,right,Purple_Circle_Chess_2.jpg,Green_Circle_Stripes_1.jpg,Purple_Plus_Dots_3.jpg,right,525.910000083968,true,low,NA,NA,NA,NA,NA,NA,NA,false
2zpK0aYb,385mdvingfsu7ikqnsjzxyjp4abjww,3xxu1swe8q8sljevrhi3mo3txdka0m,2zpK0aYb,2020-0188,2020-05-08,19:04:29,19:18:41,NA,incomplete,108,color,1,right,Green_Plus_Dots_1.jpg,Purple_Plus_Grid_3.jpg,Green_Star_Chess_2.jpg,left,817.7949998062104,false,low,NA,NA,NA,NA,NA,NA,NA,false
2zpK0aYb,385mdvingfsu7ikqnsjzxyjp4abjww,3xxu1swe8q8sljevrhi3mo3txdka0m,2zpK0aYb,2020-0188,2020-05-08,19:04:29,19:18:41,NA,incomplete,109,color,1,left,Green_Plus_Stripes_2.jpg,Green_Circle_Grid_1.jpg,Purple_Plus_Dots_4.jpg,left,1285.9549999702722,true,low,NA,NA,NA,NA,NA,NA,NA,false
2zpK0aYb,385mdvingfsu7ikqnsjzxyjp4abjww,3xxu1swe8q8sljevrhi3mo3txdka0m,2zpK0aYb,2020-0188,2020-05-08,19:04:29,19:18:41,NA,incomplete,110,color,1,left,Green_Star_Stripes_4.jpg,Green_Triangle_Chess_3.jpg,Purple_Star_Grid_2.jpg,left,573.2899999711663,true,low,NA,NA,NA,NA,NA,NA,NA,false
2zpK0aYb,385mdvingfsu7ikqnsjzxyjp4abjww,3xxu1swe8q8sljevrhi3mo3txdka0m,2zpK0aYb,2020-0188,2020-05-08,19:04:29,19:18:41,NA,incomplete,111,color,1,right,Red_Star_Grid_1.jpg,Green_Star_Stripes_2.jpg,Red_Circle_Dots_3.jpg,right,613.405000185594,true,low,NA,NA,NA,NA,NA,NA,NA,false
2zpK0aYb,385mdvingfsu7ikqnsjzxyjp4abjww,3xxu1swe8q8sljevrhi3mo3txdka0m,2zpK0aYb,2020-0188,2020-05-08,19:04:29,19:18:41,NA,incomplete,112,color,1,right,Purple_Triangle_Dots_1.jpg,Green_Triangle_Stripes_2.jpg,Purple_Circle_Chess_3.jpg,right,718.1450000498444,true,low,NA,NA,NA,NA,NA,NA,NA,false
2zpK0aYb,385mdvingfsu7ikqnsjzxyjp4abjww,3xxu1swe8q8sljevrhi3mo3txdka0m,2zpK0aYb,2020-0188,2020-05-08,19:04:29,19:18:41,NA,incomplete,113,color,0,left,Red_Triangle_Stripes_2.jpg,Red_Circle_Grid_1.jpg,Purple_Triangle_Chess_4.jpg,left,494.5099998731166,true,low,NA,NA,NA,NA,NA,NA,NA,false
2zpK0aYb,385mdvingfsu7ikqnsjzxyjp4abjww,3xxu1swe8q8sljevrhi3mo3txdka0m,2zpK0aYb,2020-0188,2020-05-08,19:04:29,19:18:41,NA,incomplete,114,color,1,right,Red_Circle_Chess_4.jpg,Blue_Circle_Dots_3.jpg,Red_Star_Stripes_1.jpg,right,647.6349998265505,true,low,NA,NA,NA,NA,NA,NA,NA,false
2zpK0aYb,385mdvingfsu7ikqnsjzxyjp4abjww,3xxu1swe8q8sljevrhi3mo3txdka0m,2zpK0aYb,2020-0188,2020-05-08,19:04:29,19:18:41,NA,incomplete,115,color,0,left,Purple_Triangle_Chess_3.jpg,Purple_Circle_Grid_1.jpg,Green_Triangle_Stripes_4.jpg,left,464.92500021122396,true,low,NA,NA,NA,NA,NA,NA,NA,false
2zpK0aYb,385mdvingfsu7ikqnsjzxyjp4abjww,3xxu1swe8q8sljevrhi3mo3txdka0m,2zpK0aYb,2020-0188,2020-05-08,19:04:29,19:18:41,NA,incomplete,116,color,1,right,Purple_Circle_Chess_2.jpg,Blue_Circle_Grid_3.jpg,Purple_Plus_Dots_4.jpg,right,454.03000013902783,true,low,NA,NA,NA,NA,NA,NA,NA,false
2zpK0aYb,385mdvingfsu7ikqnsjzxyjp4abjww,3xxu1swe8q8sljevrhi3mo3txdka0m,2zpK0aYb,2020-0188,2020-05-08,19:04:29,19:18:41,NA,incomplete,117,color,1,left,Purple_Star_Grid_1.jpg,Purple_Triangle_Dots_4.jpg,Red_Star_Chess_3.jpg,left,448.5049999784678,true,low,NA,NA,NA,NA,NA,NA,NA,false
2zpK0aYb,385mdvingfsu7ikqnsjzxyjp4abjww,3xxu1swe8q8sljevrhi3mo3txdka0m,2zpK0aYb,2020-0188,2020-05-08,19:04:29,19:18:41,NA,incomplete,118,color,1,left,Blue_Star_Grid_1.jpg,Blue_Plus_Chess_4.jpg,Purple_Star_Dots_3.jpg,right,835.8350000344217,false,low,NA,NA,NA,NA,NA,NA,NA,false
2zpK0aYb,385mdvingfsu7ikqnsjzxyjp4abjww,3xxu1swe8q8sljevrhi3mo3txdka0m,2zpK0aYb,2020-0188,2020-05-08,19:04:29,19:18:41,NA,incomplete,119,color,1,right,Red_Circle_Grid_1.jpg,Blue_Circle_Dots_4.jpg,Red_Star_Chess_3.jpg,right,695.2150000724941,true,low,NA,NA,NA,NA,NA,NA,NA,false
2zpK0aYb,385mdvingfsu7ikqnsjzxyjp4abjww,3xxu1swe8q8sljevrhi3mo3txdka0m,2zpK0aYb,2020-0188,2020-05-08,19:04:29,19:18:41,NA,incomplete,120,shape,1,left,Purple_Plus_Stripes_4.jpg,Blue_Plus_Dots_1.jpg,Purple_Triangle_Grid_3.jpg,right,662.1550000272691,false,low,NA,NA,NA,NA,NA,NA,NA,false
2zpK0aYb,385mdvingfsu7ikqnsjzxyjp4abjww,3xxu1swe8q8sljevrhi3mo3txdka0m,2zpK0aYb,2020-0188,2020-05-08,19:04:29,19:18:41,NA,incomplete,121,shape,1,left,Purple_Triangle_Stripes_3.jpg,Blue_Triangle_Chess_1.jpg,Purple_Star_Grid_4.jpg,right,455.335000064224,false,low,NA,NA,NA,NA,NA,NA,NA,false
2zpK0aYb,385mdvingfsu7ikqnsjzxyjp4abjww,3xxu1swe8q8sljevrhi3mo3txdka0m,2zpK0aYb,2020-0188,2020-05-08,19:04:29,19:18:41,NA,incomplete,122,shape,1,left,Green_Circle_Grid_3.jpg,Blue_Circle_Chess_4.jpg,Green_Triangle_Stripes_2.jpg,left,1806.150000076741,true,low,NA,NA,NA,NA,NA,NA,NA,false
2zpK0aYb,385mdvingfsu7ikqnsjzxyjp4abjww,3xxu1swe8q8sljevrhi3mo3txdka0m,2zpK0aYb,2020-0188,2020-05-08,19:04:29,19:18:41,NA,incomplete,123,shape,1,right,Purple_Star_Stripes_1.jpg,Purple_Plus_Chess_2.jpg,Green_Star_Dots_3.jpg,left,1447.1699998248369,false,low,NA,NA,NA,NA,NA,NA,NA,false
2zpK0aYb,385mdvingfsu7ikqnsjzxyjp4abjww,3xxu1swe8q8sljevrhi3mo3txdka0m,2zpK0aYb,2020-0188,2020-05-08,19:04:29,19:18:41,NA,incomplete,124,shape,1,left,Red_Circle_Dots_1.jpg,Green_Circle_Stripes_3.jpg,Red_Triangle_Grid_2.jpg,right,680.5950000416487,false,low,NA,NA,NA,NA,NA,NA,NA,false
2zpK0aYb,385mdvingfsu7ikqnsjzxyjp4abjww,3xxu1swe8q8sljevrhi3mo3txdka0m,2zpK0aYb,2020-0188,2020-05-08,19:04:29,19:18:41,NA,incomplete,125,shape,1,right,Blue_Triangle_Stripes_1.jpg,Blue_Circle_Dots_4.jpg,Red_Triangle_Grid_2.jpg,right,1084.8650000989437,true,low,NA,NA,NA,NA,NA,NA,NA,false
2zpK0aYb,385mdvingfsu7ikqnsjzxyjp4abjww,3xxu1swe8q8sljevrhi3mo3txdka0m,2zpK0aYb,2020-0188,2020-05-08,19:04:29,19:18:41,NA,incomplete,126,shape,1,left,Purple_Star_Stripes_1.jpg,Green_Star_Grid_4.jpg,Purple_Circle_Dots_3.jpg,right,1166.7950002010912,false,low,NA,NA,NA,NA,NA,NA,NA,false
2zpK0aYb,385mdvingfsu7ikqnsjzxyjp4abjww,3xxu1swe8q8sljevrhi3mo3txdka0m,2zpK0aYb,2020-0188,2020-05-08,19:04:29,19:18:41,NA,incomplete,127,shape,1,left,Purple_Plus_Stripes_1.jpg,Red_Plus_Dots_4.jpg,Purple_Triangle_Chess_3.jpg,left,836.5550001617521,true,low,NA,NA,NA,NA,NA,NA,NA,false
2zpK0aYb,385mdvingfsu7ikqnsjzxyjp4abjww,3xxu1swe8q8sljevrhi3mo3txdka0m,2zpK0aYb,2020-0188,2020-05-08,19:04:29,19:18:41,NA,incomplete,128,shape,1,left,Green_Triangle_Dots_4.jpg,Red_Triangle_Stripes_3.jpg,Green_Star_Grid_2.jpg,left,700.3750000149012,true,low,NA,NA,NA,NA,NA,NA,NA,false
2zpK0aYb,385mdvingfsu7ikqnsjzxyjp4abjww,3xxu1swe8q8sljevrhi3mo3txdka0m,2zpK0aYb,2020-0188,2020-05-08,19:04:29,19:18:41,NA,incomplete,129,shape,1,right,Purple_Triangle_Grid_2.jpg,Purple_Plus_Dots_3.jpg,Red_Triangle_Chess_4.jpg,right,622.5449999328703,true,low,NA,NA,NA,NA,NA,NA,NA,false
2zpK0aYb,385mdvingfsu7ikqnsjzxyjp4abjww,3xxu1swe8q8sljevrhi3mo3txdka0m,2zpK0aYb,2020-0188,2020-05-08,19:04:29,19:18:41,NA,incomplete,130,shape,1,right,Blue_Circle_Stripes_1.jpg,Blue_Triangle_Chess_4.jpg,Green_Circle_Dots_3.jpg,left,652.7099998202175,false,low,NA,NA,NA,NA,NA,NA,NA,false
2zpK0aYb,385mdvingfsu7ikqnsjzxyjp4abjww,3xxu1swe8q8sljevrhi3mo3txdka0m,2zpK0aYb,2020-0188,2020-05-08,19:04:29,19:18:41,NA,incomplete,131,shape,1,right,Purple_Triangle_Grid_3.jpg,Purple_Star_Dots_2.jpg,Blue_Triangle_Chess_4.jpg,right,1759.665000019595,true,low,NA,NA,NA,NA,NA,NA,NA,false
2zpK0aYb,385mdvingfsu7ikqnsjzxyjp4abjww,3xxu1swe8q8sljevrhi3mo3txdka0m,2zpK0aYb,2020-0188,2020-05-08,19:04:29,19:18:41,NA,incomplete,132,shape,1,right,Blue_Triangle_Grid_1.jpg,Blue_Plus_Dots_4.jpg,Red_Triangle_Stripes_2.jpg,right,794.8249999899417,true,low,NA,NA,NA,NA,NA,NA,NA,false
2zpK0aYb,385mdvingfsu7ikqnsjzxyjp4abjww,3xxu1swe8q8sljevrhi3mo3txdka0m,2zpK0aYb,2020-0188,2020-05-08,19:04:29,19:18:41,NA,incomplete,133,shape,1,left,Green_Triangle_Chess_2.jpg,Purple_Triangle_Dots_1.jpg,Green_Star_Stripes_3.jpg,left,628.3799998927861,true,low,NA,NA,NA,NA,NA,NA,NA,false
2zpK0aYb,385mdvingfsu7ikqnsjzxyjp4abjww,3xxu1swe8q8sljevrhi3mo3txdka0m,2zpK0aYb,2020-0188,2020-05-08,19:04:29,19:18:41,NA,incomplete,134,shape,1,left,Blue_Triangle_Stripes_1.jpg,Purple_Triangle_Grid_4.jpg,Blue_Plus_Chess_3.jpg,left,765.8999999985099,true,low,NA,NA,NA,NA,NA,NA,NA,false
2zpK0aYb,385mdvingfsu7ikqnsjzxyjp4abjww,3xxu1swe8q8sljevrhi3mo3txdka0m,2zpK0aYb,2020-0188,2020-05-08,19:04:29,19:18:41,NA,incomplete,135,shape,1,left,Green_Plus_Chess_1.jpg,Purple_Plus_Grid_2.jpg,Green_Triangle_Stripes_3.jpg,left,755.1100000273436,true,low,NA,NA,NA,NA,NA,NA,NA,false
2zpK0aYb,385mdvingfsu7ikqnsjzxyjp4abjww,3xxu1swe8q8sljevrhi3mo3txdka0m,2zpK0aYb,2020-0188,2020-05-08,19:04:29,19:18:41,NA,incomplete,136,shape,0,left,Green_Plus_Dots_2.jpg,Purple_Plus_Stripes_4.jpg,Green_Circle_Chess_1.jpg,left,521.7150000389665,true,low,NA,NA,NA,NA,NA,NA,NA,false
2zpK0aYb,385mdvingfsu7ikqnsjzxyjp4abjww,3xxu1swe8q8sljevrhi3mo3txdka0m,2zpK0aYb,2020-0188,2020-05-08,19:04:29,19:18:41,NA,incomplete,137,shape,1,left,Purple_Circle_Dots_2.jpg,Red_Circle_Stripes_1.jpg,Purple_Plus_Grid_3.jpg,left,693.7250001356006,true,low,NA,NA,NA,NA,NA,NA,NA,false
2zpK0aYb,385mdvingfsu7ikqnsjzxyjp4abjww,3xxu1swe8q8sljevrhi3mo3txdka0m,2zpK0aYb,2020-0188,2020-05-08,19:04:29,19:18:41,NA,incomplete,138,shape,1,left,Blue_Star_Chess_2.jpg,Red_Star_Grid_3.jpg,Blue_Triangle_Dots_1.jpg,left,703.1499999575317,true,low,NA,NA,NA,NA,NA,NA,NA,false
2zpK0aYb,385mdvingfsu7ikqnsjzxyjp4abjww,3xxu1swe8q8sljevrhi3mo3txdka0m,2zpK0aYb,2020-0188,2020-05-08,19:04:29,19:18:41,NA,incomplete,139,shape,1,left,Green_Circle_Chess_2.jpg,Blue_Circle_Dots_1.jpg,Green_Star_Grid_4.jpg,left,905.5399999488145,true,low,NA,NA,NA,NA,NA,NA,NA,false
2zpK0aYb,385mdvingfsu7ikqnsjzxyjp4abjww,3xxu1swe8q8sljevrhi3mo3txdka0m,2zpK0aYb,2020-0188,2020-05-08,19:04:29,19:18:41,NA,incomplete,140,color,1,right,Purple_Circle_Stripes_2.jpg,Red_Circle_Grid_4.jpg,Purple_Star_Dots_3.jpg,left,616.8599999509752,false,low,NA,NA,NA,NA,NA,NA,NA,false
2zpK0aYb,385mdvingfsu7ikqnsjzxyjp4abjww,3xxu1swe8q8sljevrhi3mo3txdka0m,2zpK0aYb,2020-0188,2020-05-08,19:04:29,19:18:41,NA,incomplete,141,color,1,left,Red_Plus_Grid_4.jpg,Red_Triangle_Dots_2.jpg,Green_Plus_Chess_3.jpg,right,612.6749999821186,false,low,NA,NA,NA,NA,NA,NA,NA,false
2zpK0aYb,385mdvingfsu7ikqnsjzxyjp4abjww,3xxu1swe8q8sljevrhi3mo3txdka0m,2zpK0aYb,2020-0188,2020-05-08,19:04:29,19:18:41,NA,incomplete,142,color,0,right,Red_Triangle_Chess_3.jpg,Purple_Triangle_Dots_2.jpg,Red_Star_Grid_1.jpg,left,513.6249999050051,false,low,NA,NA,NA,NA,NA,NA,NA,false
2zpK0aYb,385mdvingfsu7ikqnsjzxyjp4abjww,3xxu1swe8q8sljevrhi3mo3txdka0m,2zpK0aYb,2020-0188,2020-05-08,19:04:29,19:18:41,NA,incomplete,143,color,1,left,Blue_Triangle_Stripes_4.jpg,Blue_Circle_Dots_1.jpg,Red_Triangle_Chess_3.jpg,right,734.3399999663234,false,low,NA,NA,NA,NA,NA,NA,NA,false
2zpK0aYb,385mdvingfsu7ikqnsjzxyjp4abjww,3xxu1swe8q8sljevrhi3mo3txdka0m,2zpK0aYb,2020-0188,2020-05-08,19:04:29,19:18:41,NA,incomplete,144,color,1,right,Purple_Plus_Stripes_2.jpg,Red_Plus_Chess_3.jpg,Purple_Star_Dots_4.jpg,left,471.2799999397248,false,low,NA,NA,NA,NA,NA,NA,NA,false
2zpK0aYb,385mdvingfsu7ikqnsjzxyjp4abjww,3xxu1swe8q8sljevrhi3mo3txdka0m,2zpK0aYb,2020-0188,2020-05-08,19:04:29,19:18:41,NA,incomplete,145,color,1,left,Red_Star_Dots_3.jpg,Red_Triangle_Grid_1.jpg,Purple_Star_Stripes_4.jpg,left,983.890000032261,true,low,NA,NA,NA,NA,NA,NA,NA,false
2zpK0aYb,385mdvingfsu7ikqnsjzxyjp4abjww,3xxu1swe8q8sljevrhi3mo3txdka0m,2zpK0aYb,2020-0188,2020-05-08,19:04:29,19:18:41,NA,incomplete,146,color,0,right,Red_Plus_Chess_4.jpg,Green_Plus_Grid_2.jpg,Red_Circle_Dots_1.jpg,right,1329.189999960363,true,low,NA,NA,NA,NA,NA,NA,NA,false
2zpK0aYb,385mdvingfsu7ikqnsjzxyjp4abjww,3xxu1swe8q8sljevrhi3mo3txdka0m,2zpK0aYb,2020-0188,2020-05-08,19:04:29,19:18:41,NA,incomplete,147,color,1,right,Green_Circle_Dots_2.jpg,Red_Circle_Stripes_3.jpg,Green_Star_Chess_1.jpg,right,785.3350001387298,true,low,NA,NA,NA,NA,NA,NA,NA,false
2zpK0aYb,385mdvingfsu7ikqnsjzxyjp4abjww,3xxu1swe8q8sljevrhi3mo3txdka0m,2zpK0aYb,2020-0188,2020-05-08,19:04:29,19:18:41,NA,incomplete,148,color,1,left,Blue_Star_Grid_1.jpg,Blue_Circle_Stripes_3.jpg,Purple_Star_Dots_2.jpg,left,526.7250000033528,true,low,NA,NA,NA,NA,NA,NA,NA,false
2zpK0aYb,385mdvingfsu7ikqnsjzxyjp4abjww,3xxu1swe8q8sljevrhi3mo3txdka0m,2zpK0aYb,2020-0188,2020-05-08,19:04:29,19:18:41,NA,incomplete,149,color,1,right,Green_Circle_Stripes_1.jpg,Blue_Circle_Chess_4.jpg,Green_Triangle_Dots_3.jpg,right,668.959999922663,true,low,NA,NA,NA,NA,NA,NA,NA,false
2zpK0aYb,385mdvingfsu7ikqnsjzxyjp4abjww,3xxu1swe8q8sljevrhi3mo3txdka0m,2zpK0aYb,2020-0188,2020-05-08,19:04:29,19:18:41,NA,incomplete,150,color,0,right,Purple_Plus_Stripes_2.jpg,Red_Plus_Grid_3.jpg,Purple_Triangle_Chess_1.jpg,left,389.00000019930303,false,low,NA,NA,NA,NA,NA,NA,NA,false
2zpK0aYb,385mdvingfsu7ikqnsjzxyjp4abjww,3xxu1swe8q8sljevrhi3mo3txdka0m,2zpK0aYb,2020-0188,2020-05-08,19:04:29,19:18:41,NA,incomplete,151,color,1,left,Purple_Triangle_Dots_1.jpg,Purple_Star_Stripes_4.jpg,Green_Triangle_Grid_2.jpg,left,778.2100001350045,true,low,NA,NA,NA,NA,NA,NA,NA,false
2zpK0aYb,385mdvingfsu7ikqnsjzxyjp4abjww,3xxu1swe8q8sljevrhi3mo3txdka0m,2zpK0aYb,2020-0188,2020-05-08,19:04:29,19:18:41,NA,incomplete,152,color,0,left,Green_Triangle_Stripes_2.jpg,Green_Star_Chess_1.jpg,Blue_Triangle_Grid_3.jpg,left,1072.2149999346584,true,low,NA,NA,NA,NA,NA,NA,NA,false
2zpK0aYb,385mdvingfsu7ikqnsjzxyjp4abjww,3xxu1swe8q8sljevrhi3mo3txdka0m,2zpK0aYb,2020-0188,2020-05-08,19:04:29,19:18:41,NA,incomplete,153,color,1,left,Blue_Star_Stripes_3.jpg,Blue_Plus_Chess_1.jpg,Green_Star_Dots_4.jpg,left,870.6799999345094,true,low,NA,NA,NA,NA,NA,NA,NA,false
2zpK0aYb,385mdvingfsu7ikqnsjzxyjp4abjww,3xxu1swe8q8sljevrhi3mo3txdka0m,2zpK0aYb,2020-0188,2020-05-08,19:04:29,19:18:41,NA,incomplete,154,color,1,right,Green_Circle_Chess_3.jpg,Blue_Circle_Dots_4.jpg,Green_Triangle_Stripes_1.jpg,right,538.2850000169128,true,low,NA,NA,NA,NA,NA,NA,NA,false
2zpK0aYb,385mdvingfsu7ikqnsjzxyjp4abjww,3xxu1swe8q8sljevrhi3mo3txdka0m,2zpK0aYb,2020-0188,2020-05-08,19:04:29,19:18:41,NA,incomplete,155,color,1,left,Blue_Star_Dots_3.jpg,Blue_Triangle_Grid_2.jpg,Purple_Star_Chess_1.jpg,left,408.1849998328835,true,low,NA,NA,NA,NA,NA,NA,NA,false
2zpK0aYb,385mdvingfsu7ikqnsjzxyjp4abjww,3xxu1swe8q8sljevrhi3mo3txdka0m,2zpK0aYb,2020-0188,2020-05-08,19:04:29,19:18:41,NA,incomplete,156,color,1,left,Green_Circle_Grid_2.jpg,Green_Plus_Stripes_4.jpg,Red_Circle_Dots_1.jpg,left,552.7649999130517,true,low,NA,NA,NA,NA,NA,NA,NA,false
2zpK0aYb,385mdvingfsu7ikqnsjzxyjp4abjww,3xxu1swe8q8sljevrhi3mo3txdka0m,2zpK0aYb,2020-0188,2020-05-08,19:04:29,19:18:41,NA,incomplete,157,color,1,right,Green_Plus_Chess_4.jpg,Red_Plus_Stripes_1.jpg,Green_Triangle_Dots_3.jpg,right,451.2499999254942,true,low,NA,NA,NA,NA,NA,NA,NA,false
2zpK0aYb,385mdvingfsu7ikqnsjzxyjp4abjww,3xxu1swe8q8sljevrhi3mo3txdka0m,2zpK0aYb,2020-0188,2020-05-08,19:04:29,19:18:41,NA,incomplete,158,color,1,right,Purple_Circle_Grid_3.jpg,Green_Circle_Chess_4.jpg,Purple_Triangle_Stripes_2.jpg,right,642.119999974966,true,low,NA,NA,NA,NA,NA,NA,NA,false
2zpK0aYb,385mdvingfsu7ikqnsjzxyjp4abjww,3xxu1swe8q8sljevrhi3mo3txdka0m,2zpK0aYb,2020-0188,2020-05-08,19:04:29,19:18:41,NA,incomplete,159,color,0,right,Blue_Star_Chess_3.jpg,Purple_Star_Grid_4.jpg,Blue_Plus_Stripes_2.jpg,right,502.71500018425286,true,low,NA,NA,NA,NA,NA,NA,NA,false
2zpK0aYb,385mdvingfsu7ikqnsjzxyjp4abjww,3xxu1swe8q8sljevrhi3mo3txdka0m,2zpK0aYb,2020-0188,2020-05-08,19:04:29,19:18:41,NA,incomplete,160,shape,1,left,Red_Plus_Grid_4.jpg,Blue_Plus_Stripes_1.jpg,Red_Triangle_Chess_3.jpg,right,482.14500001631677,false,low,NA,NA,NA,NA,NA,NA,NA,false
2zpK0aYb,385mdvingfsu7ikqnsjzxyjp4abjww,3xxu1swe8q8sljevrhi3mo3txdka0m,2zpK0aYb,2020-0188,2020-05-08,19:04:29,19:18:41,NA,incomplete,161,shape,1,left,Purple_Circle_Dots_3.jpg,Blue_Circle_Stripes_4.jpg,Purple_Plus_Chess_2.jpg,right,527.9600000940263,false,low,NA,NA,NA,NA,NA,NA,NA,false
2zpK0aYb,385mdvingfsu7ikqnsjzxyjp4abjww,3xxu1swe8q8sljevrhi3mo3txdka0m,2zpK0aYb,2020-0188,2020-05-08,19:04:29,19:18:41,NA,incomplete,162,shape,0,left,Green_Star_Grid_4.jpg,Blue_Star_Stripes_3.jpg,Green_Circle_Chess_1.jpg,left,692.1550000552088,true,low,NA,NA,NA,NA,NA,NA,NA,false
2zpK0aYb,385mdvingfsu7ikqnsjzxyjp4abjww,3xxu1swe8q8sljevrhi3mo3txdka0m,2zpK0aYb,2020-0188,2020-05-08,19:04:29,19:18:41,NA,incomplete,163,shape,1,left,Green_Plus_Chess_4.jpg,Red_Plus_Grid_3.jpg,Green_Triangle_Dots_1.jpg,left,821.8300000298768,true,low,NA,NA,NA,NA,NA,NA,NA,false
2zpK0aYb,385mdvingfsu7ikqnsjzxyjp4abjww,3xxu1swe8q8sljevrhi3mo3txdka0m,2zpK0aYb,2020-0188,2020-05-08,19:04:29,19:18:41,NA,incomplete,164,shape,1,right,Purple_Star_Dots_4.jpg,Purple_Circle_Grid_1.jpg,Blue_Star_Chess_3.jpg,right,499.2649999912828,true,low,NA,NA,NA,NA,NA,NA,NA,false
2zpK0aYb,385mdvingfsu7ikqnsjzxyjp4abjww,3xxu1swe8q8sljevrhi3mo3txdka0m,2zpK0aYb,2020-0188,2020-05-08,19:04:29,19:18:41,NA,incomplete,165,shape,1,left,Green_Star_Grid_3.jpg,Purple_Star_Dots_1.jpg,Green_Triangle_Stripes_4.jpg,left,478.86999999172986,true,low,NA,NA,NA,NA,NA,NA,NA,false
2zpK0aYb,385mdvingfsu7ikqnsjzxyjp4abjww,3xxu1swe8q8sljevrhi3mo3txdka0m,2zpK0aYb,2020-0188,2020-05-08,19:04:29,19:18:41,NA,incomplete,166,shape,1,right,Blue_Circle_Stripes_4.jpg,Blue_Star_Chess_3.jpg,Purple_Circle_Dots_2.jpg,right,380.9350000228733,true,low,NA,NA,NA,NA,NA,NA,NA,false
2zpK0aYb,385mdvingfsu7ikqnsjzxyjp4abjww,3xxu1swe8q8sljevrhi3mo3txdka0m,2zpK0aYb,2020-0188,2020-05-08,19:04:29,19:18:41,NA,incomplete,167,shape,1,right,Purple_Plus_Stripes_3.jpg,Purple_Star_Chess_4.jpg,Green_Plus_Grid_2.jpg,left,370.8800000604242,false,low,NA,NA,NA,NA,NA,NA,NA,false
2zpK0aYb,385mdvingfsu7ikqnsjzxyjp4abjww,3xxu1swe8q8sljevrhi3mo3txdka0m,2zpK0aYb,2020-0188,2020-05-08,19:04:29,19:18:41,NA,incomplete,168,shape,1,right,Green_Circle_Grid_3.jpg,Green_Triangle_Dots_1.jpg,Blue_Circle_Chess_2.jpg,right,633.0450000241399,true,low,NA,NA,NA,NA,NA,NA,NA,false
2zpK0aYb,385mdvingfsu7ikqnsjzxyjp4abjww,3xxu1swe8q8sljevrhi3mo3txdka0m,2zpK0aYb,2020-0188,2020-05-08,19:04:29,19:18:41,NA,incomplete,169,shape,1,left,Purple_Triangle_Chess_1.jpg,Green_Triangle_Dots_4.jpg,Purple_Circle_Grid_3.jpg,left,548.9250000100583,true,low,NA,NA,NA,NA,NA,NA,NA,false
2zpK0aYb,385mdvingfsu7ikqnsjzxyjp4abjww,3xxu1swe8q8sljevrhi3mo3txdka0m,2zpK0aYb,2020-0188,2020-05-08,19:04:29,19:18:41,NA,incomplete,170,shape,1,right,Green_Triangle_Grid_2.jpg,Green_Star_Dots_3.jpg,Purple_Triangle_Chess_4.jpg,right,702.0650000777096,true,low,NA,NA,NA,NA,NA,NA,NA,false
2zpK0aYb,385mdvingfsu7ikqnsjzxyjp4abjww,3xxu1swe8q8sljevrhi3mo3txdka0m,2zpK0aYb,2020-0188,2020-05-08,19:04:29,19:18:41,NA,incomplete,171,shape,1,left,Blue_Star_Stripes_1.jpg,Red_Star_Dots_4.jpg,Blue_Circle_Chess_3.jpg,left,557.0600000210106,true,low,NA,NA,NA,NA,NA,NA,NA,false
2zpK0aYb,385mdvingfsu7ikqnsjzxyjp4abjww,3xxu1swe8q8sljevrhi3mo3txdka0m,2zpK0aYb,2020-0188,2020-05-08,19:04:29,19:18:41,NA,incomplete,172,shape,1,left,Purple_Circle_Stripes_4.jpg,Green_Circle_Chess_1.jpg,Purple_Triangle_Dots_2.jpg,left,559.9050000309944,true,low,NA,NA,NA,NA,NA,NA,NA,false
2zpK0aYb,385mdvingfsu7ikqnsjzxyjp4abjww,3xxu1swe8q8sljevrhi3mo3txdka0m,2zpK0aYb,2020-0188,2020-05-08,19:04:29,19:18:41,NA,incomplete,173,shape,1,left,Red_Triangle_Dots_2.jpg,Green_Triangle_Grid_1.jpg,Red_Plus_Stripes_3.jpg,left,406.47000004537404,true,low,NA,NA,NA,NA,NA,NA,NA,false
2zpK0aYb,385mdvingfsu7ikqnsjzxyjp4abjww,3xxu1swe8q8sljevrhi3mo3txdka0m,2zpK0aYb,2020-0188,2020-05-08,19:04:29,19:18:41,NA,incomplete,174,shape,1,right,Blue_Triangle_Grid_2.jpg,Blue_Star_Chess_4.jpg,Purple_Triangle_Stripes_1.jpg,right,403.3699999563396,true,low,NA,NA,NA,NA,NA,NA,NA,false
2zpK0aYb,385mdvingfsu7ikqnsjzxyjp4abjww,3xxu1swe8q8sljevrhi3mo3txdka0m,2zpK0aYb,2020-0188,2020-05-08,19:04:29,19:18:41,NA,incomplete,175,shape,1,left,Purple_Circle_Dots_3.jpg,Green_Circle_Grid_4.jpg,Purple_Triangle_Chess_1.jpg,left,371.81499996222556,true,low,NA,NA,NA,NA,NA,NA,NA,false
2zpK0aYb,385mdvingfsu7ikqnsjzxyjp4abjww,3xxu1swe8q8sljevrhi3mo3txdka0m,2zpK0aYb,2020-0188,2020-05-08,19:04:29,19:18:41,NA,incomplete,176,shape,1,right,Green_Triangle_Chess_3.jpg,Green_Circle_Dots_1.jpg,Red_Triangle_Grid_2.jpg,right,547.2699999809265,true,low,NA,NA,NA,NA,NA,NA,NA,false
2zpK0aYb,385mdvingfsu7ikqnsjzxyjp4abjww,3xxu1swe8q8sljevrhi3mo3txdka0m,2zpK0aYb,2020-0188,2020-05-08,19:04:29,19:18:41,NA,incomplete,177,shape,1,right,Red_Circle_Grid_3.jpg,Red_Star_Dots_2.jpg,Blue_Circle_Chess_4.jpg,right,540.8700001426041,true,low,NA,NA,NA,NA,NA,NA,NA,false
2zpK0aYb,385mdvingfsu7ikqnsjzxyjp4abjww,3xxu1swe8q8sljevrhi3mo3txdka0m,2zpK0aYb,2020-0188,2020-05-08,19:04:29,19:18:41,NA,incomplete,178,shape,1,left,Blue_Circle_Stripes_3.jpg,Purple_Circle_Chess_2.jpg,Blue_Plus_Dots_4.jpg,left,532.4950001668185,true,low,NA,NA,NA,NA,NA,NA,NA,false
2zpK0aYb,385mdvingfsu7ikqnsjzxyjp4abjww,3xxu1swe8q8sljevrhi3mo3txdka0m,2zpK0aYb,2020-0188,2020-05-08,19:04:29,19:18:41,NA,incomplete,179,shape,1,right,Purple_Star_Grid_3.jpg,Purple_Plus_Dots_2.jpg,Green_Star_Stripes_1.jpg,right,380.4699999745935,true,low,NA,NA,NA,NA,NA,NA,NA,false
2zpK0aYb,385mdvingfsu7ikqnsjzxyjp4abjww,3xxu1swe8q8sljevrhi3mo3txdka0m,2zpK0aYb,2020-0188,2020-05-08,19:04:29,19:18:41,NA,incomplete,180,color,0,left,Blue_Star_Grid_3.jpg,Blue_Plus_Dots_4.jpg,Green_Star_Stripes_1.jpg,right,402.23499992862344,false,low,NA,NA,NA,NA,NA,NA,NA,false
2zpK0aYb,385mdvingfsu7ikqnsjzxyjp4abjww,3xxu1swe8q8sljevrhi3mo3txdka0m,2zpK0aYb,2020-0188,2020-05-08,19:04:29,19:18:41,NA,incomplete,181,color,1,right,Purple_Circle_Chess_3.jpg,Red_Circle_Stripes_4.jpg,Purple_Plus_Dots_2.jpg,left,486.76500003784895,false,low,NA,NA,NA,NA,NA,NA,NA,false
2zpK0aYb,385mdvingfsu7ikqnsjzxyjp4abjww,3xxu1swe8q8sljevrhi3mo3txdka0m,2zpK0aYb,2020-0188,2020-05-08,19:04:29,19:18:41,NA,incomplete,182,color,1,right,Green_Circle_Stripes_1.jpg,Red_Circle_Chess_3.jpg,Green_Triangle_Dots_4.jpg,left,553.8699999451637,false,low,NA,NA,NA,NA,NA,NA,NA,false
2zpK0aYb,385mdvingfsu7ikqnsjzxyjp4abjww,3xxu1swe8q8sljevrhi3mo3txdka0m,2zpK0aYb,2020-0188,2020-05-08,19:04:29,19:18:41,NA,incomplete,183,color,0,left,Red_Plus_Grid_3.jpg,Red_Star_Stripes_4.jpg,Blue_Plus_Chess_1.jpg,right,459.0149999130517,false,low,NA,NA,NA,NA,NA,NA,NA,false
2zpK0aYb,385mdvingfsu7ikqnsjzxyjp4abjww,3xxu1swe8q8sljevrhi3mo3txdka0m,2zpK0aYb,2020-0188,2020-05-08,19:04:29,19:18:41,NA,incomplete,184,color,1,left,Red_Star_Chess_4.jpg,Red_Triangle_Dots_1.jpg,Green_Star_Stripes_3.jpg,right,517.7300001960248,false,low,NA,NA,NA,NA,NA,NA,NA,false
2zpK0aYb,385mdvingfsu7ikqnsjzxyjp4abjww,3xxu1swe8q8sljevrhi3mo3txdka0m,2zpK0aYb,2020-0188,2020-05-08,19:04:29,19:18:41,NA,incomplete,185,color,1,right,Blue_Star_Grid_1.jpg,Purple_Star_Stripes_4.jpg,Blue_Circle_Dots_3.jpg,left,557.6700000092387,false,low,NA,NA,NA,NA,NA,NA,NA,false
2zpK0aYb,385mdvingfsu7ikqnsjzxyjp4abjww,3xxu1swe8q8sljevrhi3mo3txdka0m,2zpK0aYb,2020-0188,2020-05-08,19:04:29,19:18:41,NA,incomplete,186,color,1,right,Red_Star_Grid_4.jpg,Green_Star_Stripes_1.jpg,Red_Triangle_Chess_3.jpg,left,452.5600001215935,false,low,NA,NA,NA,NA,NA,NA,NA,false
2zpK0aYb,385mdvingfsu7ikqnsjzxyjp4abjww,3xxu1swe8q8sljevrhi3mo3txdka0m,2zpK0aYb,2020-0188,2020-05-08,19:04:29,19:18:41,NA,incomplete,187,color,1,left,Red_Circle_Grid_1.jpg,Red_Star_Chess_4.jpg,Purple_Circle_Stripes_3.jpg,right,471.02499986067414,false,low,NA,NA,NA,NA,NA,NA,NA,false
2zpK0aYb,385mdvingfsu7ikqnsjzxyjp4abjww,3xxu1swe8q8sljevrhi3mo3txdka0m,2zpK0aYb,2020-0188,2020-05-08,19:04:29,19:18:41,NA,incomplete,188,color,1,right,Blue_Circle_Dots_3.jpg,Purple_Circle_Chess_1.jpg,Blue_Star_Stripes_2.jpg,left,354.700000025332,false,low,NA,NA,NA,NA,NA,NA,NA,false
2zpK0aYb,385mdvingfsu7ikqnsjzxyjp4abjww,3xxu1swe8q8sljevrhi3mo3txdka0m,2zpK0aYb,2020-0188,2020-05-08,19:04:29,19:18:41,NA,incomplete,189,color,1,left,Red_Plus_Chess_2.jpg,Red_Triangle_Grid_4.jpg,Purple_Plus_Dots_3.jpg,left,807.8199999872595,true,low,NA,NA,NA,NA,NA,NA,NA,false
2zpK0aYb,385mdvingfsu7ikqnsjzxyjp4abjww,3xxu1swe8q8sljevrhi3mo3txdka0m,2zpK0aYb,2020-0188,2020-05-08,19:04:29,19:18:41,NA,incomplete,190,color,1,right,Blue_Circle_Dots_2.jpg,Green_Circle_Grid_3.jpg,Blue_Plus_Chess_1.jpg,right,640.4500000644475,true,low,NA,NA,NA,NA,NA,NA,NA,false
2zpK0aYb,385mdvingfsu7ikqnsjzxyjp4abjww,3xxu1swe8q8sljevrhi3mo3txdka0m,2zpK0aYb,2020-0188,2020-05-08,19:04:29,19:18:41,NA,incomplete,191,color,1,right,Blue_Circle_Stripes_1.jpg,Red_Circle_Chess_3.jpg,Blue_Triangle_Dots_4.jpg,right,587.8500000108033,true,low,NA,NA,NA,NA,NA,NA,NA,false
2zpK0aYb,385mdvingfsu7ikqnsjzxyjp4abjww,3xxu1swe8q8sljevrhi3mo3txdka0m,2zpK0aYb,2020-0188,2020-05-08,19:04:29,19:18:41,NA,incomplete,192,color,1,right,Blue_Plus_Stripes_3.jpg,Green_Plus_Dots_4.jpg,Blue_Triangle_Grid_2.jpg,right,441.3499999791384,true,low,NA,NA,NA,NA,NA,NA,NA,false
2zpK0aYb,385mdvingfsu7ikqnsjzxyjp4abjww,3xxu1swe8q8sljevrhi3mo3txdka0m,2zpK0aYb,2020-0188,2020-05-08,19:04:29,19:18:41,NA,incomplete,193,color,1,left,Blue_Plus_Stripes_4.jpg,Blue_Circle_Chess_2.jpg,Red_Plus_Grid_1.jpg,left,394.18500009924173,true,low,NA,NA,NA,NA,NA,NA,NA,false
2zpK0aYb,385mdvingfsu7ikqnsjzxyjp4abjww,3xxu1swe8q8sljevrhi3mo3txdka0m,2zpK0aYb,2020-0188,2020-05-08,19:04:29,19:18:41,NA,incomplete,194,color,0,left,Green_Circle_Dots_4.jpg,Green_Plus_Stripes_1.jpg,Purple_Circle_Grid_3.jpg,left,725.8549998514354,true,low,NA,NA,NA,NA,NA,NA,NA,false
2zpK0aYb,385mdvingfsu7ikqnsjzxyjp4abjww,3xxu1swe8q8sljevrhi3mo3txdka0m,2zpK0aYb,2020-0188,2020-05-08,19:04:29,19:18:41,NA,incomplete,195,color,1,left,Green_Plus_Dots_4.jpg,Green_Triangle_Grid_3.jpg,Purple_Plus_Stripes_1.jpg,left,489.9100000038743,true,low,NA,NA,NA,NA,NA,NA,NA,false
2zpK0aYb,385mdvingfsu7ikqnsjzxyjp4abjww,3xxu1swe8q8sljevrhi3mo3txdka0m,2zpK0aYb,2020-0188,2020-05-08,19:04:29,19:18:41,NA,incomplete,196,color,0,left,Purple_Triangle_Grid_2.jpg,Purple_Star_Chess_3.jpg,Blue_Triangle_Stripes_1.jpg,left,427.1650000009686,true,low,NA,NA,NA,NA,NA,NA,NA,false
2zpK0aYb,385mdvingfsu7ikqnsjzxyjp4abjww,3xxu1swe8q8sljevrhi3mo3txdka0m,2zpK0aYb,2020-0188,2020-05-08,19:04:29,19:18:41,NA,incomplete,197,color,1,left,Purple_Circle_Dots_4.jpg,Purple_Triangle_Grid_2.jpg,Blue_Circle_Chess_1.jpg,left,454.91499989293516,true,low,NA,NA,NA,NA,NA,NA,NA,false
2zpK0aYb,385mdvingfsu7ikqnsjzxyjp4abjww,3xxu1swe8q8sljevrhi3mo3txdka0m,2zpK0aYb,2020-0188,2020-05-08,19:04:29,19:18:41,NA,incomplete,198,color,1,right,Blue_Triangle_Grid_2.jpg,Purple_Triangle_Chess_4.jpg,Blue_Circle_Dots_3.jpg,right,1123.494999948889,true,low,NA,NA,NA,NA,NA,NA,NA,false
2zpK0aYb,385mdvingfsu7ikqnsjzxyjp4abjww,3xxu1swe8q8sljevrhi3mo3txdka0m,2zpK0aYb,2020-0188,2020-05-08,19:04:29,19:18:41,NA,incomplete,199,color,1,right,Purple_Plus_Stripes_4.jpg,Blue_Plus_Chess_3.jpg,Purple_Circle_Dots_1.jpg,left,378.0999998562038,false,low,NA,NA,NA,NA,NA,NA,NA,false
2zpK0aYb,385mdvingfsu7ikqnsjzxyjp4abjww,3xxu1swe8q8sljevrhi3mo3txdka0m,2zpK0aYb,2020-0188,2020-05-08,19:04:29,19:18:41,NA,incomplete,200,shape,0,left,Red_Circle_Dots_3.jpg,Purple_Circle_Chess_2.jpg,Red_Triangle_Stripes_1.jpg,right,627.9799998737872,false,low,NA,NA,NA,NA,NA,NA,NA,false
2zpK0aYb,385mdvingfsu7ikqnsjzxyjp4abjww,3xxu1swe8q8sljevrhi3mo3txdka0m,2zpK0aYb,2020-0188,2020-05-08,19:04:29,19:18:41,NA,incomplete,201,shape,1,left,Green_Plus_Chess_3.jpg,Red_Plus_Grid_1.jpg,Green_Triangle_Dots_2.jpg,right,420.0800000689924,false,low,NA,NA,NA,NA,NA,NA,NA,false
2zpK0aYb,385mdvingfsu7ikqnsjzxyjp4abjww,3xxu1swe8q8sljevrhi3mo3txdka0m,2zpK0aYb,2020-0188,2020-05-08,19:04:29,19:18:41,NA,incomplete,202,shape,1,left,Blue_Triangle_Grid_3.jpg,Purple_Triangle_Dots_4.jpg,Blue_Plus_Stripes_2.jpg,right,795.905000064522,false,low,NA,NA,NA,NA,NA,NA,NA,false
2zpK0aYb,385mdvingfsu7ikqnsjzxyjp4abjww,3xxu1swe8q8sljevrhi3mo3txdka0m,2zpK0aYb,2020-0188,2020-05-08,19:04:29,19:18:41,NA,incomplete,203,shape,0,right,Green_Triangle_Stripes_1.jpg,Green_Circle_Chess_3.jpg,Red_Triangle_Grid_4.jpg,left,627.1949999500066,false,low,NA,NA,NA,NA,NA,NA,NA,false
2zpK0aYb,385mdvingfsu7ikqnsjzxyjp4abjww,3xxu1swe8q8sljevrhi3mo3txdka0m,2zpK0aYb,2020-0188,2020-05-08,19:04:29,19:18:41,NA,incomplete,204,shape,1,left,Green_Plus_Stripes_4.jpg,Red_Plus_Dots_1.jpg,Green_Triangle_Chess_3.jpg,right,449.4650000706315,false,low,NA,NA,NA,NA,NA,NA,NA,false
2zpK0aYb,385mdvingfsu7ikqnsjzxyjp4abjww,3xxu1swe8q8sljevrhi3mo3txdka0m,2zpK0aYb,2020-0188,2020-05-08,19:04:29,19:18:41,NA,incomplete,205,shape,0,left,Green_Circle_Dots_4.jpg,Blue_Circle_Stripes_1.jpg,Green_Triangle_Grid_2.jpg,right,420.96500005573034,false,low,NA,NA,NA,NA,NA,NA,NA,false
2zpK0aYb,385mdvingfsu7ikqnsjzxyjp4abjww,3xxu1swe8q8sljevrhi3mo3txdka0m,2zpK0aYb,2020-0188,2020-05-08,19:04:29,19:18:41,NA,incomplete,206,shape,1,left,Red_Star_Chess_3.jpg,Green_Star_Stripes_4.jpg,Red_Circle_Dots_1.jpg,right,697.0599999185652,false,low,NA,NA,NA,NA,NA,NA,NA,false
2zpK0aYb,385mdvingfsu7ikqnsjzxyjp4abjww,3xxu1swe8q8sljevrhi3mo3txdka0m,2zpK0aYb,2020-0188,2020-05-08,19:04:29,19:18:41,NA,incomplete,207,shape,0,left,Blue_Star_Dots_4.jpg,Purple_Star_Grid_1.jpg,Blue_Plus_Stripes_3.jpg,right,778.2950000837445,false,low,NA,NA,NA,NA,NA,NA,NA,false
2zpK0aYb,385mdvingfsu7ikqnsjzxyjp4abjww,3xxu1swe8q8sljevrhi3mo3txdka0m,2zpK0aYb,2020-0188,2020-05-08,19:04:29,19:18:41,NA,incomplete,208,shape,1,right,Blue_Plus_Chess_3.jpg,Blue_Star_Grid_4.jpg,Purple_Plus_Stripes_2.jpg,left,466.11500019207597,false,low,NA,NA,NA,NA,NA,NA,NA,false
2zpK0aYb,385mdvingfsu7ikqnsjzxyjp4abjww,3xxu1swe8q8sljevrhi3mo3txdka0m,2zpK0aYb,2020-0188,2020-05-08,19:04:29,19:18:41,NA,incomplete,209,shape,0,left,Purple_Triangle_Stripes_4.jpg,Blue_Triangle_Grid_2.jpg,Purple_Plus_Chess_1.jpg,right,1067.2349999658763,false,low,NA,NA,NA,NA,NA,NA,NA,false
2zpK0aYb,385mdvingfsu7ikqnsjzxyjp4abjww,3xxu1swe8q8sljevrhi3mo3txdka0m,2zpK0aYb,2020-0188,2020-05-08,19:04:29,19:18:41,NA,incomplete,210,shape,1,right,Blue_Triangle_Dots_4.jpg,Blue_Circle_Grid_2.jpg,Red_Triangle_Chess_3.jpg,left,769.0850000362843,false,low,NA,NA,NA,NA,NA,NA,NA,false
2zpK0aYb,385mdvingfsu7ikqnsjzxyjp4abjww,3xxu1swe8q8sljevrhi3mo3txdka0m,2zpK0aYb,2020-0188,2020-05-08,19:04:29,19:18:41,NA,incomplete,211,shape,1,left,Green_Circle_Grid_3.jpg,Red_Circle_Dots_4.jpg,Green_Triangle_Stripes_1.jpg,left,623.7099999561906,true,low,NA,NA,NA,NA,NA,NA,NA,false
2zpK0aYb,385mdvingfsu7ikqnsjzxyjp4abjww,3xxu1swe8q8sljevrhi3mo3txdka0m,2zpK0aYb,2020-0188,2020-05-08,19:04:29,19:18:41,NA,incomplete,212,shape,1,right,Purple_Plus_Stripes_3.jpg,Purple_Star_Chess_2.jpg,Red_Plus_Dots_1.jpg,right,711.4900001324713,true,low,NA,NA,NA,NA,NA,NA,NA,false
2zpK0aYb,385mdvingfsu7ikqnsjzxyjp4abjww,3xxu1swe8q8sljevrhi3mo3txdka0m,2zpK0aYb,2020-0188,2020-05-08,19:04:29,19:18:41,NA,incomplete,213,shape,0,right,Blue_Circle_Chess_3.jpg,Blue_Triangle_Dots_2.jpg,Red_Circle_Stripes_1.jpg,right,705.8899998664856,true,low,NA,NA,NA,NA,NA,NA,NA,false
2zpK0aYb,385mdvingfsu7ikqnsjzxyjp4abjww,3xxu1swe8q8sljevrhi3mo3txdka0m,2zpK0aYb,2020-0188,2020-05-08,19:04:29,19:18:41,NA,incomplete,214,shape,1,right,Purple_Plus_Stripes_3.jpg,Purple_Star_Dots_4.jpg,Green_Plus_Grid_2.jpg,right,544.8650000616908,true,low,NA,NA,NA,NA,NA,NA,NA,false
2zpK0aYb,385mdvingfsu7ikqnsjzxyjp4abjww,3xxu1swe8q8sljevrhi3mo3txdka0m,2zpK0aYb,2020-0188,2020-05-08,19:04:29,19:18:41,NA,incomplete,215,shape,1,right,Purple_Plus_Dots_2.jpg,Purple_Star_Grid_1.jpg,Red_Plus_Chess_4.jpg,right,692.0700001064688,true,low,NA,NA,NA,NA,NA,NA,NA,false
2zpK0aYb,385mdvingfsu7ikqnsjzxyjp4abjww,3xxu1swe8q8sljevrhi3mo3txdka0m,2zpK0aYb,2020-0188,2020-05-08,19:04:29,19:18:41,NA,incomplete,216,shape,0,left,Red_Plus_Grid_2.jpg,Purple_Plus_Stripes_1.jpg,Red_Circle_Dots_3.jpg,left,521.720000077039,true,low,NA,NA,NA,NA,NA,NA,NA,false
2zpK0aYb,385mdvingfsu7ikqnsjzxyjp4abjww,3xxu1swe8q8sljevrhi3mo3txdka0m,2zpK0aYb,2020-0188,2020-05-08,19:04:29,19:18:41,NA,incomplete,217,shape,1,right,Red_Circle_Stripes_4.jpg,Red_Plus_Grid_1.jpg,Green_Circle_Chess_3.jpg,right,413.54500013403594,true,low,NA,NA,NA,NA,NA,NA,NA,false
2zpK0aYb,385mdvingfsu7ikqnsjzxyjp4abjww,3xxu1swe8q8sljevrhi3mo3txdka0m,2zpK0aYb,2020-0188,2020-05-08,19:04:29,19:18:41,NA,incomplete,218,shape,0,left,Green_Circle_Grid_2.jpg,Red_Circle_Stripes_3.jpg,Green_Plus_Chess_4.jpg,left,543.8349999021739,true,low,NA,NA,NA,NA,NA,NA,NA,false
2zpK0aYb,385mdvingfsu7ikqnsjzxyjp4abjww,3xxu1swe8q8sljevrhi3mo3txdka0m,2zpK0aYb,2020-0188,2020-05-08,19:04:29,19:18:41,NA,incomplete,219,shape,1,right,Green_Star_Dots_2.jpg,Green_Circle_Grid_1.jpg,Red_Star_Chess_4.jpg,right,557.509999955073,true,low,NA,NA,NA,NA,NA,NA,NA,false
2zpK0aYb,385mdvingfsu7ikqnsjzxyjp4abjww,3xxu1swe8q8sljevrhi3mo3txdka0m,2zpK0aYb,2020-0188,2020-05-08,19:04:29,19:18:41,NA,incomplete,220,color,1,left,Red_Circle_Stripes_3.jpg,Red_Plus_Grid_4.jpg,Green_Circle_Dots_1.jpg,right,504.37500001862645,false,low,NA,NA,NA,NA,NA,NA,NA,false
2zpK0aYb,385mdvingfsu7ikqnsjzxyjp4abjww,3xxu1swe8q8sljevrhi3mo3txdka0m,2zpK0aYb,2020-0188,2020-05-08,19:04:29,19:18:41,NA,incomplete,221,color,1,right,Purple_Star_Grid_2.jpg,Blue_Star_Stripes_4.jpg,Purple_Triangle_Chess_1.jpg,left,484.9700001068413,false,low,NA,NA,NA,NA,NA,NA,NA,false
2zpK0aYb,385mdvingfsu7ikqnsjzxyjp4abjww,3xxu1swe8q8sljevrhi3mo3txdka0m,2zpK0aYb,2020-0188,2020-05-08,19:04:29,19:18:41,NA,incomplete,222,color,1,left,Green_Triangle_Dots_2.jpg,Green_Plus_Grid_1.jpg,Red_Triangle_Chess_3.jpg,left,702.2600001655519,true,low,NA,NA,NA,NA,NA,NA,NA,false
2zpK0aYb,385mdvingfsu7ikqnsjzxyjp4abjww,3xxu1swe8q8sljevrhi3mo3txdka0m,2zpK0aYb,2020-0188,2020-05-08,19:04:29,19:18:41,NA,incomplete,223,color,0,right,Red_Star_Grid_4.jpg,Blue_Star_Chess_3.jpg,Red_Plus_Stripes_2.jpg,right,644.7049998678267,true,low,NA,NA,NA,NA,NA,NA,NA,false
2zpK0aYb,385mdvingfsu7ikqnsjzxyjp4abjww,3xxu1swe8q8sljevrhi3mo3txdka0m,2zpK0aYb,2020-0188,2020-05-08,19:04:29,19:18:41,NA,incomplete,224,color,1,right,Green_Circle_Stripes_2.jpg,Red_Circle_Chess_3.jpg,Green_Plus_Grid_1.jpg,right,698.6000000033528,true,low,NA,NA,NA,NA,NA,NA,NA,false
2zpK0aYb,385mdvingfsu7ikqnsjzxyjp4abjww,3xxu1swe8q8sljevrhi3mo3txdka0m,2zpK0aYb,2020-0188,2020-05-08,19:04:29,19:18:41,NA,incomplete,225,color,0,left,Blue_Star_Dots_2.jpg,Blue_Plus_Stripes_3.jpg,Green_Star_Chess_4.jpg,left,539.8699999786913,true,low,NA,NA,NA,NA,NA,NA,NA,false
2zpK0aYb,385mdvingfsu7ikqnsjzxyjp4abjww,3xxu1swe8q8sljevrhi3mo3txdka0m,2zpK0aYb,2020-0188,2020-05-08,19:04:29,19:18:41,NA,incomplete,226,color,1,left,Green_Triangle_Grid_3.jpg,Green_Star_Dots_2.jpg,Red_Triangle_Stripes_4.jpg,left,571.2500000372529,true,low,NA,NA,NA,NA,NA,NA,NA,false
2zpK0aYb,385mdvingfsu7ikqnsjzxyjp4abjww,3xxu1swe8q8sljevrhi3mo3txdka0m,2zpK0aYb,2020-0188,2020-05-08,19:04:29,19:18:41,NA,incomplete,227,color,1,left,Red_Circle_Dots_2.jpg,Red_Triangle_Stripes_4.jpg,Blue_Circle_Grid_3.jpg,left,497.34000000171363,true,low,NA,NA,NA,NA,NA,NA,NA,false
2zpK0aYb,385mdvingfsu7ikqnsjzxyjp4abjww,3xxu1swe8q8sljevrhi3mo3txdka0m,2zpK0aYb,2020-0188,2020-05-08,19:04:29,19:18:41,NA,incomplete,228,color,1,left,Red_Triangle_Stripes_2.jpg,Red_Plus_Grid_3.jpg,Purple_Triangle_Chess_1.jpg,left,396.11499989405274,true,low,NA,NA,NA,NA,NA,NA,NA,false
2zpK0aYb,385mdvingfsu7ikqnsjzxyjp4abjww,3xxu1swe8q8sljevrhi3mo3txdka0m,2zpK0aYb,2020-0188,2020-05-08,19:04:29,19:18:41,NA,incomplete,229,color,1,left,Green_Plus_Grid_3.jpg,Green_Star_Chess_2.jpg,Purple_Plus_Stripes_1.jpg,left,400.1399998087436,true,low,NA,NA,NA,NA,NA,NA,NA,false
2zpK0aYb,385mdvingfsu7ikqnsjzxyjp4abjww,3xxu1swe8q8sljevrhi3mo3txdka0m,2zpK0aYb,2020-0188,2020-05-08,19:04:29,19:18:41,NA,incomplete,230,color,1,right,Red_Triangle_Stripes_1.jpg,Purple_Triangle_Chess_2.jpg,Red_Star_Dots_4.jpg,right,453.3500000834465,true,low,NA,NA,NA,NA,NA,NA,NA,false
2zpK0aYb,385mdvingfsu7ikqnsjzxyjp4abjww,3xxu1swe8q8sljevrhi3mo3txdka0m,2zpK0aYb,2020-0188,2020-05-08,19:04:29,19:18:41,NA,incomplete,231,color,1,left,Blue_Circle_Grid_4.jpg,Blue_Triangle_Chess_3.jpg,Purple_Circle_Dots_2.jpg,left,492.0350001193583,true,low,NA,NA,NA,NA,NA,NA,NA,false
2zpK0aYb,385mdvingfsu7ikqnsjzxyjp4abjww,3xxu1swe8q8sljevrhi3mo3txdka0m,2zpK0aYb,2020-0188,2020-05-08,19:04:29,19:18:41,NA,incomplete,232,color,0,right,Red_Plus_Dots_4.jpg,Purple_Plus_Chess_3.jpg,Red_Star_Grid_2.jpg,right,453.22000002488494,true,low,NA,NA,NA,NA,NA,NA,NA,false
2zpK0aYb,385mdvingfsu7ikqnsjzxyjp4abjww,3xxu1swe8q8sljevrhi3mo3txdka0m,2zpK0aYb,2020-0188,2020-05-08,19:04:29,19:18:41,NA,incomplete,233,color,1,left,Blue_Triangle_Dots_1.jpg,Blue_Plus_Stripes_4.jpg,Red_Triangle_Chess_3.jpg,left,363.8549998868257,true,low,NA,NA,NA,NA,NA,NA,NA,false
2zpK0aYb,385mdvingfsu7ikqnsjzxyjp4abjww,3xxu1swe8q8sljevrhi3mo3txdka0m,2zpK0aYb,2020-0188,2020-05-08,19:04:29,19:18:41,NA,incomplete,234,color,0,right,Green_Circle_Grid_3.jpg,Purple_Circle_Chess_4.jpg,Green_Star_Stripes_1.jpg,right,464.0299999155104,true,low,NA,NA,NA,NA,NA,NA,NA,false
2zpK0aYb,385mdvingfsu7ikqnsjzxyjp4abjww,3xxu1swe8q8sljevrhi3mo3txdka0m,2zpK0aYb,2020-0188,2020-05-08,19:04:29,19:18:41,NA,incomplete,235,color,1,left,Blue_Triangle_Dots_1.jpg,Blue_Circle_Stripes_4.jpg,Purple_Triangle_Grid_3.jpg,left,396.720000077039,true,low,NA,NA,NA,NA,NA,NA,NA,false
2zpK0aYb,385mdvingfsu7ikqnsjzxyjp4abjww,3xxu1swe8q8sljevrhi3mo3txdka0m,2zpK0aYb,2020-0188,2020-05-08,19:04:29,19:18:41,NA,incomplete,236,color,0,left,Red_Circle_Stripes_2.jpg,Red_Star_Chess_1.jpg,Blue_Circle_Dots_3.jpg,right,526.829999871552,false,low,NA,NA,NA,NA,NA,NA,NA,false
2zpK0aYb,385mdvingfsu7ikqnsjzxyjp4abjww,3xxu1swe8q8sljevrhi3mo3txdka0m,2zpK0aYb,2020-0188,2020-05-08,19:04:29,19:18:41,NA,incomplete,237,color,1,left,Green_Circle_Dots_3.jpg,Green_Star_Grid_4.jpg,Purple_Circle_Stripes_1.jpg,right,578.5199999809265,false,low,NA,NA,NA,NA,NA,NA,NA,false
2zpK0aYb,385mdvingfsu7ikqnsjzxyjp4abjww,3xxu1swe8q8sljevrhi3mo3txdka0m,2zpK0aYb,2020-0188,2020-05-08,19:04:29,19:18:41,NA,incomplete,238,color,1,left,Green_Star_Stripes_4.jpg,Green_Triangle_Chess_3.jpg,Blue_Star_Dots_1.jpg,right,500.81500015221536,false,low,NA,NA,NA,NA,NA,NA,NA,false
2zpK0aYb,385mdvingfsu7ikqnsjzxyjp4abjww,3xxu1swe8q8sljevrhi3mo3txdka0m,2zpK0aYb,2020-0188,2020-05-08,19:04:29,19:18:41,NA,incomplete,239,color,1,right,Green_Circle_Dots_1.jpg,Purple_Circle_Chess_4.jpg,Green_Triangle_Grid_2.jpg,right,642.6800000481308,true,low,NA,NA,NA,NA,NA,NA,NA,false
2zpK0aYb,385mdvingfsu7ikqnsjzxyjp4abjww,3xxu1swe8q8sljevrhi3mo3txdka0m,2zpK0aYb,2020-0188,2020-05-08,19:04:29,19:18:41,815373.4949999489,853478.8699999917,NA,NA,NA,NA,NA,NA,NA,NA,NA,NA,NA,27,Asian,Male,Indian,no,yes,no,undefined
