workerId,hitId,assignmentId,subject,studyid,exp_date,exp_start,exp_end,time_start,time_end,trial,type,reward_validity,answer,image_top,image_left,image_right,response,response_time,response_acc,volatility,practice
LIw8WsuF,3ygyp13654mlicup3w1l36spsdqnrt,3yj6na41jft6atlj28a6uo7lu13pjo,LIw8WsuF,2020-0188,2020-11-14,21:06:38,21:36:13,NA,incomplete,0,color,0,left,Purple_Circle_Chess_3.jpg,Purple_Plus_Dots_1.jpg,Blue_Triangle_Chess_2.jpg,left,816.9899999920744,true,NA,true
LIw8WsuF,3ygyp13654mlicup3w1l36spsdqnrt,3yj6na41jft6atlj28a6uo7lu13pjo,LIw8WsuF,2020-0188,2020-11-14,21:06:38,21:36:13,NA,incomplete,1,color,1,right,Purple_Plus_Stripes_4.jpg,Blue_Star_Stripes_3.jpg,Purple_Circle_Grid_1.jpg,right,933.5599999758415,true,NA,true
LIw8WsuF,3ygyp13654mlicup3w1l36spsdqnrt,3yj6na41jft6atlj28a6uo7lu13pjo,LIw8WsuF,2020-0188,2020-11-14,21:06:38,21:36:13,NA,incomplete,2,color,0,left,Green_Star_Grid_2.jpg,Green_Circle_Dots_3.jpg,Purple_Triangle_Grid_1.jpg,left,668.6099999933504,true,NA,true
LIw8WsuF,3ygyp13654mlicup3w1l36spsdqnrt,3yj6na41jft6atlj28a6uo7lu13pjo,LIw8WsuF,2020-0188,2020-11-14,21:06:38,21:36:13,NA,incomplete,3,color,0,right,Green_Circle_Dots_1.jpg,Purple_Plus_Dots_3.jpg,Green_Triangle_Chess_2.jpg,right,668.4250000107568,true,NA,true
LIw8WsuF,3ygyp13654mlicup3w1l36spsdqnrt,3yj6na41jft6atlj28a6uo7lu13pjo,LIw8WsuF,2020-0188,2020-11-14,21:06:38,21:36:13,NA,incomplete,4,color,1,left,Red_Star_Chess_4.jpg,Red_Circle_Dots_1.jpg,Green_Triangle_Chess_2.jpg,left,1474.7199999983422,true,NA,true
LIw8WsuF,3ygyp13654mlicup3w1l36spsdqnrt,3yj6na41jft6atlj28a6uo7lu13pjo,LIw8WsuF,2020-0188,2020-11-14,21:06:38,21:36:13,NA,incomplete,5,color,1,left,Purple_Plus_Grid_2.jpg,Purple_Circle_Dots_4.jpg,Blue_Star_Grid_1.jpg,left,684.9550000042655,true,NA,true
LIw8WsuF,3ygyp13654mlicup3w1l36spsdqnrt,3yj6na41jft6atlj28a6uo7lu13pjo,LIw8WsuF,2020-0188,2020-11-14,21:06:38,21:36:13,NA,incomplete,6,color,1,left,Blue_Circle_Grid_4.jpg,Blue_Plus_Dots_3.jpg,Purple_Triangle_Grid_2.jpg,left,630.9499999915715,true,NA,true
LIw8WsuF,3ygyp13654mlicup3w1l36spsdqnrt,3yj6na41jft6atlj28a6uo7lu13pjo,LIw8WsuF,2020-0188,2020-11-14,21:06:38,21:36:13,NA,incomplete,7,color,1,right,Green_Triangle_Stripes_3.jpg,Blue_Plus_Stripes_4.jpg,Green_Star_Grid_2.jpg,right,633.7549999880139,true,NA,true
LIw8WsuF,3ygyp13654mlicup3w1l36spsdqnrt,3yj6na41jft6atlj28a6uo7lu13pjo,LIw8WsuF,2020-0188,2020-11-14,21:06:38,21:36:13,NA,incomplete,8,color,1,left,Blue_Triangle_Dots_3.jpg,Blue_Circle_Stripes_4.jpg,Green_Star_Dots_2.jpg,left,594.8100000096019,true,NA,true
LIw8WsuF,3ygyp13654mlicup3w1l36spsdqnrt,3yj6na41jft6atlj28a6uo7lu13pjo,LIw8WsuF,2020-0188,2020-11-14,21:06:38,21:36:13,NA,incomplete,9,color,0,right,Red_Triangle_Chess_2.jpg,Green_Circle_Chess_3.jpg,Red_Star_Dots_4.jpg,right,666.1449999955948,true,NA,true
LIw8WsuF,3ygyp13654mlicup3w1l36spsdqnrt,3yj6na41jft6atlj28a6uo7lu13pjo,LIw8WsuF,2020-0188,2020-11-14,21:06:38,21:36:13,NA,incomplete,10,color,1,left,Blue_Circle_Dots_4.jpg,Blue_Plus_Stripes_1.jpg,Green_Triangle_Dots_3.jpg,left,617.8399999917019,true,NA,true
LIw8WsuF,3ygyp13654mlicup3w1l36spsdqnrt,3yj6na41jft6atlj28a6uo7lu13pjo,LIw8WsuF,2020-0188,2020-11-14,21:06:38,21:36:13,NA,incomplete,11,color,1,left,Green_Triangle_Grid_4.jpg,Green_Circle_Dots_3.jpg,Purple_Star_Grid_1.jpg,left,663.5100000130478,true,NA,true
LIw8WsuF,3ygyp13654mlicup3w1l36spsdqnrt,3yj6na41jft6atlj28a6uo7lu13pjo,LIw8WsuF,2020-0188,2020-11-14,21:06:38,21:36:13,NA,incomplete,12,color,1,left,Red_Star_Stripes_3.jpg,Red_Triangle_Dots_1.jpg,Green_Circle_Stripes_2.jpg,left,698.980000015581,true,NA,true
LIw8WsuF,3ygyp13654mlicup3w1l36spsdqnrt,3yj6na41jft6atlj28a6uo7lu13pjo,LIw8WsuF,2020-0188,2020-11-14,21:06:38,21:36:13,NA,incomplete,13,color,1,left,Purple_Star_Stripes_3.jpg,Purple_Plus_Dots_2.jpg,Red_Circle_Stripes_1.jpg,left,659.4949999998789,true,NA,true
LIw8WsuF,3ygyp13654mlicup3w1l36spsdqnrt,3yj6na41jft6atlj28a6uo7lu13pjo,LIw8WsuF,2020-0188,2020-11-14,21:06:38,21:36:13,NA,incomplete,14,color,1,right,Green_Circle_Dots_3.jpg,Blue_Triangle_Dots_4.jpg,Green_Plus_Stripes_2.jpg,right,801.949999993667,true,NA,true
LIw8WsuF,3ygyp13654mlicup3w1l36spsdqnrt,3yj6na41jft6atlj28a6uo7lu13pjo,LIw8WsuF,2020-0188,2020-11-14,21:06:38,21:36:13,NA,incomplete,15,color,1,right,Green_Star_Chess_2.jpg,Blue_Triangle_Chess_4.jpg,Green_Plus_Grid_1.jpg,right,686.8750000139698,true,NA,true
LIw8WsuF,3ygyp13654mlicup3w1l36spsdqnrt,3yj6na41jft6atlj28a6uo7lu13pjo,LIw8WsuF,2020-0188,2020-11-14,21:06:38,21:36:13,NA,incomplete,16,color,1,right,Green_Star_Dots_1.jpg,Blue_Circle_Dots_4.jpg,Green_Triangle_Grid_3.jpg,right,631.9650000077672,true,NA,true
LIw8WsuF,3ygyp13654mlicup3w1l36spsdqnrt,3yj6na41jft6atlj28a6uo7lu13pjo,LIw8WsuF,2020-0188,2020-11-14,21:06:38,21:36:13,NA,incomplete,17,color,1,left,Blue_Star_Dots_4.jpg,Blue_Triangle_Chess_2.jpg,Red_Circle_Dots_1.jpg,left,581.9100000080653,true,NA,true
LIw8WsuF,3ygyp13654mlicup3w1l36spsdqnrt,3yj6na41jft6atlj28a6uo7lu13pjo,LIw8WsuF,2020-0188,2020-11-14,21:06:38,21:36:13,NA,incomplete,18,color,1,right,Red_Star_Grid_4.jpg,Green_Triangle_Grid_1.jpg,Red_Circle_Chess_3.jpg,right,627.3700000019744,true,NA,true
LIw8WsuF,3ygyp13654mlicup3w1l36spsdqnrt,3yj6na41jft6atlj28a6uo7lu13pjo,LIw8WsuF,2020-0188,2020-11-14,21:06:38,21:36:13,NA,incomplete,19,color,1,left,Green_Plus_Grid_4.jpg,Green_Circle_Chess_1.jpg,Blue_Star_Grid_3.jpg,left,621.370000008028,true,NA,true
LIw8WsuF,3ygyp13654mlicup3w1l36spsdqnrt,3yj6na41jft6atlj28a6uo7lu13pjo,LIw8WsuF,2020-0188,2020-11-14,21:06:38,21:36:13,NA,incomplete,20,filling,1,right,Red_Circle_Chess_2.jpg,Red_Plus_Dots_4.jpg,Blue_Star_Chess_1.jpg,left,617.2800000058487,false,NA,true
LIw8WsuF,3ygyp13654mlicup3w1l36spsdqnrt,3yj6na41jft6atlj28a6uo7lu13pjo,LIw8WsuF,2020-0188,2020-11-14,21:06:38,21:36:13,NA,incomplete,21,filling,1,left,Blue_Triangle_Chess_4.jpg,Purple_Circle_Chess_1.jpg,Blue_Plus_Grid_2.jpg,left,1037.9400000092573,true,NA,true
LIw8WsuF,3ygyp13654mlicup3w1l36spsdqnrt,3yj6na41jft6atlj28a6uo7lu13pjo,LIw8WsuF,2020-0188,2020-11-14,21:06:38,21:36:13,NA,incomplete,22,filling,0,left,Green_Triangle_Chess_4.jpg,Purple_Star_Chess_3.jpg,Green_Circle_Dots_1.jpg,left,831.5899999870453,true,NA,true
LIw8WsuF,3ygyp13654mlicup3w1l36spsdqnrt,3yj6na41jft6atlj28a6uo7lu13pjo,LIw8WsuF,2020-0188,2020-11-14,21:06:38,21:36:13,NA,incomplete,23,filling,1,left,Purple_Circle_Dots_2.jpg,Blue_Plus_Dots_1.jpg,Purple_Triangle_Stripes_4.jpg,left,977.8549999755342,true,NA,true
LIw8WsuF,3ygyp13654mlicup3w1l36spsdqnrt,3yj6na41jft6atlj28a6uo7lu13pjo,LIw8WsuF,2020-0188,2020-11-14,21:06:38,21:36:13,NA,incomplete,24,filling,0,left,Green_Triangle_Chess_2.jpg,Red_Plus_Chess_4.jpg,Green_Circle_Dots_1.jpg,left,783.8749999937136,true,NA,true
LIw8WsuF,3ygyp13654mlicup3w1l36spsdqnrt,3yj6na41jft6atlj28a6uo7lu13pjo,LIw8WsuF,2020-0188,2020-11-14,21:06:38,21:36:13,NA,incomplete,25,filling,1,left,Green_Triangle_Stripes_4.jpg,Purple_Plus_Stripes_1.jpg,Green_Circle_Grid_2.jpg,left,860.8900000108406,true,NA,true
LIw8WsuF,3ygyp13654mlicup3w1l36spsdqnrt,3yj6na41jft6atlj28a6uo7lu13pjo,LIw8WsuF,2020-0188,2020-11-14,21:06:38,21:36:13,NA,incomplete,26,filling,1,left,Green_Plus_Stripes_3.jpg,Blue_Star_Stripes_2.jpg,Green_Triangle_Grid_4.jpg,left,879.3600000208244,true,NA,true
LIw8WsuF,3ygyp13654mlicup3w1l36spsdqnrt,3yj6na41jft6atlj28a6uo7lu13pjo,LIw8WsuF,2020-0188,2020-11-14,21:06:38,21:36:13,NA,incomplete,27,filling,1,right,Green_Plus_Dots_2.jpg,Green_Circle_Grid_4.jpg,Purple_Star_Dots_3.jpg,right,799.5550000050571,true,NA,true
LIw8WsuF,3ygyp13654mlicup3w1l36spsdqnrt,3yj6na41jft6atlj28a6uo7lu13pjo,LIw8WsuF,2020-0188,2020-11-14,21:06:38,21:36:13,NA,incomplete,28,filling,1,left,Purple_Circle_Dots_4.jpg,Green_Star_Dots_2.jpg,Purple_Plus_Grid_1.jpg,left,777.0000000018626,true,NA,true
LIw8WsuF,3ygyp13654mlicup3w1l36spsdqnrt,3yj6na41jft6atlj28a6uo7lu13pjo,LIw8WsuF,2020-0188,2020-11-14,21:06:38,21:36:13,NA,incomplete,29,filling,1,right,Red_Plus_Stripes_1.jpg,Red_Circle_Dots_3.jpg,Blue_Triangle_Stripes_2.jpg,right,850.9199999971315,true,NA,true
LIw8WsuF,3ygyp13654mlicup3w1l36spsdqnrt,3yj6na41jft6atlj28a6uo7lu13pjo,LIw8WsuF,2020-0188,2020-11-14,21:06:38,21:36:13,NA,incomplete,30,filling,0,right,Purple_Plus_Chess_4.jpg,Purple_Triangle_Dots_2.jpg,Green_Star_Chess_3.jpg,right,867.1250000188593,true,NA,true
LIw8WsuF,3ygyp13654mlicup3w1l36spsdqnrt,3yj6na41jft6atlj28a6uo7lu13pjo,LIw8WsuF,2020-0188,2020-11-14,21:06:38,21:36:13,NA,incomplete,31,filling,1,left,Red_Triangle_Grid_2.jpg,Blue_Circle_Grid_1.jpg,Red_Star_Dots_3.jpg,left,868.6049999960233,true,NA,true
LIw8WsuF,3ygyp13654mlicup3w1l36spsdqnrt,3yj6na41jft6atlj28a6uo7lu13pjo,LIw8WsuF,2020-0188,2020-11-14,21:06:38,21:36:13,NA,incomplete,32,filling,1,right,Purple_Plus_Chess_2.jpg,Purple_Star_Grid_3.jpg,Green_Triangle_Chess_1.jpg,right,876.3949999993201,true,NA,true
LIw8WsuF,3ygyp13654mlicup3w1l36spsdqnrt,3yj6na41jft6atlj28a6uo7lu13pjo,LIw8WsuF,2020-0188,2020-11-14,21:06:38,21:36:13,NA,incomplete,33,filling,1,right,Purple_Plus_Stripes_1.jpg,Purple_Star_Grid_4.jpg,Red_Triangle_Stripes_3.jpg,right,1025.7549999805633,true,NA,true
LIw8WsuF,3ygyp13654mlicup3w1l36spsdqnrt,3yj6na41jft6atlj28a6uo7lu13pjo,LIw8WsuF,2020-0188,2020-11-14,21:06:38,21:36:13,NA,incomplete,34,filling,0,right,Blue_Star_Grid_4.jpg,Blue_Circle_Dots_2.jpg,Green_Plus_Grid_3.jpg,right,886.1399999877904,true,NA,true
LIw8WsuF,3ygyp13654mlicup3w1l36spsdqnrt,3yj6na41jft6atlj28a6uo7lu13pjo,LIw8WsuF,2020-0188,2020-11-14,21:06:38,21:36:13,NA,incomplete,35,filling,1,right,Green_Star_Grid_2.jpg,Green_Plus_Chess_4.jpg,Red_Triangle_Grid_3.jpg,right,818.4100000071339,true,NA,true
LIw8WsuF,3ygyp13654mlicup3w1l36spsdqnrt,3yj6na41jft6atlj28a6uo7lu13pjo,LIw8WsuF,2020-0188,2020-11-14,21:06:38,21:36:13,NA,incomplete,36,filling,1,left,Purple_Plus_Dots_2.jpg,Red_Circle_Dots_4.jpg,Purple_Star_Chess_1.jpg,left,857.1950000186916,true,NA,true
LIw8WsuF,3ygyp13654mlicup3w1l36spsdqnrt,3yj6na41jft6atlj28a6uo7lu13pjo,LIw8WsuF,2020-0188,2020-11-14,21:06:38,21:36:13,NA,incomplete,37,filling,1,right,Green_Circle_Stripes_2.jpg,Green_Triangle_Grid_4.jpg,Blue_Plus_Stripes_1.jpg,right,788.1400000187568,true,NA,true
LIw8WsuF,3ygyp13654mlicup3w1l36spsdqnrt,3yj6na41jft6atlj28a6uo7lu13pjo,LIw8WsuF,2020-0188,2020-11-14,21:06:38,21:36:13,NA,incomplete,38,filling,1,left,Blue_Plus_Dots_2.jpg,Purple_Circle_Dots_3.jpg,Blue_Star_Stripes_1.jpg,left,813.8449999969453,true,NA,true
LIw8WsuF,3ygyp13654mlicup3w1l36spsdqnrt,3yj6na41jft6atlj28a6uo7lu13pjo,LIw8WsuF,2020-0188,2020-11-14,21:06:38,21:36:13,NA,incomplete,39,filling,1,right,Green_Plus_Grid_1.jpg,Green_Triangle_Chess_2.jpg,Red_Circle_Grid_3.jpg,right,867.5349999975879,true,NA,true
LIw8WsuF,3ygyp13654mlicup3w1l36spsdqnrt,3yj6na41jft6atlj28a6uo7lu13pjo,LIw8WsuF,2020-0188,2020-11-14,21:06:38,21:36:13,NA,incomplete,0,color,1,right,Blue_Triangle_Chess_1.jpg,Purple_Star_Chess_2.jpg,Blue_Plus_Dots_4.jpg,right,1422.4050000193529,true,high,false
LIw8WsuF,3ygyp13654mlicup3w1l36spsdqnrt,3yj6na41jft6atlj28a6uo7lu13pjo,LIw8WsuF,2020-0188,2020-11-14,21:06:38,21:36:13,NA,incomplete,1,color,1,right,Blue_Triangle_Chess_4.jpg,Red_Circle_Chess_2.jpg,Blue_Plus_Dots_1.jpg,right,611.9049999979325,true,high,false
LIw8WsuF,3ygyp13654mlicup3w1l36spsdqnrt,3yj6na41jft6atlj28a6uo7lu13pjo,LIw8WsuF,2020-0188,2020-11-14,21:06:38,21:36:13,NA,incomplete,2,color,1,right,Red_Triangle_Grid_3.jpg,Green_Star_Grid_2.jpg,Red_Plus_Stripes_1.jpg,right,608.6999999824911,true,high,false
LIw8WsuF,3ygyp13654mlicup3w1l36spsdqnrt,3yj6na41jft6atlj28a6uo7lu13pjo,LIw8WsuF,2020-0188,2020-11-14,21:06:38,21:36:13,NA,incomplete,3,color,1,right,Purple_Triangle_Stripes_4.jpg,Blue_Circle_Stripes_3.jpg,Purple_Star_Grid_2.jpg,right,648.1999999959953,true,high,false
LIw8WsuF,3ygyp13654mlicup3w1l36spsdqnrt,3yj6na41jft6atlj28a6uo7lu13pjo,LIw8WsuF,2020-0188,2020-11-14,21:06:38,21:36:13,NA,incomplete,4,color,1,left,Green_Plus_Dots_4.jpg,Green_Star_Chess_1.jpg,Blue_Triangle_Dots_2.jpg,left,623.6499999940861,true,high,false
LIw8WsuF,3ygyp13654mlicup3w1l36spsdqnrt,3yj6na41jft6atlj28a6uo7lu13pjo,LIw8WsuF,2020-0188,2020-11-14,21:06:38,21:36:13,NA,incomplete,5,color,1,right,Green_Plus_Grid_3.jpg,Red_Circle_Grid_1.jpg,Green_Triangle_Chess_2.jpg,right,544.8500000056811,true,high,false
LIw8WsuF,3ygyp13654mlicup3w1l36spsdqnrt,3yj6na41jft6atlj28a6uo7lu13pjo,LIw8WsuF,2020-0188,2020-11-14,21:06:38,21:36:13,NA,incomplete,6,color,0,right,Red_Star_Chess_4.jpg,Green_Triangle_Chess_3.jpg,Red_Circle_Stripes_2.jpg,right,622.6099999912549,true,high,false
LIw8WsuF,3ygyp13654mlicup3w1l36spsdqnrt,3yj6na41jft6atlj28a6uo7lu13pjo,LIw8WsuF,2020-0188,2020-11-14,21:06:38,21:36:13,NA,incomplete,7,color,1,right,Green_Circle_Stripes_3.jpg,Purple_Triangle_Stripes_4.jpg,Green_Star_Chess_1.jpg,right,716.7450000124518,true,high,false
LIw8WsuF,3ygyp13654mlicup3w1l36spsdqnrt,3yj6na41jft6atlj28a6uo7lu13pjo,LIw8WsuF,2020-0188,2020-11-14,21:06:38,21:36:13,NA,incomplete,8,color,0,left,Red_Star_Grid_4.jpg,Red_Triangle_Stripes_1.jpg,Purple_Plus_Grid_2.jpg,left,535.215000010794,true,high,false
LIw8WsuF,3ygyp13654mlicup3w1l36spsdqnrt,3yj6na41jft6atlj28a6uo7lu13pjo,LIw8WsuF,2020-0188,2020-11-14,21:06:38,21:36:13,NA,incomplete,9,color,1,left,Red_Circle_Chess_2.jpg,Red_Plus_Grid_4.jpg,Green_Triangle_Chess_1.jpg,left,671.5249999833759,true,high,false
LIw8WsuF,3ygyp13654mlicup3w1l36spsdqnrt,3yj6na41jft6atlj28a6uo7lu13pjo,LIw8WsuF,2020-0188,2020-11-14,21:06:38,21:36:13,NA,incomplete,10,filling,1,left,Purple_Star_Chess_1.jpg,Red_Plus_Chess_2.jpg,Purple_Circle_Stripes_4.jpg,right,590.5349999957252,false,high,false
LIw8WsuF,3ygyp13654mlicup3w1l36spsdqnrt,3yj6na41jft6atlj28a6uo7lu13pjo,LIw8WsuF,2020-0188,2020-11-14,21:06:38,21:36:13,NA,incomplete,11,filling,1,left,Green_Circle_Grid_4.jpg,Purple_Plus_Grid_2.jpg,Green_Star_Chess_3.jpg,left,797.4649999814574,true,high,false
LIw8WsuF,3ygyp13654mlicup3w1l36spsdqnrt,3yj6na41jft6atlj28a6uo7lu13pjo,LIw8WsuF,2020-0188,2020-11-14,21:06:38,21:36:13,NA,incomplete,12,filling,1,left,Green_Star_Dots_1.jpg,Red_Circle_Dots_4.jpg,Green_Plus_Chess_3.jpg,left,853.2500000146683,true,high,false
LIw8WsuF,3ygyp13654mlicup3w1l36spsdqnrt,3yj6na41jft6atlj28a6uo7lu13pjo,LIw8WsuF,2020-0188,2020-11-14,21:06:38,21:36:13,NA,incomplete,13,filling,1,left,Blue_Plus_Stripes_4.jpg,Red_Triangle_Stripes_2.jpg,Blue_Circle_Dots_1.jpg,left,1001.6900000046007,true,high,false
LIw8WsuF,3ygyp13654mlicup3w1l36spsdqnrt,3yj6na41jft6atlj28a6uo7lu13pjo,LIw8WsuF,2020-0188,2020-11-14,21:06:38,21:36:13,NA,incomplete,14,filling,0,right,Green_Star_Dots_1.jpg,Green_Circle_Grid_2.jpg,Red_Plus_Dots_4.jpg,right,866.8999999936204,true,high,false
LIw8WsuF,3ygyp13654mlicup3w1l36spsdqnrt,3yj6na41jft6atlj28a6uo7lu13pjo,LIw8WsuF,2020-0188,2020-11-14,21:06:38,21:36:13,NA,incomplete,15,filling,1,right,Blue_Star_Dots_2.jpg,Blue_Plus_Grid_4.jpg,Purple_Triangle_Dots_3.jpg,right,839.799999987008,true,high,false
LIw8WsuF,3ygyp13654mlicup3w1l36spsdqnrt,3yj6na41jft6atlj28a6uo7lu13pjo,LIw8WsuF,2020-0188,2020-11-14,21:06:38,21:36:13,NA,incomplete,16,filling,1,right,Purple_Triangle_Chess_3.jpg,Purple_Circle_Dots_2.jpg,Blue_Star_Chess_4.jpg,right,831.3999999954831,true,high,false
LIw8WsuF,3ygyp13654mlicup3w1l36spsdqnrt,3yj6na41jft6atlj28a6uo7lu13pjo,LIw8WsuF,2020-0188,2020-11-14,21:06:38,21:36:13,NA,incomplete,17,filling,1,left,Purple_Triangle_Dots_3.jpg,Red_Circle_Dots_4.jpg,Purple_Plus_Chess_1.jpg,left,779.6899999957532,true,high,false
LIw8WsuF,3ygyp13654mlicup3w1l36spsdqnrt,3yj6na41jft6atlj28a6uo7lu13pjo,LIw8WsuF,2020-0188,2020-11-14,21:06:38,21:36:13,NA,incomplete,18,filling,1,right,Blue_Star_Grid_2.jpg,Blue_Circle_Stripes_1.jpg,Green_Triangle_Grid_4.jpg,right,963.9350000070408,true,high,false
LIw8WsuF,3ygyp13654mlicup3w1l36spsdqnrt,3yj6na41jft6atlj28a6uo7lu13pjo,LIw8WsuF,2020-0188,2020-11-14,21:06:38,21:36:13,NA,incomplete,19,filling,1,left,Green_Circle_Stripes_4.jpg,Purple_Plus_Stripes_3.jpg,Green_Star_Dots_2.jpg,left,840.6899999827147,true,high,false
LIw8WsuF,3ygyp13654mlicup3w1l36spsdqnrt,3yj6na41jft6atlj28a6uo7lu13pjo,LIw8WsuF,2020-0188,2020-11-14,21:06:38,21:36:13,NA,incomplete,20,color,1,left,Blue_Circle_Stripes_1.jpg,Blue_Plus_Chess_2.jpg,Red_Triangle_Stripes_4.jpg,right,734.5349999959581,false,high,false
LIw8WsuF,3ygyp13654mlicup3w1l36spsdqnrt,3yj6na41jft6atlj28a6uo7lu13pjo,LIw8WsuF,2020-0188,2020-11-14,21:06:38,21:36:13,NA,incomplete,21,color,0,right,Green_Plus_Grid_2.jpg,Red_Triangle_Grid_3.jpg,Green_Circle_Chess_1.jpg,left,998.6499999940861,false,high,false
LIw8WsuF,3ygyp13654mlicup3w1l36spsdqnrt,3yj6na41jft6atlj28a6uo7lu13pjo,LIw8WsuF,2020-0188,2020-11-14,21:06:38,21:36:13,NA,incomplete,22,color,1,left,Red_Circle_Dots_4.jpg,Red_Triangle_Chess_3.jpg,Blue_Star_Dots_1.jpg,right,782.9100000089966,false,high,false
LIw8WsuF,3ygyp13654mlicup3w1l36spsdqnrt,3yj6na41jft6atlj28a6uo7lu13pjo,LIw8WsuF,2020-0188,2020-11-14,21:06:38,21:36:13,NA,incomplete,23,color,1,right,Green_Circle_Grid_4.jpg,Red_Triangle_Grid_3.jpg,Green_Plus_Chess_1.jpg,right,759.5250000013039,true,high,false
LIw8WsuF,3ygyp13654mlicup3w1l36spsdqnrt,3yj6na41jft6atlj28a6uo7lu13pjo,LIw8WsuF,2020-0188,2020-11-14,21:06:38,21:36:13,NA,incomplete,24,color,0,left,Blue_Star_Stripes_4.jpg,Blue_Triangle_Grid_3.jpg,Red_Plus_Stripes_2.jpg,left,579.6850000042468,true,high,false
LIw8WsuF,3ygyp13654mlicup3w1l36spsdqnrt,3yj6na41jft6atlj28a6uo7lu13pjo,LIw8WsuF,2020-0188,2020-11-14,21:06:38,21:36:13,NA,incomplete,25,color,1,left,Green_Circle_Stripes_3.jpg,Green_Star_Grid_1.jpg,Red_Plus_Stripes_2.jpg,left,994.0450000285637,true,high,false
LIw8WsuF,3ygyp13654mlicup3w1l36spsdqnrt,3yj6na41jft6atlj28a6uo7lu13pjo,LIw8WsuF,2020-0188,2020-11-14,21:06:38,21:36:13,NA,incomplete,26,color,0,right,Red_Circle_Chess_1.jpg,Blue_Star_Chess_4.jpg,Red_Plus_Stripes_3.jpg,right,573.9950000133831,true,high,false
LIw8WsuF,3ygyp13654mlicup3w1l36spsdqnrt,3yj6na41jft6atlj28a6uo7lu13pjo,LIw8WsuF,2020-0188,2020-11-14,21:06:38,21:36:13,NA,incomplete,27,color,0,right,Green_Circle_Stripes_1.jpg,Red_Star_Stripes_2.jpg,Green_Plus_Dots_4.jpg,right,855.409999989206,true,high,false
LIw8WsuF,3ygyp13654mlicup3w1l36spsdqnrt,3yj6na41jft6atlj28a6uo7lu13pjo,LIw8WsuF,2020-0188,2020-11-14,21:06:38,21:36:13,NA,incomplete,28,color,0,left,Blue_Star_Grid_2.jpg,Blue_Triangle_Stripes_4.jpg,Green_Plus_Grid_3.jpg,right,785.3900000045542,false,high,false
LIw8WsuF,3ygyp13654mlicup3w1l36spsdqnrt,3yj6na41jft6atlj28a6uo7lu13pjo,LIw8WsuF,2020-0188,2020-11-14,21:06:38,21:36:13,NA,incomplete,29,color,1,left,Blue_Star_Stripes_4.jpg,Blue_Circle_Grid_3.jpg,Purple_Plus_Stripes_2.jpg,right,829.2450000008103,false,high,false
LIw8WsuF,3ygyp13654mlicup3w1l36spsdqnrt,3yj6na41jft6atlj28a6uo7lu13pjo,LIw8WsuF,2020-0188,2020-11-14,21:06:38,21:36:13,NA,incomplete,30,filling,1,left,Purple_Plus_Grid_4.jpg,Blue_Star_Grid_2.jpg,Purple_Triangle_Dots_3.jpg,right,1321.4200000220444,false,high,false
LIw8WsuF,3ygyp13654mlicup3w1l36spsdqnrt,3yj6na41jft6atlj28a6uo7lu13pjo,LIw8WsuF,2020-0188,2020-11-14,21:06:38,21:36:13,NA,incomplete,31,filling,1,left,Purple_Plus_Chess_2.jpg,Blue_Star_Chess_4.jpg,Purple_Triangle_Grid_1.jpg,left,965.1750000193715,true,high,false
LIw8WsuF,3ygyp13654mlicup3w1l36spsdqnrt,3yj6na41jft6atlj28a6uo7lu13pjo,LIw8WsuF,2020-0188,2020-11-14,21:06:38,21:36:13,NA,incomplete,32,filling,1,left,Green_Plus_Dots_4.jpg,Blue_Triangle_Dots_2.jpg,Green_Circle_Grid_3.jpg,left,984.7149999986868,true,high,false
LIw8WsuF,3ygyp13654mlicup3w1l36spsdqnrt,3yj6na41jft6atlj28a6uo7lu13pjo,LIw8WsuF,2020-0188,2020-11-14,21:06:38,21:36:13,NA,incomplete,33,filling,0,right,Purple_Plus_Chess_4.jpg,Purple_Star_Dots_3.jpg,Blue_Triangle_Chess_1.jpg,right,773.3100000186823,true,high,false
LIw8WsuF,3ygyp13654mlicup3w1l36spsdqnrt,3yj6na41jft6atlj28a6uo7lu13pjo,LIw8WsuF,2020-0188,2020-11-14,21:06:38,21:36:13,NA,incomplete,34,filling,1,right,Green_Plus_Stripes_3.jpg,Green_Triangle_Dots_1.jpg,Purple_Circle_Stripes_4.jpg,right,964.1699999920093,true,high,false
LIw8WsuF,3ygyp13654mlicup3w1l36spsdqnrt,3yj6na41jft6atlj28a6uo7lu13pjo,LIw8WsuF,2020-0188,2020-11-14,21:06:38,21:36:13,NA,incomplete,35,filling,0,left,Green_Circle_Stripes_4.jpg,Blue_Plus_Stripes_2.jpg,Green_Star_Grid_1.jpg,left,856.9849999912549,true,high,false
LIw8WsuF,3ygyp13654mlicup3w1l36spsdqnrt,3yj6na41jft6atlj28a6uo7lu13pjo,LIw8WsuF,2020-0188,2020-11-14,21:06:38,21:36:13,NA,incomplete,36,filling,1,right,Green_Star_Grid_3.jpg,Green_Plus_Chess_1.jpg,Blue_Triangle_Grid_2.jpg,right,886.3750000018626,true,high,false
LIw8WsuF,3ygyp13654mlicup3w1l36spsdqnrt,3yj6na41jft6atlj28a6uo7lu13pjo,LIw8WsuF,2020-0188,2020-11-14,21:06:38,21:36:13,NA,incomplete,37,filling,1,right,Blue_Star_Dots_4.jpg,Blue_Circle_Grid_2.jpg,Green_Triangle_Dots_3.jpg,right,924.9199999903794,true,high,false
LIw8WsuF,3ygyp13654mlicup3w1l36spsdqnrt,3yj6na41jft6atlj28a6uo7lu13pjo,LIw8WsuF,2020-0188,2020-11-14,21:06:38,21:36:13,NA,incomplete,38,filling,0,left,Red_Circle_Dots_4.jpg,Blue_Star_Dots_3.jpg,Red_Triangle_Grid_1.jpg,left,914.2649999994319,true,high,false
LIw8WsuF,3ygyp13654mlicup3w1l36spsdqnrt,3yj6na41jft6atlj28a6uo7lu13pjo,LIw8WsuF,2020-0188,2020-11-14,21:06:38,21:36:13,NA,incomplete,39,filling,1,right,Purple_Plus_Dots_2.jpg,Purple_Circle_Stripes_3.jpg,Red_Triangle_Dots_1.jpg,right,981.7499999771826,true,high,false
LIw8WsuF,3ygyp13654mlicup3w1l36spsdqnrt,3yj6na41jft6atlj28a6uo7lu13pjo,LIw8WsuF,2020-0188,2020-11-14,21:06:38,21:36:13,NA,incomplete,40,color,0,left,Purple_Circle_Stripes_3.jpg,Purple_Triangle_Grid_1.jpg,Green_Star_Stripes_4.jpg,right,960.8450000232551,false,high,false
LIw8WsuF,3ygyp13654mlicup3w1l36spsdqnrt,3yj6na41jft6atlj28a6uo7lu13pjo,LIw8WsuF,2020-0188,2020-11-14,21:06:38,21:36:13,NA,incomplete,41,color,1,left,Blue_Triangle_Chess_1.jpg,Blue_Circle_Dots_3.jpg,Purple_Star_Chess_2.jpg,right,851.1799999978393,false,high,false
LIw8WsuF,3ygyp13654mlicup3w1l36spsdqnrt,3yj6na41jft6atlj28a6uo7lu13pjo,LIw8WsuF,2020-0188,2020-11-14,21:06:38,21:36:13,NA,incomplete,42,color,0,right,Red_Star_Dots_3.jpg,Blue_Circle_Dots_4.jpg,Red_Triangle_Stripes_1.jpg,left,1014.5199999969918,false,high,false
LIw8WsuF,3ygyp13654mlicup3w1l36spsdqnrt,3yj6na41jft6atlj28a6uo7lu13pjo,LIw8WsuF,2020-0188,2020-11-14,21:06:38,21:36:13,NA,incomplete,43,color,1,left,Purple_Plus_Stripes_2.jpg,Purple_Triangle_Chess_1.jpg,Blue_Star_Stripes_3.jpg,right,863.7650000164285,false,high,false
LIw8WsuF,3ygyp13654mlicup3w1l36spsdqnrt,3yj6na41jft6atlj28a6uo7lu13pjo,LIw8WsuF,2020-0188,2020-11-14,21:06:38,21:36:13,NA,incomplete,44,color,1,left,Red_Plus_Dots_4.jpg,Red_Triangle_Chess_3.jpg,Green_Circle_Dots_2.jpg,right,842.4399999785237,false,high,false
LIw8WsuF,3ygyp13654mlicup3w1l36spsdqnrt,3yj6na41jft6atlj28a6uo7lu13pjo,LIw8WsuF,2020-0188,2020-11-14,21:06:38,21:36:13,NA,incomplete,45,color,1,left,Blue_Star_Stripes_1.jpg,Blue_Plus_Dots_3.jpg,Green_Triangle_Stripes_2.jpg,left,597.1750000026077,true,high,false
LIw8WsuF,3ygyp13654mlicup3w1l36spsdqnrt,3yj6na41jft6atlj28a6uo7lu13pjo,LIw8WsuF,2020-0188,2020-11-14,21:06:38,21:36:13,NA,incomplete,46,color,1,right,Purple_Circle_Grid_3.jpg,Red_Plus_Grid_4.jpg,Purple_Triangle_Chess_2.jpg,right,585.5149999842979,true,high,false
LIw8WsuF,3ygyp13654mlicup3w1l36spsdqnrt,3yj6na41jft6atlj28a6uo7lu13pjo,LIw8WsuF,2020-0188,2020-11-14,21:06:38,21:36:13,NA,incomplete,47,color,1,left,Green_Star_Stripes_4.jpg,Green_Triangle_Chess_1.jpg,Blue_Circle_Stripes_2.jpg,left,559.3750000116415,true,high,false
LIw8WsuF,3ygyp13654mlicup3w1l36spsdqnrt,3yj6na41jft6atlj28a6uo7lu13pjo,LIw8WsuF,2020-0188,2020-11-14,21:06:38,21:36:13,NA,incomplete,48,color,1,left,Red_Triangle_Grid_1.jpg,Red_Circle_Dots_3.jpg,Green_Star_Grid_4.jpg,left,690.5050000059418,true,high,false
LIw8WsuF,3ygyp13654mlicup3w1l36spsdqnrt,3yj6na41jft6atlj28a6uo7lu13pjo,LIw8WsuF,2020-0188,2020-11-14,21:06:38,21:36:13,NA,incomplete,49,color,1,left,Red_Plus_Grid_2.jpg,Red_Star_Dots_3.jpg,Purple_Triangle_Grid_4.jpg,left,634.0950000158045,true,high,false
LIw8WsuF,3ygyp13654mlicup3w1l36spsdqnrt,3yj6na41jft6atlj28a6uo7lu13pjo,LIw8WsuF,2020-0188,2020-11-14,21:06:38,21:36:13,NA,incomplete,50,filling,0,right,Green_Star_Grid_2.jpg,Green_Plus_Dots_4.jpg,Blue_Circle_Grid_3.jpg,left,679.7400000214111,false,high,false
LIw8WsuF,3ygyp13654mlicup3w1l36spsdqnrt,3yj6na41jft6atlj28a6uo7lu13pjo,LIw8WsuF,2020-0188,2020-11-14,21:06:38,21:36:13,NA,incomplete,51,filling,0,left,Red_Triangle_Stripes_1.jpg,Green_Circle_Stripes_4.jpg,Red_Plus_Chess_2.jpg,right,709.340000001248,false,high,false
LIw8WsuF,3ygyp13654mlicup3w1l36spsdqnrt,3yj6na41jft6atlj28a6uo7lu13pjo,LIw8WsuF,2020-0188,2020-11-14,21:06:38,21:36:13,NA,incomplete,52,filling,1,right,Green_Triangle_Stripes_1.jpg,Green_Star_Grid_3.jpg,Blue_Circle_Stripes_4.jpg,left,529.3349999992643,false,high,false
LIw8WsuF,3ygyp13654mlicup3w1l36spsdqnrt,3yj6na41jft6atlj28a6uo7lu13pjo,LIw8WsuF,2020-0188,2020-11-14,21:06:38,21:36:13,NA,incomplete,53,filling,1,right,Red_Triangle_Chess_1.jpg,Red_Plus_Grid_4.jpg,Green_Star_Chess_2.jpg,left,623.5450000094716,false,high,false
LIw8WsuF,3ygyp13654mlicup3w1l36spsdqnrt,3yj6na41jft6atlj28a6uo7lu13pjo,LIw8WsuF,2020-0188,2020-11-14,21:06:38,21:36:13,NA,incomplete,54,filling,0,left,Purple_Triangle_Chess_2.jpg,Green_Star_Chess_3.jpg,Purple_Circle_Grid_1.jpg,left,829.5550000038929,true,high,false
LIw8WsuF,3ygyp13654mlicup3w1l36spsdqnrt,3yj6na41jft6atlj28a6uo7lu13pjo,LIw8WsuF,2020-0188,2020-11-14,21:06:38,21:36:13,NA,incomplete,55,filling,1,right,Green_Plus_Dots_3.jpg,Green_Star_Grid_4.jpg,Red_Triangle_Dots_1.jpg,right,778.695000015432,true,high,false
LIw8WsuF,3ygyp13654mlicup3w1l36spsdqnrt,3yj6na41jft6atlj28a6uo7lu13pjo,LIw8WsuF,2020-0188,2020-11-14,21:06:38,21:36:13,NA,incomplete,56,filling,1,right,Red_Triangle_Grid_3.jpg,Red_Circle_Dots_2.jpg,Purple_Star_Grid_1.jpg,right,830.534999986412,true,high,false
LIw8WsuF,3ygyp13654mlicup3w1l36spsdqnrt,3yj6na41jft6atlj28a6uo7lu13pjo,LIw8WsuF,2020-0188,2020-11-14,21:06:38,21:36:13,NA,incomplete,57,filling,1,left,Purple_Triangle_Grid_1.jpg,Green_Plus_Grid_3.jpg,Purple_Circle_Stripes_2.jpg,left,832.010000012815,true,high,false
LIw8WsuF,3ygyp13654mlicup3w1l36spsdqnrt,3yj6na41jft6atlj28a6uo7lu13pjo,LIw8WsuF,2020-0188,2020-11-14,21:06:38,21:36:13,NA,incomplete,58,filling,1,right,Purple_Star_Stripes_4.jpg,Purple_Circle_Dots_3.jpg,Red_Triangle_Stripes_1.jpg,right,798.5050000133924,true,high,false
LIw8WsuF,3ygyp13654mlicup3w1l36spsdqnrt,3yj6na41jft6atlj28a6uo7lu13pjo,LIw8WsuF,2020-0188,2020-11-14,21:06:38,21:36:13,NA,incomplete,59,filling,1,right,Blue_Star_Stripes_3.jpg,Blue_Plus_Chess_1.jpg,Red_Triangle_Stripes_4.jpg,right,1048.225000005914,true,high,false
LIw8WsuF,3ygyp13654mlicup3w1l36spsdqnrt,3yj6na41jft6atlj28a6uo7lu13pjo,LIw8WsuF,2020-0188,2020-11-14,21:06:38,21:36:13,NA,incomplete,60,color,1,right,Red_Triangle_Chess_1.jpg,Purple_Star_Chess_4.jpg,Red_Plus_Stripes_2.jpg,left,896.0150000057183,false,high,false
LIw8WsuF,3ygyp13654mlicup3w1l36spsdqnrt,3yj6na41jft6atlj28a6uo7lu13pjo,LIw8WsuF,2020-0188,2020-11-14,21:06:38,21:36:13,NA,incomplete,61,color,1,left,Purple_Star_Grid_3.jpg,Purple_Plus_Dots_1.jpg,Green_Triangle_Grid_4.jpg,right,1094.9200000031851,false,high,false
LIw8WsuF,3ygyp13654mlicup3w1l36spsdqnrt,3yj6na41jft6atlj28a6uo7lu13pjo,LIw8WsuF,2020-0188,2020-11-14,21:06:38,21:36:13,NA,incomplete,62,color,1,left,Green_Plus_Stripes_1.jpg,Green_Triangle_Grid_3.jpg,Blue_Star_Stripes_4.jpg,left,876.5150000108406,true,high,false
LIw8WsuF,3ygyp13654mlicup3w1l36spsdqnrt,3yj6na41jft6atlj28a6uo7lu13pjo,LIw8WsuF,2020-0188,2020-11-14,21:06:38,21:36:13,NA,incomplete,63,color,0,right,Green_Star_Dots_1.jpg,Red_Triangle_Dots_3.jpg,Green_Plus_Chess_2.jpg,right,507.9799999948591,true,high,false
LIw8WsuF,3ygyp13654mlicup3w1l36spsdqnrt,3yj6na41jft6atlj28a6uo7lu13pjo,LIw8WsuF,2020-0188,2020-11-14,21:06:38,21:36:13,NA,incomplete,64,color,1,left,Blue_Star_Dots_1.jpg,Blue_Triangle_Stripes_4.jpg,Red_Plus_Dots_2.jpg,left,1011.7249999893829,true,high,false
LIw8WsuF,3ygyp13654mlicup3w1l36spsdqnrt,3yj6na41jft6atlj28a6uo7lu13pjo,LIw8WsuF,2020-0188,2020-11-14,21:06:38,21:36:13,NA,incomplete,65,color,1,right,Red_Triangle_Stripes_4.jpg,Blue_Plus_Stripes_3.jpg,Red_Circle_Chess_1.jpg,right,949.529999983497,true,high,false
LIw8WsuF,3ygyp13654mlicup3w1l36spsdqnrt,3yj6na41jft6atlj28a6uo7lu13pjo,LIw8WsuF,2020-0188,2020-11-14,21:06:38,21:36:13,NA,incomplete,66,color,1,left,Purple_Plus_Chess_4.jpg,Purple_Star_Dots_1.jpg,Blue_Triangle_Chess_3.jpg,left,763.5649999720044,true,high,false
LIw8WsuF,3ygyp13654mlicup3w1l36spsdqnrt,3yj6na41jft6atlj28a6uo7lu13pjo,LIw8WsuF,2020-0188,2020-11-14,21:06:38,21:36:13,NA,incomplete,67,color,1,right,Red_Star_Stripes_3.jpg,Purple_Plus_Stripes_4.jpg,Red_Circle_Grid_1.jpg,right,712.3300000093877,true,high,false
LIw8WsuF,3ygyp13654mlicup3w1l36spsdqnrt,3yj6na41jft6atlj28a6uo7lu13pjo,LIw8WsuF,2020-0188,2020-11-14,21:06:38,21:36:13,NA,incomplete,68,color,1,left,Red_Circle_Stripes_1.jpg,Red_Star_Grid_4.jpg,Green_Plus_Stripes_3.jpg,left,720.2549999929033,true,high,false
LIw8WsuF,3ygyp13654mlicup3w1l36spsdqnrt,3yj6na41jft6atlj28a6uo7lu13pjo,LIw8WsuF,2020-0188,2020-11-14,21:06:38,21:36:13,NA,incomplete,69,color,1,left,Red_Star_Grid_2.jpg,Red_Triangle_Dots_1.jpg,Blue_Circle_Grid_4.jpg,left,568.0749999883119,true,high,false
LIw8WsuF,3ygyp13654mlicup3w1l36spsdqnrt,3yj6na41jft6atlj28a6uo7lu13pjo,LIw8WsuF,2020-0188,2020-11-14,21:06:38,21:36:13,NA,incomplete,70,filling,1,right,Blue_Plus_Grid_2.jpg,Blue_Triangle_Dots_3.jpg,Purple_Circle_Grid_4.jpg,left,613.3449999906588,false,high,false
LIw8WsuF,3ygyp13654mlicup3w1l36spsdqnrt,3yj6na41jft6atlj28a6uo7lu13pjo,LIw8WsuF,2020-0188,2020-11-14,21:06:38,21:36:13,NA,incomplete,71,filling,0,left,Blue_Plus_Stripes_2.jpg,Green_Star_Stripes_1.jpg,Blue_Circle_Dots_3.jpg,right,649.9600000097416,false,high,false
LIw8WsuF,3ygyp13654mlicup3w1l36spsdqnrt,3yj6na41jft6atlj28a6uo7lu13pjo,LIw8WsuF,2020-0188,2020-11-14,21:06:38,21:36:13,NA,incomplete,72,filling,1,right,Red_Circle_Chess_3.jpg,Red_Star_Dots_2.jpg,Green_Triangle_Chess_1.jpg,left,593.0349999980535,false,high,false
LIw8WsuF,3ygyp13654mlicup3w1l36spsdqnrt,3yj6na41jft6atlj28a6uo7lu13pjo,LIw8WsuF,2020-0188,2020-11-14,21:06:38,21:36:13,NA,incomplete,73,filling,1,right,Purple_Plus_Stripes_1.jpg,Purple_Triangle_Grid_2.jpg,Blue_Star_Stripes_3.jpg,left,655.125000019325,false,high,false
LIw8WsuF,3ygyp13654mlicup3w1l36spsdqnrt,3yj6na41jft6atlj28a6uo7lu13pjo,LIw8WsuF,2020-0188,2020-11-14,21:06:38,21:36:13,NA,incomplete,74,filling,1,left,Red_Star_Dots_1.jpg,Purple_Circle_Dots_3.jpg,Red_Triangle_Chess_2.jpg,left,791.3300000072923,true,high,false
LIw8WsuF,3ygyp13654mlicup3w1l36spsdqnrt,3yj6na41jft6atlj28a6uo7lu13pjo,LIw8WsuF,2020-0188,2020-11-14,21:06:38,21:36:13,NA,incomplete,75,filling,1,left,Red_Plus_Grid_2.jpg,Purple_Triangle_Grid_3.jpg,Red_Star_Chess_1.jpg,left,755.0150000024587,true,high,false
LIw8WsuF,3ygyp13654mlicup3w1l36spsdqnrt,3yj6na41jft6atlj28a6uo7lu13pjo,LIw8WsuF,2020-0188,2020-11-14,21:06:38,21:36:13,NA,incomplete,76,filling,1,left,Red_Plus_Grid_4.jpg,Purple_Triangle_Grid_2.jpg,Red_Star_Dots_1.jpg,left,770.7700000028126,true,high,false
LIw8WsuF,3ygyp13654mlicup3w1l36spsdqnrt,3yj6na41jft6atlj28a6uo7lu13pjo,LIw8WsuF,2020-0188,2020-11-14,21:06:38,21:36:13,NA,incomplete,77,filling,1,right,Blue_Triangle_Dots_4.jpg,Blue_Star_Grid_1.jpg,Red_Plus_Dots_2.jpg,right,771.7399999964982,true,high,false
LIw8WsuF,3ygyp13654mlicup3w1l36spsdqnrt,3yj6na41jft6atlj28a6uo7lu13pjo,LIw8WsuF,2020-0188,2020-11-14,21:06:38,21:36:13,NA,incomplete,78,filling,1,left,Blue_Circle_Grid_4.jpg,Purple_Triangle_Grid_3.jpg,Blue_Star_Dots_2.jpg,left,768.3850000030361,true,high,false
LIw8WsuF,3ygyp13654mlicup3w1l36spsdqnrt,3yj6na41jft6atlj28a6uo7lu13pjo,LIw8WsuF,2020-0188,2020-11-14,21:06:38,21:36:13,NA,incomplete,79,filling,1,right,Purple_Triangle_Stripes_4.jpg,Purple_Star_Dots_1.jpg,Red_Plus_Stripes_3.jpg,right,754.4850000122096,true,high,false
LIw8WsuF,3ygyp13654mlicup3w1l36spsdqnrt,3yj6na41jft6atlj28a6uo7lu13pjo,LIw8WsuF,2020-0188,2020-11-14,21:06:38,21:36:13,NA,incomplete,80,color,1,left,Blue_Triangle_Chess_1.jpg,Blue_Plus_Stripes_4.jpg,Green_Star_Chess_2.jpg,right,754.9899999867193,false,high,false
LIw8WsuF,3ygyp13654mlicup3w1l36spsdqnrt,3yj6na41jft6atlj28a6uo7lu13pjo,LIw8WsuF,2020-0188,2020-11-14,21:06:38,21:36:13,NA,incomplete,81,color,1,left,Red_Triangle_Chess_4.jpg,Red_Plus_Stripes_1.jpg,Purple_Star_Chess_2.jpg,right,864.079999999376,false,high,false
LIw8WsuF,3ygyp13654mlicup3w1l36spsdqnrt,3yj6na41jft6atlj28a6uo7lu13pjo,LIw8WsuF,2020-0188,2020-11-14,21:06:38,21:36:13,NA,incomplete,82,color,1,left,Green_Plus_Chess_1.jpg,Green_Triangle_Grid_4.jpg,Blue_Circle_Chess_2.jpg,left,526.2150000198744,true,high,false
LIw8WsuF,3ygyp13654mlicup3w1l36spsdqnrt,3yj6na41jft6atlj28a6uo7lu13pjo,LIw8WsuF,2020-0188,2020-11-14,21:06:38,21:36:13,NA,incomplete,83,color,1,right,Blue_Circle_Chess_1.jpg,Green_Plus_Chess_4.jpg,Blue_Star_Grid_2.jpg,right,481.27499999827705,true,high,false
LIw8WsuF,3ygyp13654mlicup3w1l36spsdqnrt,3yj6na41jft6atlj28a6uo7lu13pjo,LIw8WsuF,2020-0188,2020-11-14,21:06:38,21:36:13,NA,incomplete,84,color,1,left,Red_Plus_Stripes_2.jpg,Red_Star_Dots_1.jpg,Blue_Circle_Stripes_3.jpg,left,565.2350000164006,true,high,false
LIw8WsuF,3ygyp13654mlicup3w1l36spsdqnrt,3yj6na41jft6atlj28a6uo7lu13pjo,LIw8WsuF,2020-0188,2020-11-14,21:06:38,21:36:13,NA,incomplete,85,color,1,right,Purple_Circle_Grid_2.jpg,Red_Star_Grid_1.jpg,Purple_Plus_Chess_4.jpg,right,541.6949999926146,true,high,false
LIw8WsuF,3ygyp13654mlicup3w1l36spsdqnrt,3yj6na41jft6atlj28a6uo7lu13pjo,LIw8WsuF,2020-0188,2020-11-14,21:06:38,21:36:13,NA,incomplete,86,color,1,right,Purple_Triangle_Stripes_4.jpg,Green_Plus_Stripes_2.jpg,Purple_Star_Grid_3.jpg,right,506.26500000362284,true,high,false
LIw8WsuF,3ygyp13654mlicup3w1l36spsdqnrt,3yj6na41jft6atlj28a6uo7lu13pjo,LIw8WsuF,2020-0188,2020-11-14,21:06:38,21:36:13,NA,incomplete,87,color,0,left,Blue_Triangle_Dots_4.jpg,Blue_Star_Stripes_3.jpg,Red_Circle_Dots_2.jpg,left,576.0949999967124,true,high,false
LIw8WsuF,3ygyp13654mlicup3w1l36spsdqnrt,3yj6na41jft6atlj28a6uo7lu13pjo,LIw8WsuF,2020-0188,2020-11-14,21:06:38,21:36:13,NA,incomplete,88,color,1,left,Purple_Circle_Grid_1.jpg,Purple_Triangle_Dots_3.jpg,Red_Plus_Grid_4.jpg,left,621.3699999789242,true,high,false
LIw8WsuF,3ygyp13654mlicup3w1l36spsdqnrt,3yj6na41jft6atlj28a6uo7lu13pjo,LIw8WsuF,2020-0188,2020-11-14,21:06:38,21:36:13,NA,incomplete,89,color,1,right,Green_Triangle_Grid_4.jpg,Blue_Star_Grid_1.jpg,Green_Circle_Dots_2.jpg,right,537.5250000215601,true,high,false
LIw8WsuF,3ygyp13654mlicup3w1l36spsdqnrt,3yj6na41jft6atlj28a6uo7lu13pjo,LIw8WsuF,2020-0188,2020-11-14,21:06:38,21:36:13,NA,incomplete,90,filling,0,right,Purple_Star_Chess_3.jpg,Purple_Circle_Stripes_2.jpg,Green_Triangle_Chess_1.jpg,left,599.9599999922793,false,high,false
LIw8WsuF,3ygyp13654mlicup3w1l36spsdqnrt,3yj6na41jft6atlj28a6uo7lu13pjo,LIw8WsuF,2020-0188,2020-11-14,21:06:38,21:36:13,NA,incomplete,91,filling,1,right,Blue_Star_Grid_3.jpg,Blue_Triangle_Stripes_4.jpg,Purple_Circle_Grid_2.jpg,left,641.6550000139978,false,high,false
LIw8WsuF,3ygyp13654mlicup3w1l36spsdqnrt,3yj6na41jft6atlj28a6uo7lu13pjo,LIw8WsuF,2020-0188,2020-11-14,21:06:38,21:36:13,NA,incomplete,92,filling,1,right,Green_Circle_Dots_3.jpg,Green_Plus_Chess_4.jpg,Red_Triangle_Dots_2.jpg,left,556.6849999886472,false,high,false
LIw8WsuF,3ygyp13654mlicup3w1l36spsdqnrt,3yj6na41jft6atlj28a6uo7lu13pjo,LIw8WsuF,2020-0188,2020-11-14,21:06:38,21:36:13,NA,incomplete,93,filling,1,right,Green_Star_Chess_1.jpg,Green_Plus_Stripes_4.jpg,Red_Circle_Chess_2.jpg,right,709.2100000008941,true,high,false
LIw8WsuF,3ygyp13654mlicup3w1l36spsdqnrt,3yj6na41jft6atlj28a6uo7lu13pjo,LIw8WsuF,2020-0188,2020-11-14,21:06:38,21:36:13,NA,incomplete,94,filling,1,left,Blue_Star_Grid_2.jpg,Purple_Circle_Grid_4.jpg,Blue_Plus_Dots_3.jpg,left,940.9749999758787,true,high,false
LIw8WsuF,3ygyp13654mlicup3w1l36spsdqnrt,3yj6na41jft6atlj28a6uo7lu13pjo,LIw8WsuF,2020-0188,2020-11-14,21:06:38,21:36:13,NA,incomplete,95,filling,1,right,Purple_Star_Chess_4.jpg,Purple_Plus_Dots_1.jpg,Blue_Triangle_Chess_3.jpg,right,914.9449999968056,true,high,false
LIw8WsuF,3ygyp13654mlicup3w1l36spsdqnrt,3yj6na41jft6atlj28a6uo7lu13pjo,LIw8WsuF,2020-0188,2020-11-14,21:06:38,21:36:13,NA,incomplete,96,filling,1,right,Blue_Triangle_Dots_4.jpg,Blue_Star_Chess_1.jpg,Purple_Circle_Dots_3.jpg,right,749.4400000141468,true,high,false
LIw8WsuF,3ygyp13654mlicup3w1l36spsdqnrt,3yj6na41jft6atlj28a6uo7lu13pjo,LIw8WsuF,2020-0188,2020-11-14,21:06:38,21:36:13,NA,incomplete,97,filling,1,right,Blue_Triangle_Dots_4.jpg,Blue_Circle_Chess_1.jpg,Purple_Star_Dots_3.jpg,right,825.2849999989849,true,high,false
LIw8WsuF,3ygyp13654mlicup3w1l36spsdqnrt,3yj6na41jft6atlj28a6uo7lu13pjo,LIw8WsuF,2020-0188,2020-11-14,21:06:38,21:36:13,NA,incomplete,98,filling,1,right,Purple_Circle_Dots_3.jpg,Purple_Plus_Chess_1.jpg,Red_Star_Dots_4.jpg,left,747.55999998888,false,high,false
LIw8WsuF,3ygyp13654mlicup3w1l36spsdqnrt,3yj6na41jft6atlj28a6uo7lu13pjo,LIw8WsuF,2020-0188,2020-11-14,21:06:38,21:36:13,NA,incomplete,99,filling,1,left,Green_Plus_Dots_2.jpg,Blue_Triangle_Dots_4.jpg,Green_Circle_Stripes_1.jpg,left,1118.8250000122935,true,high,false
LIw8WsuF,3ygyp13654mlicup3w1l36spsdqnrt,3yj6na41jft6atlj28a6uo7lu13pjo,LIw8WsuF,2020-0188,2020-11-14,21:06:38,21:36:13,NA,incomplete,100,color,1,left,Red_Plus_Dots_4.jpg,Red_Star_Chess_3.jpg,Purple_Circle_Dots_1.jpg,right,800.134999997681,false,high,false
LIw8WsuF,3ygyp13654mlicup3w1l36spsdqnrt,3yj6na41jft6atlj28a6uo7lu13pjo,LIw8WsuF,2020-0188,2020-11-14,21:06:38,21:36:13,NA,incomplete,101,color,1,right,Green_Circle_Chess_1.jpg,Purple_Star_Chess_2.jpg,Green_Plus_Dots_3.jpg,right,686.27999999444,true,high,false
LIw8WsuF,3ygyp13654mlicup3w1l36spsdqnrt,3yj6na41jft6atlj28a6uo7lu13pjo,LIw8WsuF,2020-0188,2020-11-14,21:06:38,21:36:13,NA,incomplete,102,color,1,right,Purple_Circle_Grid_4.jpg,Blue_Triangle_Grid_2.jpg,Purple_Star_Chess_3.jpg,right,524.1199999873061,true,high,false
LIw8WsuF,3ygyp13654mlicup3w1l36spsdqnrt,3yj6na41jft6atlj28a6uo7lu13pjo,LIw8WsuF,2020-0188,2020-11-14,21:06:38,21:36:13,NA,incomplete,103,color,1,right,Green_Plus_Stripes_1.jpg,Blue_Circle_Stripes_2.jpg,Green_Star_Grid_4.jpg,right,498.8899999880232,true,high,false
LIw8WsuF,3ygyp13654mlicup3w1l36spsdqnrt,3yj6na41jft6atlj28a6uo7lu13pjo,LIw8WsuF,2020-0188,2020-11-14,21:06:38,21:36:13,NA,incomplete,104,color,0,left,Red_Circle_Stripes_3.jpg,Red_Plus_Dots_1.jpg,Purple_Triangle_Stripes_4.jpg,left,545.0199999904726,true,high,false
LIw8WsuF,3ygyp13654mlicup3w1l36spsdqnrt,3yj6na41jft6atlj28a6uo7lu13pjo,LIw8WsuF,2020-0188,2020-11-14,21:06:38,21:36:13,NA,incomplete,105,color,1,left,Blue_Star_Stripes_4.jpg,Blue_Circle_Dots_3.jpg,Red_Plus_Stripes_2.jpg,right,678.10499999905,false,high,false
LIw8WsuF,3ygyp13654mlicup3w1l36spsdqnrt,3yj6na41jft6atlj28a6uo7lu13pjo,LIw8WsuF,2020-0188,2020-11-14,21:06:38,21:36:13,NA,incomplete,106,color,1,left,Purple_Star_Chess_2.jpg,Purple_Triangle_Dots_1.jpg,Blue_Circle_Chess_4.jpg,left,667.2450000187382,true,high,false
LIw8WsuF,3ygyp13654mlicup3w1l36spsdqnrt,3yj6na41jft6atlj28a6uo7lu13pjo,LIw8WsuF,2020-0188,2020-11-14,21:06:38,21:36:13,NA,incomplete,107,color,1,right,Red_Circle_Stripes_1.jpg,Green_Plus_Stripes_3.jpg,Red_Star_Dots_4.jpg,right,523.2599999872036,true,high,false
LIw8WsuF,3ygyp13654mlicup3w1l36spsdqnrt,3yj6na41jft6atlj28a6uo7lu13pjo,LIw8WsuF,2020-0188,2020-11-14,21:06:38,21:36:13,NA,incomplete,108,color,1,right,Blue_Triangle_Grid_4.jpg,Green_Plus_Grid_2.jpg,Blue_Star_Stripes_1.jpg,right,528.4350000147242,true,high,false
LIw8WsuF,3ygyp13654mlicup3w1l36spsdqnrt,3yj6na41jft6atlj28a6uo7lu13pjo,LIw8WsuF,2020-0188,2020-11-14,21:06:38,21:36:13,NA,incomplete,109,color,0,right,Purple_Star_Dots_1.jpg,Blue_Plus_Dots_2.jpg,Purple_Triangle_Chess_4.jpg,right,602.710000006482,true,high,false
LIw8WsuF,3ygyp13654mlicup3w1l36spsdqnrt,3yj6na41jft6atlj28a6uo7lu13pjo,LIw8WsuF,2020-0188,2020-11-14,21:06:38,21:36:13,NA,incomplete,110,filling,1,right,Purple_Triangle_Chess_4.jpg,Purple_Star_Dots_1.jpg,Blue_Plus_Chess_2.jpg,left,601.1350000044331,false,high,false
LIw8WsuF,3ygyp13654mlicup3w1l36spsdqnrt,3yj6na41jft6atlj28a6uo7lu13pjo,LIw8WsuF,2020-0188,2020-11-14,21:06:38,21:36:13,NA,incomplete,111,filling,1,right,Red_Triangle_Grid_4.jpg,Red_Star_Chess_2.jpg,Blue_Plus_Grid_1.jpg,right,762.1600000129547,true,high,false
LIw8WsuF,3ygyp13654mlicup3w1l36spsdqnrt,3yj6na41jft6atlj28a6uo7lu13pjo,LIw8WsuF,2020-0188,2020-11-14,21:06:38,21:36:13,NA,incomplete,112,filling,1,left,Red_Star_Chess_3.jpg,Green_Triangle_Chess_4.jpg,Red_Circle_Stripes_1.jpg,left,847.4649999989197,true,high,false
LIw8WsuF,3ygyp13654mlicup3w1l36spsdqnrt,3yj6na41jft6atlj28a6uo7lu13pjo,LIw8WsuF,2020-0188,2020-11-14,21:06:38,21:36:13,NA,incomplete,113,filling,1,left,Purple_Plus_Chess_2.jpg,Red_Star_Chess_3.jpg,Purple_Triangle_Dots_4.jpg,left,641.9449999812059,true,high,false
LIw8WsuF,3ygyp13654mlicup3w1l36spsdqnrt,3yj6na41jft6atlj28a6uo7lu13pjo,LIw8WsuF,2020-0188,2020-11-14,21:06:38,21:36:13,NA,incomplete,114,filling,1,left,Purple_Star_Grid_1.jpg,Red_Plus_Grid_2.jpg,Purple_Triangle_Dots_3.jpg,left,878.4600000071805,true,high,false
LIw8WsuF,3ygyp13654mlicup3w1l36spsdqnrt,3yj6na41jft6atlj28a6uo7lu13pjo,LIw8WsuF,2020-0188,2020-11-14,21:06:38,21:36:13,NA,incomplete,115,filling,1,right,Red_Plus_Grid_4.jpg,Red_Star_Dots_3.jpg,Purple_Triangle_Grid_1.jpg,right,826.0699999809731,true,high,false
LIw8WsuF,3ygyp13654mlicup3w1l36spsdqnrt,3yj6na41jft6atlj28a6uo7lu13pjo,LIw8WsuF,2020-0188,2020-11-14,21:06:38,21:36:13,NA,incomplete,116,filling,0,left,Red_Triangle_Dots_4.jpg,Blue_Circle_Dots_3.jpg,Red_Plus_Grid_1.jpg,left,779.9300000187941,true,high,false
LIw8WsuF,3ygyp13654mlicup3w1l36spsdqnrt,3yj6na41jft6atlj28a6uo7lu13pjo,LIw8WsuF,2020-0188,2020-11-14,21:06:38,21:36:13,NA,incomplete,117,filling,0,right,Purple_Star_Chess_2.jpg,Purple_Circle_Grid_3.jpg,Green_Plus_Chess_4.jpg,right,743.6049999960233,true,high,false
LIw8WsuF,3ygyp13654mlicup3w1l36spsdqnrt,3yj6na41jft6atlj28a6uo7lu13pjo,LIw8WsuF,2020-0188,2020-11-14,21:06:38,21:36:13,NA,incomplete,118,filling,1,right,Purple_Circle_Grid_4.jpg,Purple_Star_Chess_1.jpg,Green_Plus_Grid_2.jpg,left,579.2700000165496,false,high,false
LIw8WsuF,3ygyp13654mlicup3w1l36spsdqnrt,3yj6na41jft6atlj28a6uo7lu13pjo,LIw8WsuF,2020-0188,2020-11-14,21:06:38,21:36:13,NA,incomplete,119,filling,1,right,Blue_Plus_Chess_4.jpg,Blue_Circle_Grid_2.jpg,Purple_Triangle_Chess_3.jpg,left,820.2799999853596,false,high,false
LIw8WsuF,3ygyp13654mlicup3w1l36spsdqnrt,3yj6na41jft6atlj28a6uo7lu13pjo,LIw8WsuF,2020-0188,2020-11-14,21:06:38,21:36:13,NA,incomplete,120,color,1,left,Purple_Circle_Dots_4.jpg,Purple_Triangle_Stripes_3.jpg,Green_Star_Dots_2.jpg,right,856.4499999920372,false,high,false
LIw8WsuF,3ygyp13654mlicup3w1l36spsdqnrt,3yj6na41jft6atlj28a6uo7lu13pjo,LIw8WsuF,2020-0188,2020-11-14,21:06:38,21:36:13,NA,incomplete,121,color,1,left,Red_Plus_Stripes_2.jpg,Red_Star_Dots_3.jpg,Blue_Circle_Stripes_1.jpg,left,563.7149999965914,true,high,false
LIw8WsuF,3ygyp13654mlicup3w1l36spsdqnrt,3yj6na41jft6atlj28a6uo7lu13pjo,LIw8WsuF,2020-0188,2020-11-14,21:06:38,21:36:13,NA,incomplete,122,color,1,left,Purple_Triangle_Grid_3.jpg,Purple_Plus_Stripes_1.jpg,Blue_Circle_Grid_2.jpg,left,563.1950000242796,true,high,false
LIw8WsuF,3ygyp13654mlicup3w1l36spsdqnrt,3yj6na41jft6atlj28a6uo7lu13pjo,LIw8WsuF,2020-0188,2020-11-14,21:06:38,21:36:13,NA,incomplete,123,color,0,left,Green_Star_Grid_4.jpg,Green_Plus_Chess_3.jpg,Red_Triangle_Grid_1.jpg,left,484.3899999978021,true,high,false
LIw8WsuF,3ygyp13654mlicup3w1l36spsdqnrt,3yj6na41jft6atlj28a6uo7lu13pjo,LIw8WsuF,2020-0188,2020-11-14,21:06:38,21:36:13,NA,incomplete,124,color,1,left,Green_Star_Grid_3.jpg,Green_Triangle_Dots_1.jpg,Red_Circle_Grid_2.jpg,right,685.5449999857228,false,high,false
LIw8WsuF,3ygyp13654mlicup3w1l36spsdqnrt,3yj6na41jft6atlj28a6uo7lu13pjo,LIw8WsuF,2020-0188,2020-11-14,21:06:38,21:36:13,NA,incomplete,125,color,1,left,Blue_Plus_Dots_3.jpg,Blue_Circle_Grid_2.jpg,Purple_Star_Dots_1.jpg,left,495.85999999544583,true,high,false
LIw8WsuF,3ygyp13654mlicup3w1l36spsdqnrt,3yj6na41jft6atlj28a6uo7lu13pjo,LIw8WsuF,2020-0188,2020-11-14,21:06:38,21:36:13,NA,incomplete,126,color,0,right,Red_Circle_Stripes_3.jpg,Blue_Plus_Stripes_2.jpg,Red_Triangle_Chess_1.jpg,right,509.30499998503365,true,high,false
LIw8WsuF,3ygyp13654mlicup3w1l36spsdqnrt,3yj6na41jft6atlj28a6uo7lu13pjo,LIw8WsuF,2020-0188,2020-11-14,21:06:38,21:36:13,NA,incomplete,127,color,1,right,Red_Circle_Chess_3.jpg,Purple_Triangle_Chess_4.jpg,Red_Star_Grid_2.jpg,right,504.7550000017509,true,high,false
LIw8WsuF,3ygyp13654mlicup3w1l36spsdqnrt,3yj6na41jft6atlj28a6uo7lu13pjo,LIw8WsuF,2020-0188,2020-11-14,21:06:38,21:36:13,NA,incomplete,128,color,1,left,Purple_Star_Stripes_3.jpg,Purple_Plus_Chess_4.jpg,Red_Circle_Stripes_1.jpg,left,511.56000001356006,true,high,false
LIw8WsuF,3ygyp13654mlicup3w1l36spsdqnrt,3yj6na41jft6atlj28a6uo7lu13pjo,LIw8WsuF,2020-0188,2020-11-14,21:06:38,21:36:13,NA,incomplete,129,color,0,right,Blue_Circle_Grid_1.jpg,Purple_Star_Grid_4.jpg,Blue_Plus_Dots_2.jpg,left,812.9900000058115,false,high,false
LIw8WsuF,3ygyp13654mlicup3w1l36spsdqnrt,3yj6na41jft6atlj28a6uo7lu13pjo,LIw8WsuF,2020-0188,2020-11-14,21:06:38,21:36:13,NA,incomplete,130,color,1,right,Purple_Plus_Stripes_3.jpg,Red_Triangle_Stripes_4.jpg,Purple_Star_Dots_1.jpg,right,871.4949999994133,true,high,false
LIw8WsuF,3ygyp13654mlicup3w1l36spsdqnrt,3yj6na41jft6atlj28a6uo7lu13pjo,LIw8WsuF,2020-0188,2020-11-14,21:06:38,21:36:13,NA,incomplete,131,color,0,left,Red_Plus_Chess_4.jpg,Red_Triangle_Dots_3.jpg,Purple_Star_Chess_1.jpg,left,760.100000014063,true,high,false
LIw8WsuF,3ygyp13654mlicup3w1l36spsdqnrt,3yj6na41jft6atlj28a6uo7lu13pjo,LIw8WsuF,2020-0188,2020-11-14,21:06:38,21:36:13,NA,incomplete,132,color,1,right,Red_Plus_Stripes_4.jpg,Green_Circle_Stripes_2.jpg,Red_Triangle_Grid_1.jpg,left,1154.9600000143982,false,high,false
LIw8WsuF,3ygyp13654mlicup3w1l36spsdqnrt,3yj6na41jft6atlj28a6uo7lu13pjo,LIw8WsuF,2020-0188,2020-11-14,21:06:38,21:36:13,NA,incomplete,133,color,0,right,Purple_Triangle_Stripes_2.jpg,Blue_Star_Stripes_3.jpg,Purple_Circle_Chess_4.jpg,right,710.2149999991525,true,high,false
LIw8WsuF,3ygyp13654mlicup3w1l36spsdqnrt,3yj6na41jft6atlj28a6uo7lu13pjo,LIw8WsuF,2020-0188,2020-11-14,21:06:38,21:36:13,NA,incomplete,134,color,1,right,Green_Circle_Grid_2.jpg,Purple_Plus_Grid_1.jpg,Green_Star_Chess_4.jpg,right,745.070000004489,true,high,false
LIw8WsuF,3ygyp13654mlicup3w1l36spsdqnrt,3yj6na41jft6atlj28a6uo7lu13pjo,LIw8WsuF,2020-0188,2020-11-14,21:06:38,21:36:13,NA,incomplete,135,color,1,left,Red_Plus_Grid_3.jpg,Red_Star_Chess_2.jpg,Blue_Triangle_Grid_1.jpg,left,641.9850000238512,true,high,false
LIw8WsuF,3ygyp13654mlicup3w1l36spsdqnrt,3yj6na41jft6atlj28a6uo7lu13pjo,LIw8WsuF,2020-0188,2020-11-14,21:06:38,21:36:13,NA,incomplete,136,color,1,left,Red_Star_Chess_3.jpg,Red_Plus_Grid_2.jpg,Green_Triangle_Chess_4.jpg,left,590.2700000151526,true,high,false
LIw8WsuF,3ygyp13654mlicup3w1l36spsdqnrt,3yj6na41jft6atlj28a6uo7lu13pjo,LIw8WsuF,2020-0188,2020-11-14,21:06:38,21:36:13,NA,incomplete,137,color,1,left,Purple_Triangle_Grid_2.jpg,Purple_Plus_Stripes_1.jpg,Green_Star_Grid_3.jpg,left,590.0499999988824,true,high,false
LIw8WsuF,3ygyp13654mlicup3w1l36spsdqnrt,3yj6na41jft6atlj28a6uo7lu13pjo,LIw8WsuF,2020-0188,2020-11-14,21:06:38,21:36:13,NA,incomplete,138,color,0,right,Purple_Triangle_Dots_3.jpg,Red_Circle_Dots_2.jpg,Purple_Plus_Chess_4.jpg,right,518.7349999905564,true,high,false
LIw8WsuF,3ygyp13654mlicup3w1l36spsdqnrt,3yj6na41jft6atlj28a6uo7lu13pjo,LIw8WsuF,2020-0188,2020-11-14,21:06:38,21:36:13,NA,incomplete,139,color,1,left,Red_Triangle_Dots_3.jpg,Red_Circle_Grid_1.jpg,Green_Star_Dots_4.jpg,left,563.72000000556,true,high,false
LIw8WsuF,3ygyp13654mlicup3w1l36spsdqnrt,3yj6na41jft6atlj28a6uo7lu13pjo,LIw8WsuF,2020-0188,2020-11-14,21:06:38,21:36:13,NA,incomplete,140,filling,1,right,Purple_Triangle_Stripes_3.jpg,Purple_Star_Grid_1.jpg,Red_Plus_Stripes_2.jpg,left,684.6999999834225,false,high,false
LIw8WsuF,3ygyp13654mlicup3w1l36spsdqnrt,3yj6na41jft6atlj28a6uo7lu13pjo,LIw8WsuF,2020-0188,2020-11-14,21:06:38,21:36:13,NA,incomplete,141,filling,1,left,Red_Triangle_Dots_3.jpg,Purple_Star_Dots_1.jpg,Red_Plus_Chess_4.jpg,right,691.0250000073574,false,high,false
LIw8WsuF,3ygyp13654mlicup3w1l36spsdqnrt,3yj6na41jft6atlj28a6uo7lu13pjo,LIw8WsuF,2020-0188,2020-11-14,21:06:38,21:36:13,NA,incomplete,142,filling,1,right,Blue_Plus_Dots_2.jpg,Blue_Star_Chess_3.jpg,Green_Circle_Dots_4.jpg,right,705.8949999918696,true,high,false
LIw8WsuF,3ygyp13654mlicup3w1l36spsdqnrt,3yj6na41jft6atlj28a6uo7lu13pjo,LIw8WsuF,2020-0188,2020-11-14,21:06:38,21:36:13,NA,incomplete,143,filling,1,right,Blue_Circle_Chess_3.jpg,Blue_Triangle_Dots_2.jpg,Green_Star_Chess_1.jpg,right,716.9700000085868,true,high,false
LIw8WsuF,3ygyp13654mlicup3w1l36spsdqnrt,3yj6na41jft6atlj28a6uo7lu13pjo,LIw8WsuF,2020-0188,2020-11-14,21:06:38,21:36:13,NA,incomplete,144,filling,1,right,Purple_Plus_Dots_4.jpg,Purple_Circle_Chess_2.jpg,Red_Triangle_Dots_1.jpg,right,901.9449999905191,true,high,false
LIw8WsuF,3ygyp13654mlicup3w1l36spsdqnrt,3yj6na41jft6atlj28a6uo7lu13pjo,LIw8WsuF,2020-0188,2020-11-14,21:06:38,21:36:13,NA,incomplete,145,filling,1,left,Blue_Triangle_Stripes_1.jpg,Red_Plus_Stripes_2.jpg,Blue_Star_Chess_3.jpg,left,646.1450000060722,true,high,false
LIw8WsuF,3ygyp13654mlicup3w1l36spsdqnrt,3yj6na41jft6atlj28a6uo7lu13pjo,LIw8WsuF,2020-0188,2020-11-14,21:06:38,21:36:13,NA,incomplete,146,filling,0,right,Blue_Triangle_Chess_2.jpg,Blue_Plus_Stripes_3.jpg,Red_Star_Chess_1.jpg,right,810.7000000018161,true,high,false
LIw8WsuF,3ygyp13654mlicup3w1l36spsdqnrt,3yj6na41jft6atlj28a6uo7lu13pjo,LIw8WsuF,2020-0188,2020-11-14,21:06:38,21:36:13,NA,incomplete,147,filling,1,right,Blue_Triangle_Grid_2.jpg,Blue_Star_Dots_4.jpg,Green_Circle_Grid_3.jpg,left,639.9499999824911,false,high,false
LIw8WsuF,3ygyp13654mlicup3w1l36spsdqnrt,3yj6na41jft6atlj28a6uo7lu13pjo,LIw8WsuF,2020-0188,2020-11-14,21:06:38,21:36:13,NA,incomplete,148,filling,0,left,Blue_Circle_Chess_1.jpg,Green_Triangle_Chess_3.jpg,Blue_Star_Grid_4.jpg,right,921.6250000172295,false,high,false
LIw8WsuF,3ygyp13654mlicup3w1l36spsdqnrt,3yj6na41jft6atlj28a6uo7lu13pjo,LIw8WsuF,2020-0188,2020-11-14,21:06:38,21:36:13,NA,incomplete,149,filling,1,right,Purple_Star_Dots_3.jpg,Purple_Plus_Stripes_4.jpg,Blue_Circle_Dots_1.jpg,left,785.6550000142306,false,high,false
LIw8WsuF,3ygyp13654mlicup3w1l36spsdqnrt,3yj6na41jft6atlj28a6uo7lu13pjo,LIw8WsuF,2020-0188,2020-11-14,21:06:38,21:36:13,NA,incomplete,150,filling,1,right,Green_Triangle_Grid_3.jpg,Green_Circle_Stripes_4.jpg,Red_Plus_Grid_2.jpg,right,907.6749999949243,true,high,false
LIw8WsuF,3ygyp13654mlicup3w1l36spsdqnrt,3yj6na41jft6atlj28a6uo7lu13pjo,LIw8WsuF,2020-0188,2020-11-14,21:06:38,21:36:13,NA,incomplete,151,filling,1,right,Red_Plus_Stripes_1.jpg,Red_Star_Dots_4.jpg,Blue_Circle_Stripes_2.jpg,right,728.5899999842513,true,high,false
LIw8WsuF,3ygyp13654mlicup3w1l36spsdqnrt,3yj6na41jft6atlj28a6uo7lu13pjo,LIw8WsuF,2020-0188,2020-11-14,21:06:38,21:36:13,NA,incomplete,152,filling,1,right,Red_Triangle_Chess_1.jpg,Red_Plus_Grid_4.jpg,Purple_Star_Chess_3.jpg,right,941.3700000150129,true,high,false
LIw8WsuF,3ygyp13654mlicup3w1l36spsdqnrt,3yj6na41jft6atlj28a6uo7lu13pjo,LIw8WsuF,2020-0188,2020-11-14,21:06:38,21:36:13,NA,incomplete,153,filling,1,right,Purple_Plus_Dots_2.jpg,Purple_Triangle_Stripes_1.jpg,Blue_Star_Dots_4.jpg,right,902.5449999899138,true,high,false
LIw8WsuF,3ygyp13654mlicup3w1l36spsdqnrt,3yj6na41jft6atlj28a6uo7lu13pjo,LIw8WsuF,2020-0188,2020-11-14,21:06:38,21:36:13,NA,incomplete,154,filling,1,right,Blue_Plus_Grid_1.jpg,Blue_Triangle_Stripes_4.jpg,Red_Star_Grid_2.jpg,right,776.8649999925401,true,high,false
LIw8WsuF,3ygyp13654mlicup3w1l36spsdqnrt,3yj6na41jft6atlj28a6uo7lu13pjo,LIw8WsuF,2020-0188,2020-11-14,21:06:38,21:36:13,NA,incomplete,155,filling,0,left,Green_Star_Dots_3.jpg,Blue_Triangle_Dots_1.jpg,Green_Plus_Stripes_4.jpg,left,781.8700000061654,true,high,false
LIw8WsuF,3ygyp13654mlicup3w1l36spsdqnrt,3yj6na41jft6atlj28a6uo7lu13pjo,LIw8WsuF,2020-0188,2020-11-14,21:06:38,21:36:13,NA,incomplete,156,filling,1,right,Blue_Circle_Grid_1.jpg,Blue_Triangle_Chess_4.jpg,Green_Plus_Grid_2.jpg,left,850.044999999227,false,high,false
LIw8WsuF,3ygyp13654mlicup3w1l36spsdqnrt,3yj6na41jft6atlj28a6uo7lu13pjo,LIw8WsuF,2020-0188,2020-11-14,21:06:38,21:36:13,NA,incomplete,157,filling,0,right,Purple_Circle_Dots_1.jpg,Purple_Star_Grid_3.jpg,Red_Plus_Dots_4.jpg,right,1020.250000001397,true,high,false
LIw8WsuF,3ygyp13654mlicup3w1l36spsdqnrt,3yj6na41jft6atlj28a6uo7lu13pjo,LIw8WsuF,2020-0188,2020-11-14,21:06:38,21:36:13,NA,incomplete,158,filling,1,left,Purple_Triangle_Dots_2.jpg,Green_Star_Dots_4.jpg,Purple_Circle_Grid_3.jpg,right,549.9700000218581,false,high,false
LIw8WsuF,3ygyp13654mlicup3w1l36spsdqnrt,3yj6na41jft6atlj28a6uo7lu13pjo,LIw8WsuF,2020-0188,2020-11-14,21:06:38,21:36:13,NA,incomplete,159,filling,1,right,Blue_Circle_Dots_1.jpg,Blue_Triangle_Chess_3.jpg,Purple_Star_Dots_4.jpg,right,983.1150000100024,true,high,false
LIw8WsuF,3ygyp13654mlicup3w1l36spsdqnrt,3yj6na41jft6atlj28a6uo7lu13pjo,LIw8WsuF,2020-0188,2020-11-14,21:06:38,21:36:13,NA,incomplete,160,color,1,right,Red_Star_Grid_2.jpg,Purple_Plus_Grid_3.jpg,Red_Triangle_Stripes_4.jpg,left,814.0749999729451,false,high,false
LIw8WsuF,3ygyp13654mlicup3w1l36spsdqnrt,3yj6na41jft6atlj28a6uo7lu13pjo,LIw8WsuF,2020-0188,2020-11-14,21:06:38,21:36:13,NA,incomplete,161,color,1,left,Blue_Star_Stripes_3.jpg,Blue_Circle_Dots_2.jpg,Red_Plus_Stripes_1.jpg,left,602.2899999807123,true,high,false
LIw8WsuF,3ygyp13654mlicup3w1l36spsdqnrt,3yj6na41jft6atlj28a6uo7lu13pjo,LIw8WsuF,2020-0188,2020-11-14,21:06:38,21:36:13,NA,incomplete,162,color,1,left,Green_Star_Chess_2.jpg,Green_Circle_Dots_4.jpg,Purple_Plus_Chess_3.jpg,left,572.4449999979697,true,high,false
LIw8WsuF,3ygyp13654mlicup3w1l36spsdqnrt,3yj6na41jft6atlj28a6uo7lu13pjo,LIw8WsuF,2020-0188,2020-11-14,21:06:38,21:36:13,NA,incomplete,163,color,1,left,Purple_Triangle_Stripes_2.jpg,Purple_Circle_Dots_3.jpg,Red_Plus_Stripes_4.jpg,left,670.20500000217,true,high,false
LIw8WsuF,3ygyp13654mlicup3w1l36spsdqnrt,3yj6na41jft6atlj28a6uo7lu13pjo,LIw8WsuF,2020-0188,2020-11-14,21:06:38,21:36:13,NA,incomplete,164,color,0,right,Purple_Star_Stripes_1.jpg,Red_Triangle_Stripes_4.jpg,Purple_Plus_Chess_2.jpg,right,612.185000005411,true,high,false
LIw8WsuF,3ygyp13654mlicup3w1l36spsdqnrt,3yj6na41jft6atlj28a6uo7lu13pjo,LIw8WsuF,2020-0188,2020-11-14,21:06:38,21:36:13,NA,incomplete,165,color,1,right,Red_Star_Grid_3.jpg,Green_Circle_Grid_4.jpg,Red_Plus_Chess_1.jpg,right,501.3850000104867,true,high,false
LIw8WsuF,3ygyp13654mlicup3w1l36spsdqnrt,3yj6na41jft6atlj28a6uo7lu13pjo,LIw8WsuF,2020-0188,2020-11-14,21:06:38,21:36:13,NA,incomplete,166,color,1,left,Green_Plus_Dots_3.jpg,Green_Circle_Stripes_4.jpg,Purple_Star_Dots_1.jpg,left,454.79499999783,true,high,false
LIw8WsuF,3ygyp13654mlicup3w1l36spsdqnrt,3yj6na41jft6atlj28a6uo7lu13pjo,LIw8WsuF,2020-0188,2020-11-14,21:06:38,21:36:13,NA,incomplete,167,color,1,left,Purple_Plus_Stripes_3.jpg,Purple_Circle_Dots_1.jpg,Green_Star_Stripes_4.jpg,left,556.4050000102725,true,high,false
LIw8WsuF,3ygyp13654mlicup3w1l36spsdqnrt,3yj6na41jft6atlj28a6uo7lu13pjo,LIw8WsuF,2020-0188,2020-11-14,21:06:38,21:36:13,NA,incomplete,168,color,1,right,Blue_Triangle_Grid_3.jpg,Red_Circle_Grid_2.jpg,Blue_Star_Stripes_4.jpg,right,486.1549999914132,true,high,false
LIw8WsuF,3ygyp13654mlicup3w1l36spsdqnrt,3yj6na41jft6atlj28a6uo7lu13pjo,LIw8WsuF,2020-0188,2020-11-14,21:06:38,21:36:13,NA,incomplete,169,color,1,left,Purple_Circle_Chess_1.jpg,Purple_Plus_Grid_2.jpg,Green_Star_Chess_3.jpg,left,555.9950000024401,true,high,false
LIw8WsuF,3ygyp13654mlicup3w1l36spsdqnrt,3yj6na41jft6atlj28a6uo7lu13pjo,LIw8WsuF,2020-0188,2020-11-14,21:06:38,21:36:13,NA,incomplete,170,color,1,right,Purple_Triangle_Stripes_1.jpg,Blue_Plus_Stripes_3.jpg,Purple_Circle_Chess_4.jpg,right,530.4949999845121,true,high,false
LIw8WsuF,3ygyp13654mlicup3w1l36spsdqnrt,3yj6na41jft6atlj28a6uo7lu13pjo,LIw8WsuF,2020-0188,2020-11-14,21:06:38,21:36:13,NA,incomplete,171,color,1,right,Green_Plus_Chess_2.jpg,Purple_Triangle_Chess_1.jpg,Green_Star_Dots_3.jpg,right,534.2900000105146,true,high,false
LIw8WsuF,3ygyp13654mlicup3w1l36spsdqnrt,3yj6na41jft6atlj28a6uo7lu13pjo,LIw8WsuF,2020-0188,2020-11-14,21:06:38,21:36:13,NA,incomplete,172,color,1,right,Green_Plus_Dots_1.jpg,Purple_Triangle_Dots_3.jpg,Green_Star_Chess_4.jpg,right,547.3849999834783,true,high,false
LIw8WsuF,3ygyp13654mlicup3w1l36spsdqnrt,3yj6na41jft6atlj28a6uo7lu13pjo,LIw8WsuF,2020-0188,2020-11-14,21:06:38,21:36:13,NA,incomplete,173,color,1,left,Purple_Star_Stripes_1.jpg,Purple_Triangle_Chess_4.jpg,Red_Plus_Stripes_3.jpg,left,596.9000000040978,true,high,false
LIw8WsuF,3ygyp13654mlicup3w1l36spsdqnrt,3yj6na41jft6atlj28a6uo7lu13pjo,LIw8WsuF,2020-0188,2020-11-14,21:06:38,21:36:13,NA,incomplete,174,color,1,left,Red_Plus_Stripes_3.jpg,Red_Triangle_Dots_4.jpg,Green_Star_Stripes_1.jpg,left,594.1800000146031,true,high,false
LIw8WsuF,3ygyp13654mlicup3w1l36spsdqnrt,3yj6na41jft6atlj28a6uo7lu13pjo,LIw8WsuF,2020-0188,2020-11-14,21:06:38,21:36:13,NA,incomplete,175,color,1,right,Blue_Plus_Dots_1.jpg,Red_Triangle_Dots_3.jpg,Blue_Star_Stripes_4.jpg,right,567.8750000079162,true,high,false
LIw8WsuF,3ygyp13654mlicup3w1l36spsdqnrt,3yj6na41jft6atlj28a6uo7lu13pjo,LIw8WsuF,2020-0188,2020-11-14,21:06:38,21:36:13,NA,incomplete,176,color,0,right,Blue_Triangle_Chess_3.jpg,Green_Circle_Chess_2.jpg,Blue_Star_Stripes_1.jpg,right,480.2450000133831,true,high,false
LIw8WsuF,3ygyp13654mlicup3w1l36spsdqnrt,3yj6na41jft6atlj28a6uo7lu13pjo,LIw8WsuF,2020-0188,2020-11-14,21:06:38,21:36:13,NA,incomplete,177,color,1,right,Red_Star_Dots_1.jpg,Blue_Plus_Dots_4.jpg,Red_Circle_Chess_3.jpg,right,456.4799999934621,true,high,false
LIw8WsuF,3ygyp13654mlicup3w1l36spsdqnrt,3yj6na41jft6atlj28a6uo7lu13pjo,LIw8WsuF,2020-0188,2020-11-14,21:06:38,21:36:13,NA,incomplete,178,color,1,left,Purple_Triangle_Dots_3.jpg,Purple_Circle_Stripes_4.jpg,Red_Star_Dots_2.jpg,left,527.685000008205,true,high,false
LIw8WsuF,3ygyp13654mlicup3w1l36spsdqnrt,3yj6na41jft6atlj28a6uo7lu13pjo,LIw8WsuF,2020-0188,2020-11-14,21:06:38,21:36:13,NA,incomplete,179,color,1,left,Blue_Plus_Grid_1.jpg,Blue_Star_Stripes_3.jpg,Purple_Triangle_Grid_2.jpg,left,437.39999999525025,true,high,false
LIw8WsuF,3ygyp13654mlicup3w1l36spsdqnrt,3yj6na41jft6atlj28a6uo7lu13pjo,LIw8WsuF,2020-0188,2020-11-14,21:06:38,21:36:13,NA,incomplete,180,filling,1,right,Red_Circle_Chess_3.jpg,Red_Triangle_Grid_4.jpg,Purple_Star_Chess_1.jpg,left,475.29000000213273,false,high,false
LIw8WsuF,3ygyp13654mlicup3w1l36spsdqnrt,3yj6na41jft6atlj28a6uo7lu13pjo,LIw8WsuF,2020-0188,2020-11-14,21:06:38,21:36:13,NA,incomplete,181,filling,1,left,Blue_Triangle_Stripes_2.jpg,Green_Circle_Stripes_1.jpg,Blue_Star_Grid_3.jpg,right,650.4549999954179,false,high,false
LIw8WsuF,3ygyp13654mlicup3w1l36spsdqnrt,3yj6na41jft6atlj28a6uo7lu13pjo,LIw8WsuF,2020-0188,2020-11-14,21:06:38,21:36:13,NA,incomplete,182,filling,1,right,Green_Circle_Stripes_4.jpg,Green_Star_Dots_1.jpg,Purple_Triangle_Stripes_2.jpg,right,684.8549999995157,true,high,false
LIw8WsuF,3ygyp13654mlicup3w1l36spsdqnrt,3yj6na41jft6atlj28a6uo7lu13pjo,LIw8WsuF,2020-0188,2020-11-14,21:06:38,21:36:13,NA,incomplete,183,filling,0,left,Red_Star_Chess_2.jpg,Green_Plus_Chess_3.jpg,Red_Triangle_Dots_1.jpg,left,561.6250000020955,true,high,false
LIw8WsuF,3ygyp13654mlicup3w1l36spsdqnrt,3yj6na41jft6atlj28a6uo7lu13pjo,LIw8WsuF,2020-0188,2020-11-14,21:06:38,21:36:13,NA,incomplete,184,filling,1,left,Purple_Circle_Dots_1.jpg,Red_Triangle_Dots_2.jpg,Purple_Star_Stripes_4.jpg,left,726.7850000062026,true,high,false
LIw8WsuF,3ygyp13654mlicup3w1l36spsdqnrt,3yj6na41jft6atlj28a6uo7lu13pjo,LIw8WsuF,2020-0188,2020-11-14,21:06:38,21:36:13,NA,incomplete,185,filling,1,right,Blue_Triangle_Stripes_2.jpg,Blue_Plus_Grid_3.jpg,Purple_Star_Stripes_4.jpg,right,743.4149999753572,true,high,false
LIw8WsuF,3ygyp13654mlicup3w1l36spsdqnrt,3yj6na41jft6atlj28a6uo7lu13pjo,LIw8WsuF,2020-0188,2020-11-14,21:06:38,21:36:13,NA,incomplete,186,filling,0,left,Red_Triangle_Grid_3.jpg,Purple_Plus_Grid_1.jpg,Red_Circle_Chess_4.jpg,left,867.9299999785144,true,high,false
LIw8WsuF,3ygyp13654mlicup3w1l36spsdqnrt,3yj6na41jft6atlj28a6uo7lu13pjo,LIw8WsuF,2020-0188,2020-11-14,21:06:38,21:36:13,NA,incomplete,187,filling,1,right,Purple_Circle_Stripes_3.jpg,Purple_Plus_Dots_4.jpg,Green_Triangle_Stripes_1.jpg,left,801.1849999893457,false,high,false
LIw8WsuF,3ygyp13654mlicup3w1l36spsdqnrt,3yj6na41jft6atlj28a6uo7lu13pjo,LIw8WsuF,2020-0188,2020-11-14,21:06:38,21:36:13,NA,incomplete,188,filling,1,right,Blue_Plus_Chess_4.jpg,Blue_Star_Stripes_3.jpg,Red_Triangle_Chess_1.jpg,right,813.5649999894667,true,high,false
LIw8WsuF,3ygyp13654mlicup3w1l36spsdqnrt,3yj6na41jft6atlj28a6uo7lu13pjo,LIw8WsuF,2020-0188,2020-11-14,21:06:38,21:36:13,NA,incomplete,189,filling,0,right,Red_Triangle_Grid_4.jpg,Red_Plus_Dots_1.jpg,Green_Circle_Grid_2.jpg,right,750.5599999858532,true,high,false
LIw8WsuF,3ygyp13654mlicup3w1l36spsdqnrt,3yj6na41jft6atlj28a6uo7lu13pjo,LIw8WsuF,2020-0188,2020-11-14,21:06:38,21:36:13,NA,incomplete,190,filling,1,left,Red_Circle_Stripes_3.jpg,Green_Plus_Stripes_1.jpg,Red_Triangle_Chess_2.jpg,right,500.9299999801442,false,high,false
LIw8WsuF,3ygyp13654mlicup3w1l36spsdqnrt,3yj6na41jft6atlj28a6uo7lu13pjo,LIw8WsuF,2020-0188,2020-11-14,21:06:38,21:36:13,NA,incomplete,191,filling,1,left,Blue_Star_Dots_2.jpg,Red_Circle_Dots_3.jpg,Blue_Triangle_Grid_4.jpg,left,770.1600000145845,true,high,false
LIw8WsuF,3ygyp13654mlicup3w1l36spsdqnrt,3yj6na41jft6atlj28a6uo7lu13pjo,LIw8WsuF,2020-0188,2020-11-14,21:06:38,21:36:13,NA,incomplete,192,filling,0,left,Purple_Star_Stripes_3.jpg,Green_Triangle_Stripes_2.jpg,Purple_Circle_Chess_4.jpg,left,715.4150000133086,true,high,false
LIw8WsuF,3ygyp13654mlicup3w1l36spsdqnrt,3yj6na41jft6atlj28a6uo7lu13pjo,LIw8WsuF,2020-0188,2020-11-14,21:06:38,21:36:13,NA,incomplete,193,filling,1,left,Blue_Plus_Grid_3.jpg,Red_Triangle_Grid_1.jpg,Blue_Star_Stripes_4.jpg,right,487.79000001377426,false,high,false
LIw8WsuF,3ygyp13654mlicup3w1l36spsdqnrt,3yj6na41jft6atlj28a6uo7lu13pjo,LIw8WsuF,2020-0188,2020-11-14,21:06:38,21:36:13,NA,incomplete,194,filling,1,right,Red_Plus_Dots_2.jpg,Red_Triangle_Stripes_3.jpg,Green_Circle_Dots_1.jpg,right,859.8499999789055,true,high,false
LIw8WsuF,3ygyp13654mlicup3w1l36spsdqnrt,3yj6na41jft6atlj28a6uo7lu13pjo,LIw8WsuF,2020-0188,2020-11-14,21:06:38,21:36:13,NA,incomplete,195,filling,0,right,Purple_Triangle_Stripes_1.jpg,Purple_Star_Grid_3.jpg,Green_Plus_Stripes_2.jpg,right,752.4100000155158,true,high,false
LIw8WsuF,3ygyp13654mlicup3w1l36spsdqnrt,3yj6na41jft6atlj28a6uo7lu13pjo,LIw8WsuF,2020-0188,2020-11-14,21:06:38,21:36:13,NA,incomplete,196,filling,1,left,Red_Star_Chess_1.jpg,Purple_Triangle_Chess_3.jpg,Red_Circle_Stripes_2.jpg,right,578.3600000140723,false,high,false
LIw8WsuF,3ygyp13654mlicup3w1l36spsdqnrt,3yj6na41jft6atlj28a6uo7lu13pjo,LIw8WsuF,2020-0188,2020-11-14,21:06:38,21:36:13,NA,incomplete,197,filling,0,left,Purple_Circle_Dots_4.jpg,Red_Plus_Dots_1.jpg,Purple_Triangle_Chess_2.jpg,left,833.8750000111759,true,high,false
LIw8WsuF,3ygyp13654mlicup3w1l36spsdqnrt,3yj6na41jft6atlj28a6uo7lu13pjo,LIw8WsuF,2020-0188,2020-11-14,21:06:38,21:36:13,NA,incomplete,198,filling,1,right,Purple_Triangle_Dots_3.jpg,Purple_Star_Grid_1.jpg,Blue_Plus_Dots_4.jpg,left,576.4499999932013,false,high,false
LIw8WsuF,3ygyp13654mlicup3w1l36spsdqnrt,3yj6na41jft6atlj28a6uo7lu13pjo,LIw8WsuF,2020-0188,2020-11-14,21:06:38,21:36:13,NA,incomplete,199,filling,1,right,Purple_Plus_Grid_3.jpg,Purple_Star_Stripes_4.jpg,Red_Circle_Grid_1.jpg,right,754.3299999961164,true,high,false
LIw8WsuF,3ygyp13654mlicup3w1l36spsdqnrt,3yj6na41jft6atlj28a6uo7lu13pjo,LIw8WsuF,2020-0188,2020-11-14,21:06:38,21:36:13,NA,incomplete,200,color,1,right,Red_Circle_Stripes_4.jpg,Green_Triangle_Stripes_2.jpg,Red_Plus_Dots_1.jpg,left,719.6750000002794,false,high,false
LIw8WsuF,3ygyp13654mlicup3w1l36spsdqnrt,3yj6na41jft6atlj28a6uo7lu13pjo,LIw8WsuF,2020-0188,2020-11-14,21:06:38,21:36:13,NA,incomplete,201,color,0,right,Purple_Circle_Grid_3.jpg,Green_Plus_Grid_4.jpg,Purple_Triangle_Dots_2.jpg,left,994.1099999996368,false,high,false
LIw8WsuF,3ygyp13654mlicup3w1l36spsdqnrt,3yj6na41jft6atlj28a6uo7lu13pjo,LIw8WsuF,2020-0188,2020-11-14,21:06:38,21:36:13,NA,incomplete,202,color,1,left,Blue_Triangle_Stripes_2.jpg,Blue_Circle_Dots_3.jpg,Red_Star_Stripes_4.jpg,right,778.055000002496,false,high,false
LIw8WsuF,3ygyp13654mlicup3w1l36spsdqnrt,3yj6na41jft6atlj28a6uo7lu13pjo,LIw8WsuF,2020-0188,2020-11-14,21:06:38,21:36:13,NA,incomplete,203,color,1,left,Red_Plus_Grid_4.jpg,Red_Triangle_Stripes_3.jpg,Blue_Circle_Grid_2.jpg,left,484.08500000368804,true,high,false
LIw8WsuF,3ygyp13654mlicup3w1l36spsdqnrt,3yj6na41jft6atlj28a6uo7lu13pjo,LIw8WsuF,2020-0188,2020-11-14,21:06:38,21:36:13,NA,incomplete,204,color,1,left,Blue_Circle_Stripes_1.jpg,Blue_Star_Chess_4.jpg,Green_Triangle_Stripes_2.jpg,left,496.6400000266731,true,high,false
LIw8WsuF,3ygyp13654mlicup3w1l36spsdqnrt,3yj6na41jft6atlj28a6uo7lu13pjo,LIw8WsuF,2020-0188,2020-11-14,21:06:38,21:36:13,NA,incomplete,205,color,1,right,Blue_Triangle_Stripes_3.jpg,Purple_Plus_Stripes_2.jpg,Blue_Star_Dots_1.jpg,right,491.08999999589287,true,high,false
LIw8WsuF,3ygyp13654mlicup3w1l36spsdqnrt,3yj6na41jft6atlj28a6uo7lu13pjo,LIw8WsuF,2020-0188,2020-11-14,21:06:38,21:36:13,NA,incomplete,206,color,1,right,Green_Triangle_Grid_4.jpg,Red_Star_Grid_3.jpg,Green_Plus_Dots_2.jpg,right,520.4350000130944,true,high,false
LIw8WsuF,3ygyp13654mlicup3w1l36spsdqnrt,3yj6na41jft6atlj28a6uo7lu13pjo,LIw8WsuF,2020-0188,2020-11-14,21:06:38,21:36:13,NA,incomplete,207,color,1,left,Blue_Triangle_Grid_3.jpg,Blue_Circle_Dots_4.jpg,Purple_Star_Grid_2.jpg,left,755.4700000036974,true,high,false
LIw8WsuF,3ygyp13654mlicup3w1l36spsdqnrt,3yj6na41jft6atlj28a6uo7lu13pjo,LIw8WsuF,2020-0188,2020-11-14,21:06:38,21:36:13,NA,incomplete,208,color,1,left,Red_Star_Stripes_1.jpg,Red_Plus_Dots_3.jpg,Blue_Triangle_Stripes_4.jpg,left,527.5200000032783,true,high,false
LIw8WsuF,3ygyp13654mlicup3w1l36spsdqnrt,3yj6na41jft6atlj28a6uo7lu13pjo,LIw8WsuF,2020-0188,2020-11-14,21:06:38,21:36:13,NA,incomplete,209,color,1,left,Blue_Plus_Dots_1.jpg,Blue_Circle_Chess_4.jpg,Purple_Star_Dots_2.jpg,left,495.0550000066869,true,high,false
LIw8WsuF,3ygyp13654mlicup3w1l36spsdqnrt,3yj6na41jft6atlj28a6uo7lu13pjo,LIw8WsuF,2020-0188,2020-11-14,21:06:38,21:36:13,NA,incomplete,210,color,1,right,Purple_Triangle_Chess_4.jpg,Green_Star_Chess_1.jpg,Purple_Circle_Grid_3.jpg,right,526.2350000266451,true,high,false
LIw8WsuF,3ygyp13654mlicup3w1l36spsdqnrt,3yj6na41jft6atlj28a6uo7lu13pjo,LIw8WsuF,2020-0188,2020-11-14,21:06:38,21:36:13,NA,incomplete,211,color,1,left,Red_Star_Chess_3.jpg,Red_Plus_Stripes_2.jpg,Blue_Circle_Chess_1.jpg,left,496.91500002518296,true,high,false
LIw8WsuF,3ygyp13654mlicup3w1l36spsdqnrt,3yj6na41jft6atlj28a6uo7lu13pjo,LIw8WsuF,2020-0188,2020-11-14,21:06:38,21:36:13,NA,incomplete,212,color,1,right,Red_Triangle_Chess_2.jpg,Purple_Plus_Chess_4.jpg,Red_Star_Stripes_1.jpg,right,596.4249999960884,true,high,false
LIw8WsuF,3ygyp13654mlicup3w1l36spsdqnrt,3yj6na41jft6atlj28a6uo7lu13pjo,LIw8WsuF,2020-0188,2020-11-14,21:06:38,21:36:13,NA,incomplete,213,color,0,left,Green_Star_Stripes_1.jpg,Green_Plus_Chess_3.jpg,Blue_Triangle_Stripes_2.jpg,left,497.3499999905471,true,high,false
LIw8WsuF,3ygyp13654mlicup3w1l36spsdqnrt,3yj6na41jft6atlj28a6uo7lu13pjo,LIw8WsuF,2020-0188,2020-11-14,21:06:38,21:36:13,NA,incomplete,214,color,1,left,Blue_Circle_Grid_2.jpg,Blue_Plus_Dots_4.jpg,Red_Star_Grid_3.jpg,left,584.484999999404,true,high,false
LIw8WsuF,3ygyp13654mlicup3w1l36spsdqnrt,3yj6na41jft6atlj28a6uo7lu13pjo,LIw8WsuF,2020-0188,2020-11-14,21:06:38,21:36:13,NA,incomplete,215,color,1,left,Blue_Circle_Chess_4.jpg,Blue_Star_Grid_3.jpg,Purple_Triangle_Chess_1.jpg,left,503.03499997244217,true,high,false
LIw8WsuF,3ygyp13654mlicup3w1l36spsdqnrt,3yj6na41jft6atlj28a6uo7lu13pjo,LIw8WsuF,2020-0188,2020-11-14,21:06:38,21:36:13,NA,incomplete,216,color,1,left,Green_Triangle_Grid_3.jpg,Green_Star_Dots_2.jpg,Blue_Circle_Grid_4.jpg,left,501.0300000139978,true,high,false
LIw8WsuF,3ygyp13654mlicup3w1l36spsdqnrt,3yj6na41jft6atlj28a6uo7lu13pjo,LIw8WsuF,2020-0188,2020-11-14,21:06:38,21:36:13,NA,incomplete,217,color,1,right,Red_Triangle_Stripes_3.jpg,Purple_Circle_Stripes_2.jpg,Red_Star_Dots_1.jpg,right,511.98999999905936,true,high,false
LIw8WsuF,3ygyp13654mlicup3w1l36spsdqnrt,3yj6na41jft6atlj28a6uo7lu13pjo,LIw8WsuF,2020-0188,2020-11-14,21:06:38,21:36:13,NA,incomplete,218,color,1,left,Red_Plus_Stripes_4.jpg,Red_Star_Dots_1.jpg,Purple_Triangle_Stripes_3.jpg,left,822.7100000076462,true,high,false
LIw8WsuF,3ygyp13654mlicup3w1l36spsdqnrt,3yj6na41jft6atlj28a6uo7lu13pjo,LIw8WsuF,2020-0188,2020-11-14,21:06:38,21:36:13,NA,incomplete,219,color,1,left,Green_Plus_Stripes_3.jpg,Green_Triangle_Dots_2.jpg,Purple_Star_Stripes_4.jpg,left,638.9049999997951,true,high,false
LIw8WsuF,3ygyp13654mlicup3w1l36spsdqnrt,3yj6na41jft6atlj28a6uo7lu13pjo,LIw8WsuF,2020-0188,2020-11-14,21:06:38,21:36:13,NA,incomplete,220,filling,1,right,Red_Triangle_Grid_1.jpg,Red_Plus_Stripes_3.jpg,Green_Circle_Grid_4.jpg,left,489.95999997714534,false,high,false
LIw8WsuF,3ygyp13654mlicup3w1l36spsdqnrt,3yj6na41jft6atlj28a6uo7lu13pjo,LIw8WsuF,2020-0188,2020-11-14,21:06:38,21:36:13,NA,incomplete,221,filling,0,left,Red_Circle_Chess_1.jpg,Blue_Star_Chess_4.jpg,Red_Plus_Grid_3.jpg,right,513.7600000016391,false,high,false
LIw8WsuF,3ygyp13654mlicup3w1l36spsdqnrt,3yj6na41jft6atlj28a6uo7lu13pjo,LIw8WsuF,2020-0188,2020-11-14,21:06:38,21:36:13,NA,incomplete,222,filling,1,right,Green_Star_Chess_2.jpg,Green_Circle_Dots_4.jpg,Purple_Triangle_Chess_1.jpg,left,458.53500001248904,false,high,false
LIw8WsuF,3ygyp13654mlicup3w1l36spsdqnrt,3yj6na41jft6atlj28a6uo7lu13pjo,LIw8WsuF,2020-0188,2020-11-14,21:06:38,21:36:13,NA,incomplete,223,filling,1,left,Blue_Triangle_Dots_2.jpg,Red_Plus_Dots_4.jpg,Blue_Star_Stripes_1.jpg,left,748.7499999988358,true,high,false
LIw8WsuF,3ygyp13654mlicup3w1l36spsdqnrt,3yj6na41jft6atlj28a6uo7lu13pjo,LIw8WsuF,2020-0188,2020-11-14,21:06:38,21:36:13,NA,incomplete,224,filling,1,right,Green_Triangle_Chess_2.jpg,Green_Plus_Grid_3.jpg,Purple_Star_Chess_1.jpg,right,651.8600000126753,true,high,false
LIw8WsuF,3ygyp13654mlicup3w1l36spsdqnrt,3yj6na41jft6atlj28a6uo7lu13pjo,LIw8WsuF,2020-0188,2020-11-14,21:06:38,21:36:13,NA,incomplete,225,filling,1,left,Red_Plus_Stripes_4.jpg,Green_Star_Stripes_3.jpg,Red_Circle_Grid_2.jpg,left,839.8750000051223,true,high,false
LIw8WsuF,3ygyp13654mlicup3w1l36spsdqnrt,3yj6na41jft6atlj28a6uo7lu13pjo,LIw8WsuF,2020-0188,2020-11-14,21:06:38,21:36:13,NA,incomplete,226,filling,0,left,Purple_Triangle_Grid_3.jpg,Green_Circle_Grid_4.jpg,Purple_Plus_Dots_1.jpg,left,701.2800000084098,true,high,false
LIw8WsuF,3ygyp13654mlicup3w1l36spsdqnrt,3yj6na41jft6atlj28a6uo7lu13pjo,LIw8WsuF,2020-0188,2020-11-14,21:06:38,21:36:13,NA,incomplete,227,filling,1,left,Red_Circle_Dots_1.jpg,Blue_Plus_Dots_2.jpg,Red_Triangle_Chess_4.jpg,left,728.7300000025425,true,high,false
LIw8WsuF,3ygyp13654mlicup3w1l36spsdqnrt,3yj6na41jft6atlj28a6uo7lu13pjo,LIw8WsuF,2020-0188,2020-11-14,21:06:38,21:36:13,NA,incomplete,228,filling,1,right,Blue_Circle_Chess_3.jpg,Blue_Star_Grid_4.jpg,Purple_Triangle_Chess_2.jpg,right,686.840000009397,true,high,false
LIw8WsuF,3ygyp13654mlicup3w1l36spsdqnrt,3yj6na41jft6atlj28a6uo7lu13pjo,LIw8WsuF,2020-0188,2020-11-14,21:06:38,21:36:13,NA,incomplete,229,filling,1,left,Green_Plus_Stripes_1.jpg,Red_Circle_Stripes_3.jpg,Green_Star_Grid_4.jpg,left,676.579999999376,true,high,false
LIw8WsuF,3ygyp13654mlicup3w1l36spsdqnrt,3yj6na41jft6atlj28a6uo7lu13pjo,LIw8WsuF,2020-0188,2020-11-14,21:06:38,21:36:13,NA,incomplete,230,filling,1,left,Green_Circle_Grid_2.jpg,Blue_Plus_Grid_3.jpg,Green_Triangle_Chess_1.jpg,right,739.8150000080932,false,high,false
LIw8WsuF,3ygyp13654mlicup3w1l36spsdqnrt,3yj6na41jft6atlj28a6uo7lu13pjo,LIw8WsuF,2020-0188,2020-11-14,21:06:38,21:36:13,NA,incomplete,231,filling,0,right,Purple_Star_Grid_4.jpg,Purple_Circle_Dots_2.jpg,Red_Triangle_Grid_3.jpg,right,773.4599999967031,true,high,false
LIw8WsuF,3ygyp13654mlicup3w1l36spsdqnrt,3yj6na41jft6atlj28a6uo7lu13pjo,LIw8WsuF,2020-0188,2020-11-14,21:06:38,21:36:13,NA,incomplete,232,filling,1,right,Blue_Star_Stripes_4.jpg,Blue_Circle_Dots_2.jpg,Green_Triangle_Stripes_1.jpg,left,696.5999999956694,false,high,false
LIw8WsuF,3ygyp13654mlicup3w1l36spsdqnrt,3yj6na41jft6atlj28a6uo7lu13pjo,LIw8WsuF,2020-0188,2020-11-14,21:06:38,21:36:13,NA,incomplete,233,filling,1,right,Purple_Circle_Chess_4.jpg,Purple_Triangle_Stripes_3.jpg,Red_Plus_Chess_2.jpg,left,645.0699999986682,false,high,false
LIw8WsuF,3ygyp13654mlicup3w1l36spsdqnrt,3yj6na41jft6atlj28a6uo7lu13pjo,LIw8WsuF,2020-0188,2020-11-14,21:06:38,21:36:13,NA,incomplete,234,filling,1,left,Purple_Triangle_Chess_2.jpg,Blue_Circle_Chess_1.jpg,Purple_Plus_Stripes_4.jpg,left,744.5549999829382,true,high,false
LIw8WsuF,3ygyp13654mlicup3w1l36spsdqnrt,3yj6na41jft6atlj28a6uo7lu13pjo,LIw8WsuF,2020-0188,2020-11-14,21:06:38,21:36:13,NA,incomplete,235,filling,1,right,Green_Plus_Chess_2.jpg,Green_Star_Grid_3.jpg,Blue_Circle_Chess_4.jpg,right,732.079999987036,true,high,false
LIw8WsuF,3ygyp13654mlicup3w1l36spsdqnrt,3yj6na41jft6atlj28a6uo7lu13pjo,LIw8WsuF,2020-0188,2020-11-14,21:06:38,21:36:13,NA,incomplete,236,filling,0,right,Red_Circle_Grid_1.jpg,Red_Star_Dots_3.jpg,Green_Plus_Grid_2.jpg,right,683.6600000096951,true,high,false
LIw8WsuF,3ygyp13654mlicup3w1l36spsdqnrt,3yj6na41jft6atlj28a6uo7lu13pjo,LIw8WsuF,2020-0188,2020-11-14,21:06:38,21:36:13,NA,incomplete,237,filling,1,right,Red_Circle_Stripes_1.jpg,Red_Triangle_Chess_3.jpg,Purple_Plus_Stripes_4.jpg,right,803.0400000279769,true,high,false
LIw8WsuF,3ygyp13654mlicup3w1l36spsdqnrt,3yj6na41jft6atlj28a6uo7lu13pjo,LIw8WsuF,2020-0188,2020-11-14,21:06:38,21:36:13,NA,incomplete,238,filling,1,right,Green_Circle_Chess_2.jpg,Green_Triangle_Grid_4.jpg,Purple_Plus_Chess_3.jpg,right,777.5649999966845,true,high,false
LIw8WsuF,3ygyp13654mlicup3w1l36spsdqnrt,3yj6na41jft6atlj28a6uo7lu13pjo,LIw8WsuF,2020-0188,2020-11-14,21:06:38,21:36:13,NA,incomplete,239,filling,1,right,Red_Plus_Chess_3.jpg,Red_Triangle_Stripes_1.jpg,Green_Star_Chess_2.jpg,right,855.9050000039861,true,high,false
LIw8WsuF,3ygyp13654mlicup3w1l36spsdqnrt,3yj6na41jft6atlj28a6uo7lu13pjo,LIw8WsuF,2020-0188,2020-11-14,21:06:38,21:36:13,1751174.2749999976,1777600.3950000159,NA,NA,NA,NA,NA,NA,NA,NA,NA,NA,NA,undefined
