workerId,hitId,assignmentId,subject,studyid,exp_date,exp_start,exp_end,time_start,time_end,trial,type,reward_validity,answer,image_top,image_left,image_right,response,response_time,response_acc,volatility,age,race,gender,ethnicity,color,vision,neuro,practice
6RzznpnS,3vll1pieot1c2ogsesvb4yutk6poza,3yt88d1n0cbueomemvdbi04w5wm3k3,6RzznpnS,2020-0188,2020-05-08,11:38:26,11:53:15,NA,incomplete,0,color,0,left,Blue_Triangle_Stripes_3.jpg,Blue_Plus_Grid_2.jpg,Red_Star_Dots_3.jpg,none,0,false,NA,NA,NA,NA,NA,NA,NA,NA,true
6RzznpnS,3vll1pieot1c2ogsesvb4yutk6poza,3yt88d1n0cbueomemvdbi04w5wm3k3,6RzznpnS,2020-0188,2020-05-08,11:38:26,11:53:15,NA,incomplete,1,color,1,right,Red_Plus_Chess_2.jpg,Green_Star_Dots_2.jpg,Red_Circle_Grid_1.jpg,right,1886.210000000574,true,NA,NA,NA,NA,NA,NA,NA,NA,true
6RzznpnS,3vll1pieot1c2ogsesvb4yutk6poza,3yt88d1n0cbueomemvdbi04w5wm3k3,6RzznpnS,2020-0188,2020-05-08,11:38:26,11:53:15,NA,incomplete,2,color,1,right,Purple_Triangle_Chess_1.jpg,Blue_Star_Grid_1.jpg,Purple_Circle_Stripes_2.jpg,right,980.7799999998824,true,NA,NA,NA,NA,NA,NA,NA,NA,true
6RzznpnS,3vll1pieot1c2ogsesvb4yutk6poza,3yt88d1n0cbueomemvdbi04w5wm3k3,6RzznpnS,2020-0188,2020-05-08,11:38:26,11:53:15,NA,incomplete,3,color,0,left,Red_Plus_Dots_3.jpg,Red_Star_Chess_2.jpg,Purple_Circle_Stripes_3.jpg,left,1021.2649999993737,true,NA,NA,NA,NA,NA,NA,NA,NA,true
6RzznpnS,3vll1pieot1c2ogsesvb4yutk6poza,3yt88d1n0cbueomemvdbi04w5wm3k3,6RzznpnS,2020-0188,2020-05-08,11:38:26,11:53:15,NA,incomplete,4,color,1,right,Green_Circle_Stripes_4.jpg,Purple_Triangle_Grid_4.jpg,Green_Plus_Dots_3.jpg,right,1290.0100000006496,true,NA,NA,NA,NA,NA,NA,NA,NA,true
6RzznpnS,3vll1pieot1c2ogsesvb4yutk6poza,3yt88d1n0cbueomemvdbi04w5wm3k3,6RzznpnS,2020-0188,2020-05-08,11:38:26,11:53:15,NA,incomplete,5,color,1,left,Purple_Plus_Dots_2.jpg,Purple_Triangle_Stripes_1.jpg,Red_Star_Chess_2.jpg,left,1012.6099999997532,true,NA,NA,NA,NA,NA,NA,NA,NA,true
6RzznpnS,3vll1pieot1c2ogsesvb4yutk6poza,3yt88d1n0cbueomemvdbi04w5wm3k3,6RzznpnS,2020-0188,2020-05-08,11:38:26,11:53:15,NA,incomplete,6,color,1,right,Red_Circle_Stripes_2.jpg,Purple_Plus_Grid_2.jpg,Red_Star_Dots_1.jpg,right,653.189999999071,true,NA,NA,NA,NA,NA,NA,NA,NA,true
6RzznpnS,3vll1pieot1c2ogsesvb4yutk6poza,3yt88d1n0cbueomemvdbi04w5wm3k3,6RzznpnS,2020-0188,2020-05-08,11:38:26,11:53:15,NA,incomplete,7,color,1,right,Red_Triangle_Grid_1.jpg,Blue_Plus_Stripes_1.jpg,Red_Circle_Chess_4.jpg,right,730.0599999998522,true,NA,NA,NA,NA,NA,NA,NA,NA,true
6RzznpnS,3vll1pieot1c2ogsesvb4yutk6poza,3yt88d1n0cbueomemvdbi04w5wm3k3,6RzznpnS,2020-0188,2020-05-08,11:38:26,11:53:15,NA,incomplete,8,color,1,left,Purple_Plus_Stripes_1.jpg,Purple_Circle_Grid_2.jpg,Green_Star_Dots_1.jpg,left,649.849999999773,true,NA,NA,NA,NA,NA,NA,NA,NA,true
6RzznpnS,3vll1pieot1c2ogsesvb4yutk6poza,3yt88d1n0cbueomemvdbi04w5wm3k3,6RzznpnS,2020-0188,2020-05-08,11:38:26,11:53:15,NA,incomplete,9,color,1,right,Blue_Circle_Grid_2.jpg,Red_Triangle_Dots_2.jpg,Blue_Star_Stripes_4.jpg,right,620.0549999994109,true,NA,NA,NA,NA,NA,NA,NA,NA,true
6RzznpnS,3vll1pieot1c2ogsesvb4yutk6poza,3yt88d1n0cbueomemvdbi04w5wm3k3,6RzznpnS,2020-0188,2020-05-08,11:38:26,11:53:15,NA,incomplete,10,color,1,left,Red_Circle_Stripes_1.jpg,Red_Triangle_Grid_2.jpg,Green_Plus_Dots_1.jpg,left,703.4650000005204,true,NA,NA,NA,NA,NA,NA,NA,NA,true
6RzznpnS,3vll1pieot1c2ogsesvb4yutk6poza,3yt88d1n0cbueomemvdbi04w5wm3k3,6RzznpnS,2020-0188,2020-05-08,11:38:26,11:53:15,NA,incomplete,11,color,0,left,Green_Plus_Grid_3.jpg,Green_Triangle_Chess_2.jpg,Red_Circle_Dots_3.jpg,left,705.8350000006612,true,NA,NA,NA,NA,NA,NA,NA,NA,true
6RzznpnS,3vll1pieot1c2ogsesvb4yutk6poza,3yt88d1n0cbueomemvdbi04w5wm3k3,6RzznpnS,2020-0188,2020-05-08,11:38:26,11:53:15,NA,incomplete,12,color,1,right,Green_Circle_Stripes_2.jpg,Red_Plus_Chess_2.jpg,Green_Star_Dots_3.jpg,right,832.6100000012957,true,NA,NA,NA,NA,NA,NA,NA,NA,true
6RzznpnS,3vll1pieot1c2ogsesvb4yutk6poza,3yt88d1n0cbueomemvdbi04w5wm3k3,6RzznpnS,2020-0188,2020-05-08,11:38:26,11:53:15,NA,incomplete,13,color,1,left,Red_Star_Chess_4.jpg,Red_Circle_Dots_3.jpg,Green_Plus_Stripes_4.jpg,left,716.1850000011036,true,NA,NA,NA,NA,NA,NA,NA,NA,true
6RzznpnS,3vll1pieot1c2ogsesvb4yutk6poza,3yt88d1n0cbueomemvdbi04w5wm3k3,6RzznpnS,2020-0188,2020-05-08,11:38:26,11:53:15,NA,incomplete,14,color,1,right,Green_Star_Stripes_3.jpg,Purple_Triangle_Chess_3.jpg,Green_Circle_Dots_2.jpg,right,646.5650000009045,true,NA,NA,NA,NA,NA,NA,NA,NA,true
6RzznpnS,3vll1pieot1c2ogsesvb4yutk6poza,3yt88d1n0cbueomemvdbi04w5wm3k3,6RzznpnS,2020-0188,2020-05-08,11:38:26,11:53:15,NA,incomplete,15,color,0,left,Blue_Circle_Chess_4.jpg,Blue_Triangle_Stripes_2.jpg,Green_Plus_Grid_4.jpg,left,638.05499999944,true,NA,NA,NA,NA,NA,NA,NA,NA,true
6RzznpnS,3vll1pieot1c2ogsesvb4yutk6poza,3yt88d1n0cbueomemvdbi04w5wm3k3,6RzznpnS,2020-0188,2020-05-08,11:38:26,11:53:15,NA,incomplete,16,color,1,right,Blue_Plus_Dots_2.jpg,Green_Triangle_Grid_2.jpg,Blue_Star_Stripes_4.jpg,right,716.3449999989243,true,NA,NA,NA,NA,NA,NA,NA,NA,true
6RzznpnS,3vll1pieot1c2ogsesvb4yutk6poza,3yt88d1n0cbueomemvdbi04w5wm3k3,6RzznpnS,2020-0188,2020-05-08,11:38:26,11:53:15,NA,incomplete,17,color,1,left,Blue_Triangle_Chess_3.jpg,Blue_Circle_Dots_4.jpg,Green_Plus_Stripes_3.jpg,left,931.4350000004051,true,NA,NA,NA,NA,NA,NA,NA,NA,true
6RzznpnS,3vll1pieot1c2ogsesvb4yutk6poza,3yt88d1n0cbueomemvdbi04w5wm3k3,6RzznpnS,2020-0188,2020-05-08,11:38:26,11:53:15,NA,incomplete,18,color,1,left,Red_Star_Stripes_2.jpg,Red_Triangle_Grid_3.jpg,Purple_Circle_Chess_2.jpg,left,832.2250000001222,true,NA,NA,NA,NA,NA,NA,NA,NA,true
6RzznpnS,3vll1pieot1c2ogsesvb4yutk6poza,3yt88d1n0cbueomemvdbi04w5wm3k3,6RzznpnS,2020-0188,2020-05-08,11:38:26,11:53:15,NA,incomplete,19,color,0,right,Green_Circle_Stripes_1.jpg,Red_Plus_Dots_1.jpg,Green_Star_Chess_2.jpg,right,599.4399999999441,true,NA,NA,NA,NA,NA,NA,NA,NA,true
6RzznpnS,3vll1pieot1c2ogsesvb4yutk6poza,3yt88d1n0cbueomemvdbi04w5wm3k3,6RzznpnS,2020-0188,2020-05-08,11:38:26,11:53:15,NA,incomplete,20,number,1,left,Red_Circle_Stripes_1.jpg,Blue_Plus_Chess_1.jpg,Red_Star_Grid_4.jpg,right,677.8200000008219,false,NA,NA,NA,NA,NA,NA,NA,NA,true
6RzznpnS,3vll1pieot1c2ogsesvb4yutk6poza,3yt88d1n0cbueomemvdbi04w5wm3k3,6RzznpnS,2020-0188,2020-05-08,11:38:26,11:53:15,NA,incomplete,21,number,1,left,Blue_Plus_Stripes_2.jpg,Green_Circle_Grid_2.jpg,Blue_Star_Chess_4.jpg,right,1099.1800000010699,false,NA,NA,NA,NA,NA,NA,NA,NA,true
6RzznpnS,3vll1pieot1c2ogsesvb4yutk6poza,3yt88d1n0cbueomemvdbi04w5wm3k3,6RzznpnS,2020-0188,2020-05-08,11:38:26,11:53:15,NA,incomplete,22,number,0,right,Blue_Triangle_Grid_4.jpg,Blue_Circle_Dots_1.jpg,Green_Plus_Chess_4.jpg,right,1283.4800000000687,true,NA,NA,NA,NA,NA,NA,NA,NA,true
6RzznpnS,3vll1pieot1c2ogsesvb4yutk6poza,3yt88d1n0cbueomemvdbi04w5wm3k3,6RzznpnS,2020-0188,2020-05-08,11:38:26,11:53:15,NA,incomplete,23,number,1,left,Purple_Circle_Dots_3.jpg,Green_Triangle_Chess_3.jpg,Purple_Star_Stripes_1.jpg,left,1136.7499999996799,true,NA,NA,NA,NA,NA,NA,NA,NA,true
6RzznpnS,3vll1pieot1c2ogsesvb4yutk6poza,3yt88d1n0cbueomemvdbi04w5wm3k3,6RzznpnS,2020-0188,2020-05-08,11:38:26,11:53:15,NA,incomplete,24,number,0,left,Blue_Plus_Chess_2.jpg,Purple_Star_Stripes_2.jpg,Blue_Triangle_Dots_3.jpg,left,1144.960000001447,true,NA,NA,NA,NA,NA,NA,NA,NA,true
6RzznpnS,3vll1pieot1c2ogsesvb4yutk6poza,3yt88d1n0cbueomemvdbi04w5wm3k3,6RzznpnS,2020-0188,2020-05-08,11:38:26,11:53:15,NA,incomplete,25,number,1,right,Blue_Star_Stripes_4.jpg,Blue_Plus_Grid_3.jpg,Red_Circle_Chess_4.jpg,right,1900.8049999993236,true,NA,NA,NA,NA,NA,NA,NA,NA,true
6RzznpnS,3vll1pieot1c2ogsesvb4yutk6poza,3yt88d1n0cbueomemvdbi04w5wm3k3,6RzznpnS,2020-0188,2020-05-08,11:38:26,11:53:15,NA,incomplete,26,number,1,right,Purple_Plus_Chess_1.jpg,Purple_Triangle_Dots_2.jpg,Green_Star_Grid_1.jpg,right,1255.885000000475,true,NA,NA,NA,NA,NA,NA,NA,NA,true
6RzznpnS,3vll1pieot1c2ogsesvb4yutk6poza,3yt88d1n0cbueomemvdbi04w5wm3k3,6RzznpnS,2020-0188,2020-05-08,11:38:26,11:53:15,NA,incomplete,27,number,1,left,Purple_Triangle_Grid_2.jpg,Red_Star_Stripes_2.jpg,Purple_Plus_Chess_4.jpg,left,984.5850000001665,true,NA,NA,NA,NA,NA,NA,NA,NA,true
6RzznpnS,3vll1pieot1c2ogsesvb4yutk6poza,3yt88d1n0cbueomemvdbi04w5wm3k3,6RzznpnS,2020-0188,2020-05-08,11:38:26,11:53:15,NA,incomplete,28,number,1,right,Red_Star_Stripes_1.jpg,Red_Triangle_Grid_2.jpg,Blue_Circle_Dots_1.jpg,right,994.5050000005867,true,NA,NA,NA,NA,NA,NA,NA,NA,true
6RzznpnS,3vll1pieot1c2ogsesvb4yutk6poza,3yt88d1n0cbueomemvdbi04w5wm3k3,6RzznpnS,2020-0188,2020-05-08,11:38:26,11:53:15,NA,incomplete,29,number,1,left,Blue_Plus_Chess_4.jpg,Green_Triangle_Grid_4.jpg,Blue_Star_Stripes_3.jpg,left,1080.8699999997916,true,NA,NA,NA,NA,NA,NA,NA,NA,true
6RzznpnS,3vll1pieot1c2ogsesvb4yutk6poza,3yt88d1n0cbueomemvdbi04w5wm3k3,6RzznpnS,2020-0188,2020-05-08,11:38:26,11:53:15,NA,incomplete,30,number,0,left,Green_Plus_Chess_2.jpg,Blue_Star_Dots_2.jpg,Green_Triangle_Stripes_1.jpg,left,941.5449999996927,true,NA,NA,NA,NA,NA,NA,NA,NA,true
6RzznpnS,3vll1pieot1c2ogsesvb4yutk6poza,3yt88d1n0cbueomemvdbi04w5wm3k3,6RzznpnS,2020-0188,2020-05-08,11:38:26,11:53:15,NA,incomplete,31,number,1,right,Purple_Circle_Stripes_4.jpg,Purple_Star_Grid_3.jpg,Green_Plus_Dots_4.jpg,right,1232.5300000011339,true,NA,NA,NA,NA,NA,NA,NA,NA,true
6RzznpnS,3vll1pieot1c2ogsesvb4yutk6poza,3yt88d1n0cbueomemvdbi04w5wm3k3,6RzznpnS,2020-0188,2020-05-08,11:38:26,11:53:15,NA,incomplete,32,number,1,right,Blue_Circle_Grid_4.jpg,Blue_Star_Chess_1.jpg,Red_Triangle_Stripes_4.jpg,right,965.1900000008172,true,NA,NA,NA,NA,NA,NA,NA,NA,true
6RzznpnS,3vll1pieot1c2ogsesvb4yutk6poza,3yt88d1n0cbueomemvdbi04w5wm3k3,6RzznpnS,2020-0188,2020-05-08,11:38:26,11:53:15,NA,incomplete,33,number,1,left,Green_Plus_Dots_2.jpg,Red_Star_Chess_2.jpg,Green_Circle_Grid_4.jpg,left,839.8450000004377,true,NA,NA,NA,NA,NA,NA,NA,NA,true
6RzznpnS,3vll1pieot1c2ogsesvb4yutk6poza,3yt88d1n0cbueomemvdbi04w5wm3k3,6RzznpnS,2020-0188,2020-05-08,11:38:26,11:53:15,NA,incomplete,34,number,1,right,Red_Triangle_Stripes_4.jpg,Red_Plus_Chess_3.jpg,Green_Star_Grid_4.jpg,right,842.8499999990745,true,NA,NA,NA,NA,NA,NA,NA,NA,true
6RzznpnS,3vll1pieot1c2ogsesvb4yutk6poza,3yt88d1n0cbueomemvdbi04w5wm3k3,6RzznpnS,2020-0188,2020-05-08,11:38:26,11:53:15,NA,incomplete,35,number,1,right,Purple_Triangle_Stripes_4.jpg,Purple_Circle_Dots_1.jpg,Blue_Plus_Chess_4.jpg,right,748.6600000011094,true,NA,NA,NA,NA,NA,NA,NA,NA,true
6RzznpnS,3vll1pieot1c2ogsesvb4yutk6poza,3yt88d1n0cbueomemvdbi04w5wm3k3,6RzznpnS,2020-0188,2020-05-08,11:38:26,11:53:15,NA,incomplete,36,number,1,left,Green_Triangle_Dots_2.jpg,Red_Plus_Grid_2.jpg,Green_Star_Stripes_1.jpg,left,824.2200000004086,true,NA,NA,NA,NA,NA,NA,NA,NA,true
6RzznpnS,3vll1pieot1c2ogsesvb4yutk6poza,3yt88d1n0cbueomemvdbi04w5wm3k3,6RzznpnS,2020-0188,2020-05-08,11:38:26,11:53:15,NA,incomplete,37,number,1,right,Green_Circle_Chess_3.jpg,Green_Plus_Grid_1.jpg,Red_Star_Dots_3.jpg,right,812.115000000631,true,NA,NA,NA,NA,NA,NA,NA,NA,true
6RzznpnS,3vll1pieot1c2ogsesvb4yutk6poza,3yt88d1n0cbueomemvdbi04w5wm3k3,6RzznpnS,2020-0188,2020-05-08,11:38:26,11:53:15,NA,incomplete,38,number,1,left,Green_Star_Grid_1.jpg,Red_Circle_Stripes_1.jpg,Green_Plus_Chess_4.jpg,left,909.4150000000955,true,NA,NA,NA,NA,NA,NA,NA,NA,true
6RzznpnS,3vll1pieot1c2ogsesvb4yutk6poza,3yt88d1n0cbueomemvdbi04w5wm3k3,6RzznpnS,2020-0188,2020-05-08,11:38:26,11:53:15,NA,incomplete,39,number,1,right,Purple_Triangle_Chess_1.jpg,Purple_Circle_Dots_2.jpg,Red_Plus_Stripes_1.jpg,right,1165.3499999993073,true,NA,NA,NA,NA,NA,NA,NA,NA,true
6RzznpnS,3vll1pieot1c2ogsesvb4yutk6poza,3yt88d1n0cbueomemvdbi04w5wm3k3,6RzznpnS,2020-0188,2020-05-08,11:38:26,11:53:15,NA,incomplete,0,color,1,left,Purple_Plus_Grid_4.jpg,Purple_Star_Dots_2.jpg,Red_Triangle_Stripes_4.jpg,right,1272.720000000816,false,high,NA,NA,NA,NA,NA,NA,NA,false
6RzznpnS,3vll1pieot1c2ogsesvb4yutk6poza,3yt88d1n0cbueomemvdbi04w5wm3k3,6RzznpnS,2020-0188,2020-05-08,11:38:26,11:53:15,NA,incomplete,1,color,1,left,Red_Circle_Dots_4.jpg,Red_Plus_Chess_1.jpg,Green_Triangle_Grid_4.jpg,right,771.0550000010408,false,high,NA,NA,NA,NA,NA,NA,NA,false
6RzznpnS,3vll1pieot1c2ogsesvb4yutk6poza,3yt88d1n0cbueomemvdbi04w5wm3k3,6RzznpnS,2020-0188,2020-05-08,11:38:26,11:53:15,NA,incomplete,2,color,1,left,Red_Plus_Chess_2.jpg,Red_Star_Stripes_4.jpg,Blue_Triangle_Grid_2.jpg,right,796.3949999994365,false,high,NA,NA,NA,NA,NA,NA,NA,false
6RzznpnS,3vll1pieot1c2ogsesvb4yutk6poza,3yt88d1n0cbueomemvdbi04w5wm3k3,6RzznpnS,2020-0188,2020-05-08,11:38:26,11:53:15,NA,incomplete,3,color,1,left,Purple_Plus_Stripes_3.jpg,Purple_Circle_Chess_2.jpg,Red_Star_Dots_3.jpg,left,638.0399999998044,true,high,NA,NA,NA,NA,NA,NA,NA,false
6RzznpnS,3vll1pieot1c2ogsesvb4yutk6poza,3yt88d1n0cbueomemvdbi04w5wm3k3,6RzznpnS,2020-0188,2020-05-08,11:38:26,11:53:15,NA,incomplete,4,color,1,right,Purple_Circle_Dots_2.jpg,Red_Plus_Grid_2.jpg,Purple_Star_Chess_1.jpg,left,851.2500000015716,false,high,NA,NA,NA,NA,NA,NA,NA,false
6RzznpnS,3vll1pieot1c2ogsesvb4yutk6poza,3yt88d1n0cbueomemvdbi04w5wm3k3,6RzznpnS,2020-0188,2020-05-08,11:38:26,11:53:15,NA,incomplete,5,color,0,right,Green_Plus_Grid_1.jpg,Purple_Star_Chess_1.jpg,Green_Circle_Dots_4.jpg,right,937.5399999989895,true,high,NA,NA,NA,NA,NA,NA,NA,false
6RzznpnS,3vll1pieot1c2ogsesvb4yutk6poza,3yt88d1n0cbueomemvdbi04w5wm3k3,6RzznpnS,2020-0188,2020-05-08,11:38:26,11:53:15,NA,incomplete,6,color,1,right,Green_Triangle_Grid_1.jpg,Red_Circle_Stripes_1.jpg,Green_Plus_Chess_2.jpg,right,624.5600000001723,true,high,NA,NA,NA,NA,NA,NA,NA,false
6RzznpnS,3vll1pieot1c2ogsesvb4yutk6poza,3yt88d1n0cbueomemvdbi04w5wm3k3,6RzznpnS,2020-0188,2020-05-08,11:38:26,11:53:15,NA,incomplete,7,color,0,left,Blue_Star_Dots_3.jpg,Blue_Plus_Chess_4.jpg,Purple_Circle_Stripes_3.jpg,left,816.305000000284,true,high,NA,NA,NA,NA,NA,NA,NA,false
6RzznpnS,3vll1pieot1c2ogsesvb4yutk6poza,3yt88d1n0cbueomemvdbi04w5wm3k3,6RzznpnS,2020-0188,2020-05-08,11:38:26,11:53:15,NA,incomplete,8,color,0,left,Green_Star_Chess_4.jpg,Green_Circle_Stripes_2.jpg,Purple_Plus_Grid_4.jpg,left,626.6700000014971,true,high,NA,NA,NA,NA,NA,NA,NA,false
6RzznpnS,3vll1pieot1c2ogsesvb4yutk6poza,3yt88d1n0cbueomemvdbi04w5wm3k3,6RzznpnS,2020-0188,2020-05-08,11:38:26,11:53:15,NA,incomplete,9,color,0,left,Blue_Star_Stripes_4.jpg,Blue_Plus_Dots_2.jpg,Green_Circle_Chess_4.jpg,right,921.8650000002235,false,high,NA,NA,NA,NA,NA,NA,NA,false
6RzznpnS,3vll1pieot1c2ogsesvb4yutk6poza,3yt88d1n0cbueomemvdbi04w5wm3k3,6RzznpnS,2020-0188,2020-05-08,11:38:26,11:53:15,NA,incomplete,10,number,1,left,Red_Plus_Stripes_2.jpg,Purple_Triangle_Grid_2.jpg,Red_Star_Dots_4.jpg,left,626.0500000007451,true,high,NA,NA,NA,NA,NA,NA,NA,false
6RzznpnS,3vll1pieot1c2ogsesvb4yutk6poza,3yt88d1n0cbueomemvdbi04w5wm3k3,6RzznpnS,2020-0188,2020-05-08,11:38:26,11:53:15,NA,incomplete,11,number,1,left,Purple_Star_Dots_4.jpg,Red_Circle_Grid_4.jpg,Purple_Plus_Stripes_2.jpg,left,812.5149999996647,true,high,NA,NA,NA,NA,NA,NA,NA,false
6RzznpnS,3vll1pieot1c2ogsesvb4yutk6poza,3yt88d1n0cbueomemvdbi04w5wm3k3,6RzznpnS,2020-0188,2020-05-08,11:38:26,11:53:15,NA,incomplete,12,number,1,right,Purple_Plus_Chess_3.jpg,Purple_Star_Stripes_4.jpg,Red_Circle_Grid_3.jpg,right,665.0950000002631,true,high,NA,NA,NA,NA,NA,NA,NA,false
6RzznpnS,3vll1pieot1c2ogsesvb4yutk6poza,3yt88d1n0cbueomemvdbi04w5wm3k3,6RzznpnS,2020-0188,2020-05-08,11:38:26,11:53:15,NA,incomplete,13,number,0,right,Green_Circle_Grid_1.jpg,Green_Triangle_Chess_4.jpg,Blue_Plus_Dots_1.jpg,right,595.7750000015949,true,high,NA,NA,NA,NA,NA,NA,NA,false
6RzznpnS,3vll1pieot1c2ogsesvb4yutk6poza,3yt88d1n0cbueomemvdbi04w5wm3k3,6RzznpnS,2020-0188,2020-05-08,11:38:26,11:53:15,NA,incomplete,14,number,1,right,Red_Plus_Dots_2.jpg,Red_Triangle_Stripes_1.jpg,Blue_Star_Grid_2.jpg,right,704.7750000001397,true,high,NA,NA,NA,NA,NA,NA,NA,false
6RzznpnS,3vll1pieot1c2ogsesvb4yutk6poza,3yt88d1n0cbueomemvdbi04w5wm3k3,6RzznpnS,2020-0188,2020-05-08,11:38:26,11:53:15,NA,incomplete,15,number,0,left,Blue_Circle_Chess_3.jpg,Red_Star_Dots_3.jpg,Blue_Plus_Grid_4.jpg,left,820.2299999993411,true,high,NA,NA,NA,NA,NA,NA,NA,false
6RzznpnS,3vll1pieot1c2ogsesvb4yutk6poza,3yt88d1n0cbueomemvdbi04w5wm3k3,6RzznpnS,2020-0188,2020-05-08,11:38:26,11:53:15,NA,incomplete,16,number,0,left,Blue_Plus_Chess_2.jpg,Red_Circle_Stripes_2.jpg,Blue_Triangle_Dots_4.jpg,left,800.5350000003236,true,high,NA,NA,NA,NA,NA,NA,NA,false
6RzznpnS,3vll1pieot1c2ogsesvb4yutk6poza,3yt88d1n0cbueomemvdbi04w5wm3k3,6RzznpnS,2020-0188,2020-05-08,11:38:26,11:53:15,NA,incomplete,17,number,0,left,Green_Circle_Stripes_3.jpg,Red_Star_Grid_3.jpg,Green_Plus_Chess_1.jpg,right,1075.66000000044,false,high,NA,NA,NA,NA,NA,NA,NA,false
6RzznpnS,3vll1pieot1c2ogsesvb4yutk6poza,3yt88d1n0cbueomemvdbi04w5wm3k3,6RzznpnS,2020-0188,2020-05-08,11:38:26,11:53:15,NA,incomplete,18,number,1,left,Purple_Plus_Chess_1.jpg,Green_Star_Dots_1.jpg,Purple_Circle_Stripes_3.jpg,right,867.8599999984726,false,high,NA,NA,NA,NA,NA,NA,NA,false
6RzznpnS,3vll1pieot1c2ogsesvb4yutk6poza,3yt88d1n0cbueomemvdbi04w5wm3k3,6RzznpnS,2020-0188,2020-05-08,11:38:26,11:53:15,NA,incomplete,19,number,0,right,Red_Plus_Chess_2.jpg,Red_Circle_Dots_4.jpg,Green_Triangle_Grid_2.jpg,right,702.2849999993923,true,high,NA,NA,NA,NA,NA,NA,NA,false
6RzznpnS,3vll1pieot1c2ogsesvb4yutk6poza,3yt88d1n0cbueomemvdbi04w5wm3k3,6RzznpnS,2020-0188,2020-05-08,11:38:26,11:53:15,NA,incomplete,20,color,1,left,Blue_Plus_Grid_3.jpg,Blue_Circle_Chess_2.jpg,Red_Star_Stripes_3.jpg,right,760.229999999865,false,high,NA,NA,NA,NA,NA,NA,NA,false
6RzznpnS,3vll1pieot1c2ogsesvb4yutk6poza,3yt88d1n0cbueomemvdbi04w5wm3k3,6RzznpnS,2020-0188,2020-05-08,11:38:26,11:53:15,NA,incomplete,21,color,1,right,Red_Plus_Dots_2.jpg,Purple_Circle_Grid_2.jpg,Red_Triangle_Stripes_1.jpg,right,685.6399999996647,true,high,NA,NA,NA,NA,NA,NA,NA,false
6RzznpnS,3vll1pieot1c2ogsesvb4yutk6poza,3yt88d1n0cbueomemvdbi04w5wm3k3,6RzznpnS,2020-0188,2020-05-08,11:38:26,11:53:15,NA,incomplete,22,color,1,left,Red_Triangle_Stripes_2.jpg,Red_Plus_Chess_1.jpg,Purple_Star_Dots_2.jpg,left,1077.5649999995949,true,high,NA,NA,NA,NA,NA,NA,NA,false
6RzznpnS,3vll1pieot1c2ogsesvb4yutk6poza,3yt88d1n0cbueomemvdbi04w5wm3k3,6RzznpnS,2020-0188,2020-05-08,11:38:26,11:53:15,NA,incomplete,23,color,1,right,Green_Triangle_Dots_4.jpg,Blue_Plus_Chess_4.jpg,Green_Circle_Grid_2.jpg,right,1409.784999999858,true,high,NA,NA,NA,NA,NA,NA,NA,false
6RzznpnS,3vll1pieot1c2ogsesvb4yutk6poza,3yt88d1n0cbueomemvdbi04w5wm3k3,6RzznpnS,2020-0188,2020-05-08,11:38:26,11:53:15,NA,incomplete,24,color,1,right,Red_Circle_Chess_2.jpg,Blue_Plus_Grid_2.jpg,Red_Triangle_Stripes_1.jpg,right,687.4250000000466,true,high,NA,NA,NA,NA,NA,NA,NA,false
6RzznpnS,3vll1pieot1c2ogsesvb4yutk6poza,3yt88d1n0cbueomemvdbi04w5wm3k3,6RzznpnS,2020-0188,2020-05-08,11:38:26,11:53:15,NA,incomplete,25,color,1,left,Red_Plus_Stripes_1.jpg,Red_Triangle_Dots_3.jpg,Purple_Star_Grid_1.jpg,right,754.1700000001583,false,high,NA,NA,NA,NA,NA,NA,NA,false
6RzznpnS,3vll1pieot1c2ogsesvb4yutk6poza,3yt88d1n0cbueomemvdbi04w5wm3k3,6RzznpnS,2020-0188,2020-05-08,11:38:26,11:53:15,NA,incomplete,26,color,1,right,Red_Plus_Chess_3.jpg,Green_Circle_Stripes_3.jpg,Red_Triangle_Dots_1.jpg,left,716.2499999994761,false,high,NA,NA,NA,NA,NA,NA,NA,false
6RzznpnS,3vll1pieot1c2ogsesvb4yutk6poza,3yt88d1n0cbueomemvdbi04w5wm3k3,6RzznpnS,2020-0188,2020-05-08,11:38:26,11:53:15,NA,incomplete,27,color,1,left,Red_Circle_Grid_2.jpg,Red_Triangle_Dots_1.jpg,Green_Star_Chess_2.jpg,left,691.3800000001793,true,high,NA,NA,NA,NA,NA,NA,NA,false
6RzznpnS,3vll1pieot1c2ogsesvb4yutk6poza,3yt88d1n0cbueomemvdbi04w5wm3k3,6RzznpnS,2020-0188,2020-05-08,11:38:26,11:53:15,NA,incomplete,28,color,0,left,Red_Plus_Stripes_1.jpg,Red_Triangle_Chess_3.jpg,Green_Circle_Dots_1.jpg,left,995.2249999988126,true,high,NA,NA,NA,NA,NA,NA,NA,false
6RzznpnS,3vll1pieot1c2ogsesvb4yutk6poza,3yt88d1n0cbueomemvdbi04w5wm3k3,6RzznpnS,2020-0188,2020-05-08,11:38:26,11:53:15,NA,incomplete,29,color,1,right,Purple_Star_Dots_1.jpg,Green_Plus_Stripes_1.jpg,Purple_Triangle_Grid_2.jpg,right,1185.0549999999348,true,high,NA,NA,NA,NA,NA,NA,NA,false
6RzznpnS,3vll1pieot1c2ogsesvb4yutk6poza,3yt88d1n0cbueomemvdbi04w5wm3k3,6RzznpnS,2020-0188,2020-05-08,11:38:26,11:53:15,NA,incomplete,30,number,1,right,Purple_Circle_Stripes_3.jpg,Purple_Star_Grid_2.jpg,Green_Plus_Dots_3.jpg,left,965.0949999995646,false,high,NA,NA,NA,NA,NA,NA,NA,false
6RzznpnS,3vll1pieot1c2ogsesvb4yutk6poza,3yt88d1n0cbueomemvdbi04w5wm3k3,6RzznpnS,2020-0188,2020-05-08,11:38:26,11:53:15,NA,incomplete,31,number,1,right,Red_Star_Stripes_4.jpg,Red_Triangle_Dots_1.jpg,Blue_Plus_Chess_4.jpg,right,616.4150000003865,true,high,NA,NA,NA,NA,NA,NA,NA,false
6RzznpnS,3vll1pieot1c2ogsesvb4yutk6poza,3yt88d1n0cbueomemvdbi04w5wm3k3,6RzznpnS,2020-0188,2020-05-08,11:38:26,11:53:15,NA,incomplete,32,number,1,right,Red_Plus_Chess_4.jpg,Red_Star_Stripes_2.jpg,Blue_Circle_Dots_4.jpg,right,712.6449999996112,true,high,NA,NA,NA,NA,NA,NA,NA,false
6RzznpnS,3vll1pieot1c2ogsesvb4yutk6poza,3yt88d1n0cbueomemvdbi04w5wm3k3,6RzznpnS,2020-0188,2020-05-08,11:38:26,11:53:15,NA,incomplete,33,number,1,left,Blue_Plus_Chess_4.jpg,Green_Circle_Grid_4.jpg,Blue_Triangle_Stripes_2.jpg,left,1508.8550000000396,true,high,NA,NA,NA,NA,NA,NA,NA,false
6RzznpnS,3vll1pieot1c2ogsesvb4yutk6poza,3yt88d1n0cbueomemvdbi04w5wm3k3,6RzznpnS,2020-0188,2020-05-08,11:38:26,11:53:15,NA,incomplete,34,number,1,left,Blue_Plus_Dots_3.jpg,Green_Circle_Stripes_3.jpg,Blue_Star_Chess_1.jpg,left,965.8049999998184,true,high,NA,NA,NA,NA,NA,NA,NA,false
6RzznpnS,3vll1pieot1c2ogsesvb4yutk6poza,3yt88d1n0cbueomemvdbi04w5wm3k3,6RzznpnS,2020-0188,2020-05-08,11:38:26,11:53:15,NA,incomplete,35,number,1,left,Red_Plus_Dots_4.jpg,Blue_Star_Chess_4.jpg,Red_Circle_Stripes_3.jpg,left,828.1499999993248,true,high,NA,NA,NA,NA,NA,NA,NA,false
6RzznpnS,3vll1pieot1c2ogsesvb4yutk6poza,3yt88d1n0cbueomemvdbi04w5wm3k3,6RzznpnS,2020-0188,2020-05-08,11:38:26,11:53:15,NA,incomplete,36,number,1,right,Purple_Triangle_Grid_3.jpg,Purple_Plus_Chess_1.jpg,Blue_Star_Stripes_3.jpg,right,646.5950000001467,true,high,NA,NA,NA,NA,NA,NA,NA,false
6RzznpnS,3vll1pieot1c2ogsesvb4yutk6poza,3yt88d1n0cbueomemvdbi04w5wm3k3,6RzznpnS,2020-0188,2020-05-08,11:38:26,11:53:15,NA,incomplete,37,number,0,right,Green_Circle_Grid_1.jpg,Green_Plus_Dots_4.jpg,Blue_Triangle_Stripes_1.jpg,right,839.7049999985029,true,high,NA,NA,NA,NA,NA,NA,NA,false
6RzznpnS,3vll1pieot1c2ogsesvb4yutk6poza,3yt88d1n0cbueomemvdbi04w5wm3k3,6RzznpnS,2020-0188,2020-05-08,11:38:26,11:53:15,NA,incomplete,38,number,1,left,Blue_Plus_Grid_2.jpg,Red_Circle_Chess_2.jpg,Blue_Star_Dots_3.jpg,right,603.4799999998068,false,high,NA,NA,NA,NA,NA,NA,NA,false
6RzznpnS,3vll1pieot1c2ogsesvb4yutk6poza,3yt88d1n0cbueomemvdbi04w5wm3k3,6RzznpnS,2020-0188,2020-05-08,11:38:26,11:53:15,NA,incomplete,39,number,0,left,Purple_Plus_Grid_1.jpg,Red_Star_Dots_1.jpg,Purple_Circle_Chess_4.jpg,right,978.3800000004703,false,high,NA,NA,NA,NA,NA,NA,NA,false
6RzznpnS,3vll1pieot1c2ogsesvb4yutk6poza,3yt88d1n0cbueomemvdbi04w5wm3k3,6RzznpnS,2020-0188,2020-05-08,11:38:26,11:53:15,NA,incomplete,40,color,1,left,Green_Triangle_Stripes_1.jpg,Green_Plus_Dots_4.jpg,Red_Circle_Grid_1.jpg,left,476.80500000022585,true,high,NA,NA,NA,NA,NA,NA,NA,false
6RzznpnS,3vll1pieot1c2ogsesvb4yutk6poza,3yt88d1n0cbueomemvdbi04w5wm3k3,6RzznpnS,2020-0188,2020-05-08,11:38:26,11:53:15,NA,incomplete,41,color,1,right,Red_Triangle_Chess_1.jpg,Purple_Plus_Stripes_1.jpg,Red_Star_Dots_4.jpg,right,931.6749999998137,true,high,NA,NA,NA,NA,NA,NA,NA,false
6RzznpnS,3vll1pieot1c2ogsesvb4yutk6poza,3yt88d1n0cbueomemvdbi04w5wm3k3,6RzznpnS,2020-0188,2020-05-08,11:38:26,11:53:15,NA,incomplete,42,color,1,left,Green_Triangle_Grid_1.jpg,Green_Circle_Stripes_2.jpg,Red_Plus_Chess_1.jpg,left,715.9750000010245,true,high,NA,NA,NA,NA,NA,NA,NA,false
6RzznpnS,3vll1pieot1c2ogsesvb4yutk6poza,3yt88d1n0cbueomemvdbi04w5wm3k3,6RzznpnS,2020-0188,2020-05-08,11:38:26,11:53:15,NA,incomplete,43,color,1,left,Red_Star_Dots_3.jpg,Red_Triangle_Stripes_2.jpg,Green_Circle_Chess_3.jpg,right,890.9750000002678,false,high,NA,NA,NA,NA,NA,NA,NA,false
6RzznpnS,3vll1pieot1c2ogsesvb4yutk6poza,3yt88d1n0cbueomemvdbi04w5wm3k3,6RzznpnS,2020-0188,2020-05-08,11:38:26,11:53:15,NA,incomplete,44,color,1,right,Blue_Plus_Dots_3.jpg,Purple_Star_Stripes_3.jpg,Blue_Circle_Grid_2.jpg,left,1535.0850000013015,false,high,NA,NA,NA,NA,NA,NA,NA,false
6RzznpnS,3vll1pieot1c2ogsesvb4yutk6poza,3yt88d1n0cbueomemvdbi04w5wm3k3,6RzznpnS,2020-0188,2020-05-08,11:38:26,11:53:15,NA,incomplete,45,color,1,right,Green_Plus_Dots_4.jpg,Blue_Triangle_Stripes_4.jpg,Green_Circle_Chess_3.jpg,right,1178.9299999982468,true,high,NA,NA,NA,NA,NA,NA,NA,false
6RzznpnS,3vll1pieot1c2ogsesvb4yutk6poza,3yt88d1n0cbueomemvdbi04w5wm3k3,6RzznpnS,2020-0188,2020-05-08,11:38:26,11:53:15,NA,incomplete,46,color,0,right,Purple_Star_Grid_1.jpg,Blue_Circle_Chess_1.jpg,Purple_Plus_Stripes_4.jpg,right,1163.500000000582,true,high,NA,NA,NA,NA,NA,NA,NA,false
6RzznpnS,3vll1pieot1c2ogsesvb4yutk6poza,3yt88d1n0cbueomemvdbi04w5wm3k3,6RzznpnS,2020-0188,2020-05-08,11:38:26,11:53:15,NA,incomplete,47,color,0,right,Red_Circle_Dots_2.jpg,Blue_Star_Stripes_2.jpg,Red_Triangle_Chess_3.jpg,right,932.034999999858,true,high,NA,NA,NA,NA,NA,NA,NA,false
6RzznpnS,3vll1pieot1c2ogsesvb4yutk6poza,3yt88d1n0cbueomemvdbi04w5wm3k3,6RzznpnS,2020-0188,2020-05-08,11:38:26,11:53:15,NA,incomplete,48,color,1,left,Red_Circle_Dots_3.jpg,Red_Triangle_Grid_1.jpg,Blue_Plus_Stripes_3.jpg,right,679.4600000011851,false,high,NA,NA,NA,NA,NA,NA,NA,false
6RzznpnS,3vll1pieot1c2ogsesvb4yutk6poza,3yt88d1n0cbueomemvdbi04w5wm3k3,6RzznpnS,2020-0188,2020-05-08,11:38:26,11:53:15,NA,incomplete,49,color,1,right,Red_Circle_Chess_3.jpg,Blue_Triangle_Grid_3.jpg,Red_Star_Dots_1.jpg,right,1053.5900000013062,true,high,NA,NA,NA,NA,NA,NA,NA,false
6RzznpnS,3vll1pieot1c2ogsesvb4yutk6poza,3yt88d1n0cbueomemvdbi04w5wm3k3,6RzznpnS,2020-0188,2020-05-08,11:38:26,11:53:15,NA,incomplete,50,number,1,right,Green_Plus_Chess_4.jpg,Green_Triangle_Stripes_3.jpg,Purple_Star_Grid_4.jpg,right,1222.9349999997648,true,high,NA,NA,NA,NA,NA,NA,NA,false
6RzznpnS,3vll1pieot1c2ogsesvb4yutk6poza,3yt88d1n0cbueomemvdbi04w5wm3k3,6RzznpnS,2020-0188,2020-05-08,11:38:26,11:53:15,NA,incomplete,51,number,0,left,Red_Triangle_Dots_3.jpg,Blue_Plus_Stripes_3.jpg,Red_Star_Grid_2.jpg,right,1860.4199999991106,false,high,NA,NA,NA,NA,NA,NA,NA,false
6RzznpnS,3vll1pieot1c2ogsesvb4yutk6poza,3yt88d1n0cbueomemvdbi04w5wm3k3,6RzznpnS,2020-0188,2020-05-08,11:38:26,11:53:15,NA,incomplete,52,number,1,right,Green_Triangle_Dots_1.jpg,Green_Plus_Chess_4.jpg,Blue_Star_Grid_1.jpg,left,1390.8899999987334,false,high,NA,NA,NA,NA,NA,NA,NA,false
6RzznpnS,3vll1pieot1c2ogsesvb4yutk6poza,3yt88d1n0cbueomemvdbi04w5wm3k3,6RzznpnS,2020-0188,2020-05-08,11:38:26,11:53:15,NA,incomplete,53,number,1,left,Red_Triangle_Chess_1.jpg,Purple_Circle_Stripes_1.jpg,Red_Star_Dots_4.jpg,right,1236.8449999994482,false,high,NA,NA,NA,NA,NA,NA,NA,false
6RzznpnS,3vll1pieot1c2ogsesvb4yutk6poza,3yt88d1n0cbueomemvdbi04w5wm3k3,6RzznpnS,2020-0188,2020-05-08,11:38:26,11:53:15,NA,incomplete,54,number,1,left,Blue_Triangle_Grid_2.jpg,Purple_Plus_Chess_2.jpg,Blue_Star_Dots_3.jpg,right,1275.6449999997276,false,high,NA,NA,NA,NA,NA,NA,NA,false
6RzznpnS,3vll1pieot1c2ogsesvb4yutk6poza,3yt88d1n0cbueomemvdbi04w5wm3k3,6RzznpnS,2020-0188,2020-05-08,11:38:26,11:53:15,NA,incomplete,55,number,1,left,Green_Circle_Grid_3.jpg,Blue_Plus_Chess_3.jpg,Green_Triangle_Dots_1.jpg,right,1781.450000000419,false,high,NA,NA,NA,NA,NA,NA,NA,false
6RzznpnS,3vll1pieot1c2ogsesvb4yutk6poza,3yt88d1n0cbueomemvdbi04w5wm3k3,6RzznpnS,2020-0188,2020-05-08,11:38:26,11:53:15,NA,incomplete,56,number,1,right,Green_Circle_Grid_2.jpg,Green_Star_Chess_1.jpg,Purple_Plus_Dots_2.jpg,left,880.3500000013155,false,high,NA,NA,NA,NA,NA,NA,NA,false
6RzznpnS,3vll1pieot1c2ogsesvb4yutk6poza,3yt88d1n0cbueomemvdbi04w5wm3k3,6RzznpnS,2020-0188,2020-05-08,11:38:26,11:53:15,NA,incomplete,57,number,1,left,Red_Triangle_Stripes_3.jpg,Green_Plus_Dots_3.jpg,Red_Circle_Grid_4.jpg,right,647.3500000011409,false,high,NA,NA,NA,NA,NA,NA,NA,false
6RzznpnS,3vll1pieot1c2ogsesvb4yutk6poza,3yt88d1n0cbueomemvdbi04w5wm3k3,6RzznpnS,2020-0188,2020-05-08,11:38:26,11:53:15,NA,incomplete,58,number,1,left,Purple_Circle_Grid_2.jpg,Blue_Triangle_Stripes_2.jpg,Purple_Star_Dots_3.jpg,left,712.8900000007125,true,high,NA,NA,NA,NA,NA,NA,NA,false
6RzznpnS,3vll1pieot1c2ogsesvb4yutk6poza,3yt88d1n0cbueomemvdbi04w5wm3k3,6RzznpnS,2020-0188,2020-05-08,11:38:26,11:53:15,NA,incomplete,59,number,1,right,Purple_Triangle_Dots_3.jpg,Purple_Star_Grid_4.jpg,Green_Plus_Stripes_3.jpg,right,613.0450000000419,true,high,NA,NA,NA,NA,NA,NA,NA,false
6RzznpnS,3vll1pieot1c2ogsesvb4yutk6poza,3yt88d1n0cbueomemvdbi04w5wm3k3,6RzznpnS,2020-0188,2020-05-08,11:38:26,11:53:15,NA,incomplete,60,color,1,right,Blue_Plus_Stripes_2.jpg,Red_Star_Dots_2.jpg,Blue_Triangle_Grid_3.jpg,left,703.3350000001374,false,high,NA,NA,NA,NA,NA,NA,NA,false
6RzznpnS,3vll1pieot1c2ogsesvb4yutk6poza,3yt88d1n0cbueomemvdbi04w5wm3k3,6RzznpnS,2020-0188,2020-05-08,11:38:26,11:53:15,NA,incomplete,61,color,1,right,Blue_Star_Dots_3.jpg,Purple_Circle_Chess_3.jpg,Blue_Triangle_Grid_1.jpg,left,655.0250000000233,false,high,NA,NA,NA,NA,NA,NA,NA,false
6RzznpnS,3vll1pieot1c2ogsesvb4yutk6poza,3yt88d1n0cbueomemvdbi04w5wm3k3,6RzznpnS,2020-0188,2020-05-08,11:38:26,11:53:15,NA,incomplete,62,color,1,right,Blue_Circle_Grid_1.jpg,Red_Star_Dots_1.jpg,Blue_Plus_Stripes_4.jpg,left,666.149999999092,false,high,NA,NA,NA,NA,NA,NA,NA,false
6RzznpnS,3vll1pieot1c2ogsesvb4yutk6poza,3yt88d1n0cbueomemvdbi04w5wm3k3,6RzznpnS,2020-0188,2020-05-08,11:38:26,11:53:15,NA,incomplete,63,color,0,right,Purple_Circle_Stripes_1.jpg,Blue_Plus_Chess_1.jpg,Purple_Star_Dots_2.jpg,left,711.8950000003679,false,high,NA,NA,NA,NA,NA,NA,NA,false
6RzznpnS,3vll1pieot1c2ogsesvb4yutk6poza,3yt88d1n0cbueomemvdbi04w5wm3k3,6RzznpnS,2020-0188,2020-05-08,11:38:26,11:53:15,NA,incomplete,64,color,1,right,Purple_Star_Grid_3.jpg,Blue_Plus_Chess_3.jpg,Purple_Circle_Dots_2.jpg,left,1063.3399999988033,false,high,NA,NA,NA,NA,NA,NA,NA,false
6RzznpnS,3vll1pieot1c2ogsesvb4yutk6poza,3yt88d1n0cbueomemvdbi04w5wm3k3,6RzznpnS,2020-0188,2020-05-08,11:38:26,11:53:15,NA,incomplete,65,color,1,left,Blue_Star_Dots_4.jpg,Blue_Circle_Grid_1.jpg,Red_Plus_Chess_4.jpg,right,1202.8850000006496,false,high,NA,NA,NA,NA,NA,NA,NA,false
6RzznpnS,3vll1pieot1c2ogsesvb4yutk6poza,3yt88d1n0cbueomemvdbi04w5wm3k3,6RzznpnS,2020-0188,2020-05-08,11:38:26,11:53:15,NA,incomplete,66,color,1,left,Purple_Star_Dots_4.jpg,Purple_Plus_Grid_1.jpg,Red_Circle_Chess_4.jpg,right,1296.6850000011618,false,high,NA,NA,NA,NA,NA,NA,NA,false
6RzznpnS,3vll1pieot1c2ogsesvb4yutk6poza,3yt88d1n0cbueomemvdbi04w5wm3k3,6RzznpnS,2020-0188,2020-05-08,11:38:26,11:53:15,NA,incomplete,67,color,1,right,Green_Circle_Chess_1.jpg,Red_Triangle_Dots_1.jpg,Green_Plus_Grid_3.jpg,right,648.8450000015437,true,high,NA,NA,NA,NA,NA,NA,NA,false
6RzznpnS,3vll1pieot1c2ogsesvb4yutk6poza,3yt88d1n0cbueomemvdbi04w5wm3k3,6RzznpnS,2020-0188,2020-05-08,11:38:26,11:53:15,NA,incomplete,68,color,1,left,Red_Star_Chess_1.jpg,Red_Circle_Grid_4.jpg,Blue_Plus_Dots_1.jpg,left,751.0899999997346,true,high,NA,NA,NA,NA,NA,NA,NA,false
6RzznpnS,3vll1pieot1c2ogsesvb4yutk6poza,3yt88d1n0cbueomemvdbi04w5wm3k3,6RzznpnS,2020-0188,2020-05-08,11:38:26,11:53:15,NA,incomplete,69,color,1,right,Purple_Circle_Grid_1.jpg,Red_Triangle_Chess_1.jpg,Purple_Plus_Stripes_4.jpg,right,646.6900000013993,true,high,NA,NA,NA,NA,NA,NA,NA,false
6RzznpnS,3vll1pieot1c2ogsesvb4yutk6poza,3yt88d1n0cbueomemvdbi04w5wm3k3,6RzznpnS,2020-0188,2020-05-08,11:38:26,11:53:15,NA,incomplete,70,number,1,right,Purple_Triangle_Stripes_2.jpg,Purple_Plus_Grid_4.jpg,Blue_Circle_Dots_2.jpg,left,832.2449999995879,false,high,NA,NA,NA,NA,NA,NA,NA,false
6RzznpnS,3vll1pieot1c2ogsesvb4yutk6poza,3yt88d1n0cbueomemvdbi04w5wm3k3,6RzznpnS,2020-0188,2020-05-08,11:38:26,11:53:15,NA,incomplete,71,number,1,left,Red_Star_Stripes_2.jpg,Green_Circle_Chess_2.jpg,Red_Triangle_Dots_3.jpg,right,555.4899999988265,false,high,NA,NA,NA,NA,NA,NA,NA,false
6RzznpnS,3vll1pieot1c2ogsesvb4yutk6poza,3yt88d1n0cbueomemvdbi04w5wm3k3,6RzznpnS,2020-0188,2020-05-08,11:38:26,11:53:15,NA,incomplete,72,number,1,right,Purple_Triangle_Dots_1.jpg,Purple_Star_Stripes_2.jpg,Green_Circle_Grid_1.jpg,left,683.989999999525,false,high,NA,NA,NA,NA,NA,NA,NA,false
6RzznpnS,3vll1pieot1c2ogsesvb4yutk6poza,3yt88d1n0cbueomemvdbi04w5wm3k3,6RzznpnS,2020-0188,2020-05-08,11:38:26,11:53:15,NA,incomplete,73,number,1,left,Red_Plus_Stripes_2.jpg,Green_Star_Grid_2.jpg,Red_Circle_Dots_3.jpg,left,1180.9200000006822,true,high,NA,NA,NA,NA,NA,NA,NA,false
6RzznpnS,3vll1pieot1c2ogsesvb4yutk6poza,3yt88d1n0cbueomemvdbi04w5wm3k3,6RzznpnS,2020-0188,2020-05-08,11:38:26,11:53:15,NA,incomplete,74,number,1,left,Red_Star_Dots_1.jpg,Green_Triangle_Chess_1.jpg,Red_Circle_Grid_4.jpg,right,734.5299999997369,false,high,NA,NA,NA,NA,NA,NA,NA,false
6RzznpnS,3vll1pieot1c2ogsesvb4yutk6poza,3yt88d1n0cbueomemvdbi04w5wm3k3,6RzznpnS,2020-0188,2020-05-08,11:38:26,11:53:15,NA,incomplete,75,number,0,left,Red_Star_Dots_3.jpg,Green_Plus_Grid_3.jpg,Red_Triangle_Chess_2.jpg,right,1324.1749999997555,false,high,NA,NA,NA,NA,NA,NA,NA,false
6RzznpnS,3vll1pieot1c2ogsesvb4yutk6poza,3yt88d1n0cbueomemvdbi04w5wm3k3,6RzznpnS,2020-0188,2020-05-08,11:38:26,11:53:15,NA,incomplete,76,number,0,right,Purple_Triangle_Chess_4.jpg,Purple_Circle_Grid_1.jpg,Green_Star_Dots_4.jpg,left,1325.460000000021,false,high,NA,NA,NA,NA,NA,NA,NA,false
6RzznpnS,3vll1pieot1c2ogsesvb4yutk6poza,3yt88d1n0cbueomemvdbi04w5wm3k3,6RzznpnS,2020-0188,2020-05-08,11:38:26,11:53:15,NA,incomplete,77,number,0,right,Green_Plus_Chess_4.jpg,Green_Circle_Grid_2.jpg,Purple_Triangle_Stripes_4.jpg,left,1532.9249999995227,false,high,NA,NA,NA,NA,NA,NA,NA,false
6RzznpnS,3vll1pieot1c2ogsesvb4yutk6poza,3yt88d1n0cbueomemvdbi04w5wm3k3,6RzznpnS,2020-0188,2020-05-08,11:38:26,11:53:15,NA,incomplete,78,number,1,right,Green_Circle_Chess_2.jpg,Green_Star_Grid_3.jpg,Purple_Plus_Stripes_2.jpg,left,1421.4649999994435,false,high,NA,NA,NA,NA,NA,NA,NA,false
6RzznpnS,3vll1pieot1c2ogsesvb4yutk6poza,3yt88d1n0cbueomemvdbi04w5wm3k3,6RzznpnS,2020-0188,2020-05-08,11:38:26,11:53:15,NA,incomplete,79,number,1,left,Green_Circle_Stripes_3.jpg,Blue_Star_Chess_3.jpg,Green_Triangle_Dots_1.jpg,left,1142.0949999992736,true,high,NA,NA,NA,NA,NA,NA,NA,false
6RzznpnS,3vll1pieot1c2ogsesvb4yutk6poza,3yt88d1n0cbueomemvdbi04w5wm3k3,6RzznpnS,2020-0188,2020-05-08,11:38:26,11:53:15,NA,incomplete,80,color,1,right,Purple_Triangle_Stripes_3.jpg,Blue_Circle_Chess_3.jpg,Purple_Plus_Grid_1.jpg,right,1547.2550000012852,true,high,NA,NA,NA,NA,NA,NA,NA,false
6RzznpnS,3vll1pieot1c2ogsesvb4yutk6poza,3yt88d1n0cbueomemvdbi04w5wm3k3,6RzznpnS,2020-0188,2020-05-08,11:38:26,11:53:15,NA,incomplete,81,color,1,left,Red_Triangle_Chess_2.jpg,Red_Plus_Stripes_3.jpg,Blue_Circle_Grid_2.jpg,left,1412.9499999998952,true,high,NA,NA,NA,NA,NA,NA,NA,false
6RzznpnS,3vll1pieot1c2ogsesvb4yutk6poza,3yt88d1n0cbueomemvdbi04w5wm3k3,6RzznpnS,2020-0188,2020-05-08,11:38:26,11:53:15,NA,incomplete,82,color,1,left,Green_Triangle_Stripes_2.jpg,Green_Circle_Grid_4.jpg,Purple_Star_Dots_2.jpg,left,1505.844999999681,true,high,NA,NA,NA,NA,NA,NA,NA,false
6RzznpnS,3vll1pieot1c2ogsesvb4yutk6poza,3yt88d1n0cbueomemvdbi04w5wm3k3,6RzznpnS,2020-0188,2020-05-08,11:38:26,11:53:15,NA,incomplete,83,color,1,right,Red_Plus_Dots_3.jpg,Purple_Circle_Grid_3.jpg,Red_Triangle_Chess_1.jpg,right,1516.5949999991572,true,high,NA,NA,NA,NA,NA,NA,NA,false
6RzznpnS,3vll1pieot1c2ogsesvb4yutk6poza,3yt88d1n0cbueomemvdbi04w5wm3k3,6RzznpnS,2020-0188,2020-05-08,11:38:26,11:53:15,NA,incomplete,84,color,1,right,Blue_Plus_Chess_2.jpg,Green_Circle_Dots_2.jpg,Blue_Triangle_Stripes_3.jpg,right,1386.5550000009243,true,high,NA,NA,NA,NA,NA,NA,NA,false
6RzznpnS,3vll1pieot1c2ogsesvb4yutk6poza,3yt88d1n0cbueomemvdbi04w5wm3k3,6RzznpnS,2020-0188,2020-05-08,11:38:26,11:53:15,NA,incomplete,85,color,1,left,Blue_Triangle_Chess_4.jpg,Blue_Plus_Stripes_2.jpg,Green_Circle_Grid_4.jpg,right,1467.2000000010012,false,high,NA,NA,NA,NA,NA,NA,NA,false
6RzznpnS,3vll1pieot1c2ogsesvb4yutk6poza,3yt88d1n0cbueomemvdbi04w5wm3k3,6RzznpnS,2020-0188,2020-05-08,11:38:26,11:53:15,NA,incomplete,86,color,1,right,Blue_Circle_Chess_1.jpg,Green_Star_Dots_1.jpg,Blue_Triangle_Stripes_3.jpg,left,1878.2300000002724,false,high,NA,NA,NA,NA,NA,NA,NA,false
6RzznpnS,3vll1pieot1c2ogsesvb4yutk6poza,3yt88d1n0cbueomemvdbi04w5wm3k3,6RzznpnS,2020-0188,2020-05-08,11:38:26,11:53:15,NA,incomplete,87,color,1,right,Red_Star_Stripes_1.jpg,Blue_Plus_Grid_1.jpg,Red_Circle_Dots_4.jpg,left,1059.000000001106,false,high,NA,NA,NA,NA,NA,NA,NA,false
6RzznpnS,3vll1pieot1c2ogsesvb4yutk6poza,3yt88d1n0cbueomemvdbi04w5wm3k3,6RzznpnS,2020-0188,2020-05-08,11:38:26,11:53:15,NA,incomplete,88,color,0,left,Green_Plus_Grid_2.jpg,Green_Star_Dots_1.jpg,Red_Circle_Chess_2.jpg,right,1100.3499999988126,false,high,NA,NA,NA,NA,NA,NA,NA,false
6RzznpnS,3vll1pieot1c2ogsesvb4yutk6poza,3yt88d1n0cbueomemvdbi04w5wm3k3,6RzznpnS,2020-0188,2020-05-08,11:38:26,11:53:15,NA,incomplete,89,color,1,left,Red_Plus_Grid_3.jpg,Red_Circle_Stripes_1.jpg,Blue_Star_Dots_3.jpg,right,655.5200000002515,false,high,NA,NA,NA,NA,NA,NA,NA,false
6RzznpnS,3vll1pieot1c2ogsesvb4yutk6poza,3yt88d1n0cbueomemvdbi04w5wm3k3,6RzznpnS,2020-0188,2020-05-08,11:38:26,11:53:15,NA,incomplete,90,number,1,right,Green_Circle_Grid_2.jpg,Green_Plus_Chess_4.jpg,Blue_Star_Dots_2.jpg,right,1029.6949999992503,true,high,NA,NA,NA,NA,NA,NA,NA,false
6RzznpnS,3vll1pieot1c2ogsesvb4yutk6poza,3yt88d1n0cbueomemvdbi04w5wm3k3,6RzznpnS,2020-0188,2020-05-08,11:38:26,11:53:15,NA,incomplete,91,number,1,left,Purple_Star_Grid_3.jpg,Green_Plus_Stripes_3.jpg,Purple_Triangle_Chess_1.jpg,left,1765.3499999996857,true,high,NA,NA,NA,NA,NA,NA,NA,false
6RzznpnS,3vll1pieot1c2ogsesvb4yutk6poza,3yt88d1n0cbueomemvdbi04w5wm3k3,6RzznpnS,2020-0188,2020-05-08,11:38:26,11:53:15,NA,incomplete,92,number,1,right,Green_Circle_Chess_2.jpg,Green_Plus_Dots_3.jpg,Red_Triangle_Grid_2.jpg,right,1550.9349999992992,true,high,NA,NA,NA,NA,NA,NA,NA,false
6RzznpnS,3vll1pieot1c2ogsesvb4yutk6poza,3yt88d1n0cbueomemvdbi04w5wm3k3,6RzznpnS,2020-0188,2020-05-08,11:38:26,11:53:15,NA,incomplete,93,number,1,left,Green_Plus_Dots_3.jpg,Purple_Star_Chess_3.jpg,Green_Circle_Grid_2.jpg,right,1620.4949999992386,false,high,NA,NA,NA,NA,NA,NA,NA,false
6RzznpnS,3vll1pieot1c2ogsesvb4yutk6poza,3yt88d1n0cbueomemvdbi04w5wm3k3,6RzznpnS,2020-0188,2020-05-08,11:38:26,11:53:15,NA,incomplete,94,number,1,left,Purple_Circle_Grid_2.jpg,Green_Star_Dots_2.jpg,Purple_Triangle_Chess_4.jpg,left,1731.9699999988661,true,high,NA,NA,NA,NA,NA,NA,NA,false
6RzznpnS,3vll1pieot1c2ogsesvb4yutk6poza,3yt88d1n0cbueomemvdbi04w5wm3k3,6RzznpnS,2020-0188,2020-05-08,11:38:26,11:53:15,NA,incomplete,95,number,1,left,Green_Plus_Stripes_1.jpg,Red_Circle_Chess_1.jpg,Green_Triangle_Grid_3.jpg,right,1044.6050000009127,false,high,NA,NA,NA,NA,NA,NA,NA,false
6RzznpnS,3vll1pieot1c2ogsesvb4yutk6poza,3yt88d1n0cbueomemvdbi04w5wm3k3,6RzznpnS,2020-0188,2020-05-08,11:38:26,11:53:15,NA,incomplete,96,number,0,left,Blue_Circle_Dots_4.jpg,Purple_Plus_Chess_4.jpg,Blue_Star_Grid_3.jpg,right,1630.779999999504,false,high,NA,NA,NA,NA,NA,NA,NA,false
6RzznpnS,3vll1pieot1c2ogsesvb4yutk6poza,3yt88d1n0cbueomemvdbi04w5wm3k3,6RzznpnS,2020-0188,2020-05-08,11:38:26,11:53:15,NA,incomplete,97,number,1,left,Purple_Circle_Stripes_3.jpg,Green_Star_Dots_3.jpg,Purple_Plus_Chess_2.jpg,right,1165.8900000002468,false,high,NA,NA,NA,NA,NA,NA,NA,false
6RzznpnS,3vll1pieot1c2ogsesvb4yutk6poza,3yt88d1n0cbueomemvdbi04w5wm3k3,6RzznpnS,2020-0188,2020-05-08,11:38:26,11:53:15,NA,incomplete,98,number,0,left,Green_Star_Grid_3.jpg,Blue_Triangle_Stripes_3.jpg,Green_Circle_Chess_1.jpg,right,924.6649999986403,false,high,NA,NA,NA,NA,NA,NA,NA,false
6RzznpnS,3vll1pieot1c2ogsesvb4yutk6poza,3yt88d1n0cbueomemvdbi04w5wm3k3,6RzznpnS,2020-0188,2020-05-08,11:38:26,11:53:15,NA,incomplete,99,number,1,right,Green_Plus_Stripes_4.jpg,Green_Triangle_Grid_1.jpg,Blue_Star_Chess_4.jpg,right,1874.8550000000396,true,high,NA,NA,NA,NA,NA,NA,NA,false
6RzznpnS,3vll1pieot1c2ogsesvb4yutk6poza,3yt88d1n0cbueomemvdbi04w5wm3k3,6RzznpnS,2020-0188,2020-05-08,11:38:26,11:53:15,NA,incomplete,100,color,1,left,Blue_Circle_Grid_2.jpg,Blue_Plus_Chess_4.jpg,Green_Triangle_Dots_2.jpg,right,1650.3950000005425,false,high,NA,NA,NA,NA,NA,NA,NA,false
6RzznpnS,3vll1pieot1c2ogsesvb4yutk6poza,3yt88d1n0cbueomemvdbi04w5wm3k3,6RzznpnS,2020-0188,2020-05-08,11:38:26,11:53:15,NA,incomplete,101,color,1,left,Purple_Plus_Dots_2.jpg,Purple_Circle_Chess_1.jpg,Blue_Star_Stripes_2.jpg,right,753.8249999997788,false,high,NA,NA,NA,NA,NA,NA,NA,false
6RzznpnS,3vll1pieot1c2ogsesvb4yutk6poza,3yt88d1n0cbueomemvdbi04w5wm3k3,6RzznpnS,2020-0188,2020-05-08,11:38:26,11:53:15,NA,incomplete,102,color,0,right,Red_Triangle_Grid_4.jpg,Purple_Circle_Stripes_4.jpg,Red_Plus_Chess_1.jpg,left,691.8850000001839,false,high,NA,NA,NA,NA,NA,NA,NA,false
6RzznpnS,3vll1pieot1c2ogsesvb4yutk6poza,3yt88d1n0cbueomemvdbi04w5wm3k3,6RzznpnS,2020-0188,2020-05-08,11:38:26,11:53:15,NA,incomplete,103,color,1,left,Purple_Star_Stripes_1.jpg,Purple_Plus_Chess_3.jpg,Green_Triangle_Dots_1.jpg,left,889.9199999996345,true,high,NA,NA,NA,NA,NA,NA,NA,false
6RzznpnS,3vll1pieot1c2ogsesvb4yutk6poza,3yt88d1n0cbueomemvdbi04w5wm3k3,6RzznpnS,2020-0188,2020-05-08,11:38:26,11:53:15,NA,incomplete,104,color,1,right,Purple_Plus_Chess_3.jpg,Green_Star_Dots_3.jpg,Purple_Circle_Stripes_2.jpg,right,1501.4800000007963,true,high,NA,NA,NA,NA,NA,NA,NA,false
6RzznpnS,3vll1pieot1c2ogsesvb4yutk6poza,3yt88d1n0cbueomemvdbi04w5wm3k3,6RzznpnS,2020-0188,2020-05-08,11:38:26,11:53:15,NA,incomplete,105,color,1,left,Green_Circle_Stripes_3.jpg,Green_Star_Dots_1.jpg,Red_Plus_Grid_3.jpg,left,1780.8000000005122,true,high,NA,NA,NA,NA,NA,NA,NA,false
6RzznpnS,3vll1pieot1c2ogsesvb4yutk6poza,3yt88d1n0cbueomemvdbi04w5wm3k3,6RzznpnS,2020-0188,2020-05-08,11:38:26,11:53:15,NA,incomplete,106,color,1,left,Red_Star_Grid_3.jpg,Red_Circle_Chess_1.jpg,Green_Triangle_Stripes_3.jpg,right,1439.0500000008615,false,high,NA,NA,NA,NA,NA,NA,NA,false
6RzznpnS,3vll1pieot1c2ogsesvb4yutk6poza,3yt88d1n0cbueomemvdbi04w5wm3k3,6RzznpnS,2020-0188,2020-05-08,11:38:26,11:53:15,NA,incomplete,107,color,1,right,Red_Circle_Grid_1.jpg,Green_Triangle_Chess_1.jpg,Red_Star_Stripes_4.jpg,none,0,false,high,NA,NA,NA,NA,NA,NA,NA,false
6RzznpnS,3vll1pieot1c2ogsesvb4yutk6poza,3yt88d1n0cbueomemvdbi04w5wm3k3,6RzznpnS,2020-0188,2020-05-08,11:38:26,11:53:15,NA,incomplete,108,color,1,right,Red_Circle_Grid_4.jpg,Blue_Plus_Chess_4.jpg,Red_Triangle_Dots_1.jpg,left,1091.3499999988126,false,high,NA,NA,NA,NA,NA,NA,NA,false
6RzznpnS,3vll1pieot1c2ogsesvb4yutk6poza,3yt88d1n0cbueomemvdbi04w5wm3k3,6RzznpnS,2020-0188,2020-05-08,11:38:26,11:53:15,NA,incomplete,109,color,1,right,Green_Star_Stripes_4.jpg,Blue_Plus_Dots_4.jpg,Green_Circle_Chess_3.jpg,right,701.8600000010338,true,high,NA,NA,NA,NA,NA,NA,NA,false
6RzznpnS,3vll1pieot1c2ogsesvb4yutk6poza,3yt88d1n0cbueomemvdbi04w5wm3k3,6RzznpnS,2020-0188,2020-05-08,11:38:26,11:53:15,NA,incomplete,110,number,1,right,Blue_Plus_Grid_2.jpg,Blue_Circle_Dots_1.jpg,Red_Star_Stripes_2.jpg,left,893.7900000000373,false,high,NA,NA,NA,NA,NA,NA,NA,false
6RzznpnS,3vll1pieot1c2ogsesvb4yutk6poza,3yt88d1n0cbueomemvdbi04w5wm3k3,6RzznpnS,2020-0188,2020-05-08,11:38:26,11:53:15,NA,incomplete,111,number,1,right,Blue_Star_Dots_2.jpg,Blue_Circle_Grid_3.jpg,Red_Plus_Chess_2.jpg,right,950.8550000010291,true,high,NA,NA,NA,NA,NA,NA,NA,false
6RzznpnS,3vll1pieot1c2ogsesvb4yutk6poza,3yt88d1n0cbueomemvdbi04w5wm3k3,6RzznpnS,2020-0188,2020-05-08,11:38:26,11:53:15,NA,incomplete,112,number,1,left,Green_Triangle_Grid_3.jpg,Blue_Circle_Chess_3.jpg,Green_Plus_Stripes_4.jpg,right,867.3950000010664,false,high,NA,NA,NA,NA,NA,NA,NA,false
6RzznpnS,3vll1pieot1c2ogsesvb4yutk6poza,3yt88d1n0cbueomemvdbi04w5wm3k3,6RzznpnS,2020-0188,2020-05-08,11:38:26,11:53:15,NA,incomplete,113,number,0,right,Green_Star_Grid_4.jpg,Green_Plus_Dots_1.jpg,Red_Triangle_Stripes_4.jpg,left,986.2400000002235,false,high,NA,NA,NA,NA,NA,NA,NA,false
6RzznpnS,3vll1pieot1c2ogsesvb4yutk6poza,3yt88d1n0cbueomemvdbi04w5wm3k3,6RzznpnS,2020-0188,2020-05-08,11:38:26,11:53:15,NA,incomplete,114,number,1,left,Blue_Plus_Stripes_2.jpg,Purple_Star_Dots_2.jpg,Blue_Triangle_Chess_1.jpg,left,912.4599999996135,true,high,NA,NA,NA,NA,NA,NA,NA,false
6RzznpnS,3vll1pieot1c2ogsesvb4yutk6poza,3yt88d1n0cbueomemvdbi04w5wm3k3,6RzznpnS,2020-0188,2020-05-08,11:38:26,11:53:15,NA,incomplete,115,number,1,right,Blue_Circle_Grid_3.jpg,Blue_Plus_Stripes_4.jpg,Green_Triangle_Chess_3.jpg,right,802.315000000759,true,high,NA,NA,NA,NA,NA,NA,NA,false
6RzznpnS,3vll1pieot1c2ogsesvb4yutk6poza,3yt88d1n0cbueomemvdbi04w5wm3k3,6RzznpnS,2020-0188,2020-05-08,11:38:26,11:53:15,NA,incomplete,116,number,1,left,Green_Star_Chess_4.jpg,Blue_Plus_Stripes_4.jpg,Green_Triangle_Grid_3.jpg,right,1567.5799999990268,false,high,NA,NA,NA,NA,NA,NA,NA,false
6RzznpnS,3vll1pieot1c2ogsesvb4yutk6poza,3yt88d1n0cbueomemvdbi04w5wm3k3,6RzznpnS,2020-0188,2020-05-08,11:38:26,11:53:15,NA,incomplete,117,number,1,right,Blue_Star_Stripes_2.jpg,Blue_Plus_Grid_1.jpg,Purple_Triangle_Dots_2.jpg,right,745.2149999990361,true,high,NA,NA,NA,NA,NA,NA,NA,false
6RzznpnS,3vll1pieot1c2ogsesvb4yutk6poza,3yt88d1n0cbueomemvdbi04w5wm3k3,6RzznpnS,2020-0188,2020-05-08,11:38:26,11:53:15,NA,incomplete,118,number,1,left,Purple_Triangle_Grid_2.jpg,Red_Circle_Dots_2.jpg,Purple_Star_Chess_1.jpg,right,1090.7599999991944,false,high,NA,NA,NA,NA,NA,NA,NA,false
6RzznpnS,3vll1pieot1c2ogsesvb4yutk6poza,3yt88d1n0cbueomemvdbi04w5wm3k3,6RzznpnS,2020-0188,2020-05-08,11:38:26,11:53:15,NA,incomplete,119,number,1,right,Red_Triangle_Stripes_2.jpg,Red_Plus_Dots_1.jpg,Purple_Star_Chess_2.jpg,left,1712.0450000002747,false,high,NA,NA,NA,NA,NA,NA,NA,false
6RzznpnS,3vll1pieot1c2ogsesvb4yutk6poza,3yt88d1n0cbueomemvdbi04w5wm3k3,6RzznpnS,2020-0188,2020-05-08,11:38:26,11:53:15,NA,incomplete,120,color,1,left,Blue_Triangle_Grid_2.jpg,Blue_Plus_Stripes_1.jpg,Green_Star_Chess_2.jpg,left,1151.41500000027,true,high,NA,NA,NA,NA,NA,NA,NA,false
6RzznpnS,3vll1pieot1c2ogsesvb4yutk6poza,3yt88d1n0cbueomemvdbi04w5wm3k3,6RzznpnS,2020-0188,2020-05-08,11:38:26,11:53:15,NA,incomplete,121,color,1,left,Blue_Circle_Chess_3.jpg,Blue_Triangle_Stripes_1.jpg,Purple_Plus_Grid_3.jpg,right,675.0349999982864,false,high,NA,NA,NA,NA,NA,NA,NA,false
6RzznpnS,3vll1pieot1c2ogsesvb4yutk6poza,3yt88d1n0cbueomemvdbi04w5wm3k3,6RzznpnS,2020-0188,2020-05-08,11:38:26,11:53:15,NA,incomplete,122,color,1,left,Red_Star_Stripes_2.jpg,Red_Circle_Chess_4.jpg,Blue_Plus_Dots_2.jpg,left,1004.3350000014761,true,high,NA,NA,NA,NA,NA,NA,NA,false
6RzznpnS,3vll1pieot1c2ogsesvb4yutk6poza,3yt88d1n0cbueomemvdbi04w5wm3k3,6RzznpnS,2020-0188,2020-05-08,11:38:26,11:53:15,NA,incomplete,123,color,1,left,Purple_Circle_Dots_2.jpg,Purple_Star_Grid_4.jpg,Blue_Triangle_Stripes_2.jpg,right,853.4850000014994,false,high,NA,NA,NA,NA,NA,NA,NA,false
6RzznpnS,3vll1pieot1c2ogsesvb4yutk6poza,3yt88d1n0cbueomemvdbi04w5wm3k3,6RzznpnS,2020-0188,2020-05-08,11:38:26,11:53:15,NA,incomplete,124,color,1,left,Red_Triangle_Grid_1.jpg,Red_Plus_Dots_2.jpg,Blue_Circle_Stripes_1.jpg,left,657.5749999992549,true,high,NA,NA,NA,NA,NA,NA,NA,false
6RzznpnS,3vll1pieot1c2ogsesvb4yutk6poza,3yt88d1n0cbueomemvdbi04w5wm3k3,6RzznpnS,2020-0188,2020-05-08,11:38:26,11:53:15,NA,incomplete,125,color,1,right,Blue_Circle_Chess_4.jpg,Red_Star_Grid_4.jpg,Blue_Triangle_Dots_1.jpg,left,736.0349999999162,false,high,NA,NA,NA,NA,NA,NA,NA,false
6RzznpnS,3vll1pieot1c2ogsesvb4yutk6poza,3yt88d1n0cbueomemvdbi04w5wm3k3,6RzznpnS,2020-0188,2020-05-08,11:38:26,11:53:15,NA,incomplete,126,color,1,left,Green_Triangle_Grid_3.jpg,Green_Circle_Chess_4.jpg,Blue_Plus_Dots_3.jpg,right,934.1050000002142,false,high,NA,NA,NA,NA,NA,NA,NA,false
6RzznpnS,3vll1pieot1c2ogsesvb4yutk6poza,3yt88d1n0cbueomemvdbi04w5wm3k3,6RzznpnS,2020-0188,2020-05-08,11:38:26,11:53:15,NA,incomplete,127,color,1,left,Green_Plus_Stripes_1.jpg,Green_Circle_Dots_4.jpg,Blue_Star_Grid_1.jpg,left,701.9899999996414,true,high,NA,NA,NA,NA,NA,NA,NA,false
6RzznpnS,3vll1pieot1c2ogsesvb4yutk6poza,3yt88d1n0cbueomemvdbi04w5wm3k3,6RzznpnS,2020-0188,2020-05-08,11:38:26,11:53:15,NA,incomplete,128,color,1,right,Green_Plus_Chess_4.jpg,Blue_Triangle_Stripes_4.jpg,Green_Circle_Dots_2.jpg,right,947.7950000000419,true,high,NA,NA,NA,NA,NA,NA,NA,false
6RzznpnS,3vll1pieot1c2ogsesvb4yutk6poza,3yt88d1n0cbueomemvdbi04w5wm3k3,6RzznpnS,2020-0188,2020-05-08,11:38:26,11:53:15,NA,incomplete,129,color,1,right,Blue_Triangle_Chess_4.jpg,Purple_Star_Grid_4.jpg,Blue_Plus_Dots_3.jpg,left,894.164999999688,false,high,NA,NA,NA,NA,NA,NA,NA,false
6RzznpnS,3vll1pieot1c2ogsesvb4yutk6poza,3yt88d1n0cbueomemvdbi04w5wm3k3,6RzznpnS,2020-0188,2020-05-08,11:38:26,11:53:15,NA,incomplete,130,color,1,left,Red_Triangle_Grid_4.jpg,Red_Circle_Stripes_1.jpg,Blue_Plus_Chess_4.jpg,left,1083.9149999993388,true,high,NA,NA,NA,NA,NA,NA,NA,false
6RzznpnS,3vll1pieot1c2ogsesvb4yutk6poza,3yt88d1n0cbueomemvdbi04w5wm3k3,6RzznpnS,2020-0188,2020-05-08,11:38:26,11:53:15,NA,incomplete,131,color,1,right,Red_Star_Chess_1.jpg,Blue_Plus_Dots_1.jpg,Red_Triangle_Stripes_2.jpg,right,713.8049999994691,true,high,NA,NA,NA,NA,NA,NA,NA,false
6RzznpnS,3vll1pieot1c2ogsesvb4yutk6poza,3yt88d1n0cbueomemvdbi04w5wm3k3,6RzznpnS,2020-0188,2020-05-08,11:38:26,11:53:15,NA,incomplete,132,color,1,right,Blue_Plus_Chess_1.jpg,Purple_Circle_Dots_1.jpg,Blue_Star_Grid_4.jpg,left,1200.9449999986682,false,high,NA,NA,NA,NA,NA,NA,NA,false
6RzznpnS,3vll1pieot1c2ogsesvb4yutk6poza,3yt88d1n0cbueomemvdbi04w5wm3k3,6RzznpnS,2020-0188,2020-05-08,11:38:26,11:53:15,NA,incomplete,133,color,1,left,Blue_Star_Chess_3.jpg,Blue_Circle_Stripes_4.jpg,Red_Plus_Grid_3.jpg,left,800.6799999984214,true,high,NA,NA,NA,NA,NA,NA,NA,false
6RzznpnS,3vll1pieot1c2ogsesvb4yutk6poza,3yt88d1n0cbueomemvdbi04w5wm3k3,6RzznpnS,2020-0188,2020-05-08,11:38:26,11:53:15,NA,incomplete,134,color,1,left,Purple_Circle_Stripes_3.jpg,Purple_Star_Chess_4.jpg,Blue_Plus_Grid_3.jpg,left,612.4449999987846,true,high,NA,NA,NA,NA,NA,NA,NA,false
6RzznpnS,3vll1pieot1c2ogsesvb4yutk6poza,3yt88d1n0cbueomemvdbi04w5wm3k3,6RzznpnS,2020-0188,2020-05-08,11:38:26,11:53:15,NA,incomplete,135,color,1,left,Purple_Circle_Chess_3.jpg,Purple_Plus_Stripes_2.jpg,Blue_Triangle_Dots_3.jpg,left,432.9199999993434,true,high,NA,NA,NA,NA,NA,NA,NA,false
6RzznpnS,3vll1pieot1c2ogsesvb4yutk6poza,3yt88d1n0cbueomemvdbi04w5wm3k3,6RzznpnS,2020-0188,2020-05-08,11:38:26,11:53:15,NA,incomplete,136,color,0,right,Blue_Triangle_Chess_1.jpg,Red_Plus_Grid_1.jpg,Blue_Circle_Dots_3.jpg,right,591.6949999991339,true,high,NA,NA,NA,NA,NA,NA,NA,false
6RzznpnS,3vll1pieot1c2ogsesvb4yutk6poza,3yt88d1n0cbueomemvdbi04w5wm3k3,6RzznpnS,2020-0188,2020-05-08,11:38:26,11:53:15,NA,incomplete,137,color,1,right,Purple_Plus_Stripes_1.jpg,Red_Triangle_Grid_1.jpg,Purple_Star_Chess_3.jpg,right,533.294999999227,true,high,NA,NA,NA,NA,NA,NA,NA,false
6RzznpnS,3vll1pieot1c2ogsesvb4yutk6poza,3yt88d1n0cbueomemvdbi04w5wm3k3,6RzznpnS,2020-0188,2020-05-08,11:38:26,11:53:15,NA,incomplete,138,color,1,left,Green_Triangle_Stripes_3.jpg,Green_Plus_Dots_1.jpg,Red_Circle_Grid_3.jpg,left,660.4100000003818,true,high,NA,NA,NA,NA,NA,NA,NA,false
6RzznpnS,3vll1pieot1c2ogsesvb4yutk6poza,3yt88d1n0cbueomemvdbi04w5wm3k3,6RzznpnS,2020-0188,2020-05-08,11:38:26,11:53:15,NA,incomplete,139,color,0,left,Blue_Circle_Dots_2.jpg,Blue_Plus_Chess_3.jpg,Red_Triangle_Stripes_2.jpg,left,483.81499999947846,true,high,NA,NA,NA,NA,NA,NA,NA,false
6RzznpnS,3vll1pieot1c2ogsesvb4yutk6poza,3yt88d1n0cbueomemvdbi04w5wm3k3,6RzznpnS,2020-0188,2020-05-08,11:38:26,11:53:15,NA,incomplete,140,number,1,right,Green_Triangle_Stripes_2.jpg,Green_Circle_Chess_3.jpg,Blue_Star_Dots_2.jpg,left,461.5150000009453,false,high,NA,NA,NA,NA,NA,NA,NA,false
6RzznpnS,3vll1pieot1c2ogsesvb4yutk6poza,3yt88d1n0cbueomemvdbi04w5wm3k3,6RzznpnS,2020-0188,2020-05-08,11:38:26,11:53:15,NA,incomplete,141,number,1,left,Purple_Circle_Grid_3.jpg,Red_Plus_Chess_3.jpg,Purple_Star_Dots_1.jpg,right,617.3500000004424,false,high,NA,NA,NA,NA,NA,NA,NA,false
6RzznpnS,3vll1pieot1c2ogsesvb4yutk6poza,3yt88d1n0cbueomemvdbi04w5wm3k3,6RzznpnS,2020-0188,2020-05-08,11:38:26,11:53:15,NA,incomplete,142,number,1,right,Green_Star_Stripes_2.jpg,Green_Triangle_Grid_4.jpg,Blue_Plus_Dots_2.jpg,left,523.8950000002515,false,high,NA,NA,NA,NA,NA,NA,NA,false
6RzznpnS,3vll1pieot1c2ogsesvb4yutk6poza,3yt88d1n0cbueomemvdbi04w5wm3k3,6RzznpnS,2020-0188,2020-05-08,11:38:26,11:53:15,NA,incomplete,143,number,1,right,Green_Star_Stripes_3.jpg,Green_Plus_Grid_1.jpg,Red_Triangle_Chess_3.jpg,left,653.6150000010384,false,high,NA,NA,NA,NA,NA,NA,NA,false
6RzznpnS,3vll1pieot1c2ogsesvb4yutk6poza,3yt88d1n0cbueomemvdbi04w5wm3k3,6RzznpnS,2020-0188,2020-05-08,11:38:26,11:53:15,NA,incomplete,144,number,1,right,Purple_Star_Dots_4.jpg,Purple_Circle_Grid_2.jpg,Red_Plus_Chess_4.jpg,right,695.5400000006193,true,high,NA,NA,NA,NA,NA,NA,NA,false
6RzznpnS,3vll1pieot1c2ogsesvb4yutk6poza,3yt88d1n0cbueomemvdbi04w5wm3k3,6RzznpnS,2020-0188,2020-05-08,11:38:26,11:53:15,NA,incomplete,145,number,0,right,Purple_Star_Chess_3.jpg,Purple_Plus_Dots_1.jpg,Blue_Circle_Grid_3.jpg,right,1117.2200000000885,true,high,NA,NA,NA,NA,NA,NA,NA,false
6RzznpnS,3vll1pieot1c2ogsesvb4yutk6poza,3yt88d1n0cbueomemvdbi04w5wm3k3,6RzznpnS,2020-0188,2020-05-08,11:38:26,11:53:15,NA,incomplete,146,number,1,right,Green_Plus_Dots_2.jpg,Green_Triangle_Chess_3.jpg,Red_Circle_Grid_2.jpg,left,556.2899999986403,false,high,NA,NA,NA,NA,NA,NA,NA,false
6RzznpnS,3vll1pieot1c2ogsesvb4yutk6poza,3yt88d1n0cbueomemvdbi04w5wm3k3,6RzznpnS,2020-0188,2020-05-08,11:38:26,11:53:15,NA,incomplete,147,number,0,right,Red_Star_Dots_3.jpg,Red_Circle_Chess_1.jpg,Purple_Triangle_Grid_3.jpg,right,885.5450000009732,true,high,NA,NA,NA,NA,NA,NA,NA,false
6RzznpnS,3vll1pieot1c2ogsesvb4yutk6poza,3yt88d1n0cbueomemvdbi04w5wm3k3,6RzznpnS,2020-0188,2020-05-08,11:38:26,11:53:15,NA,incomplete,148,number,1,left,Green_Plus_Chess_4.jpg,Red_Triangle_Dots_4.jpg,Green_Star_Grid_2.jpg,right,710.3599999991711,false,high,NA,NA,NA,NA,NA,NA,NA,false
6RzznpnS,3vll1pieot1c2ogsesvb4yutk6poza,3yt88d1n0cbueomemvdbi04w5wm3k3,6RzznpnS,2020-0188,2020-05-08,11:38:26,11:53:15,NA,incomplete,149,number,1,left,Purple_Triangle_Dots_1.jpg,Red_Plus_Chess_1.jpg,Purple_Circle_Stripes_2.jpg,right,488.5400000002701,false,high,NA,NA,NA,NA,NA,NA,NA,false
6RzznpnS,3vll1pieot1c2ogsesvb4yutk6poza,3yt88d1n0cbueomemvdbi04w5wm3k3,6RzznpnS,2020-0188,2020-05-08,11:38:26,11:53:15,NA,incomplete,150,number,1,left,Blue_Triangle_Dots_1.jpg,Purple_Plus_Grid_1.jpg,Blue_Star_Stripes_3.jpg,right,571.045000000624,false,high,NA,NA,NA,NA,NA,NA,NA,false
6RzznpnS,3vll1pieot1c2ogsesvb4yutk6poza,3yt88d1n0cbueomemvdbi04w5wm3k3,6RzznpnS,2020-0188,2020-05-08,11:38:26,11:53:15,NA,incomplete,151,number,1,left,Purple_Circle_Stripes_1.jpg,Blue_Triangle_Chess_1.jpg,Purple_Plus_Grid_4.jpg,right,474.3300000008894,false,high,NA,NA,NA,NA,NA,NA,NA,false
6RzznpnS,3vll1pieot1c2ogsesvb4yutk6poza,3yt88d1n0cbueomemvdbi04w5wm3k3,6RzznpnS,2020-0188,2020-05-08,11:38:26,11:53:15,NA,incomplete,152,number,1,left,Green_Star_Grid_1.jpg,Purple_Triangle_Stripes_1.jpg,Green_Plus_Dots_2.jpg,left,543.5149999994319,true,high,NA,NA,NA,NA,NA,NA,NA,false
6RzznpnS,3vll1pieot1c2ogsesvb4yutk6poza,3yt88d1n0cbueomemvdbi04w5wm3k3,6RzznpnS,2020-0188,2020-05-08,11:38:26,11:53:15,NA,incomplete,153,number,0,right,Blue_Triangle_Dots_3.jpg,Blue_Circle_Grid_2.jpg,Green_Plus_Stripes_3.jpg,right,1073.9849999990547,true,high,NA,NA,NA,NA,NA,NA,NA,false
6RzznpnS,3vll1pieot1c2ogsesvb4yutk6poza,3yt88d1n0cbueomemvdbi04w5wm3k3,6RzznpnS,2020-0188,2020-05-08,11:38:26,11:53:15,NA,incomplete,154,number,1,right,Green_Circle_Dots_4.jpg,Green_Triangle_Stripes_2.jpg,Red_Plus_Grid_4.jpg,right,1180.3049999999348,true,high,NA,NA,NA,NA,NA,NA,NA,false
6RzznpnS,3vll1pieot1c2ogsesvb4yutk6poza,3yt88d1n0cbueomemvdbi04w5wm3k3,6RzznpnS,2020-0188,2020-05-08,11:38:26,11:53:15,NA,incomplete,155,number,0,left,Blue_Circle_Chess_1.jpg,Red_Plus_Stripes_1.jpg,Blue_Triangle_Grid_4.jpg,left,1466.199999999022,true,high,NA,NA,NA,NA,NA,NA,NA,false
6RzznpnS,3vll1pieot1c2ogsesvb4yutk6poza,3yt88d1n0cbueomemvdbi04w5wm3k3,6RzznpnS,2020-0188,2020-05-08,11:38:26,11:53:15,NA,incomplete,156,number,1,left,Red_Triangle_Dots_2.jpg,Green_Star_Stripes_2.jpg,Red_Plus_Grid_3.jpg,left,1037.5750000003027,true,high,NA,NA,NA,NA,NA,NA,NA,false
6RzznpnS,3vll1pieot1c2ogsesvb4yutk6poza,3yt88d1n0cbueomemvdbi04w5wm3k3,6RzznpnS,2020-0188,2020-05-08,11:38:26,11:53:15,NA,incomplete,157,number,0,left,Red_Triangle_Chess_1.jpg,Green_Star_Dots_1.jpg,Red_Circle_Grid_2.jpg,left,1788.2100000005448,true,high,NA,NA,NA,NA,NA,NA,NA,false
6RzznpnS,3vll1pieot1c2ogsesvb4yutk6poza,3yt88d1n0cbueomemvdbi04w5wm3k3,6RzznpnS,2020-0188,2020-05-08,11:38:26,11:53:15,NA,incomplete,158,number,1,right,Blue_Plus_Dots_4.jpg,Blue_Star_Grid_1.jpg,Green_Circle_Chess_4.jpg,right,650.9999999997672,true,high,NA,NA,NA,NA,NA,NA,NA,false
6RzznpnS,3vll1pieot1c2ogsesvb4yutk6poza,3yt88d1n0cbueomemvdbi04w5wm3k3,6RzznpnS,2020-0188,2020-05-08,11:38:26,11:53:15,NA,incomplete,159,number,1,right,Purple_Circle_Chess_3.jpg,Purple_Star_Dots_1.jpg,Blue_Triangle_Grid_3.jpg,right,572.7599999991944,true,high,NA,NA,NA,NA,NA,NA,NA,false
6RzznpnS,3vll1pieot1c2ogsesvb4yutk6poza,3yt88d1n0cbueomemvdbi04w5wm3k3,6RzznpnS,2020-0188,2020-05-08,11:38:26,11:53:15,NA,incomplete,160,color,0,right,Green_Circle_Stripes_3.jpg,Red_Star_Dots_3.jpg,Green_Plus_Chess_1.jpg,left,636.7850000006147,false,high,NA,NA,NA,NA,NA,NA,NA,false
6RzznpnS,3vll1pieot1c2ogsesvb4yutk6poza,3yt88d1n0cbueomemvdbi04w5wm3k3,6RzznpnS,2020-0188,2020-05-08,11:38:26,11:53:15,NA,incomplete,161,color,1,right,Blue_Circle_Stripes_3.jpg,Purple_Star_Chess_3.jpg,Blue_Triangle_Grid_1.jpg,left,1577.5050000011688,false,high,NA,NA,NA,NA,NA,NA,NA,false
6RzznpnS,3vll1pieot1c2ogsesvb4yutk6poza,3yt88d1n0cbueomemvdbi04w5wm3k3,6RzznpnS,2020-0188,2020-05-08,11:38:26,11:53:15,NA,incomplete,162,color,1,right,Red_Star_Chess_1.jpg,Purple_Circle_Dots_1.jpg,Red_Plus_Grid_3.jpg,left,873.2799999997951,false,high,NA,NA,NA,NA,NA,NA,NA,false
6RzznpnS,3vll1pieot1c2ogsesvb4yutk6poza,3yt88d1n0cbueomemvdbi04w5wm3k3,6RzznpnS,2020-0188,2020-05-08,11:38:26,11:53:15,NA,incomplete,163,color,1,left,Purple_Star_Chess_4.jpg,Purple_Triangle_Grid_1.jpg,Green_Plus_Dots_4.jpg,right,880.3649999990594,false,high,NA,NA,NA,NA,NA,NA,NA,false
6RzznpnS,3vll1pieot1c2ogsesvb4yutk6poza,3yt88d1n0cbueomemvdbi04w5wm3k3,6RzznpnS,2020-0188,2020-05-08,11:38:26,11:53:15,NA,incomplete,164,color,1,left,Red_Plus_Stripes_4.jpg,Red_Star_Grid_2.jpg,Blue_Triangle_Dots_4.jpg,left,1118.505000000354,true,high,NA,NA,NA,NA,NA,NA,NA,false
6RzznpnS,3vll1pieot1c2ogsesvb4yutk6poza,3yt88d1n0cbueomemvdbi04w5wm3k3,6RzznpnS,2020-0188,2020-05-08,11:38:26,11:53:15,NA,incomplete,165,color,1,right,Red_Circle_Grid_2.jpg,Purple_Triangle_Chess_2.jpg,Red_Plus_Dots_4.jpg,left,1220.5199999988545,false,high,NA,NA,NA,NA,NA,NA,NA,false
6RzznpnS,3vll1pieot1c2ogsesvb4yutk6poza,3yt88d1n0cbueomemvdbi04w5wm3k3,6RzznpnS,2020-0188,2020-05-08,11:38:26,11:53:15,NA,incomplete,166,color,1,left,Red_Star_Grid_4.jpg,Red_Plus_Dots_3.jpg,Blue_Triangle_Stripes_4.jpg,left,983.540000001085,true,high,NA,NA,NA,NA,NA,NA,NA,false
6RzznpnS,3vll1pieot1c2ogsesvb4yutk6poza,3yt88d1n0cbueomemvdbi04w5wm3k3,6RzznpnS,2020-0188,2020-05-08,11:38:26,11:53:15,NA,incomplete,167,color,1,right,Red_Plus_Grid_4.jpg,Purple_Circle_Dots_4.jpg,Red_Triangle_Stripes_1.jpg,left,814.1749999994645,false,high,NA,NA,NA,NA,NA,NA,NA,false
6RzznpnS,3vll1pieot1c2ogsesvb4yutk6poza,3yt88d1n0cbueomemvdbi04w5wm3k3,6RzznpnS,2020-0188,2020-05-08,11:38:26,11:53:15,NA,incomplete,168,color,0,right,Blue_Circle_Dots_4.jpg,Green_Star_Chess_4.jpg,Blue_Plus_Stripes_3.jpg,left,776.6750000009779,false,high,NA,NA,NA,NA,NA,NA,NA,false
6RzznpnS,3vll1pieot1c2ogsesvb4yutk6poza,3yt88d1n0cbueomemvdbi04w5wm3k3,6RzznpnS,2020-0188,2020-05-08,11:38:26,11:53:15,NA,incomplete,169,color,1,right,Red_Plus_Grid_3.jpg,Green_Triangle_Dots_3.jpg,Red_Circle_Stripes_1.jpg,left,755.4400000008754,false,high,NA,NA,NA,NA,NA,NA,NA,false
6RzznpnS,3vll1pieot1c2ogsesvb4yutk6poza,3yt88d1n0cbueomemvdbi04w5wm3k3,6RzznpnS,2020-0188,2020-05-08,11:38:26,11:53:15,NA,incomplete,170,color,1,right,Blue_Star_Grid_4.jpg,Red_Circle_Dots_4.jpg,Blue_Triangle_Stripes_3.jpg,left,761.8000000002794,false,high,NA,NA,NA,NA,NA,NA,NA,false
6RzznpnS,3vll1pieot1c2ogsesvb4yutk6poza,3yt88d1n0cbueomemvdbi04w5wm3k3,6RzznpnS,2020-0188,2020-05-08,11:38:26,11:53:15,NA,incomplete,171,color,1,left,Blue_Plus_Stripes_4.jpg,Blue_Star_Dots_2.jpg,Red_Triangle_Grid_4.jpg,right,474.7950000001583,false,high,NA,NA,NA,NA,NA,NA,NA,false
6RzznpnS,3vll1pieot1c2ogsesvb4yutk6poza,3yt88d1n0cbueomemvdbi04w5wm3k3,6RzznpnS,2020-0188,2020-05-08,11:38:26,11:53:15,NA,incomplete,172,color,0,right,Red_Plus_Dots_4.jpg,Purple_Triangle_Chess_4.jpg,Red_Circle_Stripes_3.jpg,left,664.6500000007218,false,high,NA,NA,NA,NA,NA,NA,NA,false
6RzznpnS,3vll1pieot1c2ogsesvb4yutk6poza,3yt88d1n0cbueomemvdbi04w5wm3k3,6RzznpnS,2020-0188,2020-05-08,11:38:26,11:53:15,NA,incomplete,173,color,1,right,Blue_Circle_Grid_3.jpg,Red_Plus_Chess_3.jpg,Blue_Triangle_Stripes_4.jpg,left,729.7250000010245,false,high,NA,NA,NA,NA,NA,NA,NA,false
6RzznpnS,3vll1pieot1c2ogsesvb4yutk6poza,3yt88d1n0cbueomemvdbi04w5wm3k3,6RzznpnS,2020-0188,2020-05-08,11:38:26,11:53:15,NA,incomplete,174,color,0,left,Green_Star_Dots_1.jpg,Green_Circle_Chess_3.jpg,Purple_Triangle_Stripes_1.jpg,left,1062.394999998971,true,high,NA,NA,NA,NA,NA,NA,NA,false
6RzznpnS,3vll1pieot1c2ogsesvb4yutk6poza,3yt88d1n0cbueomemvdbi04w5wm3k3,6RzznpnS,2020-0188,2020-05-08,11:38:26,11:53:15,NA,incomplete,175,color,1,right,Green_Star_Chess_3.jpg,Blue_Plus_Grid_3.jpg,Green_Circle_Stripes_4.jpg,left,647.5449999998091,false,high,NA,NA,NA,NA,NA,NA,NA,false
6RzznpnS,3vll1pieot1c2ogsesvb4yutk6poza,3yt88d1n0cbueomemvdbi04w5wm3k3,6RzznpnS,2020-0188,2020-05-08,11:38:26,11:53:15,NA,incomplete,176,color,1,left,Purple_Triangle_Chess_4.jpg,Purple_Plus_Grid_2.jpg,Blue_Circle_Stripes_4.jpg,right,709.0050000005867,false,high,NA,NA,NA,NA,NA,NA,NA,false
6RzznpnS,3vll1pieot1c2ogsesvb4yutk6poza,3yt88d1n0cbueomemvdbi04w5wm3k3,6RzznpnS,2020-0188,2020-05-08,11:38:26,11:53:15,NA,incomplete,177,color,1,right,Green_Circle_Dots_4.jpg,Purple_Star_Stripes_4.jpg,Green_Plus_Chess_3.jpg,left,502.6849999995902,false,high,NA,NA,NA,NA,NA,NA,NA,false
6RzznpnS,3vll1pieot1c2ogsesvb4yutk6poza,3yt88d1n0cbueomemvdbi04w5wm3k3,6RzznpnS,2020-0188,2020-05-08,11:38:26,11:53:15,NA,incomplete,178,color,0,right,Green_Plus_Grid_2.jpg,Red_Circle_Chess_2.jpg,Green_Star_Stripes_4.jpg,left,1149.2100000013597,false,high,NA,NA,NA,NA,NA,NA,NA,false
6RzznpnS,3vll1pieot1c2ogsesvb4yutk6poza,3yt88d1n0cbueomemvdbi04w5wm3k3,6RzznpnS,2020-0188,2020-05-08,11:38:26,11:53:15,NA,incomplete,179,color,1,right,Red_Star_Chess_3.jpg,Blue_Plus_Grid_3.jpg,Red_Circle_Dots_1.jpg,right,744.4799999993993,true,high,NA,NA,NA,NA,NA,NA,NA,false
6RzznpnS,3vll1pieot1c2ogsesvb4yutk6poza,3yt88d1n0cbueomemvdbi04w5wm3k3,6RzznpnS,2020-0188,2020-05-08,11:38:26,11:53:15,NA,incomplete,180,number,1,right,Purple_Plus_Grid_1.jpg,Purple_Star_Dots_3.jpg,Blue_Circle_Chess_1.jpg,left,1288.7650000010617,false,high,NA,NA,NA,NA,NA,NA,NA,false
6RzznpnS,3vll1pieot1c2ogsesvb4yutk6poza,3yt88d1n0cbueomemvdbi04w5wm3k3,6RzznpnS,2020-0188,2020-05-08,11:38:26,11:53:15,NA,incomplete,181,number,0,left,Green_Triangle_Dots_2.jpg,Purple_Circle_Chess_2.jpg,Green_Plus_Grid_4.jpg,left,716.7150000004331,true,high,NA,NA,NA,NA,NA,NA,NA,false
6RzznpnS,3vll1pieot1c2ogsesvb4yutk6poza,3yt88d1n0cbueomemvdbi04w5wm3k3,6RzznpnS,2020-0188,2020-05-08,11:38:26,11:53:15,NA,incomplete,182,number,1,right,Green_Triangle_Chess_1.jpg,Green_Plus_Grid_2.jpg,Blue_Circle_Dots_1.jpg,left,939.3999999993248,false,high,NA,NA,NA,NA,NA,NA,NA,false
6RzznpnS,3vll1pieot1c2ogsesvb4yutk6poza,3yt88d1n0cbueomemvdbi04w5wm3k3,6RzznpnS,2020-0188,2020-05-08,11:38:26,11:53:15,NA,incomplete,183,number,1,left,Blue_Circle_Stripes_4.jpg,Green_Plus_Dots_4.jpg,Blue_Triangle_Grid_3.jpg,right,1068.8949999985052,false,high,NA,NA,NA,NA,NA,NA,NA,false
6RzznpnS,3vll1pieot1c2ogsesvb4yutk6poza,3yt88d1n0cbueomemvdbi04w5wm3k3,6RzznpnS,2020-0188,2020-05-08,11:38:26,11:53:15,NA,incomplete,184,number,0,left,Red_Plus_Stripes_2.jpg,Blue_Circle_Dots_2.jpg,Red_Star_Chess_3.jpg,right,650.5950000010198,false,high,NA,NA,NA,NA,NA,NA,NA,false
6RzznpnS,3vll1pieot1c2ogsesvb4yutk6poza,3yt88d1n0cbueomemvdbi04w5wm3k3,6RzznpnS,2020-0188,2020-05-08,11:38:26,11:53:15,NA,incomplete,185,number,1,left,Green_Triangle_Grid_2.jpg,Red_Star_Chess_2.jpg,Green_Plus_Stripes_4.jpg,left,479.4450000008801,true,high,NA,NA,NA,NA,NA,NA,NA,false
6RzznpnS,3vll1pieot1c2ogsesvb4yutk6poza,3yt88d1n0cbueomemvdbi04w5wm3k3,6RzznpnS,2020-0188,2020-05-08,11:38:26,11:53:15,NA,incomplete,186,number,1,right,Red_Plus_Stripes_2.jpg,Red_Star_Dots_3.jpg,Green_Triangle_Chess_2.jpg,right,876.6950000008801,true,high,NA,NA,NA,NA,NA,NA,NA,false
6RzznpnS,3vll1pieot1c2ogsesvb4yutk6poza,3yt88d1n0cbueomemvdbi04w5wm3k3,6RzznpnS,2020-0188,2020-05-08,11:38:26,11:53:15,NA,incomplete,187,number,1,left,Purple_Triangle_Grid_2.jpg,Green_Plus_Chess_2.jpg,Purple_Star_Stripes_1.jpg,left,708.1550000002608,true,high,NA,NA,NA,NA,NA,NA,NA,false
6RzznpnS,3vll1pieot1c2ogsesvb4yutk6poza,3yt88d1n0cbueomemvdbi04w5wm3k3,6RzznpnS,2020-0188,2020-05-08,11:38:26,11:53:15,NA,incomplete,188,number,1,right,Blue_Triangle_Stripes_4.jpg,Blue_Circle_Chess_1.jpg,Green_Plus_Dots_4.jpg,right,1205.850000000326,true,high,NA,NA,NA,NA,NA,NA,NA,false
6RzznpnS,3vll1pieot1c2ogsesvb4yutk6poza,3yt88d1n0cbueomemvdbi04w5wm3k3,6RzznpnS,2020-0188,2020-05-08,11:38:26,11:53:15,NA,incomplete,189,number,1,left,Green_Plus_Stripes_3.jpg,Purple_Circle_Chess_3.jpg,Green_Triangle_Grid_1.jpg,left,947.9949999985984,true,high,NA,NA,NA,NA,NA,NA,NA,false
6RzznpnS,3vll1pieot1c2ogsesvb4yutk6poza,3yt88d1n0cbueomemvdbi04w5wm3k3,6RzznpnS,2020-0188,2020-05-08,11:38:26,11:53:15,NA,incomplete,190,number,1,right,Blue_Circle_Chess_4.jpg,Blue_Star_Grid_2.jpg,Red_Plus_Dots_4.jpg,right,657.3900000002468,true,high,NA,NA,NA,NA,NA,NA,NA,false
6RzznpnS,3vll1pieot1c2ogsesvb4yutk6poza,3yt88d1n0cbueomemvdbi04w5wm3k3,6RzznpnS,2020-0188,2020-05-08,11:38:26,11:53:15,NA,incomplete,191,number,1,left,Green_Triangle_Dots_4.jpg,Blue_Star_Chess_4.jpg,Green_Circle_Stripes_2.jpg,left,559.0900000006659,true,high,NA,NA,NA,NA,NA,NA,NA,false
6RzznpnS,3vll1pieot1c2ogsesvb4yutk6poza,3yt88d1n0cbueomemvdbi04w5wm3k3,6RzznpnS,2020-0188,2020-05-08,11:38:26,11:53:15,NA,incomplete,192,number,1,right,Blue_Triangle_Grid_1.jpg,Blue_Circle_Chess_3.jpg,Green_Plus_Stripes_1.jpg,right,567.4149999995716,true,high,NA,NA,NA,NA,NA,NA,NA,false
6RzznpnS,3vll1pieot1c2ogsesvb4yutk6poza,3yt88d1n0cbueomemvdbi04w5wm3k3,6RzznpnS,2020-0188,2020-05-08,11:38:26,11:53:15,NA,incomplete,193,number,0,left,Blue_Star_Stripes_1.jpg,Purple_Triangle_Grid_1.jpg,Blue_Plus_Dots_2.jpg,left,624.7600000005914,true,high,NA,NA,NA,NA,NA,NA,NA,false
6RzznpnS,3vll1pieot1c2ogsesvb4yutk6poza,3yt88d1n0cbueomemvdbi04w5wm3k3,6RzznpnS,2020-0188,2020-05-08,11:38:26,11:53:15,NA,incomplete,194,number,1,left,Blue_Triangle_Grid_2.jpg,Green_Circle_Stripes_2.jpg,Blue_Star_Dots_1.jpg,left,559.5150000008289,true,high,NA,NA,NA,NA,NA,NA,NA,false
6RzznpnS,3vll1pieot1c2ogsesvb4yutk6poza,3yt88d1n0cbueomemvdbi04w5wm3k3,6RzznpnS,2020-0188,2020-05-08,11:38:26,11:53:15,NA,incomplete,195,number,1,right,Blue_Plus_Stripes_1.jpg,Blue_Star_Grid_3.jpg,Green_Circle_Chess_1.jpg,right,529.2000000008848,true,high,NA,NA,NA,NA,NA,NA,NA,false
6RzznpnS,3vll1pieot1c2ogsesvb4yutk6poza,3yt88d1n0cbueomemvdbi04w5wm3k3,6RzznpnS,2020-0188,2020-05-08,11:38:26,11:53:15,NA,incomplete,196,number,1,right,Red_Star_Dots_2.jpg,Red_Triangle_Chess_1.jpg,Green_Plus_Stripes_2.jpg,left,856.8300000006566,false,high,NA,NA,NA,NA,NA,NA,NA,false
6RzznpnS,3vll1pieot1c2ogsesvb4yutk6poza,3yt88d1n0cbueomemvdbi04w5wm3k3,6RzznpnS,2020-0188,2020-05-08,11:38:26,11:53:15,NA,incomplete,197,number,1,left,Green_Star_Dots_2.jpg,Purple_Plus_Chess_2.jpg,Green_Triangle_Grid_1.jpg,right,512.1749999998137,false,high,NA,NA,NA,NA,NA,NA,NA,false
6RzznpnS,3vll1pieot1c2ogsesvb4yutk6poza,3yt88d1n0cbueomemvdbi04w5wm3k3,6RzznpnS,2020-0188,2020-05-08,11:38:26,11:53:15,NA,incomplete,198,number,1,left,Blue_Circle_Chess_4.jpg,Green_Triangle_Dots_4.jpg,Blue_Star_Grid_2.jpg,right,928.545000000624,false,high,NA,NA,NA,NA,NA,NA,NA,false
6RzznpnS,3vll1pieot1c2ogsesvb4yutk6poza,3yt88d1n0cbueomemvdbi04w5wm3k3,6RzznpnS,2020-0188,2020-05-08,11:38:26,11:53:15,NA,incomplete,199,number,0,right,Green_Circle_Stripes_1.jpg,Green_Star_Chess_2.jpg,Blue_Triangle_Grid_1.jpg,left,477.39999999979045,false,high,NA,NA,NA,NA,NA,NA,NA,false
6RzznpnS,3vll1pieot1c2ogsesvb4yutk6poza,3yt88d1n0cbueomemvdbi04w5wm3k3,6RzznpnS,2020-0188,2020-05-08,11:38:26,11:53:15,NA,incomplete,200,color,1,left,Green_Triangle_Chess_4.jpg,Green_Plus_Dots_1.jpg,Blue_Star_Grid_4.jpg,right,477.9950000010431,false,high,NA,NA,NA,NA,NA,NA,NA,false
6RzznpnS,3vll1pieot1c2ogsesvb4yutk6poza,3yt88d1n0cbueomemvdbi04w5wm3k3,6RzznpnS,2020-0188,2020-05-08,11:38:26,11:53:15,NA,incomplete,201,color,1,right,Blue_Plus_Stripes_2.jpg,Red_Circle_Grid_2.jpg,Blue_Star_Chess_4.jpg,left,1121.849999999511,false,high,NA,NA,NA,NA,NA,NA,NA,false
6RzznpnS,3vll1pieot1c2ogsesvb4yutk6poza,3yt88d1n0cbueomemvdbi04w5wm3k3,6RzznpnS,2020-0188,2020-05-08,11:38:26,11:53:15,NA,incomplete,202,color,0,right,Red_Plus_Chess_2.jpg,Green_Triangle_Grid_2.jpg,Red_Star_Stripes_1.jpg,left,770.8849999998929,false,high,NA,NA,NA,NA,NA,NA,NA,false
6RzznpnS,3vll1pieot1c2ogsesvb4yutk6poza,3yt88d1n0cbueomemvdbi04w5wm3k3,6RzznpnS,2020-0188,2020-05-08,11:38:26,11:53:15,NA,incomplete,203,color,1,right,Purple_Triangle_Stripes_2.jpg,Green_Plus_Chess_2.jpg,Purple_Star_Dots_4.jpg,right,624.7199999997392,true,high,NA,NA,NA,NA,NA,NA,NA,false
6RzznpnS,3vll1pieot1c2ogsesvb4yutk6poza,3yt88d1n0cbueomemvdbi04w5wm3k3,6RzznpnS,2020-0188,2020-05-08,11:38:26,11:53:15,NA,incomplete,204,color,0,left,Purple_Circle_Dots_4.jpg,Purple_Plus_Stripes_1.jpg,Red_Star_Grid_4.jpg,right,596.7550000004703,false,high,NA,NA,NA,NA,NA,NA,NA,false
6RzznpnS,3vll1pieot1c2ogsesvb4yutk6poza,3yt88d1n0cbueomemvdbi04w5wm3k3,6RzznpnS,2020-0188,2020-05-08,11:38:26,11:53:15,NA,incomplete,205,color,1,left,Red_Plus_Stripes_4.jpg,Red_Circle_Dots_1.jpg,Purple_Triangle_Chess_4.jpg,left,887.0499999993481,true,high,NA,NA,NA,NA,NA,NA,NA,false
6RzznpnS,3vll1pieot1c2ogsesvb4yutk6poza,3yt88d1n0cbueomemvdbi04w5wm3k3,6RzznpnS,2020-0188,2020-05-08,11:38:26,11:53:15,NA,incomplete,206,color,1,left,Red_Circle_Dots_1.jpg,Red_Star_Stripes_4.jpg,Purple_Triangle_Grid_1.jpg,right,794.6550000015413,false,high,NA,NA,NA,NA,NA,NA,NA,false
6RzznpnS,3vll1pieot1c2ogsesvb4yutk6poza,3yt88d1n0cbueomemvdbi04w5wm3k3,6RzznpnS,2020-0188,2020-05-08,11:38:26,11:53:15,NA,incomplete,207,color,1,left,Green_Circle_Chess_4.jpg,Green_Triangle_Dots_3.jpg,Blue_Plus_Grid_4.jpg,left,689.4149999989895,true,high,NA,NA,NA,NA,NA,NA,NA,false
6RzznpnS,3vll1pieot1c2ogsesvb4yutk6poza,3yt88d1n0cbueomemvdbi04w5wm3k3,6RzznpnS,2020-0188,2020-05-08,11:38:26,11:53:15,NA,incomplete,208,color,1,right,Green_Plus_Dots_1.jpg,Blue_Star_Stripes_1.jpg,Green_Circle_Chess_3.jpg,right,626.684999999241,true,high,NA,NA,NA,NA,NA,NA,NA,false
6RzznpnS,3vll1pieot1c2ogsesvb4yutk6poza,3yt88d1n0cbueomemvdbi04w5wm3k3,6RzznpnS,2020-0188,2020-05-08,11:38:26,11:53:15,NA,incomplete,209,color,1,right,Green_Circle_Grid_2.jpg,Blue_Triangle_Stripes_2.jpg,Green_Plus_Chess_3.jpg,right,736.1199999995297,true,high,NA,NA,NA,NA,NA,NA,NA,false
6RzznpnS,3vll1pieot1c2ogsesvb4yutk6poza,3yt88d1n0cbueomemvdbi04w5wm3k3,6RzznpnS,2020-0188,2020-05-08,11:38:26,11:53:15,NA,incomplete,210,color,1,right,Red_Star_Dots_4.jpg,Green_Circle_Grid_4.jpg,Red_Triangle_Stripes_1.jpg,left,801.2550000002375,false,high,NA,NA,NA,NA,NA,NA,NA,false
6RzznpnS,3vll1pieot1c2ogsesvb4yutk6poza,3yt88d1n0cbueomemvdbi04w5wm3k3,6RzznpnS,2020-0188,2020-05-08,11:38:26,11:53:15,NA,incomplete,211,color,1,right,Purple_Plus_Grid_1.jpg,Red_Circle_Stripes_1.jpg,Purple_Star_Dots_3.jpg,right,467.17999999958556,true,high,NA,NA,NA,NA,NA,NA,NA,false
6RzznpnS,3vll1pieot1c2ogsesvb4yutk6poza,3yt88d1n0cbueomemvdbi04w5wm3k3,6RzznpnS,2020-0188,2020-05-08,11:38:26,11:53:15,NA,incomplete,212,color,1,left,Red_Star_Grid_3.jpg,Red_Triangle_Dots_1.jpg,Blue_Circle_Stripes_3.jpg,right,658.5200000008335,false,high,NA,NA,NA,NA,NA,NA,NA,false
6RzznpnS,3vll1pieot1c2ogsesvb4yutk6poza,3yt88d1n0cbueomemvdbi04w5wm3k3,6RzznpnS,2020-0188,2020-05-08,11:38:26,11:53:15,NA,incomplete,213,color,1,left,Green_Plus_Chess_3.jpg,Green_Star_Dots_2.jpg,Red_Circle_Grid_3.jpg,right,486.9950000011595,false,high,NA,NA,NA,NA,NA,NA,NA,false
6RzznpnS,3vll1pieot1c2ogsesvb4yutk6poza,3yt88d1n0cbueomemvdbi04w5wm3k3,6RzznpnS,2020-0188,2020-05-08,11:38:26,11:53:15,NA,incomplete,214,color,1,right,Green_Triangle_Dots_4.jpg,Purple_Plus_Grid_4.jpg,Green_Star_Stripes_1.jpg,right,758.9150000003865,true,high,NA,NA,NA,NA,NA,NA,NA,false
6RzznpnS,3vll1pieot1c2ogsesvb4yutk6poza,3yt88d1n0cbueomemvdbi04w5wm3k3,6RzznpnS,2020-0188,2020-05-08,11:38:26,11:53:15,NA,incomplete,215,color,1,left,Red_Star_Dots_2.jpg,Red_Circle_Stripes_1.jpg,Blue_Plus_Grid_2.jpg,left,559.9449999990175,true,high,NA,NA,NA,NA,NA,NA,NA,false
6RzznpnS,3vll1pieot1c2ogsesvb4yutk6poza,3yt88d1n0cbueomemvdbi04w5wm3k3,6RzznpnS,2020-0188,2020-05-08,11:38:26,11:53:15,NA,incomplete,216,color,1,right,Green_Plus_Stripes_1.jpg,Red_Circle_Dots_1.jpg,Green_Star_Chess_3.jpg,right,749.2500000008149,true,high,NA,NA,NA,NA,NA,NA,NA,false
6RzznpnS,3vll1pieot1c2ogsesvb4yutk6poza,3yt88d1n0cbueomemvdbi04w5wm3k3,6RzznpnS,2020-0188,2020-05-08,11:38:26,11:53:15,NA,incomplete,217,color,0,right,Red_Triangle_Grid_2.jpg,Green_Circle_Stripes_2.jpg,Red_Star_Chess_3.jpg,right,672.8149999998277,true,high,NA,NA,NA,NA,NA,NA,NA,false
6RzznpnS,3vll1pieot1c2ogsesvb4yutk6poza,3yt88d1n0cbueomemvdbi04w5wm3k3,6RzznpnS,2020-0188,2020-05-08,11:38:26,11:53:15,NA,incomplete,218,color,1,right,Purple_Star_Grid_4.jpg,Red_Triangle_Dots_4.jpg,Purple_Plus_Stripes_3.jpg,right,775.1349999997765,true,high,NA,NA,NA,NA,NA,NA,NA,false
6RzznpnS,3vll1pieot1c2ogsesvb4yutk6poza,3yt88d1n0cbueomemvdbi04w5wm3k3,6RzznpnS,2020-0188,2020-05-08,11:38:26,11:53:15,NA,incomplete,219,color,1,left,Blue_Circle_Chess_2.jpg,Blue_Star_Grid_3.jpg,Red_Triangle_Dots_2.jpg,left,606.274999998277,true,high,NA,NA,NA,NA,NA,NA,NA,false
6RzznpnS,3vll1pieot1c2ogsesvb4yutk6poza,3yt88d1n0cbueomemvdbi04w5wm3k3,6RzznpnS,2020-0188,2020-05-08,11:38:26,11:53:15,NA,incomplete,220,number,1,right,Red_Plus_Stripes_1.jpg,Red_Triangle_Chess_4.jpg,Blue_Star_Grid_1.jpg,left,801.0200000008335,false,high,NA,NA,NA,NA,NA,NA,NA,false
6RzznpnS,3vll1pieot1c2ogsesvb4yutk6poza,3yt88d1n0cbueomemvdbi04w5wm3k3,6RzznpnS,2020-0188,2020-05-08,11:38:26,11:53:15,NA,incomplete,221,number,1,right,Purple_Triangle_Dots_3.jpg,Purple_Plus_Grid_2.jpg,Green_Star_Stripes_3.jpg,right,1011.2250000002095,true,high,NA,NA,NA,NA,NA,NA,NA,false
6RzznpnS,3vll1pieot1c2ogsesvb4yutk6poza,3yt88d1n0cbueomemvdbi04w5wm3k3,6RzznpnS,2020-0188,2020-05-08,11:38:26,11:53:15,NA,incomplete,222,number,1,left,Green_Star_Stripes_3.jpg,Blue_Circle_Chess_3.jpg,Green_Plus_Dots_4.jpg,right,668.364999999525,false,high,NA,NA,NA,NA,NA,NA,NA,false
6RzznpnS,3vll1pieot1c2ogsesvb4yutk6poza,3yt88d1n0cbueomemvdbi04w5wm3k3,6RzznpnS,2020-0188,2020-05-08,11:38:26,11:53:15,NA,incomplete,223,number,0,left,Red_Circle_Grid_4.jpg,Green_Plus_Stripes_4.jpg,Red_Triangle_Chess_3.jpg,right,666.4949999995297,false,high,NA,NA,NA,NA,NA,NA,NA,false
6RzznpnS,3vll1pieot1c2ogsesvb4yutk6poza,3yt88d1n0cbueomemvdbi04w5wm3k3,6RzznpnS,2020-0188,2020-05-08,11:38:26,11:53:15,NA,incomplete,224,number,1,right,Blue_Triangle_Grid_1.jpg,Blue_Plus_Dots_2.jpg,Green_Star_Chess_1.jpg,left,786.3049999995856,false,high,NA,NA,NA,NA,NA,NA,NA,false
6RzznpnS,3vll1pieot1c2ogsesvb4yutk6poza,3yt88d1n0cbueomemvdbi04w5wm3k3,6RzznpnS,2020-0188,2020-05-08,11:38:26,11:53:15,NA,incomplete,225,number,1,right,Green_Plus_Dots_3.jpg,Green_Triangle_Chess_2.jpg,Purple_Circle_Grid_3.jpg,right,572.7000000006519,true,high,NA,NA,NA,NA,NA,NA,NA,false
6RzznpnS,3vll1pieot1c2ogsesvb4yutk6poza,3yt88d1n0cbueomemvdbi04w5wm3k3,6RzznpnS,2020-0188,2020-05-08,11:38:26,11:53:15,NA,incomplete,226,number,0,left,Blue_Star_Chess_1.jpg,Red_Circle_Stripes_1.jpg,Blue_Triangle_Dots_3.jpg,right,488.5250000007218,false,high,NA,NA,NA,NA,NA,NA,NA,false
6RzznpnS,3vll1pieot1c2ogsesvb4yutk6poza,3yt88d1n0cbueomemvdbi04w5wm3k3,6RzznpnS,2020-0188,2020-05-08,11:38:26,11:53:15,NA,incomplete,227,number,1,right,Blue_Plus_Chess_4.jpg,Blue_Triangle_Grid_1.jpg,Purple_Circle_Dots_4.jpg,left,639.3000000007451,false,high,NA,NA,NA,NA,NA,NA,NA,false
6RzznpnS,3vll1pieot1c2ogsesvb4yutk6poza,3yt88d1n0cbueomemvdbi04w5wm3k3,6RzznpnS,2020-0188,2020-05-08,11:38:26,11:53:15,NA,incomplete,228,number,1,right,Red_Star_Grid_4.jpg,Red_Plus_Stripes_1.jpg,Purple_Circle_Chess_4.jpg,right,1160.100000000908,true,high,NA,NA,NA,NA,NA,NA,NA,false
6RzznpnS,3vll1pieot1c2ogsesvb4yutk6poza,3yt88d1n0cbueomemvdbi04w5wm3k3,6RzznpnS,2020-0188,2020-05-08,11:38:26,11:53:15,NA,incomplete,229,number,0,left,Green_Star_Stripes_3.jpg,Blue_Triangle_Grid_3.jpg,Green_Circle_Dots_2.jpg,right,773.9000000001397,false,high,NA,NA,NA,NA,NA,NA,NA,false
6RzznpnS,3vll1pieot1c2ogsesvb4yutk6poza,3yt88d1n0cbueomemvdbi04w5wm3k3,6RzznpnS,2020-0188,2020-05-08,11:38:26,11:53:15,NA,incomplete,230,number,1,left,Blue_Triangle_Stripes_2.jpg,Red_Star_Chess_2.jpg,Blue_Circle_Grid_1.jpg,right,751.3600000002189,false,high,NA,NA,NA,NA,NA,NA,NA,false
6RzznpnS,3vll1pieot1c2ogsesvb4yutk6poza,3yt88d1n0cbueomemvdbi04w5wm3k3,6RzznpnS,2020-0188,2020-05-08,11:38:26,11:53:15,NA,incomplete,231,number,1,left,Red_Plus_Chess_3.jpg,Green_Triangle_Grid_3.jpg,Red_Circle_Dots_1.jpg,left,777.8749999997672,true,high,NA,NA,NA,NA,NA,NA,NA,false
6RzznpnS,3vll1pieot1c2ogsesvb4yutk6poza,3yt88d1n0cbueomemvdbi04w5wm3k3,6RzznpnS,2020-0188,2020-05-08,11:38:26,11:53:15,NA,incomplete,232,number,0,right,Green_Circle_Grid_3.jpg,Green_Plus_Chess_4.jpg,Red_Triangle_Dots_3.jpg,left,675.149999999092,false,high,NA,NA,NA,NA,NA,NA,NA,false
6RzznpnS,3vll1pieot1c2ogsesvb4yutk6poza,3yt88d1n0cbueomemvdbi04w5wm3k3,6RzznpnS,2020-0188,2020-05-08,11:38:26,11:53:15,NA,incomplete,233,number,1,left,Green_Triangle_Chess_1.jpg,Blue_Star_Dots_1.jpg,Green_Circle_Stripes_2.jpg,right,560.2999999991152,false,high,NA,NA,NA,NA,NA,NA,NA,false
6RzznpnS,3vll1pieot1c2ogsesvb4yutk6poza,3yt88d1n0cbueomemvdbi04w5wm3k3,6RzznpnS,2020-0188,2020-05-08,11:38:26,11:53:15,NA,incomplete,234,number,1,left,Blue_Triangle_Stripes_4.jpg,Red_Star_Grid_4.jpg,Blue_Circle_Chess_3.jpg,left,597.5600000000559,true,high,NA,NA,NA,NA,NA,NA,NA,false
6RzznpnS,3vll1pieot1c2ogsesvb4yutk6poza,3yt88d1n0cbueomemvdbi04w5wm3k3,6RzznpnS,2020-0188,2020-05-08,11:38:26,11:53:15,NA,incomplete,235,number,1,right,Purple_Circle_Chess_2.jpg,Purple_Triangle_Stripes_4.jpg,Red_Plus_Grid_2.jpg,left,769.7100000005448,false,high,NA,NA,NA,NA,NA,NA,NA,false
6RzznpnS,3vll1pieot1c2ogsesvb4yutk6poza,3yt88d1n0cbueomemvdbi04w5wm3k3,6RzznpnS,2020-0188,2020-05-08,11:38:26,11:53:15,NA,incomplete,236,number,0,right,Red_Circle_Chess_4.jpg,Red_Plus_Dots_3.jpg,Blue_Star_Stripes_4.jpg,right,457.46999999939,true,high,NA,NA,NA,NA,NA,NA,NA,false
6RzznpnS,3vll1pieot1c2ogsesvb4yutk6poza,3yt88d1n0cbueomemvdbi04w5wm3k3,6RzznpnS,2020-0188,2020-05-08,11:38:26,11:53:15,NA,incomplete,237,number,1,right,Blue_Triangle_Grid_1.jpg,Blue_Circle_Stripes_4.jpg,Green_Star_Chess_1.jpg,left,550.6050000003306,false,high,NA,NA,NA,NA,NA,NA,NA,false
6RzznpnS,3vll1pieot1c2ogsesvb4yutk6poza,3yt88d1n0cbueomemvdbi04w5wm3k3,6RzznpnS,2020-0188,2020-05-08,11:38:26,11:53:15,NA,incomplete,238,number,1,right,Red_Circle_Grid_4.jpg,Red_Star_Chess_3.jpg,Green_Triangle_Stripes_4.jpg,right,579.3949999988545,true,high,NA,NA,NA,NA,NA,NA,NA,false
6RzznpnS,3vll1pieot1c2ogsesvb4yutk6poza,3yt88d1n0cbueomemvdbi04w5wm3k3,6RzznpnS,2020-0188,2020-05-08,11:38:26,11:53:15,NA,incomplete,239,number,1,left,Purple_Star_Stripes_4.jpg,Blue_Circle_Grid_4.jpg,Purple_Triangle_Chess_1.jpg,left,593.8399999995017,true,high,NA,NA,NA,NA,NA,NA,NA,false
6RzznpnS,3vll1pieot1c2ogsesvb4yutk6poza,3yt88d1n0cbueomemvdbi04w5wm3k3,6RzznpnS,2020-0188,2020-05-08,11:38:26,11:53:15,840333.2999999984,888426.9850000001,NA,NA,NA,NA,NA,NA,NA,NA,NA,NA,NA,33,White/Caucasian,Male,white,no,yes,no,undefined
