workerId,hitId,assignmentId,subject,studyid,exp_date,exp_start,exp_end,time_start,time_end,trial,type,reward_validity,answer,image_top,image_left,image_right,response,response_time,response_acc,volatility,age,race,gender,ethnicity,color,vision,neuro,practice
WaBAIADv,3ygyp13654mlicup3w1l36spsdqnrt,3z7vu45ip2uttg7lzs22hmddajhz1m,WaBAIADv,2020-0188,2020-11-15,09:01:14,09:32:05,NA,incomplete,0,shape,1,left,Purple_Star_Chess_4.jpg,Blue_Star_Dots_3.jpg,Red_Plus_Stripes_4.jpg,left,1078.2999999937601,true,NA,NA,NA,NA,NA,NA,NA,NA,true
WaBAIADv,3ygyp13654mlicup3w1l36spsdqnrt,3z7vu45ip2uttg7lzs22hmddajhz1m,WaBAIADv,2020-0188,2020-11-15,09:01:14,09:32:05,NA,incomplete,1,shape,1,right,Blue_Plus_Chess_2.jpg,Green_Circle_Dots_2.jpg,Red_Plus_Stripes_1.jpg,right,757.2650000220165,true,NA,NA,NA,NA,NA,NA,NA,NA,true
WaBAIADv,3ygyp13654mlicup3w1l36spsdqnrt,3z7vu45ip2uttg7lzs22hmddajhz1m,WaBAIADv,2020-0188,2020-11-15,09:01:14,09:32:05,NA,incomplete,2,shape,1,left,Purple_Plus_Stripes_4.jpg,Green_Plus_Chess_2.jpg,Red_Star_Grid_4.jpg,left,1307.4300000444055,true,NA,NA,NA,NA,NA,NA,NA,NA,true
WaBAIADv,3ygyp13654mlicup3w1l36spsdqnrt,3z7vu45ip2uttg7lzs22hmddajhz1m,WaBAIADv,2020-0188,2020-11-15,09:01:14,09:32:05,NA,incomplete,3,shape,0,right,Green_Star_Grid_1.jpg,Blue_Plus_Dots_1.jpg,Purple_Star_Chess_2.jpg,right,859.920000017155,true,NA,NA,NA,NA,NA,NA,NA,NA,true
WaBAIADv,3ygyp13654mlicup3w1l36spsdqnrt,3z7vu45ip2uttg7lzs22hmddajhz1m,WaBAIADv,2020-0188,2020-11-15,09:01:14,09:32:05,NA,incomplete,4,shape,1,left,Blue_Star_Dots_4.jpg,Red_Star_Stripes_2.jpg,Purple_Triangle_Chess_4.jpg,left,1602.8199999709614,true,NA,NA,NA,NA,NA,NA,NA,NA,true
WaBAIADv,3ygyp13654mlicup3w1l36spsdqnrt,3z7vu45ip2uttg7lzs22hmddajhz1m,WaBAIADv,2020-0188,2020-11-15,09:01:14,09:32:05,NA,incomplete,5,shape,1,right,Blue_Circle_Grid_2.jpg,Green_Plus_Chess_2.jpg,Red_Circle_Stripes_3.jpg,right,1795.3050000360236,true,NA,NA,NA,NA,NA,NA,NA,NA,true
WaBAIADv,3ygyp13654mlicup3w1l36spsdqnrt,3z7vu45ip2uttg7lzs22hmddajhz1m,WaBAIADv,2020-0188,2020-11-15,09:01:14,09:32:05,NA,incomplete,6,shape,0,right,Red_Circle_Dots_1.jpg,Blue_Triangle_Grid_1.jpg,Green_Circle_Stripes_3.jpg,right,1122.0500000054017,true,NA,NA,NA,NA,NA,NA,NA,NA,true
WaBAIADv,3ygyp13654mlicup3w1l36spsdqnrt,3z7vu45ip2uttg7lzs22hmddajhz1m,WaBAIADv,2020-0188,2020-11-15,09:01:14,09:32:05,NA,incomplete,7,shape,1,left,Blue_Circle_Dots_2.jpg,Green_Circle_Stripes_4.jpg,Red_Star_Grid_2.jpg,left,916.7349999770522,true,NA,NA,NA,NA,NA,NA,NA,NA,true
WaBAIADv,3ygyp13654mlicup3w1l36spsdqnrt,3z7vu45ip2uttg7lzs22hmddajhz1m,WaBAIADv,2020-0188,2020-11-15,09:01:14,09:32:05,NA,incomplete,8,shape,1,left,Blue_Triangle_Stripes_2.jpg,Purple_Triangle_Grid_4.jpg,Green_Plus_Dots_2.jpg,left,887.300000002142,true,NA,NA,NA,NA,NA,NA,NA,NA,true
WaBAIADv,3ygyp13654mlicup3w1l36spsdqnrt,3z7vu45ip2uttg7lzs22hmddajhz1m,WaBAIADv,2020-0188,2020-11-15,09:01:14,09:32:05,NA,incomplete,9,shape,1,right,Blue_Triangle_Dots_3.jpg,Green_Circle_Stripes_3.jpg,Purple_Triangle_Chess_4.jpg,right,848.2150000054389,true,NA,NA,NA,NA,NA,NA,NA,NA,true
WaBAIADv,3ygyp13654mlicup3w1l36spsdqnrt,3z7vu45ip2uttg7lzs22hmddajhz1m,WaBAIADv,2020-0188,2020-11-15,09:01:14,09:32:05,NA,incomplete,10,shape,1,left,Red_Circle_Stripes_3.jpg,Green_Circle_Chess_4.jpg,Purple_Plus_Grid_3.jpg,left,800.1500000245869,true,NA,NA,NA,NA,NA,NA,NA,NA,true
WaBAIADv,3ygyp13654mlicup3w1l36spsdqnrt,3z7vu45ip2uttg7lzs22hmddajhz1m,WaBAIADv,2020-0188,2020-11-15,09:01:14,09:32:05,NA,incomplete,11,shape,1,right,Green_Circle_Stripes_4.jpg,Red_Star_Grid_4.jpg,Blue_Circle_Chess_3.jpg,right,866.5349999791943,true,NA,NA,NA,NA,NA,NA,NA,NA,true
WaBAIADv,3ygyp13654mlicup3w1l36spsdqnrt,3z7vu45ip2uttg7lzs22hmddajhz1m,WaBAIADv,2020-0188,2020-11-15,09:01:14,09:32:05,NA,incomplete,12,shape,1,left,Red_Star_Stripes_2.jpg,Green_Star_Grid_4.jpg,Purple_Plus_Chess_2.jpg,left,1166.6449999902397,true,NA,NA,NA,NA,NA,NA,NA,NA,true
WaBAIADv,3ygyp13654mlicup3w1l36spsdqnrt,3z7vu45ip2uttg7lzs22hmddajhz1m,WaBAIADv,2020-0188,2020-11-15,09:01:14,09:32:05,NA,incomplete,13,shape,1,left,Purple_Star_Chess_1.jpg,Blue_Star_Stripes_3.jpg,Red_Circle_Dots_1.jpg,left,770.6100000068545,true,NA,NA,NA,NA,NA,NA,NA,NA,true
WaBAIADv,3ygyp13654mlicup3w1l36spsdqnrt,3z7vu45ip2uttg7lzs22hmddajhz1m,WaBAIADv,2020-0188,2020-11-15,09:01:14,09:32:05,NA,incomplete,14,shape,1,left,Green_Circle_Chess_4.jpg,Red_Circle_Dots_2.jpg,Purple_Plus_Stripes_4.jpg,left,796.0849999799393,true,NA,NA,NA,NA,NA,NA,NA,NA,true
WaBAIADv,3ygyp13654mlicup3w1l36spsdqnrt,3z7vu45ip2uttg7lzs22hmddajhz1m,WaBAIADv,2020-0188,2020-11-15,09:01:14,09:32:05,NA,incomplete,15,shape,1,left,Blue_Plus_Stripes_4.jpg,Red_Plus_Grid_3.jpg,Green_Circle_Dots_4.jpg,left,848.8099999958649,true,NA,NA,NA,NA,NA,NA,NA,NA,true
WaBAIADv,3ygyp13654mlicup3w1l36spsdqnrt,3z7vu45ip2uttg7lzs22hmddajhz1m,WaBAIADv,2020-0188,2020-11-15,09:01:14,09:32:05,NA,incomplete,16,shape,1,left,Purple_Circle_Stripes_1.jpg,Red_Circle_Dots_3.jpg,Green_Triangle_Grid_1.jpg,left,866.8799999868497,true,NA,NA,NA,NA,NA,NA,NA,NA,true
WaBAIADv,3ygyp13654mlicup3w1l36spsdqnrt,3z7vu45ip2uttg7lzs22hmddajhz1m,WaBAIADv,2020-0188,2020-11-15,09:01:14,09:32:05,NA,incomplete,17,shape,0,right,Green_Circle_Dots_1.jpg,Purple_Star_Grid_1.jpg,Red_Circle_Stripes_4.jpg,right,807.1000000345521,true,NA,NA,NA,NA,NA,NA,NA,NA,true
WaBAIADv,3ygyp13654mlicup3w1l36spsdqnrt,3z7vu45ip2uttg7lzs22hmddajhz1m,WaBAIADv,2020-0188,2020-11-15,09:01:14,09:32:05,NA,incomplete,18,shape,1,right,Blue_Circle_Grid_4.jpg,Green_Plus_Dots_4.jpg,Red_Circle_Stripes_1.jpg,right,893.7799999839626,true,NA,NA,NA,NA,NA,NA,NA,NA,true
WaBAIADv,3ygyp13654mlicup3w1l36spsdqnrt,3z7vu45ip2uttg7lzs22hmddajhz1m,WaBAIADv,2020-0188,2020-11-15,09:01:14,09:32:05,NA,incomplete,19,shape,1,left,Green_Circle_Grid_4.jpg,Purple_Circle_Stripes_2.jpg,Red_Star_Dots_4.jpg,left,1190.2650000411086,true,NA,NA,NA,NA,NA,NA,NA,NA,true
WaBAIADv,3ygyp13654mlicup3w1l36spsdqnrt,3z7vu45ip2uttg7lzs22hmddajhz1m,WaBAIADv,2020-0188,2020-11-15,09:01:14,09:32:05,NA,incomplete,20,number,1,right,Purple_Star_Grid_4.jpg,Blue_Star_Chess_2.jpg,Red_Circle_Stripes_4.jpg,right,1175.3049999824725,true,NA,NA,NA,NA,NA,NA,NA,NA,true
WaBAIADv,3ygyp13654mlicup3w1l36spsdqnrt,3z7vu45ip2uttg7lzs22hmddajhz1m,WaBAIADv,2020-0188,2020-11-15,09:01:14,09:32:05,NA,incomplete,21,number,1,left,Blue_Star_Dots_2.jpg,Green_Plus_Grid_2.jpg,Red_Star_Stripes_3.jpg,left,1189.3549999804236,true,NA,NA,NA,NA,NA,NA,NA,NA,true
WaBAIADv,3ygyp13654mlicup3w1l36spsdqnrt,3z7vu45ip2uttg7lzs22hmddajhz1m,WaBAIADv,2020-0188,2020-11-15,09:01:14,09:32:05,NA,incomplete,22,number,1,right,Blue_Circle_Chess_3.jpg,Red_Circle_Stripes_2.jpg,Green_Plus_Grid_3.jpg,right,900.0900000100955,true,NA,NA,NA,NA,NA,NA,NA,NA,true
WaBAIADv,3ygyp13654mlicup3w1l36spsdqnrt,3z7vu45ip2uttg7lzs22hmddajhz1m,WaBAIADv,2020-0188,2020-11-15,09:01:14,09:32:05,NA,incomplete,23,number,1,left,Purple_Triangle_Chess_3.jpg,Blue_Plus_Dots_3.jpg,Green_Triangle_Grid_4.jpg,left,1044.0350000280887,true,NA,NA,NA,NA,NA,NA,NA,NA,true
WaBAIADv,3ygyp13654mlicup3w1l36spsdqnrt,3z7vu45ip2uttg7lzs22hmddajhz1m,WaBAIADv,2020-0188,2020-11-15,09:01:14,09:32:05,NA,incomplete,24,number,1,left,Purple_Triangle_Grid_2.jpg,Green_Circle_Dots_2.jpg,Red_Triangle_Stripes_4.jpg,left,872.4299999885261,true,NA,NA,NA,NA,NA,NA,NA,NA,true
WaBAIADv,3ygyp13654mlicup3w1l36spsdqnrt,3z7vu45ip2uttg7lzs22hmddajhz1m,WaBAIADv,2020-0188,2020-11-15,09:01:14,09:32:05,NA,incomplete,25,number,1,right,Blue_Circle_Grid_1.jpg,Purple_Circle_Stripes_2.jpg,Green_Plus_Chess_1.jpg,right,962.8099999972619,true,NA,NA,NA,NA,NA,NA,NA,NA,true
WaBAIADv,3ygyp13654mlicup3w1l36spsdqnrt,3z7vu45ip2uttg7lzs22hmddajhz1m,WaBAIADv,2020-0188,2020-11-15,09:01:14,09:32:05,NA,incomplete,26,number,1,right,Blue_Circle_Chess_3.jpg,Purple_Circle_Stripes_1.jpg,Green_Triangle_Dots_3.jpg,right,943.1550000444986,true,NA,NA,NA,NA,NA,NA,NA,NA,true
WaBAIADv,3ygyp13654mlicup3w1l36spsdqnrt,3z7vu45ip2uttg7lzs22hmddajhz1m,WaBAIADv,2020-0188,2020-11-15,09:01:14,09:32:05,NA,incomplete,27,number,0,right,Green_Triangle_Chess_1.jpg,Purple_Triangle_Grid_4.jpg,Red_Plus_Stripes_1.jpg,right,843.6450000153854,true,NA,NA,NA,NA,NA,NA,NA,NA,true
WaBAIADv,3ygyp13654mlicup3w1l36spsdqnrt,3z7vu45ip2uttg7lzs22hmddajhz1m,WaBAIADv,2020-0188,2020-11-15,09:01:14,09:32:05,NA,incomplete,28,number,1,left,Purple_Circle_Dots_4.jpg,Red_Plus_Grid_4.jpg,Blue_Circle_Chess_3.jpg,left,923.9100000122562,true,NA,NA,NA,NA,NA,NA,NA,NA,true
WaBAIADv,3ygyp13654mlicup3w1l36spsdqnrt,3z7vu45ip2uttg7lzs22hmddajhz1m,WaBAIADv,2020-0188,2020-11-15,09:01:14,09:32:05,NA,incomplete,29,number,1,right,Green_Star_Grid_4.jpg,Red_Star_Chess_1.jpg,Purple_Triangle_Stripes_4.jpg,right,866.9649999937974,true,NA,NA,NA,NA,NA,NA,NA,NA,true
WaBAIADv,3ygyp13654mlicup3w1l36spsdqnrt,3z7vu45ip2uttg7lzs22hmddajhz1m,WaBAIADv,2020-0188,2020-11-15,09:01:14,09:32:05,NA,incomplete,30,number,1,right,Green_Plus_Dots_2.jpg,Red_Plus_Stripes_1.jpg,Blue_Circle_Chess_2.jpg,right,863.2500000530854,true,NA,NA,NA,NA,NA,NA,NA,NA,true
WaBAIADv,3ygyp13654mlicup3w1l36spsdqnrt,3z7vu45ip2uttg7lzs22hmddajhz1m,WaBAIADv,2020-0188,2020-11-15,09:01:14,09:32:05,NA,incomplete,31,number,1,right,Purple_Circle_Grid_2.jpg,Red_Circle_Chess_4.jpg,Blue_Star_Stripes_2.jpg,right,902.5250000413507,true,NA,NA,NA,NA,NA,NA,NA,NA,true
WaBAIADv,3ygyp13654mlicup3w1l36spsdqnrt,3z7vu45ip2uttg7lzs22hmddajhz1m,WaBAIADv,2020-0188,2020-11-15,09:01:14,09:32:05,NA,incomplete,32,number,1,left,Blue_Plus_Chess_4.jpg,Green_Star_Grid_4.jpg,Red_Plus_Dots_1.jpg,left,871.2700000032783,true,NA,NA,NA,NA,NA,NA,NA,NA,true
WaBAIADv,3ygyp13654mlicup3w1l36spsdqnrt,3z7vu45ip2uttg7lzs22hmddajhz1m,WaBAIADv,2020-0188,2020-11-15,09:01:14,09:32:05,NA,incomplete,33,number,1,left,Green_Star_Dots_2.jpg,Blue_Plus_Chess_2.jpg,Red_Star_Grid_1.jpg,left,884.4750000280328,true,NA,NA,NA,NA,NA,NA,NA,NA,true
WaBAIADv,3ygyp13654mlicup3w1l36spsdqnrt,3z7vu45ip2uttg7lzs22hmddajhz1m,WaBAIADv,2020-0188,2020-11-15,09:01:14,09:32:05,NA,incomplete,34,number,0,left,Blue_Triangle_Grid_3.jpg,Red_Circle_Stripes_3.jpg,Purple_Triangle_Dots_1.jpg,left,1004.4350000098348,true,NA,NA,NA,NA,NA,NA,NA,NA,true
WaBAIADv,3ygyp13654mlicup3w1l36spsdqnrt,3z7vu45ip2uttg7lzs22hmddajhz1m,WaBAIADv,2020-0188,2020-11-15,09:01:14,09:32:05,NA,incomplete,35,number,1,right,Blue_Triangle_Dots_3.jpg,Red_Triangle_Chess_4.jpg,Green_Plus_Grid_3.jpg,right,1048.0850000167266,true,NA,NA,NA,NA,NA,NA,NA,NA,true
WaBAIADv,3ygyp13654mlicup3w1l36spsdqnrt,3z7vu45ip2uttg7lzs22hmddajhz1m,WaBAIADv,2020-0188,2020-11-15,09:01:14,09:32:05,NA,incomplete,36,number,0,left,Red_Triangle_Grid_2.jpg,Purple_Star_Chess_2.jpg,Blue_Triangle_Dots_3.jpg,left,1053.6950000096112,true,NA,NA,NA,NA,NA,NA,NA,NA,true
WaBAIADv,3ygyp13654mlicup3w1l36spsdqnrt,3z7vu45ip2uttg7lzs22hmddajhz1m,WaBAIADv,2020-0188,2020-11-15,09:01:14,09:32:05,NA,incomplete,37,number,0,left,Purple_Triangle_Grid_1.jpg,Blue_Circle_Chess_1.jpg,Red_Triangle_Dots_3.jpg,left,847.7100000018254,true,NA,NA,NA,NA,NA,NA,NA,NA,true
WaBAIADv,3ygyp13654mlicup3w1l36spsdqnrt,3z7vu45ip2uttg7lzs22hmddajhz1m,WaBAIADv,2020-0188,2020-11-15,09:01:14,09:32:05,NA,incomplete,38,number,1,right,Red_Plus_Dots_2.jpg,Blue_Plus_Grid_3.jpg,Green_Circle_Stripes_2.jpg,right,907.1150000090711,true,NA,NA,NA,NA,NA,NA,NA,NA,true
WaBAIADv,3ygyp13654mlicup3w1l36spsdqnrt,3z7vu45ip2uttg7lzs22hmddajhz1m,WaBAIADv,2020-0188,2020-11-15,09:01:14,09:32:05,NA,incomplete,39,number,0,left,Purple_Plus_Stripes_4.jpg,Red_Triangle_Dots_4.jpg,Blue_Plus_Chess_2.jpg,left,1081.7099999985658,true,NA,NA,NA,NA,NA,NA,NA,NA,true
WaBAIADv,3ygyp13654mlicup3w1l36spsdqnrt,3z7vu45ip2uttg7lzs22hmddajhz1m,WaBAIADv,2020-0188,2020-11-15,09:01:14,09:32:05,NA,incomplete,0,shape,1,right,Red_Circle_Stripes_1.jpg,Purple_Star_Grid_1.jpg,Green_Circle_Dots_3.jpg,right,1335.0199999986216,true,high,NA,NA,NA,NA,NA,NA,NA,false
WaBAIADv,3ygyp13654mlicup3w1l36spsdqnrt,3z7vu45ip2uttg7lzs22hmddajhz1m,WaBAIADv,2020-0188,2020-11-15,09:01:14,09:32:05,NA,incomplete,1,shape,0,right,Red_Circle_Stripes_1.jpg,Green_Triangle_Grid_1.jpg,Purple_Circle_Chess_3.jpg,left,1117.9550000233576,false,high,NA,NA,NA,NA,NA,NA,NA,false
WaBAIADv,3ygyp13654mlicup3w1l36spsdqnrt,3z7vu45ip2uttg7lzs22hmddajhz1m,WaBAIADv,2020-0188,2020-11-15,09:01:14,09:32:05,NA,incomplete,2,shape,1,right,Green_Plus_Dots_1.jpg,Red_Triangle_Stripes_1.jpg,Blue_Plus_Grid_3.jpg,left,1017.5349999917671,false,high,NA,NA,NA,NA,NA,NA,NA,false
WaBAIADv,3ygyp13654mlicup3w1l36spsdqnrt,3z7vu45ip2uttg7lzs22hmddajhz1m,WaBAIADv,2020-0188,2020-11-15,09:01:14,09:32:05,NA,incomplete,3,shape,1,left,Purple_Star_Chess_4.jpg,Red_Star_Dots_3.jpg,Blue_Plus_Grid_4.jpg,right,1059.7749999724329,false,high,NA,NA,NA,NA,NA,NA,NA,false
WaBAIADv,3ygyp13654mlicup3w1l36spsdqnrt,3z7vu45ip2uttg7lzs22hmddajhz1m,WaBAIADv,2020-0188,2020-11-15,09:01:14,09:32:05,NA,incomplete,4,shape,1,right,Blue_Circle_Stripes_3.jpg,Green_Plus_Dots_3.jpg,Red_Circle_Grid_1.jpg,left,1076.5750000136904,false,high,NA,NA,NA,NA,NA,NA,NA,false
WaBAIADv,3ygyp13654mlicup3w1l36spsdqnrt,3z7vu45ip2uttg7lzs22hmddajhz1m,WaBAIADv,2020-0188,2020-11-15,09:01:14,09:32:05,NA,incomplete,5,shape,0,left,Green_Star_Grid_1.jpg,Purple_Star_Chess_2.jpg,Red_Triangle_Stripes_1.jpg,left,740.4849999584258,true,high,NA,NA,NA,NA,NA,NA,NA,false
WaBAIADv,3ygyp13654mlicup3w1l36spsdqnrt,3z7vu45ip2uttg7lzs22hmddajhz1m,WaBAIADv,2020-0188,2020-11-15,09:01:14,09:32:05,NA,incomplete,6,shape,1,left,Red_Plus_Grid_1.jpg,Blue_Plus_Stripes_4.jpg,Green_Star_Chess_1.jpg,left,1004.769999999553,true,high,NA,NA,NA,NA,NA,NA,NA,false
WaBAIADv,3ygyp13654mlicup3w1l36spsdqnrt,3z7vu45ip2uttg7lzs22hmddajhz1m,WaBAIADv,2020-0188,2020-11-15,09:01:14,09:32:05,NA,incomplete,7,shape,1,left,Blue_Circle_Chess_2.jpg,Purple_Circle_Grid_3.jpg,Red_Triangle_Dots_2.jpg,left,823.000000033062,true,high,NA,NA,NA,NA,NA,NA,NA,false
WaBAIADv,3ygyp13654mlicup3w1l36spsdqnrt,3z7vu45ip2uttg7lzs22hmddajhz1m,WaBAIADv,2020-0188,2020-11-15,09:01:14,09:32:05,NA,incomplete,8,shape,1,right,Green_Plus_Chess_2.jpg,Purple_Triangle_Dots_2.jpg,Blue_Plus_Stripes_1.jpg,right,1122.7100000251085,true,high,NA,NA,NA,NA,NA,NA,NA,false
WaBAIADv,3ygyp13654mlicup3w1l36spsdqnrt,3z7vu45ip2uttg7lzs22hmddajhz1m,WaBAIADv,2020-0188,2020-11-15,09:01:14,09:32:05,NA,incomplete,9,shape,0,left,Blue_Star_Grid_3.jpg,Purple_Star_Chess_4.jpg,Red_Triangle_Dots_3.jpg,left,701.7449999693781,true,high,NA,NA,NA,NA,NA,NA,NA,false
WaBAIADv,3ygyp13654mlicup3w1l36spsdqnrt,3z7vu45ip2uttg7lzs22hmddajhz1m,WaBAIADv,2020-0188,2020-11-15,09:01:14,09:32:05,NA,incomplete,10,number,1,left,Purple_Circle_Dots_1.jpg,Blue_Triangle_Stripes_1.jpg,Green_Circle_Chess_3.jpg,left,777.8600000310689,true,high,NA,NA,NA,NA,NA,NA,NA,false
WaBAIADv,3ygyp13654mlicup3w1l36spsdqnrt,3z7vu45ip2uttg7lzs22hmddajhz1m,WaBAIADv,2020-0188,2020-11-15,09:01:14,09:32:05,NA,incomplete,11,number,1,left,Purple_Circle_Grid_2.jpg,Green_Star_Stripes_2.jpg,Red_Circle_Chess_4.jpg,right,903.6550000309944,false,high,NA,NA,NA,NA,NA,NA,NA,false
WaBAIADv,3ygyp13654mlicup3w1l36spsdqnrt,3z7vu45ip2uttg7lzs22hmddajhz1m,WaBAIADv,2020-0188,2020-11-15,09:01:14,09:32:05,NA,incomplete,12,number,1,left,Red_Circle_Grid_2.jpg,Green_Plus_Chess_2.jpg,Purple_Circle_Stripes_4.jpg,left,860.964999999851,true,high,NA,NA,NA,NA,NA,NA,NA,false
WaBAIADv,3ygyp13654mlicup3w1l36spsdqnrt,3z7vu45ip2uttg7lzs22hmddajhz1m,WaBAIADv,2020-0188,2020-11-15,09:01:14,09:32:05,NA,incomplete,13,number,0,left,Green_Circle_Stripes_2.jpg,Blue_Plus_Dots_2.jpg,Purple_Circle_Grid_3.jpg,left,842.3400000319816,true,high,NA,NA,NA,NA,NA,NA,NA,false
WaBAIADv,3ygyp13654mlicup3w1l36spsdqnrt,3z7vu45ip2uttg7lzs22hmddajhz1m,WaBAIADv,2020-0188,2020-11-15,09:01:14,09:32:05,NA,incomplete,14,number,1,left,Purple_Circle_Dots_1.jpg,Green_Plus_Chess_1.jpg,Red_Circle_Stripes_3.jpg,left,974.7400000342168,true,high,NA,NA,NA,NA,NA,NA,NA,false
WaBAIADv,3ygyp13654mlicup3w1l36spsdqnrt,3z7vu45ip2uttg7lzs22hmddajhz1m,WaBAIADv,2020-0188,2020-11-15,09:01:14,09:32:05,NA,incomplete,15,number,1,right,Green_Star_Stripes_4.jpg,Red_Star_Dots_2.jpg,Blue_Circle_Grid_4.jpg,right,912.1349999913946,true,high,NA,NA,NA,NA,NA,NA,NA,false
WaBAIADv,3ygyp13654mlicup3w1l36spsdqnrt,3z7vu45ip2uttg7lzs22hmddajhz1m,WaBAIADv,2020-0188,2020-11-15,09:01:14,09:32:05,NA,incomplete,16,number,1,right,Green_Circle_Dots_4.jpg,Blue_Circle_Grid_2.jpg,Red_Star_Chess_4.jpg,left,763.7199999880977,false,high,NA,NA,NA,NA,NA,NA,NA,false
WaBAIADv,3ygyp13654mlicup3w1l36spsdqnrt,3z7vu45ip2uttg7lzs22hmddajhz1m,WaBAIADv,2020-0188,2020-11-15,09:01:14,09:32:05,NA,incomplete,17,number,1,right,Blue_Triangle_Chess_2.jpg,Purple_Triangle_Dots_4.jpg,Green_Plus_Grid_2.jpg,left,543.3249999769032,false,high,NA,NA,NA,NA,NA,NA,NA,false
WaBAIADv,3ygyp13654mlicup3w1l36spsdqnrt,3z7vu45ip2uttg7lzs22hmddajhz1m,WaBAIADv,2020-0188,2020-11-15,09:01:14,09:32:05,NA,incomplete,18,number,1,right,Purple_Plus_Dots_3.jpg,Green_Plus_Stripes_1.jpg,Red_Circle_Grid_3.jpg,right,891.9999999925494,true,high,NA,NA,NA,NA,NA,NA,NA,false
WaBAIADv,3ygyp13654mlicup3w1l36spsdqnrt,3z7vu45ip2uttg7lzs22hmddajhz1m,WaBAIADv,2020-0188,2020-11-15,09:01:14,09:32:05,NA,incomplete,19,number,1,right,Green_Circle_Chess_3.jpg,Purple_Circle_Grid_4.jpg,Red_Star_Dots_3.jpg,left,715.2000000351109,false,high,NA,NA,NA,NA,NA,NA,NA,false
WaBAIADv,3ygyp13654mlicup3w1l36spsdqnrt,3z7vu45ip2uttg7lzs22hmddajhz1m,WaBAIADv,2020-0188,2020-11-15,09:01:14,09:32:05,NA,incomplete,20,shape,1,right,Blue_Circle_Grid_1.jpg,Red_Plus_Chess_1.jpg,Green_Circle_Dots_3.jpg,left,776.2349999975413,false,high,NA,NA,NA,NA,NA,NA,NA,false
WaBAIADv,3ygyp13654mlicup3w1l36spsdqnrt,3z7vu45ip2uttg7lzs22hmddajhz1m,WaBAIADv,2020-0188,2020-11-15,09:01:14,09:32:05,NA,incomplete,21,shape,1,right,Blue_Triangle_Grid_3.jpg,Red_Plus_Stripes_3.jpg,Purple_Triangle_Dots_4.jpg,right,218.38499995646998,true,high,NA,NA,NA,NA,NA,NA,NA,false
WaBAIADv,3ygyp13654mlicup3w1l36spsdqnrt,3z7vu45ip2uttg7lzs22hmddajhz1m,WaBAIADv,2020-0188,2020-11-15,09:01:14,09:32:05,NA,incomplete,22,shape,1,left,Blue_Star_Stripes_1.jpg,Green_Star_Dots_3.jpg,Purple_Plus_Chess_1.jpg,left,261.2599999993108,true,high,NA,NA,NA,NA,NA,NA,NA,false
WaBAIADv,3ygyp13654mlicup3w1l36spsdqnrt,3z7vu45ip2uttg7lzs22hmddajhz1m,WaBAIADv,2020-0188,2020-11-15,09:01:14,09:32:05,NA,incomplete,23,shape,1,left,Red_Triangle_Stripes_3.jpg,Green_Triangle_Grid_4.jpg,Purple_Star_Chess_3.jpg,left,175.41000002529472,true,high,NA,NA,NA,NA,NA,NA,NA,false
WaBAIADv,3ygyp13654mlicup3w1l36spsdqnrt,3z7vu45ip2uttg7lzs22hmddajhz1m,WaBAIADv,2020-0188,2020-11-15,09:01:14,09:32:05,NA,incomplete,24,shape,0,right,Green_Triangle_Stripes_4.jpg,Blue_Circle_Dots_4.jpg,Red_Triangle_Grid_2.jpg,left,178.3599999616854,false,high,NA,NA,NA,NA,NA,NA,NA,false
WaBAIADv,3ygyp13654mlicup3w1l36spsdqnrt,3z7vu45ip2uttg7lzs22hmddajhz1m,WaBAIADv,2020-0188,2020-11-15,09:01:14,09:32:05,NA,incomplete,25,shape,1,left,Purple_Star_Stripes_3.jpg,Blue_Star_Chess_2.jpg,Red_Circle_Dots_3.jpg,left,564.3000000272878,true,high,NA,NA,NA,NA,NA,NA,NA,false
WaBAIADv,3ygyp13654mlicup3w1l36spsdqnrt,3z7vu45ip2uttg7lzs22hmddajhz1m,WaBAIADv,2020-0188,2020-11-15,09:01:14,09:32:05,NA,incomplete,26,shape,1,left,Purple_Plus_Dots_1.jpg,Green_Plus_Grid_4.jpg,Blue_Star_Chess_1.jpg,left,609.4450000091456,true,high,NA,NA,NA,NA,NA,NA,NA,false
WaBAIADv,3ygyp13654mlicup3w1l36spsdqnrt,3z7vu45ip2uttg7lzs22hmddajhz1m,WaBAIADv,2020-0188,2020-11-15,09:01:14,09:32:05,NA,incomplete,27,shape,1,right,Green_Star_Chess_3.jpg,Purple_Triangle_Dots_3.jpg,Blue_Star_Grid_1.jpg,right,359.1149999992922,true,high,NA,NA,NA,NA,NA,NA,NA,false
WaBAIADv,3ygyp13654mlicup3w1l36spsdqnrt,3z7vu45ip2uttg7lzs22hmddajhz1m,WaBAIADv,2020-0188,2020-11-15,09:01:14,09:32:05,NA,incomplete,28,shape,1,right,Purple_Triangle_Grid_2.jpg,Red_Circle_Chess_2.jpg,Green_Triangle_Dots_3.jpg,left,685.0700000068173,false,high,NA,NA,NA,NA,NA,NA,NA,false
WaBAIADv,3ygyp13654mlicup3w1l36spsdqnrt,3z7vu45ip2uttg7lzs22hmddajhz1m,WaBAIADv,2020-0188,2020-11-15,09:01:14,09:32:05,NA,incomplete,29,shape,1,left,Green_Triangle_Grid_2.jpg,Blue_Triangle_Stripes_4.jpg,Purple_Circle_Chess_2.jpg,left,259.93000000016764,true,high,NA,NA,NA,NA,NA,NA,NA,false
WaBAIADv,3ygyp13654mlicup3w1l36spsdqnrt,3z7vu45ip2uttg7lzs22hmddajhz1m,WaBAIADv,2020-0188,2020-11-15,09:01:14,09:32:05,NA,incomplete,30,number,0,right,Blue_Circle_Stripes_1.jpg,Purple_Circle_Dots_3.jpg,Red_Star_Chess_1.jpg,right,337.17500005150214,true,high,NA,NA,NA,NA,NA,NA,NA,false
WaBAIADv,3ygyp13654mlicup3w1l36spsdqnrt,3z7vu45ip2uttg7lzs22hmddajhz1m,WaBAIADv,2020-0188,2020-11-15,09:01:14,09:32:05,NA,incomplete,31,number,1,left,Blue_Circle_Chess_4.jpg,Red_Plus_Stripes_4.jpg,Purple_Circle_Grid_2.jpg,left,717.9949999554083,true,high,NA,NA,NA,NA,NA,NA,NA,false
WaBAIADv,3ygyp13654mlicup3w1l36spsdqnrt,3z7vu45ip2uttg7lzs22hmddajhz1m,WaBAIADv,2020-0188,2020-11-15,09:01:14,09:32:05,NA,incomplete,32,number,1,left,Blue_Triangle_Chess_2.jpg,Red_Circle_Dots_2.jpg,Purple_Triangle_Stripes_3.jpg,left,291.31499998038635,true,high,NA,NA,NA,NA,NA,NA,NA,false
WaBAIADv,3ygyp13654mlicup3w1l36spsdqnrt,3z7vu45ip2uttg7lzs22hmddajhz1m,WaBAIADv,2020-0188,2020-11-15,09:01:14,09:32:05,NA,incomplete,33,number,0,left,Blue_Triangle_Stripes_4.jpg,Green_Star_Dots_4.jpg,Red_Triangle_Chess_1.jpg,left,483.86500001652166,true,high,NA,NA,NA,NA,NA,NA,NA,false
WaBAIADv,3ygyp13654mlicup3w1l36spsdqnrt,3z7vu45ip2uttg7lzs22hmddajhz1m,WaBAIADv,2020-0188,2020-11-15,09:01:14,09:32:05,NA,incomplete,34,number,1,left,Red_Plus_Stripes_3.jpg,Blue_Star_Dots_3.jpg,Purple_Plus_Grid_4.jpg,left,407.40000002551824,true,high,NA,NA,NA,NA,NA,NA,NA,false
WaBAIADv,3ygyp13654mlicup3w1l36spsdqnrt,3z7vu45ip2uttg7lzs22hmddajhz1m,WaBAIADv,2020-0188,2020-11-15,09:01:14,09:32:05,NA,incomplete,35,number,1,left,Purple_Triangle_Grid_4.jpg,Green_Star_Chess_4.jpg,Blue_Triangle_Dots_1.jpg,left,657.9700000002049,true,high,NA,NA,NA,NA,NA,NA,NA,false
WaBAIADv,3ygyp13654mlicup3w1l36spsdqnrt,3z7vu45ip2uttg7lzs22hmddajhz1m,WaBAIADv,2020-0188,2020-11-15,09:01:14,09:32:05,NA,incomplete,36,number,1,left,Purple_Star_Chess_1.jpg,Blue_Circle_Dots_1.jpg,Green_Star_Grid_4.jpg,left,238.0000000121072,true,high,NA,NA,NA,NA,NA,NA,NA,false
WaBAIADv,3ygyp13654mlicup3w1l36spsdqnrt,3z7vu45ip2uttg7lzs22hmddajhz1m,WaBAIADv,2020-0188,2020-11-15,09:01:14,09:32:05,NA,incomplete,37,number,1,left,Blue_Circle_Chess_3.jpg,Red_Plus_Dots_3.jpg,Green_Circle_Stripes_2.jpg,left,278.1950000207871,true,high,NA,NA,NA,NA,NA,NA,NA,false
WaBAIADv,3ygyp13654mlicup3w1l36spsdqnrt,3z7vu45ip2uttg7lzs22hmddajhz1m,WaBAIADv,2020-0188,2020-11-15,09:01:14,09:32:05,NA,incomplete,38,number,1,left,Purple_Plus_Stripes_2.jpg,Red_Circle_Grid_2.jpg,Blue_Plus_Chess_3.jpg,left,729.9950000015087,true,high,NA,NA,NA,NA,NA,NA,NA,false
WaBAIADv,3ygyp13654mlicup3w1l36spsdqnrt,3z7vu45ip2uttg7lzs22hmddajhz1m,WaBAIADv,2020-0188,2020-11-15,09:01:14,09:32:05,NA,incomplete,39,number,1,right,Red_Triangle_Grid_4.jpg,Purple_Triangle_Dots_2.jpg,Green_Plus_Chess_4.jpg,right,56.76500004483387,true,high,NA,NA,NA,NA,NA,NA,NA,false
WaBAIADv,3ygyp13654mlicup3w1l36spsdqnrt,3z7vu45ip2uttg7lzs22hmddajhz1m,WaBAIADv,2020-0188,2020-11-15,09:01:14,09:32:05,NA,incomplete,40,shape,1,left,Purple_Triangle_Chess_1.jpg,Green_Triangle_Dots_4.jpg,Blue_Star_Grid_1.jpg,left,134.82000003568828,true,high,NA,NA,NA,NA,NA,NA,NA,false
WaBAIADv,3ygyp13654mlicup3w1l36spsdqnrt,3z7vu45ip2uttg7lzs22hmddajhz1m,WaBAIADv,2020-0188,2020-11-15,09:01:14,09:32:05,NA,incomplete,41,shape,1,left,Red_Triangle_Chess_3.jpg,Blue_Triangle_Stripes_2.jpg,Green_Plus_Grid_3.jpg,left,256.43000000854954,true,high,NA,NA,NA,NA,NA,NA,NA,false
WaBAIADv,3ygyp13654mlicup3w1l36spsdqnrt,3z7vu45ip2uttg7lzs22hmddajhz1m,WaBAIADv,2020-0188,2020-11-15,09:01:14,09:32:05,NA,incomplete,42,shape,0,left,Blue_Plus_Grid_1.jpg,Purple_Plus_Dots_3.jpg,Red_Star_Stripes_1.jpg,left,275.01000004122034,true,high,NA,NA,NA,NA,NA,NA,NA,false
WaBAIADv,3ygyp13654mlicup3w1l36spsdqnrt,3z7vu45ip2uttg7lzs22hmddajhz1m,WaBAIADv,2020-0188,2020-11-15,09:01:14,09:32:05,NA,incomplete,43,shape,1,right,Purple_Plus_Chess_1.jpg,Green_Star_Dots_1.jpg,Blue_Plus_Stripes_3.jpg,right,250.02999999560416,true,high,NA,NA,NA,NA,NA,NA,NA,false
WaBAIADv,3ygyp13654mlicup3w1l36spsdqnrt,3z7vu45ip2uttg7lzs22hmddajhz1m,WaBAIADv,2020-0188,2020-11-15,09:01:14,09:32:05,NA,incomplete,44,shape,1,right,Blue_Star_Stripes_2.jpg,Purple_Triangle_Grid_2.jpg,Red_Star_Dots_1.jpg,right,254.69500001054257,true,high,NA,NA,NA,NA,NA,NA,NA,false
WaBAIADv,3ygyp13654mlicup3w1l36spsdqnrt,3z7vu45ip2uttg7lzs22hmddajhz1m,WaBAIADv,2020-0188,2020-11-15,09:01:14,09:32:05,NA,incomplete,45,shape,0,right,Red_Star_Dots_3.jpg,Green_Triangle_Grid_3.jpg,Purple_Star_Stripes_1.jpg,left,109.73500000545755,false,high,NA,NA,NA,NA,NA,NA,NA,false
WaBAIADv,3ygyp13654mlicup3w1l36spsdqnrt,3z7vu45ip2uttg7lzs22hmddajhz1m,WaBAIADv,2020-0188,2020-11-15,09:01:14,09:32:05,NA,incomplete,46,shape,1,right,Green_Circle_Grid_1.jpg,Blue_Triangle_Dots_1.jpg,Red_Circle_Stripes_2.jpg,left,161.3200000138022,false,high,NA,NA,NA,NA,NA,NA,NA,false
WaBAIADv,3ygyp13654mlicup3w1l36spsdqnrt,3z7vu45ip2uttg7lzs22hmddajhz1m,WaBAIADv,2020-0188,2020-11-15,09:01:14,09:32:05,NA,incomplete,47,shape,1,left,Red_Star_Stripes_2.jpg,Blue_Star_Chess_4.jpg,Purple_Triangle_Grid_2.jpg,left,371.6100000310689,true,high,NA,NA,NA,NA,NA,NA,NA,false
WaBAIADv,3ygyp13654mlicup3w1l36spsdqnrt,3z7vu45ip2uttg7lzs22hmddajhz1m,WaBAIADv,2020-0188,2020-11-15,09:01:14,09:32:05,NA,incomplete,48,shape,1,right,Blue_Star_Grid_3.jpg,Green_Circle_Dots_3.jpg,Purple_Star_Stripes_4.jpg,right,258.87499999953434,true,high,NA,NA,NA,NA,NA,NA,NA,false
WaBAIADv,3ygyp13654mlicup3w1l36spsdqnrt,3z7vu45ip2uttg7lzs22hmddajhz1m,WaBAIADv,2020-0188,2020-11-15,09:01:14,09:32:05,NA,incomplete,49,shape,1,right,Red_Circle_Dots_4.jpg,Blue_Plus_Grid_4.jpg,Green_Circle_Stripes_1.jpg,left,103.46499999286607,false,high,NA,NA,NA,NA,NA,NA,NA,false
WaBAIADv,3ygyp13654mlicup3w1l36spsdqnrt,3z7vu45ip2uttg7lzs22hmddajhz1m,WaBAIADv,2020-0188,2020-11-15,09:01:14,09:32:05,NA,incomplete,50,number,1,right,Purple_Triangle_Grid_4.jpg,Red_Triangle_Stripes_2.jpg,Green_Star_Dots_4.jpg,left,148.6849999637343,false,high,NA,NA,NA,NA,NA,NA,NA,false
WaBAIADv,3ygyp13654mlicup3w1l36spsdqnrt,3z7vu45ip2uttg7lzs22hmddajhz1m,WaBAIADv,2020-0188,2020-11-15,09:01:14,09:32:05,NA,incomplete,51,number,0,left,Blue_Circle_Grid_3.jpg,Purple_Star_Stripes_3.jpg,Red_Circle_Chess_1.jpg,right,386.63500000257045,false,high,NA,NA,NA,NA,NA,NA,NA,false
WaBAIADv,3ygyp13654mlicup3w1l36spsdqnrt,3z7vu45ip2uttg7lzs22hmddajhz1m,WaBAIADv,2020-0188,2020-11-15,09:01:14,09:32:05,NA,incomplete,52,number,0,left,Purple_Triangle_Dots_2.jpg,Blue_Circle_Chess_2.jpg,Red_Triangle_Stripes_3.jpg,right,374.0799999795854,false,high,NA,NA,NA,NA,NA,NA,NA,false
WaBAIADv,3ygyp13654mlicup3w1l36spsdqnrt,3z7vu45ip2uttg7lzs22hmddajhz1m,WaBAIADv,2020-0188,2020-11-15,09:01:14,09:32:05,NA,incomplete,53,number,1,right,Purple_Circle_Chess_1.jpg,Blue_Circle_Stripes_3.jpg,Red_Star_Grid_1.jpg,left,78.89499998418614,false,high,NA,NA,NA,NA,NA,NA,NA,false
WaBAIADv,3ygyp13654mlicup3w1l36spsdqnrt,3z7vu45ip2uttg7lzs22hmddajhz1m,WaBAIADv,2020-0188,2020-11-15,09:01:14,09:32:05,NA,incomplete,54,number,1,right,Green_Triangle_Stripes_3.jpg,Red_Triangle_Grid_4.jpg,Purple_Circle_Dots_3.jpg,right,95.41499998886138,true,high,NA,NA,NA,NA,NA,NA,NA,false
WaBAIADv,3ygyp13654mlicup3w1l36spsdqnrt,3z7vu45ip2uttg7lzs22hmddajhz1m,WaBAIADv,2020-0188,2020-11-15,09:01:14,09:32:05,NA,incomplete,55,number,1,right,Blue_Plus_Chess_2.jpg,Green_Plus_Stripes_4.jpg,Purple_Circle_Grid_2.jpg,right,334.9600000074133,true,high,NA,NA,NA,NA,NA,NA,NA,false
WaBAIADv,3ygyp13654mlicup3w1l36spsdqnrt,3z7vu45ip2uttg7lzs22hmddajhz1m,WaBAIADv,2020-0188,2020-11-15,09:01:14,09:32:05,NA,incomplete,56,number,0,right,Purple_Plus_Grid_2.jpg,Green_Plus_Dots_1.jpg,Blue_Circle_Chess_2.jpg,left,263.3700000005774,false,high,NA,NA,NA,NA,NA,NA,NA,false
WaBAIADv,3ygyp13654mlicup3w1l36spsdqnrt,3z7vu45ip2uttg7lzs22hmddajhz1m,WaBAIADv,2020-0188,2020-11-15,09:01:14,09:32:05,NA,incomplete,57,number,1,left,Red_Circle_Grid_2.jpg,Green_Plus_Chess_2.jpg,Blue_Circle_Stripes_3.jpg,right,49.510000040754676,false,high,NA,NA,NA,NA,NA,NA,NA,false
WaBAIADv,3ygyp13654mlicup3w1l36spsdqnrt,3z7vu45ip2uttg7lzs22hmddajhz1m,WaBAIADv,2020-0188,2020-11-15,09:01:14,09:32:05,NA,incomplete,58,number,1,right,Purple_Star_Grid_1.jpg,Red_Star_Dots_3.jpg,Blue_Circle_Chess_1.jpg,left,133.12499999301508,false,high,NA,NA,NA,NA,NA,NA,NA,false
WaBAIADv,3ygyp13654mlicup3w1l36spsdqnrt,3z7vu45ip2uttg7lzs22hmddajhz1m,WaBAIADv,2020-0188,2020-11-15,09:01:14,09:32:05,NA,incomplete,59,number,1,left,Blue_Triangle_Grid_4.jpg,Purple_Plus_Chess_4.jpg,Green_Triangle_Stripes_1.jpg,left,221.73000004841015,true,high,NA,NA,NA,NA,NA,NA,NA,false
WaBAIADv,3ygyp13654mlicup3w1l36spsdqnrt,3z7vu45ip2uttg7lzs22hmddajhz1m,WaBAIADv,2020-0188,2020-11-15,09:01:14,09:32:05,NA,incomplete,60,shape,1,right,Blue_Plus_Dots_4.jpg,Purple_Star_Chess_4.jpg,Green_Plus_Grid_1.jpg,right,297.0600000116974,true,high,NA,NA,NA,NA,NA,NA,NA,false
WaBAIADv,3ygyp13654mlicup3w1l36spsdqnrt,3z7vu45ip2uttg7lzs22hmddajhz1m,WaBAIADv,2020-0188,2020-11-15,09:01:14,09:32:05,NA,incomplete,61,shape,1,right,Purple_Star_Dots_1.jpg,Green_Circle_Chess_1.jpg,Blue_Star_Grid_4.jpg,right,313.13500000396743,true,high,NA,NA,NA,NA,NA,NA,NA,false
WaBAIADv,3ygyp13654mlicup3w1l36spsdqnrt,3z7vu45ip2uttg7lzs22hmddajhz1m,WaBAIADv,2020-0188,2020-11-15,09:01:14,09:32:05,NA,incomplete,62,shape,0,left,Purple_Star_Grid_1.jpg,Blue_Star_Dots_2.jpg,Green_Triangle_Stripes_1.jpg,right,131.66500005172566,false,high,NA,NA,NA,NA,NA,NA,NA,false
WaBAIADv,3ygyp13654mlicup3w1l36spsdqnrt,3z7vu45ip2uttg7lzs22hmddajhz1m,WaBAIADv,2020-0188,2020-11-15,09:01:14,09:32:05,NA,incomplete,63,shape,1,left,Purple_Circle_Chess_1.jpg,Blue_Circle_Grid_2.jpg,Red_Star_Dots_1.jpg,left,68.23500001337379,true,high,NA,NA,NA,NA,NA,NA,NA,false
WaBAIADv,3ygyp13654mlicup3w1l36spsdqnrt,3z7vu45ip2uttg7lzs22hmddajhz1m,WaBAIADv,2020-0188,2020-11-15,09:01:14,09:32:05,NA,incomplete,64,shape,0,left,Green_Circle_Stripes_2.jpg,Purple_Circle_Dots_4.jpg,Red_Star_Chess_2.jpg,left,194.4299999740906,true,high,NA,NA,NA,NA,NA,NA,NA,false
WaBAIADv,3ygyp13654mlicup3w1l36spsdqnrt,3z7vu45ip2uttg7lzs22hmddajhz1m,WaBAIADv,2020-0188,2020-11-15,09:01:14,09:32:05,NA,incomplete,65,shape,1,left,Red_Plus_Grid_1.jpg,Blue_Plus_Dots_3.jpg,Green_Triangle_Chess_1.jpg,right,368.6650000163354,false,high,NA,NA,NA,NA,NA,NA,NA,false
WaBAIADv,3ygyp13654mlicup3w1l36spsdqnrt,3z7vu45ip2uttg7lzs22hmddajhz1m,WaBAIADv,2020-0188,2020-11-15,09:01:14,09:32:05,NA,incomplete,66,shape,1,left,Purple_Star_Chess_4.jpg,Blue_Star_Stripes_3.jpg,Green_Plus_Grid_4.jpg,right,118.90000000130385,false,high,NA,NA,NA,NA,NA,NA,NA,false
WaBAIADv,3ygyp13654mlicup3w1l36spsdqnrt,3z7vu45ip2uttg7lzs22hmddajhz1m,WaBAIADv,2020-0188,2020-11-15,09:01:14,09:32:05,NA,incomplete,67,shape,1,right,Red_Circle_Stripes_3.jpg,Blue_Plus_Dots_3.jpg,Green_Circle_Grid_4.jpg,left,428.0000000144355,false,high,NA,NA,NA,NA,NA,NA,NA,false
WaBAIADv,3ygyp13654mlicup3w1l36spsdqnrt,3z7vu45ip2uttg7lzs22hmddajhz1m,WaBAIADv,2020-0188,2020-11-15,09:01:14,09:32:05,NA,incomplete,68,shape,0,left,Green_Plus_Grid_1.jpg,Red_Plus_Chess_4.jpg,Blue_Star_Dots_1.jpg,left,525.6499999668449,true,high,NA,NA,NA,NA,NA,NA,NA,false
WaBAIADv,3ygyp13654mlicup3w1l36spsdqnrt,3z7vu45ip2uttg7lzs22hmddajhz1m,WaBAIADv,2020-0188,2020-11-15,09:01:14,09:32:05,NA,incomplete,69,shape,1,left,Red_Circle_Dots_1.jpg,Blue_Circle_Stripes_2.jpg,Purple_Star_Chess_1.jpg,left,872.0500000054017,true,high,NA,NA,NA,NA,NA,NA,NA,false
WaBAIADv,3ygyp13654mlicup3w1l36spsdqnrt,3z7vu45ip2uttg7lzs22hmddajhz1m,WaBAIADv,2020-0188,2020-11-15,09:01:14,09:32:05,NA,incomplete,70,number,1,left,Purple_Triangle_Chess_1.jpg,Green_Plus_Stripes_1.jpg,Blue_Triangle_Dots_2.jpg,right,988.6000000406057,false,high,NA,NA,NA,NA,NA,NA,NA,false
WaBAIADv,3ygyp13654mlicup3w1l36spsdqnrt,3z7vu45ip2uttg7lzs22hmddajhz1m,WaBAIADv,2020-0188,2020-11-15,09:01:14,09:32:05,NA,incomplete,71,number,1,left,Purple_Plus_Dots_3.jpg,Red_Triangle_Stripes_3.jpg,Blue_Plus_Chess_2.jpg,right,1182.9999999608845,false,high,NA,NA,NA,NA,NA,NA,NA,false
WaBAIADv,3ygyp13654mlicup3w1l36spsdqnrt,3z7vu45ip2uttg7lzs22hmddajhz1m,WaBAIADv,2020-0188,2020-11-15,09:01:14,09:32:05,NA,incomplete,72,number,1,left,Green_Star_Stripes_2.jpg,Blue_Circle_Chess_2.jpg,Purple_Star_Grid_1.jpg,left,486.4700000034645,true,high,NA,NA,NA,NA,NA,NA,NA,false
WaBAIADv,3ygyp13654mlicup3w1l36spsdqnrt,3z7vu45ip2uttg7lzs22hmddajhz1m,WaBAIADv,2020-0188,2020-11-15,09:01:14,09:32:05,NA,incomplete,73,number,0,left,Blue_Circle_Dots_2.jpg,Green_Triangle_Grid_2.jpg,Purple_Circle_Stripes_4.jpg,left,698.949999990873,true,high,NA,NA,NA,NA,NA,NA,NA,false
WaBAIADv,3ygyp13654mlicup3w1l36spsdqnrt,3z7vu45ip2uttg7lzs22hmddajhz1m,WaBAIADv,2020-0188,2020-11-15,09:01:14,09:32:05,NA,incomplete,74,number,1,right,Red_Star_Chess_3.jpg,Blue_Star_Stripes_2.jpg,Purple_Circle_Grid_3.jpg,right,1058.0600000103004,true,high,NA,NA,NA,NA,NA,NA,NA,false
WaBAIADv,3ygyp13654mlicup3w1l36spsdqnrt,3z7vu45ip2uttg7lzs22hmddajhz1m,WaBAIADv,2020-0188,2020-11-15,09:01:14,09:32:05,NA,incomplete,75,number,1,right,Purple_Star_Grid_3.jpg,Red_Star_Dots_2.jpg,Green_Circle_Chess_3.jpg,left,1085.1050000055693,false,high,NA,NA,NA,NA,NA,NA,NA,false
WaBAIADv,3ygyp13654mlicup3w1l36spsdqnrt,3z7vu45ip2uttg7lzs22hmddajhz1m,WaBAIADv,2020-0188,2020-11-15,09:01:14,09:32:05,NA,incomplete,76,number,1,left,Purple_Triangle_Chess_1.jpg,Blue_Circle_Dots_1.jpg,Red_Triangle_Stripes_2.jpg,right,1073.439999949187,false,high,NA,NA,NA,NA,NA,NA,NA,false
WaBAIADv,3ygyp13654mlicup3w1l36spsdqnrt,3z7vu45ip2uttg7lzs22hmddajhz1m,WaBAIADv,2020-0188,2020-11-15,09:01:14,09:32:05,NA,incomplete,77,number,1,right,Red_Plus_Dots_1.jpg,Purple_Plus_Stripes_2.jpg,Green_Circle_Chess_1.jpg,left,887.8699999768287,false,high,NA,NA,NA,NA,NA,NA,NA,false
WaBAIADv,3ygyp13654mlicup3w1l36spsdqnrt,3z7vu45ip2uttg7lzs22hmddajhz1m,WaBAIADv,2020-0188,2020-11-15,09:01:14,09:32:05,NA,incomplete,78,number,1,left,Red_Star_Chess_3.jpg,Blue_Circle_Grid_3.jpg,Green_Star_Stripes_1.jpg,left,222.49999997438863,true,high,NA,NA,NA,NA,NA,NA,NA,false
WaBAIADv,3ygyp13654mlicup3w1l36spsdqnrt,3z7vu45ip2uttg7lzs22hmddajhz1m,WaBAIADv,2020-0188,2020-11-15,09:01:14,09:32:05,NA,incomplete,79,number,1,right,Red_Plus_Grid_3.jpg,Purple_Plus_Chess_2.jpg,Green_Circle_Dots_3.jpg,left,239.27000002004206,false,high,NA,NA,NA,NA,NA,NA,NA,false
WaBAIADv,3ygyp13654mlicup3w1l36spsdqnrt,3z7vu45ip2uttg7lzs22hmddajhz1m,WaBAIADv,2020-0188,2020-11-15,09:01:14,09:32:05,NA,incomplete,80,shape,1,left,Blue_Plus_Chess_3.jpg,Purple_Plus_Dots_2.jpg,Red_Star_Grid_3.jpg,right,375.04499999340624,false,high,NA,NA,NA,NA,NA,NA,NA,false
WaBAIADv,3ygyp13654mlicup3w1l36spsdqnrt,3z7vu45ip2uttg7lzs22hmddajhz1m,WaBAIADv,2020-0188,2020-11-15,09:01:14,09:32:05,NA,incomplete,81,shape,1,left,Blue_Triangle_Stripes_3.jpg,Green_Triangle_Grid_4.jpg,Red_Circle_Chess_3.jpg,right,387.845000019297,false,high,NA,NA,NA,NA,NA,NA,NA,false
WaBAIADv,3ygyp13654mlicup3w1l36spsdqnrt,3z7vu45ip2uttg7lzs22hmddajhz1m,WaBAIADv,2020-0188,2020-11-15,09:01:14,09:32:05,NA,incomplete,82,shape,1,left,Purple_Triangle_Dots_3.jpg,Red_Triangle_Stripes_1.jpg,Blue_Circle_Chess_3.jpg,left,259.52000002143905,true,high,NA,NA,NA,NA,NA,NA,NA,false
WaBAIADv,3ygyp13654mlicup3w1l36spsdqnrt,3z7vu45ip2uttg7lzs22hmddajhz1m,WaBAIADv,2020-0188,2020-11-15,09:01:14,09:32:05,NA,incomplete,83,shape,1,left,Green_Star_Dots_4.jpg,Red_Star_Stripes_3.jpg,Purple_Circle_Chess_4.jpg,left,776.8550000037067,true,high,NA,NA,NA,NA,NA,NA,NA,false
WaBAIADv,3ygyp13654mlicup3w1l36spsdqnrt,3z7vu45ip2uttg7lzs22hmddajhz1m,WaBAIADv,2020-0188,2020-11-15,09:01:14,09:32:05,NA,incomplete,84,shape,1,left,Green_Plus_Dots_4.jpg,Purple_Plus_Chess_3.jpg,Red_Triangle_Stripes_4.jpg,left,787.5999999814667,true,high,NA,NA,NA,NA,NA,NA,NA,false
WaBAIADv,3ygyp13654mlicup3w1l36spsdqnrt,3z7vu45ip2uttg7lzs22hmddajhz1m,WaBAIADv,2020-0188,2020-11-15,09:01:14,09:32:05,NA,incomplete,85,shape,1,left,Green_Star_Grid_1.jpg,Blue_Star_Chess_2.jpg,Purple_Triangle_Dots_1.jpg,left,751.5700000221841,true,high,NA,NA,NA,NA,NA,NA,NA,false
WaBAIADv,3ygyp13654mlicup3w1l36spsdqnrt,3z7vu45ip2uttg7lzs22hmddajhz1m,WaBAIADv,2020-0188,2020-11-15,09:01:14,09:32:05,NA,incomplete,86,shape,1,right,Blue_Circle_Dots_3.jpg,Red_Plus_Stripes_3.jpg,Green_Circle_Chess_1.jpg,right,824.0399999776855,true,high,NA,NA,NA,NA,NA,NA,NA,false
WaBAIADv,3ygyp13654mlicup3w1l36spsdqnrt,3z7vu45ip2uttg7lzs22hmddajhz1m,WaBAIADv,2020-0188,2020-11-15,09:01:14,09:32:05,NA,incomplete,87,shape,1,right,Green_Plus_Dots_4.jpg,Red_Circle_Grid_4.jpg,Purple_Plus_Chess_3.jpg,right,1230.2899999776855,true,high,NA,NA,NA,NA,NA,NA,NA,false
WaBAIADv,3ygyp13654mlicup3w1l36spsdqnrt,3z7vu45ip2uttg7lzs22hmddajhz1m,WaBAIADv,2020-0188,2020-11-15,09:01:14,09:32:05,NA,incomplete,88,shape,1,left,Green_Plus_Grid_2.jpg,Red_Plus_Dots_4.jpg,Blue_Triangle_Chess_2.jpg,left,672.8249999578111,true,high,NA,NA,NA,NA,NA,NA,NA,false
WaBAIADv,3ygyp13654mlicup3w1l36spsdqnrt,3z7vu45ip2uttg7lzs22hmddajhz1m,WaBAIADv,2020-0188,2020-11-15,09:01:14,09:32:05,NA,incomplete,89,shape,1,right,Purple_Star_Stripes_3.jpg,Red_Triangle_Grid_3.jpg,Green_Star_Dots_4.jpg,right,1096.9200000399724,true,high,NA,NA,NA,NA,NA,NA,NA,false
WaBAIADv,3ygyp13654mlicup3w1l36spsdqnrt,3z7vu45ip2uttg7lzs22hmddajhz1m,WaBAIADv,2020-0188,2020-11-15,09:01:14,09:32:05,NA,incomplete,90,number,1,left,Blue_Circle_Chess_3.jpg,Purple_Triangle_Stripes_3.jpg,Red_Circle_Grid_2.jpg,right,703.8250000332482,false,high,NA,NA,NA,NA,NA,NA,NA,false
WaBAIADv,3ygyp13654mlicup3w1l36spsdqnrt,3z7vu45ip2uttg7lzs22hmddajhz1m,WaBAIADv,2020-0188,2020-11-15,09:01:14,09:32:05,NA,incomplete,91,number,1,left,Red_Star_Stripes_2.jpg,Purple_Plus_Dots_2.jpg,Green_Star_Grid_3.jpg,right,730.4850000073202,false,high,NA,NA,NA,NA,NA,NA,NA,false
WaBAIADv,3ygyp13654mlicup3w1l36spsdqnrt,3z7vu45ip2uttg7lzs22hmddajhz1m,WaBAIADv,2020-0188,2020-11-15,09:01:14,09:32:05,NA,incomplete,92,number,1,right,Blue_Plus_Grid_4.jpg,Green_Plus_Dots_3.jpg,Red_Circle_Chess_4.jpg,left,603.3600000082515,false,high,NA,NA,NA,NA,NA,NA,NA,false
WaBAIADv,3ygyp13654mlicup3w1l36spsdqnrt,3z7vu45ip2uttg7lzs22hmddajhz1m,WaBAIADv,2020-0188,2020-11-15,09:01:14,09:32:05,NA,incomplete,93,number,0,left,Blue_Triangle_Stripes_1.jpg,Green_Star_Chess_1.jpg,Red_Triangle_Dots_3.jpg,right,752.4149999953806,false,high,NA,NA,NA,NA,NA,NA,NA,false
WaBAIADv,3ygyp13654mlicup3w1l36spsdqnrt,3z7vu45ip2uttg7lzs22hmddajhz1m,WaBAIADv,2020-0188,2020-11-15,09:01:14,09:32:05,NA,incomplete,94,number,1,right,Blue_Star_Chess_2.jpg,Red_Star_Grid_4.jpg,Green_Triangle_Stripes_2.jpg,left,655.1049999543466,false,high,NA,NA,NA,NA,NA,NA,NA,false
WaBAIADv,3ygyp13654mlicup3w1l36spsdqnrt,3z7vu45ip2uttg7lzs22hmddajhz1m,WaBAIADv,2020-0188,2020-11-15,09:01:14,09:32:05,NA,incomplete,95,number,1,left,Purple_Plus_Grid_4.jpg,Green_Triangle_Stripes_4.jpg,Red_Plus_Chess_2.jpg,left,304.88000001059845,true,high,NA,NA,NA,NA,NA,NA,NA,false
WaBAIADv,3ygyp13654mlicup3w1l36spsdqnrt,3z7vu45ip2uttg7lzs22hmddajhz1m,WaBAIADv,2020-0188,2020-11-15,09:01:14,09:32:05,NA,incomplete,96,number,0,left,Blue_Triangle_Dots_4.jpg,Red_Circle_Stripes_4.jpg,Purple_Triangle_Chess_3.jpg,right,640.769999998156,false,high,NA,NA,NA,NA,NA,NA,NA,false
WaBAIADv,3ygyp13654mlicup3w1l36spsdqnrt,3z7vu45ip2uttg7lzs22hmddajhz1m,WaBAIADv,2020-0188,2020-11-15,09:01:14,09:32:05,NA,incomplete,97,number,0,left,Red_Circle_Grid_2.jpg,Green_Star_Chess_2.jpg,Blue_Circle_Dots_4.jpg,right,906.5449999761768,false,high,NA,NA,NA,NA,NA,NA,NA,false
WaBAIADv,3ygyp13654mlicup3w1l36spsdqnrt,3z7vu45ip2uttg7lzs22hmddajhz1m,WaBAIADv,2020-0188,2020-11-15,09:01:14,09:32:05,NA,incomplete,98,number,0,left,Purple_Circle_Stripes_4.jpg,Blue_Star_Chess_4.jpg,Green_Circle_Dots_2.jpg,right,1139.7449999931268,false,high,NA,NA,NA,NA,NA,NA,NA,false
WaBAIADv,3ygyp13654mlicup3w1l36spsdqnrt,3z7vu45ip2uttg7lzs22hmddajhz1m,WaBAIADv,2020-0188,2020-11-15,09:01:14,09:32:05,NA,incomplete,99,number,0,left,Purple_Plus_Stripes_1.jpg,Blue_Star_Chess_1.jpg,Red_Plus_Grid_2.jpg,right,773.879999993369,false,high,NA,NA,NA,NA,NA,NA,NA,false
WaBAIADv,3ygyp13654mlicup3w1l36spsdqnrt,3z7vu45ip2uttg7lzs22hmddajhz1m,WaBAIADv,2020-0188,2020-11-15,09:01:14,09:32:05,NA,incomplete,100,shape,1,left,Green_Plus_Stripes_1.jpg,Red_Plus_Dots_2.jpg,Blue_Triangle_Grid_1.jpg,left,860.7699999702163,true,high,NA,NA,NA,NA,NA,NA,NA,false
WaBAIADv,3ygyp13654mlicup3w1l36spsdqnrt,3z7vu45ip2uttg7lzs22hmddajhz1m,WaBAIADv,2020-0188,2020-11-15,09:01:14,09:32:05,NA,incomplete,101,shape,1,left,Red_Circle_Dots_1.jpg,Purple_Circle_Stripes_2.jpg,Blue_Plus_Chess_1.jpg,left,689.9250000133179,true,high,NA,NA,NA,NA,NA,NA,NA,false
WaBAIADv,3ygyp13654mlicup3w1l36spsdqnrt,3z7vu45ip2uttg7lzs22hmddajhz1m,WaBAIADv,2020-0188,2020-11-15,09:01:14,09:32:05,NA,incomplete,102,shape,1,left,Red_Plus_Grid_4.jpg,Blue_Plus_Stripes_2.jpg,Purple_Star_Dots_4.jpg,left,965.0499999988824,true,high,NA,NA,NA,NA,NA,NA,NA,false
WaBAIADv,3ygyp13654mlicup3w1l36spsdqnrt,3z7vu45ip2uttg7lzs22hmddajhz1m,WaBAIADv,2020-0188,2020-11-15,09:01:14,09:32:05,NA,incomplete,103,shape,1,left,Blue_Star_Chess_4.jpg,Green_Star_Dots_1.jpg,Red_Triangle_Grid_4.jpg,right,767.5900000031106,false,high,NA,NA,NA,NA,NA,NA,NA,false
WaBAIADv,3ygyp13654mlicup3w1l36spsdqnrt,3z7vu45ip2uttg7lzs22hmddajhz1m,WaBAIADv,2020-0188,2020-11-15,09:01:14,09:32:05,NA,incomplete,104,shape,1,right,Red_Triangle_Stripes_3.jpg,Blue_Star_Grid_3.jpg,Purple_Triangle_Chess_2.jpg,right,948.6250000190921,true,high,NA,NA,NA,NA,NA,NA,NA,false
WaBAIADv,3ygyp13654mlicup3w1l36spsdqnrt,3z7vu45ip2uttg7lzs22hmddajhz1m,WaBAIADv,2020-0188,2020-11-15,09:01:14,09:32:05,NA,incomplete,105,shape,1,left,Red_Star_Stripes_4.jpg,Purple_Star_Grid_3.jpg,Blue_Triangle_Chess_4.jpg,left,560.3099999716505,true,high,NA,NA,NA,NA,NA,NA,NA,false
WaBAIADv,3ygyp13654mlicup3w1l36spsdqnrt,3z7vu45ip2uttg7lzs22hmddajhz1m,WaBAIADv,2020-0188,2020-11-15,09:01:14,09:32:05,NA,incomplete,106,shape,0,right,Blue_Star_Chess_2.jpg,Green_Triangle_Dots_2.jpg,Red_Star_Stripes_1.jpg,right,955.1650000503287,true,high,NA,NA,NA,NA,NA,NA,NA,false
WaBAIADv,3ygyp13654mlicup3w1l36spsdqnrt,3z7vu45ip2uttg7lzs22hmddajhz1m,WaBAIADv,2020-0188,2020-11-15,09:01:14,09:32:05,NA,incomplete,107,shape,1,right,Green_Star_Stripes_3.jpg,Red_Circle_Dots_3.jpg,Purple_Star_Grid_4.jpg,right,810.4750000056811,true,high,NA,NA,NA,NA,NA,NA,NA,false
WaBAIADv,3ygyp13654mlicup3w1l36spsdqnrt,3z7vu45ip2uttg7lzs22hmddajhz1m,WaBAIADv,2020-0188,2020-11-15,09:01:14,09:32:05,NA,incomplete,108,shape,1,right,Red_Circle_Stripes_2.jpg,Blue_Star_Dots_2.jpg,Purple_Circle_Grid_1.jpg,right,870.6400000373833,true,high,NA,NA,NA,NA,NA,NA,NA,false
WaBAIADv,3ygyp13654mlicup3w1l36spsdqnrt,3z7vu45ip2uttg7lzs22hmddajhz1m,WaBAIADv,2020-0188,2020-11-15,09:01:14,09:32:05,NA,incomplete,109,shape,1,right,Red_Plus_Stripes_1.jpg,Purple_Triangle_Dots_1.jpg,Blue_Plus_Chess_2.jpg,right,938.0649999948218,true,high,NA,NA,NA,NA,NA,NA,NA,false
WaBAIADv,3ygyp13654mlicup3w1l36spsdqnrt,3z7vu45ip2uttg7lzs22hmddajhz1m,WaBAIADv,2020-0188,2020-11-15,09:01:14,09:32:05,NA,incomplete,110,number,1,right,Red_Star_Stripes_1.jpg,Purple_Star_Chess_2.jpg,Blue_Plus_Dots_1.jpg,left,620.8849999820814,false,high,NA,NA,NA,NA,NA,NA,NA,false
WaBAIADv,3ygyp13654mlicup3w1l36spsdqnrt,3z7vu45ip2uttg7lzs22hmddajhz1m,WaBAIADv,2020-0188,2020-11-15,09:01:14,09:32:05,NA,incomplete,111,number,1,right,Green_Triangle_Grid_3.jpg,Blue_Triangle_Chess_2.jpg,Red_Circle_Dots_3.jpg,left,1054.8450000351295,false,high,NA,NA,NA,NA,NA,NA,NA,false
WaBAIADv,3ygyp13654mlicup3w1l36spsdqnrt,3z7vu45ip2uttg7lzs22hmddajhz1m,WaBAIADv,2020-0188,2020-11-15,09:01:14,09:32:05,NA,incomplete,112,number,1,left,Blue_Plus_Dots_2.jpg,Red_Circle_Chess_2.jpg,Green_Plus_Grid_3.jpg,right,584.0300000272691,false,high,NA,NA,NA,NA,NA,NA,NA,false
WaBAIADv,3ygyp13654mlicup3w1l36spsdqnrt,3z7vu45ip2uttg7lzs22hmddajhz1m,WaBAIADv,2020-0188,2020-11-15,09:01:14,09:32:05,NA,incomplete,113,number,1,right,Purple_Triangle_Chess_4.jpg,Red_Triangle_Stripes_1.jpg,Blue_Circle_Grid_4.jpg,left,675.1500000245869,false,high,NA,NA,NA,NA,NA,NA,NA,false
WaBAIADv,3ygyp13654mlicup3w1l36spsdqnrt,3z7vu45ip2uttg7lzs22hmddajhz1m,WaBAIADv,2020-0188,2020-11-15,09:01:14,09:32:05,NA,incomplete,114,number,1,left,Red_Triangle_Grid_1.jpg,Blue_Star_Stripes_1.jpg,Purple_Triangle_Chess_2.jpg,right,726.3700000476092,false,high,NA,NA,NA,NA,NA,NA,NA,false
WaBAIADv,3ygyp13654mlicup3w1l36spsdqnrt,3z7vu45ip2uttg7lzs22hmddajhz1m,WaBAIADv,2020-0188,2020-11-15,09:01:14,09:32:05,NA,incomplete,115,number,0,left,Purple_Plus_Dots_4.jpg,Red_Circle_Grid_4.jpg,Blue_Plus_Stripes_1.jpg,right,1330.0400000298396,false,high,NA,NA,NA,NA,NA,NA,NA,false
WaBAIADv,3ygyp13654mlicup3w1l36spsdqnrt,3z7vu45ip2uttg7lzs22hmddajhz1m,WaBAIADv,2020-0188,2020-11-15,09:01:14,09:32:05,NA,incomplete,116,number,1,left,Purple_Circle_Stripes_4.jpg,Red_Star_Dots_4.jpg,Blue_Circle_Grid_1.jpg,right,739.0749999904074,false,high,NA,NA,NA,NA,NA,NA,NA,false
WaBAIADv,3ygyp13654mlicup3w1l36spsdqnrt,3z7vu45ip2uttg7lzs22hmddajhz1m,WaBAIADv,2020-0188,2020-11-15,09:01:14,09:32:05,NA,incomplete,117,number,1,left,Red_Star_Stripes_2.jpg,Purple_Circle_Chess_2.jpg,Blue_Star_Grid_4.jpg,right,1128.6700000055134,false,high,NA,NA,NA,NA,NA,NA,NA,false
WaBAIADv,3ygyp13654mlicup3w1l36spsdqnrt,3z7vu45ip2uttg7lzs22hmddajhz1m,WaBAIADv,2020-0188,2020-11-15,09:01:14,09:32:05,NA,incomplete,118,number,0,left,Green_Plus_Dots_4.jpg,Blue_Star_Stripes_4.jpg,Red_Plus_Grid_1.jpg,right,879.0399999707006,false,high,NA,NA,NA,NA,NA,NA,NA,false
WaBAIADv,3ygyp13654mlicup3w1l36spsdqnrt,3z7vu45ip2uttg7lzs22hmddajhz1m,WaBAIADv,2020-0188,2020-11-15,09:01:14,09:32:05,NA,incomplete,119,number,1,left,Blue_Plus_Grid_3.jpg,Green_Star_Dots_3.jpg,Red_Plus_Stripes_1.jpg,right,604.7749999561347,false,high,NA,NA,NA,NA,NA,NA,NA,false
WaBAIADv,3ygyp13654mlicup3w1l36spsdqnrt,3z7vu45ip2uttg7lzs22hmddajhz1m,WaBAIADv,2020-0188,2020-11-15,09:01:14,09:32:05,NA,incomplete,120,shape,1,right,Purple_Triangle_Grid_4.jpg,Blue_Star_Stripes_4.jpg,Red_Triangle_Chess_2.jpg,right,658.3300000056624,true,high,NA,NA,NA,NA,NA,NA,NA,false
WaBAIADv,3ygyp13654mlicup3w1l36spsdqnrt,3z7vu45ip2uttg7lzs22hmddajhz1m,WaBAIADv,2020-0188,2020-11-15,09:01:14,09:32:05,NA,incomplete,121,shape,1,left,Purple_Triangle_Chess_2.jpg,Red_Triangle_Dots_1.jpg,Green_Plus_Stripes_2.jpg,left,590.154999983497,true,high,NA,NA,NA,NA,NA,NA,NA,false
WaBAIADv,3ygyp13654mlicup3w1l36spsdqnrt,3z7vu45ip2uttg7lzs22hmddajhz1m,WaBAIADv,2020-0188,2020-11-15,09:01:14,09:32:05,NA,incomplete,122,shape,1,right,Green_Star_Grid_1.jpg,Red_Plus_Chess_1.jpg,Purple_Star_Stripes_2.jpg,right,935.9249999979511,true,high,NA,NA,NA,NA,NA,NA,NA,false
WaBAIADv,3ygyp13654mlicup3w1l36spsdqnrt,3z7vu45ip2uttg7lzs22hmddajhz1m,WaBAIADv,2020-0188,2020-11-15,09:01:14,09:32:05,NA,incomplete,123,shape,0,left,Purple_Circle_Dots_3.jpg,Blue_Circle_Grid_1.jpg,Red_Plus_Chess_3.jpg,left,695.2549999696203,true,high,NA,NA,NA,NA,NA,NA,NA,false
WaBAIADv,3ygyp13654mlicup3w1l36spsdqnrt,3z7vu45ip2uttg7lzs22hmddajhz1m,WaBAIADv,2020-0188,2020-11-15,09:01:14,09:32:05,NA,incomplete,124,shape,1,left,Purple_Circle_Dots_3.jpg,Blue_Circle_Grid_2.jpg,Red_Triangle_Chess_3.jpg,left,621.8449999578297,true,high,NA,NA,NA,NA,NA,NA,NA,false
WaBAIADv,3ygyp13654mlicup3w1l36spsdqnrt,3z7vu45ip2uttg7lzs22hmddajhz1m,WaBAIADv,2020-0188,2020-11-15,09:01:14,09:32:05,NA,incomplete,125,shape,0,right,Red_Circle_Dots_4.jpg,Green_Star_Chess_4.jpg,Blue_Circle_Grid_3.jpg,right,554.6499999472871,true,high,NA,NA,NA,NA,NA,NA,NA,false
WaBAIADv,3ygyp13654mlicup3w1l36spsdqnrt,3z7vu45ip2uttg7lzs22hmddajhz1m,WaBAIADv,2020-0188,2020-11-15,09:01:14,09:32:05,NA,incomplete,126,shape,1,left,Purple_Triangle_Grid_1.jpg,Green_Triangle_Chess_4.jpg,Blue_Circle_Dots_1.jpg,left,788.5200000018813,true,high,NA,NA,NA,NA,NA,NA,NA,false
WaBAIADv,3ygyp13654mlicup3w1l36spsdqnrt,3z7vu45ip2uttg7lzs22hmddajhz1m,WaBAIADv,2020-0188,2020-11-15,09:01:14,09:32:05,NA,incomplete,127,shape,1,right,Green_Star_Grid_2.jpg,Blue_Circle_Chess_2.jpg,Purple_Star_Dots_4.jpg,right,1092.5649999990128,true,high,NA,NA,NA,NA,NA,NA,NA,false
WaBAIADv,3ygyp13654mlicup3w1l36spsdqnrt,3z7vu45ip2uttg7lzs22hmddajhz1m,WaBAIADv,2020-0188,2020-11-15,09:01:14,09:32:05,NA,incomplete,128,shape,1,left,Red_Plus_Grid_3.jpg,Purple_Plus_Chess_2.jpg,Green_Star_Stripes_3.jpg,left,783.0250000115484,true,high,NA,NA,NA,NA,NA,NA,NA,false
WaBAIADv,3ygyp13654mlicup3w1l36spsdqnrt,3z7vu45ip2uttg7lzs22hmddajhz1m,WaBAIADv,2020-0188,2020-11-15,09:01:14,09:32:05,NA,incomplete,129,shape,1,left,Green_Triangle_Dots_4.jpg,Blue_Triangle_Grid_2.jpg,Purple_Circle_Chess_4.jpg,left,660.6249999604188,true,high,NA,NA,NA,NA,NA,NA,NA,false
WaBAIADv,3ygyp13654mlicup3w1l36spsdqnrt,3z7vu45ip2uttg7lzs22hmddajhz1m,WaBAIADv,2020-0188,2020-11-15,09:01:14,09:32:05,NA,incomplete,130,shape,1,right,Blue_Circle_Grid_1.jpg,Red_Plus_Stripes_1.jpg,Purple_Circle_Dots_2.jpg,right,639.8899999912828,true,high,NA,NA,NA,NA,NA,NA,NA,false
WaBAIADv,3ygyp13654mlicup3w1l36spsdqnrt,3z7vu45ip2uttg7lzs22hmddajhz1m,WaBAIADv,2020-0188,2020-11-15,09:01:14,09:32:05,NA,incomplete,131,shape,0,left,Purple_Plus_Chess_3.jpg,Blue_Plus_Stripes_1.jpg,Red_Circle_Dots_3.jpg,left,780.1999999792315,true,high,NA,NA,NA,NA,NA,NA,NA,false
WaBAIADv,3ygyp13654mlicup3w1l36spsdqnrt,3z7vu45ip2uttg7lzs22hmddajhz1m,WaBAIADv,2020-0188,2020-11-15,09:01:14,09:32:05,NA,incomplete,132,shape,1,right,Green_Plus_Chess_4.jpg,Red_Star_Grid_4.jpg,Blue_Plus_Dots_2.jpg,left,594.8499999940395,false,high,NA,NA,NA,NA,NA,NA,NA,false
WaBAIADv,3ygyp13654mlicup3w1l36spsdqnrt,3z7vu45ip2uttg7lzs22hmddajhz1m,WaBAIADv,2020-0188,2020-11-15,09:01:14,09:32:05,NA,incomplete,133,shape,0,right,Green_Circle_Dots_2.jpg,Blue_Star_Chess_2.jpg,Purple_Circle_Grid_4.jpg,right,252.3749999818392,true,high,NA,NA,NA,NA,NA,NA,NA,false
WaBAIADv,3ygyp13654mlicup3w1l36spsdqnrt,3z7vu45ip2uttg7lzs22hmddajhz1m,WaBAIADv,2020-0188,2020-11-15,09:01:14,09:32:05,NA,incomplete,134,shape,1,right,Purple_Star_Stripes_2.jpg,Red_Plus_Grid_2.jpg,Blue_Star_Dots_4.jpg,right,698.5700000077486,true,high,NA,NA,NA,NA,NA,NA,NA,false
WaBAIADv,3ygyp13654mlicup3w1l36spsdqnrt,3z7vu45ip2uttg7lzs22hmddajhz1m,WaBAIADv,2020-0188,2020-11-15,09:01:14,09:32:05,NA,incomplete,135,shape,1,right,Green_Plus_Chess_3.jpg,Purple_Triangle_Stripes_3.jpg,Blue_Plus_Grid_1.jpg,right,611.8450000067241,true,high,NA,NA,NA,NA,NA,NA,NA,false
WaBAIADv,3ygyp13654mlicup3w1l36spsdqnrt,3z7vu45ip2uttg7lzs22hmddajhz1m,WaBAIADv,2020-0188,2020-11-15,09:01:14,09:32:05,NA,incomplete,136,shape,1,left,Blue_Star_Grid_1.jpg,Purple_Star_Stripes_3.jpg,Red_Circle_Chess_1.jpg,left,843.9300000318326,true,high,NA,NA,NA,NA,NA,NA,NA,false
WaBAIADv,3ygyp13654mlicup3w1l36spsdqnrt,3z7vu45ip2uttg7lzs22hmddajhz1m,WaBAIADv,2020-0188,2020-11-15,09:01:14,09:32:05,NA,incomplete,137,shape,1,right,Red_Circle_Chess_1.jpg,Purple_Star_Dots_1.jpg,Blue_Circle_Grid_4.jpg,right,967.594999994617,true,high,NA,NA,NA,NA,NA,NA,NA,false
WaBAIADv,3ygyp13654mlicup3w1l36spsdqnrt,3z7vu45ip2uttg7lzs22hmddajhz1m,WaBAIADv,2020-0188,2020-11-15,09:01:14,09:32:05,NA,incomplete,138,shape,1,left,Blue_Triangle_Grid_3.jpg,Green_Triangle_Stripes_1.jpg,Red_Plus_Dots_3.jpg,left,663.5200000018813,true,high,NA,NA,NA,NA,NA,NA,NA,false
WaBAIADv,3ygyp13654mlicup3w1l36spsdqnrt,3z7vu45ip2uttg7lzs22hmddajhz1m,WaBAIADv,2020-0188,2020-11-15,09:01:14,09:32:05,NA,incomplete,139,shape,0,left,Red_Plus_Grid_3.jpg,Blue_Plus_Chess_2.jpg,Green_Circle_Stripes_3.jpg,left,716.4699999848381,true,high,NA,NA,NA,NA,NA,NA,NA,false
WaBAIADv,3ygyp13654mlicup3w1l36spsdqnrt,3z7vu45ip2uttg7lzs22hmddajhz1m,WaBAIADv,2020-0188,2020-11-15,09:01:14,09:32:05,NA,incomplete,140,number,1,right,Green_Star_Stripes_1.jpg,Purple_Star_Grid_2.jpg,Blue_Plus_Dots_1.jpg,left,640.079999982845,false,high,NA,NA,NA,NA,NA,NA,NA,false
WaBAIADv,3ygyp13654mlicup3w1l36spsdqnrt,3z7vu45ip2uttg7lzs22hmddajhz1m,WaBAIADv,2020-0188,2020-11-15,09:01:14,09:32:05,NA,incomplete,141,number,0,right,Purple_Star_Dots_3.jpg,Blue_Star_Grid_4.jpg,Red_Circle_Chess_3.jpg,left,592.2900000005029,false,high,NA,NA,NA,NA,NA,NA,NA,false
WaBAIADv,3ygyp13654mlicup3w1l36spsdqnrt,3z7vu45ip2uttg7lzs22hmddajhz1m,WaBAIADv,2020-0188,2020-11-15,09:01:14,09:32:05,NA,incomplete,142,number,1,right,Red_Triangle_Stripes_4.jpg,Purple_Triangle_Chess_2.jpg,Green_Star_Dots_4.jpg,left,554.9650000175461,false,high,NA,NA,NA,NA,NA,NA,NA,false
WaBAIADv,3ygyp13654mlicup3w1l36spsdqnrt,3z7vu45ip2uttg7lzs22hmddajhz1m,WaBAIADv,2020-0188,2020-11-15,09:01:14,09:32:05,NA,incomplete,143,number,1,left,Blue_Circle_Stripes_1.jpg,Green_Star_Chess_1.jpg,Purple_Circle_Grid_2.jpg,right,490.8500000019558,false,high,NA,NA,NA,NA,NA,NA,NA,false
WaBAIADv,3ygyp13654mlicup3w1l36spsdqnrt,3z7vu45ip2uttg7lzs22hmddajhz1m,WaBAIADv,2020-0188,2020-11-15,09:01:14,09:32:05,NA,incomplete,144,number,1,right,Blue_Star_Grid_1.jpg,Red_Star_Chess_2.jpg,Green_Triangle_Dots_1.jpg,left,547.8499999735504,false,high,NA,NA,NA,NA,NA,NA,NA,false
WaBAIADv,3ygyp13654mlicup3w1l36spsdqnrt,3z7vu45ip2uttg7lzs22hmddajhz1m,WaBAIADv,2020-0188,2020-11-15,09:01:14,09:32:05,NA,incomplete,145,number,1,left,Blue_Circle_Chess_3.jpg,Red_Triangle_Grid_3.jpg,Purple_Circle_Stripes_1.jpg,left,186.41000002389774,true,high,NA,NA,NA,NA,NA,NA,NA,false
WaBAIADv,3ygyp13654mlicup3w1l36spsdqnrt,3z7vu45ip2uttg7lzs22hmddajhz1m,WaBAIADv,2020-0188,2020-11-15,09:01:14,09:32:05,NA,incomplete,146,number,1,right,Blue_Star_Stripes_4.jpg,Purple_Star_Dots_2.jpg,Green_Triangle_Chess_4.jpg,left,760.5649999459274,false,high,NA,NA,NA,NA,NA,NA,NA,false
WaBAIADv,3ygyp13654mlicup3w1l36spsdqnrt,3z7vu45ip2uttg7lzs22hmddajhz1m,WaBAIADv,2020-0188,2020-11-15,09:01:14,09:32:05,NA,incomplete,147,number,1,left,Green_Plus_Dots_2.jpg,Purple_Star_Chess_2.jpg,Blue_Plus_Stripes_4.jpg,right,209.3250000034459,false,high,NA,NA,NA,NA,NA,NA,NA,false
WaBAIADv,3ygyp13654mlicup3w1l36spsdqnrt,3z7vu45ip2uttg7lzs22hmddajhz1m,WaBAIADv,2020-0188,2020-11-15,09:01:14,09:32:05,NA,incomplete,148,number,0,right,Red_Plus_Chess_2.jpg,Blue_Plus_Dots_3.jpg,Green_Star_Grid_2.jpg,left,188.05500003509223,false,high,NA,NA,NA,NA,NA,NA,NA,false
WaBAIADv,3ygyp13654mlicup3w1l36spsdqnrt,3z7vu45ip2uttg7lzs22hmddajhz1m,WaBAIADv,2020-0188,2020-11-15,09:01:14,09:32:05,NA,incomplete,149,number,1,right,Red_Star_Chess_3.jpg,Purple_Star_Grid_2.jpg,Blue_Triangle_Dots_3.jpg,left,110.46499997610226,false,high,NA,NA,NA,NA,NA,NA,NA,false
WaBAIADv,3ygyp13654mlicup3w1l36spsdqnrt,3z7vu45ip2uttg7lzs22hmddajhz1m,WaBAIADv,2020-0188,2020-11-15,09:01:14,09:32:05,NA,incomplete,150,number,1,left,Purple_Circle_Stripes_3.jpg,Blue_Triangle_Grid_3.jpg,Green_Circle_Dots_1.jpg,left,18.739999970421195,true,high,NA,NA,NA,NA,NA,NA,NA,false
WaBAIADv,3ygyp13654mlicup3w1l36spsdqnrt,3z7vu45ip2uttg7lzs22hmddajhz1m,WaBAIADv,2020-0188,2020-11-15,09:01:14,09:32:05,NA,incomplete,151,number,1,right,Blue_Triangle_Grid_4.jpg,Green_Triangle_Chess_3.jpg,Red_Star_Stripes_4.jpg,right,74.68000001972541,true,high,NA,NA,NA,NA,NA,NA,NA,false
WaBAIADv,3ygyp13654mlicup3w1l36spsdqnrt,3z7vu45ip2uttg7lzs22hmddajhz1m,WaBAIADv,2020-0188,2020-11-15,09:01:14,09:32:05,NA,incomplete,152,number,0,right,Green_Triangle_Chess_2.jpg,Purple_Triangle_Dots_4.jpg,Blue_Circle_Grid_2.jpg,left,15.299999970011413,false,high,NA,NA,NA,NA,NA,NA,NA,false
WaBAIADv,3ygyp13654mlicup3w1l36spsdqnrt,3z7vu45ip2uttg7lzs22hmddajhz1m,WaBAIADv,2020-0188,2020-11-15,09:01:14,09:32:05,NA,incomplete,153,number,1,right,Red_Circle_Chess_1.jpg,Green_Circle_Grid_3.jpg,Purple_Plus_Dots_1.jpg,left,123.00999998115003,false,high,NA,NA,NA,NA,NA,NA,NA,false
WaBAIADv,3ygyp13654mlicup3w1l36spsdqnrt,3z7vu45ip2uttg7lzs22hmddajhz1m,WaBAIADv,2020-0188,2020-11-15,09:01:14,09:32:05,NA,incomplete,154,number,1,left,Green_Circle_Chess_1.jpg,Red_Star_Grid_1.jpg,Purple_Circle_Dots_2.jpg,left,82.0899999816902,true,high,NA,NA,NA,NA,NA,NA,NA,false
WaBAIADv,3ygyp13654mlicup3w1l36spsdqnrt,3z7vu45ip2uttg7lzs22hmddajhz1m,WaBAIADv,2020-0188,2020-11-15,09:01:14,09:32:05,NA,incomplete,155,number,1,left,Green_Triangle_Dots_1.jpg,Purple_Plus_Chess_1.jpg,Blue_Triangle_Grid_4.jpg,left,864.1850000130944,true,high,NA,NA,NA,NA,NA,NA,NA,false
WaBAIADv,3ygyp13654mlicup3w1l36spsdqnrt,3z7vu45ip2uttg7lzs22hmddajhz1m,WaBAIADv,2020-0188,2020-11-15,09:01:14,09:32:05,NA,incomplete,156,number,1,left,Green_Circle_Dots_3.jpg,Blue_Star_Grid_3.jpg,Red_Circle_Chess_2.jpg,right,632.6899999985471,false,high,NA,NA,NA,NA,NA,NA,NA,false
WaBAIADv,3ygyp13654mlicup3w1l36spsdqnrt,3z7vu45ip2uttg7lzs22hmddajhz1m,WaBAIADv,2020-0188,2020-11-15,09:01:14,09:32:05,NA,incomplete,157,number,1,left,Purple_Triangle_Grid_4.jpg,Blue_Star_Stripes_4.jpg,Green_Triangle_Dots_1.jpg,right,251.87999999616295,false,high,NA,NA,NA,NA,NA,NA,NA,false
WaBAIADv,3ygyp13654mlicup3w1l36spsdqnrt,3z7vu45ip2uttg7lzs22hmddajhz1m,WaBAIADv,2020-0188,2020-11-15,09:01:14,09:32:05,NA,incomplete,158,number,1,right,Green_Star_Grid_1.jpg,Purple_Star_Stripes_4.jpg,Red_Plus_Chess_1.jpg,left,98.70999999111518,false,high,NA,NA,NA,NA,NA,NA,NA,false
WaBAIADv,3ygyp13654mlicup3w1l36spsdqnrt,3z7vu45ip2uttg7lzs22hmddajhz1m,WaBAIADv,2020-0188,2020-11-15,09:01:14,09:32:05,NA,incomplete,159,number,1,right,Purple_Circle_Chess_4.jpg,Green_Circle_Grid_3.jpg,Blue_Star_Dots_4.jpg,left,359.3550000223331,false,high,NA,NA,NA,NA,NA,NA,NA,false
WaBAIADv,3ygyp13654mlicup3w1l36spsdqnrt,3z7vu45ip2uttg7lzs22hmddajhz1m,WaBAIADv,2020-0188,2020-11-15,09:01:14,09:32:05,NA,incomplete,160,shape,1,right,Blue_Star_Dots_1.jpg,Red_Circle_Chess_1.jpg,Green_Star_Grid_4.jpg,right,796.535000030417,true,high,NA,NA,NA,NA,NA,NA,NA,false
WaBAIADv,3ygyp13654mlicup3w1l36spsdqnrt,3z7vu45ip2uttg7lzs22hmddajhz1m,WaBAIADv,2020-0188,2020-11-15,09:01:14,09:32:05,NA,incomplete,161,shape,1,left,Green_Plus_Grid_2.jpg,Red_Plus_Dots_1.jpg,Purple_Circle_Chess_2.jpg,left,702.8099999879487,true,high,NA,NA,NA,NA,NA,NA,NA,false
WaBAIADv,3ygyp13654mlicup3w1l36spsdqnrt,3z7vu45ip2uttg7lzs22hmddajhz1m,WaBAIADv,2020-0188,2020-11-15,09:01:14,09:32:05,NA,incomplete,162,shape,1,left,Purple_Circle_Grid_3.jpg,Blue_Circle_Dots_2.jpg,Green_Plus_Chess_3.jpg,left,999.439999985043,true,high,NA,NA,NA,NA,NA,NA,NA,false
WaBAIADv,3ygyp13654mlicup3w1l36spsdqnrt,3z7vu45ip2uttg7lzs22hmddajhz1m,WaBAIADv,2020-0188,2020-11-15,09:01:14,09:32:05,NA,incomplete,163,shape,1,left,Green_Star_Stripes_3.jpg,Purple_Star_Chess_2.jpg,Red_Triangle_Dots_3.jpg,left,930.1800000248477,true,high,NA,NA,NA,NA,NA,NA,NA,false
WaBAIADv,3ygyp13654mlicup3w1l36spsdqnrt,3z7vu45ip2uttg7lzs22hmddajhz1m,WaBAIADv,2020-0188,2020-11-15,09:01:14,09:32:05,NA,incomplete,164,shape,0,right,Blue_Star_Dots_2.jpg,Red_Circle_Stripes_2.jpg,Purple_Star_Grid_4.jpg,left,284.8150000208989,false,high,NA,NA,NA,NA,NA,NA,NA,false
WaBAIADv,3ygyp13654mlicup3w1l36spsdqnrt,3z7vu45ip2uttg7lzs22hmddajhz1m,WaBAIADv,2020-0188,2020-11-15,09:01:14,09:32:05,NA,incomplete,165,shape,1,right,Red_Star_Grid_2.jpg,Green_Circle_Chess_2.jpg,Purple_Star_Stripes_3.jpg,left,265.4200000106357,false,high,NA,NA,NA,NA,NA,NA,NA,false
WaBAIADv,3ygyp13654mlicup3w1l36spsdqnrt,3z7vu45ip2uttg7lzs22hmddajhz1m,WaBAIADv,2020-0188,2020-11-15,09:01:14,09:32:05,NA,incomplete,166,shape,1,right,Red_Triangle_Grid_2.jpg,Purple_Plus_Dots_2.jpg,Green_Triangle_Chess_1.jpg,left,259.9599999957718,false,high,NA,NA,NA,NA,NA,NA,NA,false
WaBAIADv,3ygyp13654mlicup3w1l36spsdqnrt,3z7vu45ip2uttg7lzs22hmddajhz1m,WaBAIADv,2020-0188,2020-11-15,09:01:14,09:32:05,NA,incomplete,167,shape,1,right,Red_Plus_Grid_1.jpg,Green_Star_Stripes_1.jpg,Blue_Plus_Chess_4.jpg,right,678.3850000356324,true,high,NA,NA,NA,NA,NA,NA,NA,false
WaBAIADv,3ygyp13654mlicup3w1l36spsdqnrt,3z7vu45ip2uttg7lzs22hmddajhz1m,WaBAIADv,2020-0188,2020-11-15,09:01:14,09:32:05,NA,incomplete,168,shape,1,left,Blue_Star_Chess_4.jpg,Green_Star_Dots_2.jpg,Purple_Plus_Stripes_4.jpg,left,406.1349999974482,true,high,NA,NA,NA,NA,NA,NA,NA,false
WaBAIADv,3ygyp13654mlicup3w1l36spsdqnrt,3z7vu45ip2uttg7lzs22hmddajhz1m,WaBAIADv,2020-0188,2020-11-15,09:01:14,09:32:05,NA,incomplete,169,shape,1,right,Green_Plus_Chess_2.jpg,Blue_Star_Dots_2.jpg,Purple_Plus_Grid_1.jpg,left,626.3500000350177,false,high,NA,NA,NA,NA,NA,NA,NA,false
WaBAIADv,3ygyp13654mlicup3w1l36spsdqnrt,3z7vu45ip2uttg7lzs22hmddajhz1m,WaBAIADv,2020-0188,2020-11-15,09:01:14,09:32:05,NA,incomplete,170,shape,1,left,Purple_Plus_Chess_1.jpg,Blue_Plus_Dots_4.jpg,Red_Triangle_Stripes_1.jpg,right,75.67499997094274,false,high,NA,NA,NA,NA,NA,NA,NA,false
WaBAIADv,3ygyp13654mlicup3w1l36spsdqnrt,3z7vu45ip2uttg7lzs22hmddajhz1m,WaBAIADv,2020-0188,2020-11-15,09:01:14,09:32:05,NA,incomplete,171,shape,1,right,Red_Triangle_Dots_1.jpg,Blue_Plus_Stripes_1.jpg,Green_Triangle_Grid_4.jpg,left,556.8499999935739,false,high,NA,NA,NA,NA,NA,NA,NA,false
WaBAIADv,3ygyp13654mlicup3w1l36spsdqnrt,3z7vu45ip2uttg7lzs22hmddajhz1m,WaBAIADv,2020-0188,2020-11-15,09:01:14,09:32:05,NA,incomplete,172,shape,1,right,Purple_Star_Chess_4.jpg,Blue_Triangle_Stripes_4.jpg,Green_Star_Grid_3.jpg,left,701.5900000114925,false,high,NA,NA,NA,NA,NA,NA,NA,false
WaBAIADv,3ygyp13654mlicup3w1l36spsdqnrt,3z7vu45ip2uttg7lzs22hmddajhz1m,WaBAIADv,2020-0188,2020-11-15,09:01:14,09:32:05,NA,incomplete,173,shape,0,right,Red_Plus_Stripes_3.jpg,Green_Triangle_Dots_3.jpg,Purple_Plus_Chess_2.jpg,right,760.1900000008754,true,high,NA,NA,NA,NA,NA,NA,NA,false
WaBAIADv,3ygyp13654mlicup3w1l36spsdqnrt,3z7vu45ip2uttg7lzs22hmddajhz1m,WaBAIADv,2020-0188,2020-11-15,09:01:14,09:32:05,NA,incomplete,174,shape,1,left,Green_Triangle_Grid_3.jpg,Blue_Triangle_Dots_4.jpg,Purple_Star_Stripes_3.jpg,left,687.0049999561161,true,high,NA,NA,NA,NA,NA,NA,NA,false
WaBAIADv,3ygyp13654mlicup3w1l36spsdqnrt,3z7vu45ip2uttg7lzs22hmddajhz1m,WaBAIADv,2020-0188,2020-11-15,09:01:14,09:32:05,NA,incomplete,175,shape,1,right,Blue_Triangle_Dots_4.jpg,Purple_Circle_Stripes_4.jpg,Red_Triangle_Grid_2.jpg,right,667.1750000095926,true,high,NA,NA,NA,NA,NA,NA,NA,false
WaBAIADv,3ygyp13654mlicup3w1l36spsdqnrt,3z7vu45ip2uttg7lzs22hmddajhz1m,WaBAIADv,2020-0188,2020-11-15,09:01:14,09:32:05,NA,incomplete,176,shape,0,right,Green_Plus_Chess_3.jpg,Red_Star_Stripes_3.jpg,Purple_Plus_Dots_1.jpg,right,1113.6049999622628,true,high,NA,NA,NA,NA,NA,NA,NA,false
WaBAIADv,3ygyp13654mlicup3w1l36spsdqnrt,3z7vu45ip2uttg7lzs22hmddajhz1m,WaBAIADv,2020-0188,2020-11-15,09:01:14,09:32:05,NA,incomplete,177,shape,1,left,Blue_Circle_Dots_1.jpg,Purple_Circle_Grid_4.jpg,Red_Triangle_Chess_1.jpg,left,1125.2499999827705,true,high,NA,NA,NA,NA,NA,NA,NA,false
WaBAIADv,3ygyp13654mlicup3w1l36spsdqnrt,3z7vu45ip2uttg7lzs22hmddajhz1m,WaBAIADv,2020-0188,2020-11-15,09:01:14,09:32:05,NA,incomplete,178,shape,0,left,Green_Plus_Grid_4.jpg,Purple_Plus_Chess_2.jpg,Red_Circle_Dots_4.jpg,left,734.5099999802187,true,high,NA,NA,NA,NA,NA,NA,NA,false
WaBAIADv,3ygyp13654mlicup3w1l36spsdqnrt,3z7vu45ip2uttg7lzs22hmddajhz1m,WaBAIADv,2020-0188,2020-11-15,09:01:14,09:32:05,NA,incomplete,179,shape,1,right,Purple_Triangle_Grid_1.jpg,Blue_Star_Chess_1.jpg,Red_Triangle_Stripes_2.jpg,right,1006.1400000122376,true,high,NA,NA,NA,NA,NA,NA,NA,false
WaBAIADv,3ygyp13654mlicup3w1l36spsdqnrt,3z7vu45ip2uttg7lzs22hmddajhz1m,WaBAIADv,2020-0188,2020-11-15,09:01:14,09:32:05,NA,incomplete,180,number,1,right,Red_Circle_Chess_3.jpg,Purple_Circle_Dots_4.jpg,Green_Plus_Stripes_3.jpg,left,698.8449999480508,false,high,NA,NA,NA,NA,NA,NA,NA,false
WaBAIADv,3ygyp13654mlicup3w1l36spsdqnrt,3z7vu45ip2uttg7lzs22hmddajhz1m,WaBAIADv,2020-0188,2020-11-15,09:01:14,09:32:05,NA,incomplete,181,number,0,right,Red_Plus_Dots_1.jpg,Purple_Plus_Grid_4.jpg,Blue_Circle_Stripes_1.jpg,left,676.7749999999069,false,high,NA,NA,NA,NA,NA,NA,NA,false
WaBAIADv,3ygyp13654mlicup3w1l36spsdqnrt,3z7vu45ip2uttg7lzs22hmddajhz1m,WaBAIADv,2020-0188,2020-11-15,09:01:14,09:32:05,NA,incomplete,182,number,1,right,Green_Triangle_Dots_2.jpg,Blue_Triangle_Stripes_1.jpg,Purple_Circle_Chess_2.jpg,left,1055.7949999929406,false,high,NA,NA,NA,NA,NA,NA,NA,false
WaBAIADv,3ygyp13654mlicup3w1l36spsdqnrt,3z7vu45ip2uttg7lzs22hmddajhz1m,WaBAIADv,2020-0188,2020-11-15,09:01:14,09:32:05,NA,incomplete,183,number,1,left,Green_Triangle_Dots_3.jpg,Red_Plus_Grid_3.jpg,Purple_Triangle_Stripes_4.jpg,right,1182.7099999645725,false,high,NA,NA,NA,NA,NA,NA,NA,false
WaBAIADv,3ygyp13654mlicup3w1l36spsdqnrt,3z7vu45ip2uttg7lzs22hmddajhz1m,WaBAIADv,2020-0188,2020-11-15,09:01:14,09:32:05,NA,incomplete,184,number,0,left,Blue_Triangle_Stripes_1.jpg,Red_Star_Dots_1.jpg,Green_Triangle_Grid_2.jpg,right,642.9800000041723,false,high,NA,NA,NA,NA,NA,NA,NA,false
WaBAIADv,3ygyp13654mlicup3w1l36spsdqnrt,3z7vu45ip2uttg7lzs22hmddajhz1m,WaBAIADv,2020-0188,2020-11-15,09:01:14,09:32:05,NA,incomplete,185,number,1,right,Blue_Plus_Stripes_1.jpg,Purple_Plus_Chess_4.jpg,Red_Triangle_Dots_1.jpg,left,872.3699999973178,false,high,NA,NA,NA,NA,NA,NA,NA,false
WaBAIADv,3ygyp13654mlicup3w1l36spsdqnrt,3z7vu45ip2uttg7lzs22hmddajhz1m,WaBAIADv,2020-0188,2020-11-15,09:01:14,09:32:05,NA,incomplete,186,number,1,left,Blue_Plus_Stripes_2.jpg,Green_Circle_Chess_2.jpg,Purple_Plus_Dots_3.jpg,right,431.99499999172986,false,high,NA,NA,NA,NA,NA,NA,NA,false
WaBAIADv,3ygyp13654mlicup3w1l36spsdqnrt,3z7vu45ip2uttg7lzs22hmddajhz1m,WaBAIADv,2020-0188,2020-11-15,09:01:14,09:32:05,NA,incomplete,187,number,1,left,Purple_Star_Dots_4.jpg,Green_Circle_Chess_4.jpg,Blue_Star_Stripes_1.jpg,none,0,false,high,NA,NA,NA,NA,NA,NA,NA,false
WaBAIADv,3ygyp13654mlicup3w1l36spsdqnrt,3z7vu45ip2uttg7lzs22hmddajhz1m,WaBAIADv,2020-0188,2020-11-15,09:01:14,09:32:05,NA,incomplete,188,number,0,right,Blue_Star_Stripes_2.jpg,Green_Star_Chess_3.jpg,Red_Plus_Dots_2.jpg,left,612.9049999872223,false,high,NA,NA,NA,NA,NA,NA,NA,false
WaBAIADv,3ygyp13654mlicup3w1l36spsdqnrt,3z7vu45ip2uttg7lzs22hmddajhz1m,WaBAIADv,2020-0188,2020-11-15,09:01:14,09:32:05,NA,incomplete,189,number,1,right,Red_Triangle_Grid_3.jpg,Blue_Triangle_Chess_2.jpg,Purple_Circle_Stripes_3.jpg,left,557.715000002645,false,high,NA,NA,NA,NA,NA,NA,NA,false
WaBAIADv,3ygyp13654mlicup3w1l36spsdqnrt,3z7vu45ip2uttg7lzs22hmddajhz1m,WaBAIADv,2020-0188,2020-11-15,09:01:14,09:32:05,NA,incomplete,190,number,0,left,Purple_Circle_Stripes_1.jpg,Red_Plus_Dots_1.jpg,Green_Circle_Chess_3.jpg,right,583.9200000045821,false,high,NA,NA,NA,NA,NA,NA,NA,false
WaBAIADv,3ygyp13654mlicup3w1l36spsdqnrt,3z7vu45ip2uttg7lzs22hmddajhz1m,WaBAIADv,2020-0188,2020-11-15,09:01:14,09:32:05,NA,incomplete,191,number,1,left,Purple_Triangle_Chess_3.jpg,Blue_Circle_Stripes_3.jpg,Red_Triangle_Dots_1.jpg,left,742.6949999644421,true,high,NA,NA,NA,NA,NA,NA,NA,false
WaBAIADv,3ygyp13654mlicup3w1l36spsdqnrt,3z7vu45ip2uttg7lzs22hmddajhz1m,WaBAIADv,2020-0188,2020-11-15,09:01:14,09:32:05,NA,incomplete,192,number,0,left,Red_Circle_Grid_4.jpg,Blue_Triangle_Dots_4.jpg,Purple_Circle_Chess_3.jpg,right,783.1000000005588,false,high,NA,NA,NA,NA,NA,NA,NA,false
WaBAIADv,3ygyp13654mlicup3w1l36spsdqnrt,3z7vu45ip2uttg7lzs22hmddajhz1m,WaBAIADv,2020-0188,2020-11-15,09:01:14,09:32:05,NA,incomplete,193,number,1,right,Purple_Triangle_Dots_3.jpg,Red_Triangle_Stripes_4.jpg,Blue_Star_Chess_3.jpg,left,579.1800000006333,false,high,NA,NA,NA,NA,NA,NA,NA,false
WaBAIADv,3ygyp13654mlicup3w1l36spsdqnrt,3z7vu45ip2uttg7lzs22hmddajhz1m,WaBAIADv,2020-0188,2020-11-15,09:01:14,09:32:05,NA,incomplete,194,number,1,right,Purple_Triangle_Dots_1.jpg,Red_Triangle_Chess_3.jpg,Green_Plus_Stripes_1.jpg,left,611.559999990277,false,high,NA,NA,NA,NA,NA,NA,NA,false
WaBAIADv,3ygyp13654mlicup3w1l36spsdqnrt,3z7vu45ip2uttg7lzs22hmddajhz1m,WaBAIADv,2020-0188,2020-11-15,09:01:14,09:32:05,NA,incomplete,195,number,1,left,Green_Plus_Stripes_4.jpg,Red_Star_Chess_4.jpg,Blue_Plus_Grid_3.jpg,right,657.4249999830499,false,high,NA,NA,NA,NA,NA,NA,NA,false
WaBAIADv,3ygyp13654mlicup3w1l36spsdqnrt,3z7vu45ip2uttg7lzs22hmddajhz1m,WaBAIADv,2020-0188,2020-11-15,09:01:14,09:32:05,NA,incomplete,196,number,1,left,Green_Plus_Grid_3.jpg,Red_Triangle_Stripes_3.jpg,Purple_Plus_Chess_2.jpg,right,727.039999968838,false,high,NA,NA,NA,NA,NA,NA,NA,false
WaBAIADv,3ygyp13654mlicup3w1l36spsdqnrt,3z7vu45ip2uttg7lzs22hmddajhz1m,WaBAIADv,2020-0188,2020-11-15,09:01:14,09:32:05,NA,incomplete,197,number,1,left,Green_Triangle_Grid_3.jpg,Purple_Plus_Chess_3.jpg,Blue_Triangle_Dots_4.jpg,right,1108.780000009574,false,high,NA,NA,NA,NA,NA,NA,NA,false
WaBAIADv,3ygyp13654mlicup3w1l36spsdqnrt,3z7vu45ip2uttg7lzs22hmddajhz1m,WaBAIADv,2020-0188,2020-11-15,09:01:14,09:32:05,NA,incomplete,198,number,1,right,Purple_Triangle_Grid_1.jpg,Green_Triangle_Chess_4.jpg,Blue_Plus_Stripes_1.jpg,left,394.960000005085,false,high,NA,NA,NA,NA,NA,NA,NA,false
WaBAIADv,3ygyp13654mlicup3w1l36spsdqnrt,3z7vu45ip2uttg7lzs22hmddajhz1m,WaBAIADv,2020-0188,2020-11-15,09:01:14,09:32:05,NA,incomplete,199,number,1,right,Green_Star_Stripes_4.jpg,Red_Star_Grid_3.jpg,Purple_Triangle_Chess_4.jpg,left,214.0849999850616,false,high,NA,NA,NA,NA,NA,NA,NA,false
WaBAIADv,3ygyp13654mlicup3w1l36spsdqnrt,3z7vu45ip2uttg7lzs22hmddajhz1m,WaBAIADv,2020-0188,2020-11-15,09:01:14,09:32:05,NA,incomplete,200,shape,1,right,Green_Plus_Dots_1.jpg,Purple_Triangle_Chess_1.jpg,Red_Plus_Stripes_2.jpg,right,23.409999965224415,true,high,NA,NA,NA,NA,NA,NA,NA,false
WaBAIADv,3ygyp13654mlicup3w1l36spsdqnrt,3z7vu45ip2uttg7lzs22hmddajhz1m,WaBAIADv,2020-0188,2020-11-15,09:01:14,09:32:05,NA,incomplete,201,shape,0,left,Blue_Circle_Dots_3.jpg,Purple_Circle_Chess_2.jpg,Green_Star_Grid_3.jpg,left,693.5500000254251,true,high,NA,NA,NA,NA,NA,NA,NA,false
WaBAIADv,3ygyp13654mlicup3w1l36spsdqnrt,3z7vu45ip2uttg7lzs22hmddajhz1m,WaBAIADv,2020-0188,2020-11-15,09:01:14,09:32:05,NA,incomplete,202,shape,1,right,Blue_Plus_Chess_4.jpg,Green_Star_Grid_4.jpg,Red_Plus_Stripes_2.jpg,right,12.80999998562038,true,high,NA,NA,NA,NA,NA,NA,NA,false
WaBAIADv,3ygyp13654mlicup3w1l36spsdqnrt,3z7vu45ip2uttg7lzs22hmddajhz1m,WaBAIADv,2020-0188,2020-11-15,09:01:14,09:32:05,NA,incomplete,203,shape,0,left,Red_Triangle_Stripes_3.jpg,Purple_Triangle_Grid_4.jpg,Blue_Plus_Chess_3.jpg,right,291.4849999942817,false,high,NA,NA,NA,NA,NA,NA,NA,false
WaBAIADv,3ygyp13654mlicup3w1l36spsdqnrt,3z7vu45ip2uttg7lzs22hmddajhz1m,WaBAIADv,2020-0188,2020-11-15,09:01:14,09:32:05,NA,incomplete,204,shape,1,left,Red_Plus_Stripes_1.jpg,Green_Plus_Chess_3.jpg,Blue_Star_Grid_1.jpg,right,153.99999998044223,false,high,NA,NA,NA,NA,NA,NA,NA,false
WaBAIADv,3ygyp13654mlicup3w1l36spsdqnrt,3z7vu45ip2uttg7lzs22hmddajhz1m,WaBAIADv,2020-0188,2020-11-15,09:01:14,09:32:05,NA,incomplete,205,shape,1,right,Blue_Circle_Chess_2.jpg,Purple_Plus_Dots_2.jpg,Green_Circle_Stripes_1.jpg,right,211.55499998712912,true,high,NA,NA,NA,NA,NA,NA,NA,false
WaBAIADv,3ygyp13654mlicup3w1l36spsdqnrt,3z7vu45ip2uttg7lzs22hmddajhz1m,WaBAIADv,2020-0188,2020-11-15,09:01:14,09:32:05,NA,incomplete,206,shape,1,right,Red_Plus_Dots_1.jpg,Purple_Circle_Chess_1.jpg,Green_Plus_Stripes_3.jpg,left,124.21999999787658,false,high,NA,NA,NA,NA,NA,NA,NA,false
WaBAIADv,3ygyp13654mlicup3w1l36spsdqnrt,3z7vu45ip2uttg7lzs22hmddajhz1m,WaBAIADv,2020-0188,2020-11-15,09:01:14,09:32:05,NA,incomplete,207,shape,1,right,Red_Triangle_Chess_2.jpg,Green_Star_Stripes_2.jpg,Blue_Triangle_Dots_1.jpg,left,28.110000013839453,false,high,NA,NA,NA,NA,NA,NA,NA,false
WaBAIADv,3ygyp13654mlicup3w1l36spsdqnrt,3z7vu45ip2uttg7lzs22hmddajhz1m,WaBAIADv,2020-0188,2020-11-15,09:01:14,09:32:05,NA,incomplete,208,shape,1,left,Green_Triangle_Stripes_3.jpg,Purple_Triangle_Dots_4.jpg,Blue_Circle_Chess_3.jpg,left,78.34000000730157,true,high,NA,NA,NA,NA,NA,NA,NA,false
WaBAIADv,3ygyp13654mlicup3w1l36spsdqnrt,3z7vu45ip2uttg7lzs22hmddajhz1m,WaBAIADv,2020-0188,2020-11-15,09:01:14,09:32:05,NA,incomplete,209,shape,1,left,Blue_Star_Dots_2.jpg,Green_Star_Grid_1.jpg,Purple_Plus_Chess_2.jpg,right,72.71000003674999,false,high,NA,NA,NA,NA,NA,NA,NA,false
WaBAIADv,3ygyp13654mlicup3w1l36spsdqnrt,3z7vu45ip2uttg7lzs22hmddajhz1m,WaBAIADv,2020-0188,2020-11-15,09:01:14,09:32:05,NA,incomplete,210,shape,1,left,Purple_Triangle_Stripes_2.jpg,Red_Triangle_Chess_4.jpg,Blue_Plus_Dots_2.jpg,right,49.375000002328306,false,high,NA,NA,NA,NA,NA,NA,NA,false
WaBAIADv,3ygyp13654mlicup3w1l36spsdqnrt,3z7vu45ip2uttg7lzs22hmddajhz1m,WaBAIADv,2020-0188,2020-11-15,09:01:14,09:32:05,NA,incomplete,211,shape,1,left,Green_Star_Chess_2.jpg,Red_Star_Stripes_1.jpg,Blue_Triangle_Dots_2.jpg,right,256.37499999720603,false,high,NA,NA,NA,NA,NA,NA,NA,false
WaBAIADv,3ygyp13654mlicup3w1l36spsdqnrt,3z7vu45ip2uttg7lzs22hmddajhz1m,WaBAIADv,2020-0188,2020-11-15,09:01:14,09:32:05,NA,incomplete,212,shape,1,right,Purple_Circle_Grid_2.jpg,Blue_Plus_Stripes_2.jpg,Green_Circle_Chess_4.jpg,left,125.7249999907799,false,high,NA,NA,NA,NA,NA,NA,NA,false
WaBAIADv,3ygyp13654mlicup3w1l36spsdqnrt,3z7vu45ip2uttg7lzs22hmddajhz1m,WaBAIADv,2020-0188,2020-11-15,09:01:14,09:32:05,NA,incomplete,213,shape,0,left,Red_Star_Stripes_1.jpg,Purple_Star_Dots_2.jpg,Blue_Circle_Grid_1.jpg,left,1094.2100000102073,true,high,NA,NA,NA,NA,NA,NA,NA,false
WaBAIADv,3ygyp13654mlicup3w1l36spsdqnrt,3z7vu45ip2uttg7lzs22hmddajhz1m,WaBAIADv,2020-0188,2020-11-15,09:01:14,09:32:05,NA,incomplete,214,shape,1,right,Green_Circle_Stripes_2.jpg,Red_Plus_Grid_2.jpg,Purple_Circle_Chess_1.jpg,right,838.4000000078231,true,high,NA,NA,NA,NA,NA,NA,NA,false
WaBAIADv,3ygyp13654mlicup3w1l36spsdqnrt,3z7vu45ip2uttg7lzs22hmddajhz1m,WaBAIADv,2020-0188,2020-11-15,09:01:14,09:32:05,NA,incomplete,215,shape,1,left,Green_Circle_Dots_4.jpg,Blue_Circle_Chess_3.jpg,Red_Triangle_Grid_4.jpg,left,551.8099999753758,true,high,NA,NA,NA,NA,NA,NA,NA,false
WaBAIADv,3ygyp13654mlicup3w1l36spsdqnrt,3z7vu45ip2uttg7lzs22hmddajhz1m,WaBAIADv,2020-0188,2020-11-15,09:01:14,09:32:05,NA,incomplete,216,shape,1,left,Green_Plus_Dots_1.jpg,Blue_Plus_Stripes_2.jpg,Red_Circle_Chess_1.jpg,right,379.2799999937415,false,high,NA,NA,NA,NA,NA,NA,NA,false
WaBAIADv,3ygyp13654mlicup3w1l36spsdqnrt,3z7vu45ip2uttg7lzs22hmddajhz1m,WaBAIADv,2020-0188,2020-11-15,09:01:14,09:32:05,NA,incomplete,217,shape,1,left,Green_Circle_Grid_4.jpg,Red_Circle_Stripes_1.jpg,Purple_Star_Chess_4.jpg,right,309.5700000412762,false,high,NA,NA,NA,NA,NA,NA,NA,false
WaBAIADv,3ygyp13654mlicup3w1l36spsdqnrt,3z7vu45ip2uttg7lzs22hmddajhz1m,WaBAIADv,2020-0188,2020-11-15,09:01:14,09:32:05,NA,incomplete,218,shape,1,right,Purple_Star_Stripes_3.jpg,Green_Circle_Chess_3.jpg,Blue_Star_Grid_2.jpg,right,267.3499999800697,true,high,NA,NA,NA,NA,NA,NA,NA,false
WaBAIADv,3ygyp13654mlicup3w1l36spsdqnrt,3z7vu45ip2uttg7lzs22hmddajhz1m,WaBAIADv,2020-0188,2020-11-15,09:01:14,09:32:05,NA,incomplete,219,shape,1,right,Blue_Star_Chess_2.jpg,Green_Triangle_Grid_2.jpg,Purple_Star_Stripes_4.jpg,right,229.28999998839572,true,high,NA,NA,NA,NA,NA,NA,NA,false
WaBAIADv,3ygyp13654mlicup3w1l36spsdqnrt,3z7vu45ip2uttg7lzs22hmddajhz1m,WaBAIADv,2020-0188,2020-11-15,09:01:14,09:32:05,NA,incomplete,220,number,1,right,Purple_Triangle_Dots_1.jpg,Green_Triangle_Stripes_4.jpg,Red_Circle_Chess_1.jpg,left,290.694999974221,false,high,NA,NA,NA,NA,NA,NA,NA,false
WaBAIADv,3ygyp13654mlicup3w1l36spsdqnrt,3z7vu45ip2uttg7lzs22hmddajhz1m,WaBAIADv,2020-0188,2020-11-15,09:01:14,09:32:05,NA,incomplete,221,number,1,left,Red_Circle_Chess_3.jpg,Green_Plus_Dots_3.jpg,Purple_Circle_Stripes_4.jpg,left,275.1849999767728,true,high,NA,NA,NA,NA,NA,NA,NA,false
WaBAIADv,3ygyp13654mlicup3w1l36spsdqnrt,3z7vu45ip2uttg7lzs22hmddajhz1m,WaBAIADv,2020-0188,2020-11-15,09:01:14,09:32:05,NA,incomplete,222,number,1,left,Green_Plus_Stripes_4.jpg,Red_Star_Chess_4.jpg,Blue_Plus_Dots_1.jpg,right,155.38999997079372,false,high,NA,NA,NA,NA,NA,NA,NA,false
WaBAIADv,3ygyp13654mlicup3w1l36spsdqnrt,3z7vu45ip2uttg7lzs22hmddajhz1m,WaBAIADv,2020-0188,2020-11-15,09:01:14,09:32:05,NA,incomplete,223,number,1,right,Green_Plus_Chess_1.jpg,Red_Plus_Dots_3.jpg,Purple_Triangle_Stripes_1.jpg,left,373.4950000070967,false,high,NA,NA,NA,NA,NA,NA,NA,false
WaBAIADv,3ygyp13654mlicup3w1l36spsdqnrt,3z7vu45ip2uttg7lzs22hmddajhz1m,WaBAIADv,2020-0188,2020-11-15,09:01:14,09:32:05,NA,incomplete,224,number,0,left,Blue_Plus_Grid_3.jpg,Purple_Circle_Stripes_3.jpg,Red_Plus_Dots_1.jpg,left,99.44499999983236,true,high,NA,NA,NA,NA,NA,NA,NA,false
WaBAIADv,3ygyp13654mlicup3w1l36spsdqnrt,3z7vu45ip2uttg7lzs22hmddajhz1m,WaBAIADv,2020-0188,2020-11-15,09:01:14,09:32:05,NA,incomplete,225,number,1,left,Red_Triangle_Grid_1.jpg,Purple_Star_Chess_1.jpg,Blue_Triangle_Dots_4.jpg,left,369.0350000397302,true,high,NA,NA,NA,NA,NA,NA,NA,false
WaBAIADv,3ygyp13654mlicup3w1l36spsdqnrt,3z7vu45ip2uttg7lzs22hmddajhz1m,WaBAIADv,2020-0188,2020-11-15,09:01:14,09:32:05,NA,incomplete,226,number,0,right,Purple_Star_Grid_2.jpg,Red_Star_Stripes_4.jpg,Blue_Triangle_Chess_2.jpg,right,174.5550000341609,true,high,NA,NA,NA,NA,NA,NA,NA,false
WaBAIADv,3ygyp13654mlicup3w1l36spsdqnrt,3z7vu45ip2uttg7lzs22hmddajhz1m,WaBAIADv,2020-0188,2020-11-15,09:01:14,09:32:05,NA,incomplete,227,number,1,left,Green_Plus_Chess_4.jpg,Blue_Triangle_Stripes_4.jpg,Purple_Plus_Grid_3.jpg,right,281.14999999525025,false,high,NA,NA,NA,NA,NA,NA,NA,false
WaBAIADv,3ygyp13654mlicup3w1l36spsdqnrt,3z7vu45ip2uttg7lzs22hmddajhz1m,WaBAIADv,2020-0188,2020-11-15,09:01:14,09:32:05,NA,incomplete,228,number,1,left,Blue_Triangle_Dots_2.jpg,Green_Plus_Grid_2.jpg,Red_Triangle_Stripes_1.jpg,left,145.72500000940636,true,high,NA,NA,NA,NA,NA,NA,NA,false
WaBAIADv,3ygyp13654mlicup3w1l36spsdqnrt,3z7vu45ip2uttg7lzs22hmddajhz1m,WaBAIADv,2020-0188,2020-11-15,09:01:14,09:32:05,NA,incomplete,229,number,1,right,Red_Star_Dots_2.jpg,Blue_Star_Grid_4.jpg,Purple_Triangle_Stripes_2.jpg,left,283.6050000041723,false,high,NA,NA,NA,NA,NA,NA,NA,false
WaBAIADv,3ygyp13654mlicup3w1l36spsdqnrt,3z7vu45ip2uttg7lzs22hmddajhz1m,WaBAIADv,2020-0188,2020-11-15,09:01:14,09:32:05,NA,incomplete,230,number,0,left,Purple_Triangle_Chess_2.jpg,Blue_Plus_Dots_2.jpg,Green_Triangle_Stripes_1.jpg,left,77.10000005317852,true,high,NA,NA,NA,NA,NA,NA,NA,false
WaBAIADv,3ygyp13654mlicup3w1l36spsdqnrt,3z7vu45ip2uttg7lzs22hmddajhz1m,WaBAIADv,2020-0188,2020-11-15,09:01:14,09:32:05,NA,incomplete,231,number,1,right,Green_Triangle_Stripes_2.jpg,Red_Triangle_Dots_4.jpg,Blue_Circle_Grid_2.jpg,right,138.840000028722,true,high,NA,NA,NA,NA,NA,NA,NA,false
WaBAIADv,3ygyp13654mlicup3w1l36spsdqnrt,3z7vu45ip2uttg7lzs22hmddajhz1m,WaBAIADv,2020-0188,2020-11-15,09:01:14,09:32:05,NA,incomplete,232,number,1,right,Blue_Star_Grid_3.jpg,Red_Star_Stripes_2.jpg,Green_Triangle_Chess_3.jpg,right,38.635000004433095,true,high,NA,NA,NA,NA,NA,NA,NA,false
WaBAIADv,3ygyp13654mlicup3w1l36spsdqnrt,3z7vu45ip2uttg7lzs22hmddajhz1m,WaBAIADv,2020-0188,2020-11-15,09:01:14,09:32:05,NA,incomplete,233,number,1,right,Red_Circle_Grid_2.jpg,Blue_Circle_Chess_4.jpg,Purple_Star_Stripes_2.jpg,left,103.36499998811632,false,high,NA,NA,NA,NA,NA,NA,NA,false
WaBAIADv,3ygyp13654mlicup3w1l36spsdqnrt,3z7vu45ip2uttg7lzs22hmddajhz1m,WaBAIADv,2020-0188,2020-11-15,09:01:14,09:32:05,NA,incomplete,234,number,1,right,Blue_Triangle_Grid_1.jpg,Purple_Triangle_Dots_3.jpg,Red_Circle_Stripes_1.jpg,right,90.21499997470528,true,high,NA,NA,NA,NA,NA,NA,NA,false
WaBAIADv,3ygyp13654mlicup3w1l36spsdqnrt,3z7vu45ip2uttg7lzs22hmddajhz1m,WaBAIADv,2020-0188,2020-11-15,09:01:14,09:32:05,NA,incomplete,235,number,0,right,Blue_Plus_Dots_4.jpg,Purple_Plus_Grid_2.jpg,Red_Circle_Chess_4.jpg,right,326.7700000433251,true,high,NA,NA,NA,NA,NA,NA,NA,false
WaBAIADv,3ygyp13654mlicup3w1l36spsdqnrt,3z7vu45ip2uttg7lzs22hmddajhz1m,WaBAIADv,2020-0188,2020-11-15,09:01:14,09:32:05,NA,incomplete,236,number,1,left,Green_Plus_Chess_1.jpg,Blue_Star_Stripes_1.jpg,Red_Plus_Grid_2.jpg,right,237.2099999920465,false,high,NA,NA,NA,NA,NA,NA,NA,false
WaBAIADv,3ygyp13654mlicup3w1l36spsdqnrt,3z7vu45ip2uttg7lzs22hmddajhz1m,WaBAIADv,2020-0188,2020-11-15,09:01:14,09:32:05,NA,incomplete,237,number,1,left,Green_Triangle_Dots_1.jpg,Purple_Star_Chess_1.jpg,Red_Triangle_Grid_4.jpg,right,360.5700000189245,false,high,NA,NA,NA,NA,NA,NA,NA,false
WaBAIADv,3ygyp13654mlicup3w1l36spsdqnrt,3z7vu45ip2uttg7lzs22hmddajhz1m,WaBAIADv,2020-0188,2020-11-15,09:01:14,09:32:05,NA,incomplete,238,number,1,left,Purple_Triangle_Dots_1.jpg,Blue_Circle_Chess_1.jpg,Green_Triangle_Grid_2.jpg,left,445.43500000145286,true,high,NA,NA,NA,NA,NA,NA,NA,false
WaBAIADv,3ygyp13654mlicup3w1l36spsdqnrt,3z7vu45ip2uttg7lzs22hmddajhz1m,WaBAIADv,2020-0188,2020-11-15,09:01:14,09:32:05,NA,incomplete,239,number,1,left,Purple_Circle_Dots_4.jpg,Red_Star_Grid_4.jpg,Blue_Circle_Chess_1.jpg,left,117.94000002555549,true,high,NA,NA,NA,NA,NA,NA,NA,false
WaBAIADv,3ygyp13654mlicup3w1l36spsdqnrt,3z7vu45ip2uttg7lzs22hmddajhz1m,WaBAIADv,2020-0188,2020-11-15,09:01:14,09:32:05,1808561.9699999806,1852100.69500003,NA,NA,NA,NA,NA,NA,NA,NA,NA,NA,NA,28,White/Caucasian,Female,wite\\\,no,yes,no,undefined
