workerId,hitId,assignmentId,subject,studyid,exp_date,exp_start,exp_end,time_start,time_end,trial,type,reward_validity,answer,image_top,image_left,image_right,response,response_time,response_acc,volatility,age,race,gender,ethnicity,color,vision,neuro,practice
pfDr4H2V,36818z1kw6qmfrfyj2vkz259guma30,3zazr5xv05vdgjhjfprmyiw3ehdzch,pfDr4H2V,2020-0188,2020-05-08,11:59:56,12:14:02,NA,incomplete,0,shape,0,left,Blue_Triangle_Dots_2.jpg,Red_Triangle_Stripes_3.jpg,Green_Plus_Chess_2.jpg,right,1589.549999916926,false,NA,NA,NA,NA,NA,NA,NA,NA,true
pfDr4H2V,36818z1kw6qmfrfyj2vkz259guma30,3zazr5xv05vdgjhjfprmyiw3ehdzch,pfDr4H2V,2020-0188,2020-05-08,11:59:56,12:14:02,NA,incomplete,1,shape,0,right,Green_Circle_Stripes_1.jpg,Purple_Plus_Dots_1.jpg,Blue_Circle_Grid_3.jpg,right,879.1200001724064,true,NA,NA,NA,NA,NA,NA,NA,NA,true
pfDr4H2V,36818z1kw6qmfrfyj2vkz259guma30,3zazr5xv05vdgjhjfprmyiw3ehdzch,pfDr4H2V,2020-0188,2020-05-08,11:59:56,12:14:02,NA,incomplete,2,shape,1,left,Blue_Plus_Stripes_3.jpg,Red_Plus_Dots_1.jpg,Purple_Triangle_Grid_3.jpg,left,918.7599997967482,true,NA,NA,NA,NA,NA,NA,NA,NA,true
pfDr4H2V,36818z1kw6qmfrfyj2vkz259guma30,3zazr5xv05vdgjhjfprmyiw3ehdzch,pfDr4H2V,2020-0188,2020-05-08,11:59:56,12:14:02,NA,incomplete,3,shape,1,left,Blue_Triangle_Grid_3.jpg,Green_Triangle_Dots_1.jpg,Red_Star_Chess_3.jpg,left,828.9699999149889,true,NA,NA,NA,NA,NA,NA,NA,NA,true
pfDr4H2V,36818z1kw6qmfrfyj2vkz259guma30,3zazr5xv05vdgjhjfprmyiw3ehdzch,pfDr4H2V,2020-0188,2020-05-08,11:59:56,12:14:02,NA,incomplete,4,shape,1,left,Red_Plus_Dots_2.jpg,Green_Plus_Chess_3.jpg,Blue_Triangle_Stripes_2.jpg,left,751.9199999514967,true,NA,NA,NA,NA,NA,NA,NA,NA,true
pfDr4H2V,36818z1kw6qmfrfyj2vkz259guma30,3zazr5xv05vdgjhjfprmyiw3ehdzch,pfDr4H2V,2020-0188,2020-05-08,11:59:56,12:14:02,NA,incomplete,5,shape,1,left,Purple_Triangle_Chess_2.jpg,Blue_Triangle_Grid_3.jpg,Red_Star_Stripes_2.jpg,left,762.6049998216331,true,NA,NA,NA,NA,NA,NA,NA,NA,true
pfDr4H2V,36818z1kw6qmfrfyj2vkz259guma30,3zazr5xv05vdgjhjfprmyiw3ehdzch,pfDr4H2V,2020-0188,2020-05-08,11:59:56,12:14:02,NA,incomplete,6,shape,0,right,Purple_Star_Grid_4.jpg,Green_Triangle_Dots_4.jpg,Red_Star_Stripes_2.jpg,right,939.3999997992069,true,NA,NA,NA,NA,NA,NA,NA,NA,true
pfDr4H2V,36818z1kw6qmfrfyj2vkz259guma30,3zazr5xv05vdgjhjfprmyiw3ehdzch,pfDr4H2V,2020-0188,2020-05-08,11:59:56,12:14:02,NA,incomplete,7,shape,1,left,Green_Plus_Dots_1.jpg,Blue_Plus_Stripes_2.jpg,Red_Triangle_Chess_1.jpg,left,785.440000006929,true,NA,NA,NA,NA,NA,NA,NA,NA,true
pfDr4H2V,36818z1kw6qmfrfyj2vkz259guma30,3zazr5xv05vdgjhjfprmyiw3ehdzch,pfDr4H2V,2020-0188,2020-05-08,11:59:56,12:14:02,NA,incomplete,8,shape,1,right,Green_Circle_Stripes_1.jpg,Blue_Plus_Chess_1.jpg,Purple_Circle_Grid_3.jpg,right,723.024999955669,true,NA,NA,NA,NA,NA,NA,NA,NA,true
pfDr4H2V,36818z1kw6qmfrfyj2vkz259guma30,3zazr5xv05vdgjhjfprmyiw3ehdzch,pfDr4H2V,2020-0188,2020-05-08,11:59:56,12:14:02,NA,incomplete,9,shape,1,left,Red_Plus_Chess_1.jpg,Purple_Plus_Dots_4.jpg,Blue_Star_Grid_1.jpg,left,671.4649999048561,true,NA,NA,NA,NA,NA,NA,NA,NA,true
pfDr4H2V,36818z1kw6qmfrfyj2vkz259guma30,3zazr5xv05vdgjhjfprmyiw3ehdzch,pfDr4H2V,2020-0188,2020-05-08,11:59:56,12:14:02,NA,incomplete,10,shape,1,right,Green_Plus_Dots_4.jpg,Blue_Triangle_Chess_4.jpg,Red_Plus_Stripes_2.jpg,right,841.3549999240786,true,NA,NA,NA,NA,NA,NA,NA,NA,true
pfDr4H2V,36818z1kw6qmfrfyj2vkz259guma30,3zazr5xv05vdgjhjfprmyiw3ehdzch,pfDr4H2V,2020-0188,2020-05-08,11:59:56,12:14:02,NA,incomplete,11,shape,1,left,Purple_Circle_Chess_4.jpg,Blue_Circle_Dots_2.jpg,Green_Star_Grid_4.jpg,left,685.9400002285838,true,NA,NA,NA,NA,NA,NA,NA,NA,true
pfDr4H2V,36818z1kw6qmfrfyj2vkz259guma30,3zazr5xv05vdgjhjfprmyiw3ehdzch,pfDr4H2V,2020-0188,2020-05-08,11:59:56,12:14:02,NA,incomplete,12,shape,0,left,Red_Triangle_Chess_4.jpg,Purple_Triangle_Grid_2.jpg,Green_Star_Dots_4.jpg,left,722.2499998752028,true,NA,NA,NA,NA,NA,NA,NA,NA,true
pfDr4H2V,36818z1kw6qmfrfyj2vkz259guma30,3zazr5xv05vdgjhjfprmyiw3ehdzch,pfDr4H2V,2020-0188,2020-05-08,11:59:56,12:14:02,NA,incomplete,13,shape,1,right,Purple_Circle_Grid_2.jpg,Green_Triangle_Chess_2.jpg,Red_Circle_Stripes_1.jpg,right,799.1100000217557,true,NA,NA,NA,NA,NA,NA,NA,NA,true
pfDr4H2V,36818z1kw6qmfrfyj2vkz259guma30,3zazr5xv05vdgjhjfprmyiw3ehdzch,pfDr4H2V,2020-0188,2020-05-08,11:59:56,12:14:02,NA,incomplete,14,shape,0,left,Red_Circle_Dots_1.jpg,Green_Circle_Stripes_4.jpg,Purple_Star_Grid_1.jpg,left,602.5849999859929,true,NA,NA,NA,NA,NA,NA,NA,NA,true
pfDr4H2V,36818z1kw6qmfrfyj2vkz259guma30,3zazr5xv05vdgjhjfprmyiw3ehdzch,pfDr4H2V,2020-0188,2020-05-08,11:59:56,12:14:02,NA,incomplete,15,shape,1,right,Blue_Star_Chess_2.jpg,Red_Triangle_Grid_2.jpg,Purple_Star_Stripes_3.jpg,right,870.9199998993427,true,NA,NA,NA,NA,NA,NA,NA,NA,true
pfDr4H2V,36818z1kw6qmfrfyj2vkz259guma30,3zazr5xv05vdgjhjfprmyiw3ehdzch,pfDr4H2V,2020-0188,2020-05-08,11:59:56,12:14:02,NA,incomplete,16,shape,1,left,Red_Circle_Dots_4.jpg,Green_Circle_Chess_1.jpg,Blue_Plus_Stripes_4.jpg,left,623.4150000382215,true,NA,NA,NA,NA,NA,NA,NA,NA,true
pfDr4H2V,36818z1kw6qmfrfyj2vkz259guma30,3zazr5xv05vdgjhjfprmyiw3ehdzch,pfDr4H2V,2020-0188,2020-05-08,11:59:56,12:14:02,NA,incomplete,17,shape,1,left,Green_Circle_Stripes_1.jpg,Blue_Circle_Grid_3.jpg,Purple_Triangle_Chess_1.jpg,left,636.5049998275936,true,NA,NA,NA,NA,NA,NA,NA,NA,true
pfDr4H2V,36818z1kw6qmfrfyj2vkz259guma30,3zazr5xv05vdgjhjfprmyiw3ehdzch,pfDr4H2V,2020-0188,2020-05-08,11:59:56,12:14:02,NA,incomplete,18,shape,1,right,Blue_Plus_Dots_3.jpg,Red_Triangle_Stripes_3.jpg,Green_Plus_Grid_4.jpg,right,742.7699998952448,true,NA,NA,NA,NA,NA,NA,NA,NA,true
pfDr4H2V,36818z1kw6qmfrfyj2vkz259guma30,3zazr5xv05vdgjhjfprmyiw3ehdzch,pfDr4H2V,2020-0188,2020-05-08,11:59:56,12:14:02,NA,incomplete,19,shape,1,right,Purple_Plus_Chess_3.jpg,Green_Triangle_Stripes_3.jpg,Red_Plus_Grid_1.jpg,right,849.9200001824647,true,NA,NA,NA,NA,NA,NA,NA,NA,true
pfDr4H2V,36818z1kw6qmfrfyj2vkz259guma30,3zazr5xv05vdgjhjfprmyiw3ehdzch,pfDr4H2V,2020-0188,2020-05-08,11:59:56,12:14:02,NA,incomplete,20,number,1,right,Blue_Circle_Chess_1.jpg,Red_Circle_Grid_3.jpg,Green_Triangle_Stripes_1.jpg,left,1173.6049999017268,false,NA,NA,NA,NA,NA,NA,NA,NA,true
pfDr4H2V,36818z1kw6qmfrfyj2vkz259guma30,3zazr5xv05vdgjhjfprmyiw3ehdzch,pfDr4H2V,2020-0188,2020-05-08,11:59:56,12:14:02,NA,incomplete,21,number,1,left,Purple_Plus_Grid_1.jpg,Blue_Star_Dots_1.jpg,Red_Plus_Stripes_3.jpg,left,1162.4399998690933,true,NA,NA,NA,NA,NA,NA,NA,NA,true
pfDr4H2V,36818z1kw6qmfrfyj2vkz259guma30,3zazr5xv05vdgjhjfprmyiw3ehdzch,pfDr4H2V,2020-0188,2020-05-08,11:59:56,12:14:02,NA,incomplete,22,number,1,right,Red_Star_Grid_4.jpg,Green_Star_Dots_3.jpg,Blue_Plus_Stripes_4.jpg,right,703.9499999955297,true,NA,NA,NA,NA,NA,NA,NA,NA,true
pfDr4H2V,36818z1kw6qmfrfyj2vkz259guma30,3zazr5xv05vdgjhjfprmyiw3ehdzch,pfDr4H2V,2020-0188,2020-05-08,11:59:56,12:14:02,NA,incomplete,23,number,1,right,Blue_Triangle_Chess_2.jpg,Purple_Triangle_Stripes_4.jpg,Green_Plus_Dots_2.jpg,right,1058.79499996081,true,NA,NA,NA,NA,NA,NA,NA,NA,true
pfDr4H2V,36818z1kw6qmfrfyj2vkz259guma30,3zazr5xv05vdgjhjfprmyiw3ehdzch,pfDr4H2V,2020-0188,2020-05-08,11:59:56,12:14:02,NA,incomplete,24,number,1,right,Blue_Plus_Grid_2.jpg,Green_Plus_Stripes_3.jpg,Purple_Triangle_Dots_2.jpg,right,944.4200000725687,true,NA,NA,NA,NA,NA,NA,NA,NA,true
pfDr4H2V,36818z1kw6qmfrfyj2vkz259guma30,3zazr5xv05vdgjhjfprmyiw3ehdzch,pfDr4H2V,2020-0188,2020-05-08,11:59:56,12:14:02,NA,incomplete,25,number,1,left,Purple_Triangle_Chess_3.jpg,Green_Circle_Stripes_3.jpg,Red_Triangle_Dots_2.jpg,left,724.3550000712276,true,NA,NA,NA,NA,NA,NA,NA,NA,true
pfDr4H2V,36818z1kw6qmfrfyj2vkz259guma30,3zazr5xv05vdgjhjfprmyiw3ehdzch,pfDr4H2V,2020-0188,2020-05-08,11:59:56,12:14:02,NA,incomplete,26,number,1,left,Blue_Triangle_Stripes_3.jpg,Purple_Circle_Dots_3.jpg,Green_Triangle_Chess_4.jpg,left,977.8599999845028,true,NA,NA,NA,NA,NA,NA,NA,NA,true
pfDr4H2V,36818z1kw6qmfrfyj2vkz259guma30,3zazr5xv05vdgjhjfprmyiw3ehdzch,pfDr4H2V,2020-0188,2020-05-08,11:59:56,12:14:02,NA,incomplete,27,number,1,right,Blue_Plus_Grid_4.jpg,Red_Plus_Chess_2.jpg,Purple_Star_Dots_4.jpg,right,976.8949998542666,true,NA,NA,NA,NA,NA,NA,NA,NA,true
pfDr4H2V,36818z1kw6qmfrfyj2vkz259guma30,3zazr5xv05vdgjhjfprmyiw3ehdzch,pfDr4H2V,2020-0188,2020-05-08,11:59:56,12:14:02,NA,incomplete,28,number,1,right,Purple_Triangle_Dots_2.jpg,Green_Triangle_Chess_1.jpg,Blue_Plus_Stripes_2.jpg,right,764.1600000206381,true,NA,NA,NA,NA,NA,NA,NA,NA,true
pfDr4H2V,36818z1kw6qmfrfyj2vkz259guma30,3zazr5xv05vdgjhjfprmyiw3ehdzch,pfDr4H2V,2020-0188,2020-05-08,11:59:56,12:14:02,NA,incomplete,29,number,1,right,Green_Circle_Grid_4.jpg,Purple_Circle_Chess_1.jpg,Red_Plus_Stripes_4.jpg,right,756.6599999554455,true,NA,NA,NA,NA,NA,NA,NA,NA,true
pfDr4H2V,36818z1kw6qmfrfyj2vkz259guma30,3zazr5xv05vdgjhjfprmyiw3ehdzch,pfDr4H2V,2020-0188,2020-05-08,11:59:56,12:14:02,NA,incomplete,30,number,0,left,Green_Plus_Grid_1.jpg,Purple_Star_Chess_1.jpg,Blue_Plus_Dots_3.jpg,left,1152.8650000691414,true,NA,NA,NA,NA,NA,NA,NA,NA,true
pfDr4H2V,36818z1kw6qmfrfyj2vkz259guma30,3zazr5xv05vdgjhjfprmyiw3ehdzch,pfDr4H2V,2020-0188,2020-05-08,11:59:56,12:14:02,NA,incomplete,31,number,0,left,Purple_Star_Dots_4.jpg,Blue_Plus_Grid_4.jpg,Red_Star_Stripes_2.jpg,left,683.4249999374151,true,NA,NA,NA,NA,NA,NA,NA,NA,true
pfDr4H2V,36818z1kw6qmfrfyj2vkz259guma30,3zazr5xv05vdgjhjfprmyiw3ehdzch,pfDr4H2V,2020-0188,2020-05-08,11:59:56,12:14:02,NA,incomplete,32,number,1,left,Purple_Plus_Chess_3.jpg,Green_Star_Stripes_3.jpg,Blue_Plus_Grid_4.jpg,left,967.3350001685321,true,NA,NA,NA,NA,NA,NA,NA,NA,true
pfDr4H2V,36818z1kw6qmfrfyj2vkz259guma30,3zazr5xv05vdgjhjfprmyiw3ehdzch,pfDr4H2V,2020-0188,2020-05-08,11:59:56,12:14:02,NA,incomplete,33,number,1,left,Red_Triangle_Stripes_3.jpg,Purple_Circle_Chess_3.jpg,Blue_Triangle_Grid_1.jpg,left,687.0450000278652,true,NA,NA,NA,NA,NA,NA,NA,NA,true
pfDr4H2V,36818z1kw6qmfrfyj2vkz259guma30,3zazr5xv05vdgjhjfprmyiw3ehdzch,pfDr4H2V,2020-0188,2020-05-08,11:59:56,12:14:02,NA,incomplete,34,number,1,left,Red_Star_Chess_2.jpg,Blue_Triangle_Grid_2.jpg,Purple_Star_Dots_1.jpg,left,750.1749999355525,true,NA,NA,NA,NA,NA,NA,NA,NA,true
pfDr4H2V,36818z1kw6qmfrfyj2vkz259guma30,3zazr5xv05vdgjhjfprmyiw3ehdzch,pfDr4H2V,2020-0188,2020-05-08,11:59:56,12:14:02,NA,incomplete,35,number,1,left,Green_Star_Chess_2.jpg,Red_Plus_Grid_2.jpg,Blue_Star_Dots_3.jpg,left,836.0599998850375,true,NA,NA,NA,NA,NA,NA,NA,NA,true
pfDr4H2V,36818z1kw6qmfrfyj2vkz259guma30,3zazr5xv05vdgjhjfprmyiw3ehdzch,pfDr4H2V,2020-0188,2020-05-08,11:59:56,12:14:02,NA,incomplete,36,number,1,right,Purple_Circle_Stripes_3.jpg,Red_Circle_Chess_4.jpg,Green_Star_Dots_3.jpg,right,689.6249998826534,true,NA,NA,NA,NA,NA,NA,NA,NA,true
pfDr4H2V,36818z1kw6qmfrfyj2vkz259guma30,3zazr5xv05vdgjhjfprmyiw3ehdzch,pfDr4H2V,2020-0188,2020-05-08,11:59:56,12:14:02,NA,incomplete,37,number,1,left,Red_Circle_Grid_3.jpg,Green_Star_Dots_3.jpg,Purple_Circle_Stripes_2.jpg,left,679.5299998484552,true,NA,NA,NA,NA,NA,NA,NA,NA,true
pfDr4H2V,36818z1kw6qmfrfyj2vkz259guma30,3zazr5xv05vdgjhjfprmyiw3ehdzch,pfDr4H2V,2020-0188,2020-05-08,11:59:56,12:14:02,NA,incomplete,38,number,1,right,Purple_Plus_Dots_4.jpg,Blue_Plus_Grid_2.jpg,Green_Triangle_Stripes_4.jpg,right,740.639999974519,true,NA,NA,NA,NA,NA,NA,NA,NA,true
pfDr4H2V,36818z1kw6qmfrfyj2vkz259guma30,3zazr5xv05vdgjhjfprmyiw3ehdzch,pfDr4H2V,2020-0188,2020-05-08,11:59:56,12:14:02,NA,incomplete,39,number,0,right,Purple_Plus_Chess_3.jpg,Blue_Plus_Grid_4.jpg,Green_Circle_Stripes_3.jpg,right,748.6849999986589,true,NA,NA,NA,NA,NA,NA,NA,NA,true
pfDr4H2V,36818z1kw6qmfrfyj2vkz259guma30,3zazr5xv05vdgjhjfprmyiw3ehdzch,pfDr4H2V,2020-0188,2020-05-08,11:59:56,12:14:02,NA,incomplete,0,shape,0,right,Red_Plus_Dots_3.jpg,Green_Star_Chess_3.jpg,Purple_Plus_Stripes_4.jpg,left,1166.525000007823,false,low,NA,NA,NA,NA,NA,NA,NA,false
pfDr4H2V,36818z1kw6qmfrfyj2vkz259guma30,3zazr5xv05vdgjhjfprmyiw3ehdzch,pfDr4H2V,2020-0188,2020-05-08,11:59:56,12:14:02,NA,incomplete,1,shape,1,right,Purple_Circle_Dots_3.jpg,Red_Triangle_Grid_3.jpg,Green_Circle_Stripes_1.jpg,left,759.1699999757111,false,low,NA,NA,NA,NA,NA,NA,NA,false
pfDr4H2V,36818z1kw6qmfrfyj2vkz259guma30,3zazr5xv05vdgjhjfprmyiw3ehdzch,pfDr4H2V,2020-0188,2020-05-08,11:59:56,12:14:02,NA,incomplete,2,shape,0,left,Red_Triangle_Stripes_2.jpg,Green_Triangle_Chess_3.jpg,Purple_Plus_Grid_2.jpg,right,970.2800000086427,false,low,NA,NA,NA,NA,NA,NA,NA,false
pfDr4H2V,36818z1kw6qmfrfyj2vkz259guma30,3zazr5xv05vdgjhjfprmyiw3ehdzch,pfDr4H2V,2020-0188,2020-05-08,11:59:56,12:14:02,NA,incomplete,3,shape,1,left,Green_Star_Stripes_4.jpg,Red_Star_Dots_1.jpg,Blue_Circle_Grid_4.jpg,right,887.3799999710172,false,low,NA,NA,NA,NA,NA,NA,NA,false
pfDr4H2V,36818z1kw6qmfrfyj2vkz259guma30,3zazr5xv05vdgjhjfprmyiw3ehdzch,pfDr4H2V,2020-0188,2020-05-08,11:59:56,12:14:02,NA,incomplete,4,shape,1,left,Blue_Triangle_Stripes_1.jpg,Red_Triangle_Dots_4.jpg,Green_Circle_Chess_1.jpg,right,928.5850001033396,false,low,NA,NA,NA,NA,NA,NA,NA,false
pfDr4H2V,36818z1kw6qmfrfyj2vkz259guma30,3zazr5xv05vdgjhjfprmyiw3ehdzch,pfDr4H2V,2020-0188,2020-05-08,11:59:56,12:14:02,NA,incomplete,5,shape,1,left,Green_Triangle_Dots_4.jpg,Blue_Triangle_Stripes_2.jpg,Red_Star_Chess_4.jpg,left,851.3700000476092,true,low,NA,NA,NA,NA,NA,NA,NA,false
pfDr4H2V,36818z1kw6qmfrfyj2vkz259guma30,3zazr5xv05vdgjhjfprmyiw3ehdzch,pfDr4H2V,2020-0188,2020-05-08,11:59:56,12:14:02,NA,incomplete,6,shape,1,left,Purple_Circle_Chess_2.jpg,Green_Circle_Grid_1.jpg,Blue_Star_Dots_2.jpg,left,670.4100000206381,true,low,NA,NA,NA,NA,NA,NA,NA,false
pfDr4H2V,36818z1kw6qmfrfyj2vkz259guma30,3zazr5xv05vdgjhjfprmyiw3ehdzch,pfDr4H2V,2020-0188,2020-05-08,11:59:56,12:14:02,NA,incomplete,7,shape,0,right,Purple_Triangle_Stripes_4.jpg,Green_Plus_Chess_4.jpg,Blue_Triangle_Grid_3.jpg,right,1039.2850001808256,true,low,NA,NA,NA,NA,NA,NA,NA,false
pfDr4H2V,36818z1kw6qmfrfyj2vkz259guma30,3zazr5xv05vdgjhjfprmyiw3ehdzch,pfDr4H2V,2020-0188,2020-05-08,11:59:56,12:14:02,NA,incomplete,8,shape,1,left,Purple_Plus_Grid_1.jpg,Blue_Plus_Dots_3.jpg,Red_Triangle_Chess_1.jpg,right,765.6349998433143,false,low,NA,NA,NA,NA,NA,NA,NA,false
pfDr4H2V,36818z1kw6qmfrfyj2vkz259guma30,3zazr5xv05vdgjhjfprmyiw3ehdzch,pfDr4H2V,2020-0188,2020-05-08,11:59:56,12:14:02,NA,incomplete,9,shape,1,left,Green_Circle_Chess_1.jpg,Purple_Circle_Grid_4.jpg,Red_Triangle_Stripes_1.jpg,left,770.6500000786036,true,low,NA,NA,NA,NA,NA,NA,NA,false
pfDr4H2V,36818z1kw6qmfrfyj2vkz259guma30,3zazr5xv05vdgjhjfprmyiw3ehdzch,pfDr4H2V,2020-0188,2020-05-08,11:59:56,12:14:02,NA,incomplete,10,shape,1,right,Purple_Circle_Dots_1.jpg,Blue_Plus_Chess_1.jpg,Green_Circle_Stripes_3.jpg,right,723.0449998751283,true,low,NA,NA,NA,NA,NA,NA,NA,false
pfDr4H2V,36818z1kw6qmfrfyj2vkz259guma30,3zazr5xv05vdgjhjfprmyiw3ehdzch,pfDr4H2V,2020-0188,2020-05-08,11:59:56,12:14:02,NA,incomplete,11,shape,1,left,Red_Star_Dots_2.jpg,Green_Star_Grid_3.jpg,Purple_Triangle_Chess_2.jpg,left,956.705000018701,true,low,NA,NA,NA,NA,NA,NA,NA,false
pfDr4H2V,36818z1kw6qmfrfyj2vkz259guma30,3zazr5xv05vdgjhjfprmyiw3ehdzch,pfDr4H2V,2020-0188,2020-05-08,11:59:56,12:14:02,NA,incomplete,12,shape,1,right,Blue_Triangle_Grid_2.jpg,Green_Star_Dots_2.jpg,Red_Triangle_Chess_4.jpg,right,739.3350000493228,true,low,NA,NA,NA,NA,NA,NA,NA,false
pfDr4H2V,36818z1kw6qmfrfyj2vkz259guma30,3zazr5xv05vdgjhjfprmyiw3ehdzch,pfDr4H2V,2020-0188,2020-05-08,11:59:56,12:14:02,NA,incomplete,13,shape,1,right,Red_Plus_Dots_1.jpg,Purple_Circle_Stripes_1.jpg,Green_Plus_Grid_4.jpg,right,792.939999839291,true,low,NA,NA,NA,NA,NA,NA,NA,false
pfDr4H2V,36818z1kw6qmfrfyj2vkz259guma30,3zazr5xv05vdgjhjfprmyiw3ehdzch,pfDr4H2V,2020-0188,2020-05-08,11:59:56,12:14:02,NA,incomplete,14,shape,1,right,Red_Star_Chess_4.jpg,Purple_Circle_Stripes_4.jpg,Blue_Star_Dots_2.jpg,right,729.3550001922995,true,low,NA,NA,NA,NA,NA,NA,NA,false
pfDr4H2V,36818z1kw6qmfrfyj2vkz259guma30,3zazr5xv05vdgjhjfprmyiw3ehdzch,pfDr4H2V,2020-0188,2020-05-08,11:59:56,12:14:02,NA,incomplete,15,shape,0,right,Red_Plus_Chess_1.jpg,Green_Circle_Grid_1.jpg,Purple_Plus_Stripes_2.jpg,right,707.2099999058992,true,low,NA,NA,NA,NA,NA,NA,NA,false
pfDr4H2V,36818z1kw6qmfrfyj2vkz259guma30,3zazr5xv05vdgjhjfprmyiw3ehdzch,pfDr4H2V,2020-0188,2020-05-08,11:59:56,12:14:02,NA,incomplete,16,shape,1,right,Blue_Plus_Chess_3.jpg,Red_Circle_Grid_3.jpg,Green_Plus_Dots_4.jpg,right,824.4900000281632,true,low,NA,NA,NA,NA,NA,NA,NA,false
pfDr4H2V,36818z1kw6qmfrfyj2vkz259guma30,3zazr5xv05vdgjhjfprmyiw3ehdzch,pfDr4H2V,2020-0188,2020-05-08,11:59:56,12:14:02,NA,incomplete,17,shape,1,right,Blue_Triangle_Chess_4.jpg,Purple_Star_Stripes_4.jpg,Red_Triangle_Grid_2.jpg,right,756.264999974519,true,low,NA,NA,NA,NA,NA,NA,NA,false
pfDr4H2V,36818z1kw6qmfrfyj2vkz259guma30,3zazr5xv05vdgjhjfprmyiw3ehdzch,pfDr4H2V,2020-0188,2020-05-08,11:59:56,12:14:02,NA,incomplete,18,shape,1,left,Blue_Star_Grid_3.jpg,Red_Star_Chess_2.jpg,Purple_Triangle_Dots_3.jpg,left,701.3250000309199,true,low,NA,NA,NA,NA,NA,NA,NA,false
pfDr4H2V,36818z1kw6qmfrfyj2vkz259guma30,3zazr5xv05vdgjhjfprmyiw3ehdzch,pfDr4H2V,2020-0188,2020-05-08,11:59:56,12:14:02,NA,incomplete,19,shape,1,right,Purple_Star_Dots_1.jpg,Red_Circle_Grid_1.jpg,Blue_Star_Chess_2.jpg,right,612.1699998620898,true,low,NA,NA,NA,NA,NA,NA,NA,false
pfDr4H2V,36818z1kw6qmfrfyj2vkz259guma30,3zazr5xv05vdgjhjfprmyiw3ehdzch,pfDr4H2V,2020-0188,2020-05-08,11:59:56,12:14:02,NA,incomplete,20,shape,1,right,Red_Triangle_Chess_1.jpg,Purple_Star_Dots_1.jpg,Green_Triangle_Grid_3.jpg,right,640.4999999795109,true,low,NA,NA,NA,NA,NA,NA,NA,false
pfDr4H2V,36818z1kw6qmfrfyj2vkz259guma30,3zazr5xv05vdgjhjfprmyiw3ehdzch,pfDr4H2V,2020-0188,2020-05-08,11:59:56,12:14:02,NA,incomplete,21,shape,1,right,Green_Plus_Dots_2.jpg,Red_Circle_Grid_2.jpg,Blue_Plus_Chess_1.jpg,right,682.5049999170005,true,low,NA,NA,NA,NA,NA,NA,NA,false
pfDr4H2V,36818z1kw6qmfrfyj2vkz259guma30,3zazr5xv05vdgjhjfprmyiw3ehdzch,pfDr4H2V,2020-0188,2020-05-08,11:59:56,12:14:02,NA,incomplete,22,shape,1,right,Purple_Triangle_Stripes_4.jpg,Blue_Plus_Grid_4.jpg,Red_Triangle_Dots_2.jpg,right,815.015000058338,true,low,NA,NA,NA,NA,NA,NA,NA,false
pfDr4H2V,36818z1kw6qmfrfyj2vkz259guma30,3zazr5xv05vdgjhjfprmyiw3ehdzch,pfDr4H2V,2020-0188,2020-05-08,11:59:56,12:14:02,NA,incomplete,23,shape,1,left,Green_Circle_Dots_2.jpg,Purple_Circle_Stripes_1.jpg,Red_Triangle_Grid_2.jpg,left,768.8500001095235,true,low,NA,NA,NA,NA,NA,NA,NA,false
pfDr4H2V,36818z1kw6qmfrfyj2vkz259guma30,3zazr5xv05vdgjhjfprmyiw3ehdzch,pfDr4H2V,2020-0188,2020-05-08,11:59:56,12:14:02,NA,incomplete,24,shape,1,left,Green_Circle_Stripes_2.jpg,Purple_Circle_Chess_3.jpg,Red_Triangle_Dots_2.jpg,left,720.5999998841435,true,low,NA,NA,NA,NA,NA,NA,NA,false
pfDr4H2V,36818z1kw6qmfrfyj2vkz259guma30,3zazr5xv05vdgjhjfprmyiw3ehdzch,pfDr4H2V,2020-0188,2020-05-08,11:59:56,12:14:02,NA,incomplete,25,shape,1,right,Purple_Triangle_Grid_1.jpg,Red_Circle_Dots_1.jpg,Green_Triangle_Chess_4.jpg,right,546.3499999605119,true,low,NA,NA,NA,NA,NA,NA,NA,false
pfDr4H2V,36818z1kw6qmfrfyj2vkz259guma30,3zazr5xv05vdgjhjfprmyiw3ehdzch,pfDr4H2V,2020-0188,2020-05-08,11:59:56,12:14:02,NA,incomplete,26,shape,1,right,Green_Star_Chess_3.jpg,Purple_Triangle_Grid_3.jpg,Red_Star_Stripes_4.jpg,right,742.1249998733401,true,low,NA,NA,NA,NA,NA,NA,NA,false
pfDr4H2V,36818z1kw6qmfrfyj2vkz259guma30,3zazr5xv05vdgjhjfprmyiw3ehdzch,pfDr4H2V,2020-0188,2020-05-08,11:59:56,12:14:02,NA,incomplete,27,shape,1,left,Red_Plus_Stripes_1.jpg,Purple_Plus_Dots_4.jpg,Green_Triangle_Grid_1.jpg,left,797.2349999472499,true,low,NA,NA,NA,NA,NA,NA,NA,false
pfDr4H2V,36818z1kw6qmfrfyj2vkz259guma30,3zazr5xv05vdgjhjfprmyiw3ehdzch,pfDr4H2V,2020-0188,2020-05-08,11:59:56,12:14:02,NA,incomplete,28,shape,1,right,Green_Circle_Grid_4.jpg,Blue_Plus_Chess_4.jpg,Purple_Circle_Dots_1.jpg,right,611.7599999997765,true,low,NA,NA,NA,NA,NA,NA,NA,false
pfDr4H2V,36818z1kw6qmfrfyj2vkz259guma30,3zazr5xv05vdgjhjfprmyiw3ehdzch,pfDr4H2V,2020-0188,2020-05-08,11:59:56,12:14:02,NA,incomplete,29,shape,1,right,Red_Circle_Dots_2.jpg,Blue_Plus_Chess_2.jpg,Green_Circle_Grid_1.jpg,right,566.7550000362098,true,low,NA,NA,NA,NA,NA,NA,NA,false
pfDr4H2V,36818z1kw6qmfrfyj2vkz259guma30,3zazr5xv05vdgjhjfprmyiw3ehdzch,pfDr4H2V,2020-0188,2020-05-08,11:59:56,12:14:02,NA,incomplete,30,number,1,right,Purple_Circle_Chess_2.jpg,Green_Circle_Dots_1.jpg,Red_Star_Stripes_2.jpg,left,642.2949999105185,false,low,NA,NA,NA,NA,NA,NA,NA,false
pfDr4H2V,36818z1kw6qmfrfyj2vkz259guma30,3zazr5xv05vdgjhjfprmyiw3ehdzch,pfDr4H2V,2020-0188,2020-05-08,11:59:56,12:14:02,NA,incomplete,31,number,1,left,Red_Star_Dots_4.jpg,Purple_Circle_Grid_4.jpg,Green_Star_Stripes_2.jpg,right,754.9949998501688,false,low,NA,NA,NA,NA,NA,NA,NA,false
pfDr4H2V,36818z1kw6qmfrfyj2vkz259guma30,3zazr5xv05vdgjhjfprmyiw3ehdzch,pfDr4H2V,2020-0188,2020-05-08,11:59:56,12:14:02,NA,incomplete,32,number,1,left,Blue_Circle_Stripes_3.jpg,Red_Star_Dots_3.jpg,Purple_Circle_Chess_2.jpg,left,695.3350000549108,true,low,NA,NA,NA,NA,NA,NA,NA,false
pfDr4H2V,36818z1kw6qmfrfyj2vkz259guma30,3zazr5xv05vdgjhjfprmyiw3ehdzch,pfDr4H2V,2020-0188,2020-05-08,11:59:56,12:14:02,NA,incomplete,33,number,1,right,Purple_Triangle_Dots_2.jpg,Blue_Triangle_Chess_4.jpg,Green_Circle_Stripes_2.jpg,right,894.9250001460314,true,low,NA,NA,NA,NA,NA,NA,NA,false
pfDr4H2V,36818z1kw6qmfrfyj2vkz259guma30,3zazr5xv05vdgjhjfprmyiw3ehdzch,pfDr4H2V,2020-0188,2020-05-08,11:59:56,12:14:02,NA,incomplete,34,number,1,left,Purple_Star_Chess_2.jpg,Blue_Triangle_Dots_2.jpg,Red_Star_Stripes_4.jpg,left,969.5550000760704,true,low,NA,NA,NA,NA,NA,NA,NA,false
pfDr4H2V,36818z1kw6qmfrfyj2vkz259guma30,3zazr5xv05vdgjhjfprmyiw3ehdzch,pfDr4H2V,2020-0188,2020-05-08,11:59:56,12:14:02,NA,incomplete,35,number,1,left,Purple_Triangle_Grid_4.jpg,Blue_Star_Chess_4.jpg,Green_Triangle_Stripes_2.jpg,left,995.4899998847395,true,low,NA,NA,NA,NA,NA,NA,NA,false
pfDr4H2V,36818z1kw6qmfrfyj2vkz259guma30,3zazr5xv05vdgjhjfprmyiw3ehdzch,pfDr4H2V,2020-0188,2020-05-08,11:59:56,12:14:02,NA,incomplete,36,number,0,right,Green_Star_Stripes_1.jpg,Red_Star_Grid_2.jpg,Purple_Circle_Dots_1.jpg,right,954.0049999486655,true,low,NA,NA,NA,NA,NA,NA,NA,false
pfDr4H2V,36818z1kw6qmfrfyj2vkz259guma30,3zazr5xv05vdgjhjfprmyiw3ehdzch,pfDr4H2V,2020-0188,2020-05-08,11:59:56,12:14:02,NA,incomplete,37,number,0,right,Green_Circle_Chess_3.jpg,Purple_Circle_Dots_2.jpg,Red_Plus_Stripes_3.jpg,right,712.4550000298768,true,low,NA,NA,NA,NA,NA,NA,NA,false
pfDr4H2V,36818z1kw6qmfrfyj2vkz259guma30,3zazr5xv05vdgjhjfprmyiw3ehdzch,pfDr4H2V,2020-0188,2020-05-08,11:59:56,12:14:02,NA,incomplete,38,number,1,left,Green_Circle_Chess_1.jpg,Red_Plus_Stripes_1.jpg,Blue_Circle_Dots_3.jpg,right,728.4500000532717,false,low,NA,NA,NA,NA,NA,NA,NA,false
pfDr4H2V,36818z1kw6qmfrfyj2vkz259guma30,3zazr5xv05vdgjhjfprmyiw3ehdzch,pfDr4H2V,2020-0188,2020-05-08,11:59:56,12:14:02,NA,incomplete,39,number,0,left,Red_Triangle_Dots_3.jpg,Green_Star_Grid_3.jpg,Purple_Triangle_Stripes_2.jpg,right,966.054999968037,false,low,NA,NA,NA,NA,NA,NA,NA,false
pfDr4H2V,36818z1kw6qmfrfyj2vkz259guma30,3zazr5xv05vdgjhjfprmyiw3ehdzch,pfDr4H2V,2020-0188,2020-05-08,11:59:56,12:14:02,NA,incomplete,40,number,1,right,Green_Circle_Stripes_4.jpg,Red_Circle_Chess_2.jpg,Blue_Plus_Dots_4.jpg,left,1048.8599999807775,false,low,NA,NA,NA,NA,NA,NA,NA,false
pfDr4H2V,36818z1kw6qmfrfyj2vkz259guma30,3zazr5xv05vdgjhjfprmyiw3ehdzch,pfDr4H2V,2020-0188,2020-05-08,11:59:56,12:14:02,NA,incomplete,41,number,1,right,Red_Triangle_Stripes_3.jpg,Purple_Triangle_Grid_2.jpg,Blue_Plus_Chess_3.jpg,left,748.9300000015646,false,low,NA,NA,NA,NA,NA,NA,NA,false
pfDr4H2V,36818z1kw6qmfrfyj2vkz259guma30,3zazr5xv05vdgjhjfprmyiw3ehdzch,pfDr4H2V,2020-0188,2020-05-08,11:59:56,12:14:02,NA,incomplete,42,number,1,right,Red_Triangle_Dots_2.jpg,Blue_Triangle_Stripes_1.jpg,Purple_Star_Chess_2.jpg,right,721.9000000040978,true,low,NA,NA,NA,NA,NA,NA,NA,false
pfDr4H2V,36818z1kw6qmfrfyj2vkz259guma30,3zazr5xv05vdgjhjfprmyiw3ehdzch,pfDr4H2V,2020-0188,2020-05-08,11:59:56,12:14:02,NA,incomplete,43,number,1,right,Red_Triangle_Chess_4.jpg,Purple_Triangle_Stripes_1.jpg,Blue_Circle_Dots_4.jpg,right,677.2350000683218,true,low,NA,NA,NA,NA,NA,NA,NA,false
pfDr4H2V,36818z1kw6qmfrfyj2vkz259guma30,3zazr5xv05vdgjhjfprmyiw3ehdzch,pfDr4H2V,2020-0188,2020-05-08,11:59:56,12:14:02,NA,incomplete,44,number,1,right,Red_Star_Chess_4.jpg,Blue_Star_Grid_3.jpg,Green_Triangle_Stripes_4.jpg,right,916.4199999067932,true,low,NA,NA,NA,NA,NA,NA,NA,false
pfDr4H2V,36818z1kw6qmfrfyj2vkz259guma30,3zazr5xv05vdgjhjfprmyiw3ehdzch,pfDr4H2V,2020-0188,2020-05-08,11:59:56,12:14:02,NA,incomplete,45,number,1,left,Blue_Star_Chess_2.jpg,Green_Triangle_Dots_2.jpg,Purple_Star_Stripes_3.jpg,left,1099.180000135675,true,low,NA,NA,NA,NA,NA,NA,NA,false
pfDr4H2V,36818z1kw6qmfrfyj2vkz259guma30,3zazr5xv05vdgjhjfprmyiw3ehdzch,pfDr4H2V,2020-0188,2020-05-08,11:59:56,12:14:02,NA,incomplete,46,number,1,left,Blue_Star_Grid_4.jpg,Red_Plus_Dots_4.jpg,Green_Star_Stripes_2.jpg,left,1098.5950001049787,true,low,NA,NA,NA,NA,NA,NA,NA,false
pfDr4H2V,36818z1kw6qmfrfyj2vkz259guma30,3zazr5xv05vdgjhjfprmyiw3ehdzch,pfDr4H2V,2020-0188,2020-05-08,11:59:56,12:14:02,NA,incomplete,47,number,1,right,Red_Star_Grid_2.jpg,Blue_Star_Stripes_1.jpg,Purple_Circle_Chess_2.jpg,right,730.5550000164658,true,low,NA,NA,NA,NA,NA,NA,NA,false
pfDr4H2V,36818z1kw6qmfrfyj2vkz259guma30,3zazr5xv05vdgjhjfprmyiw3ehdzch,pfDr4H2V,2020-0188,2020-05-08,11:59:56,12:14:02,NA,incomplete,48,number,1,right,Red_Triangle_Dots_4.jpg,Purple_Triangle_Grid_3.jpg,Green_Plus_Stripes_4.jpg,right,1112.3450000304729,true,low,NA,NA,NA,NA,NA,NA,NA,false
pfDr4H2V,36818z1kw6qmfrfyj2vkz259guma30,3zazr5xv05vdgjhjfprmyiw3ehdzch,pfDr4H2V,2020-0188,2020-05-08,11:59:56,12:14:02,NA,incomplete,49,number,1,left,Blue_Star_Dots_4.jpg,Red_Triangle_Stripes_4.jpg,Green_Star_Chess_2.jpg,left,628.3850001636893,true,low,NA,NA,NA,NA,NA,NA,NA,false
pfDr4H2V,36818z1kw6qmfrfyj2vkz259guma30,3zazr5xv05vdgjhjfprmyiw3ehdzch,pfDr4H2V,2020-0188,2020-05-08,11:59:56,12:14:02,NA,incomplete,50,number,0,right,Blue_Star_Grid_2.jpg,Red_Star_Stripes_4.jpg,Green_Triangle_Chess_2.jpg,right,747.3699999973178,true,low,NA,NA,NA,NA,NA,NA,NA,false
pfDr4H2V,36818z1kw6qmfrfyj2vkz259guma30,3zazr5xv05vdgjhjfprmyiw3ehdzch,pfDr4H2V,2020-0188,2020-05-08,11:59:56,12:14:02,NA,incomplete,51,number,1,left,Green_Plus_Grid_1.jpg,Red_Star_Stripes_1.jpg,Purple_Plus_Chess_3.jpg,left,703.1549999956042,true,low,NA,NA,NA,NA,NA,NA,NA,false
pfDr4H2V,36818z1kw6qmfrfyj2vkz259guma30,3zazr5xv05vdgjhjfprmyiw3ehdzch,pfDr4H2V,2020-0188,2020-05-08,11:59:56,12:14:02,NA,incomplete,52,number,0,left,Green_Circle_Grid_2.jpg,Red_Star_Chess_2.jpg,Purple_Circle_Dots_4.jpg,left,691.700000083074,true,low,NA,NA,NA,NA,NA,NA,NA,false
pfDr4H2V,36818z1kw6qmfrfyj2vkz259guma30,3zazr5xv05vdgjhjfprmyiw3ehdzch,pfDr4H2V,2020-0188,2020-05-08,11:59:56,12:14:02,NA,incomplete,53,number,0,left,Purple_Plus_Dots_2.jpg,Blue_Triangle_Chess_2.jpg,Green_Plus_Grid_1.jpg,left,724.164999788627,true,low,NA,NA,NA,NA,NA,NA,NA,false
pfDr4H2V,36818z1kw6qmfrfyj2vkz259guma30,3zazr5xv05vdgjhjfprmyiw3ehdzch,pfDr4H2V,2020-0188,2020-05-08,11:59:56,12:14:02,NA,incomplete,54,number,0,left,Green_Star_Chess_2.jpg,Purple_Circle_Stripes_2.jpg,Blue_Star_Dots_3.jpg,right,678.9049999788404,false,low,NA,NA,NA,NA,NA,NA,NA,false
pfDr4H2V,36818z1kw6qmfrfyj2vkz259guma30,3zazr5xv05vdgjhjfprmyiw3ehdzch,pfDr4H2V,2020-0188,2020-05-08,11:59:56,12:14:02,NA,incomplete,55,number,0,right,Blue_Star_Dots_1.jpg,Red_Star_Grid_3.jpg,Green_Circle_Chess_1.jpg,left,593.265000032261,false,low,NA,NA,NA,NA,NA,NA,NA,false
pfDr4H2V,36818z1kw6qmfrfyj2vkz259guma30,3zazr5xv05vdgjhjfprmyiw3ehdzch,pfDr4H2V,2020-0188,2020-05-08,11:59:56,12:14:02,NA,incomplete,56,number,1,right,Red_Star_Stripes_4.jpg,Blue_Star_Chess_3.jpg,Green_Triangle_Dots_4.jpg,left,593.9000002108514,false,low,NA,NA,NA,NA,NA,NA,NA,false
pfDr4H2V,36818z1kw6qmfrfyj2vkz259guma30,3zazr5xv05vdgjhjfprmyiw3ehdzch,pfDr4H2V,2020-0188,2020-05-08,11:59:56,12:14:02,NA,incomplete,57,number,1,right,Red_Plus_Dots_1.jpg,Purple_Plus_Stripes_2.jpg,Blue_Circle_Chess_1.jpg,left,771.3350001722574,false,low,NA,NA,NA,NA,NA,NA,NA,false
pfDr4H2V,36818z1kw6qmfrfyj2vkz259guma30,3zazr5xv05vdgjhjfprmyiw3ehdzch,pfDr4H2V,2020-0188,2020-05-08,11:59:56,12:14:02,NA,incomplete,58,number,1,left,Green_Circle_Grid_2.jpg,Purple_Triangle_Dots_2.jpg,Red_Circle_Chess_1.jpg,left,941.9749998487532,true,low,NA,NA,NA,NA,NA,NA,NA,false
pfDr4H2V,36818z1kw6qmfrfyj2vkz259guma30,3zazr5xv05vdgjhjfprmyiw3ehdzch,pfDr4H2V,2020-0188,2020-05-08,11:59:56,12:14:02,NA,incomplete,59,number,1,left,Green_Triangle_Dots_2.jpg,Purple_Plus_Grid_2.jpg,Red_Triangle_Stripes_3.jpg,left,644.8850000742823,true,low,NA,NA,NA,NA,NA,NA,NA,false
pfDr4H2V,36818z1kw6qmfrfyj2vkz259guma30,3zazr5xv05vdgjhjfprmyiw3ehdzch,pfDr4H2V,2020-0188,2020-05-08,11:59:56,12:14:02,NA,incomplete,60,shape,1,left,Blue_Plus_Grid_4.jpg,Red_Plus_Chess_1.jpg,Green_Circle_Dots_4.jpg,left,876.5149998944253,true,low,NA,NA,NA,NA,NA,NA,NA,false
pfDr4H2V,36818z1kw6qmfrfyj2vkz259guma30,3zazr5xv05vdgjhjfprmyiw3ehdzch,pfDr4H2V,2020-0188,2020-05-08,11:59:56,12:14:02,NA,incomplete,61,shape,1,right,Blue_Triangle_Grid_2.jpg,Green_Plus_Chess_2.jpg,Red_Triangle_Dots_4.jpg,right,949.189999839291,true,low,NA,NA,NA,NA,NA,NA,NA,false
pfDr4H2V,36818z1kw6qmfrfyj2vkz259guma30,3zazr5xv05vdgjhjfprmyiw3ehdzch,pfDr4H2V,2020-0188,2020-05-08,11:59:56,12:14:02,NA,incomplete,62,shape,1,right,Red_Triangle_Chess_1.jpg,Green_Star_Grid_1.jpg,Blue_Triangle_Dots_3.jpg,right,856.6750001627952,true,low,NA,NA,NA,NA,NA,NA,NA,false
pfDr4H2V,36818z1kw6qmfrfyj2vkz259guma30,3zazr5xv05vdgjhjfprmyiw3ehdzch,pfDr4H2V,2020-0188,2020-05-08,11:59:56,12:14:02,NA,incomplete,63,shape,0,left,Green_Triangle_Grid_3.jpg,Purple_Triangle_Stripes_4.jpg,Blue_Star_Dots_3.jpg,left,773.5000001266599,true,low,NA,NA,NA,NA,NA,NA,NA,false
pfDr4H2V,36818z1kw6qmfrfyj2vkz259guma30,3zazr5xv05vdgjhjfprmyiw3ehdzch,pfDr4H2V,2020-0188,2020-05-08,11:59:56,12:14:02,NA,incomplete,64,shape,0,right,Green_Star_Dots_1.jpg,Red_Plus_Chess_1.jpg,Purple_Star_Stripes_2.jpg,left,891.814999980852,false,low,NA,NA,NA,NA,NA,NA,NA,false
pfDr4H2V,36818z1kw6qmfrfyj2vkz259guma30,3zazr5xv05vdgjhjfprmyiw3ehdzch,pfDr4H2V,2020-0188,2020-05-08,11:59:56,12:14:02,NA,incomplete,65,shape,1,right,Blue_Plus_Chess_1.jpg,Red_Circle_Grid_1.jpg,Green_Plus_Stripes_4.jpg,left,825.7100000046194,false,low,NA,NA,NA,NA,NA,NA,NA,false
pfDr4H2V,36818z1kw6qmfrfyj2vkz259guma30,3zazr5xv05vdgjhjfprmyiw3ehdzch,pfDr4H2V,2020-0188,2020-05-08,11:59:56,12:14:02,NA,incomplete,66,shape,1,left,Green_Star_Stripes_2.jpg,Purple_Star_Grid_4.jpg,Red_Triangle_Dots_2.jpg,right,815.2149999514222,false,low,NA,NA,NA,NA,NA,NA,NA,false
pfDr4H2V,36818z1kw6qmfrfyj2vkz259guma30,3zazr5xv05vdgjhjfprmyiw3ehdzch,pfDr4H2V,2020-0188,2020-05-08,11:59:56,12:14:02,NA,incomplete,67,shape,1,right,Purple_Plus_Dots_4.jpg,Green_Circle_Stripes_4.jpg,Blue_Plus_Grid_3.jpg,right,709.4649998471141,true,low,NA,NA,NA,NA,NA,NA,NA,false
pfDr4H2V,36818z1kw6qmfrfyj2vkz259guma30,3zazr5xv05vdgjhjfprmyiw3ehdzch,pfDr4H2V,2020-0188,2020-05-08,11:59:56,12:14:02,NA,incomplete,68,shape,0,left,Red_Circle_Dots_4.jpg,Green_Circle_Stripes_1.jpg,Blue_Plus_Grid_4.jpg,left,635.6600001454353,true,low,NA,NA,NA,NA,NA,NA,NA,false
pfDr4H2V,36818z1kw6qmfrfyj2vkz259guma30,3zazr5xv05vdgjhjfprmyiw3ehdzch,pfDr4H2V,2020-0188,2020-05-08,11:59:56,12:14:02,NA,incomplete,69,shape,1,left,Green_Plus_Dots_2.jpg,Blue_Plus_Grid_1.jpg,Red_Circle_Stripes_2.jpg,left,692.005000077188,true,low,NA,NA,NA,NA,NA,NA,NA,false
pfDr4H2V,36818z1kw6qmfrfyj2vkz259guma30,3zazr5xv05vdgjhjfprmyiw3ehdzch,pfDr4H2V,2020-0188,2020-05-08,11:59:56,12:14:02,NA,incomplete,70,shape,1,left,Purple_Circle_Dots_4.jpg,Red_Circle_Grid_1.jpg,Green_Triangle_Stripes_4.jpg,left,697.3900001030415,true,low,NA,NA,NA,NA,NA,NA,NA,false
pfDr4H2V,36818z1kw6qmfrfyj2vkz259guma30,3zazr5xv05vdgjhjfprmyiw3ehdzch,pfDr4H2V,2020-0188,2020-05-08,11:59:56,12:14:02,NA,incomplete,71,shape,1,right,Green_Triangle_Chess_3.jpg,Red_Plus_Stripes_3.jpg,Blue_Triangle_Dots_2.jpg,right,1016.4050001185387,true,low,NA,NA,NA,NA,NA,NA,NA,false
pfDr4H2V,36818z1kw6qmfrfyj2vkz259guma30,3zazr5xv05vdgjhjfprmyiw3ehdzch,pfDr4H2V,2020-0188,2020-05-08,11:59:56,12:14:02,NA,incomplete,72,shape,1,right,Blue_Triangle_Grid_3.jpg,Purple_Plus_Chess_3.jpg,Red_Triangle_Stripes_4.jpg,right,818.1850002147257,true,low,NA,NA,NA,NA,NA,NA,NA,false
pfDr4H2V,36818z1kw6qmfrfyj2vkz259guma30,3zazr5xv05vdgjhjfprmyiw3ehdzch,pfDr4H2V,2020-0188,2020-05-08,11:59:56,12:14:02,NA,incomplete,73,shape,1,left,Red_Plus_Stripes_3.jpg,Purple_Plus_Grid_4.jpg,Green_Star_Chess_3.jpg,left,916.5849999990314,true,low,NA,NA,NA,NA,NA,NA,NA,false
pfDr4H2V,36818z1kw6qmfrfyj2vkz259guma30,3zazr5xv05vdgjhjfprmyiw3ehdzch,pfDr4H2V,2020-0188,2020-05-08,11:59:56,12:14:02,NA,incomplete,74,shape,1,right,Purple_Plus_Dots_4.jpg,Red_Triangle_Chess_4.jpg,Blue_Plus_Stripes_3.jpg,right,835.0550001487136,true,low,NA,NA,NA,NA,NA,NA,NA,false
pfDr4H2V,36818z1kw6qmfrfyj2vkz259guma30,3zazr5xv05vdgjhjfprmyiw3ehdzch,pfDr4H2V,2020-0188,2020-05-08,11:59:56,12:14:02,NA,incomplete,75,shape,0,right,Purple_Star_Chess_4.jpg,Blue_Circle_Stripes_4.jpg,Red_Star_Grid_1.jpg,right,695.805000141263,true,low,NA,NA,NA,NA,NA,NA,NA,false
pfDr4H2V,36818z1kw6qmfrfyj2vkz259guma30,3zazr5xv05vdgjhjfprmyiw3ehdzch,pfDr4H2V,2020-0188,2020-05-08,11:59:56,12:14:02,NA,incomplete,76,shape,1,right,Purple_Circle_Dots_1.jpg,Green_Star_Grid_1.jpg,Red_Circle_Chess_2.jpg,right,693.1300000287592,true,low,NA,NA,NA,NA,NA,NA,NA,false
pfDr4H2V,36818z1kw6qmfrfyj2vkz259guma30,3zazr5xv05vdgjhjfprmyiw3ehdzch,pfDr4H2V,2020-0188,2020-05-08,11:59:56,12:14:02,NA,incomplete,77,shape,0,left,Red_Circle_Stripes_2.jpg,Green_Circle_Grid_1.jpg,Blue_Star_Chess_2.jpg,left,596.5400000568479,true,low,NA,NA,NA,NA,NA,NA,NA,false
pfDr4H2V,36818z1kw6qmfrfyj2vkz259guma30,3zazr5xv05vdgjhjfprmyiw3ehdzch,pfDr4H2V,2020-0188,2020-05-08,11:59:56,12:14:02,NA,incomplete,78,shape,1,left,Blue_Plus_Grid_4.jpg,Green_Plus_Chess_2.jpg,Purple_Star_Dots_4.jpg,left,806.6899999976158,true,low,NA,NA,NA,NA,NA,NA,NA,false
pfDr4H2V,36818z1kw6qmfrfyj2vkz259guma30,3zazr5xv05vdgjhjfprmyiw3ehdzch,pfDr4H2V,2020-0188,2020-05-08,11:59:56,12:14:02,NA,incomplete,79,shape,1,right,Blue_Triangle_Dots_1.jpg,Purple_Star_Chess_1.jpg,Green_Triangle_Stripes_2.jpg,right,796.3000000454485,true,low,NA,NA,NA,NA,NA,NA,NA,false
pfDr4H2V,36818z1kw6qmfrfyj2vkz259guma30,3zazr5xv05vdgjhjfprmyiw3ehdzch,pfDr4H2V,2020-0188,2020-05-08,11:59:56,12:14:02,NA,incomplete,80,shape,1,left,Purple_Star_Chess_4.jpg,Green_Star_Stripes_1.jpg,Red_Plus_Dots_4.jpg,left,659.4150001183152,true,low,NA,NA,NA,NA,NA,NA,NA,false
pfDr4H2V,36818z1kw6qmfrfyj2vkz259guma30,3zazr5xv05vdgjhjfprmyiw3ehdzch,pfDr4H2V,2020-0188,2020-05-08,11:59:56,12:14:02,NA,incomplete,81,shape,1,left,Purple_Plus_Grid_2.jpg,Blue_Plus_Chess_1.jpg,Green_Star_Dots_2.jpg,left,587.0300000533462,true,low,NA,NA,NA,NA,NA,NA,NA,false
pfDr4H2V,36818z1kw6qmfrfyj2vkz259guma30,3zazr5xv05vdgjhjfprmyiw3ehdzch,pfDr4H2V,2020-0188,2020-05-08,11:59:56,12:14:02,NA,incomplete,82,shape,1,right,Purple_Star_Grid_2.jpg,Blue_Triangle_Chess_2.jpg,Green_Star_Dots_3.jpg,right,694.1400000359863,true,low,NA,NA,NA,NA,NA,NA,NA,false
pfDr4H2V,36818z1kw6qmfrfyj2vkz259guma30,3zazr5xv05vdgjhjfprmyiw3ehdzch,pfDr4H2V,2020-0188,2020-05-08,11:59:56,12:14:02,NA,incomplete,83,shape,1,left,Green_Plus_Chess_4.jpg,Red_Plus_Dots_2.jpg,Blue_Triangle_Grid_4.jpg,left,733.3449998404831,true,low,NA,NA,NA,NA,NA,NA,NA,false
pfDr4H2V,36818z1kw6qmfrfyj2vkz259guma30,3zazr5xv05vdgjhjfprmyiw3ehdzch,pfDr4H2V,2020-0188,2020-05-08,11:59:56,12:14:02,NA,incomplete,84,shape,1,right,Purple_Plus_Dots_1.jpg,Green_Triangle_Grid_1.jpg,Blue_Plus_Stripes_4.jpg,right,605.5699998978525,true,low,NA,NA,NA,NA,NA,NA,NA,false
pfDr4H2V,36818z1kw6qmfrfyj2vkz259guma30,3zazr5xv05vdgjhjfprmyiw3ehdzch,pfDr4H2V,2020-0188,2020-05-08,11:59:56,12:14:02,NA,incomplete,85,shape,0,right,Red_Triangle_Dots_3.jpg,Blue_Circle_Grid_3.jpg,Green_Triangle_Chess_4.jpg,right,792.905000038445,true,low,NA,NA,NA,NA,NA,NA,NA,false
pfDr4H2V,36818z1kw6qmfrfyj2vkz259guma30,3zazr5xv05vdgjhjfprmyiw3ehdzch,pfDr4H2V,2020-0188,2020-05-08,11:59:56,12:14:02,NA,incomplete,86,shape,1,right,Red_Circle_Stripes_1.jpg,Purple_Star_Grid_1.jpg,Green_Circle_Dots_4.jpg,right,737.9599998239428,true,low,NA,NA,NA,NA,NA,NA,NA,false
pfDr4H2V,36818z1kw6qmfrfyj2vkz259guma30,3zazr5xv05vdgjhjfprmyiw3ehdzch,pfDr4H2V,2020-0188,2020-05-08,11:59:56,12:14:02,NA,incomplete,87,shape,0,right,Purple_Triangle_Dots_2.jpg,Red_Star_Chess_2.jpg,Blue_Triangle_Grid_4.jpg,right,678.1599998939782,true,low,NA,NA,NA,NA,NA,NA,NA,false
pfDr4H2V,36818z1kw6qmfrfyj2vkz259guma30,3zazr5xv05vdgjhjfprmyiw3ehdzch,pfDr4H2V,2020-0188,2020-05-08,11:59:56,12:14:02,NA,incomplete,88,shape,1,left,Blue_Triangle_Stripes_2.jpg,Red_Triangle_Dots_1.jpg,Purple_Plus_Chess_2.jpg,left,617.0999999158084,true,low,NA,NA,NA,NA,NA,NA,NA,false
pfDr4H2V,36818z1kw6qmfrfyj2vkz259guma30,3zazr5xv05vdgjhjfprmyiw3ehdzch,pfDr4H2V,2020-0188,2020-05-08,11:59:56,12:14:02,NA,incomplete,89,shape,0,right,Green_Triangle_Chess_4.jpg,Red_Plus_Dots_4.jpg,Purple_Triangle_Grid_3.jpg,right,582.2199999820441,true,low,NA,NA,NA,NA,NA,NA,NA,false
pfDr4H2V,36818z1kw6qmfrfyj2vkz259guma30,3zazr5xv05vdgjhjfprmyiw3ehdzch,pfDr4H2V,2020-0188,2020-05-08,11:59:56,12:14:02,NA,incomplete,90,number,1,left,Blue_Plus_Stripes_2.jpg,Red_Circle_Chess_2.jpg,Purple_Plus_Grid_1.jpg,right,675.6400000303984,false,low,NA,NA,NA,NA,NA,NA,NA,false
pfDr4H2V,36818z1kw6qmfrfyj2vkz259guma30,3zazr5xv05vdgjhjfprmyiw3ehdzch,pfDr4H2V,2020-0188,2020-05-08,11:59:56,12:14:02,NA,incomplete,91,number,1,right,Blue_Plus_Stripes_3.jpg,Purple_Plus_Dots_4.jpg,Green_Circle_Grid_3.jpg,right,770.8550000097603,true,low,NA,NA,NA,NA,NA,NA,NA,false
pfDr4H2V,36818z1kw6qmfrfyj2vkz259guma30,3zazr5xv05vdgjhjfprmyiw3ehdzch,pfDr4H2V,2020-0188,2020-05-08,11:59:56,12:14:02,NA,incomplete,92,number,1,right,Blue_Triangle_Chess_3.jpg,Red_Triangle_Grid_2.jpg,Green_Circle_Stripes_3.jpg,right,780.0100001040846,true,low,NA,NA,NA,NA,NA,NA,NA,false
pfDr4H2V,36818z1kw6qmfrfyj2vkz259guma30,3zazr5xv05vdgjhjfprmyiw3ehdzch,pfDr4H2V,2020-0188,2020-05-08,11:59:56,12:14:02,NA,incomplete,93,number,0,left,Red_Triangle_Grid_1.jpg,Green_Circle_Dots_1.jpg,Purple_Triangle_Stripes_3.jpg,left,866.5849999524653,true,low,NA,NA,NA,NA,NA,NA,NA,false
pfDr4H2V,36818z1kw6qmfrfyj2vkz259guma30,3zazr5xv05vdgjhjfprmyiw3ehdzch,pfDr4H2V,2020-0188,2020-05-08,11:59:56,12:14:02,NA,incomplete,94,number,1,left,Blue_Star_Stripes_3.jpg,Red_Circle_Dots_3.jpg,Purple_Star_Chess_4.jpg,left,862.1949998196214,true,low,NA,NA,NA,NA,NA,NA,NA,false
pfDr4H2V,36818z1kw6qmfrfyj2vkz259guma30,3zazr5xv05vdgjhjfprmyiw3ehdzch,pfDr4H2V,2020-0188,2020-05-08,11:59:56,12:14:02,NA,incomplete,95,number,1,left,Purple_Circle_Grid_4.jpg,Blue_Plus_Stripes_4.jpg,Red_Circle_Dots_2.jpg,left,892.0849999412894,true,low,NA,NA,NA,NA,NA,NA,NA,false
pfDr4H2V,36818z1kw6qmfrfyj2vkz259guma30,3zazr5xv05vdgjhjfprmyiw3ehdzch,pfDr4H2V,2020-0188,2020-05-08,11:59:56,12:14:02,NA,incomplete,96,number,1,left,Purple_Circle_Stripes_1.jpg,Blue_Star_Dots_1.jpg,Green_Circle_Chess_4.jpg,left,930.0200000870973,true,low,NA,NA,NA,NA,NA,NA,NA,false
pfDr4H2V,36818z1kw6qmfrfyj2vkz259guma30,3zazr5xv05vdgjhjfprmyiw3ehdzch,pfDr4H2V,2020-0188,2020-05-08,11:59:56,12:14:02,NA,incomplete,97,number,0,left,Blue_Star_Stripes_3.jpg,Purple_Plus_Chess_3.jpg,Red_Star_Grid_1.jpg,left,849.5749998837709,true,low,NA,NA,NA,NA,NA,NA,NA,false
pfDr4H2V,36818z1kw6qmfrfyj2vkz259guma30,3zazr5xv05vdgjhjfprmyiw3ehdzch,pfDr4H2V,2020-0188,2020-05-08,11:59:56,12:14:02,NA,incomplete,98,number,1,left,Red_Triangle_Stripes_4.jpg,Blue_Star_Dots_4.jpg,Green_Triangle_Grid_3.jpg,left,794.2099999636412,true,low,NA,NA,NA,NA,NA,NA,NA,false
pfDr4H2V,36818z1kw6qmfrfyj2vkz259guma30,3zazr5xv05vdgjhjfprmyiw3ehdzch,pfDr4H2V,2020-0188,2020-05-08,11:59:56,12:14:02,NA,incomplete,99,number,1,right,Red_Circle_Dots_1.jpg,Purple_Circle_Grid_3.jpg,Blue_Plus_Stripes_1.jpg,right,590.3449999168515,true,low,NA,NA,NA,NA,NA,NA,NA,false
pfDr4H2V,36818z1kw6qmfrfyj2vkz259guma30,3zazr5xv05vdgjhjfprmyiw3ehdzch,pfDr4H2V,2020-0188,2020-05-08,11:59:56,12:14:02,NA,incomplete,100,number,1,left,Purple_Circle_Stripes_4.jpg,Red_Plus_Dots_4.jpg,Blue_Circle_Chess_1.jpg,left,573.355000000447,true,low,NA,NA,NA,NA,NA,NA,NA,false
pfDr4H2V,36818z1kw6qmfrfyj2vkz259guma30,3zazr5xv05vdgjhjfprmyiw3ehdzch,pfDr4H2V,2020-0188,2020-05-08,11:59:56,12:14:02,NA,incomplete,101,number,1,left,Green_Circle_Chess_2.jpg,Red_Star_Stripes_2.jpg,Purple_Circle_Grid_3.jpg,left,667.8949999623001,true,low,NA,NA,NA,NA,NA,NA,NA,false
pfDr4H2V,36818z1kw6qmfrfyj2vkz259guma30,3zazr5xv05vdgjhjfprmyiw3ehdzch,pfDr4H2V,2020-0188,2020-05-08,11:59:56,12:14:02,NA,incomplete,102,number,1,left,Green_Circle_Chess_2.jpg,Red_Plus_Grid_2.jpg,Blue_Circle_Stripes_4.jpg,left,584.9899998866022,true,low,NA,NA,NA,NA,NA,NA,NA,false
pfDr4H2V,36818z1kw6qmfrfyj2vkz259guma30,3zazr5xv05vdgjhjfprmyiw3ehdzch,pfDr4H2V,2020-0188,2020-05-08,11:59:56,12:14:02,NA,incomplete,103,number,1,left,Blue_Triangle_Stripes_3.jpg,Red_Star_Chess_3.jpg,Green_Triangle_Grid_4.jpg,left,631.7149999085814,true,low,NA,NA,NA,NA,NA,NA,NA,false
pfDr4H2V,36818z1kw6qmfrfyj2vkz259guma30,3zazr5xv05vdgjhjfprmyiw3ehdzch,pfDr4H2V,2020-0188,2020-05-08,11:59:56,12:14:02,NA,incomplete,104,number,1,right,Green_Star_Stripes_3.jpg,Purple_Star_Dots_4.jpg,Blue_Plus_Chess_3.jpg,left,644.3350000772625,false,low,NA,NA,NA,NA,NA,NA,NA,false
pfDr4H2V,36818z1kw6qmfrfyj2vkz259guma30,3zazr5xv05vdgjhjfprmyiw3ehdzch,pfDr4H2V,2020-0188,2020-05-08,11:59:56,12:14:02,NA,incomplete,105,number,1,right,Purple_Star_Chess_4.jpg,Red_Star_Grid_1.jpg,Green_Plus_Stripes_4.jpg,right,671.7700001318008,true,low,NA,NA,NA,NA,NA,NA,NA,false
pfDr4H2V,36818z1kw6qmfrfyj2vkz259guma30,3zazr5xv05vdgjhjfprmyiw3ehdzch,pfDr4H2V,2020-0188,2020-05-08,11:59:56,12:14:02,NA,incomplete,106,number,1,right,Blue_Plus_Chess_4.jpg,Purple_Plus_Dots_1.jpg,Green_Triangle_Grid_4.jpg,right,601.9000001251698,true,low,NA,NA,NA,NA,NA,NA,NA,false
pfDr4H2V,36818z1kw6qmfrfyj2vkz259guma30,3zazr5xv05vdgjhjfprmyiw3ehdzch,pfDr4H2V,2020-0188,2020-05-08,11:59:56,12:14:02,NA,incomplete,107,number,1,left,Purple_Plus_Dots_1.jpg,Red_Star_Stripes_1.jpg,Blue_Plus_Chess_4.jpg,left,499.7300000395626,true,low,NA,NA,NA,NA,NA,NA,NA,false
pfDr4H2V,36818z1kw6qmfrfyj2vkz259guma30,3zazr5xv05vdgjhjfprmyiw3ehdzch,pfDr4H2V,2020-0188,2020-05-08,11:59:56,12:14:02,NA,incomplete,108,number,0,right,Blue_Circle_Stripes_3.jpg,Green_Circle_Dots_1.jpg,Red_Triangle_Chess_3.jpg,right,675.9450000245124,true,low,NA,NA,NA,NA,NA,NA,NA,false
pfDr4H2V,36818z1kw6qmfrfyj2vkz259guma30,3zazr5xv05vdgjhjfprmyiw3ehdzch,pfDr4H2V,2020-0188,2020-05-08,11:59:56,12:14:02,NA,incomplete,109,number,1,left,Green_Plus_Grid_3.jpg,Red_Triangle_Stripes_3.jpg,Purple_Plus_Dots_4.jpg,left,670.7850000821054,true,low,NA,NA,NA,NA,NA,NA,NA,false
pfDr4H2V,36818z1kw6qmfrfyj2vkz259guma30,3zazr5xv05vdgjhjfprmyiw3ehdzch,pfDr4H2V,2020-0188,2020-05-08,11:59:56,12:14:02,NA,incomplete,110,number,1,left,Green_Plus_Chess_3.jpg,Red_Circle_Dots_3.jpg,Blue_Plus_Stripes_2.jpg,left,684.2800001613796,true,low,NA,NA,NA,NA,NA,NA,NA,false
pfDr4H2V,36818z1kw6qmfrfyj2vkz259guma30,3zazr5xv05vdgjhjfprmyiw3ehdzch,pfDr4H2V,2020-0188,2020-05-08,11:59:56,12:14:02,NA,incomplete,111,number,0,right,Red_Plus_Stripes_2.jpg,Green_Plus_Chess_1.jpg,Blue_Star_Dots_2.jpg,right,768.9999998547137,true,low,NA,NA,NA,NA,NA,NA,NA,false
pfDr4H2V,36818z1kw6qmfrfyj2vkz259guma30,3zazr5xv05vdgjhjfprmyiw3ehdzch,pfDr4H2V,2020-0188,2020-05-08,11:59:56,12:14:02,NA,incomplete,112,number,1,right,Blue_Star_Grid_1.jpg,Purple_Star_Dots_2.jpg,Red_Circle_Stripes_1.jpg,left,694.6949998382479,false,low,NA,NA,NA,NA,NA,NA,NA,false
pfDr4H2V,36818z1kw6qmfrfyj2vkz259guma30,3zazr5xv05vdgjhjfprmyiw3ehdzch,pfDr4H2V,2020-0188,2020-05-08,11:59:56,12:14:02,NA,incomplete,113,number,1,left,Red_Plus_Grid_2.jpg,Green_Star_Chess_2.jpg,Purple_Plus_Stripes_4.jpg,left,609.6300000790507,true,low,NA,NA,NA,NA,NA,NA,NA,false
pfDr4H2V,36818z1kw6qmfrfyj2vkz259guma30,3zazr5xv05vdgjhjfprmyiw3ehdzch,pfDr4H2V,2020-0188,2020-05-08,11:59:56,12:14:02,NA,incomplete,114,number,1,right,Green_Star_Stripes_2.jpg,Blue_Star_Dots_1.jpg,Purple_Triangle_Chess_2.jpg,right,724.2399998940527,true,low,NA,NA,NA,NA,NA,NA,NA,false
pfDr4H2V,36818z1kw6qmfrfyj2vkz259guma30,3zazr5xv05vdgjhjfprmyiw3ehdzch,pfDr4H2V,2020-0188,2020-05-08,11:59:56,12:14:02,NA,incomplete,115,number,1,left,Blue_Circle_Chess_4.jpg,Purple_Star_Grid_4.jpg,Green_Circle_Stripes_2.jpg,left,625.2949999179691,true,low,NA,NA,NA,NA,NA,NA,NA,false
pfDr4H2V,36818z1kw6qmfrfyj2vkz259guma30,3zazr5xv05vdgjhjfprmyiw3ehdzch,pfDr4H2V,2020-0188,2020-05-08,11:59:56,12:14:02,NA,incomplete,116,number,1,right,Purple_Triangle_Dots_2.jpg,Blue_Triangle_Stripes_3.jpg,Red_Plus_Chess_2.jpg,right,785.7700001914054,true,low,NA,NA,NA,NA,NA,NA,NA,false
pfDr4H2V,36818z1kw6qmfrfyj2vkz259guma30,3zazr5xv05vdgjhjfprmyiw3ehdzch,pfDr4H2V,2020-0188,2020-05-08,11:59:56,12:14:02,NA,incomplete,117,number,1,right,Purple_Star_Stripes_4.jpg,Red_Star_Chess_1.jpg,Blue_Triangle_Grid_4.jpg,right,669.3849998991936,true,low,NA,NA,NA,NA,NA,NA,NA,false
pfDr4H2V,36818z1kw6qmfrfyj2vkz259guma30,3zazr5xv05vdgjhjfprmyiw3ehdzch,pfDr4H2V,2020-0188,2020-05-08,11:59:56,12:14:02,NA,incomplete,118,number,1,left,Purple_Star_Dots_1.jpg,Green_Circle_Stripes_1.jpg,Blue_Star_Chess_4.jpg,left,537.5349998939782,true,low,NA,NA,NA,NA,NA,NA,NA,false
pfDr4H2V,36818z1kw6qmfrfyj2vkz259guma30,3zazr5xv05vdgjhjfprmyiw3ehdzch,pfDr4H2V,2020-0188,2020-05-08,11:59:56,12:14:02,NA,incomplete,119,number,1,right,Red_Star_Dots_4.jpg,Blue_Star_Stripes_1.jpg,Green_Plus_Chess_4.jpg,right,532.0649999193847,true,low,NA,NA,NA,NA,NA,NA,NA,false
pfDr4H2V,36818z1kw6qmfrfyj2vkz259guma30,3zazr5xv05vdgjhjfprmyiw3ehdzch,pfDr4H2V,2020-0188,2020-05-08,11:59:56,12:14:02,NA,incomplete,120,shape,0,right,Purple_Star_Stripes_3.jpg,Blue_Circle_Grid_3.jpg,Green_Star_Dots_4.jpg,left,753.7599999923259,false,low,NA,NA,NA,NA,NA,NA,NA,false
pfDr4H2V,36818z1kw6qmfrfyj2vkz259guma30,3zazr5xv05vdgjhjfprmyiw3ehdzch,pfDr4H2V,2020-0188,2020-05-08,11:59:56,12:14:02,NA,incomplete,121,shape,1,right,Blue_Star_Grid_1.jpg,Purple_Triangle_Chess_1.jpg,Green_Star_Dots_4.jpg,left,622.4950000178069,false,low,NA,NA,NA,NA,NA,NA,NA,false
pfDr4H2V,36818z1kw6qmfrfyj2vkz259guma30,3zazr5xv05vdgjhjfprmyiw3ehdzch,pfDr4H2V,2020-0188,2020-05-08,11:59:56,12:14:02,NA,incomplete,122,shape,0,right,Blue_Star_Chess_3.jpg,Green_Circle_Stripes_3.jpg,Purple_Star_Grid_2.jpg,left,813.1000001449138,false,low,NA,NA,NA,NA,NA,NA,NA,false
pfDr4H2V,36818z1kw6qmfrfyj2vkz259guma30,3zazr5xv05vdgjhjfprmyiw3ehdzch,pfDr4H2V,2020-0188,2020-05-08,11:59:56,12:14:02,NA,incomplete,123,shape,1,right,Purple_Star_Grid_4.jpg,Red_Circle_Chess_4.jpg,Blue_Star_Stripes_1.jpg,left,525.2249999903142,false,low,NA,NA,NA,NA,NA,NA,NA,false
pfDr4H2V,36818z1kw6qmfrfyj2vkz259guma30,3zazr5xv05vdgjhjfprmyiw3ehdzch,pfDr4H2V,2020-0188,2020-05-08,11:59:56,12:14:02,NA,incomplete,124,shape,0,left,Blue_Circle_Dots_4.jpg,Green_Circle_Chess_3.jpg,Red_Plus_Stripes_4.jpg,right,652.4749998934567,false,low,NA,NA,NA,NA,NA,NA,NA,false
pfDr4H2V,36818z1kw6qmfrfyj2vkz259guma30,3zazr5xv05vdgjhjfprmyiw3ehdzch,pfDr4H2V,2020-0188,2020-05-08,11:59:56,12:14:02,NA,incomplete,125,shape,1,left,Red_Triangle_Chess_3.jpg,Blue_Triangle_Dots_4.jpg,Green_Plus_Grid_3.jpg,left,863.8850001152605,true,low,NA,NA,NA,NA,NA,NA,NA,false
pfDr4H2V,36818z1kw6qmfrfyj2vkz259guma30,3zazr5xv05vdgjhjfprmyiw3ehdzch,pfDr4H2V,2020-0188,2020-05-08,11:59:56,12:14:02,NA,incomplete,126,shape,1,right,Blue_Star_Grid_1.jpg,Green_Circle_Chess_1.jpg,Red_Star_Stripes_2.jpg,left,715.9450000617653,false,low,NA,NA,NA,NA,NA,NA,NA,false
pfDr4H2V,36818z1kw6qmfrfyj2vkz259guma30,3zazr5xv05vdgjhjfprmyiw3ehdzch,pfDr4H2V,2020-0188,2020-05-08,11:59:56,12:14:02,NA,incomplete,127,shape,1,left,Blue_Plus_Dots_3.jpg,Red_Plus_Grid_1.jpg,Purple_Triangle_Chess_3.jpg,left,795.7999999634922,true,low,NA,NA,NA,NA,NA,NA,NA,false
pfDr4H2V,36818z1kw6qmfrfyj2vkz259guma30,3zazr5xv05vdgjhjfprmyiw3ehdzch,pfDr4H2V,2020-0188,2020-05-08,11:59:56,12:14:02,NA,incomplete,128,shape,0,right,Blue_Triangle_Stripes_4.jpg,Green_Plus_Dots_4.jpg,Red_Triangle_Grid_3.jpg,right,927.2249999921769,true,low,NA,NA,NA,NA,NA,NA,NA,false
pfDr4H2V,36818z1kw6qmfrfyj2vkz259guma30,3zazr5xv05vdgjhjfprmyiw3ehdzch,pfDr4H2V,2020-0188,2020-05-08,11:59:56,12:14:02,NA,incomplete,129,shape,1,left,Purple_Triangle_Dots_3.jpg,Red_Triangle_Grid_2.jpg,Blue_Plus_Chess_3.jpg,left,682.1250000502914,true,low,NA,NA,NA,NA,NA,NA,NA,false
pfDr4H2V,36818z1kw6qmfrfyj2vkz259guma30,3zazr5xv05vdgjhjfprmyiw3ehdzch,pfDr4H2V,2020-0188,2020-05-08,11:59:56,12:14:02,NA,incomplete,130,shape,0,left,Purple_Triangle_Dots_3.jpg,Green_Triangle_Stripes_2.jpg,Blue_Circle_Grid_3.jpg,left,627.15999991633,true,low,NA,NA,NA,NA,NA,NA,NA,false
pfDr4H2V,36818z1kw6qmfrfyj2vkz259guma30,3zazr5xv05vdgjhjfprmyiw3ehdzch,pfDr4H2V,2020-0188,2020-05-08,11:59:56,12:14:02,NA,incomplete,131,shape,1,right,Purple_Plus_Chess_4.jpg,Red_Star_Dots_4.jpg,Blue_Plus_Stripes_1.jpg,right,757.7400000300258,true,low,NA,NA,NA,NA,NA,NA,NA,false
pfDr4H2V,36818z1kw6qmfrfyj2vkz259guma30,3zazr5xv05vdgjhjfprmyiw3ehdzch,pfDr4H2V,2020-0188,2020-05-08,11:59:56,12:14:02,NA,incomplete,132,shape,1,right,Blue_Star_Grid_2.jpg,Red_Triangle_Chess_2.jpg,Purple_Star_Stripes_1.jpg,right,762.2749998699874,true,low,NA,NA,NA,NA,NA,NA,NA,false
pfDr4H2V,36818z1kw6qmfrfyj2vkz259guma30,3zazr5xv05vdgjhjfprmyiw3ehdzch,pfDr4H2V,2020-0188,2020-05-08,11:59:56,12:14:02,NA,incomplete,133,shape,1,right,Green_Triangle_Grid_1.jpg,Blue_Circle_Dots_1.jpg,Purple_Triangle_Chess_3.jpg,right,669.63000013493,true,low,NA,NA,NA,NA,NA,NA,NA,false
pfDr4H2V,36818z1kw6qmfrfyj2vkz259guma30,3zazr5xv05vdgjhjfprmyiw3ehdzch,pfDr4H2V,2020-0188,2020-05-08,11:59:56,12:14:02,NA,incomplete,134,shape,1,left,Green_Circle_Grid_3.jpg,Blue_Circle_Chess_4.jpg,Purple_Plus_Stripes_3.jpg,left,690.6500000040978,true,low,NA,NA,NA,NA,NA,NA,NA,false
pfDr4H2V,36818z1kw6qmfrfyj2vkz259guma30,3zazr5xv05vdgjhjfprmyiw3ehdzch,pfDr4H2V,2020-0188,2020-05-08,11:59:56,12:14:02,NA,incomplete,135,shape,1,left,Green_Triangle_Chess_1.jpg,Blue_Triangle_Dots_2.jpg,Red_Star_Stripes_1.jpg,left,623.2600000221282,true,low,NA,NA,NA,NA,NA,NA,NA,false
pfDr4H2V,36818z1kw6qmfrfyj2vkz259guma30,3zazr5xv05vdgjhjfprmyiw3ehdzch,pfDr4H2V,2020-0188,2020-05-08,11:59:56,12:14:02,NA,incomplete,136,shape,1,left,Blue_Circle_Grid_2.jpg,Purple_Circle_Dots_1.jpg,Red_Plus_Chess_2.jpg,left,605.879999930039,true,low,NA,NA,NA,NA,NA,NA,NA,false
pfDr4H2V,36818z1kw6qmfrfyj2vkz259guma30,3zazr5xv05vdgjhjfprmyiw3ehdzch,pfDr4H2V,2020-0188,2020-05-08,11:59:56,12:14:02,NA,incomplete,137,shape,0,right,Red_Star_Chess_1.jpg,Purple_Triangle_Stripes_1.jpg,Blue_Star_Grid_2.jpg,right,665.4000000562519,true,low,NA,NA,NA,NA,NA,NA,NA,false
pfDr4H2V,36818z1kw6qmfrfyj2vkz259guma30,3zazr5xv05vdgjhjfprmyiw3ehdzch,pfDr4H2V,2020-0188,2020-05-08,11:59:56,12:14:02,NA,incomplete,138,shape,1,right,Green_Plus_Chess_2.jpg,Red_Circle_Dots_2.jpg,Blue_Plus_Grid_1.jpg,right,640.2049998287112,true,low,NA,NA,NA,NA,NA,NA,NA,false
pfDr4H2V,36818z1kw6qmfrfyj2vkz259guma30,3zazr5xv05vdgjhjfprmyiw3ehdzch,pfDr4H2V,2020-0188,2020-05-08,11:59:56,12:14:02,NA,incomplete,139,shape,1,left,Red_Circle_Chess_3.jpg,Blue_Circle_Grid_4.jpg,Purple_Triangle_Stripes_3.jpg,left,600.0850000418723,true,low,NA,NA,NA,NA,NA,NA,NA,false
pfDr4H2V,36818z1kw6qmfrfyj2vkz259guma30,3zazr5xv05vdgjhjfprmyiw3ehdzch,pfDr4H2V,2020-0188,2020-05-08,11:59:56,12:14:02,NA,incomplete,140,number,1,right,Blue_Circle_Chess_1.jpg,Purple_Circle_Stripes_4.jpg,Green_Star_Grid_1.jpg,left,578.4750001039356,false,low,NA,NA,NA,NA,NA,NA,NA,false
pfDr4H2V,36818z1kw6qmfrfyj2vkz259guma30,3zazr5xv05vdgjhjfprmyiw3ehdzch,pfDr4H2V,2020-0188,2020-05-08,11:59:56,12:14:02,NA,incomplete,141,number,1,right,Purple_Circle_Grid_4.jpg,Green_Circle_Dots_1.jpg,Red_Plus_Chess_4.jpg,left,598.8650000654161,false,low,NA,NA,NA,NA,NA,NA,NA,false
pfDr4H2V,36818z1kw6qmfrfyj2vkz259guma30,3zazr5xv05vdgjhjfprmyiw3ehdzch,pfDr4H2V,2020-0188,2020-05-08,11:59:56,12:14:02,NA,incomplete,142,number,0,left,Blue_Star_Grid_4.jpg,Red_Circle_Dots_4.jpg,Green_Star_Chess_2.jpg,left,615.8149999100715,true,low,NA,NA,NA,NA,NA,NA,NA,false
pfDr4H2V,36818z1kw6qmfrfyj2vkz259guma30,3zazr5xv05vdgjhjfprmyiw3ehdzch,pfDr4H2V,2020-0188,2020-05-08,11:59:56,12:14:02,NA,incomplete,143,number,1,left,Red_Circle_Dots_4.jpg,Purple_Star_Stripes_4.jpg,Green_Circle_Grid_1.jpg,left,692.5650001503527,true,low,NA,NA,NA,NA,NA,NA,NA,false
pfDr4H2V,36818z1kw6qmfrfyj2vkz259guma30,3zazr5xv05vdgjhjfprmyiw3ehdzch,pfDr4H2V,2020-0188,2020-05-08,11:59:56,12:14:02,NA,incomplete,144,number,1,right,Purple_Circle_Dots_3.jpg,Green_Circle_Stripes_2.jpg,Red_Plus_Grid_3.jpg,left,586.4650001749396,false,low,NA,NA,NA,NA,NA,NA,NA,false
pfDr4H2V,36818z1kw6qmfrfyj2vkz259guma30,3zazr5xv05vdgjhjfprmyiw3ehdzch,pfDr4H2V,2020-0188,2020-05-08,11:59:56,12:14:02,NA,incomplete,145,number,1,left,Red_Star_Grid_2.jpg,Green_Plus_Chess_2.jpg,Purple_Star_Dots_4.jpg,right,718.2449998799711,false,low,NA,NA,NA,NA,NA,NA,NA,false
pfDr4H2V,36818z1kw6qmfrfyj2vkz259guma30,3zazr5xv05vdgjhjfprmyiw3ehdzch,pfDr4H2V,2020-0188,2020-05-08,11:59:56,12:14:02,NA,incomplete,146,number,1,left,Green_Star_Dots_3.jpg,Blue_Plus_Stripes_3.jpg,Red_Star_Chess_1.jpg,left,688.2800001185387,true,low,NA,NA,NA,NA,NA,NA,NA,false
pfDr4H2V,36818z1kw6qmfrfyj2vkz259guma30,3zazr5xv05vdgjhjfprmyiw3ehdzch,pfDr4H2V,2020-0188,2020-05-08,11:59:56,12:14:02,NA,incomplete,147,number,0,left,Red_Circle_Stripes_4.jpg,Green_Star_Dots_4.jpg,Blue_Circle_Chess_2.jpg,left,787.2399999760091,true,low,NA,NA,NA,NA,NA,NA,NA,false
pfDr4H2V,36818z1kw6qmfrfyj2vkz259guma30,3zazr5xv05vdgjhjfprmyiw3ehdzch,pfDr4H2V,2020-0188,2020-05-08,11:59:56,12:14:02,NA,incomplete,148,number,1,left,Blue_Triangle_Grid_4.jpg,Red_Star_Chess_4.jpg,Green_Triangle_Stripes_1.jpg,right,772.1649999730289,false,low,NA,NA,NA,NA,NA,NA,NA,false
pfDr4H2V,36818z1kw6qmfrfyj2vkz259guma30,3zazr5xv05vdgjhjfprmyiw3ehdzch,pfDr4H2V,2020-0188,2020-05-08,11:59:56,12:14:02,NA,incomplete,149,number,1,right,Blue_Circle_Chess_2.jpg,Purple_Circle_Dots_4.jpg,Green_Triangle_Stripes_2.jpg,left,819.724999833852,false,low,NA,NA,NA,NA,NA,NA,NA,false
pfDr4H2V,36818z1kw6qmfrfyj2vkz259guma30,3zazr5xv05vdgjhjfprmyiw3ehdzch,pfDr4H2V,2020-0188,2020-05-08,11:59:56,12:14:02,NA,incomplete,150,number,1,right,Red_Plus_Stripes_1.jpg,Purple_Plus_Grid_2.jpg,Green_Triangle_Dots_1.jpg,right,913.7349999509752,true,low,NA,NA,NA,NA,NA,NA,NA,false
pfDr4H2V,36818z1kw6qmfrfyj2vkz259guma30,3zazr5xv05vdgjhjfprmyiw3ehdzch,pfDr4H2V,2020-0188,2020-05-08,11:59:56,12:14:02,NA,incomplete,151,number,1,right,Blue_Star_Stripes_1.jpg,Green_Star_Dots_2.jpg,Purple_Plus_Chess_1.jpg,right,991.9950000476092,true,low,NA,NA,NA,NA,NA,NA,NA,false
pfDr4H2V,36818z1kw6qmfrfyj2vkz259guma30,3zazr5xv05vdgjhjfprmyiw3ehdzch,pfDr4H2V,2020-0188,2020-05-08,11:59:56,12:14:02,NA,incomplete,152,number,1,right,Purple_Star_Chess_3.jpg,Red_Star_Dots_4.jpg,Blue_Circle_Grid_3.jpg,right,811.6950001567602,true,low,NA,NA,NA,NA,NA,NA,NA,false
pfDr4H2V,36818z1kw6qmfrfyj2vkz259guma30,3zazr5xv05vdgjhjfprmyiw3ehdzch,pfDr4H2V,2020-0188,2020-05-08,11:59:56,12:14:02,NA,incomplete,153,number,1,left,Red_Triangle_Grid_1.jpg,Blue_Star_Dots_1.jpg,Purple_Triangle_Chess_4.jpg,left,810.7149999123067,true,low,NA,NA,NA,NA,NA,NA,NA,false
pfDr4H2V,36818z1kw6qmfrfyj2vkz259guma30,3zazr5xv05vdgjhjfprmyiw3ehdzch,pfDr4H2V,2020-0188,2020-05-08,11:59:56,12:14:02,NA,incomplete,154,number,0,left,Blue_Circle_Stripes_2.jpg,Red_Star_Dots_2.jpg,Green_Circle_Chess_1.jpg,left,629.3800000566989,true,low,NA,NA,NA,NA,NA,NA,NA,false
pfDr4H2V,36818z1kw6qmfrfyj2vkz259guma30,3zazr5xv05vdgjhjfprmyiw3ehdzch,pfDr4H2V,2020-0188,2020-05-08,11:59:56,12:14:02,NA,incomplete,155,number,1,right,Green_Plus_Grid_2.jpg,Red_Plus_Chess_3.jpg,Purple_Circle_Dots_2.jpg,right,844.4450001697987,true,low,NA,NA,NA,NA,NA,NA,NA,false
pfDr4H2V,36818z1kw6qmfrfyj2vkz259guma30,3zazr5xv05vdgjhjfprmyiw3ehdzch,pfDr4H2V,2020-0188,2020-05-08,11:59:56,12:14:02,NA,incomplete,156,number,0,left,Blue_Plus_Chess_2.jpg,Red_Circle_Dots_2.jpg,Green_Plus_Stripes_3.jpg,left,608.3050000015646,true,low,NA,NA,NA,NA,NA,NA,NA,false
pfDr4H2V,36818z1kw6qmfrfyj2vkz259guma30,3zazr5xv05vdgjhjfprmyiw3ehdzch,pfDr4H2V,2020-0188,2020-05-08,11:59:56,12:14:02,NA,incomplete,157,number,1,right,Red_Plus_Chess_2.jpg,Purple_Plus_Stripes_3.jpg,Blue_Circle_Grid_2.jpg,right,890.3349998872727,true,low,NA,NA,NA,NA,NA,NA,NA,false
pfDr4H2V,36818z1kw6qmfrfyj2vkz259guma30,3zazr5xv05vdgjhjfprmyiw3ehdzch,pfDr4H2V,2020-0188,2020-05-08,11:59:56,12:14:02,NA,incomplete,158,number,0,left,Purple_Circle_Grid_2.jpg,Green_Plus_Dots_2.jpg,Blue_Circle_Chess_3.jpg,left,724.5500001590699,true,low,NA,NA,NA,NA,NA,NA,NA,false
pfDr4H2V,36818z1kw6qmfrfyj2vkz259guma30,3zazr5xv05vdgjhjfprmyiw3ehdzch,pfDr4H2V,2020-0188,2020-05-08,11:59:56,12:14:02,NA,incomplete,159,number,1,right,Red_Circle_Grid_2.jpg,Blue_Circle_Chess_3.jpg,Purple_Plus_Stripes_2.jpg,right,805.7150000240654,true,low,NA,NA,NA,NA,NA,NA,NA,false
pfDr4H2V,36818z1kw6qmfrfyj2vkz259guma30,3zazr5xv05vdgjhjfprmyiw3ehdzch,pfDr4H2V,2020-0188,2020-05-08,11:59:56,12:14:02,NA,incomplete,160,shape,1,right,Red_Plus_Stripes_2.jpg,Purple_Circle_Grid_2.jpg,Blue_Plus_Chess_4.jpg,left,597.9800000786781,false,low,NA,NA,NA,NA,NA,NA,NA,false
pfDr4H2V,36818z1kw6qmfrfyj2vkz259guma30,3zazr5xv05vdgjhjfprmyiw3ehdzch,pfDr4H2V,2020-0188,2020-05-08,11:59:56,12:14:02,NA,incomplete,161,shape,1,right,Purple_Star_Grid_2.jpg,Blue_Plus_Stripes_2.jpg,Green_Star_Chess_1.jpg,left,737.4249999411404,false,low,NA,NA,NA,NA,NA,NA,NA,false
pfDr4H2V,36818z1kw6qmfrfyj2vkz259guma30,3zazr5xv05vdgjhjfprmyiw3ehdzch,pfDr4H2V,2020-0188,2020-05-08,11:59:56,12:14:02,NA,incomplete,162,shape,1,left,Red_Star_Chess_3.jpg,Green_Star_Grid_2.jpg,Blue_Triangle_Stripes_3.jpg,left,770.3899999614805,true,low,NA,NA,NA,NA,NA,NA,NA,false
pfDr4H2V,36818z1kw6qmfrfyj2vkz259guma30,3zazr5xv05vdgjhjfprmyiw3ehdzch,pfDr4H2V,2020-0188,2020-05-08,11:59:56,12:14:02,NA,incomplete,163,shape,1,right,Blue_Plus_Chess_4.jpg,Purple_Star_Dots_4.jpg,Red_Plus_Grid_3.jpg,right,719.7799999266863,true,low,NA,NA,NA,NA,NA,NA,NA,false
pfDr4H2V,36818z1kw6qmfrfyj2vkz259guma30,3zazr5xv05vdgjhjfprmyiw3ehdzch,pfDr4H2V,2020-0188,2020-05-08,11:59:56,12:14:02,NA,incomplete,164,shape,0,right,Purple_Circle_Stripes_4.jpg,Green_Star_Dots_4.jpg,Red_Circle_Grid_1.jpg,right,776.0300000663847,true,low,NA,NA,NA,NA,NA,NA,NA,false
pfDr4H2V,36818z1kw6qmfrfyj2vkz259guma30,3zazr5xv05vdgjhjfprmyiw3ehdzch,pfDr4H2V,2020-0188,2020-05-08,11:59:56,12:14:02,NA,incomplete,165,shape,1,left,Red_Circle_Stripes_1.jpg,Purple_Circle_Chess_3.jpg,Blue_Triangle_Grid_1.jpg,left,688.0399999208748,true,low,NA,NA,NA,NA,NA,NA,NA,false
pfDr4H2V,36818z1kw6qmfrfyj2vkz259guma30,3zazr5xv05vdgjhjfprmyiw3ehdzch,pfDr4H2V,2020-0188,2020-05-08,11:59:56,12:14:02,NA,incomplete,166,shape,1,left,Green_Triangle_Chess_1.jpg,Purple_Triangle_Dots_3.jpg,Red_Plus_Grid_1.jpg,left,665.8600000664592,true,low,NA,NA,NA,NA,NA,NA,NA,false
pfDr4H2V,36818z1kw6qmfrfyj2vkz259guma30,3zazr5xv05vdgjhjfprmyiw3ehdzch,pfDr4H2V,2020-0188,2020-05-08,11:59:56,12:14:02,NA,incomplete,167,shape,1,right,Purple_Circle_Chess_1.jpg,Blue_Plus_Stripes_1.jpg,Red_Circle_Grid_4.jpg,right,638.2949999533594,true,low,NA,NA,NA,NA,NA,NA,NA,false
pfDr4H2V,36818z1kw6qmfrfyj2vkz259guma30,3zazr5xv05vdgjhjfprmyiw3ehdzch,pfDr4H2V,2020-0188,2020-05-08,11:59:56,12:14:02,NA,incomplete,168,shape,1,right,Red_Plus_Grid_1.jpg,Blue_Circle_Stripes_1.jpg,Purple_Plus_Dots_3.jpg,right,676.3250001240522,true,low,NA,NA,NA,NA,NA,NA,NA,false
pfDr4H2V,36818z1kw6qmfrfyj2vkz259guma30,3zazr5xv05vdgjhjfprmyiw3ehdzch,pfDr4H2V,2020-0188,2020-05-08,11:59:56,12:14:02,NA,incomplete,169,shape,1,left,Red_Plus_Stripes_2.jpg,Purple_Plus_Grid_3.jpg,Blue_Circle_Dots_2.jpg,left,699.4549999944866,true,low,NA,NA,NA,NA,NA,NA,NA,false
pfDr4H2V,36818z1kw6qmfrfyj2vkz259guma30,3zazr5xv05vdgjhjfprmyiw3ehdzch,pfDr4H2V,2020-0188,2020-05-08,11:59:56,12:14:02,NA,incomplete,170,shape,1,left,Red_Circle_Grid_2.jpg,Blue_Circle_Dots_4.jpg,Green_Plus_Stripes_2.jpg,left,752.1200000774115,true,low,NA,NA,NA,NA,NA,NA,NA,false
pfDr4H2V,36818z1kw6qmfrfyj2vkz259guma30,3zazr5xv05vdgjhjfprmyiw3ehdzch,pfDr4H2V,2020-0188,2020-05-08,11:59:56,12:14:02,NA,incomplete,171,shape,1,left,Purple_Star_Dots_3.jpg,Blue_Star_Stripes_2.jpg,Red_Triangle_Grid_3.jpg,left,649.6449999976903,true,low,NA,NA,NA,NA,NA,NA,NA,false
pfDr4H2V,36818z1kw6qmfrfyj2vkz259guma30,3zazr5xv05vdgjhjfprmyiw3ehdzch,pfDr4H2V,2020-0188,2020-05-08,11:59:56,12:14:02,NA,incomplete,172,shape,1,left,Red_Circle_Stripes_3.jpg,Blue_Circle_Chess_1.jpg,Green_Triangle_Grid_3.jpg,left,816.9099998194724,true,low,NA,NA,NA,NA,NA,NA,NA,false
pfDr4H2V,36818z1kw6qmfrfyj2vkz259guma30,3zazr5xv05vdgjhjfprmyiw3ehdzch,pfDr4H2V,2020-0188,2020-05-08,11:59:56,12:14:02,NA,incomplete,173,shape,1,right,Red_Star_Chess_1.jpg,Green_Plus_Stripes_1.jpg,Purple_Star_Dots_2.jpg,right,749.0499999839813,true,low,NA,NA,NA,NA,NA,NA,NA,false
pfDr4H2V,36818z1kw6qmfrfyj2vkz259guma30,3zazr5xv05vdgjhjfprmyiw3ehdzch,pfDr4H2V,2020-0188,2020-05-08,11:59:56,12:14:02,NA,incomplete,174,shape,1,left,Blue_Plus_Stripes_4.jpg,Purple_Plus_Grid_1.jpg,Green_Star_Chess_4.jpg,left,613.3250000420958,true,low,NA,NA,NA,NA,NA,NA,NA,false
pfDr4H2V,36818z1kw6qmfrfyj2vkz259guma30,3zazr5xv05vdgjhjfprmyiw3ehdzch,pfDr4H2V,2020-0188,2020-05-08,11:59:56,12:14:02,NA,incomplete,175,shape,1,right,Red_Star_Stripes_4.jpg,Blue_Triangle_Grid_4.jpg,Purple_Star_Dots_3.jpg,right,688.7000000569969,true,low,NA,NA,NA,NA,NA,NA,NA,false
pfDr4H2V,36818z1kw6qmfrfyj2vkz259guma30,3zazr5xv05vdgjhjfprmyiw3ehdzch,pfDr4H2V,2020-0188,2020-05-08,11:59:56,12:14:02,NA,incomplete,176,shape,1,left,Green_Circle_Stripes_3.jpg,Red_Circle_Grid_2.jpg,Blue_Star_Chess_3.jpg,left,576.0749999899417,true,low,NA,NA,NA,NA,NA,NA,NA,false
pfDr4H2V,36818z1kw6qmfrfyj2vkz259guma30,3zazr5xv05vdgjhjfprmyiw3ehdzch,pfDr4H2V,2020-0188,2020-05-08,11:59:56,12:14:02,NA,incomplete,177,shape,1,right,Red_Plus_Grid_2.jpg,Green_Circle_Dots_2.jpg,Blue_Plus_Chess_4.jpg,right,653.9000000339001,true,low,NA,NA,NA,NA,NA,NA,NA,false
pfDr4H2V,36818z1kw6qmfrfyj2vkz259guma30,3zazr5xv05vdgjhjfprmyiw3ehdzch,pfDr4H2V,2020-0188,2020-05-08,11:59:56,12:14:02,NA,incomplete,178,shape,1,right,Purple_Triangle_Stripes_2.jpg,Blue_Plus_Dots_2.jpg,Red_Triangle_Grid_1.jpg,right,729.469999903813,true,low,NA,NA,NA,NA,NA,NA,NA,false
pfDr4H2V,36818z1kw6qmfrfyj2vkz259guma30,3zazr5xv05vdgjhjfprmyiw3ehdzch,pfDr4H2V,2020-0188,2020-05-08,11:59:56,12:14:02,NA,incomplete,179,shape,1,right,Blue_Plus_Chess_4.jpg,Red_Star_Grid_4.jpg,Green_Plus_Stripes_2.jpg,right,849.1050000302494,true,low,NA,NA,NA,NA,NA,NA,NA,false
pfDr4H2V,36818z1kw6qmfrfyj2vkz259guma30,3zazr5xv05vdgjhjfprmyiw3ehdzch,pfDr4H2V,2020-0188,2020-05-08,11:59:56,12:14:02,NA,incomplete,180,number,1,left,Blue_Circle_Chess_1.jpg,Green_Star_Stripes_1.jpg,Red_Circle_Dots_2.jpg,right,639.3949999473989,false,low,NA,NA,NA,NA,NA,NA,NA,false
pfDr4H2V,36818z1kw6qmfrfyj2vkz259guma30,3zazr5xv05vdgjhjfprmyiw3ehdzch,pfDr4H2V,2020-0188,2020-05-08,11:59:56,12:14:02,NA,incomplete,181,number,1,left,Blue_Triangle_Stripes_3.jpg,Purple_Circle_Chess_3.jpg,Red_Triangle_Grid_2.jpg,right,742.1899999026209,false,low,NA,NA,NA,NA,NA,NA,NA,false
pfDr4H2V,36818z1kw6qmfrfyj2vkz259guma30,3zazr5xv05vdgjhjfprmyiw3ehdzch,pfDr4H2V,2020-0188,2020-05-08,11:59:56,12:14:02,NA,incomplete,182,number,1,right,Green_Triangle_Stripes_3.jpg,Purple_Triangle_Chess_2.jpg,Blue_Circle_Grid_3.jpg,right,732.5699999928474,true,low,NA,NA,NA,NA,NA,NA,NA,false
pfDr4H2V,36818z1kw6qmfrfyj2vkz259guma30,3zazr5xv05vdgjhjfprmyiw3ehdzch,pfDr4H2V,2020-0188,2020-05-08,11:59:56,12:14:02,NA,incomplete,183,number,1,right,Red_Star_Stripes_4.jpg,Purple_Star_Dots_3.jpg,Blue_Plus_Chess_4.jpg,left,770.0149999000132,false,low,NA,NA,NA,NA,NA,NA,NA,false
pfDr4H2V,36818z1kw6qmfrfyj2vkz259guma30,3zazr5xv05vdgjhjfprmyiw3ehdzch,pfDr4H2V,2020-0188,2020-05-08,11:59:56,12:14:02,NA,incomplete,184,number,1,left,Blue_Triangle_Chess_1.jpg,Red_Plus_Stripes_1.jpg,Purple_Triangle_Dots_4.jpg,left,707.484999904409,true,low,NA,NA,NA,NA,NA,NA,NA,false
pfDr4H2V,36818z1kw6qmfrfyj2vkz259guma30,3zazr5xv05vdgjhjfprmyiw3ehdzch,pfDr4H2V,2020-0188,2020-05-08,11:59:56,12:14:02,NA,incomplete,185,number,1,right,Green_Star_Dots_3.jpg,Red_Star_Chess_4.jpg,Blue_Circle_Grid_3.jpg,right,729.649999877438,true,low,NA,NA,NA,NA,NA,NA,NA,false
pfDr4H2V,36818z1kw6qmfrfyj2vkz259guma30,3zazr5xv05vdgjhjfprmyiw3ehdzch,pfDr4H2V,2020-0188,2020-05-08,11:59:56,12:14:02,NA,incomplete,186,number,1,left,Purple_Circle_Grid_1.jpg,Green_Plus_Dots_1.jpg,Red_Circle_Chess_4.jpg,left,642.0650000218302,true,low,NA,NA,NA,NA,NA,NA,NA,false
pfDr4H2V,36818z1kw6qmfrfyj2vkz259guma30,3zazr5xv05vdgjhjfprmyiw3ehdzch,pfDr4H2V,2020-0188,2020-05-08,11:59:56,12:14:02,NA,incomplete,187,number,0,left,Green_Star_Stripes_1.jpg,Purple_Triangle_Dots_1.jpg,Red_Star_Chess_3.jpg,left,669.0299999900162,true,low,NA,NA,NA,NA,NA,NA,NA,false
pfDr4H2V,36818z1kw6qmfrfyj2vkz259guma30,3zazr5xv05vdgjhjfprmyiw3ehdzch,pfDr4H2V,2020-0188,2020-05-08,11:59:56,12:14:02,NA,incomplete,188,number,1,left,Purple_Triangle_Stripes_4.jpg,Red_Star_Chess_4.jpg,Green_Triangle_Grid_3.jpg,left,808.1149999052286,true,low,NA,NA,NA,NA,NA,NA,NA,false
pfDr4H2V,36818z1kw6qmfrfyj2vkz259guma30,3zazr5xv05vdgjhjfprmyiw3ehdzch,pfDr4H2V,2020-0188,2020-05-08,11:59:56,12:14:02,NA,incomplete,189,number,1,left,Red_Circle_Grid_2.jpg,Blue_Triangle_Stripes_2.jpg,Green_Circle_Chess_1.jpg,left,666.2900000810623,true,low,NA,NA,NA,NA,NA,NA,NA,false
pfDr4H2V,36818z1kw6qmfrfyj2vkz259guma30,3zazr5xv05vdgjhjfprmyiw3ehdzch,pfDr4H2V,2020-0188,2020-05-08,11:59:56,12:14:02,NA,incomplete,190,number,0,left,Purple_Triangle_Grid_4.jpg,Blue_Star_Dots_4.jpg,Green_Triangle_Stripes_2.jpg,left,612.3799998313189,true,low,NA,NA,NA,NA,NA,NA,NA,false
pfDr4H2V,36818z1kw6qmfrfyj2vkz259guma30,3zazr5xv05vdgjhjfprmyiw3ehdzch,pfDr4H2V,2020-0188,2020-05-08,11:59:56,12:14:02,NA,incomplete,191,number,1,right,Red_Triangle_Stripes_3.jpg,Purple_Triangle_Chess_2.jpg,Blue_Circle_Grid_3.jpg,right,678.9950001984835,true,low,NA,NA,NA,NA,NA,NA,NA,false
pfDr4H2V,36818z1kw6qmfrfyj2vkz259guma30,3zazr5xv05vdgjhjfprmyiw3ehdzch,pfDr4H2V,2020-0188,2020-05-08,11:59:56,12:14:02,NA,incomplete,192,number,1,left,Blue_Triangle_Chess_1.jpg,Green_Star_Dots_1.jpg,Red_Triangle_Grid_2.jpg,left,570.049999980256,true,low,NA,NA,NA,NA,NA,NA,NA,false
pfDr4H2V,36818z1kw6qmfrfyj2vkz259guma30,3zazr5xv05vdgjhjfprmyiw3ehdzch,pfDr4H2V,2020-0188,2020-05-08,11:59:56,12:14:02,NA,incomplete,193,number,1,right,Purple_Plus_Grid_4.jpg,Green_Plus_Chess_1.jpg,Blue_Circle_Stripes_4.jpg,right,645.2450000215322,true,low,NA,NA,NA,NA,NA,NA,NA,false
pfDr4H2V,36818z1kw6qmfrfyj2vkz259guma30,3zazr5xv05vdgjhjfprmyiw3ehdzch,pfDr4H2V,2020-0188,2020-05-08,11:59:56,12:14:02,NA,incomplete,194,number,1,right,Red_Triangle_Dots_3.jpg,Blue_Triangle_Chess_1.jpg,Purple_Plus_Stripes_3.jpg,right,631.1999999452382,true,low,NA,NA,NA,NA,NA,NA,NA,false
pfDr4H2V,36818z1kw6qmfrfyj2vkz259guma30,3zazr5xv05vdgjhjfprmyiw3ehdzch,pfDr4H2V,2020-0188,2020-05-08,11:59:56,12:14:02,NA,incomplete,195,number,1,left,Blue_Star_Chess_2.jpg,Green_Plus_Dots_2.jpg,Purple_Star_Grid_3.jpg,left,692.9199998266995,true,low,NA,NA,NA,NA,NA,NA,NA,false
pfDr4H2V,36818z1kw6qmfrfyj2vkz259guma30,3zazr5xv05vdgjhjfprmyiw3ehdzch,pfDr4H2V,2020-0188,2020-05-08,11:59:56,12:14:02,NA,incomplete,196,number,1,left,Red_Plus_Chess_3.jpg,Blue_Star_Stripes_3.jpg,Purple_Plus_Dots_4.jpg,left,617.6449998747557,true,low,NA,NA,NA,NA,NA,NA,NA,false
pfDr4H2V,36818z1kw6qmfrfyj2vkz259guma30,3zazr5xv05vdgjhjfprmyiw3ehdzch,pfDr4H2V,2020-0188,2020-05-08,11:59:56,12:14:02,NA,incomplete,197,number,1,left,Blue_Star_Stripes_2.jpg,Purple_Circle_Grid_2.jpg,Green_Star_Chess_4.jpg,left,568.1050000712276,true,low,NA,NA,NA,NA,NA,NA,NA,false
pfDr4H2V,36818z1kw6qmfrfyj2vkz259guma30,3zazr5xv05vdgjhjfprmyiw3ehdzch,pfDr4H2V,2020-0188,2020-05-08,11:59:56,12:14:02,NA,incomplete,198,number,1,left,Red_Plus_Grid_1.jpg,Green_Triangle_Chess_1.jpg,Blue_Plus_Dots_2.jpg,left,585.8450001105666,true,low,NA,NA,NA,NA,NA,NA,NA,false
pfDr4H2V,36818z1kw6qmfrfyj2vkz259guma30,3zazr5xv05vdgjhjfprmyiw3ehdzch,pfDr4H2V,2020-0188,2020-05-08,11:59:56,12:14:02,NA,incomplete,199,number,1,left,Blue_Triangle_Stripes_1.jpg,Green_Plus_Dots_1.jpg,Purple_Triangle_Chess_2.jpg,left,567.2550001181662,true,low,NA,NA,NA,NA,NA,NA,NA,false
pfDr4H2V,36818z1kw6qmfrfyj2vkz259guma30,3zazr5xv05vdgjhjfprmyiw3ehdzch,pfDr4H2V,2020-0188,2020-05-08,11:59:56,12:14:02,NA,incomplete,200,shape,1,right,Purple_Circle_Chess_1.jpg,Blue_Triangle_Dots_1.jpg,Green_Circle_Grid_4.jpg,left,564.6750000305474,false,low,NA,NA,NA,NA,NA,NA,NA,false
pfDr4H2V,36818z1kw6qmfrfyj2vkz259guma30,3zazr5xv05vdgjhjfprmyiw3ehdzch,pfDr4H2V,2020-0188,2020-05-08,11:59:56,12:14:02,NA,incomplete,201,shape,1,left,Purple_Plus_Dots_1.jpg,Blue_Plus_Chess_2.jpg,Green_Star_Grid_1.jpg,right,590.6850001774728,false,low,NA,NA,NA,NA,NA,NA,NA,false
pfDr4H2V,36818z1kw6qmfrfyj2vkz259guma30,3zazr5xv05vdgjhjfprmyiw3ehdzch,pfDr4H2V,2020-0188,2020-05-08,11:59:56,12:14:02,NA,incomplete,202,shape,1,right,Green_Triangle_Grid_1.jpg,Purple_Star_Dots_1.jpg,Blue_Triangle_Chess_3.jpg,right,810.2599999401718,true,low,NA,NA,NA,NA,NA,NA,NA,false
pfDr4H2V,36818z1kw6qmfrfyj2vkz259guma30,3zazr5xv05vdgjhjfprmyiw3ehdzch,pfDr4H2V,2020-0188,2020-05-08,11:59:56,12:14:02,NA,incomplete,203,shape,1,right,Red_Star_Chess_3.jpg,Blue_Triangle_Dots_3.jpg,Purple_Star_Grid_2.jpg,right,784.8549999762326,true,low,NA,NA,NA,NA,NA,NA,NA,false
pfDr4H2V,36818z1kw6qmfrfyj2vkz259guma30,3zazr5xv05vdgjhjfprmyiw3ehdzch,pfDr4H2V,2020-0188,2020-05-08,11:59:56,12:14:02,NA,incomplete,204,shape,0,left,Green_Circle_Stripes_1.jpg,Red_Circle_Grid_2.jpg,Purple_Plus_Dots_1.jpg,left,576.4899998903275,true,low,NA,NA,NA,NA,NA,NA,NA,false
pfDr4H2V,36818z1kw6qmfrfyj2vkz259guma30,3zazr5xv05vdgjhjfprmyiw3ehdzch,pfDr4H2V,2020-0188,2020-05-08,11:59:56,12:14:02,NA,incomplete,205,shape,1,right,Purple_Circle_Chess_2.jpg,Red_Plus_Stripes_2.jpg,Green_Circle_Dots_1.jpg,right,664.0199997927994,true,low,NA,NA,NA,NA,NA,NA,NA,false
pfDr4H2V,36818z1kw6qmfrfyj2vkz259guma30,3zazr5xv05vdgjhjfprmyiw3ehdzch,pfDr4H2V,2020-0188,2020-05-08,11:59:56,12:14:02,NA,incomplete,206,shape,0,right,Purple_Star_Dots_1.jpg,Red_Plus_Grid_1.jpg,Blue_Star_Stripes_3.jpg,right,630.3199999965727,true,low,NA,NA,NA,NA,NA,NA,NA,false
pfDr4H2V,36818z1kw6qmfrfyj2vkz259guma30,3zazr5xv05vdgjhjfprmyiw3ehdzch,pfDr4H2V,2020-0188,2020-05-08,11:59:56,12:14:02,NA,incomplete,207,shape,1,right,Green_Triangle_Stripes_4.jpg,Purple_Circle_Chess_4.jpg,Blue_Triangle_Dots_2.jpg,left,603.0200000386685,false,low,NA,NA,NA,NA,NA,NA,NA,false
pfDr4H2V,36818z1kw6qmfrfyj2vkz259guma30,3zazr5xv05vdgjhjfprmyiw3ehdzch,pfDr4H2V,2020-0188,2020-05-08,11:59:56,12:14:02,NA,incomplete,208,shape,0,right,Red_Plus_Chess_4.jpg,Blue_Circle_Grid_4.jpg,Green_Plus_Dots_1.jpg,right,656.554999994114,true,low,NA,NA,NA,NA,NA,NA,NA,false
pfDr4H2V,36818z1kw6qmfrfyj2vkz259guma30,3zazr5xv05vdgjhjfprmyiw3ehdzch,pfDr4H2V,2020-0188,2020-05-08,11:59:56,12:14:02,NA,incomplete,209,shape,1,right,Purple_Circle_Chess_4.jpg,Green_Triangle_Dots_4.jpg,Red_Circle_Stripes_2.jpg,left,765.9849999472499,false,low,NA,NA,NA,NA,NA,NA,NA,false
pfDr4H2V,36818z1kw6qmfrfyj2vkz259guma30,3zazr5xv05vdgjhjfprmyiw3ehdzch,pfDr4H2V,2020-0188,2020-05-08,11:59:56,12:14:02,NA,incomplete,210,shape,1,left,Blue_Star_Dots_3.jpg,Green_Star_Grid_2.jpg,Purple_Triangle_Chess_3.jpg,left,620.4450000077486,true,low,NA,NA,NA,NA,NA,NA,NA,false
pfDr4H2V,36818z1kw6qmfrfyj2vkz259guma30,3zazr5xv05vdgjhjfprmyiw3ehdzch,pfDr4H2V,2020-0188,2020-05-08,11:59:56,12:14:02,NA,incomplete,211,shape,1,left,Blue_Star_Dots_2.jpg,Purple_Star_Chess_4.jpg,Green_Triangle_Grid_2.jpg,left,599.9350000638515,true,low,NA,NA,NA,NA,NA,NA,NA,false
pfDr4H2V,36818z1kw6qmfrfyj2vkz259guma30,3zazr5xv05vdgjhjfprmyiw3ehdzch,pfDr4H2V,2020-0188,2020-05-08,11:59:56,12:14:02,NA,incomplete,212,shape,1,right,Red_Triangle_Chess_1.jpg,Purple_Plus_Grid_1.jpg,Blue_Triangle_Dots_3.jpg,right,620.1649999711663,true,low,NA,NA,NA,NA,NA,NA,NA,false
pfDr4H2V,36818z1kw6qmfrfyj2vkz259guma30,3zazr5xv05vdgjhjfprmyiw3ehdzch,pfDr4H2V,2020-0188,2020-05-08,11:59:56,12:14:02,NA,incomplete,213,shape,0,left,Purple_Triangle_Dots_2.jpg,Green_Triangle_Grid_4.jpg,Red_Circle_Chess_2.jpg,left,545.2899998053908,true,low,NA,NA,NA,NA,NA,NA,NA,false
pfDr4H2V,36818z1kw6qmfrfyj2vkz259guma30,3zazr5xv05vdgjhjfprmyiw3ehdzch,pfDr4H2V,2020-0188,2020-05-08,11:59:56,12:14:02,NA,incomplete,214,shape,1,left,Green_Circle_Dots_1.jpg,Purple_Circle_Chess_3.jpg,Blue_Plus_Stripes_1.jpg,left,622.5600000470877,true,low,NA,NA,NA,NA,NA,NA,NA,false
pfDr4H2V,36818z1kw6qmfrfyj2vkz259guma30,3zazr5xv05vdgjhjfprmyiw3ehdzch,pfDr4H2V,2020-0188,2020-05-08,11:59:56,12:14:02,NA,incomplete,215,shape,1,left,Blue_Plus_Chess_1.jpg,Purple_Plus_Dots_2.jpg,Green_Star_Stripes_1.jpg,left,628.8599998224527,true,low,NA,NA,NA,NA,NA,NA,NA,false
pfDr4H2V,36818z1kw6qmfrfyj2vkz259guma30,3zazr5xv05vdgjhjfprmyiw3ehdzch,pfDr4H2V,2020-0188,2020-05-08,11:59:56,12:14:02,NA,incomplete,216,shape,1,right,Green_Triangle_Dots_3.jpg,Red_Circle_Grid_3.jpg,Blue_Triangle_Chess_2.jpg,right,808.6200000252575,true,low,NA,NA,NA,NA,NA,NA,NA,false
pfDr4H2V,36818z1kw6qmfrfyj2vkz259guma30,3zazr5xv05vdgjhjfprmyiw3ehdzch,pfDr4H2V,2020-0188,2020-05-08,11:59:56,12:14:02,NA,incomplete,217,shape,1,left,Blue_Circle_Grid_1.jpg,Purple_Circle_Dots_3.jpg,Red_Triangle_Stripes_1.jpg,left,550.9999999776483,true,low,NA,NA,NA,NA,NA,NA,NA,false
pfDr4H2V,36818z1kw6qmfrfyj2vkz259guma30,3zazr5xv05vdgjhjfprmyiw3ehdzch,pfDr4H2V,2020-0188,2020-05-08,11:59:56,12:14:02,NA,incomplete,218,shape,1,left,Blue_Plus_Grid_4.jpg,Purple_Plus_Chess_1.jpg,Red_Circle_Dots_4.jpg,left,640.5399998184294,true,low,NA,NA,NA,NA,NA,NA,NA,false
pfDr4H2V,36818z1kw6qmfrfyj2vkz259guma30,3zazr5xv05vdgjhjfprmyiw3ehdzch,pfDr4H2V,2020-0188,2020-05-08,11:59:56,12:14:02,NA,incomplete,219,shape,1,right,Purple_Triangle_Grid_3.jpg,Blue_Star_Dots_3.jpg,Green_Triangle_Stripes_1.jpg,right,609.4700000248849,true,low,NA,NA,NA,NA,NA,NA,NA,false
pfDr4H2V,36818z1kw6qmfrfyj2vkz259guma30,3zazr5xv05vdgjhjfprmyiw3ehdzch,pfDr4H2V,2020-0188,2020-05-08,11:59:56,12:14:02,NA,incomplete,220,number,0,right,Purple_Star_Stripes_1.jpg,Red_Star_Chess_3.jpg,Blue_Circle_Grid_1.jpg,left,539.6600000094622,false,low,NA,NA,NA,NA,NA,NA,NA,false
pfDr4H2V,36818z1kw6qmfrfyj2vkz259guma30,3zazr5xv05vdgjhjfprmyiw3ehdzch,pfDr4H2V,2020-0188,2020-05-08,11:59:56,12:14:02,NA,incomplete,221,number,1,left,Red_Star_Grid_3.jpg,Green_Plus_Chess_3.jpg,Blue_Star_Dots_4.jpg,right,700.3299999050796,false,low,NA,NA,NA,NA,NA,NA,NA,false
pfDr4H2V,36818z1kw6qmfrfyj2vkz259guma30,3zazr5xv05vdgjhjfprmyiw3ehdzch,pfDr4H2V,2020-0188,2020-05-08,11:59:56,12:14:02,NA,incomplete,222,number,1,right,Green_Star_Stripes_4.jpg,Blue_Star_Grid_3.jpg,Red_Circle_Chess_4.jpg,right,722.2049999982119,true,low,NA,NA,NA,NA,NA,NA,NA,false
pfDr4H2V,36818z1kw6qmfrfyj2vkz259guma30,3zazr5xv05vdgjhjfprmyiw3ehdzch,pfDr4H2V,2020-0188,2020-05-08,11:59:56,12:14:02,NA,incomplete,223,number,1,right,Blue_Star_Stripes_2.jpg,Purple_Star_Dots_3.jpg,Red_Triangle_Grid_2.jpg,right,659.8449999000877,true,low,NA,NA,NA,NA,NA,NA,NA,false
pfDr4H2V,36818z1kw6qmfrfyj2vkz259guma30,3zazr5xv05vdgjhjfprmyiw3ehdzch,pfDr4H2V,2020-0188,2020-05-08,11:59:56,12:14:02,NA,incomplete,224,number,1,right,Blue_Plus_Grid_3.jpg,Purple_Plus_Chess_4.jpg,Red_Triangle_Dots_3.jpg,right,860.2950000204146,true,low,NA,NA,NA,NA,NA,NA,NA,false
pfDr4H2V,36818z1kw6qmfrfyj2vkz259guma30,3zazr5xv05vdgjhjfprmyiw3ehdzch,pfDr4H2V,2020-0188,2020-05-08,11:59:56,12:14:02,NA,incomplete,225,number,0,left,Blue_Circle_Chess_3.jpg,Green_Plus_Dots_3.jpg,Purple_Circle_Stripes_1.jpg,right,782.2550002019852,false,low,NA,NA,NA,NA,NA,NA,NA,false
pfDr4H2V,36818z1kw6qmfrfyj2vkz259guma30,3zazr5xv05vdgjhjfprmyiw3ehdzch,pfDr4H2V,2020-0188,2020-05-08,11:59:56,12:14:02,NA,incomplete,226,number,1,left,Green_Star_Grid_1.jpg,Red_Plus_Dots_1.jpg,Purple_Star_Stripes_4.jpg,left,834.3949997797608,true,low,NA,NA,NA,NA,NA,NA,NA,false
pfDr4H2V,36818z1kw6qmfrfyj2vkz259guma30,3zazr5xv05vdgjhjfprmyiw3ehdzch,pfDr4H2V,2020-0188,2020-05-08,11:59:56,12:14:02,NA,incomplete,227,number,1,left,Blue_Plus_Chess_3.jpg,Green_Star_Grid_3.jpg,Purple_Plus_Stripes_4.jpg,left,612.9400001373142,true,low,NA,NA,NA,NA,NA,NA,NA,false
pfDr4H2V,36818z1kw6qmfrfyj2vkz259guma30,3zazr5xv05vdgjhjfprmyiw3ehdzch,pfDr4H2V,2020-0188,2020-05-08,11:59:56,12:14:02,NA,incomplete,228,number,1,right,Purple_Plus_Grid_1.jpg,Red_Plus_Dots_2.jpg,Green_Star_Chess_1.jpg,left,855.3249998949468,false,low,NA,NA,NA,NA,NA,NA,NA,false
pfDr4H2V,36818z1kw6qmfrfyj2vkz259guma30,3zazr5xv05vdgjhjfprmyiw3ehdzch,pfDr4H2V,2020-0188,2020-05-08,11:59:56,12:14:02,NA,incomplete,229,number,0,left,Red_Circle_Chess_1.jpg,Green_Star_Stripes_1.jpg,Purple_Circle_Dots_3.jpg,left,724.0549998823553,true,low,NA,NA,NA,NA,NA,NA,NA,false
pfDr4H2V,36818z1kw6qmfrfyj2vkz259guma30,3zazr5xv05vdgjhjfprmyiw3ehdzch,pfDr4H2V,2020-0188,2020-05-08,11:59:56,12:14:02,NA,incomplete,230,number,1,right,Purple_Circle_Grid_4.jpg,Red_Circle_Dots_1.jpg,Blue_Triangle_Stripes_4.jpg,left,672.2399999853224,false,low,NA,NA,NA,NA,NA,NA,NA,false
pfDr4H2V,36818z1kw6qmfrfyj2vkz259guma30,3zazr5xv05vdgjhjfprmyiw3ehdzch,pfDr4H2V,2020-0188,2020-05-08,11:59:56,12:14:02,NA,incomplete,231,number,0,left,Purple_Circle_Grid_1.jpg,Red_Plus_Dots_1.jpg,Green_Circle_Chess_3.jpg,left,653.8149998523295,true,low,NA,NA,NA,NA,NA,NA,NA,false
pfDr4H2V,36818z1kw6qmfrfyj2vkz259guma30,3zazr5xv05vdgjhjfprmyiw3ehdzch,pfDr4H2V,2020-0188,2020-05-08,11:59:56,12:14:02,NA,incomplete,232,number,1,left,Blue_Triangle_Dots_2.jpg,Green_Star_Stripes_2.jpg,Red_Triangle_Chess_3.jpg,right,756.5900001209229,false,low,NA,NA,NA,NA,NA,NA,NA,false
pfDr4H2V,36818z1kw6qmfrfyj2vkz259guma30,3zazr5xv05vdgjhjfprmyiw3ehdzch,pfDr4H2V,2020-0188,2020-05-08,11:59:56,12:14:02,NA,incomplete,233,number,1,right,Purple_Star_Chess_1.jpg,Blue_Star_Grid_2.jpg,Red_Plus_Stripes_1.jpg,right,798.8400000613183,true,low,NA,NA,NA,NA,NA,NA,NA,false
pfDr4H2V,36818z1kw6qmfrfyj2vkz259guma30,3zazr5xv05vdgjhjfprmyiw3ehdzch,pfDr4H2V,2020-0188,2020-05-08,11:59:56,12:14:02,NA,incomplete,234,number,0,left,Red_Star_Stripes_3.jpg,Blue_Circle_Dots_3.jpg,Green_Star_Chess_1.jpg,left,622.0250001642853,true,low,NA,NA,NA,NA,NA,NA,NA,false
pfDr4H2V,36818z1kw6qmfrfyj2vkz259guma30,3zazr5xv05vdgjhjfprmyiw3ehdzch,pfDr4H2V,2020-0188,2020-05-08,11:59:56,12:14:02,NA,incomplete,235,number,1,right,Purple_Plus_Grid_1.jpg,Green_Plus_Dots_4.jpg,Red_Triangle_Chess_1.jpg,right,719.7799999266863,true,low,NA,NA,NA,NA,NA,NA,NA,false
pfDr4H2V,36818z1kw6qmfrfyj2vkz259guma30,3zazr5xv05vdgjhjfprmyiw3ehdzch,pfDr4H2V,2020-0188,2020-05-08,11:59:56,12:14:02,NA,incomplete,236,number,1,right,Green_Circle_Stripes_4.jpg,Purple_Circle_Chess_3.jpg,Blue_Plus_Dots_4.jpg,right,673.7750000320375,true,low,NA,NA,NA,NA,NA,NA,NA,false
pfDr4H2V,36818z1kw6qmfrfyj2vkz259guma30,3zazr5xv05vdgjhjfprmyiw3ehdzch,pfDr4H2V,2020-0188,2020-05-08,11:59:56,12:14:02,NA,incomplete,237,number,0,right,Purple_Circle_Stripes_4.jpg,Blue_Circle_Grid_3.jpg,Red_Star_Chess_4.jpg,right,804.8700001090765,true,low,NA,NA,NA,NA,NA,NA,NA,false
pfDr4H2V,36818z1kw6qmfrfyj2vkz259guma30,3zazr5xv05vdgjhjfprmyiw3ehdzch,pfDr4H2V,2020-0188,2020-05-08,11:59:56,12:14:02,NA,incomplete,238,number,1,left,Purple_Star_Grid_4.jpg,Red_Triangle_Chess_4.jpg,Green_Star_Dots_1.jpg,left,658.4250000305474,true,low,NA,NA,NA,NA,NA,NA,NA,false
pfDr4H2V,36818z1kw6qmfrfyj2vkz259guma30,3zazr5xv05vdgjhjfprmyiw3ehdzch,pfDr4H2V,2020-0188,2020-05-08,11:59:56,12:14:02,NA,incomplete,239,number,1,left,Red_Plus_Chess_1.jpg,Green_Circle_Stripes_1.jpg,Blue_Plus_Grid_3.jpg,left,516.6099998168647,true,low,NA,NA,NA,NA,NA,NA,NA,false
pfDr4H2V,36818z1kw6qmfrfyj2vkz259guma30,3zazr5xv05vdgjhjfprmyiw3ehdzch,pfDr4H2V,2020-0188,2020-05-08,11:59:56,12:14:02,814417.5849999301,846492.6549999509,NA,NA,NA,NA,NA,NA,NA,NA,NA,NA,NA,33,White/Caucasian,Male,American,no,yes,no,undefined
