workerId,hitId,assignmentId,subject,studyid,exp_date,exp_start,exp_end,time_start,time_end,trial,type,reward_validity,answer,image_top,image_left,image_right,response,response_time,response_acc,volatility,age,race,gender,ethnicity,color,vision,neuro,practice
sf7ZQBOf,385mdvingfsu7ikqnsjzxyjp4abjww,3zr9aiqjufmdjuyeig8c9lht4xd04d,sf7ZQBOf,2020-0188,2020-05-08,10:46:21,11:02:07,NA,incomplete,0,shape,1,left,Blue_Star_Dots_1.jpg,Red_Star_Stripes_2.jpg,Purple_Plus_Chess_1.jpg,left,1637,true,NA,NA,NA,NA,NA,NA,NA,NA,true
sf7ZQBOf,385mdvingfsu7ikqnsjzxyjp4abjww,3zr9aiqjufmdjuyeig8c9lht4xd04d,sf7ZQBOf,2020-0188,2020-05-08,10:46:21,11:02:07,NA,incomplete,1,shape,1,right,Blue_Circle_Chess_2.jpg,Red_Plus_Dots_2.jpg,Green_Circle_Grid_4.jpg,right,1381,true,NA,NA,NA,NA,NA,NA,NA,NA,true
sf7ZQBOf,385mdvingfsu7ikqnsjzxyjp4abjww,3zr9aiqjufmdjuyeig8c9lht4xd04d,sf7ZQBOf,2020-0188,2020-05-08,10:46:21,11:02:07,NA,incomplete,2,shape,1,left,Blue_Star_Grid_1.jpg,Red_Star_Dots_3.jpg,Green_Triangle_Chess_1.jpg,left,1272,true,NA,NA,NA,NA,NA,NA,NA,NA,true
sf7ZQBOf,385mdvingfsu7ikqnsjzxyjp4abjww,3zr9aiqjufmdjuyeig8c9lht4xd04d,sf7ZQBOf,2020-0188,2020-05-08,10:46:21,11:02:07,NA,incomplete,3,shape,0,right,Green_Circle_Grid_3.jpg,Purple_Plus_Stripes_3.jpg,Red_Circle_Dots_2.jpg,right,976,true,NA,NA,NA,NA,NA,NA,NA,NA,true
sf7ZQBOf,385mdvingfsu7ikqnsjzxyjp4abjww,3zr9aiqjufmdjuyeig8c9lht4xd04d,sf7ZQBOf,2020-0188,2020-05-08,10:46:21,11:02:07,NA,incomplete,4,shape,1,left,Purple_Plus_Stripes_3.jpg,Green_Plus_Dots_4.jpg,Blue_Circle_Grid_3.jpg,left,1220,true,NA,NA,NA,NA,NA,NA,NA,NA,true
sf7ZQBOf,385mdvingfsu7ikqnsjzxyjp4abjww,3zr9aiqjufmdjuyeig8c9lht4xd04d,sf7ZQBOf,2020-0188,2020-05-08,10:46:21,11:02:07,NA,incomplete,5,shape,1,left,Red_Triangle_Grid_1.jpg,Blue_Triangle_Chess_3.jpg,Purple_Star_Stripes_1.jpg,left,1220,true,NA,NA,NA,NA,NA,NA,NA,NA,true
sf7ZQBOf,385mdvingfsu7ikqnsjzxyjp4abjww,3zr9aiqjufmdjuyeig8c9lht4xd04d,sf7ZQBOf,2020-0188,2020-05-08,10:46:21,11:02:07,NA,incomplete,6,shape,1,right,Green_Star_Dots_2.jpg,Red_Plus_Grid_2.jpg,Blue_Star_Chess_1.jpg,right,1093,true,NA,NA,NA,NA,NA,NA,NA,NA,true
sf7ZQBOf,385mdvingfsu7ikqnsjzxyjp4abjww,3zr9aiqjufmdjuyeig8c9lht4xd04d,sf7ZQBOf,2020-0188,2020-05-08,10:46:21,11:02:07,NA,incomplete,7,shape,1,left,Blue_Triangle_Grid_3.jpg,Red_Triangle_Dots_1.jpg,Purple_Circle_Chess_3.jpg,left,1237,true,NA,NA,NA,NA,NA,NA,NA,NA,true
sf7ZQBOf,385mdvingfsu7ikqnsjzxyjp4abjww,3zr9aiqjufmdjuyeig8c9lht4xd04d,sf7ZQBOf,2020-0188,2020-05-08,10:46:21,11:02:07,NA,incomplete,8,shape,1,left,Green_Circle_Grid_1.jpg,Red_Circle_Stripes_2.jpg,Blue_Triangle_Chess_1.jpg,left,1021,true,NA,NA,NA,NA,NA,NA,NA,NA,true
sf7ZQBOf,385mdvingfsu7ikqnsjzxyjp4abjww,3zr9aiqjufmdjuyeig8c9lht4xd04d,sf7ZQBOf,2020-0188,2020-05-08,10:46:21,11:02:07,NA,incomplete,9,shape,1,left,Purple_Star_Grid_3.jpg,Green_Star_Dots_4.jpg,Blue_Triangle_Stripes_3.jpg,left,1216,true,NA,NA,NA,NA,NA,NA,NA,NA,true
sf7ZQBOf,385mdvingfsu7ikqnsjzxyjp4abjww,3zr9aiqjufmdjuyeig8c9lht4xd04d,sf7ZQBOf,2020-0188,2020-05-08,10:46:21,11:02:07,NA,incomplete,10,shape,1,left,Blue_Plus_Chess_1.jpg,Purple_Plus_Grid_4.jpg,Green_Triangle_Dots_1.jpg,left,1001,true,NA,NA,NA,NA,NA,NA,NA,NA,true
sf7ZQBOf,385mdvingfsu7ikqnsjzxyjp4abjww,3zr9aiqjufmdjuyeig8c9lht4xd04d,sf7ZQBOf,2020-0188,2020-05-08,10:46:21,11:02:07,NA,incomplete,11,shape,1,right,Purple_Circle_Stripes_2.jpg,Red_Triangle_Grid_2.jpg,Green_Circle_Chess_3.jpg,right,1435,true,NA,NA,NA,NA,NA,NA,NA,NA,true
sf7ZQBOf,385mdvingfsu7ikqnsjzxyjp4abjww,3zr9aiqjufmdjuyeig8c9lht4xd04d,sf7ZQBOf,2020-0188,2020-05-08,10:46:21,11:02:07,NA,incomplete,12,shape,1,right,Red_Circle_Stripes_4.jpg,Purple_Star_Dots_4.jpg,Blue_Circle_Grid_3.jpg,right,819,true,NA,NA,NA,NA,NA,NA,NA,NA,true
sf7ZQBOf,385mdvingfsu7ikqnsjzxyjp4abjww,3zr9aiqjufmdjuyeig8c9lht4xd04d,sf7ZQBOf,2020-0188,2020-05-08,10:46:21,11:02:07,NA,incomplete,13,shape,0,left,Blue_Star_Stripes_3.jpg,Green_Star_Grid_4.jpg,Red_Circle_Chess_3.jpg,left,1183,true,NA,NA,NA,NA,NA,NA,NA,NA,true
sf7ZQBOf,385mdvingfsu7ikqnsjzxyjp4abjww,3zr9aiqjufmdjuyeig8c9lht4xd04d,sf7ZQBOf,2020-0188,2020-05-08,10:46:21,11:02:07,NA,incomplete,14,shape,1,right,Green_Star_Dots_4.jpg,Purple_Triangle_Chess_4.jpg,Blue_Star_Grid_3.jpg,right,1633,true,NA,NA,NA,NA,NA,NA,NA,NA,true
sf7ZQBOf,385mdvingfsu7ikqnsjzxyjp4abjww,3zr9aiqjufmdjuyeig8c9lht4xd04d,sf7ZQBOf,2020-0188,2020-05-08,10:46:21,11:02:07,NA,incomplete,15,shape,1,left,Blue_Plus_Grid_2.jpg,Red_Plus_Chess_3.jpg,Purple_Triangle_Dots_2.jpg,left,915,true,NA,NA,NA,NA,NA,NA,NA,NA,true
sf7ZQBOf,385mdvingfsu7ikqnsjzxyjp4abjww,3zr9aiqjufmdjuyeig8c9lht4xd04d,sf7ZQBOf,2020-0188,2020-05-08,10:46:21,11:02:07,NA,incomplete,16,shape,1,right,Purple_Circle_Stripes_3.jpg,Blue_Triangle_Dots_3.jpg,Green_Circle_Grid_4.jpg,right,992,true,NA,NA,NA,NA,NA,NA,NA,NA,true
sf7ZQBOf,385mdvingfsu7ikqnsjzxyjp4abjww,3zr9aiqjufmdjuyeig8c9lht4xd04d,sf7ZQBOf,2020-0188,2020-05-08,10:46:21,11:02:07,NA,incomplete,17,shape,0,left,Green_Circle_Stripes_2.jpg,Red_Circle_Dots_4.jpg,Purple_Plus_Chess_2.jpg,left,1149,true,NA,NA,NA,NA,NA,NA,NA,NA,true
sf7ZQBOf,385mdvingfsu7ikqnsjzxyjp4abjww,3zr9aiqjufmdjuyeig8c9lht4xd04d,sf7ZQBOf,2020-0188,2020-05-08,10:46:21,11:02:07,NA,incomplete,18,shape,1,left,Red_Plus_Stripes_3.jpg,Blue_Plus_Grid_2.jpg,Green_Star_Chess_3.jpg,left,1392,true,NA,NA,NA,NA,NA,NA,NA,NA,true
sf7ZQBOf,385mdvingfsu7ikqnsjzxyjp4abjww,3zr9aiqjufmdjuyeig8c9lht4xd04d,sf7ZQBOf,2020-0188,2020-05-08,10:46:21,11:02:07,NA,incomplete,19,shape,1,right,Blue_Plus_Grid_3.jpg,Green_Triangle_Dots_3.jpg,Red_Plus_Stripes_2.jpg,right,1027,true,NA,NA,NA,NA,NA,NA,NA,NA,true
sf7ZQBOf,385mdvingfsu7ikqnsjzxyjp4abjww,3zr9aiqjufmdjuyeig8c9lht4xd04d,sf7ZQBOf,2020-0188,2020-05-08,10:46:21,11:02:07,NA,incomplete,20,number,1,right,Blue_Circle_Stripes_3.jpg,Purple_Circle_Chess_1.jpg,Green_Plus_Dots_3.jpg,right,1787,true,NA,NA,NA,NA,NA,NA,NA,NA,true
sf7ZQBOf,385mdvingfsu7ikqnsjzxyjp4abjww,3zr9aiqjufmdjuyeig8c9lht4xd04d,sf7ZQBOf,2020-0188,2020-05-08,10:46:21,11:02:07,NA,incomplete,21,number,1,right,Green_Plus_Chess_4.jpg,Purple_Plus_Grid_2.jpg,Blue_Triangle_Dots_4.jpg,right,1302,true,NA,NA,NA,NA,NA,NA,NA,NA,true
sf7ZQBOf,385mdvingfsu7ikqnsjzxyjp4abjww,3zr9aiqjufmdjuyeig8c9lht4xd04d,sf7ZQBOf,2020-0188,2020-05-08,10:46:21,11:02:07,NA,incomplete,22,number,1,right,Purple_Triangle_Chess_4.jpg,Red_Triangle_Grid_2.jpg,Green_Star_Stripes_4.jpg,right,1077,true,NA,NA,NA,NA,NA,NA,NA,NA,true
sf7ZQBOf,385mdvingfsu7ikqnsjzxyjp4abjww,3zr9aiqjufmdjuyeig8c9lht4xd04d,sf7ZQBOf,2020-0188,2020-05-08,10:46:21,11:02:07,NA,incomplete,23,number,1,right,Purple_Triangle_Stripes_4.jpg,Green_Triangle_Dots_2.jpg,Red_Plus_Grid_4.jpg,right,1124,true,NA,NA,NA,NA,NA,NA,NA,NA,true
sf7ZQBOf,385mdvingfsu7ikqnsjzxyjp4abjww,3zr9aiqjufmdjuyeig8c9lht4xd04d,sf7ZQBOf,2020-0188,2020-05-08,10:46:21,11:02:07,NA,incomplete,24,number,1,right,Red_Star_Dots_2.jpg,Purple_Star_Stripes_3.jpg,Blue_Circle_Grid_2.jpg,right,1219,true,NA,NA,NA,NA,NA,NA,NA,NA,true
sf7ZQBOf,385mdvingfsu7ikqnsjzxyjp4abjww,3zr9aiqjufmdjuyeig8c9lht4xd04d,sf7ZQBOf,2020-0188,2020-05-08,10:46:21,11:02:07,NA,incomplete,25,number,1,right,Purple_Plus_Dots_1.jpg,Blue_Plus_Stripes_4.jpg,Green_Star_Grid_1.jpg,right,1234,true,NA,NA,NA,NA,NA,NA,NA,NA,true
sf7ZQBOf,385mdvingfsu7ikqnsjzxyjp4abjww,3zr9aiqjufmdjuyeig8c9lht4xd04d,sf7ZQBOf,2020-0188,2020-05-08,10:46:21,11:02:07,NA,incomplete,26,number,0,left,Purple_Star_Grid_3.jpg,Blue_Circle_Chess_3.jpg,Green_Star_Dots_4.jpg,left,1188,true,NA,NA,NA,NA,NA,NA,NA,NA,true
sf7ZQBOf,385mdvingfsu7ikqnsjzxyjp4abjww,3zr9aiqjufmdjuyeig8c9lht4xd04d,sf7ZQBOf,2020-0188,2020-05-08,10:46:21,11:02:07,NA,incomplete,27,number,1,left,Purple_Triangle_Grid_2.jpg,Green_Circle_Dots_2.jpg,Blue_Triangle_Chess_4.jpg,left,1175,true,NA,NA,NA,NA,NA,NA,NA,NA,true
sf7ZQBOf,385mdvingfsu7ikqnsjzxyjp4abjww,3zr9aiqjufmdjuyeig8c9lht4xd04d,sf7ZQBOf,2020-0188,2020-05-08,10:46:21,11:02:07,NA,incomplete,28,number,0,left,Green_Triangle_Stripes_1.jpg,Purple_Plus_Chess_1.jpg,Red_Triangle_Dots_3.jpg,left,1482,true,NA,NA,NA,NA,NA,NA,NA,NA,true
sf7ZQBOf,385mdvingfsu7ikqnsjzxyjp4abjww,3zr9aiqjufmdjuyeig8c9lht4xd04d,sf7ZQBOf,2020-0188,2020-05-08,10:46:21,11:02:07,NA,incomplete,29,number,1,left,Purple_Star_Chess_2.jpg,Blue_Triangle_Dots_2.jpg,Green_Star_Stripes_3.jpg,left,1272,true,NA,NA,NA,NA,NA,NA,NA,NA,true
sf7ZQBOf,385mdvingfsu7ikqnsjzxyjp4abjww,3zr9aiqjufmdjuyeig8c9lht4xd04d,sf7ZQBOf,2020-0188,2020-05-08,10:46:21,11:02:07,NA,incomplete,30,number,1,left,Blue_Circle_Dots_1.jpg,Green_Plus_Stripes_1.jpg,Red_Circle_Chess_4.jpg,left,1281,true,NA,NA,NA,NA,NA,NA,NA,NA,true
sf7ZQBOf,385mdvingfsu7ikqnsjzxyjp4abjww,3zr9aiqjufmdjuyeig8c9lht4xd04d,sf7ZQBOf,2020-0188,2020-05-08,10:46:21,11:02:07,NA,incomplete,31,number,0,right,Green_Star_Stripes_4.jpg,Blue_Star_Chess_2.jpg,Red_Plus_Grid_4.jpg,right,1296,true,NA,NA,NA,NA,NA,NA,NA,NA,true
sf7ZQBOf,385mdvingfsu7ikqnsjzxyjp4abjww,3zr9aiqjufmdjuyeig8c9lht4xd04d,sf7ZQBOf,2020-0188,2020-05-08,10:46:21,11:02:07,NA,incomplete,32,number,1,right,Blue_Circle_Grid_2.jpg,Purple_Circle_Chess_3.jpg,Red_Star_Dots_2.jpg,right,1358,true,NA,NA,NA,NA,NA,NA,NA,NA,true
sf7ZQBOf,385mdvingfsu7ikqnsjzxyjp4abjww,3zr9aiqjufmdjuyeig8c9lht4xd04d,sf7ZQBOf,2020-0188,2020-05-08,10:46:21,11:02:07,NA,incomplete,33,number,1,left,Blue_Star_Grid_2.jpg,Red_Triangle_Stripes_2.jpg,Purple_Star_Dots_1.jpg,left,1339,true,NA,NA,NA,NA,NA,NA,NA,NA,true
sf7ZQBOf,385mdvingfsu7ikqnsjzxyjp4abjww,3zr9aiqjufmdjuyeig8c9lht4xd04d,sf7ZQBOf,2020-0188,2020-05-08,10:46:21,11:02:07,NA,incomplete,34,number,0,right,Purple_Circle_Chess_4.jpg,Blue_Circle_Grid_3.jpg,Green_Plus_Dots_4.jpg,right,1070,true,NA,NA,NA,NA,NA,NA,NA,NA,true
sf7ZQBOf,385mdvingfsu7ikqnsjzxyjp4abjww,3zr9aiqjufmdjuyeig8c9lht4xd04d,sf7ZQBOf,2020-0188,2020-05-08,10:46:21,11:02:07,NA,incomplete,35,number,1,right,Green_Star_Chess_3.jpg,Red_Star_Stripes_4.jpg,Blue_Triangle_Dots_3.jpg,right,1384,true,NA,NA,NA,NA,NA,NA,NA,NA,true
sf7ZQBOf,385mdvingfsu7ikqnsjzxyjp4abjww,3zr9aiqjufmdjuyeig8c9lht4xd04d,sf7ZQBOf,2020-0188,2020-05-08,10:46:21,11:02:07,NA,incomplete,36,number,1,right,Purple_Circle_Dots_4.jpg,Green_Circle_Grid_3.jpg,Blue_Plus_Stripes_4.jpg,right,1578,true,NA,NA,NA,NA,NA,NA,NA,NA,true
sf7ZQBOf,385mdvingfsu7ikqnsjzxyjp4abjww,3zr9aiqjufmdjuyeig8c9lht4xd04d,sf7ZQBOf,2020-0188,2020-05-08,10:46:21,11:02:07,NA,incomplete,37,number,1,left,Purple_Star_Dots_1.jpg,Blue_Triangle_Chess_1.jpg,Green_Star_Grid_3.jpg,left,1198,true,NA,NA,NA,NA,NA,NA,NA,NA,true
sf7ZQBOf,385mdvingfsu7ikqnsjzxyjp4abjww,3zr9aiqjufmdjuyeig8c9lht4xd04d,sf7ZQBOf,2020-0188,2020-05-08,10:46:21,11:02:07,NA,incomplete,38,number,0,left,Green_Plus_Stripes_4.jpg,Purple_Circle_Grid_4.jpg,Blue_Plus_Dots_2.jpg,left,1166,true,NA,NA,NA,NA,NA,NA,NA,NA,true
sf7ZQBOf,385mdvingfsu7ikqnsjzxyjp4abjww,3zr9aiqjufmdjuyeig8c9lht4xd04d,sf7ZQBOf,2020-0188,2020-05-08,10:46:21,11:02:07,NA,incomplete,39,number,1,left,Blue_Plus_Chess_4.jpg,Green_Star_Grid_4.jpg,Red_Plus_Dots_1.jpg,left,1594,true,NA,NA,NA,NA,NA,NA,NA,NA,true
sf7ZQBOf,385mdvingfsu7ikqnsjzxyjp4abjww,3zr9aiqjufmdjuyeig8c9lht4xd04d,sf7ZQBOf,2020-0188,2020-05-08,10:46:21,11:02:07,NA,incomplete,0,shape,1,right,Red_Circle_Chess_4.jpg,Green_Star_Dots_4.jpg,Blue_Circle_Stripes_3.jpg,left,1487,false,high,NA,NA,NA,NA,NA,NA,NA,false
sf7ZQBOf,385mdvingfsu7ikqnsjzxyjp4abjww,3zr9aiqjufmdjuyeig8c9lht4xd04d,sf7ZQBOf,2020-0188,2020-05-08,10:46:21,11:02:07,NA,incomplete,1,shape,1,left,Green_Star_Dots_2.jpg,Purple_Star_Chess_1.jpg,Red_Plus_Grid_2.jpg,left,1007,true,high,NA,NA,NA,NA,NA,NA,NA,false
sf7ZQBOf,385mdvingfsu7ikqnsjzxyjp4abjww,3zr9aiqjufmdjuyeig8c9lht4xd04d,sf7ZQBOf,2020-0188,2020-05-08,10:46:21,11:02:07,NA,incomplete,2,shape,1,left,Blue_Triangle_Grid_2.jpg,Green_Triangle_Chess_1.jpg,Red_Circle_Stripes_2.jpg,left,936,true,high,NA,NA,NA,NA,NA,NA,NA,false
sf7ZQBOf,385mdvingfsu7ikqnsjzxyjp4abjww,3zr9aiqjufmdjuyeig8c9lht4xd04d,sf7ZQBOf,2020-0188,2020-05-08,10:46:21,11:02:07,NA,incomplete,3,shape,0,right,Red_Plus_Dots_4.jpg,Blue_Star_Grid_4.jpg,Purple_Plus_Chess_2.jpg,right,1020,true,high,NA,NA,NA,NA,NA,NA,NA,false
sf7ZQBOf,385mdvingfsu7ikqnsjzxyjp4abjww,3zr9aiqjufmdjuyeig8c9lht4xd04d,sf7ZQBOf,2020-0188,2020-05-08,10:46:21,11:02:07,NA,incomplete,4,shape,1,right,Green_Plus_Stripes_1.jpg,Blue_Star_Grid_1.jpg,Purple_Plus_Chess_2.jpg,right,836,true,high,NA,NA,NA,NA,NA,NA,NA,false
sf7ZQBOf,385mdvingfsu7ikqnsjzxyjp4abjww,3zr9aiqjufmdjuyeig8c9lht4xd04d,sf7ZQBOf,2020-0188,2020-05-08,10:46:21,11:02:07,NA,incomplete,5,shape,1,left,Blue_Plus_Chess_1.jpg,Purple_Plus_Dots_4.jpg,Red_Circle_Stripes_1.jpg,left,888,true,high,NA,NA,NA,NA,NA,NA,NA,false
sf7ZQBOf,385mdvingfsu7ikqnsjzxyjp4abjww,3zr9aiqjufmdjuyeig8c9lht4xd04d,sf7ZQBOf,2020-0188,2020-05-08,10:46:21,11:02:07,NA,incomplete,6,shape,1,left,Green_Triangle_Grid_4.jpg,Red_Triangle_Stripes_2.jpg,Purple_Plus_Dots_4.jpg,left,974,true,high,NA,NA,NA,NA,NA,NA,NA,false
sf7ZQBOf,385mdvingfsu7ikqnsjzxyjp4abjww,3zr9aiqjufmdjuyeig8c9lht4xd04d,sf7ZQBOf,2020-0188,2020-05-08,10:46:21,11:02:07,NA,incomplete,7,shape,0,right,Green_Circle_Stripes_4.jpg,Red_Plus_Grid_4.jpg,Blue_Circle_Chess_2.jpg,right,897,true,high,NA,NA,NA,NA,NA,NA,NA,false
sf7ZQBOf,385mdvingfsu7ikqnsjzxyjp4abjww,3zr9aiqjufmdjuyeig8c9lht4xd04d,sf7ZQBOf,2020-0188,2020-05-08,10:46:21,11:02:07,NA,incomplete,8,shape,1,left,Red_Triangle_Dots_2.jpg,Blue_Triangle_Grid_1.jpg,Green_Star_Chess_2.jpg,left,768,true,high,NA,NA,NA,NA,NA,NA,NA,false
sf7ZQBOf,385mdvingfsu7ikqnsjzxyjp4abjww,3zr9aiqjufmdjuyeig8c9lht4xd04d,sf7ZQBOf,2020-0188,2020-05-08,10:46:21,11:02:07,NA,incomplete,9,shape,1,right,Blue_Triangle_Dots_1.jpg,Green_Star_Stripes_1.jpg,Purple_Triangle_Grid_3.jpg,right,755,true,high,NA,NA,NA,NA,NA,NA,NA,false
sf7ZQBOf,385mdvingfsu7ikqnsjzxyjp4abjww,3zr9aiqjufmdjuyeig8c9lht4xd04d,sf7ZQBOf,2020-0188,2020-05-08,10:46:21,11:02:07,NA,incomplete,10,number,1,right,Red_Triangle_Grid_2.jpg,Green_Triangle_Stripes_3.jpg,Blue_Circle_Chess_2.jpg,left,928,false,high,NA,NA,NA,NA,NA,NA,NA,false
sf7ZQBOf,385mdvingfsu7ikqnsjzxyjp4abjww,3zr9aiqjufmdjuyeig8c9lht4xd04d,sf7ZQBOf,2020-0188,2020-05-08,10:46:21,11:02:07,NA,incomplete,11,number,1,right,Red_Star_Chess_1.jpg,Green_Star_Stripes_2.jpg,Blue_Circle_Dots_1.jpg,left,805,false,high,NA,NA,NA,NA,NA,NA,NA,false
sf7ZQBOf,385mdvingfsu7ikqnsjzxyjp4abjww,3zr9aiqjufmdjuyeig8c9lht4xd04d,sf7ZQBOf,2020-0188,2020-05-08,10:46:21,11:02:07,NA,incomplete,12,number,1,left,Red_Plus_Stripes_3.jpg,Purple_Star_Chess_3.jpg,Blue_Plus_Grid_1.jpg,left,1352,true,high,NA,NA,NA,NA,NA,NA,NA,false
sf7ZQBOf,385mdvingfsu7ikqnsjzxyjp4abjww,3zr9aiqjufmdjuyeig8c9lht4xd04d,sf7ZQBOf,2020-0188,2020-05-08,10:46:21,11:02:07,NA,incomplete,13,number,1,left,Purple_Plus_Dots_1.jpg,Green_Star_Stripes_1.jpg,Red_Plus_Grid_2.jpg,left,1036,true,high,NA,NA,NA,NA,NA,NA,NA,false
sf7ZQBOf,385mdvingfsu7ikqnsjzxyjp4abjww,3zr9aiqjufmdjuyeig8c9lht4xd04d,sf7ZQBOf,2020-0188,2020-05-08,10:46:21,11:02:07,NA,incomplete,14,number,1,left,Red_Plus_Dots_1.jpg,Purple_Star_Stripes_1.jpg,Blue_Plus_Grid_2.jpg,left,1019,true,high,NA,NA,NA,NA,NA,NA,NA,false
sf7ZQBOf,385mdvingfsu7ikqnsjzxyjp4abjww,3zr9aiqjufmdjuyeig8c9lht4xd04d,sf7ZQBOf,2020-0188,2020-05-08,10:46:21,11:02:07,NA,incomplete,15,number,1,left,Green_Plus_Chess_4.jpg,Blue_Star_Dots_4.jpg,Purple_Plus_Grid_1.jpg,left,1079,true,high,NA,NA,NA,NA,NA,NA,NA,false
sf7ZQBOf,385mdvingfsu7ikqnsjzxyjp4abjww,3zr9aiqjufmdjuyeig8c9lht4xd04d,sf7ZQBOf,2020-0188,2020-05-08,10:46:21,11:02:07,NA,incomplete,16,number,1,right,Purple_Star_Chess_4.jpg,Red_Star_Dots_3.jpg,Blue_Plus_Stripes_4.jpg,right,1047,true,high,NA,NA,NA,NA,NA,NA,NA,false
sf7ZQBOf,385mdvingfsu7ikqnsjzxyjp4abjww,3zr9aiqjufmdjuyeig8c9lht4xd04d,sf7ZQBOf,2020-0188,2020-05-08,10:46:21,11:02:07,NA,incomplete,17,number,0,right,Blue_Triangle_Chess_2.jpg,Purple_Triangle_Dots_3.jpg,Green_Circle_Grid_2.jpg,right,1214,true,high,NA,NA,NA,NA,NA,NA,NA,false
sf7ZQBOf,385mdvingfsu7ikqnsjzxyjp4abjww,3zr9aiqjufmdjuyeig8c9lht4xd04d,sf7ZQBOf,2020-0188,2020-05-08,10:46:21,11:02:07,NA,incomplete,18,number,1,left,Green_Circle_Chess_3.jpg,Blue_Triangle_Grid_3.jpg,Red_Circle_Dots_4.jpg,left,1001,true,high,NA,NA,NA,NA,NA,NA,NA,false
sf7ZQBOf,385mdvingfsu7ikqnsjzxyjp4abjww,3zr9aiqjufmdjuyeig8c9lht4xd04d,sf7ZQBOf,2020-0188,2020-05-08,10:46:21,11:02:07,NA,incomplete,19,number,1,right,Green_Plus_Chess_4.jpg,Blue_Plus_Grid_1.jpg,Red_Star_Dots_4.jpg,right,812,true,high,NA,NA,NA,NA,NA,NA,NA,false
sf7ZQBOf,385mdvingfsu7ikqnsjzxyjp4abjww,3zr9aiqjufmdjuyeig8c9lht4xd04d,sf7ZQBOf,2020-0188,2020-05-08,10:46:21,11:02:07,NA,incomplete,20,shape,1,right,Green_Circle_Stripes_2.jpg,Purple_Triangle_Dots_2.jpg,Red_Circle_Grid_1.jpg,left,1485,false,high,NA,NA,NA,NA,NA,NA,NA,false
sf7ZQBOf,385mdvingfsu7ikqnsjzxyjp4abjww,3zr9aiqjufmdjuyeig8c9lht4xd04d,sf7ZQBOf,2020-0188,2020-05-08,10:46:21,11:02:07,NA,incomplete,21,shape,1,left,Red_Star_Chess_1.jpg,Purple_Star_Dots_2.jpg,Blue_Triangle_Grid_1.jpg,right,893,false,high,NA,NA,NA,NA,NA,NA,NA,false
sf7ZQBOf,385mdvingfsu7ikqnsjzxyjp4abjww,3zr9aiqjufmdjuyeig8c9lht4xd04d,sf7ZQBOf,2020-0188,2020-05-08,10:46:21,11:02:07,NA,incomplete,22,shape,0,right,Green_Plus_Dots_3.jpg,Blue_Circle_Stripes_3.jpg,Purple_Plus_Chess_1.jpg,left,1059,false,high,NA,NA,NA,NA,NA,NA,NA,false
sf7ZQBOf,385mdvingfsu7ikqnsjzxyjp4abjww,3zr9aiqjufmdjuyeig8c9lht4xd04d,sf7ZQBOf,2020-0188,2020-05-08,10:46:21,11:02:07,NA,incomplete,23,shape,1,left,Red_Circle_Dots_1.jpg,Purple_Circle_Chess_4.jpg,Blue_Plus_Stripes_1.jpg,right,850,false,high,NA,NA,NA,NA,NA,NA,NA,false
sf7ZQBOf,385mdvingfsu7ikqnsjzxyjp4abjww,3zr9aiqjufmdjuyeig8c9lht4xd04d,sf7ZQBOf,2020-0188,2020-05-08,10:46:21,11:02:07,NA,incomplete,24,shape,1,right,Red_Plus_Chess_1.jpg,Purple_Triangle_Stripes_1.jpg,Green_Plus_Grid_4.jpg,right,1627,true,high,NA,NA,NA,NA,NA,NA,NA,false
sf7ZQBOf,385mdvingfsu7ikqnsjzxyjp4abjww,3zr9aiqjufmdjuyeig8c9lht4xd04d,sf7ZQBOf,2020-0188,2020-05-08,10:46:21,11:02:07,NA,incomplete,25,shape,1,right,Green_Plus_Grid_2.jpg,Blue_Circle_Stripes_2.jpg,Purple_Plus_Chess_4.jpg,left,884,false,high,NA,NA,NA,NA,NA,NA,NA,false
sf7ZQBOf,385mdvingfsu7ikqnsjzxyjp4abjww,3zr9aiqjufmdjuyeig8c9lht4xd04d,sf7ZQBOf,2020-0188,2020-05-08,10:46:21,11:02:07,NA,incomplete,26,shape,1,right,Blue_Circle_Dots_4.jpg,Green_Star_Chess_4.jpg,Red_Circle_Grid_3.jpg,right,867,true,high,NA,NA,NA,NA,NA,NA,NA,false
sf7ZQBOf,385mdvingfsu7ikqnsjzxyjp4abjww,3zr9aiqjufmdjuyeig8c9lht4xd04d,sf7ZQBOf,2020-0188,2020-05-08,10:46:21,11:02:07,NA,incomplete,27,shape,1,left,Blue_Circle_Dots_4.jpg,Red_Circle_Stripes_3.jpg,Green_Star_Chess_4.jpg,right,940,false,high,NA,NA,NA,NA,NA,NA,NA,false
sf7ZQBOf,385mdvingfsu7ikqnsjzxyjp4abjww,3zr9aiqjufmdjuyeig8c9lht4xd04d,sf7ZQBOf,2020-0188,2020-05-08,10:46:21,11:02:07,NA,incomplete,28,shape,1,left,Red_Star_Chess_1.jpg,Blue_Star_Dots_2.jpg,Purple_Circle_Grid_1.jpg,left,775,true,high,NA,NA,NA,NA,NA,NA,NA,false
sf7ZQBOf,385mdvingfsu7ikqnsjzxyjp4abjww,3zr9aiqjufmdjuyeig8c9lht4xd04d,sf7ZQBOf,2020-0188,2020-05-08,10:46:21,11:02:07,NA,incomplete,29,shape,0,right,Red_Circle_Grid_3.jpg,Purple_Star_Dots_3.jpg,Blue_Circle_Stripes_1.jpg,right,723,true,high,NA,NA,NA,NA,NA,NA,NA,false
sf7ZQBOf,385mdvingfsu7ikqnsjzxyjp4abjww,3zr9aiqjufmdjuyeig8c9lht4xd04d,sf7ZQBOf,2020-0188,2020-05-08,10:46:21,11:02:07,NA,incomplete,30,number,1,right,Purple_Triangle_Grid_3.jpg,Blue_Triangle_Stripes_4.jpg,Green_Plus_Chess_3.jpg,left,937,false,high,NA,NA,NA,NA,NA,NA,NA,false
sf7ZQBOf,385mdvingfsu7ikqnsjzxyjp4abjww,3zr9aiqjufmdjuyeig8c9lht4xd04d,sf7ZQBOf,2020-0188,2020-05-08,10:46:21,11:02:07,NA,incomplete,31,number,1,left,Purple_Circle_Chess_3.jpg,Blue_Triangle_Dots_3.jpg,Green_Circle_Grid_1.jpg,left,1015,true,high,NA,NA,NA,NA,NA,NA,NA,false
sf7ZQBOf,385mdvingfsu7ikqnsjzxyjp4abjww,3zr9aiqjufmdjuyeig8c9lht4xd04d,sf7ZQBOf,2020-0188,2020-05-08,10:46:21,11:02:07,NA,incomplete,32,number,1,right,Purple_Circle_Dots_2.jpg,Green_Circle_Chess_1.jpg,Blue_Triangle_Grid_2.jpg,right,865,true,high,NA,NA,NA,NA,NA,NA,NA,false
sf7ZQBOf,385mdvingfsu7ikqnsjzxyjp4abjww,3zr9aiqjufmdjuyeig8c9lht4xd04d,sf7ZQBOf,2020-0188,2020-05-08,10:46:21,11:02:07,NA,incomplete,33,number,1,right,Blue_Plus_Grid_2.jpg,Red_Plus_Stripes_3.jpg,Purple_Star_Chess_2.jpg,right,1504,true,high,NA,NA,NA,NA,NA,NA,NA,false
sf7ZQBOf,385mdvingfsu7ikqnsjzxyjp4abjww,3zr9aiqjufmdjuyeig8c9lht4xd04d,sf7ZQBOf,2020-0188,2020-05-08,10:46:21,11:02:07,NA,incomplete,34,number,1,right,Blue_Star_Dots_4.jpg,Red_Star_Grid_3.jpg,Green_Triangle_Stripes_4.jpg,right,1071,true,high,NA,NA,NA,NA,NA,NA,NA,false
sf7ZQBOf,385mdvingfsu7ikqnsjzxyjp4abjww,3zr9aiqjufmdjuyeig8c9lht4xd04d,sf7ZQBOf,2020-0188,2020-05-08,10:46:21,11:02:07,NA,incomplete,35,number,1,left,Purple_Star_Grid_1.jpg,Blue_Triangle_Stripes_1.jpg,Red_Star_Chess_3.jpg,left,1070,true,high,NA,NA,NA,NA,NA,NA,NA,false
sf7ZQBOf,385mdvingfsu7ikqnsjzxyjp4abjww,3zr9aiqjufmdjuyeig8c9lht4xd04d,sf7ZQBOf,2020-0188,2020-05-08,10:46:21,11:02:07,NA,incomplete,36,number,0,left,Green_Plus_Dots_3.jpg,Red_Triangle_Grid_3.jpg,Purple_Plus_Chess_1.jpg,left,1309,true,high,NA,NA,NA,NA,NA,NA,NA,false
sf7ZQBOf,385mdvingfsu7ikqnsjzxyjp4abjww,3zr9aiqjufmdjuyeig8c9lht4xd04d,sf7ZQBOf,2020-0188,2020-05-08,10:46:21,11:02:07,NA,incomplete,37,number,1,right,Blue_Triangle_Dots_1.jpg,Green_Triangle_Grid_2.jpg,Purple_Star_Chess_1.jpg,right,1075,true,high,NA,NA,NA,NA,NA,NA,NA,false
sf7ZQBOf,385mdvingfsu7ikqnsjzxyjp4abjww,3zr9aiqjufmdjuyeig8c9lht4xd04d,sf7ZQBOf,2020-0188,2020-05-08,10:46:21,11:02:07,NA,incomplete,38,number,1,left,Purple_Plus_Dots_4.jpg,Blue_Triangle_Stripes_4.jpg,Red_Plus_Chess_3.jpg,left,1395,true,high,NA,NA,NA,NA,NA,NA,NA,false
sf7ZQBOf,385mdvingfsu7ikqnsjzxyjp4abjww,3zr9aiqjufmdjuyeig8c9lht4xd04d,sf7ZQBOf,2020-0188,2020-05-08,10:46:21,11:02:07,NA,incomplete,39,number,1,right,Purple_Star_Grid_3.jpg,Green_Star_Stripes_1.jpg,Red_Plus_Dots_3.jpg,right,933,true,high,NA,NA,NA,NA,NA,NA,NA,false
sf7ZQBOf,385mdvingfsu7ikqnsjzxyjp4abjww,3zr9aiqjufmdjuyeig8c9lht4xd04d,sf7ZQBOf,2020-0188,2020-05-08,10:46:21,11:02:07,NA,incomplete,40,shape,1,right,Purple_Star_Stripes_1.jpg,Blue_Triangle_Grid_1.jpg,Red_Star_Chess_3.jpg,left,905,false,high,NA,NA,NA,NA,NA,NA,NA,false
sf7ZQBOf,385mdvingfsu7ikqnsjzxyjp4abjww,3zr9aiqjufmdjuyeig8c9lht4xd04d,sf7ZQBOf,2020-0188,2020-05-08,10:46:21,11:02:07,NA,incomplete,41,shape,1,left,Green_Plus_Stripes_2.jpg,Blue_Plus_Grid_1.jpg,Purple_Circle_Chess_2.jpg,right,1274,false,high,NA,NA,NA,NA,NA,NA,NA,false
sf7ZQBOf,385mdvingfsu7ikqnsjzxyjp4abjww,3zr9aiqjufmdjuyeig8c9lht4xd04d,sf7ZQBOf,2020-0188,2020-05-08,10:46:21,11:02:07,NA,incomplete,42,shape,1,right,Blue_Triangle_Chess_4.jpg,Purple_Circle_Dots_4.jpg,Green_Triangle_Grid_3.jpg,right,1192,true,high,NA,NA,NA,NA,NA,NA,NA,false
sf7ZQBOf,385mdvingfsu7ikqnsjzxyjp4abjww,3zr9aiqjufmdjuyeig8c9lht4xd04d,sf7ZQBOf,2020-0188,2020-05-08,10:46:21,11:02:07,NA,incomplete,43,shape,1,right,Green_Triangle_Dots_3.jpg,Purple_Star_Stripes_3.jpg,Red_Triangle_Grid_4.jpg,right,917,true,high,NA,NA,NA,NA,NA,NA,NA,false
sf7ZQBOf,385mdvingfsu7ikqnsjzxyjp4abjww,3zr9aiqjufmdjuyeig8c9lht4xd04d,sf7ZQBOf,2020-0188,2020-05-08,10:46:21,11:02:07,NA,incomplete,44,shape,1,right,Purple_Circle_Dots_2.jpg,Red_Triangle_Stripes_2.jpg,Green_Circle_Chess_3.jpg,left,1002,false,high,NA,NA,NA,NA,NA,NA,NA,false
sf7ZQBOf,385mdvingfsu7ikqnsjzxyjp4abjww,3zr9aiqjufmdjuyeig8c9lht4xd04d,sf7ZQBOf,2020-0188,2020-05-08,10:46:21,11:02:07,NA,incomplete,45,shape,1,right,Blue_Triangle_Dots_2.jpg,Green_Plus_Grid_2.jpg,Red_Triangle_Stripes_1.jpg,right,899,true,high,NA,NA,NA,NA,NA,NA,NA,false
sf7ZQBOf,385mdvingfsu7ikqnsjzxyjp4abjww,3zr9aiqjufmdjuyeig8c9lht4xd04d,sf7ZQBOf,2020-0188,2020-05-08,10:46:21,11:02:07,NA,incomplete,46,shape,1,left,Purple_Plus_Stripes_2.jpg,Red_Plus_Dots_3.jpg,Blue_Triangle_Chess_2.jpg,left,1114,true,high,NA,NA,NA,NA,NA,NA,NA,false
sf7ZQBOf,385mdvingfsu7ikqnsjzxyjp4abjww,3zr9aiqjufmdjuyeig8c9lht4xd04d,sf7ZQBOf,2020-0188,2020-05-08,10:46:21,11:02:07,NA,incomplete,47,shape,1,left,Blue_Triangle_Chess_3.jpg,Red_Triangle_Stripes_4.jpg,Green_Star_Dots_3.jpg,left,977,true,high,NA,NA,NA,NA,NA,NA,NA,false
sf7ZQBOf,385mdvingfsu7ikqnsjzxyjp4abjww,3zr9aiqjufmdjuyeig8c9lht4xd04d,sf7ZQBOf,2020-0188,2020-05-08,10:46:21,11:02:07,NA,incomplete,48,shape,1,left,Green_Triangle_Stripes_2.jpg,Blue_Triangle_Grid_4.jpg,Purple_Circle_Dots_2.jpg,left,908,true,high,NA,NA,NA,NA,NA,NA,NA,false
sf7ZQBOf,385mdvingfsu7ikqnsjzxyjp4abjww,3zr9aiqjufmdjuyeig8c9lht4xd04d,sf7ZQBOf,2020-0188,2020-05-08,10:46:21,11:02:07,NA,incomplete,49,shape,1,right,Red_Plus_Grid_3.jpg,Purple_Circle_Chess_3.jpg,Green_Plus_Stripes_1.jpg,right,1074,true,high,NA,NA,NA,NA,NA,NA,NA,false
sf7ZQBOf,385mdvingfsu7ikqnsjzxyjp4abjww,3zr9aiqjufmdjuyeig8c9lht4xd04d,sf7ZQBOf,2020-0188,2020-05-08,10:46:21,11:02:07,NA,incomplete,50,number,1,left,Blue_Star_Grid_2.jpg,Purple_Plus_Dots_2.jpg,Green_Star_Chess_4.jpg,right,1561,false,high,NA,NA,NA,NA,NA,NA,NA,false
sf7ZQBOf,385mdvingfsu7ikqnsjzxyjp4abjww,3zr9aiqjufmdjuyeig8c9lht4xd04d,sf7ZQBOf,2020-0188,2020-05-08,10:46:21,11:02:07,NA,incomplete,51,number,1,right,Red_Circle_Dots_2.jpg,Purple_Circle_Stripes_3.jpg,Green_Star_Grid_2.jpg,left,773,false,high,NA,NA,NA,NA,NA,NA,NA,false
sf7ZQBOf,385mdvingfsu7ikqnsjzxyjp4abjww,3zr9aiqjufmdjuyeig8c9lht4xd04d,sf7ZQBOf,2020-0188,2020-05-08,10:46:21,11:02:07,NA,incomplete,52,number,1,left,Blue_Circle_Grid_4.jpg,Purple_Star_Chess_4.jpg,Green_Circle_Dots_2.jpg,left,976,true,high,NA,NA,NA,NA,NA,NA,NA,false
sf7ZQBOf,385mdvingfsu7ikqnsjzxyjp4abjww,3zr9aiqjufmdjuyeig8c9lht4xd04d,sf7ZQBOf,2020-0188,2020-05-08,10:46:21,11:02:07,NA,incomplete,53,number,0,left,Red_Plus_Stripes_2.jpg,Purple_Star_Grid_2.jpg,Blue_Plus_Dots_1.jpg,left,997,true,high,NA,NA,NA,NA,NA,NA,NA,false
sf7ZQBOf,385mdvingfsu7ikqnsjzxyjp4abjww,3zr9aiqjufmdjuyeig8c9lht4xd04d,sf7ZQBOf,2020-0188,2020-05-08,10:46:21,11:02:07,NA,incomplete,54,number,1,left,Blue_Star_Dots_1.jpg,Green_Plus_Grid_1.jpg,Red_Star_Chess_2.jpg,left,936,true,high,NA,NA,NA,NA,NA,NA,NA,false
sf7ZQBOf,385mdvingfsu7ikqnsjzxyjp4abjww,3zr9aiqjufmdjuyeig8c9lht4xd04d,sf7ZQBOf,2020-0188,2020-05-08,10:46:21,11:02:07,NA,incomplete,55,number,0,right,Red_Star_Chess_4.jpg,Blue_Star_Grid_1.jpg,Purple_Circle_Dots_4.jpg,right,845,true,high,NA,NA,NA,NA,NA,NA,NA,false
sf7ZQBOf,385mdvingfsu7ikqnsjzxyjp4abjww,3zr9aiqjufmdjuyeig8c9lht4xd04d,sf7ZQBOf,2020-0188,2020-05-08,10:46:21,11:02:07,NA,incomplete,56,number,0,left,Red_Star_Grid_4.jpg,Green_Plus_Dots_4.jpg,Purple_Star_Chess_3.jpg,left,894,true,high,NA,NA,NA,NA,NA,NA,NA,false
sf7ZQBOf,385mdvingfsu7ikqnsjzxyjp4abjww,3zr9aiqjufmdjuyeig8c9lht4xd04d,sf7ZQBOf,2020-0188,2020-05-08,10:46:21,11:02:07,NA,incomplete,57,number,0,right,Blue_Circle_Grid_1.jpg,Red_Circle_Dots_3.jpg,Purple_Star_Stripes_1.jpg,left,861,false,high,NA,NA,NA,NA,NA,NA,NA,false
sf7ZQBOf,385mdvingfsu7ikqnsjzxyjp4abjww,3zr9aiqjufmdjuyeig8c9lht4xd04d,sf7ZQBOf,2020-0188,2020-05-08,10:46:21,11:02:07,NA,incomplete,58,number,1,left,Blue_Circle_Dots_1.jpg,Purple_Plus_Chess_1.jpg,Green_Circle_Grid_3.jpg,right,1302,false,high,NA,NA,NA,NA,NA,NA,NA,false
sf7ZQBOf,385mdvingfsu7ikqnsjzxyjp4abjww,3zr9aiqjufmdjuyeig8c9lht4xd04d,sf7ZQBOf,2020-0188,2020-05-08,10:46:21,11:02:07,NA,incomplete,59,number,1,right,Blue_Plus_Stripes_3.jpg,Red_Plus_Grid_2.jpg,Green_Circle_Dots_3.jpg,left,1155,false,high,NA,NA,NA,NA,NA,NA,NA,false
sf7ZQBOf,385mdvingfsu7ikqnsjzxyjp4abjww,3zr9aiqjufmdjuyeig8c9lht4xd04d,sf7ZQBOf,2020-0188,2020-05-08,10:46:21,11:02:07,NA,incomplete,60,shape,1,left,Purple_Circle_Dots_4.jpg,Blue_Circle_Chess_2.jpg,Red_Triangle_Stripes_4.jpg,right,921,false,high,NA,NA,NA,NA,NA,NA,NA,false
sf7ZQBOf,385mdvingfsu7ikqnsjzxyjp4abjww,3zr9aiqjufmdjuyeig8c9lht4xd04d,sf7ZQBOf,2020-0188,2020-05-08,10:46:21,11:02:07,NA,incomplete,61,shape,1,right,Blue_Star_Dots_4.jpg,Purple_Plus_Grid_4.jpg,Red_Star_Stripes_2.jpg,left,948,false,high,NA,NA,NA,NA,NA,NA,NA,false
sf7ZQBOf,385mdvingfsu7ikqnsjzxyjp4abjww,3zr9aiqjufmdjuyeig8c9lht4xd04d,sf7ZQBOf,2020-0188,2020-05-08,10:46:21,11:02:07,NA,incomplete,62,shape,1,left,Red_Plus_Stripes_3.jpg,Blue_Plus_Grid_4.jpg,Green_Circle_Chess_3.jpg,left,1202,true,high,NA,NA,NA,NA,NA,NA,NA,false
sf7ZQBOf,385mdvingfsu7ikqnsjzxyjp4abjww,3zr9aiqjufmdjuyeig8c9lht4xd04d,sf7ZQBOf,2020-0188,2020-05-08,10:46:21,11:02:07,NA,incomplete,63,shape,1,right,Green_Circle_Chess_1.jpg,Purple_Triangle_Grid_1.jpg,Red_Circle_Stripes_4.jpg,right,827,true,high,NA,NA,NA,NA,NA,NA,NA,false
sf7ZQBOf,385mdvingfsu7ikqnsjzxyjp4abjww,3zr9aiqjufmdjuyeig8c9lht4xd04d,sf7ZQBOf,2020-0188,2020-05-08,10:46:21,11:02:07,NA,incomplete,64,shape,1,right,Purple_Plus_Stripes_3.jpg,Green_Triangle_Chess_3.jpg,Red_Plus_Dots_1.jpg,right,822,true,high,NA,NA,NA,NA,NA,NA,NA,false
sf7ZQBOf,385mdvingfsu7ikqnsjzxyjp4abjww,3zr9aiqjufmdjuyeig8c9lht4xd04d,sf7ZQBOf,2020-0188,2020-05-08,10:46:21,11:02:07,NA,incomplete,65,shape,1,right,Blue_Star_Grid_2.jpg,Purple_Circle_Chess_2.jpg,Green_Star_Dots_3.jpg,right,703,true,high,NA,NA,NA,NA,NA,NA,NA,false
sf7ZQBOf,385mdvingfsu7ikqnsjzxyjp4abjww,3zr9aiqjufmdjuyeig8c9lht4xd04d,sf7ZQBOf,2020-0188,2020-05-08,10:46:21,11:02:07,NA,incomplete,66,shape,1,left,Green_Circle_Dots_4.jpg,Red_Circle_Grid_2.jpg,Purple_Star_Stripes_4.jpg,left,1166,true,high,NA,NA,NA,NA,NA,NA,NA,false
sf7ZQBOf,385mdvingfsu7ikqnsjzxyjp4abjww,3zr9aiqjufmdjuyeig8c9lht4xd04d,sf7ZQBOf,2020-0188,2020-05-08,10:46:21,11:02:07,NA,incomplete,67,shape,1,right,Purple_Circle_Grid_3.jpg,Red_Plus_Chess_3.jpg,Blue_Circle_Stripes_2.jpg,right,697,true,high,NA,NA,NA,NA,NA,NA,NA,false
sf7ZQBOf,385mdvingfsu7ikqnsjzxyjp4abjww,3zr9aiqjufmdjuyeig8c9lht4xd04d,sf7ZQBOf,2020-0188,2020-05-08,10:46:21,11:02:07,NA,incomplete,68,shape,0,left,Green_Triangle_Chess_1.jpg,Purple_Triangle_Grid_2.jpg,Blue_Star_Dots_1.jpg,left,1032,true,high,NA,NA,NA,NA,NA,NA,NA,false
sf7ZQBOf,385mdvingfsu7ikqnsjzxyjp4abjww,3zr9aiqjufmdjuyeig8c9lht4xd04d,sf7ZQBOf,2020-0188,2020-05-08,10:46:21,11:02:07,NA,incomplete,69,shape,1,right,Purple_Triangle_Grid_2.jpg,Green_Star_Stripes_2.jpg,Red_Triangle_Chess_4.jpg,right,714,true,high,NA,NA,NA,NA,NA,NA,NA,false
sf7ZQBOf,385mdvingfsu7ikqnsjzxyjp4abjww,3zr9aiqjufmdjuyeig8c9lht4xd04d,sf7ZQBOf,2020-0188,2020-05-08,10:46:21,11:02:07,NA,incomplete,70,number,1,left,Red_Circle_Chess_4.jpg,Blue_Triangle_Stripes_4.jpg,Purple_Circle_Grid_2.jpg,right,777,false,high,NA,NA,NA,NA,NA,NA,NA,false
sf7ZQBOf,385mdvingfsu7ikqnsjzxyjp4abjww,3zr9aiqjufmdjuyeig8c9lht4xd04d,sf7ZQBOf,2020-0188,2020-05-08,10:46:21,11:02:07,NA,incomplete,71,number,1,left,Red_Plus_Chess_1.jpg,Blue_Triangle_Dots_1.jpg,Purple_Plus_Stripes_4.jpg,right,933,false,high,NA,NA,NA,NA,NA,NA,NA,false
sf7ZQBOf,385mdvingfsu7ikqnsjzxyjp4abjww,3zr9aiqjufmdjuyeig8c9lht4xd04d,sf7ZQBOf,2020-0188,2020-05-08,10:46:21,11:02:07,NA,incomplete,72,number,1,left,Blue_Star_Stripes_1.jpg,Purple_Triangle_Dots_1.jpg,Green_Star_Grid_2.jpg,left,969,true,high,NA,NA,NA,NA,NA,NA,NA,false
sf7ZQBOf,385mdvingfsu7ikqnsjzxyjp4abjww,3zr9aiqjufmdjuyeig8c9lht4xd04d,sf7ZQBOf,2020-0188,2020-05-08,10:46:21,11:02:07,NA,incomplete,73,number,1,left,Purple_Circle_Grid_1.jpg,Blue_Triangle_Dots_1.jpg,Red_Circle_Stripes_3.jpg,left,935,true,high,NA,NA,NA,NA,NA,NA,NA,false
sf7ZQBOf,385mdvingfsu7ikqnsjzxyjp4abjww,3zr9aiqjufmdjuyeig8c9lht4xd04d,sf7ZQBOf,2020-0188,2020-05-08,10:46:21,11:02:07,NA,incomplete,74,number,1,left,Purple_Circle_Grid_3.jpg,Red_Triangle_Dots_3.jpg,Blue_Circle_Chess_2.jpg,left,1380,true,high,NA,NA,NA,NA,NA,NA,NA,false
sf7ZQBOf,385mdvingfsu7ikqnsjzxyjp4abjww,3zr9aiqjufmdjuyeig8c9lht4xd04d,sf7ZQBOf,2020-0188,2020-05-08,10:46:21,11:02:07,NA,incomplete,75,number,1,right,Blue_Plus_Chess_1.jpg,Purple_Plus_Dots_4.jpg,Red_Circle_Grid_1.jpg,right,1333,true,high,NA,NA,NA,NA,NA,NA,NA,false
sf7ZQBOf,385mdvingfsu7ikqnsjzxyjp4abjww,3zr9aiqjufmdjuyeig8c9lht4xd04d,sf7ZQBOf,2020-0188,2020-05-08,10:46:21,11:02:07,NA,incomplete,76,number,0,right,Blue_Plus_Dots_3.jpg,Purple_Plus_Grid_1.jpg,Green_Star_Chess_3.jpg,right,962,true,high,NA,NA,NA,NA,NA,NA,NA,false
sf7ZQBOf,385mdvingfsu7ikqnsjzxyjp4abjww,3zr9aiqjufmdjuyeig8c9lht4xd04d,sf7ZQBOf,2020-0188,2020-05-08,10:46:21,11:02:07,NA,incomplete,77,number,1,right,Purple_Triangle_Stripes_1.jpg,Green_Triangle_Dots_3.jpg,Blue_Circle_Chess_1.jpg,right,1695,true,high,NA,NA,NA,NA,NA,NA,NA,false
sf7ZQBOf,385mdvingfsu7ikqnsjzxyjp4abjww,3zr9aiqjufmdjuyeig8c9lht4xd04d,sf7ZQBOf,2020-0188,2020-05-08,10:46:21,11:02:07,NA,incomplete,78,number,1,left,Purple_Plus_Chess_2.jpg,Blue_Circle_Stripes_2.jpg,Green_Plus_Dots_3.jpg,left,1015,true,high,NA,NA,NA,NA,NA,NA,NA,false
sf7ZQBOf,385mdvingfsu7ikqnsjzxyjp4abjww,3zr9aiqjufmdjuyeig8c9lht4xd04d,sf7ZQBOf,2020-0188,2020-05-08,10:46:21,11:02:07,NA,incomplete,79,number,1,left,Purple_Star_Grid_4.jpg,Blue_Plus_Stripes_4.jpg,Red_Star_Chess_2.jpg,left,937,true,high,NA,NA,NA,NA,NA,NA,NA,false
sf7ZQBOf,385mdvingfsu7ikqnsjzxyjp4abjww,3zr9aiqjufmdjuyeig8c9lht4xd04d,sf7ZQBOf,2020-0188,2020-05-08,10:46:21,11:02:07,NA,incomplete,80,shape,0,left,Purple_Triangle_Chess_3.jpg,Blue_Triangle_Stripes_2.jpg,Red_Star_Grid_3.jpg,right,1141,false,high,NA,NA,NA,NA,NA,NA,NA,false
sf7ZQBOf,385mdvingfsu7ikqnsjzxyjp4abjww,3zr9aiqjufmdjuyeig8c9lht4xd04d,sf7ZQBOf,2020-0188,2020-05-08,10:46:21,11:02:07,NA,incomplete,81,shape,0,left,Green_Circle_Dots_3.jpg,Purple_Circle_Grid_1.jpg,Blue_Triangle_Chess_3.jpg,right,1050,false,high,NA,NA,NA,NA,NA,NA,NA,false
sf7ZQBOf,385mdvingfsu7ikqnsjzxyjp4abjww,3zr9aiqjufmdjuyeig8c9lht4xd04d,sf7ZQBOf,2020-0188,2020-05-08,10:46:21,11:02:07,NA,incomplete,82,shape,1,left,Purple_Triangle_Chess_3.jpg,Red_Triangle_Grid_2.jpg,Blue_Plus_Stripes_3.jpg,right,1539,false,high,NA,NA,NA,NA,NA,NA,NA,false
sf7ZQBOf,385mdvingfsu7ikqnsjzxyjp4abjww,3zr9aiqjufmdjuyeig8c9lht4xd04d,sf7ZQBOf,2020-0188,2020-05-08,10:46:21,11:02:07,NA,incomplete,83,shape,0,left,Purple_Plus_Stripes_3.jpg,Blue_Plus_Chess_1.jpg,Red_Circle_Grid_3.jpg,right,854,false,high,NA,NA,NA,NA,NA,NA,NA,false
sf7ZQBOf,385mdvingfsu7ikqnsjzxyjp4abjww,3zr9aiqjufmdjuyeig8c9lht4xd04d,sf7ZQBOf,2020-0188,2020-05-08,10:46:21,11:02:07,NA,incomplete,84,shape,1,left,Purple_Star_Stripes_2.jpg,Green_Star_Chess_3.jpg,Blue_Plus_Grid_2.jpg,right,1032,false,high,NA,NA,NA,NA,NA,NA,NA,false
sf7ZQBOf,385mdvingfsu7ikqnsjzxyjp4abjww,3zr9aiqjufmdjuyeig8c9lht4xd04d,sf7ZQBOf,2020-0188,2020-05-08,10:46:21,11:02:07,NA,incomplete,85,shape,1,left,Red_Triangle_Chess_4.jpg,Blue_Triangle_Stripes_2.jpg,Green_Circle_Dots_4.jpg,right,1208,false,high,NA,NA,NA,NA,NA,NA,NA,false
sf7ZQBOf,385mdvingfsu7ikqnsjzxyjp4abjww,3zr9aiqjufmdjuyeig8c9lht4xd04d,sf7ZQBOf,2020-0188,2020-05-08,10:46:21,11:02:07,NA,incomplete,86,shape,0,right,Green_Plus_Grid_1.jpg,Red_Triangle_Dots_1.jpg,Purple_Plus_Chess_2.jpg,right,907,true,high,NA,NA,NA,NA,NA,NA,NA,false
sf7ZQBOf,385mdvingfsu7ikqnsjzxyjp4abjww,3zr9aiqjufmdjuyeig8c9lht4xd04d,sf7ZQBOf,2020-0188,2020-05-08,10:46:21,11:02:07,NA,incomplete,87,shape,1,left,Red_Star_Dots_2.jpg,Purple_Star_Stripes_1.jpg,Green_Triangle_Chess_2.jpg,left,1090,true,high,NA,NA,NA,NA,NA,NA,NA,false
sf7ZQBOf,385mdvingfsu7ikqnsjzxyjp4abjww,3zr9aiqjufmdjuyeig8c9lht4xd04d,sf7ZQBOf,2020-0188,2020-05-08,10:46:21,11:02:07,NA,incomplete,88,shape,1,right,Red_Triangle_Grid_1.jpg,Blue_Circle_Dots_1.jpg,Purple_Triangle_Stripes_3.jpg,right,752,true,high,NA,NA,NA,NA,NA,NA,NA,false
sf7ZQBOf,385mdvingfsu7ikqnsjzxyjp4abjww,3zr9aiqjufmdjuyeig8c9lht4xd04d,sf7ZQBOf,2020-0188,2020-05-08,10:46:21,11:02:07,NA,incomplete,89,shape,1,left,Purple_Triangle_Stripes_2.jpg,Blue_Triangle_Grid_1.jpg,Red_Circle_Chess_2.jpg,left,821,true,high,NA,NA,NA,NA,NA,NA,NA,false
sf7ZQBOf,385mdvingfsu7ikqnsjzxyjp4abjww,3zr9aiqjufmdjuyeig8c9lht4xd04d,sf7ZQBOf,2020-0188,2020-05-08,10:46:21,11:02:07,NA,incomplete,90,number,1,left,Purple_Plus_Dots_4.jpg,Blue_Star_Grid_4.jpg,Red_Plus_Stripes_3.jpg,right,870,false,high,NA,NA,NA,NA,NA,NA,NA,false
sf7ZQBOf,385mdvingfsu7ikqnsjzxyjp4abjww,3zr9aiqjufmdjuyeig8c9lht4xd04d,sf7ZQBOf,2020-0188,2020-05-08,10:46:21,11:02:07,NA,incomplete,91,number,1,right,Green_Plus_Stripes_4.jpg,Red_Plus_Chess_1.jpg,Blue_Circle_Grid_4.jpg,left,951,false,high,NA,NA,NA,NA,NA,NA,NA,false
sf7ZQBOf,385mdvingfsu7ikqnsjzxyjp4abjww,3zr9aiqjufmdjuyeig8c9lht4xd04d,sf7ZQBOf,2020-0188,2020-05-08,10:46:21,11:02:07,NA,incomplete,92,number,1,right,Blue_Star_Dots_4.jpg,Green_Star_Grid_1.jpg,Red_Plus_Stripes_4.jpg,left,1499,false,high,NA,NA,NA,NA,NA,NA,NA,false
sf7ZQBOf,385mdvingfsu7ikqnsjzxyjp4abjww,3zr9aiqjufmdjuyeig8c9lht4xd04d,sf7ZQBOf,2020-0188,2020-05-08,10:46:21,11:02:07,NA,incomplete,93,number,0,left,Green_Triangle_Stripes_4.jpg,Purple_Plus_Chess_4.jpg,Red_Triangle_Grid_3.jpg,left,952,true,high,NA,NA,NA,NA,NA,NA,NA,false
sf7ZQBOf,385mdvingfsu7ikqnsjzxyjp4abjww,3zr9aiqjufmdjuyeig8c9lht4xd04d,sf7ZQBOf,2020-0188,2020-05-08,10:46:21,11:02:07,NA,incomplete,94,number,0,left,Blue_Triangle_Chess_4.jpg,Green_Star_Stripes_4.jpg,Purple_Triangle_Grid_2.jpg,left,846,true,high,NA,NA,NA,NA,NA,NA,NA,false
sf7ZQBOf,385mdvingfsu7ikqnsjzxyjp4abjww,3zr9aiqjufmdjuyeig8c9lht4xd04d,sf7ZQBOf,2020-0188,2020-05-08,10:46:21,11:02:07,NA,incomplete,95,number,1,left,Blue_Triangle_Grid_1.jpg,Red_Plus_Stripes_1.jpg,Purple_Triangle_Chess_2.jpg,right,1294,false,high,NA,NA,NA,NA,NA,NA,NA,false
sf7ZQBOf,385mdvingfsu7ikqnsjzxyjp4abjww,3zr9aiqjufmdjuyeig8c9lht4xd04d,sf7ZQBOf,2020-0188,2020-05-08,10:46:21,11:02:07,NA,incomplete,96,number,1,right,Green_Triangle_Stripes_1.jpg,Purple_Triangle_Grid_4.jpg,Red_Star_Dots_1.jpg,right,1045,true,high,NA,NA,NA,NA,NA,NA,NA,false
sf7ZQBOf,385mdvingfsu7ikqnsjzxyjp4abjww,3zr9aiqjufmdjuyeig8c9lht4xd04d,sf7ZQBOf,2020-0188,2020-05-08,10:46:21,11:02:07,NA,incomplete,97,number,0,left,Red_Plus_Dots_1.jpg,Blue_Triangle_Grid_1.jpg,Purple_Plus_Stripes_2.jpg,left,904,true,high,NA,NA,NA,NA,NA,NA,NA,false
sf7ZQBOf,385mdvingfsu7ikqnsjzxyjp4abjww,3zr9aiqjufmdjuyeig8c9lht4xd04d,sf7ZQBOf,2020-0188,2020-05-08,10:46:21,11:02:07,NA,incomplete,98,number,1,left,Red_Plus_Stripes_4.jpg,Blue_Triangle_Dots_4.jpg,Green_Plus_Grid_2.jpg,left,1699,true,high,NA,NA,NA,NA,NA,NA,NA,false
sf7ZQBOf,385mdvingfsu7ikqnsjzxyjp4abjww,3zr9aiqjufmdjuyeig8c9lht4xd04d,sf7ZQBOf,2020-0188,2020-05-08,10:46:21,11:02:07,NA,incomplete,99,number,0,left,Purple_Star_Dots_2.jpg,Red_Circle_Grid_2.jpg,Green_Star_Stripes_3.jpg,left,978,true,high,NA,NA,NA,NA,NA,NA,NA,false
sf7ZQBOf,385mdvingfsu7ikqnsjzxyjp4abjww,3zr9aiqjufmdjuyeig8c9lht4xd04d,sf7ZQBOf,2020-0188,2020-05-08,10:46:21,11:02:07,NA,incomplete,100,shape,0,right,Purple_Star_Dots_2.jpg,Blue_Plus_Stripes_2.jpg,Red_Star_Chess_1.jpg,right,1285,true,high,NA,NA,NA,NA,NA,NA,NA,false
sf7ZQBOf,385mdvingfsu7ikqnsjzxyjp4abjww,3zr9aiqjufmdjuyeig8c9lht4xd04d,sf7ZQBOf,2020-0188,2020-05-08,10:46:21,11:02:07,NA,incomplete,101,shape,1,left,Red_Plus_Stripes_4.jpg,Purple_Plus_Grid_3.jpg,Blue_Star_Dots_4.jpg,right,1372,false,high,NA,NA,NA,NA,NA,NA,NA,false
sf7ZQBOf,385mdvingfsu7ikqnsjzxyjp4abjww,3zr9aiqjufmdjuyeig8c9lht4xd04d,sf7ZQBOf,2020-0188,2020-05-08,10:46:21,11:02:07,NA,incomplete,102,shape,0,right,Purple_Star_Chess_3.jpg,Red_Circle_Stripes_3.jpg,Green_Star_Grid_4.jpg,left,1287,false,high,NA,NA,NA,NA,NA,NA,NA,false
sf7ZQBOf,385mdvingfsu7ikqnsjzxyjp4abjww,3zr9aiqjufmdjuyeig8c9lht4xd04d,sf7ZQBOf,2020-0188,2020-05-08,10:46:21,11:02:07,NA,incomplete,103,shape,1,right,Blue_Circle_Stripes_2.jpg,Green_Triangle_Grid_2.jpg,Purple_Circle_Chess_4.jpg,left,934,false,high,NA,NA,NA,NA,NA,NA,NA,false
sf7ZQBOf,385mdvingfsu7ikqnsjzxyjp4abjww,3zr9aiqjufmdjuyeig8c9lht4xd04d,sf7ZQBOf,2020-0188,2020-05-08,10:46:21,11:02:07,NA,incomplete,104,shape,0,right,Blue_Plus_Stripes_4.jpg,Green_Triangle_Dots_4.jpg,Red_Plus_Chess_1.jpg,right,1460,true,high,NA,NA,NA,NA,NA,NA,NA,false
sf7ZQBOf,385mdvingfsu7ikqnsjzxyjp4abjww,3zr9aiqjufmdjuyeig8c9lht4xd04d,sf7ZQBOf,2020-0188,2020-05-08,10:46:21,11:02:07,NA,incomplete,105,shape,1,left,Green_Circle_Stripes_3.jpg,Red_Circle_Dots_2.jpg,Blue_Plus_Chess_3.jpg,right,1379,false,high,NA,NA,NA,NA,NA,NA,NA,false
sf7ZQBOf,385mdvingfsu7ikqnsjzxyjp4abjww,3zr9aiqjufmdjuyeig8c9lht4xd04d,sf7ZQBOf,2020-0188,2020-05-08,10:46:21,11:02:07,NA,incomplete,106,shape,1,right,Green_Triangle_Grid_2.jpg,Blue_Plus_Dots_2.jpg,Red_Triangle_Stripes_3.jpg,left,1111,false,high,NA,NA,NA,NA,NA,NA,NA,false
sf7ZQBOf,385mdvingfsu7ikqnsjzxyjp4abjww,3zr9aiqjufmdjuyeig8c9lht4xd04d,sf7ZQBOf,2020-0188,2020-05-08,10:46:21,11:02:07,NA,incomplete,107,shape,1,right,Blue_Triangle_Grid_1.jpg,Purple_Plus_Stripes_1.jpg,Red_Triangle_Dots_2.jpg,left,1813,false,high,NA,NA,NA,NA,NA,NA,NA,false
sf7ZQBOf,385mdvingfsu7ikqnsjzxyjp4abjww,3zr9aiqjufmdjuyeig8c9lht4xd04d,sf7ZQBOf,2020-0188,2020-05-08,10:46:21,11:02:07,NA,incomplete,108,shape,1,left,Blue_Plus_Grid_4.jpg,Green_Plus_Stripes_1.jpg,Red_Triangle_Chess_4.jpg,none,0,false,high,NA,NA,NA,NA,NA,NA,NA,false
sf7ZQBOf,385mdvingfsu7ikqnsjzxyjp4abjww,3zr9aiqjufmdjuyeig8c9lht4xd04d,sf7ZQBOf,2020-0188,2020-05-08,10:46:21,11:02:07,NA,incomplete,109,shape,1,right,Blue_Plus_Dots_3.jpg,Purple_Triangle_Chess_3.jpg,Green_Plus_Grid_2.jpg,right,915,true,high,NA,NA,NA,NA,NA,NA,NA,false
sf7ZQBOf,385mdvingfsu7ikqnsjzxyjp4abjww,3zr9aiqjufmdjuyeig8c9lht4xd04d,sf7ZQBOf,2020-0188,2020-05-08,10:46:21,11:02:07,NA,incomplete,110,number,1,right,Red_Star_Grid_2.jpg,Purple_Star_Stripes_4.jpg,Green_Triangle_Dots_2.jpg,left,1240,false,high,NA,NA,NA,NA,NA,NA,NA,false
sf7ZQBOf,385mdvingfsu7ikqnsjzxyjp4abjww,3zr9aiqjufmdjuyeig8c9lht4xd04d,sf7ZQBOf,2020-0188,2020-05-08,10:46:21,11:02:07,NA,incomplete,111,number,1,left,Green_Triangle_Stripes_3.jpg,Blue_Star_Chess_3.jpg,Red_Triangle_Grid_2.jpg,right,858,false,high,NA,NA,NA,NA,NA,NA,NA,false
sf7ZQBOf,385mdvingfsu7ikqnsjzxyjp4abjww,3zr9aiqjufmdjuyeig8c9lht4xd04d,sf7ZQBOf,2020-0188,2020-05-08,10:46:21,11:02:07,NA,incomplete,112,number,1,left,Red_Plus_Stripes_3.jpg,Blue_Triangle_Chess_3.jpg,Green_Plus_Grid_1.jpg,right,1354,false,high,NA,NA,NA,NA,NA,NA,NA,false
sf7ZQBOf,385mdvingfsu7ikqnsjzxyjp4abjww,3zr9aiqjufmdjuyeig8c9lht4xd04d,sf7ZQBOf,2020-0188,2020-05-08,10:46:21,11:02:07,NA,incomplete,113,number,1,left,Green_Plus_Grid_3.jpg,Red_Circle_Dots_3.jpg,Purple_Plus_Stripes_2.jpg,left,1085,true,high,NA,NA,NA,NA,NA,NA,NA,false
sf7ZQBOf,385mdvingfsu7ikqnsjzxyjp4abjww,3zr9aiqjufmdjuyeig8c9lht4xd04d,sf7ZQBOf,2020-0188,2020-05-08,10:46:21,11:02:07,NA,incomplete,114,number,1,left,Blue_Circle_Stripes_2.jpg,Red_Plus_Chess_2.jpg,Green_Circle_Grid_3.jpg,left,948,true,high,NA,NA,NA,NA,NA,NA,NA,false
sf7ZQBOf,385mdvingfsu7ikqnsjzxyjp4abjww,3zr9aiqjufmdjuyeig8c9lht4xd04d,sf7ZQBOf,2020-0188,2020-05-08,10:46:21,11:02:07,NA,incomplete,115,number,1,right,Red_Plus_Chess_2.jpg,Blue_Plus_Stripes_4.jpg,Green_Triangle_Dots_2.jpg,right,888,true,high,NA,NA,NA,NA,NA,NA,NA,false
sf7ZQBOf,385mdvingfsu7ikqnsjzxyjp4abjww,3zr9aiqjufmdjuyeig8c9lht4xd04d,sf7ZQBOf,2020-0188,2020-05-08,10:46:21,11:02:07,NA,incomplete,116,number,0,right,Purple_Circle_Stripes_4.jpg,Red_Circle_Chess_2.jpg,Green_Star_Dots_4.jpg,right,1016,true,high,NA,NA,NA,NA,NA,NA,NA,false
sf7ZQBOf,385mdvingfsu7ikqnsjzxyjp4abjww,3zr9aiqjufmdjuyeig8c9lht4xd04d,sf7ZQBOf,2020-0188,2020-05-08,10:46:21,11:02:07,NA,incomplete,117,number,1,left,Purple_Circle_Stripes_3.jpg,Red_Plus_Chess_3.jpg,Blue_Circle_Dots_1.jpg,left,1018,true,high,NA,NA,NA,NA,NA,NA,NA,false
sf7ZQBOf,385mdvingfsu7ikqnsjzxyjp4abjww,3zr9aiqjufmdjuyeig8c9lht4xd04d,sf7ZQBOf,2020-0188,2020-05-08,10:46:21,11:02:07,NA,incomplete,118,number,1,left,Purple_Star_Dots_1.jpg,Green_Triangle_Chess_1.jpg,Blue_Star_Stripes_3.jpg,left,858,true,high,NA,NA,NA,NA,NA,NA,NA,false
sf7ZQBOf,385mdvingfsu7ikqnsjzxyjp4abjww,3zr9aiqjufmdjuyeig8c9lht4xd04d,sf7ZQBOf,2020-0188,2020-05-08,10:46:21,11:02:07,NA,incomplete,119,number,1,left,Red_Plus_Stripes_4.jpg,Green_Star_Grid_4.jpg,Blue_Plus_Dots_2.jpg,left,948,true,high,NA,NA,NA,NA,NA,NA,NA,false
sf7ZQBOf,385mdvingfsu7ikqnsjzxyjp4abjww,3zr9aiqjufmdjuyeig8c9lht4xd04d,sf7ZQBOf,2020-0188,2020-05-08,10:46:21,11:02:07,NA,incomplete,120,shape,1,left,Purple_Circle_Grid_1.jpg,Green_Circle_Stripes_2.jpg,Red_Plus_Chess_1.jpg,right,921,false,high,NA,NA,NA,NA,NA,NA,NA,false
sf7ZQBOf,385mdvingfsu7ikqnsjzxyjp4abjww,3zr9aiqjufmdjuyeig8c9lht4xd04d,sf7ZQBOf,2020-0188,2020-05-08,10:46:21,11:02:07,NA,incomplete,121,shape,1,right,Green_Triangle_Grid_2.jpg,Red_Star_Dots_2.jpg,Purple_Triangle_Chess_4.jpg,left,902,false,high,NA,NA,NA,NA,NA,NA,NA,false
sf7ZQBOf,385mdvingfsu7ikqnsjzxyjp4abjww,3zr9aiqjufmdjuyeig8c9lht4xd04d,sf7ZQBOf,2020-0188,2020-05-08,10:46:21,11:02:07,NA,incomplete,122,shape,1,right,Purple_Circle_Stripes_4.jpg,Green_Star_Chess_4.jpg,Blue_Circle_Dots_1.jpg,left,1020,false,high,NA,NA,NA,NA,NA,NA,NA,false
sf7ZQBOf,385mdvingfsu7ikqnsjzxyjp4abjww,3zr9aiqjufmdjuyeig8c9lht4xd04d,sf7ZQBOf,2020-0188,2020-05-08,10:46:21,11:02:07,NA,incomplete,123,shape,0,right,Blue_Star_Grid_3.jpg,Red_Plus_Chess_3.jpg,Green_Star_Dots_2.jpg,left,1047,false,high,NA,NA,NA,NA,NA,NA,NA,false
sf7ZQBOf,385mdvingfsu7ikqnsjzxyjp4abjww,3zr9aiqjufmdjuyeig8c9lht4xd04d,sf7ZQBOf,2020-0188,2020-05-08,10:46:21,11:02:07,NA,incomplete,124,shape,1,left,Purple_Circle_Chess_2.jpg,Blue_Circle_Grid_4.jpg,Red_Star_Stripes_2.jpg,right,822,false,high,NA,NA,NA,NA,NA,NA,NA,false
sf7ZQBOf,385mdvingfsu7ikqnsjzxyjp4abjww,3zr9aiqjufmdjuyeig8c9lht4xd04d,sf7ZQBOf,2020-0188,2020-05-08,10:46:21,11:02:07,NA,incomplete,125,shape,1,left,Purple_Plus_Dots_2.jpg,Red_Plus_Chess_4.jpg,Blue_Circle_Stripes_2.jpg,right,1074,false,high,NA,NA,NA,NA,NA,NA,NA,false
sf7ZQBOf,385mdvingfsu7ikqnsjzxyjp4abjww,3zr9aiqjufmdjuyeig8c9lht4xd04d,sf7ZQBOf,2020-0188,2020-05-08,10:46:21,11:02:07,NA,incomplete,126,shape,1,left,Red_Star_Chess_2.jpg,Blue_Star_Dots_4.jpg,Green_Circle_Grid_2.jpg,left,1248,true,high,NA,NA,NA,NA,NA,NA,NA,false
sf7ZQBOf,385mdvingfsu7ikqnsjzxyjp4abjww,3zr9aiqjufmdjuyeig8c9lht4xd04d,sf7ZQBOf,2020-0188,2020-05-08,10:46:21,11:02:07,NA,incomplete,127,shape,0,right,Blue_Circle_Grid_4.jpg,Green_Plus_Chess_4.jpg,Purple_Circle_Stripes_3.jpg,right,1128,true,high,NA,NA,NA,NA,NA,NA,NA,false
sf7ZQBOf,385mdvingfsu7ikqnsjzxyjp4abjww,3zr9aiqjufmdjuyeig8c9lht4xd04d,sf7ZQBOf,2020-0188,2020-05-08,10:46:21,11:02:07,NA,incomplete,128,shape,1,right,Purple_Plus_Chess_1.jpg,Blue_Circle_Grid_1.jpg,Red_Plus_Dots_4.jpg,right,782,true,high,NA,NA,NA,NA,NA,NA,NA,false
sf7ZQBOf,385mdvingfsu7ikqnsjzxyjp4abjww,3zr9aiqjufmdjuyeig8c9lht4xd04d,sf7ZQBOf,2020-0188,2020-05-08,10:46:21,11:02:07,NA,incomplete,129,shape,1,left,Green_Triangle_Chess_2.jpg,Purple_Triangle_Grid_4.jpg,Red_Plus_Dots_2.jpg,left,883,true,high,NA,NA,NA,NA,NA,NA,NA,false
sf7ZQBOf,385mdvingfsu7ikqnsjzxyjp4abjww,3zr9aiqjufmdjuyeig8c9lht4xd04d,sf7ZQBOf,2020-0188,2020-05-08,10:46:21,11:02:07,NA,incomplete,130,shape,0,left,Blue_Triangle_Chess_4.jpg,Red_Triangle_Grid_3.jpg,Purple_Plus_Stripes_4.jpg,left,936,true,high,NA,NA,NA,NA,NA,NA,NA,false
sf7ZQBOf,385mdvingfsu7ikqnsjzxyjp4abjww,3zr9aiqjufmdjuyeig8c9lht4xd04d,sf7ZQBOf,2020-0188,2020-05-08,10:46:21,11:02:07,NA,incomplete,131,shape,1,left,Red_Triangle_Chess_3.jpg,Green_Triangle_Grid_4.jpg,Blue_Plus_Stripes_3.jpg,left,806,true,high,NA,NA,NA,NA,NA,NA,NA,false
sf7ZQBOf,385mdvingfsu7ikqnsjzxyjp4abjww,3zr9aiqjufmdjuyeig8c9lht4xd04d,sf7ZQBOf,2020-0188,2020-05-08,10:46:21,11:02:07,NA,incomplete,132,shape,0,left,Green_Triangle_Grid_2.jpg,Purple_Triangle_Stripes_1.jpg,Red_Circle_Dots_2.jpg,left,1064,true,high,NA,NA,NA,NA,NA,NA,NA,false
sf7ZQBOf,385mdvingfsu7ikqnsjzxyjp4abjww,3zr9aiqjufmdjuyeig8c9lht4xd04d,sf7ZQBOf,2020-0188,2020-05-08,10:46:21,11:02:07,NA,incomplete,133,shape,1,right,Green_Star_Stripes_3.jpg,Blue_Triangle_Dots_3.jpg,Purple_Star_Grid_2.jpg,right,1057,true,high,NA,NA,NA,NA,NA,NA,NA,false
sf7ZQBOf,385mdvingfsu7ikqnsjzxyjp4abjww,3zr9aiqjufmdjuyeig8c9lht4xd04d,sf7ZQBOf,2020-0188,2020-05-08,10:46:21,11:02:07,NA,incomplete,134,shape,1,left,Green_Plus_Chess_1.jpg,Blue_Plus_Dots_4.jpg,Red_Circle_Stripes_1.jpg,left,1120,true,high,NA,NA,NA,NA,NA,NA,NA,false
sf7ZQBOf,385mdvingfsu7ikqnsjzxyjp4abjww,3zr9aiqjufmdjuyeig8c9lht4xd04d,sf7ZQBOf,2020-0188,2020-05-08,10:46:21,11:02:07,NA,incomplete,135,shape,1,right,Green_Circle_Chess_1.jpg,Red_Star_Grid_1.jpg,Blue_Circle_Dots_4.jpg,right,783,true,high,NA,NA,NA,NA,NA,NA,NA,false
sf7ZQBOf,385mdvingfsu7ikqnsjzxyjp4abjww,3zr9aiqjufmdjuyeig8c9lht4xd04d,sf7ZQBOf,2020-0188,2020-05-08,10:46:21,11:02:07,NA,incomplete,136,shape,1,left,Red_Circle_Dots_1.jpg,Green_Circle_Chess_4.jpg,Blue_Plus_Grid_1.jpg,left,793,true,high,NA,NA,NA,NA,NA,NA,NA,false
sf7ZQBOf,385mdvingfsu7ikqnsjzxyjp4abjww,3zr9aiqjufmdjuyeig8c9lht4xd04d,sf7ZQBOf,2020-0188,2020-05-08,10:46:21,11:02:07,NA,incomplete,137,shape,1,left,Blue_Circle_Chess_4.jpg,Green_Circle_Grid_2.jpg,Red_Triangle_Stripes_4.jpg,left,861,true,high,NA,NA,NA,NA,NA,NA,NA,false
sf7ZQBOf,385mdvingfsu7ikqnsjzxyjp4abjww,3zr9aiqjufmdjuyeig8c9lht4xd04d,sf7ZQBOf,2020-0188,2020-05-08,10:46:21,11:02:07,NA,incomplete,138,shape,1,left,Red_Star_Grid_2.jpg,Blue_Star_Stripes_3.jpg,Purple_Plus_Chess_2.jpg,left,1413,true,high,NA,NA,NA,NA,NA,NA,NA,false
sf7ZQBOf,385mdvingfsu7ikqnsjzxyjp4abjww,3zr9aiqjufmdjuyeig8c9lht4xd04d,sf7ZQBOf,2020-0188,2020-05-08,10:46:21,11:02:07,NA,incomplete,139,shape,0,right,Green_Triangle_Dots_3.jpg,Red_Circle_Chess_3.jpg,Purple_Triangle_Stripes_1.jpg,right,951,true,high,NA,NA,NA,NA,NA,NA,NA,false
sf7ZQBOf,385mdvingfsu7ikqnsjzxyjp4abjww,3zr9aiqjufmdjuyeig8c9lht4xd04d,sf7ZQBOf,2020-0188,2020-05-08,10:46:21,11:02:07,NA,incomplete,140,number,1,left,Green_Circle_Grid_4.jpg,Purple_Star_Dots_4.jpg,Blue_Circle_Chess_2.jpg,right,1275,false,high,NA,NA,NA,NA,NA,NA,NA,false
sf7ZQBOf,385mdvingfsu7ikqnsjzxyjp4abjww,3zr9aiqjufmdjuyeig8c9lht4xd04d,sf7ZQBOf,2020-0188,2020-05-08,10:46:21,11:02:07,NA,incomplete,141,number,1,left,Red_Triangle_Grid_4.jpg,Green_Circle_Stripes_4.jpg,Blue_Triangle_Dots_3.jpg,right,1066,false,high,NA,NA,NA,NA,NA,NA,NA,false
sf7ZQBOf,385mdvingfsu7ikqnsjzxyjp4abjww,3zr9aiqjufmdjuyeig8c9lht4xd04d,sf7ZQBOf,2020-0188,2020-05-08,10:46:21,11:02:07,NA,incomplete,142,number,1,left,Blue_Star_Chess_4.jpg,Purple_Circle_Dots_4.jpg,Red_Star_Grid_2.jpg,left,1195,true,high,NA,NA,NA,NA,NA,NA,NA,false
sf7ZQBOf,385mdvingfsu7ikqnsjzxyjp4abjww,3zr9aiqjufmdjuyeig8c9lht4xd04d,sf7ZQBOf,2020-0188,2020-05-08,10:46:21,11:02:07,NA,incomplete,143,number,0,right,Purple_Star_Chess_3.jpg,Red_Star_Grid_4.jpg,Green_Circle_Stripes_3.jpg,right,910,true,high,NA,NA,NA,NA,NA,NA,NA,false
sf7ZQBOf,385mdvingfsu7ikqnsjzxyjp4abjww,3zr9aiqjufmdjuyeig8c9lht4xd04d,sf7ZQBOf,2020-0188,2020-05-08,10:46:21,11:02:07,NA,incomplete,144,number,1,right,Red_Star_Stripes_2.jpg,Green_Star_Grid_3.jpg,Purple_Triangle_Dots_2.jpg,right,941,true,high,NA,NA,NA,NA,NA,NA,NA,false
sf7ZQBOf,385mdvingfsu7ikqnsjzxyjp4abjww,3zr9aiqjufmdjuyeig8c9lht4xd04d,sf7ZQBOf,2020-0188,2020-05-08,10:46:21,11:02:07,NA,incomplete,145,number,1,left,Blue_Star_Grid_2.jpg,Purple_Plus_Stripes_2.jpg,Green_Star_Dots_3.jpg,left,849,true,high,NA,NA,NA,NA,NA,NA,NA,false
sf7ZQBOf,385mdvingfsu7ikqnsjzxyjp4abjww,3zr9aiqjufmdjuyeig8c9lht4xd04d,sf7ZQBOf,2020-0188,2020-05-08,10:46:21,11:02:07,NA,incomplete,146,number,1,left,Red_Plus_Dots_2.jpg,Purple_Circle_Grid_2.jpg,Blue_Plus_Chess_1.jpg,left,994,true,high,NA,NA,NA,NA,NA,NA,NA,false
sf7ZQBOf,385mdvingfsu7ikqnsjzxyjp4abjww,3zr9aiqjufmdjuyeig8c9lht4xd04d,sf7ZQBOf,2020-0188,2020-05-08,10:46:21,11:02:07,NA,incomplete,147,number,0,left,Purple_Circle_Dots_4.jpg,Green_Triangle_Stripes_4.jpg,Red_Circle_Chess_1.jpg,left,892,true,high,NA,NA,NA,NA,NA,NA,NA,false
sf7ZQBOf,385mdvingfsu7ikqnsjzxyjp4abjww,3zr9aiqjufmdjuyeig8c9lht4xd04d,sf7ZQBOf,2020-0188,2020-05-08,10:46:21,11:02:07,NA,incomplete,148,number,1,left,Purple_Triangle_Chess_4.jpg,Green_Plus_Stripes_4.jpg,Blue_Triangle_Dots_1.jpg,left,763,true,high,NA,NA,NA,NA,NA,NA,NA,false
sf7ZQBOf,385mdvingfsu7ikqnsjzxyjp4abjww,3zr9aiqjufmdjuyeig8c9lht4xd04d,sf7ZQBOf,2020-0188,2020-05-08,10:46:21,11:02:07,NA,incomplete,149,number,1,right,Purple_Star_Stripes_1.jpg,Blue_Star_Chess_3.jpg,Red_Plus_Dots_1.jpg,right,855,true,high,NA,NA,NA,NA,NA,NA,NA,false
sf7ZQBOf,385mdvingfsu7ikqnsjzxyjp4abjww,3zr9aiqjufmdjuyeig8c9lht4xd04d,sf7ZQBOf,2020-0188,2020-05-08,10:46:21,11:02:07,NA,incomplete,150,number,1,right,Green_Star_Chess_2.jpg,Red_Star_Stripes_4.jpg,Blue_Circle_Dots_2.jpg,right,896,true,high,NA,NA,NA,NA,NA,NA,NA,false
sf7ZQBOf,385mdvingfsu7ikqnsjzxyjp4abjww,3zr9aiqjufmdjuyeig8c9lht4xd04d,sf7ZQBOf,2020-0188,2020-05-08,10:46:21,11:02:07,NA,incomplete,151,number,1,left,Purple_Circle_Chess_4.jpg,Green_Star_Dots_4.jpg,Red_Circle_Grid_1.jpg,left,1319,true,high,NA,NA,NA,NA,NA,NA,NA,false
sf7ZQBOf,385mdvingfsu7ikqnsjzxyjp4abjww,3zr9aiqjufmdjuyeig8c9lht4xd04d,sf7ZQBOf,2020-0188,2020-05-08,10:46:21,11:02:07,NA,incomplete,152,number,1,right,Green_Star_Grid_2.jpg,Red_Star_Chess_3.jpg,Purple_Circle_Stripes_2.jpg,right,868,true,high,NA,NA,NA,NA,NA,NA,NA,false
sf7ZQBOf,385mdvingfsu7ikqnsjzxyjp4abjww,3zr9aiqjufmdjuyeig8c9lht4xd04d,sf7ZQBOf,2020-0188,2020-05-08,10:46:21,11:02:07,NA,incomplete,153,number,1,right,Purple_Plus_Dots_1.jpg,Green_Plus_Grid_4.jpg,Red_Circle_Stripes_1.jpg,right,923,true,high,NA,NA,NA,NA,NA,NA,NA,false
sf7ZQBOf,385mdvingfsu7ikqnsjzxyjp4abjww,3zr9aiqjufmdjuyeig8c9lht4xd04d,sf7ZQBOf,2020-0188,2020-05-08,10:46:21,11:02:07,NA,incomplete,154,number,1,left,Blue_Circle_Grid_2.jpg,Purple_Plus_Dots_2.jpg,Green_Circle_Chess_1.jpg,left,979,true,high,NA,NA,NA,NA,NA,NA,NA,false
sf7ZQBOf,385mdvingfsu7ikqnsjzxyjp4abjww,3zr9aiqjufmdjuyeig8c9lht4xd04d,sf7ZQBOf,2020-0188,2020-05-08,10:46:21,11:02:07,NA,incomplete,155,number,1,right,Red_Triangle_Chess_3.jpg,Purple_Triangle_Grid_1.jpg,Green_Plus_Stripes_3.jpg,right,965,true,high,NA,NA,NA,NA,NA,NA,NA,false
sf7ZQBOf,385mdvingfsu7ikqnsjzxyjp4abjww,3zr9aiqjufmdjuyeig8c9lht4xd04d,sf7ZQBOf,2020-0188,2020-05-08,10:46:21,11:02:07,NA,incomplete,156,number,1,right,Red_Plus_Stripes_2.jpg,Purple_Plus_Dots_1.jpg,Blue_Circle_Chess_2.jpg,right,938,true,high,NA,NA,NA,NA,NA,NA,NA,false
sf7ZQBOf,385mdvingfsu7ikqnsjzxyjp4abjww,3zr9aiqjufmdjuyeig8c9lht4xd04d,sf7ZQBOf,2020-0188,2020-05-08,10:46:21,11:02:07,NA,incomplete,157,number,1,left,Green_Circle_Chess_1.jpg,Red_Plus_Grid_1.jpg,Blue_Circle_Dots_2.jpg,right,725,false,high,NA,NA,NA,NA,NA,NA,NA,false
sf7ZQBOf,385mdvingfsu7ikqnsjzxyjp4abjww,3zr9aiqjufmdjuyeig8c9lht4xd04d,sf7ZQBOf,2020-0188,2020-05-08,10:46:21,11:02:07,NA,incomplete,158,number,1,left,Red_Star_Dots_3.jpg,Green_Circle_Grid_3.jpg,Blue_Star_Chess_4.jpg,left,1291,true,high,NA,NA,NA,NA,NA,NA,NA,false
sf7ZQBOf,385mdvingfsu7ikqnsjzxyjp4abjww,3zr9aiqjufmdjuyeig8c9lht4xd04d,sf7ZQBOf,2020-0188,2020-05-08,10:46:21,11:02:07,NA,incomplete,159,number,1,right,Red_Circle_Chess_3.jpg,Purple_Circle_Stripes_4.jpg,Blue_Plus_Dots_3.jpg,right,937,true,high,NA,NA,NA,NA,NA,NA,NA,false
sf7ZQBOf,385mdvingfsu7ikqnsjzxyjp4abjww,3zr9aiqjufmdjuyeig8c9lht4xd04d,sf7ZQBOf,2020-0188,2020-05-08,10:46:21,11:02:07,NA,incomplete,160,shape,1,right,Green_Circle_Grid_3.jpg,Blue_Triangle_Dots_3.jpg,Red_Circle_Chess_2.jpg,left,1049,false,high,NA,NA,NA,NA,NA,NA,NA,false
sf7ZQBOf,385mdvingfsu7ikqnsjzxyjp4abjww,3zr9aiqjufmdjuyeig8c9lht4xd04d,sf7ZQBOf,2020-0188,2020-05-08,10:46:21,11:02:07,NA,incomplete,161,shape,1,left,Blue_Circle_Stripes_1.jpg,Red_Circle_Dots_2.jpg,Green_Star_Chess_1.jpg,right,824,false,high,NA,NA,NA,NA,NA,NA,NA,false
sf7ZQBOf,385mdvingfsu7ikqnsjzxyjp4abjww,3zr9aiqjufmdjuyeig8c9lht4xd04d,sf7ZQBOf,2020-0188,2020-05-08,10:46:21,11:02:07,NA,incomplete,162,shape,0,left,Purple_Plus_Chess_1.jpg,Blue_Plus_Stripes_2.jpg,Red_Star_Dots_1.jpg,right,1136,false,high,NA,NA,NA,NA,NA,NA,NA,false
sf7ZQBOf,385mdvingfsu7ikqnsjzxyjp4abjww,3zr9aiqjufmdjuyeig8c9lht4xd04d,sf7ZQBOf,2020-0188,2020-05-08,10:46:21,11:02:07,NA,incomplete,163,shape,1,left,Red_Star_Dots_3.jpg,Purple_Star_Chess_1.jpg,Green_Triangle_Stripes_3.jpg,right,880,false,high,NA,NA,NA,NA,NA,NA,NA,false
sf7ZQBOf,385mdvingfsu7ikqnsjzxyjp4abjww,3zr9aiqjufmdjuyeig8c9lht4xd04d,sf7ZQBOf,2020-0188,2020-05-08,10:46:21,11:02:07,NA,incomplete,164,shape,0,left,Blue_Star_Chess_3.jpg,Green_Star_Grid_1.jpg,Red_Plus_Stripes_3.jpg,right,1078,false,high,NA,NA,NA,NA,NA,NA,NA,false
sf7ZQBOf,385mdvingfsu7ikqnsjzxyjp4abjww,3zr9aiqjufmdjuyeig8c9lht4xd04d,sf7ZQBOf,2020-0188,2020-05-08,10:46:21,11:02:07,NA,incomplete,165,shape,1,right,Green_Circle_Chess_3.jpg,Blue_Star_Grid_3.jpg,Purple_Circle_Stripes_4.jpg,left,1013,false,high,NA,NA,NA,NA,NA,NA,NA,false
sf7ZQBOf,385mdvingfsu7ikqnsjzxyjp4abjww,3zr9aiqjufmdjuyeig8c9lht4xd04d,sf7ZQBOf,2020-0188,2020-05-08,10:46:21,11:02:07,NA,incomplete,166,shape,1,left,Green_Triangle_Dots_4.jpg,Red_Triangle_Chess_3.jpg,Blue_Circle_Grid_4.jpg,right,1039,false,high,NA,NA,NA,NA,NA,NA,NA,false
sf7ZQBOf,385mdvingfsu7ikqnsjzxyjp4abjww,3zr9aiqjufmdjuyeig8c9lht4xd04d,sf7ZQBOf,2020-0188,2020-05-08,10:46:21,11:02:07,NA,incomplete,167,shape,0,left,Blue_Circle_Grid_3.jpg,Green_Circle_Stripes_2.jpg,Purple_Star_Dots_3.jpg,left,936,true,high,NA,NA,NA,NA,NA,NA,NA,false
sf7ZQBOf,385mdvingfsu7ikqnsjzxyjp4abjww,3zr9aiqjufmdjuyeig8c9lht4xd04d,sf7ZQBOf,2020-0188,2020-05-08,10:46:21,11:02:07,NA,incomplete,168,shape,1,left,Red_Star_Dots_2.jpg,Green_Star_Chess_4.jpg,Purple_Triangle_Stripes_2.jpg,left,1268,true,high,NA,NA,NA,NA,NA,NA,NA,false
sf7ZQBOf,385mdvingfsu7ikqnsjzxyjp4abjww,3zr9aiqjufmdjuyeig8c9lht4xd04d,sf7ZQBOf,2020-0188,2020-05-08,10:46:21,11:02:07,NA,incomplete,169,shape,1,left,Red_Star_Grid_1.jpg,Blue_Star_Chess_2.jpg,Green_Circle_Stripes_1.jpg,left,756,true,high,NA,NA,NA,NA,NA,NA,NA,false
sf7ZQBOf,385mdvingfsu7ikqnsjzxyjp4abjww,3zr9aiqjufmdjuyeig8c9lht4xd04d,sf7ZQBOf,2020-0188,2020-05-08,10:46:21,11:02:07,NA,incomplete,170,shape,0,left,Purple_Triangle_Grid_2.jpg,Red_Triangle_Chess_4.jpg,Blue_Star_Stripes_2.jpg,left,1033,true,high,NA,NA,NA,NA,NA,NA,NA,false
sf7ZQBOf,385mdvingfsu7ikqnsjzxyjp4abjww,3zr9aiqjufmdjuyeig8c9lht4xd04d,sf7ZQBOf,2020-0188,2020-05-08,10:46:21,11:02:07,NA,incomplete,171,shape,1,left,Blue_Star_Stripes_1.jpg,Red_Star_Grid_3.jpg,Green_Triangle_Chess_1.jpg,left,859,true,high,NA,NA,NA,NA,NA,NA,NA,false
sf7ZQBOf,385mdvingfsu7ikqnsjzxyjp4abjww,3zr9aiqjufmdjuyeig8c9lht4xd04d,sf7ZQBOf,2020-0188,2020-05-08,10:46:21,11:02:07,NA,incomplete,172,shape,1,right,Blue_Circle_Dots_3.jpg,Green_Plus_Stripes_3.jpg,Purple_Circle_Chess_4.jpg,right,1354,true,high,NA,NA,NA,NA,NA,NA,NA,false
sf7ZQBOf,385mdvingfsu7ikqnsjzxyjp4abjww,3zr9aiqjufmdjuyeig8c9lht4xd04d,sf7ZQBOf,2020-0188,2020-05-08,10:46:21,11:02:07,NA,incomplete,173,shape,1,right,Purple_Triangle_Grid_2.jpg,Blue_Circle_Chess_2.jpg,Green_Triangle_Dots_4.jpg,right,816,true,high,NA,NA,NA,NA,NA,NA,NA,false
sf7ZQBOf,385mdvingfsu7ikqnsjzxyjp4abjww,3zr9aiqjufmdjuyeig8c9lht4xd04d,sf7ZQBOf,2020-0188,2020-05-08,10:46:21,11:02:07,NA,incomplete,174,shape,1,right,Blue_Triangle_Stripes_3.jpg,Red_Star_Dots_3.jpg,Purple_Triangle_Chess_4.jpg,right,833,true,high,NA,NA,NA,NA,NA,NA,NA,false
sf7ZQBOf,385mdvingfsu7ikqnsjzxyjp4abjww,3zr9aiqjufmdjuyeig8c9lht4xd04d,sf7ZQBOf,2020-0188,2020-05-08,10:46:21,11:02:07,NA,incomplete,175,shape,1,left,Purple_Plus_Stripes_2.jpg,Blue_Plus_Dots_1.jpg,Red_Star_Grid_2.jpg,left,1091,true,high,NA,NA,NA,NA,NA,NA,NA,false
sf7ZQBOf,385mdvingfsu7ikqnsjzxyjp4abjww,3zr9aiqjufmdjuyeig8c9lht4xd04d,sf7ZQBOf,2020-0188,2020-05-08,10:46:21,11:02:07,NA,incomplete,176,shape,1,right,Blue_Triangle_Stripes_2.jpg,Red_Circle_Chess_2.jpg,Green_Triangle_Dots_4.jpg,right,761,true,high,NA,NA,NA,NA,NA,NA,NA,false
sf7ZQBOf,385mdvingfsu7ikqnsjzxyjp4abjww,3zr9aiqjufmdjuyeig8c9lht4xd04d,sf7ZQBOf,2020-0188,2020-05-08,10:46:21,11:02:07,NA,incomplete,177,shape,0,left,Green_Circle_Chess_2.jpg,Blue_Circle_Dots_1.jpg,Purple_Star_Grid_2.jpg,left,958,true,high,NA,NA,NA,NA,NA,NA,NA,false
sf7ZQBOf,385mdvingfsu7ikqnsjzxyjp4abjww,3zr9aiqjufmdjuyeig8c9lht4xd04d,sf7ZQBOf,2020-0188,2020-05-08,10:46:21,11:02:07,NA,incomplete,178,shape,1,right,Green_Plus_Grid_4.jpg,Purple_Circle_Chess_4.jpg,Blue_Plus_Stripes_1.jpg,right,682,true,high,NA,NA,NA,NA,NA,NA,NA,false
sf7ZQBOf,385mdvingfsu7ikqnsjzxyjp4abjww,3zr9aiqjufmdjuyeig8c9lht4xd04d,sf7ZQBOf,2020-0188,2020-05-08,10:46:21,11:02:07,NA,incomplete,179,shape,0,right,Red_Triangle_Grid_3.jpg,Purple_Star_Chess_3.jpg,Blue_Triangle_Stripes_4.jpg,right,913,true,high,NA,NA,NA,NA,NA,NA,NA,false
sf7ZQBOf,385mdvingfsu7ikqnsjzxyjp4abjww,3zr9aiqjufmdjuyeig8c9lht4xd04d,sf7ZQBOf,2020-0188,2020-05-08,10:46:21,11:02:07,NA,incomplete,180,number,1,left,Blue_Triangle_Grid_3.jpg,Purple_Star_Chess_3.jpg,Green_Triangle_Stripes_2.jpg,right,751,false,high,NA,NA,NA,NA,NA,NA,NA,false
sf7ZQBOf,385mdvingfsu7ikqnsjzxyjp4abjww,3zr9aiqjufmdjuyeig8c9lht4xd04d,sf7ZQBOf,2020-0188,2020-05-08,10:46:21,11:02:07,NA,incomplete,181,number,0,left,Blue_Plus_Stripes_1.jpg,Purple_Triangle_Chess_1.jpg,Green_Plus_Dots_4.jpg,right,781,false,high,NA,NA,NA,NA,NA,NA,NA,false
sf7ZQBOf,385mdvingfsu7ikqnsjzxyjp4abjww,3zr9aiqjufmdjuyeig8c9lht4xd04d,sf7ZQBOf,2020-0188,2020-05-08,10:46:21,11:02:07,NA,incomplete,182,number,1,right,Red_Circle_Dots_2.jpg,Blue_Circle_Grid_4.jpg,Green_Triangle_Stripes_2.jpg,left,1328,false,high,NA,NA,NA,NA,NA,NA,NA,false
sf7ZQBOf,385mdvingfsu7ikqnsjzxyjp4abjww,3zr9aiqjufmdjuyeig8c9lht4xd04d,sf7ZQBOf,2020-0188,2020-05-08,10:46:21,11:02:07,NA,incomplete,183,number,1,right,Green_Plus_Chess_1.jpg,Blue_Plus_Dots_3.jpg,Purple_Star_Stripes_1.jpg,left,1198,false,high,NA,NA,NA,NA,NA,NA,NA,false
sf7ZQBOf,385mdvingfsu7ikqnsjzxyjp4abjww,3zr9aiqjufmdjuyeig8c9lht4xd04d,sf7ZQBOf,2020-0188,2020-05-08,10:46:21,11:02:07,NA,incomplete,184,number,1,right,Green_Plus_Dots_2.jpg,Red_Plus_Chess_1.jpg,Purple_Star_Grid_2.jpg,left,968,false,high,NA,NA,NA,NA,NA,NA,NA,false
sf7ZQBOf,385mdvingfsu7ikqnsjzxyjp4abjww,3zr9aiqjufmdjuyeig8c9lht4xd04d,sf7ZQBOf,2020-0188,2020-05-08,10:46:21,11:02:07,NA,incomplete,185,number,1,left,Purple_Triangle_Stripes_2.jpg,Red_Star_Chess_2.jpg,Blue_Triangle_Dots_3.jpg,right,1187,false,high,NA,NA,NA,NA,NA,NA,NA,false
sf7ZQBOf,385mdvingfsu7ikqnsjzxyjp4abjww,3zr9aiqjufmdjuyeig8c9lht4xd04d,sf7ZQBOf,2020-0188,2020-05-08,10:46:21,11:02:07,NA,incomplete,186,number,1,right,Green_Circle_Stripes_2.jpg,Red_Circle_Grid_1.jpg,Purple_Plus_Chess_2.jpg,right,854,true,high,NA,NA,NA,NA,NA,NA,NA,false
sf7ZQBOf,385mdvingfsu7ikqnsjzxyjp4abjww,3zr9aiqjufmdjuyeig8c9lht4xd04d,sf7ZQBOf,2020-0188,2020-05-08,10:46:21,11:02:07,NA,incomplete,187,number,0,right,Blue_Circle_Dots_3.jpg,Green_Circle_Stripes_2.jpg,Purple_Star_Grid_3.jpg,right,934,true,high,NA,NA,NA,NA,NA,NA,NA,false
sf7ZQBOf,385mdvingfsu7ikqnsjzxyjp4abjww,3zr9aiqjufmdjuyeig8c9lht4xd04d,sf7ZQBOf,2020-0188,2020-05-08,10:46:21,11:02:07,NA,incomplete,188,number,1,right,Green_Circle_Dots_4.jpg,Purple_Circle_Grid_1.jpg,Blue_Plus_Stripes_4.jpg,right,908,true,high,NA,NA,NA,NA,NA,NA,NA,false
sf7ZQBOf,385mdvingfsu7ikqnsjzxyjp4abjww,3zr9aiqjufmdjuyeig8c9lht4xd04d,sf7ZQBOf,2020-0188,2020-05-08,10:46:21,11:02:07,NA,incomplete,189,number,0,left,Purple_Triangle_Stripes_4.jpg,Blue_Circle_Grid_4.jpg,Green_Triangle_Chess_3.jpg,left,969,true,high,NA,NA,NA,NA,NA,NA,NA,false
sf7ZQBOf,385mdvingfsu7ikqnsjzxyjp4abjww,3zr9aiqjufmdjuyeig8c9lht4xd04d,sf7ZQBOf,2020-0188,2020-05-08,10:46:21,11:02:07,NA,incomplete,190,number,1,left,Red_Triangle_Chess_4.jpg,Purple_Circle_Dots_4.jpg,Green_Triangle_Grid_2.jpg,left,1045,true,high,NA,NA,NA,NA,NA,NA,NA,false
sf7ZQBOf,385mdvingfsu7ikqnsjzxyjp4abjww,3zr9aiqjufmdjuyeig8c9lht4xd04d,sf7ZQBOf,2020-0188,2020-05-08,10:46:21,11:02:07,NA,incomplete,191,number,0,right,Red_Plus_Dots_4.jpg,Blue_Plus_Chess_3.jpg,Green_Triangle_Grid_4.jpg,right,1014,true,high,NA,NA,NA,NA,NA,NA,NA,false
sf7ZQBOf,385mdvingfsu7ikqnsjzxyjp4abjww,3zr9aiqjufmdjuyeig8c9lht4xd04d,sf7ZQBOf,2020-0188,2020-05-08,10:46:21,11:02:07,NA,incomplete,192,number,1,right,Blue_Triangle_Grid_2.jpg,Purple_Triangle_Chess_4.jpg,Green_Circle_Stripes_2.jpg,right,912,true,high,NA,NA,NA,NA,NA,NA,NA,false
sf7ZQBOf,385mdvingfsu7ikqnsjzxyjp4abjww,3zr9aiqjufmdjuyeig8c9lht4xd04d,sf7ZQBOf,2020-0188,2020-05-08,10:46:21,11:02:07,NA,incomplete,193,number,1,left,Blue_Plus_Dots_1.jpg,Green_Circle_Grid_1.jpg,Red_Plus_Chess_4.jpg,left,878,true,high,NA,NA,NA,NA,NA,NA,NA,false
sf7ZQBOf,385mdvingfsu7ikqnsjzxyjp4abjww,3zr9aiqjufmdjuyeig8c9lht4xd04d,sf7ZQBOf,2020-0188,2020-05-08,10:46:21,11:02:07,NA,incomplete,194,number,1,right,Purple_Plus_Chess_1.jpg,Blue_Plus_Stripes_2.jpg,Red_Star_Dots_1.jpg,right,767,true,high,NA,NA,NA,NA,NA,NA,NA,false
sf7ZQBOf,385mdvingfsu7ikqnsjzxyjp4abjww,3zr9aiqjufmdjuyeig8c9lht4xd04d,sf7ZQBOf,2020-0188,2020-05-08,10:46:21,11:02:07,NA,incomplete,195,number,1,left,Green_Circle_Stripes_2.jpg,Purple_Triangle_Grid_2.jpg,Blue_Circle_Chess_4.jpg,left,905,true,high,NA,NA,NA,NA,NA,NA,NA,false
sf7ZQBOf,385mdvingfsu7ikqnsjzxyjp4abjww,3zr9aiqjufmdjuyeig8c9lht4xd04d,sf7ZQBOf,2020-0188,2020-05-08,10:46:21,11:02:07,NA,incomplete,196,number,0,right,Green_Circle_Chess_3.jpg,Red_Circle_Stripes_2.jpg,Blue_Plus_Grid_3.jpg,right,999,true,high,NA,NA,NA,NA,NA,NA,NA,false
sf7ZQBOf,385mdvingfsu7ikqnsjzxyjp4abjww,3zr9aiqjufmdjuyeig8c9lht4xd04d,sf7ZQBOf,2020-0188,2020-05-08,10:46:21,11:02:07,NA,incomplete,197,number,1,right,Purple_Plus_Dots_1.jpg,Red_Plus_Grid_2.jpg,Blue_Star_Stripes_1.jpg,right,955,true,high,NA,NA,NA,NA,NA,NA,NA,false
sf7ZQBOf,385mdvingfsu7ikqnsjzxyjp4abjww,3zr9aiqjufmdjuyeig8c9lht4xd04d,sf7ZQBOf,2020-0188,2020-05-08,10:46:21,11:02:07,NA,incomplete,198,number,1,right,Blue_Triangle_Dots_2.jpg,Green_Triangle_Chess_4.jpg,Purple_Circle_Grid_2.jpg,right,1008,true,high,NA,NA,NA,NA,NA,NA,NA,false
sf7ZQBOf,385mdvingfsu7ikqnsjzxyjp4abjww,3zr9aiqjufmdjuyeig8c9lht4xd04d,sf7ZQBOf,2020-0188,2020-05-08,10:46:21,11:02:07,NA,incomplete,199,number,1,right,Blue_Circle_Grid_2.jpg,Purple_Circle_Dots_4.jpg,Green_Star_Chess_2.jpg,right,795,true,high,NA,NA,NA,NA,NA,NA,NA,false
sf7ZQBOf,385mdvingfsu7ikqnsjzxyjp4abjww,3zr9aiqjufmdjuyeig8c9lht4xd04d,sf7ZQBOf,2020-0188,2020-05-08,10:46:21,11:02:07,NA,incomplete,200,shape,1,left,Green_Star_Stripes_4.jpg,Red_Star_Grid_2.jpg,Blue_Plus_Chess_4.jpg,right,861,false,high,NA,NA,NA,NA,NA,NA,NA,false
sf7ZQBOf,385mdvingfsu7ikqnsjzxyjp4abjww,3zr9aiqjufmdjuyeig8c9lht4xd04d,sf7ZQBOf,2020-0188,2020-05-08,10:46:21,11:02:07,NA,incomplete,201,shape,1,left,Green_Circle_Grid_4.jpg,Blue_Circle_Stripes_2.jpg,Purple_Star_Dots_4.jpg,right,797,false,high,NA,NA,NA,NA,NA,NA,NA,false
sf7ZQBOf,385mdvingfsu7ikqnsjzxyjp4abjww,3zr9aiqjufmdjuyeig8c9lht4xd04d,sf7ZQBOf,2020-0188,2020-05-08,10:46:21,11:02:07,NA,incomplete,202,shape,1,right,Purple_Plus_Stripes_1.jpg,Blue_Star_Grid_1.jpg,Red_Plus_Chess_3.jpg,left,921,false,high,NA,NA,NA,NA,NA,NA,NA,false
sf7ZQBOf,385mdvingfsu7ikqnsjzxyjp4abjww,3zr9aiqjufmdjuyeig8c9lht4xd04d,sf7ZQBOf,2020-0188,2020-05-08,10:46:21,11:02:07,NA,incomplete,203,shape,1,right,Red_Star_Grid_4.jpg,Green_Triangle_Chess_4.jpg,Purple_Star_Stripes_1.jpg,right,1278,true,high,NA,NA,NA,NA,NA,NA,NA,false
sf7ZQBOf,385mdvingfsu7ikqnsjzxyjp4abjww,3zr9aiqjufmdjuyeig8c9lht4xd04d,sf7ZQBOf,2020-0188,2020-05-08,10:46:21,11:02:07,NA,incomplete,204,shape,1,right,Purple_Triangle_Grid_4.jpg,Blue_Star_Dots_4.jpg,Green_Triangle_Stripes_3.jpg,right,1110,true,high,NA,NA,NA,NA,NA,NA,NA,false
sf7ZQBOf,385mdvingfsu7ikqnsjzxyjp4abjww,3zr9aiqjufmdjuyeig8c9lht4xd04d,sf7ZQBOf,2020-0188,2020-05-08,10:46:21,11:02:07,NA,incomplete,205,shape,1,right,Red_Triangle_Grid_4.jpg,Green_Plus_Chess_4.jpg,Blue_Triangle_Dots_2.jpg,right,803,true,high,NA,NA,NA,NA,NA,NA,NA,false
sf7ZQBOf,385mdvingfsu7ikqnsjzxyjp4abjww,3zr9aiqjufmdjuyeig8c9lht4xd04d,sf7ZQBOf,2020-0188,2020-05-08,10:46:21,11:02:07,NA,incomplete,206,shape,1,left,Blue_Circle_Grid_3.jpg,Red_Circle_Chess_2.jpg,Green_Star_Dots_3.jpg,left,1245,true,high,NA,NA,NA,NA,NA,NA,NA,false
sf7ZQBOf,385mdvingfsu7ikqnsjzxyjp4abjww,3zr9aiqjufmdjuyeig8c9lht4xd04d,sf7ZQBOf,2020-0188,2020-05-08,10:46:21,11:02:07,NA,incomplete,207,shape,1,left,Green_Star_Stripes_2.jpg,Purple_Star_Chess_1.jpg,Blue_Circle_Dots_2.jpg,left,1399,true,high,NA,NA,NA,NA,NA,NA,NA,false
sf7ZQBOf,385mdvingfsu7ikqnsjzxyjp4abjww,3zr9aiqjufmdjuyeig8c9lht4xd04d,sf7ZQBOf,2020-0188,2020-05-08,10:46:21,11:02:07,NA,incomplete,208,shape,0,left,Red_Circle_Dots_4.jpg,Blue_Circle_Chess_2.jpg,Green_Triangle_Stripes_4.jpg,right,1208,false,high,NA,NA,NA,NA,NA,NA,NA,false
sf7ZQBOf,385mdvingfsu7ikqnsjzxyjp4abjww,3zr9aiqjufmdjuyeig8c9lht4xd04d,sf7ZQBOf,2020-0188,2020-05-08,10:46:21,11:02:07,NA,incomplete,209,shape,1,right,Blue_Plus_Grid_4.jpg,Green_Circle_Stripes_4.jpg,Purple_Plus_Dots_1.jpg,right,860,true,high,NA,NA,NA,NA,NA,NA,NA,false
sf7ZQBOf,385mdvingfsu7ikqnsjzxyjp4abjww,3zr9aiqjufmdjuyeig8c9lht4xd04d,sf7ZQBOf,2020-0188,2020-05-08,10:46:21,11:02:07,NA,incomplete,210,shape,1,left,Green_Triangle_Grid_3.jpg,Red_Triangle_Chess_4.jpg,Purple_Star_Stripes_3.jpg,left,1364,true,high,NA,NA,NA,NA,NA,NA,NA,false
sf7ZQBOf,385mdvingfsu7ikqnsjzxyjp4abjww,3zr9aiqjufmdjuyeig8c9lht4xd04d,sf7ZQBOf,2020-0188,2020-05-08,10:46:21,11:02:07,NA,incomplete,211,shape,1,left,Purple_Star_Dots_3.jpg,Green_Star_Stripes_4.jpg,Red_Plus_Grid_3.jpg,left,1207,true,high,NA,NA,NA,NA,NA,NA,NA,false
sf7ZQBOf,385mdvingfsu7ikqnsjzxyjp4abjww,3zr9aiqjufmdjuyeig8c9lht4xd04d,sf7ZQBOf,2020-0188,2020-05-08,10:46:21,11:02:07,NA,incomplete,212,shape,1,left,Blue_Plus_Chess_1.jpg,Red_Plus_Dots_4.jpg,Green_Star_Grid_1.jpg,left,1249,true,high,NA,NA,NA,NA,NA,NA,NA,false
sf7ZQBOf,385mdvingfsu7ikqnsjzxyjp4abjww,3zr9aiqjufmdjuyeig8c9lht4xd04d,sf7ZQBOf,2020-0188,2020-05-08,10:46:21,11:02:07,NA,incomplete,213,shape,1,right,Purple_Star_Grid_4.jpg,Blue_Circle_Stripes_4.jpg,Green_Star_Dots_1.jpg,right,937,true,high,NA,NA,NA,NA,NA,NA,NA,false
sf7ZQBOf,385mdvingfsu7ikqnsjzxyjp4abjww,3zr9aiqjufmdjuyeig8c9lht4xd04d,sf7ZQBOf,2020-0188,2020-05-08,10:46:21,11:02:07,NA,incomplete,214,shape,1,right,Red_Plus_Dots_2.jpg,Purple_Triangle_Chess_2.jpg,Blue_Plus_Grid_4.jpg,right,1078,true,high,NA,NA,NA,NA,NA,NA,NA,false
sf7ZQBOf,385mdvingfsu7ikqnsjzxyjp4abjww,3zr9aiqjufmdjuyeig8c9lht4xd04d,sf7ZQBOf,2020-0188,2020-05-08,10:46:21,11:02:07,NA,incomplete,215,shape,0,right,Blue_Plus_Chess_3.jpg,Green_Star_Stripes_3.jpg,Purple_Plus_Grid_1.jpg,right,1045,true,high,NA,NA,NA,NA,NA,NA,NA,false
sf7ZQBOf,385mdvingfsu7ikqnsjzxyjp4abjww,3zr9aiqjufmdjuyeig8c9lht4xd04d,sf7ZQBOf,2020-0188,2020-05-08,10:46:21,11:02:07,NA,incomplete,216,shape,1,right,Blue_Circle_Grid_1.jpg,Purple_Triangle_Stripes_1.jpg,Red_Circle_Chess_2.jpg,right,1119,true,high,NA,NA,NA,NA,NA,NA,NA,false
sf7ZQBOf,385mdvingfsu7ikqnsjzxyjp4abjww,3zr9aiqjufmdjuyeig8c9lht4xd04d,sf7ZQBOf,2020-0188,2020-05-08,10:46:21,11:02:07,NA,incomplete,217,shape,1,right,Red_Star_Dots_3.jpg,Green_Circle_Grid_3.jpg,Blue_Star_Stripes_4.jpg,right,1588,true,high,NA,NA,NA,NA,NA,NA,NA,false
sf7ZQBOf,385mdvingfsu7ikqnsjzxyjp4abjww,3zr9aiqjufmdjuyeig8c9lht4xd04d,sf7ZQBOf,2020-0188,2020-05-08,10:46:21,11:02:07,NA,incomplete,218,shape,1,right,Blue_Plus_Grid_3.jpg,Purple_Star_Dots_3.jpg,Green_Plus_Stripes_2.jpg,right,967,true,high,NA,NA,NA,NA,NA,NA,NA,false
sf7ZQBOf,385mdvingfsu7ikqnsjzxyjp4abjww,3zr9aiqjufmdjuyeig8c9lht4xd04d,sf7ZQBOf,2020-0188,2020-05-08,10:46:21,11:02:07,NA,incomplete,219,shape,1,right,Green_Circle_Dots_1.jpg,Blue_Star_Chess_1.jpg,Purple_Circle_Grid_4.jpg,right,993,true,high,NA,NA,NA,NA,NA,NA,NA,false
sf7ZQBOf,385mdvingfsu7ikqnsjzxyjp4abjww,3zr9aiqjufmdjuyeig8c9lht4xd04d,sf7ZQBOf,2020-0188,2020-05-08,10:46:21,11:02:07,NA,incomplete,220,number,1,left,Blue_Star_Grid_4.jpg,Red_Plus_Chess_4.jpg,Purple_Star_Stripes_2.jpg,right,1197,false,high,NA,NA,NA,NA,NA,NA,NA,false
sf7ZQBOf,385mdvingfsu7ikqnsjzxyjp4abjww,3zr9aiqjufmdjuyeig8c9lht4xd04d,sf7ZQBOf,2020-0188,2020-05-08,10:46:21,11:02:07,NA,incomplete,221,number,1,right,Blue_Circle_Stripes_2.jpg,Red_Circle_Dots_3.jpg,Green_Triangle_Chess_2.jpg,left,1448,false,high,NA,NA,NA,NA,NA,NA,NA,false
sf7ZQBOf,385mdvingfsu7ikqnsjzxyjp4abjww,3zr9aiqjufmdjuyeig8c9lht4xd04d,sf7ZQBOf,2020-0188,2020-05-08,10:46:21,11:02:07,NA,incomplete,222,number,0,right,Red_Triangle_Chess_4.jpg,Green_Triangle_Grid_1.jpg,Purple_Circle_Dots_4.jpg,left,1641,false,high,NA,NA,NA,NA,NA,NA,NA,false
sf7ZQBOf,385mdvingfsu7ikqnsjzxyjp4abjww,3zr9aiqjufmdjuyeig8c9lht4xd04d,sf7ZQBOf,2020-0188,2020-05-08,10:46:21,11:02:07,NA,incomplete,223,number,1,right,Purple_Plus_Dots_3.jpg,Green_Plus_Stripes_1.jpg,Blue_Circle_Chess_3.jpg,left,850,false,high,NA,NA,NA,NA,NA,NA,NA,false
sf7ZQBOf,385mdvingfsu7ikqnsjzxyjp4abjww,3zr9aiqjufmdjuyeig8c9lht4xd04d,sf7ZQBOf,2020-0188,2020-05-08,10:46:21,11:02:07,NA,incomplete,224,number,0,left,Blue_Triangle_Stripes_2.jpg,Purple_Circle_Grid_2.jpg,Green_Triangle_Chess_4.jpg,left,1604,true,high,NA,NA,NA,NA,NA,NA,NA,false
sf7ZQBOf,385mdvingfsu7ikqnsjzxyjp4abjww,3zr9aiqjufmdjuyeig8c9lht4xd04d,sf7ZQBOf,2020-0188,2020-05-08,10:46:21,11:02:07,NA,incomplete,225,number,1,right,Green_Star_Stripes_1.jpg,Purple_Star_Chess_2.jpg,Blue_Plus_Grid_1.jpg,right,916,true,high,NA,NA,NA,NA,NA,NA,NA,false
sf7ZQBOf,385mdvingfsu7ikqnsjzxyjp4abjww,3zr9aiqjufmdjuyeig8c9lht4xd04d,sf7ZQBOf,2020-0188,2020-05-08,10:46:21,11:02:07,NA,incomplete,226,number,1,left,Green_Plus_Chess_1.jpg,Blue_Triangle_Stripes_1.jpg,Purple_Plus_Grid_3.jpg,left,874,true,high,NA,NA,NA,NA,NA,NA,NA,false
sf7ZQBOf,385mdvingfsu7ikqnsjzxyjp4abjww,3zr9aiqjufmdjuyeig8c9lht4xd04d,sf7ZQBOf,2020-0188,2020-05-08,10:46:21,11:02:07,NA,incomplete,227,number,1,right,Purple_Plus_Stripes_4.jpg,Blue_Plus_Chess_3.jpg,Red_Triangle_Dots_4.jpg,right,1026,true,high,NA,NA,NA,NA,NA,NA,NA,false
sf7ZQBOf,385mdvingfsu7ikqnsjzxyjp4abjww,3zr9aiqjufmdjuyeig8c9lht4xd04d,sf7ZQBOf,2020-0188,2020-05-08,10:46:21,11:02:07,NA,incomplete,228,number,0,left,Blue_Circle_Chess_2.jpg,Red_Star_Stripes_2.jpg,Green_Circle_Dots_3.jpg,left,939,true,high,NA,NA,NA,NA,NA,NA,NA,false
sf7ZQBOf,385mdvingfsu7ikqnsjzxyjp4abjww,3zr9aiqjufmdjuyeig8c9lht4xd04d,sf7ZQBOf,2020-0188,2020-05-08,10:46:21,11:02:07,NA,incomplete,229,number,1,left,Blue_Plus_Stripes_1.jpg,Purple_Star_Chess_1.jpg,Green_Plus_Grid_3.jpg,left,1098,true,high,NA,NA,NA,NA,NA,NA,NA,false
sf7ZQBOf,385mdvingfsu7ikqnsjzxyjp4abjww,3zr9aiqjufmdjuyeig8c9lht4xd04d,sf7ZQBOf,2020-0188,2020-05-08,10:46:21,11:02:07,NA,incomplete,230,number,1,left,Purple_Plus_Chess_2.jpg,Blue_Circle_Dots_2.jpg,Green_Plus_Stripes_4.jpg,left,1031,true,high,NA,NA,NA,NA,NA,NA,NA,false
sf7ZQBOf,385mdvingfsu7ikqnsjzxyjp4abjww,3zr9aiqjufmdjuyeig8c9lht4xd04d,sf7ZQBOf,2020-0188,2020-05-08,10:46:21,11:02:07,NA,incomplete,231,number,1,right,Red_Circle_Stripes_4.jpg,Blue_Circle_Dots_2.jpg,Green_Star_Chess_4.jpg,right,1184,true,high,NA,NA,NA,NA,NA,NA,NA,false
sf7ZQBOf,385mdvingfsu7ikqnsjzxyjp4abjww,3zr9aiqjufmdjuyeig8c9lht4xd04d,sf7ZQBOf,2020-0188,2020-05-08,10:46:21,11:02:07,NA,incomplete,232,number,1,left,Purple_Plus_Grid_4.jpg,Red_Triangle_Chess_4.jpg,Blue_Plus_Dots_2.jpg,left,1099,true,high,NA,NA,NA,NA,NA,NA,NA,false
sf7ZQBOf,385mdvingfsu7ikqnsjzxyjp4abjww,3zr9aiqjufmdjuyeig8c9lht4xd04d,sf7ZQBOf,2020-0188,2020-05-08,10:46:21,11:02:07,NA,incomplete,233,number,1,left,Blue_Star_Chess_1.jpg,Purple_Circle_Dots_1.jpg,Green_Star_Stripes_4.jpg,left,1354,true,high,NA,NA,NA,NA,NA,NA,NA,false
sf7ZQBOf,385mdvingfsu7ikqnsjzxyjp4abjww,3zr9aiqjufmdjuyeig8c9lht4xd04d,sf7ZQBOf,2020-0188,2020-05-08,10:46:21,11:02:07,NA,incomplete,234,number,1,left,Purple_Plus_Dots_2.jpg,Green_Circle_Chess_2.jpg,Red_Plus_Stripes_1.jpg,left,1382,true,high,NA,NA,NA,NA,NA,NA,NA,false
sf7ZQBOf,385mdvingfsu7ikqnsjzxyjp4abjww,3zr9aiqjufmdjuyeig8c9lht4xd04d,sf7ZQBOf,2020-0188,2020-05-08,10:46:21,11:02:07,NA,incomplete,235,number,1,left,Green_Star_Dots_1.jpg,Blue_Triangle_Chess_1.jpg,Red_Star_Stripes_4.jpg,left,1018,true,high,NA,NA,NA,NA,NA,NA,NA,false
sf7ZQBOf,385mdvingfsu7ikqnsjzxyjp4abjww,3zr9aiqjufmdjuyeig8c9lht4xd04d,sf7ZQBOf,2020-0188,2020-05-08,10:46:21,11:02:07,NA,incomplete,236,number,1,left,Red_Triangle_Dots_1.jpg,Blue_Star_Grid_1.jpg,Purple_Triangle_Stripes_2.jpg,left,1228,true,high,NA,NA,NA,NA,NA,NA,NA,false
sf7ZQBOf,385mdvingfsu7ikqnsjzxyjp4abjww,3zr9aiqjufmdjuyeig8c9lht4xd04d,sf7ZQBOf,2020-0188,2020-05-08,10:46:21,11:02:07,NA,incomplete,237,number,1,right,Red_Star_Grid_1.jpg,Green_Star_Chess_3.jpg,Blue_Circle_Stripes_1.jpg,right,1421,true,high,NA,NA,NA,NA,NA,NA,NA,false
sf7ZQBOf,385mdvingfsu7ikqnsjzxyjp4abjww,3zr9aiqjufmdjuyeig8c9lht4xd04d,sf7ZQBOf,2020-0188,2020-05-08,10:46:21,11:02:07,NA,incomplete,238,number,0,left,Red_Circle_Dots_1.jpg,Purple_Triangle_Stripes_1.jpg,Green_Circle_Chess_4.jpg,left,742,true,high,NA,NA,NA,NA,NA,NA,NA,false
sf7ZQBOf,385mdvingfsu7ikqnsjzxyjp4abjww,3zr9aiqjufmdjuyeig8c9lht4xd04d,sf7ZQBOf,2020-0188,2020-05-08,10:46:21,11:02:07,NA,incomplete,239,number,1,right,Red_Plus_Chess_4.jpg,Purple_Plus_Grid_3.jpg,Green_Star_Dots_4.jpg,right,1058,true,high,NA,NA,NA,NA,NA,NA,NA,false
sf7ZQBOf,385mdvingfsu7ikqnsjzxyjp4abjww,3zr9aiqjufmdjuyeig8c9lht4xd04d,sf7ZQBOf,2020-0188,2020-05-08,10:46:21,11:02:07,920527,948271,NA,NA,NA,NA,NA,NA,NA,NA,NA,NA,NA,51,White/Caucasian,Male,American,no,yes,no,undefined
