workerId,hitId,assignmentId,subject,studyid,exp_date,exp_start,exp_end,time_start,time_end,trial,type,reward_validity,answer,image_top,image_left,image_right,response,response_time,response_acc,volatility,age,race,gender,ethnicity,color,vision,neuro,practice
PW4NRjZw,3eawoid6nwaaqnjzba4xtrlfy89v0t,30budkltxh8u63h84sq1z2pb1je5em,PW4NRjZw,2020-0188,2020-05-21,15:21:26,15:46:11,NA,incomplete,0,shape,1,left,Green_Circle_Chess_2.jpg,Blue_Circle_Dots_4.jpg,Green_Triangle_Grid_3.jpg,right,886.4450000110082,false,NA,NA,NA,NA,NA,NA,NA,NA,true
PW4NRjZw,3eawoid6nwaaqnjzba4xtrlfy89v0t,30budkltxh8u63h84sq1z2pb1je5em,PW4NRjZw,2020-0188,2020-05-21,15:21:26,15:46:11,NA,incomplete,1,shape,1,left,Purple_Triangle_Dots_3.jpg,Green_Triangle_Stripes_1.jpg,Purple_Circle_Grid_4.jpg,left,989.5399999804795,true,NA,NA,NA,NA,NA,NA,NA,NA,true
PW4NRjZw,3eawoid6nwaaqnjzba4xtrlfy89v0t,30budkltxh8u63h84sq1z2pb1je5em,PW4NRjZw,2020-0188,2020-05-21,15:21:26,15:46:11,NA,incomplete,2,shape,1,right,Purple_Circle_Stripes_1.jpg,Purple_Star_Chess_2.jpg,Green_Circle_Dots_4.jpg,right,1130.7849999866448,true,NA,NA,NA,NA,NA,NA,NA,NA,true
PW4NRjZw,3eawoid6nwaaqnjzba4xtrlfy89v0t,30budkltxh8u63h84sq1z2pb1je5em,PW4NRjZw,2020-0188,2020-05-21,15:21:26,15:46:11,NA,incomplete,3,shape,1,right,Purple_Triangle_Grid_1.jpg,Purple_Star_Stripes_4.jpg,Blue_Triangle_Dots_3.jpg,right,849.1950000170618,true,NA,NA,NA,NA,NA,NA,NA,NA,true
PW4NRjZw,3eawoid6nwaaqnjzba4xtrlfy89v0t,30budkltxh8u63h84sq1z2pb1je5em,PW4NRjZw,2020-0188,2020-05-21,15:21:26,15:46:11,NA,incomplete,4,shape,1,right,Blue_Triangle_Chess_1.jpg,Blue_Plus_Stripes_2.jpg,Purple_Triangle_Dots_4.jpg,right,866.0200000158511,true,NA,NA,NA,NA,NA,NA,NA,NA,true
PW4NRjZw,3eawoid6nwaaqnjzba4xtrlfy89v0t,30budkltxh8u63h84sq1z2pb1je5em,PW4NRjZw,2020-0188,2020-05-21,15:21:26,15:46:11,NA,incomplete,5,shape,1,left,Purple_Star_Stripes_1.jpg,Blue_Star_Grid_4.jpg,Purple_Plus_Chess_3.jpg,left,802.9800000367686,true,NA,NA,NA,NA,NA,NA,NA,NA,true
PW4NRjZw,3eawoid6nwaaqnjzba4xtrlfy89v0t,30budkltxh8u63h84sq1z2pb1je5em,PW4NRjZw,2020-0188,2020-05-21,15:21:26,15:46:11,NA,incomplete,6,shape,1,left,Blue_Plus_Chess_1.jpg,Purple_Plus_Grid_2.jpg,Blue_Circle_Dots_4.jpg,left,767.4199999892153,true,NA,NA,NA,NA,NA,NA,NA,NA,true
PW4NRjZw,3eawoid6nwaaqnjzba4xtrlfy89v0t,30budkltxh8u63h84sq1z2pb1je5em,PW4NRjZw,2020-0188,2020-05-21,15:21:26,15:46:11,NA,incomplete,7,shape,0,right,Purple_Star_Stripes_4.jpg,Purple_Triangle_Chess_1.jpg,Blue_Star_Grid_3.jpg,right,635.454999981448,true,NA,NA,NA,NA,NA,NA,NA,NA,true
PW4NRjZw,3eawoid6nwaaqnjzba4xtrlfy89v0t,30budkltxh8u63h84sq1z2pb1je5em,PW4NRjZw,2020-0188,2020-05-21,15:21:26,15:46:11,NA,incomplete,8,shape,1,right,Green_Triangle_Dots_4.jpg,Green_Plus_Grid_2.jpg,Red_Triangle_Chess_3.jpg,right,848.9599999738857,true,NA,NA,NA,NA,NA,NA,NA,NA,true
PW4NRjZw,3eawoid6nwaaqnjzba4xtrlfy89v0t,30budkltxh8u63h84sq1z2pb1je5em,PW4NRjZw,2020-0188,2020-05-21,15:21:26,15:46:11,NA,incomplete,9,shape,1,right,Blue_Plus_Dots_1.jpg,Blue_Circle_Stripes_3.jpg,Red_Plus_Grid_2.jpg,right,878.6800000234507,true,NA,NA,NA,NA,NA,NA,NA,NA,true
PW4NRjZw,3eawoid6nwaaqnjzba4xtrlfy89v0t,30budkltxh8u63h84sq1z2pb1je5em,PW4NRjZw,2020-0188,2020-05-21,15:21:26,15:46:11,NA,incomplete,10,shape,1,left,Red_Triangle_Dots_2.jpg,Purple_Triangle_Grid_1.jpg,Red_Plus_Chess_3.jpg,left,792.2750000143424,true,NA,NA,NA,NA,NA,NA,NA,NA,true
PW4NRjZw,3eawoid6nwaaqnjzba4xtrlfy89v0t,30budkltxh8u63h84sq1z2pb1je5em,PW4NRjZw,2020-0188,2020-05-21,15:21:26,15:46:11,NA,incomplete,11,shape,1,left,Red_Plus_Grid_2.jpg,Green_Plus_Dots_4.jpg,Red_Star_Stripes_3.jpg,left,759.5849999925122,true,NA,NA,NA,NA,NA,NA,NA,NA,true
PW4NRjZw,3eawoid6nwaaqnjzba4xtrlfy89v0t,30budkltxh8u63h84sq1z2pb1je5em,PW4NRjZw,2020-0188,2020-05-21,15:21:26,15:46:11,NA,incomplete,12,shape,1,left,Red_Circle_Stripes_3.jpg,Green_Circle_Grid_1.jpg,Red_Plus_Dots_4.jpg,left,711.8699999991804,true,NA,NA,NA,NA,NA,NA,NA,NA,true
PW4NRjZw,3eawoid6nwaaqnjzba4xtrlfy89v0t,30budkltxh8u63h84sq1z2pb1je5em,PW4NRjZw,2020-0188,2020-05-21,15:21:26,15:46:11,NA,incomplete,13,shape,1,right,Green_Star_Dots_1.jpg,Green_Circle_Grid_2.jpg,Blue_Star_Chess_4.jpg,right,688.7550000101328,true,NA,NA,NA,NA,NA,NA,NA,NA,true
PW4NRjZw,3eawoid6nwaaqnjzba4xtrlfy89v0t,30budkltxh8u63h84sq1z2pb1je5em,PW4NRjZw,2020-0188,2020-05-21,15:21:26,15:46:11,NA,incomplete,14,shape,1,left,Blue_Star_Dots_2.jpg,Purple_Star_Chess_3.jpg,Blue_Plus_Grid_4.jpg,left,972.5500000058673,true,NA,NA,NA,NA,NA,NA,NA,NA,true
PW4NRjZw,3eawoid6nwaaqnjzba4xtrlfy89v0t,30budkltxh8u63h84sq1z2pb1je5em,PW4NRjZw,2020-0188,2020-05-21,15:21:26,15:46:11,NA,incomplete,15,shape,0,left,Green_Triangle_Dots_2.jpg,Purple_Triangle_Grid_4.jpg,Green_Star_Stripes_1.jpg,left,699.445000034757,true,NA,NA,NA,NA,NA,NA,NA,NA,true
PW4NRjZw,3eawoid6nwaaqnjzba4xtrlfy89v0t,30budkltxh8u63h84sq1z2pb1je5em,PW4NRjZw,2020-0188,2020-05-21,15:21:26,15:46:11,NA,incomplete,16,shape,1,left,Red_Triangle_Dots_2.jpg,Blue_Triangle_Chess_3.jpg,Red_Star_Stripes_4.jpg,left,830.1799999899231,true,NA,NA,NA,NA,NA,NA,NA,NA,true
PW4NRjZw,3eawoid6nwaaqnjzba4xtrlfy89v0t,30budkltxh8u63h84sq1z2pb1je5em,PW4NRjZw,2020-0188,2020-05-21,15:21:26,15:46:11,NA,incomplete,17,shape,1,right,Red_Star_Stripes_4.jpg,Red_Circle_Dots_1.jpg,Purple_Star_Grid_2.jpg,right,645.1649999944493,true,NA,NA,NA,NA,NA,NA,NA,NA,true
PW4NRjZw,3eawoid6nwaaqnjzba4xtrlfy89v0t,30budkltxh8u63h84sq1z2pb1je5em,PW4NRjZw,2020-0188,2020-05-21,15:21:26,15:46:11,NA,incomplete,18,shape,1,left,Purple_Plus_Chess_4.jpg,Blue_Plus_Grid_3.jpg,Purple_Triangle_Stripes_1.jpg,left,886.9800000102259,true,NA,NA,NA,NA,NA,NA,NA,NA,true
PW4NRjZw,3eawoid6nwaaqnjzba4xtrlfy89v0t,30budkltxh8u63h84sq1z2pb1je5em,PW4NRjZw,2020-0188,2020-05-21,15:21:26,15:46:11,NA,incomplete,19,shape,1,left,Purple_Triangle_Stripes_2.jpg,Green_Triangle_Grid_3.jpg,Purple_Star_Dots_1.jpg,left,684.8450000397861,true,NA,NA,NA,NA,NA,NA,NA,NA,true
PW4NRjZw,3eawoid6nwaaqnjzba4xtrlfy89v0t,30budkltxh8u63h84sq1z2pb1je5em,PW4NRjZw,2020-0188,2020-05-21,15:21:26,15:46:11,NA,incomplete,20,color,0,left,Green_Plus_Grid_3.jpg,Green_Circle_Dots_2.jpg,Blue_Plus_Chess_1.jpg,left,1257.4700000113808,true,NA,NA,NA,NA,NA,NA,NA,NA,true
PW4NRjZw,3eawoid6nwaaqnjzba4xtrlfy89v0t,30budkltxh8u63h84sq1z2pb1je5em,PW4NRjZw,2020-0188,2020-05-21,15:21:26,15:46:11,NA,incomplete,21,color,0,right,Purple_Triangle_Chess_1.jpg,Blue_Triangle_Dots_2.jpg,Purple_Plus_Grid_4.jpg,right,752.184999990277,true,NA,NA,NA,NA,NA,NA,NA,NA,true
PW4NRjZw,3eawoid6nwaaqnjzba4xtrlfy89v0t,30budkltxh8u63h84sq1z2pb1je5em,PW4NRjZw,2020-0188,2020-05-21,15:21:26,15:46:11,NA,incomplete,22,color,1,left,Green_Star_Dots_4.jpg,Green_Triangle_Grid_3.jpg,Purple_Star_Stripes_2.jpg,left,1065.1899999938905,true,NA,NA,NA,NA,NA,NA,NA,NA,true
PW4NRjZw,3eawoid6nwaaqnjzba4xtrlfy89v0t,30budkltxh8u63h84sq1z2pb1je5em,PW4NRjZw,2020-0188,2020-05-21,15:21:26,15:46:11,NA,incomplete,23,color,1,left,Blue_Triangle_Stripes_3.jpg,Blue_Star_Grid_2.jpg,Green_Triangle_Chess_1.jpg,left,831.6650000051595,true,NA,NA,NA,NA,NA,NA,NA,NA,true
PW4NRjZw,3eawoid6nwaaqnjzba4xtrlfy89v0t,30budkltxh8u63h84sq1z2pb1je5em,PW4NRjZw,2020-0188,2020-05-21,15:21:26,15:46:11,NA,incomplete,24,color,1,right,Red_Triangle_Chess_1.jpg,Blue_Triangle_Dots_2.jpg,Red_Circle_Stripes_4.jpg,right,677.239999989979,true,NA,NA,NA,NA,NA,NA,NA,NA,true
PW4NRjZw,3eawoid6nwaaqnjzba4xtrlfy89v0t,30budkltxh8u63h84sq1z2pb1je5em,PW4NRjZw,2020-0188,2020-05-21,15:21:26,15:46:11,NA,incomplete,25,color,1,right,Blue_Star_Grid_2.jpg,Red_Star_Chess_1.jpg,Blue_Circle_Dots_3.jpg,right,976.9349999842234,true,NA,NA,NA,NA,NA,NA,NA,NA,true
PW4NRjZw,3eawoid6nwaaqnjzba4xtrlfy89v0t,30budkltxh8u63h84sq1z2pb1je5em,PW4NRjZw,2020-0188,2020-05-21,15:21:26,15:46:11,NA,incomplete,26,color,1,left,Red_Triangle_Stripes_4.jpg,Red_Circle_Grid_2.jpg,Green_Triangle_Chess_3.jpg,left,1018.7100000330247,true,NA,NA,NA,NA,NA,NA,NA,NA,true
PW4NRjZw,3eawoid6nwaaqnjzba4xtrlfy89v0t,30budkltxh8u63h84sq1z2pb1je5em,PW4NRjZw,2020-0188,2020-05-21,15:21:26,15:46:11,NA,incomplete,27,color,1,left,Purple_Triangle_Dots_3.jpg,Purple_Star_Stripes_1.jpg,Blue_Triangle_Chess_2.jpg,left,1165.160000033211,true,NA,NA,NA,NA,NA,NA,NA,NA,true
PW4NRjZw,3eawoid6nwaaqnjzba4xtrlfy89v0t,30budkltxh8u63h84sq1z2pb1je5em,PW4NRjZw,2020-0188,2020-05-21,15:21:26,15:46:11,NA,incomplete,28,color,1,right,Green_Plus_Chess_4.jpg,Blue_Plus_Grid_3.jpg,Green_Star_Stripes_1.jpg,right,844.6899999980815,true,NA,NA,NA,NA,NA,NA,NA,NA,true
PW4NRjZw,3eawoid6nwaaqnjzba4xtrlfy89v0t,30budkltxh8u63h84sq1z2pb1je5em,PW4NRjZw,2020-0188,2020-05-21,15:21:26,15:46:11,NA,incomplete,29,color,1,right,Blue_Circle_Grid_4.jpg,Green_Circle_Stripes_1.jpg,Blue_Triangle_Chess_3.jpg,right,903.504999994766,true,NA,NA,NA,NA,NA,NA,NA,NA,true
PW4NRjZw,3eawoid6nwaaqnjzba4xtrlfy89v0t,30budkltxh8u63h84sq1z2pb1je5em,PW4NRjZw,2020-0188,2020-05-21,15:21:26,15:46:11,NA,incomplete,30,color,1,right,Purple_Star_Dots_3.jpg,Red_Star_Stripes_1.jpg,Purple_Plus_Grid_4.jpg,right,620.0349999708124,true,NA,NA,NA,NA,NA,NA,NA,NA,true
PW4NRjZw,3eawoid6nwaaqnjzba4xtrlfy89v0t,30budkltxh8u63h84sq1z2pb1je5em,PW4NRjZw,2020-0188,2020-05-21,15:21:26,15:46:11,NA,incomplete,31,color,0,right,Green_Triangle_Grid_4.jpg,Purple_Triangle_Chess_3.jpg,Green_Plus_Dots_2.jpg,right,613.9250000123866,true,NA,NA,NA,NA,NA,NA,NA,NA,true
PW4NRjZw,3eawoid6nwaaqnjzba4xtrlfy89v0t,30budkltxh8u63h84sq1z2pb1je5em,PW4NRjZw,2020-0188,2020-05-21,15:21:26,15:46:11,NA,incomplete,32,color,0,right,Red_Star_Stripes_1.jpg,Purple_Star_Chess_2.jpg,Red_Plus_Grid_3.jpg,right,656.9749999907799,true,NA,NA,NA,NA,NA,NA,NA,NA,true
PW4NRjZw,3eawoid6nwaaqnjzba4xtrlfy89v0t,30budkltxh8u63h84sq1z2pb1je5em,PW4NRjZw,2020-0188,2020-05-21,15:21:26,15:46:11,NA,incomplete,33,color,1,left,Purple_Triangle_Grid_2.jpg,Purple_Star_Dots_3.jpg,Green_Triangle_Chess_1.jpg,left,846.0399999748915,true,NA,NA,NA,NA,NA,NA,NA,NA,true
PW4NRjZw,3eawoid6nwaaqnjzba4xtrlfy89v0t,30budkltxh8u63h84sq1z2pb1je5em,PW4NRjZw,2020-0188,2020-05-21,15:21:26,15:46:11,NA,incomplete,34,color,1,right,Green_Triangle_Stripes_3.jpg,Red_Triangle_Dots_2.jpg,Green_Circle_Chess_4.jpg,right,706.319999997504,true,NA,NA,NA,NA,NA,NA,NA,NA,true
PW4NRjZw,3eawoid6nwaaqnjzba4xtrlfy89v0t,30budkltxh8u63h84sq1z2pb1je5em,PW4NRjZw,2020-0188,2020-05-21,15:21:26,15:46:11,NA,incomplete,35,color,1,left,Red_Circle_Chess_3.jpg,Red_Triangle_Stripes_1.jpg,Blue_Circle_Grid_2.jpg,left,951.9600000348873,true,NA,NA,NA,NA,NA,NA,NA,NA,true
PW4NRjZw,3eawoid6nwaaqnjzba4xtrlfy89v0t,30budkltxh8u63h84sq1z2pb1je5em,PW4NRjZw,2020-0188,2020-05-21,15:21:26,15:46:11,NA,incomplete,36,color,0,left,Blue_Plus_Chess_2.jpg,Blue_Triangle_Stripes_3.jpg,Green_Plus_Grid_1.jpg,left,589.1499999561347,true,NA,NA,NA,NA,NA,NA,NA,NA,true
PW4NRjZw,3eawoid6nwaaqnjzba4xtrlfy89v0t,30budkltxh8u63h84sq1z2pb1je5em,PW4NRjZw,2020-0188,2020-05-21,15:21:26,15:46:11,NA,incomplete,37,color,1,right,Blue_Circle_Stripes_2.jpg,Purple_Circle_Chess_3.jpg,Blue_Plus_Grid_1.jpg,right,592.85000001546,true,NA,NA,NA,NA,NA,NA,NA,NA,true
PW4NRjZw,3eawoid6nwaaqnjzba4xtrlfy89v0t,30budkltxh8u63h84sq1z2pb1je5em,PW4NRjZw,2020-0188,2020-05-21,15:21:26,15:46:11,NA,incomplete,38,color,1,right,Blue_Circle_Dots_2.jpg,Red_Circle_Chess_3.jpg,Blue_Plus_Stripes_1.jpg,right,683.4449999732897,true,NA,NA,NA,NA,NA,NA,NA,NA,true
PW4NRjZw,3eawoid6nwaaqnjzba4xtrlfy89v0t,30budkltxh8u63h84sq1z2pb1je5em,PW4NRjZw,2020-0188,2020-05-21,15:21:26,15:46:11,NA,incomplete,39,color,0,right,Green_Star_Chess_1.jpg,Blue_Star_Stripes_2.jpg,Green_Circle_Dots_4.jpg,right,609.664999996312,true,NA,NA,NA,NA,NA,NA,NA,NA,true
PW4NRjZw,3eawoid6nwaaqnjzba4xtrlfy89v0t,30budkltxh8u63h84sq1z2pb1je5em,PW4NRjZw,2020-0188,2020-05-21,15:21:26,15:46:11,NA,incomplete,0,shape,1,left,Green_Star_Dots_2.jpg,Blue_Star_Chess_4.jpg,Green_Plus_Stripes_3.jpg,right,964.1299999784678,false,high,NA,NA,NA,NA,NA,NA,NA,false
PW4NRjZw,3eawoid6nwaaqnjzba4xtrlfy89v0t,30budkltxh8u63h84sq1z2pb1je5em,PW4NRjZw,2020-0188,2020-05-21,15:21:26,15:46:11,NA,incomplete,1,shape,0,right,Green_Plus_Dots_4.jpg,Green_Circle_Grid_1.jpg,Blue_Plus_Chess_3.jpg,left,1142.9249999928288,false,high,NA,NA,NA,NA,NA,NA,NA,false
PW4NRjZw,3eawoid6nwaaqnjzba4xtrlfy89v0t,30budkltxh8u63h84sq1z2pb1je5em,PW4NRjZw,2020-0188,2020-05-21,15:21:26,15:46:11,NA,incomplete,2,shape,0,right,Red_Triangle_Grid_1.jpg,Red_Star_Stripes_4.jpg,Purple_Triangle_Dots_3.jpg,left,809.4450000207871,false,high,NA,NA,NA,NA,NA,NA,NA,false
PW4NRjZw,3eawoid6nwaaqnjzba4xtrlfy89v0t,30budkltxh8u63h84sq1z2pb1je5em,PW4NRjZw,2020-0188,2020-05-21,15:21:26,15:46:11,NA,incomplete,3,shape,1,right,Blue_Triangle_Chess_3.jpg,Blue_Plus_Stripes_1.jpg,Red_Triangle_Grid_2.jpg,left,773.4100000234321,false,high,NA,NA,NA,NA,NA,NA,NA,false
PW4NRjZw,3eawoid6nwaaqnjzba4xtrlfy89v0t,30budkltxh8u63h84sq1z2pb1je5em,PW4NRjZw,2020-0188,2020-05-21,15:21:26,15:46:11,NA,incomplete,4,shape,0,left,Red_Plus_Stripes_1.jpg,Purple_Plus_Grid_3.jpg,Red_Triangle_Chess_4.jpg,right,641.5049999486655,false,high,NA,NA,NA,NA,NA,NA,NA,false
PW4NRjZw,3eawoid6nwaaqnjzba4xtrlfy89v0t,30budkltxh8u63h84sq1z2pb1je5em,PW4NRjZw,2020-0188,2020-05-21,15:21:26,15:46:11,NA,incomplete,5,shape,1,right,Blue_Triangle_Grid_3.jpg,Blue_Star_Chess_4.jpg,Green_Triangle_Dots_1.jpg,left,607.4399999924935,false,high,NA,NA,NA,NA,NA,NA,NA,false
PW4NRjZw,3eawoid6nwaaqnjzba4xtrlfy89v0t,30budkltxh8u63h84sq1z2pb1je5em,PW4NRjZw,2020-0188,2020-05-21,15:21:26,15:46:11,NA,incomplete,6,shape,1,left,Blue_Circle_Chess_4.jpg,Purple_Circle_Grid_1.jpg,Blue_Plus_Stripes_3.jpg,right,549.7350000077859,false,high,NA,NA,NA,NA,NA,NA,NA,false
PW4NRjZw,3eawoid6nwaaqnjzba4xtrlfy89v0t,30budkltxh8u63h84sq1z2pb1je5em,PW4NRjZw,2020-0188,2020-05-21,15:21:26,15:46:11,NA,incomplete,7,shape,1,left,Red_Triangle_Stripes_4.jpg,Blue_Triangle_Chess_2.jpg,Red_Plus_Dots_1.jpg,right,745.4600000055507,false,high,NA,NA,NA,NA,NA,NA,NA,false
PW4NRjZw,3eawoid6nwaaqnjzba4xtrlfy89v0t,30budkltxh8u63h84sq1z2pb1je5em,PW4NRjZw,2020-0188,2020-05-21,15:21:26,15:46:11,NA,incomplete,8,shape,0,right,Purple_Triangle_Grid_1.jpg,Purple_Circle_Stripes_3.jpg,Blue_Triangle_Chess_2.jpg,right,788.6449999641627,true,high,NA,NA,NA,NA,NA,NA,NA,false
PW4NRjZw,3eawoid6nwaaqnjzba4xtrlfy89v0t,30budkltxh8u63h84sq1z2pb1je5em,PW4NRjZw,2020-0188,2020-05-21,15:21:26,15:46:11,NA,incomplete,9,shape,1,right,Blue_Circle_Dots_3.jpg,Blue_Plus_Stripes_2.jpg,Green_Circle_Grid_4.jpg,right,695.6699999864213,true,high,NA,NA,NA,NA,NA,NA,NA,false
PW4NRjZw,3eawoid6nwaaqnjzba4xtrlfy89v0t,30budkltxh8u63h84sq1z2pb1je5em,PW4NRjZw,2020-0188,2020-05-21,15:21:26,15:46:11,NA,incomplete,10,color,0,left,Purple_Circle_Grid_4.jpg,Purple_Triangle_Stripes_2.jpg,Green_Circle_Chess_3.jpg,right,689.3999999738298,false,high,NA,NA,NA,NA,NA,NA,NA,false
PW4NRjZw,3eawoid6nwaaqnjzba4xtrlfy89v0t,30budkltxh8u63h84sq1z2pb1je5em,PW4NRjZw,2020-0188,2020-05-21,15:21:26,15:46:11,NA,incomplete,11,color,1,left,Green_Triangle_Stripes_4.jpg,Green_Plus_Grid_1.jpg,Blue_Triangle_Chess_3.jpg,right,605.0349999568425,false,high,NA,NA,NA,NA,NA,NA,NA,false
PW4NRjZw,3eawoid6nwaaqnjzba4xtrlfy89v0t,30budkltxh8u63h84sq1z2pb1je5em,PW4NRjZw,2020-0188,2020-05-21,15:21:26,15:46:11,NA,incomplete,12,color,1,left,Purple_Triangle_Chess_3.jpg,Purple_Plus_Dots_1.jpg,Red_Triangle_Grid_2.jpg,right,641.2949999794364,false,high,NA,NA,NA,NA,NA,NA,NA,false
PW4NRjZw,3eawoid6nwaaqnjzba4xtrlfy89v0t,30budkltxh8u63h84sq1z2pb1je5em,PW4NRjZw,2020-0188,2020-05-21,15:21:26,15:46:11,NA,incomplete,13,color,1,left,Green_Circle_Dots_1.jpg,Green_Triangle_Grid_2.jpg,Blue_Circle_Chess_3.jpg,left,721.1850000312552,true,high,NA,NA,NA,NA,NA,NA,NA,false
PW4NRjZw,3eawoid6nwaaqnjzba4xtrlfy89v0t,30budkltxh8u63h84sq1z2pb1je5em,PW4NRjZw,2020-0188,2020-05-21,15:21:26,15:46:11,NA,incomplete,14,color,1,right,Green_Circle_Grid_1.jpg,Purple_Circle_Dots_3.jpg,Green_Triangle_Chess_4.jpg,right,577.7300000190735,true,high,NA,NA,NA,NA,NA,NA,NA,false
PW4NRjZw,3eawoid6nwaaqnjzba4xtrlfy89v0t,30budkltxh8u63h84sq1z2pb1je5em,PW4NRjZw,2020-0188,2020-05-21,15:21:26,15:46:11,NA,incomplete,15,color,1,right,Green_Star_Dots_4.jpg,Red_Star_Stripes_2.jpg,Green_Circle_Grid_3.jpg,right,553.2249999814667,true,high,NA,NA,NA,NA,NA,NA,NA,false
PW4NRjZw,3eawoid6nwaaqnjzba4xtrlfy89v0t,30budkltxh8u63h84sq1z2pb1je5em,PW4NRjZw,2020-0188,2020-05-21,15:21:26,15:46:11,NA,incomplete,16,color,1,right,Red_Plus_Chess_3.jpg,Green_Plus_Dots_4.jpg,Red_Star_Grid_1.jpg,right,699.3750000256114,true,high,NA,NA,NA,NA,NA,NA,NA,false
PW4NRjZw,3eawoid6nwaaqnjzba4xtrlfy89v0t,30budkltxh8u63h84sq1z2pb1je5em,PW4NRjZw,2020-0188,2020-05-21,15:21:26,15:46:11,NA,incomplete,17,color,1,left,Blue_Plus_Grid_3.jpg,Blue_Star_Stripes_2.jpg,Red_Plus_Dots_4.jpg,left,903.5600000061095,true,high,NA,NA,NA,NA,NA,NA,NA,false
PW4NRjZw,3eawoid6nwaaqnjzba4xtrlfy89v0t,30budkltxh8u63h84sq1z2pb1je5em,PW4NRjZw,2020-0188,2020-05-21,15:21:26,15:46:11,NA,incomplete,18,color,1,right,Red_Triangle_Chess_4.jpg,Green_Triangle_Grid_1.jpg,Red_Plus_Dots_3.jpg,right,573.2300000381656,true,high,NA,NA,NA,NA,NA,NA,NA,false
PW4NRjZw,3eawoid6nwaaqnjzba4xtrlfy89v0t,30budkltxh8u63h84sq1z2pb1je5em,PW4NRjZw,2020-0188,2020-05-21,15:21:26,15:46:11,NA,incomplete,19,color,1,left,Purple_Circle_Stripes_2.jpg,Purple_Triangle_Chess_3.jpg,Blue_Circle_Grid_4.jpg,left,759.1100000427105,true,high,NA,NA,NA,NA,NA,NA,NA,false
PW4NRjZw,3eawoid6nwaaqnjzba4xtrlfy89v0t,30budkltxh8u63h84sq1z2pb1je5em,PW4NRjZw,2020-0188,2020-05-21,15:21:26,15:46:11,NA,incomplete,20,shape,1,left,Green_Star_Chess_3.jpg,Red_Star_Dots_2.jpg,Green_Circle_Grid_4.jpg,right,565.4600000125356,false,high,NA,NA,NA,NA,NA,NA,NA,false
PW4NRjZw,3eawoid6nwaaqnjzba4xtrlfy89v0t,30budkltxh8u63h84sq1z2pb1je5em,PW4NRjZw,2020-0188,2020-05-21,15:21:26,15:46:11,NA,incomplete,21,shape,0,left,Purple_Triangle_Chess_4.jpg,Red_Triangle_Grid_2.jpg,Purple_Plus_Stripes_1.jpg,right,618.369999981951,false,high,NA,NA,NA,NA,NA,NA,NA,false
PW4NRjZw,3eawoid6nwaaqnjzba4xtrlfy89v0t,30budkltxh8u63h84sq1z2pb1je5em,PW4NRjZw,2020-0188,2020-05-21,15:21:26,15:46:11,NA,incomplete,22,shape,1,left,Red_Star_Grid_2.jpg,Blue_Star_Stripes_3.jpg,Red_Triangle_Dots_4.jpg,right,769.0500000026077,false,high,NA,NA,NA,NA,NA,NA,NA,false
PW4NRjZw,3eawoid6nwaaqnjzba4xtrlfy89v0t,30budkltxh8u63h84sq1z2pb1je5em,PW4NRjZw,2020-0188,2020-05-21,15:21:26,15:46:11,NA,incomplete,23,shape,1,right,Blue_Triangle_Grid_1.jpg,Blue_Circle_Stripes_2.jpg,Red_Triangle_Chess_3.jpg,left,627.1349999587983,false,high,NA,NA,NA,NA,NA,NA,NA,false
PW4NRjZw,3eawoid6nwaaqnjzba4xtrlfy89v0t,30budkltxh8u63h84sq1z2pb1je5em,PW4NRjZw,2020-0188,2020-05-21,15:21:26,15:46:11,NA,incomplete,24,shape,1,right,Purple_Star_Chess_3.jpg,Purple_Plus_Stripes_2.jpg,Green_Star_Grid_4.jpg,right,1022.850000008475,true,high,NA,NA,NA,NA,NA,NA,NA,false
PW4NRjZw,3eawoid6nwaaqnjzba4xtrlfy89v0t,30budkltxh8u63h84sq1z2pb1je5em,PW4NRjZw,2020-0188,2020-05-21,15:21:26,15:46:11,NA,incomplete,25,shape,1,left,Green_Star_Chess_2.jpg,Purple_Star_Stripes_4.jpg,Green_Circle_Dots_3.jpg,left,916.0499999998137,true,high,NA,NA,NA,NA,NA,NA,NA,false
PW4NRjZw,3eawoid6nwaaqnjzba4xtrlfy89v0t,30budkltxh8u63h84sq1z2pb1je5em,PW4NRjZw,2020-0188,2020-05-21,15:21:26,15:46:11,NA,incomplete,26,shape,1,left,Purple_Triangle_Dots_3.jpg,Green_Triangle_Stripes_2.jpg,Purple_Star_Grid_4.jpg,left,932.5650000246242,true,high,NA,NA,NA,NA,NA,NA,NA,false
PW4NRjZw,3eawoid6nwaaqnjzba4xtrlfy89v0t,30budkltxh8u63h84sq1z2pb1je5em,PW4NRjZw,2020-0188,2020-05-21,15:21:26,15:46:11,NA,incomplete,27,shape,0,right,Blue_Triangle_Dots_4.jpg,Blue_Plus_Chess_2.jpg,Red_Triangle_Stripes_3.jpg,left,673.6799999489449,false,high,NA,NA,NA,NA,NA,NA,NA,false
PW4NRjZw,3eawoid6nwaaqnjzba4xtrlfy89v0t,30budkltxh8u63h84sq1z2pb1je5em,PW4NRjZw,2020-0188,2020-05-21,15:21:26,15:46:11,NA,incomplete,28,shape,1,left,Red_Triangle_Chess_3.jpg,Green_Triangle_Stripes_2.jpg,Red_Circle_Dots_4.jpg,left,790.5599999940023,true,high,NA,NA,NA,NA,NA,NA,NA,false
PW4NRjZw,3eawoid6nwaaqnjzba4xtrlfy89v0t,30budkltxh8u63h84sq1z2pb1je5em,PW4NRjZw,2020-0188,2020-05-21,15:21:26,15:46:11,NA,incomplete,29,shape,1,right,Green_Triangle_Dots_2.jpg,Green_Plus_Grid_4.jpg,Blue_Triangle_Chess_1.jpg,left,632.3299999930896,false,high,NA,NA,NA,NA,NA,NA,NA,false
PW4NRjZw,3eawoid6nwaaqnjzba4xtrlfy89v0t,30budkltxh8u63h84sq1z2pb1je5em,PW4NRjZw,2020-0188,2020-05-21,15:21:26,15:46:11,NA,incomplete,30,color,1,left,Green_Star_Chess_2.jpg,Green_Triangle_Dots_4.jpg,Purple_Star_Grid_1.jpg,right,1239.9049999658018,false,high,NA,NA,NA,NA,NA,NA,NA,false
PW4NRjZw,3eawoid6nwaaqnjzba4xtrlfy89v0t,30budkltxh8u63h84sq1z2pb1je5em,PW4NRjZw,2020-0188,2020-05-21,15:21:26,15:46:11,NA,incomplete,31,color,1,right,Blue_Star_Stripes_4.jpg,Purple_Star_Chess_1.jpg,Blue_Circle_Grid_3.jpg,right,929.7050000168383,true,high,NA,NA,NA,NA,NA,NA,NA,false
PW4NRjZw,3eawoid6nwaaqnjzba4xtrlfy89v0t,30budkltxh8u63h84sq1z2pb1je5em,PW4NRjZw,2020-0188,2020-05-21,15:21:26,15:46:11,NA,incomplete,32,color,1,left,Green_Star_Chess_2.jpg,Green_Circle_Grid_3.jpg,Red_Star_Stripes_4.jpg,left,967.8249999997206,true,high,NA,NA,NA,NA,NA,NA,NA,false
PW4NRjZw,3eawoid6nwaaqnjzba4xtrlfy89v0t,30budkltxh8u63h84sq1z2pb1je5em,PW4NRjZw,2020-0188,2020-05-21,15:21:26,15:46:11,NA,incomplete,33,color,0,left,Green_Circle_Stripes_3.jpg,Green_Plus_Dots_1.jpg,Blue_Circle_Chess_2.jpg,right,1213.0299999844283,false,high,NA,NA,NA,NA,NA,NA,NA,false
PW4NRjZw,3eawoid6nwaaqnjzba4xtrlfy89v0t,30budkltxh8u63h84sq1z2pb1je5em,PW4NRjZw,2020-0188,2020-05-21,15:21:26,15:46:11,NA,incomplete,34,color,0,right,Red_Star_Grid_1.jpg,Purple_Star_Stripes_2.jpg,Red_Plus_Dots_4.jpg,right,1132.4900000472553,true,high,NA,NA,NA,NA,NA,NA,NA,false
PW4NRjZw,3eawoid6nwaaqnjzba4xtrlfy89v0t,30budkltxh8u63h84sq1z2pb1je5em,PW4NRjZw,2020-0188,2020-05-21,15:21:26,15:46:11,NA,incomplete,35,color,0,left,Red_Triangle_Stripes_2.jpg,Red_Plus_Dots_3.jpg,Green_Triangle_Grid_1.jpg,left,672.0249999780208,true,high,NA,NA,NA,NA,NA,NA,NA,false
PW4NRjZw,3eawoid6nwaaqnjzba4xtrlfy89v0t,30budkltxh8u63h84sq1z2pb1je5em,PW4NRjZw,2020-0188,2020-05-21,15:21:26,15:46:11,NA,incomplete,36,color,1,right,Green_Plus_Dots_2.jpg,Blue_Plus_Grid_4.jpg,Green_Triangle_Chess_3.jpg,left,852.0600000047125,false,high,NA,NA,NA,NA,NA,NA,NA,false
PW4NRjZw,3eawoid6nwaaqnjzba4xtrlfy89v0t,30budkltxh8u63h84sq1z2pb1je5em,PW4NRjZw,2020-0188,2020-05-21,15:21:26,15:46:11,NA,incomplete,37,color,1,left,Green_Star_Grid_2.jpg,Green_Circle_Stripes_1.jpg,Red_Star_Dots_4.jpg,right,962.7949999994598,false,high,NA,NA,NA,NA,NA,NA,NA,false
PW4NRjZw,3eawoid6nwaaqnjzba4xtrlfy89v0t,30budkltxh8u63h84sq1z2pb1je5em,PW4NRjZw,2020-0188,2020-05-21,15:21:26,15:46:11,NA,incomplete,38,color,0,left,Purple_Triangle_Grid_2.jpg,Purple_Star_Dots_3.jpg,Green_Triangle_Chess_1.jpg,right,1131.554999970831,false,high,NA,NA,NA,NA,NA,NA,NA,false
PW4NRjZw,3eawoid6nwaaqnjzba4xtrlfy89v0t,30budkltxh8u63h84sq1z2pb1je5em,PW4NRjZw,2020-0188,2020-05-21,15:21:26,15:46:11,NA,incomplete,39,color,0,right,Green_Circle_Chess_4.jpg,Purple_Circle_Stripes_3.jpg,Green_Star_Grid_1.jpg,left,751.9800000009127,false,high,NA,NA,NA,NA,NA,NA,NA,false
PW4NRjZw,3eawoid6nwaaqnjzba4xtrlfy89v0t,30budkltxh8u63h84sq1z2pb1je5em,PW4NRjZw,2020-0188,2020-05-21,15:21:26,15:46:11,NA,incomplete,40,shape,0,right,Red_Star_Chess_2.jpg,Red_Plus_Stripes_4.jpg,Green_Star_Grid_3.jpg,right,1045.589999994263,true,high,NA,NA,NA,NA,NA,NA,NA,false
PW4NRjZw,3eawoid6nwaaqnjzba4xtrlfy89v0t,30budkltxh8u63h84sq1z2pb1je5em,PW4NRjZw,2020-0188,2020-05-21,15:21:26,15:46:11,NA,incomplete,41,shape,1,left,Purple_Star_Grid_3.jpg,Green_Star_Stripes_4.jpg,Purple_Plus_Chess_2.jpg,left,872.0200000097975,true,high,NA,NA,NA,NA,NA,NA,NA,false
PW4NRjZw,3eawoid6nwaaqnjzba4xtrlfy89v0t,30budkltxh8u63h84sq1z2pb1je5em,PW4NRjZw,2020-0188,2020-05-21,15:21:26,15:46:11,NA,incomplete,42,shape,1,right,Red_Triangle_Stripes_1.jpg,Red_Star_Dots_2.jpg,Blue_Triangle_Chess_3.jpg,right,1121.2299999897368,true,high,NA,NA,NA,NA,NA,NA,NA,false
PW4NRjZw,3eawoid6nwaaqnjzba4xtrlfy89v0t,30budkltxh8u63h84sq1z2pb1je5em,PW4NRjZw,2020-0188,2020-05-21,15:21:26,15:46:11,NA,incomplete,43,shape,1,right,Purple_Circle_Stripes_4.jpg,Purple_Plus_Grid_3.jpg,Green_Circle_Chess_1.jpg,right,722.3499999963678,true,high,NA,NA,NA,NA,NA,NA,NA,false
PW4NRjZw,3eawoid6nwaaqnjzba4xtrlfy89v0t,30budkltxh8u63h84sq1z2pb1je5em,PW4NRjZw,2020-0188,2020-05-21,15:21:26,15:46:11,NA,incomplete,44,shape,1,right,Blue_Star_Grid_4.jpg,Blue_Circle_Dots_1.jpg,Red_Star_Stripes_2.jpg,right,719.7150000138208,true,high,NA,NA,NA,NA,NA,NA,NA,false
PW4NRjZw,3eawoid6nwaaqnjzba4xtrlfy89v0t,30budkltxh8u63h84sq1z2pb1je5em,PW4NRjZw,2020-0188,2020-05-21,15:21:26,15:46:11,NA,incomplete,45,shape,0,left,Green_Circle_Dots_2.jpg,Red_Circle_Grid_1.jpg,Green_Triangle_Stripes_3.jpg,left,717.3249999759719,true,high,NA,NA,NA,NA,NA,NA,NA,false
PW4NRjZw,3eawoid6nwaaqnjzba4xtrlfy89v0t,30budkltxh8u63h84sq1z2pb1je5em,PW4NRjZw,2020-0188,2020-05-21,15:21:26,15:46:11,NA,incomplete,46,shape,1,right,Blue_Plus_Stripes_4.jpg,Blue_Circle_Dots_2.jpg,Red_Plus_Chess_3.jpg,right,653.0849999981001,true,high,NA,NA,NA,NA,NA,NA,NA,false
PW4NRjZw,3eawoid6nwaaqnjzba4xtrlfy89v0t,30budkltxh8u63h84sq1z2pb1je5em,PW4NRjZw,2020-0188,2020-05-21,15:21:26,15:46:11,NA,incomplete,47,shape,0,right,Blue_Circle_Stripes_3.jpg,Blue_Triangle_Dots_4.jpg,Purple_Circle_Chess_1.jpg,right,817.4749999889173,true,high,NA,NA,NA,NA,NA,NA,NA,false
PW4NRjZw,3eawoid6nwaaqnjzba4xtrlfy89v0t,30budkltxh8u63h84sq1z2pb1je5em,PW4NRjZw,2020-0188,2020-05-21,15:21:26,15:46:11,NA,incomplete,48,shape,1,right,Red_Triangle_Dots_3.jpg,Red_Circle_Stripes_4.jpg,Green_Triangle_Grid_2.jpg,right,764.1000000294298,true,high,NA,NA,NA,NA,NA,NA,NA,false
PW4NRjZw,3eawoid6nwaaqnjzba4xtrlfy89v0t,30budkltxh8u63h84sq1z2pb1je5em,PW4NRjZw,2020-0188,2020-05-21,15:21:26,15:46:11,NA,incomplete,49,shape,1,right,Blue_Triangle_Dots_2.jpg,Blue_Star_Grid_4.jpg,Red_Triangle_Chess_1.jpg,right,746.8750000116415,true,high,NA,NA,NA,NA,NA,NA,NA,false
PW4NRjZw,3eawoid6nwaaqnjzba4xtrlfy89v0t,30budkltxh8u63h84sq1z2pb1je5em,PW4NRjZw,2020-0188,2020-05-21,15:21:26,15:46:11,NA,incomplete,50,color,1,left,Blue_Star_Dots_2.jpg,Blue_Plus_Stripes_3.jpg,Purple_Star_Chess_4.jpg,right,929.3450000113808,false,high,NA,NA,NA,NA,NA,NA,NA,false
PW4NRjZw,3eawoid6nwaaqnjzba4xtrlfy89v0t,30budkltxh8u63h84sq1z2pb1je5em,PW4NRjZw,2020-0188,2020-05-21,15:21:26,15:46:11,NA,incomplete,51,color,1,left,Green_Star_Chess_2.jpg,Green_Plus_Dots_4.jpg,Red_Star_Grid_1.jpg,right,699.4050000212155,false,high,NA,NA,NA,NA,NA,NA,NA,false
PW4NRjZw,3eawoid6nwaaqnjzba4xtrlfy89v0t,30budkltxh8u63h84sq1z2pb1je5em,PW4NRjZw,2020-0188,2020-05-21,15:21:26,15:46:11,NA,incomplete,52,color,1,right,Blue_Plus_Chess_4.jpg,Green_Plus_Stripes_2.jpg,Blue_Circle_Grid_3.jpg,right,840.4749999754131,true,high,NA,NA,NA,NA,NA,NA,NA,false
PW4NRjZw,3eawoid6nwaaqnjzba4xtrlfy89v0t,30budkltxh8u63h84sq1z2pb1je5em,PW4NRjZw,2020-0188,2020-05-21,15:21:26,15:46:11,NA,incomplete,53,color,1,right,Purple_Star_Chess_3.jpg,Red_Star_Dots_2.jpg,Purple_Plus_Grid_4.jpg,right,800.4850000143051,true,high,NA,NA,NA,NA,NA,NA,NA,false
PW4NRjZw,3eawoid6nwaaqnjzba4xtrlfy89v0t,30budkltxh8u63h84sq1z2pb1je5em,PW4NRjZw,2020-0188,2020-05-21,15:21:26,15:46:11,NA,incomplete,54,color,1,right,Green_Plus_Grid_3.jpg,Blue_Plus_Stripes_2.jpg,Green_Star_Chess_1.jpg,right,755.4300000192598,true,high,NA,NA,NA,NA,NA,NA,NA,false
PW4NRjZw,3eawoid6nwaaqnjzba4xtrlfy89v0t,30budkltxh8u63h84sq1z2pb1je5em,PW4NRjZw,2020-0188,2020-05-21,15:21:26,15:46:11,NA,incomplete,55,color,1,right,Blue_Plus_Chess_4.jpg,Green_Plus_Grid_2.jpg,Blue_Circle_Dots_3.jpg,right,631.374999997206,true,high,NA,NA,NA,NA,NA,NA,NA,false
PW4NRjZw,3eawoid6nwaaqnjzba4xtrlfy89v0t,30budkltxh8u63h84sq1z2pb1je5em,PW4NRjZw,2020-0188,2020-05-21,15:21:26,15:46:11,NA,incomplete,56,color,1,left,Red_Star_Chess_3.jpg,Red_Triangle_Dots_1.jpg,Purple_Star_Grid_2.jpg,left,871.4599999948405,true,high,NA,NA,NA,NA,NA,NA,NA,false
PW4NRjZw,3eawoid6nwaaqnjzba4xtrlfy89v0t,30budkltxh8u63h84sq1z2pb1je5em,PW4NRjZw,2020-0188,2020-05-21,15:21:26,15:46:11,NA,incomplete,57,color,1,left,Blue_Triangle_Stripes_1.jpg,Blue_Circle_Chess_3.jpg,Red_Triangle_Grid_4.jpg,left,1003.4049999667332,true,high,NA,NA,NA,NA,NA,NA,NA,false
PW4NRjZw,3eawoid6nwaaqnjzba4xtrlfy89v0t,30budkltxh8u63h84sq1z2pb1je5em,PW4NRjZw,2020-0188,2020-05-21,15:21:26,15:46:11,NA,incomplete,58,color,0,left,Blue_Triangle_Stripes_2.jpg,Blue_Circle_Grid_3.jpg,Green_Triangle_Chess_4.jpg,left,609.2449999996461,true,high,NA,NA,NA,NA,NA,NA,NA,false
PW4NRjZw,3eawoid6nwaaqnjzba4xtrlfy89v0t,30budkltxh8u63h84sq1z2pb1je5em,PW4NRjZw,2020-0188,2020-05-21,15:21:26,15:46:11,NA,incomplete,59,color,1,left,Blue_Star_Chess_2.jpg,Blue_Plus_Stripes_4.jpg,Red_Star_Grid_1.jpg,left,602.3050000076182,true,high,NA,NA,NA,NA,NA,NA,NA,false
PW4NRjZw,3eawoid6nwaaqnjzba4xtrlfy89v0t,30budkltxh8u63h84sq1z2pb1je5em,PW4NRjZw,2020-0188,2020-05-21,15:21:26,15:46:11,NA,incomplete,60,shape,1,left,Green_Circle_Grid_4.jpg,Purple_Circle_Stripes_2.jpg,Green_Star_Dots_1.jpg,right,694.1200000001118,false,high,NA,NA,NA,NA,NA,NA,NA,false
PW4NRjZw,3eawoid6nwaaqnjzba4xtrlfy89v0t,30budkltxh8u63h84sq1z2pb1je5em,PW4NRjZw,2020-0188,2020-05-21,15:21:26,15:46:11,NA,incomplete,61,shape,1,left,Green_Star_Dots_1.jpg,Red_Star_Chess_4.jpg,Green_Triangle_Grid_2.jpg,right,773.8850000314415,false,high,NA,NA,NA,NA,NA,NA,NA,false
PW4NRjZw,3eawoid6nwaaqnjzba4xtrlfy89v0t,30budkltxh8u63h84sq1z2pb1je5em,PW4NRjZw,2020-0188,2020-05-21,15:21:26,15:46:11,NA,incomplete,62,shape,1,left,Red_Star_Chess_1.jpg,Green_Star_Dots_2.jpg,Red_Circle_Grid_3.jpg,left,1031.5500000142492,true,high,NA,NA,NA,NA,NA,NA,NA,false
PW4NRjZw,3eawoid6nwaaqnjzba4xtrlfy89v0t,30budkltxh8u63h84sq1z2pb1je5em,PW4NRjZw,2020-0188,2020-05-21,15:21:26,15:46:11,NA,incomplete,63,shape,1,left,Green_Circle_Dots_3.jpg,Red_Circle_Stripes_2.jpg,Green_Triangle_Grid_4.jpg,left,982.2500000009313,true,high,NA,NA,NA,NA,NA,NA,NA,false
PW4NRjZw,3eawoid6nwaaqnjzba4xtrlfy89v0t,30budkltxh8u63h84sq1z2pb1je5em,PW4NRjZw,2020-0188,2020-05-21,15:21:26,15:46:11,NA,incomplete,64,shape,1,right,Purple_Triangle_Dots_2.jpg,Purple_Plus_Chess_1.jpg,Green_Triangle_Grid_4.jpg,right,597.8699999977835,true,high,NA,NA,NA,NA,NA,NA,NA,false
PW4NRjZw,3eawoid6nwaaqnjzba4xtrlfy89v0t,30budkltxh8u63h84sq1z2pb1je5em,PW4NRjZw,2020-0188,2020-05-21,15:21:26,15:46:11,NA,incomplete,65,shape,1,left,Green_Triangle_Grid_3.jpg,Blue_Triangle_Chess_4.jpg,Green_Star_Stripes_1.jpg,left,992.6650000270456,true,high,NA,NA,NA,NA,NA,NA,NA,false
PW4NRjZw,3eawoid6nwaaqnjzba4xtrlfy89v0t,30budkltxh8u63h84sq1z2pb1je5em,PW4NRjZw,2020-0188,2020-05-21,15:21:26,15:46:11,NA,incomplete,66,shape,1,right,Blue_Circle_Stripes_3.jpg,Blue_Plus_Grid_4.jpg,Purple_Circle_Chess_2.jpg,right,1138.2649999577552,true,high,NA,NA,NA,NA,NA,NA,NA,false
PW4NRjZw,3eawoid6nwaaqnjzba4xtrlfy89v0t,30budkltxh8u63h84sq1z2pb1je5em,PW4NRjZw,2020-0188,2020-05-21,15:21:26,15:46:11,NA,incomplete,67,shape,1,right,Green_Star_Dots_2.jpg,Green_Triangle_Stripes_1.jpg,Purple_Star_Chess_3.jpg,right,908.0800000228919,true,high,NA,NA,NA,NA,NA,NA,NA,false
PW4NRjZw,3eawoid6nwaaqnjzba4xtrlfy89v0t,30budkltxh8u63h84sq1z2pb1je5em,PW4NRjZw,2020-0188,2020-05-21,15:21:26,15:46:11,NA,incomplete,68,shape,1,left,Blue_Circle_Chess_4.jpg,Red_Circle_Grid_1.jpg,Blue_Triangle_Dots_3.jpg,left,877.6300000026822,true,high,NA,NA,NA,NA,NA,NA,NA,false
PW4NRjZw,3eawoid6nwaaqnjzba4xtrlfy89v0t,30budkltxh8u63h84sq1z2pb1je5em,PW4NRjZw,2020-0188,2020-05-21,15:21:26,15:46:11,NA,incomplete,69,shape,1,right,Purple_Circle_Chess_2.jpg,Purple_Plus_Dots_4.jpg,Red_Circle_Stripes_1.jpg,right,883.594999962952,true,high,NA,NA,NA,NA,NA,NA,NA,false
PW4NRjZw,3eawoid6nwaaqnjzba4xtrlfy89v0t,30budkltxh8u63h84sq1z2pb1je5em,PW4NRjZw,2020-0188,2020-05-21,15:21:26,15:46:11,NA,incomplete,70,color,1,left,Blue_Plus_Chess_2.jpg,Blue_Circle_Dots_4.jpg,Green_Plus_Stripes_1.jpg,right,628.9400000241585,false,high,NA,NA,NA,NA,NA,NA,NA,false
PW4NRjZw,3eawoid6nwaaqnjzba4xtrlfy89v0t,30budkltxh8u63h84sq1z2pb1je5em,PW4NRjZw,2020-0188,2020-05-21,15:21:26,15:46:11,NA,incomplete,71,color,1,right,Purple_Circle_Grid_3.jpg,Green_Circle_Dots_4.jpg,Purple_Triangle_Chess_1.jpg,left,612.6550000044517,false,high,NA,NA,NA,NA,NA,NA,NA,false
PW4NRjZw,3eawoid6nwaaqnjzba4xtrlfy89v0t,30budkltxh8u63h84sq1z2pb1je5em,PW4NRjZw,2020-0188,2020-05-21,15:21:26,15:46:11,NA,incomplete,72,color,0,right,Purple_Plus_Grid_1.jpg,Green_Plus_Chess_4.jpg,Purple_Circle_Dots_2.jpg,right,1090.3500000131316,true,high,NA,NA,NA,NA,NA,NA,NA,false
PW4NRjZw,3eawoid6nwaaqnjzba4xtrlfy89v0t,30budkltxh8u63h84sq1z2pb1je5em,PW4NRjZw,2020-0188,2020-05-21,15:21:26,15:46:11,NA,incomplete,73,color,1,right,Purple_Star_Dots_2.jpg,Green_Star_Grid_3.jpg,Purple_Triangle_Stripes_4.jpg,right,782.7950000064448,true,high,NA,NA,NA,NA,NA,NA,NA,false
PW4NRjZw,3eawoid6nwaaqnjzba4xtrlfy89v0t,30budkltxh8u63h84sq1z2pb1je5em,PW4NRjZw,2020-0188,2020-05-21,15:21:26,15:46:11,NA,incomplete,74,color,1,left,Purple_Star_Stripes_3.jpg,Purple_Triangle_Grid_4.jpg,Blue_Star_Chess_1.jpg,left,780.289999966044,true,high,NA,NA,NA,NA,NA,NA,NA,false
PW4NRjZw,3eawoid6nwaaqnjzba4xtrlfy89v0t,30budkltxh8u63h84sq1z2pb1je5em,PW4NRjZw,2020-0188,2020-05-21,15:21:26,15:46:11,NA,incomplete,75,color,1,right,Purple_Star_Stripes_1.jpg,Blue_Star_Chess_2.jpg,Purple_Circle_Grid_4.jpg,right,741.7150000110269,true,high,NA,NA,NA,NA,NA,NA,NA,false
PW4NRjZw,3eawoid6nwaaqnjzba4xtrlfy89v0t,30budkltxh8u63h84sq1z2pb1je5em,PW4NRjZw,2020-0188,2020-05-21,15:21:26,15:46:11,NA,incomplete,76,color,1,left,Purple_Plus_Dots_2.jpg,Purple_Circle_Chess_4.jpg,Green_Plus_Grid_3.jpg,left,482.8649999690242,true,high,NA,NA,NA,NA,NA,NA,NA,false
PW4NRjZw,3eawoid6nwaaqnjzba4xtrlfy89v0t,30budkltxh8u63h84sq1z2pb1je5em,PW4NRjZw,2020-0188,2020-05-21,15:21:26,15:46:11,NA,incomplete,77,color,1,left,Purple_Plus_Chess_3.jpg,Purple_Star_Grid_1.jpg,Blue_Plus_Stripes_2.jpg,left,548.2799999881536,true,high,NA,NA,NA,NA,NA,NA,NA,false
PW4NRjZw,3eawoid6nwaaqnjzba4xtrlfy89v0t,30budkltxh8u63h84sq1z2pb1je5em,PW4NRjZw,2020-0188,2020-05-21,15:21:26,15:46:11,NA,incomplete,78,color,1,left,Green_Triangle_Stripes_4.jpg,Green_Star_Grid_2.jpg,Purple_Triangle_Chess_1.jpg,left,699.460000032559,true,high,NA,NA,NA,NA,NA,NA,NA,false
PW4NRjZw,3eawoid6nwaaqnjzba4xtrlfy89v0t,30budkltxh8u63h84sq1z2pb1je5em,PW4NRjZw,2020-0188,2020-05-21,15:21:26,15:46:11,NA,incomplete,79,color,1,right,Blue_Triangle_Dots_4.jpg,Red_Triangle_Grid_1.jpg,Blue_Plus_Chess_3.jpg,right,525.484999991022,true,high,NA,NA,NA,NA,NA,NA,NA,false
PW4NRjZw,3eawoid6nwaaqnjzba4xtrlfy89v0t,30budkltxh8u63h84sq1z2pb1je5em,PW4NRjZw,2020-0188,2020-05-21,15:21:26,15:46:11,NA,incomplete,80,shape,1,left,Blue_Plus_Chess_4.jpg,Purple_Plus_Dots_3.jpg,Blue_Star_Stripes_1.jpg,right,624.3499999982305,false,high,NA,NA,NA,NA,NA,NA,NA,false
PW4NRjZw,3eawoid6nwaaqnjzba4xtrlfy89v0t,30budkltxh8u63h84sq1z2pb1je5em,PW4NRjZw,2020-0188,2020-05-21,15:21:26,15:46:11,NA,incomplete,81,shape,1,right,Red_Plus_Chess_2.jpg,Red_Triangle_Dots_1.jpg,Blue_Plus_Grid_4.jpg,left,624.5099999941885,false,high,NA,NA,NA,NA,NA,NA,NA,false
PW4NRjZw,3eawoid6nwaaqnjzba4xtrlfy89v0t,30budkltxh8u63h84sq1z2pb1je5em,PW4NRjZw,2020-0188,2020-05-21,15:21:26,15:46:11,NA,incomplete,82,shape,1,right,Purple_Circle_Stripes_4.jpg,Purple_Star_Grid_2.jpg,Blue_Circle_Dots_3.jpg,right,708.0449999775738,true,high,NA,NA,NA,NA,NA,NA,NA,false
PW4NRjZw,3eawoid6nwaaqnjzba4xtrlfy89v0t,30budkltxh8u63h84sq1z2pb1je5em,PW4NRjZw,2020-0188,2020-05-21,15:21:26,15:46:11,NA,incomplete,83,shape,1,left,Purple_Circle_Stripes_1.jpg,Red_Circle_Dots_3.jpg,Purple_Plus_Grid_4.jpg,left,549.8700000462122,true,high,NA,NA,NA,NA,NA,NA,NA,false
PW4NRjZw,3eawoid6nwaaqnjzba4xtrlfy89v0t,30budkltxh8u63h84sq1z2pb1je5em,PW4NRjZw,2020-0188,2020-05-21,15:21:26,15:46:11,NA,incomplete,84,shape,0,left,Red_Triangle_Chess_4.jpg,Purple_Triangle_Dots_1.jpg,Red_Plus_Stripes_2.jpg,right,572.4649999756366,false,high,NA,NA,NA,NA,NA,NA,NA,false
PW4NRjZw,3eawoid6nwaaqnjzba4xtrlfy89v0t,30budkltxh8u63h84sq1z2pb1je5em,PW4NRjZw,2020-0188,2020-05-21,15:21:26,15:46:11,NA,incomplete,85,shape,1,left,Green_Star_Stripes_4.jpg,Red_Star_Chess_2.jpg,Green_Triangle_Dots_1.jpg,right,1036.1699999775738,false,high,NA,NA,NA,NA,NA,NA,NA,false
PW4NRjZw,3eawoid6nwaaqnjzba4xtrlfy89v0t,30budkltxh8u63h84sq1z2pb1je5em,PW4NRjZw,2020-0188,2020-05-21,15:21:26,15:46:11,NA,incomplete,86,shape,1,left,Purple_Star_Grid_3.jpg,Red_Star_Chess_1.jpg,Purple_Plus_Stripes_2.jpg,right,1084.8750000004657,false,high,NA,NA,NA,NA,NA,NA,NA,false
PW4NRjZw,3eawoid6nwaaqnjzba4xtrlfy89v0t,30budkltxh8u63h84sq1z2pb1je5em,PW4NRjZw,2020-0188,2020-05-21,15:21:26,15:46:11,NA,incomplete,87,shape,1,right,Red_Plus_Grid_1.jpg,Red_Circle_Stripes_3.jpg,Green_Plus_Dots_2.jpg,right,785.9000000171363,true,high,NA,NA,NA,NA,NA,NA,NA,false
PW4NRjZw,3eawoid6nwaaqnjzba4xtrlfy89v0t,30budkltxh8u63h84sq1z2pb1je5em,PW4NRjZw,2020-0188,2020-05-21,15:21:26,15:46:11,NA,incomplete,88,shape,1,right,Blue_Star_Chess_2.jpg,Blue_Circle_Grid_1.jpg,Green_Star_Stripes_3.jpg,right,867.7100000204518,true,high,NA,NA,NA,NA,NA,NA,NA,false
PW4NRjZw,3eawoid6nwaaqnjzba4xtrlfy89v0t,30budkltxh8u63h84sq1z2pb1je5em,PW4NRjZw,2020-0188,2020-05-21,15:21:26,15:46:11,NA,incomplete,89,shape,1,right,Blue_Plus_Grid_3.jpg,Blue_Circle_Dots_2.jpg,Red_Plus_Stripes_4.jpg,right,1068.749999976717,true,high,NA,NA,NA,NA,NA,NA,NA,false
PW4NRjZw,3eawoid6nwaaqnjzba4xtrlfy89v0t,30budkltxh8u63h84sq1z2pb1je5em,PW4NRjZw,2020-0188,2020-05-21,15:21:26,15:46:11,NA,incomplete,90,color,1,left,Purple_Plus_Chess_1.jpg,Purple_Star_Dots_2.jpg,Blue_Plus_Stripes_3.jpg,right,828.3700000029057,false,high,NA,NA,NA,NA,NA,NA,NA,false
PW4NRjZw,3eawoid6nwaaqnjzba4xtrlfy89v0t,30budkltxh8u63h84sq1z2pb1je5em,PW4NRjZw,2020-0188,2020-05-21,15:21:26,15:46:11,NA,incomplete,91,color,1,right,Red_Star_Stripes_4.jpg,Green_Star_Dots_1.jpg,Red_Circle_Chess_2.jpg,left,953.3250000094995,false,high,NA,NA,NA,NA,NA,NA,NA,false
PW4NRjZw,3eawoid6nwaaqnjzba4xtrlfy89v0t,30budkltxh8u63h84sq1z2pb1je5em,PW4NRjZw,2020-0188,2020-05-21,15:21:26,15:46:11,NA,incomplete,92,color,1,right,Red_Triangle_Stripes_1.jpg,Green_Triangle_Dots_3.jpg,Red_Circle_Chess_4.jpg,right,824.8199999798089,true,high,NA,NA,NA,NA,NA,NA,NA,false
PW4NRjZw,3eawoid6nwaaqnjzba4xtrlfy89v0t,30budkltxh8u63h84sq1z2pb1je5em,PW4NRjZw,2020-0188,2020-05-21,15:21:26,15:46:11,NA,incomplete,93,color,1,left,Red_Circle_Stripes_1.jpg,Red_Star_Chess_3.jpg,Green_Circle_Grid_2.jpg,left,796.6299999970943,true,high,NA,NA,NA,NA,NA,NA,NA,false
PW4NRjZw,3eawoid6nwaaqnjzba4xtrlfy89v0t,30budkltxh8u63h84sq1z2pb1je5em,PW4NRjZw,2020-0188,2020-05-21,15:21:26,15:46:11,NA,incomplete,94,color,0,left,Red_Triangle_Dots_4.jpg,Red_Star_Grid_2.jpg,Green_Triangle_Chess_1.jpg,left,473.52500003762543,true,high,NA,NA,NA,NA,NA,NA,NA,false
PW4NRjZw,3eawoid6nwaaqnjzba4xtrlfy89v0t,30budkltxh8u63h84sq1z2pb1je5em,PW4NRjZw,2020-0188,2020-05-21,15:21:26,15:46:11,NA,incomplete,95,color,1,right,Red_Star_Grid_3.jpg,Purple_Star_Chess_1.jpg,Red_Plus_Dots_2.jpg,right,742.4950000131503,true,high,NA,NA,NA,NA,NA,NA,NA,false
PW4NRjZw,3eawoid6nwaaqnjzba4xtrlfy89v0t,30budkltxh8u63h84sq1z2pb1je5em,PW4NRjZw,2020-0188,2020-05-21,15:21:26,15:46:11,NA,incomplete,96,color,1,left,Blue_Circle_Grid_4.jpg,Blue_Triangle_Chess_2.jpg,Green_Circle_Stripes_1.jpg,left,763.2699999958277,true,high,NA,NA,NA,NA,NA,NA,NA,false
PW4NRjZw,3eawoid6nwaaqnjzba4xtrlfy89v0t,30budkltxh8u63h84sq1z2pb1je5em,PW4NRjZw,2020-0188,2020-05-21,15:21:26,15:46:11,NA,incomplete,97,color,1,right,Green_Star_Grid_4.jpg,Red_Star_Dots_2.jpg,Green_Circle_Chess_1.jpg,right,609.74000004353,true,high,NA,NA,NA,NA,NA,NA,NA,false
PW4NRjZw,3eawoid6nwaaqnjzba4xtrlfy89v0t,30budkltxh8u63h84sq1z2pb1je5em,PW4NRjZw,2020-0188,2020-05-21,15:21:26,15:46:11,NA,incomplete,98,color,1,left,Red_Triangle_Chess_1.jpg,Red_Star_Grid_2.jpg,Blue_Triangle_Dots_4.jpg,left,666.3100000005215,true,high,NA,NA,NA,NA,NA,NA,NA,false
PW4NRjZw,3eawoid6nwaaqnjzba4xtrlfy89v0t,30budkltxh8u63h84sq1z2pb1je5em,PW4NRjZw,2020-0188,2020-05-21,15:21:26,15:46:11,NA,incomplete,99,color,1,right,Blue_Circle_Chess_3.jpg,Red_Circle_Stripes_2.jpg,Blue_Star_Dots_1.jpg,right,501.92500004777685,true,high,NA,NA,NA,NA,NA,NA,NA,false
PW4NRjZw,3eawoid6nwaaqnjzba4xtrlfy89v0t,30budkltxh8u63h84sq1z2pb1je5em,PW4NRjZw,2020-0188,2020-05-21,15:21:26,15:46:11,NA,incomplete,100,shape,1,left,Green_Circle_Grid_1.jpg,Blue_Circle_Dots_3.jpg,Green_Triangle_Chess_2.jpg,right,659.0599999763072,false,high,NA,NA,NA,NA,NA,NA,NA,false
PW4NRjZw,3eawoid6nwaaqnjzba4xtrlfy89v0t,30budkltxh8u63h84sq1z2pb1je5em,PW4NRjZw,2020-0188,2020-05-21,15:21:26,15:46:11,NA,incomplete,101,shape,0,right,Purple_Circle_Grid_1.jpg,Purple_Star_Chess_2.jpg,Blue_Circle_Stripes_4.jpg,left,830.4000000352971,false,high,NA,NA,NA,NA,NA,NA,NA,false
PW4NRjZw,3eawoid6nwaaqnjzba4xtrlfy89v0t,30budkltxh8u63h84sq1z2pb1je5em,PW4NRjZw,2020-0188,2020-05-21,15:21:26,15:46:11,NA,incomplete,102,shape,1,right,Purple_Triangle_Dots_4.jpg,Purple_Plus_Stripes_1.jpg,Red_Triangle_Chess_3.jpg,left,564.2050000024028,false,high,NA,NA,NA,NA,NA,NA,NA,false
PW4NRjZw,3eawoid6nwaaqnjzba4xtrlfy89v0t,30budkltxh8u63h84sq1z2pb1je5em,PW4NRjZw,2020-0188,2020-05-21,15:21:26,15:46:11,NA,incomplete,103,shape,1,left,Purple_Circle_Grid_1.jpg,Green_Circle_Chess_3.jpg,Purple_Triangle_Dots_4.jpg,right,594.8999999673106,false,high,NA,NA,NA,NA,NA,NA,NA,false
PW4NRjZw,3eawoid6nwaaqnjzba4xtrlfy89v0t,30budkltxh8u63h84sq1z2pb1je5em,PW4NRjZw,2020-0188,2020-05-21,15:21:26,15:46:11,NA,incomplete,104,shape,0,left,Blue_Triangle_Grid_1.jpg,Red_Triangle_Chess_2.jpg,Blue_Plus_Dots_3.jpg,left,952.7799999923445,true,high,NA,NA,NA,NA,NA,NA,NA,false
PW4NRjZw,3eawoid6nwaaqnjzba4xtrlfy89v0t,30budkltxh8u63h84sq1z2pb1je5em,PW4NRjZw,2020-0188,2020-05-21,15:21:26,15:46:11,NA,incomplete,105,shape,1,right,Blue_Circle_Chess_3.jpg,Blue_Star_Grid_1.jpg,Red_Circle_Dots_2.jpg,right,805.5749999475665,true,high,NA,NA,NA,NA,NA,NA,NA,false
PW4NRjZw,3eawoid6nwaaqnjzba4xtrlfy89v0t,30budkltxh8u63h84sq1z2pb1je5em,PW4NRjZw,2020-0188,2020-05-21,15:21:26,15:46:11,NA,incomplete,106,shape,1,right,Purple_Star_Grid_4.jpg,Purple_Circle_Stripes_1.jpg,Blue_Star_Dots_3.jpg,right,1172.8599999914877,true,high,NA,NA,NA,NA,NA,NA,NA,false
PW4NRjZw,3eawoid6nwaaqnjzba4xtrlfy89v0t,30budkltxh8u63h84sq1z2pb1je5em,PW4NRjZw,2020-0188,2020-05-21,15:21:26,15:46:11,NA,incomplete,107,shape,1,left,Purple_Star_Chess_1.jpg,Green_Star_Dots_2.jpg,Purple_Triangle_Grid_3.jpg,left,818.72999999905,true,high,NA,NA,NA,NA,NA,NA,NA,false
PW4NRjZw,3eawoid6nwaaqnjzba4xtrlfy89v0t,30budkltxh8u63h84sq1z2pb1je5em,PW4NRjZw,2020-0188,2020-05-21,15:21:26,15:46:11,NA,incomplete,108,shape,1,right,Green_Star_Stripes_3.jpg,Green_Circle_Chess_1.jpg,Blue_Star_Grid_4.jpg,right,721.335000009276,true,high,NA,NA,NA,NA,NA,NA,NA,false
PW4NRjZw,3eawoid6nwaaqnjzba4xtrlfy89v0t,30budkltxh8u63h84sq1z2pb1je5em,PW4NRjZw,2020-0188,2020-05-21,15:21:26,15:46:11,NA,incomplete,109,shape,1,right,Purple_Triangle_Stripes_2.jpg,Purple_Circle_Dots_4.jpg,Blue_Triangle_Grid_1.jpg,right,652.4699999717996,true,high,NA,NA,NA,NA,NA,NA,NA,false
PW4NRjZw,3eawoid6nwaaqnjzba4xtrlfy89v0t,30budkltxh8u63h84sq1z2pb1je5em,PW4NRjZw,2020-0188,2020-05-21,15:21:26,15:46:11,NA,incomplete,110,color,1,left,Blue_Circle_Chess_2.jpg,Blue_Star_Stripes_1.jpg,Red_Circle_Dots_4.jpg,right,715.5450000427663,false,high,NA,NA,NA,NA,NA,NA,NA,false
PW4NRjZw,3eawoid6nwaaqnjzba4xtrlfy89v0t,30budkltxh8u63h84sq1z2pb1je5em,PW4NRjZw,2020-0188,2020-05-21,15:21:26,15:46:11,NA,incomplete,111,color,0,right,Blue_Triangle_Dots_4.jpg,Purple_Triangle_Stripes_2.jpg,Blue_Star_Grid_3.jpg,left,809.6500000101514,false,high,NA,NA,NA,NA,NA,NA,NA,false
PW4NRjZw,3eawoid6nwaaqnjzba4xtrlfy89v0t,30budkltxh8u63h84sq1z2pb1je5em,PW4NRjZw,2020-0188,2020-05-21,15:21:26,15:46:11,NA,incomplete,112,color,1,left,Blue_Plus_Dots_1.jpg,Blue_Triangle_Stripes_3.jpg,Purple_Plus_Grid_2.jpg,right,674.1199999814853,false,high,NA,NA,NA,NA,NA,NA,NA,false
PW4NRjZw,3eawoid6nwaaqnjzba4xtrlfy89v0t,30budkltxh8u63h84sq1z2pb1je5em,PW4NRjZw,2020-0188,2020-05-21,15:21:26,15:46:11,NA,incomplete,113,color,1,left,Red_Circle_Grid_1.jpg,Red_Star_Chess_4.jpg,Green_Circle_Dots_3.jpg,left,960.2699999813922,true,high,NA,NA,NA,NA,NA,NA,NA,false
PW4NRjZw,3eawoid6nwaaqnjzba4xtrlfy89v0t,30budkltxh8u63h84sq1z2pb1je5em,PW4NRjZw,2020-0188,2020-05-21,15:21:26,15:46:11,NA,incomplete,114,color,0,right,Red_Triangle_Stripes_4.jpg,Green_Triangle_Dots_1.jpg,Red_Circle_Grid_3.jpg,right,459.8649999825284,true,high,NA,NA,NA,NA,NA,NA,NA,false
PW4NRjZw,3eawoid6nwaaqnjzba4xtrlfy89v0t,30budkltxh8u63h84sq1z2pb1je5em,PW4NRjZw,2020-0188,2020-05-21,15:21:26,15:46:11,NA,incomplete,115,color,0,left,Purple_Star_Grid_4.jpg,Purple_Circle_Stripes_3.jpg,Green_Star_Chess_1.jpg,left,659.8650000523776,true,high,NA,NA,NA,NA,NA,NA,NA,false
PW4NRjZw,3eawoid6nwaaqnjzba4xtrlfy89v0t,30budkltxh8u63h84sq1z2pb1je5em,PW4NRjZw,2020-0188,2020-05-21,15:21:26,15:46:11,NA,incomplete,116,color,1,right,Red_Triangle_Grid_2.jpg,Green_Triangle_Dots_4.jpg,Red_Plus_Stripes_1.jpg,left,668.2800000417046,false,high,NA,NA,NA,NA,NA,NA,NA,false
PW4NRjZw,3eawoid6nwaaqnjzba4xtrlfy89v0t,30budkltxh8u63h84sq1z2pb1je5em,PW4NRjZw,2020-0188,2020-05-21,15:21:26,15:46:11,NA,incomplete,117,color,1,left,Red_Circle_Stripes_2.jpg,Red_Triangle_Grid_4.jpg,Green_Circle_Dots_1.jpg,right,877.5700000114739,false,high,NA,NA,NA,NA,NA,NA,NA,false
PW4NRjZw,3eawoid6nwaaqnjzba4xtrlfy89v0t,30budkltxh8u63h84sq1z2pb1je5em,PW4NRjZw,2020-0188,2020-05-21,15:21:26,15:46:11,NA,incomplete,118,color,1,right,Red_Triangle_Dots_2.jpg,Blue_Triangle_Chess_4.jpg,Red_Star_Grid_3.jpg,right,780.7849999517202,true,high,NA,NA,NA,NA,NA,NA,NA,false
PW4NRjZw,3eawoid6nwaaqnjzba4xtrlfy89v0t,30budkltxh8u63h84sq1z2pb1je5em,PW4NRjZw,2020-0188,2020-05-21,15:21:26,15:46:11,NA,incomplete,119,color,1,right,Purple_Triangle_Dots_1.jpg,Blue_Triangle_Grid_2.jpg,Purple_Plus_Chess_4.jpg,right,553.6499999579974,true,high,NA,NA,NA,NA,NA,NA,NA,false
PW4NRjZw,3eawoid6nwaaqnjzba4xtrlfy89v0t,30budkltxh8u63h84sq1z2pb1je5em,PW4NRjZw,2020-0188,2020-05-21,15:21:26,15:46:11,NA,incomplete,120,filling,1,left,Blue_Plus_Dots_3.jpg,Green_Circle_Dots_2.jpg,Purple_Star_Grid_3.jpg,NA,NA,NA,high,NA,NA,NA,NA,NA,NA,NA,false
PW4NRjZw,3eawoid6nwaaqnjzba4xtrlfy89v0t,30budkltxh8u63h84sq1z2pb1je5em,PW4NRjZw,2020-0188,2020-05-21,15:21:26,15:46:11,NA,incomplete,121,filling,1,right,Blue_Triangle_Grid_1.jpg,Purple_Plus_Dots_1.jpg,Red_Circle_Grid_3.jpg,right,1508.94500000868,true,high,NA,NA,NA,NA,NA,NA,NA,false
PW4NRjZw,3eawoid6nwaaqnjzba4xtrlfy89v0t,30budkltxh8u63h84sq1z2pb1je5em,PW4NRjZw,2020-0188,2020-05-21,15:21:26,15:46:11,NA,incomplete,122,filling,0,left,Purple_Circle_Grid_1.jpg,Green_Plus_Grid_4.jpg,Blue_Star_Stripes_1.jpg,left,848.1150000006892,true,high,NA,NA,NA,NA,NA,NA,NA,false
PW4NRjZw,3eawoid6nwaaqnjzba4xtrlfy89v0t,30budkltxh8u63h84sq1z2pb1je5em,PW4NRjZw,2020-0188,2020-05-21,15:21:26,15:46:11,NA,incomplete,123,filling,1,left,Red_Triangle_Grid_4.jpg,Green_Star_Grid_3.jpg,Blue_Circle_Stripes_4.jpg,left,1162.3750000144355,true,high,NA,NA,NA,NA,NA,NA,NA,false
PW4NRjZw,3eawoid6nwaaqnjzba4xtrlfy89v0t,30budkltxh8u63h84sq1z2pb1je5em,PW4NRjZw,2020-0188,2020-05-21,15:21:26,15:46:11,NA,incomplete,124,filling,0,left,Purple_Circle_Grid_3.jpg,Red_Star_Grid_2.jpg,Green_Plus_Chess_3.jpg,left,860.0200000219047,true,high,NA,NA,NA,NA,NA,NA,NA,false
PW4NRjZw,3eawoid6nwaaqnjzba4xtrlfy89v0t,30budkltxh8u63h84sq1z2pb1je5em,PW4NRjZw,2020-0188,2020-05-21,15:21:26,15:46:11,NA,incomplete,125,filling,1,left,Purple_Circle_Dots_3.jpg,Red_Triangle_Dots_2.jpg,Blue_Plus_Chess_3.jpg,left,1203.235000022687,true,high,NA,NA,NA,NA,NA,NA,NA,false
PW4NRjZw,3eawoid6nwaaqnjzba4xtrlfy89v0t,30budkltxh8u63h84sq1z2pb1je5em,PW4NRjZw,2020-0188,2020-05-21,15:21:26,15:46:11,NA,incomplete,126,filling,1,left,Red_Triangle_Chess_4.jpg,Blue_Plus_Chess_3.jpg,Purple_Circle_Dots_4.jpg,left,967.160000000149,true,high,NA,NA,NA,NA,NA,NA,NA,false
PW4NRjZw,3eawoid6nwaaqnjzba4xtrlfy89v0t,30budkltxh8u63h84sq1z2pb1je5em,PW4NRjZw,2020-0188,2020-05-21,15:21:26,15:46:11,NA,incomplete,127,filling,1,right,Red_Triangle_Chess_3.jpg,Green_Star_Grid_3.jpg,Blue_Circle_Chess_2.jpg,right,1349.7399999760091,true,high,NA,NA,NA,NA,NA,NA,NA,false
PW4NRjZw,3eawoid6nwaaqnjzba4xtrlfy89v0t,30budkltxh8u63h84sq1z2pb1je5em,PW4NRjZw,2020-0188,2020-05-21,15:21:26,15:46:11,NA,incomplete,128,filling,1,left,Red_Plus_Chess_1.jpg,Purple_Circle_Chess_2.jpg,Green_Triangle_Grid_1.jpg,left,1165.225000004284,true,high,NA,NA,NA,NA,NA,NA,NA,false
PW4NRjZw,3eawoid6nwaaqnjzba4xtrlfy89v0t,30budkltxh8u63h84sq1z2pb1je5em,PW4NRjZw,2020-0188,2020-05-21,15:21:26,15:46:11,NA,incomplete,129,filling,1,left,Green_Star_Grid_3.jpg,Purple_Plus_Grid_1.jpg,Blue_Circle_Chess_3.jpg,left,759.1849999735132,true,high,NA,NA,NA,NA,NA,NA,NA,false
PW4NRjZw,3eawoid6nwaaqnjzba4xtrlfy89v0t,30budkltxh8u63h84sq1z2pb1je5em,PW4NRjZw,2020-0188,2020-05-21,15:21:26,15:46:11,NA,incomplete,130,filling,1,right,Purple_Circle_Dots_3.jpg,Red_Star_Chess_3.jpg,Green_Triangle_Dots_2.jpg,right,716.3949999958277,true,high,NA,NA,NA,NA,NA,NA,NA,false
PW4NRjZw,3eawoid6nwaaqnjzba4xtrlfy89v0t,30budkltxh8u63h84sq1z2pb1je5em,PW4NRjZw,2020-0188,2020-05-21,15:21:26,15:46:11,NA,incomplete,131,filling,1,left,Purple_Circle_Dots_2.jpg,Blue_Triangle_Dots_3.jpg,Red_Plus_Stripes_2.jpg,right,678.7900000344962,false,high,NA,NA,NA,NA,NA,NA,NA,false
PW4NRjZw,3eawoid6nwaaqnjzba4xtrlfy89v0t,30budkltxh8u63h84sq1z2pb1je5em,PW4NRjZw,2020-0188,2020-05-21,15:21:26,15:46:11,NA,incomplete,132,filling,1,right,Red_Circle_Dots_1.jpg,Green_Triangle_Stripes_1.jpg,Blue_Plus_Dots_4.jpg,left,672.809999960009,false,high,NA,NA,NA,NA,NA,NA,NA,false
PW4NRjZw,3eawoid6nwaaqnjzba4xtrlfy89v0t,30budkltxh8u63h84sq1z2pb1je5em,PW4NRjZw,2020-0188,2020-05-21,15:21:26,15:46:11,NA,incomplete,133,filling,0,right,Green_Triangle_Chess_2.jpg,Red_Star_Dots_2.jpg,Blue_Plus_Chess_3.jpg,right,1352.0100000314415,true,high,NA,NA,NA,NA,NA,NA,NA,false
PW4NRjZw,3eawoid6nwaaqnjzba4xtrlfy89v0t,30budkltxh8u63h84sq1z2pb1je5em,PW4NRjZw,2020-0188,2020-05-21,15:21:26,15:46:11,NA,incomplete,134,filling,1,left,Green_Triangle_Chess_1.jpg,Blue_Plus_Chess_3.jpg,Red_Star_Grid_1.jpg,right,945.0450000003912,false,high,NA,NA,NA,NA,NA,NA,NA,false
PW4NRjZw,3eawoid6nwaaqnjzba4xtrlfy89v0t,30budkltxh8u63h84sq1z2pb1je5em,PW4NRjZw,2020-0188,2020-05-21,15:21:26,15:46:11,NA,incomplete,135,filling,1,right,Green_Plus_Dots_3.jpg,Purple_Triangle_Chess_3.jpg,Blue_Star_Dots_1.jpg,left,1094.0249999985099,false,high,NA,NA,NA,NA,NA,NA,NA,false
PW4NRjZw,3eawoid6nwaaqnjzba4xtrlfy89v0t,30budkltxh8u63h84sq1z2pb1je5em,PW4NRjZw,2020-0188,2020-05-21,15:21:26,15:46:11,NA,incomplete,136,filling,1,right,Green_Circle_Dots_1.jpg,Blue_Plus_Grid_1.jpg,Red_Star_Dots_2.jpg,right,1118.3600000222214,true,high,NA,NA,NA,NA,NA,NA,NA,false
PW4NRjZw,3eawoid6nwaaqnjzba4xtrlfy89v0t,30budkltxh8u63h84sq1z2pb1je5em,PW4NRjZw,2020-0188,2020-05-21,15:21:26,15:46:11,NA,incomplete,137,filling,0,left,Red_Triangle_Grid_1.jpg,Blue_Star_Grid_4.jpg,Purple_Circle_Stripes_1.jpg,left,742.1500000054948,true,high,NA,NA,NA,NA,NA,NA,NA,false
PW4NRjZw,3eawoid6nwaaqnjzba4xtrlfy89v0t,30budkltxh8u63h84sq1z2pb1je5em,PW4NRjZw,2020-0188,2020-05-21,15:21:26,15:46:11,NA,incomplete,138,filling,1,left,Blue_Circle_Stripes_2.jpg,Red_Triangle_Stripes_4.jpg,Green_Star_Grid_2.jpg,right,1085.7449999894015,false,high,NA,NA,NA,NA,NA,NA,NA,false
PW4NRjZw,3eawoid6nwaaqnjzba4xtrlfy89v0t,30budkltxh8u63h84sq1z2pb1je5em,PW4NRjZw,2020-0188,2020-05-21,15:21:26,15:46:11,NA,incomplete,139,filling,1,right,Blue_Circle_Grid_3.jpg,Red_Star_Dots_3.jpg,Green_Plus_Grid_4.jpg,left,1058.3500000066124,false,high,NA,NA,NA,NA,NA,NA,NA,false
PW4NRjZw,3eawoid6nwaaqnjzba4xtrlfy89v0t,30budkltxh8u63h84sq1z2pb1je5em,PW4NRjZw,2020-0188,2020-05-21,15:21:26,15:46:11,NA,incomplete,140,number,0,left,Purple_Circle_Stripes_1.jpg,Red_Star_Grid_1.jpg,Green_Plus_Stripes_4.jpg,left,1080.4900000221096,true,high,NA,NA,NA,NA,NA,NA,NA,false
PW4NRjZw,3eawoid6nwaaqnjzba4xtrlfy89v0t,30budkltxh8u63h84sq1z2pb1je5em,PW4NRjZw,2020-0188,2020-05-21,15:21:26,15:46:11,NA,incomplete,141,number,1,left,Blue_Triangle_Dots_2.jpg,Red_Plus_Grid_2.jpg,Purple_Circle_Dots_4.jpg,right,975.3350000246428,false,high,NA,NA,NA,NA,NA,NA,NA,false
PW4NRjZw,3eawoid6nwaaqnjzba4xtrlfy89v0t,30budkltxh8u63h84sq1z2pb1je5em,PW4NRjZw,2020-0188,2020-05-21,15:21:26,15:46:11,NA,incomplete,142,number,0,right,Red_Circle_Chess_2.jpg,Green_Star_Chess_4.jpg,Purple_Triangle_Dots_2.jpg,left,758.3250000025146,false,high,NA,NA,NA,NA,NA,NA,NA,false
PW4NRjZw,3eawoid6nwaaqnjzba4xtrlfy89v0t,30budkltxh8u63h84sq1z2pb1je5em,PW4NRjZw,2020-0188,2020-05-21,15:21:26,15:46:11,NA,incomplete,143,number,1,left,Red_Circle_Dots_2.jpg,Purple_Triangle_Grid_2.jpg,Blue_Plus_Dots_4.jpg,right,936.7099999799393,false,high,NA,NA,NA,NA,NA,NA,NA,false
PW4NRjZw,3eawoid6nwaaqnjzba4xtrlfy89v0t,30budkltxh8u63h84sq1z2pb1je5em,PW4NRjZw,2020-0188,2020-05-21,15:21:26,15:46:11,NA,incomplete,144,number,1,right,Green_Plus_Grid_4.jpg,Purple_Star_Grid_2.jpg,Blue_Circle_Dots_4.jpg,right,1172.595000010915,true,high,NA,NA,NA,NA,NA,NA,NA,false
PW4NRjZw,3eawoid6nwaaqnjzba4xtrlfy89v0t,30budkltxh8u63h84sq1z2pb1je5em,PW4NRjZw,2020-0188,2020-05-21,15:21:26,15:46:11,NA,incomplete,145,number,1,left,Purple_Triangle_Stripes_2.jpg,Green_Plus_Chess_2.jpg,Blue_Star_Stripes_1.jpg,left,708.054999995511,true,high,NA,NA,NA,NA,NA,NA,NA,false
PW4NRjZw,3eawoid6nwaaqnjzba4xtrlfy89v0t,30budkltxh8u63h84sq1z2pb1je5em,PW4NRjZw,2020-0188,2020-05-21,15:21:26,15:46:11,NA,incomplete,146,number,1,right,Purple_Plus_Chess_3.jpg,Blue_Triangle_Chess_4.jpg,Red_Circle_Grid_3.jpg,right,906.8149999948218,true,high,NA,NA,NA,NA,NA,NA,NA,false
PW4NRjZw,3eawoid6nwaaqnjzba4xtrlfy89v0t,30budkltxh8u63h84sq1z2pb1je5em,PW4NRjZw,2020-0188,2020-05-21,15:21:26,15:46:11,NA,incomplete,147,number,1,right,Green_Circle_Dots_3.jpg,Purple_Plus_Dots_4.jpg,Red_Star_Stripes_3.jpg,right,820.7050000200979,true,high,NA,NA,NA,NA,NA,NA,NA,false
PW4NRjZw,3eawoid6nwaaqnjzba4xtrlfy89v0t,30budkltxh8u63h84sq1z2pb1je5em,PW4NRjZw,2020-0188,2020-05-21,15:21:26,15:46:11,NA,incomplete,148,number,1,left,Red_Circle_Grid_4.jpg,Purple_Plus_Chess_4.jpg,Blue_Star_Grid_2.jpg,left,735.8249999815598,true,high,NA,NA,NA,NA,NA,NA,NA,false
PW4NRjZw,3eawoid6nwaaqnjzba4xtrlfy89v0t,30budkltxh8u63h84sq1z2pb1je5em,PW4NRjZw,2020-0188,2020-05-21,15:21:26,15:46:11,NA,incomplete,149,number,1,right,Green_Circle_Chess_2.jpg,Blue_Triangle_Chess_3.jpg,Red_Plus_Grid_2.jpg,right,984.1099999612197,true,high,NA,NA,NA,NA,NA,NA,NA,false
PW4NRjZw,3eawoid6nwaaqnjzba4xtrlfy89v0t,30budkltxh8u63h84sq1z2pb1je5em,PW4NRjZw,2020-0188,2020-05-21,15:21:26,15:46:11,NA,incomplete,150,number,0,right,Green_Star_Grid_4.jpg,Blue_Circle_Grid_1.jpg,Red_Plus_Stripes_4.jpg,right,624.3050000048243,true,high,NA,NA,NA,NA,NA,NA,NA,false
PW4NRjZw,3eawoid6nwaaqnjzba4xtrlfy89v0t,30budkltxh8u63h84sq1z2pb1je5em,PW4NRjZw,2020-0188,2020-05-21,15:21:26,15:46:11,NA,incomplete,151,number,1,left,Red_Triangle_Stripes_4.jpg,Blue_Star_Chess_4.jpg,Green_Plus_Stripes_2.jpg,left,564.3150000250898,true,high,NA,NA,NA,NA,NA,NA,NA,false
PW4NRjZw,3eawoid6nwaaqnjzba4xtrlfy89v0t,30budkltxh8u63h84sq1z2pb1je5em,PW4NRjZw,2020-0188,2020-05-21,15:21:26,15:46:11,NA,incomplete,152,number,1,left,Blue_Triangle_Chess_4.jpg,Red_Star_Dots_4.jpg,Green_Plus_Chess_2.jpg,left,560.5199999990873,true,high,NA,NA,NA,NA,NA,NA,NA,false
PW4NRjZw,3eawoid6nwaaqnjzba4xtrlfy89v0t,30budkltxh8u63h84sq1z2pb1je5em,PW4NRjZw,2020-0188,2020-05-21,15:21:26,15:46:11,NA,incomplete,153,number,1,right,Green_Circle_Stripes_2.jpg,Red_Plus_Stripes_3.jpg,Blue_Triangle_Chess_2.jpg,right,712.4799999874085,true,high,NA,NA,NA,NA,NA,NA,NA,false
PW4NRjZw,3eawoid6nwaaqnjzba4xtrlfy89v0t,30budkltxh8u63h84sq1z2pb1je5em,PW4NRjZw,2020-0188,2020-05-21,15:21:26,15:46:11,NA,incomplete,154,number,1,left,Red_Circle_Dots_4.jpg,Blue_Star_Chess_4.jpg,Green_Plus_Dots_1.jpg,left,552.9499999829568,true,high,NA,NA,NA,NA,NA,NA,NA,false
PW4NRjZw,3eawoid6nwaaqnjzba4xtrlfy89v0t,30budkltxh8u63h84sq1z2pb1je5em,PW4NRjZw,2020-0188,2020-05-21,15:21:26,15:46:11,NA,incomplete,155,number,1,right,Red_Plus_Dots_3.jpg,Purple_Triangle_Dots_1.jpg,Green_Star_Grid_3.jpg,right,501.9750000210479,true,high,NA,NA,NA,NA,NA,NA,NA,false
PW4NRjZw,3eawoid6nwaaqnjzba4xtrlfy89v0t,30budkltxh8u63h84sq1z2pb1je5em,PW4NRjZw,2020-0188,2020-05-21,15:21:26,15:46:11,NA,incomplete,156,number,1,right,Red_Triangle_Chess_1.jpg,Blue_Star_Chess_2.jpg,Green_Circle_Dots_1.jpg,right,653.5799999837764,true,high,NA,NA,NA,NA,NA,NA,NA,false
PW4NRjZw,3eawoid6nwaaqnjzba4xtrlfy89v0t,30budkltxh8u63h84sq1z2pb1je5em,PW4NRjZw,2020-0188,2020-05-21,15:21:26,15:46:11,NA,incomplete,157,number,0,left,Blue_Circle_Dots_2.jpg,Red_Triangle_Stripes_2.jpg,Green_Plus_Dots_3.jpg,left,592.2750000027008,true,high,NA,NA,NA,NA,NA,NA,NA,false
PW4NRjZw,3eawoid6nwaaqnjzba4xtrlfy89v0t,30budkltxh8u63h84sq1z2pb1je5em,PW4NRjZw,2020-0188,2020-05-21,15:21:26,15:46:11,NA,incomplete,158,number,1,right,Green_Star_Stripes_2.jpg,Blue_Plus_Stripes_4.jpg,Purple_Triangle_Chess_2.jpg,right,629.7550000017509,true,high,NA,NA,NA,NA,NA,NA,NA,false
PW4NRjZw,3eawoid6nwaaqnjzba4xtrlfy89v0t,30budkltxh8u63h84sq1z2pb1je5em,PW4NRjZw,2020-0188,2020-05-21,15:21:26,15:46:11,NA,incomplete,159,number,1,left,Green_Plus_Stripes_4.jpg,Red_Star_Dots_4.jpg,Blue_Circle_Stripes_1.jpg,left,570.4099999857135,true,high,NA,NA,NA,NA,NA,NA,NA,false
PW4NRjZw,3eawoid6nwaaqnjzba4xtrlfy89v0t,30budkltxh8u63h84sq1z2pb1je5em,PW4NRjZw,2020-0188,2020-05-21,15:21:26,15:46:11,NA,incomplete,160,filling,1,left,Purple_Star_Chess_4.jpg,Blue_Circle_Chess_2.jpg,Green_Plus_Dots_4.jpg,right,642.4000000115484,false,high,NA,NA,NA,NA,NA,NA,NA,false
PW4NRjZw,3eawoid6nwaaqnjzba4xtrlfy89v0t,30budkltxh8u63h84sq1z2pb1je5em,PW4NRjZw,2020-0188,2020-05-21,15:21:26,15:46:11,NA,incomplete,161,filling,0,right,Purple_Plus_Grid_1.jpg,Red_Circle_Chess_1.jpg,Green_Triangle_Grid_4.jpg,left,567.125000001397,false,high,NA,NA,NA,NA,NA,NA,NA,false
PW4NRjZw,3eawoid6nwaaqnjzba4xtrlfy89v0t,30budkltxh8u63h84sq1z2pb1je5em,PW4NRjZw,2020-0188,2020-05-21,15:21:26,15:46:11,NA,incomplete,162,filling,1,right,Red_Circle_Dots_1.jpg,Green_Triangle_Stripes_1.jpg,Purple_Plus_Dots_2.jpg,left,518.0599999730475,false,high,NA,NA,NA,NA,NA,NA,NA,false
PW4NRjZw,3eawoid6nwaaqnjzba4xtrlfy89v0t,30budkltxh8u63h84sq1z2pb1je5em,PW4NRjZw,2020-0188,2020-05-21,15:21:26,15:46:11,NA,incomplete,163,filling,1,left,Green_Star_Dots_1.jpg,Blue_Triangle_Dots_4.jpg,Purple_Plus_Stripes_1.jpg,right,658.9549999916926,false,high,NA,NA,NA,NA,NA,NA,NA,false
PW4NRjZw,3eawoid6nwaaqnjzba4xtrlfy89v0t,30budkltxh8u63h84sq1z2pb1je5em,PW4NRjZw,2020-0188,2020-05-21,15:21:26,15:46:11,NA,incomplete,164,filling,1,right,Purple_Star_Dots_3.jpg,Blue_Circle_Chess_3.jpg,Green_Triangle_Dots_2.jpg,right,715.7400000141934,true,high,NA,NA,NA,NA,NA,NA,NA,false
PW4NRjZw,3eawoid6nwaaqnjzba4xtrlfy89v0t,30budkltxh8u63h84sq1z2pb1je5em,PW4NRjZw,2020-0188,2020-05-21,15:21:26,15:46:11,NA,incomplete,165,filling,0,left,Purple_Plus_Stripes_4.jpg,Green_Star_Stripes_1.jpg,Blue_Triangle_Dots_4.jpg,left,681.2100000097416,true,high,NA,NA,NA,NA,NA,NA,NA,false
PW4NRjZw,3eawoid6nwaaqnjzba4xtrlfy89v0t,30budkltxh8u63h84sq1z2pb1je5em,PW4NRjZw,2020-0188,2020-05-21,15:21:26,15:46:11,NA,incomplete,166,filling,1,right,Blue_Star_Chess_2.jpg,Red_Triangle_Dots_2.jpg,Purple_Plus_Chess_3.jpg,right,710.1950000505894,true,high,NA,NA,NA,NA,NA,NA,NA,false
PW4NRjZw,3eawoid6nwaaqnjzba4xtrlfy89v0t,30budkltxh8u63h84sq1z2pb1je5em,PW4NRjZw,2020-0188,2020-05-21,15:21:26,15:46:11,NA,incomplete,167,filling,0,right,Red_Circle_Chess_4.jpg,Blue_Triangle_Grid_4.jpg,Purple_Plus_Chess_3.jpg,right,641.6099999914877,true,high,NA,NA,NA,NA,NA,NA,NA,false
PW4NRjZw,3eawoid6nwaaqnjzba4xtrlfy89v0t,30budkltxh8u63h84sq1z2pb1je5em,PW4NRjZw,2020-0188,2020-05-21,15:21:26,15:46:11,NA,incomplete,168,filling,1,right,Red_Triangle_Chess_3.jpg,Green_Plus_Grid_3.jpg,Purple_Circle_Chess_2.jpg,right,681.2049999716692,true,high,NA,NA,NA,NA,NA,NA,NA,false
PW4NRjZw,3eawoid6nwaaqnjzba4xtrlfy89v0t,30budkltxh8u63h84sq1z2pb1je5em,PW4NRjZw,2020-0188,2020-05-21,15:21:26,15:46:11,NA,incomplete,169,filling,1,left,Red_Circle_Dots_4.jpg,Purple_Star_Dots_1.jpg,Blue_Plus_Stripes_4.jpg,left,606.7550000152551,true,high,NA,NA,NA,NA,NA,NA,NA,false
PW4NRjZw,3eawoid6nwaaqnjzba4xtrlfy89v0t,30budkltxh8u63h84sq1z2pb1je5em,PW4NRjZw,2020-0188,2020-05-21,15:21:26,15:46:11,NA,incomplete,170,filling,1,right,Purple_Plus_Dots_4.jpg,Blue_Triangle_Grid_4.jpg,Red_Circle_Dots_1.jpg,right,565.8300000359304,true,high,NA,NA,NA,NA,NA,NA,NA,false
PW4NRjZw,3eawoid6nwaaqnjzba4xtrlfy89v0t,30budkltxh8u63h84sq1z2pb1je5em,PW4NRjZw,2020-0188,2020-05-21,15:21:26,15:46:11,NA,incomplete,171,filling,0,right,Blue_Plus_Stripes_3.jpg,Red_Star_Grid_3.jpg,Purple_Triangle_Stripes_2.jpg,right,566.5549999685027,true,high,NA,NA,NA,NA,NA,NA,NA,false
PW4NRjZw,3eawoid6nwaaqnjzba4xtrlfy89v0t,30budkltxh8u63h84sq1z2pb1je5em,PW4NRjZw,2020-0188,2020-05-21,15:21:26,15:46:11,NA,incomplete,172,filling,1,right,Red_Circle_Dots_1.jpg,Blue_Star_Grid_1.jpg,Green_Triangle_Dots_3.jpg,right,596.6199999675155,true,high,NA,NA,NA,NA,NA,NA,NA,false
PW4NRjZw,3eawoid6nwaaqnjzba4xtrlfy89v0t,30budkltxh8u63h84sq1z2pb1je5em,PW4NRjZw,2020-0188,2020-05-21,15:21:26,15:46:11,NA,incomplete,173,filling,1,left,Green_Triangle_Grid_3.jpg,Red_Star_Grid_4.jpg,Blue_Plus_Chess_3.jpg,left,594.0749999717809,true,high,NA,NA,NA,NA,NA,NA,NA,false
PW4NRjZw,3eawoid6nwaaqnjzba4xtrlfy89v0t,30budkltxh8u63h84sq1z2pb1je5em,PW4NRjZw,2020-0188,2020-05-21,15:21:26,15:46:11,NA,incomplete,174,filling,1,right,Blue_Plus_Dots_3.jpg,Red_Triangle_Grid_3.jpg,Purple_Circle_Dots_2.jpg,right,559.2949999845587,true,high,NA,NA,NA,NA,NA,NA,NA,false
PW4NRjZw,3eawoid6nwaaqnjzba4xtrlfy89v0t,30budkltxh8u63h84sq1z2pb1je5em,PW4NRjZw,2020-0188,2020-05-21,15:21:26,15:46:11,NA,incomplete,175,filling,1,left,Green_Circle_Stripes_1.jpg,Blue_Triangle_Stripes_2.jpg,Red_Star_Dots_1.jpg,right,769.0299999667332,false,high,NA,NA,NA,NA,NA,NA,NA,false
PW4NRjZw,3eawoid6nwaaqnjzba4xtrlfy89v0t,30budkltxh8u63h84sq1z2pb1je5em,PW4NRjZw,2020-0188,2020-05-21,15:21:26,15:46:11,NA,incomplete,176,filling,1,left,Purple_Star_Grid_3.jpg,Red_Plus_Grid_2.jpg,Blue_Triangle_Chess_3.jpg,left,1110.895000048913,true,high,NA,NA,NA,NA,NA,NA,NA,false
PW4NRjZw,3eawoid6nwaaqnjzba4xtrlfy89v0t,30budkltxh8u63h84sq1z2pb1je5em,PW4NRjZw,2020-0188,2020-05-21,15:21:26,15:46:11,NA,incomplete,177,filling,1,right,Purple_Circle_Grid_2.jpg,Red_Triangle_Chess_2.jpg,Green_Plus_Grid_4.jpg,right,764.6349999704398,true,high,NA,NA,NA,NA,NA,NA,NA,false
PW4NRjZw,3eawoid6nwaaqnjzba4xtrlfy89v0t,30budkltxh8u63h84sq1z2pb1je5em,PW4NRjZw,2020-0188,2020-05-21,15:21:26,15:46:11,NA,incomplete,178,filling,1,left,Red_Circle_Chess_4.jpg,Purple_Triangle_Chess_2.jpg,Green_Star_Grid_4.jpg,left,731.2099999981001,true,high,NA,NA,NA,NA,NA,NA,NA,false
PW4NRjZw,3eawoid6nwaaqnjzba4xtrlfy89v0t,30budkltxh8u63h84sq1z2pb1je5em,PW4NRjZw,2020-0188,2020-05-21,15:21:26,15:46:11,NA,incomplete,179,filling,1,left,Red_Triangle_Chess_4.jpg,Purple_Star_Chess_3.jpg,Green_Plus_Dots_4.jpg,left,684.5299999695271,true,high,NA,NA,NA,NA,NA,NA,NA,false
PW4NRjZw,3eawoid6nwaaqnjzba4xtrlfy89v0t,30budkltxh8u63h84sq1z2pb1je5em,PW4NRjZw,2020-0188,2020-05-21,15:21:26,15:46:11,NA,incomplete,180,number,1,right,Purple_Circle_Grid_1.jpg,Red_Plus_Grid_3.jpg,Blue_Star_Chess_1.jpg,left,702.3449999978766,false,high,NA,NA,NA,NA,NA,NA,NA,false
PW4NRjZw,3eawoid6nwaaqnjzba4xtrlfy89v0t,30budkltxh8u63h84sq1z2pb1je5em,PW4NRjZw,2020-0188,2020-05-21,15:21:26,15:46:11,NA,incomplete,181,number,1,right,Blue_Star_Grid_3.jpg,Red_Circle_Grid_1.jpg,Purple_Plus_Chess_3.jpg,left,757.0849999901839,false,high,NA,NA,NA,NA,NA,NA,NA,false
PW4NRjZw,3eawoid6nwaaqnjzba4xtrlfy89v0t,30budkltxh8u63h84sq1z2pb1je5em,PW4NRjZw,2020-0188,2020-05-21,15:21:26,15:46:11,NA,incomplete,182,number,1,right,Red_Plus_Stripes_2.jpg,Blue_Circle_Stripes_3.jpg,Green_Triangle_Grid_2.jpg,right,706.7299999762326,true,high,NA,NA,NA,NA,NA,NA,NA,false
PW4NRjZw,3eawoid6nwaaqnjzba4xtrlfy89v0t,30budkltxh8u63h84sq1z2pb1je5em,PW4NRjZw,2020-0188,2020-05-21,15:21:26,15:46:11,NA,incomplete,183,number,1,right,Blue_Plus_Grid_1.jpg,Red_Star_Grid_2.jpg,Green_Circle_Stripes_1.jpg,right,914.3000000040047,true,high,NA,NA,NA,NA,NA,NA,NA,false
PW4NRjZw,3eawoid6nwaaqnjzba4xtrlfy89v0t,30budkltxh8u63h84sq1z2pb1je5em,PW4NRjZw,2020-0188,2020-05-21,15:21:26,15:46:11,NA,incomplete,184,number,1,right,Blue_Star_Stripes_1.jpg,Purple_Triangle_Stripes_4.jpg,Red_Plus_Chess_1.jpg,right,584.0949999983422,true,high,NA,NA,NA,NA,NA,NA,NA,false
PW4NRjZw,3eawoid6nwaaqnjzba4xtrlfy89v0t,30budkltxh8u63h84sq1z2pb1je5em,PW4NRjZw,2020-0188,2020-05-21,15:21:26,15:46:11,NA,incomplete,185,number,0,left,Green_Plus_Dots_4.jpg,Blue_Triangle_Chess_4.jpg,Purple_Circle_Dots_2.jpg,left,554.5599999604747,true,high,NA,NA,NA,NA,NA,NA,NA,false
PW4NRjZw,3eawoid6nwaaqnjzba4xtrlfy89v0t,30budkltxh8u63h84sq1z2pb1je5em,PW4NRjZw,2020-0188,2020-05-21,15:21:26,15:46:11,NA,incomplete,186,number,1,left,Purple_Circle_Stripes_1.jpg,Blue_Triangle_Chess_1.jpg,Red_Plus_Stripes_3.jpg,left,564.2700000316836,true,high,NA,NA,NA,NA,NA,NA,NA,false
PW4NRjZw,3eawoid6nwaaqnjzba4xtrlfy89v0t,30budkltxh8u63h84sq1z2pb1je5em,PW4NRjZw,2020-0188,2020-05-21,15:21:26,15:46:11,NA,incomplete,187,number,1,left,Purple_Plus_Grid_4.jpg,Green_Triangle_Chess_4.jpg,Blue_Star_Grid_2.jpg,left,660.9250000328757,true,high,NA,NA,NA,NA,NA,NA,NA,false
PW4NRjZw,3eawoid6nwaaqnjzba4xtrlfy89v0t,30budkltxh8u63h84sq1z2pb1je5em,PW4NRjZw,2020-0188,2020-05-21,15:21:26,15:46:11,NA,incomplete,188,number,1,left,Red_Plus_Grid_3.jpg,Blue_Triangle_Dots_3.jpg,Green_Circle_Grid_4.jpg,left,776.125000033062,true,high,NA,NA,NA,NA,NA,NA,NA,false
PW4NRjZw,3eawoid6nwaaqnjzba4xtrlfy89v0t,30budkltxh8u63h84sq1z2pb1je5em,PW4NRjZw,2020-0188,2020-05-21,15:21:26,15:46:11,NA,incomplete,189,number,1,right,Red_Triangle_Chess_4.jpg,Purple_Star_Chess_3.jpg,Green_Plus_Grid_4.jpg,right,532.6650000060908,true,high,NA,NA,NA,NA,NA,NA,NA,false
PW4NRjZw,3eawoid6nwaaqnjzba4xtrlfy89v0t,30budkltxh8u63h84sq1z2pb1je5em,PW4NRjZw,2020-0188,2020-05-21,15:21:26,15:46:11,NA,incomplete,190,number,1,left,Green_Star_Grid_1.jpg,Blue_Plus_Stripes_1.jpg,Purple_Circle_Grid_2.jpg,left,508.08499997947365,true,high,NA,NA,NA,NA,NA,NA,NA,false
PW4NRjZw,3eawoid6nwaaqnjzba4xtrlfy89v0t,30budkltxh8u63h84sq1z2pb1je5em,PW4NRjZw,2020-0188,2020-05-21,15:21:26,15:46:11,NA,incomplete,191,number,1,right,Red_Star_Grid_1.jpg,Blue_Circle_Grid_4.jpg,Green_Triangle_Chess_1.jpg,right,582.7799999970011,true,high,NA,NA,NA,NA,NA,NA,NA,false
PW4NRjZw,3eawoid6nwaaqnjzba4xtrlfy89v0t,30budkltxh8u63h84sq1z2pb1je5em,PW4NRjZw,2020-0188,2020-05-21,15:21:26,15:46:11,NA,incomplete,192,number,1,right,Blue_Star_Dots_2.jpg,Purple_Circle_Dots_3.jpg,Green_Triangle_Grid_2.jpg,right,601.085000031162,true,high,NA,NA,NA,NA,NA,NA,NA,false
PW4NRjZw,3eawoid6nwaaqnjzba4xtrlfy89v0t,30budkltxh8u63h84sq1z2pb1je5em,PW4NRjZw,2020-0188,2020-05-21,15:21:26,15:46:11,NA,incomplete,193,number,0,right,Blue_Circle_Chess_4.jpg,Red_Plus_Chess_1.jpg,Green_Star_Stripes_4.jpg,right,611.559999990277,true,high,NA,NA,NA,NA,NA,NA,NA,false
PW4NRjZw,3eawoid6nwaaqnjzba4xtrlfy89v0t,30budkltxh8u63h84sq1z2pb1je5em,PW4NRjZw,2020-0188,2020-05-21,15:21:26,15:46:11,NA,incomplete,194,number,1,right,Red_Plus_Dots_2.jpg,Green_Star_Dots_4.jpg,Purple_Circle_Grid_2.jpg,right,824.1549999802373,true,high,NA,NA,NA,NA,NA,NA,NA,false
PW4NRjZw,3eawoid6nwaaqnjzba4xtrlfy89v0t,30budkltxh8u63h84sq1z2pb1je5em,PW4NRjZw,2020-0188,2020-05-21,15:21:26,15:46:11,NA,incomplete,195,number,1,right,Purple_Triangle_Stripes_1.jpg,Red_Plus_Stripes_2.jpg,Blue_Circle_Dots_1.jpg,right,778.7050000042655,true,high,NA,NA,NA,NA,NA,NA,NA,false
PW4NRjZw,3eawoid6nwaaqnjzba4xtrlfy89v0t,30budkltxh8u63h84sq1z2pb1je5em,PW4NRjZw,2020-0188,2020-05-21,15:21:26,15:46:11,NA,incomplete,196,number,1,left,Green_Plus_Chess_2.jpg,Red_Triangle_Grid_2.jpg,Purple_Circle_Chess_3.jpg,left,696.8249999918044,true,high,NA,NA,NA,NA,NA,NA,NA,false
PW4NRjZw,3eawoid6nwaaqnjzba4xtrlfy89v0t,30budkltxh8u63h84sq1z2pb1je5em,PW4NRjZw,2020-0188,2020-05-21,15:21:26,15:46:11,NA,incomplete,197,number,0,right,Green_Triangle_Chess_4.jpg,Red_Star_Chess_2.jpg,Blue_Circle_Dots_4.jpg,right,809.0899999951944,true,high,NA,NA,NA,NA,NA,NA,NA,false
PW4NRjZw,3eawoid6nwaaqnjzba4xtrlfy89v0t,30budkltxh8u63h84sq1z2pb1je5em,PW4NRjZw,2020-0188,2020-05-21,15:21:26,15:46:11,NA,incomplete,198,number,1,left,Green_Triangle_Chess_3.jpg,Purple_Plus_Grid_3.jpg,Blue_Star_Chess_4.jpg,left,895.1999999699183,true,high,NA,NA,NA,NA,NA,NA,NA,false
PW4NRjZw,3eawoid6nwaaqnjzba4xtrlfy89v0t,30budkltxh8u63h84sq1z2pb1je5em,PW4NRjZw,2020-0188,2020-05-21,15:21:26,15:46:11,NA,incomplete,199,number,0,left,Red_Star_Grid_1.jpg,Green_Plus_Dots_1.jpg,Purple_Circle_Grid_4.jpg,left,785.7399999629706,true,high,NA,NA,NA,NA,NA,NA,NA,false
PW4NRjZw,3eawoid6nwaaqnjzba4xtrlfy89v0t,30budkltxh8u63h84sq1z2pb1je5em,PW4NRjZw,2020-0188,2020-05-21,15:21:26,15:46:11,NA,incomplete,200,filling,1,right,Green_Triangle_Chess_2.jpg,Red_Circle_Dots_2.jpg,Purple_Star_Chess_3.jpg,left,775.4600000334904,false,high,NA,NA,NA,NA,NA,NA,NA,false
PW4NRjZw,3eawoid6nwaaqnjzba4xtrlfy89v0t,30budkltxh8u63h84sq1z2pb1je5em,PW4NRjZw,2020-0188,2020-05-21,15:21:26,15:46:11,NA,incomplete,201,filling,1,left,Blue_Star_Grid_2.jpg,Purple_Circle_Grid_3.jpg,Red_Plus_Stripes_2.jpg,left,728.3699999679811,true,high,NA,NA,NA,NA,NA,NA,NA,false
PW4NRjZw,3eawoid6nwaaqnjzba4xtrlfy89v0t,30budkltxh8u63h84sq1z2pb1je5em,PW4NRjZw,2020-0188,2020-05-21,15:21:26,15:46:11,NA,incomplete,202,filling,1,left,Green_Triangle_Grid_4.jpg,Blue_Star_Grid_1.jpg,Red_Plus_Stripes_4.jpg,left,817.4800000269897,true,high,NA,NA,NA,NA,NA,NA,NA,false
PW4NRjZw,3eawoid6nwaaqnjzba4xtrlfy89v0t,30budkltxh8u63h84sq1z2pb1je5em,PW4NRjZw,2020-0188,2020-05-21,15:21:26,15:46:11,NA,incomplete,203,filling,0,left,Green_Star_Chess_3.jpg,Blue_Circle_Chess_4.jpg,Red_Triangle_Dots_3.jpg,left,648.6649999860674,true,high,NA,NA,NA,NA,NA,NA,NA,false
PW4NRjZw,3eawoid6nwaaqnjzba4xtrlfy89v0t,30budkltxh8u63h84sq1z2pb1je5em,PW4NRjZw,2020-0188,2020-05-21,15:21:26,15:46:11,NA,incomplete,204,filling,1,left,Blue_Circle_Stripes_2.jpg,Purple_Plus_Stripes_3.jpg,Red_Star_Dots_2.jpg,left,658.7600000202656,true,high,NA,NA,NA,NA,NA,NA,NA,false
PW4NRjZw,3eawoid6nwaaqnjzba4xtrlfy89v0t,30budkltxh8u63h84sq1z2pb1je5em,PW4NRjZw,2020-0188,2020-05-21,15:21:26,15:46:11,NA,incomplete,205,filling,1,right,Red_Circle_Dots_2.jpg,Blue_Triangle_Chess_2.jpg,Green_Star_Dots_3.jpg,right,853.0949999694712,true,high,NA,NA,NA,NA,NA,NA,NA,false
PW4NRjZw,3eawoid6nwaaqnjzba4xtrlfy89v0t,30budkltxh8u63h84sq1z2pb1je5em,PW4NRjZw,2020-0188,2020-05-21,15:21:26,15:46:11,NA,incomplete,206,filling,1,right,Green_Star_Dots_4.jpg,Purple_Triangle_Stripes_4.jpg,Blue_Circle_Dots_3.jpg,right,775.3650000086054,true,high,NA,NA,NA,NA,NA,NA,NA,false
PW4NRjZw,3eawoid6nwaaqnjzba4xtrlfy89v0t,30budkltxh8u63h84sq1z2pb1je5em,PW4NRjZw,2020-0188,2020-05-21,15:21:26,15:46:11,NA,incomplete,207,filling,1,left,Green_Star_Dots_3.jpg,Purple_Circle_Dots_1.jpg,Red_Plus_Stripes_3.jpg,left,934.2600000090897,true,high,NA,NA,NA,NA,NA,NA,NA,false
PW4NRjZw,3eawoid6nwaaqnjzba4xtrlfy89v0t,30budkltxh8u63h84sq1z2pb1je5em,PW4NRjZw,2020-0188,2020-05-21,15:21:26,15:46:11,NA,incomplete,208,filling,1,left,Purple_Circle_Chess_1.jpg,Green_Triangle_Chess_2.jpg,Red_Star_Grid_1.jpg,left,725.3750000381842,true,high,NA,NA,NA,NA,NA,NA,NA,false
PW4NRjZw,3eawoid6nwaaqnjzba4xtrlfy89v0t,30budkltxh8u63h84sq1z2pb1je5em,PW4NRjZw,2020-0188,2020-05-21,15:21:26,15:46:11,NA,incomplete,209,filling,1,right,Red_Star_Chess_4.jpg,Blue_Triangle_Stripes_4.jpg,Green_Circle_Chess_1.jpg,right,641.6650000028312,true,high,NA,NA,NA,NA,NA,NA,NA,false
PW4NRjZw,3eawoid6nwaaqnjzba4xtrlfy89v0t,30budkltxh8u63h84sq1z2pb1je5em,PW4NRjZw,2020-0188,2020-05-21,15:21:26,15:46:11,NA,incomplete,210,filling,1,left,Purple_Star_Grid_4.jpg,Green_Plus_Grid_3.jpg,Red_Triangle_Dots_4.jpg,left,1373.859999992419,true,high,NA,NA,NA,NA,NA,NA,NA,false
PW4NRjZw,3eawoid6nwaaqnjzba4xtrlfy89v0t,30budkltxh8u63h84sq1z2pb1je5em,PW4NRjZw,2020-0188,2020-05-21,15:21:26,15:46:11,NA,incomplete,211,filling,0,right,Purple_Circle_Dots_1.jpg,Red_Star_Stripes_1.jpg,Green_Plus_Dots_2.jpg,right,852.1449999534525,true,high,NA,NA,NA,NA,NA,NA,NA,false
PW4NRjZw,3eawoid6nwaaqnjzba4xtrlfy89v0t,30budkltxh8u63h84sq1z2pb1je5em,PW4NRjZw,2020-0188,2020-05-21,15:21:26,15:46:11,NA,incomplete,212,filling,1,left,Green_Star_Chess_2.jpg,Red_Circle_Chess_4.jpg,Purple_Triangle_Grid_2.jpg,left,865.9549999865703,true,high,NA,NA,NA,NA,NA,NA,NA,false
PW4NRjZw,3eawoid6nwaaqnjzba4xtrlfy89v0t,30budkltxh8u63h84sq1z2pb1je5em,PW4NRjZw,2020-0188,2020-05-21,15:21:26,15:46:11,NA,incomplete,213,filling,1,left,Red_Triangle_Chess_2.jpg,Green_Plus_Chess_4.jpg,Purple_Circle_Stripes_2.jpg,left,794.7750000166707,true,high,NA,NA,NA,NA,NA,NA,NA,false
PW4NRjZw,3eawoid6nwaaqnjzba4xtrlfy89v0t,30budkltxh8u63h84sq1z2pb1je5em,PW4NRjZw,2020-0188,2020-05-21,15:21:26,15:46:11,NA,incomplete,214,filling,0,left,Green_Circle_Grid_4.jpg,Blue_Star_Grid_2.jpg,Red_Triangle_Dots_4.jpg,left,1187.595000024885,true,high,NA,NA,NA,NA,NA,NA,NA,false
PW4NRjZw,3eawoid6nwaaqnjzba4xtrlfy89v0t,30budkltxh8u63h84sq1z2pb1je5em,PW4NRjZw,2020-0188,2020-05-21,15:21:26,15:46:11,NA,incomplete,215,filling,1,right,Green_Circle_Chess_4.jpg,Red_Star_Grid_4.jpg,Blue_Triangle_Chess_1.jpg,right,673.5000000335276,true,high,NA,NA,NA,NA,NA,NA,NA,false
PW4NRjZw,3eawoid6nwaaqnjzba4xtrlfy89v0t,30budkltxh8u63h84sq1z2pb1je5em,PW4NRjZw,2020-0188,2020-05-21,15:21:26,15:46:11,NA,incomplete,216,filling,1,right,Purple_Plus_Chess_3.jpg,Red_Star_Stripes_3.jpg,Blue_Circle_Chess_4.jpg,right,968.445000005886,true,high,NA,NA,NA,NA,NA,NA,NA,false
PW4NRjZw,3eawoid6nwaaqnjzba4xtrlfy89v0t,30budkltxh8u63h84sq1z2pb1je5em,PW4NRjZw,2020-0188,2020-05-21,15:21:26,15:46:11,NA,incomplete,217,filling,1,left,Red_Star_Chess_1.jpg,Purple_Triangle_Chess_2.jpg,Green_Circle_Stripes_1.jpg,left,595.6500000320375,true,high,NA,NA,NA,NA,NA,NA,NA,false
PW4NRjZw,3eawoid6nwaaqnjzba4xtrlfy89v0t,30budkltxh8u63h84sq1z2pb1je5em,PW4NRjZw,2020-0188,2020-05-21,15:21:26,15:46:11,NA,incomplete,218,filling,0,left,Blue_Triangle_Stripes_1.jpg,Purple_Plus_Stripes_4.jpg,Green_Circle_Dots_1.jpg,left,849.5899999979883,true,high,NA,NA,NA,NA,NA,NA,NA,false
PW4NRjZw,3eawoid6nwaaqnjzba4xtrlfy89v0t,30budkltxh8u63h84sq1z2pb1je5em,PW4NRjZw,2020-0188,2020-05-21,15:21:26,15:46:11,NA,incomplete,219,filling,1,left,Red_Triangle_Stripes_1.jpg,Blue_Circle_Stripes_2.jpg,Green_Star_Chess_1.jpg,left,791.0450000199489,true,high,NA,NA,NA,NA,NA,NA,NA,false
PW4NRjZw,3eawoid6nwaaqnjzba4xtrlfy89v0t,30budkltxh8u63h84sq1z2pb1je5em,PW4NRjZw,2020-0188,2020-05-21,15:21:26,15:46:11,NA,incomplete,220,number,1,left,Red_Circle_Chess_3.jpg,Green_Star_Stripes_3.jpg,Blue_Triangle_Chess_4.jpg,right,971.8400000128895,false,high,NA,NA,NA,NA,NA,NA,NA,false
PW4NRjZw,3eawoid6nwaaqnjzba4xtrlfy89v0t,30budkltxh8u63h84sq1z2pb1je5em,PW4NRjZw,2020-0188,2020-05-21,15:21:26,15:46:11,NA,incomplete,221,number,1,left,Purple_Star_Grid_4.jpg,Green_Plus_Dots_4.jpg,Blue_Circle_Grid_3.jpg,right,720.9550000261515,false,high,NA,NA,NA,NA,NA,NA,NA,false
PW4NRjZw,3eawoid6nwaaqnjzba4xtrlfy89v0t,30budkltxh8u63h84sq1z2pb1je5em,PW4NRjZw,2020-0188,2020-05-21,15:21:26,15:46:11,NA,incomplete,222,number,1,right,Blue_Circle_Stripes_1.jpg,Purple_Star_Stripes_4.jpg,Green_Triangle_Grid_1.jpg,right,659.4349999795668,true,high,NA,NA,NA,NA,NA,NA,NA,false
PW4NRjZw,3eawoid6nwaaqnjzba4xtrlfy89v0t,30budkltxh8u63h84sq1z2pb1je5em,PW4NRjZw,2020-0188,2020-05-21,15:21:26,15:46:11,NA,incomplete,223,number,0,left,Green_Plus_Chess_4.jpg,Blue_Triangle_Dots_4.jpg,Purple_Star_Chess_2.jpg,left,636.7700000409968,true,high,NA,NA,NA,NA,NA,NA,NA,false
PW4NRjZw,3eawoid6nwaaqnjzba4xtrlfy89v0t,30budkltxh8u63h84sq1z2pb1je5em,PW4NRjZw,2020-0188,2020-05-21,15:21:26,15:46:11,NA,incomplete,224,number,1,left,Green_Star_Stripes_1.jpg,Purple_Circle_Grid_1.jpg,Blue_Plus_Stripes_3.jpg,left,519.3599999765866,true,high,NA,NA,NA,NA,NA,NA,NA,false
PW4NRjZw,3eawoid6nwaaqnjzba4xtrlfy89v0t,30budkltxh8u63h84sq1z2pb1je5em,PW4NRjZw,2020-0188,2020-05-21,15:21:26,15:46:11,NA,incomplete,225,number,0,right,Blue_Circle_Dots_1.jpg,Purple_Plus_Dots_2.jpg,Red_Triangle_Grid_1.jpg,right,597.1200000494719,true,high,NA,NA,NA,NA,NA,NA,NA,false
PW4NRjZw,3eawoid6nwaaqnjzba4xtrlfy89v0t,30budkltxh8u63h84sq1z2pb1je5em,PW4NRjZw,2020-0188,2020-05-21,15:21:26,15:46:11,NA,incomplete,226,number,1,left,Purple_Star_Chess_2.jpg,Red_Triangle_Grid_2.jpg,Blue_Circle_Chess_1.jpg,left,719.4049999816343,true,high,NA,NA,NA,NA,NA,NA,NA,false
PW4NRjZw,3eawoid6nwaaqnjzba4xtrlfy89v0t,30budkltxh8u63h84sq1z2pb1je5em,PW4NRjZw,2020-0188,2020-05-21,15:21:26,15:46:11,NA,incomplete,227,number,1,left,Red_Triangle_Grid_3.jpg,Purple_Star_Chess_3.jpg,Blue_Circle_Grid_2.jpg,left,688.1250000442378,true,high,NA,NA,NA,NA,NA,NA,NA,false
PW4NRjZw,3eawoid6nwaaqnjzba4xtrlfy89v0t,30budkltxh8u63h84sq1z2pb1je5em,PW4NRjZw,2020-0188,2020-05-21,15:21:26,15:46:11,NA,incomplete,228,number,0,right,Purple_Star_Chess_3.jpg,Green_Triangle_Chess_2.jpg,Blue_Plus_Dots_3.jpg,right,498.5449999803677,true,high,NA,NA,NA,NA,NA,NA,NA,false
PW4NRjZw,3eawoid6nwaaqnjzba4xtrlfy89v0t,30budkltxh8u63h84sq1z2pb1je5em,PW4NRjZw,2020-0188,2020-05-21,15:21:26,15:46:11,NA,incomplete,229,number,1,right,Purple_Triangle_Grid_2.jpg,Green_Star_Grid_1.jpg,Red_Circle_Dots_2.jpg,right,637.7250000368804,true,high,NA,NA,NA,NA,NA,NA,NA,false
PW4NRjZw,3eawoid6nwaaqnjzba4xtrlfy89v0t,30budkltxh8u63h84sq1z2pb1je5em,PW4NRjZw,2020-0188,2020-05-21,15:21:26,15:46:11,NA,incomplete,230,number,1,left,Red_Star_Grid_1.jpg,Purple_Circle_Stripes_1.jpg,Blue_Plus_Grid_4.jpg,left,637.4650000361726,true,high,NA,NA,NA,NA,NA,NA,NA,false
PW4NRjZw,3eawoid6nwaaqnjzba4xtrlfy89v0t,30budkltxh8u63h84sq1z2pb1je5em,PW4NRjZw,2020-0188,2020-05-21,15:21:26,15:46:11,NA,incomplete,231,number,1,right,Blue_Triangle_Chess_1.jpg,Purple_Plus_Chess_2.jpg,Green_Circle_Grid_1.jpg,right,709.2999999877065,true,high,NA,NA,NA,NA,NA,NA,NA,false
PW4NRjZw,3eawoid6nwaaqnjzba4xtrlfy89v0t,30budkltxh8u63h84sq1z2pb1je5em,PW4NRjZw,2020-0188,2020-05-21,15:21:26,15:46:11,NA,incomplete,232,number,1,left,Red_Circle_Dots_1.jpg,Blue_Triangle_Stripes_1.jpg,Purple_Star_Dots_4.jpg,left,483.0950000323355,true,high,NA,NA,NA,NA,NA,NA,NA,false
PW4NRjZw,3eawoid6nwaaqnjzba4xtrlfy89v0t,30budkltxh8u63h84sq1z2pb1je5em,PW4NRjZw,2020-0188,2020-05-21,15:21:26,15:46:11,NA,incomplete,233,number,1,right,Green_Plus_Dots_2.jpg,Red_Triangle_Dots_4.jpg,Purple_Circle_Chess_2.jpg,right,690.085000009276,true,high,NA,NA,NA,NA,NA,NA,NA,false
PW4NRjZw,3eawoid6nwaaqnjzba4xtrlfy89v0t,30budkltxh8u63h84sq1z2pb1je5em,PW4NRjZw,2020-0188,2020-05-21,15:21:26,15:46:11,NA,incomplete,234,number,1,right,Blue_Circle_Chess_1.jpg,Purple_Star_Chess_2.jpg,Green_Triangle_Stripes_1.jpg,right,724.4599999976344,true,high,NA,NA,NA,NA,NA,NA,NA,false
PW4NRjZw,3eawoid6nwaaqnjzba4xtrlfy89v0t,30budkltxh8u63h84sq1z2pb1je5em,PW4NRjZw,2020-0188,2020-05-21,15:21:26,15:46:11,NA,incomplete,235,number,1,left,Green_Star_Chess_2.jpg,Red_Triangle_Stripes_2.jpg,Purple_Plus_Chess_4.jpg,left,717.2249999712221,true,high,NA,NA,NA,NA,NA,NA,NA,false
PW4NRjZw,3eawoid6nwaaqnjzba4xtrlfy89v0t,30budkltxh8u63h84sq1z2pb1je5em,PW4NRjZw,2020-0188,2020-05-21,15:21:26,15:46:11,NA,incomplete,236,number,1,left,Purple_Star_Grid_1.jpg,Green_Circle_Chess_1.jpg,Red_Plus_Grid_2.jpg,left,475.18000000854954,true,high,NA,NA,NA,NA,NA,NA,NA,false
PW4NRjZw,3eawoid6nwaaqnjzba4xtrlfy89v0t,30budkltxh8u63h84sq1z2pb1je5em,PW4NRjZw,2020-0188,2020-05-21,15:21:26,15:46:11,NA,incomplete,237,number,1,left,Purple_Circle_Chess_3.jpg,Blue_Plus_Stripes_3.jpg,Green_Star_Chess_4.jpg,left,640.9450000501238,true,high,NA,NA,NA,NA,NA,NA,NA,false
PW4NRjZw,3eawoid6nwaaqnjzba4xtrlfy89v0t,30budkltxh8u63h84sq1z2pb1je5em,PW4NRjZw,2020-0188,2020-05-21,15:21:26,15:46:11,NA,incomplete,238,number,0,right,Green_Triangle_Chess_1.jpg,Purple_Circle_Chess_4.jpg,Blue_Star_Stripes_1.jpg,right,539.0650000190362,true,high,NA,NA,NA,NA,NA,NA,NA,false
PW4NRjZw,3eawoid6nwaaqnjzba4xtrlfy89v0t,30budkltxh8u63h84sq1z2pb1je5em,PW4NRjZw,2020-0188,2020-05-21,15:21:26,15:46:11,NA,incomplete,239,number,1,right,Red_Circle_Grid_3.jpg,Blue_Plus_Grid_1.jpg,Purple_Star_Dots_3.jpg,right,594.3850000039674,true,high,NA,NA,NA,NA,NA,NA,NA,false
PW4NRjZw,3eawoid6nwaaqnjzba4xtrlfy89v0t,30budkltxh8u63h84sq1z2pb1je5em,PW4NRjZw,2020-0188,2020-05-21,15:21:26,15:46:11,NA,NA,instruction example,shape,NA,NA,Red_Plus_Grid_4.jpg,Purple_Plus_Chess_3.jpg,Red_Triangle_Stripes_1.jpg,NA,NA,NA,NA,NA,NA,NA,NA,NA,NA,NA,undefined
PW4NRjZw,3eawoid6nwaaqnjzba4xtrlfy89v0t,30budkltxh8u63h84sq1z2pb1je5em,PW4NRjZw,2020-0188,2020-05-21,15:21:26,15:46:11,NA,NA,instruction example,shape,NA,NA,Blue_Plus_Grid_2.jpg,Blue_Circle_Dots_4.jpg,Green_Plus_Stripes_3.jpg,NA,NA,NA,NA,NA,NA,NA,NA,NA,NA,NA,undefined
PW4NRjZw,3eawoid6nwaaqnjzba4xtrlfy89v0t,30budkltxh8u63h84sq1z2pb1je5em,PW4NRjZw,2020-0188,2020-05-21,15:21:26,15:46:11,NA,NA,instruction example,shape,NA,NA,Red_Circle_Stripes_2.jpg,Green_Star_Stripes_1.jpg,Blue_Plus_Dots_2.jpg,NA,NA,NA,NA,NA,NA,NA,NA,NA,NA,NA,undefined
PW4NRjZw,3eawoid6nwaaqnjzba4xtrlfy89v0t,30budkltxh8u63h84sq1z2pb1je5em,PW4NRjZw,2020-0188,2020-05-21,15:21:26,15:46:11,NA,NA,instruction example,shape,NA,NA,Blue_Triangle_Grid_3.jpg,Red_Plus_Dots_3.jpg,Green_Star_Grid_2.jpg,NA,NA,NA,NA,NA,NA,NA,NA,NA,NA,NA,undefined
PW4NRjZw,3eawoid6nwaaqnjzba4xtrlfy89v0t,30budkltxh8u63h84sq1z2pb1je5em,PW4NRjZw,2020-0188,2020-05-21,15:21:26,15:46:11,1472191.0700000008,1486233.91000001,NA,NA,NA,NA,NA,NA,NA,NA,NA,NA,NA,31,Asian,Male,Filipino,no,no,no,undefined
