workerId,hitId,assignmentId,subject,studyid,exp_date,exp_start,exp_end,time_start,time_end,trial,type,reward_validity,answer,image_top,image_left,image_right,response,response_time,response_acc,volatility,practice
EaSBmeC2,3y7ltze0zwz7ft0pae7k34mi28juzv,30og32w0syoywsne8smntjpxs21en4,EaSBmeC2,2020-0188,2020-05-21,12:31:12,12:47:42,NA,incomplete,0,color,1,right,Purple_Plus_Dots_2.jpg,Red_Star_Dots_1.jpg,Purple_Triangle_Stripes_3.jpg,right,1013.0300000018906,true,NA,true
EaSBmeC2,3y7ltze0zwz7ft0pae7k34mi28juzv,30og32w0syoywsne8smntjpxs21en4,EaSBmeC2,2020-0188,2020-05-21,12:31:12,12:47:42,NA,incomplete,1,color,1,right,Blue_Plus_Stripes_1.jpg,Green_Circle_Stripes_3.jpg,Blue_Triangle_Chess_2.jpg,right,618.1250000081491,true,NA,true
EaSBmeC2,3y7ltze0zwz7ft0pae7k34mi28juzv,30og32w0syoywsne8smntjpxs21en4,EaSBmeC2,2020-0188,2020-05-21,12:31:12,12:47:42,NA,incomplete,2,color,1,right,Blue_Triangle_Stripes_1.jpg,Red_Star_Stripes_4.jpg,Blue_Plus_Grid_2.jpg,right,498.80499999562744,true,NA,true
EaSBmeC2,3y7ltze0zwz7ft0pae7k34mi28juzv,30og32w0syoywsne8smntjpxs21en4,EaSBmeC2,2020-0188,2020-05-21,12:31:12,12:47:42,NA,incomplete,3,color,1,left,Green_Circle_Grid_3.jpg,Green_Triangle_Stripes_2.jpg,Blue_Plus_Grid_4.jpg,left,417.77499999443535,true,NA,true
EaSBmeC2,3y7ltze0zwz7ft0pae7k34mi28juzv,30og32w0syoywsne8smntjpxs21en4,EaSBmeC2,2020-0188,2020-05-21,12:31:12,12:47:42,NA,incomplete,4,color,1,right,Red_Star_Stripes_1.jpg,Blue_Circle_Stripes_2.jpg,Red_Plus_Dots_3.jpg,right,405.1199999958044,true,NA,true
EaSBmeC2,3y7ltze0zwz7ft0pae7k34mi28juzv,30og32w0syoywsne8smntjpxs21en4,EaSBmeC2,2020-0188,2020-05-21,12:31:12,12:47:42,NA,incomplete,5,color,1,left,Green_Plus_Grid_2.jpg,Green_Circle_Stripes_4.jpg,Red_Star_Grid_3.jpg,left,414.8799999966286,true,NA,true
EaSBmeC2,3y7ltze0zwz7ft0pae7k34mi28juzv,30og32w0syoywsne8smntjpxs21en4,EaSBmeC2,2020-0188,2020-05-21,12:31:12,12:47:42,NA,incomplete,6,color,1,left,Green_Star_Stripes_3.jpg,Green_Triangle_Grid_2.jpg,Blue_Plus_Stripes_4.jpg,left,400.81500000087544,true,NA,true
EaSBmeC2,3y7ltze0zwz7ft0pae7k34mi28juzv,30og32w0syoywsne8smntjpxs21en4,EaSBmeC2,2020-0188,2020-05-21,12:31:12,12:47:42,NA,incomplete,7,color,0,right,Green_Circle_Grid_2.jpg,Blue_Triangle_Grid_4.jpg,Green_Star_Dots_3.jpg,right,344.70500001043547,true,NA,true
EaSBmeC2,3y7ltze0zwz7ft0pae7k34mi28juzv,30og32w0syoywsne8smntjpxs21en4,EaSBmeC2,2020-0188,2020-05-21,12:31:12,12:47:42,NA,incomplete,8,color,1,right,Green_Circle_Dots_4.jpg,Red_Star_Dots_1.jpg,Green_Plus_Chess_3.jpg,right,680.6849999993574,true,NA,true
EaSBmeC2,3y7ltze0zwz7ft0pae7k34mi28juzv,30og32w0syoywsne8smntjpxs21en4,EaSBmeC2,2020-0188,2020-05-21,12:31:12,12:47:42,NA,incomplete,9,color,1,left,Purple_Circle_Chess_2.jpg,Purple_Plus_Grid_4.jpg,Green_Star_Chess_3.jpg,left,474.84999999869615,true,NA,true
EaSBmeC2,3y7ltze0zwz7ft0pae7k34mi28juzv,30og32w0syoywsne8smntjpxs21en4,EaSBmeC2,2020-0188,2020-05-21,12:31:12,12:47:42,NA,incomplete,10,color,1,left,Red_Circle_Dots_3.jpg,Red_Star_Chess_4.jpg,Purple_Plus_Dots_1.jpg,left,486.47499999788124,true,NA,true
EaSBmeC2,3y7ltze0zwz7ft0pae7k34mi28juzv,30og32w0syoywsne8smntjpxs21en4,EaSBmeC2,2020-0188,2020-05-21,12:31:12,12:47:42,NA,incomplete,11,color,0,left,Green_Triangle_Chess_2.jpg,Green_Circle_Dots_4.jpg,Purple_Plus_Chess_3.jpg,left,541.1800000001676,true,NA,true
EaSBmeC2,3y7ltze0zwz7ft0pae7k34mi28juzv,30og32w0syoywsne8smntjpxs21en4,EaSBmeC2,2020-0188,2020-05-21,12:31:12,12:47:42,NA,incomplete,12,color,1,left,Green_Plus_Grid_2.jpg,Green_Circle_Stripes_4.jpg,Blue_Triangle_Grid_1.jpg,left,377.4100000009639,true,NA,true
EaSBmeC2,3y7ltze0zwz7ft0pae7k34mi28juzv,30og32w0syoywsne8smntjpxs21en4,EaSBmeC2,2020-0188,2020-05-21,12:31:12,12:47:42,NA,incomplete,13,color,1,right,Red_Plus_Grid_4.jpg,Purple_Star_Grid_2.jpg,Red_Triangle_Chess_1.jpg,right,350.53500000503846,true,NA,true
EaSBmeC2,3y7ltze0zwz7ft0pae7k34mi28juzv,30og32w0syoywsne8smntjpxs21en4,EaSBmeC2,2020-0188,2020-05-21,12:31:12,12:47:42,NA,incomplete,14,color,1,left,Purple_Triangle_Stripes_1.jpg,Purple_Star_Grid_2.jpg,Red_Circle_Stripes_3.jpg,left,415.7799999957206,true,NA,true
EaSBmeC2,3y7ltze0zwz7ft0pae7k34mi28juzv,30og32w0syoywsne8smntjpxs21en4,EaSBmeC2,2020-0188,2020-05-21,12:31:12,12:47:42,NA,incomplete,15,color,1,right,Blue_Star_Dots_4.jpg,Red_Circle_Dots_3.jpg,Blue_Plus_Grid_2.jpg,right,354.1549999936251,true,NA,true
EaSBmeC2,3y7ltze0zwz7ft0pae7k34mi28juzv,30og32w0syoywsne8smntjpxs21en4,EaSBmeC2,2020-0188,2020-05-21,12:31:12,12:47:42,NA,incomplete,16,color,1,left,Red_Circle_Grid_3.jpg,Red_Star_Dots_2.jpg,Blue_Plus_Grid_1.jpg,left,339.4899999984773,true,NA,true
EaSBmeC2,3y7ltze0zwz7ft0pae7k34mi28juzv,30og32w0syoywsne8smntjpxs21en4,EaSBmeC2,2020-0188,2020-05-21,12:31:12,12:47:42,NA,incomplete,17,color,1,left,Red_Star_Dots_3.jpg,Red_Plus_Stripes_2.jpg,Blue_Circle_Dots_4.jpg,left,370.0600000011036,true,NA,true
EaSBmeC2,3y7ltze0zwz7ft0pae7k34mi28juzv,30og32w0syoywsne8smntjpxs21en4,EaSBmeC2,2020-0188,2020-05-21,12:31:12,12:47:42,NA,incomplete,18,color,0,right,Red_Circle_Grid_3.jpg,Purple_Triangle_Grid_4.jpg,Red_Plus_Stripes_2.jpg,right,349.4899999932386,true,NA,true
EaSBmeC2,3y7ltze0zwz7ft0pae7k34mi28juzv,30og32w0syoywsne8smntjpxs21en4,EaSBmeC2,2020-0188,2020-05-21,12:31:12,12:47:42,NA,incomplete,19,color,1,left,Blue_Plus_Dots_1.jpg,Blue_Circle_Grid_3.jpg,Red_Star_Dots_2.jpg,left,390.2949999901466,true,NA,true
EaSBmeC2,3y7ltze0zwz7ft0pae7k34mi28juzv,30og32w0syoywsne8smntjpxs21en4,EaSBmeC2,2020-0188,2020-05-21,12:31:12,12:47:42,NA,incomplete,20,filling,1,left,Green_Triangle_Grid_2.jpg,Red_Circle_Grid_1.jpg,Green_Star_Chess_3.jpg,right,349.4700000010198,false,NA,true
EaSBmeC2,3y7ltze0zwz7ft0pae7k34mi28juzv,30og32w0syoywsne8smntjpxs21en4,EaSBmeC2,2020-0188,2020-05-21,12:31:12,12:47:42,NA,incomplete,21,filling,1,right,Green_Star_Stripes_3.jpg,Green_Plus_Grid_2.jpg,Purple_Circle_Stripes_1.jpg,right,846.1349999997765,true,NA,true
EaSBmeC2,3y7ltze0zwz7ft0pae7k34mi28juzv,30og32w0syoywsne8smntjpxs21en4,EaSBmeC2,2020-0188,2020-05-21,12:31:12,12:47:42,NA,incomplete,22,filling,1,right,Red_Triangle_Dots_1.jpg,Red_Plus_Chess_3.jpg,Blue_Star_Dots_4.jpg,right,658.4600000060163,true,NA,true
EaSBmeC2,3y7ltze0zwz7ft0pae7k34mi28juzv,30og32w0syoywsne8smntjpxs21en4,EaSBmeC2,2020-0188,2020-05-21,12:31:12,12:47:42,NA,incomplete,23,filling,0,right,Purple_Triangle_Grid_2.jpg,Purple_Star_Stripes_4.jpg,Green_Plus_Grid_1.jpg,left,625.2099999983329,false,NA,true
EaSBmeC2,3y7ltze0zwz7ft0pae7k34mi28juzv,30og32w0syoywsne8smntjpxs21en4,EaSBmeC2,2020-0188,2020-05-21,12:31:12,12:47:42,NA,incomplete,24,filling,1,right,Purple_Plus_Grid_4.jpg,Purple_Circle_Dots_3.jpg,Green_Triangle_Grid_2.jpg,left,916.1299999977928,false,NA,true
EaSBmeC2,3y7ltze0zwz7ft0pae7k34mi28juzv,30og32w0syoywsne8smntjpxs21en4,EaSBmeC2,2020-0188,2020-05-21,12:31:12,12:47:42,NA,incomplete,25,filling,1,left,Purple_Circle_Grid_4.jpg,Red_Triangle_Grid_1.jpg,Purple_Star_Dots_3.jpg,left,786.4300000073854,true,NA,true
EaSBmeC2,3y7ltze0zwz7ft0pae7k34mi28juzv,30og32w0syoywsne8smntjpxs21en4,EaSBmeC2,2020-0188,2020-05-21,12:31:12,12:47:42,NA,incomplete,26,filling,1,left,Blue_Circle_Grid_3.jpg,Purple_Star_Grid_4.jpg,Blue_Plus_Chess_1.jpg,left,669.7149999963585,true,NA,true
EaSBmeC2,3y7ltze0zwz7ft0pae7k34mi28juzv,30og32w0syoywsne8smntjpxs21en4,EaSBmeC2,2020-0188,2020-05-21,12:31:12,12:47:42,NA,incomplete,27,filling,0,right,Green_Triangle_Stripes_3.jpg,Green_Circle_Grid_4.jpg,Purple_Plus_Stripes_2.jpg,right,871.5050000027986,true,NA,true
EaSBmeC2,3y7ltze0zwz7ft0pae7k34mi28juzv,30og32w0syoywsne8smntjpxs21en4,EaSBmeC2,2020-0188,2020-05-21,12:31:12,12:47:42,NA,incomplete,28,filling,1,left,Purple_Star_Grid_2.jpg,Blue_Triangle_Grid_4.jpg,Purple_Plus_Stripes_1.jpg,left,799.0799999970477,true,NA,true
EaSBmeC2,3y7ltze0zwz7ft0pae7k34mi28juzv,30og32w0syoywsne8smntjpxs21en4,EaSBmeC2,2020-0188,2020-05-21,12:31:12,12:47:42,NA,incomplete,29,filling,0,right,Red_Circle_Chess_2.jpg,Red_Plus_Grid_1.jpg,Green_Star_Chess_3.jpg,right,788.315000012517,true,NA,true
EaSBmeC2,3y7ltze0zwz7ft0pae7k34mi28juzv,30og32w0syoywsne8smntjpxs21en4,EaSBmeC2,2020-0188,2020-05-21,12:31:12,12:47:42,NA,incomplete,30,filling,0,left,Purple_Plus_Chess_3.jpg,Blue_Star_Chess_2.jpg,Purple_Circle_Stripes_4.jpg,left,839.6300000022165,true,NA,true
EaSBmeC2,3y7ltze0zwz7ft0pae7k34mi28juzv,30og32w0syoywsne8smntjpxs21en4,EaSBmeC2,2020-0188,2020-05-21,12:31:12,12:47:42,NA,incomplete,31,filling,1,left,Purple_Triangle_Grid_1.jpg,Blue_Plus_Grid_4.jpg,Purple_Star_Dots_3.jpg,left,730.4600000061328,true,NA,true
EaSBmeC2,3y7ltze0zwz7ft0pae7k34mi28juzv,30og32w0syoywsne8smntjpxs21en4,EaSBmeC2,2020-0188,2020-05-21,12:31:12,12:47:42,NA,incomplete,32,filling,1,right,Red_Plus_Grid_2.jpg,Red_Circle_Stripes_1.jpg,Purple_Star_Grid_3.jpg,left,549.7699999978067,false,NA,true
EaSBmeC2,3y7ltze0zwz7ft0pae7k34mi28juzv,30og32w0syoywsne8smntjpxs21en4,EaSBmeC2,2020-0188,2020-05-21,12:31:12,12:47:42,NA,incomplete,33,filling,1,right,Blue_Plus_Chess_2.jpg,Blue_Triangle_Grid_3.jpg,Green_Circle_Chess_1.jpg,right,668.6749999935273,true,NA,true
EaSBmeC2,3y7ltze0zwz7ft0pae7k34mi28juzv,30og32w0syoywsne8smntjpxs21en4,EaSBmeC2,2020-0188,2020-05-21,12:31:12,12:47:42,NA,incomplete,34,filling,0,left,Green_Plus_Dots_2.jpg,Blue_Star_Dots_1.jpg,Green_Triangle_Grid_3.jpg,left,702.000000004773,true,NA,true
EaSBmeC2,3y7ltze0zwz7ft0pae7k34mi28juzv,30og32w0syoywsne8smntjpxs21en4,EaSBmeC2,2020-0188,2020-05-21,12:31:12,12:47:42,NA,incomplete,35,filling,1,left,Green_Circle_Dots_4.jpg,Blue_Plus_Dots_1.jpg,Green_Triangle_Grid_2.jpg,left,580.614999998943,true,NA,true
EaSBmeC2,3y7ltze0zwz7ft0pae7k34mi28juzv,30og32w0syoywsne8smntjpxs21en4,EaSBmeC2,2020-0188,2020-05-21,12:31:12,12:47:42,NA,incomplete,36,filling,1,right,Purple_Star_Chess_4.jpg,Purple_Circle_Grid_3.jpg,Green_Triangle_Chess_2.jpg,right,544.754999995348,true,NA,true
EaSBmeC2,3y7ltze0zwz7ft0pae7k34mi28juzv,30og32w0syoywsne8smntjpxs21en4,EaSBmeC2,2020-0188,2020-05-21,12:31:12,12:47:42,NA,incomplete,37,filling,1,left,Blue_Triangle_Grid_4.jpg,Green_Circle_Grid_1.jpg,Blue_Star_Stripes_2.jpg,left,526.8999999971129,true,NA,true
EaSBmeC2,3y7ltze0zwz7ft0pae7k34mi28juzv,30og32w0syoywsne8smntjpxs21en4,EaSBmeC2,2020-0188,2020-05-21,12:31:12,12:47:42,NA,incomplete,38,filling,1,right,Red_Star_Chess_3.jpg,Red_Plus_Stripes_4.jpg,Green_Triangle_Chess_2.jpg,right,665.7500000001164,true,NA,true
EaSBmeC2,3y7ltze0zwz7ft0pae7k34mi28juzv,30og32w0syoywsne8smntjpxs21en4,EaSBmeC2,2020-0188,2020-05-21,12:31:12,12:47:42,NA,incomplete,39,filling,1,right,Purple_Star_Chess_3.jpg,Purple_Triangle_Dots_2.jpg,Red_Plus_Chess_1.jpg,right,561.9250000017928,true,NA,true
EaSBmeC2,3y7ltze0zwz7ft0pae7k34mi28juzv,30og32w0syoywsne8smntjpxs21en4,EaSBmeC2,2020-0188,2020-05-21,12:31:12,12:47:42,NA,incomplete,0,color,1,left,Red_Triangle_Stripes_3.jpg,Red_Circle_Chess_2.jpg,Purple_Star_Stripes_4.jpg,left,1272.850000008475,true,high,false
EaSBmeC2,3y7ltze0zwz7ft0pae7k34mi28juzv,30og32w0syoywsne8smntjpxs21en4,EaSBmeC2,2020-0188,2020-05-21,12:31:12,12:47:42,NA,incomplete,1,color,1,right,Green_Plus_Chess_1.jpg,Red_Star_Chess_3.jpg,Green_Triangle_Grid_4.jpg,right,429.52999999397434,true,high,false
EaSBmeC2,3y7ltze0zwz7ft0pae7k34mi28juzv,30og32w0syoywsne8smntjpxs21en4,EaSBmeC2,2020-0188,2020-05-21,12:31:12,12:47:42,NA,incomplete,2,color,1,right,Purple_Triangle_Chess_1.jpg,Red_Star_Chess_2.jpg,Purple_Plus_Stripes_4.jpg,right,1354.655000002822,true,high,false
EaSBmeC2,3y7ltze0zwz7ft0pae7k34mi28juzv,30og32w0syoywsne8smntjpxs21en4,EaSBmeC2,2020-0188,2020-05-21,12:31:12,12:47:42,NA,incomplete,3,color,1,right,Blue_Plus_Chess_3.jpg,Green_Star_Chess_2.jpg,Blue_Circle_Stripes_4.jpg,right,412.29500000190455,true,high,false
EaSBmeC2,3y7ltze0zwz7ft0pae7k34mi28juzv,30og32w0syoywsne8smntjpxs21en4,EaSBmeC2,2020-0188,2020-05-21,12:31:12,12:47:42,NA,incomplete,4,color,1,left,Red_Triangle_Chess_4.jpg,Red_Star_Dots_2.jpg,Blue_Circle_Chess_3.jpg,left,359.0649999969173,true,high,false
EaSBmeC2,3y7ltze0zwz7ft0pae7k34mi28juzv,30og32w0syoywsne8smntjpxs21en4,EaSBmeC2,2020-0188,2020-05-21,12:31:12,12:47:42,NA,incomplete,5,color,1,right,Blue_Triangle_Chess_2.jpg,Red_Plus_Chess_4.jpg,Blue_Star_Stripes_3.jpg,right,352.5050000025658,true,high,false
EaSBmeC2,3y7ltze0zwz7ft0pae7k34mi28juzv,30og32w0syoywsne8smntjpxs21en4,EaSBmeC2,2020-0188,2020-05-21,12:31:12,12:47:42,NA,incomplete,6,color,1,left,Green_Triangle_Chess_2.jpg,Green_Circle_Dots_4.jpg,Blue_Star_Chess_3.jpg,left,401.2099999963539,true,high,false
EaSBmeC2,3y7ltze0zwz7ft0pae7k34mi28juzv,30og32w0syoywsne8smntjpxs21en4,EaSBmeC2,2020-0188,2020-05-21,12:31:12,12:47:42,NA,incomplete,7,color,1,right,Red_Triangle_Grid_4.jpg,Purple_Circle_Grid_2.jpg,Red_Star_Stripes_1.jpg,right,361.4850000012666,true,high,false
EaSBmeC2,3y7ltze0zwz7ft0pae7k34mi28juzv,30og32w0syoywsne8smntjpxs21en4,EaSBmeC2,2020-0188,2020-05-21,12:31:12,12:47:42,NA,incomplete,8,color,1,left,Green_Circle_Chess_1.jpg,Green_Plus_Dots_3.jpg,Purple_Triangle_Chess_4.jpg,left,356.4299999998184,true,high,false
EaSBmeC2,3y7ltze0zwz7ft0pae7k34mi28juzv,30og32w0syoywsne8smntjpxs21en4,EaSBmeC2,2020-0188,2020-05-21,12:31:12,12:47:42,NA,incomplete,9,color,1,right,Blue_Plus_Chess_4.jpg,Green_Triangle_Chess_3.jpg,Blue_Star_Stripes_2.jpg,right,382.28999999410007,true,high,false
EaSBmeC2,3y7ltze0zwz7ft0pae7k34mi28juzv,30og32w0syoywsne8smntjpxs21en4,EaSBmeC2,2020-0188,2020-05-21,12:31:12,12:47:42,NA,incomplete,10,filling,1,right,Purple_Star_Dots_3.jpg,Purple_Triangle_Chess_2.jpg,Red_Circle_Dots_4.jpg,left,404.77500000270084,false,high,false
EaSBmeC2,3y7ltze0zwz7ft0pae7k34mi28juzv,30og32w0syoywsne8smntjpxs21en4,EaSBmeC2,2020-0188,2020-05-21,12:31:12,12:47:42,NA,incomplete,11,filling,0,left,Blue_Circle_Stripes_1.jpg,Purple_Plus_Stripes_3.jpg,Blue_Star_Grid_4.jpg,left,757.1049999969546,true,high,false
EaSBmeC2,3y7ltze0zwz7ft0pae7k34mi28juzv,30og32w0syoywsne8smntjpxs21en4,EaSBmeC2,2020-0188,2020-05-21,12:31:12,12:47:42,NA,incomplete,12,filling,1,right,Red_Circle_Stripes_2.jpg,Red_Triangle_Dots_4.jpg,Blue_Plus_Stripes_3.jpg,right,676.4649999968242,true,high,false
EaSBmeC2,3y7ltze0zwz7ft0pae7k34mi28juzv,30og32w0syoywsne8smntjpxs21en4,EaSBmeC2,2020-0188,2020-05-21,12:31:12,12:47:42,NA,incomplete,13,filling,0,right,Red_Plus_Grid_3.jpg,Red_Triangle_Chess_4.jpg,Purple_Star_Grid_1.jpg,right,654.6349999989616,true,high,false
EaSBmeC2,3y7ltze0zwz7ft0pae7k34mi28juzv,30og32w0syoywsne8smntjpxs21en4,EaSBmeC2,2020-0188,2020-05-21,12:31:12,12:47:42,NA,incomplete,14,filling,0,left,Purple_Circle_Dots_1.jpg,Green_Star_Dots_2.jpg,Purple_Plus_Chess_3.jpg,right,422.0950000017183,false,high,false
EaSBmeC2,3y7ltze0zwz7ft0pae7k34mi28juzv,30og32w0syoywsne8smntjpxs21en4,EaSBmeC2,2020-0188,2020-05-21,12:31:12,12:47:42,NA,incomplete,15,filling,1,left,Blue_Triangle_Stripes_1.jpg,Green_Circle_Stripes_2.jpg,Blue_Star_Dots_3.jpg,right,394.0650000004098,false,high,false
EaSBmeC2,3y7ltze0zwz7ft0pae7k34mi28juzv,30og32w0syoywsne8smntjpxs21en4,EaSBmeC2,2020-0188,2020-05-21,12:31:12,12:47:42,NA,incomplete,16,filling,1,right,Blue_Circle_Dots_4.jpg,Blue_Triangle_Grid_1.jpg,Green_Star_Dots_3.jpg,right,713.3150000008754,true,high,false
EaSBmeC2,3y7ltze0zwz7ft0pae7k34mi28juzv,30og32w0syoywsne8smntjpxs21en4,EaSBmeC2,2020-0188,2020-05-21,12:31:12,12:47:42,NA,incomplete,17,filling,1,right,Blue_Star_Grid_1.jpg,Blue_Circle_Stripes_4.jpg,Purple_Plus_Grid_3.jpg,right,592.2599999903468,true,high,false
EaSBmeC2,3y7ltze0zwz7ft0pae7k34mi28juzv,30og32w0syoywsne8smntjpxs21en4,EaSBmeC2,2020-0188,2020-05-21,12:31:12,12:47:42,NA,incomplete,18,filling,1,left,Purple_Star_Stripes_3.jpg,Blue_Circle_Stripes_2.jpg,Purple_Plus_Chess_4.jpg,left,606.0450000077253,true,high,false
EaSBmeC2,3y7ltze0zwz7ft0pae7k34mi28juzv,30og32w0syoywsne8smntjpxs21en4,EaSBmeC2,2020-0188,2020-05-21,12:31:12,12:47:42,NA,incomplete,19,filling,1,right,Red_Star_Stripes_4.jpg,Red_Triangle_Dots_2.jpg,Blue_Circle_Stripes_1.jpg,right,589.7149999946123,true,high,false
EaSBmeC2,3y7ltze0zwz7ft0pae7k34mi28juzv,30og32w0syoywsne8smntjpxs21en4,EaSBmeC2,2020-0188,2020-05-21,12:31:12,12:47:42,NA,incomplete,20,color,1,right,Purple_Star_Stripes_3.jpg,Blue_Circle_Stripes_1.jpg,Purple_Plus_Chess_2.jpg,left,563.2150000019465,false,high,false
EaSBmeC2,3y7ltze0zwz7ft0pae7k34mi28juzv,30og32w0syoywsne8smntjpxs21en4,EaSBmeC2,2020-0188,2020-05-21,12:31:12,12:47:42,NA,incomplete,21,color,0,left,Green_Star_Grid_3.jpg,Green_Plus_Stripes_2.jpg,Purple_Circle_Grid_4.jpg,right,612.0450000016717,false,high,false
EaSBmeC2,3y7ltze0zwz7ft0pae7k34mi28juzv,30og32w0syoywsne8smntjpxs21en4,EaSBmeC2,2020-0188,2020-05-21,12:31:12,12:47:42,NA,incomplete,22,color,1,left,Purple_Star_Chess_4.jpg,Purple_Triangle_Grid_2.jpg,Red_Circle_Chess_1.jpg,right,556.8999999959487,false,high,false
EaSBmeC2,3y7ltze0zwz7ft0pae7k34mi28juzv,30og32w0syoywsne8smntjpxs21en4,EaSBmeC2,2020-0188,2020-05-21,12:31:12,12:47:42,NA,incomplete,23,color,1,left,Green_Star_Grid_1.jpg,Green_Triangle_Chess_4.jpg,Blue_Circle_Grid_3.jpg,right,653.3250000065891,false,high,false
EaSBmeC2,3y7ltze0zwz7ft0pae7k34mi28juzv,30og32w0syoywsne8smntjpxs21en4,EaSBmeC2,2020-0188,2020-05-21,12:31:12,12:47:42,NA,incomplete,24,color,0,left,Red_Star_Chess_1.jpg,Red_Plus_Stripes_4.jpg,Green_Triangle_Chess_3.jpg,left,364.6699999953853,true,high,false
EaSBmeC2,3y7ltze0zwz7ft0pae7k34mi28juzv,30og32w0syoywsne8smntjpxs21en4,EaSBmeC2,2020-0188,2020-05-21,12:31:12,12:47:42,NA,incomplete,25,color,1,left,Green_Triangle_Grid_4.jpg,Green_Star_Chess_3.jpg,Purple_Plus_Grid_1.jpg,left,584.1800000052899,true,high,false
EaSBmeC2,3y7ltze0zwz7ft0pae7k34mi28juzv,30og32w0syoywsne8smntjpxs21en4,EaSBmeC2,2020-0188,2020-05-21,12:31:12,12:47:42,NA,incomplete,26,color,1,left,Red_Star_Grid_4.jpg,Red_Plus_Dots_2.jpg,Green_Triangle_Grid_1.jpg,right,603.2899999991059,false,high,false
EaSBmeC2,3y7ltze0zwz7ft0pae7k34mi28juzv,30og32w0syoywsne8smntjpxs21en4,EaSBmeC2,2020-0188,2020-05-21,12:31:12,12:47:42,NA,incomplete,27,color,1,right,Blue_Circle_Dots_2.jpg,Purple_Plus_Dots_1.jpg,Blue_Star_Stripes_3.jpg,right,403.03500001027714,true,high,false
EaSBmeC2,3y7ltze0zwz7ft0pae7k34mi28juzv,30og32w0syoywsne8smntjpxs21en4,EaSBmeC2,2020-0188,2020-05-21,12:31:12,12:47:42,NA,incomplete,28,color,1,right,Green_Triangle_Stripes_4.jpg,Red_Circle_Stripes_3.jpg,Green_Plus_Grid_1.jpg,right,476.249999992433,true,high,false
EaSBmeC2,3y7ltze0zwz7ft0pae7k34mi28juzv,30og32w0syoywsne8smntjpxs21en4,EaSBmeC2,2020-0188,2020-05-21,12:31:12,12:47:42,NA,incomplete,29,color,0,right,Green_Triangle_Grid_3.jpg,Red_Circle_Grid_2.jpg,Green_Star_Chess_4.jpg,right,352.0450000069104,true,high,false
EaSBmeC2,3y7ltze0zwz7ft0pae7k34mi28juzv,30og32w0syoywsne8smntjpxs21en4,EaSBmeC2,2020-0188,2020-05-21,12:31:12,12:47:42,NA,incomplete,30,filling,1,right,Green_Star_Chess_4.jpg,Green_Triangle_Stripes_3.jpg,Red_Circle_Chess_1.jpg,left,400.8049999974901,false,high,false
EaSBmeC2,3y7ltze0zwz7ft0pae7k34mi28juzv,30og32w0syoywsne8smntjpxs21en4,EaSBmeC2,2020-0188,2020-05-21,12:31:12,12:47:42,NA,incomplete,31,filling,1,right,Green_Plus_Grid_1.jpg,Green_Circle_Dots_3.jpg,Purple_Triangle_Grid_2.jpg,right,489.24999999871943,true,high,false
EaSBmeC2,3y7ltze0zwz7ft0pae7k34mi28juzv,30og32w0syoywsne8smntjpxs21en4,EaSBmeC2,2020-0188,2020-05-21,12:31:12,12:47:42,NA,incomplete,32,filling,1,right,Red_Circle_Grid_4.jpg,Red_Plus_Stripes_1.jpg,Green_Star_Grid_2.jpg,right,542.8950000059558,true,high,false
EaSBmeC2,3y7ltze0zwz7ft0pae7k34mi28juzv,30og32w0syoywsne8smntjpxs21en4,EaSBmeC2,2020-0188,2020-05-21,12:31:12,12:47:42,NA,incomplete,33,filling,1,right,Purple_Plus_Stripes_4.jpg,Purple_Circle_Chess_2.jpg,Red_Triangle_Stripes_1.jpg,right,589.2299999977695,true,high,false
EaSBmeC2,3y7ltze0zwz7ft0pae7k34mi28juzv,30og32w0syoywsne8smntjpxs21en4,EaSBmeC2,2020-0188,2020-05-21,12:31:12,12:47:42,NA,incomplete,34,filling,1,right,Green_Circle_Chess_3.jpg,Green_Star_Grid_2.jpg,Purple_Triangle_Chess_1.jpg,right,545.9249999985332,true,high,false
EaSBmeC2,3y7ltze0zwz7ft0pae7k34mi28juzv,30og32w0syoywsne8smntjpxs21en4,EaSBmeC2,2020-0188,2020-05-21,12:31:12,12:47:42,NA,incomplete,35,filling,1,right,Blue_Circle_Grid_4.jpg,Blue_Triangle_Stripes_3.jpg,Purple_Plus_Grid_2.jpg,left,760.229999999865,false,high,false
EaSBmeC2,3y7ltze0zwz7ft0pae7k34mi28juzv,30og32w0syoywsne8smntjpxs21en4,EaSBmeC2,2020-0188,2020-05-21,12:31:12,12:47:42,NA,incomplete,36,filling,0,right,Red_Star_Grid_1.jpg,Red_Circle_Stripes_4.jpg,Purple_Plus_Grid_2.jpg,left,783.7750000035157,false,high,false
EaSBmeC2,3y7ltze0zwz7ft0pae7k34mi28juzv,30og32w0syoywsne8smntjpxs21en4,EaSBmeC2,2020-0188,2020-05-21,12:31:12,12:47:42,NA,incomplete,37,filling,1,left,Blue_Plus_Grid_2.jpg,Green_Circle_Grid_4.jpg,Blue_Triangle_Stripes_3.jpg,left,536.6150000045309,true,high,false
EaSBmeC2,3y7ltze0zwz7ft0pae7k34mi28juzv,30og32w0syoywsne8smntjpxs21en4,EaSBmeC2,2020-0188,2020-05-21,12:31:12,12:47:42,NA,incomplete,38,filling,0,left,Purple_Circle_Stripes_1.jpg,Red_Triangle_Stripes_4.jpg,Purple_Plus_Chess_2.jpg,left,590.8800000033807,true,high,false
EaSBmeC2,3y7ltze0zwz7ft0pae7k34mi28juzv,30og32w0syoywsne8smntjpxs21en4,EaSBmeC2,2020-0188,2020-05-21,12:31:12,12:47:42,NA,incomplete,39,filling,0,right,Purple_Circle_Dots_1.jpg,Purple_Star_Chess_4.jpg,Blue_Triangle_Dots_2.jpg,right,844.5400000055088,true,high,false
EaSBmeC2,3y7ltze0zwz7ft0pae7k34mi28juzv,30og32w0syoywsne8smntjpxs21en4,EaSBmeC2,2020-0188,2020-05-21,12:31:12,12:47:42,NA,incomplete,40,color,1,right,Red_Circle_Stripes_1.jpg,Green_Triangle_Stripes_3.jpg,Red_Star_Chess_2.jpg,right,416.2300000025425,true,high,false
EaSBmeC2,3y7ltze0zwz7ft0pae7k34mi28juzv,30og32w0syoywsne8smntjpxs21en4,EaSBmeC2,2020-0188,2020-05-21,12:31:12,12:47:42,NA,incomplete,41,color,1,left,Purple_Plus_Grid_4.jpg,Purple_Triangle_Chess_3.jpg,Green_Star_Grid_2.jpg,left,355.08999999728985,true,high,false
EaSBmeC2,3y7ltze0zwz7ft0pae7k34mi28juzv,30og32w0syoywsne8smntjpxs21en4,EaSBmeC2,2020-0188,2020-05-21,12:31:12,12:47:42,NA,incomplete,42,color,1,right,Purple_Circle_Dots_3.jpg,Green_Plus_Dots_2.jpg,Purple_Triangle_Stripes_1.jpg,right,420.38499999034684,true,high,false
EaSBmeC2,3y7ltze0zwz7ft0pae7k34mi28juzv,30og32w0syoywsne8smntjpxs21en4,EaSBmeC2,2020-0188,2020-05-21,12:31:12,12:47:42,NA,incomplete,43,color,1,left,Red_Circle_Chess_1.jpg,Red_Triangle_Dots_3.jpg,Green_Star_Chess_4.jpg,left,343.66499999305233,true,high,false
EaSBmeC2,3y7ltze0zwz7ft0pae7k34mi28juzv,30og32w0syoywsne8smntjpxs21en4,EaSBmeC2,2020-0188,2020-05-21,12:31:12,12:47:42,NA,incomplete,44,color,1,right,Blue_Triangle_Chess_3.jpg,Green_Circle_Chess_2.jpg,Blue_Star_Grid_1.jpg,right,399.4399999937741,true,high,false
EaSBmeC2,3y7ltze0zwz7ft0pae7k34mi28juzv,30og32w0syoywsne8smntjpxs21en4,EaSBmeC2,2020-0188,2020-05-21,12:31:12,12:47:42,NA,incomplete,45,color,1,left,Blue_Circle_Grid_3.jpg,Blue_Plus_Stripes_2.jpg,Red_Star_Grid_4.jpg,left,351.6600000002654,true,high,false
EaSBmeC2,3y7ltze0zwz7ft0pae7k34mi28juzv,30og32w0syoywsne8smntjpxs21en4,EaSBmeC2,2020-0188,2020-05-21,12:31:12,12:47:42,NA,incomplete,46,color,1,right,Green_Star_Dots_4.jpg,Blue_Plus_Dots_2.jpg,Green_Circle_Grid_1.jpg,right,376.34499999694526,true,high,false
EaSBmeC2,3y7ltze0zwz7ft0pae7k34mi28juzv,30og32w0syoywsne8smntjpxs21en4,EaSBmeC2,2020-0188,2020-05-21,12:31:12,12:47:42,NA,incomplete,47,color,1,right,Green_Star_Grid_3.jpg,Red_Circle_Grid_1.jpg,Green_Plus_Stripes_4.jpg,right,397.91499999410007,true,high,false
EaSBmeC2,3y7ltze0zwz7ft0pae7k34mi28juzv,30og32w0syoywsne8smntjpxs21en4,EaSBmeC2,2020-0188,2020-05-21,12:31:12,12:47:42,NA,incomplete,48,color,1,left,Red_Plus_Chess_3.jpg,Red_Star_Stripes_2.jpg,Purple_Circle_Chess_4.jpg,left,333.7850000098115,true,high,false
EaSBmeC2,3y7ltze0zwz7ft0pae7k34mi28juzv,30og32w0syoywsne8smntjpxs21en4,EaSBmeC2,2020-0188,2020-05-21,12:31:12,12:47:42,NA,incomplete,49,color,1,left,Blue_Plus_Stripes_2.jpg,Blue_Triangle_Chess_4.jpg,Green_Circle_Stripes_3.jpg,left,348.3449999912409,true,high,false
EaSBmeC2,3y7ltze0zwz7ft0pae7k34mi28juzv,30og32w0syoywsne8smntjpxs21en4,EaSBmeC2,2020-0188,2020-05-21,12:31:12,12:47:42,NA,incomplete,50,filling,1,left,Green_Star_Grid_2.jpg,Blue_Plus_Grid_4.jpg,Green_Triangle_Chess_3.jpg,right,333.20500000263564,false,high,false
EaSBmeC2,3y7ltze0zwz7ft0pae7k34mi28juzv,30og32w0syoywsne8smntjpxs21en4,EaSBmeC2,2020-0188,2020-05-21,12:31:12,12:47:42,NA,incomplete,51,filling,1,left,Purple_Plus_Dots_2.jpg,Blue_Star_Dots_4.jpg,Purple_Triangle_Grid_3.jpg,right,427.1000000007916,false,high,false
EaSBmeC2,3y7ltze0zwz7ft0pae7k34mi28juzv,30og32w0syoywsne8smntjpxs21en4,EaSBmeC2,2020-0188,2020-05-21,12:31:12,12:47:42,NA,incomplete,52,filling,1,right,Red_Plus_Dots_3.jpg,Red_Star_Chess_4.jpg,Green_Triangle_Dots_2.jpg,left,591.0650000005262,false,high,false
EaSBmeC2,3y7ltze0zwz7ft0pae7k34mi28juzv,30og32w0syoywsne8smntjpxs21en4,EaSBmeC2,2020-0188,2020-05-21,12:31:12,12:47:42,NA,incomplete,53,filling,1,left,Green_Triangle_Dots_4.jpg,Purple_Circle_Dots_3.jpg,Green_Star_Grid_1.jpg,left,637.300000002142,true,high,false
EaSBmeC2,3y7ltze0zwz7ft0pae7k34mi28juzv,30og32w0syoywsne8smntjpxs21en4,EaSBmeC2,2020-0188,2020-05-21,12:31:12,12:47:42,NA,incomplete,54,filling,1,left,Blue_Star_Grid_4.jpg,Red_Triangle_Grid_2.jpg,Blue_Circle_Stripes_1.jpg,left,577.0049999991897,true,high,false
EaSBmeC2,3y7ltze0zwz7ft0pae7k34mi28juzv,30og32w0syoywsne8smntjpxs21en4,EaSBmeC2,2020-0188,2020-05-21,12:31:12,12:47:42,NA,incomplete,55,filling,0,left,Green_Star_Dots_3.jpg,Purple_Triangle_Dots_1.jpg,Green_Circle_Chess_2.jpg,left,532.4449999898206,true,high,false
EaSBmeC2,3y7ltze0zwz7ft0pae7k34mi28juzv,30og32w0syoywsne8smntjpxs21en4,EaSBmeC2,2020-0188,2020-05-21,12:31:12,12:47:42,NA,incomplete,56,filling,0,left,Red_Circle_Chess_3.jpg,Green_Star_Chess_1.jpg,Red_Triangle_Stripes_2.jpg,left,601.1900000012247,true,high,false
EaSBmeC2,3y7ltze0zwz7ft0pae7k34mi28juzv,30og32w0syoywsne8smntjpxs21en4,EaSBmeC2,2020-0188,2020-05-21,12:31:12,12:47:42,NA,incomplete,57,filling,0,right,Red_Circle_Dots_3.jpg,Red_Star_Chess_4.jpg,Green_Plus_Dots_1.jpg,left,375.51000001258217,false,high,false
EaSBmeC2,3y7ltze0zwz7ft0pae7k34mi28juzv,30og32w0syoywsne8smntjpxs21en4,EaSBmeC2,2020-0188,2020-05-21,12:31:12,12:47:42,NA,incomplete,58,filling,0,left,Red_Circle_Grid_1.jpg,Blue_Triangle_Grid_2.jpg,Red_Plus_Dots_4.jpg,right,364.5549999928335,false,high,false
EaSBmeC2,3y7ltze0zwz7ft0pae7k34mi28juzv,30og32w0syoywsne8smntjpxs21en4,EaSBmeC2,2020-0188,2020-05-21,12:31:12,12:47:42,NA,incomplete,59,filling,1,right,Red_Plus_Dots_3.jpg,Red_Circle_Stripes_2.jpg,Blue_Triangle_Dots_1.jpg,left,391.990000003716,false,high,false
EaSBmeC2,3y7ltze0zwz7ft0pae7k34mi28juzv,30og32w0syoywsne8smntjpxs21en4,EaSBmeC2,2020-0188,2020-05-21,12:31:12,12:47:42,NA,incomplete,60,color,1,left,Blue_Plus_Grid_2.jpg,Blue_Star_Stripes_3.jpg,Green_Triangle_Grid_4.jpg,left,510.5900000053225,true,high,false
EaSBmeC2,3y7ltze0zwz7ft0pae7k34mi28juzv,30og32w0syoywsne8smntjpxs21en4,EaSBmeC2,2020-0188,2020-05-21,12:31:12,12:47:42,NA,incomplete,61,color,1,right,Blue_Plus_Chess_2.jpg,Red_Triangle_Chess_4.jpg,Blue_Circle_Grid_1.jpg,right,415.5750000063563,true,high,false
EaSBmeC2,3y7ltze0zwz7ft0pae7k34mi28juzv,30og32w0syoywsne8smntjpxs21en4,EaSBmeC2,2020-0188,2020-05-21,12:31:12,12:47:42,NA,incomplete,62,color,1,right,Blue_Star_Chess_1.jpg,Red_Plus_Chess_4.jpg,Blue_Triangle_Grid_3.jpg,right,369.8750000039581,true,high,false
EaSBmeC2,3y7ltze0zwz7ft0pae7k34mi28juzv,30og32w0syoywsne8smntjpxs21en4,EaSBmeC2,2020-0188,2020-05-21,12:31:12,12:47:42,NA,incomplete,63,color,1,right,Red_Plus_Stripes_2.jpg,Green_Star_Stripes_4.jpg,Red_Circle_Chess_1.jpg,right,389.85999999567866,true,high,false
EaSBmeC2,3y7ltze0zwz7ft0pae7k34mi28juzv,30og32w0syoywsne8smntjpxs21en4,EaSBmeC2,2020-0188,2020-05-21,12:31:12,12:47:42,NA,incomplete,64,color,0,left,Blue_Star_Grid_1.jpg,Blue_Plus_Dots_3.jpg,Red_Circle_Grid_2.jpg,left,348.985000004177,true,high,false
EaSBmeC2,3y7ltze0zwz7ft0pae7k34mi28juzv,30og32w0syoywsne8smntjpxs21en4,EaSBmeC2,2020-0188,2020-05-21,12:31:12,12:47:42,NA,incomplete,65,color,1,left,Blue_Circle_Chess_3.jpg,Blue_Plus_Stripes_2.jpg,Red_Star_Chess_1.jpg,right,606.3600000052247,false,high,false
EaSBmeC2,3y7ltze0zwz7ft0pae7k34mi28juzv,30og32w0syoywsne8smntjpxs21en4,EaSBmeC2,2020-0188,2020-05-21,12:31:12,12:47:42,NA,incomplete,66,color,1,right,Green_Plus_Chess_4.jpg,Blue_Circle_Chess_3.jpg,Green_Star_Stripes_1.jpg,right,445.61999999859836,true,high,false
EaSBmeC2,3y7ltze0zwz7ft0pae7k34mi28juzv,30og32w0syoywsne8smntjpxs21en4,EaSBmeC2,2020-0188,2020-05-21,12:31:12,12:47:42,NA,incomplete,67,color,1,left,Blue_Triangle_Stripes_4.jpg,Blue_Circle_Grid_2.jpg,Red_Star_Stripes_1.jpg,left,389.36000000103377,true,high,false
EaSBmeC2,3y7ltze0zwz7ft0pae7k34mi28juzv,30og32w0syoywsne8smntjpxs21en4,EaSBmeC2,2020-0188,2020-05-21,12:31:12,12:47:42,NA,incomplete,68,color,1,right,Green_Plus_Stripes_3.jpg,Red_Circle_Stripes_1.jpg,Green_Triangle_Grid_2.jpg,right,420.285000000149,true,high,false
EaSBmeC2,3y7ltze0zwz7ft0pae7k34mi28juzv,30og32w0syoywsne8smntjpxs21en4,EaSBmeC2,2020-0188,2020-05-21,12:31:12,12:47:42,NA,incomplete,69,color,1,left,Blue_Triangle_Stripes_4.jpg,Blue_Circle_Dots_1.jpg,Purple_Plus_Stripes_2.jpg,left,407.7549999929033,true,high,false
EaSBmeC2,3y7ltze0zwz7ft0pae7k34mi28juzv,30og32w0syoywsne8smntjpxs21en4,EaSBmeC2,2020-0188,2020-05-21,12:31:12,12:47:42,NA,incomplete,70,filling,1,left,Red_Circle_Grid_1.jpg,Blue_Star_Grid_4.jpg,Red_Plus_Chess_2.jpg,right,440.78499999886844,false,high,false
EaSBmeC2,3y7ltze0zwz7ft0pae7k34mi28juzv,30og32w0syoywsne8smntjpxs21en4,EaSBmeC2,2020-0188,2020-05-21,12:31:12,12:47:42,NA,incomplete,71,filling,1,right,Red_Triangle_Grid_2.jpg,Red_Circle_Dots_1.jpg,Green_Star_Grid_3.jpg,left,527.9350000055274,false,high,false
EaSBmeC2,3y7ltze0zwz7ft0pae7k34mi28juzv,30og32w0syoywsne8smntjpxs21en4,EaSBmeC2,2020-0188,2020-05-21,12:31:12,12:47:42,NA,incomplete,72,filling,1,right,Purple_Plus_Stripes_4.jpg,Purple_Circle_Chess_2.jpg,Green_Star_Stripes_1.jpg,right,858.635000011418,true,high,false
EaSBmeC2,3y7ltze0zwz7ft0pae7k34mi28juzv,30og32w0syoywsne8smntjpxs21en4,EaSBmeC2,2020-0188,2020-05-21,12:31:12,12:47:42,NA,incomplete,73,filling,0,right,Red_Circle_Stripes_1.jpg,Red_Triangle_Grid_2.jpg,Green_Plus_Stripes_4.jpg,right,536.5049999963958,true,high,false
EaSBmeC2,3y7ltze0zwz7ft0pae7k34mi28juzv,30og32w0syoywsne8smntjpxs21en4,EaSBmeC2,2020-0188,2020-05-21,12:31:12,12:47:42,NA,incomplete,74,filling,1,right,Blue_Triangle_Chess_1.jpg,Blue_Plus_Grid_2.jpg,Purple_Circle_Chess_3.jpg,right,581.5199999924516,true,high,false
EaSBmeC2,3y7ltze0zwz7ft0pae7k34mi28juzv,30og32w0syoywsne8smntjpxs21en4,EaSBmeC2,2020-0188,2020-05-21,12:31:12,12:47:42,NA,incomplete,75,filling,0,right,Green_Triangle_Grid_4.jpg,Green_Star_Chess_3.jpg,Red_Circle_Grid_2.jpg,right,641.3750000065193,true,high,false
EaSBmeC2,3y7ltze0zwz7ft0pae7k34mi28juzv,30og32w0syoywsne8smntjpxs21en4,EaSBmeC2,2020-0188,2020-05-21,12:31:12,12:47:42,NA,incomplete,76,filling,1,left,Green_Triangle_Grid_3.jpg,Red_Star_Grid_1.jpg,Green_Circle_Chess_4.jpg,left,575.7349999912549,true,high,false
EaSBmeC2,3y7ltze0zwz7ft0pae7k34mi28juzv,30og32w0syoywsne8smntjpxs21en4,EaSBmeC2,2020-0188,2020-05-21,12:31:12,12:47:42,NA,incomplete,77,filling,1,right,Red_Star_Chess_4.jpg,Red_Triangle_Dots_2.jpg,Purple_Circle_Chess_1.jpg,right,537.0399999956135,true,high,false
EaSBmeC2,3y7ltze0zwz7ft0pae7k34mi28juzv,30og32w0syoywsne8smntjpxs21en4,EaSBmeC2,2020-0188,2020-05-21,12:31:12,12:47:42,NA,incomplete,78,filling,1,right,Red_Plus_Dots_3.jpg,Red_Circle_Stripes_2.jpg,Purple_Star_Dots_1.jpg,left,582.1750000031898,false,high,false
EaSBmeC2,3y7ltze0zwz7ft0pae7k34mi28juzv,30og32w0syoywsne8smntjpxs21en4,EaSBmeC2,2020-0188,2020-05-21,12:31:12,12:47:42,NA,incomplete,79,filling,1,right,Blue_Triangle_Grid_2.jpg,Blue_Circle_Chess_3.jpg,Green_Plus_Grid_1.jpg,right,626.0049999982584,true,high,false
EaSBmeC2,3y7ltze0zwz7ft0pae7k34mi28juzv,30og32w0syoywsne8smntjpxs21en4,EaSBmeC2,2020-0188,2020-05-21,12:31:12,12:47:42,NA,incomplete,80,color,1,left,Green_Circle_Grid_2.jpg,Green_Star_Chess_4.jpg,Purple_Triangle_Grid_3.jpg,right,628.7049999955343,false,high,false
EaSBmeC2,3y7ltze0zwz7ft0pae7k34mi28juzv,30og32w0syoywsne8smntjpxs21en4,EaSBmeC2,2020-0188,2020-05-21,12:31:12,12:47:42,NA,incomplete,81,color,1,left,Blue_Star_Chess_2.jpg,Blue_Circle_Grid_3.jpg,Purple_Triangle_Chess_1.jpg,left,368.54500000481494,true,high,false
EaSBmeC2,3y7ltze0zwz7ft0pae7k34mi28juzv,30og32w0syoywsne8smntjpxs21en4,EaSBmeC2,2020-0188,2020-05-21,12:31:12,12:47:42,NA,incomplete,82,color,1,right,Red_Triangle_Grid_4.jpg,Green_Star_Grid_2.jpg,Red_Plus_Chess_1.jpg,right,428.03000001003966,true,high,false
EaSBmeC2,3y7ltze0zwz7ft0pae7k34mi28juzv,30og32w0syoywsne8smntjpxs21en4,EaSBmeC2,2020-0188,2020-05-21,12:31:12,12:47:42,NA,incomplete,83,color,0,right,Blue_Plus_Stripes_3.jpg,Green_Circle_Stripes_2.jpg,Blue_Triangle_Dots_1.jpg,right,384.2799999983981,true,high,false
EaSBmeC2,3y7ltze0zwz7ft0pae7k34mi28juzv,30og32w0syoywsne8smntjpxs21en4,EaSBmeC2,2020-0188,2020-05-21,12:31:12,12:47:42,NA,incomplete,84,color,1,left,Green_Circle_Chess_2.jpg,Green_Plus_Dots_4.jpg,Purple_Star_Chess_3.jpg,right,526.1849999951664,false,high,false
EaSBmeC2,3y7ltze0zwz7ft0pae7k34mi28juzv,30og32w0syoywsne8smntjpxs21en4,EaSBmeC2,2020-0188,2020-05-21,12:31:12,12:47:42,NA,incomplete,85,color,0,left,Green_Star_Dots_3.jpg,Green_Triangle_Chess_1.jpg,Blue_Plus_Dots_4.jpg,left,473.150000005262,true,high,false
EaSBmeC2,3y7ltze0zwz7ft0pae7k34mi28juzv,30og32w0syoywsne8smntjpxs21en4,EaSBmeC2,2020-0188,2020-05-21,12:31:12,12:47:42,NA,incomplete,86,color,1,right,Blue_Triangle_Chess_4.jpg,Green_Circle_Chess_1.jpg,Blue_Star_Dots_3.jpg,left,605.3799999936018,false,high,false
EaSBmeC2,3y7ltze0zwz7ft0pae7k34mi28juzv,30og32w0syoywsne8smntjpxs21en4,EaSBmeC2,2020-0188,2020-05-21,12:31:12,12:47:42,NA,incomplete,87,color,1,left,Purple_Triangle_Dots_3.jpg,Purple_Circle_Stripes_1.jpg,Blue_Plus_Dots_4.jpg,left,517.7649999968708,true,high,false
EaSBmeC2,3y7ltze0zwz7ft0pae7k34mi28juzv,30og32w0syoywsne8smntjpxs21en4,EaSBmeC2,2020-0188,2020-05-21,12:31:12,12:47:42,NA,incomplete,88,color,1,right,Blue_Triangle_Chess_1.jpg,Green_Circle_Chess_4.jpg,Blue_Star_Grid_3.jpg,right,375.5799999926239,true,high,false
EaSBmeC2,3y7ltze0zwz7ft0pae7k34mi28juzv,30og32w0syoywsne8smntjpxs21en4,EaSBmeC2,2020-0188,2020-05-21,12:31:12,12:47:42,NA,incomplete,89,color,1,right,Purple_Star_Grid_3.jpg,Green_Circle_Grid_4.jpg,Purple_Triangle_Dots_2.jpg,right,404.3200000014622,true,high,false
EaSBmeC2,3y7ltze0zwz7ft0pae7k34mi28juzv,30og32w0syoywsne8smntjpxs21en4,EaSBmeC2,2020-0188,2020-05-21,12:31:12,12:47:42,NA,incomplete,90,filling,1,right,Red_Circle_Dots_3.jpg,Red_Star_Grid_4.jpg,Green_Triangle_Dots_2.jpg,left,381.8650000030175,false,high,false
EaSBmeC2,3y7ltze0zwz7ft0pae7k34mi28juzv,30og32w0syoywsne8smntjpxs21en4,EaSBmeC2,2020-0188,2020-05-21,12:31:12,12:47:42,NA,incomplete,91,filling,1,left,Purple_Plus_Dots_1.jpg,Blue_Triangle_Dots_3.jpg,Purple_Star_Chess_4.jpg,left,586.6349999996601,true,high,false
EaSBmeC2,3y7ltze0zwz7ft0pae7k34mi28juzv,30og32w0syoywsne8smntjpxs21en4,EaSBmeC2,2020-0188,2020-05-21,12:31:12,12:47:42,NA,incomplete,92,filling,0,left,Blue_Circle_Chess_4.jpg,Green_Plus_Chess_2.jpg,Blue_Star_Stripes_1.jpg,left,583.1150000012713,true,high,false
EaSBmeC2,3y7ltze0zwz7ft0pae7k34mi28juzv,30og32w0syoywsne8smntjpxs21en4,EaSBmeC2,2020-0188,2020-05-21,12:31:12,12:47:42,NA,incomplete,93,filling,0,right,Blue_Triangle_Chess_1.jpg,Blue_Plus_Dots_2.jpg,Purple_Circle_Chess_3.jpg,right,555.3000000072643,true,high,false
EaSBmeC2,3y7ltze0zwz7ft0pae7k34mi28juzv,30og32w0syoywsne8smntjpxs21en4,EaSBmeC2,2020-0188,2020-05-21,12:31:12,12:47:42,NA,incomplete,94,filling,0,left,Green_Star_Grid_2.jpg,Red_Circle_Grid_4.jpg,Green_Triangle_Dots_1.jpg,right,418.1949999911012,false,high,false
EaSBmeC2,3y7ltze0zwz7ft0pae7k34mi28juzv,30og32w0syoywsne8smntjpxs21en4,EaSBmeC2,2020-0188,2020-05-21,12:31:12,12:47:42,NA,incomplete,95,filling,1,left,Red_Triangle_Stripes_4.jpg,Purple_Circle_Stripes_3.jpg,Red_Plus_Dots_2.jpg,right,397.4750000052154,false,high,false
EaSBmeC2,3y7ltze0zwz7ft0pae7k34mi28juzv,30og32w0syoywsne8smntjpxs21en4,EaSBmeC2,2020-0188,2020-05-21,12:31:12,12:47:42,NA,incomplete,96,filling,1,right,Red_Plus_Chess_4.jpg,Red_Star_Grid_2.jpg,Green_Circle_Chess_1.jpg,left,469.6899999980815,false,high,false
EaSBmeC2,3y7ltze0zwz7ft0pae7k34mi28juzv,30og32w0syoywsne8smntjpxs21en4,EaSBmeC2,2020-0188,2020-05-21,12:31:12,12:47:42,NA,incomplete,97,filling,1,right,Red_Triangle_Dots_4.jpg,Red_Plus_Grid_2.jpg,Purple_Circle_Dots_1.jpg,right,593.5499999905005,true,high,false
EaSBmeC2,3y7ltze0zwz7ft0pae7k34mi28juzv,30og32w0syoywsne8smntjpxs21en4,EaSBmeC2,2020-0188,2020-05-21,12:31:12,12:47:42,NA,incomplete,98,filling,1,right,Green_Star_Dots_2.jpg,Green_Triangle_Grid_4.jpg,Purple_Circle_Dots_1.jpg,right,574.189999999362,true,high,false
EaSBmeC2,3y7ltze0zwz7ft0pae7k34mi28juzv,30og32w0syoywsne8smntjpxs21en4,EaSBmeC2,2020-0188,2020-05-21,12:31:12,12:47:42,NA,incomplete,99,filling,1,right,Blue_Circle_Grid_4.jpg,Blue_Plus_Chess_1.jpg,Purple_Star_Grid_2.jpg,right,793.2449999934761,true,high,false
EaSBmeC2,3y7ltze0zwz7ft0pae7k34mi28juzv,30og32w0syoywsne8smntjpxs21en4,EaSBmeC2,2020-0188,2020-05-21,12:31:12,12:47:42,NA,incomplete,100,color,1,right,Blue_Circle_Stripes_1.jpg,Purple_Star_Stripes_2.jpg,Blue_Triangle_Chess_4.jpg,left,580.9699999954319,false,high,false
EaSBmeC2,3y7ltze0zwz7ft0pae7k34mi28juzv,30og32w0syoywsne8smntjpxs21en4,EaSBmeC2,2020-0188,2020-05-21,12:31:12,12:47:42,NA,incomplete,101,color,0,right,Red_Plus_Stripes_2.jpg,Green_Triangle_Stripes_3.jpg,Red_Star_Chess_4.jpg,left,648.7199999974109,false,high,false
EaSBmeC2,3y7ltze0zwz7ft0pae7k34mi28juzv,30og32w0syoywsne8smntjpxs21en4,EaSBmeC2,2020-0188,2020-05-21,12:31:12,12:47:42,NA,incomplete,102,color,1,left,Blue_Triangle_Stripes_1.jpg,Blue_Plus_Grid_3.jpg,Red_Circle_Stripes_2.jpg,right,606.7049999983283,false,high,false
EaSBmeC2,3y7ltze0zwz7ft0pae7k34mi28juzv,30og32w0syoywsne8smntjpxs21en4,EaSBmeC2,2020-0188,2020-05-21,12:31:12,12:47:42,NA,incomplete,103,color,1,left,Blue_Circle_Grid_1.jpg,Blue_Star_Chess_4.jpg,Green_Triangle_Grid_2.jpg,left,646.7899999988731,true,high,false
EaSBmeC2,3y7ltze0zwz7ft0pae7k34mi28juzv,30og32w0syoywsne8smntjpxs21en4,EaSBmeC2,2020-0188,2020-05-21,12:31:12,12:47:42,NA,incomplete,104,color,1,right,Green_Triangle_Dots_4.jpg,Blue_Plus_Dots_1.jpg,Green_Circle_Stripes_2.jpg,left,637.3450000101002,false,high,false
EaSBmeC2,3y7ltze0zwz7ft0pae7k34mi28juzv,30og32w0syoywsne8smntjpxs21en4,EaSBmeC2,2020-0188,2020-05-21,12:31:12,12:47:42,NA,incomplete,105,color,1,right,Red_Star_Grid_2.jpg,Blue_Triangle_Grid_3.jpg,Red_Plus_Stripes_1.jpg,right,640.9649999986868,true,high,false
EaSBmeC2,3y7ltze0zwz7ft0pae7k34mi28juzv,30og32w0syoywsne8smntjpxs21en4,EaSBmeC2,2020-0188,2020-05-21,12:31:12,12:47:42,NA,incomplete,106,color,1,left,Blue_Star_Dots_4.jpg,Blue_Circle_Stripes_1.jpg,Red_Triangle_Dots_2.jpg,left,518.1200000079116,true,high,false
EaSBmeC2,3y7ltze0zwz7ft0pae7k34mi28juzv,30og32w0syoywsne8smntjpxs21en4,EaSBmeC2,2020-0188,2020-05-21,12:31:12,12:47:42,NA,incomplete,107,color,1,right,Green_Triangle_Stripes_3.jpg,Blue_Circle_Stripes_2.jpg,Green_Star_Grid_4.jpg,right,376.15999999979977,true,high,false
EaSBmeC2,3y7ltze0zwz7ft0pae7k34mi28juzv,30og32w0syoywsne8smntjpxs21en4,EaSBmeC2,2020-0188,2020-05-21,12:31:12,12:47:42,NA,incomplete,108,color,1,left,Purple_Circle_Dots_1.jpg,Purple_Triangle_Stripes_2.jpg,Red_Plus_Dots_4.jpg,left,389.3099999986589,true,high,false
EaSBmeC2,3y7ltze0zwz7ft0pae7k34mi28juzv,30og32w0syoywsne8smntjpxs21en4,EaSBmeC2,2020-0188,2020-05-21,12:31:12,12:47:42,NA,incomplete,109,color,1,right,Green_Star_Dots_2.jpg,Blue_Triangle_Dots_1.jpg,Green_Plus_Stripes_3.jpg,right,1276.834999996936,true,high,false
EaSBmeC2,3y7ltze0zwz7ft0pae7k34mi28juzv,30og32w0syoywsne8smntjpxs21en4,EaSBmeC2,2020-0188,2020-05-21,12:31:12,12:47:42,NA,incomplete,110,filling,1,right,Red_Plus_Dots_3.jpg,Red_Star_Grid_1.jpg,Purple_Triangle_Dots_2.jpg,left,377.6250000082655,false,high,false
EaSBmeC2,3y7ltze0zwz7ft0pae7k34mi28juzv,30og32w0syoywsne8smntjpxs21en4,EaSBmeC2,2020-0188,2020-05-21,12:31:12,12:47:42,NA,incomplete,111,filling,0,left,Blue_Circle_Grid_2.jpg,Green_Star_Grid_4.jpg,Blue_Plus_Chess_3.jpg,left,670.7250000035856,true,high,false
EaSBmeC2,3y7ltze0zwz7ft0pae7k34mi28juzv,30og32w0syoywsne8smntjpxs21en4,EaSBmeC2,2020-0188,2020-05-21,12:31:12,12:47:42,NA,incomplete,112,filling,1,right,Purple_Plus_Grid_3.jpg,Purple_Circle_Chess_4.jpg,Red_Triangle_Grid_2.jpg,left,391.9599999935599,false,high,false
EaSBmeC2,3y7ltze0zwz7ft0pae7k34mi28juzv,30og32w0syoywsne8smntjpxs21en4,EaSBmeC2,2020-0188,2020-05-21,12:31:12,12:47:42,NA,incomplete,113,filling,1,left,Blue_Star_Dots_1.jpg,Purple_Plus_Dots_3.jpg,Blue_Circle_Chess_4.jpg,left,639.1299999959301,true,high,false
EaSBmeC2,3y7ltze0zwz7ft0pae7k34mi28juzv,30og32w0syoywsne8smntjpxs21en4,EaSBmeC2,2020-0188,2020-05-21,12:31:12,12:47:42,NA,incomplete,114,filling,1,left,Blue_Star_Grid_2.jpg,Purple_Triangle_Grid_4.jpg,Blue_Plus_Dots_3.jpg,right,636.5649999934249,false,high,false
EaSBmeC2,3y7ltze0zwz7ft0pae7k34mi28juzv,30og32w0syoywsne8smntjpxs21en4,EaSBmeC2,2020-0188,2020-05-21,12:31:12,12:47:42,NA,incomplete,115,filling,1,right,Red_Triangle_Stripes_4.jpg,Red_Plus_Grid_1.jpg,Purple_Star_Stripes_3.jpg,left,616.2699999986216,false,high,false
EaSBmeC2,3y7ltze0zwz7ft0pae7k34mi28juzv,30og32w0syoywsne8smntjpxs21en4,EaSBmeC2,2020-0188,2020-05-21,12:31:12,12:47:42,NA,incomplete,116,filling,0,right,Red_Triangle_Stripes_1.jpg,Red_Plus_Dots_4.jpg,Blue_Star_Stripes_3.jpg,left,761.2349999981234,false,high,false
EaSBmeC2,3y7ltze0zwz7ft0pae7k34mi28juzv,30og32w0syoywsne8smntjpxs21en4,EaSBmeC2,2020-0188,2020-05-21,12:31:12,12:47:42,NA,incomplete,117,filling,1,left,Red_Plus_Dots_2.jpg,Blue_Triangle_Dots_4.jpg,Red_Circle_Stripes_3.jpg,left,480.21500000322703,true,high,false
EaSBmeC2,3y7ltze0zwz7ft0pae7k34mi28juzv,30og32w0syoywsne8smntjpxs21en4,EaSBmeC2,2020-0188,2020-05-21,12:31:12,12:47:42,NA,incomplete,118,filling,1,left,Blue_Plus_Stripes_1.jpg,Purple_Star_Stripes_2.jpg,Blue_Circle_Chess_3.jpg,left,637.0800000004238,true,high,false
EaSBmeC2,3y7ltze0zwz7ft0pae7k34mi28juzv,30og32w0syoywsne8smntjpxs21en4,EaSBmeC2,2020-0188,2020-05-21,12:31:12,12:47:42,NA,incomplete,119,filling,1,right,Purple_Circle_Grid_3.jpg,Purple_Star_Dots_4.jpg,Green_Triangle_Grid_1.jpg,right,641.5850000048522,true,high,false
EaSBmeC2,3y7ltze0zwz7ft0pae7k34mi28juzv,30og32w0syoywsne8smntjpxs21en4,EaSBmeC2,2020-0188,2020-05-21,12:31:12,12:47:42,NA,incomplete,120,shape,1,left,Red_Circle_Chess_3.jpg,Green_Circle_Stripes_1.jpg,Blue_Star_Grid_3.jpg,NA,NA,NA,high,false
EaSBmeC2,3y7ltze0zwz7ft0pae7k34mi28juzv,30og32w0syoywsne8smntjpxs21en4,EaSBmeC2,2020-0188,2020-05-21,12:31:12,12:47:42,NA,incomplete,121,shape,1,left,Red_Plus_Chess_4.jpg,Purple_Plus_Grid_2.jpg,Blue_Triangle_Dots_4.jpg,right,674.8850000003586,false,high,false
EaSBmeC2,3y7ltze0zwz7ft0pae7k34mi28juzv,30og32w0syoywsne8smntjpxs21en4,EaSBmeC2,2020-0188,2020-05-21,12:31:12,12:47:42,NA,incomplete,122,shape,1,left,Blue_Circle_Stripes_2.jpg,Red_Circle_Chess_1.jpg,Green_Triangle_Dots_2.jpg,right,804.4300000037765,false,high,false
EaSBmeC2,3y7ltze0zwz7ft0pae7k34mi28juzv,30og32w0syoywsne8smntjpxs21en4,EaSBmeC2,2020-0188,2020-05-21,12:31:12,12:47:42,NA,incomplete,123,shape,1,left,Purple_Triangle_Chess_3.jpg,Blue_Triangle_Stripes_2.jpg,Green_Star_Grid_3.jpg,left,1098.5799999907613,true,high,false
EaSBmeC2,3y7ltze0zwz7ft0pae7k34mi28juzv,30og32w0syoywsne8smntjpxs21en4,EaSBmeC2,2020-0188,2020-05-21,12:31:12,12:47:42,NA,incomplete,124,shape,0,left,Red_Plus_Dots_4.jpg,Blue_Plus_Grid_2.jpg,Purple_Triangle_Chess_4.jpg,left,708.9450000057695,true,high,false
EaSBmeC2,3y7ltze0zwz7ft0pae7k34mi28juzv,30og32w0syoywsne8smntjpxs21en4,EaSBmeC2,2020-0188,2020-05-21,12:31:12,12:47:42,NA,incomplete,125,shape,1,right,Green_Circle_Grid_1.jpg,Red_Star_Stripes_1.jpg,Blue_Circle_Chess_3.jpg,right,588.9249999891035,true,high,false
EaSBmeC2,3y7ltze0zwz7ft0pae7k34mi28juzv,30og32w0syoywsne8smntjpxs21en4,EaSBmeC2,2020-0188,2020-05-21,12:31:12,12:47:42,NA,incomplete,126,shape,1,right,Red_Triangle_Grid_3.jpg,Green_Circle_Dots_3.jpg,Blue_Triangle_Stripes_2.jpg,right,513.5100000043167,true,high,false
EaSBmeC2,3y7ltze0zwz7ft0pae7k34mi28juzv,30og32w0syoywsne8smntjpxs21en4,EaSBmeC2,2020-0188,2020-05-21,12:31:12,12:47:42,NA,incomplete,127,shape,1,left,Red_Star_Grid_4.jpg,Purple_Star_Stripes_3.jpg,Green_Triangle_Chess_4.jpg,left,538.2650000101421,true,high,false
EaSBmeC2,3y7ltze0zwz7ft0pae7k34mi28juzv,30og32w0syoywsne8smntjpxs21en4,EaSBmeC2,2020-0188,2020-05-21,12:31:12,12:47:42,NA,incomplete,128,shape,1,right,Green_Star_Dots_4.jpg,Blue_Circle_Stripes_4.jpg,Red_Star_Chess_1.jpg,right,511.9099999865284,true,high,false
EaSBmeC2,3y7ltze0zwz7ft0pae7k34mi28juzv,30og32w0syoywsne8smntjpxs21en4,EaSBmeC2,2020-0188,2020-05-21,12:31:12,12:47:42,NA,incomplete,129,shape,1,right,Blue_Plus_Dots_4.jpg,Green_Star_Chess_4.jpg,Purple_Plus_Stripes_2.jpg,right,705.5300000065472,true,high,false
EaSBmeC2,3y7ltze0zwz7ft0pae7k34mi28juzv,30og32w0syoywsne8smntjpxs21en4,EaSBmeC2,2020-0188,2020-05-21,12:31:12,12:47:42,NA,incomplete,130,shape,1,left,Blue_Plus_Chess_1.jpg,Green_Plus_Grid_3.jpg,Red_Star_Dots_1.jpg,left,553.1649999902584,true,high,false
EaSBmeC2,3y7ltze0zwz7ft0pae7k34mi28juzv,30og32w0syoywsne8smntjpxs21en4,EaSBmeC2,2020-0188,2020-05-21,12:31:12,12:47:42,NA,incomplete,131,shape,1,left,Purple_Triangle_Stripes_2.jpg,Red_Triangle_Grid_4.jpg,Blue_Plus_Chess_2.jpg,left,550.9100000053877,true,high,false
EaSBmeC2,3y7ltze0zwz7ft0pae7k34mi28juzv,30og32w0syoywsne8smntjpxs21en4,EaSBmeC2,2020-0188,2020-05-21,12:31:12,12:47:42,NA,incomplete,132,shape,1,right,Purple_Plus_Grid_2.jpg,Green_Circle_Stripes_2.jpg,Red_Plus_Chess_4.jpg,right,542.3600000067381,true,high,false
EaSBmeC2,3y7ltze0zwz7ft0pae7k34mi28juzv,30og32w0syoywsne8smntjpxs21en4,EaSBmeC2,2020-0188,2020-05-21,12:31:12,12:47:42,NA,incomplete,133,shape,0,right,Green_Plus_Chess_3.jpg,Red_Triangle_Grid_3.jpg,Purple_Plus_Dots_1.jpg,right,580.2499999990687,true,high,false
EaSBmeC2,3y7ltze0zwz7ft0pae7k34mi28juzv,30og32w0syoywsne8smntjpxs21en4,EaSBmeC2,2020-0188,2020-05-21,12:31:12,12:47:42,NA,incomplete,134,shape,1,right,Purple_Triangle_Grid_3.jpg,Blue_Plus_Chess_3.jpg,Red_Triangle_Stripes_1.jpg,left,585.0099999952363,false,high,false
EaSBmeC2,3y7ltze0zwz7ft0pae7k34mi28juzv,30og32w0syoywsne8smntjpxs21en4,EaSBmeC2,2020-0188,2020-05-21,12:31:12,12:47:42,NA,incomplete,135,shape,0,right,Blue_Triangle_Stripes_4.jpg,Purple_Circle_Dots_4.jpg,Red_Triangle_Chess_1.jpg,right,565.1199999992969,true,high,false
EaSBmeC2,3y7ltze0zwz7ft0pae7k34mi28juzv,30og32w0syoywsne8smntjpxs21en4,EaSBmeC2,2020-0188,2020-05-21,12:31:12,12:47:42,NA,incomplete,136,shape,1,left,Blue_Triangle_Stripes_4.jpg,Green_Triangle_Grid_1.jpg,Red_Plus_Dots_4.jpg,left,630.5350000038743,true,high,false
EaSBmeC2,3y7ltze0zwz7ft0pae7k34mi28juzv,30og32w0syoywsne8smntjpxs21en4,EaSBmeC2,2020-0188,2020-05-21,12:31:12,12:47:42,NA,incomplete,137,shape,1,right,Green_Triangle_Chess_4.jpg,Red_Circle_Dots_4.jpg,Blue_Triangle_Grid_2.jpg,right,489.67500000435393,true,high,false
EaSBmeC2,3y7ltze0zwz7ft0pae7k34mi28juzv,30og32w0syoywsne8smntjpxs21en4,EaSBmeC2,2020-0188,2020-05-21,12:31:12,12:47:42,NA,incomplete,138,shape,1,left,Red_Plus_Grid_2.jpg,Blue_Plus_Dots_4.jpg,Purple_Circle_Chess_2.jpg,left,575.5150000040885,true,high,false
EaSBmeC2,3y7ltze0zwz7ft0pae7k34mi28juzv,30og32w0syoywsne8smntjpxs21en4,EaSBmeC2,2020-0188,2020-05-21,12:31:12,12:47:42,NA,incomplete,139,shape,1,left,Green_Circle_Grid_1.jpg,Blue_Circle_Dots_2.jpg,Red_Plus_Chess_1.jpg,left,466.6049999941606,true,high,false
EaSBmeC2,3y7ltze0zwz7ft0pae7k34mi28juzv,30og32w0syoywsne8smntjpxs21en4,EaSBmeC2,2020-0188,2020-05-21,12:31:12,12:47:42,NA,incomplete,140,number,1,right,Purple_Star_Chess_3.jpg,Green_Star_Dots_1.jpg,Blue_Triangle_Grid_3.jpg,left,516.7899999942165,false,high,false
EaSBmeC2,3y7ltze0zwz7ft0pae7k34mi28juzv,30og32w0syoywsne8smntjpxs21en4,EaSBmeC2,2020-0188,2020-05-21,12:31:12,12:47:42,NA,incomplete,141,number,1,left,Purple_Plus_Dots_1.jpg,Blue_Star_Stripes_1.jpg,Red_Plus_Chess_4.jpg,right,943.2249999954365,false,high,false
EaSBmeC2,3y7ltze0zwz7ft0pae7k34mi28juzv,30og32w0syoywsne8smntjpxs21en4,EaSBmeC2,2020-0188,2020-05-21,12:31:12,12:47:42,NA,incomplete,142,number,1,right,Purple_Triangle_Stripes_2.jpg,Red_Triangle_Grid_4.jpg,Blue_Star_Chess_2.jpg,right,617.4949999985984,true,high,false
EaSBmeC2,3y7ltze0zwz7ft0pae7k34mi28juzv,30og32w0syoywsne8smntjpxs21en4,EaSBmeC2,2020-0188,2020-05-21,12:31:12,12:47:42,NA,incomplete,143,number,1,right,Purple_Star_Chess_3.jpg,Red_Star_Dots_2.jpg,Green_Circle_Grid_3.jpg,right,554.3500000057975,true,high,false
EaSBmeC2,3y7ltze0zwz7ft0pae7k34mi28juzv,30og32w0syoywsne8smntjpxs21en4,EaSBmeC2,2020-0188,2020-05-21,12:31:12,12:47:42,NA,incomplete,144,number,0,right,Green_Triangle_Grid_3.jpg,Blue_Triangle_Chess_2.jpg,Purple_Circle_Dots_3.jpg,right,570.1950000075158,true,high,false
EaSBmeC2,3y7ltze0zwz7ft0pae7k34mi28juzv,30og32w0syoywsne8smntjpxs21en4,EaSBmeC2,2020-0188,2020-05-21,12:31:12,12:47:42,NA,incomplete,145,number,1,left,Blue_Star_Stripes_4.jpg,Green_Plus_Grid_4.jpg,Red_Star_Dots_3.jpg,right,516.2899999995716,false,high,false
EaSBmeC2,3y7ltze0zwz7ft0pae7k34mi28juzv,30og32w0syoywsne8smntjpxs21en4,EaSBmeC2,2020-0188,2020-05-21,12:31:12,12:47:42,NA,incomplete,146,number,0,left,Blue_Circle_Stripes_3.jpg,Purple_Plus_Chess_3.jpg,Green_Circle_Grid_1.jpg,right,542.5249999971129,false,high,false
EaSBmeC2,3y7ltze0zwz7ft0pae7k34mi28juzv,30og32w0syoywsne8smntjpxs21en4,EaSBmeC2,2020-0188,2020-05-21,12:31:12,12:47:42,NA,incomplete,147,number,1,left,Red_Plus_Chess_2.jpg,Green_Star_Grid_2.jpg,Blue_Plus_Dots_4.jpg,right,660.7650000078138,false,high,false
EaSBmeC2,3y7ltze0zwz7ft0pae7k34mi28juzv,30og32w0syoywsne8smntjpxs21en4,EaSBmeC2,2020-0188,2020-05-21,12:31:12,12:47:42,NA,incomplete,148,number,1,right,Red_Star_Dots_3.jpg,Green_Star_Chess_2.jpg,Blue_Circle_Grid_3.jpg,left,581.0349999956088,false,high,false
EaSBmeC2,3y7ltze0zwz7ft0pae7k34mi28juzv,30og32w0syoywsne8smntjpxs21en4,EaSBmeC2,2020-0188,2020-05-21,12:31:12,12:47:42,NA,incomplete,149,number,0,left,Blue_Plus_Stripes_2.jpg,Purple_Circle_Chess_2.jpg,Green_Plus_Dots_4.jpg,left,833.0050000076881,true,high,false
EaSBmeC2,3y7ltze0zwz7ft0pae7k34mi28juzv,30og32w0syoywsne8smntjpxs21en4,EaSBmeC2,2020-0188,2020-05-21,12:31:12,12:47:42,NA,incomplete,150,number,1,right,Red_Circle_Dots_1.jpg,Blue_Circle_Chess_3.jpg,Purple_Star_Stripes_1.jpg,left,674.1299999994226,false,high,false
EaSBmeC2,3y7ltze0zwz7ft0pae7k34mi28juzv,30og32w0syoywsne8smntjpxs21en4,EaSBmeC2,2020-0188,2020-05-21,12:31:12,12:47:42,NA,incomplete,151,number,1,right,Green_Star_Chess_4.jpg,Red_Star_Grid_3.jpg,Blue_Plus_Stripes_4.jpg,right,707.5849999964703,true,high,false
EaSBmeC2,3y7ltze0zwz7ft0pae7k34mi28juzv,30og32w0syoywsne8smntjpxs21en4,EaSBmeC2,2020-0188,2020-05-21,12:31:12,12:47:42,NA,incomplete,152,number,1,right,Green_Triangle_Grid_4.jpg,Purple_Triangle_Dots_3.jpg,Blue_Circle_Chess_4.jpg,right,714.1599999886239,true,high,false
EaSBmeC2,3y7ltze0zwz7ft0pae7k34mi28juzv,30og32w0syoywsne8smntjpxs21en4,EaSBmeC2,2020-0188,2020-05-21,12:31:12,12:47:42,NA,incomplete,153,number,1,left,Red_Star_Dots_4.jpg,Green_Triangle_Chess_4.jpg,Blue_Star_Grid_3.jpg,left,609.8900000069989,true,high,false
EaSBmeC2,3y7ltze0zwz7ft0pae7k34mi28juzv,30og32w0syoywsne8smntjpxs21en4,EaSBmeC2,2020-0188,2020-05-21,12:31:12,12:47:42,NA,incomplete,154,number,1,left,Blue_Circle_Dots_1.jpg,Purple_Triangle_Stripes_1.jpg,Red_Circle_Chess_3.jpg,left,578.4649999986868,true,high,false
EaSBmeC2,3y7ltze0zwz7ft0pae7k34mi28juzv,30og32w0syoywsne8smntjpxs21en4,EaSBmeC2,2020-0188,2020-05-21,12:31:12,12:47:42,NA,incomplete,155,number,1,left,Purple_Plus_Stripes_4.jpg,Green_Triangle_Grid_4.jpg,Red_Plus_Chess_1.jpg,left,533.3550000068499,true,high,false
EaSBmeC2,3y7ltze0zwz7ft0pae7k34mi28juzv,30og32w0syoywsne8smntjpxs21en4,EaSBmeC2,2020-0188,2020-05-21,12:31:12,12:47:42,NA,incomplete,156,number,1,right,Green_Circle_Grid_3.jpg,Red_Circle_Dots_4.jpg,Purple_Plus_Chess_3.jpg,right,633.7700000003679,true,high,false
EaSBmeC2,3y7ltze0zwz7ft0pae7k34mi28juzv,30og32w0syoywsne8smntjpxs21en4,EaSBmeC2,2020-0188,2020-05-21,12:31:12,12:47:42,NA,incomplete,157,number,1,left,Purple_Star_Grid_3.jpg,Blue_Circle_Dots_3.jpg,Red_Star_Chess_4.jpg,right,637.7599999977974,false,high,false
EaSBmeC2,3y7ltze0zwz7ft0pae7k34mi28juzv,30og32w0syoywsne8smntjpxs21en4,EaSBmeC2,2020-0188,2020-05-21,12:31:12,12:47:42,NA,incomplete,158,number,1,left,Green_Circle_Dots_3.jpg,Blue_Plus_Grid_3.jpg,Purple_Circle_Stripes_4.jpg,left,561.824999997043,true,high,false
EaSBmeC2,3y7ltze0zwz7ft0pae7k34mi28juzv,30og32w0syoywsne8smntjpxs21en4,EaSBmeC2,2020-0188,2020-05-21,12:31:12,12:47:42,NA,incomplete,159,number,1,right,Purple_Triangle_Stripes_4.jpg,Green_Triangle_Dots_1.jpg,Blue_Plus_Chess_4.jpg,right,466.87000000383705,true,high,false
EaSBmeC2,3y7ltze0zwz7ft0pae7k34mi28juzv,30og32w0syoywsne8smntjpxs21en4,EaSBmeC2,2020-0188,2020-05-21,12:31:12,12:47:42,NA,incomplete,160,shape,1,right,Blue_Triangle_Grid_1.jpg,Purple_Star_Stripes_1.jpg,Red_Triangle_Dots_2.jpg,left,596.7900000105146,false,high,false
EaSBmeC2,3y7ltze0zwz7ft0pae7k34mi28juzv,30og32w0syoywsne8smntjpxs21en4,EaSBmeC2,2020-0188,2020-05-21,12:31:12,12:47:42,NA,incomplete,161,shape,1,right,Purple_Triangle_Stripes_4.jpg,Blue_Star_Chess_4.jpg,Red_Triangle_Grid_2.jpg,left,722.7050000074087,false,high,false
EaSBmeC2,3y7ltze0zwz7ft0pae7k34mi28juzv,30og32w0syoywsne8smntjpxs21en4,EaSBmeC2,2020-0188,2020-05-21,12:31:12,12:47:42,NA,incomplete,162,shape,1,left,Green_Star_Dots_1.jpg,Blue_Star_Stripes_4.jpg,Red_Triangle_Grid_1.jpg,left,572.4800000025425,true,high,false
EaSBmeC2,3y7ltze0zwz7ft0pae7k34mi28juzv,30og32w0syoywsne8smntjpxs21en4,EaSBmeC2,2020-0188,2020-05-21,12:31:12,12:47:42,NA,incomplete,163,shape,0,left,Blue_Triangle_Stripes_2.jpg,Green_Triangle_Dots_3.jpg,Purple_Circle_Chess_2.jpg,right,622.7450000005774,false,high,false
EaSBmeC2,3y7ltze0zwz7ft0pae7k34mi28juzv,30og32w0syoywsne8smntjpxs21en4,EaSBmeC2,2020-0188,2020-05-21,12:31:12,12:47:42,NA,incomplete,164,shape,1,right,Red_Plus_Stripes_2.jpg,Blue_Star_Dots_2.jpg,Purple_Plus_Grid_3.jpg,left,465.63000000605825,false,high,false
EaSBmeC2,3y7ltze0zwz7ft0pae7k34mi28juzv,30og32w0syoywsne8smntjpxs21en4,EaSBmeC2,2020-0188,2020-05-21,12:31:12,12:47:42,NA,incomplete,165,shape,1,right,Red_Plus_Grid_4.jpg,Purple_Star_Dots_4.jpg,Green_Plus_Chess_1.jpg,left,459.7500000090804,false,high,false
EaSBmeC2,3y7ltze0zwz7ft0pae7k34mi28juzv,30og32w0syoywsne8smntjpxs21en4,EaSBmeC2,2020-0188,2020-05-21,12:31:12,12:47:42,NA,incomplete,166,shape,0,right,Red_Star_Chess_2.jpg,Green_Plus_Stripes_2.jpg,Purple_Star_Grid_4.jpg,left,597.3999999987427,false,high,false
EaSBmeC2,3y7ltze0zwz7ft0pae7k34mi28juzv,30og32w0syoywsne8smntjpxs21en4,EaSBmeC2,2020-0188,2020-05-21,12:31:12,12:47:42,NA,incomplete,167,shape,1,left,Purple_Star_Stripes_2.jpg,Green_Star_Grid_4.jpg,Red_Circle_Chess_2.jpg,right,602.4849999957951,false,high,false
EaSBmeC2,3y7ltze0zwz7ft0pae7k34mi28juzv,30og32w0syoywsne8smntjpxs21en4,EaSBmeC2,2020-0188,2020-05-21,12:31:12,12:47:42,NA,incomplete,168,shape,1,right,Green_Star_Stripes_1.jpg,Red_Plus_Grid_1.jpg,Blue_Star_Chess_4.jpg,left,593.8850000093225,false,high,false
EaSBmeC2,3y7ltze0zwz7ft0pae7k34mi28juzv,30og32w0syoywsne8smntjpxs21en4,EaSBmeC2,2020-0188,2020-05-21,12:31:12,12:47:42,NA,incomplete,169,shape,1,left,Purple_Plus_Stripes_4.jpg,Blue_Plus_Chess_2.jpg,Green_Star_Grid_4.jpg,right,616.1649999994552,false,high,false
EaSBmeC2,3y7ltze0zwz7ft0pae7k34mi28juzv,30og32w0syoywsne8smntjpxs21en4,EaSBmeC2,2020-0188,2020-05-21,12:31:12,12:47:42,NA,incomplete,170,shape,0,right,Green_Triangle_Chess_4.jpg,Blue_Circle_Dots_4.jpg,Purple_Triangle_Grid_3.jpg,right,608.5349999921164,true,high,false
EaSBmeC2,3y7ltze0zwz7ft0pae7k34mi28juzv,30og32w0syoywsne8smntjpxs21en4,EaSBmeC2,2020-0188,2020-05-21,12:31:12,12:47:42,NA,incomplete,171,shape,1,right,Green_Plus_Grid_2.jpg,Red_Circle_Stripes_2.jpg,Blue_Plus_Dots_4.jpg,left,480.40000000037253,false,high,false
EaSBmeC2,3y7ltze0zwz7ft0pae7k34mi28juzv,30og32w0syoywsne8smntjpxs21en4,EaSBmeC2,2020-0188,2020-05-21,12:31:12,12:47:42,NA,incomplete,172,shape,1,right,Blue_Circle_Stripes_1.jpg,Purple_Star_Dots_1.jpg,Red_Circle_Chess_4.jpg,left,509.3150000029709,false,high,false
EaSBmeC2,3y7ltze0zwz7ft0pae7k34mi28juzv,30og32w0syoywsne8smntjpxs21en4,EaSBmeC2,2020-0188,2020-05-21,12:31:12,12:47:42,NA,incomplete,173,shape,1,left,Green_Star_Grid_4.jpg,Purple_Star_Stripes_1.jpg,Red_Circle_Chess_4.jpg,left,630.2849999919999,true,high,false
EaSBmeC2,3y7ltze0zwz7ft0pae7k34mi28juzv,30og32w0syoywsne8smntjpxs21en4,EaSBmeC2,2020-0188,2020-05-21,12:31:12,12:47:42,NA,incomplete,174,shape,0,right,Green_Circle_Dots_4.jpg,Purple_Plus_Stripes_4.jpg,Red_Circle_Chess_1.jpg,right,505.92999999935273,true,high,false
EaSBmeC2,3y7ltze0zwz7ft0pae7k34mi28juzv,30og32w0syoywsne8smntjpxs21en4,EaSBmeC2,2020-0188,2020-05-21,12:31:12,12:47:42,NA,incomplete,175,shape,1,left,Green_Plus_Dots_4.jpg,Red_Plus_Grid_2.jpg,Blue_Star_Chess_4.jpg,right,473.2349999976577,false,high,false
EaSBmeC2,3y7ltze0zwz7ft0pae7k34mi28juzv,30og32w0syoywsne8smntjpxs21en4,EaSBmeC2,2020-0188,2020-05-21,12:31:12,12:47:42,NA,incomplete,176,shape,1,left,Green_Plus_Dots_3.jpg,Red_Plus_Grid_1.jpg,Blue_Star_Stripes_3.jpg,right,37.079999994602986,false,high,false
EaSBmeC2,3y7ltze0zwz7ft0pae7k34mi28juzv,30og32w0syoywsne8smntjpxs21en4,EaSBmeC2,2020-0188,2020-05-21,12:31:12,12:47:42,NA,incomplete,177,shape,1,right,Purple_Triangle_Chess_1.jpg,Red_Circle_Grid_1.jpg,Green_Triangle_Stripes_3.jpg,right,326.4400000043679,true,high,false
EaSBmeC2,3y7ltze0zwz7ft0pae7k34mi28juzv,30og32w0syoywsne8smntjpxs21en4,EaSBmeC2,2020-0188,2020-05-21,12:31:12,12:47:42,NA,incomplete,178,shape,1,left,Green_Star_Stripes_3.jpg,Purple_Star_Chess_1.jpg,Red_Circle_Grid_3.jpg,right,554.0399999881629,false,high,false
EaSBmeC2,3y7ltze0zwz7ft0pae7k34mi28juzv,30og32w0syoywsne8smntjpxs21en4,EaSBmeC2,2020-0188,2020-05-21,12:31:12,12:47:42,NA,incomplete,179,shape,1,left,Green_Circle_Grid_1.jpg,Purple_Circle_Stripes_4.jpg,Red_Plus_Dots_1.jpg,left,618.6900000029709,true,high,false
EaSBmeC2,3y7ltze0zwz7ft0pae7k34mi28juzv,30og32w0syoywsne8smntjpxs21en4,EaSBmeC2,2020-0188,2020-05-21,12:31:12,12:47:42,NA,incomplete,180,number,0,right,Red_Circle_Grid_1.jpg,Green_Circle_Stripes_3.jpg,Blue_Triangle_Chess_1.jpg,right,676.7699999909382,true,high,false
EaSBmeC2,3y7ltze0zwz7ft0pae7k34mi28juzv,30og32w0syoywsne8smntjpxs21en4,EaSBmeC2,2020-0188,2020-05-21,12:31:12,12:47:42,NA,incomplete,181,number,1,right,Red_Star_Dots_1.jpg,Blue_Star_Stripes_3.jpg,Purple_Plus_Chess_1.jpg,left,510.2750000078231,false,high,false
EaSBmeC2,3y7ltze0zwz7ft0pae7k34mi28juzv,30og32w0syoywsne8smntjpxs21en4,EaSBmeC2,2020-0188,2020-05-21,12:31:12,12:47:42,NA,incomplete,182,number,1,left,Blue_Circle_Chess_4.jpg,Red_Plus_Dots_4.jpg,Green_Circle_Stripes_3.jpg,left,743.4650000068359,true,high,false
EaSBmeC2,3y7ltze0zwz7ft0pae7k34mi28juzv,30og32w0syoywsne8smntjpxs21en4,EaSBmeC2,2020-0188,2020-05-21,12:31:12,12:47:42,NA,incomplete,183,number,1,left,Green_Plus_Stripes_4.jpg,Purple_Triangle_Dots_4.jpg,Red_Plus_Grid_1.jpg,left,468.7300000077812,true,high,false
EaSBmeC2,3y7ltze0zwz7ft0pae7k34mi28juzv,30og32w0syoywsne8smntjpxs21en4,EaSBmeC2,2020-0188,2020-05-21,12:31:12,12:47:42,NA,incomplete,184,number,1,right,Purple_Circle_Grid_3.jpg,Blue_Circle_Stripes_1.jpg,Green_Triangle_Chess_3.jpg,right,487.4450000061188,true,high,false
EaSBmeC2,3y7ltze0zwz7ft0pae7k34mi28juzv,30og32w0syoywsne8smntjpxs21en4,EaSBmeC2,2020-0188,2020-05-21,12:31:12,12:47:42,NA,incomplete,185,number,1,left,Purple_Plus_Stripes_4.jpg,Blue_Star_Dots_4.jpg,Green_Plus_Chess_2.jpg,left,446.24999999359716,true,high,false
EaSBmeC2,3y7ltze0zwz7ft0pae7k34mi28juzv,30og32w0syoywsne8smntjpxs21en4,EaSBmeC2,2020-0188,2020-05-21,12:31:12,12:47:42,NA,incomplete,186,number,1,left,Green_Star_Grid_4.jpg,Blue_Circle_Dots_4.jpg,Red_Star_Stripes_2.jpg,left,461.154999997234,true,high,false
EaSBmeC2,3y7ltze0zwz7ft0pae7k34mi28juzv,30og32w0syoywsne8smntjpxs21en4,EaSBmeC2,2020-0188,2020-05-21,12:31:12,12:47:42,NA,incomplete,187,number,0,right,Purple_Circle_Stripes_3.jpg,Red_Circle_Chess_4.jpg,Green_Plus_Dots_3.jpg,right,542.7849999978207,true,high,false
EaSBmeC2,3y7ltze0zwz7ft0pae7k34mi28juzv,30og32w0syoywsne8smntjpxs21en4,EaSBmeC2,2020-0188,2020-05-21,12:31:12,12:47:42,NA,incomplete,188,number,1,right,Blue_Star_Dots_2.jpg,Red_Star_Grid_1.jpg,Purple_Plus_Stripes_2.jpg,right,644.8550000059186,true,high,false
EaSBmeC2,3y7ltze0zwz7ft0pae7k34mi28juzv,30og32w0syoywsne8smntjpxs21en4,EaSBmeC2,2020-0188,2020-05-21,12:31:12,12:47:42,NA,incomplete,189,number,1,right,Purple_Plus_Grid_3.jpg,Green_Plus_Chess_2.jpg,Blue_Triangle_Stripes_3.jpg,right,546.4600000123028,true,high,false
EaSBmeC2,3y7ltze0zwz7ft0pae7k34mi28juzv,30og32w0syoywsne8smntjpxs21en4,EaSBmeC2,2020-0188,2020-05-21,12:31:12,12:47:42,NA,incomplete,190,number,0,right,Red_Circle_Grid_3.jpg,Green_Circle_Stripes_1.jpg,Purple_Triangle_Chess_3.jpg,right,400.8599999942817,true,high,false
EaSBmeC2,3y7ltze0zwz7ft0pae7k34mi28juzv,30og32w0syoywsne8smntjpxs21en4,EaSBmeC2,2020-0188,2020-05-21,12:31:12,12:47:42,NA,incomplete,191,number,1,left,Purple_Triangle_Chess_3.jpg,Green_Star_Dots_3.jpg,Blue_Triangle_Grid_4.jpg,left,488.3399999962421,true,high,false
EaSBmeC2,3y7ltze0zwz7ft0pae7k34mi28juzv,30og32w0syoywsne8smntjpxs21en4,EaSBmeC2,2020-0188,2020-05-21,12:31:12,12:47:42,NA,incomplete,192,number,1,left,Red_Star_Chess_2.jpg,Blue_Circle_Dots_2.jpg,Purple_Star_Grid_4.jpg,right,734.3600000021979,false,high,false
EaSBmeC2,3y7ltze0zwz7ft0pae7k34mi28juzv,30og32w0syoywsne8smntjpxs21en4,EaSBmeC2,2020-0188,2020-05-21,12:31:12,12:47:42,NA,incomplete,193,number,0,right,Blue_Star_Stripes_1.jpg,Purple_Star_Chess_4.jpg,Green_Plus_Dots_1.jpg,right,601.3200000015786,true,high,false
EaSBmeC2,3y7ltze0zwz7ft0pae7k34mi28juzv,30og32w0syoywsne8smntjpxs21en4,EaSBmeC2,2020-0188,2020-05-21,12:31:12,12:47:42,NA,incomplete,194,number,1,right,Blue_Plus_Dots_2.jpg,Red_Plus_Chess_3.jpg,Purple_Star_Grid_2.jpg,left,776.1050000117393,false,high,false
EaSBmeC2,3y7ltze0zwz7ft0pae7k34mi28juzv,30og32w0syoywsne8smntjpxs21en4,EaSBmeC2,2020-0188,2020-05-21,12:31:12,12:47:42,NA,incomplete,195,number,1,left,Red_Triangle_Chess_1.jpg,Green_Circle_Dots_1.jpg,Purple_Triangle_Stripes_4.jpg,right,969.8700000008103,false,high,false
EaSBmeC2,3y7ltze0zwz7ft0pae7k34mi28juzv,30og32w0syoywsne8smntjpxs21en4,EaSBmeC2,2020-0188,2020-05-21,12:31:12,12:47:42,NA,incomplete,196,number,1,left,Blue_Plus_Chess_4.jpg,Green_Star_Stripes_4.jpg,Purple_Plus_Grid_2.jpg,left,624.0300000063144,true,high,false
EaSBmeC2,3y7ltze0zwz7ft0pae7k34mi28juzv,30og32w0syoywsne8smntjpxs21en4,EaSBmeC2,2020-0188,2020-05-21,12:31:12,12:47:42,NA,incomplete,197,number,1,right,Red_Circle_Stripes_2.jpg,Blue_Circle_Chess_3.jpg,Green_Triangle_Dots_2.jpg,left,817.9050000035204,false,high,false
EaSBmeC2,3y7ltze0zwz7ft0pae7k34mi28juzv,30og32w0syoywsne8smntjpxs21en4,EaSBmeC2,2020-0188,2020-05-21,12:31:12,12:47:42,NA,incomplete,198,number,0,left,Red_Circle_Dots_3.jpg,Green_Triangle_Stripes_3.jpg,Blue_Circle_Chess_1.jpg,left,537.2349999961443,true,high,false
EaSBmeC2,3y7ltze0zwz7ft0pae7k34mi28juzv,30og32w0syoywsne8smntjpxs21en4,EaSBmeC2,2020-0188,2020-05-21,12:31:12,12:47:42,NA,incomplete,199,number,1,right,Green_Star_Chess_4.jpg,Red_Star_Grid_2.jpg,Blue_Plus_Dots_4.jpg,right,470.7699999999022,true,high,false
EaSBmeC2,3y7ltze0zwz7ft0pae7k34mi28juzv,30og32w0syoywsne8smntjpxs21en4,EaSBmeC2,2020-0188,2020-05-21,12:31:12,12:47:42,NA,incomplete,200,shape,1,left,Red_Star_Chess_4.jpg,Blue_Star_Dots_3.jpg,Purple_Triangle_Grid_4.jpg,left,610.209999998915,true,high,false
EaSBmeC2,3y7ltze0zwz7ft0pae7k34mi28juzv,30og32w0syoywsne8smntjpxs21en4,EaSBmeC2,2020-0188,2020-05-21,12:31:12,12:47:42,NA,incomplete,201,shape,0,right,Blue_Star_Dots_3.jpg,Green_Triangle_Grid_3.jpg,Red_Star_Chess_1.jpg,left,529.3200000014622,false,high,false
EaSBmeC2,3y7ltze0zwz7ft0pae7k34mi28juzv,30og32w0syoywsne8smntjpxs21en4,EaSBmeC2,2020-0188,2020-05-21,12:31:12,12:47:42,NA,incomplete,202,shape,1,left,Purple_Star_Stripes_4.jpg,Green_Star_Dots_2.jpg,Blue_Circle_Chess_4.jpg,right,421.62500000267755,false,high,false
EaSBmeC2,3y7ltze0zwz7ft0pae7k34mi28juzv,30og32w0syoywsne8smntjpxs21en4,EaSBmeC2,2020-0188,2020-05-21,12:31:12,12:47:42,NA,incomplete,203,shape,1,left,Red_Circle_Dots_1.jpg,Blue_Circle_Chess_3.jpg,Purple_Plus_Stripes_1.jpg,left,512.959999992745,true,high,false
EaSBmeC2,3y7ltze0zwz7ft0pae7k34mi28juzv,30og32w0syoywsne8smntjpxs21en4,EaSBmeC2,2020-0188,2020-05-21,12:31:12,12:47:42,NA,incomplete,204,shape,1,left,Green_Circle_Stripes_2.jpg,Blue_Circle_Grid_3.jpg,Purple_Star_Dots_2.jpg,left,482.045000011567,true,high,false
EaSBmeC2,3y7ltze0zwz7ft0pae7k34mi28juzv,30og32w0syoywsne8smntjpxs21en4,EaSBmeC2,2020-0188,2020-05-21,12:31:12,12:47:42,NA,incomplete,205,shape,1,left,Blue_Plus_Dots_3.jpg,Red_Plus_Chess_1.jpg,Purple_Star_Stripes_3.jpg,right,526.8300000025192,false,high,false
EaSBmeC2,3y7ltze0zwz7ft0pae7k34mi28juzv,30og32w0syoywsne8smntjpxs21en4,EaSBmeC2,2020-0188,2020-05-21,12:31:12,12:47:42,NA,incomplete,206,shape,1,left,Green_Triangle_Stripes_2.jpg,Red_Triangle_Dots_4.jpg,Purple_Circle_Chess_2.jpg,right,586.5950000006706,false,high,false
EaSBmeC2,3y7ltze0zwz7ft0pae7k34mi28juzv,30og32w0syoywsne8smntjpxs21en4,EaSBmeC2,2020-0188,2020-05-21,12:31:12,12:47:42,NA,incomplete,207,shape,1,left,Red_Star_Stripes_1.jpg,Purple_Star_Grid_4.jpg,Blue_Circle_Dots_1.jpg,right,662.705000009737,false,high,false
EaSBmeC2,3y7ltze0zwz7ft0pae7k34mi28juzv,30og32w0syoywsne8smntjpxs21en4,EaSBmeC2,2020-0188,2020-05-21,12:31:12,12:47:42,NA,incomplete,208,shape,0,right,Purple_Star_Dots_2.jpg,Green_Triangle_Grid_2.jpg,Red_Star_Chess_1.jpg,right,638.8299999962328,true,high,false
EaSBmeC2,3y7ltze0zwz7ft0pae7k34mi28juzv,30og32w0syoywsne8smntjpxs21en4,EaSBmeC2,2020-0188,2020-05-21,12:31:12,12:47:42,NA,incomplete,209,shape,1,left,Red_Triangle_Dots_3.jpg,Green_Triangle_Grid_1.jpg,Blue_Plus_Chess_3.jpg,right,587.0500000019092,false,high,false
EaSBmeC2,3y7ltze0zwz7ft0pae7k34mi28juzv,30og32w0syoywsne8smntjpxs21en4,EaSBmeC2,2020-0188,2020-05-21,12:31:12,12:47:42,NA,incomplete,210,shape,1,right,Green_Circle_Grid_4.jpg,Purple_Plus_Stripes_4.jpg,Blue_Circle_Chess_1.jpg,left,439.63999999687076,false,high,false
EaSBmeC2,3y7ltze0zwz7ft0pae7k34mi28juzv,30og32w0syoywsne8smntjpxs21en4,EaSBmeC2,2020-0188,2020-05-21,12:31:12,12:47:42,NA,incomplete,211,shape,1,left,Blue_Triangle_Stripes_1.jpg,Green_Triangle_Grid_2.jpg,Red_Star_Chess_1.jpg,right,501.2799999967683,false,high,false
EaSBmeC2,3y7ltze0zwz7ft0pae7k34mi28juzv,30og32w0syoywsne8smntjpxs21en4,EaSBmeC2,2020-0188,2020-05-21,12:31:12,12:47:42,NA,incomplete,212,shape,1,left,Blue_Triangle_Chess_2.jpg,Red_Triangle_Dots_3.jpg,Green_Star_Grid_2.jpg,right,438.28500001109205,false,high,false
EaSBmeC2,3y7ltze0zwz7ft0pae7k34mi28juzv,30og32w0syoywsne8smntjpxs21en4,EaSBmeC2,2020-0188,2020-05-21,12:31:12,12:47:42,NA,incomplete,213,shape,1,right,Purple_Triangle_Chess_2.jpg,Green_Circle_Stripes_2.jpg,Red_Triangle_Dots_1.jpg,left,204.77500000561122,false,high,false
EaSBmeC2,3y7ltze0zwz7ft0pae7k34mi28juzv,30og32w0syoywsne8smntjpxs21en4,EaSBmeC2,2020-0188,2020-05-21,12:31:12,12:47:42,NA,incomplete,214,shape,1,right,Blue_Circle_Stripes_2.jpg,Purple_Star_Chess_2.jpg,Green_Circle_Grid_4.jpg,left,191.3300000014715,false,high,false
EaSBmeC2,3y7ltze0zwz7ft0pae7k34mi28juzv,30og32w0syoywsne8smntjpxs21en4,EaSBmeC2,2020-0188,2020-05-21,12:31:12,12:47:42,NA,incomplete,215,shape,1,left,Green_Triangle_Chess_4.jpg,Blue_Triangle_Grid_3.jpg,Red_Plus_Dots_4.jpg,right,647.915000008652,false,high,false
EaSBmeC2,3y7ltze0zwz7ft0pae7k34mi28juzv,30og32w0syoywsne8smntjpxs21en4,EaSBmeC2,2020-0188,2020-05-21,12:31:12,12:47:42,NA,incomplete,216,shape,0,right,Purple_Plus_Stripes_4.jpg,Green_Star_Grid_4.jpg,Blue_Plus_Chess_2.jpg,left,246.0949999949662,false,high,false
EaSBmeC2,3y7ltze0zwz7ft0pae7k34mi28juzv,30og32w0syoywsne8smntjpxs21en4,EaSBmeC2,2020-0188,2020-05-21,12:31:12,12:47:42,NA,incomplete,217,shape,1,right,Blue_Triangle_Dots_4.jpg,Red_Circle_Grid_4.jpg,Green_Triangle_Chess_3.jpg,left,446.29999999597203,false,high,false
EaSBmeC2,3y7ltze0zwz7ft0pae7k34mi28juzv,30og32w0syoywsne8smntjpxs21en4,EaSBmeC2,2020-0188,2020-05-21,12:31:12,12:47:42,NA,incomplete,218,shape,1,right,Red_Star_Chess_3.jpg,Purple_Circle_Dots_3.jpg,Green_Star_Stripes_2.jpg,left,294.62500000954606,false,high,false
EaSBmeC2,3y7ltze0zwz7ft0pae7k34mi28juzv,30og32w0syoywsne8smntjpxs21en4,EaSBmeC2,2020-0188,2020-05-21,12:31:12,12:47:42,NA,incomplete,219,shape,1,right,Red_Triangle_Stripes_1.jpg,Purple_Plus_Chess_1.jpg,Blue_Triangle_Grid_2.jpg,right,558.9449999970384,true,high,false
EaSBmeC2,3y7ltze0zwz7ft0pae7k34mi28juzv,30og32w0syoywsne8smntjpxs21en4,EaSBmeC2,2020-0188,2020-05-21,12:31:12,12:47:42,NA,incomplete,220,number,0,left,Blue_Star_Dots_3.jpg,Red_Circle_Grid_3.jpg,Purple_Star_Stripes_1.jpg,left,367.3650000127964,true,high,false
EaSBmeC2,3y7ltze0zwz7ft0pae7k34mi28juzv,30og32w0syoywsne8smntjpxs21en4,EaSBmeC2,2020-0188,2020-05-21,12:31:12,12:47:42,NA,incomplete,221,number,1,left,Red_Plus_Dots_4.jpg,Blue_Triangle_Chess_4.jpg,Green_Plus_Grid_3.jpg,left,553.845000002184,true,high,false
EaSBmeC2,3y7ltze0zwz7ft0pae7k34mi28juzv,30og32w0syoywsne8smntjpxs21en4,EaSBmeC2,2020-0188,2020-05-21,12:31:12,12:47:42,NA,incomplete,222,number,1,left,Blue_Triangle_Dots_4.jpg,Red_Circle_Chess_4.jpg,Purple_Triangle_Grid_2.jpg,left,489.75500000233296,true,high,false
EaSBmeC2,3y7ltze0zwz7ft0pae7k34mi28juzv,30og32w0syoywsne8smntjpxs21en4,EaSBmeC2,2020-0188,2020-05-21,12:31:12,12:47:42,NA,incomplete,223,number,0,left,Blue_Plus_Dots_3.jpg,Green_Triangle_Grid_3.jpg,Purple_Plus_Chess_1.jpg,left,656.184999999823,true,high,false
EaSBmeC2,3y7ltze0zwz7ft0pae7k34mi28juzv,30og32w0syoywsne8smntjpxs21en4,EaSBmeC2,2020-0188,2020-05-21,12:31:12,12:47:42,NA,incomplete,224,number,1,left,Blue_Triangle_Grid_2.jpg,Purple_Plus_Chess_2.jpg,Red_Triangle_Dots_3.jpg,right,535.0500000058673,false,high,false
EaSBmeC2,3y7ltze0zwz7ft0pae7k34mi28juzv,30og32w0syoywsne8smntjpxs21en4,EaSBmeC2,2020-0188,2020-05-21,12:31:12,12:47:42,NA,incomplete,225,number,1,right,Blue_Circle_Stripes_1.jpg,Red_Circle_Grid_3.jpg,Green_Star_Dots_1.jpg,left,531.3549999991665,false,high,false
EaSBmeC2,3y7ltze0zwz7ft0pae7k34mi28juzv,30og32w0syoywsne8smntjpxs21en4,EaSBmeC2,2020-0188,2020-05-21,12:31:12,12:47:42,NA,incomplete,226,number,1,left,Purple_Star_Stripes_1.jpg,Green_Triangle_Dots_1.jpg,Blue_Star_Grid_2.jpg,left,319.25000000046566,true,high,false
EaSBmeC2,3y7ltze0zwz7ft0pae7k34mi28juzv,30og32w0syoywsne8smntjpxs21en4,EaSBmeC2,2020-0188,2020-05-21,12:31:12,12:47:42,NA,incomplete,227,number,1,left,Green_Circle_Grid_3.jpg,Purple_Plus_Chess_3.jpg,Blue_Circle_Stripes_2.jpg,left,466.7550000012852,true,high,false
EaSBmeC2,3y7ltze0zwz7ft0pae7k34mi28juzv,30og32w0syoywsne8smntjpxs21en4,EaSBmeC2,2020-0188,2020-05-21,12:31:12,12:47:42,NA,incomplete,228,number,1,left,Green_Triangle_Grid_4.jpg,Red_Circle_Dots_4.jpg,Blue_Triangle_Chess_1.jpg,left,429.3899999902351,true,high,false
EaSBmeC2,3y7ltze0zwz7ft0pae7k34mi28juzv,30og32w0syoywsne8smntjpxs21en4,EaSBmeC2,2020-0188,2020-05-21,12:31:12,12:47:42,NA,incomplete,229,number,0,right,Red_Circle_Chess_4.jpg,Blue_Circle_Grid_2.jpg,Purple_Triangle_Stripes_4.jpg,right,417.9699999949662,true,high,false
EaSBmeC2,3y7ltze0zwz7ft0pae7k34mi28juzv,30og32w0syoywsne8smntjpxs21en4,EaSBmeC2,2020-0188,2020-05-21,12:31:12,12:47:42,NA,incomplete,230,number,1,left,Purple_Triangle_Dots_2.jpg,Blue_Star_Stripes_2.jpg,Green_Triangle_Chess_3.jpg,left,325.41499999933876,true,high,false
EaSBmeC2,3y7ltze0zwz7ft0pae7k34mi28juzv,30og32w0syoywsne8smntjpxs21en4,EaSBmeC2,2020-0188,2020-05-21,12:31:12,12:47:42,NA,incomplete,231,number,1,right,Blue_Triangle_Grid_4.jpg,Green_Triangle_Stripes_3.jpg,Purple_Plus_Dots_4.jpg,left,417.90499999478925,false,high,false
EaSBmeC2,3y7ltze0zwz7ft0pae7k34mi28juzv,30og32w0syoywsne8smntjpxs21en4,EaSBmeC2,2020-0188,2020-05-21,12:31:12,12:47:42,NA,incomplete,232,number,0,left,Purple_Plus_Stripes_3.jpg,Green_Circle_Chess_3.jpg,Red_Plus_Grid_1.jpg,right,357.20499999297317,false,high,false
EaSBmeC2,3y7ltze0zwz7ft0pae7k34mi28juzv,30og32w0syoywsne8smntjpxs21en4,EaSBmeC2,2020-0188,2020-05-21,12:31:12,12:47:42,NA,incomplete,233,number,1,right,Blue_Star_Chess_2.jpg,Red_Star_Grid_1.jpg,Purple_Plus_Stripes_2.jpg,left,455.0300000119023,false,high,false
EaSBmeC2,3y7ltze0zwz7ft0pae7k34mi28juzv,30og32w0syoywsne8smntjpxs21en4,EaSBmeC2,2020-0188,2020-05-21,12:31:12,12:47:42,NA,incomplete,234,number,1,left,Blue_Star_Grid_4.jpg,Purple_Circle_Dots_4.jpg,Red_Star_Chess_2.jpg,right,367.58499999996275,false,high,false
EaSBmeC2,3y7ltze0zwz7ft0pae7k34mi28juzv,30og32w0syoywsne8smntjpxs21en4,EaSBmeC2,2020-0188,2020-05-21,12:31:12,12:47:42,NA,incomplete,235,number,1,right,Red_Plus_Stripes_2.jpg,Purple_Plus_Grid_3.jpg,Green_Circle_Chess_2.jpg,left,434.9999999976717,false,high,false
EaSBmeC2,3y7ltze0zwz7ft0pae7k34mi28juzv,30og32w0syoywsne8smntjpxs21en4,EaSBmeC2,2020-0188,2020-05-21,12:31:12,12:47:42,NA,incomplete,236,number,0,left,Blue_Triangle_Chess_3.jpg,Green_Circle_Grid_3.jpg,Red_Triangle_Stripes_2.jpg,left,320.08000000496395,true,high,false
EaSBmeC2,3y7ltze0zwz7ft0pae7k34mi28juzv,30og32w0syoywsne8smntjpxs21en4,EaSBmeC2,2020-0188,2020-05-21,12:31:12,12:47:42,NA,incomplete,237,number,1,right,Blue_Plus_Stripes_3.jpg,Purple_Plus_Chess_1.jpg,Red_Star_Dots_3.jpg,right,308.50999998801854,true,high,false
EaSBmeC2,3y7ltze0zwz7ft0pae7k34mi28juzv,30og32w0syoywsne8smntjpxs21en4,EaSBmeC2,2020-0188,2020-05-21,12:31:12,12:47:42,NA,incomplete,238,number,0,left,Purple_Triangle_Stripes_1.jpg,Green_Plus_Grid_1.jpg,Red_Triangle_Chess_2.jpg,right,406.94999998959247,false,high,false
EaSBmeC2,3y7ltze0zwz7ft0pae7k34mi28juzv,30og32w0syoywsne8smntjpxs21en4,EaSBmeC2,2020-0188,2020-05-21,12:31:12,12:47:42,NA,incomplete,239,number,1,right,Green_Plus_Grid_2.jpg,Red_Plus_Dots_3.jpg,Blue_Star_Stripes_2.jpg,right,416.2149999901885,true,high,false
EaSBmeC2,3y7ltze0zwz7ft0pae7k34mi28juzv,30og32w0syoywsne8smntjpxs21en4,EaSBmeC2,2020-0188,2020-05-21,12:31:12,12:47:42,NA,NA,instruction example,color,NA,NA,Purple_Triangle_Chess_1.jpg,Purple_Circle_Dots_4.jpg,Green_Star_Chess_3.jpg,NA,NA,NA,NA,undefined
EaSBmeC2,3y7ltze0zwz7ft0pae7k34mi28juzv,30og32w0syoywsne8smntjpxs21en4,EaSBmeC2,2020-0188,2020-05-21,12:31:12,12:47:42,NA,NA,instruction example,color,NA,NA,Green_Star_Grid_4.jpg,Purple_Triangle_Grid_2.jpg,Green_Plus_Stripes_3.jpg,NA,NA,NA,NA,undefined
EaSBmeC2,3y7ltze0zwz7ft0pae7k34mi28juzv,30og32w0syoywsne8smntjpxs21en4,EaSBmeC2,2020-0188,2020-05-21,12:31:12,12:47:42,NA,NA,instruction example,color,NA,NA,Red_Plus_Stripes_4.jpg,Purple_Plus_Grid_1.jpg,Green_Triangle_Chess_4.jpg,NA,NA,NA,NA,undefined
EaSBmeC2,3y7ltze0zwz7ft0pae7k34mi28juzv,30og32w0syoywsne8smntjpxs21en4,EaSBmeC2,2020-0188,2020-05-21,12:31:12,12:47:42,NA,NA,instruction example,color,NA,NA,Blue_Triangle_Stripes_1.jpg,Green_Circle_Chess_1.jpg,Purple_Triangle_Grid_4.jpg,NA,NA,NA,NA,undefined
EaSBmeC2,3y7ltze0zwz7ft0pae7k34mi28juzv,30og32w0syoywsne8smntjpxs21en4,EaSBmeC2,2020-0188,2020-05-21,12:31:12,12:47:42,976238.9299999923,990246.6199999908,NA,NA,NA,NA,NA,NA,NA,NA,NA,NA,NA,undefined
