workerId,hitId,assignmentId,subject,studyid,exp_date,exp_start,exp_end,time_start,time_end,trial,type,reward_validity,answer,image_top,image_left,image_right,response,response_time,response_acc,volatility,age,race,gender,ethnicity,color,vision,neuro,practice
DTCvlr12,3tl87mo8dp2yrmmv0olc9pahdcwfly,31ibvunm9wc3abwj5uskli4aq6yvf0,DTCvlr12,2020-0188,2020-05-21,13:56:43,14:19:48,NA,incomplete,0,color,1,left,Blue_Circle_Dots_3.jpg,Blue_Triangle_Chess_2.jpg,Green_Plus_Dots_1.jpg,right,1668.6450000002515,false,NA,NA,NA,NA,NA,NA,NA,NA,true
DTCvlr12,3tl87mo8dp2yrmmv0olc9pahdcwfly,31ibvunm9wc3abwj5uskli4aq6yvf0,DTCvlr12,2020-0188,2020-05-21,13:56:43,14:19:48,NA,incomplete,1,color,1,left,Red_Circle_Dots_2.jpg,Red_Triangle_Chess_4.jpg,Purple_Star_Dots_3.jpg,left,1078.6250000001164,true,NA,NA,NA,NA,NA,NA,NA,NA,true
DTCvlr12,3tl87mo8dp2yrmmv0olc9pahdcwfly,31ibvunm9wc3abwj5uskli4aq6yvf0,DTCvlr12,2020-0188,2020-05-21,13:56:43,14:19:48,NA,incomplete,2,color,0,left,Green_Circle_Chess_3.jpg,Green_Plus_Stripes_2.jpg,Purple_Triangle_Chess_1.jpg,left,936.2750000000233,true,NA,NA,NA,NA,NA,NA,NA,NA,true
DTCvlr12,3tl87mo8dp2yrmmv0olc9pahdcwfly,31ibvunm9wc3abwj5uskli4aq6yvf0,DTCvlr12,2020-0188,2020-05-21,13:56:43,14:19:48,NA,incomplete,3,color,1,right,Green_Star_Chess_4.jpg,Blue_Triangle_Chess_2.jpg,Green_Plus_Stripes_1.jpg,left,1159.729999999865,false,NA,NA,NA,NA,NA,NA,NA,NA,true
DTCvlr12,3tl87mo8dp2yrmmv0olc9pahdcwfly,31ibvunm9wc3abwj5uskli4aq6yvf0,DTCvlr12,2020-0188,2020-05-21,13:56:43,14:19:48,NA,incomplete,4,color,0,left,Purple_Circle_Grid_1.jpg,Purple_Triangle_Dots_3.jpg,Green_Plus_Grid_4.jpg,left,805.0300000000279,true,NA,NA,NA,NA,NA,NA,NA,NA,true
DTCvlr12,3tl87mo8dp2yrmmv0olc9pahdcwfly,31ibvunm9wc3abwj5uskli4aq6yvf0,DTCvlr12,2020-0188,2020-05-21,13:56:43,14:19:48,NA,incomplete,5,color,1,left,Red_Plus_Stripes_2.jpg,Red_Star_Chess_1.jpg,Purple_Triangle_Stripes_3.jpg,left,841.0600000001723,true,NA,NA,NA,NA,NA,NA,NA,NA,true
DTCvlr12,3tl87mo8dp2yrmmv0olc9pahdcwfly,31ibvunm9wc3abwj5uskli4aq6yvf0,DTCvlr12,2020-0188,2020-05-21,13:56:43,14:19:48,NA,incomplete,6,color,1,left,Green_Circle_Grid_3.jpg,Green_Triangle_Stripes_4.jpg,Red_Plus_Grid_1.jpg,left,683.8250000000698,true,NA,NA,NA,NA,NA,NA,NA,NA,true
DTCvlr12,3tl87mo8dp2yrmmv0olc9pahdcwfly,31ibvunm9wc3abwj5uskli4aq6yvf0,DTCvlr12,2020-0188,2020-05-21,13:56:43,14:19:48,NA,incomplete,7,color,1,left,Red_Circle_Stripes_3.jpg,Red_Star_Grid_2.jpg,Purple_Plus_Stripes_1.jpg,left,659.8549999999814,true,NA,NA,NA,NA,NA,NA,NA,NA,true
DTCvlr12,3tl87mo8dp2yrmmv0olc9pahdcwfly,31ibvunm9wc3abwj5uskli4aq6yvf0,DTCvlr12,2020-0188,2020-05-21,13:56:43,14:19:48,NA,incomplete,8,color,1,right,Green_Star_Chess_4.jpg,Blue_Triangle_Chess_1.jpg,Green_Plus_Stripes_3.jpg,right,782.7600000001257,true,NA,NA,NA,NA,NA,NA,NA,NA,true
DTCvlr12,3tl87mo8dp2yrmmv0olc9pahdcwfly,31ibvunm9wc3abwj5uskli4aq6yvf0,DTCvlr12,2020-0188,2020-05-21,13:56:43,14:19:48,NA,incomplete,9,color,1,left,Green_Triangle_Grid_4.jpg,Green_Star_Stripes_3.jpg,Purple_Plus_Grid_2.jpg,left,628.3650000001071,true,NA,NA,NA,NA,NA,NA,NA,NA,true
DTCvlr12,3tl87mo8dp2yrmmv0olc9pahdcwfly,31ibvunm9wc3abwj5uskli4aq6yvf0,DTCvlr12,2020-0188,2020-05-21,13:56:43,14:19:48,NA,incomplete,10,color,1,left,Red_Circle_Dots_1.jpg,Red_Triangle_Grid_4.jpg,Blue_Plus_Dots_3.jpg,left,616.3999999999069,true,NA,NA,NA,NA,NA,NA,NA,NA,true
DTCvlr12,3tl87mo8dp2yrmmv0olc9pahdcwfly,31ibvunm9wc3abwj5uskli4aq6yvf0,DTCvlr12,2020-0188,2020-05-21,13:56:43,14:19:48,NA,incomplete,11,color,0,right,Green_Triangle_Dots_2.jpg,Blue_Circle_Dots_3.jpg,Green_Plus_Chess_4.jpg,right,540.2299999999814,true,NA,NA,NA,NA,NA,NA,NA,NA,true
DTCvlr12,3tl87mo8dp2yrmmv0olc9pahdcwfly,31ibvunm9wc3abwj5uskli4aq6yvf0,DTCvlr12,2020-0188,2020-05-21,13:56:43,14:19:48,NA,incomplete,12,color,1,right,Green_Circle_Dots_1.jpg,Red_Triangle_Dots_3.jpg,Green_Star_Chess_4.jpg,right,594.1999999999534,true,NA,NA,NA,NA,NA,NA,NA,NA,true
DTCvlr12,3tl87mo8dp2yrmmv0olc9pahdcwfly,31ibvunm9wc3abwj5uskli4aq6yvf0,DTCvlr12,2020-0188,2020-05-21,13:56:43,14:19:48,NA,incomplete,13,color,1,right,Red_Triangle_Dots_3.jpg,Purple_Circle_Dots_2.jpg,Red_Plus_Grid_1.jpg,right,663.395000000135,true,NA,NA,NA,NA,NA,NA,NA,NA,true
DTCvlr12,3tl87mo8dp2yrmmv0olc9pahdcwfly,31ibvunm9wc3abwj5uskli4aq6yvf0,DTCvlr12,2020-0188,2020-05-21,13:56:43,14:19:48,NA,incomplete,14,color,1,left,Red_Star_Dots_3.jpg,Red_Plus_Grid_4.jpg,Green_Triangle_Dots_1.jpg,left,576.9749999999767,true,NA,NA,NA,NA,NA,NA,NA,NA,true
DTCvlr12,3tl87mo8dp2yrmmv0olc9pahdcwfly,31ibvunm9wc3abwj5uskli4aq6yvf0,DTCvlr12,2020-0188,2020-05-21,13:56:43,14:19:48,NA,incomplete,15,color,1,right,Green_Plus_Stripes_1.jpg,Red_Triangle_Stripes_4.jpg,Green_Circle_Grid_2.jpg,right,630.8899999998976,true,NA,NA,NA,NA,NA,NA,NA,NA,true
DTCvlr12,3tl87mo8dp2yrmmv0olc9pahdcwfly,31ibvunm9wc3abwj5uskli4aq6yvf0,DTCvlr12,2020-0188,2020-05-21,13:56:43,14:19:48,NA,incomplete,16,color,1,left,Red_Plus_Dots_3.jpg,Red_Star_Chess_4.jpg,Green_Triangle_Dots_1.jpg,left,530.5849999999627,true,NA,NA,NA,NA,NA,NA,NA,NA,true
DTCvlr12,3tl87mo8dp2yrmmv0olc9pahdcwfly,31ibvunm9wc3abwj5uskli4aq6yvf0,DTCvlr12,2020-0188,2020-05-21,13:56:43,14:19:48,NA,incomplete,17,color,1,left,Purple_Plus_Grid_2.jpg,Purple_Star_Stripes_3.jpg,Red_Triangle_Grid_4.jpg,left,625.6149999998743,true,NA,NA,NA,NA,NA,NA,NA,NA,true
DTCvlr12,3tl87mo8dp2yrmmv0olc9pahdcwfly,31ibvunm9wc3abwj5uskli4aq6yvf0,DTCvlr12,2020-0188,2020-05-21,13:56:43,14:19:48,NA,incomplete,18,color,1,right,Red_Triangle_Grid_3.jpg,Green_Circle_Grid_4.jpg,Red_Plus_Dots_1.jpg,right,596.9349999999395,true,NA,NA,NA,NA,NA,NA,NA,NA,true
DTCvlr12,3tl87mo8dp2yrmmv0olc9pahdcwfly,31ibvunm9wc3abwj5uskli4aq6yvf0,DTCvlr12,2020-0188,2020-05-21,13:56:43,14:19:48,NA,incomplete,19,color,1,left,Blue_Plus_Dots_3.jpg,Blue_Triangle_Grid_1.jpg,Green_Circle_Dots_2.jpg,left,650.1650000000373,true,NA,NA,NA,NA,NA,NA,NA,NA,true
DTCvlr12,3tl87mo8dp2yrmmv0olc9pahdcwfly,31ibvunm9wc3abwj5uskli4aq6yvf0,DTCvlr12,2020-0188,2020-05-21,13:56:43,14:19:48,NA,incomplete,20,filling,1,right,Blue_Star_Dots_4.jpg,Blue_Plus_Chess_1.jpg,Purple_Triangle_Dots_2.jpg,right,1572.0299999999115,true,NA,NA,NA,NA,NA,NA,NA,NA,true
DTCvlr12,3tl87mo8dp2yrmmv0olc9pahdcwfly,31ibvunm9wc3abwj5uskli4aq6yvf0,DTCvlr12,2020-0188,2020-05-21,13:56:43,14:19:48,NA,incomplete,21,filling,1,right,Purple_Star_Dots_1.jpg,Purple_Triangle_Stripes_4.jpg,Green_Circle_Dots_3.jpg,right,986.0499999999302,true,NA,NA,NA,NA,NA,NA,NA,NA,true
DTCvlr12,3tl87mo8dp2yrmmv0olc9pahdcwfly,31ibvunm9wc3abwj5uskli4aq6yvf0,DTCvlr12,2020-0188,2020-05-21,13:56:43,14:19:48,NA,incomplete,22,filling,1,left,Red_Plus_Dots_2.jpg,Blue_Circle_Dots_1.jpg,Red_Triangle_Grid_3.jpg,left,934.9599999999627,true,NA,NA,NA,NA,NA,NA,NA,NA,true
DTCvlr12,3tl87mo8dp2yrmmv0olc9pahdcwfly,31ibvunm9wc3abwj5uskli4aq6yvf0,DTCvlr12,2020-0188,2020-05-21,13:56:43,14:19:48,NA,incomplete,23,filling,0,right,Green_Circle_Grid_3.jpg,Green_Star_Chess_4.jpg,Blue_Triangle_Grid_1.jpg,right,853.7750000000233,true,NA,NA,NA,NA,NA,NA,NA,NA,true
DTCvlr12,3tl87mo8dp2yrmmv0olc9pahdcwfly,31ibvunm9wc3abwj5uskli4aq6yvf0,DTCvlr12,2020-0188,2020-05-21,13:56:43,14:19:48,NA,incomplete,24,filling,1,right,Blue_Triangle_Grid_1.jpg,Blue_Circle_Chess_2.jpg,Green_Star_Grid_3.jpg,right,959.589999999851,true,NA,NA,NA,NA,NA,NA,NA,NA,true
DTCvlr12,3tl87mo8dp2yrmmv0olc9pahdcwfly,31ibvunm9wc3abwj5uskli4aq6yvf0,DTCvlr12,2020-0188,2020-05-21,13:56:43,14:19:48,NA,incomplete,25,filling,0,left,Blue_Triangle_Stripes_3.jpg,Red_Star_Stripes_1.jpg,Blue_Plus_Chess_4.jpg,left,981.3750000003492,true,NA,NA,NA,NA,NA,NA,NA,NA,true
DTCvlr12,3tl87mo8dp2yrmmv0olc9pahdcwfly,31ibvunm9wc3abwj5uskli4aq6yvf0,DTCvlr12,2020-0188,2020-05-21,13:56:43,14:19:48,NA,incomplete,26,filling,1,right,Red_Plus_Dots_1.jpg,Red_Triangle_Stripes_3.jpg,Purple_Star_Dots_4.jpg,right,1011.375,true,NA,NA,NA,NA,NA,NA,NA,NA,true
DTCvlr12,3tl87mo8dp2yrmmv0olc9pahdcwfly,31ibvunm9wc3abwj5uskli4aq6yvf0,DTCvlr12,2020-0188,2020-05-21,13:56:43,14:19:48,NA,incomplete,27,filling,1,right,Green_Plus_Dots_3.jpg,Green_Star_Grid_1.jpg,Purple_Triangle_Dots_2.jpg,left,1095.2700000002515,false,NA,NA,NA,NA,NA,NA,NA,NA,true
DTCvlr12,3tl87mo8dp2yrmmv0olc9pahdcwfly,31ibvunm9wc3abwj5uskli4aq6yvf0,DTCvlr12,2020-0188,2020-05-21,13:56:43,14:19:48,NA,incomplete,28,filling,1,right,Red_Plus_Grid_3.jpg,Red_Star_Dots_1.jpg,Purple_Triangle_Grid_4.jpg,right,904.0350000000326,true,NA,NA,NA,NA,NA,NA,NA,NA,true
DTCvlr12,3tl87mo8dp2yrmmv0olc9pahdcwfly,31ibvunm9wc3abwj5uskli4aq6yvf0,DTCvlr12,2020-0188,2020-05-21,13:56:43,14:19:48,NA,incomplete,29,filling,1,right,Green_Triangle_Chess_4.jpg,Green_Star_Grid_3.jpg,Purple_Circle_Chess_2.jpg,right,1015.7850000000326,true,NA,NA,NA,NA,NA,NA,NA,NA,true
DTCvlr12,3tl87mo8dp2yrmmv0olc9pahdcwfly,31ibvunm9wc3abwj5uskli4aq6yvf0,DTCvlr12,2020-0188,2020-05-21,13:56:43,14:19:48,NA,incomplete,30,filling,0,right,Blue_Star_Chess_4.jpg,Blue_Triangle_Stripes_2.jpg,Purple_Plus_Chess_1.jpg,right,779.7949999999255,true,NA,NA,NA,NA,NA,NA,NA,NA,true
DTCvlr12,3tl87mo8dp2yrmmv0olc9pahdcwfly,31ibvunm9wc3abwj5uskli4aq6yvf0,DTCvlr12,2020-0188,2020-05-21,13:56:43,14:19:48,NA,incomplete,31,filling,1,left,Purple_Star_Dots_1.jpg,Green_Plus_Dots_2.jpg,Purple_Circle_Stripes_4.jpg,left,1145.4499999999534,true,NA,NA,NA,NA,NA,NA,NA,NA,true
DTCvlr12,3tl87mo8dp2yrmmv0olc9pahdcwfly,31ibvunm9wc3abwj5uskli4aq6yvf0,DTCvlr12,2020-0188,2020-05-21,13:56:43,14:19:48,NA,incomplete,32,filling,1,right,Red_Star_Stripes_3.jpg,Red_Triangle_Dots_2.jpg,Blue_Circle_Stripes_4.jpg,right,856.0900000002002,true,NA,NA,NA,NA,NA,NA,NA,NA,true
DTCvlr12,3tl87mo8dp2yrmmv0olc9pahdcwfly,31ibvunm9wc3abwj5uskli4aq6yvf0,DTCvlr12,2020-0188,2020-05-21,13:56:43,14:19:48,NA,incomplete,33,filling,1,left,Red_Star_Grid_2.jpg,Green_Circle_Grid_3.jpg,Red_Plus_Dots_1.jpg,left,938.4049999997951,true,NA,NA,NA,NA,NA,NA,NA,NA,true
DTCvlr12,3tl87mo8dp2yrmmv0olc9pahdcwfly,31ibvunm9wc3abwj5uskli4aq6yvf0,DTCvlr12,2020-0188,2020-05-21,13:56:43,14:19:48,NA,incomplete,34,filling,0,left,Purple_Triangle_Grid_1.jpg,Blue_Star_Grid_2.jpg,Purple_Plus_Dots_4.jpg,left,1192.294999999809,true,NA,NA,NA,NA,NA,NA,NA,NA,true
DTCvlr12,3tl87mo8dp2yrmmv0olc9pahdcwfly,31ibvunm9wc3abwj5uskli4aq6yvf0,DTCvlr12,2020-0188,2020-05-21,13:56:43,14:19:48,NA,incomplete,35,filling,1,right,Green_Triangle_Grid_4.jpg,Green_Plus_Stripes_2.jpg,Red_Star_Grid_3.jpg,left,934.1650000001537,false,NA,NA,NA,NA,NA,NA,NA,NA,true
DTCvlr12,3tl87mo8dp2yrmmv0olc9pahdcwfly,31ibvunm9wc3abwj5uskli4aq6yvf0,DTCvlr12,2020-0188,2020-05-21,13:56:43,14:19:48,NA,incomplete,36,filling,1,right,Green_Triangle_Stripes_1.jpg,Green_Star_Grid_3.jpg,Red_Plus_Stripes_2.jpg,right,1077.4400000000605,true,NA,NA,NA,NA,NA,NA,NA,NA,true
DTCvlr12,3tl87mo8dp2yrmmv0olc9pahdcwfly,31ibvunm9wc3abwj5uskli4aq6yvf0,DTCvlr12,2020-0188,2020-05-21,13:56:43,14:19:48,NA,incomplete,37,filling,0,left,Red_Circle_Grid_4.jpg,Purple_Star_Grid_1.jpg,Red_Triangle_Chess_3.jpg,left,997.9100000000326,true,NA,NA,NA,NA,NA,NA,NA,NA,true
DTCvlr12,3tl87mo8dp2yrmmv0olc9pahdcwfly,31ibvunm9wc3abwj5uskli4aq6yvf0,DTCvlr12,2020-0188,2020-05-21,13:56:43,14:19:48,NA,incomplete,38,filling,1,left,Red_Plus_Grid_4.jpg,Purple_Circle_Grid_3.jpg,Red_Star_Stripes_2.jpg,left,1059.8399999999674,true,NA,NA,NA,NA,NA,NA,NA,NA,true
DTCvlr12,3tl87mo8dp2yrmmv0olc9pahdcwfly,31ibvunm9wc3abwj5uskli4aq6yvf0,DTCvlr12,2020-0188,2020-05-21,13:56:43,14:19:48,NA,incomplete,39,filling,1,left,Blue_Circle_Dots_1.jpg,Red_Plus_Dots_3.jpg,Blue_Star_Stripes_4.jpg,left,949.5849999998463,true,NA,NA,NA,NA,NA,NA,NA,NA,true
DTCvlr12,3tl87mo8dp2yrmmv0olc9pahdcwfly,31ibvunm9wc3abwj5uskli4aq6yvf0,DTCvlr12,2020-0188,2020-05-21,13:56:43,14:19:48,NA,incomplete,0,color,1,left,Blue_Plus_Chess_3.jpg,Blue_Star_Dots_4.jpg,Red_Circle_Chess_1.jpg,right,1243.6450000000186,false,high,NA,NA,NA,NA,NA,NA,NA,false
DTCvlr12,3tl87mo8dp2yrmmv0olc9pahdcwfly,31ibvunm9wc3abwj5uskli4aq6yvf0,DTCvlr12,2020-0188,2020-05-21,13:56:43,14:19:48,NA,incomplete,1,color,0,left,Red_Plus_Chess_4.jpg,Red_Triangle_Stripes_1.jpg,Green_Star_Chess_2.jpg,left,725.6749999996973,true,high,NA,NA,NA,NA,NA,NA,NA,false
DTCvlr12,3tl87mo8dp2yrmmv0olc9pahdcwfly,31ibvunm9wc3abwj5uskli4aq6yvf0,DTCvlr12,2020-0188,2020-05-21,13:56:43,14:19:48,NA,incomplete,2,color,1,right,Red_Triangle_Dots_2.jpg,Purple_Star_Dots_4.jpg,Red_Circle_Chess_1.jpg,right,773.3849999998929,true,high,NA,NA,NA,NA,NA,NA,NA,false
DTCvlr12,3tl87mo8dp2yrmmv0olc9pahdcwfly,31ibvunm9wc3abwj5uskli4aq6yvf0,DTCvlr12,2020-0188,2020-05-21,13:56:43,14:19:48,NA,incomplete,3,color,1,left,Purple_Triangle_Dots_2.jpg,Purple_Plus_Stripes_3.jpg,Green_Circle_Dots_4.jpg,left,587.25,true,high,NA,NA,NA,NA,NA,NA,NA,false
DTCvlr12,3tl87mo8dp2yrmmv0olc9pahdcwfly,31ibvunm9wc3abwj5uskli4aq6yvf0,DTCvlr12,2020-0188,2020-05-21,13:56:43,14:19:48,NA,incomplete,4,color,1,left,Green_Triangle_Dots_2.jpg,Green_Star_Grid_3.jpg,Purple_Circle_Dots_1.jpg,left,592.4000000000233,true,high,NA,NA,NA,NA,NA,NA,NA,false
DTCvlr12,3tl87mo8dp2yrmmv0olc9pahdcwfly,31ibvunm9wc3abwj5uskli4aq6yvf0,DTCvlr12,2020-0188,2020-05-21,13:56:43,14:19:48,NA,incomplete,5,color,0,left,Purple_Plus_Chess_2.jpg,Purple_Circle_Dots_4.jpg,Blue_Triangle_Chess_1.jpg,left,676.1999999999534,true,high,NA,NA,NA,NA,NA,NA,NA,false
DTCvlr12,3tl87mo8dp2yrmmv0olc9pahdcwfly,31ibvunm9wc3abwj5uskli4aq6yvf0,DTCvlr12,2020-0188,2020-05-21,13:56:43,14:19:48,NA,incomplete,6,color,0,left,Red_Plus_Stripes_3.jpg,Red_Triangle_Grid_1.jpg,Green_Circle_Stripes_2.jpg,left,670.100000000326,true,high,NA,NA,NA,NA,NA,NA,NA,false
DTCvlr12,3tl87mo8dp2yrmmv0olc9pahdcwfly,31ibvunm9wc3abwj5uskli4aq6yvf0,DTCvlr12,2020-0188,2020-05-21,13:56:43,14:19:48,NA,incomplete,7,color,1,left,Blue_Plus_Chess_2.jpg,Blue_Triangle_Dots_4.jpg,Red_Circle_Chess_1.jpg,left,582.8950000000186,true,high,NA,NA,NA,NA,NA,NA,NA,false
DTCvlr12,3tl87mo8dp2yrmmv0olc9pahdcwfly,31ibvunm9wc3abwj5uskli4aq6yvf0,DTCvlr12,2020-0188,2020-05-21,13:56:43,14:19:48,NA,incomplete,8,color,1,left,Purple_Triangle_Chess_4.jpg,Purple_Circle_Grid_2.jpg,Blue_Star_Chess_3.jpg,left,708.680000000284,true,high,NA,NA,NA,NA,NA,NA,NA,false
DTCvlr12,3tl87mo8dp2yrmmv0olc9pahdcwfly,31ibvunm9wc3abwj5uskli4aq6yvf0,DTCvlr12,2020-0188,2020-05-21,13:56:43,14:19:48,NA,incomplete,9,color,1,right,Blue_Plus_Grid_2.jpg,Green_Triangle_Grid_1.jpg,Blue_Star_Dots_3.jpg,right,724.7449999999953,true,high,NA,NA,NA,NA,NA,NA,NA,false
DTCvlr12,3tl87mo8dp2yrmmv0olc9pahdcwfly,31ibvunm9wc3abwj5uskli4aq6yvf0,DTCvlr12,2020-0188,2020-05-21,13:56:43,14:19:48,NA,incomplete,10,filling,1,left,Green_Triangle_Dots_4.jpg,Red_Star_Dots_1.jpg,Green_Circle_Stripes_2.jpg,right,1092.554999999702,false,high,NA,NA,NA,NA,NA,NA,NA,false
DTCvlr12,3tl87mo8dp2yrmmv0olc9pahdcwfly,31ibvunm9wc3abwj5uskli4aq6yvf0,DTCvlr12,2020-0188,2020-05-21,13:56:43,14:19:48,NA,incomplete,11,filling,0,right,Red_Circle_Stripes_3.jpg,Red_Star_Chess_4.jpg,Purple_Triangle_Stripes_1.jpg,left,493.2799999996787,false,high,NA,NA,NA,NA,NA,NA,NA,false
DTCvlr12,3tl87mo8dp2yrmmv0olc9pahdcwfly,31ibvunm9wc3abwj5uskli4aq6yvf0,DTCvlr12,2020-0188,2020-05-21,13:56:43,14:19:48,NA,incomplete,12,filling,1,left,Green_Plus_Stripes_3.jpg,Purple_Star_Stripes_4.jpg,Green_Circle_Dots_1.jpg,right,925.1650000000373,false,high,NA,NA,NA,NA,NA,NA,NA,false
DTCvlr12,3tl87mo8dp2yrmmv0olc9pahdcwfly,31ibvunm9wc3abwj5uskli4aq6yvf0,DTCvlr12,2020-0188,2020-05-21,13:56:43,14:19:48,NA,incomplete,13,filling,1,right,Green_Circle_Stripes_4.jpg,Green_Plus_Chess_2.jpg,Red_Triangle_Stripes_3.jpg,left,653.0250000001397,false,high,NA,NA,NA,NA,NA,NA,NA,false
DTCvlr12,3tl87mo8dp2yrmmv0olc9pahdcwfly,31ibvunm9wc3abwj5uskli4aq6yvf0,DTCvlr12,2020-0188,2020-05-21,13:56:43,14:19:48,NA,incomplete,14,filling,1,left,Green_Circle_Chess_2.jpg,Blue_Triangle_Chess_3.jpg,Green_Plus_Dots_4.jpg,right,695.430000000284,false,high,NA,NA,NA,NA,NA,NA,NA,false
DTCvlr12,3tl87mo8dp2yrmmv0olc9pahdcwfly,31ibvunm9wc3abwj5uskli4aq6yvf0,DTCvlr12,2020-0188,2020-05-21,13:56:43,14:19:48,NA,incomplete,15,filling,1,left,Green_Plus_Stripes_3.jpg,Blue_Star_Stripes_4.jpg,Green_Triangle_Dots_2.jpg,left,943.7750000001397,true,high,NA,NA,NA,NA,NA,NA,NA,false
DTCvlr12,3tl87mo8dp2yrmmv0olc9pahdcwfly,31ibvunm9wc3abwj5uskli4aq6yvf0,DTCvlr12,2020-0188,2020-05-21,13:56:43,14:19:48,NA,incomplete,16,filling,0,right,Blue_Triangle_Stripes_3.jpg,Blue_Star_Grid_2.jpg,Purple_Plus_Stripes_1.jpg,right,1077.7849999999162,true,high,NA,NA,NA,NA,NA,NA,NA,false
DTCvlr12,3tl87mo8dp2yrmmv0olc9pahdcwfly,31ibvunm9wc3abwj5uskli4aq6yvf0,DTCvlr12,2020-0188,2020-05-21,13:56:43,14:19:48,NA,incomplete,17,filling,1,left,Purple_Circle_Grid_2.jpg,Red_Star_Grid_3.jpg,Purple_Triangle_Chess_1.jpg,left,960.4949999997625,true,high,NA,NA,NA,NA,NA,NA,NA,false
DTCvlr12,3tl87mo8dp2yrmmv0olc9pahdcwfly,31ibvunm9wc3abwj5uskli4aq6yvf0,DTCvlr12,2020-0188,2020-05-21,13:56:43,14:19:48,NA,incomplete,18,filling,1,left,Blue_Star_Dots_1.jpg,Purple_Plus_Dots_2.jpg,Blue_Circle_Chess_3.jpg,left,926.3550000000978,true,high,NA,NA,NA,NA,NA,NA,NA,false
DTCvlr12,3tl87mo8dp2yrmmv0olc9pahdcwfly,31ibvunm9wc3abwj5uskli4aq6yvf0,DTCvlr12,2020-0188,2020-05-21,13:56:43,14:19:48,NA,incomplete,19,filling,1,right,Red_Star_Stripes_4.jpg,Red_Triangle_Chess_3.jpg,Purple_Plus_Stripes_2.jpg,right,861.7349999998696,true,high,NA,NA,NA,NA,NA,NA,NA,false
DTCvlr12,3tl87mo8dp2yrmmv0olc9pahdcwfly,31ibvunm9wc3abwj5uskli4aq6yvf0,DTCvlr12,2020-0188,2020-05-21,13:56:43,14:19:48,NA,incomplete,20,color,1,left,Red_Plus_Grid_2.jpg,Red_Triangle_Stripes_1.jpg,Green_Star_Grid_4.jpg,right,991.0849999996135,false,high,NA,NA,NA,NA,NA,NA,NA,false
DTCvlr12,3tl87mo8dp2yrmmv0olc9pahdcwfly,31ibvunm9wc3abwj5uskli4aq6yvf0,DTCvlr12,2020-0188,2020-05-21,13:56:43,14:19:48,NA,incomplete,21,color,1,left,Blue_Plus_Grid_4.jpg,Blue_Circle_Chess_3.jpg,Purple_Triangle_Grid_2.jpg,right,883.9149999999208,false,high,NA,NA,NA,NA,NA,NA,NA,false
DTCvlr12,3tl87mo8dp2yrmmv0olc9pahdcwfly,31ibvunm9wc3abwj5uskli4aq6yvf0,DTCvlr12,2020-0188,2020-05-21,13:56:43,14:19:48,NA,incomplete,22,color,1,right,Blue_Star_Stripes_3.jpg,Red_Triangle_Stripes_2.jpg,Blue_Circle_Chess_4.jpg,right,708.9850000002189,true,high,NA,NA,NA,NA,NA,NA,NA,false
DTCvlr12,3tl87mo8dp2yrmmv0olc9pahdcwfly,31ibvunm9wc3abwj5uskli4aq6yvf0,DTCvlr12,2020-0188,2020-05-21,13:56:43,14:19:48,NA,incomplete,23,color,1,left,Purple_Circle_Grid_2.jpg,Purple_Star_Dots_3.jpg,Red_Plus_Grid_4.jpg,left,652.8100000000559,true,high,NA,NA,NA,NA,NA,NA,NA,false
DTCvlr12,3tl87mo8dp2yrmmv0olc9pahdcwfly,31ibvunm9wc3abwj5uskli4aq6yvf0,DTCvlr12,2020-0188,2020-05-21,13:56:43,14:19:48,NA,incomplete,24,color,1,left,Red_Plus_Grid_1.jpg,Red_Circle_Chess_4.jpg,Green_Triangle_Grid_3.jpg,left,615.765000000014,true,high,NA,NA,NA,NA,NA,NA,NA,false
DTCvlr12,3tl87mo8dp2yrmmv0olc9pahdcwfly,31ibvunm9wc3abwj5uskli4aq6yvf0,DTCvlr12,2020-0188,2020-05-21,13:56:43,14:19:48,NA,incomplete,25,color,1,left,Blue_Circle_Grid_4.jpg,Blue_Triangle_Chess_2.jpg,Red_Plus_Grid_1.jpg,left,619.5750000001863,true,high,NA,NA,NA,NA,NA,NA,NA,false
DTCvlr12,3tl87mo8dp2yrmmv0olc9pahdcwfly,31ibvunm9wc3abwj5uskli4aq6yvf0,DTCvlr12,2020-0188,2020-05-21,13:56:43,14:19:48,NA,incomplete,26,color,0,right,Purple_Circle_Chess_3.jpg,Red_Plus_Chess_2.jpg,Purple_Star_Stripes_4.jpg,right,598.2400000003399,true,high,NA,NA,NA,NA,NA,NA,NA,false
DTCvlr12,3tl87mo8dp2yrmmv0olc9pahdcwfly,31ibvunm9wc3abwj5uskli4aq6yvf0,DTCvlr12,2020-0188,2020-05-21,13:56:43,14:19:48,NA,incomplete,27,color,1,left,Purple_Star_Grid_1.jpg,Purple_Triangle_Stripes_3.jpg,Red_Circle_Grid_2.jpg,right,1075.3049999998184,false,high,NA,NA,NA,NA,NA,NA,NA,false
DTCvlr12,3tl87mo8dp2yrmmv0olc9pahdcwfly,31ibvunm9wc3abwj5uskli4aq6yvf0,DTCvlr12,2020-0188,2020-05-21,13:56:43,14:19:48,NA,incomplete,28,color,0,right,Red_Star_Stripes_3.jpg,Blue_Triangle_Stripes_1.jpg,Red_Circle_Grid_2.jpg,right,605.1200000002282,true,high,NA,NA,NA,NA,NA,NA,NA,false
DTCvlr12,3tl87mo8dp2yrmmv0olc9pahdcwfly,31ibvunm9wc3abwj5uskli4aq6yvf0,DTCvlr12,2020-0188,2020-05-21,13:56:43,14:19:48,NA,incomplete,29,color,1,left,Purple_Circle_Grid_2.jpg,Purple_Triangle_Stripes_4.jpg,Blue_Star_Grid_3.jpg,left,892.0100000001257,true,high,NA,NA,NA,NA,NA,NA,NA,false
DTCvlr12,3tl87mo8dp2yrmmv0olc9pahdcwfly,31ibvunm9wc3abwj5uskli4aq6yvf0,DTCvlr12,2020-0188,2020-05-21,13:56:43,14:19:48,NA,incomplete,30,filling,1,left,Green_Circle_Grid_1.jpg,Purple_Plus_Grid_2.jpg,Green_Triangle_Dots_3.jpg,left,866.9549999999581,true,high,NA,NA,NA,NA,NA,NA,NA,false
DTCvlr12,3tl87mo8dp2yrmmv0olc9pahdcwfly,31ibvunm9wc3abwj5uskli4aq6yvf0,DTCvlr12,2020-0188,2020-05-21,13:56:43,14:19:48,NA,incomplete,31,filling,1,right,Green_Circle_Chess_3.jpg,Green_Triangle_Grid_2.jpg,Red_Star_Chess_4.jpg,right,899.4349999997066,true,high,NA,NA,NA,NA,NA,NA,NA,false
DTCvlr12,3tl87mo8dp2yrmmv0olc9pahdcwfly,31ibvunm9wc3abwj5uskli4aq6yvf0,DTCvlr12,2020-0188,2020-05-21,13:56:43,14:19:48,NA,incomplete,32,filling,1,right,Purple_Star_Grid_2.jpg,Purple_Circle_Chess_4.jpg,Red_Triangle_Grid_3.jpg,right,1051.404999999795,true,high,NA,NA,NA,NA,NA,NA,NA,false
DTCvlr12,3tl87mo8dp2yrmmv0olc9pahdcwfly,31ibvunm9wc3abwj5uskli4aq6yvf0,DTCvlr12,2020-0188,2020-05-21,13:56:43,14:19:48,NA,incomplete,33,filling,1,right,Red_Star_Chess_3.jpg,Red_Plus_Dots_1.jpg,Blue_Triangle_Chess_2.jpg,right,965.5250000000233,true,high,NA,NA,NA,NA,NA,NA,NA,false
DTCvlr12,3tl87mo8dp2yrmmv0olc9pahdcwfly,31ibvunm9wc3abwj5uskli4aq6yvf0,DTCvlr12,2020-0188,2020-05-21,13:56:43,14:19:48,NA,incomplete,34,filling,1,right,Blue_Circle_Grid_4.jpg,Blue_Triangle_Chess_1.jpg,Green_Plus_Grid_2.jpg,right,771.4350000000559,true,high,NA,NA,NA,NA,NA,NA,NA,false
DTCvlr12,3tl87mo8dp2yrmmv0olc9pahdcwfly,31ibvunm9wc3abwj5uskli4aq6yvf0,DTCvlr12,2020-0188,2020-05-21,13:56:43,14:19:48,NA,incomplete,35,filling,1,left,Red_Plus_Chess_1.jpg,Blue_Star_Chess_3.jpg,Red_Circle_Dots_2.jpg,left,856.2999999999302,true,high,NA,NA,NA,NA,NA,NA,NA,false
DTCvlr12,3tl87mo8dp2yrmmv0olc9pahdcwfly,31ibvunm9wc3abwj5uskli4aq6yvf0,DTCvlr12,2020-0188,2020-05-21,13:56:43,14:19:48,NA,incomplete,36,filling,1,left,Blue_Circle_Grid_2.jpg,Green_Triangle_Grid_1.jpg,Blue_Plus_Dots_4.jpg,left,861.7699999999022,true,high,NA,NA,NA,NA,NA,NA,NA,false
DTCvlr12,3tl87mo8dp2yrmmv0olc9pahdcwfly,31ibvunm9wc3abwj5uskli4aq6yvf0,DTCvlr12,2020-0188,2020-05-21,13:56:43,14:19:48,NA,incomplete,37,filling,1,right,Blue_Star_Stripes_1.jpg,Blue_Triangle_Grid_4.jpg,Purple_Plus_Stripes_2.jpg,right,892.984999999986,true,high,NA,NA,NA,NA,NA,NA,NA,false
DTCvlr12,3tl87mo8dp2yrmmv0olc9pahdcwfly,31ibvunm9wc3abwj5uskli4aq6yvf0,DTCvlr12,2020-0188,2020-05-21,13:56:43,14:19:48,NA,incomplete,38,filling,1,left,Blue_Star_Dots_1.jpg,Red_Circle_Dots_4.jpg,Blue_Triangle_Chess_2.jpg,left,781.9949999998789,true,high,NA,NA,NA,NA,NA,NA,NA,false
DTCvlr12,3tl87mo8dp2yrmmv0olc9pahdcwfly,31ibvunm9wc3abwj5uskli4aq6yvf0,DTCvlr12,2020-0188,2020-05-21,13:56:43,14:19:48,NA,incomplete,39,filling,1,left,Red_Plus_Chess_4.jpg,Green_Star_Chess_1.jpg,Red_Triangle_Stripes_3.jpg,left,899.0999999996275,true,high,NA,NA,NA,NA,NA,NA,NA,false
DTCvlr12,3tl87mo8dp2yrmmv0olc9pahdcwfly,31ibvunm9wc3abwj5uskli4aq6yvf0,DTCvlr12,2020-0188,2020-05-21,13:56:43,14:19:48,NA,incomplete,40,color,1,left,Red_Plus_Stripes_4.jpg,Red_Circle_Grid_2.jpg,Green_Triangle_Stripes_1.jpg,right,819.6000000002095,false,high,NA,NA,NA,NA,NA,NA,NA,false
DTCvlr12,3tl87mo8dp2yrmmv0olc9pahdcwfly,31ibvunm9wc3abwj5uskli4aq6yvf0,DTCvlr12,2020-0188,2020-05-21,13:56:43,14:19:48,NA,incomplete,41,color,0,left,Blue_Plus_Grid_2.jpg,Blue_Star_Dots_3.jpg,Purple_Circle_Grid_1.jpg,right,934.6099999997532,false,high,NA,NA,NA,NA,NA,NA,NA,false
DTCvlr12,3tl87mo8dp2yrmmv0olc9pahdcwfly,31ibvunm9wc3abwj5uskli4aq6yvf0,DTCvlr12,2020-0188,2020-05-21,13:56:43,14:19:48,NA,incomplete,42,color,1,right,Purple_Triangle_Dots_3.jpg,Blue_Star_Dots_4.jpg,Purple_Circle_Stripes_2.jpg,left,918.1800000001676,false,high,NA,NA,NA,NA,NA,NA,NA,false
DTCvlr12,3tl87mo8dp2yrmmv0olc9pahdcwfly,31ibvunm9wc3abwj5uskli4aq6yvf0,DTCvlr12,2020-0188,2020-05-21,13:56:43,14:19:48,NA,incomplete,43,color,1,left,Red_Triangle_Stripes_3.jpg,Red_Circle_Chess_1.jpg,Blue_Plus_Stripes_2.jpg,right,861.3549999999814,false,high,NA,NA,NA,NA,NA,NA,NA,false
DTCvlr12,3tl87mo8dp2yrmmv0olc9pahdcwfly,31ibvunm9wc3abwj5uskli4aq6yvf0,DTCvlr12,2020-0188,2020-05-21,13:56:43,14:19:48,NA,incomplete,44,color,1,right,Green_Circle_Chess_3.jpg,Red_Star_Chess_2.jpg,Green_Plus_Grid_1.jpg,right,655.6050000003306,true,high,NA,NA,NA,NA,NA,NA,NA,false
DTCvlr12,3tl87mo8dp2yrmmv0olc9pahdcwfly,31ibvunm9wc3abwj5uskli4aq6yvf0,DTCvlr12,2020-0188,2020-05-21,13:56:43,14:19:48,NA,incomplete,45,color,0,right,Red_Circle_Dots_3.jpg,Purple_Triangle_Dots_2.jpg,Red_Plus_Chess_1.jpg,right,600.9499999999534,true,high,NA,NA,NA,NA,NA,NA,NA,false
DTCvlr12,3tl87mo8dp2yrmmv0olc9pahdcwfly,31ibvunm9wc3abwj5uskli4aq6yvf0,DTCvlr12,2020-0188,2020-05-21,13:56:43,14:19:48,NA,incomplete,46,color,1,right,Red_Star_Grid_1.jpg,Green_Triangle_Grid_3.jpg,Red_Circle_Stripes_4.jpg,right,581.9449999999488,true,high,NA,NA,NA,NA,NA,NA,NA,false
DTCvlr12,3tl87mo8dp2yrmmv0olc9pahdcwfly,31ibvunm9wc3abwj5uskli4aq6yvf0,DTCvlr12,2020-0188,2020-05-21,13:56:43,14:19:48,NA,incomplete,47,color,0,left,Purple_Triangle_Dots_2.jpg,Purple_Plus_Stripes_3.jpg,Red_Circle_Dots_1.jpg,left,562.8699999997625,true,high,NA,NA,NA,NA,NA,NA,NA,false
DTCvlr12,3tl87mo8dp2yrmmv0olc9pahdcwfly,31ibvunm9wc3abwj5uskli4aq6yvf0,DTCvlr12,2020-0188,2020-05-21,13:56:43,14:19:48,NA,incomplete,48,color,1,right,Purple_Plus_Stripes_1.jpg,Red_Star_Stripes_4.jpg,Purple_Triangle_Chess_2.jpg,right,1384.719999999972,true,high,NA,NA,NA,NA,NA,NA,NA,false
DTCvlr12,3tl87mo8dp2yrmmv0olc9pahdcwfly,31ibvunm9wc3abwj5uskli4aq6yvf0,DTCvlr12,2020-0188,2020-05-21,13:56:43,14:19:48,NA,incomplete,49,color,1,right,Blue_Triangle_Stripes_4.jpg,Purple_Plus_Stripes_1.jpg,Blue_Circle_Dots_3.jpg,right,638.059999999823,true,high,NA,NA,NA,NA,NA,NA,NA,false
DTCvlr12,3tl87mo8dp2yrmmv0olc9pahdcwfly,31ibvunm9wc3abwj5uskli4aq6yvf0,DTCvlr12,2020-0188,2020-05-21,13:56:43,14:19:48,NA,incomplete,50,filling,1,left,Green_Triangle_Chess_3.jpg,Purple_Circle_Chess_4.jpg,Green_Star_Grid_1.jpg,right,568.5450000000419,false,high,NA,NA,NA,NA,NA,NA,NA,false
DTCvlr12,3tl87mo8dp2yrmmv0olc9pahdcwfly,31ibvunm9wc3abwj5uskli4aq6yvf0,DTCvlr12,2020-0188,2020-05-21,13:56:43,14:19:48,NA,incomplete,51,filling,1,right,Purple_Triangle_Dots_2.jpg,Purple_Circle_Grid_3.jpg,Red_Plus_Dots_4.jpg,left,758.390000000014,false,high,NA,NA,NA,NA,NA,NA,NA,false
DTCvlr12,3tl87mo8dp2yrmmv0olc9pahdcwfly,31ibvunm9wc3abwj5uskli4aq6yvf0,DTCvlr12,2020-0188,2020-05-21,13:56:43,14:19:48,NA,incomplete,52,filling,1,right,Purple_Triangle_Chess_3.jpg,Purple_Circle_Dots_2.jpg,Red_Plus_Chess_4.jpg,right,819.3249999999534,true,high,NA,NA,NA,NA,NA,NA,NA,false
DTCvlr12,3tl87mo8dp2yrmmv0olc9pahdcwfly,31ibvunm9wc3abwj5uskli4aq6yvf0,DTCvlr12,2020-0188,2020-05-21,13:56:43,14:19:48,NA,incomplete,53,filling,1,right,Red_Circle_Chess_3.jpg,Red_Star_Dots_1.jpg,Blue_Triangle_Chess_2.jpg,right,775.3200000001816,true,high,NA,NA,NA,NA,NA,NA,NA,false
DTCvlr12,3tl87mo8dp2yrmmv0olc9pahdcwfly,31ibvunm9wc3abwj5uskli4aq6yvf0,DTCvlr12,2020-0188,2020-05-21,13:56:43,14:19:48,NA,incomplete,54,filling,1,right,Green_Triangle_Stripes_2.jpg,Green_Star_Chess_4.jpg,Red_Plus_Stripes_1.jpg,left,741.2699999999022,false,high,NA,NA,NA,NA,NA,NA,NA,false
DTCvlr12,3tl87mo8dp2yrmmv0olc9pahdcwfly,31ibvunm9wc3abwj5uskli4aq6yvf0,DTCvlr12,2020-0188,2020-05-21,13:56:43,14:19:48,NA,incomplete,55,filling,0,left,Green_Star_Chess_2.jpg,Red_Triangle_Chess_3.jpg,Green_Circle_Grid_1.jpg,left,875.0300000001444,true,high,NA,NA,NA,NA,NA,NA,NA,false
DTCvlr12,3tl87mo8dp2yrmmv0olc9pahdcwfly,31ibvunm9wc3abwj5uskli4aq6yvf0,DTCvlr12,2020-0188,2020-05-21,13:56:43,14:19:48,NA,incomplete,56,filling,1,right,Blue_Plus_Grid_3.jpg,Blue_Circle_Dots_4.jpg,Red_Triangle_Grid_2.jpg,right,940.9500000000698,true,high,NA,NA,NA,NA,NA,NA,NA,false
DTCvlr12,3tl87mo8dp2yrmmv0olc9pahdcwfly,31ibvunm9wc3abwj5uskli4aq6yvf0,DTCvlr12,2020-0188,2020-05-21,13:56:43,14:19:48,NA,incomplete,57,filling,1,right,Red_Star_Chess_3.jpg,Red_Triangle_Dots_1.jpg,Blue_Plus_Chess_4.jpg,right,899.7600000002421,true,high,NA,NA,NA,NA,NA,NA,NA,false
DTCvlr12,3tl87mo8dp2yrmmv0olc9pahdcwfly,31ibvunm9wc3abwj5uskli4aq6yvf0,DTCvlr12,2020-0188,2020-05-21,13:56:43,14:19:48,NA,incomplete,58,filling,1,right,Red_Triangle_Stripes_1.jpg,Red_Circle_Grid_3.jpg,Blue_Plus_Stripes_4.jpg,right,972.5849999999627,true,high,NA,NA,NA,NA,NA,NA,NA,false
DTCvlr12,3tl87mo8dp2yrmmv0olc9pahdcwfly,31ibvunm9wc3abwj5uskli4aq6yvf0,DTCvlr12,2020-0188,2020-05-21,13:56:43,14:19:48,NA,incomplete,59,filling,0,left,Red_Plus_Chess_2.jpg,Blue_Circle_Chess_3.jpg,Red_Star_Grid_4.jpg,left,1129.5850000001956,true,high,NA,NA,NA,NA,NA,NA,NA,false
DTCvlr12,3tl87mo8dp2yrmmv0olc9pahdcwfly,31ibvunm9wc3abwj5uskli4aq6yvf0,DTCvlr12,2020-0188,2020-05-21,13:56:43,14:19:48,NA,incomplete,60,color,0,right,Blue_Circle_Grid_1.jpg,Red_Star_Grid_3.jpg,Blue_Plus_Chess_4.jpg,left,889.3699999998789,false,high,NA,NA,NA,NA,NA,NA,NA,false
DTCvlr12,3tl87mo8dp2yrmmv0olc9pahdcwfly,31ibvunm9wc3abwj5uskli4aq6yvf0,DTCvlr12,2020-0188,2020-05-21,13:56:43,14:19:48,NA,incomplete,61,color,1,right,Purple_Star_Dots_1.jpg,Red_Triangle_Dots_4.jpg,Purple_Circle_Stripes_2.jpg,left,801.9500000000698,false,high,NA,NA,NA,NA,NA,NA,NA,false
DTCvlr12,3tl87mo8dp2yrmmv0olc9pahdcwfly,31ibvunm9wc3abwj5uskli4aq6yvf0,DTCvlr12,2020-0188,2020-05-21,13:56:43,14:19:48,NA,incomplete,62,color,0,right,Blue_Plus_Dots_4.jpg,Green_Triangle_Dots_1.jpg,Blue_Star_Chess_2.jpg,left,1045.169999999809,false,high,NA,NA,NA,NA,NA,NA,NA,false
DTCvlr12,3tl87mo8dp2yrmmv0olc9pahdcwfly,31ibvunm9wc3abwj5uskli4aq6yvf0,DTCvlr12,2020-0188,2020-05-21,13:56:43,14:19:48,NA,incomplete,63,color,1,left,Red_Circle_Dots_4.jpg,Red_Star_Stripes_1.jpg,Purple_Plus_Dots_2.jpg,right,936.765000000014,false,high,NA,NA,NA,NA,NA,NA,NA,false
DTCvlr12,3tl87mo8dp2yrmmv0olc9pahdcwfly,31ibvunm9wc3abwj5uskli4aq6yvf0,DTCvlr12,2020-0188,2020-05-21,13:56:43,14:19:48,NA,incomplete,64,color,1,left,Green_Star_Dots_3.jpg,Green_Triangle_Chess_1.jpg,Blue_Circle_Dots_2.jpg,left,590.8850000000093,true,high,NA,NA,NA,NA,NA,NA,NA,false
DTCvlr12,3tl87mo8dp2yrmmv0olc9pahdcwfly,31ibvunm9wc3abwj5uskli4aq6yvf0,DTCvlr12,2020-0188,2020-05-21,13:56:43,14:19:48,NA,incomplete,65,color,1,left,Purple_Plus_Grid_3.jpg,Purple_Circle_Chess_1.jpg,Red_Star_Grid_4.jpg,left,568.5099999996601,true,high,NA,NA,NA,NA,NA,NA,NA,false
DTCvlr12,3tl87mo8dp2yrmmv0olc9pahdcwfly,31ibvunm9wc3abwj5uskli4aq6yvf0,DTCvlr12,2020-0188,2020-05-21,13:56:43,14:19:48,NA,incomplete,66,color,0,left,Purple_Plus_Chess_2.jpg,Purple_Circle_Stripes_4.jpg,Blue_Star_Chess_1.jpg,left,482.300000000163,true,high,NA,NA,NA,NA,NA,NA,NA,false
DTCvlr12,3tl87mo8dp2yrmmv0olc9pahdcwfly,31ibvunm9wc3abwj5uskli4aq6yvf0,DTCvlr12,2020-0188,2020-05-21,13:56:43,14:19:48,NA,incomplete,67,color,0,left,Purple_Plus_Stripes_4.jpg,Purple_Star_Dots_2.jpg,Blue_Circle_Stripes_3.jpg,left,508.20999999996275,true,high,NA,NA,NA,NA,NA,NA,NA,false
DTCvlr12,3tl87mo8dp2yrmmv0olc9pahdcwfly,31ibvunm9wc3abwj5uskli4aq6yvf0,DTCvlr12,2020-0188,2020-05-21,13:56:43,14:19:48,NA,incomplete,68,color,1,left,Green_Star_Chess_1.jpg,Green_Triangle_Grid_2.jpg,Purple_Plus_Chess_4.jpg,right,884.1499999999069,false,high,NA,NA,NA,NA,NA,NA,NA,false
DTCvlr12,3tl87mo8dp2yrmmv0olc9pahdcwfly,31ibvunm9wc3abwj5uskli4aq6yvf0,DTCvlr12,2020-0188,2020-05-21,13:56:43,14:19:48,NA,incomplete,69,color,1,right,Blue_Plus_Stripes_4.jpg,Green_Triangle_Stripes_2.jpg,Blue_Circle_Dots_3.jpg,left,876.3800000001211,false,high,NA,NA,NA,NA,NA,NA,NA,false
DTCvlr12,3tl87mo8dp2yrmmv0olc9pahdcwfly,31ibvunm9wc3abwj5uskli4aq6yvf0,DTCvlr12,2020-0188,2020-05-21,13:56:43,14:19:48,NA,incomplete,70,filling,1,right,Purple_Circle_Dots_2.jpg,Purple_Plus_Grid_1.jpg,Green_Star_Dots_4.jpg,left,653.7049999997253,false,high,NA,NA,NA,NA,NA,NA,NA,false
DTCvlr12,3tl87mo8dp2yrmmv0olc9pahdcwfly,31ibvunm9wc3abwj5uskli4aq6yvf0,DTCvlr12,2020-0188,2020-05-21,13:56:43,14:19:48,NA,incomplete,71,filling,1,left,Green_Star_Stripes_1.jpg,Red_Plus_Stripes_3.jpg,Green_Triangle_Chess_2.jpg,left,1072.7300000002142,true,high,NA,NA,NA,NA,NA,NA,NA,false
DTCvlr12,3tl87mo8dp2yrmmv0olc9pahdcwfly,31ibvunm9wc3abwj5uskli4aq6yvf0,DTCvlr12,2020-0188,2020-05-21,13:56:43,14:19:48,NA,incomplete,72,filling,1,left,Red_Circle_Stripes_3.jpg,Blue_Star_Stripes_2.jpg,Red_Plus_Chess_4.jpg,left,929.4200000000419,true,high,NA,NA,NA,NA,NA,NA,NA,false
DTCvlr12,3tl87mo8dp2yrmmv0olc9pahdcwfly,31ibvunm9wc3abwj5uskli4aq6yvf0,DTCvlr12,2020-0188,2020-05-21,13:56:43,14:19:48,NA,incomplete,73,filling,1,left,Green_Star_Grid_4.jpg,Blue_Plus_Grid_3.jpg,Green_Triangle_Chess_1.jpg,left,937.2600000001257,true,high,NA,NA,NA,NA,NA,NA,NA,false
DTCvlr12,3tl87mo8dp2yrmmv0olc9pahdcwfly,31ibvunm9wc3abwj5uskli4aq6yvf0,DTCvlr12,2020-0188,2020-05-21,13:56:43,14:19:48,NA,incomplete,74,filling,0,right,Purple_Star_Stripes_3.jpg,Purple_Circle_Chess_2.jpg,Green_Plus_Stripes_1.jpg,right,899.0450000001583,true,high,NA,NA,NA,NA,NA,NA,NA,false
DTCvlr12,3tl87mo8dp2yrmmv0olc9pahdcwfly,31ibvunm9wc3abwj5uskli4aq6yvf0,DTCvlr12,2020-0188,2020-05-21,13:56:43,14:19:48,NA,incomplete,75,filling,0,right,Green_Circle_Grid_3.jpg,Green_Star_Dots_1.jpg,Purple_Triangle_Grid_2.jpg,right,784.0099999997765,true,high,NA,NA,NA,NA,NA,NA,NA,false
DTCvlr12,3tl87mo8dp2yrmmv0olc9pahdcwfly,31ibvunm9wc3abwj5uskli4aq6yvf0,DTCvlr12,2020-0188,2020-05-21,13:56:43,14:19:48,NA,incomplete,76,filling,1,right,Blue_Triangle_Dots_3.jpg,Blue_Star_Grid_4.jpg,Green_Circle_Dots_2.jpg,left,604.8500000002095,false,high,NA,NA,NA,NA,NA,NA,NA,false
DTCvlr12,3tl87mo8dp2yrmmv0olc9pahdcwfly,31ibvunm9wc3abwj5uskli4aq6yvf0,DTCvlr12,2020-0188,2020-05-21,13:56:43,14:19:48,NA,incomplete,77,filling,1,left,Red_Circle_Grid_2.jpg,Green_Triangle_Grid_3.jpg,Red_Plus_Stripes_1.jpg,right,641.7699999996694,false,high,NA,NA,NA,NA,NA,NA,NA,false
DTCvlr12,3tl87mo8dp2yrmmv0olc9pahdcwfly,31ibvunm9wc3abwj5uskli4aq6yvf0,DTCvlr12,2020-0188,2020-05-21,13:56:43,14:19:48,NA,incomplete,78,filling,1,right,Red_Circle_Grid_3.jpg,Red_Plus_Dots_2.jpg,Green_Triangle_Grid_4.jpg,right,931.7799999999115,true,high,NA,NA,NA,NA,NA,NA,NA,false
DTCvlr12,3tl87mo8dp2yrmmv0olc9pahdcwfly,31ibvunm9wc3abwj5uskli4aq6yvf0,DTCvlr12,2020-0188,2020-05-21,13:56:43,14:19:48,NA,incomplete,79,filling,1,right,Green_Circle_Dots_2.jpg,Green_Triangle_Chess_3.jpg,Purple_Plus_Dots_1.jpg,right,914.6799999998184,true,high,NA,NA,NA,NA,NA,NA,NA,false
DTCvlr12,3tl87mo8dp2yrmmv0olc9pahdcwfly,31ibvunm9wc3abwj5uskli4aq6yvf0,DTCvlr12,2020-0188,2020-05-21,13:56:43,14:19:48,NA,incomplete,80,color,1,left,Blue_Circle_Stripes_2.jpg,Blue_Plus_Grid_1.jpg,Green_Star_Stripes_4.jpg,left,947.4749999999767,true,high,NA,NA,NA,NA,NA,NA,NA,false
DTCvlr12,3tl87mo8dp2yrmmv0olc9pahdcwfly,31ibvunm9wc3abwj5uskli4aq6yvf0,DTCvlr12,2020-0188,2020-05-21,13:56:43,14:19:48,NA,incomplete,81,color,1,left,Purple_Plus_Stripes_1.jpg,Purple_Star_Grid_3.jpg,Blue_Circle_Stripes_2.jpg,left,666.3799999996554,true,high,NA,NA,NA,NA,NA,NA,NA,false
DTCvlr12,3tl87mo8dp2yrmmv0olc9pahdcwfly,31ibvunm9wc3abwj5uskli4aq6yvf0,DTCvlr12,2020-0188,2020-05-21,13:56:43,14:19:48,NA,incomplete,82,color,1,right,Green_Circle_Dots_1.jpg,Purple_Plus_Dots_4.jpg,Green_Star_Grid_2.jpg,right,588.2349999996368,true,high,NA,NA,NA,NA,NA,NA,NA,false
DTCvlr12,3tl87mo8dp2yrmmv0olc9pahdcwfly,31ibvunm9wc3abwj5uskli4aq6yvf0,DTCvlr12,2020-0188,2020-05-21,13:56:43,14:19:48,NA,incomplete,83,color,1,left,Blue_Plus_Stripes_4.jpg,Blue_Circle_Chess_3.jpg,Purple_Triangle_Stripes_1.jpg,left,577.1500000001397,true,high,NA,NA,NA,NA,NA,NA,NA,false
DTCvlr12,3tl87mo8dp2yrmmv0olc9pahdcwfly,31ibvunm9wc3abwj5uskli4aq6yvf0,DTCvlr12,2020-0188,2020-05-21,13:56:43,14:19:48,NA,incomplete,84,color,0,left,Red_Triangle_Stripes_4.jpg,Red_Star_Chess_1.jpg,Green_Circle_Stripes_2.jpg,left,527.035000000149,true,high,NA,NA,NA,NA,NA,NA,NA,false
DTCvlr12,3tl87mo8dp2yrmmv0olc9pahdcwfly,31ibvunm9wc3abwj5uskli4aq6yvf0,DTCvlr12,2020-0188,2020-05-21,13:56:43,14:19:48,NA,incomplete,85,color,1,right,Green_Star_Grid_1.jpg,Purple_Triangle_Grid_3.jpg,Green_Circle_Dots_4.jpg,left,1005.7649999998976,false,high,NA,NA,NA,NA,NA,NA,NA,false
DTCvlr12,3tl87mo8dp2yrmmv0olc9pahdcwfly,31ibvunm9wc3abwj5uskli4aq6yvf0,DTCvlr12,2020-0188,2020-05-21,13:56:43,14:19:48,NA,incomplete,86,color,1,left,Red_Triangle_Grid_1.jpg,Red_Circle_Dots_3.jpg,Blue_Star_Grid_2.jpg,left,689.7450000001118,true,high,NA,NA,NA,NA,NA,NA,NA,false
DTCvlr12,3tl87mo8dp2yrmmv0olc9pahdcwfly,31ibvunm9wc3abwj5uskli4aq6yvf0,DTCvlr12,2020-0188,2020-05-21,13:56:43,14:19:48,NA,incomplete,87,color,0,left,Purple_Circle_Stripes_4.jpg,Purple_Triangle_Dots_1.jpg,Red_Plus_Stripes_3.jpg,left,538.5899999997346,true,high,NA,NA,NA,NA,NA,NA,NA,false
DTCvlr12,3tl87mo8dp2yrmmv0olc9pahdcwfly,31ibvunm9wc3abwj5uskli4aq6yvf0,DTCvlr12,2020-0188,2020-05-21,13:56:43,14:19:48,NA,incomplete,88,color,1,left,Red_Circle_Grid_3.jpg,Red_Triangle_Dots_4.jpg,Blue_Star_Grid_2.jpg,left,641.5900000000838,true,high,NA,NA,NA,NA,NA,NA,NA,false
DTCvlr12,3tl87mo8dp2yrmmv0olc9pahdcwfly,31ibvunm9wc3abwj5uskli4aq6yvf0,DTCvlr12,2020-0188,2020-05-21,13:56:43,14:19:48,NA,incomplete,89,color,1,left,Red_Circle_Stripes_2.jpg,Red_Star_Dots_1.jpg,Green_Triangle_Stripes_3.jpg,left,572.4999999997672,true,high,NA,NA,NA,NA,NA,NA,NA,false
DTCvlr12,3tl87mo8dp2yrmmv0olc9pahdcwfly,31ibvunm9wc3abwj5uskli4aq6yvf0,DTCvlr12,2020-0188,2020-05-21,13:56:43,14:19:48,NA,incomplete,90,filling,0,left,Blue_Plus_Dots_2.jpg,Purple_Triangle_Dots_3.jpg,Blue_Star_Grid_4.jpg,right,562.390000000014,false,high,NA,NA,NA,NA,NA,NA,NA,false
DTCvlr12,3tl87mo8dp2yrmmv0olc9pahdcwfly,31ibvunm9wc3abwj5uskli4aq6yvf0,DTCvlr12,2020-0188,2020-05-21,13:56:43,14:19:48,NA,incomplete,91,filling,1,left,Blue_Plus_Dots_2.jpg,Purple_Triangle_Dots_1.jpg,Blue_Circle_Stripes_4.jpg,right,448.04499999957625,false,high,NA,NA,NA,NA,NA,NA,NA,false
DTCvlr12,3tl87mo8dp2yrmmv0olc9pahdcwfly,31ibvunm9wc3abwj5uskli4aq6yvf0,DTCvlr12,2020-0188,2020-05-21,13:56:43,14:19:48,NA,incomplete,92,filling,1,left,Green_Triangle_Dots_3.jpg,Red_Star_Dots_2.jpg,Green_Plus_Chess_1.jpg,left,1003.2750000000233,true,high,NA,NA,NA,NA,NA,NA,NA,false
DTCvlr12,3tl87mo8dp2yrmmv0olc9pahdcwfly,31ibvunm9wc3abwj5uskli4aq6yvf0,DTCvlr12,2020-0188,2020-05-21,13:56:43,14:19:48,NA,incomplete,93,filling,1,right,Purple_Plus_Dots_3.jpg,Purple_Triangle_Chess_2.jpg,Blue_Star_Dots_1.jpg,right,854.9100000000326,true,high,NA,NA,NA,NA,NA,NA,NA,false
DTCvlr12,3tl87mo8dp2yrmmv0olc9pahdcwfly,31ibvunm9wc3abwj5uskli4aq6yvf0,DTCvlr12,2020-0188,2020-05-21,13:56:43,14:19:48,NA,incomplete,94,filling,1,left,Red_Plus_Grid_3.jpg,Green_Triangle_Grid_2.jpg,Red_Circle_Chess_1.jpg,left,777.1749999996973,true,high,NA,NA,NA,NA,NA,NA,NA,false
DTCvlr12,3tl87mo8dp2yrmmv0olc9pahdcwfly,31ibvunm9wc3abwj5uskli4aq6yvf0,DTCvlr12,2020-0188,2020-05-21,13:56:43,14:19:48,NA,incomplete,95,filling,1,left,Red_Circle_Stripes_4.jpg,Purple_Triangle_Stripes_1.jpg,Red_Plus_Chess_3.jpg,left,950.5599999997066,true,high,NA,NA,NA,NA,NA,NA,NA,false
DTCvlr12,3tl87mo8dp2yrmmv0olc9pahdcwfly,31ibvunm9wc3abwj5uskli4aq6yvf0,DTCvlr12,2020-0188,2020-05-21,13:56:43,14:19:48,NA,incomplete,96,filling,1,right,Red_Triangle_Chess_2.jpg,Red_Plus_Stripes_3.jpg,Purple_Star_Chess_4.jpg,right,956.5100000000093,true,high,NA,NA,NA,NA,NA,NA,NA,false
DTCvlr12,3tl87mo8dp2yrmmv0olc9pahdcwfly,31ibvunm9wc3abwj5uskli4aq6yvf0,DTCvlr12,2020-0188,2020-05-21,13:56:43,14:19:48,NA,incomplete,97,filling,1,left,Red_Circle_Chess_3.jpg,Purple_Plus_Chess_4.jpg,Red_Triangle_Dots_2.jpg,left,883.6750000000466,true,high,NA,NA,NA,NA,NA,NA,NA,false
DTCvlr12,3tl87mo8dp2yrmmv0olc9pahdcwfly,31ibvunm9wc3abwj5uskli4aq6yvf0,DTCvlr12,2020-0188,2020-05-21,13:56:43,14:19:48,NA,incomplete,98,filling,1,right,Blue_Circle_Grid_3.jpg,Blue_Star_Stripes_2.jpg,Green_Triangle_Grid_1.jpg,right,892.4550000000745,true,high,NA,NA,NA,NA,NA,NA,NA,false
DTCvlr12,3tl87mo8dp2yrmmv0olc9pahdcwfly,31ibvunm9wc3abwj5uskli4aq6yvf0,DTCvlr12,2020-0188,2020-05-21,13:56:43,14:19:48,NA,incomplete,99,filling,1,left,Blue_Star_Chess_1.jpg,Red_Plus_Chess_2.jpg,Blue_Circle_Dots_3.jpg,left,1037.2950000001583,true,high,NA,NA,NA,NA,NA,NA,NA,false
DTCvlr12,3tl87mo8dp2yrmmv0olc9pahdcwfly,31ibvunm9wc3abwj5uskli4aq6yvf0,DTCvlr12,2020-0188,2020-05-21,13:56:43,14:19:48,NA,incomplete,100,color,1,right,Green_Circle_Grid_1.jpg,Purple_Plus_Grid_4.jpg,Green_Triangle_Stripes_2.jpg,left,1040.1449999999022,false,high,NA,NA,NA,NA,NA,NA,NA,false
DTCvlr12,3tl87mo8dp2yrmmv0olc9pahdcwfly,31ibvunm9wc3abwj5uskli4aq6yvf0,DTCvlr12,2020-0188,2020-05-21,13:56:43,14:19:48,NA,incomplete,101,color,0,right,Blue_Triangle_Chess_1.jpg,Purple_Plus_Chess_2.jpg,Blue_Star_Stripes_4.jpg,left,754.9949999997625,false,high,NA,NA,NA,NA,NA,NA,NA,false
DTCvlr12,3tl87mo8dp2yrmmv0olc9pahdcwfly,31ibvunm9wc3abwj5uskli4aq6yvf0,DTCvlr12,2020-0188,2020-05-21,13:56:43,14:19:48,NA,incomplete,102,color,1,right,Red_Circle_Stripes_3.jpg,Green_Triangle_Stripes_4.jpg,Red_Plus_Dots_1.jpg,left,800.7499999998836,false,high,NA,NA,NA,NA,NA,NA,NA,false
DTCvlr12,3tl87mo8dp2yrmmv0olc9pahdcwfly,31ibvunm9wc3abwj5uskli4aq6yvf0,DTCvlr12,2020-0188,2020-05-21,13:56:43,14:19:48,NA,incomplete,103,color,1,right,Green_Star_Stripes_3.jpg,Purple_Circle_Stripes_2.jpg,Green_Plus_Grid_1.jpg,left,812.7700000000186,false,high,NA,NA,NA,NA,NA,NA,NA,false
DTCvlr12,3tl87mo8dp2yrmmv0olc9pahdcwfly,31ibvunm9wc3abwj5uskli4aq6yvf0,DTCvlr12,2020-0188,2020-05-21,13:56:43,14:19:48,NA,incomplete,104,color,1,left,Purple_Star_Stripes_2.jpg,Purple_Triangle_Dots_3.jpg,Green_Plus_Stripes_4.jpg,left,631.4399999997113,true,high,NA,NA,NA,NA,NA,NA,NA,false
DTCvlr12,3tl87mo8dp2yrmmv0olc9pahdcwfly,31ibvunm9wc3abwj5uskli4aq6yvf0,DTCvlr12,2020-0188,2020-05-21,13:56:43,14:19:48,NA,incomplete,105,color,1,right,Blue_Plus_Stripes_4.jpg,Purple_Circle_Stripes_1.jpg,Blue_Triangle_Dots_2.jpg,right,684.5450000000419,true,high,NA,NA,NA,NA,NA,NA,NA,false
DTCvlr12,3tl87mo8dp2yrmmv0olc9pahdcwfly,31ibvunm9wc3abwj5uskli4aq6yvf0,DTCvlr12,2020-0188,2020-05-21,13:56:43,14:19:48,NA,incomplete,106,color,1,right,Purple_Circle_Grid_1.jpg,Blue_Triangle_Grid_2.jpg,Purple_Plus_Chess_4.jpg,right,748.359999999986,true,high,NA,NA,NA,NA,NA,NA,NA,false
DTCvlr12,3tl87mo8dp2yrmmv0olc9pahdcwfly,31ibvunm9wc3abwj5uskli4aq6yvf0,DTCvlr12,2020-0188,2020-05-21,13:56:43,14:19:48,NA,incomplete,107,color,1,left,Green_Plus_Dots_2.jpg,Green_Star_Grid_3.jpg,Blue_Circle_Dots_1.jpg,left,524.1500000001397,true,high,NA,NA,NA,NA,NA,NA,NA,false
DTCvlr12,3tl87mo8dp2yrmmv0olc9pahdcwfly,31ibvunm9wc3abwj5uskli4aq6yvf0,DTCvlr12,2020-0188,2020-05-21,13:56:43,14:19:48,NA,incomplete,108,color,1,left,Blue_Circle_Chess_2.jpg,Blue_Star_Dots_1.jpg,Red_Triangle_Chess_4.jpg,left,601.9799999999814,true,high,NA,NA,NA,NA,NA,NA,NA,false
DTCvlr12,3tl87mo8dp2yrmmv0olc9pahdcwfly,31ibvunm9wc3abwj5uskli4aq6yvf0,DTCvlr12,2020-0188,2020-05-21,13:56:43,14:19:48,NA,incomplete,109,color,0,right,Purple_Star_Dots_3.jpg,Green_Plus_Dots_2.jpg,Purple_Circle_Grid_4.jpg,right,503.3849999998929,true,high,NA,NA,NA,NA,NA,NA,NA,false
DTCvlr12,3tl87mo8dp2yrmmv0olc9pahdcwfly,31ibvunm9wc3abwj5uskli4aq6yvf0,DTCvlr12,2020-0188,2020-05-21,13:56:43,14:19:48,NA,incomplete,110,filling,1,left,Blue_Plus_Chess_1.jpg,Purple_Star_Chess_4.jpg,Blue_Triangle_Stripes_2.jpg,left,870.7199999998556,true,high,NA,NA,NA,NA,NA,NA,NA,false
DTCvlr12,3tl87mo8dp2yrmmv0olc9pahdcwfly,31ibvunm9wc3abwj5uskli4aq6yvf0,DTCvlr12,2020-0188,2020-05-21,13:56:43,14:19:48,NA,incomplete,111,filling,1,left,Blue_Triangle_Dots_3.jpg,Green_Star_Dots_1.jpg,Blue_Plus_Stripes_2.jpg,left,807.5300000000279,true,high,NA,NA,NA,NA,NA,NA,NA,false
DTCvlr12,3tl87mo8dp2yrmmv0olc9pahdcwfly,31ibvunm9wc3abwj5uskli4aq6yvf0,DTCvlr12,2020-0188,2020-05-21,13:56:43,14:19:48,NA,incomplete,112,filling,1,right,Red_Circle_Stripes_2.jpg,Red_Star_Chess_3.jpg,Purple_Triangle_Stripes_1.jpg,right,844.5600000000559,true,high,NA,NA,NA,NA,NA,NA,NA,false
DTCvlr12,3tl87mo8dp2yrmmv0olc9pahdcwfly,31ibvunm9wc3abwj5uskli4aq6yvf0,DTCvlr12,2020-0188,2020-05-21,13:56:43,14:19:48,NA,incomplete,113,filling,1,right,Red_Star_Chess_4.jpg,Red_Plus_Dots_3.jpg,Purple_Circle_Chess_1.jpg,right,782.3250000001863,true,high,NA,NA,NA,NA,NA,NA,NA,false
DTCvlr12,3tl87mo8dp2yrmmv0olc9pahdcwfly,31ibvunm9wc3abwj5uskli4aq6yvf0,DTCvlr12,2020-0188,2020-05-21,13:56:43,14:19:48,NA,incomplete,114,filling,1,left,Green_Star_Stripes_2.jpg,Blue_Circle_Stripes_4.jpg,Green_Plus_Grid_3.jpg,left,844.7000000000698,true,high,NA,NA,NA,NA,NA,NA,NA,false
DTCvlr12,3tl87mo8dp2yrmmv0olc9pahdcwfly,31ibvunm9wc3abwj5uskli4aq6yvf0,DTCvlr12,2020-0188,2020-05-21,13:56:43,14:19:48,NA,incomplete,115,filling,0,right,Green_Triangle_Grid_2.jpg,Green_Star_Chess_4.jpg,Purple_Circle_Grid_1.jpg,right,791.2149999997346,true,high,NA,NA,NA,NA,NA,NA,NA,false
DTCvlr12,3tl87mo8dp2yrmmv0olc9pahdcwfly,31ibvunm9wc3abwj5uskli4aq6yvf0,DTCvlr12,2020-0188,2020-05-21,13:56:43,14:19:48,NA,incomplete,116,filling,1,right,Green_Circle_Chess_1.jpg,Green_Triangle_Stripes_4.jpg,Red_Star_Chess_3.jpg,left,604.164999999688,false,high,NA,NA,NA,NA,NA,NA,NA,false
DTCvlr12,3tl87mo8dp2yrmmv0olc9pahdcwfly,31ibvunm9wc3abwj5uskli4aq6yvf0,DTCvlr12,2020-0188,2020-05-21,13:56:43,14:19:48,NA,incomplete,117,filling,1,left,Purple_Plus_Stripes_3.jpg,Green_Circle_Stripes_2.jpg,Purple_Triangle_Chess_1.jpg,left,967.9999999998836,true,high,NA,NA,NA,NA,NA,NA,NA,false
DTCvlr12,3tl87mo8dp2yrmmv0olc9pahdcwfly,31ibvunm9wc3abwj5uskli4aq6yvf0,DTCvlr12,2020-0188,2020-05-21,13:56:43,14:19:48,NA,incomplete,118,filling,1,left,Red_Triangle_Dots_1.jpg,Blue_Plus_Dots_4.jpg,Red_Circle_Chess_2.jpg,left,908.6000000002095,true,high,NA,NA,NA,NA,NA,NA,NA,false
DTCvlr12,3tl87mo8dp2yrmmv0olc9pahdcwfly,31ibvunm9wc3abwj5uskli4aq6yvf0,DTCvlr12,2020-0188,2020-05-21,13:56:43,14:19:48,NA,incomplete,119,filling,1,right,Blue_Star_Chess_2.jpg,Blue_Triangle_Stripes_1.jpg,Purple_Circle_Chess_4.jpg,right,852.7850000000326,true,high,NA,NA,NA,NA,NA,NA,NA,false
DTCvlr12,3tl87mo8dp2yrmmv0olc9pahdcwfly,31ibvunm9wc3abwj5uskli4aq6yvf0,DTCvlr12,2020-0188,2020-05-21,13:56:43,14:19:48,NA,incomplete,120,number,1,left,Red_Triangle_Chess_4.jpg,Purple_Circle_Grid_4.jpg,Blue_Triangle_Stripes_3.jpg,NA,NA,NA,high,NA,NA,NA,NA,NA,NA,NA,false
DTCvlr12,3tl87mo8dp2yrmmv0olc9pahdcwfly,31ibvunm9wc3abwj5uskli4aq6yvf0,DTCvlr12,2020-0188,2020-05-21,13:56:43,14:19:48,NA,incomplete,121,number,1,right,Blue_Plus_Grid_1.jpg,Green_Plus_Chess_3.jpg,Red_Circle_Stripes_1.jpg,right,1864.1450000000186,true,high,NA,NA,NA,NA,NA,NA,NA,false
DTCvlr12,3tl87mo8dp2yrmmv0olc9pahdcwfly,31ibvunm9wc3abwj5uskli4aq6yvf0,DTCvlr12,2020-0188,2020-05-21,13:56:43,14:19:48,NA,incomplete,122,number,1,right,Green_Circle_Stripes_2.jpg,Purple_Circle_Dots_1.jpg,Red_Plus_Chess_2.jpg,right,1074.3599999998696,true,high,NA,NA,NA,NA,NA,NA,NA,false
DTCvlr12,3tl87mo8dp2yrmmv0olc9pahdcwfly,31ibvunm9wc3abwj5uskli4aq6yvf0,DTCvlr12,2020-0188,2020-05-21,13:56:43,14:19:48,NA,incomplete,123,number,0,right,Blue_Triangle_Dots_2.jpg,Purple_Triangle_Stripes_3.jpg,Green_Circle_Grid_2.jpg,right,1105.065000000177,true,high,NA,NA,NA,NA,NA,NA,NA,false
DTCvlr12,3tl87mo8dp2yrmmv0olc9pahdcwfly,31ibvunm9wc3abwj5uskli4aq6yvf0,DTCvlr12,2020-0188,2020-05-21,13:56:43,14:19:48,NA,incomplete,124,number,1,left,Red_Star_Chess_3.jpg,Purple_Circle_Dots_3.jpg,Green_Star_Stripes_2.jpg,left,1155.7400000002235,true,high,NA,NA,NA,NA,NA,NA,NA,false
DTCvlr12,3tl87mo8dp2yrmmv0olc9pahdcwfly,31ibvunm9wc3abwj5uskli4aq6yvf0,DTCvlr12,2020-0188,2020-05-21,13:56:43,14:19:48,NA,incomplete,125,number,1,right,Red_Star_Dots_1.jpg,Blue_Star_Stripes_4.jpg,Purple_Triangle_Chess_1.jpg,right,729.4899999997579,true,high,NA,NA,NA,NA,NA,NA,NA,false
DTCvlr12,3tl87mo8dp2yrmmv0olc9pahdcwfly,31ibvunm9wc3abwj5uskli4aq6yvf0,DTCvlr12,2020-0188,2020-05-21,13:56:43,14:19:48,NA,incomplete,126,number,1,left,Red_Circle_Chess_4.jpg,Blue_Plus_Dots_4.jpg,Green_Circle_Stripes_1.jpg,left,737.2849999996834,true,high,NA,NA,NA,NA,NA,NA,NA,false
DTCvlr12,3tl87mo8dp2yrmmv0olc9pahdcwfly,31ibvunm9wc3abwj5uskli4aq6yvf0,DTCvlr12,2020-0188,2020-05-21,13:56:43,14:19:48,NA,incomplete,127,number,1,right,Purple_Circle_Chess_4.jpg,Red_Circle_Dots_2.jpg,Blue_Triangle_Grid_4.jpg,right,640.2900000002701,true,high,NA,NA,NA,NA,NA,NA,NA,false
DTCvlr12,3tl87mo8dp2yrmmv0olc9pahdcwfly,31ibvunm9wc3abwj5uskli4aq6yvf0,DTCvlr12,2020-0188,2020-05-21,13:56:43,14:19:48,NA,incomplete,128,number,1,left,Purple_Plus_Dots_1.jpg,Red_Triangle_Chess_1.jpg,Blue_Plus_Stripes_3.jpg,left,561.9850000003353,true,high,NA,NA,NA,NA,NA,NA,NA,false
DTCvlr12,3tl87mo8dp2yrmmv0olc9pahdcwfly,31ibvunm9wc3abwj5uskli4aq6yvf0,DTCvlr12,2020-0188,2020-05-21,13:56:43,14:19:48,NA,incomplete,129,number,1,left,Red_Circle_Grid_4.jpg,Blue_Triangle_Stripes_4.jpg,Purple_Circle_Chess_2.jpg,left,673.0300000000279,true,high,NA,NA,NA,NA,NA,NA,NA,false
DTCvlr12,3tl87mo8dp2yrmmv0olc9pahdcwfly,31ibvunm9wc3abwj5uskli4aq6yvf0,DTCvlr12,2020-0188,2020-05-21,13:56:43,14:19:48,NA,incomplete,130,number,1,left,Blue_Star_Dots_2.jpg,Green_Circle_Stripes_2.jpg,Red_Star_Chess_4.jpg,left,673.679999999702,true,high,NA,NA,NA,NA,NA,NA,NA,false
DTCvlr12,3tl87mo8dp2yrmmv0olc9pahdcwfly,31ibvunm9wc3abwj5uskli4aq6yvf0,DTCvlr12,2020-0188,2020-05-21,13:56:43,14:19:48,NA,incomplete,131,number,1,right,Purple_Circle_Chess_2.jpg,Green_Circle_Dots_1.jpg,Red_Star_Stripes_2.jpg,right,651.7049999996088,true,high,NA,NA,NA,NA,NA,NA,NA,false
DTCvlr12,3tl87mo8dp2yrmmv0olc9pahdcwfly,31ibvunm9wc3abwj5uskli4aq6yvf0,DTCvlr12,2020-0188,2020-05-21,13:56:43,14:19:48,NA,incomplete,132,number,1,right,Blue_Plus_Chess_1.jpg,Green_Plus_Stripes_3.jpg,Red_Triangle_Grid_1.jpg,right,582.125,true,high,NA,NA,NA,NA,NA,NA,NA,false
DTCvlr12,3tl87mo8dp2yrmmv0olc9pahdcwfly,31ibvunm9wc3abwj5uskli4aq6yvf0,DTCvlr12,2020-0188,2020-05-21,13:56:43,14:19:48,NA,incomplete,133,number,0,left,Purple_Plus_Grid_2.jpg,Green_Circle_Chess_2.jpg,Red_Plus_Dots_3.jpg,left,826.5949999999721,true,high,NA,NA,NA,NA,NA,NA,NA,false
DTCvlr12,3tl87mo8dp2yrmmv0olc9pahdcwfly,31ibvunm9wc3abwj5uskli4aq6yvf0,DTCvlr12,2020-0188,2020-05-21,13:56:43,14:19:48,NA,incomplete,134,number,1,left,Blue_Circle_Dots_1.jpg,Green_Star_Grid_1.jpg,Purple_Circle_Stripes_4.jpg,left,693.3800000003539,true,high,NA,NA,NA,NA,NA,NA,NA,false
DTCvlr12,3tl87mo8dp2yrmmv0olc9pahdcwfly,31ibvunm9wc3abwj5uskli4aq6yvf0,DTCvlr12,2020-0188,2020-05-21,13:56:43,14:19:48,NA,incomplete,135,number,1,left,Purple_Star_Stripes_3.jpg,Green_Plus_Dots_3.jpg,Blue_Star_Grid_4.jpg,right,831.010000000475,false,high,NA,NA,NA,NA,NA,NA,NA,false
DTCvlr12,3tl87mo8dp2yrmmv0olc9pahdcwfly,31ibvunm9wc3abwj5uskli4aq6yvf0,DTCvlr12,2020-0188,2020-05-21,13:56:43,14:19:48,NA,incomplete,136,number,1,left,Green_Plus_Chess_4.jpg,Blue_Triangle_Grid_4.jpg,Red_Plus_Stripes_2.jpg,left,762.1900000004098,true,high,NA,NA,NA,NA,NA,NA,NA,false
DTCvlr12,3tl87mo8dp2yrmmv0olc9pahdcwfly,31ibvunm9wc3abwj5uskli4aq6yvf0,DTCvlr12,2020-0188,2020-05-21,13:56:43,14:19:48,NA,incomplete,137,number,0,left,Red_Plus_Chess_2.jpg,Blue_Triangle_Grid_2.jpg,Purple_Plus_Stripes_3.jpg,left,657.0300000002608,true,high,NA,NA,NA,NA,NA,NA,NA,false
DTCvlr12,3tl87mo8dp2yrmmv0olc9pahdcwfly,31ibvunm9wc3abwj5uskli4aq6yvf0,DTCvlr12,2020-0188,2020-05-21,13:56:43,14:19:48,NA,incomplete,138,number,1,left,Green_Triangle_Dots_1.jpg,Red_Circle_Grid_1.jpg,Purple_Triangle_Stripes_4.jpg,left,609.6799999999348,true,high,NA,NA,NA,NA,NA,NA,NA,false
DTCvlr12,3tl87mo8dp2yrmmv0olc9pahdcwfly,31ibvunm9wc3abwj5uskli4aq6yvf0,DTCvlr12,2020-0188,2020-05-21,13:56:43,14:19:48,NA,incomplete,139,number,1,right,Blue_Triangle_Dots_4.jpg,Red_Triangle_Grid_2.jpg,Purple_Circle_Stripes_4.jpg,right,686.6100000003353,true,high,NA,NA,NA,NA,NA,NA,NA,false
DTCvlr12,3tl87mo8dp2yrmmv0olc9pahdcwfly,31ibvunm9wc3abwj5uskli4aq6yvf0,DTCvlr12,2020-0188,2020-05-21,13:56:43,14:19:48,NA,incomplete,140,shape,1,left,Blue_Circle_Dots_1.jpg,Red_Circle_Chess_3.jpg,Green_Triangle_Grid_1.jpg,right,623.5849999999627,false,high,NA,NA,NA,NA,NA,NA,NA,false
DTCvlr12,3tl87mo8dp2yrmmv0olc9pahdcwfly,31ibvunm9wc3abwj5uskli4aq6yvf0,DTCvlr12,2020-0188,2020-05-21,13:56:43,14:19:48,NA,incomplete,141,shape,1,right,Green_Circle_Grid_4.jpg,Red_Triangle_Stripes_4.jpg,Blue_Circle_Dots_3.jpg,left,938.6199999998789,false,high,NA,NA,NA,NA,NA,NA,NA,false
DTCvlr12,3tl87mo8dp2yrmmv0olc9pahdcwfly,31ibvunm9wc3abwj5uskli4aq6yvf0,DTCvlr12,2020-0188,2020-05-21,13:56:43,14:19:48,NA,incomplete,142,shape,1,left,Blue_Star_Dots_1.jpg,Red_Star_Grid_4.jpg,Purple_Circle_Stripes_1.jpg,right,561.3999999999069,false,high,NA,NA,NA,NA,NA,NA,NA,false
DTCvlr12,3tl87mo8dp2yrmmv0olc9pahdcwfly,31ibvunm9wc3abwj5uskli4aq6yvf0,DTCvlr12,2020-0188,2020-05-21,13:56:43,14:19:48,NA,incomplete,143,shape,1,left,Green_Triangle_Chess_4.jpg,Red_Triangle_Dots_2.jpg,Blue_Circle_Stripes_4.jpg,right,671.0400000002701,false,high,NA,NA,NA,NA,NA,NA,NA,false
DTCvlr12,3tl87mo8dp2yrmmv0olc9pahdcwfly,31ibvunm9wc3abwj5uskli4aq6yvf0,DTCvlr12,2020-0188,2020-05-21,13:56:43,14:19:48,NA,incomplete,144,shape,1,left,Red_Triangle_Stripes_2.jpg,Green_Triangle_Dots_1.jpg,Purple_Star_Grid_2.jpg,right,961.1899999999441,false,high,NA,NA,NA,NA,NA,NA,NA,false
DTCvlr12,3tl87mo8dp2yrmmv0olc9pahdcwfly,31ibvunm9wc3abwj5uskli4aq6yvf0,DTCvlr12,2020-0188,2020-05-21,13:56:43,14:19:48,NA,incomplete,145,shape,1,right,Green_Circle_Grid_2.jpg,Purple_Plus_Stripes_2.jpg,Red_Circle_Dots_4.jpg,left,1142.83499999973,false,high,NA,NA,NA,NA,NA,NA,NA,false
DTCvlr12,3tl87mo8dp2yrmmv0olc9pahdcwfly,31ibvunm9wc3abwj5uskli4aq6yvf0,DTCvlr12,2020-0188,2020-05-21,13:56:43,14:19:48,NA,incomplete,146,shape,1,right,Purple_Star_Stripes_2.jpg,Blue_Plus_Grid_2.jpg,Green_Star_Chess_4.jpg,right,1085.8199999995995,true,high,NA,NA,NA,NA,NA,NA,NA,false
DTCvlr12,3tl87mo8dp2yrmmv0olc9pahdcwfly,31ibvunm9wc3abwj5uskli4aq6yvf0,DTCvlr12,2020-0188,2020-05-21,13:56:43,14:19:48,NA,incomplete,147,shape,0,right,Green_Circle_Dots_1.jpg,Purple_Plus_Chess_1.jpg,Blue_Circle_Grid_3.jpg,right,862.7950000001583,true,high,NA,NA,NA,NA,NA,NA,NA,false
DTCvlr12,3tl87mo8dp2yrmmv0olc9pahdcwfly,31ibvunm9wc3abwj5uskli4aq6yvf0,DTCvlr12,2020-0188,2020-05-21,13:56:43,14:19:48,NA,incomplete,148,shape,1,right,Purple_Circle_Stripes_2.jpg,Red_Triangle_Chess_2.jpg,Green_Circle_Grid_3.jpg,left,1057.3249999997206,false,high,NA,NA,NA,NA,NA,NA,NA,false
DTCvlr12,3tl87mo8dp2yrmmv0olc9pahdcwfly,31ibvunm9wc3abwj5uskli4aq6yvf0,DTCvlr12,2020-0188,2020-05-21,13:56:43,14:19:48,NA,incomplete,149,shape,1,left,Red_Triangle_Dots_4.jpg,Purple_Triangle_Chess_3.jpg,Blue_Circle_Stripes_4.jpg,right,1460.4250000000466,false,high,NA,NA,NA,NA,NA,NA,NA,false
DTCvlr12,3tl87mo8dp2yrmmv0olc9pahdcwfly,31ibvunm9wc3abwj5uskli4aq6yvf0,DTCvlr12,2020-0188,2020-05-21,13:56:43,14:19:48,NA,incomplete,150,shape,1,left,Purple_Triangle_Grid_4.jpg,Green_Triangle_Chess_2.jpg,Blue_Plus_Dots_4.jpg,left,1436.1900000004098,true,high,NA,NA,NA,NA,NA,NA,NA,false
DTCvlr12,3tl87mo8dp2yrmmv0olc9pahdcwfly,31ibvunm9wc3abwj5uskli4aq6yvf0,DTCvlr12,2020-0188,2020-05-21,13:56:43,14:19:48,NA,incomplete,151,shape,1,right,Blue_Plus_Dots_4.jpg,Purple_Star_Grid_4.jpg,Green_Plus_Stripes_3.jpg,right,768.160000000149,true,high,NA,NA,NA,NA,NA,NA,NA,false
DTCvlr12,3tl87mo8dp2yrmmv0olc9pahdcwfly,31ibvunm9wc3abwj5uskli4aq6yvf0,DTCvlr12,2020-0188,2020-05-21,13:56:43,14:19:48,NA,incomplete,152,shape,1,left,Blue_Circle_Dots_3.jpg,Green_Circle_Stripes_1.jpg,Red_Plus_Grid_3.jpg,left,980.8299999998417,true,high,NA,NA,NA,NA,NA,NA,NA,false
DTCvlr12,3tl87mo8dp2yrmmv0olc9pahdcwfly,31ibvunm9wc3abwj5uskli4aq6yvf0,DTCvlr12,2020-0188,2020-05-21,13:56:43,14:19:48,NA,incomplete,153,shape,0,right,Blue_Circle_Grid_1.jpg,Purple_Plus_Chess_1.jpg,Green_Circle_Dots_4.jpg,left,802.7949999999255,false,high,NA,NA,NA,NA,NA,NA,NA,false
DTCvlr12,3tl87mo8dp2yrmmv0olc9pahdcwfly,31ibvunm9wc3abwj5uskli4aq6yvf0,DTCvlr12,2020-0188,2020-05-21,13:56:43,14:19:48,NA,incomplete,154,shape,1,right,Green_Circle_Chess_1.jpg,Red_Star_Stripes_1.jpg,Purple_Circle_Grid_4.jpg,left,758.6449999997858,false,high,NA,NA,NA,NA,NA,NA,NA,false
DTCvlr12,3tl87mo8dp2yrmmv0olc9pahdcwfly,31ibvunm9wc3abwj5uskli4aq6yvf0,DTCvlr12,2020-0188,2020-05-21,13:56:43,14:19:48,NA,incomplete,155,shape,1,right,Green_Circle_Grid_4.jpg,Blue_Plus_Dots_4.jpg,Purple_Circle_Chess_2.jpg,left,692.4299999999348,false,high,NA,NA,NA,NA,NA,NA,NA,false
DTCvlr12,3tl87mo8dp2yrmmv0olc9pahdcwfly,31ibvunm9wc3abwj5uskli4aq6yvf0,DTCvlr12,2020-0188,2020-05-21,13:56:43,14:19:48,NA,incomplete,156,shape,1,right,Purple_Star_Grid_1.jpg,Red_Triangle_Chess_1.jpg,Blue_Star_Dots_4.jpg,right,765.4699999997392,true,high,NA,NA,NA,NA,NA,NA,NA,false
DTCvlr12,3tl87mo8dp2yrmmv0olc9pahdcwfly,31ibvunm9wc3abwj5uskli4aq6yvf0,DTCvlr12,2020-0188,2020-05-21,13:56:43,14:19:48,NA,incomplete,157,shape,0,right,Purple_Plus_Chess_4.jpg,Green_Star_Stripes_4.jpg,Blue_Plus_Dots_3.jpg,right,947.2749999999069,true,high,NA,NA,NA,NA,NA,NA,NA,false
DTCvlr12,3tl87mo8dp2yrmmv0olc9pahdcwfly,31ibvunm9wc3abwj5uskli4aq6yvf0,DTCvlr12,2020-0188,2020-05-21,13:56:43,14:19:48,NA,incomplete,158,shape,1,right,Green_Circle_Grid_1.jpg,Blue_Plus_Chess_1.jpg,Purple_Circle_Dots_3.jpg,right,674.2000000004191,true,high,NA,NA,NA,NA,NA,NA,NA,false
DTCvlr12,3tl87mo8dp2yrmmv0olc9pahdcwfly,31ibvunm9wc3abwj5uskli4aq6yvf0,DTCvlr12,2020-0188,2020-05-21,13:56:43,14:19:48,NA,incomplete,159,shape,0,left,Purple_Triangle_Chess_1.jpg,Green_Triangle_Stripes_3.jpg,Red_Star_Grid_1.jpg,right,843.8900000001304,false,high,NA,NA,NA,NA,NA,NA,NA,false
DTCvlr12,3tl87mo8dp2yrmmv0olc9pahdcwfly,31ibvunm9wc3abwj5uskli4aq6yvf0,DTCvlr12,2020-0188,2020-05-21,13:56:43,14:19:48,NA,incomplete,160,number,1,left,Red_Star_Dots_2.jpg,Purple_Circle_Stripes_2.jpg,Blue_Star_Grid_3.jpg,left,742.7649999998976,true,high,NA,NA,NA,NA,NA,NA,NA,false
DTCvlr12,3tl87mo8dp2yrmmv0olc9pahdcwfly,31ibvunm9wc3abwj5uskli4aq6yvf0,DTCvlr12,2020-0188,2020-05-21,13:56:43,14:19:48,NA,incomplete,161,number,0,right,Blue_Plus_Stripes_4.jpg,Green_Plus_Chess_3.jpg,Red_Star_Grid_4.jpg,right,765.8700000003446,true,high,NA,NA,NA,NA,NA,NA,NA,false
DTCvlr12,3tl87mo8dp2yrmmv0olc9pahdcwfly,31ibvunm9wc3abwj5uskli4aq6yvf0,DTCvlr12,2020-0188,2020-05-21,13:56:43,14:19:48,NA,incomplete,162,number,1,right,Blue_Circle_Dots_3.jpg,Purple_Circle_Stripes_2.jpg,Green_Plus_Chess_3.jpg,right,922.4099999996834,true,high,NA,NA,NA,NA,NA,NA,NA,false
DTCvlr12,3tl87mo8dp2yrmmv0olc9pahdcwfly,31ibvunm9wc3abwj5uskli4aq6yvf0,DTCvlr12,2020-0188,2020-05-21,13:56:43,14:19:48,NA,incomplete,163,number,1,left,Blue_Star_Dots_2.jpg,Purple_Plus_Chess_2.jpg,Green_Star_Grid_4.jpg,left,843.4950000001118,true,high,NA,NA,NA,NA,NA,NA,NA,false
DTCvlr12,3tl87mo8dp2yrmmv0olc9pahdcwfly,31ibvunm9wc3abwj5uskli4aq6yvf0,DTCvlr12,2020-0188,2020-05-21,13:56:43,14:19:48,NA,incomplete,164,number,1,left,Red_Circle_Dots_4.jpg,Purple_Plus_Stripes_4.jpg,Green_Circle_Chess_2.jpg,left,733.4599999999627,true,high,NA,NA,NA,NA,NA,NA,NA,false
DTCvlr12,3tl87mo8dp2yrmmv0olc9pahdcwfly,31ibvunm9wc3abwj5uskli4aq6yvf0,DTCvlr12,2020-0188,2020-05-21,13:56:43,14:19:48,NA,incomplete,165,number,1,left,Red_Star_Dots_1.jpg,Green_Plus_Stripes_1.jpg,Purple_Star_Chess_2.jpg,left,1132.1450000000186,true,high,NA,NA,NA,NA,NA,NA,NA,false
DTCvlr12,3tl87mo8dp2yrmmv0olc9pahdcwfly,31ibvunm9wc3abwj5uskli4aq6yvf0,DTCvlr12,2020-0188,2020-05-21,13:56:43,14:19:48,NA,incomplete,166,number,1,right,Green_Plus_Chess_1.jpg,Red_Plus_Dots_4.jpg,Blue_Circle_Grid_1.jpg,right,587.4350000000559,true,high,NA,NA,NA,NA,NA,NA,NA,false
DTCvlr12,3tl87mo8dp2yrmmv0olc9pahdcwfly,31ibvunm9wc3abwj5uskli4aq6yvf0,DTCvlr12,2020-0188,2020-05-21,13:56:43,14:19:48,NA,incomplete,167,number,1,left,Green_Star_Stripes_1.jpg,Blue_Plus_Grid_1.jpg,Red_Star_Chess_2.jpg,left,687.9449999998324,true,high,NA,NA,NA,NA,NA,NA,NA,false
DTCvlr12,3tl87mo8dp2yrmmv0olc9pahdcwfly,31ibvunm9wc3abwj5uskli4aq6yvf0,DTCvlr12,2020-0188,2020-05-21,13:56:43,14:19:48,NA,incomplete,168,number,1,left,Purple_Plus_Dots_3.jpg,Blue_Triangle_Chess_3.jpg,Red_Plus_Stripes_4.jpg,left,826.7550000001211,true,high,NA,NA,NA,NA,NA,NA,NA,false
DTCvlr12,3tl87mo8dp2yrmmv0olc9pahdcwfly,31ibvunm9wc3abwj5uskli4aq6yvf0,DTCvlr12,2020-0188,2020-05-21,13:56:43,14:19:48,NA,incomplete,169,number,1,right,Purple_Triangle_Grid_3.jpg,Green_Triangle_Dots_2.jpg,Red_Circle_Chess_3.jpg,right,780.7200000002049,true,high,NA,NA,NA,NA,NA,NA,NA,false
DTCvlr12,3tl87mo8dp2yrmmv0olc9pahdcwfly,31ibvunm9wc3abwj5uskli4aq6yvf0,DTCvlr12,2020-0188,2020-05-21,13:56:43,14:19:48,NA,incomplete,170,number,1,left,Red_Plus_Dots_1.jpg,Blue_Triangle_Chess_1.jpg,Purple_Plus_Stripes_2.jpg,left,633.4599999994971,true,high,NA,NA,NA,NA,NA,NA,NA,false
DTCvlr12,3tl87mo8dp2yrmmv0olc9pahdcwfly,31ibvunm9wc3abwj5uskli4aq6yvf0,DTCvlr12,2020-0188,2020-05-21,13:56:43,14:19:48,NA,incomplete,171,number,1,right,Green_Triangle_Chess_1.jpg,Blue_Triangle_Grid_4.jpg,Red_Plus_Stripes_1.jpg,right,635.8349999999627,true,high,NA,NA,NA,NA,NA,NA,NA,false
DTCvlr12,3tl87mo8dp2yrmmv0olc9pahdcwfly,31ibvunm9wc3abwj5uskli4aq6yvf0,DTCvlr12,2020-0188,2020-05-21,13:56:43,14:19:48,NA,incomplete,172,number,1,left,Purple_Circle_Stripes_4.jpg,Green_Star_Grid_4.jpg,Blue_Circle_Chess_3.jpg,left,919.3500000000931,true,high,NA,NA,NA,NA,NA,NA,NA,false
DTCvlr12,3tl87mo8dp2yrmmv0olc9pahdcwfly,31ibvunm9wc3abwj5uskli4aq6yvf0,DTCvlr12,2020-0188,2020-05-21,13:56:43,14:19:48,NA,incomplete,173,number,1,right,Red_Plus_Dots_3.jpg,Green_Plus_Chess_2.jpg,Purple_Circle_Stripes_3.jpg,right,639.0600000002887,true,high,NA,NA,NA,NA,NA,NA,NA,false
DTCvlr12,3tl87mo8dp2yrmmv0olc9pahdcwfly,31ibvunm9wc3abwj5uskli4aq6yvf0,DTCvlr12,2020-0188,2020-05-21,13:56:43,14:19:48,NA,incomplete,174,number,1,left,Red_Plus_Chess_4.jpg,Purple_Star_Dots_4.jpg,Green_Plus_Grid_2.jpg,left,792.934999999823,true,high,NA,NA,NA,NA,NA,NA,NA,false
DTCvlr12,3tl87mo8dp2yrmmv0olc9pahdcwfly,31ibvunm9wc3abwj5uskli4aq6yvf0,DTCvlr12,2020-0188,2020-05-21,13:56:43,14:19:48,NA,incomplete,175,number,1,right,Red_Star_Stripes_4.jpg,Blue_Star_Dots_1.jpg,Green_Triangle_Grid_4.jpg,right,622.809999999823,true,high,NA,NA,NA,NA,NA,NA,NA,false
DTCvlr12,3tl87mo8dp2yrmmv0olc9pahdcwfly,31ibvunm9wc3abwj5uskli4aq6yvf0,DTCvlr12,2020-0188,2020-05-21,13:56:43,14:19:48,NA,incomplete,176,number,0,right,Blue_Circle_Chess_2.jpg,Green_Circle_Grid_4.jpg,Purple_Plus_Dots_2.jpg,right,658.190000000177,true,high,NA,NA,NA,NA,NA,NA,NA,false
DTCvlr12,3tl87mo8dp2yrmmv0olc9pahdcwfly,31ibvunm9wc3abwj5uskli4aq6yvf0,DTCvlr12,2020-0188,2020-05-21,13:56:43,14:19:48,NA,incomplete,177,number,1,left,Blue_Plus_Chess_1.jpg,Green_Circle_Grid_1.jpg,Red_Plus_Dots_3.jpg,left,683.625,true,high,NA,NA,NA,NA,NA,NA,NA,false
DTCvlr12,3tl87mo8dp2yrmmv0olc9pahdcwfly,31ibvunm9wc3abwj5uskli4aq6yvf0,DTCvlr12,2020-0188,2020-05-21,13:56:43,14:19:48,NA,incomplete,178,number,1,left,Green_Star_Grid_4.jpg,Red_Circle_Stripes_4.jpg,Purple_Star_Chess_2.jpg,left,836.3850000000093,true,high,NA,NA,NA,NA,NA,NA,NA,false
DTCvlr12,3tl87mo8dp2yrmmv0olc9pahdcwfly,31ibvunm9wc3abwj5uskli4aq6yvf0,DTCvlr12,2020-0188,2020-05-21,13:56:43,14:19:48,NA,incomplete,179,number,0,right,Blue_Circle_Grid_3.jpg,Purple_Circle_Dots_4.jpg,Red_Triangle_Chess_3.jpg,right,647.4450000000652,true,high,NA,NA,NA,NA,NA,NA,NA,false
DTCvlr12,3tl87mo8dp2yrmmv0olc9pahdcwfly,31ibvunm9wc3abwj5uskli4aq6yvf0,DTCvlr12,2020-0188,2020-05-21,13:56:43,14:19:48,NA,incomplete,180,shape,1,left,Red_Circle_Dots_4.jpg,Blue_Circle_Grid_3.jpg,Purple_Star_Chess_4.jpg,right,706.1900000004098,false,high,NA,NA,NA,NA,NA,NA,NA,false
DTCvlr12,3tl87mo8dp2yrmmv0olc9pahdcwfly,31ibvunm9wc3abwj5uskli4aq6yvf0,DTCvlr12,2020-0188,2020-05-21,13:56:43,14:19:48,NA,incomplete,181,shape,0,right,Green_Circle_Dots_1.jpg,Purple_Star_Chess_1.jpg,Red_Circle_Stripes_4.jpg,right,754.5049999998882,true,high,NA,NA,NA,NA,NA,NA,NA,false
DTCvlr12,3tl87mo8dp2yrmmv0olc9pahdcwfly,31ibvunm9wc3abwj5uskli4aq6yvf0,DTCvlr12,2020-0188,2020-05-21,13:56:43,14:19:48,NA,incomplete,182,shape,1,left,Purple_Plus_Stripes_2.jpg,Red_Plus_Chess_3.jpg,Blue_Star_Dots_2.jpg,right,807.9299999999348,false,high,NA,NA,NA,NA,NA,NA,NA,false
DTCvlr12,3tl87mo8dp2yrmmv0olc9pahdcwfly,31ibvunm9wc3abwj5uskli4aq6yvf0,DTCvlr12,2020-0188,2020-05-21,13:56:43,14:19:48,NA,incomplete,183,shape,0,left,Purple_Triangle_Chess_2.jpg,Red_Triangle_Dots_1.jpg,Green_Star_Stripes_2.jpg,right,1195.9099999999162,false,high,NA,NA,NA,NA,NA,NA,NA,false
DTCvlr12,3tl87mo8dp2yrmmv0olc9pahdcwfly,31ibvunm9wc3abwj5uskli4aq6yvf0,DTCvlr12,2020-0188,2020-05-21,13:56:43,14:19:48,NA,incomplete,184,shape,1,left,Purple_Star_Grid_2.jpg,Green_Star_Stripes_4.jpg,Red_Triangle_Dots_2.jpg,right,713.8000000000466,false,high,NA,NA,NA,NA,NA,NA,NA,false
DTCvlr12,3tl87mo8dp2yrmmv0olc9pahdcwfly,31ibvunm9wc3abwj5uskli4aq6yvf0,DTCvlr12,2020-0188,2020-05-21,13:56:43,14:19:48,NA,incomplete,185,shape,1,left,Purple_Triangle_Chess_2.jpg,Blue_Triangle_Stripes_1.jpg,Red_Star_Dots_2.jpg,right,616.6799999999348,false,high,NA,NA,NA,NA,NA,NA,NA,false
DTCvlr12,3tl87mo8dp2yrmmv0olc9pahdcwfly,31ibvunm9wc3abwj5uskli4aq6yvf0,DTCvlr12,2020-0188,2020-05-21,13:56:43,14:19:48,NA,incomplete,186,shape,0,left,Blue_Plus_Dots_1.jpg,Green_Plus_Chess_4.jpg,Red_Triangle_Stripes_1.jpg,right,716.6700000001583,false,high,NA,NA,NA,NA,NA,NA,NA,false
DTCvlr12,3tl87mo8dp2yrmmv0olc9pahdcwfly,31ibvunm9wc3abwj5uskli4aq6yvf0,DTCvlr12,2020-0188,2020-05-21,13:56:43,14:19:48,NA,incomplete,187,shape,1,left,Blue_Star_Dots_3.jpg,Red_Star_Stripes_1.jpg,Green_Triangle_Grid_3.jpg,right,796.4099999999162,false,high,NA,NA,NA,NA,NA,NA,NA,false
DTCvlr12,3tl87mo8dp2yrmmv0olc9pahdcwfly,31ibvunm9wc3abwj5uskli4aq6yvf0,DTCvlr12,2020-0188,2020-05-21,13:56:43,14:19:48,NA,incomplete,188,shape,0,left,Red_Triangle_Grid_2.jpg,Green_Triangle_Dots_4.jpg,Blue_Star_Chess_2.jpg,right,833.2399999999907,false,high,NA,NA,NA,NA,NA,NA,NA,false
DTCvlr12,3tl87mo8dp2yrmmv0olc9pahdcwfly,31ibvunm9wc3abwj5uskli4aq6yvf0,DTCvlr12,2020-0188,2020-05-21,13:56:43,14:19:48,NA,incomplete,189,shape,1,left,Blue_Star_Dots_1.jpg,Red_Star_Chess_3.jpg,Green_Plus_Grid_1.jpg,right,597.179999999702,false,high,NA,NA,NA,NA,NA,NA,NA,false
DTCvlr12,3tl87mo8dp2yrmmv0olc9pahdcwfly,31ibvunm9wc3abwj5uskli4aq6yvf0,DTCvlr12,2020-0188,2020-05-21,13:56:43,14:19:48,NA,incomplete,190,shape,1,right,Green_Star_Chess_2.jpg,Red_Plus_Stripes_2.jpg,Purple_Star_Grid_3.jpg,left,800.9200000001583,false,high,NA,NA,NA,NA,NA,NA,NA,false
DTCvlr12,3tl87mo8dp2yrmmv0olc9pahdcwfly,31ibvunm9wc3abwj5uskli4aq6yvf0,DTCvlr12,2020-0188,2020-05-21,13:56:43,14:19:48,NA,incomplete,191,shape,1,left,Blue_Triangle_Chess_1.jpg,Red_Triangle_Stripes_4.jpg,Purple_Star_Dots_1.jpg,right,797.2550000001211,false,high,NA,NA,NA,NA,NA,NA,NA,false
DTCvlr12,3tl87mo8dp2yrmmv0olc9pahdcwfly,31ibvunm9wc3abwj5uskli4aq6yvf0,DTCvlr12,2020-0188,2020-05-21,13:56:43,14:19:48,NA,incomplete,192,shape,1,right,Blue_Star_Dots_1.jpg,Purple_Circle_Grid_1.jpg,Green_Star_Stripes_4.jpg,right,705.7150000000838,true,high,NA,NA,NA,NA,NA,NA,NA,false
DTCvlr12,3tl87mo8dp2yrmmv0olc9pahdcwfly,31ibvunm9wc3abwj5uskli4aq6yvf0,DTCvlr12,2020-0188,2020-05-21,13:56:43,14:19:48,NA,incomplete,193,shape,1,right,Blue_Star_Stripes_1.jpg,Purple_Circle_Chess_1.jpg,Green_Star_Grid_2.jpg,right,610.4400000004098,true,high,NA,NA,NA,NA,NA,NA,NA,false
DTCvlr12,3tl87mo8dp2yrmmv0olc9pahdcwfly,31ibvunm9wc3abwj5uskli4aq6yvf0,DTCvlr12,2020-0188,2020-05-21,13:56:43,14:19:48,NA,incomplete,194,shape,1,right,Purple_Triangle_Chess_2.jpg,Red_Star_Dots_2.jpg,Blue_Triangle_Grid_3.jpg,right,710.6349999997765,true,high,NA,NA,NA,NA,NA,NA,NA,false
DTCvlr12,3tl87mo8dp2yrmmv0olc9pahdcwfly,31ibvunm9wc3abwj5uskli4aq6yvf0,DTCvlr12,2020-0188,2020-05-21,13:56:43,14:19:48,NA,incomplete,195,shape,0,right,Purple_Circle_Dots_3.jpg,Green_Star_Grid_3.jpg,Red_Circle_Stripes_1.jpg,right,822.2050000000745,true,high,NA,NA,NA,NA,NA,NA,NA,false
DTCvlr12,3tl87mo8dp2yrmmv0olc9pahdcwfly,31ibvunm9wc3abwj5uskli4aq6yvf0,DTCvlr12,2020-0188,2020-05-21,13:56:43,14:19:48,NA,incomplete,196,shape,1,right,Purple_Triangle_Dots_2.jpg,Green_Circle_Chess_2.jpg,Blue_Triangle_Stripes_4.jpg,right,594.3349999997299,true,high,NA,NA,NA,NA,NA,NA,NA,false
DTCvlr12,3tl87mo8dp2yrmmv0olc9pahdcwfly,31ibvunm9wc3abwj5uskli4aq6yvf0,DTCvlr12,2020-0188,2020-05-21,13:56:43,14:19:48,NA,incomplete,197,shape,1,left,Blue_Star_Grid_3.jpg,Green_Star_Stripes_1.jpg,Red_Plus_Chess_3.jpg,left,1022.1300000003539,true,high,NA,NA,NA,NA,NA,NA,NA,false
DTCvlr12,3tl87mo8dp2yrmmv0olc9pahdcwfly,31ibvunm9wc3abwj5uskli4aq6yvf0,DTCvlr12,2020-0188,2020-05-21,13:56:43,14:19:48,NA,incomplete,198,shape,1,left,Blue_Plus_Stripes_4.jpg,Purple_Plus_Grid_3.jpg,Red_Star_Chess_4.jpg,left,873.8199999998324,true,high,NA,NA,NA,NA,NA,NA,NA,false
DTCvlr12,3tl87mo8dp2yrmmv0olc9pahdcwfly,31ibvunm9wc3abwj5uskli4aq6yvf0,DTCvlr12,2020-0188,2020-05-21,13:56:43,14:19:48,NA,incomplete,199,shape,1,left,Red_Triangle_Stripes_1.jpg,Green_Triangle_Chess_2.jpg,Blue_Plus_Grid_1.jpg,left,683.7350000001024,true,high,NA,NA,NA,NA,NA,NA,NA,false
DTCvlr12,3tl87mo8dp2yrmmv0olc9pahdcwfly,31ibvunm9wc3abwj5uskli4aq6yvf0,DTCvlr12,2020-0188,2020-05-21,13:56:43,14:19:48,NA,incomplete,200,number,1,right,Purple_Plus_Grid_3.jpg,Blue_Plus_Stripes_4.jpg,Green_Star_Chess_3.jpg,left,804.7750000001397,false,high,NA,NA,NA,NA,NA,NA,NA,false
DTCvlr12,3tl87mo8dp2yrmmv0olc9pahdcwfly,31ibvunm9wc3abwj5uskli4aq6yvf0,DTCvlr12,2020-0188,2020-05-21,13:56:43,14:19:48,NA,incomplete,201,number,1,left,Blue_Circle_Stripes_4.jpg,Red_Triangle_Dots_4.jpg,Green_Circle_Chess_3.jpg,right,577.0049999996554,false,high,NA,NA,NA,NA,NA,NA,NA,false
DTCvlr12,3tl87mo8dp2yrmmv0olc9pahdcwfly,31ibvunm9wc3abwj5uskli4aq6yvf0,DTCvlr12,2020-0188,2020-05-21,13:56:43,14:19:48,NA,incomplete,202,number,1,right,Blue_Plus_Chess_2.jpg,Purple_Plus_Dots_3.jpg,Green_Triangle_Grid_2.jpg,right,830.3200000000652,true,high,NA,NA,NA,NA,NA,NA,NA,false
DTCvlr12,3tl87mo8dp2yrmmv0olc9pahdcwfly,31ibvunm9wc3abwj5uskli4aq6yvf0,DTCvlr12,2020-0188,2020-05-21,13:56:43,14:19:48,NA,incomplete,203,number,0,right,Blue_Star_Grid_3.jpg,Red_Star_Stripes_4.jpg,Green_Plus_Dots_3.jpg,right,946.3249999999534,true,high,NA,NA,NA,NA,NA,NA,NA,false
DTCvlr12,3tl87mo8dp2yrmmv0olc9pahdcwfly,31ibvunm9wc3abwj5uskli4aq6yvf0,DTCvlr12,2020-0188,2020-05-21,13:56:43,14:19:48,NA,incomplete,204,number,1,right,Red_Triangle_Stripes_2.jpg,Green_Triangle_Dots_3.jpg,Purple_Star_Chess_2.jpg,left,569.2650000001304,false,high,NA,NA,NA,NA,NA,NA,NA,false
DTCvlr12,3tl87mo8dp2yrmmv0olc9pahdcwfly,31ibvunm9wc3abwj5uskli4aq6yvf0,DTCvlr12,2020-0188,2020-05-21,13:56:43,14:19:48,NA,incomplete,205,number,1,right,Green_Plus_Stripes_4.jpg,Red_Plus_Dots_3.jpg,Purple_Star_Grid_4.jpg,right,725.9499999999534,true,high,NA,NA,NA,NA,NA,NA,NA,false
DTCvlr12,3tl87mo8dp2yrmmv0olc9pahdcwfly,31ibvunm9wc3abwj5uskli4aq6yvf0,DTCvlr12,2020-0188,2020-05-21,13:56:43,14:19:48,NA,incomplete,206,number,0,right,Purple_Triangle_Grid_4.jpg,Green_Triangle_Stripes_1.jpg,Blue_Plus_Dots_4.jpg,right,693.565000000177,true,high,NA,NA,NA,NA,NA,NA,NA,false
DTCvlr12,3tl87mo8dp2yrmmv0olc9pahdcwfly,31ibvunm9wc3abwj5uskli4aq6yvf0,DTCvlr12,2020-0188,2020-05-21,13:56:43,14:19:48,NA,incomplete,207,number,1,right,Blue_Circle_Stripes_4.jpg,Purple_Circle_Chess_3.jpg,Red_Star_Dots_4.jpg,right,701.6799999994691,true,high,NA,NA,NA,NA,NA,NA,NA,false
DTCvlr12,3tl87mo8dp2yrmmv0olc9pahdcwfly,31ibvunm9wc3abwj5uskli4aq6yvf0,DTCvlr12,2020-0188,2020-05-21,13:56:43,14:19:48,NA,incomplete,208,number,1,right,Red_Circle_Stripes_4.jpg,Blue_Circle_Grid_1.jpg,Green_Plus_Dots_4.jpg,right,661.554999999702,true,high,NA,NA,NA,NA,NA,NA,NA,false
DTCvlr12,3tl87mo8dp2yrmmv0olc9pahdcwfly,31ibvunm9wc3abwj5uskli4aq6yvf0,DTCvlr12,2020-0188,2020-05-21,13:56:43,14:19:48,NA,incomplete,209,number,0,left,Green_Circle_Stripes_4.jpg,Blue_Star_Chess_4.jpg,Red_Circle_Dots_1.jpg,left,727.6150000004563,true,high,NA,NA,NA,NA,NA,NA,NA,false
DTCvlr12,3tl87mo8dp2yrmmv0olc9pahdcwfly,31ibvunm9wc3abwj5uskli4aq6yvf0,DTCvlr12,2020-0188,2020-05-21,13:56:43,14:19:48,NA,incomplete,210,number,1,left,Blue_Star_Chess_3.jpg,Green_Plus_Grid_3.jpg,Red_Star_Stripes_1.jpg,left,823.4899999997579,true,high,NA,NA,NA,NA,NA,NA,NA,false
DTCvlr12,3tl87mo8dp2yrmmv0olc9pahdcwfly,31ibvunm9wc3abwj5uskli4aq6yvf0,DTCvlr12,2020-0188,2020-05-21,13:56:43,14:19:48,NA,incomplete,211,number,1,left,Blue_Plus_Dots_1.jpg,Green_Circle_Stripes_1.jpg,Purple_Plus_Chess_2.jpg,right,675.5400000000373,false,high,NA,NA,NA,NA,NA,NA,NA,false
DTCvlr12,3tl87mo8dp2yrmmv0olc9pahdcwfly,31ibvunm9wc3abwj5uskli4aq6yvf0,DTCvlr12,2020-0188,2020-05-21,13:56:43,14:19:48,NA,incomplete,212,number,1,right,Red_Circle_Chess_3.jpg,Blue_Circle_Grid_4.jpg,Green_Star_Dots_3.jpg,right,860.0300000002608,true,high,NA,NA,NA,NA,NA,NA,NA,false
DTCvlr12,3tl87mo8dp2yrmmv0olc9pahdcwfly,31ibvunm9wc3abwj5uskli4aq6yvf0,DTCvlr12,2020-0188,2020-05-21,13:56:43,14:19:48,NA,incomplete,213,number,0,left,Green_Circle_Stripes_4.jpg,Red_Triangle_Chess_4.jpg,Purple_Circle_Grid_1.jpg,left,695.0800000000745,true,high,NA,NA,NA,NA,NA,NA,NA,false
DTCvlr12,3tl87mo8dp2yrmmv0olc9pahdcwfly,31ibvunm9wc3abwj5uskli4aq6yvf0,DTCvlr12,2020-0188,2020-05-21,13:56:43,14:19:48,NA,incomplete,214,number,1,left,Blue_Triangle_Chess_4.jpg,Green_Plus_Grid_4.jpg,Purple_Triangle_Stripes_1.jpg,left,702.9699999997392,true,high,NA,NA,NA,NA,NA,NA,NA,false
DTCvlr12,3tl87mo8dp2yrmmv0olc9pahdcwfly,31ibvunm9wc3abwj5uskli4aq6yvf0,DTCvlr12,2020-0188,2020-05-21,13:56:43,14:19:48,NA,incomplete,215,number,1,left,Green_Triangle_Dots_1.jpg,Red_Plus_Chess_1.jpg,Blue_Triangle_Grid_2.jpg,left,814.725000000326,true,high,NA,NA,NA,NA,NA,NA,NA,false
DTCvlr12,3tl87mo8dp2yrmmv0olc9pahdcwfly,31ibvunm9wc3abwj5uskli4aq6yvf0,DTCvlr12,2020-0188,2020-05-21,13:56:43,14:19:48,NA,incomplete,216,number,1,right,Purple_Circle_Stripes_2.jpg,Blue_Circle_Grid_1.jpg,Green_Star_Chess_2.jpg,right,683.8199999998324,true,high,NA,NA,NA,NA,NA,NA,NA,false
DTCvlr12,3tl87mo8dp2yrmmv0olc9pahdcwfly,31ibvunm9wc3abwj5uskli4aq6yvf0,DTCvlr12,2020-0188,2020-05-21,13:56:43,14:19:48,NA,incomplete,217,number,0,left,Green_Star_Dots_1.jpg,Purple_Circle_Grid_1.jpg,Red_Star_Chess_2.jpg,left,765.3949999997858,true,high,NA,NA,NA,NA,NA,NA,NA,false
DTCvlr12,3tl87mo8dp2yrmmv0olc9pahdcwfly,31ibvunm9wc3abwj5uskli4aq6yvf0,DTCvlr12,2020-0188,2020-05-21,13:56:43,14:19:48,NA,incomplete,218,number,1,left,Green_Circle_Stripes_3.jpg,Blue_Triangle_Grid_3.jpg,Purple_Circle_Dots_1.jpg,left,683.3800000003539,true,high,NA,NA,NA,NA,NA,NA,NA,false
DTCvlr12,3tl87mo8dp2yrmmv0olc9pahdcwfly,31ibvunm9wc3abwj5uskli4aq6yvf0,DTCvlr12,2020-0188,2020-05-21,13:56:43,14:19:48,NA,incomplete,219,number,1,right,Blue_Plus_Stripes_1.jpg,Red_Plus_Grid_3.jpg,Green_Circle_Dots_1.jpg,right,564.3650000002235,true,high,NA,NA,NA,NA,NA,NA,NA,false
DTCvlr12,3tl87mo8dp2yrmmv0olc9pahdcwfly,31ibvunm9wc3abwj5uskli4aq6yvf0,DTCvlr12,2020-0188,2020-05-21,13:56:43,14:19:48,NA,incomplete,220,shape,0,right,Red_Circle_Stripes_1.jpg,Green_Plus_Grid_1.jpg,Purple_Circle_Dots_2.jpg,left,690.1799999999348,false,high,NA,NA,NA,NA,NA,NA,NA,false
DTCvlr12,3tl87mo8dp2yrmmv0olc9pahdcwfly,31ibvunm9wc3abwj5uskli4aq6yvf0,DTCvlr12,2020-0188,2020-05-21,13:56:43,14:19:48,NA,incomplete,221,shape,1,right,Green_Triangle_Stripes_2.jpg,Blue_Plus_Grid_2.jpg,Red_Triangle_Dots_3.jpg,left,707.1950000000652,false,high,NA,NA,NA,NA,NA,NA,NA,false
DTCvlr12,3tl87mo8dp2yrmmv0olc9pahdcwfly,31ibvunm9wc3abwj5uskli4aq6yvf0,DTCvlr12,2020-0188,2020-05-21,13:56:43,14:19:48,NA,incomplete,222,shape,1,left,Red_Circle_Grid_3.jpg,Blue_Circle_Chess_1.jpg,Purple_Star_Dots_3.jpg,right,642.7349999998696,false,high,NA,NA,NA,NA,NA,NA,NA,false
DTCvlr12,3tl87mo8dp2yrmmv0olc9pahdcwfly,31ibvunm9wc3abwj5uskli4aq6yvf0,DTCvlr12,2020-0188,2020-05-21,13:56:43,14:19:48,NA,incomplete,223,shape,1,left,Blue_Plus_Stripes_2.jpg,Red_Plus_Grid_3.jpg,Purple_Star_Dots_2.jpg,left,829.8049999999348,true,high,NA,NA,NA,NA,NA,NA,NA,false
DTCvlr12,3tl87mo8dp2yrmmv0olc9pahdcwfly,31ibvunm9wc3abwj5uskli4aq6yvf0,DTCvlr12,2020-0188,2020-05-21,13:56:43,14:19:48,NA,incomplete,224,shape,1,right,Purple_Plus_Stripes_4.jpg,Blue_Triangle_Grid_4.jpg,Green_Plus_Dots_2.jpg,right,792.7249999996275,true,high,NA,NA,NA,NA,NA,NA,NA,false
DTCvlr12,3tl87mo8dp2yrmmv0olc9pahdcwfly,31ibvunm9wc3abwj5uskli4aq6yvf0,DTCvlr12,2020-0188,2020-05-21,13:56:43,14:19:48,NA,incomplete,225,shape,1,right,Blue_Star_Chess_2.jpg,Green_Plus_Dots_2.jpg,Red_Star_Grid_4.jpg,right,758.179999999702,true,high,NA,NA,NA,NA,NA,NA,NA,false
DTCvlr12,3tl87mo8dp2yrmmv0olc9pahdcwfly,31ibvunm9wc3abwj5uskli4aq6yvf0,DTCvlr12,2020-0188,2020-05-21,13:56:43,14:19:48,NA,incomplete,226,shape,0,left,Purple_Plus_Grid_1.jpg,Green_Plus_Chess_2.jpg,Red_Triangle_Stripes_1.jpg,left,742.1249999997672,true,high,NA,NA,NA,NA,NA,NA,NA,false
DTCvlr12,3tl87mo8dp2yrmmv0olc9pahdcwfly,31ibvunm9wc3abwj5uskli4aq6yvf0,DTCvlr12,2020-0188,2020-05-21,13:56:43,14:19:48,NA,incomplete,227,shape,1,right,Red_Plus_Grid_1.jpg,Purple_Triangle_Dots_1.jpg,Blue_Plus_Stripes_4.jpg,right,634.1350000002421,true,high,NA,NA,NA,NA,NA,NA,NA,false
DTCvlr12,3tl87mo8dp2yrmmv0olc9pahdcwfly,31ibvunm9wc3abwj5uskli4aq6yvf0,DTCvlr12,2020-0188,2020-05-21,13:56:43,14:19:48,NA,incomplete,228,shape,1,right,Purple_Star_Dots_2.jpg,Blue_Plus_Chess_2.jpg,Green_Star_Stripes_3.jpg,right,637.0550000001676,true,high,NA,NA,NA,NA,NA,NA,NA,false
DTCvlr12,3tl87mo8dp2yrmmv0olc9pahdcwfly,31ibvunm9wc3abwj5uskli4aq6yvf0,DTCvlr12,2020-0188,2020-05-21,13:56:43,14:19:48,NA,incomplete,229,shape,0,left,Blue_Star_Stripes_1.jpg,Green_Star_Chess_3.jpg,Red_Plus_Grid_1.jpg,left,824.0649999999441,true,high,NA,NA,NA,NA,NA,NA,NA,false
DTCvlr12,3tl87mo8dp2yrmmv0olc9pahdcwfly,31ibvunm9wc3abwj5uskli4aq6yvf0,DTCvlr12,2020-0188,2020-05-21,13:56:43,14:19:48,NA,incomplete,230,shape,1,right,Blue_Star_Stripes_4.jpg,Purple_Circle_Grid_4.jpg,Green_Star_Dots_3.jpg,right,579.7700000002515,true,high,NA,NA,NA,NA,NA,NA,NA,false
DTCvlr12,3tl87mo8dp2yrmmv0olc9pahdcwfly,31ibvunm9wc3abwj5uskli4aq6yvf0,DTCvlr12,2020-0188,2020-05-21,13:56:43,14:19:48,NA,incomplete,231,shape,1,left,Green_Plus_Stripes_2.jpg,Blue_Plus_Grid_1.jpg,Red_Circle_Dots_2.jpg,left,832.8850000002421,true,high,NA,NA,NA,NA,NA,NA,NA,false
DTCvlr12,3tl87mo8dp2yrmmv0olc9pahdcwfly,31ibvunm9wc3abwj5uskli4aq6yvf0,DTCvlr12,2020-0188,2020-05-21,13:56:43,14:19:48,NA,incomplete,232,shape,1,left,Blue_Star_Chess_3.jpg,Green_Star_Stripes_2.jpg,Purple_Triangle_Grid_3.jpg,left,708.7099999999627,true,high,NA,NA,NA,NA,NA,NA,NA,false
DTCvlr12,3tl87mo8dp2yrmmv0olc9pahdcwfly,31ibvunm9wc3abwj5uskli4aq6yvf0,DTCvlr12,2020-0188,2020-05-21,13:56:43,14:19:48,NA,incomplete,233,shape,0,left,Green_Circle_Stripes_2.jpg,Blue_Circle_Dots_1.jpg,Purple_Triangle_Grid_2.jpg,left,692.5499999995809,true,high,NA,NA,NA,NA,NA,NA,NA,false
DTCvlr12,3tl87mo8dp2yrmmv0olc9pahdcwfly,31ibvunm9wc3abwj5uskli4aq6yvf0,DTCvlr12,2020-0188,2020-05-21,13:56:43,14:19:48,NA,incomplete,234,shape,1,right,Purple_Circle_Chess_1.jpg,Green_Plus_Dots_1.jpg,Blue_Circle_Stripes_4.jpg,right,605.3449999999721,true,high,NA,NA,NA,NA,NA,NA,NA,false
DTCvlr12,3tl87mo8dp2yrmmv0olc9pahdcwfly,31ibvunm9wc3abwj5uskli4aq6yvf0,DTCvlr12,2020-0188,2020-05-21,13:56:43,14:19:48,NA,incomplete,235,shape,1,left,Red_Plus_Stripes_1.jpg,Blue_Plus_Dots_4.jpg,Purple_Circle_Chess_1.jpg,left,569.2900000000373,true,high,NA,NA,NA,NA,NA,NA,NA,false
DTCvlr12,3tl87mo8dp2yrmmv0olc9pahdcwfly,31ibvunm9wc3abwj5uskli4aq6yvf0,DTCvlr12,2020-0188,2020-05-21,13:56:43,14:19:48,NA,incomplete,236,shape,1,left,Green_Triangle_Chess_1.jpg,Blue_Triangle_Grid_3.jpg,Purple_Circle_Dots_1.jpg,left,582.5749999999534,true,high,NA,NA,NA,NA,NA,NA,NA,false
DTCvlr12,3tl87mo8dp2yrmmv0olc9pahdcwfly,31ibvunm9wc3abwj5uskli4aq6yvf0,DTCvlr12,2020-0188,2020-05-21,13:56:43,14:19:48,NA,incomplete,237,shape,1,right,Green_Circle_Dots_3.jpg,Blue_Plus_Stripes_3.jpg,Red_Circle_Grid_2.jpg,right,563.9799999997485,true,high,NA,NA,NA,NA,NA,NA,NA,false
DTCvlr12,3tl87mo8dp2yrmmv0olc9pahdcwfly,31ibvunm9wc3abwj5uskli4aq6yvf0,DTCvlr12,2020-0188,2020-05-21,13:56:43,14:19:48,NA,incomplete,238,shape,1,left,Red_Plus_Chess_2.jpg,Purple_Plus_Grid_3.jpg,Blue_Star_Dots_2.jpg,left,681.804999999702,true,high,NA,NA,NA,NA,NA,NA,NA,false
DTCvlr12,3tl87mo8dp2yrmmv0olc9pahdcwfly,31ibvunm9wc3abwj5uskli4aq6yvf0,DTCvlr12,2020-0188,2020-05-21,13:56:43,14:19:48,NA,incomplete,239,shape,1,right,Green_Plus_Stripes_2.jpg,Red_Circle_Grid_2.jpg,Blue_Plus_Dots_3.jpg,right,603.6850000000559,true,high,NA,NA,NA,NA,NA,NA,NA,false
DTCvlr12,3tl87mo8dp2yrmmv0olc9pahdcwfly,31ibvunm9wc3abwj5uskli4aq6yvf0,DTCvlr12,2020-0188,2020-05-21,13:56:43,14:19:48,NA,NA,instruction example,color,NA,NA,Purple_Star_Stripes_3.jpg,Purple_Plus_Chess_1.jpg,Blue_Circle_Stripes_4.jpg,NA,NA,NA,NA,NA,NA,NA,NA,NA,NA,NA,undefined
DTCvlr12,3tl87mo8dp2yrmmv0olc9pahdcwfly,31ibvunm9wc3abwj5uskli4aq6yvf0,DTCvlr12,2020-0188,2020-05-21,13:56:43,14:19:48,NA,NA,instruction example,color,NA,NA,Purple_Plus_Stripes_4.jpg,Blue_Circle_Stripes_2.jpg,Purple_Triangle_Dots_1.jpg,NA,NA,NA,NA,NA,NA,NA,NA,NA,NA,NA,undefined
DTCvlr12,3tl87mo8dp2yrmmv0olc9pahdcwfly,31ibvunm9wc3abwj5uskli4aq6yvf0,DTCvlr12,2020-0188,2020-05-21,13:56:43,14:19:48,NA,NA,instruction example,color,NA,NA,Blue_Triangle_Stripes_3.jpg,Green_Plus_Dots_3.jpg,Red_Triangle_Grid_1.jpg,NA,NA,NA,NA,NA,NA,NA,NA,NA,NA,NA,undefined
DTCvlr12,3tl87mo8dp2yrmmv0olc9pahdcwfly,31ibvunm9wc3abwj5uskli4aq6yvf0,DTCvlr12,2020-0188,2020-05-21,13:56:43,14:19:48,NA,NA,instruction example,color,NA,NA,Blue_Circle_Chess_1.jpg,Red_Circle_Stripes_3.jpg,Purple_Triangle_Grid_1.jpg,NA,NA,NA,NA,NA,NA,NA,NA,NA,NA,NA,undefined
DTCvlr12,3tl87mo8dp2yrmmv0olc9pahdcwfly,31ibvunm9wc3abwj5uskli4aq6yvf0,DTCvlr12,2020-0188,2020-05-21,13:56:43,14:19:48,1356402.49,1385828.495,NA,NA,NA,NA,NA,NA,NA,NA,NA,NA,NA,52,Asian,Female,Chinese,no,yes,no,undefined
