workerId,hitId,assignmentId,subject,studyid,exp_date,exp_start,exp_end,time_start,time_end,trial,type,reward_validity,answer,image_top,image_left,image_right,response,response_time,response_acc,volatility,practice
Xp2l6bUU,3j6bhnx0vc5zv8hudcso2u6bq3dnka,323q6sjs8mtysa1z05bg6hd1iuchfr,Xp2l6bUU,2020-0188,2020-05-21,15:48:25,16:14:14,NA,incomplete,0,number,1,right,Purple_Circle_Chess_4.jpg,Purple_Triangle_Grid_1.jpg,Blue_Plus_Stripes_4.jpg,right,1866.9150000205263,true,NA,true
Xp2l6bUU,3j6bhnx0vc5zv8hudcso2u6bq3dnka,323q6sjs8mtysa1z05bg6hd1iuchfr,Xp2l6bUU,2020-0188,2020-05-21,15:48:25,16:14:14,NA,incomplete,1,number,1,left,Blue_Plus_Stripes_3.jpg,Green_Star_Chess_3.jpg,Blue_Triangle_Grid_2.jpg,left,860.1299999281764,true,NA,true
Xp2l6bUU,3j6bhnx0vc5zv8hudcso2u6bq3dnka,323q6sjs8mtysa1z05bg6hd1iuchfr,Xp2l6bUU,2020-0188,2020-05-21,15:48:25,16:14:14,NA,incomplete,2,number,1,left,Blue_Circle_Dots_4.jpg,Green_Plus_Stripes_4.jpg,Blue_Star_Chess_2.jpg,right,734.3450000043958,false,NA,true
Xp2l6bUU,3j6bhnx0vc5zv8hudcso2u6bq3dnka,323q6sjs8mtysa1z05bg6hd1iuchfr,Xp2l6bUU,2020-0188,2020-05-21,15:48:25,16:14:14,NA,incomplete,3,number,0,left,Green_Circle_Chess_3.jpg,Purple_Triangle_Dots_3.jpg,Green_Plus_Grid_4.jpg,right,1061.6600000066683,false,NA,true
Xp2l6bUU,3j6bhnx0vc5zv8hudcso2u6bq3dnka,323q6sjs8mtysa1z05bg6hd1iuchfr,Xp2l6bUU,2020-0188,2020-05-21,15:48:25,16:14:14,NA,incomplete,4,number,1,left,Green_Triangle_Grid_1.jpg,Blue_Star_Chess_1.jpg,Green_Plus_Dots_2.jpg,left,1036.9750000536442,true,NA,true
Xp2l6bUU,3j6bhnx0vc5zv8hudcso2u6bq3dnka,323q6sjs8mtysa1z05bg6hd1iuchfr,Xp2l6bUU,2020-0188,2020-05-21,15:48:25,16:14:14,NA,incomplete,5,number,0,left,Blue_Triangle_Chess_3.jpg,Red_Plus_Dots_3.jpg,Blue_Star_Stripes_1.jpg,left,962.1649999171495,true,NA,true
Xp2l6bUU,3j6bhnx0vc5zv8hudcso2u6bq3dnka,323q6sjs8mtysa1z05bg6hd1iuchfr,Xp2l6bUU,2020-0188,2020-05-21,15:48:25,16:14:14,NA,incomplete,6,number,1,left,Green_Plus_Stripes_2.jpg,Red_Circle_Dots_2.jpg,Green_Triangle_Chess_1.jpg,left,1173.6600000876933,true,NA,true
Xp2l6bUU,3j6bhnx0vc5zv8hudcso2u6bq3dnka,323q6sjs8mtysa1z05bg6hd1iuchfr,Xp2l6bUU,2020-0188,2020-05-21,15:48:25,16:14:14,NA,incomplete,7,number,0,left,Red_Triangle_Chess_2.jpg,Green_Star_Grid_2.jpg,Red_Circle_Dots_1.jpg,left,735.2049999171868,true,NA,true
Xp2l6bUU,3j6bhnx0vc5zv8hudcso2u6bq3dnka,323q6sjs8mtysa1z05bg6hd1iuchfr,Xp2l6bUU,2020-0188,2020-05-21,15:48:25,16:14:14,NA,incomplete,8,number,1,right,Red_Star_Dots_4.jpg,Red_Circle_Grid_1.jpg,Purple_Triangle_Stripes_4.jpg,right,952.2150000557303,true,NA,true
Xp2l6bUU,3j6bhnx0vc5zv8hudcso2u6bq3dnka,323q6sjs8mtysa1z05bg6hd1iuchfr,Xp2l6bUU,2020-0188,2020-05-21,15:48:25,16:14:14,NA,incomplete,9,number,1,left,Green_Star_Dots_4.jpg,Red_Triangle_Chess_4.jpg,Green_Circle_Grid_2.jpg,left,785.1700000464916,true,NA,true
Xp2l6bUU,3j6bhnx0vc5zv8hudcso2u6bq3dnka,323q6sjs8mtysa1z05bg6hd1iuchfr,Xp2l6bUU,2020-0188,2020-05-21,15:48:25,16:14:14,NA,incomplete,10,number,1,left,Green_Star_Dots_2.jpg,Purple_Plus_Chess_2.jpg,Green_Circle_Grid_1.jpg,left,758.8849999010563,true,NA,true
Xp2l6bUU,3j6bhnx0vc5zv8hudcso2u6bq3dnka,323q6sjs8mtysa1z05bg6hd1iuchfr,Xp2l6bUU,2020-0188,2020-05-21,15:48:25,16:14:14,NA,incomplete,11,number,1,right,Red_Circle_Grid_3.jpg,Red_Star_Stripes_1.jpg,Green_Plus_Chess_3.jpg,right,768.4999998891726,true,NA,true
Xp2l6bUU,3j6bhnx0vc5zv8hudcso2u6bq3dnka,323q6sjs8mtysa1z05bg6hd1iuchfr,Xp2l6bUU,2020-0188,2020-05-21,15:48:25,16:14:14,NA,incomplete,12,number,1,right,Red_Plus_Grid_4.jpg,Red_Triangle_Dots_3.jpg,Purple_Star_Stripes_4.jpg,right,872.2599999746308,true,NA,true
Xp2l6bUU,3j6bhnx0vc5zv8hudcso2u6bq3dnka,323q6sjs8mtysa1z05bg6hd1iuchfr,Xp2l6bUU,2020-0188,2020-05-21,15:48:25,16:14:14,NA,incomplete,13,number,1,left,Red_Plus_Grid_4.jpg,Blue_Star_Dots_4.jpg,Red_Triangle_Chess_1.jpg,left,624.7149999253452,true,NA,true
Xp2l6bUU,3j6bhnx0vc5zv8hudcso2u6bq3dnka,323q6sjs8mtysa1z05bg6hd1iuchfr,Xp2l6bUU,2020-0188,2020-05-21,15:48:25,16:14:14,NA,incomplete,14,number,1,right,Blue_Star_Stripes_3.jpg,Blue_Triangle_Chess_1.jpg,Green_Plus_Grid_3.jpg,right,743.2949999347329,true,NA,true
Xp2l6bUU,3j6bhnx0vc5zv8hudcso2u6bq3dnka,323q6sjs8mtysa1z05bg6hd1iuchfr,Xp2l6bUU,2020-0188,2020-05-21,15:48:25,16:14:14,NA,incomplete,15,number,1,left,Purple_Circle_Grid_4.jpg,Red_Plus_Chess_4.jpg,Purple_Triangle_Dots_2.jpg,left,639.4400000572205,true,NA,true
Xp2l6bUU,3j6bhnx0vc5zv8hudcso2u6bq3dnka,323q6sjs8mtysa1z05bg6hd1iuchfr,Xp2l6bUU,2020-0188,2020-05-21,15:48:25,16:14:14,NA,incomplete,16,number,1,left,Red_Triangle_Stripes_2.jpg,Purple_Circle_Dots_2.jpg,Red_Star_Chess_3.jpg,left,685.8350000111386,true,NA,true
Xp2l6bUU,3j6bhnx0vc5zv8hudcso2u6bq3dnka,323q6sjs8mtysa1z05bg6hd1iuchfr,Xp2l6bUU,2020-0188,2020-05-21,15:48:25,16:14:14,NA,incomplete,17,number,1,left,Green_Circle_Grid_2.jpg,Red_Plus_Stripes_2.jpg,Green_Triangle_Dots_1.jpg,left,580.2050000056624,true,NA,true
Xp2l6bUU,3j6bhnx0vc5zv8hudcso2u6bq3dnka,323q6sjs8mtysa1z05bg6hd1iuchfr,Xp2l6bUU,2020-0188,2020-05-21,15:48:25,16:14:14,NA,incomplete,18,number,1,left,Green_Triangle_Grid_3.jpg,Purple_Plus_Dots_3.jpg,Green_Circle_Chess_4.jpg,left,758.5899999830872,true,NA,true
Xp2l6bUU,3j6bhnx0vc5zv8hudcso2u6bq3dnka,323q6sjs8mtysa1z05bg6hd1iuchfr,Xp2l6bUU,2020-0188,2020-05-21,15:48:25,16:14:14,NA,incomplete,19,number,1,left,Purple_Circle_Stripes_2.jpg,Green_Star_Dots_2.jpg,Purple_Plus_Grid_3.jpg,left,618.309999932535,true,NA,true
Xp2l6bUU,3j6bhnx0vc5zv8hudcso2u6bq3dnka,323q6sjs8mtysa1z05bg6hd1iuchfr,Xp2l6bUU,2020-0188,2020-05-21,15:48:25,16:14:14,NA,incomplete,20,color,1,left,Red_Triangle_Chess_3.jpg,Red_Star_Stripes_4.jpg,Purple_Circle_Dots_3.jpg,right,597.6950000040233,false,NA,true
Xp2l6bUU,3j6bhnx0vc5zv8hudcso2u6bq3dnka,323q6sjs8mtysa1z05bg6hd1iuchfr,Xp2l6bUU,2020-0188,2020-05-21,15:48:25,16:14:14,NA,incomplete,21,color,1,right,Blue_Triangle_Dots_2.jpg,Green_Plus_Grid_2.jpg,Blue_Circle_Chess_3.jpg,right,1065.2750000590459,true,NA,true
Xp2l6bUU,3j6bhnx0vc5zv8hudcso2u6bq3dnka,323q6sjs8mtysa1z05bg6hd1iuchfr,Xp2l6bUU,2020-0188,2020-05-21,15:48:25,16:14:14,NA,incomplete,22,color,1,right,Green_Plus_Dots_3.jpg,Red_Triangle_Stripes_3.jpg,Green_Circle_Grid_1.jpg,right,978.1149999471381,true,NA,true
Xp2l6bUU,3j6bhnx0vc5zv8hudcso2u6bq3dnka,323q6sjs8mtysa1z05bg6hd1iuchfr,Xp2l6bUU,2020-0188,2020-05-21,15:48:25,16:14:14,NA,incomplete,23,color,1,right,Blue_Triangle_Stripes_3.jpg,Purple_Star_Grid_3.jpg,Blue_Circle_Dots_1.jpg,right,955.7899999199435,true,NA,true
Xp2l6bUU,3j6bhnx0vc5zv8hudcso2u6bq3dnka,323q6sjs8mtysa1z05bg6hd1iuchfr,Xp2l6bUU,2020-0188,2020-05-21,15:48:25,16:14:14,NA,incomplete,24,color,1,left,Blue_Star_Chess_1.jpg,Blue_Plus_Grid_2.jpg,Purple_Triangle_Stripes_1.jpg,left,911.8149999994785,true,NA,true
Xp2l6bUU,3j6bhnx0vc5zv8hudcso2u6bq3dnka,323q6sjs8mtysa1z05bg6hd1iuchfr,Xp2l6bUU,2020-0188,2020-05-21,15:48:25,16:14:14,NA,incomplete,25,color,1,right,Purple_Triangle_Stripes_4.jpg,Red_Circle_Chess_4.jpg,Purple_Plus_Dots_1.jpg,right,979.5399999711663,true,NA,true
Xp2l6bUU,3j6bhnx0vc5zv8hudcso2u6bq3dnka,323q6sjs8mtysa1z05bg6hd1iuchfr,Xp2l6bUU,2020-0188,2020-05-21,15:48:25,16:14:14,NA,incomplete,26,color,1,left,Blue_Triangle_Chess_3.jpg,Blue_Circle_Stripes_4.jpg,Red_Plus_Grid_3.jpg,left,990.5799999833107,true,NA,true
Xp2l6bUU,3j6bhnx0vc5zv8hudcso2u6bq3dnka,323q6sjs8mtysa1z05bg6hd1iuchfr,Xp2l6bUU,2020-0188,2020-05-21,15:48:25,16:14:14,NA,incomplete,27,color,1,right,Blue_Plus_Grid_4.jpg,Green_Circle_Dots_4.jpg,Blue_Star_Chess_1.jpg,right,748.6000000499189,true,NA,true
Xp2l6bUU,3j6bhnx0vc5zv8hudcso2u6bq3dnka,323q6sjs8mtysa1z05bg6hd1iuchfr,Xp2l6bUU,2020-0188,2020-05-21,15:48:25,16:14:14,NA,incomplete,28,color,1,left,Red_Plus_Stripes_2.jpg,Red_Circle_Chess_1.jpg,Purple_Triangle_Grid_2.jpg,left,814.6949999500066,true,NA,true
Xp2l6bUU,3j6bhnx0vc5zv8hudcso2u6bq3dnka,323q6sjs8mtysa1z05bg6hd1iuchfr,Xp2l6bUU,2020-0188,2020-05-21,15:48:25,16:14:14,NA,incomplete,29,color,1,right,Blue_Star_Chess_1.jpg,Green_Plus_Stripes_1.jpg,Blue_Triangle_Dots_3.jpg,right,812.5249999575317,true,NA,true
Xp2l6bUU,3j6bhnx0vc5zv8hudcso2u6bq3dnka,323q6sjs8mtysa1z05bg6hd1iuchfr,Xp2l6bUU,2020-0188,2020-05-21,15:48:25,16:14:14,NA,incomplete,30,color,0,right,Green_Plus_Chess_2.jpg,Blue_Star_Stripes_2.jpg,Green_Triangle_Dots_1.jpg,right,633.9799999259412,true,NA,true
Xp2l6bUU,3j6bhnx0vc5zv8hudcso2u6bq3dnka,323q6sjs8mtysa1z05bg6hd1iuchfr,Xp2l6bUU,2020-0188,2020-05-21,15:48:25,16:14:14,NA,incomplete,31,color,0,left,Blue_Triangle_Grid_1.jpg,Blue_Plus_Chess_3.jpg,Red_Circle_Stripes_1.jpg,left,686.420000041835,true,NA,true
Xp2l6bUU,3j6bhnx0vc5zv8hudcso2u6bq3dnka,323q6sjs8mtysa1z05bg6hd1iuchfr,Xp2l6bUU,2020-0188,2020-05-21,15:48:25,16:14:14,NA,incomplete,32,color,0,right,Green_Plus_Chess_3.jpg,Purple_Circle_Dots_3.jpg,Green_Triangle_Grid_1.jpg,right,634.2449999647215,true,NA,true
Xp2l6bUU,3j6bhnx0vc5zv8hudcso2u6bq3dnka,323q6sjs8mtysa1z05bg6hd1iuchfr,Xp2l6bUU,2020-0188,2020-05-21,15:48:25,16:14:14,NA,incomplete,33,color,1,left,Red_Circle_Grid_1.jpg,Red_Triangle_Chess_2.jpg,Blue_Plus_Stripes_1.jpg,left,690.4399999184534,true,NA,true
Xp2l6bUU,3j6bhnx0vc5zv8hudcso2u6bq3dnka,323q6sjs8mtysa1z05bg6hd1iuchfr,Xp2l6bUU,2020-0188,2020-05-21,15:48:25,16:14:14,NA,incomplete,34,color,1,left,Green_Star_Grid_4.jpg,Green_Triangle_Dots_3.jpg,Purple_Plus_Chess_4.jpg,left,656.5049999626353,true,NA,true
Xp2l6bUU,3j6bhnx0vc5zv8hudcso2u6bq3dnka,323q6sjs8mtysa1z05bg6hd1iuchfr,Xp2l6bUU,2020-0188,2020-05-21,15:48:25,16:14:14,NA,incomplete,35,color,1,left,Blue_Circle_Dots_2.jpg,Blue_Triangle_Grid_3.jpg,Green_Plus_Stripes_2.jpg,left,716.6649999562651,true,NA,true
Xp2l6bUU,3j6bhnx0vc5zv8hudcso2u6bq3dnka,323q6sjs8mtysa1z05bg6hd1iuchfr,Xp2l6bUU,2020-0188,2020-05-21,15:48:25,16:14:14,NA,incomplete,36,color,0,right,Red_Triangle_Stripes_3.jpg,Blue_Circle_Dots_3.jpg,Red_Star_Grid_4.jpg,right,877.4100000737235,true,NA,true
Xp2l6bUU,3j6bhnx0vc5zv8hudcso2u6bq3dnka,323q6sjs8mtysa1z05bg6hd1iuchfr,Xp2l6bUU,2020-0188,2020-05-21,15:48:25,16:14:14,NA,incomplete,37,color,1,right,Green_Plus_Dots_2.jpg,Red_Circle_Stripes_2.jpg,Green_Star_Grid_4.jpg,right,838.0399999441579,true,NA,true
Xp2l6bUU,3j6bhnx0vc5zv8hudcso2u6bq3dnka,323q6sjs8mtysa1z05bg6hd1iuchfr,Xp2l6bUU,2020-0188,2020-05-21,15:48:25,16:14:14,NA,incomplete,38,color,1,left,Red_Circle_Dots_3.jpg,Red_Star_Stripes_4.jpg,Blue_Triangle_Chess_3.jpg,left,639.9400000227615,true,NA,true
Xp2l6bUU,3j6bhnx0vc5zv8hudcso2u6bq3dnka,323q6sjs8mtysa1z05bg6hd1iuchfr,Xp2l6bUU,2020-0188,2020-05-21,15:48:25,16:14:14,NA,incomplete,39,color,0,left,Red_Circle_Dots_3.jpg,Red_Triangle_Chess_2.jpg,Blue_Plus_Grid_3.jpg,left,766.5149999083951,true,NA,true
Xp2l6bUU,3j6bhnx0vc5zv8hudcso2u6bq3dnka,323q6sjs8mtysa1z05bg6hd1iuchfr,Xp2l6bUU,2020-0188,2020-05-21,15:48:25,16:14:14,NA,incomplete,0,number,1,left,Red_Circle_Stripes_2.jpg,Blue_Plus_Grid_2.jpg,Red_Triangle_Dots_4.jpg,right,1409.1000000480562,false,high,false
Xp2l6bUU,3j6bhnx0vc5zv8hudcso2u6bq3dnka,323q6sjs8mtysa1z05bg6hd1iuchfr,Xp2l6bUU,2020-0188,2020-05-21,15:48:25,16:14:14,NA,incomplete,1,number,1,right,Green_Triangle_Dots_4.jpg,Green_Plus_Grid_1.jpg,Blue_Star_Stripes_4.jpg,left,868.5000000987202,false,high,false
Xp2l6bUU,3j6bhnx0vc5zv8hudcso2u6bq3dnka,323q6sjs8mtysa1z05bg6hd1iuchfr,Xp2l6bUU,2020-0188,2020-05-21,15:48:25,16:14:14,NA,incomplete,2,number,1,right,Blue_Star_Grid_3.jpg,Blue_Circle_Dots_4.jpg,Red_Triangle_Chess_3.jpg,left,1235.1950000738725,false,high,false
Xp2l6bUU,3j6bhnx0vc5zv8hudcso2u6bq3dnka,323q6sjs8mtysa1z05bg6hd1iuchfr,Xp2l6bUU,2020-0188,2020-05-21,15:48:25,16:14:14,NA,incomplete,3,number,1,left,Green_Circle_Chess_1.jpg,Blue_Star_Dots_1.jpg,Green_Triangle_Grid_2.jpg,left,930.8149999706075,true,high,false
Xp2l6bUU,3j6bhnx0vc5zv8hudcso2u6bq3dnka,323q6sjs8mtysa1z05bg6hd1iuchfr,Xp2l6bUU,2020-0188,2020-05-21,15:48:25,16:14:14,NA,incomplete,4,number,1,left,Purple_Triangle_Stripes_4.jpg,Red_Plus_Chess_4.jpg,Purple_Circle_Dots_3.jpg,left,915.9200000576675,true,high,false
Xp2l6bUU,3j6bhnx0vc5zv8hudcso2u6bq3dnka,323q6sjs8mtysa1z05bg6hd1iuchfr,Xp2l6bUU,2020-0188,2020-05-21,15:48:25,16:14:14,NA,incomplete,5,number,1,left,Green_Circle_Dots_3.jpg,Blue_Triangle_Grid_3.jpg,Green_Plus_Chess_4.jpg,right,894.6500000311062,false,high,false
Xp2l6bUU,3j6bhnx0vc5zv8hudcso2u6bq3dnka,323q6sjs8mtysa1z05bg6hd1iuchfr,Xp2l6bUU,2020-0188,2020-05-21,15:48:25,16:14:14,NA,incomplete,6,number,1,left,Red_Triangle_Stripes_3.jpg,Blue_Circle_Chess_3.jpg,Red_Star_Dots_4.jpg,left,896.7499999562278,true,high,false
Xp2l6bUU,3j6bhnx0vc5zv8hudcso2u6bq3dnka,323q6sjs8mtysa1z05bg6hd1iuchfr,Xp2l6bUU,2020-0188,2020-05-21,15:48:25,16:14:14,NA,incomplete,7,number,1,left,Green_Triangle_Grid_4.jpg,Purple_Star_Stripes_4.jpg,Green_Plus_Dots_1.jpg,left,722.7699999930337,true,high,false
Xp2l6bUU,3j6bhnx0vc5zv8hudcso2u6bq3dnka,323q6sjs8mtysa1z05bg6hd1iuchfr,Xp2l6bUU,2020-0188,2020-05-21,15:48:25,16:14:14,NA,incomplete,8,number,1,right,Green_Triangle_Dots_2.jpg,Green_Circle_Stripes_3.jpg,Red_Plus_Chess_2.jpg,right,761.629999964498,true,high,false
Xp2l6bUU,3j6bhnx0vc5zv8hudcso2u6bq3dnka,323q6sjs8mtysa1z05bg6hd1iuchfr,Xp2l6bUU,2020-0188,2020-05-21,15:48:25,16:14:14,NA,incomplete,9,number,1,left,Purple_Triangle_Chess_1.jpg,Red_Plus_Dots_1.jpg,Purple_Circle_Grid_4.jpg,left,619.0349999815226,true,high,false
Xp2l6bUU,3j6bhnx0vc5zv8hudcso2u6bq3dnka,323q6sjs8mtysa1z05bg6hd1iuchfr,Xp2l6bUU,2020-0188,2020-05-21,15:48:25,16:14:14,NA,incomplete,10,color,1,left,Blue_Star_Grid_1.jpg,Blue_Circle_Dots_3.jpg,Green_Triangle_Stripes_1.jpg,right,1073.1449999148026,false,high,false
Xp2l6bUU,3j6bhnx0vc5zv8hudcso2u6bq3dnka,323q6sjs8mtysa1z05bg6hd1iuchfr,Xp2l6bUU,2020-0188,2020-05-21,15:48:25,16:14:14,NA,incomplete,11,color,1,left,Green_Star_Grid_3.jpg,Green_Plus_Stripes_2.jpg,Purple_Circle_Chess_3.jpg,left,934.4450000207871,true,high,false
Xp2l6bUU,3j6bhnx0vc5zv8hudcso2u6bq3dnka,323q6sjs8mtysa1z05bg6hd1iuchfr,Xp2l6bUU,2020-0188,2020-05-21,15:48:25,16:14:14,NA,incomplete,12,color,1,left,Blue_Star_Chess_4.jpg,Blue_Triangle_Dots_3.jpg,Green_Plus_Grid_4.jpg,left,817.9350000573322,true,high,false
Xp2l6bUU,3j6bhnx0vc5zv8hudcso2u6bq3dnka,323q6sjs8mtysa1z05bg6hd1iuchfr,Xp2l6bUU,2020-0188,2020-05-21,15:48:25,16:14:14,NA,incomplete,13,color,1,right,Green_Triangle_Dots_4.jpg,Purple_Plus_Stripes_4.jpg,Green_Circle_Chess_3.jpg,right,781.6850000526756,true,high,false
Xp2l6bUU,3j6bhnx0vc5zv8hudcso2u6bq3dnka,323q6sjs8mtysa1z05bg6hd1iuchfr,Xp2l6bUU,2020-0188,2020-05-21,15:48:25,16:14:14,NA,incomplete,14,color,1,left,Purple_Plus_Dots_3.jpg,Purple_Triangle_Stripes_2.jpg,Blue_Star_Chess_3.jpg,left,479.01999996975064,true,high,false
Xp2l6bUU,3j6bhnx0vc5zv8hudcso2u6bq3dnka,323q6sjs8mtysa1z05bg6hd1iuchfr,Xp2l6bUU,2020-0188,2020-05-21,15:48:25,16:14:14,NA,incomplete,15,color,1,left,Blue_Star_Grid_4.jpg,Blue_Circle_Stripes_2.jpg,Green_Plus_Dots_4.jpg,left,709.7949999151751,true,high,false
Xp2l6bUU,3j6bhnx0vc5zv8hudcso2u6bq3dnka,323q6sjs8mtysa1z05bg6hd1iuchfr,Xp2l6bUU,2020-0188,2020-05-21,15:48:25,16:14:14,NA,incomplete,16,color,1,left,Red_Triangle_Dots_1.jpg,Red_Plus_Stripes_4.jpg,Purple_Star_Chess_1.jpg,left,666.0149999661371,true,high,false
Xp2l6bUU,3j6bhnx0vc5zv8hudcso2u6bq3dnka,323q6sjs8mtysa1z05bg6hd1iuchfr,Xp2l6bUU,2020-0188,2020-05-21,15:48:25,16:14:14,NA,incomplete,17,color,1,right,Green_Plus_Dots_4.jpg,Blue_Star_Grid_4.jpg,Green_Circle_Chess_3.jpg,right,889.3799999495968,true,high,false
Xp2l6bUU,3j6bhnx0vc5zv8hudcso2u6bq3dnka,323q6sjs8mtysa1z05bg6hd1iuchfr,Xp2l6bUU,2020-0188,2020-05-21,15:48:25,16:14:14,NA,incomplete,18,color,1,right,Green_Plus_Chess_2.jpg,Blue_Triangle_Stripes_2.jpg,Green_Circle_Dots_4.jpg,right,635.0100000854582,true,high,false
Xp2l6bUU,3j6bhnx0vc5zv8hudcso2u6bq3dnka,323q6sjs8mtysa1z05bg6hd1iuchfr,Xp2l6bUU,2020-0188,2020-05-21,15:48:25,16:14:14,NA,incomplete,19,color,1,right,Purple_Circle_Chess_1.jpg,Green_Triangle_Dots_1.jpg,Purple_Star_Grid_3.jpg,left,613.539999932982,false,high,false
Xp2l6bUU,3j6bhnx0vc5zv8hudcso2u6bq3dnka,323q6sjs8mtysa1z05bg6hd1iuchfr,Xp2l6bUU,2020-0188,2020-05-21,15:48:25,16:14:14,NA,incomplete,20,number,1,left,Red_Star_Chess_2.jpg,Purple_Plus_Grid_2.jpg,Red_Triangle_Dots_4.jpg,right,703.4099999582395,false,high,false
Xp2l6bUU,3j6bhnx0vc5zv8hudcso2u6bq3dnka,323q6sjs8mtysa1z05bg6hd1iuchfr,Xp2l6bUU,2020-0188,2020-05-21,15:48:25,16:14:14,NA,incomplete,21,number,1,left,Green_Circle_Stripes_2.jpg,Red_Triangle_Dots_2.jpg,Green_Plus_Grid_4.jpg,right,901.1049999389797,false,high,false
Xp2l6bUU,3j6bhnx0vc5zv8hudcso2u6bq3dnka,323q6sjs8mtysa1z05bg6hd1iuchfr,Xp2l6bUU,2020-0188,2020-05-21,15:48:25,16:14:14,NA,incomplete,22,number,1,left,Blue_Circle_Grid_2.jpg,Green_Plus_Chess_2.jpg,Blue_Star_Stripes_4.jpg,left,831.9200000260025,true,high,false
Xp2l6bUU,3j6bhnx0vc5zv8hudcso2u6bq3dnka,323q6sjs8mtysa1z05bg6hd1iuchfr,Xp2l6bUU,2020-0188,2020-05-21,15:48:25,16:14:14,NA,incomplete,23,number,1,left,Blue_Plus_Grid_3.jpg,Red_Star_Stripes_3.jpg,Blue_Circle_Dots_4.jpg,left,958.6699999636039,true,high,false
Xp2l6bUU,3j6bhnx0vc5zv8hudcso2u6bq3dnka,323q6sjs8mtysa1z05bg6hd1iuchfr,Xp2l6bUU,2020-0188,2020-05-21,15:48:25,16:14:14,NA,incomplete,24,number,1,left,Red_Plus_Stripes_4.jpg,Green_Triangle_Grid_4.jpg,Red_Star_Chess_3.jpg,left,722.7749999146909,true,high,false
Xp2l6bUU,3j6bhnx0vc5zv8hudcso2u6bq3dnka,323q6sjs8mtysa1z05bg6hd1iuchfr,Xp2l6bUU,2020-0188,2020-05-21,15:48:25,16:14:14,NA,incomplete,25,number,1,right,Purple_Plus_Stripes_1.jpg,Purple_Circle_Dots_4.jpg,Green_Triangle_Grid_1.jpg,right,745.6699999747798,true,high,false
Xp2l6bUU,3j6bhnx0vc5zv8hudcso2u6bq3dnka,323q6sjs8mtysa1z05bg6hd1iuchfr,Xp2l6bUU,2020-0188,2020-05-21,15:48:25,16:14:14,NA,incomplete,26,number,0,right,Red_Circle_Stripes_4.jpg,Red_Star_Grid_1.jpg,Blue_Plus_Dots_4.jpg,right,866.2050000857562,true,high,false
Xp2l6bUU,3j6bhnx0vc5zv8hudcso2u6bq3dnka,323q6sjs8mtysa1z05bg6hd1iuchfr,Xp2l6bUU,2020-0188,2020-05-21,15:48:25,16:14:14,NA,incomplete,27,number,1,left,Red_Circle_Grid_4.jpg,Purple_Star_Chess_4.jpg,Red_Plus_Dots_3.jpg,left,524.7100000269711,true,high,false
Xp2l6bUU,3j6bhnx0vc5zv8hudcso2u6bq3dnka,323q6sjs8mtysa1z05bg6hd1iuchfr,Xp2l6bUU,2020-0188,2020-05-21,15:48:25,16:14:14,NA,incomplete,28,number,1,right,Purple_Triangle_Grid_1.jpg,Purple_Circle_Chess_2.jpg,Red_Plus_Stripes_1.jpg,right,572.9900000151247,true,high,false
Xp2l6bUU,3j6bhnx0vc5zv8hudcso2u6bq3dnka,323q6sjs8mtysa1z05bg6hd1iuchfr,Xp2l6bUU,2020-0188,2020-05-21,15:48:25,16:14:14,NA,incomplete,29,number,1,left,Purple_Plus_Grid_3.jpg,Blue_Circle_Chess_3.jpg,Purple_Triangle_Dots_4.jpg,left,509.9799999734387,true,high,false
Xp2l6bUU,3j6bhnx0vc5zv8hudcso2u6bq3dnka,323q6sjs8mtysa1z05bg6hd1iuchfr,Xp2l6bUU,2020-0188,2020-05-21,15:48:25,16:14:14,NA,incomplete,30,color,1,left,Red_Triangle_Stripes_2.jpg,Red_Circle_Chess_3.jpg,Purple_Plus_Dots_2.jpg,right,734.6550000365824,false,high,false
Xp2l6bUU,3j6bhnx0vc5zv8hudcso2u6bq3dnka,323q6sjs8mtysa1z05bg6hd1iuchfr,Xp2l6bUU,2020-0188,2020-05-21,15:48:25,16:14:14,NA,incomplete,31,color,1,left,Green_Star_Chess_1.jpg,Green_Circle_Grid_4.jpg,Blue_Plus_Dots_1.jpg,left,455.4299999726936,true,high,false
Xp2l6bUU,3j6bhnx0vc5zv8hudcso2u6bq3dnka,323q6sjs8mtysa1z05bg6hd1iuchfr,Xp2l6bUU,2020-0188,2020-05-21,15:48:25,16:14:14,NA,incomplete,32,color,1,left,Green_Plus_Chess_3.jpg,Green_Star_Stripes_1.jpg,Red_Triangle_Dots_3.jpg,left,594.73499993328,true,high,false
Xp2l6bUU,3j6bhnx0vc5zv8hudcso2u6bq3dnka,323q6sjs8mtysa1z05bg6hd1iuchfr,Xp2l6bUU,2020-0188,2020-05-21,15:48:25,16:14:14,NA,incomplete,33,color,0,right,Blue_Star_Dots_2.jpg,Red_Plus_Stripes_2.jpg,Blue_Triangle_Chess_1.jpg,left,660.4200000874698,false,high,false
Xp2l6bUU,3j6bhnx0vc5zv8hudcso2u6bq3dnka,323q6sjs8mtysa1z05bg6hd1iuchfr,Xp2l6bUU,2020-0188,2020-05-21,15:48:25,16:14:14,NA,incomplete,34,color,1,left,Red_Star_Dots_4.jpg,Red_Circle_Stripes_1.jpg,Green_Plus_Grid_4.jpg,left,519.3250000011176,true,high,false
Xp2l6bUU,3j6bhnx0vc5zv8hudcso2u6bq3dnka,323q6sjs8mtysa1z05bg6hd1iuchfr,Xp2l6bUU,2020-0188,2020-05-21,15:48:25,16:14:14,NA,incomplete,35,color,1,right,Green_Star_Dots_3.jpg,Purple_Plus_Chess_3.jpg,Green_Triangle_Stripes_1.jpg,right,478.220000048168,true,high,false
Xp2l6bUU,3j6bhnx0vc5zv8hudcso2u6bq3dnka,323q6sjs8mtysa1z05bg6hd1iuchfr,Xp2l6bUU,2020-0188,2020-05-21,15:48:25,16:14:14,NA,incomplete,36,color,0,left,Red_Triangle_Grid_2.jpg,Red_Plus_Chess_3.jpg,Green_Circle_Dots_2.jpg,left,515.294999931939,true,high,false
Xp2l6bUU,3j6bhnx0vc5zv8hudcso2u6bq3dnka,323q6sjs8mtysa1z05bg6hd1iuchfr,Xp2l6bUU,2020-0188,2020-05-21,15:48:25,16:14:14,NA,incomplete,37,color,1,left,Blue_Circle_Dots_2.jpg,Blue_Star_Grid_3.jpg,Red_Triangle_Stripes_2.jpg,left,638.2499999599531,true,high,false
Xp2l6bUU,3j6bhnx0vc5zv8hudcso2u6bq3dnka,323q6sjs8mtysa1z05bg6hd1iuchfr,Xp2l6bUU,2020-0188,2020-05-21,15:48:25,16:14:14,NA,incomplete,38,color,1,right,Blue_Star_Stripes_1.jpg,Purple_Triangle_Chess_1.jpg,Blue_Circle_Dots_2.jpg,left,619.9200000846758,false,high,false
Xp2l6bUU,3j6bhnx0vc5zv8hudcso2u6bq3dnka,323q6sjs8mtysa1z05bg6hd1iuchfr,Xp2l6bUU,2020-0188,2020-05-21,15:48:25,16:14:14,NA,incomplete,39,color,1,left,Red_Triangle_Dots_1.jpg,Red_Circle_Chess_2.jpg,Blue_Plus_Grid_1.jpg,right,442.3749999841675,false,high,false
Xp2l6bUU,3j6bhnx0vc5zv8hudcso2u6bq3dnka,323q6sjs8mtysa1z05bg6hd1iuchfr,Xp2l6bUU,2020-0188,2020-05-21,15:48:25,16:14:14,NA,incomplete,40,number,1,right,Blue_Triangle_Stripes_4.jpg,Blue_Plus_Chess_2.jpg,Green_Circle_Dots_4.jpg,left,558.045000070706,false,high,false
Xp2l6bUU,3j6bhnx0vc5zv8hudcso2u6bq3dnka,323q6sjs8mtysa1z05bg6hd1iuchfr,Xp2l6bUU,2020-0188,2020-05-21,15:48:25,16:14:14,NA,incomplete,41,number,1,left,Green_Triangle_Chess_4.jpg,Blue_Plus_Grid_4.jpg,Green_Star_Dots_3.jpg,left,826.4499999349937,true,high,false
Xp2l6bUU,3j6bhnx0vc5zv8hudcso2u6bq3dnka,323q6sjs8mtysa1z05bg6hd1iuchfr,Xp2l6bUU,2020-0188,2020-05-21,15:48:25,16:14:14,NA,incomplete,42,number,1,right,Green_Triangle_Grid_2.jpg,Green_Plus_Stripes_4.jpg,Red_Circle_Chess_2.jpg,right,765.1700000278652,true,high,false
Xp2l6bUU,3j6bhnx0vc5zv8hudcso2u6bq3dnka,323q6sjs8mtysa1z05bg6hd1iuchfr,Xp2l6bUU,2020-0188,2020-05-21,15:48:25,16:14:14,NA,incomplete,43,number,1,right,Blue_Plus_Chess_1.jpg,Blue_Circle_Grid_4.jpg,Purple_Star_Stripes_1.jpg,right,552.9799999203533,true,high,false
Xp2l6bUU,3j6bhnx0vc5zv8hudcso2u6bq3dnka,323q6sjs8mtysa1z05bg6hd1iuchfr,Xp2l6bUU,2020-0188,2020-05-21,15:48:25,16:14:14,NA,incomplete,44,number,1,right,Purple_Star_Dots_3.jpg,Purple_Circle_Grid_4.jpg,Red_Plus_Chess_3.jpg,left,428.3549999818206,false,high,false
Xp2l6bUU,3j6bhnx0vc5zv8hudcso2u6bq3dnka,323q6sjs8mtysa1z05bg6hd1iuchfr,Xp2l6bUU,2020-0188,2020-05-21,15:48:25,16:14:14,NA,incomplete,45,number,0,right,Red_Plus_Stripes_1.jpg,Red_Triangle_Dots_2.jpg,Green_Circle_Grid_1.jpg,left,495.69999997038394,false,high,false
Xp2l6bUU,3j6bhnx0vc5zv8hudcso2u6bq3dnka,323q6sjs8mtysa1z05bg6hd1iuchfr,Xp2l6bUU,2020-0188,2020-05-21,15:48:25,16:14:14,NA,incomplete,46,number,1,left,Red_Circle_Dots_4.jpg,Purple_Star_Chess_4.jpg,Red_Triangle_Stripes_1.jpg,left,661.1650000559166,true,high,false
Xp2l6bUU,3j6bhnx0vc5zv8hudcso2u6bq3dnka,323q6sjs8mtysa1z05bg6hd1iuchfr,Xp2l6bUU,2020-0188,2020-05-21,15:48:25,16:14:14,NA,incomplete,47,number,1,right,Red_Circle_Stripes_4.jpg,Red_Triangle_Dots_1.jpg,Blue_Star_Grid_4.jpg,right,619.5699999807402,true,high,false
Xp2l6bUU,3j6bhnx0vc5zv8hudcso2u6bq3dnka,323q6sjs8mtysa1z05bg6hd1iuchfr,Xp2l6bUU,2020-0188,2020-05-21,15:48:25,16:14:14,NA,incomplete,48,number,1,right,Purple_Plus_Chess_4.jpg,Purple_Star_Stripes_1.jpg,Blue_Circle_Dots_4.jpg,left,458.89000000897795,false,high,false
Xp2l6bUU,3j6bhnx0vc5zv8hudcso2u6bq3dnka,323q6sjs8mtysa1z05bg6hd1iuchfr,Xp2l6bUU,2020-0188,2020-05-21,15:48:25,16:14:14,NA,incomplete,49,number,1,left,Red_Circle_Grid_2.jpg,Purple_Plus_Stripes_2.jpg,Red_Triangle_Chess_3.jpg,left,731.7500000353903,true,high,false
Xp2l6bUU,3j6bhnx0vc5zv8hudcso2u6bq3dnka,323q6sjs8mtysa1z05bg6hd1iuchfr,Xp2l6bUU,2020-0188,2020-05-21,15:48:25,16:14:14,NA,incomplete,50,color,1,left,Purple_Triangle_Chess_1.jpg,Purple_Star_Dots_4.jpg,Green_Circle_Stripes_1.jpg,left,569.7149999905378,true,high,false
Xp2l6bUU,3j6bhnx0vc5zv8hudcso2u6bq3dnka,323q6sjs8mtysa1z05bg6hd1iuchfr,Xp2l6bUU,2020-0188,2020-05-21,15:48:25,16:14:14,NA,incomplete,51,color,1,right,Purple_Triangle_Grid_2.jpg,Green_Circle_Dots_2.jpg,Purple_Plus_Chess_1.jpg,right,632.0200000191107,true,high,false
Xp2l6bUU,3j6bhnx0vc5zv8hudcso2u6bq3dnka,323q6sjs8mtysa1z05bg6hd1iuchfr,Xp2l6bUU,2020-0188,2020-05-21,15:48:25,16:14:14,NA,incomplete,52,color,1,right,Red_Circle_Stripes_2.jpg,Green_Star_Dots_2.jpg,Red_Triangle_Grid_1.jpg,right,485.81000010017306,true,high,false
Xp2l6bUU,3j6bhnx0vc5zv8hudcso2u6bq3dnka,323q6sjs8mtysa1z05bg6hd1iuchfr,Xp2l6bUU,2020-0188,2020-05-21,15:48:25,16:14:14,NA,incomplete,53,color,1,right,Blue_Star_Grid_4.jpg,Red_Circle_Dots_4.jpg,Blue_Triangle_Chess_3.jpg,right,528.7099999841303,true,high,false
Xp2l6bUU,3j6bhnx0vc5zv8hudcso2u6bq3dnka,323q6sjs8mtysa1z05bg6hd1iuchfr,Xp2l6bUU,2020-0188,2020-05-21,15:48:25,16:14:14,NA,incomplete,54,color,1,left,Purple_Plus_Stripes_1.jpg,Purple_Circle_Grid_2.jpg,Blue_Star_Chess_1.jpg,left,419.0949999028817,true,high,false
Xp2l6bUU,3j6bhnx0vc5zv8hudcso2u6bq3dnka,323q6sjs8mtysa1z05bg6hd1iuchfr,Xp2l6bUU,2020-0188,2020-05-21,15:48:25,16:14:14,NA,incomplete,55,color,1,right,Blue_Star_Grid_1.jpg,Purple_Plus_Chess_1.jpg,Blue_Triangle_Dots_3.jpg,right,532.1450000628829,true,high,false
Xp2l6bUU,3j6bhnx0vc5zv8hudcso2u6bq3dnka,323q6sjs8mtysa1z05bg6hd1iuchfr,Xp2l6bUU,2020-0188,2020-05-21,15:48:25,16:14:14,NA,incomplete,56,color,0,right,Green_Circle_Dots_2.jpg,Red_Star_Chess_2.jpg,Green_Plus_Stripes_4.jpg,left,440.8899999689311,false,high,false
Xp2l6bUU,3j6bhnx0vc5zv8hudcso2u6bq3dnka,323q6sjs8mtysa1z05bg6hd1iuchfr,Xp2l6bUU,2020-0188,2020-05-21,15:48:25,16:14:14,NA,incomplete,57,color,1,right,Red_Star_Stripes_3.jpg,Purple_Plus_Grid_3.jpg,Red_Circle_Chess_4.jpg,left,676.549999974668,false,high,false
Xp2l6bUU,3j6bhnx0vc5zv8hudcso2u6bq3dnka,323q6sjs8mtysa1z05bg6hd1iuchfr,Xp2l6bUU,2020-0188,2020-05-21,15:48:25,16:14:14,NA,incomplete,58,color,0,left,Red_Circle_Grid_2.jpg,Red_Triangle_Stripes_3.jpg,Green_Star_Dots_2.jpg,left,418.36999997030944,true,high,false
Xp2l6bUU,3j6bhnx0vc5zv8hudcso2u6bq3dnka,323q6sjs8mtysa1z05bg6hd1iuchfr,Xp2l6bUU,2020-0188,2020-05-21,15:48:25,16:14:14,NA,incomplete,59,color,1,right,Purple_Star_Chess_2.jpg,Red_Circle_Stripes_2.jpg,Purple_Plus_Dots_3.jpg,left,612.6300001051277,false,high,false
Xp2l6bUU,3j6bhnx0vc5zv8hudcso2u6bq3dnka,323q6sjs8mtysa1z05bg6hd1iuchfr,Xp2l6bUU,2020-0188,2020-05-21,15:48:25,16:14:14,NA,incomplete,60,number,1,right,Green_Circle_Dots_4.jpg,Green_Plus_Stripes_3.jpg,Red_Triangle_Grid_4.jpg,right,647.7449999656528,true,high,false
Xp2l6bUU,3j6bhnx0vc5zv8hudcso2u6bq3dnka,323q6sjs8mtysa1z05bg6hd1iuchfr,Xp2l6bUU,2020-0188,2020-05-21,15:48:25,16:14:14,NA,incomplete,61,number,1,right,Purple_Plus_Grid_1.jpg,Purple_Triangle_Chess_2.jpg,Red_Star_Dots_1.jpg,right,913.6599999619648,true,high,false
Xp2l6bUU,3j6bhnx0vc5zv8hudcso2u6bq3dnka,323q6sjs8mtysa1z05bg6hd1iuchfr,Xp2l6bUU,2020-0188,2020-05-21,15:48:25,16:14:14,NA,incomplete,62,number,0,left,Red_Plus_Dots_1.jpg,Blue_Circle_Grid_1.jpg,Red_Triangle_Stripes_3.jpg,left,632.6750000007451,true,high,false
Xp2l6bUU,3j6bhnx0vc5zv8hudcso2u6bq3dnka,323q6sjs8mtysa1z05bg6hd1iuchfr,Xp2l6bUU,2020-0188,2020-05-21,15:48:25,16:14:14,NA,incomplete,63,number,1,left,Red_Circle_Stripes_4.jpg,Green_Star_Dots_4.jpg,Red_Plus_Chess_2.jpg,left,724.930000025779,true,high,false
Xp2l6bUU,3j6bhnx0vc5zv8hudcso2u6bq3dnka,323q6sjs8mtysa1z05bg6hd1iuchfr,Xp2l6bUU,2020-0188,2020-05-21,15:48:25,16:14:14,NA,incomplete,64,number,0,right,Red_Circle_Stripes_2.jpg,Red_Triangle_Grid_4.jpg,Green_Star_Dots_2.jpg,right,617.6149999955669,true,high,false
Xp2l6bUU,3j6bhnx0vc5zv8hudcso2u6bq3dnka,323q6sjs8mtysa1z05bg6hd1iuchfr,Xp2l6bUU,2020-0188,2020-05-21,15:48:25,16:14:14,NA,incomplete,65,number,1,right,Blue_Triangle_Chess_2.jpg,Blue_Plus_Stripes_1.jpg,Green_Star_Dots_2.jpg,left,847.3050000611693,false,high,false
Xp2l6bUU,3j6bhnx0vc5zv8hudcso2u6bq3dnka,323q6sjs8mtysa1z05bg6hd1iuchfr,Xp2l6bUU,2020-0188,2020-05-21,15:48:25,16:14:14,NA,incomplete,66,number,0,right,Green_Circle_Stripes_2.jpg,Green_Star_Grid_4.jpg,Purple_Triangle_Dots_2.jpg,left,407.0100000826642,false,high,false
Xp2l6bUU,3j6bhnx0vc5zv8hudcso2u6bq3dnka,323q6sjs8mtysa1z05bg6hd1iuchfr,Xp2l6bUU,2020-0188,2020-05-21,15:48:25,16:14:14,NA,incomplete,67,number,1,left,Blue_Plus_Grid_3.jpg,Green_Star_Stripes_3.jpg,Blue_Triangle_Dots_4.jpg,right,936.0850000521168,false,high,false
Xp2l6bUU,3j6bhnx0vc5zv8hudcso2u6bq3dnka,323q6sjs8mtysa1z05bg6hd1iuchfr,Xp2l6bUU,2020-0188,2020-05-21,15:48:25,16:14:14,NA,incomplete,68,number,1,right,Green_Circle_Stripes_4.jpg,Green_Plus_Chess_3.jpg,Blue_Triangle_Dots_4.jpg,left,427.0849999738857,false,high,false
Xp2l6bUU,3j6bhnx0vc5zv8hudcso2u6bq3dnka,323q6sjs8mtysa1z05bg6hd1iuchfr,Xp2l6bUU,2020-0188,2020-05-21,15:48:25,16:14:14,NA,incomplete,69,number,0,right,Green_Star_Chess_3.jpg,Green_Circle_Stripes_2.jpg,Purple_Plus_Grid_3.jpg,left,799.8000000370666,false,high,false
Xp2l6bUU,3j6bhnx0vc5zv8hudcso2u6bq3dnka,323q6sjs8mtysa1z05bg6hd1iuchfr,Xp2l6bUU,2020-0188,2020-05-21,15:48:25,16:14:14,NA,incomplete,70,color,1,right,Purple_Star_Chess_4.jpg,Blue_Triangle_Stripes_4.jpg,Purple_Plus_Dots_1.jpg,right,521.390000008978,true,high,false
Xp2l6bUU,3j6bhnx0vc5zv8hudcso2u6bq3dnka,323q6sjs8mtysa1z05bg6hd1iuchfr,Xp2l6bUU,2020-0188,2020-05-21,15:48:25,16:14:14,NA,incomplete,71,color,1,right,Blue_Circle_Chess_1.jpg,Red_Plus_Grid_1.jpg,Blue_Star_Dots_4.jpg,right,463.2900001015514,true,high,false
Xp2l6bUU,3j6bhnx0vc5zv8hudcso2u6bq3dnka,323q6sjs8mtysa1z05bg6hd1iuchfr,Xp2l6bUU,2020-0188,2020-05-21,15:48:25,16:14:14,NA,incomplete,72,color,1,left,Blue_Circle_Stripes_1.jpg,Blue_Star_Grid_4.jpg,Red_Plus_Chess_1.jpg,left,642.0699999434873,true,high,false
Xp2l6bUU,3j6bhnx0vc5zv8hudcso2u6bq3dnka,323q6sjs8mtysa1z05bg6hd1iuchfr,Xp2l6bUU,2020-0188,2020-05-21,15:48:25,16:14:14,NA,incomplete,73,color,1,left,Purple_Triangle_Dots_3.jpg,Purple_Circle_Chess_4.jpg,Green_Star_Stripes_3.jpg,left,487.93000006116927,true,high,false
Xp2l6bUU,3j6bhnx0vc5zv8hudcso2u6bq3dnka,323q6sjs8mtysa1z05bg6hd1iuchfr,Xp2l6bUU,2020-0188,2020-05-21,15:48:25,16:14:14,NA,incomplete,74,color,0,left,Green_Star_Grid_2.jpg,Green_Triangle_Dots_3.jpg,Purple_Circle_Stripes_2.jpg,left,463.76499999314547,true,high,false
Xp2l6bUU,3j6bhnx0vc5zv8hudcso2u6bq3dnka,323q6sjs8mtysa1z05bg6hd1iuchfr,Xp2l6bUU,2020-0188,2020-05-21,15:48:25,16:14:14,NA,incomplete,75,color,0,right,Purple_Star_Dots_2.jpg,Red_Circle_Stripes_2.jpg,Purple_Triangle_Chess_4.jpg,left,773.3549999538809,false,high,false
Xp2l6bUU,3j6bhnx0vc5zv8hudcso2u6bq3dnka,323q6sjs8mtysa1z05bg6hd1iuchfr,Xp2l6bUU,2020-0188,2020-05-21,15:48:25,16:14:14,NA,incomplete,76,color,1,left,Blue_Triangle_Chess_2.jpg,Blue_Circle_Stripes_4.jpg,Purple_Plus_Dots_2.jpg,right,641.3500000489876,false,high,false
Xp2l6bUU,3j6bhnx0vc5zv8hudcso2u6bq3dnka,323q6sjs8mtysa1z05bg6hd1iuchfr,Xp2l6bUU,2020-0188,2020-05-21,15:48:25,16:14:14,NA,incomplete,77,color,0,left,Blue_Circle_Stripes_4.jpg,Blue_Triangle_Dots_3.jpg,Green_Star_Grid_4.jpg,left,627.2949998965487,true,high,false
Xp2l6bUU,3j6bhnx0vc5zv8hudcso2u6bq3dnka,323q6sjs8mtysa1z05bg6hd1iuchfr,Xp2l6bUU,2020-0188,2020-05-21,15:48:25,16:14:14,NA,incomplete,78,color,1,left,Blue_Circle_Grid_3.jpg,Blue_Star_Dots_2.jpg,Green_Plus_Chess_3.jpg,right,788.4299999568611,false,high,false
Xp2l6bUU,3j6bhnx0vc5zv8hudcso2u6bq3dnka,323q6sjs8mtysa1z05bg6hd1iuchfr,Xp2l6bUU,2020-0188,2020-05-21,15:48:25,16:14:14,NA,incomplete,79,color,1,left,Red_Triangle_Grid_4.jpg,Red_Circle_Stripes_3.jpg,Purple_Star_Dots_4.jpg,left,458.99999991524965,true,high,false
Xp2l6bUU,3j6bhnx0vc5zv8hudcso2u6bq3dnka,323q6sjs8mtysa1z05bg6hd1iuchfr,Xp2l6bUU,2020-0188,2020-05-21,15:48:25,16:14:14,NA,incomplete,80,number,1,left,Purple_Circle_Chess_3.jpg,Red_Triangle_Stripes_3.jpg,Purple_Star_Dots_4.jpg,right,500.4200000548735,false,high,false
Xp2l6bUU,3j6bhnx0vc5zv8hudcso2u6bq3dnka,323q6sjs8mtysa1z05bg6hd1iuchfr,Xp2l6bUU,2020-0188,2020-05-21,15:48:25,16:14:14,NA,incomplete,81,number,1,left,Blue_Circle_Grid_4.jpg,Purple_Star_Dots_4.jpg,Blue_Plus_Stripes_3.jpg,right,464.100000099279,false,high,false
Xp2l6bUU,3j6bhnx0vc5zv8hudcso2u6bq3dnka,323q6sjs8mtysa1z05bg6hd1iuchfr,Xp2l6bUU,2020-0188,2020-05-21,15:48:25,16:14:14,NA,incomplete,82,number,1,left,Blue_Circle_Dots_3.jpg,Green_Plus_Stripes_3.jpg,Blue_Star_Grid_1.jpg,left,553.6599999759346,true,high,false
Xp2l6bUU,3j6bhnx0vc5zv8hudcso2u6bq3dnka,323q6sjs8mtysa1z05bg6hd1iuchfr,Xp2l6bUU,2020-0188,2020-05-21,15:48:25,16:14:14,NA,incomplete,83,number,1,left,Green_Triangle_Dots_1.jpg,Red_Star_Grid_1.jpg,Green_Plus_Chess_3.jpg,left,548.0849999003112,true,high,false
Xp2l6bUU,3j6bhnx0vc5zv8hudcso2u6bq3dnka,323q6sjs8mtysa1z05bg6hd1iuchfr,Xp2l6bUU,2020-0188,2020-05-21,15:48:25,16:14:14,NA,incomplete,84,number,1,left,Blue_Circle_Stripes_2.jpg,Purple_Plus_Dots_2.jpg,Blue_Triangle_Chess_1.jpg,left,969.0249999985099,true,high,false
Xp2l6bUU,3j6bhnx0vc5zv8hudcso2u6bq3dnka,323q6sjs8mtysa1z05bg6hd1iuchfr,Xp2l6bUU,2020-0188,2020-05-21,15:48:25,16:14:14,NA,incomplete,85,number,1,right,Purple_Star_Dots_4.jpg,Purple_Plus_Chess_1.jpg,Green_Circle_Grid_4.jpg,right,601.3100000564009,true,high,false
Xp2l6bUU,3j6bhnx0vc5zv8hudcso2u6bq3dnka,323q6sjs8mtysa1z05bg6hd1iuchfr,Xp2l6bUU,2020-0188,2020-05-21,15:48:25,16:14:14,NA,incomplete,86,number,1,right,Blue_Triangle_Dots_2.jpg,Blue_Plus_Grid_4.jpg,Green_Star_Stripes_2.jpg,right,741.3950000191107,true,high,false
Xp2l6bUU,3j6bhnx0vc5zv8hudcso2u6bq3dnka,323q6sjs8mtysa1z05bg6hd1iuchfr,Xp2l6bUU,2020-0188,2020-05-21,15:48:25,16:14:14,NA,incomplete,87,number,0,left,Blue_Plus_Stripes_3.jpg,Purple_Triangle_Grid_3.jpg,Blue_Circle_Dots_2.jpg,left,452.04999996349216,true,high,false
Xp2l6bUU,3j6bhnx0vc5zv8hudcso2u6bq3dnka,323q6sjs8mtysa1z05bg6hd1iuchfr,Xp2l6bUU,2020-0188,2020-05-21,15:48:25,16:14:14,NA,incomplete,88,number,1,right,Blue_Star_Chess_3.jpg,Blue_Circle_Stripes_1.jpg,Purple_Triangle_Grid_3.jpg,left,501.7999999690801,false,high,false
Xp2l6bUU,3j6bhnx0vc5zv8hudcso2u6bq3dnka,323q6sjs8mtysa1z05bg6hd1iuchfr,Xp2l6bUU,2020-0188,2020-05-21,15:48:25,16:14:14,NA,incomplete,89,number,0,left,Red_Plus_Grid_4.jpg,Green_Star_Chess_4.jpg,Red_Circle_Stripes_1.jpg,right,758.0699999816716,false,high,false
Xp2l6bUU,3j6bhnx0vc5zv8hudcso2u6bq3dnka,323q6sjs8mtysa1z05bg6hd1iuchfr,Xp2l6bUU,2020-0188,2020-05-21,15:48:25,16:14:14,NA,incomplete,90,color,0,right,Purple_Star_Grid_1.jpg,Green_Triangle_Stripes_1.jpg,Purple_Plus_Dots_4.jpg,right,417.5800000084564,true,high,false
Xp2l6bUU,3j6bhnx0vc5zv8hudcso2u6bq3dnka,323q6sjs8mtysa1z05bg6hd1iuchfr,Xp2l6bUU,2020-0188,2020-05-21,15:48:25,16:14:14,NA,incomplete,91,color,0,right,Purple_Star_Chess_3.jpg,Green_Triangle_Stripes_3.jpg,Purple_Plus_Dots_1.jpg,left,595.6200000364333,false,high,false
Xp2l6bUU,3j6bhnx0vc5zv8hudcso2u6bq3dnka,323q6sjs8mtysa1z05bg6hd1iuchfr,Xp2l6bUU,2020-0188,2020-05-21,15:48:25,16:14:14,NA,incomplete,92,color,1,right,Blue_Star_Chess_3.jpg,Green_Triangle_Grid_3.jpg,Blue_Plus_Stripes_2.jpg,right,551.3150000479072,true,high,false
Xp2l6bUU,3j6bhnx0vc5zv8hudcso2u6bq3dnka,323q6sjs8mtysa1z05bg6hd1iuchfr,Xp2l6bUU,2020-0188,2020-05-21,15:48:25,16:14:14,NA,incomplete,93,color,1,left,Purple_Star_Grid_2.jpg,Purple_Circle_Dots_4.jpg,Green_Plus_Stripes_2.jpg,left,358.11500006821007,true,high,false
Xp2l6bUU,3j6bhnx0vc5zv8hudcso2u6bq3dnka,323q6sjs8mtysa1z05bg6hd1iuchfr,Xp2l6bUU,2020-0188,2020-05-21,15:48:25,16:14:14,NA,incomplete,94,color,1,left,Blue_Triangle_Stripes_2.jpg,Blue_Star_Chess_4.jpg,Purple_Plus_Grid_2.jpg,left,476.5299999853596,true,high,false
Xp2l6bUU,3j6bhnx0vc5zv8hudcso2u6bq3dnka,323q6sjs8mtysa1z05bg6hd1iuchfr,Xp2l6bUU,2020-0188,2020-05-21,15:48:25,16:14:14,NA,incomplete,95,color,1,right,Green_Circle_Grid_2.jpg,Red_Star_Chess_2.jpg,Green_Plus_Dots_3.jpg,right,399.7700000181794,true,high,false
Xp2l6bUU,3j6bhnx0vc5zv8hudcso2u6bq3dnka,323q6sjs8mtysa1z05bg6hd1iuchfr,Xp2l6bUU,2020-0188,2020-05-21,15:48:25,16:14:14,NA,incomplete,96,color,1,left,Purple_Triangle_Dots_3.jpg,Purple_Circle_Stripes_1.jpg,Green_Star_Grid_3.jpg,left,395.84500005003065,true,high,false
Xp2l6bUU,3j6bhnx0vc5zv8hudcso2u6bq3dnka,323q6sjs8mtysa1z05bg6hd1iuchfr,Xp2l6bUU,2020-0188,2020-05-21,15:48:25,16:14:14,NA,incomplete,97,color,1,right,Purple_Triangle_Chess_3.jpg,Blue_Plus_Stripes_3.jpg,Purple_Circle_Dots_1.jpg,right,657.6350000686944,true,high,false
Xp2l6bUU,3j6bhnx0vc5zv8hudcso2u6bq3dnka,323q6sjs8mtysa1z05bg6hd1iuchfr,Xp2l6bUU,2020-0188,2020-05-21,15:48:25,16:14:14,NA,incomplete,98,color,1,left,Blue_Triangle_Chess_2.jpg,Blue_Circle_Grid_3.jpg,Green_Plus_Stripes_2.jpg,left,419.5049999980256,true,high,false
Xp2l6bUU,3j6bhnx0vc5zv8hudcso2u6bq3dnka,323q6sjs8mtysa1z05bg6hd1iuchfr,Xp2l6bUU,2020-0188,2020-05-21,15:48:25,16:14:14,NA,incomplete,99,color,1,left,Purple_Plus_Stripes_4.jpg,Purple_Circle_Dots_3.jpg,Blue_Triangle_Grid_4.jpg,left,317.7399999694899,true,high,false
Xp2l6bUU,3j6bhnx0vc5zv8hudcso2u6bq3dnka,323q6sjs8mtysa1z05bg6hd1iuchfr,Xp2l6bUU,2020-0188,2020-05-21,15:48:25,16:14:14,NA,incomplete,100,number,1,left,Green_Plus_Stripes_3.jpg,Blue_Circle_Grid_3.jpg,Green_Triangle_Chess_4.jpg,left,556.2550000613555,true,high,false
Xp2l6bUU,3j6bhnx0vc5zv8hudcso2u6bq3dnka,323q6sjs8mtysa1z05bg6hd1iuchfr,Xp2l6bUU,2020-0188,2020-05-21,15:48:25,16:14:14,NA,incomplete,101,number,1,right,Blue_Circle_Grid_2.jpg,Blue_Plus_Chess_3.jpg,Green_Star_Dots_2.jpg,right,570.5049999523908,true,high,false
Xp2l6bUU,3j6bhnx0vc5zv8hudcso2u6bq3dnka,323q6sjs8mtysa1z05bg6hd1iuchfr,Xp2l6bUU,2020-0188,2020-05-21,15:48:25,16:14:14,NA,incomplete,102,number,0,right,Green_Triangle_Chess_3.jpg,Green_Circle_Stripes_1.jpg,Blue_Star_Dots_3.jpg,left,440.10999996680766,false,high,false
Xp2l6bUU,3j6bhnx0vc5zv8hudcso2u6bq3dnka,323q6sjs8mtysa1z05bg6hd1iuchfr,Xp2l6bUU,2020-0188,2020-05-21,15:48:25,16:14:14,NA,incomplete,103,number,1,left,Purple_Triangle_Dots_2.jpg,Red_Plus_Chess_2.jpg,Purple_Star_Grid_3.jpg,left,550.2199999755248,true,high,false
Xp2l6bUU,3j6bhnx0vc5zv8hudcso2u6bq3dnka,323q6sjs8mtysa1z05bg6hd1iuchfr,Xp2l6bUU,2020-0188,2020-05-21,15:48:25,16:14:14,NA,incomplete,104,number,1,left,Blue_Circle_Stripes_1.jpg,Green_Star_Grid_1.jpg,Blue_Triangle_Chess_2.jpg,left,666.289999964647,true,high,false
Xp2l6bUU,3j6bhnx0vc5zv8hudcso2u6bq3dnka,323q6sjs8mtysa1z05bg6hd1iuchfr,Xp2l6bUU,2020-0188,2020-05-21,15:48:25,16:14:14,NA,incomplete,105,number,1,right,Green_Star_Grid_2.jpg,Green_Plus_Stripes_4.jpg,Blue_Circle_Chess_2.jpg,left,795.0849999906495,false,high,false
Xp2l6bUU,3j6bhnx0vc5zv8hudcso2u6bq3dnka,323q6sjs8mtysa1z05bg6hd1iuchfr,Xp2l6bUU,2020-0188,2020-05-21,15:48:25,16:14:14,NA,incomplete,106,number,0,right,Blue_Triangle_Dots_1.jpg,Blue_Plus_Chess_3.jpg,Green_Star_Stripes_1.jpg,right,669.2699999548495,true,high,false
Xp2l6bUU,3j6bhnx0vc5zv8hudcso2u6bq3dnka,323q6sjs8mtysa1z05bg6hd1iuchfr,Xp2l6bUU,2020-0188,2020-05-21,15:48:25,16:14:14,NA,incomplete,107,number,0,right,Green_Plus_Grid_1.jpg,Green_Triangle_Stripes_2.jpg,Red_Star_Chess_1.jpg,right,529.4850000645965,true,high,false
Xp2l6bUU,3j6bhnx0vc5zv8hudcso2u6bq3dnka,323q6sjs8mtysa1z05bg6hd1iuchfr,Xp2l6bUU,2020-0188,2020-05-21,15:48:25,16:14:14,NA,incomplete,108,number,1,left,Blue_Circle_Chess_3.jpg,Purple_Star_Grid_3.jpg,Blue_Triangle_Dots_1.jpg,left,930.2199999801815,true,high,false
Xp2l6bUU,3j6bhnx0vc5zv8hudcso2u6bq3dnka,323q6sjs8mtysa1z05bg6hd1iuchfr,Xp2l6bUU,2020-0188,2020-05-21,15:48:25,16:14:14,NA,incomplete,109,number,1,left,Blue_Plus_Dots_2.jpg,Red_Star_Chess_2.jpg,Blue_Circle_Stripes_4.jpg,left,511.36500004213303,true,high,false
Xp2l6bUU,3j6bhnx0vc5zv8hudcso2u6bq3dnka,323q6sjs8mtysa1z05bg6hd1iuchfr,Xp2l6bUU,2020-0188,2020-05-21,15:48:25,16:14:14,NA,incomplete,110,color,1,right,Red_Star_Stripes_1.jpg,Blue_Plus_Grid_1.jpg,Red_Circle_Chess_4.jpg,right,626.5300000086427,true,high,false
Xp2l6bUU,3j6bhnx0vc5zv8hudcso2u6bq3dnka,323q6sjs8mtysa1z05bg6hd1iuchfr,Xp2l6bUU,2020-0188,2020-05-21,15:48:25,16:14:14,NA,incomplete,111,color,0,right,Red_Circle_Stripes_1.jpg,Purple_Plus_Dots_1.jpg,Red_Star_Chess_4.jpg,right,483.55999996419996,true,high,false
Xp2l6bUU,3j6bhnx0vc5zv8hudcso2u6bq3dnka,323q6sjs8mtysa1z05bg6hd1iuchfr,Xp2l6bUU,2020-0188,2020-05-21,15:48:25,16:14:14,NA,incomplete,112,color,0,right,Blue_Triangle_Dots_1.jpg,Green_Star_Grid_1.jpg,Blue_Circle_Chess_3.jpg,left,956.9699999410659,false,high,false
Xp2l6bUU,3j6bhnx0vc5zv8hudcso2u6bq3dnka,323q6sjs8mtysa1z05bg6hd1iuchfr,Xp2l6bUU,2020-0188,2020-05-21,15:48:25,16:14:14,NA,incomplete,113,color,0,right,Purple_Triangle_Stripes_4.jpg,Red_Plus_Chess_4.jpg,Purple_Circle_Grid_1.jpg,left,860.2500000270084,false,high,false
Xp2l6bUU,3j6bhnx0vc5zv8hudcso2u6bq3dnka,323q6sjs8mtysa1z05bg6hd1iuchfr,Xp2l6bUU,2020-0188,2020-05-21,15:48:25,16:14:14,NA,incomplete,114,color,1,right,Purple_Triangle_Stripes_1.jpg,Red_Plus_Chess_1.jpg,Purple_Circle_Dots_4.jpg,right,652.6949999388307,true,high,false
Xp2l6bUU,3j6bhnx0vc5zv8hudcso2u6bq3dnka,323q6sjs8mtysa1z05bg6hd1iuchfr,Xp2l6bUU,2020-0188,2020-05-21,15:48:25,16:14:14,NA,incomplete,115,color,1,left,Purple_Plus_Dots_3.jpg,Purple_Circle_Stripes_1.jpg,Red_Triangle_Grid_3.jpg,right,637.5850000185892,false,high,false
Xp2l6bUU,3j6bhnx0vc5zv8hudcso2u6bq3dnka,323q6sjs8mtysa1z05bg6hd1iuchfr,Xp2l6bUU,2020-0188,2020-05-21,15:48:25,16:14:14,NA,incomplete,116,color,1,right,Green_Triangle_Dots_4.jpg,Blue_Plus_Chess_4.jpg,Green_Circle_Stripes_1.jpg,left,733.754999935627,false,high,false
Xp2l6bUU,3j6bhnx0vc5zv8hudcso2u6bq3dnka,323q6sjs8mtysa1z05bg6hd1iuchfr,Xp2l6bUU,2020-0188,2020-05-21,15:48:25,16:14:14,NA,incomplete,117,color,1,left,Green_Circle_Dots_2.jpg,Green_Plus_Grid_3.jpg,Purple_Triangle_Chess_2.jpg,left,436.5799999795854,true,high,false
Xp2l6bUU,3j6bhnx0vc5zv8hudcso2u6bq3dnka,323q6sjs8mtysa1z05bg6hd1iuchfr,Xp2l6bUU,2020-0188,2020-05-21,15:48:25,16:14:14,NA,incomplete,118,color,1,left,Red_Plus_Dots_1.jpg,Red_Star_Stripes_3.jpg,Blue_Triangle_Chess_1.jpg,left,810.7750000199303,true,high,false
Xp2l6bUU,3j6bhnx0vc5zv8hudcso2u6bq3dnka,323q6sjs8mtysa1z05bg6hd1iuchfr,Xp2l6bUU,2020-0188,2020-05-21,15:48:25,16:14:14,NA,incomplete,119,color,0,left,Green_Triangle_Stripes_1.jpg,Green_Plus_Dots_3.jpg,Purple_Circle_Grid_1.jpg,right,625.4300000146031,false,high,false
Xp2l6bUU,3j6bhnx0vc5zv8hudcso2u6bq3dnka,323q6sjs8mtysa1z05bg6hd1iuchfr,Xp2l6bUU,2020-0188,2020-05-21,15:48:25,16:14:14,NA,incomplete,120,filling,1,right,Purple_Plus_Grid_2.jpg,Blue_Plus_Dots_4.jpg,Green_Circle_Grid_1.jpg,NA,NA,NA,high,false
Xp2l6bUU,3j6bhnx0vc5zv8hudcso2u6bq3dnka,323q6sjs8mtysa1z05bg6hd1iuchfr,Xp2l6bUU,2020-0188,2020-05-21,15:48:25,16:14:14,NA,incomplete,121,filling,0,left,Purple_Triangle_Stripes_2.jpg,Green_Star_Stripes_3.jpg,Red_Triangle_Chess_4.jpg,none,0,false,high,false
Xp2l6bUU,3j6bhnx0vc5zv8hudcso2u6bq3dnka,323q6sjs8mtysa1z05bg6hd1iuchfr,Xp2l6bUU,2020-0188,2020-05-21,15:48:25,16:14:14,NA,incomplete,122,filling,1,right,Red_Circle_Dots_3.jpg,Purple_Circle_Chess_1.jpg,Blue_Plus_Dots_2.jpg,left,1060.315000009723,false,high,false
Xp2l6bUU,3j6bhnx0vc5zv8hudcso2u6bq3dnka,323q6sjs8mtysa1z05bg6hd1iuchfr,Xp2l6bUU,2020-0188,2020-05-21,15:48:25,16:14:14,NA,incomplete,123,filling,1,right,Red_Triangle_Chess_4.jpg,Blue_Triangle_Dots_1.jpg,Green_Plus_Chess_2.jpg,left,918.9500000793487,false,high,false
Xp2l6bUU,3j6bhnx0vc5zv8hudcso2u6bq3dnka,323q6sjs8mtysa1z05bg6hd1iuchfr,Xp2l6bUU,2020-0188,2020-05-21,15:48:25,16:14:14,NA,incomplete,124,filling,1,right,Red_Star_Grid_3.jpg,Blue_Star_Chess_2.jpg,Green_Triangle_Grid_1.jpg,right,1181.5949999727309,true,high,false
Xp2l6bUU,3j6bhnx0vc5zv8hudcso2u6bq3dnka,323q6sjs8mtysa1z05bg6hd1iuchfr,Xp2l6bUU,2020-0188,2020-05-21,15:48:25,16:14:14,NA,incomplete,125,filling,1,right,Purple_Plus_Dots_3.jpg,Green_Plus_Grid_2.jpg,Red_Circle_Dots_4.jpg,right,980.8249999769032,true,high,false
Xp2l6bUU,3j6bhnx0vc5zv8hudcso2u6bq3dnka,323q6sjs8mtysa1z05bg6hd1iuchfr,Xp2l6bUU,2020-0188,2020-05-21,15:48:25,16:14:14,NA,incomplete,126,filling,1,right,Red_Triangle_Chess_4.jpg,Blue_Triangle_Stripes_3.jpg,Purple_Circle_Chess_1.jpg,right,777.1300000604242,true,high,false
Xp2l6bUU,3j6bhnx0vc5zv8hudcso2u6bq3dnka,323q6sjs8mtysa1z05bg6hd1iuchfr,Xp2l6bUU,2020-0188,2020-05-21,15:48:25,16:14:14,NA,incomplete,127,filling,0,right,Blue_Circle_Grid_3.jpg,Green_Circle_Dots_4.jpg,Red_Triangle_Grid_2.jpg,right,891.0700000124052,true,high,false
Xp2l6bUU,3j6bhnx0vc5zv8hudcso2u6bq3dnka,323q6sjs8mtysa1z05bg6hd1iuchfr,Xp2l6bUU,2020-0188,2020-05-21,15:48:25,16:14:14,NA,incomplete,128,filling,1,right,Purple_Triangle_Stripes_2.jpg,Red_Triangle_Grid_1.jpg,Blue_Star_Stripes_4.jpg,left,735.8750000130385,false,high,false
Xp2l6bUU,3j6bhnx0vc5zv8hudcso2u6bq3dnka,323q6sjs8mtysa1z05bg6hd1iuchfr,Xp2l6bUU,2020-0188,2020-05-21,15:48:25,16:14:14,NA,incomplete,129,filling,0,right,Green_Circle_Stripes_2.jpg,Blue_Circle_Chess_3.jpg,Purple_Triangle_Stripes_4.jpg,right,833.5149999475107,true,high,false
Xp2l6bUU,3j6bhnx0vc5zv8hudcso2u6bq3dnka,323q6sjs8mtysa1z05bg6hd1iuchfr,Xp2l6bUU,2020-0188,2020-05-21,15:48:25,16:14:14,NA,incomplete,130,filling,1,right,Blue_Star_Stripes_4.jpg,Purple_Star_Dots_1.jpg,Green_Plus_Stripes_3.jpg,right,1444.8600000469014,true,high,false
Xp2l6bUU,3j6bhnx0vc5zv8hudcso2u6bq3dnka,323q6sjs8mtysa1z05bg6hd1iuchfr,Xp2l6bUU,2020-0188,2020-05-21,15:48:25,16:14:14,NA,incomplete,131,filling,1,left,Red_Circle_Grid_1.jpg,Purple_Triangle_Grid_4.jpg,Blue_Circle_Stripes_3.jpg,left,1435.5999999679625,true,high,false
Xp2l6bUU,3j6bhnx0vc5zv8hudcso2u6bq3dnka,323q6sjs8mtysa1z05bg6hd1iuchfr,Xp2l6bUU,2020-0188,2020-05-21,15:48:25,16:14:14,NA,incomplete,132,filling,0,left,Red_Circle_Dots_1.jpg,Green_Triangle_Dots_3.jpg,Purple_Circle_Grid_2.jpg,left,1496.2800000794232,true,high,false
Xp2l6bUU,3j6bhnx0vc5zv8hudcso2u6bq3dnka,323q6sjs8mtysa1z05bg6hd1iuchfr,Xp2l6bUU,2020-0188,2020-05-21,15:48:25,16:14:14,NA,incomplete,133,filling,1,right,Red_Plus_Chess_3.jpg,Purple_Plus_Grid_2.jpg,Blue_Triangle_Chess_1.jpg,right,899.4200000306591,true,high,false
Xp2l6bUU,3j6bhnx0vc5zv8hudcso2u6bq3dnka,323q6sjs8mtysa1z05bg6hd1iuchfr,Xp2l6bUU,2020-0188,2020-05-21,15:48:25,16:14:14,NA,incomplete,134,filling,1,left,Purple_Circle_Dots_4.jpg,Blue_Plus_Dots_2.jpg,Green_Circle_Grid_1.jpg,left,898.600000073202,true,high,false
Xp2l6bUU,3j6bhnx0vc5zv8hudcso2u6bq3dnka,323q6sjs8mtysa1z05bg6hd1iuchfr,Xp2l6bUU,2020-0188,2020-05-21,15:48:25,16:14:14,NA,incomplete,135,filling,1,left,Green_Triangle_Dots_2.jpg,Red_Plus_Dots_1.jpg,Purple_Triangle_Chess_4.jpg,left,708.7850000243634,true,high,false
Xp2l6bUU,3j6bhnx0vc5zv8hudcso2u6bq3dnka,323q6sjs8mtysa1z05bg6hd1iuchfr,Xp2l6bUU,2020-0188,2020-05-21,15:48:25,16:14:14,NA,incomplete,136,filling,1,right,Green_Star_Stripes_4.jpg,Red_Star_Dots_2.jpg,Purple_Circle_Stripes_1.jpg,right,1078.2299999846146,true,high,false
Xp2l6bUU,3j6bhnx0vc5zv8hudcso2u6bq3dnka,323q6sjs8mtysa1z05bg6hd1iuchfr,Xp2l6bUU,2020-0188,2020-05-21,15:48:25,16:14:14,NA,incomplete,137,filling,1,left,Purple_Plus_Stripes_1.jpg,Blue_Triangle_Stripes_4.jpg,Red_Plus_Dots_3.jpg,left,775.7899999851361,true,high,false
Xp2l6bUU,3j6bhnx0vc5zv8hudcso2u6bq3dnka,323q6sjs8mtysa1z05bg6hd1iuchfr,Xp2l6bUU,2020-0188,2020-05-21,15:48:25,16:14:14,NA,incomplete,138,filling,1,left,Blue_Triangle_Stripes_1.jpg,Green_Star_Stripes_2.jpg,Purple_Triangle_Grid_3.jpg,left,1395.0300000142306,true,high,false
Xp2l6bUU,3j6bhnx0vc5zv8hudcso2u6bq3dnka,323q6sjs8mtysa1z05bg6hd1iuchfr,Xp2l6bUU,2020-0188,2020-05-21,15:48:25,16:14:14,NA,incomplete,139,filling,1,right,Blue_Star_Chess_4.jpg,Green_Star_Stripes_3.jpg,Red_Triangle_Chess_1.jpg,right,927.265000063926,true,high,false
Xp2l6bUU,3j6bhnx0vc5zv8hudcso2u6bq3dnka,323q6sjs8mtysa1z05bg6hd1iuchfr,Xp2l6bUU,2020-0188,2020-05-21,15:48:25,16:14:14,NA,incomplete,140,shape,0,left,Red_Triangle_Dots_3.jpg,Green_Triangle_Grid_4.jpg,Blue_Circle_Dots_2.jpg,right,781.9449999369681,false,high,false
Xp2l6bUU,3j6bhnx0vc5zv8hudcso2u6bq3dnka,323q6sjs8mtysa1z05bg6hd1iuchfr,Xp2l6bUU,2020-0188,2020-05-21,15:48:25,16:14:14,NA,incomplete,141,shape,1,right,Purple_Triangle_Dots_2.jpg,Green_Star_Dots_4.jpg,Red_Triangle_Grid_3.jpg,left,919.1999998874962,false,high,false
Xp2l6bUU,3j6bhnx0vc5zv8hudcso2u6bq3dnka,323q6sjs8mtysa1z05bg6hd1iuchfr,Xp2l6bUU,2020-0188,2020-05-21,15:48:25,16:14:14,NA,incomplete,142,shape,1,left,Purple_Triangle_Grid_2.jpg,Blue_Triangle_Dots_1.jpg,Green_Plus_Grid_3.jpg,right,877.2599999792874,false,high,false
Xp2l6bUU,3j6bhnx0vc5zv8hudcso2u6bq3dnka,323q6sjs8mtysa1z05bg6hd1iuchfr,Xp2l6bUU,2020-0188,2020-05-21,15:48:25,16:14:14,NA,incomplete,143,shape,1,right,Purple_Star_Grid_2.jpg,Green_Plus_Grid_1.jpg,Red_Star_Stripes_3.jpg,right,930.4599999450147,true,high,false
Xp2l6bUU,3j6bhnx0vc5zv8hudcso2u6bq3dnka,323q6sjs8mtysa1z05bg6hd1iuchfr,Xp2l6bUU,2020-0188,2020-05-21,15:48:25,16:14:14,NA,incomplete,144,shape,1,left,Purple_Triangle_Grid_1.jpg,Green_Triangle_Dots_3.jpg,Blue_Star_Grid_4.jpg,left,642.4499999266118,true,high,false
Xp2l6bUU,3j6bhnx0vc5zv8hudcso2u6bq3dnka,323q6sjs8mtysa1z05bg6hd1iuchfr,Xp2l6bUU,2020-0188,2020-05-21,15:48:25,16:14:14,NA,incomplete,145,shape,1,right,Blue_Plus_Dots_4.jpg,Red_Star_Dots_2.jpg,Purple_Plus_Grid_1.jpg,right,893.5749999945983,true,high,false
Xp2l6bUU,3j6bhnx0vc5zv8hudcso2u6bq3dnka,323q6sjs8mtysa1z05bg6hd1iuchfr,Xp2l6bUU,2020-0188,2020-05-21,15:48:25,16:14:14,NA,incomplete,146,shape,1,right,Red_Plus_Stripes_4.jpg,Blue_Circle_Stripes_1.jpg,Purple_Plus_Grid_2.jpg,right,624.5799999451265,true,high,false
Xp2l6bUU,3j6bhnx0vc5zv8hudcso2u6bq3dnka,323q6sjs8mtysa1z05bg6hd1iuchfr,Xp2l6bUU,2020-0188,2020-05-21,15:48:25,16:14:14,NA,incomplete,147,shape,0,right,Red_Star_Grid_1.jpg,Purple_Circle_Grid_2.jpg,Blue_Star_Chess_4.jpg,right,817.4400000134483,true,high,false
Xp2l6bUU,3j6bhnx0vc5zv8hudcso2u6bq3dnka,323q6sjs8mtysa1z05bg6hd1iuchfr,Xp2l6bUU,2020-0188,2020-05-21,15:48:25,16:14:14,NA,incomplete,148,shape,1,left,Purple_Triangle_Grid_4.jpg,Green_Triangle_Stripes_2.jpg,Blue_Star_Grid_1.jpg,left,502.85000004805624,true,high,false
Xp2l6bUU,3j6bhnx0vc5zv8hudcso2u6bq3dnka,323q6sjs8mtysa1z05bg6hd1iuchfr,Xp2l6bUU,2020-0188,2020-05-21,15:48:25,16:14:14,NA,incomplete,149,shape,1,left,Green_Star_Dots_4.jpg,Purple_Star_Chess_1.jpg,Blue_Triangle_Dots_3.jpg,left,652.2150000091642,true,high,false
Xp2l6bUU,3j6bhnx0vc5zv8hudcso2u6bq3dnka,323q6sjs8mtysa1z05bg6hd1iuchfr,Xp2l6bUU,2020-0188,2020-05-21,15:48:25,16:14:14,NA,incomplete,150,shape,1,left,Purple_Plus_Stripes_2.jpg,Blue_Plus_Dots_1.jpg,Red_Circle_Stripes_3.jpg,left,551.0400000493973,true,high,false
Xp2l6bUU,3j6bhnx0vc5zv8hudcso2u6bq3dnka,323q6sjs8mtysa1z05bg6hd1iuchfr,Xp2l6bUU,2020-0188,2020-05-21,15:48:25,16:14:14,NA,incomplete,151,shape,1,right,Blue_Star_Chess_4.jpg,Red_Triangle_Chess_3.jpg,Purple_Star_Dots_1.jpg,right,616.9450000161305,true,high,false
Xp2l6bUU,3j6bhnx0vc5zv8hudcso2u6bq3dnka,323q6sjs8mtysa1z05bg6hd1iuchfr,Xp2l6bUU,2020-0188,2020-05-21,15:48:25,16:14:14,NA,incomplete,152,shape,1,left,Blue_Triangle_Grid_2.jpg,Green_Triangle_Dots_4.jpg,Purple_Plus_Grid_1.jpg,left,571.1649999720976,true,high,false
Xp2l6bUU,3j6bhnx0vc5zv8hudcso2u6bq3dnka,323q6sjs8mtysa1z05bg6hd1iuchfr,Xp2l6bUU,2020-0188,2020-05-21,15:48:25,16:14:14,NA,incomplete,153,shape,1,left,Red_Triangle_Grid_1.jpg,Green_Triangle_Dots_3.jpg,Blue_Circle_Grid_2.jpg,left,676.1049999622628,true,high,false
Xp2l6bUU,3j6bhnx0vc5zv8hudcso2u6bq3dnka,323q6sjs8mtysa1z05bg6hd1iuchfr,Xp2l6bUU,2020-0188,2020-05-21,15:48:25,16:14:14,NA,incomplete,154,shape,1,right,Blue_Star_Dots_4.jpg,Purple_Plus_Dots_2.jpg,Green_Star_Chess_1.jpg,right,526.8449999857694,true,high,false
Xp2l6bUU,3j6bhnx0vc5zv8hudcso2u6bq3dnka,323q6sjs8mtysa1z05bg6hd1iuchfr,Xp2l6bUU,2020-0188,2020-05-21,15:48:25,16:14:14,NA,incomplete,155,shape,0,left,Green_Star_Stripes_3.jpg,Blue_Star_Dots_4.jpg,Purple_Triangle_Stripes_2.jpg,left,700.6599999731407,true,high,false
Xp2l6bUU,3j6bhnx0vc5zv8hudcso2u6bq3dnka,323q6sjs8mtysa1z05bg6hd1iuchfr,Xp2l6bUU,2020-0188,2020-05-21,15:48:25,16:14:14,NA,incomplete,156,shape,1,left,Red_Plus_Dots_3.jpg,Green_Plus_Stripes_4.jpg,Blue_Triangle_Dots_2.jpg,left,751.079999958165,true,high,false
Xp2l6bUU,3j6bhnx0vc5zv8hudcso2u6bq3dnka,323q6sjs8mtysa1z05bg6hd1iuchfr,Xp2l6bUU,2020-0188,2020-05-21,15:48:25,16:14:14,NA,incomplete,157,shape,1,right,Purple_Triangle_Chess_4.jpg,Green_Star_Chess_3.jpg,Blue_Triangle_Stripes_2.jpg,right,521.610000054352,true,high,false
Xp2l6bUU,3j6bhnx0vc5zv8hudcso2u6bq3dnka,323q6sjs8mtysa1z05bg6hd1iuchfr,Xp2l6bUU,2020-0188,2020-05-21,15:48:25,16:14:14,NA,incomplete,158,shape,1,left,Purple_Star_Dots_4.jpg,Green_Star_Stripes_1.jpg,Blue_Circle_Dots_3.jpg,left,709.8349999869242,true,high,false
Xp2l6bUU,3j6bhnx0vc5zv8hudcso2u6bq3dnka,323q6sjs8mtysa1z05bg6hd1iuchfr,Xp2l6bUU,2020-0188,2020-05-21,15:48:25,16:14:14,NA,incomplete,159,shape,1,left,Blue_Circle_Grid_3.jpg,Red_Circle_Stripes_1.jpg,Green_Plus_Grid_2.jpg,left,593.970000045374,true,high,false
Xp2l6bUU,3j6bhnx0vc5zv8hudcso2u6bq3dnka,323q6sjs8mtysa1z05bg6hd1iuchfr,Xp2l6bUU,2020-0188,2020-05-21,15:48:25,16:14:14,NA,incomplete,160,filling,1,right,Green_Plus_Stripes_3.jpg,Blue_Plus_Grid_1.jpg,Red_Circle_Stripes_2.jpg,left,524.1099999984726,false,high,false
Xp2l6bUU,3j6bhnx0vc5zv8hudcso2u6bq3dnka,323q6sjs8mtysa1z05bg6hd1iuchfr,Xp2l6bUU,2020-0188,2020-05-21,15:48:25,16:14:14,NA,incomplete,161,filling,0,right,Green_Star_Dots_1.jpg,Purple_Star_Chess_3.jpg,Blue_Plus_Dots_4.jpg,left,748.5599999781698,false,high,false
Xp2l6bUU,3j6bhnx0vc5zv8hudcso2u6bq3dnka,323q6sjs8mtysa1z05bg6hd1iuchfr,Xp2l6bUU,2020-0188,2020-05-21,15:48:25,16:14:14,NA,incomplete,162,filling,1,right,Blue_Circle_Stripes_4.jpg,Purple_Circle_Dots_1.jpg,Green_Plus_Stripes_2.jpg,left,530.3899999707937,false,high,false
Xp2l6bUU,3j6bhnx0vc5zv8hudcso2u6bq3dnka,323q6sjs8mtysa1z05bg6hd1iuchfr,Xp2l6bUU,2020-0188,2020-05-21,15:48:25,16:14:14,NA,incomplete,163,filling,1,right,Red_Star_Dots_2.jpg,Purple_Star_Grid_3.jpg,Green_Circle_Dots_1.jpg,right,832.7450000215322,true,high,false
Xp2l6bUU,3j6bhnx0vc5zv8hudcso2u6bq3dnka,323q6sjs8mtysa1z05bg6hd1iuchfr,Xp2l6bUU,2020-0188,2020-05-21,15:48:25,16:14:14,NA,incomplete,164,filling,1,left,Blue_Triangle_Stripes_2.jpg,Red_Circle_Stripes_1.jpg,Purple_Triangle_Grid_3.jpg,left,989.1249999636784,true,high,false
Xp2l6bUU,3j6bhnx0vc5zv8hudcso2u6bq3dnka,323q6sjs8mtysa1z05bg6hd1iuchfr,Xp2l6bUU,2020-0188,2020-05-21,15:48:25,16:14:14,NA,incomplete,165,filling,1,left,Green_Circle_Dots_2.jpg,Blue_Triangle_Dots_4.jpg,Red_Circle_Chess_1.jpg,left,761.3799999235198,true,high,false
Xp2l6bUU,3j6bhnx0vc5zv8hudcso2u6bq3dnka,323q6sjs8mtysa1z05bg6hd1iuchfr,Xp2l6bUU,2020-0188,2020-05-21,15:48:25,16:14:14,NA,incomplete,166,filling,1,right,Red_Circle_Stripes_1.jpg,Blue_Circle_Grid_2.jpg,Green_Triangle_Stripes_4.jpg,right,801.1300000362098,true,high,false
Xp2l6bUU,3j6bhnx0vc5zv8hudcso2u6bq3dnka,323q6sjs8mtysa1z05bg6hd1iuchfr,Xp2l6bUU,2020-0188,2020-05-21,15:48:25,16:14:14,NA,incomplete,167,filling,1,right,Purple_Circle_Dots_2.jpg,Green_Circle_Stripes_4.jpg,Blue_Star_Dots_1.jpg,right,1033.6349999997765,true,high,false
Xp2l6bUU,3j6bhnx0vc5zv8hudcso2u6bq3dnka,323q6sjs8mtysa1z05bg6hd1iuchfr,Xp2l6bUU,2020-0188,2020-05-21,15:48:25,16:14:14,NA,incomplete,168,filling,1,right,Blue_Star_Chess_2.jpg,Green_Star_Dots_4.jpg,Red_Circle_Chess_1.jpg,right,619.7249999968335,true,high,false
Xp2l6bUU,3j6bhnx0vc5zv8hudcso2u6bq3dnka,323q6sjs8mtysa1z05bg6hd1iuchfr,Xp2l6bUU,2020-0188,2020-05-21,15:48:25,16:14:14,NA,incomplete,169,filling,1,left,Green_Plus_Grid_1.jpg,Red_Circle_Grid_4.jpg,Blue_Plus_Dots_2.jpg,left,546.4799999026582,true,high,false
Xp2l6bUU,3j6bhnx0vc5zv8hudcso2u6bq3dnka,323q6sjs8mtysa1z05bg6hd1iuchfr,Xp2l6bUU,2020-0188,2020-05-21,15:48:25,16:14:14,NA,incomplete,170,filling,0,right,Red_Plus_Chess_4.jpg,Blue_Plus_Dots_2.jpg,Green_Circle_Chess_3.jpg,right,597.1699999645352,true,high,false
Xp2l6bUU,3j6bhnx0vc5zv8hudcso2u6bq3dnka,323q6sjs8mtysa1z05bg6hd1iuchfr,Xp2l6bUU,2020-0188,2020-05-21,15:48:25,16:14:14,NA,incomplete,171,filling,1,left,Red_Triangle_Stripes_3.jpg,Blue_Plus_Stripes_2.jpg,Purple_Triangle_Dots_1.jpg,left,1263.2650000741705,true,high,false
Xp2l6bUU,3j6bhnx0vc5zv8hudcso2u6bq3dnka,323q6sjs8mtysa1z05bg6hd1iuchfr,Xp2l6bUU,2020-0188,2020-05-21,15:48:25,16:14:14,NA,incomplete,172,filling,1,right,Blue_Circle_Grid_1.jpg,Purple_Circle_Stripes_2.jpg,Green_Triangle_Grid_4.jpg,right,553.5199999576434,true,high,false
Xp2l6bUU,3j6bhnx0vc5zv8hudcso2u6bq3dnka,323q6sjs8mtysa1z05bg6hd1iuchfr,Xp2l6bUU,2020-0188,2020-05-21,15:48:25,16:14:14,NA,incomplete,173,filling,0,right,Red_Circle_Dots_1.jpg,Purple_Circle_Grid_2.jpg,Blue_Triangle_Dots_3.jpg,right,749.6550000505522,true,high,false
Xp2l6bUU,3j6bhnx0vc5zv8hudcso2u6bq3dnka,323q6sjs8mtysa1z05bg6hd1iuchfr,Xp2l6bUU,2020-0188,2020-05-21,15:48:25,16:14:14,NA,incomplete,174,filling,1,left,Red_Circle_Stripes_4.jpg,Blue_Triangle_Stripes_2.jpg,Purple_Circle_Chess_1.jpg,right,789.2399999545887,false,high,false
Xp2l6bUU,3j6bhnx0vc5zv8hudcso2u6bq3dnka,323q6sjs8mtysa1z05bg6hd1iuchfr,Xp2l6bUU,2020-0188,2020-05-21,15:48:25,16:14:14,NA,incomplete,175,filling,1,left,Purple_Star_Chess_2.jpg,Green_Plus_Chess_1.jpg,Blue_Star_Grid_4.jpg,right,749.4449999649078,false,high,false
Xp2l6bUU,3j6bhnx0vc5zv8hudcso2u6bq3dnka,323q6sjs8mtysa1z05bg6hd1iuchfr,Xp2l6bUU,2020-0188,2020-05-21,15:48:25,16:14:14,NA,incomplete,176,filling,0,left,Green_Triangle_Grid_2.jpg,Purple_Star_Grid_4.jpg,Blue_Triangle_Dots_3.jpg,left,1869.3499999353662,true,high,false
Xp2l6bUU,3j6bhnx0vc5zv8hudcso2u6bq3dnka,323q6sjs8mtysa1z05bg6hd1iuchfr,Xp2l6bUU,2020-0188,2020-05-21,15:48:25,16:14:14,NA,incomplete,177,filling,1,left,Blue_Circle_Grid_4.jpg,Green_Plus_Grid_1.jpg,Purple_Circle_Dots_3.jpg,right,773.4400000190362,false,high,false
Xp2l6bUU,3j6bhnx0vc5zv8hudcso2u6bq3dnka,323q6sjs8mtysa1z05bg6hd1iuchfr,Xp2l6bUU,2020-0188,2020-05-21,15:48:25,16:14:14,NA,incomplete,178,filling,0,right,Green_Circle_Dots_3.jpg,Red_Circle_Chess_4.jpg,Blue_Star_Dots_1.jpg,right,240.51499995402992,true,high,false
Xp2l6bUU,3j6bhnx0vc5zv8hudcso2u6bq3dnka,323q6sjs8mtysa1z05bg6hd1iuchfr,Xp2l6bUU,2020-0188,2020-05-21,15:48:25,16:14:14,NA,incomplete,179,filling,1,right,Blue_Star_Grid_1.jpg,Green_Star_Stripes_2.jpg,Purple_Triangle_Grid_3.jpg,right,231.89499997533858,true,high,false
Xp2l6bUU,3j6bhnx0vc5zv8hudcso2u6bq3dnka,323q6sjs8mtysa1z05bg6hd1iuchfr,Xp2l6bUU,2020-0188,2020-05-21,15:48:25,16:14:14,NA,incomplete,180,shape,0,left,Red_Triangle_Grid_3.jpg,Purple_Triangle_Stripes_4.jpg,Blue_Star_Grid_1.jpg,left,1194.3550000432879,true,high,false
Xp2l6bUU,3j6bhnx0vc5zv8hudcso2u6bq3dnka,323q6sjs8mtysa1z05bg6hd1iuchfr,Xp2l6bUU,2020-0188,2020-05-21,15:48:25,16:14:14,NA,incomplete,181,shape,1,right,Green_Star_Dots_3.jpg,Blue_Triangle_Dots_2.jpg,Purple_Star_Stripes_1.jpg,right,598.9299999782816,true,high,false
Xp2l6bUU,3j6bhnx0vc5zv8hudcso2u6bq3dnka,323q6sjs8mtysa1z05bg6hd1iuchfr,Xp2l6bUU,2020-0188,2020-05-21,15:48:25,16:14:14,NA,incomplete,182,shape,1,left,Purple_Triangle_Stripes_4.jpg,Red_Triangle_Grid_3.jpg,Green_Circle_Stripes_1.jpg,left,566.0399999469519,true,high,false
Xp2l6bUU,3j6bhnx0vc5zv8hudcso2u6bq3dnka,323q6sjs8mtysa1z05bg6hd1iuchfr,Xp2l6bUU,2020-0188,2020-05-21,15:48:25,16:14:14,NA,incomplete,183,shape,1,right,Green_Star_Chess_2.jpg,Red_Plus_Chess_1.jpg,Blue_Star_Stripes_3.jpg,right,551.8150000134483,true,high,false
Xp2l6bUU,3j6bhnx0vc5zv8hudcso2u6bq3dnka,323q6sjs8mtysa1z05bg6hd1iuchfr,Xp2l6bUU,2020-0188,2020-05-21,15:48:25,16:14:14,NA,incomplete,184,shape,1,left,Green_Star_Stripes_1.jpg,Red_Star_Chess_3.jpg,Blue_Circle_Stripes_4.jpg,left,550.5200000479817,true,high,false
Xp2l6bUU,3j6bhnx0vc5zv8hudcso2u6bq3dnka,323q6sjs8mtysa1z05bg6hd1iuchfr,Xp2l6bUU,2020-0188,2020-05-21,15:48:25,16:14:14,NA,incomplete,185,shape,1,left,Green_Triangle_Grid_4.jpg,Blue_Triangle_Dots_3.jpg,Red_Plus_Grid_1.jpg,left,533.339999965392,true,high,false
Xp2l6bUU,3j6bhnx0vc5zv8hudcso2u6bq3dnka,323q6sjs8mtysa1z05bg6hd1iuchfr,Xp2l6bUU,2020-0188,2020-05-21,15:48:25,16:14:14,NA,incomplete,186,shape,0,left,Green_Star_Chess_1.jpg,Purple_Star_Grid_2.jpg,Red_Triangle_Chess_3.jpg,right,1650.6550000049174,false,high,false
Xp2l6bUU,3j6bhnx0vc5zv8hudcso2u6bq3dnka,323q6sjs8mtysa1z05bg6hd1iuchfr,Xp2l6bUU,2020-0188,2020-05-21,15:48:25,16:14:14,NA,incomplete,187,shape,1,right,Purple_Plus_Dots_4.jpg,Blue_Triangle_Dots_2.jpg,Green_Plus_Chess_1.jpg,left,1776.9450000487268,false,high,false
Xp2l6bUU,3j6bhnx0vc5zv8hudcso2u6bq3dnka,323q6sjs8mtysa1z05bg6hd1iuchfr,Xp2l6bUU,2020-0188,2020-05-21,15:48:25,16:14:14,NA,incomplete,188,shape,1,right,Purple_Star_Stripes_1.jpg,Red_Triangle_Stripes_2.jpg,Green_Star_Grid_3.jpg,left,1023.3749999897555,false,high,false
Xp2l6bUU,3j6bhnx0vc5zv8hudcso2u6bq3dnka,323q6sjs8mtysa1z05bg6hd1iuchfr,Xp2l6bUU,2020-0188,2020-05-21,15:48:25,16:14:14,NA,incomplete,189,shape,1,left,Red_Star_Grid_1.jpg,Blue_Star_Chess_4.jpg,Purple_Plus_Grid_3.jpg,right,1044.0899999812245,false,high,false
Xp2l6bUU,3j6bhnx0vc5zv8hudcso2u6bq3dnka,323q6sjs8mtysa1z05bg6hd1iuchfr,Xp2l6bUU,2020-0188,2020-05-21,15:48:25,16:14:14,NA,incomplete,190,shape,1,right,Purple_Plus_Stripes_1.jpg,Green_Star_Stripes_3.jpg,Blue_Plus_Grid_4.jpg,right,1477.3499999428168,true,high,false
Xp2l6bUU,3j6bhnx0vc5zv8hudcso2u6bq3dnka,323q6sjs8mtysa1z05bg6hd1iuchfr,Xp2l6bUU,2020-0188,2020-05-21,15:48:25,16:14:14,NA,incomplete,191,shape,1,left,Blue_Triangle_Stripes_3.jpg,Green_Triangle_Chess_4.jpg,Red_Plus_Stripes_1.jpg,left,851.5599999809638,true,high,false
Xp2l6bUU,3j6bhnx0vc5zv8hudcso2u6bq3dnka,323q6sjs8mtysa1z05bg6hd1iuchfr,Xp2l6bUU,2020-0188,2020-05-21,15:48:25,16:14:14,NA,incomplete,192,shape,1,right,Red_Circle_Stripes_4.jpg,Blue_Triangle_Stripes_1.jpg,Green_Circle_Grid_2.jpg,right,569.7950000176206,true,high,false
Xp2l6bUU,3j6bhnx0vc5zv8hudcso2u6bq3dnka,323q6sjs8mtysa1z05bg6hd1iuchfr,Xp2l6bUU,2020-0188,2020-05-21,15:48:25,16:14:14,NA,incomplete,193,shape,1,left,Purple_Plus_Chess_3.jpg,Red_Plus_Grid_4.jpg,Blue_Triangle_Chess_1.jpg,left,877.5300000561401,true,high,false
Xp2l6bUU,3j6bhnx0vc5zv8hudcso2u6bq3dnka,323q6sjs8mtysa1z05bg6hd1iuchfr,Xp2l6bUU,2020-0188,2020-05-21,15:48:25,16:14:14,NA,incomplete,194,shape,1,right,Green_Triangle_Dots_3.jpg,Red_Circle_Dots_2.jpg,Purple_Triangle_Stripes_1.jpg,right,674.059999990277,true,high,false
Xp2l6bUU,3j6bhnx0vc5zv8hudcso2u6bq3dnka,323q6sjs8mtysa1z05bg6hd1iuchfr,Xp2l6bUU,2020-0188,2020-05-21,15:48:25,16:14:14,NA,incomplete,195,shape,1,right,Purple_Circle_Chess_3.jpg,Green_Plus_Chess_1.jpg,Red_Circle_Dots_2.jpg,right,913.4349999949336,true,high,false
Xp2l6bUU,3j6bhnx0vc5zv8hudcso2u6bq3dnka,323q6sjs8mtysa1z05bg6hd1iuchfr,Xp2l6bUU,2020-0188,2020-05-21,15:48:25,16:14:14,NA,incomplete,196,shape,1,right,Red_Triangle_Stripes_3.jpg,Purple_Plus_Stripes_1.jpg,Green_Triangle_Chess_2.jpg,right,529.149999958463,true,high,false
Xp2l6bUU,3j6bhnx0vc5zv8hudcso2u6bq3dnka,323q6sjs8mtysa1z05bg6hd1iuchfr,Xp2l6bUU,2020-0188,2020-05-21,15:48:25,16:14:14,NA,incomplete,197,shape,1,left,Red_Plus_Chess_2.jpg,Blue_Plus_Stripes_1.jpg,Purple_Circle_Chess_4.jpg,left,584.9150000140071,true,high,false
Xp2l6bUU,3j6bhnx0vc5zv8hudcso2u6bq3dnka,323q6sjs8mtysa1z05bg6hd1iuchfr,Xp2l6bUU,2020-0188,2020-05-21,15:48:25,16:14:14,NA,incomplete,198,shape,0,left,Purple_Triangle_Dots_1.jpg,Green_Triangle_Stripes_3.jpg,Red_Plus_Dots_4.jpg,left,651.0300000663847,true,high,false
Xp2l6bUU,3j6bhnx0vc5zv8hudcso2u6bq3dnka,323q6sjs8mtysa1z05bg6hd1iuchfr,Xp2l6bUU,2020-0188,2020-05-21,15:48:25,16:14:14,NA,incomplete,199,shape,1,left,Purple_Circle_Stripes_4.jpg,Green_Circle_Dots_3.jpg,Blue_Star_Stripes_1.jpg,left,852.0799999823794,true,high,false
Xp2l6bUU,3j6bhnx0vc5zv8hudcso2u6bq3dnka,323q6sjs8mtysa1z05bg6hd1iuchfr,Xp2l6bUU,2020-0188,2020-05-21,15:48:25,16:14:14,NA,incomplete,200,filling,1,left,Red_Triangle_Grid_4.jpg,Purple_Star_Grid_3.jpg,Blue_Triangle_Chess_2.jpg,right,526.3350000604987,false,high,false
Xp2l6bUU,3j6bhnx0vc5zv8hudcso2u6bq3dnka,323q6sjs8mtysa1z05bg6hd1iuchfr,Xp2l6bUU,2020-0188,2020-05-21,15:48:25,16:14:14,NA,incomplete,201,filling,1,left,Blue_Plus_Grid_2.jpg,Green_Star_Grid_1.jpg,Red_Plus_Chess_4.jpg,right,1199.6599999256432,false,high,false
Xp2l6bUU,3j6bhnx0vc5zv8hudcso2u6bq3dnka,323q6sjs8mtysa1z05bg6hd1iuchfr,Xp2l6bUU,2020-0188,2020-05-21,15:48:25,16:14:14,NA,incomplete,202,filling,1,left,Blue_Plus_Dots_1.jpg,Green_Triangle_Dots_2.jpg,Red_Plus_Chess_4.jpg,left,1019.3600000347942,true,high,false
Xp2l6bUU,3j6bhnx0vc5zv8hudcso2u6bq3dnka,323q6sjs8mtysa1z05bg6hd1iuchfr,Xp2l6bUU,2020-0188,2020-05-21,15:48:25,16:14:14,NA,incomplete,203,filling,0,right,Blue_Circle_Grid_4.jpg,Red_Circle_Stripes_3.jpg,Purple_Plus_Grid_2.jpg,right,1001.8599999602884,true,high,false
Xp2l6bUU,3j6bhnx0vc5zv8hudcso2u6bq3dnka,323q6sjs8mtysa1z05bg6hd1iuchfr,Xp2l6bUU,2020-0188,2020-05-21,15:48:25,16:14:14,NA,incomplete,204,filling,1,right,Blue_Plus_Grid_3.jpg,Red_Plus_Chess_4.jpg,Purple_Star_Grid_2.jpg,right,827.5750000029802,true,high,false
Xp2l6bUU,3j6bhnx0vc5zv8hudcso2u6bq3dnka,323q6sjs8mtysa1z05bg6hd1iuchfr,Xp2l6bUU,2020-0188,2020-05-21,15:48:25,16:14:14,NA,incomplete,205,filling,1,left,Green_Star_Chess_2.jpg,Blue_Circle_Chess_4.jpg,Red_Star_Dots_3.jpg,left,829.7950000269338,true,high,false
Xp2l6bUU,3j6bhnx0vc5zv8hudcso2u6bq3dnka,323q6sjs8mtysa1z05bg6hd1iuchfr,Xp2l6bUU,2020-0188,2020-05-21,15:48:25,16:14:14,NA,incomplete,206,filling,1,right,Red_Circle_Stripes_4.jpg,Blue_Circle_Dots_3.jpg,Green_Triangle_Stripes_1.jpg,right,763.3850000565872,true,high,false
Xp2l6bUU,3j6bhnx0vc5zv8hudcso2u6bq3dnka,323q6sjs8mtysa1z05bg6hd1iuchfr,Xp2l6bUU,2020-0188,2020-05-21,15:48:25,16:14:14,NA,incomplete,207,filling,0,left,Blue_Triangle_Stripes_3.jpg,Purple_Circle_Stripes_2.jpg,Red_Triangle_Grid_1.jpg,left,716.9149999972433,true,high,false
Xp2l6bUU,3j6bhnx0vc5zv8hudcso2u6bq3dnka,323q6sjs8mtysa1z05bg6hd1iuchfr,Xp2l6bUU,2020-0188,2020-05-21,15:48:25,16:14:14,NA,incomplete,208,filling,1,right,Red_Circle_Stripes_3.jpg,Green_Circle_Dots_1.jpg,Blue_Triangle_Stripes_2.jpg,right,801.2800000142306,true,high,false
Xp2l6bUU,3j6bhnx0vc5zv8hudcso2u6bq3dnka,323q6sjs8mtysa1z05bg6hd1iuchfr,Xp2l6bUU,2020-0188,2020-05-21,15:48:25,16:14:14,NA,incomplete,209,filling,0,right,Purple_Circle_Dots_3.jpg,Green_Circle_Stripes_2.jpg,Red_Triangle_Dots_1.jpg,right,677.8850000118837,true,high,false
Xp2l6bUU,3j6bhnx0vc5zv8hudcso2u6bq3dnka,323q6sjs8mtysa1z05bg6hd1iuchfr,Xp2l6bUU,2020-0188,2020-05-21,15:48:25,16:14:14,NA,incomplete,210,filling,1,left,Blue_Triangle_Dots_2.jpg,Green_Circle_Dots_4.jpg,Red_Triangle_Chess_1.jpg,left,1234.595000045374,true,high,false
Xp2l6bUU,3j6bhnx0vc5zv8hudcso2u6bq3dnka,323q6sjs8mtysa1z05bg6hd1iuchfr,Xp2l6bUU,2020-0188,2020-05-21,15:48:25,16:14:14,NA,incomplete,211,filling,1,left,Green_Triangle_Chess_3.jpg,Purple_Plus_Chess_4.jpg,Blue_Triangle_Stripes_1.jpg,left,1052.629999932833,true,high,false
Xp2l6bUU,3j6bhnx0vc5zv8hudcso2u6bq3dnka,323q6sjs8mtysa1z05bg6hd1iuchfr,Xp2l6bUU,2020-0188,2020-05-21,15:48:25,16:14:14,NA,incomplete,212,filling,1,right,Blue_Circle_Dots_2.jpg,Purple_Circle_Chess_1.jpg,Green_Plus_Dots_3.jpg,right,926.8249999731779,true,high,false
Xp2l6bUU,3j6bhnx0vc5zv8hudcso2u6bq3dnka,323q6sjs8mtysa1z05bg6hd1iuchfr,Xp2l6bUU,2020-0188,2020-05-21,15:48:25,16:14:14,NA,incomplete,213,filling,1,right,Purple_Triangle_Stripes_4.jpg,Blue_Triangle_Grid_3.jpg,Red_Circle_Stripes_2.jpg,right,653.165000025183,true,high,false
Xp2l6bUU,3j6bhnx0vc5zv8hudcso2u6bq3dnka,323q6sjs8mtysa1z05bg6hd1iuchfr,Xp2l6bUU,2020-0188,2020-05-21,15:48:25,16:14:14,NA,incomplete,214,filling,1,right,Red_Plus_Grid_1.jpg,Green_Plus_Dots_4.jpg,Purple_Circle_Grid_3.jpg,right,563.8800000306219,true,high,false
Xp2l6bUU,3j6bhnx0vc5zv8hudcso2u6bq3dnka,323q6sjs8mtysa1z05bg6hd1iuchfr,Xp2l6bUU,2020-0188,2020-05-21,15:48:25,16:14:14,NA,incomplete,215,filling,1,left,Purple_Circle_Chess_4.jpg,Blue_Star_Chess_2.jpg,Red_Circle_Dots_3.jpg,left,587.0600000489503,true,high,false
Xp2l6bUU,3j6bhnx0vc5zv8hudcso2u6bq3dnka,323q6sjs8mtysa1z05bg6hd1iuchfr,Xp2l6bUU,2020-0188,2020-05-21,15:48:25,16:14:14,NA,incomplete,216,filling,0,right,Purple_Plus_Dots_4.jpg,Blue_Plus_Stripes_3.jpg,Red_Star_Dots_2.jpg,right,888.9200000558048,true,high,false
Xp2l6bUU,3j6bhnx0vc5zv8hudcso2u6bq3dnka,323q6sjs8mtysa1z05bg6hd1iuchfr,Xp2l6bUU,2020-0188,2020-05-21,15:48:25,16:14:14,NA,incomplete,217,filling,1,left,Red_Circle_Dots_4.jpg,Purple_Star_Dots_2.jpg,Green_Circle_Grid_1.jpg,left,1536.7900000419468,true,high,false
Xp2l6bUU,3j6bhnx0vc5zv8hudcso2u6bq3dnka,323q6sjs8mtysa1z05bg6hd1iuchfr,Xp2l6bUU,2020-0188,2020-05-21,15:48:25,16:14:14,NA,incomplete,218,filling,0,right,Red_Triangle_Dots_4.jpg,Purple_Triangle_Stripes_3.jpg,Blue_Plus_Dots_1.jpg,right,745.0799999060109,true,high,false
Xp2l6bUU,3j6bhnx0vc5zv8hudcso2u6bq3dnka,323q6sjs8mtysa1z05bg6hd1iuchfr,Xp2l6bUU,2020-0188,2020-05-21,15:48:25,16:14:14,NA,incomplete,219,filling,1,right,Blue_Plus_Dots_4.jpg,Purple_Plus_Grid_1.jpg,Green_Star_Dots_2.jpg,left,816.0499999066815,false,high,false
Xp2l6bUU,3j6bhnx0vc5zv8hudcso2u6bq3dnka,323q6sjs8mtysa1z05bg6hd1iuchfr,Xp2l6bUU,2020-0188,2020-05-21,15:48:25,16:14:14,NA,incomplete,220,shape,0,right,Red_Plus_Stripes_4.jpg,Purple_Circle_Stripes_2.jpg,Blue_Plus_Grid_3.jpg,left,564.8749999236315,false,high,false
Xp2l6bUU,3j6bhnx0vc5zv8hudcso2u6bq3dnka,323q6sjs8mtysa1z05bg6hd1iuchfr,Xp2l6bUU,2020-0188,2020-05-21,15:48:25,16:14:14,NA,incomplete,221,shape,1,right,Green_Plus_Stripes_1.jpg,Red_Triangle_Stripes_3.jpg,Blue_Plus_Grid_4.jpg,left,839.4850000040606,false,high,false
Xp2l6bUU,3j6bhnx0vc5zv8hudcso2u6bq3dnka,323q6sjs8mtysa1z05bg6hd1iuchfr,Xp2l6bUU,2020-0188,2020-05-21,15:48:25,16:14:14,NA,incomplete,222,shape,1,left,Blue_Plus_Grid_4.jpg,Green_Plus_Dots_2.jpg,Red_Circle_Grid_1.jpg,right,880.1750000566244,false,high,false
Xp2l6bUU,3j6bhnx0vc5zv8hudcso2u6bq3dnka,323q6sjs8mtysa1z05bg6hd1iuchfr,Xp2l6bUU,2020-0188,2020-05-21,15:48:25,16:14:14,NA,incomplete,223,shape,1,left,Green_Circle_Chess_4.jpg,Purple_Circle_Dots_2.jpg,Red_Plus_Chess_1.jpg,left,673.5950000584126,true,high,false
Xp2l6bUU,3j6bhnx0vc5zv8hudcso2u6bq3dnka,323q6sjs8mtysa1z05bg6hd1iuchfr,Xp2l6bUU,2020-0188,2020-05-21,15:48:25,16:14:14,NA,incomplete,224,shape,0,right,Blue_Circle_Stripes_3.jpg,Red_Star_Stripes_4.jpg,Green_Circle_Grid_2.jpg,right,604.3749999953434,true,high,false
Xp2l6bUU,3j6bhnx0vc5zv8hudcso2u6bq3dnka,323q6sjs8mtysa1z05bg6hd1iuchfr,Xp2l6bUU,2020-0188,2020-05-21,15:48:25,16:14:14,NA,incomplete,225,shape,1,right,Red_Plus_Chess_2.jpg,Green_Circle_Chess_3.jpg,Blue_Plus_Grid_1.jpg,right,584.7049999283627,true,high,false
Xp2l6bUU,3j6bhnx0vc5zv8hudcso2u6bq3dnka,323q6sjs8mtysa1z05bg6hd1iuchfr,Xp2l6bUU,2020-0188,2020-05-21,15:48:25,16:14:14,NA,incomplete,226,shape,1,left,Red_Plus_Grid_3.jpg,Blue_Plus_Dots_4.jpg,Purple_Circle_Grid_2.jpg,left,548.0349999852479,true,high,false
Xp2l6bUU,3j6bhnx0vc5zv8hudcso2u6bq3dnka,323q6sjs8mtysa1z05bg6hd1iuchfr,Xp2l6bUU,2020-0188,2020-05-21,15:48:25,16:14:14,NA,incomplete,227,shape,1,right,Blue_Circle_Grid_3.jpg,Purple_Triangle_Grid_4.jpg,Red_Circle_Dots_1.jpg,right,552.8250000206754,true,high,false
Xp2l6bUU,3j6bhnx0vc5zv8hudcso2u6bq3dnka,323q6sjs8mtysa1z05bg6hd1iuchfr,Xp2l6bUU,2020-0188,2020-05-21,15:48:25,16:14:14,NA,incomplete,228,shape,0,right,Red_Plus_Chess_4.jpg,Blue_Triangle_Chess_1.jpg,Green_Plus_Stripes_2.jpg,right,502.60000000707805,true,high,false
Xp2l6bUU,3j6bhnx0vc5zv8hudcso2u6bq3dnka,323q6sjs8mtysa1z05bg6hd1iuchfr,Xp2l6bUU,2020-0188,2020-05-21,15:48:25,16:14:14,NA,incomplete,229,shape,1,right,Purple_Circle_Chess_4.jpg,Red_Triangle_Chess_3.jpg,Blue_Circle_Stripes_1.jpg,right,636.6749999579042,true,high,false
Xp2l6bUU,3j6bhnx0vc5zv8hudcso2u6bq3dnka,323q6sjs8mtysa1z05bg6hd1iuchfr,Xp2l6bUU,2020-0188,2020-05-21,15:48:25,16:14:14,NA,incomplete,230,shape,1,right,Purple_Star_Dots_3.jpg,Red_Plus_Dots_4.jpg,Blue_Star_Grid_2.jpg,right,768.2049999712035,true,high,false
Xp2l6bUU,3j6bhnx0vc5zv8hudcso2u6bq3dnka,323q6sjs8mtysa1z05bg6hd1iuchfr,Xp2l6bUU,2020-0188,2020-05-21,15:48:25,16:14:14,NA,incomplete,231,shape,1,right,Purple_Triangle_Chess_3.jpg,Blue_Plus_Chess_1.jpg,Green_Triangle_Grid_4.jpg,right,623.0000000214204,true,high,false
Xp2l6bUU,3j6bhnx0vc5zv8hudcso2u6bq3dnka,323q6sjs8mtysa1z05bg6hd1iuchfr,Xp2l6bUU,2020-0188,2020-05-21,15:48:25,16:14:14,NA,incomplete,232,shape,0,right,Purple_Plus_Grid_2.jpg,Red_Star_Grid_3.jpg,Green_Plus_Stripes_1.jpg,right,774.9799999874085,true,high,false
Xp2l6bUU,3j6bhnx0vc5zv8hudcso2u6bq3dnka,323q6sjs8mtysa1z05bg6hd1iuchfr,Xp2l6bUU,2020-0188,2020-05-21,15:48:25,16:14:14,NA,incomplete,233,shape,1,left,Purple_Circle_Stripes_4.jpg,Red_Circle_Grid_1.jpg,Green_Triangle_Stripes_3.jpg,none,0,false,high,false
Xp2l6bUU,3j6bhnx0vc5zv8hudcso2u6bq3dnka,323q6sjs8mtysa1z05bg6hd1iuchfr,Xp2l6bUU,2020-0188,2020-05-21,15:48:25,16:14:14,NA,incomplete,234,shape,1,left,Green_Plus_Dots_3.jpg,Red_Plus_Chess_4.jpg,Blue_Triangle_Dots_1.jpg,left,552.629999932833,true,high,false
Xp2l6bUU,3j6bhnx0vc5zv8hudcso2u6bq3dnka,323q6sjs8mtysa1z05bg6hd1iuchfr,Xp2l6bUU,2020-0188,2020-05-21,15:48:25,16:14:14,NA,incomplete,235,shape,1,left,Red_Plus_Chess_4.jpg,Purple_Plus_Dots_2.jpg,Green_Circle_Chess_1.jpg,left,513.1150000961497,true,high,false
Xp2l6bUU,3j6bhnx0vc5zv8hudcso2u6bq3dnka,323q6sjs8mtysa1z05bg6hd1iuchfr,Xp2l6bUU,2020-0188,2020-05-21,15:48:25,16:14:14,NA,incomplete,236,shape,1,left,Red_Star_Stripes_3.jpg,Purple_Star_Dots_2.jpg,Green_Plus_Stripes_4.jpg,left,906.7400000058115,true,high,false
Xp2l6bUU,3j6bhnx0vc5zv8hudcso2u6bq3dnka,323q6sjs8mtysa1z05bg6hd1iuchfr,Xp2l6bUU,2020-0188,2020-05-21,15:48:25,16:14:14,NA,incomplete,237,shape,1,left,Red_Plus_Dots_3.jpg,Purple_Plus_Stripes_2.jpg,Green_Triangle_Dots_4.jpg,left,697.3499999148771,true,high,false
Xp2l6bUU,3j6bhnx0vc5zv8hudcso2u6bq3dnka,323q6sjs8mtysa1z05bg6hd1iuchfr,Xp2l6bUU,2020-0188,2020-05-21,15:48:25,16:14:14,NA,incomplete,238,shape,1,left,Green_Triangle_Grid_4.jpg,Purple_Triangle_Stripes_1.jpg,Blue_Plus_Grid_3.jpg,left,457.2000000625849,true,high,false
Xp2l6bUU,3j6bhnx0vc5zv8hudcso2u6bq3dnka,323q6sjs8mtysa1z05bg6hd1iuchfr,Xp2l6bUU,2020-0188,2020-05-21,15:48:25,16:14:14,NA,incomplete,239,shape,1,right,Red_Triangle_Dots_4.jpg,Purple_Circle_Dots_2.jpg,Green_Triangle_Grid_1.jpg,right,491.524999961257,true,high,false
Xp2l6bUU,3j6bhnx0vc5zv8hudcso2u6bq3dnka,323q6sjs8mtysa1z05bg6hd1iuchfr,Xp2l6bUU,2020-0188,2020-05-21,15:48:25,16:14:14,NA,NA,instruction example,number,NA,NA,Green_Triangle_Dots_1.jpg,Blue_Plus_Grid_1.jpg,Green_Star_Stripes_3.jpg,NA,NA,NA,NA,undefined
Xp2l6bUU,3j6bhnx0vc5zv8hudcso2u6bq3dnka,323q6sjs8mtysa1z05bg6hd1iuchfr,Xp2l6bUU,2020-0188,2020-05-21,15:48:25,16:14:14,NA,NA,instruction example,number,NA,NA,Green_Circle_Grid_4.jpg,Green_Triangle_Stripes_3.jpg,Blue_Plus_Chess_4.jpg,NA,NA,NA,NA,undefined
Xp2l6bUU,3j6bhnx0vc5zv8hudcso2u6bq3dnka,323q6sjs8mtysa1z05bg6hd1iuchfr,Xp2l6bUU,2020-0188,2020-05-21,15:48:25,16:14:14,NA,NA,instruction example,number,NA,NA,Blue_Star_Stripes_2.jpg,Purple_Circle_Stripes_1.jpg,Red_Star_Dots_4.jpg,NA,NA,NA,NA,undefined
Xp2l6bUU,3j6bhnx0vc5zv8hudcso2u6bq3dnka,323q6sjs8mtysa1z05bg6hd1iuchfr,Xp2l6bUU,2020-0188,2020-05-21,15:48:25,16:14:14,NA,NA,instruction example,number,NA,NA,Green_Star_Chess_3.jpg,Purple_Star_Stripes_4.jpg,Blue_Triangle_Chess_2.jpg,NA,NA,NA,NA,undefined
Xp2l6bUU,3j6bhnx0vc5zv8hudcso2u6bq3dnka,323q6sjs8mtysa1z05bg6hd1iuchfr,Xp2l6bUU,2020-0188,2020-05-21,15:48:25,16:14:14,1526788.1700000726,1551455.2150000818,NA,NA,NA,NA,NA,NA,NA,NA,NA,NA,NA,undefined
