workerId,hitId,assignmentId,subject,studyid,exp_date,exp_start,exp_end,time_start,time_end,trial,type,reward_validity,answer,image_top,image_left,image_right,response,response_time,response_acc,volatility,age,race,gender,ethnicity,color,vision,neuro,practice
j5Xzv1DU,32xn26mty2w7ui75x62r6ind7a7l00,32utubmz7k9dxuk30s6o2sdpb8qbvi,j5Xzv1DU,2020-0188,2020-05-21,13:32:25,13:48:29,NA,incomplete,0,color,0,left,Green_Plus_Chess_3.jpg,Green_Star_Dots_1.jpg,Red_Circle_Grid_3.jpg,left,1583,true,NA,NA,NA,NA,NA,NA,NA,NA,true
j5Xzv1DU,32xn26mty2w7ui75x62r6ind7a7l00,32utubmz7k9dxuk30s6o2sdpb8qbvi,j5Xzv1DU,2020-0188,2020-05-21,13:32:25,13:48:29,NA,incomplete,1,color,1,right,Green_Star_Stripes_3.jpg,Blue_Triangle_Chess_3.jpg,Green_Plus_Dots_4.jpg,right,1290,true,NA,NA,NA,NA,NA,NA,NA,NA,true
j5Xzv1DU,32xn26mty2w7ui75x62r6ind7a7l00,32utubmz7k9dxuk30s6o2sdpb8qbvi,j5Xzv1DU,2020-0188,2020-05-21,13:32:25,13:48:29,NA,incomplete,2,color,1,right,Green_Plus_Stripes_2.jpg,Purple_Circle_Grid_2.jpg,Green_Star_Dots_3.jpg,right,1324,true,NA,NA,NA,NA,NA,NA,NA,NA,true
j5Xzv1DU,32xn26mty2w7ui75x62r6ind7a7l00,32utubmz7k9dxuk30s6o2sdpb8qbvi,j5Xzv1DU,2020-0188,2020-05-21,13:32:25,13:48:29,NA,incomplete,3,color,0,left,Purple_Triangle_Grid_3.jpg,Purple_Star_Dots_4.jpg,Blue_Plus_Chess_3.jpg,left,877,true,NA,NA,NA,NA,NA,NA,NA,NA,true
j5Xzv1DU,32xn26mty2w7ui75x62r6ind7a7l00,32utubmz7k9dxuk30s6o2sdpb8qbvi,j5Xzv1DU,2020-0188,2020-05-21,13:32:25,13:48:29,NA,incomplete,4,color,1,left,Red_Star_Chess_1.jpg,Red_Plus_Dots_2.jpg,Blue_Circle_Grid_1.jpg,left,1192,true,NA,NA,NA,NA,NA,NA,NA,NA,true
j5Xzv1DU,32xn26mty2w7ui75x62r6ind7a7l00,32utubmz7k9dxuk30s6o2sdpb8qbvi,j5Xzv1DU,2020-0188,2020-05-21,13:32:25,13:48:29,NA,incomplete,5,color,1,right,Red_Triangle_Stripes_1.jpg,Green_Star_Grid_1.jpg,Red_Plus_Dots_3.jpg,right,929,true,NA,NA,NA,NA,NA,NA,NA,NA,true
j5Xzv1DU,32xn26mty2w7ui75x62r6ind7a7l00,32utubmz7k9dxuk30s6o2sdpb8qbvi,j5Xzv1DU,2020-0188,2020-05-21,13:32:25,13:48:29,NA,incomplete,6,color,1,left,Red_Star_Grid_3.jpg,Red_Plus_Stripes_4.jpg,Green_Triangle_Dots_3.jpg,left,653,true,NA,NA,NA,NA,NA,NA,NA,NA,true
j5Xzv1DU,32xn26mty2w7ui75x62r6ind7a7l00,32utubmz7k9dxuk30s6o2sdpb8qbvi,j5Xzv1DU,2020-0188,2020-05-21,13:32:25,13:48:29,NA,incomplete,7,color,1,left,Green_Circle_Dots_3.jpg,Green_Plus_Chess_2.jpg,Purple_Star_Stripes_3.jpg,left,1179,true,NA,NA,NA,NA,NA,NA,NA,NA,true
j5Xzv1DU,32xn26mty2w7ui75x62r6ind7a7l00,32utubmz7k9dxuk30s6o2sdpb8qbvi,j5Xzv1DU,2020-0188,2020-05-21,13:32:25,13:48:29,NA,incomplete,8,color,1,left,Blue_Triangle_Stripes_2.jpg,Blue_Circle_Grid_1.jpg,Purple_Plus_Dots_2.jpg,left,739,true,NA,NA,NA,NA,NA,NA,NA,NA,true
j5Xzv1DU,32xn26mty2w7ui75x62r6ind7a7l00,32utubmz7k9dxuk30s6o2sdpb8qbvi,j5Xzv1DU,2020-0188,2020-05-21,13:32:25,13:48:29,NA,incomplete,9,color,0,left,Purple_Plus_Stripes_3.jpg,Purple_Circle_Grid_1.jpg,Green_Star_Dots_3.jpg,left,853,true,NA,NA,NA,NA,NA,NA,NA,NA,true
j5Xzv1DU,32xn26mty2w7ui75x62r6ind7a7l00,32utubmz7k9dxuk30s6o2sdpb8qbvi,j5Xzv1DU,2020-0188,2020-05-21,13:32:25,13:48:29,NA,incomplete,10,color,1,right,Green_Plus_Stripes_1.jpg,Blue_Circle_Dots_1.jpg,Green_Star_Chess_4.jpg,right,922,true,NA,NA,NA,NA,NA,NA,NA,NA,true
j5Xzv1DU,32xn26mty2w7ui75x62r6ind7a7l00,32utubmz7k9dxuk30s6o2sdpb8qbvi,j5Xzv1DU,2020-0188,2020-05-21,13:32:25,13:48:29,NA,incomplete,11,color,1,right,Purple_Triangle_Grid_4.jpg,Green_Star_Dots_4.jpg,Purple_Circle_Stripes_1.jpg,right,761,true,NA,NA,NA,NA,NA,NA,NA,NA,true
j5Xzv1DU,32xn26mty2w7ui75x62r6ind7a7l00,32utubmz7k9dxuk30s6o2sdpb8qbvi,j5Xzv1DU,2020-0188,2020-05-21,13:32:25,13:48:29,NA,incomplete,12,color,1,left,Red_Plus_Chess_1.jpg,Red_Star_Stripes_3.jpg,Purple_Triangle_Grid_1.jpg,left,555,true,NA,NA,NA,NA,NA,NA,NA,NA,true
j5Xzv1DU,32xn26mty2w7ui75x62r6ind7a7l00,32utubmz7k9dxuk30s6o2sdpb8qbvi,j5Xzv1DU,2020-0188,2020-05-21,13:32:25,13:48:29,NA,incomplete,13,color,1,right,Purple_Plus_Grid_2.jpg,Green_Star_Chess_2.jpg,Purple_Triangle_Dots_1.jpg,right,648,true,NA,NA,NA,NA,NA,NA,NA,NA,true
j5Xzv1DU,32xn26mty2w7ui75x62r6ind7a7l00,32utubmz7k9dxuk30s6o2sdpb8qbvi,j5Xzv1DU,2020-0188,2020-05-21,13:32:25,13:48:29,NA,incomplete,14,color,1,left,Red_Triangle_Grid_1.jpg,Red_Plus_Dots_4.jpg,Blue_Star_Stripes_1.jpg,left,544,true,NA,NA,NA,NA,NA,NA,NA,NA,true
j5Xzv1DU,32xn26mty2w7ui75x62r6ind7a7l00,32utubmz7k9dxuk30s6o2sdpb8qbvi,j5Xzv1DU,2020-0188,2020-05-21,13:32:25,13:48:29,NA,incomplete,15,color,1,left,Red_Triangle_Stripes_4.jpg,Red_Circle_Chess_2.jpg,Green_Star_Dots_4.jpg,left,610,true,NA,NA,NA,NA,NA,NA,NA,NA,true
j5Xzv1DU,32xn26mty2w7ui75x62r6ind7a7l00,32utubmz7k9dxuk30s6o2sdpb8qbvi,j5Xzv1DU,2020-0188,2020-05-21,13:32:25,13:48:29,NA,incomplete,16,color,1,left,Blue_Circle_Grid_2.jpg,Blue_Plus_Dots_1.jpg,Red_Triangle_Stripes_2.jpg,left,588,true,NA,NA,NA,NA,NA,NA,NA,NA,true
j5Xzv1DU,32xn26mty2w7ui75x62r6ind7a7l00,32utubmz7k9dxuk30s6o2sdpb8qbvi,j5Xzv1DU,2020-0188,2020-05-21,13:32:25,13:48:29,NA,incomplete,17,color,1,left,Green_Circle_Dots_3.jpg,Green_Triangle_Stripes_2.jpg,Red_Plus_Chess_3.jpg,left,967,true,NA,NA,NA,NA,NA,NA,NA,NA,true
j5Xzv1DU,32xn26mty2w7ui75x62r6ind7a7l00,32utubmz7k9dxuk30s6o2sdpb8qbvi,j5Xzv1DU,2020-0188,2020-05-21,13:32:25,13:48:29,NA,incomplete,18,color,0,left,Purple_Triangle_Dots_3.jpg,Purple_Plus_Stripes_4.jpg,Green_Circle_Grid_3.jpg,left,579,true,NA,NA,NA,NA,NA,NA,NA,NA,true
j5Xzv1DU,32xn26mty2w7ui75x62r6ind7a7l00,32utubmz7k9dxuk30s6o2sdpb8qbvi,j5Xzv1DU,2020-0188,2020-05-21,13:32:25,13:48:29,NA,incomplete,19,color,0,left,Green_Triangle_Stripes_4.jpg,Green_Circle_Grid_3.jpg,Blue_Star_Dots_4.jpg,left,542,true,NA,NA,NA,NA,NA,NA,NA,NA,true
j5Xzv1DU,32xn26mty2w7ui75x62r6ind7a7l00,32utubmz7k9dxuk30s6o2sdpb8qbvi,j5Xzv1DU,2020-0188,2020-05-21,13:32:25,13:48:29,NA,incomplete,20,number,1,right,Green_Star_Stripes_4.jpg,Green_Plus_Grid_3.jpg,Purple_Triangle_Chess_4.jpg,right,1581,true,NA,NA,NA,NA,NA,NA,NA,NA,true
j5Xzv1DU,32xn26mty2w7ui75x62r6ind7a7l00,32utubmz7k9dxuk30s6o2sdpb8qbvi,j5Xzv1DU,2020-0188,2020-05-21,13:32:25,13:48:29,NA,incomplete,21,number,1,right,Red_Triangle_Grid_4.jpg,Red_Circle_Chess_1.jpg,Purple_Plus_Dots_4.jpg,right,955,true,NA,NA,NA,NA,NA,NA,NA,NA,true
j5Xzv1DU,32xn26mty2w7ui75x62r6ind7a7l00,32utubmz7k9dxuk30s6o2sdpb8qbvi,j5Xzv1DU,2020-0188,2020-05-21,13:32:25,13:48:29,NA,incomplete,22,number,1,left,Green_Star_Chess_3.jpg,Blue_Circle_Grid_3.jpg,Green_Triangle_Stripes_4.jpg,left,1201,true,NA,NA,NA,NA,NA,NA,NA,NA,true
j5Xzv1DU,32xn26mty2w7ui75x62r6ind7a7l00,32utubmz7k9dxuk30s6o2sdpb8qbvi,j5Xzv1DU,2020-0188,2020-05-21,13:32:25,13:48:29,NA,incomplete,23,number,1,right,Green_Star_Grid_2.jpg,Green_Triangle_Stripes_3.jpg,Red_Plus_Chess_2.jpg,left,1358,false,NA,NA,NA,NA,NA,NA,NA,NA,true
j5Xzv1DU,32xn26mty2w7ui75x62r6ind7a7l00,32utubmz7k9dxuk30s6o2sdpb8qbvi,j5Xzv1DU,2020-0188,2020-05-21,13:32:25,13:48:29,NA,incomplete,24,number,1,left,Green_Triangle_Grid_2.jpg,Red_Circle_Stripes_2.jpg,Green_Star_Chess_1.jpg,left,907,true,NA,NA,NA,NA,NA,NA,NA,NA,true
j5Xzv1DU,32xn26mty2w7ui75x62r6ind7a7l00,32utubmz7k9dxuk30s6o2sdpb8qbvi,j5Xzv1DU,2020-0188,2020-05-21,13:32:25,13:48:29,NA,incomplete,25,number,0,left,Red_Plus_Stripes_3.jpg,Blue_Star_Chess_3.jpg,Red_Circle_Dots_1.jpg,left,883,true,NA,NA,NA,NA,NA,NA,NA,NA,true
j5Xzv1DU,32xn26mty2w7ui75x62r6ind7a7l00,32utubmz7k9dxuk30s6o2sdpb8qbvi,j5Xzv1DU,2020-0188,2020-05-21,13:32:25,13:48:29,NA,incomplete,26,number,1,right,Blue_Triangle_Grid_1.jpg,Blue_Circle_Chess_4.jpg,Purple_Plus_Dots_1.jpg,left,1029,false,NA,NA,NA,NA,NA,NA,NA,NA,true
j5Xzv1DU,32xn26mty2w7ui75x62r6ind7a7l00,32utubmz7k9dxuk30s6o2sdpb8qbvi,j5Xzv1DU,2020-0188,2020-05-21,13:32:25,13:48:29,NA,incomplete,27,number,1,right,Blue_Circle_Grid_4.jpg,Blue_Plus_Stripes_1.jpg,Purple_Star_Dots_4.jpg,right,889,true,NA,NA,NA,NA,NA,NA,NA,NA,true
j5Xzv1DU,32xn26mty2w7ui75x62r6ind7a7l00,32utubmz7k9dxuk30s6o2sdpb8qbvi,j5Xzv1DU,2020-0188,2020-05-21,13:32:25,13:48:29,NA,incomplete,28,number,1,left,Green_Circle_Stripes_4.jpg,Red_Triangle_Grid_4.jpg,Green_Plus_Chess_2.jpg,left,945,true,NA,NA,NA,NA,NA,NA,NA,NA,true
j5Xzv1DU,32xn26mty2w7ui75x62r6ind7a7l00,32utubmz7k9dxuk30s6o2sdpb8qbvi,j5Xzv1DU,2020-0188,2020-05-21,13:32:25,13:48:29,NA,incomplete,29,number,1,right,Blue_Plus_Dots_2.jpg,Blue_Triangle_Chess_3.jpg,Purple_Star_Stripes_2.jpg,right,932,true,NA,NA,NA,NA,NA,NA,NA,NA,true
j5Xzv1DU,32xn26mty2w7ui75x62r6ind7a7l00,32utubmz7k9dxuk30s6o2sdpb8qbvi,j5Xzv1DU,2020-0188,2020-05-21,13:32:25,13:48:29,NA,incomplete,30,number,1,right,Blue_Star_Stripes_4.jpg,Blue_Triangle_Dots_2.jpg,Green_Plus_Chess_4.jpg,right,1701,true,NA,NA,NA,NA,NA,NA,NA,NA,true
j5Xzv1DU,32xn26mty2w7ui75x62r6ind7a7l00,32utubmz7k9dxuk30s6o2sdpb8qbvi,j5Xzv1DU,2020-0188,2020-05-21,13:32:25,13:48:29,NA,incomplete,31,number,0,right,Purple_Circle_Grid_2.jpg,Purple_Triangle_Chess_4.jpg,Green_Star_Stripes_2.jpg,right,856,true,NA,NA,NA,NA,NA,NA,NA,NA,true
j5Xzv1DU,32xn26mty2w7ui75x62r6ind7a7l00,32utubmz7k9dxuk30s6o2sdpb8qbvi,j5Xzv1DU,2020-0188,2020-05-21,13:32:25,13:48:29,NA,incomplete,32,number,1,left,Blue_Circle_Stripes_3.jpg,Green_Star_Dots_3.jpg,Blue_Triangle_Chess_2.jpg,left,897,true,NA,NA,NA,NA,NA,NA,NA,NA,true
j5Xzv1DU,32xn26mty2w7ui75x62r6ind7a7l00,32utubmz7k9dxuk30s6o2sdpb8qbvi,j5Xzv1DU,2020-0188,2020-05-21,13:32:25,13:48:29,NA,incomplete,33,number,1,left,Green_Star_Dots_4.jpg,Purple_Plus_Stripes_4.jpg,Green_Triangle_Chess_2.jpg,left,735,true,NA,NA,NA,NA,NA,NA,NA,NA,true
j5Xzv1DU,32xn26mty2w7ui75x62r6ind7a7l00,32utubmz7k9dxuk30s6o2sdpb8qbvi,j5Xzv1DU,2020-0188,2020-05-21,13:32:25,13:48:29,NA,incomplete,34,number,1,right,Purple_Plus_Chess_2.jpg,Purple_Triangle_Grid_4.jpg,Red_Circle_Stripes_2.jpg,right,629,true,NA,NA,NA,NA,NA,NA,NA,NA,true
j5Xzv1DU,32xn26mty2w7ui75x62r6ind7a7l00,32utubmz7k9dxuk30s6o2sdpb8qbvi,j5Xzv1DU,2020-0188,2020-05-21,13:32:25,13:48:29,NA,incomplete,35,number,0,left,Green_Circle_Grid_1.jpg,Blue_Triangle_Dots_1.jpg,Green_Star_Chess_2.jpg,left,1011,true,NA,NA,NA,NA,NA,NA,NA,NA,true
j5Xzv1DU,32xn26mty2w7ui75x62r6ind7a7l00,32utubmz7k9dxuk30s6o2sdpb8qbvi,j5Xzv1DU,2020-0188,2020-05-21,13:32:25,13:48:29,NA,incomplete,36,number,1,right,Red_Circle_Chess_3.jpg,Red_Triangle_Dots_4.jpg,Blue_Star_Stripes_3.jpg,right,801,true,NA,NA,NA,NA,NA,NA,NA,NA,true
j5Xzv1DU,32xn26mty2w7ui75x62r6ind7a7l00,32utubmz7k9dxuk30s6o2sdpb8qbvi,j5Xzv1DU,2020-0188,2020-05-21,13:32:25,13:48:29,NA,incomplete,37,number,1,left,Green_Star_Stripes_2.jpg,Red_Plus_Dots_2.jpg,Green_Circle_Chess_1.jpg,left,1134,true,NA,NA,NA,NA,NA,NA,NA,NA,true
j5Xzv1DU,32xn26mty2w7ui75x62r6ind7a7l00,32utubmz7k9dxuk30s6o2sdpb8qbvi,j5Xzv1DU,2020-0188,2020-05-21,13:32:25,13:48:29,NA,incomplete,38,number,1,left,Red_Triangle_Dots_2.jpg,Green_Plus_Stripes_2.jpg,Red_Circle_Grid_1.jpg,left,1384,true,NA,NA,NA,NA,NA,NA,NA,NA,true
j5Xzv1DU,32xn26mty2w7ui75x62r6ind7a7l00,32utubmz7k9dxuk30s6o2sdpb8qbvi,j5Xzv1DU,2020-0188,2020-05-21,13:32:25,13:48:29,NA,incomplete,39,number,1,left,Blue_Triangle_Stripes_4.jpg,Red_Plus_Grid_4.jpg,Blue_Circle_Chess_2.jpg,right,1433,false,NA,NA,NA,NA,NA,NA,NA,NA,true
j5Xzv1DU,32xn26mty2w7ui75x62r6ind7a7l00,32utubmz7k9dxuk30s6o2sdpb8qbvi,j5Xzv1DU,2020-0188,2020-05-21,13:32:25,13:48:29,NA,incomplete,0,color,1,right,Purple_Plus_Dots_2.jpg,Blue_Triangle_Grid_2.jpg,Purple_Circle_Stripes_1.jpg,right,875,true,low,NA,NA,NA,NA,NA,NA,NA,false
j5Xzv1DU,32xn26mty2w7ui75x62r6ind7a7l00,32utubmz7k9dxuk30s6o2sdpb8qbvi,j5Xzv1DU,2020-0188,2020-05-21,13:32:25,13:48:29,NA,incomplete,1,color,1,right,Red_Star_Dots_4.jpg,Green_Triangle_Grid_4.jpg,Red_Plus_Stripes_1.jpg,right,679,true,low,NA,NA,NA,NA,NA,NA,NA,false
j5Xzv1DU,32xn26mty2w7ui75x62r6ind7a7l00,32utubmz7k9dxuk30s6o2sdpb8qbvi,j5Xzv1DU,2020-0188,2020-05-21,13:32:25,13:48:29,NA,incomplete,2,color,1,left,Purple_Circle_Grid_3.jpg,Purple_Star_Dots_4.jpg,Red_Plus_Stripes_3.jpg,left,904,true,low,NA,NA,NA,NA,NA,NA,NA,false
j5Xzv1DU,32xn26mty2w7ui75x62r6ind7a7l00,32utubmz7k9dxuk30s6o2sdpb8qbvi,j5Xzv1DU,2020-0188,2020-05-21,13:32:25,13:48:29,NA,incomplete,3,color,0,left,Blue_Circle_Chess_2.jpg,Blue_Star_Stripes_4.jpg,Red_Plus_Grid_2.jpg,right,1099,false,low,NA,NA,NA,NA,NA,NA,NA,false
j5Xzv1DU,32xn26mty2w7ui75x62r6ind7a7l00,32utubmz7k9dxuk30s6o2sdpb8qbvi,j5Xzv1DU,2020-0188,2020-05-21,13:32:25,13:48:29,NA,incomplete,4,color,1,left,Red_Star_Dots_1.jpg,Red_Plus_Stripes_2.jpg,Purple_Circle_Chess_1.jpg,left,984,true,low,NA,NA,NA,NA,NA,NA,NA,false
j5Xzv1DU,32xn26mty2w7ui75x62r6ind7a7l00,32utubmz7k9dxuk30s6o2sdpb8qbvi,j5Xzv1DU,2020-0188,2020-05-21,13:32:25,13:48:29,NA,incomplete,5,color,0,left,Blue_Circle_Dots_1.jpg,Blue_Triangle_Chess_4.jpg,Red_Plus_Grid_1.jpg,left,835,true,low,NA,NA,NA,NA,NA,NA,NA,false
j5Xzv1DU,32xn26mty2w7ui75x62r6ind7a7l00,32utubmz7k9dxuk30s6o2sdpb8qbvi,j5Xzv1DU,2020-0188,2020-05-21,13:32:25,13:48:29,NA,incomplete,6,color,1,right,Blue_Star_Dots_2.jpg,Purple_Circle_Stripes_2.jpg,Blue_Triangle_Chess_1.jpg,left,878,false,low,NA,NA,NA,NA,NA,NA,NA,false
j5Xzv1DU,32xn26mty2w7ui75x62r6ind7a7l00,32utubmz7k9dxuk30s6o2sdpb8qbvi,j5Xzv1DU,2020-0188,2020-05-21,13:32:25,13:48:29,NA,incomplete,7,color,1,left,Blue_Star_Chess_1.jpg,Blue_Plus_Dots_3.jpg,Purple_Circle_Stripes_1.jpg,left,909,true,low,NA,NA,NA,NA,NA,NA,NA,false
j5Xzv1DU,32xn26mty2w7ui75x62r6ind7a7l00,32utubmz7k9dxuk30s6o2sdpb8qbvi,j5Xzv1DU,2020-0188,2020-05-21,13:32:25,13:48:29,NA,incomplete,8,color,1,right,Green_Plus_Stripes_1.jpg,Purple_Star_Dots_1.jpg,Green_Circle_Chess_4.jpg,right,743,true,low,NA,NA,NA,NA,NA,NA,NA,false
j5Xzv1DU,32xn26mty2w7ui75x62r6ind7a7l00,32utubmz7k9dxuk30s6o2sdpb8qbvi,j5Xzv1DU,2020-0188,2020-05-21,13:32:25,13:48:29,NA,incomplete,9,color,1,left,Purple_Triangle_Chess_2.jpg,Purple_Circle_Stripes_3.jpg,Blue_Plus_Grid_2.jpg,left,767,true,low,NA,NA,NA,NA,NA,NA,NA,false
j5Xzv1DU,32xn26mty2w7ui75x62r6ind7a7l00,32utubmz7k9dxuk30s6o2sdpb8qbvi,j5Xzv1DU,2020-0188,2020-05-21,13:32:25,13:48:29,NA,incomplete,10,color,1,left,Purple_Star_Stripes_4.jpg,Purple_Circle_Grid_3.jpg,Green_Triangle_Chess_4.jpg,left,716,true,low,NA,NA,NA,NA,NA,NA,NA,false
j5Xzv1DU,32xn26mty2w7ui75x62r6ind7a7l00,32utubmz7k9dxuk30s6o2sdpb8qbvi,j5Xzv1DU,2020-0188,2020-05-21,13:32:25,13:48:29,NA,incomplete,11,color,1,left,Green_Triangle_Chess_2.jpg,Green_Star_Stripes_1.jpg,Blue_Plus_Dots_2.jpg,left,658,true,low,NA,NA,NA,NA,NA,NA,NA,false
j5Xzv1DU,32xn26mty2w7ui75x62r6ind7a7l00,32utubmz7k9dxuk30s6o2sdpb8qbvi,j5Xzv1DU,2020-0188,2020-05-21,13:32:25,13:48:29,NA,incomplete,12,color,0,left,Red_Triangle_Grid_1.jpg,Red_Star_Dots_4.jpg,Purple_Plus_Stripes_1.jpg,left,679,true,low,NA,NA,NA,NA,NA,NA,NA,false
j5Xzv1DU,32xn26mty2w7ui75x62r6ind7a7l00,32utubmz7k9dxuk30s6o2sdpb8qbvi,j5Xzv1DU,2020-0188,2020-05-21,13:32:25,13:48:29,NA,incomplete,13,color,1,left,Purple_Star_Grid_2.jpg,Purple_Circle_Stripes_4.jpg,Red_Plus_Dots_2.jpg,left,1037,true,low,NA,NA,NA,NA,NA,NA,NA,false
j5Xzv1DU,32xn26mty2w7ui75x62r6ind7a7l00,32utubmz7k9dxuk30s6o2sdpb8qbvi,j5Xzv1DU,2020-0188,2020-05-21,13:32:25,13:48:29,NA,incomplete,14,color,1,right,Red_Star_Stripes_1.jpg,Purple_Triangle_Chess_1.jpg,Red_Circle_Grid_4.jpg,right,738,true,low,NA,NA,NA,NA,NA,NA,NA,false
j5Xzv1DU,32xn26mty2w7ui75x62r6ind7a7l00,32utubmz7k9dxuk30s6o2sdpb8qbvi,j5Xzv1DU,2020-0188,2020-05-21,13:32:25,13:48:29,NA,incomplete,15,color,1,right,Red_Circle_Chess_2.jpg,Blue_Plus_Grid_2.jpg,Red_Triangle_Stripes_3.jpg,right,626,true,low,NA,NA,NA,NA,NA,NA,NA,false
j5Xzv1DU,32xn26mty2w7ui75x62r6ind7a7l00,32utubmz7k9dxuk30s6o2sdpb8qbvi,j5Xzv1DU,2020-0188,2020-05-21,13:32:25,13:48:29,NA,incomplete,16,color,1,right,Green_Star_Grid_1.jpg,Purple_Plus_Chess_1.jpg,Green_Circle_Stripes_3.jpg,right,750,true,low,NA,NA,NA,NA,NA,NA,NA,false
j5Xzv1DU,32xn26mty2w7ui75x62r6ind7a7l00,32utubmz7k9dxuk30s6o2sdpb8qbvi,j5Xzv1DU,2020-0188,2020-05-21,13:32:25,13:48:29,NA,incomplete,17,color,1,left,Green_Circle_Chess_3.jpg,Green_Star_Dots_4.jpg,Red_Triangle_Grid_3.jpg,right,679,false,low,NA,NA,NA,NA,NA,NA,NA,false
j5Xzv1DU,32xn26mty2w7ui75x62r6ind7a7l00,32utubmz7k9dxuk30s6o2sdpb8qbvi,j5Xzv1DU,2020-0188,2020-05-21,13:32:25,13:48:29,NA,incomplete,18,color,1,right,Purple_Circle_Stripes_2.jpg,Red_Star_Dots_2.jpg,Purple_Triangle_Chess_1.jpg,right,711,true,low,NA,NA,NA,NA,NA,NA,NA,false
j5Xzv1DU,32xn26mty2w7ui75x62r6ind7a7l00,32utubmz7k9dxuk30s6o2sdpb8qbvi,j5Xzv1DU,2020-0188,2020-05-21,13:32:25,13:48:29,NA,incomplete,19,color,1,right,Blue_Star_Stripes_1.jpg,Purple_Circle_Dots_1.jpg,Blue_Triangle_Grid_4.jpg,right,632,true,low,NA,NA,NA,NA,NA,NA,NA,false
j5Xzv1DU,32xn26mty2w7ui75x62r6ind7a7l00,32utubmz7k9dxuk30s6o2sdpb8qbvi,j5Xzv1DU,2020-0188,2020-05-21,13:32:25,13:48:29,NA,incomplete,20,color,1,right,Green_Plus_Grid_2.jpg,Purple_Triangle_Stripes_2.jpg,Green_Circle_Chess_1.jpg,right,863,true,low,NA,NA,NA,NA,NA,NA,NA,false
j5Xzv1DU,32xn26mty2w7ui75x62r6ind7a7l00,32utubmz7k9dxuk30s6o2sdpb8qbvi,j5Xzv1DU,2020-0188,2020-05-21,13:32:25,13:48:29,NA,incomplete,21,color,0,right,Blue_Star_Dots_2.jpg,Red_Triangle_Stripes_2.jpg,Blue_Plus_Grid_3.jpg,right,741,true,low,NA,NA,NA,NA,NA,NA,NA,false
j5Xzv1DU,32xn26mty2w7ui75x62r6ind7a7l00,32utubmz7k9dxuk30s6o2sdpb8qbvi,j5Xzv1DU,2020-0188,2020-05-21,13:32:25,13:48:29,NA,incomplete,22,color,1,left,Blue_Triangle_Dots_2.jpg,Blue_Circle_Grid_4.jpg,Red_Plus_Stripes_2.jpg,left,672,true,low,NA,NA,NA,NA,NA,NA,NA,false
j5Xzv1DU,32xn26mty2w7ui75x62r6ind7a7l00,32utubmz7k9dxuk30s6o2sdpb8qbvi,j5Xzv1DU,2020-0188,2020-05-21,13:32:25,13:48:29,NA,incomplete,23,color,1,right,Blue_Plus_Chess_1.jpg,Purple_Star_Dots_1.jpg,Blue_Triangle_Stripes_4.jpg,right,675,true,low,NA,NA,NA,NA,NA,NA,NA,false
j5Xzv1DU,32xn26mty2w7ui75x62r6ind7a7l00,32utubmz7k9dxuk30s6o2sdpb8qbvi,j5Xzv1DU,2020-0188,2020-05-21,13:32:25,13:48:29,NA,incomplete,24,color,1,right,Purple_Circle_Stripes_1.jpg,Blue_Star_Dots_1.jpg,Purple_Triangle_Chess_2.jpg,right,794,true,low,NA,NA,NA,NA,NA,NA,NA,false
j5Xzv1DU,32xn26mty2w7ui75x62r6ind7a7l00,32utubmz7k9dxuk30s6o2sdpb8qbvi,j5Xzv1DU,2020-0188,2020-05-21,13:32:25,13:48:29,NA,incomplete,25,color,1,right,Blue_Star_Stripes_4.jpg,Purple_Circle_Dots_4.jpg,Blue_Triangle_Grid_1.jpg,right,930,true,low,NA,NA,NA,NA,NA,NA,NA,false
j5Xzv1DU,32xn26mty2w7ui75x62r6ind7a7l00,32utubmz7k9dxuk30s6o2sdpb8qbvi,j5Xzv1DU,2020-0188,2020-05-21,13:32:25,13:48:29,NA,incomplete,26,color,1,left,Green_Triangle_Chess_2.jpg,Green_Star_Stripes_1.jpg,Blue_Circle_Grid_2.jpg,left,486,true,low,NA,NA,NA,NA,NA,NA,NA,false
j5Xzv1DU,32xn26mty2w7ui75x62r6ind7a7l00,32utubmz7k9dxuk30s6o2sdpb8qbvi,j5Xzv1DU,2020-0188,2020-05-21,13:32:25,13:48:29,NA,incomplete,27,color,0,right,Red_Triangle_Grid_2.jpg,Green_Plus_Dots_2.jpg,Red_Circle_Chess_3.jpg,right,696,true,low,NA,NA,NA,NA,NA,NA,NA,false
j5Xzv1DU,32xn26mty2w7ui75x62r6ind7a7l00,32utubmz7k9dxuk30s6o2sdpb8qbvi,j5Xzv1DU,2020-0188,2020-05-21,13:32:25,13:48:29,NA,incomplete,28,color,0,right,Red_Triangle_Grid_1.jpg,Green_Circle_Chess_1.jpg,Red_Star_Dots_4.jpg,right,511,true,low,NA,NA,NA,NA,NA,NA,NA,false
j5Xzv1DU,32xn26mty2w7ui75x62r6ind7a7l00,32utubmz7k9dxuk30s6o2sdpb8qbvi,j5Xzv1DU,2020-0188,2020-05-21,13:32:25,13:48:29,NA,incomplete,29,color,1,left,Blue_Circle_Grid_4.jpg,Blue_Plus_Stripes_2.jpg,Purple_Triangle_Chess_4.jpg,left,703,true,low,NA,NA,NA,NA,NA,NA,NA,false
j5Xzv1DU,32xn26mty2w7ui75x62r6ind7a7l00,32utubmz7k9dxuk30s6o2sdpb8qbvi,j5Xzv1DU,2020-0188,2020-05-21,13:32:25,13:48:29,NA,incomplete,30,number,1,left,Red_Triangle_Grid_3.jpg,Blue_Star_Stripes_3.jpg,Red_Plus_Chess_4.jpg,right,597,false,low,NA,NA,NA,NA,NA,NA,NA,false
j5Xzv1DU,32xn26mty2w7ui75x62r6ind7a7l00,32utubmz7k9dxuk30s6o2sdpb8qbvi,j5Xzv1DU,2020-0188,2020-05-21,13:32:25,13:48:29,NA,incomplete,31,number,1,left,Red_Plus_Chess_2.jpg,Green_Triangle_Dots_2.jpg,Red_Star_Grid_3.jpg,left,1363,true,low,NA,NA,NA,NA,NA,NA,NA,false
j5Xzv1DU,32xn26mty2w7ui75x62r6ind7a7l00,32utubmz7k9dxuk30s6o2sdpb8qbvi,j5Xzv1DU,2020-0188,2020-05-21,13:32:25,13:48:29,NA,incomplete,32,number,1,right,Purple_Circle_Stripes_1.jpg,Purple_Plus_Grid_4.jpg,Red_Triangle_Chess_1.jpg,left,706,false,low,NA,NA,NA,NA,NA,NA,NA,false
j5Xzv1DU,32xn26mty2w7ui75x62r6ind7a7l00,32utubmz7k9dxuk30s6o2sdpb8qbvi,j5Xzv1DU,2020-0188,2020-05-21,13:32:25,13:48:29,NA,incomplete,33,number,1,right,Green_Circle_Chess_2.jpg,Green_Star_Dots_3.jpg,Blue_Plus_Grid_2.jpg,left,761,false,low,NA,NA,NA,NA,NA,NA,NA,false
j5Xzv1DU,32xn26mty2w7ui75x62r6ind7a7l00,32utubmz7k9dxuk30s6o2sdpb8qbvi,j5Xzv1DU,2020-0188,2020-05-21,13:32:25,13:48:29,NA,incomplete,34,number,0,right,Purple_Triangle_Dots_4.jpg,Purple_Circle_Grid_1.jpg,Blue_Plus_Chess_4.jpg,right,712,true,low,NA,NA,NA,NA,NA,NA,NA,false
j5Xzv1DU,32xn26mty2w7ui75x62r6ind7a7l00,32utubmz7k9dxuk30s6o2sdpb8qbvi,j5Xzv1DU,2020-0188,2020-05-21,13:32:25,13:48:29,NA,incomplete,35,number,1,right,Purple_Star_Dots_4.jpg,Purple_Triangle_Chess_1.jpg,Blue_Circle_Grid_4.jpg,right,661,true,low,NA,NA,NA,NA,NA,NA,NA,false
j5Xzv1DU,32xn26mty2w7ui75x62r6ind7a7l00,32utubmz7k9dxuk30s6o2sdpb8qbvi,j5Xzv1DU,2020-0188,2020-05-21,13:32:25,13:48:29,NA,incomplete,36,number,1,right,Blue_Triangle_Stripes_1.jpg,Blue_Plus_Grid_3.jpg,Green_Circle_Dots_1.jpg,left,980,false,low,NA,NA,NA,NA,NA,NA,NA,false
j5Xzv1DU,32xn26mty2w7ui75x62r6ind7a7l00,32utubmz7k9dxuk30s6o2sdpb8qbvi,j5Xzv1DU,2020-0188,2020-05-21,13:32:25,13:48:29,NA,incomplete,37,number,1,right,Purple_Triangle_Stripes_2.jpg,Purple_Plus_Chess_4.jpg,Green_Star_Dots_2.jpg,right,627,true,low,NA,NA,NA,NA,NA,NA,NA,false
j5Xzv1DU,32xn26mty2w7ui75x62r6ind7a7l00,32utubmz7k9dxuk30s6o2sdpb8qbvi,j5Xzv1DU,2020-0188,2020-05-21,13:32:25,13:48:29,NA,incomplete,38,number,1,left,Blue_Triangle_Stripes_3.jpg,Green_Circle_Grid_3.jpg,Blue_Plus_Chess_2.jpg,left,809,true,low,NA,NA,NA,NA,NA,NA,NA,false
j5Xzv1DU,32xn26mty2w7ui75x62r6ind7a7l00,32utubmz7k9dxuk30s6o2sdpb8qbvi,j5Xzv1DU,2020-0188,2020-05-21,13:32:25,13:48:29,NA,incomplete,39,number,1,left,Green_Triangle_Chess_1.jpg,Blue_Circle_Grid_1.jpg,Green_Plus_Stripes_2.jpg,left,1021,true,low,NA,NA,NA,NA,NA,NA,NA,false
j5Xzv1DU,32xn26mty2w7ui75x62r6ind7a7l00,32utubmz7k9dxuk30s6o2sdpb8qbvi,j5Xzv1DU,2020-0188,2020-05-21,13:32:25,13:48:29,NA,incomplete,40,number,1,right,Green_Triangle_Stripes_2.jpg,Green_Plus_Grid_4.jpg,Red_Star_Dots_2.jpg,right,971,true,low,NA,NA,NA,NA,NA,NA,NA,false
j5Xzv1DU,32xn26mty2w7ui75x62r6ind7a7l00,32utubmz7k9dxuk30s6o2sdpb8qbvi,j5Xzv1DU,2020-0188,2020-05-21,13:32:25,13:48:29,NA,incomplete,41,number,1,right,Red_Triangle_Dots_2.jpg,Red_Plus_Chess_4.jpg,Blue_Star_Stripes_2.jpg,right,726,true,low,NA,NA,NA,NA,NA,NA,NA,false
j5Xzv1DU,32xn26mty2w7ui75x62r6ind7a7l00,32utubmz7k9dxuk30s6o2sdpb8qbvi,j5Xzv1DU,2020-0188,2020-05-21,13:32:25,13:48:29,NA,incomplete,42,number,1,left,Green_Circle_Grid_2.jpg,Red_Plus_Stripes_2.jpg,Green_Triangle_Chess_3.jpg,left,723,true,low,NA,NA,NA,NA,NA,NA,NA,false
j5Xzv1DU,32xn26mty2w7ui75x62r6ind7a7l00,32utubmz7k9dxuk30s6o2sdpb8qbvi,j5Xzv1DU,2020-0188,2020-05-21,13:32:25,13:48:29,NA,incomplete,43,number,1,left,Purple_Star_Dots_4.jpg,Red_Circle_Stripes_4.jpg,Purple_Triangle_Grid_2.jpg,left,733,true,low,NA,NA,NA,NA,NA,NA,NA,false
j5Xzv1DU,32xn26mty2w7ui75x62r6ind7a7l00,32utubmz7k9dxuk30s6o2sdpb8qbvi,j5Xzv1DU,2020-0188,2020-05-21,13:32:25,13:48:29,NA,incomplete,44,number,1,left,Green_Triangle_Chess_1.jpg,Red_Plus_Stripes_1.jpg,Green_Star_Grid_3.jpg,left,686,true,low,NA,NA,NA,NA,NA,NA,NA,false
j5Xzv1DU,32xn26mty2w7ui75x62r6ind7a7l00,32utubmz7k9dxuk30s6o2sdpb8qbvi,j5Xzv1DU,2020-0188,2020-05-21,13:32:25,13:48:29,NA,incomplete,45,number,1,right,Purple_Circle_Stripes_4.jpg,Purple_Star_Grid_1.jpg,Blue_Plus_Chess_4.jpg,left,524,false,low,NA,NA,NA,NA,NA,NA,NA,false
j5Xzv1DU,32xn26mty2w7ui75x62r6ind7a7l00,32utubmz7k9dxuk30s6o2sdpb8qbvi,j5Xzv1DU,2020-0188,2020-05-21,13:32:25,13:48:29,NA,incomplete,46,number,1,left,Blue_Circle_Chess_4.jpg,Red_Triangle_Dots_4.jpg,Blue_Star_Grid_1.jpg,left,701,true,low,NA,NA,NA,NA,NA,NA,NA,false
j5Xzv1DU,32xn26mty2w7ui75x62r6ind7a7l00,32utubmz7k9dxuk30s6o2sdpb8qbvi,j5Xzv1DU,2020-0188,2020-05-21,13:32:25,13:48:29,NA,incomplete,47,number,1,left,Red_Star_Grid_1.jpg,Blue_Plus_Dots_1.jpg,Red_Triangle_Stripes_4.jpg,left,672,true,low,NA,NA,NA,NA,NA,NA,NA,false
j5Xzv1DU,32xn26mty2w7ui75x62r6ind7a7l00,32utubmz7k9dxuk30s6o2sdpb8qbvi,j5Xzv1DU,2020-0188,2020-05-21,13:32:25,13:48:29,NA,incomplete,48,number,0,right,Purple_Triangle_Grid_4.jpg,Purple_Star_Chess_1.jpg,Red_Circle_Stripes_4.jpg,right,910,true,low,NA,NA,NA,NA,NA,NA,NA,false
j5Xzv1DU,32xn26mty2w7ui75x62r6ind7a7l00,32utubmz7k9dxuk30s6o2sdpb8qbvi,j5Xzv1DU,2020-0188,2020-05-21,13:32:25,13:48:29,NA,incomplete,49,number,1,right,Green_Plus_Stripes_4.jpg,Green_Triangle_Grid_2.jpg,Red_Circle_Dots_4.jpg,right,730,true,low,NA,NA,NA,NA,NA,NA,NA,false
j5Xzv1DU,32xn26mty2w7ui75x62r6ind7a7l00,32utubmz7k9dxuk30s6o2sdpb8qbvi,j5Xzv1DU,2020-0188,2020-05-21,13:32:25,13:48:29,NA,incomplete,50,number,1,left,Blue_Star_Grid_2.jpg,Green_Plus_Stripes_2.jpg,Blue_Triangle_Chess_1.jpg,left,728,true,low,NA,NA,NA,NA,NA,NA,NA,false
j5Xzv1DU,32xn26mty2w7ui75x62r6ind7a7l00,32utubmz7k9dxuk30s6o2sdpb8qbvi,j5Xzv1DU,2020-0188,2020-05-21,13:32:25,13:48:29,NA,incomplete,51,number,1,left,Blue_Plus_Dots_4.jpg,Red_Triangle_Stripes_4.jpg,Blue_Circle_Chess_3.jpg,left,1101,true,low,NA,NA,NA,NA,NA,NA,NA,false
j5Xzv1DU,32xn26mty2w7ui75x62r6ind7a7l00,32utubmz7k9dxuk30s6o2sdpb8qbvi,j5Xzv1DU,2020-0188,2020-05-21,13:32:25,13:48:29,NA,incomplete,52,number,0,right,Purple_Circle_Stripes_1.jpg,Purple_Plus_Chess_3.jpg,Red_Star_Dots_1.jpg,right,885,true,low,NA,NA,NA,NA,NA,NA,NA,false
j5Xzv1DU,32xn26mty2w7ui75x62r6ind7a7l00,32utubmz7k9dxuk30s6o2sdpb8qbvi,j5Xzv1DU,2020-0188,2020-05-21,13:32:25,13:48:29,NA,incomplete,53,number,1,right,Red_Star_Dots_3.jpg,Red_Triangle_Chess_2.jpg,Green_Plus_Grid_3.jpg,right,757,true,low,NA,NA,NA,NA,NA,NA,NA,false
j5Xzv1DU,32xn26mty2w7ui75x62r6ind7a7l00,32utubmz7k9dxuk30s6o2sdpb8qbvi,j5Xzv1DU,2020-0188,2020-05-21,13:32:25,13:48:29,NA,incomplete,54,number,1,left,Red_Circle_Chess_3.jpg,Purple_Triangle_Stripes_3.jpg,Red_Plus_Grid_4.jpg,left,927,true,low,NA,NA,NA,NA,NA,NA,NA,false
j5Xzv1DU,32xn26mty2w7ui75x62r6ind7a7l00,32utubmz7k9dxuk30s6o2sdpb8qbvi,j5Xzv1DU,2020-0188,2020-05-21,13:32:25,13:48:29,NA,incomplete,55,number,1,left,Purple_Circle_Grid_4.jpg,Red_Triangle_Dots_4.jpg,Purple_Plus_Chess_3.jpg,right,994,false,low,NA,NA,NA,NA,NA,NA,NA,false
j5Xzv1DU,32xn26mty2w7ui75x62r6ind7a7l00,32utubmz7k9dxuk30s6o2sdpb8qbvi,j5Xzv1DU,2020-0188,2020-05-21,13:32:25,13:48:29,NA,incomplete,56,number,1,right,Red_Triangle_Grid_3.jpg,Red_Circle_Stripes_1.jpg,Green_Star_Chess_3.jpg,right,872,true,low,NA,NA,NA,NA,NA,NA,NA,false
j5Xzv1DU,32xn26mty2w7ui75x62r6ind7a7l00,32utubmz7k9dxuk30s6o2sdpb8qbvi,j5Xzv1DU,2020-0188,2020-05-21,13:32:25,13:48:29,NA,incomplete,57,number,1,left,Green_Triangle_Chess_1.jpg,Blue_Circle_Dots_1.jpg,Green_Star_Grid_2.jpg,left,534,true,low,NA,NA,NA,NA,NA,NA,NA,false
j5Xzv1DU,32xn26mty2w7ui75x62r6ind7a7l00,32utubmz7k9dxuk30s6o2sdpb8qbvi,j5Xzv1DU,2020-0188,2020-05-21,13:32:25,13:48:29,NA,incomplete,58,number,1,left,Purple_Circle_Chess_3.jpg,Green_Triangle_Stripes_3.jpg,Purple_Plus_Grid_4.jpg,left,715,true,low,NA,NA,NA,NA,NA,NA,NA,false
j5Xzv1DU,32xn26mty2w7ui75x62r6ind7a7l00,32utubmz7k9dxuk30s6o2sdpb8qbvi,j5Xzv1DU,2020-0188,2020-05-21,13:32:25,13:48:29,NA,incomplete,59,number,1,right,Green_Triangle_Stripes_1.jpg,Green_Circle_Grid_4.jpg,Red_Plus_Chess_1.jpg,right,629,true,low,NA,NA,NA,NA,NA,NA,NA,false
j5Xzv1DU,32xn26mty2w7ui75x62r6ind7a7l00,32utubmz7k9dxuk30s6o2sdpb8qbvi,j5Xzv1DU,2020-0188,2020-05-21,13:32:25,13:48:29,NA,incomplete,60,color,1,right,Green_Star_Dots_3.jpg,Purple_Circle_Grid_3.jpg,Green_Plus_Stripes_1.jpg,left,556,false,low,NA,NA,NA,NA,NA,NA,NA,false
j5Xzv1DU,32xn26mty2w7ui75x62r6ind7a7l00,32utubmz7k9dxuk30s6o2sdpb8qbvi,j5Xzv1DU,2020-0188,2020-05-21,13:32:25,13:48:29,NA,incomplete,61,color,0,left,Red_Circle_Grid_2.jpg,Red_Plus_Stripes_3.jpg,Purple_Triangle_Chess_2.jpg,right,754,false,low,NA,NA,NA,NA,NA,NA,NA,false
j5Xzv1DU,32xn26mty2w7ui75x62r6ind7a7l00,32utubmz7k9dxuk30s6o2sdpb8qbvi,j5Xzv1DU,2020-0188,2020-05-21,13:32:25,13:48:29,NA,incomplete,62,color,1,right,Red_Plus_Grid_1.jpg,Purple_Star_Chess_1.jpg,Red_Circle_Dots_2.jpg,left,726,false,low,NA,NA,NA,NA,NA,NA,NA,false
j5Xzv1DU,32xn26mty2w7ui75x62r6ind7a7l00,32utubmz7k9dxuk30s6o2sdpb8qbvi,j5Xzv1DU,2020-0188,2020-05-21,13:32:25,13:48:29,NA,incomplete,63,color,1,left,Green_Star_Chess_2.jpg,Green_Circle_Grid_1.jpg,Red_Plus_Stripes_2.jpg,right,694,false,low,NA,NA,NA,NA,NA,NA,NA,false
j5Xzv1DU,32xn26mty2w7ui75x62r6ind7a7l00,32utubmz7k9dxuk30s6o2sdpb8qbvi,j5Xzv1DU,2020-0188,2020-05-21,13:32:25,13:48:29,NA,incomplete,64,color,1,right,Blue_Plus_Dots_1.jpg,Red_Star_Grid_1.jpg,Blue_Circle_Stripes_3.jpg,left,647,false,low,NA,NA,NA,NA,NA,NA,NA,false
j5Xzv1DU,32xn26mty2w7ui75x62r6ind7a7l00,32utubmz7k9dxuk30s6o2sdpb8qbvi,j5Xzv1DU,2020-0188,2020-05-21,13:32:25,13:48:29,NA,incomplete,65,color,1,right,Blue_Circle_Stripes_1.jpg,Purple_Plus_Grid_1.jpg,Blue_Triangle_Dots_4.jpg,right,769,true,low,NA,NA,NA,NA,NA,NA,NA,false
j5Xzv1DU,32xn26mty2w7ui75x62r6ind7a7l00,32utubmz7k9dxuk30s6o2sdpb8qbvi,j5Xzv1DU,2020-0188,2020-05-21,13:32:25,13:48:29,NA,incomplete,66,color,0,left,Purple_Circle_Stripes_4.jpg,Purple_Star_Grid_2.jpg,Blue_Plus_Chess_4.jpg,left,979,true,low,NA,NA,NA,NA,NA,NA,NA,false
j5Xzv1DU,32xn26mty2w7ui75x62r6ind7a7l00,32utubmz7k9dxuk30s6o2sdpb8qbvi,j5Xzv1DU,2020-0188,2020-05-21,13:32:25,13:48:29,NA,incomplete,67,color,1,right,Purple_Circle_Dots_4.jpg,Green_Star_Stripes_4.jpg,Purple_Triangle_Grid_1.jpg,right,1201,true,low,NA,NA,NA,NA,NA,NA,NA,false
j5Xzv1DU,32xn26mty2w7ui75x62r6ind7a7l00,32utubmz7k9dxuk30s6o2sdpb8qbvi,j5Xzv1DU,2020-0188,2020-05-21,13:32:25,13:48:29,NA,incomplete,68,color,1,right,Blue_Plus_Grid_1.jpg,Purple_Circle_Dots_1.jpg,Blue_Star_Chess_4.jpg,right,864,true,low,NA,NA,NA,NA,NA,NA,NA,false
j5Xzv1DU,32xn26mty2w7ui75x62r6ind7a7l00,32utubmz7k9dxuk30s6o2sdpb8qbvi,j5Xzv1DU,2020-0188,2020-05-21,13:32:25,13:48:29,NA,incomplete,69,color,0,right,Green_Circle_Grid_2.jpg,Purple_Triangle_Dots_2.jpg,Green_Star_Stripes_3.jpg,right,1046,true,low,NA,NA,NA,NA,NA,NA,NA,false
j5Xzv1DU,32xn26mty2w7ui75x62r6ind7a7l00,32utubmz7k9dxuk30s6o2sdpb8qbvi,j5Xzv1DU,2020-0188,2020-05-21,13:32:25,13:48:29,NA,incomplete,70,color,1,right,Purple_Triangle_Stripes_2.jpg,Blue_Star_Dots_2.jpg,Purple_Plus_Grid_4.jpg,right,734,true,low,NA,NA,NA,NA,NA,NA,NA,false
j5Xzv1DU,32xn26mty2w7ui75x62r6ind7a7l00,32utubmz7k9dxuk30s6o2sdpb8qbvi,j5Xzv1DU,2020-0188,2020-05-21,13:32:25,13:48:29,NA,incomplete,71,color,0,right,Blue_Plus_Grid_2.jpg,Green_Circle_Chess_2.jpg,Blue_Triangle_Dots_4.jpg,right,801,true,low,NA,NA,NA,NA,NA,NA,NA,false
j5Xzv1DU,32xn26mty2w7ui75x62r6ind7a7l00,32utubmz7k9dxuk30s6o2sdpb8qbvi,j5Xzv1DU,2020-0188,2020-05-21,13:32:25,13:48:29,NA,incomplete,72,color,1,left,Blue_Circle_Dots_2.jpg,Blue_Plus_Stripes_1.jpg,Purple_Star_Chess_2.jpg,left,936,true,low,NA,NA,NA,NA,NA,NA,NA,false
j5Xzv1DU,32xn26mty2w7ui75x62r6ind7a7l00,32utubmz7k9dxuk30s6o2sdpb8qbvi,j5Xzv1DU,2020-0188,2020-05-21,13:32:25,13:48:29,NA,incomplete,73,color,0,left,Purple_Star_Stripes_3.jpg,Purple_Circle_Dots_2.jpg,Blue_Triangle_Grid_3.jpg,left,1483,true,low,NA,NA,NA,NA,NA,NA,NA,false
j5Xzv1DU,32xn26mty2w7ui75x62r6ind7a7l00,32utubmz7k9dxuk30s6o2sdpb8qbvi,j5Xzv1DU,2020-0188,2020-05-21,13:32:25,13:48:29,NA,incomplete,74,color,1,left,Red_Plus_Stripes_4.jpg,Red_Circle_Grid_3.jpg,Green_Star_Dots_4.jpg,left,771,true,low,NA,NA,NA,NA,NA,NA,NA,false
j5Xzv1DU,32xn26mty2w7ui75x62r6ind7a7l00,32utubmz7k9dxuk30s6o2sdpb8qbvi,j5Xzv1DU,2020-0188,2020-05-21,13:32:25,13:48:29,NA,incomplete,75,color,1,left,Blue_Star_Grid_4.jpg,Blue_Triangle_Dots_2.jpg,Green_Plus_Chess_4.jpg,left,1024,true,low,NA,NA,NA,NA,NA,NA,NA,false
j5Xzv1DU,32xn26mty2w7ui75x62r6ind7a7l00,32utubmz7k9dxuk30s6o2sdpb8qbvi,j5Xzv1DU,2020-0188,2020-05-21,13:32:25,13:48:29,NA,incomplete,76,color,0,left,Red_Plus_Grid_3.jpg,Red_Circle_Chess_4.jpg,Blue_Star_Dots_3.jpg,left,756,true,low,NA,NA,NA,NA,NA,NA,NA,false
j5Xzv1DU,32xn26mty2w7ui75x62r6ind7a7l00,32utubmz7k9dxuk30s6o2sdpb8qbvi,j5Xzv1DU,2020-0188,2020-05-21,13:32:25,13:48:29,NA,incomplete,77,color,1,left,Red_Plus_Dots_4.jpg,Red_Circle_Grid_2.jpg,Purple_Star_Stripes_4.jpg,left,685,true,low,NA,NA,NA,NA,NA,NA,NA,false
j5Xzv1DU,32xn26mty2w7ui75x62r6ind7a7l00,32utubmz7k9dxuk30s6o2sdpb8qbvi,j5Xzv1DU,2020-0188,2020-05-21,13:32:25,13:48:29,NA,incomplete,78,color,1,left,Purple_Star_Grid_1.jpg,Purple_Triangle_Chess_3.jpg,Green_Plus_Dots_1.jpg,left,636,true,low,NA,NA,NA,NA,NA,NA,NA,false
j5Xzv1DU,32xn26mty2w7ui75x62r6ind7a7l00,32utubmz7k9dxuk30s6o2sdpb8qbvi,j5Xzv1DU,2020-0188,2020-05-21,13:32:25,13:48:29,NA,incomplete,79,color,0,left,Blue_Star_Stripes_4.jpg,Blue_Triangle_Grid_2.jpg,Purple_Circle_Dots_4.jpg,left,667,true,low,NA,NA,NA,NA,NA,NA,NA,false
j5Xzv1DU,32xn26mty2w7ui75x62r6ind7a7l00,32utubmz7k9dxuk30s6o2sdpb8qbvi,j5Xzv1DU,2020-0188,2020-05-21,13:32:25,13:48:29,NA,incomplete,80,color,1,right,Green_Triangle_Grid_3.jpg,Blue_Plus_Stripes_3.jpg,Green_Star_Dots_4.jpg,right,694,true,low,NA,NA,NA,NA,NA,NA,NA,false
j5Xzv1DU,32xn26mty2w7ui75x62r6ind7a7l00,32utubmz7k9dxuk30s6o2sdpb8qbvi,j5Xzv1DU,2020-0188,2020-05-21,13:32:25,13:48:29,NA,incomplete,81,color,1,left,Purple_Star_Stripes_2.jpg,Purple_Circle_Dots_3.jpg,Green_Plus_Grid_2.jpg,left,638,true,low,NA,NA,NA,NA,NA,NA,NA,false
j5Xzv1DU,32xn26mty2w7ui75x62r6ind7a7l00,32utubmz7k9dxuk30s6o2sdpb8qbvi,j5Xzv1DU,2020-0188,2020-05-21,13:32:25,13:48:29,NA,incomplete,82,color,0,right,Blue_Star_Grid_3.jpg,Purple_Triangle_Chess_3.jpg,Blue_Plus_Stripes_1.jpg,right,648,true,low,NA,NA,NA,NA,NA,NA,NA,false
j5Xzv1DU,32xn26mty2w7ui75x62r6ind7a7l00,32utubmz7k9dxuk30s6o2sdpb8qbvi,j5Xzv1DU,2020-0188,2020-05-21,13:32:25,13:48:29,NA,incomplete,83,color,1,left,Red_Plus_Chess_2.jpg,Red_Triangle_Dots_3.jpg,Green_Star_Grid_2.jpg,left,621,true,low,NA,NA,NA,NA,NA,NA,NA,false
j5Xzv1DU,32xn26mty2w7ui75x62r6ind7a7l00,32utubmz7k9dxuk30s6o2sdpb8qbvi,j5Xzv1DU,2020-0188,2020-05-21,13:32:25,13:48:29,NA,incomplete,84,color,1,left,Green_Star_Grid_1.jpg,Green_Circle_Chess_2.jpg,Purple_Plus_Dots_1.jpg,left,683,true,low,NA,NA,NA,NA,NA,NA,NA,false
j5Xzv1DU,32xn26mty2w7ui75x62r6ind7a7l00,32utubmz7k9dxuk30s6o2sdpb8qbvi,j5Xzv1DU,2020-0188,2020-05-21,13:32:25,13:48:29,NA,incomplete,85,color,0,left,Blue_Circle_Grid_3.jpg,Blue_Triangle_Chess_4.jpg,Purple_Star_Stripes_3.jpg,left,659,true,low,NA,NA,NA,NA,NA,NA,NA,false
j5Xzv1DU,32xn26mty2w7ui75x62r6ind7a7l00,32utubmz7k9dxuk30s6o2sdpb8qbvi,j5Xzv1DU,2020-0188,2020-05-21,13:32:25,13:48:29,NA,incomplete,86,color,0,left,Green_Plus_Dots_4.jpg,Green_Circle_Chess_2.jpg,Purple_Triangle_Stripes_4.jpg,left,637,true,low,NA,NA,NA,NA,NA,NA,NA,false
j5Xzv1DU,32xn26mty2w7ui75x62r6ind7a7l00,32utubmz7k9dxuk30s6o2sdpb8qbvi,j5Xzv1DU,2020-0188,2020-05-21,13:32:25,13:48:29,NA,incomplete,87,color,1,left,Green_Star_Dots_1.jpg,Green_Circle_Chess_4.jpg,Red_Triangle_Stripes_1.jpg,right,1065,false,low,NA,NA,NA,NA,NA,NA,NA,false
j5Xzv1DU,32xn26mty2w7ui75x62r6ind7a7l00,32utubmz7k9dxuk30s6o2sdpb8qbvi,j5Xzv1DU,2020-0188,2020-05-21,13:32:25,13:48:29,NA,incomplete,88,color,1,right,Purple_Triangle_Chess_4.jpg,Blue_Star_Dots_4.jpg,Purple_Plus_Grid_1.jpg,left,793,false,low,NA,NA,NA,NA,NA,NA,NA,false
j5Xzv1DU,32xn26mty2w7ui75x62r6ind7a7l00,32utubmz7k9dxuk30s6o2sdpb8qbvi,j5Xzv1DU,2020-0188,2020-05-21,13:32:25,13:48:29,NA,incomplete,89,color,1,left,Red_Triangle_Chess_1.jpg,Red_Plus_Grid_3.jpg,Purple_Star_Dots_1.jpg,left,681,true,low,NA,NA,NA,NA,NA,NA,NA,false
j5Xzv1DU,32xn26mty2w7ui75x62r6ind7a7l00,32utubmz7k9dxuk30s6o2sdpb8qbvi,j5Xzv1DU,2020-0188,2020-05-21,13:32:25,13:48:29,NA,incomplete,90,number,1,right,Purple_Plus_Grid_1.jpg,Purple_Star_Chess_3.jpg,Red_Circle_Dots_1.jpg,left,614,false,low,NA,NA,NA,NA,NA,NA,NA,false
j5Xzv1DU,32xn26mty2w7ui75x62r6ind7a7l00,32utubmz7k9dxuk30s6o2sdpb8qbvi,j5Xzv1DU,2020-0188,2020-05-21,13:32:25,13:48:29,NA,incomplete,91,number,1,left,Red_Plus_Grid_4.jpg,Green_Star_Chess_4.jpg,Red_Circle_Stripes_2.jpg,right,1047,false,low,NA,NA,NA,NA,NA,NA,NA,false
j5Xzv1DU,32xn26mty2w7ui75x62r6ind7a7l00,32utubmz7k9dxuk30s6o2sdpb8qbvi,j5Xzv1DU,2020-0188,2020-05-21,13:32:25,13:48:29,NA,incomplete,92,number,1,right,Green_Plus_Dots_3.jpg,Green_Triangle_Chess_1.jpg,Purple_Circle_Grid_3.jpg,left,755,false,low,NA,NA,NA,NA,NA,NA,NA,false
j5Xzv1DU,32xn26mty2w7ui75x62r6ind7a7l00,32utubmz7k9dxuk30s6o2sdpb8qbvi,j5Xzv1DU,2020-0188,2020-05-21,13:32:25,13:48:29,NA,incomplete,93,number,1,right,Purple_Star_Dots_3.jpg,Purple_Plus_Grid_4.jpg,Blue_Triangle_Chess_3.jpg,right,810,true,low,NA,NA,NA,NA,NA,NA,NA,false
j5Xzv1DU,32xn26mty2w7ui75x62r6ind7a7l00,32utubmz7k9dxuk30s6o2sdpb8qbvi,j5Xzv1DU,2020-0188,2020-05-21,13:32:25,13:48:29,NA,incomplete,94,number,1,left,Purple_Circle_Dots_1.jpg,Green_Star_Grid_1.jpg,Purple_Triangle_Chess_3.jpg,left,654,true,low,NA,NA,NA,NA,NA,NA,NA,false
j5Xzv1DU,32xn26mty2w7ui75x62r6ind7a7l00,32utubmz7k9dxuk30s6o2sdpb8qbvi,j5Xzv1DU,2020-0188,2020-05-21,13:32:25,13:48:29,NA,incomplete,95,number,1,right,Green_Plus_Stripes_3.jpg,Green_Triangle_Grid_4.jpg,Purple_Star_Chess_3.jpg,right,952,true,low,NA,NA,NA,NA,NA,NA,NA,false
j5Xzv1DU,32xn26mty2w7ui75x62r6ind7a7l00,32utubmz7k9dxuk30s6o2sdpb8qbvi,j5Xzv1DU,2020-0188,2020-05-21,13:32:25,13:48:29,NA,incomplete,96,number,1,right,Green_Circle_Grid_2.jpg,Green_Star_Dots_3.jpg,Purple_Triangle_Chess_2.jpg,right,602,true,low,NA,NA,NA,NA,NA,NA,NA,false
j5Xzv1DU,32xn26mty2w7ui75x62r6ind7a7l00,32utubmz7k9dxuk30s6o2sdpb8qbvi,j5Xzv1DU,2020-0188,2020-05-21,13:32:25,13:48:29,NA,incomplete,97,number,1,left,Purple_Star_Grid_2.jpg,Red_Plus_Stripes_2.jpg,Purple_Triangle_Dots_3.jpg,left,616,true,low,NA,NA,NA,NA,NA,NA,NA,false
j5Xzv1DU,32xn26mty2w7ui75x62r6ind7a7l00,32utubmz7k9dxuk30s6o2sdpb8qbvi,j5Xzv1DU,2020-0188,2020-05-21,13:32:25,13:48:29,NA,incomplete,98,number,1,right,Blue_Star_Dots_1.jpg,Blue_Triangle_Stripes_3.jpg,Purple_Circle_Grid_1.jpg,right,723,true,low,NA,NA,NA,NA,NA,NA,NA,false
j5Xzv1DU,32xn26mty2w7ui75x62r6ind7a7l00,32utubmz7k9dxuk30s6o2sdpb8qbvi,j5Xzv1DU,2020-0188,2020-05-21,13:32:25,13:48:29,NA,incomplete,99,number,1,right,Green_Circle_Dots_1.jpg,Green_Star_Stripes_4.jpg,Red_Plus_Chess_1.jpg,right,670,true,low,NA,NA,NA,NA,NA,NA,NA,false
j5Xzv1DU,32xn26mty2w7ui75x62r6ind7a7l00,32utubmz7k9dxuk30s6o2sdpb8qbvi,j5Xzv1DU,2020-0188,2020-05-21,13:32:25,13:48:29,NA,incomplete,100,number,0,right,Blue_Star_Stripes_4.jpg,Blue_Plus_Dots_2.jpg,Red_Circle_Chess_4.jpg,right,654,true,low,NA,NA,NA,NA,NA,NA,NA,false
j5Xzv1DU,32xn26mty2w7ui75x62r6ind7a7l00,32utubmz7k9dxuk30s6o2sdpb8qbvi,j5Xzv1DU,2020-0188,2020-05-21,13:32:25,13:48:29,NA,incomplete,101,number,1,left,Red_Plus_Chess_3.jpg,Green_Star_Dots_3.jpg,Red_Triangle_Stripes_2.jpg,left,674,true,low,NA,NA,NA,NA,NA,NA,NA,false
j5Xzv1DU,32xn26mty2w7ui75x62r6ind7a7l00,32utubmz7k9dxuk30s6o2sdpb8qbvi,j5Xzv1DU,2020-0188,2020-05-21,13:32:25,13:48:29,NA,incomplete,102,number,1,right,Red_Triangle_Stripes_3.jpg,Red_Star_Chess_4.jpg,Purple_Plus_Grid_3.jpg,right,636,true,low,NA,NA,NA,NA,NA,NA,NA,false
j5Xzv1DU,32xn26mty2w7ui75x62r6ind7a7l00,32utubmz7k9dxuk30s6o2sdpb8qbvi,j5Xzv1DU,2020-0188,2020-05-21,13:32:25,13:48:29,NA,incomplete,103,number,0,right,Blue_Triangle_Grid_3.jpg,Blue_Circle_Dots_2.jpg,Red_Star_Stripes_3.jpg,right,659,true,low,NA,NA,NA,NA,NA,NA,NA,false
j5Xzv1DU,32xn26mty2w7ui75x62r6ind7a7l00,32utubmz7k9dxuk30s6o2sdpb8qbvi,j5Xzv1DU,2020-0188,2020-05-21,13:32:25,13:48:29,NA,incomplete,104,number,1,right,Purple_Plus_Stripes_2.jpg,Purple_Circle_Chess_3.jpg,Red_Star_Grid_2.jpg,right,645,true,low,NA,NA,NA,NA,NA,NA,NA,false
j5Xzv1DU,32xn26mty2w7ui75x62r6ind7a7l00,32utubmz7k9dxuk30s6o2sdpb8qbvi,j5Xzv1DU,2020-0188,2020-05-21,13:32:25,13:48:29,NA,incomplete,105,number,1,left,Green_Star_Chess_2.jpg,Blue_Circle_Grid_2.jpg,Green_Triangle_Dots_4.jpg,left,562,true,low,NA,NA,NA,NA,NA,NA,NA,false
j5Xzv1DU,32xn26mty2w7ui75x62r6ind7a7l00,32utubmz7k9dxuk30s6o2sdpb8qbvi,j5Xzv1DU,2020-0188,2020-05-21,13:32:25,13:48:29,NA,incomplete,106,number,1,right,Red_Triangle_Chess_4.jpg,Red_Plus_Dots_2.jpg,Blue_Circle_Stripes_4.jpg,right,740,true,low,NA,NA,NA,NA,NA,NA,NA,false
j5Xzv1DU,32xn26mty2w7ui75x62r6ind7a7l00,32utubmz7k9dxuk30s6o2sdpb8qbvi,j5Xzv1DU,2020-0188,2020-05-21,13:32:25,13:48:29,NA,incomplete,107,number,0,right,Green_Plus_Chess_1.jpg,Green_Circle_Stripes_4.jpg,Purple_Star_Dots_1.jpg,right,564,true,low,NA,NA,NA,NA,NA,NA,NA,false
j5Xzv1DU,32xn26mty2w7ui75x62r6ind7a7l00,32utubmz7k9dxuk30s6o2sdpb8qbvi,j5Xzv1DU,2020-0188,2020-05-21,13:32:25,13:48:29,NA,incomplete,108,number,1,left,Green_Star_Dots_3.jpg,Blue_Circle_Chess_3.jpg,Green_Triangle_Stripes_2.jpg,left,536,true,low,NA,NA,NA,NA,NA,NA,NA,false
j5Xzv1DU,32xn26mty2w7ui75x62r6ind7a7l00,32utubmz7k9dxuk30s6o2sdpb8qbvi,j5Xzv1DU,2020-0188,2020-05-21,13:32:25,13:48:29,NA,incomplete,109,number,0,left,Blue_Star_Chess_4.jpg,Purple_Triangle_Grid_4.jpg,Blue_Plus_Stripes_2.jpg,left,1050,true,low,NA,NA,NA,NA,NA,NA,NA,false
j5Xzv1DU,32xn26mty2w7ui75x62r6ind7a7l00,32utubmz7k9dxuk30s6o2sdpb8qbvi,j5Xzv1DU,2020-0188,2020-05-21,13:32:25,13:48:29,NA,incomplete,110,number,0,left,Blue_Circle_Dots_2.jpg,Purple_Plus_Chess_2.jpg,Blue_Triangle_Stripes_4.jpg,left,828,true,low,NA,NA,NA,NA,NA,NA,NA,false
j5Xzv1DU,32xn26mty2w7ui75x62r6ind7a7l00,32utubmz7k9dxuk30s6o2sdpb8qbvi,j5Xzv1DU,2020-0188,2020-05-21,13:32:25,13:48:29,NA,incomplete,111,number,1,left,Purple_Circle_Dots_3.jpg,Green_Star_Chess_3.jpg,Purple_Triangle_Grid_1.jpg,right,583,false,low,NA,NA,NA,NA,NA,NA,NA,false
j5Xzv1DU,32xn26mty2w7ui75x62r6ind7a7l00,32utubmz7k9dxuk30s6o2sdpb8qbvi,j5Xzv1DU,2020-0188,2020-05-21,13:32:25,13:48:29,NA,incomplete,112,number,1,left,Red_Triangle_Stripes_4.jpg,Purple_Plus_Dots_4.jpg,Red_Circle_Chess_3.jpg,right,673,false,low,NA,NA,NA,NA,NA,NA,NA,false
j5Xzv1DU,32xn26mty2w7ui75x62r6ind7a7l00,32utubmz7k9dxuk30s6o2sdpb8qbvi,j5Xzv1DU,2020-0188,2020-05-21,13:32:25,13:48:29,NA,incomplete,113,number,1,right,Green_Triangle_Dots_1.jpg,Green_Star_Stripes_4.jpg,Blue_Circle_Chess_1.jpg,right,656,true,low,NA,NA,NA,NA,NA,NA,NA,false
j5Xzv1DU,32xn26mty2w7ui75x62r6ind7a7l00,32utubmz7k9dxuk30s6o2sdpb8qbvi,j5Xzv1DU,2020-0188,2020-05-21,13:32:25,13:48:29,NA,incomplete,114,number,1,left,Purple_Triangle_Stripes_2.jpg,Green_Star_Dots_2.jpg,Purple_Plus_Grid_1.jpg,left,719,true,low,NA,NA,NA,NA,NA,NA,NA,false
j5Xzv1DU,32xn26mty2w7ui75x62r6ind7a7l00,32utubmz7k9dxuk30s6o2sdpb8qbvi,j5Xzv1DU,2020-0188,2020-05-21,13:32:25,13:48:29,NA,incomplete,115,number,1,right,Red_Star_Grid_2.jpg,Red_Plus_Stripes_1.jpg,Blue_Triangle_Chess_2.jpg,right,632,true,low,NA,NA,NA,NA,NA,NA,NA,false
j5Xzv1DU,32xn26mty2w7ui75x62r6ind7a7l00,32utubmz7k9dxuk30s6o2sdpb8qbvi,j5Xzv1DU,2020-0188,2020-05-21,13:32:25,13:48:29,NA,incomplete,116,number,1,right,Purple_Star_Grid_3.jpg,Purple_Triangle_Dots_4.jpg,Blue_Circle_Stripes_3.jpg,right,644,true,low,NA,NA,NA,NA,NA,NA,NA,false
j5Xzv1DU,32xn26mty2w7ui75x62r6ind7a7l00,32utubmz7k9dxuk30s6o2sdpb8qbvi,j5Xzv1DU,2020-0188,2020-05-21,13:32:25,13:48:29,NA,incomplete,117,number,1,left,Purple_Triangle_Chess_3.jpg,Green_Plus_Grid_3.jpg,Purple_Circle_Stripes_4.jpg,left,524,true,low,NA,NA,NA,NA,NA,NA,NA,false
j5Xzv1DU,32xn26mty2w7ui75x62r6ind7a7l00,32utubmz7k9dxuk30s6o2sdpb8qbvi,j5Xzv1DU,2020-0188,2020-05-21,13:32:25,13:48:29,NA,incomplete,118,number,1,right,Green_Circle_Dots_2.jpg,Green_Star_Stripes_1.jpg,Blue_Plus_Chess_2.jpg,right,586,true,low,NA,NA,NA,NA,NA,NA,NA,false
j5Xzv1DU,32xn26mty2w7ui75x62r6ind7a7l00,32utubmz7k9dxuk30s6o2sdpb8qbvi,j5Xzv1DU,2020-0188,2020-05-21,13:32:25,13:48:29,NA,incomplete,119,number,1,left,Purple_Triangle_Stripes_4.jpg,Green_Plus_Chess_4.jpg,Purple_Star_Grid_2.jpg,left,1427,true,low,NA,NA,NA,NA,NA,NA,NA,false
j5Xzv1DU,32xn26mty2w7ui75x62r6ind7a7l00,32utubmz7k9dxuk30s6o2sdpb8qbvi,j5Xzv1DU,2020-0188,2020-05-21,13:32:25,13:48:29,NA,incomplete,120,shape,1,left,Purple_Plus_Dots_4.jpg,Blue_Plus_Grid_2.jpg,Red_Star_Dots_1.jpg,NA,NA,NA,low,NA,NA,NA,NA,NA,NA,NA,false
j5Xzv1DU,32xn26mty2w7ui75x62r6ind7a7l00,32utubmz7k9dxuk30s6o2sdpb8qbvi,j5Xzv1DU,2020-0188,2020-05-21,13:32:25,13:48:29,NA,incomplete,121,shape,0,right,Purple_Star_Stripes_4.jpg,Red_Triangle_Stripes_3.jpg,Blue_Star_Dots_1.jpg,right,1805,true,low,NA,NA,NA,NA,NA,NA,NA,false
j5Xzv1DU,32xn26mty2w7ui75x62r6ind7a7l00,32utubmz7k9dxuk30s6o2sdpb8qbvi,j5Xzv1DU,2020-0188,2020-05-21,13:32:25,13:48:29,NA,incomplete,122,shape,1,right,Green_Triangle_Stripes_2.jpg,Purple_Star_Stripes_1.jpg,Blue_Triangle_Chess_4.jpg,right,1203,true,low,NA,NA,NA,NA,NA,NA,NA,false
j5Xzv1DU,32xn26mty2w7ui75x62r6ind7a7l00,32utubmz7k9dxuk30s6o2sdpb8qbvi,j5Xzv1DU,2020-0188,2020-05-21,13:32:25,13:48:29,NA,incomplete,123,shape,1,left,Purple_Star_Dots_2.jpg,Green_Star_Chess_3.jpg,Blue_Circle_Dots_4.jpg,right,1383,false,low,NA,NA,NA,NA,NA,NA,NA,false
j5Xzv1DU,32xn26mty2w7ui75x62r6ind7a7l00,32utubmz7k9dxuk30s6o2sdpb8qbvi,j5Xzv1DU,2020-0188,2020-05-21,13:32:25,13:48:29,NA,incomplete,124,shape,1,right,Purple_Star_Grid_2.jpg,Blue_Plus_Grid_3.jpg,Green_Star_Chess_1.jpg,left,1233,false,low,NA,NA,NA,NA,NA,NA,NA,false
j5Xzv1DU,32xn26mty2w7ui75x62r6ind7a7l00,32utubmz7k9dxuk30s6o2sdpb8qbvi,j5Xzv1DU,2020-0188,2020-05-21,13:32:25,13:48:29,NA,incomplete,125,shape,0,left,Purple_Circle_Dots_1.jpg,Blue_Circle_Stripes_4.jpg,Green_Triangle_Dots_3.jpg,left,814,true,low,NA,NA,NA,NA,NA,NA,NA,false
j5Xzv1DU,32xn26mty2w7ui75x62r6ind7a7l00,32utubmz7k9dxuk30s6o2sdpb8qbvi,j5Xzv1DU,2020-0188,2020-05-21,13:32:25,13:48:29,NA,incomplete,126,shape,1,left,Red_Plus_Dots_4.jpg,Green_Plus_Chess_3.jpg,Purple_Circle_Dots_1.jpg,right,1067,false,low,NA,NA,NA,NA,NA,NA,NA,false
j5Xzv1DU,32xn26mty2w7ui75x62r6ind7a7l00,32utubmz7k9dxuk30s6o2sdpb8qbvi,j5Xzv1DU,2020-0188,2020-05-21,13:32:25,13:48:29,NA,incomplete,127,shape,1,left,Red_Plus_Stripes_1.jpg,Purple_Plus_Grid_4.jpg,Green_Triangle_Stripes_2.jpg,left,844,true,low,NA,NA,NA,NA,NA,NA,NA,false
j5Xzv1DU,32xn26mty2w7ui75x62r6ind7a7l00,32utubmz7k9dxuk30s6o2sdpb8qbvi,j5Xzv1DU,2020-0188,2020-05-21,13:32:25,13:48:29,NA,incomplete,128,shape,0,right,Purple_Circle_Grid_2.jpg,Red_Plus_Grid_3.jpg,Blue_Circle_Stripes_1.jpg,right,576,true,low,NA,NA,NA,NA,NA,NA,NA,false
j5Xzv1DU,32xn26mty2w7ui75x62r6ind7a7l00,32utubmz7k9dxuk30s6o2sdpb8qbvi,j5Xzv1DU,2020-0188,2020-05-21,13:32:25,13:48:29,NA,incomplete,129,shape,1,left,Blue_Circle_Stripes_4.jpg,Green_Circle_Grid_3.jpg,Red_Star_Stripes_2.jpg,left,714,true,low,NA,NA,NA,NA,NA,NA,NA,false
j5Xzv1DU,32xn26mty2w7ui75x62r6ind7a7l00,32utubmz7k9dxuk30s6o2sdpb8qbvi,j5Xzv1DU,2020-0188,2020-05-21,13:32:25,13:48:29,NA,incomplete,130,shape,1,left,Purple_Circle_Chess_3.jpg,Blue_Circle_Dots_2.jpg,Green_Plus_Chess_1.jpg,left,757,true,low,NA,NA,NA,NA,NA,NA,NA,false
j5Xzv1DU,32xn26mty2w7ui75x62r6ind7a7l00,32utubmz7k9dxuk30s6o2sdpb8qbvi,j5Xzv1DU,2020-0188,2020-05-21,13:32:25,13:48:29,NA,incomplete,131,shape,0,left,Purple_Circle_Stripes_4.jpg,Red_Circle_Grid_3.jpg,Blue_Triangle_Stripes_1.jpg,left,657,true,low,NA,NA,NA,NA,NA,NA,NA,false
j5Xzv1DU,32xn26mty2w7ui75x62r6ind7a7l00,32utubmz7k9dxuk30s6o2sdpb8qbvi,j5Xzv1DU,2020-0188,2020-05-21,13:32:25,13:48:29,NA,incomplete,132,shape,1,right,Red_Circle_Chess_1.jpg,Blue_Plus_Chess_3.jpg,Green_Circle_Dots_2.jpg,right,1289,true,low,NA,NA,NA,NA,NA,NA,NA,false
j5Xzv1DU,32xn26mty2w7ui75x62r6ind7a7l00,32utubmz7k9dxuk30s6o2sdpb8qbvi,j5Xzv1DU,2020-0188,2020-05-21,13:32:25,13:48:29,NA,incomplete,133,shape,0,right,Purple_Triangle_Chess_3.jpg,Green_Star_Chess_4.jpg,Blue_Triangle_Grid_1.jpg,right,1047,true,low,NA,NA,NA,NA,NA,NA,NA,false
j5Xzv1DU,32xn26mty2w7ui75x62r6ind7a7l00,32utubmz7k9dxuk30s6o2sdpb8qbvi,j5Xzv1DU,2020-0188,2020-05-21,13:32:25,13:48:29,NA,incomplete,134,shape,1,left,Green_Plus_Dots_1.jpg,Red_Plus_Stripes_4.jpg,Purple_Circle_Dots_3.jpg,right,1117,false,low,NA,NA,NA,NA,NA,NA,NA,false
j5Xzv1DU,32xn26mty2w7ui75x62r6ind7a7l00,32utubmz7k9dxuk30s6o2sdpb8qbvi,j5Xzv1DU,2020-0188,2020-05-21,13:32:25,13:48:29,NA,incomplete,135,shape,1,right,Blue_Star_Chess_1.jpg,Red_Plus_Chess_2.jpg,Purple_Star_Dots_3.jpg,left,991,false,low,NA,NA,NA,NA,NA,NA,NA,false
j5Xzv1DU,32xn26mty2w7ui75x62r6ind7a7l00,32utubmz7k9dxuk30s6o2sdpb8qbvi,j5Xzv1DU,2020-0188,2020-05-21,13:32:25,13:48:29,NA,incomplete,136,shape,1,left,Purple_Star_Chess_1.jpg,Red_Star_Grid_2.jpg,Blue_Triangle_Chess_4.jpg,right,898,false,low,NA,NA,NA,NA,NA,NA,NA,false
j5Xzv1DU,32xn26mty2w7ui75x62r6ind7a7l00,32utubmz7k9dxuk30s6o2sdpb8qbvi,j5Xzv1DU,2020-0188,2020-05-21,13:32:25,13:48:29,NA,incomplete,137,shape,1,left,Purple_Circle_Stripes_1.jpg,Red_Circle_Dots_4.jpg,Blue_Star_Stripes_3.jpg,left,794,true,low,NA,NA,NA,NA,NA,NA,NA,false
j5Xzv1DU,32xn26mty2w7ui75x62r6ind7a7l00,32utubmz7k9dxuk30s6o2sdpb8qbvi,j5Xzv1DU,2020-0188,2020-05-21,13:32:25,13:48:29,NA,incomplete,138,shape,0,left,Red_Circle_Stripes_3.jpg,Purple_Circle_Grid_4.jpg,Green_Star_Stripes_2.jpg,left,539,true,low,NA,NA,NA,NA,NA,NA,NA,false
j5Xzv1DU,32xn26mty2w7ui75x62r6ind7a7l00,32utubmz7k9dxuk30s6o2sdpb8qbvi,j5Xzv1DU,2020-0188,2020-05-21,13:32:25,13:48:29,NA,incomplete,139,shape,1,right,Red_Plus_Grid_4.jpg,Green_Triangle_Grid_2.jpg,Blue_Plus_Dots_1.jpg,right,784,true,low,NA,NA,NA,NA,NA,NA,NA,false
j5Xzv1DU,32xn26mty2w7ui75x62r6ind7a7l00,32utubmz7k9dxuk30s6o2sdpb8qbvi,j5Xzv1DU,2020-0188,2020-05-21,13:32:25,13:48:29,NA,incomplete,140,filling,1,left,Green_Star_Grid_2.jpg,Red_Triangle_Grid_4.jpg,Purple_Star_Stripes_1.jpg,right,736,false,low,NA,NA,NA,NA,NA,NA,NA,false
j5Xzv1DU,32xn26mty2w7ui75x62r6ind7a7l00,32utubmz7k9dxuk30s6o2sdpb8qbvi,j5Xzv1DU,2020-0188,2020-05-21,13:32:25,13:48:29,NA,incomplete,141,filling,1,right,Blue_Plus_Dots_4.jpg,Red_Plus_Chess_1.jpg,Purple_Triangle_Dots_2.jpg,left,788,false,low,NA,NA,NA,NA,NA,NA,NA,false
j5Xzv1DU,32xn26mty2w7ui75x62r6ind7a7l00,32utubmz7k9dxuk30s6o2sdpb8qbvi,j5Xzv1DU,2020-0188,2020-05-21,13:32:25,13:48:29,NA,incomplete,142,filling,1,right,Green_Plus_Grid_4.jpg,Purple_Plus_Chess_3.jpg,Blue_Triangle_Grid_2.jpg,right,989,true,low,NA,NA,NA,NA,NA,NA,NA,false
j5Xzv1DU,32xn26mty2w7ui75x62r6ind7a7l00,32utubmz7k9dxuk30s6o2sdpb8qbvi,j5Xzv1DU,2020-0188,2020-05-21,13:32:25,13:48:29,NA,incomplete,143,filling,1,left,Purple_Triangle_Dots_2.jpg,Red_Star_Dots_4.jpg,Blue_Triangle_Chess_3.jpg,left,1016,true,low,NA,NA,NA,NA,NA,NA,NA,false
j5Xzv1DU,32xn26mty2w7ui75x62r6ind7a7l00,32utubmz7k9dxuk30s6o2sdpb8qbvi,j5Xzv1DU,2020-0188,2020-05-21,13:32:25,13:48:29,NA,incomplete,144,filling,1,right,Green_Star_Dots_2.jpg,Purple_Star_Chess_3.jpg,Blue_Circle_Dots_1.jpg,right,1076,true,low,NA,NA,NA,NA,NA,NA,NA,false
j5Xzv1DU,32xn26mty2w7ui75x62r6ind7a7l00,32utubmz7k9dxuk30s6o2sdpb8qbvi,j5Xzv1DU,2020-0188,2020-05-21,13:32:25,13:48:29,NA,incomplete,145,filling,0,left,Blue_Circle_Chess_2.jpg,Green_Star_Chess_4.jpg,Purple_Circle_Grid_3.jpg,left,979,true,low,NA,NA,NA,NA,NA,NA,NA,false
j5Xzv1DU,32xn26mty2w7ui75x62r6ind7a7l00,32utubmz7k9dxuk30s6o2sdpb8qbvi,j5Xzv1DU,2020-0188,2020-05-21,13:32:25,13:48:29,NA,incomplete,146,filling,1,right,Green_Star_Grid_2.jpg,Red_Star_Chess_1.jpg,Blue_Plus_Grid_4.jpg,right,889,true,low,NA,NA,NA,NA,NA,NA,NA,false
j5Xzv1DU,32xn26mty2w7ui75x62r6ind7a7l00,32utubmz7k9dxuk30s6o2sdpb8qbvi,j5Xzv1DU,2020-0188,2020-05-21,13:32:25,13:48:29,NA,incomplete,147,filling,1,right,Green_Plus_Chess_3.jpg,Red_Plus_Grid_1.jpg,Blue_Triangle_Chess_2.jpg,right,975,true,low,NA,NA,NA,NA,NA,NA,NA,false
j5Xzv1DU,32xn26mty2w7ui75x62r6ind7a7l00,32utubmz7k9dxuk30s6o2sdpb8qbvi,j5Xzv1DU,2020-0188,2020-05-21,13:32:25,13:48:29,NA,incomplete,148,filling,1,right,Green_Circle_Chess_2.jpg,Red_Circle_Stripes_1.jpg,Purple_Star_Chess_3.jpg,right,879,true,low,NA,NA,NA,NA,NA,NA,NA,false
j5Xzv1DU,32xn26mty2w7ui75x62r6ind7a7l00,32utubmz7k9dxuk30s6o2sdpb8qbvi,j5Xzv1DU,2020-0188,2020-05-21,13:32:25,13:48:29,NA,incomplete,149,filling,1,right,Blue_Triangle_Dots_2.jpg,Red_Triangle_Chess_1.jpg,Purple_Star_Dots_3.jpg,right,839,true,low,NA,NA,NA,NA,NA,NA,NA,false
j5Xzv1DU,32xn26mty2w7ui75x62r6ind7a7l00,32utubmz7k9dxuk30s6o2sdpb8qbvi,j5Xzv1DU,2020-0188,2020-05-21,13:32:25,13:48:29,NA,incomplete,150,filling,1,left,Blue_Triangle_Dots_3.jpg,Green_Plus_Dots_1.jpg,Red_Triangle_Grid_2.jpg,right,763,false,low,NA,NA,NA,NA,NA,NA,NA,false
j5Xzv1DU,32xn26mty2w7ui75x62r6ind7a7l00,32utubmz7k9dxuk30s6o2sdpb8qbvi,j5Xzv1DU,2020-0188,2020-05-21,13:32:25,13:48:29,NA,incomplete,151,filling,1,left,Purple_Triangle_Stripes_2.jpg,Green_Star_Stripes_1.jpg,Blue_Triangle_Dots_4.jpg,left,975,true,low,NA,NA,NA,NA,NA,NA,NA,false
j5Xzv1DU,32xn26mty2w7ui75x62r6ind7a7l00,32utubmz7k9dxuk30s6o2sdpb8qbvi,j5Xzv1DU,2020-0188,2020-05-21,13:32:25,13:48:29,NA,incomplete,152,filling,1,left,Green_Triangle_Stripes_3.jpg,Blue_Star_Stripes_1.jpg,Purple_Triangle_Dots_4.jpg,left,942,true,low,NA,NA,NA,NA,NA,NA,NA,false
j5Xzv1DU,32xn26mty2w7ui75x62r6ind7a7l00,32utubmz7k9dxuk30s6o2sdpb8qbvi,j5Xzv1DU,2020-0188,2020-05-21,13:32:25,13:48:29,NA,incomplete,153,filling,0,right,Blue_Circle_Chess_3.jpg,Purple_Circle_Grid_4.jpg,Red_Star_Chess_2.jpg,right,794,true,low,NA,NA,NA,NA,NA,NA,NA,false
j5Xzv1DU,32xn26mty2w7ui75x62r6ind7a7l00,32utubmz7k9dxuk30s6o2sdpb8qbvi,j5Xzv1DU,2020-0188,2020-05-21,13:32:25,13:48:29,NA,incomplete,154,filling,1,right,Purple_Plus_Dots_4.jpg,Green_Plus_Stripes_3.jpg,Blue_Triangle_Dots_2.jpg,right,880,true,low,NA,NA,NA,NA,NA,NA,NA,false
j5Xzv1DU,32xn26mty2w7ui75x62r6ind7a7l00,32utubmz7k9dxuk30s6o2sdpb8qbvi,j5Xzv1DU,2020-0188,2020-05-21,13:32:25,13:48:29,NA,incomplete,155,filling,1,left,Purple_Plus_Grid_3.jpg,Blue_Star_Grid_2.jpg,Green_Plus_Dots_1.jpg,left,1039,true,low,NA,NA,NA,NA,NA,NA,NA,false
j5Xzv1DU,32xn26mty2w7ui75x62r6ind7a7l00,32utubmz7k9dxuk30s6o2sdpb8qbvi,j5Xzv1DU,2020-0188,2020-05-21,13:32:25,13:48:29,NA,incomplete,156,filling,1,left,Red_Triangle_Dots_4.jpg,Blue_Circle_Dots_3.jpg,Green_Triangle_Grid_1.jpg,left,841,true,low,NA,NA,NA,NA,NA,NA,NA,false
j5Xzv1DU,32xn26mty2w7ui75x62r6ind7a7l00,32utubmz7k9dxuk30s6o2sdpb8qbvi,j5Xzv1DU,2020-0188,2020-05-21,13:32:25,13:48:29,NA,incomplete,157,filling,1,right,Purple_Star_Dots_3.jpg,Green_Star_Stripes_4.jpg,Blue_Plus_Dots_1.jpg,right,905,true,low,NA,NA,NA,NA,NA,NA,NA,false
j5Xzv1DU,32xn26mty2w7ui75x62r6ind7a7l00,32utubmz7k9dxuk30s6o2sdpb8qbvi,j5Xzv1DU,2020-0188,2020-05-21,13:32:25,13:48:29,NA,incomplete,158,filling,0,right,Green_Triangle_Dots_1.jpg,Red_Triangle_Stripes_4.jpg,Blue_Circle_Dots_2.jpg,right,840,true,low,NA,NA,NA,NA,NA,NA,NA,false
j5Xzv1DU,32xn26mty2w7ui75x62r6ind7a7l00,32utubmz7k9dxuk30s6o2sdpb8qbvi,j5Xzv1DU,2020-0188,2020-05-21,13:32:25,13:48:29,NA,incomplete,159,filling,1,left,Blue_Circle_Grid_4.jpg,Purple_Triangle_Grid_2.jpg,Red_Circle_Chess_3.jpg,left,1019,true,low,NA,NA,NA,NA,NA,NA,NA,false
j5Xzv1DU,32xn26mty2w7ui75x62r6ind7a7l00,32utubmz7k9dxuk30s6o2sdpb8qbvi,j5Xzv1DU,2020-0188,2020-05-21,13:32:25,13:48:29,NA,incomplete,160,shape,1,right,Blue_Triangle_Dots_1.jpg,Purple_Circle_Dots_2.jpg,Red_Triangle_Chess_4.jpg,left,929,false,low,NA,NA,NA,NA,NA,NA,NA,false
j5Xzv1DU,32xn26mty2w7ui75x62r6ind7a7l00,32utubmz7k9dxuk30s6o2sdpb8qbvi,j5Xzv1DU,2020-0188,2020-05-21,13:32:25,13:48:29,NA,incomplete,161,shape,1,right,Green_Triangle_Stripes_1.jpg,Purple_Circle_Stripes_4.jpg,Red_Triangle_Grid_3.jpg,left,911,false,low,NA,NA,NA,NA,NA,NA,NA,false
j5Xzv1DU,32xn26mty2w7ui75x62r6ind7a7l00,32utubmz7k9dxuk30s6o2sdpb8qbvi,j5Xzv1DU,2020-0188,2020-05-21,13:32:25,13:48:29,NA,incomplete,162,shape,1,left,Red_Triangle_Dots_1.jpg,Blue_Triangle_Stripes_2.jpg,Purple_Plus_Dots_3.jpg,left,774,true,low,NA,NA,NA,NA,NA,NA,NA,false
j5Xzv1DU,32xn26mty2w7ui75x62r6ind7a7l00,32utubmz7k9dxuk30s6o2sdpb8qbvi,j5Xzv1DU,2020-0188,2020-05-21,13:32:25,13:48:29,NA,incomplete,163,shape,1,left,Blue_Triangle_Stripes_2.jpg,Purple_Triangle_Dots_3.jpg,Green_Circle_Stripes_4.jpg,left,1390,true,low,NA,NA,NA,NA,NA,NA,NA,false
j5Xzv1DU,32xn26mty2w7ui75x62r6ind7a7l00,32utubmz7k9dxuk30s6o2sdpb8qbvi,j5Xzv1DU,2020-0188,2020-05-21,13:32:25,13:48:29,NA,incomplete,164,shape,1,left,Red_Triangle_Grid_1.jpg,Green_Triangle_Dots_4.jpg,Blue_Circle_Grid_3.jpg,left,875,true,low,NA,NA,NA,NA,NA,NA,NA,false
j5Xzv1DU,32xn26mty2w7ui75x62r6ind7a7l00,32utubmz7k9dxuk30s6o2sdpb8qbvi,j5Xzv1DU,2020-0188,2020-05-21,13:32:25,13:48:29,NA,incomplete,165,shape,1,right,Blue_Star_Dots_4.jpg,Purple_Triangle_Dots_3.jpg,Red_Star_Stripes_1.jpg,right,752,true,low,NA,NA,NA,NA,NA,NA,NA,false
j5Xzv1DU,32xn26mty2w7ui75x62r6ind7a7l00,32utubmz7k9dxuk30s6o2sdpb8qbvi,j5Xzv1DU,2020-0188,2020-05-21,13:32:25,13:48:29,NA,incomplete,166,shape,1,right,Blue_Star_Chess_2.jpg,Red_Triangle_Chess_4.jpg,Purple_Star_Grid_3.jpg,right,857,true,low,NA,NA,NA,NA,NA,NA,NA,false
j5Xzv1DU,32xn26mty2w7ui75x62r6ind7a7l00,32utubmz7k9dxuk30s6o2sdpb8qbvi,j5Xzv1DU,2020-0188,2020-05-21,13:32:25,13:48:29,NA,incomplete,167,shape,1,left,Purple_Star_Chess_1.jpg,Blue_Star_Dots_3.jpg,Red_Triangle_Chess_2.jpg,left,624,true,low,NA,NA,NA,NA,NA,NA,NA,false
j5Xzv1DU,32xn26mty2w7ui75x62r6ind7a7l00,32utubmz7k9dxuk30s6o2sdpb8qbvi,j5Xzv1DU,2020-0188,2020-05-21,13:32:25,13:48:29,NA,incomplete,168,shape,1,right,Red_Triangle_Dots_4.jpg,Green_Circle_Dots_2.jpg,Purple_Triangle_Chess_3.jpg,left,628,false,low,NA,NA,NA,NA,NA,NA,NA,false
j5Xzv1DU,32xn26mty2w7ui75x62r6ind7a7l00,32utubmz7k9dxuk30s6o2sdpb8qbvi,j5Xzv1DU,2020-0188,2020-05-21,13:32:25,13:48:29,NA,incomplete,169,shape,0,right,Blue_Plus_Chess_2.jpg,Red_Star_Chess_4.jpg,Purple_Plus_Dots_1.jpg,right,809,true,low,NA,NA,NA,NA,NA,NA,NA,false
j5Xzv1DU,32xn26mty2w7ui75x62r6ind7a7l00,32utubmz7k9dxuk30s6o2sdpb8qbvi,j5Xzv1DU,2020-0188,2020-05-21,13:32:25,13:48:29,NA,incomplete,170,shape,1,left,Blue_Plus_Chess_4.jpg,Green_Plus_Grid_2.jpg,Purple_Star_Chess_3.jpg,left,809,true,low,NA,NA,NA,NA,NA,NA,NA,false
j5Xzv1DU,32xn26mty2w7ui75x62r6ind7a7l00,32utubmz7k9dxuk30s6o2sdpb8qbvi,j5Xzv1DU,2020-0188,2020-05-21,13:32:25,13:48:29,NA,incomplete,171,shape,1,left,Red_Star_Stripes_4.jpg,Purple_Star_Dots_2.jpg,Green_Plus_Stripes_3.jpg,left,914,true,low,NA,NA,NA,NA,NA,NA,NA,false
j5Xzv1DU,32xn26mty2w7ui75x62r6ind7a7l00,32utubmz7k9dxuk30s6o2sdpb8qbvi,j5Xzv1DU,2020-0188,2020-05-21,13:32:25,13:48:29,NA,incomplete,172,shape,1,right,Purple_Plus_Grid_1.jpg,Blue_Circle_Grid_4.jpg,Green_Plus_Stripes_2.jpg,right,727,true,low,NA,NA,NA,NA,NA,NA,NA,false
j5Xzv1DU,32xn26mty2w7ui75x62r6ind7a7l00,32utubmz7k9dxuk30s6o2sdpb8qbvi,j5Xzv1DU,2020-0188,2020-05-21,13:32:25,13:48:29,NA,incomplete,173,shape,1,left,Purple_Triangle_Grid_2.jpg,Blue_Triangle_Chess_3.jpg,Green_Plus_Grid_1.jpg,left,561,true,low,NA,NA,NA,NA,NA,NA,NA,false
j5Xzv1DU,32xn26mty2w7ui75x62r6ind7a7l00,32utubmz7k9dxuk30s6o2sdpb8qbvi,j5Xzv1DU,2020-0188,2020-05-21,13:32:25,13:48:29,NA,incomplete,174,shape,1,left,Blue_Plus_Chess_4.jpg,Red_Plus_Dots_2.jpg,Purple_Circle_Chess_3.jpg,left,619,true,low,NA,NA,NA,NA,NA,NA,NA,false
j5Xzv1DU,32xn26mty2w7ui75x62r6ind7a7l00,32utubmz7k9dxuk30s6o2sdpb8qbvi,j5Xzv1DU,2020-0188,2020-05-21,13:32:25,13:48:29,NA,incomplete,175,shape,1,left,Red_Plus_Dots_3.jpg,Green_Plus_Stripes_2.jpg,Purple_Circle_Dots_1.jpg,left,744,true,low,NA,NA,NA,NA,NA,NA,NA,false
j5Xzv1DU,32xn26mty2w7ui75x62r6ind7a7l00,32utubmz7k9dxuk30s6o2sdpb8qbvi,j5Xzv1DU,2020-0188,2020-05-21,13:32:25,13:48:29,NA,incomplete,176,shape,1,left,Green_Star_Chess_2.jpg,Blue_Star_Stripes_4.jpg,Red_Circle_Chess_1.jpg,left,954,true,low,NA,NA,NA,NA,NA,NA,NA,false
j5Xzv1DU,32xn26mty2w7ui75x62r6ind7a7l00,32utubmz7k9dxuk30s6o2sdpb8qbvi,j5Xzv1DU,2020-0188,2020-05-21,13:32:25,13:48:29,NA,incomplete,177,shape,1,left,Red_Star_Chess_2.jpg,Green_Star_Stripes_1.jpg,Blue_Triangle_Chess_3.jpg,left,539,true,low,NA,NA,NA,NA,NA,NA,NA,false
j5Xzv1DU,32xn26mty2w7ui75x62r6ind7a7l00,32utubmz7k9dxuk30s6o2sdpb8qbvi,j5Xzv1DU,2020-0188,2020-05-21,13:32:25,13:48:29,NA,incomplete,178,shape,1,left,Purple_Plus_Grid_1.jpg,Green_Plus_Stripes_2.jpg,Red_Triangle_Grid_4.jpg,left,613,true,low,NA,NA,NA,NA,NA,NA,NA,false
j5Xzv1DU,32xn26mty2w7ui75x62r6ind7a7l00,32utubmz7k9dxuk30s6o2sdpb8qbvi,j5Xzv1DU,2020-0188,2020-05-21,13:32:25,13:48:29,NA,incomplete,179,shape,1,left,Purple_Plus_Dots_1.jpg,Green_Plus_Stripes_4.jpg,Red_Triangle_Dots_2.jpg,left,1018,true,low,NA,NA,NA,NA,NA,NA,NA,false
j5Xzv1DU,32xn26mty2w7ui75x62r6ind7a7l00,32utubmz7k9dxuk30s6o2sdpb8qbvi,j5Xzv1DU,2020-0188,2020-05-21,13:32:25,13:48:29,NA,incomplete,180,filling,0,left,Green_Circle_Stripes_3.jpg,Purple_Star_Stripes_2.jpg,Blue_Circle_Dots_4.jpg,right,779,false,low,NA,NA,NA,NA,NA,NA,NA,false
j5Xzv1DU,32xn26mty2w7ui75x62r6ind7a7l00,32utubmz7k9dxuk30s6o2sdpb8qbvi,j5Xzv1DU,2020-0188,2020-05-21,13:32:25,13:48:29,NA,incomplete,181,filling,1,left,Red_Star_Dots_2.jpg,Green_Triangle_Dots_1.jpg,Purple_Star_Chess_4.jpg,right,641,false,low,NA,NA,NA,NA,NA,NA,NA,false
j5Xzv1DU,32xn26mty2w7ui75x62r6ind7a7l00,32utubmz7k9dxuk30s6o2sdpb8qbvi,j5Xzv1DU,2020-0188,2020-05-21,13:32:25,13:48:29,NA,incomplete,182,filling,1,left,Green_Star_Dots_4.jpg,Purple_Circle_Dots_3.jpg,Red_Star_Chess_1.jpg,right,701,false,low,NA,NA,NA,NA,NA,NA,NA,false
j5Xzv1DU,32xn26mty2w7ui75x62r6ind7a7l00,32utubmz7k9dxuk30s6o2sdpb8qbvi,j5Xzv1DU,2020-0188,2020-05-21,13:32:25,13:48:29,NA,incomplete,183,filling,0,left,Blue_Triangle_Chess_2.jpg,Green_Plus_Chess_4.jpg,Red_Triangle_Grid_3.jpg,right,827,false,low,NA,NA,NA,NA,NA,NA,NA,false
j5Xzv1DU,32xn26mty2w7ui75x62r6ind7a7l00,32utubmz7k9dxuk30s6o2sdpb8qbvi,j5Xzv1DU,2020-0188,2020-05-21,13:32:25,13:48:29,NA,incomplete,184,filling,1,right,Red_Triangle_Dots_3.jpg,Green_Triangle_Stripes_4.jpg,Blue_Star_Dots_1.jpg,left,1391,false,low,NA,NA,NA,NA,NA,NA,NA,false
j5Xzv1DU,32xn26mty2w7ui75x62r6ind7a7l00,32utubmz7k9dxuk30s6o2sdpb8qbvi,j5Xzv1DU,2020-0188,2020-05-21,13:32:25,13:48:29,NA,incomplete,185,filling,0,left,Blue_Triangle_Dots_2.jpg,Red_Star_Dots_3.jpg,Purple_Triangle_Grid_4.jpg,right,666,false,low,NA,NA,NA,NA,NA,NA,NA,false
j5Xzv1DU,32xn26mty2w7ui75x62r6ind7a7l00,32utubmz7k9dxuk30s6o2sdpb8qbvi,j5Xzv1DU,2020-0188,2020-05-21,13:32:25,13:48:29,NA,incomplete,186,filling,1,left,Green_Star_Dots_4.jpg,Blue_Plus_Dots_3.jpg,Red_Star_Chess_1.jpg,right,743,false,low,NA,NA,NA,NA,NA,NA,NA,false
j5Xzv1DU,32xn26mty2w7ui75x62r6ind7a7l00,32utubmz7k9dxuk30s6o2sdpb8qbvi,j5Xzv1DU,2020-0188,2020-05-21,13:32:25,13:48:29,NA,incomplete,187,filling,1,left,Red_Plus_Grid_2.jpg,Purple_Circle_Grid_3.jpg,Green_Plus_Dots_1.jpg,right,752,false,low,NA,NA,NA,NA,NA,NA,NA,false
j5Xzv1DU,32xn26mty2w7ui75x62r6ind7a7l00,32utubmz7k9dxuk30s6o2sdpb8qbvi,j5Xzv1DU,2020-0188,2020-05-21,13:32:25,13:48:29,NA,incomplete,188,filling,1,left,Purple_Plus_Dots_2.jpg,Blue_Circle_Dots_4.jpg,Red_Plus_Chess_3.jpg,left,1235,true,low,NA,NA,NA,NA,NA,NA,NA,false
j5Xzv1DU,32xn26mty2w7ui75x62r6ind7a7l00,32utubmz7k9dxuk30s6o2sdpb8qbvi,j5Xzv1DU,2020-0188,2020-05-21,13:32:25,13:48:29,NA,incomplete,189,filling,0,right,Red_Circle_Grid_2.jpg,Blue_Circle_Chess_4.jpg,Green_Triangle_Grid_1.jpg,none,0,false,low,NA,NA,NA,NA,NA,NA,NA,false
j5Xzv1DU,32xn26mty2w7ui75x62r6ind7a7l00,32utubmz7k9dxuk30s6o2sdpb8qbvi,j5Xzv1DU,2020-0188,2020-05-21,13:32:25,13:48:29,NA,incomplete,190,filling,1,left,Red_Star_Grid_2.jpg,Green_Circle_Grid_3.jpg,Purple_Star_Dots_1.jpg,right,861,false,low,NA,NA,NA,NA,NA,NA,NA,false
j5Xzv1DU,32xn26mty2w7ui75x62r6ind7a7l00,32utubmz7k9dxuk30s6o2sdpb8qbvi,j5Xzv1DU,2020-0188,2020-05-21,13:32:25,13:48:29,NA,incomplete,191,filling,1,left,Blue_Plus_Chess_4.jpg,Purple_Star_Chess_1.jpg,Green_Plus_Stripes_2.jpg,left,967,true,low,NA,NA,NA,NA,NA,NA,NA,false
j5Xzv1DU,32xn26mty2w7ui75x62r6ind7a7l00,32utubmz7k9dxuk30s6o2sdpb8qbvi,j5Xzv1DU,2020-0188,2020-05-21,13:32:25,13:48:29,NA,incomplete,192,filling,1,right,Green_Triangle_Chess_1.jpg,Blue_Triangle_Dots_2.jpg,Red_Circle_Chess_3.jpg,right,858,true,low,NA,NA,NA,NA,NA,NA,NA,false
j5Xzv1DU,32xn26mty2w7ui75x62r6ind7a7l00,32utubmz7k9dxuk30s6o2sdpb8qbvi,j5Xzv1DU,2020-0188,2020-05-21,13:32:25,13:48:29,NA,incomplete,193,filling,1,right,Green_Plus_Stripes_1.jpg,Red_Plus_Chess_2.jpg,Purple_Circle_Stripes_4.jpg,right,1020,true,low,NA,NA,NA,NA,NA,NA,NA,false
j5Xzv1DU,32xn26mty2w7ui75x62r6ind7a7l00,32utubmz7k9dxuk30s6o2sdpb8qbvi,j5Xzv1DU,2020-0188,2020-05-21,13:32:25,13:48:29,NA,incomplete,194,filling,1,right,Purple_Plus_Chess_3.jpg,Red_Plus_Grid_2.jpg,Blue_Circle_Chess_4.jpg,right,1031,true,low,NA,NA,NA,NA,NA,NA,NA,false
j5Xzv1DU,32xn26mty2w7ui75x62r6ind7a7l00,32utubmz7k9dxuk30s6o2sdpb8qbvi,j5Xzv1DU,2020-0188,2020-05-21,13:32:25,13:48:29,NA,incomplete,195,filling,1,left,Blue_Plus_Dots_1.jpg,Purple_Triangle_Dots_3.jpg,Red_Plus_Stripes_4.jpg,left,903,true,low,NA,NA,NA,NA,NA,NA,NA,false
j5Xzv1DU,32xn26mty2w7ui75x62r6ind7a7l00,32utubmz7k9dxuk30s6o2sdpb8qbvi,j5Xzv1DU,2020-0188,2020-05-21,13:32:25,13:48:29,NA,incomplete,196,filling,1,right,Red_Triangle_Stripes_2.jpg,Green_Triangle_Grid_1.jpg,Purple_Circle_Stripes_3.jpg,left,958,false,low,NA,NA,NA,NA,NA,NA,NA,false
j5Xzv1DU,32xn26mty2w7ui75x62r6ind7a7l00,32utubmz7k9dxuk30s6o2sdpb8qbvi,j5Xzv1DU,2020-0188,2020-05-21,13:32:25,13:48:29,NA,incomplete,197,filling,0,right,Purple_Triangle_Grid_2.jpg,Red_Triangle_Chess_1.jpg,Blue_Star_Grid_3.jpg,left,764,false,low,NA,NA,NA,NA,NA,NA,NA,false
j5Xzv1DU,32xn26mty2w7ui75x62r6ind7a7l00,32utubmz7k9dxuk30s6o2sdpb8qbvi,j5Xzv1DU,2020-0188,2020-05-21,13:32:25,13:48:29,NA,incomplete,198,filling,1,right,Purple_Circle_Stripes_2.jpg,Blue_Circle_Dots_3.jpg,Green_Star_Stripes_4.jpg,left,763,false,low,NA,NA,NA,NA,NA,NA,NA,false
j5Xzv1DU,32xn26mty2w7ui75x62r6ind7a7l00,32utubmz7k9dxuk30s6o2sdpb8qbvi,j5Xzv1DU,2020-0188,2020-05-21,13:32:25,13:48:29,NA,incomplete,199,filling,1,left,Red_Circle_Stripes_3.jpg,Blue_Plus_Stripes_2.jpg,Green_Circle_Dots_4.jpg,left,1010,true,low,NA,NA,NA,NA,NA,NA,NA,false
j5Xzv1DU,32xn26mty2w7ui75x62r6ind7a7l00,32utubmz7k9dxuk30s6o2sdpb8qbvi,j5Xzv1DU,2020-0188,2020-05-21,13:32:25,13:48:29,NA,incomplete,200,shape,1,right,Green_Plus_Grid_4.jpg,Blue_Circle_Grid_3.jpg,Purple_Plus_Chess_2.jpg,left,1016,false,low,NA,NA,NA,NA,NA,NA,NA,false
j5Xzv1DU,32xn26mty2w7ui75x62r6ind7a7l00,32utubmz7k9dxuk30s6o2sdpb8qbvi,j5Xzv1DU,2020-0188,2020-05-21,13:32:25,13:48:29,NA,incomplete,201,shape,0,left,Green_Circle_Chess_3.jpg,Blue_Circle_Grid_2.jpg,Red_Plus_Chess_1.jpg,right,858,false,low,NA,NA,NA,NA,NA,NA,NA,false
j5Xzv1DU,32xn26mty2w7ui75x62r6ind7a7l00,32utubmz7k9dxuk30s6o2sdpb8qbvi,j5Xzv1DU,2020-0188,2020-05-21,13:32:25,13:48:29,NA,incomplete,202,shape,1,left,Green_Star_Chess_3.jpg,Red_Star_Dots_2.jpg,Blue_Circle_Chess_4.jpg,right,784,false,low,NA,NA,NA,NA,NA,NA,NA,false
j5Xzv1DU,32xn26mty2w7ui75x62r6ind7a7l00,32utubmz7k9dxuk30s6o2sdpb8qbvi,j5Xzv1DU,2020-0188,2020-05-21,13:32:25,13:48:29,NA,incomplete,203,shape,1,right,Red_Circle_Dots_3.jpg,Blue_Star_Dots_1.jpg,Green_Circle_Chess_2.jpg,left,865,false,low,NA,NA,NA,NA,NA,NA,NA,false
j5Xzv1DU,32xn26mty2w7ui75x62r6ind7a7l00,32utubmz7k9dxuk30s6o2sdpb8qbvi,j5Xzv1DU,2020-0188,2020-05-21,13:32:25,13:48:29,NA,incomplete,204,shape,0,left,Green_Circle_Grid_1.jpg,Purple_Circle_Chess_4.jpg,Red_Plus_Grid_3.jpg,right,991,false,low,NA,NA,NA,NA,NA,NA,NA,false
j5Xzv1DU,32xn26mty2w7ui75x62r6ind7a7l00,32utubmz7k9dxuk30s6o2sdpb8qbvi,j5Xzv1DU,2020-0188,2020-05-21,13:32:25,13:48:29,NA,incomplete,205,shape,1,right,Purple_Plus_Stripes_1.jpg,Red_Star_Stripes_4.jpg,Green_Plus_Chess_3.jpg,left,871,false,low,NA,NA,NA,NA,NA,NA,NA,false
j5Xzv1DU,32xn26mty2w7ui75x62r6ind7a7l00,32utubmz7k9dxuk30s6o2sdpb8qbvi,j5Xzv1DU,2020-0188,2020-05-21,13:32:25,13:48:29,NA,incomplete,206,shape,1,right,Purple_Triangle_Stripes_4.jpg,Blue_Star_Stripes_1.jpg,Red_Triangle_Dots_3.jpg,left,1000,false,low,NA,NA,NA,NA,NA,NA,NA,false
j5Xzv1DU,32xn26mty2w7ui75x62r6ind7a7l00,32utubmz7k9dxuk30s6o2sdpb8qbvi,j5Xzv1DU,2020-0188,2020-05-21,13:32:25,13:48:29,NA,incomplete,207,shape,1,left,Green_Plus_Chess_1.jpg,Blue_Plus_Stripes_4.jpg,Red_Circle_Chess_2.jpg,right,922,false,low,NA,NA,NA,NA,NA,NA,NA,false
j5Xzv1DU,32xn26mty2w7ui75x62r6ind7a7l00,32utubmz7k9dxuk30s6o2sdpb8qbvi,j5Xzv1DU,2020-0188,2020-05-21,13:32:25,13:48:29,NA,incomplete,208,shape,0,right,Purple_Circle_Grid_2.jpg,Blue_Plus_Grid_4.jpg,Red_Circle_Stripes_1.jpg,right,967,true,low,NA,NA,NA,NA,NA,NA,NA,false
j5Xzv1DU,32xn26mty2w7ui75x62r6ind7a7l00,32utubmz7k9dxuk30s6o2sdpb8qbvi,j5Xzv1DU,2020-0188,2020-05-21,13:32:25,13:48:29,NA,incomplete,209,shape,1,left,Red_Circle_Grid_1.jpg,Purple_Circle_Dots_2.jpg,Blue_Plus_Grid_4.jpg,left,865,true,low,NA,NA,NA,NA,NA,NA,NA,false
j5Xzv1DU,32xn26mty2w7ui75x62r6ind7a7l00,32utubmz7k9dxuk30s6o2sdpb8qbvi,j5Xzv1DU,2020-0188,2020-05-21,13:32:25,13:48:29,NA,incomplete,210,shape,0,left,Green_Triangle_Chess_3.jpg,Purple_Triangle_Stripes_1.jpg,Red_Star_Chess_2.jpg,right,927,false,low,NA,NA,NA,NA,NA,NA,NA,false
j5Xzv1DU,32xn26mty2w7ui75x62r6ind7a7l00,32utubmz7k9dxuk30s6o2sdpb8qbvi,j5Xzv1DU,2020-0188,2020-05-21,13:32:25,13:48:29,NA,incomplete,211,shape,1,left,Red_Star_Grid_3.jpg,Green_Star_Dots_2.jpg,Blue_Plus_Grid_4.jpg,right,1001,false,low,NA,NA,NA,NA,NA,NA,NA,false
j5Xzv1DU,32xn26mty2w7ui75x62r6ind7a7l00,32utubmz7k9dxuk30s6o2sdpb8qbvi,j5Xzv1DU,2020-0188,2020-05-21,13:32:25,13:48:29,NA,incomplete,212,shape,1,left,Blue_Plus_Chess_4.jpg,Red_Plus_Grid_3.jpg,Green_Circle_Chess_1.jpg,right,1213,false,low,NA,NA,NA,NA,NA,NA,NA,false
j5Xzv1DU,32xn26mty2w7ui75x62r6ind7a7l00,32utubmz7k9dxuk30s6o2sdpb8qbvi,j5Xzv1DU,2020-0188,2020-05-21,13:32:25,13:48:29,NA,incomplete,213,shape,1,right,Blue_Circle_Grid_1.jpg,Green_Plus_Grid_2.jpg,Purple_Circle_Chess_3.jpg,left,1129,false,low,NA,NA,NA,NA,NA,NA,NA,false
j5Xzv1DU,32xn26mty2w7ui75x62r6ind7a7l00,32utubmz7k9dxuk30s6o2sdpb8qbvi,j5Xzv1DU,2020-0188,2020-05-21,13:32:25,13:48:29,NA,incomplete,214,shape,1,left,Blue_Triangle_Stripes_3.jpg,Red_Triangle_Grid_2.jpg,Purple_Star_Stripes_4.jpg,left,910,true,low,NA,NA,NA,NA,NA,NA,NA,false
j5Xzv1DU,32xn26mty2w7ui75x62r6ind7a7l00,32utubmz7k9dxuk30s6o2sdpb8qbvi,j5Xzv1DU,2020-0188,2020-05-21,13:32:25,13:48:29,NA,incomplete,215,shape,1,right,Purple_Triangle_Grid_3.jpg,Blue_Circle_Grid_1.jpg,Green_Triangle_Stripes_4.jpg,right,783,true,low,NA,NA,NA,NA,NA,NA,NA,false
j5Xzv1DU,32xn26mty2w7ui75x62r6ind7a7l00,32utubmz7k9dxuk30s6o2sdpb8qbvi,j5Xzv1DU,2020-0188,2020-05-21,13:32:25,13:48:29,NA,incomplete,216,shape,1,right,Blue_Plus_Dots_4.jpg,Purple_Star_Dots_3.jpg,Red_Plus_Chess_1.jpg,right,1042,true,low,NA,NA,NA,NA,NA,NA,NA,false
j5Xzv1DU,32xn26mty2w7ui75x62r6ind7a7l00,32utubmz7k9dxuk30s6o2sdpb8qbvi,j5Xzv1DU,2020-0188,2020-05-21,13:32:25,13:48:29,NA,incomplete,217,shape,0,right,Purple_Circle_Dots_1.jpg,Green_Star_Dots_4.jpg,Red_Circle_Grid_3.jpg,left,1381,false,low,NA,NA,NA,NA,NA,NA,NA,false
j5Xzv1DU,32xn26mty2w7ui75x62r6ind7a7l00,32utubmz7k9dxuk30s6o2sdpb8qbvi,j5Xzv1DU,2020-0188,2020-05-21,13:32:25,13:48:29,NA,incomplete,218,shape,1,left,Purple_Circle_Stripes_3.jpg,Blue_Circle_Dots_4.jpg,Red_Plus_Stripes_1.jpg,right,1106,false,low,NA,NA,NA,NA,NA,NA,NA,false
j5Xzv1DU,32xn26mty2w7ui75x62r6ind7a7l00,32utubmz7k9dxuk30s6o2sdpb8qbvi,j5Xzv1DU,2020-0188,2020-05-21,13:32:25,13:48:29,NA,incomplete,219,shape,1,right,Blue_Plus_Stripes_4.jpg,Red_Circle_Stripes_3.jpg,Green_Plus_Dots_1.jpg,left,1088,false,low,NA,NA,NA,NA,NA,NA,NA,false
j5Xzv1DU,32xn26mty2w7ui75x62r6ind7a7l00,32utubmz7k9dxuk30s6o2sdpb8qbvi,j5Xzv1DU,2020-0188,2020-05-21,13:32:25,13:48:29,NA,incomplete,220,filling,1,right,Blue_Plus_Chess_4.jpg,Green_Plus_Grid_2.jpg,Purple_Star_Chess_3.jpg,left,1279,false,low,NA,NA,NA,NA,NA,NA,NA,false
j5Xzv1DU,32xn26mty2w7ui75x62r6ind7a7l00,32utubmz7k9dxuk30s6o2sdpb8qbvi,j5Xzv1DU,2020-0188,2020-05-21,13:32:25,13:48:29,NA,incomplete,221,filling,1,left,Green_Star_Dots_2.jpg,Purple_Circle_Dots_3.jpg,Red_Star_Chess_4.jpg,right,910,false,low,NA,NA,NA,NA,NA,NA,NA,false
j5Xzv1DU,32xn26mty2w7ui75x62r6ind7a7l00,32utubmz7k9dxuk30s6o2sdpb8qbvi,j5Xzv1DU,2020-0188,2020-05-21,13:32:25,13:48:29,NA,incomplete,222,filling,1,right,Red_Plus_Dots_3.jpg,Green_Plus_Stripes_1.jpg,Purple_Circle_Dots_4.jpg,right,944,true,low,NA,NA,NA,NA,NA,NA,NA,false
j5Xzv1DU,32xn26mty2w7ui75x62r6ind7a7l00,32utubmz7k9dxuk30s6o2sdpb8qbvi,j5Xzv1DU,2020-0188,2020-05-21,13:32:25,13:48:29,NA,incomplete,223,filling,0,left,Blue_Plus_Grid_3.jpg,Red_Circle_Grid_4.jpg,Purple_Plus_Chess_2.jpg,left,1022,true,low,NA,NA,NA,NA,NA,NA,NA,false
j5Xzv1DU,32xn26mty2w7ui75x62r6ind7a7l00,32utubmz7k9dxuk30s6o2sdpb8qbvi,j5Xzv1DU,2020-0188,2020-05-21,13:32:25,13:48:29,NA,incomplete,224,filling,1,left,Green_Plus_Chess_3.jpg,Red_Triangle_Chess_1.jpg,Blue_Plus_Stripes_4.jpg,left,974,true,low,NA,NA,NA,NA,NA,NA,NA,false
j5Xzv1DU,32xn26mty2w7ui75x62r6ind7a7l00,32utubmz7k9dxuk30s6o2sdpb8qbvi,j5Xzv1DU,2020-0188,2020-05-21,13:32:25,13:48:29,NA,incomplete,225,filling,1,left,Red_Circle_Grid_1.jpg,Blue_Triangle_Grid_4.jpg,Purple_Circle_Chess_2.jpg,left,962,true,low,NA,NA,NA,NA,NA,NA,NA,false
j5Xzv1DU,32xn26mty2w7ui75x62r6ind7a7l00,32utubmz7k9dxuk30s6o2sdpb8qbvi,j5Xzv1DU,2020-0188,2020-05-21,13:32:25,13:48:29,NA,incomplete,226,filling,1,left,Red_Triangle_Chess_4.jpg,Purple_Star_Chess_2.jpg,Blue_Triangle_Grid_1.jpg,left,959,true,low,NA,NA,NA,NA,NA,NA,NA,false
j5Xzv1DU,32xn26mty2w7ui75x62r6ind7a7l00,32utubmz7k9dxuk30s6o2sdpb8qbvi,j5Xzv1DU,2020-0188,2020-05-21,13:32:25,13:48:29,NA,incomplete,227,filling,1,left,Blue_Triangle_Dots_2.jpg,Red_Star_Dots_3.jpg,Purple_Triangle_Chess_1.jpg,left,988,true,low,NA,NA,NA,NA,NA,NA,NA,false
j5Xzv1DU,32xn26mty2w7ui75x62r6ind7a7l00,32utubmz7k9dxuk30s6o2sdpb8qbvi,j5Xzv1DU,2020-0188,2020-05-21,13:32:25,13:48:29,NA,incomplete,228,filling,1,right,Blue_Star_Dots_1.jpg,Purple_Star_Chess_2.jpg,Green_Circle_Dots_4.jpg,right,811,true,low,NA,NA,NA,NA,NA,NA,NA,false
j5Xzv1DU,32xn26mty2w7ui75x62r6ind7a7l00,32utubmz7k9dxuk30s6o2sdpb8qbvi,j5Xzv1DU,2020-0188,2020-05-21,13:32:25,13:48:29,NA,incomplete,229,filling,0,left,Blue_Triangle_Grid_1.jpg,Green_Plus_Grid_2.jpg,Red_Triangle_Dots_4.jpg,left,830,true,low,NA,NA,NA,NA,NA,NA,NA,false
j5Xzv1DU,32xn26mty2w7ui75x62r6ind7a7l00,32utubmz7k9dxuk30s6o2sdpb8qbvi,j5Xzv1DU,2020-0188,2020-05-21,13:32:25,13:48:29,NA,incomplete,230,filling,1,right,Purple_Circle_Chess_1.jpg,Blue_Circle_Grid_2.jpg,Green_Star_Chess_4.jpg,right,890,true,low,NA,NA,NA,NA,NA,NA,NA,false
j5Xzv1DU,32xn26mty2w7ui75x62r6ind7a7l00,32utubmz7k9dxuk30s6o2sdpb8qbvi,j5Xzv1DU,2020-0188,2020-05-21,13:32:25,13:48:29,NA,incomplete,231,filling,0,right,Green_Star_Grid_1.jpg,Blue_Star_Chess_4.jpg,Purple_Plus_Grid_2.jpg,right,934,true,low,NA,NA,NA,NA,NA,NA,NA,false
j5Xzv1DU,32xn26mty2w7ui75x62r6ind7a7l00,32utubmz7k9dxuk30s6o2sdpb8qbvi,j5Xzv1DU,2020-0188,2020-05-21,13:32:25,13:48:29,NA,incomplete,232,filling,1,right,Purple_Triangle_Chess_3.jpg,Green_Triangle_Stripes_1.jpg,Red_Circle_Chess_2.jpg,right,814,true,low,NA,NA,NA,NA,NA,NA,NA,false
j5Xzv1DU,32xn26mty2w7ui75x62r6ind7a7l00,32utubmz7k9dxuk30s6o2sdpb8qbvi,j5Xzv1DU,2020-0188,2020-05-21,13:32:25,13:48:29,NA,incomplete,233,filling,0,right,Green_Triangle_Grid_3.jpg,Red_Triangle_Dots_1.jpg,Purple_Circle_Grid_4.jpg,right,954,true,low,NA,NA,NA,NA,NA,NA,NA,false
j5Xzv1DU,32xn26mty2w7ui75x62r6ind7a7l00,32utubmz7k9dxuk30s6o2sdpb8qbvi,j5Xzv1DU,2020-0188,2020-05-21,13:32:25,13:48:29,NA,incomplete,234,filling,1,right,Purple_Triangle_Grid_1.jpg,Blue_Triangle_Dots_4.jpg,Green_Circle_Grid_2.jpg,right,933,true,low,NA,NA,NA,NA,NA,NA,NA,false
j5Xzv1DU,32xn26mty2w7ui75x62r6ind7a7l00,32utubmz7k9dxuk30s6o2sdpb8qbvi,j5Xzv1DU,2020-0188,2020-05-21,13:32:25,13:48:29,NA,incomplete,235,filling,1,right,Blue_Star_Chess_3.jpg,Red_Star_Stripes_4.jpg,Purple_Triangle_Chess_1.jpg,right,949,true,low,NA,NA,NA,NA,NA,NA,NA,false
j5Xzv1DU,32xn26mty2w7ui75x62r6ind7a7l00,32utubmz7k9dxuk30s6o2sdpb8qbvi,j5Xzv1DU,2020-0188,2020-05-21,13:32:25,13:48:29,NA,incomplete,236,filling,1,right,Purple_Plus_Dots_2.jpg,Blue_Plus_Stripes_3.jpg,Green_Star_Dots_4.jpg,left,990,false,low,NA,NA,NA,NA,NA,NA,NA,false
j5Xzv1DU,32xn26mty2w7ui75x62r6ind7a7l00,32utubmz7k9dxuk30s6o2sdpb8qbvi,j5Xzv1DU,2020-0188,2020-05-21,13:32:25,13:48:29,NA,incomplete,237,filling,1,left,Green_Triangle_Chess_4.jpg,Blue_Star_Chess_1.jpg,Purple_Triangle_Grid_3.jpg,left,849,true,low,NA,NA,NA,NA,NA,NA,NA,false
j5Xzv1DU,32xn26mty2w7ui75x62r6ind7a7l00,32utubmz7k9dxuk30s6o2sdpb8qbvi,j5Xzv1DU,2020-0188,2020-05-21,13:32:25,13:48:29,NA,incomplete,238,filling,1,right,Purple_Star_Chess_2.jpg,Green_Star_Stripes_1.jpg,Blue_Plus_Chess_4.jpg,right,886,true,low,NA,NA,NA,NA,NA,NA,NA,false
j5Xzv1DU,32xn26mty2w7ui75x62r6ind7a7l00,32utubmz7k9dxuk30s6o2sdpb8qbvi,j5Xzv1DU,2020-0188,2020-05-21,13:32:25,13:48:29,NA,incomplete,239,filling,1,right,Purple_Star_Chess_2.jpg,Green_Star_Grid_3.jpg,Red_Triangle_Chess_4.jpg,right,871,true,low,NA,NA,NA,NA,NA,NA,NA,false
j5Xzv1DU,32xn26mty2w7ui75x62r6ind7a7l00,32utubmz7k9dxuk30s6o2sdpb8qbvi,j5Xzv1DU,2020-0188,2020-05-21,13:32:25,13:48:29,NA,NA,instruction example,color,NA,NA,Blue_Star_Chess_2.jpg,Blue_Circle_Grid_1.jpg,Red_Triangle_Stripes_2.jpg,NA,NA,NA,NA,NA,NA,NA,NA,NA,NA,NA,undefined
j5Xzv1DU,32xn26mty2w7ui75x62r6ind7a7l00,32utubmz7k9dxuk30s6o2sdpb8qbvi,j5Xzv1DU,2020-0188,2020-05-21,13:32:25,13:48:29,NA,NA,instruction example,color,NA,NA,Green_Circle_Stripes_1.jpg,Red_Star_Dots_1.jpg,Green_Plus_Chess_4.jpg,NA,NA,NA,NA,NA,NA,NA,NA,NA,NA,NA,undefined
j5Xzv1DU,32xn26mty2w7ui75x62r6ind7a7l00,32utubmz7k9dxuk30s6o2sdpb8qbvi,j5Xzv1DU,2020-0188,2020-05-21,13:32:25,13:48:29,NA,NA,instruction example,color,NA,NA,Blue_Circle_Grid_1.jpg,Green_Circle_Dots_3.jpg,Purple_Triangle_Grid_4.jpg,NA,NA,NA,NA,NA,NA,NA,NA,NA,NA,NA,undefined
j5Xzv1DU,32xn26mty2w7ui75x62r6ind7a7l00,32utubmz7k9dxuk30s6o2sdpb8qbvi,j5Xzv1DU,2020-0188,2020-05-21,13:32:25,13:48:29,NA,NA,instruction example,color,NA,NA,Red_Star_Grid_1.jpg,Green_Triangle_Grid_2.jpg,Purple_Star_Dots_3.jpg,NA,NA,NA,NA,NA,NA,NA,NA,NA,NA,NA,undefined
j5Xzv1DU,32xn26mty2w7ui75x62r6ind7a7l00,32utubmz7k9dxuk30s6o2sdpb8qbvi,j5Xzv1DU,2020-0188,2020-05-21,13:32:25,13:48:29,925367,965024,NA,NA,NA,NA,NA,NA,NA,NA,NA,NA,NA,53,Black/African American,Female,Do not wish to reply,no,yes,no,undefined
