workerId,hitId,assignmentId,subject,studyid,exp_date,exp_start,exp_end,time_start,time_end,trial,type,reward_validity,answer,image_top,image_left,image_right,response,response_time,response_acc,volatility,age,race,gender,ethnicity,color,vision,neuro,practice
pVdJHChu,3wa2xvdzfpuo2njsi9v42o7kc6t6eh,32z9zlut1pxsynesz8u6tbmfepghoi,pVdJHChu,2020-0188,2020-06-15,19:48:09,20:13:57,NA,incomplete,0,number,0,right,Red_Plus_Chess_2.jpg,Green_Star_Chess_3.jpg,Blue_Circle_Stripes_2.jpg,right,1723,true,NA,NA,NA,NA,NA,NA,NA,NA,true
pVdJHChu,3wa2xvdzfpuo2njsi9v42o7kc6t6eh,32z9zlut1pxsynesz8u6tbmfepghoi,pVdJHChu,2020-0188,2020-06-15,19:48:09,20:13:57,NA,incomplete,1,number,1,left,Green_Circle_Dots_1.jpg,Purple_Plus_Stripes_1.jpg,Blue_Triangle_Dots_2.jpg,left,1857,true,NA,NA,NA,NA,NA,NA,NA,NA,true
pVdJHChu,3wa2xvdzfpuo2njsi9v42o7kc6t6eh,32z9zlut1pxsynesz8u6tbmfepghoi,pVdJHChu,2020-0188,2020-06-15,19:48:09,20:13:57,NA,incomplete,2,number,1,left,Red_Triangle_Stripes_2.jpg,Green_Circle_Chess_2.jpg,Blue_Star_Stripes_3.jpg,left,1232,true,NA,NA,NA,NA,NA,NA,NA,NA,true
pVdJHChu,3wa2xvdzfpuo2njsi9v42o7kc6t6eh,32z9zlut1pxsynesz8u6tbmfepghoi,pVdJHChu,2020-0188,2020-06-15,19:48:09,20:13:57,NA,incomplete,3,number,1,left,Purple_Triangle_Grid_3.jpg,Green_Star_Chess_3.jpg,Blue_Plus_Grid_2.jpg,left,1649,true,NA,NA,NA,NA,NA,NA,NA,NA,true
pVdJHChu,3wa2xvdzfpuo2njsi9v42o7kc6t6eh,32z9zlut1pxsynesz8u6tbmfepghoi,pVdJHChu,2020-0188,2020-06-15,19:48:09,20:13:57,NA,incomplete,4,number,0,left,Blue_Triangle_Grid_1.jpg,Purple_Circle_Stripes_1.jpg,Red_Star_Grid_4.jpg,left,1073,true,NA,NA,NA,NA,NA,NA,NA,NA,true
pVdJHChu,3wa2xvdzfpuo2njsi9v42o7kc6t6eh,32z9zlut1pxsynesz8u6tbmfepghoi,pVdJHChu,2020-0188,2020-06-15,19:48:09,20:13:57,NA,incomplete,5,number,1,right,Red_Triangle_Stripes_4.jpg,Green_Plus_Stripes_3.jpg,Purple_Circle_Grid_4.jpg,right,1304,true,NA,NA,NA,NA,NA,NA,NA,NA,true
pVdJHChu,3wa2xvdzfpuo2njsi9v42o7kc6t6eh,32z9zlut1pxsynesz8u6tbmfepghoi,pVdJHChu,2020-0188,2020-06-15,19:48:09,20:13:57,NA,incomplete,6,number,1,right,Red_Plus_Chess_4.jpg,Blue_Triangle_Chess_1.jpg,Green_Circle_Stripes_4.jpg,right,1246,true,NA,NA,NA,NA,NA,NA,NA,NA,true
pVdJHChu,3wa2xvdzfpuo2njsi9v42o7kc6t6eh,32z9zlut1pxsynesz8u6tbmfepghoi,pVdJHChu,2020-0188,2020-06-15,19:48:09,20:13:57,NA,incomplete,7,number,0,left,Green_Plus_Chess_4.jpg,Blue_Star_Dots_4.jpg,Purple_Circle_Chess_2.jpg,left,1129,true,NA,NA,NA,NA,NA,NA,NA,NA,true
pVdJHChu,3wa2xvdzfpuo2njsi9v42o7kc6t6eh,32z9zlut1pxsynesz8u6tbmfepghoi,pVdJHChu,2020-0188,2020-06-15,19:48:09,20:13:57,NA,incomplete,8,number,1,left,Purple_Triangle_Dots_3.jpg,Green_Star_Chess_3.jpg,Blue_Circle_Dots_4.jpg,left,1107,true,NA,NA,NA,NA,NA,NA,NA,NA,true
pVdJHChu,3wa2xvdzfpuo2njsi9v42o7kc6t6eh,32z9zlut1pxsynesz8u6tbmfepghoi,pVdJHChu,2020-0188,2020-06-15,19:48:09,20:13:57,NA,incomplete,9,number,1,left,Red_Plus_Dots_3.jpg,Blue_Star_Stripes_3.jpg,Green_Triangle_Dots_1.jpg,left,1019,true,NA,NA,NA,NA,NA,NA,NA,NA,true
pVdJHChu,3wa2xvdzfpuo2njsi9v42o7kc6t6eh,32z9zlut1pxsynesz8u6tbmfepghoi,pVdJHChu,2020-0188,2020-06-15,19:48:09,20:13:57,NA,incomplete,10,number,0,left,Blue_Triangle_Grid_2.jpg,Green_Star_Dots_2.jpg,Red_Circle_Grid_1.jpg,left,1085,true,NA,NA,NA,NA,NA,NA,NA,NA,true
pVdJHChu,3wa2xvdzfpuo2njsi9v42o7kc6t6eh,32z9zlut1pxsynesz8u6tbmfepghoi,pVdJHChu,2020-0188,2020-06-15,19:48:09,20:13:57,NA,incomplete,11,number,1,right,Red_Circle_Chess_2.jpg,Blue_Triangle_Chess_1.jpg,Purple_Star_Dots_2.jpg,right,974,true,NA,NA,NA,NA,NA,NA,NA,NA,true
pVdJHChu,3wa2xvdzfpuo2njsi9v42o7kc6t6eh,32z9zlut1pxsynesz8u6tbmfepghoi,pVdJHChu,2020-0188,2020-06-15,19:48:09,20:13:57,NA,incomplete,12,number,1,right,Red_Triangle_Dots_1.jpg,Purple_Plus_Dots_4.jpg,Green_Circle_Stripes_1.jpg,right,1071,true,NA,NA,NA,NA,NA,NA,NA,NA,true
pVdJHChu,3wa2xvdzfpuo2njsi9v42o7kc6t6eh,32z9zlut1pxsynesz8u6tbmfepghoi,pVdJHChu,2020-0188,2020-06-15,19:48:09,20:13:57,NA,incomplete,13,number,1,left,Purple_Plus_Grid_2.jpg,Blue_Circle_Chess_2.jpg,Green_Triangle_Grid_3.jpg,left,1173,true,NA,NA,NA,NA,NA,NA,NA,NA,true
pVdJHChu,3wa2xvdzfpuo2njsi9v42o7kc6t6eh,32z9zlut1pxsynesz8u6tbmfepghoi,pVdJHChu,2020-0188,2020-06-15,19:48:09,20:13:57,NA,incomplete,14,number,1,left,Green_Triangle_Dots_1.jpg,Blue_Plus_Chess_1.jpg,Purple_Star_Dots_4.jpg,left,1090,true,NA,NA,NA,NA,NA,NA,NA,NA,true
pVdJHChu,3wa2xvdzfpuo2njsi9v42o7kc6t6eh,32z9zlut1pxsynesz8u6tbmfepghoi,pVdJHChu,2020-0188,2020-06-15,19:48:09,20:13:57,NA,incomplete,15,number,1,right,Blue_Plus_Stripes_1.jpg,Purple_Triangle_Stripes_4.jpg,Green_Circle_Chess_1.jpg,right,1000,true,NA,NA,NA,NA,NA,NA,NA,NA,true
pVdJHChu,3wa2xvdzfpuo2njsi9v42o7kc6t6eh,32z9zlut1pxsynesz8u6tbmfepghoi,pVdJHChu,2020-0188,2020-06-15,19:48:09,20:13:57,NA,incomplete,16,number,1,right,Red_Triangle_Chess_3.jpg,Purple_Circle_Chess_2.jpg,Blue_Star_Grid_3.jpg,right,986,true,NA,NA,NA,NA,NA,NA,NA,NA,true
pVdJHChu,3wa2xvdzfpuo2njsi9v42o7kc6t6eh,32z9zlut1pxsynesz8u6tbmfepghoi,pVdJHChu,2020-0188,2020-06-15,19:48:09,20:13:57,NA,incomplete,17,number,1,right,Green_Circle_Dots_1.jpg,Purple_Triangle_Dots_3.jpg,Blue_Plus_Chess_1.jpg,right,982,true,NA,NA,NA,NA,NA,NA,NA,NA,true
pVdJHChu,3wa2xvdzfpuo2njsi9v42o7kc6t6eh,32z9zlut1pxsynesz8u6tbmfepghoi,pVdJHChu,2020-0188,2020-06-15,19:48:09,20:13:57,NA,incomplete,18,number,0,left,Red_Triangle_Chess_1.jpg,Blue_Plus_Stripes_1.jpg,Purple_Star_Chess_4.jpg,left,1041,true,NA,NA,NA,NA,NA,NA,NA,NA,true
pVdJHChu,3wa2xvdzfpuo2njsi9v42o7kc6t6eh,32z9zlut1pxsynesz8u6tbmfepghoi,pVdJHChu,2020-0188,2020-06-15,19:48:09,20:13:57,NA,incomplete,19,number,1,right,Red_Circle_Dots_1.jpg,Purple_Plus_Dots_4.jpg,Blue_Triangle_Grid_1.jpg,right,1394,true,NA,NA,NA,NA,NA,NA,NA,NA,true
pVdJHChu,3wa2xvdzfpuo2njsi9v42o7kc6t6eh,32z9zlut1pxsynesz8u6tbmfepghoi,pVdJHChu,2020-0188,2020-06-15,19:48:09,20:13:57,NA,incomplete,20,filling,1,left,Green_Star_Dots_3.jpg,Blue_Circle_Dots_4.jpg,Red_Plus_Stripes_3.jpg,right,908,false,NA,NA,NA,NA,NA,NA,NA,NA,true
pVdJHChu,3wa2xvdzfpuo2njsi9v42o7kc6t6eh,32z9zlut1pxsynesz8u6tbmfepghoi,pVdJHChu,2020-0188,2020-06-15,19:48:09,20:13:57,NA,incomplete,21,filling,1,left,Red_Triangle_Chess_1.jpg,Green_Plus_Chess_3.jpg,Blue_Star_Stripes_1.jpg,right,1018,false,NA,NA,NA,NA,NA,NA,NA,NA,true
pVdJHChu,3wa2xvdzfpuo2njsi9v42o7kc6t6eh,32z9zlut1pxsynesz8u6tbmfepghoi,pVdJHChu,2020-0188,2020-06-15,19:48:09,20:13:57,NA,incomplete,22,filling,0,left,Purple_Plus_Chess_3.jpg,Red_Circle_Chess_2.jpg,Green_Star_Grid_3.jpg,right,1772,false,NA,NA,NA,NA,NA,NA,NA,NA,true
pVdJHChu,3wa2xvdzfpuo2njsi9v42o7kc6t6eh,32z9zlut1pxsynesz8u6tbmfepghoi,pVdJHChu,2020-0188,2020-06-15,19:48:09,20:13:57,NA,incomplete,23,filling,1,right,Green_Circle_Stripes_3.jpg,Red_Triangle_Grid_3.jpg,Purple_Star_Stripes_2.jpg,right,1638,true,NA,NA,NA,NA,NA,NA,NA,NA,true
pVdJHChu,3wa2xvdzfpuo2njsi9v42o7kc6t6eh,32z9zlut1pxsynesz8u6tbmfepghoi,pVdJHChu,2020-0188,2020-06-15,19:48:09,20:13:57,NA,incomplete,24,filling,1,left,Purple_Star_Grid_4.jpg,Red_Circle_Grid_3.jpg,Blue_Triangle_Chess_4.jpg,left,1878,true,NA,NA,NA,NA,NA,NA,NA,NA,true
pVdJHChu,3wa2xvdzfpuo2njsi9v42o7kc6t6eh,32z9zlut1pxsynesz8u6tbmfepghoi,pVdJHChu,2020-0188,2020-06-15,19:48:09,20:13:57,NA,incomplete,25,filling,1,right,Purple_Triangle_Grid_3.jpg,Green_Circle_Chess_3.jpg,Blue_Star_Grid_2.jpg,right,1885,true,NA,NA,NA,NA,NA,NA,NA,NA,true
pVdJHChu,3wa2xvdzfpuo2njsi9v42o7kc6t6eh,32z9zlut1pxsynesz8u6tbmfepghoi,pVdJHChu,2020-0188,2020-06-15,19:48:09,20:13:57,NA,incomplete,26,filling,0,right,Blue_Plus_Grid_3.jpg,Red_Star_Stripes_3.jpg,Green_Circle_Grid_2.jpg,right,1756,true,NA,NA,NA,NA,NA,NA,NA,NA,true
pVdJHChu,3wa2xvdzfpuo2njsi9v42o7kc6t6eh,32z9zlut1pxsynesz8u6tbmfepghoi,pVdJHChu,2020-0188,2020-06-15,19:48:09,20:13:57,NA,incomplete,27,filling,1,left,Green_Triangle_Dots_1.jpg,Blue_Circle_Dots_4.jpg,Purple_Plus_Stripes_1.jpg,none,0,false,NA,NA,NA,NA,NA,NA,NA,NA,true
pVdJHChu,3wa2xvdzfpuo2njsi9v42o7kc6t6eh,32z9zlut1pxsynesz8u6tbmfepghoi,pVdJHChu,2020-0188,2020-06-15,19:48:09,20:13:57,NA,incomplete,28,filling,1,left,Green_Triangle_Grid_2.jpg,Purple_Circle_Grid_3.jpg,Blue_Star_Dots_2.jpg,left,1090,true,NA,NA,NA,NA,NA,NA,NA,NA,true
pVdJHChu,3wa2xvdzfpuo2njsi9v42o7kc6t6eh,32z9zlut1pxsynesz8u6tbmfepghoi,pVdJHChu,2020-0188,2020-06-15,19:48:09,20:13:57,NA,incomplete,29,filling,1,right,Blue_Plus_Stripes_4.jpg,Purple_Star_Chess_4.jpg,Red_Circle_Stripes_2.jpg,right,1328,true,NA,NA,NA,NA,NA,NA,NA,NA,true
pVdJHChu,3wa2xvdzfpuo2njsi9v42o7kc6t6eh,32z9zlut1pxsynesz8u6tbmfepghoi,pVdJHChu,2020-0188,2020-06-15,19:48:09,20:13:57,NA,incomplete,30,filling,1,right,Blue_Circle_Dots_3.jpg,Purple_Star_Grid_3.jpg,Red_Triangle_Dots_1.jpg,right,1414,true,NA,NA,NA,NA,NA,NA,NA,NA,true
pVdJHChu,3wa2xvdzfpuo2njsi9v42o7kc6t6eh,32z9zlut1pxsynesz8u6tbmfepghoi,pVdJHChu,2020-0188,2020-06-15,19:48:09,20:13:57,NA,incomplete,31,filling,1,right,Red_Star_Stripes_1.jpg,Purple_Triangle_Grid_1.jpg,Green_Circle_Stripes_2.jpg,right,1455,true,NA,NA,NA,NA,NA,NA,NA,NA,true
pVdJHChu,3wa2xvdzfpuo2njsi9v42o7kc6t6eh,32z9zlut1pxsynesz8u6tbmfepghoi,pVdJHChu,2020-0188,2020-06-15,19:48:09,20:13:57,NA,incomplete,32,filling,0,right,Purple_Triangle_Grid_3.jpg,Blue_Star_Dots_3.jpg,Red_Circle_Grid_2.jpg,right,927,true,NA,NA,NA,NA,NA,NA,NA,NA,true
pVdJHChu,3wa2xvdzfpuo2njsi9v42o7kc6t6eh,32z9zlut1pxsynesz8u6tbmfepghoi,pVdJHChu,2020-0188,2020-06-15,19:48:09,20:13:57,NA,incomplete,33,filling,1,right,Green_Triangle_Chess_2.jpg,Purple_Circle_Stripes_2.jpg,Blue_Plus_Chess_4.jpg,right,1675,true,NA,NA,NA,NA,NA,NA,NA,NA,true
pVdJHChu,3wa2xvdzfpuo2njsi9v42o7kc6t6eh,32z9zlut1pxsynesz8u6tbmfepghoi,pVdJHChu,2020-0188,2020-06-15,19:48:09,20:13:57,NA,incomplete,34,filling,1,right,Red_Circle_Dots_3.jpg,Purple_Plus_Stripes_3.jpg,Blue_Triangle_Dots_2.jpg,right,1426,true,NA,NA,NA,NA,NA,NA,NA,NA,true
pVdJHChu,3wa2xvdzfpuo2njsi9v42o7kc6t6eh,32z9zlut1pxsynesz8u6tbmfepghoi,pVdJHChu,2020-0188,2020-06-15,19:48:09,20:13:57,NA,incomplete,35,filling,1,left,Red_Plus_Stripes_1.jpg,Purple_Star_Stripes_2.jpg,Blue_Triangle_Dots_1.jpg,left,1195,true,NA,NA,NA,NA,NA,NA,NA,NA,true
pVdJHChu,3wa2xvdzfpuo2njsi9v42o7kc6t6eh,32z9zlut1pxsynesz8u6tbmfepghoi,pVdJHChu,2020-0188,2020-06-15,19:48:09,20:13:57,NA,incomplete,36,filling,1,right,Blue_Triangle_Grid_1.jpg,Purple_Circle_Stripes_1.jpg,Green_Star_Grid_3.jpg,right,1326,true,NA,NA,NA,NA,NA,NA,NA,NA,true
pVdJHChu,3wa2xvdzfpuo2njsi9v42o7kc6t6eh,32z9zlut1pxsynesz8u6tbmfepghoi,pVdJHChu,2020-0188,2020-06-15,19:48:09,20:13:57,NA,incomplete,37,filling,1,right,Blue_Star_Stripes_4.jpg,Red_Circle_Grid_4.jpg,Green_Plus_Stripes_1.jpg,right,1404,true,NA,NA,NA,NA,NA,NA,NA,NA,true
pVdJHChu,3wa2xvdzfpuo2njsi9v42o7kc6t6eh,32z9zlut1pxsynesz8u6tbmfepghoi,pVdJHChu,2020-0188,2020-06-15,19:48:09,20:13:57,NA,incomplete,38,filling,1,right,Blue_Star_Grid_1.jpg,Red_Circle_Stripes_1.jpg,Green_Plus_Grid_4.jpg,right,1085,true,NA,NA,NA,NA,NA,NA,NA,NA,true
pVdJHChu,3wa2xvdzfpuo2njsi9v42o7kc6t6eh,32z9zlut1pxsynesz8u6tbmfepghoi,pVdJHChu,2020-0188,2020-06-15,19:48:09,20:13:57,NA,incomplete,39,filling,1,right,Blue_Plus_Chess_2.jpg,Purple_Triangle_Dots_2.jpg,Red_Star_Chess_1.jpg,right,1172,true,NA,NA,NA,NA,NA,NA,NA,NA,true
pVdJHChu,3wa2xvdzfpuo2njsi9v42o7kc6t6eh,32z9zlut1pxsynesz8u6tbmfepghoi,pVdJHChu,2020-0188,2020-06-15,19:48:09,20:13:57,NA,incomplete,0,number,1,right,Purple_Star_Stripes_1.jpg,Blue_Circle_Stripes_4.jpg,Green_Plus_Chess_1.jpg,right,1045,true,high,NA,NA,NA,NA,NA,NA,NA,false
pVdJHChu,3wa2xvdzfpuo2njsi9v42o7kc6t6eh,32z9zlut1pxsynesz8u6tbmfepghoi,pVdJHChu,2020-0188,2020-06-15,19:48:09,20:13:57,NA,incomplete,1,number,1,right,Red_Triangle_Stripes_1.jpg,Green_Circle_Stripes_4.jpg,Purple_Plus_Dots_1.jpg,right,854,true,high,NA,NA,NA,NA,NA,NA,NA,false
pVdJHChu,3wa2xvdzfpuo2njsi9v42o7kc6t6eh,32z9zlut1pxsynesz8u6tbmfepghoi,pVdJHChu,2020-0188,2020-06-15,19:48:09,20:13:57,NA,incomplete,2,number,1,right,Red_Triangle_Grid_4.jpg,Purple_Plus_Grid_3.jpg,Green_Star_Dots_4.jpg,right,1134,true,high,NA,NA,NA,NA,NA,NA,NA,false
pVdJHChu,3wa2xvdzfpuo2njsi9v42o7kc6t6eh,32z9zlut1pxsynesz8u6tbmfepghoi,pVdJHChu,2020-0188,2020-06-15,19:48:09,20:13:57,NA,incomplete,3,number,0,left,Red_Triangle_Chess_4.jpg,Green_Star_Stripes_4.jpg,Purple_Circle_Chess_2.jpg,left,987,true,high,NA,NA,NA,NA,NA,NA,NA,false
pVdJHChu,3wa2xvdzfpuo2njsi9v42o7kc6t6eh,32z9zlut1pxsynesz8u6tbmfepghoi,pVdJHChu,2020-0188,2020-06-15,19:48:09,20:13:57,NA,incomplete,4,number,1,left,Red_Star_Chess_1.jpg,Blue_Triangle_Grid_1.jpg,Green_Circle_Chess_4.jpg,left,830,true,high,NA,NA,NA,NA,NA,NA,NA,false
pVdJHChu,3wa2xvdzfpuo2njsi9v42o7kc6t6eh,32z9zlut1pxsynesz8u6tbmfepghoi,pVdJHChu,2020-0188,2020-06-15,19:48:09,20:13:57,NA,incomplete,5,number,1,right,Green_Triangle_Stripes_2.jpg,Blue_Circle_Stripes_3.jpg,Purple_Plus_Grid_2.jpg,right,929,true,high,NA,NA,NA,NA,NA,NA,NA,false
pVdJHChu,3wa2xvdzfpuo2njsi9v42o7kc6t6eh,32z9zlut1pxsynesz8u6tbmfepghoi,pVdJHChu,2020-0188,2020-06-15,19:48:09,20:13:57,NA,incomplete,6,number,1,right,Green_Triangle_Stripes_2.jpg,Blue_Circle_Stripes_4.jpg,Purple_Plus_Chess_2.jpg,right,1013,true,high,NA,NA,NA,NA,NA,NA,NA,false
pVdJHChu,3wa2xvdzfpuo2njsi9v42o7kc6t6eh,32z9zlut1pxsynesz8u6tbmfepghoi,pVdJHChu,2020-0188,2020-06-15,19:48:09,20:13:57,NA,incomplete,7,number,1,right,Green_Plus_Dots_4.jpg,Purple_Circle_Dots_2.jpg,Blue_Star_Chess_4.jpg,right,927,true,high,NA,NA,NA,NA,NA,NA,NA,false
pVdJHChu,3wa2xvdzfpuo2njsi9v42o7kc6t6eh,32z9zlut1pxsynesz8u6tbmfepghoi,pVdJHChu,2020-0188,2020-06-15,19:48:09,20:13:57,NA,incomplete,8,number,1,right,Purple_Star_Chess_2.jpg,Blue_Plus_Chess_4.jpg,Red_Triangle_Grid_2.jpg,right,797,true,high,NA,NA,NA,NA,NA,NA,NA,false
pVdJHChu,3wa2xvdzfpuo2njsi9v42o7kc6t6eh,32z9zlut1pxsynesz8u6tbmfepghoi,pVdJHChu,2020-0188,2020-06-15,19:48:09,20:13:57,NA,incomplete,9,number,1,right,Red_Plus_Stripes_1.jpg,Green_Triangle_Stripes_2.jpg,Purple_Star_Grid_1.jpg,right,887,true,high,NA,NA,NA,NA,NA,NA,NA,false
pVdJHChu,3wa2xvdzfpuo2njsi9v42o7kc6t6eh,32z9zlut1pxsynesz8u6tbmfepghoi,pVdJHChu,2020-0188,2020-06-15,19:48:09,20:13:57,NA,incomplete,10,filling,1,left,Purple_Triangle_Dots_2.jpg,Blue_Circle_Dots_3.jpg,Green_Star_Grid_2.jpg,right,967,false,high,NA,NA,NA,NA,NA,NA,NA,false
pVdJHChu,3wa2xvdzfpuo2njsi9v42o7kc6t6eh,32z9zlut1pxsynesz8u6tbmfepghoi,pVdJHChu,2020-0188,2020-06-15,19:48:09,20:13:57,NA,incomplete,11,filling,1,right,Blue_Star_Chess_1.jpg,Green_Triangle_Stripes_1.jpg,Red_Circle_Chess_4.jpg,left,1066,false,high,NA,NA,NA,NA,NA,NA,NA,false
pVdJHChu,3wa2xvdzfpuo2njsi9v42o7kc6t6eh,32z9zlut1pxsynesz8u6tbmfepghoi,pVdJHChu,2020-0188,2020-06-15,19:48:09,20:13:57,NA,incomplete,12,filling,0,right,Red_Plus_Stripes_1.jpg,Green_Circle_Dots_1.jpg,Purple_Star_Stripes_2.jpg,right,1114,true,high,NA,NA,NA,NA,NA,NA,NA,false
pVdJHChu,3wa2xvdzfpuo2njsi9v42o7kc6t6eh,32z9zlut1pxsynesz8u6tbmfepghoi,pVdJHChu,2020-0188,2020-06-15,19:48:09,20:13:57,NA,incomplete,13,filling,1,left,Purple_Triangle_Stripes_1.jpg,Blue_Plus_Stripes_4.jpg,Red_Star_Chess_1.jpg,right,1080,false,high,NA,NA,NA,NA,NA,NA,NA,false
pVdJHChu,3wa2xvdzfpuo2njsi9v42o7kc6t6eh,32z9zlut1pxsynesz8u6tbmfepghoi,pVdJHChu,2020-0188,2020-06-15,19:48:09,20:13:57,NA,incomplete,14,filling,1,left,Purple_Plus_Grid_1.jpg,Blue_Star_Grid_2.jpg,Green_Triangle_Dots_1.jpg,left,1303,true,high,NA,NA,NA,NA,NA,NA,NA,false
pVdJHChu,3wa2xvdzfpuo2njsi9v42o7kc6t6eh,32z9zlut1pxsynesz8u6tbmfepghoi,pVdJHChu,2020-0188,2020-06-15,19:48:09,20:13:57,NA,incomplete,15,filling,1,left,Purple_Circle_Stripes_1.jpg,Blue_Plus_Stripes_3.jpg,Green_Triangle_Grid_1.jpg,left,1230,true,high,NA,NA,NA,NA,NA,NA,NA,false
pVdJHChu,3wa2xvdzfpuo2njsi9v42o7kc6t6eh,32z9zlut1pxsynesz8u6tbmfepghoi,pVdJHChu,2020-0188,2020-06-15,19:48:09,20:13:57,NA,incomplete,16,filling,1,right,Blue_Triangle_Grid_4.jpg,Purple_Star_Chess_4.jpg,Red_Plus_Grid_3.jpg,right,1758,true,high,NA,NA,NA,NA,NA,NA,NA,false
pVdJHChu,3wa2xvdzfpuo2njsi9v42o7kc6t6eh,32z9zlut1pxsynesz8u6tbmfepghoi,pVdJHChu,2020-0188,2020-06-15,19:48:09,20:13:57,NA,incomplete,17,filling,0,left,Green_Star_Chess_1.jpg,Red_Circle_Chess_4.jpg,Blue_Plus_Stripes_1.jpg,left,1274,true,high,NA,NA,NA,NA,NA,NA,NA,false
pVdJHChu,3wa2xvdzfpuo2njsi9v42o7kc6t6eh,32z9zlut1pxsynesz8u6tbmfepghoi,pVdJHChu,2020-0188,2020-06-15,19:48:09,20:13:57,NA,incomplete,18,filling,1,left,Red_Triangle_Grid_4.jpg,Purple_Star_Grid_1.jpg,Green_Circle_Stripes_4.jpg,right,873,false,high,NA,NA,NA,NA,NA,NA,NA,false
pVdJHChu,3wa2xvdzfpuo2njsi9v42o7kc6t6eh,32z9zlut1pxsynesz8u6tbmfepghoi,pVdJHChu,2020-0188,2020-06-15,19:48:09,20:13:57,NA,incomplete,19,filling,1,right,Blue_Plus_Grid_4.jpg,Purple_Triangle_Chess_4.jpg,Green_Star_Grid_1.jpg,left,1440,false,high,NA,NA,NA,NA,NA,NA,NA,false
pVdJHChu,3wa2xvdzfpuo2njsi9v42o7kc6t6eh,32z9zlut1pxsynesz8u6tbmfepghoi,pVdJHChu,2020-0188,2020-06-15,19:48:09,20:13:57,NA,incomplete,20,number,0,right,Red_Star_Chess_2.jpg,Blue_Circle_Chess_4.jpg,Purple_Triangle_Grid_2.jpg,right,1025,true,high,NA,NA,NA,NA,NA,NA,NA,false
pVdJHChu,3wa2xvdzfpuo2njsi9v42o7kc6t6eh,32z9zlut1pxsynesz8u6tbmfepghoi,pVdJHChu,2020-0188,2020-06-15,19:48:09,20:13:57,NA,incomplete,21,number,1,left,Green_Star_Grid_3.jpg,Blue_Plus_Dots_3.jpg,Red_Triangle_Grid_4.jpg,right,1227,false,high,NA,NA,NA,NA,NA,NA,NA,false
pVdJHChu,3wa2xvdzfpuo2njsi9v42o7kc6t6eh,32z9zlut1pxsynesz8u6tbmfepghoi,pVdJHChu,2020-0188,2020-06-15,19:48:09,20:13:57,NA,incomplete,22,number,1,left,Green_Circle_Grid_1.jpg,Purple_Plus_Stripes_1.jpg,Red_Triangle_Grid_4.jpg,left,1123,true,high,NA,NA,NA,NA,NA,NA,NA,false
pVdJHChu,3wa2xvdzfpuo2njsi9v42o7kc6t6eh,32z9zlut1pxsynesz8u6tbmfepghoi,pVdJHChu,2020-0188,2020-06-15,19:48:09,20:13:57,NA,incomplete,23,number,0,right,Green_Star_Stripes_3.jpg,Blue_Plus_Stripes_2.jpg,Red_Triangle_Dots_3.jpg,right,802,true,high,NA,NA,NA,NA,NA,NA,NA,false
pVdJHChu,3wa2xvdzfpuo2njsi9v42o7kc6t6eh,32z9zlut1pxsynesz8u6tbmfepghoi,pVdJHChu,2020-0188,2020-06-15,19:48:09,20:13:57,NA,incomplete,24,number,1,left,Purple_Triangle_Chess_2.jpg,Red_Circle_Stripes_2.jpg,Green_Star_Chess_4.jpg,left,1284,true,high,NA,NA,NA,NA,NA,NA,NA,false
pVdJHChu,3wa2xvdzfpuo2njsi9v42o7kc6t6eh,32z9zlut1pxsynesz8u6tbmfepghoi,pVdJHChu,2020-0188,2020-06-15,19:48:09,20:13:57,NA,incomplete,25,number,0,left,Purple_Star_Stripes_3.jpg,Red_Circle_Chess_3.jpg,Blue_Plus_Stripes_2.jpg,left,1020,true,high,NA,NA,NA,NA,NA,NA,NA,false
pVdJHChu,3wa2xvdzfpuo2njsi9v42o7kc6t6eh,32z9zlut1pxsynesz8u6tbmfepghoi,pVdJHChu,2020-0188,2020-06-15,19:48:09,20:13:57,NA,incomplete,26,number,0,right,Blue_Star_Chess_1.jpg,Green_Plus_Chess_3.jpg,Red_Triangle_Dots_1.jpg,left,1452,false,high,NA,NA,NA,NA,NA,NA,NA,false
pVdJHChu,3wa2xvdzfpuo2njsi9v42o7kc6t6eh,32z9zlut1pxsynesz8u6tbmfepghoi,pVdJHChu,2020-0188,2020-06-15,19:48:09,20:13:57,NA,incomplete,27,number,1,left,Red_Star_Dots_1.jpg,Green_Plus_Stripes_1.jpg,Purple_Triangle_Dots_4.jpg,right,1244,false,high,NA,NA,NA,NA,NA,NA,NA,false
pVdJHChu,3wa2xvdzfpuo2njsi9v42o7kc6t6eh,32z9zlut1pxsynesz8u6tbmfepghoi,pVdJHChu,2020-0188,2020-06-15,19:48:09,20:13:57,NA,incomplete,28,number,1,left,Purple_Circle_Dots_1.jpg,Red_Triangle_Chess_1.jpg,Green_Star_Dots_4.jpg,left,901,true,high,NA,NA,NA,NA,NA,NA,NA,false
pVdJHChu,3wa2xvdzfpuo2njsi9v42o7kc6t6eh,32z9zlut1pxsynesz8u6tbmfepghoi,pVdJHChu,2020-0188,2020-06-15,19:48:09,20:13:57,NA,incomplete,29,number,1,right,Green_Star_Chess_3.jpg,Blue_Circle_Chess_2.jpg,Purple_Plus_Dots_3.jpg,right,867,true,high,NA,NA,NA,NA,NA,NA,NA,false
pVdJHChu,3wa2xvdzfpuo2njsi9v42o7kc6t6eh,32z9zlut1pxsynesz8u6tbmfepghoi,pVdJHChu,2020-0188,2020-06-15,19:48:09,20:13:57,NA,incomplete,30,filling,1,left,Blue_Circle_Grid_2.jpg,Green_Star_Grid_1.jpg,Purple_Triangle_Dots_2.jpg,right,1132,false,high,NA,NA,NA,NA,NA,NA,NA,false
pVdJHChu,3wa2xvdzfpuo2njsi9v42o7kc6t6eh,32z9zlut1pxsynesz8u6tbmfepghoi,pVdJHChu,2020-0188,2020-06-15,19:48:09,20:13:57,NA,incomplete,31,filling,1,left,Blue_Circle_Chess_3.jpg,Red_Star_Chess_2.jpg,Purple_Triangle_Dots_3.jpg,left,1329,true,high,NA,NA,NA,NA,NA,NA,NA,false
pVdJHChu,3wa2xvdzfpuo2njsi9v42o7kc6t6eh,32z9zlut1pxsynesz8u6tbmfepghoi,pVdJHChu,2020-0188,2020-06-15,19:48:09,20:13:57,NA,incomplete,32,filling,0,left,Green_Plus_Dots_1.jpg,Blue_Triangle_Dots_3.jpg,Red_Star_Grid_1.jpg,left,1493,true,high,NA,NA,NA,NA,NA,NA,NA,false
pVdJHChu,3wa2xvdzfpuo2njsi9v42o7kc6t6eh,32z9zlut1pxsynesz8u6tbmfepghoi,pVdJHChu,2020-0188,2020-06-15,19:48:09,20:13:57,NA,incomplete,33,filling,1,left,Purple_Circle_Stripes_1.jpg,Blue_Triangle_Stripes_2.jpg,Red_Star_Grid_1.jpg,left,1564,true,high,NA,NA,NA,NA,NA,NA,NA,false
pVdJHChu,3wa2xvdzfpuo2njsi9v42o7kc6t6eh,32z9zlut1pxsynesz8u6tbmfepghoi,pVdJHChu,2020-0188,2020-06-15,19:48:09,20:13:57,NA,incomplete,34,filling,1,left,Purple_Triangle_Chess_3.jpg,Green_Plus_Chess_2.jpg,Blue_Star_Stripes_3.jpg,left,1568,true,high,NA,NA,NA,NA,NA,NA,NA,false
pVdJHChu,3wa2xvdzfpuo2njsi9v42o7kc6t6eh,32z9zlut1pxsynesz8u6tbmfepghoi,pVdJHChu,2020-0188,2020-06-15,19:48:09,20:13:57,NA,incomplete,35,filling,1,left,Red_Plus_Grid_2.jpg,Green_Circle_Grid_3.jpg,Blue_Triangle_Chess_2.jpg,left,1330,true,high,NA,NA,NA,NA,NA,NA,NA,false
pVdJHChu,3wa2xvdzfpuo2njsi9v42o7kc6t6eh,32z9zlut1pxsynesz8u6tbmfepghoi,pVdJHChu,2020-0188,2020-06-15,19:48:09,20:13:57,NA,incomplete,36,filling,1,right,Green_Triangle_Chess_4.jpg,Red_Star_Stripes_4.jpg,Blue_Plus_Chess_1.jpg,left,1425,false,high,NA,NA,NA,NA,NA,NA,NA,false
pVdJHChu,3wa2xvdzfpuo2njsi9v42o7kc6t6eh,32z9zlut1pxsynesz8u6tbmfepghoi,pVdJHChu,2020-0188,2020-06-15,19:48:09,20:13:57,NA,incomplete,37,filling,1,left,Red_Star_Stripes_3.jpg,Blue_Triangle_Stripes_4.jpg,Green_Plus_Dots_3.jpg,right,986,false,high,NA,NA,NA,NA,NA,NA,NA,false
pVdJHChu,3wa2xvdzfpuo2njsi9v42o7kc6t6eh,32z9zlut1pxsynesz8u6tbmfepghoi,pVdJHChu,2020-0188,2020-06-15,19:48:09,20:13:57,NA,incomplete,38,filling,1,right,Blue_Star_Grid_1.jpg,Purple_Plus_Stripes_1.jpg,Red_Triangle_Grid_4.jpg,right,1300,true,high,NA,NA,NA,NA,NA,NA,NA,false
pVdJHChu,3wa2xvdzfpuo2njsi9v42o7kc6t6eh,32z9zlut1pxsynesz8u6tbmfepghoi,pVdJHChu,2020-0188,2020-06-15,19:48:09,20:13:57,NA,incomplete,39,filling,0,right,Blue_Plus_Grid_4.jpg,Purple_Triangle_Dots_4.jpg,Red_Star_Grid_3.jpg,right,1291,true,high,NA,NA,NA,NA,NA,NA,NA,false
pVdJHChu,3wa2xvdzfpuo2njsi9v42o7kc6t6eh,32z9zlut1pxsynesz8u6tbmfepghoi,pVdJHChu,2020-0188,2020-06-15,19:48:09,20:13:57,NA,incomplete,40,number,1,right,Red_Star_Dots_3.jpg,Blue_Plus_Dots_1.jpg,Green_Triangle_Stripes_3.jpg,right,1016,true,high,NA,NA,NA,NA,NA,NA,NA,false
pVdJHChu,3wa2xvdzfpuo2njsi9v42o7kc6t6eh,32z9zlut1pxsynesz8u6tbmfepghoi,pVdJHChu,2020-0188,2020-06-15,19:48:09,20:13:57,NA,incomplete,41,number,1,left,Blue_Plus_Dots_2.jpg,Green_Triangle_Chess_2.jpg,Red_Star_Dots_4.jpg,left,1219,true,high,NA,NA,NA,NA,NA,NA,NA,false
pVdJHChu,3wa2xvdzfpuo2njsi9v42o7kc6t6eh,32z9zlut1pxsynesz8u6tbmfepghoi,pVdJHChu,2020-0188,2020-06-15,19:48:09,20:13:57,NA,incomplete,42,number,1,right,Red_Star_Chess_1.jpg,Purple_Plus_Chess_4.jpg,Green_Circle_Grid_1.jpg,left,1253,false,high,NA,NA,NA,NA,NA,NA,NA,false
pVdJHChu,3wa2xvdzfpuo2njsi9v42o7kc6t6eh,32z9zlut1pxsynesz8u6tbmfepghoi,pVdJHChu,2020-0188,2020-06-15,19:48:09,20:13:57,NA,incomplete,43,number,1,left,Green_Triangle_Dots_2.jpg,Purple_Circle_Chess_2.jpg,Red_Star_Dots_4.jpg,left,1027,true,high,NA,NA,NA,NA,NA,NA,NA,false
pVdJHChu,3wa2xvdzfpuo2njsi9v42o7kc6t6eh,32z9zlut1pxsynesz8u6tbmfepghoi,pVdJHChu,2020-0188,2020-06-15,19:48:09,20:13:57,NA,incomplete,44,number,0,left,Green_Plus_Dots_3.jpg,Purple_Triangle_Grid_3.jpg,Blue_Star_Dots_4.jpg,left,1325,true,high,NA,NA,NA,NA,NA,NA,NA,false
pVdJHChu,3wa2xvdzfpuo2njsi9v42o7kc6t6eh,32z9zlut1pxsynesz8u6tbmfepghoi,pVdJHChu,2020-0188,2020-06-15,19:48:09,20:13:57,NA,incomplete,45,number,1,right,Blue_Circle_Grid_4.jpg,Red_Triangle_Grid_3.jpg,Purple_Star_Stripes_4.jpg,left,1458,false,high,NA,NA,NA,NA,NA,NA,NA,false
pVdJHChu,3wa2xvdzfpuo2njsi9v42o7kc6t6eh,32z9zlut1pxsynesz8u6tbmfepghoi,pVdJHChu,2020-0188,2020-06-15,19:48:09,20:13:57,NA,incomplete,46,number,0,right,Red_Triangle_Dots_1.jpg,Green_Circle_Dots_4.jpg,Blue_Plus_Chess_1.jpg,right,1203,true,high,NA,NA,NA,NA,NA,NA,NA,false
pVdJHChu,3wa2xvdzfpuo2njsi9v42o7kc6t6eh,32z9zlut1pxsynesz8u6tbmfepghoi,pVdJHChu,2020-0188,2020-06-15,19:48:09,20:13:57,NA,incomplete,47,number,1,left,Purple_Circle_Dots_2.jpg,Blue_Plus_Stripes_2.jpg,Red_Triangle_Dots_4.jpg,right,1293,false,high,NA,NA,NA,NA,NA,NA,NA,false
pVdJHChu,3wa2xvdzfpuo2njsi9v42o7kc6t6eh,32z9zlut1pxsynesz8u6tbmfepghoi,pVdJHChu,2020-0188,2020-06-15,19:48:09,20:13:57,NA,incomplete,48,number,1,left,Blue_Star_Chess_1.jpg,Green_Plus_Stripes_1.jpg,Purple_Circle_Chess_3.jpg,left,1035,true,high,NA,NA,NA,NA,NA,NA,NA,false
pVdJHChu,3wa2xvdzfpuo2njsi9v42o7kc6t6eh,32z9zlut1pxsynesz8u6tbmfepghoi,pVdJHChu,2020-0188,2020-06-15,19:48:09,20:13:57,NA,incomplete,49,number,1,left,Purple_Star_Stripes_3.jpg,Red_Circle_Grid_3.jpg,Green_Plus_Stripes_1.jpg,left,1418,true,high,NA,NA,NA,NA,NA,NA,NA,false
pVdJHChu,3wa2xvdzfpuo2njsi9v42o7kc6t6eh,32z9zlut1pxsynesz8u6tbmfepghoi,pVdJHChu,2020-0188,2020-06-15,19:48:09,20:13:57,NA,incomplete,50,filling,1,right,Red_Star_Stripes_4.jpg,Blue_Circle_Chess_4.jpg,Green_Plus_Stripes_2.jpg,left,973,false,high,NA,NA,NA,NA,NA,NA,NA,false
pVdJHChu,3wa2xvdzfpuo2njsi9v42o7kc6t6eh,32z9zlut1pxsynesz8u6tbmfepghoi,pVdJHChu,2020-0188,2020-06-15,19:48:09,20:13:57,NA,incomplete,51,filling,1,right,Red_Triangle_Chess_1.jpg,Purple_Circle_Grid_1.jpg,Green_Plus_Chess_2.jpg,left,1361,false,high,NA,NA,NA,NA,NA,NA,NA,false
pVdJHChu,3wa2xvdzfpuo2njsi9v42o7kc6t6eh,32z9zlut1pxsynesz8u6tbmfepghoi,pVdJHChu,2020-0188,2020-06-15,19:48:09,20:13:57,NA,incomplete,52,filling,0,left,Green_Plus_Dots_1.jpg,Red_Circle_Dots_4.jpg,Blue_Triangle_Grid_1.jpg,right,1716,false,high,NA,NA,NA,NA,NA,NA,NA,false
pVdJHChu,3wa2xvdzfpuo2njsi9v42o7kc6t6eh,32z9zlut1pxsynesz8u6tbmfepghoi,pVdJHChu,2020-0188,2020-06-15,19:48:09,20:13:57,NA,incomplete,53,filling,1,right,Red_Star_Grid_2.jpg,Blue_Triangle_Stripes_2.jpg,Green_Plus_Grid_4.jpg,left,1522,false,high,NA,NA,NA,NA,NA,NA,NA,false
pVdJHChu,3wa2xvdzfpuo2njsi9v42o7kc6t6eh,32z9zlut1pxsynesz8u6tbmfepghoi,pVdJHChu,2020-0188,2020-06-15,19:48:09,20:13:57,NA,incomplete,54,filling,0,left,Red_Circle_Stripes_2.jpg,Green_Triangle_Stripes_3.jpg,Blue_Star_Grid_2.jpg,left,1031,true,high,NA,NA,NA,NA,NA,NA,NA,false
pVdJHChu,3wa2xvdzfpuo2njsi9v42o7kc6t6eh,32z9zlut1pxsynesz8u6tbmfepghoi,pVdJHChu,2020-0188,2020-06-15,19:48:09,20:13:57,NA,incomplete,55,filling,1,right,Green_Star_Dots_4.jpg,Purple_Triangle_Chess_4.jpg,Red_Plus_Dots_3.jpg,left,1576,false,high,NA,NA,NA,NA,NA,NA,NA,false
pVdJHChu,3wa2xvdzfpuo2njsi9v42o7kc6t6eh,32z9zlut1pxsynesz8u6tbmfepghoi,pVdJHChu,2020-0188,2020-06-15,19:48:09,20:13:57,NA,incomplete,56,filling,1,left,Green_Star_Dots_4.jpg,Purple_Plus_Dots_1.jpg,Red_Circle_Stripes_4.jpg,left,1786,true,high,NA,NA,NA,NA,NA,NA,NA,false
pVdJHChu,3wa2xvdzfpuo2njsi9v42o7kc6t6eh,32z9zlut1pxsynesz8u6tbmfepghoi,pVdJHChu,2020-0188,2020-06-15,19:48:09,20:13:57,NA,incomplete,57,filling,1,right,Red_Plus_Dots_2.jpg,Purple_Triangle_Grid_2.jpg,Green_Star_Dots_4.jpg,right,1492,true,high,NA,NA,NA,NA,NA,NA,NA,false
pVdJHChu,3wa2xvdzfpuo2njsi9v42o7kc6t6eh,32z9zlut1pxsynesz8u6tbmfepghoi,pVdJHChu,2020-0188,2020-06-15,19:48:09,20:13:57,NA,incomplete,58,filling,0,right,Red_Star_Dots_4.jpg,Purple_Circle_Stripes_4.jpg,Green_Plus_Dots_2.jpg,right,1676,true,high,NA,NA,NA,NA,NA,NA,NA,false
pVdJHChu,3wa2xvdzfpuo2njsi9v42o7kc6t6eh,32z9zlut1pxsynesz8u6tbmfepghoi,pVdJHChu,2020-0188,2020-06-15,19:48:09,20:13:57,NA,incomplete,59,filling,1,right,Purple_Triangle_Dots_3.jpg,Red_Circle_Grid_3.jpg,Blue_Plus_Dots_1.jpg,left,882,false,high,NA,NA,NA,NA,NA,NA,NA,false
pVdJHChu,3wa2xvdzfpuo2njsi9v42o7kc6t6eh,32z9zlut1pxsynesz8u6tbmfepghoi,pVdJHChu,2020-0188,2020-06-15,19:48:09,20:13:57,NA,incomplete,60,number,1,left,Blue_Star_Chess_2.jpg,Purple_Plus_Dots_2.jpg,Green_Triangle_Chess_4.jpg,right,1752,false,high,NA,NA,NA,NA,NA,NA,NA,false
pVdJHChu,3wa2xvdzfpuo2njsi9v42o7kc6t6eh,32z9zlut1pxsynesz8u6tbmfepghoi,pVdJHChu,2020-0188,2020-06-15,19:48:09,20:13:57,NA,incomplete,61,number,1,right,Green_Triangle_Chess_3.jpg,Purple_Star_Chess_2.jpg,Blue_Plus_Stripes_3.jpg,left,1747,false,high,NA,NA,NA,NA,NA,NA,NA,false
pVdJHChu,3wa2xvdzfpuo2njsi9v42o7kc6t6eh,32z9zlut1pxsynesz8u6tbmfepghoi,pVdJHChu,2020-0188,2020-06-15,19:48:09,20:13:57,NA,incomplete,62,number,0,left,Green_Circle_Stripes_2.jpg,Purple_Star_Dots_2.jpg,Blue_Plus_Stripes_1.jpg,left,1034,true,high,NA,NA,NA,NA,NA,NA,NA,false
pVdJHChu,3wa2xvdzfpuo2njsi9v42o7kc6t6eh,32z9zlut1pxsynesz8u6tbmfepghoi,pVdJHChu,2020-0188,2020-06-15,19:48:09,20:13:57,NA,incomplete,63,number,1,right,Green_Star_Dots_2.jpg,Red_Plus_Dots_3.jpg,Blue_Circle_Stripes_2.jpg,left,1507,false,high,NA,NA,NA,NA,NA,NA,NA,false
pVdJHChu,3wa2xvdzfpuo2njsi9v42o7kc6t6eh,32z9zlut1pxsynesz8u6tbmfepghoi,pVdJHChu,2020-0188,2020-06-15,19:48:09,20:13:57,NA,incomplete,64,number,1,right,Red_Star_Grid_2.jpg,Green_Circle_Grid_4.jpg,Blue_Triangle_Dots_2.jpg,right,1120,true,high,NA,NA,NA,NA,NA,NA,NA,false
pVdJHChu,3wa2xvdzfpuo2njsi9v42o7kc6t6eh,32z9zlut1pxsynesz8u6tbmfepghoi,pVdJHChu,2020-0188,2020-06-15,19:48:09,20:13:57,NA,incomplete,65,number,0,left,Red_Star_Grid_4.jpg,Blue_Plus_Chess_4.jpg,Purple_Triangle_Grid_2.jpg,left,1412,true,high,NA,NA,NA,NA,NA,NA,NA,false
pVdJHChu,3wa2xvdzfpuo2njsi9v42o7kc6t6eh,32z9zlut1pxsynesz8u6tbmfepghoi,pVdJHChu,2020-0188,2020-06-15,19:48:09,20:13:57,NA,incomplete,66,number,1,right,Blue_Circle_Stripes_4.jpg,Green_Star_Stripes_2.jpg,Purple_Triangle_Chess_4.jpg,left,1486,false,high,NA,NA,NA,NA,NA,NA,NA,false
pVdJHChu,3wa2xvdzfpuo2njsi9v42o7kc6t6eh,32z9zlut1pxsynesz8u6tbmfepghoi,pVdJHChu,2020-0188,2020-06-15,19:48:09,20:13:57,NA,incomplete,67,number,1,left,Green_Circle_Dots_3.jpg,Blue_Plus_Chess_3.jpg,Red_Star_Dots_2.jpg,right,1662,false,high,NA,NA,NA,NA,NA,NA,NA,false
pVdJHChu,3wa2xvdzfpuo2njsi9v42o7kc6t6eh,32z9zlut1pxsynesz8u6tbmfepghoi,pVdJHChu,2020-0188,2020-06-15,19:48:09,20:13:57,NA,incomplete,68,number,1,right,Green_Circle_Grid_3.jpg,Red_Plus_Grid_4.jpg,Blue_Triangle_Chess_3.jpg,right,1454,true,high,NA,NA,NA,NA,NA,NA,NA,false
pVdJHChu,3wa2xvdzfpuo2njsi9v42o7kc6t6eh,32z9zlut1pxsynesz8u6tbmfepghoi,pVdJHChu,2020-0188,2020-06-15,19:48:09,20:13:57,NA,incomplete,69,number,1,right,Green_Triangle_Stripes_1.jpg,Blue_Plus_Stripes_3.jpg,Purple_Star_Chess_1.jpg,right,1204,true,high,NA,NA,NA,NA,NA,NA,NA,false
pVdJHChu,3wa2xvdzfpuo2njsi9v42o7kc6t6eh,32z9zlut1pxsynesz8u6tbmfepghoi,pVdJHChu,2020-0188,2020-06-15,19:48:09,20:13:57,NA,incomplete,70,filling,1,right,Green_Star_Stripes_4.jpg,Blue_Circle_Dots_4.jpg,Red_Triangle_Stripes_3.jpg,left,1166,false,high,NA,NA,NA,NA,NA,NA,NA,false
pVdJHChu,3wa2xvdzfpuo2njsi9v42o7kc6t6eh,32z9zlut1pxsynesz8u6tbmfepghoi,pVdJHChu,2020-0188,2020-06-15,19:48:09,20:13:57,NA,incomplete,71,filling,0,left,Blue_Plus_Stripes_2.jpg,Purple_Circle_Stripes_1.jpg,Green_Triangle_Dots_2.jpg,right,1570,false,high,NA,NA,NA,NA,NA,NA,NA,false
pVdJHChu,3wa2xvdzfpuo2njsi9v42o7kc6t6eh,32z9zlut1pxsynesz8u6tbmfepghoi,pVdJHChu,2020-0188,2020-06-15,19:48:09,20:13:57,NA,incomplete,72,filling,1,left,Purple_Circle_Stripes_4.jpg,Red_Triangle_Stripes_3.jpg,Blue_Star_Dots_4.jpg,right,1429,false,high,NA,NA,NA,NA,NA,NA,NA,false
pVdJHChu,3wa2xvdzfpuo2njsi9v42o7kc6t6eh,32z9zlut1pxsynesz8u6tbmfepghoi,pVdJHChu,2020-0188,2020-06-15,19:48:09,20:13:57,NA,incomplete,73,filling,1,left,Red_Triangle_Grid_3.jpg,Green_Circle_Grid_4.jpg,Blue_Plus_Chess_3.jpg,left,1974,true,high,NA,NA,NA,NA,NA,NA,NA,false
pVdJHChu,3wa2xvdzfpuo2njsi9v42o7kc6t6eh,32z9zlut1pxsynesz8u6tbmfepghoi,pVdJHChu,2020-0188,2020-06-15,19:48:09,20:13:57,NA,incomplete,74,filling,1,left,Green_Circle_Stripes_2.jpg,Purple_Star_Stripes_3.jpg,Red_Plus_Grid_2.jpg,left,1544,true,high,NA,NA,NA,NA,NA,NA,NA,false
pVdJHChu,3wa2xvdzfpuo2njsi9v42o7kc6t6eh,32z9zlut1pxsynesz8u6tbmfepghoi,pVdJHChu,2020-0188,2020-06-15,19:48:09,20:13:57,NA,incomplete,75,filling,1,left,Purple_Plus_Chess_4.jpg,Red_Circle_Chess_3.jpg,Blue_Star_Dots_4.jpg,left,1622,true,high,NA,NA,NA,NA,NA,NA,NA,false
pVdJHChu,3wa2xvdzfpuo2njsi9v42o7kc6t6eh,32z9zlut1pxsynesz8u6tbmfepghoi,pVdJHChu,2020-0188,2020-06-15,19:48:09,20:13:57,NA,incomplete,76,filling,1,right,Red_Circle_Dots_4.jpg,Purple_Triangle_Chess_4.jpg,Green_Star_Dots_3.jpg,right,1759,true,high,NA,NA,NA,NA,NA,NA,NA,false
pVdJHChu,3wa2xvdzfpuo2njsi9v42o7kc6t6eh,32z9zlut1pxsynesz8u6tbmfepghoi,pVdJHChu,2020-0188,2020-06-15,19:48:09,20:13:57,NA,incomplete,77,filling,1,left,Green_Plus_Chess_4.jpg,Red_Star_Chess_1.jpg,Blue_Circle_Stripes_4.jpg,left,1297,true,high,NA,NA,NA,NA,NA,NA,NA,false
pVdJHChu,3wa2xvdzfpuo2njsi9v42o7kc6t6eh,32z9zlut1pxsynesz8u6tbmfepghoi,pVdJHChu,2020-0188,2020-06-15,19:48:09,20:13:57,NA,incomplete,78,filling,1,left,Blue_Star_Chess_1.jpg,Green_Plus_Chess_2.jpg,Purple_Triangle_Dots_1.jpg,left,1712,true,high,NA,NA,NA,NA,NA,NA,NA,false
pVdJHChu,3wa2xvdzfpuo2njsi9v42o7kc6t6eh,32z9zlut1pxsynesz8u6tbmfepghoi,pVdJHChu,2020-0188,2020-06-15,19:48:09,20:13:57,NA,incomplete,79,filling,1,left,Green_Star_Dots_3.jpg,Purple_Plus_Dots_2.jpg,Blue_Triangle_Stripes_3.jpg,right,1614,false,high,NA,NA,NA,NA,NA,NA,NA,false
pVdJHChu,3wa2xvdzfpuo2njsi9v42o7kc6t6eh,32z9zlut1pxsynesz8u6tbmfepghoi,pVdJHChu,2020-0188,2020-06-15,19:48:09,20:13:57,NA,incomplete,80,number,1,right,Green_Triangle_Chess_2.jpg,Blue_Star_Chess_4.jpg,Purple_Circle_Dots_2.jpg,left,1335,false,high,NA,NA,NA,NA,NA,NA,NA,false
pVdJHChu,3wa2xvdzfpuo2njsi9v42o7kc6t6eh,32z9zlut1pxsynesz8u6tbmfepghoi,pVdJHChu,2020-0188,2020-06-15,19:48:09,20:13:57,NA,incomplete,81,number,1,left,Purple_Plus_Stripes_2.jpg,Blue_Circle_Chess_2.jpg,Green_Triangle_Stripes_1.jpg,right,1564,false,high,NA,NA,NA,NA,NA,NA,NA,false
pVdJHChu,3wa2xvdzfpuo2njsi9v42o7kc6t6eh,32z9zlut1pxsynesz8u6tbmfepghoi,pVdJHChu,2020-0188,2020-06-15,19:48:09,20:13:57,NA,incomplete,82,number,1,right,Red_Plus_Stripes_3.jpg,Purple_Star_Stripes_4.jpg,Blue_Triangle_Dots_3.jpg,left,1864,false,high,NA,NA,NA,NA,NA,NA,NA,false
pVdJHChu,3wa2xvdzfpuo2njsi9v42o7kc6t6eh,32z9zlut1pxsynesz8u6tbmfepghoi,pVdJHChu,2020-0188,2020-06-15,19:48:09,20:13:57,NA,incomplete,83,number,1,left,Red_Star_Dots_4.jpg,Purple_Plus_Stripes_4.jpg,Green_Triangle_Dots_1.jpg,left,1954,true,high,NA,NA,NA,NA,NA,NA,NA,false
pVdJHChu,3wa2xvdzfpuo2njsi9v42o7kc6t6eh,32z9zlut1pxsynesz8u6tbmfepghoi,pVdJHChu,2020-0188,2020-06-15,19:48:09,20:13:57,NA,incomplete,84,number,0,left,Purple_Circle_Grid_1.jpg,Green_Plus_Stripes_1.jpg,Red_Triangle_Grid_2.jpg,left,1667,true,high,NA,NA,NA,NA,NA,NA,NA,false
pVdJHChu,3wa2xvdzfpuo2njsi9v42o7kc6t6eh,32z9zlut1pxsynesz8u6tbmfepghoi,pVdJHChu,2020-0188,2020-06-15,19:48:09,20:13:57,NA,incomplete,85,number,1,left,Purple_Star_Grid_3.jpg,Red_Triangle_Chess_3.jpg,Green_Plus_Grid_4.jpg,right,1762,false,high,NA,NA,NA,NA,NA,NA,NA,false
pVdJHChu,3wa2xvdzfpuo2njsi9v42o7kc6t6eh,32z9zlut1pxsynesz8u6tbmfepghoi,pVdJHChu,2020-0188,2020-06-15,19:48:09,20:13:57,NA,incomplete,86,number,1,right,Red_Star_Chess_2.jpg,Blue_Triangle_Chess_1.jpg,Green_Plus_Stripes_2.jpg,right,1932,true,high,NA,NA,NA,NA,NA,NA,NA,false
pVdJHChu,3wa2xvdzfpuo2njsi9v42o7kc6t6eh,32z9zlut1pxsynesz8u6tbmfepghoi,pVdJHChu,2020-0188,2020-06-15,19:48:09,20:13:57,NA,incomplete,87,number,1,left,Green_Triangle_Grid_3.jpg,Red_Circle_Dots_3.jpg,Purple_Plus_Grid_1.jpg,left,1050,true,high,NA,NA,NA,NA,NA,NA,NA,false
pVdJHChu,3wa2xvdzfpuo2njsi9v42o7kc6t6eh,32z9zlut1pxsynesz8u6tbmfepghoi,pVdJHChu,2020-0188,2020-06-15,19:48:09,20:13:57,NA,incomplete,88,number,1,left,Purple_Triangle_Stripes_4.jpg,Green_Plus_Grid_4.jpg,Red_Circle_Stripes_2.jpg,left,1675,true,high,NA,NA,NA,NA,NA,NA,NA,false
pVdJHChu,3wa2xvdzfpuo2njsi9v42o7kc6t6eh,32z9zlut1pxsynesz8u6tbmfepghoi,pVdJHChu,2020-0188,2020-06-15,19:48:09,20:13:57,NA,incomplete,89,number,0,right,Green_Plus_Grid_3.jpg,Red_Triangle_Grid_2.jpg,Purple_Star_Chess_3.jpg,right,1641,true,high,NA,NA,NA,NA,NA,NA,NA,false
pVdJHChu,3wa2xvdzfpuo2njsi9v42o7kc6t6eh,32z9zlut1pxsynesz8u6tbmfepghoi,pVdJHChu,2020-0188,2020-06-15,19:48:09,20:13:57,NA,incomplete,90,filling,1,right,Green_Triangle_Dots_4.jpg,Blue_Circle_Stripes_4.jpg,Red_Star_Dots_2.jpg,left,1786,false,high,NA,NA,NA,NA,NA,NA,NA,false
pVdJHChu,3wa2xvdzfpuo2njsi9v42o7kc6t6eh,32z9zlut1pxsynesz8u6tbmfepghoi,pVdJHChu,2020-0188,2020-06-15,19:48:09,20:13:57,NA,incomplete,91,filling,1,left,Green_Triangle_Grid_2.jpg,Purple_Star_Grid_1.jpg,Blue_Plus_Dots_2.jpg,left,1795,true,high,NA,NA,NA,NA,NA,NA,NA,false
pVdJHChu,3wa2xvdzfpuo2njsi9v42o7kc6t6eh,32z9zlut1pxsynesz8u6tbmfepghoi,pVdJHChu,2020-0188,2020-06-15,19:48:09,20:13:57,NA,incomplete,92,filling,1,left,Green_Plus_Stripes_1.jpg,Red_Triangle_Stripes_3.jpg,Purple_Circle_Dots_1.jpg,right,1549,false,high,NA,NA,NA,NA,NA,NA,NA,false
pVdJHChu,3wa2xvdzfpuo2njsi9v42o7kc6t6eh,32z9zlut1pxsynesz8u6tbmfepghoi,pVdJHChu,2020-0188,2020-06-15,19:48:09,20:13:57,NA,incomplete,93,filling,1,left,Blue_Plus_Dots_1.jpg,Red_Triangle_Dots_2.jpg,Green_Star_Chess_1.jpg,left,1402,true,high,NA,NA,NA,NA,NA,NA,NA,false
pVdJHChu,3wa2xvdzfpuo2njsi9v42o7kc6t6eh,32z9zlut1pxsynesz8u6tbmfepghoi,pVdJHChu,2020-0188,2020-06-15,19:48:09,20:13:57,NA,incomplete,94,filling,0,left,Purple_Star_Chess_3.jpg,Green_Plus_Chess_4.jpg,Blue_Triangle_Dots_3.jpg,right,1875,false,high,NA,NA,NA,NA,NA,NA,NA,false
pVdJHChu,3wa2xvdzfpuo2njsi9v42o7kc6t6eh,32z9zlut1pxsynesz8u6tbmfepghoi,pVdJHChu,2020-0188,2020-06-15,19:48:09,20:13:57,NA,incomplete,95,filling,1,right,Red_Star_Dots_3.jpg,Green_Triangle_Grid_3.jpg,Purple_Plus_Dots_4.jpg,left,1123,false,high,NA,NA,NA,NA,NA,NA,NA,false
pVdJHChu,3wa2xvdzfpuo2njsi9v42o7kc6t6eh,32z9zlut1pxsynesz8u6tbmfepghoi,pVdJHChu,2020-0188,2020-06-15,19:48:09,20:13:57,NA,incomplete,96,filling,1,left,Blue_Circle_Chess_2.jpg,Green_Star_Chess_3.jpg,Purple_Plus_Dots_2.jpg,left,1959,true,high,NA,NA,NA,NA,NA,NA,NA,false
pVdJHChu,3wa2xvdzfpuo2njsi9v42o7kc6t6eh,32z9zlut1pxsynesz8u6tbmfepghoi,pVdJHChu,2020-0188,2020-06-15,19:48:09,20:13:57,NA,incomplete,97,filling,1,right,Red_Triangle_Chess_1.jpg,Blue_Plus_Grid_1.jpg,Purple_Circle_Chess_3.jpg,left,1107,false,high,NA,NA,NA,NA,NA,NA,NA,false
pVdJHChu,3wa2xvdzfpuo2njsi9v42o7kc6t6eh,32z9zlut1pxsynesz8u6tbmfepghoi,pVdJHChu,2020-0188,2020-06-15,19:48:09,20:13:57,NA,incomplete,98,filling,0,left,Blue_Plus_Dots_4.jpg,Red_Circle_Dots_1.jpg,Purple_Triangle_Chess_4.jpg,left,1969,true,high,NA,NA,NA,NA,NA,NA,NA,false
pVdJHChu,3wa2xvdzfpuo2njsi9v42o7kc6t6eh,32z9zlut1pxsynesz8u6tbmfepghoi,pVdJHChu,2020-0188,2020-06-15,19:48:09,20:13:57,NA,incomplete,99,filling,1,left,Green_Plus_Stripes_4.jpg,Purple_Circle_Stripes_2.jpg,Blue_Triangle_Grid_4.jpg,left,1579,true,high,NA,NA,NA,NA,NA,NA,NA,false
pVdJHChu,3wa2xvdzfpuo2njsi9v42o7kc6t6eh,32z9zlut1pxsynesz8u6tbmfepghoi,pVdJHChu,2020-0188,2020-06-15,19:48:09,20:13:57,NA,incomplete,100,number,1,left,Green_Plus_Stripes_2.jpg,Blue_Star_Dots_2.jpg,Purple_Circle_Stripes_3.jpg,right,1854,false,high,NA,NA,NA,NA,NA,NA,NA,false
pVdJHChu,3wa2xvdzfpuo2njsi9v42o7kc6t6eh,32z9zlut1pxsynesz8u6tbmfepghoi,pVdJHChu,2020-0188,2020-06-15,19:48:09,20:13:57,NA,incomplete,101,number,1,left,Green_Star_Dots_4.jpg,Purple_Circle_Grid_4.jpg,Red_Triangle_Dots_1.jpg,none,0,false,high,NA,NA,NA,NA,NA,NA,NA,false
pVdJHChu,3wa2xvdzfpuo2njsi9v42o7kc6t6eh,32z9zlut1pxsynesz8u6tbmfepghoi,pVdJHChu,2020-0188,2020-06-15,19:48:09,20:13:57,NA,incomplete,102,number,1,left,Red_Plus_Stripes_3.jpg,Blue_Star_Chess_3.jpg,Purple_Triangle_Stripes_1.jpg,left,1582,true,high,NA,NA,NA,NA,NA,NA,NA,false
pVdJHChu,3wa2xvdzfpuo2njsi9v42o7kc6t6eh,32z9zlut1pxsynesz8u6tbmfepghoi,pVdJHChu,2020-0188,2020-06-15,19:48:09,20:13:57,NA,incomplete,103,number,1,left,Green_Circle_Grid_4.jpg,Purple_Plus_Chess_4.jpg,Blue_Triangle_Grid_2.jpg,left,1242,true,high,NA,NA,NA,NA,NA,NA,NA,false
pVdJHChu,3wa2xvdzfpuo2njsi9v42o7kc6t6eh,32z9zlut1pxsynesz8u6tbmfepghoi,pVdJHChu,2020-0188,2020-06-15,19:48:09,20:13:57,NA,incomplete,104,number,0,left,Red_Plus_Chess_2.jpg,Purple_Star_Grid_2.jpg,Blue_Circle_Chess_4.jpg,left,1132,true,high,NA,NA,NA,NA,NA,NA,NA,false
pVdJHChu,3wa2xvdzfpuo2njsi9v42o7kc6t6eh,32z9zlut1pxsynesz8u6tbmfepghoi,pVdJHChu,2020-0188,2020-06-15,19:48:09,20:13:57,NA,incomplete,105,number,1,left,Purple_Star_Grid_3.jpg,Red_Circle_Chess_3.jpg,Green_Triangle_Grid_4.jpg,right,1735,false,high,NA,NA,NA,NA,NA,NA,NA,false
pVdJHChu,3wa2xvdzfpuo2njsi9v42o7kc6t6eh,32z9zlut1pxsynesz8u6tbmfepghoi,pVdJHChu,2020-0188,2020-06-15,19:48:09,20:13:57,NA,incomplete,106,number,1,left,Purple_Circle_Chess_4.jpg,Red_Star_Grid_4.jpg,Blue_Triangle_Chess_3.jpg,left,1268,true,high,NA,NA,NA,NA,NA,NA,NA,false
pVdJHChu,3wa2xvdzfpuo2njsi9v42o7kc6t6eh,32z9zlut1pxsynesz8u6tbmfepghoi,pVdJHChu,2020-0188,2020-06-15,19:48:09,20:13:57,NA,incomplete,107,number,1,left,Red_Plus_Dots_3.jpg,Green_Triangle_Stripes_3.jpg,Purple_Star_Dots_4.jpg,left,1051,true,high,NA,NA,NA,NA,NA,NA,NA,false
pVdJHChu,3wa2xvdzfpuo2njsi9v42o7kc6t6eh,32z9zlut1pxsynesz8u6tbmfepghoi,pVdJHChu,2020-0188,2020-06-15,19:48:09,20:13:57,NA,incomplete,108,number,1,right,Red_Star_Dots_1.jpg,Green_Circle_Dots_2.jpg,Purple_Triangle_Grid_1.jpg,right,1084,true,high,NA,NA,NA,NA,NA,NA,NA,false
pVdJHChu,3wa2xvdzfpuo2njsi9v42o7kc6t6eh,32z9zlut1pxsynesz8u6tbmfepghoi,pVdJHChu,2020-0188,2020-06-15,19:48:09,20:13:57,NA,incomplete,109,number,1,left,Red_Plus_Stripes_4.jpg,Blue_Triangle_Grid_4.jpg,Green_Circle_Stripes_2.jpg,left,869,true,high,NA,NA,NA,NA,NA,NA,NA,false
pVdJHChu,3wa2xvdzfpuo2njsi9v42o7kc6t6eh,32z9zlut1pxsynesz8u6tbmfepghoi,pVdJHChu,2020-0188,2020-06-15,19:48:09,20:13:57,NA,incomplete,110,filling,0,left,Blue_Circle_Stripes_4.jpg,Red_Triangle_Stripes_3.jpg,Purple_Plus_Dots_4.jpg,right,1331,false,high,NA,NA,NA,NA,NA,NA,NA,false
pVdJHChu,3wa2xvdzfpuo2njsi9v42o7kc6t6eh,32z9zlut1pxsynesz8u6tbmfepghoi,pVdJHChu,2020-0188,2020-06-15,19:48:09,20:13:57,NA,incomplete,111,filling,1,right,Purple_Triangle_Chess_1.jpg,Red_Star_Grid_1.jpg,Blue_Plus_Chess_3.jpg,left,824,false,high,NA,NA,NA,NA,NA,NA,NA,false
pVdJHChu,3wa2xvdzfpuo2njsi9v42o7kc6t6eh,32z9zlut1pxsynesz8u6tbmfepghoi,pVdJHChu,2020-0188,2020-06-15,19:48:09,20:13:57,NA,incomplete,112,filling,1,right,Blue_Triangle_Chess_3.jpg,Green_Plus_Grid_3.jpg,Red_Star_Chess_2.jpg,left,880,false,high,NA,NA,NA,NA,NA,NA,NA,false
pVdJHChu,3wa2xvdzfpuo2njsi9v42o7kc6t6eh,32z9zlut1pxsynesz8u6tbmfepghoi,pVdJHChu,2020-0188,2020-06-15,19:48:09,20:13:57,NA,incomplete,113,filling,1,right,Green_Star_Dots_2.jpg,Red_Plus_Stripes_2.jpg,Purple_Circle_Dots_1.jpg,left,897,false,high,NA,NA,NA,NA,NA,NA,NA,false
pVdJHChu,3wa2xvdzfpuo2njsi9v42o7kc6t6eh,32z9zlut1pxsynesz8u6tbmfepghoi,pVdJHChu,2020-0188,2020-06-15,19:48:09,20:13:57,NA,incomplete,114,filling,0,right,Red_Triangle_Dots_2.jpg,Purple_Circle_Grid_2.jpg,Green_Star_Dots_3.jpg,right,1777,true,high,NA,NA,NA,NA,NA,NA,NA,false
pVdJHChu,3wa2xvdzfpuo2njsi9v42o7kc6t6eh,32z9zlut1pxsynesz8u6tbmfepghoi,pVdJHChu,2020-0188,2020-06-15,19:48:09,20:13:57,NA,incomplete,115,filling,1,left,Red_Star_Grid_1.jpg,Blue_Triangle_Grid_3.jpg,Purple_Plus_Chess_1.jpg,right,1634,false,high,NA,NA,NA,NA,NA,NA,NA,false
pVdJHChu,3wa2xvdzfpuo2njsi9v42o7kc6t6eh,32z9zlut1pxsynesz8u6tbmfepghoi,pVdJHChu,2020-0188,2020-06-15,19:48:09,20:13:57,NA,incomplete,116,filling,1,right,Blue_Plus_Dots_3.jpg,Purple_Star_Stripes_3.jpg,Green_Circle_Dots_4.jpg,left,844,false,high,NA,NA,NA,NA,NA,NA,NA,false
pVdJHChu,3wa2xvdzfpuo2njsi9v42o7kc6t6eh,32z9zlut1pxsynesz8u6tbmfepghoi,pVdJHChu,2020-0188,2020-06-15,19:48:09,20:13:57,NA,incomplete,117,filling,1,right,Purple_Plus_Dots_3.jpg,Green_Circle_Chess_3.jpg,Red_Triangle_Dots_4.jpg,left,1253,false,high,NA,NA,NA,NA,NA,NA,NA,false
pVdJHChu,3wa2xvdzfpuo2njsi9v42o7kc6t6eh,32z9zlut1pxsynesz8u6tbmfepghoi,pVdJHChu,2020-0188,2020-06-15,19:48:09,20:13:57,NA,incomplete,118,filling,1,left,Blue_Star_Chess_3.jpg,Red_Triangle_Chess_2.jpg,Green_Circle_Grid_3.jpg,right,1099,false,high,NA,NA,NA,NA,NA,NA,NA,false
pVdJHChu,3wa2xvdzfpuo2njsi9v42o7kc6t6eh,32z9zlut1pxsynesz8u6tbmfepghoi,pVdJHChu,2020-0188,2020-06-15,19:48:09,20:13:57,NA,incomplete,119,filling,1,right,Red_Circle_Grid_3.jpg,Blue_Triangle_Dots_3.jpg,Green_Plus_Grid_4.jpg,left,1873,false,high,NA,NA,NA,NA,NA,NA,NA,false
pVdJHChu,3wa2xvdzfpuo2njsi9v42o7kc6t6eh,32z9zlut1pxsynesz8u6tbmfepghoi,pVdJHChu,2020-0188,2020-06-15,19:48:09,20:13:57,NA,incomplete,120,shape,1,left,Purple_Plus_Grid_4.jpg,Red_Plus_Chess_1.jpg,Purple_Circle_Dots_2.jpg,NA,NA,NA,high,NA,NA,NA,NA,NA,NA,NA,false
pVdJHChu,3wa2xvdzfpuo2njsi9v42o7kc6t6eh,32z9zlut1pxsynesz8u6tbmfepghoi,pVdJHChu,2020-0188,2020-06-15,19:48:09,20:13:57,NA,incomplete,121,shape,1,left,Green_Star_Chess_3.jpg,Blue_Star_Grid_1.jpg,Green_Triangle_Dots_4.jpg,right,1510,false,high,NA,NA,NA,NA,NA,NA,NA,false
pVdJHChu,3wa2xvdzfpuo2njsi9v42o7kc6t6eh,32z9zlut1pxsynesz8u6tbmfepghoi,pVdJHChu,2020-0188,2020-06-15,19:48:09,20:13:57,NA,incomplete,122,shape,1,right,Blue_Star_Grid_1.jpg,Blue_Triangle_Stripes_2.jpg,Green_Star_Dots_3.jpg,right,1731,true,high,NA,NA,NA,NA,NA,NA,NA,false
pVdJHChu,3wa2xvdzfpuo2njsi9v42o7kc6t6eh,32z9zlut1pxsynesz8u6tbmfepghoi,pVdJHChu,2020-0188,2020-06-15,19:48:09,20:13:57,NA,incomplete,123,shape,1,right,Purple_Star_Dots_3.jpg,Purple_Triangle_Stripes_1.jpg,Green_Star_Grid_4.jpg,right,1569,true,high,NA,NA,NA,NA,NA,NA,NA,false
pVdJHChu,3wa2xvdzfpuo2njsi9v42o7kc6t6eh,32z9zlut1pxsynesz8u6tbmfepghoi,pVdJHChu,2020-0188,2020-06-15,19:48:09,20:13:57,NA,incomplete,124,shape,1,right,Blue_Circle_Grid_2.jpg,Blue_Triangle_Chess_4.jpg,Red_Circle_Stripes_1.jpg,right,1493,true,high,NA,NA,NA,NA,NA,NA,NA,false
pVdJHChu,3wa2xvdzfpuo2njsi9v42o7kc6t6eh,32z9zlut1pxsynesz8u6tbmfepghoi,pVdJHChu,2020-0188,2020-06-15,19:48:09,20:13:57,NA,incomplete,125,shape,1,right,Purple_Triangle_Chess_3.jpg,Purple_Plus_Dots_2.jpg,Blue_Triangle_Stripes_4.jpg,left,1267,false,high,NA,NA,NA,NA,NA,NA,NA,false
pVdJHChu,3wa2xvdzfpuo2njsi9v42o7kc6t6eh,32z9zlut1pxsynesz8u6tbmfepghoi,pVdJHChu,2020-0188,2020-06-15,19:48:09,20:13:57,NA,incomplete,126,shape,1,left,Green_Plus_Stripes_4.jpg,Purple_Plus_Grid_1.jpg,Green_Star_Dots_2.jpg,right,1498,false,high,NA,NA,NA,NA,NA,NA,NA,false
pVdJHChu,3wa2xvdzfpuo2njsi9v42o7kc6t6eh,32z9zlut1pxsynesz8u6tbmfepghoi,pVdJHChu,2020-0188,2020-06-15,19:48:09,20:13:57,NA,incomplete,127,shape,1,left,Purple_Triangle_Grid_2.jpg,Green_Triangle_Stripes_3.jpg,Purple_Star_Dots_4.jpg,right,1745,false,high,NA,NA,NA,NA,NA,NA,NA,false
pVdJHChu,3wa2xvdzfpuo2njsi9v42o7kc6t6eh,32z9zlut1pxsynesz8u6tbmfepghoi,pVdJHChu,2020-0188,2020-06-15,19:48:09,20:13:57,NA,incomplete,128,shape,1,right,Purple_Circle_Stripes_4.jpg,Purple_Star_Grid_2.jpg,Blue_Circle_Dots_3.jpg,left,1436,false,high,NA,NA,NA,NA,NA,NA,NA,false
pVdJHChu,3wa2xvdzfpuo2njsi9v42o7kc6t6eh,32z9zlut1pxsynesz8u6tbmfepghoi,pVdJHChu,2020-0188,2020-06-15,19:48:09,20:13:57,NA,incomplete,129,shape,1,right,Green_Triangle_Grid_2.jpg,Green_Circle_Stripes_3.jpg,Purple_Triangle_Chess_1.jpg,left,1781,false,high,NA,NA,NA,NA,NA,NA,NA,false
pVdJHChu,3wa2xvdzfpuo2njsi9v42o7kc6t6eh,32z9zlut1pxsynesz8u6tbmfepghoi,pVdJHChu,2020-0188,2020-06-15,19:48:09,20:13:57,NA,incomplete,130,shape,0,left,Red_Circle_Dots_3.jpg,Blue_Circle_Stripes_4.jpg,Red_Plus_Chess_2.jpg,left,1320,true,high,NA,NA,NA,NA,NA,NA,NA,false
pVdJHChu,3wa2xvdzfpuo2njsi9v42o7kc6t6eh,32z9zlut1pxsynesz8u6tbmfepghoi,pVdJHChu,2020-0188,2020-06-15,19:48:09,20:13:57,NA,incomplete,131,shape,1,right,Green_Triangle_Dots_1.jpg,Green_Star_Chess_3.jpg,Purple_Triangle_Grid_4.jpg,right,1854,true,high,NA,NA,NA,NA,NA,NA,NA,false
pVdJHChu,3wa2xvdzfpuo2njsi9v42o7kc6t6eh,32z9zlut1pxsynesz8u6tbmfepghoi,pVdJHChu,2020-0188,2020-06-15,19:48:09,20:13:57,NA,incomplete,132,shape,1,right,Purple_Star_Chess_2.jpg,Purple_Circle_Grid_4.jpg,Green_Star_Stripes_1.jpg,right,1308,true,high,NA,NA,NA,NA,NA,NA,NA,false
pVdJHChu,3wa2xvdzfpuo2njsi9v42o7kc6t6eh,32z9zlut1pxsynesz8u6tbmfepghoi,pVdJHChu,2020-0188,2020-06-15,19:48:09,20:13:57,NA,incomplete,133,shape,1,left,Green_Star_Stripes_1.jpg,Red_Star_Grid_3.jpg,Green_Triangle_Dots_2.jpg,left,1058,true,high,NA,NA,NA,NA,NA,NA,NA,false
pVdJHChu,3wa2xvdzfpuo2njsi9v42o7kc6t6eh,32z9zlut1pxsynesz8u6tbmfepghoi,pVdJHChu,2020-0188,2020-06-15,19:48:09,20:13:57,NA,incomplete,134,shape,0,left,Green_Star_Stripes_1.jpg,Purple_Star_Dots_3.jpg,Green_Plus_Chess_4.jpg,left,1241,true,high,NA,NA,NA,NA,NA,NA,NA,false
pVdJHChu,3wa2xvdzfpuo2njsi9v42o7kc6t6eh,32z9zlut1pxsynesz8u6tbmfepghoi,pVdJHChu,2020-0188,2020-06-15,19:48:09,20:13:57,NA,incomplete,135,shape,1,right,Purple_Triangle_Grid_4.jpg,Purple_Star_Stripes_1.jpg,Green_Triangle_Chess_3.jpg,right,1283,true,high,NA,NA,NA,NA,NA,NA,NA,false
pVdJHChu,3wa2xvdzfpuo2njsi9v42o7kc6t6eh,32z9zlut1pxsynesz8u6tbmfepghoi,pVdJHChu,2020-0188,2020-06-15,19:48:09,20:13:57,NA,incomplete,136,shape,1,left,Red_Triangle_Dots_2.jpg,Green_Triangle_Stripes_1.jpg,Red_Star_Grid_3.jpg,left,1314,true,high,NA,NA,NA,NA,NA,NA,NA,false
pVdJHChu,3wa2xvdzfpuo2njsi9v42o7kc6t6eh,32z9zlut1pxsynesz8u6tbmfepghoi,pVdJHChu,2020-0188,2020-06-15,19:48:09,20:13:57,NA,incomplete,137,shape,0,right,Blue_Circle_Stripes_2.jpg,Blue_Star_Chess_3.jpg,Purple_Circle_Dots_4.jpg,right,1244,true,high,NA,NA,NA,NA,NA,NA,NA,false
pVdJHChu,3wa2xvdzfpuo2njsi9v42o7kc6t6eh,32z9zlut1pxsynesz8u6tbmfepghoi,pVdJHChu,2020-0188,2020-06-15,19:48:09,20:13:57,NA,incomplete,138,shape,1,right,Green_Triangle_Chess_2.jpg,Green_Plus_Dots_4.jpg,Red_Triangle_Stripes_3.jpg,right,1344,true,high,NA,NA,NA,NA,NA,NA,NA,false
pVdJHChu,3wa2xvdzfpuo2njsi9v42o7kc6t6eh,32z9zlut1pxsynesz8u6tbmfepghoi,pVdJHChu,2020-0188,2020-06-15,19:48:09,20:13:57,NA,incomplete,139,shape,1,right,Purple_Triangle_Stripes_4.jpg,Purple_Plus_Dots_1.jpg,Blue_Triangle_Chess_2.jpg,right,1116,true,high,NA,NA,NA,NA,NA,NA,NA,false
pVdJHChu,3wa2xvdzfpuo2njsi9v42o7kc6t6eh,32z9zlut1pxsynesz8u6tbmfepghoi,pVdJHChu,2020-0188,2020-06-15,19:48:09,20:13:57,NA,incomplete,140,color,1,right,Red_Triangle_Stripes_3.jpg,Green_Triangle_Chess_1.jpg,Red_Plus_Grid_2.jpg,left,1170,false,high,NA,NA,NA,NA,NA,NA,NA,false
pVdJHChu,3wa2xvdzfpuo2njsi9v42o7kc6t6eh,32z9zlut1pxsynesz8u6tbmfepghoi,pVdJHChu,2020-0188,2020-06-15,19:48:09,20:13:57,NA,incomplete,141,color,0,right,Green_Triangle_Dots_2.jpg,Blue_Triangle_Grid_4.jpg,Green_Star_Stripes_1.jpg,left,806,false,high,NA,NA,NA,NA,NA,NA,NA,false
pVdJHChu,3wa2xvdzfpuo2njsi9v42o7kc6t6eh,32z9zlut1pxsynesz8u6tbmfepghoi,pVdJHChu,2020-0188,2020-06-15,19:48:09,20:13:57,NA,incomplete,142,color,1,right,Red_Star_Grid_2.jpg,Green_Star_Dots_1.jpg,Red_Circle_Stripes_4.jpg,left,918,false,high,NA,NA,NA,NA,NA,NA,NA,false
pVdJHChu,3wa2xvdzfpuo2njsi9v42o7kc6t6eh,32z9zlut1pxsynesz8u6tbmfepghoi,pVdJHChu,2020-0188,2020-06-15,19:48:09,20:13:57,NA,incomplete,143,color,0,right,Red_Circle_Stripes_4.jpg,Green_Circle_Grid_3.jpg,Red_Star_Dots_2.jpg,left,1533,false,high,NA,NA,NA,NA,NA,NA,NA,false
pVdJHChu,3wa2xvdzfpuo2njsi9v42o7kc6t6eh,32z9zlut1pxsynesz8u6tbmfepghoi,pVdJHChu,2020-0188,2020-06-15,19:48:09,20:13:57,NA,incomplete,144,color,1,left,Purple_Star_Chess_3.jpg,Purple_Circle_Stripes_1.jpg,Green_Star_Dots_2.jpg,right,1307,false,high,NA,NA,NA,NA,NA,NA,NA,false
pVdJHChu,3wa2xvdzfpuo2njsi9v42o7kc6t6eh,32z9zlut1pxsynesz8u6tbmfepghoi,pVdJHChu,2020-0188,2020-06-15,19:48:09,20:13:57,NA,incomplete,145,color,1,right,Purple_Circle_Stripes_3.jpg,Blue_Circle_Dots_4.jpg,Purple_Triangle_Grid_2.jpg,right,1448,true,high,NA,NA,NA,NA,NA,NA,NA,false
pVdJHChu,3wa2xvdzfpuo2njsi9v42o7kc6t6eh,32z9zlut1pxsynesz8u6tbmfepghoi,pVdJHChu,2020-0188,2020-06-15,19:48:09,20:13:57,NA,incomplete,146,color,1,right,Red_Triangle_Grid_1.jpg,Green_Triangle_Dots_4.jpg,Red_Circle_Chess_3.jpg,left,1120,false,high,NA,NA,NA,NA,NA,NA,NA,false
pVdJHChu,3wa2xvdzfpuo2njsi9v42o7kc6t6eh,32z9zlut1pxsynesz8u6tbmfepghoi,pVdJHChu,2020-0188,2020-06-15,19:48:09,20:13:57,NA,incomplete,147,color,0,left,Purple_Plus_Chess_3.jpg,Purple_Triangle_Dots_1.jpg,Green_Plus_Stripes_2.jpg,right,1614,false,high,NA,NA,NA,NA,NA,NA,NA,false
pVdJHChu,3wa2xvdzfpuo2njsi9v42o7kc6t6eh,32z9zlut1pxsynesz8u6tbmfepghoi,pVdJHChu,2020-0188,2020-06-15,19:48:09,20:13:57,NA,incomplete,148,color,1,left,Blue_Plus_Chess_1.jpg,Blue_Star_Dots_4.jpg,Red_Plus_Grid_2.jpg,right,1351,false,high,NA,NA,NA,NA,NA,NA,NA,false
pVdJHChu,3wa2xvdzfpuo2njsi9v42o7kc6t6eh,32z9zlut1pxsynesz8u6tbmfepghoi,pVdJHChu,2020-0188,2020-06-15,19:48:09,20:13:57,NA,incomplete,149,color,1,left,Green_Plus_Dots_4.jpg,Green_Triangle_Chess_3.jpg,Red_Plus_Stripes_1.jpg,left,1275,true,high,NA,NA,NA,NA,NA,NA,NA,false
pVdJHChu,3wa2xvdzfpuo2njsi9v42o7kc6t6eh,32z9zlut1pxsynesz8u6tbmfepghoi,pVdJHChu,2020-0188,2020-06-15,19:48:09,20:13:57,NA,incomplete,150,color,0,left,Blue_Star_Grid_2.jpg,Blue_Triangle_Chess_4.jpg,Green_Star_Stripes_3.jpg,left,1155,true,high,NA,NA,NA,NA,NA,NA,NA,false
pVdJHChu,3wa2xvdzfpuo2njsi9v42o7kc6t6eh,32z9zlut1pxsynesz8u6tbmfepghoi,pVdJHChu,2020-0188,2020-06-15,19:48:09,20:13:57,NA,incomplete,151,color,1,right,Green_Plus_Chess_2.jpg,Purple_Plus_Dots_4.jpg,Green_Circle_Grid_3.jpg,right,942,true,high,NA,NA,NA,NA,NA,NA,NA,false
pVdJHChu,3wa2xvdzfpuo2njsi9v42o7kc6t6eh,32z9zlut1pxsynesz8u6tbmfepghoi,pVdJHChu,2020-0188,2020-06-15,19:48:09,20:13:57,NA,incomplete,152,color,1,left,Red_Star_Grid_2.jpg,Red_Circle_Chess_1.jpg,Blue_Star_Dots_3.jpg,left,971,true,high,NA,NA,NA,NA,NA,NA,NA,false
pVdJHChu,3wa2xvdzfpuo2njsi9v42o7kc6t6eh,32z9zlut1pxsynesz8u6tbmfepghoi,pVdJHChu,2020-0188,2020-06-15,19:48:09,20:13:57,NA,incomplete,153,color,0,right,Blue_Plus_Grid_2.jpg,Green_Plus_Dots_3.jpg,Blue_Triangle_Stripes_4.jpg,right,1227,true,high,NA,NA,NA,NA,NA,NA,NA,false
pVdJHChu,3wa2xvdzfpuo2njsi9v42o7kc6t6eh,32z9zlut1pxsynesz8u6tbmfepghoi,pVdJHChu,2020-0188,2020-06-15,19:48:09,20:13:57,NA,incomplete,154,color,1,right,Blue_Plus_Stripes_1.jpg,Purple_Plus_Grid_3.jpg,Blue_Triangle_Dots_4.jpg,right,759,true,high,NA,NA,NA,NA,NA,NA,NA,false
pVdJHChu,3wa2xvdzfpuo2njsi9v42o7kc6t6eh,32z9zlut1pxsynesz8u6tbmfepghoi,pVdJHChu,2020-0188,2020-06-15,19:48:09,20:13:57,NA,incomplete,155,color,1,right,Blue_Star_Grid_3.jpg,Purple_Star_Chess_1.jpg,Blue_Plus_Stripes_2.jpg,right,875,true,high,NA,NA,NA,NA,NA,NA,NA,false
pVdJHChu,3wa2xvdzfpuo2njsi9v42o7kc6t6eh,32z9zlut1pxsynesz8u6tbmfepghoi,pVdJHChu,2020-0188,2020-06-15,19:48:09,20:13:57,NA,incomplete,156,color,1,right,Red_Triangle_Chess_4.jpg,Blue_Triangle_Stripes_2.jpg,Red_Circle_Dots_1.jpg,right,1340,true,high,NA,NA,NA,NA,NA,NA,NA,false
pVdJHChu,3wa2xvdzfpuo2njsi9v42o7kc6t6eh,32z9zlut1pxsynesz8u6tbmfepghoi,pVdJHChu,2020-0188,2020-06-15,19:48:09,20:13:57,NA,incomplete,157,color,0,left,Blue_Triangle_Grid_3.jpg,Blue_Circle_Stripes_1.jpg,Purple_Triangle_Chess_2.jpg,left,999,true,high,NA,NA,NA,NA,NA,NA,NA,false
pVdJHChu,3wa2xvdzfpuo2njsi9v42o7kc6t6eh,32z9zlut1pxsynesz8u6tbmfepghoi,pVdJHChu,2020-0188,2020-06-15,19:48:09,20:13:57,NA,incomplete,158,color,1,left,Green_Triangle_Grid_4.jpg,Green_Plus_Chess_1.jpg,Blue_Triangle_Dots_3.jpg,left,755,true,high,NA,NA,NA,NA,NA,NA,NA,false
pVdJHChu,3wa2xvdzfpuo2njsi9v42o7kc6t6eh,32z9zlut1pxsynesz8u6tbmfepghoi,pVdJHChu,2020-0188,2020-06-15,19:48:09,20:13:57,NA,incomplete,159,color,1,left,Red_Triangle_Dots_1.jpg,Red_Star_Grid_2.jpg,Blue_Triangle_Stripes_3.jpg,left,776,true,high,NA,NA,NA,NA,NA,NA,NA,false
pVdJHChu,3wa2xvdzfpuo2njsi9v42o7kc6t6eh,32z9zlut1pxsynesz8u6tbmfepghoi,pVdJHChu,2020-0188,2020-06-15,19:48:09,20:13:57,NA,incomplete,160,shape,1,left,Blue_Plus_Chess_3.jpg,Red_Plus_Grid_2.jpg,Blue_Star_Dots_4.jpg,right,1179,false,high,NA,NA,NA,NA,NA,NA,NA,false
pVdJHChu,3wa2xvdzfpuo2njsi9v42o7kc6t6eh,32z9zlut1pxsynesz8u6tbmfepghoi,pVdJHChu,2020-0188,2020-06-15,19:48:09,20:13:57,NA,incomplete,161,shape,1,right,Green_Plus_Chess_1.jpg,Green_Circle_Dots_3.jpg,Purple_Plus_Grid_4.jpg,left,900,false,high,NA,NA,NA,NA,NA,NA,NA,false
pVdJHChu,3wa2xvdzfpuo2njsi9v42o7kc6t6eh,32z9zlut1pxsynesz8u6tbmfepghoi,pVdJHChu,2020-0188,2020-06-15,19:48:09,20:13:57,NA,incomplete,162,shape,1,left,Green_Star_Stripes_2.jpg,Blue_Star_Dots_1.jpg,Green_Triangle_Grid_3.jpg,left,1605,true,high,NA,NA,NA,NA,NA,NA,NA,false
pVdJHChu,3wa2xvdzfpuo2njsi9v42o7kc6t6eh,32z9zlut1pxsynesz8u6tbmfepghoi,pVdJHChu,2020-0188,2020-06-15,19:48:09,20:13:57,NA,incomplete,163,shape,1,left,Red_Plus_Grid_2.jpg,Purple_Plus_Dots_3.jpg,Red_Triangle_Stripes_1.jpg,left,1078,true,high,NA,NA,NA,NA,NA,NA,NA,false
pVdJHChu,3wa2xvdzfpuo2njsi9v42o7kc6t6eh,32z9zlut1pxsynesz8u6tbmfepghoi,pVdJHChu,2020-0188,2020-06-15,19:48:09,20:13:57,NA,incomplete,164,shape,1,left,Blue_Circle_Dots_1.jpg,Red_Circle_Grid_4.jpg,Blue_Plus_Stripes_2.jpg,left,1330,true,high,NA,NA,NA,NA,NA,NA,NA,false
pVdJHChu,3wa2xvdzfpuo2njsi9v42o7kc6t6eh,32z9zlut1pxsynesz8u6tbmfepghoi,pVdJHChu,2020-0188,2020-06-15,19:48:09,20:13:57,NA,incomplete,165,shape,0,left,Green_Plus_Chess_3.jpg,Red_Plus_Stripes_4.jpg,Green_Star_Dots_2.jpg,left,1346,true,high,NA,NA,NA,NA,NA,NA,NA,false
pVdJHChu,3wa2xvdzfpuo2njsi9v42o7kc6t6eh,32z9zlut1pxsynesz8u6tbmfepghoi,pVdJHChu,2020-0188,2020-06-15,19:48:09,20:13:57,NA,incomplete,166,shape,1,right,Green_Star_Chess_2.jpg,Green_Plus_Stripes_4.jpg,Red_Star_Grid_3.jpg,right,1679,true,high,NA,NA,NA,NA,NA,NA,NA,false
pVdJHChu,3wa2xvdzfpuo2njsi9v42o7kc6t6eh,32z9zlut1pxsynesz8u6tbmfepghoi,pVdJHChu,2020-0188,2020-06-15,19:48:09,20:13:57,NA,incomplete,167,shape,1,left,Red_Star_Dots_1.jpg,Purple_Star_Stripes_3.jpg,Red_Plus_Grid_2.jpg,left,932,true,high,NA,NA,NA,NA,NA,NA,NA,false
pVdJHChu,3wa2xvdzfpuo2njsi9v42o7kc6t6eh,32z9zlut1pxsynesz8u6tbmfepghoi,pVdJHChu,2020-0188,2020-06-15,19:48:09,20:13:57,NA,incomplete,168,shape,0,right,Purple_Star_Grid_3.jpg,Purple_Circle_Dots_2.jpg,Red_Star_Chess_4.jpg,right,1129,true,high,NA,NA,NA,NA,NA,NA,NA,false
pVdJHChu,3wa2xvdzfpuo2njsi9v42o7kc6t6eh,32z9zlut1pxsynesz8u6tbmfepghoi,pVdJHChu,2020-0188,2020-06-15,19:48:09,20:13:57,NA,incomplete,169,shape,1,left,Purple_Plus_Dots_1.jpg,Blue_Plus_Chess_4.jpg,Purple_Circle_Grid_3.jpg,left,1137,true,high,NA,NA,NA,NA,NA,NA,NA,false
pVdJHChu,3wa2xvdzfpuo2njsi9v42o7kc6t6eh,32z9zlut1pxsynesz8u6tbmfepghoi,pVdJHChu,2020-0188,2020-06-15,19:48:09,20:13:57,NA,incomplete,170,shape,1,left,Purple_Circle_Chess_4.jpg,Blue_Circle_Grid_1.jpg,Purple_Triangle_Dots_3.jpg,left,933,true,high,NA,NA,NA,NA,NA,NA,NA,false
pVdJHChu,3wa2xvdzfpuo2njsi9v42o7kc6t6eh,32z9zlut1pxsynesz8u6tbmfepghoi,pVdJHChu,2020-0188,2020-06-15,19:48:09,20:13:57,NA,incomplete,171,shape,1,right,Purple_Triangle_Chess_4.jpg,Purple_Circle_Dots_2.jpg,Blue_Triangle_Stripes_3.jpg,right,1178,true,high,NA,NA,NA,NA,NA,NA,NA,false
pVdJHChu,3wa2xvdzfpuo2njsi9v42o7kc6t6eh,32z9zlut1pxsynesz8u6tbmfepghoi,pVdJHChu,2020-0188,2020-06-15,19:48:09,20:13:57,NA,incomplete,172,shape,1,left,Blue_Circle_Dots_3.jpg,Green_Circle_Grid_1.jpg,Blue_Triangle_Chess_4.jpg,left,929,true,high,NA,NA,NA,NA,NA,NA,NA,false
pVdJHChu,3wa2xvdzfpuo2njsi9v42o7kc6t6eh,32z9zlut1pxsynesz8u6tbmfepghoi,pVdJHChu,2020-0188,2020-06-15,19:48:09,20:13:57,NA,incomplete,173,shape,0,left,Green_Circle_Dots_3.jpg,Purple_Circle_Grid_4.jpg,Green_Star_Stripes_1.jpg,left,1066,true,high,NA,NA,NA,NA,NA,NA,NA,false
pVdJHChu,3wa2xvdzfpuo2njsi9v42o7kc6t6eh,32z9zlut1pxsynesz8u6tbmfepghoi,pVdJHChu,2020-0188,2020-06-15,19:48:09,20:13:57,NA,incomplete,174,shape,1,left,Green_Star_Dots_1.jpg,Blue_Star_Chess_3.jpg,Green_Plus_Stripes_2.jpg,left,1106,true,high,NA,NA,NA,NA,NA,NA,NA,false
pVdJHChu,3wa2xvdzfpuo2njsi9v42o7kc6t6eh,32z9zlut1pxsynesz8u6tbmfepghoi,pVdJHChu,2020-0188,2020-06-15,19:48:09,20:13:57,NA,incomplete,175,shape,1,left,Green_Circle_Dots_1.jpg,Red_Circle_Chess_3.jpg,Green_Triangle_Grid_2.jpg,left,696,true,high,NA,NA,NA,NA,NA,NA,NA,false
pVdJHChu,3wa2xvdzfpuo2njsi9v42o7kc6t6eh,32z9zlut1pxsynesz8u6tbmfepghoi,pVdJHChu,2020-0188,2020-06-15,19:48:09,20:13:57,NA,incomplete,176,shape,1,right,Red_Star_Stripes_1.jpg,Red_Circle_Chess_3.jpg,Green_Star_Grid_2.jpg,right,1337,true,high,NA,NA,NA,NA,NA,NA,NA,false
pVdJHChu,3wa2xvdzfpuo2njsi9v42o7kc6t6eh,32z9zlut1pxsynesz8u6tbmfepghoi,pVdJHChu,2020-0188,2020-06-15,19:48:09,20:13:57,NA,incomplete,177,shape,1,right,Green_Circle_Grid_3.jpg,Green_Star_Chess_4.jpg,Red_Circle_Stripes_2.jpg,right,1099,true,high,NA,NA,NA,NA,NA,NA,NA,false
pVdJHChu,3wa2xvdzfpuo2njsi9v42o7kc6t6eh,32z9zlut1pxsynesz8u6tbmfepghoi,pVdJHChu,2020-0188,2020-06-15,19:48:09,20:13:57,NA,incomplete,178,shape,1,right,Red_Star_Dots_3.jpg,Red_Circle_Chess_4.jpg,Blue_Star_Grid_2.jpg,right,1099,true,high,NA,NA,NA,NA,NA,NA,NA,false
pVdJHChu,3wa2xvdzfpuo2njsi9v42o7kc6t6eh,32z9zlut1pxsynesz8u6tbmfepghoi,pVdJHChu,2020-0188,2020-06-15,19:48:09,20:13:57,NA,incomplete,179,shape,0,right,Green_Plus_Stripes_2.jpg,Green_Star_Dots_1.jpg,Red_Plus_Chess_4.jpg,right,1106,true,high,NA,NA,NA,NA,NA,NA,NA,false
pVdJHChu,3wa2xvdzfpuo2njsi9v42o7kc6t6eh,32z9zlut1pxsynesz8u6tbmfepghoi,pVdJHChu,2020-0188,2020-06-15,19:48:09,20:13:57,NA,incomplete,180,color,1,left,Blue_Star_Grid_3.jpg,Blue_Circle_Stripes_4.jpg,Red_Star_Chess_2.jpg,right,1174,false,high,NA,NA,NA,NA,NA,NA,NA,false
pVdJHChu,3wa2xvdzfpuo2njsi9v42o7kc6t6eh,32z9zlut1pxsynesz8u6tbmfepghoi,pVdJHChu,2020-0188,2020-06-15,19:48:09,20:13:57,NA,incomplete,181,color,0,left,Blue_Star_Stripes_2.jpg,Blue_Plus_Grid_3.jpg,Purple_Star_Dots_1.jpg,left,1011,true,high,NA,NA,NA,NA,NA,NA,NA,false
pVdJHChu,3wa2xvdzfpuo2njsi9v42o7kc6t6eh,32z9zlut1pxsynesz8u6tbmfepghoi,pVdJHChu,2020-0188,2020-06-15,19:48:09,20:13:57,NA,incomplete,182,color,1,left,Red_Circle_Chess_4.jpg,Red_Star_Grid_3.jpg,Purple_Circle_Dots_2.jpg,left,886,true,high,NA,NA,NA,NA,NA,NA,NA,false
pVdJHChu,3wa2xvdzfpuo2njsi9v42o7kc6t6eh,32z9zlut1pxsynesz8u6tbmfepghoi,pVdJHChu,2020-0188,2020-06-15,19:48:09,20:13:57,NA,incomplete,183,color,1,left,Blue_Triangle_Grid_3.jpg,Blue_Circle_Dots_1.jpg,Red_Triangle_Chess_4.jpg,left,980,true,high,NA,NA,NA,NA,NA,NA,NA,false
pVdJHChu,3wa2xvdzfpuo2njsi9v42o7kc6t6eh,32z9zlut1pxsynesz8u6tbmfepghoi,pVdJHChu,2020-0188,2020-06-15,19:48:09,20:13:57,NA,incomplete,184,color,0,left,Green_Triangle_Grid_1.jpg,Green_Plus_Chess_4.jpg,Purple_Triangle_Stripes_2.jpg,left,1287,true,high,NA,NA,NA,NA,NA,NA,NA,false
pVdJHChu,3wa2xvdzfpuo2njsi9v42o7kc6t6eh,32z9zlut1pxsynesz8u6tbmfepghoi,pVdJHChu,2020-0188,2020-06-15,19:48:09,20:13:57,NA,incomplete,185,color,1,left,Purple_Triangle_Stripes_2.jpg,Purple_Circle_Grid_1.jpg,Green_Triangle_Dots_4.jpg,left,1310,true,high,NA,NA,NA,NA,NA,NA,NA,false
pVdJHChu,3wa2xvdzfpuo2njsi9v42o7kc6t6eh,32z9zlut1pxsynesz8u6tbmfepghoi,pVdJHChu,2020-0188,2020-06-15,19:48:09,20:13:57,NA,incomplete,186,color,1,left,Purple_Triangle_Stripes_4.jpg,Purple_Star_Grid_3.jpg,Green_Triangle_Chess_2.jpg,left,1211,true,high,NA,NA,NA,NA,NA,NA,NA,false
pVdJHChu,3wa2xvdzfpuo2njsi9v42o7kc6t6eh,32z9zlut1pxsynesz8u6tbmfepghoi,pVdJHChu,2020-0188,2020-06-15,19:48:09,20:13:57,NA,incomplete,187,color,0,left,Green_Triangle_Grid_2.jpg,Green_Circle_Dots_3.jpg,Purple_Triangle_Stripes_4.jpg,left,1174,true,high,NA,NA,NA,NA,NA,NA,NA,false
pVdJHChu,3wa2xvdzfpuo2njsi9v42o7kc6t6eh,32z9zlut1pxsynesz8u6tbmfepghoi,pVdJHChu,2020-0188,2020-06-15,19:48:09,20:13:57,NA,incomplete,188,color,1,left,Red_Star_Stripes_1.jpg,Red_Triangle_Dots_4.jpg,Blue_Star_Chess_2.jpg,left,1313,true,high,NA,NA,NA,NA,NA,NA,NA,false
pVdJHChu,3wa2xvdzfpuo2njsi9v42o7kc6t6eh,32z9zlut1pxsynesz8u6tbmfepghoi,pVdJHChu,2020-0188,2020-06-15,19:48:09,20:13:57,NA,incomplete,189,color,1,left,Blue_Star_Grid_2.jpg,Blue_Triangle_Stripes_4.jpg,Green_Star_Chess_3.jpg,left,903,true,high,NA,NA,NA,NA,NA,NA,NA,false
pVdJHChu,3wa2xvdzfpuo2njsi9v42o7kc6t6eh,32z9zlut1pxsynesz8u6tbmfepghoi,pVdJHChu,2020-0188,2020-06-15,19:48:09,20:13:57,NA,incomplete,190,color,1,left,Blue_Circle_Grid_2.jpg,Blue_Triangle_Stripes_4.jpg,Purple_Circle_Chess_3.jpg,left,613,true,high,NA,NA,NA,NA,NA,NA,NA,false
pVdJHChu,3wa2xvdzfpuo2njsi9v42o7kc6t6eh,32z9zlut1pxsynesz8u6tbmfepghoi,pVdJHChu,2020-0188,2020-06-15,19:48:09,20:13:57,NA,incomplete,191,color,0,right,Blue_Star_Grid_3.jpg,Red_Star_Dots_1.jpg,Blue_Circle_Chess_4.jpg,right,823,true,high,NA,NA,NA,NA,NA,NA,NA,false
pVdJHChu,3wa2xvdzfpuo2njsi9v42o7kc6t6eh,32z9zlut1pxsynesz8u6tbmfepghoi,pVdJHChu,2020-0188,2020-06-15,19:48:09,20:13:57,NA,incomplete,192,color,1,left,Red_Circle_Chess_4.jpg,Red_Plus_Grid_1.jpg,Purple_Circle_Dots_3.jpg,left,720,true,high,NA,NA,NA,NA,NA,NA,NA,false
pVdJHChu,3wa2xvdzfpuo2njsi9v42o7kc6t6eh,32z9zlut1pxsynesz8u6tbmfepghoi,pVdJHChu,2020-0188,2020-06-15,19:48:09,20:13:57,NA,incomplete,193,color,0,left,Blue_Star_Stripes_1.jpg,Blue_Plus_Dots_2.jpg,Purple_Star_Chess_4.jpg,left,878,true,high,NA,NA,NA,NA,NA,NA,NA,false
pVdJHChu,3wa2xvdzfpuo2njsi9v42o7kc6t6eh,32z9zlut1pxsynesz8u6tbmfepghoi,pVdJHChu,2020-0188,2020-06-15,19:48:09,20:13:57,NA,incomplete,194,color,1,right,Green_Triangle_Chess_3.jpg,Red_Triangle_Stripes_4.jpg,Green_Star_Dots_2.jpg,right,1125,true,high,NA,NA,NA,NA,NA,NA,NA,false
pVdJHChu,3wa2xvdzfpuo2njsi9v42o7kc6t6eh,32z9zlut1pxsynesz8u6tbmfepghoi,pVdJHChu,2020-0188,2020-06-15,19:48:09,20:13:57,NA,incomplete,195,color,0,right,Green_Star_Stripes_3.jpg,Red_Star_Dots_2.jpg,Green_Plus_Grid_4.jpg,right,826,true,high,NA,NA,NA,NA,NA,NA,NA,false
pVdJHChu,3wa2xvdzfpuo2njsi9v42o7kc6t6eh,32z9zlut1pxsynesz8u6tbmfepghoi,pVdJHChu,2020-0188,2020-06-15,19:48:09,20:13:57,NA,incomplete,196,color,1,right,Red_Star_Stripes_4.jpg,Blue_Star_Grid_2.jpg,Red_Circle_Dots_3.jpg,left,1611,false,high,NA,NA,NA,NA,NA,NA,NA,false
pVdJHChu,3wa2xvdzfpuo2njsi9v42o7kc6t6eh,32z9zlut1pxsynesz8u6tbmfepghoi,pVdJHChu,2020-0188,2020-06-15,19:48:09,20:13:57,NA,incomplete,197,color,1,left,Red_Star_Dots_3.jpg,Red_Triangle_Stripes_1.jpg,Purple_Star_Chess_4.jpg,left,1790,true,high,NA,NA,NA,NA,NA,NA,NA,false
pVdJHChu,3wa2xvdzfpuo2njsi9v42o7kc6t6eh,32z9zlut1pxsynesz8u6tbmfepghoi,pVdJHChu,2020-0188,2020-06-15,19:48:09,20:13:57,NA,incomplete,198,color,1,right,Red_Circle_Grid_4.jpg,Blue_Circle_Stripes_1.jpg,Red_Plus_Dots_2.jpg,right,1067,true,high,NA,NA,NA,NA,NA,NA,NA,false
pVdJHChu,3wa2xvdzfpuo2njsi9v42o7kc6t6eh,32z9zlut1pxsynesz8u6tbmfepghoi,pVdJHChu,2020-0188,2020-06-15,19:48:09,20:13:57,NA,incomplete,199,color,1,left,Blue_Star_Dots_1.jpg,Blue_Plus_Stripes_4.jpg,Purple_Star_Chess_3.jpg,left,768,true,high,NA,NA,NA,NA,NA,NA,NA,false
pVdJHChu,3wa2xvdzfpuo2njsi9v42o7kc6t6eh,32z9zlut1pxsynesz8u6tbmfepghoi,pVdJHChu,2020-0188,2020-06-15,19:48:09,20:13:57,NA,incomplete,200,shape,1,right,Red_Star_Chess_3.jpg,Red_Circle_Grid_2.jpg,Green_Star_Stripes_1.jpg,left,843,false,high,NA,NA,NA,NA,NA,NA,NA,false
pVdJHChu,3wa2xvdzfpuo2njsi9v42o7kc6t6eh,32z9zlut1pxsynesz8u6tbmfepghoi,pVdJHChu,2020-0188,2020-06-15,19:48:09,20:13:57,NA,incomplete,201,shape,1,right,Purple_Circle_Chess_1.jpg,Purple_Plus_Stripes_2.jpg,Red_Circle_Dots_3.jpg,left,1013,false,high,NA,NA,NA,NA,NA,NA,NA,false
pVdJHChu,3wa2xvdzfpuo2njsi9v42o7kc6t6eh,32z9zlut1pxsynesz8u6tbmfepghoi,pVdJHChu,2020-0188,2020-06-15,19:48:09,20:13:57,NA,incomplete,202,shape,0,left,Red_Circle_Grid_3.jpg,Green_Circle_Stripes_1.jpg,Red_Triangle_Chess_2.jpg,left,1630,true,high,NA,NA,NA,NA,NA,NA,NA,false
pVdJHChu,3wa2xvdzfpuo2njsi9v42o7kc6t6eh,32z9zlut1pxsynesz8u6tbmfepghoi,pVdJHChu,2020-0188,2020-06-15,19:48:09,20:13:57,NA,incomplete,203,shape,1,left,Red_Circle_Grid_4.jpg,Green_Circle_Stripes_1.jpg,Red_Star_Dots_3.jpg,right,1471,false,high,NA,NA,NA,NA,NA,NA,NA,false
pVdJHChu,3wa2xvdzfpuo2njsi9v42o7kc6t6eh,32z9zlut1pxsynesz8u6tbmfepghoi,pVdJHChu,2020-0188,2020-06-15,19:48:09,20:13:57,NA,incomplete,204,shape,1,right,Blue_Star_Dots_3.jpg,Blue_Triangle_Chess_1.jpg,Purple_Star_Grid_2.jpg,left,775,false,high,NA,NA,NA,NA,NA,NA,NA,false
pVdJHChu,3wa2xvdzfpuo2njsi9v42o7kc6t6eh,32z9zlut1pxsynesz8u6tbmfepghoi,pVdJHChu,2020-0188,2020-06-15,19:48:09,20:13:57,NA,incomplete,205,shape,1,right,Blue_Plus_Dots_1.jpg,Blue_Star_Stripes_4.jpg,Red_Plus_Grid_3.jpg,right,1708,true,high,NA,NA,NA,NA,NA,NA,NA,false
pVdJHChu,3wa2xvdzfpuo2njsi9v42o7kc6t6eh,32z9zlut1pxsynesz8u6tbmfepghoi,pVdJHChu,2020-0188,2020-06-15,19:48:09,20:13:57,NA,incomplete,206,shape,1,left,Blue_Plus_Grid_3.jpg,Purple_Plus_Dots_1.jpg,Blue_Circle_Stripes_2.jpg,left,855,true,high,NA,NA,NA,NA,NA,NA,NA,false
pVdJHChu,3wa2xvdzfpuo2njsi9v42o7kc6t6eh,32z9zlut1pxsynesz8u6tbmfepghoi,pVdJHChu,2020-0188,2020-06-15,19:48:09,20:13:57,NA,incomplete,207,shape,1,right,Blue_Circle_Chess_3.jpg,Blue_Triangle_Dots_2.jpg,Red_Circle_Grid_4.jpg,right,1831,true,high,NA,NA,NA,NA,NA,NA,NA,false
pVdJHChu,3wa2xvdzfpuo2njsi9v42o7kc6t6eh,32z9zlut1pxsynesz8u6tbmfepghoi,pVdJHChu,2020-0188,2020-06-15,19:48:09,20:13:57,NA,incomplete,208,shape,1,right,Purple_Star_Grid_2.jpg,Purple_Circle_Dots_1.jpg,Blue_Star_Chess_3.jpg,right,888,true,high,NA,NA,NA,NA,NA,NA,NA,false
pVdJHChu,3wa2xvdzfpuo2njsi9v42o7kc6t6eh,32z9zlut1pxsynesz8u6tbmfepghoi,pVdJHChu,2020-0188,2020-06-15,19:48:09,20:13:57,NA,incomplete,209,shape,1,left,Green_Star_Stripes_4.jpg,Red_Star_Dots_2.jpg,Green_Circle_Grid_1.jpg,left,1455,true,high,NA,NA,NA,NA,NA,NA,NA,false
pVdJHChu,3wa2xvdzfpuo2njsi9v42o7kc6t6eh,32z9zlut1pxsynesz8u6tbmfepghoi,pVdJHChu,2020-0188,2020-06-15,19:48:09,20:13:57,NA,incomplete,210,shape,1,right,Blue_Circle_Chess_2.jpg,Blue_Triangle_Dots_4.jpg,Purple_Circle_Stripes_1.jpg,right,1462,true,high,NA,NA,NA,NA,NA,NA,NA,false
pVdJHChu,3wa2xvdzfpuo2njsi9v42o7kc6t6eh,32z9zlut1pxsynesz8u6tbmfepghoi,pVdJHChu,2020-0188,2020-06-15,19:48:09,20:13:57,NA,incomplete,211,shape,1,right,Green_Triangle_Grid_4.jpg,Green_Plus_Stripes_3.jpg,Red_Triangle_Dots_1.jpg,right,1358,true,high,NA,NA,NA,NA,NA,NA,NA,false
pVdJHChu,3wa2xvdzfpuo2njsi9v42o7kc6t6eh,32z9zlut1pxsynesz8u6tbmfepghoi,pVdJHChu,2020-0188,2020-06-15,19:48:09,20:13:57,NA,incomplete,212,shape,1,right,Blue_Plus_Grid_2.jpg,Blue_Star_Stripes_3.jpg,Purple_Plus_Chess_4.jpg,right,1450,true,high,NA,NA,NA,NA,NA,NA,NA,false
pVdJHChu,3wa2xvdzfpuo2njsi9v42o7kc6t6eh,32z9zlut1pxsynesz8u6tbmfepghoi,pVdJHChu,2020-0188,2020-06-15,19:48:09,20:13:57,NA,incomplete,213,shape,1,right,Red_Triangle_Stripes_3.jpg,Red_Plus_Grid_2.jpg,Purple_Triangle_Chess_1.jpg,right,1459,true,high,NA,NA,NA,NA,NA,NA,NA,false
pVdJHChu,3wa2xvdzfpuo2njsi9v42o7kc6t6eh,32z9zlut1pxsynesz8u6tbmfepghoi,pVdJHChu,2020-0188,2020-06-15,19:48:09,20:13:57,NA,incomplete,214,shape,1,right,Purple_Star_Dots_4.jpg,Purple_Circle_Grid_1.jpg,Red_Star_Stripes_2.jpg,right,1162,true,high,NA,NA,NA,NA,NA,NA,NA,false
pVdJHChu,3wa2xvdzfpuo2njsi9v42o7kc6t6eh,32z9zlut1pxsynesz8u6tbmfepghoi,pVdJHChu,2020-0188,2020-06-15,19:48:09,20:13:57,NA,incomplete,215,shape,0,left,Blue_Star_Grid_1.jpg,Green_Star_Chess_2.jpg,Blue_Circle_Dots_3.jpg,left,1173,true,high,NA,NA,NA,NA,NA,NA,NA,false
pVdJHChu,3wa2xvdzfpuo2njsi9v42o7kc6t6eh,32z9zlut1pxsynesz8u6tbmfepghoi,pVdJHChu,2020-0188,2020-06-15,19:48:09,20:13:57,NA,incomplete,216,shape,1,right,Purple_Plus_Dots_2.jpg,Purple_Triangle_Grid_1.jpg,Blue_Plus_Chess_4.jpg,right,1313,true,high,NA,NA,NA,NA,NA,NA,NA,false
pVdJHChu,3wa2xvdzfpuo2njsi9v42o7kc6t6eh,32z9zlut1pxsynesz8u6tbmfepghoi,pVdJHChu,2020-0188,2020-06-15,19:48:09,20:13:57,NA,incomplete,217,shape,1,left,Blue_Star_Stripes_4.jpg,Purple_Star_Grid_2.jpg,Blue_Plus_Dots_1.jpg,left,1255,true,high,NA,NA,NA,NA,NA,NA,NA,false
pVdJHChu,3wa2xvdzfpuo2njsi9v42o7kc6t6eh,32z9zlut1pxsynesz8u6tbmfepghoi,pVdJHChu,2020-0188,2020-06-15,19:48:09,20:13:57,NA,incomplete,218,shape,0,right,Purple_Plus_Grid_4.jpg,Purple_Circle_Dots_3.jpg,Green_Plus_Chess_1.jpg,right,1254,true,high,NA,NA,NA,NA,NA,NA,NA,false
pVdJHChu,3wa2xvdzfpuo2njsi9v42o7kc6t6eh,32z9zlut1pxsynesz8u6tbmfepghoi,pVdJHChu,2020-0188,2020-06-15,19:48:09,20:13:57,NA,incomplete,219,shape,1,right,Green_Circle_Dots_1.jpg,Green_Plus_Stripes_4.jpg,Blue_Circle_Chess_2.jpg,right,1022,true,high,NA,NA,NA,NA,NA,NA,NA,false
pVdJHChu,3wa2xvdzfpuo2njsi9v42o7kc6t6eh,32z9zlut1pxsynesz8u6tbmfepghoi,pVdJHChu,2020-0188,2020-06-15,19:48:09,20:13:57,NA,incomplete,220,color,1,left,Blue_Triangle_Stripes_1.jpg,Blue_Plus_Chess_2.jpg,Green_Triangle_Dots_4.jpg,right,924,false,high,NA,NA,NA,NA,NA,NA,NA,false
pVdJHChu,3wa2xvdzfpuo2njsi9v42o7kc6t6eh,32z9zlut1pxsynesz8u6tbmfepghoi,pVdJHChu,2020-0188,2020-06-15,19:48:09,20:13:57,NA,incomplete,221,color,1,left,Blue_Triangle_Stripes_4.jpg,Blue_Plus_Grid_3.jpg,Green_Triangle_Chess_2.jpg,right,1364,false,high,NA,NA,NA,NA,NA,NA,NA,false
pVdJHChu,3wa2xvdzfpuo2njsi9v42o7kc6t6eh,32z9zlut1pxsynesz8u6tbmfepghoi,pVdJHChu,2020-0188,2020-06-15,19:48:09,20:13:57,NA,incomplete,222,color,1,left,Purple_Triangle_Dots_1.jpg,Purple_Star_Chess_4.jpg,Red_Triangle_Grid_2.jpg,left,826,true,high,NA,NA,NA,NA,NA,NA,NA,false
pVdJHChu,3wa2xvdzfpuo2njsi9v42o7kc6t6eh,32z9zlut1pxsynesz8u6tbmfepghoi,pVdJHChu,2020-0188,2020-06-15,19:48:09,20:13:57,NA,incomplete,223,color,0,left,Green_Plus_Grid_3.jpg,Green_Star_Stripes_4.jpg,Purple_Plus_Chess_1.jpg,left,1083,true,high,NA,NA,NA,NA,NA,NA,NA,false
pVdJHChu,3wa2xvdzfpuo2njsi9v42o7kc6t6eh,32z9zlut1pxsynesz8u6tbmfepghoi,pVdJHChu,2020-0188,2020-06-15,19:48:09,20:13:57,NA,incomplete,224,color,1,left,Green_Circle_Stripes_1.jpg,Green_Triangle_Grid_2.jpg,Purple_Circle_Dots_3.jpg,left,1729,true,high,NA,NA,NA,NA,NA,NA,NA,false
pVdJHChu,3wa2xvdzfpuo2njsi9v42o7kc6t6eh,32z9zlut1pxsynesz8u6tbmfepghoi,pVdJHChu,2020-0188,2020-06-15,19:48:09,20:13:57,NA,incomplete,225,color,1,right,Blue_Star_Chess_4.jpg,Red_Star_Grid_2.jpg,Blue_Circle_Stripes_1.jpg,right,711,true,high,NA,NA,NA,NA,NA,NA,NA,false
pVdJHChu,3wa2xvdzfpuo2njsi9v42o7kc6t6eh,32z9zlut1pxsynesz8u6tbmfepghoi,pVdJHChu,2020-0188,2020-06-15,19:48:09,20:13:57,NA,incomplete,226,color,1,left,Green_Triangle_Grid_3.jpg,Green_Plus_Stripes_4.jpg,Red_Triangle_Dots_1.jpg,left,949,true,high,NA,NA,NA,NA,NA,NA,NA,false
pVdJHChu,3wa2xvdzfpuo2njsi9v42o7kc6t6eh,32z9zlut1pxsynesz8u6tbmfepghoi,pVdJHChu,2020-0188,2020-06-15,19:48:09,20:13:57,NA,incomplete,227,color,1,right,Red_Circle_Chess_4.jpg,Green_Circle_Stripes_3.jpg,Red_Plus_Dots_1.jpg,right,1290,true,high,NA,NA,NA,NA,NA,NA,NA,false
pVdJHChu,3wa2xvdzfpuo2njsi9v42o7kc6t6eh,32z9zlut1pxsynesz8u6tbmfepghoi,pVdJHChu,2020-0188,2020-06-15,19:48:09,20:13:57,NA,incomplete,228,color,0,right,Green_Circle_Chess_3.jpg,Red_Circle_Grid_4.jpg,Green_Triangle_Stripes_1.jpg,right,1151,true,high,NA,NA,NA,NA,NA,NA,NA,false
pVdJHChu,3wa2xvdzfpuo2njsi9v42o7kc6t6eh,32z9zlut1pxsynesz8u6tbmfepghoi,pVdJHChu,2020-0188,2020-06-15,19:48:09,20:13:57,NA,incomplete,229,color,1,left,Purple_Star_Grid_3.jpg,Purple_Plus_Dots_2.jpg,Red_Star_Stripes_1.jpg,left,1052,true,high,NA,NA,NA,NA,NA,NA,NA,false
pVdJHChu,3wa2xvdzfpuo2njsi9v42o7kc6t6eh,32z9zlut1pxsynesz8u6tbmfepghoi,pVdJHChu,2020-0188,2020-06-15,19:48:09,20:13:57,NA,incomplete,230,color,1,left,Red_Circle_Stripes_2.jpg,Red_Plus_Chess_4.jpg,Blue_Circle_Grid_3.jpg,left,1124,true,high,NA,NA,NA,NA,NA,NA,NA,false
pVdJHChu,3wa2xvdzfpuo2njsi9v42o7kc6t6eh,32z9zlut1pxsynesz8u6tbmfepghoi,pVdJHChu,2020-0188,2020-06-15,19:48:09,20:13:57,NA,incomplete,231,color,1,left,Green_Circle_Dots_2.jpg,Green_Plus_Chess_1.jpg,Blue_Circle_Grid_4.jpg,left,1745,true,high,NA,NA,NA,NA,NA,NA,NA,false
pVdJHChu,3wa2xvdzfpuo2njsi9v42o7kc6t6eh,32z9zlut1pxsynesz8u6tbmfepghoi,pVdJHChu,2020-0188,2020-06-15,19:48:09,20:13:57,NA,incomplete,232,color,1,right,Red_Triangle_Chess_1.jpg,Green_Triangle_Grid_4.jpg,Red_Star_Stripes_3.jpg,right,782,true,high,NA,NA,NA,NA,NA,NA,NA,false
pVdJHChu,3wa2xvdzfpuo2njsi9v42o7kc6t6eh,32z9zlut1pxsynesz8u6tbmfepghoi,pVdJHChu,2020-0188,2020-06-15,19:48:09,20:13:57,NA,incomplete,233,color,1,right,Purple_Triangle_Grid_3.jpg,Red_Triangle_Chess_1.jpg,Purple_Plus_Stripes_2.jpg,right,896,true,high,NA,NA,NA,NA,NA,NA,NA,false
pVdJHChu,3wa2xvdzfpuo2njsi9v42o7kc6t6eh,32z9zlut1pxsynesz8u6tbmfepghoi,pVdJHChu,2020-0188,2020-06-15,19:48:09,20:13:57,NA,incomplete,234,color,1,left,Green_Triangle_Chess_3.jpg,Green_Circle_Stripes_4.jpg,Purple_Triangle_Dots_1.jpg,left,784,true,high,NA,NA,NA,NA,NA,NA,NA,false
pVdJHChu,3wa2xvdzfpuo2njsi9v42o7kc6t6eh,32z9zlut1pxsynesz8u6tbmfepghoi,pVdJHChu,2020-0188,2020-06-15,19:48:09,20:13:57,NA,incomplete,235,color,1,left,Red_Circle_Grid_1.jpg,Red_Plus_Stripes_4.jpg,Purple_Circle_Dots_3.jpg,left,1212,true,high,NA,NA,NA,NA,NA,NA,NA,false
pVdJHChu,3wa2xvdzfpuo2njsi9v42o7kc6t6eh,32z9zlut1pxsynesz8u6tbmfepghoi,pVdJHChu,2020-0188,2020-06-15,19:48:09,20:13:57,NA,incomplete,236,color,1,left,Blue_Circle_Dots_3.jpg,Blue_Star_Chess_2.jpg,Purple_Circle_Grid_1.jpg,left,1077,true,high,NA,NA,NA,NA,NA,NA,NA,false
pVdJHChu,3wa2xvdzfpuo2njsi9v42o7kc6t6eh,32z9zlut1pxsynesz8u6tbmfepghoi,pVdJHChu,2020-0188,2020-06-15,19:48:09,20:13:57,NA,incomplete,237,color,1,left,Green_Plus_Stripes_2.jpg,Green_Star_Chess_3.jpg,Red_Plus_Grid_1.jpg,left,1045,true,high,NA,NA,NA,NA,NA,NA,NA,false
pVdJHChu,3wa2xvdzfpuo2njsi9v42o7kc6t6eh,32z9zlut1pxsynesz8u6tbmfepghoi,pVdJHChu,2020-0188,2020-06-15,19:48:09,20:13:57,NA,incomplete,238,color,1,right,Green_Star_Grid_3.jpg,Red_Star_Chess_4.jpg,Green_Triangle_Stripes_2.jpg,right,765,true,high,NA,NA,NA,NA,NA,NA,NA,false
pVdJHChu,3wa2xvdzfpuo2njsi9v42o7kc6t6eh,32z9zlut1pxsynesz8u6tbmfepghoi,pVdJHChu,2020-0188,2020-06-15,19:48:09,20:13:57,NA,incomplete,239,color,1,left,Green_Star_Chess_4.jpg,Green_Plus_Grid_2.jpg,Blue_Star_Stripes_1.jpg,left,681,true,high,NA,NA,NA,NA,NA,NA,NA,false
pVdJHChu,3wa2xvdzfpuo2njsi9v42o7kc6t6eh,32z9zlut1pxsynesz8u6tbmfepghoi,pVdJHChu,2020-0188,2020-06-15,19:48:09,20:13:57,NA,NA,instruction example,number,NA,NA,Red_Plus_Grid_4.jpg,Blue_Triangle_Stripes_4.jpg,Green_Star_Grid_1.jpg,NA,NA,NA,NA,NA,NA,NA,NA,NA,NA,NA,undefined
pVdJHChu,3wa2xvdzfpuo2njsi9v42o7kc6t6eh,32z9zlut1pxsynesz8u6tbmfepghoi,pVdJHChu,2020-0188,2020-06-15,19:48:09,20:13:57,NA,NA,instruction example,number,NA,NA,Purple_Triangle_Grid_3.jpg,Green_Star_Grid_4.jpg,Blue_Plus_Chess_3.jpg,NA,NA,NA,NA,NA,NA,NA,NA,NA,NA,NA,undefined
pVdJHChu,3wa2xvdzfpuo2njsi9v42o7kc6t6eh,32z9zlut1pxsynesz8u6tbmfepghoi,pVdJHChu,2020-0188,2020-06-15,19:48:09,20:13:57,NA,NA,instruction example,number,NA,NA,Purple_Triangle_Stripes_3.jpg,Green_Triangle_Grid_2.jpg,Purple_Plus_Chess_4.jpg,NA,NA,NA,NA,NA,NA,NA,NA,NA,NA,NA,undefined
pVdJHChu,3wa2xvdzfpuo2njsi9v42o7kc6t6eh,32z9zlut1pxsynesz8u6tbmfepghoi,pVdJHChu,2020-0188,2020-06-15,19:48:09,20:13:57,NA,NA,instruction example,number,NA,NA,Green_Plus_Grid_4.jpg,Green_Circle_Chess_2.jpg,Red_Plus_Dots_3.jpg,NA,NA,NA,NA,NA,NA,NA,NA,NA,NA,NA,undefined
pVdJHChu,3wa2xvdzfpuo2njsi9v42o7kc6t6eh,32z9zlut1pxsynesz8u6tbmfepghoi,pVdJHChu,2020-0188,2020-06-15,19:48:09,20:13:57,1387732,1549211,NA,NA,NA,NA,NA,NA,NA,NA,NA,NA,NA,32,White/Caucasian,Male,eastern European,no,yes,no,undefined
