workerId,hitId,assignmentId,subject,studyid,exp_date,exp_start,exp_end,time_start,time_end,trial,type,reward_validity,answer,image_top,image_left,image_right,response,response_time,response_acc,volatility,practice
E3rG5Fgw,3icohx7eofotocxdgkfntnxt5xb0e8,3300dtyqt6ujzp06oke4xdk3v90qe7,E3rG5Fgw,2020-0188,2020-11-18,13:22:11,13:41:19,NA,incomplete,0,number,1,right,Blue_Star_Chess_4.jpg,Purple_Star_Stripes_1.jpg,Red_Triangle_Dots_4.jpg,right,1462.5149999919813,true,NA,true
E3rG5Fgw,3icohx7eofotocxdgkfntnxt5xb0e8,3300dtyqt6ujzp06oke4xdk3v90qe7,E3rG5Fgw,2020-0188,2020-11-18,13:22:11,13:41:19,NA,incomplete,1,number,0,right,Red_Circle_Grid_4.jpg,Blue_Circle_Dots_1.jpg,Purple_Triangle_Stripes_4.jpg,right,1199.7199999750592,true,NA,true
E3rG5Fgw,3icohx7eofotocxdgkfntnxt5xb0e8,3300dtyqt6ujzp06oke4xdk3v90qe7,E3rG5Fgw,2020-0188,2020-11-18,13:22:11,13:41:19,NA,incomplete,2,number,0,right,Blue_Triangle_Grid_1.jpg,Red_Triangle_Dots_4.jpg,Purple_Star_Stripes_1.jpg,left,980.1750000042375,false,NA,true
E3rG5Fgw,3icohx7eofotocxdgkfntnxt5xb0e8,3300dtyqt6ujzp06oke4xdk3v90qe7,E3rG5Fgw,2020-0188,2020-11-18,13:22:11,13:41:19,NA,incomplete,3,number,1,right,Green_Circle_Chess_2.jpg,Red_Circle_Dots_4.jpg,Blue_Plus_Grid_2.jpg,right,1297.4099999992177,true,NA,true
E3rG5Fgw,3icohx7eofotocxdgkfntnxt5xb0e8,3300dtyqt6ujzp06oke4xdk3v90qe7,E3rG5Fgw,2020-0188,2020-11-18,13:22:11,13:41:19,NA,incomplete,4,number,1,left,Purple_Plus_Grid_4.jpg,Blue_Star_Stripes_4.jpg,Red_Plus_Chess_1.jpg,left,911.6900000080932,true,NA,true
E3rG5Fgw,3icohx7eofotocxdgkfntnxt5xb0e8,3300dtyqt6ujzp06oke4xdk3v90qe7,E3rG5Fgw,2020-0188,2020-11-18,13:22:11,13:41:19,NA,incomplete,5,number,1,left,Green_Triangle_Stripes_4.jpg,Purple_Plus_Dots_4.jpg,Blue_Triangle_Grid_2.jpg,left,1431.2299999874085,true,NA,true
E3rG5Fgw,3icohx7eofotocxdgkfntnxt5xb0e8,3300dtyqt6ujzp06oke4xdk3v90qe7,E3rG5Fgw,2020-0188,2020-11-18,13:22:11,13:41:19,NA,incomplete,6,number,1,left,Red_Star_Dots_4.jpg,Blue_Triangle_Stripes_4.jpg,Purple_Star_Grid_1.jpg,left,1267.1299999929033,true,NA,true
E3rG5Fgw,3icohx7eofotocxdgkfntnxt5xb0e8,3300dtyqt6ujzp06oke4xdk3v90qe7,E3rG5Fgw,2020-0188,2020-11-18,13:22:11,13:41:19,NA,incomplete,7,number,1,left,Red_Circle_Stripes_3.jpg,Purple_Star_Chess_3.jpg,Green_Circle_Dots_2.jpg,left,1395.2299999946263,true,NA,true
E3rG5Fgw,3icohx7eofotocxdgkfntnxt5xb0e8,3300dtyqt6ujzp06oke4xdk3v90qe7,E3rG5Fgw,2020-0188,2020-11-18,13:22:11,13:41:19,NA,incomplete,8,number,1,left,Green_Circle_Stripes_4.jpg,Blue_Triangle_Dots_4.jpg,Purple_Circle_Grid_2.jpg,left,894.8899999959394,true,NA,true
E3rG5Fgw,3icohx7eofotocxdgkfntnxt5xb0e8,3300dtyqt6ujzp06oke4xdk3v90qe7,E3rG5Fgw,2020-0188,2020-11-18,13:22:11,13:41:19,NA,incomplete,9,number,0,right,Purple_Circle_Grid_3.jpg,Green_Circle_Stripes_4.jpg,Red_Plus_Dots_3.jpg,right,742.1599999943282,true,NA,true
E3rG5Fgw,3icohx7eofotocxdgkfntnxt5xb0e8,3300dtyqt6ujzp06oke4xdk3v90qe7,E3rG5Fgw,2020-0188,2020-11-18,13:22:11,13:41:19,NA,incomplete,10,number,1,left,Blue_Circle_Chess_3.jpg,Green_Plus_Dots_3.jpg,Red_Circle_Stripes_4.jpg,left,1013.5050000099,true,NA,true
E3rG5Fgw,3icohx7eofotocxdgkfntnxt5xb0e8,3300dtyqt6ujzp06oke4xdk3v90qe7,E3rG5Fgw,2020-0188,2020-11-18,13:22:11,13:41:19,NA,incomplete,11,number,1,left,Blue_Plus_Dots_1.jpg,Red_Triangle_Chess_1.jpg,Green_Plus_Stripes_4.jpg,left,784.5450000022538,true,NA,true
E3rG5Fgw,3icohx7eofotocxdgkfntnxt5xb0e8,3300dtyqt6ujzp06oke4xdk3v90qe7,E3rG5Fgw,2020-0188,2020-11-18,13:22:11,13:41:19,NA,incomplete,12,number,1,left,Purple_Circle_Chess_1.jpg,Red_Triangle_Stripes_1.jpg,Blue_Circle_Grid_3.jpg,left,812.3750000086147,true,NA,true
E3rG5Fgw,3icohx7eofotocxdgkfntnxt5xb0e8,3300dtyqt6ujzp06oke4xdk3v90qe7,E3rG5Fgw,2020-0188,2020-11-18,13:22:11,13:41:19,NA,incomplete,13,number,1,left,Blue_Plus_Chess_1.jpg,Green_Triangle_Stripes_1.jpg,Red_Plus_Dots_3.jpg,left,567.3999999999069,true,NA,true
E3rG5Fgw,3icohx7eofotocxdgkfntnxt5xb0e8,3300dtyqt6ujzp06oke4xdk3v90qe7,E3rG5Fgw,2020-0188,2020-11-18,13:22:11,13:41:19,NA,incomplete,14,number,1,left,Green_Star_Grid_2.jpg,Blue_Triangle_Chess_2.jpg,Red_Star_Dots_1.jpg,left,891.7950000031851,true,NA,true
E3rG5Fgw,3icohx7eofotocxdgkfntnxt5xb0e8,3300dtyqt6ujzp06oke4xdk3v90qe7,E3rG5Fgw,2020-0188,2020-11-18,13:22:11,13:41:19,NA,incomplete,15,number,0,left,Purple_Triangle_Dots_3.jpg,Red_Plus_Stripes_3.jpg,Green_Triangle_Grid_1.jpg,left,867.9399999964517,true,NA,true
E3rG5Fgw,3icohx7eofotocxdgkfntnxt5xb0e8,3300dtyqt6ujzp06oke4xdk3v90qe7,E3rG5Fgw,2020-0188,2020-11-18,13:22:11,13:41:19,NA,incomplete,16,number,1,right,Purple_Circle_Dots_3.jpg,Blue_Circle_Stripes_4.jpg,Green_Plus_Chess_3.jpg,left,940.4449999856297,false,NA,true
E3rG5Fgw,3icohx7eofotocxdgkfntnxt5xb0e8,3300dtyqt6ujzp06oke4xdk3v90qe7,E3rG5Fgw,2020-0188,2020-11-18,13:22:11,13:41:19,NA,incomplete,17,number,1,left,Red_Triangle_Grid_2.jpg,Blue_Circle_Chess_2.jpg,Green_Triangle_Dots_1.jpg,left,850.9400000039022,true,NA,true
E3rG5Fgw,3icohx7eofotocxdgkfntnxt5xb0e8,3300dtyqt6ujzp06oke4xdk3v90qe7,E3rG5Fgw,2020-0188,2020-11-18,13:22:11,13:41:19,NA,incomplete,18,number,1,right,Red_Star_Chess_2.jpg,Purple_Star_Dots_3.jpg,Green_Circle_Grid_2.jpg,right,938.914999976987,true,NA,true
E3rG5Fgw,3icohx7eofotocxdgkfntnxt5xb0e8,3300dtyqt6ujzp06oke4xdk3v90qe7,E3rG5Fgw,2020-0188,2020-11-18,13:22:11,13:41:19,NA,incomplete,19,number,1,right,Red_Plus_Stripes_4.jpg,Green_Plus_Grid_2.jpg,Purple_Triangle_Dots_4.jpg,right,880.6850000109989,true,NA,true
E3rG5Fgw,3icohx7eofotocxdgkfntnxt5xb0e8,3300dtyqt6ujzp06oke4xdk3v90qe7,E3rG5Fgw,2020-0188,2020-11-18,13:22:11,13:41:19,NA,incomplete,20,shape,1,left,Red_Plus_Dots_1.jpg,Blue_Plus_Grid_3.jpg,Green_Star_Stripes_1.jpg,left,1521.874999976717,true,NA,true
E3rG5Fgw,3icohx7eofotocxdgkfntnxt5xb0e8,3300dtyqt6ujzp06oke4xdk3v90qe7,E3rG5Fgw,2020-0188,2020-11-18,13:22:11,13:41:19,NA,incomplete,21,shape,1,right,Red_Plus_Stripes_4.jpg,Green_Star_Chess_4.jpg,Blue_Plus_Dots_3.jpg,right,1040.7549999945331,true,NA,true
E3rG5Fgw,3icohx7eofotocxdgkfntnxt5xb0e8,3300dtyqt6ujzp06oke4xdk3v90qe7,E3rG5Fgw,2020-0188,2020-11-18,13:22:11,13:41:19,NA,incomplete,22,shape,1,left,Red_Star_Stripes_2.jpg,Green_Star_Grid_1.jpg,Purple_Circle_Chess_2.jpg,left,977.3050000076182,true,NA,true
E3rG5Fgw,3icohx7eofotocxdgkfntnxt5xb0e8,3300dtyqt6ujzp06oke4xdk3v90qe7,E3rG5Fgw,2020-0188,2020-11-18,13:22:11,13:41:19,NA,incomplete,23,shape,1,right,Purple_Plus_Grid_4.jpg,Blue_Triangle_Dots_4.jpg,Red_Plus_Chess_2.jpg,right,926.9999999960419,true,NA,true
E3rG5Fgw,3icohx7eofotocxdgkfntnxt5xb0e8,3300dtyqt6ujzp06oke4xdk3v90qe7,E3rG5Fgw,2020-0188,2020-11-18,13:22:11,13:41:19,NA,incomplete,24,shape,1,right,Green_Star_Stripes_3.jpg,Blue_Triangle_Grid_3.jpg,Purple_Star_Dots_2.jpg,right,998.2200000085868,true,NA,true
E3rG5Fgw,3icohx7eofotocxdgkfntnxt5xb0e8,3300dtyqt6ujzp06oke4xdk3v90qe7,E3rG5Fgw,2020-0188,2020-11-18,13:22:11,13:41:19,NA,incomplete,25,shape,0,left,Green_Star_Dots_1.jpg,Red_Star_Grid_4.jpg,Purple_Plus_Stripes_1.jpg,left,945.7200000179,true,NA,true
E3rG5Fgw,3icohx7eofotocxdgkfntnxt5xb0e8,3300dtyqt6ujzp06oke4xdk3v90qe7,E3rG5Fgw,2020-0188,2020-11-18,13:22:11,13:41:19,NA,incomplete,26,shape,1,right,Blue_Star_Stripes_1.jpg,Green_Triangle_Grid_1.jpg,Red_Star_Chess_3.jpg,right,840.2099999948405,true,NA,true
E3rG5Fgw,3icohx7eofotocxdgkfntnxt5xb0e8,3300dtyqt6ujzp06oke4xdk3v90qe7,E3rG5Fgw,2020-0188,2020-11-18,13:22:11,13:41:19,NA,incomplete,27,shape,0,left,Red_Star_Chess_4.jpg,Green_Star_Dots_2.jpg,Purple_Circle_Stripes_4.jpg,left,825.2100000099745,true,NA,true
E3rG5Fgw,3icohx7eofotocxdgkfntnxt5xb0e8,3300dtyqt6ujzp06oke4xdk3v90qe7,E3rG5Fgw,2020-0188,2020-11-18,13:22:11,13:41:19,NA,incomplete,28,shape,0,left,Blue_Circle_Chess_2.jpg,Green_Circle_Dots_3.jpg,Purple_Star_Stripes_2.jpg,left,1123.8200000079814,true,NA,true
E3rG5Fgw,3icohx7eofotocxdgkfntnxt5xb0e8,3300dtyqt6ujzp06oke4xdk3v90qe7,E3rG5Fgw,2020-0188,2020-11-18,13:22:11,13:41:19,NA,incomplete,29,shape,1,left,Blue_Circle_Grid_4.jpg,Red_Circle_Stripes_3.jpg,Purple_Triangle_Dots_4.jpg,left,1217.6449999969918,true,NA,true
E3rG5Fgw,3icohx7eofotocxdgkfntnxt5xb0e8,3300dtyqt6ujzp06oke4xdk3v90qe7,E3rG5Fgw,2020-0188,2020-11-18,13:22:11,13:41:19,NA,incomplete,30,shape,0,left,Blue_Triangle_Stripes_2.jpg,Red_Triangle_Chess_4.jpg,Purple_Plus_Grid_2.jpg,left,1797.2400000144262,true,NA,true
E3rG5Fgw,3icohx7eofotocxdgkfntnxt5xb0e8,3300dtyqt6ujzp06oke4xdk3v90qe7,E3rG5Fgw,2020-0188,2020-11-18,13:22:11,13:41:19,NA,incomplete,31,shape,1,left,Green_Star_Dots_4.jpg,Red_Star_Chess_1.jpg,Blue_Circle_Grid_4.jpg,left,832.3300000047311,true,NA,true
E3rG5Fgw,3icohx7eofotocxdgkfntnxt5xb0e8,3300dtyqt6ujzp06oke4xdk3v90qe7,E3rG5Fgw,2020-0188,2020-11-18,13:22:11,13:41:19,NA,incomplete,32,shape,1,left,Red_Star_Chess_1.jpg,Blue_Star_Stripes_2.jpg,Green_Triangle_Dots_1.jpg,left,851.3849999872036,true,NA,true
E3rG5Fgw,3icohx7eofotocxdgkfntnxt5xb0e8,3300dtyqt6ujzp06oke4xdk3v90qe7,E3rG5Fgw,2020-0188,2020-11-18,13:22:11,13:41:19,NA,incomplete,33,shape,1,left,Green_Circle_Chess_3.jpg,Purple_Circle_Grid_1.jpg,Blue_Plus_Stripes_3.jpg,left,732.6349999930244,true,NA,true
E3rG5Fgw,3icohx7eofotocxdgkfntnxt5xb0e8,3300dtyqt6ujzp06oke4xdk3v90qe7,E3rG5Fgw,2020-0188,2020-11-18,13:22:11,13:41:19,NA,incomplete,34,shape,1,right,Purple_Circle_Stripes_1.jpg,Green_Star_Chess_1.jpg,Red_Circle_Dots_4.jpg,right,923.0749999987893,true,NA,true
E3rG5Fgw,3icohx7eofotocxdgkfntnxt5xb0e8,3300dtyqt6ujzp06oke4xdk3v90qe7,E3rG5Fgw,2020-0188,2020-11-18,13:22:11,13:41:19,NA,incomplete,35,shape,1,left,Purple_Star_Stripes_4.jpg,Green_Star_Grid_1.jpg,Blue_Circle_Dots_4.jpg,left,874.0399999951478,true,NA,true
E3rG5Fgw,3icohx7eofotocxdgkfntnxt5xb0e8,3300dtyqt6ujzp06oke4xdk3v90qe7,E3rG5Fgw,2020-0188,2020-11-18,13:22:11,13:41:19,NA,incomplete,36,shape,1,left,Red_Circle_Dots_1.jpg,Purple_Circle_Chess_3.jpg,Blue_Plus_Stripes_1.jpg,left,972.7750000020023,true,NA,true
E3rG5Fgw,3icohx7eofotocxdgkfntnxt5xb0e8,3300dtyqt6ujzp06oke4xdk3v90qe7,E3rG5Fgw,2020-0188,2020-11-18,13:22:11,13:41:19,NA,incomplete,37,shape,1,right,Blue_Triangle_Stripes_1.jpg,Green_Plus_Dots_1.jpg,Red_Triangle_Chess_2.jpg,right,910.585000005085,true,NA,true
E3rG5Fgw,3icohx7eofotocxdgkfntnxt5xb0e8,3300dtyqt6ujzp06oke4xdk3v90qe7,E3rG5Fgw,2020-0188,2020-11-18,13:22:11,13:41:19,NA,incomplete,38,shape,1,left,Green_Plus_Stripes_4.jpg,Purple_Plus_Chess_1.jpg,Blue_Star_Grid_4.jpg,left,1037.8400000045076,true,NA,true
E3rG5Fgw,3icohx7eofotocxdgkfntnxt5xb0e8,3300dtyqt6ujzp06oke4xdk3v90qe7,E3rG5Fgw,2020-0188,2020-11-18,13:22:11,13:41:19,NA,incomplete,39,shape,1,right,Red_Triangle_Chess_2.jpg,Blue_Plus_Grid_2.jpg,Green_Triangle_Stripes_4.jpg,left,711.3499999977648,false,NA,true
E3rG5Fgw,3icohx7eofotocxdgkfntnxt5xb0e8,3300dtyqt6ujzp06oke4xdk3v90qe7,E3rG5Fgw,2020-0188,2020-11-18,13:22:11,13:41:19,NA,incomplete,0,number,1,left,Purple_Plus_Grid_4.jpg,Red_Star_Chess_4.jpg,Green_Plus_Stripes_1.jpg,right,872.1699999878183,false,low,false
E3rG5Fgw,3icohx7eofotocxdgkfntnxt5xb0e8,3300dtyqt6ujzp06oke4xdk3v90qe7,E3rG5Fgw,2020-0188,2020-11-18,13:22:11,13:41:19,NA,incomplete,1,number,1,right,Green_Circle_Chess_3.jpg,Red_Circle_Stripes_2.jpg,Blue_Triangle_Grid_3.jpg,right,880.2350000187289,true,low,false
E3rG5Fgw,3icohx7eofotocxdgkfntnxt5xb0e8,3300dtyqt6ujzp06oke4xdk3v90qe7,E3rG5Fgw,2020-0188,2020-11-18,13:22:11,13:41:19,NA,incomplete,2,number,1,right,Purple_Circle_Chess_4.jpg,Red_Circle_Grid_2.jpg,Blue_Plus_Dots_4.jpg,right,1145.4999999841675,true,low,false
E3rG5Fgw,3icohx7eofotocxdgkfntnxt5xb0e8,3300dtyqt6ujzp06oke4xdk3v90qe7,E3rG5Fgw,2020-0188,2020-11-18,13:22:11,13:41:19,NA,incomplete,3,number,1,left,Red_Circle_Stripes_3.jpg,Green_Triangle_Chess_3.jpg,Blue_Circle_Dots_2.jpg,left,759.0150000178255,true,low,false
E3rG5Fgw,3icohx7eofotocxdgkfntnxt5xb0e8,3300dtyqt6ujzp06oke4xdk3v90qe7,E3rG5Fgw,2020-0188,2020-11-18,13:22:11,13:41:19,NA,incomplete,4,number,1,right,Red_Plus_Chess_3.jpg,Purple_Plus_Stripes_2.jpg,Blue_Triangle_Grid_3.jpg,left,1165.1050000218675,false,low,false
E3rG5Fgw,3icohx7eofotocxdgkfntnxt5xb0e8,3300dtyqt6ujzp06oke4xdk3v90qe7,E3rG5Fgw,2020-0188,2020-11-18,13:22:11,13:41:19,NA,incomplete,5,number,1,left,Green_Triangle_Dots_3.jpg,Purple_Plus_Stripes_3.jpg,Red_Triangle_Chess_4.jpg,left,922.2949999966659,true,low,false
E3rG5Fgw,3icohx7eofotocxdgkfntnxt5xb0e8,3300dtyqt6ujzp06oke4xdk3v90qe7,E3rG5Fgw,2020-0188,2020-11-18,13:22:11,13:41:19,NA,incomplete,6,number,1,left,Purple_Triangle_Stripes_3.jpg,Green_Star_Chess_3.jpg,Red_Triangle_Grid_4.jpg,left,664.4549999909941,true,low,false
E3rG5Fgw,3icohx7eofotocxdgkfntnxt5xb0e8,3300dtyqt6ujzp06oke4xdk3v90qe7,E3rG5Fgw,2020-0188,2020-11-18,13:22:11,13:41:19,NA,incomplete,7,number,1,left,Red_Plus_Stripes_2.jpg,Green_Triangle_Grid_2.jpg,Blue_Plus_Dots_4.jpg,left,664.3800000019837,true,low,false
E3rG5Fgw,3icohx7eofotocxdgkfntnxt5xb0e8,3300dtyqt6ujzp06oke4xdk3v90qe7,E3rG5Fgw,2020-0188,2020-11-18,13:22:11,13:41:19,NA,incomplete,8,number,1,right,Blue_Circle_Chess_3.jpg,Purple_Circle_Grid_4.jpg,Red_Triangle_Dots_3.jpg,right,802.8549999871757,true,low,false
E3rG5Fgw,3icohx7eofotocxdgkfntnxt5xb0e8,3300dtyqt6ujzp06oke4xdk3v90qe7,E3rG5Fgw,2020-0188,2020-11-18,13:22:11,13:41:19,NA,incomplete,9,number,1,right,Blue_Circle_Stripes_4.jpg,Green_Circle_Grid_2.jpg,Red_Plus_Dots_4.jpg,right,727.1000000182539,true,low,false
E3rG5Fgw,3icohx7eofotocxdgkfntnxt5xb0e8,3300dtyqt6ujzp06oke4xdk3v90qe7,E3rG5Fgw,2020-0188,2020-11-18,13:22:11,13:41:19,NA,incomplete,10,number,1,right,Green_Plus_Chess_1.jpg,Blue_Plus_Stripes_4.jpg,Red_Triangle_Grid_1.jpg,right,556.3200000033248,true,low,false
E3rG5Fgw,3icohx7eofotocxdgkfntnxt5xb0e8,3300dtyqt6ujzp06oke4xdk3v90qe7,E3rG5Fgw,2020-0188,2020-11-18,13:22:11,13:41:19,NA,incomplete,11,number,1,right,Blue_Star_Chess_3.jpg,Red_Star_Stripes_2.jpg,Green_Plus_Dots_3.jpg,right,746.3449999922886,true,low,false
E3rG5Fgw,3icohx7eofotocxdgkfntnxt5xb0e8,3300dtyqt6ujzp06oke4xdk3v90qe7,E3rG5Fgw,2020-0188,2020-11-18,13:22:11,13:41:19,NA,incomplete,12,number,0,left,Purple_Plus_Dots_1.jpg,Red_Triangle_Chess_1.jpg,Blue_Plus_Stripes_3.jpg,left,576.2499999837019,true,low,false
E3rG5Fgw,3icohx7eofotocxdgkfntnxt5xb0e8,3300dtyqt6ujzp06oke4xdk3v90qe7,E3rG5Fgw,2020-0188,2020-11-18,13:22:11,13:41:19,NA,incomplete,13,number,1,right,Red_Plus_Dots_1.jpg,Blue_Plus_Stripes_2.jpg,Purple_Circle_Chess_1.jpg,right,861.3200000254437,true,low,false
E3rG5Fgw,3icohx7eofotocxdgkfntnxt5xb0e8,3300dtyqt6ujzp06oke4xdk3v90qe7,E3rG5Fgw,2020-0188,2020-11-18,13:22:11,13:41:19,NA,incomplete,14,number,1,right,Green_Plus_Dots_3.jpg,Blue_Plus_Chess_4.jpg,Purple_Star_Stripes_3.jpg,right,711.1849999928381,true,low,false
E3rG5Fgw,3icohx7eofotocxdgkfntnxt5xb0e8,3300dtyqt6ujzp06oke4xdk3v90qe7,E3rG5Fgw,2020-0188,2020-11-18,13:22:11,13:41:19,NA,incomplete,15,number,0,left,Blue_Circle_Dots_1.jpg,Purple_Plus_Grid_1.jpg,Red_Circle_Chess_3.jpg,left,629.6800000127405,true,low,false
E3rG5Fgw,3icohx7eofotocxdgkfntnxt5xb0e8,3300dtyqt6ujzp06oke4xdk3v90qe7,E3rG5Fgw,2020-0188,2020-11-18,13:22:11,13:41:19,NA,incomplete,16,number,1,left,Blue_Plus_Stripes_4.jpg,Green_Triangle_Dots_4.jpg,Red_Plus_Chess_3.jpg,right,735.4099999938626,false,low,false
E3rG5Fgw,3icohx7eofotocxdgkfntnxt5xb0e8,3300dtyqt6ujzp06oke4xdk3v90qe7,E3rG5Fgw,2020-0188,2020-11-18,13:22:11,13:41:19,NA,incomplete,17,number,1,right,Red_Circle_Chess_4.jpg,Purple_Circle_Stripes_2.jpg,Blue_Triangle_Grid_4.jpg,right,678.3899999863934,true,low,false
E3rG5Fgw,3icohx7eofotocxdgkfntnxt5xb0e8,3300dtyqt6ujzp06oke4xdk3v90qe7,E3rG5Fgw,2020-0188,2020-11-18,13:22:11,13:41:19,NA,incomplete,18,number,0,left,Green_Plus_Dots_4.jpg,Red_Circle_Chess_4.jpg,Purple_Plus_Stripes_1.jpg,left,638.7899999972433,true,low,false
E3rG5Fgw,3icohx7eofotocxdgkfntnxt5xb0e8,3300dtyqt6ujzp06oke4xdk3v90qe7,E3rG5Fgw,2020-0188,2020-11-18,13:22:11,13:41:19,NA,incomplete,19,number,1,right,Green_Triangle_Dots_4.jpg,Purple_Triangle_Grid_2.jpg,Blue_Plus_Stripes_4.jpg,right,577.0249999768566,true,low,false
E3rG5Fgw,3icohx7eofotocxdgkfntnxt5xb0e8,3300dtyqt6ujzp06oke4xdk3v90qe7,E3rG5Fgw,2020-0188,2020-11-18,13:22:11,13:41:19,NA,incomplete,20,number,1,left,Green_Circle_Dots_4.jpg,Purple_Triangle_Stripes_4.jpg,Blue_Circle_Chess_3.jpg,left,989.3100000044797,true,low,false
E3rG5Fgw,3icohx7eofotocxdgkfntnxt5xb0e8,3300dtyqt6ujzp06oke4xdk3v90qe7,E3rG5Fgw,2020-0188,2020-11-18,13:22:11,13:41:19,NA,incomplete,21,number,1,right,Blue_Star_Chess_2.jpg,Red_Star_Grid_3.jpg,Green_Circle_Stripes_2.jpg,right,834.2499999853317,true,low,false
E3rG5Fgw,3icohx7eofotocxdgkfntnxt5xb0e8,3300dtyqt6ujzp06oke4xdk3v90qe7,E3rG5Fgw,2020-0188,2020-11-18,13:22:11,13:41:19,NA,incomplete,22,number,1,right,Green_Star_Chess_2.jpg,Blue_Star_Dots_4.jpg,Red_Plus_Stripes_2.jpg,right,715.6899999827147,true,low,false
E3rG5Fgw,3icohx7eofotocxdgkfntnxt5xb0e8,3300dtyqt6ujzp06oke4xdk3v90qe7,E3rG5Fgw,2020-0188,2020-11-18,13:22:11,13:41:19,NA,incomplete,23,number,1,right,Red_Circle_Dots_2.jpg,Purple_Circle_Chess_3.jpg,Green_Triangle_Stripes_2.jpg,right,827.4749999982305,true,low,false
E3rG5Fgw,3icohx7eofotocxdgkfntnxt5xb0e8,3300dtyqt6ujzp06oke4xdk3v90qe7,E3rG5Fgw,2020-0188,2020-11-18,13:22:11,13:41:19,NA,incomplete,24,number,0,right,Red_Plus_Dots_4.jpg,Purple_Plus_Chess_1.jpg,Blue_Triangle_Stripes_4.jpg,right,622.4700000020675,true,low,false
E3rG5Fgw,3icohx7eofotocxdgkfntnxt5xb0e8,3300dtyqt6ujzp06oke4xdk3v90qe7,E3rG5Fgw,2020-0188,2020-11-18,13:22:11,13:41:19,NA,incomplete,25,number,1,right,Green_Plus_Grid_4.jpg,Red_Plus_Dots_1.jpg,Blue_Star_Chess_4.jpg,right,602.9050000070129,true,low,false
E3rG5Fgw,3icohx7eofotocxdgkfntnxt5xb0e8,3300dtyqt6ujzp06oke4xdk3v90qe7,E3rG5Fgw,2020-0188,2020-11-18,13:22:11,13:41:19,NA,incomplete,26,number,1,left,Blue_Star_Stripes_1.jpg,Red_Triangle_Dots_1.jpg,Green_Star_Chess_3.jpg,left,556.0649999824818,true,low,false
E3rG5Fgw,3icohx7eofotocxdgkfntnxt5xb0e8,3300dtyqt6ujzp06oke4xdk3v90qe7,E3rG5Fgw,2020-0188,2020-11-18,13:22:11,13:41:19,NA,incomplete,27,number,1,left,Purple_Circle_Chess_3.jpg,Green_Star_Dots_3.jpg,Red_Circle_Stripes_4.jpg,left,586.7750000033993,true,low,false
E3rG5Fgw,3icohx7eofotocxdgkfntnxt5xb0e8,3300dtyqt6ujzp06oke4xdk3v90qe7,E3rG5Fgw,2020-0188,2020-11-18,13:22:11,13:41:19,NA,incomplete,28,number,0,right,Red_Triangle_Dots_4.jpg,Blue_Triangle_Stripes_2.jpg,Green_Star_Grid_4.jpg,right,606.2850000162143,true,low,false
E3rG5Fgw,3icohx7eofotocxdgkfntnxt5xb0e8,3300dtyqt6ujzp06oke4xdk3v90qe7,E3rG5Fgw,2020-0188,2020-11-18,13:22:11,13:41:19,NA,incomplete,29,number,1,left,Blue_Triangle_Stripes_1.jpg,Purple_Circle_Chess_1.jpg,Red_Triangle_Dots_3.jpg,left,457.3349999845959,true,low,false
E3rG5Fgw,3icohx7eofotocxdgkfntnxt5xb0e8,3300dtyqt6ujzp06oke4xdk3v90qe7,E3rG5Fgw,2020-0188,2020-11-18,13:22:11,13:41:19,NA,incomplete,30,shape,1,left,Purple_Star_Chess_4.jpg,Red_Star_Dots_2.jpg,Green_Circle_Grid_4.jpg,right,571.0800000233576,false,low,false
E3rG5Fgw,3icohx7eofotocxdgkfntnxt5xb0e8,3300dtyqt6ujzp06oke4xdk3v90qe7,E3rG5Fgw,2020-0188,2020-11-18,13:22:11,13:41:19,NA,incomplete,31,shape,1,left,Green_Triangle_Stripes_2.jpg,Red_Triangle_Grid_4.jpg,Blue_Circle_Dots_2.jpg,right,622.2899999993388,false,low,false
E3rG5Fgw,3icohx7eofotocxdgkfntnxt5xb0e8,3300dtyqt6ujzp06oke4xdk3v90qe7,E3rG5Fgw,2020-0188,2020-11-18,13:22:11,13:41:19,NA,incomplete,32,shape,1,left,Green_Circle_Grid_1.jpg,Blue_Circle_Dots_3.jpg,Purple_Star_Chess_1.jpg,left,673.8550000009127,true,low,false
E3rG5Fgw,3icohx7eofotocxdgkfntnxt5xb0e8,3300dtyqt6ujzp06oke4xdk3v90qe7,E3rG5Fgw,2020-0188,2020-11-18,13:22:11,13:41:19,NA,incomplete,33,shape,1,left,Purple_Circle_Stripes_1.jpg,Blue_Circle_Chess_4.jpg,Green_Plus_Grid_1.jpg,left,587.1299999998882,true,low,false
E3rG5Fgw,3icohx7eofotocxdgkfntnxt5xb0e8,3300dtyqt6ujzp06oke4xdk3v90qe7,E3rG5Fgw,2020-0188,2020-11-18,13:22:11,13:41:19,NA,incomplete,34,shape,1,right,Blue_Plus_Dots_2.jpg,Red_Triangle_Stripes_2.jpg,Green_Plus_Chess_1.jpg,left,663.0350000050385,false,low,false
E3rG5Fgw,3icohx7eofotocxdgkfntnxt5xb0e8,3300dtyqt6ujzp06oke4xdk3v90qe7,E3rG5Fgw,2020-0188,2020-11-18,13:22:11,13:41:19,NA,incomplete,35,shape,1,right,Blue_Triangle_Dots_2.jpg,Purple_Circle_Stripes_2.jpg,Red_Triangle_Chess_1.jpg,right,639.3199999874923,true,low,false
E3rG5Fgw,3icohx7eofotocxdgkfntnxt5xb0e8,3300dtyqt6ujzp06oke4xdk3v90qe7,E3rG5Fgw,2020-0188,2020-11-18,13:22:11,13:41:19,NA,incomplete,36,shape,1,right,Purple_Star_Grid_4.jpg,Green_Circle_Dots_4.jpg,Blue_Star_Stripes_2.jpg,right,665.6400000210851,true,low,false
E3rG5Fgw,3icohx7eofotocxdgkfntnxt5xb0e8,3300dtyqt6ujzp06oke4xdk3v90qe7,E3rG5Fgw,2020-0188,2020-11-18,13:22:11,13:41:19,NA,incomplete,37,shape,1,right,Red_Circle_Grid_3.jpg,Green_Plus_Dots_3.jpg,Blue_Circle_Stripes_1.jpg,right,652.0149999996647,true,low,false
E3rG5Fgw,3icohx7eofotocxdgkfntnxt5xb0e8,3300dtyqt6ujzp06oke4xdk3v90qe7,E3rG5Fgw,2020-0188,2020-11-18,13:22:11,13:41:19,NA,incomplete,38,shape,1,left,Green_Triangle_Grid_2.jpg,Blue_Triangle_Dots_4.jpg,Red_Star_Stripes_2.jpg,left,1148.6450000084005,true,low,false
E3rG5Fgw,3icohx7eofotocxdgkfntnxt5xb0e8,3300dtyqt6ujzp06oke4xdk3v90qe7,E3rG5Fgw,2020-0188,2020-11-18,13:22:11,13:41:19,NA,incomplete,39,shape,1,left,Green_Plus_Dots_3.jpg,Purple_Plus_Stripes_1.jpg,Red_Triangle_Chess_3.jpg,left,890.5800000065938,true,low,false
E3rG5Fgw,3icohx7eofotocxdgkfntnxt5xb0e8,3300dtyqt6ujzp06oke4xdk3v90qe7,E3rG5Fgw,2020-0188,2020-11-18,13:22:11,13:41:19,NA,incomplete,40,shape,1,right,Purple_Plus_Dots_3.jpg,Red_Star_Stripes_3.jpg,Blue_Plus_Chess_2.jpg,right,745.1700000092387,true,low,false
E3rG5Fgw,3icohx7eofotocxdgkfntnxt5xb0e8,3300dtyqt6ujzp06oke4xdk3v90qe7,E3rG5Fgw,2020-0188,2020-11-18,13:22:11,13:41:19,NA,incomplete,41,shape,1,right,Red_Plus_Dots_3.jpg,Purple_Circle_Stripes_3.jpg,Blue_Plus_Chess_2.jpg,right,648.7449999840464,true,low,false
E3rG5Fgw,3icohx7eofotocxdgkfntnxt5xb0e8,3300dtyqt6ujzp06oke4xdk3v90qe7,E3rG5Fgw,2020-0188,2020-11-18,13:22:11,13:41:19,NA,incomplete,42,shape,0,left,Blue_Circle_Stripes_4.jpg,Purple_Circle_Grid_2.jpg,Green_Triangle_Dots_4.jpg,left,707.2050000133459,true,low,false
E3rG5Fgw,3icohx7eofotocxdgkfntnxt5xb0e8,3300dtyqt6ujzp06oke4xdk3v90qe7,E3rG5Fgw,2020-0188,2020-11-18,13:22:11,13:41:19,NA,incomplete,43,shape,1,left,Green_Triangle_Chess_1.jpg,Blue_Triangle_Grid_4.jpg,Purple_Star_Stripes_1.jpg,right,626.5000000130385,false,low,false
E3rG5Fgw,3icohx7eofotocxdgkfntnxt5xb0e8,3300dtyqt6ujzp06oke4xdk3v90qe7,E3rG5Fgw,2020-0188,2020-11-18,13:22:11,13:41:19,NA,incomplete,44,shape,0,left,Green_Circle_Dots_2.jpg,Purple_Circle_Chess_3.jpg,Red_Star_Stripes_2.jpg,left,613.1799999857321,true,low,false
E3rG5Fgw,3icohx7eofotocxdgkfntnxt5xb0e8,3300dtyqt6ujzp06oke4xdk3v90qe7,E3rG5Fgw,2020-0188,2020-11-18,13:22:11,13:41:19,NA,incomplete,45,shape,1,right,Red_Plus_Chess_4.jpg,Blue_Circle_Grid_4.jpg,Green_Plus_Dots_3.jpg,right,631.7899999849033,true,low,false
E3rG5Fgw,3icohx7eofotocxdgkfntnxt5xb0e8,3300dtyqt6ujzp06oke4xdk3v90qe7,E3rG5Fgw,2020-0188,2020-11-18,13:22:11,13:41:19,NA,incomplete,46,shape,1,right,Red_Star_Dots_3.jpg,Purple_Circle_Stripes_3.jpg,Blue_Star_Grid_1.jpg,right,594.7950000117999,true,low,false
E3rG5Fgw,3icohx7eofotocxdgkfntnxt5xb0e8,3300dtyqt6ujzp06oke4xdk3v90qe7,E3rG5Fgw,2020-0188,2020-11-18,13:22:11,13:41:19,NA,incomplete,47,shape,0,left,Purple_Triangle_Grid_3.jpg,Blue_Triangle_Stripes_2.jpg,Red_Plus_Dots_3.jpg,left,605.2849999978207,true,low,false
E3rG5Fgw,3icohx7eofotocxdgkfntnxt5xb0e8,3300dtyqt6ujzp06oke4xdk3v90qe7,E3rG5Fgw,2020-0188,2020-11-18,13:22:11,13:41:19,NA,incomplete,48,shape,1,right,Blue_Triangle_Stripes_1.jpg,Green_Star_Chess_1.jpg,Red_Triangle_Dots_2.jpg,right,778.6049999995157,true,low,false
E3rG5Fgw,3icohx7eofotocxdgkfntnxt5xb0e8,3300dtyqt6ujzp06oke4xdk3v90qe7,E3rG5Fgw,2020-0188,2020-11-18,13:22:11,13:41:19,NA,incomplete,49,shape,1,left,Red_Triangle_Stripes_3.jpg,Purple_Triangle_Chess_4.jpg,Blue_Plus_Dots_3.jpg,left,655.2749999973457,true,low,false
E3rG5Fgw,3icohx7eofotocxdgkfntnxt5xb0e8,3300dtyqt6ujzp06oke4xdk3v90qe7,E3rG5Fgw,2020-0188,2020-11-18,13:22:11,13:41:19,NA,incomplete,50,shape,0,right,Blue_Circle_Dots_1.jpg,Red_Star_Grid_1.jpg,Purple_Circle_Chess_4.jpg,right,608.2949999836273,true,low,false
E3rG5Fgw,3icohx7eofotocxdgkfntnxt5xb0e8,3300dtyqt6ujzp06oke4xdk3v90qe7,E3rG5Fgw,2020-0188,2020-11-18,13:22:11,13:41:19,NA,incomplete,51,shape,1,right,Green_Star_Chess_1.jpg,Red_Circle_Stripes_1.jpg,Purple_Star_Dots_4.jpg,right,642.6750000100583,true,low,false
E3rG5Fgw,3icohx7eofotocxdgkfntnxt5xb0e8,3300dtyqt6ujzp06oke4xdk3v90qe7,E3rG5Fgw,2020-0188,2020-11-18,13:22:11,13:41:19,NA,incomplete,52,shape,1,left,Purple_Circle_Chess_3.jpg,Red_Circle_Dots_4.jpg,Blue_Triangle_Stripes_3.jpg,left,644.73500000895,true,low,false
E3rG5Fgw,3icohx7eofotocxdgkfntnxt5xb0e8,3300dtyqt6ujzp06oke4xdk3v90qe7,E3rG5Fgw,2020-0188,2020-11-18,13:22:11,13:41:19,NA,incomplete,53,shape,1,right,Green_Plus_Chess_2.jpg,Purple_Triangle_Grid_2.jpg,Red_Plus_Dots_4.jpg,right,800.8799999952316,true,low,false
E3rG5Fgw,3icohx7eofotocxdgkfntnxt5xb0e8,3300dtyqt6ujzp06oke4xdk3v90qe7,E3rG5Fgw,2020-0188,2020-11-18,13:22:11,13:41:19,NA,incomplete,54,shape,1,right,Red_Plus_Dots_4.jpg,Green_Circle_Stripes_4.jpg,Blue_Plus_Chess_2.jpg,right,594.0650000120513,true,low,false
E3rG5Fgw,3icohx7eofotocxdgkfntnxt5xb0e8,3300dtyqt6ujzp06oke4xdk3v90qe7,E3rG5Fgw,2020-0188,2020-11-18,13:22:11,13:41:19,NA,incomplete,55,shape,1,left,Green_Circle_Chess_2.jpg,Red_Circle_Dots_4.jpg,Purple_Triangle_Stripes_2.jpg,left,630.7500000111759,true,low,false
E3rG5Fgw,3icohx7eofotocxdgkfntnxt5xb0e8,3300dtyqt6ujzp06oke4xdk3v90qe7,E3rG5Fgw,2020-0188,2020-11-18,13:22:11,13:41:19,NA,incomplete,56,shape,1,left,Blue_Circle_Dots_4.jpg,Green_Circle_Stripes_1.jpg,Red_Star_Grid_4.jpg,left,728.8750000006985,true,low,false
E3rG5Fgw,3icohx7eofotocxdgkfntnxt5xb0e8,3300dtyqt6ujzp06oke4xdk3v90qe7,E3rG5Fgw,2020-0188,2020-11-18,13:22:11,13:41:19,NA,incomplete,57,shape,1,right,Blue_Triangle_Stripes_4.jpg,Purple_Circle_Grid_4.jpg,Red_Triangle_Chess_1.jpg,right,719.9249999830499,true,low,false
E3rG5Fgw,3icohx7eofotocxdgkfntnxt5xb0e8,3300dtyqt6ujzp06oke4xdk3v90qe7,E3rG5Fgw,2020-0188,2020-11-18,13:22:11,13:41:19,NA,incomplete,58,shape,1,right,Purple_Plus_Stripes_3.jpg,Blue_Triangle_Dots_3.jpg,Red_Plus_Grid_4.jpg,right,686.7999999958556,true,low,false
E3rG5Fgw,3icohx7eofotocxdgkfntnxt5xb0e8,3300dtyqt6ujzp06oke4xdk3v90qe7,E3rG5Fgw,2020-0188,2020-11-18,13:22:11,13:41:19,NA,incomplete,59,shape,1,left,Green_Circle_Dots_3.jpg,Purple_Circle_Grid_4.jpg,Red_Star_Stripes_3.jpg,left,621.9050000072457,true,low,false
E3rG5Fgw,3icohx7eofotocxdgkfntnxt5xb0e8,3300dtyqt6ujzp06oke4xdk3v90qe7,E3rG5Fgw,2020-0188,2020-11-18,13:22:11,13:41:19,NA,incomplete,60,number,1,right,Red_Circle_Chess_1.jpg,Purple_Circle_Grid_4.jpg,Green_Star_Stripes_1.jpg,left,657.1849999891128,false,low,false
E3rG5Fgw,3icohx7eofotocxdgkfntnxt5xb0e8,3300dtyqt6ujzp06oke4xdk3v90qe7,E3rG5Fgw,2020-0188,2020-11-18,13:22:11,13:41:19,NA,incomplete,61,number,1,right,Green_Circle_Chess_3.jpg,Purple_Circle_Grid_4.jpg,Red_Star_Dots_3.jpg,left,666.3600000028964,false,low,false
E3rG5Fgw,3icohx7eofotocxdgkfntnxt5xb0e8,3300dtyqt6ujzp06oke4xdk3v90qe7,E3rG5Fgw,2020-0188,2020-11-18,13:22:11,13:41:19,NA,incomplete,62,number,1,left,Purple_Plus_Grid_3.jpg,Blue_Star_Chess_3.jpg,Red_Plus_Dots_1.jpg,left,924.5649999938905,true,low,false
E3rG5Fgw,3icohx7eofotocxdgkfntnxt5xb0e8,3300dtyqt6ujzp06oke4xdk3v90qe7,E3rG5Fgw,2020-0188,2020-11-18,13:22:11,13:41:19,NA,incomplete,63,number,1,left,Green_Star_Chess_2.jpg,Blue_Plus_Stripes_2.jpg,Red_Star_Dots_1.jpg,left,691.5699999954086,true,low,false
E3rG5Fgw,3icohx7eofotocxdgkfntnxt5xb0e8,3300dtyqt6ujzp06oke4xdk3v90qe7,E3rG5Fgw,2020-0188,2020-11-18,13:22:11,13:41:19,NA,incomplete,64,number,1,right,Red_Plus_Dots_2.jpg,Purple_Plus_Chess_3.jpg,Blue_Star_Grid_2.jpg,right,770.6150000158232,true,low,false
E3rG5Fgw,3icohx7eofotocxdgkfntnxt5xb0e8,3300dtyqt6ujzp06oke4xdk3v90qe7,E3rG5Fgw,2020-0188,2020-11-18,13:22:11,13:41:19,NA,incomplete,65,number,0,left,Red_Triangle_Stripes_4.jpg,Purple_Circle_Grid_4.jpg,Green_Triangle_Dots_3.jpg,left,750.8450000023004,true,low,false
E3rG5Fgw,3icohx7eofotocxdgkfntnxt5xb0e8,3300dtyqt6ujzp06oke4xdk3v90qe7,E3rG5Fgw,2020-0188,2020-11-18,13:22:11,13:41:19,NA,incomplete,66,number,1,left,Purple_Star_Dots_3.jpg,Red_Circle_Stripes_3.jpg,Blue_Star_Chess_2.jpg,left,628.1449999951292,true,low,false
E3rG5Fgw,3icohx7eofotocxdgkfntnxt5xb0e8,3300dtyqt6ujzp06oke4xdk3v90qe7,E3rG5Fgw,2020-0188,2020-11-18,13:22:11,13:41:19,NA,incomplete,67,number,1,left,Purple_Triangle_Dots_1.jpg,Red_Star_Grid_1.jpg,Blue_Triangle_Stripes_4.jpg,left,526.6999999876134,true,low,false
E3rG5Fgw,3icohx7eofotocxdgkfntnxt5xb0e8,3300dtyqt6ujzp06oke4xdk3v90qe7,E3rG5Fgw,2020-0188,2020-11-18,13:22:11,13:41:19,NA,incomplete,68,number,1,right,Red_Star_Stripes_4.jpg,Blue_Star_Dots_3.jpg,Green_Plus_Grid_4.jpg,right,821.3050000194926,true,low,false
E3rG5Fgw,3icohx7eofotocxdgkfntnxt5xb0e8,3300dtyqt6ujzp06oke4xdk3v90qe7,E3rG5Fgw,2020-0188,2020-11-18,13:22:11,13:41:19,NA,incomplete,69,number,1,left,Blue_Circle_Grid_2.jpg,Red_Star_Stripes_2.jpg,Green_Circle_Chess_4.jpg,left,649.1399999940768,true,low,false
E3rG5Fgw,3icohx7eofotocxdgkfntnxt5xb0e8,3300dtyqt6ujzp06oke4xdk3v90qe7,E3rG5Fgw,2020-0188,2020-11-18,13:22:11,13:41:19,NA,incomplete,70,number,0,right,Blue_Circle_Stripes_1.jpg,Purple_Circle_Chess_2.jpg,Green_Triangle_Dots_1.jpg,right,533.1899999873713,true,low,false
E3rG5Fgw,3icohx7eofotocxdgkfntnxt5xb0e8,3300dtyqt6ujzp06oke4xdk3v90qe7,E3rG5Fgw,2020-0188,2020-11-18,13:22:11,13:41:19,NA,incomplete,71,number,1,left,Blue_Triangle_Chess_4.jpg,Green_Plus_Grid_4.jpg,Red_Triangle_Dots_3.jpg,left,552.1450000233017,true,low,false
E3rG5Fgw,3icohx7eofotocxdgkfntnxt5xb0e8,3300dtyqt6ujzp06oke4xdk3v90qe7,E3rG5Fgw,2020-0188,2020-11-18,13:22:11,13:41:19,NA,incomplete,72,number,1,left,Purple_Star_Dots_2.jpg,Blue_Triangle_Stripes_2.jpg,Red_Star_Chess_4.jpg,left,548.8149999873713,true,low,false
E3rG5Fgw,3icohx7eofotocxdgkfntnxt5xb0e8,3300dtyqt6ujzp06oke4xdk3v90qe7,E3rG5Fgw,2020-0188,2020-11-18,13:22:11,13:41:19,NA,incomplete,73,number,0,right,Blue_Star_Dots_4.jpg,Green_Star_Chess_1.jpg,Red_Plus_Stripes_4.jpg,right,491.5949999995064,true,low,false
E3rG5Fgw,3icohx7eofotocxdgkfntnxt5xb0e8,3300dtyqt6ujzp06oke4xdk3v90qe7,E3rG5Fgw,2020-0188,2020-11-18,13:22:11,13:41:19,NA,incomplete,74,number,1,right,Red_Star_Grid_2.jpg,Purple_Star_Stripes_1.jpg,Green_Circle_Dots_2.jpg,right,643.4650000010151,true,low,false
E3rG5Fgw,3icohx7eofotocxdgkfntnxt5xb0e8,3300dtyqt6ujzp06oke4xdk3v90qe7,E3rG5Fgw,2020-0188,2020-11-18,13:22:11,13:41:19,NA,incomplete,75,number,1,right,Green_Circle_Stripes_3.jpg,Blue_Circle_Grid_1.jpg,Purple_Star_Dots_3.jpg,right,567.8750000079162,true,low,false
E3rG5Fgw,3icohx7eofotocxdgkfntnxt5xb0e8,3300dtyqt6ujzp06oke4xdk3v90qe7,E3rG5Fgw,2020-0188,2020-11-18,13:22:11,13:41:19,NA,incomplete,76,number,1,left,Red_Star_Chess_3.jpg,Purple_Circle_Grid_3.jpg,Blue_Star_Stripes_1.jpg,left,546.3100000051782,true,low,false
E3rG5Fgw,3icohx7eofotocxdgkfntnxt5xb0e8,3300dtyqt6ujzp06oke4xdk3v90qe7,E3rG5Fgw,2020-0188,2020-11-18,13:22:11,13:41:19,NA,incomplete,77,number,0,left,Purple_Star_Stripes_3.jpg,Green_Triangle_Grid_3.jpg,Red_Star_Chess_2.jpg,left,560.6350000016391,true,low,false
E3rG5Fgw,3icohx7eofotocxdgkfntnxt5xb0e8,3300dtyqt6ujzp06oke4xdk3v90qe7,E3rG5Fgw,2020-0188,2020-11-18,13:22:11,13:41:19,NA,incomplete,78,number,1,right,Green_Triangle_Grid_4.jpg,Purple_Triangle_Chess_3.jpg,Red_Star_Stripes_4.jpg,right,542.2350000008009,true,low,false
E3rG5Fgw,3icohx7eofotocxdgkfntnxt5xb0e8,3300dtyqt6ujzp06oke4xdk3v90qe7,E3rG5Fgw,2020-0188,2020-11-18,13:22:11,13:41:19,NA,incomplete,79,number,0,right,Red_Triangle_Chess_1.jpg,Purple_Triangle_Stripes_4.jpg,Blue_Plus_Dots_1.jpg,right,547.8350000048522,true,low,false
E3rG5Fgw,3icohx7eofotocxdgkfntnxt5xb0e8,3300dtyqt6ujzp06oke4xdk3v90qe7,E3rG5Fgw,2020-0188,2020-11-18,13:22:11,13:41:19,NA,incomplete,80,number,1,right,Red_Triangle_Dots_2.jpg,Purple_Triangle_Chess_3.jpg,Blue_Plus_Grid_2.jpg,right,633.9049999951385,true,low,false
E3rG5Fgw,3icohx7eofotocxdgkfntnxt5xb0e8,3300dtyqt6ujzp06oke4xdk3v90qe7,E3rG5Fgw,2020-0188,2020-11-18,13:22:11,13:41:19,NA,incomplete,81,number,1,left,Purple_Plus_Chess_1.jpg,Red_Star_Grid_1.jpg,Blue_Plus_Dots_2.jpg,left,515.9649999986868,true,low,false
E3rG5Fgw,3icohx7eofotocxdgkfntnxt5xb0e8,3300dtyqt6ujzp06oke4xdk3v90qe7,E3rG5Fgw,2020-0188,2020-11-18,13:22:11,13:41:19,NA,incomplete,82,number,1,right,Purple_Triangle_Grid_4.jpg,Red_Triangle_Stripes_3.jpg,Blue_Star_Chess_4.jpg,right,587.6500000013039,true,low,false
E3rG5Fgw,3icohx7eofotocxdgkfntnxt5xb0e8,3300dtyqt6ujzp06oke4xdk3v90qe7,E3rG5Fgw,2020-0188,2020-11-18,13:22:11,13:41:19,NA,incomplete,83,number,1,right,Blue_Star_Grid_4.jpg,Red_Star_Dots_1.jpg,Purple_Plus_Chess_4.jpg,right,831.8750000034925,true,low,false
E3rG5Fgw,3icohx7eofotocxdgkfntnxt5xb0e8,3300dtyqt6ujzp06oke4xdk3v90qe7,E3rG5Fgw,2020-0188,2020-11-18,13:22:11,13:41:19,NA,incomplete,84,number,1,right,Blue_Star_Dots_1.jpg,Red_Star_Chess_3.jpg,Purple_Circle_Grid_1.jpg,right,530.3849999909289,true,low,false
E3rG5Fgw,3icohx7eofotocxdgkfntnxt5xb0e8,3300dtyqt6ujzp06oke4xdk3v90qe7,E3rG5Fgw,2020-0188,2020-11-18,13:22:11,13:41:19,NA,incomplete,85,number,1,right,Purple_Plus_Chess_2.jpg,Blue_Plus_Grid_3.jpg,Green_Star_Stripes_2.jpg,right,665.3350000269711,true,low,false
E3rG5Fgw,3icohx7eofotocxdgkfntnxt5xb0e8,3300dtyqt6ujzp06oke4xdk3v90qe7,E3rG5Fgw,2020-0188,2020-11-18,13:22:11,13:41:19,NA,incomplete,86,number,1,left,Blue_Circle_Chess_4.jpg,Red_Star_Grid_4.jpg,Purple_Circle_Dots_2.jpg,left,547.534999990603,true,low,false
E3rG5Fgw,3icohx7eofotocxdgkfntnxt5xb0e8,3300dtyqt6ujzp06oke4xdk3v90qe7,E3rG5Fgw,2020-0188,2020-11-18,13:22:11,13:41:19,NA,incomplete,87,number,1,left,Green_Plus_Dots_1.jpg,Purple_Circle_Chess_1.jpg,Red_Plus_Grid_3.jpg,left,560.6749999860767,true,low,false
E3rG5Fgw,3icohx7eofotocxdgkfntnxt5xb0e8,3300dtyqt6ujzp06oke4xdk3v90qe7,E3rG5Fgw,2020-0188,2020-11-18,13:22:11,13:41:19,NA,incomplete,88,number,1,right,Red_Circle_Stripes_3.jpg,Green_Circle_Grid_2.jpg,Blue_Triangle_Dots_3.jpg,right,518.5399999900255,true,low,false
E3rG5Fgw,3icohx7eofotocxdgkfntnxt5xb0e8,3300dtyqt6ujzp06oke4xdk3v90qe7,E3rG5Fgw,2020-0188,2020-11-18,13:22:11,13:41:19,NA,incomplete,89,number,1,right,Green_Star_Stripes_1.jpg,Red_Star_Dots_3.jpg,Purple_Plus_Grid_1.jpg,right,580.8749999850988,true,low,false
E3rG5Fgw,3icohx7eofotocxdgkfntnxt5xb0e8,3300dtyqt6ujzp06oke4xdk3v90qe7,E3rG5Fgw,2020-0188,2020-11-18,13:22:11,13:41:19,NA,incomplete,90,shape,0,left,Green_Star_Stripes_1.jpg,Blue_Star_Grid_3.jpg,Red_Triangle_Dots_1.jpg,right,473.59499998856336,false,low,false
E3rG5Fgw,3icohx7eofotocxdgkfntnxt5xb0e8,3300dtyqt6ujzp06oke4xdk3v90qe7,E3rG5Fgw,2020-0188,2020-11-18,13:22:11,13:41:19,NA,incomplete,91,shape,0,right,Red_Circle_Dots_1.jpg,Blue_Plus_Chess_1.jpg,Purple_Circle_Stripes_3.jpg,left,506.0599999851547,false,low,false
E3rG5Fgw,3icohx7eofotocxdgkfntnxt5xb0e8,3300dtyqt6ujzp06oke4xdk3v90qe7,E3rG5Fgw,2020-0188,2020-11-18,13:22:11,13:41:19,NA,incomplete,92,shape,1,left,Purple_Star_Dots_2.jpg,Green_Star_Grid_3.jpg,Red_Plus_Chess_2.jpg,left,553.2850000017788,true,low,false
E3rG5Fgw,3icohx7eofotocxdgkfntnxt5xb0e8,3300dtyqt6ujzp06oke4xdk3v90qe7,E3rG5Fgw,2020-0188,2020-11-18,13:22:11,13:41:19,NA,incomplete,93,shape,1,right,Green_Star_Chess_4.jpg,Blue_Circle_Stripes_4.jpg,Purple_Star_Grid_1.jpg,left,671.8149999796879,false,low,false
E3rG5Fgw,3icohx7eofotocxdgkfntnxt5xb0e8,3300dtyqt6ujzp06oke4xdk3v90qe7,E3rG5Fgw,2020-0188,2020-11-18,13:22:11,13:41:19,NA,incomplete,94,shape,0,left,Purple_Circle_Dots_1.jpg,Green_Circle_Grid_2.jpg,Blue_Star_Stripes_1.jpg,right,583.6149999813642,false,low,false
E3rG5Fgw,3icohx7eofotocxdgkfntnxt5xb0e8,3300dtyqt6ujzp06oke4xdk3v90qe7,E3rG5Fgw,2020-0188,2020-11-18,13:22:11,13:41:19,NA,incomplete,95,shape,1,right,Red_Star_Stripes_2.jpg,Purple_Triangle_Grid_2.jpg,Green_Star_Dots_4.jpg,left,532.2000000160187,false,low,false
E3rG5Fgw,3icohx7eofotocxdgkfntnxt5xb0e8,3300dtyqt6ujzp06oke4xdk3v90qe7,E3rG5Fgw,2020-0188,2020-11-18,13:22:11,13:41:19,NA,incomplete,96,shape,1,left,Green_Triangle_Stripes_2.jpg,Purple_Triangle_Chess_4.jpg,Blue_Star_Grid_2.jpg,right,714.6749999956228,false,low,false
E3rG5Fgw,3icohx7eofotocxdgkfntnxt5xb0e8,3300dtyqt6ujzp06oke4xdk3v90qe7,E3rG5Fgw,2020-0188,2020-11-18,13:22:11,13:41:19,NA,incomplete,97,shape,0,left,Green_Star_Dots_3.jpg,Blue_Star_Chess_2.jpg,Red_Triangle_Stripes_3.jpg,left,674.5200000004843,true,low,false
E3rG5Fgw,3icohx7eofotocxdgkfntnxt5xb0e8,3300dtyqt6ujzp06oke4xdk3v90qe7,E3rG5Fgw,2020-0188,2020-11-18,13:22:11,13:41:19,NA,incomplete,98,shape,1,left,Purple_Triangle_Chess_4.jpg,Green_Triangle_Dots_3.jpg,Red_Circle_Stripes_4.jpg,left,898.8649999955669,true,low,false
E3rG5Fgw,3icohx7eofotocxdgkfntnxt5xb0e8,3300dtyqt6ujzp06oke4xdk3v90qe7,E3rG5Fgw,2020-0188,2020-11-18,13:22:11,13:41:19,NA,incomplete,99,shape,1,left,Red_Circle_Grid_4.jpg,Purple_Circle_Dots_3.jpg,Blue_Star_Chess_4.jpg,left,587.2000000090338,true,low,false
E3rG5Fgw,3icohx7eofotocxdgkfntnxt5xb0e8,3300dtyqt6ujzp06oke4xdk3v90qe7,E3rG5Fgw,2020-0188,2020-11-18,13:22:11,13:41:19,NA,incomplete,100,shape,1,right,Blue_Plus_Chess_1.jpg,Purple_Triangle_Dots_1.jpg,Green_Plus_Stripes_2.jpg,right,1167.2900000121444,true,low,false
E3rG5Fgw,3icohx7eofotocxdgkfntnxt5xb0e8,3300dtyqt6ujzp06oke4xdk3v90qe7,E3rG5Fgw,2020-0188,2020-11-18,13:22:11,13:41:19,NA,incomplete,101,shape,1,left,Green_Star_Chess_1.jpg,Blue_Star_Dots_2.jpg,Purple_Triangle_Grid_1.jpg,left,644.0350000048056,true,low,false
E3rG5Fgw,3icohx7eofotocxdgkfntnxt5xb0e8,3300dtyqt6ujzp06oke4xdk3v90qe7,E3rG5Fgw,2020-0188,2020-11-18,13:22:11,13:41:19,NA,incomplete,102,shape,1,right,Red_Triangle_Dots_3.jpg,Green_Plus_Grid_3.jpg,Purple_Triangle_Stripes_4.jpg,right,765.3349999745842,true,low,false
E3rG5Fgw,3icohx7eofotocxdgkfntnxt5xb0e8,3300dtyqt6ujzp06oke4xdk3v90qe7,E3rG5Fgw,2020-0188,2020-11-18,13:22:11,13:41:19,NA,incomplete,103,shape,1,right,Green_Triangle_Chess_2.jpg,Blue_Plus_Grid_2.jpg,Red_Triangle_Dots_1.jpg,left,715.0850000034552,false,low,false
E3rG5Fgw,3icohx7eofotocxdgkfntnxt5xb0e8,3300dtyqt6ujzp06oke4xdk3v90qe7,E3rG5Fgw,2020-0188,2020-11-18,13:22:11,13:41:19,NA,incomplete,104,shape,0,left,Red_Triangle_Dots_4.jpg,Green_Triangle_Stripes_3.jpg,Blue_Circle_Chess_4.jpg,left,642.7850000036415,true,low,false
E3rG5Fgw,3icohx7eofotocxdgkfntnxt5xb0e8,3300dtyqt6ujzp06oke4xdk3v90qe7,E3rG5Fgw,2020-0188,2020-11-18,13:22:11,13:41:19,NA,incomplete,105,shape,1,left,Red_Plus_Chess_4.jpg,Green_Plus_Dots_2.jpg,Purple_Star_Grid_4.jpg,right,660.5949999939185,false,low,false
E3rG5Fgw,3icohx7eofotocxdgkfntnxt5xb0e8,3300dtyqt6ujzp06oke4xdk3v90qe7,E3rG5Fgw,2020-0188,2020-11-18,13:22:11,13:41:19,NA,incomplete,106,shape,1,left,Purple_Star_Chess_1.jpg,Blue_Star_Grid_4.jpg,Green_Circle_Stripes_1.jpg,left,669.7400000120979,true,low,false
E3rG5Fgw,3icohx7eofotocxdgkfntnxt5xb0e8,3300dtyqt6ujzp06oke4xdk3v90qe7,E3rG5Fgw,2020-0188,2020-11-18,13:22:11,13:41:19,NA,incomplete,107,shape,0,left,Purple_Circle_Dots_2.jpg,Red_Circle_Chess_4.jpg,Blue_Plus_Grid_2.jpg,left,799.0600000193808,true,low,false
E3rG5Fgw,3icohx7eofotocxdgkfntnxt5xb0e8,3300dtyqt6ujzp06oke4xdk3v90qe7,E3rG5Fgw,2020-0188,2020-11-18,13:22:11,13:41:19,NA,incomplete,108,shape,1,right,Blue_Circle_Dots_2.jpg,Red_Plus_Stripes_2.jpg,Green_Circle_Grid_1.jpg,right,651.1250000039581,true,low,false
E3rG5Fgw,3icohx7eofotocxdgkfntnxt5xb0e8,3300dtyqt6ujzp06oke4xdk3v90qe7,E3rG5Fgw,2020-0188,2020-11-18,13:22:11,13:41:19,NA,incomplete,109,shape,1,left,Purple_Triangle_Stripes_4.jpg,Green_Triangle_Chess_3.jpg,Blue_Plus_Dots_4.jpg,left,668.6099999933504,true,low,false
E3rG5Fgw,3icohx7eofotocxdgkfntnxt5xb0e8,3300dtyqt6ujzp06oke4xdk3v90qe7,E3rG5Fgw,2020-0188,2020-11-18,13:22:11,13:41:19,NA,incomplete,110,shape,1,right,Blue_Plus_Dots_4.jpg,Green_Triangle_Grid_4.jpg,Purple_Plus_Chess_3.jpg,right,565.2950000076089,true,low,false
E3rG5Fgw,3icohx7eofotocxdgkfntnxt5xb0e8,3300dtyqt6ujzp06oke4xdk3v90qe7,E3rG5Fgw,2020-0188,2020-11-18,13:22:11,13:41:19,NA,incomplete,111,shape,1,right,Red_Plus_Dots_1.jpg,Green_Circle_Grid_1.jpg,Blue_Plus_Chess_4.jpg,right,714.494999992894,true,low,false
E3rG5Fgw,3icohx7eofotocxdgkfntnxt5xb0e8,3300dtyqt6ujzp06oke4xdk3v90qe7,E3rG5Fgw,2020-0188,2020-11-18,13:22:11,13:41:19,NA,incomplete,112,shape,1,right,Blue_Triangle_Chess_3.jpg,Red_Plus_Grid_3.jpg,Purple_Triangle_Dots_2.jpg,right,618.1999999971595,true,low,false
E3rG5Fgw,3icohx7eofotocxdgkfntnxt5xb0e8,3300dtyqt6ujzp06oke4xdk3v90qe7,E3rG5Fgw,2020-0188,2020-11-18,13:22:11,13:41:19,NA,incomplete,113,shape,0,left,Red_Plus_Dots_4.jpg,Blue_Plus_Chess_2.jpg,Purple_Triangle_Stripes_4.jpg,left,711.4350000047125,true,low,false
E3rG5Fgw,3icohx7eofotocxdgkfntnxt5xb0e8,3300dtyqt6ujzp06oke4xdk3v90qe7,E3rG5Fgw,2020-0188,2020-11-18,13:22:11,13:41:19,NA,incomplete,114,shape,0,right,Blue_Star_Stripes_2.jpg,Red_Plus_Dots_2.jpg,Purple_Star_Chess_1.jpg,right,572.9149999970105,true,low,false
E3rG5Fgw,3icohx7eofotocxdgkfntnxt5xb0e8,3300dtyqt6ujzp06oke4xdk3v90qe7,E3rG5Fgw,2020-0188,2020-11-18,13:22:11,13:41:19,NA,incomplete,115,shape,1,left,Purple_Circle_Grid_4.jpg,Red_Circle_Chess_2.jpg,Green_Plus_Stripes_4.jpg,left,594.1400000010617,true,low,false
E3rG5Fgw,3icohx7eofotocxdgkfntnxt5xb0e8,3300dtyqt6ujzp06oke4xdk3v90qe7,E3rG5Fgw,2020-0188,2020-11-18,13:22:11,13:41:19,NA,incomplete,116,shape,0,right,Green_Star_Grid_4.jpg,Blue_Circle_Dots_4.jpg,Purple_Star_Chess_2.jpg,right,542.170000000624,true,low,false
E3rG5Fgw,3icohx7eofotocxdgkfntnxt5xb0e8,3300dtyqt6ujzp06oke4xdk3v90qe7,E3rG5Fgw,2020-0188,2020-11-18,13:22:11,13:41:19,NA,incomplete,117,shape,1,right,Purple_Triangle_Grid_4.jpg,Blue_Star_Chess_4.jpg,Red_Triangle_Stripes_3.jpg,right,563.8250000192784,true,low,false
E3rG5Fgw,3icohx7eofotocxdgkfntnxt5xb0e8,3300dtyqt6ujzp06oke4xdk3v90qe7,E3rG5Fgw,2020-0188,2020-11-18,13:22:11,13:41:19,NA,incomplete,118,shape,0,right,Green_Triangle_Chess_4.jpg,Purple_Plus_Dots_4.jpg,Red_Triangle_Stripes_1.jpg,left,536.6849999991246,false,low,false
E3rG5Fgw,3icohx7eofotocxdgkfntnxt5xb0e8,3300dtyqt6ujzp06oke4xdk3v90qe7,E3rG5Fgw,2020-0188,2020-11-18,13:22:11,13:41:19,NA,incomplete,119,shape,1,left,Purple_Circle_Dots_3.jpg,Red_Circle_Chess_2.jpg,Blue_Triangle_Grid_3.jpg,right,774.5300000242423,false,low,false
E3rG5Fgw,3icohx7eofotocxdgkfntnxt5xb0e8,3300dtyqt6ujzp06oke4xdk3v90qe7,E3rG5Fgw,2020-0188,2020-11-18,13:22:11,13:41:19,NA,incomplete,120,filling,1,right,Green_Circle_Grid_1.jpg,Green_Triangle_Stripes_2.jpg,Purple_Plus_Grid_4.jpg,left,1423.7149999826215,false,low,false
E3rG5Fgw,3icohx7eofotocxdgkfntnxt5xb0e8,3300dtyqt6ujzp06oke4xdk3v90qe7,E3rG5Fgw,2020-0188,2020-11-18,13:22:11,13:41:19,NA,incomplete,121,filling,1,right,Purple_Triangle_Chess_2.jpg,Purple_Circle_Stripes_4.jpg,Blue_Plus_Chess_1.jpg,left,850.9650000196416,false,low,false
E3rG5Fgw,3icohx7eofotocxdgkfntnxt5xb0e8,3300dtyqt6ujzp06oke4xdk3v90qe7,E3rG5Fgw,2020-0188,2020-11-18,13:22:11,13:41:19,NA,incomplete,122,filling,1,right,Red_Star_Dots_2.jpg,Red_Plus_Stripes_1.jpg,Green_Triangle_Dots_3.jpg,left,708.5800000058953,false,low,false
E3rG5Fgw,3icohx7eofotocxdgkfntnxt5xb0e8,3300dtyqt6ujzp06oke4xdk3v90qe7,E3rG5Fgw,2020-0188,2020-11-18,13:22:11,13:41:19,NA,incomplete,123,filling,1,right,Green_Triangle_Chess_4.jpg,Green_Circle_Stripes_1.jpg,Red_Plus_Chess_3.jpg,left,554.8899999994319,false,low,false
E3rG5Fgw,3icohx7eofotocxdgkfntnxt5xb0e8,3300dtyqt6ujzp06oke4xdk3v90qe7,E3rG5Fgw,2020-0188,2020-11-18,13:22:11,13:41:19,NA,incomplete,124,filling,1,left,Green_Triangle_Dots_4.jpg,Blue_Star_Dots_3.jpg,Green_Circle_Chess_1.jpg,left,1289.294999995036,true,low,false
E3rG5Fgw,3icohx7eofotocxdgkfntnxt5xb0e8,3300dtyqt6ujzp06oke4xdk3v90qe7,E3rG5Fgw,2020-0188,2020-11-18,13:22:11,13:41:19,NA,incomplete,125,filling,1,left,Green_Plus_Chess_3.jpg,Purple_Circle_Chess_1.jpg,Green_Star_Stripes_4.jpg,right,1488.0450000055134,false,low,false
E3rG5Fgw,3icohx7eofotocxdgkfntnxt5xb0e8,3300dtyqt6ujzp06oke4xdk3v90qe7,E3rG5Fgw,2020-0188,2020-11-18,13:22:11,13:41:19,NA,incomplete,126,filling,1,left,Green_Star_Stripes_2.jpg,Blue_Plus_Stripes_1.jpg,Green_Circle_Grid_3.jpg,left,1479.9200000124983,true,low,false
E3rG5Fgw,3icohx7eofotocxdgkfntnxt5xb0e8,3300dtyqt6ujzp06oke4xdk3v90qe7,E3rG5Fgw,2020-0188,2020-11-18,13:22:11,13:41:19,NA,incomplete,127,filling,1,left,Blue_Plus_Grid_4.jpg,Green_Star_Grid_2.jpg,Blue_Circle_Chess_1.jpg,left,1608.654999989085,true,low,false
E3rG5Fgw,3icohx7eofotocxdgkfntnxt5xb0e8,3300dtyqt6ujzp06oke4xdk3v90qe7,E3rG5Fgw,2020-0188,2020-11-18,13:22:11,13:41:19,NA,incomplete,128,filling,0,right,Purple_Plus_Dots_2.jpg,Purple_Circle_Chess_1.jpg,Green_Triangle_Dots_3.jpg,right,1323.915000015404,true,low,false
E3rG5Fgw,3icohx7eofotocxdgkfntnxt5xb0e8,3300dtyqt6ujzp06oke4xdk3v90qe7,E3rG5Fgw,2020-0188,2020-11-18,13:22:11,13:41:19,NA,incomplete,129,filling,1,left,Purple_Plus_Chess_3.jpg,Blue_Triangle_Chess_2.jpg,Purple_Star_Stripes_1.jpg,left,875.4699999990407,true,low,false
E3rG5Fgw,3icohx7eofotocxdgkfntnxt5xb0e8,3300dtyqt6ujzp06oke4xdk3v90qe7,E3rG5Fgw,2020-0188,2020-11-18,13:22:11,13:41:19,NA,incomplete,130,filling,1,right,Blue_Circle_Chess_1.jpg,Blue_Plus_Grid_3.jpg,Green_Triangle_Chess_2.jpg,none,0,false,low,false
E3rG5Fgw,3icohx7eofotocxdgkfntnxt5xb0e8,3300dtyqt6ujzp06oke4xdk3v90qe7,E3rG5Fgw,2020-0188,2020-11-18,13:22:11,13:41:19,NA,incomplete,131,filling,1,right,Blue_Triangle_Dots_1.jpg,Blue_Star_Stripes_4.jpg,Purple_Circle_Dots_2.jpg,right,1015.9350000030827,true,low,false
E3rG5Fgw,3icohx7eofotocxdgkfntnxt5xb0e8,3300dtyqt6ujzp06oke4xdk3v90qe7,E3rG5Fgw,2020-0188,2020-11-18,13:22:11,13:41:19,NA,incomplete,132,filling,1,left,Purple_Circle_Grid_2.jpg,Green_Star_Grid_1.jpg,Purple_Triangle_Stripes_3.jpg,left,1203.3949999895412,true,low,false
E3rG5Fgw,3icohx7eofotocxdgkfntnxt5xb0e8,3300dtyqt6ujzp06oke4xdk3v90qe7,E3rG5Fgw,2020-0188,2020-11-18,13:22:11,13:41:19,NA,incomplete,133,filling,1,right,Green_Triangle_Dots_3.jpg,Green_Circle_Grid_2.jpg,Blue_Star_Dots_1.jpg,right,967.3400000028778,true,low,false
E3rG5Fgw,3icohx7eofotocxdgkfntnxt5xb0e8,3300dtyqt6ujzp06oke4xdk3v90qe7,E3rG5Fgw,2020-0188,2020-11-18,13:22:11,13:41:19,NA,incomplete,134,filling,1,right,Purple_Triangle_Dots_3.jpg,Purple_Star_Chess_4.jpg,Green_Plus_Dots_2.jpg,right,955.4599999974016,true,low,false
E3rG5Fgw,3icohx7eofotocxdgkfntnxt5xb0e8,3300dtyqt6ujzp06oke4xdk3v90qe7,E3rG5Fgw,2020-0188,2020-11-18,13:22:11,13:41:19,NA,incomplete,135,filling,1,left,Red_Star_Stripes_3.jpg,Green_Triangle_Stripes_4.jpg,Red_Plus_Grid_1.jpg,left,1177.2800000035204,true,low,false
E3rG5Fgw,3icohx7eofotocxdgkfntnxt5xb0e8,3300dtyqt6ujzp06oke4xdk3v90qe7,E3rG5Fgw,2020-0188,2020-11-18,13:22:11,13:41:19,NA,incomplete,136,filling,0,right,Purple_Circle_Dots_4.jpg,Purple_Triangle_Stripes_3.jpg,Green_Plus_Dots_2.jpg,right,949.4199999899138,true,low,false
E3rG5Fgw,3icohx7eofotocxdgkfntnxt5xb0e8,3300dtyqt6ujzp06oke4xdk3v90qe7,E3rG5Fgw,2020-0188,2020-11-18,13:22:11,13:41:19,NA,incomplete,137,filling,1,right,Blue_Star_Stripes_4.jpg,Blue_Plus_Grid_3.jpg,Green_Circle_Stripes_2.jpg,right,1050.9349999774713,true,low,false
E3rG5Fgw,3icohx7eofotocxdgkfntnxt5xb0e8,3300dtyqt6ujzp06oke4xdk3v90qe7,E3rG5Fgw,2020-0188,2020-11-18,13:22:11,13:41:19,NA,incomplete,138,filling,1,right,Blue_Plus_Dots_2.jpg,Blue_Triangle_Grid_3.jpg,Purple_Circle_Dots_1.jpg,right,996.4299999992363,true,low,false
E3rG5Fgw,3icohx7eofotocxdgkfntnxt5xb0e8,3300dtyqt6ujzp06oke4xdk3v90qe7,E3rG5Fgw,2020-0188,2020-11-18,13:22:11,13:41:19,NA,incomplete,139,filling,0,left,Blue_Circle_Dots_2.jpg,Purple_Plus_Dots_1.jpg,Blue_Triangle_Grid_3.jpg,left,984.7949999966659,true,low,false
E3rG5Fgw,3icohx7eofotocxdgkfntnxt5xb0e8,3300dtyqt6ujzp06oke4xdk3v90qe7,E3rG5Fgw,2020-0188,2020-11-18,13:22:11,13:41:19,NA,incomplete,140,color,1,left,Red_Plus_Grid_1.jpg,Red_Circle_Chess_2.jpg,Purple_Triangle_Grid_4.jpg,right,1036.7149999947287,false,low,false
E3rG5Fgw,3icohx7eofotocxdgkfntnxt5xb0e8,3300dtyqt6ujzp06oke4xdk3v90qe7,E3rG5Fgw,2020-0188,2020-11-18,13:22:11,13:41:19,NA,incomplete,141,color,1,right,Blue_Star_Chess_4.jpg,Purple_Circle_Chess_2.jpg,Blue_Triangle_Stripes_3.jpg,right,639.3499999830965,true,low,false
E3rG5Fgw,3icohx7eofotocxdgkfntnxt5xb0e8,3300dtyqt6ujzp06oke4xdk3v90qe7,E3rG5Fgw,2020-0188,2020-11-18,13:22:11,13:41:19,NA,incomplete,142,color,0,left,Purple_Triangle_Chess_3.jpg,Purple_Star_Dots_4.jpg,Red_Circle_Chess_2.jpg,left,664.6199999959208,true,low,false
E3rG5Fgw,3icohx7eofotocxdgkfntnxt5xb0e8,3300dtyqt6ujzp06oke4xdk3v90qe7,E3rG5Fgw,2020-0188,2020-11-18,13:22:11,13:41:19,NA,incomplete,143,color,1,left,Green_Plus_Stripes_4.jpg,Green_Triangle_Grid_2.jpg,Red_Star_Stripes_1.jpg,left,561.6699999955017,true,low,false
E3rG5Fgw,3icohx7eofotocxdgkfntnxt5xb0e8,3300dtyqt6ujzp06oke4xdk3v90qe7,E3rG5Fgw,2020-0188,2020-11-18,13:22:11,13:41:19,NA,incomplete,144,color,1,right,Red_Star_Stripes_4.jpg,Purple_Circle_Stripes_1.jpg,Red_Plus_Dots_3.jpg,right,559.0700000175275,true,low,false
E3rG5Fgw,3icohx7eofotocxdgkfntnxt5xb0e8,3300dtyqt6ujzp06oke4xdk3v90qe7,E3rG5Fgw,2020-0188,2020-11-18,13:22:11,13:41:19,NA,incomplete,145,color,1,left,Blue_Star_Grid_3.jpg,Blue_Triangle_Chess_2.jpg,Red_Plus_Grid_4.jpg,left,620.6550000060815,true,low,false
E3rG5Fgw,3icohx7eofotocxdgkfntnxt5xb0e8,3300dtyqt6ujzp06oke4xdk3v90qe7,E3rG5Fgw,2020-0188,2020-11-18,13:22:11,13:41:19,NA,incomplete,146,color,0,left,Purple_Circle_Chess_4.jpg,Purple_Triangle_Stripes_1.jpg,Blue_Plus_Chess_3.jpg,left,590.7249999872874,true,low,false
E3rG5Fgw,3icohx7eofotocxdgkfntnxt5xb0e8,3300dtyqt6ujzp06oke4xdk3v90qe7,E3rG5Fgw,2020-0188,2020-11-18,13:22:11,13:41:19,NA,incomplete,147,color,1,left,Purple_Plus_Chess_2.jpg,Purple_Triangle_Dots_1.jpg,Blue_Circle_Chess_3.jpg,left,491.409999987809,true,low,false
E3rG5Fgw,3icohx7eofotocxdgkfntnxt5xb0e8,3300dtyqt6ujzp06oke4xdk3v90qe7,E3rG5Fgw,2020-0188,2020-11-18,13:22:11,13:41:19,NA,incomplete,148,color,1,right,Blue_Circle_Grid_2.jpg,Purple_Plus_Grid_3.jpg,Blue_Triangle_Dots_4.jpg,right,554.8149999813177,true,low,false
E3rG5Fgw,3icohx7eofotocxdgkfntnxt5xb0e8,3300dtyqt6ujzp06oke4xdk3v90qe7,E3rG5Fgw,2020-0188,2020-11-18,13:22:11,13:41:19,NA,incomplete,149,color,1,right,Red_Star_Grid_4.jpg,Green_Plus_Grid_3.jpg,Red_Circle_Dots_1.jpg,right,479.40499999094754,true,low,false
E3rG5Fgw,3icohx7eofotocxdgkfntnxt5xb0e8,3300dtyqt6ujzp06oke4xdk3v90qe7,E3rG5Fgw,2020-0188,2020-11-18,13:22:11,13:41:19,NA,incomplete,150,color,0,left,Purple_Star_Grid_3.jpg,Purple_Plus_Stripes_2.jpg,Red_Circle_Grid_1.jpg,left,522.1799999999348,true,low,false
E3rG5Fgw,3icohx7eofotocxdgkfntnxt5xb0e8,3300dtyqt6ujzp06oke4xdk3v90qe7,E3rG5Fgw,2020-0188,2020-11-18,13:22:11,13:41:19,NA,incomplete,151,color,1,right,Purple_Plus_Dots_4.jpg,Blue_Triangle_Dots_1.jpg,Purple_Star_Chess_3.jpg,right,455.4000000061933,true,low,false
E3rG5Fgw,3icohx7eofotocxdgkfntnxt5xb0e8,3300dtyqt6ujzp06oke4xdk3v90qe7,E3rG5Fgw,2020-0188,2020-11-18,13:22:11,13:41:19,NA,incomplete,152,color,1,right,Blue_Star_Chess_2.jpg,Green_Triangle_Chess_3.jpg,Blue_Circle_Stripes_4.jpg,right,489.4100000092294,true,low,false
E3rG5Fgw,3icohx7eofotocxdgkfntnxt5xb0e8,3300dtyqt6ujzp06oke4xdk3v90qe7,E3rG5Fgw,2020-0188,2020-11-18,13:22:11,13:41:19,NA,incomplete,153,color,1,right,Green_Star_Chess_4.jpg,Purple_Triangle_Chess_3.jpg,Green_Plus_Stripes_1.jpg,right,495.8549999864772,true,low,false
E3rG5Fgw,3icohx7eofotocxdgkfntnxt5xb0e8,3300dtyqt6ujzp06oke4xdk3v90qe7,E3rG5Fgw,2020-0188,2020-11-18,13:22:11,13:41:19,NA,incomplete,154,color,0,left,Red_Triangle_Grid_1.jpg,Red_Star_Stripes_2.jpg,Blue_Plus_Grid_3.jpg,left,457.3050000180956,true,low,false
E3rG5Fgw,3icohx7eofotocxdgkfntnxt5xb0e8,3300dtyqt6ujzp06oke4xdk3v90qe7,E3rG5Fgw,2020-0188,2020-11-18,13:22:11,13:41:19,NA,incomplete,155,color,1,right,Green_Triangle_Grid_4.jpg,Blue_Plus_Grid_1.jpg,Green_Star_Dots_2.jpg,right,449.7400000109337,true,low,false
E3rG5Fgw,3icohx7eofotocxdgkfntnxt5xb0e8,3300dtyqt6ujzp06oke4xdk3v90qe7,E3rG5Fgw,2020-0188,2020-11-18,13:22:11,13:41:19,NA,incomplete,156,color,1,left,Blue_Star_Stripes_1.jpg,Blue_Circle_Chess_3.jpg,Red_Plus_Stripes_2.jpg,left,436.8949999916367,true,low,false
E3rG5Fgw,3icohx7eofotocxdgkfntnxt5xb0e8,3300dtyqt6ujzp06oke4xdk3v90qe7,E3rG5Fgw,2020-0188,2020-11-18,13:22:11,13:41:19,NA,incomplete,157,color,1,left,Green_Circle_Stripes_4.jpg,Green_Star_Grid_1.jpg,Purple_Plus_Stripes_2.jpg,left,486.8750000023283,true,low,false
E3rG5Fgw,3icohx7eofotocxdgkfntnxt5xb0e8,3300dtyqt6ujzp06oke4xdk3v90qe7,E3rG5Fgw,2020-0188,2020-11-18,13:22:11,13:41:19,NA,incomplete,158,color,0,right,Blue_Circle_Stripes_1.jpg,Purple_Plus_Stripes_3.jpg,Blue_Triangle_Chess_2.jpg,right,407.0449999999255,true,low,false
E3rG5Fgw,3icohx7eofotocxdgkfntnxt5xb0e8,3300dtyqt6ujzp06oke4xdk3v90qe7,E3rG5Fgw,2020-0188,2020-11-18,13:22:11,13:41:19,NA,incomplete,159,color,1,right,Blue_Triangle_Chess_3.jpg,Purple_Star_Chess_1.jpg,Blue_Circle_Dots_4.jpg,right,425.6599999789614,true,low,false
E3rG5Fgw,3icohx7eofotocxdgkfntnxt5xb0e8,3300dtyqt6ujzp06oke4xdk3v90qe7,E3rG5Fgw,2020-0188,2020-11-18,13:22:11,13:41:19,NA,incomplete,160,filling,0,right,Blue_Star_Chess_4.jpg,Blue_Plus_Grid_3.jpg,Red_Circle_Chess_2.jpg,left,404.3649999948684,false,low,false
E3rG5Fgw,3icohx7eofotocxdgkfntnxt5xb0e8,3300dtyqt6ujzp06oke4xdk3v90qe7,E3rG5Fgw,2020-0188,2020-11-18,13:22:11,13:41:19,NA,incomplete,161,filling,1,right,Green_Star_Stripes_3.jpg,Green_Circle_Chess_2.jpg,Blue_Plus_Stripes_1.jpg,left,528.3000000054017,false,low,false
E3rG5Fgw,3icohx7eofotocxdgkfntnxt5xb0e8,3300dtyqt6ujzp06oke4xdk3v90qe7,E3rG5Fgw,2020-0188,2020-11-18,13:22:11,13:41:19,NA,incomplete,162,filling,1,right,Blue_Circle_Stripes_2.jpg,Blue_Plus_Grid_4.jpg,Purple_Star_Stripes_3.jpg,left,511.3149999815505,false,low,false
E3rG5Fgw,3icohx7eofotocxdgkfntnxt5xb0e8,3300dtyqt6ujzp06oke4xdk3v90qe7,E3rG5Fgw,2020-0188,2020-11-18,13:22:11,13:41:19,NA,incomplete,163,filling,1,left,Red_Star_Stripes_1.jpg,Purple_Plus_Stripes_3.jpg,Red_Triangle_Grid_2.jpg,right,430.5999999924097,false,low,false
E3rG5Fgw,3icohx7eofotocxdgkfntnxt5xb0e8,3300dtyqt6ujzp06oke4xdk3v90qe7,E3rG5Fgw,2020-0188,2020-11-18,13:22:11,13:41:19,NA,incomplete,164,filling,1,left,Purple_Triangle_Dots_3.jpg,Red_Plus_Dots_2.jpg,Purple_Circle_Grid_1.jpg,left,958.5700000170618,true,low,false
E3rG5Fgw,3icohx7eofotocxdgkfntnxt5xb0e8,3300dtyqt6ujzp06oke4xdk3v90qe7,E3rG5Fgw,2020-0188,2020-11-18,13:22:11,13:41:19,NA,incomplete,165,filling,1,right,Red_Circle_Chess_2.jpg,Red_Plus_Grid_1.jpg,Purple_Star_Chess_3.jpg,right,990.6550000014249,true,low,false
E3rG5Fgw,3icohx7eofotocxdgkfntnxt5xb0e8,3300dtyqt6ujzp06oke4xdk3v90qe7,E3rG5Fgw,2020-0188,2020-11-18,13:22:11,13:41:19,NA,incomplete,166,filling,0,left,Red_Triangle_Dots_2.jpg,Purple_Circle_Dots_3.jpg,Red_Plus_Stripes_4.jpg,left,713.3349999785423,true,low,false
E3rG5Fgw,3icohx7eofotocxdgkfntnxt5xb0e8,3300dtyqt6ujzp06oke4xdk3v90qe7,E3rG5Fgw,2020-0188,2020-11-18,13:22:11,13:41:19,NA,incomplete,167,filling,1,right,Green_Circle_Grid_1.jpg,Green_Plus_Chess_3.jpg,Purple_Star_Grid_4.jpg,right,865.2550000115298,true,low,false
E3rG5Fgw,3icohx7eofotocxdgkfntnxt5xb0e8,3300dtyqt6ujzp06oke4xdk3v90qe7,E3rG5Fgw,2020-0188,2020-11-18,13:22:11,13:41:19,NA,incomplete,168,filling,1,left,Blue_Triangle_Dots_2.jpg,Purple_Circle_Dots_4.jpg,Blue_Plus_Chess_3.jpg,left,939.0450000064448,true,low,false
E3rG5Fgw,3icohx7eofotocxdgkfntnxt5xb0e8,3300dtyqt6ujzp06oke4xdk3v90qe7,E3rG5Fgw,2020-0188,2020-11-18,13:22:11,13:41:19,NA,incomplete,169,filling,0,left,Red_Star_Chess_1.jpg,Green_Triangle_Chess_2.jpg,Red_Plus_Grid_3.jpg,left,888.1250000267755,true,low,false
E3rG5Fgw,3icohx7eofotocxdgkfntnxt5xb0e8,3300dtyqt6ujzp06oke4xdk3v90qe7,E3rG5Fgw,2020-0188,2020-11-18,13:22:11,13:41:19,NA,incomplete,170,filling,1,left,Green_Star_Chess_3.jpg,Purple_Triangle_Chess_4.jpg,Green_Circle_Grid_1.jpg,left,920.3050000069197,true,low,false
E3rG5Fgw,3icohx7eofotocxdgkfntnxt5xb0e8,3300dtyqt6ujzp06oke4xdk3v90qe7,E3rG5Fgw,2020-0188,2020-11-18,13:22:11,13:41:19,NA,incomplete,171,filling,1,right,Green_Triangle_Chess_3.jpg,Green_Circle_Dots_4.jpg,Purple_Star_Chess_2.jpg,right,799.0950000239536,true,low,false
E3rG5Fgw,3icohx7eofotocxdgkfntnxt5xb0e8,3300dtyqt6ujzp06oke4xdk3v90qe7,E3rG5Fgw,2020-0188,2020-11-18,13:22:11,13:41:19,NA,incomplete,172,filling,1,right,Purple_Triangle_Grid_3.jpg,Purple_Circle_Dots_2.jpg,Red_Star_Grid_4.jpg,right,858.7100000004284,true,low,false
E3rG5Fgw,3icohx7eofotocxdgkfntnxt5xb0e8,3300dtyqt6ujzp06oke4xdk3v90qe7,E3rG5Fgw,2020-0188,2020-11-18,13:22:11,13:41:19,NA,incomplete,173,filling,0,left,Purple_Star_Stripes_2.jpg,Blue_Plus_Stripes_3.jpg,Purple_Circle_Chess_1.jpg,left,869.1450000042096,true,low,false
E3rG5Fgw,3icohx7eofotocxdgkfntnxt5xb0e8,3300dtyqt6ujzp06oke4xdk3v90qe7,E3rG5Fgw,2020-0188,2020-11-18,13:22:11,13:41:19,NA,incomplete,174,filling,1,left,Blue_Circle_Stripes_2.jpg,Purple_Plus_Stripes_3.jpg,Blue_Triangle_Grid_4.jpg,left,942.0950000057928,true,low,false
E3rG5Fgw,3icohx7eofotocxdgkfntnxt5xb0e8,3300dtyqt6ujzp06oke4xdk3v90qe7,E3rG5Fgw,2020-0188,2020-11-18,13:22:11,13:41:19,NA,incomplete,175,filling,1,left,Red_Circle_Stripes_4.jpg,Green_Triangle_Stripes_2.jpg,Red_Plus_Grid_3.jpg,left,843.8550000137184,true,low,false
E3rG5Fgw,3icohx7eofotocxdgkfntnxt5xb0e8,3300dtyqt6ujzp06oke4xdk3v90qe7,E3rG5Fgw,2020-0188,2020-11-18,13:22:11,13:41:19,NA,incomplete,176,filling,1,left,Green_Plus_Grid_3.jpg,Blue_Triangle_Grid_1.jpg,Green_Circle_Dots_2.jpg,left,772.4450000096112,true,low,false
E3rG5Fgw,3icohx7eofotocxdgkfntnxt5xb0e8,3300dtyqt6ujzp06oke4xdk3v90qe7,E3rG5Fgw,2020-0188,2020-11-18,13:22:11,13:41:19,NA,incomplete,177,filling,0,left,Purple_Circle_Grid_2.jpg,Blue_Plus_Grid_3.jpg,Purple_Triangle_Chess_1.jpg,left,738.6399999959394,true,low,false
E3rG5Fgw,3icohx7eofotocxdgkfntnxt5xb0e8,3300dtyqt6ujzp06oke4xdk3v90qe7,E3rG5Fgw,2020-0188,2020-11-18,13:22:11,13:41:19,NA,incomplete,178,filling,1,left,Purple_Star_Stripes_1.jpg,Blue_Triangle_Stripes_3.jpg,Purple_Plus_Dots_2.jpg,left,711.2450000131503,true,low,false
E3rG5Fgw,3icohx7eofotocxdgkfntnxt5xb0e8,3300dtyqt6ujzp06oke4xdk3v90qe7,E3rG5Fgw,2020-0188,2020-11-18,13:22:11,13:41:19,NA,incomplete,179,filling,1,left,Green_Plus_Grid_3.jpg,Blue_Triangle_Grid_2.jpg,Green_Circle_Chess_1.jpg,left,934.4049999781419,true,low,false
E3rG5Fgw,3icohx7eofotocxdgkfntnxt5xb0e8,3300dtyqt6ujzp06oke4xdk3v90qe7,E3rG5Fgw,2020-0188,2020-11-18,13:22:11,13:41:19,NA,incomplete,180,color,1,right,Red_Triangle_Chess_1.jpg,Purple_Circle_Chess_3.jpg,Red_Star_Dots_2.jpg,left,676.5850000083447,false,low,false
E3rG5Fgw,3icohx7eofotocxdgkfntnxt5xb0e8,3300dtyqt6ujzp06oke4xdk3v90qe7,E3rG5Fgw,2020-0188,2020-11-18,13:22:11,13:41:19,NA,incomplete,181,color,1,right,Red_Plus_Grid_1.jpg,Purple_Circle_Grid_3.jpg,Red_Triangle_Chess_4.jpg,left,837.9399999976158,false,low,false
E3rG5Fgw,3icohx7eofotocxdgkfntnxt5xb0e8,3300dtyqt6ujzp06oke4xdk3v90qe7,E3rG5Fgw,2020-0188,2020-11-18,13:22:11,13:41:19,NA,incomplete,182,color,1,right,Green_Triangle_Stripes_1.jpg,Purple_Star_Stripes_3.jpg,Green_Plus_Chess_2.jpg,right,551.7800000088755,true,low,false
E3rG5Fgw,3icohx7eofotocxdgkfntnxt5xb0e8,3300dtyqt6ujzp06oke4xdk3v90qe7,E3rG5Fgw,2020-0188,2020-11-18,13:22:11,13:41:19,NA,incomplete,183,color,0,right,Purple_Star_Chess_1.jpg,Green_Plus_Chess_3.jpg,Purple_Triangle_Grid_2.jpg,right,613.0000000121072,true,low,false
E3rG5Fgw,3icohx7eofotocxdgkfntnxt5xb0e8,3300dtyqt6ujzp06oke4xdk3v90qe7,E3rG5Fgw,2020-0188,2020-11-18,13:22:11,13:41:19,NA,incomplete,184,color,1,left,Red_Star_Dots_1.jpg,Red_Plus_Grid_2.jpg,Blue_Triangle_Dots_4.jpg,left,455.340000014985,true,low,false
E3rG5Fgw,3icohx7eofotocxdgkfntnxt5xb0e8,3300dtyqt6ujzp06oke4xdk3v90qe7,E3rG5Fgw,2020-0188,2020-11-18,13:22:11,13:41:19,NA,incomplete,185,color,1,right,Purple_Circle_Stripes_3.jpg,Green_Triangle_Stripes_4.jpg,Purple_Star_Grid_1.jpg,right,609.6299999917392,true,low,false
E3rG5Fgw,3icohx7eofotocxdgkfntnxt5xb0e8,3300dtyqt6ujzp06oke4xdk3v90qe7,E3rG5Fgw,2020-0188,2020-11-18,13:22:11,13:41:19,NA,incomplete,186,color,1,right,Purple_Circle_Dots_2.jpg,Red_Plus_Dots_4.jpg,Purple_Triangle_Chess_3.jpg,right,459.36999999685213,true,low,false
E3rG5Fgw,3icohx7eofotocxdgkfntnxt5xb0e8,3300dtyqt6ujzp06oke4xdk3v90qe7,E3rG5Fgw,2020-0188,2020-11-18,13:22:11,13:41:19,NA,incomplete,187,color,1,right,Purple_Plus_Chess_4.jpg,Blue_Star_Chess_2.jpg,Purple_Triangle_Dots_1.jpg,right,565.7099999953061,true,low,false
E3rG5Fgw,3icohx7eofotocxdgkfntnxt5xb0e8,3300dtyqt6ujzp06oke4xdk3v90qe7,E3rG5Fgw,2020-0188,2020-11-18,13:22:11,13:41:19,NA,incomplete,188,color,1,left,Green_Circle_Dots_4.jpg,Green_Triangle_Chess_1.jpg,Red_Plus_Dots_3.jpg,left,468.92499999376014,true,low,false
E3rG5Fgw,3icohx7eofotocxdgkfntnxt5xb0e8,3300dtyqt6ujzp06oke4xdk3v90qe7,E3rG5Fgw,2020-0188,2020-11-18,13:22:11,13:41:19,NA,incomplete,189,color,1,left,Blue_Triangle_Chess_4.jpg,Blue_Circle_Dots_2.jpg,Purple_Plus_Chess_3.jpg,left,780.4250000044703,true,low,false
E3rG5Fgw,3icohx7eofotocxdgkfntnxt5xb0e8,3300dtyqt6ujzp06oke4xdk3v90qe7,E3rG5Fgw,2020-0188,2020-11-18,13:22:11,13:41:19,NA,incomplete,190,color,1,right,Red_Plus_Stripes_1.jpg,Blue_Star_Stripes_4.jpg,Red_Triangle_Chess_2.jpg,right,496.11500001628883,true,low,false
E3rG5Fgw,3icohx7eofotocxdgkfntnxt5xb0e8,3300dtyqt6ujzp06oke4xdk3v90qe7,E3rG5Fgw,2020-0188,2020-11-18,13:22:11,13:41:19,NA,incomplete,191,color,0,left,Green_Circle_Chess_2.jpg,Green_Triangle_Stripes_1.jpg,Red_Plus_Chess_3.jpg,left,464.73999999579974,true,low,false
E3rG5Fgw,3icohx7eofotocxdgkfntnxt5xb0e8,3300dtyqt6ujzp06oke4xdk3v90qe7,E3rG5Fgw,2020-0188,2020-11-18,13:22:11,13:41:19,NA,incomplete,192,color,1,right,Green_Star_Chess_1.jpg,Red_Triangle_Chess_2.jpg,Green_Plus_Stripes_4.jpg,right,522.434999991674,true,low,false
E3rG5Fgw,3icohx7eofotocxdgkfntnxt5xb0e8,3300dtyqt6ujzp06oke4xdk3v90qe7,E3rG5Fgw,2020-0188,2020-11-18,13:22:11,13:41:19,NA,incomplete,193,color,1,right,Purple_Star_Dots_2.jpg,Red_Triangle_Dots_3.jpg,Purple_Circle_Chess_1.jpg,right,520.1750000123866,true,low,false
E3rG5Fgw,3icohx7eofotocxdgkfntnxt5xb0e8,3300dtyqt6ujzp06oke4xdk3v90qe7,E3rG5Fgw,2020-0188,2020-11-18,13:22:11,13:41:19,NA,incomplete,194,color,0,left,Blue_Triangle_Dots_2.jpg,Blue_Star_Grid_1.jpg,Green_Circle_Dots_3.jpg,left,448.3349999936763,true,low,false
E3rG5Fgw,3icohx7eofotocxdgkfntnxt5xb0e8,3300dtyqt6ujzp06oke4xdk3v90qe7,E3rG5Fgw,2020-0188,2020-11-18,13:22:11,13:41:19,NA,incomplete,195,color,1,right,Blue_Circle_Chess_2.jpg,Green_Triangle_Chess_3.jpg,Blue_Plus_Dots_4.jpg,right,434.21000000671484,true,low,false
E3rG5Fgw,3icohx7eofotocxdgkfntnxt5xb0e8,3300dtyqt6ujzp06oke4xdk3v90qe7,E3rG5Fgw,2020-0188,2020-11-18,13:22:11,13:41:19,NA,incomplete,196,color,0,right,Green_Triangle_Grid_1.jpg,Purple_Plus_Grid_4.jpg,Green_Circle_Dots_2.jpg,right,546.0099999909289,true,low,false
E3rG5Fgw,3icohx7eofotocxdgkfntnxt5xb0e8,3300dtyqt6ujzp06oke4xdk3v90qe7,E3rG5Fgw,2020-0188,2020-11-18,13:22:11,13:41:19,NA,incomplete,197,color,1,left,Red_Star_Grid_2.jpg,Red_Circle_Dots_4.jpg,Green_Plus_Grid_1.jpg,left,417.99499999615364,true,low,false
E3rG5Fgw,3icohx7eofotocxdgkfntnxt5xb0e8,3300dtyqt6ujzp06oke4xdk3v90qe7,E3rG5Fgw,2020-0188,2020-11-18,13:22:11,13:41:19,NA,incomplete,198,color,1,left,Blue_Triangle_Chess_3.jpg,Blue_Plus_Stripes_4.jpg,Green_Circle_Chess_2.jpg,left,518.9700000046287,true,low,false
E3rG5Fgw,3icohx7eofotocxdgkfntnxt5xb0e8,3300dtyqt6ujzp06oke4xdk3v90qe7,E3rG5Fgw,2020-0188,2020-11-18,13:22:11,13:41:19,NA,incomplete,199,color,1,left,Purple_Circle_Dots_2.jpg,Purple_Triangle_Chess_4.jpg,Red_Plus_Dots_1.jpg,left,459.13000000291504,true,low,false
E3rG5Fgw,3icohx7eofotocxdgkfntnxt5xb0e8,3300dtyqt6ujzp06oke4xdk3v90qe7,E3rG5Fgw,2020-0188,2020-11-18,13:22:11,13:41:19,NA,incomplete,200,filling,1,left,Green_Plus_Chess_2.jpg,Purple_Star_Chess_1.jpg,Green_Circle_Dots_3.jpg,right,461.8750000081491,false,low,false
E3rG5Fgw,3icohx7eofotocxdgkfntnxt5xb0e8,3300dtyqt6ujzp06oke4xdk3v90qe7,E3rG5Fgw,2020-0188,2020-11-18,13:22:11,13:41:19,NA,incomplete,201,filling,1,right,Green_Star_Stripes_1.jpg,Green_Plus_Dots_2.jpg,Blue_Circle_Stripes_3.jpg,left,453.05999999982305,false,low,false
E3rG5Fgw,3icohx7eofotocxdgkfntnxt5xb0e8,3300dtyqt6ujzp06oke4xdk3v90qe7,E3rG5Fgw,2020-0188,2020-11-18,13:22:11,13:41:19,NA,incomplete,202,filling,1,left,Green_Circle_Chess_3.jpg,Blue_Triangle_Chess_2.jpg,Green_Star_Grid_4.jpg,right,375.1400000182912,false,low,false
E3rG5Fgw,3icohx7eofotocxdgkfntnxt5xb0e8,3300dtyqt6ujzp06oke4xdk3v90qe7,E3rG5Fgw,2020-0188,2020-11-18,13:22:11,13:41:19,NA,incomplete,203,filling,0,left,Blue_Triangle_Chess_2.jpg,Purple_Plus_Chess_3.jpg,Blue_Circle_Grid_4.jpg,right,436.2649999966379,false,low,false
E3rG5Fgw,3icohx7eofotocxdgkfntnxt5xb0e8,3300dtyqt6ujzp06oke4xdk3v90qe7,E3rG5Fgw,2020-0188,2020-11-18,13:22:11,13:41:19,NA,incomplete,204,filling,1,left,Purple_Plus_Chess_2.jpg,Blue_Circle_Chess_1.jpg,Purple_Triangle_Stripes_3.jpg,right,583.7699999974575,false,low,false
E3rG5Fgw,3icohx7eofotocxdgkfntnxt5xb0e8,3300dtyqt6ujzp06oke4xdk3v90qe7,E3rG5Fgw,2020-0188,2020-11-18,13:22:11,13:41:19,NA,incomplete,205,filling,1,left,Green_Circle_Dots_3.jpg,Red_Plus_Dots_1.jpg,Green_Star_Stripes_2.jpg,right,482.82500001369044,false,low,false
E3rG5Fgw,3icohx7eofotocxdgkfntnxt5xb0e8,3300dtyqt6ujzp06oke4xdk3v90qe7,E3rG5Fgw,2020-0188,2020-11-18,13:22:11,13:41:19,NA,incomplete,206,filling,0,right,Blue_Triangle_Chess_4.jpg,Blue_Star_Stripes_2.jpg,Green_Circle_Chess_1.jpg,right,940.5299999925774,true,low,false
E3rG5Fgw,3icohx7eofotocxdgkfntnxt5xb0e8,3300dtyqt6ujzp06oke4xdk3v90qe7,E3rG5Fgw,2020-0188,2020-11-18,13:22:11,13:41:19,NA,incomplete,207,filling,1,right,Blue_Circle_Chess_2.jpg,Blue_Triangle_Stripes_3.jpg,Purple_Star_Chess_1.jpg,left,649.0699999849312,false,low,false
E3rG5Fgw,3icohx7eofotocxdgkfntnxt5xb0e8,3300dtyqt6ujzp06oke4xdk3v90qe7,E3rG5Fgw,2020-0188,2020-11-18,13:22:11,13:41:19,NA,incomplete,208,filling,1,left,Blue_Plus_Dots_3.jpg,Green_Circle_Dots_2.jpg,Blue_Triangle_Grid_4.jpg,left,930.8100000198465,true,low,false
E3rG5Fgw,3icohx7eofotocxdgkfntnxt5xb0e8,3300dtyqt6ujzp06oke4xdk3v90qe7,E3rG5Fgw,2020-0188,2020-11-18,13:22:11,13:41:19,NA,incomplete,209,filling,1,left,Red_Triangle_Chess_2.jpg,Purple_Star_Chess_4.jpg,Red_Plus_Stripes_1.jpg,left,1058.870000008028,true,low,false
E3rG5Fgw,3icohx7eofotocxdgkfntnxt5xb0e8,3300dtyqt6ujzp06oke4xdk3v90qe7,E3rG5Fgw,2020-0188,2020-11-18,13:22:11,13:41:19,NA,incomplete,210,filling,1,right,Purple_Star_Grid_2.jpg,Purple_Triangle_Dots_1.jpg,Red_Plus_Grid_3.jpg,right,843.8050000113435,true,low,false
E3rG5Fgw,3icohx7eofotocxdgkfntnxt5xb0e8,3300dtyqt6ujzp06oke4xdk3v90qe7,E3rG5Fgw,2020-0188,2020-11-18,13:22:11,13:41:19,NA,incomplete,211,filling,0,right,Purple_Circle_Chess_4.jpg,Purple_Star_Stripes_2.jpg,Green_Triangle_Chess_1.jpg,right,836.7450000077952,true,low,false
E3rG5Fgw,3icohx7eofotocxdgkfntnxt5xb0e8,3300dtyqt6ujzp06oke4xdk3v90qe7,E3rG5Fgw,2020-0188,2020-11-18,13:22:11,13:41:19,NA,incomplete,212,filling,1,left,Blue_Triangle_Dots_2.jpg,Red_Star_Dots_1.jpg,Blue_Plus_Grid_4.jpg,left,759.025000006659,true,low,false
E3rG5Fgw,3icohx7eofotocxdgkfntnxt5xb0e8,3300dtyqt6ujzp06oke4xdk3v90qe7,E3rG5Fgw,2020-0188,2020-11-18,13:22:11,13:41:19,NA,incomplete,213,filling,1,right,Green_Plus_Dots_1.jpg,Green_Circle_Grid_4.jpg,Blue_Star_Dots_2.jpg,right,809.6599999989849,true,low,false
E3rG5Fgw,3icohx7eofotocxdgkfntnxt5xb0e8,3300dtyqt6ujzp06oke4xdk3v90qe7,E3rG5Fgw,2020-0188,2020-11-18,13:22:11,13:41:19,NA,incomplete,214,filling,0,right,Green_Triangle_Dots_1.jpg,Green_Circle_Grid_3.jpg,Red_Plus_Dots_2.jpg,right,888.2149999844842,true,low,false
E3rG5Fgw,3icohx7eofotocxdgkfntnxt5xb0e8,3300dtyqt6ujzp06oke4xdk3v90qe7,E3rG5Fgw,2020-0188,2020-11-18,13:22:11,13:41:19,NA,incomplete,215,filling,1,left,Red_Circle_Chess_3.jpg,Purple_Triangle_Chess_2.jpg,Red_Plus_Grid_1.jpg,left,880.0050000136252,true,low,false
E3rG5Fgw,3icohx7eofotocxdgkfntnxt5xb0e8,3300dtyqt6ujzp06oke4xdk3v90qe7,E3rG5Fgw,2020-0188,2020-11-18,13:22:11,13:41:19,NA,incomplete,216,filling,1,right,Red_Plus_Stripes_1.jpg,Red_Star_Grid_2.jpg,Purple_Circle_Stripes_3.jpg,right,784.3549999815878,true,low,false
E3rG5Fgw,3icohx7eofotocxdgkfntnxt5xb0e8,3300dtyqt6ujzp06oke4xdk3v90qe7,E3rG5Fgw,2020-0188,2020-11-18,13:22:11,13:41:19,NA,incomplete,217,filling,0,left,Blue_Plus_Dots_2.jpg,Green_Star_Dots_1.jpg,Blue_Triangle_Stripes_4.jpg,left,892.7799999946728,true,low,false
E3rG5Fgw,3icohx7eofotocxdgkfntnxt5xb0e8,3300dtyqt6ujzp06oke4xdk3v90qe7,E3rG5Fgw,2020-0188,2020-11-18,13:22:11,13:41:19,NA,incomplete,218,filling,1,left,Red_Triangle_Dots_4.jpg,Purple_Circle_Dots_2.jpg,Red_Star_Chess_3.jpg,left,963.7700000021141,true,low,false
E3rG5Fgw,3icohx7eofotocxdgkfntnxt5xb0e8,3300dtyqt6ujzp06oke4xdk3v90qe7,E3rG5Fgw,2020-0188,2020-11-18,13:22:11,13:41:19,NA,incomplete,219,filling,1,right,Blue_Triangle_Grid_4.jpg,Blue_Circle_Stripes_2.jpg,Purple_Star_Grid_3.jpg,left,1129.9850000068545,false,low,false
E3rG5Fgw,3icohx7eofotocxdgkfntnxt5xb0e8,3300dtyqt6ujzp06oke4xdk3v90qe7,E3rG5Fgw,2020-0188,2020-11-18,13:22:11,13:41:19,NA,incomplete,220,color,1,left,Green_Star_Grid_1.jpg,Green_Triangle_Stripes_4.jpg,Purple_Plus_Grid_3.jpg,right,872.0400000165682,false,low,false
E3rG5Fgw,3icohx7eofotocxdgkfntnxt5xb0e8,3300dtyqt6ujzp06oke4xdk3v90qe7,E3rG5Fgw,2020-0188,2020-11-18,13:22:11,13:41:19,NA,incomplete,221,color,1,right,Blue_Triangle_Chess_1.jpg,Purple_Circle_Chess_2.jpg,Blue_Plus_Dots_3.jpg,left,721.7099999834318,false,low,false
E3rG5Fgw,3icohx7eofotocxdgkfntnxt5xb0e8,3300dtyqt6ujzp06oke4xdk3v90qe7,E3rG5Fgw,2020-0188,2020-11-18,13:22:11,13:41:19,NA,incomplete,222,color,0,right,Purple_Star_Grid_2.jpg,Green_Plus_Grid_4.jpg,Purple_Triangle_Dots_1.jpg,right,495.41999999200925,true,low,false
E3rG5Fgw,3icohx7eofotocxdgkfntnxt5xb0e8,3300dtyqt6ujzp06oke4xdk3v90qe7,E3rG5Fgw,2020-0188,2020-11-18,13:22:11,13:41:19,NA,incomplete,223,color,1,left,Green_Triangle_Grid_1.jpg,Green_Plus_Dots_2.jpg,Red_Star_Grid_3.jpg,left,527.4100000096951,true,low,false
E3rG5Fgw,3icohx7eofotocxdgkfntnxt5xb0e8,3300dtyqt6ujzp06oke4xdk3v90qe7,E3rG5Fgw,2020-0188,2020-11-18,13:22:11,13:41:19,NA,incomplete,224,color,1,right,Red_Triangle_Grid_3.jpg,Purple_Plus_Grid_4.jpg,Red_Star_Chess_1.jpg,right,448.9799999864772,true,low,false
E3rG5Fgw,3icohx7eofotocxdgkfntnxt5xb0e8,3300dtyqt6ujzp06oke4xdk3v90qe7,E3rG5Fgw,2020-0188,2020-11-18,13:22:11,13:41:19,NA,incomplete,225,color,1,right,Blue_Plus_Dots_4.jpg,Red_Star_Dots_2.jpg,Blue_Triangle_Grid_1.jpg,right,495.38499998743646,true,low,false
E3rG5Fgw,3icohx7eofotocxdgkfntnxt5xb0e8,3300dtyqt6ujzp06oke4xdk3v90qe7,E3rG5Fgw,2020-0188,2020-11-18,13:22:11,13:41:19,NA,incomplete,226,color,1,left,Red_Circle_Chess_3.jpg,Red_Star_Stripes_4.jpg,Blue_Triangle_Chess_2.jpg,left,425.40000000735745,true,low,false
E3rG5Fgw,3icohx7eofotocxdgkfntnxt5xb0e8,3300dtyqt6ujzp06oke4xdk3v90qe7,E3rG5Fgw,2020-0188,2020-11-18,13:22:11,13:41:19,NA,incomplete,227,color,1,left,Purple_Triangle_Grid_2.jpg,Purple_Star_Chess_3.jpg,Green_Circle_Grid_1.jpg,left,469.3800000241026,true,low,false
E3rG5Fgw,3icohx7eofotocxdgkfntnxt5xb0e8,3300dtyqt6ujzp06oke4xdk3v90qe7,E3rG5Fgw,2020-0188,2020-11-18,13:22:11,13:41:19,NA,incomplete,228,color,1,left,Green_Plus_Chess_2.jpg,Green_Star_Grid_4.jpg,Red_Triangle_Chess_1.jpg,left,451.93000001017936,true,low,false
E3rG5Fgw,3icohx7eofotocxdgkfntnxt5xb0e8,3300dtyqt6ujzp06oke4xdk3v90qe7,E3rG5Fgw,2020-0188,2020-11-18,13:22:11,13:41:19,NA,incomplete,229,color,1,right,Blue_Plus_Stripes_2.jpg,Green_Circle_Stripes_4.jpg,Blue_Triangle_Grid_1.jpg,right,492.1350000076927,true,low,false
E3rG5Fgw,3icohx7eofotocxdgkfntnxt5xb0e8,3300dtyqt6ujzp06oke4xdk3v90qe7,E3rG5Fgw,2020-0188,2020-11-18,13:22:11,13:41:19,NA,incomplete,230,color,1,left,Green_Circle_Chess_2.jpg,Green_Plus_Stripes_4.jpg,Blue_Star_Chess_1.jpg,left,559.2849999957252,true,low,false
E3rG5Fgw,3icohx7eofotocxdgkfntnxt5xb0e8,3300dtyqt6ujzp06oke4xdk3v90qe7,E3rG5Fgw,2020-0188,2020-11-18,13:22:11,13:41:19,NA,incomplete,231,color,1,right,Red_Star_Grid_2.jpg,Blue_Circle_Grid_1.jpg,Red_Plus_Chess_4.jpg,right,513.9349999953993,true,low,false
E3rG5Fgw,3icohx7eofotocxdgkfntnxt5xb0e8,3300dtyqt6ujzp06oke4xdk3v90qe7,E3rG5Fgw,2020-0188,2020-11-18,13:22:11,13:41:19,NA,incomplete,232,color,0,left,Purple_Star_Chess_2.jpg,Purple_Triangle_Grid_1.jpg,Green_Circle_Chess_3.jpg,left,476.38999999617226,true,low,false
E3rG5Fgw,3icohx7eofotocxdgkfntnxt5xb0e8,3300dtyqt6ujzp06oke4xdk3v90qe7,E3rG5Fgw,2020-0188,2020-11-18,13:22:11,13:41:19,NA,incomplete,233,color,1,right,Purple_Star_Grid_4.jpg,Blue_Triangle_Grid_2.jpg,Purple_Plus_Stripes_3.jpg,right,465.9199999878183,true,low,false
E3rG5Fgw,3icohx7eofotocxdgkfntnxt5xb0e8,3300dtyqt6ujzp06oke4xdk3v90qe7,E3rG5Fgw,2020-0188,2020-11-18,13:22:11,13:41:19,NA,incomplete,234,color,1,left,Green_Circle_Stripes_4.jpg,Green_Plus_Grid_2.jpg,Blue_Triangle_Stripes_1.jpg,left,547.7550000068732,true,low,false
E3rG5Fgw,3icohx7eofotocxdgkfntnxt5xb0e8,3300dtyqt6ujzp06oke4xdk3v90qe7,E3rG5Fgw,2020-0188,2020-11-18,13:22:11,13:41:19,NA,incomplete,235,color,1,right,Red_Circle_Stripes_1.jpg,Green_Star_Stripes_4.jpg,Red_Triangle_Chess_3.jpg,right,481.92500000004657,true,low,false
E3rG5Fgw,3icohx7eofotocxdgkfntnxt5xb0e8,3300dtyqt6ujzp06oke4xdk3v90qe7,E3rG5Fgw,2020-0188,2020-11-18,13:22:11,13:41:19,NA,incomplete,236,color,1,right,Blue_Circle_Stripes_2.jpg,Green_Plus_Stripes_1.jpg,Blue_Triangle_Dots_3.jpg,right,394.6699999796692,true,low,false
E3rG5Fgw,3icohx7eofotocxdgkfntnxt5xb0e8,3300dtyqt6ujzp06oke4xdk3v90qe7,E3rG5Fgw,2020-0188,2020-11-18,13:22:11,13:41:19,NA,incomplete,237,color,1,right,Red_Plus_Dots_2.jpg,Purple_Triangle_Dots_3.jpg,Red_Circle_Stripes_4.jpg,right,510.13500001863576,true,low,false
E3rG5Fgw,3icohx7eofotocxdgkfntnxt5xb0e8,3300dtyqt6ujzp06oke4xdk3v90qe7,E3rG5Fgw,2020-0188,2020-11-18,13:22:11,13:41:19,NA,incomplete,238,color,1,left,Purple_Triangle_Stripes_3.jpg,Purple_Star_Grid_4.jpg,Green_Plus_Stripes_2.jpg,left,431.2649999919813,true,low,false
E3rG5Fgw,3icohx7eofotocxdgkfntnxt5xb0e8,3300dtyqt6ujzp06oke4xdk3v90qe7,E3rG5Fgw,2020-0188,2020-11-18,13:22:11,13:41:19,NA,incomplete,239,color,1,right,Purple_Plus_Chess_1.jpg,Red_Circle_Chess_3.jpg,Purple_Triangle_Stripes_4.jpg,right,392.65500000328757,true,low,false
E3rG5Fgw,3icohx7eofotocxdgkfntnxt5xb0e8,3300dtyqt6ujzp06oke4xdk3v90qe7,E3rG5Fgw,2020-0188,2020-11-18,13:22:11,13:41:19,NA,NA,instruction example,number,NA,NA,Purple_Star_Grid_4.jpg,Green_Triangle_Dots_4.jpg,Blue_Star_Chess_2.jpg,NA,NA,NA,NA,undefined
E3rG5Fgw,3icohx7eofotocxdgkfntnxt5xb0e8,3300dtyqt6ujzp06oke4xdk3v90qe7,E3rG5Fgw,2020-0188,2020-11-18,13:22:11,13:41:19,NA,NA,instruction example,number,NA,NA,Green_Circle_Chess_1.jpg,Purple_Circle_Stripes_3.jpg,Blue_Plus_Grid_1.jpg,NA,NA,NA,NA,undefined
E3rG5Fgw,3icohx7eofotocxdgkfntnxt5xb0e8,3300dtyqt6ujzp06oke4xdk3v90qe7,E3rG5Fgw,2020-0188,2020-11-18,13:22:11,13:41:19,NA,NA,instruction example,number,NA,NA,Purple_Circle_Grid_4.jpg,Green_Plus_Grid_1.jpg,Purple_Star_Chess_2.jpg,NA,NA,NA,NA,undefined
E3rG5Fgw,3icohx7eofotocxdgkfntnxt5xb0e8,3300dtyqt6ujzp06oke4xdk3v90qe7,E3rG5Fgw,2020-0188,2020-11-18,13:22:11,13:41:19,NA,NA,instruction example,number,NA,NA,Green_Triangle_Stripes_1.jpg,Green_Circle_Dots_2.jpg,Red_Star_Stripes_3.jpg,NA,NA,NA,NA,undefined
E3rG5Fgw,3icohx7eofotocxdgkfntnxt5xb0e8,3300dtyqt6ujzp06oke4xdk3v90qe7,E3rG5Fgw,2020-0188,2020-11-18,13:22:11,13:41:19,1127668.9049999986,1148614.9350000196,NA,NA,NA,NA,NA,NA,NA,NA,NA,NA,NA,undefined
