workerId,hitId,assignmentId,subject,studyid,exp_date,exp_start,exp_end,time_start,time_end,trial,type,reward_validity,answer,image_top,image_left,image_right,response,response_time,response_acc,volatility,age,race,gender,ethnicity,color,vision,neuro,practice
E1KbaZS5,3087lxlj7ptluqx9bvztb5ithyq0fq,333u7hk6idsxlwitxzjbuuqwh4vjd8,E1KbaZS5,2020-0188,2020-11-18,19:11:25,19:25:42,NA,incomplete,0,color,1,right,Purple_Circle_Grid_1.jpg,Green_Plus_Chess_1.jpg,Purple_Triangle_Dots_4.jpg,right,1289,true,NA,NA,NA,NA,NA,NA,NA,NA,true
E1KbaZS5,3087lxlj7ptluqx9bvztb5ithyq0fq,333u7hk6idsxlwitxzjbuuqwh4vjd8,E1KbaZS5,2020-0188,2020-11-18,19:11:25,19:25:42,NA,incomplete,1,color,1,right,Purple_Triangle_Grid_4.jpg,Red_Plus_Chess_4.jpg,Purple_Circle_Dots_2.jpg,right,1104,true,NA,NA,NA,NA,NA,NA,NA,NA,true
E1KbaZS5,3087lxlj7ptluqx9bvztb5ithyq0fq,333u7hk6idsxlwitxzjbuuqwh4vjd8,E1KbaZS5,2020-0188,2020-11-18,19:11:25,19:25:42,NA,incomplete,2,color,1,left,Purple_Circle_Chess_4.jpg,Purple_Triangle_Dots_1.jpg,Red_Star_Stripes_4.jpg,left,728,true,NA,NA,NA,NA,NA,NA,NA,NA,true
E1KbaZS5,3087lxlj7ptluqx9bvztb5ithyq0fq,333u7hk6idsxlwitxzjbuuqwh4vjd8,E1KbaZS5,2020-0188,2020-11-18,19:11:25,19:25:42,NA,incomplete,3,color,0,left,Green_Circle_Chess_4.jpg,Green_Triangle_Grid_2.jpg,Red_Star_Dots_4.jpg,left,603,true,NA,NA,NA,NA,NA,NA,NA,NA,true
E1KbaZS5,3087lxlj7ptluqx9bvztb5ithyq0fq,333u7hk6idsxlwitxzjbuuqwh4vjd8,E1KbaZS5,2020-0188,2020-11-18,19:11:25,19:25:42,NA,incomplete,4,color,1,left,Blue_Circle_Chess_2.jpg,Blue_Triangle_Dots_4.jpg,Purple_Plus_Grid_2.jpg,left,750,true,NA,NA,NA,NA,NA,NA,NA,NA,true
E1KbaZS5,3087lxlj7ptluqx9bvztb5ithyq0fq,333u7hk6idsxlwitxzjbuuqwh4vjd8,E1KbaZS5,2020-0188,2020-11-18,19:11:25,19:25:42,NA,incomplete,5,color,1,right,Purple_Triangle_Stripes_1.jpg,Blue_Circle_Chess_1.jpg,Purple_Star_Dots_2.jpg,right,833,true,NA,NA,NA,NA,NA,NA,NA,NA,true
E1KbaZS5,3087lxlj7ptluqx9bvztb5ithyq0fq,333u7hk6idsxlwitxzjbuuqwh4vjd8,E1KbaZS5,2020-0188,2020-11-18,19:11:25,19:25:42,NA,incomplete,6,color,1,right,Blue_Star_Stripes_4.jpg,Green_Plus_Chess_4.jpg,Blue_Circle_Dots_3.jpg,right,667,true,NA,NA,NA,NA,NA,NA,NA,NA,true
E1KbaZS5,3087lxlj7ptluqx9bvztb5ithyq0fq,333u7hk6idsxlwitxzjbuuqwh4vjd8,E1KbaZS5,2020-0188,2020-11-18,19:11:25,19:25:42,NA,incomplete,7,color,1,right,Red_Circle_Dots_2.jpg,Green_Triangle_Stripes_2.jpg,Red_Star_Chess_3.jpg,right,531,true,NA,NA,NA,NA,NA,NA,NA,NA,true
E1KbaZS5,3087lxlj7ptluqx9bvztb5ithyq0fq,333u7hk6idsxlwitxzjbuuqwh4vjd8,E1KbaZS5,2020-0188,2020-11-18,19:11:25,19:25:42,NA,incomplete,8,color,1,left,Blue_Plus_Chess_2.jpg,Blue_Circle_Dots_4.jpg,Green_Triangle_Stripes_2.jpg,left,658,true,NA,NA,NA,NA,NA,NA,NA,NA,true
E1KbaZS5,3087lxlj7ptluqx9bvztb5ithyq0fq,333u7hk6idsxlwitxzjbuuqwh4vjd8,E1KbaZS5,2020-0188,2020-11-18,19:11:25,19:25:42,NA,incomplete,9,color,1,left,Green_Circle_Chess_1.jpg,Green_Plus_Dots_3.jpg,Purple_Triangle_Stripes_1.jpg,left,905,true,NA,NA,NA,NA,NA,NA,NA,NA,true
E1KbaZS5,3087lxlj7ptluqx9bvztb5ithyq0fq,333u7hk6idsxlwitxzjbuuqwh4vjd8,E1KbaZS5,2020-0188,2020-11-18,19:11:25,19:25:42,NA,incomplete,10,color,0,right,Green_Plus_Grid_3.jpg,Red_Circle_Chess_3.jpg,Green_Triangle_Stripes_2.jpg,right,583,true,NA,NA,NA,NA,NA,NA,NA,NA,true
E1KbaZS5,3087lxlj7ptluqx9bvztb5ithyq0fq,333u7hk6idsxlwitxzjbuuqwh4vjd8,E1KbaZS5,2020-0188,2020-11-18,19:11:25,19:25:42,NA,incomplete,11,color,0,right,Red_Circle_Dots_2.jpg,Purple_Star_Chess_2.jpg,Red_Plus_Stripes_3.jpg,right,723,true,NA,NA,NA,NA,NA,NA,NA,NA,true
E1KbaZS5,3087lxlj7ptluqx9bvztb5ithyq0fq,333u7hk6idsxlwitxzjbuuqwh4vjd8,E1KbaZS5,2020-0188,2020-11-18,19:11:25,19:25:42,NA,incomplete,12,color,1,left,Green_Circle_Dots_2.jpg,Green_Plus_Grid_1.jpg,Blue_Triangle_Chess_2.jpg,left,878,true,NA,NA,NA,NA,NA,NA,NA,NA,true
E1KbaZS5,3087lxlj7ptluqx9bvztb5ithyq0fq,333u7hk6idsxlwitxzjbuuqwh4vjd8,E1KbaZS5,2020-0188,2020-11-18,19:11:25,19:25:42,NA,incomplete,13,color,1,left,Green_Triangle_Dots_3.jpg,Green_Circle_Stripes_2.jpg,Blue_Plus_Grid_3.jpg,left,742,true,NA,NA,NA,NA,NA,NA,NA,NA,true
E1KbaZS5,3087lxlj7ptluqx9bvztb5ithyq0fq,333u7hk6idsxlwitxzjbuuqwh4vjd8,E1KbaZS5,2020-0188,2020-11-18,19:11:25,19:25:42,NA,incomplete,14,color,1,right,Red_Plus_Chess_3.jpg,Purple_Circle_Grid_3.jpg,Red_Star_Dots_2.jpg,right,587,true,NA,NA,NA,NA,NA,NA,NA,NA,true
E1KbaZS5,3087lxlj7ptluqx9bvztb5ithyq0fq,333u7hk6idsxlwitxzjbuuqwh4vjd8,E1KbaZS5,2020-0188,2020-11-18,19:11:25,19:25:42,NA,incomplete,15,color,1,left,Red_Plus_Chess_1.jpg,Red_Star_Dots_3.jpg,Blue_Circle_Grid_1.jpg,left,647,true,NA,NA,NA,NA,NA,NA,NA,NA,true
E1KbaZS5,3087lxlj7ptluqx9bvztb5ithyq0fq,333u7hk6idsxlwitxzjbuuqwh4vjd8,E1KbaZS5,2020-0188,2020-11-18,19:11:25,19:25:42,NA,incomplete,16,color,1,right,Purple_Circle_Dots_2.jpg,Green_Star_Chess_2.jpg,Purple_Triangle_Stripes_3.jpg,right,601,true,NA,NA,NA,NA,NA,NA,NA,NA,true
E1KbaZS5,3087lxlj7ptluqx9bvztb5ithyq0fq,333u7hk6idsxlwitxzjbuuqwh4vjd8,E1KbaZS5,2020-0188,2020-11-18,19:11:25,19:25:42,NA,incomplete,17,color,0,left,Red_Circle_Dots_2.jpg,Red_Star_Grid_1.jpg,Blue_Triangle_Stripes_2.jpg,left,561,true,NA,NA,NA,NA,NA,NA,NA,NA,true
E1KbaZS5,3087lxlj7ptluqx9bvztb5ithyq0fq,333u7hk6idsxlwitxzjbuuqwh4vjd8,E1KbaZS5,2020-0188,2020-11-18,19:11:25,19:25:42,NA,incomplete,18,color,1,right,Blue_Circle_Stripes_4.jpg,Red_Star_Grid_4.jpg,Blue_Plus_Chess_2.jpg,right,517,true,NA,NA,NA,NA,NA,NA,NA,NA,true
E1KbaZS5,3087lxlj7ptluqx9bvztb5ithyq0fq,333u7hk6idsxlwitxzjbuuqwh4vjd8,E1KbaZS5,2020-0188,2020-11-18,19:11:25,19:25:42,NA,incomplete,19,color,1,left,Green_Triangle_Stripes_4.jpg,Green_Plus_Grid_2.jpg,Red_Circle_Dots_4.jpg,left,529,true,NA,NA,NA,NA,NA,NA,NA,NA,true
E1KbaZS5,3087lxlj7ptluqx9bvztb5ithyq0fq,333u7hk6idsxlwitxzjbuuqwh4vjd8,E1KbaZS5,2020-0188,2020-11-18,19:11:25,19:25:42,NA,incomplete,20,number,1,right,Purple_Plus_Grid_2.jpg,Purple_Star_Chess_1.jpg,Blue_Triangle_Dots_2.jpg,right,1055,true,NA,NA,NA,NA,NA,NA,NA,NA,true
E1KbaZS5,3087lxlj7ptluqx9bvztb5ithyq0fq,333u7hk6idsxlwitxzjbuuqwh4vjd8,E1KbaZS5,2020-0188,2020-11-18,19:11:25,19:25:42,NA,incomplete,21,number,1,right,Purple_Circle_Stripes_1.jpg,Purple_Star_Dots_3.jpg,Blue_Triangle_Grid_1.jpg,right,903,true,NA,NA,NA,NA,NA,NA,NA,NA,true
E1KbaZS5,3087lxlj7ptluqx9bvztb5ithyq0fq,333u7hk6idsxlwitxzjbuuqwh4vjd8,E1KbaZS5,2020-0188,2020-11-18,19:11:25,19:25:42,NA,incomplete,22,number,1,right,Red_Plus_Chess_4.jpg,Red_Star_Dots_3.jpg,Green_Circle_Grid_4.jpg,right,966,true,NA,NA,NA,NA,NA,NA,NA,NA,true
E1KbaZS5,3087lxlj7ptluqx9bvztb5ithyq0fq,333u7hk6idsxlwitxzjbuuqwh4vjd8,E1KbaZS5,2020-0188,2020-11-18,19:11:25,19:25:42,NA,incomplete,23,number,1,left,Purple_Triangle_Dots_4.jpg,Blue_Plus_Chess_4.jpg,Purple_Circle_Stripes_3.jpg,left,876,true,NA,NA,NA,NA,NA,NA,NA,NA,true
E1KbaZS5,3087lxlj7ptluqx9bvztb5ithyq0fq,333u7hk6idsxlwitxzjbuuqwh4vjd8,E1KbaZS5,2020-0188,2020-11-18,19:11:25,19:25:42,NA,incomplete,24,number,0,right,Blue_Circle_Grid_3.jpg,Blue_Plus_Stripes_4.jpg,Purple_Star_Dots_3.jpg,right,1130,true,NA,NA,NA,NA,NA,NA,NA,NA,true
E1KbaZS5,3087lxlj7ptluqx9bvztb5ithyq0fq,333u7hk6idsxlwitxzjbuuqwh4vjd8,E1KbaZS5,2020-0188,2020-11-18,19:11:25,19:25:42,NA,incomplete,25,number,1,left,Blue_Triangle_Stripes_4.jpg,Red_Circle_Dots_4.jpg,Blue_Star_Grid_2.jpg,left,928,true,NA,NA,NA,NA,NA,NA,NA,NA,true
E1KbaZS5,3087lxlj7ptluqx9bvztb5ithyq0fq,333u7hk6idsxlwitxzjbuuqwh4vjd8,E1KbaZS5,2020-0188,2020-11-18,19:11:25,19:25:42,NA,incomplete,26,number,0,right,Green_Triangle_Grid_3.jpg,Green_Star_Stripes_1.jpg,Red_Plus_Chess_3.jpg,right,831,true,NA,NA,NA,NA,NA,NA,NA,NA,true
E1KbaZS5,3087lxlj7ptluqx9bvztb5ithyq0fq,333u7hk6idsxlwitxzjbuuqwh4vjd8,E1KbaZS5,2020-0188,2020-11-18,19:11:25,19:25:42,NA,incomplete,27,number,1,right,Red_Circle_Chess_4.jpg,Red_Plus_Grid_3.jpg,Blue_Star_Stripes_4.jpg,right,969,true,NA,NA,NA,NA,NA,NA,NA,NA,true
E1KbaZS5,3087lxlj7ptluqx9bvztb5ithyq0fq,333u7hk6idsxlwitxzjbuuqwh4vjd8,E1KbaZS5,2020-0188,2020-11-18,19:11:25,19:25:42,NA,incomplete,28,number,1,right,Purple_Star_Grid_3.jpg,Purple_Triangle_Dots_4.jpg,Red_Circle_Chess_3.jpg,right,940,true,NA,NA,NA,NA,NA,NA,NA,NA,true
E1KbaZS5,3087lxlj7ptluqx9bvztb5ithyq0fq,333u7hk6idsxlwitxzjbuuqwh4vjd8,E1KbaZS5,2020-0188,2020-11-18,19:11:25,19:25:42,NA,incomplete,29,number,0,right,Red_Plus_Dots_2.jpg,Red_Star_Chess_3.jpg,Green_Triangle_Stripes_2.jpg,left,946,false,NA,NA,NA,NA,NA,NA,NA,NA,true
E1KbaZS5,3087lxlj7ptluqx9bvztb5ithyq0fq,333u7hk6idsxlwitxzjbuuqwh4vjd8,E1KbaZS5,2020-0188,2020-11-18,19:11:25,19:25:42,NA,incomplete,30,number,1,right,Purple_Triangle_Dots_4.jpg,Purple_Star_Chess_1.jpg,Blue_Circle_Grid_4.jpg,right,829,true,NA,NA,NA,NA,NA,NA,NA,NA,true
E1KbaZS5,3087lxlj7ptluqx9bvztb5ithyq0fq,333u7hk6idsxlwitxzjbuuqwh4vjd8,E1KbaZS5,2020-0188,2020-11-18,19:11:25,19:25:42,NA,incomplete,31,number,0,left,Green_Circle_Dots_4.jpg,Blue_Plus_Chess_4.jpg,Green_Triangle_Stripes_2.jpg,left,808,true,NA,NA,NA,NA,NA,NA,NA,NA,true
E1KbaZS5,3087lxlj7ptluqx9bvztb5ithyq0fq,333u7hk6idsxlwitxzjbuuqwh4vjd8,E1KbaZS5,2020-0188,2020-11-18,19:11:25,19:25:42,NA,incomplete,32,number,1,left,Red_Circle_Grid_3.jpg,Blue_Plus_Stripes_3.jpg,Red_Star_Chess_2.jpg,left,891,true,NA,NA,NA,NA,NA,NA,NA,NA,true
E1KbaZS5,3087lxlj7ptluqx9bvztb5ithyq0fq,333u7hk6idsxlwitxzjbuuqwh4vjd8,E1KbaZS5,2020-0188,2020-11-18,19:11:25,19:25:42,NA,incomplete,33,number,1,right,Blue_Star_Stripes_4.jpg,Blue_Plus_Grid_3.jpg,Red_Circle_Dots_4.jpg,right,786,true,NA,NA,NA,NA,NA,NA,NA,NA,true
E1KbaZS5,3087lxlj7ptluqx9bvztb5ithyq0fq,333u7hk6idsxlwitxzjbuuqwh4vjd8,E1KbaZS5,2020-0188,2020-11-18,19:11:25,19:25:42,NA,incomplete,34,number,1,left,Green_Plus_Grid_4.jpg,Red_Circle_Stripes_4.jpg,Green_Triangle_Chess_1.jpg,left,692,true,NA,NA,NA,NA,NA,NA,NA,NA,true
E1KbaZS5,3087lxlj7ptluqx9bvztb5ithyq0fq,333u7hk6idsxlwitxzjbuuqwh4vjd8,E1KbaZS5,2020-0188,2020-11-18,19:11:25,19:25:42,NA,incomplete,35,number,1,left,Purple_Circle_Chess_4.jpg,Green_Triangle_Dots_4.jpg,Purple_Plus_Stripes_3.jpg,left,708,true,NA,NA,NA,NA,NA,NA,NA,NA,true
E1KbaZS5,3087lxlj7ptluqx9bvztb5ithyq0fq,333u7hk6idsxlwitxzjbuuqwh4vjd8,E1KbaZS5,2020-0188,2020-11-18,19:11:25,19:25:42,NA,incomplete,36,number,1,right,Green_Circle_Chess_3.jpg,Green_Plus_Stripes_4.jpg,Purple_Star_Dots_3.jpg,right,1001,true,NA,NA,NA,NA,NA,NA,NA,NA,true
E1KbaZS5,3087lxlj7ptluqx9bvztb5ithyq0fq,333u7hk6idsxlwitxzjbuuqwh4vjd8,E1KbaZS5,2020-0188,2020-11-18,19:11:25,19:25:42,NA,incomplete,37,number,1,right,Blue_Plus_Grid_4.jpg,Blue_Star_Chess_1.jpg,Green_Triangle_Stripes_4.jpg,right,701,true,NA,NA,NA,NA,NA,NA,NA,NA,true
E1KbaZS5,3087lxlj7ptluqx9bvztb5ithyq0fq,333u7hk6idsxlwitxzjbuuqwh4vjd8,E1KbaZS5,2020-0188,2020-11-18,19:11:25,19:25:42,NA,incomplete,38,number,1,left,Blue_Circle_Chess_2.jpg,Purple_Plus_Stripes_2.jpg,Blue_Star_Dots_1.jpg,left,900,true,NA,NA,NA,NA,NA,NA,NA,NA,true
E1KbaZS5,3087lxlj7ptluqx9bvztb5ithyq0fq,333u7hk6idsxlwitxzjbuuqwh4vjd8,E1KbaZS5,2020-0188,2020-11-18,19:11:25,19:25:42,NA,incomplete,39,number,1,left,Blue_Star_Dots_1.jpg,Purple_Plus_Chess_1.jpg,Blue_Triangle_Grid_2.jpg,left,642,true,NA,NA,NA,NA,NA,NA,NA,NA,true
E1KbaZS5,3087lxlj7ptluqx9bvztb5ithyq0fq,333u7hk6idsxlwitxzjbuuqwh4vjd8,E1KbaZS5,2020-0188,2020-11-18,19:11:25,19:25:42,NA,incomplete,0,color,1,right,Green_Triangle_Dots_2.jpg,Red_Circle_Chess_2.jpg,Green_Star_Grid_1.jpg,left,748,false,high,NA,NA,NA,NA,NA,NA,NA,false
E1KbaZS5,3087lxlj7ptluqx9bvztb5ithyq0fq,333u7hk6idsxlwitxzjbuuqwh4vjd8,E1KbaZS5,2020-0188,2020-11-18,19:11:25,19:25:42,NA,incomplete,1,color,1,left,Blue_Circle_Dots_2.jpg,Blue_Plus_Grid_4.jpg,Red_Star_Chess_2.jpg,left,771,true,high,NA,NA,NA,NA,NA,NA,NA,false
E1KbaZS5,3087lxlj7ptluqx9bvztb5ithyq0fq,333u7hk6idsxlwitxzjbuuqwh4vjd8,E1KbaZS5,2020-0188,2020-11-18,19:11:25,19:25:42,NA,incomplete,2,color,1,left,Blue_Circle_Stripes_2.jpg,Blue_Triangle_Grid_4.jpg,Green_Plus_Chess_2.jpg,left,655,true,high,NA,NA,NA,NA,NA,NA,NA,false
E1KbaZS5,3087lxlj7ptluqx9bvztb5ithyq0fq,333u7hk6idsxlwitxzjbuuqwh4vjd8,E1KbaZS5,2020-0188,2020-11-18,19:11:25,19:25:42,NA,incomplete,3,color,1,left,Blue_Star_Stripes_1.jpg,Blue_Circle_Chess_3.jpg,Purple_Plus_Grid_1.jpg,left,672,true,high,NA,NA,NA,NA,NA,NA,NA,false
E1KbaZS5,3087lxlj7ptluqx9bvztb5ithyq0fq,333u7hk6idsxlwitxzjbuuqwh4vjd8,E1KbaZS5,2020-0188,2020-11-18,19:11:25,19:25:42,NA,incomplete,4,color,1,right,Purple_Triangle_Chess_1.jpg,Blue_Plus_Stripes_1.jpg,Purple_Star_Dots_2.jpg,right,702,true,high,NA,NA,NA,NA,NA,NA,NA,false
E1KbaZS5,3087lxlj7ptluqx9bvztb5ithyq0fq,333u7hk6idsxlwitxzjbuuqwh4vjd8,E1KbaZS5,2020-0188,2020-11-18,19:11:25,19:25:42,NA,incomplete,5,color,1,right,Red_Triangle_Dots_3.jpg,Blue_Plus_Grid_3.jpg,Red_Circle_Stripes_4.jpg,right,709,true,high,NA,NA,NA,NA,NA,NA,NA,false
E1KbaZS5,3087lxlj7ptluqx9bvztb5ithyq0fq,333u7hk6idsxlwitxzjbuuqwh4vjd8,E1KbaZS5,2020-0188,2020-11-18,19:11:25,19:25:42,NA,incomplete,6,color,1,left,Purple_Triangle_Dots_1.jpg,Purple_Circle_Grid_2.jpg,Green_Plus_Stripes_1.jpg,left,803,true,high,NA,NA,NA,NA,NA,NA,NA,false
E1KbaZS5,3087lxlj7ptluqx9bvztb5ithyq0fq,333u7hk6idsxlwitxzjbuuqwh4vjd8,E1KbaZS5,2020-0188,2020-11-18,19:11:25,19:25:42,NA,incomplete,7,color,1,left,Blue_Triangle_Grid_4.jpg,Blue_Circle_Chess_2.jpg,Purple_Plus_Dots_4.jpg,left,559,true,high,NA,NA,NA,NA,NA,NA,NA,false
E1KbaZS5,3087lxlj7ptluqx9bvztb5ithyq0fq,333u7hk6idsxlwitxzjbuuqwh4vjd8,E1KbaZS5,2020-0188,2020-11-18,19:11:25,19:25:42,NA,incomplete,8,color,1,left,Blue_Circle_Grid_2.jpg,Blue_Triangle_Stripes_3.jpg,Red_Plus_Chess_2.jpg,left,563,true,high,NA,NA,NA,NA,NA,NA,NA,false
E1KbaZS5,3087lxlj7ptluqx9bvztb5ithyq0fq,333u7hk6idsxlwitxzjbuuqwh4vjd8,E1KbaZS5,2020-0188,2020-11-18,19:11:25,19:25:42,NA,incomplete,9,color,1,right,Blue_Star_Stripes_1.jpg,Green_Triangle_Grid_1.jpg,Blue_Plus_Dots_4.jpg,right,502,true,high,NA,NA,NA,NA,NA,NA,NA,false
E1KbaZS5,3087lxlj7ptluqx9bvztb5ithyq0fq,333u7hk6idsxlwitxzjbuuqwh4vjd8,E1KbaZS5,2020-0188,2020-11-18,19:11:25,19:25:42,NA,incomplete,10,number,1,right,Purple_Circle_Dots_4.jpg,Purple_Plus_Grid_1.jpg,Blue_Triangle_Stripes_4.jpg,left,628,false,high,NA,NA,NA,NA,NA,NA,NA,false
E1KbaZS5,3087lxlj7ptluqx9bvztb5ithyq0fq,333u7hk6idsxlwitxzjbuuqwh4vjd8,E1KbaZS5,2020-0188,2020-11-18,19:11:25,19:25:42,NA,incomplete,11,number,1,right,Green_Star_Dots_2.jpg,Green_Plus_Grid_3.jpg,Red_Circle_Chess_2.jpg,left,535,false,high,NA,NA,NA,NA,NA,NA,NA,false
E1KbaZS5,3087lxlj7ptluqx9bvztb5ithyq0fq,333u7hk6idsxlwitxzjbuuqwh4vjd8,E1KbaZS5,2020-0188,2020-11-18,19:11:25,19:25:42,NA,incomplete,12,number,0,right,Blue_Plus_Dots_3.jpg,Blue_Circle_Grid_1.jpg,Red_Star_Chess_3.jpg,left,803,false,high,NA,NA,NA,NA,NA,NA,NA,false
E1KbaZS5,3087lxlj7ptluqx9bvztb5ithyq0fq,333u7hk6idsxlwitxzjbuuqwh4vjd8,E1KbaZS5,2020-0188,2020-11-18,19:11:25,19:25:42,NA,incomplete,13,number,1,right,Blue_Triangle_Chess_1.jpg,Blue_Star_Stripes_2.jpg,Red_Plus_Dots_1.jpg,left,909,false,high,NA,NA,NA,NA,NA,NA,NA,false
E1KbaZS5,3087lxlj7ptluqx9bvztb5ithyq0fq,333u7hk6idsxlwitxzjbuuqwh4vjd8,E1KbaZS5,2020-0188,2020-11-18,19:11:25,19:25:42,NA,incomplete,14,number,1,right,Blue_Triangle_Stripes_3.jpg,Blue_Plus_Chess_4.jpg,Red_Star_Dots_3.jpg,right,1011,true,high,NA,NA,NA,NA,NA,NA,NA,false
E1KbaZS5,3087lxlj7ptluqx9bvztb5ithyq0fq,333u7hk6idsxlwitxzjbuuqwh4vjd8,E1KbaZS5,2020-0188,2020-11-18,19:11:25,19:25:42,NA,incomplete,15,number,1,left,Purple_Plus_Dots_3.jpg,Red_Circle_Stripes_3.jpg,Purple_Triangle_Chess_2.jpg,right,598,false,high,NA,NA,NA,NA,NA,NA,NA,false
E1KbaZS5,3087lxlj7ptluqx9bvztb5ithyq0fq,333u7hk6idsxlwitxzjbuuqwh4vjd8,E1KbaZS5,2020-0188,2020-11-18,19:11:25,19:25:42,NA,incomplete,16,number,1,left,Purple_Plus_Chess_3.jpg,Red_Circle_Dots_3.jpg,Purple_Star_Grid_4.jpg,left,728,true,high,NA,NA,NA,NA,NA,NA,NA,false
E1KbaZS5,3087lxlj7ptluqx9bvztb5ithyq0fq,333u7hk6idsxlwitxzjbuuqwh4vjd8,E1KbaZS5,2020-0188,2020-11-18,19:11:25,19:25:42,NA,incomplete,17,number,1,left,Blue_Triangle_Chess_3.jpg,Purple_Circle_Stripes_3.jpg,Blue_Plus_Grid_4.jpg,left,967,true,high,NA,NA,NA,NA,NA,NA,NA,false
E1KbaZS5,3087lxlj7ptluqx9bvztb5ithyq0fq,333u7hk6idsxlwitxzjbuuqwh4vjd8,E1KbaZS5,2020-0188,2020-11-18,19:11:25,19:25:42,NA,incomplete,18,number,1,left,Purple_Triangle_Dots_3.jpg,Red_Circle_Grid_3.jpg,Purple_Plus_Stripes_4.jpg,left,579,true,high,NA,NA,NA,NA,NA,NA,NA,false
E1KbaZS5,3087lxlj7ptluqx9bvztb5ithyq0fq,333u7hk6idsxlwitxzjbuuqwh4vjd8,E1KbaZS5,2020-0188,2020-11-18,19:11:25,19:25:42,NA,incomplete,19,number,1,right,Purple_Plus_Grid_2.jpg,Purple_Triangle_Stripes_1.jpg,Blue_Star_Dots_2.jpg,right,623,true,high,NA,NA,NA,NA,NA,NA,NA,false
E1KbaZS5,3087lxlj7ptluqx9bvztb5ithyq0fq,333u7hk6idsxlwitxzjbuuqwh4vjd8,E1KbaZS5,2020-0188,2020-11-18,19:11:25,19:25:42,NA,incomplete,20,color,1,left,Purple_Circle_Dots_1.jpg,Purple_Plus_Chess_2.jpg,Red_Triangle_Grid_1.jpg,right,689,false,high,NA,NA,NA,NA,NA,NA,NA,false
E1KbaZS5,3087lxlj7ptluqx9bvztb5ithyq0fq,333u7hk6idsxlwitxzjbuuqwh4vjd8,E1KbaZS5,2020-0188,2020-11-18,19:11:25,19:25:42,NA,incomplete,21,color,1,left,Green_Plus_Stripes_1.jpg,Green_Star_Chess_2.jpg,Purple_Triangle_Grid_1.jpg,right,710,false,high,NA,NA,NA,NA,NA,NA,NA,false
E1KbaZS5,3087lxlj7ptluqx9bvztb5ithyq0fq,333u7hk6idsxlwitxzjbuuqwh4vjd8,E1KbaZS5,2020-0188,2020-11-18,19:11:25,19:25:42,NA,incomplete,22,color,0,left,Red_Star_Stripes_1.jpg,Red_Plus_Chess_3.jpg,Green_Circle_Grid_1.jpg,left,533,true,high,NA,NA,NA,NA,NA,NA,NA,false
E1KbaZS5,3087lxlj7ptluqx9bvztb5ithyq0fq,333u7hk6idsxlwitxzjbuuqwh4vjd8,E1KbaZS5,2020-0188,2020-11-18,19:11:25,19:25:42,NA,incomplete,23,color,0,left,Purple_Triangle_Grid_1.jpg,Purple_Star_Chess_3.jpg,Blue_Circle_Dots_1.jpg,left,721,true,high,NA,NA,NA,NA,NA,NA,NA,false
E1KbaZS5,3087lxlj7ptluqx9bvztb5ithyq0fq,333u7hk6idsxlwitxzjbuuqwh4vjd8,E1KbaZS5,2020-0188,2020-11-18,19:11:25,19:25:42,NA,incomplete,24,color,1,left,Green_Triangle_Chess_3.jpg,Green_Plus_Grid_1.jpg,Purple_Star_Stripes_3.jpg,right,663,false,high,NA,NA,NA,NA,NA,NA,NA,false
E1KbaZS5,3087lxlj7ptluqx9bvztb5ithyq0fq,333u7hk6idsxlwitxzjbuuqwh4vjd8,E1KbaZS5,2020-0188,2020-11-18,19:11:25,19:25:42,NA,incomplete,25,color,1,right,Red_Circle_Dots_4.jpg,Blue_Plus_Stripes_4.jpg,Red_Triangle_Grid_3.jpg,right,726,true,high,NA,NA,NA,NA,NA,NA,NA,false
E1KbaZS5,3087lxlj7ptluqx9bvztb5ithyq0fq,333u7hk6idsxlwitxzjbuuqwh4vjd8,E1KbaZS5,2020-0188,2020-11-18,19:11:25,19:25:42,NA,incomplete,26,color,0,left,Green_Circle_Chess_4.jpg,Green_Star_Stripes_1.jpg,Purple_Plus_Dots_4.jpg,left,586,true,high,NA,NA,NA,NA,NA,NA,NA,false
E1KbaZS5,3087lxlj7ptluqx9bvztb5ithyq0fq,333u7hk6idsxlwitxzjbuuqwh4vjd8,E1KbaZS5,2020-0188,2020-11-18,19:11:25,19:25:42,NA,incomplete,27,color,1,right,Red_Circle_Chess_2.jpg,Purple_Plus_Grid_2.jpg,Red_Triangle_Dots_1.jpg,right,663,true,high,NA,NA,NA,NA,NA,NA,NA,false
E1KbaZS5,3087lxlj7ptluqx9bvztb5ithyq0fq,333u7hk6idsxlwitxzjbuuqwh4vjd8,E1KbaZS5,2020-0188,2020-11-18,19:11:25,19:25:42,NA,incomplete,28,color,1,left,Blue_Plus_Chess_1.jpg,Blue_Triangle_Grid_4.jpg,Red_Star_Dots_1.jpg,left,622,true,high,NA,NA,NA,NA,NA,NA,NA,false
E1KbaZS5,3087lxlj7ptluqx9bvztb5ithyq0fq,333u7hk6idsxlwitxzjbuuqwh4vjd8,E1KbaZS5,2020-0188,2020-11-18,19:11:25,19:25:42,NA,incomplete,29,color,1,left,Green_Star_Grid_3.jpg,Green_Plus_Dots_2.jpg,Purple_Triangle_Chess_3.jpg,left,591,true,high,NA,NA,NA,NA,NA,NA,NA,false
E1KbaZS5,3087lxlj7ptluqx9bvztb5ithyq0fq,333u7hk6idsxlwitxzjbuuqwh4vjd8,E1KbaZS5,2020-0188,2020-11-18,19:11:25,19:25:42,NA,incomplete,30,number,0,right,Red_Plus_Chess_2.jpg,Red_Circle_Grid_1.jpg,Blue_Triangle_Stripes_2.jpg,left,529,false,high,NA,NA,NA,NA,NA,NA,NA,false
E1KbaZS5,3087lxlj7ptluqx9bvztb5ithyq0fq,333u7hk6idsxlwitxzjbuuqwh4vjd8,E1KbaZS5,2020-0188,2020-11-18,19:11:25,19:25:42,NA,incomplete,31,number,1,left,Green_Star_Dots_4.jpg,Purple_Triangle_Grid_4.jpg,Green_Circle_Stripes_1.jpg,right,639,false,high,NA,NA,NA,NA,NA,NA,NA,false
E1KbaZS5,3087lxlj7ptluqx9bvztb5ithyq0fq,333u7hk6idsxlwitxzjbuuqwh4vjd8,E1KbaZS5,2020-0188,2020-11-18,19:11:25,19:25:42,NA,incomplete,32,number,0,right,Green_Plus_Dots_3.jpg,Green_Triangle_Stripes_1.jpg,Purple_Star_Chess_3.jpg,left,561,false,high,NA,NA,NA,NA,NA,NA,NA,false
E1KbaZS5,3087lxlj7ptluqx9bvztb5ithyq0fq,333u7hk6idsxlwitxzjbuuqwh4vjd8,E1KbaZS5,2020-0188,2020-11-18,19:11:25,19:25:42,NA,incomplete,33,number,0,right,Purple_Circle_Chess_4.jpg,Purple_Triangle_Stripes_2.jpg,Green_Plus_Dots_4.jpg,left,660,false,high,NA,NA,NA,NA,NA,NA,NA,false
E1KbaZS5,3087lxlj7ptluqx9bvztb5ithyq0fq,333u7hk6idsxlwitxzjbuuqwh4vjd8,E1KbaZS5,2020-0188,2020-11-18,19:11:25,19:25:42,NA,incomplete,34,number,0,right,Purple_Triangle_Chess_3.jpg,Purple_Plus_Grid_2.jpg,Green_Star_Stripes_3.jpg,left,533,false,high,NA,NA,NA,NA,NA,NA,NA,false
E1KbaZS5,3087lxlj7ptluqx9bvztb5ithyq0fq,333u7hk6idsxlwitxzjbuuqwh4vjd8,E1KbaZS5,2020-0188,2020-11-18,19:11:25,19:25:42,NA,incomplete,35,number,1,left,Purple_Star_Chess_4.jpg,Green_Triangle_Grid_4.jpg,Purple_Circle_Stripes_2.jpg,right,539,false,high,NA,NA,NA,NA,NA,NA,NA,false
E1KbaZS5,3087lxlj7ptluqx9bvztb5ithyq0fq,333u7hk6idsxlwitxzjbuuqwh4vjd8,E1KbaZS5,2020-0188,2020-11-18,19:11:25,19:25:42,NA,incomplete,36,number,1,right,Purple_Plus_Chess_3.jpg,Purple_Star_Stripes_1.jpg,Green_Circle_Dots_3.jpg,left,545,false,high,NA,NA,NA,NA,NA,NA,NA,false
E1KbaZS5,3087lxlj7ptluqx9bvztb5ithyq0fq,333u7hk6idsxlwitxzjbuuqwh4vjd8,E1KbaZS5,2020-0188,2020-11-18,19:11:25,19:25:42,NA,incomplete,37,number,1,right,Green_Circle_Grid_2.jpg,Green_Triangle_Chess_3.jpg,Purple_Plus_Dots_2.jpg,right,708,true,high,NA,NA,NA,NA,NA,NA,NA,false
E1KbaZS5,3087lxlj7ptluqx9bvztb5ithyq0fq,333u7hk6idsxlwitxzjbuuqwh4vjd8,E1KbaZS5,2020-0188,2020-11-18,19:11:25,19:25:42,NA,incomplete,38,number,1,right,Red_Star_Chess_2.jpg,Red_Circle_Dots_3.jpg,Blue_Plus_Stripes_2.jpg,right,643,true,high,NA,NA,NA,NA,NA,NA,NA,false
E1KbaZS5,3087lxlj7ptluqx9bvztb5ithyq0fq,333u7hk6idsxlwitxzjbuuqwh4vjd8,E1KbaZS5,2020-0188,2020-11-18,19:11:25,19:25:42,NA,incomplete,39,number,1,left,Purple_Star_Grid_4.jpg,Red_Circle_Dots_4.jpg,Purple_Plus_Chess_1.jpg,left,652,true,high,NA,NA,NA,NA,NA,NA,NA,false
E1KbaZS5,3087lxlj7ptluqx9bvztb5ithyq0fq,333u7hk6idsxlwitxzjbuuqwh4vjd8,E1KbaZS5,2020-0188,2020-11-18,19:11:25,19:25:42,NA,incomplete,40,color,1,left,Green_Triangle_Grid_3.jpg,Green_Plus_Stripes_1.jpg,Red_Star_Dots_3.jpg,right,668,false,high,NA,NA,NA,NA,NA,NA,NA,false
E1KbaZS5,3087lxlj7ptluqx9bvztb5ithyq0fq,333u7hk6idsxlwitxzjbuuqwh4vjd8,E1KbaZS5,2020-0188,2020-11-18,19:11:25,19:25:42,NA,incomplete,41,color,1,left,Green_Plus_Dots_1.jpg,Green_Triangle_Stripes_3.jpg,Blue_Circle_Chess_1.jpg,left,771,true,high,NA,NA,NA,NA,NA,NA,NA,false
E1KbaZS5,3087lxlj7ptluqx9bvztb5ithyq0fq,333u7hk6idsxlwitxzjbuuqwh4vjd8,E1KbaZS5,2020-0188,2020-11-18,19:11:25,19:25:42,NA,incomplete,42,color,1,left,Green_Plus_Dots_3.jpg,Green_Circle_Chess_1.jpg,Blue_Triangle_Stripes_3.jpg,left,663,true,high,NA,NA,NA,NA,NA,NA,NA,false
E1KbaZS5,3087lxlj7ptluqx9bvztb5ithyq0fq,333u7hk6idsxlwitxzjbuuqwh4vjd8,E1KbaZS5,2020-0188,2020-11-18,19:11:25,19:25:42,NA,incomplete,43,color,1,left,Red_Star_Chess_2.jpg,Red_Circle_Grid_1.jpg,Blue_Triangle_Dots_2.jpg,left,650,true,high,NA,NA,NA,NA,NA,NA,NA,false
E1KbaZS5,3087lxlj7ptluqx9bvztb5ithyq0fq,333u7hk6idsxlwitxzjbuuqwh4vjd8,E1KbaZS5,2020-0188,2020-11-18,19:11:25,19:25:42,NA,incomplete,44,color,1,left,Purple_Plus_Grid_4.jpg,Purple_Star_Chess_3.jpg,Red_Circle_Dots_4.jpg,left,682,true,high,NA,NA,NA,NA,NA,NA,NA,false
E1KbaZS5,3087lxlj7ptluqx9bvztb5ithyq0fq,333u7hk6idsxlwitxzjbuuqwh4vjd8,E1KbaZS5,2020-0188,2020-11-18,19:11:25,19:25:42,NA,incomplete,45,color,1,left,Green_Triangle_Chess_4.jpg,Green_Star_Dots_2.jpg,Blue_Circle_Grid_4.jpg,left,569,true,high,NA,NA,NA,NA,NA,NA,NA,false
E1KbaZS5,3087lxlj7ptluqx9bvztb5ithyq0fq,333u7hk6idsxlwitxzjbuuqwh4vjd8,E1KbaZS5,2020-0188,2020-11-18,19:11:25,19:25:42,NA,incomplete,46,color,1,right,Blue_Plus_Stripes_2.jpg,Red_Star_Chess_2.jpg,Blue_Triangle_Dots_3.jpg,right,670,true,high,NA,NA,NA,NA,NA,NA,NA,false
E1KbaZS5,3087lxlj7ptluqx9bvztb5ithyq0fq,333u7hk6idsxlwitxzjbuuqwh4vjd8,E1KbaZS5,2020-0188,2020-11-18,19:11:25,19:25:42,NA,incomplete,47,color,1,left,Blue_Triangle_Dots_4.jpg,Blue_Circle_Stripes_3.jpg,Purple_Plus_Chess_4.jpg,left,515,true,high,NA,NA,NA,NA,NA,NA,NA,false
E1KbaZS5,3087lxlj7ptluqx9bvztb5ithyq0fq,333u7hk6idsxlwitxzjbuuqwh4vjd8,E1KbaZS5,2020-0188,2020-11-18,19:11:25,19:25:42,NA,incomplete,48,color,1,right,Blue_Circle_Grid_4.jpg,Purple_Star_Stripes_4.jpg,Blue_Triangle_Chess_3.jpg,right,458,true,high,NA,NA,NA,NA,NA,NA,NA,false
E1KbaZS5,3087lxlj7ptluqx9bvztb5ithyq0fq,333u7hk6idsxlwitxzjbuuqwh4vjd8,E1KbaZS5,2020-0188,2020-11-18,19:11:25,19:25:42,NA,incomplete,49,color,1,right,Blue_Circle_Grid_1.jpg,Red_Triangle_Dots_1.jpg,Blue_Plus_Chess_4.jpg,right,491,true,high,NA,NA,NA,NA,NA,NA,NA,false
E1KbaZS5,3087lxlj7ptluqx9bvztb5ithyq0fq,333u7hk6idsxlwitxzjbuuqwh4vjd8,E1KbaZS5,2020-0188,2020-11-18,19:11:25,19:25:42,NA,incomplete,50,number,1,left,Blue_Triangle_Chess_1.jpg,Purple_Star_Dots_1.jpg,Blue_Plus_Grid_2.jpg,right,496,false,high,NA,NA,NA,NA,NA,NA,NA,false
E1KbaZS5,3087lxlj7ptluqx9bvztb5ithyq0fq,333u7hk6idsxlwitxzjbuuqwh4vjd8,E1KbaZS5,2020-0188,2020-11-18,19:11:25,19:25:42,NA,incomplete,51,number,0,right,Purple_Star_Chess_2.jpg,Purple_Triangle_Dots_4.jpg,Green_Plus_Stripes_2.jpg,right,648,true,high,NA,NA,NA,NA,NA,NA,NA,false
E1KbaZS5,3087lxlj7ptluqx9bvztb5ithyq0fq,333u7hk6idsxlwitxzjbuuqwh4vjd8,E1KbaZS5,2020-0188,2020-11-18,19:11:25,19:25:42,NA,incomplete,52,number,1,left,Green_Triangle_Stripes_4.jpg,Blue_Circle_Chess_4.jpg,Green_Plus_Grid_1.jpg,right,579,false,high,NA,NA,NA,NA,NA,NA,NA,false
E1KbaZS5,3087lxlj7ptluqx9bvztb5ithyq0fq,333u7hk6idsxlwitxzjbuuqwh4vjd8,E1KbaZS5,2020-0188,2020-11-18,19:11:25,19:25:42,NA,incomplete,53,number,1,right,Red_Triangle_Chess_1.jpg,Red_Plus_Dots_3.jpg,Green_Star_Grid_1.jpg,right,631,true,high,NA,NA,NA,NA,NA,NA,NA,false
E1KbaZS5,3087lxlj7ptluqx9bvztb5ithyq0fq,333u7hk6idsxlwitxzjbuuqwh4vjd8,E1KbaZS5,2020-0188,2020-11-18,19:11:25,19:25:42,NA,incomplete,54,number,1,right,Red_Star_Chess_4.jpg,Red_Plus_Grid_3.jpg,Blue_Circle_Dots_4.jpg,right,848,true,high,NA,NA,NA,NA,NA,NA,NA,false
E1KbaZS5,3087lxlj7ptluqx9bvztb5ithyq0fq,333u7hk6idsxlwitxzjbuuqwh4vjd8,E1KbaZS5,2020-0188,2020-11-18,19:11:25,19:25:42,NA,incomplete,55,number,1,left,Blue_Circle_Chess_1.jpg,Red_Plus_Grid_1.jpg,Blue_Triangle_Stripes_3.jpg,left,585,true,high,NA,NA,NA,NA,NA,NA,NA,false
E1KbaZS5,3087lxlj7ptluqx9bvztb5ithyq0fq,333u7hk6idsxlwitxzjbuuqwh4vjd8,E1KbaZS5,2020-0188,2020-11-18,19:11:25,19:25:42,NA,incomplete,56,number,1,right,Red_Circle_Dots_3.jpg,Red_Plus_Grid_2.jpg,Purple_Triangle_Chess_3.jpg,right,649,true,high,NA,NA,NA,NA,NA,NA,NA,false
E1KbaZS5,3087lxlj7ptluqx9bvztb5ithyq0fq,333u7hk6idsxlwitxzjbuuqwh4vjd8,E1KbaZS5,2020-0188,2020-11-18,19:11:25,19:25:42,NA,incomplete,57,number,1,right,Purple_Star_Grid_1.jpg,Purple_Triangle_Dots_2.jpg,Green_Circle_Chess_1.jpg,right,642,true,high,NA,NA,NA,NA,NA,NA,NA,false
E1KbaZS5,3087lxlj7ptluqx9bvztb5ithyq0fq,333u7hk6idsxlwitxzjbuuqwh4vjd8,E1KbaZS5,2020-0188,2020-11-18,19:11:25,19:25:42,NA,incomplete,58,number,1,right,Red_Plus_Chess_3.jpg,Red_Star_Dots_2.jpg,Blue_Triangle_Grid_3.jpg,right,547,true,high,NA,NA,NA,NA,NA,NA,NA,false
E1KbaZS5,3087lxlj7ptluqx9bvztb5ithyq0fq,333u7hk6idsxlwitxzjbuuqwh4vjd8,E1KbaZS5,2020-0188,2020-11-18,19:11:25,19:25:42,NA,incomplete,59,number,1,left,Green_Star_Stripes_3.jpg,Purple_Triangle_Dots_3.jpg,Green_Circle_Grid_4.jpg,left,794,true,high,NA,NA,NA,NA,NA,NA,NA,false
E1KbaZS5,3087lxlj7ptluqx9bvztb5ithyq0fq,333u7hk6idsxlwitxzjbuuqwh4vjd8,E1KbaZS5,2020-0188,2020-11-18,19:11:25,19:25:42,NA,incomplete,60,color,1,left,Purple_Circle_Grid_2.jpg,Purple_Triangle_Chess_1.jpg,Green_Plus_Dots_2.jpg,right,596,false,high,NA,NA,NA,NA,NA,NA,NA,false
E1KbaZS5,3087lxlj7ptluqx9bvztb5ithyq0fq,333u7hk6idsxlwitxzjbuuqwh4vjd8,E1KbaZS5,2020-0188,2020-11-18,19:11:25,19:25:42,NA,incomplete,61,color,0,left,Purple_Star_Chess_1.jpg,Purple_Circle_Stripes_4.jpg,Blue_Triangle_Dots_1.jpg,right,757,false,high,NA,NA,NA,NA,NA,NA,NA,false
E1KbaZS5,3087lxlj7ptluqx9bvztb5ithyq0fq,333u7hk6idsxlwitxzjbuuqwh4vjd8,E1KbaZS5,2020-0188,2020-11-18,19:11:25,19:25:42,NA,incomplete,62,color,1,right,Green_Star_Grid_4.jpg,Red_Circle_Stripes_4.jpg,Green_Plus_Dots_3.jpg,right,762,true,high,NA,NA,NA,NA,NA,NA,NA,false
E1KbaZS5,3087lxlj7ptluqx9bvztb5ithyq0fq,333u7hk6idsxlwitxzjbuuqwh4vjd8,E1KbaZS5,2020-0188,2020-11-18,19:11:25,19:25:42,NA,incomplete,63,color,1,left,Red_Circle_Stripes_2.jpg,Red_Plus_Grid_3.jpg,Purple_Triangle_Dots_2.jpg,left,661,true,high,NA,NA,NA,NA,NA,NA,NA,false
E1KbaZS5,3087lxlj7ptluqx9bvztb5ithyq0fq,333u7hk6idsxlwitxzjbuuqwh4vjd8,E1KbaZS5,2020-0188,2020-11-18,19:11:25,19:25:42,NA,incomplete,64,color,1,right,Red_Star_Chess_2.jpg,Purple_Triangle_Grid_2.jpg,Red_Plus_Dots_4.jpg,right,583,true,high,NA,NA,NA,NA,NA,NA,NA,false
E1KbaZS5,3087lxlj7ptluqx9bvztb5ithyq0fq,333u7hk6idsxlwitxzjbuuqwh4vjd8,E1KbaZS5,2020-0188,2020-11-18,19:11:25,19:25:42,NA,incomplete,65,color,1,left,Red_Star_Grid_3.jpg,Red_Circle_Stripes_2.jpg,Blue_Plus_Dots_3.jpg,left,772,true,high,NA,NA,NA,NA,NA,NA,NA,false
E1KbaZS5,3087lxlj7ptluqx9bvztb5ithyq0fq,333u7hk6idsxlwitxzjbuuqwh4vjd8,E1KbaZS5,2020-0188,2020-11-18,19:11:25,19:25:42,NA,incomplete,66,color,1,right,Green_Plus_Grid_1.jpg,Purple_Circle_Dots_1.jpg,Green_Star_Chess_3.jpg,left,654,false,high,NA,NA,NA,NA,NA,NA,NA,false
E1KbaZS5,3087lxlj7ptluqx9bvztb5ithyq0fq,333u7hk6idsxlwitxzjbuuqwh4vjd8,E1KbaZS5,2020-0188,2020-11-18,19:11:25,19:25:42,NA,incomplete,67,color,0,right,Purple_Star_Stripes_2.jpg,Green_Triangle_Chess_2.jpg,Purple_Plus_Dots_1.jpg,right,704,true,high,NA,NA,NA,NA,NA,NA,NA,false
E1KbaZS5,3087lxlj7ptluqx9bvztb5ithyq0fq,333u7hk6idsxlwitxzjbuuqwh4vjd8,E1KbaZS5,2020-0188,2020-11-18,19:11:25,19:25:42,NA,incomplete,68,color,1,left,Red_Circle_Stripes_1.jpg,Red_Star_Dots_4.jpg,Blue_Triangle_Chess_1.jpg,left,655,true,high,NA,NA,NA,NA,NA,NA,NA,false
E1KbaZS5,3087lxlj7ptluqx9bvztb5ithyq0fq,333u7hk6idsxlwitxzjbuuqwh4vjd8,E1KbaZS5,2020-0188,2020-11-18,19:11:25,19:25:42,NA,incomplete,69,color,1,left,Purple_Triangle_Dots_1.jpg,Purple_Circle_Chess_3.jpg,Green_Star_Stripes_1.jpg,left,687,true,high,NA,NA,NA,NA,NA,NA,NA,false
E1KbaZS5,3087lxlj7ptluqx9bvztb5ithyq0fq,333u7hk6idsxlwitxzjbuuqwh4vjd8,E1KbaZS5,2020-0188,2020-11-18,19:11:25,19:25:42,NA,incomplete,70,number,1,right,Green_Star_Dots_4.jpg,Green_Plus_Grid_1.jpg,Purple_Triangle_Chess_4.jpg,left,821,false,high,NA,NA,NA,NA,NA,NA,NA,false
E1KbaZS5,3087lxlj7ptluqx9bvztb5ithyq0fq,333u7hk6idsxlwitxzjbuuqwh4vjd8,E1KbaZS5,2020-0188,2020-11-18,19:11:25,19:25:42,NA,incomplete,71,number,0,left,Blue_Triangle_Dots_2.jpg,Purple_Plus_Stripes_2.jpg,Blue_Circle_Grid_1.jpg,left,720,true,high,NA,NA,NA,NA,NA,NA,NA,false
E1KbaZS5,3087lxlj7ptluqx9bvztb5ithyq0fq,333u7hk6idsxlwitxzjbuuqwh4vjd8,E1KbaZS5,2020-0188,2020-11-18,19:11:25,19:25:42,NA,incomplete,72,number,1,left,Green_Circle_Dots_3.jpg,Red_Triangle_Chess_3.jpg,Green_Star_Grid_4.jpg,right,646,false,high,NA,NA,NA,NA,NA,NA,NA,false
E1KbaZS5,3087lxlj7ptluqx9bvztb5ithyq0fq,333u7hk6idsxlwitxzjbuuqwh4vjd8,E1KbaZS5,2020-0188,2020-11-18,19:11:25,19:25:42,NA,incomplete,73,number,1,right,Red_Plus_Chess_2.jpg,Red_Triangle_Dots_4.jpg,Green_Circle_Stripes_2.jpg,right,775,true,high,NA,NA,NA,NA,NA,NA,NA,false
E1KbaZS5,3087lxlj7ptluqx9bvztb5ithyq0fq,333u7hk6idsxlwitxzjbuuqwh4vjd8,E1KbaZS5,2020-0188,2020-11-18,19:11:25,19:25:42,NA,incomplete,74,number,1,left,Green_Plus_Stripes_4.jpg,Blue_Circle_Chess_4.jpg,Green_Triangle_Grid_1.jpg,right,779,false,high,NA,NA,NA,NA,NA,NA,NA,false
E1KbaZS5,3087lxlj7ptluqx9bvztb5ithyq0fq,333u7hk6idsxlwitxzjbuuqwh4vjd8,E1KbaZS5,2020-0188,2020-11-18,19:11:25,19:25:42,NA,incomplete,75,number,1,right,Green_Plus_Stripes_4.jpg,Green_Circle_Chess_2.jpg,Purple_Triangle_Dots_4.jpg,right,652,true,high,NA,NA,NA,NA,NA,NA,NA,false
E1KbaZS5,3087lxlj7ptluqx9bvztb5ithyq0fq,333u7hk6idsxlwitxzjbuuqwh4vjd8,E1KbaZS5,2020-0188,2020-11-18,19:11:25,19:25:42,NA,incomplete,76,number,1,right,Red_Plus_Dots_1.jpg,Red_Circle_Chess_4.jpg,Green_Star_Stripes_1.jpg,left,862,false,high,NA,NA,NA,NA,NA,NA,NA,false
E1KbaZS5,3087lxlj7ptluqx9bvztb5ithyq0fq,333u7hk6idsxlwitxzjbuuqwh4vjd8,E1KbaZS5,2020-0188,2020-11-18,19:11:25,19:25:42,NA,incomplete,77,number,1,right,Blue_Plus_Dots_2.jpg,Blue_Star_Grid_3.jpg,Red_Circle_Stripes_2.jpg,right,824,true,high,NA,NA,NA,NA,NA,NA,NA,false
E1KbaZS5,3087lxlj7ptluqx9bvztb5ithyq0fq,333u7hk6idsxlwitxzjbuuqwh4vjd8,E1KbaZS5,2020-0188,2020-11-18,19:11:25,19:25:42,NA,incomplete,78,number,1,right,Blue_Triangle_Chess_3.jpg,Blue_Plus_Stripes_1.jpg,Green_Star_Grid_3.jpg,left,882,false,high,NA,NA,NA,NA,NA,NA,NA,false
E1KbaZS5,3087lxlj7ptluqx9bvztb5ithyq0fq,333u7hk6idsxlwitxzjbuuqwh4vjd8,E1KbaZS5,2020-0188,2020-11-18,19:11:25,19:25:42,NA,incomplete,79,number,0,left,Red_Circle_Dots_3.jpg,Blue_Triangle_Chess_3.jpg,Red_Star_Grid_2.jpg,right,632,false,high,NA,NA,NA,NA,NA,NA,NA,false
E1KbaZS5,3087lxlj7ptluqx9bvztb5ithyq0fq,333u7hk6idsxlwitxzjbuuqwh4vjd8,E1KbaZS5,2020-0188,2020-11-18,19:11:25,19:25:42,NA,incomplete,80,color,1,left,Blue_Triangle_Stripes_4.jpg,Blue_Circle_Dots_3.jpg,Red_Star_Grid_4.jpg,left,907,true,high,NA,NA,NA,NA,NA,NA,NA,false
E1KbaZS5,3087lxlj7ptluqx9bvztb5ithyq0fq,333u7hk6idsxlwitxzjbuuqwh4vjd8,E1KbaZS5,2020-0188,2020-11-18,19:11:25,19:25:42,NA,incomplete,81,color,1,left,Green_Star_Chess_1.jpg,Green_Circle_Dots_3.jpg,Red_Triangle_Stripes_1.jpg,left,696,true,high,NA,NA,NA,NA,NA,NA,NA,false
E1KbaZS5,3087lxlj7ptluqx9bvztb5ithyq0fq,333u7hk6idsxlwitxzjbuuqwh4vjd8,E1KbaZS5,2020-0188,2020-11-18,19:11:25,19:25:42,NA,incomplete,82,color,1,right,Red_Triangle_Chess_1.jpg,Green_Plus_Grid_1.jpg,Red_Circle_Dots_2.jpg,right,783,true,high,NA,NA,NA,NA,NA,NA,NA,false
E1KbaZS5,3087lxlj7ptluqx9bvztb5ithyq0fq,333u7hk6idsxlwitxzjbuuqwh4vjd8,E1KbaZS5,2020-0188,2020-11-18,19:11:25,19:25:42,NA,incomplete,83,color,1,right,Green_Plus_Dots_2.jpg,Purple_Star_Chess_2.jpg,Green_Triangle_Grid_4.jpg,right,547,true,high,NA,NA,NA,NA,NA,NA,NA,false
E1KbaZS5,3087lxlj7ptluqx9bvztb5ithyq0fq,333u7hk6idsxlwitxzjbuuqwh4vjd8,E1KbaZS5,2020-0188,2020-11-18,19:11:25,19:25:42,NA,incomplete,84,color,1,right,Purple_Plus_Grid_1.jpg,Green_Triangle_Dots_1.jpg,Purple_Circle_Stripes_2.jpg,right,496,true,high,NA,NA,NA,NA,NA,NA,NA,false
E1KbaZS5,3087lxlj7ptluqx9bvztb5ithyq0fq,333u7hk6idsxlwitxzjbuuqwh4vjd8,E1KbaZS5,2020-0188,2020-11-18,19:11:25,19:25:42,NA,incomplete,85,color,1,right,Red_Plus_Chess_3.jpg,Blue_Star_Grid_3.jpg,Red_Triangle_Dots_4.jpg,right,503,true,high,NA,NA,NA,NA,NA,NA,NA,false
E1KbaZS5,3087lxlj7ptluqx9bvztb5ithyq0fq,333u7hk6idsxlwitxzjbuuqwh4vjd8,E1KbaZS5,2020-0188,2020-11-18,19:11:25,19:25:42,NA,incomplete,86,color,0,left,Green_Star_Stripes_3.jpg,Green_Circle_Chess_4.jpg,Purple_Plus_Dots_3.jpg,left,468,true,high,NA,NA,NA,NA,NA,NA,NA,false
E1KbaZS5,3087lxlj7ptluqx9bvztb5ithyq0fq,333u7hk6idsxlwitxzjbuuqwh4vjd8,E1KbaZS5,2020-0188,2020-11-18,19:11:25,19:25:42,NA,incomplete,87,color,1,left,Green_Triangle_Chess_3.jpg,Green_Plus_Grid_2.jpg,Red_Star_Dots_3.jpg,right,620,false,high,NA,NA,NA,NA,NA,NA,NA,false
E1KbaZS5,3087lxlj7ptluqx9bvztb5ithyq0fq,333u7hk6idsxlwitxzjbuuqwh4vjd8,E1KbaZS5,2020-0188,2020-11-18,19:11:25,19:25:42,NA,incomplete,88,color,1,left,Purple_Plus_Grid_2.jpg,Purple_Star_Chess_1.jpg,Red_Triangle_Stripes_2.jpg,right,699,false,high,NA,NA,NA,NA,NA,NA,NA,false
E1KbaZS5,3087lxlj7ptluqx9bvztb5ithyq0fq,333u7hk6idsxlwitxzjbuuqwh4vjd8,E1KbaZS5,2020-0188,2020-11-18,19:11:25,19:25:42,NA,incomplete,89,color,1,right,Green_Circle_Chess_3.jpg,Blue_Star_Grid_3.jpg,Green_Triangle_Dots_1.jpg,right,642,true,high,NA,NA,NA,NA,NA,NA,NA,false
E1KbaZS5,3087lxlj7ptluqx9bvztb5ithyq0fq,333u7hk6idsxlwitxzjbuuqwh4vjd8,E1KbaZS5,2020-0188,2020-11-18,19:11:25,19:25:42,NA,incomplete,90,number,1,left,Red_Star_Dots_3.jpg,Purple_Plus_Stripes_3.jpg,Red_Triangle_Grid_4.jpg,right,556,false,high,NA,NA,NA,NA,NA,NA,NA,false
E1KbaZS5,3087lxlj7ptluqx9bvztb5ithyq0fq,333u7hk6idsxlwitxzjbuuqwh4vjd8,E1KbaZS5,2020-0188,2020-11-18,19:11:25,19:25:42,NA,incomplete,91,number,1,left,Purple_Triangle_Chess_2.jpg,Blue_Plus_Stripes_2.jpg,Purple_Star_Dots_3.jpg,left,857,true,high,NA,NA,NA,NA,NA,NA,NA,false
E1KbaZS5,3087lxlj7ptluqx9bvztb5ithyq0fq,333u7hk6idsxlwitxzjbuuqwh4vjd8,E1KbaZS5,2020-0188,2020-11-18,19:11:25,19:25:42,NA,incomplete,92,number,1,left,Blue_Circle_Dots_2.jpg,Red_Star_Stripes_2.jpg,Blue_Plus_Chess_4.jpg,left,736,true,high,NA,NA,NA,NA,NA,NA,NA,false
E1KbaZS5,3087lxlj7ptluqx9bvztb5ithyq0fq,333u7hk6idsxlwitxzjbuuqwh4vjd8,E1KbaZS5,2020-0188,2020-11-18,19:11:25,19:25:42,NA,incomplete,93,number,1,right,Purple_Star_Stripes_2.jpg,Purple_Triangle_Chess_4.jpg,Blue_Circle_Dots_2.jpg,left,668,false,high,NA,NA,NA,NA,NA,NA,NA,false
E1KbaZS5,3087lxlj7ptluqx9bvztb5ithyq0fq,333u7hk6idsxlwitxzjbuuqwh4vjd8,E1KbaZS5,2020-0188,2020-11-18,19:11:25,19:25:42,NA,incomplete,94,number,0,right,Purple_Circle_Dots_2.jpg,Purple_Star_Stripes_4.jpg,Red_Triangle_Chess_2.jpg,right,605,true,high,NA,NA,NA,NA,NA,NA,NA,false
E1KbaZS5,3087lxlj7ptluqx9bvztb5ithyq0fq,333u7hk6idsxlwitxzjbuuqwh4vjd8,E1KbaZS5,2020-0188,2020-11-18,19:11:25,19:25:42,NA,incomplete,95,number,1,right,Red_Circle_Stripes_2.jpg,Red_Plus_Grid_1.jpg,Purple_Star_Dots_2.jpg,right,591,true,high,NA,NA,NA,NA,NA,NA,NA,false
E1KbaZS5,3087lxlj7ptluqx9bvztb5ithyq0fq,333u7hk6idsxlwitxzjbuuqwh4vjd8,E1KbaZS5,2020-0188,2020-11-18,19:11:25,19:25:42,NA,incomplete,96,number,0,left,Red_Star_Chess_1.jpg,Green_Triangle_Dots_1.jpg,Red_Circle_Grid_4.jpg,left,633,true,high,NA,NA,NA,NA,NA,NA,NA,false
E1KbaZS5,3087lxlj7ptluqx9bvztb5ithyq0fq,333u7hk6idsxlwitxzjbuuqwh4vjd8,E1KbaZS5,2020-0188,2020-11-18,19:11:25,19:25:42,NA,incomplete,97,number,1,left,Purple_Plus_Dots_3.jpg,Red_Star_Grid_3.jpg,Purple_Circle_Chess_2.jpg,right,804,false,high,NA,NA,NA,NA,NA,NA,NA,false
E1KbaZS5,3087lxlj7ptluqx9bvztb5ithyq0fq,333u7hk6idsxlwitxzjbuuqwh4vjd8,E1KbaZS5,2020-0188,2020-11-18,19:11:25,19:25:42,NA,incomplete,98,number,1,right,Green_Plus_Grid_3.jpg,Green_Star_Chess_1.jpg,Blue_Triangle_Stripes_3.jpg,right,773,true,high,NA,NA,NA,NA,NA,NA,NA,false
E1KbaZS5,3087lxlj7ptluqx9bvztb5ithyq0fq,333u7hk6idsxlwitxzjbuuqwh4vjd8,E1KbaZS5,2020-0188,2020-11-18,19:11:25,19:25:42,NA,incomplete,99,number,0,left,Red_Star_Grid_2.jpg,Blue_Triangle_Stripes_2.jpg,Red_Circle_Dots_1.jpg,left,681,true,high,NA,NA,NA,NA,NA,NA,NA,false
E1KbaZS5,3087lxlj7ptluqx9bvztb5ithyq0fq,333u7hk6idsxlwitxzjbuuqwh4vjd8,E1KbaZS5,2020-0188,2020-11-18,19:11:25,19:25:42,NA,incomplete,100,color,1,right,Purple_Circle_Dots_2.jpg,Green_Star_Stripes_2.jpg,Purple_Triangle_Chess_1.jpg,left,702,false,high,NA,NA,NA,NA,NA,NA,NA,false
E1KbaZS5,3087lxlj7ptluqx9bvztb5ithyq0fq,333u7hk6idsxlwitxzjbuuqwh4vjd8,E1KbaZS5,2020-0188,2020-11-18,19:11:25,19:25:42,NA,incomplete,101,color,1,left,Purple_Plus_Grid_2.jpg,Purple_Star_Stripes_4.jpg,Blue_Triangle_Dots_2.jpg,left,518,true,high,NA,NA,NA,NA,NA,NA,NA,false
E1KbaZS5,3087lxlj7ptluqx9bvztb5ithyq0fq,333u7hk6idsxlwitxzjbuuqwh4vjd8,E1KbaZS5,2020-0188,2020-11-18,19:11:25,19:25:42,NA,incomplete,102,color,0,left,Purple_Triangle_Stripes_3.jpg,Purple_Star_Grid_2.jpg,Green_Circle_Chess_3.jpg,left,800,true,high,NA,NA,NA,NA,NA,NA,NA,false
E1KbaZS5,3087lxlj7ptluqx9bvztb5ithyq0fq,333u7hk6idsxlwitxzjbuuqwh4vjd8,E1KbaZS5,2020-0188,2020-11-18,19:11:25,19:25:42,NA,incomplete,103,color,1,right,Red_Plus_Dots_3.jpg,Purple_Triangle_Stripes_3.jpg,Red_Star_Chess_1.jpg,right,843,true,high,NA,NA,NA,NA,NA,NA,NA,false
E1KbaZS5,3087lxlj7ptluqx9bvztb5ithyq0fq,333u7hk6idsxlwitxzjbuuqwh4vjd8,E1KbaZS5,2020-0188,2020-11-18,19:11:25,19:25:42,NA,incomplete,104,color,1,right,Green_Triangle_Dots_1.jpg,Blue_Plus_Chess_1.jpg,Green_Star_Stripes_2.jpg,right,518,true,high,NA,NA,NA,NA,NA,NA,NA,false
E1KbaZS5,3087lxlj7ptluqx9bvztb5ithyq0fq,333u7hk6idsxlwitxzjbuuqwh4vjd8,E1KbaZS5,2020-0188,2020-11-18,19:11:25,19:25:42,NA,incomplete,105,color,1,left,Purple_Star_Stripes_4.jpg,Purple_Plus_Chess_1.jpg,Red_Circle_Dots_4.jpg,left,763,true,high,NA,NA,NA,NA,NA,NA,NA,false
E1KbaZS5,3087lxlj7ptluqx9bvztb5ithyq0fq,333u7hk6idsxlwitxzjbuuqwh4vjd8,E1KbaZS5,2020-0188,2020-11-18,19:11:25,19:25:42,NA,incomplete,106,color,0,left,Blue_Circle_Grid_3.jpg,Blue_Triangle_Stripes_1.jpg,Red_Star_Dots_3.jpg,right,622,false,high,NA,NA,NA,NA,NA,NA,NA,false
E1KbaZS5,3087lxlj7ptluqx9bvztb5ithyq0fq,333u7hk6idsxlwitxzjbuuqwh4vjd8,E1KbaZS5,2020-0188,2020-11-18,19:11:25,19:25:42,NA,incomplete,107,color,0,left,Red_Star_Dots_4.jpg,Red_Triangle_Grid_1.jpg,Blue_Circle_Stripes_4.jpg,right,631,false,high,NA,NA,NA,NA,NA,NA,NA,false
E1KbaZS5,3087lxlj7ptluqx9bvztb5ithyq0fq,333u7hk6idsxlwitxzjbuuqwh4vjd8,E1KbaZS5,2020-0188,2020-11-18,19:11:25,19:25:42,NA,incomplete,108,color,0,left,Red_Star_Grid_3.jpg,Red_Circle_Stripes_2.jpg,Green_Triangle_Chess_3.jpg,right,577,false,high,NA,NA,NA,NA,NA,NA,NA,false
E1KbaZS5,3087lxlj7ptluqx9bvztb5ithyq0fq,333u7hk6idsxlwitxzjbuuqwh4vjd8,E1KbaZS5,2020-0188,2020-11-18,19:11:25,19:25:42,NA,incomplete,109,color,1,right,Purple_Plus_Dots_4.jpg,Green_Star_Stripes_4.jpg,Purple_Circle_Chess_1.jpg,left,595,false,high,NA,NA,NA,NA,NA,NA,NA,false
E1KbaZS5,3087lxlj7ptluqx9bvztb5ithyq0fq,333u7hk6idsxlwitxzjbuuqwh4vjd8,E1KbaZS5,2020-0188,2020-11-18,19:11:25,19:25:42,NA,incomplete,110,number,1,left,Green_Triangle_Stripes_3.jpg,Red_Plus_Chess_3.jpg,Green_Star_Dots_1.jpg,right,760,false,high,NA,NA,NA,NA,NA,NA,NA,false
E1KbaZS5,3087lxlj7ptluqx9bvztb5ithyq0fq,333u7hk6idsxlwitxzjbuuqwh4vjd8,E1KbaZS5,2020-0188,2020-11-18,19:11:25,19:25:42,NA,incomplete,111,number,0,right,Purple_Star_Grid_4.jpg,Purple_Circle_Chess_1.jpg,Red_Plus_Stripes_4.jpg,right,845,true,high,NA,NA,NA,NA,NA,NA,NA,false
E1KbaZS5,3087lxlj7ptluqx9bvztb5ithyq0fq,333u7hk6idsxlwitxzjbuuqwh4vjd8,E1KbaZS5,2020-0188,2020-11-18,19:11:25,19:25:42,NA,incomplete,112,number,1,left,Blue_Plus_Grid_1.jpg,Green_Circle_Dots_1.jpg,Blue_Triangle_Stripes_3.jpg,right,743,false,high,NA,NA,NA,NA,NA,NA,NA,false
E1KbaZS5,3087lxlj7ptluqx9bvztb5ithyq0fq,333u7hk6idsxlwitxzjbuuqwh4vjd8,E1KbaZS5,2020-0188,2020-11-18,19:11:25,19:25:42,NA,incomplete,113,number,0,left,Red_Circle_Dots_3.jpg,Blue_Plus_Chess_3.jpg,Red_Star_Stripes_2.jpg,left,631,true,high,NA,NA,NA,NA,NA,NA,NA,false
E1KbaZS5,3087lxlj7ptluqx9bvztb5ithyq0fq,333u7hk6idsxlwitxzjbuuqwh4vjd8,E1KbaZS5,2020-0188,2020-11-18,19:11:25,19:25:42,NA,incomplete,114,number,0,left,Green_Circle_Chess_1.jpg,Red_Plus_Grid_1.jpg,Green_Triangle_Dots_2.jpg,right,707,false,high,NA,NA,NA,NA,NA,NA,NA,false
E1KbaZS5,3087lxlj7ptluqx9bvztb5ithyq0fq,333u7hk6idsxlwitxzjbuuqwh4vjd8,E1KbaZS5,2020-0188,2020-11-18,19:11:25,19:25:42,NA,incomplete,115,number,1,right,Purple_Circle_Dots_1.jpg,Purple_Triangle_Grid_3.jpg,Red_Star_Chess_1.jpg,left,696,false,high,NA,NA,NA,NA,NA,NA,NA,false
E1KbaZS5,3087lxlj7ptluqx9bvztb5ithyq0fq,333u7hk6idsxlwitxzjbuuqwh4vjd8,E1KbaZS5,2020-0188,2020-11-18,19:11:25,19:25:42,NA,incomplete,116,number,1,right,Blue_Triangle_Chess_1.jpg,Blue_Star_Stripes_4.jpg,Purple_Circle_Dots_1.jpg,right,693,true,high,NA,NA,NA,NA,NA,NA,NA,false
E1KbaZS5,3087lxlj7ptluqx9bvztb5ithyq0fq,333u7hk6idsxlwitxzjbuuqwh4vjd8,E1KbaZS5,2020-0188,2020-11-18,19:11:25,19:25:42,NA,incomplete,117,number,1,left,Purple_Plus_Chess_4.jpg,Green_Triangle_Dots_4.jpg,Purple_Star_Stripes_1.jpg,right,726,false,high,NA,NA,NA,NA,NA,NA,NA,false
E1KbaZS5,3087lxlj7ptluqx9bvztb5ithyq0fq,333u7hk6idsxlwitxzjbuuqwh4vjd8,E1KbaZS5,2020-0188,2020-11-18,19:11:25,19:25:42,NA,incomplete,118,number,1,right,Purple_Triangle_Stripes_2.jpg,Purple_Circle_Chess_4.jpg,Blue_Plus_Grid_2.jpg,right,667,true,high,NA,NA,NA,NA,NA,NA,NA,false
E1KbaZS5,3087lxlj7ptluqx9bvztb5ithyq0fq,333u7hk6idsxlwitxzjbuuqwh4vjd8,E1KbaZS5,2020-0188,2020-11-18,19:11:25,19:25:42,NA,incomplete,119,number,1,left,Green_Circle_Chess_2.jpg,Blue_Plus_Dots_2.jpg,Green_Triangle_Grid_1.jpg,left,859,true,high,NA,NA,NA,NA,NA,NA,NA,false
E1KbaZS5,3087lxlj7ptluqx9bvztb5ithyq0fq,333u7hk6idsxlwitxzjbuuqwh4vjd8,E1KbaZS5,2020-0188,2020-11-18,19:11:25,19:25:42,NA,incomplete,120,shape,1,right,Red_Plus_Stripes_2.jpg,Purple_Star_Stripes_4.jpg,Green_Plus_Chess_3.jpg,left,1472,false,high,NA,NA,NA,NA,NA,NA,NA,false
E1KbaZS5,3087lxlj7ptluqx9bvztb5ithyq0fq,333u7hk6idsxlwitxzjbuuqwh4vjd8,E1KbaZS5,2020-0188,2020-11-18,19:11:25,19:25:42,NA,incomplete,121,shape,1,right,Blue_Star_Grid_3.jpg,Purple_Circle_Grid_4.jpg,Green_Star_Dots_2.jpg,right,1177,true,high,NA,NA,NA,NA,NA,NA,NA,false
E1KbaZS5,3087lxlj7ptluqx9bvztb5ithyq0fq,333u7hk6idsxlwitxzjbuuqwh4vjd8,E1KbaZS5,2020-0188,2020-11-18,19:11:25,19:25:42,NA,incomplete,122,shape,1,left,Blue_Triangle_Grid_4.jpg,Purple_Triangle_Stripes_2.jpg,Green_Circle_Grid_3.jpg,left,637,true,high,NA,NA,NA,NA,NA,NA,NA,false
E1KbaZS5,3087lxlj7ptluqx9bvztb5ithyq0fq,333u7hk6idsxlwitxzjbuuqwh4vjd8,E1KbaZS5,2020-0188,2020-11-18,19:11:25,19:25:42,NA,incomplete,123,shape,1,right,Red_Star_Dots_3.jpg,Green_Triangle_Dots_1.jpg,Blue_Star_Grid_2.jpg,right,718,true,high,NA,NA,NA,NA,NA,NA,NA,false
E1KbaZS5,3087lxlj7ptluqx9bvztb5ithyq0fq,333u7hk6idsxlwitxzjbuuqwh4vjd8,E1KbaZS5,2020-0188,2020-11-18,19:11:25,19:25:42,NA,incomplete,124,shape,0,left,Green_Triangle_Dots_3.jpg,Red_Triangle_Stripes_2.jpg,Purple_Circle_Dots_4.jpg,left,740,true,high,NA,NA,NA,NA,NA,NA,NA,false
E1KbaZS5,3087lxlj7ptluqx9bvztb5ithyq0fq,333u7hk6idsxlwitxzjbuuqwh4vjd8,E1KbaZS5,2020-0188,2020-11-18,19:11:25,19:25:42,NA,incomplete,125,shape,1,right,Purple_Plus_Grid_4.jpg,Green_Star_Grid_3.jpg,Red_Plus_Stripes_1.jpg,right,799,true,high,NA,NA,NA,NA,NA,NA,NA,false
E1KbaZS5,3087lxlj7ptluqx9bvztb5ithyq0fq,333u7hk6idsxlwitxzjbuuqwh4vjd8,E1KbaZS5,2020-0188,2020-11-18,19:11:25,19:25:42,NA,incomplete,126,shape,1,right,Green_Star_Chess_1.jpg,Purple_Triangle_Chess_4.jpg,Red_Star_Grid_2.jpg,right,598,true,high,NA,NA,NA,NA,NA,NA,NA,false
E1KbaZS5,3087lxlj7ptluqx9bvztb5ithyq0fq,333u7hk6idsxlwitxzjbuuqwh4vjd8,E1KbaZS5,2020-0188,2020-11-18,19:11:25,19:25:42,NA,incomplete,127,shape,1,left,Red_Plus_Stripes_4.jpg,Purple_Plus_Grid_2.jpg,Green_Star_Stripes_3.jpg,left,694,true,high,NA,NA,NA,NA,NA,NA,NA,false
E1KbaZS5,3087lxlj7ptluqx9bvztb5ithyq0fq,333u7hk6idsxlwitxzjbuuqwh4vjd8,E1KbaZS5,2020-0188,2020-11-18,19:11:25,19:25:42,NA,incomplete,128,shape,0,left,Purple_Circle_Chess_2.jpg,Green_Circle_Stripes_3.jpg,Red_Plus_Chess_1.jpg,left,558,true,high,NA,NA,NA,NA,NA,NA,NA,false
E1KbaZS5,3087lxlj7ptluqx9bvztb5ithyq0fq,333u7hk6idsxlwitxzjbuuqwh4vjd8,E1KbaZS5,2020-0188,2020-11-18,19:11:25,19:25:42,NA,incomplete,129,shape,1,left,Blue_Circle_Grid_1.jpg,Red_Circle_Dots_2.jpg,Purple_Plus_Grid_3.jpg,right,908,false,high,NA,NA,NA,NA,NA,NA,NA,false
E1KbaZS5,3087lxlj7ptluqx9bvztb5ithyq0fq,333u7hk6idsxlwitxzjbuuqwh4vjd8,E1KbaZS5,2020-0188,2020-11-18,19:11:25,19:25:42,NA,incomplete,130,shape,1,right,Red_Triangle_Stripes_3.jpg,Green_Plus_Stripes_4.jpg,Purple_Triangle_Chess_2.jpg,left,992,false,high,NA,NA,NA,NA,NA,NA,NA,false
E1KbaZS5,3087lxlj7ptluqx9bvztb5ithyq0fq,333u7hk6idsxlwitxzjbuuqwh4vjd8,E1KbaZS5,2020-0188,2020-11-18,19:11:25,19:25:42,NA,incomplete,131,shape,0,right,Blue_Triangle_Dots_2.jpg,Red_Star_Dots_1.jpg,Purple_Triangle_Chess_4.jpg,right,714,true,high,NA,NA,NA,NA,NA,NA,NA,false
E1KbaZS5,3087lxlj7ptluqx9bvztb5ithyq0fq,333u7hk6idsxlwitxzjbuuqwh4vjd8,E1KbaZS5,2020-0188,2020-11-18,19:11:25,19:25:42,NA,incomplete,132,shape,1,right,Green_Plus_Chess_1.jpg,Purple_Triangle_Chess_4.jpg,Blue_Plus_Stripes_2.jpg,right,608,true,high,NA,NA,NA,NA,NA,NA,NA,false
E1KbaZS5,3087lxlj7ptluqx9bvztb5ithyq0fq,333u7hk6idsxlwitxzjbuuqwh4vjd8,E1KbaZS5,2020-0188,2020-11-18,19:11:25,19:25:42,NA,incomplete,133,shape,1,right,Red_Triangle_Chess_2.jpg,Purple_Circle_Chess_1.jpg,Green_Triangle_Dots_3.jpg,right,595,true,high,NA,NA,NA,NA,NA,NA,NA,false
E1KbaZS5,3087lxlj7ptluqx9bvztb5ithyq0fq,333u7hk6idsxlwitxzjbuuqwh4vjd8,E1KbaZS5,2020-0188,2020-11-18,19:11:25,19:25:42,NA,incomplete,134,shape,1,right,Green_Plus_Stripes_1.jpg,Purple_Circle_Stripes_3.jpg,Red_Plus_Dots_2.jpg,right,604,true,high,NA,NA,NA,NA,NA,NA,NA,false
E1KbaZS5,3087lxlj7ptluqx9bvztb5ithyq0fq,333u7hk6idsxlwitxzjbuuqwh4vjd8,E1KbaZS5,2020-0188,2020-11-18,19:11:25,19:25:42,NA,incomplete,135,shape,1,left,Purple_Circle_Dots_4.jpg,Red_Circle_Chess_1.jpg,Green_Plus_Dots_3.jpg,left,567,true,high,NA,NA,NA,NA,NA,NA,NA,false
E1KbaZS5,3087lxlj7ptluqx9bvztb5ithyq0fq,333u7hk6idsxlwitxzjbuuqwh4vjd8,E1KbaZS5,2020-0188,2020-11-18,19:11:25,19:25:42,NA,incomplete,136,shape,1,left,Red_Circle_Dots_1.jpg,Blue_Circle_Grid_2.jpg,Purple_Triangle_Dots_4.jpg,left,571,true,high,NA,NA,NA,NA,NA,NA,NA,false
E1KbaZS5,3087lxlj7ptluqx9bvztb5ithyq0fq,333u7hk6idsxlwitxzjbuuqwh4vjd8,E1KbaZS5,2020-0188,2020-11-18,19:11:25,19:25:42,NA,incomplete,137,shape,1,right,Purple_Triangle_Stripes_1.jpg,Red_Plus_Stripes_3.jpg,Green_Triangle_Grid_2.jpg,right,558,true,high,NA,NA,NA,NA,NA,NA,NA,false
E1KbaZS5,3087lxlj7ptluqx9bvztb5ithyq0fq,333u7hk6idsxlwitxzjbuuqwh4vjd8,E1KbaZS5,2020-0188,2020-11-18,19:11:25,19:25:42,NA,incomplete,138,shape,1,right,Green_Star_Chess_1.jpg,Blue_Circle_Chess_4.jpg,Red_Star_Dots_2.jpg,right,586,true,high,NA,NA,NA,NA,NA,NA,NA,false
E1KbaZS5,3087lxlj7ptluqx9bvztb5ithyq0fq,333u7hk6idsxlwitxzjbuuqwh4vjd8,E1KbaZS5,2020-0188,2020-11-18,19:11:25,19:25:42,NA,incomplete,139,shape,1,left,Red_Plus_Dots_3.jpg,Green_Plus_Chess_4.jpg,Purple_Circle_Dots_2.jpg,left,547,true,high,NA,NA,NA,NA,NA,NA,NA,false
E1KbaZS5,3087lxlj7ptluqx9bvztb5ithyq0fq,333u7hk6idsxlwitxzjbuuqwh4vjd8,E1KbaZS5,2020-0188,2020-11-18,19:11:25,19:25:42,NA,incomplete,140,filling,0,left,Red_Triangle_Grid_4.jpg,Green_Circle_Grid_3.jpg,Purple_Triangle_Chess_1.jpg,right,506,false,high,NA,NA,NA,NA,NA,NA,NA,false
E1KbaZS5,3087lxlj7ptluqx9bvztb5ithyq0fq,333u7hk6idsxlwitxzjbuuqwh4vjd8,E1KbaZS5,2020-0188,2020-11-18,19:11:25,19:25:42,NA,incomplete,141,filling,1,right,Red_Star_Stripes_1.jpg,Blue_Star_Grid_4.jpg,Green_Triangle_Stripes_2.jpg,left,609,false,high,NA,NA,NA,NA,NA,NA,NA,false
E1KbaZS5,3087lxlj7ptluqx9bvztb5ithyq0fq,333u7hk6idsxlwitxzjbuuqwh4vjd8,E1KbaZS5,2020-0188,2020-11-18,19:11:25,19:25:42,NA,incomplete,142,filling,1,left,Purple_Star_Chess_1.jpg,Red_Triangle_Chess_2.jpg,Green_Star_Stripes_3.jpg,right,621,false,high,NA,NA,NA,NA,NA,NA,NA,false
E1KbaZS5,3087lxlj7ptluqx9bvztb5ithyq0fq,333u7hk6idsxlwitxzjbuuqwh4vjd8,E1KbaZS5,2020-0188,2020-11-18,19:11:25,19:25:42,NA,incomplete,143,filling,0,right,Red_Circle_Stripes_4.jpg,Green_Circle_Grid_1.jpg,Purple_Triangle_Stripes_3.jpg,right,860,true,high,NA,NA,NA,NA,NA,NA,NA,false
E1KbaZS5,3087lxlj7ptluqx9bvztb5ithyq0fq,333u7hk6idsxlwitxzjbuuqwh4vjd8,E1KbaZS5,2020-0188,2020-11-18,19:11:25,19:25:42,NA,incomplete,144,filling,1,right,Green_Circle_Dots_4.jpg,Blue_Circle_Grid_3.jpg,Red_Star_Dots_2.jpg,left,590,false,high,NA,NA,NA,NA,NA,NA,NA,false
E1KbaZS5,3087lxlj7ptluqx9bvztb5ithyq0fq,333u7hk6idsxlwitxzjbuuqwh4vjd8,E1KbaZS5,2020-0188,2020-11-18,19:11:25,19:25:42,NA,incomplete,145,filling,1,right,Red_Star_Dots_2.jpg,Green_Star_Chess_4.jpg,Purple_Triangle_Dots_1.jpg,right,1090,true,high,NA,NA,NA,NA,NA,NA,NA,false
E1KbaZS5,3087lxlj7ptluqx9bvztb5ithyq0fq,333u7hk6idsxlwitxzjbuuqwh4vjd8,E1KbaZS5,2020-0188,2020-11-18,19:11:25,19:25:42,NA,incomplete,146,filling,0,right,Purple_Circle_Stripes_4.jpg,Red_Circle_Dots_3.jpg,Green_Plus_Stripes_2.jpg,right,942,true,high,NA,NA,NA,NA,NA,NA,NA,false
E1KbaZS5,3087lxlj7ptluqx9bvztb5ithyq0fq,333u7hk6idsxlwitxzjbuuqwh4vjd8,E1KbaZS5,2020-0188,2020-11-18,19:11:25,19:25:42,NA,incomplete,147,filling,1,right,Purple_Circle_Dots_3.jpg,Blue_Circle_Grid_4.jpg,Red_Plus_Dots_2.jpg,left,655,false,high,NA,NA,NA,NA,NA,NA,NA,false
E1KbaZS5,3087lxlj7ptluqx9bvztb5ithyq0fq,333u7hk6idsxlwitxzjbuuqwh4vjd8,E1KbaZS5,2020-0188,2020-11-18,19:11:25,19:25:42,NA,incomplete,148,filling,1,left,Red_Plus_Chess_4.jpg,Blue_Circle_Chess_2.jpg,Green_Plus_Grid_1.jpg,left,949,true,high,NA,NA,NA,NA,NA,NA,NA,false
E1KbaZS5,3087lxlj7ptluqx9bvztb5ithyq0fq,333u7hk6idsxlwitxzjbuuqwh4vjd8,E1KbaZS5,2020-0188,2020-11-18,19:11:25,19:25:42,NA,incomplete,149,filling,0,left,Blue_Star_Stripes_1.jpg,Red_Circle_Stripes_4.jpg,Purple_Star_Chess_2.jpg,left,834,true,high,NA,NA,NA,NA,NA,NA,NA,false
E1KbaZS5,3087lxlj7ptluqx9bvztb5ithyq0fq,333u7hk6idsxlwitxzjbuuqwh4vjd8,E1KbaZS5,2020-0188,2020-11-18,19:11:25,19:25:42,NA,incomplete,150,filling,1,left,Blue_Circle_Dots_2.jpg,Red_Star_Dots_3.jpg,Green_Circle_Chess_1.jpg,left,873,true,high,NA,NA,NA,NA,NA,NA,NA,false
E1KbaZS5,3087lxlj7ptluqx9bvztb5ithyq0fq,333u7hk6idsxlwitxzjbuuqwh4vjd8,E1KbaZS5,2020-0188,2020-11-18,19:11:25,19:25:42,NA,incomplete,151,filling,1,left,Green_Plus_Stripes_1.jpg,Purple_Circle_Stripes_2.jpg,Blue_Plus_Dots_3.jpg,left,1194,true,high,NA,NA,NA,NA,NA,NA,NA,false
E1KbaZS5,3087lxlj7ptluqx9bvztb5ithyq0fq,333u7hk6idsxlwitxzjbuuqwh4vjd8,E1KbaZS5,2020-0188,2020-11-18,19:11:25,19:25:42,NA,incomplete,152,filling,0,left,Purple_Plus_Grid_2.jpg,Blue_Triangle_Grid_4.jpg,Red_Plus_Chess_3.jpg,left,958,true,high,NA,NA,NA,NA,NA,NA,NA,false
E1KbaZS5,3087lxlj7ptluqx9bvztb5ithyq0fq,333u7hk6idsxlwitxzjbuuqwh4vjd8,E1KbaZS5,2020-0188,2020-11-18,19:11:25,19:25:42,NA,incomplete,153,filling,1,right,Blue_Plus_Dots_2.jpg,Green_Plus_Grid_4.jpg,Red_Star_Dots_3.jpg,right,849,true,high,NA,NA,NA,NA,NA,NA,NA,false
E1KbaZS5,3087lxlj7ptluqx9bvztb5ithyq0fq,333u7hk6idsxlwitxzjbuuqwh4vjd8,E1KbaZS5,2020-0188,2020-11-18,19:11:25,19:25:42,NA,incomplete,154,filling,1,left,Blue_Circle_Grid_2.jpg,Red_Triangle_Grid_3.jpg,Purple_Circle_Dots_1.jpg,left,906,true,high,NA,NA,NA,NA,NA,NA,NA,false
E1KbaZS5,3087lxlj7ptluqx9bvztb5ithyq0fq,333u7hk6idsxlwitxzjbuuqwh4vjd8,E1KbaZS5,2020-0188,2020-11-18,19:11:25,19:25:42,NA,incomplete,155,filling,0,left,Purple_Plus_Dots_1.jpg,Green_Circle_Dots_4.jpg,Red_Plus_Chess_3.jpg,left,864,true,high,NA,NA,NA,NA,NA,NA,NA,false
E1KbaZS5,3087lxlj7ptluqx9bvztb5ithyq0fq,333u7hk6idsxlwitxzjbuuqwh4vjd8,E1KbaZS5,2020-0188,2020-11-18,19:11:25,19:25:42,NA,incomplete,156,filling,1,right,Blue_Triangle_Chess_3.jpg,Purple_Triangle_Stripes_2.jpg,Red_Plus_Chess_4.jpg,right,882,true,high,NA,NA,NA,NA,NA,NA,NA,false
E1KbaZS5,3087lxlj7ptluqx9bvztb5ithyq0fq,333u7hk6idsxlwitxzjbuuqwh4vjd8,E1KbaZS5,2020-0188,2020-11-18,19:11:25,19:25:42,NA,incomplete,157,filling,1,right,Green_Plus_Grid_4.jpg,Purple_Plus_Stripes_3.jpg,Red_Star_Grid_2.jpg,left,993,false,high,NA,NA,NA,NA,NA,NA,NA,false
E1KbaZS5,3087lxlj7ptluqx9bvztb5ithyq0fq,333u7hk6idsxlwitxzjbuuqwh4vjd8,E1KbaZS5,2020-0188,2020-11-18,19:11:25,19:25:42,NA,incomplete,158,filling,0,right,Red_Circle_Stripes_3.jpg,Green_Circle_Grid_1.jpg,Blue_Plus_Stripes_4.jpg,right,893,true,high,NA,NA,NA,NA,NA,NA,NA,false
E1KbaZS5,3087lxlj7ptluqx9bvztb5ithyq0fq,333u7hk6idsxlwitxzjbuuqwh4vjd8,E1KbaZS5,2020-0188,2020-11-18,19:11:25,19:25:42,NA,incomplete,159,filling,1,right,Blue_Plus_Chess_2.jpg,Red_Plus_Dots_3.jpg,Purple_Star_Chess_1.jpg,right,933,true,high,NA,NA,NA,NA,NA,NA,NA,false
E1KbaZS5,3087lxlj7ptluqx9bvztb5ithyq0fq,333u7hk6idsxlwitxzjbuuqwh4vjd8,E1KbaZS5,2020-0188,2020-11-18,19:11:25,19:25:42,NA,incomplete,160,shape,0,right,Red_Star_Dots_4.jpg,Green_Circle_Dots_3.jpg,Purple_Star_Stripes_1.jpg,left,987,false,high,NA,NA,NA,NA,NA,NA,NA,false
E1KbaZS5,3087lxlj7ptluqx9bvztb5ithyq0fq,333u7hk6idsxlwitxzjbuuqwh4vjd8,E1KbaZS5,2020-0188,2020-11-18,19:11:25,19:25:42,NA,incomplete,161,shape,1,left,Green_Circle_Grid_1.jpg,Purple_Circle_Chess_2.jpg,Blue_Triangle_Grid_3.jpg,right,854,false,high,NA,NA,NA,NA,NA,NA,NA,false
E1KbaZS5,3087lxlj7ptluqx9bvztb5ithyq0fq,333u7hk6idsxlwitxzjbuuqwh4vjd8,E1KbaZS5,2020-0188,2020-11-18,19:11:25,19:25:42,NA,incomplete,162,shape,1,left,Green_Plus_Chess_4.jpg,Purple_Plus_Dots_2.jpg,Red_Circle_Chess_3.jpg,left,1079,true,high,NA,NA,NA,NA,NA,NA,NA,false
E1KbaZS5,3087lxlj7ptluqx9bvztb5ithyq0fq,333u7hk6idsxlwitxzjbuuqwh4vjd8,E1KbaZS5,2020-0188,2020-11-18,19:11:25,19:25:42,NA,incomplete,163,shape,0,left,Blue_Plus_Chess_2.jpg,Purple_Plus_Stripes_4.jpg,Green_Triangle_Chess_3.jpg,right,941,false,high,NA,NA,NA,NA,NA,NA,NA,false
E1KbaZS5,3087lxlj7ptluqx9bvztb5ithyq0fq,333u7hk6idsxlwitxzjbuuqwh4vjd8,E1KbaZS5,2020-0188,2020-11-18,19:11:25,19:25:42,NA,incomplete,164,shape,1,right,Blue_Triangle_Dots_3.jpg,Purple_Circle_Dots_4.jpg,Green_Triangle_Stripes_1.jpg,left,963,false,high,NA,NA,NA,NA,NA,NA,NA,false
E1KbaZS5,3087lxlj7ptluqx9bvztb5ithyq0fq,333u7hk6idsxlwitxzjbuuqwh4vjd8,E1KbaZS5,2020-0188,2020-11-18,19:11:25,19:25:42,NA,incomplete,165,shape,1,right,Blue_Star_Stripes_4.jpg,Purple_Plus_Stripes_2.jpg,Green_Star_Dots_3.jpg,left,936,false,high,NA,NA,NA,NA,NA,NA,NA,false
E1KbaZS5,3087lxlj7ptluqx9bvztb5ithyq0fq,333u7hk6idsxlwitxzjbuuqwh4vjd8,E1KbaZS5,2020-0188,2020-11-18,19:11:25,19:25:42,NA,incomplete,166,shape,1,right,Blue_Plus_Grid_1.jpg,Purple_Triangle_Grid_2.jpg,Red_Plus_Stripes_3.jpg,right,670,true,high,NA,NA,NA,NA,NA,NA,NA,false
E1KbaZS5,3087lxlj7ptluqx9bvztb5ithyq0fq,333u7hk6idsxlwitxzjbuuqwh4vjd8,E1KbaZS5,2020-0188,2020-11-18,19:11:25,19:25:42,NA,incomplete,167,shape,1,right,Green_Circle_Dots_4.jpg,Blue_Plus_Dots_2.jpg,Purple_Circle_Grid_1.jpg,right,524,true,high,NA,NA,NA,NA,NA,NA,NA,false
E1KbaZS5,3087lxlj7ptluqx9bvztb5ithyq0fq,333u7hk6idsxlwitxzjbuuqwh4vjd8,E1KbaZS5,2020-0188,2020-11-18,19:11:25,19:25:42,NA,incomplete,168,shape,1,left,Green_Star_Chess_2.jpg,Blue_Star_Stripes_3.jpg,Purple_Plus_Chess_4.jpg,left,658,true,high,NA,NA,NA,NA,NA,NA,NA,false
E1KbaZS5,3087lxlj7ptluqx9bvztb5ithyq0fq,333u7hk6idsxlwitxzjbuuqwh4vjd8,E1KbaZS5,2020-0188,2020-11-18,19:11:25,19:25:42,NA,incomplete,169,shape,1,left,Red_Circle_Grid_4.jpg,Green_Circle_Stripes_1.jpg,Blue_Plus_Grid_3.jpg,left,601,true,high,NA,NA,NA,NA,NA,NA,NA,false
E1KbaZS5,3087lxlj7ptluqx9bvztb5ithyq0fq,333u7hk6idsxlwitxzjbuuqwh4vjd8,E1KbaZS5,2020-0188,2020-11-18,19:11:25,19:25:42,NA,incomplete,170,shape,1,right,Purple_Circle_Dots_2.jpg,Red_Plus_Dots_1.jpg,Blue_Circle_Stripes_3.jpg,right,567,true,high,NA,NA,NA,NA,NA,NA,NA,false
E1KbaZS5,3087lxlj7ptluqx9bvztb5ithyq0fq,333u7hk6idsxlwitxzjbuuqwh4vjd8,E1KbaZS5,2020-0188,2020-11-18,19:11:25,19:25:42,NA,incomplete,171,shape,1,right,Red_Star_Grid_4.jpg,Blue_Triangle_Grid_1.jpg,Purple_Star_Stripes_2.jpg,left,801,false,high,NA,NA,NA,NA,NA,NA,NA,false
E1KbaZS5,3087lxlj7ptluqx9bvztb5ithyq0fq,333u7hk6idsxlwitxzjbuuqwh4vjd8,E1KbaZS5,2020-0188,2020-11-18,19:11:25,19:25:42,NA,incomplete,172,shape,1,right,Green_Plus_Grid_3.jpg,Blue_Circle_Grid_2.jpg,Purple_Plus_Dots_1.jpg,right,538,true,high,NA,NA,NA,NA,NA,NA,NA,false
E1KbaZS5,3087lxlj7ptluqx9bvztb5ithyq0fq,333u7hk6idsxlwitxzjbuuqwh4vjd8,E1KbaZS5,2020-0188,2020-11-18,19:11:25,19:25:42,NA,incomplete,173,shape,1,left,Red_Circle_Stripes_2.jpg,Purple_Circle_Grid_4.jpg,Blue_Plus_Stripes_1.jpg,left,616,true,high,NA,NA,NA,NA,NA,NA,NA,false
E1KbaZS5,3087lxlj7ptluqx9bvztb5ithyq0fq,333u7hk6idsxlwitxzjbuuqwh4vjd8,E1KbaZS5,2020-0188,2020-11-18,19:11:25,19:25:42,NA,incomplete,174,shape,1,left,Purple_Plus_Dots_3.jpg,Blue_Plus_Chess_1.jpg,Green_Star_Dots_4.jpg,right,855,false,high,NA,NA,NA,NA,NA,NA,NA,false
E1KbaZS5,3087lxlj7ptluqx9bvztb5ithyq0fq,333u7hk6idsxlwitxzjbuuqwh4vjd8,E1KbaZS5,2020-0188,2020-11-18,19:11:25,19:25:42,NA,incomplete,175,shape,1,right,Red_Circle_Grid_2.jpg,Purple_Plus_Grid_3.jpg,Blue_Circle_Stripes_1.jpg,right,554,true,high,NA,NA,NA,NA,NA,NA,NA,false
E1KbaZS5,3087lxlj7ptluqx9bvztb5ithyq0fq,333u7hk6idsxlwitxzjbuuqwh4vjd8,E1KbaZS5,2020-0188,2020-11-18,19:11:25,19:25:42,NA,incomplete,176,shape,1,left,Red_Plus_Dots_2.jpg,Blue_Plus_Chess_4.jpg,Purple_Circle_Dots_1.jpg,left,493,true,high,NA,NA,NA,NA,NA,NA,NA,false
E1KbaZS5,3087lxlj7ptluqx9bvztb5ithyq0fq,333u7hk6idsxlwitxzjbuuqwh4vjd8,E1KbaZS5,2020-0188,2020-11-18,19:11:25,19:25:42,NA,incomplete,177,shape,1,right,Blue_Circle_Grid_2.jpg,Purple_Triangle_Grid_4.jpg,Green_Circle_Dots_1.jpg,right,659,true,high,NA,NA,NA,NA,NA,NA,NA,false
E1KbaZS5,3087lxlj7ptluqx9bvztb5ithyq0fq,333u7hk6idsxlwitxzjbuuqwh4vjd8,E1KbaZS5,2020-0188,2020-11-18,19:11:25,19:25:42,NA,incomplete,178,shape,0,right,Blue_Plus_Chess_1.jpg,Green_Star_Chess_2.jpg,Purple_Plus_Stripes_4.jpg,right,796,true,high,NA,NA,NA,NA,NA,NA,NA,false
E1KbaZS5,3087lxlj7ptluqx9bvztb5ithyq0fq,333u7hk6idsxlwitxzjbuuqwh4vjd8,E1KbaZS5,2020-0188,2020-11-18,19:11:25,19:25:42,NA,incomplete,179,shape,1,left,Blue_Circle_Stripes_2.jpg,Red_Circle_Chess_1.jpg,Green_Plus_Stripes_3.jpg,left,525,true,high,NA,NA,NA,NA,NA,NA,NA,false
E1KbaZS5,3087lxlj7ptluqx9bvztb5ithyq0fq,333u7hk6idsxlwitxzjbuuqwh4vjd8,E1KbaZS5,2020-0188,2020-11-18,19:11:25,19:25:42,NA,incomplete,180,filling,0,left,Red_Plus_Dots_2.jpg,Blue_Star_Dots_4.jpg,Purple_Plus_Stripes_3.jpg,right,532,false,high,NA,NA,NA,NA,NA,NA,NA,false
E1KbaZS5,3087lxlj7ptluqx9bvztb5ithyq0fq,333u7hk6idsxlwitxzjbuuqwh4vjd8,E1KbaZS5,2020-0188,2020-11-18,19:11:25,19:25:42,NA,incomplete,181,filling,1,left,Green_Star_Dots_4.jpg,Purple_Plus_Dots_3.jpg,Blue_Star_Stripes_2.jpg,right,663,false,high,NA,NA,NA,NA,NA,NA,NA,false
E1KbaZS5,3087lxlj7ptluqx9bvztb5ithyq0fq,333u7hk6idsxlwitxzjbuuqwh4vjd8,E1KbaZS5,2020-0188,2020-11-18,19:11:25,19:25:42,NA,incomplete,182,filling,1,right,Red_Triangle_Stripes_4.jpg,Purple_Triangle_Chess_1.jpg,Green_Star_Stripes_3.jpg,left,799,false,high,NA,NA,NA,NA,NA,NA,NA,false
E1KbaZS5,3087lxlj7ptluqx9bvztb5ithyq0fq,333u7hk6idsxlwitxzjbuuqwh4vjd8,E1KbaZS5,2020-0188,2020-11-18,19:11:25,19:25:42,NA,incomplete,183,filling,1,right,Green_Triangle_Stripes_1.jpg,Red_Triangle_Grid_2.jpg,Blue_Star_Stripes_3.jpg,left,764,false,high,NA,NA,NA,NA,NA,NA,NA,false
E1KbaZS5,3087lxlj7ptluqx9bvztb5ithyq0fq,333u7hk6idsxlwitxzjbuuqwh4vjd8,E1KbaZS5,2020-0188,2020-11-18,19:11:25,19:25:42,NA,incomplete,184,filling,1,left,Red_Circle_Chess_4.jpg,Green_Star_Chess_2.jpg,Blue_Circle_Stripes_1.jpg,left,793,true,high,NA,NA,NA,NA,NA,NA,NA,false
E1KbaZS5,3087lxlj7ptluqx9bvztb5ithyq0fq,333u7hk6idsxlwitxzjbuuqwh4vjd8,E1KbaZS5,2020-0188,2020-11-18,19:11:25,19:25:42,NA,incomplete,185,filling,1,left,Red_Plus_Stripes_3.jpg,Purple_Triangle_Stripes_1.jpg,Blue_Plus_Dots_4.jpg,right,908,false,high,NA,NA,NA,NA,NA,NA,NA,false
E1KbaZS5,3087lxlj7ptluqx9bvztb5ithyq0fq,333u7hk6idsxlwitxzjbuuqwh4vjd8,E1KbaZS5,2020-0188,2020-11-18,19:11:25,19:25:42,NA,incomplete,186,filling,0,right,Red_Triangle_Stripes_4.jpg,Green_Triangle_Grid_3.jpg,Purple_Plus_Stripes_1.jpg,left,641,false,high,NA,NA,NA,NA,NA,NA,NA,false
E1KbaZS5,3087lxlj7ptluqx9bvztb5ithyq0fq,333u7hk6idsxlwitxzjbuuqwh4vjd8,E1KbaZS5,2020-0188,2020-11-18,19:11:25,19:25:42,NA,incomplete,187,filling,1,right,Purple_Circle_Chess_3.jpg,Red_Circle_Grid_1.jpg,Blue_Triangle_Chess_4.jpg,left,746,false,high,NA,NA,NA,NA,NA,NA,NA,false
E1KbaZS5,3087lxlj7ptluqx9bvztb5ithyq0fq,333u7hk6idsxlwitxzjbuuqwh4vjd8,E1KbaZS5,2020-0188,2020-11-18,19:11:25,19:25:42,NA,incomplete,188,filling,1,right,Blue_Triangle_Dots_3.jpg,Red_Triangle_Chess_1.jpg,Green_Plus_Dots_2.jpg,right,687,true,high,NA,NA,NA,NA,NA,NA,NA,false
E1KbaZS5,3087lxlj7ptluqx9bvztb5ithyq0fq,333u7hk6idsxlwitxzjbuuqwh4vjd8,E1KbaZS5,2020-0188,2020-11-18,19:11:25,19:25:42,NA,incomplete,189,filling,1,left,Green_Star_Stripes_2.jpg,Red_Triangle_Stripes_3.jpg,Purple_Star_Grid_4.jpg,right,807,false,high,NA,NA,NA,NA,NA,NA,NA,false
E1KbaZS5,3087lxlj7ptluqx9bvztb5ithyq0fq,333u7hk6idsxlwitxzjbuuqwh4vjd8,E1KbaZS5,2020-0188,2020-11-18,19:11:25,19:25:42,NA,incomplete,190,filling,1,right,Blue_Triangle_Dots_2.jpg,Purple_Triangle_Chess_3.jpg,Green_Plus_Dots_1.jpg,right,873,true,high,NA,NA,NA,NA,NA,NA,NA,false
E1KbaZS5,3087lxlj7ptluqx9bvztb5ithyq0fq,333u7hk6idsxlwitxzjbuuqwh4vjd8,E1KbaZS5,2020-0188,2020-11-18,19:11:25,19:25:42,NA,incomplete,191,filling,0,left,Green_Triangle_Dots_4.jpg,Purple_Plus_Dots_3.jpg,Red_Triangle_Stripes_1.jpg,right,849,false,high,NA,NA,NA,NA,NA,NA,NA,false
E1KbaZS5,3087lxlj7ptluqx9bvztb5ithyq0fq,333u7hk6idsxlwitxzjbuuqwh4vjd8,E1KbaZS5,2020-0188,2020-11-18,19:11:25,19:25:42,NA,incomplete,192,filling,1,left,Purple_Star_Dots_4.jpg,Blue_Circle_Dots_1.jpg,Red_Star_Grid_3.jpg,right,600,false,high,NA,NA,NA,NA,NA,NA,NA,false
E1KbaZS5,3087lxlj7ptluqx9bvztb5ithyq0fq,333u7hk6idsxlwitxzjbuuqwh4vjd8,E1KbaZS5,2020-0188,2020-11-18,19:11:25,19:25:42,NA,incomplete,193,filling,0,right,Purple_Plus_Dots_4.jpg,Green_Plus_Chess_3.jpg,Red_Triangle_Dots_1.jpg,right,964,true,high,NA,NA,NA,NA,NA,NA,NA,false
E1KbaZS5,3087lxlj7ptluqx9bvztb5ithyq0fq,333u7hk6idsxlwitxzjbuuqwh4vjd8,E1KbaZS5,2020-0188,2020-11-18,19:11:25,19:25:42,NA,incomplete,194,filling,1,left,Green_Plus_Grid_1.jpg,Purple_Triangle_Grid_2.jpg,Blue_Plus_Chess_3.jpg,left,1021,true,high,NA,NA,NA,NA,NA,NA,NA,false
E1KbaZS5,3087lxlj7ptluqx9bvztb5ithyq0fq,333u7hk6idsxlwitxzjbuuqwh4vjd8,E1KbaZS5,2020-0188,2020-11-18,19:11:25,19:25:42,NA,incomplete,195,filling,1,right,Blue_Triangle_Dots_4.jpg,Green_Triangle_Grid_2.jpg,Red_Star_Dots_1.jpg,right,709,true,high,NA,NA,NA,NA,NA,NA,NA,false
E1KbaZS5,3087lxlj7ptluqx9bvztb5ithyq0fq,333u7hk6idsxlwitxzjbuuqwh4vjd8,E1KbaZS5,2020-0188,2020-11-18,19:11:25,19:25:42,NA,incomplete,196,filling,1,left,Purple_Plus_Chess_2.jpg,Red_Circle_Chess_4.jpg,Blue_Plus_Stripes_3.jpg,left,700,true,high,NA,NA,NA,NA,NA,NA,NA,false
E1KbaZS5,3087lxlj7ptluqx9bvztb5ithyq0fq,333u7hk6idsxlwitxzjbuuqwh4vjd8,E1KbaZS5,2020-0188,2020-11-18,19:11:25,19:25:42,NA,incomplete,197,filling,1,left,Red_Triangle_Chess_1.jpg,Green_Circle_Chess_3.jpg,Blue_Triangle_Stripes_4.jpg,left,690,true,high,NA,NA,NA,NA,NA,NA,NA,false
E1KbaZS5,3087lxlj7ptluqx9bvztb5ithyq0fq,333u7hk6idsxlwitxzjbuuqwh4vjd8,E1KbaZS5,2020-0188,2020-11-18,19:11:25,19:25:42,NA,incomplete,198,filling,1,left,Blue_Circle_Chess_4.jpg,Purple_Star_Chess_1.jpg,Green_Circle_Grid_2.jpg,left,747,true,high,NA,NA,NA,NA,NA,NA,NA,false
E1KbaZS5,3087lxlj7ptluqx9bvztb5ithyq0fq,333u7hk6idsxlwitxzjbuuqwh4vjd8,E1KbaZS5,2020-0188,2020-11-18,19:11:25,19:25:42,NA,incomplete,199,filling,1,right,Green_Triangle_Grid_4.jpg,Purple_Triangle_Chess_3.jpg,Red_Star_Grid_2.jpg,right,839,true,high,NA,NA,NA,NA,NA,NA,NA,false
E1KbaZS5,3087lxlj7ptluqx9bvztb5ithyq0fq,333u7hk6idsxlwitxzjbuuqwh4vjd8,E1KbaZS5,2020-0188,2020-11-18,19:11:25,19:25:42,NA,incomplete,200,shape,1,left,Purple_Circle_Chess_4.jpg,Red_Circle_Grid_1.jpg,Green_Star_Chess_2.jpg,right,792,false,high,NA,NA,NA,NA,NA,NA,NA,false
E1KbaZS5,3087lxlj7ptluqx9bvztb5ithyq0fq,333u7hk6idsxlwitxzjbuuqwh4vjd8,E1KbaZS5,2020-0188,2020-11-18,19:11:25,19:25:42,NA,incomplete,201,shape,1,left,Purple_Triangle_Stripes_3.jpg,Red_Triangle_Dots_4.jpg,Green_Circle_Stripes_1.jpg,right,788,false,high,NA,NA,NA,NA,NA,NA,NA,false
E1KbaZS5,3087lxlj7ptluqx9bvztb5ithyq0fq,333u7hk6idsxlwitxzjbuuqwh4vjd8,E1KbaZS5,2020-0188,2020-11-18,19:11:25,19:25:42,NA,incomplete,202,shape,1,left,Green_Triangle_Stripes_1.jpg,Purple_Triangle_Chess_3.jpg,Blue_Star_Stripes_2.jpg,left,703,true,high,NA,NA,NA,NA,NA,NA,NA,false
E1KbaZS5,3087lxlj7ptluqx9bvztb5ithyq0fq,333u7hk6idsxlwitxzjbuuqwh4vjd8,E1KbaZS5,2020-0188,2020-11-18,19:11:25,19:25:42,NA,incomplete,203,shape,1,right,Green_Plus_Stripes_3.jpg,Red_Triangle_Stripes_4.jpg,Purple_Plus_Grid_2.jpg,right,565,true,high,NA,NA,NA,NA,NA,NA,NA,false
E1KbaZS5,3087lxlj7ptluqx9bvztb5ithyq0fq,333u7hk6idsxlwitxzjbuuqwh4vjd8,E1KbaZS5,2020-0188,2020-11-18,19:11:25,19:25:42,NA,incomplete,204,shape,1,left,Blue_Plus_Dots_3.jpg,Red_Plus_Chess_4.jpg,Green_Star_Dots_2.jpg,left,762,true,high,NA,NA,NA,NA,NA,NA,NA,false
E1KbaZS5,3087lxlj7ptluqx9bvztb5ithyq0fq,333u7hk6idsxlwitxzjbuuqwh4vjd8,E1KbaZS5,2020-0188,2020-11-18,19:11:25,19:25:42,NA,incomplete,205,shape,1,left,Green_Plus_Grid_4.jpg,Purple_Plus_Chess_3.jpg,Red_Circle_Grid_1.jpg,left,552,true,high,NA,NA,NA,NA,NA,NA,NA,false
E1KbaZS5,3087lxlj7ptluqx9bvztb5ithyq0fq,333u7hk6idsxlwitxzjbuuqwh4vjd8,E1KbaZS5,2020-0188,2020-11-18,19:11:25,19:25:42,NA,incomplete,206,shape,1,left,Purple_Triangle_Grid_4.jpg,Red_Triangle_Stripes_2.jpg,Green_Star_Grid_1.jpg,left,562,true,high,NA,NA,NA,NA,NA,NA,NA,false
E1KbaZS5,3087lxlj7ptluqx9bvztb5ithyq0fq,333u7hk6idsxlwitxzjbuuqwh4vjd8,E1KbaZS5,2020-0188,2020-11-18,19:11:25,19:25:42,NA,incomplete,207,shape,1,left,Red_Star_Stripes_2.jpg,Blue_Star_Dots_3.jpg,Purple_Circle_Stripes_4.jpg,left,592,true,high,NA,NA,NA,NA,NA,NA,NA,false
E1KbaZS5,3087lxlj7ptluqx9bvztb5ithyq0fq,333u7hk6idsxlwitxzjbuuqwh4vjd8,E1KbaZS5,2020-0188,2020-11-18,19:11:25,19:25:42,NA,incomplete,208,shape,1,left,Blue_Plus_Stripes_4.jpg,Red_Plus_Chess_2.jpg,Purple_Star_Stripes_3.jpg,left,648,true,high,NA,NA,NA,NA,NA,NA,NA,false
E1KbaZS5,3087lxlj7ptluqx9bvztb5ithyq0fq,333u7hk6idsxlwitxzjbuuqwh4vjd8,E1KbaZS5,2020-0188,2020-11-18,19:11:25,19:25:42,NA,incomplete,209,shape,1,right,Red_Star_Stripes_3.jpg,Purple_Triangle_Stripes_1.jpg,Green_Star_Chess_4.jpg,right,538,true,high,NA,NA,NA,NA,NA,NA,NA,false
E1KbaZS5,3087lxlj7ptluqx9bvztb5ithyq0fq,333u7hk6idsxlwitxzjbuuqwh4vjd8,E1KbaZS5,2020-0188,2020-11-18,19:11:25,19:25:42,NA,incomplete,210,shape,0,right,Purple_Plus_Stripes_2.jpg,Blue_Star_Stripes_4.jpg,Green_Plus_Chess_1.jpg,right,743,true,high,NA,NA,NA,NA,NA,NA,NA,false
E1KbaZS5,3087lxlj7ptluqx9bvztb5ithyq0fq,333u7hk6idsxlwitxzjbuuqwh4vjd8,E1KbaZS5,2020-0188,2020-11-18,19:11:25,19:25:42,NA,incomplete,211,shape,1,right,Green_Star_Dots_4.jpg,Blue_Plus_Dots_1.jpg,Purple_Star_Grid_2.jpg,right,653,true,high,NA,NA,NA,NA,NA,NA,NA,false
E1KbaZS5,3087lxlj7ptluqx9bvztb5ithyq0fq,333u7hk6idsxlwitxzjbuuqwh4vjd8,E1KbaZS5,2020-0188,2020-11-18,19:11:25,19:25:42,NA,incomplete,212,shape,1,right,Red_Circle_Grid_3.jpg,Blue_Triangle_Grid_4.jpg,Purple_Circle_Dots_2.jpg,right,589,true,high,NA,NA,NA,NA,NA,NA,NA,false
E1KbaZS5,3087lxlj7ptluqx9bvztb5ithyq0fq,333u7hk6idsxlwitxzjbuuqwh4vjd8,E1KbaZS5,2020-0188,2020-11-18,19:11:25,19:25:42,NA,incomplete,213,shape,0,left,Red_Plus_Chess_2.jpg,Blue_Plus_Dots_1.jpg,Purple_Circle_Chess_4.jpg,left,664,true,high,NA,NA,NA,NA,NA,NA,NA,false
E1KbaZS5,3087lxlj7ptluqx9bvztb5ithyq0fq,333u7hk6idsxlwitxzjbuuqwh4vjd8,E1KbaZS5,2020-0188,2020-11-18,19:11:25,19:25:42,NA,incomplete,214,shape,1,right,Purple_Star_Chess_2.jpg,Green_Plus_Chess_1.jpg,Red_Star_Stripes_4.jpg,right,560,true,high,NA,NA,NA,NA,NA,NA,NA,false
E1KbaZS5,3087lxlj7ptluqx9bvztb5ithyq0fq,333u7hk6idsxlwitxzjbuuqwh4vjd8,E1KbaZS5,2020-0188,2020-11-18,19:11:25,19:25:42,NA,incomplete,215,shape,0,right,Red_Star_Stripes_2.jpg,Blue_Plus_Stripes_3.jpg,Purple_Star_Chess_1.jpg,right,617,true,high,NA,NA,NA,NA,NA,NA,NA,false
E1KbaZS5,3087lxlj7ptluqx9bvztb5ithyq0fq,333u7hk6idsxlwitxzjbuuqwh4vjd8,E1KbaZS5,2020-0188,2020-11-18,19:11:25,19:25:42,NA,incomplete,216,shape,1,left,Blue_Plus_Stripes_2.jpg,Green_Plus_Grid_3.jpg,Red_Triangle_Stripes_4.jpg,left,786,true,high,NA,NA,NA,NA,NA,NA,NA,false
E1KbaZS5,3087lxlj7ptluqx9bvztb5ithyq0fq,333u7hk6idsxlwitxzjbuuqwh4vjd8,E1KbaZS5,2020-0188,2020-11-18,19:11:25,19:25:42,NA,incomplete,217,shape,1,left,Purple_Star_Dots_2.jpg,Red_Star_Stripes_4.jpg,Blue_Triangle_Dots_1.jpg,left,631,true,high,NA,NA,NA,NA,NA,NA,NA,false
E1KbaZS5,3087lxlj7ptluqx9bvztb5ithyq0fq,333u7hk6idsxlwitxzjbuuqwh4vjd8,E1KbaZS5,2020-0188,2020-11-18,19:11:25,19:25:42,NA,incomplete,218,shape,1,left,Green_Circle_Dots_3.jpg,Blue_Circle_Stripes_1.jpg,Purple_Plus_Dots_4.jpg,left,625,true,high,NA,NA,NA,NA,NA,NA,NA,false
E1KbaZS5,3087lxlj7ptluqx9bvztb5ithyq0fq,333u7hk6idsxlwitxzjbuuqwh4vjd8,E1KbaZS5,2020-0188,2020-11-18,19:11:25,19:25:42,NA,incomplete,219,shape,1,right,Green_Triangle_Stripes_1.jpg,Blue_Plus_Stripes_2.jpg,Purple_Triangle_Dots_3.jpg,right,659,true,high,NA,NA,NA,NA,NA,NA,NA,false
E1KbaZS5,3087lxlj7ptluqx9bvztb5ithyq0fq,333u7hk6idsxlwitxzjbuuqwh4vjd8,E1KbaZS5,2020-0188,2020-11-18,19:11:25,19:25:42,NA,incomplete,220,filling,1,right,Blue_Star_Stripes_2.jpg,Green_Star_Chess_3.jpg,Purple_Circle_Stripes_4.jpg,left,546,false,high,NA,NA,NA,NA,NA,NA,NA,false
E1KbaZS5,3087lxlj7ptluqx9bvztb5ithyq0fq,333u7hk6idsxlwitxzjbuuqwh4vjd8,E1KbaZS5,2020-0188,2020-11-18,19:11:25,19:25:42,NA,incomplete,221,filling,1,left,Purple_Circle_Dots_2.jpg,Red_Triangle_Dots_3.jpg,Blue_Circle_Stripes_1.jpg,right,590,false,high,NA,NA,NA,NA,NA,NA,NA,false
E1KbaZS5,3087lxlj7ptluqx9bvztb5ithyq0fq,333u7hk6idsxlwitxzjbuuqwh4vjd8,E1KbaZS5,2020-0188,2020-11-18,19:11:25,19:25:42,NA,incomplete,222,filling,1,left,Purple_Triangle_Stripes_1.jpg,Green_Star_Stripes_3.jpg,Blue_Triangle_Dots_2.jpg,left,695,true,high,NA,NA,NA,NA,NA,NA,NA,false
E1KbaZS5,3087lxlj7ptluqx9bvztb5ithyq0fq,333u7hk6idsxlwitxzjbuuqwh4vjd8,E1KbaZS5,2020-0188,2020-11-18,19:11:25,19:25:42,NA,incomplete,223,filling,0,left,Purple_Star_Stripes_1.jpg,Green_Circle_Stripes_4.jpg,Blue_Star_Dots_3.jpg,left,654,true,high,NA,NA,NA,NA,NA,NA,NA,false
E1KbaZS5,3087lxlj7ptluqx9bvztb5ithyq0fq,333u7hk6idsxlwitxzjbuuqwh4vjd8,E1KbaZS5,2020-0188,2020-11-18,19:11:25,19:25:42,NA,incomplete,224,filling,1,right,Red_Triangle_Grid_4.jpg,Purple_Triangle_Dots_3.jpg,Green_Star_Grid_1.jpg,right,630,true,high,NA,NA,NA,NA,NA,NA,NA,false
E1KbaZS5,3087lxlj7ptluqx9bvztb5ithyq0fq,333u7hk6idsxlwitxzjbuuqwh4vjd8,E1KbaZS5,2020-0188,2020-11-18,19:11:25,19:25:42,NA,incomplete,225,filling,1,right,Green_Triangle_Dots_4.jpg,Blue_Triangle_Chess_1.jpg,Red_Star_Dots_3.jpg,right,720,true,high,NA,NA,NA,NA,NA,NA,NA,false
E1KbaZS5,3087lxlj7ptluqx9bvztb5ithyq0fq,333u7hk6idsxlwitxzjbuuqwh4vjd8,E1KbaZS5,2020-0188,2020-11-18,19:11:25,19:25:42,NA,incomplete,226,filling,1,right,Green_Star_Stripes_2.jpg,Purple_Star_Chess_3.jpg,Red_Circle_Stripes_4.jpg,right,592,true,high,NA,NA,NA,NA,NA,NA,NA,false
E1KbaZS5,3087lxlj7ptluqx9bvztb5ithyq0fq,333u7hk6idsxlwitxzjbuuqwh4vjd8,E1KbaZS5,2020-0188,2020-11-18,19:11:25,19:25:42,NA,incomplete,227,filling,1,left,Purple_Plus_Chess_2.jpg,Green_Circle_Chess_4.jpg,Blue_Plus_Stripes_1.jpg,left,553,true,high,NA,NA,NA,NA,NA,NA,NA,false
E1KbaZS5,3087lxlj7ptluqx9bvztb5ithyq0fq,333u7hk6idsxlwitxzjbuuqwh4vjd8,E1KbaZS5,2020-0188,2020-11-18,19:11:25,19:25:42,NA,incomplete,228,filling,1,left,Purple_Circle_Grid_4.jpg,Green_Triangle_Grid_3.jpg,Red_Circle_Dots_2.jpg,left,736,true,high,NA,NA,NA,NA,NA,NA,NA,false
E1KbaZS5,3087lxlj7ptluqx9bvztb5ithyq0fq,333u7hk6idsxlwitxzjbuuqwh4vjd8,E1KbaZS5,2020-0188,2020-11-18,19:11:25,19:25:42,NA,incomplete,229,filling,0,right,Red_Triangle_Grid_3.jpg,Green_Triangle_Chess_2.jpg,Blue_Circle_Grid_1.jpg,right,593,true,high,NA,NA,NA,NA,NA,NA,NA,false
E1KbaZS5,3087lxlj7ptluqx9bvztb5ithyq0fq,333u7hk6idsxlwitxzjbuuqwh4vjd8,E1KbaZS5,2020-0188,2020-11-18,19:11:25,19:25:42,NA,incomplete,230,filling,1,right,Purple_Plus_Grid_2.jpg,Blue_Plus_Chess_4.jpg,Green_Star_Grid_3.jpg,right,861,true,high,NA,NA,NA,NA,NA,NA,NA,false
E1KbaZS5,3087lxlj7ptluqx9bvztb5ithyq0fq,333u7hk6idsxlwitxzjbuuqwh4vjd8,E1KbaZS5,2020-0188,2020-11-18,19:11:25,19:25:42,NA,incomplete,231,filling,1,left,Green_Circle_Dots_1.jpg,Blue_Plus_Dots_3.jpg,Red_Circle_Grid_2.jpg,left,575,true,high,NA,NA,NA,NA,NA,NA,NA,false
E1KbaZS5,3087lxlj7ptluqx9bvztb5ithyq0fq,333u7hk6idsxlwitxzjbuuqwh4vjd8,E1KbaZS5,2020-0188,2020-11-18,19:11:25,19:25:42,NA,incomplete,232,filling,1,right,Green_Star_Stripes_3.jpg,Red_Star_Chess_4.jpg,Blue_Triangle_Stripes_1.jpg,right,713,true,high,NA,NA,NA,NA,NA,NA,NA,false
E1KbaZS5,3087lxlj7ptluqx9bvztb5ithyq0fq,333u7hk6idsxlwitxzjbuuqwh4vjd8,E1KbaZS5,2020-0188,2020-11-18,19:11:25,19:25:42,NA,incomplete,233,filling,1,right,Red_Triangle_Chess_2.jpg,Purple_Triangle_Dots_1.jpg,Green_Circle_Chess_3.jpg,left,639,false,high,NA,NA,NA,NA,NA,NA,NA,false
E1KbaZS5,3087lxlj7ptluqx9bvztb5ithyq0fq,333u7hk6idsxlwitxzjbuuqwh4vjd8,E1KbaZS5,2020-0188,2020-11-18,19:11:25,19:25:42,NA,incomplete,234,filling,1,left,Blue_Circle_Dots_4.jpg,Purple_Star_Dots_2.jpg,Red_Circle_Grid_3.jpg,left,657,true,high,NA,NA,NA,NA,NA,NA,NA,false
E1KbaZS5,3087lxlj7ptluqx9bvztb5ithyq0fq,333u7hk6idsxlwitxzjbuuqwh4vjd8,E1KbaZS5,2020-0188,2020-11-18,19:11:25,19:25:42,NA,incomplete,235,filling,0,right,Blue_Triangle_Dots_2.jpg,Purple_Triangle_Grid_3.jpg,Red_Circle_Dots_4.jpg,right,602,true,high,NA,NA,NA,NA,NA,NA,NA,false
E1KbaZS5,3087lxlj7ptluqx9bvztb5ithyq0fq,333u7hk6idsxlwitxzjbuuqwh4vjd8,E1KbaZS5,2020-0188,2020-11-18,19:11:25,19:25:42,NA,incomplete,236,filling,1,left,Red_Plus_Chess_3.jpg,Green_Triangle_Chess_2.jpg,Purple_Plus_Stripes_4.jpg,right,739,false,high,NA,NA,NA,NA,NA,NA,NA,false
E1KbaZS5,3087lxlj7ptluqx9bvztb5ithyq0fq,333u7hk6idsxlwitxzjbuuqwh4vjd8,E1KbaZS5,2020-0188,2020-11-18,19:11:25,19:25:42,NA,incomplete,237,filling,0,right,Red_Plus_Stripes_3.jpg,Purple_Plus_Dots_4.jpg,Blue_Circle_Stripes_1.jpg,right,671,true,high,NA,NA,NA,NA,NA,NA,NA,false
E1KbaZS5,3087lxlj7ptluqx9bvztb5ithyq0fq,333u7hk6idsxlwitxzjbuuqwh4vjd8,E1KbaZS5,2020-0188,2020-11-18,19:11:25,19:25:42,NA,incomplete,238,filling,1,left,Blue_Star_Stripes_4.jpg,Red_Circle_Stripes_2.jpg,Purple_Star_Chess_3.jpg,right,561,false,high,NA,NA,NA,NA,NA,NA,NA,false
E1KbaZS5,3087lxlj7ptluqx9bvztb5ithyq0fq,333u7hk6idsxlwitxzjbuuqwh4vjd8,E1KbaZS5,2020-0188,2020-11-18,19:11:25,19:25:42,NA,incomplete,239,filling,1,left,Purple_Plus_Dots_2.jpg,Green_Circle_Dots_3.jpg,Red_Plus_Chess_1.jpg,right,739,false,high,NA,NA,NA,NA,NA,NA,NA,false
E1KbaZS5,3087lxlj7ptluqx9bvztb5ithyq0fq,333u7hk6idsxlwitxzjbuuqwh4vjd8,E1KbaZS5,2020-0188,2020-11-18,19:11:25,19:25:42,NA,NA,instruction example,color,NA,NA,Green_Circle_Chess_4.jpg,Green_Plus_Dots_1.jpg,Red_Triangle_Grid_4.jpg,NA,NA,NA,NA,NA,NA,NA,NA,NA,NA,NA,undefined
E1KbaZS5,3087lxlj7ptluqx9bvztb5ithyq0fq,333u7hk6idsxlwitxzjbuuqwh4vjd8,E1KbaZS5,2020-0188,2020-11-18,19:11:25,19:25:42,NA,NA,instruction example,color,NA,NA,Red_Star_Chess_4.jpg,Blue_Triangle_Dots_4.jpg,Red_Circle_Stripes_2.jpg,NA,NA,NA,NA,NA,NA,NA,NA,NA,NA,NA,undefined
E1KbaZS5,3087lxlj7ptluqx9bvztb5ithyq0fq,333u7hk6idsxlwitxzjbuuqwh4vjd8,E1KbaZS5,2020-0188,2020-11-18,19:11:25,19:25:42,NA,NA,instruction example,color,NA,NA,Purple_Triangle_Grid_1.jpg,Blue_Triangle_Stripes_2.jpg,Red_Circle_Grid_4.jpg,NA,NA,NA,NA,NA,NA,NA,NA,NA,NA,NA,undefined
E1KbaZS5,3087lxlj7ptluqx9bvztb5ithyq0fq,333u7hk6idsxlwitxzjbuuqwh4vjd8,E1KbaZS5,2020-0188,2020-11-18,19:11:25,19:25:42,NA,NA,instruction example,color,NA,NA,Green_Triangle_Stripes_1.jpg,Purple_Circle_Stripes_4.jpg,Blue_Triangle_Chess_3.jpg,NA,NA,NA,NA,NA,NA,NA,NA,NA,NA,NA,undefined
E1KbaZS5,3087lxlj7ptluqx9bvztb5ithyq0fq,333u7hk6idsxlwitxzjbuuqwh4vjd8,E1KbaZS5,2020-0188,2020-11-18,19:11:25,19:25:42,834364,857775,NA,NA,NA,NA,NA,NA,NA,NA,NA,NA,NA,38,White/Caucasian,Female,None,no,yes,no,undefined
