workerId,hitId,assignmentId,subject,studyid,exp_date,exp_start,exp_end,time_start,time_end,trial,type,reward_validity,answer,image_top,image_left,image_right,response,response_time,response_acc,volatility,practice
icuNshgs,3wa2xvdzfpuo2njsi9v42o7kc6t6eh,337rc3ow09fpa36fr5vigv9urzsvlb,icuNshgs,2020-0188,2020-06-15,18:57:53,19:17:50,NA,incomplete,0,color,0,right,Green_Triangle_Stripes_1.jpg,Blue_Circle_Stripes_4.jpg,Green_Star_Dots_3.jpg,right,1772.5649999920279,true,NA,true
icuNshgs,3wa2xvdzfpuo2njsi9v42o7kc6t6eh,337rc3ow09fpa36fr5vigv9urzsvlb,icuNshgs,2020-0188,2020-06-15,18:57:53,19:17:50,NA,incomplete,1,color,1,right,Green_Star_Chess_1.jpg,Purple_Circle_Chess_3.jpg,Green_Plus_Grid_4.jpg,right,966.2800000514835,true,NA,true
icuNshgs,3wa2xvdzfpuo2njsi9v42o7kc6t6eh,337rc3ow09fpa36fr5vigv9urzsvlb,icuNshgs,2020-0188,2020-06-15,18:57:53,19:17:50,NA,incomplete,2,color,1,right,Blue_Plus_Grid_1.jpg,Purple_Circle_Grid_3.jpg,Blue_Triangle_Chess_2.jpg,right,1040.6650002114475,true,NA,true
icuNshgs,3wa2xvdzfpuo2njsi9v42o7kc6t6eh,337rc3ow09fpa36fr5vigv9urzsvlb,icuNshgs,2020-0188,2020-06-15,18:57:53,19:17:50,NA,incomplete,3,color,1,left,Green_Star_Grid_2.jpg,Green_Triangle_Dots_4.jpg,Blue_Circle_Grid_1.jpg,left,1123.2650000602007,true,NA,true
icuNshgs,3wa2xvdzfpuo2njsi9v42o7kc6t6eh,337rc3ow09fpa36fr5vigv9urzsvlb,icuNshgs,2020-0188,2020-06-15,18:57:53,19:17:50,NA,incomplete,4,color,1,right,Green_Star_Grid_4.jpg,Red_Triangle_Grid_1.jpg,Green_Plus_Dots_3.jpg,right,1057.5800000224262,true,NA,true
icuNshgs,3wa2xvdzfpuo2njsi9v42o7kc6t6eh,337rc3ow09fpa36fr5vigv9urzsvlb,icuNshgs,2020-0188,2020-06-15,18:57:53,19:17:50,NA,incomplete,5,color,1,left,Red_Circle_Grid_2.jpg,Red_Star_Chess_4.jpg,Purple_Triangle_Grid_3.jpg,left,797.8400001302361,true,NA,true
icuNshgs,3wa2xvdzfpuo2njsi9v42o7kc6t6eh,337rc3ow09fpa36fr5vigv9urzsvlb,icuNshgs,2020-0188,2020-06-15,18:57:53,19:17:50,NA,incomplete,6,color,1,right,Purple_Triangle_Chess_1.jpg,Blue_Circle_Chess_4.jpg,Purple_Star_Grid_2.jpg,right,1102.6649998966604,true,NA,true
icuNshgs,3wa2xvdzfpuo2njsi9v42o7kc6t6eh,337rc3ow09fpa36fr5vigv9urzsvlb,icuNshgs,2020-0188,2020-06-15,18:57:53,19:17:50,NA,incomplete,7,color,0,left,Green_Star_Grid_1.jpg,Green_Triangle_Chess_2.jpg,Blue_Plus_Grid_4.jpg,left,955.3150001447648,true,NA,true
icuNshgs,3wa2xvdzfpuo2njsi9v42o7kc6t6eh,337rc3ow09fpa36fr5vigv9urzsvlb,icuNshgs,2020-0188,2020-06-15,18:57:53,19:17:50,NA,incomplete,8,color,0,left,Red_Plus_Grid_2.jpg,Red_Triangle_Stripes_4.jpg,Purple_Star_Grid_1.jpg,left,1223.2200000435114,true,NA,true
icuNshgs,3wa2xvdzfpuo2njsi9v42o7kc6t6eh,337rc3ow09fpa36fr5vigv9urzsvlb,icuNshgs,2020-0188,2020-06-15,18:57:53,19:17:50,NA,incomplete,9,color,1,left,Red_Triangle_Stripes_1.jpg,Red_Plus_Grid_3.jpg,Purple_Star_Stripes_4.jpg,left,921.935000224039,true,NA,true
icuNshgs,3wa2xvdzfpuo2njsi9v42o7kc6t6eh,337rc3ow09fpa36fr5vigv9urzsvlb,icuNshgs,2020-0188,2020-06-15,18:57:53,19:17:50,NA,incomplete,10,color,1,right,Red_Star_Stripes_4.jpg,Purple_Triangle_Stripes_1.jpg,Red_Circle_Grid_2.jpg,right,740.1999998837709,true,NA,true
icuNshgs,3wa2xvdzfpuo2njsi9v42o7kc6t6eh,337rc3ow09fpa36fr5vigv9urzsvlb,icuNshgs,2020-0188,2020-06-15,18:57:53,19:17:50,NA,incomplete,11,color,1,right,Purple_Plus_Grid_4.jpg,Green_Circle_Grid_1.jpg,Purple_Star_Dots_3.jpg,right,806.8250000942498,true,NA,true
icuNshgs,3wa2xvdzfpuo2njsi9v42o7kc6t6eh,337rc3ow09fpa36fr5vigv9urzsvlb,icuNshgs,2020-0188,2020-06-15,18:57:53,19:17:50,NA,incomplete,12,color,1,right,Blue_Triangle_Dots_2.jpg,Purple_Circle_Dots_3.jpg,Blue_Star_Chess_1.jpg,right,990.944999968633,true,NA,true
icuNshgs,3wa2xvdzfpuo2njsi9v42o7kc6t6eh,337rc3ow09fpa36fr5vigv9urzsvlb,icuNshgs,2020-0188,2020-06-15,18:57:53,19:17:50,NA,incomplete,13,color,1,left,Red_Circle_Grid_2.jpg,Red_Triangle_Dots_4.jpg,Blue_Star_Grid_1.jpg,left,809.3000000808388,true,NA,true
icuNshgs,3wa2xvdzfpuo2njsi9v42o7kc6t6eh,337rc3ow09fpa36fr5vigv9urzsvlb,icuNshgs,2020-0188,2020-06-15,18:57:53,19:17:50,NA,incomplete,14,color,1,right,Red_Star_Stripes_3.jpg,Purple_Circle_Stripes_4.jpg,Red_Plus_Chess_2.jpg,right,991.8250001501292,true,NA,true
icuNshgs,3wa2xvdzfpuo2njsi9v42o7kc6t6eh,337rc3ow09fpa36fr5vigv9urzsvlb,icuNshgs,2020-0188,2020-06-15,18:57:53,19:17:50,NA,incomplete,15,color,1,left,Blue_Triangle_Stripes_4.jpg,Blue_Plus_Dots_2.jpg,Purple_Star_Stripes_3.jpg,left,806.8750000093132,true,NA,true
icuNshgs,3wa2xvdzfpuo2njsi9v42o7kc6t6eh,337rc3ow09fpa36fr5vigv9urzsvlb,icuNshgs,2020-0188,2020-06-15,18:57:53,19:17:50,NA,incomplete,16,color,1,left,Green_Plus_Stripes_1.jpg,Green_Star_Chess_2.jpg,Purple_Triangle_Stripes_3.jpg,left,1278.7399999797344,true,NA,true
icuNshgs,3wa2xvdzfpuo2njsi9v42o7kc6t6eh,337rc3ow09fpa36fr5vigv9urzsvlb,icuNshgs,2020-0188,2020-06-15,18:57:53,19:17:50,NA,incomplete,17,color,1,left,Purple_Circle_Chess_4.jpg,Purple_Plus_Stripes_2.jpg,Red_Triangle_Chess_3.jpg,left,1261.4049999974668,true,NA,true
icuNshgs,3wa2xvdzfpuo2njsi9v42o7kc6t6eh,337rc3ow09fpa36fr5vigv9urzsvlb,icuNshgs,2020-0188,2020-06-15,18:57:53,19:17:50,NA,incomplete,18,color,1,right,Green_Plus_Stripes_4.jpg,Purple_Triangle_Stripes_1.jpg,Green_Star_Chess_2.jpg,right,863.5100000537932,true,NA,true
icuNshgs,3wa2xvdzfpuo2njsi9v42o7kc6t6eh,337rc3ow09fpa36fr5vigv9urzsvlb,icuNshgs,2020-0188,2020-06-15,18:57:53,19:17:50,NA,incomplete,19,color,1,left,Red_Star_Grid_4.jpg,Red_Circle_Chess_2.jpg,Purple_Plus_Grid_3.jpg,left,813.4850000496954,true,NA,true
icuNshgs,3wa2xvdzfpuo2njsi9v42o7kc6t6eh,337rc3ow09fpa36fr5vigv9urzsvlb,icuNshgs,2020-0188,2020-06-15,18:57:53,19:17:50,NA,incomplete,20,filling,1,left,Blue_Circle_Grid_1.jpg,Purple_Star_Grid_2.jpg,Blue_Plus_Dots_3.jpg,left,1955.8550000656396,true,NA,true
icuNshgs,3wa2xvdzfpuo2njsi9v42o7kc6t6eh,337rc3ow09fpa36fr5vigv9urzsvlb,icuNshgs,2020-0188,2020-06-15,18:57:53,19:17:50,NA,incomplete,21,filling,1,left,Purple_Triangle_Grid_2.jpg,Red_Star_Grid_4.jpg,Purple_Circle_Chess_1.jpg,left,1478.7999999243766,true,NA,true
icuNshgs,3wa2xvdzfpuo2njsi9v42o7kc6t6eh,337rc3ow09fpa36fr5vigv9urzsvlb,icuNshgs,2020-0188,2020-06-15,18:57:53,19:17:50,NA,incomplete,22,filling,0,right,Red_Triangle_Grid_1.jpg,Red_Circle_Chess_3.jpg,Blue_Plus_Grid_2.jpg,right,1344.465000089258,true,NA,true
icuNshgs,3wa2xvdzfpuo2njsi9v42o7kc6t6eh,337rc3ow09fpa36fr5vigv9urzsvlb,icuNshgs,2020-0188,2020-06-15,18:57:53,19:17:50,NA,incomplete,23,filling,1,right,Blue_Triangle_Stripes_3.jpg,Blue_Plus_Grid_2.jpg,Red_Circle_Stripes_4.jpg,right,1250.0099998433143,true,NA,true
icuNshgs,3wa2xvdzfpuo2njsi9v42o7kc6t6eh,337rc3ow09fpa36fr5vigv9urzsvlb,icuNshgs,2020-0188,2020-06-15,18:57:53,19:17:50,NA,incomplete,24,filling,1,left,Purple_Circle_Dots_4.jpg,Blue_Plus_Dots_1.jpg,Purple_Triangle_Stripes_2.jpg,left,1230.0599999725819,true,NA,true
icuNshgs,3wa2xvdzfpuo2njsi9v42o7kc6t6eh,337rc3ow09fpa36fr5vigv9urzsvlb,icuNshgs,2020-0188,2020-06-15,18:57:53,19:17:50,NA,incomplete,25,filling,1,left,Green_Circle_Chess_3.jpg,Red_Triangle_Chess_2.jpg,Green_Plus_Dots_1.jpg,left,904.2450000997633,true,NA,true
icuNshgs,3wa2xvdzfpuo2njsi9v42o7kc6t6eh,337rc3ow09fpa36fr5vigv9urzsvlb,icuNshgs,2020-0188,2020-06-15,18:57:53,19:17:50,NA,incomplete,26,filling,1,left,Blue_Triangle_Stripes_1.jpg,Red_Star_Stripes_3.jpg,Blue_Plus_Chess_2.jpg,left,1056.4299998804927,true,NA,true
icuNshgs,3wa2xvdzfpuo2njsi9v42o7kc6t6eh,337rc3ow09fpa36fr5vigv9urzsvlb,icuNshgs,2020-0188,2020-06-15,18:57:53,19:17:50,NA,incomplete,27,filling,1,right,Green_Triangle_Dots_4.jpg,Green_Plus_Stripes_3.jpg,Purple_Star_Dots_1.jpg,right,934.3250000383705,true,NA,true
icuNshgs,3wa2xvdzfpuo2njsi9v42o7kc6t6eh,337rc3ow09fpa36fr5vigv9urzsvlb,icuNshgs,2020-0188,2020-06-15,18:57:53,19:17:50,NA,incomplete,28,filling,1,left,Blue_Plus_Chess_1.jpg,Purple_Star_Chess_2.jpg,Blue_Triangle_Dots_3.jpg,left,1097.3449999000877,true,NA,true
icuNshgs,3wa2xvdzfpuo2njsi9v42o7kc6t6eh,337rc3ow09fpa36fr5vigv9urzsvlb,icuNshgs,2020-0188,2020-06-15,18:57:53,19:17:50,NA,incomplete,29,filling,0,left,Green_Circle_Chess_1.jpg,Red_Plus_Chess_2.jpg,Green_Triangle_Grid_3.jpg,left,1359.6250000409782,true,NA,true
icuNshgs,3wa2xvdzfpuo2njsi9v42o7kc6t6eh,337rc3ow09fpa36fr5vigv9urzsvlb,icuNshgs,2020-0188,2020-06-15,18:57:53,19:17:50,NA,incomplete,30,filling,1,right,Blue_Circle_Dots_4.jpg,Blue_Plus_Stripes_1.jpg,Red_Star_Dots_2.jpg,right,1213.719999883324,true,NA,true
icuNshgs,3wa2xvdzfpuo2njsi9v42o7kc6t6eh,337rc3ow09fpa36fr5vigv9urzsvlb,icuNshgs,2020-0188,2020-06-15,18:57:53,19:17:50,NA,incomplete,31,filling,0,right,Red_Triangle_Chess_2.jpg,Red_Circle_Grid_4.jpg,Green_Star_Chess_1.jpg,right,1284.8600000143051,true,NA,true
icuNshgs,3wa2xvdzfpuo2njsi9v42o7kc6t6eh,337rc3ow09fpa36fr5vigv9urzsvlb,icuNshgs,2020-0188,2020-06-15,18:57:53,19:17:50,NA,incomplete,32,filling,1,right,Red_Circle_Grid_4.jpg,Red_Star_Chess_2.jpg,Blue_Plus_Grid_1.jpg,right,1425.370000069961,true,NA,true
icuNshgs,3wa2xvdzfpuo2njsi9v42o7kc6t6eh,337rc3ow09fpa36fr5vigv9urzsvlb,icuNshgs,2020-0188,2020-06-15,18:57:53,19:17:50,NA,incomplete,33,filling,1,right,Green_Star_Dots_3.jpg,Green_Triangle_Stripes_4.jpg,Red_Circle_Dots_2.jpg,right,1186.445000115782,true,NA,true
icuNshgs,3wa2xvdzfpuo2njsi9v42o7kc6t6eh,337rc3ow09fpa36fr5vigv9urzsvlb,icuNshgs,2020-0188,2020-06-15,18:57:53,19:17:50,NA,incomplete,34,filling,1,left,Blue_Triangle_Dots_3.jpg,Green_Plus_Dots_4.jpg,Blue_Star_Chess_2.jpg,left,1743.9500000327826,true,NA,true
icuNshgs,3wa2xvdzfpuo2njsi9v42o7kc6t6eh,337rc3ow09fpa36fr5vigv9urzsvlb,icuNshgs,2020-0188,2020-06-15,18:57:53,19:17:50,NA,incomplete,35,filling,0,left,Purple_Triangle_Chess_3.jpg,Red_Star_Chess_2.jpg,Purple_Circle_Grid_4.jpg,left,1056.224999949336,true,NA,true
icuNshgs,3wa2xvdzfpuo2njsi9v42o7kc6t6eh,337rc3ow09fpa36fr5vigv9urzsvlb,icuNshgs,2020-0188,2020-06-15,18:57:53,19:17:50,NA,incomplete,36,filling,1,left,Purple_Star_Chess_1.jpg,Blue_Plus_Chess_2.jpg,Purple_Triangle_Stripes_3.jpg,left,1606.3449999783188,true,NA,true
icuNshgs,3wa2xvdzfpuo2njsi9v42o7kc6t6eh,337rc3ow09fpa36fr5vigv9urzsvlb,icuNshgs,2020-0188,2020-06-15,18:57:53,19:17:50,NA,incomplete,37,filling,0,right,Red_Circle_Chess_1.jpg,Red_Star_Stripes_3.jpg,Purple_Triangle_Chess_2.jpg,right,1309.9800001364201,true,NA,true
icuNshgs,3wa2xvdzfpuo2njsi9v42o7kc6t6eh,337rc3ow09fpa36fr5vigv9urzsvlb,icuNshgs,2020-0188,2020-06-15,18:57:53,19:17:50,NA,incomplete,38,filling,1,right,Red_Star_Chess_4.jpg,Red_Triangle_Dots_2.jpg,Blue_Circle_Chess_3.jpg,right,1190.2550000231713,true,NA,true
icuNshgs,3wa2xvdzfpuo2njsi9v42o7kc6t6eh,337rc3ow09fpa36fr5vigv9urzsvlb,icuNshgs,2020-0188,2020-06-15,18:57:53,19:17:50,NA,incomplete,39,filling,1,right,Red_Plus_Grid_4.jpg,Red_Triangle_Dots_2.jpg,Purple_Star_Grid_1.jpg,right,1278.2400001306087,true,NA,true
icuNshgs,3wa2xvdzfpuo2njsi9v42o7kc6t6eh,337rc3ow09fpa36fr5vigv9urzsvlb,icuNshgs,2020-0188,2020-06-15,18:57:53,19:17:50,NA,incomplete,0,color,1,right,Blue_Circle_Chess_4.jpg,Green_Triangle_Chess_2.jpg,Blue_Plus_Grid_1.jpg,left,960.060000186786,false,high,false
icuNshgs,3wa2xvdzfpuo2njsi9v42o7kc6t6eh,337rc3ow09fpa36fr5vigv9urzsvlb,icuNshgs,2020-0188,2020-06-15,18:57:53,19:17:50,NA,incomplete,1,color,1,right,Red_Circle_Dots_4.jpg,Blue_Star_Dots_3.jpg,Red_Plus_Chess_2.jpg,right,1577.1349999122322,true,high,false
icuNshgs,3wa2xvdzfpuo2njsi9v42o7kc6t6eh,337rc3ow09fpa36fr5vigv9urzsvlb,icuNshgs,2020-0188,2020-06-15,18:57:53,19:17:50,NA,incomplete,2,color,1,right,Blue_Triangle_Grid_1.jpg,Purple_Circle_Grid_4.jpg,Blue_Plus_Dots_2.jpg,right,897.0149999950081,true,high,false
icuNshgs,3wa2xvdzfpuo2njsi9v42o7kc6t6eh,337rc3ow09fpa36fr5vigv9urzsvlb,icuNshgs,2020-0188,2020-06-15,18:57:53,19:17:50,NA,incomplete,3,color,1,right,Purple_Star_Grid_4.jpg,Red_Triangle_Grid_3.jpg,Purple_Circle_Stripes_2.jpg,right,1037.0899999979883,true,high,false
icuNshgs,3wa2xvdzfpuo2njsi9v42o7kc6t6eh,337rc3ow09fpa36fr5vigv9urzsvlb,icuNshgs,2020-0188,2020-06-15,18:57:53,19:17:50,NA,incomplete,4,color,1,left,Green_Plus_Chess_2.jpg,Green_Triangle_Grid_1.jpg,Blue_Star_Chess_3.jpg,left,1025.249999947846,true,high,false
icuNshgs,3wa2xvdzfpuo2njsi9v42o7kc6t6eh,337rc3ow09fpa36fr5vigv9urzsvlb,icuNshgs,2020-0188,2020-06-15,18:57:53,19:17:50,NA,incomplete,5,color,1,right,Purple_Plus_Dots_1.jpg,Blue_Star_Dots_2.jpg,Purple_Triangle_Stripes_3.jpg,right,1057.509999955073,true,high,false
icuNshgs,3wa2xvdzfpuo2njsi9v42o7kc6t6eh,337rc3ow09fpa36fr5vigv9urzsvlb,icuNshgs,2020-0188,2020-06-15,18:57:53,19:17:50,NA,incomplete,6,color,1,right,Red_Plus_Chess_4.jpg,Green_Triangle_Chess_3.jpg,Red_Star_Stripes_2.jpg,right,807.0700000971556,true,high,false
icuNshgs,3wa2xvdzfpuo2njsi9v42o7kc6t6eh,337rc3ow09fpa36fr5vigv9urzsvlb,icuNshgs,2020-0188,2020-06-15,18:57:53,19:17:50,NA,incomplete,7,color,1,right,Purple_Plus_Grid_3.jpg,Green_Triangle_Grid_1.jpg,Purple_Star_Chess_4.jpg,right,670.6900000572205,true,high,false
icuNshgs,3wa2xvdzfpuo2njsi9v42o7kc6t6eh,337rc3ow09fpa36fr5vigv9urzsvlb,icuNshgs,2020-0188,2020-06-15,18:57:53,19:17:50,NA,incomplete,8,color,1,left,Red_Star_Grid_4.jpg,Red_Triangle_Chess_3.jpg,Blue_Circle_Grid_1.jpg,left,675.8550000376999,true,high,false
icuNshgs,3wa2xvdzfpuo2njsi9v42o7kc6t6eh,337rc3ow09fpa36fr5vigv9urzsvlb,icuNshgs,2020-0188,2020-06-15,18:57:53,19:17:50,NA,incomplete,9,color,1,right,Blue_Star_Dots_3.jpg,Green_Plus_Dots_1.jpg,Blue_Triangle_Grid_4.jpg,right,868.5449999757111,true,high,false
icuNshgs,3wa2xvdzfpuo2njsi9v42o7kc6t6eh,337rc3ow09fpa36fr5vigv9urzsvlb,icuNshgs,2020-0188,2020-06-15,18:57:53,19:17:50,NA,incomplete,10,filling,1,left,Red_Star_Chess_1.jpg,Purple_Triangle_Chess_4.jpg,Red_Plus_Grid_3.jpg,right,910.8450000640005,false,high,false
icuNshgs,3wa2xvdzfpuo2njsi9v42o7kc6t6eh,337rc3ow09fpa36fr5vigv9urzsvlb,icuNshgs,2020-0188,2020-06-15,18:57:53,19:17:50,NA,incomplete,11,filling,1,left,Blue_Star_Chess_1.jpg,Purple_Triangle_Chess_2.jpg,Blue_Plus_Grid_4.jpg,right,714.5350000355393,false,high,false
icuNshgs,3wa2xvdzfpuo2njsi9v42o7kc6t6eh,337rc3ow09fpa36fr5vigv9urzsvlb,icuNshgs,2020-0188,2020-06-15,18:57:53,19:17:50,NA,incomplete,12,filling,1,right,Red_Star_Dots_3.jpg,Red_Plus_Chess_4.jpg,Green_Circle_Dots_2.jpg,left,678.7849999964237,false,high,false
icuNshgs,3wa2xvdzfpuo2njsi9v42o7kc6t6eh,337rc3ow09fpa36fr5vigv9urzsvlb,icuNshgs,2020-0188,2020-06-15,18:57:53,19:17:50,NA,incomplete,13,filling,1,left,Green_Circle_Stripes_4.jpg,Purple_Plus_Stripes_3.jpg,Green_Star_Grid_2.jpg,right,652.2399999666959,false,high,false
icuNshgs,3wa2xvdzfpuo2njsi9v42o7kc6t6eh,337rc3ow09fpa36fr5vigv9urzsvlb,icuNshgs,2020-0188,2020-06-15,18:57:53,19:17:50,NA,incomplete,14,filling,0,right,Green_Star_Chess_4.jpg,Green_Triangle_Grid_3.jpg,Blue_Plus_Chess_2.jpg,right,956.8199999630451,true,high,false
icuNshgs,3wa2xvdzfpuo2njsi9v42o7kc6t6eh,337rc3ow09fpa36fr5vigv9urzsvlb,icuNshgs,2020-0188,2020-06-15,18:57:53,19:17:50,NA,incomplete,15,filling,1,left,Blue_Star_Chess_2.jpg,Red_Circle_Chess_1.jpg,Blue_Triangle_Stripes_4.jpg,left,1411.420000018552,true,high,false
icuNshgs,3wa2xvdzfpuo2njsi9v42o7kc6t6eh,337rc3ow09fpa36fr5vigv9urzsvlb,icuNshgs,2020-0188,2020-06-15,18:57:53,19:17:50,NA,incomplete,16,filling,1,right,Green_Circle_Chess_1.jpg,Green_Triangle_Grid_3.jpg,Purple_Star_Chess_2.jpg,right,993.7949997838587,true,high,false
icuNshgs,3wa2xvdzfpuo2njsi9v42o7kc6t6eh,337rc3ow09fpa36fr5vigv9urzsvlb,icuNshgs,2020-0188,2020-06-15,18:57:53,19:17:50,NA,incomplete,17,filling,0,right,Green_Plus_Stripes_4.jpg,Green_Circle_Grid_2.jpg,Blue_Triangle_Stripes_3.jpg,right,1482.5999999884516,true,high,false
icuNshgs,3wa2xvdzfpuo2njsi9v42o7kc6t6eh,337rc3ow09fpa36fr5vigv9urzsvlb,icuNshgs,2020-0188,2020-06-15,18:57:53,19:17:50,NA,incomplete,18,filling,1,left,Red_Triangle_Dots_4.jpg,Blue_Star_Dots_3.jpg,Red_Circle_Chess_2.jpg,left,1064.57499996759,true,high,false
icuNshgs,3wa2xvdzfpuo2njsi9v42o7kc6t6eh,337rc3ow09fpa36fr5vigv9urzsvlb,icuNshgs,2020-0188,2020-06-15,18:57:53,19:17:50,NA,incomplete,19,filling,0,right,Blue_Circle_Chess_2.jpg,Blue_Star_Stripes_4.jpg,Green_Triangle_Chess_1.jpg,right,1067.259999923408,true,high,false
icuNshgs,3wa2xvdzfpuo2njsi9v42o7kc6t6eh,337rc3ow09fpa36fr5vigv9urzsvlb,icuNshgs,2020-0188,2020-06-15,18:57:53,19:17:50,NA,incomplete,20,color,1,right,Green_Star_Grid_3.jpg,Blue_Triangle_Grid_2.jpg,Green_Circle_Chess_1.jpg,left,1224.3299998808652,false,high,false
icuNshgs,3wa2xvdzfpuo2njsi9v42o7kc6t6eh,337rc3ow09fpa36fr5vigv9urzsvlb,icuNshgs,2020-0188,2020-06-15,18:57:53,19:17:50,NA,incomplete,21,color,1,right,Green_Circle_Grid_4.jpg,Red_Star_Grid_2.jpg,Green_Plus_Dots_1.jpg,left,1255.7500000111759,false,high,false
icuNshgs,3wa2xvdzfpuo2njsi9v42o7kc6t6eh,337rc3ow09fpa36fr5vigv9urzsvlb,icuNshgs,2020-0188,2020-06-15,18:57:53,19:17:50,NA,incomplete,22,color,1,left,Green_Circle_Chess_3.jpg,Green_Triangle_Stripes_1.jpg,Red_Star_Chess_4.jpg,right,1246.1349999066442,false,high,false
icuNshgs,3wa2xvdzfpuo2njsi9v42o7kc6t6eh,337rc3ow09fpa36fr5vigv9urzsvlb,icuNshgs,2020-0188,2020-06-15,18:57:53,19:17:50,NA,incomplete,23,color,1,left,Purple_Plus_Stripes_4.jpg,Purple_Triangle_Dots_3.jpg,Blue_Star_Stripes_2.jpg,left,618.4799999464303,true,high,false
icuNshgs,3wa2xvdzfpuo2njsi9v42o7kc6t6eh,337rc3ow09fpa36fr5vigv9urzsvlb,icuNshgs,2020-0188,2020-06-15,18:57:53,19:17:50,NA,incomplete,24,color,1,right,Blue_Circle_Dots_4.jpg,Red_Triangle_Dots_3.jpg,Blue_Plus_Chess_2.jpg,right,712.8550000488758,true,high,false
icuNshgs,3wa2xvdzfpuo2njsi9v42o7kc6t6eh,337rc3ow09fpa36fr5vigv9urzsvlb,icuNshgs,2020-0188,2020-06-15,18:57:53,19:17:50,NA,incomplete,25,color,1,left,Blue_Triangle_Chess_2.jpg,Blue_Star_Grid_3.jpg,Green_Circle_Chess_1.jpg,left,749.2800001055002,true,high,false
icuNshgs,3wa2xvdzfpuo2njsi9v42o7kc6t6eh,337rc3ow09fpa36fr5vigv9urzsvlb,icuNshgs,2020-0188,2020-06-15,18:57:53,19:17:50,NA,incomplete,26,color,1,right,Purple_Circle_Chess_2.jpg,Red_Plus_Chess_1.jpg,Purple_Triangle_Stripes_3.jpg,right,591.8349998537451,true,high,false
icuNshgs,3wa2xvdzfpuo2njsi9v42o7kc6t6eh,337rc3ow09fpa36fr5vigv9urzsvlb,icuNshgs,2020-0188,2020-06-15,18:57:53,19:17:50,NA,incomplete,27,color,1,left,Purple_Plus_Chess_4.jpg,Purple_Star_Dots_1.jpg,Green_Circle_Chess_2.jpg,left,707.399999955669,true,high,false
icuNshgs,3wa2xvdzfpuo2njsi9v42o7kc6t6eh,337rc3ow09fpa36fr5vigv9urzsvlb,icuNshgs,2020-0188,2020-06-15,18:57:53,19:17:50,NA,incomplete,28,color,1,right,Red_Plus_Dots_2.jpg,Blue_Triangle_Dots_1.jpg,Red_Circle_Chess_3.jpg,right,772.5199998822063,true,high,false
icuNshgs,3wa2xvdzfpuo2njsi9v42o7kc6t6eh,337rc3ow09fpa36fr5vigv9urzsvlb,icuNshgs,2020-0188,2020-06-15,18:57:53,19:17:50,NA,incomplete,29,color,1,right,Blue_Circle_Stripes_4.jpg,Green_Plus_Stripes_1.jpg,Blue_Triangle_Chess_2.jpg,right,829.4850001111627,true,high,false
icuNshgs,3wa2xvdzfpuo2njsi9v42o7kc6t6eh,337rc3ow09fpa36fr5vigv9urzsvlb,icuNshgs,2020-0188,2020-06-15,18:57:53,19:17:50,NA,incomplete,30,filling,0,right,Red_Triangle_Chess_1.jpg,Red_Circle_Stripes_3.jpg,Blue_Plus_Chess_2.jpg,left,812.279999954626,false,high,false
icuNshgs,3wa2xvdzfpuo2njsi9v42o7kc6t6eh,337rc3ow09fpa36fr5vigv9urzsvlb,icuNshgs,2020-0188,2020-06-15,18:57:53,19:17:50,NA,incomplete,31,filling,1,left,Red_Plus_Stripes_2.jpg,Purple_Star_Stripes_1.jpg,Red_Circle_Dots_3.jpg,right,580.5499998386949,false,high,false
icuNshgs,3wa2xvdzfpuo2njsi9v42o7kc6t6eh,337rc3ow09fpa36fr5vigv9urzsvlb,icuNshgs,2020-0188,2020-06-15,18:57:53,19:17:50,NA,incomplete,32,filling,1,right,Red_Star_Grid_3.jpg,Red_Circle_Stripes_1.jpg,Green_Plus_Grid_2.jpg,left,720.9749999456108,false,high,false
icuNshgs,3wa2xvdzfpuo2njsi9v42o7kc6t6eh,337rc3ow09fpa36fr5vigv9urzsvlb,icuNshgs,2020-0188,2020-06-15,18:57:53,19:17:50,NA,incomplete,33,filling,1,left,Blue_Star_Stripes_4.jpg,Green_Plus_Stripes_1.jpg,Blue_Triangle_Dots_3.jpg,left,1024.9699999112636,true,high,false
icuNshgs,3wa2xvdzfpuo2njsi9v42o7kc6t6eh,337rc3ow09fpa36fr5vigv9urzsvlb,icuNshgs,2020-0188,2020-06-15,18:57:53,19:17:50,NA,incomplete,34,filling,1,left,Green_Star_Chess_1.jpg,Purple_Circle_Chess_4.jpg,Green_Plus_Stripes_2.jpg,left,895.920000039041,true,high,false
icuNshgs,3wa2xvdzfpuo2njsi9v42o7kc6t6eh,337rc3ow09fpa36fr5vigv9urzsvlb,icuNshgs,2020-0188,2020-06-15,18:57:53,19:17:50,NA,incomplete,35,filling,1,right,Purple_Star_Chess_1.jpg,Purple_Triangle_Grid_2.jpg,Red_Circle_Chess_3.jpg,right,1099.7150000184774,true,high,false
icuNshgs,3wa2xvdzfpuo2njsi9v42o7kc6t6eh,337rc3ow09fpa36fr5vigv9urzsvlb,icuNshgs,2020-0188,2020-06-15,18:57:53,19:17:50,NA,incomplete,36,filling,0,left,Red_Circle_Dots_4.jpg,Green_Triangle_Dots_2.jpg,Red_Star_Stripes_3.jpg,left,1130.6750001385808,true,high,false
icuNshgs,3wa2xvdzfpuo2njsi9v42o7kc6t6eh,337rc3ow09fpa36fr5vigv9urzsvlb,icuNshgs,2020-0188,2020-06-15,18:57:53,19:17:50,NA,incomplete,37,filling,1,right,Green_Circle_Chess_4.jpg,Green_Triangle_Dots_1.jpg,Purple_Plus_Chess_2.jpg,right,874.3399998638779,true,high,false
icuNshgs,3wa2xvdzfpuo2njsi9v42o7kc6t6eh,337rc3ow09fpa36fr5vigv9urzsvlb,icuNshgs,2020-0188,2020-06-15,18:57:53,19:17:50,NA,incomplete,38,filling,0,left,Red_Circle_Grid_1.jpg,Purple_Triangle_Grid_2.jpg,Red_Plus_Stripes_3.jpg,left,1023.1449999846518,true,high,false
icuNshgs,3wa2xvdzfpuo2njsi9v42o7kc6t6eh,337rc3ow09fpa36fr5vigv9urzsvlb,icuNshgs,2020-0188,2020-06-15,18:57:53,19:17:50,NA,incomplete,39,filling,1,left,Purple_Star_Stripes_1.jpg,Blue_Triangle_Stripes_3.jpg,Purple_Plus_Dots_4.jpg,left,1317.9900001268834,true,high,false
icuNshgs,3wa2xvdzfpuo2njsi9v42o7kc6t6eh,337rc3ow09fpa36fr5vigv9urzsvlb,icuNshgs,2020-0188,2020-06-15,18:57:53,19:17:50,NA,incomplete,40,color,1,right,Purple_Circle_Dots_4.jpg,Red_Star_Dots_1.jpg,Purple_Plus_Chess_2.jpg,left,1195.3799999319017,false,high,false
icuNshgs,3wa2xvdzfpuo2njsi9v42o7kc6t6eh,337rc3ow09fpa36fr5vigv9urzsvlb,icuNshgs,2020-0188,2020-06-15,18:57:53,19:17:50,NA,incomplete,41,color,1,left,Blue_Triangle_Dots_1.jpg,Blue_Circle_Chess_3.jpg,Purple_Star_Dots_2.jpg,right,1416.2399999331683,false,high,false
icuNshgs,3wa2xvdzfpuo2njsi9v42o7kc6t6eh,337rc3ow09fpa36fr5vigv9urzsvlb,icuNshgs,2020-0188,2020-06-15,18:57:53,19:17:50,NA,incomplete,42,color,1,left,Green_Plus_Stripes_3.jpg,Green_Triangle_Grid_2.jpg,Purple_Circle_Stripes_1.jpg,left,805.9549999888986,true,high,false
icuNshgs,3wa2xvdzfpuo2njsi9v42o7kc6t6eh,337rc3ow09fpa36fr5vigv9urzsvlb,icuNshgs,2020-0188,2020-06-15,18:57:53,19:17:50,NA,incomplete,43,color,1,right,Green_Triangle_Dots_4.jpg,Red_Plus_Dots_3.jpg,Green_Star_Chess_1.jpg,right,1127.390000037849,true,high,false
icuNshgs,3wa2xvdzfpuo2njsi9v42o7kc6t6eh,337rc3ow09fpa36fr5vigv9urzsvlb,icuNshgs,2020-0188,2020-06-15,18:57:53,19:17:50,NA,incomplete,44,color,1,left,Purple_Circle_Grid_2.jpg,Purple_Triangle_Chess_4.jpg,Blue_Plus_Grid_1.jpg,left,899.7299999464303,true,high,false
icuNshgs,3wa2xvdzfpuo2njsi9v42o7kc6t6eh,337rc3ow09fpa36fr5vigv9urzsvlb,icuNshgs,2020-0188,2020-06-15,18:57:53,19:17:50,NA,incomplete,45,color,1,right,Red_Circle_Chess_4.jpg,Purple_Triangle_Chess_3.jpg,Red_Star_Grid_2.jpg,right,845.4749998636544,true,high,false
icuNshgs,3wa2xvdzfpuo2njsi9v42o7kc6t6eh,337rc3ow09fpa36fr5vigv9urzsvlb,icuNshgs,2020-0188,2020-06-15,18:57:53,19:17:50,NA,incomplete,46,color,0,left,Green_Star_Grid_4.jpg,Green_Plus_Dots_1.jpg,Red_Triangle_Grid_3.jpg,left,803.9500000886619,true,high,false
icuNshgs,3wa2xvdzfpuo2njsi9v42o7kc6t6eh,337rc3ow09fpa36fr5vigv9urzsvlb,icuNshgs,2020-0188,2020-06-15,18:57:53,19:17:50,NA,incomplete,47,color,1,right,Blue_Triangle_Dots_3.jpg,Green_Plus_Dots_4.jpg,Blue_Circle_Chess_1.jpg,right,995.3050001058728,true,high,false
icuNshgs,3wa2xvdzfpuo2njsi9v42o7kc6t6eh,337rc3ow09fpa36fr5vigv9urzsvlb,icuNshgs,2020-0188,2020-06-15,18:57:53,19:17:50,NA,incomplete,48,color,1,left,Blue_Circle_Chess_1.jpg,Blue_Triangle_Dots_3.jpg,Red_Plus_Chess_4.jpg,left,779.6500001568347,true,high,false
icuNshgs,3wa2xvdzfpuo2njsi9v42o7kc6t6eh,337rc3ow09fpa36fr5vigv9urzsvlb,icuNshgs,2020-0188,2020-06-15,18:57:53,19:17:50,NA,incomplete,49,color,0,left,Blue_Plus_Grid_1.jpg,Blue_Star_Dots_4.jpg,Red_Circle_Grid_3.jpg,left,646.6250000521541,true,high,false
icuNshgs,3wa2xvdzfpuo2njsi9v42o7kc6t6eh,337rc3ow09fpa36fr5vigv9urzsvlb,icuNshgs,2020-0188,2020-06-15,18:57:53,19:17:50,NA,incomplete,50,filling,1,left,Purple_Plus_Grid_4.jpg,Green_Triangle_Grid_3.jpg,Purple_Star_Chess_2.jpg,right,811.6349999327213,false,high,false
icuNshgs,3wa2xvdzfpuo2njsi9v42o7kc6t6eh,337rc3ow09fpa36fr5vigv9urzsvlb,icuNshgs,2020-0188,2020-06-15,18:57:53,19:17:50,NA,incomplete,51,filling,1,right,Green_Circle_Chess_3.jpg,Green_Star_Stripes_2.jpg,Red_Plus_Chess_4.jpg,right,963.2950001396239,true,high,false
icuNshgs,3wa2xvdzfpuo2njsi9v42o7kc6t6eh,337rc3ow09fpa36fr5vigv9urzsvlb,icuNshgs,2020-0188,2020-06-15,18:57:53,19:17:50,NA,incomplete,52,filling,1,right,Green_Triangle_Dots_1.jpg,Green_Plus_Chess_4.jpg,Blue_Circle_Dots_2.jpg,right,1036.314999917522,true,high,false
icuNshgs,3wa2xvdzfpuo2njsi9v42o7kc6t6eh,337rc3ow09fpa36fr5vigv9urzsvlb,icuNshgs,2020-0188,2020-06-15,18:57:53,19:17:50,NA,incomplete,53,filling,1,right,Purple_Star_Stripes_3.jpg,Purple_Plus_Dots_1.jpg,Blue_Triangle_Stripes_4.jpg,right,1019.3999998737127,true,high,false
icuNshgs,3wa2xvdzfpuo2njsi9v42o7kc6t6eh,337rc3ow09fpa36fr5vigv9urzsvlb,icuNshgs,2020-0188,2020-06-15,18:57:53,19:17:50,NA,incomplete,54,filling,1,left,Blue_Triangle_Grid_1.jpg,Red_Star_Grid_3.jpg,Blue_Plus_Dots_2.jpg,left,1140.550000127405,true,high,false
icuNshgs,3wa2xvdzfpuo2njsi9v42o7kc6t6eh,337rc3ow09fpa36fr5vigv9urzsvlb,icuNshgs,2020-0188,2020-06-15,18:57:53,19:17:50,NA,incomplete,55,filling,0,right,Purple_Plus_Chess_4.jpg,Purple_Circle_Dots_2.jpg,Red_Star_Chess_3.jpg,right,923.1199999339879,true,high,false
icuNshgs,3wa2xvdzfpuo2njsi9v42o7kc6t6eh,337rc3ow09fpa36fr5vigv9urzsvlb,icuNshgs,2020-0188,2020-06-15,18:57:53,19:17:50,NA,incomplete,56,filling,1,right,Blue_Plus_Grid_3.jpg,Blue_Triangle_Stripes_4.jpg,Green_Circle_Grid_2.jpg,right,967.3850000835955,true,high,false
icuNshgs,3wa2xvdzfpuo2njsi9v42o7kc6t6eh,337rc3ow09fpa36fr5vigv9urzsvlb,icuNshgs,2020-0188,2020-06-15,18:57:53,19:17:50,NA,incomplete,57,filling,1,right,Red_Plus_Dots_1.jpg,Red_Triangle_Stripes_2.jpg,Green_Circle_Dots_3.jpg,right,1072.270000120625,true,high,false
icuNshgs,3wa2xvdzfpuo2njsi9v42o7kc6t6eh,337rc3ow09fpa36fr5vigv9urzsvlb,icuNshgs,2020-0188,2020-06-15,18:57:53,19:17:50,NA,incomplete,58,filling,1,right,Green_Plus_Dots_3.jpg,Green_Circle_Chess_2.jpg,Blue_Star_Dots_1.jpg,right,1088.0899999756366,true,high,false
icuNshgs,3wa2xvdzfpuo2njsi9v42o7kc6t6eh,337rc3ow09fpa36fr5vigv9urzsvlb,icuNshgs,2020-0188,2020-06-15,18:57:53,19:17:50,NA,incomplete,59,filling,1,left,Blue_Plus_Dots_2.jpg,Red_Triangle_Dots_3.jpg,Blue_Circle_Stripes_1.jpg,left,1024.459999985993,true,high,false
icuNshgs,3wa2xvdzfpuo2njsi9v42o7kc6t6eh,337rc3ow09fpa36fr5vigv9urzsvlb,icuNshgs,2020-0188,2020-06-15,18:57:53,19:17:50,NA,incomplete,60,color,1,right,Red_Star_Grid_4.jpg,Blue_Circle_Grid_1.jpg,Red_Plus_Chess_3.jpg,left,1087.6249999273568,false,high,false
icuNshgs,3wa2xvdzfpuo2njsi9v42o7kc6t6eh,337rc3ow09fpa36fr5vigv9urzsvlb,icuNshgs,2020-0188,2020-06-15,18:57:53,19:17:50,NA,incomplete,61,color,1,right,Green_Star_Chess_1.jpg,Purple_Circle_Chess_2.jpg,Green_Plus_Dots_4.jpg,left,1027.6399999856949,false,high,false
icuNshgs,3wa2xvdzfpuo2njsi9v42o7kc6t6eh,337rc3ow09fpa36fr5vigv9urzsvlb,icuNshgs,2020-0188,2020-06-15,18:57:53,19:17:50,NA,incomplete,62,color,1,right,Red_Plus_Chess_3.jpg,Blue_Star_Chess_2.jpg,Red_Circle_Stripes_4.jpg,right,585.7349999714643,true,high,false
icuNshgs,3wa2xvdzfpuo2njsi9v42o7kc6t6eh,337rc3ow09fpa36fr5vigv9urzsvlb,icuNshgs,2020-0188,2020-06-15,18:57:53,19:17:50,NA,incomplete,63,color,1,right,Green_Triangle_Dots_3.jpg,Red_Plus_Dots_4.jpg,Green_Circle_Chess_2.jpg,right,764.8399998433888,true,high,false
icuNshgs,3wa2xvdzfpuo2njsi9v42o7kc6t6eh,337rc3ow09fpa36fr5vigv9urzsvlb,icuNshgs,2020-0188,2020-06-15,18:57:53,19:17:50,NA,incomplete,64,color,1,left,Blue_Star_Chess_3.jpg,Blue_Circle_Dots_4.jpg,Red_Triangle_Chess_2.jpg,left,716.2900001276284,true,high,false
icuNshgs,3wa2xvdzfpuo2njsi9v42o7kc6t6eh,337rc3ow09fpa36fr5vigv9urzsvlb,icuNshgs,2020-0188,2020-06-15,18:57:53,19:17:50,NA,incomplete,65,color,1,left,Red_Star_Grid_3.jpg,Red_Plus_Chess_4.jpg,Purple_Circle_Grid_2.jpg,left,752.7000000700355,true,high,false
icuNshgs,3wa2xvdzfpuo2njsi9v42o7kc6t6eh,337rc3ow09fpa36fr5vigv9urzsvlb,icuNshgs,2020-0188,2020-06-15,18:57:53,19:17:50,NA,incomplete,66,color,1,left,Green_Triangle_Grid_1.jpg,Green_Plus_Stripes_4.jpg,Purple_Circle_Grid_2.jpg,left,634.7100001294166,true,high,false
icuNshgs,3wa2xvdzfpuo2njsi9v42o7kc6t6eh,337rc3ow09fpa36fr5vigv9urzsvlb,icuNshgs,2020-0188,2020-06-15,18:57:53,19:17:50,NA,incomplete,67,color,0,right,Red_Circle_Stripes_2.jpg,Blue_Star_Stripes_4.jpg,Red_Triangle_Grid_3.jpg,right,785.8849999029189,true,high,false
icuNshgs,3wa2xvdzfpuo2njsi9v42o7kc6t6eh,337rc3ow09fpa36fr5vigv9urzsvlb,icuNshgs,2020-0188,2020-06-15,18:57:53,19:17:50,NA,incomplete,68,color,1,right,Red_Plus_Grid_3.jpg,Purple_Star_Grid_4.jpg,Red_Circle_Dots_2.jpg,right,517.035000026226,true,high,false
icuNshgs,3wa2xvdzfpuo2njsi9v42o7kc6t6eh,337rc3ow09fpa36fr5vigv9urzsvlb,icuNshgs,2020-0188,2020-06-15,18:57:53,19:17:50,NA,incomplete,69,color,1,right,Red_Plus_Chess_2.jpg,Blue_Triangle_Chess_3.jpg,Red_Star_Dots_4.jpg,right,614.1849998384714,true,high,false
icuNshgs,3wa2xvdzfpuo2njsi9v42o7kc6t6eh,337rc3ow09fpa36fr5vigv9urzsvlb,icuNshgs,2020-0188,2020-06-15,18:57:53,19:17:50,NA,incomplete,70,filling,1,left,Purple_Triangle_Dots_1.jpg,Blue_Star_Dots_2.jpg,Purple_Circle_Stripes_3.jpg,right,750.1999998930842,false,high,false
icuNshgs,3wa2xvdzfpuo2njsi9v42o7kc6t6eh,337rc3ow09fpa36fr5vigv9urzsvlb,icuNshgs,2020-0188,2020-06-15,18:57:53,19:17:50,NA,incomplete,71,filling,1,right,Purple_Star_Stripes_4.jpg,Purple_Triangle_Chess_1.jpg,Green_Plus_Stripes_2.jpg,left,753.3249999396503,false,high,false
icuNshgs,3wa2xvdzfpuo2njsi9v42o7kc6t6eh,337rc3ow09fpa36fr5vigv9urzsvlb,icuNshgs,2020-0188,2020-06-15,18:57:53,19:17:50,NA,incomplete,72,filling,0,right,Blue_Circle_Dots_4.jpg,Blue_Star_Stripes_3.jpg,Green_Triangle_Dots_2.jpg,right,954.094999935478,true,high,false
icuNshgs,3wa2xvdzfpuo2njsi9v42o7kc6t6eh,337rc3ow09fpa36fr5vigv9urzsvlb,icuNshgs,2020-0188,2020-06-15,18:57:53,19:17:50,NA,incomplete,73,filling,1,left,Red_Triangle_Grid_4.jpg,Purple_Plus_Grid_2.jpg,Red_Star_Dots_1.jpg,left,1672.5500000175089,true,high,false
icuNshgs,3wa2xvdzfpuo2njsi9v42o7kc6t6eh,337rc3ow09fpa36fr5vigv9urzsvlb,icuNshgs,2020-0188,2020-06-15,18:57:53,19:17:50,NA,incomplete,74,filling,1,right,Blue_Triangle_Dots_3.jpg,Blue_Star_Grid_1.jpg,Purple_Plus_Dots_2.jpg,right,1511.3950001541525,true,high,false
icuNshgs,3wa2xvdzfpuo2njsi9v42o7kc6t6eh,337rc3ow09fpa36fr5vigv9urzsvlb,icuNshgs,2020-0188,2020-06-15,18:57:53,19:17:50,NA,incomplete,75,filling,0,right,Red_Plus_Grid_4.jpg,Red_Circle_Chess_2.jpg,Green_Star_Grid_1.jpg,right,1130.739999935031,true,high,false
icuNshgs,3wa2xvdzfpuo2njsi9v42o7kc6t6eh,337rc3ow09fpa36fr5vigv9urzsvlb,icuNshgs,2020-0188,2020-06-15,18:57:53,19:17:50,NA,incomplete,76,filling,1,right,Green_Plus_Grid_1.jpg,Green_Triangle_Dots_3.jpg,Purple_Circle_Grid_2.jpg,right,997.5149999372661,true,high,false
icuNshgs,3wa2xvdzfpuo2njsi9v42o7kc6t6eh,337rc3ow09fpa36fr5vigv9urzsvlb,icuNshgs,2020-0188,2020-06-15,18:57:53,19:17:50,NA,incomplete,77,filling,1,left,Green_Circle_Chess_1.jpg,Red_Star_Chess_2.jpg,Green_Triangle_Grid_4.jpg,left,1072.0649999566376,true,high,false
icuNshgs,3wa2xvdzfpuo2njsi9v42o7kc6t6eh,337rc3ow09fpa36fr5vigv9urzsvlb,icuNshgs,2020-0188,2020-06-15,18:57:53,19:17:50,NA,incomplete,78,filling,1,left,Red_Plus_Stripes_1.jpg,Green_Star_Stripes_3.jpg,Red_Circle_Grid_2.jpg,left,1247.1600000280887,true,high,false
icuNshgs,3wa2xvdzfpuo2njsi9v42o7kc6t6eh,337rc3ow09fpa36fr5vigv9urzsvlb,icuNshgs,2020-0188,2020-06-15,18:57:53,19:17:50,NA,incomplete,79,filling,1,left,Green_Plus_Stripes_2.jpg,Red_Circle_Stripes_3.jpg,Green_Star_Dots_4.jpg,left,1288.1000000052154,true,high,false
icuNshgs,3wa2xvdzfpuo2njsi9v42o7kc6t6eh,337rc3ow09fpa36fr5vigv9urzsvlb,icuNshgs,2020-0188,2020-06-15,18:57:53,19:17:50,NA,incomplete,80,color,1,right,Red_Triangle_Stripes_3.jpg,Purple_Circle_Stripes_2.jpg,Red_Star_Dots_4.jpg,left,1345.7149998284876,false,high,false
icuNshgs,3wa2xvdzfpuo2njsi9v42o7kc6t6eh,337rc3ow09fpa36fr5vigv9urzsvlb,icuNshgs,2020-0188,2020-06-15,18:57:53,19:17:50,NA,incomplete,81,color,0,right,Red_Plus_Dots_3.jpg,Purple_Star_Dots_2.jpg,Red_Triangle_Grid_4.jpg,left,935.8700001612306,false,high,false
icuNshgs,3wa2xvdzfpuo2njsi9v42o7kc6t6eh,337rc3ow09fpa36fr5vigv9urzsvlb,icuNshgs,2020-0188,2020-06-15,18:57:53,19:17:50,NA,incomplete,82,color,1,left,Purple_Triangle_Stripes_4.jpg,Purple_Star_Dots_1.jpg,Blue_Plus_Stripes_3.jpg,right,975.4350001458079,false,high,false
icuNshgs,3wa2xvdzfpuo2njsi9v42o7kc6t6eh,337rc3ow09fpa36fr5vigv9urzsvlb,icuNshgs,2020-0188,2020-06-15,18:57:53,19:17:50,NA,incomplete,83,color,0,right,Blue_Triangle_Stripes_1.jpg,Purple_Circle_Stripes_2.jpg,Blue_Plus_Grid_4.jpg,left,831.4150001388043,false,high,false
icuNshgs,3wa2xvdzfpuo2njsi9v42o7kc6t6eh,337rc3ow09fpa36fr5vigv9urzsvlb,icuNshgs,2020-0188,2020-06-15,18:57:53,19:17:50,NA,incomplete,84,color,1,left,Green_Plus_Stripes_1.jpg,Green_Circle_Grid_3.jpg,Purple_Star_Stripes_4.jpg,right,1103.3999999053776,false,high,false
icuNshgs,3wa2xvdzfpuo2njsi9v42o7kc6t6eh,337rc3ow09fpa36fr5vigv9urzsvlb,icuNshgs,2020-0188,2020-06-15,18:57:53,19:17:50,NA,incomplete,85,color,0,left,Green_Plus_Grid_4.jpg,Green_Circle_Chess_2.jpg,Red_Triangle_Grid_3.jpg,right,1124.6699998155236,false,high,false
icuNshgs,3wa2xvdzfpuo2njsi9v42o7kc6t6eh,337rc3ow09fpa36fr5vigv9urzsvlb,icuNshgs,2020-0188,2020-06-15,18:57:53,19:17:50,NA,incomplete,86,color,1,left,Purple_Plus_Stripes_3.jpg,Purple_Star_Dots_2.jpg,Red_Circle_Stripes_1.jpg,right,1148.8099999260157,false,high,false
icuNshgs,3wa2xvdzfpuo2njsi9v42o7kc6t6eh,337rc3ow09fpa36fr5vigv9urzsvlb,icuNshgs,2020-0188,2020-06-15,18:57:53,19:17:50,NA,incomplete,87,color,1,right,Green_Triangle_Dots_3.jpg,Blue_Star_Dots_4.jpg,Green_Circle_Chess_1.jpg,right,1966.6399999987334,true,high,false
icuNshgs,3wa2xvdzfpuo2njsi9v42o7kc6t6eh,337rc3ow09fpa36fr5vigv9urzsvlb,icuNshgs,2020-0188,2020-06-15,18:57:53,19:17:50,NA,incomplete,88,color,1,left,Blue_Triangle_Stripes_2.jpg,Blue_Star_Dots_4.jpg,Green_Circle_Stripes_1.jpg,left,870.6950000487268,true,high,false
icuNshgs,3wa2xvdzfpuo2njsi9v42o7kc6t6eh,337rc3ow09fpa36fr5vigv9urzsvlb,icuNshgs,2020-0188,2020-06-15,18:57:53,19:17:50,NA,incomplete,89,color,1,left,Green_Star_Grid_1.jpg,Green_Plus_Chess_2.jpg,Blue_Triangle_Grid_3.jpg,left,1189.100000075996,true,high,false
icuNshgs,3wa2xvdzfpuo2njsi9v42o7kc6t6eh,337rc3ow09fpa36fr5vigv9urzsvlb,icuNshgs,2020-0188,2020-06-15,18:57:53,19:17:50,NA,incomplete,90,filling,1,left,Red_Star_Dots_4.jpg,Green_Triangle_Dots_2.jpg,Red_Plus_Chess_3.jpg,right,738.6300000362098,false,high,false
icuNshgs,3wa2xvdzfpuo2njsi9v42o7kc6t6eh,337rc3ow09fpa36fr5vigv9urzsvlb,icuNshgs,2020-0188,2020-06-15,18:57:53,19:17:50,NA,incomplete,91,filling,0,left,Green_Triangle_Chess_4.jpg,Purple_Star_Chess_1.jpg,Green_Plus_Stripes_3.jpg,right,637.4999999534339,false,high,false
icuNshgs,3wa2xvdzfpuo2njsi9v42o7kc6t6eh,337rc3ow09fpa36fr5vigv9urzsvlb,icuNshgs,2020-0188,2020-06-15,18:57:53,19:17:50,NA,incomplete,92,filling,1,right,Blue_Star_Chess_1.jpg,Blue_Circle_Grid_2.jpg,Purple_Plus_Chess_3.jpg,left,739.9250001180917,false,high,false
icuNshgs,3wa2xvdzfpuo2njsi9v42o7kc6t6eh,337rc3ow09fpa36fr5vigv9urzsvlb,icuNshgs,2020-0188,2020-06-15,18:57:53,19:17:50,NA,incomplete,93,filling,1,left,Blue_Plus_Grid_1.jpg,Purple_Star_Grid_2.jpg,Blue_Triangle_Chess_4.jpg,right,774.3550001177937,false,high,false
icuNshgs,3wa2xvdzfpuo2njsi9v42o7kc6t6eh,337rc3ow09fpa36fr5vigv9urzsvlb,icuNshgs,2020-0188,2020-06-15,18:57:53,19:17:50,NA,incomplete,94,filling,1,right,Red_Plus_Stripes_2.jpg,Red_Triangle_Chess_3.jpg,Blue_Circle_Stripes_1.jpg,right,1122.5950000807643,true,high,false
icuNshgs,3wa2xvdzfpuo2njsi9v42o7kc6t6eh,337rc3ow09fpa36fr5vigv9urzsvlb,icuNshgs,2020-0188,2020-06-15,18:57:53,19:17:50,NA,incomplete,95,filling,1,right,Green_Plus_Dots_2.jpg,Green_Triangle_Grid_4.jpg,Purple_Circle_Dots_1.jpg,right,1057.8700001351535,true,high,false
icuNshgs,3wa2xvdzfpuo2njsi9v42o7kc6t6eh,337rc3ow09fpa36fr5vigv9urzsvlb,icuNshgs,2020-0188,2020-06-15,18:57:53,19:17:50,NA,incomplete,96,filling,1,right,Blue_Circle_Stripes_4.jpg,Blue_Plus_Grid_3.jpg,Purple_Star_Stripes_1.jpg,right,863.2449998985976,true,high,false
icuNshgs,3wa2xvdzfpuo2njsi9v42o7kc6t6eh,337rc3ow09fpa36fr5vigv9urzsvlb,icuNshgs,2020-0188,2020-06-15,18:57:53,19:17:50,NA,incomplete,97,filling,1,left,Green_Circle_Dots_1.jpg,Red_Star_Dots_2.jpg,Green_Plus_Chess_4.jpg,left,909.1100001242012,true,high,false
icuNshgs,3wa2xvdzfpuo2njsi9v42o7kc6t6eh,337rc3ow09fpa36fr5vigv9urzsvlb,icuNshgs,2020-0188,2020-06-15,18:57:53,19:17:50,NA,incomplete,98,filling,0,left,Red_Star_Stripes_1.jpg,Green_Triangle_Stripes_4.jpg,Red_Circle_Grid_3.jpg,left,872.5050000939518,true,high,false
icuNshgs,3wa2xvdzfpuo2njsi9v42o7kc6t6eh,337rc3ow09fpa36fr5vigv9urzsvlb,icuNshgs,2020-0188,2020-06-15,18:57:53,19:17:50,NA,incomplete,99,filling,1,left,Red_Circle_Dots_3.jpg,Green_Triangle_Dots_4.jpg,Red_Plus_Grid_2.jpg,left,1152.2999999579042,true,high,false
icuNshgs,3wa2xvdzfpuo2njsi9v42o7kc6t6eh,337rc3ow09fpa36fr5vigv9urzsvlb,icuNshgs,2020-0188,2020-06-15,18:57:53,19:17:50,NA,incomplete,100,color,1,left,Green_Triangle_Chess_2.jpg,Green_Star_Dots_4.jpg,Purple_Plus_Chess_3.jpg,right,847.1449997741729,false,high,false
icuNshgs,3wa2xvdzfpuo2njsi9v42o7kc6t6eh,337rc3ow09fpa36fr5vigv9urzsvlb,icuNshgs,2020-0188,2020-06-15,18:57:53,19:17:50,NA,incomplete,101,color,1,left,Red_Star_Chess_3.jpg,Red_Circle_Grid_4.jpg,Green_Triangle_Chess_2.jpg,right,1157.524999929592,false,high,false
icuNshgs,3wa2xvdzfpuo2njsi9v42o7kc6t6eh,337rc3ow09fpa36fr5vigv9urzsvlb,icuNshgs,2020-0188,2020-06-15,18:57:53,19:17:50,NA,incomplete,102,color,0,right,Blue_Triangle_Grid_2.jpg,Red_Star_Grid_4.jpg,Blue_Circle_Chess_3.jpg,right,582.6600000727922,true,high,false
icuNshgs,3wa2xvdzfpuo2njsi9v42o7kc6t6eh,337rc3ow09fpa36fr5vigv9urzsvlb,icuNshgs,2020-0188,2020-06-15,18:57:53,19:17:50,NA,incomplete,103,color,0,left,Blue_Circle_Stripes_1.jpg,Blue_Triangle_Grid_2.jpg,Green_Star_Stripes_3.jpg,left,495.0500000268221,true,high,false
icuNshgs,3wa2xvdzfpuo2njsi9v42o7kc6t6eh,337rc3ow09fpa36fr5vigv9urzsvlb,icuNshgs,2020-0188,2020-06-15,18:57:53,19:17:50,NA,incomplete,104,color,0,right,Blue_Triangle_Grid_1.jpg,Purple_Circle_Grid_4.jpg,Blue_Plus_Chess_2.jpg,right,455.3150001447648,true,high,false
icuNshgs,3wa2xvdzfpuo2njsi9v42o7kc6t6eh,337rc3ow09fpa36fr5vigv9urzsvlb,icuNshgs,2020-0188,2020-06-15,18:57:53,19:17:50,NA,incomplete,105,color,1,left,Red_Triangle_Grid_1.jpg,Red_Star_Stripes_2.jpg,Green_Circle_Grid_3.jpg,right,1411.6650000214577,false,high,false
icuNshgs,3wa2xvdzfpuo2njsi9v42o7kc6t6eh,337rc3ow09fpa36fr5vigv9urzsvlb,icuNshgs,2020-0188,2020-06-15,18:57:53,19:17:50,NA,incomplete,106,color,0,right,Blue_Star_Chess_3.jpg,Green_Plus_Chess_4.jpg,Blue_Circle_Grid_2.jpg,right,713.7449998408556,true,high,false
icuNshgs,3wa2xvdzfpuo2njsi9v42o7kc6t6eh,337rc3ow09fpa36fr5vigv9urzsvlb,icuNshgs,2020-0188,2020-06-15,18:57:53,19:17:50,NA,incomplete,107,color,1,right,Blue_Star_Chess_1.jpg,Purple_Plus_Chess_4.jpg,Blue_Circle_Dots_2.jpg,right,902.7050000149757,true,high,false
icuNshgs,3wa2xvdzfpuo2njsi9v42o7kc6t6eh,337rc3ow09fpa36fr5vigv9urzsvlb,icuNshgs,2020-0188,2020-06-15,18:57:53,19:17:50,NA,incomplete,108,color,0,left,Red_Circle_Grid_2.jpg,Red_Star_Dots_3.jpg,Blue_Plus_Grid_1.jpg,left,802.7599998749793,true,high,false
icuNshgs,3wa2xvdzfpuo2njsi9v42o7kc6t6eh,337rc3ow09fpa36fr5vigv9urzsvlb,icuNshgs,2020-0188,2020-06-15,18:57:53,19:17:50,NA,incomplete,109,color,1,right,Red_Circle_Grid_2.jpg,Blue_Plus_Grid_4.jpg,Red_Triangle_Stripes_1.jpg,right,821.1650000885129,true,high,false
icuNshgs,3wa2xvdzfpuo2njsi9v42o7kc6t6eh,337rc3ow09fpa36fr5vigv9urzsvlb,icuNshgs,2020-0188,2020-06-15,18:57:53,19:17:50,NA,incomplete,110,filling,1,left,Blue_Circle_Chess_3.jpg,Purple_Triangle_Chess_4.jpg,Blue_Star_Stripes_2.jpg,right,761.0250001307577,false,high,false
icuNshgs,3wa2xvdzfpuo2njsi9v42o7kc6t6eh,337rc3ow09fpa36fr5vigv9urzsvlb,icuNshgs,2020-0188,2020-06-15,18:57:53,19:17:50,NA,incomplete,111,filling,1,left,Green_Circle_Grid_1.jpg,Purple_Triangle_Grid_2.jpg,Green_Plus_Chess_3.jpg,right,651.6100000590086,false,high,false
icuNshgs,3wa2xvdzfpuo2njsi9v42o7kc6t6eh,337rc3ow09fpa36fr5vigv9urzsvlb,icuNshgs,2020-0188,2020-06-15,18:57:53,19:17:50,NA,incomplete,112,filling,1,right,Red_Plus_Stripes_1.jpg,Red_Star_Grid_4.jpg,Green_Triangle_Stripes_2.jpg,left,1257.4000000022352,false,high,false
icuNshgs,3wa2xvdzfpuo2njsi9v42o7kc6t6eh,337rc3ow09fpa36fr5vigv9urzsvlb,icuNshgs,2020-0188,2020-06-15,18:57:53,19:17:50,NA,incomplete,113,filling,1,left,Blue_Star_Grid_4.jpg,Purple_Triangle_Grid_3.jpg,Blue_Circle_Stripes_1.jpg,left,1190.8699998166412,true,high,false
icuNshgs,3wa2xvdzfpuo2njsi9v42o7kc6t6eh,337rc3ow09fpa36fr5vigv9urzsvlb,icuNshgs,2020-0188,2020-06-15,18:57:53,19:17:50,NA,incomplete,114,filling,1,right,Purple_Star_Stripes_1.jpg,Purple_Circle_Dots_2.jpg,Blue_Plus_Stripes_4.jpg,right,1000.0450001098216,true,high,false
icuNshgs,3wa2xvdzfpuo2njsi9v42o7kc6t6eh,337rc3ow09fpa36fr5vigv9urzsvlb,icuNshgs,2020-0188,2020-06-15,18:57:53,19:17:50,NA,incomplete,115,filling,1,right,Green_Star_Dots_1.jpg,Green_Plus_Stripes_3.jpg,Red_Triangle_Dots_2.jpg,right,838.2149999961257,true,high,false
icuNshgs,3wa2xvdzfpuo2njsi9v42o7kc6t6eh,337rc3ow09fpa36fr5vigv9urzsvlb,icuNshgs,2020-0188,2020-06-15,18:57:53,19:17:50,NA,incomplete,116,filling,0,right,Blue_Triangle_Chess_4.jpg,Blue_Plus_Dots_3.jpg,Red_Circle_Chess_1.jpg,right,900.2750001382083,true,high,false
icuNshgs,3wa2xvdzfpuo2njsi9v42o7kc6t6eh,337rc3ow09fpa36fr5vigv9urzsvlb,icuNshgs,2020-0188,2020-06-15,18:57:53,19:17:50,NA,incomplete,117,filling,1,left,Purple_Plus_Stripes_2.jpg,Red_Circle_Stripes_4.jpg,Purple_Star_Chess_3.jpg,left,936.845000134781,true,high,false
icuNshgs,3wa2xvdzfpuo2njsi9v42o7kc6t6eh,337rc3ow09fpa36fr5vigv9urzsvlb,icuNshgs,2020-0188,2020-06-15,18:57:53,19:17:50,NA,incomplete,118,filling,0,right,Purple_Circle_Chess_3.jpg,Purple_Star_Dots_2.jpg,Blue_Plus_Chess_1.jpg,right,931.5200001001358,true,high,false
icuNshgs,3wa2xvdzfpuo2njsi9v42o7kc6t6eh,337rc3ow09fpa36fr5vigv9urzsvlb,icuNshgs,2020-0188,2020-06-15,18:57:53,19:17:50,NA,incomplete,119,filling,1,left,Red_Circle_Chess_1.jpg,Purple_Star_Chess_4.jpg,Red_Triangle_Grid_3.jpg,right,847.6550001651049,false,high,false
icuNshgs,3wa2xvdzfpuo2njsi9v42o7kc6t6eh,337rc3ow09fpa36fr5vigv9urzsvlb,icuNshgs,2020-0188,2020-06-15,18:57:53,19:17:50,NA,incomplete,120,number,1,right,Red_Circle_Chess_3.jpg,Purple_Circle_Dots_1.jpg,Green_Star_Grid_3.jpg,NA,NA,NA,high,false
icuNshgs,3wa2xvdzfpuo2njsi9v42o7kc6t6eh,337rc3ow09fpa36fr5vigv9urzsvlb,icuNshgs,2020-0188,2020-06-15,18:57:53,19:17:50,NA,incomplete,121,number,1,right,Purple_Plus_Grid_3.jpg,Blue_Plus_Stripes_1.jpg,Green_Triangle_Chess_3.jpg,right,1500.8799999486655,true,high,false
icuNshgs,3wa2xvdzfpuo2njsi9v42o7kc6t6eh,337rc3ow09fpa36fr5vigv9urzsvlb,icuNshgs,2020-0188,2020-06-15,18:57:53,19:17:50,NA,incomplete,122,number,1,left,Green_Star_Chess_2.jpg,Red_Plus_Stripes_2.jpg,Purple_Star_Dots_3.jpg,left,967.7399999927729,true,high,false
icuNshgs,3wa2xvdzfpuo2njsi9v42o7kc6t6eh,337rc3ow09fpa36fr5vigv9urzsvlb,icuNshgs,2020-0188,2020-06-15,18:57:53,19:17:50,NA,incomplete,123,number,1,right,Red_Triangle_Dots_4.jpg,Blue_Triangle_Chess_1.jpg,Purple_Plus_Grid_4.jpg,right,883.485000114888,true,high,false
icuNshgs,3wa2xvdzfpuo2njsi9v42o7kc6t6eh,337rc3ow09fpa36fr5vigv9urzsvlb,icuNshgs,2020-0188,2020-06-15,18:57:53,19:17:50,NA,incomplete,124,number,0,right,Blue_Plus_Dots_4.jpg,Purple_Plus_Stripes_2.jpg,Red_Triangle_Chess_4.jpg,right,1285.8300001826137,true,high,false
icuNshgs,3wa2xvdzfpuo2njsi9v42o7kc6t6eh,337rc3ow09fpa36fr5vigv9urzsvlb,icuNshgs,2020-0188,2020-06-15,18:57:53,19:17:50,NA,incomplete,125,number,1,left,Purple_Plus_Dots_1.jpg,Green_Star_Stripes_1.jpg,Blue_Plus_Grid_2.jpg,left,993.9749999903142,true,high,false
icuNshgs,3wa2xvdzfpuo2njsi9v42o7kc6t6eh,337rc3ow09fpa36fr5vigv9urzsvlb,icuNshgs,2020-0188,2020-06-15,18:57:53,19:17:50,NA,incomplete,126,number,1,right,Red_Plus_Stripes_1.jpg,Blue_Plus_Dots_3.jpg,Green_Star_Grid_1.jpg,right,1281.5249999985099,true,high,false
icuNshgs,3wa2xvdzfpuo2njsi9v42o7kc6t6eh,337rc3ow09fpa36fr5vigv9urzsvlb,icuNshgs,2020-0188,2020-06-15,18:57:53,19:17:50,NA,incomplete,127,number,1,left,Blue_Plus_Dots_4.jpg,Red_Circle_Stripes_4.jpg,Purple_Plus_Grid_2.jpg,left,847.6750000845641,true,high,false
icuNshgs,3wa2xvdzfpuo2njsi9v42o7kc6t6eh,337rc3ow09fpa36fr5vigv9urzsvlb,icuNshgs,2020-0188,2020-06-15,18:57:53,19:17:50,NA,incomplete,128,number,1,left,Purple_Triangle_Grid_2.jpg,Green_Plus_Stripes_2.jpg,Blue_Triangle_Dots_1.jpg,left,844.3849999457598,true,high,false
icuNshgs,3wa2xvdzfpuo2njsi9v42o7kc6t6eh,337rc3ow09fpa36fr5vigv9urzsvlb,icuNshgs,2020-0188,2020-06-15,18:57:53,19:17:50,NA,incomplete,129,number,1,right,Red_Plus_Stripes_1.jpg,Blue_Plus_Grid_3.jpg,Green_Star_Dots_1.jpg,right,1410.8200001064688,true,high,false
icuNshgs,3wa2xvdzfpuo2njsi9v42o7kc6t6eh,337rc3ow09fpa36fr5vigv9urzsvlb,icuNshgs,2020-0188,2020-06-15,18:57:53,19:17:50,NA,incomplete,130,number,1,left,Purple_Circle_Stripes_2.jpg,Red_Triangle_Chess_2.jpg,Green_Circle_Grid_4.jpg,left,970.4199999105185,true,high,false
icuNshgs,3wa2xvdzfpuo2njsi9v42o7kc6t6eh,337rc3ow09fpa36fr5vigv9urzsvlb,icuNshgs,2020-0188,2020-06-15,18:57:53,19:17:50,NA,incomplete,131,number,0,right,Green_Circle_Chess_3.jpg,Purple_Circle_Dots_2.jpg,Red_Triangle_Grid_3.jpg,right,794.5949998684227,true,high,false
icuNshgs,3wa2xvdzfpuo2njsi9v42o7kc6t6eh,337rc3ow09fpa36fr5vigv9urzsvlb,icuNshgs,2020-0188,2020-06-15,18:57:53,19:17:50,NA,incomplete,132,number,1,right,Blue_Circle_Chess_1.jpg,Purple_Circle_Dots_4.jpg,Green_Star_Grid_1.jpg,right,1228.6999998614192,true,high,false
icuNshgs,3wa2xvdzfpuo2njsi9v42o7kc6t6eh,337rc3ow09fpa36fr5vigv9urzsvlb,icuNshgs,2020-0188,2020-06-15,18:57:53,19:17:50,NA,incomplete,133,number,1,left,Blue_Circle_Stripes_2.jpg,Purple_Plus_Grid_2.jpg,Red_Circle_Chess_4.jpg,left,769.5500000845641,true,high,false
icuNshgs,3wa2xvdzfpuo2njsi9v42o7kc6t6eh,337rc3ow09fpa36fr5vigv9urzsvlb,icuNshgs,2020-0188,2020-06-15,18:57:53,19:17:50,NA,incomplete,134,number,0,right,Purple_Star_Grid_2.jpg,Green_Star_Dots_3.jpg,Blue_Circle_Stripes_2.jpg,right,914.735000114888,true,high,false
icuNshgs,3wa2xvdzfpuo2njsi9v42o7kc6t6eh,337rc3ow09fpa36fr5vigv9urzsvlb,icuNshgs,2020-0188,2020-06-15,18:57:53,19:17:50,NA,incomplete,135,number,1,left,Green_Triangle_Grid_2.jpg,Purple_Plus_Stripes_2.jpg,Red_Triangle_Chess_3.jpg,left,806.1200000811368,true,high,false
icuNshgs,3wa2xvdzfpuo2njsi9v42o7kc6t6eh,337rc3ow09fpa36fr5vigv9urzsvlb,icuNshgs,2020-0188,2020-06-15,18:57:53,19:17:50,NA,incomplete,136,number,1,right,Purple_Circle_Dots_3.jpg,Blue_Circle_Grid_1.jpg,Red_Plus_Chess_3.jpg,right,1061.879999935627,true,high,false
icuNshgs,3wa2xvdzfpuo2njsi9v42o7kc6t6eh,337rc3ow09fpa36fr5vigv9urzsvlb,icuNshgs,2020-0188,2020-06-15,18:57:53,19:17:50,NA,incomplete,137,number,0,left,Blue_Triangle_Chess_3.jpg,Red_Star_Stripes_3.jpg,Purple_Triangle_Dots_4.jpg,left,965.2499998919666,true,high,false
icuNshgs,3wa2xvdzfpuo2njsi9v42o7kc6t6eh,337rc3ow09fpa36fr5vigv9urzsvlb,icuNshgs,2020-0188,2020-06-15,18:57:53,19:17:50,NA,incomplete,138,number,1,right,Green_Circle_Chess_3.jpg,Purple_Circle_Dots_2.jpg,Blue_Triangle_Grid_3.jpg,right,812.3949998989701,true,high,false
icuNshgs,3wa2xvdzfpuo2njsi9v42o7kc6t6eh,337rc3ow09fpa36fr5vigv9urzsvlb,icuNshgs,2020-0188,2020-06-15,18:57:53,19:17:50,NA,incomplete,139,number,0,left,Blue_Triangle_Stripes_3.jpg,Purple_Circle_Chess_3.jpg,Red_Triangle_Grid_1.jpg,left,748.4649999532849,true,high,false
icuNshgs,3wa2xvdzfpuo2njsi9v42o7kc6t6eh,337rc3ow09fpa36fr5vigv9urzsvlb,icuNshgs,2020-0188,2020-06-15,18:57:53,19:17:50,NA,incomplete,140,shape,1,left,Red_Triangle_Grid_3.jpg,Purple_Triangle_Chess_2.jpg,Green_Circle_Stripes_3.jpg,right,742.765000090003,false,high,false
icuNshgs,3wa2xvdzfpuo2njsi9v42o7kc6t6eh,337rc3ow09fpa36fr5vigv9urzsvlb,icuNshgs,2020-0188,2020-06-15,18:57:53,19:17:50,NA,incomplete,141,shape,1,right,Blue_Star_Stripes_1.jpg,Red_Circle_Chess_1.jpg,Green_Star_Dots_2.jpg,right,1004.7849998809397,true,high,false
icuNshgs,3wa2xvdzfpuo2njsi9v42o7kc6t6eh,337rc3ow09fpa36fr5vigv9urzsvlb,icuNshgs,2020-0188,2020-06-15,18:57:53,19:17:50,NA,incomplete,142,shape,0,right,Blue_Circle_Stripes_2.jpg,Green_Plus_Dots_2.jpg,Purple_Circle_Chess_4.jpg,right,763.0400001071393,true,high,false
icuNshgs,3wa2xvdzfpuo2njsi9v42o7kc6t6eh,337rc3ow09fpa36fr5vigv9urzsvlb,icuNshgs,2020-0188,2020-06-15,18:57:53,19:17:50,NA,incomplete,143,shape,1,right,Purple_Star_Chess_2.jpg,Red_Plus_Grid_2.jpg,Blue_Star_Stripes_4.jpg,right,712.9450000356883,true,high,false
icuNshgs,3wa2xvdzfpuo2njsi9v42o7kc6t6eh,337rc3ow09fpa36fr5vigv9urzsvlb,icuNshgs,2020-0188,2020-06-15,18:57:53,19:17:50,NA,incomplete,144,shape,1,left,Blue_Triangle_Chess_4.jpg,Purple_Triangle_Grid_3.jpg,Red_Plus_Stripes_4.jpg,left,1103.5399998072535,true,high,false
icuNshgs,3wa2xvdzfpuo2njsi9v42o7kc6t6eh,337rc3ow09fpa36fr5vigv9urzsvlb,icuNshgs,2020-0188,2020-06-15,18:57:53,19:17:50,NA,incomplete,145,shape,1,left,Purple_Star_Chess_1.jpg,Red_Star_Stripes_4.jpg,Green_Plus_Grid_1.jpg,left,824.1949998773634,true,high,false
icuNshgs,3wa2xvdzfpuo2njsi9v42o7kc6t6eh,337rc3ow09fpa36fr5vigv9urzsvlb,icuNshgs,2020-0188,2020-06-15,18:57:53,19:17:50,NA,incomplete,146,shape,0,right,Red_Star_Dots_2.jpg,Blue_Circle_Grid_2.jpg,Green_Star_Stripes_3.jpg,right,937.0899999048561,true,high,false
icuNshgs,3wa2xvdzfpuo2njsi9v42o7kc6t6eh,337rc3ow09fpa36fr5vigv9urzsvlb,icuNshgs,2020-0188,2020-06-15,18:57:53,19:17:50,NA,incomplete,147,shape,1,left,Purple_Circle_Grid_1.jpg,Blue_Circle_Stripes_3.jpg,Red_Plus_Chess_1.jpg,left,796.8850000761449,true,high,false
icuNshgs,3wa2xvdzfpuo2njsi9v42o7kc6t6eh,337rc3ow09fpa36fr5vigv9urzsvlb,icuNshgs,2020-0188,2020-06-15,18:57:53,19:17:50,NA,incomplete,148,shape,1,right,Red_Circle_Chess_3.jpg,Green_Plus_Grid_3.jpg,Purple_Circle_Dots_2.jpg,right,875.145000172779,true,high,false
icuNshgs,3wa2xvdzfpuo2njsi9v42o7kc6t6eh,337rc3ow09fpa36fr5vigv9urzsvlb,icuNshgs,2020-0188,2020-06-15,18:57:53,19:17:50,NA,incomplete,149,shape,0,left,Red_Triangle_Dots_2.jpg,Purple_Triangle_Stripes_3.jpg,Blue_Plus_Chess_2.jpg,left,839.9750001262873,true,high,false
icuNshgs,3wa2xvdzfpuo2njsi9v42o7kc6t6eh,337rc3ow09fpa36fr5vigv9urzsvlb,icuNshgs,2020-0188,2020-06-15,18:57:53,19:17:50,NA,incomplete,150,shape,1,right,Red_Star_Grid_2.jpg,Purple_Triangle_Dots_2.jpg,Green_Star_Chess_3.jpg,right,926.7249999102205,true,high,false
icuNshgs,3wa2xvdzfpuo2njsi9v42o7kc6t6eh,337rc3ow09fpa36fr5vigv9urzsvlb,icuNshgs,2020-0188,2020-06-15,18:57:53,19:17:50,NA,incomplete,151,shape,1,right,Red_Circle_Dots_4.jpg,Blue_Triangle_Chess_4.jpg,Purple_Circle_Stripes_3.jpg,right,1033.5750000085682,true,high,false
icuNshgs,3wa2xvdzfpuo2njsi9v42o7kc6t6eh,337rc3ow09fpa36fr5vigv9urzsvlb,icuNshgs,2020-0188,2020-06-15,18:57:53,19:17:50,NA,incomplete,152,shape,0,right,Purple_Circle_Stripes_1.jpg,Blue_Plus_Dots_1.jpg,Green_Circle_Chess_4.jpg,right,850.1549998763949,true,high,false
icuNshgs,3wa2xvdzfpuo2njsi9v42o7kc6t6eh,337rc3ow09fpa36fr5vigv9urzsvlb,icuNshgs,2020-0188,2020-06-15,18:57:53,19:17:50,NA,incomplete,153,shape,1,right,Purple_Triangle_Grid_2.jpg,Blue_Circle_Chess_2.jpg,Green_Triangle_Stripes_1.jpg,right,1318.6600001063198,true,high,false
icuNshgs,3wa2xvdzfpuo2njsi9v42o7kc6t6eh,337rc3ow09fpa36fr5vigv9urzsvlb,icuNshgs,2020-0188,2020-06-15,18:57:53,19:17:50,NA,incomplete,154,shape,1,right,Blue_Triangle_Grid_3.jpg,Red_Plus_Dots_3.jpg,Green_Triangle_Stripes_1.jpg,right,913.4450000710785,true,high,false
icuNshgs,3wa2xvdzfpuo2njsi9v42o7kc6t6eh,337rc3ow09fpa36fr5vigv9urzsvlb,icuNshgs,2020-0188,2020-06-15,18:57:53,19:17:50,NA,incomplete,155,shape,1,right,Red_Triangle_Grid_3.jpg,Purple_Star_Chess_3.jpg,Green_Triangle_Stripes_1.jpg,right,685.7000000309199,true,high,false
icuNshgs,3wa2xvdzfpuo2njsi9v42o7kc6t6eh,337rc3ow09fpa36fr5vigv9urzsvlb,icuNshgs,2020-0188,2020-06-15,18:57:53,19:17:50,NA,incomplete,156,shape,1,right,Blue_Triangle_Dots_2.jpg,Purple_Plus_Stripes_2.jpg,Red_Triangle_Grid_3.jpg,right,650.1450000796467,true,high,false
icuNshgs,3wa2xvdzfpuo2njsi9v42o7kc6t6eh,337rc3ow09fpa36fr5vigv9urzsvlb,icuNshgs,2020-0188,2020-06-15,18:57:53,19:17:50,NA,incomplete,157,shape,0,right,Blue_Triangle_Dots_3.jpg,Green_Plus_Grid_3.jpg,Red_Triangle_Chess_4.jpg,right,915.4999998863786,true,high,false
icuNshgs,3wa2xvdzfpuo2njsi9v42o7kc6t6eh,337rc3ow09fpa36fr5vigv9urzsvlb,icuNshgs,2020-0188,2020-06-15,18:57:53,19:17:50,NA,incomplete,158,shape,1,right,Purple_Circle_Chess_3.jpg,Blue_Triangle_Stripes_3.jpg,Red_Circle_Grid_2.jpg,right,1029.1049999650568,true,high,false
icuNshgs,3wa2xvdzfpuo2njsi9v42o7kc6t6eh,337rc3ow09fpa36fr5vigv9urzsvlb,icuNshgs,2020-0188,2020-06-15,18:57:53,19:17:50,NA,incomplete,159,shape,1,right,Green_Triangle_Stripes_4.jpg,Red_Star_Dots_4.jpg,Blue_Triangle_Chess_3.jpg,right,713.4999998379499,true,high,false
icuNshgs,3wa2xvdzfpuo2njsi9v42o7kc6t6eh,337rc3ow09fpa36fr5vigv9urzsvlb,icuNshgs,2020-0188,2020-06-15,18:57:53,19:17:50,NA,incomplete,160,number,1,left,Green_Plus_Dots_1.jpg,Red_Star_Stripes_1.jpg,Blue_Plus_Chess_2.jpg,right,783.0649998504668,false,high,false
icuNshgs,3wa2xvdzfpuo2njsi9v42o7kc6t6eh,337rc3ow09fpa36fr5vigv9urzsvlb,icuNshgs,2020-0188,2020-06-15,18:57:53,19:17:50,NA,incomplete,161,number,1,right,Green_Circle_Chess_1.jpg,Purple_Circle_Stripes_4.jpg,Blue_Triangle_Dots_1.jpg,left,871.8900000676513,false,high,false
icuNshgs,3wa2xvdzfpuo2njsi9v42o7kc6t6eh,337rc3ow09fpa36fr5vigv9urzsvlb,icuNshgs,2020-0188,2020-06-15,18:57:53,19:17:50,NA,incomplete,162,number,1,left,Red_Triangle_Stripes_2.jpg,Purple_Plus_Grid_2.jpg,Green_Triangle_Dots_4.jpg,left,999.379999935627,true,high,false
icuNshgs,3wa2xvdzfpuo2njsi9v42o7kc6t6eh,337rc3ow09fpa36fr5vigv9urzsvlb,icuNshgs,2020-0188,2020-06-15,18:57:53,19:17:50,NA,incomplete,163,number,1,right,Red_Triangle_Dots_1.jpg,Purple_Triangle_Grid_4.jpg,Green_Circle_Stripes_1.jpg,right,1260.9049999155104,true,high,false
icuNshgs,3wa2xvdzfpuo2njsi9v42o7kc6t6eh,337rc3ow09fpa36fr5vigv9urzsvlb,icuNshgs,2020-0188,2020-06-15,18:57:53,19:17:50,NA,incomplete,164,number,1,left,Green_Circle_Dots_1.jpg,Red_Plus_Stripes_1.jpg,Blue_Circle_Grid_4.jpg,left,1090.0300000794232,true,high,false
icuNshgs,3wa2xvdzfpuo2njsi9v42o7kc6t6eh,337rc3ow09fpa36fr5vigv9urzsvlb,icuNshgs,2020-0188,2020-06-15,18:57:53,19:17:50,NA,incomplete,165,number,0,right,Green_Star_Dots_4.jpg,Red_Star_Chess_2.jpg,Purple_Circle_Grid_4.jpg,right,1221.8100000172853,true,high,false
icuNshgs,3wa2xvdzfpuo2njsi9v42o7kc6t6eh,337rc3ow09fpa36fr5vigv9urzsvlb,icuNshgs,2020-0188,2020-06-15,18:57:53,19:17:50,NA,incomplete,166,number,1,right,Green_Plus_Dots_3.jpg,Red_Plus_Chess_2.jpg,Purple_Circle_Stripes_3.jpg,right,1087.0650000870228,true,high,false
icuNshgs,3wa2xvdzfpuo2njsi9v42o7kc6t6eh,337rc3ow09fpa36fr5vigv9urzsvlb,icuNshgs,2020-0188,2020-06-15,18:57:53,19:17:50,NA,incomplete,167,number,1,right,Red_Plus_Dots_3.jpg,Green_Plus_Stripes_1.jpg,Blue_Triangle_Grid_3.jpg,right,1152.5299998465925,true,high,false
icuNshgs,3wa2xvdzfpuo2njsi9v42o7kc6t6eh,337rc3ow09fpa36fr5vigv9urzsvlb,icuNshgs,2020-0188,2020-06-15,18:57:53,19:17:50,NA,incomplete,168,number,1,right,Red_Circle_Grid_2.jpg,Green_Circle_Dots_4.jpg,Blue_Plus_Stripes_2.jpg,right,1354.2849998921156,true,high,false
icuNshgs,3wa2xvdzfpuo2njsi9v42o7kc6t6eh,337rc3ow09fpa36fr5vigv9urzsvlb,icuNshgs,2020-0188,2020-06-15,18:57:53,19:17:50,NA,incomplete,169,number,1,left,Red_Circle_Stripes_4.jpg,Green_Triangle_Chess_4.jpg,Purple_Circle_Dots_1.jpg,left,1026.3199999462813,true,high,false
icuNshgs,3wa2xvdzfpuo2njsi9v42o7kc6t6eh,337rc3ow09fpa36fr5vigv9urzsvlb,icuNshgs,2020-0188,2020-06-15,18:57:53,19:17:50,NA,incomplete,170,number,0,right,Purple_Circle_Chess_1.jpg,Green_Circle_Stripes_2.jpg,Red_Star_Dots_1.jpg,right,995.7799999974668,true,high,false
icuNshgs,3wa2xvdzfpuo2njsi9v42o7kc6t6eh,337rc3ow09fpa36fr5vigv9urzsvlb,icuNshgs,2020-0188,2020-06-15,18:57:53,19:17:50,NA,incomplete,171,number,1,left,Blue_Circle_Chess_4.jpg,Green_Star_Stripes_4.jpg,Red_Circle_Dots_1.jpg,left,969.4050000980496,true,high,false
icuNshgs,3wa2xvdzfpuo2njsi9v42o7kc6t6eh,337rc3ow09fpa36fr5vigv9urzsvlb,icuNshgs,2020-0188,2020-06-15,18:57:53,19:17:50,NA,incomplete,172,number,1,left,Red_Circle_Stripes_3.jpg,Green_Triangle_Dots_3.jpg,Blue_Circle_Grid_2.jpg,left,1376.1650000233203,true,high,false
icuNshgs,3wa2xvdzfpuo2njsi9v42o7kc6t6eh,337rc3ow09fpa36fr5vigv9urzsvlb,icuNshgs,2020-0188,2020-06-15,18:57:53,19:17:50,NA,incomplete,173,number,1,right,Red_Triangle_Grid_2.jpg,Blue_Triangle_Chess_1.jpg,Purple_Star_Stripes_2.jpg,right,962.119999807328,true,high,false
icuNshgs,3wa2xvdzfpuo2njsi9v42o7kc6t6eh,337rc3ow09fpa36fr5vigv9urzsvlb,icuNshgs,2020-0188,2020-06-15,18:57:53,19:17:50,NA,incomplete,174,number,0,right,Purple_Plus_Grid_3.jpg,Red_Plus_Chess_1.jpg,Blue_Triangle_Dots_3.jpg,right,877.5549998972565,true,high,false
icuNshgs,3wa2xvdzfpuo2njsi9v42o7kc6t6eh,337rc3ow09fpa36fr5vigv9urzsvlb,icuNshgs,2020-0188,2020-06-15,18:57:53,19:17:50,NA,incomplete,175,number,1,right,Red_Plus_Dots_4.jpg,Blue_Plus_Grid_3.jpg,Green_Star_Chess_4.jpg,right,928.4349998924881,true,high,false
icuNshgs,3wa2xvdzfpuo2njsi9v42o7kc6t6eh,337rc3ow09fpa36fr5vigv9urzsvlb,icuNshgs,2020-0188,2020-06-15,18:57:53,19:17:50,NA,incomplete,176,number,0,right,Blue_Star_Chess_4.jpg,Purple_Star_Dots_3.jpg,Green_Triangle_Grid_4.jpg,right,843.2400000747293,true,high,false
icuNshgs,3wa2xvdzfpuo2njsi9v42o7kc6t6eh,337rc3ow09fpa36fr5vigv9urzsvlb,icuNshgs,2020-0188,2020-06-15,18:57:53,19:17:50,NA,incomplete,177,number,1,right,Red_Circle_Stripes_1.jpg,Green_Circle_Chess_4.jpg,Blue_Triangle_Grid_1.jpg,right,1217.6250000484288,true,high,false
icuNshgs,3wa2xvdzfpuo2njsi9v42o7kc6t6eh,337rc3ow09fpa36fr5vigv9urzsvlb,icuNshgs,2020-0188,2020-06-15,18:57:53,19:17:50,NA,incomplete,178,number,1,left,Purple_Triangle_Grid_4.jpg,Blue_Circle_Dots_4.jpg,Green_Triangle_Chess_2.jpg,left,1106.9600000046194,true,high,false
icuNshgs,3wa2xvdzfpuo2njsi9v42o7kc6t6eh,337rc3ow09fpa36fr5vigv9urzsvlb,icuNshgs,2020-0188,2020-06-15,18:57:53,19:17:50,NA,incomplete,179,number,1,left,Red_Circle_Dots_4.jpg,Purple_Star_Chess_4.jpg,Green_Circle_Stripes_1.jpg,left,795.2550000045449,true,high,false
icuNshgs,3wa2xvdzfpuo2njsi9v42o7kc6t6eh,337rc3ow09fpa36fr5vigv9urzsvlb,icuNshgs,2020-0188,2020-06-15,18:57:53,19:17:50,NA,incomplete,180,shape,0,left,Red_Triangle_Chess_2.jpg,Blue_Triangle_Grid_1.jpg,Green_Star_Stripes_2.jpg,right,780.0849999766797,false,high,false
icuNshgs,3wa2xvdzfpuo2njsi9v42o7kc6t6eh,337rc3ow09fpa36fr5vigv9urzsvlb,icuNshgs,2020-0188,2020-06-15,18:57:53,19:17:50,NA,incomplete,181,shape,1,right,Purple_Plus_Dots_1.jpg,Blue_Star_Grid_1.jpg,Red_Plus_Stripes_2.jpg,left,1261.045000050217,false,high,false
icuNshgs,3wa2xvdzfpuo2njsi9v42o7kc6t6eh,337rc3ow09fpa36fr5vigv9urzsvlb,icuNshgs,2020-0188,2020-06-15,18:57:53,19:17:50,NA,incomplete,182,shape,1,left,Green_Circle_Dots_2.jpg,Red_Circle_Chess_4.jpg,Blue_Star_Grid_2.jpg,right,994.2000000737607,false,high,false
icuNshgs,3wa2xvdzfpuo2njsi9v42o7kc6t6eh,337rc3ow09fpa36fr5vigv9urzsvlb,icuNshgs,2020-0188,2020-06-15,18:57:53,19:17:50,NA,incomplete,183,shape,1,right,Red_Triangle_Stripes_3.jpg,Purple_Plus_Dots_3.jpg,Green_Triangle_Chess_1.jpg,left,909.2800000216812,false,high,false
icuNshgs,3wa2xvdzfpuo2njsi9v42o7kc6t6eh,337rc3ow09fpa36fr5vigv9urzsvlb,icuNshgs,2020-0188,2020-06-15,18:57:53,19:17:50,NA,incomplete,184,shape,0,left,Purple_Triangle_Grid_2.jpg,Red_Triangle_Chess_4.jpg,Blue_Star_Stripes_2.jpg,left,1822.6550000254065,true,high,false
icuNshgs,3wa2xvdzfpuo2njsi9v42o7kc6t6eh,337rc3ow09fpa36fr5vigv9urzsvlb,icuNshgs,2020-0188,2020-06-15,18:57:53,19:17:50,NA,incomplete,185,shape,1,left,Green_Triangle_Stripes_1.jpg,Red_Triangle_Dots_3.jpg,Purple_Star_Grid_1.jpg,right,1282.7800000086427,false,high,false
icuNshgs,3wa2xvdzfpuo2njsi9v42o7kc6t6eh,337rc3ow09fpa36fr5vigv9urzsvlb,icuNshgs,2020-0188,2020-06-15,18:57:53,19:17:50,NA,incomplete,186,shape,1,right,Green_Circle_Dots_1.jpg,Blue_Plus_Grid_1.jpg,Red_Circle_Stripes_2.jpg,left,1135.4950000531971,false,high,false
icuNshgs,3wa2xvdzfpuo2njsi9v42o7kc6t6eh,337rc3ow09fpa36fr5vigv9urzsvlb,icuNshgs,2020-0188,2020-06-15,18:57:53,19:17:50,NA,incomplete,187,shape,1,left,Green_Triangle_Chess_2.jpg,Red_Triangle_Dots_4.jpg,Purple_Star_Stripes_2.jpg,left,1644.33000003919,true,high,false
icuNshgs,3wa2xvdzfpuo2njsi9v42o7kc6t6eh,337rc3ow09fpa36fr5vigv9urzsvlb,icuNshgs,2020-0188,2020-06-15,18:57:53,19:17:50,NA,incomplete,188,shape,1,right,Green_Circle_Grid_1.jpg,Purple_Plus_Chess_1.jpg,Blue_Circle_Stripes_4.jpg,right,807.1299998555332,true,high,false
icuNshgs,3wa2xvdzfpuo2njsi9v42o7kc6t6eh,337rc3ow09fpa36fr5vigv9urzsvlb,icuNshgs,2020-0188,2020-06-15,18:57:53,19:17:50,NA,incomplete,189,shape,1,left,Purple_Triangle_Stripes_2.jpg,Green_Triangle_Dots_1.jpg,Blue_Plus_Grid_2.jpg,left,1630.2900000009686,true,high,false
icuNshgs,3wa2xvdzfpuo2njsi9v42o7kc6t6eh,337rc3ow09fpa36fr5vigv9urzsvlb,icuNshgs,2020-0188,2020-06-15,18:57:53,19:17:50,NA,incomplete,190,shape,1,left,Purple_Circle_Chess_4.jpg,Blue_Circle_Grid_3.jpg,Green_Plus_Dots_4.jpg,right,1292.1850001439452,false,high,false
icuNshgs,3wa2xvdzfpuo2njsi9v42o7kc6t6eh,337rc3ow09fpa36fr5vigv9urzsvlb,icuNshgs,2020-0188,2020-06-15,18:57:53,19:17:50,NA,incomplete,191,shape,1,left,Green_Plus_Chess_4.jpg,Red_Plus_Dots_2.jpg,Blue_Star_Grid_4.jpg,left,962.5900001265109,true,high,false
icuNshgs,3wa2xvdzfpuo2njsi9v42o7kc6t6eh,337rc3ow09fpa36fr5vigv9urzsvlb,icuNshgs,2020-0188,2020-06-15,18:57:53,19:17:50,NA,incomplete,192,shape,1,left,Purple_Circle_Grid_4.jpg,Green_Circle_Dots_3.jpg,Red_Star_Stripes_4.jpg,left,970.0549999251962,true,high,false
icuNshgs,3wa2xvdzfpuo2njsi9v42o7kc6t6eh,337rc3ow09fpa36fr5vigv9urzsvlb,icuNshgs,2020-0188,2020-06-15,18:57:53,19:17:50,NA,incomplete,193,shape,1,left,Purple_Circle_Dots_2.jpg,Red_Circle_Chess_3.jpg,Green_Star_Grid_2.jpg,left,865.4899999964982,true,high,false
icuNshgs,3wa2xvdzfpuo2njsi9v42o7kc6t6eh,337rc3ow09fpa36fr5vigv9urzsvlb,icuNshgs,2020-0188,2020-06-15,18:57:53,19:17:50,NA,incomplete,194,shape,0,left,Red_Plus_Grid_4.jpg,Purple_Plus_Chess_3.jpg,Blue_Circle_Stripes_4.jpg,left,1447.0049999654293,true,high,false
icuNshgs,3wa2xvdzfpuo2njsi9v42o7kc6t6eh,337rc3ow09fpa36fr5vigv9urzsvlb,icuNshgs,2020-0188,2020-06-15,18:57:53,19:17:50,NA,incomplete,195,shape,1,right,Purple_Star_Grid_1.jpg,Blue_Triangle_Chess_1.jpg,Green_Star_Stripes_4.jpg,right,1006.7049998324364,true,high,false
icuNshgs,3wa2xvdzfpuo2njsi9v42o7kc6t6eh,337rc3ow09fpa36fr5vigv9urzsvlb,icuNshgs,2020-0188,2020-06-15,18:57:53,19:17:50,NA,incomplete,196,shape,0,right,Purple_Triangle_Grid_4.jpg,Blue_Circle_Chess_4.jpg,Green_Triangle_Dots_3.jpg,right,1115.8350000623614,true,high,false
icuNshgs,3wa2xvdzfpuo2njsi9v42o7kc6t6eh,337rc3ow09fpa36fr5vigv9urzsvlb,icuNshgs,2020-0188,2020-06-15,18:57:53,19:17:50,NA,incomplete,197,shape,1,left,Red_Star_Grid_3.jpg,Purple_Star_Stripes_4.jpg,Green_Circle_Dots_3.jpg,left,1167.200000025332,true,high,false
icuNshgs,3wa2xvdzfpuo2njsi9v42o7kc6t6eh,337rc3ow09fpa36fr5vigv9urzsvlb,icuNshgs,2020-0188,2020-06-15,18:57:53,19:17:50,NA,incomplete,198,shape,0,left,Red_Triangle_Stripes_2.jpg,Purple_Triangle_Grid_3.jpg,Green_Circle_Chess_2.jpg,left,1031.9399998988956,true,high,false
icuNshgs,3wa2xvdzfpuo2njsi9v42o7kc6t6eh,337rc3ow09fpa36fr5vigv9urzsvlb,icuNshgs,2020-0188,2020-06-15,18:57:53,19:17:50,NA,incomplete,199,shape,1,right,Blue_Triangle_Dots_1.jpg,Red_Star_Stripes_1.jpg,Purple_Triangle_Chess_2.jpg,right,687.4349999707192,true,high,false
icuNshgs,3wa2xvdzfpuo2njsi9v42o7kc6t6eh,337rc3ow09fpa36fr5vigv9urzsvlb,icuNshgs,2020-0188,2020-06-15,18:57:53,19:17:50,NA,incomplete,200,number,1,left,Red_Triangle_Stripes_2.jpg,Blue_Plus_Chess_2.jpg,Purple_Triangle_Grid_4.jpg,right,709.5449999906123,false,high,false
icuNshgs,3wa2xvdzfpuo2njsi9v42o7kc6t6eh,337rc3ow09fpa36fr5vigv9urzsvlb,icuNshgs,2020-0188,2020-06-15,18:57:53,19:17:50,NA,incomplete,201,number,1,right,Green_Triangle_Grid_2.jpg,Purple_Triangle_Stripes_3.jpg,Blue_Plus_Dots_2.jpg,left,703.0950000043958,false,high,false
icuNshgs,3wa2xvdzfpuo2njsi9v42o7kc6t6eh,337rc3ow09fpa36fr5vigv9urzsvlb,icuNshgs,2020-0188,2020-06-15,18:57:53,19:17:50,NA,incomplete,202,number,1,left,Blue_Circle_Chess_1.jpg,Purple_Plus_Grid_1.jpg,Red_Circle_Stripes_3.jpg,left,898.9999999757856,true,high,false
icuNshgs,3wa2xvdzfpuo2njsi9v42o7kc6t6eh,337rc3ow09fpa36fr5vigv9urzsvlb,icuNshgs,2020-0188,2020-06-15,18:57:53,19:17:50,NA,incomplete,203,number,1,right,Red_Circle_Chess_3.jpg,Blue_Circle_Grid_4.jpg,Green_Star_Stripes_3.jpg,right,935.9450000338256,true,high,false
icuNshgs,3wa2xvdzfpuo2njsi9v42o7kc6t6eh,337rc3ow09fpa36fr5vigv9urzsvlb,icuNshgs,2020-0188,2020-06-15,18:57:53,19:17:50,NA,incomplete,204,number,1,left,Green_Circle_Chess_2.jpg,Blue_Star_Stripes_2.jpg,Purple_Circle_Dots_4.jpg,left,961.4049999509007,true,high,false
icuNshgs,3wa2xvdzfpuo2njsi9v42o7kc6t6eh,337rc3ow09fpa36fr5vigv9urzsvlb,icuNshgs,2020-0188,2020-06-15,18:57:53,19:17:50,NA,incomplete,205,number,1,right,Blue_Circle_Dots_2.jpg,Green_Circle_Grid_1.jpg,Red_Triangle_Chess_2.jpg,right,940.7250001095235,true,high,false
icuNshgs,3wa2xvdzfpuo2njsi9v42o7kc6t6eh,337rc3ow09fpa36fr5vigv9urzsvlb,icuNshgs,2020-0188,2020-06-15,18:57:53,19:17:50,NA,incomplete,206,number,1,left,Red_Plus_Stripes_4.jpg,Blue_Triangle_Dots_4.jpg,Green_Plus_Chess_2.jpg,left,1565.100000007078,true,high,false
icuNshgs,3wa2xvdzfpuo2njsi9v42o7kc6t6eh,337rc3ow09fpa36fr5vigv9urzsvlb,icuNshgs,2020-0188,2020-06-15,18:57:53,19:17:50,NA,incomplete,207,number,1,right,Blue_Triangle_Dots_1.jpg,Purple_Triangle_Stripes_2.jpg,Green_Plus_Chess_1.jpg,right,1133.4400000050664,true,high,false
icuNshgs,3wa2xvdzfpuo2njsi9v42o7kc6t6eh,337rc3ow09fpa36fr5vigv9urzsvlb,icuNshgs,2020-0188,2020-06-15,18:57:53,19:17:50,NA,incomplete,208,number,1,left,Green_Circle_Chess_1.jpg,Blue_Plus_Stripes_1.jpg,Purple_Circle_Grid_3.jpg,left,1127.9299999587238,true,high,false
icuNshgs,3wa2xvdzfpuo2njsi9v42o7kc6t6eh,337rc3ow09fpa36fr5vigv9urzsvlb,icuNshgs,2020-0188,2020-06-15,18:57:53,19:17:50,NA,incomplete,209,number,1,left,Purple_Plus_Grid_3.jpg,Red_Circle_Dots_3.jpg,Blue_Plus_Chess_2.jpg,left,1517.1600000467151,true,high,false
icuNshgs,3wa2xvdzfpuo2njsi9v42o7kc6t6eh,337rc3ow09fpa36fr5vigv9urzsvlb,icuNshgs,2020-0188,2020-06-15,18:57:53,19:17:50,NA,incomplete,210,number,1,left,Purple_Circle_Stripes_3.jpg,Red_Plus_Grid_3.jpg,Green_Circle_Dots_1.jpg,left,900.9349998086691,true,high,false
icuNshgs,3wa2xvdzfpuo2njsi9v42o7kc6t6eh,337rc3ow09fpa36fr5vigv9urzsvlb,icuNshgs,2020-0188,2020-06-15,18:57:53,19:17:50,NA,incomplete,211,number,0,right,Red_Triangle_Grid_4.jpg,Purple_Triangle_Chess_1.jpg,Green_Star_Dots_4.jpg,right,1008.8049999903888,true,high,false
icuNshgs,3wa2xvdzfpuo2njsi9v42o7kc6t6eh,337rc3ow09fpa36fr5vigv9urzsvlb,icuNshgs,2020-0188,2020-06-15,18:57:53,19:17:50,NA,incomplete,212,number,1,left,Purple_Triangle_Grid_3.jpg,Red_Star_Chess_3.jpg,Blue_Triangle_Stripes_4.jpg,left,1250.8600000292063,true,high,false
icuNshgs,3wa2xvdzfpuo2njsi9v42o7kc6t6eh,337rc3ow09fpa36fr5vigv9urzsvlb,icuNshgs,2020-0188,2020-06-15,18:57:53,19:17:50,NA,incomplete,213,number,1,left,Green_Plus_Chess_3.jpg,Blue_Circle_Stripes_3.jpg,Purple_Plus_Grid_4.jpg,left,1072.9400001000613,true,high,false
icuNshgs,3wa2xvdzfpuo2njsi9v42o7kc6t6eh,337rc3ow09fpa36fr5vigv9urzsvlb,icuNshgs,2020-0188,2020-06-15,18:57:53,19:17:50,NA,incomplete,214,number,1,left,Red_Triangle_Grid_4.jpg,Blue_Circle_Dots_4.jpg,Purple_Triangle_Chess_1.jpg,left,1188.774999929592,true,high,false
icuNshgs,3wa2xvdzfpuo2njsi9v42o7kc6t6eh,337rc3ow09fpa36fr5vigv9urzsvlb,icuNshgs,2020-0188,2020-06-15,18:57:53,19:17:50,NA,incomplete,215,number,1,left,Blue_Circle_Chess_2.jpg,Purple_Plus_Stripes_2.jpg,Green_Circle_Dots_4.jpg,left,714.7049999330193,true,high,false
icuNshgs,3wa2xvdzfpuo2njsi9v42o7kc6t6eh,337rc3ow09fpa36fr5vigv9urzsvlb,icuNshgs,2020-0188,2020-06-15,18:57:53,19:17:50,NA,incomplete,216,number,1,left,Purple_Triangle_Dots_2.jpg,Green_Circle_Grid_2.jpg,Blue_Triangle_Stripes_4.jpg,left,1231.025000102818,true,high,false
icuNshgs,3wa2xvdzfpuo2njsi9v42o7kc6t6eh,337rc3ow09fpa36fr5vigv9urzsvlb,icuNshgs,2020-0188,2020-06-15,18:57:53,19:17:50,NA,incomplete,217,number,1,left,Red_Star_Stripes_1.jpg,Green_Circle_Grid_1.jpg,Blue_Star_Dots_2.jpg,left,936.625000089407,true,high,false
icuNshgs,3wa2xvdzfpuo2njsi9v42o7kc6t6eh,337rc3ow09fpa36fr5vigv9urzsvlb,icuNshgs,2020-0188,2020-06-15,18:57:53,19:17:50,NA,incomplete,218,number,1,left,Red_Circle_Stripes_1.jpg,Blue_Star_Grid_1.jpg,Green_Circle_Dots_4.jpg,left,831.2500000465661,true,high,false
icuNshgs,3wa2xvdzfpuo2njsi9v42o7kc6t6eh,337rc3ow09fpa36fr5vigv9urzsvlb,icuNshgs,2020-0188,2020-06-15,18:57:53,19:17:50,NA,incomplete,219,number,1,right,Green_Triangle_Grid_1.jpg,Red_Triangle_Stripes_3.jpg,Purple_Circle_Chess_1.jpg,right,814.3400000408292,true,high,false
icuNshgs,3wa2xvdzfpuo2njsi9v42o7kc6t6eh,337rc3ow09fpa36fr5vigv9urzsvlb,icuNshgs,2020-0188,2020-06-15,18:57:53,19:17:50,NA,incomplete,220,shape,1,left,Green_Star_Dots_4.jpg,Blue_Star_Chess_2.jpg,Red_Circle_Grid_4.jpg,right,1158.1800000276417,false,high,false
icuNshgs,3wa2xvdzfpuo2njsi9v42o7kc6t6eh,337rc3ow09fpa36fr5vigv9urzsvlb,icuNshgs,2020-0188,2020-06-15,18:57:53,19:17:50,NA,incomplete,221,shape,1,left,Purple_Triangle_Dots_2.jpg,Green_Triangle_Stripes_4.jpg,Blue_Star_Chess_2.jpg,right,903.3900001086295,false,high,false
icuNshgs,3wa2xvdzfpuo2njsi9v42o7kc6t6eh,337rc3ow09fpa36fr5vigv9urzsvlb,icuNshgs,2020-0188,2020-06-15,18:57:53,19:17:50,NA,incomplete,222,shape,1,left,Green_Star_Dots_1.jpg,Blue_Star_Stripes_4.jpg,Red_Plus_Grid_1.jpg,left,669.1699998918921,true,high,false
icuNshgs,3wa2xvdzfpuo2njsi9v42o7kc6t6eh,337rc3ow09fpa36fr5vigv9urzsvlb,icuNshgs,2020-0188,2020-06-15,18:57:53,19:17:50,NA,incomplete,223,shape,1,left,Purple_Plus_Grid_1.jpg,Red_Plus_Chess_3.jpg,Green_Triangle_Dots_1.jpg,left,1184.0299998875707,true,high,false
icuNshgs,3wa2xvdzfpuo2njsi9v42o7kc6t6eh,337rc3ow09fpa36fr5vigv9urzsvlb,icuNshgs,2020-0188,2020-06-15,18:57:53,19:17:50,NA,incomplete,224,shape,1,right,Green_Plus_Grid_2.jpg,Blue_Star_Chess_2.jpg,Purple_Plus_Stripes_3.jpg,right,944.5449998602271,true,high,false
icuNshgs,3wa2xvdzfpuo2njsi9v42o7kc6t6eh,337rc3ow09fpa36fr5vigv9urzsvlb,icuNshgs,2020-0188,2020-06-15,18:57:53,19:17:50,NA,incomplete,225,shape,0,left,Blue_Star_Chess_4.jpg,Red_Star_Dots_2.jpg,Green_Triangle_Grid_4.jpg,left,1250.874999910593,true,high,false
icuNshgs,3wa2xvdzfpuo2njsi9v42o7kc6t6eh,337rc3ow09fpa36fr5vigv9urzsvlb,icuNshgs,2020-0188,2020-06-15,18:57:53,19:17:50,NA,incomplete,226,shape,1,left,Red_Star_Chess_4.jpg,Purple_Star_Dots_2.jpg,Green_Circle_Stripes_4.jpg,left,723.3349999878556,true,high,false
icuNshgs,3wa2xvdzfpuo2njsi9v42o7kc6t6eh,337rc3ow09fpa36fr5vigv9urzsvlb,icuNshgs,2020-0188,2020-06-15,18:57:53,19:17:50,NA,incomplete,227,shape,0,right,Green_Circle_Stripes_4.jpg,Blue_Star_Dots_4.jpg,Red_Circle_Grid_1.jpg,right,987.3500000685453,true,high,false
icuNshgs,3wa2xvdzfpuo2njsi9v42o7kc6t6eh,337rc3ow09fpa36fr5vigv9urzsvlb,icuNshgs,2020-0188,2020-06-15,18:57:53,19:17:50,NA,incomplete,228,shape,1,right,Green_Circle_Dots_4.jpg,Blue_Star_Grid_4.jpg,Red_Circle_Chess_1.jpg,right,836.1450000666082,true,high,false
icuNshgs,3wa2xvdzfpuo2njsi9v42o7kc6t6eh,337rc3ow09fpa36fr5vigv9urzsvlb,icuNshgs,2020-0188,2020-06-15,18:57:53,19:17:50,NA,incomplete,229,shape,1,right,Purple_Triangle_Dots_2.jpg,Green_Circle_Chess_2.jpg,Red_Triangle_Grid_3.jpg,right,833.7049998808652,true,high,false
icuNshgs,3wa2xvdzfpuo2njsi9v42o7kc6t6eh,337rc3ow09fpa36fr5vigv9urzsvlb,icuNshgs,2020-0188,2020-06-15,18:57:53,19:17:50,NA,incomplete,230,shape,1,right,Red_Plus_Stripes_4.jpg,Green_Circle_Dots_4.jpg,Blue_Plus_Chess_3.jpg,right,744.6900000795722,true,high,false
icuNshgs,3wa2xvdzfpuo2njsi9v42o7kc6t6eh,337rc3ow09fpa36fr5vigv9urzsvlb,icuNshgs,2020-0188,2020-06-15,18:57:53,19:17:50,NA,incomplete,231,shape,1,left,Blue_Star_Stripes_4.jpg,Green_Star_Chess_3.jpg,Red_Plus_Grid_4.jpg,left,1101.8550000153482,true,high,false
icuNshgs,3wa2xvdzfpuo2njsi9v42o7kc6t6eh,337rc3ow09fpa36fr5vigv9urzsvlb,icuNshgs,2020-0188,2020-06-15,18:57:53,19:17:50,NA,incomplete,232,shape,0,left,Purple_Star_Dots_2.jpg,Red_Star_Stripes_4.jpg,Green_Plus_Chess_2.jpg,left,623.0800000485033,true,high,false
icuNshgs,3wa2xvdzfpuo2njsi9v42o7kc6t6eh,337rc3ow09fpa36fr5vigv9urzsvlb,icuNshgs,2020-0188,2020-06-15,18:57:53,19:17:50,NA,incomplete,233,shape,1,left,Purple_Circle_Chess_4.jpg,Blue_Circle_Grid_3.jpg,Green_Triangle_Dots_4.jpg,left,766.8550000526011,true,high,false
icuNshgs,3wa2xvdzfpuo2njsi9v42o7kc6t6eh,337rc3ow09fpa36fr5vigv9urzsvlb,icuNshgs,2020-0188,2020-06-15,18:57:53,19:17:50,NA,incomplete,234,shape,1,left,Red_Triangle_Stripes_4.jpg,Green_Triangle_Grid_3.jpg,Blue_Plus_Chess_4.jpg,left,688.4900000877678,true,high,false
icuNshgs,3wa2xvdzfpuo2njsi9v42o7kc6t6eh,337rc3ow09fpa36fr5vigv9urzsvlb,icuNshgs,2020-0188,2020-06-15,18:57:53,19:17:50,NA,incomplete,235,shape,1,right,Blue_Circle_Stripes_3.jpg,Purple_Triangle_Grid_3.jpg,Red_Circle_Dots_2.jpg,right,901.2100000400096,true,high,false
icuNshgs,3wa2xvdzfpuo2njsi9v42o7kc6t6eh,337rc3ow09fpa36fr5vigv9urzsvlb,icuNshgs,2020-0188,2020-06-15,18:57:53,19:17:50,NA,incomplete,236,shape,1,left,Blue_Circle_Stripes_3.jpg,Green_Circle_Dots_4.jpg,Red_Star_Grid_3.jpg,left,683.6349999066442,true,high,false
icuNshgs,3wa2xvdzfpuo2njsi9v42o7kc6t6eh,337rc3ow09fpa36fr5vigv9urzsvlb,icuNshgs,2020-0188,2020-06-15,18:57:53,19:17:50,NA,incomplete,237,shape,0,left,Purple_Triangle_Stripes_1.jpg,Red_Triangle_Dots_2.jpg,Green_Circle_Grid_1.jpg,left,654.880000045523,true,high,false
icuNshgs,3wa2xvdzfpuo2njsi9v42o7kc6t6eh,337rc3ow09fpa36fr5vigv9urzsvlb,icuNshgs,2020-0188,2020-06-15,18:57:53,19:17:50,NA,incomplete,238,shape,1,left,Purple_Triangle_Stripes_3.jpg,Green_Triangle_Chess_1.jpg,Red_Plus_Grid_3.jpg,left,708.5199998691678,true,high,false
icuNshgs,3wa2xvdzfpuo2njsi9v42o7kc6t6eh,337rc3ow09fpa36fr5vigv9urzsvlb,icuNshgs,2020-0188,2020-06-15,18:57:53,19:17:50,NA,incomplete,239,shape,1,right,Purple_Star_Dots_1.jpg,Green_Plus_Grid_1.jpg,Blue_Star_Stripes_2.jpg,right,608.6000001523644,true,high,false
icuNshgs,3wa2xvdzfpuo2njsi9v42o7kc6t6eh,337rc3ow09fpa36fr5vigv9urzsvlb,icuNshgs,2020-0188,2020-06-15,18:57:53,19:17:50,NA,NA,instruction example,color,NA,NA,Purple_Triangle_Grid_2.jpg,Purple_Star_Dots_1.jpg,Blue_Plus_Grid_4.jpg,NA,NA,NA,NA,undefined
icuNshgs,3wa2xvdzfpuo2njsi9v42o7kc6t6eh,337rc3ow09fpa36fr5vigv9urzsvlb,icuNshgs,2020-0188,2020-06-15,18:57:53,19:17:50,NA,NA,instruction example,color,NA,NA,Blue_Triangle_Stripes_2.jpg,Green_Star_Stripes_1.jpg,Blue_Circle_Grid_3.jpg,NA,NA,NA,NA,undefined
icuNshgs,3wa2xvdzfpuo2njsi9v42o7kc6t6eh,337rc3ow09fpa36fr5vigv9urzsvlb,icuNshgs,2020-0188,2020-06-15,18:57:53,19:17:50,NA,NA,instruction example,color,NA,NA,Red_Star_Stripes_3.jpg,Purple_Triangle_Chess_3.jpg,Green_Star_Grid_1.jpg,NA,NA,NA,NA,undefined
icuNshgs,3wa2xvdzfpuo2njsi9v42o7kc6t6eh,337rc3ow09fpa36fr5vigv9urzsvlb,icuNshgs,2020-0188,2020-06-15,18:57:53,19:17:50,NA,NA,instruction example,color,NA,NA,Blue_Star_Grid_4.jpg,Green_Star_Dots_2.jpg,Purple_Circle_Chess_4.jpg,NA,NA,NA,NA,undefined
icuNshgs,3wa2xvdzfpuo2njsi9v42o7kc6t6eh,337rc3ow09fpa36fr5vigv9urzsvlb,icuNshgs,2020-0188,2020-06-15,18:57:53,19:17:50,1164607.7900000382,1197126.4400000218,NA,NA,NA,NA,NA,NA,NA,NA,NA,NA,NA,undefined
