workerId,hitId,assignmentId,subject,studyid,exp_date,exp_start,exp_end,time_start,time_end,trial,type,reward_validity,answer,image_top,image_left,image_right,response,response_time,response_acc,volatility,age,race,gender,ethnicity,color,vision,neuro,practice
lObkxNOc,3j6bhnx0vc5zv8hudcso2u6bq3dnka,339ansotr9f94r4x7ykym66lq3xikc,lObkxNOc,2020-0188,2020-05-21,14:48:47,15:09:24,NA,incomplete,0,filling,0,left,Purple_Triangle_Chess_3.jpg,Blue_Plus_Chess_1.jpg,Purple_Circle_Stripes_2.jpg,left,1513.6500000953674,true,NA,NA,NA,NA,NA,NA,NA,NA,true
lObkxNOc,3j6bhnx0vc5zv8hudcso2u6bq3dnka,339ansotr9f94r4x7ykym66lq3xikc,lObkxNOc,2020-0188,2020-05-21,14:48:47,15:09:24,NA,incomplete,1,filling,1,left,Purple_Plus_Stripes_2.jpg,Blue_Circle_Stripes_4.jpg,Purple_Star_Chess_1.jpg,left,1489.9949999526143,true,NA,NA,NA,NA,NA,NA,NA,NA,true
lObkxNOc,3j6bhnx0vc5zv8hudcso2u6bq3dnka,339ansotr9f94r4x7ykym66lq3xikc,lObkxNOc,2020-0188,2020-05-21,14:48:47,15:09:24,NA,incomplete,2,filling,0,left,Red_Triangle_Chess_3.jpg,Purple_Circle_Chess_2.jpg,Red_Plus_Stripes_4.jpg,left,1011.4550001453608,true,NA,NA,NA,NA,NA,NA,NA,NA,true
lObkxNOc,3j6bhnx0vc5zv8hudcso2u6bq3dnka,339ansotr9f94r4x7ykym66lq3xikc,lObkxNOc,2020-0188,2020-05-21,14:48:47,15:09:24,NA,incomplete,3,filling,1,right,Red_Plus_Chess_1.jpg,Red_Triangle_Stripes_4.jpg,Green_Star_Chess_3.jpg,right,1041.620000032708,true,NA,NA,NA,NA,NA,NA,NA,NA,true
lObkxNOc,3j6bhnx0vc5zv8hudcso2u6bq3dnka,339ansotr9f94r4x7ykym66lq3xikc,lObkxNOc,2020-0188,2020-05-21,14:48:47,15:09:24,NA,incomplete,4,filling,1,left,Green_Circle_Stripes_3.jpg,Red_Plus_Stripes_4.jpg,Green_Triangle_Grid_2.jpg,right,1019.425000064075,false,NA,NA,NA,NA,NA,NA,NA,NA,true
lObkxNOc,3j6bhnx0vc5zv8hudcso2u6bq3dnka,339ansotr9f94r4x7ykym66lq3xikc,lObkxNOc,2020-0188,2020-05-21,14:48:47,15:09:24,NA,incomplete,5,filling,1,left,Green_Star_Chess_1.jpg,Blue_Plus_Chess_3.jpg,Green_Circle_Grid_2.jpg,left,902.7050000149757,true,NA,NA,NA,NA,NA,NA,NA,NA,true
lObkxNOc,3j6bhnx0vc5zv8hudcso2u6bq3dnka,339ansotr9f94r4x7ykym66lq3xikc,lObkxNOc,2020-0188,2020-05-21,14:48:47,15:09:24,NA,incomplete,6,filling,1,left,Blue_Triangle_Chess_1.jpg,Green_Star_Chess_4.jpg,Blue_Plus_Dots_3.jpg,left,855.5300000589341,true,NA,NA,NA,NA,NA,NA,NA,NA,true
lObkxNOc,3j6bhnx0vc5zv8hudcso2u6bq3dnka,339ansotr9f94r4x7ykym66lq3xikc,lObkxNOc,2020-0188,2020-05-21,14:48:47,15:09:24,NA,incomplete,7,filling,1,left,Green_Triangle_Chess_1.jpg,Red_Circle_Chess_2.jpg,Green_Plus_Dots_4.jpg,left,722.5900001358241,true,NA,NA,NA,NA,NA,NA,NA,NA,true
lObkxNOc,3j6bhnx0vc5zv8hudcso2u6bq3dnka,339ansotr9f94r4x7ykym66lq3xikc,lObkxNOc,2020-0188,2020-05-21,14:48:47,15:09:24,NA,incomplete,8,filling,1,left,Red_Circle_Stripes_3.jpg,Blue_Triangle_Stripes_2.jpg,Red_Plus_Chess_1.jpg,left,811.6750000044703,true,NA,NA,NA,NA,NA,NA,NA,NA,true
lObkxNOc,3j6bhnx0vc5zv8hudcso2u6bq3dnka,339ansotr9f94r4x7ykym66lq3xikc,lObkxNOc,2020-0188,2020-05-21,14:48:47,15:09:24,NA,incomplete,9,filling,1,left,Red_Star_Dots_1.jpg,Blue_Triangle_Dots_3.jpg,Red_Circle_Chess_2.jpg,left,1135.5400001630187,true,NA,NA,NA,NA,NA,NA,NA,NA,true
lObkxNOc,3j6bhnx0vc5zv8hudcso2u6bq3dnka,339ansotr9f94r4x7ykym66lq3xikc,lObkxNOc,2020-0188,2020-05-21,14:48:47,15:09:24,NA,incomplete,10,filling,1,left,Purple_Circle_Grid_3.jpg,Green_Triangle_Grid_4.jpg,Purple_Plus_Dots_2.jpg,left,997.8850001934916,true,NA,NA,NA,NA,NA,NA,NA,NA,true
lObkxNOc,3j6bhnx0vc5zv8hudcso2u6bq3dnka,339ansotr9f94r4x7ykym66lq3xikc,lObkxNOc,2020-0188,2020-05-21,14:48:47,15:09:24,NA,incomplete,11,filling,1,left,Green_Star_Stripes_3.jpg,Blue_Plus_Stripes_4.jpg,Green_Triangle_Dots_2.jpg,left,779.17500003241,true,NA,NA,NA,NA,NA,NA,NA,NA,true
lObkxNOc,3j6bhnx0vc5zv8hudcso2u6bq3dnka,339ansotr9f94r4x7ykym66lq3xikc,lObkxNOc,2020-0188,2020-05-21,14:48:47,15:09:24,NA,incomplete,12,filling,1,left,Purple_Plus_Dots_3.jpg,Blue_Star_Dots_2.jpg,Purple_Triangle_Stripes_4.jpg,left,785.6449999380857,true,NA,NA,NA,NA,NA,NA,NA,NA,true
lObkxNOc,3j6bhnx0vc5zv8hudcso2u6bq3dnka,339ansotr9f94r4x7ykym66lq3xikc,lObkxNOc,2020-0188,2020-05-21,14:48:47,15:09:24,NA,incomplete,13,filling,0,right,Blue_Triangle_Stripes_1.jpg,Blue_Circle_Chess_2.jpg,Red_Star_Stripes_4.jpg,right,832.0849998854101,true,NA,NA,NA,NA,NA,NA,NA,NA,true
lObkxNOc,3j6bhnx0vc5zv8hudcso2u6bq3dnka,339ansotr9f94r4x7ykym66lq3xikc,lObkxNOc,2020-0188,2020-05-21,14:48:47,15:09:24,NA,incomplete,14,filling,0,right,Blue_Star_Stripes_4.jpg,Blue_Circle_Grid_2.jpg,Green_Plus_Stripes_1.jpg,left,730.9799999929965,false,NA,NA,NA,NA,NA,NA,NA,NA,true
lObkxNOc,3j6bhnx0vc5zv8hudcso2u6bq3dnka,339ansotr9f94r4x7ykym66lq3xikc,lObkxNOc,2020-0188,2020-05-21,14:48:47,15:09:24,NA,incomplete,15,filling,1,left,Blue_Triangle_Grid_1.jpg,Purple_Star_Grid_3.jpg,Blue_Plus_Dots_2.jpg,left,1530.945000005886,true,NA,NA,NA,NA,NA,NA,NA,NA,true
lObkxNOc,3j6bhnx0vc5zv8hudcso2u6bq3dnka,339ansotr9f94r4x7ykym66lq3xikc,lObkxNOc,2020-0188,2020-05-21,14:48:47,15:09:24,NA,incomplete,16,filling,1,left,Blue_Triangle_Stripes_2.jpg,Purple_Circle_Stripes_4.jpg,Blue_Plus_Chess_1.jpg,left,738.880000077188,true,NA,NA,NA,NA,NA,NA,NA,NA,true
lObkxNOc,3j6bhnx0vc5zv8hudcso2u6bq3dnka,339ansotr9f94r4x7ykym66lq3xikc,lObkxNOc,2020-0188,2020-05-21,14:48:47,15:09:24,NA,incomplete,17,filling,1,right,Green_Plus_Grid_3.jpg,Green_Triangle_Chess_4.jpg,Purple_Circle_Grid_1.jpg,right,1067.0549999922514,true,NA,NA,NA,NA,NA,NA,NA,NA,true
lObkxNOc,3j6bhnx0vc5zv8hudcso2u6bq3dnka,339ansotr9f94r4x7ykym66lq3xikc,lObkxNOc,2020-0188,2020-05-21,14:48:47,15:09:24,NA,incomplete,18,filling,1,right,Blue_Star_Grid_2.jpg,Blue_Circle_Stripes_1.jpg,Red_Plus_Grid_3.jpg,right,748.4150000382215,true,NA,NA,NA,NA,NA,NA,NA,NA,true
lObkxNOc,3j6bhnx0vc5zv8hudcso2u6bq3dnka,339ansotr9f94r4x7ykym66lq3xikc,lObkxNOc,2020-0188,2020-05-21,14:48:47,15:09:24,NA,incomplete,19,filling,1,left,Purple_Circle_Dots_1.jpg,Blue_Plus_Dots_4.jpg,Purple_Triangle_Chess_2.jpg,left,818.944999948144,true,NA,NA,NA,NA,NA,NA,NA,NA,true
lObkxNOc,3j6bhnx0vc5zv8hudcso2u6bq3dnka,339ansotr9f94r4x7ykym66lq3xikc,lObkxNOc,2020-0188,2020-05-21,14:48:47,15:09:24,NA,incomplete,20,color,1,right,Green_Star_Dots_2.jpg,Purple_Plus_Dots_4.jpg,Green_Triangle_Grid_3.jpg,left,759.2849999200553,false,NA,NA,NA,NA,NA,NA,NA,NA,true
lObkxNOc,3j6bhnx0vc5zv8hudcso2u6bq3dnka,339ansotr9f94r4x7ykym66lq3xikc,lObkxNOc,2020-0188,2020-05-21,14:48:47,15:09:24,NA,incomplete,21,color,0,right,Blue_Triangle_Chess_3.jpg,Purple_Star_Chess_2.jpg,Blue_Circle_Stripes_1.jpg,right,821.4900000020862,true,NA,NA,NA,NA,NA,NA,NA,NA,true
lObkxNOc,3j6bhnx0vc5zv8hudcso2u6bq3dnka,339ansotr9f94r4x7ykym66lq3xikc,lObkxNOc,2020-0188,2020-05-21,14:48:47,15:09:24,NA,incomplete,22,color,1,right,Blue_Star_Grid_1.jpg,Purple_Plus_Grid_3.jpg,Blue_Triangle_Chess_4.jpg,right,538.230000063777,true,NA,NA,NA,NA,NA,NA,NA,NA,true
lObkxNOc,3j6bhnx0vc5zv8hudcso2u6bq3dnka,339ansotr9f94r4x7ykym66lq3xikc,lObkxNOc,2020-0188,2020-05-21,14:48:47,15:09:24,NA,incomplete,23,color,1,right,Purple_Circle_Stripes_4.jpg,Blue_Plus_Stripes_1.jpg,Purple_Triangle_Grid_3.jpg,right,656.7600001581013,true,NA,NA,NA,NA,NA,NA,NA,NA,true
lObkxNOc,3j6bhnx0vc5zv8hudcso2u6bq3dnka,339ansotr9f94r4x7ykym66lq3xikc,lObkxNOc,2020-0188,2020-05-21,14:48:47,15:09:24,NA,incomplete,24,color,1,right,Purple_Plus_Stripes_2.jpg,Green_Circle_Stripes_1.jpg,Purple_Star_Chess_3.jpg,right,483.5800000000745,true,NA,NA,NA,NA,NA,NA,NA,NA,true
lObkxNOc,3j6bhnx0vc5zv8hudcso2u6bq3dnka,339ansotr9f94r4x7ykym66lq3xikc,lObkxNOc,2020-0188,2020-05-21,14:48:47,15:09:24,NA,incomplete,25,color,0,right,Red_Triangle_Stripes_3.jpg,Purple_Plus_Stripes_4.jpg,Red_Circle_Grid_1.jpg,right,525.5700000561774,true,NA,NA,NA,NA,NA,NA,NA,NA,true
lObkxNOc,3j6bhnx0vc5zv8hudcso2u6bq3dnka,339ansotr9f94r4x7ykym66lq3xikc,lObkxNOc,2020-0188,2020-05-21,14:48:47,15:09:24,NA,incomplete,26,color,1,right,Green_Triangle_Stripes_2.jpg,Blue_Circle_Stripes_3.jpg,Green_Star_Grid_1.jpg,right,749.2649999912828,true,NA,NA,NA,NA,NA,NA,NA,NA,true
lObkxNOc,3j6bhnx0vc5zv8hudcso2u6bq3dnka,339ansotr9f94r4x7ykym66lq3xikc,lObkxNOc,2020-0188,2020-05-21,14:48:47,15:09:24,NA,incomplete,27,color,1,left,Purple_Star_Grid_1.jpg,Purple_Plus_Dots_2.jpg,Blue_Circle_Grid_3.jpg,left,589.2949998378754,true,NA,NA,NA,NA,NA,NA,NA,NA,true
lObkxNOc,3j6bhnx0vc5zv8hudcso2u6bq3dnka,339ansotr9f94r4x7ykym66lq3xikc,lObkxNOc,2020-0188,2020-05-21,14:48:47,15:09:24,NA,incomplete,28,color,1,right,Green_Triangle_Dots_2.jpg,Blue_Star_Dots_1.jpg,Green_Circle_Stripes_3.jpg,right,489.2400000244379,true,NA,NA,NA,NA,NA,NA,NA,NA,true
lObkxNOc,3j6bhnx0vc5zv8hudcso2u6bq3dnka,339ansotr9f94r4x7ykym66lq3xikc,lObkxNOc,2020-0188,2020-05-21,14:48:47,15:09:24,NA,incomplete,29,color,1,right,Red_Circle_Dots_3.jpg,Blue_Plus_Dots_1.jpg,Red_Triangle_Chess_2.jpg,right,698.6299999989569,true,NA,NA,NA,NA,NA,NA,NA,NA,true
lObkxNOc,3j6bhnx0vc5zv8hudcso2u6bq3dnka,339ansotr9f94r4x7ykym66lq3xikc,lObkxNOc,2020-0188,2020-05-21,14:48:47,15:09:24,NA,incomplete,30,color,1,left,Green_Star_Chess_1.jpg,Green_Plus_Dots_4.jpg,Red_Triangle_Chess_2.jpg,left,618.8099998980761,true,NA,NA,NA,NA,NA,NA,NA,NA,true
lObkxNOc,3j6bhnx0vc5zv8hudcso2u6bq3dnka,339ansotr9f94r4x7ykym66lq3xikc,lObkxNOc,2020-0188,2020-05-21,14:48:47,15:09:24,NA,incomplete,31,color,1,right,Blue_Triangle_Chess_1.jpg,Red_Plus_Chess_2.jpg,Blue_Star_Stripes_3.jpg,right,575.5399998743087,true,NA,NA,NA,NA,NA,NA,NA,NA,true
lObkxNOc,3j6bhnx0vc5zv8hudcso2u6bq3dnka,339ansotr9f94r4x7ykym66lq3xikc,lObkxNOc,2020-0188,2020-05-21,14:48:47,15:09:24,NA,incomplete,32,color,1,right,Green_Triangle_Grid_3.jpg,Purple_Plus_Grid_2.jpg,Green_Star_Dots_4.jpg,right,534.4150001183152,true,NA,NA,NA,NA,NA,NA,NA,NA,true
lObkxNOc,3j6bhnx0vc5zv8hudcso2u6bq3dnka,339ansotr9f94r4x7ykym66lq3xikc,lObkxNOc,2020-0188,2020-05-21,14:48:47,15:09:24,NA,incomplete,33,color,1,right,Green_Star_Dots_1.jpg,Purple_Plus_Dots_2.jpg,Green_Triangle_Stripes_4.jpg,right,851.9899998791516,true,NA,NA,NA,NA,NA,NA,NA,NA,true
lObkxNOc,3j6bhnx0vc5zv8hudcso2u6bq3dnka,339ansotr9f94r4x7ykym66lq3xikc,lObkxNOc,2020-0188,2020-05-21,14:48:47,15:09:24,NA,incomplete,34,color,1,right,Purple_Circle_Stripes_1.jpg,Red_Star_Stripes_4.jpg,Purple_Plus_Dots_2.jpg,right,623.3099999371916,true,NA,NA,NA,NA,NA,NA,NA,NA,true
lObkxNOc,3j6bhnx0vc5zv8hudcso2u6bq3dnka,339ansotr9f94r4x7ykym66lq3xikc,lObkxNOc,2020-0188,2020-05-21,14:48:47,15:09:24,NA,incomplete,35,color,1,right,Red_Triangle_Grid_2.jpg,Purple_Plus_Grid_3.jpg,Red_Star_Chess_4.jpg,right,619.0049999859184,true,NA,NA,NA,NA,NA,NA,NA,NA,true
lObkxNOc,3j6bhnx0vc5zv8hudcso2u6bq3dnka,339ansotr9f94r4x7ykym66lq3xikc,lObkxNOc,2020-0188,2020-05-21,14:48:47,15:09:24,NA,incomplete,36,color,1,right,Blue_Circle_Grid_1.jpg,Red_Plus_Grid_2.jpg,Blue_Star_Chess_4.jpg,right,1246.9300001394004,true,NA,NA,NA,NA,NA,NA,NA,NA,true
lObkxNOc,3j6bhnx0vc5zv8hudcso2u6bq3dnka,339ansotr9f94r4x7ykym66lq3xikc,lObkxNOc,2020-0188,2020-05-21,14:48:47,15:09:24,NA,incomplete,37,color,0,right,Red_Plus_Grid_1.jpg,Blue_Star_Grid_3.jpg,Red_Triangle_Dots_4.jpg,right,538.3450000081211,true,NA,NA,NA,NA,NA,NA,NA,NA,true
lObkxNOc,3j6bhnx0vc5zv8hudcso2u6bq3dnka,339ansotr9f94r4x7ykym66lq3xikc,lObkxNOc,2020-0188,2020-05-21,14:48:47,15:09:24,NA,incomplete,38,color,1,right,Purple_Plus_Stripes_4.jpg,Red_Star_Stripes_2.jpg,Purple_Circle_Chess_1.jpg,right,601.3550001662225,true,NA,NA,NA,NA,NA,NA,NA,NA,true
lObkxNOc,3j6bhnx0vc5zv8hudcso2u6bq3dnka,339ansotr9f94r4x7ykym66lq3xikc,lObkxNOc,2020-0188,2020-05-21,14:48:47,15:09:24,NA,incomplete,39,color,0,left,Blue_Star_Grid_3.jpg,Blue_Triangle_Dots_2.jpg,Red_Circle_Grid_1.jpg,left,565.0549998972565,true,NA,NA,NA,NA,NA,NA,NA,NA,true
lObkxNOc,3j6bhnx0vc5zv8hudcso2u6bq3dnka,339ansotr9f94r4x7ykym66lq3xikc,lObkxNOc,2020-0188,2020-05-21,14:48:47,15:09:24,NA,incomplete,0,filling,1,left,Red_Plus_Grid_1.jpg,Purple_Circle_Grid_3.jpg,Red_Triangle_Chess_4.jpg,right,1137.4800000339746,false,low,NA,NA,NA,NA,NA,NA,NA,false
lObkxNOc,3j6bhnx0vc5zv8hudcso2u6bq3dnka,339ansotr9f94r4x7ykym66lq3xikc,lObkxNOc,2020-0188,2020-05-21,14:48:47,15:09:24,NA,incomplete,1,filling,1,right,Blue_Circle_Dots_2.jpg,Blue_Plus_Chess_1.jpg,Purple_Triangle_Dots_3.jpg,right,1208.474999992177,true,low,NA,NA,NA,NA,NA,NA,NA,false
lObkxNOc,3j6bhnx0vc5zv8hudcso2u6bq3dnka,339ansotr9f94r4x7ykym66lq3xikc,lObkxNOc,2020-0188,2020-05-21,14:48:47,15:09:24,NA,incomplete,2,filling,0,right,Blue_Triangle_Stripes_1.jpg,Blue_Circle_Chess_2.jpg,Red_Star_Stripes_3.jpg,right,1221.625000005588,true,low,NA,NA,NA,NA,NA,NA,NA,false
lObkxNOc,3j6bhnx0vc5zv8hudcso2u6bq3dnka,339ansotr9f94r4x7ykym66lq3xikc,lObkxNOc,2020-0188,2020-05-21,14:48:47,15:09:24,NA,incomplete,3,filling,1,right,Green_Plus_Dots_1.jpg,Green_Star_Grid_3.jpg,Blue_Triangle_Dots_4.jpg,right,961.1949999816716,true,low,NA,NA,NA,NA,NA,NA,NA,false
lObkxNOc,3j6bhnx0vc5zv8hudcso2u6bq3dnka,339ansotr9f94r4x7ykym66lq3xikc,lObkxNOc,2020-0188,2020-05-21,14:48:47,15:09:24,NA,incomplete,4,filling,1,right,Green_Circle_Stripes_3.jpg,Green_Triangle_Grid_1.jpg,Purple_Plus_Stripes_4.jpg,left,1265.8100000116974,false,low,NA,NA,NA,NA,NA,NA,NA,false
lObkxNOc,3j6bhnx0vc5zv8hudcso2u6bq3dnka,339ansotr9f94r4x7ykym66lq3xikc,lObkxNOc,2020-0188,2020-05-21,14:48:47,15:09:24,NA,incomplete,5,filling,1,left,Red_Star_Chess_1.jpg,Green_Circle_Chess_3.jpg,Red_Plus_Grid_4.jpg,left,1185.5399999767542,true,low,NA,NA,NA,NA,NA,NA,NA,false
lObkxNOc,3j6bhnx0vc5zv8hudcso2u6bq3dnka,339ansotr9f94r4x7ykym66lq3xikc,lObkxNOc,2020-0188,2020-05-21,14:48:47,15:09:24,NA,incomplete,6,filling,1,left,Blue_Star_Chess_3.jpg,Green_Plus_Chess_2.jpg,Blue_Triangle_Stripes_1.jpg,left,951.6549999825656,true,low,NA,NA,NA,NA,NA,NA,NA,false
lObkxNOc,3j6bhnx0vc5zv8hudcso2u6bq3dnka,339ansotr9f94r4x7ykym66lq3xikc,lObkxNOc,2020-0188,2020-05-21,14:48:47,15:09:24,NA,incomplete,7,filling,1,right,Purple_Plus_Grid_2.jpg,Purple_Star_Stripes_3.jpg,Green_Circle_Grid_1.jpg,right,1415.305000031367,true,low,NA,NA,NA,NA,NA,NA,NA,false
lObkxNOc,3j6bhnx0vc5zv8hudcso2u6bq3dnka,339ansotr9f94r4x7ykym66lq3xikc,lObkxNOc,2020-0188,2020-05-21,14:48:47,15:09:24,NA,incomplete,8,filling,1,left,Red_Plus_Dots_3.jpg,Green_Star_Dots_4.jpg,Red_Triangle_Grid_1.jpg,left,1179.2200000490993,true,low,NA,NA,NA,NA,NA,NA,NA,false
lObkxNOc,3j6bhnx0vc5zv8hudcso2u6bq3dnka,339ansotr9f94r4x7ykym66lq3xikc,lObkxNOc,2020-0188,2020-05-21,14:48:47,15:09:24,NA,incomplete,9,filling,1,right,Purple_Circle_Dots_1.jpg,Purple_Triangle_Grid_4.jpg,Green_Plus_Dots_3.jpg,right,945.4550000373274,true,low,NA,NA,NA,NA,NA,NA,NA,false
lObkxNOc,3j6bhnx0vc5zv8hudcso2u6bq3dnka,339ansotr9f94r4x7ykym66lq3xikc,lObkxNOc,2020-0188,2020-05-21,14:48:47,15:09:24,NA,incomplete,10,filling,1,right,Blue_Plus_Stripes_4.jpg,Blue_Star_Dots_3.jpg,Red_Circle_Stripes_2.jpg,right,1304.1749999392778,true,low,NA,NA,NA,NA,NA,NA,NA,false
lObkxNOc,3j6bhnx0vc5zv8hudcso2u6bq3dnka,339ansotr9f94r4x7ykym66lq3xikc,lObkxNOc,2020-0188,2020-05-21,14:48:47,15:09:24,NA,incomplete,11,filling,1,left,Green_Star_Grid_1.jpg,Purple_Plus_Grid_4.jpg,Green_Triangle_Dots_3.jpg,left,1280.0849999766797,true,low,NA,NA,NA,NA,NA,NA,NA,false
lObkxNOc,3j6bhnx0vc5zv8hudcso2u6bq3dnka,339ansotr9f94r4x7ykym66lq3xikc,lObkxNOc,2020-0188,2020-05-21,14:48:47,15:09:24,NA,incomplete,12,filling,1,right,Purple_Plus_Chess_4.jpg,Purple_Circle_Grid_2.jpg,Blue_Triangle_Chess_3.jpg,right,828.3750000409782,true,low,NA,NA,NA,NA,NA,NA,NA,false
lObkxNOc,3j6bhnx0vc5zv8hudcso2u6bq3dnka,339ansotr9f94r4x7ykym66lq3xikc,lObkxNOc,2020-0188,2020-05-21,14:48:47,15:09:24,NA,incomplete,13,filling,1,left,Purple_Triangle_Chess_4.jpg,Green_Plus_Chess_3.jpg,Purple_Star_Dots_2.jpg,left,871.0150001570582,true,low,NA,NA,NA,NA,NA,NA,NA,false
lObkxNOc,3j6bhnx0vc5zv8hudcso2u6bq3dnka,339ansotr9f94r4x7ykym66lq3xikc,lObkxNOc,2020-0188,2020-05-21,14:48:47,15:09:24,NA,incomplete,14,filling,1,left,Blue_Triangle_Chess_4.jpg,Red_Circle_Chess_3.jpg,Blue_Plus_Grid_2.jpg,left,800.3249999601394,true,low,NA,NA,NA,NA,NA,NA,NA,false
lObkxNOc,3j6bhnx0vc5zv8hudcso2u6bq3dnka,339ansotr9f94r4x7ykym66lq3xikc,lObkxNOc,2020-0188,2020-05-21,14:48:47,15:09:24,NA,incomplete,15,filling,0,left,Red_Star_Stripes_3.jpg,Green_Plus_Stripes_1.jpg,Red_Triangle_Dots_4.jpg,left,957.979999948293,true,low,NA,NA,NA,NA,NA,NA,NA,false
lObkxNOc,3j6bhnx0vc5zv8hudcso2u6bq3dnka,339ansotr9f94r4x7ykym66lq3xikc,lObkxNOc,2020-0188,2020-05-21,14:48:47,15:09:24,NA,incomplete,16,filling,0,right,Red_Triangle_Chess_2.jpg,Red_Star_Dots_3.jpg,Purple_Plus_Chess_1.jpg,right,812.6899998169392,true,low,NA,NA,NA,NA,NA,NA,NA,false
lObkxNOc,3j6bhnx0vc5zv8hudcso2u6bq3dnka,339ansotr9f94r4x7ykym66lq3xikc,lObkxNOc,2020-0188,2020-05-21,14:48:47,15:09:24,NA,incomplete,17,filling,0,left,Green_Plus_Grid_1.jpg,Purple_Triangle_Grid_4.jpg,Green_Circle_Dots_2.jpg,left,866.2250000052154,true,low,NA,NA,NA,NA,NA,NA,NA,false
lObkxNOc,3j6bhnx0vc5zv8hudcso2u6bq3dnka,339ansotr9f94r4x7ykym66lq3xikc,lObkxNOc,2020-0188,2020-05-21,14:48:47,15:09:24,NA,incomplete,18,filling,1,left,Green_Triangle_Chess_3.jpg,Purple_Circle_Chess_2.jpg,Green_Plus_Grid_1.jpg,right,658.4449999500066,false,low,NA,NA,NA,NA,NA,NA,NA,false
lObkxNOc,3j6bhnx0vc5zv8hudcso2u6bq3dnka,339ansotr9f94r4x7ykym66lq3xikc,lObkxNOc,2020-0188,2020-05-21,14:48:47,15:09:24,NA,incomplete,19,filling,1,left,Green_Plus_Grid_1.jpg,Purple_Circle_Grid_2.jpg,Green_Triangle_Dots_4.jpg,right,645.7750000990927,false,low,NA,NA,NA,NA,NA,NA,NA,false
lObkxNOc,3j6bhnx0vc5zv8hudcso2u6bq3dnka,339ansotr9f94r4x7ykym66lq3xikc,lObkxNOc,2020-0188,2020-05-21,14:48:47,15:09:24,NA,incomplete,20,filling,1,right,Blue_Plus_Grid_2.jpg,Blue_Star_Stripes_3.jpg,Purple_Circle_Grid_1.jpg,right,1048.4899999573827,true,low,NA,NA,NA,NA,NA,NA,NA,false
lObkxNOc,3j6bhnx0vc5zv8hudcso2u6bq3dnka,339ansotr9f94r4x7ykym66lq3xikc,lObkxNOc,2020-0188,2020-05-21,14:48:47,15:09:24,NA,incomplete,21,filling,1,right,Blue_Star_Grid_3.jpg,Blue_Circle_Chess_4.jpg,Purple_Plus_Grid_1.jpg,right,1036.324999993667,true,low,NA,NA,NA,NA,NA,NA,NA,false
lObkxNOc,3j6bhnx0vc5zv8hudcso2u6bq3dnka,339ansotr9f94r4x7ykym66lq3xikc,lObkxNOc,2020-0188,2020-05-21,14:48:47,15:09:24,NA,incomplete,22,filling,0,right,Green_Triangle_Grid_3.jpg,Green_Star_Stripes_1.jpg,Red_Plus_Grid_2.jpg,right,937.3650001361966,true,low,NA,NA,NA,NA,NA,NA,NA,false
lObkxNOc,3j6bhnx0vc5zv8hudcso2u6bq3dnka,339ansotr9f94r4x7ykym66lq3xikc,lObkxNOc,2020-0188,2020-05-21,14:48:47,15:09:24,NA,incomplete,23,filling,1,left,Green_Circle_Grid_1.jpg,Blue_Triangle_Grid_4.jpg,Green_Plus_Stripes_3.jpg,left,1334.885000018403,true,low,NA,NA,NA,NA,NA,NA,NA,false
lObkxNOc,3j6bhnx0vc5zv8hudcso2u6bq3dnka,339ansotr9f94r4x7ykym66lq3xikc,lObkxNOc,2020-0188,2020-05-21,14:48:47,15:09:24,NA,incomplete,24,filling,1,left,Purple_Star_Grid_4.jpg,Green_Circle_Grid_1.jpg,Purple_Triangle_Stripes_3.jpg,left,1726.7350000329316,true,low,NA,NA,NA,NA,NA,NA,NA,false
lObkxNOc,3j6bhnx0vc5zv8hudcso2u6bq3dnka,339ansotr9f94r4x7ykym66lq3xikc,lObkxNOc,2020-0188,2020-05-21,14:48:47,15:09:24,NA,incomplete,25,filling,1,right,Blue_Star_Grid_3.jpg,Blue_Circle_Dots_2.jpg,Green_Triangle_Grid_4.jpg,right,1813.7900000438094,true,low,NA,NA,NA,NA,NA,NA,NA,false
lObkxNOc,3j6bhnx0vc5zv8hudcso2u6bq3dnka,339ansotr9f94r4x7ykym66lq3xikc,lObkxNOc,2020-0188,2020-05-21,14:48:47,15:09:24,NA,incomplete,26,filling,1,left,Red_Triangle_Grid_1.jpg,Green_Circle_Grid_2.jpg,Red_Star_Chess_3.jpg,left,1596.1949999909848,true,low,NA,NA,NA,NA,NA,NA,NA,false
lObkxNOc,3j6bhnx0vc5zv8hudcso2u6bq3dnka,339ansotr9f94r4x7ykym66lq3xikc,lObkxNOc,2020-0188,2020-05-21,14:48:47,15:09:24,NA,incomplete,27,filling,1,right,Green_Triangle_Dots_3.jpg,Green_Circle_Chess_4.jpg,Blue_Star_Dots_2.jpg,right,944.9899999890476,true,low,NA,NA,NA,NA,NA,NA,NA,false
lObkxNOc,3j6bhnx0vc5zv8hudcso2u6bq3dnka,339ansotr9f94r4x7ykym66lq3xikc,lObkxNOc,2020-0188,2020-05-21,14:48:47,15:09:24,NA,incomplete,28,filling,1,right,Red_Star_Grid_4.jpg,Red_Triangle_Dots_3.jpg,Green_Plus_Grid_2.jpg,right,912.0500001590699,true,low,NA,NA,NA,NA,NA,NA,NA,false
lObkxNOc,3j6bhnx0vc5zv8hudcso2u6bq3dnka,339ansotr9f94r4x7ykym66lq3xikc,lObkxNOc,2020-0188,2020-05-21,14:48:47,15:09:24,NA,incomplete,29,filling,1,left,Red_Star_Stripes_3.jpg,Blue_Plus_Stripes_4.jpg,Red_Circle_Dots_2.jpg,left,800.9249998722225,true,low,NA,NA,NA,NA,NA,NA,NA,false
lObkxNOc,3j6bhnx0vc5zv8hudcso2u6bq3dnka,339ansotr9f94r4x7ykym66lq3xikc,lObkxNOc,2020-0188,2020-05-21,14:48:47,15:09:24,NA,incomplete,30,color,1,left,Green_Circle_Stripes_3.jpg,Green_Plus_Dots_1.jpg,Purple_Triangle_Stripes_4.jpg,right,861.6699997801334,false,low,NA,NA,NA,NA,NA,NA,NA,false
lObkxNOc,3j6bhnx0vc5zv8hudcso2u6bq3dnka,339ansotr9f94r4x7ykym66lq3xikc,lObkxNOc,2020-0188,2020-05-21,14:48:47,15:09:24,NA,incomplete,31,color,1,left,Purple_Plus_Grid_2.jpg,Purple_Triangle_Dots_3.jpg,Blue_Star_Grid_4.jpg,right,935.6949999928474,false,low,NA,NA,NA,NA,NA,NA,NA,false
lObkxNOc,3j6bhnx0vc5zv8hudcso2u6bq3dnka,339ansotr9f94r4x7ykym66lq3xikc,lObkxNOc,2020-0188,2020-05-21,14:48:47,15:09:24,NA,incomplete,32,color,1,left,Purple_Triangle_Chess_3.jpg,Purple_Circle_Stripes_1.jpg,Blue_Plus_Chess_4.jpg,left,870.9850001614541,true,low,NA,NA,NA,NA,NA,NA,NA,false
lObkxNOc,3j6bhnx0vc5zv8hudcso2u6bq3dnka,339ansotr9f94r4x7ykym66lq3xikc,lObkxNOc,2020-0188,2020-05-21,14:48:47,15:09:24,NA,incomplete,33,color,1,right,Blue_Circle_Chess_4.jpg,Green_Triangle_Chess_2.jpg,Blue_Star_Stripes_1.jpg,right,640.6649998389184,true,low,NA,NA,NA,NA,NA,NA,NA,false
lObkxNOc,3j6bhnx0vc5zv8hudcso2u6bq3dnka,339ansotr9f94r4x7ykym66lq3xikc,lObkxNOc,2020-0188,2020-05-21,14:48:47,15:09:24,NA,incomplete,34,color,1,right,Green_Plus_Chess_2.jpg,Red_Circle_Chess_3.jpg,Green_Triangle_Stripes_4.jpg,right,779.7250000294298,true,low,NA,NA,NA,NA,NA,NA,NA,false
lObkxNOc,3j6bhnx0vc5zv8hudcso2u6bq3dnka,339ansotr9f94r4x7ykym66lq3xikc,lObkxNOc,2020-0188,2020-05-21,14:48:47,15:09:24,NA,incomplete,35,color,1,left,Red_Star_Chess_1.jpg,Red_Plus_Dots_3.jpg,Purple_Circle_Chess_2.jpg,left,488.9700000640005,true,low,NA,NA,NA,NA,NA,NA,NA,false
lObkxNOc,3j6bhnx0vc5zv8hudcso2u6bq3dnka,339ansotr9f94r4x7ykym66lq3xikc,lObkxNOc,2020-0188,2020-05-21,14:48:47,15:09:24,NA,incomplete,36,color,1,left,Red_Triangle_Grid_2.jpg,Red_Plus_Dots_3.jpg,Blue_Star_Grid_1.jpg,left,482.3900000192225,true,low,NA,NA,NA,NA,NA,NA,NA,false
lObkxNOc,3j6bhnx0vc5zv8hudcso2u6bq3dnka,339ansotr9f94r4x7ykym66lq3xikc,lObkxNOc,2020-0188,2020-05-21,14:48:47,15:09:24,NA,incomplete,37,color,1,left,Blue_Triangle_Grid_4.jpg,Blue_Star_Dots_1.jpg,Red_Plus_Grid_2.jpg,left,508.6250000167638,true,low,NA,NA,NA,NA,NA,NA,NA,false
lObkxNOc,3j6bhnx0vc5zv8hudcso2u6bq3dnka,339ansotr9f94r4x7ykym66lq3xikc,lObkxNOc,2020-0188,2020-05-21,14:48:47,15:09:24,NA,incomplete,38,color,0,right,Green_Triangle_Chess_3.jpg,Purple_Plus_Chess_1.jpg,Green_Circle_Dots_4.jpg,right,396.7699999921024,true,low,NA,NA,NA,NA,NA,NA,NA,false
lObkxNOc,3j6bhnx0vc5zv8hudcso2u6bq3dnka,339ansotr9f94r4x7ykym66lq3xikc,lObkxNOc,2020-0188,2020-05-21,14:48:47,15:09:24,NA,incomplete,39,color,0,left,Blue_Triangle_Stripes_2.jpg,Blue_Circle_Grid_3.jpg,Green_Plus_Stripes_4.jpg,left,473.65499986335635,true,low,NA,NA,NA,NA,NA,NA,NA,false
lObkxNOc,3j6bhnx0vc5zv8hudcso2u6bq3dnka,339ansotr9f94r4x7ykym66lq3xikc,lObkxNOc,2020-0188,2020-05-21,14:48:47,15:09:24,NA,incomplete,40,color,1,right,Green_Plus_Stripes_3.jpg,Red_Triangle_Stripes_2.jpg,Green_Circle_Chess_4.jpg,left,939.7299999836832,false,low,NA,NA,NA,NA,NA,NA,NA,false
lObkxNOc,3j6bhnx0vc5zv8hudcso2u6bq3dnka,339ansotr9f94r4x7ykym66lq3xikc,lObkxNOc,2020-0188,2020-05-21,14:48:47,15:09:24,NA,incomplete,41,color,1,left,Purple_Triangle_Dots_3.jpg,Purple_Circle_Stripes_1.jpg,Blue_Plus_Dots_4.jpg,left,885.0600000005215,true,low,NA,NA,NA,NA,NA,NA,NA,false
lObkxNOc,3j6bhnx0vc5zv8hudcso2u6bq3dnka,339ansotr9f94r4x7ykym66lq3xikc,lObkxNOc,2020-0188,2020-05-21,14:48:47,15:09:24,NA,incomplete,42,color,1,right,Blue_Triangle_Chess_3.jpg,Green_Plus_Chess_1.jpg,Blue_Star_Grid_4.jpg,left,1268.7999999616295,false,low,NA,NA,NA,NA,NA,NA,NA,false
lObkxNOc,3j6bhnx0vc5zv8hudcso2u6bq3dnka,339ansotr9f94r4x7ykym66lq3xikc,lObkxNOc,2020-0188,2020-05-21,14:48:47,15:09:24,NA,incomplete,43,color,1,right,Blue_Circle_Chess_3.jpg,Green_Star_Chess_2.jpg,Blue_Plus_Stripes_1.jpg,right,831.0599999967963,true,low,NA,NA,NA,NA,NA,NA,NA,false
lObkxNOc,3j6bhnx0vc5zv8hudcso2u6bq3dnka,339ansotr9f94r4x7ykym66lq3xikc,lObkxNOc,2020-0188,2020-05-21,14:48:47,15:09:24,NA,incomplete,44,color,0,left,Green_Plus_Grid_2.jpg,Green_Triangle_Dots_3.jpg,Purple_Star_Grid_1.jpg,left,587.3400000855327,true,low,NA,NA,NA,NA,NA,NA,NA,false
lObkxNOc,3j6bhnx0vc5zv8hudcso2u6bq3dnka,339ansotr9f94r4x7ykym66lq3xikc,lObkxNOc,2020-0188,2020-05-21,14:48:47,15:09:24,NA,incomplete,45,color,1,right,Green_Star_Dots_2.jpg,Blue_Plus_Dots_1.jpg,Green_Triangle_Grid_4.jpg,right,743.555000051856,true,low,NA,NA,NA,NA,NA,NA,NA,false
lObkxNOc,3j6bhnx0vc5zv8hudcso2u6bq3dnka,339ansotr9f94r4x7ykym66lq3xikc,lObkxNOc,2020-0188,2020-05-21,14:48:47,15:09:24,NA,incomplete,46,color,1,left,Green_Triangle_Dots_4.jpg,Green_Circle_Chess_3.jpg,Purple_Star_Dots_1.jpg,left,599.6900000609457,true,low,NA,NA,NA,NA,NA,NA,NA,false
lObkxNOc,3j6bhnx0vc5zv8hudcso2u6bq3dnka,339ansotr9f94r4x7ykym66lq3xikc,lObkxNOc,2020-0188,2020-05-21,14:48:47,15:09:24,NA,incomplete,47,color,1,right,Red_Star_Grid_1.jpg,Blue_Triangle_Grid_2.jpg,Red_Plus_Stripes_3.jpg,right,723.8199999555945,true,low,NA,NA,NA,NA,NA,NA,NA,false
lObkxNOc,3j6bhnx0vc5zv8hudcso2u6bq3dnka,339ansotr9f94r4x7ykym66lq3xikc,lObkxNOc,2020-0188,2020-05-21,14:48:47,15:09:24,NA,incomplete,48,color,1,left,Blue_Star_Grid_4.jpg,Blue_Triangle_Dots_3.jpg,Purple_Circle_Grid_1.jpg,left,412.430000025779,true,low,NA,NA,NA,NA,NA,NA,NA,false
lObkxNOc,3j6bhnx0vc5zv8hudcso2u6bq3dnka,339ansotr9f94r4x7ykym66lq3xikc,lObkxNOc,2020-0188,2020-05-21,14:48:47,15:09:24,NA,incomplete,49,color,0,right,Red_Triangle_Chess_4.jpg,Purple_Plus_Chess_1.jpg,Red_Circle_Dots_2.jpg,right,481.1400000471622,true,low,NA,NA,NA,NA,NA,NA,NA,false
lObkxNOc,3j6bhnx0vc5zv8hudcso2u6bq3dnka,339ansotr9f94r4x7ykym66lq3xikc,lObkxNOc,2020-0188,2020-05-21,14:48:47,15:09:24,NA,incomplete,50,color,1,left,Red_Triangle_Dots_1.jpg,Red_Star_Stripes_3.jpg,Purple_Circle_Dots_4.jpg,left,498.9350000396371,true,low,NA,NA,NA,NA,NA,NA,NA,false
lObkxNOc,3j6bhnx0vc5zv8hudcso2u6bq3dnka,339ansotr9f94r4x7ykym66lq3xikc,lObkxNOc,2020-0188,2020-05-21,14:48:47,15:09:24,NA,incomplete,51,color,0,right,Red_Star_Stripes_2.jpg,Green_Circle_Stripes_4.jpg,Red_Triangle_Chess_1.jpg,right,549.4399999734014,true,low,NA,NA,NA,NA,NA,NA,NA,false
lObkxNOc,3j6bhnx0vc5zv8hudcso2u6bq3dnka,339ansotr9f94r4x7ykym66lq3xikc,lObkxNOc,2020-0188,2020-05-21,14:48:47,15:09:24,NA,incomplete,52,color,1,left,Blue_Circle_Chess_1.jpg,Blue_Star_Dots_2.jpg,Purple_Triangle_Chess_3.jpg,left,842.3450000118464,true,low,NA,NA,NA,NA,NA,NA,NA,false
lObkxNOc,3j6bhnx0vc5zv8hudcso2u6bq3dnka,339ansotr9f94r4x7ykym66lq3xikc,lObkxNOc,2020-0188,2020-05-21,14:48:47,15:09:24,NA,incomplete,53,color,0,right,Red_Circle_Grid_1.jpg,Green_Star_Grid_4.jpg,Red_Triangle_Dots_2.jpg,right,1198.8249998539686,true,low,NA,NA,NA,NA,NA,NA,NA,false
lObkxNOc,3j6bhnx0vc5zv8hudcso2u6bq3dnka,339ansotr9f94r4x7ykym66lq3xikc,lObkxNOc,2020-0188,2020-05-21,14:48:47,15:09:24,NA,incomplete,54,color,0,left,Red_Plus_Stripes_3.jpg,Red_Star_Chess_2.jpg,Blue_Triangle_Stripes_1.jpg,right,1148.0449999216944,false,low,NA,NA,NA,NA,NA,NA,NA,false
lObkxNOc,3j6bhnx0vc5zv8hudcso2u6bq3dnka,339ansotr9f94r4x7ykym66lq3xikc,lObkxNOc,2020-0188,2020-05-21,14:48:47,15:09:24,NA,incomplete,55,color,1,right,Purple_Triangle_Grid_4.jpg,Red_Plus_Grid_3.jpg,Purple_Circle_Stripes_1.jpg,left,1362.9350000992417,false,low,NA,NA,NA,NA,NA,NA,NA,false
lObkxNOc,3j6bhnx0vc5zv8hudcso2u6bq3dnka,339ansotr9f94r4x7ykym66lq3xikc,lObkxNOc,2020-0188,2020-05-21,14:48:47,15:09:24,NA,incomplete,56,color,0,right,Red_Triangle_Stripes_2.jpg,Purple_Circle_Stripes_3.jpg,Red_Plus_Dots_1.jpg,left,1201.5050000045449,false,low,NA,NA,NA,NA,NA,NA,NA,false
lObkxNOc,3j6bhnx0vc5zv8hudcso2u6bq3dnka,339ansotr9f94r4x7ykym66lq3xikc,lObkxNOc,2020-0188,2020-05-21,14:48:47,15:09:24,NA,incomplete,57,color,1,right,Red_Star_Grid_3.jpg,Blue_Triangle_Grid_4.jpg,Red_Circle_Stripes_1.jpg,left,926.6550000756979,false,low,NA,NA,NA,NA,NA,NA,NA,false
lObkxNOc,3j6bhnx0vc5zv8hudcso2u6bq3dnka,339ansotr9f94r4x7ykym66lq3xikc,lObkxNOc,2020-0188,2020-05-21,14:48:47,15:09:24,NA,incomplete,58,color,0,right,Purple_Plus_Chess_3.jpg,Red_Triangle_Chess_4.jpg,Purple_Circle_Dots_2.jpg,left,1534.3499998562038,false,low,NA,NA,NA,NA,NA,NA,NA,false
lObkxNOc,3j6bhnx0vc5zv8hudcso2u6bq3dnka,339ansotr9f94r4x7ykym66lq3xikc,lObkxNOc,2020-0188,2020-05-21,14:48:47,15:09:24,NA,incomplete,59,color,1,right,Green_Plus_Chess_1.jpg,Purple_Triangle_Chess_2.jpg,Green_Star_Grid_3.jpg,left,982.6650000177324,false,low,NA,NA,NA,NA,NA,NA,NA,false
lObkxNOc,3j6bhnx0vc5zv8hudcso2u6bq3dnka,339ansotr9f94r4x7ykym66lq3xikc,lObkxNOc,2020-0188,2020-05-21,14:48:47,15:09:24,NA,incomplete,60,filling,1,left,Blue_Circle_Dots_2.jpg,Green_Triangle_Dots_1.jpg,Blue_Plus_Chess_4.jpg,left,819.4900001399219,true,low,NA,NA,NA,NA,NA,NA,NA,false
lObkxNOc,3j6bhnx0vc5zv8hudcso2u6bq3dnka,339ansotr9f94r4x7ykym66lq3xikc,lObkxNOc,2020-0188,2020-05-21,14:48:47,15:09:24,NA,incomplete,61,filling,1,right,Purple_Triangle_Stripes_3.jpg,Purple_Plus_Dots_2.jpg,Blue_Star_Stripes_4.jpg,right,854.700000025332,true,low,NA,NA,NA,NA,NA,NA,NA,false
lObkxNOc,3j6bhnx0vc5zv8hudcso2u6bq3dnka,339ansotr9f94r4x7ykym66lq3xikc,lObkxNOc,2020-0188,2020-05-21,14:48:47,15:09:24,NA,incomplete,62,filling,1,left,Red_Circle_Dots_1.jpg,Blue_Triangle_Dots_3.jpg,Red_Star_Chess_4.jpg,left,841.2800000514835,true,low,NA,NA,NA,NA,NA,NA,NA,false
lObkxNOc,3j6bhnx0vc5zv8hudcso2u6bq3dnka,339ansotr9f94r4x7ykym66lq3xikc,lObkxNOc,2020-0188,2020-05-21,14:48:47,15:09:24,NA,incomplete,63,filling,1,left,Green_Star_Stripes_3.jpg,Purple_Circle_Stripes_1.jpg,Green_Plus_Chess_2.jpg,left,781.3599999062717,true,low,NA,NA,NA,NA,NA,NA,NA,false
lObkxNOc,3j6bhnx0vc5zv8hudcso2u6bq3dnka,339ansotr9f94r4x7ykym66lq3xikc,lObkxNOc,2020-0188,2020-05-21,14:48:47,15:09:24,NA,incomplete,64,filling,0,right,Purple_Plus_Chess_3.jpg,Purple_Star_Dots_1.jpg,Green_Circle_Chess_2.jpg,right,1018.8299999572337,true,low,NA,NA,NA,NA,NA,NA,NA,false
lObkxNOc,3j6bhnx0vc5zv8hudcso2u6bq3dnka,339ansotr9f94r4x7ykym66lq3xikc,lObkxNOc,2020-0188,2020-05-21,14:48:47,15:09:24,NA,incomplete,65,filling,1,left,Blue_Circle_Chess_2.jpg,Green_Plus_Chess_4.jpg,Blue_Triangle_Stripes_3.jpg,left,815.3249998576939,true,low,NA,NA,NA,NA,NA,NA,NA,false
lObkxNOc,3j6bhnx0vc5zv8hudcso2u6bq3dnka,339ansotr9f94r4x7ykym66lq3xikc,lObkxNOc,2020-0188,2020-05-21,14:48:47,15:09:24,NA,incomplete,66,filling,1,right,Red_Plus_Chess_4.jpg,Red_Triangle_Stripes_3.jpg,Purple_Star_Chess_2.jpg,right,811.3599999342114,true,low,NA,NA,NA,NA,NA,NA,NA,false
lObkxNOc,3j6bhnx0vc5zv8hudcso2u6bq3dnka,339ansotr9f94r4x7ykym66lq3xikc,lObkxNOc,2020-0188,2020-05-21,14:48:47,15:09:24,NA,incomplete,67,filling,1,right,Red_Triangle_Chess_2.jpg,Red_Star_Dots_3.jpg,Blue_Circle_Chess_4.jpg,right,1056.8349999375641,true,low,NA,NA,NA,NA,NA,NA,NA,false
lObkxNOc,3j6bhnx0vc5zv8hudcso2u6bq3dnka,339ansotr9f94r4x7ykym66lq3xikc,lObkxNOc,2020-0188,2020-05-21,14:48:47,15:09:24,NA,incomplete,68,filling,1,left,Green_Circle_Stripes_4.jpg,Purple_Star_Stripes_2.jpg,Green_Triangle_Dots_3.jpg,left,843.0149999912828,true,low,NA,NA,NA,NA,NA,NA,NA,false
lObkxNOc,3j6bhnx0vc5zv8hudcso2u6bq3dnka,339ansotr9f94r4x7ykym66lq3xikc,lObkxNOc,2020-0188,2020-05-21,14:48:47,15:09:24,NA,incomplete,69,filling,0,right,Red_Triangle_Stripes_3.jpg,Red_Star_Chess_4.jpg,Purple_Circle_Stripes_1.jpg,right,997.9700001422316,true,low,NA,NA,NA,NA,NA,NA,NA,false
lObkxNOc,3j6bhnx0vc5zv8hudcso2u6bq3dnka,339ansotr9f94r4x7ykym66lq3xikc,lObkxNOc,2020-0188,2020-05-21,14:48:47,15:09:24,NA,incomplete,70,filling,1,left,Blue_Plus_Grid_1.jpg,Red_Circle_Grid_3.jpg,Blue_Star_Stripes_4.jpg,left,923.7399999983609,true,low,NA,NA,NA,NA,NA,NA,NA,false
lObkxNOc,3j6bhnx0vc5zv8hudcso2u6bq3dnka,339ansotr9f94r4x7ykym66lq3xikc,lObkxNOc,2020-0188,2020-05-21,14:48:47,15:09:24,NA,incomplete,71,filling,1,left,Red_Circle_Dots_3.jpg,Purple_Star_Dots_4.jpg,Red_Triangle_Stripes_2.jpg,left,763.9850000850856,true,low,NA,NA,NA,NA,NA,NA,NA,false
lObkxNOc,3j6bhnx0vc5zv8hudcso2u6bq3dnka,339ansotr9f94r4x7ykym66lq3xikc,lObkxNOc,2020-0188,2020-05-21,14:48:47,15:09:24,NA,incomplete,72,filling,1,left,Green_Star_Grid_3.jpg,Blue_Triangle_Grid_2.jpg,Green_Plus_Dots_1.jpg,left,706.4300000201911,true,low,NA,NA,NA,NA,NA,NA,NA,false
lObkxNOc,3j6bhnx0vc5zv8hudcso2u6bq3dnka,339ansotr9f94r4x7ykym66lq3xikc,lObkxNOc,2020-0188,2020-05-21,14:48:47,15:09:24,NA,incomplete,73,filling,0,left,Blue_Plus_Grid_2.jpg,Purple_Circle_Grid_1.jpg,Blue_Star_Chess_3.jpg,left,786.6800001356751,true,low,NA,NA,NA,NA,NA,NA,NA,false
lObkxNOc,3j6bhnx0vc5zv8hudcso2u6bq3dnka,339ansotr9f94r4x7ykym66lq3xikc,lObkxNOc,2020-0188,2020-05-21,14:48:47,15:09:24,NA,incomplete,74,filling,1,left,Green_Triangle_Stripes_4.jpg,Red_Star_Stripes_2.jpg,Green_Circle_Grid_1.jpg,left,721.2600000202656,true,low,NA,NA,NA,NA,NA,NA,NA,false
lObkxNOc,3j6bhnx0vc5zv8hudcso2u6bq3dnka,339ansotr9f94r4x7ykym66lq3xikc,lObkxNOc,2020-0188,2020-05-21,14:48:47,15:09:24,NA,incomplete,75,filling,1,left,Blue_Plus_Grid_2.jpg,Red_Circle_Grid_1.jpg,Blue_Star_Stripes_4.jpg,left,679.2300001252443,true,low,NA,NA,NA,NA,NA,NA,NA,false
lObkxNOc,3j6bhnx0vc5zv8hudcso2u6bq3dnka,339ansotr9f94r4x7ykym66lq3xikc,lObkxNOc,2020-0188,2020-05-21,14:48:47,15:09:24,NA,incomplete,76,filling,1,right,Red_Star_Dots_1.jpg,Red_Circle_Grid_2.jpg,Green_Triangle_Dots_4.jpg,right,841.9650001451373,true,low,NA,NA,NA,NA,NA,NA,NA,false
lObkxNOc,3j6bhnx0vc5zv8hudcso2u6bq3dnka,339ansotr9f94r4x7ykym66lq3xikc,lObkxNOc,2020-0188,2020-05-21,14:48:47,15:09:24,NA,incomplete,77,filling,1,left,Purple_Triangle_Dots_2.jpg,Red_Star_Dots_4.jpg,Purple_Plus_Grid_1.jpg,left,740.7100000418723,true,low,NA,NA,NA,NA,NA,NA,NA,false
lObkxNOc,3j6bhnx0vc5zv8hudcso2u6bq3dnka,339ansotr9f94r4x7ykym66lq3xikc,lObkxNOc,2020-0188,2020-05-21,14:48:47,15:09:24,NA,incomplete,78,filling,0,left,Green_Star_Grid_2.jpg,Purple_Plus_Grid_3.jpg,Green_Triangle_Chess_4.jpg,left,891.2299999501556,true,low,NA,NA,NA,NA,NA,NA,NA,false
lObkxNOc,3j6bhnx0vc5zv8hudcso2u6bq3dnka,339ansotr9f94r4x7ykym66lq3xikc,lObkxNOc,2020-0188,2020-05-21,14:48:47,15:09:24,NA,incomplete,79,filling,1,left,Green_Star_Dots_3.jpg,Blue_Plus_Dots_1.jpg,Green_Circle_Chess_2.jpg,left,965.1150000281632,true,low,NA,NA,NA,NA,NA,NA,NA,false
lObkxNOc,3j6bhnx0vc5zv8hudcso2u6bq3dnka,339ansotr9f94r4x7ykym66lq3xikc,lObkxNOc,2020-0188,2020-05-21,14:48:47,15:09:24,NA,incomplete,80,filling,0,left,Blue_Plus_Chess_3.jpg,Green_Circle_Chess_2.jpg,Blue_Star_Dots_1.jpg,left,763.9199998229742,true,low,NA,NA,NA,NA,NA,NA,NA,false
lObkxNOc,3j6bhnx0vc5zv8hudcso2u6bq3dnka,339ansotr9f94r4x7ykym66lq3xikc,lObkxNOc,2020-0188,2020-05-21,14:48:47,15:09:24,NA,incomplete,81,filling,1,right,Green_Star_Chess_3.jpg,Green_Circle_Stripes_2.jpg,Purple_Plus_Chess_4.jpg,right,1034.5900000538677,true,low,NA,NA,NA,NA,NA,NA,NA,false
lObkxNOc,3j6bhnx0vc5zv8hudcso2u6bq3dnka,339ansotr9f94r4x7ykym66lq3xikc,lObkxNOc,2020-0188,2020-05-21,14:48:47,15:09:24,NA,incomplete,82,filling,1,left,Red_Plus_Stripes_1.jpg,Purple_Circle_Stripes_2.jpg,Red_Star_Dots_3.jpg,left,701.0000001173466,true,low,NA,NA,NA,NA,NA,NA,NA,false
lObkxNOc,3j6bhnx0vc5zv8hudcso2u6bq3dnka,339ansotr9f94r4x7ykym66lq3xikc,lObkxNOc,2020-0188,2020-05-21,14:48:47,15:09:24,NA,incomplete,83,filling,1,right,Red_Triangle_Chess_1.jpg,Red_Star_Grid_3.jpg,Purple_Circle_Chess_2.jpg,right,886.3650001585484,true,low,NA,NA,NA,NA,NA,NA,NA,false
lObkxNOc,3j6bhnx0vc5zv8hudcso2u6bq3dnka,339ansotr9f94r4x7ykym66lq3xikc,lObkxNOc,2020-0188,2020-05-21,14:48:47,15:09:24,NA,incomplete,84,filling,1,right,Blue_Plus_Grid_1.jpg,Blue_Star_Dots_4.jpg,Purple_Circle_Grid_2.jpg,right,1066.0899998620152,true,low,NA,NA,NA,NA,NA,NA,NA,false
lObkxNOc,3j6bhnx0vc5zv8hudcso2u6bq3dnka,339ansotr9f94r4x7ykym66lq3xikc,lObkxNOc,2020-0188,2020-05-21,14:48:47,15:09:24,NA,incomplete,85,filling,1,right,Green_Circle_Stripes_3.jpg,Green_Star_Dots_1.jpg,Purple_Triangle_Stripes_4.jpg,right,1137.4599998816848,true,low,NA,NA,NA,NA,NA,NA,NA,false
lObkxNOc,3j6bhnx0vc5zv8hudcso2u6bq3dnka,339ansotr9f94r4x7ykym66lq3xikc,lObkxNOc,2020-0188,2020-05-21,14:48:47,15:09:24,NA,incomplete,86,filling,1,left,Blue_Plus_Chess_2.jpg,Purple_Star_Chess_3.jpg,Blue_Circle_Dots_4.jpg,left,825.8549999445677,true,low,NA,NA,NA,NA,NA,NA,NA,false
lObkxNOc,3j6bhnx0vc5zv8hudcso2u6bq3dnka,339ansotr9f94r4x7ykym66lq3xikc,lObkxNOc,2020-0188,2020-05-21,14:48:47,15:09:24,NA,incomplete,87,filling,1,left,Red_Circle_Chess_2.jpg,Green_Triangle_Chess_3.jpg,Red_Plus_Grid_1.jpg,left,948.7850000150502,true,low,NA,NA,NA,NA,NA,NA,NA,false
lObkxNOc,3j6bhnx0vc5zv8hudcso2u6bq3dnka,339ansotr9f94r4x7ykym66lq3xikc,lObkxNOc,2020-0188,2020-05-21,14:48:47,15:09:24,NA,incomplete,88,filling,1,right,Red_Plus_Chess_2.jpg,Red_Triangle_Stripes_1.jpg,Purple_Circle_Chess_3.jpg,right,948.2450000941753,true,low,NA,NA,NA,NA,NA,NA,NA,false
lObkxNOc,3j6bhnx0vc5zv8hudcso2u6bq3dnka,339ansotr9f94r4x7ykym66lq3xikc,lObkxNOc,2020-0188,2020-05-21,14:48:47,15:09:24,NA,incomplete,89,filling,1,left,Green_Plus_Chess_2.jpg,Red_Star_Chess_1.jpg,Green_Circle_Dots_4.jpg,left,989.6200001239777,true,low,NA,NA,NA,NA,NA,NA,NA,false
lObkxNOc,3j6bhnx0vc5zv8hudcso2u6bq3dnka,339ansotr9f94r4x7ykym66lq3xikc,lObkxNOc,2020-0188,2020-05-21,14:48:47,15:09:24,NA,incomplete,90,color,0,right,Blue_Triangle_Dots_4.jpg,Green_Circle_Dots_2.jpg,Blue_Plus_Grid_3.jpg,left,817.805000115186,false,low,NA,NA,NA,NA,NA,NA,NA,false
lObkxNOc,3j6bhnx0vc5zv8hudcso2u6bq3dnka,339ansotr9f94r4x7ykym66lq3xikc,lObkxNOc,2020-0188,2020-05-21,14:48:47,15:09:24,NA,incomplete,91,color,1,right,Purple_Star_Grid_3.jpg,Red_Triangle_Grid_1.jpg,Purple_Plus_Dots_4.jpg,left,901.659999974072,false,low,NA,NA,NA,NA,NA,NA,NA,false
lObkxNOc,3j6bhnx0vc5zv8hudcso2u6bq3dnka,339ansotr9f94r4x7ykym66lq3xikc,lObkxNOc,2020-0188,2020-05-21,14:48:47,15:09:24,NA,incomplete,92,color,1,right,Purple_Star_Stripes_4.jpg,Red_Plus_Stripes_2.jpg,Purple_Triangle_Dots_3.jpg,left,813.7049998622388,false,low,NA,NA,NA,NA,NA,NA,NA,false
lObkxNOc,3j6bhnx0vc5zv8hudcso2u6bq3dnka,339ansotr9f94r4x7ykym66lq3xikc,lObkxNOc,2020-0188,2020-05-21,14:48:47,15:09:24,NA,incomplete,93,color,1,right,Green_Triangle_Chess_2.jpg,Blue_Circle_Chess_1.jpg,Green_Star_Stripes_4.jpg,right,858.4000000264496,true,low,NA,NA,NA,NA,NA,NA,NA,false
lObkxNOc,3j6bhnx0vc5zv8hudcso2u6bq3dnka,339ansotr9f94r4x7ykym66lq3xikc,lObkxNOc,2020-0188,2020-05-21,14:48:47,15:09:24,NA,incomplete,94,color,1,right,Green_Circle_Dots_3.jpg,Blue_Plus_Dots_4.jpg,Green_Star_Grid_1.jpg,right,734.3850000761449,true,low,NA,NA,NA,NA,NA,NA,NA,false
lObkxNOc,3j6bhnx0vc5zv8hudcso2u6bq3dnka,339ansotr9f94r4x7ykym66lq3xikc,lObkxNOc,2020-0188,2020-05-21,14:48:47,15:09:24,NA,incomplete,95,color,1,right,Blue_Plus_Dots_4.jpg,Red_Circle_Dots_1.jpg,Blue_Triangle_Stripes_3.jpg,right,500.40999986231327,true,low,NA,NA,NA,NA,NA,NA,NA,false
lObkxNOc,3j6bhnx0vc5zv8hudcso2u6bq3dnka,339ansotr9f94r4x7ykym66lq3xikc,lObkxNOc,2020-0188,2020-05-21,14:48:47,15:09:24,NA,incomplete,96,color,1,right,Red_Star_Grid_3.jpg,Green_Circle_Grid_4.jpg,Red_Plus_Chess_2.jpg,right,605.8999998494983,true,low,NA,NA,NA,NA,NA,NA,NA,false
lObkxNOc,3j6bhnx0vc5zv8hudcso2u6bq3dnka,339ansotr9f94r4x7ykym66lq3xikc,lObkxNOc,2020-0188,2020-05-21,14:48:47,15:09:24,NA,incomplete,97,color,1,right,Red_Triangle_Stripes_2.jpg,Green_Circle_Stripes_3.jpg,Red_Star_Grid_4.jpg,right,570.0350000988692,true,low,NA,NA,NA,NA,NA,NA,NA,false
lObkxNOc,3j6bhnx0vc5zv8hudcso2u6bq3dnka,339ansotr9f94r4x7ykym66lq3xikc,lObkxNOc,2020-0188,2020-05-21,14:48:47,15:09:24,NA,incomplete,98,color,1,right,Green_Star_Stripes_1.jpg,Red_Circle_Stripes_3.jpg,Green_Plus_Dots_4.jpg,right,550.8499999996275,true,low,NA,NA,NA,NA,NA,NA,NA,false
lObkxNOc,3j6bhnx0vc5zv8hudcso2u6bq3dnka,339ansotr9f94r4x7ykym66lq3xikc,lObkxNOc,2020-0188,2020-05-21,14:48:47,15:09:24,NA,incomplete,99,color,0,right,Purple_Circle_Stripes_2.jpg,Green_Triangle_Stripes_3.jpg,Purple_Star_Chess_4.jpg,right,485.46999995596707,true,low,NA,NA,NA,NA,NA,NA,NA,false
lObkxNOc,3j6bhnx0vc5zv8hudcso2u6bq3dnka,339ansotr9f94r4x7ykym66lq3xikc,lObkxNOc,2020-0188,2020-05-21,14:48:47,15:09:24,NA,incomplete,100,color,1,left,Blue_Circle_Grid_4.jpg,Blue_Plus_Stripes_3.jpg,Green_Star_Grid_2.jpg,left,494.35000005178154,true,low,NA,NA,NA,NA,NA,NA,NA,false
lObkxNOc,3j6bhnx0vc5zv8hudcso2u6bq3dnka,339ansotr9f94r4x7ykym66lq3xikc,lObkxNOc,2020-0188,2020-05-21,14:48:47,15:09:24,NA,incomplete,101,color,0,right,Blue_Plus_Chess_2.jpg,Green_Triangle_Chess_1.jpg,Blue_Circle_Dots_4.jpg,right,480.6849998421967,true,low,NA,NA,NA,NA,NA,NA,NA,false
lObkxNOc,3j6bhnx0vc5zv8hudcso2u6bq3dnka,339ansotr9f94r4x7ykym66lq3xikc,lObkxNOc,2020-0188,2020-05-21,14:48:47,15:09:24,NA,incomplete,102,color,1,left,Blue_Plus_Chess_3.jpg,Blue_Triangle_Stripes_2.jpg,Purple_Circle_Chess_4.jpg,left,682.5749999843538,true,low,NA,NA,NA,NA,NA,NA,NA,false
lObkxNOc,3j6bhnx0vc5zv8hudcso2u6bq3dnka,339ansotr9f94r4x7ykym66lq3xikc,lObkxNOc,2020-0188,2020-05-21,14:48:47,15:09:24,NA,incomplete,103,color,1,left,Blue_Plus_Chess_3.jpg,Blue_Triangle_Dots_2.jpg,Red_Star_Chess_4.jpg,left,508.32000002264977,true,low,NA,NA,NA,NA,NA,NA,NA,false
lObkxNOc,3j6bhnx0vc5zv8hudcso2u6bq3dnka,339ansotr9f94r4x7ykym66lq3xikc,lObkxNOc,2020-0188,2020-05-21,14:48:47,15:09:24,NA,incomplete,104,color,1,right,Green_Triangle_Dots_1.jpg,Blue_Circle_Dots_4.jpg,Green_Plus_Stripes_2.jpg,right,444.38000000081956,true,low,NA,NA,NA,NA,NA,NA,NA,false
lObkxNOc,3j6bhnx0vc5zv8hudcso2u6bq3dnka,339ansotr9f94r4x7ykym66lq3xikc,lObkxNOc,2020-0188,2020-05-21,14:48:47,15:09:24,NA,incomplete,105,color,1,right,Blue_Circle_Dots_2.jpg,Green_Star_Dots_4.jpg,Blue_Plus_Stripes_1.jpg,left,448.4100001864135,false,low,NA,NA,NA,NA,NA,NA,NA,false
lObkxNOc,3j6bhnx0vc5zv8hudcso2u6bq3dnka,339ansotr9f94r4x7ykym66lq3xikc,lObkxNOc,2020-0188,2020-05-21,14:48:47,15:09:24,NA,incomplete,106,color,0,left,Purple_Star_Dots_3.jpg,Purple_Circle_Stripes_2.jpg,Blue_Plus_Dots_4.jpg,left,618.6200000811368,true,low,NA,NA,NA,NA,NA,NA,NA,false
lObkxNOc,3j6bhnx0vc5zv8hudcso2u6bq3dnka,339ansotr9f94r4x7ykym66lq3xikc,lObkxNOc,2020-0188,2020-05-21,14:48:47,15:09:24,NA,incomplete,107,color,1,right,Blue_Star_Stripes_2.jpg,Purple_Plus_Stripes_4.jpg,Blue_Circle_Grid_1.jpg,right,566.5800001006573,true,low,NA,NA,NA,NA,NA,NA,NA,false
lObkxNOc,3j6bhnx0vc5zv8hudcso2u6bq3dnka,339ansotr9f94r4x7ykym66lq3xikc,lObkxNOc,2020-0188,2020-05-21,14:48:47,15:09:24,NA,incomplete,108,color,1,right,Red_Triangle_Dots_1.jpg,Green_Circle_Dots_3.jpg,Red_Star_Grid_4.jpg,right,621.9499998260289,true,low,NA,NA,NA,NA,NA,NA,NA,false
lObkxNOc,3j6bhnx0vc5zv8hudcso2u6bq3dnka,339ansotr9f94r4x7ykym66lq3xikc,lObkxNOc,2020-0188,2020-05-21,14:48:47,15:09:24,NA,incomplete,109,color,1,left,Red_Circle_Stripes_1.jpg,Red_Plus_Grid_4.jpg,Purple_Triangle_Stripes_2.jpg,left,642.3249999061227,true,low,NA,NA,NA,NA,NA,NA,NA,false
lObkxNOc,3j6bhnx0vc5zv8hudcso2u6bq3dnka,339ansotr9f94r4x7ykym66lq3xikc,lObkxNOc,2020-0188,2020-05-21,14:48:47,15:09:24,NA,incomplete,110,color,1,right,Red_Plus_Grid_4.jpg,Green_Circle_Grid_3.jpg,Red_Triangle_Stripes_2.jpg,right,435.79500005580485,true,low,NA,NA,NA,NA,NA,NA,NA,false
lObkxNOc,3j6bhnx0vc5zv8hudcso2u6bq3dnka,339ansotr9f94r4x7ykym66lq3xikc,lObkxNOc,2020-0188,2020-05-21,14:48:47,15:09:24,NA,incomplete,111,color,0,left,Blue_Circle_Chess_3.jpg,Blue_Star_Stripes_2.jpg,Green_Plus_Chess_1.jpg,left,455.7300000451505,true,low,NA,NA,NA,NA,NA,NA,NA,false
lObkxNOc,3j6bhnx0vc5zv8hudcso2u6bq3dnka,339ansotr9f94r4x7ykym66lq3xikc,lObkxNOc,2020-0188,2020-05-21,14:48:47,15:09:24,NA,incomplete,112,color,1,left,Green_Triangle_Stripes_4.jpg,Green_Plus_Dots_3.jpg,Red_Star_Stripes_1.jpg,left,482.16999997384846,true,low,NA,NA,NA,NA,NA,NA,NA,false
lObkxNOc,3j6bhnx0vc5zv8hudcso2u6bq3dnka,339ansotr9f94r4x7ykym66lq3xikc,lObkxNOc,2020-0188,2020-05-21,14:48:47,15:09:24,NA,incomplete,113,color,1,left,Red_Plus_Grid_1.jpg,Red_Star_Stripes_2.jpg,Green_Circle_Grid_3.jpg,right,388.12500005587935,false,low,NA,NA,NA,NA,NA,NA,NA,false
lObkxNOc,3j6bhnx0vc5zv8hudcso2u6bq3dnka,339ansotr9f94r4x7ykym66lq3xikc,lObkxNOc,2020-0188,2020-05-21,14:48:47,15:09:24,NA,incomplete,114,color,1,left,Purple_Circle_Dots_2.jpg,Purple_Plus_Grid_4.jpg,Green_Triangle_Dots_1.jpg,left,488.79000009037554,true,low,NA,NA,NA,NA,NA,NA,NA,false
lObkxNOc,3j6bhnx0vc5zv8hudcso2u6bq3dnka,339ansotr9f94r4x7ykym66lq3xikc,lObkxNOc,2020-0188,2020-05-21,14:48:47,15:09:24,NA,incomplete,115,color,1,right,Blue_Star_Chess_2.jpg,Red_Triangle_Chess_1.jpg,Blue_Circle_Dots_3.jpg,right,481.81999986991286,true,low,NA,NA,NA,NA,NA,NA,NA,false
lObkxNOc,3j6bhnx0vc5zv8hudcso2u6bq3dnka,339ansotr9f94r4x7ykym66lq3xikc,lObkxNOc,2020-0188,2020-05-21,14:48:47,15:09:24,NA,incomplete,116,color,1,right,Red_Plus_Stripes_1.jpg,Blue_Circle_Stripes_4.jpg,Red_Star_Grid_3.jpg,right,684.3350001145154,true,low,NA,NA,NA,NA,NA,NA,NA,false
lObkxNOc,3j6bhnx0vc5zv8hudcso2u6bq3dnka,339ansotr9f94r4x7ykym66lq3xikc,lObkxNOc,2020-0188,2020-05-21,14:48:47,15:09:24,NA,incomplete,117,color,1,right,Purple_Plus_Grid_3.jpg,Red_Star_Grid_2.jpg,Purple_Triangle_Chess_1.jpg,right,596.5400000568479,true,low,NA,NA,NA,NA,NA,NA,NA,false
lObkxNOc,3j6bhnx0vc5zv8hudcso2u6bq3dnka,339ansotr9f94r4x7ykym66lq3xikc,lObkxNOc,2020-0188,2020-05-21,14:48:47,15:09:24,NA,incomplete,118,color,1,left,Purple_Circle_Stripes_4.jpg,Purple_Triangle_Chess_1.jpg,Green_Plus_Stripes_2.jpg,left,506.62500015459955,true,low,NA,NA,NA,NA,NA,NA,NA,false
lObkxNOc,3j6bhnx0vc5zv8hudcso2u6bq3dnka,339ansotr9f94r4x7ykym66lq3xikc,lObkxNOc,2020-0188,2020-05-21,14:48:47,15:09:24,NA,incomplete,119,color,1,left,Purple_Circle_Grid_1.jpg,Purple_Triangle_Dots_2.jpg,Red_Star_Grid_4.jpg,left,570.9400000050664,true,low,NA,NA,NA,NA,NA,NA,NA,false
lObkxNOc,3j6bhnx0vc5zv8hudcso2u6bq3dnka,339ansotr9f94r4x7ykym66lq3xikc,lObkxNOc,2020-0188,2020-05-21,14:48:47,15:09:24,NA,incomplete,120,number,1,right,Green_Triangle_Chess_4.jpg,Purple_Triangle_Grid_3.jpg,Red_Circle_Dots_4.jpg,NA,NA,NA,low,NA,NA,NA,NA,NA,NA,NA,false
lObkxNOc,3j6bhnx0vc5zv8hudcso2u6bq3dnka,339ansotr9f94r4x7ykym66lq3xikc,lObkxNOc,2020-0188,2020-05-21,14:48:47,15:09:24,NA,incomplete,121,number,0,right,Purple_Circle_Chess_4.jpg,Blue_Circle_Stripes_1.jpg,Red_Star_Dots_4.jpg,right,1222.099999897182,true,low,NA,NA,NA,NA,NA,NA,NA,false
lObkxNOc,3j6bhnx0vc5zv8hudcso2u6bq3dnka,339ansotr9f94r4x7ykym66lq3xikc,lObkxNOc,2020-0188,2020-05-21,14:48:47,15:09:24,NA,incomplete,122,number,1,right,Blue_Circle_Stripes_1.jpg,Purple_Circle_Chess_3.jpg,Green_Star_Dots_1.jpg,right,944.8449998162687,true,low,NA,NA,NA,NA,NA,NA,NA,false
lObkxNOc,3j6bhnx0vc5zv8hudcso2u6bq3dnka,339ansotr9f94r4x7ykym66lq3xikc,lObkxNOc,2020-0188,2020-05-21,14:48:47,15:09:24,NA,incomplete,123,number,1,left,Green_Triangle_Grid_1.jpg,Purple_Circle_Dots_1.jpg,Blue_Triangle_Stripes_3.jpg,left,552.2599997930229,true,low,NA,NA,NA,NA,NA,NA,NA,false
lObkxNOc,3j6bhnx0vc5zv8hudcso2u6bq3dnka,339ansotr9f94r4x7ykym66lq3xikc,lObkxNOc,2020-0188,2020-05-21,14:48:47,15:09:24,NA,incomplete,124,number,1,left,Blue_Triangle_Chess_2.jpg,Green_Plus_Grid_2.jpg,Purple_Triangle_Dots_1.jpg,right,415.3100000694394,false,low,NA,NA,NA,NA,NA,NA,NA,false
lObkxNOc,3j6bhnx0vc5zv8hudcso2u6bq3dnka,339ansotr9f94r4x7ykym66lq3xikc,lObkxNOc,2020-0188,2020-05-21,14:48:47,15:09:24,NA,incomplete,125,number,1,left,Blue_Plus_Grid_3.jpg,Green_Star_Chess_3.jpg,Purple_Plus_Dots_1.jpg,left,907.7250000555068,true,low,NA,NA,NA,NA,NA,NA,NA,false
lObkxNOc,3j6bhnx0vc5zv8hudcso2u6bq3dnka,339ansotr9f94r4x7ykym66lq3xikc,lObkxNOc,2020-0188,2020-05-21,14:48:47,15:09:24,NA,incomplete,126,number,1,left,Red_Plus_Dots_4.jpg,Green_Star_Chess_4.jpg,Blue_Plus_Grid_3.jpg,left,668.2600001804531,true,low,NA,NA,NA,NA,NA,NA,NA,false
lObkxNOc,3j6bhnx0vc5zv8hudcso2u6bq3dnka,339ansotr9f94r4x7ykym66lq3xikc,lObkxNOc,2020-0188,2020-05-21,14:48:47,15:09:24,NA,incomplete,127,number,1,left,Red_Star_Grid_4.jpg,Green_Plus_Dots_4.jpg,Blue_Star_Stripes_2.jpg,right,1093.529999954626,false,low,NA,NA,NA,NA,NA,NA,NA,false
lObkxNOc,3j6bhnx0vc5zv8hudcso2u6bq3dnka,339ansotr9f94r4x7ykym66lq3xikc,lObkxNOc,2020-0188,2020-05-21,14:48:47,15:09:24,NA,incomplete,128,number,1,right,Green_Star_Chess_4.jpg,Blue_Star_Stripes_3.jpg,Purple_Circle_Grid_4.jpg,right,766.9400000013411,true,low,NA,NA,NA,NA,NA,NA,NA,false
lObkxNOc,3j6bhnx0vc5zv8hudcso2u6bq3dnka,339ansotr9f94r4x7ykym66lq3xikc,lObkxNOc,2020-0188,2020-05-21,14:48:47,15:09:24,NA,incomplete,129,number,1,right,Green_Plus_Grid_4.jpg,Purple_Plus_Chess_2.jpg,Red_Star_Stripes_4.jpg,right,573.5400000121444,true,low,NA,NA,NA,NA,NA,NA,NA,false
lObkxNOc,3j6bhnx0vc5zv8hudcso2u6bq3dnka,339ansotr9f94r4x7ykym66lq3xikc,lObkxNOc,2020-0188,2020-05-21,14:48:47,15:09:24,NA,incomplete,130,number,1,right,Purple_Circle_Grid_1.jpg,Green_Circle_Chess_2.jpg,Red_Triangle_Stripes_1.jpg,right,875.6099999882281,true,low,NA,NA,NA,NA,NA,NA,NA,false
lObkxNOc,3j6bhnx0vc5zv8hudcso2u6bq3dnka,339ansotr9f94r4x7ykym66lq3xikc,lObkxNOc,2020-0188,2020-05-21,14:48:47,15:09:24,NA,incomplete,131,number,0,right,Purple_Triangle_Grid_2.jpg,Green_Triangle_Stripes_1.jpg,Red_Star_Chess_2.jpg,right,685.1800000295043,true,low,NA,NA,NA,NA,NA,NA,NA,false
lObkxNOc,3j6bhnx0vc5zv8hudcso2u6bq3dnka,339ansotr9f94r4x7ykym66lq3xikc,lObkxNOc,2020-0188,2020-05-21,14:48:47,15:09:24,NA,incomplete,132,number,1,left,Purple_Plus_Dots_4.jpg,Green_Triangle_Chess_4.jpg,Blue_Plus_Grid_1.jpg,left,1214.695000089705,true,low,NA,NA,NA,NA,NA,NA,NA,false
lObkxNOc,3j6bhnx0vc5zv8hudcso2u6bq3dnka,339ansotr9f94r4x7ykym66lq3xikc,lObkxNOc,2020-0188,2020-05-21,14:48:47,15:09:24,NA,incomplete,133,number,1,right,Blue_Star_Grid_1.jpg,Red_Star_Chess_3.jpg,Green_Plus_Stripes_1.jpg,right,922.3249999340624,true,low,NA,NA,NA,NA,NA,NA,NA,false
lObkxNOc,3j6bhnx0vc5zv8hudcso2u6bq3dnka,339ansotr9f94r4x7ykym66lq3xikc,lObkxNOc,2020-0188,2020-05-21,14:48:47,15:09:24,NA,incomplete,134,number,1,right,Red_Triangle_Grid_4.jpg,Blue_Triangle_Dots_2.jpg,Purple_Plus_Stripes_4.jpg,right,754.9449999351054,true,low,NA,NA,NA,NA,NA,NA,NA,false
lObkxNOc,3j6bhnx0vc5zv8hudcso2u6bq3dnka,339ansotr9f94r4x7ykym66lq3xikc,lObkxNOc,2020-0188,2020-05-21,14:48:47,15:09:24,NA,incomplete,135,number,1,right,Blue_Circle_Dots_4.jpg,Purple_Circle_Stripes_1.jpg,Red_Plus_Grid_4.jpg,right,475.21000006236136,true,low,NA,NA,NA,NA,NA,NA,NA,false
lObkxNOc,3j6bhnx0vc5zv8hudcso2u6bq3dnka,339ansotr9f94r4x7ykym66lq3xikc,lObkxNOc,2020-0188,2020-05-21,14:48:47,15:09:24,NA,incomplete,136,number,0,right,Red_Plus_Stripes_1.jpg,Purple_Plus_Dots_4.jpg,Blue_Star_Chess_1.jpg,left,411.50499996729195,false,low,NA,NA,NA,NA,NA,NA,NA,false
lObkxNOc,3j6bhnx0vc5zv8hudcso2u6bq3dnka,339ansotr9f94r4x7ykym66lq3xikc,lObkxNOc,2020-0188,2020-05-21,14:48:47,15:09:24,NA,incomplete,137,number,1,right,Red_Triangle_Dots_2.jpg,Purple_Triangle_Chess_1.jpg,Blue_Plus_Grid_2.jpg,left,1720.1000000350177,false,low,NA,NA,NA,NA,NA,NA,NA,false
lObkxNOc,3j6bhnx0vc5zv8hudcso2u6bq3dnka,339ansotr9f94r4x7ykym66lq3xikc,lObkxNOc,2020-0188,2020-05-21,14:48:47,15:09:24,NA,incomplete,138,number,0,right,Green_Star_Stripes_1.jpg,Blue_Star_Chess_2.jpg,Red_Circle_Grid_1.jpg,left,1359.8350000102073,false,low,NA,NA,NA,NA,NA,NA,NA,false
lObkxNOc,3j6bhnx0vc5zv8hudcso2u6bq3dnka,339ansotr9f94r4x7ykym66lq3xikc,lObkxNOc,2020-0188,2020-05-21,14:48:47,15:09:24,NA,incomplete,139,number,1,left,Blue_Plus_Grid_1.jpg,Red_Triangle_Dots_1.jpg,Green_Plus_Chess_4.jpg,left,710.6950001325458,true,low,NA,NA,NA,NA,NA,NA,NA,false
lObkxNOc,3j6bhnx0vc5zv8hudcso2u6bq3dnka,339ansotr9f94r4x7ykym66lq3xikc,lObkxNOc,2020-0188,2020-05-21,14:48:47,15:09:24,NA,incomplete,140,shape,1,left,Green_Plus_Dots_3.jpg,Red_Plus_Chess_2.jpg,Blue_Triangle_Stripes_3.jpg,right,591.5099999401718,false,low,NA,NA,NA,NA,NA,NA,NA,false
lObkxNOc,3j6bhnx0vc5zv8hudcso2u6bq3dnka,339ansotr9f94r4x7ykym66lq3xikc,lObkxNOc,2020-0188,2020-05-21,14:48:47,15:09:24,NA,incomplete,141,shape,1,left,Purple_Triangle_Dots_4.jpg,Blue_Triangle_Grid_3.jpg,Green_Plus_Chess_4.jpg,left,949.0549999754876,true,low,NA,NA,NA,NA,NA,NA,NA,false
lObkxNOc,3j6bhnx0vc5zv8hudcso2u6bq3dnka,339ansotr9f94r4x7ykym66lq3xikc,lObkxNOc,2020-0188,2020-05-21,14:48:47,15:09:24,NA,incomplete,142,shape,0,left,Purple_Plus_Dots_1.jpg,Red_Plus_Chess_4.jpg,Blue_Circle_Grid_1.jpg,left,723.8849999848753,true,low,NA,NA,NA,NA,NA,NA,NA,false
lObkxNOc,3j6bhnx0vc5zv8hudcso2u6bq3dnka,339ansotr9f94r4x7ykym66lq3xikc,lObkxNOc,2020-0188,2020-05-21,14:48:47,15:09:24,NA,incomplete,143,shape,1,left,Purple_Triangle_Chess_3.jpg,Blue_Triangle_Dots_2.jpg,Green_Star_Grid_3.jpg,right,770.9899998735636,false,low,NA,NA,NA,NA,NA,NA,NA,false
lObkxNOc,3j6bhnx0vc5zv8hudcso2u6bq3dnka,339ansotr9f94r4x7ykym66lq3xikc,lObkxNOc,2020-0188,2020-05-21,14:48:47,15:09:24,NA,incomplete,144,shape,1,right,Purple_Triangle_Stripes_2.jpg,Red_Plus_Dots_2.jpg,Green_Triangle_Chess_1.jpg,right,706.6599999088794,true,low,NA,NA,NA,NA,NA,NA,NA,false
lObkxNOc,3j6bhnx0vc5zv8hudcso2u6bq3dnka,339ansotr9f94r4x7ykym66lq3xikc,lObkxNOc,2020-0188,2020-05-21,14:48:47,15:09:24,NA,incomplete,145,shape,0,right,Green_Star_Stripes_1.jpg,Blue_Triangle_Grid_1.jpg,Red_Star_Chess_3.jpg,right,1105.9499999973923,true,low,NA,NA,NA,NA,NA,NA,NA,false
lObkxNOc,3j6bhnx0vc5zv8hudcso2u6bq3dnka,339ansotr9f94r4x7ykym66lq3xikc,lObkxNOc,2020-0188,2020-05-21,14:48:47,15:09:24,NA,incomplete,146,shape,1,right,Red_Star_Dots_3.jpg,Blue_Plus_Grid_3.jpg,Green_Star_Chess_4.jpg,right,1835.6449999846518,true,low,NA,NA,NA,NA,NA,NA,NA,false
lObkxNOc,3j6bhnx0vc5zv8hudcso2u6bq3dnka,339ansotr9f94r4x7ykym66lq3xikc,lObkxNOc,2020-0188,2020-05-21,14:48:47,15:09:24,NA,incomplete,147,shape,1,left,Blue_Star_Chess_3.jpg,Purple_Star_Stripes_1.jpg,Red_Triangle_Dots_3.jpg,left,709.8600000608712,true,low,NA,NA,NA,NA,NA,NA,NA,false
lObkxNOc,3j6bhnx0vc5zv8hudcso2u6bq3dnka,339ansotr9f94r4x7ykym66lq3xikc,lObkxNOc,2020-0188,2020-05-21,14:48:47,15:09:24,NA,incomplete,148,shape,1,right,Red_Circle_Grid_1.jpg,Blue_Triangle_Dots_1.jpg,Green_Circle_Stripes_4.jpg,right,1135.719999903813,true,low,NA,NA,NA,NA,NA,NA,NA,false
lObkxNOc,3j6bhnx0vc5zv8hudcso2u6bq3dnka,339ansotr9f94r4x7ykym66lq3xikc,lObkxNOc,2020-0188,2020-05-21,14:48:47,15:09:24,NA,incomplete,149,shape,1,left,Blue_Plus_Grid_4.jpg,Red_Plus_Dots_3.jpg,Purple_Triangle_Chess_4.jpg,left,1206.5300000831485,true,low,NA,NA,NA,NA,NA,NA,NA,false
lObkxNOc,3j6bhnx0vc5zv8hudcso2u6bq3dnka,339ansotr9f94r4x7ykym66lq3xikc,lObkxNOc,2020-0188,2020-05-21,14:48:47,15:09:24,NA,incomplete,150,shape,1,left,Blue_Circle_Stripes_1.jpg,Red_Circle_Chess_2.jpg,Purple_Plus_Grid_1.jpg,left,833.6950000375509,true,low,NA,NA,NA,NA,NA,NA,NA,false
lObkxNOc,3j6bhnx0vc5zv8hudcso2u6bq3dnka,339ansotr9f94r4x7ykym66lq3xikc,lObkxNOc,2020-0188,2020-05-21,14:48:47,15:09:24,NA,incomplete,151,shape,0,right,Purple_Triangle_Grid_2.jpg,Green_Circle_Chess_2.jpg,Blue_Triangle_Stripes_3.jpg,right,853.3399999141693,true,low,NA,NA,NA,NA,NA,NA,NA,false
lObkxNOc,3j6bhnx0vc5zv8hudcso2u6bq3dnka,339ansotr9f94r4x7ykym66lq3xikc,lObkxNOc,2020-0188,2020-05-21,14:48:47,15:09:24,NA,incomplete,152,shape,1,right,Red_Plus_Dots_3.jpg,Purple_Star_Grid_3.jpg,Blue_Plus_Stripes_2.jpg,right,904.575000051409,true,low,NA,NA,NA,NA,NA,NA,NA,false
lObkxNOc,3j6bhnx0vc5zv8hudcso2u6bq3dnka,339ansotr9f94r4x7ykym66lq3xikc,lObkxNOc,2020-0188,2020-05-21,14:48:47,15:09:24,NA,incomplete,153,shape,1,right,Purple_Star_Chess_4.jpg,Red_Circle_Dots_4.jpg,Blue_Star_Grid_3.jpg,right,1162.5900000799447,true,low,NA,NA,NA,NA,NA,NA,NA,false
lObkxNOc,3j6bhnx0vc5zv8hudcso2u6bq3dnka,339ansotr9f94r4x7ykym66lq3xikc,lObkxNOc,2020-0188,2020-05-21,14:48:47,15:09:24,NA,incomplete,154,shape,1,left,Green_Circle_Chess_3.jpg,Blue_Circle_Grid_2.jpg,Red_Star_Stripes_3.jpg,left,1135.2600001264364,true,low,NA,NA,NA,NA,NA,NA,NA,false
lObkxNOc,3j6bhnx0vc5zv8hudcso2u6bq3dnka,339ansotr9f94r4x7ykym66lq3xikc,lObkxNOc,2020-0188,2020-05-21,14:48:47,15:09:24,NA,incomplete,155,shape,0,right,Green_Circle_Stripes_2.jpg,Blue_Triangle_Dots_2.jpg,Purple_Circle_Chess_3.jpg,right,927.1900001913309,true,low,NA,NA,NA,NA,NA,NA,NA,false
lObkxNOc,3j6bhnx0vc5zv8hudcso2u6bq3dnka,339ansotr9f94r4x7ykym66lq3xikc,lObkxNOc,2020-0188,2020-05-21,14:48:47,15:09:24,NA,incomplete,156,shape,1,left,Blue_Circle_Stripes_4.jpg,Green_Circle_Chess_3.jpg,Red_Star_Dots_4.jpg,left,646.5100001078099,true,low,NA,NA,NA,NA,NA,NA,NA,false
lObkxNOc,3j6bhnx0vc5zv8hudcso2u6bq3dnka,339ansotr9f94r4x7ykym66lq3xikc,lObkxNOc,2020-0188,2020-05-21,14:48:47,15:09:24,NA,incomplete,157,shape,1,right,Blue_Star_Stripes_1.jpg,Purple_Circle_Dots_1.jpg,Green_Star_Chess_4.jpg,right,722.5900001358241,true,low,NA,NA,NA,NA,NA,NA,NA,false
lObkxNOc,3j6bhnx0vc5zv8hudcso2u6bq3dnka,339ansotr9f94r4x7ykym66lq3xikc,lObkxNOc,2020-0188,2020-05-21,14:48:47,15:09:24,NA,incomplete,158,shape,1,right,Purple_Star_Dots_4.jpg,Blue_Triangle_Grid_4.jpg,Green_Star_Chess_2.jpg,right,738.4150000289083,true,low,NA,NA,NA,NA,NA,NA,NA,false
lObkxNOc,3j6bhnx0vc5zv8hudcso2u6bq3dnka,339ansotr9f94r4x7ykym66lq3xikc,lObkxNOc,2020-0188,2020-05-21,14:48:47,15:09:24,NA,incomplete,159,shape,1,right,Red_Star_Grid_1.jpg,Green_Plus_Dots_1.jpg,Purple_Star_Stripes_2.jpg,right,673.7750000320375,true,low,NA,NA,NA,NA,NA,NA,NA,false
lObkxNOc,3j6bhnx0vc5zv8hudcso2u6bq3dnka,339ansotr9f94r4x7ykym66lq3xikc,lObkxNOc,2020-0188,2020-05-21,14:48:47,15:09:24,NA,incomplete,160,number,1,left,Blue_Triangle_Chess_1.jpg,Green_Plus_Grid_1.jpg,Purple_Triangle_Stripes_2.jpg,right,843.4200000483543,false,low,NA,NA,NA,NA,NA,NA,NA,false
lObkxNOc,3j6bhnx0vc5zv8hudcso2u6bq3dnka,339ansotr9f94r4x7ykym66lq3xikc,lObkxNOc,2020-0188,2020-05-21,14:48:47,15:09:24,NA,incomplete,161,number,1,right,Red_Plus_Stripes_1.jpg,Purple_Plus_Dots_3.jpg,Green_Circle_Grid_1.jpg,left,654.7799999825656,false,low,NA,NA,NA,NA,NA,NA,NA,false
lObkxNOc,3j6bhnx0vc5zv8hudcso2u6bq3dnka,339ansotr9f94r4x7ykym66lq3xikc,lObkxNOc,2020-0188,2020-05-21,14:48:47,15:09:24,NA,incomplete,162,number,1,left,Green_Star_Chess_3.jpg,Blue_Circle_Grid_3.jpg,Purple_Star_Dots_4.jpg,left,1784.8950000479817,true,low,NA,NA,NA,NA,NA,NA,NA,false
lObkxNOc,3j6bhnx0vc5zv8hudcso2u6bq3dnka,339ansotr9f94r4x7ykym66lq3xikc,lObkxNOc,2020-0188,2020-05-21,14:48:47,15:09:24,NA,incomplete,163,number,1,right,Blue_Plus_Stripes_1.jpg,Green_Plus_Dots_2.jpg,Red_Triangle_Grid_1.jpg,right,951.935000019148,true,low,NA,NA,NA,NA,NA,NA,NA,false
lObkxNOc,3j6bhnx0vc5zv8hudcso2u6bq3dnka,339ansotr9f94r4x7ykym66lq3xikc,lObkxNOc,2020-0188,2020-05-21,14:48:47,15:09:24,NA,incomplete,164,number,1,right,Green_Star_Stripes_1.jpg,Purple_Star_Chess_4.jpg,Red_Circle_Dots_1.jpg,left,845.2299998607486,false,low,NA,NA,NA,NA,NA,NA,NA,false
lObkxNOc,3j6bhnx0vc5zv8hudcso2u6bq3dnka,339ansotr9f94r4x7ykym66lq3xikc,lObkxNOc,2020-0188,2020-05-21,14:48:47,15:09:24,NA,incomplete,165,number,1,left,Blue_Circle_Chess_1.jpg,Red_Star_Dots_1.jpg,Purple_Circle_Grid_2.jpg,left,912.4799999408424,true,low,NA,NA,NA,NA,NA,NA,NA,false
lObkxNOc,3j6bhnx0vc5zv8hudcso2u6bq3dnka,339ansotr9f94r4x7ykym66lq3xikc,lObkxNOc,2020-0188,2020-05-21,14:48:47,15:09:24,NA,incomplete,166,number,1,left,Red_Star_Dots_3.jpg,Green_Circle_Stripes_3.jpg,Blue_Star_Chess_1.jpg,right,696.1050000973046,false,low,NA,NA,NA,NA,NA,NA,NA,false
lObkxNOc,3j6bhnx0vc5zv8hudcso2u6bq3dnka,339ansotr9f94r4x7ykym66lq3xikc,lObkxNOc,2020-0188,2020-05-21,14:48:47,15:09:24,NA,incomplete,167,number,1,right,Purple_Plus_Chess_3.jpg,Blue_Plus_Dots_2.jpg,Red_Star_Stripes_3.jpg,right,1041.4549999404699,true,low,NA,NA,NA,NA,NA,NA,NA,false
lObkxNOc,3j6bhnx0vc5zv8hudcso2u6bq3dnka,339ansotr9f94r4x7ykym66lq3xikc,lObkxNOc,2020-0188,2020-05-21,14:48:47,15:09:24,NA,incomplete,168,number,0,left,Blue_Plus_Chess_2.jpg,Red_Triangle_Dots_2.jpg,Purple_Plus_Grid_4.jpg,left,1086.2699998542666,true,low,NA,NA,NA,NA,NA,NA,NA,false
lObkxNOc,3j6bhnx0vc5zv8hudcso2u6bq3dnka,339ansotr9f94r4x7ykym66lq3xikc,lObkxNOc,2020-0188,2020-05-21,14:48:47,15:09:24,NA,incomplete,169,number,1,right,Purple_Circle_Grid_1.jpg,Red_Circle_Dots_4.jpg,Green_Plus_Stripes_1.jpg,right,677.9899999964982,true,low,NA,NA,NA,NA,NA,NA,NA,false
lObkxNOc,3j6bhnx0vc5zv8hudcso2u6bq3dnka,339ansotr9f94r4x7ykym66lq3xikc,lObkxNOc,2020-0188,2020-05-21,14:48:47,15:09:24,NA,incomplete,170,number,1,left,Blue_Triangle_Chess_2.jpg,Purple_Circle_Grid_2.jpg,Red_Triangle_Dots_4.jpg,left,775.9650000371039,true,low,NA,NA,NA,NA,NA,NA,NA,false
lObkxNOc,3j6bhnx0vc5zv8hudcso2u6bq3dnka,339ansotr9f94r4x7ykym66lq3xikc,lObkxNOc,2020-0188,2020-05-21,14:48:47,15:09:24,NA,incomplete,171,number,0,left,Green_Plus_Dots_4.jpg,Red_Triangle_Grid_4.jpg,Blue_Plus_Chess_2.jpg,left,685.9249998815358,true,low,NA,NA,NA,NA,NA,NA,NA,false
lObkxNOc,3j6bhnx0vc5zv8hudcso2u6bq3dnka,339ansotr9f94r4x7ykym66lq3xikc,lObkxNOc,2020-0188,2020-05-21,14:48:47,15:09:24,NA,incomplete,172,number,1,right,Blue_Plus_Chess_2.jpg,Green_Plus_Dots_4.jpg,Red_Circle_Grid_2.jpg,right,816.1100000143051,true,low,NA,NA,NA,NA,NA,NA,NA,false
lObkxNOc,3j6bhnx0vc5zv8hudcso2u6bq3dnka,339ansotr9f94r4x7ykym66lq3xikc,lObkxNOc,2020-0188,2020-05-21,14:48:47,15:09:24,NA,incomplete,173,number,1,left,Purple_Plus_Stripes_2.jpg,Red_Star_Grid_2.jpg,Green_Plus_Chess_3.jpg,left,772.0799997914582,true,low,NA,NA,NA,NA,NA,NA,NA,false
lObkxNOc,3j6bhnx0vc5zv8hudcso2u6bq3dnka,339ansotr9f94r4x7ykym66lq3xikc,lObkxNOc,2020-0188,2020-05-21,14:48:47,15:09:24,NA,incomplete,174,number,1,left,Blue_Triangle_Dots_2.jpg,Green_Star_Stripes_2.jpg,Purple_Triangle_Grid_4.jpg,left,618.0249999742955,true,low,NA,NA,NA,NA,NA,NA,NA,false
lObkxNOc,3j6bhnx0vc5zv8hudcso2u6bq3dnka,339ansotr9f94r4x7ykym66lq3xikc,lObkxNOc,2020-0188,2020-05-21,14:48:47,15:09:24,NA,incomplete,175,number,0,right,Blue_Circle_Chess_4.jpg,Red_Circle_Grid_1.jpg,Green_Star_Stripes_4.jpg,right,613.6050000786781,true,low,NA,NA,NA,NA,NA,NA,NA,false
lObkxNOc,3j6bhnx0vc5zv8hudcso2u6bq3dnka,339ansotr9f94r4x7ykym66lq3xikc,lObkxNOc,2020-0188,2020-05-21,14:48:47,15:09:24,NA,incomplete,176,number,1,left,Purple_Star_Dots_4.jpg,Red_Circle_Grid_4.jpg,Blue_Star_Stripes_3.jpg,left,498.8750000484288,true,low,NA,NA,NA,NA,NA,NA,NA,false
lObkxNOc,3j6bhnx0vc5zv8hudcso2u6bq3dnka,339ansotr9f94r4x7ykym66lq3xikc,lObkxNOc,2020-0188,2020-05-21,14:48:47,15:09:24,NA,incomplete,177,number,1,right,Blue_Plus_Chess_1.jpg,Red_Plus_Dots_4.jpg,Green_Triangle_Stripes_1.jpg,right,596.4299999177456,true,low,NA,NA,NA,NA,NA,NA,NA,false
lObkxNOc,3j6bhnx0vc5zv8hudcso2u6bq3dnka,339ansotr9f94r4x7ykym66lq3xikc,lObkxNOc,2020-0188,2020-05-21,14:48:47,15:09:24,NA,incomplete,178,number,0,left,Red_Triangle_Grid_4.jpg,Purple_Circle_Chess_4.jpg,Green_Triangle_Dots_1.jpg,left,456.6900001373142,true,low,NA,NA,NA,NA,NA,NA,NA,false
lObkxNOc,3j6bhnx0vc5zv8hudcso2u6bq3dnka,339ansotr9f94r4x7ykym66lq3xikc,lObkxNOc,2020-0188,2020-05-21,14:48:47,15:09:24,NA,incomplete,179,number,1,right,Blue_Plus_Stripes_3.jpg,Red_Plus_Chess_4.jpg,Purple_Star_Dots_3.jpg,right,859.1299999970943,true,low,NA,NA,NA,NA,NA,NA,NA,false
lObkxNOc,3j6bhnx0vc5zv8hudcso2u6bq3dnka,339ansotr9f94r4x7ykym66lq3xikc,lObkxNOc,2020-0188,2020-05-21,14:48:47,15:09:24,NA,incomplete,180,shape,1,left,Blue_Plus_Stripes_3.jpg,Red_Plus_Grid_2.jpg,Purple_Triangle_Dots_3.jpg,right,814.6450000349432,false,low,NA,NA,NA,NA,NA,NA,NA,false
lObkxNOc,3j6bhnx0vc5zv8hudcso2u6bq3dnka,339ansotr9f94r4x7ykym66lq3xikc,lObkxNOc,2020-0188,2020-05-21,14:48:47,15:09:24,NA,incomplete,181,shape,1,right,Red_Triangle_Grid_3.jpg,Purple_Circle_Chess_3.jpg,Blue_Triangle_Dots_2.jpg,left,698.9450000692159,false,low,NA,NA,NA,NA,NA,NA,NA,false
lObkxNOc,3j6bhnx0vc5zv8hudcso2u6bq3dnka,339ansotr9f94r4x7ykym66lq3xikc,lObkxNOc,2020-0188,2020-05-21,14:48:47,15:09:24,NA,incomplete,182,shape,1,right,Purple_Star_Dots_4.jpg,Red_Plus_Chess_4.jpg,Green_Star_Stripes_3.jpg,right,1643.984999973327,true,low,NA,NA,NA,NA,NA,NA,NA,false
lObkxNOc,3j6bhnx0vc5zv8hudcso2u6bq3dnka,339ansotr9f94r4x7ykym66lq3xikc,lObkxNOc,2020-0188,2020-05-21,14:48:47,15:09:24,NA,incomplete,183,shape,0,left,Blue_Plus_Stripes_3.jpg,Red_Plus_Dots_2.jpg,Purple_Star_Grid_3.jpg,left,1040.0899997912347,true,low,NA,NA,NA,NA,NA,NA,NA,false
lObkxNOc,3j6bhnx0vc5zv8hudcso2u6bq3dnka,339ansotr9f94r4x7ykym66lq3xikc,lObkxNOc,2020-0188,2020-05-21,14:48:47,15:09:24,NA,incomplete,184,shape,1,left,Green_Plus_Grid_1.jpg,Red_Plus_Stripes_2.jpg,Blue_Star_Dots_1.jpg,left,666.6950001381338,true,low,NA,NA,NA,NA,NA,NA,NA,false
lObkxNOc,3j6bhnx0vc5zv8hudcso2u6bq3dnka,339ansotr9f94r4x7ykym66lq3xikc,lObkxNOc,2020-0188,2020-05-21,14:48:47,15:09:24,NA,incomplete,185,shape,1,right,Green_Circle_Chess_3.jpg,Blue_Triangle_Grid_3.jpg,Red_Circle_Stripes_1.jpg,left,813.5800000745803,false,low,NA,NA,NA,NA,NA,NA,NA,false
lObkxNOc,3j6bhnx0vc5zv8hudcso2u6bq3dnka,339ansotr9f94r4x7ykym66lq3xikc,lObkxNOc,2020-0188,2020-05-21,14:48:47,15:09:24,NA,incomplete,186,shape,1,right,Blue_Plus_Stripes_4.jpg,Red_Star_Chess_4.jpg,Purple_Plus_Dots_2.jpg,right,1258.3049999084324,true,low,NA,NA,NA,NA,NA,NA,NA,false
lObkxNOc,3j6bhnx0vc5zv8hudcso2u6bq3dnka,339ansotr9f94r4x7ykym66lq3xikc,lObkxNOc,2020-0188,2020-05-21,14:48:47,15:09:24,NA,incomplete,187,shape,0,right,Red_Plus_Dots_2.jpg,Purple_Triangle_Grid_2.jpg,Blue_Plus_Stripes_1.jpg,right,1324.1500000003725,true,low,NA,NA,NA,NA,NA,NA,NA,false
lObkxNOc,3j6bhnx0vc5zv8hudcso2u6bq3dnka,339ansotr9f94r4x7ykym66lq3xikc,lObkxNOc,2020-0188,2020-05-21,14:48:47,15:09:24,NA,incomplete,188,shape,1,left,Green_Circle_Stripes_3.jpg,Purple_Circle_Grid_1.jpg,Red_Triangle_Chess_3.jpg,left,1324.7100000735372,true,low,NA,NA,NA,NA,NA,NA,NA,false
lObkxNOc,3j6bhnx0vc5zv8hudcso2u6bq3dnka,339ansotr9f94r4x7ykym66lq3xikc,lObkxNOc,2020-0188,2020-05-21,14:48:47,15:09:24,NA,incomplete,189,shape,0,right,Blue_Triangle_Dots_2.jpg,Purple_Plus_Grid_2.jpg,Green_Triangle_Chess_3.jpg,right,756.5649999305606,true,low,NA,NA,NA,NA,NA,NA,NA,false
lObkxNOc,3j6bhnx0vc5zv8hudcso2u6bq3dnka,339ansotr9f94r4x7ykym66lq3xikc,lObkxNOc,2020-0188,2020-05-21,14:48:47,15:09:24,NA,incomplete,190,shape,1,left,Green_Triangle_Dots_3.jpg,Red_Triangle_Chess_2.jpg,Blue_Plus_Grid_3.jpg,left,779.0700001642108,true,low,NA,NA,NA,NA,NA,NA,NA,false
lObkxNOc,3j6bhnx0vc5zv8hudcso2u6bq3dnka,339ansotr9f94r4x7ykym66lq3xikc,lObkxNOc,2020-0188,2020-05-21,14:48:47,15:09:24,NA,incomplete,191,shape,0,left,Green_Star_Chess_2.jpg,Purple_Star_Grid_3.jpg,Red_Circle_Dots_2.jpg,left,920.22499977611,true,low,NA,NA,NA,NA,NA,NA,NA,false
lObkxNOc,3j6bhnx0vc5zv8hudcso2u6bq3dnka,339ansotr9f94r4x7ykym66lq3xikc,lObkxNOc,2020-0188,2020-05-21,14:48:47,15:09:24,NA,incomplete,192,shape,1,left,Purple_Triangle_Grid_3.jpg,Blue_Triangle_Stripes_1.jpg,Red_Plus_Chess_3.jpg,left,866.4750000461936,true,low,NA,NA,NA,NA,NA,NA,NA,false
lObkxNOc,3j6bhnx0vc5zv8hudcso2u6bq3dnka,339ansotr9f94r4x7ykym66lq3xikc,lObkxNOc,2020-0188,2020-05-21,14:48:47,15:09:24,NA,incomplete,193,shape,1,right,Green_Plus_Grid_3.jpg,Red_Triangle_Stripes_3.jpg,Blue_Plus_Chess_1.jpg,right,747.5449999328703,true,low,NA,NA,NA,NA,NA,NA,NA,false
lObkxNOc,3j6bhnx0vc5zv8hudcso2u6bq3dnka,339ansotr9f94r4x7ykym66lq3xikc,lObkxNOc,2020-0188,2020-05-21,14:48:47,15:09:24,NA,incomplete,194,shape,0,left,Blue_Plus_Grid_4.jpg,Purple_Plus_Chess_2.jpg,Green_Star_Dots_4.jpg,left,706.6400002222508,true,low,NA,NA,NA,NA,NA,NA,NA,false
lObkxNOc,3j6bhnx0vc5zv8hudcso2u6bq3dnka,339ansotr9f94r4x7ykym66lq3xikc,lObkxNOc,2020-0188,2020-05-21,14:48:47,15:09:24,NA,incomplete,195,shape,1,left,Red_Circle_Grid_1.jpg,Purple_Circle_Dots_4.jpg,Blue_Triangle_Stripes_1.jpg,left,1043.1950001511723,true,low,NA,NA,NA,NA,NA,NA,NA,false
lObkxNOc,3j6bhnx0vc5zv8hudcso2u6bq3dnka,339ansotr9f94r4x7ykym66lq3xikc,lObkxNOc,2020-0188,2020-05-21,14:48:47,15:09:24,NA,incomplete,196,shape,0,left,Green_Triangle_Chess_3.jpg,Purple_Triangle_Stripes_2.jpg,Red_Plus_Grid_3.jpg,left,822.5350000429899,true,low,NA,NA,NA,NA,NA,NA,NA,false
lObkxNOc,3j6bhnx0vc5zv8hudcso2u6bq3dnka,339ansotr9f94r4x7ykym66lq3xikc,lObkxNOc,2020-0188,2020-05-21,14:48:47,15:09:24,NA,incomplete,197,shape,1,left,Blue_Star_Dots_4.jpg,Red_Star_Stripes_2.jpg,Purple_Circle_Grid_4.jpg,left,1410.494999960065,true,low,NA,NA,NA,NA,NA,NA,NA,false
lObkxNOc,3j6bhnx0vc5zv8hudcso2u6bq3dnka,339ansotr9f94r4x7ykym66lq3xikc,lObkxNOc,2020-0188,2020-05-21,14:48:47,15:09:24,NA,incomplete,198,shape,1,left,Purple_Circle_Dots_1.jpg,Blue_Circle_Stripes_4.jpg,Green_Triangle_Grid_1.jpg,right,1750.8249999955297,false,low,NA,NA,NA,NA,NA,NA,NA,false
lObkxNOc,3j6bhnx0vc5zv8hudcso2u6bq3dnka,339ansotr9f94r4x7ykym66lq3xikc,lObkxNOc,2020-0188,2020-05-21,14:48:47,15:09:24,NA,incomplete,199,shape,1,right,Green_Circle_Chess_4.jpg,Blue_Triangle_Dots_4.jpg,Red_Circle_Stripes_3.jpg,right,1294.240000192076,true,low,NA,NA,NA,NA,NA,NA,NA,false
lObkxNOc,3j6bhnx0vc5zv8hudcso2u6bq3dnka,339ansotr9f94r4x7ykym66lq3xikc,lObkxNOc,2020-0188,2020-05-21,14:48:47,15:09:24,NA,incomplete,200,number,1,left,Blue_Circle_Dots_2.jpg,Red_Plus_Chess_2.jpg,Green_Circle_Stripes_3.jpg,right,862.8750001080334,false,low,NA,NA,NA,NA,NA,NA,NA,false
lObkxNOc,3j6bhnx0vc5zv8hudcso2u6bq3dnka,339ansotr9f94r4x7ykym66lq3xikc,lObkxNOc,2020-0188,2020-05-21,14:48:47,15:09:24,NA,incomplete,201,number,1,right,Green_Plus_Grid_1.jpg,Blue_Plus_Chess_4.jpg,Red_Star_Dots_1.jpg,left,841.2250000983477,false,low,NA,NA,NA,NA,NA,NA,NA,false
lObkxNOc,3j6bhnx0vc5zv8hudcso2u6bq3dnka,339ansotr9f94r4x7ykym66lq3xikc,lObkxNOc,2020-0188,2020-05-21,14:48:47,15:09:24,NA,incomplete,202,number,1,left,Green_Star_Grid_2.jpg,Red_Circle_Stripes_2.jpg,Purple_Star_Dots_3.jpg,left,796.8850000761449,true,low,NA,NA,NA,NA,NA,NA,NA,false
lObkxNOc,3j6bhnx0vc5zv8hudcso2u6bq3dnka,339ansotr9f94r4x7ykym66lq3xikc,lObkxNOc,2020-0188,2020-05-21,14:48:47,15:09:24,NA,incomplete,203,number,1,left,Red_Circle_Stripes_3.jpg,Purple_Star_Dots_3.jpg,Green_Circle_Grid_2.jpg,left,889.6949999034405,true,low,NA,NA,NA,NA,NA,NA,NA,false
lObkxNOc,3j6bhnx0vc5zv8hudcso2u6bq3dnka,339ansotr9f94r4x7ykym66lq3xikc,lObkxNOc,2020-0188,2020-05-21,14:48:47,15:09:24,NA,incomplete,204,number,1,left,Green_Plus_Chess_1.jpg,Blue_Circle_Grid_1.jpg,Red_Plus_Stripes_3.jpg,right,940.3749997727573,false,low,NA,NA,NA,NA,NA,NA,NA,false
lObkxNOc,3j6bhnx0vc5zv8hudcso2u6bq3dnka,339ansotr9f94r4x7ykym66lq3xikc,lObkxNOc,2020-0188,2020-05-21,14:48:47,15:09:24,NA,incomplete,205,number,1,left,Red_Star_Grid_4.jpg,Purple_Triangle_Dots_4.jpg,Blue_Star_Chess_2.jpg,left,1042.2499999403954,true,low,NA,NA,NA,NA,NA,NA,NA,false
lObkxNOc,3j6bhnx0vc5zv8hudcso2u6bq3dnka,339ansotr9f94r4x7ykym66lq3xikc,lObkxNOc,2020-0188,2020-05-21,14:48:47,15:09:24,NA,incomplete,206,number,0,right,Blue_Star_Stripes_2.jpg,Green_Star_Dots_4.jpg,Red_Triangle_Chess_2.jpg,right,687.5050000380725,true,low,NA,NA,NA,NA,NA,NA,NA,false
lObkxNOc,3j6bhnx0vc5zv8hudcso2u6bq3dnka,339ansotr9f94r4x7ykym66lq3xikc,lObkxNOc,2020-0188,2020-05-21,14:48:47,15:09:24,NA,incomplete,207,number,1,left,Purple_Star_Dots_3.jpg,Green_Plus_Grid_3.jpg,Red_Star_Chess_2.jpg,left,751.5549999661744,true,low,NA,NA,NA,NA,NA,NA,NA,false
lObkxNOc,3j6bhnx0vc5zv8hudcso2u6bq3dnka,339ansotr9f94r4x7ykym66lq3xikc,lObkxNOc,2020-0188,2020-05-21,14:48:47,15:09:24,NA,incomplete,208,number,1,right,Red_Star_Chess_3.jpg,Green_Star_Dots_2.jpg,Purple_Circle_Stripes_3.jpg,right,1125.3349999897182,true,low,NA,NA,NA,NA,NA,NA,NA,false
lObkxNOc,3j6bhnx0vc5zv8hudcso2u6bq3dnka,339ansotr9f94r4x7ykym66lq3xikc,lObkxNOc,2020-0188,2020-05-21,14:48:47,15:09:24,NA,incomplete,209,number,0,right,Purple_Circle_Stripes_4.jpg,Green_Circle_Chess_3.jpg,Blue_Star_Dots_4.jpg,right,1006.2899999320507,true,low,NA,NA,NA,NA,NA,NA,NA,false
lObkxNOc,3j6bhnx0vc5zv8hudcso2u6bq3dnka,339ansotr9f94r4x7ykym66lq3xikc,lObkxNOc,2020-0188,2020-05-21,14:48:47,15:09:24,NA,incomplete,210,number,1,right,Green_Circle_Dots_1.jpg,Red_Circle_Stripes_4.jpg,Blue_Star_Grid_1.jpg,right,834.3100000638515,true,low,NA,NA,NA,NA,NA,NA,NA,false
lObkxNOc,3j6bhnx0vc5zv8hudcso2u6bq3dnka,339ansotr9f94r4x7ykym66lq3xikc,lObkxNOc,2020-0188,2020-05-21,14:48:47,15:09:24,NA,incomplete,211,number,1,right,Green_Star_Grid_1.jpg,Purple_Star_Stripes_3.jpg,Blue_Triangle_Chess_1.jpg,right,797.6299999281764,true,low,NA,NA,NA,NA,NA,NA,NA,false
lObkxNOc,3j6bhnx0vc5zv8hudcso2u6bq3dnka,339ansotr9f94r4x7ykym66lq3xikc,lObkxNOc,2020-0188,2020-05-21,14:48:47,15:09:24,NA,incomplete,212,number,1,right,Green_Circle_Chess_1.jpg,Blue_Circle_Grid_2.jpg,Red_Triangle_Stripes_1.jpg,right,746.5900001116097,true,low,NA,NA,NA,NA,NA,NA,NA,false
lObkxNOc,3j6bhnx0vc5zv8hudcso2u6bq3dnka,339ansotr9f94r4x7ykym66lq3xikc,lObkxNOc,2020-0188,2020-05-21,14:48:47,15:09:24,NA,incomplete,213,number,1,right,Green_Circle_Stripes_3.jpg,Red_Circle_Chess_4.jpg,Blue_Star_Dots_3.jpg,right,729.7499999403954,true,low,NA,NA,NA,NA,NA,NA,NA,false
lObkxNOc,3j6bhnx0vc5zv8hudcso2u6bq3dnka,339ansotr9f94r4x7ykym66lq3xikc,lObkxNOc,2020-0188,2020-05-21,14:48:47,15:09:24,NA,incomplete,214,number,0,right,Blue_Star_Chess_1.jpg,Green_Star_Grid_2.jpg,Red_Triangle_Stripes_1.jpg,right,897.1599999349564,true,low,NA,NA,NA,NA,NA,NA,NA,false
lObkxNOc,3j6bhnx0vc5zv8hudcso2u6bq3dnka,339ansotr9f94r4x7ykym66lq3xikc,lObkxNOc,2020-0188,2020-05-21,14:48:47,15:09:24,NA,incomplete,215,number,1,right,Red_Triangle_Stripes_1.jpg,Purple_Triangle_Chess_2.jpg,Green_Plus_Dots_1.jpg,right,802.9850001912564,true,low,NA,NA,NA,NA,NA,NA,NA,false
lObkxNOc,3j6bhnx0vc5zv8hudcso2u6bq3dnka,339ansotr9f94r4x7ykym66lq3xikc,lObkxNOc,2020-0188,2020-05-21,14:48:47,15:09:24,NA,incomplete,216,number,1,left,Purple_Star_Chess_2.jpg,Green_Plus_Dots_2.jpg,Red_Star_Stripes_4.jpg,left,823.7850000150502,true,low,NA,NA,NA,NA,NA,NA,NA,false
lObkxNOc,3j6bhnx0vc5zv8hudcso2u6bq3dnka,339ansotr9f94r4x7ykym66lq3xikc,lObkxNOc,2020-0188,2020-05-21,14:48:47,15:09:24,NA,incomplete,217,number,1,left,Green_Star_Dots_3.jpg,Blue_Triangle_Grid_3.jpg,Red_Star_Chess_2.jpg,left,835.9149999450892,true,low,NA,NA,NA,NA,NA,NA,NA,false
lObkxNOc,3j6bhnx0vc5zv8hudcso2u6bq3dnka,339ansotr9f94r4x7ykym66lq3xikc,lObkxNOc,2020-0188,2020-05-21,14:48:47,15:09:24,NA,incomplete,218,number,1,right,Green_Triangle_Chess_3.jpg,Purple_Triangle_Dots_4.jpg,Blue_Plus_Stripes_3.jpg,right,655.619999859482,true,low,NA,NA,NA,NA,NA,NA,NA,false
lObkxNOc,3j6bhnx0vc5zv8hudcso2u6bq3dnka,339ansotr9f94r4x7ykym66lq3xikc,lObkxNOc,2020-0188,2020-05-21,14:48:47,15:09:24,NA,incomplete,219,number,1,left,Green_Star_Stripes_3.jpg,Purple_Triangle_Grid_3.jpg,Blue_Star_Dots_4.jpg,left,673.8550001755357,true,low,NA,NA,NA,NA,NA,NA,NA,false
lObkxNOc,3j6bhnx0vc5zv8hudcso2u6bq3dnka,339ansotr9f94r4x7ykym66lq3xikc,lObkxNOc,2020-0188,2020-05-21,14:48:47,15:09:24,NA,incomplete,220,shape,1,left,Red_Circle_Dots_2.jpg,Blue_Circle_Chess_4.jpg,Purple_Star_Grid_2.jpg,right,882.8900000080466,false,low,NA,NA,NA,NA,NA,NA,NA,false
lObkxNOc,3j6bhnx0vc5zv8hudcso2u6bq3dnka,339ansotr9f94r4x7ykym66lq3xikc,lObkxNOc,2020-0188,2020-05-21,14:48:47,15:09:24,NA,incomplete,221,shape,1,left,Purple_Plus_Dots_4.jpg,Red_Plus_Chess_2.jpg,Blue_Star_Grid_4.jpg,right,694.9750001076609,false,low,NA,NA,NA,NA,NA,NA,NA,false
lObkxNOc,3j6bhnx0vc5zv8hudcso2u6bq3dnka,339ansotr9f94r4x7ykym66lq3xikc,lObkxNOc,2020-0188,2020-05-21,14:48:47,15:09:24,NA,incomplete,222,shape,1,right,Red_Star_Stripes_3.jpg,Purple_Circle_Grid_3.jpg,Green_Star_Dots_4.jpg,left,702.555000083521,false,low,NA,NA,NA,NA,NA,NA,NA,false
lObkxNOc,3j6bhnx0vc5zv8hudcso2u6bq3dnka,339ansotr9f94r4x7ykym66lq3xikc,lObkxNOc,2020-0188,2020-05-21,14:48:47,15:09:24,NA,incomplete,223,shape,1,left,Red_Circle_Grid_1.jpg,Blue_Circle_Stripes_2.jpg,Green_Star_Chess_1.jpg,right,1343.709999928251,false,low,NA,NA,NA,NA,NA,NA,NA,false
lObkxNOc,3j6bhnx0vc5zv8hudcso2u6bq3dnka,339ansotr9f94r4x7ykym66lq3xikc,lObkxNOc,2020-0188,2020-05-21,14:48:47,15:09:24,NA,incomplete,224,shape,1,left,Green_Circle_Stripes_3.jpg,Purple_Circle_Dots_4.jpg,Blue_Star_Grid_3.jpg,left,1262.3399998992682,true,low,NA,NA,NA,NA,NA,NA,NA,false
lObkxNOc,3j6bhnx0vc5zv8hudcso2u6bq3dnka,339ansotr9f94r4x7ykym66lq3xikc,lObkxNOc,2020-0188,2020-05-21,14:48:47,15:09:24,NA,incomplete,225,shape,1,left,Purple_Circle_Chess_2.jpg,Blue_Circle_Stripes_1.jpg,Red_Star_Dots_2.jpg,left,641.2500001024455,true,low,NA,NA,NA,NA,NA,NA,NA,false
lObkxNOc,3j6bhnx0vc5zv8hudcso2u6bq3dnka,339ansotr9f94r4x7ykym66lq3xikc,lObkxNOc,2020-0188,2020-05-21,14:48:47,15:09:24,NA,incomplete,226,shape,1,right,Blue_Triangle_Dots_3.jpg,Red_Plus_Grid_3.jpg,Purple_Triangle_Chess_4.jpg,right,1038.3349999319762,true,low,NA,NA,NA,NA,NA,NA,NA,false
lObkxNOc,3j6bhnx0vc5zv8hudcso2u6bq3dnka,339ansotr9f94r4x7ykym66lq3xikc,lObkxNOc,2020-0188,2020-05-21,14:48:47,15:09:24,NA,incomplete,227,shape,1,left,Red_Circle_Stripes_4.jpg,Green_Circle_Grid_3.jpg,Blue_Star_Dots_4.jpg,left,831.0999998357147,true,low,NA,NA,NA,NA,NA,NA,NA,false
lObkxNOc,3j6bhnx0vc5zv8hudcso2u6bq3dnka,339ansotr9f94r4x7ykym66lq3xikc,lObkxNOc,2020-0188,2020-05-21,14:48:47,15:09:24,NA,incomplete,228,shape,1,left,Green_Star_Stripes_1.jpg,Purple_Star_Grid_2.jpg,Blue_Circle_Chess_1.jpg,left,700.0599999446422,true,low,NA,NA,NA,NA,NA,NA,NA,false
lObkxNOc,3j6bhnx0vc5zv8hudcso2u6bq3dnka,339ansotr9f94r4x7ykym66lq3xikc,lObkxNOc,2020-0188,2020-05-21,14:48:47,15:09:24,NA,incomplete,229,shape,1,right,Green_Plus_Stripes_1.jpg,Red_Star_Chess_1.jpg,Purple_Plus_Grid_3.jpg,right,1220.2249998226762,true,low,NA,NA,NA,NA,NA,NA,NA,false
lObkxNOc,3j6bhnx0vc5zv8hudcso2u6bq3dnka,339ansotr9f94r4x7ykym66lq3xikc,lObkxNOc,2020-0188,2020-05-21,14:48:47,15:09:24,NA,incomplete,230,shape,1,right,Red_Triangle_Grid_4.jpg,Blue_Circle_Stripes_4.jpg,Purple_Triangle_Chess_1.jpg,right,817.3350000288337,true,low,NA,NA,NA,NA,NA,NA,NA,false
lObkxNOc,3j6bhnx0vc5zv8hudcso2u6bq3dnka,339ansotr9f94r4x7ykym66lq3xikc,lObkxNOc,2020-0188,2020-05-21,14:48:47,15:09:24,NA,incomplete,231,shape,1,right,Blue_Star_Stripes_1.jpg,Red_Plus_Dots_1.jpg,Green_Star_Chess_2.jpg,right,829.9849999602884,true,low,NA,NA,NA,NA,NA,NA,NA,false
lObkxNOc,3j6bhnx0vc5zv8hudcso2u6bq3dnka,339ansotr9f94r4x7ykym66lq3xikc,lObkxNOc,2020-0188,2020-05-21,14:48:47,15:09:24,NA,incomplete,232,shape,1,right,Red_Plus_Stripes_2.jpg,Green_Star_Chess_2.jpg,Purple_Plus_Dots_1.jpg,right,728.1150000635535,true,low,NA,NA,NA,NA,NA,NA,NA,false
lObkxNOc,3j6bhnx0vc5zv8hudcso2u6bq3dnka,339ansotr9f94r4x7ykym66lq3xikc,lObkxNOc,2020-0188,2020-05-21,14:48:47,15:09:24,NA,incomplete,233,shape,0,left,Blue_Triangle_Stripes_2.jpg,Green_Triangle_Dots_1.jpg,Purple_Circle_Chess_2.jpg,left,704.7850000672042,true,low,NA,NA,NA,NA,NA,NA,NA,false
lObkxNOc,3j6bhnx0vc5zv8hudcso2u6bq3dnka,339ansotr9f94r4x7ykym66lq3xikc,lObkxNOc,2020-0188,2020-05-21,14:48:47,15:09:24,NA,incomplete,234,shape,1,left,Red_Triangle_Stripes_1.jpg,Blue_Triangle_Chess_4.jpg,Green_Plus_Dots_1.jpg,left,697.0399999991059,true,low,NA,NA,NA,NA,NA,NA,NA,false
lObkxNOc,3j6bhnx0vc5zv8hudcso2u6bq3dnka,339ansotr9f94r4x7ykym66lq3xikc,lObkxNOc,2020-0188,2020-05-21,14:48:47,15:09:24,NA,incomplete,235,shape,0,right,Green_Plus_Grid_4.jpg,Red_Circle_Chess_4.jpg,Blue_Plus_Dots_1.jpg,right,833.5349999833852,true,low,NA,NA,NA,NA,NA,NA,NA,false
lObkxNOc,3j6bhnx0vc5zv8hudcso2u6bq3dnka,339ansotr9f94r4x7ykym66lq3xikc,lObkxNOc,2020-0188,2020-05-21,14:48:47,15:09:24,NA,incomplete,236,shape,1,right,Blue_Circle_Stripes_2.jpg,Green_Triangle_Grid_2.jpg,Purple_Circle_Dots_3.jpg,right,1454.9849999602884,true,low,NA,NA,NA,NA,NA,NA,NA,false
lObkxNOc,3j6bhnx0vc5zv8hudcso2u6bq3dnka,339ansotr9f94r4x7ykym66lq3xikc,lObkxNOc,2020-0188,2020-05-21,14:48:47,15:09:24,NA,incomplete,237,shape,1,left,Purple_Plus_Dots_4.jpg,Green_Plus_Stripes_2.jpg,Blue_Circle_Chess_4.jpg,left,839.525000192225,true,low,NA,NA,NA,NA,NA,NA,NA,false
lObkxNOc,3j6bhnx0vc5zv8hudcso2u6bq3dnka,339ansotr9f94r4x7ykym66lq3xikc,lObkxNOc,2020-0188,2020-05-21,14:48:47,15:09:24,NA,incomplete,238,shape,0,right,Blue_Triangle_Dots_3.jpg,Green_Plus_Grid_3.jpg,Purple_Triangle_Chess_2.jpg,right,651.659999974072,true,low,NA,NA,NA,NA,NA,NA,NA,false
lObkxNOc,3j6bhnx0vc5zv8hudcso2u6bq3dnka,339ansotr9f94r4x7ykym66lq3xikc,lObkxNOc,2020-0188,2020-05-21,14:48:47,15:09:24,NA,incomplete,239,shape,1,right,Red_Circle_Chess_2.jpg,Blue_Triangle_Grid_2.jpg,Green_Circle_Stripes_3.jpg,right,822.334999917075,true,low,NA,NA,NA,NA,NA,NA,NA,false
lObkxNOc,3j6bhnx0vc5zv8hudcso2u6bq3dnka,339ansotr9f94r4x7ykym66lq3xikc,lObkxNOc,2020-0188,2020-05-21,14:48:47,15:09:24,NA,NA,instruction example,filling,NA,NA,Purple_Triangle_Stripes_1.jpg,Green_Star_Stripes_2.jpg,Purple_Circle_Chess_4.jpg,NA,NA,NA,NA,NA,NA,NA,NA,NA,NA,NA,undefined
lObkxNOc,3j6bhnx0vc5zv8hudcso2u6bq3dnka,339ansotr9f94r4x7ykym66lq3xikc,lObkxNOc,2020-0188,2020-05-21,14:48:47,15:09:24,NA,NA,instruction example,filling,NA,NA,Purple_Star_Stripes_1.jpg,Purple_Circle_Grid_3.jpg,Green_Triangle_Stripes_2.jpg,NA,NA,NA,NA,NA,NA,NA,NA,NA,NA,NA,undefined
lObkxNOc,3j6bhnx0vc5zv8hudcso2u6bq3dnka,339ansotr9f94r4x7ykym66lq3xikc,lObkxNOc,2020-0188,2020-05-21,14:48:47,15:09:24,NA,NA,instruction example,filling,NA,NA,Red_Triangle_Grid_1.jpg,Purple_Star_Stripes_1.jpg,Green_Triangle_Chess_4.jpg,NA,NA,NA,NA,NA,NA,NA,NA,NA,NA,NA,undefined
lObkxNOc,3j6bhnx0vc5zv8hudcso2u6bq3dnka,339ansotr9f94r4x7ykym66lq3xikc,lObkxNOc,2020-0188,2020-05-21,14:48:47,15:09:24,NA,NA,instruction example,filling,NA,NA,Blue_Circle_Chess_1.jpg,Red_Circle_Grid_4.jpg,Green_Star_Stripes_1.jpg,NA,NA,NA,NA,NA,NA,NA,NA,NA,NA,NA,undefined
lObkxNOc,3j6bhnx0vc5zv8hudcso2u6bq3dnka,339ansotr9f94r4x7ykym66lq3xikc,lObkxNOc,2020-0188,2020-05-21,14:48:47,15:09:24,1203287.8149999306,1238839.5650000311,NA,NA,NA,NA,NA,NA,NA,NA,NA,NA,NA,29,White/Caucasian,Male,White,no,yes,no,undefined
