workerId,hitId,assignmentId,subject,studyid,exp_date,exp_start,exp_end,time_start,time_end,trial,type,reward_validity,answer,image_top,image_left,image_right,response,response_time,response_acc,volatility,practice
vAPHvuJY,3jhb4bpsgnm0h9bvp7tggfn0kkoq96,33f859i56aq8ftpjv3pknrmg3vmhb9,vAPHvuJY,2020-0188,2020-05-21,14:16:06,14:30:42,NA,incomplete,0,number,1,right,Purple_Plus_Stripes_2.jpg,Blue_Circle_Stripes_1.jpg,Red_Star_Grid_2.jpg,right,930.9249999932945,true,NA,true
vAPHvuJY,3jhb4bpsgnm0h9bvp7tggfn0kkoq96,33f859i56aq8ftpjv3pknrmg3vmhb9,vAPHvuJY,2020-0188,2020-05-21,14:16:06,14:30:42,NA,incomplete,1,number,1,left,Green_Star_Grid_2.jpg,Red_Triangle_Dots_2.jpg,Blue_Plus_Grid_1.jpg,left,645.7899999804795,true,NA,true
vAPHvuJY,3jhb4bpsgnm0h9bvp7tggfn0kkoq96,33f859i56aq8ftpjv3pknrmg3vmhb9,vAPHvuJY,2020-0188,2020-05-21,14:16:06,14:30:42,NA,incomplete,2,number,0,left,Red_Star_Stripes_1.jpg,Blue_Circle_Chess_1.jpg,Green_Triangle_Stripes_2.jpg,left,749.0600000019185,true,NA,true
vAPHvuJY,3jhb4bpsgnm0h9bvp7tggfn0kkoq96,33f859i56aq8ftpjv3pknrmg3vmhb9,vAPHvuJY,2020-0188,2020-05-21,14:16:06,14:30:42,NA,incomplete,3,number,1,left,Red_Circle_Grid_4.jpg,Green_Plus_Dots_4.jpg,Purple_Star_Grid_1.jpg,left,672.5549999973737,true,NA,true
vAPHvuJY,3jhb4bpsgnm0h9bvp7tggfn0kkoq96,33f859i56aq8ftpjv3pknrmg3vmhb9,vAPHvuJY,2020-0188,2020-05-21,14:16:06,14:30:42,NA,incomplete,4,number,0,left,Red_Star_Stripes_2.jpg,Purple_Plus_Dots_2.jpg,Green_Circle_Stripes_4.jpg,right,1350.6999999517575,false,NA,true
vAPHvuJY,3jhb4bpsgnm0h9bvp7tggfn0kkoq96,33f859i56aq8ftpjv3pknrmg3vmhb9,vAPHvuJY,2020-0188,2020-05-21,14:16:06,14:30:42,NA,incomplete,5,number,1,left,Red_Plus_Grid_1.jpg,Green_Triangle_Stripes_1.jpg,Purple_Circle_Grid_3.jpg,left,1275.255000044126,true,NA,true
vAPHvuJY,3jhb4bpsgnm0h9bvp7tggfn0kkoq96,33f859i56aq8ftpjv3pknrmg3vmhb9,vAPHvuJY,2020-0188,2020-05-21,14:16:06,14:30:42,NA,incomplete,6,number,1,left,Purple_Triangle_Dots_1.jpg,Red_Plus_Chess_1.jpg,Blue_Circle_Dots_3.jpg,left,804.6149999718182,true,NA,true
vAPHvuJY,3jhb4bpsgnm0h9bvp7tggfn0kkoq96,33f859i56aq8ftpjv3pknrmg3vmhb9,vAPHvuJY,2020-0188,2020-05-21,14:16:06,14:30:42,NA,incomplete,7,number,1,left,Purple_Plus_Dots_3.jpg,Green_Circle_Stripes_3.jpg,Blue_Triangle_Dots_2.jpg,left,1221.5050000231713,true,NA,true
vAPHvuJY,3jhb4bpsgnm0h9bvp7tggfn0kkoq96,33f859i56aq8ftpjv3pknrmg3vmhb9,vAPHvuJY,2020-0188,2020-05-21,14:16:06,14:30:42,NA,incomplete,8,number,1,left,Red_Circle_Grid_1.jpg,Blue_Star_Chess_1.jpg,Green_Triangle_Grid_2.jpg,left,887.0350000215694,true,NA,true
vAPHvuJY,3jhb4bpsgnm0h9bvp7tggfn0kkoq96,33f859i56aq8ftpjv3pknrmg3vmhb9,vAPHvuJY,2020-0188,2020-05-21,14:16:06,14:30:42,NA,incomplete,9,number,1,left,Blue_Star_Grid_2.jpg,Purple_Circle_Stripes_2.jpg,Green_Plus_Grid_3.jpg,left,821.2249999633059,true,NA,true
vAPHvuJY,3jhb4bpsgnm0h9bvp7tggfn0kkoq96,33f859i56aq8ftpjv3pknrmg3vmhb9,vAPHvuJY,2020-0188,2020-05-21,14:16:06,14:30:42,NA,incomplete,10,number,1,right,Green_Circle_Grid_3.jpg,Red_Star_Grid_1.jpg,Purple_Triangle_Chess_3.jpg,right,982.7449999866076,true,NA,true
vAPHvuJY,3jhb4bpsgnm0h9bvp7tggfn0kkoq96,33f859i56aq8ftpjv3pknrmg3vmhb9,vAPHvuJY,2020-0188,2020-05-21,14:16:06,14:30:42,NA,incomplete,11,number,1,left,Purple_Plus_Stripes_3.jpg,Red_Triangle_Grid_3.jpg,Green_Circle_Stripes_4.jpg,left,1042.3449999652803,true,NA,true
vAPHvuJY,3jhb4bpsgnm0h9bvp7tggfn0kkoq96,33f859i56aq8ftpjv3pknrmg3vmhb9,vAPHvuJY,2020-0188,2020-05-21,14:16:06,14:30:42,NA,incomplete,12,number,1,right,Green_Star_Chess_3.jpg,Purple_Triangle_Chess_2.jpg,Blue_Plus_Grid_3.jpg,right,905.6399999535643,true,NA,true
vAPHvuJY,3jhb4bpsgnm0h9bvp7tggfn0kkoq96,33f859i56aq8ftpjv3pknrmg3vmhb9,vAPHvuJY,2020-0188,2020-05-21,14:16:06,14:30:42,NA,incomplete,13,number,1,right,Red_Circle_Stripes_1.jpg,Purple_Plus_Stripes_2.jpg,Blue_Triangle_Chess_1.jpg,right,879.3900000164285,true,NA,true
vAPHvuJY,3jhb4bpsgnm0h9bvp7tggfn0kkoq96,33f859i56aq8ftpjv3pknrmg3vmhb9,vAPHvuJY,2020-0188,2020-05-21,14:16:06,14:30:42,NA,incomplete,14,number,1,left,Purple_Circle_Dots_2.jpg,Blue_Triangle_Grid_2.jpg,Red_Star_Dots_3.jpg,left,582.399999955669,true,NA,true
vAPHvuJY,3jhb4bpsgnm0h9bvp7tggfn0kkoq96,33f859i56aq8ftpjv3pknrmg3vmhb9,vAPHvuJY,2020-0188,2020-05-21,14:16:06,14:30:42,NA,incomplete,15,number,1,right,Purple_Circle_Stripes_2.jpg,Red_Triangle_Stripes_1.jpg,Green_Plus_Grid_2.jpg,right,776.5800000051968,true,NA,true
vAPHvuJY,3jhb4bpsgnm0h9bvp7tggfn0kkoq96,33f859i56aq8ftpjv3pknrmg3vmhb9,vAPHvuJY,2020-0188,2020-05-21,14:16:06,14:30:42,NA,incomplete,16,number,1,left,Red_Triangle_Chess_4.jpg,Blue_Circle_Dots_4.jpg,Green_Star_Chess_3.jpg,left,779.6550000202842,true,NA,true
vAPHvuJY,3jhb4bpsgnm0h9bvp7tggfn0kkoq96,33f859i56aq8ftpjv3pknrmg3vmhb9,vAPHvuJY,2020-0188,2020-05-21,14:16:06,14:30:42,NA,incomplete,17,number,1,left,Purple_Triangle_Dots_3.jpg,Red_Circle_Stripes_3.jpg,Green_Star_Dots_4.jpg,left,678.5450000315905,true,NA,true
vAPHvuJY,3jhb4bpsgnm0h9bvp7tggfn0kkoq96,33f859i56aq8ftpjv3pknrmg3vmhb9,vAPHvuJY,2020-0188,2020-05-21,14:16:06,14:30:42,NA,incomplete,18,number,1,left,Red_Triangle_Grid_3.jpg,Purple_Plus_Stripes_3.jpg,Blue_Star_Grid_1.jpg,left,477.01500001130626,true,NA,true
vAPHvuJY,3jhb4bpsgnm0h9bvp7tggfn0kkoq96,33f859i56aq8ftpjv3pknrmg3vmhb9,vAPHvuJY,2020-0188,2020-05-21,14:16:06,14:30:42,NA,incomplete,19,number,1,right,Green_Circle_Chess_1.jpg,Blue_Star_Chess_4.jpg,Purple_Plus_Dots_1.jpg,right,554.7099999967031,true,NA,true
vAPHvuJY,3jhb4bpsgnm0h9bvp7tggfn0kkoq96,33f859i56aq8ftpjv3pknrmg3vmhb9,vAPHvuJY,2020-0188,2020-05-21,14:16:06,14:30:42,NA,incomplete,20,filling,1,right,Blue_Plus_Stripes_1.jpg,Green_Triangle_Chess_1.jpg,Purple_Star_Stripes_2.jpg,left,597.3549999762326,false,NA,true
vAPHvuJY,3jhb4bpsgnm0h9bvp7tggfn0kkoq96,33f859i56aq8ftpjv3pknrmg3vmhb9,vAPHvuJY,2020-0188,2020-05-21,14:16:06,14:30:42,NA,incomplete,21,filling,1,left,Purple_Triangle_Dots_2.jpg,Green_Star_Dots_3.jpg,Red_Plus_Stripes_2.jpg,left,1793.0649999761954,true,NA,true
vAPHvuJY,3jhb4bpsgnm0h9bvp7tggfn0kkoq96,33f859i56aq8ftpjv3pknrmg3vmhb9,vAPHvuJY,2020-0188,2020-05-21,14:16:06,14:30:42,NA,incomplete,22,filling,1,left,Green_Circle_Chess_1.jpg,Purple_Star_Chess_3.jpg,Red_Triangle_Grid_1.jpg,left,1396.0199999855831,true,NA,true
vAPHvuJY,3jhb4bpsgnm0h9bvp7tggfn0kkoq96,33f859i56aq8ftpjv3pknrmg3vmhb9,vAPHvuJY,2020-0188,2020-05-21,14:16:06,14:30:42,NA,incomplete,23,filling,1,left,Purple_Star_Dots_2.jpg,Blue_Circle_Dots_1.jpg,Red_Triangle_Chess_2.jpg,right,1071.5400000335649,false,NA,true
vAPHvuJY,3jhb4bpsgnm0h9bvp7tggfn0kkoq96,33f859i56aq8ftpjv3pknrmg3vmhb9,vAPHvuJY,2020-0188,2020-05-21,14:16:06,14:30:42,NA,incomplete,24,filling,1,left,Green_Star_Grid_2.jpg,Blue_Triangle_Grid_3.jpg,Purple_Circle_Chess_2.jpg,left,1390.499999979511,true,NA,true
vAPHvuJY,3jhb4bpsgnm0h9bvp7tggfn0kkoq96,33f859i56aq8ftpjv3pknrmg3vmhb9,vAPHvuJY,2020-0188,2020-05-21,14:16:06,14:30:42,NA,incomplete,25,filling,1,left,Blue_Circle_Grid_4.jpg,Red_Star_Grid_2.jpg,Purple_Plus_Dots_4.jpg,left,1139.6899999817833,true,NA,true
vAPHvuJY,3jhb4bpsgnm0h9bvp7tggfn0kkoq96,33f859i56aq8ftpjv3pknrmg3vmhb9,vAPHvuJY,2020-0188,2020-05-21,14:16:06,14:30:42,NA,incomplete,26,filling,0,right,Purple_Triangle_Dots_1.jpg,Red_Circle_Stripes_1.jpg,Blue_Plus_Dots_3.jpg,right,1158.9099999982864,true,NA,true
vAPHvuJY,3jhb4bpsgnm0h9bvp7tggfn0kkoq96,33f859i56aq8ftpjv3pknrmg3vmhb9,vAPHvuJY,2020-0188,2020-05-21,14:16:06,14:30:42,NA,incomplete,27,filling,0,right,Purple_Triangle_Grid_3.jpg,Green_Circle_Chess_3.jpg,Blue_Plus_Grid_1.jpg,left,1364.209999970626,false,NA,true
vAPHvuJY,3jhb4bpsgnm0h9bvp7tggfn0kkoq96,33f859i56aq8ftpjv3pknrmg3vmhb9,vAPHvuJY,2020-0188,2020-05-21,14:16:06,14:30:42,NA,incomplete,28,filling,1,left,Green_Triangle_Stripes_4.jpg,Red_Star_Stripes_3.jpg,Purple_Plus_Grid_4.jpg,left,1464.4099999568425,true,NA,true
vAPHvuJY,3jhb4bpsgnm0h9bvp7tggfn0kkoq96,33f859i56aq8ftpjv3pknrmg3vmhb9,vAPHvuJY,2020-0188,2020-05-21,14:16:06,14:30:42,NA,incomplete,29,filling,1,left,Red_Star_Chess_1.jpg,Purple_Triangle_Chess_3.jpg,Green_Plus_Dots_1.jpg,left,1210.7200000318699,true,NA,true
vAPHvuJY,3jhb4bpsgnm0h9bvp7tggfn0kkoq96,33f859i56aq8ftpjv3pknrmg3vmhb9,vAPHvuJY,2020-0188,2020-05-21,14:16:06,14:30:42,NA,incomplete,30,filling,0,left,Green_Circle_Chess_1.jpg,Blue_Plus_Chess_3.jpg,Purple_Star_Grid_1.jpg,left,1412.3900000122376,true,NA,true
vAPHvuJY,3jhb4bpsgnm0h9bvp7tggfn0kkoq96,33f859i56aq8ftpjv3pknrmg3vmhb9,vAPHvuJY,2020-0188,2020-05-21,14:16:06,14:30:42,NA,incomplete,31,filling,1,right,Green_Triangle_Stripes_1.jpg,Red_Plus_Dots_1.jpg,Blue_Circle_Stripes_3.jpg,right,1168.1300000054762,true,NA,true
vAPHvuJY,3jhb4bpsgnm0h9bvp7tggfn0kkoq96,33f859i56aq8ftpjv3pknrmg3vmhb9,vAPHvuJY,2020-0188,2020-05-21,14:16:06,14:30:42,NA,incomplete,32,filling,0,left,Green_Triangle_Stripes_2.jpg,Blue_Star_Stripes_1.jpg,Red_Plus_Grid_2.jpg,left,1538.37999998359,true,NA,true
vAPHvuJY,3jhb4bpsgnm0h9bvp7tggfn0kkoq96,33f859i56aq8ftpjv3pknrmg3vmhb9,vAPHvuJY,2020-0188,2020-05-21,14:16:06,14:30:42,NA,incomplete,33,filling,1,right,Green_Star_Grid_3.jpg,Blue_Circle_Dots_3.jpg,Red_Triangle_Grid_1.jpg,right,1420.154999999795,true,NA,true
vAPHvuJY,3jhb4bpsgnm0h9bvp7tggfn0kkoq96,33f859i56aq8ftpjv3pknrmg3vmhb9,vAPHvuJY,2020-0188,2020-05-21,14:16:06,14:30:42,NA,incomplete,34,filling,1,left,Red_Plus_Grid_3.jpg,Green_Circle_Grid_2.jpg,Blue_Star_Stripes_3.jpg,left,1947.06999999471,true,NA,true
vAPHvuJY,3jhb4bpsgnm0h9bvp7tggfn0kkoq96,33f859i56aq8ftpjv3pknrmg3vmhb9,vAPHvuJY,2020-0188,2020-05-21,14:16:06,14:30:42,NA,incomplete,35,filling,1,right,Red_Plus_Stripes_1.jpg,Purple_Triangle_Dots_1.jpg,Green_Circle_Stripes_4.jpg,right,1474.5650000404567,true,NA,true
vAPHvuJY,3jhb4bpsgnm0h9bvp7tggfn0kkoq96,33f859i56aq8ftpjv3pknrmg3vmhb9,vAPHvuJY,2020-0188,2020-05-21,14:16:06,14:30:42,NA,incomplete,36,filling,0,right,Red_Plus_Chess_3.jpg,Blue_Star_Grid_3.jpg,Green_Circle_Chess_2.jpg,right,1554.6150000300258,true,NA,true
vAPHvuJY,3jhb4bpsgnm0h9bvp7tggfn0kkoq96,33f859i56aq8ftpjv3pknrmg3vmhb9,vAPHvuJY,2020-0188,2020-05-21,14:16:06,14:30:42,NA,incomplete,37,filling,1,left,Blue_Triangle_Chess_4.jpg,Red_Star_Chess_2.jpg,Green_Circle_Stripes_4.jpg,left,1505.0850000116043,true,NA,true
vAPHvuJY,3jhb4bpsgnm0h9bvp7tggfn0kkoq96,33f859i56aq8ftpjv3pknrmg3vmhb9,vAPHvuJY,2020-0188,2020-05-21,14:16:06,14:30:42,NA,incomplete,38,filling,1,left,Blue_Circle_Chess_3.jpg,Purple_Star_Chess_4.jpg,Red_Plus_Grid_3.jpg,left,1167.3399999854155,true,NA,true
vAPHvuJY,3jhb4bpsgnm0h9bvp7tggfn0kkoq96,33f859i56aq8ftpjv3pknrmg3vmhb9,vAPHvuJY,2020-0188,2020-05-21,14:16:06,14:30:42,NA,incomplete,39,filling,0,right,Purple_Star_Dots_4.jpg,Blue_Plus_Stripes_4.jpg,Red_Triangle_Dots_3.jpg,right,1803.2200000016019,true,NA,true
vAPHvuJY,3jhb4bpsgnm0h9bvp7tggfn0kkoq96,33f859i56aq8ftpjv3pknrmg3vmhb9,vAPHvuJY,2020-0188,2020-05-21,14:16:06,14:30:42,NA,incomplete,0,number,1,right,Purple_Plus_Dots_2.jpg,Red_Circle_Dots_1.jpg,Green_Triangle_Grid_2.jpg,right,1644.8649999802,true,high,false
vAPHvuJY,3jhb4bpsgnm0h9bvp7tggfn0kkoq96,33f859i56aq8ftpjv3pknrmg3vmhb9,vAPHvuJY,2020-0188,2020-05-21,14:16:06,14:30:42,NA,incomplete,1,number,1,right,Purple_Circle_Chess_4.jpg,Green_Plus_Chess_2.jpg,Red_Triangle_Dots_4.jpg,right,747.4299999885261,true,high,false
vAPHvuJY,3jhb4bpsgnm0h9bvp7tggfn0kkoq96,33f859i56aq8ftpjv3pknrmg3vmhb9,vAPHvuJY,2020-0188,2020-05-21,14:16:06,14:30:42,NA,incomplete,2,number,1,right,Green_Circle_Dots_2.jpg,Red_Triangle_Dots_3.jpg,Blue_Plus_Chess_2.jpg,right,832.2400000179186,true,high,false
vAPHvuJY,3jhb4bpsgnm0h9bvp7tggfn0kkoq96,33f859i56aq8ftpjv3pknrmg3vmhb9,vAPHvuJY,2020-0188,2020-05-21,14:16:06,14:30:42,NA,incomplete,3,number,1,right,Red_Star_Chess_2.jpg,Purple_Circle_Chess_3.jpg,Green_Plus_Dots_2.jpg,right,816.6499999933876,true,high,false
vAPHvuJY,3jhb4bpsgnm0h9bvp7tggfn0kkoq96,33f859i56aq8ftpjv3pknrmg3vmhb9,vAPHvuJY,2020-0188,2020-05-21,14:16:06,14:30:42,NA,incomplete,4,number,0,right,Green_Triangle_Chess_2.jpg,Blue_Star_Chess_1.jpg,Red_Plus_Stripes_2.jpg,right,761.690000013914,true,high,false
vAPHvuJY,3jhb4bpsgnm0h9bvp7tggfn0kkoq96,33f859i56aq8ftpjv3pknrmg3vmhb9,vAPHvuJY,2020-0188,2020-05-21,14:16:06,14:30:42,NA,incomplete,5,number,1,right,Purple_Triangle_Grid_1.jpg,Blue_Circle_Grid_3.jpg,Green_Plus_Stripes_1.jpg,left,940.0550000136718,false,high,false
vAPHvuJY,3jhb4bpsgnm0h9bvp7tggfn0kkoq96,33f859i56aq8ftpjv3pknrmg3vmhb9,vAPHvuJY,2020-0188,2020-05-21,14:16:06,14:30:42,NA,incomplete,6,number,1,right,Green_Circle_Grid_3.jpg,Red_Star_Grid_4.jpg,Blue_Plus_Dots_3.jpg,right,728.6949999979697,true,high,false
vAPHvuJY,3jhb4bpsgnm0h9bvp7tggfn0kkoq96,33f859i56aq8ftpjv3pknrmg3vmhb9,vAPHvuJY,2020-0188,2020-05-21,14:16:06,14:30:42,NA,incomplete,7,number,1,left,Red_Plus_Grid_2.jpg,Purple_Star_Chess_2.jpg,Blue_Triangle_Grid_3.jpg,left,629.7650000196882,true,high,false
vAPHvuJY,3jhb4bpsgnm0h9bvp7tggfn0kkoq96,33f859i56aq8ftpjv3pknrmg3vmhb9,vAPHvuJY,2020-0188,2020-05-21,14:16:06,14:30:42,NA,incomplete,8,number,1,left,Blue_Plus_Dots_1.jpg,Red_Star_Stripes_1.jpg,Purple_Circle_Dots_2.jpg,left,637.6099999761209,true,high,false
vAPHvuJY,3jhb4bpsgnm0h9bvp7tggfn0kkoq96,33f859i56aq8ftpjv3pknrmg3vmhb9,vAPHvuJY,2020-0188,2020-05-21,14:16:06,14:30:42,NA,incomplete,9,number,1,left,Red_Circle_Stripes_3.jpg,Purple_Star_Dots_3.jpg,Blue_Triangle_Stripes_1.jpg,left,766.2750000017695,true,high,false
vAPHvuJY,3jhb4bpsgnm0h9bvp7tggfn0kkoq96,33f859i56aq8ftpjv3pknrmg3vmhb9,vAPHvuJY,2020-0188,2020-05-21,14:16:06,14:30:42,NA,incomplete,10,filling,1,left,Purple_Plus_Chess_2.jpg,Blue_Triangle_Chess_3.jpg,Green_Star_Grid_2.jpg,right,552.9400000232272,false,high,false
vAPHvuJY,3jhb4bpsgnm0h9bvp7tggfn0kkoq96,33f859i56aq8ftpjv3pknrmg3vmhb9,vAPHvuJY,2020-0188,2020-05-21,14:16:06,14:30:42,NA,incomplete,11,filling,1,right,Blue_Circle_Chess_2.jpg,Purple_Plus_Dots_2.jpg,Red_Triangle_Chess_1.jpg,left,755.6949999998324,false,high,false
vAPHvuJY,3jhb4bpsgnm0h9bvp7tggfn0kkoq96,33f859i56aq8ftpjv3pknrmg3vmhb9,vAPHvuJY,2020-0188,2020-05-21,14:16:06,14:30:42,NA,incomplete,12,filling,0,left,Blue_Triangle_Stripes_2.jpg,Purple_Circle_Stripes_3.jpg,Red_Star_Grid_2.jpg,right,919.6949999895878,false,high,false
vAPHvuJY,3jhb4bpsgnm0h9bvp7tggfn0kkoq96,33f859i56aq8ftpjv3pknrmg3vmhb9,vAPHvuJY,2020-0188,2020-05-21,14:16:06,14:30:42,NA,incomplete,13,filling,1,left,Purple_Plus_Grid_2.jpg,Red_Star_Grid_1.jpg,Green_Triangle_Chess_2.jpg,right,764.2049999558367,false,high,false
vAPHvuJY,3jhb4bpsgnm0h9bvp7tggfn0kkoq96,33f859i56aq8ftpjv3pknrmg3vmhb9,vAPHvuJY,2020-0188,2020-05-21,14:16:06,14:30:42,NA,incomplete,14,filling,1,right,Green_Triangle_Grid_3.jpg,Red_Plus_Chess_3.jpg,Purple_Star_Grid_4.jpg,left,808.8599999900907,false,high,false
vAPHvuJY,3jhb4bpsgnm0h9bvp7tggfn0kkoq96,33f859i56aq8ftpjv3pknrmg3vmhb9,vAPHvuJY,2020-0188,2020-05-21,14:16:06,14:30:42,NA,incomplete,15,filling,1,left,Blue_Circle_Dots_2.jpg,Red_Star_Dots_3.jpg,Green_Plus_Grid_2.jpg,right,752.5000000023283,false,high,false
vAPHvuJY,3jhb4bpsgnm0h9bvp7tggfn0kkoq96,33f859i56aq8ftpjv3pknrmg3vmhb9,vAPHvuJY,2020-0188,2020-05-21,14:16:06,14:30:42,NA,incomplete,16,filling,1,left,Green_Triangle_Chess_2.jpg,Purple_Star_Chess_1.jpg,Blue_Circle_Grid_2.jpg,left,956.4700000337325,true,high,false
vAPHvuJY,3jhb4bpsgnm0h9bvp7tggfn0kkoq96,33f859i56aq8ftpjv3pknrmg3vmhb9,vAPHvuJY,2020-0188,2020-05-21,14:16:06,14:30:42,NA,incomplete,17,filling,0,left,Purple_Plus_Chess_4.jpg,Green_Triangle_Chess_1.jpg,Red_Circle_Stripes_4.jpg,right,728.0749999918044,false,high,false
vAPHvuJY,3jhb4bpsgnm0h9bvp7tggfn0kkoq96,33f859i56aq8ftpjv3pknrmg3vmhb9,vAPHvuJY,2020-0188,2020-05-21,14:16:06,14:30:42,NA,incomplete,18,filling,1,right,Green_Star_Dots_3.jpg,Purple_Circle_Chess_3.jpg,Blue_Plus_Dots_4.jpg,left,877.2350000217557,false,high,false
vAPHvuJY,3jhb4bpsgnm0h9bvp7tggfn0kkoq96,33f859i56aq8ftpjv3pknrmg3vmhb9,vAPHvuJY,2020-0188,2020-05-21,14:16:06,14:30:42,NA,incomplete,19,filling,0,right,Green_Star_Chess_4.jpg,Purple_Triangle_Grid_4.jpg,Blue_Circle_Chess_3.jpg,right,1069.809999957215,true,high,false
vAPHvuJY,3jhb4bpsgnm0h9bvp7tggfn0kkoq96,33f859i56aq8ftpjv3pknrmg3vmhb9,vAPHvuJY,2020-0188,2020-05-21,14:16:06,14:30:42,NA,incomplete,20,number,1,left,Red_Plus_Chess_1.jpg,Purple_Circle_Grid_1.jpg,Green_Triangle_Chess_3.jpg,left,810.5549999745563,true,high,false
vAPHvuJY,3jhb4bpsgnm0h9bvp7tggfn0kkoq96,33f859i56aq8ftpjv3pknrmg3vmhb9,vAPHvuJY,2020-0188,2020-05-21,14:16:06,14:30:42,NA,incomplete,21,number,1,left,Purple_Star_Stripes_4.jpg,Green_Plus_Chess_4.jpg,Blue_Circle_Stripes_1.jpg,left,725.1150000374764,true,high,false
vAPHvuJY,3jhb4bpsgnm0h9bvp7tggfn0kkoq96,33f859i56aq8ftpjv3pknrmg3vmhb9,vAPHvuJY,2020-0188,2020-05-21,14:16:06,14:30:42,NA,incomplete,22,number,1,left,Purple_Plus_Chess_2.jpg,Blue_Star_Stripes_2.jpg,Red_Triangle_Chess_1.jpg,left,592.9350000224076,true,high,false
vAPHvuJY,3jhb4bpsgnm0h9bvp7tggfn0kkoq96,33f859i56aq8ftpjv3pknrmg3vmhb9,vAPHvuJY,2020-0188,2020-05-21,14:16:06,14:30:42,NA,incomplete,23,number,0,left,Purple_Circle_Grid_1.jpg,Green_Star_Stripes_1.jpg,Blue_Triangle_Grid_4.jpg,left,860.080000013113,true,high,false
vAPHvuJY,3jhb4bpsgnm0h9bvp7tggfn0kkoq96,33f859i56aq8ftpjv3pknrmg3vmhb9,vAPHvuJY,2020-0188,2020-05-21,14:16:06,14:30:42,NA,incomplete,24,number,0,left,Green_Circle_Grid_1.jpg,Purple_Star_Stripes_1.jpg,Red_Triangle_Grid_2.jpg,right,1012.5949999783188,false,high,false
vAPHvuJY,3jhb4bpsgnm0h9bvp7tggfn0kkoq96,33f859i56aq8ftpjv3pknrmg3vmhb9,vAPHvuJY,2020-0188,2020-05-21,14:16:06,14:30:42,NA,incomplete,25,number,1,left,Red_Triangle_Stripes_3.jpg,Blue_Star_Dots_3.jpg,Green_Plus_Stripes_4.jpg,right,925.615000014659,false,high,false
vAPHvuJY,3jhb4bpsgnm0h9bvp7tggfn0kkoq96,33f859i56aq8ftpjv3pknrmg3vmhb9,vAPHvuJY,2020-0188,2020-05-21,14:16:06,14:30:42,NA,incomplete,26,number,1,left,Purple_Triangle_Grid_1.jpg,Green_Circle_Chess_1.jpg,Red_Plus_Grid_3.jpg,left,643.4949999675155,true,high,false
vAPHvuJY,3jhb4bpsgnm0h9bvp7tggfn0kkoq96,33f859i56aq8ftpjv3pknrmg3vmhb9,vAPHvuJY,2020-0188,2020-05-21,14:16:06,14:30:42,NA,incomplete,27,number,1,left,Purple_Triangle_Chess_4.jpg,Red_Star_Grid_4.jpg,Green_Plus_Chess_2.jpg,left,655.3849999909289,true,high,false
vAPHvuJY,3jhb4bpsgnm0h9bvp7tggfn0kkoq96,33f859i56aq8ftpjv3pknrmg3vmhb9,vAPHvuJY,2020-0188,2020-05-21,14:16:06,14:30:42,NA,incomplete,28,number,0,right,Purple_Circle_Dots_4.jpg,Green_Star_Dots_1.jpg,Blue_Triangle_Stripes_4.jpg,right,520.250000001397,true,high,false
vAPHvuJY,3jhb4bpsgnm0h9bvp7tggfn0kkoq96,33f859i56aq8ftpjv3pknrmg3vmhb9,vAPHvuJY,2020-0188,2020-05-21,14:16:06,14:30:42,NA,incomplete,29,number,1,right,Blue_Circle_Grid_3.jpg,Purple_Plus_Grid_1.jpg,Red_Star_Chess_3.jpg,right,877.9999999678694,true,high,false
vAPHvuJY,3jhb4bpsgnm0h9bvp7tggfn0kkoq96,33f859i56aq8ftpjv3pknrmg3vmhb9,vAPHvuJY,2020-0188,2020-05-21,14:16:06,14:30:42,NA,incomplete,30,filling,1,left,Purple_Triangle_Chess_4.jpg,Blue_Circle_Chess_2.jpg,Red_Star_Grid_4.jpg,right,715.4800000134856,false,high,false
vAPHvuJY,3jhb4bpsgnm0h9bvp7tggfn0kkoq96,33f859i56aq8ftpjv3pknrmg3vmhb9,vAPHvuJY,2020-0188,2020-05-21,14:16:06,14:30:42,NA,incomplete,31,filling,1,left,Green_Plus_Grid_2.jpg,Red_Triangle_Grid_4.jpg,Blue_Star_Dots_2.jpg,left,896.0400000214577,true,high,false
vAPHvuJY,3jhb4bpsgnm0h9bvp7tggfn0kkoq96,33f859i56aq8ftpjv3pknrmg3vmhb9,vAPHvuJY,2020-0188,2020-05-21,14:16:06,14:30:42,NA,incomplete,32,filling,1,right,Purple_Star_Grid_1.jpg,Blue_Plus_Chess_1.jpg,Green_Circle_Grid_3.jpg,left,943.1599999661557,false,high,false
vAPHvuJY,3jhb4bpsgnm0h9bvp7tggfn0kkoq96,33f859i56aq8ftpjv3pknrmg3vmhb9,vAPHvuJY,2020-0188,2020-05-21,14:16:06,14:30:42,NA,incomplete,33,filling,1,right,Red_Star_Grid_1.jpg,Blue_Circle_Dots_1.jpg,Purple_Triangle_Grid_3.jpg,right,795.624999969732,true,high,false
vAPHvuJY,3jhb4bpsgnm0h9bvp7tggfn0kkoq96,33f859i56aq8ftpjv3pknrmg3vmhb9,vAPHvuJY,2020-0188,2020-05-21,14:16:06,14:30:42,NA,incomplete,34,filling,1,left,Red_Star_Dots_3.jpg,Green_Triangle_Dots_1.jpg,Blue_Circle_Grid_3.jpg,left,1166.7449999949895,true,high,false
vAPHvuJY,3jhb4bpsgnm0h9bvp7tggfn0kkoq96,33f859i56aq8ftpjv3pknrmg3vmhb9,vAPHvuJY,2020-0188,2020-05-21,14:16:06,14:30:42,NA,incomplete,35,filling,1,left,Blue_Triangle_Dots_4.jpg,Purple_Plus_Dots_3.jpg,Green_Circle_Grid_4.jpg,left,888.840000028722,true,high,false
vAPHvuJY,3jhb4bpsgnm0h9bvp7tggfn0kkoq96,33f859i56aq8ftpjv3pknrmg3vmhb9,vAPHvuJY,2020-0188,2020-05-21,14:16:06,14:30:42,NA,incomplete,36,filling,0,right,Purple_Star_Grid_4.jpg,Green_Triangle_Dots_4.jpg,Blue_Circle_Grid_1.jpg,right,840.425000002142,true,high,false
vAPHvuJY,3jhb4bpsgnm0h9bvp7tggfn0kkoq96,33f859i56aq8ftpjv3pknrmg3vmhb9,vAPHvuJY,2020-0188,2020-05-21,14:16:06,14:30:42,NA,incomplete,37,filling,1,right,Green_Star_Stripes_4.jpg,Blue_Triangle_Chess_4.jpg,Red_Circle_Stripes_1.jpg,left,631.6799999913201,false,high,false
vAPHvuJY,3jhb4bpsgnm0h9bvp7tggfn0kkoq96,33f859i56aq8ftpjv3pknrmg3vmhb9,vAPHvuJY,2020-0188,2020-05-21,14:16:06,14:30:42,NA,incomplete,38,filling,1,right,Purple_Triangle_Stripes_2.jpg,Green_Star_Chess_2.jpg,Blue_Circle_Stripes_1.jpg,right,791.4650000166148,true,high,false
vAPHvuJY,3jhb4bpsgnm0h9bvp7tggfn0kkoq96,33f859i56aq8ftpjv3pknrmg3vmhb9,vAPHvuJY,2020-0188,2020-05-21,14:16:06,14:30:42,NA,incomplete,39,filling,1,right,Purple_Circle_Grid_2.jpg,Green_Plus_Stripes_2.jpg,Red_Star_Grid_1.jpg,left,810.689999954775,false,high,false
vAPHvuJY,3jhb4bpsgnm0h9bvp7tggfn0kkoq96,33f859i56aq8ftpjv3pknrmg3vmhb9,vAPHvuJY,2020-0188,2020-05-21,14:16:06,14:30:42,NA,incomplete,40,number,1,right,Blue_Plus_Chess_2.jpg,Green_Triangle_Chess_1.jpg,Red_Circle_Grid_2.jpg,right,851.2050000135787,true,high,false
vAPHvuJY,3jhb4bpsgnm0h9bvp7tggfn0kkoq96,33f859i56aq8ftpjv3pknrmg3vmhb9,vAPHvuJY,2020-0188,2020-05-21,14:16:06,14:30:42,NA,incomplete,41,number,1,left,Blue_Triangle_Chess_2.jpg,Purple_Plus_Stripes_2.jpg,Green_Star_Chess_3.jpg,left,699.4549999944866,true,high,false
vAPHvuJY,3jhb4bpsgnm0h9bvp7tggfn0kkoq96,33f859i56aq8ftpjv3pknrmg3vmhb9,vAPHvuJY,2020-0188,2020-05-21,14:16:06,14:30:42,NA,incomplete,42,number,1,left,Green_Circle_Stripes_1.jpg,Purple_Plus_Chess_1.jpg,Red_Star_Stripes_2.jpg,left,552.3099999991246,true,high,false
vAPHvuJY,3jhb4bpsgnm0h9bvp7tggfn0kkoq96,33f859i56aq8ftpjv3pknrmg3vmhb9,vAPHvuJY,2020-0188,2020-05-21,14:16:06,14:30:42,NA,incomplete,43,number,0,left,Red_Star_Grid_1.jpg,Blue_Triangle_Chess_1.jpg,Green_Circle_Grid_3.jpg,left,498.52999998256564,true,high,false
vAPHvuJY,3jhb4bpsgnm0h9bvp7tggfn0kkoq96,33f859i56aq8ftpjv3pknrmg3vmhb9,vAPHvuJY,2020-0188,2020-05-21,14:16:06,14:30:42,NA,incomplete,44,number,0,right,Blue_Plus_Dots_1.jpg,Green_Star_Dots_4.jpg,Purple_Triangle_Grid_1.jpg,right,466.164999990724,true,high,false
vAPHvuJY,3jhb4bpsgnm0h9bvp7tggfn0kkoq96,33f859i56aq8ftpjv3pknrmg3vmhb9,vAPHvuJY,2020-0188,2020-05-21,14:16:06,14:30:42,NA,incomplete,45,number,1,right,Blue_Plus_Chess_2.jpg,Purple_Star_Chess_4.jpg,Green_Circle_Stripes_2.jpg,left,814.3649999983609,false,high,false
vAPHvuJY,3jhb4bpsgnm0h9bvp7tggfn0kkoq96,33f859i56aq8ftpjv3pknrmg3vmhb9,vAPHvuJY,2020-0188,2020-05-21,14:16:06,14:30:42,NA,incomplete,46,number,0,right,Purple_Star_Grid_3.jpg,Green_Circle_Grid_1.jpg,Blue_Triangle_Stripes_3.jpg,right,814.9650000268593,true,high,false
vAPHvuJY,3jhb4bpsgnm0h9bvp7tggfn0kkoq96,33f859i56aq8ftpjv3pknrmg3vmhb9,vAPHvuJY,2020-0188,2020-05-21,14:16:06,14:30:42,NA,incomplete,47,number,1,right,Red_Circle_Stripes_3.jpg,Green_Triangle_Stripes_2.jpg,Blue_Plus_Chess_3.jpg,left,720.8999999566004,false,high,false
vAPHvuJY,3jhb4bpsgnm0h9bvp7tggfn0kkoq96,33f859i56aq8ftpjv3pknrmg3vmhb9,vAPHvuJY,2020-0188,2020-05-21,14:16:06,14:30:42,NA,incomplete,48,number,0,left,Blue_Plus_Grid_3.jpg,Green_Circle_Stripes_3.jpg,Red_Star_Grid_4.jpg,right,1181.44499999471,false,high,false
vAPHvuJY,3jhb4bpsgnm0h9bvp7tggfn0kkoq96,33f859i56aq8ftpjv3pknrmg3vmhb9,vAPHvuJY,2020-0188,2020-05-21,14:16:06,14:30:42,NA,incomplete,49,number,0,right,Purple_Circle_Chess_1.jpg,Red_Star_Chess_3.jpg,Blue_Plus_Stripes_1.jpg,left,954.535000026226,false,high,false
vAPHvuJY,3jhb4bpsgnm0h9bvp7tggfn0kkoq96,33f859i56aq8ftpjv3pknrmg3vmhb9,vAPHvuJY,2020-0188,2020-05-21,14:16:06,14:30:42,NA,incomplete,50,filling,1,left,Green_Plus_Grid_1.jpg,Red_Star_Grid_3.jpg,Blue_Circle_Stripes_1.jpg,right,756.9450000301003,false,high,false
vAPHvuJY,3jhb4bpsgnm0h9bvp7tggfn0kkoq96,33f859i56aq8ftpjv3pknrmg3vmhb9,vAPHvuJY,2020-0188,2020-05-21,14:16:06,14:30:42,NA,incomplete,51,filling,1,left,Red_Triangle_Stripes_2.jpg,Purple_Circle_Stripes_1.jpg,Blue_Plus_Dots_2.jpg,left,960.9000000054948,true,high,false
vAPHvuJY,3jhb4bpsgnm0h9bvp7tggfn0kkoq96,33f859i56aq8ftpjv3pknrmg3vmhb9,vAPHvuJY,2020-0188,2020-05-21,14:16:06,14:30:42,NA,incomplete,52,filling,1,left,Purple_Plus_Stripes_2.jpg,Green_Triangle_Stripes_3.jpg,Blue_Star_Chess_2.jpg,left,724.5049999910407,true,high,false
vAPHvuJY,3jhb4bpsgnm0h9bvp7tggfn0kkoq96,33f859i56aq8ftpjv3pknrmg3vmhb9,vAPHvuJY,2020-0188,2020-05-21,14:16:06,14:30:42,NA,incomplete,53,filling,1,left,Purple_Circle_Stripes_3.jpg,Blue_Plus_Stripes_4.jpg,Green_Triangle_Grid_3.jpg,left,992.8499999805354,true,high,false
vAPHvuJY,3jhb4bpsgnm0h9bvp7tggfn0kkoq96,33f859i56aq8ftpjv3pknrmg3vmhb9,vAPHvuJY,2020-0188,2020-05-21,14:16:06,14:30:42,NA,incomplete,54,filling,0,right,Green_Star_Chess_3.jpg,Blue_Plus_Stripes_3.jpg,Red_Triangle_Chess_1.jpg,right,939.7699999972247,true,high,false
vAPHvuJY,3jhb4bpsgnm0h9bvp7tggfn0kkoq96,33f859i56aq8ftpjv3pknrmg3vmhb9,vAPHvuJY,2020-0188,2020-05-21,14:16:06,14:30:42,NA,incomplete,55,filling,1,left,Purple_Triangle_Dots_3.jpg,Blue_Star_Dots_2.jpg,Green_Plus_Stripes_3.jpg,left,872.655000013765,true,high,false
vAPHvuJY,3jhb4bpsgnm0h9bvp7tggfn0kkoq96,33f859i56aq8ftpjv3pknrmg3vmhb9,vAPHvuJY,2020-0188,2020-05-21,14:16:06,14:30:42,NA,incomplete,56,filling,0,right,Blue_Star_Dots_2.jpg,Green_Circle_Stripes_2.jpg,Red_Plus_Dots_4.jpg,right,1190.7999999821186,true,high,false
vAPHvuJY,3jhb4bpsgnm0h9bvp7tggfn0kkoq96,33f859i56aq8ftpjv3pknrmg3vmhb9,vAPHvuJY,2020-0188,2020-05-21,14:16:06,14:30:42,NA,incomplete,57,filling,1,right,Green_Star_Grid_3.jpg,Blue_Plus_Chess_3.jpg,Red_Circle_Grid_4.jpg,left,594.0750000299886,false,high,false
vAPHvuJY,3jhb4bpsgnm0h9bvp7tggfn0kkoq96,33f859i56aq8ftpjv3pknrmg3vmhb9,vAPHvuJY,2020-0188,2020-05-21,14:16:06,14:30:42,NA,incomplete,58,filling,1,left,Green_Plus_Stripes_3.jpg,Red_Triangle_Stripes_2.jpg,Purple_Star_Dots_3.jpg,left,699.2350000073202,true,high,false
vAPHvuJY,3jhb4bpsgnm0h9bvp7tggfn0kkoq96,33f859i56aq8ftpjv3pknrmg3vmhb9,vAPHvuJY,2020-0188,2020-05-21,14:16:06,14:30:42,NA,incomplete,59,filling,1,right,Red_Star_Stripes_2.jpg,Purple_Plus_Dots_2.jpg,Blue_Triangle_Stripes_4.jpg,right,858.635000011418,true,high,false
vAPHvuJY,3jhb4bpsgnm0h9bvp7tggfn0kkoq96,33f859i56aq8ftpjv3pknrmg3vmhb9,vAPHvuJY,2020-0188,2020-05-21,14:16:06,14:30:42,NA,incomplete,60,number,1,right,Red_Circle_Dots_2.jpg,Blue_Star_Dots_3.jpg,Purple_Triangle_Stripes_2.jpg,right,1065.070000011474,true,high,false
vAPHvuJY,3jhb4bpsgnm0h9bvp7tggfn0kkoq96,33f859i56aq8ftpjv3pknrmg3vmhb9,vAPHvuJY,2020-0188,2020-05-21,14:16:06,14:30:42,NA,incomplete,61,number,1,right,Red_Circle_Grid_4.jpg,Blue_Star_Grid_2.jpg,Purple_Plus_Dots_4.jpg,right,705.2449999609962,true,high,false
vAPHvuJY,3jhb4bpsgnm0h9bvp7tggfn0kkoq96,33f859i56aq8ftpjv3pknrmg3vmhb9,vAPHvuJY,2020-0188,2020-05-21,14:16:06,14:30:42,NA,incomplete,62,number,1,right,Green_Circle_Stripes_4.jpg,Purple_Triangle_Stripes_3.jpg,Blue_Plus_Grid_4.jpg,right,902.4499999941327,true,high,false
vAPHvuJY,3jhb4bpsgnm0h9bvp7tggfn0kkoq96,33f859i56aq8ftpjv3pknrmg3vmhb9,vAPHvuJY,2020-0188,2020-05-21,14:16:06,14:30:42,NA,incomplete,63,number,1,right,Red_Star_Chess_2.jpg,Blue_Triangle_Chess_3.jpg,Purple_Plus_Dots_2.jpg,right,1099.9200000078417,true,high,false
vAPHvuJY,3jhb4bpsgnm0h9bvp7tggfn0kkoq96,33f859i56aq8ftpjv3pknrmg3vmhb9,vAPHvuJY,2020-0188,2020-05-21,14:16:06,14:30:42,NA,incomplete,64,number,1,left,Red_Star_Chess_4.jpg,Blue_Plus_Dots_4.jpg,Purple_Triangle_Chess_1.jpg,left,819.199999968987,true,high,false
vAPHvuJY,3jhb4bpsgnm0h9bvp7tggfn0kkoq96,33f859i56aq8ftpjv3pknrmg3vmhb9,vAPHvuJY,2020-0188,2020-05-21,14:16:06,14:30:42,NA,incomplete,65,number,0,left,Green_Star_Chess_4.jpg,Purple_Circle_Stripes_4.jpg,Blue_Triangle_Chess_2.jpg,left,659.2649999656714,true,high,false
vAPHvuJY,3jhb4bpsgnm0h9bvp7tggfn0kkoq96,33f859i56aq8ftpjv3pknrmg3vmhb9,vAPHvuJY,2020-0188,2020-05-21,14:16:06,14:30:42,NA,incomplete,66,number,1,left,Green_Circle_Stripes_1.jpg,Purple_Plus_Grid_1.jpg,Red_Star_Stripes_2.jpg,left,778.9199999533594,true,high,false
vAPHvuJY,3jhb4bpsgnm0h9bvp7tggfn0kkoq96,33f859i56aq8ftpjv3pknrmg3vmhb9,vAPHvuJY,2020-0188,2020-05-21,14:16:06,14:30:42,NA,incomplete,67,number,1,left,Red_Circle_Stripes_2.jpg,Purple_Plus_Dots_2.jpg,Green_Triangle_Stripes_4.jpg,left,717.1300000045449,true,high,false
vAPHvuJY,3jhb4bpsgnm0h9bvp7tggfn0kkoq96,33f859i56aq8ftpjv3pknrmg3vmhb9,vAPHvuJY,2020-0188,2020-05-21,14:16:06,14:30:42,NA,incomplete,68,number,1,left,Green_Plus_Stripes_2.jpg,Red_Star_Grid_2.jpg,Blue_Triangle_Stripes_3.jpg,left,689.94000001112,true,high,false
vAPHvuJY,3jhb4bpsgnm0h9bvp7tggfn0kkoq96,33f859i56aq8ftpjv3pknrmg3vmhb9,vAPHvuJY,2020-0188,2020-05-21,14:16:06,14:30:42,NA,incomplete,69,number,1,right,Green_Circle_Dots_3.jpg,Red_Plus_Dots_4.jpg,Blue_Triangle_Chess_3.jpg,right,833.1149999867193,true,high,false
vAPHvuJY,3jhb4bpsgnm0h9bvp7tggfn0kkoq96,33f859i56aq8ftpjv3pknrmg3vmhb9,vAPHvuJY,2020-0188,2020-05-21,14:16:06,14:30:42,NA,incomplete,70,filling,1,right,Purple_Circle_Chess_2.jpg,Blue_Plus_Grid_2.jpg,Red_Triangle_Chess_4.jpg,left,825.4050000105053,false,high,false
vAPHvuJY,3jhb4bpsgnm0h9bvp7tggfn0kkoq96,33f859i56aq8ftpjv3pknrmg3vmhb9,vAPHvuJY,2020-0188,2020-05-21,14:16:06,14:30:42,NA,incomplete,71,filling,0,right,Purple_Triangle_Dots_4.jpg,Red_Plus_Grid_4.jpg,Blue_Circle_Dots_1.jpg,right,1025.2199999522418,true,high,false
vAPHvuJY,3jhb4bpsgnm0h9bvp7tggfn0kkoq96,33f859i56aq8ftpjv3pknrmg3vmhb9,vAPHvuJY,2020-0188,2020-05-21,14:16:06,14:30:42,NA,incomplete,72,filling,1,left,Red_Triangle_Stripes_1.jpg,Blue_Star_Stripes_3.jpg,Purple_Plus_Grid_1.jpg,right,811.2100000143982,false,high,false
vAPHvuJY,3jhb4bpsgnm0h9bvp7tggfn0kkoq96,33f859i56aq8ftpjv3pknrmg3vmhb9,vAPHvuJY,2020-0188,2020-05-21,14:16:06,14:30:42,NA,incomplete,73,filling,1,left,Red_Star_Dots_1.jpg,Green_Circle_Dots_3.jpg,Purple_Triangle_Chess_1.jpg,left,995.7699999795295,true,high,false
vAPHvuJY,3jhb4bpsgnm0h9bvp7tggfn0kkoq96,33f859i56aq8ftpjv3pknrmg3vmhb9,vAPHvuJY,2020-0188,2020-05-21,14:16:06,14:30:42,NA,incomplete,74,filling,1,right,Blue_Triangle_Chess_1.jpg,Green_Circle_Dots_1.jpg,Red_Star_Chess_2.jpg,right,783.7299999664538,true,high,false
vAPHvuJY,3jhb4bpsgnm0h9bvp7tggfn0kkoq96,33f859i56aq8ftpjv3pknrmg3vmhb9,vAPHvuJY,2020-0188,2020-05-21,14:16:06,14:30:42,NA,incomplete,75,filling,1,right,Green_Star_Grid_1.jpg,Purple_Circle_Chess_1.jpg,Blue_Plus_Grid_3.jpg,right,1040.534999978263,true,high,false
vAPHvuJY,3jhb4bpsgnm0h9bvp7tggfn0kkoq96,33f859i56aq8ftpjv3pknrmg3vmhb9,vAPHvuJY,2020-0188,2020-05-21,14:16:06,14:30:42,NA,incomplete,76,filling,1,left,Purple_Plus_Chess_2.jpg,Green_Triangle_Chess_3.jpg,Red_Circle_Dots_2.jpg,left,948.1849999865517,true,high,false
vAPHvuJY,3jhb4bpsgnm0h9bvp7tggfn0kkoq96,33f859i56aq8ftpjv3pknrmg3vmhb9,vAPHvuJY,2020-0188,2020-05-21,14:16:06,14:30:42,NA,incomplete,77,filling,0,right,Purple_Star_Chess_3.jpg,Red_Plus_Grid_3.jpg,Green_Circle_Chess_2.jpg,right,797.4799999501556,true,high,false
vAPHvuJY,3jhb4bpsgnm0h9bvp7tggfn0kkoq96,33f859i56aq8ftpjv3pknrmg3vmhb9,vAPHvuJY,2020-0188,2020-05-21,14:16:06,14:30:42,NA,incomplete,78,filling,1,right,Purple_Star_Grid_3.jpg,Green_Plus_Stripes_3.jpg,Blue_Circle_Grid_4.jpg,left,704.9300000071526,false,high,false
vAPHvuJY,3jhb4bpsgnm0h9bvp7tggfn0kkoq96,33f859i56aq8ftpjv3pknrmg3vmhb9,vAPHvuJY,2020-0188,2020-05-21,14:16:06,14:30:42,NA,incomplete,79,filling,1,left,Purple_Plus_Dots_1.jpg,Red_Triangle_Dots_2.jpg,Blue_Circle_Chess_1.jpg,left,1037.4599999631755,true,high,false
vAPHvuJY,3jhb4bpsgnm0h9bvp7tggfn0kkoq96,33f859i56aq8ftpjv3pknrmg3vmhb9,vAPHvuJY,2020-0188,2020-05-21,14:16:06,14:30:42,NA,incomplete,80,number,1,right,Purple_Plus_Dots_2.jpg,Blue_Star_Dots_3.jpg,Green_Triangle_Grid_2.jpg,left,1013.840000028722,false,high,false
vAPHvuJY,3jhb4bpsgnm0h9bvp7tggfn0kkoq96,33f859i56aq8ftpjv3pknrmg3vmhb9,vAPHvuJY,2020-0188,2020-05-21,14:16:06,14:30:42,NA,incomplete,81,number,1,right,Blue_Star_Dots_1.jpg,Purple_Plus_Dots_3.jpg,Green_Circle_Chess_1.jpg,right,791.9099999708124,true,high,false
vAPHvuJY,3jhb4bpsgnm0h9bvp7tggfn0kkoq96,33f859i56aq8ftpjv3pknrmg3vmhb9,vAPHvuJY,2020-0188,2020-05-21,14:16:06,14:30:42,NA,incomplete,82,number,1,right,Green_Star_Grid_3.jpg,Purple_Plus_Grid_4.jpg,Red_Circle_Chess_3.jpg,right,1081.3600000110455,true,high,false
vAPHvuJY,3jhb4bpsgnm0h9bvp7tggfn0kkoq96,33f859i56aq8ftpjv3pknrmg3vmhb9,vAPHvuJY,2020-0188,2020-05-21,14:16:06,14:30:42,NA,incomplete,83,number,1,right,Red_Triangle_Chess_2.jpg,Blue_Circle_Chess_4.jpg,Green_Star_Dots_2.jpg,right,640.5800000065938,true,high,false
vAPHvuJY,3jhb4bpsgnm0h9bvp7tggfn0kkoq96,33f859i56aq8ftpjv3pknrmg3vmhb9,vAPHvuJY,2020-0188,2020-05-21,14:16:06,14:30:42,NA,incomplete,84,number,1,left,Purple_Circle_Grid_3.jpg,Red_Star_Dots_3.jpg,Blue_Triangle_Grid_1.jpg,left,795.3749999869615,true,high,false
vAPHvuJY,3jhb4bpsgnm0h9bvp7tggfn0kkoq96,33f859i56aq8ftpjv3pknrmg3vmhb9,vAPHvuJY,2020-0188,2020-05-21,14:16:06,14:30:42,NA,incomplete,85,number,1,left,Red_Star_Chess_3.jpg,Purple_Plus_Dots_3.jpg,Blue_Triangle_Chess_4.jpg,right,1082.2449999977835,false,high,false
vAPHvuJY,3jhb4bpsgnm0h9bvp7tggfn0kkoq96,33f859i56aq8ftpjv3pknrmg3vmhb9,vAPHvuJY,2020-0188,2020-05-21,14:16:06,14:30:42,NA,incomplete,86,number,1,left,Red_Star_Dots_1.jpg,Green_Plus_Chess_1.jpg,Blue_Circle_Dots_3.jpg,left,546.5049999766052,true,high,false
vAPHvuJY,3jhb4bpsgnm0h9bvp7tggfn0kkoq96,33f859i56aq8ftpjv3pknrmg3vmhb9,vAPHvuJY,2020-0188,2020-05-21,14:16:06,14:30:42,NA,incomplete,87,number,0,left,Blue_Plus_Chess_4.jpg,Red_Circle_Stripes_4.jpg,Green_Star_Chess_3.jpg,left,845.6599999917671,true,high,false
vAPHvuJY,3jhb4bpsgnm0h9bvp7tggfn0kkoq96,33f859i56aq8ftpjv3pknrmg3vmhb9,vAPHvuJY,2020-0188,2020-05-21,14:16:06,14:30:42,NA,incomplete,88,number,1,right,Green_Triangle_Dots_1.jpg,Red_Star_Dots_3.jpg,Blue_Circle_Chess_1.jpg,left,1028.8949999958277,false,high,false
vAPHvuJY,3jhb4bpsgnm0h9bvp7tggfn0kkoq96,33f859i56aq8ftpjv3pknrmg3vmhb9,vAPHvuJY,2020-0188,2020-05-21,14:16:06,14:30:42,NA,incomplete,89,number,1,left,Green_Circle_Dots_3.jpg,Red_Triangle_Grid_3.jpg,Purple_Star_Dots_2.jpg,left,856.48499999661,true,high,false
vAPHvuJY,3jhb4bpsgnm0h9bvp7tggfn0kkoq96,33f859i56aq8ftpjv3pknrmg3vmhb9,vAPHvuJY,2020-0188,2020-05-21,14:16:06,14:30:42,NA,incomplete,90,filling,1,right,Purple_Plus_Chess_4.jpg,Red_Circle_Stripes_4.jpg,Blue_Star_Chess_3.jpg,left,911.9300000020303,false,high,false
vAPHvuJY,3jhb4bpsgnm0h9bvp7tggfn0kkoq96,33f859i56aq8ftpjv3pknrmg3vmhb9,vAPHvuJY,2020-0188,2020-05-21,14:16:06,14:30:42,NA,incomplete,91,filling,1,right,Blue_Triangle_Dots_4.jpg,Red_Plus_Chess_4.jpg,Purple_Circle_Dots_3.jpg,right,886.7000000318512,true,high,false
vAPHvuJY,3jhb4bpsgnm0h9bvp7tggfn0kkoq96,33f859i56aq8ftpjv3pknrmg3vmhb9,vAPHvuJY,2020-0188,2020-05-21,14:16:06,14:30:42,NA,incomplete,92,filling,1,left,Green_Triangle_Dots_3.jpg,Blue_Star_Dots_1.jpg,Red_Plus_Chess_3.jpg,left,1164.8799999966286,true,high,false
vAPHvuJY,3jhb4bpsgnm0h9bvp7tggfn0kkoq96,33f859i56aq8ftpjv3pknrmg3vmhb9,vAPHvuJY,2020-0188,2020-05-21,14:16:06,14:30:42,NA,incomplete,93,filling,0,left,Blue_Plus_Chess_3.jpg,Purple_Circle_Chess_2.jpg,Red_Triangle_Dots_3.jpg,left,817.1849999926053,true,high,false
vAPHvuJY,3jhb4bpsgnm0h9bvp7tggfn0kkoq96,33f859i56aq8ftpjv3pknrmg3vmhb9,vAPHvuJY,2020-0188,2020-05-21,14:16:06,14:30:42,NA,incomplete,94,filling,1,left,Red_Triangle_Stripes_3.jpg,Green_Star_Stripes_1.jpg,Blue_Circle_Grid_3.jpg,right,946.155000012368,false,high,false
vAPHvuJY,3jhb4bpsgnm0h9bvp7tggfn0kkoq96,33f859i56aq8ftpjv3pknrmg3vmhb9,vAPHvuJY,2020-0188,2020-05-21,14:16:06,14:30:42,NA,incomplete,95,filling,0,left,Red_Plus_Stripes_1.jpg,Green_Star_Stripes_3.jpg,Blue_Circle_Chess_1.jpg,left,885.3999999701045,true,high,false
vAPHvuJY,3jhb4bpsgnm0h9bvp7tggfn0kkoq96,33f859i56aq8ftpjv3pknrmg3vmhb9,vAPHvuJY,2020-0188,2020-05-21,14:16:06,14:30:42,NA,incomplete,96,filling,1,right,Blue_Triangle_Dots_3.jpg,Purple_Star_Stripes_3.jpg,Green_Plus_Dots_4.jpg,right,1403.9600000251085,true,high,false
vAPHvuJY,3jhb4bpsgnm0h9bvp7tggfn0kkoq96,33f859i56aq8ftpjv3pknrmg3vmhb9,vAPHvuJY,2020-0188,2020-05-21,14:16:06,14:30:42,NA,incomplete,97,filling,1,right,Red_Star_Stripes_1.jpg,Blue_Plus_Dots_1.jpg,Green_Triangle_Stripes_2.jpg,right,824.2700000409968,true,high,false
vAPHvuJY,3jhb4bpsgnm0h9bvp7tggfn0kkoq96,33f859i56aq8ftpjv3pknrmg3vmhb9,vAPHvuJY,2020-0188,2020-05-21,14:16:06,14:30:42,NA,incomplete,98,filling,1,left,Red_Star_Grid_2.jpg,Blue_Circle_Grid_1.jpg,Purple_Plus_Chess_2.jpg,left,1096.6950000147335,true,high,false
vAPHvuJY,3jhb4bpsgnm0h9bvp7tggfn0kkoq96,33f859i56aq8ftpjv3pknrmg3vmhb9,vAPHvuJY,2020-0188,2020-05-21,14:16:06,14:30:42,NA,incomplete,99,filling,1,left,Purple_Star_Chess_4.jpg,Blue_Triangle_Chess_3.jpg,Green_Plus_Dots_4.jpg,left,1239.2600000021048,true,high,false
vAPHvuJY,3jhb4bpsgnm0h9bvp7tggfn0kkoq96,33f859i56aq8ftpjv3pknrmg3vmhb9,vAPHvuJY,2020-0188,2020-05-21,14:16:06,14:30:42,NA,incomplete,100,number,1,right,Red_Plus_Dots_3.jpg,Green_Star_Dots_2.jpg,Purple_Triangle_Chess_3.jpg,left,1279.7950000385754,false,high,false
vAPHvuJY,3jhb4bpsgnm0h9bvp7tggfn0kkoq96,33f859i56aq8ftpjv3pknrmg3vmhb9,vAPHvuJY,2020-0188,2020-05-21,14:16:06,14:30:42,NA,incomplete,101,number,1,left,Purple_Plus_Chess_3.jpg,Blue_Triangle_Dots_3.jpg,Green_Star_Chess_2.jpg,left,735.7849999680184,true,high,false
vAPHvuJY,3jhb4bpsgnm0h9bvp7tggfn0kkoq96,33f859i56aq8ftpjv3pknrmg3vmhb9,vAPHvuJY,2020-0188,2020-05-21,14:16:06,14:30:42,NA,incomplete,102,number,0,left,Red_Star_Stripes_3.jpg,Green_Triangle_Grid_3.jpg,Purple_Circle_Stripes_4.jpg,left,796.329999982845,true,high,false
vAPHvuJY,3jhb4bpsgnm0h9bvp7tggfn0kkoq96,33f859i56aq8ftpjv3pknrmg3vmhb9,vAPHvuJY,2020-0188,2020-05-21,14:16:06,14:30:42,NA,incomplete,103,number,1,right,Blue_Star_Chess_4.jpg,Red_Plus_Chess_3.jpg,Purple_Triangle_Dots_4.jpg,left,968.674999952782,false,high,false
vAPHvuJY,3jhb4bpsgnm0h9bvp7tggfn0kkoq96,33f859i56aq8ftpjv3pknrmg3vmhb9,vAPHvuJY,2020-0188,2020-05-21,14:16:06,14:30:42,NA,incomplete,104,number,1,right,Green_Plus_Grid_1.jpg,Red_Triangle_Grid_3.jpg,Blue_Circle_Dots_1.jpg,right,737.7100000157952,true,high,false
vAPHvuJY,3jhb4bpsgnm0h9bvp7tggfn0kkoq96,33f859i56aq8ftpjv3pknrmg3vmhb9,vAPHvuJY,2020-0188,2020-05-21,14:16:06,14:30:42,NA,incomplete,105,number,0,right,Blue_Star_Stripes_4.jpg,Red_Circle_Stripes_1.jpg,Green_Plus_Dots_4.jpg,right,838.0400000023656,true,high,false
vAPHvuJY,3jhb4bpsgnm0h9bvp7tggfn0kkoq96,33f859i56aq8ftpjv3pknrmg3vmhb9,vAPHvuJY,2020-0188,2020-05-21,14:16:06,14:30:42,NA,incomplete,106,number,1,right,Green_Plus_Dots_4.jpg,Blue_Circle_Dots_1.jpg,Red_Star_Stripes_4.jpg,left,1341.6699999943376,false,high,false
vAPHvuJY,3jhb4bpsgnm0h9bvp7tggfn0kkoq96,33f859i56aq8ftpjv3pknrmg3vmhb9,vAPHvuJY,2020-0188,2020-05-21,14:16:06,14:30:42,NA,incomplete,107,number,1,left,Purple_Plus_Chess_4.jpg,Blue_Circle_Dots_4.jpg,Red_Triangle_Chess_1.jpg,right,835.7250000117347,false,high,false
vAPHvuJY,3jhb4bpsgnm0h9bvp7tggfn0kkoq96,33f859i56aq8ftpjv3pknrmg3vmhb9,vAPHvuJY,2020-0188,2020-05-21,14:16:06,14:30:42,NA,incomplete,108,number,1,right,Blue_Plus_Stripes_3.jpg,Purple_Star_Stripes_4.jpg,Red_Circle_Dots_3.jpg,right,1165.500000002794,true,high,false
vAPHvuJY,3jhb4bpsgnm0h9bvp7tggfn0kkoq96,33f859i56aq8ftpjv3pknrmg3vmhb9,vAPHvuJY,2020-0188,2020-05-21,14:16:06,14:30:42,NA,incomplete,109,number,1,left,Blue_Star_Grid_3.jpg,Purple_Circle_Dots_3.jpg,Red_Triangle_Grid_2.jpg,left,623.9100000238977,true,high,false
vAPHvuJY,3jhb4bpsgnm0h9bvp7tggfn0kkoq96,33f859i56aq8ftpjv3pknrmg3vmhb9,vAPHvuJY,2020-0188,2020-05-21,14:16:06,14:30:42,NA,incomplete,110,filling,1,right,Blue_Star_Dots_4.jpg,Green_Triangle_Grid_4.jpg,Red_Circle_Dots_1.jpg,right,1295.8699999726377,true,high,false
vAPHvuJY,3jhb4bpsgnm0h9bvp7tggfn0kkoq96,33f859i56aq8ftpjv3pknrmg3vmhb9,vAPHvuJY,2020-0188,2020-05-21,14:16:06,14:30:42,NA,incomplete,111,filling,1,left,Green_Circle_Grid_4.jpg,Purple_Triangle_Grid_1.jpg,Blue_Plus_Dots_4.jpg,left,766.9699999969453,true,high,false
vAPHvuJY,3jhb4bpsgnm0h9bvp7tggfn0kkoq96,33f859i56aq8ftpjv3pknrmg3vmhb9,vAPHvuJY,2020-0188,2020-05-21,14:16:06,14:30:42,NA,incomplete,112,filling,1,right,Red_Circle_Dots_4.jpg,Green_Plus_Chess_4.jpg,Blue_Triangle_Dots_1.jpg,right,1162.0850000181235,true,high,false
vAPHvuJY,3jhb4bpsgnm0h9bvp7tggfn0kkoq96,33f859i56aq8ftpjv3pknrmg3vmhb9,vAPHvuJY,2020-0188,2020-05-21,14:16:06,14:30:42,NA,incomplete,113,filling,1,left,Green_Circle_Dots_1.jpg,Blue_Star_Dots_2.jpg,Purple_Plus_Chess_1.jpg,right,743.9249999588355,false,high,false
vAPHvuJY,3jhb4bpsgnm0h9bvp7tggfn0kkoq96,33f859i56aq8ftpjv3pknrmg3vmhb9,vAPHvuJY,2020-0188,2020-05-21,14:16:06,14:30:42,NA,incomplete,114,filling,1,right,Red_Circle_Grid_1.jpg,Green_Star_Stripes_1.jpg,Blue_Plus_Grid_2.jpg,left,755.3150000167079,false,high,false
vAPHvuJY,3jhb4bpsgnm0h9bvp7tggfn0kkoq96,33f859i56aq8ftpjv3pknrmg3vmhb9,vAPHvuJY,2020-0188,2020-05-21,14:16:06,14:30:42,NA,incomplete,115,filling,0,left,Green_Circle_Dots_4.jpg,Blue_Plus_Dots_3.jpg,Purple_Star_Stripes_4.jpg,right,894.1900000208989,false,high,false
vAPHvuJY,3jhb4bpsgnm0h9bvp7tggfn0kkoq96,33f859i56aq8ftpjv3pknrmg3vmhb9,vAPHvuJY,2020-0188,2020-05-21,14:16:06,14:30:42,NA,incomplete,116,filling,1,left,Purple_Plus_Grid_1.jpg,Red_Star_Grid_3.jpg,Green_Triangle_Chess_1.jpg,right,924.9749999726191,false,high,false
vAPHvuJY,3jhb4bpsgnm0h9bvp7tggfn0kkoq96,33f859i56aq8ftpjv3pknrmg3vmhb9,vAPHvuJY,2020-0188,2020-05-21,14:16:06,14:30:42,NA,incomplete,117,filling,1,left,Red_Circle_Stripes_4.jpg,Green_Star_Stripes_3.jpg,Purple_Plus_Chess_4.jpg,left,994.0850000130013,true,high,false
vAPHvuJY,3jhb4bpsgnm0h9bvp7tggfn0kkoq96,33f859i56aq8ftpjv3pknrmg3vmhb9,vAPHvuJY,2020-0188,2020-05-21,14:16:06,14:30:42,NA,incomplete,118,filling,1,left,Red_Triangle_Grid_2.jpg,Purple_Circle_Grid_1.jpg,Green_Star_Stripes_2.jpg,right,924.7399999876507,false,high,false
vAPHvuJY,3jhb4bpsgnm0h9bvp7tggfn0kkoq96,33f859i56aq8ftpjv3pknrmg3vmhb9,vAPHvuJY,2020-0188,2020-05-21,14:16:06,14:30:42,NA,incomplete,119,filling,1,left,Red_Star_Stripes_2.jpg,Blue_Circle_Stripes_3.jpg,Green_Triangle_Dots_2.jpg,left,921.0800000000745,true,high,false
vAPHvuJY,3jhb4bpsgnm0h9bvp7tggfn0kkoq96,33f859i56aq8ftpjv3pknrmg3vmhb9,vAPHvuJY,2020-0188,2020-05-21,14:16:06,14:30:42,NA,incomplete,120,color,1,left,Green_Triangle_Chess_2.jpg,Green_Circle_Stripes_1.jpg,Blue_Triangle_Grid_3.jpg,NA,NA,NA,high,false
vAPHvuJY,3jhb4bpsgnm0h9bvp7tggfn0kkoq96,33f859i56aq8ftpjv3pknrmg3vmhb9,vAPHvuJY,2020-0188,2020-05-21,14:16:06,14:30:42,NA,incomplete,121,color,1,left,Blue_Circle_Dots_4.jpg,Blue_Plus_Stripes_3.jpg,Purple_Circle_Chess_1.jpg,right,1598.775000020396,false,high,false
vAPHvuJY,3jhb4bpsgnm0h9bvp7tggfn0kkoq96,33f859i56aq8ftpjv3pknrmg3vmhb9,vAPHvuJY,2020-0188,2020-05-21,14:16:06,14:30:42,NA,incomplete,122,color,1,left,Blue_Star_Dots_3.jpg,Blue_Circle_Chess_2.jpg,Purple_Star_Stripes_1.jpg,right,911.4399999962188,false,high,false
vAPHvuJY,3jhb4bpsgnm0h9bvp7tggfn0kkoq96,33f859i56aq8ftpjv3pknrmg3vmhb9,vAPHvuJY,2020-0188,2020-05-21,14:16:06,14:30:42,NA,incomplete,123,color,1,right,Green_Triangle_Grid_1.jpg,Red_Triangle_Dots_2.jpg,Green_Circle_Stripes_4.jpg,right,742.8749999962747,true,high,false
vAPHvuJY,3jhb4bpsgnm0h9bvp7tggfn0kkoq96,33f859i56aq8ftpjv3pknrmg3vmhb9,vAPHvuJY,2020-0188,2020-05-21,14:16:06,14:30:42,NA,incomplete,124,color,1,right,Blue_Star_Stripes_1.jpg,Green_Star_Dots_4.jpg,Blue_Circle_Grid_3.jpg,right,577.0299999858253,true,high,false
vAPHvuJY,3jhb4bpsgnm0h9bvp7tggfn0kkoq96,33f859i56aq8ftpjv3pknrmg3vmhb9,vAPHvuJY,2020-0188,2020-05-21,14:16:06,14:30:42,NA,incomplete,125,color,1,left,Blue_Plus_Dots_3.jpg,Blue_Circle_Chess_2.jpg,Purple_Plus_Grid_4.jpg,left,555.7799999951385,true,high,false
vAPHvuJY,3jhb4bpsgnm0h9bvp7tggfn0kkoq96,33f859i56aq8ftpjv3pknrmg3vmhb9,vAPHvuJY,2020-0188,2020-05-21,14:16:06,14:30:42,NA,incomplete,126,color,1,right,Green_Star_Chess_4.jpg,Red_Star_Grid_2.jpg,Green_Plus_Stripes_3.jpg,right,518.2349999668077,true,high,false
vAPHvuJY,3jhb4bpsgnm0h9bvp7tggfn0kkoq96,33f859i56aq8ftpjv3pknrmg3vmhb9,vAPHvuJY,2020-0188,2020-05-21,14:16:06,14:30:42,NA,incomplete,127,color,1,left,Red_Star_Stripes_1.jpg,Red_Triangle_Dots_2.jpg,Green_Star_Chess_4.jpg,left,1058.370000042487,true,high,false
vAPHvuJY,3jhb4bpsgnm0h9bvp7tggfn0kkoq96,33f859i56aq8ftpjv3pknrmg3vmhb9,vAPHvuJY,2020-0188,2020-05-21,14:16:06,14:30:42,NA,incomplete,128,color,1,right,Blue_Circle_Grid_3.jpg,Green_Circle_Chess_2.jpg,Blue_Triangle_Stripes_1.jpg,right,483.7849999894388,true,high,false
vAPHvuJY,3jhb4bpsgnm0h9bvp7tggfn0kkoq96,33f859i56aq8ftpjv3pknrmg3vmhb9,vAPHvuJY,2020-0188,2020-05-21,14:16:06,14:30:42,NA,incomplete,129,color,1,right,Green_Star_Grid_1.jpg,Red_Star_Dots_3.jpg,Green_Circle_Chess_2.jpg,right,512.7799999900162,true,high,false
vAPHvuJY,3jhb4bpsgnm0h9bvp7tggfn0kkoq96,33f859i56aq8ftpjv3pknrmg3vmhb9,vAPHvuJY,2020-0188,2020-05-21,14:16:06,14:30:42,NA,incomplete,130,color,1,left,Blue_Star_Grid_2.jpg,Blue_Plus_Stripes_3.jpg,Purple_Star_Chess_1.jpg,left,516.9400000013411,true,high,false
vAPHvuJY,3jhb4bpsgnm0h9bvp7tggfn0kkoq96,33f859i56aq8ftpjv3pknrmg3vmhb9,vAPHvuJY,2020-0188,2020-05-21,14:16:06,14:30:42,NA,incomplete,131,color,0,left,Purple_Plus_Grid_2.jpg,Purple_Triangle_Stripes_1.jpg,Blue_Plus_Dots_3.jpg,right,768.96499999566,false,high,false
vAPHvuJY,3jhb4bpsgnm0h9bvp7tggfn0kkoq96,33f859i56aq8ftpjv3pknrmg3vmhb9,vAPHvuJY,2020-0188,2020-05-21,14:16:06,14:30:42,NA,incomplete,132,color,1,left,Purple_Plus_Chess_4.jpg,Purple_Circle_Stripes_1.jpg,Blue_Plus_Dots_3.jpg,left,916.1500000045635,true,high,false
vAPHvuJY,3jhb4bpsgnm0h9bvp7tggfn0kkoq96,33f859i56aq8ftpjv3pknrmg3vmhb9,vAPHvuJY,2020-0188,2020-05-21,14:16:06,14:30:42,NA,incomplete,133,color,0,left,Blue_Plus_Chess_4.jpg,Blue_Triangle_Grid_2.jpg,Red_Plus_Stripes_3.jpg,left,738.2149999612011,true,high,false
vAPHvuJY,3jhb4bpsgnm0h9bvp7tggfn0kkoq96,33f859i56aq8ftpjv3pknrmg3vmhb9,vAPHvuJY,2020-0188,2020-05-21,14:16:06,14:30:42,NA,incomplete,134,color,1,right,Red_Triangle_Dots_4.jpg,Blue_Triangle_Grid_1.jpg,Red_Circle_Chess_3.jpg,right,509.83500003349036,true,high,false
vAPHvuJY,3jhb4bpsgnm0h9bvp7tggfn0kkoq96,33f859i56aq8ftpjv3pknrmg3vmhb9,vAPHvuJY,2020-0188,2020-05-21,14:16:06,14:30:42,NA,incomplete,135,color,1,right,Green_Triangle_Chess_1.jpg,Purple_Triangle_Grid_3.jpg,Green_Star_Stripes_2.jpg,right,682.6299999956973,true,high,false
vAPHvuJY,3jhb4bpsgnm0h9bvp7tggfn0kkoq96,33f859i56aq8ftpjv3pknrmg3vmhb9,vAPHvuJY,2020-0188,2020-05-21,14:16:06,14:30:42,NA,incomplete,136,color,1,left,Purple_Plus_Chess_3.jpg,Purple_Triangle_Grid_1.jpg,Blue_Plus_Stripes_4.jpg,left,703.9949999889359,true,high,false
vAPHvuJY,3jhb4bpsgnm0h9bvp7tggfn0kkoq96,33f859i56aq8ftpjv3pknrmg3vmhb9,vAPHvuJY,2020-0188,2020-05-21,14:16:06,14:30:42,NA,incomplete,137,color,0,left,Blue_Circle_Dots_4.jpg,Blue_Star_Grid_3.jpg,Green_Circle_Stripes_1.jpg,left,541.2999999825843,true,high,false
vAPHvuJY,3jhb4bpsgnm0h9bvp7tggfn0kkoq96,33f859i56aq8ftpjv3pknrmg3vmhb9,vAPHvuJY,2020-0188,2020-05-21,14:16:06,14:30:42,NA,incomplete,138,color,1,right,Purple_Star_Stripes_4.jpg,Blue_Star_Grid_1.jpg,Purple_Plus_Chess_2.jpg,right,522.2799999755807,true,high,false
vAPHvuJY,3jhb4bpsgnm0h9bvp7tggfn0kkoq96,33f859i56aq8ftpjv3pknrmg3vmhb9,vAPHvuJY,2020-0188,2020-05-21,14:16:06,14:30:42,NA,incomplete,139,color,1,left,Red_Plus_Dots_3.jpg,Red_Triangle_Stripes_2.jpg,Blue_Plus_Chess_4.jpg,left,508.74999997904524,true,high,false
vAPHvuJY,3jhb4bpsgnm0h9bvp7tggfn0kkoq96,33f859i56aq8ftpjv3pknrmg3vmhb9,vAPHvuJY,2020-0188,2020-05-21,14:16:06,14:30:42,NA,incomplete,140,shape,1,right,Red_Circle_Grid_1.jpg,Red_Plus_Chess_3.jpg,Green_Circle_Stripes_2.jpg,left,522.4750000052154,false,high,false
vAPHvuJY,3jhb4bpsgnm0h9bvp7tggfn0kkoq96,33f859i56aq8ftpjv3pknrmg3vmhb9,vAPHvuJY,2020-0188,2020-05-21,14:16:06,14:30:42,NA,incomplete,141,shape,1,left,Green_Circle_Chess_3.jpg,Blue_Circle_Grid_2.jpg,Green_Star_Stripes_4.jpg,right,502.4449999909848,false,high,false
vAPHvuJY,3jhb4bpsgnm0h9bvp7tggfn0kkoq96,33f859i56aq8ftpjv3pknrmg3vmhb9,vAPHvuJY,2020-0188,2020-05-21,14:16:06,14:30:42,NA,incomplete,142,shape,1,left,Purple_Triangle_Stripes_3.jpg,Green_Triangle_Grid_2.jpg,Purple_Plus_Dots_1.jpg,left,730.9700000332668,true,high,false
vAPHvuJY,3jhb4bpsgnm0h9bvp7tggfn0kkoq96,33f859i56aq8ftpjv3pknrmg3vmhb9,vAPHvuJY,2020-0188,2020-05-21,14:16:06,14:30:42,NA,incomplete,143,shape,0,right,Red_Triangle_Dots_3.jpg,Red_Star_Chess_1.jpg,Purple_Triangle_Stripes_4.jpg,right,537.865000020247,true,high,false
vAPHvuJY,3jhb4bpsgnm0h9bvp7tggfn0kkoq96,33f859i56aq8ftpjv3pknrmg3vmhb9,vAPHvuJY,2020-0188,2020-05-21,14:16:06,14:30:42,NA,incomplete,144,shape,1,left,Green_Star_Grid_3.jpg,Purple_Star_Chess_1.jpg,Green_Circle_Stripes_4.jpg,left,882.6750000007451,true,high,false
vAPHvuJY,3jhb4bpsgnm0h9bvp7tggfn0kkoq96,33f859i56aq8ftpjv3pknrmg3vmhb9,vAPHvuJY,2020-0188,2020-05-21,14:16:06,14:30:42,NA,incomplete,145,shape,1,right,Red_Circle_Grid_4.jpg,Red_Star_Stripes_3.jpg,Blue_Circle_Dots_1.jpg,right,738.309999986086,true,high,false
vAPHvuJY,3jhb4bpsgnm0h9bvp7tggfn0kkoq96,33f859i56aq8ftpjv3pknrmg3vmhb9,vAPHvuJY,2020-0188,2020-05-21,14:16:06,14:30:42,NA,incomplete,146,shape,1,right,Purple_Circle_Stripes_2.jpg,Purple_Plus_Dots_1.jpg,Blue_Circle_Grid_3.jpg,right,605.539999960456,true,high,false
vAPHvuJY,3jhb4bpsgnm0h9bvp7tggfn0kkoq96,33f859i56aq8ftpjv3pknrmg3vmhb9,vAPHvuJY,2020-0188,2020-05-21,14:16:06,14:30:42,NA,incomplete,147,shape,1,right,Purple_Triangle_Dots_3.jpg,Purple_Circle_Stripes_4.jpg,Green_Triangle_Grid_1.jpg,right,1126.914999971632,true,high,false
vAPHvuJY,3jhb4bpsgnm0h9bvp7tggfn0kkoq96,33f859i56aq8ftpjv3pknrmg3vmhb9,vAPHvuJY,2020-0188,2020-05-21,14:16:06,14:30:42,NA,incomplete,148,shape,1,right,Red_Circle_Grid_4.jpg,Red_Plus_Chess_3.jpg,Purple_Circle_Stripes_2.jpg,right,917.3699999810196,true,high,false
vAPHvuJY,3jhb4bpsgnm0h9bvp7tggfn0kkoq96,33f859i56aq8ftpjv3pknrmg3vmhb9,vAPHvuJY,2020-0188,2020-05-21,14:16:06,14:30:42,NA,incomplete,149,shape,1,left,Red_Triangle_Chess_2.jpg,Blue_Triangle_Dots_4.jpg,Red_Circle_Stripes_3.jpg,left,729.8150000278838,true,high,false
vAPHvuJY,3jhb4bpsgnm0h9bvp7tggfn0kkoq96,33f859i56aq8ftpjv3pknrmg3vmhb9,vAPHvuJY,2020-0188,2020-05-21,14:16:06,14:30:42,NA,incomplete,150,shape,1,right,Green_Star_Stripes_3.jpg,Green_Plus_Grid_4.jpg,Red_Star_Dots_1.jpg,right,710.4050000198185,true,high,false
vAPHvuJY,3jhb4bpsgnm0h9bvp7tggfn0kkoq96,33f859i56aq8ftpjv3pknrmg3vmhb9,vAPHvuJY,2020-0188,2020-05-21,14:16:06,14:30:42,NA,incomplete,151,shape,1,right,Purple_Star_Chess_1.jpg,Purple_Plus_Grid_2.jpg,Blue_Star_Stripes_4.jpg,right,1259.1300000203773,true,high,false
vAPHvuJY,3jhb4bpsgnm0h9bvp7tggfn0kkoq96,33f859i56aq8ftpjv3pknrmg3vmhb9,vAPHvuJY,2020-0188,2020-05-21,14:16:06,14:30:42,NA,incomplete,152,shape,1,right,Purple_Circle_Chess_3.jpg,Purple_Star_Dots_4.jpg,Green_Circle_Stripes_2.jpg,right,738.965000025928,true,high,false
vAPHvuJY,3jhb4bpsgnm0h9bvp7tggfn0kkoq96,33f859i56aq8ftpjv3pknrmg3vmhb9,vAPHvuJY,2020-0188,2020-05-21,14:16:06,14:30:42,NA,incomplete,153,shape,1,right,Purple_Circle_Chess_1.jpg,Purple_Plus_Dots_3.jpg,Green_Circle_Grid_4.jpg,right,736.7700000177138,true,high,false
vAPHvuJY,3jhb4bpsgnm0h9bvp7tggfn0kkoq96,33f859i56aq8ftpjv3pknrmg3vmhb9,vAPHvuJY,2020-0188,2020-05-21,14:16:06,14:30:42,NA,incomplete,154,shape,1,right,Purple_Triangle_Grid_3.jpg,Purple_Star_Dots_2.jpg,Green_Triangle_Chess_4.jpg,right,750.3000000142492,true,high,false
vAPHvuJY,3jhb4bpsgnm0h9bvp7tggfn0kkoq96,33f859i56aq8ftpjv3pknrmg3vmhb9,vAPHvuJY,2020-0188,2020-05-21,14:16:06,14:30:42,NA,incomplete,155,shape,0,left,Green_Plus_Stripes_1.jpg,Red_Plus_Chess_4.jpg,Green_Star_Dots_3.jpg,left,647.3250000271946,true,high,false
vAPHvuJY,3jhb4bpsgnm0h9bvp7tggfn0kkoq96,33f859i56aq8ftpjv3pknrmg3vmhb9,vAPHvuJY,2020-0188,2020-05-21,14:16:06,14:30:42,NA,incomplete,156,shape,1,right,Blue_Triangle_Chess_2.jpg,Blue_Star_Dots_4.jpg,Green_Triangle_Grid_1.jpg,right,791.7349999770522,true,high,false
vAPHvuJY,3jhb4bpsgnm0h9bvp7tggfn0kkoq96,33f859i56aq8ftpjv3pknrmg3vmhb9,vAPHvuJY,2020-0188,2020-05-21,14:16:06,14:30:42,NA,incomplete,157,shape,0,right,Red_Circle_Chess_2.jpg,Red_Star_Grid_4.jpg,Purple_Circle_Dots_1.jpg,right,1257.3100000154227,true,high,false
vAPHvuJY,3jhb4bpsgnm0h9bvp7tggfn0kkoq96,33f859i56aq8ftpjv3pknrmg3vmhb9,vAPHvuJY,2020-0188,2020-05-21,14:16:06,14:30:42,NA,incomplete,158,shape,1,left,Green_Circle_Grid_1.jpg,Blue_Circle_Stripes_2.jpg,Green_Triangle_Dots_3.jpg,left,716.004999994766,true,high,false
vAPHvuJY,3jhb4bpsgnm0h9bvp7tggfn0kkoq96,33f859i56aq8ftpjv3pknrmg3vmhb9,vAPHvuJY,2020-0188,2020-05-21,14:16:06,14:30:42,NA,incomplete,159,shape,1,left,Blue_Plus_Dots_1.jpg,Green_Plus_Grid_3.jpg,Blue_Triangle_Stripes_2.jpg,left,727.149999991525,true,high,false
vAPHvuJY,3jhb4bpsgnm0h9bvp7tggfn0kkoq96,33f859i56aq8ftpjv3pknrmg3vmhb9,vAPHvuJY,2020-0188,2020-05-21,14:16:06,14:30:42,NA,incomplete,160,color,0,right,Red_Circle_Stripes_2.jpg,Blue_Circle_Grid_3.jpg,Red_Plus_Dots_4.jpg,left,563.6250000097789,false,high,false
vAPHvuJY,3jhb4bpsgnm0h9bvp7tggfn0kkoq96,33f859i56aq8ftpjv3pknrmg3vmhb9,vAPHvuJY,2020-0188,2020-05-21,14:16:06,14:30:42,NA,incomplete,161,color,1,right,Green_Star_Chess_2.jpg,Blue_Star_Dots_1.jpg,Green_Triangle_Grid_4.jpg,left,686.089999973774,false,high,false
vAPHvuJY,3jhb4bpsgnm0h9bvp7tggfn0kkoq96,33f859i56aq8ftpjv3pknrmg3vmhb9,vAPHvuJY,2020-0188,2020-05-21,14:16:06,14:30:42,NA,incomplete,162,color,1,left,Purple_Plus_Grid_2.jpg,Purple_Triangle_Stripes_3.jpg,Green_Plus_Dots_1.jpg,right,796.3950000121258,false,high,false
vAPHvuJY,3jhb4bpsgnm0h9bvp7tggfn0kkoq96,33f859i56aq8ftpjv3pknrmg3vmhb9,vAPHvuJY,2020-0188,2020-05-21,14:16:06,14:30:42,NA,incomplete,163,color,1,right,Red_Star_Grid_2.jpg,Green_Star_Dots_3.jpg,Red_Circle_Stripes_4.jpg,left,919.8049999540672,false,high,false
vAPHvuJY,3jhb4bpsgnm0h9bvp7tggfn0kkoq96,33f859i56aq8ftpjv3pknrmg3vmhb9,vAPHvuJY,2020-0188,2020-05-21,14:16:06,14:30:42,NA,incomplete,164,color,1,right,Purple_Circle_Grid_2.jpg,Green_Circle_Dots_3.jpg,Purple_Plus_Stripes_1.jpg,right,875.6649999995716,true,high,false
vAPHvuJY,3jhb4bpsgnm0h9bvp7tggfn0kkoq96,33f859i56aq8ftpjv3pknrmg3vmhb9,vAPHvuJY,2020-0188,2020-05-21,14:16:06,14:30:42,NA,incomplete,165,color,1,right,Red_Circle_Grid_1.jpg,Purple_Circle_Stripes_2.jpg,Red_Triangle_Chess_3.jpg,right,627.6650000363588,true,high,false
vAPHvuJY,3jhb4bpsgnm0h9bvp7tggfn0kkoq96,33f859i56aq8ftpjv3pknrmg3vmhb9,vAPHvuJY,2020-0188,2020-05-21,14:16:06,14:30:42,NA,incomplete,166,color,1,left,Green_Plus_Dots_1.jpg,Green_Circle_Chess_3.jpg,Red_Plus_Stripes_4.jpg,left,1416.8399999616668,true,high,false
vAPHvuJY,3jhb4bpsgnm0h9bvp7tggfn0kkoq96,33f859i56aq8ftpjv3pknrmg3vmhb9,vAPHvuJY,2020-0188,2020-05-21,14:16:06,14:30:42,NA,incomplete,167,color,0,left,Purple_Circle_Chess_4.jpg,Purple_Triangle_Stripes_3.jpg,Red_Circle_Grid_1.jpg,right,703.0099999974482,false,high,false
vAPHvuJY,3jhb4bpsgnm0h9bvp7tggfn0kkoq96,33f859i56aq8ftpjv3pknrmg3vmhb9,vAPHvuJY,2020-0188,2020-05-21,14:16:06,14:30:42,NA,incomplete,168,color,1,left,Green_Circle_Dots_4.jpg,Green_Star_Chess_2.jpg,Blue_Circle_Stripes_1.jpg,right,573.4499999671243,false,high,false
vAPHvuJY,3jhb4bpsgnm0h9bvp7tggfn0kkoq96,33f859i56aq8ftpjv3pknrmg3vmhb9,vAPHvuJY,2020-0188,2020-05-21,14:16:06,14:30:42,NA,incomplete,169,color,1,left,Purple_Circle_Grid_4.jpg,Purple_Star_Stripes_1.jpg,Green_Circle_Dots_2.jpg,left,742.5250000087544,true,high,false
vAPHvuJY,3jhb4bpsgnm0h9bvp7tggfn0kkoq96,33f859i56aq8ftpjv3pknrmg3vmhb9,vAPHvuJY,2020-0188,2020-05-21,14:16:06,14:30:42,NA,incomplete,170,color,1,right,Green_Star_Dots_2.jpg,Red_Star_Grid_4.jpg,Green_Circle_Stripes_3.jpg,right,969.9649999965914,true,high,false
vAPHvuJY,3jhb4bpsgnm0h9bvp7tggfn0kkoq96,33f859i56aq8ftpjv3pknrmg3vmhb9,vAPHvuJY,2020-0188,2020-05-21,14:16:06,14:30:42,NA,incomplete,171,color,0,right,Purple_Triangle_Chess_3.jpg,Green_Triangle_Dots_2.jpg,Purple_Star_Grid_4.jpg,right,629.5950000057928,true,high,false
vAPHvuJY,3jhb4bpsgnm0h9bvp7tggfn0kkoq96,33f859i56aq8ftpjv3pknrmg3vmhb9,vAPHvuJY,2020-0188,2020-05-21,14:16:06,14:30:42,NA,incomplete,172,color,1,right,Red_Circle_Grid_2.jpg,Blue_Circle_Chess_4.jpg,Red_Triangle_Dots_1.jpg,right,582.6100000413135,true,high,false
vAPHvuJY,3jhb4bpsgnm0h9bvp7tggfn0kkoq96,33f859i56aq8ftpjv3pknrmg3vmhb9,vAPHvuJY,2020-0188,2020-05-21,14:16:06,14:30:42,NA,incomplete,173,color,0,right,Purple_Star_Dots_2.jpg,Blue_Star_Grid_3.jpg,Purple_Plus_Stripes_4.jpg,right,657.2250000317581,true,high,false
vAPHvuJY,3jhb4bpsgnm0h9bvp7tggfn0kkoq96,33f859i56aq8ftpjv3pknrmg3vmhb9,vAPHvuJY,2020-0188,2020-05-21,14:16:06,14:30:42,NA,incomplete,174,color,1,right,Red_Plus_Dots_3.jpg,Purple_Plus_Grid_1.jpg,Red_Triangle_Chess_4.jpg,right,631.8500000052154,true,high,false
vAPHvuJY,3jhb4bpsgnm0h9bvp7tggfn0kkoq96,33f859i56aq8ftpjv3pknrmg3vmhb9,vAPHvuJY,2020-0188,2020-05-21,14:16:06,14:30:42,NA,incomplete,175,color,1,right,Red_Triangle_Dots_2.jpg,Purple_Triangle_Chess_4.jpg,Red_Star_Stripes_3.jpg,right,518.6849999590777,true,high,false
vAPHvuJY,3jhb4bpsgnm0h9bvp7tggfn0kkoq96,33f859i56aq8ftpjv3pknrmg3vmhb9,vAPHvuJY,2020-0188,2020-05-21,14:16:06,14:30:42,NA,incomplete,176,color,1,left,Blue_Circle_Grid_4.jpg,Blue_Triangle_Stripes_2.jpg,Purple_Circle_Chess_3.jpg,left,628.0400000396185,true,high,false
vAPHvuJY,3jhb4bpsgnm0h9bvp7tggfn0kkoq96,33f859i56aq8ftpjv3pknrmg3vmhb9,vAPHvuJY,2020-0188,2020-05-21,14:16:06,14:30:42,NA,incomplete,177,color,1,right,Blue_Triangle_Grid_1.jpg,Purple_Triangle_Dots_3.jpg,Blue_Star_Chess_2.jpg,right,533.3550000214018,true,high,false
vAPHvuJY,3jhb4bpsgnm0h9bvp7tggfn0kkoq96,33f859i56aq8ftpjv3pknrmg3vmhb9,vAPHvuJY,2020-0188,2020-05-21,14:16:06,14:30:42,NA,incomplete,178,color,1,right,Blue_Plus_Grid_4.jpg,Purple_Plus_Chess_2.jpg,Blue_Star_Dots_1.jpg,right,528.7349999998696,true,high,false
vAPHvuJY,3jhb4bpsgnm0h9bvp7tggfn0kkoq96,33f859i56aq8ftpjv3pknrmg3vmhb9,vAPHvuJY,2020-0188,2020-05-21,14:16:06,14:30:42,NA,incomplete,179,color,1,right,Red_Circle_Dots_4.jpg,Blue_Circle_Stripes_1.jpg,Red_Star_Grid_3.jpg,right,467.38500002538785,true,high,false
vAPHvuJY,3jhb4bpsgnm0h9bvp7tggfn0kkoq96,33f859i56aq8ftpjv3pknrmg3vmhb9,vAPHvuJY,2020-0188,2020-05-21,14:16:06,14:30:42,NA,incomplete,180,shape,1,right,Blue_Triangle_Grid_2.jpg,Blue_Circle_Chess_1.jpg,Green_Triangle_Stripes_3.jpg,left,515.8900000387803,false,high,false
vAPHvuJY,3jhb4bpsgnm0h9bvp7tggfn0kkoq96,33f859i56aq8ftpjv3pknrmg3vmhb9,vAPHvuJY,2020-0188,2020-05-21,14:16:06,14:30:42,NA,incomplete,181,shape,1,right,Red_Triangle_Stripes_3.jpg,Red_Star_Dots_2.jpg,Purple_Triangle_Grid_1.jpg,left,534.6900000004098,false,high,false
vAPHvuJY,3jhb4bpsgnm0h9bvp7tggfn0kkoq96,33f859i56aq8ftpjv3pknrmg3vmhb9,vAPHvuJY,2020-0188,2020-05-21,14:16:06,14:30:42,NA,incomplete,182,shape,1,right,Green_Plus_Dots_2.jpg,Green_Star_Chess_4.jpg,Blue_Plus_Grid_1.jpg,left,673.3450000174344,false,high,false
vAPHvuJY,3jhb4bpsgnm0h9bvp7tggfn0kkoq96,33f859i56aq8ftpjv3pknrmg3vmhb9,vAPHvuJY,2020-0188,2020-05-21,14:16:06,14:30:42,NA,incomplete,183,shape,1,right,Red_Plus_Chess_4.jpg,Red_Triangle_Grid_3.jpg,Green_Plus_Stripes_2.jpg,right,933.6050000274554,true,high,false
vAPHvuJY,3jhb4bpsgnm0h9bvp7tggfn0kkoq96,33f859i56aq8ftpjv3pknrmg3vmhb9,vAPHvuJY,2020-0188,2020-05-21,14:16:06,14:30:42,NA,incomplete,184,shape,1,left,Purple_Star_Stripes_2.jpg,Green_Star_Dots_4.jpg,Purple_Plus_Grid_3.jpg,left,1069.4950000033714,true,high,false
vAPHvuJY,3jhb4bpsgnm0h9bvp7tggfn0kkoq96,33f859i56aq8ftpjv3pknrmg3vmhb9,vAPHvuJY,2020-0188,2020-05-21,14:16:06,14:30:42,NA,incomplete,185,shape,0,right,Blue_Plus_Grid_2.jpg,Blue_Star_Dots_3.jpg,Red_Plus_Stripes_4.jpg,right,668.1899999966845,true,high,false
vAPHvuJY,3jhb4bpsgnm0h9bvp7tggfn0kkoq96,33f859i56aq8ftpjv3pknrmg3vmhb9,vAPHvuJY,2020-0188,2020-05-21,14:16:06,14:30:42,NA,incomplete,186,shape,1,left,Green_Circle_Grid_3.jpg,Blue_Circle_Stripes_2.jpg,Green_Star_Chess_4.jpg,left,891.559999960009,true,high,false
vAPHvuJY,3jhb4bpsgnm0h9bvp7tggfn0kkoq96,33f859i56aq8ftpjv3pknrmg3vmhb9,vAPHvuJY,2020-0188,2020-05-21,14:16:06,14:30:42,NA,incomplete,187,shape,1,left,Red_Circle_Dots_3.jpg,Purple_Circle_Stripes_1.jpg,Red_Triangle_Grid_2.jpg,left,994.4699999759905,true,high,false
vAPHvuJY,3jhb4bpsgnm0h9bvp7tggfn0kkoq96,33f859i56aq8ftpjv3pknrmg3vmhb9,vAPHvuJY,2020-0188,2020-05-21,14:16:06,14:30:42,NA,incomplete,188,shape,1,right,Blue_Plus_Stripes_2.jpg,Blue_Circle_Dots_4.jpg,Red_Plus_Chess_1.jpg,right,853.644999966491,true,high,false
vAPHvuJY,3jhb4bpsgnm0h9bvp7tggfn0kkoq96,33f859i56aq8ftpjv3pknrmg3vmhb9,vAPHvuJY,2020-0188,2020-05-21,14:16:06,14:30:42,NA,incomplete,189,shape,0,right,Red_Plus_Grid_1.jpg,Red_Triangle_Chess_4.jpg,Blue_Plus_Stripes_2.jpg,right,707.979999948293,true,high,false
vAPHvuJY,3jhb4bpsgnm0h9bvp7tggfn0kkoq96,33f859i56aq8ftpjv3pknrmg3vmhb9,vAPHvuJY,2020-0188,2020-05-21,14:16:06,14:30:42,NA,incomplete,190,shape,1,right,Blue_Star_Stripes_1.jpg,Blue_Plus_Grid_4.jpg,Green_Star_Dots_2.jpg,right,712.9749999730848,true,high,false
vAPHvuJY,3jhb4bpsgnm0h9bvp7tggfn0kkoq96,33f859i56aq8ftpjv3pknrmg3vmhb9,vAPHvuJY,2020-0188,2020-05-21,14:16:06,14:30:42,NA,incomplete,191,shape,0,right,Red_Star_Chess_1.jpg,Red_Circle_Grid_2.jpg,Green_Star_Dots_4.jpg,right,750.9949999512173,true,high,false
vAPHvuJY,3jhb4bpsgnm0h9bvp7tggfn0kkoq96,33f859i56aq8ftpjv3pknrmg3vmhb9,vAPHvuJY,2020-0188,2020-05-21,14:16:06,14:30:42,NA,incomplete,192,shape,1,right,Green_Plus_Stripes_4.jpg,Green_Circle_Dots_2.jpg,Blue_Plus_Chess_1.jpg,right,586.0450000036508,true,high,false
vAPHvuJY,3jhb4bpsgnm0h9bvp7tggfn0kkoq96,33f859i56aq8ftpjv3pknrmg3vmhb9,vAPHvuJY,2020-0188,2020-05-21,14:16:06,14:30:42,NA,incomplete,193,shape,0,right,Red_Triangle_Chess_2.jpg,Red_Plus_Grid_1.jpg,Blue_Triangle_Stripes_4.jpg,right,1028.4450000035577,true,high,false
vAPHvuJY,3jhb4bpsgnm0h9bvp7tggfn0kkoq96,33f859i56aq8ftpjv3pknrmg3vmhb9,vAPHvuJY,2020-0188,2020-05-21,14:16:06,14:30:42,NA,incomplete,194,shape,1,left,Blue_Triangle_Grid_2.jpg,Red_Triangle_Chess_3.jpg,Blue_Plus_Stripes_4.jpg,left,740.5949999811128,true,high,false
vAPHvuJY,3jhb4bpsgnm0h9bvp7tggfn0kkoq96,33f859i56aq8ftpjv3pknrmg3vmhb9,vAPHvuJY,2020-0188,2020-05-21,14:16:06,14:30:42,NA,incomplete,195,shape,0,left,Green_Plus_Stripes_4.jpg,Blue_Plus_Dots_1.jpg,Green_Star_Chess_3.jpg,left,834.534999972675,true,high,false
vAPHvuJY,3jhb4bpsgnm0h9bvp7tggfn0kkoq96,33f859i56aq8ftpjv3pknrmg3vmhb9,vAPHvuJY,2020-0188,2020-05-21,14:16:06,14:30:42,NA,incomplete,196,shape,1,left,Blue_Plus_Stripes_3.jpg,Purple_Plus_Grid_1.jpg,Blue_Triangle_Chess_4.jpg,left,881.4199999906123,true,high,false
vAPHvuJY,3jhb4bpsgnm0h9bvp7tggfn0kkoq96,33f859i56aq8ftpjv3pknrmg3vmhb9,vAPHvuJY,2020-0188,2020-05-21,14:16:06,14:30:42,NA,incomplete,197,shape,0,right,Blue_Star_Grid_3.jpg,Blue_Circle_Chess_2.jpg,Green_Star_Dots_1.jpg,right,575.8450000430457,true,high,false
vAPHvuJY,3jhb4bpsgnm0h9bvp7tggfn0kkoq96,33f859i56aq8ftpjv3pknrmg3vmhb9,vAPHvuJY,2020-0188,2020-05-21,14:16:06,14:30:42,NA,incomplete,198,shape,1,right,Purple_Triangle_Dots_2.jpg,Purple_Star_Chess_1.jpg,Blue_Triangle_Grid_3.jpg,right,651.4999999781139,true,high,false
vAPHvuJY,3jhb4bpsgnm0h9bvp7tggfn0kkoq96,33f859i56aq8ftpjv3pknrmg3vmhb9,vAPHvuJY,2020-0188,2020-05-21,14:16:06,14:30:42,NA,incomplete,199,shape,1,right,Purple_Plus_Chess_3.jpg,Purple_Circle_Dots_1.jpg,Green_Plus_Grid_4.jpg,right,641.330000013113,true,high,false
vAPHvuJY,3jhb4bpsgnm0h9bvp7tggfn0kkoq96,33f859i56aq8ftpjv3pknrmg3vmhb9,vAPHvuJY,2020-0188,2020-05-21,14:16:06,14:30:42,NA,incomplete,200,color,1,right,Blue_Circle_Dots_4.jpg,Red_Circle_Stripes_3.jpg,Blue_Star_Chess_1.jpg,left,816.8999999761581,false,high,false
vAPHvuJY,3jhb4bpsgnm0h9bvp7tggfn0kkoq96,33f859i56aq8ftpjv3pknrmg3vmhb9,vAPHvuJY,2020-0188,2020-05-21,14:16:06,14:30:42,NA,incomplete,201,color,1,left,Green_Plus_Dots_3.jpg,Green_Star_Chess_1.jpg,Blue_Plus_Grid_4.jpg,right,602.2300000186078,false,high,false
vAPHvuJY,3jhb4bpsgnm0h9bvp7tggfn0kkoq96,33f859i56aq8ftpjv3pknrmg3vmhb9,vAPHvuJY,2020-0188,2020-05-21,14:16:06,14:30:42,NA,incomplete,202,color,1,left,Purple_Circle_Dots_1.jpg,Purple_Plus_Stripes_4.jpg,Green_Circle_Chess_2.jpg,right,802.5599999818951,false,high,false
vAPHvuJY,3jhb4bpsgnm0h9bvp7tggfn0kkoq96,33f859i56aq8ftpjv3pknrmg3vmhb9,vAPHvuJY,2020-0188,2020-05-21,14:16:06,14:30:42,NA,incomplete,203,color,0,left,Green_Plus_Dots_2.jpg,Green_Circle_Stripes_3.jpg,Purple_Plus_Chess_4.jpg,left,637.9350000061095,true,high,false
vAPHvuJY,3jhb4bpsgnm0h9bvp7tggfn0kkoq96,33f859i56aq8ftpjv3pknrmg3vmhb9,vAPHvuJY,2020-0188,2020-05-21,14:16:06,14:30:42,NA,incomplete,204,color,1,left,Green_Plus_Grid_1.jpg,Green_Triangle_Stripes_2.jpg,Blue_Plus_Chess_3.jpg,left,548.8849999965169,true,high,false
vAPHvuJY,3jhb4bpsgnm0h9bvp7tggfn0kkoq96,33f859i56aq8ftpjv3pknrmg3vmhb9,vAPHvuJY,2020-0188,2020-05-21,14:16:06,14:30:42,NA,incomplete,205,color,0,left,Purple_Plus_Grid_1.jpg,Purple_Star_Stripes_2.jpg,Red_Plus_Chess_4.jpg,left,673.9100000122562,true,high,false
vAPHvuJY,3jhb4bpsgnm0h9bvp7tggfn0kkoq96,33f859i56aq8ftpjv3pknrmg3vmhb9,vAPHvuJY,2020-0188,2020-05-21,14:16:06,14:30:42,NA,incomplete,206,color,1,left,Red_Circle_Grid_1.jpg,Red_Star_Chess_3.jpg,Blue_Circle_Dots_4.jpg,left,485.820000001695,true,high,false
vAPHvuJY,3jhb4bpsgnm0h9bvp7tggfn0kkoq96,33f859i56aq8ftpjv3pknrmg3vmhb9,vAPHvuJY,2020-0188,2020-05-21,14:16:06,14:30:42,NA,incomplete,207,color,0,left,Blue_Star_Chess_4.jpg,Blue_Plus_Grid_1.jpg,Purple_Star_Stripes_2.jpg,left,644.4949999568053,true,high,false
vAPHvuJY,3jhb4bpsgnm0h9bvp7tggfn0kkoq96,33f859i56aq8ftpjv3pknrmg3vmhb9,vAPHvuJY,2020-0188,2020-05-21,14:16:06,14:30:42,NA,incomplete,208,color,1,left,Blue_Triangle_Chess_2.jpg,Blue_Circle_Stripes_1.jpg,Green_Triangle_Dots_4.jpg,left,538.7399999890476,true,high,false
vAPHvuJY,3jhb4bpsgnm0h9bvp7tggfn0kkoq96,33f859i56aq8ftpjv3pknrmg3vmhb9,vAPHvuJY,2020-0188,2020-05-21,14:16:06,14:30:42,NA,incomplete,209,color,1,left,Blue_Plus_Dots_4.jpg,Blue_Star_Stripes_3.jpg,Red_Plus_Grid_2.jpg,left,437.4850000021979,true,high,false
vAPHvuJY,3jhb4bpsgnm0h9bvp7tggfn0kkoq96,33f859i56aq8ftpjv3pknrmg3vmhb9,vAPHvuJY,2020-0188,2020-05-21,14:16:06,14:30:42,NA,incomplete,210,color,1,left,Purple_Circle_Chess_2.jpg,Purple_Triangle_Grid_3.jpg,Green_Circle_Stripes_1.jpg,left,452.52499997150153,true,high,false
vAPHvuJY,3jhb4bpsgnm0h9bvp7tggfn0kkoq96,33f859i56aq8ftpjv3pknrmg3vmhb9,vAPHvuJY,2020-0188,2020-05-21,14:16:06,14:30:42,NA,incomplete,211,color,1,right,Red_Plus_Stripes_4.jpg,Purple_Plus_Chess_2.jpg,Red_Circle_Dots_3.jpg,right,507.4500000337139,true,high,false
vAPHvuJY,3jhb4bpsgnm0h9bvp7tggfn0kkoq96,33f859i56aq8ftpjv3pknrmg3vmhb9,vAPHvuJY,2020-0188,2020-05-21,14:16:06,14:30:42,NA,incomplete,212,color,1,right,Red_Plus_Stripes_2.jpg,Green_Plus_Grid_3.jpg,Red_Circle_Chess_4.jpg,right,495.69499999051914,true,high,false
vAPHvuJY,3jhb4bpsgnm0h9bvp7tggfn0kkoq96,33f859i56aq8ftpjv3pknrmg3vmhb9,vAPHvuJY,2020-0188,2020-05-21,14:16:06,14:30:42,NA,incomplete,213,color,1,left,Red_Plus_Grid_3.jpg,Red_Circle_Chess_1.jpg,Green_Plus_Dots_4.jpg,left,654.7600000048988,true,high,false
vAPHvuJY,3jhb4bpsgnm0h9bvp7tggfn0kkoq96,33f859i56aq8ftpjv3pknrmg3vmhb9,vAPHvuJY,2020-0188,2020-05-21,14:16:06,14:30:42,NA,incomplete,214,color,1,left,Green_Star_Chess_3.jpg,Green_Circle_Dots_2.jpg,Red_Star_Grid_1.jpg,left,597.5300000282004,true,high,false
vAPHvuJY,3jhb4bpsgnm0h9bvp7tggfn0kkoq96,33f859i56aq8ftpjv3pknrmg3vmhb9,vAPHvuJY,2020-0188,2020-05-21,14:16:06,14:30:42,NA,incomplete,215,color,0,left,Red_Plus_Grid_4.jpg,Red_Star_Chess_2.jpg,Green_Plus_Dots_3.jpg,left,509.47499996982515,true,high,false
vAPHvuJY,3jhb4bpsgnm0h9bvp7tggfn0kkoq96,33f859i56aq8ftpjv3pknrmg3vmhb9,vAPHvuJY,2020-0188,2020-05-21,14:16:06,14:30:42,NA,incomplete,216,color,1,right,Green_Star_Chess_2.jpg,Red_Star_Stripes_1.jpg,Green_Circle_Grid_4.jpg,right,554.0049999835901,true,high,false
vAPHvuJY,3jhb4bpsgnm0h9bvp7tggfn0kkoq96,33f859i56aq8ftpjv3pknrmg3vmhb9,vAPHvuJY,2020-0188,2020-05-21,14:16:06,14:30:42,NA,incomplete,217,color,1,left,Red_Circle_Chess_1.jpg,Red_Plus_Grid_2.jpg,Green_Circle_Dots_4.jpg,left,525.02000000095,true,high,false
vAPHvuJY,3jhb4bpsgnm0h9bvp7tggfn0kkoq96,33f859i56aq8ftpjv3pknrmg3vmhb9,vAPHvuJY,2020-0188,2020-05-21,14:16:06,14:30:42,NA,incomplete,218,color,1,left,Red_Plus_Stripes_2.jpg,Red_Circle_Grid_3.jpg,Blue_Plus_Dots_1.jpg,left,513.5599999921396,true,high,false
vAPHvuJY,3jhb4bpsgnm0h9bvp7tggfn0kkoq96,33f859i56aq8ftpjv3pknrmg3vmhb9,vAPHvuJY,2020-0188,2020-05-21,14:16:06,14:30:42,NA,incomplete,219,color,1,left,Red_Circle_Stripes_3.jpg,Red_Star_Dots_4.jpg,Green_Circle_Chess_1.jpg,left,454.825000022538,true,high,false
vAPHvuJY,3jhb4bpsgnm0h9bvp7tggfn0kkoq96,33f859i56aq8ftpjv3pknrmg3vmhb9,vAPHvuJY,2020-0188,2020-05-21,14:16:06,14:30:42,NA,incomplete,220,shape,1,left,Red_Star_Chess_1.jpg,Green_Star_Stripes_3.jpg,Red_Circle_Grid_4.jpg,right,539.954999985639,false,high,false
vAPHvuJY,3jhb4bpsgnm0h9bvp7tggfn0kkoq96,33f859i56aq8ftpjv3pknrmg3vmhb9,vAPHvuJY,2020-0188,2020-05-21,14:16:06,14:30:42,NA,incomplete,221,shape,1,left,Red_Triangle_Grid_3.jpg,Green_Triangle_Stripes_1.jpg,Red_Plus_Dots_2.jpg,right,447.7900000056252,false,high,false
vAPHvuJY,3jhb4bpsgnm0h9bvp7tggfn0kkoq96,33f859i56aq8ftpjv3pknrmg3vmhb9,vAPHvuJY,2020-0188,2020-05-21,14:16:06,14:30:42,NA,incomplete,222,shape,1,right,Purple_Star_Chess_2.jpg,Purple_Plus_Dots_1.jpg,Red_Star_Grid_4.jpg,left,865.494999976363,false,high,false
vAPHvuJY,3jhb4bpsgnm0h9bvp7tggfn0kkoq96,33f859i56aq8ftpjv3pknrmg3vmhb9,vAPHvuJY,2020-0188,2020-05-21,14:16:06,14:30:42,NA,incomplete,223,shape,1,right,Purple_Circle_Stripes_4.jpg,Purple_Triangle_Chess_3.jpg,Blue_Circle_Grid_2.jpg,right,734.264999977313,true,high,false
vAPHvuJY,3jhb4bpsgnm0h9bvp7tggfn0kkoq96,33f859i56aq8ftpjv3pknrmg3vmhb9,vAPHvuJY,2020-0188,2020-05-21,14:16:06,14:30:42,NA,incomplete,224,shape,0,left,Red_Circle_Grid_2.jpg,Green_Circle_Stripes_3.jpg,Red_Star_Dots_1.jpg,left,947.4150000023656,true,high,false
vAPHvuJY,3jhb4bpsgnm0h9bvp7tggfn0kkoq96,33f859i56aq8ftpjv3pknrmg3vmhb9,vAPHvuJY,2020-0188,2020-05-21,14:16:06,14:30:42,NA,incomplete,225,shape,1,left,Blue_Triangle_Chess_1.jpg,Purple_Triangle_Grid_3.jpg,Blue_Circle_Stripes_2.jpg,right,662.6800000085495,false,high,false
vAPHvuJY,3jhb4bpsgnm0h9bvp7tggfn0kkoq96,33f859i56aq8ftpjv3pknrmg3vmhb9,vAPHvuJY,2020-0188,2020-05-21,14:16:06,14:30:42,NA,incomplete,226,shape,0,right,Green_Circle_Stripes_1.jpg,Green_Plus_Grid_3.jpg,Blue_Circle_Dots_4.jpg,right,805.8199999504723,true,high,false
vAPHvuJY,3jhb4bpsgnm0h9bvp7tggfn0kkoq96,33f859i56aq8ftpjv3pknrmg3vmhb9,vAPHvuJY,2020-0188,2020-05-21,14:16:06,14:30:42,NA,incomplete,227,shape,1,left,Red_Plus_Grid_2.jpg,Purple_Plus_Dots_1.jpg,Red_Star_Stripes_3.jpg,right,527.8800000087358,false,high,false
vAPHvuJY,3jhb4bpsgnm0h9bvp7tggfn0kkoq96,33f859i56aq8ftpjv3pknrmg3vmhb9,vAPHvuJY,2020-0188,2020-05-21,14:16:06,14:30:42,NA,incomplete,228,shape,1,left,Red_Plus_Chess_1.jpg,Purple_Plus_Stripes_4.jpg,Red_Triangle_Grid_3.jpg,left,1268.9400000381283,true,high,false
vAPHvuJY,3jhb4bpsgnm0h9bvp7tggfn0kkoq96,33f859i56aq8ftpjv3pknrmg3vmhb9,vAPHvuJY,2020-0188,2020-05-21,14:16:06,14:30:42,NA,incomplete,229,shape,1,left,Purple_Star_Grid_3.jpg,Red_Star_Dots_2.jpg,Purple_Triangle_Stripes_4.jpg,left,740.894999995362,true,high,false
vAPHvuJY,3jhb4bpsgnm0h9bvp7tggfn0kkoq96,33f859i56aq8ftpjv3pknrmg3vmhb9,vAPHvuJY,2020-0188,2020-05-21,14:16:06,14:30:42,NA,incomplete,230,shape,1,left,Green_Plus_Grid_3.jpg,Purple_Plus_Stripes_1.jpg,Green_Circle_Dots_4.jpg,left,687.1249999967404,true,high,false
vAPHvuJY,3jhb4bpsgnm0h9bvp7tggfn0kkoq96,33f859i56aq8ftpjv3pknrmg3vmhb9,vAPHvuJY,2020-0188,2020-05-21,14:16:06,14:30:42,NA,incomplete,231,shape,1,right,Blue_Plus_Grid_4.jpg,Blue_Star_Chess_3.jpg,Purple_Plus_Stripes_2.jpg,left,726.9199999864213,false,high,false
vAPHvuJY,3jhb4bpsgnm0h9bvp7tggfn0kkoq96,33f859i56aq8ftpjv3pknrmg3vmhb9,vAPHvuJY,2020-0188,2020-05-21,14:16:06,14:30:42,NA,incomplete,232,shape,0,left,Green_Plus_Grid_2.jpg,Blue_Plus_Dots_4.jpg,Green_Circle_Stripes_1.jpg,left,834.7250000224449,true,high,false
vAPHvuJY,3jhb4bpsgnm0h9bvp7tggfn0kkoq96,33f859i56aq8ftpjv3pknrmg3vmhb9,vAPHvuJY,2020-0188,2020-05-21,14:16:06,14:30:42,NA,incomplete,233,shape,1,right,Purple_Circle_Dots_4.jpg,Purple_Star_Grid_3.jpg,Blue_Circle_Stripes_1.jpg,right,682.825000025332,true,high,false
vAPHvuJY,3jhb4bpsgnm0h9bvp7tggfn0kkoq96,33f859i56aq8ftpjv3pknrmg3vmhb9,vAPHvuJY,2020-0188,2020-05-21,14:16:06,14:30:42,NA,incomplete,234,shape,1,left,Blue_Star_Chess_2.jpg,Green_Star_Grid_4.jpg,Blue_Circle_Stripes_1.jpg,left,665.5450000544079,true,high,false
vAPHvuJY,3jhb4bpsgnm0h9bvp7tggfn0kkoq96,33f859i56aq8ftpjv3pknrmg3vmhb9,vAPHvuJY,2020-0188,2020-05-21,14:16:06,14:30:42,NA,incomplete,235,shape,1,right,Red_Plus_Grid_2.jpg,Red_Triangle_Dots_3.jpg,Purple_Plus_Stripes_4.jpg,right,592.1649999800138,true,high,false
vAPHvuJY,3jhb4bpsgnm0h9bvp7tggfn0kkoq96,33f859i56aq8ftpjv3pknrmg3vmhb9,vAPHvuJY,2020-0188,2020-05-21,14:16:06,14:30:42,NA,incomplete,236,shape,1,left,Green_Triangle_Grid_2.jpg,Purple_Triangle_Stripes_3.jpg,Green_Star_Dots_4.jpg,left,728.5750000155531,true,high,false
vAPHvuJY,3jhb4bpsgnm0h9bvp7tggfn0kkoq96,33f859i56aq8ftpjv3pknrmg3vmhb9,vAPHvuJY,2020-0188,2020-05-21,14:16:06,14:30:42,NA,incomplete,237,shape,1,right,Red_Circle_Stripes_4.jpg,Red_Triangle_Chess_1.jpg,Blue_Circle_Grid_2.jpg,right,653.1599999871105,true,high,false
vAPHvuJY,3jhb4bpsgnm0h9bvp7tggfn0kkoq96,33f859i56aq8ftpjv3pknrmg3vmhb9,vAPHvuJY,2020-0188,2020-05-21,14:16:06,14:30:42,NA,incomplete,238,shape,0,right,Red_Triangle_Dots_1.jpg,Red_Circle_Chess_3.jpg,Blue_Triangle_Grid_2.jpg,right,692.2450000420213,true,high,false
vAPHvuJY,3jhb4bpsgnm0h9bvp7tggfn0kkoq96,33f859i56aq8ftpjv3pknrmg3vmhb9,vAPHvuJY,2020-0188,2020-05-21,14:16:06,14:30:42,NA,incomplete,239,shape,1,right,Green_Triangle_Stripes_2.jpg,Green_Plus_Chess_4.jpg,Red_Triangle_Dots_3.jpg,right,755.6599999661557,true,high,false
vAPHvuJY,3jhb4bpsgnm0h9bvp7tggfn0kkoq96,33f859i56aq8ftpjv3pknrmg3vmhb9,vAPHvuJY,2020-0188,2020-05-21,14:16:06,14:30:42,NA,NA,instruction example,number,NA,NA,Green_Plus_Dots_1.jpg,Red_Triangle_Stripes_1.jpg,Blue_Star_Dots_3.jpg,NA,NA,NA,NA,undefined
vAPHvuJY,3jhb4bpsgnm0h9bvp7tggfn0kkoq96,33f859i56aq8ftpjv3pknrmg3vmhb9,vAPHvuJY,2020-0188,2020-05-21,14:16:06,14:30:42,NA,NA,instruction example,number,NA,NA,Purple_Circle_Grid_3.jpg,Blue_Plus_Grid_4.jpg,Red_Triangle_Dots_3.jpg,NA,NA,NA,NA,undefined
vAPHvuJY,3jhb4bpsgnm0h9bvp7tggfn0kkoq96,33f859i56aq8ftpjv3pknrmg3vmhb9,vAPHvuJY,2020-0188,2020-05-21,14:16:06,14:30:42,NA,NA,instruction example,number,NA,NA,Blue_Circle_Dots_1.jpg,Blue_Plus_Grid_4.jpg,Purple_Circle_Stripes_3.jpg,NA,NA,NA,NA,undefined
vAPHvuJY,3jhb4bpsgnm0h9bvp7tggfn0kkoq96,33f859i56aq8ftpjv3pknrmg3vmhb9,vAPHvuJY,2020-0188,2020-05-21,14:16:06,14:30:42,NA,NA,instruction example,number,NA,NA,Green_Triangle_Grid_1.jpg,Red_Triangle_Chess_3.jpg,Green_Circle_Dots_2.jpg,NA,NA,NA,NA,undefined
vAPHvuJY,3jhb4bpsgnm0h9bvp7tggfn0kkoq96,33f859i56aq8ftpjv3pknrmg3vmhb9,vAPHvuJY,2020-0188,2020-05-21,14:16:06,14:30:42,843293.554999982,877151.5500000096,NA,NA,NA,NA,NA,NA,NA,NA,NA,NA,NA,undefined
