workerId,hitId,assignmentId,subject,studyid,exp_date,exp_start,exp_end,time_start,time_end,trial,type,reward_validity,answer,image_top,image_left,image_right,response,response_time,response_acc,volatility,practice
r4IhhXbz,3icohx7eofotocxdgkfntnxt5xb0e8,33m4ia01qkeshq6nw4twqsff73orxx,r4IhhXbz,2020-0188,2020-11-18,21:11:07,21:29:03,NA,incomplete,0,number,1,right,Red_Circle_Chess_3.jpg,Red_Plus_Stripes_1.jpg,Blue_Star_Dots_3.jpg,right,1580.1100000389852,true,NA,true
r4IhhXbz,3icohx7eofotocxdgkfntnxt5xb0e8,33m4ia01qkeshq6nw4twqsff73orxx,r4IhhXbz,2020-0188,2020-11-18,21:11:07,21:29:03,NA,incomplete,1,number,1,left,Purple_Circle_Dots_1.jpg,Green_Triangle_Stripes_1.jpg,Purple_Star_Chess_4.jpg,none,0,false,NA,true
r4IhhXbz,3icohx7eofotocxdgkfntnxt5xb0e8,33m4ia01qkeshq6nw4twqsff73orxx,r4IhhXbz,2020-0188,2020-11-18,21:11:07,21:29:03,NA,incomplete,2,number,1,right,Red_Plus_Chess_2.jpg,Red_Star_Dots_1.jpg,Blue_Triangle_Grid_2.jpg,right,1176.229999982752,true,NA,true
r4IhhXbz,3icohx7eofotocxdgkfntnxt5xb0e8,33m4ia01qkeshq6nw4twqsff73orxx,r4IhhXbz,2020-0188,2020-11-18,21:11:07,21:29:03,NA,incomplete,3,number,1,right,Purple_Star_Dots_3.jpg,Purple_Plus_Stripes_1.jpg,Green_Triangle_Grid_3.jpg,right,1024.2200000211596,true,NA,true
r4IhhXbz,3icohx7eofotocxdgkfntnxt5xb0e8,33m4ia01qkeshq6nw4twqsff73orxx,r4IhhXbz,2020-0188,2020-11-18,21:11:07,21:29:03,NA,incomplete,4,number,0,right,Green_Plus_Stripes_4.jpg,Green_Circle_Grid_1.jpg,Purple_Triangle_Dots_4.jpg,right,1144.9049999937415,true,NA,true
r4IhhXbz,3icohx7eofotocxdgkfntnxt5xb0e8,33m4ia01qkeshq6nw4twqsff73orxx,r4IhhXbz,2020-0188,2020-11-18,21:11:07,21:29:03,NA,incomplete,5,number,0,left,Blue_Star_Chess_4.jpg,Red_Plus_Dots_4.jpg,Blue_Circle_Grid_3.jpg,none,0,false,NA,true
r4IhhXbz,3icohx7eofotocxdgkfntnxt5xb0e8,33m4ia01qkeshq6nw4twqsff73orxx,r4IhhXbz,2020-0188,2020-11-18,21:11:07,21:29:03,NA,incomplete,6,number,1,right,Green_Triangle_Stripes_3.jpg,Green_Circle_Grid_1.jpg,Blue_Plus_Dots_3.jpg,right,935.0149999954738,true,NA,true
r4IhhXbz,3icohx7eofotocxdgkfntnxt5xb0e8,33m4ia01qkeshq6nw4twqsff73orxx,r4IhhXbz,2020-0188,2020-11-18,21:11:07,21:29:03,NA,incomplete,7,number,1,left,Red_Circle_Chess_4.jpg,Purple_Star_Stripes_4.jpg,Red_Triangle_Dots_3.jpg,none,0,false,NA,true
r4IhhXbz,3icohx7eofotocxdgkfntnxt5xb0e8,33m4ia01qkeshq6nw4twqsff73orxx,r4IhhXbz,2020-0188,2020-11-18,21:11:07,21:29:03,NA,incomplete,8,number,1,left,Blue_Triangle_Grid_1.jpg,Green_Plus_Stripes_1.jpg,Blue_Star_Chess_3.jpg,left,957.8699999838136,true,NA,true
r4IhhXbz,3icohx7eofotocxdgkfntnxt5xb0e8,33m4ia01qkeshq6nw4twqsff73orxx,r4IhhXbz,2020-0188,2020-11-18,21:11:07,21:29:03,NA,incomplete,9,number,1,right,Green_Circle_Chess_1.jpg,Green_Triangle_Stripes_3.jpg,Blue_Star_Dots_1.jpg,right,1179.1200000443496,true,NA,true
r4IhhXbz,3icohx7eofotocxdgkfntnxt5xb0e8,33m4ia01qkeshq6nw4twqsff73orxx,r4IhhXbz,2020-0188,2020-11-18,21:11:07,21:29:03,NA,incomplete,10,number,1,left,Red_Triangle_Dots_4.jpg,Blue_Plus_Stripes_4.jpg,Red_Star_Grid_1.jpg,left,875.6300000241026,true,NA,true
r4IhhXbz,3icohx7eofotocxdgkfntnxt5xb0e8,33m4ia01qkeshq6nw4twqsff73orxx,r4IhhXbz,2020-0188,2020-11-18,21:11:07,21:29:03,NA,incomplete,11,number,1,right,Blue_Triangle_Chess_1.jpg,Blue_Plus_Stripes_3.jpg,Red_Circle_Dots_1.jpg,right,856.5400000079535,true,NA,true
r4IhhXbz,3icohx7eofotocxdgkfntnxt5xb0e8,33m4ia01qkeshq6nw4twqsff73orxx,r4IhhXbz,2020-0188,2020-11-18,21:11:07,21:29:03,NA,incomplete,12,number,1,right,Purple_Circle_Dots_2.jpg,Purple_Plus_Chess_4.jpg,Blue_Star_Grid_2.jpg,right,1054.9449999816716,true,NA,true
r4IhhXbz,3icohx7eofotocxdgkfntnxt5xb0e8,33m4ia01qkeshq6nw4twqsff73orxx,r4IhhXbz,2020-0188,2020-11-18,21:11:07,21:29:03,NA,incomplete,13,number,1,left,Green_Circle_Grid_3.jpg,Red_Star_Stripes_3.jpg,Green_Plus_Chess_4.jpg,left,994.5899999584071,true,NA,true
r4IhhXbz,3icohx7eofotocxdgkfntnxt5xb0e8,33m4ia01qkeshq6nw4twqsff73orxx,r4IhhXbz,2020-0188,2020-11-18,21:11:07,21:29:03,NA,incomplete,14,number,1,left,Purple_Triangle_Grid_3.jpg,Green_Star_Stripes_3.jpg,Purple_Plus_Dots_4.jpg,left,953.4250000142492,true,NA,true
r4IhhXbz,3icohx7eofotocxdgkfntnxt5xb0e8,33m4ia01qkeshq6nw4twqsff73orxx,r4IhhXbz,2020-0188,2020-11-18,21:11:07,21:29:03,NA,incomplete,15,number,1,left,Purple_Plus_Stripes_3.jpg,Green_Circle_Chess_3.jpg,Purple_Star_Dots_4.jpg,left,706.5199999487959,true,NA,true
r4IhhXbz,3icohx7eofotocxdgkfntnxt5xb0e8,33m4ia01qkeshq6nw4twqsff73orxx,r4IhhXbz,2020-0188,2020-11-18,21:11:07,21:29:03,NA,incomplete,16,number,1,left,Purple_Circle_Dots_2.jpg,Green_Plus_Grid_2.jpg,Purple_Triangle_Chess_3.jpg,left,893.7349999905564,true,NA,true
r4IhhXbz,3icohx7eofotocxdgkfntnxt5xb0e8,33m4ia01qkeshq6nw4twqsff73orxx,r4IhhXbz,2020-0188,2020-11-18,21:11:07,21:29:03,NA,incomplete,17,number,0,left,Purple_Circle_Chess_3.jpg,Green_Triangle_Dots_3.jpg,Purple_Star_Stripes_2.jpg,left,941.2200000369921,true,NA,true
r4IhhXbz,3icohx7eofotocxdgkfntnxt5xb0e8,33m4ia01qkeshq6nw4twqsff73orxx,r4IhhXbz,2020-0188,2020-11-18,21:11:07,21:29:03,NA,incomplete,18,number,0,left,Purple_Plus_Chess_4.jpg,Green_Star_Dots_4.jpg,Purple_Triangle_Stripes_3.jpg,left,1225.559999991674,true,NA,true
r4IhhXbz,3icohx7eofotocxdgkfntnxt5xb0e8,33m4ia01qkeshq6nw4twqsff73orxx,r4IhhXbz,2020-0188,2020-11-18,21:11:07,21:29:03,NA,incomplete,19,number,1,left,Blue_Triangle_Stripes_3.jpg,Green_Plus_Dots_3.jpg,Blue_Circle_Grid_1.jpg,left,964.0200000139885,true,NA,true
r4IhhXbz,3icohx7eofotocxdgkfntnxt5xb0e8,33m4ia01qkeshq6nw4twqsff73orxx,r4IhhXbz,2020-0188,2020-11-18,21:11:07,21:29:03,NA,incomplete,20,color,0,right,Green_Triangle_Stripes_2.jpg,Purple_Star_Chess_2.jpg,Green_Plus_Dots_4.jpg,right,1333.2999999984168,true,NA,true
r4IhhXbz,3icohx7eofotocxdgkfntnxt5xb0e8,33m4ia01qkeshq6nw4twqsff73orxx,r4IhhXbz,2020-0188,2020-11-18,21:11:07,21:29:03,NA,incomplete,21,color,1,left,Green_Circle_Grid_3.jpg,Green_Triangle_Stripes_4.jpg,Purple_Star_Chess_3.jpg,left,866.0699999891222,true,NA,true
r4IhhXbz,3icohx7eofotocxdgkfntnxt5xb0e8,33m4ia01qkeshq6nw4twqsff73orxx,r4IhhXbz,2020-0188,2020-11-18,21:11:07,21:29:03,NA,incomplete,22,color,0,left,Green_Plus_Chess_1.jpg,Green_Circle_Grid_4.jpg,Purple_Triangle_Dots_1.jpg,left,813.8250000192784,true,NA,true
r4IhhXbz,3icohx7eofotocxdgkfntnxt5xb0e8,33m4ia01qkeshq6nw4twqsff73orxx,r4IhhXbz,2020-0188,2020-11-18,21:11:07,21:29:03,NA,incomplete,23,color,1,left,Red_Plus_Grid_1.jpg,Red_Triangle_Chess_2.jpg,Green_Star_Dots_1.jpg,left,1264.6349999704398,true,NA,true
r4IhhXbz,3icohx7eofotocxdgkfntnxt5xb0e8,33m4ia01qkeshq6nw4twqsff73orxx,r4IhhXbz,2020-0188,2020-11-18,21:11:07,21:29:03,NA,incomplete,24,color,1,right,Red_Triangle_Chess_2.jpg,Blue_Plus_Grid_2.jpg,Red_Star_Stripes_4.jpg,right,844.4649999728426,true,NA,true
r4IhhXbz,3icohx7eofotocxdgkfntnxt5xb0e8,33m4ia01qkeshq6nw4twqsff73orxx,r4IhhXbz,2020-0188,2020-11-18,21:11:07,21:29:03,NA,incomplete,25,color,1,left,Purple_Star_Grid_1.jpg,Purple_Triangle_Chess_4.jpg,Green_Circle_Dots_1.jpg,left,762.4700000160374,true,NA,true
r4IhhXbz,3icohx7eofotocxdgkfntnxt5xb0e8,33m4ia01qkeshq6nw4twqsff73orxx,r4IhhXbz,2020-0188,2020-11-18,21:11:07,21:29:03,NA,incomplete,26,color,1,left,Purple_Star_Chess_4.jpg,Purple_Plus_Dots_1.jpg,Blue_Triangle_Stripes_4.jpg,left,809.9950000178069,true,NA,true
r4IhhXbz,3icohx7eofotocxdgkfntnxt5xb0e8,33m4ia01qkeshq6nw4twqsff73orxx,r4IhhXbz,2020-0188,2020-11-18,21:11:07,21:29:03,NA,incomplete,27,color,1,right,Green_Circle_Dots_4.jpg,Blue_Plus_Grid_4.jpg,Green_Triangle_Chess_3.jpg,right,706.8200000212528,true,NA,true
r4IhhXbz,3icohx7eofotocxdgkfntnxt5xb0e8,33m4ia01qkeshq6nw4twqsff73orxx,r4IhhXbz,2020-0188,2020-11-18,21:11:07,21:29:03,NA,incomplete,28,color,1,left,Purple_Star_Stripes_4.jpg,Purple_Plus_Grid_3.jpg,Blue_Circle_Dots_4.jpg,left,678.4200000111014,true,NA,true
r4IhhXbz,3icohx7eofotocxdgkfntnxt5xb0e8,33m4ia01qkeshq6nw4twqsff73orxx,r4IhhXbz,2020-0188,2020-11-18,21:11:07,21:29:03,NA,incomplete,29,color,1,left,Purple_Plus_Stripes_1.jpg,Purple_Circle_Chess_3.jpg,Red_Star_Grid_1.jpg,left,675.6049999967217,true,NA,true
r4IhhXbz,3icohx7eofotocxdgkfntnxt5xb0e8,33m4ia01qkeshq6nw4twqsff73orxx,r4IhhXbz,2020-0188,2020-11-18,21:11:07,21:29:03,NA,incomplete,30,color,1,left,Red_Plus_Grid_1.jpg,Red_Triangle_Dots_4.jpg,Purple_Circle_Stripes_1.jpg,left,714.1900000278838,true,NA,true
r4IhhXbz,3icohx7eofotocxdgkfntnxt5xb0e8,33m4ia01qkeshq6nw4twqsff73orxx,r4IhhXbz,2020-0188,2020-11-18,21:11:07,21:29:03,NA,incomplete,31,color,1,right,Blue_Circle_Grid_3.jpg,Purple_Triangle_Stripes_3.jpg,Blue_Star_Dots_1.jpg,right,712.0050000376068,true,NA,true
r4IhhXbz,3icohx7eofotocxdgkfntnxt5xb0e8,33m4ia01qkeshq6nw4twqsff73orxx,r4IhhXbz,2020-0188,2020-11-18,21:11:07,21:29:03,NA,incomplete,32,color,1,right,Red_Circle_Chess_1.jpg,Blue_Plus_Dots_1.jpg,Red_Triangle_Stripes_2.jpg,right,611.3900000345893,true,NA,true
r4IhhXbz,3icohx7eofotocxdgkfntnxt5xb0e8,33m4ia01qkeshq6nw4twqsff73orxx,r4IhhXbz,2020-0188,2020-11-18,21:11:07,21:29:03,NA,incomplete,33,color,0,left,Red_Triangle_Chess_4.jpg,Red_Plus_Dots_2.jpg,Green_Circle_Grid_4.jpg,left,672.9950000299141,true,NA,true
r4IhhXbz,3icohx7eofotocxdgkfntnxt5xb0e8,33m4ia01qkeshq6nw4twqsff73orxx,r4IhhXbz,2020-0188,2020-11-18,21:11:07,21:29:03,NA,incomplete,34,color,1,right,Red_Circle_Chess_1.jpg,Green_Star_Grid_1.jpg,Red_Plus_Dots_2.jpg,right,676.6600000555627,true,NA,true
r4IhhXbz,3icohx7eofotocxdgkfntnxt5xb0e8,33m4ia01qkeshq6nw4twqsff73orxx,r4IhhXbz,2020-0188,2020-11-18,21:11:07,21:29:03,NA,incomplete,35,color,0,left,Red_Circle_Grid_2.jpg,Red_Triangle_Chess_3.jpg,Purple_Star_Dots_2.jpg,left,595.339999999851,true,NA,true
r4IhhXbz,3icohx7eofotocxdgkfntnxt5xb0e8,33m4ia01qkeshq6nw4twqsff73orxx,r4IhhXbz,2020-0188,2020-11-18,21:11:07,21:29:03,NA,incomplete,36,color,1,right,Purple_Circle_Dots_2.jpg,Blue_Triangle_Stripes_2.jpg,Purple_Plus_Chess_3.jpg,right,1298.3599999570288,true,NA,true
r4IhhXbz,3icohx7eofotocxdgkfntnxt5xb0e8,33m4ia01qkeshq6nw4twqsff73orxx,r4IhhXbz,2020-0188,2020-11-18,21:11:07,21:29:03,NA,incomplete,37,color,1,right,Purple_Triangle_Dots_2.jpg,Red_Circle_Chess_2.jpg,Purple_Plus_Stripes_4.jpg,right,753.9300000062212,true,NA,true
r4IhhXbz,3icohx7eofotocxdgkfntnxt5xb0e8,33m4ia01qkeshq6nw4twqsff73orxx,r4IhhXbz,2020-0188,2020-11-18,21:11:07,21:29:03,NA,incomplete,38,color,1,left,Green_Star_Dots_4.jpg,Green_Plus_Grid_3.jpg,Blue_Triangle_Stripes_4.jpg,left,696.6799999936484,true,NA,true
r4IhhXbz,3icohx7eofotocxdgkfntnxt5xb0e8,33m4ia01qkeshq6nw4twqsff73orxx,r4IhhXbz,2020-0188,2020-11-18,21:11:07,21:29:03,NA,incomplete,39,color,1,left,Green_Triangle_Grid_1.jpg,Green_Star_Dots_2.jpg,Purple_Plus_Stripes_1.jpg,left,871.2950000190176,true,NA,true
r4IhhXbz,3icohx7eofotocxdgkfntnxt5xb0e8,33m4ia01qkeshq6nw4twqsff73orxx,r4IhhXbz,2020-0188,2020-11-18,21:11:07,21:29:03,NA,incomplete,0,number,1,left,Red_Star_Dots_1.jpg,Purple_Triangle_Stripes_1.jpg,Red_Circle_Chess_3.jpg,right,1206.6699999850243,false,low,false
r4IhhXbz,3icohx7eofotocxdgkfntnxt5xb0e8,33m4ia01qkeshq6nw4twqsff73orxx,r4IhhXbz,2020-0188,2020-11-18,21:11:07,21:29:03,NA,incomplete,1,number,1,left,Red_Plus_Stripes_2.jpg,Green_Triangle_Dots_2.jpg,Red_Circle_Grid_1.jpg,left,979.7850000322796,true,low,false
r4IhhXbz,3icohx7eofotocxdgkfntnxt5xb0e8,33m4ia01qkeshq6nw4twqsff73orxx,r4IhhXbz,2020-0188,2020-11-18,21:11:07,21:29:03,NA,incomplete,2,number,1,right,Purple_Star_Dots_2.jpg,Purple_Triangle_Stripes_1.jpg,Blue_Circle_Grid_2.jpg,right,1052.4250000016764,true,low,false
r4IhhXbz,3icohx7eofotocxdgkfntnxt5xb0e8,33m4ia01qkeshq6nw4twqsff73orxx,r4IhhXbz,2020-0188,2020-11-18,21:11:07,21:29:03,NA,incomplete,3,number,1,left,Green_Triangle_Stripes_3.jpg,Blue_Plus_Dots_3.jpg,Green_Circle_Grid_4.jpg,left,975.1450000330806,true,low,false
r4IhhXbz,3icohx7eofotocxdgkfntnxt5xb0e8,33m4ia01qkeshq6nw4twqsff73orxx,r4IhhXbz,2020-0188,2020-11-18,21:11:07,21:29:03,NA,incomplete,4,number,1,left,Purple_Circle_Chess_2.jpg,Blue_Plus_Dots_2.jpg,Purple_Triangle_Stripes_3.jpg,left,1038.4199999971315,true,low,false
r4IhhXbz,3icohx7eofotocxdgkfntnxt5xb0e8,33m4ia01qkeshq6nw4twqsff73orxx,r4IhhXbz,2020-0188,2020-11-18,21:11:07,21:29:03,NA,incomplete,5,number,1,left,Blue_Plus_Chess_1.jpg,Red_Star_Grid_1.jpg,Blue_Triangle_Stripes_3.jpg,left,1053.4600000246428,true,low,false
r4IhhXbz,3icohx7eofotocxdgkfntnxt5xb0e8,33m4ia01qkeshq6nw4twqsff73orxx,r4IhhXbz,2020-0188,2020-11-18,21:11:07,21:29:03,NA,incomplete,6,number,1,right,Green_Plus_Dots_2.jpg,Green_Circle_Chess_1.jpg,Red_Star_Stripes_2.jpg,left,924.4699999690056,false,low,false
r4IhhXbz,3icohx7eofotocxdgkfntnxt5xb0e8,33m4ia01qkeshq6nw4twqsff73orxx,r4IhhXbz,2020-0188,2020-11-18,21:11:07,21:29:03,NA,incomplete,7,number,1,left,Purple_Triangle_Grid_2.jpg,Green_Star_Dots_2.jpg,Purple_Plus_Chess_4.jpg,right,1301.1549999937415,false,low,false
r4IhhXbz,3icohx7eofotocxdgkfntnxt5xb0e8,33m4ia01qkeshq6nw4twqsff73orxx,r4IhhXbz,2020-0188,2020-11-18,21:11:07,21:29:03,NA,incomplete,8,number,1,left,Green_Triangle_Stripes_1.jpg,Red_Star_Chess_1.jpg,Green_Circle_Dots_3.jpg,left,958.9500000001863,true,low,false
r4IhhXbz,3icohx7eofotocxdgkfntnxt5xb0e8,33m4ia01qkeshq6nw4twqsff73orxx,r4IhhXbz,2020-0188,2020-11-18,21:11:07,21:29:03,NA,incomplete,9,number,0,right,Red_Plus_Chess_1.jpg,Red_Star_Grid_2.jpg,Purple_Circle_Dots_1.jpg,right,1058.0149999586865,true,low,false
r4IhhXbz,3icohx7eofotocxdgkfntnxt5xb0e8,33m4ia01qkeshq6nw4twqsff73orxx,r4IhhXbz,2020-0188,2020-11-18,21:11:07,21:29:03,NA,incomplete,10,number,0,right,Red_Plus_Dots_1.jpg,Red_Circle_Chess_4.jpg,Blue_Star_Grid_1.jpg,left,717.0049999840558,false,low,false
r4IhhXbz,3icohx7eofotocxdgkfntnxt5xb0e8,33m4ia01qkeshq6nw4twqsff73orxx,r4IhhXbz,2020-0188,2020-11-18,21:11:07,21:29:03,NA,incomplete,11,number,1,left,Green_Star_Dots_4.jpg,Purple_Triangle_Chess_4.jpg,Green_Circle_Stripes_2.jpg,right,683.8950000237674,false,low,false
r4IhhXbz,3icohx7eofotocxdgkfntnxt5xb0e8,33m4ia01qkeshq6nw4twqsff73orxx,r4IhhXbz,2020-0188,2020-11-18,21:11:07,21:29:03,NA,incomplete,12,number,1,left,Green_Plus_Dots_1.jpg,Purple_Star_Grid_1.jpg,Green_Circle_Chess_4.jpg,left,1228.6350000067614,true,low,false
r4IhhXbz,3icohx7eofotocxdgkfntnxt5xb0e8,33m4ia01qkeshq6nw4twqsff73orxx,r4IhhXbz,2020-0188,2020-11-18,21:11:07,21:29:03,NA,incomplete,13,number,1,left,Blue_Circle_Dots_4.jpg,Green_Plus_Chess_4.jpg,Blue_Star_Stripes_2.jpg,left,901.3550000381656,true,low,false
r4IhhXbz,3icohx7eofotocxdgkfntnxt5xb0e8,33m4ia01qkeshq6nw4twqsff73orxx,r4IhhXbz,2020-0188,2020-11-18,21:11:07,21:29:03,NA,incomplete,14,number,1,left,Green_Plus_Stripes_2.jpg,Red_Circle_Grid_2.jpg,Green_Star_Dots_4.jpg,left,809.5699999830686,true,low,false
r4IhhXbz,3icohx7eofotocxdgkfntnxt5xb0e8,33m4ia01qkeshq6nw4twqsff73orxx,r4IhhXbz,2020-0188,2020-11-18,21:11:07,21:29:03,NA,incomplete,15,number,1,right,Green_Plus_Dots_3.jpg,Green_Circle_Chess_1.jpg,Red_Star_Grid_3.jpg,right,1133.6400000145659,true,low,false
r4IhhXbz,3icohx7eofotocxdgkfntnxt5xb0e8,33m4ia01qkeshq6nw4twqsff73orxx,r4IhhXbz,2020-0188,2020-11-18,21:11:07,21:29:03,NA,incomplete,16,number,1,right,Red_Circle_Grid_1.jpg,Red_Plus_Stripes_2.jpg,Green_Triangle_Chess_1.jpg,right,762.0650000171736,true,low,false
r4IhhXbz,3icohx7eofotocxdgkfntnxt5xb0e8,33m4ia01qkeshq6nw4twqsff73orxx,r4IhhXbz,2020-0188,2020-11-18,21:11:07,21:29:03,NA,incomplete,17,number,1,right,Blue_Star_Chess_4.jpg,Blue_Circle_Grid_3.jpg,Purple_Triangle_Stripes_4.jpg,right,803.2300000195391,true,low,false
r4IhhXbz,3icohx7eofotocxdgkfntnxt5xb0e8,33m4ia01qkeshq6nw4twqsff73orxx,r4IhhXbz,2020-0188,2020-11-18,21:11:07,21:29:03,NA,incomplete,18,number,1,right,Purple_Triangle_Stripes_1.jpg,Purple_Circle_Dots_3.jpg,Red_Star_Grid_1.jpg,right,1026.36999997776,true,low,false
r4IhhXbz,3icohx7eofotocxdgkfntnxt5xb0e8,33m4ia01qkeshq6nw4twqsff73orxx,r4IhhXbz,2020-0188,2020-11-18,21:11:07,21:29:03,NA,incomplete,19,number,0,left,Blue_Star_Chess_1.jpg,Purple_Triangle_Stripes_1.jpg,Blue_Circle_Dots_4.jpg,left,769.3949999520555,true,low,false
r4IhhXbz,3icohx7eofotocxdgkfntnxt5xb0e8,33m4ia01qkeshq6nw4twqsff73orxx,r4IhhXbz,2020-0188,2020-11-18,21:11:07,21:29:03,NA,incomplete,20,number,1,left,Blue_Triangle_Stripes_1.jpg,Red_Plus_Chess_1.jpg,Blue_Circle_Grid_4.jpg,left,947.0399999991059,true,low,false
r4IhhXbz,3icohx7eofotocxdgkfntnxt5xb0e8,33m4ia01qkeshq6nw4twqsff73orxx,r4IhhXbz,2020-0188,2020-11-18,21:11:07,21:29:03,NA,incomplete,21,number,1,left,Blue_Circle_Dots_1.jpg,Green_Triangle_Chess_1.jpg,Blue_Plus_Stripes_2.jpg,left,720.4449999844655,true,low,false
r4IhhXbz,3icohx7eofotocxdgkfntnxt5xb0e8,33m4ia01qkeshq6nw4twqsff73orxx,r4IhhXbz,2020-0188,2020-11-18,21:11:07,21:29:03,NA,incomplete,22,number,1,left,Blue_Circle_Dots_2.jpg,Green_Star_Chess_2.jpg,Blue_Plus_Stripes_3.jpg,left,917.4200000124983,true,low,false
r4IhhXbz,3icohx7eofotocxdgkfntnxt5xb0e8,33m4ia01qkeshq6nw4twqsff73orxx,r4IhhXbz,2020-0188,2020-11-18,21:11:07,21:29:03,NA,incomplete,23,number,1,left,Purple_Plus_Stripes_2.jpg,Red_Star_Dots_2.jpg,Purple_Triangle_Grid_3.jpg,left,725.06499994779,true,low,false
r4IhhXbz,3icohx7eofotocxdgkfntnxt5xb0e8,33m4ia01qkeshq6nw4twqsff73orxx,r4IhhXbz,2020-0188,2020-11-18,21:11:07,21:29:03,NA,incomplete,24,number,1,left,Blue_Plus_Chess_4.jpg,Purple_Circle_Stripes_4.jpg,Blue_Triangle_Grid_1.jpg,left,839.2500000190921,true,low,false
r4IhhXbz,3icohx7eofotocxdgkfntnxt5xb0e8,33m4ia01qkeshq6nw4twqsff73orxx,r4IhhXbz,2020-0188,2020-11-18,21:11:07,21:29:03,NA,incomplete,25,number,1,right,Blue_Plus_Grid_1.jpg,Blue_Circle_Stripes_2.jpg,Red_Star_Dots_1.jpg,right,884.7749999840744,true,low,false
r4IhhXbz,3icohx7eofotocxdgkfntnxt5xb0e8,33m4ia01qkeshq6nw4twqsff73orxx,r4IhhXbz,2020-0188,2020-11-18,21:11:07,21:29:03,NA,incomplete,26,number,0,left,Green_Plus_Dots_2.jpg,Purple_Triangle_Grid_2.jpg,Green_Star_Chess_3.jpg,left,759.9599999957718,true,low,false
r4IhhXbz,3icohx7eofotocxdgkfntnxt5xb0e8,33m4ia01qkeshq6nw4twqsff73orxx,r4IhhXbz,2020-0188,2020-11-18,21:11:07,21:29:03,NA,incomplete,27,number,1,right,Green_Circle_Stripes_4.jpg,Green_Star_Grid_2.jpg,Red_Triangle_Chess_4.jpg,right,993.190000008326,true,low,false
r4IhhXbz,3icohx7eofotocxdgkfntnxt5xb0e8,33m4ia01qkeshq6nw4twqsff73orxx,r4IhhXbz,2020-0188,2020-11-18,21:11:07,21:29:03,NA,incomplete,28,number,0,right,Purple_Star_Dots_1.jpg,Purple_Triangle_Chess_2.jpg,Green_Circle_Grid_1.jpg,right,829.3549999943934,true,low,false
r4IhhXbz,3icohx7eofotocxdgkfntnxt5xb0e8,33m4ia01qkeshq6nw4twqsff73orxx,r4IhhXbz,2020-0188,2020-11-18,21:11:07,21:29:03,NA,incomplete,29,number,1,right,Blue_Star_Stripes_3.jpg,Blue_Circle_Dots_1.jpg,Green_Triangle_Grid_3.jpg,left,700.5500000086613,false,low,false
r4IhhXbz,3icohx7eofotocxdgkfntnxt5xb0e8,33m4ia01qkeshq6nw4twqsff73orxx,r4IhhXbz,2020-0188,2020-11-18,21:11:07,21:29:03,NA,incomplete,30,color,1,right,Green_Triangle_Dots_4.jpg,Red_Circle_Stripes_4.jpg,Green_Plus_Chess_2.jpg,right,933.0349999945611,true,low,false
r4IhhXbz,3icohx7eofotocxdgkfntnxt5xb0e8,33m4ia01qkeshq6nw4twqsff73orxx,r4IhhXbz,2020-0188,2020-11-18,21:11:07,21:29:03,NA,incomplete,31,color,1,left,Green_Circle_Dots_3.jpg,Green_Triangle_Chess_1.jpg,Blue_Star_Grid_3.jpg,left,843.1949999649078,true,low,false
r4IhhXbz,3icohx7eofotocxdgkfntnxt5xb0e8,33m4ia01qkeshq6nw4twqsff73orxx,r4IhhXbz,2020-0188,2020-11-18,21:11:07,21:29:03,NA,incomplete,32,color,1,left,Purple_Circle_Stripes_1.jpg,Purple_Triangle_Chess_3.jpg,Red_Plus_Dots_1.jpg,left,623.2599999639206,true,low,false
r4IhhXbz,3icohx7eofotocxdgkfntnxt5xb0e8,33m4ia01qkeshq6nw4twqsff73orxx,r4IhhXbz,2020-0188,2020-11-18,21:11:07,21:29:03,NA,incomplete,33,color,1,right,Blue_Star_Stripes_1.jpg,Red_Plus_Chess_1.jpg,Blue_Triangle_Grid_2.jpg,right,923.4200000064448,true,low,false
r4IhhXbz,3icohx7eofotocxdgkfntnxt5xb0e8,33m4ia01qkeshq6nw4twqsff73orxx,r4IhhXbz,2020-0188,2020-11-18,21:11:07,21:29:03,NA,incomplete,34,color,1,left,Green_Star_Grid_4.jpg,Green_Circle_Stripes_3.jpg,Red_Plus_Chess_4.jpg,left,639.8300000000745,true,low,false
r4IhhXbz,3icohx7eofotocxdgkfntnxt5xb0e8,33m4ia01qkeshq6nw4twqsff73orxx,r4IhhXbz,2020-0188,2020-11-18,21:11:07,21:29:03,NA,incomplete,35,color,0,left,Green_Plus_Dots_4.jpg,Green_Triangle_Chess_3.jpg,Purple_Star_Stripes_4.jpg,left,531.8800000241026,true,low,false
r4IhhXbz,3icohx7eofotocxdgkfntnxt5xb0e8,33m4ia01qkeshq6nw4twqsff73orxx,r4IhhXbz,2020-0188,2020-11-18,21:11:07,21:29:03,NA,incomplete,36,color,1,right,Purple_Star_Dots_2.jpg,Green_Plus_Grid_2.jpg,Purple_Circle_Chess_4.jpg,left,991.2699999986216,false,low,false
r4IhhXbz,3icohx7eofotocxdgkfntnxt5xb0e8,33m4ia01qkeshq6nw4twqsff73orxx,r4IhhXbz,2020-0188,2020-11-18,21:11:07,21:29:03,NA,incomplete,37,color,0,right,Purple_Circle_Dots_2.jpg,Red_Triangle_Chess_2.jpg,Purple_Plus_Stripes_4.jpg,right,779.5400000177324,true,low,false
r4IhhXbz,3icohx7eofotocxdgkfntnxt5xb0e8,33m4ia01qkeshq6nw4twqsff73orxx,r4IhhXbz,2020-0188,2020-11-18,21:11:07,21:29:03,NA,incomplete,38,color,0,left,Purple_Plus_Chess_1.jpg,Purple_Star_Stripes_3.jpg,Green_Circle_Grid_1.jpg,right,1150.2700000419281,false,low,false
r4IhhXbz,3icohx7eofotocxdgkfntnxt5xb0e8,33m4ia01qkeshq6nw4twqsff73orxx,r4IhhXbz,2020-0188,2020-11-18,21:11:07,21:29:03,NA,incomplete,39,color,1,right,Green_Circle_Chess_4.jpg,Blue_Triangle_Dots_4.jpg,Green_Plus_Stripes_1.jpg,left,686.5899999975227,false,low,false
r4IhhXbz,3icohx7eofotocxdgkfntnxt5xb0e8,33m4ia01qkeshq6nw4twqsff73orxx,r4IhhXbz,2020-0188,2020-11-18,21:11:07,21:29:03,NA,incomplete,40,color,1,right,Red_Star_Grid_3.jpg,Purple_Triangle_Dots_3.jpg,Red_Circle_Stripes_1.jpg,left,1037.4949999968521,false,low,false
r4IhhXbz,3icohx7eofotocxdgkfntnxt5xb0e8,33m4ia01qkeshq6nw4twqsff73orxx,r4IhhXbz,2020-0188,2020-11-18,21:11:07,21:29:03,NA,incomplete,41,color,1,right,Purple_Circle_Dots_3.jpg,Blue_Triangle_Chess_3.jpg,Purple_Plus_Grid_2.jpg,right,943.7199999811128,true,low,false
r4IhhXbz,3icohx7eofotocxdgkfntnxt5xb0e8,33m4ia01qkeshq6nw4twqsff73orxx,r4IhhXbz,2020-0188,2020-11-18,21:11:07,21:29:03,NA,incomplete,42,color,1,left,Purple_Triangle_Dots_2.jpg,Purple_Plus_Grid_4.jpg,Green_Star_Chess_2.jpg,right,902.8550000512041,false,low,false
r4IhhXbz,3icohx7eofotocxdgkfntnxt5xb0e8,33m4ia01qkeshq6nw4twqsff73orxx,r4IhhXbz,2020-0188,2020-11-18,21:11:07,21:29:03,NA,incomplete,43,color,0,left,Blue_Triangle_Stripes_1.jpg,Blue_Circle_Chess_4.jpg,Green_Plus_Grid_1.jpg,right,1352.530000032857,false,low,false
r4IhhXbz,3icohx7eofotocxdgkfntnxt5xb0e8,33m4ia01qkeshq6nw4twqsff73orxx,r4IhhXbz,2020-0188,2020-11-18,21:11:07,21:29:03,NA,incomplete,44,color,1,left,Green_Triangle_Chess_3.jpg,Green_Circle_Dots_4.jpg,Purple_Star_Stripes_3.jpg,right,933.1450000172481,false,low,false
r4IhhXbz,3icohx7eofotocxdgkfntnxt5xb0e8,33m4ia01qkeshq6nw4twqsff73orxx,r4IhhXbz,2020-0188,2020-11-18,21:11:07,21:29:03,NA,incomplete,45,color,1,left,Red_Plus_Dots_3.jpg,Red_Triangle_Grid_4.jpg,Purple_Star_Chess_3.jpg,left,1399.875000002794,true,low,false
r4IhhXbz,3icohx7eofotocxdgkfntnxt5xb0e8,33m4ia01qkeshq6nw4twqsff73orxx,r4IhhXbz,2020-0188,2020-11-18,21:11:07,21:29:03,NA,incomplete,46,color,0,left,Red_Plus_Grid_4.jpg,Red_Circle_Dots_3.jpg,Purple_Star_Stripes_4.jpg,left,1076.7000000341795,true,low,false
r4IhhXbz,3icohx7eofotocxdgkfntnxt5xb0e8,33m4ia01qkeshq6nw4twqsff73orxx,r4IhhXbz,2020-0188,2020-11-18,21:11:07,21:29:03,NA,incomplete,47,color,1,right,Purple_Plus_Dots_2.jpg,Blue_Circle_Chess_2.jpg,Purple_Triangle_Stripes_4.jpg,left,1245.9650000091642,false,low,false
r4IhhXbz,3icohx7eofotocxdgkfntnxt5xb0e8,33m4ia01qkeshq6nw4twqsff73orxx,r4IhhXbz,2020-0188,2020-11-18,21:11:07,21:29:03,NA,incomplete,48,color,0,left,Red_Plus_Dots_4.jpg,Red_Circle_Stripes_3.jpg,Purple_Triangle_Grid_4.jpg,right,1225.8049999945797,false,low,false
r4IhhXbz,3icohx7eofotocxdgkfntnxt5xb0e8,33m4ia01qkeshq6nw4twqsff73orxx,r4IhhXbz,2020-0188,2020-11-18,21:11:07,21:29:03,NA,incomplete,49,color,1,right,Red_Triangle_Chess_1.jpg,Purple_Plus_Stripes_1.jpg,Red_Star_Grid_2.jpg,left,765.7999999937601,false,low,false
r4IhhXbz,3icohx7eofotocxdgkfntnxt5xb0e8,33m4ia01qkeshq6nw4twqsff73orxx,r4IhhXbz,2020-0188,2020-11-18,21:11:07,21:29:03,NA,incomplete,50,color,1,right,Red_Plus_Grid_1.jpg,Blue_Star_Stripes_1.jpg,Red_Circle_Chess_3.jpg,left,731.1249999911524,false,low,false
r4IhhXbz,3icohx7eofotocxdgkfntnxt5xb0e8,33m4ia01qkeshq6nw4twqsff73orxx,r4IhhXbz,2020-0188,2020-11-18,21:11:07,21:29:03,NA,incomplete,51,color,1,left,Green_Circle_Stripes_1.jpg,Green_Star_Dots_3.jpg,Blue_Plus_Chess_1.jpg,right,1008.0900000175461,false,low,false
r4IhhXbz,3icohx7eofotocxdgkfntnxt5xb0e8,33m4ia01qkeshq6nw4twqsff73orxx,r4IhhXbz,2020-0188,2020-11-18,21:11:07,21:29:03,NA,incomplete,52,color,1,right,Blue_Star_Dots_4.jpg,Green_Circle_Chess_4.jpg,Blue_Plus_Stripes_3.jpg,right,927.0900000119582,true,low,false
r4IhhXbz,3icohx7eofotocxdgkfntnxt5xb0e8,33m4ia01qkeshq6nw4twqsff73orxx,r4IhhXbz,2020-0188,2020-11-18,21:11:07,21:29:03,NA,incomplete,53,color,1,right,Purple_Triangle_Stripes_4.jpg,Red_Circle_Dots_4.jpg,Purple_Plus_Grid_2.jpg,right,1443.7949999701232,true,low,false
r4IhhXbz,3icohx7eofotocxdgkfntnxt5xb0e8,33m4ia01qkeshq6nw4twqsff73orxx,r4IhhXbz,2020-0188,2020-11-18,21:11:07,21:29:03,NA,incomplete,54,color,1,right,Purple_Circle_Dots_2.jpg,Green_Triangle_Chess_2.jpg,Purple_Star_Grid_1.jpg,right,954.2200000141747,true,low,false
r4IhhXbz,3icohx7eofotocxdgkfntnxt5xb0e8,33m4ia01qkeshq6nw4twqsff73orxx,r4IhhXbz,2020-0188,2020-11-18,21:11:07,21:29:03,NA,incomplete,55,color,1,left,Red_Plus_Dots_3.jpg,Red_Triangle_Chess_1.jpg,Purple_Circle_Stripes_3.jpg,left,654.9399999785237,true,low,false
r4IhhXbz,3icohx7eofotocxdgkfntnxt5xb0e8,33m4ia01qkeshq6nw4twqsff73orxx,r4IhhXbz,2020-0188,2020-11-18,21:11:07,21:29:03,NA,incomplete,56,color,1,right,Red_Circle_Grid_4.jpg,Purple_Star_Stripes_4.jpg,Red_Plus_Chess_1.jpg,right,882.8149999608286,true,low,false
r4IhhXbz,3icohx7eofotocxdgkfntnxt5xb0e8,33m4ia01qkeshq6nw4twqsff73orxx,r4IhhXbz,2020-0188,2020-11-18,21:11:07,21:29:03,NA,incomplete,57,color,1,left,Blue_Plus_Dots_3.jpg,Blue_Star_Stripes_2.jpg,Green_Circle_Chess_3.jpg,left,587.790000019595,true,low,false
r4IhhXbz,3icohx7eofotocxdgkfntnxt5xb0e8,33m4ia01qkeshq6nw4twqsff73orxx,r4IhhXbz,2020-0188,2020-11-18,21:11:07,21:29:03,NA,incomplete,58,color,1,left,Red_Plus_Grid_3.jpg,Red_Triangle_Stripes_4.jpg,Green_Circle_Chess_3.jpg,left,627.585000009276,true,low,false
r4IhhXbz,3icohx7eofotocxdgkfntnxt5xb0e8,33m4ia01qkeshq6nw4twqsff73orxx,r4IhhXbz,2020-0188,2020-11-18,21:11:07,21:29:03,NA,incomplete,59,color,1,left,Red_Plus_Grid_3.jpg,Red_Triangle_Chess_2.jpg,Blue_Star_Stripes_3.jpg,left,550.9699999820441,true,low,false
r4IhhXbz,3icohx7eofotocxdgkfntnxt5xb0e8,33m4ia01qkeshq6nw4twqsff73orxx,r4IhhXbz,2020-0188,2020-11-18,21:11:07,21:29:03,NA,incomplete,60,number,1,left,Green_Plus_Chess_2.jpg,Blue_Star_Dots_2.jpg,Green_Circle_Grid_3.jpg,right,560.1150000002235,false,low,false
r4IhhXbz,3icohx7eofotocxdgkfntnxt5xb0e8,33m4ia01qkeshq6nw4twqsff73orxx,r4IhhXbz,2020-0188,2020-11-18,21:11:07,21:29:03,NA,incomplete,61,number,1,right,Purple_Triangle_Stripes_4.jpg,Purple_Star_Chess_3.jpg,Blue_Circle_Grid_4.jpg,left,691.9050000142306,false,low,false
r4IhhXbz,3icohx7eofotocxdgkfntnxt5xb0e8,33m4ia01qkeshq6nw4twqsff73orxx,r4IhhXbz,2020-0188,2020-11-18,21:11:07,21:29:03,NA,incomplete,62,number,1,left,Blue_Triangle_Chess_4.jpg,Red_Plus_Grid_4.jpg,Blue_Circle_Stripes_3.jpg,left,932.8949999762699,true,low,false
r4IhhXbz,3icohx7eofotocxdgkfntnxt5xb0e8,33m4ia01qkeshq6nw4twqsff73orxx,r4IhhXbz,2020-0188,2020-11-18,21:11:07,21:29:03,NA,incomplete,63,number,1,left,Green_Star_Grid_3.jpg,Blue_Triangle_Chess_3.jpg,Green_Circle_Stripes_1.jpg,left,773.5199999879114,true,low,false
r4IhhXbz,3icohx7eofotocxdgkfntnxt5xb0e8,33m4ia01qkeshq6nw4twqsff73orxx,r4IhhXbz,2020-0188,2020-11-18,21:11:07,21:29:03,NA,incomplete,64,number,1,left,Green_Star_Chess_3.jpg,Red_Plus_Stripes_3.jpg,Green_Triangle_Dots_1.jpg,left,701.9450000370853,true,low,false
r4IhhXbz,3icohx7eofotocxdgkfntnxt5xb0e8,33m4ia01qkeshq6nw4twqsff73orxx,r4IhhXbz,2020-0188,2020-11-18,21:11:07,21:29:03,NA,incomplete,65,number,1,left,Red_Star_Stripes_1.jpg,Blue_Triangle_Dots_1.jpg,Red_Plus_Chess_2.jpg,right,915.6049999874085,false,low,false
r4IhhXbz,3icohx7eofotocxdgkfntnxt5xb0e8,33m4ia01qkeshq6nw4twqsff73orxx,r4IhhXbz,2020-0188,2020-11-18,21:11:07,21:29:03,NA,incomplete,66,number,1,left,Red_Circle_Dots_2.jpg,Purple_Triangle_Stripes_2.jpg,Red_Star_Grid_1.jpg,left,864.2649999819696,true,low,false
r4IhhXbz,3icohx7eofotocxdgkfntnxt5xb0e8,33m4ia01qkeshq6nw4twqsff73orxx,r4IhhXbz,2020-0188,2020-11-18,21:11:07,21:29:03,NA,incomplete,67,number,1,left,Purple_Circle_Grid_2.jpg,Blue_Star_Chess_2.jpg,Purple_Triangle_Stripes_4.jpg,left,772.0749999862164,true,low,false
r4IhhXbz,3icohx7eofotocxdgkfntnxt5xb0e8,33m4ia01qkeshq6nw4twqsff73orxx,r4IhhXbz,2020-0188,2020-11-18,21:11:07,21:29:03,NA,incomplete,68,number,1,left,Red_Circle_Grid_2.jpg,Green_Plus_Dots_2.jpg,Red_Triangle_Stripes_1.jpg,left,627.184999990277,true,low,false
r4IhhXbz,3icohx7eofotocxdgkfntnxt5xb0e8,33m4ia01qkeshq6nw4twqsff73orxx,r4IhhXbz,2020-0188,2020-11-18,21:11:07,21:29:03,NA,incomplete,69,number,1,right,Green_Triangle_Dots_3.jpg,Green_Circle_Stripes_4.jpg,Purple_Star_Grid_3.jpg,right,821.3749999995343,true,low,false
r4IhhXbz,3icohx7eofotocxdgkfntnxt5xb0e8,33m4ia01qkeshq6nw4twqsff73orxx,r4IhhXbz,2020-0188,2020-11-18,21:11:07,21:29:03,NA,incomplete,70,number,1,right,Blue_Circle_Dots_2.jpg,Blue_Triangle_Stripes_1.jpg,Purple_Plus_Grid_2.jpg,left,634.3450000276789,false,low,false
r4IhhXbz,3icohx7eofotocxdgkfntnxt5xb0e8,33m4ia01qkeshq6nw4twqsff73orxx,r4IhhXbz,2020-0188,2020-11-18,21:11:07,21:29:03,NA,incomplete,71,number,1,right,Red_Triangle_Chess_1.jpg,Red_Circle_Stripes_2.jpg,Green_Star_Grid_1.jpg,right,885.8049999689683,true,low,false
r4IhhXbz,3icohx7eofotocxdgkfntnxt5xb0e8,33m4ia01qkeshq6nw4twqsff73orxx,r4IhhXbz,2020-0188,2020-11-18,21:11:07,21:29:03,NA,incomplete,72,number,1,right,Purple_Plus_Stripes_4.jpg,Purple_Circle_Chess_1.jpg,Red_Star_Dots_4.jpg,right,812.0899999630637,true,low,false
r4IhhXbz,3icohx7eofotocxdgkfntnxt5xb0e8,33m4ia01qkeshq6nw4twqsff73orxx,r4IhhXbz,2020-0188,2020-11-18,21:11:07,21:29:03,NA,incomplete,73,number,1,left,Red_Circle_Dots_1.jpg,Green_Triangle_Stripes_1.jpg,Red_Plus_Grid_3.jpg,left,678.7499999627471,true,low,false
r4IhhXbz,3icohx7eofotocxdgkfntnxt5xb0e8,33m4ia01qkeshq6nw4twqsff73orxx,r4IhhXbz,2020-0188,2020-11-18,21:11:07,21:29:03,NA,incomplete,74,number,0,right,Purple_Plus_Dots_4.jpg,Purple_Star_Chess_3.jpg,Green_Circle_Grid_4.jpg,right,718.120000034105,true,low,false
r4IhhXbz,3icohx7eofotocxdgkfntnxt5xb0e8,33m4ia01qkeshq6nw4twqsff73orxx,r4IhhXbz,2020-0188,2020-11-18,21:11:07,21:29:03,NA,incomplete,75,number,1,right,Red_Circle_Grid_4.jpg,Red_Plus_Stripes_2.jpg,Green_Triangle_Chess_4.jpg,left,642.1550000086427,false,low,false
r4IhhXbz,3icohx7eofotocxdgkfntnxt5xb0e8,33m4ia01qkeshq6nw4twqsff73orxx,r4IhhXbz,2020-0188,2020-11-18,21:11:07,21:29:03,NA,incomplete,76,number,0,right,Blue_Circle_Chess_1.jpg,Blue_Star_Grid_3.jpg,Red_Plus_Dots_1.jpg,right,734.085000003688,true,low,false
r4IhhXbz,3icohx7eofotocxdgkfntnxt5xb0e8,33m4ia01qkeshq6nw4twqsff73orxx,r4IhhXbz,2020-0188,2020-11-18,21:11:07,21:29:03,NA,incomplete,77,number,1,left,Green_Triangle_Dots_2.jpg,Blue_Star_Grid_2.jpg,Green_Circle_Chess_3.jpg,left,751.7699999734759,true,low,false
r4IhhXbz,3icohx7eofotocxdgkfntnxt5xb0e8,33m4ia01qkeshq6nw4twqsff73orxx,r4IhhXbz,2020-0188,2020-11-18,21:11:07,21:29:03,NA,incomplete,78,number,1,left,Red_Star_Chess_4.jpg,Blue_Plus_Grid_4.jpg,Red_Triangle_Dots_2.jpg,left,822.8999999701045,true,low,false
r4IhhXbz,3icohx7eofotocxdgkfntnxt5xb0e8,33m4ia01qkeshq6nw4twqsff73orxx,r4IhhXbz,2020-0188,2020-11-18,21:11:07,21:29:03,NA,incomplete,79,number,1,right,Green_Circle_Stripes_2.jpg,Green_Star_Chess_1.jpg,Blue_Triangle_Dots_2.jpg,left,984.7449999651872,false,low,false
r4IhhXbz,3icohx7eofotocxdgkfntnxt5xb0e8,33m4ia01qkeshq6nw4twqsff73orxx,r4IhhXbz,2020-0188,2020-11-18,21:11:07,21:29:03,NA,incomplete,80,number,1,left,Purple_Plus_Chess_2.jpg,Green_Circle_Grid_2.jpg,Purple_Triangle_Stripes_4.jpg,right,599.2700000060722,false,low,false
r4IhhXbz,3icohx7eofotocxdgkfntnxt5xb0e8,33m4ia01qkeshq6nw4twqsff73orxx,r4IhhXbz,2020-0188,2020-11-18,21:11:07,21:29:03,NA,incomplete,81,number,1,right,Red_Triangle_Chess_1.jpg,Red_Plus_Grid_4.jpg,Green_Circle_Stripes_1.jpg,left,662.354999978561,false,low,false
r4IhhXbz,3icohx7eofotocxdgkfntnxt5xb0e8,33m4ia01qkeshq6nw4twqsff73orxx,r4IhhXbz,2020-0188,2020-11-18,21:11:07,21:29:03,NA,incomplete,82,number,1,right,Blue_Circle_Chess_2.jpg,Blue_Star_Grid_4.jpg,Red_Triangle_Stripes_2.jpg,right,893.5599999967963,true,low,false
r4IhhXbz,3icohx7eofotocxdgkfntnxt5xb0e8,33m4ia01qkeshq6nw4twqsff73orxx,r4IhhXbz,2020-0188,2020-11-18,21:11:07,21:29:03,NA,incomplete,83,number,1,left,Green_Triangle_Grid_1.jpg,Blue_Circle_Chess_1.jpg,Green_Star_Stripes_4.jpg,left,817.6150000072084,true,low,false
r4IhhXbz,3icohx7eofotocxdgkfntnxt5xb0e8,33m4ia01qkeshq6nw4twqsff73orxx,r4IhhXbz,2020-0188,2020-11-18,21:11:07,21:29:03,NA,incomplete,84,number,1,right,Purple_Star_Chess_1.jpg,Purple_Circle_Stripes_2.jpg,Blue_Triangle_Grid_1.jpg,right,1180.7700000354089,true,low,false
r4IhhXbz,3icohx7eofotocxdgkfntnxt5xb0e8,33m4ia01qkeshq6nw4twqsff73orxx,r4IhhXbz,2020-0188,2020-11-18,21:11:07,21:29:03,NA,incomplete,85,number,1,left,Green_Circle_Dots_1.jpg,Red_Plus_Stripes_1.jpg,Green_Triangle_Chess_2.jpg,left,887.445000000298,true,low,false
r4IhhXbz,3icohx7eofotocxdgkfntnxt5xb0e8,33m4ia01qkeshq6nw4twqsff73orxx,r4IhhXbz,2020-0188,2020-11-18,21:11:07,21:29:03,NA,incomplete,86,number,1,right,Purple_Triangle_Dots_1.jpg,Purple_Plus_Grid_3.jpg,Green_Star_Chess_1.jpg,right,876.6349999932572,true,low,false
r4IhhXbz,3icohx7eofotocxdgkfntnxt5xb0e8,33m4ia01qkeshq6nw4twqsff73orxx,r4IhhXbz,2020-0188,2020-11-18,21:11:07,21:29:03,NA,incomplete,87,number,1,left,Red_Plus_Grid_1.jpg,Blue_Circle_Chess_1.jpg,Red_Star_Dots_3.jpg,left,1023.795000044629,true,low,false
r4IhhXbz,3icohx7eofotocxdgkfntnxt5xb0e8,33m4ia01qkeshq6nw4twqsff73orxx,r4IhhXbz,2020-0188,2020-11-18,21:11:07,21:29:03,NA,incomplete,88,number,0,left,Purple_Plus_Dots_2.jpg,Blue_Star_Grid_2.jpg,Purple_Triangle_Chess_4.jpg,left,982.7299999888055,true,low,false
r4IhhXbz,3icohx7eofotocxdgkfntnxt5xb0e8,33m4ia01qkeshq6nw4twqsff73orxx,r4IhhXbz,2020-0188,2020-11-18,21:11:07,21:29:03,NA,incomplete,89,number,1,left,Green_Triangle_Dots_2.jpg,Purple_Plus_Chess_2.jpg,Green_Circle_Grid_1.jpg,right,711.9950000196695,false,low,false
r4IhhXbz,3icohx7eofotocxdgkfntnxt5xb0e8,33m4ia01qkeshq6nw4twqsff73orxx,r4IhhXbz,2020-0188,2020-11-18,21:11:07,21:29:03,NA,incomplete,90,color,1,left,Blue_Circle_Grid_4.jpg,Blue_Triangle_Chess_2.jpg,Red_Plus_Dots_4.jpg,right,970.0249999877997,false,low,false
r4IhhXbz,3icohx7eofotocxdgkfntnxt5xb0e8,33m4ia01qkeshq6nw4twqsff73orxx,r4IhhXbz,2020-0188,2020-11-18,21:11:07,21:29:03,NA,incomplete,91,color,1,left,Red_Triangle_Dots_1.jpg,Red_Plus_Stripes_4.jpg,Green_Circle_Chess_1.jpg,left,917.1300000161864,true,low,false
r4IhhXbz,3icohx7eofotocxdgkfntnxt5xb0e8,33m4ia01qkeshq6nw4twqsff73orxx,r4IhhXbz,2020-0188,2020-11-18,21:11:07,21:29:03,NA,incomplete,92,color,1,right,Green_Triangle_Grid_1.jpg,Purple_Star_Chess_1.jpg,Green_Plus_Dots_2.jpg,left,815.5050000059418,false,low,false
r4IhhXbz,3icohx7eofotocxdgkfntnxt5xb0e8,33m4ia01qkeshq6nw4twqsff73orxx,r4IhhXbz,2020-0188,2020-11-18,21:11:07,21:29:03,NA,incomplete,93,color,1,left,Blue_Circle_Stripes_3.jpg,Blue_Star_Chess_2.jpg,Green_Plus_Dots_3.jpg,left,1248.7400000100024,true,low,false
r4IhhXbz,3icohx7eofotocxdgkfntnxt5xb0e8,33m4ia01qkeshq6nw4twqsff73orxx,r4IhhXbz,2020-0188,2020-11-18,21:11:07,21:29:03,NA,incomplete,94,color,0,right,Purple_Plus_Chess_3.jpg,Blue_Triangle_Dots_3.jpg,Purple_Circle_Stripes_4.jpg,right,650.6749999825843,true,low,false
r4IhhXbz,3icohx7eofotocxdgkfntnxt5xb0e8,33m4ia01qkeshq6nw4twqsff73orxx,r4IhhXbz,2020-0188,2020-11-18,21:11:07,21:29:03,NA,incomplete,95,color,1,right,Green_Circle_Dots_4.jpg,Blue_Plus_Chess_4.jpg,Green_Triangle_Stripes_3.jpg,left,977.2999999695458,false,low,false
r4IhhXbz,3icohx7eofotocxdgkfntnxt5xb0e8,33m4ia01qkeshq6nw4twqsff73orxx,r4IhhXbz,2020-0188,2020-11-18,21:11:07,21:29:03,NA,incomplete,96,color,1,right,Purple_Circle_Grid_2.jpg,Blue_Triangle_Dots_2.jpg,Purple_Star_Chess_3.jpg,right,724.6300000115298,true,low,false
r4IhhXbz,3icohx7eofotocxdgkfntnxt5xb0e8,33m4ia01qkeshq6nw4twqsff73orxx,r4IhhXbz,2020-0188,2020-11-18,21:11:07,21:29:03,NA,incomplete,97,color,0,right,Red_Circle_Stripes_1.jpg,Blue_Triangle_Grid_1.jpg,Red_Plus_Chess_2.jpg,right,622.4849999998696,true,low,false
r4IhhXbz,3icohx7eofotocxdgkfntnxt5xb0e8,33m4ia01qkeshq6nw4twqsff73orxx,r4IhhXbz,2020-0188,2020-11-18,21:11:07,21:29:03,NA,incomplete,98,color,1,right,Red_Star_Stripes_3.jpg,Purple_Plus_Grid_3.jpg,Red_Circle_Dots_4.jpg,right,1173.3799999929033,true,low,false
r4IhhXbz,3icohx7eofotocxdgkfntnxt5xb0e8,33m4ia01qkeshq6nw4twqsff73orxx,r4IhhXbz,2020-0188,2020-11-18,21:11:07,21:29:03,NA,incomplete,99,color,0,left,Blue_Triangle_Dots_4.jpg,Blue_Circle_Grid_1.jpg,Red_Star_Stripes_4.jpg,left,709.3800000147894,true,low,false
r4IhhXbz,3icohx7eofotocxdgkfntnxt5xb0e8,33m4ia01qkeshq6nw4twqsff73orxx,r4IhhXbz,2020-0188,2020-11-18,21:11:07,21:29:03,NA,incomplete,100,color,1,left,Blue_Plus_Stripes_3.jpg,Blue_Star_Chess_4.jpg,Red_Triangle_Grid_3.jpg,right,1001.62499997532,false,low,false
r4IhhXbz,3icohx7eofotocxdgkfntnxt5xb0e8,33m4ia01qkeshq6nw4twqsff73orxx,r4IhhXbz,2020-0188,2020-11-18,21:11:07,21:29:03,NA,incomplete,101,color,1,right,Green_Circle_Chess_3.jpg,Red_Plus_Dots_3.jpg,Green_Triangle_Grid_2.jpg,right,718.9600000274368,true,low,false
r4IhhXbz,3icohx7eofotocxdgkfntnxt5xb0e8,33m4ia01qkeshq6nw4twqsff73orxx,r4IhhXbz,2020-0188,2020-11-18,21:11:07,21:29:03,NA,incomplete,102,color,0,right,Red_Triangle_Dots_4.jpg,Purple_Plus_Stripes_4.jpg,Red_Star_Chess_2.jpg,right,810.6949999928474,true,low,false
r4IhhXbz,3icohx7eofotocxdgkfntnxt5xb0e8,33m4ia01qkeshq6nw4twqsff73orxx,r4IhhXbz,2020-0188,2020-11-18,21:11:07,21:29:03,NA,incomplete,103,color,1,right,Blue_Plus_Grid_3.jpg,Purple_Triangle_Stripes_3.jpg,Blue_Star_Chess_4.jpg,left,1009.2949999962002,false,low,false
r4IhhXbz,3icohx7eofotocxdgkfntnxt5xb0e8,33m4ia01qkeshq6nw4twqsff73orxx,r4IhhXbz,2020-0188,2020-11-18,21:11:07,21:29:03,NA,incomplete,104,color,1,right,Blue_Circle_Stripes_4.jpg,Purple_Triangle_Chess_4.jpg,Blue_Plus_Grid_1.jpg,right,718.9900000230409,true,low,false
r4IhhXbz,3icohx7eofotocxdgkfntnxt5xb0e8,33m4ia01qkeshq6nw4twqsff73orxx,r4IhhXbz,2020-0188,2020-11-18,21:11:07,21:29:03,NA,incomplete,105,color,0,right,Red_Star_Grid_4.jpg,Blue_Triangle_Chess_4.jpg,Red_Circle_Stripes_2.jpg,right,910.4449999867938,true,low,false
r4IhhXbz,3icohx7eofotocxdgkfntnxt5xb0e8,33m4ia01qkeshq6nw4twqsff73orxx,r4IhhXbz,2020-0188,2020-11-18,21:11:07,21:29:03,NA,incomplete,106,color,1,right,Purple_Triangle_Stripes_3.jpg,Red_Plus_Grid_3.jpg,Purple_Circle_Chess_1.jpg,right,794.0749999834225,true,low,false
r4IhhXbz,3icohx7eofotocxdgkfntnxt5xb0e8,33m4ia01qkeshq6nw4twqsff73orxx,r4IhhXbz,2020-0188,2020-11-18,21:11:07,21:29:03,NA,incomplete,107,color,1,right,Blue_Star_Grid_1.jpg,Red_Circle_Stripes_1.jpg,Blue_Plus_Chess_4.jpg,right,621.5000000083819,true,low,false
r4IhhXbz,3icohx7eofotocxdgkfntnxt5xb0e8,33m4ia01qkeshq6nw4twqsff73orxx,r4IhhXbz,2020-0188,2020-11-18,21:11:07,21:29:03,NA,incomplete,108,color,1,left,Red_Circle_Grid_2.jpg,Red_Triangle_Dots_1.jpg,Purple_Plus_Stripes_2.jpg,left,1466.6850000503473,true,low,false
r4IhhXbz,3icohx7eofotocxdgkfntnxt5xb0e8,33m4ia01qkeshq6nw4twqsff73orxx,r4IhhXbz,2020-0188,2020-11-18,21:11:07,21:29:03,NA,incomplete,109,color,1,left,Purple_Circle_Grid_2.jpg,Purple_Triangle_Dots_3.jpg,Red_Star_Chess_2.jpg,left,597.574999963399,true,low,false
r4IhhXbz,3icohx7eofotocxdgkfntnxt5xb0e8,33m4ia01qkeshq6nw4twqsff73orxx,r4IhhXbz,2020-0188,2020-11-18,21:11:07,21:29:03,NA,incomplete,110,color,0,left,Purple_Plus_Chess_2.jpg,Purple_Star_Dots_3.jpg,Green_Triangle_Stripes_2.jpg,left,521.2299999548122,true,low,false
r4IhhXbz,3icohx7eofotocxdgkfntnxt5xb0e8,33m4ia01qkeshq6nw4twqsff73orxx,r4IhhXbz,2020-0188,2020-11-18,21:11:07,21:29:03,NA,incomplete,111,color,1,right,Red_Circle_Dots_1.jpg,Purple_Plus_Grid_1.jpg,Red_Triangle_Stripes_4.jpg,right,921.0899999598041,true,low,false
r4IhhXbz,3icohx7eofotocxdgkfntnxt5xb0e8,33m4ia01qkeshq6nw4twqsff73orxx,r4IhhXbz,2020-0188,2020-11-18,21:11:07,21:29:03,NA,incomplete,112,color,1,left,Blue_Star_Dots_2.jpg,Blue_Triangle_Chess_4.jpg,Red_Circle_Grid_2.jpg,left,589.7450000047684,true,low,false
r4IhhXbz,3icohx7eofotocxdgkfntnxt5xb0e8,33m4ia01qkeshq6nw4twqsff73orxx,r4IhhXbz,2020-0188,2020-11-18,21:11:07,21:29:03,NA,incomplete,113,color,0,right,Blue_Star_Chess_1.jpg,Red_Triangle_Grid_1.jpg,Blue_Plus_Stripes_2.jpg,right,580.1650000503287,true,low,false
r4IhhXbz,3icohx7eofotocxdgkfntnxt5xb0e8,33m4ia01qkeshq6nw4twqsff73orxx,r4IhhXbz,2020-0188,2020-11-18,21:11:07,21:29:03,NA,incomplete,114,color,0,right,Blue_Plus_Chess_4.jpg,Red_Triangle_Stripes_4.jpg,Blue_Circle_Grid_3.jpg,right,520.1450000167824,true,low,false
r4IhhXbz,3icohx7eofotocxdgkfntnxt5xb0e8,33m4ia01qkeshq6nw4twqsff73orxx,r4IhhXbz,2020-0188,2020-11-18,21:11:07,21:29:03,NA,incomplete,115,color,1,right,Green_Triangle_Stripes_1.jpg,Blue_Plus_Chess_1.jpg,Green_Circle_Grid_3.jpg,left,1140.6450000358745,false,low,false
r4IhhXbz,3icohx7eofotocxdgkfntnxt5xb0e8,33m4ia01qkeshq6nw4twqsff73orxx,r4IhhXbz,2020-0188,2020-11-18,21:11:07,21:29:03,NA,incomplete,116,color,1,right,Blue_Plus_Stripes_4.jpg,Green_Star_Grid_4.jpg,Blue_Triangle_Chess_1.jpg,right,866.6850000154227,true,low,false
r4IhhXbz,3icohx7eofotocxdgkfntnxt5xb0e8,33m4ia01qkeshq6nw4twqsff73orxx,r4IhhXbz,2020-0188,2020-11-18,21:11:07,21:29:03,NA,incomplete,117,color,1,left,Blue_Triangle_Grid_1.jpg,Blue_Plus_Chess_4.jpg,Red_Circle_Dots_1.jpg,left,589.9000000208616,true,low,false
r4IhhXbz,3icohx7eofotocxdgkfntnxt5xb0e8,33m4ia01qkeshq6nw4twqsff73orxx,r4IhhXbz,2020-0188,2020-11-18,21:11:07,21:29:03,NA,incomplete,118,color,0,left,Red_Triangle_Dots_2.jpg,Red_Star_Grid_3.jpg,Blue_Plus_Chess_2.jpg,left,569.9150000000373,true,low,false
r4IhhXbz,3icohx7eofotocxdgkfntnxt5xb0e8,33m4ia01qkeshq6nw4twqsff73orxx,r4IhhXbz,2020-0188,2020-11-18,21:11:07,21:29:03,NA,incomplete,119,color,0,left,Purple_Circle_Chess_3.jpg,Purple_Star_Dots_1.jpg,Blue_Plus_Grid_3.jpg,left,640.6699999934062,true,low,false
r4IhhXbz,3icohx7eofotocxdgkfntnxt5xb0e8,33m4ia01qkeshq6nw4twqsff73orxx,r4IhhXbz,2020-0188,2020-11-18,21:11:07,21:29:03,NA,incomplete,120,filling,1,right,Red_Triangle_Grid_1.jpg,Purple_Triangle_Dots_4.jpg,Blue_Circle_Grid_3.jpg,right,1344.9099999852479,true,low,false
r4IhhXbz,3icohx7eofotocxdgkfntnxt5xb0e8,33m4ia01qkeshq6nw4twqsff73orxx,r4IhhXbz,2020-0188,2020-11-18,21:11:07,21:29:03,NA,incomplete,121,filling,0,left,Purple_Star_Chess_1.jpg,Green_Circle_Chess_4.jpg,Blue_Star_Grid_2.jpg,left,1466.580000007525,true,low,false
r4IhhXbz,3icohx7eofotocxdgkfntnxt5xb0e8,33m4ia01qkeshq6nw4twqsff73orxx,r4IhhXbz,2020-0188,2020-11-18,21:11:07,21:29:03,NA,incomplete,122,filling,1,right,Green_Star_Stripes_1.jpg,Red_Star_Dots_3.jpg,Purple_Triangle_Stripes_2.jpg,right,1148.9850000361912,true,low,false
r4IhhXbz,3icohx7eofotocxdgkfntnxt5xb0e8,33m4ia01qkeshq6nw4twqsff73orxx,r4IhhXbz,2020-0188,2020-11-18,21:11:07,21:29:03,NA,incomplete,123,filling,1,right,Purple_Star_Stripes_3.jpg,Red_Star_Chess_4.jpg,Blue_Plus_Stripes_1.jpg,right,1411.6099999519065,true,low,false
r4IhhXbz,3icohx7eofotocxdgkfntnxt5xb0e8,33m4ia01qkeshq6nw4twqsff73orxx,r4IhhXbz,2020-0188,2020-11-18,21:11:07,21:29:03,NA,incomplete,124,filling,0,left,Green_Circle_Grid_4.jpg,Purple_Star_Grid_1.jpg,Red_Circle_Stripes_3.jpg,left,1366.3149999920279,true,low,false
r4IhhXbz,3icohx7eofotocxdgkfntnxt5xb0e8,33m4ia01qkeshq6nw4twqsff73orxx,r4IhhXbz,2020-0188,2020-11-18,21:11:07,21:29:03,NA,incomplete,125,filling,1,left,Purple_Triangle_Dots_2.jpg,Blue_Plus_Dots_1.jpg,Green_Triangle_Grid_4.jpg,left,1596.4050000184216,true,low,false
r4IhhXbz,3icohx7eofotocxdgkfntnxt5xb0e8,33m4ia01qkeshq6nw4twqsff73orxx,r4IhhXbz,2020-0188,2020-11-18,21:11:07,21:29:03,NA,incomplete,126,filling,1,left,Blue_Plus_Grid_2.jpg,Red_Star_Grid_4.jpg,Purple_Plus_Stripes_3.jpg,left,1131.340000021737,true,low,false
r4IhhXbz,3icohx7eofotocxdgkfntnxt5xb0e8,33m4ia01qkeshq6nw4twqsff73orxx,r4IhhXbz,2020-0188,2020-11-18,21:11:07,21:29:03,NA,incomplete,127,filling,1,right,Green_Circle_Chess_2.jpg,Red_Circle_Dots_4.jpg,Purple_Triangle_Chess_1.jpg,right,1126.6900000046007,true,low,false
r4IhhXbz,3icohx7eofotocxdgkfntnxt5xb0e8,33m4ia01qkeshq6nw4twqsff73orxx,r4IhhXbz,2020-0188,2020-11-18,21:11:07,21:29:03,NA,incomplete,128,filling,1,right,Green_Star_Chess_1.jpg,Purple_Star_Stripes_4.jpg,Blue_Triangle_Chess_2.jpg,right,1108.6750000249594,true,low,false
r4IhhXbz,3icohx7eofotocxdgkfntnxt5xb0e8,33m4ia01qkeshq6nw4twqsff73orxx,r4IhhXbz,2020-0188,2020-11-18,21:11:07,21:29:03,NA,incomplete,129,filling,1,left,Purple_Plus_Chess_4.jpg,Green_Circle_Chess_2.jpg,Red_Plus_Stripes_3.jpg,left,1173.274999950081,true,low,false
r4IhhXbz,3icohx7eofotocxdgkfntnxt5xb0e8,33m4ia01qkeshq6nw4twqsff73orxx,r4IhhXbz,2020-0188,2020-11-18,21:11:07,21:29:03,NA,incomplete,130,filling,1,right,Green_Star_Grid_4.jpg,Blue_Star_Stripes_1.jpg,Purple_Plus_Grid_2.jpg,right,1057.4299999861978,true,low,false
r4IhhXbz,3icohx7eofotocxdgkfntnxt5xb0e8,33m4ia01qkeshq6nw4twqsff73orxx,r4IhhXbz,2020-0188,2020-11-18,21:11:07,21:29:03,NA,incomplete,131,filling,1,right,Green_Star_Stripes_3.jpg,Purple_Star_Dots_1.jpg,Red_Plus_Stripes_4.jpg,right,1053.5800000070594,true,low,false
r4IhhXbz,3icohx7eofotocxdgkfntnxt5xb0e8,33m4ia01qkeshq6nw4twqsff73orxx,r4IhhXbz,2020-0188,2020-11-18,21:11:07,21:29:03,NA,incomplete,132,filling,1,left,Blue_Star_Dots_1.jpg,Red_Plus_Dots_4.jpg,Purple_Star_Chess_3.jpg,left,1076.6000000294298,true,low,false
r4IhhXbz,3icohx7eofotocxdgkfntnxt5xb0e8,33m4ia01qkeshq6nw4twqsff73orxx,r4IhhXbz,2020-0188,2020-11-18,21:11:07,21:29:03,NA,incomplete,133,filling,1,right,Purple_Star_Grid_3.jpg,Blue_Star_Dots_2.jpg,Green_Triangle_Grid_4.jpg,right,895.7800000207499,true,low,false
r4IhhXbz,3icohx7eofotocxdgkfntnxt5xb0e8,33m4ia01qkeshq6nw4twqsff73orxx,r4IhhXbz,2020-0188,2020-11-18,21:11:07,21:29:03,NA,incomplete,134,filling,1,right,Blue_Star_Chess_2.jpg,Green_Star_Dots_1.jpg,Red_Circle_Chess_3.jpg,right,1233.1000000122003,true,low,false
r4IhhXbz,3icohx7eofotocxdgkfntnxt5xb0e8,33m4ia01qkeshq6nw4twqsff73orxx,r4IhhXbz,2020-0188,2020-11-18,21:11:07,21:29:03,NA,incomplete,135,filling,0,left,Red_Star_Dots_1.jpg,Purple_Circle_Dots_3.jpg,Green_Star_Stripes_4.jpg,left,989.6000000298955,true,low,false
r4IhhXbz,3icohx7eofotocxdgkfntnxt5xb0e8,33m4ia01qkeshq6nw4twqsff73orxx,r4IhhXbz,2020-0188,2020-11-18,21:11:07,21:29:03,NA,incomplete,136,filling,1,left,Red_Star_Dots_3.jpg,Purple_Circle_Dots_4.jpg,Green_Star_Chess_1.jpg,right,781.6149999853224,false,low,false
r4IhhXbz,3icohx7eofotocxdgkfntnxt5xb0e8,33m4ia01qkeshq6nw4twqsff73orxx,r4IhhXbz,2020-0188,2020-11-18,21:11:07,21:29:03,NA,incomplete,137,filling,1,right,Purple_Circle_Chess_3.jpg,Green_Circle_Dots_1.jpg,Red_Triangle_Chess_2.jpg,right,1060.1749999914318,true,low,false
r4IhhXbz,3icohx7eofotocxdgkfntnxt5xb0e8,33m4ia01qkeshq6nw4twqsff73orxx,r4IhhXbz,2020-0188,2020-11-18,21:11:07,21:29:03,NA,incomplete,138,filling,1,right,Red_Plus_Dots_4.jpg,Purple_Plus_Chess_3.jpg,Green_Circle_Dots_1.jpg,right,1218.1199999758974,true,low,false
r4IhhXbz,3icohx7eofotocxdgkfntnxt5xb0e8,33m4ia01qkeshq6nw4twqsff73orxx,r4IhhXbz,2020-0188,2020-11-18,21:11:07,21:29:03,NA,incomplete,139,filling,1,right,Blue_Triangle_Dots_3.jpg,Green_Triangle_Grid_4.jpg,Purple_Circle_Dots_1.jpg,right,949.8949999688193,true,low,false
r4IhhXbz,3icohx7eofotocxdgkfntnxt5xb0e8,33m4ia01qkeshq6nw4twqsff73orxx,r4IhhXbz,2020-0188,2020-11-18,21:11:07,21:29:03,NA,incomplete,140,shape,1,left,Green_Circle_Grid_4.jpg,Blue_Circle_Chess_1.jpg,Red_Star_Grid_3.jpg,left,943.3450000360608,true,low,false
r4IhhXbz,3icohx7eofotocxdgkfntnxt5xb0e8,33m4ia01qkeshq6nw4twqsff73orxx,r4IhhXbz,2020-0188,2020-11-18,21:11:07,21:29:03,NA,incomplete,141,shape,1,right,Green_Star_Stripes_4.jpg,Blue_Plus_Stripes_2.jpg,Purple_Star_Grid_3.jpg,right,829.459999979008,true,low,false
r4IhhXbz,3icohx7eofotocxdgkfntnxt5xb0e8,33m4ia01qkeshq6nw4twqsff73orxx,r4IhhXbz,2020-0188,2020-11-18,21:11:07,21:29:03,NA,incomplete,142,shape,1,left,Blue_Circle_Grid_3.jpg,Purple_Circle_Chess_1.jpg,Red_Triangle_Grid_4.jpg,left,1105.1950000110082,true,low,false
r4IhhXbz,3icohx7eofotocxdgkfntnxt5xb0e8,33m4ia01qkeshq6nw4twqsff73orxx,r4IhhXbz,2020-0188,2020-11-18,21:11:07,21:29:03,NA,incomplete,143,shape,1,right,Red_Triangle_Dots_2.jpg,Blue_Circle_Dots_1.jpg,Purple_Triangle_Stripes_4.jpg,right,782.5900000170805,true,low,false
r4IhhXbz,3icohx7eofotocxdgkfntnxt5xb0e8,33m4ia01qkeshq6nw4twqsff73orxx,r4IhhXbz,2020-0188,2020-11-18,21:11:07,21:29:03,NA,incomplete,144,shape,0,right,Green_Plus_Dots_1.jpg,Blue_Star_Dots_3.jpg,Purple_Plus_Stripes_2.jpg,right,885.8250000048429,true,low,false
r4IhhXbz,3icohx7eofotocxdgkfntnxt5xb0e8,33m4ia01qkeshq6nw4twqsff73orxx,r4IhhXbz,2020-0188,2020-11-18,21:11:07,21:29:03,NA,incomplete,145,shape,1,right,Red_Plus_Chess_3.jpg,Purple_Circle_Chess_4.jpg,Green_Plus_Dots_1.jpg,right,829.7299999976531,true,low,false
r4IhhXbz,3icohx7eofotocxdgkfntnxt5xb0e8,33m4ia01qkeshq6nw4twqsff73orxx,r4IhhXbz,2020-0188,2020-11-18,21:11:07,21:29:03,NA,incomplete,146,shape,1,right,Red_Circle_Stripes_1.jpg,Purple_Plus_Stripes_3.jpg,Green_Circle_Chess_2.jpg,right,859.9800000083633,true,low,false
r4IhhXbz,3icohx7eofotocxdgkfntnxt5xb0e8,33m4ia01qkeshq6nw4twqsff73orxx,r4IhhXbz,2020-0188,2020-11-18,21:11:07,21:29:03,NA,incomplete,147,shape,1,left,Purple_Plus_Dots_2.jpg,Red_Plus_Stripes_1.jpg,Green_Circle_Dots_3.jpg,left,1176.9600000116043,true,low,false
r4IhhXbz,3icohx7eofotocxdgkfntnxt5xb0e8,33m4ia01qkeshq6nw4twqsff73orxx,r4IhhXbz,2020-0188,2020-11-18,21:11:07,21:29:03,NA,incomplete,148,shape,0,right,Blue_Plus_Grid_3.jpg,Purple_Star_Grid_1.jpg,Green_Plus_Stripes_2.jpg,right,772.5299999583513,true,low,false
r4IhhXbz,3icohx7eofotocxdgkfntnxt5xb0e8,33m4ia01qkeshq6nw4twqsff73orxx,r4IhhXbz,2020-0188,2020-11-18,21:11:07,21:29:03,NA,incomplete,149,shape,1,right,Green_Triangle_Dots_2.jpg,Red_Star_Dots_1.jpg,Purple_Triangle_Chess_3.jpg,right,804.6099999919534,true,low,false
r4IhhXbz,3icohx7eofotocxdgkfntnxt5xb0e8,33m4ia01qkeshq6nw4twqsff73orxx,r4IhhXbz,2020-0188,2020-11-18,21:11:07,21:29:03,NA,incomplete,150,shape,1,left,Purple_Circle_Dots_3.jpg,Blue_Circle_Grid_1.jpg,Red_Star_Dots_2.jpg,left,717.1499999822117,true,low,false
r4IhhXbz,3icohx7eofotocxdgkfntnxt5xb0e8,33m4ia01qkeshq6nw4twqsff73orxx,r4IhhXbz,2020-0188,2020-11-18,21:11:07,21:29:03,NA,incomplete,151,shape,1,right,Red_Triangle_Grid_2.jpg,Green_Star_Grid_3.jpg,Blue_Triangle_Dots_4.jpg,right,633.1200000131503,true,low,false
r4IhhXbz,3icohx7eofotocxdgkfntnxt5xb0e8,33m4ia01qkeshq6nw4twqsff73orxx,r4IhhXbz,2020-0188,2020-11-18,21:11:07,21:29:03,NA,incomplete,152,shape,1,right,Purple_Plus_Dots_3.jpg,Red_Star_Dots_1.jpg,Green_Plus_Chess_4.jpg,right,737.410000001546,true,low,false
r4IhhXbz,3icohx7eofotocxdgkfntnxt5xb0e8,33m4ia01qkeshq6nw4twqsff73orxx,r4IhhXbz,2020-0188,2020-11-18,21:11:07,21:29:03,NA,incomplete,153,shape,1,left,Blue_Star_Grid_3.jpg,Green_Star_Chess_1.jpg,Red_Triangle_Grid_2.jpg,left,748.8049999810755,true,low,false
r4IhhXbz,3icohx7eofotocxdgkfntnxt5xb0e8,33m4ia01qkeshq6nw4twqsff73orxx,r4IhhXbz,2020-0188,2020-11-18,21:11:07,21:29:03,NA,incomplete,154,shape,1,right,Red_Plus_Stripes_2.jpg,Blue_Star_Stripes_1.jpg,Green_Plus_Chess_3.jpg,right,719.3250000127591,true,low,false
r4IhhXbz,3icohx7eofotocxdgkfntnxt5xb0e8,33m4ia01qkeshq6nw4twqsff73orxx,r4IhhXbz,2020-0188,2020-11-18,21:11:07,21:29:03,NA,incomplete,155,shape,0,left,Green_Plus_Grid_4.jpg,Red_Plus_Chess_1.jpg,Blue_Circle_Grid_3.jpg,left,685.9050000202842,true,low,false
r4IhhXbz,3icohx7eofotocxdgkfntnxt5xb0e8,33m4ia01qkeshq6nw4twqsff73orxx,r4IhhXbz,2020-0188,2020-11-18,21:11:07,21:29:03,NA,incomplete,156,shape,1,left,Green_Circle_Grid_4.jpg,Blue_Circle_Chess_3.jpg,Red_Plus_Grid_2.jpg,left,628.9850000175647,true,low,false
r4IhhXbz,3icohx7eofotocxdgkfntnxt5xb0e8,33m4ia01qkeshq6nw4twqsff73orxx,r4IhhXbz,2020-0188,2020-11-18,21:11:07,21:29:03,NA,incomplete,157,shape,1,left,Purple_Star_Stripes_3.jpg,Red_Star_Dots_1.jpg,Green_Triangle_Stripes_4.jpg,left,641.5150000248104,true,low,false
r4IhhXbz,3icohx7eofotocxdgkfntnxt5xb0e8,33m4ia01qkeshq6nw4twqsff73orxx,r4IhhXbz,2020-0188,2020-11-18,21:11:07,21:29:03,NA,incomplete,158,shape,1,right,Green_Star_Stripes_3.jpg,Purple_Triangle_Stripes_4.jpg,Red_Star_Grid_2.jpg,right,701.5750000136904,true,low,false
r4IhhXbz,3icohx7eofotocxdgkfntnxt5xb0e8,33m4ia01qkeshq6nw4twqsff73orxx,r4IhhXbz,2020-0188,2020-11-18,21:11:07,21:29:03,NA,incomplete,159,shape,1,left,Blue_Triangle_Dots_2.jpg,Green_Triangle_Chess_3.jpg,Purple_Plus_Dots_4.jpg,left,582.6099999831058,true,low,false
r4IhhXbz,3icohx7eofotocxdgkfntnxt5xb0e8,33m4ia01qkeshq6nw4twqsff73orxx,r4IhhXbz,2020-0188,2020-11-18,21:11:07,21:29:03,NA,incomplete,160,filling,1,right,Red_Star_Dots_4.jpg,Purple_Star_Chess_3.jpg,Green_Circle_Dots_1.jpg,left,574.8949999688193,false,low,false
r4IhhXbz,3icohx7eofotocxdgkfntnxt5xb0e8,33m4ia01qkeshq6nw4twqsff73orxx,r4IhhXbz,2020-0188,2020-11-18,21:11:07,21:29:03,NA,incomplete,161,filling,1,left,Green_Plus_Dots_4.jpg,Purple_Circle_Dots_2.jpg,Blue_Plus_Grid_3.jpg,right,556.4000000013039,false,low,false
r4IhhXbz,3icohx7eofotocxdgkfntnxt5xb0e8,33m4ia01qkeshq6nw4twqsff73orxx,r4IhhXbz,2020-0188,2020-11-18,21:11:07,21:29:03,NA,incomplete,162,filling,1,right,Red_Star_Stripes_2.jpg,Blue_Star_Grid_3.jpg,Green_Triangle_Stripes_1.jpg,right,1606.2849999871105,true,low,false
r4IhhXbz,3icohx7eofotocxdgkfntnxt5xb0e8,33m4ia01qkeshq6nw4twqsff73orxx,r4IhhXbz,2020-0188,2020-11-18,21:11:07,21:29:03,NA,incomplete,163,filling,1,left,Blue_Triangle_Dots_4.jpg,Red_Star_Dots_2.jpg,Purple_Triangle_Chess_3.jpg,left,868.9400000148453,true,low,false
r4IhhXbz,3icohx7eofotocxdgkfntnxt5xb0e8,33m4ia01qkeshq6nw4twqsff73orxx,r4IhhXbz,2020-0188,2020-11-18,21:11:07,21:29:03,NA,incomplete,164,filling,0,right,Green_Star_Stripes_2.jpg,Purple_Star_Dots_4.jpg,Blue_Plus_Stripes_3.jpg,right,916.4450000389479,true,low,false
r4IhhXbz,3icohx7eofotocxdgkfntnxt5xb0e8,33m4ia01qkeshq6nw4twqsff73orxx,r4IhhXbz,2020-0188,2020-11-18,21:11:07,21:29:03,NA,incomplete,165,filling,1,left,Blue_Plus_Chess_1.jpg,Red_Circle_Chess_3.jpg,Purple_Plus_Grid_2.jpg,left,1054.6099999919534,true,low,false
r4IhhXbz,3icohx7eofotocxdgkfntnxt5xb0e8,33m4ia01qkeshq6nw4twqsff73orxx,r4IhhXbz,2020-0188,2020-11-18,21:11:07,21:29:03,NA,incomplete,166,filling,1,right,Red_Star_Chess_4.jpg,Purple_Star_Grid_2.jpg,Green_Triangle_Chess_3.jpg,right,981.2399999937043,true,low,false
r4IhhXbz,3icohx7eofotocxdgkfntnxt5xb0e8,33m4ia01qkeshq6nw4twqsff73orxx,r4IhhXbz,2020-0188,2020-11-18,21:11:07,21:29:03,NA,incomplete,167,filling,1,left,Blue_Triangle_Stripes_3.jpg,Red_Plus_Stripes_2.jpg,Purple_Triangle_Grid_1.jpg,left,879.5850000460632,true,low,false
r4IhhXbz,3icohx7eofotocxdgkfntnxt5xb0e8,33m4ia01qkeshq6nw4twqsff73orxx,r4IhhXbz,2020-0188,2020-11-18,21:11:07,21:29:03,NA,incomplete,168,filling,0,right,Green_Triangle_Dots_3.jpg,Purple_Triangle_Stripes_4.jpg,Blue_Star_Dots_1.jpg,right,858.7299999780953,true,low,false
r4IhhXbz,3icohx7eofotocxdgkfntnxt5xb0e8,33m4ia01qkeshq6nw4twqsff73orxx,r4IhhXbz,2020-0188,2020-11-18,21:11:07,21:29:03,NA,incomplete,169,filling,1,left,Red_Circle_Grid_2.jpg,Blue_Plus_Grid_4.jpg,Green_Circle_Dots_3.jpg,left,780.945000005886,true,low,false
r4IhhXbz,3icohx7eofotocxdgkfntnxt5xb0e8,33m4ia01qkeshq6nw4twqsff73orxx,r4IhhXbz,2020-0188,2020-11-18,21:11:07,21:29:03,NA,incomplete,170,filling,1,right,Purple_Plus_Dots_2.jpg,Green_Plus_Stripes_4.jpg,Red_Triangle_Dots_1.jpg,right,764.2500000074506,true,low,false
r4IhhXbz,3icohx7eofotocxdgkfntnxt5xb0e8,33m4ia01qkeshq6nw4twqsff73orxx,r4IhhXbz,2020-0188,2020-11-18,21:11:07,21:29:03,NA,incomplete,171,filling,1,right,Green_Plus_Stripes_1.jpg,Blue_Plus_Dots_2.jpg,Purple_Star_Stripes_4.jpg,right,904.8499999917112,true,low,false
r4IhhXbz,3icohx7eofotocxdgkfntnxt5xb0e8,33m4ia01qkeshq6nw4twqsff73orxx,r4IhhXbz,2020-0188,2020-11-18,21:11:07,21:29:03,NA,incomplete,172,filling,1,right,Red_Star_Stripes_3.jpg,Purple_Star_Dots_4.jpg,Green_Triangle_Stripes_2.jpg,right,767.5299999536946,true,low,false
r4IhhXbz,3icohx7eofotocxdgkfntnxt5xb0e8,33m4ia01qkeshq6nw4twqsff73orxx,r4IhhXbz,2020-0188,2020-11-18,21:11:07,21:29:03,NA,incomplete,173,filling,0,left,Red_Star_Chess_3.jpg,Blue_Plus_Chess_4.jpg,Green_Star_Dots_1.jpg,left,826.535000000149,true,low,false
r4IhhXbz,3icohx7eofotocxdgkfntnxt5xb0e8,33m4ia01qkeshq6nw4twqsff73orxx,r4IhhXbz,2020-0188,2020-11-18,21:11:07,21:29:03,NA,incomplete,174,filling,1,right,Green_Circle_Stripes_2.jpg,Red_Circle_Dots_4.jpg,Blue_Plus_Stripes_1.jpg,right,1139.5749999792315,true,low,false
r4IhhXbz,3icohx7eofotocxdgkfntnxt5xb0e8,33m4ia01qkeshq6nw4twqsff73orxx,r4IhhXbz,2020-0188,2020-11-18,21:11:07,21:29:03,NA,incomplete,175,filling,1,right,Purple_Triangle_Dots_4.jpg,Green_Triangle_Grid_3.jpg,Blue_Circle_Dots_1.jpg,right,840.970000019297,true,low,false
r4IhhXbz,3icohx7eofotocxdgkfntnxt5xb0e8,33m4ia01qkeshq6nw4twqsff73orxx,r4IhhXbz,2020-0188,2020-11-18,21:11:07,21:29:03,NA,incomplete,176,filling,0,left,Green_Plus_Chess_4.jpg,Purple_Circle_Chess_3.jpg,Blue_Plus_Stripes_2.jpg,left,806.8900000071153,true,low,false
r4IhhXbz,3icohx7eofotocxdgkfntnxt5xb0e8,33m4ia01qkeshq6nw4twqsff73orxx,r4IhhXbz,2020-0188,2020-11-18,21:11:07,21:29:03,NA,incomplete,177,filling,1,left,Blue_Triangle_Dots_1.jpg,Purple_Circle_Dots_3.jpg,Green_Triangle_Stripes_2.jpg,right,666.6349999723025,false,low,false
r4IhhXbz,3icohx7eofotocxdgkfntnxt5xb0e8,33m4ia01qkeshq6nw4twqsff73orxx,r4IhhXbz,2020-0188,2020-11-18,21:11:07,21:29:03,NA,incomplete,178,filling,0,left,Purple_Circle_Chess_4.jpg,Green_Star_Chess_3.jpg,Blue_Circle_Grid_1.jpg,right,848.3600000035949,false,low,false
r4IhhXbz,3icohx7eofotocxdgkfntnxt5xb0e8,33m4ia01qkeshq6nw4twqsff73orxx,r4IhhXbz,2020-0188,2020-11-18,21:11:07,21:29:03,NA,incomplete,179,filling,1,left,Purple_Star_Dots_3.jpg,Blue_Circle_Dots_2.jpg,Green_Star_Grid_4.jpg,right,877.9849999700673,false,low,false
r4IhhXbz,3icohx7eofotocxdgkfntnxt5xb0e8,33m4ia01qkeshq6nw4twqsff73orxx,r4IhhXbz,2020-0188,2020-11-18,21:11:07,21:29:03,NA,incomplete,180,shape,0,left,Green_Triangle_Grid_4.jpg,Blue_Triangle_Chess_3.jpg,Red_Star_Grid_1.jpg,left,647.919999959413,true,low,false
r4IhhXbz,3icohx7eofotocxdgkfntnxt5xb0e8,33m4ia01qkeshq6nw4twqsff73orxx,r4IhhXbz,2020-0188,2020-11-18,21:11:07,21:29:03,NA,incomplete,181,shape,1,right,Blue_Circle_Chess_1.jpg,Green_Triangle_Chess_3.jpg,Purple_Circle_Stripes_4.jpg,left,1029.1549999965355,false,low,false
r4IhhXbz,3icohx7eofotocxdgkfntnxt5xb0e8,33m4ia01qkeshq6nw4twqsff73orxx,r4IhhXbz,2020-0188,2020-11-18,21:11:07,21:29:03,NA,incomplete,182,shape,1,left,Green_Star_Stripes_1.jpg,Red_Star_Grid_2.jpg,Blue_Triangle_Stripes_3.jpg,right,1256.4450000063516,false,low,false
r4IhhXbz,3icohx7eofotocxdgkfntnxt5xb0e8,33m4ia01qkeshq6nw4twqsff73orxx,r4IhhXbz,2020-0188,2020-11-18,21:11:07,21:29:03,NA,incomplete,183,shape,1,left,Purple_Star_Dots_2.jpg,Green_Star_Chess_3.jpg,Red_Circle_Dots_4.jpg,left,760.3900000103749,true,low,false
r4IhhXbz,3icohx7eofotocxdgkfntnxt5xb0e8,33m4ia01qkeshq6nw4twqsff73orxx,r4IhhXbz,2020-0188,2020-11-18,21:11:07,21:29:03,NA,incomplete,184,shape,0,left,Blue_Triangle_Stripes_4.jpg,Red_Triangle_Chess_1.jpg,Green_Star_Stripes_3.jpg,left,706.8900000303984,true,low,false
r4IhhXbz,3icohx7eofotocxdgkfntnxt5xb0e8,33m4ia01qkeshq6nw4twqsff73orxx,r4IhhXbz,2020-0188,2020-11-18,21:11:07,21:29:03,NA,incomplete,185,shape,1,left,Purple_Star_Chess_1.jpg,Blue_Star_Grid_3.jpg,Red_Plus_Chess_2.jpg,left,634.6899999771267,true,low,false
r4IhhXbz,3icohx7eofotocxdgkfntnxt5xb0e8,33m4ia01qkeshq6nw4twqsff73orxx,r4IhhXbz,2020-0188,2020-11-18,21:11:07,21:29:03,NA,incomplete,186,shape,0,left,Purple_Circle_Dots_1.jpg,Green_Circle_Stripes_3.jpg,Red_Plus_Dots_4.jpg,left,678.3300000242889,true,low,false
r4IhhXbz,3icohx7eofotocxdgkfntnxt5xb0e8,33m4ia01qkeshq6nw4twqsff73orxx,r4IhhXbz,2020-0188,2020-11-18,21:11:07,21:29:03,NA,incomplete,187,shape,1,left,Purple_Star_Dots_4.jpg,Green_Star_Grid_3.jpg,Red_Circle_Dots_2.jpg,left,677.5999999954365,true,low,false
r4IhhXbz,3icohx7eofotocxdgkfntnxt5xb0e8,33m4ia01qkeshq6nw4twqsff73orxx,r4IhhXbz,2020-0188,2020-11-18,21:11:07,21:29:03,NA,incomplete,188,shape,1,right,Red_Circle_Stripes_4.jpg,Green_Star_Stripes_2.jpg,Purple_Circle_Dots_3.jpg,right,720.305000024382,true,low,false
r4IhhXbz,3icohx7eofotocxdgkfntnxt5xb0e8,33m4ia01qkeshq6nw4twqsff73orxx,r4IhhXbz,2020-0188,2020-11-18,21:11:07,21:29:03,NA,incomplete,189,shape,1,left,Blue_Triangle_Chess_2.jpg,Green_Triangle_Stripes_3.jpg,Purple_Plus_Chess_4.jpg,left,579.1299999691546,true,low,false
r4IhhXbz,3icohx7eofotocxdgkfntnxt5xb0e8,33m4ia01qkeshq6nw4twqsff73orxx,r4IhhXbz,2020-0188,2020-11-18,21:11:07,21:29:03,NA,incomplete,190,shape,1,left,Green_Plus_Dots_4.jpg,Blue_Plus_Grid_2.jpg,Red_Triangle_Dots_1.jpg,left,662.0700000203215,true,low,false
r4IhhXbz,3icohx7eofotocxdgkfntnxt5xb0e8,33m4ia01qkeshq6nw4twqsff73orxx,r4IhhXbz,2020-0188,2020-11-18,21:11:07,21:29:03,NA,incomplete,191,shape,1,left,Red_Plus_Dots_3.jpg,Green_Plus_Chess_1.jpg,Blue_Circle_Dots_4.jpg,left,580.0600000075065,true,low,false
r4IhhXbz,3icohx7eofotocxdgkfntnxt5xb0e8,33m4ia01qkeshq6nw4twqsff73orxx,r4IhhXbz,2020-0188,2020-11-18,21:11:07,21:29:03,NA,incomplete,192,shape,1,right,Red_Star_Grid_2.jpg,Purple_Triangle_Grid_3.jpg,Blue_Star_Dots_4.jpg,right,787.6699999906123,true,low,false
r4IhhXbz,3icohx7eofotocxdgkfntnxt5xb0e8,33m4ia01qkeshq6nw4twqsff73orxx,r4IhhXbz,2020-0188,2020-11-18,21:11:07,21:29:03,NA,incomplete,193,shape,1,left,Purple_Circle_Stripes_1.jpg,Blue_Circle_Chess_4.jpg,Red_Star_Stripes_2.jpg,left,603.8950000074692,true,low,false
r4IhhXbz,3icohx7eofotocxdgkfntnxt5xb0e8,33m4ia01qkeshq6nw4twqsff73orxx,r4IhhXbz,2020-0188,2020-11-18,21:11:07,21:29:03,NA,incomplete,194,shape,1,left,Green_Star_Grid_2.jpg,Purple_Star_Stripes_4.jpg,Blue_Triangle_Grid_1.jpg,left,634.3099999940023,true,low,false
r4IhhXbz,3icohx7eofotocxdgkfntnxt5xb0e8,33m4ia01qkeshq6nw4twqsff73orxx,r4IhhXbz,2020-0188,2020-11-18,21:11:07,21:29:03,NA,incomplete,195,shape,1,left,Red_Circle_Grid_1.jpg,Purple_Circle_Stripes_2.jpg,Blue_Plus_Grid_4.jpg,left,542.7499999641441,true,low,false
r4IhhXbz,3icohx7eofotocxdgkfntnxt5xb0e8,33m4ia01qkeshq6nw4twqsff73orxx,r4IhhXbz,2020-0188,2020-11-18,21:11:07,21:29:03,NA,incomplete,196,shape,0,left,Green_Plus_Dots_4.jpg,Blue_Plus_Stripes_3.jpg,Red_Triangle_Dots_1.jpg,left,626.4700000174344,true,low,false
r4IhhXbz,3icohx7eofotocxdgkfntnxt5xb0e8,33m4ia01qkeshq6nw4twqsff73orxx,r4IhhXbz,2020-0188,2020-11-18,21:11:07,21:29:03,NA,incomplete,197,shape,1,left,Green_Circle_Chess_4.jpg,Blue_Circle_Grid_1.jpg,Red_Plus_Chess_3.jpg,left,686.0650000162423,true,low,false
r4IhhXbz,3icohx7eofotocxdgkfntnxt5xb0e8,33m4ia01qkeshq6nw4twqsff73orxx,r4IhhXbz,2020-0188,2020-11-18,21:11:07,21:29:03,NA,incomplete,198,shape,1,right,Purple_Triangle_Dots_1.jpg,Green_Plus_Dots_3.jpg,Blue_Triangle_Grid_2.jpg,right,595.6749999895692,true,low,false
r4IhhXbz,3icohx7eofotocxdgkfntnxt5xb0e8,33m4ia01qkeshq6nw4twqsff73orxx,r4IhhXbz,2020-0188,2020-11-18,21:11:07,21:29:03,NA,incomplete,199,shape,1,right,Blue_Plus_Grid_4.jpg,Green_Triangle_Grid_2.jpg,Red_Plus_Chess_1.jpg,right,795.9399999817833,true,low,false
r4IhhXbz,3icohx7eofotocxdgkfntnxt5xb0e8,33m4ia01qkeshq6nw4twqsff73orxx,r4IhhXbz,2020-0188,2020-11-18,21:11:07,21:29:03,NA,incomplete,200,filling,1,left,Blue_Star_Stripes_4.jpg,Purple_Circle_Stripes_3.jpg,Red_Star_Dots_1.jpg,right,778.5799999837764,false,low,false
r4IhhXbz,3icohx7eofotocxdgkfntnxt5xb0e8,33m4ia01qkeshq6nw4twqsff73orxx,r4IhhXbz,2020-0188,2020-11-18,21:11:07,21:29:03,NA,incomplete,201,filling,0,right,Blue_Triangle_Stripes_3.jpg,Red_Triangle_Grid_2.jpg,Purple_Plus_Stripes_4.jpg,left,633.7000000057742,false,low,false
r4IhhXbz,3icohx7eofotocxdgkfntnxt5xb0e8,33m4ia01qkeshq6nw4twqsff73orxx,r4IhhXbz,2020-0188,2020-11-18,21:11:07,21:29:03,NA,incomplete,202,filling,1,left,Blue_Circle_Dots_3.jpg,Green_Plus_Dots_1.jpg,Purple_Circle_Grid_4.jpg,right,615.7999999704771,false,low,false
r4IhhXbz,3icohx7eofotocxdgkfntnxt5xb0e8,33m4ia01qkeshq6nw4twqsff73orxx,r4IhhXbz,2020-0188,2020-11-18,21:11:07,21:29:03,NA,incomplete,203,filling,1,right,Purple_Circle_Grid_1.jpg,Green_Circle_Chess_2.jpg,Red_Star_Grid_4.jpg,left,1347.5650000036694,false,low,false
r4IhhXbz,3icohx7eofotocxdgkfntnxt5xb0e8,33m4ia01qkeshq6nw4twqsff73orxx,r4IhhXbz,2020-0188,2020-11-18,21:11:07,21:29:03,NA,incomplete,204,filling,1,right,Red_Plus_Chess_3.jpg,Blue_Plus_Stripes_1.jpg,Green_Star_Chess_4.jpg,right,1034.7799999872223,true,low,false
r4IhhXbz,3icohx7eofotocxdgkfntnxt5xb0e8,33m4ia01qkeshq6nw4twqsff73orxx,r4IhhXbz,2020-0188,2020-11-18,21:11:07,21:29:03,NA,incomplete,205,filling,1,left,Blue_Plus_Dots_1.jpg,Red_Triangle_Dots_3.jpg,Purple_Plus_Grid_2.jpg,left,1058.3500000066124,true,low,false
r4IhhXbz,3icohx7eofotocxdgkfntnxt5xb0e8,33m4ia01qkeshq6nw4twqsff73orxx,r4IhhXbz,2020-0188,2020-11-18,21:11:07,21:29:03,NA,incomplete,206,filling,1,left,Green_Circle_Grid_3.jpg,Purple_Plus_Grid_1.jpg,Blue_Circle_Chess_2.jpg,right,760.100000014063,false,low,false
r4IhhXbz,3icohx7eofotocxdgkfntnxt5xb0e8,33m4ia01qkeshq6nw4twqsff73orxx,r4IhhXbz,2020-0188,2020-11-18,21:11:07,21:29:03,NA,incomplete,207,filling,0,right,Red_Circle_Grid_1.jpg,Purple_Circle_Chess_3.jpg,Green_Star_Grid_2.jpg,right,1125.0599999912083,true,low,false
r4IhhXbz,3icohx7eofotocxdgkfntnxt5xb0e8,33m4ia01qkeshq6nw4twqsff73orxx,r4IhhXbz,2020-0188,2020-11-18,21:11:07,21:29:03,NA,incomplete,208,filling,1,right,Red_Circle_Dots_4.jpg,Purple_Circle_Stripes_2.jpg,Green_Star_Dots_1.jpg,left,630.7399999932386,false,low,false
r4IhhXbz,3icohx7eofotocxdgkfntnxt5xb0e8,33m4ia01qkeshq6nw4twqsff73orxx,r4IhhXbz,2020-0188,2020-11-18,21:11:07,21:29:03,NA,incomplete,209,filling,0,right,Purple_Plus_Grid_3.jpg,Blue_Plus_Dots_4.jpg,Red_Triangle_Grid_2.jpg,right,1037.9850000026636,true,low,false
r4IhhXbz,3icohx7eofotocxdgkfntnxt5xb0e8,33m4ia01qkeshq6nw4twqsff73orxx,r4IhhXbz,2020-0188,2020-11-18,21:11:07,21:29:03,NA,incomplete,210,filling,1,left,Purple_Triangle_Grid_2.jpg,Red_Plus_Grid_1.jpg,Green_Triangle_Dots_3.jpg,right,1029.244999983348,false,low,false
r4IhhXbz,3icohx7eofotocxdgkfntnxt5xb0e8,33m4ia01qkeshq6nw4twqsff73orxx,r4IhhXbz,2020-0188,2020-11-18,21:11:07,21:29:03,NA,incomplete,211,filling,0,left,Red_Plus_Stripes_4.jpg,Purple_Circle_Stripes_1.jpg,Green_Plus_Chess_2.jpg,left,902.0299999974668,true,low,false
r4IhhXbz,3icohx7eofotocxdgkfntnxt5xb0e8,33m4ia01qkeshq6nw4twqsff73orxx,r4IhhXbz,2020-0188,2020-11-18,21:11:07,21:29:03,NA,incomplete,212,filling,1,right,Red_Triangle_Chess_2.jpg,Green_Triangle_Grid_3.jpg,Purple_Plus_Chess_1.jpg,right,1064.974999986589,true,low,false
r4IhhXbz,3icohx7eofotocxdgkfntnxt5xb0e8,33m4ia01qkeshq6nw4twqsff73orxx,r4IhhXbz,2020-0188,2020-11-18,21:11:07,21:29:03,NA,incomplete,213,filling,1,right,Green_Star_Chess_1.jpg,Blue_Star_Stripes_4.jpg,Purple_Plus_Chess_3.jpg,right,957.7400000416674,true,low,false
r4IhhXbz,3icohx7eofotocxdgkfntnxt5xb0e8,33m4ia01qkeshq6nw4twqsff73orxx,r4IhhXbz,2020-0188,2020-11-18,21:11:07,21:29:03,NA,incomplete,214,filling,1,right,Red_Plus_Grid_3.jpg,Blue_Plus_Stripes_1.jpg,Purple_Triangle_Grid_2.jpg,right,1283.69000001112,true,low,false
r4IhhXbz,3icohx7eofotocxdgkfntnxt5xb0e8,33m4ia01qkeshq6nw4twqsff73orxx,r4IhhXbz,2020-0188,2020-11-18,21:11:07,21:29:03,NA,incomplete,215,filling,1,left,Red_Plus_Stripes_4.jpg,Purple_Circle_Stripes_1.jpg,Green_Plus_Chess_3.jpg,left,1057.1199999540113,true,low,false
r4IhhXbz,3icohx7eofotocxdgkfntnxt5xb0e8,33m4ia01qkeshq6nw4twqsff73orxx,r4IhhXbz,2020-0188,2020-11-18,21:11:07,21:29:03,NA,incomplete,216,filling,1,left,Green_Triangle_Dots_3.jpg,Blue_Star_Dots_1.jpg,Red_Triangle_Chess_4.jpg,left,1032.7399999951012,true,low,false
r4IhhXbz,3icohx7eofotocxdgkfntnxt5xb0e8,33m4ia01qkeshq6nw4twqsff73orxx,r4IhhXbz,2020-0188,2020-11-18,21:11:07,21:29:03,NA,incomplete,217,filling,0,right,Red_Circle_Stripes_1.jpg,Purple_Circle_Chess_3.jpg,Blue_Star_Stripes_2.jpg,right,958.6800000397488,true,low,false
r4IhhXbz,3icohx7eofotocxdgkfntnxt5xb0e8,33m4ia01qkeshq6nw4twqsff73orxx,r4IhhXbz,2020-0188,2020-11-18,21:11:07,21:29:03,NA,incomplete,218,filling,1,right,Blue_Star_Grid_2.jpg,Purple_Star_Dots_4.jpg,Red_Plus_Grid_1.jpg,right,1083.5199999855831,true,low,false
r4IhhXbz,3icohx7eofotocxdgkfntnxt5xb0e8,33m4ia01qkeshq6nw4twqsff73orxx,r4IhhXbz,2020-0188,2020-11-18,21:11:07,21:29:03,NA,incomplete,219,filling,1,right,Purple_Triangle_Dots_2.jpg,Red_Triangle_Grid_4.jpg,Green_Star_Dots_1.jpg,right,1101.6700000036508,true,low,false
r4IhhXbz,3icohx7eofotocxdgkfntnxt5xb0e8,33m4ia01qkeshq6nw4twqsff73orxx,r4IhhXbz,2020-0188,2020-11-18,21:11:07,21:29:03,NA,incomplete,220,shape,0,right,Purple_Triangle_Stripes_3.jpg,Blue_Circle_Stripes_1.jpg,Green_Triangle_Grid_2.jpg,left,975.1399999950081,false,low,false
r4IhhXbz,3icohx7eofotocxdgkfntnxt5xb0e8,33m4ia01qkeshq6nw4twqsff73orxx,r4IhhXbz,2020-0188,2020-11-18,21:11:07,21:29:03,NA,incomplete,221,shape,1,left,Red_Circle_Grid_2.jpg,Blue_Circle_Dots_1.jpg,Green_Triangle_Grid_4.jpg,right,1153.539999970235,false,low,false
r4IhhXbz,3icohx7eofotocxdgkfntnxt5xb0e8,33m4ia01qkeshq6nw4twqsff73orxx,r4IhhXbz,2020-0188,2020-11-18,21:11:07,21:29:03,NA,incomplete,222,shape,1,left,Green_Star_Chess_1.jpg,Blue_Star_Dots_4.jpg,Purple_Plus_Chess_3.jpg,right,860.5450000031851,false,low,false
r4IhhXbz,3icohx7eofotocxdgkfntnxt5xb0e8,33m4ia01qkeshq6nw4twqsff73orxx,r4IhhXbz,2020-0188,2020-11-18,21:11:07,21:29:03,NA,incomplete,223,shape,1,right,Red_Circle_Stripes_4.jpg,Purple_Plus_Stripes_1.jpg,Green_Circle_Grid_3.jpg,right,951.7399999895133,true,low,false
r4IhhXbz,3icohx7eofotocxdgkfntnxt5xb0e8,33m4ia01qkeshq6nw4twqsff73orxx,r4IhhXbz,2020-0188,2020-11-18,21:11:07,21:29:03,NA,incomplete,224,shape,1,left,Green_Triangle_Stripes_4.jpg,Red_Triangle_Chess_3.jpg,Purple_Star_Stripes_2.jpg,left,674.959999974817,true,low,false
r4IhhXbz,3icohx7eofotocxdgkfntnxt5xb0e8,33m4ia01qkeshq6nw4twqsff73orxx,r4IhhXbz,2020-0188,2020-11-18,21:11:07,21:29:03,NA,incomplete,225,shape,1,right,Red_Plus_Stripes_4.jpg,Purple_Triangle_Stripes_1.jpg,Green_Plus_Dots_2.jpg,right,666.5199999697506,true,low,false
r4IhhXbz,3icohx7eofotocxdgkfntnxt5xb0e8,33m4ia01qkeshq6nw4twqsff73orxx,r4IhhXbz,2020-0188,2020-11-18,21:11:07,21:29:03,NA,incomplete,226,shape,1,left,Purple_Plus_Grid_2.jpg,Green_Plus_Chess_4.jpg,Red_Circle_Grid_1.jpg,left,771.0699999588542,true,low,false
r4IhhXbz,3icohx7eofotocxdgkfntnxt5xb0e8,33m4ia01qkeshq6nw4twqsff73orxx,r4IhhXbz,2020-0188,2020-11-18,21:11:07,21:29:03,NA,incomplete,227,shape,0,left,Green_Plus_Stripes_1.jpg,Purple_Plus_Chess_2.jpg,Red_Circle_Stripes_4.jpg,left,640.1249999762513,true,low,false
r4IhhXbz,3icohx7eofotocxdgkfntnxt5xb0e8,33m4ia01qkeshq6nw4twqsff73orxx,r4IhhXbz,2020-0188,2020-11-18,21:11:07,21:29:03,NA,incomplete,228,shape,1,left,Purple_Triangle_Stripes_1.jpg,Blue_Triangle_Dots_4.jpg,Red_Circle_Stripes_3.jpg,left,830.8149999938905,true,low,false
r4IhhXbz,3icohx7eofotocxdgkfntnxt5xb0e8,33m4ia01qkeshq6nw4twqsff73orxx,r4IhhXbz,2020-0188,2020-11-18,21:11:07,21:29:03,NA,incomplete,229,shape,0,left,Green_Triangle_Grid_4.jpg,Red_Triangle_Stripes_1.jpg,Blue_Star_Grid_3.jpg,left,619.1899999976158,true,low,false
r4IhhXbz,3icohx7eofotocxdgkfntnxt5xb0e8,33m4ia01qkeshq6nw4twqsff73orxx,r4IhhXbz,2020-0188,2020-11-18,21:11:07,21:29:03,NA,incomplete,230,shape,1,left,Green_Star_Stripes_2.jpg,Red_Star_Dots_4.jpg,Purple_Triangle_Stripes_1.jpg,left,606.8899999954738,true,low,false
r4IhhXbz,3icohx7eofotocxdgkfntnxt5xb0e8,33m4ia01qkeshq6nw4twqsff73orxx,r4IhhXbz,2020-0188,2020-11-18,21:11:07,21:29:03,NA,incomplete,231,shape,0,left,Blue_Triangle_Chess_4.jpg,Purple_Triangle_Dots_3.jpg,Green_Star_Chess_1.jpg,left,612.1649999986403,true,low,false
r4IhhXbz,3icohx7eofotocxdgkfntnxt5xb0e8,33m4ia01qkeshq6nw4twqsff73orxx,r4IhhXbz,2020-0188,2020-11-18,21:11:07,21:29:03,NA,incomplete,232,shape,1,left,Green_Star_Dots_2.jpg,Purple_Star_Chess_4.jpg,Red_Plus_Dots_1.jpg,left,590.555000002496,true,low,false
r4IhhXbz,3icohx7eofotocxdgkfntnxt5xb0e8,33m4ia01qkeshq6nw4twqsff73orxx,r4IhhXbz,2020-0188,2020-11-18,21:11:07,21:29:03,NA,incomplete,233,shape,1,right,Red_Star_Dots_4.jpg,Blue_Plus_Dots_1.jpg,Green_Star_Stripes_3.jpg,right,592.255000025034,true,low,false
r4IhhXbz,3icohx7eofotocxdgkfntnxt5xb0e8,33m4ia01qkeshq6nw4twqsff73orxx,r4IhhXbz,2020-0188,2020-11-18,21:11:07,21:29:03,NA,incomplete,234,shape,1,left,Green_Star_Chess_4.jpg,Purple_Star_Grid_3.jpg,Red_Plus_Chess_2.jpg,left,569.4249999942258,true,low,false
r4IhhXbz,3icohx7eofotocxdgkfntnxt5xb0e8,33m4ia01qkeshq6nw4twqsff73orxx,r4IhhXbz,2020-0188,2020-11-18,21:11:07,21:29:03,NA,incomplete,235,shape,1,left,Purple_Star_Stripes_4.jpg,Green_Star_Grid_3.jpg,Red_Plus_Stripes_1.jpg,left,513.2149999844842,true,low,false
r4IhhXbz,3icohx7eofotocxdgkfntnxt5xb0e8,33m4ia01qkeshq6nw4twqsff73orxx,r4IhhXbz,2020-0188,2020-11-18,21:11:07,21:29:03,NA,incomplete,236,shape,1,right,Blue_Triangle_Grid_3.jpg,Purple_Plus_Grid_4.jpg,Red_Triangle_Chess_2.jpg,right,698.0249999905936,true,low,false
r4IhhXbz,3icohx7eofotocxdgkfntnxt5xb0e8,33m4ia01qkeshq6nw4twqsff73orxx,r4IhhXbz,2020-0188,2020-11-18,21:11:07,21:29:03,NA,incomplete,237,shape,1,right,Green_Circle_Grid_3.jpg,Red_Triangle_Grid_4.jpg,Blue_Circle_Stripes_2.jpg,right,678.6600000341423,true,low,false
r4IhhXbz,3icohx7eofotocxdgkfntnxt5xb0e8,33m4ia01qkeshq6nw4twqsff73orxx,r4IhhXbz,2020-0188,2020-11-18,21:11:07,21:29:03,NA,incomplete,238,shape,1,left,Green_Star_Stripes_1.jpg,Purple_Star_Chess_3.jpg,Blue_Circle_Stripes_4.jpg,left,646.4699999778531,true,low,false
r4IhhXbz,3icohx7eofotocxdgkfntnxt5xb0e8,33m4ia01qkeshq6nw4twqsff73orxx,r4IhhXbz,2020-0188,2020-11-18,21:11:07,21:29:03,NA,incomplete,239,shape,1,left,Purple_Star_Dots_2.jpg,Blue_Star_Chess_4.jpg,Green_Circle_Dots_1.jpg,left,601.2950000003912,true,low,false
r4IhhXbz,3icohx7eofotocxdgkfntnxt5xb0e8,33m4ia01qkeshq6nw4twqsff73orxx,r4IhhXbz,2020-0188,2020-11-18,21:11:07,21:29:03,NA,NA,instruction example,number,NA,NA,Red_Circle_Dots_3.jpg,Green_Triangle_Chess_3.jpg,Red_Star_Grid_1.jpg,NA,NA,NA,NA,undefined
r4IhhXbz,3icohx7eofotocxdgkfntnxt5xb0e8,33m4ia01qkeshq6nw4twqsff73orxx,r4IhhXbz,2020-0188,2020-11-18,21:11:07,21:29:03,NA,NA,instruction example,number,NA,NA,Purple_Star_Dots_3.jpg,Purple_Triangle_Stripes_4.jpg,Red_Circle_Chess_3.jpg,NA,NA,NA,NA,undefined
r4IhhXbz,3icohx7eofotocxdgkfntnxt5xb0e8,33m4ia01qkeshq6nw4twqsff73orxx,r4IhhXbz,2020-0188,2020-11-18,21:11:07,21:29:03,NA,NA,instruction example,number,NA,NA,Purple_Star_Grid_3.jpg,Green_Circle_Grid_2.jpg,Blue_Star_Chess_4.jpg,NA,NA,NA,NA,undefined
r4IhhXbz,3icohx7eofotocxdgkfntnxt5xb0e8,33m4ia01qkeshq6nw4twqsff73orxx,r4IhhXbz,2020-0188,2020-11-18,21:11:07,21:29:03,NA,NA,instruction example,number,NA,NA,Blue_Triangle_Grid_4.jpg,Red_Triangle_Dots_2.jpg,Green_Star_Grid_1.jpg,NA,NA,NA,NA,undefined
r4IhhXbz,3icohx7eofotocxdgkfntnxt5xb0e8,33m4ia01qkeshq6nw4twqsff73orxx,r4IhhXbz,2020-0188,2020-11-18,21:11:07,21:29:03,1021714.6100000245,1078158.4400000283,NA,NA,NA,NA,NA,NA,NA,NA,NA,NA,NA,undefined
