workerId,hitId,assignmentId,subject,studyid,exp_date,exp_start,exp_end,time_start,time_end,trial,type,reward_validity,answer,image_top,image_left,image_right,response,response_time,response_acc,volatility,practice
SKBgR0jc,3peg1bh7bh4xuzsxamnfbz6ha40bkr,33nf62tlxnf5z2o3pg5yy7ll7e7kj7,SKBgR0jc,2020-0188,2020-06-16,09:58:48,10:23:20,NA,incomplete,0,number,0,right,Blue_Plus_Chess_1.jpg,Red_Star_Chess_4.jpg,Purple_Circle_Stripes_1.jpg,none,0,false,NA,true
SKBgR0jc,3peg1bh7bh4xuzsxamnfbz6ha40bkr,33nf62tlxnf5z2o3pg5yy7ll7e7kj7,SKBgR0jc,2020-0188,2020-06-16,09:58:48,10:23:20,NA,incomplete,1,number,0,right,Green_Star_Grid_4.jpg,Blue_Triangle_Grid_3.jpg,Red_Plus_Stripes_4.jpg,right,1315.969999996014,true,NA,true
SKBgR0jc,3peg1bh7bh4xuzsxamnfbz6ha40bkr,33nf62tlxnf5z2o3pg5yy7ll7e7kj7,SKBgR0jc,2020-0188,2020-06-16,09:58:48,10:23:20,NA,incomplete,2,number,1,right,Green_Triangle_Stripes_4.jpg,Purple_Plus_Stripes_2.jpg,Blue_Circle_Dots_4.jpg,right,1446.0949999920558,true,NA,true
SKBgR0jc,3peg1bh7bh4xuzsxamnfbz6ha40bkr,33nf62tlxnf5z2o3pg5yy7ll7e7kj7,SKBgR0jc,2020-0188,2020-06-16,09:58:48,10:23:20,NA,incomplete,3,number,1,right,Blue_Triangle_Chess_1.jpg,Green_Circle_Chess_4.jpg,Red_Plus_Grid_1.jpg,right,1137.7300000167452,true,NA,true
SKBgR0jc,3peg1bh7bh4xuzsxamnfbz6ha40bkr,33nf62tlxnf5z2o3pg5yy7ll7e7kj7,SKBgR0jc,2020-0188,2020-06-16,09:58:48,10:23:20,NA,incomplete,4,number,1,right,Green_Triangle_Dots_1.jpg,Purple_Plus_Dots_2.jpg,Red_Star_Grid_1.jpg,right,1044.2900000198279,true,NA,true
SKBgR0jc,3peg1bh7bh4xuzsxamnfbz6ha40bkr,33nf62tlxnf5z2o3pg5yy7ll7e7kj7,SKBgR0jc,2020-0188,2020-06-16,09:58:48,10:23:20,NA,incomplete,5,number,0,left,Blue_Star_Grid_2.jpg,Red_Circle_Dots_2.jpg,Purple_Triangle_Grid_3.jpg,left,976.2899999914225,true,NA,true
SKBgR0jc,3peg1bh7bh4xuzsxamnfbz6ha40bkr,33nf62tlxnf5z2o3pg5yy7ll7e7kj7,SKBgR0jc,2020-0188,2020-06-16,09:58:48,10:23:20,NA,incomplete,6,number,0,left,Blue_Star_Chess_2.jpg,Red_Triangle_Dots_2.jpg,Green_Circle_Chess_1.jpg,left,997.1750000258908,true,NA,true
SKBgR0jc,3peg1bh7bh4xuzsxamnfbz6ha40bkr,33nf62tlxnf5z2o3pg5yy7ll7e7kj7,SKBgR0jc,2020-0188,2020-06-16,09:58:48,10:23:20,NA,incomplete,7,number,1,left,Green_Star_Grid_4.jpg,Blue_Plus_Dots_4.jpg,Purple_Triangle_Grid_2.jpg,left,1123.3800000045449,true,NA,true
SKBgR0jc,3peg1bh7bh4xuzsxamnfbz6ha40bkr,33nf62tlxnf5z2o3pg5yy7ll7e7kj7,SKBgR0jc,2020-0188,2020-06-16,09:58:48,10:23:20,NA,incomplete,8,number,1,left,Red_Triangle_Grid_4.jpg,Purple_Circle_Chess_4.jpg,Blue_Plus_Grid_3.jpg,left,1178.4699999843724,true,NA,true
SKBgR0jc,3peg1bh7bh4xuzsxamnfbz6ha40bkr,33nf62tlxnf5z2o3pg5yy7ll7e7kj7,SKBgR0jc,2020-0188,2020-06-16,09:58:48,10:23:20,NA,incomplete,9,number,0,left,Red_Circle_Chess_2.jpg,Green_Triangle_Grid_2.jpg,Blue_Plus_Chess_3.jpg,left,1239.6449999941979,true,NA,true
SKBgR0jc,3peg1bh7bh4xuzsxamnfbz6ha40bkr,33nf62tlxnf5z2o3pg5yy7ll7e7kj7,SKBgR0jc,2020-0188,2020-06-16,09:58:48,10:23:20,NA,incomplete,10,number,1,right,Green_Triangle_Chess_2.jpg,Purple_Plus_Chess_3.jpg,Blue_Star_Dots_2.jpg,right,1152.3049999959767,true,NA,true
SKBgR0jc,3peg1bh7bh4xuzsxamnfbz6ha40bkr,33nf62tlxnf5z2o3pg5yy7ll7e7kj7,SKBgR0jc,2020-0188,2020-06-16,09:58:48,10:23:20,NA,incomplete,11,number,1,right,Red_Triangle_Dots_1.jpg,Purple_Circle_Dots_4.jpg,Blue_Plus_Grid_1.jpg,right,1021.630000002915,true,NA,true
SKBgR0jc,3peg1bh7bh4xuzsxamnfbz6ha40bkr,33nf62tlxnf5z2o3pg5yy7ll7e7kj7,SKBgR0jc,2020-0188,2020-06-16,09:58:48,10:23:20,NA,incomplete,12,number,1,right,Purple_Plus_Stripes_2.jpg,Red_Star_Stripes_3.jpg,Green_Circle_Chess_2.jpg,right,1061.4849999838043,true,NA,true
SKBgR0jc,3peg1bh7bh4xuzsxamnfbz6ha40bkr,33nf62tlxnf5z2o3pg5yy7ll7e7kj7,SKBgR0jc,2020-0188,2020-06-16,09:58:48,10:23:20,NA,incomplete,13,number,1,right,Purple_Plus_Dots_4.jpg,Blue_Star_Dots_1.jpg,Red_Circle_Grid_4.jpg,right,983.1249999988358,true,NA,true
SKBgR0jc,3peg1bh7bh4xuzsxamnfbz6ha40bkr,33nf62tlxnf5z2o3pg5yy7ll7e7kj7,SKBgR0jc,2020-0188,2020-06-16,09:58:48,10:23:20,NA,incomplete,14,number,1,left,Purple_Star_Stripes_1.jpg,Blue_Circle_Chess_1.jpg,Green_Triangle_Stripes_4.jpg,left,944.3150000006426,true,NA,true
SKBgR0jc,3peg1bh7bh4xuzsxamnfbz6ha40bkr,33nf62tlxnf5z2o3pg5yy7ll7e7kj7,SKBgR0jc,2020-0188,2020-06-16,09:58:48,10:23:20,NA,incomplete,15,number,1,right,Purple_Plus_Chess_2.jpg,Green_Circle_Chess_4.jpg,Blue_Triangle_Grid_2.jpg,right,1044.129999994766,true,NA,true
SKBgR0jc,3peg1bh7bh4xuzsxamnfbz6ha40bkr,33nf62tlxnf5z2o3pg5yy7ll7e7kj7,SKBgR0jc,2020-0188,2020-06-16,09:58:48,10:23:20,NA,incomplete,16,number,0,right,Green_Circle_Dots_1.jpg,Red_Plus_Dots_2.jpg,Purple_Triangle_Grid_1.jpg,right,941.5049999952316,true,NA,true
SKBgR0jc,3peg1bh7bh4xuzsxamnfbz6ha40bkr,33nf62tlxnf5z2o3pg5yy7ll7e7kj7,SKBgR0jc,2020-0188,2020-06-16,09:58:48,10:23:20,NA,incomplete,17,number,1,right,Green_Triangle_Chess_4.jpg,Purple_Circle_Chess_1.jpg,Red_Plus_Dots_4.jpg,right,1032.0650000066962,true,NA,true
SKBgR0jc,3peg1bh7bh4xuzsxamnfbz6ha40bkr,33nf62tlxnf5z2o3pg5yy7ll7e7kj7,SKBgR0jc,2020-0188,2020-06-16,09:58:48,10:23:20,NA,incomplete,18,number,1,right,Blue_Plus_Grid_4.jpg,Green_Star_Grid_3.jpg,Red_Triangle_Dots_4.jpg,right,1013.2600000069942,true,NA,true
SKBgR0jc,3peg1bh7bh4xuzsxamnfbz6ha40bkr,33nf62tlxnf5z2o3pg5yy7ll7e7kj7,SKBgR0jc,2020-0188,2020-06-16,09:58:48,10:23:20,NA,incomplete,19,number,1,left,Blue_Plus_Stripes_4.jpg,Red_Star_Dots_4.jpg,Green_Circle_Stripes_3.jpg,left,989.2349999863654,true,NA,true
SKBgR0jc,3peg1bh7bh4xuzsxamnfbz6ha40bkr,33nf62tlxnf5z2o3pg5yy7ll7e7kj7,SKBgR0jc,2020-0188,2020-06-16,09:58:48,10:23:20,NA,incomplete,20,filling,0,left,Blue_Star_Stripes_1.jpg,Green_Plus_Stripes_2.jpg,Red_Circle_Grid_1.jpg,right,741.9300000183284,false,NA,true
SKBgR0jc,3peg1bh7bh4xuzsxamnfbz6ha40bkr,33nf62tlxnf5z2o3pg5yy7ll7e7kj7,SKBgR0jc,2020-0188,2020-06-16,09:58:48,10:23:20,NA,incomplete,21,filling,1,right,Blue_Triangle_Chess_3.jpg,Green_Circle_Stripes_3.jpg,Purple_Star_Chess_4.jpg,right,1487.8850000095554,true,NA,true
SKBgR0jc,3peg1bh7bh4xuzsxamnfbz6ha40bkr,33nf62tlxnf5z2o3pg5yy7ll7e7kj7,SKBgR0jc,2020-0188,2020-06-16,09:58:48,10:23:20,NA,incomplete,22,filling,1,left,Purple_Triangle_Grid_1.jpg,Green_Plus_Grid_4.jpg,Red_Circle_Chess_1.jpg,left,1231.870000017807,true,NA,true
SKBgR0jc,3peg1bh7bh4xuzsxamnfbz6ha40bkr,33nf62tlxnf5z2o3pg5yy7ll7e7kj7,SKBgR0jc,2020-0188,2020-06-16,09:58:48,10:23:20,NA,incomplete,23,filling,1,right,Purple_Star_Stripes_1.jpg,Green_Plus_Chess_1.jpg,Blue_Circle_Stripes_4.jpg,right,1196.2149999744724,true,NA,true
SKBgR0jc,3peg1bh7bh4xuzsxamnfbz6ha40bkr,33nf62tlxnf5z2o3pg5yy7ll7e7kj7,SKBgR0jc,2020-0188,2020-06-16,09:58:48,10:23:20,NA,incomplete,24,filling,1,left,Blue_Star_Chess_1.jpg,Green_Triangle_Chess_4.jpg,Red_Plus_Stripes_1.jpg,left,1169.6099999826401,true,NA,true
SKBgR0jc,3peg1bh7bh4xuzsxamnfbz6ha40bkr,33nf62tlxnf5z2o3pg5yy7ll7e7kj7,SKBgR0jc,2020-0188,2020-06-16,09:58:48,10:23:20,NA,incomplete,25,filling,1,left,Purple_Triangle_Grid_2.jpg,Red_Plus_Grid_3.jpg,Blue_Star_Stripes_2.jpg,left,1228.159999998752,true,NA,true
SKBgR0jc,3peg1bh7bh4xuzsxamnfbz6ha40bkr,33nf62tlxnf5z2o3pg5yy7ll7e7kj7,SKBgR0jc,2020-0188,2020-06-16,09:58:48,10:23:20,NA,incomplete,26,filling,1,right,Purple_Triangle_Chess_4.jpg,Green_Star_Stripes_4.jpg,Blue_Circle_Chess_2.jpg,right,1183.43500001356,true,NA,true
SKBgR0jc,3peg1bh7bh4xuzsxamnfbz6ha40bkr,33nf62tlxnf5z2o3pg5yy7ll7e7kj7,SKBgR0jc,2020-0188,2020-06-16,09:58:48,10:23:20,NA,incomplete,27,filling,0,right,Purple_Star_Dots_3.jpg,Red_Circle_Chess_3.jpg,Blue_Plus_Dots_2.jpg,right,1333.7449999817181,true,NA,true
SKBgR0jc,3peg1bh7bh4xuzsxamnfbz6ha40bkr,33nf62tlxnf5z2o3pg5yy7ll7e7kj7,SKBgR0jc,2020-0188,2020-06-16,09:58:48,10:23:20,NA,incomplete,28,filling,1,right,Purple_Circle_Grid_3.jpg,Blue_Star_Dots_3.jpg,Green_Triangle_Grid_1.jpg,right,1537.4350000056438,true,NA,true
SKBgR0jc,3peg1bh7bh4xuzsxamnfbz6ha40bkr,33nf62tlxnf5z2o3pg5yy7ll7e7kj7,SKBgR0jc,2020-0188,2020-06-16,09:58:48,10:23:20,NA,incomplete,29,filling,1,left,Purple_Star_Stripes_1.jpg,Red_Circle_Stripes_3.jpg,Green_Triangle_Chess_1.jpg,left,1124.8199999972712,true,NA,true
SKBgR0jc,3peg1bh7bh4xuzsxamnfbz6ha40bkr,33nf62tlxnf5z2o3pg5yy7ll7e7kj7,SKBgR0jc,2020-0188,2020-06-16,09:58:48,10:23:20,NA,incomplete,30,filling,1,left,Green_Circle_Grid_4.jpg,Red_Star_Grid_3.jpg,Purple_Plus_Chess_4.jpg,left,1316.0900000075344,true,NA,true
SKBgR0jc,3peg1bh7bh4xuzsxamnfbz6ha40bkr,33nf62tlxnf5z2o3pg5yy7ll7e7kj7,SKBgR0jc,2020-0188,2020-06-16,09:58:48,10:23:20,NA,incomplete,31,filling,1,left,Green_Star_Dots_3.jpg,Blue_Triangle_Dots_4.jpg,Red_Plus_Chess_3.jpg,left,1263.5600000212435,true,NA,true
SKBgR0jc,3peg1bh7bh4xuzsxamnfbz6ha40bkr,33nf62tlxnf5z2o3pg5yy7ll7e7kj7,SKBgR0jc,2020-0188,2020-06-16,09:58:48,10:23:20,NA,incomplete,32,filling,1,right,Blue_Circle_Grid_4.jpg,Green_Star_Chess_4.jpg,Purple_Triangle_Grid_1.jpg,right,1275.4899999999907,true,NA,true
SKBgR0jc,3peg1bh7bh4xuzsxamnfbz6ha40bkr,33nf62tlxnf5z2o3pg5yy7ll7e7kj7,SKBgR0jc,2020-0188,2020-06-16,09:58:48,10:23:20,NA,incomplete,33,filling,1,left,Blue_Plus_Chess_4.jpg,Green_Triangle_Chess_3.jpg,Purple_Circle_Dots_4.jpg,left,1159.9199999764096,true,NA,true
SKBgR0jc,3peg1bh7bh4xuzsxamnfbz6ha40bkr,33nf62tlxnf5z2o3pg5yy7ll7e7kj7,SKBgR0jc,2020-0188,2020-06-16,09:58:48,10:23:20,NA,incomplete,34,filling,1,left,Green_Triangle_Stripes_2.jpg,Purple_Plus_Stripes_3.jpg,Red_Circle_Chess_2.jpg,left,1267.089999979362,true,NA,true
SKBgR0jc,3peg1bh7bh4xuzsxamnfbz6ha40bkr,33nf62tlxnf5z2o3pg5yy7ll7e7kj7,SKBgR0jc,2020-0188,2020-06-16,09:58:48,10:23:20,NA,incomplete,35,filling,1,right,Blue_Plus_Stripes_3.jpg,Green_Triangle_Chess_3.jpg,Purple_Star_Stripes_4.jpg,right,961.6950000054203,true,NA,true
SKBgR0jc,3peg1bh7bh4xuzsxamnfbz6ha40bkr,33nf62tlxnf5z2o3pg5yy7ll7e7kj7,SKBgR0jc,2020-0188,2020-06-16,09:58:48,10:23:20,NA,incomplete,36,filling,1,right,Green_Circle_Stripes_3.jpg,Blue_Triangle_Dots_3.jpg,Purple_Star_Stripes_4.jpg,right,1095.9399999992456,true,NA,true
SKBgR0jc,3peg1bh7bh4xuzsxamnfbz6ha40bkr,33nf62tlxnf5z2o3pg5yy7ll7e7kj7,SKBgR0jc,2020-0188,2020-06-16,09:58:48,10:23:20,NA,incomplete,37,filling,1,right,Green_Plus_Dots_3.jpg,Purple_Circle_Grid_3.jpg,Red_Triangle_Dots_4.jpg,right,1427.9049999895506,true,NA,true
SKBgR0jc,3peg1bh7bh4xuzsxamnfbz6ha40bkr,33nf62tlxnf5z2o3pg5yy7ll7e7kj7,SKBgR0jc,2020-0188,2020-06-16,09:58:48,10:23:20,NA,incomplete,38,filling,1,left,Purple_Star_Chess_3.jpg,Red_Plus_Chess_1.jpg,Green_Triangle_Stripes_3.jpg,left,1218.0550000048243,true,NA,true
SKBgR0jc,3peg1bh7bh4xuzsxamnfbz6ha40bkr,33nf62tlxnf5z2o3pg5yy7ll7e7kj7,SKBgR0jc,2020-0188,2020-06-16,09:58:48,10:23:20,NA,incomplete,39,filling,1,left,Purple_Star_Chess_4.jpg,Green_Circle_Chess_3.jpg,Blue_Triangle_Dots_4.jpg,left,987.2099999920465,true,NA,true
SKBgR0jc,3peg1bh7bh4xuzsxamnfbz6ha40bkr,33nf62tlxnf5z2o3pg5yy7ll7e7kj7,SKBgR0jc,2020-0188,2020-06-16,09:58:48,10:23:20,NA,incomplete,0,number,1,left,Blue_Plus_Grid_2.jpg,Red_Triangle_Stripes_2.jpg,Purple_Star_Grid_3.jpg,right,1112.4650000128895,false,high,false
SKBgR0jc,3peg1bh7bh4xuzsxamnfbz6ha40bkr,33nf62tlxnf5z2o3pg5yy7ll7e7kj7,SKBgR0jc,2020-0188,2020-06-16,09:58:48,10:23:20,NA,incomplete,1,number,1,right,Blue_Star_Grid_3.jpg,Green_Circle_Grid_4.jpg,Red_Triangle_Chess_3.jpg,left,1178.5100000270177,false,high,false
SKBgR0jc,3peg1bh7bh4xuzsxamnfbz6ha40bkr,33nf62tlxnf5z2o3pg5yy7ll7e7kj7,SKBgR0jc,2020-0188,2020-06-16,09:58:48,10:23:20,NA,incomplete,2,number,1,right,Purple_Star_Stripes_1.jpg,Blue_Triangle_Stripes_2.jpg,Green_Plus_Grid_1.jpg,left,1029.8400000028778,false,high,false
SKBgR0jc,3peg1bh7bh4xuzsxamnfbz6ha40bkr,33nf62tlxnf5z2o3pg5yy7ll7e7kj7,SKBgR0jc,2020-0188,2020-06-16,09:58:48,10:23:20,NA,incomplete,3,number,1,right,Blue_Circle_Grid_4.jpg,Purple_Plus_Grid_2.jpg,Red_Triangle_Chess_4.jpg,right,1319.4150000053924,true,high,false
SKBgR0jc,3peg1bh7bh4xuzsxamnfbz6ha40bkr,33nf62tlxnf5z2o3pg5yy7ll7e7kj7,SKBgR0jc,2020-0188,2020-06-16,09:58:48,10:23:20,NA,incomplete,4,number,1,right,Blue_Circle_Grid_3.jpg,Green_Plus_Grid_1.jpg,Purple_Star_Stripes_3.jpg,right,1372.3599999793805,true,high,false
SKBgR0jc,3peg1bh7bh4xuzsxamnfbz6ha40bkr,33nf62tlxnf5z2o3pg5yy7ll7e7kj7,SKBgR0jc,2020-0188,2020-06-16,09:58:48,10:23:20,NA,incomplete,5,number,0,right,Red_Triangle_Stripes_3.jpg,Blue_Star_Stripes_2.jpg,Purple_Plus_Dots_3.jpg,right,1163.6650000000373,true,high,false
SKBgR0jc,3peg1bh7bh4xuzsxamnfbz6ha40bkr,33nf62tlxnf5z2o3pg5yy7ll7e7kj7,SKBgR0jc,2020-0188,2020-06-16,09:58:48,10:23:20,NA,incomplete,6,number,1,left,Purple_Triangle_Dots_2.jpg,Green_Plus_Stripes_2.jpg,Blue_Star_Dots_3.jpg,right,1477.3299999942537,false,high,false
SKBgR0jc,3peg1bh7bh4xuzsxamnfbz6ha40bkr,33nf62tlxnf5z2o3pg5yy7ll7e7kj7,SKBgR0jc,2020-0188,2020-06-16,09:58:48,10:23:20,NA,incomplete,7,number,1,left,Purple_Plus_Dots_1.jpg,Green_Star_Stripes_1.jpg,Red_Circle_Dots_4.jpg,left,1607.4699999880977,true,high,false
SKBgR0jc,3peg1bh7bh4xuzsxamnfbz6ha40bkr,33nf62tlxnf5z2o3pg5yy7ll7e7kj7,SKBgR0jc,2020-0188,2020-06-16,09:58:48,10:23:20,NA,incomplete,8,number,0,left,Green_Plus_Stripes_1.jpg,Red_Circle_Chess_1.jpg,Blue_Triangle_Stripes_4.jpg,right,1295.285000000149,false,high,false
SKBgR0jc,3peg1bh7bh4xuzsxamnfbz6ha40bkr,33nf62tlxnf5z2o3pg5yy7ll7e7kj7,SKBgR0jc,2020-0188,2020-06-16,09:58:48,10:23:20,NA,incomplete,9,number,1,right,Red_Triangle_Grid_1.jpg,Blue_Circle_Grid_3.jpg,Purple_Plus_Chess_1.jpg,left,1288.895000005141,false,high,false
SKBgR0jc,3peg1bh7bh4xuzsxamnfbz6ha40bkr,33nf62tlxnf5z2o3pg5yy7ll7e7kj7,SKBgR0jc,2020-0188,2020-06-16,09:58:48,10:23:20,NA,incomplete,10,filling,1,left,Blue_Triangle_Chess_2.jpg,Red_Star_Chess_4.jpg,Purple_Plus_Grid_2.jpg,left,1450.7400000002235,true,high,false
SKBgR0jc,3peg1bh7bh4xuzsxamnfbz6ha40bkr,33nf62tlxnf5z2o3pg5yy7ll7e7kj7,SKBgR0jc,2020-0188,2020-06-16,09:58:48,10:23:20,NA,incomplete,11,filling,1,left,Blue_Star_Chess_1.jpg,Purple_Plus_Chess_4.jpg,Green_Circle_Grid_1.jpg,left,1751.1499999964144,true,high,false
SKBgR0jc,3peg1bh7bh4xuzsxamnfbz6ha40bkr,33nf62tlxnf5z2o3pg5yy7ll7e7kj7,SKBgR0jc,2020-0188,2020-06-16,09:58:48,10:23:20,NA,incomplete,12,filling,1,left,Red_Star_Stripes_4.jpg,Purple_Circle_Stripes_2.jpg,Green_Plus_Dots_4.jpg,right,1813.7550000101328,false,high,false
SKBgR0jc,3peg1bh7bh4xuzsxamnfbz6ha40bkr,33nf62tlxnf5z2o3pg5yy7ll7e7kj7,SKBgR0jc,2020-0188,2020-06-16,09:58:48,10:23:20,NA,incomplete,13,filling,1,left,Blue_Triangle_Dots_1.jpg,Purple_Circle_Dots_2.jpg,Green_Plus_Chess_1.jpg,left,1753.4850000229198,true,high,false
SKBgR0jc,3peg1bh7bh4xuzsxamnfbz6ha40bkr,33nf62tlxnf5z2o3pg5yy7ll7e7kj7,SKBgR0jc,2020-0188,2020-06-16,09:58:48,10:23:20,NA,incomplete,14,filling,1,right,Blue_Plus_Dots_4.jpg,Red_Triangle_Grid_4.jpg,Green_Star_Dots_2.jpg,right,1593.0950000183657,true,high,false
SKBgR0jc,3peg1bh7bh4xuzsxamnfbz6ha40bkr,33nf62tlxnf5z2o3pg5yy7ll7e7kj7,SKBgR0jc,2020-0188,2020-06-16,09:58:48,10:23:20,NA,incomplete,15,filling,1,right,Green_Star_Dots_3.jpg,Blue_Plus_Grid_3.jpg,Purple_Circle_Dots_1.jpg,right,1500.579999992624,true,high,false
SKBgR0jc,3peg1bh7bh4xuzsxamnfbz6ha40bkr,33nf62tlxnf5z2o3pg5yy7ll7e7kj7,SKBgR0jc,2020-0188,2020-06-16,09:58:48,10:23:20,NA,incomplete,16,filling,1,right,Green_Plus_Grid_4.jpg,Blue_Star_Stripes_4.jpg,Red_Circle_Grid_2.jpg,right,1656.8749999860302,true,high,false
SKBgR0jc,3peg1bh7bh4xuzsxamnfbz6ha40bkr,33nf62tlxnf5z2o3pg5yy7ll7e7kj7,SKBgR0jc,2020-0188,2020-06-16,09:58:48,10:23:20,NA,incomplete,17,filling,1,left,Red_Star_Stripes_1.jpg,Purple_Circle_Stripes_4.jpg,Blue_Triangle_Dots_1.jpg,left,1428.7750000075903,true,high,false
SKBgR0jc,3peg1bh7bh4xuzsxamnfbz6ha40bkr,33nf62tlxnf5z2o3pg5yy7ll7e7kj7,SKBgR0jc,2020-0188,2020-06-16,09:58:48,10:23:20,NA,incomplete,18,filling,0,right,Green_Circle_Grid_2.jpg,Purple_Triangle_Chess_2.jpg,Blue_Star_Grid_3.jpg,right,1282.9750000091735,true,high,false
SKBgR0jc,3peg1bh7bh4xuzsxamnfbz6ha40bkr,33nf62tlxnf5z2o3pg5yy7ll7e7kj7,SKBgR0jc,2020-0188,2020-06-16,09:58:48,10:23:20,NA,incomplete,19,filling,1,right,Red_Circle_Stripes_4.jpg,Blue_Plus_Dots_4.jpg,Green_Star_Stripes_2.jpg,right,1688.5849999962375,true,high,false
SKBgR0jc,3peg1bh7bh4xuzsxamnfbz6ha40bkr,33nf62tlxnf5z2o3pg5yy7ll7e7kj7,SKBgR0jc,2020-0188,2020-06-16,09:58:48,10:23:20,NA,incomplete,20,number,1,left,Blue_Plus_Chess_3.jpg,Red_Star_Dots_3.jpg,Purple_Triangle_Chess_2.jpg,left,1541.735000006156,true,high,false
SKBgR0jc,3peg1bh7bh4xuzsxamnfbz6ha40bkr,33nf62tlxnf5z2o3pg5yy7ll7e7kj7,SKBgR0jc,2020-0188,2020-06-16,09:58:48,10:23:20,NA,incomplete,21,number,1,right,Blue_Triangle_Chess_3.jpg,Purple_Circle_Chess_1.jpg,Red_Plus_Stripes_3.jpg,right,1228.690000018105,true,high,false
SKBgR0jc,3peg1bh7bh4xuzsxamnfbz6ha40bkr,33nf62tlxnf5z2o3pg5yy7ll7e7kj7,SKBgR0jc,2020-0188,2020-06-16,09:58:48,10:23:20,NA,incomplete,22,number,0,right,Green_Triangle_Chess_1.jpg,Red_Star_Chess_3.jpg,Blue_Circle_Dots_1.jpg,right,1298.1849999923725,true,high,false
SKBgR0jc,3peg1bh7bh4xuzsxamnfbz6ha40bkr,33nf62tlxnf5z2o3pg5yy7ll7e7kj7,SKBgR0jc,2020-0188,2020-06-16,09:58:48,10:23:20,NA,incomplete,23,number,0,right,Purple_Star_Dots_3.jpg,Blue_Plus_Dots_1.jpg,Red_Triangle_Stripes_3.jpg,right,2000.1049999846146,true,high,false
SKBgR0jc,3peg1bh7bh4xuzsxamnfbz6ha40bkr,33nf62tlxnf5z2o3pg5yy7ll7e7kj7,SKBgR0jc,2020-0188,2020-06-16,09:58:48,10:23:20,NA,incomplete,24,number,1,left,Red_Plus_Chess_2.jpg,Blue_Circle_Dots_2.jpg,Green_Triangle_Chess_1.jpg,right,1679.5949999941513,false,high,false
SKBgR0jc,3peg1bh7bh4xuzsxamnfbz6ha40bkr,33nf62tlxnf5z2o3pg5yy7ll7e7kj7,SKBgR0jc,2020-0188,2020-06-16,09:58:48,10:23:20,NA,incomplete,25,number,1,left,Purple_Circle_Chess_2.jpg,Green_Triangle_Stripes_2.jpg,Red_Plus_Chess_3.jpg,right,1775.8250000188127,false,high,false
SKBgR0jc,3peg1bh7bh4xuzsxamnfbz6ha40bkr,33nf62tlxnf5z2o3pg5yy7ll7e7kj7,SKBgR0jc,2020-0188,2020-06-16,09:58:48,10:23:20,NA,incomplete,26,number,0,right,Red_Star_Chess_1.jpg,Blue_Circle_Chess_2.jpg,Purple_Triangle_Grid_1.jpg,right,1024.4999999995343,true,high,false
SKBgR0jc,3peg1bh7bh4xuzsxamnfbz6ha40bkr,33nf62tlxnf5z2o3pg5yy7ll7e7kj7,SKBgR0jc,2020-0188,2020-06-16,09:58:48,10:23:20,NA,incomplete,27,number,1,left,Purple_Circle_Grid_1.jpg,Red_Triangle_Stripes_1.jpg,Blue_Star_Grid_2.jpg,left,1037.9200000024866,true,high,false
SKBgR0jc,3peg1bh7bh4xuzsxamnfbz6ha40bkr,33nf62tlxnf5z2o3pg5yy7ll7e7kj7,SKBgR0jc,2020-0188,2020-06-16,09:58:48,10:23:20,NA,incomplete,28,number,1,right,Green_Plus_Stripes_3.jpg,Purple_Circle_Stripes_2.jpg,Red_Triangle_Chess_3.jpg,right,1355.7399999990594,true,high,false
SKBgR0jc,3peg1bh7bh4xuzsxamnfbz6ha40bkr,33nf62tlxnf5z2o3pg5yy7ll7e7kj7,SKBgR0jc,2020-0188,2020-06-16,09:58:48,10:23:20,NA,incomplete,29,number,1,left,Purple_Circle_Chess_3.jpg,Blue_Star_Stripes_3.jpg,Red_Plus_Chess_4.jpg,left,1293.854999996256,true,high,false
SKBgR0jc,3peg1bh7bh4xuzsxamnfbz6ha40bkr,33nf62tlxnf5z2o3pg5yy7ll7e7kj7,SKBgR0jc,2020-0188,2020-06-16,09:58:48,10:23:20,NA,incomplete,30,filling,1,left,Green_Star_Chess_3.jpg,Purple_Triangle_Chess_2.jpg,Blue_Circle_Stripes_3.jpg,right,1423.2049999991432,false,high,false
SKBgR0jc,3peg1bh7bh4xuzsxamnfbz6ha40bkr,33nf62tlxnf5z2o3pg5yy7ll7e7kj7,SKBgR0jc,2020-0188,2020-06-16,09:58:48,10:23:20,NA,incomplete,31,filling,1,right,Blue_Star_Dots_1.jpg,Green_Plus_Stripes_1.jpg,Red_Circle_Dots_2.jpg,left,1191.530000010971,false,high,false
SKBgR0jc,3peg1bh7bh4xuzsxamnfbz6ha40bkr,33nf62tlxnf5z2o3pg5yy7ll7e7kj7,SKBgR0jc,2020-0188,2020-06-16,09:58:48,10:23:20,NA,incomplete,32,filling,0,left,Green_Plus_Stripes_2.jpg,Purple_Star_Stripes_4.jpg,Blue_Triangle_Chess_2.jpg,left,1246.5850000153296,true,high,false
SKBgR0jc,3peg1bh7bh4xuzsxamnfbz6ha40bkr,33nf62tlxnf5z2o3pg5yy7ll7e7kj7,SKBgR0jc,2020-0188,2020-06-16,09:58:48,10:23:20,NA,incomplete,33,filling,1,left,Blue_Circle_Chess_1.jpg,Green_Star_Chess_4.jpg,Purple_Triangle_Stripes_1.jpg,left,1272.1000000019558,true,high,false
SKBgR0jc,3peg1bh7bh4xuzsxamnfbz6ha40bkr,33nf62tlxnf5z2o3pg5yy7ll7e7kj7,SKBgR0jc,2020-0188,2020-06-16,09:58:48,10:23:20,NA,incomplete,34,filling,0,left,Blue_Circle_Grid_1.jpg,Purple_Plus_Grid_2.jpg,Red_Star_Dots_1.jpg,left,1258.17499999539,true,high,false
SKBgR0jc,3peg1bh7bh4xuzsxamnfbz6ha40bkr,33nf62tlxnf5z2o3pg5yy7ll7e7kj7,SKBgR0jc,2020-0188,2020-06-16,09:58:48,10:23:20,NA,incomplete,35,filling,1,left,Purple_Circle_Dots_3.jpg,Green_Star_Dots_2.jpg,Blue_Triangle_Chess_3.jpg,right,1318.474999978207,false,high,false
SKBgR0jc,3peg1bh7bh4xuzsxamnfbz6ha40bkr,33nf62tlxnf5z2o3pg5yy7ll7e7kj7,SKBgR0jc,2020-0188,2020-06-16,09:58:48,10:23:20,NA,incomplete,36,filling,1,left,Red_Circle_Grid_2.jpg,Green_Plus_Grid_3.jpg,Purple_Star_Stripes_2.jpg,left,1877.8800000145566,true,high,false
SKBgR0jc,3peg1bh7bh4xuzsxamnfbz6ha40bkr,33nf62tlxnf5z2o3pg5yy7ll7e7kj7,SKBgR0jc,2020-0188,2020-06-16,09:58:48,10:23:20,NA,incomplete,37,filling,0,left,Blue_Triangle_Grid_2.jpg,Purple_Plus_Grid_1.jpg,Green_Circle_Stripes_2.jpg,left,1310.1600000227336,true,high,false
SKBgR0jc,3peg1bh7bh4xuzsxamnfbz6ha40bkr,33nf62tlxnf5z2o3pg5yy7ll7e7kj7,SKBgR0jc,2020-0188,2020-06-16,09:58:48,10:23:20,NA,incomplete,38,filling,1,right,Purple_Star_Grid_3.jpg,Blue_Triangle_Stripes_3.jpg,Red_Circle_Grid_4.jpg,right,1400.2600000239909,true,high,false
SKBgR0jc,3peg1bh7bh4xuzsxamnfbz6ha40bkr,33nf62tlxnf5z2o3pg5yy7ll7e7kj7,SKBgR0jc,2020-0188,2020-06-16,09:58:48,10:23:20,NA,incomplete,39,filling,0,right,Purple_Plus_Stripes_2.jpg,Green_Circle_Dots_2.jpg,Blue_Triangle_Stripes_1.jpg,right,1375.6649999995716,true,high,false
SKBgR0jc,3peg1bh7bh4xuzsxamnfbz6ha40bkr,33nf62tlxnf5z2o3pg5yy7ll7e7kj7,SKBgR0jc,2020-0188,2020-06-16,09:58:48,10:23:20,NA,incomplete,40,number,1,left,Blue_Circle_Chess_1.jpg,Red_Triangle_Stripes_1.jpg,Green_Plus_Chess_2.jpg,none,0,false,high,false
SKBgR0jc,3peg1bh7bh4xuzsxamnfbz6ha40bkr,33nf62tlxnf5z2o3pg5yy7ll7e7kj7,SKBgR0jc,2020-0188,2020-06-16,09:58:48,10:23:20,NA,incomplete,41,number,1,right,Blue_Star_Stripes_4.jpg,Green_Triangle_Stripes_1.jpg,Purple_Circle_Dots_4.jpg,left,1055.5699999968056,false,high,false
SKBgR0jc,3peg1bh7bh4xuzsxamnfbz6ha40bkr,33nf62tlxnf5z2o3pg5yy7ll7e7kj7,SKBgR0jc,2020-0188,2020-06-16,09:58:48,10:23:20,NA,incomplete,42,number,1,left,Green_Plus_Grid_1.jpg,Blue_Circle_Dots_1.jpg,Purple_Star_Grid_4.jpg,right,1158.6349999997765,false,high,false
SKBgR0jc,3peg1bh7bh4xuzsxamnfbz6ha40bkr,33nf62tlxnf5z2o3pg5yy7ll7e7kj7,SKBgR0jc,2020-0188,2020-06-16,09:58:48,10:23:20,NA,incomplete,43,number,1,left,Blue_Plus_Dots_3.jpg,Green_Circle_Chess_3.jpg,Purple_Triangle_Dots_2.jpg,left,1065.2800000098068,true,high,false
SKBgR0jc,3peg1bh7bh4xuzsxamnfbz6ha40bkr,33nf62tlxnf5z2o3pg5yy7ll7e7kj7,SKBgR0jc,2020-0188,2020-06-16,09:58:48,10:23:20,NA,incomplete,44,number,1,right,Green_Star_Dots_3.jpg,Blue_Plus_Dots_1.jpg,Red_Circle_Chess_3.jpg,right,819.645000010496,true,high,false
SKBgR0jc,3peg1bh7bh4xuzsxamnfbz6ha40bkr,33nf62tlxnf5z2o3pg5yy7ll7e7kj7,SKBgR0jc,2020-0188,2020-06-16,09:58:48,10:23:20,NA,incomplete,45,number,0,left,Purple_Plus_Dots_3.jpg,Blue_Triangle_Grid_3.jpg,Red_Star_Dots_1.jpg,left,892.8500000038184,true,high,false
SKBgR0jc,3peg1bh7bh4xuzsxamnfbz6ha40bkr,33nf62tlxnf5z2o3pg5yy7ll7e7kj7,SKBgR0jc,2020-0188,2020-06-16,09:58:48,10:23:20,NA,incomplete,46,number,1,right,Green_Triangle_Dots_4.jpg,Blue_Circle_Dots_2.jpg,Red_Star_Grid_4.jpg,left,1097.6850000151899,false,high,false
SKBgR0jc,3peg1bh7bh4xuzsxamnfbz6ha40bkr,33nf62tlxnf5z2o3pg5yy7ll7e7kj7,SKBgR0jc,2020-0188,2020-06-16,09:58:48,10:23:20,NA,incomplete,47,number,1,left,Blue_Star_Grid_4.jpg,Purple_Circle_Stripes_4.jpg,Green_Plus_Grid_3.jpg,right,1161.2650000024587,false,high,false
SKBgR0jc,3peg1bh7bh4xuzsxamnfbz6ha40bkr,33nf62tlxnf5z2o3pg5yy7ll7e7kj7,SKBgR0jc,2020-0188,2020-06-16,09:58:48,10:23:20,NA,incomplete,48,number,1,right,Green_Star_Chess_1.jpg,Blue_Triangle_Chess_4.jpg,Red_Circle_Stripes_1.jpg,right,1000.9799999825191,true,high,false
SKBgR0jc,3peg1bh7bh4xuzsxamnfbz6ha40bkr,33nf62tlxnf5z2o3pg5yy7ll7e7kj7,SKBgR0jc,2020-0188,2020-06-16,09:58:48,10:23:20,NA,incomplete,49,number,1,right,Red_Star_Dots_2.jpg,Green_Plus_Dots_1.jpg,Purple_Circle_Chess_2.jpg,right,1070.1699999917764,true,high,false
SKBgR0jc,3peg1bh7bh4xuzsxamnfbz6ha40bkr,33nf62tlxnf5z2o3pg5yy7ll7e7kj7,SKBgR0jc,2020-0188,2020-06-16,09:58:48,10:23:20,NA,incomplete,50,filling,1,right,Green_Plus_Dots_4.jpg,Purple_Triangle_Chess_4.jpg,Blue_Circle_Dots_1.jpg,left,807.2850000171456,false,high,false
SKBgR0jc,3peg1bh7bh4xuzsxamnfbz6ha40bkr,33nf62tlxnf5z2o3pg5yy7ll7e7kj7,SKBgR0jc,2020-0188,2020-06-16,09:58:48,10:23:20,NA,incomplete,51,filling,1,left,Red_Triangle_Stripes_1.jpg,Purple_Star_Stripes_2.jpg,Green_Plus_Dots_1.jpg,right,1296.0350000066683,false,high,false
SKBgR0jc,3peg1bh7bh4xuzsxamnfbz6ha40bkr,33nf62tlxnf5z2o3pg5yy7ll7e7kj7,SKBgR0jc,2020-0188,2020-06-16,09:58:48,10:23:20,NA,incomplete,52,filling,1,right,Blue_Star_Chess_2.jpg,Green_Circle_Dots_2.jpg,Red_Plus_Chess_3.jpg,right,1131.5000000176951,true,high,false
SKBgR0jc,3peg1bh7bh4xuzsxamnfbz6ha40bkr,33nf62tlxnf5z2o3pg5yy7ll7e7kj7,SKBgR0jc,2020-0188,2020-06-16,09:58:48,10:23:20,NA,incomplete,53,filling,1,left,Green_Triangle_Grid_1.jpg,Blue_Plus_Grid_3.jpg,Purple_Circle_Chess_1.jpg,left,1033.4599999769125,true,high,false
SKBgR0jc,3peg1bh7bh4xuzsxamnfbz6ha40bkr,33nf62tlxnf5z2o3pg5yy7ll7e7kj7,SKBgR0jc,2020-0188,2020-06-16,09:58:48,10:23:20,NA,incomplete,54,filling,1,right,Red_Plus_Stripes_1.jpg,Blue_Triangle_Grid_1.jpg,Purple_Circle_Stripes_3.jpg,right,1262.5049999915063,true,high,false
SKBgR0jc,3peg1bh7bh4xuzsxamnfbz6ha40bkr,33nf62tlxnf5z2o3pg5yy7ll7e7kj7,SKBgR0jc,2020-0188,2020-06-16,09:58:48,10:23:20,NA,incomplete,55,filling,1,right,Purple_Triangle_Dots_2.jpg,Red_Circle_Stripes_2.jpg,Blue_Plus_Dots_1.jpg,right,1176.6200000129174,true,high,false
SKBgR0jc,3peg1bh7bh4xuzsxamnfbz6ha40bkr,33nf62tlxnf5z2o3pg5yy7ll7e7kj7,SKBgR0jc,2020-0188,2020-06-16,09:58:48,10:23:20,NA,incomplete,56,filling,0,right,Green_Triangle_Grid_3.jpg,Purple_Circle_Chess_3.jpg,Red_Plus_Grid_4.jpg,right,1257.7600000076927,true,high,false
SKBgR0jc,3peg1bh7bh4xuzsxamnfbz6ha40bkr,33nf62tlxnf5z2o3pg5yy7ll7e7kj7,SKBgR0jc,2020-0188,2020-06-16,09:58:48,10:23:20,NA,incomplete,57,filling,1,right,Green_Triangle_Chess_1.jpg,Blue_Circle_Stripes_1.jpg,Red_Star_Chess_3.jpg,left,861.9400000025053,false,high,false
SKBgR0jc,3peg1bh7bh4xuzsxamnfbz6ha40bkr,33nf62tlxnf5z2o3pg5yy7ll7e7kj7,SKBgR0jc,2020-0188,2020-06-16,09:58:48,10:23:20,NA,incomplete,58,filling,1,left,Green_Plus_Chess_4.jpg,Blue_Circle_Chess_2.jpg,Red_Star_Dots_4.jpg,left,1156.3650000025518,true,high,false
SKBgR0jc,3peg1bh7bh4xuzsxamnfbz6ha40bkr,33nf62tlxnf5z2o3pg5yy7ll7e7kj7,SKBgR0jc,2020-0188,2020-06-16,09:58:48,10:23:20,NA,incomplete,59,filling,1,left,Blue_Triangle_Chess_4.jpg,Green_Circle_Chess_1.jpg,Purple_Star_Grid_4.jpg,left,949.3749999965075,true,high,false
SKBgR0jc,3peg1bh7bh4xuzsxamnfbz6ha40bkr,33nf62tlxnf5z2o3pg5yy7ll7e7kj7,SKBgR0jc,2020-0188,2020-06-16,09:58:48,10:23:20,NA,incomplete,60,number,0,left,Red_Triangle_Dots_4.jpg,Purple_Circle_Stripes_4.jpg,Green_Star_Dots_2.jpg,right,1166.7099999904167,false,high,false
SKBgR0jc,3peg1bh7bh4xuzsxamnfbz6ha40bkr,33nf62tlxnf5z2o3pg5yy7ll7e7kj7,SKBgR0jc,2020-0188,2020-06-16,09:58:48,10:23:20,NA,incomplete,61,number,1,left,Purple_Triangle_Grid_3.jpg,Blue_Circle_Dots_3.jpg,Red_Star_Grid_4.jpg,right,1218.1999999738764,false,high,false
SKBgR0jc,3peg1bh7bh4xuzsxamnfbz6ha40bkr,33nf62tlxnf5z2o3pg5yy7ll7e7kj7,SKBgR0jc,2020-0188,2020-06-16,09:58:48,10:23:20,NA,incomplete,62,number,1,right,Green_Star_Dots_1.jpg,Blue_Plus_Dots_3.jpg,Red_Circle_Stripes_1.jpg,right,1209.7300000023097,true,high,false
SKBgR0jc,3peg1bh7bh4xuzsxamnfbz6ha40bkr,33nf62tlxnf5z2o3pg5yy7ll7e7kj7,SKBgR0jc,2020-0188,2020-06-16,09:58:48,10:23:20,NA,incomplete,63,number,1,left,Blue_Circle_Grid_3.jpg,Green_Plus_Stripes_3.jpg,Red_Star_Grid_1.jpg,left,869.6000000054482,true,high,false
SKBgR0jc,3peg1bh7bh4xuzsxamnfbz6ha40bkr,33nf62tlxnf5z2o3pg5yy7ll7e7kj7,SKBgR0jc,2020-0188,2020-06-16,09:58:48,10:23:20,NA,incomplete,64,number,1,left,Blue_Star_Stripes_4.jpg,Green_Triangle_Grid_4.jpg,Purple_Circle_Stripes_1.jpg,left,1051.374999980908,true,high,false
SKBgR0jc,3peg1bh7bh4xuzsxamnfbz6ha40bkr,33nf62tlxnf5z2o3pg5yy7ll7e7kj7,SKBgR0jc,2020-0188,2020-06-16,09:58:48,10:23:20,NA,incomplete,65,number,0,left,Purple_Plus_Stripes_3.jpg,Red_Circle_Chess_3.jpg,Green_Triangle_Stripes_4.jpg,left,1307.0250000164378,true,high,false
SKBgR0jc,3peg1bh7bh4xuzsxamnfbz6ha40bkr,33nf62tlxnf5z2o3pg5yy7ll7e7kj7,SKBgR0jc,2020-0188,2020-06-16,09:58:48,10:23:20,NA,incomplete,66,number,1,left,Green_Triangle_Chess_2.jpg,Purple_Star_Grid_2.jpg,Red_Plus_Chess_1.jpg,right,1151.4099999913014,false,high,false
SKBgR0jc,3peg1bh7bh4xuzsxamnfbz6ha40bkr,33nf62tlxnf5z2o3pg5yy7ll7e7kj7,SKBgR0jc,2020-0188,2020-06-16,09:58:48,10:23:20,NA,incomplete,67,number,1,right,Blue_Plus_Grid_4.jpg,Red_Circle_Grid_2.jpg,Green_Star_Chess_4.jpg,right,1125.8099999977276,true,high,false
SKBgR0jc,3peg1bh7bh4xuzsxamnfbz6ha40bkr,33nf62tlxnf5z2o3pg5yy7ll7e7kj7,SKBgR0jc,2020-0188,2020-06-16,09:58:48,10:23:20,NA,incomplete,68,number,1,right,Red_Triangle_Chess_1.jpg,Green_Circle_Chess_4.jpg,Blue_Plus_Dots_1.jpg,right,1067.8349999943748,true,high,false
SKBgR0jc,3peg1bh7bh4xuzsxamnfbz6ha40bkr,33nf62tlxnf5z2o3pg5yy7ll7e7kj7,SKBgR0jc,2020-0188,2020-06-16,09:58:48,10:23:20,NA,incomplete,69,number,1,left,Purple_Triangle_Stripes_3.jpg,Blue_Circle_Chess_3.jpg,Green_Plus_Stripes_4.jpg,left,1402.555000007851,true,high,false
SKBgR0jc,3peg1bh7bh4xuzsxamnfbz6ha40bkr,33nf62tlxnf5z2o3pg5yy7ll7e7kj7,SKBgR0jc,2020-0188,2020-06-16,09:58:48,10:23:20,NA,incomplete,70,filling,1,left,Blue_Triangle_Stripes_2.jpg,Purple_Circle_Stripes_1.jpg,Red_Star_Dots_2.jpg,right,833.1000000180211,false,high,false
SKBgR0jc,3peg1bh7bh4xuzsxamnfbz6ha40bkr,33nf62tlxnf5z2o3pg5yy7ll7e7kj7,SKBgR0jc,2020-0188,2020-06-16,09:58:48,10:23:20,NA,incomplete,71,filling,1,left,Red_Plus_Dots_1.jpg,Green_Triangle_Dots_2.jpg,Blue_Star_Grid_1.jpg,left,1171.3250000029802,true,high,false
SKBgR0jc,3peg1bh7bh4xuzsxamnfbz6ha40bkr,33nf62tlxnf5z2o3pg5yy7ll7e7kj7,SKBgR0jc,2020-0188,2020-06-16,09:58:48,10:23:20,NA,incomplete,72,filling,1,left,Purple_Circle_Chess_2.jpg,Red_Star_Chess_4.jpg,Green_Plus_Dots_2.jpg,left,1006.0400000074878,true,high,false
SKBgR0jc,3peg1bh7bh4xuzsxamnfbz6ha40bkr,33nf62tlxnf5z2o3pg5yy7ll7e7kj7,SKBgR0jc,2020-0188,2020-06-16,09:58:48,10:23:20,NA,incomplete,73,filling,1,right,Red_Star_Dots_1.jpg,Purple_Circle_Chess_1.jpg,Green_Plus_Dots_3.jpg,right,1224.0199999941979,true,high,false
SKBgR0jc,3peg1bh7bh4xuzsxamnfbz6ha40bkr,33nf62tlxnf5z2o3pg5yy7ll7e7kj7,SKBgR0jc,2020-0188,2020-06-16,09:58:48,10:23:20,NA,incomplete,74,filling,1,left,Purple_Circle_Grid_3.jpg,Green_Star_Grid_4.jpg,Red_Triangle_Dots_3.jpg,left,1083.600000012666,true,high,false
SKBgR0jc,3peg1bh7bh4xuzsxamnfbz6ha40bkr,33nf62tlxnf5z2o3pg5yy7ll7e7kj7,SKBgR0jc,2020-0188,2020-06-16,09:58:48,10:23:20,NA,incomplete,75,filling,1,left,Purple_Triangle_Dots_3.jpg,Blue_Plus_Dots_2.jpg,Green_Star_Chess_3.jpg,left,1292.2799999942072,true,high,false
SKBgR0jc,3peg1bh7bh4xuzsxamnfbz6ha40bkr,33nf62tlxnf5z2o3pg5yy7ll7e7kj7,SKBgR0jc,2020-0188,2020-06-16,09:58:48,10:23:20,NA,incomplete,76,filling,0,left,Red_Star_Grid_1.jpg,Purple_Circle_Grid_4.jpg,Green_Triangle_Stripes_1.jpg,left,1123.315000004368,true,high,false
SKBgR0jc,3peg1bh7bh4xuzsxamnfbz6ha40bkr,33nf62tlxnf5z2o3pg5yy7ll7e7kj7,SKBgR0jc,2020-0188,2020-06-16,09:58:48,10:23:20,NA,incomplete,77,filling,0,left,Purple_Star_Stripes_2.jpg,Red_Triangle_Stripes_1.jpg,Blue_Plus_Chess_2.jpg,right,937.05000000773,false,high,false
SKBgR0jc,3peg1bh7bh4xuzsxamnfbz6ha40bkr,33nf62tlxnf5z2o3pg5yy7ll7e7kj7,SKBgR0jc,2020-0188,2020-06-16,09:58:48,10:23:20,NA,incomplete,78,filling,1,left,Blue_Triangle_Grid_2.jpg,Purple_Star_Grid_4.jpg,Green_Circle_Dots_2.jpg,right,1080.5549999931827,false,high,false
SKBgR0jc,3peg1bh7bh4xuzsxamnfbz6ha40bkr,33nf62tlxnf5z2o3pg5yy7ll7e7kj7,SKBgR0jc,2020-0188,2020-06-16,09:58:48,10:23:20,NA,incomplete,79,filling,1,left,Green_Triangle_Stripes_4.jpg,Red_Star_Stripes_2.jpg,Blue_Circle_Grid_4.jpg,left,1154.099999985192,true,high,false
SKBgR0jc,3peg1bh7bh4xuzsxamnfbz6ha40bkr,33nf62tlxnf5z2o3pg5yy7ll7e7kj7,SKBgR0jc,2020-0188,2020-06-16,09:58:48,10:23:20,NA,incomplete,80,number,1,right,Purple_Plus_Dots_3.jpg,Green_Star_Dots_4.jpg,Red_Circle_Chess_3.jpg,left,1184.594999998808,false,high,false
SKBgR0jc,3peg1bh7bh4xuzsxamnfbz6ha40bkr,33nf62tlxnf5z2o3pg5yy7ll7e7kj7,SKBgR0jc,2020-0188,2020-06-16,09:58:48,10:23:20,NA,incomplete,81,number,1,left,Red_Plus_Stripes_3.jpg,Green_Triangle_Dots_3.jpg,Purple_Circle_Stripes_1.jpg,left,834.7900000226218,true,high,false
SKBgR0jc,3peg1bh7bh4xuzsxamnfbz6ha40bkr,33nf62tlxnf5z2o3pg5yy7ll7e7kj7,SKBgR0jc,2020-0188,2020-06-16,09:58:48,10:23:20,NA,incomplete,82,number,0,right,Green_Star_Chess_3.jpg,Blue_Circle_Chess_1.jpg,Red_Plus_Dots_3.jpg,left,1138.0650000064634,false,high,false
SKBgR0jc,3peg1bh7bh4xuzsxamnfbz6ha40bkr,33nf62tlxnf5z2o3pg5yy7ll7e7kj7,SKBgR0jc,2020-0188,2020-06-16,09:58:48,10:23:20,NA,incomplete,83,number,1,right,Blue_Star_Stripes_1.jpg,Purple_Circle_Stripes_3.jpg,Green_Triangle_Chess_1.jpg,right,1060.444999980973,true,high,false
SKBgR0jc,3peg1bh7bh4xuzsxamnfbz6ha40bkr,33nf62tlxnf5z2o3pg5yy7ll7e7kj7,SKBgR0jc,2020-0188,2020-06-16,09:58:48,10:23:20,NA,incomplete,84,number,0,left,Green_Triangle_Dots_2.jpg,Purple_Circle_Stripes_2.jpg,Red_Plus_Dots_3.jpg,right,1386.51499999105,false,high,false
SKBgR0jc,3peg1bh7bh4xuzsxamnfbz6ha40bkr,33nf62tlxnf5z2o3pg5yy7ll7e7kj7,SKBgR0jc,2020-0188,2020-06-16,09:58:48,10:23:20,NA,incomplete,85,number,1,left,Red_Triangle_Stripes_2.jpg,Green_Plus_Chess_2.jpg,Purple_Circle_Stripes_3.jpg,left,909.3700000084937,true,high,false
SKBgR0jc,3peg1bh7bh4xuzsxamnfbz6ha40bkr,33nf62tlxnf5z2o3pg5yy7ll7e7kj7,SKBgR0jc,2020-0188,2020-06-16,09:58:48,10:23:20,NA,incomplete,86,number,1,left,Purple_Circle_Dots_3.jpg,Red_Star_Stripes_3.jpg,Blue_Plus_Dots_4.jpg,right,1139.5100000081584,false,high,false
SKBgR0jc,3peg1bh7bh4xuzsxamnfbz6ha40bkr,33nf62tlxnf5z2o3pg5yy7ll7e7kj7,SKBgR0jc,2020-0188,2020-06-16,09:58:48,10:23:20,NA,incomplete,87,number,0,right,Red_Star_Dots_2.jpg,Green_Circle_Dots_4.jpg,Purple_Triangle_Grid_2.jpg,right,1010.840000002645,true,high,false
SKBgR0jc,3peg1bh7bh4xuzsxamnfbz6ha40bkr,33nf62tlxnf5z2o3pg5yy7ll7e7kj7,SKBgR0jc,2020-0188,2020-06-16,09:58:48,10:23:20,NA,incomplete,88,number,1,left,Red_Circle_Stripes_3.jpg,Green_Star_Dots_3.jpg,Blue_Triangle_Stripes_1.jpg,right,1103.4749999816995,false,high,false
SKBgR0jc,3peg1bh7bh4xuzsxamnfbz6ha40bkr,33nf62tlxnf5z2o3pg5yy7ll7e7kj7,SKBgR0jc,2020-0188,2020-06-16,09:58:48,10:23:20,NA,incomplete,89,number,1,left,Blue_Plus_Dots_1.jpg,Red_Triangle_Stripes_1.jpg,Green_Circle_Dots_4.jpg,right,1264.27500002319,false,high,false
SKBgR0jc,3peg1bh7bh4xuzsxamnfbz6ha40bkr,33nf62tlxnf5z2o3pg5yy7ll7e7kj7,SKBgR0jc,2020-0188,2020-06-16,09:58:48,10:23:20,NA,incomplete,90,filling,0,left,Blue_Star_Grid_4.jpg,Green_Triangle_Grid_3.jpg,Purple_Plus_Dots_4.jpg,right,1383.6749999900348,false,high,false
SKBgR0jc,3peg1bh7bh4xuzsxamnfbz6ha40bkr,33nf62tlxnf5z2o3pg5yy7ll7e7kj7,SKBgR0jc,2020-0188,2020-06-16,09:58:48,10:23:20,NA,incomplete,91,filling,1,right,Red_Triangle_Grid_3.jpg,Blue_Circle_Chess_3.jpg,Purple_Star_Grid_4.jpg,right,1163.4950000152458,true,high,false
SKBgR0jc,3peg1bh7bh4xuzsxamnfbz6ha40bkr,33nf62tlxnf5z2o3pg5yy7ll7e7kj7,SKBgR0jc,2020-0188,2020-06-16,09:58:48,10:23:20,NA,incomplete,92,filling,1,left,Green_Star_Stripes_2.jpg,Blue_Triangle_Stripes_1.jpg,Red_Circle_Grid_2.jpg,left,1119.3900000071153,true,high,false
SKBgR0jc,3peg1bh7bh4xuzsxamnfbz6ha40bkr,33nf62tlxnf5z2o3pg5yy7ll7e7kj7,SKBgR0jc,2020-0188,2020-06-16,09:58:48,10:23:20,NA,incomplete,93,filling,1,left,Purple_Circle_Dots_4.jpg,Red_Triangle_Dots_3.jpg,Green_Star_Grid_4.jpg,left,1063.880000001518,true,high,false
SKBgR0jc,3peg1bh7bh4xuzsxamnfbz6ha40bkr,33nf62tlxnf5z2o3pg5yy7ll7e7kj7,SKBgR0jc,2020-0188,2020-06-16,09:58:48,10:23:20,NA,incomplete,94,filling,1,left,Purple_Star_Chess_2.jpg,Green_Triangle_Chess_3.jpg,Blue_Plus_Grid_2.jpg,left,1004.3450000230223,true,high,false
SKBgR0jc,3peg1bh7bh4xuzsxamnfbz6ha40bkr,33nf62tlxnf5z2o3pg5yy7ll7e7kj7,SKBgR0jc,2020-0188,2020-06-16,09:58:48,10:23:20,NA,incomplete,95,filling,1,right,Red_Triangle_Grid_1.jpg,Green_Star_Dots_1.jpg,Blue_Plus_Grid_3.jpg,right,1087.7499999769498,true,high,false
SKBgR0jc,3peg1bh7bh4xuzsxamnfbz6ha40bkr,33nf62tlxnf5z2o3pg5yy7ll7e7kj7,SKBgR0jc,2020-0188,2020-06-16,09:58:48,10:23:20,NA,incomplete,96,filling,1,left,Green_Circle_Chess_3.jpg,Red_Plus_Chess_4.jpg,Blue_Triangle_Stripes_3.jpg,left,986.8650000134949,true,high,false
SKBgR0jc,3peg1bh7bh4xuzsxamnfbz6ha40bkr,33nf62tlxnf5z2o3pg5yy7ll7e7kj7,SKBgR0jc,2020-0188,2020-06-16,09:58:48,10:23:20,NA,incomplete,97,filling,0,right,Green_Star_Chess_1.jpg,Red_Circle_Grid_1.jpg,Purple_Plus_Chess_2.jpg,right,1042.2300000209361,true,high,false
SKBgR0jc,3peg1bh7bh4xuzsxamnfbz6ha40bkr,33nf62tlxnf5z2o3pg5yy7ll7e7kj7,SKBgR0jc,2020-0188,2020-06-16,09:58:48,10:23:20,NA,incomplete,98,filling,1,left,Red_Triangle_Chess_3.jpg,Green_Circle_Chess_1.jpg,Blue_Plus_Grid_3.jpg,left,1033.915000007255,true,high,false
SKBgR0jc,3peg1bh7bh4xuzsxamnfbz6ha40bkr,33nf62tlxnf5z2o3pg5yy7ll7e7kj7,SKBgR0jc,2020-0188,2020-06-16,09:58:48,10:23:20,NA,incomplete,99,filling,1,left,Red_Circle_Dots_3.jpg,Green_Triangle_Dots_1.jpg,Purple_Star_Chess_3.jpg,left,1085.9349999809638,true,high,false
SKBgR0jc,3peg1bh7bh4xuzsxamnfbz6ha40bkr,33nf62tlxnf5z2o3pg5yy7ll7e7kj7,SKBgR0jc,2020-0188,2020-06-16,09:58:48,10:23:20,NA,incomplete,100,number,1,left,Red_Plus_Chess_2.jpg,Blue_Star_Grid_2.jpg,Purple_Circle_Chess_3.jpg,right,1196.5349999954924,false,high,false
SKBgR0jc,3peg1bh7bh4xuzsxamnfbz6ha40bkr,33nf62tlxnf5z2o3pg5yy7ll7e7kj7,SKBgR0jc,2020-0188,2020-06-16,09:58:48,10:23:20,NA,incomplete,101,number,1,left,Red_Star_Stripes_2.jpg,Purple_Plus_Grid_2.jpg,Blue_Triangle_Stripes_1.jpg,right,1258.3150000136811,false,high,false
SKBgR0jc,3peg1bh7bh4xuzsxamnfbz6ha40bkr,33nf62tlxnf5z2o3pg5yy7ll7e7kj7,SKBgR0jc,2020-0188,2020-06-16,09:58:48,10:23:20,NA,incomplete,102,number,1,left,Blue_Triangle_Chess_2.jpg,Green_Star_Stripes_2.jpg,Red_Circle_Chess_1.jpg,left,827.4749999982305,true,high,false
SKBgR0jc,3peg1bh7bh4xuzsxamnfbz6ha40bkr,33nf62tlxnf5z2o3pg5yy7ll7e7kj7,SKBgR0jc,2020-0188,2020-06-16,09:58:48,10:23:20,NA,incomplete,103,number,1,left,Red_Triangle_Stripes_3.jpg,Green_Circle_Grid_3.jpg,Blue_Star_Stripes_4.jpg,left,1000.4100000078324,true,high,false
SKBgR0jc,3peg1bh7bh4xuzsxamnfbz6ha40bkr,33nf62tlxnf5z2o3pg5yy7ll7e7kj7,SKBgR0jc,2020-0188,2020-06-16,09:58:48,10:23:20,NA,incomplete,104,number,1,right,Green_Plus_Grid_2.jpg,Blue_Star_Grid_1.jpg,Red_Triangle_Stripes_2.jpg,right,963.0400000023656,true,high,false
SKBgR0jc,3peg1bh7bh4xuzsxamnfbz6ha40bkr,33nf62tlxnf5z2o3pg5yy7ll7e7kj7,SKBgR0jc,2020-0188,2020-06-16,09:58:48,10:23:20,NA,incomplete,105,number,0,right,Red_Circle_Grid_1.jpg,Purple_Plus_Grid_4.jpg,Blue_Triangle_Chess_1.jpg,right,998.7850000034086,true,high,false
SKBgR0jc,3peg1bh7bh4xuzsxamnfbz6ha40bkr,33nf62tlxnf5z2o3pg5yy7ll7e7kj7,SKBgR0jc,2020-0188,2020-06-16,09:58:48,10:23:20,NA,incomplete,106,number,1,right,Blue_Circle_Grid_4.jpg,Purple_Star_Grid_2.jpg,Red_Triangle_Stripes_4.jpg,left,1303.1199999968521,false,high,false
SKBgR0jc,3peg1bh7bh4xuzsxamnfbz6ha40bkr,33nf62tlxnf5z2o3pg5yy7ll7e7kj7,SKBgR0jc,2020-0188,2020-06-16,09:58:48,10:23:20,NA,incomplete,107,number,1,left,Red_Plus_Grid_4.jpg,Purple_Circle_Stripes_4.jpg,Green_Triangle_Grid_2.jpg,right,1154.5449999975972,false,high,false
SKBgR0jc,3peg1bh7bh4xuzsxamnfbz6ha40bkr,33nf62tlxnf5z2o3pg5yy7ll7e7kj7,SKBgR0jc,2020-0188,2020-06-16,09:58:48,10:23:20,NA,incomplete,108,number,1,right,Red_Plus_Stripes_2.jpg,Green_Star_Stripes_3.jpg,Blue_Circle_Grid_2.jpg,right,1108.8150000141468,true,high,false
SKBgR0jc,3peg1bh7bh4xuzsxamnfbz6ha40bkr,33nf62tlxnf5z2o3pg5yy7ll7e7kj7,SKBgR0jc,2020-0188,2020-06-16,09:58:48,10:23:20,NA,incomplete,109,number,1,right,Red_Circle_Stripes_1.jpg,Purple_Star_Stripes_2.jpg,Green_Triangle_Dots_1.jpg,right,1030.4049999976996,true,high,false
SKBgR0jc,3peg1bh7bh4xuzsxamnfbz6ha40bkr,33nf62tlxnf5z2o3pg5yy7ll7e7kj7,SKBgR0jc,2020-0188,2020-06-16,09:58:48,10:23:20,NA,incomplete,110,filling,0,right,Red_Triangle_Grid_2.jpg,Blue_Circle_Stripes_2.jpg,Green_Star_Grid_1.jpg,right,1204.9499999848194,true,high,false
SKBgR0jc,3peg1bh7bh4xuzsxamnfbz6ha40bkr,33nf62tlxnf5z2o3pg5yy7ll7e7kj7,SKBgR0jc,2020-0188,2020-06-16,09:58:48,10:23:20,NA,incomplete,111,filling,1,left,Green_Star_Grid_4.jpg,Purple_Plus_Grid_2.jpg,Blue_Circle_Stripes_4.jpg,left,1136.2000000081025,true,high,false
SKBgR0jc,3peg1bh7bh4xuzsxamnfbz6ha40bkr,33nf62tlxnf5z2o3pg5yy7ll7e7kj7,SKBgR0jc,2020-0188,2020-06-16,09:58:48,10:23:20,NA,incomplete,112,filling,1,left,Purple_Plus_Dots_2.jpg,Green_Star_Dots_3.jpg,Red_Circle_Stripes_2.jpg,right,1022.0700000063516,false,high,false
SKBgR0jc,3peg1bh7bh4xuzsxamnfbz6ha40bkr,33nf62tlxnf5z2o3pg5yy7ll7e7kj7,SKBgR0jc,2020-0188,2020-06-16,09:58:48,10:23:20,NA,incomplete,113,filling,1,right,Red_Circle_Dots_2.jpg,Blue_Plus_Grid_2.jpg,Green_Triangle_Dots_3.jpg,right,1479.8099999898113,true,high,false
SKBgR0jc,3peg1bh7bh4xuzsxamnfbz6ha40bkr,33nf62tlxnf5z2o3pg5yy7ll7e7kj7,SKBgR0jc,2020-0188,2020-06-16,09:58:48,10:23:20,NA,incomplete,114,filling,1,right,Blue_Plus_Dots_2.jpg,Green_Triangle_Grid_2.jpg,Red_Circle_Dots_1.jpg,right,1171.2999999872409,true,high,false
SKBgR0jc,3peg1bh7bh4xuzsxamnfbz6ha40bkr,33nf62tlxnf5z2o3pg5yy7ll7e7kj7,SKBgR0jc,2020-0188,2020-06-16,09:58:48,10:23:20,NA,incomplete,115,filling,1,left,Red_Triangle_Dots_1.jpg,Purple_Plus_Dots_2.jpg,Blue_Star_Chess_1.jpg,left,1113.3050000062212,true,high,false
SKBgR0jc,3peg1bh7bh4xuzsxamnfbz6ha40bkr,33nf62tlxnf5z2o3pg5yy7ll7e7kj7,SKBgR0jc,2020-0188,2020-06-16,09:58:48,10:23:20,NA,incomplete,116,filling,1,left,Blue_Circle_Dots_2.jpg,Purple_Plus_Dots_1.jpg,Green_Star_Stripes_2.jpg,left,1020.7050000026356,true,high,false
SKBgR0jc,3peg1bh7bh4xuzsxamnfbz6ha40bkr,33nf62tlxnf5z2o3pg5yy7ll7e7kj7,SKBgR0jc,2020-0188,2020-06-16,09:58:48,10:23:20,NA,incomplete,117,filling,1,right,Purple_Star_Grid_1.jpg,Blue_Triangle_Dots_1.jpg,Green_Plus_Grid_3.jpg,right,1005.5849999771453,true,high,false
SKBgR0jc,3peg1bh7bh4xuzsxamnfbz6ha40bkr,33nf62tlxnf5z2o3pg5yy7ll7e7kj7,SKBgR0jc,2020-0188,2020-06-16,09:58:48,10:23:20,NA,incomplete,118,filling,1,right,Blue_Triangle_Stripes_4.jpg,Red_Circle_Chess_4.jpg,Purple_Plus_Stripes_1.jpg,right,1074.6849999995902,true,high,false
SKBgR0jc,3peg1bh7bh4xuzsxamnfbz6ha40bkr,33nf62tlxnf5z2o3pg5yy7ll7e7kj7,SKBgR0jc,2020-0188,2020-06-16,09:58:48,10:23:20,NA,incomplete,119,filling,0,left,Blue_Circle_Dots_4.jpg,Green_Triangle_Dots_3.jpg,Purple_Star_Chess_4.jpg,left,950.0299999781419,true,high,false
SKBgR0jc,3peg1bh7bh4xuzsxamnfbz6ha40bkr,33nf62tlxnf5z2o3pg5yy7ll7e7kj7,SKBgR0jc,2020-0188,2020-06-16,09:58:48,10:23:20,NA,incomplete,120,shape,0,left,Purple_Circle_Chess_1.jpg,Green_Circle_Dots_3.jpg,Purple_Star_Stripes_4.jpg,NA,NA,NA,high,false
SKBgR0jc,3peg1bh7bh4xuzsxamnfbz6ha40bkr,33nf62tlxnf5z2o3pg5yy7ll7e7kj7,SKBgR0jc,2020-0188,2020-06-16,09:58:48,10:23:20,NA,incomplete,121,shape,1,left,Green_Circle_Stripes_2.jpg,Red_Circle_Chess_3.jpg,Green_Triangle_Dots_1.jpg,right,1235.834999999497,false,high,false
SKBgR0jc,3peg1bh7bh4xuzsxamnfbz6ha40bkr,33nf62tlxnf5z2o3pg5yy7ll7e7kj7,SKBgR0jc,2020-0188,2020-06-16,09:58:48,10:23:20,NA,incomplete,122,shape,0,right,Blue_Plus_Stripes_4.jpg,Blue_Circle_Chess_2.jpg,Red_Plus_Dots_1.jpg,left,1449.4249999988824,false,high,false
SKBgR0jc,3peg1bh7bh4xuzsxamnfbz6ha40bkr,33nf62tlxnf5z2o3pg5yy7ll7e7kj7,SKBgR0jc,2020-0188,2020-06-16,09:58:48,10:23:20,NA,incomplete,123,shape,1,left,Blue_Plus_Chess_3.jpg,Purple_Plus_Dots_1.jpg,Blue_Star_Grid_2.jpg,right,939.0549999952782,false,high,false
SKBgR0jc,3peg1bh7bh4xuzsxamnfbz6ha40bkr,33nf62tlxnf5z2o3pg5yy7ll7e7kj7,SKBgR0jc,2020-0188,2020-06-16,09:58:48,10:23:20,NA,incomplete,124,shape,1,left,Green_Plus_Dots_3.jpg,Red_Plus_Grid_4.jpg,Green_Circle_Stripes_2.jpg,right,1145.7249999803025,false,high,false
SKBgR0jc,3peg1bh7bh4xuzsxamnfbz6ha40bkr,33nf62tlxnf5z2o3pg5yy7ll7e7kj7,SKBgR0jc,2020-0188,2020-06-16,09:58:48,10:23:20,NA,incomplete,125,shape,0,right,Purple_Triangle_Stripes_4.jpg,Purple_Star_Grid_1.jpg,Red_Triangle_Dots_3.jpg,right,966.7200000258163,true,high,false
SKBgR0jc,3peg1bh7bh4xuzsxamnfbz6ha40bkr,33nf62tlxnf5z2o3pg5yy7ll7e7kj7,SKBgR0jc,2020-0188,2020-06-16,09:58:48,10:23:20,NA,incomplete,126,shape,1,right,Red_Plus_Stripes_3.jpg,Red_Star_Dots_2.jpg,Purple_Plus_Chess_1.jpg,left,1616.2399999739137,false,high,false
SKBgR0jc,3peg1bh7bh4xuzsxamnfbz6ha40bkr,33nf62tlxnf5z2o3pg5yy7ll7e7kj7,SKBgR0jc,2020-0188,2020-06-16,09:58:48,10:23:20,NA,incomplete,127,shape,1,left,Red_Plus_Chess_1.jpg,Blue_Plus_Grid_3.jpg,Red_Star_Stripes_4.jpg,right,1136.3899999996647,false,high,false
SKBgR0jc,3peg1bh7bh4xuzsxamnfbz6ha40bkr,33nf62tlxnf5z2o3pg5yy7ll7e7kj7,SKBgR0jc,2020-0188,2020-06-16,09:58:48,10:23:20,NA,incomplete,128,shape,1,left,Purple_Circle_Chess_2.jpg,Blue_Circle_Stripes_1.jpg,Purple_Triangle_Dots_3.jpg,right,1644.8850000160746,false,high,false
SKBgR0jc,3peg1bh7bh4xuzsxamnfbz6ha40bkr,33nf62tlxnf5z2o3pg5yy7ll7e7kj7,SKBgR0jc,2020-0188,2020-06-16,09:58:48,10:23:20,NA,incomplete,129,shape,1,left,Green_Star_Chess_1.jpg,Purple_Star_Stripes_2.jpg,Green_Plus_Grid_4.jpg,left,1120.0749999843538,true,high,false
SKBgR0jc,3peg1bh7bh4xuzsxamnfbz6ha40bkr,33nf62tlxnf5z2o3pg5yy7ll7e7kj7,SKBgR0jc,2020-0188,2020-06-16,09:58:48,10:23:20,NA,incomplete,130,shape,0,right,Red_Plus_Grid_1.jpg,Red_Triangle_Dots_2.jpg,Blue_Plus_Chess_3.jpg,right,851.2800000025891,true,high,false
SKBgR0jc,3peg1bh7bh4xuzsxamnfbz6ha40bkr,33nf62tlxnf5z2o3pg5yy7ll7e7kj7,SKBgR0jc,2020-0188,2020-06-16,09:58:48,10:23:20,NA,incomplete,131,shape,1,left,Purple_Star_Stripes_3.jpg,Red_Star_Dots_1.jpg,Purple_Circle_Chess_4.jpg,right,903.6149999883492,false,high,false
SKBgR0jc,3peg1bh7bh4xuzsxamnfbz6ha40bkr,33nf62tlxnf5z2o3pg5yy7ll7e7kj7,SKBgR0jc,2020-0188,2020-06-16,09:58:48,10:23:20,NA,incomplete,132,shape,1,left,Green_Circle_Stripes_4.jpg,Red_Circle_Grid_1.jpg,Green_Star_Dots_3.jpg,left,934.6600000280887,true,high,false
SKBgR0jc,3peg1bh7bh4xuzsxamnfbz6ha40bkr,33nf62tlxnf5z2o3pg5yy7ll7e7kj7,SKBgR0jc,2020-0188,2020-06-16,09:58:48,10:23:20,NA,incomplete,133,shape,1,left,Blue_Triangle_Grid_3.jpg,Red_Triangle_Dots_4.jpg,Blue_Star_Stripes_2.jpg,left,1724.2950000218116,true,high,false
SKBgR0jc,3peg1bh7bh4xuzsxamnfbz6ha40bkr,33nf62tlxnf5z2o3pg5yy7ll7e7kj7,SKBgR0jc,2020-0188,2020-06-16,09:58:48,10:23:20,NA,incomplete,134,shape,1,right,Purple_Circle_Grid_4.jpg,Purple_Triangle_Chess_2.jpg,Blue_Circle_Dots_3.jpg,right,884.0199999976903,true,high,false
SKBgR0jc,3peg1bh7bh4xuzsxamnfbz6ha40bkr,33nf62tlxnf5z2o3pg5yy7ll7e7kj7,SKBgR0jc,2020-0188,2020-06-16,09:58:48,10:23:20,NA,incomplete,135,shape,1,left,Green_Star_Dots_4.jpg,Purple_Star_Grid_3.jpg,Green_Triangle_Chess_1.jpg,left,829.8650000069756,true,high,false
SKBgR0jc,3peg1bh7bh4xuzsxamnfbz6ha40bkr,33nf62tlxnf5z2o3pg5yy7ll7e7kj7,SKBgR0jc,2020-0188,2020-06-16,09:58:48,10:23:20,NA,incomplete,136,shape,0,right,Purple_Circle_Chess_2.jpg,Purple_Star_Dots_1.jpg,Blue_Circle_Stripes_4.jpg,right,841.4399999892339,true,high,false
SKBgR0jc,3peg1bh7bh4xuzsxamnfbz6ha40bkr,33nf62tlxnf5z2o3pg5yy7ll7e7kj7,SKBgR0jc,2020-0188,2020-06-16,09:58:48,10:23:20,NA,incomplete,137,shape,1,right,Red_Triangle_Stripes_1.jpg,Red_Circle_Chess_4.jpg,Blue_Triangle_Dots_3.jpg,left,863.9399999810848,false,high,false
SKBgR0jc,3peg1bh7bh4xuzsxamnfbz6ha40bkr,33nf62tlxnf5z2o3pg5yy7ll7e7kj7,SKBgR0jc,2020-0188,2020-06-16,09:58:48,10:23:20,NA,incomplete,138,shape,1,left,Green_Triangle_Chess_2.jpg,Red_Triangle_Grid_3.jpg,Green_Plus_Dots_1.jpg,left,933.1100000126753,true,high,false
SKBgR0jc,3peg1bh7bh4xuzsxamnfbz6ha40bkr,33nf62tlxnf5z2o3pg5yy7ll7e7kj7,SKBgR0jc,2020-0188,2020-06-16,09:58:48,10:23:20,NA,incomplete,139,shape,1,left,Green_Circle_Dots_1.jpg,Purple_Circle_Grid_3.jpg,Green_Plus_Chess_4.jpg,right,1068.7549999856856,false,high,false
SKBgR0jc,3peg1bh7bh4xuzsxamnfbz6ha40bkr,33nf62tlxnf5z2o3pg5yy7ll7e7kj7,SKBgR0jc,2020-0188,2020-06-16,09:58:48,10:23:20,NA,incomplete,140,color,1,right,Purple_Star_Stripes_1.jpg,Green_Star_Grid_3.jpg,Purple_Plus_Dots_2.jpg,left,1309.0399999928195,false,high,false
SKBgR0jc,3peg1bh7bh4xuzsxamnfbz6ha40bkr,33nf62tlxnf5z2o3pg5yy7ll7e7kj7,SKBgR0jc,2020-0188,2020-06-16,09:58:48,10:23:20,NA,incomplete,141,color,1,right,Blue_Star_Chess_3.jpg,Green_Star_Dots_2.jpg,Blue_Plus_Grid_1.jpg,left,1890.5150000064168,false,high,false
SKBgR0jc,3peg1bh7bh4xuzsxamnfbz6ha40bkr,33nf62tlxnf5z2o3pg5yy7ll7e7kj7,SKBgR0jc,2020-0188,2020-06-16,09:58:48,10:23:20,NA,incomplete,142,color,1,left,Red_Triangle_Stripes_3.jpg,Red_Circle_Chess_2.jpg,Green_Triangle_Dots_1.jpg,left,1042.8200000023935,true,high,false
SKBgR0jc,3peg1bh7bh4xuzsxamnfbz6ha40bkr,33nf62tlxnf5z2o3pg5yy7ll7e7kj7,SKBgR0jc,2020-0188,2020-06-16,09:58:48,10:23:20,NA,incomplete,143,color,0,left,Blue_Star_Chess_3.jpg,Blue_Triangle_Stripes_1.jpg,Red_Star_Grid_2.jpg,left,968.8350000069477,true,high,false
SKBgR0jc,3peg1bh7bh4xuzsxamnfbz6ha40bkr,33nf62tlxnf5z2o3pg5yy7ll7e7kj7,SKBgR0jc,2020-0188,2020-06-16,09:58:48,10:23:20,NA,incomplete,144,color,1,left,Purple_Star_Grid_2.jpg,Purple_Triangle_Dots_3.jpg,Red_Star_Chess_4.jpg,left,1463.5550000239164,true,high,false
SKBgR0jc,3peg1bh7bh4xuzsxamnfbz6ha40bkr,33nf62tlxnf5z2o3pg5yy7ll7e7kj7,SKBgR0jc,2020-0188,2020-06-16,09:58:48,10:23:20,NA,incomplete,145,color,1,left,Blue_Plus_Dots_4.jpg,Blue_Star_Grid_2.jpg,Red_Plus_Chess_1.jpg,right,1502.9999999969732,false,high,false
SKBgR0jc,3peg1bh7bh4xuzsxamnfbz6ha40bkr,33nf62tlxnf5z2o3pg5yy7ll7e7kj7,SKBgR0jc,2020-0188,2020-06-16,09:58:48,10:23:20,NA,incomplete,146,color,1,left,Red_Triangle_Dots_1.jpg,Red_Plus_Chess_3.jpg,Blue_Triangle_Grid_2.jpg,right,1165.3149999910966,false,high,false
SKBgR0jc,3peg1bh7bh4xuzsxamnfbz6ha40bkr,33nf62tlxnf5z2o3pg5yy7ll7e7kj7,SKBgR0jc,2020-0188,2020-06-16,09:58:48,10:23:20,NA,incomplete,147,color,1,left,Purple_Star_Dots_4.jpg,Purple_Circle_Grid_1.jpg,Blue_Star_Chess_2.jpg,right,1450.7600000069942,false,high,false
SKBgR0jc,3peg1bh7bh4xuzsxamnfbz6ha40bkr,33nf62tlxnf5z2o3pg5yy7ll7e7kj7,SKBgR0jc,2020-0188,2020-06-16,09:58:48,10:23:20,NA,incomplete,148,color,1,right,Red_Triangle_Grid_2.jpg,Purple_Triangle_Chess_3.jpg,Red_Star_Dots_4.jpg,right,1640.1550000009593,true,high,false
SKBgR0jc,3peg1bh7bh4xuzsxamnfbz6ha40bkr,33nf62tlxnf5z2o3pg5yy7ll7e7kj7,SKBgR0jc,2020-0188,2020-06-16,09:58:48,10:23:20,NA,incomplete,149,color,1,left,Red_Plus_Dots_3.jpg,Red_Triangle_Chess_1.jpg,Green_Plus_Grid_4.jpg,left,810.1050000113901,true,high,false
SKBgR0jc,3peg1bh7bh4xuzsxamnfbz6ha40bkr,33nf62tlxnf5z2o3pg5yy7ll7e7kj7,SKBgR0jc,2020-0188,2020-06-16,09:58:48,10:23:20,NA,incomplete,150,color,1,left,Blue_Star_Grid_4.jpg,Blue_Circle_Stripes_2.jpg,Purple_Star_Chess_3.jpg,left,846.3300000003073,true,high,false
SKBgR0jc,3peg1bh7bh4xuzsxamnfbz6ha40bkr,33nf62tlxnf5z2o3pg5yy7ll7e7kj7,SKBgR0jc,2020-0188,2020-06-16,09:58:48,10:23:20,NA,incomplete,151,color,0,left,Red_Triangle_Grid_4.jpg,Red_Star_Chess_1.jpg,Blue_Triangle_Stripes_3.jpg,left,1105.4399999848101,true,high,false
SKBgR0jc,3peg1bh7bh4xuzsxamnfbz6ha40bkr,33nf62tlxnf5z2o3pg5yy7ll7e7kj7,SKBgR0jc,2020-0188,2020-06-16,09:58:48,10:23:20,NA,incomplete,152,color,1,right,Green_Circle_Dots_1.jpg,Red_Circle_Chess_2.jpg,Green_Triangle_Grid_3.jpg,right,1078.3400000073016,true,high,false
SKBgR0jc,3peg1bh7bh4xuzsxamnfbz6ha40bkr,33nf62tlxnf5z2o3pg5yy7ll7e7kj7,SKBgR0jc,2020-0188,2020-06-16,09:58:48,10:23:20,NA,incomplete,153,color,1,right,Green_Plus_Dots_2.jpg,Purple_Plus_Grid_3.jpg,Green_Circle_Stripes_4.jpg,left,1031.9000000017695,false,high,false
SKBgR0jc,3peg1bh7bh4xuzsxamnfbz6ha40bkr,33nf62tlxnf5z2o3pg5yy7ll7e7kj7,SKBgR0jc,2020-0188,2020-06-16,09:58:48,10:23:20,NA,incomplete,154,color,1,right,Purple_Star_Stripes_4.jpg,Blue_Star_Grid_2.jpg,Purple_Circle_Dots_3.jpg,right,1370.6850000016857,true,high,false
SKBgR0jc,3peg1bh7bh4xuzsxamnfbz6ha40bkr,33nf62tlxnf5z2o3pg5yy7ll7e7kj7,SKBgR0jc,2020-0188,2020-06-16,09:58:48,10:23:20,NA,incomplete,155,color,1,right,Green_Circle_Grid_3.jpg,Purple_Circle_Stripes_2.jpg,Green_Plus_Chess_4.jpg,right,936.5300000063144,true,high,false
SKBgR0jc,3peg1bh7bh4xuzsxamnfbz6ha40bkr,33nf62tlxnf5z2o3pg5yy7ll7e7kj7,SKBgR0jc,2020-0188,2020-06-16,09:58:48,10:23:20,NA,incomplete,156,color,1,left,Green_Triangle_Dots_2.jpg,Green_Plus_Chess_4.jpg,Blue_Triangle_Stripes_1.jpg,left,1343.7850000045728,true,high,false
SKBgR0jc,3peg1bh7bh4xuzsxamnfbz6ha40bkr,33nf62tlxnf5z2o3pg5yy7ll7e7kj7,SKBgR0jc,2020-0188,2020-06-16,09:58:48,10:23:20,NA,incomplete,157,color,1,left,Purple_Triangle_Grid_3.jpg,Purple_Plus_Stripes_4.jpg,Green_Triangle_Dots_1.jpg,left,901.6049999918323,true,high,false
SKBgR0jc,3peg1bh7bh4xuzsxamnfbz6ha40bkr,33nf62tlxnf5z2o3pg5yy7ll7e7kj7,SKBgR0jc,2020-0188,2020-06-16,09:58:48,10:23:20,NA,incomplete,158,color,1,left,Red_Plus_Chess_4.jpg,Red_Triangle_Dots_3.jpg,Purple_Plus_Grid_2.jpg,left,776.7450000101235,true,high,false
SKBgR0jc,3peg1bh7bh4xuzsxamnfbz6ha40bkr,33nf62tlxnf5z2o3pg5yy7ll7e7kj7,SKBgR0jc,2020-0188,2020-06-16,09:58:48,10:23:20,NA,incomplete,159,color,1,left,Red_Circle_Chess_4.jpg,Red_Triangle_Stripes_3.jpg,Blue_Circle_Dots_1.jpg,left,888.875000004191,true,high,false
SKBgR0jc,3peg1bh7bh4xuzsxamnfbz6ha40bkr,33nf62tlxnf5z2o3pg5yy7ll7e7kj7,SKBgR0jc,2020-0188,2020-06-16,09:58:48,10:23:20,NA,incomplete,160,shape,0,left,Green_Plus_Chess_4.jpg,Blue_Plus_Dots_2.jpg,Green_Triangle_Stripes_1.jpg,right,912.1999999915715,false,high,false
SKBgR0jc,3peg1bh7bh4xuzsxamnfbz6ha40bkr,33nf62tlxnf5z2o3pg5yy7ll7e7kj7,SKBgR0jc,2020-0188,2020-06-16,09:58:48,10:23:20,NA,incomplete,161,shape,1,right,Red_Plus_Dots_3.jpg,Red_Triangle_Chess_2.jpg,Green_Plus_Grid_1.jpg,left,890.4999999795109,false,high,false
SKBgR0jc,3peg1bh7bh4xuzsxamnfbz6ha40bkr,33nf62tlxnf5z2o3pg5yy7ll7e7kj7,SKBgR0jc,2020-0188,2020-06-16,09:58:48,10:23:20,NA,incomplete,162,shape,1,right,Purple_Plus_Dots_2.jpg,Purple_Triangle_Chess_1.jpg,Red_Plus_Grid_4.jpg,right,1085.3950000018813,true,high,false
SKBgR0jc,3peg1bh7bh4xuzsxamnfbz6ha40bkr,33nf62tlxnf5z2o3pg5yy7ll7e7kj7,SKBgR0jc,2020-0188,2020-06-16,09:58:48,10:23:20,NA,incomplete,163,shape,1,left,Red_Star_Stripes_4.jpg,Blue_Star_Chess_1.jpg,Red_Plus_Grid_3.jpg,left,1135.2699999988545,true,high,false
SKBgR0jc,3peg1bh7bh4xuzsxamnfbz6ha40bkr,33nf62tlxnf5z2o3pg5yy7ll7e7kj7,SKBgR0jc,2020-0188,2020-06-16,09:58:48,10:23:20,NA,incomplete,164,shape,0,left,Red_Circle_Stripes_4.jpg,Purple_Circle_Grid_2.jpg,Red_Plus_Chess_1.jpg,left,830.9799999988172,true,high,false
SKBgR0jc,3peg1bh7bh4xuzsxamnfbz6ha40bkr,33nf62tlxnf5z2o3pg5yy7ll7e7kj7,SKBgR0jc,2020-0188,2020-06-16,09:58:48,10:23:20,NA,incomplete,165,shape,1,left,Purple_Plus_Dots_4.jpg,Green_Plus_Chess_3.jpg,Purple_Circle_Grid_2.jpg,right,994.3700000003446,false,high,false
SKBgR0jc,3peg1bh7bh4xuzsxamnfbz6ha40bkr,33nf62tlxnf5z2o3pg5yy7ll7e7kj7,SKBgR0jc,2020-0188,2020-06-16,09:58:48,10:23:20,NA,incomplete,166,shape,0,left,Red_Star_Dots_1.jpg,Green_Star_Grid_3.jpg,Red_Circle_Chess_2.jpg,left,1343.7850000045728,true,high,false
SKBgR0jc,3peg1bh7bh4xuzsxamnfbz6ha40bkr,33nf62tlxnf5z2o3pg5yy7ll7e7kj7,SKBgR0jc,2020-0188,2020-06-16,09:58:48,10:23:20,NA,incomplete,167,shape,1,right,Green_Circle_Chess_4.jpg,Green_Star_Stripes_2.jpg,Blue_Circle_Grid_3.jpg,left,1218.7449999910314,false,high,false
SKBgR0jc,3peg1bh7bh4xuzsxamnfbz6ha40bkr,33nf62tlxnf5z2o3pg5yy7ll7e7kj7,SKBgR0jc,2020-0188,2020-06-16,09:58:48,10:23:20,NA,incomplete,168,shape,1,left,Green_Triangle_Stripes_4.jpg,Red_Triangle_Chess_2.jpg,Green_Circle_Grid_1.jpg,left,1350.5600000207778,true,high,false
SKBgR0jc,3peg1bh7bh4xuzsxamnfbz6ha40bkr,33nf62tlxnf5z2o3pg5yy7ll7e7kj7,SKBgR0jc,2020-0188,2020-06-16,09:58:48,10:23:20,NA,incomplete,169,shape,1,right,Purple_Circle_Chess_4.jpg,Purple_Star_Grid_2.jpg,Red_Circle_Stripes_1.jpg,right,968.3500000101048,true,high,false
SKBgR0jc,3peg1bh7bh4xuzsxamnfbz6ha40bkr,33nf62tlxnf5z2o3pg5yy7ll7e7kj7,SKBgR0jc,2020-0188,2020-06-16,09:58:48,10:23:20,NA,incomplete,170,shape,1,left,Purple_Plus_Chess_1.jpg,Blue_Plus_Dots_2.jpg,Purple_Circle_Grid_3.jpg,left,947.1399999747518,true,high,false
SKBgR0jc,3peg1bh7bh4xuzsxamnfbz6ha40bkr,33nf62tlxnf5z2o3pg5yy7ll7e7kj7,SKBgR0jc,2020-0188,2020-06-16,09:58:48,10:23:20,NA,incomplete,171,shape,1,right,Green_Plus_Grid_2.jpg,Green_Triangle_Chess_4.jpg,Red_Plus_Dots_1.jpg,right,937.7199999871664,true,high,false
SKBgR0jc,3peg1bh7bh4xuzsxamnfbz6ha40bkr,33nf62tlxnf5z2o3pg5yy7ll7e7kj7,SKBgR0jc,2020-0188,2020-06-16,09:58:48,10:23:20,NA,incomplete,172,shape,1,right,Red_Triangle_Chess_2.jpg,Red_Circle_Grid_4.jpg,Blue_Triangle_Stripes_3.jpg,right,900.5949999846052,true,high,false
SKBgR0jc,3peg1bh7bh4xuzsxamnfbz6ha40bkr,33nf62tlxnf5z2o3pg5yy7ll7e7kj7,SKBgR0jc,2020-0188,2020-06-16,09:58:48,10:23:20,NA,incomplete,173,shape,1,right,Purple_Circle_Dots_4.jpg,Purple_Plus_Stripes_3.jpg,Red_Circle_Chess_2.jpg,right,953.3949999895412,true,high,false
SKBgR0jc,3peg1bh7bh4xuzsxamnfbz6ha40bkr,33nf62tlxnf5z2o3pg5yy7ll7e7kj7,SKBgR0jc,2020-0188,2020-06-16,09:58:48,10:23:20,NA,incomplete,174,shape,0,right,Purple_Triangle_Chess_3.jpg,Purple_Star_Grid_2.jpg,Red_Triangle_Dots_4.jpg,right,884.9650000047404,true,high,false
SKBgR0jc,3peg1bh7bh4xuzsxamnfbz6ha40bkr,33nf62tlxnf5z2o3pg5yy7ll7e7kj7,SKBgR0jc,2020-0188,2020-06-16,09:58:48,10:23:20,NA,incomplete,175,shape,1,left,Red_Plus_Grid_1.jpg,Blue_Plus_Stripes_3.jpg,Red_Star_Dots_2.jpg,left,1577.064999990398,true,high,false
SKBgR0jc,3peg1bh7bh4xuzsxamnfbz6ha40bkr,33nf62tlxnf5z2o3pg5yy7ll7e7kj7,SKBgR0jc,2020-0188,2020-06-16,09:58:48,10:23:20,NA,incomplete,176,shape,1,left,Red_Star_Grid_2.jpg,Blue_Star_Chess_3.jpg,Red_Circle_Stripes_4.jpg,left,954.169999982696,true,high,false
SKBgR0jc,3peg1bh7bh4xuzsxamnfbz6ha40bkr,33nf62tlxnf5z2o3pg5yy7ll7e7kj7,SKBgR0jc,2020-0188,2020-06-16,09:58:48,10:23:20,NA,incomplete,177,shape,1,right,Green_Plus_Stripes_2.jpg,Green_Triangle_Chess_4.jpg,Purple_Plus_Dots_3.jpg,right,1043.9499999920372,true,high,false
SKBgR0jc,3peg1bh7bh4xuzsxamnfbz6ha40bkr,33nf62tlxnf5z2o3pg5yy7ll7e7kj7,SKBgR0jc,2020-0188,2020-06-16,09:58:48,10:23:20,NA,incomplete,178,shape,0,left,Red_Triangle_Chess_3.jpg,Blue_Triangle_Grid_2.jpg,Red_Plus_Dots_1.jpg,left,1096.929999999702,true,high,false
SKBgR0jc,3peg1bh7bh4xuzsxamnfbz6ha40bkr,33nf62tlxnf5z2o3pg5yy7ll7e7kj7,SKBgR0jc,2020-0188,2020-06-16,09:58:48,10:23:20,NA,incomplete,179,shape,1,right,Green_Star_Stripes_1.jpg,Green_Triangle_Dots_2.jpg,Red_Star_Grid_4.jpg,right,1360.130000015488,true,high,false
SKBgR0jc,3peg1bh7bh4xuzsxamnfbz6ha40bkr,33nf62tlxnf5z2o3pg5yy7ll7e7kj7,SKBgR0jc,2020-0188,2020-06-16,09:58:48,10:23:20,NA,incomplete,180,color,1,left,Blue_Circle_Stripes_4.jpg,Blue_Plus_Chess_3.jpg,Purple_Circle_Grid_2.jpg,right,1226.0349999996834,false,high,false
SKBgR0jc,3peg1bh7bh4xuzsxamnfbz6ha40bkr,33nf62tlxnf5z2o3pg5yy7ll7e7kj7,SKBgR0jc,2020-0188,2020-06-16,09:58:48,10:23:20,NA,incomplete,181,color,1,left,Red_Circle_Dots_3.jpg,Red_Star_Grid_1.jpg,Purple_Circle_Stripes_2.jpg,left,1303.4650000045076,true,high,false
SKBgR0jc,3peg1bh7bh4xuzsxamnfbz6ha40bkr,33nf62tlxnf5z2o3pg5yy7ll7e7kj7,SKBgR0jc,2020-0188,2020-06-16,09:58:48,10:23:20,NA,incomplete,182,color,1,right,Green_Star_Dots_2.jpg,Blue_Star_Stripes_4.jpg,Green_Triangle_Chess_3.jpg,right,824.0250000089873,true,high,false
SKBgR0jc,3peg1bh7bh4xuzsxamnfbz6ha40bkr,33nf62tlxnf5z2o3pg5yy7ll7e7kj7,SKBgR0jc,2020-0188,2020-06-16,09:58:48,10:23:20,NA,incomplete,183,color,0,left,Blue_Circle_Dots_2.jpg,Blue_Triangle_Grid_1.jpg,Red_Circle_Stripes_3.jpg,left,1171.7650000064168,true,high,false
SKBgR0jc,3peg1bh7bh4xuzsxamnfbz6ha40bkr,33nf62tlxnf5z2o3pg5yy7ll7e7kj7,SKBgR0jc,2020-0188,2020-06-16,09:58:48,10:23:20,NA,incomplete,184,color,1,right,Purple_Triangle_Grid_2.jpg,Red_Triangle_Chess_3.jpg,Purple_Circle_Stripes_4.jpg,left,1679.6449999965262,false,high,false
SKBgR0jc,3peg1bh7bh4xuzsxamnfbz6ha40bkr,33nf62tlxnf5z2o3pg5yy7ll7e7kj7,SKBgR0jc,2020-0188,2020-06-16,09:58:48,10:23:20,NA,incomplete,185,color,0,left,Blue_Plus_Chess_2.jpg,Blue_Star_Grid_1.jpg,Red_Plus_Dots_4.jpg,right,1148.8000000244938,false,high,false
SKBgR0jc,3peg1bh7bh4xuzsxamnfbz6ha40bkr,33nf62tlxnf5z2o3pg5yy7ll7e7kj7,SKBgR0jc,2020-0188,2020-06-16,09:58:48,10:23:20,NA,incomplete,186,color,1,left,Purple_Triangle_Dots_2.jpg,Purple_Circle_Chess_4.jpg,Blue_Triangle_Grid_1.jpg,left,1205.7050000003073,true,high,false
SKBgR0jc,3peg1bh7bh4xuzsxamnfbz6ha40bkr,33nf62tlxnf5z2o3pg5yy7ll7e7kj7,SKBgR0jc,2020-0188,2020-06-16,09:58:48,10:23:20,NA,incomplete,187,color,1,right,Green_Circle_Chess_1.jpg,Purple_Circle_Stripes_2.jpg,Green_Plus_Dots_3.jpg,left,1724.0549999987707,false,high,false
SKBgR0jc,3peg1bh7bh4xuzsxamnfbz6ha40bkr,33nf62tlxnf5z2o3pg5yy7ll7e7kj7,SKBgR0jc,2020-0188,2020-06-16,09:58:48,10:23:20,NA,incomplete,188,color,1,right,Red_Triangle_Stripes_2.jpg,Green_Triangle_Chess_4.jpg,Red_Plus_Grid_3.jpg,right,1670.9700000064913,true,high,false
SKBgR0jc,3peg1bh7bh4xuzsxamnfbz6ha40bkr,33nf62tlxnf5z2o3pg5yy7ll7e7kj7,SKBgR0jc,2020-0188,2020-06-16,09:58:48,10:23:20,NA,incomplete,189,color,1,right,Blue_Triangle_Grid_2.jpg,Red_Triangle_Dots_1.jpg,Blue_Plus_Chess_3.jpg,right,1133.9900000020862,true,high,false
SKBgR0jc,3peg1bh7bh4xuzsxamnfbz6ha40bkr,33nf62tlxnf5z2o3pg5yy7ll7e7kj7,SKBgR0jc,2020-0188,2020-06-16,09:58:48,10:23:20,NA,incomplete,190,color,0,left,Blue_Triangle_Dots_3.jpg,Blue_Circle_Stripes_2.jpg,Green_Triangle_Grid_1.jpg,left,1126.334999979008,true,high,false
SKBgR0jc,3peg1bh7bh4xuzsxamnfbz6ha40bkr,33nf62tlxnf5z2o3pg5yy7ll7e7kj7,SKBgR0jc,2020-0188,2020-06-16,09:58:48,10:23:20,NA,incomplete,191,color,1,left,Blue_Triangle_Chess_3.jpg,Blue_Circle_Grid_2.jpg,Purple_Triangle_Dots_4.jpg,right,1179.260000004433,false,high,false
SKBgR0jc,3peg1bh7bh4xuzsxamnfbz6ha40bkr,33nf62tlxnf5z2o3pg5yy7ll7e7kj7,SKBgR0jc,2020-0188,2020-06-16,09:58:48,10:23:20,NA,incomplete,192,color,1,left,Red_Triangle_Stripes_2.jpg,Red_Star_Grid_4.jpg,Purple_Triangle_Dots_3.jpg,right,1553.5799999779556,false,high,false
SKBgR0jc,3peg1bh7bh4xuzsxamnfbz6ha40bkr,33nf62tlxnf5z2o3pg5yy7ll7e7kj7,SKBgR0jc,2020-0188,2020-06-16,09:58:48,10:23:20,NA,incomplete,193,color,1,right,Blue_Plus_Stripes_2.jpg,Green_Plus_Grid_1.jpg,Blue_Star_Chess_3.jpg,right,1167.0300000114366,true,high,false
SKBgR0jc,3peg1bh7bh4xuzsxamnfbz6ha40bkr,33nf62tlxnf5z2o3pg5yy7ll7e7kj7,SKBgR0jc,2020-0188,2020-06-16,09:58:48,10:23:20,NA,incomplete,194,color,1,left,Red_Plus_Dots_4.jpg,Red_Star_Chess_3.jpg,Blue_Plus_Stripes_2.jpg,left,1014.5749999792315,true,high,false
SKBgR0jc,3peg1bh7bh4xuzsxamnfbz6ha40bkr,33nf62tlxnf5z2o3pg5yy7ll7e7kj7,SKBgR0jc,2020-0188,2020-06-16,09:58:48,10:23:20,NA,incomplete,195,color,1,left,Blue_Circle_Dots_2.jpg,Blue_Star_Grid_3.jpg,Red_Circle_Stripes_4.jpg,left,1043.825000000652,true,high,false
SKBgR0jc,3peg1bh7bh4xuzsxamnfbz6ha40bkr,33nf62tlxnf5z2o3pg5yy7ll7e7kj7,SKBgR0jc,2020-0188,2020-06-16,09:58:48,10:23:20,NA,incomplete,196,color,1,left,Purple_Plus_Dots_4.jpg,Purple_Star_Stripes_2.jpg,Green_Plus_Grid_3.jpg,left,963.3800000010524,true,high,false
SKBgR0jc,3peg1bh7bh4xuzsxamnfbz6ha40bkr,33nf62tlxnf5z2o3pg5yy7ll7e7kj7,SKBgR0jc,2020-0188,2020-06-16,09:58:48,10:23:20,NA,incomplete,197,color,1,left,Green_Circle_Dots_3.jpg,Green_Plus_Grid_1.jpg,Blue_Circle_Stripes_2.jpg,left,1264.805000013439,true,high,false
SKBgR0jc,3peg1bh7bh4xuzsxamnfbz6ha40bkr,33nf62tlxnf5z2o3pg5yy7ll7e7kj7,SKBgR0jc,2020-0188,2020-06-16,09:58:48,10:23:20,NA,incomplete,198,color,1,left,Green_Plus_Dots_3.jpg,Green_Circle_Grid_2.jpg,Red_Plus_Chess_4.jpg,left,872.0050000119954,true,high,false
SKBgR0jc,3peg1bh7bh4xuzsxamnfbz6ha40bkr,33nf62tlxnf5z2o3pg5yy7ll7e7kj7,SKBgR0jc,2020-0188,2020-06-16,09:58:48,10:23:20,NA,incomplete,199,color,1,right,Purple_Circle_Stripes_4.jpg,Red_Circle_Chess_3.jpg,Purple_Plus_Dots_1.jpg,right,918.4750000131316,true,high,false
SKBgR0jc,3peg1bh7bh4xuzsxamnfbz6ha40bkr,33nf62tlxnf5z2o3pg5yy7ll7e7kj7,SKBgR0jc,2020-0188,2020-06-16,09:58:48,10:23:20,NA,incomplete,200,shape,1,right,Red_Triangle_Stripes_4.jpg,Red_Star_Chess_1.jpg,Purple_Triangle_Dots_2.jpg,left,762.9750000196509,false,high,false
SKBgR0jc,3peg1bh7bh4xuzsxamnfbz6ha40bkr,33nf62tlxnf5z2o3pg5yy7ll7e7kj7,SKBgR0jc,2020-0188,2020-06-16,09:58:48,10:23:20,NA,incomplete,201,shape,0,left,Green_Circle_Grid_4.jpg,Blue_Circle_Dots_3.jpg,Green_Triangle_Stripes_2.jpg,left,1294.1550000105053,true,high,false
SKBgR0jc,3peg1bh7bh4xuzsxamnfbz6ha40bkr,33nf62tlxnf5z2o3pg5yy7ll7e7kj7,SKBgR0jc,2020-0188,2020-06-16,09:58:48,10:23:20,NA,incomplete,202,shape,1,left,Red_Star_Dots_1.jpg,Blue_Star_Chess_2.jpg,Red_Triangle_Grid_4.jpg,right,829.2200000141747,false,high,false
SKBgR0jc,3peg1bh7bh4xuzsxamnfbz6ha40bkr,33nf62tlxnf5z2o3pg5yy7ll7e7kj7,SKBgR0jc,2020-0188,2020-06-16,09:58:48,10:23:20,NA,incomplete,203,shape,1,right,Green_Star_Grid_2.jpg,Green_Triangle_Stripes_1.jpg,Red_Star_Dots_4.jpg,left,1120.824999990873,false,high,false
SKBgR0jc,3peg1bh7bh4xuzsxamnfbz6ha40bkr,33nf62tlxnf5z2o3pg5yy7ll7e7kj7,SKBgR0jc,2020-0188,2020-06-16,09:58:48,10:23:20,NA,incomplete,204,shape,0,left,Green_Triangle_Chess_1.jpg,Blue_Triangle_Stripes_3.jpg,Green_Star_Grid_4.jpg,left,1650.4750000021886,true,high,false
SKBgR0jc,3peg1bh7bh4xuzsxamnfbz6ha40bkr,33nf62tlxnf5z2o3pg5yy7ll7e7kj7,SKBgR0jc,2020-0188,2020-06-16,09:58:48,10:23:20,NA,incomplete,205,shape,1,left,Red_Star_Stripes_1.jpg,Green_Star_Dots_2.jpg,Red_Plus_Grid_4.jpg,right,730.8450000127777,false,high,false
SKBgR0jc,3peg1bh7bh4xuzsxamnfbz6ha40bkr,33nf62tlxnf5z2o3pg5yy7ll7e7kj7,SKBgR0jc,2020-0188,2020-06-16,09:58:48,10:23:20,NA,incomplete,206,shape,1,right,Blue_Triangle_Grid_2.jpg,Blue_Star_Stripes_1.jpg,Purple_Triangle_Dots_4.jpg,right,1133.300000015879,true,high,false
SKBgR0jc,3peg1bh7bh4xuzsxamnfbz6ha40bkr,33nf62tlxnf5z2o3pg5yy7ll7e7kj7,SKBgR0jc,2020-0188,2020-06-16,09:58:48,10:23:20,NA,incomplete,207,shape,1,right,Red_Star_Dots_3.jpg,Red_Plus_Stripes_2.jpg,Green_Star_Grid_4.jpg,right,1191.6149999888148,true,high,false
SKBgR0jc,3peg1bh7bh4xuzsxamnfbz6ha40bkr,33nf62tlxnf5z2o3pg5yy7ll7e7kj7,SKBgR0jc,2020-0188,2020-06-16,09:58:48,10:23:20,NA,incomplete,208,shape,0,left,Green_Plus_Grid_4.jpg,Purple_Plus_Dots_3.jpg,Green_Circle_Stripes_1.jpg,left,844.3299999926239,true,high,false
SKBgR0jc,3peg1bh7bh4xuzsxamnfbz6ha40bkr,33nf62tlxnf5z2o3pg5yy7ll7e7kj7,SKBgR0jc,2020-0188,2020-06-16,09:58:48,10:23:20,NA,incomplete,209,shape,1,left,Blue_Circle_Stripes_1.jpg,Green_Circle_Grid_4.jpg,Blue_Star_Chess_2.jpg,right,1253.4349999914411,false,high,false
SKBgR0jc,3peg1bh7bh4xuzsxamnfbz6ha40bkr,33nf62tlxnf5z2o3pg5yy7ll7e7kj7,SKBgR0jc,2020-0188,2020-06-16,09:58:48,10:23:20,NA,incomplete,210,shape,1,left,Purple_Circle_Chess_1.jpg,Red_Circle_Grid_4.jpg,Purple_Star_Dots_3.jpg,left,1041.8700000154786,true,high,false
SKBgR0jc,3peg1bh7bh4xuzsxamnfbz6ha40bkr,33nf62tlxnf5z2o3pg5yy7ll7e7kj7,SKBgR0jc,2020-0188,2020-06-16,09:58:48,10:23:20,NA,incomplete,211,shape,1,right,Red_Plus_Stripes_2.jpg,Red_Triangle_Dots_3.jpg,Purple_Plus_Chess_4.jpg,right,905.0700000079814,true,high,false
SKBgR0jc,3peg1bh7bh4xuzsxamnfbz6ha40bkr,33nf62tlxnf5z2o3pg5yy7ll7e7kj7,SKBgR0jc,2020-0188,2020-06-16,09:58:48,10:23:20,NA,incomplete,212,shape,0,right,Green_Plus_Dots_3.jpg,Green_Circle_Stripes_4.jpg,Purple_Plus_Chess_1.jpg,right,1238.099999987753,true,high,false
SKBgR0jc,3peg1bh7bh4xuzsxamnfbz6ha40bkr,33nf62tlxnf5z2o3pg5yy7ll7e7kj7,SKBgR0jc,2020-0188,2020-06-16,09:58:48,10:23:20,NA,incomplete,213,shape,1,right,Purple_Triangle_Stripes_4.jpg,Purple_Plus_Grid_2.jpg,Blue_Triangle_Dots_1.jpg,left,1353.2499999855645,false,high,false
SKBgR0jc,3peg1bh7bh4xuzsxamnfbz6ha40bkr,33nf62tlxnf5z2o3pg5yy7ll7e7kj7,SKBgR0jc,2020-0188,2020-06-16,09:58:48,10:23:20,NA,incomplete,214,shape,1,right,Purple_Plus_Stripes_4.jpg,Purple_Circle_Grid_2.jpg,Green_Plus_Chess_1.jpg,right,1084.6149999997579,true,high,false
SKBgR0jc,3peg1bh7bh4xuzsxamnfbz6ha40bkr,33nf62tlxnf5z2o3pg5yy7ll7e7kj7,SKBgR0jc,2020-0188,2020-06-16,09:58:48,10:23:20,NA,incomplete,215,shape,1,left,Red_Plus_Grid_2.jpg,Purple_Plus_Stripes_4.jpg,Red_Star_Dots_1.jpg,left,907.5650000013411,true,high,false
SKBgR0jc,3peg1bh7bh4xuzsxamnfbz6ha40bkr,33nf62tlxnf5z2o3pg5yy7ll7e7kj7,SKBgR0jc,2020-0188,2020-06-16,09:58:48,10:23:20,NA,incomplete,216,shape,1,left,Red_Triangle_Chess_1.jpg,Purple_Triangle_Stripes_4.jpg,Red_Plus_Dots_2.jpg,left,896.5550000139046,true,high,false
SKBgR0jc,3peg1bh7bh4xuzsxamnfbz6ha40bkr,33nf62tlxnf5z2o3pg5yy7ll7e7kj7,SKBgR0jc,2020-0188,2020-06-16,09:58:48,10:23:20,NA,incomplete,217,shape,1,right,Blue_Plus_Chess_1.jpg,Blue_Star_Grid_2.jpg,Green_Plus_Stripes_4.jpg,right,937.210000003688,true,high,false
SKBgR0jc,3peg1bh7bh4xuzsxamnfbz6ha40bkr,33nf62tlxnf5z2o3pg5yy7ll7e7kj7,SKBgR0jc,2020-0188,2020-06-16,09:58:48,10:23:20,NA,incomplete,218,shape,1,left,Purple_Triangle_Grid_4.jpg,Blue_Triangle_Stripes_2.jpg,Purple_Star_Chess_1.jpg,left,828.7349999882281,true,high,false
SKBgR0jc,3peg1bh7bh4xuzsxamnfbz6ha40bkr,33nf62tlxnf5z2o3pg5yy7ll7e7kj7,SKBgR0jc,2020-0188,2020-06-16,09:58:48,10:23:20,NA,incomplete,219,shape,1,right,Blue_Circle_Dots_1.jpg,Blue_Plus_Chess_4.jpg,Red_Circle_Stripes_3.jpg,right,795.589999994263,true,high,false
SKBgR0jc,3peg1bh7bh4xuzsxamnfbz6ha40bkr,33nf62tlxnf5z2o3pg5yy7ll7e7kj7,SKBgR0jc,2020-0188,2020-06-16,09:58:48,10:23:20,NA,incomplete,220,color,1,right,Purple_Plus_Stripes_2.jpg,Red_Plus_Chess_3.jpg,Purple_Circle_Grid_4.jpg,left,816.644999984419,false,high,false
SKBgR0jc,3peg1bh7bh4xuzsxamnfbz6ha40bkr,33nf62tlxnf5z2o3pg5yy7ll7e7kj7,SKBgR0jc,2020-0188,2020-06-16,09:58:48,10:23:20,NA,incomplete,221,color,1,left,Blue_Circle_Stripes_1.jpg,Blue_Triangle_Chess_3.jpg,Red_Circle_Dots_4.jpg,right,1008.1900000222959,false,high,false
SKBgR0jc,3peg1bh7bh4xuzsxamnfbz6ha40bkr,33nf62tlxnf5z2o3pg5yy7ll7e7kj7,SKBgR0jc,2020-0188,2020-06-16,09:58:48,10:23:20,NA,incomplete,222,color,0,right,Blue_Circle_Dots_1.jpg,Red_Circle_Chess_3.jpg,Blue_Triangle_Stripes_4.jpg,right,781.2750000157394,true,high,false
SKBgR0jc,3peg1bh7bh4xuzsxamnfbz6ha40bkr,33nf62tlxnf5z2o3pg5yy7ll7e7kj7,SKBgR0jc,2020-0188,2020-06-16,09:58:48,10:23:20,NA,incomplete,223,color,1,left,Blue_Triangle_Chess_1.jpg,Blue_Star_Grid_4.jpg,Green_Triangle_Stripes_3.jpg,left,1141.3900000043213,true,high,false
SKBgR0jc,3peg1bh7bh4xuzsxamnfbz6ha40bkr,33nf62tlxnf5z2o3pg5yy7ll7e7kj7,SKBgR0jc,2020-0188,2020-06-16,09:58:48,10:23:20,NA,incomplete,224,color,0,left,Blue_Star_Grid_1.jpg,Blue_Circle_Stripes_3.jpg,Red_Star_Chess_4.jpg,right,1230.2749999798834,false,high,false
SKBgR0jc,3peg1bh7bh4xuzsxamnfbz6ha40bkr,33nf62tlxnf5z2o3pg5yy7ll7e7kj7,SKBgR0jc,2020-0188,2020-06-16,09:58:48,10:23:20,NA,incomplete,225,color,1,left,Blue_Triangle_Grid_2.jpg,Blue_Plus_Dots_4.jpg,Red_Triangle_Chess_3.jpg,right,1068.135000008624,false,high,false
SKBgR0jc,3peg1bh7bh4xuzsxamnfbz6ha40bkr,33nf62tlxnf5z2o3pg5yy7ll7e7kj7,SKBgR0jc,2020-0188,2020-06-16,09:58:48,10:23:20,NA,incomplete,226,color,1,left,Green_Star_Grid_4.jpg,Green_Plus_Stripes_3.jpg,Blue_Star_Dots_2.jpg,left,1052.2350000101142,true,high,false
SKBgR0jc,3peg1bh7bh4xuzsxamnfbz6ha40bkr,33nf62tlxnf5z2o3pg5yy7ll7e7kj7,SKBgR0jc,2020-0188,2020-06-16,09:58:48,10:23:20,NA,incomplete,227,color,1,right,Red_Plus_Stripes_1.jpg,Green_Plus_Grid_2.jpg,Red_Star_Chess_3.jpg,right,867.8550000186078,true,high,false
SKBgR0jc,3peg1bh7bh4xuzsxamnfbz6ha40bkr,33nf62tlxnf5z2o3pg5yy7ll7e7kj7,SKBgR0jc,2020-0188,2020-06-16,09:58:48,10:23:20,NA,incomplete,228,color,1,right,Red_Plus_Dots_3.jpg,Blue_Plus_Stripes_4.jpg,Red_Circle_Grid_1.jpg,right,1252.344999986235,true,high,false
SKBgR0jc,3peg1bh7bh4xuzsxamnfbz6ha40bkr,33nf62tlxnf5z2o3pg5yy7ll7e7kj7,SKBgR0jc,2020-0188,2020-06-16,09:58:48,10:23:20,NA,incomplete,229,color,0,left,Blue_Circle_Grid_4.jpg,Blue_Plus_Dots_1.jpg,Red_Circle_Stripes_2.jpg,left,1033.5100000083912,true,high,false
SKBgR0jc,3peg1bh7bh4xuzsxamnfbz6ha40bkr,33nf62tlxnf5z2o3pg5yy7ll7e7kj7,SKBgR0jc,2020-0188,2020-06-16,09:58:48,10:23:20,NA,incomplete,230,color,1,left,Green_Star_Grid_3.jpg,Green_Triangle_Dots_4.jpg,Red_Star_Chess_2.jpg,right,1256.9800000055693,false,high,false
SKBgR0jc,3peg1bh7bh4xuzsxamnfbz6ha40bkr,33nf62tlxnf5z2o3pg5yy7ll7e7kj7,SKBgR0jc,2020-0188,2020-06-16,09:58:48,10:23:20,NA,incomplete,231,color,1,right,Green_Triangle_Dots_4.jpg,Blue_Triangle_Stripes_3.jpg,Green_Star_Grid_1.jpg,right,1206.2449999793898,true,high,false
SKBgR0jc,3peg1bh7bh4xuzsxamnfbz6ha40bkr,33nf62tlxnf5z2o3pg5yy7ll7e7kj7,SKBgR0jc,2020-0188,2020-06-16,09:58:48,10:23:20,NA,incomplete,232,color,0,right,Red_Star_Chess_1.jpg,Blue_Star_Stripes_2.jpg,Red_Plus_Grid_4.jpg,right,971.754999976838,true,high,false
SKBgR0jc,3peg1bh7bh4xuzsxamnfbz6ha40bkr,33nf62tlxnf5z2o3pg5yy7ll7e7kj7,SKBgR0jc,2020-0188,2020-06-16,09:58:48,10:23:20,NA,incomplete,233,color,1,right,Purple_Star_Dots_4.jpg,Red_Star_Chess_2.jpg,Purple_Circle_Stripes_3.jpg,right,1114.9049999949057,true,high,false
SKBgR0jc,3peg1bh7bh4xuzsxamnfbz6ha40bkr,33nf62tlxnf5z2o3pg5yy7ll7e7kj7,SKBgR0jc,2020-0188,2020-06-16,09:58:48,10:23:20,NA,incomplete,234,color,1,right,Green_Plus_Chess_2.jpg,Red_Plus_Stripes_1.jpg,Green_Circle_Grid_3.jpg,left,1064.1600000089966,false,high,false
SKBgR0jc,3peg1bh7bh4xuzsxamnfbz6ha40bkr,33nf62tlxnf5z2o3pg5yy7ll7e7kj7,SKBgR0jc,2020-0188,2020-06-16,09:58:48,10:23:20,NA,incomplete,235,color,1,left,Purple_Triangle_Chess_2.jpg,Purple_Circle_Grid_1.jpg,Green_Triangle_Stripes_4.jpg,left,1041.4749999763444,true,high,false
SKBgR0jc,3peg1bh7bh4xuzsxamnfbz6ha40bkr,33nf62tlxnf5z2o3pg5yy7ll7e7kj7,SKBgR0jc,2020-0188,2020-06-16,09:58:48,10:23:20,NA,incomplete,236,color,0,left,Green_Circle_Dots_2.jpg,Green_Plus_Stripes_3.jpg,Purple_Circle_Grid_1.jpg,left,880.1749999984168,true,high,false
SKBgR0jc,3peg1bh7bh4xuzsxamnfbz6ha40bkr,33nf62tlxnf5z2o3pg5yy7ll7e7kj7,SKBgR0jc,2020-0188,2020-06-16,09:58:48,10:23:20,NA,incomplete,237,color,1,right,Green_Circle_Chess_2.jpg,Red_Circle_Dots_4.jpg,Green_Triangle_Grid_3.jpg,right,1090.5149999889545,true,high,false
SKBgR0jc,3peg1bh7bh4xuzsxamnfbz6ha40bkr,33nf62tlxnf5z2o3pg5yy7ll7e7kj7,SKBgR0jc,2020-0188,2020-06-16,09:58:48,10:23:20,NA,incomplete,238,color,1,right,Blue_Circle_Chess_1.jpg,Green_Circle_Dots_2.jpg,Blue_Triangle_Grid_4.jpg,right,865.0799999886658,true,high,false
SKBgR0jc,3peg1bh7bh4xuzsxamnfbz6ha40bkr,33nf62tlxnf5z2o3pg5yy7ll7e7kj7,SKBgR0jc,2020-0188,2020-06-16,09:58:48,10:23:20,NA,incomplete,239,color,1,left,Green_Star_Chess_2.jpg,Green_Triangle_Stripes_4.jpg,Purple_Star_Grid_1.jpg,left,941.900000005262,true,high,false
SKBgR0jc,3peg1bh7bh4xuzsxamnfbz6ha40bkr,33nf62tlxnf5z2o3pg5yy7ll7e7kj7,SKBgR0jc,2020-0188,2020-06-16,09:58:48,10:23:20,NA,NA,instruction example,number,NA,NA,Blue_Triangle_Chess_4.jpg,Purple_Circle_Grid_4.jpg,Green_Plus_Chess_3.jpg,NA,NA,NA,NA,undefined
SKBgR0jc,3peg1bh7bh4xuzsxamnfbz6ha40bkr,33nf62tlxnf5z2o3pg5yy7ll7e7kj7,SKBgR0jc,2020-0188,2020-06-16,09:58:48,10:23:20,NA,NA,instruction example,number,NA,NA,Red_Circle_Grid_4.jpg,Purple_Triangle_Grid_2.jpg,Blue_Star_Dots_4.jpg,NA,NA,NA,NA,undefined
SKBgR0jc,3peg1bh7bh4xuzsxamnfbz6ha40bkr,33nf62tlxnf5z2o3pg5yy7ll7e7kj7,SKBgR0jc,2020-0188,2020-06-16,09:58:48,10:23:20,NA,NA,instruction example,number,NA,NA,Blue_Triangle_Grid_1.jpg,Red_Triangle_Chess_3.jpg,Blue_Star_Dots_2.jpg,NA,NA,NA,NA,undefined
SKBgR0jc,3peg1bh7bh4xuzsxamnfbz6ha40bkr,33nf62tlxnf5z2o3pg5yy7ll7e7kj7,SKBgR0jc,2020-0188,2020-06-16,09:58:48,10:23:20,NA,NA,instruction example,number,NA,NA,Green_Triangle_Grid_2.jpg,Green_Star_Dots_4.jpg,Blue_Triangle_Stripes_3.jpg,NA,NA,NA,NA,undefined
SKBgR0jc,3peg1bh7bh4xuzsxamnfbz6ha40bkr,33nf62tlxnf5z2o3pg5yy7ll7e7kj7,SKBgR0jc,2020-0188,2020-06-16,09:58:48,10:23:20,1436752.1050000214,1473051.77000002,NA,NA,NA,NA,NA,NA,NA,NA,NA,NA,NA,undefined
