workerId,hitId,assignmentId,subject,studyid,exp_date,exp_start,exp_end,time_start,time_end,trial,type,reward_validity,answer,image_top,image_left,image_right,response,response_time,response_acc,volatility,practice
3Y3WkhvP,3icohx7eofotocxdgkfntnxt5xb0e8,34x6j5flpxbra5my2lpvutxv0h1qjx,3Y3WkhvP,2020-0188,2020-11-18,15:18:10,15:39:36,NA,incomplete,0,number,1,left,Purple_Circle_Chess_4.jpg,Green_Triangle_Stripes_4.jpg,Red_Circle_Grid_3.jpg,none,0,false,NA,true
3Y3WkhvP,3icohx7eofotocxdgkfntnxt5xb0e8,34x6j5flpxbra5my2lpvutxv0h1qjx,3Y3WkhvP,2020-0188,2020-11-18,15:18:10,15:39:36,NA,incomplete,1,number,1,left,Red_Triangle_Grid_1.jpg,Blue_Plus_Chess_1.jpg,Purple_Triangle_Stripes_4.jpg,left,999.7750000329688,true,NA,true
3Y3WkhvP,3icohx7eofotocxdgkfntnxt5xb0e8,34x6j5flpxbra5my2lpvutxv0h1qjx,3Y3WkhvP,2020-0188,2020-11-18,15:18:10,15:39:36,NA,incomplete,2,number,1,left,Blue_Circle_Chess_4.jpg,Purple_Triangle_Stripes_4.jpg,Red_Circle_Grid_3.jpg,left,1211.6399999940768,true,NA,true
3Y3WkhvP,3icohx7eofotocxdgkfntnxt5xb0e8,34x6j5flpxbra5my2lpvutxv0h1qjx,3Y3WkhvP,2020-0188,2020-11-18,15:18:10,15:39:36,NA,incomplete,3,number,1,left,Purple_Star_Stripes_4.jpg,Red_Plus_Grid_4.jpg,Green_Star_Chess_3.jpg,left,1107.8400000697002,true,NA,true
3Y3WkhvP,3icohx7eofotocxdgkfntnxt5xb0e8,34x6j5flpxbra5my2lpvutxv0h1qjx,3Y3WkhvP,2020-0188,2020-11-18,15:18:10,15:39:36,NA,incomplete,4,number,1,left,Blue_Star_Stripes_2.jpg,Green_Plus_Dots_2.jpg,Red_Star_Grid_1.jpg,left,1088.6650000466034,true,NA,true
3Y3WkhvP,3icohx7eofotocxdgkfntnxt5xb0e8,34x6j5flpxbra5my2lpvutxv0h1qjx,3Y3WkhvP,2020-0188,2020-11-18,15:18:10,15:39:36,NA,incomplete,5,number,1,right,Green_Star_Stripes_3.jpg,Red_Star_Grid_1.jpg,Blue_Plus_Chess_3.jpg,right,928.8800000213087,true,NA,true
3Y3WkhvP,3icohx7eofotocxdgkfntnxt5xb0e8,34x6j5flpxbra5my2lpvutxv0h1qjx,3Y3WkhvP,2020-0188,2020-11-18,15:18:10,15:39:36,NA,incomplete,6,number,0,left,Red_Star_Stripes_3.jpg,Green_Circle_Dots_3.jpg,Blue_Star_Grid_2.jpg,left,807.9449998913333,true,NA,true
3Y3WkhvP,3icohx7eofotocxdgkfntnxt5xb0e8,34x6j5flpxbra5my2lpvutxv0h1qjx,3Y3WkhvP,2020-0188,2020-11-18,15:18:10,15:39:36,NA,incomplete,7,number,1,right,Red_Triangle_Grid_4.jpg,Green_Triangle_Chess_3.jpg,Blue_Plus_Dots_4.jpg,right,1373.9250000799075,true,NA,true
3Y3WkhvP,3icohx7eofotocxdgkfntnxt5xb0e8,34x6j5flpxbra5my2lpvutxv0h1qjx,3Y3WkhvP,2020-0188,2020-11-18,15:18:10,15:39:36,NA,incomplete,8,number,1,left,Red_Plus_Grid_3.jpg,Purple_Circle_Dots_3.jpg,Green_Plus_Stripes_4.jpg,left,841.5400000521913,true,NA,true
3Y3WkhvP,3icohx7eofotocxdgkfntnxt5xb0e8,34x6j5flpxbra5my2lpvutxv0h1qjx,3Y3WkhvP,2020-0188,2020-11-18,15:18:10,15:39:36,NA,incomplete,9,number,1,left,Blue_Triangle_Grid_3.jpg,Red_Star_Dots_3.jpg,Purple_Triangle_Stripes_2.jpg,left,978.6950000561774,true,NA,true
3Y3WkhvP,3icohx7eofotocxdgkfntnxt5xb0e8,34x6j5flpxbra5my2lpvutxv0h1qjx,3Y3WkhvP,2020-0188,2020-11-18,15:18:10,15:39:36,NA,incomplete,10,number,1,right,Blue_Plus_Chess_1.jpg,Red_Plus_Dots_2.jpg,Purple_Star_Stripes_1.jpg,right,1027.5350000010803,true,NA,true
3Y3WkhvP,3icohx7eofotocxdgkfntnxt5xb0e8,34x6j5flpxbra5my2lpvutxv0h1qjx,3Y3WkhvP,2020-0188,2020-11-18,15:18:10,15:39:36,NA,incomplete,11,number,0,right,Blue_Circle_Stripes_3.jpg,Red_Circle_Grid_2.jpg,Green_Triangle_Dots_3.jpg,right,755.5350000038743,true,NA,true
3Y3WkhvP,3icohx7eofotocxdgkfntnxt5xb0e8,34x6j5flpxbra5my2lpvutxv0h1qjx,3Y3WkhvP,2020-0188,2020-11-18,15:18:10,15:39:36,NA,incomplete,12,number,1,right,Purple_Star_Grid_1.jpg,Blue_Star_Stripes_4.jpg,Green_Plus_Dots_1.jpg,right,941.0099999513477,true,NA,true
3Y3WkhvP,3icohx7eofotocxdgkfntnxt5xb0e8,34x6j5flpxbra5my2lpvutxv0h1qjx,3Y3WkhvP,2020-0188,2020-11-18,15:18:10,15:39:36,NA,incomplete,13,number,1,right,Red_Circle_Chess_4.jpg,Blue_Circle_Dots_3.jpg,Green_Star_Grid_4.jpg,right,969.4699998944998,true,NA,true
3Y3WkhvP,3icohx7eofotocxdgkfntnxt5xb0e8,34x6j5flpxbra5my2lpvutxv0h1qjx,3Y3WkhvP,2020-0188,2020-11-18,15:18:10,15:39:36,NA,incomplete,14,number,1,left,Blue_Plus_Stripes_4.jpg,Red_Triangle_Dots_4.jpg,Purple_Plus_Chess_2.jpg,left,891.5900000138208,true,NA,true
3Y3WkhvP,3icohx7eofotocxdgkfntnxt5xb0e8,34x6j5flpxbra5my2lpvutxv0h1qjx,3Y3WkhvP,2020-0188,2020-11-18,15:18:10,15:39:36,NA,incomplete,15,number,1,right,Blue_Triangle_Grid_2.jpg,Red_Triangle_Stripes_3.jpg,Green_Plus_Dots_2.jpg,right,970.7899999339134,true,NA,true
3Y3WkhvP,3icohx7eofotocxdgkfntnxt5xb0e8,34x6j5flpxbra5my2lpvutxv0h1qjx,3Y3WkhvP,2020-0188,2020-11-18,15:18:10,15:39:36,NA,incomplete,16,number,1,left,Blue_Circle_Stripes_4.jpg,Red_Plus_Chess_4.jpg,Green_Circle_Grid_1.jpg,left,1100.910000037402,true,NA,true
3Y3WkhvP,3icohx7eofotocxdgkfntnxt5xb0e8,34x6j5flpxbra5my2lpvutxv0h1qjx,3Y3WkhvP,2020-0188,2020-11-18,15:18:10,15:39:36,NA,incomplete,17,number,0,left,Green_Triangle_Dots_4.jpg,Red_Plus_Grid_4.jpg,Blue_Triangle_Stripes_1.jpg,left,731.4100000075996,true,NA,true
3Y3WkhvP,3icohx7eofotocxdgkfntnxt5xb0e8,34x6j5flpxbra5my2lpvutxv0h1qjx,3Y3WkhvP,2020-0188,2020-11-18,15:18:10,15:39:36,NA,incomplete,18,number,1,right,Green_Star_Grid_3.jpg,Blue_Star_Chess_2.jpg,Purple_Plus_Dots_3.jpg,right,909.2650000238791,true,NA,true
3Y3WkhvP,3icohx7eofotocxdgkfntnxt5xb0e8,34x6j5flpxbra5my2lpvutxv0h1qjx,3Y3WkhvP,2020-0188,2020-11-18,15:18:10,15:39:36,NA,incomplete,19,number,0,right,Purple_Circle_Chess_4.jpg,Green_Circle_Dots_2.jpg,Red_Star_Grid_4.jpg,right,750.4399999743327,true,NA,true
3Y3WkhvP,3icohx7eofotocxdgkfntnxt5xb0e8,34x6j5flpxbra5my2lpvutxv0h1qjx,3Y3WkhvP,2020-0188,2020-11-18,15:18:10,15:39:36,NA,incomplete,20,shape,1,right,Green_Triangle_Grid_2.jpg,Blue_Plus_Stripes_2.jpg,Purple_Triangle_Dots_3.jpg,right,1393.6700000194833,true,NA,true
3Y3WkhvP,3icohx7eofotocxdgkfntnxt5xb0e8,34x6j5flpxbra5my2lpvutxv0h1qjx,3Y3WkhvP,2020-0188,2020-11-18,15:18:10,15:39:36,NA,incomplete,21,shape,1,right,Red_Plus_Chess_4.jpg,Purple_Circle_Dots_4.jpg,Blue_Plus_Stripes_2.jpg,right,1143.5749999945983,true,NA,true
3Y3WkhvP,3icohx7eofotocxdgkfntnxt5xb0e8,34x6j5flpxbra5my2lpvutxv0h1qjx,3Y3WkhvP,2020-0188,2020-11-18,15:18:10,15:39:36,NA,incomplete,22,shape,1,right,Purple_Star_Grid_2.jpg,Blue_Plus_Chess_2.jpg,Red_Star_Stripes_4.jpg,right,1277.0899999886751,true,NA,true
3Y3WkhvP,3icohx7eofotocxdgkfntnxt5xb0e8,34x6j5flpxbra5my2lpvutxv0h1qjx,3Y3WkhvP,2020-0188,2020-11-18,15:18:10,15:39:36,NA,incomplete,23,shape,1,right,Blue_Star_Grid_3.jpg,Red_Plus_Chess_3.jpg,Green_Star_Dots_1.jpg,left,928.8800000213087,false,NA,true
3Y3WkhvP,3icohx7eofotocxdgkfntnxt5xb0e8,34x6j5flpxbra5my2lpvutxv0h1qjx,3Y3WkhvP,2020-0188,2020-11-18,15:18:10,15:39:36,NA,incomplete,24,shape,1,right,Blue_Star_Stripes_1.jpg,Green_Triangle_Grid_1.jpg,Purple_Star_Dots_4.jpg,left,1353.484999970533,false,NA,true
3Y3WkhvP,3icohx7eofotocxdgkfntnxt5xb0e8,34x6j5flpxbra5my2lpvutxv0h1qjx,3Y3WkhvP,2020-0188,2020-11-18,15:18:10,15:39:36,NA,incomplete,25,shape,1,left,Green_Circle_Grid_3.jpg,Red_Circle_Dots_4.jpg,Purple_Plus_Stripes_3.jpg,right,736.2399999983609,false,NA,true
3Y3WkhvP,3icohx7eofotocxdgkfntnxt5xb0e8,34x6j5flpxbra5my2lpvutxv0h1qjx,3Y3WkhvP,2020-0188,2020-11-18,15:18:10,15:39:36,NA,incomplete,26,shape,0,right,Green_Plus_Dots_3.jpg,Purple_Circle_Grid_3.jpg,Red_Plus_Chess_2.jpg,right,1240.0050000287592,true,NA,true
3Y3WkhvP,3icohx7eofotocxdgkfntnxt5xb0e8,34x6j5flpxbra5my2lpvutxv0h1qjx,3Y3WkhvP,2020-0188,2020-11-18,15:18:10,15:39:36,NA,incomplete,27,shape,1,right,Purple_Star_Dots_3.jpg,Green_Circle_Chess_3.jpg,Red_Star_Grid_1.jpg,right,1079.1550000431016,true,NA,true
3Y3WkhvP,3icohx7eofotocxdgkfntnxt5xb0e8,34x6j5flpxbra5my2lpvutxv0h1qjx,3Y3WkhvP,2020-0188,2020-11-18,15:18:10,15:39:36,NA,incomplete,28,shape,0,left,Blue_Circle_Dots_2.jpg,Red_Circle_Grid_4.jpg,Purple_Star_Chess_2.jpg,left,751.9300000276417,true,NA,true
3Y3WkhvP,3icohx7eofotocxdgkfntnxt5xb0e8,34x6j5flpxbra5my2lpvutxv0h1qjx,3Y3WkhvP,2020-0188,2020-11-18,15:18:10,15:39:36,NA,incomplete,29,shape,1,right,Red_Circle_Stripes_1.jpg,Blue_Triangle_Dots_1.jpg,Green_Circle_Chess_4.jpg,right,797.1949999919161,true,NA,true
3Y3WkhvP,3icohx7eofotocxdgkfntnxt5xb0e8,34x6j5flpxbra5my2lpvutxv0h1qjx,3Y3WkhvP,2020-0188,2020-11-18,15:18:10,15:39:36,NA,incomplete,30,shape,1,right,Blue_Triangle_Grid_1.jpg,Green_Circle_Dots_1.jpg,Red_Triangle_Chess_3.jpg,right,903.0000000493601,true,NA,true
3Y3WkhvP,3icohx7eofotocxdgkfntnxt5xb0e8,34x6j5flpxbra5my2lpvutxv0h1qjx,3Y3WkhvP,2020-0188,2020-11-18,15:18:10,15:39:36,NA,incomplete,31,shape,1,right,Red_Star_Chess_3.jpg,Purple_Plus_Dots_3.jpg,Blue_Star_Grid_2.jpg,right,1111.9150000158697,true,NA,true
3Y3WkhvP,3icohx7eofotocxdgkfntnxt5xb0e8,34x6j5flpxbra5my2lpvutxv0h1qjx,3Y3WkhvP,2020-0188,2020-11-18,15:18:10,15:39:36,NA,incomplete,32,shape,1,left,Blue_Plus_Dots_1.jpg,Purple_Plus_Chess_3.jpg,Red_Star_Grid_1.jpg,left,1237.9799999762326,true,NA,true
3Y3WkhvP,3icohx7eofotocxdgkfntnxt5xb0e8,34x6j5flpxbra5my2lpvutxv0h1qjx,3Y3WkhvP,2020-0188,2020-11-18,15:18:10,15:39:36,NA,incomplete,33,shape,1,right,Red_Star_Chess_4.jpg,Blue_Triangle_Stripes_4.jpg,Purple_Star_Dots_2.jpg,right,923.3649999368936,true,NA,true
3Y3WkhvP,3icohx7eofotocxdgkfntnxt5xb0e8,34x6j5flpxbra5my2lpvutxv0h1qjx,3Y3WkhvP,2020-0188,2020-11-18,15:18:10,15:39:36,NA,incomplete,34,shape,0,right,Purple_Plus_Stripes_1.jpg,Green_Star_Dots_1.jpg,Blue_Plus_Chess_2.jpg,right,894.594999961555,true,NA,true
3Y3WkhvP,3icohx7eofotocxdgkfntnxt5xb0e8,34x6j5flpxbra5my2lpvutxv0h1qjx,3Y3WkhvP,2020-0188,2020-11-18,15:18:10,15:39:36,NA,incomplete,35,shape,1,left,Purple_Triangle_Chess_1.jpg,Red_Triangle_Stripes_2.jpg,Blue_Plus_Dots_1.jpg,left,974.3500000331551,true,NA,true
3Y3WkhvP,3icohx7eofotocxdgkfntnxt5xb0e8,34x6j5flpxbra5my2lpvutxv0h1qjx,3Y3WkhvP,2020-0188,2020-11-18,15:18:10,15:39:36,NA,incomplete,36,shape,1,left,Green_Triangle_Chess_1.jpg,Purple_Triangle_Dots_2.jpg,Red_Plus_Grid_1.jpg,left,821.3049999903888,true,NA,true
3Y3WkhvP,3icohx7eofotocxdgkfntnxt5xb0e8,34x6j5flpxbra5my2lpvutxv0h1qjx,3Y3WkhvP,2020-0188,2020-11-18,15:18:10,15:39:36,NA,incomplete,37,shape,0,left,Green_Circle_Dots_3.jpg,Red_Circle_Grid_2.jpg,Blue_Plus_Chess_3.jpg,left,999.8950000153854,true,NA,true
3Y3WkhvP,3icohx7eofotocxdgkfntnxt5xb0e8,34x6j5flpxbra5my2lpvutxv0h1qjx,3Y3WkhvP,2020-0188,2020-11-18,15:18:10,15:39:36,NA,incomplete,38,shape,1,right,Green_Circle_Stripes_3.jpg,Purple_Star_Chess_3.jpg,Blue_Circle_Dots_1.jpg,right,732.2899999562651,true,NA,true
3Y3WkhvP,3icohx7eofotocxdgkfntnxt5xb0e8,34x6j5flpxbra5my2lpvutxv0h1qjx,3Y3WkhvP,2020-0188,2020-11-18,15:18:10,15:39:36,NA,incomplete,39,shape,1,right,Purple_Plus_Stripes_2.jpg,Green_Star_Chess_2.jpg,Blue_Plus_Dots_1.jpg,right,1218.3749999385327,true,NA,true
3Y3WkhvP,3icohx7eofotocxdgkfntnxt5xb0e8,34x6j5flpxbra5my2lpvutxv0h1qjx,3Y3WkhvP,2020-0188,2020-11-18,15:18:10,15:39:36,NA,incomplete,0,number,1,right,Red_Star_Grid_4.jpg,Purple_Star_Chess_1.jpg,Green_Circle_Dots_4.jpg,left,1667.4150000326335,false,low,false
3Y3WkhvP,3icohx7eofotocxdgkfntnxt5xb0e8,34x6j5flpxbra5my2lpvutxv0h1qjx,3Y3WkhvP,2020-0188,2020-11-18,15:18:10,15:39:36,NA,incomplete,1,number,1,left,Blue_Triangle_Dots_3.jpg,Red_Star_Stripes_3.jpg,Purple_Triangle_Chess_1.jpg,left,951.4999999664724,true,low,false
3Y3WkhvP,3icohx7eofotocxdgkfntnxt5xb0e8,34x6j5flpxbra5my2lpvutxv0h1qjx,3Y3WkhvP,2020-0188,2020-11-18,15:18:10,15:39:36,NA,incomplete,2,number,1,left,Green_Circle_Dots_2.jpg,Red_Triangle_Stripes_2.jpg,Purple_Circle_Chess_1.jpg,left,1176.329999929294,true,low,false
3Y3WkhvP,3icohx7eofotocxdgkfntnxt5xb0e8,34x6j5flpxbra5my2lpvutxv0h1qjx,3Y3WkhvP,2020-0188,2020-11-18,15:18:10,15:39:36,NA,incomplete,3,number,1,left,Green_Plus_Stripes_3.jpg,Purple_Triangle_Chess_3.jpg,Red_Plus_Dots_1.jpg,left,682.5700000626966,true,low,false
3Y3WkhvP,3icohx7eofotocxdgkfntnxt5xb0e8,34x6j5flpxbra5my2lpvutxv0h1qjx,3Y3WkhvP,2020-0188,2020-11-18,15:18:10,15:39:36,NA,incomplete,4,number,1,left,Purple_Triangle_Grid_3.jpg,Green_Star_Stripes_3.jpg,Blue_Triangle_Dots_2.jpg,left,1018.9300000201911,true,low,false
3Y3WkhvP,3icohx7eofotocxdgkfntnxt5xb0e8,34x6j5flpxbra5my2lpvutxv0h1qjx,3Y3WkhvP,2020-0188,2020-11-18,15:18:10,15:39:36,NA,incomplete,5,number,0,left,Green_Star_Grid_3.jpg,Red_Plus_Dots_3.jpg,Purple_Star_Chess_4.jpg,left,787.5950000016019,true,low,false
3Y3WkhvP,3icohx7eofotocxdgkfntnxt5xb0e8,34x6j5flpxbra5my2lpvutxv0h1qjx,3Y3WkhvP,2020-0188,2020-11-18,15:18:10,15:39:36,NA,incomplete,6,number,0,right,Red_Circle_Stripes_4.jpg,Green_Circle_Chess_2.jpg,Blue_Triangle_Grid_4.jpg,left,1059.679999947548,false,low,false
3Y3WkhvP,3icohx7eofotocxdgkfntnxt5xb0e8,34x6j5flpxbra5my2lpvutxv0h1qjx,3Y3WkhvP,2020-0188,2020-11-18,15:18:10,15:39:36,NA,incomplete,7,number,0,left,Blue_Triangle_Dots_1.jpg,Purple_Plus_Stripes_1.jpg,Green_Triangle_Grid_4.jpg,right,632.3750000447035,false,low,false
3Y3WkhvP,3icohx7eofotocxdgkfntnxt5xb0e8,34x6j5flpxbra5my2lpvutxv0h1qjx,3Y3WkhvP,2020-0188,2020-11-18,15:18:10,15:39:36,NA,incomplete,8,number,0,left,Purple_Circle_Stripes_4.jpg,Red_Star_Dots_4.jpg,Blue_Circle_Chess_2.jpg,right,676.3849999988452,false,low,false
3Y3WkhvP,3icohx7eofotocxdgkfntnxt5xb0e8,34x6j5flpxbra5my2lpvutxv0h1qjx,3Y3WkhvP,2020-0188,2020-11-18,15:18:10,15:39:36,NA,incomplete,9,number,0,right,Green_Circle_Grid_1.jpg,Blue_Circle_Dots_3.jpg,Purple_Triangle_Stripes_1.jpg,left,905.5500000249594,false,low,false
3Y3WkhvP,3icohx7eofotocxdgkfntnxt5xb0e8,34x6j5flpxbra5my2lpvutxv0h1qjx,3Y3WkhvP,2020-0188,2020-11-18,15:18:10,15:39:36,NA,incomplete,10,number,1,left,Purple_Plus_Stripes_3.jpg,Blue_Star_Dots_3.jpg,Red_Plus_Chess_1.jpg,right,702.2900000447407,false,low,false
3Y3WkhvP,3icohx7eofotocxdgkfntnxt5xb0e8,34x6j5flpxbra5my2lpvutxv0h1qjx,3Y3WkhvP,2020-0188,2020-11-18,15:18:10,15:39:36,NA,incomplete,11,number,1,left,Red_Circle_Chess_1.jpg,Purple_Plus_Stripes_1.jpg,Blue_Circle_Dots_2.jpg,right,1684.1900000581518,false,low,false
3Y3WkhvP,3icohx7eofotocxdgkfntnxt5xb0e8,34x6j5flpxbra5my2lpvutxv0h1qjx,3Y3WkhvP,2020-0188,2020-11-18,15:18:10,15:39:36,NA,incomplete,12,number,1,right,Red_Star_Stripes_1.jpg,Green_Star_Grid_3.jpg,Purple_Triangle_Chess_1.jpg,right,806.8600000115111,true,low,false
3Y3WkhvP,3icohx7eofotocxdgkfntnxt5xb0e8,34x6j5flpxbra5my2lpvutxv0h1qjx,3Y3WkhvP,2020-0188,2020-11-18,15:18:10,15:39:36,NA,incomplete,13,number,1,left,Green_Circle_Chess_1.jpg,Red_Plus_Dots_1.jpg,Blue_Circle_Stripes_2.jpg,left,1025.4600000334904,true,low,false
3Y3WkhvP,3icohx7eofotocxdgkfntnxt5xb0e8,34x6j5flpxbra5my2lpvutxv0h1qjx,3Y3WkhvP,2020-0188,2020-11-18,15:18:10,15:39:36,NA,incomplete,14,number,1,right,Red_Star_Grid_4.jpg,Green_Star_Stripes_2.jpg,Purple_Circle_Dots_4.jpg,right,1047.2799999406561,true,low,false
3Y3WkhvP,3icohx7eofotocxdgkfntnxt5xb0e8,34x6j5flpxbra5my2lpvutxv0h1qjx,3Y3WkhvP,2020-0188,2020-11-18,15:18:10,15:39:36,NA,incomplete,15,number,1,left,Red_Star_Dots_2.jpg,Green_Circle_Grid_2.jpg,Blue_Star_Stripes_3.jpg,left,987.1900000143796,true,low,false
3Y3WkhvP,3icohx7eofotocxdgkfntnxt5xb0e8,34x6j5flpxbra5my2lpvutxv0h1qjx,3Y3WkhvP,2020-0188,2020-11-18,15:18:10,15:39:36,NA,incomplete,16,number,1,right,Blue_Plus_Stripes_1.jpg,Red_Plus_Dots_2.jpg,Purple_Triangle_Chess_1.jpg,left,1045.769999967888,false,low,false
3Y3WkhvP,3icohx7eofotocxdgkfntnxt5xb0e8,34x6j5flpxbra5my2lpvutxv0h1qjx,3Y3WkhvP,2020-0188,2020-11-18,15:18:10,15:39:36,NA,incomplete,17,number,1,right,Blue_Circle_Chess_4.jpg,Green_Circle_Stripes_1.jpg,Purple_Triangle_Grid_4.jpg,right,870.0799999060109,true,low,false
3Y3WkhvP,3icohx7eofotocxdgkfntnxt5xb0e8,34x6j5flpxbra5my2lpvutxv0h1qjx,3Y3WkhvP,2020-0188,2020-11-18,15:18:10,15:39:36,NA,incomplete,18,number,0,left,Green_Triangle_Dots_3.jpg,Blue_Plus_Grid_3.jpg,Purple_Triangle_Chess_4.jpg,left,831.9650000194088,true,low,false
3Y3WkhvP,3icohx7eofotocxdgkfntnxt5xb0e8,34x6j5flpxbra5my2lpvutxv0h1qjx,3Y3WkhvP,2020-0188,2020-11-18,15:18:10,15:39:36,NA,incomplete,19,number,1,left,Red_Star_Grid_3.jpg,Blue_Triangle_Chess_3.jpg,Green_Star_Dots_2.jpg,right,1306.7399999126792,false,low,false
3Y3WkhvP,3icohx7eofotocxdgkfntnxt5xb0e8,34x6j5flpxbra5my2lpvutxv0h1qjx,3Y3WkhvP,2020-0188,2020-11-18,15:18:10,15:39:36,NA,incomplete,20,number,1,right,Red_Triangle_Dots_3.jpg,Green_Triangle_Stripes_4.jpg,Purple_Plus_Chess_3.jpg,right,925.7500000530854,true,low,false
3Y3WkhvP,3icohx7eofotocxdgkfntnxt5xb0e8,34x6j5flpxbra5my2lpvutxv0h1qjx,3Y3WkhvP,2020-0188,2020-11-18,15:18:10,15:39:36,NA,incomplete,21,number,0,left,Green_Triangle_Grid_3.jpg,Blue_Plus_Chess_3.jpg,Purple_Triangle_Dots_2.jpg,left,679.5999999158084,true,low,false
3Y3WkhvP,3icohx7eofotocxdgkfntnxt5xb0e8,34x6j5flpxbra5my2lpvutxv0h1qjx,3Y3WkhvP,2020-0188,2020-11-18,15:18:10,15:39:36,NA,incomplete,22,number,1,left,Blue_Star_Grid_2.jpg,Green_Plus_Stripes_2.jpg,Red_Star_Chess_4.jpg,right,858.6849999846891,false,low,false
3Y3WkhvP,3icohx7eofotocxdgkfntnxt5xb0e8,34x6j5flpxbra5my2lpvutxv0h1qjx,3Y3WkhvP,2020-0188,2020-11-18,15:18:10,15:39:36,NA,incomplete,23,number,0,left,Purple_Plus_Grid_1.jpg,Red_Circle_Dots_1.jpg,Green_Plus_Stripes_2.jpg,left,751.8500000005588,true,low,false
3Y3WkhvP,3icohx7eofotocxdgkfntnxt5xb0e8,34x6j5flpxbra5my2lpvutxv0h1qjx,3Y3WkhvP,2020-0188,2020-11-18,15:18:10,15:39:36,NA,incomplete,24,number,1,right,Red_Circle_Chess_3.jpg,Purple_Circle_Stripes_1.jpg,Green_Triangle_Grid_3.jpg,left,1099.6499999891967,false,low,false
3Y3WkhvP,3icohx7eofotocxdgkfntnxt5xb0e8,34x6j5flpxbra5my2lpvutxv0h1qjx,3Y3WkhvP,2020-0188,2020-11-18,15:18:10,15:39:36,NA,incomplete,25,number,1,right,Green_Star_Grid_1.jpg,Blue_Star_Dots_4.jpg,Red_Circle_Chess_1.jpg,right,1302.1150000859052,true,low,false
3Y3WkhvP,3icohx7eofotocxdgkfntnxt5xb0e8,34x6j5flpxbra5my2lpvutxv0h1qjx,3Y3WkhvP,2020-0188,2020-11-18,15:18:10,15:39:36,NA,incomplete,26,number,1,right,Green_Star_Chess_2.jpg,Red_Star_Dots_3.jpg,Purple_Triangle_Stripes_2.jpg,right,909.8050000611693,true,low,false
3Y3WkhvP,3icohx7eofotocxdgkfntnxt5xb0e8,34x6j5flpxbra5my2lpvutxv0h1qjx,3Y3WkhvP,2020-0188,2020-11-18,15:18:10,15:39:36,NA,incomplete,27,number,0,left,Red_Plus_Chess_2.jpg,Purple_Star_Stripes_2.jpg,Blue_Plus_Grid_4.jpg,left,897.7350000059232,true,low,false
3Y3WkhvP,3icohx7eofotocxdgkfntnxt5xb0e8,34x6j5flpxbra5my2lpvutxv0h1qjx,3Y3WkhvP,2020-0188,2020-11-18,15:18:10,15:39:36,NA,incomplete,28,number,1,left,Purple_Star_Chess_1.jpg,Red_Circle_Grid_1.jpg,Green_Star_Stripes_2.jpg,left,1062.4100000131875,true,low,false
3Y3WkhvP,3icohx7eofotocxdgkfntnxt5xb0e8,34x6j5flpxbra5my2lpvutxv0h1qjx,3Y3WkhvP,2020-0188,2020-11-18,15:18:10,15:39:36,NA,incomplete,29,number,0,left,Blue_Star_Dots_2.jpg,Red_Plus_Chess_2.jpg,Green_Star_Grid_1.jpg,left,793.0949999717996,true,low,false
3Y3WkhvP,3icohx7eofotocxdgkfntnxt5xb0e8,34x6j5flpxbra5my2lpvutxv0h1qjx,3Y3WkhvP,2020-0188,2020-11-18,15:18:10,15:39:36,NA,incomplete,30,shape,1,right,Green_Triangle_Dots_1.jpg,Blue_Plus_Chess_1.jpg,Purple_Triangle_Stripes_3.jpg,left,1826.3099999167025,false,low,false
3Y3WkhvP,3icohx7eofotocxdgkfntnxt5xb0e8,34x6j5flpxbra5my2lpvutxv0h1qjx,3Y3WkhvP,2020-0188,2020-11-18,15:18:10,15:39:36,NA,incomplete,31,shape,1,left,Red_Triangle_Dots_1.jpg,Blue_Triangle_Chess_3.jpg,Purple_Star_Stripes_1.jpg,left,751.079999958165,true,low,false
3Y3WkhvP,3icohx7eofotocxdgkfntnxt5xb0e8,34x6j5flpxbra5my2lpvutxv0h1qjx,3Y3WkhvP,2020-0188,2020-11-18,15:18:10,15:39:36,NA,incomplete,32,shape,0,right,Blue_Triangle_Dots_3.jpg,Purple_Star_Stripes_3.jpg,Red_Triangle_Chess_2.jpg,left,1194.5999999297783,false,low,false
3Y3WkhvP,3icohx7eofotocxdgkfntnxt5xb0e8,34x6j5flpxbra5my2lpvutxv0h1qjx,3Y3WkhvP,2020-0188,2020-11-18,15:18:10,15:39:36,NA,incomplete,33,shape,1,right,Red_Circle_Dots_2.jpg,Purple_Star_Stripes_2.jpg,Blue_Circle_Grid_3.jpg,right,1391.6400000452995,true,low,false
3Y3WkhvP,3icohx7eofotocxdgkfntnxt5xb0e8,34x6j5flpxbra5my2lpvutxv0h1qjx,3Y3WkhvP,2020-0188,2020-11-18,15:18:10,15:39:36,NA,incomplete,34,shape,1,left,Green_Star_Dots_3.jpg,Blue_Star_Grid_4.jpg,Red_Plus_Chess_3.jpg,right,905.7000000029802,false,low,false
3Y3WkhvP,3icohx7eofotocxdgkfntnxt5xb0e8,34x6j5flpxbra5my2lpvutxv0h1qjx,3Y3WkhvP,2020-0188,2020-11-18,15:18:10,15:39:36,NA,incomplete,35,shape,1,right,Red_Triangle_Grid_1.jpg,Blue_Plus_Chess_1.jpg,Purple_Triangle_Dots_4.jpg,left,1245.6950000487268,false,low,false
3Y3WkhvP,3icohx7eofotocxdgkfntnxt5xb0e8,34x6j5flpxbra5my2lpvutxv0h1qjx,3Y3WkhvP,2020-0188,2020-11-18,15:18:10,15:39:36,NA,incomplete,36,shape,1,right,Green_Circle_Chess_1.jpg,Blue_Star_Grid_1.jpg,Red_Circle_Dots_3.jpg,right,756.5500000491738,true,low,false
3Y3WkhvP,3icohx7eofotocxdgkfntnxt5xb0e8,34x6j5flpxbra5my2lpvutxv0h1qjx,3Y3WkhvP,2020-0188,2020-11-18,15:18:10,15:39:36,NA,incomplete,37,shape,0,right,Green_Plus_Stripes_4.jpg,Blue_Triangle_Grid_4.jpg,Purple_Plus_Dots_2.jpg,left,772.4099999759346,false,low,false
3Y3WkhvP,3icohx7eofotocxdgkfntnxt5xb0e8,34x6j5flpxbra5my2lpvutxv0h1qjx,3Y3WkhvP,2020-0188,2020-11-18,15:18:10,15:39:36,NA,incomplete,38,shape,1,right,Red_Triangle_Chess_3.jpg,Purple_Star_Dots_3.jpg,Green_Triangle_Grid_1.jpg,left,1006.5349999349564,false,low,false
3Y3WkhvP,3icohx7eofotocxdgkfntnxt5xb0e8,34x6j5flpxbra5my2lpvutxv0h1qjx,3Y3WkhvP,2020-0188,2020-11-18,15:18:10,15:39:36,NA,incomplete,39,shape,1,left,Blue_Circle_Stripes_2.jpg,Purple_Circle_Dots_3.jpg,Red_Plus_Grid_2.jpg,right,1263.5400000726804,false,low,false
3Y3WkhvP,3icohx7eofotocxdgkfntnxt5xb0e8,34x6j5flpxbra5my2lpvutxv0h1qjx,3Y3WkhvP,2020-0188,2020-11-18,15:18:10,15:39:36,NA,incomplete,40,shape,0,right,Purple_Circle_Grid_3.jpg,Red_Star_Stripes_3.jpg,Green_Circle_Dots_4.jpg,right,931.6950000356883,true,low,false
3Y3WkhvP,3icohx7eofotocxdgkfntnxt5xb0e8,34x6j5flpxbra5my2lpvutxv0h1qjx,3Y3WkhvP,2020-0188,2020-11-18,15:18:10,15:39:36,NA,incomplete,41,shape,1,left,Purple_Star_Dots_3.jpg,Green_Star_Chess_2.jpg,Blue_Plus_Grid_3.jpg,right,938.495000009425,false,low,false
3Y3WkhvP,3icohx7eofotocxdgkfntnxt5xb0e8,34x6j5flpxbra5my2lpvutxv0h1qjx,3Y3WkhvP,2020-0188,2020-11-18,15:18:10,15:39:36,NA,incomplete,42,shape,1,left,Green_Circle_Chess_1.jpg,Blue_Circle_Dots_3.jpg,Red_Triangle_Grid_1.jpg,left,1104.1449999902397,true,low,false
3Y3WkhvP,3icohx7eofotocxdgkfntnxt5xb0e8,34x6j5flpxbra5my2lpvutxv0h1qjx,3Y3WkhvP,2020-0188,2020-11-18,15:18:10,15:39:36,NA,incomplete,43,shape,1,left,Red_Triangle_Grid_1.jpg,Green_Triangle_Chess_2.jpg,Blue_Circle_Dots_1.jpg,left,736.9900000048801,true,low,false
3Y3WkhvP,3icohx7eofotocxdgkfntnxt5xb0e8,34x6j5flpxbra5my2lpvutxv0h1qjx,3Y3WkhvP,2020-0188,2020-11-18,15:18:10,15:39:36,NA,incomplete,44,shape,0,left,Blue_Star_Stripes_3.jpg,Green_Star_Dots_1.jpg,Red_Triangle_Chess_3.jpg,left,1101.740000071004,true,low,false
3Y3WkhvP,3icohx7eofotocxdgkfntnxt5xb0e8,34x6j5flpxbra5my2lpvutxv0h1qjx,3Y3WkhvP,2020-0188,2020-11-18,15:18:10,15:39:36,NA,incomplete,45,shape,1,right,Blue_Plus_Chess_2.jpg,Green_Circle_Grid_2.jpg,Red_Plus_Stripes_3.jpg,left,950.6850000470877,false,low,false
3Y3WkhvP,3icohx7eofotocxdgkfntnxt5xb0e8,34x6j5flpxbra5my2lpvutxv0h1qjx,3Y3WkhvP,2020-0188,2020-11-18,15:18:10,15:39:36,NA,incomplete,46,shape,0,left,Red_Plus_Chess_2.jpg,Purple_Plus_Stripes_3.jpg,Green_Triangle_Dots_2.jpg,left,1093.2899999897927,true,low,false
3Y3WkhvP,3icohx7eofotocxdgkfntnxt5xb0e8,34x6j5flpxbra5my2lpvutxv0h1qjx,3Y3WkhvP,2020-0188,2020-11-18,15:18:10,15:39:36,NA,incomplete,47,shape,0,left,Red_Star_Dots_1.jpg,Blue_Star_Stripes_3.jpg,Green_Triangle_Chess_1.jpg,right,1262.0150001021102,false,low,false
3Y3WkhvP,3icohx7eofotocxdgkfntnxt5xb0e8,34x6j5flpxbra5my2lpvutxv0h1qjx,3Y3WkhvP,2020-0188,2020-11-18,15:18:10,15:39:36,NA,incomplete,48,shape,0,right,Red_Triangle_Dots_3.jpg,Purple_Plus_Stripes_3.jpg,Blue_Triangle_Chess_2.jpg,left,1079.6900000423193,false,low,false
3Y3WkhvP,3icohx7eofotocxdgkfntnxt5xb0e8,34x6j5flpxbra5my2lpvutxv0h1qjx,3Y3WkhvP,2020-0188,2020-11-18,15:18:10,15:39:36,NA,incomplete,49,shape,1,left,Green_Star_Stripes_4.jpg,Purple_Star_Grid_3.jpg,Blue_Triangle_Chess_4.jpg,right,806.8850000854582,false,low,false
3Y3WkhvP,3icohx7eofotocxdgkfntnxt5xb0e8,34x6j5flpxbra5my2lpvutxv0h1qjx,3Y3WkhvP,2020-0188,2020-11-18,15:18:10,15:39:36,NA,incomplete,50,shape,1,left,Purple_Star_Dots_1.jpg,Red_Star_Chess_2.jpg,Green_Plus_Grid_1.jpg,left,766.0300000570714,true,low,false
3Y3WkhvP,3icohx7eofotocxdgkfntnxt5xb0e8,34x6j5flpxbra5my2lpvutxv0h1qjx,3Y3WkhvP,2020-0188,2020-11-18,15:18:10,15:39:36,NA,incomplete,51,shape,1,left,Purple_Circle_Chess_3.jpg,Red_Circle_Stripes_2.jpg,Blue_Star_Dots_3.jpg,left,796.6599999926984,true,low,false
3Y3WkhvP,3icohx7eofotocxdgkfntnxt5xb0e8,34x6j5flpxbra5my2lpvutxv0h1qjx,3Y3WkhvP,2020-0188,2020-11-18,15:18:10,15:39:36,NA,incomplete,52,shape,0,right,Blue_Star_Chess_2.jpg,Green_Circle_Dots_2.jpg,Purple_Star_Grid_1.jpg,left,757.5250000227243,false,low,false
3Y3WkhvP,3icohx7eofotocxdgkfntnxt5xb0e8,34x6j5flpxbra5my2lpvutxv0h1qjx,3Y3WkhvP,2020-0188,2020-11-18,15:18:10,15:39:36,NA,incomplete,53,shape,1,left,Red_Star_Chess_4.jpg,Green_Star_Grid_2.jpg,Blue_Circle_Stripes_4.jpg,right,1312.0350000681356,false,low,false
3Y3WkhvP,3icohx7eofotocxdgkfntnxt5xb0e8,34x6j5flpxbra5my2lpvutxv0h1qjx,3Y3WkhvP,2020-0188,2020-11-18,15:18:10,15:39:36,NA,incomplete,54,shape,1,right,Green_Star_Chess_4.jpg,Red_Plus_Dots_4.jpg,Purple_Star_Grid_1.jpg,right,860.0299999816343,true,low,false
3Y3WkhvP,3icohx7eofotocxdgkfntnxt5xb0e8,34x6j5flpxbra5my2lpvutxv0h1qjx,3Y3WkhvP,2020-0188,2020-11-18,15:18:10,15:39:36,NA,incomplete,55,shape,1,left,Blue_Plus_Grid_1.jpg,Green_Plus_Stripes_3.jpg,Purple_Star_Dots_1.jpg,left,1952.835000003688,true,low,false
3Y3WkhvP,3icohx7eofotocxdgkfntnxt5xb0e8,34x6j5flpxbra5my2lpvutxv0h1qjx,3Y3WkhvP,2020-0188,2020-11-18,15:18:10,15:39:36,NA,incomplete,56,shape,1,left,Green_Circle_Grid_4.jpg,Purple_Circle_Dots_2.jpg,Blue_Star_Stripes_4.jpg,left,795.5000000074506,true,low,false
3Y3WkhvP,3icohx7eofotocxdgkfntnxt5xb0e8,34x6j5flpxbra5my2lpvutxv0h1qjx,3Y3WkhvP,2020-0188,2020-11-18,15:18:10,15:39:36,NA,incomplete,57,shape,1,left,Green_Star_Stripes_3.jpg,Blue_Star_Dots_1.jpg,Red_Plus_Chess_3.jpg,left,1667.215000023134,true,low,false
3Y3WkhvP,3icohx7eofotocxdgkfntnxt5xb0e8,34x6j5flpxbra5my2lpvutxv0h1qjx,3Y3WkhvP,2020-0188,2020-11-18,15:18:10,15:39:36,NA,incomplete,58,shape,1,left,Red_Circle_Chess_3.jpg,Purple_Circle_Dots_4.jpg,Green_Plus_Grid_3.jpg,left,1064.879999961704,true,low,false
3Y3WkhvP,3icohx7eofotocxdgkfntnxt5xb0e8,34x6j5flpxbra5my2lpvutxv0h1qjx,3Y3WkhvP,2020-0188,2020-11-18,15:18:10,15:39:36,NA,incomplete,59,shape,1,left,Green_Circle_Dots_2.jpg,Red_Circle_Grid_3.jpg,Purple_Plus_Stripes_2.jpg,left,796.8999999575317,true,low,false
3Y3WkhvP,3icohx7eofotocxdgkfntnxt5xb0e8,34x6j5flpxbra5my2lpvutxv0h1qjx,3Y3WkhvP,2020-0188,2020-11-18,15:18:10,15:39:36,NA,incomplete,60,number,1,right,Red_Triangle_Stripes_4.jpg,Purple_Triangle_Dots_3.jpg,Blue_Circle_Grid_4.jpg,left,1158.2000000635162,false,low,false
3Y3WkhvP,3icohx7eofotocxdgkfntnxt5xb0e8,34x6j5flpxbra5my2lpvutxv0h1qjx,3Y3WkhvP,2020-0188,2020-11-18,15:18:10,15:39:36,NA,incomplete,61,number,1,right,Green_Plus_Chess_2.jpg,Blue_Plus_Stripes_4.jpg,Red_Star_Grid_2.jpg,left,1093.0200000293553,false,low,false
3Y3WkhvP,3icohx7eofotocxdgkfntnxt5xb0e8,34x6j5flpxbra5my2lpvutxv0h1qjx,3Y3WkhvP,2020-0188,2020-11-18,15:18:10,15:39:36,NA,incomplete,62,number,1,left,Purple_Triangle_Dots_4.jpg,Red_Plus_Chess_4.jpg,Green_Triangle_Stripes_2.jpg,left,931.0099999420345,true,low,false
3Y3WkhvP,3icohx7eofotocxdgkfntnxt5xb0e8,34x6j5flpxbra5my2lpvutxv0h1qjx,3Y3WkhvP,2020-0188,2020-11-18,15:18:10,15:39:36,NA,incomplete,63,number,1,left,Red_Star_Grid_1.jpg,Blue_Triangle_Stripes_1.jpg,Purple_Star_Chess_3.jpg,left,1047.6849999977276,true,low,false
3Y3WkhvP,3icohx7eofotocxdgkfntnxt5xb0e8,34x6j5flpxbra5my2lpvutxv0h1qjx,3Y3WkhvP,2020-0188,2020-11-18,15:18:10,15:39:36,NA,incomplete,64,number,1,right,Green_Circle_Dots_3.jpg,Blue_Circle_Stripes_1.jpg,Red_Star_Chess_3.jpg,right,1251.204999978654,true,low,false
3Y3WkhvP,3icohx7eofotocxdgkfntnxt5xb0e8,34x6j5flpxbra5my2lpvutxv0h1qjx,3Y3WkhvP,2020-0188,2020-11-18,15:18:10,15:39:36,NA,incomplete,65,number,1,left,Purple_Plus_Dots_3.jpg,Green_Star_Stripes_3.jpg,Blue_Plus_Chess_4.jpg,left,690.4700000304729,true,low,false
3Y3WkhvP,3icohx7eofotocxdgkfntnxt5xb0e8,34x6j5flpxbra5my2lpvutxv0h1qjx,3Y3WkhvP,2020-0188,2020-11-18,15:18:10,15:39:36,NA,incomplete,66,number,1,left,Red_Circle_Grid_2.jpg,Purple_Triangle_Dots_2.jpg,Blue_Circle_Stripes_3.jpg,left,1039.6699999691918,true,low,false
3Y3WkhvP,3icohx7eofotocxdgkfntnxt5xb0e8,34x6j5flpxbra5my2lpvutxv0h1qjx,3Y3WkhvP,2020-0188,2020-11-18,15:18:10,15:39:36,NA,incomplete,67,number,0,left,Red_Plus_Stripes_4.jpg,Purple_Star_Chess_4.jpg,Green_Plus_Dots_3.jpg,left,1210.5450000381097,true,low,false
3Y3WkhvP,3icohx7eofotocxdgkfntnxt5xb0e8,34x6j5flpxbra5my2lpvutxv0h1qjx,3Y3WkhvP,2020-0188,2020-11-18,15:18:10,15:39:36,NA,incomplete,68,number,1,left,Red_Star_Dots_1.jpg,Purple_Triangle_Stripes_1.jpg,Green_Star_Grid_4.jpg,right,694.2399999825284,false,low,false
3Y3WkhvP,3icohx7eofotocxdgkfntnxt5xb0e8,34x6j5flpxbra5my2lpvutxv0h1qjx,3Y3WkhvP,2020-0188,2020-11-18,15:18:10,15:39:36,NA,incomplete,69,number,1,left,Purple_Plus_Grid_3.jpg,Green_Triangle_Stripes_3.jpg,Red_Plus_Dots_2.jpg,left,879.5199999585748,true,low,false
3Y3WkhvP,3icohx7eofotocxdgkfntnxt5xb0e8,34x6j5flpxbra5my2lpvutxv0h1qjx,3Y3WkhvP,2020-0188,2020-11-18,15:18:10,15:39:36,NA,incomplete,70,number,1,left,Purple_Plus_Dots_2.jpg,Blue_Circle_Chess_2.jpg,Green_Plus_Stripes_3.jpg,right,599.7450000140816,false,low,false
3Y3WkhvP,3icohx7eofotocxdgkfntnxt5xb0e8,34x6j5flpxbra5my2lpvutxv0h1qjx,3Y3WkhvP,2020-0188,2020-11-18,15:18:10,15:39:36,NA,incomplete,71,number,1,right,Blue_Plus_Stripes_4.jpg,Purple_Plus_Grid_3.jpg,Red_Star_Dots_4.jpg,right,1166.0499999998137,true,low,false
3Y3WkhvP,3icohx7eofotocxdgkfntnxt5xb0e8,34x6j5flpxbra5my2lpvutxv0h1qjx,3Y3WkhvP,2020-0188,2020-11-18,15:18:10,15:39:36,NA,incomplete,72,number,1,left,Red_Star_Dots_1.jpg,Green_Plus_Grid_1.jpg,Blue_Star_Chess_2.jpg,left,1003.2799999462441,true,low,false
3Y3WkhvP,3icohx7eofotocxdgkfntnxt5xb0e8,34x6j5flpxbra5my2lpvutxv0h1qjx,3Y3WkhvP,2020-0188,2020-11-18,15:18:10,15:39:36,NA,incomplete,73,number,0,left,Green_Plus_Stripes_1.jpg,Blue_Triangle_Chess_1.jpg,Purple_Plus_Grid_2.jpg,left,1081.0899999924004,true,low,false
3Y3WkhvP,3icohx7eofotocxdgkfntnxt5xb0e8,34x6j5flpxbra5my2lpvutxv0h1qjx,3Y3WkhvP,2020-0188,2020-11-18,15:18:10,15:39:36,NA,incomplete,74,number,1,right,Purple_Plus_Chess_2.jpg,Red_Plus_Dots_1.jpg,Blue_Circle_Stripes_2.jpg,left,950.1999999629334,false,low,false
3Y3WkhvP,3icohx7eofotocxdgkfntnxt5xb0e8,34x6j5flpxbra5my2lpvutxv0h1qjx,3Y3WkhvP,2020-0188,2020-11-18,15:18:10,15:39:36,NA,incomplete,75,number,1,left,Blue_Plus_Dots_4.jpg,Red_Star_Chess_4.jpg,Green_Plus_Stripes_3.jpg,left,955.4449999704957,true,low,false
3Y3WkhvP,3icohx7eofotocxdgkfntnxt5xb0e8,34x6j5flpxbra5my2lpvutxv0h1qjx,3Y3WkhvP,2020-0188,2020-11-18,15:18:10,15:39:36,NA,incomplete,76,number,1,right,Blue_Star_Grid_4.jpg,Purple_Star_Chess_1.jpg,Red_Plus_Dots_4.jpg,right,795.8850000286475,true,low,false
3Y3WkhvP,3icohx7eofotocxdgkfntnxt5xb0e8,34x6j5flpxbra5my2lpvutxv0h1qjx,3Y3WkhvP,2020-0188,2020-11-18,15:18:10,15:39:36,NA,incomplete,77,number,1,left,Red_Plus_Chess_3.jpg,Blue_Star_Dots_3.jpg,Purple_Plus_Stripes_1.jpg,left,597.404999891296,true,low,false
3Y3WkhvP,3icohx7eofotocxdgkfntnxt5xb0e8,34x6j5flpxbra5my2lpvutxv0h1qjx,3Y3WkhvP,2020-0188,2020-11-18,15:18:10,15:39:36,NA,incomplete,78,number,1,left,Purple_Plus_Chess_4.jpg,Red_Circle_Dots_4.jpg,Blue_Plus_Stripes_2.jpg,left,756.95499998983,true,low,false
3Y3WkhvP,3icohx7eofotocxdgkfntnxt5xb0e8,34x6j5flpxbra5my2lpvutxv0h1qjx,3Y3WkhvP,2020-0188,2020-11-18,15:18:10,15:39:36,NA,incomplete,79,number,1,right,Purple_Circle_Grid_3.jpg,Blue_Circle_Chess_1.jpg,Green_Triangle_Stripes_3.jpg,right,731.5299999900162,true,low,false
3Y3WkhvP,3icohx7eofotocxdgkfntnxt5xb0e8,34x6j5flpxbra5my2lpvutxv0h1qjx,3Y3WkhvP,2020-0188,2020-11-18,15:18:10,15:39:36,NA,incomplete,80,number,1,right,Green_Circle_Chess_2.jpg,Red_Circle_Dots_1.jpg,Purple_Star_Grid_2.jpg,right,807.5299999909475,true,low,false
3Y3WkhvP,3icohx7eofotocxdgkfntnxt5xb0e8,34x6j5flpxbra5my2lpvutxv0h1qjx,3Y3WkhvP,2020-0188,2020-11-18,15:18:10,15:39:36,NA,incomplete,81,number,0,right,Blue_Circle_Dots_1.jpg,Purple_Circle_Grid_3.jpg,Green_Star_Stripes_1.jpg,right,846.7749999836087,true,low,false
3Y3WkhvP,3icohx7eofotocxdgkfntnxt5xb0e8,34x6j5flpxbra5my2lpvutxv0h1qjx,3Y3WkhvP,2020-0188,2020-11-18,15:18:10,15:39:36,NA,incomplete,82,number,1,left,Purple_Circle_Grid_3.jpg,Green_Triangle_Stripes_3.jpg,Red_Circle_Dots_4.jpg,right,981.9450000068173,false,low,false
3Y3WkhvP,3icohx7eofotocxdgkfntnxt5xb0e8,34x6j5flpxbra5my2lpvutxv0h1qjx,3Y3WkhvP,2020-0188,2020-11-18,15:18:10,15:39:36,NA,incomplete,83,number,1,right,Green_Triangle_Chess_2.jpg,Red_Triangle_Stripes_3.jpg,Blue_Circle_Grid_2.jpg,right,883.4799999604002,true,low,false
3Y3WkhvP,3icohx7eofotocxdgkfntnxt5xb0e8,34x6j5flpxbra5my2lpvutxv0h1qjx,3Y3WkhvP,2020-0188,2020-11-18,15:18:10,15:39:36,NA,incomplete,84,number,1,left,Purple_Plus_Stripes_2.jpg,Red_Triangle_Chess_2.jpg,Blue_Plus_Grid_1.jpg,left,902.7699999278411,true,low,false
3Y3WkhvP,3icohx7eofotocxdgkfntnxt5xb0e8,34x6j5flpxbra5my2lpvutxv0h1qjx,3Y3WkhvP,2020-0188,2020-11-18,15:18:10,15:39:36,NA,incomplete,85,number,1,left,Purple_Triangle_Grid_1.jpg,Red_Plus_Dots_1.jpg,Blue_Triangle_Chess_2.jpg,right,611.6050001000986,false,low,false
3Y3WkhvP,3icohx7eofotocxdgkfntnxt5xb0e8,34x6j5flpxbra5my2lpvutxv0h1qjx,3Y3WkhvP,2020-0188,2020-11-18,15:18:10,15:39:36,NA,incomplete,86,number,0,left,Red_Circle_Stripes_2.jpg,Purple_Triangle_Dots_2.jpg,Blue_Circle_Chess_1.jpg,left,750.7949999999255,true,low,false
3Y3WkhvP,3icohx7eofotocxdgkfntnxt5xb0e8,34x6j5flpxbra5my2lpvutxv0h1qjx,3Y3WkhvP,2020-0188,2020-11-18,15:18:10,15:39:36,NA,incomplete,87,number,1,left,Purple_Star_Dots_3.jpg,Red_Triangle_Chess_3.jpg,Green_Star_Grid_4.jpg,left,1065.8900000853464,true,low,false
3Y3WkhvP,3icohx7eofotocxdgkfntnxt5xb0e8,34x6j5flpxbra5my2lpvutxv0h1qjx,3Y3WkhvP,2020-0188,2020-11-18,15:18:10,15:39:36,NA,incomplete,88,number,0,right,Green_Circle_Stripes_4.jpg,Purple_Circle_Grid_1.jpg,Red_Plus_Chess_4.jpg,right,685.3200000477955,true,low,false
3Y3WkhvP,3icohx7eofotocxdgkfntnxt5xb0e8,34x6j5flpxbra5my2lpvutxv0h1qjx,3Y3WkhvP,2020-0188,2020-11-18,15:18:10,15:39:36,NA,incomplete,89,number,1,right,Blue_Circle_Dots_4.jpg,Purple_Circle_Chess_1.jpg,Red_Triangle_Grid_4.jpg,right,971.7550000641495,true,low,false
3Y3WkhvP,3icohx7eofotocxdgkfntnxt5xb0e8,34x6j5flpxbra5my2lpvutxv0h1qjx,3Y3WkhvP,2020-0188,2020-11-18,15:18:10,15:39:36,NA,incomplete,90,shape,1,left,Red_Star_Stripes_2.jpg,Green_Star_Grid_4.jpg,Blue_Triangle_Dots_2.jpg,right,902.2000000113621,false,low,false
3Y3WkhvP,3icohx7eofotocxdgkfntnxt5xb0e8,34x6j5flpxbra5my2lpvutxv0h1qjx,3Y3WkhvP,2020-0188,2020-11-18,15:18:10,15:39:36,NA,incomplete,91,shape,1,left,Blue_Plus_Stripes_1.jpg,Red_Plus_Chess_2.jpg,Green_Star_Grid_1.jpg,left,715.2199998963624,true,low,false
3Y3WkhvP,3icohx7eofotocxdgkfntnxt5xb0e8,34x6j5flpxbra5my2lpvutxv0h1qjx,3Y3WkhvP,2020-0188,2020-11-18,15:18:10,15:39:36,NA,incomplete,92,shape,1,right,Green_Triangle_Stripes_3.jpg,Blue_Circle_Chess_3.jpg,Purple_Triangle_Grid_4.jpg,right,730.6600000010803,true,low,false
3Y3WkhvP,3icohx7eofotocxdgkfntnxt5xb0e8,34x6j5flpxbra5my2lpvutxv0h1qjx,3Y3WkhvP,2020-0188,2020-11-18,15:18:10,15:39:36,NA,incomplete,93,shape,1,right,Purple_Circle_Grid_3.jpg,Blue_Plus_Dots_3.jpg,Red_Circle_Chess_4.jpg,right,1091.0499999299645,true,low,false
3Y3WkhvP,3icohx7eofotocxdgkfntnxt5xb0e8,34x6j5flpxbra5my2lpvutxv0h1qjx,3Y3WkhvP,2020-0188,2020-11-18,15:18:10,15:39:36,NA,incomplete,94,shape,1,left,Red_Triangle_Grid_3.jpg,Blue_Triangle_Chess_2.jpg,Green_Circle_Dots_3.jpg,left,693.1049999548122,true,low,false
3Y3WkhvP,3icohx7eofotocxdgkfntnxt5xb0e8,34x6j5flpxbra5my2lpvutxv0h1qjx,3Y3WkhvP,2020-0188,2020-11-18,15:18:10,15:39:36,NA,incomplete,95,shape,1,right,Red_Circle_Dots_3.jpg,Green_Plus_Chess_3.jpg,Blue_Circle_Stripes_4.jpg,right,467.4599999561906,true,low,false
3Y3WkhvP,3icohx7eofotocxdgkfntnxt5xb0e8,34x6j5flpxbra5my2lpvutxv0h1qjx,3Y3WkhvP,2020-0188,2020-11-18,15:18:10,15:39:36,NA,incomplete,96,shape,1,left,Green_Plus_Chess_1.jpg,Purple_Plus_Grid_4.jpg,Red_Star_Stripes_1.jpg,left,576.509999926202,true,low,false
3Y3WkhvP,3icohx7eofotocxdgkfntnxt5xb0e8,34x6j5flpxbra5my2lpvutxv0h1qjx,3Y3WkhvP,2020-0188,2020-11-18,15:18:10,15:39:36,NA,incomplete,97,shape,1,right,Red_Plus_Dots_1.jpg,Green_Circle_Chess_1.jpg,Blue_Plus_Stripes_3.jpg,right,631.8699999246746,true,low,false
3Y3WkhvP,3icohx7eofotocxdgkfntnxt5xb0e8,34x6j5flpxbra5my2lpvutxv0h1qjx,3Y3WkhvP,2020-0188,2020-11-18,15:18:10,15:39:36,NA,incomplete,98,shape,1,left,Red_Plus_Grid_4.jpg,Blue_Plus_Stripes_2.jpg,Green_Triangle_Chess_4.jpg,left,646.6599999694154,true,low,false
3Y3WkhvP,3icohx7eofotocxdgkfntnxt5xb0e8,34x6j5flpxbra5my2lpvutxv0h1qjx,3Y3WkhvP,2020-0188,2020-11-18,15:18:10,15:39:36,NA,incomplete,99,shape,1,left,Red_Circle_Stripes_2.jpg,Green_Circle_Dots_1.jpg,Purple_Star_Grid_2.jpg,left,781.1500000534579,true,low,false
3Y3WkhvP,3icohx7eofotocxdgkfntnxt5xb0e8,34x6j5flpxbra5my2lpvutxv0h1qjx,3Y3WkhvP,2020-0188,2020-11-18,15:18:10,15:39:36,NA,incomplete,100,shape,1,left,Green_Circle_Chess_3.jpg,Blue_Circle_Stripes_1.jpg,Red_Star_Grid_3.jpg,right,635.5399999301881,false,low,false
3Y3WkhvP,3icohx7eofotocxdgkfntnxt5xb0e8,34x6j5flpxbra5my2lpvutxv0h1qjx,3Y3WkhvP,2020-0188,2020-11-18,15:18:10,15:39:36,NA,incomplete,101,shape,1,left,Blue_Plus_Dots_4.jpg,Green_Plus_Stripes_1.jpg,Red_Triangle_Chess_4.jpg,left,998.4050000784919,true,low,false
3Y3WkhvP,3icohx7eofotocxdgkfntnxt5xb0e8,34x6j5flpxbra5my2lpvutxv0h1qjx,3Y3WkhvP,2020-0188,2020-11-18,15:18:10,15:39:36,NA,incomplete,102,shape,1,left,Blue_Plus_Stripes_4.jpg,Red_Plus_Chess_3.jpg,Green_Star_Dots_4.jpg,left,757.5199999846518,true,low,false
3Y3WkhvP,3icohx7eofotocxdgkfntnxt5xb0e8,34x6j5flpxbra5my2lpvutxv0h1qjx,3Y3WkhvP,2020-0188,2020-11-18,15:18:10,15:39:36,NA,incomplete,103,shape,1,left,Red_Circle_Chess_1.jpg,Purple_Circle_Stripes_4.jpg,Blue_Triangle_Dots_1.jpg,left,660.1449999725446,true,low,false
3Y3WkhvP,3icohx7eofotocxdgkfntnxt5xb0e8,34x6j5flpxbra5my2lpvutxv0h1qjx,3Y3WkhvP,2020-0188,2020-11-18,15:18:10,15:39:36,NA,incomplete,104,shape,1,left,Blue_Star_Chess_1.jpg,Green_Star_Grid_4.jpg,Purple_Plus_Dots_1.jpg,left,647.0650000264868,true,low,false
3Y3WkhvP,3icohx7eofotocxdgkfntnxt5xb0e8,34x6j5flpxbra5my2lpvutxv0h1qjx,3Y3WkhvP,2020-0188,2020-11-18,15:18:10,15:39:36,NA,incomplete,105,shape,1,left,Purple_Plus_Dots_1.jpg,Blue_Plus_Stripes_3.jpg,Green_Triangle_Grid_1.jpg,left,584.7499999217689,true,low,false
3Y3WkhvP,3icohx7eofotocxdgkfntnxt5xb0e8,34x6j5flpxbra5my2lpvutxv0h1qjx,3Y3WkhvP,2020-0188,2020-11-18,15:18:10,15:39:36,NA,incomplete,106,shape,1,right,Green_Triangle_Dots_2.jpg,Red_Plus_Grid_2.jpg,Blue_Triangle_Chess_3.jpg,right,629.090000060387,true,low,false
3Y3WkhvP,3icohx7eofotocxdgkfntnxt5xb0e8,34x6j5flpxbra5my2lpvutxv0h1qjx,3Y3WkhvP,2020-0188,2020-11-18,15:18:10,15:39:36,NA,incomplete,107,shape,1,left,Blue_Circle_Stripes_3.jpg,Purple_Circle_Grid_1.jpg,Red_Star_Dots_3.jpg,right,731.6250000149012,false,low,false
3Y3WkhvP,3icohx7eofotocxdgkfntnxt5xb0e8,34x6j5flpxbra5my2lpvutxv0h1qjx,3Y3WkhvP,2020-0188,2020-11-18,15:18:10,15:39:36,NA,incomplete,108,shape,1,left,Green_Circle_Grid_3.jpg,Purple_Circle_Chess_2.jpg,Blue_Star_Dots_3.jpg,left,983.9050000300631,true,low,false
3Y3WkhvP,3icohx7eofotocxdgkfntnxt5xb0e8,34x6j5flpxbra5my2lpvutxv0h1qjx,3Y3WkhvP,2020-0188,2020-11-18,15:18:10,15:39:36,NA,incomplete,109,shape,1,right,Blue_Star_Chess_4.jpg,Red_Circle_Dots_4.jpg,Purple_Star_Grid_2.jpg,right,713.2599999895319,true,low,false
3Y3WkhvP,3icohx7eofotocxdgkfntnxt5xb0e8,34x6j5flpxbra5my2lpvutxv0h1qjx,3Y3WkhvP,2020-0188,2020-11-18,15:18:10,15:39:36,NA,incomplete,110,shape,1,right,Green_Triangle_Stripes_2.jpg,Purple_Star_Dots_2.jpg,Red_Triangle_Chess_4.jpg,right,551.9549999153242,true,low,false
3Y3WkhvP,3icohx7eofotocxdgkfntnxt5xb0e8,34x6j5flpxbra5my2lpvutxv0h1qjx,3Y3WkhvP,2020-0188,2020-11-18,15:18:10,15:39:36,NA,incomplete,111,shape,1,left,Green_Circle_Chess_3.jpg,Blue_Circle_Stripes_4.jpg,Purple_Triangle_Dots_3.jpg,left,803.7499999627471,true,low,false
3Y3WkhvP,3icohx7eofotocxdgkfntnxt5xb0e8,34x6j5flpxbra5my2lpvutxv0h1qjx,3Y3WkhvP,2020-0188,2020-11-18,15:18:10,15:39:36,NA,incomplete,112,shape,1,right,Green_Star_Stripes_2.jpg,Blue_Plus_Dots_2.jpg,Purple_Star_Grid_4.jpg,right,729.1749999858439,true,low,false
3Y3WkhvP,3icohx7eofotocxdgkfntnxt5xb0e8,34x6j5flpxbra5my2lpvutxv0h1qjx,3Y3WkhvP,2020-0188,2020-11-18,15:18:10,15:39:36,NA,incomplete,113,shape,1,right,Blue_Circle_Stripes_3.jpg,Red_Triangle_Dots_3.jpg,Green_Circle_Grid_4.jpg,right,737.6500000245869,true,low,false
3Y3WkhvP,3icohx7eofotocxdgkfntnxt5xb0e8,34x6j5flpxbra5my2lpvutxv0h1qjx,3Y3WkhvP,2020-0188,2020-11-18,15:18:10,15:39:36,NA,incomplete,114,shape,1,left,Purple_Plus_Chess_2.jpg,Green_Plus_Dots_1.jpg,Blue_Triangle_Grid_2.jpg,left,633.2499999552965,true,low,false
3Y3WkhvP,3icohx7eofotocxdgkfntnxt5xb0e8,34x6j5flpxbra5my2lpvutxv0h1qjx,3Y3WkhvP,2020-0188,2020-11-18,15:18:10,15:39:36,NA,incomplete,115,shape,1,left,Green_Plus_Chess_2.jpg,Red_Plus_Grid_1.jpg,Blue_Circle_Stripes_2.jpg,left,625.3149999538437,true,low,false
3Y3WkhvP,3icohx7eofotocxdgkfntnxt5xb0e8,34x6j5flpxbra5my2lpvutxv0h1qjx,3Y3WkhvP,2020-0188,2020-11-18,15:18:10,15:39:36,NA,incomplete,116,shape,1,right,Purple_Plus_Stripes_3.jpg,Green_Circle_Dots_3.jpg,Red_Plus_Chess_4.jpg,right,710.5000000447035,true,low,false
3Y3WkhvP,3icohx7eofotocxdgkfntnxt5xb0e8,34x6j5flpxbra5my2lpvutxv0h1qjx,3Y3WkhvP,2020-0188,2020-11-18,15:18:10,15:39:36,NA,incomplete,117,shape,1,left,Purple_Plus_Stripes_3.jpg,Red_Plus_Chess_1.jpg,Green_Circle_Grid_3.jpg,left,677.4549999972805,true,low,false
3Y3WkhvP,3icohx7eofotocxdgkfntnxt5xb0e8,34x6j5flpxbra5my2lpvutxv0h1qjx,3Y3WkhvP,2020-0188,2020-11-18,15:18:10,15:39:36,NA,incomplete,118,shape,1,right,Green_Star_Chess_1.jpg,Purple_Plus_Dots_1.jpg,Red_Star_Stripes_3.jpg,right,881.5399999730289,true,low,false
3Y3WkhvP,3icohx7eofotocxdgkfntnxt5xb0e8,34x6j5flpxbra5my2lpvutxv0h1qjx,3Y3WkhvP,2020-0188,2020-11-18,15:18:10,15:39:36,NA,incomplete,119,shape,0,left,Blue_Plus_Chess_1.jpg,Green_Plus_Grid_2.jpg,Purple_Circle_Stripes_1.jpg,left,575.5199999548495,true,low,false
3Y3WkhvP,3icohx7eofotocxdgkfntnxt5xb0e8,34x6j5flpxbra5my2lpvutxv0h1qjx,3Y3WkhvP,2020-0188,2020-11-18,15:18:10,15:39:36,NA,incomplete,120,filling,1,left,Purple_Triangle_Stripes_3.jpg,Blue_Circle_Stripes_4.jpg,Purple_Plus_Grid_2.jpg,left,1027.4099999805912,true,low,false
3Y3WkhvP,3icohx7eofotocxdgkfntnxt5xb0e8,34x6j5flpxbra5my2lpvutxv0h1qjx,3Y3WkhvP,2020-0188,2020-11-18,15:18:10,15:39:36,NA,incomplete,121,filling,1,left,Blue_Star_Grid_2.jpg,Green_Circle_Grid_4.jpg,Blue_Triangle_Dots_3.jpg,left,1080.1099999807775,true,low,false
3Y3WkhvP,3icohx7eofotocxdgkfntnxt5xb0e8,34x6j5flpxbra5my2lpvutxv0h1qjx,3Y3WkhvP,2020-0188,2020-11-18,15:18:10,15:39:36,NA,incomplete,122,filling,0,right,Red_Triangle_Dots_2.jpg,Red_Plus_Stripes_3.jpg,Purple_Circle_Dots_4.jpg,right,1100.6449999986216,true,low,false
3Y3WkhvP,3icohx7eofotocxdgkfntnxt5xb0e8,34x6j5flpxbra5my2lpvutxv0h1qjx,3Y3WkhvP,2020-0188,2020-11-18,15:18:10,15:39:36,NA,incomplete,123,filling,1,right,Blue_Circle_Stripes_2.jpg,Blue_Plus_Grid_1.jpg,Green_Star_Stripes_3.jpg,right,943.7199999811128,true,low,false
3Y3WkhvP,3icohx7eofotocxdgkfntnxt5xb0e8,34x6j5flpxbra5my2lpvutxv0h1qjx,3Y3WkhvP,2020-0188,2020-11-18,15:18:10,15:39:36,NA,incomplete,124,filling,1,right,Blue_Triangle_Stripes_4.jpg,Blue_Star_Grid_2.jpg,Green_Circle_Stripes_1.jpg,right,834.6899999305606,true,low,false
3Y3WkhvP,3icohx7eofotocxdgkfntnxt5xb0e8,34x6j5flpxbra5my2lpvutxv0h1qjx,3Y3WkhvP,2020-0188,2020-11-18,15:18:10,15:39:36,NA,incomplete,125,filling,0,right,Red_Circle_Dots_1.jpg,Red_Star_Chess_4.jpg,Blue_Triangle_Dots_3.jpg,right,1120.4950000392273,true,low,false
3Y3WkhvP,3icohx7eofotocxdgkfntnxt5xb0e8,34x6j5flpxbra5my2lpvutxv0h1qjx,3Y3WkhvP,2020-0188,2020-11-18,15:18:10,15:39:36,NA,incomplete,126,filling,1,left,Green_Star_Chess_3.jpg,Purple_Circle_Chess_2.jpg,Green_Plus_Dots_1.jpg,left,1003.5899999784306,true,low,false
3Y3WkhvP,3icohx7eofotocxdgkfntnxt5xb0e8,34x6j5flpxbra5my2lpvutxv0h1qjx,3Y3WkhvP,2020-0188,2020-11-18,15:18:10,15:39:36,NA,incomplete,127,filling,1,left,Blue_Star_Grid_4.jpg,Red_Circle_Grid_3.jpg,Blue_Triangle_Chess_2.jpg,left,1225.7700000191107,true,low,false
3Y3WkhvP,3icohx7eofotocxdgkfntnxt5xb0e8,34x6j5flpxbra5my2lpvutxv0h1qjx,3Y3WkhvP,2020-0188,2020-11-18,15:18:10,15:39:36,NA,incomplete,128,filling,1,right,Purple_Triangle_Grid_2.jpg,Purple_Star_Stripes_3.jpg,Green_Plus_Grid_1.jpg,right,931.029999977909,true,low,false
3Y3WkhvP,3icohx7eofotocxdgkfntnxt5xb0e8,34x6j5flpxbra5my2lpvutxv0h1qjx,3Y3WkhvP,2020-0188,2020-11-18,15:18:10,15:39:36,NA,incomplete,129,filling,1,right,Green_Plus_Chess_3.jpg,Green_Star_Dots_4.jpg,Red_Triangle_Chess_2.jpg,right,836.0399999655783,true,low,false
3Y3WkhvP,3icohx7eofotocxdgkfntnxt5xb0e8,34x6j5flpxbra5my2lpvutxv0h1qjx,3Y3WkhvP,2020-0188,2020-11-18,15:18:10,15:39:36,NA,incomplete,130,filling,1,right,Blue_Plus_Chess_1.jpg,Blue_Triangle_Grid_2.jpg,Red_Circle_Chess_4.jpg,right,809.4000000273809,true,low,false
3Y3WkhvP,3icohx7eofotocxdgkfntnxt5xb0e8,34x6j5flpxbra5my2lpvutxv0h1qjx,3Y3WkhvP,2020-0188,2020-11-18,15:18:10,15:39:36,NA,incomplete,131,filling,1,right,Green_Plus_Dots_2.jpg,Green_Star_Stripes_3.jpg,Red_Triangle_Dots_4.jpg,left,737.5000000465661,false,low,false
3Y3WkhvP,3icohx7eofotocxdgkfntnxt5xb0e8,34x6j5flpxbra5my2lpvutxv0h1qjx,3Y3WkhvP,2020-0188,2020-11-18,15:18:10,15:39:36,NA,incomplete,132,filling,1,left,Blue_Triangle_Dots_1.jpg,Green_Plus_Dots_4.jpg,Blue_Circle_Grid_3.jpg,left,1075.6749999709427,true,low,false
3Y3WkhvP,3icohx7eofotocxdgkfntnxt5xb0e8,34x6j5flpxbra5my2lpvutxv0h1qjx,3Y3WkhvP,2020-0188,2020-11-18,15:18:10,15:39:36,NA,incomplete,133,filling,1,left,Purple_Triangle_Dots_3.jpg,Green_Circle_Dots_4.jpg,Purple_Star_Chess_1.jpg,left,988.08000003919,true,low,false
3Y3WkhvP,3icohx7eofotocxdgkfntnxt5xb0e8,34x6j5flpxbra5my2lpvutxv0h1qjx,3Y3WkhvP,2020-0188,2020-11-18,15:18:10,15:39:36,NA,incomplete,134,filling,0,right,Purple_Plus_Chess_2.jpg,Purple_Circle_Stripes_1.jpg,Blue_Star_Chess_3.jpg,right,844.1599999787286,true,low,false
3Y3WkhvP,3icohx7eofotocxdgkfntnxt5xb0e8,34x6j5flpxbra5my2lpvutxv0h1qjx,3Y3WkhvP,2020-0188,2020-11-18,15:18:10,15:39:36,NA,incomplete,135,filling,1,left,Blue_Triangle_Dots_4.jpg,Purple_Plus_Dots_1.jpg,Blue_Star_Chess_2.jpg,left,828.2400000607595,true,low,false
3Y3WkhvP,3icohx7eofotocxdgkfntnxt5xb0e8,34x6j5flpxbra5my2lpvutxv0h1qjx,3Y3WkhvP,2020-0188,2020-11-18,15:18:10,15:39:36,NA,incomplete,136,filling,1,right,Blue_Plus_Dots_1.jpg,Blue_Star_Grid_3.jpg,Red_Triangle_Dots_4.jpg,right,1570.7849999889731,true,low,false
3Y3WkhvP,3icohx7eofotocxdgkfntnxt5xb0e8,34x6j5flpxbra5my2lpvutxv0h1qjx,3Y3WkhvP,2020-0188,2020-11-18,15:18:10,15:39:36,NA,incomplete,137,filling,0,right,Blue_Circle_Chess_3.jpg,Blue_Star_Dots_4.jpg,Green_Triangle_Chess_1.jpg,right,840.3450000332668,true,low,false
3Y3WkhvP,3icohx7eofotocxdgkfntnxt5xb0e8,34x6j5flpxbra5my2lpvutxv0h1qjx,3Y3WkhvP,2020-0188,2020-11-18,15:18:10,15:39:36,NA,incomplete,138,filling,1,left,Blue_Plus_Stripes_4.jpg,Green_Triangle_Stripes_2.jpg,Blue_Circle_Grid_1.jpg,left,1081.1399999074638,true,low,false
3Y3WkhvP,3icohx7eofotocxdgkfntnxt5xb0e8,34x6j5flpxbra5my2lpvutxv0h1qjx,3Y3WkhvP,2020-0188,2020-11-18,15:18:10,15:39:36,NA,incomplete,139,filling,1,right,Red_Plus_Dots_1.jpg,Red_Star_Stripes_2.jpg,Green_Circle_Dots_4.jpg,right,904.8350000521168,true,low,false
3Y3WkhvP,3icohx7eofotocxdgkfntnxt5xb0e8,34x6j5flpxbra5my2lpvutxv0h1qjx,3Y3WkhvP,2020-0188,2020-11-18,15:18:10,15:39:36,NA,incomplete,140,color,1,left,Blue_Star_Dots_2.jpg,Blue_Plus_Stripes_3.jpg,Purple_Triangle_Dots_1.jpg,right,924.8099999967963,false,low,false
3Y3WkhvP,3icohx7eofotocxdgkfntnxt5xb0e8,34x6j5flpxbra5my2lpvutxv0h1qjx,3Y3WkhvP,2020-0188,2020-11-18,15:18:10,15:39:36,NA,incomplete,141,color,1,left,Blue_Circle_Chess_2.jpg,Blue_Star_Stripes_1.jpg,Red_Triangle_Chess_4.jpg,right,783.7300000246614,false,low,false
3Y3WkhvP,3icohx7eofotocxdgkfntnxt5xb0e8,34x6j5flpxbra5my2lpvutxv0h1qjx,3Y3WkhvP,2020-0188,2020-11-18,15:18:10,15:39:36,NA,incomplete,142,color,0,right,Purple_Circle_Stripes_1.jpg,Green_Plus_Stripes_3.jpg,Purple_Star_Dots_4.jpg,right,748.8150000572205,true,low,false
3Y3WkhvP,3icohx7eofotocxdgkfntnxt5xb0e8,34x6j5flpxbra5my2lpvutxv0h1qjx,3Y3WkhvP,2020-0188,2020-11-18,15:18:10,15:39:36,NA,incomplete,143,color,1,left,Red_Star_Stripes_3.jpg,Red_Circle_Dots_4.jpg,Purple_Triangle_Stripes_1.jpg,right,901.3750000158325,false,low,false
3Y3WkhvP,3icohx7eofotocxdgkfntnxt5xb0e8,34x6j5flpxbra5my2lpvutxv0h1qjx,3Y3WkhvP,2020-0188,2020-11-18,15:18:10,15:39:36,NA,incomplete,144,color,1,right,Red_Plus_Chess_1.jpg,Purple_Triangle_Chess_4.jpg,Red_Star_Stripes_3.jpg,right,1072.4599999375641,true,low,false
3Y3WkhvP,3icohx7eofotocxdgkfntnxt5xb0e8,34x6j5flpxbra5my2lpvutxv0h1qjx,3Y3WkhvP,2020-0188,2020-11-18,15:18:10,15:39:36,NA,incomplete,145,color,0,left,Red_Star_Stripes_1.jpg,Red_Circle_Grid_2.jpg,Green_Plus_Stripes_3.jpg,left,764.314999920316,true,low,false
3Y3WkhvP,3icohx7eofotocxdgkfntnxt5xb0e8,34x6j5flpxbra5my2lpvutxv0h1qjx,3Y3WkhvP,2020-0188,2020-11-18,15:18:10,15:39:36,NA,incomplete,146,color,1,right,Red_Triangle_Chess_2.jpg,Purple_Star_Chess_1.jpg,Red_Circle_Dots_4.jpg,left,906.2700000358745,false,low,false
3Y3WkhvP,3icohx7eofotocxdgkfntnxt5xb0e8,34x6j5flpxbra5my2lpvutxv0h1qjx,3Y3WkhvP,2020-0188,2020-11-18,15:18:10,15:39:36,NA,incomplete,147,color,1,right,Blue_Star_Grid_4.jpg,Green_Plus_Grid_3.jpg,Blue_Triangle_Stripes_1.jpg,right,765.3299999656156,true,low,false
3Y3WkhvP,3icohx7eofotocxdgkfntnxt5xb0e8,34x6j5flpxbra5my2lpvutxv0h1qjx,3Y3WkhvP,2020-0188,2020-11-18,15:18:10,15:39:36,NA,incomplete,148,color,0,left,Red_Triangle_Stripes_2.jpg,Red_Circle_Grid_4.jpg,Blue_Plus_Stripes_1.jpg,left,516.814999980852,true,low,false
3Y3WkhvP,3icohx7eofotocxdgkfntnxt5xb0e8,34x6j5flpxbra5my2lpvutxv0h1qjx,3Y3WkhvP,2020-0188,2020-11-18,15:18:10,15:39:36,NA,incomplete,149,color,1,left,Green_Plus_Chess_2.jpg,Green_Circle_Dots_1.jpg,Red_Star_Chess_3.jpg,right,778.5799999255687,false,low,false
3Y3WkhvP,3icohx7eofotocxdgkfntnxt5xb0e8,34x6j5flpxbra5my2lpvutxv0h1qjx,3Y3WkhvP,2020-0188,2020-11-18,15:18:10,15:39:36,NA,incomplete,150,color,1,left,Green_Plus_Chess_1.jpg,Green_Triangle_Dots_4.jpg,Blue_Star_Chess_3.jpg,left,936.2099999561906,true,low,false
3Y3WkhvP,3icohx7eofotocxdgkfntnxt5xb0e8,34x6j5flpxbra5my2lpvutxv0h1qjx,3Y3WkhvP,2020-0188,2020-11-18,15:18:10,15:39:36,NA,incomplete,151,color,1,left,Blue_Plus_Dots_3.jpg,Blue_Triangle_Stripes_2.jpg,Purple_Star_Dots_1.jpg,left,548.2250000350177,true,low,false
3Y3WkhvP,3icohx7eofotocxdgkfntnxt5xb0e8,34x6j5flpxbra5my2lpvutxv0h1qjx,3Y3WkhvP,2020-0188,2020-11-18,15:18:10,15:39:36,NA,incomplete,152,color,1,left,Purple_Plus_Chess_4.jpg,Purple_Triangle_Stripes_1.jpg,Green_Circle_Chess_2.jpg,left,656.3149999128655,true,low,false
3Y3WkhvP,3icohx7eofotocxdgkfntnxt5xb0e8,34x6j5flpxbra5my2lpvutxv0h1qjx,3Y3WkhvP,2020-0188,2020-11-18,15:18:10,15:39:36,NA,incomplete,153,color,1,left,Blue_Circle_Chess_1.jpg,Blue_Triangle_Dots_2.jpg,Green_Star_Chess_4.jpg,left,671.1849999846891,true,low,false
3Y3WkhvP,3icohx7eofotocxdgkfntnxt5xb0e8,34x6j5flpxbra5my2lpvutxv0h1qjx,3Y3WkhvP,2020-0188,2020-11-18,15:18:10,15:39:36,NA,incomplete,154,color,1,left,Green_Circle_Grid_1.jpg,Green_Plus_Dots_3.jpg,Purple_Triangle_Grid_2.jpg,left,448.71500006411225,true,low,false
3Y3WkhvP,3icohx7eofotocxdgkfntnxt5xb0e8,34x6j5flpxbra5my2lpvutxv0h1qjx,3Y3WkhvP,2020-0188,2020-11-18,15:18:10,15:39:36,NA,incomplete,155,color,1,left,Green_Plus_Stripes_4.jpg,Green_Triangle_Chess_1.jpg,Blue_Circle_Stripes_3.jpg,left,595.3749999171123,true,low,false
3Y3WkhvP,3icohx7eofotocxdgkfntnxt5xb0e8,34x6j5flpxbra5my2lpvutxv0h1qjx,3Y3WkhvP,2020-0188,2020-11-18,15:18:10,15:39:36,NA,incomplete,156,color,1,left,Green_Star_Grid_4.jpg,Green_Triangle_Stripes_2.jpg,Red_Plus_Grid_1.jpg,left,430.4599999450147,true,low,false
3Y3WkhvP,3icohx7eofotocxdgkfntnxt5xb0e8,34x6j5flpxbra5my2lpvutxv0h1qjx,3Y3WkhvP,2020-0188,2020-11-18,15:18:10,15:39:36,NA,incomplete,157,color,1,right,Red_Plus_Stripes_2.jpg,Blue_Star_Stripes_3.jpg,Red_Circle_Grid_4.jpg,right,521.9349999679253,true,low,false
3Y3WkhvP,3icohx7eofotocxdgkfntnxt5xb0e8,34x6j5flpxbra5my2lpvutxv0h1qjx,3Y3WkhvP,2020-0188,2020-11-18,15:18:10,15:39:36,NA,incomplete,158,color,0,right,Purple_Triangle_Grid_1.jpg,Red_Circle_Grid_3.jpg,Purple_Star_Stripes_2.jpg,right,564.1199999954551,true,low,false
3Y3WkhvP,3icohx7eofotocxdgkfntnxt5xb0e8,34x6j5flpxbra5my2lpvutxv0h1qjx,3Y3WkhvP,2020-0188,2020-11-18,15:18:10,15:39:36,NA,incomplete,159,color,1,right,Red_Plus_Chess_4.jpg,Blue_Circle_Chess_3.jpg,Red_Star_Grid_2.jpg,right,510.32000000122935,true,low,false
3Y3WkhvP,3icohx7eofotocxdgkfntnxt5xb0e8,34x6j5flpxbra5my2lpvutxv0h1qjx,3Y3WkhvP,2020-0188,2020-11-18,15:18:10,15:39:36,NA,incomplete,160,filling,1,right,Blue_Star_Grid_3.jpg,Blue_Circle_Stripes_2.jpg,Red_Triangle_Grid_1.jpg,left,837.7349999500439,false,low,false
3Y3WkhvP,3icohx7eofotocxdgkfntnxt5xb0e8,34x6j5flpxbra5my2lpvutxv0h1qjx,3Y3WkhvP,2020-0188,2020-11-18,15:18:10,15:39:36,NA,incomplete,161,filling,1,left,Blue_Triangle_Stripes_2.jpg,Green_Star_Stripes_4.jpg,Blue_Plus_Chess_1.jpg,right,635.550000006333,false,low,false
3Y3WkhvP,3icohx7eofotocxdgkfntnxt5xb0e8,34x6j5flpxbra5my2lpvutxv0h1qjx,3Y3WkhvP,2020-0188,2020-11-18,15:18:10,15:39:36,NA,incomplete,162,filling,1,left,Purple_Circle_Stripes_4.jpg,Green_Star_Stripes_3.jpg,Purple_Triangle_Dots_2.jpg,left,671.5150000527501,true,low,false
3Y3WkhvP,3icohx7eofotocxdgkfntnxt5xb0e8,34x6j5flpxbra5my2lpvutxv0h1qjx,3Y3WkhvP,2020-0188,2020-11-18,15:18:10,15:39:36,NA,incomplete,163,filling,1,left,Red_Triangle_Dots_2.jpg,Green_Circle_Dots_1.jpg,Red_Plus_Stripes_3.jpg,left,1016.7999999830499,true,low,false
3Y3WkhvP,3icohx7eofotocxdgkfntnxt5xb0e8,34x6j5flpxbra5my2lpvutxv0h1qjx,3Y3WkhvP,2020-0188,2020-11-18,15:18:10,15:39:36,NA,incomplete,164,filling,0,left,Green_Circle_Grid_1.jpg,Purple_Triangle_Grid_3.jpg,Green_Plus_Chess_2.jpg,left,826.1300000594929,true,low,false
3Y3WkhvP,3icohx7eofotocxdgkfntnxt5xb0e8,34x6j5flpxbra5my2lpvutxv0h1qjx,3Y3WkhvP,2020-0188,2020-11-18,15:18:10,15:39:36,NA,incomplete,165,filling,1,right,Purple_Plus_Chess_2.jpg,Purple_Circle_Stripes_3.jpg,Red_Star_Chess_4.jpg,right,823.1949999462813,true,low,false
3Y3WkhvP,3icohx7eofotocxdgkfntnxt5xb0e8,34x6j5flpxbra5my2lpvutxv0h1qjx,3Y3WkhvP,2020-0188,2020-11-18,15:18:10,15:39:36,NA,incomplete,166,filling,1,left,Blue_Triangle_Chess_1.jpg,Purple_Star_Chess_2.jpg,Blue_Circle_Grid_3.jpg,left,954.6499999705702,true,low,false
3Y3WkhvP,3icohx7eofotocxdgkfntnxt5xb0e8,34x6j5flpxbra5my2lpvutxv0h1qjx,3Y3WkhvP,2020-0188,2020-11-18,15:18:10,15:39:36,NA,incomplete,167,filling,0,left,Red_Triangle_Chess_1.jpg,Green_Circle_Chess_3.jpg,Red_Plus_Grid_2.jpg,left,874.9550000065938,true,low,false
3Y3WkhvP,3icohx7eofotocxdgkfntnxt5xb0e8,34x6j5flpxbra5my2lpvutxv0h1qjx,3Y3WkhvP,2020-0188,2020-11-18,15:18:10,15:39:36,NA,incomplete,168,filling,1,right,Purple_Plus_Grid_4.jpg,Purple_Circle_Chess_2.jpg,Green_Triangle_Grid_1.jpg,right,1069.6049999678507,true,low,false
3Y3WkhvP,3icohx7eofotocxdgkfntnxt5xb0e8,34x6j5flpxbra5my2lpvutxv0h1qjx,3Y3WkhvP,2020-0188,2020-11-18,15:18:10,15:39:36,NA,incomplete,169,filling,1,right,Green_Circle_Dots_4.jpg,Green_Star_Stripes_2.jpg,Purple_Triangle_Dots_1.jpg,right,887.6549999695271,true,low,false
3Y3WkhvP,3icohx7eofotocxdgkfntnxt5xb0e8,34x6j5flpxbra5my2lpvutxv0h1qjx,3Y3WkhvP,2020-0188,2020-11-18,15:18:10,15:39:36,NA,incomplete,170,filling,0,left,Green_Star_Dots_1.jpg,Red_Plus_Dots_3.jpg,Green_Circle_Chess_4.jpg,left,987.6099999528378,true,low,false
3Y3WkhvP,3icohx7eofotocxdgkfntnxt5xb0e8,34x6j5flpxbra5my2lpvutxv0h1qjx,3Y3WkhvP,2020-0188,2020-11-18,15:18:10,15:39:36,NA,incomplete,171,filling,1,right,Red_Plus_Grid_1.jpg,Red_Star_Dots_2.jpg,Blue_Circle_Grid_4.jpg,right,898.5650000395253,true,low,false
3Y3WkhvP,3icohx7eofotocxdgkfntnxt5xb0e8,34x6j5flpxbra5my2lpvutxv0h1qjx,3Y3WkhvP,2020-0188,2020-11-18,15:18:10,15:39:36,NA,incomplete,172,filling,1,right,Purple_Circle_Dots_1.jpg,Purple_Triangle_Chess_4.jpg,Red_Star_Dots_3.jpg,right,904.2899999767542,true,low,false
3Y3WkhvP,3icohx7eofotocxdgkfntnxt5xb0e8,34x6j5flpxbra5my2lpvutxv0h1qjx,3Y3WkhvP,2020-0188,2020-11-18,15:18:10,15:39:36,NA,incomplete,173,filling,0,right,Purple_Circle_Stripes_1.jpg,Purple_Star_Grid_2.jpg,Red_Plus_Stripes_4.jpg,right,1082.3450000025332,true,low,false
3Y3WkhvP,3icohx7eofotocxdgkfntnxt5xb0e8,34x6j5flpxbra5my2lpvutxv0h1qjx,3Y3WkhvP,2020-0188,2020-11-18,15:18:10,15:39:36,NA,incomplete,174,filling,1,right,Blue_Triangle_Stripes_1.jpg,Blue_Star_Grid_2.jpg,Purple_Circle_Stripes_4.jpg,right,1116.4850000059232,true,low,false
3Y3WkhvP,3icohx7eofotocxdgkfntnxt5xb0e8,34x6j5flpxbra5my2lpvutxv0h1qjx,3Y3WkhvP,2020-0188,2020-11-18,15:18:10,15:39:36,NA,incomplete,175,filling,1,right,Blue_Star_Dots_4.jpg,Blue_Plus_Grid_1.jpg,Red_Triangle_Dots_2.jpg,right,949.8949999688193,true,low,false
3Y3WkhvP,3icohx7eofotocxdgkfntnxt5xb0e8,34x6j5flpxbra5my2lpvutxv0h1qjx,3Y3WkhvP,2020-0188,2020-11-18,15:18:10,15:39:36,NA,incomplete,176,filling,1,right,Purple_Star_Grid_3.jpg,Purple_Circle_Chess_1.jpg,Red_Triangle_Grid_2.jpg,right,952.1200000308454,true,low,false
3Y3WkhvP,3icohx7eofotocxdgkfntnxt5xb0e8,34x6j5flpxbra5my2lpvutxv0h1qjx,3Y3WkhvP,2020-0188,2020-11-18,15:18:10,15:39:36,NA,incomplete,177,filling,1,right,Green_Star_Dots_3.jpg,Green_Triangle_Chess_4.jpg,Purple_Plus_Dots_1.jpg,right,998.810000019148,true,low,false
3Y3WkhvP,3icohx7eofotocxdgkfntnxt5xb0e8,34x6j5flpxbra5my2lpvutxv0h1qjx,3Y3WkhvP,2020-0188,2020-11-18,15:18:10,15:39:36,NA,incomplete,178,filling,1,right,Red_Triangle_Chess_3.jpg,Red_Circle_Dots_2.jpg,Green_Plus_Chess_1.jpg,right,879.3150000274181,true,low,false
3Y3WkhvP,3icohx7eofotocxdgkfntnxt5xb0e8,34x6j5flpxbra5my2lpvutxv0h1qjx,3Y3WkhvP,2020-0188,2020-11-18,15:18:10,15:39:36,NA,incomplete,179,filling,1,right,Green_Circle_Chess_3.jpg,Green_Star_Dots_2.jpg,Purple_Plus_Chess_4.jpg,right,755.339999916032,true,low,false
3Y3WkhvP,3icohx7eofotocxdgkfntnxt5xb0e8,34x6j5flpxbra5my2lpvutxv0h1qjx,3Y3WkhvP,2020-0188,2020-11-18,15:18:10,15:39:36,NA,incomplete,180,color,1,left,Purple_Plus_Grid_1.jpg,Purple_Circle_Dots_4.jpg,Blue_Triangle_Grid_3.jpg,right,808.3700001006946,false,low,false
3Y3WkhvP,3icohx7eofotocxdgkfntnxt5xb0e8,34x6j5flpxbra5my2lpvutxv0h1qjx,3Y3WkhvP,2020-0188,2020-11-18,15:18:10,15:39:36,NA,incomplete,181,color,0,left,Purple_Star_Dots_4.jpg,Purple_Plus_Stripes_3.jpg,Blue_Circle_Dots_1.jpg,right,876.3550000730902,false,low,false
3Y3WkhvP,3icohx7eofotocxdgkfntnxt5xb0e8,34x6j5flpxbra5my2lpvutxv0h1qjx,3Y3WkhvP,2020-0188,2020-11-18,15:18:10,15:39:36,NA,incomplete,182,color,1,right,Red_Triangle_Chess_2.jpg,Blue_Circle_Chess_3.jpg,Red_Plus_Dots_4.jpg,left,872.0749999629334,false,low,false
3Y3WkhvP,3icohx7eofotocxdgkfntnxt5xb0e8,34x6j5flpxbra5my2lpvutxv0h1qjx,3Y3WkhvP,2020-0188,2020-11-18,15:18:10,15:39:36,NA,incomplete,183,color,1,right,Purple_Star_Stripes_2.jpg,Blue_Plus_Stripes_4.jpg,Purple_Triangle_Chess_1.jpg,left,1049.544999958016,false,low,false
3Y3WkhvP,3icohx7eofotocxdgkfntnxt5xb0e8,34x6j5flpxbra5my2lpvutxv0h1qjx,3Y3WkhvP,2020-0188,2020-11-18,15:18:10,15:39:36,NA,incomplete,184,color,1,right,Blue_Plus_Chess_4.jpg,Green_Star_Chess_3.jpg,Blue_Circle_Dots_2.jpg,right,566.0449999850243,true,low,false
3Y3WkhvP,3icohx7eofotocxdgkfntnxt5xb0e8,34x6j5flpxbra5my2lpvutxv0h1qjx,3Y3WkhvP,2020-0188,2020-11-18,15:18:10,15:39:36,NA,incomplete,185,color,1,left,Purple_Circle_Chess_1.jpg,Purple_Triangle_Stripes_2.jpg,Blue_Plus_Chess_4.jpg,left,1017.1000000555068,true,low,false
3Y3WkhvP,3icohx7eofotocxdgkfntnxt5xb0e8,34x6j5flpxbra5my2lpvutxv0h1qjx,3Y3WkhvP,2020-0188,2020-11-18,15:18:10,15:39:36,NA,incomplete,186,color,1,right,Red_Triangle_Dots_1.jpg,Purple_Star_Dots_3.jpg,Red_Circle_Chess_4.jpg,right,488.8400000054389,true,low,false
3Y3WkhvP,3icohx7eofotocxdgkfntnxt5xb0e8,34x6j5flpxbra5my2lpvutxv0h1qjx,3Y3WkhvP,2020-0188,2020-11-18,15:18:10,15:39:36,NA,incomplete,187,color,1,left,Purple_Star_Dots_3.jpg,Purple_Plus_Grid_1.jpg,Blue_Circle_Dots_2.jpg,left,548.3450000174344,true,low,false
3Y3WkhvP,3icohx7eofotocxdgkfntnxt5xb0e8,34x6j5flpxbra5my2lpvutxv0h1qjx,3Y3WkhvP,2020-0188,2020-11-18,15:18:10,15:39:36,NA,incomplete,188,color,1,left,Red_Circle_Dots_1.jpg,Red_Star_Grid_2.jpg,Purple_Triangle_Dots_4.jpg,left,749.7699999948964,true,low,false
3Y3WkhvP,3icohx7eofotocxdgkfntnxt5xb0e8,34x6j5flpxbra5my2lpvutxv0h1qjx,3Y3WkhvP,2020-0188,2020-11-18,15:18:10,15:39:36,NA,incomplete,189,color,1,right,Green_Triangle_Grid_1.jpg,Blue_Star_Grid_2.jpg,Green_Plus_Stripes_4.jpg,right,513.8750000623986,true,low,false
3Y3WkhvP,3icohx7eofotocxdgkfntnxt5xb0e8,34x6j5flpxbra5my2lpvutxv0h1qjx,3Y3WkhvP,2020-0188,2020-11-18,15:18:10,15:39:36,NA,incomplete,190,color,1,left,Purple_Circle_Grid_2.jpg,Purple_Star_Chess_1.jpg,Blue_Triangle_Grid_4.jpg,left,489.25500002224,true,low,false
3Y3WkhvP,3icohx7eofotocxdgkfntnxt5xb0e8,34x6j5flpxbra5my2lpvutxv0h1qjx,3Y3WkhvP,2020-0188,2020-11-18,15:18:10,15:39:36,NA,incomplete,191,color,0,right,Purple_Triangle_Stripes_2.jpg,Green_Circle_Stripes_3.jpg,Purple_Star_Grid_4.jpg,right,482.054999913089,true,low,false
3Y3WkhvP,3icohx7eofotocxdgkfntnxt5xb0e8,34x6j5flpxbra5my2lpvutxv0h1qjx,3Y3WkhvP,2020-0188,2020-11-18,15:18:10,15:39:36,NA,incomplete,192,color,1,right,Purple_Plus_Chess_2.jpg,Red_Triangle_Chess_1.jpg,Purple_Star_Dots_4.jpg,right,492.1549999853596,true,low,false
3Y3WkhvP,3icohx7eofotocxdgkfntnxt5xb0e8,34x6j5flpxbra5my2lpvutxv0h1qjx,3Y3WkhvP,2020-0188,2020-11-18,15:18:10,15:39:36,NA,incomplete,193,color,1,left,Purple_Circle_Dots_3.jpg,Purple_Star_Stripes_1.jpg,Green_Triangle_Dots_4.jpg,left,576.9650000147521,true,low,false
3Y3WkhvP,3icohx7eofotocxdgkfntnxt5xb0e8,34x6j5flpxbra5my2lpvutxv0h1qjx,3Y3WkhvP,2020-0188,2020-11-18,15:18:10,15:39:36,NA,incomplete,194,color,1,left,Purple_Star_Dots_3.jpg,Purple_Circle_Grid_1.jpg,Red_Triangle_Dots_2.jpg,left,534.1199999675155,true,low,false
3Y3WkhvP,3icohx7eofotocxdgkfntnxt5xb0e8,34x6j5flpxbra5my2lpvutxv0h1qjx,3Y3WkhvP,2020-0188,2020-11-18,15:18:10,15:39:36,NA,incomplete,195,color,1,left,Purple_Triangle_Chess_1.jpg,Purple_Plus_Grid_4.jpg,Green_Circle_Chess_3.jpg,left,497.93499999213964,true,low,false
3Y3WkhvP,3icohx7eofotocxdgkfntnxt5xb0e8,34x6j5flpxbra5my2lpvutxv0h1qjx,3Y3WkhvP,2020-0188,2020-11-18,15:18:10,15:39:36,NA,incomplete,196,color,1,left,Green_Star_Dots_3.jpg,Green_Circle_Grid_2.jpg,Red_Plus_Dots_1.jpg,left,626.5750000020489,true,low,false
3Y3WkhvP,3icohx7eofotocxdgkfntnxt5xb0e8,34x6j5flpxbra5my2lpvutxv0h1qjx,3Y3WkhvP,2020-0188,2020-11-18,15:18:10,15:39:36,NA,incomplete,197,color,1,right,Red_Circle_Dots_2.jpg,Purple_Star_Dots_3.jpg,Red_Plus_Stripes_4.jpg,right,511.60000008530915,true,low,false
3Y3WkhvP,3icohx7eofotocxdgkfntnxt5xb0e8,34x6j5flpxbra5my2lpvutxv0h1qjx,3Y3WkhvP,2020-0188,2020-11-18,15:18:10,15:39:36,NA,incomplete,198,color,0,right,Red_Plus_Chess_2.jpg,Green_Star_Chess_4.jpg,Red_Triangle_Dots_1.jpg,right,494.4499999983236,true,low,false
3Y3WkhvP,3icohx7eofotocxdgkfntnxt5xb0e8,34x6j5flpxbra5my2lpvutxv0h1qjx,3Y3WkhvP,2020-0188,2020-11-18,15:18:10,15:39:36,NA,incomplete,199,color,1,right,Purple_Triangle_Dots_2.jpg,Blue_Star_Dots_1.jpg,Purple_Circle_Grid_3.jpg,left,908.2199999829754,false,low,false
3Y3WkhvP,3icohx7eofotocxdgkfntnxt5xb0e8,34x6j5flpxbra5my2lpvutxv0h1qjx,3Y3WkhvP,2020-0188,2020-11-18,15:18:10,15:39:36,NA,incomplete,200,filling,1,right,Blue_Triangle_Stripes_1.jpg,Blue_Star_Grid_3.jpg,Green_Circle_Stripes_4.jpg,left,638.1349998991936,false,low,false
3Y3WkhvP,3icohx7eofotocxdgkfntnxt5xb0e8,34x6j5flpxbra5my2lpvutxv0h1qjx,3Y3WkhvP,2020-0188,2020-11-18,15:18:10,15:39:36,NA,incomplete,201,filling,1,left,Green_Plus_Grid_2.jpg,Purple_Circle_Grid_4.jpg,Green_Star_Dots_3.jpg,left,865.6049999408424,true,low,false
3Y3WkhvP,3icohx7eofotocxdgkfntnxt5xb0e8,34x6j5flpxbra5my2lpvutxv0h1qjx,3Y3WkhvP,2020-0188,2020-11-18,15:18:10,15:39:36,NA,incomplete,202,filling,1,right,Purple_Circle_Chess_2.jpg,Purple_Triangle_Dots_4.jpg,Green_Star_Chess_3.jpg,right,1002.9449999565259,true,low,false
3Y3WkhvP,3icohx7eofotocxdgkfntnxt5xb0e8,34x6j5flpxbra5my2lpvutxv0h1qjx,3Y3WkhvP,2020-0188,2020-11-18,15:18:10,15:39:36,NA,incomplete,203,filling,1,right,Red_Circle_Grid_2.jpg,Red_Plus_Dots_3.jpg,Purple_Triangle_Grid_4.jpg,right,672.6849999977276,true,low,false
3Y3WkhvP,3icohx7eofotocxdgkfntnxt5xb0e8,34x6j5flpxbra5my2lpvutxv0h1qjx,3Y3WkhvP,2020-0188,2020-11-18,15:18:10,15:39:36,NA,incomplete,204,filling,1,right,Blue_Star_Stripes_3.jpg,Blue_Triangle_Dots_4.jpg,Red_Plus_Stripes_2.jpg,right,904.3949999613687,true,low,false
3Y3WkhvP,3icohx7eofotocxdgkfntnxt5xb0e8,34x6j5flpxbra5my2lpvutxv0h1qjx,3Y3WkhvP,2020-0188,2020-11-18,15:18:10,15:39:36,NA,incomplete,205,filling,1,right,Green_Plus_Grid_4.jpg,Green_Circle_Stripes_2.jpg,Blue_Star_Grid_1.jpg,left,595.6749999895692,false,low,false
3Y3WkhvP,3icohx7eofotocxdgkfntnxt5xb0e8,34x6j5flpxbra5my2lpvutxv0h1qjx,3Y3WkhvP,2020-0188,2020-11-18,15:18:10,15:39:36,NA,incomplete,206,filling,0,left,Blue_Circle_Dots_2.jpg,Purple_Plus_Dots_3.jpg,Blue_Star_Grid_1.jpg,left,911.1000000266358,true,low,false
3Y3WkhvP,3icohx7eofotocxdgkfntnxt5xb0e8,34x6j5flpxbra5my2lpvutxv0h1qjx,3Y3WkhvP,2020-0188,2020-11-18,15:18:10,15:39:36,NA,incomplete,207,filling,1,right,Purple_Plus_Chess_4.jpg,Purple_Circle_Stripes_1.jpg,Green_Star_Chess_3.jpg,right,877.5049999821931,true,low,false
3Y3WkhvP,3icohx7eofotocxdgkfntnxt5xb0e8,34x6j5flpxbra5my2lpvutxv0h1qjx,3Y3WkhvP,2020-0188,2020-11-18,15:18:10,15:39:36,NA,incomplete,208,filling,1,right,Green_Plus_Stripes_4.jpg,Green_Circle_Grid_2.jpg,Purple_Triangle_Stripes_3.jpg,left,1150.2450000261888,false,low,false
3Y3WkhvP,3icohx7eofotocxdgkfntnxt5xb0e8,34x6j5flpxbra5my2lpvutxv0h1qjx,3Y3WkhvP,2020-0188,2020-11-18,15:18:10,15:39:36,NA,incomplete,209,filling,1,right,Red_Star_Grid_4.jpg,Red_Triangle_Dots_2.jpg,Blue_Plus_Grid_3.jpg,right,833.2200000295416,true,low,false
3Y3WkhvP,3icohx7eofotocxdgkfntnxt5xb0e8,34x6j5flpxbra5my2lpvutxv0h1qjx,3Y3WkhvP,2020-0188,2020-11-18,15:18:10,15:39:36,NA,incomplete,210,filling,1,left,Green_Triangle_Stripes_4.jpg,Blue_Plus_Stripes_3.jpg,Green_Circle_Grid_2.jpg,left,776.0850000195205,true,low,false
3Y3WkhvP,3icohx7eofotocxdgkfntnxt5xb0e8,34x6j5flpxbra5my2lpvutxv0h1qjx,3Y3WkhvP,2020-0188,2020-11-18,15:18:10,15:39:36,NA,incomplete,211,filling,1,right,Green_Circle_Stripes_2.jpg,Green_Plus_Grid_1.jpg,Purple_Star_Stripes_3.jpg,right,768.4600000502542,true,low,false
3Y3WkhvP,3icohx7eofotocxdgkfntnxt5xb0e8,34x6j5flpxbra5my2lpvutxv0h1qjx,3Y3WkhvP,2020-0188,2020-11-18,15:18:10,15:39:36,NA,incomplete,212,filling,1,right,Red_Triangle_Grid_4.jpg,Red_Circle_Chess_2.jpg,Purple_Star_Grid_3.jpg,left,675.5400000838563,false,low,false
3Y3WkhvP,3icohx7eofotocxdgkfntnxt5xb0e8,34x6j5flpxbra5my2lpvutxv0h1qjx,3Y3WkhvP,2020-0188,2020-11-18,15:18:10,15:39:36,NA,incomplete,213,filling,0,left,Red_Star_Chess_4.jpg,Green_Plus_Chess_2.jpg,Red_Circle_Stripes_1.jpg,left,1069.9949999107048,true,low,false
3Y3WkhvP,3icohx7eofotocxdgkfntnxt5xb0e8,34x6j5flpxbra5my2lpvutxv0h1qjx,3Y3WkhvP,2020-0188,2020-11-18,15:18:10,15:39:36,NA,incomplete,214,filling,1,right,Green_Triangle_Dots_3.jpg,Green_Circle_Grid_2.jpg,Blue_Star_Dots_1.jpg,right,914.2549999523908,true,low,false
3Y3WkhvP,3icohx7eofotocxdgkfntnxt5xb0e8,34x6j5flpxbra5my2lpvutxv0h1qjx,3Y3WkhvP,2020-0188,2020-11-18,15:18:10,15:39:36,NA,incomplete,215,filling,1,left,Blue_Plus_Stripes_2.jpg,Purple_Star_Stripes_4.jpg,Blue_Circle_Dots_3.jpg,left,935.2349999826401,true,low,false
3Y3WkhvP,3icohx7eofotocxdgkfntnxt5xb0e8,34x6j5flpxbra5my2lpvutxv0h1qjx,3Y3WkhvP,2020-0188,2020-11-18,15:18:10,15:39:36,NA,incomplete,216,filling,1,left,Blue_Star_Dots_4.jpg,Purple_Triangle_Dots_2.jpg,Blue_Plus_Stripes_1.jpg,left,1047.885000007227,true,low,false
3Y3WkhvP,3icohx7eofotocxdgkfntnxt5xb0e8,34x6j5flpxbra5my2lpvutxv0h1qjx,3Y3WkhvP,2020-0188,2020-11-18,15:18:10,15:39:36,NA,incomplete,217,filling,1,left,Green_Star_Chess_1.jpg,Red_Circle_Chess_3.jpg,Green_Triangle_Grid_2.jpg,left,889.6800000220537,true,low,false
3Y3WkhvP,3icohx7eofotocxdgkfntnxt5xb0e8,34x6j5flpxbra5my2lpvutxv0h1qjx,3Y3WkhvP,2020-0188,2020-11-18,15:18:10,15:39:36,NA,incomplete,218,filling,1,right,Green_Plus_Dots_1.jpg,Green_Star_Stripes_3.jpg,Blue_Triangle_Dots_4.jpg,right,861.075000022538,true,low,false
3Y3WkhvP,3icohx7eofotocxdgkfntnxt5xb0e8,34x6j5flpxbra5my2lpvutxv0h1qjx,3Y3WkhvP,2020-0188,2020-11-18,15:18:10,15:39:36,NA,incomplete,219,filling,0,right,Green_Triangle_Chess_3.jpg,Green_Star_Stripes_2.jpg,Blue_Circle_Chess_1.jpg,right,768.3700000634417,true,low,false
3Y3WkhvP,3icohx7eofotocxdgkfntnxt5xb0e8,34x6j5flpxbra5my2lpvutxv0h1qjx,3Y3WkhvP,2020-0188,2020-11-18,15:18:10,15:39:36,NA,incomplete,220,color,1,right,Purple_Circle_Grid_3.jpg,Green_Plus_Grid_4.jpg,Purple_Triangle_Stripes_2.jpg,left,1090.8100000815466,false,low,false
3Y3WkhvP,3icohx7eofotocxdgkfntnxt5xb0e8,34x6j5flpxbra5my2lpvutxv0h1qjx,3Y3WkhvP,2020-0188,2020-11-18,15:18:10,15:39:36,NA,incomplete,221,color,1,left,Blue_Triangle_Dots_2.jpg,Blue_Plus_Grid_4.jpg,Green_Star_Dots_3.jpg,left,616.7900000000373,true,low,false
3Y3WkhvP,3icohx7eofotocxdgkfntnxt5xb0e8,34x6j5flpxbra5my2lpvutxv0h1qjx,3Y3WkhvP,2020-0188,2020-11-18,15:18:10,15:39:36,NA,incomplete,222,color,1,left,Green_Plus_Stripes_1.jpg,Green_Star_Dots_3.jpg,Purple_Triangle_Stripes_4.jpg,left,658.5900000063702,true,low,false
3Y3WkhvP,3icohx7eofotocxdgkfntnxt5xb0e8,34x6j5flpxbra5my2lpvutxv0h1qjx,3Y3WkhvP,2020-0188,2020-11-18,15:18:10,15:39:36,NA,incomplete,223,color,1,right,Purple_Plus_Grid_4.jpg,Green_Triangle_Grid_3.jpg,Purple_Star_Dots_2.jpg,right,424.34999998658895,true,low,false
3Y3WkhvP,3icohx7eofotocxdgkfntnxt5xb0e8,34x6j5flpxbra5my2lpvutxv0h1qjx,3Y3WkhvP,2020-0188,2020-11-18,15:18:10,15:39:36,NA,incomplete,224,color,0,right,Red_Star_Grid_2.jpg,Green_Circle_Grid_3.jpg,Red_Triangle_Chess_4.jpg,right,495.7649999996647,true,low,false
3Y3WkhvP,3icohx7eofotocxdgkfntnxt5xb0e8,34x6j5flpxbra5my2lpvutxv0h1qjx,3Y3WkhvP,2020-0188,2020-11-18,15:18:10,15:39:36,NA,incomplete,225,color,1,left,Purple_Circle_Stripes_1.jpg,Purple_Star_Grid_3.jpg,Green_Triangle_Stripes_4.jpg,left,728.8849999895319,true,low,false
3Y3WkhvP,3icohx7eofotocxdgkfntnxt5xb0e8,34x6j5flpxbra5my2lpvutxv0h1qjx,3Y3WkhvP,2020-0188,2020-11-18,15:18:10,15:39:36,NA,incomplete,226,color,1,left,Purple_Star_Chess_1.jpg,Purple_Plus_Grid_2.jpg,Red_Triangle_Chess_3.jpg,left,501.56000000424683,true,low,false
3Y3WkhvP,3icohx7eofotocxdgkfntnxt5xb0e8,34x6j5flpxbra5my2lpvutxv0h1qjx,3Y3WkhvP,2020-0188,2020-11-18,15:18:10,15:39:36,NA,incomplete,227,color,0,left,Red_Plus_Stripes_1.jpg,Red_Triangle_Grid_2.jpg,Green_Circle_Stripes_4.jpg,left,564.1499999910593,true,low,false
3Y3WkhvP,3icohx7eofotocxdgkfntnxt5xb0e8,34x6j5flpxbra5my2lpvutxv0h1qjx,3Y3WkhvP,2020-0188,2020-11-18,15:18:10,15:39:36,NA,incomplete,228,color,1,left,Blue_Star_Chess_4.jpg,Blue_Circle_Grid_1.jpg,Green_Plus_Chess_3.jpg,left,550.639999913983,true,low,false
3Y3WkhvP,3icohx7eofotocxdgkfntnxt5xb0e8,34x6j5flpxbra5my2lpvutxv0h1qjx,3Y3WkhvP,2020-0188,2020-11-18,15:18:10,15:39:36,NA,incomplete,229,color,1,left,Red_Plus_Chess_2.jpg,Red_Circle_Dots_4.jpg,Purple_Triangle_Chess_1.jpg,left,628.4400000004098,true,low,false
3Y3WkhvP,3icohx7eofotocxdgkfntnxt5xb0e8,34x6j5flpxbra5my2lpvutxv0h1qjx,3Y3WkhvP,2020-0188,2020-11-18,15:18:10,15:39:36,NA,incomplete,230,color,1,right,Red_Star_Grid_1.jpg,Green_Circle_Grid_3.jpg,Red_Triangle_Dots_2.jpg,right,487.03499999828637,true,low,false
3Y3WkhvP,3icohx7eofotocxdgkfntnxt5xb0e8,34x6j5flpxbra5my2lpvutxv0h1qjx,3Y3WkhvP,2020-0188,2020-11-18,15:18:10,15:39:36,NA,incomplete,231,color,0,right,Red_Plus_Grid_4.jpg,Green_Triangle_Grid_3.jpg,Red_Circle_Chess_1.jpg,right,516.2149999523535,true,low,false
3Y3WkhvP,3icohx7eofotocxdgkfntnxt5xb0e8,34x6j5flpxbra5my2lpvutxv0h1qjx,3Y3WkhvP,2020-0188,2020-11-18,15:18:10,15:39:36,NA,incomplete,232,color,1,left,Red_Triangle_Chess_1.jpg,Red_Circle_Dots_3.jpg,Purple_Star_Chess_2.jpg,left,506.8550000432879,true,low,false
3Y3WkhvP,3icohx7eofotocxdgkfntnxt5xb0e8,34x6j5flpxbra5my2lpvutxv0h1qjx,3Y3WkhvP,2020-0188,2020-11-18,15:18:10,15:39:36,NA,incomplete,233,color,1,left,Purple_Triangle_Grid_3.jpg,Purple_Circle_Chess_1.jpg,Red_Star_Grid_2.jpg,left,618.7299999874085,true,low,false
3Y3WkhvP,3icohx7eofotocxdgkfntnxt5xb0e8,34x6j5flpxbra5my2lpvutxv0h1qjx,3Y3WkhvP,2020-0188,2020-11-18,15:18:10,15:39:36,NA,incomplete,234,color,0,left,Blue_Star_Chess_1.jpg,Blue_Triangle_Stripes_2.jpg,Green_Circle_Chess_4.jpg,left,569.6799999568611,true,low,false
3Y3WkhvP,3icohx7eofotocxdgkfntnxt5xb0e8,34x6j5flpxbra5my2lpvutxv0h1qjx,3Y3WkhvP,2020-0188,2020-11-18,15:18:10,15:39:36,NA,incomplete,235,color,1,right,Green_Circle_Stripes_2.jpg,Blue_Star_Stripes_4.jpg,Green_Triangle_Chess_3.jpg,right,671.9099999172613,true,low,false
3Y3WkhvP,3icohx7eofotocxdgkfntnxt5xb0e8,34x6j5flpxbra5my2lpvutxv0h1qjx,3Y3WkhvP,2020-0188,2020-11-18,15:18:10,15:39:36,NA,incomplete,236,color,0,left,Blue_Circle_Grid_1.jpg,Blue_Plus_Stripes_4.jpg,Purple_Star_Grid_2.jpg,left,553.4399999305606,true,low,false
3Y3WkhvP,3icohx7eofotocxdgkfntnxt5xb0e8,34x6j5flpxbra5my2lpvutxv0h1qjx,3Y3WkhvP,2020-0188,2020-11-18,15:18:10,15:39:36,NA,incomplete,237,color,1,right,Red_Circle_Grid_4.jpg,Purple_Star_Grid_1.jpg,Red_Triangle_Stripes_2.jpg,right,441.5950000984594,true,low,false
3Y3WkhvP,3icohx7eofotocxdgkfntnxt5xb0e8,34x6j5flpxbra5my2lpvutxv0h1qjx,3Y3WkhvP,2020-0188,2020-11-18,15:18:10,15:39:36,NA,incomplete,238,color,0,left,Red_Star_Stripes_3.jpg,Red_Circle_Dots_1.jpg,Blue_Triangle_Stripes_4.jpg,left,615.6549999723211,true,low,false
3Y3WkhvP,3icohx7eofotocxdgkfntnxt5xb0e8,34x6j5flpxbra5my2lpvutxv0h1qjx,3Y3WkhvP,2020-0188,2020-11-18,15:18:10,15:39:36,NA,incomplete,239,color,1,right,Purple_Triangle_Dots_3.jpg,Red_Circle_Dots_2.jpg,Purple_Plus_Stripes_4.jpg,right,636.7049999535084,true,low,false
3Y3WkhvP,3icohx7eofotocxdgkfntnxt5xb0e8,34x6j5flpxbra5my2lpvutxv0h1qjx,3Y3WkhvP,2020-0188,2020-11-18,15:18:10,15:39:36,NA,NA,instruction example,number,NA,NA,Red_Triangle_Stripes_3.jpg,Blue_Circle_Dots_3.jpg,Purple_Triangle_Chess_4.jpg,NA,NA,NA,NA,undefined
3Y3WkhvP,3icohx7eofotocxdgkfntnxt5xb0e8,34x6j5flpxbra5my2lpvutxv0h1qjx,3Y3WkhvP,2020-0188,2020-11-18,15:18:10,15:39:36,NA,NA,instruction example,number,NA,NA,Green_Star_Chess_3.jpg,Blue_Star_Grid_4.jpg,Red_Circle_Dots_3.jpg,NA,NA,NA,NA,undefined
3Y3WkhvP,3icohx7eofotocxdgkfntnxt5xb0e8,34x6j5flpxbra5my2lpvutxv0h1qjx,3Y3WkhvP,2020-0188,2020-11-18,15:18:10,15:39:36,NA,NA,instruction example,number,NA,NA,Red_Star_Stripes_1.jpg,Purple_Triangle_Stripes_3.jpg,Red_Plus_Grid_4.jpg,NA,NA,NA,NA,undefined
3Y3WkhvP,3icohx7eofotocxdgkfntnxt5xb0e8,34x6j5flpxbra5my2lpvutxv0h1qjx,3Y3WkhvP,2020-0188,2020-11-18,15:18:10,15:39:36,NA,NA,instruction example,number,NA,NA,Red_Circle_Stripes_2.jpg,Red_Triangle_Grid_3.jpg,Blue_Star_Stripes_4.jpg,NA,NA,NA,NA,undefined
3Y3WkhvP,3icohx7eofotocxdgkfntnxt5xb0e8,34x6j5flpxbra5my2lpvutxv0h1qjx,3Y3WkhvP,2020-0188,2020-11-18,15:18:10,15:39:36,1226334.0799999423,1286225.1799999503,NA,NA,NA,NA,NA,NA,NA,NA,NA,NA,NA,undefined
