workerId,hitId,assignmentId,subject,studyid,exp_date,exp_start,exp_end,time_start,time_end,trial,type,reward_validity,answer,image_top,image_left,image_right,response,response_time,response_acc,volatility,practice
1nOVwveS,3j6bhnx0vc5zv8hudcso2u6bq3dnka,352ythgrozqouu4agofxfdgat16h40,1nOVwveS,2020-0188,2020-05-21,14:08:26,14:26:37,NA,incomplete,0,number,1,left,Purple_Star_Chess_3.jpg,Blue_Circle_Grid_3.jpg,Purple_Plus_Dots_4.jpg,none,0,false,NA,true
1nOVwveS,3j6bhnx0vc5zv8hudcso2u6bq3dnka,352ythgrozqouu4agofxfdgat16h40,1nOVwveS,2020-0188,2020-05-21,14:08:26,14:26:37,NA,incomplete,1,number,1,left,Purple_Star_Dots_1.jpg,Red_Plus_Grid_1.jpg,Purple_Triangle_Stripes_4.jpg,right,283.915000007255,false,NA,true
1nOVwveS,3j6bhnx0vc5zv8hudcso2u6bq3dnka,352ythgrozqouu4agofxfdgat16h40,1nOVwveS,2020-0188,2020-05-21,14:08:26,14:26:37,NA,incomplete,2,number,1,left,Red_Circle_Dots_2.jpg,Green_Plus_Grid_2.jpg,Red_Star_Chess_1.jpg,left,1816.579999998794,true,NA,true
1nOVwveS,3j6bhnx0vc5zv8hudcso2u6bq3dnka,352ythgrozqouu4agofxfdgat16h40,1nOVwveS,2020-0188,2020-05-21,14:08:26,14:26:37,NA,incomplete,3,number,1,right,Red_Circle_Chess_2.jpg,Red_Triangle_Grid_3.jpg,Purple_Star_Stripes_2.jpg,right,1584.7800000046846,true,NA,true
1nOVwveS,3j6bhnx0vc5zv8hudcso2u6bq3dnka,352ythgrozqouu4agofxfdgat16h40,1nOVwveS,2020-0188,2020-05-21,14:08:26,14:26:37,NA,incomplete,4,number,0,right,Green_Triangle_Dots_4.jpg,Green_Circle_Stripes_1.jpg,Red_Star_Chess_4.jpg,right,1156.3900000037393,true,NA,true
1nOVwveS,3j6bhnx0vc5zv8hudcso2u6bq3dnka,352ythgrozqouu4agofxfdgat16h40,1nOVwveS,2020-0188,2020-05-21,14:08:26,14:26:37,NA,incomplete,5,number,1,right,Red_Triangle_Dots_4.jpg,Red_Star_Grid_2.jpg,Purple_Circle_Stripes_4.jpg,right,1381.0249999951338,true,NA,true
1nOVwveS,3j6bhnx0vc5zv8hudcso2u6bq3dnka,352ythgrozqouu4agofxfdgat16h40,1nOVwveS,2020-0188,2020-05-21,14:08:26,14:26:37,NA,incomplete,6,number,1,left,Red_Circle_Stripes_3.jpg,Blue_Star_Grid_3.jpg,Red_Plus_Dots_4.jpg,left,1125.5900000105612,true,NA,true
1nOVwveS,3j6bhnx0vc5zv8hudcso2u6bq3dnka,352ythgrozqouu4agofxfdgat16h40,1nOVwveS,2020-0188,2020-05-21,14:08:26,14:26:37,NA,incomplete,7,number,0,left,Blue_Plus_Chess_3.jpg,Purple_Star_Stripes_3.jpg,Blue_Circle_Dots_4.jpg,left,922.8750000038417,true,NA,true
1nOVwveS,3j6bhnx0vc5zv8hudcso2u6bq3dnka,352ythgrozqouu4agofxfdgat16h40,1nOVwveS,2020-0188,2020-05-21,14:08:26,14:26:37,NA,incomplete,8,number,0,left,Purple_Plus_Chess_2.jpg,Red_Triangle_Dots_2.jpg,Purple_Star_Stripes_3.jpg,left,1073.2550000102492,true,NA,true
1nOVwveS,3j6bhnx0vc5zv8hudcso2u6bq3dnka,352ythgrozqouu4agofxfdgat16h40,1nOVwveS,2020-0188,2020-05-21,14:08:26,14:26:37,NA,incomplete,9,number,1,right,Purple_Plus_Dots_3.jpg,Purple_Circle_Stripes_1.jpg,Green_Star_Chess_3.jpg,right,1053.4400000033202,true,NA,true
1nOVwveS,3j6bhnx0vc5zv8hudcso2u6bq3dnka,352ythgrozqouu4agofxfdgat16h40,1nOVwveS,2020-0188,2020-05-21,14:08:26,14:26:37,NA,incomplete,10,number,1,right,Green_Plus_Grid_4.jpg,Green_Circle_Dots_3.jpg,Purple_Triangle_Stripes_4.jpg,right,1161.2900000036461,true,NA,true
1nOVwveS,3j6bhnx0vc5zv8hudcso2u6bq3dnka,352ythgrozqouu4agofxfdgat16h40,1nOVwveS,2020-0188,2020-05-21,14:08:26,14:26:37,NA,incomplete,11,number,1,right,Blue_Plus_Grid_1.jpg,Blue_Triangle_Stripes_4.jpg,Green_Circle_Dots_1.jpg,right,1041.7750000051456,true,NA,true
1nOVwveS,3j6bhnx0vc5zv8hudcso2u6bq3dnka,352ythgrozqouu4agofxfdgat16h40,1nOVwveS,2020-0188,2020-05-21,14:08:26,14:26:37,NA,incomplete,12,number,1,left,Red_Plus_Dots_1.jpg,Purple_Star_Stripes_1.jpg,Red_Circle_Chess_2.jpg,left,902.3899999883724,true,NA,true
1nOVwveS,3j6bhnx0vc5zv8hudcso2u6bq3dnka,352ythgrozqouu4agofxfdgat16h40,1nOVwveS,2020-0188,2020-05-21,14:08:26,14:26:37,NA,incomplete,13,number,1,left,Blue_Star_Dots_1.jpg,Red_Plus_Stripes_1.jpg,Blue_Triangle_Chess_3.jpg,left,888.3400000049733,true,NA,true
1nOVwveS,3j6bhnx0vc5zv8hudcso2u6bq3dnka,352ythgrozqouu4agofxfdgat16h40,1nOVwveS,2020-0188,2020-05-21,14:08:26,14:26:37,NA,incomplete,14,number,1,right,Green_Star_Grid_3.jpg,Green_Plus_Chess_4.jpg,Blue_Circle_Stripes_3.jpg,right,1198.514999996405,true,NA,true
1nOVwveS,3j6bhnx0vc5zv8hudcso2u6bq3dnka,352ythgrozqouu4agofxfdgat16h40,1nOVwveS,2020-0188,2020-05-21,14:08:26,14:26:37,NA,incomplete,15,number,0,right,Blue_Plus_Chess_3.jpg,Blue_Star_Dots_1.jpg,Green_Triangle_Grid_3.jpg,right,899.3500000069616,true,NA,true
1nOVwveS,3j6bhnx0vc5zv8hudcso2u6bq3dnka,352ythgrozqouu4agofxfdgat16h40,1nOVwveS,2020-0188,2020-05-21,14:08:26,14:26:37,NA,incomplete,16,number,1,right,Red_Circle_Stripes_1.jpg,Red_Star_Grid_2.jpg,Blue_Plus_Chess_1.jpg,right,949.6749999962049,true,NA,true
1nOVwveS,3j6bhnx0vc5zv8hudcso2u6bq3dnka,352ythgrozqouu4agofxfdgat16h40,1nOVwveS,2020-0188,2020-05-21,14:08:26,14:26:37,NA,incomplete,17,number,1,left,Purple_Star_Grid_3.jpg,Green_Circle_Dots_3.jpg,Purple_Triangle_Chess_2.jpg,left,1078.5400000022491,true,NA,true
1nOVwveS,3j6bhnx0vc5zv8hudcso2u6bq3dnka,352ythgrozqouu4agofxfdgat16h40,1nOVwveS,2020-0188,2020-05-21,14:08:26,14:26:37,NA,incomplete,18,number,1,left,Blue_Plus_Chess_4.jpg,Purple_Circle_Stripes_4.jpg,Blue_Triangle_Grid_1.jpg,left,1093.844999995781,true,NA,true
1nOVwveS,3j6bhnx0vc5zv8hudcso2u6bq3dnka,352ythgrozqouu4agofxfdgat16h40,1nOVwveS,2020-0188,2020-05-21,14:08:26,14:26:37,NA,incomplete,19,number,1,left,Green_Triangle_Chess_1.jpg,Red_Circle_Stripes_1.jpg,Green_Star_Dots_3.jpg,left,1066.6300000011688,true,NA,true
1nOVwveS,3j6bhnx0vc5zv8hudcso2u6bq3dnka,352ythgrozqouu4agofxfdgat16h40,1nOVwveS,2020-0188,2020-05-21,14:08:26,14:26:37,NA,incomplete,20,color,1,left,Blue_Triangle_Grid_3.jpg,Blue_Star_Dots_2.jpg,Purple_Plus_Stripes_3.jpg,right,1347.3399999929825,false,NA,true
1nOVwveS,3j6bhnx0vc5zv8hudcso2u6bq3dnka,352ythgrozqouu4agofxfdgat16h40,1nOVwveS,2020-0188,2020-05-21,14:08:26,14:26:37,NA,incomplete,21,color,1,left,Red_Triangle_Grid_2.jpg,Red_Star_Chess_3.jpg,Green_Circle_Stripes_2.jpg,left,1540.1899999997113,true,NA,true
1nOVwveS,3j6bhnx0vc5zv8hudcso2u6bq3dnka,352ythgrozqouu4agofxfdgat16h40,1nOVwveS,2020-0188,2020-05-21,14:08:26,14:26:37,NA,incomplete,22,color,1,left,Purple_Circle_Chess_3.jpg,Purple_Star_Stripes_2.jpg,Blue_Plus_Dots_3.jpg,right,1220.1250000071013,false,NA,true
1nOVwveS,3j6bhnx0vc5zv8hudcso2u6bq3dnka,352ythgrozqouu4agofxfdgat16h40,1nOVwveS,2020-0188,2020-05-21,14:08:26,14:26:37,NA,incomplete,23,color,0,left,Red_Plus_Grid_1.jpg,Red_Star_Stripes_4.jpg,Blue_Triangle_Dots_1.jpg,left,951.7499999928987,true,NA,true
1nOVwveS,3j6bhnx0vc5zv8hudcso2u6bq3dnka,352ythgrozqouu4agofxfdgat16h40,1nOVwveS,2020-0188,2020-05-21,14:08:26,14:26:37,NA,incomplete,24,color,1,left,Purple_Star_Grid_4.jpg,Purple_Triangle_Dots_1.jpg,Blue_Circle_Stripes_4.jpg,left,1342.5549999956274,true,NA,true
1nOVwveS,3j6bhnx0vc5zv8hudcso2u6bq3dnka,352ythgrozqouu4agofxfdgat16h40,1nOVwveS,2020-0188,2020-05-21,14:08:26,14:26:37,NA,incomplete,25,color,0,right,Red_Star_Chess_4.jpg,Purple_Plus_Grid_4.jpg,Red_Triangle_Stripes_3.jpg,right,1563.0550000059884,true,NA,true
1nOVwveS,3j6bhnx0vc5zv8hudcso2u6bq3dnka,352ythgrozqouu4agofxfdgat16h40,1nOVwveS,2020-0188,2020-05-21,14:08:26,14:26:37,NA,incomplete,26,color,0,right,Blue_Triangle_Chess_2.jpg,Green_Star_Grid_2.jpg,Blue_Circle_Stripes_3.jpg,right,1560.445000010077,true,NA,true
1nOVwveS,3j6bhnx0vc5zv8hudcso2u6bq3dnka,352ythgrozqouu4agofxfdgat16h40,1nOVwveS,2020-0188,2020-05-21,14:08:26,14:26:37,NA,incomplete,27,color,1,right,Red_Star_Grid_1.jpg,Green_Triangle_Dots_1.jpg,Red_Plus_Chess_4.jpg,right,1101.5900000056718,true,NA,true
1nOVwveS,3j6bhnx0vc5zv8hudcso2u6bq3dnka,352ythgrozqouu4agofxfdgat16h40,1nOVwveS,2020-0188,2020-05-21,14:08:26,14:26:37,NA,incomplete,28,color,1,left,Green_Star_Grid_3.jpg,Green_Circle_Dots_4.jpg,Blue_Plus_Chess_3.jpg,left,1409.3049999937648,true,NA,true
1nOVwveS,3j6bhnx0vc5zv8hudcso2u6bq3dnka,352ythgrozqouu4agofxfdgat16h40,1nOVwveS,2020-0188,2020-05-21,14:08:26,14:26:37,NA,incomplete,29,color,1,left,Blue_Circle_Grid_1.jpg,Blue_Star_Chess_2.jpg,Red_Triangle_Dots_1.jpg,left,976.1650000000373,true,NA,true
1nOVwveS,3j6bhnx0vc5zv8hudcso2u6bq3dnka,352ythgrozqouu4agofxfdgat16h40,1nOVwveS,2020-0188,2020-05-21,14:08:26,14:26:37,NA,incomplete,30,color,0,right,Green_Triangle_Grid_4.jpg,Purple_Plus_Dots_4.jpg,Green_Circle_Stripes_1.jpg,right,1382.2300000028918,true,NA,true
1nOVwveS,3j6bhnx0vc5zv8hudcso2u6bq3dnka,352ythgrozqouu4agofxfdgat16h40,1nOVwveS,2020-0188,2020-05-21,14:08:26,14:26:37,NA,incomplete,31,color,1,right,Green_Triangle_Stripes_3.jpg,Blue_Star_Dots_3.jpg,Green_Circle_Chess_1.jpg,right,1069.310000006226,true,NA,true
1nOVwveS,3j6bhnx0vc5zv8hudcso2u6bq3dnka,352ythgrozqouu4agofxfdgat16h40,1nOVwveS,2020-0188,2020-05-21,14:08:26,14:26:37,NA,incomplete,32,color,1,left,Blue_Plus_Dots_3.jpg,Blue_Star_Chess_2.jpg,Red_Triangle_Grid_3.jpg,left,1704.5100000104867,true,NA,true
1nOVwveS,3j6bhnx0vc5zv8hudcso2u6bq3dnka,352ythgrozqouu4agofxfdgat16h40,1nOVwveS,2020-0188,2020-05-21,14:08:26,14:26:37,NA,incomplete,33,color,1,right,Green_Circle_Stripes_2.jpg,Blue_Triangle_Grid_2.jpg,Green_Star_Dots_1.jpg,right,1156.7550000036135,true,NA,true
1nOVwveS,3j6bhnx0vc5zv8hudcso2u6bq3dnka,352ythgrozqouu4agofxfdgat16h40,1nOVwveS,2020-0188,2020-05-21,14:08:26,14:26:37,NA,incomplete,34,color,1,left,Blue_Star_Dots_4.jpg,Blue_Triangle_Grid_2.jpg,Red_Plus_Stripes_4.jpg,left,1301.0750000103144,true,NA,true
1nOVwveS,3j6bhnx0vc5zv8hudcso2u6bq3dnka,352ythgrozqouu4agofxfdgat16h40,1nOVwveS,2020-0188,2020-05-21,14:08:26,14:26:37,NA,incomplete,35,color,1,left,Purple_Triangle_Grid_3.jpg,Purple_Plus_Dots_4.jpg,Blue_Star_Stripes_3.jpg,left,1563.2449999975506,true,NA,true
1nOVwveS,3j6bhnx0vc5zv8hudcso2u6bq3dnka,352ythgrozqouu4agofxfdgat16h40,1nOVwveS,2020-0188,2020-05-21,14:08:26,14:26:37,NA,incomplete,36,color,1,right,Purple_Plus_Grid_2.jpg,Blue_Triangle_Dots_2.jpg,Purple_Circle_Stripes_4.jpg,right,1071.00999999966,true,NA,true
1nOVwveS,3j6bhnx0vc5zv8hudcso2u6bq3dnka,352ythgrozqouu4agofxfdgat16h40,1nOVwveS,2020-0188,2020-05-21,14:08:26,14:26:37,NA,incomplete,37,color,1,right,Green_Plus_Stripes_1.jpg,Red_Triangle_Chess_1.jpg,Green_Circle_Grid_3.jpg,right,863.6800000094809,true,NA,true
1nOVwveS,3j6bhnx0vc5zv8hudcso2u6bq3dnka,352ythgrozqouu4agofxfdgat16h40,1nOVwveS,2020-0188,2020-05-21,14:08:26,14:26:37,NA,incomplete,38,color,1,right,Red_Star_Chess_1.jpg,Green_Triangle_Grid_1.jpg,Red_Circle_Stripes_3.jpg,right,857.5750000018161,true,NA,true
1nOVwveS,3j6bhnx0vc5zv8hudcso2u6bq3dnka,352ythgrozqouu4agofxfdgat16h40,1nOVwveS,2020-0188,2020-05-21,14:08:26,14:26:37,NA,incomplete,39,color,1,left,Green_Plus_Grid_2.jpg,Green_Triangle_Dots_1.jpg,Red_Star_Chess_2.jpg,left,1515.1850000111153,true,NA,true
1nOVwveS,3j6bhnx0vc5zv8hudcso2u6bq3dnka,352ythgrozqouu4agofxfdgat16h40,1nOVwveS,2020-0188,2020-05-21,14:08:26,14:26:37,NA,incomplete,0,number,0,right,Blue_Circle_Dots_2.jpg,Blue_Triangle_Stripes_1.jpg,Green_Star_Chess_2.jpg,left,1185.9300000069197,false,low,false
1nOVwveS,3j6bhnx0vc5zv8hudcso2u6bq3dnka,352ythgrozqouu4agofxfdgat16h40,1nOVwveS,2020-0188,2020-05-21,14:08:26,14:26:37,NA,incomplete,1,number,1,left,Red_Triangle_Stripes_3.jpg,Green_Plus_Chess_3.jpg,Red_Circle_Dots_1.jpg,right,1092.8249999997206,false,low,false
1nOVwveS,3j6bhnx0vc5zv8hudcso2u6bq3dnka,352ythgrozqouu4agofxfdgat16h40,1nOVwveS,2020-0188,2020-05-21,14:08:26,14:26:37,NA,incomplete,2,number,1,right,Purple_Star_Dots_4.jpg,Purple_Triangle_Chess_3.jpg,Red_Circle_Grid_4.jpg,left,720.8350000000792,false,low,false
1nOVwveS,3j6bhnx0vc5zv8hudcso2u6bq3dnka,352ythgrozqouu4agofxfdgat16h40,1nOVwveS,2020-0188,2020-05-21,14:08:26,14:26:37,NA,incomplete,3,number,1,right,Purple_Triangle_Dots_4.jpg,Purple_Plus_Stripes_3.jpg,Red_Star_Grid_4.jpg,right,967.7850000007311,true,low,false
1nOVwveS,3j6bhnx0vc5zv8hudcso2u6bq3dnka,352ythgrozqouu4agofxfdgat16h40,1nOVwveS,2020-0188,2020-05-21,14:08:26,14:26:37,NA,incomplete,4,number,0,right,Blue_Triangle_Dots_1.jpg,Blue_Circle_Chess_4.jpg,Green_Star_Grid_1.jpg,right,886.1900000047171,true,low,false
1nOVwveS,3j6bhnx0vc5zv8hudcso2u6bq3dnka,352ythgrozqouu4agofxfdgat16h40,1nOVwveS,2020-0188,2020-05-21,14:08:26,14:26:37,NA,incomplete,5,number,1,right,Blue_Triangle_Dots_2.jpg,Blue_Plus_Grid_4.jpg,Red_Circle_Chess_2.jpg,right,999.8499999928754,true,low,false
1nOVwveS,3j6bhnx0vc5zv8hudcso2u6bq3dnka,352ythgrozqouu4agofxfdgat16h40,1nOVwveS,2020-0188,2020-05-21,14:08:26,14:26:37,NA,incomplete,6,number,1,left,Purple_Triangle_Stripes_4.jpg,Red_Circle_Chess_4.jpg,Purple_Star_Dots_3.jpg,left,994.9350000097184,true,low,false
1nOVwveS,3j6bhnx0vc5zv8hudcso2u6bq3dnka,352ythgrozqouu4agofxfdgat16h40,1nOVwveS,2020-0188,2020-05-21,14:08:26,14:26:37,NA,incomplete,7,number,1,right,Green_Triangle_Dots_3.jpg,Green_Circle_Chess_2.jpg,Red_Plus_Stripes_3.jpg,right,1209.2799999954877,true,low,false
1nOVwveS,3j6bhnx0vc5zv8hudcso2u6bq3dnka,352ythgrozqouu4agofxfdgat16h40,1nOVwveS,2020-0188,2020-05-21,14:08:26,14:26:37,NA,incomplete,8,number,1,right,Blue_Triangle_Stripes_1.jpg,Blue_Circle_Grid_3.jpg,Red_Plus_Dots_1.jpg,right,951.6399999993155,true,low,false
1nOVwveS,3j6bhnx0vc5zv8hudcso2u6bq3dnka,352ythgrozqouu4agofxfdgat16h40,1nOVwveS,2020-0188,2020-05-21,14:08:26,14:26:37,NA,incomplete,9,number,1,right,Purple_Star_Chess_4.jpg,Purple_Plus_Dots_1.jpg,Green_Circle_Grid_4.jpg,right,867.0899999997346,true,low,false
1nOVwveS,3j6bhnx0vc5zv8hudcso2u6bq3dnka,352ythgrozqouu4agofxfdgat16h40,1nOVwveS,2020-0188,2020-05-21,14:08:26,14:26:37,NA,incomplete,10,number,1,right,Purple_Star_Dots_3.jpg,Purple_Triangle_Grid_4.jpg,Blue_Circle_Stripes_3.jpg,right,856.7500000062864,true,low,false
1nOVwveS,3j6bhnx0vc5zv8hudcso2u6bq3dnka,352ythgrozqouu4agofxfdgat16h40,1nOVwveS,2020-0188,2020-05-21,14:08:26,14:26:37,NA,incomplete,11,number,1,left,Green_Plus_Grid_2.jpg,Purple_Circle_Dots_2.jpg,Green_Star_Stripes_4.jpg,left,862.9349999973783,true,low,false
1nOVwveS,3j6bhnx0vc5zv8hudcso2u6bq3dnka,352ythgrozqouu4agofxfdgat16h40,1nOVwveS,2020-0188,2020-05-21,14:08:26,14:26:37,NA,incomplete,12,number,1,left,Green_Plus_Stripes_3.jpg,Purple_Star_Dots_3.jpg,Green_Triangle_Chess_2.jpg,left,839.9800000042887,true,low,false
1nOVwveS,3j6bhnx0vc5zv8hudcso2u6bq3dnka,352ythgrozqouu4agofxfdgat16h40,1nOVwveS,2020-0188,2020-05-21,14:08:26,14:26:37,NA,incomplete,13,number,0,right,Red_Circle_Chess_2.jpg,Red_Triangle_Grid_4.jpg,Green_Star_Dots_2.jpg,right,929.7500000102445,true,low,false
1nOVwveS,3j6bhnx0vc5zv8hudcso2u6bq3dnka,352ythgrozqouu4agofxfdgat16h40,1nOVwveS,2020-0188,2020-05-21,14:08:26,14:26:37,NA,incomplete,14,number,1,right,Blue_Plus_Dots_3.jpg,Blue_Circle_Stripes_4.jpg,Green_Triangle_Grid_3.jpg,left,748.5849999939092,false,low,false
1nOVwveS,3j6bhnx0vc5zv8hudcso2u6bq3dnka,352ythgrozqouu4agofxfdgat16h40,1nOVwveS,2020-0188,2020-05-21,14:08:26,14:26:37,NA,incomplete,15,number,1,right,Red_Plus_Dots_3.jpg,Red_Star_Stripes_4.jpg,Green_Triangle_Grid_3.jpg,right,731.9050000078278,true,low,false
1nOVwveS,3j6bhnx0vc5zv8hudcso2u6bq3dnka,352ythgrozqouu4agofxfdgat16h40,1nOVwveS,2020-0188,2020-05-21,14:08:26,14:26:37,NA,incomplete,16,number,1,right,Purple_Circle_Stripes_4.jpg,Purple_Plus_Grid_1.jpg,Blue_Triangle_Chess_4.jpg,right,825.9749999997439,true,low,false
1nOVwveS,3j6bhnx0vc5zv8hudcso2u6bq3dnka,352ythgrozqouu4agofxfdgat16h40,1nOVwveS,2020-0188,2020-05-21,14:08:26,14:26:37,NA,incomplete,17,number,0,right,Red_Plus_Chess_2.jpg,Red_Star_Stripes_4.jpg,Green_Triangle_Dots_2.jpg,left,1190.325000003213,false,low,false
1nOVwveS,3j6bhnx0vc5zv8hudcso2u6bq3dnka,352ythgrozqouu4agofxfdgat16h40,1nOVwveS,2020-0188,2020-05-21,14:08:26,14:26:37,NA,incomplete,18,number,1,right,Blue_Plus_Stripes_1.jpg,Blue_Circle_Dots_4.jpg,Green_Triangle_Chess_1.jpg,left,636.754999999539,false,low,false
1nOVwveS,3j6bhnx0vc5zv8hudcso2u6bq3dnka,352ythgrozqouu4agofxfdgat16h40,1nOVwveS,2020-0188,2020-05-21,14:08:26,14:26:37,NA,incomplete,19,number,1,left,Green_Star_Stripes_1.jpg,Blue_Plus_Dots_1.jpg,Green_Triangle_Grid_4.jpg,right,568.5399999929359,false,low,false
1nOVwveS,3j6bhnx0vc5zv8hudcso2u6bq3dnka,352ythgrozqouu4agofxfdgat16h40,1nOVwveS,2020-0188,2020-05-21,14:08:26,14:26:37,NA,incomplete,20,number,1,right,Red_Plus_Grid_4.jpg,Red_Star_Chess_2.jpg,Green_Circle_Dots_4.jpg,left,669.3350000132341,false,low,false
1nOVwveS,3j6bhnx0vc5zv8hudcso2u6bq3dnka,352ythgrozqouu4agofxfdgat16h40,1nOVwveS,2020-0188,2020-05-21,14:08:26,14:26:37,NA,incomplete,21,number,1,right,Blue_Star_Stripes_2.jpg,Blue_Circle_Grid_4.jpg,Purple_Plus_Chess_2.jpg,left,766.1649999936344,false,low,false
1nOVwveS,3j6bhnx0vc5zv8hudcso2u6bq3dnka,352ythgrozqouu4agofxfdgat16h40,1nOVwveS,2020-0188,2020-05-21,14:08:26,14:26:37,NA,incomplete,22,number,0,right,Red_Circle_Dots_1.jpg,Red_Star_Grid_3.jpg,Blue_Plus_Chess_1.jpg,right,647.5049999862676,true,low,false
1nOVwveS,3j6bhnx0vc5zv8hudcso2u6bq3dnka,352ythgrozqouu4agofxfdgat16h40,1nOVwveS,2020-0188,2020-05-21,14:08:26,14:26:37,NA,incomplete,23,number,1,right,Red_Circle_Chess_3.jpg,Red_Plus_Dots_4.jpg,Purple_Triangle_Stripes_3.jpg,right,915.6549999897834,true,low,false
1nOVwveS,3j6bhnx0vc5zv8hudcso2u6bq3dnka,352ythgrozqouu4agofxfdgat16h40,1nOVwveS,2020-0188,2020-05-21,14:08:26,14:26:37,NA,incomplete,24,number,1,right,Blue_Plus_Stripes_3.jpg,Blue_Triangle_Dots_4.jpg,Purple_Star_Chess_3.jpg,right,694.9250000034226,true,low,false
1nOVwveS,3j6bhnx0vc5zv8hudcso2u6bq3dnka,352ythgrozqouu4agofxfdgat16h40,1nOVwveS,2020-0188,2020-05-21,14:08:26,14:26:37,NA,incomplete,25,number,1,right,Purple_Plus_Chess_2.jpg,Purple_Triangle_Stripes_4.jpg,Blue_Star_Dots_2.jpg,right,945.8449999947334,true,low,false
1nOVwveS,3j6bhnx0vc5zv8hudcso2u6bq3dnka,352ythgrozqouu4agofxfdgat16h40,1nOVwveS,2020-0188,2020-05-21,14:08:26,14:26:37,NA,incomplete,26,number,0,right,Red_Triangle_Dots_4.jpg,Red_Star_Stripes_1.jpg,Purple_Plus_Grid_4.jpg,right,774.520000006305,true,low,false
1nOVwveS,3j6bhnx0vc5zv8hudcso2u6bq3dnka,352ythgrozqouu4agofxfdgat16h40,1nOVwveS,2020-0188,2020-05-21,14:08:26,14:26:37,NA,incomplete,27,number,1,right,Blue_Circle_Stripes_1.jpg,Blue_Triangle_Chess_3.jpg,Purple_Star_Dots_1.jpg,left,734.6299999917392,false,low,false
1nOVwveS,3j6bhnx0vc5zv8hudcso2u6bq3dnka,352ythgrozqouu4agofxfdgat16h40,1nOVwveS,2020-0188,2020-05-21,14:08:26,14:26:37,NA,incomplete,28,number,1,right,Purple_Circle_Stripes_3.jpg,Purple_Plus_Dots_2.jpg,Red_Star_Chess_3.jpg,right,760.1949999952922,true,low,false
1nOVwveS,3j6bhnx0vc5zv8hudcso2u6bq3dnka,352ythgrozqouu4agofxfdgat16h40,1nOVwveS,2020-0188,2020-05-21,14:08:26,14:26:37,NA,incomplete,29,number,1,left,Purple_Star_Stripes_1.jpg,Green_Circle_Chess_1.jpg,Purple_Triangle_Dots_4.jpg,left,766.9199999945704,true,low,false
1nOVwveS,3j6bhnx0vc5zv8hudcso2u6bq3dnka,352ythgrozqouu4agofxfdgat16h40,1nOVwveS,2020-0188,2020-05-21,14:08:26,14:26:37,NA,incomplete,30,color,1,right,Blue_Star_Chess_1.jpg,Purple_Circle_Dots_1.jpg,Blue_Plus_Stripes_4.jpg,left,709.869999991497,false,low,false
1nOVwveS,3j6bhnx0vc5zv8hudcso2u6bq3dnka,352ythgrozqouu4agofxfdgat16h40,1nOVwveS,2020-0188,2020-05-21,14:08:26,14:26:37,NA,incomplete,31,color,1,right,Blue_Triangle_Chess_4.jpg,Green_Plus_Grid_4.jpg,Blue_Star_Dots_2.jpg,left,760.6599999999162,false,low,false
1nOVwveS,3j6bhnx0vc5zv8hudcso2u6bq3dnka,352ythgrozqouu4agofxfdgat16h40,1nOVwveS,2020-0188,2020-05-21,14:08:26,14:26:37,NA,incomplete,32,color,0,right,Blue_Circle_Chess_3.jpg,Purple_Plus_Stripes_3.jpg,Blue_Star_Grid_1.jpg,right,603.6599999933969,true,low,false
1nOVwveS,3j6bhnx0vc5zv8hudcso2u6bq3dnka,352ythgrozqouu4agofxfdgat16h40,1nOVwveS,2020-0188,2020-05-21,14:08:26,14:26:37,NA,incomplete,33,color,1,right,Purple_Triangle_Stripes_2.jpg,Green_Circle_Chess_2.jpg,Purple_Star_Dots_3.jpg,right,636.2850000004983,true,low,false
1nOVwveS,3j6bhnx0vc5zv8hudcso2u6bq3dnka,352ythgrozqouu4agofxfdgat16h40,1nOVwveS,2020-0188,2020-05-21,14:08:26,14:26:37,NA,incomplete,34,color,1,left,Green_Triangle_Stripes_4.jpg,Green_Plus_Grid_3.jpg,Red_Star_Dots_4.jpg,right,926.5899999882095,false,low,false
1nOVwveS,3j6bhnx0vc5zv8hudcso2u6bq3dnka,352ythgrozqouu4agofxfdgat16h40,1nOVwveS,2020-0188,2020-05-21,14:08:26,14:26:37,NA,incomplete,35,color,1,right,Green_Circle_Dots_2.jpg,Purple_Plus_Chess_2.jpg,Green_Triangle_Stripes_1.jpg,right,937.3749999940628,true,low,false
1nOVwveS,3j6bhnx0vc5zv8hudcso2u6bq3dnka,352ythgrozqouu4agofxfdgat16h40,1nOVwveS,2020-0188,2020-05-21,14:08:26,14:26:37,NA,incomplete,36,color,1,right,Green_Triangle_Stripes_3.jpg,Red_Circle_Grid_3.jpg,Green_Star_Dots_2.jpg,right,859.6299999917392,true,low,false
1nOVwveS,3j6bhnx0vc5zv8hudcso2u6bq3dnka,352ythgrozqouu4agofxfdgat16h40,1nOVwveS,2020-0188,2020-05-21,14:08:26,14:26:37,NA,incomplete,37,color,0,right,Blue_Triangle_Grid_3.jpg,Green_Plus_Chess_3.jpg,Blue_Star_Stripes_1.jpg,right,865.1300000055926,true,low,false
1nOVwveS,3j6bhnx0vc5zv8hudcso2u6bq3dnka,352ythgrozqouu4agofxfdgat16h40,1nOVwveS,2020-0188,2020-05-21,14:08:26,14:26:37,NA,incomplete,38,color,1,right,Green_Triangle_Dots_1.jpg,Purple_Circle_Chess_1.jpg,Green_Star_Grid_3.jpg,left,797.0349999959581,false,low,false
1nOVwveS,3j6bhnx0vc5zv8hudcso2u6bq3dnka,352ythgrozqouu4agofxfdgat16h40,1nOVwveS,2020-0188,2020-05-21,14:08:26,14:26:37,NA,incomplete,39,color,1,right,Purple_Triangle_Stripes_4.jpg,Green_Plus_Dots_4.jpg,Purple_Circle_Grid_2.jpg,left,771.3599999988219,false,low,false
1nOVwveS,3j6bhnx0vc5zv8hudcso2u6bq3dnka,352ythgrozqouu4agofxfdgat16h40,1nOVwveS,2020-0188,2020-05-21,14:08:26,14:26:37,NA,incomplete,40,color,1,left,Green_Circle_Stripes_1.jpg,Green_Plus_Chess_4.jpg,Purple_Star_Grid_1.jpg,left,733.475000000908,true,low,false
1nOVwveS,3j6bhnx0vc5zv8hudcso2u6bq3dnka,352ythgrozqouu4agofxfdgat16h40,1nOVwveS,2020-0188,2020-05-21,14:08:26,14:26:37,NA,incomplete,41,color,1,left,Red_Plus_Grid_1.jpg,Red_Star_Dots_3.jpg,Green_Triangle_Stripes_1.jpg,left,689.9549999943702,true,low,false
1nOVwveS,3j6bhnx0vc5zv8hudcso2u6bq3dnka,352ythgrozqouu4agofxfdgat16h40,1nOVwveS,2020-0188,2020-05-21,14:08:26,14:26:37,NA,incomplete,42,color,1,right,Blue_Plus_Chess_4.jpg,Purple_Triangle_Stripes_4.jpg,Blue_Circle_Dots_1.jpg,left,747.4800000054529,false,low,false
1nOVwveS,3j6bhnx0vc5zv8hudcso2u6bq3dnka,352ythgrozqouu4agofxfdgat16h40,1nOVwveS,2020-0188,2020-05-21,14:08:26,14:26:37,NA,incomplete,43,color,1,right,Purple_Triangle_Chess_1.jpg,Green_Circle_Grid_1.jpg,Purple_Plus_Stripes_2.jpg,left,792.1449999994365,false,low,false
1nOVwveS,3j6bhnx0vc5zv8hudcso2u6bq3dnka,352ythgrozqouu4agofxfdgat16h40,1nOVwveS,2020-0188,2020-05-21,14:08:26,14:26:37,NA,incomplete,44,color,1,right,Red_Star_Dots_3.jpg,Purple_Triangle_Chess_3.jpg,Red_Circle_Stripes_2.jpg,right,634.1800000082003,true,low,false
1nOVwveS,3j6bhnx0vc5zv8hudcso2u6bq3dnka,352ythgrozqouu4agofxfdgat16h40,1nOVwveS,2020-0188,2020-05-21,14:08:26,14:26:37,NA,incomplete,45,color,0,right,Blue_Star_Dots_4.jpg,Purple_Circle_Grid_4.jpg,Blue_Triangle_Stripes_1.jpg,right,603.1199999997625,true,low,false
1nOVwveS,3j6bhnx0vc5zv8hudcso2u6bq3dnka,352ythgrozqouu4agofxfdgat16h40,1nOVwveS,2020-0188,2020-05-21,14:08:26,14:26:37,NA,incomplete,46,color,1,right,Green_Triangle_Stripes_3.jpg,Blue_Circle_Grid_3.jpg,Green_Plus_Chess_4.jpg,right,708.809999996447,true,low,false
1nOVwveS,3j6bhnx0vc5zv8hudcso2u6bq3dnka,352ythgrozqouu4agofxfdgat16h40,1nOVwveS,2020-0188,2020-05-21,14:08:26,14:26:37,NA,incomplete,47,color,1,left,Purple_Plus_Grid_1.jpg,Purple_Triangle_Stripes_4.jpg,Blue_Star_Chess_1.jpg,right,741.0899999958929,false,low,false
1nOVwveS,3j6bhnx0vc5zv8hudcso2u6bq3dnka,352ythgrozqouu4agofxfdgat16h40,1nOVwveS,2020-0188,2020-05-21,14:08:26,14:26:37,NA,incomplete,48,color,1,right,Red_Plus_Grid_4.jpg,Blue_Star_Dots_4.jpg,Red_Circle_Chess_2.jpg,right,745.1799999980722,true,low,false
1nOVwveS,3j6bhnx0vc5zv8hudcso2u6bq3dnka,352ythgrozqouu4agofxfdgat16h40,1nOVwveS,2020-0188,2020-05-21,14:08:26,14:26:37,NA,incomplete,49,color,1,left,Blue_Star_Grid_4.jpg,Blue_Plus_Stripes_2.jpg,Purple_Circle_Chess_4.jpg,left,861.4650000090478,true,low,false
1nOVwveS,3j6bhnx0vc5zv8hudcso2u6bq3dnka,352ythgrozqouu4agofxfdgat16h40,1nOVwveS,2020-0188,2020-05-21,14:08:26,14:26:37,NA,incomplete,50,color,1,right,Green_Triangle_Chess_2.jpg,Purple_Circle_Stripes_2.jpg,Green_Star_Grid_4.jpg,right,733.845000009751,true,low,false
1nOVwveS,3j6bhnx0vc5zv8hudcso2u6bq3dnka,352ythgrozqouu4agofxfdgat16h40,1nOVwveS,2020-0188,2020-05-21,14:08:26,14:26:37,NA,incomplete,51,color,1,left,Purple_Triangle_Dots_1.jpg,Purple_Plus_Stripes_3.jpg,Red_Star_Chess_1.jpg,left,759.6750000084285,true,low,false
1nOVwveS,3j6bhnx0vc5zv8hudcso2u6bq3dnka,352ythgrozqouu4agofxfdgat16h40,1nOVwveS,2020-0188,2020-05-21,14:08:26,14:26:37,NA,incomplete,52,color,0,right,Green_Plus_Stripes_1.jpg,Red_Triangle_Chess_1.jpg,Green_Circle_Grid_3.jpg,right,783.9600000006612,true,low,false
1nOVwveS,3j6bhnx0vc5zv8hudcso2u6bq3dnka,352ythgrozqouu4agofxfdgat16h40,1nOVwveS,2020-0188,2020-05-21,14:08:26,14:26:37,NA,incomplete,53,color,1,left,Blue_Circle_Grid_2.jpg,Blue_Triangle_Stripes_3.jpg,Purple_Plus_Chess_2.jpg,left,750.3399999986868,true,low,false
1nOVwveS,3j6bhnx0vc5zv8hudcso2u6bq3dnka,352ythgrozqouu4agofxfdgat16h40,1nOVwveS,2020-0188,2020-05-21,14:08:26,14:26:37,NA,incomplete,54,color,1,right,Green_Circle_Grid_2.jpg,Red_Star_Dots_2.jpg,Green_Triangle_Stripes_4.jpg,right,897.7200000081211,true,low,false
1nOVwveS,3j6bhnx0vc5zv8hudcso2u6bq3dnka,352ythgrozqouu4agofxfdgat16h40,1nOVwveS,2020-0188,2020-05-21,14:08:26,14:26:37,NA,incomplete,55,color,0,left,Purple_Circle_Dots_2.jpg,Purple_Triangle_Chess_4.jpg,Red_Plus_Grid_2.jpg,left,798.9399999933084,true,low,false
1nOVwveS,3j6bhnx0vc5zv8hudcso2u6bq3dnka,352ythgrozqouu4agofxfdgat16h40,1nOVwveS,2020-0188,2020-05-21,14:08:26,14:26:37,NA,incomplete,56,color,1,left,Red_Circle_Chess_3.jpg,Red_Star_Grid_4.jpg,Purple_Plus_Stripes_3.jpg,right,607.2450000065146,false,low,false
1nOVwveS,3j6bhnx0vc5zv8hudcso2u6bq3dnka,352ythgrozqouu4agofxfdgat16h40,1nOVwveS,2020-0188,2020-05-21,14:08:26,14:26:37,NA,incomplete,57,color,1,left,Green_Triangle_Chess_4.jpg,Green_Star_Stripes_1.jpg,Red_Plus_Dots_4.jpg,left,629.4949999864912,true,low,false
1nOVwveS,3j6bhnx0vc5zv8hudcso2u6bq3dnka,352ythgrozqouu4agofxfdgat16h40,1nOVwveS,2020-0188,2020-05-21,14:08:26,14:26:37,NA,incomplete,58,color,1,right,Red_Plus_Stripes_4.jpg,Green_Star_Grid_4.jpg,Red_Circle_Chess_3.jpg,left,726.5500000066822,false,low,false
1nOVwveS,3j6bhnx0vc5zv8hudcso2u6bq3dnka,352ythgrozqouu4agofxfdgat16h40,1nOVwveS,2020-0188,2020-05-21,14:08:26,14:26:37,NA,incomplete,59,color,0,right,Green_Plus_Chess_1.jpg,Blue_Circle_Stripes_1.jpg,Green_Star_Grid_3.jpg,right,645.2850000059698,true,low,false
1nOVwveS,3j6bhnx0vc5zv8hudcso2u6bq3dnka,352ythgrozqouu4agofxfdgat16h40,1nOVwveS,2020-0188,2020-05-21,14:08:26,14:26:37,NA,incomplete,60,number,1,left,Green_Circle_Grid_1.jpg,Purple_Star_Chess_1.jpg,Green_Triangle_Stripes_2.jpg,right,651.1000000027707,false,low,false
1nOVwveS,3j6bhnx0vc5zv8hudcso2u6bq3dnka,352ythgrozqouu4agofxfdgat16h40,1nOVwveS,2020-0188,2020-05-21,14:08:26,14:26:37,NA,incomplete,61,number,1,right,Red_Circle_Chess_2.jpg,Red_Plus_Dots_4.jpg,Blue_Triangle_Stripes_2.jpg,right,1175.424999993993,true,low,false
1nOVwveS,3j6bhnx0vc5zv8hudcso2u6bq3dnka,352ythgrozqouu4agofxfdgat16h40,1nOVwveS,2020-0188,2020-05-21,14:08:26,14:26:37,NA,incomplete,62,number,1,left,Blue_Star_Stripes_2.jpg,Green_Plus_Grid_2.jpg,Blue_Circle_Dots_3.jpg,left,1059.5250000042142,true,low,false
1nOVwveS,3j6bhnx0vc5zv8hudcso2u6bq3dnka,352ythgrozqouu4agofxfdgat16h40,1nOVwveS,2020-0188,2020-05-21,14:08:26,14:26:37,NA,incomplete,63,number,1,right,Purple_Circle_Grid_2.jpg,Purple_Triangle_Stripes_1.jpg,Green_Plus_Dots_2.jpg,right,703.045000002021,true,low,false
1nOVwveS,3j6bhnx0vc5zv8hudcso2u6bq3dnka,352ythgrozqouu4agofxfdgat16h40,1nOVwveS,2020-0188,2020-05-21,14:08:26,14:26:37,NA,incomplete,64,number,0,left,Purple_Triangle_Chess_3.jpg,Blue_Circle_Grid_3.jpg,Purple_Plus_Dots_4.jpg,left,933.3550000010291,true,low,false
1nOVwveS,3j6bhnx0vc5zv8hudcso2u6bq3dnka,352ythgrozqouu4agofxfdgat16h40,1nOVwveS,2020-0188,2020-05-21,14:08:26,14:26:37,NA,incomplete,65,number,1,left,Blue_Plus_Grid_3.jpg,Red_Star_Dots_3.jpg,Blue_Triangle_Chess_4.jpg,right,710.6700000003912,false,low,false
1nOVwveS,3j6bhnx0vc5zv8hudcso2u6bq3dnka,352ythgrozqouu4agofxfdgat16h40,1nOVwveS,2020-0188,2020-05-21,14:08:26,14:26:37,NA,incomplete,66,number,1,left,Blue_Circle_Stripes_1.jpg,Purple_Triangle_Chess_1.jpg,Blue_Star_Grid_2.jpg,left,975.0250000070082,true,low,false
1nOVwveS,3j6bhnx0vc5zv8hudcso2u6bq3dnka,352ythgrozqouu4agofxfdgat16h40,1nOVwveS,2020-0188,2020-05-21,14:08:26,14:26:37,NA,incomplete,67,number,1,right,Green_Plus_Stripes_1.jpg,Green_Circle_Grid_2.jpg,Blue_Star_Chess_1.jpg,left,872.1100000111619,false,low,false
1nOVwveS,3j6bhnx0vc5zv8hudcso2u6bq3dnka,352ythgrozqouu4agofxfdgat16h40,1nOVwveS,2020-0188,2020-05-21,14:08:26,14:26:37,NA,incomplete,68,number,1,left,Blue_Circle_Grid_3.jpg,Green_Plus_Dots_3.jpg,Blue_Star_Chess_2.jpg,none,0,false,low,false
1nOVwveS,3j6bhnx0vc5zv8hudcso2u6bq3dnka,352ythgrozqouu4agofxfdgat16h40,1nOVwveS,2020-0188,2020-05-21,14:08:26,14:26:37,NA,incomplete,69,number,1,left,Purple_Star_Stripes_4.jpg,Green_Plus_Dots_4.jpg,Purple_Circle_Chess_2.jpg,left,743.7800000043353,true,low,false
1nOVwveS,3j6bhnx0vc5zv8hudcso2u6bq3dnka,352ythgrozqouu4agofxfdgat16h40,1nOVwveS,2020-0188,2020-05-21,14:08:26,14:26:37,NA,incomplete,70,number,0,left,Blue_Triangle_Dots_1.jpg,Purple_Star_Chess_1.jpg,Blue_Plus_Stripes_4.jpg,left,787.1650000015507,true,low,false
1nOVwveS,3j6bhnx0vc5zv8hudcso2u6bq3dnka,352ythgrozqouu4agofxfdgat16h40,1nOVwveS,2020-0188,2020-05-21,14:08:26,14:26:37,NA,incomplete,71,number,1,left,Red_Star_Grid_4.jpg,Purple_Triangle_Chess_4.jpg,Red_Circle_Dots_3.jpg,right,629.0399999998044,false,low,false
1nOVwveS,3j6bhnx0vc5zv8hudcso2u6bq3dnka,352ythgrozqouu4agofxfdgat16h40,1nOVwveS,2020-0188,2020-05-21,14:08:26,14:26:37,NA,incomplete,72,number,1,left,Blue_Plus_Dots_2.jpg,Red_Circle_Stripes_2.jpg,Blue_Triangle_Grid_1.jpg,left,728.1999999977415,true,low,false
1nOVwveS,3j6bhnx0vc5zv8hudcso2u6bq3dnka,352ythgrozqouu4agofxfdgat16h40,1nOVwveS,2020-0188,2020-05-21,14:08:26,14:26:37,NA,incomplete,73,number,0,right,Red_Triangle_Chess_2.jpg,Red_Plus_Grid_1.jpg,Blue_Circle_Dots_2.jpg,left,711.3049999898067,false,low,false
1nOVwveS,3j6bhnx0vc5zv8hudcso2u6bq3dnka,352ythgrozqouu4agofxfdgat16h40,1nOVwveS,2020-0188,2020-05-21,14:08:26,14:26:37,NA,incomplete,74,number,0,right,Purple_Star_Chess_1.jpg,Purple_Triangle_Grid_2.jpg,Green_Plus_Stripes_1.jpg,left,642.8500000038184,false,low,false
1nOVwveS,3j6bhnx0vc5zv8hudcso2u6bq3dnka,352ythgrozqouu4agofxfdgat16h40,1nOVwveS,2020-0188,2020-05-21,14:08:26,14:26:37,NA,incomplete,75,number,1,right,Red_Circle_Stripes_1.jpg,Red_Plus_Chess_2.jpg,Blue_Star_Grid_1.jpg,left,583.5950000036974,false,low,false
1nOVwveS,3j6bhnx0vc5zv8hudcso2u6bq3dnka,352ythgrozqouu4agofxfdgat16h40,1nOVwveS,2020-0188,2020-05-21,14:08:26,14:26:37,NA,incomplete,76,number,0,right,Green_Plus_Stripes_3.jpg,Green_Star_Grid_2.jpg,Red_Circle_Chess_3.jpg,left,864.5749999996042,false,low,false
1nOVwveS,3j6bhnx0vc5zv8hudcso2u6bq3dnka,352ythgrozqouu4agofxfdgat16h40,1nOVwveS,2020-0188,2020-05-21,14:08:26,14:26:37,NA,incomplete,77,number,1,right,Red_Triangle_Chess_3.jpg,Red_Star_Dots_4.jpg,Purple_Circle_Stripes_3.jpg,left,687.7600000007078,false,low,false
1nOVwveS,3j6bhnx0vc5zv8hudcso2u6bq3dnka,352ythgrozqouu4agofxfdgat16h40,1nOVwveS,2020-0188,2020-05-21,14:08:26,14:26:37,NA,incomplete,78,number,1,right,Red_Triangle_Chess_2.jpg,Red_Circle_Grid_1.jpg,Blue_Plus_Dots_2.jpg,left,524.4999999995343,false,low,false
1nOVwveS,3j6bhnx0vc5zv8hudcso2u6bq3dnka,352ythgrozqouu4agofxfdgat16h40,1nOVwveS,2020-0188,2020-05-21,14:08:26,14:26:37,NA,incomplete,79,number,1,right,Red_Triangle_Stripes_1.jpg,Red_Star_Chess_4.jpg,Purple_Plus_Dots_1.jpg,right,905.9100000013132,true,low,false
1nOVwveS,3j6bhnx0vc5zv8hudcso2u6bq3dnka,352ythgrozqouu4agofxfdgat16h40,1nOVwveS,2020-0188,2020-05-21,14:08:26,14:26:37,NA,incomplete,80,number,1,right,Green_Circle_Grid_2.jpg,Green_Triangle_Dots_3.jpg,Purple_Plus_Chess_2.jpg,right,812.1299999911571,true,low,false
1nOVwveS,3j6bhnx0vc5zv8hudcso2u6bq3dnka,352ythgrozqouu4agofxfdgat16h40,1nOVwveS,2020-0188,2020-05-21,14:08:26,14:26:37,NA,incomplete,81,number,0,left,Green_Star_Dots_2.jpg,Red_Circle_Chess_2.jpg,Green_Plus_Stripes_4.jpg,right,758.3849999937229,false,low,false
1nOVwveS,3j6bhnx0vc5zv8hudcso2u6bq3dnka,352ythgrozqouu4agofxfdgat16h40,1nOVwveS,2020-0188,2020-05-21,14:08:26,14:26:37,NA,incomplete,82,number,1,right,Green_Star_Chess_1.jpg,Green_Circle_Stripes_2.jpg,Blue_Plus_Grid_1.jpg,left,802.1399999997811,false,low,false
1nOVwveS,3j6bhnx0vc5zv8hudcso2u6bq3dnka,352ythgrozqouu4agofxfdgat16h40,1nOVwveS,2020-0188,2020-05-21,14:08:26,14:26:37,NA,incomplete,83,number,1,right,Red_Plus_Dots_2.jpg,Red_Circle_Chess_4.jpg,Green_Triangle_Stripes_2.jpg,left,573.0600000097184,false,low,false
1nOVwveS,3j6bhnx0vc5zv8hudcso2u6bq3dnka,352ythgrozqouu4agofxfdgat16h40,1nOVwveS,2020-0188,2020-05-21,14:08:26,14:26:37,NA,incomplete,84,number,1,left,Green_Plus_Chess_4.jpg,Purple_Triangle_Grid_4.jpg,Green_Star_Stripes_3.jpg,right,667.1499999938533,false,low,false
1nOVwveS,3j6bhnx0vc5zv8hudcso2u6bq3dnka,352ythgrozqouu4agofxfdgat16h40,1nOVwveS,2020-0188,2020-05-21,14:08:26,14:26:37,NA,incomplete,85,number,1,right,Purple_Circle_Grid_3.jpg,Purple_Star_Stripes_1.jpg,Green_Triangle_Dots_3.jpg,right,715.0099999998929,true,low,false
1nOVwveS,3j6bhnx0vc5zv8hudcso2u6bq3dnka,352ythgrozqouu4agofxfdgat16h40,1nOVwveS,2020-0188,2020-05-21,14:08:26,14:26:37,NA,incomplete,86,number,1,left,Green_Triangle_Chess_1.jpg,Blue_Star_Grid_1.jpg,Green_Circle_Stripes_2.jpg,left,830.2399999956833,true,low,false
1nOVwveS,3j6bhnx0vc5zv8hudcso2u6bq3dnka,352ythgrozqouu4agofxfdgat16h40,1nOVwveS,2020-0188,2020-05-21,14:08:26,14:26:37,NA,incomplete,87,number,0,left,Purple_Circle_Grid_1.jpg,Blue_Triangle_Stripes_1.jpg,Purple_Plus_Dots_3.jpg,left,872.5649999978486,true,low,false
1nOVwveS,3j6bhnx0vc5zv8hudcso2u6bq3dnka,352ythgrozqouu4agofxfdgat16h40,1nOVwveS,2020-0188,2020-05-21,14:08:26,14:26:37,NA,incomplete,88,number,1,left,Red_Triangle_Stripes_1.jpg,Green_Circle_Chess_1.jpg,Red_Plus_Dots_2.jpg,left,830.8800000086194,true,low,false
1nOVwveS,3j6bhnx0vc5zv8hudcso2u6bq3dnka,352ythgrozqouu4agofxfdgat16h40,1nOVwveS,2020-0188,2020-05-21,14:08:26,14:26:37,NA,incomplete,89,number,1,right,Purple_Triangle_Dots_1.jpg,Purple_Plus_Chess_2.jpg,Green_Star_Stripes_1.jpg,right,799.3149999965681,true,low,false
1nOVwveS,3j6bhnx0vc5zv8hudcso2u6bq3dnka,352ythgrozqouu4agofxfdgat16h40,1nOVwveS,2020-0188,2020-05-21,14:08:26,14:26:37,NA,incomplete,90,color,1,left,Green_Circle_Grid_4.jpg,Green_Plus_Chess_3.jpg,Purple_Star_Dots_4.jpg,right,871.1849999963306,false,low,false
1nOVwveS,3j6bhnx0vc5zv8hudcso2u6bq3dnka,352ythgrozqouu4agofxfdgat16h40,1nOVwveS,2020-0188,2020-05-21,14:08:26,14:26:37,NA,incomplete,91,color,0,right,Green_Circle_Chess_4.jpg,Blue_Plus_Stripes_4.jpg,Green_Triangle_Dots_2.jpg,right,1112.1550000098068,true,low,false
1nOVwveS,3j6bhnx0vc5zv8hudcso2u6bq3dnka,352ythgrozqouu4agofxfdgat16h40,1nOVwveS,2020-0188,2020-05-21,14:08:26,14:26:37,NA,incomplete,92,color,1,left,Red_Star_Dots_4.jpg,Red_Circle_Stripes_3.jpg,Green_Triangle_Chess_4.jpg,right,693.6799999966752,false,low,false
1nOVwveS,3j6bhnx0vc5zv8hudcso2u6bq3dnka,352ythgrozqouu4agofxfdgat16h40,1nOVwveS,2020-0188,2020-05-21,14:08:26,14:26:37,NA,incomplete,93,color,1,right,Blue_Plus_Stripes_3.jpg,Green_Triangle_Grid_3.jpg,Blue_Star_Dots_4.jpg,right,1022.0100000005914,true,low,false
1nOVwveS,3j6bhnx0vc5zv8hudcso2u6bq3dnka,352ythgrozqouu4agofxfdgat16h40,1nOVwveS,2020-0188,2020-05-21,14:08:26,14:26:37,NA,incomplete,94,color,1,left,Blue_Circle_Stripes_1.jpg,Blue_Plus_Dots_2.jpg,Green_Triangle_Chess_1.jpg,left,787.6200000027893,true,low,false
1nOVwveS,3j6bhnx0vc5zv8hudcso2u6bq3dnka,352ythgrozqouu4agofxfdgat16h40,1nOVwveS,2020-0188,2020-05-21,14:08:26,14:26:37,NA,incomplete,95,color,1,right,Red_Star_Grid_3.jpg,Blue_Triangle_Stripes_3.jpg,Red_Plus_Dots_4.jpg,left,1024.7050000034506,false,low,false
1nOVwveS,3j6bhnx0vc5zv8hudcso2u6bq3dnka,352ythgrozqouu4agofxfdgat16h40,1nOVwveS,2020-0188,2020-05-21,14:08:26,14:26:37,NA,incomplete,96,color,1,right,Red_Star_Dots_3.jpg,Green_Triangle_Stripes_3.jpg,Red_Plus_Chess_4.jpg,left,955.7999999960884,false,low,false
1nOVwveS,3j6bhnx0vc5zv8hudcso2u6bq3dnka,352ythgrozqouu4agofxfdgat16h40,1nOVwveS,2020-0188,2020-05-21,14:08:26,14:26:37,NA,incomplete,97,color,1,left,Blue_Star_Chess_2.jpg,Blue_Plus_Grid_3.jpg,Red_Circle_Stripes_2.jpg,right,1057.2899999970105,false,low,false
1nOVwveS,3j6bhnx0vc5zv8hudcso2u6bq3dnka,352ythgrozqouu4agofxfdgat16h40,1nOVwveS,2020-0188,2020-05-21,14:08:26,14:26:37,NA,incomplete,98,color,1,left,Purple_Triangle_Grid_1.jpg,Purple_Circle_Dots_4.jpg,Red_Star_Chess_1.jpg,right,890.0200000061886,false,low,false
1nOVwveS,3j6bhnx0vc5zv8hudcso2u6bq3dnka,352ythgrozqouu4agofxfdgat16h40,1nOVwveS,2020-0188,2020-05-21,14:08:26,14:26:37,NA,incomplete,99,color,1,right,Blue_Plus_Grid_3.jpg,Red_Circle_Stripes_3.jpg,Blue_Star_Dots_4.jpg,right,748.2749999908265,true,low,false
1nOVwveS,3j6bhnx0vc5zv8hudcso2u6bq3dnka,352ythgrozqouu4agofxfdgat16h40,1nOVwveS,2020-0188,2020-05-21,14:08:26,14:26:37,NA,incomplete,100,color,1,left,Purple_Triangle_Grid_2.jpg,Purple_Plus_Dots_1.jpg,Red_Star_Stripes_2.jpg,right,795.5500000098255,false,low,false
1nOVwveS,3j6bhnx0vc5zv8hudcso2u6bq3dnka,352ythgrozqouu4agofxfdgat16h40,1nOVwveS,2020-0188,2020-05-21,14:08:26,14:26:37,NA,incomplete,101,color,0,right,Purple_Circle_Stripes_2.jpg,Blue_Plus_Grid_2.jpg,Purple_Triangle_Chess_3.jpg,right,883.0849999940256,true,low,false
1nOVwveS,3j6bhnx0vc5zv8hudcso2u6bq3dnka,352ythgrozqouu4agofxfdgat16h40,1nOVwveS,2020-0188,2020-05-21,14:08:26,14:26:37,NA,incomplete,102,color,1,right,Green_Circle_Chess_1.jpg,Purple_Star_Dots_1.jpg,Green_Triangle_Grid_4.jpg,right,684.8750000062864,true,low,false
1nOVwveS,3j6bhnx0vc5zv8hudcso2u6bq3dnka,352ythgrozqouu4agofxfdgat16h40,1nOVwveS,2020-0188,2020-05-21,14:08:26,14:26:37,NA,incomplete,103,color,1,left,Green_Circle_Dots_4.jpg,Green_Star_Grid_2.jpg,Red_Plus_Chess_4.jpg,right,1141.0650000034366,false,low,false
1nOVwveS,3j6bhnx0vc5zv8hudcso2u6bq3dnka,352ythgrozqouu4agofxfdgat16h40,1nOVwveS,2020-0188,2020-05-21,14:08:26,14:26:37,NA,incomplete,104,color,1,left,Red_Plus_Grid_4.jpg,Red_Triangle_Chess_1.jpg,Purple_Circle_Stripes_4.jpg,left,1078.0749999976251,true,low,false
1nOVwveS,3j6bhnx0vc5zv8hudcso2u6bq3dnka,352ythgrozqouu4agofxfdgat16h40,1nOVwveS,2020-0188,2020-05-21,14:08:26,14:26:37,NA,incomplete,105,color,1,right,Purple_Plus_Grid_1.jpg,Green_Triangle_Chess_1.jpg,Purple_Circle_Stripes_4.jpg,left,836.7300000099931,false,low,false
1nOVwveS,3j6bhnx0vc5zv8hudcso2u6bq3dnka,352ythgrozqouu4agofxfdgat16h40,1nOVwveS,2020-0188,2020-05-21,14:08:26,14:26:37,NA,incomplete,106,color,1,right,Blue_Star_Dots_2.jpg,Green_Circle_Stripes_2.jpg,Blue_Triangle_Chess_3.jpg,right,563.3850000012899,true,low,false
1nOVwveS,3j6bhnx0vc5zv8hudcso2u6bq3dnka,352ythgrozqouu4agofxfdgat16h40,1nOVwveS,2020-0188,2020-05-21,14:08:26,14:26:37,NA,incomplete,107,color,1,right,Red_Plus_Stripes_2.jpg,Green_Star_Grid_2.jpg,Red_Circle_Chess_4.jpg,right,616.7049999930896,true,low,false
1nOVwveS,3j6bhnx0vc5zv8hudcso2u6bq3dnka,352ythgrozqouu4agofxfdgat16h40,1nOVwveS,2020-0188,2020-05-21,14:08:26,14:26:37,NA,incomplete,108,color,0,right,Blue_Star_Chess_1.jpg,Purple_Triangle_Stripes_1.jpg,Blue_Circle_Grid_2.jpg,right,801.9199999980628,true,low,false
1nOVwveS,3j6bhnx0vc5zv8hudcso2u6bq3dnka,352ythgrozqouu4agofxfdgat16h40,1nOVwveS,2020-0188,2020-05-21,14:08:26,14:26:37,NA,incomplete,109,color,0,left,Purple_Circle_Grid_4.jpg,Purple_Triangle_Dots_2.jpg,Blue_Plus_Chess_4.jpg,right,870.905000003404,false,low,false
1nOVwveS,3j6bhnx0vc5zv8hudcso2u6bq3dnka,352ythgrozqouu4agofxfdgat16h40,1nOVwveS,2020-0188,2020-05-21,14:08:26,14:26:37,NA,incomplete,110,color,1,left,Red_Plus_Stripes_1.jpg,Red_Triangle_Dots_2.jpg,Purple_Star_Grid_1.jpg,left,841.229999990901,true,low,false
1nOVwveS,3j6bhnx0vc5zv8hudcso2u6bq3dnka,352ythgrozqouu4agofxfdgat16h40,1nOVwveS,2020-0188,2020-05-21,14:08:26,14:26:37,NA,incomplete,111,color,1,left,Green_Star_Dots_1.jpg,Green_Circle_Chess_2.jpg,Purple_Triangle_Grid_1.jpg,left,713.194999989355,true,low,false
1nOVwveS,3j6bhnx0vc5zv8hudcso2u6bq3dnka,352ythgrozqouu4agofxfdgat16h40,1nOVwveS,2020-0188,2020-05-21,14:08:26,14:26:37,NA,incomplete,112,color,1,right,Green_Triangle_Dots_1.jpg,Purple_Star_Stripes_1.jpg,Green_Circle_Grid_2.jpg,right,657.5049999955809,true,low,false
1nOVwveS,3j6bhnx0vc5zv8hudcso2u6bq3dnka,352ythgrozqouu4agofxfdgat16h40,1nOVwveS,2020-0188,2020-05-21,14:08:26,14:26:37,NA,incomplete,113,color,1,right,Green_Triangle_Stripes_1.jpg,Red_Plus_Dots_1.jpg,Green_Circle_Chess_2.jpg,right,675.5149999953574,true,low,false
1nOVwveS,3j6bhnx0vc5zv8hudcso2u6bq3dnka,352ythgrozqouu4agofxfdgat16h40,1nOVwveS,2020-0188,2020-05-21,14:08:26,14:26:37,NA,incomplete,114,color,1,left,Green_Circle_Chess_3.jpg,Green_Plus_Dots_1.jpg,Purple_Star_Stripes_3.jpg,right,973.4900000039488,false,low,false
1nOVwveS,3j6bhnx0vc5zv8hudcso2u6bq3dnka,352ythgrozqouu4agofxfdgat16h40,1nOVwveS,2020-0188,2020-05-21,14:08:26,14:26:37,NA,incomplete,115,color,1,right,Blue_Star_Dots_2.jpg,Red_Triangle_Chess_2.jpg,Blue_Circle_Grid_1.jpg,right,1034.8399999929825,true,low,false
1nOVwveS,3j6bhnx0vc5zv8hudcso2u6bq3dnka,352ythgrozqouu4agofxfdgat16h40,1nOVwveS,2020-0188,2020-05-21,14:08:26,14:26:37,NA,incomplete,116,color,1,left,Green_Triangle_Chess_2.jpg,Green_Circle_Dots_1.jpg,Purple_Plus_Stripes_2.jpg,right,755.3699999989476,false,low,false
1nOVwveS,3j6bhnx0vc5zv8hudcso2u6bq3dnka,352ythgrozqouu4agofxfdgat16h40,1nOVwveS,2020-0188,2020-05-21,14:08:26,14:26:37,NA,incomplete,117,color,1,right,Green_Star_Stripes_3.jpg,Red_Triangle_Dots_3.jpg,Green_Plus_Grid_1.jpg,right,577.5399999984074,true,low,false
1nOVwveS,3j6bhnx0vc5zv8hudcso2u6bq3dnka,352ythgrozqouu4agofxfdgat16h40,1nOVwveS,2020-0188,2020-05-21,14:08:26,14:26:37,NA,incomplete,118,color,1,right,Green_Plus_Stripes_3.jpg,Blue_Star_Chess_3.jpg,Green_Circle_Grid_2.jpg,right,597.3749999975553,true,low,false
1nOVwveS,3j6bhnx0vc5zv8hudcso2u6bq3dnka,352ythgrozqouu4agofxfdgat16h40,1nOVwveS,2020-0188,2020-05-21,14:08:26,14:26:37,NA,incomplete,119,color,0,right,Red_Circle_Chess_3.jpg,Green_Plus_Grid_3.jpg,Red_Star_Stripes_2.jpg,right,649.4200000015553,true,low,false
1nOVwveS,3j6bhnx0vc5zv8hudcso2u6bq3dnka,352ythgrozqouu4agofxfdgat16h40,1nOVwveS,2020-0188,2020-05-21,14:08:26,14:26:37,NA,incomplete,120,shape,0,right,Green_Triangle_Stripes_2.jpg,Red_Star_Stripes_4.jpg,Purple_Triangle_Dots_1.jpg,NA,NA,NA,low,false
1nOVwveS,3j6bhnx0vc5zv8hudcso2u6bq3dnka,352ythgrozqouu4agofxfdgat16h40,1nOVwveS,2020-0188,2020-05-21,14:08:26,14:26:37,NA,incomplete,121,shape,1,right,Blue_Plus_Dots_2.jpg,Purple_Circle_Dots_3.jpg,Red_Plus_Chess_4.jpg,right,1266.459999998915,true,low,false
1nOVwveS,3j6bhnx0vc5zv8hudcso2u6bq3dnka,352ythgrozqouu4agofxfdgat16h40,1nOVwveS,2020-0188,2020-05-21,14:08:26,14:26:37,NA,incomplete,122,shape,1,left,Red_Plus_Dots_1.jpg,Purple_Plus_Stripes_4.jpg,Green_Star_Dots_3.jpg,left,1154.7799999971176,true,low,false
1nOVwveS,3j6bhnx0vc5zv8hudcso2u6bq3dnka,352ythgrozqouu4agofxfdgat16h40,1nOVwveS,2020-0188,2020-05-21,14:08:26,14:26:37,NA,incomplete,123,shape,0,right,Purple_Star_Grid_1.jpg,Blue_Circle_Grid_3.jpg,Red_Star_Dots_4.jpg,left,1179.3349999934435,false,low,false
1nOVwveS,3j6bhnx0vc5zv8hudcso2u6bq3dnka,352ythgrozqouu4agofxfdgat16h40,1nOVwveS,2020-0188,2020-05-21,14:08:26,14:26:37,NA,incomplete,124,shape,1,left,Red_Plus_Grid_3.jpg,Purple_Plus_Dots_2.jpg,Blue_Star_Grid_4.jpg,right,1274.1649999952642,false,low,false
1nOVwveS,3j6bhnx0vc5zv8hudcso2u6bq3dnka,352ythgrozqouu4agofxfdgat16h40,1nOVwveS,2020-0188,2020-05-21,14:08:26,14:26:37,NA,incomplete,125,shape,0,left,Green_Star_Dots_3.jpg,Purple_Star_Grid_2.jpg,Blue_Triangle_Dots_1.jpg,left,1293.8350000040373,true,low,false
1nOVwveS,3j6bhnx0vc5zv8hudcso2u6bq3dnka,352ythgrozqouu4agofxfdgat16h40,1nOVwveS,2020-0188,2020-05-21,14:08:26,14:26:37,NA,incomplete,126,shape,1,left,Purple_Triangle_Dots_4.jpg,Blue_Triangle_Grid_3.jpg,Red_Circle_Dots_2.jpg,left,905.1899999903981,true,low,false
1nOVwveS,3j6bhnx0vc5zv8hudcso2u6bq3dnka,352ythgrozqouu4agofxfdgat16h40,1nOVwveS,2020-0188,2020-05-21,14:08:26,14:26:37,NA,incomplete,127,shape,1,left,Purple_Star_Dots_4.jpg,Red_Star_Stripes_3.jpg,Blue_Circle_Dots_1.jpg,left,756.4600000041537,true,low,false
1nOVwveS,3j6bhnx0vc5zv8hudcso2u6bq3dnka,352ythgrozqouu4agofxfdgat16h40,1nOVwveS,2020-0188,2020-05-21,14:08:26,14:26:37,NA,incomplete,128,shape,1,left,Purple_Triangle_Dots_4.jpg,Red_Triangle_Grid_3.jpg,Blue_Star_Dots_1.jpg,right,1619.38000000373,false,low,false
1nOVwveS,3j6bhnx0vc5zv8hudcso2u6bq3dnka,352ythgrozqouu4agofxfdgat16h40,1nOVwveS,2020-0188,2020-05-21,14:08:26,14:26:37,NA,incomplete,129,shape,1,left,Green_Plus_Grid_3.jpg,Red_Plus_Chess_4.jpg,Blue_Circle_Grid_2.jpg,left,699.1699999925913,true,low,false
1nOVwveS,3j6bhnx0vc5zv8hudcso2u6bq3dnka,352ythgrozqouu4agofxfdgat16h40,1nOVwveS,2020-0188,2020-05-21,14:08:26,14:26:37,NA,incomplete,130,shape,0,right,Green_Plus_Dots_4.jpg,Blue_Triangle_Dots_1.jpg,Red_Plus_Stripes_2.jpg,left,1289.9099999922328,false,low,false
1nOVwveS,3j6bhnx0vc5zv8hudcso2u6bq3dnka,352ythgrozqouu4agofxfdgat16h40,1nOVwveS,2020-0188,2020-05-21,14:08:26,14:26:37,NA,incomplete,131,shape,1,left,Purple_Triangle_Stripes_4.jpg,Green_Triangle_Dots_1.jpg,Red_Plus_Stripes_3.jpg,right,1119.4899999973131,false,low,false
1nOVwveS,3j6bhnx0vc5zv8hudcso2u6bq3dnka,352ythgrozqouu4agofxfdgat16h40,1nOVwveS,2020-0188,2020-05-21,14:08:26,14:26:37,NA,incomplete,132,shape,1,right,Purple_Triangle_Grid_1.jpg,Red_Star_Grid_4.jpg,Green_Triangle_Stripes_3.jpg,right,1080.180000004475,true,low,false
1nOVwveS,3j6bhnx0vc5zv8hudcso2u6bq3dnka,352ythgrozqouu4agofxfdgat16h40,1nOVwveS,2020-0188,2020-05-21,14:08:26,14:26:37,NA,incomplete,133,shape,1,left,Red_Circle_Grid_2.jpg,Blue_Circle_Stripes_3.jpg,Purple_Plus_Grid_1.jpg,right,890.5099999974482,false,low,false
1nOVwveS,3j6bhnx0vc5zv8hudcso2u6bq3dnka,352ythgrozqouu4agofxfdgat16h40,1nOVwveS,2020-0188,2020-05-21,14:08:26,14:26:37,NA,incomplete,134,shape,1,right,Green_Circle_Chess_2.jpg,Red_Triangle_Chess_3.jpg,Purple_Circle_Grid_4.jpg,left,1076.2549999926705,false,low,false
1nOVwveS,3j6bhnx0vc5zv8hudcso2u6bq3dnka,352ythgrozqouu4agofxfdgat16h40,1nOVwveS,2020-0188,2020-05-21,14:08:26,14:26:37,NA,incomplete,135,shape,1,right,Purple_Plus_Chess_2.jpg,Blue_Circle_Chess_4.jpg,Red_Plus_Grid_1.jpg,left,764.7949999955017,false,low,false
1nOVwveS,3j6bhnx0vc5zv8hudcso2u6bq3dnka,352ythgrozqouu4agofxfdgat16h40,1nOVwveS,2020-0188,2020-05-21,14:08:26,14:26:37,NA,incomplete,136,shape,1,right,Purple_Triangle_Stripes_3.jpg,Blue_Plus_Stripes_2.jpg,Green_Triangle_Dots_1.jpg,left,739.1050000005635,false,low,false
1nOVwveS,3j6bhnx0vc5zv8hudcso2u6bq3dnka,352ythgrozqouu4agofxfdgat16h40,1nOVwveS,2020-0188,2020-05-21,14:08:26,14:26:37,NA,incomplete,137,shape,0,left,Purple_Star_Stripes_4.jpg,Green_Star_Chess_1.jpg,Blue_Circle_Stripes_2.jpg,right,768.0649999965681,false,low,false
1nOVwveS,3j6bhnx0vc5zv8hudcso2u6bq3dnka,352ythgrozqouu4agofxfdgat16h40,1nOVwveS,2020-0188,2020-05-21,14:08:26,14:26:37,NA,incomplete,138,shape,1,right,Green_Star_Grid_2.jpg,Red_Plus_Grid_3.jpg,Purple_Star_Dots_4.jpg,right,1352.4099999922328,true,low,false
1nOVwveS,3j6bhnx0vc5zv8hudcso2u6bq3dnka,352ythgrozqouu4agofxfdgat16h40,1nOVwveS,2020-0188,2020-05-21,14:08:26,14:26:37,NA,incomplete,139,shape,1,left,Red_Triangle_Dots_3.jpg,Blue_Triangle_Stripes_2.jpg,Green_Star_Dots_1.jpg,right,854.81499999878,false,low,false
1nOVwveS,3j6bhnx0vc5zv8hudcso2u6bq3dnka,352ythgrozqouu4agofxfdgat16h40,1nOVwveS,2020-0188,2020-05-21,14:08:26,14:26:37,NA,incomplete,140,filling,0,left,Red_Circle_Stripes_1.jpg,Purple_Triangle_Stripes_3.jpg,Blue_Circle_Grid_2.jpg,right,495.4050000087591,false,low,false
1nOVwveS,3j6bhnx0vc5zv8hudcso2u6bq3dnka,352ythgrozqouu4agofxfdgat16h40,1nOVwveS,2020-0188,2020-05-21,14:08:26,14:26:37,NA,incomplete,141,filling,1,right,Purple_Plus_Chess_2.jpg,Red_Plus_Dots_4.jpg,Green_Circle_Chess_1.jpg,right,496.5749999973923,true,low,false
1nOVwveS,3j6bhnx0vc5zv8hudcso2u6bq3dnka,352ythgrozqouu4agofxfdgat16h40,1nOVwveS,2020-0188,2020-05-21,14:08:26,14:26:37,NA,incomplete,142,filling,0,left,Blue_Circle_Grid_2.jpg,Green_Plus_Grid_4.jpg,Purple_Circle_Stripes_3.jpg,right,648.9650000003166,false,low,false
1nOVwveS,3j6bhnx0vc5zv8hudcso2u6bq3dnka,352ythgrozqouu4agofxfdgat16h40,1nOVwveS,2020-0188,2020-05-21,14:08:26,14:26:37,NA,incomplete,143,filling,1,right,Red_Circle_Dots_3.jpg,Purple_Circle_Chess_1.jpg,Blue_Triangle_Dots_2.jpg,right,778.9500000071712,true,low,false
1nOVwveS,3j6bhnx0vc5zv8hudcso2u6bq3dnka,352ythgrozqouu4agofxfdgat16h40,1nOVwveS,2020-0188,2020-05-21,14:08:26,14:26:37,NA,incomplete,144,filling,1,right,Green_Triangle_Grid_1.jpg,Purple_Triangle_Dots_2.jpg,Blue_Circle_Grid_4.jpg,right,543.7299999903189,true,low,false
1nOVwveS,3j6bhnx0vc5zv8hudcso2u6bq3dnka,352ythgrozqouu4agofxfdgat16h40,1nOVwveS,2020-0188,2020-05-21,14:08:26,14:26:37,NA,incomplete,145,filling,1,left,Green_Star_Grid_1.jpg,Blue_Triangle_Grid_2.jpg,Red_Star_Dots_4.jpg,right,651.8950000026962,false,low,false
1nOVwveS,3j6bhnx0vc5zv8hudcso2u6bq3dnka,352ythgrozqouu4agofxfdgat16h40,1nOVwveS,2020-0188,2020-05-21,14:08:26,14:26:37,NA,incomplete,146,filling,1,left,Red_Plus_Dots_1.jpg,Blue_Circle_Dots_2.jpg,Green_Plus_Chess_3.jpg,right,551.6499999939697,false,low,false
1nOVwveS,3j6bhnx0vc5zv8hudcso2u6bq3dnka,352ythgrozqouu4agofxfdgat16h40,1nOVwveS,2020-0188,2020-05-21,14:08:26,14:26:37,NA,incomplete,147,filling,1,left,Red_Star_Stripes_1.jpg,Purple_Circle_Stripes_4.jpg,Blue_Star_Grid_2.jpg,left,610.1999999955297,true,low,false
1nOVwveS,3j6bhnx0vc5zv8hudcso2u6bq3dnka,352ythgrozqouu4agofxfdgat16h40,1nOVwveS,2020-0188,2020-05-21,14:08:26,14:26:37,NA,incomplete,148,filling,1,right,Red_Star_Grid_2.jpg,Purple_Star_Chess_1.jpg,Green_Triangle_Grid_4.jpg,left,701.5450000035344,false,low,false
1nOVwveS,3j6bhnx0vc5zv8hudcso2u6bq3dnka,352ythgrozqouu4agofxfdgat16h40,1nOVwveS,2020-0188,2020-05-21,14:08:26,14:26:37,NA,incomplete,149,filling,1,left,Green_Star_Grid_2.jpg,Blue_Triangle_Grid_4.jpg,Red_Star_Stripes_1.jpg,left,858.2000000023982,true,low,false
1nOVwveS,3j6bhnx0vc5zv8hudcso2u6bq3dnka,352ythgrozqouu4agofxfdgat16h40,1nOVwveS,2020-0188,2020-05-21,14:08:26,14:26:37,NA,incomplete,150,filling,1,left,Purple_Plus_Dots_3.jpg,Blue_Circle_Dots_1.jpg,Red_Plus_Stripes_4.jpg,right,649.1649999952642,false,low,false
1nOVwveS,3j6bhnx0vc5zv8hudcso2u6bq3dnka,352ythgrozqouu4agofxfdgat16h40,1nOVwveS,2020-0188,2020-05-21,14:08:26,14:26:37,NA,incomplete,151,filling,1,right,Blue_Circle_Chess_3.jpg,Red_Circle_Grid_1.jpg,Purple_Star_Chess_4.jpg,right,697.8850000014063,true,low,false
1nOVwveS,3j6bhnx0vc5zv8hudcso2u6bq3dnka,352ythgrozqouu4agofxfdgat16h40,1nOVwveS,2020-0188,2020-05-21,14:08:26,14:26:37,NA,incomplete,152,filling,1,left,Red_Circle_Grid_2.jpg,Purple_Triangle_Grid_3.jpg,Green_Circle_Stripes_4.jpg,left,731.3199999916833,true,low,false
1nOVwveS,3j6bhnx0vc5zv8hudcso2u6bq3dnka,352ythgrozqouu4agofxfdgat16h40,1nOVwveS,2020-0188,2020-05-21,14:08:26,14:26:37,NA,incomplete,153,filling,1,right,Red_Triangle_Dots_2.jpg,Green_Triangle_Chess_3.jpg,Purple_Circle_Dots_4.jpg,left,612.7850000048056,false,low,false
1nOVwveS,3j6bhnx0vc5zv8hudcso2u6bq3dnka,352ythgrozqouu4agofxfdgat16h40,1nOVwveS,2020-0188,2020-05-21,14:08:26,14:26:37,NA,incomplete,154,filling,1,left,Blue_Circle_Dots_1.jpg,Green_Star_Dots_2.jpg,Red_Circle_Grid_3.jpg,right,494.55000000307336,false,low,false
1nOVwveS,3j6bhnx0vc5zv8hudcso2u6bq3dnka,352ythgrozqouu4agofxfdgat16h40,1nOVwveS,2020-0188,2020-05-21,14:08:26,14:26:37,NA,incomplete,155,filling,1,right,Purple_Plus_Dots_3.jpg,Green_Plus_Grid_1.jpg,Red_Triangle_Dots_2.jpg,right,472.3450000019511,true,low,false
1nOVwveS,3j6bhnx0vc5zv8hudcso2u6bq3dnka,352ythgrozqouu4agofxfdgat16h40,1nOVwveS,2020-0188,2020-05-21,14:08:26,14:26:37,NA,incomplete,156,filling,1,left,Blue_Star_Grid_3.jpg,Red_Circle_Grid_1.jpg,Green_Star_Stripes_2.jpg,left,905.3049999929499,true,low,false
1nOVwveS,3j6bhnx0vc5zv8hudcso2u6bq3dnka,352ythgrozqouu4agofxfdgat16h40,1nOVwveS,2020-0188,2020-05-21,14:08:26,14:26:37,NA,incomplete,157,filling,1,left,Purple_Star_Stripes_1.jpg,Green_Circle_Stripes_4.jpg,Blue_Star_Grid_2.jpg,left,896.5549999993527,true,low,false
1nOVwveS,3j6bhnx0vc5zv8hudcso2u6bq3dnka,352ythgrozqouu4agofxfdgat16h40,1nOVwveS,2020-0188,2020-05-21,14:08:26,14:26:37,NA,incomplete,158,filling,1,left,Blue_Star_Stripes_4.jpg,Red_Triangle_Stripes_3.jpg,Purple_Star_Chess_1.jpg,right,910.264999998617,false,low,false
1nOVwveS,3j6bhnx0vc5zv8hudcso2u6bq3dnka,352ythgrozqouu4agofxfdgat16h40,1nOVwveS,2020-0188,2020-05-21,14:08:26,14:26:37,NA,incomplete,159,filling,1,right,Blue_Circle_Stripes_3.jpg,Purple_Circle_Chess_2.jpg,Green_Triangle_Stripes_1.jpg,left,704.394999993383,false,low,false
1nOVwveS,3j6bhnx0vc5zv8hudcso2u6bq3dnka,352ythgrozqouu4agofxfdgat16h40,1nOVwveS,2020-0188,2020-05-21,14:08:26,14:26:37,NA,incomplete,160,shape,1,left,Red_Triangle_Grid_3.jpg,Purple_Triangle_Dots_1.jpg,Green_Star_Grid_4.jpg,right,1067.5449999980628,false,low,false
1nOVwveS,3j6bhnx0vc5zv8hudcso2u6bq3dnka,352ythgrozqouu4agofxfdgat16h40,1nOVwveS,2020-0188,2020-05-21,14:08:26,14:26:37,NA,incomplete,161,shape,1,right,Purple_Circle_Dots_2.jpg,Red_Triangle_Dots_1.jpg,Green_Circle_Chess_3.jpg,right,981.4099999930477,true,low,false
1nOVwveS,3j6bhnx0vc5zv8hudcso2u6bq3dnka,352ythgrozqouu4agofxfdgat16h40,1nOVwveS,2020-0188,2020-05-21,14:08:26,14:26:37,NA,incomplete,162,shape,1,left,Purple_Triangle_Chess_3.jpg,Red_Triangle_Grid_4.jpg,Green_Star_Chess_2.jpg,left,929.0199999959441,true,low,false
1nOVwveS,3j6bhnx0vc5zv8hudcso2u6bq3dnka,352ythgrozqouu4agofxfdgat16h40,1nOVwveS,2020-0188,2020-05-21,14:08:26,14:26:37,NA,incomplete,163,shape,0,right,Red_Triangle_Chess_4.jpg,Green_Plus_Chess_1.jpg,Purple_Triangle_Grid_2.jpg,right,897.1250000031432,true,low,false
1nOVwveS,3j6bhnx0vc5zv8hudcso2u6bq3dnka,352ythgrozqouu4agofxfdgat16h40,1nOVwveS,2020-0188,2020-05-21,14:08:26,14:26:37,NA,incomplete,164,shape,1,right,Red_Triangle_Stripes_3.jpg,Green_Circle_Stripes_1.jpg,Purple_Triangle_Dots_4.jpg,right,672.2250000020722,true,low,false
1nOVwveS,3j6bhnx0vc5zv8hudcso2u6bq3dnka,352ythgrozqouu4agofxfdgat16h40,1nOVwveS,2020-0188,2020-05-21,14:08:26,14:26:37,NA,incomplete,165,shape,1,left,Blue_Star_Dots_2.jpg,Red_Star_Grid_4.jpg,Purple_Circle_Dots_3.jpg,left,675.2399999968475,true,low,false
1nOVwveS,3j6bhnx0vc5zv8hudcso2u6bq3dnka,352ythgrozqouu4agofxfdgat16h40,1nOVwveS,2020-0188,2020-05-21,14:08:26,14:26:37,NA,incomplete,166,shape,0,left,Red_Triangle_Dots_4.jpg,Blue_Triangle_Stripes_1.jpg,Purple_Star_Dots_2.jpg,left,725.3899999923306,true,low,false
1nOVwveS,3j6bhnx0vc5zv8hudcso2u6bq3dnka,352ythgrozqouu4agofxfdgat16h40,1nOVwveS,2020-0188,2020-05-21,14:08:26,14:26:37,NA,incomplete,167,shape,1,right,Blue_Plus_Dots_1.jpg,Red_Circle_Dots_2.jpg,Green_Plus_Grid_3.jpg,right,549.975000001723,true,low,false
1nOVwveS,3j6bhnx0vc5zv8hudcso2u6bq3dnka,352ythgrozqouu4agofxfdgat16h40,1nOVwveS,2020-0188,2020-05-21,14:08:26,14:26:37,NA,incomplete,168,shape,1,left,Red_Plus_Stripes_2.jpg,Purple_Plus_Dots_4.jpg,Green_Circle_Stripes_3.jpg,right,574.6549999894341,false,low,false
1nOVwveS,3j6bhnx0vc5zv8hudcso2u6bq3dnka,352ythgrozqouu4agofxfdgat16h40,1nOVwveS,2020-0188,2020-05-21,14:08:26,14:26:37,NA,incomplete,169,shape,1,left,Red_Triangle_Grid_2.jpg,Purple_Triangle_Chess_3.jpg,Green_Circle_Grid_1.jpg,right,418.6199999967357,false,low,false
1nOVwveS,3j6bhnx0vc5zv8hudcso2u6bq3dnka,352ythgrozqouu4agofxfdgat16h40,1nOVwveS,2020-0188,2020-05-21,14:08:26,14:26:37,NA,incomplete,170,shape,1,left,Green_Star_Dots_3.jpg,Purple_Star_Stripes_4.jpg,Red_Plus_Dots_2.jpg,left,519.9999999895226,true,low,false
1nOVwveS,3j6bhnx0vc5zv8hudcso2u6bq3dnka,352ythgrozqouu4agofxfdgat16h40,1nOVwveS,2020-0188,2020-05-21,14:08:26,14:26:37,NA,incomplete,171,shape,1,right,Green_Triangle_Stripes_2.jpg,Red_Circle_Stripes_1.jpg,Blue_Triangle_Dots_3.jpg,left,428.3200000063516,false,low,false
1nOVwveS,3j6bhnx0vc5zv8hudcso2u6bq3dnka,352ythgrozqouu4agofxfdgat16h40,1nOVwveS,2020-0188,2020-05-21,14:08:26,14:26:37,NA,incomplete,172,shape,1,left,Purple_Star_Grid_1.jpg,Green_Star_Chess_4.jpg,Blue_Plus_Grid_2.jpg,right,524.4600000005448,false,low,false
1nOVwveS,3j6bhnx0vc5zv8hudcso2u6bq3dnka,352ythgrozqouu4agofxfdgat16h40,1nOVwveS,2020-0188,2020-05-21,14:08:26,14:26:37,NA,incomplete,173,shape,0,left,Red_Plus_Stripes_2.jpg,Green_Plus_Grid_1.jpg,Purple_Triangle_Stripes_3.jpg,right,411.0099999961676,false,low,false
1nOVwveS,3j6bhnx0vc5zv8hudcso2u6bq3dnka,352ythgrozqouu4agofxfdgat16h40,1nOVwveS,2020-0188,2020-05-21,14:08:26,14:26:37,NA,incomplete,174,shape,1,right,Green_Star_Chess_2.jpg,Blue_Plus_Chess_3.jpg,Red_Star_Dots_4.jpg,left,563.575000007404,false,low,false
1nOVwveS,3j6bhnx0vc5zv8hudcso2u6bq3dnka,352ythgrozqouu4agofxfdgat16h40,1nOVwveS,2020-0188,2020-05-21,14:08:26,14:26:37,NA,incomplete,175,shape,1,left,Green_Plus_Grid_4.jpg,Purple_Plus_Chess_3.jpg,Red_Circle_Grid_1.jpg,left,512.1749999962049,true,low,false
1nOVwveS,3j6bhnx0vc5zv8hudcso2u6bq3dnka,352ythgrozqouu4agofxfdgat16h40,1nOVwveS,2020-0188,2020-05-21,14:08:26,14:26:37,NA,incomplete,176,shape,1,left,Purple_Star_Dots_1.jpg,Green_Star_Stripes_3.jpg,Blue_Plus_Dots_2.jpg,right,359.150000003865,false,low,false
1nOVwveS,3j6bhnx0vc5zv8hudcso2u6bq3dnka,352ythgrozqouu4agofxfdgat16h40,1nOVwveS,2020-0188,2020-05-21,14:08:26,14:26:37,NA,incomplete,177,shape,0,left,Red_Circle_Dots_2.jpg,Blue_Circle_Grid_4.jpg,Green_Star_Dots_3.jpg,right,801.0249999933876,false,low,false
1nOVwveS,3j6bhnx0vc5zv8hudcso2u6bq3dnka,352ythgrozqouu4agofxfdgat16h40,1nOVwveS,2020-0188,2020-05-21,14:08:26,14:26:37,NA,incomplete,178,shape,1,left,Red_Star_Grid_4.jpg,Blue_Star_Stripes_3.jpg,Green_Plus_Grid_1.jpg,right,379.54500000341795,false,low,false
1nOVwveS,3j6bhnx0vc5zv8hudcso2u6bq3dnka,352ythgrozqouu4agofxfdgat16h40,1nOVwveS,2020-0188,2020-05-21,14:08:26,14:26:37,NA,incomplete,179,shape,1,left,Green_Star_Grid_1.jpg,Purple_Star_Chess_4.jpg,Red_Triangle_Grid_3.jpg,left,499.67499999911524,true,low,false
1nOVwveS,3j6bhnx0vc5zv8hudcso2u6bq3dnka,352ythgrozqouu4agofxfdgat16h40,1nOVwveS,2020-0188,2020-05-21,14:08:26,14:26:37,NA,incomplete,180,filling,0,left,Blue_Circle_Dots_2.jpg,Purple_Star_Dots_3.jpg,Green_Circle_Grid_4.jpg,right,646.8599999934668,false,low,false
1nOVwveS,3j6bhnx0vc5zv8hudcso2u6bq3dnka,352ythgrozqouu4agofxfdgat16h40,1nOVwveS,2020-0188,2020-05-21,14:08:26,14:26:37,NA,incomplete,181,filling,1,right,Green_Star_Dots_2.jpg,Red_Star_Chess_3.jpg,Purple_Plus_Dots_4.jpg,right,734.5250000071246,true,low,false
1nOVwveS,3j6bhnx0vc5zv8hudcso2u6bq3dnka,352ythgrozqouu4agofxfdgat16h40,1nOVwveS,2020-0188,2020-05-21,14:08:26,14:26:37,NA,incomplete,182,filling,0,right,Green_Circle_Dots_2.jpg,Red_Circle_Grid_1.jpg,Purple_Star_Dots_3.jpg,right,582.3950000049081,true,low,false
1nOVwveS,3j6bhnx0vc5zv8hudcso2u6bq3dnka,352ythgrozqouu4agofxfdgat16h40,1nOVwveS,2020-0188,2020-05-21,14:08:26,14:26:37,NA,incomplete,183,filling,1,right,Red_Circle_Chess_2.jpg,Green_Circle_Dots_4.jpg,Blue_Plus_Chess_1.jpg,left,401.0050000069896,false,low,false
1nOVwveS,3j6bhnx0vc5zv8hudcso2u6bq3dnka,352ythgrozqouu4agofxfdgat16h40,1nOVwveS,2020-0188,2020-05-21,14:08:26,14:26:37,NA,incomplete,184,filling,0,right,Blue_Star_Grid_4.jpg,Red_Star_Dots_1.jpg,Purple_Plus_Grid_2.jpg,left,434.8549999995157,false,low,false
1nOVwveS,3j6bhnx0vc5zv8hudcso2u6bq3dnka,352ythgrozqouu4agofxfdgat16h40,1nOVwveS,2020-0188,2020-05-21,14:08:26,14:26:37,NA,incomplete,185,filling,1,left,Red_Plus_Dots_3.jpg,Purple_Triangle_Dots_4.jpg,Green_Plus_Chess_2.jpg,left,411.70000001147855,true,low,false
1nOVwveS,3j6bhnx0vc5zv8hudcso2u6bq3dnka,352ythgrozqouu4agofxfdgat16h40,1nOVwveS,2020-0188,2020-05-21,14:08:26,14:26:37,NA,incomplete,186,filling,0,left,Purple_Triangle_Chess_1.jpg,Green_Plus_Chess_4.jpg,Blue_Triangle_Dots_2.jpg,right,411.7499999993015,false,low,false
1nOVwveS,3j6bhnx0vc5zv8hudcso2u6bq3dnka,352ythgrozqouu4agofxfdgat16h40,1nOVwveS,2020-0188,2020-05-21,14:08:26,14:26:37,NA,incomplete,187,filling,1,right,Purple_Star_Dots_3.jpg,Green_Star_Grid_1.jpg,Red_Circle_Dots_4.jpg,right,418.5200000065379,true,low,false
1nOVwveS,3j6bhnx0vc5zv8hudcso2u6bq3dnka,352ythgrozqouu4agofxfdgat16h40,1nOVwveS,2020-0188,2020-05-21,14:08:26,14:26:37,NA,incomplete,188,filling,1,left,Red_Circle_Chess_1.jpg,Green_Triangle_Chess_4.jpg,Purple_Circle_Stripes_3.jpg,left,444.035000007716,true,low,false
1nOVwveS,3j6bhnx0vc5zv8hudcso2u6bq3dnka,352ythgrozqouu4agofxfdgat16h40,1nOVwveS,2020-0188,2020-05-21,14:08:26,14:26:37,NA,incomplete,189,filling,1,right,Green_Plus_Dots_4.jpg,Red_Plus_Chess_1.jpg,Blue_Triangle_Dots_3.jpg,left,390.52000000083353,false,low,false
1nOVwveS,3j6bhnx0vc5zv8hudcso2u6bq3dnka,352ythgrozqouu4agofxfdgat16h40,1nOVwveS,2020-0188,2020-05-21,14:08:26,14:26:37,NA,incomplete,190,filling,1,left,Blue_Triangle_Stripes_4.jpg,Green_Circle_Stripes_1.jpg,Purple_Triangle_Chess_3.jpg,right,379.9600000056671,false,low,false
1nOVwveS,3j6bhnx0vc5zv8hudcso2u6bq3dnka,352ythgrozqouu4agofxfdgat16h40,1nOVwveS,2020-0188,2020-05-21,14:08:26,14:26:37,NA,incomplete,191,filling,1,left,Purple_Plus_Grid_1.jpg,Red_Triangle_Grid_4.jpg,Green_Plus_Dots_3.jpg,right,346.98000000207685,false,low,false
1nOVwveS,3j6bhnx0vc5zv8hudcso2u6bq3dnka,352ythgrozqouu4agofxfdgat16h40,1nOVwveS,2020-0188,2020-05-21,14:08:26,14:26:37,NA,incomplete,192,filling,1,right,Purple_Star_Dots_3.jpg,Green_Star_Grid_2.jpg,Blue_Triangle_Dots_4.jpg,right,317.0049999898765,true,low,false
1nOVwveS,3j6bhnx0vc5zv8hudcso2u6bq3dnka,352ythgrozqouu4agofxfdgat16h40,1nOVwveS,2020-0188,2020-05-21,14:08:26,14:26:37,NA,incomplete,193,filling,0,right,Purple_Circle_Stripes_1.jpg,Green_Circle_Grid_4.jpg,Blue_Star_Stripes_3.jpg,right,421.58999999810476,true,low,false
1nOVwveS,3j6bhnx0vc5zv8hudcso2u6bq3dnka,352ythgrozqouu4agofxfdgat16h40,1nOVwveS,2020-0188,2020-05-21,14:08:26,14:26:37,NA,incomplete,194,filling,1,left,Blue_Plus_Chess_4.jpg,Green_Triangle_Chess_1.jpg,Red_Plus_Stripes_3.jpg,left,381.3700000027893,true,low,false
1nOVwveS,3j6bhnx0vc5zv8hudcso2u6bq3dnka,352ythgrozqouu4agofxfdgat16h40,1nOVwveS,2020-0188,2020-05-21,14:08:26,14:26:37,NA,incomplete,195,filling,1,right,Blue_Triangle_Grid_2.jpg,Red_Triangle_Stripes_3.jpg,Purple_Plus_Grid_1.jpg,left,412.60500000498723,false,low,false
1nOVwveS,3j6bhnx0vc5zv8hudcso2u6bq3dnka,352ythgrozqouu4agofxfdgat16h40,1nOVwveS,2020-0188,2020-05-21,14:08:26,14:26:37,NA,incomplete,196,filling,1,right,Green_Plus_Chess_3.jpg,Blue_Plus_Grid_1.jpg,Red_Triangle_Chess_4.jpg,right,433.62000001070555,true,low,false
1nOVwveS,3j6bhnx0vc5zv8hudcso2u6bq3dnka,352ythgrozqouu4agofxfdgat16h40,1nOVwveS,2020-0188,2020-05-21,14:08:26,14:26:37,NA,incomplete,197,filling,1,left,Purple_Circle_Stripes_3.jpg,Green_Triangle_Stripes_2.jpg,Blue_Circle_Grid_4.jpg,right,352.7649999887217,false,low,false
1nOVwveS,3j6bhnx0vc5zv8hudcso2u6bq3dnka,352ythgrozqouu4agofxfdgat16h40,1nOVwveS,2020-0188,2020-05-21,14:08:26,14:26:37,NA,incomplete,198,filling,1,right,Red_Plus_Grid_3.jpg,Green_Plus_Chess_4.jpg,Blue_Triangle_Grid_1.jpg,right,499.8350000096252,true,low,false
1nOVwveS,3j6bhnx0vc5zv8hudcso2u6bq3dnka,352ythgrozqouu4agofxfdgat16h40,1nOVwveS,2020-0188,2020-05-21,14:08:26,14:26:37,NA,incomplete,199,filling,1,left,Red_Plus_Stripes_1.jpg,Purple_Star_Stripes_3.jpg,Blue_Plus_Chess_2.jpg,right,567.1549999970011,false,low,false
1nOVwveS,3j6bhnx0vc5zv8hudcso2u6bq3dnka,352ythgrozqouu4agofxfdgat16h40,1nOVwveS,2020-0188,2020-05-21,14:08:26,14:26:37,NA,incomplete,200,shape,1,right,Red_Circle_Grid_4.jpg,Green_Star_Grid_1.jpg,Blue_Circle_Chess_3.jpg,left,412.3000000108732,false,low,false
1nOVwveS,3j6bhnx0vc5zv8hudcso2u6bq3dnka,352ythgrozqouu4agofxfdgat16h40,1nOVwveS,2020-0188,2020-05-21,14:08:26,14:26:37,NA,incomplete,201,shape,1,left,Purple_Triangle_Grid_3.jpg,Green_Triangle_Stripes_4.jpg,Blue_Star_Grid_1.jpg,left,401.4949999982491,true,low,false
1nOVwveS,3j6bhnx0vc5zv8hudcso2u6bq3dnka,352ythgrozqouu4agofxfdgat16h40,1nOVwveS,2020-0188,2020-05-21,14:08:26,14:26:37,NA,incomplete,202,shape,0,left,Green_Star_Stripes_2.jpg,Purple_Star_Dots_3.jpg,Red_Circle_Stripes_4.jpg,left,802.2249999921769,true,low,false
1nOVwveS,3j6bhnx0vc5zv8hudcso2u6bq3dnka,352ythgrozqouu4agofxfdgat16h40,1nOVwveS,2020-0188,2020-05-21,14:08:26,14:26:37,NA,incomplete,203,shape,1,right,Purple_Circle_Grid_1.jpg,Blue_Plus_Grid_4.jpg,Red_Circle_Chess_2.jpg,left,661.3349999970524,false,low,false
1nOVwveS,3j6bhnx0vc5zv8hudcso2u6bq3dnka,352ythgrozqouu4agofxfdgat16h40,1nOVwveS,2020-0188,2020-05-21,14:08:26,14:26:37,NA,incomplete,204,shape,1,right,Red_Star_Stripes_3.jpg,Green_Circle_Stripes_2.jpg,Blue_Star_Chess_4.jpg,none,0,false,low,false
1nOVwveS,3j6bhnx0vc5zv8hudcso2u6bq3dnka,352ythgrozqouu4agofxfdgat16h40,1nOVwveS,2020-0188,2020-05-21,14:08:26,14:26:37,NA,incomplete,205,shape,0,left,Red_Circle_Grid_2.jpg,Blue_Circle_Chess_4.jpg,Purple_Triangle_Grid_3.jpg,right,713.7300000031246,false,low,false
1nOVwveS,3j6bhnx0vc5zv8hudcso2u6bq3dnka,352ythgrozqouu4agofxfdgat16h40,1nOVwveS,2020-0188,2020-05-21,14:08:26,14:26:37,NA,incomplete,206,shape,1,left,Red_Plus_Stripes_3.jpg,Green_Plus_Chess_4.jpg,Blue_Star_Stripes_1.jpg,right,366.25000000640284,false,low,false
1nOVwveS,3j6bhnx0vc5zv8hudcso2u6bq3dnka,352ythgrozqouu4agofxfdgat16h40,1nOVwveS,2020-0188,2020-05-21,14:08:26,14:26:37,NA,incomplete,207,shape,1,right,Purple_Plus_Grid_4.jpg,Red_Circle_Grid_1.jpg,Green_Plus_Dots_3.jpg,left,416.74000000057276,false,low,false
1nOVwveS,3j6bhnx0vc5zv8hudcso2u6bq3dnka,352ythgrozqouu4agofxfdgat16h40,1nOVwveS,2020-0188,2020-05-21,14:08:26,14:26:37,NA,incomplete,208,shape,1,left,Green_Circle_Chess_4.jpg,Blue_Circle_Grid_2.jpg,Purple_Triangle_Chess_1.jpg,left,329.6050000062678,true,low,false
1nOVwveS,3j6bhnx0vc5zv8hudcso2u6bq3dnka,352ythgrozqouu4agofxfdgat16h40,1nOVwveS,2020-0188,2020-05-21,14:08:26,14:26:37,NA,incomplete,209,shape,1,right,Blue_Triangle_Stripes_1.jpg,Green_Star_Stripes_2.jpg,Purple_Triangle_Chess_3.jpg,left,364.58500000298955,false,low,false
1nOVwveS,3j6bhnx0vc5zv8hudcso2u6bq3dnka,352ythgrozqouu4agofxfdgat16h40,1nOVwveS,2020-0188,2020-05-21,14:08:26,14:26:37,NA,incomplete,210,shape,1,left,Purple_Star_Chess_4.jpg,Blue_Star_Stripes_2.jpg,Green_Circle_Chess_1.jpg,left,817.3549999919487,true,low,false
1nOVwveS,3j6bhnx0vc5zv8hudcso2u6bq3dnka,352ythgrozqouu4agofxfdgat16h40,1nOVwveS,2020-0188,2020-05-21,14:08:26,14:26:37,NA,incomplete,211,shape,1,right,Blue_Plus_Dots_3.jpg,Green_Circle_Dots_2.jpg,Red_Plus_Stripes_4.jpg,left,468.05499999027234,false,low,false
1nOVwveS,3j6bhnx0vc5zv8hudcso2u6bq3dnka,352ythgrozqouu4agofxfdgat16h40,1nOVwveS,2020-0188,2020-05-21,14:08:26,14:26:37,NA,incomplete,212,shape,1,left,Purple_Star_Dots_4.jpg,Green_Star_Stripes_3.jpg,Red_Plus_Dots_1.jpg,right,437.8349999897182,false,low,false
1nOVwveS,3j6bhnx0vc5zv8hudcso2u6bq3dnka,352ythgrozqouu4agofxfdgat16h40,1nOVwveS,2020-0188,2020-05-21,14:08:26,14:26:37,NA,incomplete,213,shape,1,right,Red_Plus_Dots_4.jpg,Blue_Circle_Dots_2.jpg,Purple_Plus_Chess_1.jpg,right,527.7849999984028,true,low,false
1nOVwveS,3j6bhnx0vc5zv8hudcso2u6bq3dnka,352ythgrozqouu4agofxfdgat16h40,1nOVwveS,2020-0188,2020-05-21,14:08:26,14:26:37,NA,incomplete,214,shape,0,left,Green_Circle_Stripes_1.jpg,Blue_Circle_Dots_4.jpg,Red_Plus_Stripes_2.jpg,right,683.1249999959255,false,low,false
1nOVwveS,3j6bhnx0vc5zv8hudcso2u6bq3dnka,352ythgrozqouu4agofxfdgat16h40,1nOVwveS,2020-0188,2020-05-21,14:08:26,14:26:37,NA,incomplete,215,shape,1,left,Green_Star_Stripes_1.jpg,Red_Star_Dots_2.jpg,Purple_Triangle_Stripes_4.jpg,right,583.4049999975832,false,low,false
1nOVwveS,3j6bhnx0vc5zv8hudcso2u6bq3dnka,352ythgrozqouu4agofxfdgat16h40,1nOVwveS,2020-0188,2020-05-21,14:08:26,14:26:37,NA,incomplete,216,shape,0,left,Red_Circle_Chess_2.jpg,Blue_Circle_Grid_1.jpg,Green_Star_Chess_3.jpg,right,327.2200000064913,false,low,false
1nOVwveS,3j6bhnx0vc5zv8hudcso2u6bq3dnka,352ythgrozqouu4agofxfdgat16h40,1nOVwveS,2020-0188,2020-05-21,14:08:26,14:26:37,NA,incomplete,217,shape,1,left,Purple_Triangle_Dots_4.jpg,Green_Triangle_Grid_1.jpg,Red_Plus_Dots_2.jpg,left,768.0700000055367,true,low,false
1nOVwveS,3j6bhnx0vc5zv8hudcso2u6bq3dnka,352ythgrozqouu4agofxfdgat16h40,1nOVwveS,2020-0188,2020-05-21,14:08:26,14:26:37,NA,incomplete,218,shape,1,left,Purple_Triangle_Dots_3.jpg,Blue_Triangle_Grid_4.jpg,Green_Star_Dots_1.jpg,left,449.4050000066636,true,low,false
1nOVwveS,3j6bhnx0vc5zv8hudcso2u6bq3dnka,352ythgrozqouu4agofxfdgat16h40,1nOVwveS,2020-0188,2020-05-21,14:08:26,14:26:37,NA,incomplete,219,shape,1,right,Blue_Triangle_Dots_2.jpg,Purple_Plus_Dots_1.jpg,Green_Triangle_Grid_3.jpg,left,424.23999999300577,false,low,false
1nOVwveS,3j6bhnx0vc5zv8hudcso2u6bq3dnka,352ythgrozqouu4agofxfdgat16h40,1nOVwveS,2020-0188,2020-05-21,14:08:26,14:26:37,NA,incomplete,220,filling,1,right,Red_Triangle_Dots_2.jpg,Green_Triangle_Stripes_3.jpg,Purple_Circle_Dots_4.jpg,right,369.1350000008242,true,low,false
1nOVwveS,3j6bhnx0vc5zv8hudcso2u6bq3dnka,352ythgrozqouu4agofxfdgat16h40,1nOVwveS,2020-0188,2020-05-21,14:08:26,14:26:37,NA,incomplete,221,filling,1,left,Blue_Triangle_Dots_4.jpg,Red_Plus_Dots_2.jpg,Purple_Triangle_Stripes_3.jpg,right,322.92999999481253,false,low,false
1nOVwveS,3j6bhnx0vc5zv8hudcso2u6bq3dnka,352ythgrozqouu4agofxfdgat16h40,1nOVwveS,2020-0188,2020-05-21,14:08:26,14:26:37,NA,incomplete,222,filling,0,left,Green_Circle_Dots_1.jpg,Red_Plus_Dots_4.jpg,Blue_Circle_Grid_3.jpg,right,369.29000000236556,false,low,false
1nOVwveS,3j6bhnx0vc5zv8hudcso2u6bq3dnka,352ythgrozqouu4agofxfdgat16h40,1nOVwveS,2020-0188,2020-05-21,14:08:26,14:26:37,NA,incomplete,223,filling,1,left,Green_Star_Grid_3.jpg,Purple_Plus_Grid_2.jpg,Blue_Star_Chess_1.jpg,right,367.25500000466127,false,low,false
1nOVwveS,3j6bhnx0vc5zv8hudcso2u6bq3dnka,352ythgrozqouu4agofxfdgat16h40,1nOVwveS,2020-0188,2020-05-21,14:08:26,14:26:37,NA,incomplete,224,filling,1,left,Purple_Star_Chess_1.jpg,Blue_Plus_Chess_3.jpg,Red_Star_Stripes_2.jpg,left,407.59000000252854,true,low,false
1nOVwveS,3j6bhnx0vc5zv8hudcso2u6bq3dnka,352ythgrozqouu4agofxfdgat16h40,1nOVwveS,2020-0188,2020-05-21,14:08:26,14:26:37,NA,incomplete,225,filling,0,right,Red_Star_Grid_2.jpg,Purple_Star_Stripes_4.jpg,Blue_Triangle_Grid_1.jpg,left,395.5500000010943,false,low,false
1nOVwveS,3j6bhnx0vc5zv8hudcso2u6bq3dnka,352ythgrozqouu4agofxfdgat16h40,1nOVwveS,2020-0188,2020-05-21,14:08:26,14:26:37,NA,incomplete,226,filling,1,left,Purple_Triangle_Dots_4.jpg,Red_Star_Dots_2.jpg,Blue_Triangle_Chess_3.jpg,right,614.979999998468,false,low,false
1nOVwveS,3j6bhnx0vc5zv8hudcso2u6bq3dnka,352ythgrozqouu4agofxfdgat16h40,1nOVwveS,2020-0188,2020-05-21,14:08:26,14:26:37,NA,incomplete,227,filling,1,left,Blue_Star_Dots_4.jpg,Green_Circle_Dots_1.jpg,Purple_Star_Chess_3.jpg,right,330.80499999050517,false,low,false
1nOVwveS,3j6bhnx0vc5zv8hudcso2u6bq3dnka,352ythgrozqouu4agofxfdgat16h40,1nOVwveS,2020-0188,2020-05-21,14:08:26,14:26:37,NA,incomplete,228,filling,1,left,Red_Circle_Stripes_4.jpg,Purple_Triangle_Stripes_3.jpg,Blue_Circle_Grid_2.jpg,right,344.0449999907287,false,low,false
1nOVwveS,3j6bhnx0vc5zv8hudcso2u6bq3dnka,352ythgrozqouu4agofxfdgat16h40,1nOVwveS,2020-0188,2020-05-21,14:08:26,14:26:37,NA,incomplete,229,filling,1,left,Red_Triangle_Stripes_3.jpg,Purple_Star_Stripes_1.jpg,Blue_Triangle_Grid_2.jpg,right,332.4049999937415,false,low,false
1nOVwveS,3j6bhnx0vc5zv8hudcso2u6bq3dnka,352ythgrozqouu4agofxfdgat16h40,1nOVwveS,2020-0188,2020-05-21,14:08:26,14:26:37,NA,incomplete,230,filling,1,right,Purple_Triangle_Dots_4.jpg,Red_Triangle_Grid_3.jpg,Blue_Circle_Dots_1.jpg,right,348.97999999520835,true,low,false
1nOVwveS,3j6bhnx0vc5zv8hudcso2u6bq3dnka,352ythgrozqouu4agofxfdgat16h40,1nOVwveS,2020-0188,2020-05-21,14:08:26,14:26:37,NA,incomplete,231,filling,1,right,Purple_Circle_Dots_4.jpg,Blue_Circle_Grid_1.jpg,Red_Plus_Dots_2.jpg,right,349.23500000149943,true,low,false
1nOVwveS,3j6bhnx0vc5zv8hudcso2u6bq3dnka,352ythgrozqouu4agofxfdgat16h40,1nOVwveS,2020-0188,2020-05-21,14:08:26,14:26:37,NA,incomplete,232,filling,1,left,Blue_Star_Stripes_1.jpg,Green_Triangle_Stripes_4.jpg,Red_Star_Dots_2.jpg,right,377.11500001023524,false,low,false
1nOVwveS,3j6bhnx0vc5zv8hudcso2u6bq3dnka,352ythgrozqouu4agofxfdgat16h40,1nOVwveS,2020-0188,2020-05-21,14:08:26,14:26:37,NA,incomplete,233,filling,1,right,Red_Star_Stripes_4.jpg,Green_Star_Chess_3.jpg,Blue_Circle_Stripes_1.jpg,left,399.10999999847263,false,low,false
1nOVwveS,3j6bhnx0vc5zv8hudcso2u6bq3dnka,352ythgrozqouu4agofxfdgat16h40,1nOVwveS,2020-0188,2020-05-21,14:08:26,14:26:37,NA,incomplete,234,filling,1,right,Red_Plus_Grid_4.jpg,Green_Plus_Chess_3.jpg,Blue_Star_Grid_1.jpg,left,335.30000000586733,false,low,false
1nOVwveS,3j6bhnx0vc5zv8hudcso2u6bq3dnka,352ythgrozqouu4agofxfdgat16h40,1nOVwveS,2020-0188,2020-05-21,14:08:26,14:26:37,NA,incomplete,235,filling,1,left,Green_Plus_Chess_4.jpg,Purple_Circle_Chess_1.jpg,Blue_Plus_Stripes_3.jpg,right,387.5750000006519,false,low,false
1nOVwveS,3j6bhnx0vc5zv8hudcso2u6bq3dnka,352ythgrozqouu4agofxfdgat16h40,1nOVwveS,2020-0188,2020-05-21,14:08:26,14:26:37,NA,incomplete,236,filling,0,right,Purple_Plus_Grid_3.jpg,Blue_Plus_Dots_2.jpg,Green_Circle_Grid_4.jpg,right,337.06000000517815,true,low,false
1nOVwveS,3j6bhnx0vc5zv8hudcso2u6bq3dnka,352ythgrozqouu4agofxfdgat16h40,1nOVwveS,2020-0188,2020-05-21,14:08:26,14:26:37,NA,incomplete,237,filling,1,right,Purple_Circle_Dots_4.jpg,Red_Circle_Stripes_1.jpg,Blue_Star_Dots_3.jpg,right,337.81500000623055,true,low,false
1nOVwveS,3j6bhnx0vc5zv8hudcso2u6bq3dnka,352ythgrozqouu4agofxfdgat16h40,1nOVwveS,2020-0188,2020-05-21,14:08:26,14:26:37,NA,incomplete,238,filling,0,left,Green_Plus_Dots_4.jpg,Blue_Circle_Dots_3.jpg,Purple_Plus_Chess_1.jpg,right,349.6749999905005,false,low,false
1nOVwveS,3j6bhnx0vc5zv8hudcso2u6bq3dnka,352ythgrozqouu4agofxfdgat16h40,1nOVwveS,2020-0188,2020-05-21,14:08:26,14:26:37,NA,incomplete,239,filling,1,left,Green_Plus_Dots_3.jpg,Blue_Circle_Dots_2.jpg,Purple_Plus_Grid_4.jpg,right,526.5199999993201,false,low,false
1nOVwveS,3j6bhnx0vc5zv8hudcso2u6bq3dnka,352ythgrozqouu4agofxfdgat16h40,1nOVwveS,2020-0188,2020-05-21,14:08:26,14:26:37,NA,NA,instruction example,number,NA,NA,Blue_Star_Dots_3.jpg,Red_Triangle_Chess_3.jpg,Blue_Plus_Grid_2.jpg,NA,NA,NA,NA,undefined
1nOVwveS,3j6bhnx0vc5zv8hudcso2u6bq3dnka,352ythgrozqouu4agofxfdgat16h40,1nOVwveS,2020-0188,2020-05-21,14:08:26,14:26:37,NA,NA,instruction example,number,NA,NA,Purple_Triangle_Grid_3.jpg,Purple_Star_Chess_2.jpg,Blue_Circle_Dots_3.jpg,NA,NA,NA,NA,undefined
1nOVwveS,3j6bhnx0vc5zv8hudcso2u6bq3dnka,352ythgrozqouu4agofxfdgat16h40,1nOVwveS,2020-0188,2020-05-21,14:08:26,14:26:37,NA,NA,instruction example,number,NA,NA,Blue_Star_Stripes_1.jpg,Green_Star_Grid_3.jpg,Purple_Plus_Stripes_2.jpg,NA,NA,NA,NA,undefined
1nOVwveS,3j6bhnx0vc5zv8hudcso2u6bq3dnka,352ythgrozqouu4agofxfdgat16h40,1nOVwveS,2020-0188,2020-05-21,14:08:26,14:26:37,NA,NA,instruction example,number,NA,NA,Purple_Plus_Stripes_4.jpg,Red_Circle_Stripes_3.jpg,Blue_Plus_Grid_1.jpg,NA,NA,NA,NA,undefined
1nOVwveS,3j6bhnx0vc5zv8hudcso2u6bq3dnka,352ythgrozqouu4agofxfdgat16h40,1nOVwveS,2020-0188,2020-05-21,14:08:26,14:26:37,1062988.7149999994,1091732.3999999934,NA,NA,NA,NA,NA,NA,NA,NA,NA,NA,NA,undefined
