workerId,hitId,assignmentId,subject,studyid,exp_date,exp_start,exp_end,time_start,time_end,trial,type,reward_validity,answer,image_top,image_left,image_right,response,response_time,response_acc,volatility,age,race,gender,ethnicity,color,vision,neuro,practice
uRdgWZA4,3jhb4bpsgnm0h9bvp7tggfn0kkoq96,35gmh2sv3iugednq97m088p2ic6eoj,uRdgWZA4,2020-0188,2020-05-21,15:46:54,16:05:15,NA,incomplete,0,number,0,left,Red_Circle_Dots_3.jpg,Blue_Star_Grid_3.jpg,Green_Circle_Stripes_2.jpg,left,1030.0299999999115,true,NA,NA,NA,NA,NA,NA,NA,NA,true
uRdgWZA4,3jhb4bpsgnm0h9bvp7tggfn0kkoq96,35gmh2sv3iugednq97m088p2ic6eoj,uRdgWZA4,2020-0188,2020-05-21,15:46:54,16:05:15,NA,incomplete,1,number,0,left,Purple_Star_Chess_1.jpg,Green_Plus_Grid_1.jpg,Blue_Star_Dots_4.jpg,left,797.4699999995064,true,NA,NA,NA,NA,NA,NA,NA,NA,true
uRdgWZA4,3jhb4bpsgnm0h9bvp7tggfn0kkoq96,35gmh2sv3iugednq97m088p2ic6eoj,uRdgWZA4,2020-0188,2020-05-21,15:46:54,16:05:15,NA,incomplete,2,number,1,left,Purple_Triangle_Chess_4.jpg,Red_Circle_Dots_4.jpg,Green_Triangle_Grid_2.jpg,left,920.1450000000186,true,NA,NA,NA,NA,NA,NA,NA,NA,true
uRdgWZA4,3jhb4bpsgnm0h9bvp7tggfn0kkoq96,35gmh2sv3iugednq97m088p2ic6eoj,uRdgWZA4,2020-0188,2020-05-21,15:46:54,16:05:15,NA,incomplete,3,number,1,right,Red_Plus_Stripes_1.jpg,Green_Plus_Grid_2.jpg,Blue_Triangle_Dots_1.jpg,right,726.8299999996088,true,NA,NA,NA,NA,NA,NA,NA,NA,true
uRdgWZA4,3jhb4bpsgnm0h9bvp7tggfn0kkoq96,35gmh2sv3iugednq97m088p2ic6eoj,uRdgWZA4,2020-0188,2020-05-21,15:46:54,16:05:15,NA,incomplete,4,number,1,right,Purple_Star_Stripes_4.jpg,Red_Star_Chess_1.jpg,Green_Circle_Grid_4.jpg,right,757.7199999996228,true,NA,NA,NA,NA,NA,NA,NA,NA,true
uRdgWZA4,3jhb4bpsgnm0h9bvp7tggfn0kkoq96,35gmh2sv3iugednq97m088p2ic6eoj,uRdgWZA4,2020-0188,2020-05-21,15:46:54,16:05:15,NA,incomplete,5,number,1,left,Red_Star_Grid_3.jpg,Purple_Circle_Dots_3.jpg,Blue_Star_Stripes_1.jpg,left,788.5099999984959,true,NA,NA,NA,NA,NA,NA,NA,NA,true
uRdgWZA4,3jhb4bpsgnm0h9bvp7tggfn0kkoq96,35gmh2sv3iugednq97m088p2ic6eoj,uRdgWZA4,2020-0188,2020-05-21,15:46:54,16:05:15,NA,incomplete,6,number,1,right,Red_Star_Dots_2.jpg,Purple_Star_Stripes_4.jpg,Green_Plus_Chess_2.jpg,right,797.2000000008848,true,NA,NA,NA,NA,NA,NA,NA,NA,true
uRdgWZA4,3jhb4bpsgnm0h9bvp7tggfn0kkoq96,35gmh2sv3iugednq97m088p2ic6eoj,uRdgWZA4,2020-0188,2020-05-21,15:46:54,16:05:15,NA,incomplete,7,number,1,right,Blue_Plus_Chess_2.jpg,Green_Plus_Dots_1.jpg,Purple_Triangle_Stripes_2.jpg,right,743.6900000011665,true,NA,NA,NA,NA,NA,NA,NA,NA,true
uRdgWZA4,3jhb4bpsgnm0h9bvp7tggfn0kkoq96,35gmh2sv3iugednq97m088p2ic6eoj,uRdgWZA4,2020-0188,2020-05-21,15:46:54,16:05:15,NA,incomplete,8,number,0,right,Red_Triangle_Grid_2.jpg,Purple_Triangle_Dots_4.jpg,Blue_Circle_Chess_2.jpg,right,799.7749999994994,true,NA,NA,NA,NA,NA,NA,NA,NA,true
uRdgWZA4,3jhb4bpsgnm0h9bvp7tggfn0kkoq96,35gmh2sv3iugednq97m088p2ic6eoj,uRdgWZA4,2020-0188,2020-05-21,15:46:54,16:05:15,NA,incomplete,9,number,1,right,Red_Plus_Dots_1.jpg,Green_Plus_Grid_2.jpg,Blue_Triangle_Chess_1.jpg,right,876.254999999248,true,NA,NA,NA,NA,NA,NA,NA,NA,true
uRdgWZA4,3jhb4bpsgnm0h9bvp7tggfn0kkoq96,35gmh2sv3iugednq97m088p2ic6eoj,uRdgWZA4,2020-0188,2020-05-21,15:46:54,16:05:15,NA,incomplete,10,number,1,right,Red_Star_Stripes_2.jpg,Green_Star_Grid_4.jpg,Purple_Triangle_Dots_2.jpg,right,877.9249999988824,true,NA,NA,NA,NA,NA,NA,NA,NA,true
uRdgWZA4,3jhb4bpsgnm0h9bvp7tggfn0kkoq96,35gmh2sv3iugednq97m088p2ic6eoj,uRdgWZA4,2020-0188,2020-05-21,15:46:54,16:05:15,NA,incomplete,11,number,1,right,Purple_Triangle_Grid_4.jpg,Blue_Triangle_Stripes_1.jpg,Green_Star_Dots_4.jpg,right,780.3800000001211,true,NA,NA,NA,NA,NA,NA,NA,NA,true
uRdgWZA4,3jhb4bpsgnm0h9bvp7tggfn0kkoq96,35gmh2sv3iugednq97m088p2ic6eoj,uRdgWZA4,2020-0188,2020-05-21,15:46:54,16:05:15,NA,incomplete,12,number,1,left,Purple_Triangle_Chess_1.jpg,Red_Plus_Stripes_1.jpg,Blue_Triangle_Dots_4.jpg,left,680.1049999994575,true,NA,NA,NA,NA,NA,NA,NA,NA,true
uRdgWZA4,3jhb4bpsgnm0h9bvp7tggfn0kkoq96,35gmh2sv3iugednq97m088p2ic6eoj,uRdgWZA4,2020-0188,2020-05-21,15:46:54,16:05:15,NA,incomplete,13,number,0,right,Blue_Plus_Grid_4.jpg,Red_Plus_Stripes_2.jpg,Green_Triangle_Chess_4.jpg,right,700.8599999989965,true,NA,NA,NA,NA,NA,NA,NA,NA,true
uRdgWZA4,3jhb4bpsgnm0h9bvp7tggfn0kkoq96,35gmh2sv3iugednq97m088p2ic6eoj,uRdgWZA4,2020-0188,2020-05-21,15:46:54,16:05:15,NA,incomplete,14,number,0,right,Green_Triangle_Dots_1.jpg,Red_Triangle_Grid_2.jpg,Blue_Circle_Chess_1.jpg,right,810.8200000006473,true,NA,NA,NA,NA,NA,NA,NA,NA,true
uRdgWZA4,3jhb4bpsgnm0h9bvp7tggfn0kkoq96,35gmh2sv3iugednq97m088p2ic6eoj,uRdgWZA4,2020-0188,2020-05-21,15:46:54,16:05:15,NA,incomplete,15,number,1,left,Purple_Circle_Grid_3.jpg,Green_Triangle_Chess_3.jpg,Red_Circle_Stripes_4.jpg,left,1157.2049999995506,true,NA,NA,NA,NA,NA,NA,NA,NA,true
uRdgWZA4,3jhb4bpsgnm0h9bvp7tggfn0kkoq96,35gmh2sv3iugednq97m088p2ic6eoj,uRdgWZA4,2020-0188,2020-05-21,15:46:54,16:05:15,NA,incomplete,16,number,1,left,Green_Plus_Grid_2.jpg,Blue_Circle_Dots_2.jpg,Red_Plus_Stripes_3.jpg,left,821.2649999986752,true,NA,NA,NA,NA,NA,NA,NA,NA,true
uRdgWZA4,3jhb4bpsgnm0h9bvp7tggfn0kkoq96,35gmh2sv3iugednq97m088p2ic6eoj,uRdgWZA4,2020-0188,2020-05-21,15:46:54,16:05:15,NA,incomplete,17,number,0,right,Red_Circle_Chess_2.jpg,Blue_Circle_Grid_3.jpg,Purple_Star_Dots_2.jpg,right,870.5800000007148,true,NA,NA,NA,NA,NA,NA,NA,NA,true
uRdgWZA4,3jhb4bpsgnm0h9bvp7tggfn0kkoq96,35gmh2sv3iugednq97m088p2ic6eoj,uRdgWZA4,2020-0188,2020-05-21,15:46:54,16:05:15,NA,incomplete,18,number,1,left,Green_Plus_Dots_2.jpg,Red_Star_Chess_2.jpg,Blue_Plus_Stripes_4.jpg,left,599.2800000003772,true,NA,NA,NA,NA,NA,NA,NA,NA,true
uRdgWZA4,3jhb4bpsgnm0h9bvp7tggfn0kkoq96,35gmh2sv3iugednq97m088p2ic6eoj,uRdgWZA4,2020-0188,2020-05-21,15:46:54,16:05:15,NA,incomplete,19,number,1,left,Red_Circle_Grid_4.jpg,Green_Plus_Dots_4.jpg,Purple_Circle_Chess_1.jpg,left,816.1399999990244,true,NA,NA,NA,NA,NA,NA,NA,NA,true
uRdgWZA4,3jhb4bpsgnm0h9bvp7tggfn0kkoq96,35gmh2sv3iugednq97m088p2ic6eoj,uRdgWZA4,2020-0188,2020-05-21,15:46:54,16:05:15,NA,incomplete,20,shape,1,right,Blue_Triangle_Chess_3.jpg,Green_Plus_Grid_3.jpg,Red_Triangle_Dots_1.jpg,left,849.925000000454,false,NA,NA,NA,NA,NA,NA,NA,NA,true
uRdgWZA4,3jhb4bpsgnm0h9bvp7tggfn0kkoq96,35gmh2sv3iugednq97m088p2ic6eoj,uRdgWZA4,2020-0188,2020-05-21,15:46:54,16:05:15,NA,incomplete,21,shape,0,left,Blue_Triangle_Grid_1.jpg,Green_Triangle_Stripes_3.jpg,Purple_Circle_Chess_1.jpg,right,795.6099999991711,false,NA,NA,NA,NA,NA,NA,NA,NA,true
uRdgWZA4,3jhb4bpsgnm0h9bvp7tggfn0kkoq96,35gmh2sv3iugednq97m088p2ic6eoj,uRdgWZA4,2020-0188,2020-05-21,15:46:54,16:05:15,NA,incomplete,22,shape,1,right,Green_Circle_Chess_3.jpg,Purple_Plus_Stripes_3.jpg,Blue_Circle_Grid_2.jpg,left,695.8599999998114,false,NA,NA,NA,NA,NA,NA,NA,NA,true
uRdgWZA4,3jhb4bpsgnm0h9bvp7tggfn0kkoq96,35gmh2sv3iugednq97m088p2ic6eoj,uRdgWZA4,2020-0188,2020-05-21,15:46:54,16:05:15,NA,incomplete,23,shape,1,left,Purple_Circle_Grid_2.jpg,Blue_Circle_Stripes_3.jpg,Green_Plus_Chess_2.jpg,left,756.695000000007,true,NA,NA,NA,NA,NA,NA,NA,NA,true
uRdgWZA4,3jhb4bpsgnm0h9bvp7tggfn0kkoq96,35gmh2sv3iugednq97m088p2ic6eoj,uRdgWZA4,2020-0188,2020-05-21,15:46:54,16:05:15,NA,incomplete,24,shape,1,right,Red_Triangle_Stripes_4.jpg,Green_Star_Dots_4.jpg,Blue_Triangle_Chess_2.jpg,right,907.6499999992084,true,NA,NA,NA,NA,NA,NA,NA,NA,true
uRdgWZA4,3jhb4bpsgnm0h9bvp7tggfn0kkoq96,35gmh2sv3iugednq97m088p2ic6eoj,uRdgWZA4,2020-0188,2020-05-21,15:46:54,16:05:15,NA,incomplete,25,shape,1,left,Blue_Plus_Stripes_2.jpg,Green_Plus_Grid_3.jpg,Red_Triangle_Dots_2.jpg,left,738.5799999992596,true,NA,NA,NA,NA,NA,NA,NA,NA,true
uRdgWZA4,3jhb4bpsgnm0h9bvp7tggfn0kkoq96,35gmh2sv3iugednq97m088p2ic6eoj,uRdgWZA4,2020-0188,2020-05-21,15:46:54,16:05:15,NA,incomplete,26,shape,1,left,Blue_Star_Chess_4.jpg,Green_Star_Grid_2.jpg,Purple_Triangle_Stripes_4.jpg,left,792.0649999996531,true,NA,NA,NA,NA,NA,NA,NA,NA,true
uRdgWZA4,3jhb4bpsgnm0h9bvp7tggfn0kkoq96,35gmh2sv3iugednq97m088p2ic6eoj,uRdgWZA4,2020-0188,2020-05-21,15:46:54,16:05:15,NA,incomplete,27,shape,1,right,Green_Star_Stripes_1.jpg,Blue_Circle_Grid_1.jpg,Purple_Star_Dots_2.jpg,right,775.4150000000373,true,NA,NA,NA,NA,NA,NA,NA,NA,true
uRdgWZA4,3jhb4bpsgnm0h9bvp7tggfn0kkoq96,35gmh2sv3iugednq97m088p2ic6eoj,uRdgWZA4,2020-0188,2020-05-21,15:46:54,16:05:15,NA,incomplete,28,shape,1,right,Purple_Circle_Dots_4.jpg,Green_Triangle_Chess_4.jpg,Blue_Circle_Grid_2.jpg,right,956.9249999985914,true,NA,NA,NA,NA,NA,NA,NA,NA,true
uRdgWZA4,3jhb4bpsgnm0h9bvp7tggfn0kkoq96,35gmh2sv3iugednq97m088p2ic6eoj,uRdgWZA4,2020-0188,2020-05-21,15:46:54,16:05:15,NA,incomplete,29,shape,0,right,Purple_Circle_Dots_2.jpg,Blue_Plus_Stripes_2.jpg,Green_Circle_Grid_3.jpg,right,871.8150000004098,true,NA,NA,NA,NA,NA,NA,NA,NA,true
uRdgWZA4,3jhb4bpsgnm0h9bvp7tggfn0kkoq96,35gmh2sv3iugednq97m088p2ic6eoj,uRdgWZA4,2020-0188,2020-05-21,15:46:54,16:05:15,NA,incomplete,30,shape,1,left,Purple_Star_Grid_4.jpg,Green_Star_Chess_2.jpg,Blue_Plus_Dots_4.jpg,left,886.1999999990221,true,NA,NA,NA,NA,NA,NA,NA,NA,true
uRdgWZA4,3jhb4bpsgnm0h9bvp7tggfn0kkoq96,35gmh2sv3iugednq97m088p2ic6eoj,uRdgWZA4,2020-0188,2020-05-21,15:46:54,16:05:15,NA,incomplete,31,shape,1,left,Blue_Circle_Chess_4.jpg,Red_Circle_Dots_3.jpg,Green_Plus_Stripes_4.jpg,left,735.8400000011898,true,NA,NA,NA,NA,NA,NA,NA,NA,true
uRdgWZA4,3jhb4bpsgnm0h9bvp7tggfn0kkoq96,35gmh2sv3iugednq97m088p2ic6eoj,uRdgWZA4,2020-0188,2020-05-21,15:46:54,16:05:15,NA,incomplete,32,shape,1,right,Purple_Circle_Stripes_1.jpg,Red_Triangle_Dots_1.jpg,Blue_Circle_Grid_4.jpg,right,718.8000000005122,true,NA,NA,NA,NA,NA,NA,NA,NA,true
uRdgWZA4,3jhb4bpsgnm0h9bvp7tggfn0kkoq96,35gmh2sv3iugednq97m088p2ic6eoj,uRdgWZA4,2020-0188,2020-05-21,15:46:54,16:05:15,NA,incomplete,33,shape,1,right,Red_Plus_Grid_3.jpg,Green_Circle_Chess_3.jpg,Blue_Plus_Dots_1.jpg,right,896.85499999905,true,NA,NA,NA,NA,NA,NA,NA,NA,true
uRdgWZA4,3jhb4bpsgnm0h9bvp7tggfn0kkoq96,35gmh2sv3iugednq97m088p2ic6eoj,uRdgWZA4,2020-0188,2020-05-21,15:46:54,16:05:15,NA,incomplete,34,shape,1,left,Blue_Triangle_Grid_1.jpg,Green_Triangle_Stripes_4.jpg,Purple_Plus_Chess_1.jpg,left,726.7399999982445,true,NA,NA,NA,NA,NA,NA,NA,NA,true
uRdgWZA4,3jhb4bpsgnm0h9bvp7tggfn0kkoq96,35gmh2sv3iugednq97m088p2ic6eoj,uRdgWZA4,2020-0188,2020-05-21,15:46:54,16:05:15,NA,incomplete,35,shape,1,left,Purple_Triangle_Grid_2.jpg,Red_Triangle_Chess_4.jpg,Blue_Circle_Dots_2.jpg,left,685.2950000010896,true,NA,NA,NA,NA,NA,NA,NA,NA,true
uRdgWZA4,3jhb4bpsgnm0h9bvp7tggfn0kkoq96,35gmh2sv3iugednq97m088p2ic6eoj,uRdgWZA4,2020-0188,2020-05-21,15:46:54,16:05:15,NA,incomplete,36,shape,1,left,Blue_Circle_Grid_3.jpg,Red_Circle_Dots_1.jpg,Green_Plus_Chess_3.jpg,left,709.3599999989383,true,NA,NA,NA,NA,NA,NA,NA,NA,true
uRdgWZA4,3jhb4bpsgnm0h9bvp7tggfn0kkoq96,35gmh2sv3iugednq97m088p2ic6eoj,uRdgWZA4,2020-0188,2020-05-21,15:46:54,16:05:15,NA,incomplete,37,shape,1,left,Blue_Circle_Chess_2.jpg,Purple_Circle_Stripes_1.jpg,Red_Star_Grid_2.jpg,left,561.6799999988871,true,NA,NA,NA,NA,NA,NA,NA,NA,true
uRdgWZA4,3jhb4bpsgnm0h9bvp7tggfn0kkoq96,35gmh2sv3iugednq97m088p2ic6eoj,uRdgWZA4,2020-0188,2020-05-21,15:46:54,16:05:15,NA,incomplete,38,shape,1,left,Red_Plus_Dots_3.jpg,Green_Plus_Chess_4.jpg,Blue_Star_Grid_3.jpg,right,804.4399999998859,false,NA,NA,NA,NA,NA,NA,NA,NA,true
uRdgWZA4,3jhb4bpsgnm0h9bvp7tggfn0kkoq96,35gmh2sv3iugednq97m088p2ic6eoj,uRdgWZA4,2020-0188,2020-05-21,15:46:54,16:05:15,NA,incomplete,39,shape,1,right,Purple_Triangle_Dots_1.jpg,Blue_Star_Stripes_1.jpg,Green_Triangle_Grid_4.jpg,right,933.8650000008638,true,NA,NA,NA,NA,NA,NA,NA,NA,true
uRdgWZA4,3jhb4bpsgnm0h9bvp7tggfn0kkoq96,35gmh2sv3iugednq97m088p2ic6eoj,uRdgWZA4,2020-0188,2020-05-21,15:46:54,16:05:15,NA,incomplete,0,number,1,right,Red_Star_Stripes_1.jpg,Blue_Star_Grid_4.jpg,Purple_Triangle_Chess_1.jpg,left,1424.0449999997509,false,low,NA,NA,NA,NA,NA,NA,NA,false
uRdgWZA4,3jhb4bpsgnm0h9bvp7tggfn0kkoq96,35gmh2sv3iugednq97m088p2ic6eoj,uRdgWZA4,2020-0188,2020-05-21,15:46:54,16:05:15,NA,incomplete,1,number,1,right,Blue_Plus_Chess_2.jpg,Red_Plus_Stripes_3.jpg,Purple_Star_Grid_2.jpg,right,940.0850000001374,true,low,NA,NA,NA,NA,NA,NA,NA,false
uRdgWZA4,3jhb4bpsgnm0h9bvp7tggfn0kkoq96,35gmh2sv3iugednq97m088p2ic6eoj,uRdgWZA4,2020-0188,2020-05-21,15:46:54,16:05:15,NA,incomplete,2,number,1,right,Red_Circle_Grid_4.jpg,Purple_Circle_Dots_3.jpg,Green_Star_Chess_4.jpg,left,1140.6299999998882,false,low,NA,NA,NA,NA,NA,NA,NA,false
uRdgWZA4,3jhb4bpsgnm0h9bvp7tggfn0kkoq96,35gmh2sv3iugednq97m088p2ic6eoj,uRdgWZA4,2020-0188,2020-05-21,15:46:54,16:05:15,NA,incomplete,3,number,1,left,Red_Star_Chess_2.jpg,Green_Circle_Dots_2.jpg,Purple_Star_Stripes_4.jpg,right,964.1849999988917,false,low,NA,NA,NA,NA,NA,NA,NA,false
uRdgWZA4,3jhb4bpsgnm0h9bvp7tggfn0kkoq96,35gmh2sv3iugednq97m088p2ic6eoj,uRdgWZA4,2020-0188,2020-05-21,15:46:54,16:05:15,NA,incomplete,4,number,1,right,Red_Triangle_Stripes_4.jpg,Blue_Triangle_Grid_3.jpg,Green_Plus_Chess_4.jpg,right,890.865000001213,true,low,NA,NA,NA,NA,NA,NA,NA,false
uRdgWZA4,3jhb4bpsgnm0h9bvp7tggfn0kkoq96,35gmh2sv3iugednq97m088p2ic6eoj,uRdgWZA4,2020-0188,2020-05-21,15:46:54,16:05:15,NA,incomplete,5,number,1,right,Red_Triangle_Chess_2.jpg,Blue_Triangle_Dots_1.jpg,Green_Circle_Stripes_2.jpg,right,867.4950000004028,true,low,NA,NA,NA,NA,NA,NA,NA,false
uRdgWZA4,3jhb4bpsgnm0h9bvp7tggfn0kkoq96,35gmh2sv3iugednq97m088p2ic6eoj,uRdgWZA4,2020-0188,2020-05-21,15:46:54,16:05:15,NA,incomplete,6,number,1,right,Green_Triangle_Grid_3.jpg,Blue_Triangle_Chess_1.jpg,Purple_Circle_Dots_3.jpg,right,950.4400000005262,true,low,NA,NA,NA,NA,NA,NA,NA,false
uRdgWZA4,3jhb4bpsgnm0h9bvp7tggfn0kkoq96,35gmh2sv3iugednq97m088p2ic6eoj,uRdgWZA4,2020-0188,2020-05-21,15:46:54,16:05:15,NA,incomplete,7,number,1,right,Blue_Triangle_Grid_4.jpg,Purple_Triangle_Chess_1.jpg,Green_Plus_Stripes_4.jpg,right,806.140000000596,true,low,NA,NA,NA,NA,NA,NA,NA,false
uRdgWZA4,3jhb4bpsgnm0h9bvp7tggfn0kkoq96,35gmh2sv3iugednq97m088p2ic6eoj,uRdgWZA4,2020-0188,2020-05-21,15:46:54,16:05:15,NA,incomplete,8,number,1,left,Blue_Triangle_Chess_3.jpg,Red_Star_Grid_3.jpg,Green_Triangle_Dots_4.jpg,left,739.6300000000629,true,low,NA,NA,NA,NA,NA,NA,NA,false
uRdgWZA4,3jhb4bpsgnm0h9bvp7tggfn0kkoq96,35gmh2sv3iugednq97m088p2ic6eoj,uRdgWZA4,2020-0188,2020-05-21,15:46:54,16:05:15,NA,incomplete,9,number,1,right,Purple_Triangle_Grid_2.jpg,Green_Triangle_Stripes_1.jpg,Red_Star_Dots_2.jpg,right,878.0600000008708,true,low,NA,NA,NA,NA,NA,NA,NA,false
uRdgWZA4,3jhb4bpsgnm0h9bvp7tggfn0kkoq96,35gmh2sv3iugednq97m088p2ic6eoj,uRdgWZA4,2020-0188,2020-05-21,15:46:54,16:05:15,NA,incomplete,10,number,1,right,Blue_Triangle_Dots_1.jpg,Red_Triangle_Stripes_3.jpg,Purple_Star_Chess_1.jpg,right,1012.7499999998836,true,low,NA,NA,NA,NA,NA,NA,NA,false
uRdgWZA4,3jhb4bpsgnm0h9bvp7tggfn0kkoq96,35gmh2sv3iugednq97m088p2ic6eoj,uRdgWZA4,2020-0188,2020-05-21,15:46:54,16:05:15,NA,incomplete,11,number,1,right,Red_Plus_Stripes_2.jpg,Purple_Plus_Dots_4.jpg,Green_Triangle_Chess_2.jpg,right,833.1799999996438,true,low,NA,NA,NA,NA,NA,NA,NA,false
uRdgWZA4,3jhb4bpsgnm0h9bvp7tggfn0kkoq96,35gmh2sv3iugednq97m088p2ic6eoj,uRdgWZA4,2020-0188,2020-05-21,15:46:54,16:05:15,NA,incomplete,12,number,1,right,Green_Triangle_Grid_1.jpg,Purple_Triangle_Stripes_4.jpg,Red_Plus_Dots_1.jpg,right,970.9899999997579,true,low,NA,NA,NA,NA,NA,NA,NA,false
uRdgWZA4,3jhb4bpsgnm0h9bvp7tggfn0kkoq96,35gmh2sv3iugednq97m088p2ic6eoj,uRdgWZA4,2020-0188,2020-05-21,15:46:54,16:05:15,NA,incomplete,13,number,1,right,Purple_Plus_Dots_3.jpg,Red_Plus_Grid_1.jpg,Green_Circle_Chess_3.jpg,right,1370.7800000011339,true,low,NA,NA,NA,NA,NA,NA,NA,false
uRdgWZA4,3jhb4bpsgnm0h9bvp7tggfn0kkoq96,35gmh2sv3iugednq97m088p2ic6eoj,uRdgWZA4,2020-0188,2020-05-21,15:46:54,16:05:15,NA,incomplete,14,number,1,left,Blue_Star_Chess_4.jpg,Red_Plus_Dots_4.jpg,Green_Star_Grid_2.jpg,left,774.3700000009849,true,low,NA,NA,NA,NA,NA,NA,NA,false
uRdgWZA4,3jhb4bpsgnm0h9bvp7tggfn0kkoq96,35gmh2sv3iugednq97m088p2ic6eoj,uRdgWZA4,2020-0188,2020-05-21,15:46:54,16:05:15,NA,incomplete,15,number,0,right,Blue_Circle_Chess_3.jpg,Purple_Circle_Grid_4.jpg,Green_Star_Dots_3.jpg,right,885.2950000000419,true,low,NA,NA,NA,NA,NA,NA,NA,false
uRdgWZA4,3jhb4bpsgnm0h9bvp7tggfn0kkoq96,35gmh2sv3iugednq97m088p2ic6eoj,uRdgWZA4,2020-0188,2020-05-21,15:46:54,16:05:15,NA,incomplete,16,number,0,left,Green_Star_Dots_3.jpg,Red_Circle_Grid_3.jpg,Purple_Star_Stripes_2.jpg,left,973.8350000006612,true,low,NA,NA,NA,NA,NA,NA,NA,false
uRdgWZA4,3jhb4bpsgnm0h9bvp7tggfn0kkoq96,35gmh2sv3iugednq97m088p2ic6eoj,uRdgWZA4,2020-0188,2020-05-21,15:46:54,16:05:15,NA,incomplete,17,number,1,right,Blue_Star_Stripes_1.jpg,Purple_Star_Grid_4.jpg,Red_Triangle_Dots_1.jpg,left,935.9000000004307,false,low,NA,NA,NA,NA,NA,NA,NA,false
uRdgWZA4,3jhb4bpsgnm0h9bvp7tggfn0kkoq96,35gmh2sv3iugednq97m088p2ic6eoj,uRdgWZA4,2020-0188,2020-05-21,15:46:54,16:05:15,NA,incomplete,18,number,0,left,Red_Star_Dots_3.jpg,Green_Triangle_Stripes_3.jpg,Purple_Star_Chess_4.jpg,right,1386.6149999994086,false,low,NA,NA,NA,NA,NA,NA,NA,false
uRdgWZA4,3jhb4bpsgnm0h9bvp7tggfn0kkoq96,35gmh2sv3iugednq97m088p2ic6eoj,uRdgWZA4,2020-0188,2020-05-21,15:46:54,16:05:15,NA,incomplete,19,number,1,right,Blue_Star_Chess_4.jpg,Purple_Star_Stripes_2.jpg,Red_Plus_Grid_4.jpg,right,1329.710000000021,true,low,NA,NA,NA,NA,NA,NA,NA,false
uRdgWZA4,3jhb4bpsgnm0h9bvp7tggfn0kkoq96,35gmh2sv3iugednq97m088p2ic6eoj,uRdgWZA4,2020-0188,2020-05-21,15:46:54,16:05:15,NA,incomplete,20,number,1,right,Purple_Star_Chess_4.jpg,Red_Star_Dots_2.jpg,Green_Plus_Grid_4.jpg,right,869.8349999994971,true,low,NA,NA,NA,NA,NA,NA,NA,false
uRdgWZA4,3jhb4bpsgnm0h9bvp7tggfn0kkoq96,35gmh2sv3iugednq97m088p2ic6eoj,uRdgWZA4,2020-0188,2020-05-21,15:46:54,16:05:15,NA,incomplete,21,number,0,right,Blue_Star_Chess_3.jpg,Purple_Star_Stripes_2.jpg,Red_Plus_Grid_3.jpg,right,793.4900000000489,true,low,NA,NA,NA,NA,NA,NA,NA,false
uRdgWZA4,3jhb4bpsgnm0h9bvp7tggfn0kkoq96,35gmh2sv3iugednq97m088p2ic6eoj,uRdgWZA4,2020-0188,2020-05-21,15:46:54,16:05:15,NA,incomplete,22,number,1,right,Purple_Star_Dots_2.jpg,Green_Star_Grid_3.jpg,Blue_Circle_Chess_2.jpg,right,1237.955000000482,true,low,NA,NA,NA,NA,NA,NA,NA,false
uRdgWZA4,3jhb4bpsgnm0h9bvp7tggfn0kkoq96,35gmh2sv3iugednq97m088p2ic6eoj,uRdgWZA4,2020-0188,2020-05-21,15:46:54,16:05:15,NA,incomplete,23,number,1,left,Green_Circle_Chess_4.jpg,Red_Star_Stripes_4.jpg,Purple_Circle_Dots_2.jpg,left,744.3399999993271,true,low,NA,NA,NA,NA,NA,NA,NA,false
uRdgWZA4,3jhb4bpsgnm0h9bvp7tggfn0kkoq96,35gmh2sv3iugednq97m088p2ic6eoj,uRdgWZA4,2020-0188,2020-05-21,15:46:54,16:05:15,NA,incomplete,24,number,1,left,Purple_Plus_Dots_3.jpg,Green_Triangle_Stripes_3.jpg,Red_Plus_Grid_4.jpg,left,808.9700000000303,true,low,NA,NA,NA,NA,NA,NA,NA,false
uRdgWZA4,3jhb4bpsgnm0h9bvp7tggfn0kkoq96,35gmh2sv3iugednq97m088p2ic6eoj,uRdgWZA4,2020-0188,2020-05-21,15:46:54,16:05:15,NA,incomplete,25,number,1,right,Green_Circle_Stripes_4.jpg,Purple_Circle_Grid_3.jpg,Blue_Plus_Chess_4.jpg,right,803.859999999986,true,low,NA,NA,NA,NA,NA,NA,NA,false
uRdgWZA4,3jhb4bpsgnm0h9bvp7tggfn0kkoq96,35gmh2sv3iugednq97m088p2ic6eoj,uRdgWZA4,2020-0188,2020-05-21,15:46:54,16:05:15,NA,incomplete,26,number,1,left,Green_Circle_Stripes_3.jpg,Blue_Triangle_Dots_3.jpg,Red_Circle_Grid_1.jpg,left,765.1249999999418,true,low,NA,NA,NA,NA,NA,NA,NA,false
uRdgWZA4,3jhb4bpsgnm0h9bvp7tggfn0kkoq96,35gmh2sv3iugednq97m088p2ic6eoj,uRdgWZA4,2020-0188,2020-05-21,15:46:54,16:05:15,NA,incomplete,27,number,0,right,Red_Star_Grid_2.jpg,Purple_Star_Stripes_1.jpg,Green_Triangle_Chess_2.jpg,right,794.9750000006752,true,low,NA,NA,NA,NA,NA,NA,NA,false
uRdgWZA4,3jhb4bpsgnm0h9bvp7tggfn0kkoq96,35gmh2sv3iugednq97m088p2ic6eoj,uRdgWZA4,2020-0188,2020-05-21,15:46:54,16:05:15,NA,incomplete,28,number,1,left,Blue_Star_Stripes_4.jpg,Purple_Plus_Grid_4.jpg,Green_Star_Chess_2.jpg,left,1072.334999998915,true,low,NA,NA,NA,NA,NA,NA,NA,false
uRdgWZA4,3jhb4bpsgnm0h9bvp7tggfn0kkoq96,35gmh2sv3iugednq97m088p2ic6eoj,uRdgWZA4,2020-0188,2020-05-21,15:46:54,16:05:15,NA,incomplete,29,number,1,right,Blue_Star_Chess_4.jpg,Purple_Star_Grid_2.jpg,Red_Triangle_Dots_4.jpg,right,969.1449999990873,true,low,NA,NA,NA,NA,NA,NA,NA,false
uRdgWZA4,3jhb4bpsgnm0h9bvp7tggfn0kkoq96,35gmh2sv3iugednq97m088p2ic6eoj,uRdgWZA4,2020-0188,2020-05-21,15:46:54,16:05:15,NA,incomplete,30,shape,1,right,Red_Triangle_Chess_1.jpg,Green_Star_Grid_1.jpg,Purple_Triangle_Stripes_4.jpg,left,830.4100000004983,false,low,NA,NA,NA,NA,NA,NA,NA,false
uRdgWZA4,3jhb4bpsgnm0h9bvp7tggfn0kkoq96,35gmh2sv3iugednq97m088p2ic6eoj,uRdgWZA4,2020-0188,2020-05-21,15:46:54,16:05:15,NA,incomplete,31,shape,1,left,Red_Plus_Dots_3.jpg,Blue_Plus_Chess_4.jpg,Purple_Star_Stripes_3.jpg,right,1213.734999999404,false,low,NA,NA,NA,NA,NA,NA,NA,false
uRdgWZA4,3jhb4bpsgnm0h9bvp7tggfn0kkoq96,35gmh2sv3iugednq97m088p2ic6eoj,uRdgWZA4,2020-0188,2020-05-21,15:46:54,16:05:15,NA,incomplete,32,shape,1,left,Red_Star_Grid_1.jpg,Green_Star_Dots_2.jpg,Purple_Circle_Stripes_1.jpg,right,939.9800000010291,false,low,NA,NA,NA,NA,NA,NA,NA,false
uRdgWZA4,3jhb4bpsgnm0h9bvp7tggfn0kkoq96,35gmh2sv3iugednq97m088p2ic6eoj,uRdgWZA4,2020-0188,2020-05-21,15:46:54,16:05:15,NA,incomplete,33,shape,1,right,Blue_Triangle_Chess_1.jpg,Red_Circle_Dots_1.jpg,Green_Triangle_Grid_3.jpg,left,1303.9000000007218,false,low,NA,NA,NA,NA,NA,NA,NA,false
uRdgWZA4,3jhb4bpsgnm0h9bvp7tggfn0kkoq96,35gmh2sv3iugednq97m088p2ic6eoj,uRdgWZA4,2020-0188,2020-05-21,15:46:54,16:05:15,NA,incomplete,34,shape,1,left,Red_Circle_Chess_2.jpg,Green_Circle_Stripes_4.jpg,Purple_Triangle_Grid_2.jpg,left,674.2849999992177,true,low,NA,NA,NA,NA,NA,NA,NA,false
uRdgWZA4,3jhb4bpsgnm0h9bvp7tggfn0kkoq96,35gmh2sv3iugednq97m088p2ic6eoj,uRdgWZA4,2020-0188,2020-05-21,15:46:54,16:05:15,NA,incomplete,35,shape,1,left,Purple_Plus_Dots_3.jpg,Green_Plus_Grid_2.jpg,Red_Triangle_Stripes_3.jpg,right,767.8300000006566,false,low,NA,NA,NA,NA,NA,NA,NA,false
uRdgWZA4,3jhb4bpsgnm0h9bvp7tggfn0kkoq96,35gmh2sv3iugednq97m088p2ic6eoj,uRdgWZA4,2020-0188,2020-05-21,15:46:54,16:05:15,NA,incomplete,36,shape,0,left,Purple_Triangle_Chess_2.jpg,Green_Triangle_Grid_4.jpg,Blue_Plus_Dots_2.jpg,left,911.225000001723,true,low,NA,NA,NA,NA,NA,NA,NA,false
uRdgWZA4,3jhb4bpsgnm0h9bvp7tggfn0kkoq96,35gmh2sv3iugednq97m088p2ic6eoj,uRdgWZA4,2020-0188,2020-05-21,15:46:54,16:05:15,NA,incomplete,37,shape,1,right,Blue_Circle_Stripes_2.jpg,Purple_Star_Chess_2.jpg,Red_Circle_Dots_3.jpg,right,926.644999999553,true,low,NA,NA,NA,NA,NA,NA,NA,false
uRdgWZA4,3jhb4bpsgnm0h9bvp7tggfn0kkoq96,35gmh2sv3iugednq97m088p2ic6eoj,uRdgWZA4,2020-0188,2020-05-21,15:46:54,16:05:15,NA,incomplete,38,shape,0,left,Blue_Star_Chess_1.jpg,Red_Star_Dots_3.jpg,Green_Triangle_Stripes_1.jpg,left,849.5300000013085,true,low,NA,NA,NA,NA,NA,NA,NA,false
uRdgWZA4,3jhb4bpsgnm0h9bvp7tggfn0kkoq96,35gmh2sv3iugednq97m088p2ic6eoj,uRdgWZA4,2020-0188,2020-05-21,15:46:54,16:05:15,NA,incomplete,39,shape,1,right,Blue_Circle_Dots_1.jpg,Green_Triangle_Grid_1.jpg,Purple_Circle_Stripes_4.jpg,right,804.3250000010012,true,low,NA,NA,NA,NA,NA,NA,NA,false
uRdgWZA4,3jhb4bpsgnm0h9bvp7tggfn0kkoq96,35gmh2sv3iugednq97m088p2ic6eoj,uRdgWZA4,2020-0188,2020-05-21,15:46:54,16:05:15,NA,incomplete,40,shape,1,right,Green_Plus_Dots_2.jpg,Blue_Circle_Chess_2.jpg,Purple_Plus_Grid_3.jpg,right,844.3499999993946,true,low,NA,NA,NA,NA,NA,NA,NA,false
uRdgWZA4,3jhb4bpsgnm0h9bvp7tggfn0kkoq96,35gmh2sv3iugednq97m088p2ic6eoj,uRdgWZA4,2020-0188,2020-05-21,15:46:54,16:05:15,NA,incomplete,41,shape,1,right,Green_Star_Chess_2.jpg,Purple_Circle_Grid_2.jpg,Red_Star_Stripes_4.jpg,right,712.3300000003073,true,low,NA,NA,NA,NA,NA,NA,NA,false
uRdgWZA4,3jhb4bpsgnm0h9bvp7tggfn0kkoq96,35gmh2sv3iugednq97m088p2ic6eoj,uRdgWZA4,2020-0188,2020-05-21,15:46:54,16:05:15,NA,incomplete,42,shape,1,right,Green_Circle_Stripes_4.jpg,Blue_Triangle_Dots_4.jpg,Purple_Circle_Chess_3.jpg,right,921.7449999996461,true,low,NA,NA,NA,NA,NA,NA,NA,false
uRdgWZA4,3jhb4bpsgnm0h9bvp7tggfn0kkoq96,35gmh2sv3iugednq97m088p2ic6eoj,uRdgWZA4,2020-0188,2020-05-21,15:46:54,16:05:15,NA,incomplete,43,shape,0,right,Purple_Star_Grid_1.jpg,Blue_Triangle_Dots_1.jpg,Green_Star_Stripes_2.jpg,right,868.7300000000978,true,low,NA,NA,NA,NA,NA,NA,NA,false
uRdgWZA4,3jhb4bpsgnm0h9bvp7tggfn0kkoq96,35gmh2sv3iugednq97m088p2ic6eoj,uRdgWZA4,2020-0188,2020-05-21,15:46:54,16:05:15,NA,incomplete,44,shape,1,right,Purple_Plus_Stripes_3.jpg,Blue_Star_Grid_3.jpg,Red_Plus_Chess_4.jpg,right,911.1749999992317,true,low,NA,NA,NA,NA,NA,NA,NA,false
uRdgWZA4,3jhb4bpsgnm0h9bvp7tggfn0kkoq96,35gmh2sv3iugednq97m088p2ic6eoj,uRdgWZA4,2020-0188,2020-05-21,15:46:54,16:05:15,NA,incomplete,45,shape,0,right,Blue_Triangle_Grid_1.jpg,Red_Star_Dots_1.jpg,Green_Triangle_Stripes_2.jpg,right,750.6850000008708,true,low,NA,NA,NA,NA,NA,NA,NA,false
uRdgWZA4,3jhb4bpsgnm0h9bvp7tggfn0kkoq96,35gmh2sv3iugednq97m088p2ic6eoj,uRdgWZA4,2020-0188,2020-05-21,15:46:54,16:05:15,NA,incomplete,46,shape,1,right,Purple_Circle_Grid_2.jpg,Blue_Plus_Chess_2.jpg,Green_Circle_Dots_4.jpg,right,831.3299999991432,true,low,NA,NA,NA,NA,NA,NA,NA,false
uRdgWZA4,3jhb4bpsgnm0h9bvp7tggfn0kkoq96,35gmh2sv3iugednq97m088p2ic6eoj,uRdgWZA4,2020-0188,2020-05-21,15:46:54,16:05:15,NA,incomplete,47,shape,1,right,Green_Triangle_Stripes_3.jpg,Purple_Star_Dots_3.jpg,Blue_Triangle_Chess_4.jpg,right,717.7250000004424,true,low,NA,NA,NA,NA,NA,NA,NA,false
uRdgWZA4,3jhb4bpsgnm0h9bvp7tggfn0kkoq96,35gmh2sv3iugednq97m088p2ic6eoj,uRdgWZA4,2020-0188,2020-05-21,15:46:54,16:05:15,NA,incomplete,48,shape,0,right,Blue_Triangle_Chess_3.jpg,Purple_Plus_Dots_3.jpg,Red_Triangle_Stripes_2.jpg,right,689.0650000005262,true,low,NA,NA,NA,NA,NA,NA,NA,false
uRdgWZA4,3jhb4bpsgnm0h9bvp7tggfn0kkoq96,35gmh2sv3iugednq97m088p2ic6eoj,uRdgWZA4,2020-0188,2020-05-21,15:46:54,16:05:15,NA,incomplete,49,shape,1,right,Blue_Star_Chess_2.jpg,Red_Triangle_Dots_2.jpg,Purple_Star_Stripes_4.jpg,right,774.2799999995623,true,low,NA,NA,NA,NA,NA,NA,NA,false
uRdgWZA4,3jhb4bpsgnm0h9bvp7tggfn0kkoq96,35gmh2sv3iugednq97m088p2ic6eoj,uRdgWZA4,2020-0188,2020-05-21,15:46:54,16:05:15,NA,incomplete,50,shape,1,left,Green_Plus_Chess_4.jpg,Purple_Plus_Grid_1.jpg,Red_Circle_Dots_4.jpg,left,865.1050000007963,true,low,NA,NA,NA,NA,NA,NA,NA,false
uRdgWZA4,3jhb4bpsgnm0h9bvp7tggfn0kkoq96,35gmh2sv3iugednq97m088p2ic6eoj,uRdgWZA4,2020-0188,2020-05-21,15:46:54,16:05:15,NA,incomplete,51,shape,0,right,Green_Circle_Dots_1.jpg,Purple_Star_Grid_1.jpg,Blue_Circle_Chess_2.jpg,right,758.3150000009919,true,low,NA,NA,NA,NA,NA,NA,NA,false
uRdgWZA4,3jhb4bpsgnm0h9bvp7tggfn0kkoq96,35gmh2sv3iugednq97m088p2ic6eoj,uRdgWZA4,2020-0188,2020-05-21,15:46:54,16:05:15,NA,incomplete,52,shape,0,left,Red_Triangle_Chess_3.jpg,Green_Triangle_Dots_2.jpg,Purple_Star_Grid_3.jpg,left,724.5250000014203,true,low,NA,NA,NA,NA,NA,NA,NA,false
uRdgWZA4,3jhb4bpsgnm0h9bvp7tggfn0kkoq96,35gmh2sv3iugednq97m088p2ic6eoj,uRdgWZA4,2020-0188,2020-05-21,15:46:54,16:05:15,NA,incomplete,53,shape,1,right,Red_Plus_Grid_3.jpg,Blue_Triangle_Chess_3.jpg,Purple_Plus_Dots_2.jpg,right,856.2099999999627,true,low,NA,NA,NA,NA,NA,NA,NA,false
uRdgWZA4,3jhb4bpsgnm0h9bvp7tggfn0kkoq96,35gmh2sv3iugednq97m088p2ic6eoj,uRdgWZA4,2020-0188,2020-05-21,15:46:54,16:05:15,NA,incomplete,54,shape,1,right,Purple_Circle_Grid_2.jpg,Blue_Star_Stripes_2.jpg,Red_Circle_Dots_1.jpg,right,660.4750000005588,true,low,NA,NA,NA,NA,NA,NA,NA,false
uRdgWZA4,3jhb4bpsgnm0h9bvp7tggfn0kkoq96,35gmh2sv3iugednq97m088p2ic6eoj,uRdgWZA4,2020-0188,2020-05-21,15:46:54,16:05:15,NA,incomplete,55,shape,1,left,Green_Circle_Grid_1.jpg,Purple_Circle_Stripes_2.jpg,Red_Plus_Chess_1.jpg,left,627.345000000787,true,low,NA,NA,NA,NA,NA,NA,NA,false
uRdgWZA4,3jhb4bpsgnm0h9bvp7tggfn0kkoq96,35gmh2sv3iugednq97m088p2ic6eoj,uRdgWZA4,2020-0188,2020-05-21,15:46:54,16:05:15,NA,incomplete,56,shape,1,right,Red_Triangle_Stripes_3.jpg,Purple_Circle_Dots_3.jpg,Blue_Triangle_Chess_2.jpg,right,548.2399999999907,true,low,NA,NA,NA,NA,NA,NA,NA,false
uRdgWZA4,3jhb4bpsgnm0h9bvp7tggfn0kkoq96,35gmh2sv3iugednq97m088p2ic6eoj,uRdgWZA4,2020-0188,2020-05-21,15:46:54,16:05:15,NA,incomplete,57,shape,1,left,Green_Star_Dots_2.jpg,Purple_Star_Chess_3.jpg,Red_Circle_Stripes_2.jpg,left,840.6200000009267,true,low,NA,NA,NA,NA,NA,NA,NA,false
uRdgWZA4,3jhb4bpsgnm0h9bvp7tggfn0kkoq96,35gmh2sv3iugednq97m088p2ic6eoj,uRdgWZA4,2020-0188,2020-05-21,15:46:54,16:05:15,NA,incomplete,58,shape,0,left,Red_Plus_Dots_3.jpg,Blue_Plus_Stripes_2.jpg,Purple_Triangle_Grid_3.jpg,left,1099.8400000007823,true,low,NA,NA,NA,NA,NA,NA,NA,false
uRdgWZA4,3jhb4bpsgnm0h9bvp7tggfn0kkoq96,35gmh2sv3iugednq97m088p2ic6eoj,uRdgWZA4,2020-0188,2020-05-21,15:46:54,16:05:15,NA,incomplete,59,shape,1,right,Red_Plus_Grid_1.jpg,Green_Circle_Dots_1.jpg,Blue_Plus_Chess_4.jpg,right,524.1800000004005,true,low,NA,NA,NA,NA,NA,NA,NA,false
uRdgWZA4,3jhb4bpsgnm0h9bvp7tggfn0kkoq96,35gmh2sv3iugednq97m088p2ic6eoj,uRdgWZA4,2020-0188,2020-05-21,15:46:54,16:05:15,NA,incomplete,60,number,1,left,Blue_Circle_Stripes_1.jpg,Purple_Triangle_Chess_1.jpg,Green_Circle_Grid_2.jpg,right,870.8750000004657,false,low,NA,NA,NA,NA,NA,NA,NA,false
uRdgWZA4,3jhb4bpsgnm0h9bvp7tggfn0kkoq96,35gmh2sv3iugednq97m088p2ic6eoj,uRdgWZA4,2020-0188,2020-05-21,15:46:54,16:05:15,NA,incomplete,61,number,1,right,Red_Triangle_Chess_4.jpg,Green_Triangle_Stripes_2.jpg,Purple_Star_Grid_4.jpg,left,725.7249999984633,false,low,NA,NA,NA,NA,NA,NA,NA,false
uRdgWZA4,3jhb4bpsgnm0h9bvp7tggfn0kkoq96,35gmh2sv3iugednq97m088p2ic6eoj,uRdgWZA4,2020-0188,2020-05-21,15:46:54,16:05:15,NA,incomplete,62,number,0,left,Purple_Circle_Grid_2.jpg,Green_Plus_Chess_2.jpg,Red_Circle_Stripes_4.jpg,right,749.6100000008009,false,low,NA,NA,NA,NA,NA,NA,NA,false
uRdgWZA4,3jhb4bpsgnm0h9bvp7tggfn0kkoq96,35gmh2sv3iugednq97m088p2ic6eoj,uRdgWZA4,2020-0188,2020-05-21,15:46:54,16:05:15,NA,incomplete,63,number,1,left,Purple_Circle_Grid_1.jpg,Red_Triangle_Stripes_1.jpg,Green_Circle_Dots_4.jpg,right,687.7050000003073,false,low,NA,NA,NA,NA,NA,NA,NA,false
uRdgWZA4,3jhb4bpsgnm0h9bvp7tggfn0kkoq96,35gmh2sv3iugednq97m088p2ic6eoj,uRdgWZA4,2020-0188,2020-05-21,15:46:54,16:05:15,NA,incomplete,64,number,1,right,Green_Triangle_Stripes_2.jpg,Red_Triangle_Chess_4.jpg,Blue_Circle_Dots_2.jpg,left,744.5999999999767,false,low,NA,NA,NA,NA,NA,NA,NA,false
uRdgWZA4,3jhb4bpsgnm0h9bvp7tggfn0kkoq96,35gmh2sv3iugednq97m088p2ic6eoj,uRdgWZA4,2020-0188,2020-05-21,15:46:54,16:05:15,NA,incomplete,65,number,1,left,Green_Star_Dots_4.jpg,Blue_Plus_Chess_4.jpg,Purple_Star_Grid_2.jpg,right,987.2250000007916,false,low,NA,NA,NA,NA,NA,NA,NA,false
uRdgWZA4,3jhb4bpsgnm0h9bvp7tggfn0kkoq96,35gmh2sv3iugednq97m088p2ic6eoj,uRdgWZA4,2020-0188,2020-05-21,15:46:54,16:05:15,NA,incomplete,66,number,1,left,Purple_Plus_Grid_3.jpg,Red_Circle_Chess_3.jpg,Blue_Plus_Dots_4.jpg,left,772.0699999991339,true,low,NA,NA,NA,NA,NA,NA,NA,false
uRdgWZA4,3jhb4bpsgnm0h9bvp7tggfn0kkoq96,35gmh2sv3iugednq97m088p2ic6eoj,uRdgWZA4,2020-0188,2020-05-21,15:46:54,16:05:15,NA,incomplete,67,number,0,left,Blue_Star_Stripes_3.jpg,Green_Plus_Chess_3.jpg,Purple_Star_Dots_4.jpg,left,777.645000000135,true,low,NA,NA,NA,NA,NA,NA,NA,false
uRdgWZA4,3jhb4bpsgnm0h9bvp7tggfn0kkoq96,35gmh2sv3iugednq97m088p2ic6eoj,uRdgWZA4,2020-0188,2020-05-21,15:46:54,16:05:15,NA,incomplete,68,number,1,right,Blue_Star_Stripes_2.jpg,Red_Star_Dots_1.jpg,Purple_Plus_Chess_2.jpg,right,822.5549999987707,true,low,NA,NA,NA,NA,NA,NA,NA,false
uRdgWZA4,3jhb4bpsgnm0h9bvp7tggfn0kkoq96,35gmh2sv3iugednq97m088p2ic6eoj,uRdgWZA4,2020-0188,2020-05-21,15:46:54,16:05:15,NA,incomplete,69,number,1,left,Red_Star_Dots_3.jpg,Green_Plus_Chess_3.jpg,Purple_Star_Stripes_4.jpg,left,589.0300000009593,true,low,NA,NA,NA,NA,NA,NA,NA,false
uRdgWZA4,3jhb4bpsgnm0h9bvp7tggfn0kkoq96,35gmh2sv3iugednq97m088p2ic6eoj,uRdgWZA4,2020-0188,2020-05-21,15:46:54,16:05:15,NA,incomplete,70,number,1,right,Green_Star_Stripes_1.jpg,Blue_Star_Grid_4.jpg,Purple_Triangle_Chess_1.jpg,right,875.5899999996182,true,low,NA,NA,NA,NA,NA,NA,NA,false
uRdgWZA4,3jhb4bpsgnm0h9bvp7tggfn0kkoq96,35gmh2sv3iugednq97m088p2ic6eoj,uRdgWZA4,2020-0188,2020-05-21,15:46:54,16:05:15,NA,incomplete,71,number,1,right,Blue_Plus_Chess_4.jpg,Purple_Plus_Grid_3.jpg,Green_Star_Dots_4.jpg,right,909.8400000003166,true,low,NA,NA,NA,NA,NA,NA,NA,false
uRdgWZA4,3jhb4bpsgnm0h9bvp7tggfn0kkoq96,35gmh2sv3iugednq97m088p2ic6eoj,uRdgWZA4,2020-0188,2020-05-21,15:46:54,16:05:15,NA,incomplete,72,number,1,right,Red_Circle_Chess_1.jpg,Purple_Circle_Grid_4.jpg,Green_Plus_Stripes_1.jpg,right,721.3350000000792,true,low,NA,NA,NA,NA,NA,NA,NA,false
uRdgWZA4,3jhb4bpsgnm0h9bvp7tggfn0kkoq96,35gmh2sv3iugednq97m088p2ic6eoj,uRdgWZA4,2020-0188,2020-05-21,15:46:54,16:05:15,NA,incomplete,73,number,1,left,Green_Triangle_Dots_1.jpg,Red_Circle_Grid_1.jpg,Purple_Triangle_Stripes_3.jpg,left,679.0300000011921,true,low,NA,NA,NA,NA,NA,NA,NA,false
uRdgWZA4,3jhb4bpsgnm0h9bvp7tggfn0kkoq96,35gmh2sv3iugednq97m088p2ic6eoj,uRdgWZA4,2020-0188,2020-05-21,15:46:54,16:05:15,NA,incomplete,74,number,1,right,Red_Plus_Dots_1.jpg,Blue_Plus_Stripes_2.jpg,Green_Star_Chess_1.jpg,right,634.4100000006147,true,low,NA,NA,NA,NA,NA,NA,NA,false
uRdgWZA4,3jhb4bpsgnm0h9bvp7tggfn0kkoq96,35gmh2sv3iugednq97m088p2ic6eoj,uRdgWZA4,2020-0188,2020-05-21,15:46:54,16:05:15,NA,incomplete,75,number,0,right,Green_Circle_Grid_4.jpg,Blue_Circle_Chess_2.jpg,Purple_Star_Dots_4.jpg,right,813.7499999993015,true,low,NA,NA,NA,NA,NA,NA,NA,false
uRdgWZA4,3jhb4bpsgnm0h9bvp7tggfn0kkoq96,35gmh2sv3iugednq97m088p2ic6eoj,uRdgWZA4,2020-0188,2020-05-21,15:46:54,16:05:15,NA,incomplete,76,number,1,left,Green_Triangle_Stripes_3.jpg,Purple_Circle_Chess_3.jpg,Red_Triangle_Grid_4.jpg,left,699.5549999992363,true,low,NA,NA,NA,NA,NA,NA,NA,false
uRdgWZA4,3jhb4bpsgnm0h9bvp7tggfn0kkoq96,35gmh2sv3iugednq97m088p2ic6eoj,uRdgWZA4,2020-0188,2020-05-21,15:46:54,16:05:15,NA,incomplete,77,number,1,left,Blue_Triangle_Chess_2.jpg,Purple_Plus_Stripes_2.jpg,Red_Triangle_Grid_3.jpg,left,710.6999999996042,true,low,NA,NA,NA,NA,NA,NA,NA,false
uRdgWZA4,3jhb4bpsgnm0h9bvp7tggfn0kkoq96,35gmh2sv3iugednq97m088p2ic6eoj,uRdgWZA4,2020-0188,2020-05-21,15:46:54,16:05:15,NA,incomplete,78,number,1,left,Blue_Circle_Grid_2.jpg,Purple_Star_Dots_2.jpg,Green_Circle_Chess_1.jpg,right,536.1300000004703,false,low,NA,NA,NA,NA,NA,NA,NA,false
uRdgWZA4,3jhb4bpsgnm0h9bvp7tggfn0kkoq96,35gmh2sv3iugednq97m088p2ic6eoj,uRdgWZA4,2020-0188,2020-05-21,15:46:54,16:05:15,NA,incomplete,79,number,1,left,Blue_Triangle_Chess_2.jpg,Purple_Plus_Grid_2.jpg,Green_Triangle_Stripes_1.jpg,left,763.2199999989243,true,low,NA,NA,NA,NA,NA,NA,NA,false
uRdgWZA4,3jhb4bpsgnm0h9bvp7tggfn0kkoq96,35gmh2sv3iugednq97m088p2ic6eoj,uRdgWZA4,2020-0188,2020-05-21,15:46:54,16:05:15,NA,incomplete,80,number,1,right,Purple_Plus_Stripes_1.jpg,Red_Plus_Chess_2.jpg,Blue_Triangle_Grid_1.jpg,right,732.4599999992643,true,low,NA,NA,NA,NA,NA,NA,NA,false
uRdgWZA4,3jhb4bpsgnm0h9bvp7tggfn0kkoq96,35gmh2sv3iugednq97m088p2ic6eoj,uRdgWZA4,2020-0188,2020-05-21,15:46:54,16:05:15,NA,incomplete,81,number,1,left,Red_Plus_Chess_1.jpg,Green_Triangle_Stripes_1.jpg,Purple_Plus_Dots_2.jpg,left,547.0400000013178,true,low,NA,NA,NA,NA,NA,NA,NA,false
uRdgWZA4,3jhb4bpsgnm0h9bvp7tggfn0kkoq96,35gmh2sv3iugednq97m088p2ic6eoj,uRdgWZA4,2020-0188,2020-05-21,15:46:54,16:05:15,NA,incomplete,82,number,1,left,Green_Triangle_Grid_3.jpg,Purple_Plus_Chess_3.jpg,Blue_Triangle_Dots_4.jpg,left,778.8199999995995,true,low,NA,NA,NA,NA,NA,NA,NA,false
uRdgWZA4,3jhb4bpsgnm0h9bvp7tggfn0kkoq96,35gmh2sv3iugednq97m088p2ic6eoj,uRdgWZA4,2020-0188,2020-05-21,15:46:54,16:05:15,NA,incomplete,83,number,1,right,Blue_Circle_Stripes_4.jpg,Green_Circle_Grid_3.jpg,Red_Star_Dots_4.jpg,right,637.5900000003166,true,low,NA,NA,NA,NA,NA,NA,NA,false
uRdgWZA4,3jhb4bpsgnm0h9bvp7tggfn0kkoq96,35gmh2sv3iugednq97m088p2ic6eoj,uRdgWZA4,2020-0188,2020-05-21,15:46:54,16:05:15,NA,incomplete,84,number,0,left,Purple_Star_Stripes_2.jpg,Blue_Circle_Dots_2.jpg,Green_Star_Chess_1.jpg,left,719.2850000010803,true,low,NA,NA,NA,NA,NA,NA,NA,false
uRdgWZA4,3jhb4bpsgnm0h9bvp7tggfn0kkoq96,35gmh2sv3iugednq97m088p2ic6eoj,uRdgWZA4,2020-0188,2020-05-21,15:46:54,16:05:15,NA,incomplete,85,number,1,left,Green_Plus_Dots_3.jpg,Red_Circle_Chess_3.jpg,Purple_Plus_Grid_4.jpg,left,676.3650000012713,true,low,NA,NA,NA,NA,NA,NA,NA,false
uRdgWZA4,3jhb4bpsgnm0h9bvp7tggfn0kkoq96,35gmh2sv3iugednq97m088p2ic6eoj,uRdgWZA4,2020-0188,2020-05-21,15:46:54,16:05:15,NA,incomplete,86,number,1,right,Green_Star_Dots_1.jpg,Purple_Star_Chess_3.jpg,Red_Triangle_Grid_1.jpg,right,549.7149999991525,true,low,NA,NA,NA,NA,NA,NA,NA,false
uRdgWZA4,3jhb4bpsgnm0h9bvp7tggfn0kkoq96,35gmh2sv3iugednq97m088p2ic6eoj,uRdgWZA4,2020-0188,2020-05-21,15:46:54,16:05:15,NA,incomplete,87,number,1,right,Green_Plus_Dots_1.jpg,Blue_Plus_Chess_4.jpg,Purple_Triangle_Grid_1.jpg,right,710.7600000000093,true,low,NA,NA,NA,NA,NA,NA,NA,false
uRdgWZA4,3jhb4bpsgnm0h9bvp7tggfn0kkoq96,35gmh2sv3iugednq97m088p2ic6eoj,uRdgWZA4,2020-0188,2020-05-21,15:46:54,16:05:15,NA,incomplete,88,number,1,left,Green_Plus_Grid_1.jpg,Red_Circle_Stripes_1.jpg,Blue_Plus_Chess_4.jpg,left,648.4099999996834,true,low,NA,NA,NA,NA,NA,NA,NA,false
uRdgWZA4,3jhb4bpsgnm0h9bvp7tggfn0kkoq96,35gmh2sv3iugednq97m088p2ic6eoj,uRdgWZA4,2020-0188,2020-05-21,15:46:54,16:05:15,NA,incomplete,89,number,1,right,Blue_Circle_Grid_4.jpg,Green_Circle_Chess_2.jpg,Red_Triangle_Stripes_4.jpg,right,605.9450000011129,true,low,NA,NA,NA,NA,NA,NA,NA,false
uRdgWZA4,3jhb4bpsgnm0h9bvp7tggfn0kkoq96,35gmh2sv3iugednq97m088p2ic6eoj,uRdgWZA4,2020-0188,2020-05-21,15:46:54,16:05:15,NA,incomplete,90,shape,1,left,Green_Star_Chess_1.jpg,Blue_Star_Grid_2.jpg,Purple_Triangle_Dots_1.jpg,right,634.2949999998091,false,low,NA,NA,NA,NA,NA,NA,NA,false
uRdgWZA4,3jhb4bpsgnm0h9bvp7tggfn0kkoq96,35gmh2sv3iugednq97m088p2ic6eoj,uRdgWZA4,2020-0188,2020-05-21,15:46:54,16:05:15,NA,incomplete,91,shape,1,right,Blue_Circle_Grid_3.jpg,Purple_Plus_Chess_3.jpg,Green_Circle_Dots_4.jpg,left,694.360000001383,false,low,NA,NA,NA,NA,NA,NA,NA,false
uRdgWZA4,3jhb4bpsgnm0h9bvp7tggfn0kkoq96,35gmh2sv3iugednq97m088p2ic6eoj,uRdgWZA4,2020-0188,2020-05-21,15:46:54,16:05:15,NA,incomplete,92,shape,1,left,Blue_Star_Stripes_1.jpg,Red_Star_Grid_2.jpg,Purple_Triangle_Chess_1.jpg,right,473.7100000001956,false,low,NA,NA,NA,NA,NA,NA,NA,false
uRdgWZA4,3jhb4bpsgnm0h9bvp7tggfn0kkoq96,35gmh2sv3iugednq97m088p2ic6eoj,uRdgWZA4,2020-0188,2020-05-21,15:46:54,16:05:15,NA,incomplete,93,shape,0,right,Green_Circle_Stripes_2.jpg,Purple_Star_Grid_2.jpg,Blue_Circle_Chess_4.jpg,right,606.4050000003772,true,low,NA,NA,NA,NA,NA,NA,NA,false
uRdgWZA4,3jhb4bpsgnm0h9bvp7tggfn0kkoq96,35gmh2sv3iugednq97m088p2ic6eoj,uRdgWZA4,2020-0188,2020-05-21,15:46:54,16:05:15,NA,incomplete,94,shape,0,left,Red_Star_Chess_1.jpg,Green_Star_Grid_2.jpg,Purple_Plus_Dots_1.jpg,right,584.0449999995762,false,low,NA,NA,NA,NA,NA,NA,NA,false
uRdgWZA4,3jhb4bpsgnm0h9bvp7tggfn0kkoq96,35gmh2sv3iugednq97m088p2ic6eoj,uRdgWZA4,2020-0188,2020-05-21,15:46:54,16:05:15,NA,incomplete,95,shape,1,right,Green_Star_Dots_4.jpg,Purple_Triangle_Chess_4.jpg,Red_Star_Grid_1.jpg,left,559.5450000000419,false,low,NA,NA,NA,NA,NA,NA,NA,false
uRdgWZA4,3jhb4bpsgnm0h9bvp7tggfn0kkoq96,35gmh2sv3iugednq97m088p2ic6eoj,uRdgWZA4,2020-0188,2020-05-21,15:46:54,16:05:15,NA,incomplete,96,shape,0,right,Red_Triangle_Grid_3.jpg,Green_Circle_Stripes_3.jpg,Purple_Triangle_Chess_1.jpg,left,592.0449999993434,false,low,NA,NA,NA,NA,NA,NA,NA,false
uRdgWZA4,3jhb4bpsgnm0h9bvp7tggfn0kkoq96,35gmh2sv3iugednq97m088p2ic6eoj,uRdgWZA4,2020-0188,2020-05-21,15:46:54,16:05:15,NA,incomplete,97,shape,0,left,Purple_Star_Grid_3.jpg,Blue_Star_Stripes_4.jpg,Green_Plus_Dots_3.jpg,right,650.2600000002421,false,low,NA,NA,NA,NA,NA,NA,NA,false
uRdgWZA4,3jhb4bpsgnm0h9bvp7tggfn0kkoq96,35gmh2sv3iugednq97m088p2ic6eoj,uRdgWZA4,2020-0188,2020-05-21,15:46:54,16:05:15,NA,incomplete,98,shape,1,right,Green_Plus_Stripes_1.jpg,Red_Star_Grid_1.jpg,Blue_Plus_Chess_4.jpg,left,502.54500000108965,false,low,NA,NA,NA,NA,NA,NA,NA,false
uRdgWZA4,3jhb4bpsgnm0h9bvp7tggfn0kkoq96,35gmh2sv3iugednq97m088p2ic6eoj,uRdgWZA4,2020-0188,2020-05-21,15:46:54,16:05:15,NA,incomplete,99,shape,1,right,Blue_Circle_Grid_1.jpg,Green_Plus_Dots_1.jpg,Red_Circle_Stripes_3.jpg,left,536.645000000135,false,low,NA,NA,NA,NA,NA,NA,NA,false
uRdgWZA4,3jhb4bpsgnm0h9bvp7tggfn0kkoq96,35gmh2sv3iugednq97m088p2ic6eoj,uRdgWZA4,2020-0188,2020-05-21,15:46:54,16:05:15,NA,incomplete,100,shape,1,right,Green_Circle_Chess_3.jpg,Blue_Star_Dots_3.jpg,Red_Circle_Grid_2.jpg,left,531.2350000004517,false,low,NA,NA,NA,NA,NA,NA,NA,false
uRdgWZA4,3jhb4bpsgnm0h9bvp7tggfn0kkoq96,35gmh2sv3iugednq97m088p2ic6eoj,uRdgWZA4,2020-0188,2020-05-21,15:46:54,16:05:15,NA,incomplete,101,shape,1,left,Blue_Plus_Grid_3.jpg,Red_Plus_Dots_2.jpg,Purple_Star_Chess_3.jpg,left,781.3500000011409,true,low,NA,NA,NA,NA,NA,NA,NA,false
uRdgWZA4,3jhb4bpsgnm0h9bvp7tggfn0kkoq96,35gmh2sv3iugednq97m088p2ic6eoj,uRdgWZA4,2020-0188,2020-05-21,15:46:54,16:05:15,NA,incomplete,102,shape,1,left,Blue_Circle_Stripes_3.jpg,Green_Circle_Dots_4.jpg,Red_Star_Chess_3.jpg,left,622.2099999994971,true,low,NA,NA,NA,NA,NA,NA,NA,false
uRdgWZA4,3jhb4bpsgnm0h9bvp7tggfn0kkoq96,35gmh2sv3iugednq97m088p2ic6eoj,uRdgWZA4,2020-0188,2020-05-21,15:46:54,16:05:15,NA,incomplete,103,shape,1,left,Green_Triangle_Dots_4.jpg,Purple_Triangle_Grid_3.jpg,Red_Star_Chess_4.jpg,right,865.3950000007171,false,low,NA,NA,NA,NA,NA,NA,NA,false
uRdgWZA4,3jhb4bpsgnm0h9bvp7tggfn0kkoq96,35gmh2sv3iugednq97m088p2ic6eoj,uRdgWZA4,2020-0188,2020-05-21,15:46:54,16:05:15,NA,incomplete,104,shape,1,left,Blue_Circle_Stripes_3.jpg,Green_Circle_Chess_1.jpg,Red_Star_Dots_3.jpg,left,540.7450000002282,true,low,NA,NA,NA,NA,NA,NA,NA,false
uRdgWZA4,3jhb4bpsgnm0h9bvp7tggfn0kkoq96,35gmh2sv3iugednq97m088p2ic6eoj,uRdgWZA4,2020-0188,2020-05-21,15:46:54,16:05:15,NA,incomplete,105,shape,1,left,Purple_Plus_Chess_4.jpg,Green_Plus_Stripes_3.jpg,Blue_Star_Dots_4.jpg,right,808.4799999996321,false,low,NA,NA,NA,NA,NA,NA,NA,false
uRdgWZA4,3jhb4bpsgnm0h9bvp7tggfn0kkoq96,35gmh2sv3iugednq97m088p2ic6eoj,uRdgWZA4,2020-0188,2020-05-21,15:46:54,16:05:15,NA,incomplete,106,shape,1,left,Purple_Circle_Grid_2.jpg,Blue_Circle_Dots_4.jpg,Red_Triangle_Stripes_2.jpg,left,616.7700000006007,true,low,NA,NA,NA,NA,NA,NA,NA,false
uRdgWZA4,3jhb4bpsgnm0h9bvp7tggfn0kkoq96,35gmh2sv3iugednq97m088p2ic6eoj,uRdgWZA4,2020-0188,2020-05-21,15:46:54,16:05:15,NA,incomplete,107,shape,1,left,Blue_Triangle_Dots_1.jpg,Green_Triangle_Stripes_2.jpg,Purple_Circle_Chess_1.jpg,left,555.3399999990361,true,low,NA,NA,NA,NA,NA,NA,NA,false
uRdgWZA4,3jhb4bpsgnm0h9bvp7tggfn0kkoq96,35gmh2sv3iugednq97m088p2ic6eoj,uRdgWZA4,2020-0188,2020-05-21,15:46:54,16:05:15,NA,incomplete,108,shape,1,left,Blue_Star_Chess_4.jpg,Green_Star_Stripes_3.jpg,Purple_Plus_Grid_4.jpg,left,793.0950000009034,true,low,NA,NA,NA,NA,NA,NA,NA,false
uRdgWZA4,3jhb4bpsgnm0h9bvp7tggfn0kkoq96,35gmh2sv3iugednq97m088p2ic6eoj,uRdgWZA4,2020-0188,2020-05-21,15:46:54,16:05:15,NA,incomplete,109,shape,0,right,Blue_Triangle_Stripes_1.jpg,Red_Star_Grid_1.jpg,Purple_Triangle_Dots_3.jpg,right,727.4550000001909,true,low,NA,NA,NA,NA,NA,NA,NA,false
uRdgWZA4,3jhb4bpsgnm0h9bvp7tggfn0kkoq96,35gmh2sv3iugednq97m088p2ic6eoj,uRdgWZA4,2020-0188,2020-05-21,15:46:54,16:05:15,NA,incomplete,110,shape,1,left,Green_Triangle_Dots_3.jpg,Blue_Triangle_Grid_4.jpg,Red_Plus_Chess_3.jpg,left,593.9149999994552,true,low,NA,NA,NA,NA,NA,NA,NA,false
uRdgWZA4,3jhb4bpsgnm0h9bvp7tggfn0kkoq96,35gmh2sv3iugednq97m088p2ic6eoj,uRdgWZA4,2020-0188,2020-05-21,15:46:54,16:05:15,NA,incomplete,111,shape,1,left,Red_Plus_Dots_2.jpg,Blue_Plus_Stripes_4.jpg,Purple_Circle_Chess_2.jpg,left,517.3350000005448,true,low,NA,NA,NA,NA,NA,NA,NA,false
uRdgWZA4,3jhb4bpsgnm0h9bvp7tggfn0kkoq96,35gmh2sv3iugednq97m088p2ic6eoj,uRdgWZA4,2020-0188,2020-05-21,15:46:54,16:05:15,NA,incomplete,112,shape,0,right,Blue_Circle_Stripes_1.jpg,Red_Star_Dots_1.jpg,Green_Circle_Grid_3.jpg,right,681.5499999993481,true,low,NA,NA,NA,NA,NA,NA,NA,false
uRdgWZA4,3jhb4bpsgnm0h9bvp7tggfn0kkoq96,35gmh2sv3iugednq97m088p2ic6eoj,uRdgWZA4,2020-0188,2020-05-21,15:46:54,16:05:15,NA,incomplete,113,shape,1,left,Red_Plus_Grid_3.jpg,Green_Plus_Chess_4.jpg,Purple_Circle_Dots_3.jpg,left,496.23000000067987,true,low,NA,NA,NA,NA,NA,NA,NA,false
uRdgWZA4,3jhb4bpsgnm0h9bvp7tggfn0kkoq96,35gmh2sv3iugednq97m088p2ic6eoj,uRdgWZA4,2020-0188,2020-05-21,15:46:54,16:05:15,NA,incomplete,114,shape,1,left,Red_Circle_Dots_3.jpg,Green_Circle_Grid_2.jpg,Purple_Star_Stripes_3.jpg,left,507.5749999996042,true,low,NA,NA,NA,NA,NA,NA,NA,false
uRdgWZA4,3jhb4bpsgnm0h9bvp7tggfn0kkoq96,35gmh2sv3iugednq97m088p2ic6eoj,uRdgWZA4,2020-0188,2020-05-21,15:46:54,16:05:15,NA,incomplete,115,shape,0,right,Green_Triangle_Chess_1.jpg,Red_Plus_Stripes_1.jpg,Blue_Triangle_Grid_4.jpg,left,616.350000000326,false,low,NA,NA,NA,NA,NA,NA,NA,false
uRdgWZA4,3jhb4bpsgnm0h9bvp7tggfn0kkoq96,35gmh2sv3iugednq97m088p2ic6eoj,uRdgWZA4,2020-0188,2020-05-21,15:46:54,16:05:15,NA,incomplete,116,shape,1,right,Blue_Triangle_Stripes_1.jpg,Purple_Plus_Dots_1.jpg,Green_Triangle_Grid_4.jpg,left,528.7450000015087,false,low,NA,NA,NA,NA,NA,NA,NA,false
uRdgWZA4,3jhb4bpsgnm0h9bvp7tggfn0kkoq96,35gmh2sv3iugednq97m088p2ic6eoj,uRdgWZA4,2020-0188,2020-05-21,15:46:54,16:05:15,NA,incomplete,117,shape,1,right,Purple_Triangle_Dots_1.jpg,Red_Plus_Chess_1.jpg,Blue_Triangle_Grid_4.jpg,left,504.8900000001304,false,low,NA,NA,NA,NA,NA,NA,NA,false
uRdgWZA4,3jhb4bpsgnm0h9bvp7tggfn0kkoq96,35gmh2sv3iugednq97m088p2ic6eoj,uRdgWZA4,2020-0188,2020-05-21,15:46:54,16:05:15,NA,incomplete,118,shape,1,right,Purple_Plus_Stripes_1.jpg,Green_Triangle_Chess_1.jpg,Red_Plus_Grid_2.jpg,right,939.119999999064,true,low,NA,NA,NA,NA,NA,NA,NA,false
uRdgWZA4,3jhb4bpsgnm0h9bvp7tggfn0kkoq96,35gmh2sv3iugednq97m088p2ic6eoj,uRdgWZA4,2020-0188,2020-05-21,15:46:54,16:05:15,NA,incomplete,119,shape,1,right,Blue_Plus_Stripes_3.jpg,Purple_Star_Grid_3.jpg,Green_Plus_Chess_2.jpg,right,637.3000000002794,true,low,NA,NA,NA,NA,NA,NA,NA,false
uRdgWZA4,3jhb4bpsgnm0h9bvp7tggfn0kkoq96,35gmh2sv3iugednq97m088p2ic6eoj,uRdgWZA4,2020-0188,2020-05-21,15:46:54,16:05:15,NA,incomplete,120,color,0,left,Blue_Triangle_Dots_4.jpg,Blue_Circle_Chess_1.jpg,Purple_Star_Dots_2.jpg,NA,NA,NA,low,NA,NA,NA,NA,NA,NA,NA,false
uRdgWZA4,3jhb4bpsgnm0h9bvp7tggfn0kkoq96,35gmh2sv3iugednq97m088p2ic6eoj,uRdgWZA4,2020-0188,2020-05-21,15:46:54,16:05:15,NA,incomplete,121,color,1,right,Blue_Star_Dots_3.jpg,Purple_Plus_Dots_1.jpg,Blue_Triangle_Stripes_2.jpg,right,1252.6099999995204,true,low,NA,NA,NA,NA,NA,NA,NA,false
uRdgWZA4,3jhb4bpsgnm0h9bvp7tggfn0kkoq96,35gmh2sv3iugednq97m088p2ic6eoj,uRdgWZA4,2020-0188,2020-05-21,15:46:54,16:05:15,NA,incomplete,122,color,1,right,Blue_Circle_Grid_3.jpg,Red_Triangle_Grid_1.jpg,Blue_Plus_Dots_4.jpg,right,694.3749999991851,true,low,NA,NA,NA,NA,NA,NA,NA,false
uRdgWZA4,3jhb4bpsgnm0h9bvp7tggfn0kkoq96,35gmh2sv3iugednq97m088p2ic6eoj,uRdgWZA4,2020-0188,2020-05-21,15:46:54,16:05:15,NA,incomplete,123,color,1,right,Blue_Plus_Chess_1.jpg,Red_Star_Chess_4.jpg,Blue_Triangle_Stripes_3.jpg,right,552.3400000002002,true,low,NA,NA,NA,NA,NA,NA,NA,false
uRdgWZA4,3jhb4bpsgnm0h9bvp7tggfn0kkoq96,35gmh2sv3iugednq97m088p2ic6eoj,uRdgWZA4,2020-0188,2020-05-21,15:46:54,16:05:15,NA,incomplete,124,color,1,left,Purple_Plus_Dots_2.jpg,Purple_Star_Stripes_4.jpg,Red_Triangle_Dots_3.jpg,left,485.85000000102445,true,low,NA,NA,NA,NA,NA,NA,NA,false
uRdgWZA4,3jhb4bpsgnm0h9bvp7tggfn0kkoq96,35gmh2sv3iugednq97m088p2ic6eoj,uRdgWZA4,2020-0188,2020-05-21,15:46:54,16:05:15,NA,incomplete,125,color,1,left,Red_Circle_Chess_4.jpg,Red_Triangle_Grid_3.jpg,Purple_Star_Chess_2.jpg,left,491.7300000016112,true,low,NA,NA,NA,NA,NA,NA,NA,false
uRdgWZA4,3jhb4bpsgnm0h9bvp7tggfn0kkoq96,35gmh2sv3iugednq97m088p2ic6eoj,uRdgWZA4,2020-0188,2020-05-21,15:46:54,16:05:15,NA,incomplete,126,color,0,left,Green_Triangle_Grid_2.jpg,Green_Plus_Stripes_4.jpg,Red_Circle_Grid_3.jpg,left,509.82999999902677,true,low,NA,NA,NA,NA,NA,NA,NA,false
uRdgWZA4,3jhb4bpsgnm0h9bvp7tggfn0kkoq96,35gmh2sv3iugednq97m088p2ic6eoj,uRdgWZA4,2020-0188,2020-05-21,15:46:54,16:05:15,NA,incomplete,127,color,1,right,Blue_Star_Dots_2.jpg,Purple_Circle_Dots_4.jpg,Blue_Triangle_Stripes_3.jpg,right,492.1950000007637,true,low,NA,NA,NA,NA,NA,NA,NA,false
uRdgWZA4,3jhb4bpsgnm0h9bvp7tggfn0kkoq96,35gmh2sv3iugednq97m088p2ic6eoj,uRdgWZA4,2020-0188,2020-05-21,15:46:54,16:05:15,NA,incomplete,128,color,0,left,Blue_Plus_Chess_1.jpg,Blue_Star_Stripes_4.jpg,Green_Circle_Chess_2.jpg,left,415.71999999915715,true,low,NA,NA,NA,NA,NA,NA,NA,false
uRdgWZA4,3jhb4bpsgnm0h9bvp7tggfn0kkoq96,35gmh2sv3iugednq97m088p2ic6eoj,uRdgWZA4,2020-0188,2020-05-21,15:46:54,16:05:15,NA,incomplete,129,color,1,right,Red_Circle_Chess_3.jpg,Green_Plus_Chess_1.jpg,Red_Star_Stripes_2.jpg,right,477.29000000073574,true,low,NA,NA,NA,NA,NA,NA,NA,false
uRdgWZA4,3jhb4bpsgnm0h9bvp7tggfn0kkoq96,35gmh2sv3iugednq97m088p2ic6eoj,uRdgWZA4,2020-0188,2020-05-21,15:46:54,16:05:15,NA,incomplete,130,color,0,left,Red_Star_Chess_1.jpg,Red_Plus_Dots_4.jpg,Purple_Triangle_Chess_2.jpg,left,397.7000000013504,true,low,NA,NA,NA,NA,NA,NA,NA,false
uRdgWZA4,3jhb4bpsgnm0h9bvp7tggfn0kkoq96,35gmh2sv3iugednq97m088p2ic6eoj,uRdgWZA4,2020-0188,2020-05-21,15:46:54,16:05:15,NA,incomplete,131,color,1,left,Red_Circle_Dots_1.jpg,Red_Triangle_Stripes_2.jpg,Green_Star_Dots_3.jpg,left,496.89500000025146,true,low,NA,NA,NA,NA,NA,NA,NA,false
uRdgWZA4,3jhb4bpsgnm0h9bvp7tggfn0kkoq96,35gmh2sv3iugednq97m088p2ic6eoj,uRdgWZA4,2020-0188,2020-05-21,15:46:54,16:05:15,NA,incomplete,132,color,1,left,Green_Star_Chess_2.jpg,Green_Circle_Stripes_1.jpg,Blue_Triangle_Chess_3.jpg,left,450.53000000002794,true,low,NA,NA,NA,NA,NA,NA,NA,false
uRdgWZA4,3jhb4bpsgnm0h9bvp7tggfn0kkoq96,35gmh2sv3iugednq97m088p2ic6eoj,uRdgWZA4,2020-0188,2020-05-21,15:46:54,16:05:15,NA,incomplete,133,color,1,right,Purple_Star_Stripes_1.jpg,Green_Circle_Stripes_3.jpg,Purple_Plus_Dots_2.jpg,right,602.2850000008475,true,low,NA,NA,NA,NA,NA,NA,NA,false
uRdgWZA4,3jhb4bpsgnm0h9bvp7tggfn0kkoq96,35gmh2sv3iugednq97m088p2ic6eoj,uRdgWZA4,2020-0188,2020-05-21,15:46:54,16:05:15,NA,incomplete,134,color,1,right,Blue_Circle_Stripes_2.jpg,Purple_Plus_Stripes_1.jpg,Blue_Star_Grid_3.jpg,right,586.2200000010198,true,low,NA,NA,NA,NA,NA,NA,NA,false
uRdgWZA4,3jhb4bpsgnm0h9bvp7tggfn0kkoq96,35gmh2sv3iugednq97m088p2ic6eoj,uRdgWZA4,2020-0188,2020-05-21,15:46:54,16:05:15,NA,incomplete,135,color,1,right,Blue_Star_Chess_3.jpg,Purple_Triangle_Chess_4.jpg,Blue_Circle_Dots_1.jpg,right,555.7100000005448,true,low,NA,NA,NA,NA,NA,NA,NA,false
uRdgWZA4,3jhb4bpsgnm0h9bvp7tggfn0kkoq96,35gmh2sv3iugednq97m088p2ic6eoj,uRdgWZA4,2020-0188,2020-05-21,15:46:54,16:05:15,NA,incomplete,136,color,1,left,Blue_Circle_Dots_4.jpg,Blue_Plus_Chess_2.jpg,Purple_Triangle_Dots_3.jpg,left,572.4749999990454,true,low,NA,NA,NA,NA,NA,NA,NA,false
uRdgWZA4,3jhb4bpsgnm0h9bvp7tggfn0kkoq96,35gmh2sv3iugednq97m088p2ic6eoj,uRdgWZA4,2020-0188,2020-05-21,15:46:54,16:05:15,NA,incomplete,137,color,1,right,Blue_Plus_Grid_4.jpg,Purple_Triangle_Grid_1.jpg,Blue_Circle_Dots_3.jpg,right,488.13499999954365,true,low,NA,NA,NA,NA,NA,NA,NA,false
uRdgWZA4,3jhb4bpsgnm0h9bvp7tggfn0kkoq96,35gmh2sv3iugednq97m088p2ic6eoj,uRdgWZA4,2020-0188,2020-05-21,15:46:54,16:05:15,NA,incomplete,138,color,1,left,Blue_Star_Grid_3.jpg,Blue_Plus_Stripes_1.jpg,Green_Circle_Grid_4.jpg,left,435.4400000011083,true,low,NA,NA,NA,NA,NA,NA,NA,false
uRdgWZA4,3jhb4bpsgnm0h9bvp7tggfn0kkoq96,35gmh2sv3iugednq97m088p2ic6eoj,uRdgWZA4,2020-0188,2020-05-21,15:46:54,16:05:15,NA,incomplete,139,color,1,right,Green_Triangle_Dots_4.jpg,Blue_Circle_Dots_1.jpg,Green_Plus_Grid_2.jpg,right,483.71500000031665,true,low,NA,NA,NA,NA,NA,NA,NA,false
uRdgWZA4,3jhb4bpsgnm0h9bvp7tggfn0kkoq96,35gmh2sv3iugednq97m088p2ic6eoj,uRdgWZA4,2020-0188,2020-05-21,15:46:54,16:05:15,NA,incomplete,140,filling,0,left,Red_Plus_Grid_3.jpg,Green_Triangle_Grid_4.jpg,Red_Circle_Stripes_2.jpg,right,543.1499999995576,false,low,NA,NA,NA,NA,NA,NA,NA,false
uRdgWZA4,3jhb4bpsgnm0h9bvp7tggfn0kkoq96,35gmh2sv3iugednq97m088p2ic6eoj,uRdgWZA4,2020-0188,2020-05-21,15:46:54,16:05:15,NA,incomplete,141,filling,1,right,Red_Triangle_Chess_2.jpg,Red_Circle_Dots_1.jpg,Blue_Star_Chess_4.jpg,left,474.6800000012154,false,low,NA,NA,NA,NA,NA,NA,NA,false
uRdgWZA4,3jhb4bpsgnm0h9bvp7tggfn0kkoq96,35gmh2sv3iugednq97m088p2ic6eoj,uRdgWZA4,2020-0188,2020-05-21,15:46:54,16:05:15,NA,incomplete,142,filling,1,right,Green_Star_Stripes_4.jpg,Green_Plus_Grid_3.jpg,Purple_Triangle_Stripes_2.jpg,left,494.8599999988219,false,low,NA,NA,NA,NA,NA,NA,NA,false
uRdgWZA4,3jhb4bpsgnm0h9bvp7tggfn0kkoq96,35gmh2sv3iugednq97m088p2ic6eoj,uRdgWZA4,2020-0188,2020-05-21,15:46:54,16:05:15,NA,incomplete,143,filling,1,left,Blue_Triangle_Dots_3.jpg,Green_Circle_Dots_1.jpg,Blue_Plus_Chess_2.jpg,right,716.2049999987939,false,low,NA,NA,NA,NA,NA,NA,NA,false
uRdgWZA4,3jhb4bpsgnm0h9bvp7tggfn0kkoq96,35gmh2sv3iugednq97m088p2ic6eoj,uRdgWZA4,2020-0188,2020-05-21,15:46:54,16:05:15,NA,incomplete,144,filling,1,right,Red_Circle_Grid_2.jpg,Red_Triangle_Dots_3.jpg,Purple_Plus_Grid_4.jpg,right,840.1850000009872,true,low,NA,NA,NA,NA,NA,NA,NA,false
uRdgWZA4,3jhb4bpsgnm0h9bvp7tggfn0kkoq96,35gmh2sv3iugednq97m088p2ic6eoj,uRdgWZA4,2020-0188,2020-05-21,15:46:54,16:05:15,NA,incomplete,145,filling,1,left,Red_Circle_Stripes_1.jpg,Green_Triangle_Stripes_4.jpg,Red_Plus_Dots_2.jpg,left,696.9149999986403,true,low,NA,NA,NA,NA,NA,NA,NA,false
uRdgWZA4,3jhb4bpsgnm0h9bvp7tggfn0kkoq96,35gmh2sv3iugednq97m088p2ic6eoj,uRdgWZA4,2020-0188,2020-05-21,15:46:54,16:05:15,NA,incomplete,146,filling,1,left,Blue_Star_Dots_3.jpg,Red_Circle_Dots_2.jpg,Blue_Triangle_Stripes_4.jpg,left,717.7649999994319,true,low,NA,NA,NA,NA,NA,NA,NA,false
uRdgWZA4,3jhb4bpsgnm0h9bvp7tggfn0kkoq96,35gmh2sv3iugednq97m088p2ic6eoj,uRdgWZA4,2020-0188,2020-05-21,15:46:54,16:05:15,NA,incomplete,147,filling,1,right,Purple_Triangle_Chess_4.jpg,Purple_Circle_Dots_1.jpg,Green_Star_Chess_3.jpg,right,712.1200000001118,true,low,NA,NA,NA,NA,NA,NA,NA,false
uRdgWZA4,3jhb4bpsgnm0h9bvp7tggfn0kkoq96,35gmh2sv3iugednq97m088p2ic6eoj,uRdgWZA4,2020-0188,2020-05-21,15:46:54,16:05:15,NA,incomplete,148,filling,1,left,Blue_Star_Grid_4.jpg,Purple_Plus_Grid_1.jpg,Blue_Circle_Stripes_3.jpg,right,758.7350000012666,false,low,NA,NA,NA,NA,NA,NA,NA,false
uRdgWZA4,3jhb4bpsgnm0h9bvp7tggfn0kkoq96,35gmh2sv3iugednq97m088p2ic6eoj,uRdgWZA4,2020-0188,2020-05-21,15:46:54,16:05:15,NA,incomplete,149,filling,0,right,Blue_Star_Dots_4.jpg,Blue_Plus_Stripes_2.jpg,Green_Circle_Dots_1.jpg,right,798.4349999987753,true,low,NA,NA,NA,NA,NA,NA,NA,false
uRdgWZA4,3jhb4bpsgnm0h9bvp7tggfn0kkoq96,35gmh2sv3iugednq97m088p2ic6eoj,uRdgWZA4,2020-0188,2020-05-21,15:46:54,16:05:15,NA,incomplete,150,filling,1,right,Red_Triangle_Grid_4.jpg,Red_Circle_Chess_3.jpg,Purple_Star_Grid_1.jpg,left,720.0200000006007,false,low,NA,NA,NA,NA,NA,NA,NA,false
uRdgWZA4,3jhb4bpsgnm0h9bvp7tggfn0kkoq96,35gmh2sv3iugednq97m088p2ic6eoj,uRdgWZA4,2020-0188,2020-05-21,15:46:54,16:05:15,NA,incomplete,151,filling,1,right,Purple_Plus_Stripes_1.jpg,Purple_Star_Chess_3.jpg,Blue_Triangle_Stripes_2.jpg,right,793.4299999998184,true,low,NA,NA,NA,NA,NA,NA,NA,false
uRdgWZA4,3jhb4bpsgnm0h9bvp7tggfn0kkoq96,35gmh2sv3iugednq97m088p2ic6eoj,uRdgWZA4,2020-0188,2020-05-21,15:46:54,16:05:15,NA,incomplete,152,filling,1,left,Purple_Star_Stripes_4.jpg,Green_Circle_Stripes_1.jpg,Purple_Plus_Grid_2.jpg,right,705.2050000001909,false,low,NA,NA,NA,NA,NA,NA,NA,false
uRdgWZA4,3jhb4bpsgnm0h9bvp7tggfn0kkoq96,35gmh2sv3iugednq97m088p2ic6eoj,uRdgWZA4,2020-0188,2020-05-21,15:46:54,16:05:15,NA,incomplete,153,filling,1,right,Red_Triangle_Dots_1.jpg,Red_Plus_Grid_4.jpg,Green_Star_Dots_2.jpg,left,724.6699999995762,false,low,NA,NA,NA,NA,NA,NA,NA,false
uRdgWZA4,3jhb4bpsgnm0h9bvp7tggfn0kkoq96,35gmh2sv3iugednq97m088p2ic6eoj,uRdgWZA4,2020-0188,2020-05-21,15:46:54,16:05:15,NA,incomplete,154,filling,1,right,Green_Triangle_Grid_2.jpg,Green_Plus_Dots_3.jpg,Blue_Circle_Grid_1.jpg,right,770.0300000015413,true,low,NA,NA,NA,NA,NA,NA,NA,false
uRdgWZA4,3jhb4bpsgnm0h9bvp7tggfn0kkoq96,35gmh2sv3iugednq97m088p2ic6eoj,uRdgWZA4,2020-0188,2020-05-21,15:46:54,16:05:15,NA,incomplete,155,filling,1,left,Purple_Triangle_Stripes_1.jpg,Green_Plus_Stripes_2.jpg,Purple_Star_Grid_4.jpg,left,785.0049999997718,true,low,NA,NA,NA,NA,NA,NA,NA,false
uRdgWZA4,3jhb4bpsgnm0h9bvp7tggfn0kkoq96,35gmh2sv3iugednq97m088p2ic6eoj,uRdgWZA4,2020-0188,2020-05-21,15:46:54,16:05:15,NA,incomplete,156,filling,0,left,Red_Plus_Chess_3.jpg,Purple_Star_Chess_4.jpg,Red_Triangle_Stripes_2.jpg,left,758.0350000007311,true,low,NA,NA,NA,NA,NA,NA,NA,false
uRdgWZA4,3jhb4bpsgnm0h9bvp7tggfn0kkoq96,35gmh2sv3iugednq97m088p2ic6eoj,uRdgWZA4,2020-0188,2020-05-21,15:46:54,16:05:15,NA,incomplete,157,filling,1,right,Green_Triangle_Dots_2.jpg,Green_Plus_Stripes_1.jpg,Red_Circle_Dots_3.jpg,right,913.4999999987194,true,low,NA,NA,NA,NA,NA,NA,NA,false
uRdgWZA4,3jhb4bpsgnm0h9bvp7tggfn0kkoq96,35gmh2sv3iugednq97m088p2ic6eoj,uRdgWZA4,2020-0188,2020-05-21,15:46:54,16:05:15,NA,incomplete,158,filling,1,left,Purple_Triangle_Chess_2.jpg,Green_Plus_Chess_1.jpg,Purple_Star_Dots_4.jpg,left,807.0150000002468,true,low,NA,NA,NA,NA,NA,NA,NA,false
uRdgWZA4,3jhb4bpsgnm0h9bvp7tggfn0kkoq96,35gmh2sv3iugednq97m088p2ic6eoj,uRdgWZA4,2020-0188,2020-05-21,15:46:54,16:05:15,NA,incomplete,159,filling,0,left,Red_Star_Dots_4.jpg,Blue_Circle_Dots_3.jpg,Red_Triangle_Grid_1.jpg,right,737.3650000008056,false,low,NA,NA,NA,NA,NA,NA,NA,false
uRdgWZA4,3jhb4bpsgnm0h9bvp7tggfn0kkoq96,35gmh2sv3iugednq97m088p2ic6eoj,uRdgWZA4,2020-0188,2020-05-21,15:46:54,16:05:15,NA,incomplete,160,color,1,left,Green_Triangle_Stripes_1.jpg,Green_Circle_Dots_2.jpg,Blue_Plus_Stripes_4.jpg,left,671.9649999995017,true,low,NA,NA,NA,NA,NA,NA,NA,false
uRdgWZA4,3jhb4bpsgnm0h9bvp7tggfn0kkoq96,35gmh2sv3iugednq97m088p2ic6eoj,uRdgWZA4,2020-0188,2020-05-21,15:46:54,16:05:15,NA,incomplete,161,color,1,left,Purple_Circle_Dots_3.jpg,Purple_Triangle_Stripes_4.jpg,Red_Plus_Dots_1.jpg,left,638.9300000009825,true,low,NA,NA,NA,NA,NA,NA,NA,false
uRdgWZA4,3jhb4bpsgnm0h9bvp7tggfn0kkoq96,35gmh2sv3iugednq97m088p2ic6eoj,uRdgWZA4,2020-0188,2020-05-21,15:46:54,16:05:15,NA,incomplete,162,color,1,right,Blue_Circle_Dots_4.jpg,Purple_Plus_Dots_3.jpg,Blue_Triangle_Stripes_1.jpg,right,457.41999999887776,true,low,NA,NA,NA,NA,NA,NA,NA,false
uRdgWZA4,3jhb4bpsgnm0h9bvp7tggfn0kkoq96,35gmh2sv3iugednq97m088p2ic6eoj,uRdgWZA4,2020-0188,2020-05-21,15:46:54,16:05:15,NA,incomplete,163,color,1,right,Blue_Triangle_Dots_2.jpg,Purple_Star_Dots_3.jpg,Blue_Circle_Grid_1.jpg,right,656.6300000014016,true,low,NA,NA,NA,NA,NA,NA,NA,false
uRdgWZA4,3jhb4bpsgnm0h9bvp7tggfn0kkoq96,35gmh2sv3iugednq97m088p2ic6eoj,uRdgWZA4,2020-0188,2020-05-21,15:46:54,16:05:15,NA,incomplete,164,color,0,right,Red_Plus_Chess_1.jpg,Green_Triangle_Chess_2.jpg,Red_Circle_Stripes_3.jpg,right,498.9999999998836,true,low,NA,NA,NA,NA,NA,NA,NA,false
uRdgWZA4,3jhb4bpsgnm0h9bvp7tggfn0kkoq96,35gmh2sv3iugednq97m088p2ic6eoj,uRdgWZA4,2020-0188,2020-05-21,15:46:54,16:05:15,NA,incomplete,165,color,1,right,Red_Circle_Stripes_4.jpg,Purple_Plus_Stripes_2.jpg,Red_Triangle_Dots_1.jpg,right,583.6500000003725,true,low,NA,NA,NA,NA,NA,NA,NA,false
uRdgWZA4,3jhb4bpsgnm0h9bvp7tggfn0kkoq96,35gmh2sv3iugednq97m088p2ic6eoj,uRdgWZA4,2020-0188,2020-05-21,15:46:54,16:05:15,NA,incomplete,166,color,1,left,Blue_Plus_Stripes_2.jpg,Blue_Triangle_Chess_3.jpg,Green_Circle_Stripes_1.jpg,left,449.7150000006659,true,low,NA,NA,NA,NA,NA,NA,NA,false
uRdgWZA4,3jhb4bpsgnm0h9bvp7tggfn0kkoq96,35gmh2sv3iugednq97m088p2ic6eoj,uRdgWZA4,2020-0188,2020-05-21,15:46:54,16:05:15,NA,incomplete,167,color,1,right,Blue_Star_Chess_2.jpg,Green_Triangle_Chess_4.jpg,Blue_Plus_Stripes_1.jpg,right,663.9599999998463,true,low,NA,NA,NA,NA,NA,NA,NA,false
uRdgWZA4,3jhb4bpsgnm0h9bvp7tggfn0kkoq96,35gmh2sv3iugednq97m088p2ic6eoj,uRdgWZA4,2020-0188,2020-05-21,15:46:54,16:05:15,NA,incomplete,168,color,0,left,Red_Triangle_Chess_1.jpg,Red_Circle_Dots_4.jpg,Blue_Star_Chess_3.jpg,left,498.8000000012107,true,low,NA,NA,NA,NA,NA,NA,NA,false
uRdgWZA4,3jhb4bpsgnm0h9bvp7tggfn0kkoq96,35gmh2sv3iugednq97m088p2ic6eoj,uRdgWZA4,2020-0188,2020-05-21,15:46:54,16:05:15,NA,incomplete,169,color,1,left,Green_Star_Chess_2.jpg,Green_Circle_Grid_4.jpg,Blue_Triangle_Chess_3.jpg,left,562.6850000007544,true,low,NA,NA,NA,NA,NA,NA,NA,false
uRdgWZA4,3jhb4bpsgnm0h9bvp7tggfn0kkoq96,35gmh2sv3iugednq97m088p2ic6eoj,uRdgWZA4,2020-0188,2020-05-21,15:46:54,16:05:15,NA,incomplete,170,color,1,left,Green_Plus_Stripes_4.jpg,Green_Triangle_Grid_3.jpg,Blue_Circle_Stripes_1.jpg,left,487.554999999702,true,low,NA,NA,NA,NA,NA,NA,NA,false
uRdgWZA4,3jhb4bpsgnm0h9bvp7tggfn0kkoq96,35gmh2sv3iugednq97m088p2ic6eoj,uRdgWZA4,2020-0188,2020-05-21,15:46:54,16:05:15,NA,incomplete,171,color,0,right,Purple_Star_Dots_2.jpg,Blue_Plus_Dots_4.jpg,Purple_Circle_Grid_1.jpg,right,547.2650000010617,true,low,NA,NA,NA,NA,NA,NA,NA,false
uRdgWZA4,3jhb4bpsgnm0h9bvp7tggfn0kkoq96,35gmh2sv3iugednq97m088p2ic6eoj,uRdgWZA4,2020-0188,2020-05-21,15:46:54,16:05:15,NA,incomplete,172,color,1,left,Blue_Circle_Dots_1.jpg,Blue_Star_Chess_2.jpg,Red_Triangle_Dots_3.jpg,left,476.4300000005169,true,low,NA,NA,NA,NA,NA,NA,NA,false
uRdgWZA4,3jhb4bpsgnm0h9bvp7tggfn0kkoq96,35gmh2sv3iugednq97m088p2ic6eoj,uRdgWZA4,2020-0188,2020-05-21,15:46:54,16:05:15,NA,incomplete,173,color,1,left,Purple_Circle_Grid_1.jpg,Purple_Star_Chess_4.jpg,Green_Triangle_Grid_2.jpg,left,499.87499999953434,true,low,NA,NA,NA,NA,NA,NA,NA,false
uRdgWZA4,3jhb4bpsgnm0h9bvp7tggfn0kkoq96,35gmh2sv3iugednq97m088p2ic6eoj,uRdgWZA4,2020-0188,2020-05-21,15:46:54,16:05:15,NA,incomplete,174,color,0,left,Green_Star_Chess_4.jpg,Green_Plus_Dots_2.jpg,Purple_Triangle_Chess_1.jpg,left,485.7700000011828,true,low,NA,NA,NA,NA,NA,NA,NA,false
uRdgWZA4,3jhb4bpsgnm0h9bvp7tggfn0kkoq96,35gmh2sv3iugednq97m088p2ic6eoj,uRdgWZA4,2020-0188,2020-05-21,15:46:54,16:05:15,NA,incomplete,175,color,1,right,Green_Plus_Chess_2.jpg,Blue_Circle_Chess_4.jpg,Green_Triangle_Grid_3.jpg,right,577.1349999995437,true,low,NA,NA,NA,NA,NA,NA,NA,false
uRdgWZA4,3jhb4bpsgnm0h9bvp7tggfn0kkoq96,35gmh2sv3iugednq97m088p2ic6eoj,uRdgWZA4,2020-0188,2020-05-21,15:46:54,16:05:15,NA,incomplete,176,color,0,right,Red_Circle_Dots_2.jpg,Blue_Plus_Dots_3.jpg,Red_Star_Chess_4.jpg,right,521.1849999995902,true,low,NA,NA,NA,NA,NA,NA,NA,false
uRdgWZA4,3jhb4bpsgnm0h9bvp7tggfn0kkoq96,35gmh2sv3iugednq97m088p2ic6eoj,uRdgWZA4,2020-0188,2020-05-21,15:46:54,16:05:15,NA,incomplete,177,color,1,left,Red_Triangle_Chess_3.jpg,Red_Plus_Stripes_1.jpg,Purple_Star_Chess_4.jpg,left,483.8799999997718,true,low,NA,NA,NA,NA,NA,NA,NA,false
uRdgWZA4,3jhb4bpsgnm0h9bvp7tggfn0kkoq96,35gmh2sv3iugednq97m088p2ic6eoj,uRdgWZA4,2020-0188,2020-05-21,15:46:54,16:05:15,NA,incomplete,178,color,1,right,Green_Triangle_Chess_1.jpg,Blue_Star_Chess_3.jpg,Green_Plus_Dots_4.jpg,right,456.1050000011455,true,low,NA,NA,NA,NA,NA,NA,NA,false
uRdgWZA4,3jhb4bpsgnm0h9bvp7tggfn0kkoq96,35gmh2sv3iugednq97m088p2ic6eoj,uRdgWZA4,2020-0188,2020-05-21,15:46:54,16:05:15,NA,incomplete,179,color,1,left,Blue_Triangle_Grid_3.jpg,Blue_Star_Stripes_1.jpg,Purple_Circle_Grid_4.jpg,left,452.3150000004098,true,low,NA,NA,NA,NA,NA,NA,NA,false
uRdgWZA4,3jhb4bpsgnm0h9bvp7tggfn0kkoq96,35gmh2sv3iugednq97m088p2ic6eoj,uRdgWZA4,2020-0188,2020-05-21,15:46:54,16:05:15,NA,incomplete,180,filling,0,left,Purple_Triangle_Chess_4.jpg,Blue_Star_Chess_1.jpg,Purple_Plus_Dots_2.jpg,right,461.7300000009127,false,low,NA,NA,NA,NA,NA,NA,NA,false
uRdgWZA4,3jhb4bpsgnm0h9bvp7tggfn0kkoq96,35gmh2sv3iugednq97m088p2ic6eoj,uRdgWZA4,2020-0188,2020-05-21,15:46:54,16:05:15,NA,incomplete,181,filling,1,left,Green_Triangle_Stripes_1.jpg,Purple_Star_Stripes_3.jpg,Green_Circle_Dots_4.jpg,right,510.21500000020023,false,low,NA,NA,NA,NA,NA,NA,NA,false
uRdgWZA4,3jhb4bpsgnm0h9bvp7tggfn0kkoq96,35gmh2sv3iugednq97m088p2ic6eoj,uRdgWZA4,2020-0188,2020-05-21,15:46:54,16:05:15,NA,incomplete,182,filling,1,right,Purple_Circle_Stripes_4.jpg,Purple_Plus_Chess_1.jpg,Green_Triangle_Stripes_2.jpg,left,727.2649999994319,false,low,NA,NA,NA,NA,NA,NA,NA,false
uRdgWZA4,3jhb4bpsgnm0h9bvp7tggfn0kkoq96,35gmh2sv3iugednq97m088p2ic6eoj,uRdgWZA4,2020-0188,2020-05-21,15:46:54,16:05:15,NA,incomplete,183,filling,0,right,Red_Plus_Stripes_3.jpg,Red_Triangle_Grid_4.jpg,Purple_Star_Stripes_1.jpg,right,792.860000001383,true,low,NA,NA,NA,NA,NA,NA,NA,false
uRdgWZA4,3jhb4bpsgnm0h9bvp7tggfn0kkoq96,35gmh2sv3iugednq97m088p2ic6eoj,uRdgWZA4,2020-0188,2020-05-21,15:46:54,16:05:15,NA,incomplete,184,filling,1,right,Green_Circle_Chess_3.jpg,Green_Plus_Grid_2.jpg,Red_Triangle_Chess_4.jpg,left,724.7550000010524,false,low,NA,NA,NA,NA,NA,NA,NA,false
uRdgWZA4,3jhb4bpsgnm0h9bvp7tggfn0kkoq96,35gmh2sv3iugednq97m088p2ic6eoj,uRdgWZA4,2020-0188,2020-05-21,15:46:54,16:05:15,NA,incomplete,185,filling,0,right,Blue_Triangle_Grid_1.jpg,Blue_Star_Stripes_3.jpg,Purple_Plus_Grid_2.jpg,right,807.5100000005914,true,low,NA,NA,NA,NA,NA,NA,NA,false
uRdgWZA4,3jhb4bpsgnm0h9bvp7tggfn0kkoq96,35gmh2sv3iugednq97m088p2ic6eoj,uRdgWZA4,2020-0188,2020-05-21,15:46:54,16:05:15,NA,incomplete,186,filling,1,left,Green_Plus_Grid_3.jpg,Red_Star_Grid_2.jpg,Green_Triangle_Stripes_1.jpg,right,960.2350000004517,false,low,NA,NA,NA,NA,NA,NA,NA,false
uRdgWZA4,3jhb4bpsgnm0h9bvp7tggfn0kkoq96,35gmh2sv3iugednq97m088p2ic6eoj,uRdgWZA4,2020-0188,2020-05-21,15:46:54,16:05:15,NA,incomplete,187,filling,1,left,Purple_Plus_Grid_2.jpg,Red_Triangle_Grid_1.jpg,Purple_Circle_Dots_3.jpg,left,984.1949999991339,true,low,NA,NA,NA,NA,NA,NA,NA,false
uRdgWZA4,3jhb4bpsgnm0h9bvp7tggfn0kkoq96,35gmh2sv3iugednq97m088p2ic6eoj,uRdgWZA4,2020-0188,2020-05-21,15:46:54,16:05:15,NA,incomplete,188,filling,1,left,Blue_Circle_Grid_2.jpg,Green_Triangle_Grid_4.jpg,Blue_Star_Dots_3.jpg,left,779.990000000922,true,low,NA,NA,NA,NA,NA,NA,NA,false
uRdgWZA4,3jhb4bpsgnm0h9bvp7tggfn0kkoq96,35gmh2sv3iugednq97m088p2ic6eoj,uRdgWZA4,2020-0188,2020-05-21,15:46:54,16:05:15,NA,incomplete,189,filling,1,left,Red_Triangle_Dots_2.jpg,Purple_Circle_Dots_4.jpg,Red_Plus_Stripes_1.jpg,left,760.400000001071,true,low,NA,NA,NA,NA,NA,NA,NA,false
uRdgWZA4,3jhb4bpsgnm0h9bvp7tggfn0kkoq96,35gmh2sv3iugednq97m088p2ic6eoj,uRdgWZA4,2020-0188,2020-05-21,15:46:54,16:05:15,NA,incomplete,190,filling,1,right,Purple_Triangle_Dots_3.jpg,Purple_Circle_Chess_2.jpg,Blue_Plus_Dots_1.jpg,right,623.6649999992223,true,low,NA,NA,NA,NA,NA,NA,NA,false
uRdgWZA4,3jhb4bpsgnm0h9bvp7tggfn0kkoq96,35gmh2sv3iugednq97m088p2ic6eoj,uRdgWZA4,2020-0188,2020-05-21,15:46:54,16:05:15,NA,incomplete,191,filling,0,left,Blue_Triangle_Chess_2.jpg,Red_Star_Chess_1.jpg,Blue_Circle_Stripes_4.jpg,left,890.0450000001583,true,low,NA,NA,NA,NA,NA,NA,NA,false
uRdgWZA4,3jhb4bpsgnm0h9bvp7tggfn0kkoq96,35gmh2sv3iugednq97m088p2ic6eoj,uRdgWZA4,2020-0188,2020-05-21,15:46:54,16:05:15,NA,incomplete,192,filling,1,left,Green_Circle_Stripes_3.jpg,Purple_Triangle_Stripes_2.jpg,Green_Plus_Grid_1.jpg,left,754.5950000003213,true,low,NA,NA,NA,NA,NA,NA,NA,false
uRdgWZA4,3jhb4bpsgnm0h9bvp7tggfn0kkoq96,35gmh2sv3iugednq97m088p2ic6eoj,uRdgWZA4,2020-0188,2020-05-21,15:46:54,16:05:15,NA,incomplete,193,filling,1,left,Green_Plus_Grid_4.jpg,Purple_Star_Grid_2.jpg,Green_Circle_Dots_1.jpg,right,873.6200000003446,false,low,NA,NA,NA,NA,NA,NA,NA,false
uRdgWZA4,3jhb4bpsgnm0h9bvp7tggfn0kkoq96,35gmh2sv3iugednq97m088p2ic6eoj,uRdgWZA4,2020-0188,2020-05-21,15:46:54,16:05:15,NA,incomplete,194,filling,0,left,Red_Circle_Chess_1.jpg,Blue_Star_Chess_3.jpg,Red_Triangle_Stripes_4.jpg,left,786.6899999988964,true,low,NA,NA,NA,NA,NA,NA,NA,false
uRdgWZA4,3jhb4bpsgnm0h9bvp7tggfn0kkoq96,35gmh2sv3iugednq97m088p2ic6eoj,uRdgWZA4,2020-0188,2020-05-21,15:46:54,16:05:15,NA,incomplete,195,filling,1,left,Purple_Circle_Stripes_1.jpg,Blue_Triangle_Stripes_4.jpg,Purple_Plus_Dots_3.jpg,left,711.5950000006706,true,low,NA,NA,NA,NA,NA,NA,NA,false
uRdgWZA4,3jhb4bpsgnm0h9bvp7tggfn0kkoq96,35gmh2sv3iugednq97m088p2ic6eoj,uRdgWZA4,2020-0188,2020-05-21,15:46:54,16:05:15,NA,incomplete,196,filling,1,left,Blue_Plus_Chess_4.jpg,Red_Circle_Chess_3.jpg,Blue_Triangle_Dots_1.jpg,left,768.8550000003306,true,low,NA,NA,NA,NA,NA,NA,NA,false
uRdgWZA4,3jhb4bpsgnm0h9bvp7tggfn0kkoq96,35gmh2sv3iugednq97m088p2ic6eoj,uRdgWZA4,2020-0188,2020-05-21,15:46:54,16:05:15,NA,incomplete,197,filling,1,right,Red_Triangle_Stripes_4.jpg,Red_Star_Chess_3.jpg,Blue_Plus_Stripes_1.jpg,right,851.569999998901,true,low,NA,NA,NA,NA,NA,NA,NA,false
uRdgWZA4,3jhb4bpsgnm0h9bvp7tggfn0kkoq96,35gmh2sv3iugednq97m088p2ic6eoj,uRdgWZA4,2020-0188,2020-05-21,15:46:54,16:05:15,NA,incomplete,198,filling,1,right,Red_Star_Chess_1.jpg,Red_Triangle_Grid_2.jpg,Green_Circle_Chess_4.jpg,right,972.0299999989802,true,low,NA,NA,NA,NA,NA,NA,NA,false
uRdgWZA4,3jhb4bpsgnm0h9bvp7tggfn0kkoq96,35gmh2sv3iugednq97m088p2ic6eoj,uRdgWZA4,2020-0188,2020-05-21,15:46:54,16:05:15,NA,incomplete,199,filling,0,right,Purple_Triangle_Grid_2.jpg,Purple_Circle_Chess_3.jpg,Red_Plus_Grid_4.jpg,right,903.4100000008475,true,low,NA,NA,NA,NA,NA,NA,NA,false
uRdgWZA4,3jhb4bpsgnm0h9bvp7tggfn0kkoq96,35gmh2sv3iugednq97m088p2ic6eoj,uRdgWZA4,2020-0188,2020-05-21,15:46:54,16:05:15,NA,incomplete,200,color,1,right,Red_Circle_Grid_1.jpg,Green_Star_Grid_2.jpg,Red_Triangle_Stripes_3.jpg,left,947.0849999998463,false,low,NA,NA,NA,NA,NA,NA,NA,false
uRdgWZA4,3jhb4bpsgnm0h9bvp7tggfn0kkoq96,35gmh2sv3iugednq97m088p2ic6eoj,uRdgWZA4,2020-0188,2020-05-21,15:46:54,16:05:15,NA,incomplete,201,color,1,right,Purple_Circle_Chess_4.jpg,Blue_Star_Chess_3.jpg,Purple_Triangle_Stripes_2.jpg,right,546.2800000004936,true,low,NA,NA,NA,NA,NA,NA,NA,false
uRdgWZA4,3jhb4bpsgnm0h9bvp7tggfn0kkoq96,35gmh2sv3iugednq97m088p2ic6eoj,uRdgWZA4,2020-0188,2020-05-21,15:46:54,16:05:15,NA,incomplete,202,color,1,right,Red_Plus_Stripes_1.jpg,Blue_Star_Stripes_3.jpg,Red_Circle_Dots_4.jpg,right,675.1050000002142,true,low,NA,NA,NA,NA,NA,NA,NA,false
uRdgWZA4,3jhb4bpsgnm0h9bvp7tggfn0kkoq96,35gmh2sv3iugednq97m088p2ic6eoj,uRdgWZA4,2020-0188,2020-05-21,15:46:54,16:05:15,NA,incomplete,203,color,1,left,Red_Star_Stripes_3.jpg,Red_Plus_Grid_2.jpg,Green_Circle_Stripes_4.jpg,left,558.5250000003725,true,low,NA,NA,NA,NA,NA,NA,NA,false
uRdgWZA4,3jhb4bpsgnm0h9bvp7tggfn0kkoq96,35gmh2sv3iugednq97m088p2ic6eoj,uRdgWZA4,2020-0188,2020-05-21,15:46:54,16:05:15,NA,incomplete,204,color,0,left,Green_Plus_Chess_3.jpg,Green_Star_Grid_2.jpg,Purple_Circle_Chess_1.jpg,left,492.7949999982957,true,low,NA,NA,NA,NA,NA,NA,NA,false
uRdgWZA4,3jhb4bpsgnm0h9bvp7tggfn0kkoq96,35gmh2sv3iugednq97m088p2ic6eoj,uRdgWZA4,2020-0188,2020-05-21,15:46:54,16:05:15,NA,incomplete,205,color,1,right,Purple_Star_Stripes_1.jpg,Red_Plus_Stripes_4.jpg,Purple_Circle_Chess_2.jpg,right,533.8100000007544,true,low,NA,NA,NA,NA,NA,NA,NA,false
uRdgWZA4,3jhb4bpsgnm0h9bvp7tggfn0kkoq96,35gmh2sv3iugednq97m088p2ic6eoj,uRdgWZA4,2020-0188,2020-05-21,15:46:54,16:05:15,NA,incomplete,206,color,1,right,Red_Plus_Grid_2.jpg,Green_Star_Grid_4.jpg,Red_Circle_Dots_3.jpg,right,611.5049999989569,true,low,NA,NA,NA,NA,NA,NA,NA,false
uRdgWZA4,3jhb4bpsgnm0h9bvp7tggfn0kkoq96,35gmh2sv3iugednq97m088p2ic6eoj,uRdgWZA4,2020-0188,2020-05-21,15:46:54,16:05:15,NA,incomplete,207,color,1,right,Green_Star_Stripes_3.jpg,Red_Triangle_Stripes_1.jpg,Green_Plus_Chess_4.jpg,right,521.935000000638,true,low,NA,NA,NA,NA,NA,NA,NA,false
uRdgWZA4,3jhb4bpsgnm0h9bvp7tggfn0kkoq96,35gmh2sv3iugednq97m088p2ic6eoj,uRdgWZA4,2020-0188,2020-05-21,15:46:54,16:05:15,NA,incomplete,208,color,1,right,Green_Plus_Grid_1.jpg,Blue_Star_Grid_4.jpg,Green_Triangle_Chess_2.jpg,right,646.3399999992689,true,low,NA,NA,NA,NA,NA,NA,NA,false
uRdgWZA4,3jhb4bpsgnm0h9bvp7tggfn0kkoq96,35gmh2sv3iugednq97m088p2ic6eoj,uRdgWZA4,2020-0188,2020-05-21,15:46:54,16:05:15,NA,incomplete,209,color,1,left,Green_Triangle_Chess_4.jpg,Green_Star_Dots_1.jpg,Blue_Circle_Chess_2.jpg,left,483.6899999991292,true,low,NA,NA,NA,NA,NA,NA,NA,false
uRdgWZA4,3jhb4bpsgnm0h9bvp7tggfn0kkoq96,35gmh2sv3iugednq97m088p2ic6eoj,uRdgWZA4,2020-0188,2020-05-21,15:46:54,16:05:15,NA,incomplete,210,color,1,left,Green_Triangle_Dots_1.jpg,Green_Star_Chess_4.jpg,Red_Plus_Dots_3.jpg,left,533.3499999997439,true,low,NA,NA,NA,NA,NA,NA,NA,false
uRdgWZA4,3jhb4bpsgnm0h9bvp7tggfn0kkoq96,35gmh2sv3iugednq97m088p2ic6eoj,uRdgWZA4,2020-0188,2020-05-21,15:46:54,16:05:15,NA,incomplete,211,color,1,right,Purple_Triangle_Dots_4.jpg,Green_Plus_Dots_1.jpg,Purple_Circle_Stripes_3.jpg,right,474.51499999989755,true,low,NA,NA,NA,NA,NA,NA,NA,false
uRdgWZA4,3jhb4bpsgnm0h9bvp7tggfn0kkoq96,35gmh2sv3iugednq97m088p2ic6eoj,uRdgWZA4,2020-0188,2020-05-21,15:46:54,16:05:15,NA,incomplete,212,color,1,left,Purple_Plus_Chess_3.jpg,Purple_Circle_Dots_4.jpg,Green_Triangle_Chess_1.jpg,left,529.0550000008661,true,low,NA,NA,NA,NA,NA,NA,NA,false
uRdgWZA4,3jhb4bpsgnm0h9bvp7tggfn0kkoq96,35gmh2sv3iugednq97m088p2ic6eoj,uRdgWZA4,2020-0188,2020-05-21,15:46:54,16:05:15,NA,incomplete,213,color,0,right,Blue_Circle_Stripes_4.jpg,Red_Plus_Stripes_3.jpg,Blue_Star_Grid_2.jpg,right,448.68999999924563,true,low,NA,NA,NA,NA,NA,NA,NA,false
uRdgWZA4,3jhb4bpsgnm0h9bvp7tggfn0kkoq96,35gmh2sv3iugednq97m088p2ic6eoj,uRdgWZA4,2020-0188,2020-05-21,15:46:54,16:05:15,NA,incomplete,214,color,1,left,Purple_Triangle_Chess_4.jpg,Purple_Plus_Dots_3.jpg,Red_Star_Chess_2.jpg,left,497.170000000624,true,low,NA,NA,NA,NA,NA,NA,NA,false
uRdgWZA4,3jhb4bpsgnm0h9bvp7tggfn0kkoq96,35gmh2sv3iugednq97m088p2ic6eoj,uRdgWZA4,2020-0188,2020-05-21,15:46:54,16:05:15,NA,incomplete,215,color,1,left,Green_Circle_Stripes_1.jpg,Green_Triangle_Chess_2.jpg,Purple_Star_Stripes_4.jpg,left,745.8150000002934,true,low,NA,NA,NA,NA,NA,NA,NA,false
uRdgWZA4,3jhb4bpsgnm0h9bvp7tggfn0kkoq96,35gmh2sv3iugednq97m088p2ic6eoj,uRdgWZA4,2020-0188,2020-05-21,15:46:54,16:05:15,NA,incomplete,216,color,1,left,Green_Plus_Stripes_3.jpg,Green_Circle_Grid_4.jpg,Purple_Triangle_Stripes_2.jpg,left,484.90499999932945,true,low,NA,NA,NA,NA,NA,NA,NA,false
uRdgWZA4,3jhb4bpsgnm0h9bvp7tggfn0kkoq96,35gmh2sv3iugednq97m088p2ic6eoj,uRdgWZA4,2020-0188,2020-05-21,15:46:54,16:05:15,NA,incomplete,217,color,0,right,Purple_Plus_Chess_1.jpg,Red_Triangle_Chess_4.jpg,Purple_Star_Dots_3.jpg,right,523.9750000000931,true,low,NA,NA,NA,NA,NA,NA,NA,false
uRdgWZA4,3jhb4bpsgnm0h9bvp7tggfn0kkoq96,35gmh2sv3iugednq97m088p2ic6eoj,uRdgWZA4,2020-0188,2020-05-21,15:46:54,16:05:15,NA,incomplete,218,color,1,right,Blue_Circle_Dots_3.jpg,Green_Triangle_Dots_4.jpg,Blue_Plus_Grid_2.jpg,right,552.429999999702,true,low,NA,NA,NA,NA,NA,NA,NA,false
uRdgWZA4,3jhb4bpsgnm0h9bvp7tggfn0kkoq96,35gmh2sv3iugednq97m088p2ic6eoj,uRdgWZA4,2020-0188,2020-05-21,15:46:54,16:05:15,NA,incomplete,219,color,1,left,Red_Star_Grid_2.jpg,Red_Triangle_Stripes_4.jpg,Purple_Circle_Grid_1.jpg,left,401.64000000001397,true,low,NA,NA,NA,NA,NA,NA,NA,false
uRdgWZA4,3jhb4bpsgnm0h9bvp7tggfn0kkoq96,35gmh2sv3iugednq97m088p2ic6eoj,uRdgWZA4,2020-0188,2020-05-21,15:46:54,16:05:15,NA,incomplete,220,filling,1,left,Blue_Triangle_Chess_4.jpg,Purple_Star_Chess_1.jpg,Blue_Circle_Dots_3.jpg,right,425.95000000076834,false,low,NA,NA,NA,NA,NA,NA,NA,false
uRdgWZA4,3jhb4bpsgnm0h9bvp7tggfn0kkoq96,35gmh2sv3iugednq97m088p2ic6eoj,uRdgWZA4,2020-0188,2020-05-21,15:46:54,16:05:15,NA,incomplete,221,filling,1,left,Purple_Circle_Grid_4.jpg,Red_Star_Grid_3.jpg,Purple_Triangle_Dots_2.jpg,right,681.3249999996042,false,low,NA,NA,NA,NA,NA,NA,NA,false
uRdgWZA4,3jhb4bpsgnm0h9bvp7tggfn0kkoq96,35gmh2sv3iugednq97m088p2ic6eoj,uRdgWZA4,2020-0188,2020-05-21,15:46:54,16:05:15,NA,incomplete,222,filling,1,left,Purple_Plus_Stripes_2.jpg,Green_Circle_Stripes_4.jpg,Purple_Star_Grid_3.jpg,left,741.1950000005309,true,low,NA,NA,NA,NA,NA,NA,NA,false
uRdgWZA4,3jhb4bpsgnm0h9bvp7tggfn0kkoq96,35gmh2sv3iugednq97m088p2ic6eoj,uRdgWZA4,2020-0188,2020-05-21,15:46:54,16:05:15,NA,incomplete,223,filling,1,right,Green_Plus_Grid_3.jpg,Green_Circle_Dots_2.jpg,Blue_Star_Grid_1.jpg,right,830.1250000004657,true,low,NA,NA,NA,NA,NA,NA,NA,false
uRdgWZA4,3jhb4bpsgnm0h9bvp7tggfn0kkoq96,35gmh2sv3iugednq97m088p2ic6eoj,uRdgWZA4,2020-0188,2020-05-21,15:46:54,16:05:15,NA,incomplete,224,filling,1,right,Blue_Star_Chess_4.jpg,Blue_Circle_Grid_1.jpg,Red_Triangle_Chess_2.jpg,right,1025.900000000489,true,low,NA,NA,NA,NA,NA,NA,NA,false
uRdgWZA4,3jhb4bpsgnm0h9bvp7tggfn0kkoq96,35gmh2sv3iugednq97m088p2ic6eoj,uRdgWZA4,2020-0188,2020-05-21,15:46:54,16:05:15,NA,incomplete,225,filling,1,left,Purple_Triangle_Dots_3.jpg,Red_Star_Dots_2.jpg,Purple_Plus_Grid_1.jpg,left,742.2449999994133,true,low,NA,NA,NA,NA,NA,NA,NA,false
uRdgWZA4,3jhb4bpsgnm0h9bvp7tggfn0kkoq96,35gmh2sv3iugednq97m088p2ic6eoj,uRdgWZA4,2020-0188,2020-05-21,15:46:54,16:05:15,NA,incomplete,226,filling,0,left,Green_Plus_Grid_1.jpg,Red_Star_Grid_2.jpg,Green_Triangle_Chess_4.jpg,right,601.2649999993155,false,low,NA,NA,NA,NA,NA,NA,NA,false
uRdgWZA4,3jhb4bpsgnm0h9bvp7tggfn0kkoq96,35gmh2sv3iugednq97m088p2ic6eoj,uRdgWZA4,2020-0188,2020-05-21,15:46:54,16:05:15,NA,incomplete,227,filling,1,right,Green_Triangle_Grid_1.jpg,Green_Star_Stripes_3.jpg,Purple_Circle_Grid_2.jpg,left,595.7500000003492,false,low,NA,NA,NA,NA,NA,NA,NA,false
uRdgWZA4,3jhb4bpsgnm0h9bvp7tggfn0kkoq96,35gmh2sv3iugednq97m088p2ic6eoj,uRdgWZA4,2020-0188,2020-05-21,15:46:54,16:05:15,NA,incomplete,228,filling,1,right,Blue_Star_Stripes_3.jpg,Blue_Circle_Chess_4.jpg,Purple_Plus_Stripes_2.jpg,right,821.7349999995204,true,low,NA,NA,NA,NA,NA,NA,NA,false
uRdgWZA4,3jhb4bpsgnm0h9bvp7tggfn0kkoq96,35gmh2sv3iugednq97m088p2ic6eoj,uRdgWZA4,2020-0188,2020-05-21,15:46:54,16:05:15,NA,incomplete,229,filling,1,left,Purple_Star_Chess_4.jpg,Blue_Triangle_Chess_1.jpg,Purple_Circle_Grid_2.jpg,left,989.9549999991432,true,low,NA,NA,NA,NA,NA,NA,NA,false
uRdgWZA4,3jhb4bpsgnm0h9bvp7tggfn0kkoq96,35gmh2sv3iugednq97m088p2ic6eoj,uRdgWZA4,2020-0188,2020-05-21,15:46:54,16:05:15,NA,incomplete,230,filling,1,left,Blue_Plus_Chess_4.jpg,Red_Circle_Chess_2.jpg,Blue_Star_Dots_1.jpg,left,964.2500000009313,true,low,NA,NA,NA,NA,NA,NA,NA,false
uRdgWZA4,3jhb4bpsgnm0h9bvp7tggfn0kkoq96,35gmh2sv3iugednq97m088p2ic6eoj,uRdgWZA4,2020-0188,2020-05-21,15:46:54,16:05:15,NA,incomplete,231,filling,1,left,Purple_Plus_Chess_4.jpg,Blue_Star_Chess_1.jpg,Purple_Triangle_Stripes_2.jpg,left,898.5999999986961,true,low,NA,NA,NA,NA,NA,NA,NA,false
uRdgWZA4,3jhb4bpsgnm0h9bvp7tggfn0kkoq96,35gmh2sv3iugednq97m088p2ic6eoj,uRdgWZA4,2020-0188,2020-05-21,15:46:54,16:05:15,NA,incomplete,232,filling,1,right,Blue_Star_Stripes_2.jpg,Blue_Plus_Dots_1.jpg,Red_Circle_Stripes_4.jpg,right,820.0350000006147,true,low,NA,NA,NA,NA,NA,NA,NA,false
uRdgWZA4,3jhb4bpsgnm0h9bvp7tggfn0kkoq96,35gmh2sv3iugednq97m088p2ic6eoj,uRdgWZA4,2020-0188,2020-05-21,15:46:54,16:05:15,NA,incomplete,233,filling,1,right,Purple_Circle_Dots_1.jpg,Purple_Plus_Chess_4.jpg,Green_Triangle_Dots_2.jpg,right,866.5600000004051,true,low,NA,NA,NA,NA,NA,NA,NA,false
uRdgWZA4,3jhb4bpsgnm0h9bvp7tggfn0kkoq96,35gmh2sv3iugednq97m088p2ic6eoj,uRdgWZA4,2020-0188,2020-05-21,15:46:54,16:05:15,NA,incomplete,234,filling,1,left,Purple_Triangle_Chess_3.jpg,Blue_Star_Chess_1.jpg,Purple_Plus_Grid_2.jpg,left,902.9650000011316,true,low,NA,NA,NA,NA,NA,NA,NA,false
uRdgWZA4,3jhb4bpsgnm0h9bvp7tggfn0kkoq96,35gmh2sv3iugednq97m088p2ic6eoj,uRdgWZA4,2020-0188,2020-05-21,15:46:54,16:05:15,NA,incomplete,235,filling,0,right,Blue_Star_Grid_2.jpg,Blue_Circle_Chess_3.jpg,Purple_Triangle_Grid_1.jpg,right,939.7399999997579,true,low,NA,NA,NA,NA,NA,NA,NA,false
uRdgWZA4,3jhb4bpsgnm0h9bvp7tggfn0kkoq96,35gmh2sv3iugednq97m088p2ic6eoj,uRdgWZA4,2020-0188,2020-05-21,15:46:54,16:05:15,NA,incomplete,236,filling,1,right,Red_Star_Chess_3.jpg,Red_Triangle_Dots_2.jpg,Blue_Plus_Chess_1.jpg,right,833.349999998929,true,low,NA,NA,NA,NA,NA,NA,NA,false
uRdgWZA4,3jhb4bpsgnm0h9bvp7tggfn0kkoq96,35gmh2sv3iugednq97m088p2ic6eoj,uRdgWZA4,2020-0188,2020-05-21,15:46:54,16:05:15,NA,incomplete,237,filling,1,right,Red_Star_Chess_3.jpg,Red_Triangle_Dots_4.jpg,Green_Plus_Chess_1.jpg,right,784.695000000298,true,low,NA,NA,NA,NA,NA,NA,NA,false
uRdgWZA4,3jhb4bpsgnm0h9bvp7tggfn0kkoq96,35gmh2sv3iugednq97m088p2ic6eoj,uRdgWZA4,2020-0188,2020-05-21,15:46:54,16:05:15,NA,incomplete,238,filling,1,right,Purple_Circle_Grid_1.jpg,Purple_Triangle_Dots_2.jpg,Green_Star_Grid_3.jpg,right,811.6900000005262,true,low,NA,NA,NA,NA,NA,NA,NA,false
uRdgWZA4,3jhb4bpsgnm0h9bvp7tggfn0kkoq96,35gmh2sv3iugednq97m088p2ic6eoj,uRdgWZA4,2020-0188,2020-05-21,15:46:54,16:05:15,NA,incomplete,239,filling,1,left,Purple_Star_Grid_1.jpg,Blue_Plus_Grid_3.jpg,Purple_Triangle_Chess_4.jpg,left,820.1499999995576,true,low,NA,NA,NA,NA,NA,NA,NA,false
uRdgWZA4,3jhb4bpsgnm0h9bvp7tggfn0kkoq96,35gmh2sv3iugednq97m088p2ic6eoj,uRdgWZA4,2020-0188,2020-05-21,15:46:54,16:05:15,NA,NA,instruction example,number,NA,NA,Purple_Plus_Chess_3.jpg,Red_Star_Stripes_3.jpg,Blue_Plus_Grid_1.jpg,NA,NA,NA,NA,NA,NA,NA,NA,NA,NA,NA,undefined
uRdgWZA4,3jhb4bpsgnm0h9bvp7tggfn0kkoq96,35gmh2sv3iugednq97m088p2ic6eoj,uRdgWZA4,2020-0188,2020-05-21,15:46:54,16:05:15,NA,NA,instruction example,number,NA,NA,Blue_Plus_Grid_2.jpg,Purple_Plus_Stripes_3.jpg,Green_Circle_Chess_2.jpg,NA,NA,NA,NA,NA,NA,NA,NA,NA,NA,NA,undefined
uRdgWZA4,3jhb4bpsgnm0h9bvp7tggfn0kkoq96,35gmh2sv3iugednq97m088p2ic6eoj,uRdgWZA4,2020-0188,2020-05-21,15:46:54,16:05:15,NA,NA,instruction example,number,NA,NA,Green_Triangle_Stripes_3.jpg,Green_Circle_Grid_4.jpg,Red_Plus_Stripes_2.jpg,NA,NA,NA,NA,NA,NA,NA,NA,NA,NA,NA,undefined
uRdgWZA4,3jhb4bpsgnm0h9bvp7tggfn0kkoq96,35gmh2sv3iugednq97m088p2ic6eoj,uRdgWZA4,2020-0188,2020-05-21,15:46:54,16:05:15,NA,NA,instruction example,number,NA,NA,Red_Circle_Stripes_2.jpg,Purple_Star_Stripes_3.jpg,Red_Triangle_Chess_4.jpg,NA,NA,NA,NA,NA,NA,NA,NA,NA,NA,NA,undefined
uRdgWZA4,3jhb4bpsgnm0h9bvp7tggfn0kkoq96,35gmh2sv3iugednq97m088p2ic6eoj,uRdgWZA4,2020-0188,2020-05-21,15:46:54,16:05:15,1058080.5650000002,1101622.229999999,NA,NA,NA,NA,NA,NA,NA,NA,NA,NA,NA,23,White/Caucasian,Female,Hispanic,no,Do not wish to reply,no,undefined
