workerId,hitId,assignmentId,subject,studyid,exp_date,exp_start,exp_end,time_start,time_end,trial,type,reward_validity,answer,image_top,image_left,image_right,response,response_time,response_acc,volatility,age,race,gender,ethnicity,color,vision,neuro,practice
Gf64OVz5,372ages0j7iqu68t52ou18jnn9hxrx,35gmh2sv3iugednq97m088p2ic7eok,Gf64OVz5,2020-0188,2020-05-21,10:09:19,10:29:49,NA,incomplete,0,filling,1,right,Blue_Circle_Stripes_2.jpg,Green_Plus_Dots_2.jpg,Red_Star_Stripes_4.jpg,left,1804.4600000002538,false,NA,NA,NA,NA,NA,NA,NA,NA,true
Gf64OVz5,372ages0j7iqu68t52ou18jnn9hxrx,35gmh2sv3iugednq97m088p2ic7eok,Gf64OVz5,2020-0188,2020-05-21,10:09:19,10:29:49,NA,incomplete,1,filling,1,left,Green_Triangle_Chess_3.jpg,Red_Plus_Chess_1.jpg,Purple_Star_Grid_3.jpg,left,1848.229999999574,true,NA,NA,NA,NA,NA,NA,NA,NA,true
Gf64OVz5,372ages0j7iqu68t52ou18jnn9hxrx,35gmh2sv3iugednq97m088p2ic7eok,Gf64OVz5,2020-0188,2020-05-21,10:09:19,10:29:49,NA,incomplete,2,filling,1,right,Green_Plus_Chess_2.jpg,Purple_Star_Dots_2.jpg,Red_Triangle_Chess_3.jpg,right,1594.2799999993294,true,NA,NA,NA,NA,NA,NA,NA,NA,true
Gf64OVz5,372ages0j7iqu68t52ou18jnn9hxrx,35gmh2sv3iugednq97m088p2ic7eok,Gf64OVz5,2020-0188,2020-05-21,10:09:19,10:29:49,NA,incomplete,3,filling,1,left,Blue_Plus_Stripes_2.jpg,Purple_Star_Stripes_4.jpg,Green_Triangle_Dots_2.jpg,left,1532.930000000284,true,NA,NA,NA,NA,NA,NA,NA,NA,true
Gf64OVz5,372ages0j7iqu68t52ou18jnn9hxrx,35gmh2sv3iugednq97m088p2ic7eok,Gf64OVz5,2020-0188,2020-05-21,10:09:19,10:29:49,NA,incomplete,4,filling,1,right,Red_Plus_Stripes_3.jpg,Purple_Circle_Dots_3.jpg,Blue_Triangle_Stripes_4.jpg,right,1301.3449999998556,true,NA,NA,NA,NA,NA,NA,NA,NA,true
Gf64OVz5,372ages0j7iqu68t52ou18jnn9hxrx,35gmh2sv3iugednq97m088p2ic7eok,Gf64OVz5,2020-0188,2020-05-21,10:09:19,10:29:49,NA,incomplete,5,filling,1,left,Red_Circle_Stripes_3.jpg,Green_Plus_Stripes_2.jpg,Purple_Triangle_Grid_3.jpg,left,1172.8549999998068,true,NA,NA,NA,NA,NA,NA,NA,NA,true
Gf64OVz5,372ages0j7iqu68t52ou18jnn9hxrx,35gmh2sv3iugednq97m088p2ic7eok,Gf64OVz5,2020-0188,2020-05-21,10:09:19,10:29:49,NA,incomplete,6,filling,0,right,Green_Triangle_Stripes_1.jpg,Purple_Plus_Chess_1.jpg,Blue_Star_Stripes_4.jpg,right,1369.4550000000745,true,NA,NA,NA,NA,NA,NA,NA,NA,true
Gf64OVz5,372ages0j7iqu68t52ou18jnn9hxrx,35gmh2sv3iugednq97m088p2ic7eok,Gf64OVz5,2020-0188,2020-05-21,10:09:19,10:29:49,NA,incomplete,7,filling,1,left,Blue_Triangle_Grid_2.jpg,Red_Plus_Grid_1.jpg,Green_Star_Stripes_2.jpg,left,1509.1350000002421,true,NA,NA,NA,NA,NA,NA,NA,NA,true
Gf64OVz5,372ages0j7iqu68t52ou18jnn9hxrx,35gmh2sv3iugednq97m088p2ic7eok,Gf64OVz5,2020-0188,2020-05-21,10:09:19,10:29:49,NA,incomplete,8,filling,1,right,Red_Star_Dots_1.jpg,Green_Circle_Grid_1.jpg,Purple_Plus_Dots_2.jpg,right,1667.579999999376,true,NA,NA,NA,NA,NA,NA,NA,NA,true
Gf64OVz5,372ages0j7iqu68t52ou18jnn9hxrx,35gmh2sv3iugednq97m088p2ic7eok,Gf64OVz5,2020-0188,2020-05-21,10:09:19,10:29:49,NA,incomplete,9,filling,1,right,Red_Triangle_Chess_2.jpg,Blue_Star_Grid_2.jpg,Green_Plus_Chess_3.jpg,right,1405.4599999999627,true,NA,NA,NA,NA,NA,NA,NA,NA,true
Gf64OVz5,372ages0j7iqu68t52ou18jnn9hxrx,35gmh2sv3iugednq97m088p2ic7eok,Gf64OVz5,2020-0188,2020-05-21,10:09:19,10:29:49,NA,incomplete,10,filling,1,left,Blue_Plus_Grid_1.jpg,Red_Triangle_Grid_3.jpg,Green_Star_Stripes_1.jpg,left,1244.9950000000536,true,NA,NA,NA,NA,NA,NA,NA,NA,true
Gf64OVz5,372ages0j7iqu68t52ou18jnn9hxrx,35gmh2sv3iugednq97m088p2ic7eok,Gf64OVz5,2020-0188,2020-05-21,10:09:19,10:29:49,NA,incomplete,11,filling,0,left,Blue_Star_Grid_1.jpg,Green_Triangle_Grid_4.jpg,Red_Plus_Dots_1.jpg,left,1217.2449999998207,true,NA,NA,NA,NA,NA,NA,NA,NA,true
Gf64OVz5,372ages0j7iqu68t52ou18jnn9hxrx,35gmh2sv3iugednq97m088p2ic7eok,Gf64OVz5,2020-0188,2020-05-21,10:09:19,10:29:49,NA,incomplete,12,filling,1,right,Red_Circle_Dots_4.jpg,Green_Triangle_Grid_4.jpg,Purple_Star_Dots_2.jpg,right,1637.0450000003912,true,NA,NA,NA,NA,NA,NA,NA,NA,true
Gf64OVz5,372ages0j7iqu68t52ou18jnn9hxrx,35gmh2sv3iugednq97m088p2ic7eok,Gf64OVz5,2020-0188,2020-05-21,10:09:19,10:29:49,NA,incomplete,13,filling,1,right,Red_Star_Dots_3.jpg,Blue_Plus_Chess_3.jpg,Green_Triangle_Dots_4.jpg,left,1510.699999999837,false,NA,NA,NA,NA,NA,NA,NA,NA,true
Gf64OVz5,372ages0j7iqu68t52ou18jnn9hxrx,35gmh2sv3iugednq97m088p2ic7eok,Gf64OVz5,2020-0188,2020-05-21,10:09:19,10:29:49,NA,incomplete,14,filling,0,right,Blue_Plus_Chess_4.jpg,Green_Star_Dots_4.jpg,Purple_Circle_Chess_1.jpg,right,1623.715000000666,true,NA,NA,NA,NA,NA,NA,NA,NA,true
Gf64OVz5,372ages0j7iqu68t52ou18jnn9hxrx,35gmh2sv3iugednq97m088p2ic7eok,Gf64OVz5,2020-0188,2020-05-21,10:09:19,10:29:49,NA,incomplete,15,filling,0,left,Red_Circle_Stripes_4.jpg,Green_Triangle_Stripes_3.jpg,Blue_Plus_Dots_4.jpg,left,1420.4649999992107,true,NA,NA,NA,NA,NA,NA,NA,NA,true
Gf64OVz5,372ages0j7iqu68t52ou18jnn9hxrx,35gmh2sv3iugednq97m088p2ic7eok,Gf64OVz5,2020-0188,2020-05-21,10:09:19,10:29:49,NA,incomplete,16,filling,1,right,Blue_Star_Stripes_1.jpg,Red_Triangle_Chess_1.jpg,Purple_Plus_Stripes_3.jpg,right,1228.739999999525,true,NA,NA,NA,NA,NA,NA,NA,NA,true
Gf64OVz5,372ages0j7iqu68t52ou18jnn9hxrx,35gmh2sv3iugednq97m088p2ic7eok,Gf64OVz5,2020-0188,2020-05-21,10:09:19,10:29:49,NA,incomplete,17,filling,1,left,Green_Circle_Chess_3.jpg,Purple_Plus_Chess_1.jpg,Blue_Star_Grid_3.jpg,left,1314.9600000006612,true,NA,NA,NA,NA,NA,NA,NA,NA,true
Gf64OVz5,372ages0j7iqu68t52ou18jnn9hxrx,35gmh2sv3iugednq97m088p2ic7eok,Gf64OVz5,2020-0188,2020-05-21,10:09:19,10:29:49,NA,incomplete,18,filling,1,left,Green_Circle_Dots_4.jpg,Red_Triangle_Dots_1.jpg,Blue_Plus_Stripes_4.jpg,left,1542.0499999999884,true,NA,NA,NA,NA,NA,NA,NA,NA,true
Gf64OVz5,372ages0j7iqu68t52ou18jnn9hxrx,35gmh2sv3iugednq97m088p2ic7eok,Gf64OVz5,2020-0188,2020-05-21,10:09:19,10:29:49,NA,incomplete,19,filling,1,right,Purple_Circle_Stripes_1.jpg,Red_Star_Dots_1.jpg,Green_Triangle_Stripes_3.jpg,right,957.0249999997322,true,NA,NA,NA,NA,NA,NA,NA,NA,true
Gf64OVz5,372ages0j7iqu68t52ou18jnn9hxrx,35gmh2sv3iugednq97m088p2ic7eok,Gf64OVz5,2020-0188,2020-05-21,10:09:19,10:29:49,NA,incomplete,20,number,1,left,Green_Plus_Chess_3.jpg,Purple_Triangle_Dots_3.jpg,Red_Circle_Chess_4.jpg,right,944.5000000005239,false,NA,NA,NA,NA,NA,NA,NA,NA,true
Gf64OVz5,372ages0j7iqu68t52ou18jnn9hxrx,35gmh2sv3iugednq97m088p2ic7eok,Gf64OVz5,2020-0188,2020-05-21,10:09:19,10:29:49,NA,incomplete,21,number,1,left,Purple_Circle_Chess_4.jpg,Green_Plus_Grid_4.jpg,Blue_Triangle_Chess_1.jpg,right,1146.4100000002654,false,NA,NA,NA,NA,NA,NA,NA,NA,true
Gf64OVz5,372ages0j7iqu68t52ou18jnn9hxrx,35gmh2sv3iugednq97m088p2ic7eok,Gf64OVz5,2020-0188,2020-05-21,10:09:19,10:29:49,NA,incomplete,22,number,0,right,Blue_Circle_Dots_4.jpg,Red_Triangle_Dots_1.jpg,Purple_Plus_Chess_4.jpg,right,1759,true,NA,NA,NA,NA,NA,NA,NA,NA,true
Gf64OVz5,372ages0j7iqu68t52ou18jnn9hxrx,35gmh2sv3iugednq97m088p2ic7eok,Gf64OVz5,2020-0188,2020-05-21,10:09:19,10:29:49,NA,incomplete,23,number,1,right,Red_Triangle_Chess_3.jpg,Blue_Plus_Chess_2.jpg,Green_Star_Stripes_3.jpg,right,1357.5000000000582,true,NA,NA,NA,NA,NA,NA,NA,NA,true
Gf64OVz5,372ages0j7iqu68t52ou18jnn9hxrx,35gmh2sv3iugednq97m088p2ic7eok,Gf64OVz5,2020-0188,2020-05-21,10:09:19,10:29:49,NA,incomplete,24,number,1,left,Blue_Triangle_Chess_2.jpg,Red_Star_Grid_2.jpg,Purple_Plus_Chess_1.jpg,left,1146.445000000298,true,NA,NA,NA,NA,NA,NA,NA,NA,true
Gf64OVz5,372ages0j7iqu68t52ou18jnn9hxrx,35gmh2sv3iugednq97m088p2ic7eok,Gf64OVz5,2020-0188,2020-05-21,10:09:19,10:29:49,NA,incomplete,25,number,1,left,Green_Plus_Dots_2.jpg,Red_Circle_Chess_2.jpg,Purple_Star_Dots_3.jpg,left,1291.6500000000815,true,NA,NA,NA,NA,NA,NA,NA,NA,true
Gf64OVz5,372ages0j7iqu68t52ou18jnn9hxrx,35gmh2sv3iugednq97m088p2ic7eok,Gf64OVz5,2020-0188,2020-05-21,10:09:19,10:29:49,NA,incomplete,26,number,1,right,Purple_Circle_Chess_3.jpg,Blue_Plus_Chess_1.jpg,Red_Star_Stripes_3.jpg,right,1421.13999999949,true,NA,NA,NA,NA,NA,NA,NA,NA,true
Gf64OVz5,372ages0j7iqu68t52ou18jnn9hxrx,35gmh2sv3iugednq97m088p2ic7eok,Gf64OVz5,2020-0188,2020-05-21,10:09:19,10:29:49,NA,incomplete,27,number,1,right,Purple_Star_Stripes_2.jpg,Green_Circle_Stripes_4.jpg,Red_Plus_Grid_2.jpg,right,1389.0249999994994,true,NA,NA,NA,NA,NA,NA,NA,NA,true
Gf64OVz5,372ages0j7iqu68t52ou18jnn9hxrx,35gmh2sv3iugednq97m088p2ic7eok,Gf64OVz5,2020-0188,2020-05-21,10:09:19,10:29:49,NA,incomplete,28,number,1,left,Green_Triangle_Stripes_4.jpg,Blue_Plus_Chess_4.jpg,Red_Circle_Stripes_3.jpg,left,1413.905000000319,true,NA,NA,NA,NA,NA,NA,NA,NA,true
Gf64OVz5,372ages0j7iqu68t52ou18jnn9hxrx,35gmh2sv3iugednq97m088p2ic7eok,Gf64OVz5,2020-0188,2020-05-21,10:09:19,10:29:49,NA,incomplete,29,number,1,left,Blue_Star_Stripes_4.jpg,Red_Circle_Chess_4.jpg,Purple_Plus_Stripes_1.jpg,left,1402.1149999998743,true,NA,NA,NA,NA,NA,NA,NA,NA,true
Gf64OVz5,372ages0j7iqu68t52ou18jnn9hxrx,35gmh2sv3iugednq97m088p2ic7eok,Gf64OVz5,2020-0188,2020-05-21,10:09:19,10:29:49,NA,incomplete,30,number,0,right,Red_Triangle_Stripes_2.jpg,Green_Circle_Stripes_4.jpg,Blue_Star_Grid_2.jpg,right,1068.3099999996484,true,NA,NA,NA,NA,NA,NA,NA,NA,true
Gf64OVz5,372ages0j7iqu68t52ou18jnn9hxrx,35gmh2sv3iugednq97m088p2ic7eok,Gf64OVz5,2020-0188,2020-05-21,10:09:19,10:29:49,NA,incomplete,31,number,0,right,Purple_Plus_Stripes_1.jpg,Blue_Circle_Stripes_3.jpg,Red_Triangle_Dots_1.jpg,right,1270.8650000003981,true,NA,NA,NA,NA,NA,NA,NA,NA,true
Gf64OVz5,372ages0j7iqu68t52ou18jnn9hxrx,35gmh2sv3iugednq97m088p2ic7eok,Gf64OVz5,2020-0188,2020-05-21,10:09:19,10:29:49,NA,incomplete,32,number,1,left,Red_Star_Stripes_4.jpg,Purple_Plus_Chess_4.jpg,Blue_Triangle_Stripes_3.jpg,left,1534.5500000003376,true,NA,NA,NA,NA,NA,NA,NA,NA,true
Gf64OVz5,372ages0j7iqu68t52ou18jnn9hxrx,35gmh2sv3iugednq97m088p2ic7eok,Gf64OVz5,2020-0188,2020-05-21,10:09:19,10:29:49,NA,incomplete,33,number,1,left,Red_Star_Stripes_3.jpg,Green_Triangle_Chess_3.jpg,Purple_Plus_Stripes_1.jpg,left,1347.0550000001676,true,NA,NA,NA,NA,NA,NA,NA,NA,true
Gf64OVz5,372ages0j7iqu68t52ou18jnn9hxrx,35gmh2sv3iugednq97m088p2ic7eok,Gf64OVz5,2020-0188,2020-05-21,10:09:19,10:29:49,NA,incomplete,34,number,1,right,Blue_Star_Dots_3.jpg,Purple_Triangle_Dots_2.jpg,Red_Circle_Grid_3.jpg,right,1385.1899999999441,true,NA,NA,NA,NA,NA,NA,NA,NA,true
Gf64OVz5,372ages0j7iqu68t52ou18jnn9hxrx,35gmh2sv3iugednq97m088p2ic7eok,Gf64OVz5,2020-0188,2020-05-21,10:09:19,10:29:49,NA,incomplete,35,number,1,left,Red_Star_Dots_4.jpg,Purple_Plus_Stripes_4.jpg,Green_Circle_Dots_1.jpg,left,1497.8350000001374,true,NA,NA,NA,NA,NA,NA,NA,NA,true
Gf64OVz5,372ages0j7iqu68t52ou18jnn9hxrx,35gmh2sv3iugednq97m088p2ic7eok,Gf64OVz5,2020-0188,2020-05-21,10:09:19,10:29:49,NA,incomplete,36,number,1,left,Red_Plus_Chess_4.jpg,Purple_Circle_Stripes_4.jpg,Blue_Triangle_Chess_1.jpg,left,1081.4950000003446,true,NA,NA,NA,NA,NA,NA,NA,NA,true
Gf64OVz5,372ages0j7iqu68t52ou18jnn9hxrx,35gmh2sv3iugednq97m088p2ic7eok,Gf64OVz5,2020-0188,2020-05-21,10:09:19,10:29:49,NA,incomplete,37,number,1,right,Red_Circle_Grid_3.jpg,Blue_Triangle_Grid_4.jpg,Green_Plus_Dots_3.jpg,right,1600.7449999997043,true,NA,NA,NA,NA,NA,NA,NA,NA,true
Gf64OVz5,372ages0j7iqu68t52ou18jnn9hxrx,35gmh2sv3iugednq97m088p2ic7eok,Gf64OVz5,2020-0188,2020-05-21,10:09:19,10:29:49,NA,incomplete,38,number,0,left,Blue_Plus_Chess_2.jpg,Purple_Triangle_Grid_2.jpg,Green_Star_Chess_1.jpg,left,1072.954999999667,true,NA,NA,NA,NA,NA,NA,NA,NA,true
Gf64OVz5,372ages0j7iqu68t52ou18jnn9hxrx,35gmh2sv3iugednq97m088p2ic7eok,Gf64OVz5,2020-0188,2020-05-21,10:09:19,10:29:49,NA,incomplete,39,number,1,right,Red_Star_Stripes_2.jpg,Purple_Triangle_Stripes_3.jpg,Blue_Plus_Grid_2.jpg,right,1380.5499999998137,true,NA,NA,NA,NA,NA,NA,NA,NA,true
Gf64OVz5,372ages0j7iqu68t52ou18jnn9hxrx,35gmh2sv3iugednq97m088p2ic7eok,Gf64OVz5,2020-0188,2020-05-21,10:09:19,10:29:49,NA,incomplete,0,filling,1,right,Green_Triangle_Dots_2.jpg,Purple_Star_Grid_2.jpg,Blue_Plus_Dots_3.jpg,left,1029.3699999992969,false,low,NA,NA,NA,NA,NA,NA,NA,false
Gf64OVz5,372ages0j7iqu68t52ou18jnn9hxrx,35gmh2sv3iugednq97m088p2ic7eok,Gf64OVz5,2020-0188,2020-05-21,10:09:19,10:29:49,NA,incomplete,1,filling,1,right,Red_Star_Grid_1.jpg,Blue_Triangle_Chess_1.jpg,Green_Plus_Grid_3.jpg,left,1034.3000000002794,false,low,NA,NA,NA,NA,NA,NA,NA,false
Gf64OVz5,372ages0j7iqu68t52ou18jnn9hxrx,35gmh2sv3iugednq97m088p2ic7eok,Gf64OVz5,2020-0188,2020-05-21,10:09:19,10:29:49,NA,incomplete,2,filling,1,left,Red_Circle_Stripes_3.jpg,Purple_Plus_Stripes_4.jpg,Green_Triangle_Grid_3.jpg,left,1358.924999999581,true,low,NA,NA,NA,NA,NA,NA,NA,false
Gf64OVz5,372ages0j7iqu68t52ou18jnn9hxrx,35gmh2sv3iugednq97m088p2ic7eok,Gf64OVz5,2020-0188,2020-05-21,10:09:19,10:29:49,NA,incomplete,3,filling,1,right,Purple_Circle_Grid_3.jpg,Red_Triangle_Dots_3.jpg,Blue_Star_Grid_2.jpg,right,1080.4650000000838,true,low,NA,NA,NA,NA,NA,NA,NA,false
Gf64OVz5,372ages0j7iqu68t52ou18jnn9hxrx,35gmh2sv3iugednq97m088p2ic7eok,Gf64OVz5,2020-0188,2020-05-21,10:09:19,10:29:49,NA,incomplete,4,filling,1,right,Red_Plus_Chess_1.jpg,Green_Star_Dots_1.jpg,Blue_Circle_Chess_2.jpg,right,1214.6499999999069,true,low,NA,NA,NA,NA,NA,NA,NA,false
Gf64OVz5,372ages0j7iqu68t52ou18jnn9hxrx,35gmh2sv3iugednq97m088p2ic7eok,Gf64OVz5,2020-0188,2020-05-21,10:09:19,10:29:49,NA,incomplete,5,filling,1,right,Blue_Circle_Grid_1.jpg,Purple_Star_Chess_1.jpg,Red_Triangle_Grid_4.jpg,right,1046.4799999999814,true,low,NA,NA,NA,NA,NA,NA,NA,false
Gf64OVz5,372ages0j7iqu68t52ou18jnn9hxrx,35gmh2sv3iugednq97m088p2ic7eok,Gf64OVz5,2020-0188,2020-05-21,10:09:19,10:29:49,NA,incomplete,6,filling,1,left,Purple_Star_Chess_2.jpg,Green_Circle_Chess_4.jpg,Red_Plus_Grid_2.jpg,left,949.3949999996694,true,low,NA,NA,NA,NA,NA,NA,NA,false
Gf64OVz5,372ages0j7iqu68t52ou18jnn9hxrx,35gmh2sv3iugednq97m088p2ic7eok,Gf64OVz5,2020-0188,2020-05-21,10:09:19,10:29:49,NA,incomplete,7,filling,1,left,Purple_Triangle_Dots_1.jpg,Blue_Star_Dots_2.jpg,Green_Circle_Chess_1.jpg,left,1354.405000000028,true,low,NA,NA,NA,NA,NA,NA,NA,false
Gf64OVz5,372ages0j7iqu68t52ou18jnn9hxrx,35gmh2sv3iugednq97m088p2ic7eok,Gf64OVz5,2020-0188,2020-05-21,10:09:19,10:29:49,NA,incomplete,8,filling,0,right,Red_Circle_Dots_3.jpg,Green_Star_Grid_3.jpg,Purple_Plus_Dots_4.jpg,right,1439.4800000000978,true,low,NA,NA,NA,NA,NA,NA,NA,false
Gf64OVz5,372ages0j7iqu68t52ou18jnn9hxrx,35gmh2sv3iugednq97m088p2ic7eok,Gf64OVz5,2020-0188,2020-05-21,10:09:19,10:29:49,NA,incomplete,9,filling,1,left,Red_Circle_Dots_3.jpg,Blue_Plus_Dots_2.jpg,Purple_Star_Stripes_3.jpg,left,1164.1449999996694,true,low,NA,NA,NA,NA,NA,NA,NA,false
Gf64OVz5,372ages0j7iqu68t52ou18jnn9hxrx,35gmh2sv3iugednq97m088p2ic7eok,Gf64OVz5,2020-0188,2020-05-21,10:09:19,10:29:49,NA,incomplete,10,filling,1,right,Green_Circle_Grid_3.jpg,Blue_Triangle_Dots_3.jpg,Red_Star_Grid_4.jpg,right,1019.2800000004936,true,low,NA,NA,NA,NA,NA,NA,NA,false
Gf64OVz5,372ages0j7iqu68t52ou18jnn9hxrx,35gmh2sv3iugednq97m088p2ic7eok,Gf64OVz5,2020-0188,2020-05-21,10:09:19,10:29:49,NA,incomplete,11,filling,0,right,Red_Star_Chess_2.jpg,Purple_Plus_Grid_2.jpg,Green_Circle_Chess_1.jpg,right,1320.5349999997998,true,low,NA,NA,NA,NA,NA,NA,NA,false
Gf64OVz5,372ages0j7iqu68t52ou18jnn9hxrx,35gmh2sv3iugednq97m088p2ic7eok,Gf64OVz5,2020-0188,2020-05-21,10:09:19,10:29:49,NA,incomplete,12,filling,0,left,Purple_Triangle_Grid_4.jpg,Blue_Star_Grid_1.jpg,Red_Circle_Chess_4.jpg,left,1301.7250000002095,true,low,NA,NA,NA,NA,NA,NA,NA,false
Gf64OVz5,372ages0j7iqu68t52ou18jnn9hxrx,35gmh2sv3iugednq97m088p2ic7eok,Gf64OVz5,2020-0188,2020-05-21,10:09:19,10:29:49,NA,incomplete,13,filling,1,right,Red_Triangle_Chess_2.jpg,Purple_Star_Stripes_2.jpg,Green_Plus_Chess_3.jpg,right,1100.1600000000326,true,low,NA,NA,NA,NA,NA,NA,NA,false
Gf64OVz5,372ages0j7iqu68t52ou18jnn9hxrx,35gmh2sv3iugednq97m088p2ic7eok,Gf64OVz5,2020-0188,2020-05-21,10:09:19,10:29:49,NA,incomplete,14,filling,1,right,Purple_Triangle_Stripes_1.jpg,Red_Plus_Dots_1.jpg,Green_Star_Stripes_4.jpg,right,1058.0399999999208,true,low,NA,NA,NA,NA,NA,NA,NA,false
Gf64OVz5,372ages0j7iqu68t52ou18jnn9hxrx,35gmh2sv3iugednq97m088p2ic7eok,Gf64OVz5,2020-0188,2020-05-21,10:09:19,10:29:49,NA,incomplete,15,filling,1,right,Green_Triangle_Stripes_2.jpg,Purple_Plus_Dots_2.jpg,Red_Star_Stripes_3.jpg,right,1071.230000000447,true,low,NA,NA,NA,NA,NA,NA,NA,false
Gf64OVz5,372ages0j7iqu68t52ou18jnn9hxrx,35gmh2sv3iugednq97m088p2ic7eok,Gf64OVz5,2020-0188,2020-05-21,10:09:19,10:29:49,NA,incomplete,16,filling,0,right,Purple_Plus_Stripes_2.jpg,Red_Star_Chess_2.jpg,Blue_Triangle_Stripes_4.jpg,right,1101.8850000001257,true,low,NA,NA,NA,NA,NA,NA,NA,false
Gf64OVz5,372ages0j7iqu68t52ou18jnn9hxrx,35gmh2sv3iugednq97m088p2ic7eok,Gf64OVz5,2020-0188,2020-05-21,10:09:19,10:29:49,NA,incomplete,17,filling,1,left,Red_Circle_Stripes_1.jpg,Green_Plus_Stripes_2.jpg,Purple_Star_Dots_1.jpg,right,873.4800000002142,false,low,NA,NA,NA,NA,NA,NA,NA,false
Gf64OVz5,372ages0j7iqu68t52ou18jnn9hxrx,35gmh2sv3iugednq97m088p2ic7eok,Gf64OVz5,2020-0188,2020-05-21,10:09:19,10:29:49,NA,incomplete,18,filling,1,left,Red_Circle_Grid_1.jpg,Green_Triangle_Grid_3.jpg,Blue_Plus_Dots_1.jpg,left,941.5250000001397,true,low,NA,NA,NA,NA,NA,NA,NA,false
Gf64OVz5,372ages0j7iqu68t52ou18jnn9hxrx,35gmh2sv3iugednq97m088p2ic7eok,Gf64OVz5,2020-0188,2020-05-21,10:09:19,10:29:49,NA,incomplete,19,filling,1,left,Blue_Circle_Grid_3.jpg,Purple_Star_Grid_4.jpg,Green_Plus_Chess_3.jpg,left,1158.024999999674,true,low,NA,NA,NA,NA,NA,NA,NA,false
Gf64OVz5,372ages0j7iqu68t52ou18jnn9hxrx,35gmh2sv3iugednq97m088p2ic7eok,Gf64OVz5,2020-0188,2020-05-21,10:09:19,10:29:49,NA,incomplete,20,filling,1,right,Red_Plus_Dots_2.jpg,Purple_Star_Grid_2.jpg,Green_Circle_Dots_1.jpg,right,1219.5199999996694,true,low,NA,NA,NA,NA,NA,NA,NA,false
Gf64OVz5,372ages0j7iqu68t52ou18jnn9hxrx,35gmh2sv3iugednq97m088p2ic7eok,Gf64OVz5,2020-0188,2020-05-21,10:09:19,10:29:49,NA,incomplete,21,filling,1,left,Purple_Circle_Dots_3.jpg,Red_Star_Dots_2.jpg,Green_Triangle_Stripes_3.jpg,left,1076.425000000163,true,low,NA,NA,NA,NA,NA,NA,NA,false
Gf64OVz5,372ages0j7iqu68t52ou18jnn9hxrx,35gmh2sv3iugednq97m088p2ic7eok,Gf64OVz5,2020-0188,2020-05-21,10:09:19,10:29:49,NA,incomplete,22,filling,1,right,Blue_Plus_Stripes_1.jpg,Red_Triangle_Chess_1.jpg,Green_Star_Stripes_4.jpg,right,1198.9199999999255,true,low,NA,NA,NA,NA,NA,NA,NA,false
Gf64OVz5,372ages0j7iqu68t52ou18jnn9hxrx,35gmh2sv3iugednq97m088p2ic7eok,Gf64OVz5,2020-0188,2020-05-21,10:09:19,10:29:49,NA,incomplete,23,filling,0,left,Blue_Star_Dots_4.jpg,Purple_Plus_Dots_1.jpg,Red_Triangle_Stripes_4.jpg,left,1311.1099999996368,true,low,NA,NA,NA,NA,NA,NA,NA,false
Gf64OVz5,372ages0j7iqu68t52ou18jnn9hxrx,35gmh2sv3iugednq97m088p2ic7eok,Gf64OVz5,2020-0188,2020-05-21,10:09:19,10:29:49,NA,incomplete,24,filling,0,left,Red_Plus_Grid_3.jpg,Green_Circle_Grid_4.jpg,Purple_Star_Stripes_3.jpg,left,1076.8549999992829,true,low,NA,NA,NA,NA,NA,NA,NA,false
Gf64OVz5,372ages0j7iqu68t52ou18jnn9hxrx,35gmh2sv3iugednq97m088p2ic7eok,Gf64OVz5,2020-0188,2020-05-21,10:09:19,10:29:49,NA,incomplete,25,filling,1,left,Red_Circle_Stripes_3.jpg,Purple_Star_Stripes_2.jpg,Blue_Triangle_Chess_3.jpg,left,1041.295000000042,true,low,NA,NA,NA,NA,NA,NA,NA,false
Gf64OVz5,372ages0j7iqu68t52ou18jnn9hxrx,35gmh2sv3iugednq97m088p2ic7eok,Gf64OVz5,2020-0188,2020-05-21,10:09:19,10:29:49,NA,incomplete,26,filling,1,left,Purple_Triangle_Grid_3.jpg,Green_Star_Grid_4.jpg,Red_Circle_Chess_3.jpg,right,986.6249999995343,false,low,NA,NA,NA,NA,NA,NA,NA,false
Gf64OVz5,372ages0j7iqu68t52ou18jnn9hxrx,35gmh2sv3iugednq97m088p2ic7eok,Gf64OVz5,2020-0188,2020-05-21,10:09:19,10:29:49,NA,incomplete,27,filling,1,right,Red_Plus_Dots_3.jpg,Purple_Triangle_Chess_3.jpg,Green_Circle_Dots_1.jpg,right,1095.164999999688,true,low,NA,NA,NA,NA,NA,NA,NA,false
Gf64OVz5,372ages0j7iqu68t52ou18jnn9hxrx,35gmh2sv3iugednq97m088p2ic7eok,Gf64OVz5,2020-0188,2020-05-21,10:09:19,10:29:49,NA,incomplete,28,filling,0,right,Green_Plus_Dots_1.jpg,Red_Circle_Stripes_1.jpg,Blue_Triangle_Dots_4.jpg,right,1154.079999999376,true,low,NA,NA,NA,NA,NA,NA,NA,false
Gf64OVz5,372ages0j7iqu68t52ou18jnn9hxrx,35gmh2sv3iugednq97m088p2ic7eok,Gf64OVz5,2020-0188,2020-05-21,10:09:19,10:29:49,NA,incomplete,29,filling,1,left,Green_Star_Dots_4.jpg,Blue_Plus_Dots_2.jpg,Red_Triangle_Chess_4.jpg,left,1187.7049999992596,true,low,NA,NA,NA,NA,NA,NA,NA,false
Gf64OVz5,372ages0j7iqu68t52ou18jnn9hxrx,35gmh2sv3iugednq97m088p2ic7eok,Gf64OVz5,2020-0188,2020-05-21,10:09:19,10:29:49,NA,incomplete,30,number,0,left,Blue_Plus_Grid_1.jpg,Red_Triangle_Stripes_1.jpg,Green_Circle_Grid_4.jpg,right,1258.909999999567,false,low,NA,NA,NA,NA,NA,NA,NA,false
Gf64OVz5,372ages0j7iqu68t52ou18jnn9hxrx,35gmh2sv3iugednq97m088p2ic7eok,Gf64OVz5,2020-0188,2020-05-21,10:09:19,10:29:49,NA,incomplete,31,number,1,right,Red_Star_Chess_1.jpg,Blue_Triangle_Chess_4.jpg,Purple_Circle_Stripes_1.jpg,left,1074.125,false,low,NA,NA,NA,NA,NA,NA,NA,false
Gf64OVz5,372ages0j7iqu68t52ou18jnn9hxrx,35gmh2sv3iugednq97m088p2ic7eok,Gf64OVz5,2020-0188,2020-05-21,10:09:19,10:29:49,NA,incomplete,32,number,0,left,Green_Star_Stripes_4.jpg,Purple_Circle_Dots_4.jpg,Red_Triangle_Stripes_2.jpg,right,1030.9149999993388,false,low,NA,NA,NA,NA,NA,NA,NA,false
Gf64OVz5,372ages0j7iqu68t52ou18jnn9hxrx,35gmh2sv3iugednq97m088p2ic7eok,Gf64OVz5,2020-0188,2020-05-21,10:09:19,10:29:49,NA,incomplete,33,number,1,right,Blue_Circle_Grid_2.jpg,Green_Plus_Grid_1.jpg,Red_Star_Dots_2.jpg,left,1017.039999999688,false,low,NA,NA,NA,NA,NA,NA,NA,false
Gf64OVz5,372ages0j7iqu68t52ou18jnn9hxrx,35gmh2sv3iugednq97m088p2ic7eok,Gf64OVz5,2020-0188,2020-05-21,10:09:19,10:29:49,NA,incomplete,34,number,1,right,Purple_Triangle_Chess_4.jpg,Blue_Circle_Chess_3.jpg,Red_Star_Grid_4.jpg,left,1064.7399999997579,false,low,NA,NA,NA,NA,NA,NA,NA,false
Gf64OVz5,372ages0j7iqu68t52ou18jnn9hxrx,35gmh2sv3iugednq97m088p2ic7eok,Gf64OVz5,2020-0188,2020-05-21,10:09:19,10:29:49,NA,incomplete,35,number,1,left,Green_Star_Grid_2.jpg,Purple_Plus_Dots_2.jpg,Blue_Triangle_Grid_1.jpg,right,1174.3350000006612,false,low,NA,NA,NA,NA,NA,NA,NA,false
Gf64OVz5,372ages0j7iqu68t52ou18jnn9hxrx,35gmh2sv3iugednq97m088p2ic7eok,Gf64OVz5,2020-0188,2020-05-21,10:09:19,10:29:49,NA,incomplete,36,number,1,left,Green_Circle_Stripes_3.jpg,Red_Plus_Grid_3.jpg,Blue_Triangle_Stripes_1.jpg,left,1521.6699999991106,true,low,NA,NA,NA,NA,NA,NA,NA,false
Gf64OVz5,372ages0j7iqu68t52ou18jnn9hxrx,35gmh2sv3iugednq97m088p2ic7eok,Gf64OVz5,2020-0188,2020-05-21,10:09:19,10:29:49,NA,incomplete,37,number,0,right,Purple_Star_Dots_3.jpg,Red_Plus_Dots_4.jpg,Green_Circle_Grid_3.jpg,right,1152.469999999972,true,low,NA,NA,NA,NA,NA,NA,NA,false
Gf64OVz5,372ages0j7iqu68t52ou18jnn9hxrx,35gmh2sv3iugednq97m088p2ic7eok,Gf64OVz5,2020-0188,2020-05-21,10:09:19,10:29:49,NA,incomplete,38,number,1,right,Green_Star_Dots_4.jpg,Blue_Triangle_Dots_2.jpg,Purple_Plus_Stripes_4.jpg,right,820.2350000002189,true,low,NA,NA,NA,NA,NA,NA,NA,false
Gf64OVz5,372ages0j7iqu68t52ou18jnn9hxrx,35gmh2sv3iugednq97m088p2ic7eok,Gf64OVz5,2020-0188,2020-05-21,10:09:19,10:29:49,NA,incomplete,39,number,1,left,Purple_Plus_Stripes_2.jpg,Blue_Triangle_Grid_2.jpg,Green_Circle_Stripes_1.jpg,left,1392.8650000006892,true,low,NA,NA,NA,NA,NA,NA,NA,false
Gf64OVz5,372ages0j7iqu68t52ou18jnn9hxrx,35gmh2sv3iugednq97m088p2ic7eok,Gf64OVz5,2020-0188,2020-05-21,10:09:19,10:29:49,NA,incomplete,40,number,0,left,Purple_Star_Grid_1.jpg,Blue_Plus_Stripes_1.jpg,Green_Triangle_Grid_3.jpg,left,967.5600000000559,true,low,NA,NA,NA,NA,NA,NA,NA,false
Gf64OVz5,372ages0j7iqu68t52ou18jnn9hxrx,35gmh2sv3iugednq97m088p2ic7eok,Gf64OVz5,2020-0188,2020-05-21,10:09:19,10:29:49,NA,incomplete,41,number,1,left,Green_Circle_Dots_2.jpg,Red_Star_Chess_2.jpg,Blue_Triangle_Dots_4.jpg,left,825.6899999995949,true,low,NA,NA,NA,NA,NA,NA,NA,false
Gf64OVz5,372ages0j7iqu68t52ou18jnn9hxrx,35gmh2sv3iugednq97m088p2ic7eok,Gf64OVz5,2020-0188,2020-05-21,10:09:19,10:29:49,NA,incomplete,42,number,1,left,Purple_Star_Dots_1.jpg,Blue_Triangle_Chess_1.jpg,Green_Circle_Dots_4.jpg,left,1004.5599999993574,true,low,NA,NA,NA,NA,NA,NA,NA,false
Gf64OVz5,372ages0j7iqu68t52ou18jnn9hxrx,35gmh2sv3iugednq97m088p2ic7eok,Gf64OVz5,2020-0188,2020-05-21,10:09:19,10:29:49,NA,incomplete,43,number,1,right,Purple_Star_Chess_3.jpg,Red_Circle_Chess_1.jpg,Green_Plus_Grid_3.jpg,right,870.6650000003865,true,low,NA,NA,NA,NA,NA,NA,NA,false
Gf64OVz5,372ages0j7iqu68t52ou18jnn9hxrx,35gmh2sv3iugednq97m088p2ic7eok,Gf64OVz5,2020-0188,2020-05-21,10:09:19,10:29:49,NA,incomplete,44,number,0,right,Red_Circle_Stripes_1.jpg,Green_Triangle_Stripes_2.jpg,Purple_Plus_Grid_1.jpg,right,1047.704999999958,true,low,NA,NA,NA,NA,NA,NA,NA,false
Gf64OVz5,372ages0j7iqu68t52ou18jnn9hxrx,35gmh2sv3iugednq97m088p2ic7eok,Gf64OVz5,2020-0188,2020-05-21,10:09:19,10:29:49,NA,incomplete,45,number,1,right,Red_Star_Stripes_3.jpg,Green_Circle_Stripes_1.jpg,Purple_Triangle_Chess_3.jpg,right,928.4900000002235,true,low,NA,NA,NA,NA,NA,NA,NA,false
Gf64OVz5,372ages0j7iqu68t52ou18jnn9hxrx,35gmh2sv3iugednq97m088p2ic7eok,Gf64OVz5,2020-0188,2020-05-21,10:09:19,10:29:49,NA,incomplete,46,number,1,left,Green_Star_Chess_4.jpg,Blue_Plus_Stripes_4.jpg,Red_Circle_Chess_1.jpg,left,1159.7000000001863,true,low,NA,NA,NA,NA,NA,NA,NA,false
Gf64OVz5,372ages0j7iqu68t52ou18jnn9hxrx,35gmh2sv3iugednq97m088p2ic7eok,Gf64OVz5,2020-0188,2020-05-21,10:09:19,10:29:49,NA,incomplete,47,number,1,right,Blue_Circle_Chess_2.jpg,Purple_Star_Chess_3.jpg,Red_Plus_Stripes_2.jpg,right,1003.9749999996275,true,low,NA,NA,NA,NA,NA,NA,NA,false
Gf64OVz5,372ages0j7iqu68t52ou18jnn9hxrx,35gmh2sv3iugednq97m088p2ic7eok,Gf64OVz5,2020-0188,2020-05-21,10:09:19,10:29:49,NA,incomplete,48,number,1,left,Green_Triangle_Chess_1.jpg,Purple_Circle_Stripes_1.jpg,Blue_Star_Chess_4.jpg,left,822.3649999999907,true,low,NA,NA,NA,NA,NA,NA,NA,false
Gf64OVz5,372ages0j7iqu68t52ou18jnn9hxrx,35gmh2sv3iugednq97m088p2ic7eok,Gf64OVz5,2020-0188,2020-05-21,10:09:19,10:29:49,NA,incomplete,49,number,1,right,Blue_Star_Dots_3.jpg,Red_Triangle_Dots_2.jpg,Green_Plus_Stripes_3.jpg,right,831.7050000005402,true,low,NA,NA,NA,NA,NA,NA,NA,false
Gf64OVz5,372ages0j7iqu68t52ou18jnn9hxrx,35gmh2sv3iugednq97m088p2ic7eok,Gf64OVz5,2020-0188,2020-05-21,10:09:19,10:29:49,NA,incomplete,50,number,1,left,Blue_Plus_Chess_3.jpg,Purple_Circle_Grid_3.jpg,Green_Triangle_Chess_1.jpg,left,844.0550000005169,true,low,NA,NA,NA,NA,NA,NA,NA,false
Gf64OVz5,372ages0j7iqu68t52ou18jnn9hxrx,35gmh2sv3iugednq97m088p2ic7eok,Gf64OVz5,2020-0188,2020-05-21,10:09:19,10:29:49,NA,incomplete,51,number,1,right,Red_Plus_Chess_3.jpg,Green_Triangle_Chess_1.jpg,Purple_Circle_Dots_3.jpg,right,813.1799999991199,true,low,NA,NA,NA,NA,NA,NA,NA,false
Gf64OVz5,372ages0j7iqu68t52ou18jnn9hxrx,35gmh2sv3iugednq97m088p2ic7eok,Gf64OVz5,2020-0188,2020-05-21,10:09:19,10:29:49,NA,incomplete,52,number,1,right,Blue_Circle_Stripes_3.jpg,Green_Star_Stripes_4.jpg,Red_Plus_Chess_3.jpg,right,1170.5949999996228,true,low,NA,NA,NA,NA,NA,NA,NA,false
Gf64OVz5,372ages0j7iqu68t52ou18jnn9hxrx,35gmh2sv3iugednq97m088p2ic7eok,Gf64OVz5,2020-0188,2020-05-21,10:09:19,10:29:49,NA,incomplete,53,number,1,left,Green_Star_Dots_1.jpg,Red_Circle_Stripes_1.jpg,Purple_Plus_Dots_4.jpg,left,693.4849999997532,true,low,NA,NA,NA,NA,NA,NA,NA,false
Gf64OVz5,372ages0j7iqu68t52ou18jnn9hxrx,35gmh2sv3iugednq97m088p2ic7eok,Gf64OVz5,2020-0188,2020-05-21,10:09:19,10:29:49,NA,incomplete,54,number,1,right,Green_Star_Dots_3.jpg,Purple_Plus_Dots_1.jpg,Blue_Triangle_Chess_3.jpg,right,761.4499999999534,true,low,NA,NA,NA,NA,NA,NA,NA,false
Gf64OVz5,372ages0j7iqu68t52ou18jnn9hxrx,35gmh2sv3iugednq97m088p2ic7eok,Gf64OVz5,2020-0188,2020-05-21,10:09:19,10:29:49,NA,incomplete,55,number,1,right,Green_Circle_Grid_1.jpg,Purple_Star_Grid_3.jpg,Red_Plus_Dots_1.jpg,right,805.2049999997253,true,low,NA,NA,NA,NA,NA,NA,NA,false
Gf64OVz5,372ages0j7iqu68t52ou18jnn9hxrx,35gmh2sv3iugednq97m088p2ic7eok,Gf64OVz5,2020-0188,2020-05-21,10:09:19,10:29:49,NA,incomplete,56,number,1,right,Blue_Triangle_Dots_3.jpg,Green_Star_Dots_4.jpg,Purple_Circle_Grid_3.jpg,right,699.5849999993807,true,low,NA,NA,NA,NA,NA,NA,NA,false
Gf64OVz5,372ages0j7iqu68t52ou18jnn9hxrx,35gmh2sv3iugednq97m088p2ic7eok,Gf64OVz5,2020-0188,2020-05-21,10:09:19,10:29:49,NA,incomplete,57,number,1,left,Purple_Triangle_Stripes_4.jpg,Green_Star_Chess_4.jpg,Blue_Circle_Stripes_2.jpg,left,846.050000000163,true,low,NA,NA,NA,NA,NA,NA,NA,false
Gf64OVz5,372ages0j7iqu68t52ou18jnn9hxrx,35gmh2sv3iugednq97m088p2ic7eok,Gf64OVz5,2020-0188,2020-05-21,10:09:19,10:29:49,NA,incomplete,58,number,0,left,Red_Plus_Grid_2.jpg,Blue_Circle_Stripes_2.jpg,Purple_Star_Grid_4.jpg,left,971.1299999998882,true,low,NA,NA,NA,NA,NA,NA,NA,false
Gf64OVz5,372ages0j7iqu68t52ou18jnn9hxrx,35gmh2sv3iugednq97m088p2ic7eok,Gf64OVz5,2020-0188,2020-05-21,10:09:19,10:29:49,NA,incomplete,59,number,1,right,Blue_Plus_Chess_1.jpg,Purple_Circle_Chess_2.jpg,Red_Triangle_Stripes_1.jpg,right,1424.8749999997672,true,low,NA,NA,NA,NA,NA,NA,NA,false
Gf64OVz5,372ages0j7iqu68t52ou18jnn9hxrx,35gmh2sv3iugednq97m088p2ic7eok,Gf64OVz5,2020-0188,2020-05-21,10:09:19,10:29:49,NA,incomplete,60,filling,1,left,Green_Star_Stripes_3.jpg,Purple_Plus_Stripes_4.jpg,Red_Circle_Grid_3.jpg,right,1180.2050000005402,false,low,NA,NA,NA,NA,NA,NA,NA,false
Gf64OVz5,372ages0j7iqu68t52ou18jnn9hxrx,35gmh2sv3iugednq97m088p2ic7eok,Gf64OVz5,2020-0188,2020-05-21,10:09:19,10:29:49,NA,incomplete,61,filling,1,left,Purple_Triangle_Chess_3.jpg,Red_Circle_Chess_4.jpg,Blue_Star_Grid_3.jpg,right,1253.0900000002002,false,low,NA,NA,NA,NA,NA,NA,NA,false
Gf64OVz5,372ages0j7iqu68t52ou18jnn9hxrx,35gmh2sv3iugednq97m088p2ic7eok,Gf64OVz5,2020-0188,2020-05-21,10:09:19,10:29:49,NA,incomplete,62,filling,1,right,Red_Triangle_Chess_1.jpg,Blue_Circle_Dots_1.jpg,Purple_Plus_Chess_2.jpg,right,1890.13499999966,true,low,NA,NA,NA,NA,NA,NA,NA,false
Gf64OVz5,372ages0j7iqu68t52ou18jnn9hxrx,35gmh2sv3iugednq97m088p2ic7eok,Gf64OVz5,2020-0188,2020-05-21,10:09:19,10:29:49,NA,incomplete,63,filling,1,left,Red_Triangle_Grid_1.jpg,Blue_Circle_Grid_2.jpg,Purple_Plus_Dots_1.jpg,left,1390.2850000004983,true,low,NA,NA,NA,NA,NA,NA,NA,false
Gf64OVz5,372ages0j7iqu68t52ou18jnn9hxrx,35gmh2sv3iugednq97m088p2ic7eok,Gf64OVz5,2020-0188,2020-05-21,10:09:19,10:29:49,NA,incomplete,64,filling,0,left,Purple_Triangle_Dots_1.jpg,Blue_Star_Dots_4.jpg,Red_Circle_Grid_1.jpg,left,1310.4450000000652,true,low,NA,NA,NA,NA,NA,NA,NA,false
Gf64OVz5,372ages0j7iqu68t52ou18jnn9hxrx,35gmh2sv3iugednq97m088p2ic7eok,Gf64OVz5,2020-0188,2020-05-21,10:09:19,10:29:49,NA,incomplete,65,filling,1,left,Green_Circle_Chess_4.jpg,Red_Triangle_Chess_2.jpg,Purple_Star_Stripes_4.jpg,left,1071.5399999998044,true,low,NA,NA,NA,NA,NA,NA,NA,false
Gf64OVz5,372ages0j7iqu68t52ou18jnn9hxrx,35gmh2sv3iugednq97m088p2ic7eok,Gf64OVz5,2020-0188,2020-05-21,10:09:19,10:29:49,NA,incomplete,66,filling,1,left,Blue_Plus_Chess_2.jpg,Green_Triangle_Chess_1.jpg,Red_Star_Stripes_2.jpg,left,1293.2949999995762,true,low,NA,NA,NA,NA,NA,NA,NA,false
Gf64OVz5,372ages0j7iqu68t52ou18jnn9hxrx,35gmh2sv3iugednq97m088p2ic7eok,Gf64OVz5,2020-0188,2020-05-21,10:09:19,10:29:49,NA,incomplete,67,filling,0,right,Purple_Plus_Grid_4.jpg,Green_Triangle_Chess_4.jpg,Blue_Circle_Grid_3.jpg,right,1333.9050000003772,true,low,NA,NA,NA,NA,NA,NA,NA,false
Gf64OVz5,372ages0j7iqu68t52ou18jnn9hxrx,35gmh2sv3iugednq97m088p2ic7eok,Gf64OVz5,2020-0188,2020-05-21,10:09:19,10:29:49,NA,incomplete,68,filling,1,right,Red_Plus_Dots_4.jpg,Purple_Triangle_Stripes_4.jpg,Blue_Star_Dots_1.jpg,right,1346.835000000312,true,low,NA,NA,NA,NA,NA,NA,NA,false
Gf64OVz5,372ages0j7iqu68t52ou18jnn9hxrx,35gmh2sv3iugednq97m088p2ic7eok,Gf64OVz5,2020-0188,2020-05-21,10:09:19,10:29:49,NA,incomplete,69,filling,1,right,Blue_Star_Grid_2.jpg,Purple_Plus_Stripes_2.jpg,Red_Triangle_Grid_3.jpg,right,1144.9050000001444,true,low,NA,NA,NA,NA,NA,NA,NA,false
Gf64OVz5,372ages0j7iqu68t52ou18jnn9hxrx,35gmh2sv3iugednq97m088p2ic7eok,Gf64OVz5,2020-0188,2020-05-21,10:09:19,10:29:49,NA,incomplete,70,filling,0,left,Red_Star_Dots_3.jpg,Green_Circle_Dots_1.jpg,Blue_Plus_Stripes_3.jpg,left,1219.600000000326,true,low,NA,NA,NA,NA,NA,NA,NA,false
Gf64OVz5,372ages0j7iqu68t52ou18jnn9hxrx,35gmh2sv3iugednq97m088p2ic7eok,Gf64OVz5,2020-0188,2020-05-21,10:09:19,10:29:49,NA,incomplete,71,filling,1,right,Red_Circle_Chess_1.jpg,Purple_Plus_Stripes_1.jpg,Green_Star_Chess_3.jpg,right,1181.144999999553,true,low,NA,NA,NA,NA,NA,NA,NA,false
Gf64OVz5,372ages0j7iqu68t52ou18jnn9hxrx,35gmh2sv3iugednq97m088p2ic7eok,Gf64OVz5,2020-0188,2020-05-21,10:09:19,10:29:49,NA,incomplete,72,filling,1,left,Purple_Triangle_Dots_3.jpg,Blue_Plus_Dots_1.jpg,Green_Circle_Grid_3.jpg,left,1068.8200000004144,true,low,NA,NA,NA,NA,NA,NA,NA,false
Gf64OVz5,372ages0j7iqu68t52ou18jnn9hxrx,35gmh2sv3iugednq97m088p2ic7eok,Gf64OVz5,2020-0188,2020-05-21,10:09:19,10:29:49,NA,incomplete,73,filling,1,left,Blue_Star_Chess_1.jpg,Purple_Plus_Chess_2.jpg,Green_Circle_Grid_1.jpg,left,1066.195000000298,true,low,NA,NA,NA,NA,NA,NA,NA,false
Gf64OVz5,372ages0j7iqu68t52ou18jnn9hxrx,35gmh2sv3iugednq97m088p2ic7eok,Gf64OVz5,2020-0188,2020-05-21,10:09:19,10:29:49,NA,incomplete,74,filling,1,left,Green_Circle_Stripes_2.jpg,Red_Star_Stripes_3.jpg,Blue_Plus_Dots_2.jpg,left,1181.9649999997346,true,low,NA,NA,NA,NA,NA,NA,NA,false
Gf64OVz5,372ages0j7iqu68t52ou18jnn9hxrx,35gmh2sv3iugednq97m088p2ic7eok,Gf64OVz5,2020-0188,2020-05-21,10:09:19,10:29:49,NA,incomplete,75,filling,1,right,Green_Circle_Stripes_4.jpg,Red_Triangle_Dots_4.jpg,Blue_Plus_Stripes_3.jpg,right,1229.199999999837,true,low,NA,NA,NA,NA,NA,NA,NA,false
Gf64OVz5,372ages0j7iqu68t52ou18jnn9hxrx,35gmh2sv3iugednq97m088p2ic7eok,Gf64OVz5,2020-0188,2020-05-21,10:09:19,10:29:49,NA,incomplete,76,filling,1,left,Purple_Triangle_Chess_4.jpg,Red_Star_Chess_3.jpg,Blue_Circle_Stripes_4.jpg,left,1078.034999999567,true,low,NA,NA,NA,NA,NA,NA,NA,false
Gf64OVz5,372ages0j7iqu68t52ou18jnn9hxrx,35gmh2sv3iugednq97m088p2ic7eok,Gf64OVz5,2020-0188,2020-05-21,10:09:19,10:29:49,NA,incomplete,77,filling,1,left,Purple_Star_Grid_3.jpg,Red_Plus_Grid_4.jpg,Green_Triangle_Chess_3.jpg,left,1300.1050000003306,true,low,NA,NA,NA,NA,NA,NA,NA,false
Gf64OVz5,372ages0j7iqu68t52ou18jnn9hxrx,35gmh2sv3iugednq97m088p2ic7eok,Gf64OVz5,2020-0188,2020-05-21,10:09:19,10:29:49,NA,incomplete,78,filling,1,right,Purple_Star_Grid_2.jpg,Red_Plus_Stripes_2.jpg,Green_Triangle_Grid_3.jpg,right,1299.9850000004517,true,low,NA,NA,NA,NA,NA,NA,NA,false
Gf64OVz5,372ages0j7iqu68t52ou18jnn9hxrx,35gmh2sv3iugednq97m088p2ic7eok,Gf64OVz5,2020-0188,2020-05-21,10:09:19,10:29:49,NA,incomplete,79,filling,1,right,Red_Plus_Stripes_4.jpg,Purple_Star_Dots_4.jpg,Blue_Triangle_Stripes_1.jpg,right,1557.6600000003818,true,low,NA,NA,NA,NA,NA,NA,NA,false
Gf64OVz5,372ages0j7iqu68t52ou18jnn9hxrx,35gmh2sv3iugednq97m088p2ic7eok,Gf64OVz5,2020-0188,2020-05-21,10:09:19,10:29:49,NA,incomplete,80,filling,0,left,Blue_Plus_Stripes_4.jpg,Purple_Circle_Stripes_3.jpg,Green_Triangle_Grid_4.jpg,left,1264.375000000582,true,low,NA,NA,NA,NA,NA,NA,NA,false
Gf64OVz5,372ages0j7iqu68t52ou18jnn9hxrx,35gmh2sv3iugednq97m088p2ic7eok,Gf64OVz5,2020-0188,2020-05-21,10:09:19,10:29:49,NA,incomplete,81,filling,1,left,Blue_Plus_Stripes_1.jpg,Purple_Triangle_Stripes_3.jpg,Green_Circle_Dots_1.jpg,left,1134.5600000005215,true,low,NA,NA,NA,NA,NA,NA,NA,false
Gf64OVz5,372ages0j7iqu68t52ou18jnn9hxrx,35gmh2sv3iugednq97m088p2ic7eok,Gf64OVz5,2020-0188,2020-05-21,10:09:19,10:29:49,NA,incomplete,82,filling,1,left,Blue_Star_Chess_1.jpg,Green_Plus_Chess_2.jpg,Purple_Triangle_Stripes_1.jpg,left,1058.7900000001537,true,low,NA,NA,NA,NA,NA,NA,NA,false
Gf64OVz5,372ages0j7iqu68t52ou18jnn9hxrx,35gmh2sv3iugednq97m088p2ic7eok,Gf64OVz5,2020-0188,2020-05-21,10:09:19,10:29:49,NA,incomplete,83,filling,1,left,Green_Star_Dots_3.jpg,Purple_Circle_Dots_2.jpg,Red_Triangle_Stripes_3.jpg,left,1127.5249999999069,true,low,NA,NA,NA,NA,NA,NA,NA,false
Gf64OVz5,372ages0j7iqu68t52ou18jnn9hxrx,35gmh2sv3iugednq97m088p2ic7eok,Gf64OVz5,2020-0188,2020-05-21,10:09:19,10:29:49,NA,incomplete,84,filling,1,left,Green_Triangle_Stripes_2.jpg,Purple_Plus_Stripes_4.jpg,Red_Circle_Chess_2.jpg,left,1258.214999999851,true,low,NA,NA,NA,NA,NA,NA,NA,false
Gf64OVz5,372ages0j7iqu68t52ou18jnn9hxrx,35gmh2sv3iugednq97m088p2ic7eok,Gf64OVz5,2020-0188,2020-05-21,10:09:19,10:29:49,NA,incomplete,85,filling,1,left,Blue_Triangle_Chess_3.jpg,Red_Star_Chess_4.jpg,Green_Circle_Grid_3.jpg,left,1110.0050000004703,true,low,NA,NA,NA,NA,NA,NA,NA,false
Gf64OVz5,372ages0j7iqu68t52ou18jnn9hxrx,35gmh2sv3iugednq97m088p2ic7eok,Gf64OVz5,2020-0188,2020-05-21,10:09:19,10:29:49,NA,incomplete,86,filling,1,left,Green_Triangle_Chess_4.jpg,Red_Star_Chess_3.jpg,Purple_Plus_Stripes_4.jpg,left,1372.2850000003818,true,low,NA,NA,NA,NA,NA,NA,NA,false
Gf64OVz5,372ages0j7iqu68t52ou18jnn9hxrx,35gmh2sv3iugednq97m088p2ic7eok,Gf64OVz5,2020-0188,2020-05-21,10:09:19,10:29:49,NA,incomplete,87,filling,1,left,Purple_Plus_Dots_1.jpg,Red_Triangle_Dots_4.jpg,Green_Star_Stripes_1.jpg,left,1201.850000000326,true,low,NA,NA,NA,NA,NA,NA,NA,false
Gf64OVz5,372ages0j7iqu68t52ou18jnn9hxrx,35gmh2sv3iugednq97m088p2ic7eok,Gf64OVz5,2020-0188,2020-05-21,10:09:19,10:29:49,NA,incomplete,88,filling,1,right,Blue_Star_Chess_4.jpg,Green_Plus_Grid_4.jpg,Purple_Triangle_Chess_1.jpg,right,1284.9500000001863,true,low,NA,NA,NA,NA,NA,NA,NA,false
Gf64OVz5,372ages0j7iqu68t52ou18jnn9hxrx,35gmh2sv3iugednq97m088p2ic7eok,Gf64OVz5,2020-0188,2020-05-21,10:09:19,10:29:49,NA,incomplete,89,filling,1,left,Green_Triangle_Grid_2.jpg,Red_Star_Grid_3.jpg,Blue_Plus_Dots_2.jpg,left,1008.3150000000605,true,low,NA,NA,NA,NA,NA,NA,NA,false
Gf64OVz5,372ages0j7iqu68t52ou18jnn9hxrx,35gmh2sv3iugednq97m088p2ic7eok,Gf64OVz5,2020-0188,2020-05-21,10:09:19,10:29:49,NA,incomplete,90,number,0,right,Purple_Triangle_Chess_1.jpg,Blue_Plus_Chess_2.jpg,Red_Circle_Dots_1.jpg,left,1165.989999999525,false,low,NA,NA,NA,NA,NA,NA,NA,false
Gf64OVz5,372ages0j7iqu68t52ou18jnn9hxrx,35gmh2sv3iugednq97m088p2ic7eok,Gf64OVz5,2020-0188,2020-05-21,10:09:19,10:29:49,NA,incomplete,91,number,1,right,Red_Star_Chess_4.jpg,Blue_Triangle_Chess_2.jpg,Green_Circle_Grid_4.jpg,left,1252.1800000004005,false,low,NA,NA,NA,NA,NA,NA,NA,false
Gf64OVz5,372ages0j7iqu68t52ou18jnn9hxrx,35gmh2sv3iugednq97m088p2ic7eok,Gf64OVz5,2020-0188,2020-05-21,10:09:19,10:29:49,NA,incomplete,92,number,1,left,Green_Plus_Grid_2.jpg,Blue_Circle_Stripes_2.jpg,Red_Triangle_Grid_3.jpg,left,1500.0399999999208,true,low,NA,NA,NA,NA,NA,NA,NA,false
Gf64OVz5,372ages0j7iqu68t52ou18jnn9hxrx,35gmh2sv3iugednq97m088p2ic7eok,Gf64OVz5,2020-0188,2020-05-21,10:09:19,10:29:49,NA,incomplete,93,number,0,right,Red_Triangle_Grid_4.jpg,Green_Star_Grid_3.jpg,Blue_Plus_Stripes_4.jpg,right,1290.3550000000978,true,low,NA,NA,NA,NA,NA,NA,NA,false
Gf64OVz5,372ages0j7iqu68t52ou18jnn9hxrx,35gmh2sv3iugednq97m088p2ic7eok,Gf64OVz5,2020-0188,2020-05-21,10:09:19,10:29:49,NA,incomplete,94,number,1,left,Green_Circle_Grid_4.jpg,Purple_Plus_Chess_4.jpg,Blue_Triangle_Grid_1.jpg,left,1141.7449999999953,true,low,NA,NA,NA,NA,NA,NA,NA,false
Gf64OVz5,372ages0j7iqu68t52ou18jnn9hxrx,35gmh2sv3iugednq97m088p2ic7eok,Gf64OVz5,2020-0188,2020-05-21,10:09:19,10:29:49,NA,incomplete,95,number,1,left,Green_Star_Grid_1.jpg,Purple_Triangle_Stripes_1.jpg,Red_Plus_Grid_3.jpg,right,1263.1950000004144,false,low,NA,NA,NA,NA,NA,NA,NA,false
Gf64OVz5,372ages0j7iqu68t52ou18jnn9hxrx,35gmh2sv3iugednq97m088p2ic7eok,Gf64OVz5,2020-0188,2020-05-21,10:09:19,10:29:49,NA,incomplete,96,number,1,left,Blue_Triangle_Chess_1.jpg,Red_Star_Dots_1.jpg,Purple_Plus_Chess_3.jpg,left,978.7699999996694,true,low,NA,NA,NA,NA,NA,NA,NA,false
Gf64OVz5,372ages0j7iqu68t52ou18jnn9hxrx,35gmh2sv3iugednq97m088p2ic7eok,Gf64OVz5,2020-0188,2020-05-21,10:09:19,10:29:49,NA,incomplete,97,number,1,right,Green_Plus_Chess_4.jpg,Red_Triangle_Chess_2.jpg,Purple_Circle_Grid_4.jpg,right,1027.9350000001723,true,low,NA,NA,NA,NA,NA,NA,NA,false
Gf64OVz5,372ages0j7iqu68t52ou18jnn9hxrx,35gmh2sv3iugednq97m088p2ic7eok,Gf64OVz5,2020-0188,2020-05-21,10:09:19,10:29:49,NA,incomplete,98,number,1,left,Green_Circle_Grid_1.jpg,Red_Plus_Stripes_1.jpg,Blue_Triangle_Grid_2.jpg,left,1016.0450000003912,true,low,NA,NA,NA,NA,NA,NA,NA,false
Gf64OVz5,372ages0j7iqu68t52ou18jnn9hxrx,35gmh2sv3iugednq97m088p2ic7eok,Gf64OVz5,2020-0188,2020-05-21,10:09:19,10:29:49,NA,incomplete,99,number,1,right,Green_Plus_Dots_3.jpg,Blue_Triangle_Dots_2.jpg,Purple_Circle_Grid_3.jpg,right,928.565000000177,true,low,NA,NA,NA,NA,NA,NA,NA,false
Gf64OVz5,372ages0j7iqu68t52ou18jnn9hxrx,35gmh2sv3iugednq97m088p2ic7eok,Gf64OVz5,2020-0188,2020-05-21,10:09:19,10:29:49,NA,incomplete,100,number,1,left,Purple_Plus_Grid_1.jpg,Blue_Triangle_Chess_1.jpg,Red_Star_Grid_4.jpg,left,807.9500000004191,true,low,NA,NA,NA,NA,NA,NA,NA,false
Gf64OVz5,372ages0j7iqu68t52ou18jnn9hxrx,35gmh2sv3iugednq97m088p2ic7eok,Gf64OVz5,2020-0188,2020-05-21,10:09:19,10:29:49,NA,incomplete,101,number,1,right,Purple_Star_Chess_4.jpg,Blue_Plus_Chess_3.jpg,Red_Circle_Stripes_4.jpg,right,960.2800000002608,true,low,NA,NA,NA,NA,NA,NA,NA,false
Gf64OVz5,372ages0j7iqu68t52ou18jnn9hxrx,35gmh2sv3iugednq97m088p2ic7eok,Gf64OVz5,2020-0188,2020-05-21,10:09:19,10:29:49,NA,incomplete,102,number,1,left,Red_Plus_Grid_1.jpg,Purple_Circle_Chess_1.jpg,Green_Star_Grid_2.jpg,left,844.3200000001816,true,low,NA,NA,NA,NA,NA,NA,NA,false
Gf64OVz5,372ages0j7iqu68t52ou18jnn9hxrx,35gmh2sv3iugednq97m088p2ic7eok,Gf64OVz5,2020-0188,2020-05-21,10:09:19,10:29:49,NA,incomplete,103,number,1,right,Red_Star_Chess_1.jpg,Purple_Circle_Chess_2.jpg,Green_Triangle_Dots_1.jpg,right,795.5750000000698,true,low,NA,NA,NA,NA,NA,NA,NA,false
Gf64OVz5,372ages0j7iqu68t52ou18jnn9hxrx,35gmh2sv3iugednq97m088p2ic7eok,Gf64OVz5,2020-0188,2020-05-21,10:09:19,10:29:49,NA,incomplete,104,number,1,left,Purple_Circle_Dots_1.jpg,Green_Triangle_Chess_1.jpg,Blue_Star_Dots_4.jpg,left,727.4150000002701,true,low,NA,NA,NA,NA,NA,NA,NA,false
Gf64OVz5,372ages0j7iqu68t52ou18jnn9hxrx,35gmh2sv3iugednq97m088p2ic7eok,Gf64OVz5,2020-0188,2020-05-21,10:09:19,10:29:49,NA,incomplete,105,number,1,right,Green_Circle_Grid_3.jpg,Blue_Star_Grid_4.jpg,Purple_Triangle_Dots_3.jpg,right,861.3699999996461,true,low,NA,NA,NA,NA,NA,NA,NA,false
Gf64OVz5,372ages0j7iqu68t52ou18jnn9hxrx,35gmh2sv3iugednq97m088p2ic7eok,Gf64OVz5,2020-0188,2020-05-21,10:09:19,10:29:49,NA,incomplete,106,number,1,left,Blue_Plus_Dots_1.jpg,Red_Star_Stripes_1.jpg,Green_Circle_Dots_2.jpg,left,757.5999999998603,true,low,NA,NA,NA,NA,NA,NA,NA,false
Gf64OVz5,372ages0j7iqu68t52ou18jnn9hxrx,35gmh2sv3iugednq97m088p2ic7eok,Gf64OVz5,2020-0188,2020-05-21,10:09:19,10:29:49,NA,incomplete,107,number,1,left,Purple_Triangle_Dots_1.jpg,Green_Star_Grid_1.jpg,Red_Circle_Dots_4.jpg,left,704.5350000007311,true,low,NA,NA,NA,NA,NA,NA,NA,false
Gf64OVz5,372ages0j7iqu68t52ou18jnn9hxrx,35gmh2sv3iugednq97m088p2ic7eok,Gf64OVz5,2020-0188,2020-05-21,10:09:19,10:29:49,NA,incomplete,108,number,1,right,Green_Triangle_Chess_3.jpg,Blue_Circle_Chess_1.jpg,Red_Star_Grid_3.jpg,right,755.9600000004284,true,low,NA,NA,NA,NA,NA,NA,NA,false
Gf64OVz5,372ages0j7iqu68t52ou18jnn9hxrx,35gmh2sv3iugednq97m088p2ic7eok,Gf64OVz5,2020-0188,2020-05-21,10:09:19,10:29:49,NA,incomplete,109,number,0,left,Blue_Star_Dots_2.jpg,Red_Triangle_Chess_2.jpg,Green_Circle_Dots_3.jpg,left,1096.1049999996321,true,low,NA,NA,NA,NA,NA,NA,NA,false
Gf64OVz5,372ages0j7iqu68t52ou18jnn9hxrx,35gmh2sv3iugednq97m088p2ic7eok,Gf64OVz5,2020-0188,2020-05-21,10:09:19,10:29:49,NA,incomplete,110,number,0,right,Blue_Star_Grid_4.jpg,Red_Triangle_Grid_2.jpg,Green_Circle_Dots_4.jpg,left,1155.5099999995437,false,low,NA,NA,NA,NA,NA,NA,NA,false
Gf64OVz5,372ages0j7iqu68t52ou18jnn9hxrx,35gmh2sv3iugednq97m088p2ic7eok,Gf64OVz5,2020-0188,2020-05-21,10:09:19,10:29:49,NA,incomplete,111,number,1,right,Green_Circle_Grid_1.jpg,Blue_Star_Grid_3.jpg,Red_Plus_Dots_1.jpg,left,1036.3649999998743,false,low,NA,NA,NA,NA,NA,NA,NA,false
Gf64OVz5,372ages0j7iqu68t52ou18jnn9hxrx,35gmh2sv3iugednq97m088p2ic7eok,Gf64OVz5,2020-0188,2020-05-21,10:09:19,10:29:49,NA,incomplete,112,number,0,left,Green_Triangle_Stripes_4.jpg,Red_Circle_Dots_4.jpg,Purple_Star_Stripes_3.jpg,right,899.5100000002421,false,low,NA,NA,NA,NA,NA,NA,NA,false
Gf64OVz5,372ages0j7iqu68t52ou18jnn9hxrx,35gmh2sv3iugednq97m088p2ic7eok,Gf64OVz5,2020-0188,2020-05-21,10:09:19,10:29:49,NA,incomplete,113,number,1,right,Red_Star_Grid_2.jpg,Green_Triangle_Grid_3.jpg,Blue_Plus_Dots_2.jpg,left,837.7999999993481,false,low,NA,NA,NA,NA,NA,NA,NA,false
Gf64OVz5,372ages0j7iqu68t52ou18jnn9hxrx,35gmh2sv3iugednq97m088p2ic7eok,Gf64OVz5,2020-0188,2020-05-21,10:09:19,10:29:49,NA,incomplete,114,number,1,left,Red_Circle_Stripes_4.jpg,Purple_Triangle_Chess_4.jpg,Blue_Star_Stripes_3.jpg,right,1001.4000000001397,false,low,NA,NA,NA,NA,NA,NA,NA,false
Gf64OVz5,372ages0j7iqu68t52ou18jnn9hxrx,35gmh2sv3iugednq97m088p2ic7eok,Gf64OVz5,2020-0188,2020-05-21,10:09:19,10:29:49,NA,incomplete,115,number,0,right,Purple_Triangle_Grid_3.jpg,Red_Plus_Grid_4.jpg,Blue_Star_Stripes_3.jpg,left,1221.1950000001816,false,low,NA,NA,NA,NA,NA,NA,NA,false
Gf64OVz5,372ages0j7iqu68t52ou18jnn9hxrx,35gmh2sv3iugednq97m088p2ic7eok,Gf64OVz5,2020-0188,2020-05-21,10:09:19,10:29:49,NA,incomplete,116,number,1,right,Purple_Circle_Grid_1.jpg,Blue_Plus_Grid_4.jpg,Green_Triangle_Stripes_1.jpg,left,1080.0650000000605,false,low,NA,NA,NA,NA,NA,NA,NA,false
Gf64OVz5,372ages0j7iqu68t52ou18jnn9hxrx,35gmh2sv3iugednq97m088p2ic7eok,Gf64OVz5,2020-0188,2020-05-21,10:09:19,10:29:49,NA,incomplete,117,number,0,left,Purple_Triangle_Stripes_3.jpg,Red_Circle_Dots_3.jpg,Blue_Plus_Stripes_4.jpg,left,1336.3300000000745,true,low,NA,NA,NA,NA,NA,NA,NA,false
Gf64OVz5,372ages0j7iqu68t52ou18jnn9hxrx,35gmh2sv3iugednq97m088p2ic7eok,Gf64OVz5,2020-0188,2020-05-21,10:09:19,10:29:49,NA,incomplete,118,number,1,right,Purple_Triangle_Stripes_2.jpg,Red_Circle_Stripes_1.jpg,Green_Plus_Dots_2.jpg,left,1068.875,false,low,NA,NA,NA,NA,NA,NA,NA,false
Gf64OVz5,372ages0j7iqu68t52ou18jnn9hxrx,35gmh2sv3iugednq97m088p2ic7eok,Gf64OVz5,2020-0188,2020-05-21,10:09:19,10:29:49,NA,incomplete,119,number,1,right,Blue_Star_Grid_4.jpg,Red_Plus_Grid_2.jpg,Green_Circle_Stripes_4.jpg,right,855.7799999999115,true,low,NA,NA,NA,NA,NA,NA,NA,false
Gf64OVz5,372ages0j7iqu68t52ou18jnn9hxrx,35gmh2sv3iugednq97m088p2ic7eok,Gf64OVz5,2020-0188,2020-05-21,10:09:19,10:29:49,NA,incomplete,120,shape,1,right,Blue_Star_Stripes_1.jpg,Blue_Triangle_Grid_2.jpg,Purple_Star_Dots_3.jpg,NA,NA,NA,low,NA,NA,NA,NA,NA,NA,NA,false
Gf64OVz5,372ages0j7iqu68t52ou18jnn9hxrx,35gmh2sv3iugednq97m088p2ic7eok,Gf64OVz5,2020-0188,2020-05-21,10:09:19,10:29:49,NA,incomplete,121,shape,0,right,Blue_Triangle_Grid_1.jpg,Blue_Circle_Dots_2.jpg,Purple_Triangle_Chess_3.jpg,left,1135.1249999998836,false,low,NA,NA,NA,NA,NA,NA,NA,false
Gf64OVz5,372ages0j7iqu68t52ou18jnn9hxrx,35gmh2sv3iugednq97m088p2ic7eok,Gf64OVz5,2020-0188,2020-05-21,10:09:19,10:29:49,NA,incomplete,122,shape,1,right,Green_Circle_Grid_4.jpg,Green_Plus_Chess_3.jpg,Red_Circle_Dots_1.jpg,left,1126.5350000003818,false,low,NA,NA,NA,NA,NA,NA,NA,false
Gf64OVz5,372ages0j7iqu68t52ou18jnn9hxrx,35gmh2sv3iugednq97m088p2ic7eok,Gf64OVz5,2020-0188,2020-05-21,10:09:19,10:29:49,NA,incomplete,123,shape,0,left,Blue_Triangle_Grid_1.jpg,Green_Triangle_Stripes_2.jpg,Blue_Circle_Dots_4.jpg,left,1353.865000000107,true,low,NA,NA,NA,NA,NA,NA,NA,false
Gf64OVz5,372ages0j7iqu68t52ou18jnn9hxrx,35gmh2sv3iugednq97m088p2ic7eok,Gf64OVz5,2020-0188,2020-05-21,10:09:19,10:29:49,NA,incomplete,124,shape,1,left,Green_Triangle_Chess_3.jpg,Purple_Triangle_Stripes_1.jpg,Green_Plus_Dots_2.jpg,none,0,false,low,NA,NA,NA,NA,NA,NA,NA,false
Gf64OVz5,372ages0j7iqu68t52ou18jnn9hxrx,35gmh2sv3iugednq97m088p2ic7eok,Gf64OVz5,2020-0188,2020-05-21,10:09:19,10:29:49,NA,incomplete,125,shape,0,right,Blue_Star_Dots_4.jpg,Blue_Triangle_Chess_3.jpg,Purple_Star_Grid_2.jpg,left,981.9449999995995,false,low,NA,NA,NA,NA,NA,NA,NA,false
Gf64OVz5,372ages0j7iqu68t52ou18jnn9hxrx,35gmh2sv3iugednq97m088p2ic7eok,Gf64OVz5,2020-0188,2020-05-21,10:09:19,10:29:49,NA,incomplete,126,shape,1,left,Blue_Plus_Dots_3.jpg,Purple_Plus_Chess_1.jpg,Blue_Star_Stripes_4.jpg,right,538.475000000326,false,low,NA,NA,NA,NA,NA,NA,NA,false
Gf64OVz5,372ages0j7iqu68t52ou18jnn9hxrx,35gmh2sv3iugednq97m088p2ic7eok,Gf64OVz5,2020-0188,2020-05-21,10:09:19,10:29:49,NA,incomplete,127,shape,0,left,Red_Circle_Stripes_4.jpg,Purple_Circle_Chess_2.jpg,Red_Star_Grid_3.jpg,right,636.6249999991851,false,low,NA,NA,NA,NA,NA,NA,NA,false
Gf64OVz5,372ages0j7iqu68t52ou18jnn9hxrx,35gmh2sv3iugednq97m088p2ic7eok,Gf64OVz5,2020-0188,2020-05-21,10:09:19,10:29:49,NA,incomplete,128,shape,1,right,Purple_Triangle_Stripes_3.jpg,Purple_Circle_Grid_1.jpg,Green_Triangle_Chess_4.jpg,left,775.3949999996694,false,low,NA,NA,NA,NA,NA,NA,NA,false
Gf64OVz5,372ages0j7iqu68t52ou18jnn9hxrx,35gmh2sv3iugednq97m088p2ic7eok,Gf64OVz5,2020-0188,2020-05-21,10:09:19,10:29:49,NA,incomplete,129,shape,1,right,Red_Circle_Stripes_2.jpg,Red_Triangle_Chess_4.jpg,Blue_Circle_Grid_1.jpg,left,605.725000000326,false,low,NA,NA,NA,NA,NA,NA,NA,false
Gf64OVz5,372ages0j7iqu68t52ou18jnn9hxrx,35gmh2sv3iugednq97m088p2ic7eok,Gf64OVz5,2020-0188,2020-05-21,10:09:19,10:29:49,NA,incomplete,130,shape,1,left,Purple_Circle_Dots_1.jpg,Green_Circle_Stripes_3.jpg,Purple_Triangle_Grid_4.jpg,right,1000.6800000000512,false,low,NA,NA,NA,NA,NA,NA,NA,false
Gf64OVz5,372ages0j7iqu68t52ou18jnn9hxrx,35gmh2sv3iugednq97m088p2ic7eok,Gf64OVz5,2020-0188,2020-05-21,10:09:19,10:29:49,NA,incomplete,131,shape,1,right,Purple_Triangle_Grid_1.jpg,Purple_Plus_Chess_3.jpg,Blue_Triangle_Stripes_4.jpg,left,1260.2899999992223,false,low,NA,NA,NA,NA,NA,NA,NA,false
Gf64OVz5,372ages0j7iqu68t52ou18jnn9hxrx,35gmh2sv3iugednq97m088p2ic7eok,Gf64OVz5,2020-0188,2020-05-21,10:09:19,10:29:49,NA,incomplete,132,shape,1,left,Purple_Triangle_Grid_2.jpg,Blue_Triangle_Stripes_4.jpg,Purple_Circle_Dots_1.jpg,right,1392.5899999993853,false,low,NA,NA,NA,NA,NA,NA,NA,false
Gf64OVz5,372ages0j7iqu68t52ou18jnn9hxrx,35gmh2sv3iugednq97m088p2ic7eok,Gf64OVz5,2020-0188,2020-05-21,10:09:19,10:29:49,NA,incomplete,133,shape,1,left,Purple_Star_Stripes_2.jpg,Red_Star_Chess_1.jpg,Purple_Plus_Dots_4.jpg,right,995.0600000001723,false,low,NA,NA,NA,NA,NA,NA,NA,false
Gf64OVz5,372ages0j7iqu68t52ou18jnn9hxrx,35gmh2sv3iugednq97m088p2ic7eok,Gf64OVz5,2020-0188,2020-05-21,10:09:19,10:29:49,NA,incomplete,134,shape,0,right,Red_Circle_Stripes_1.jpg,Red_Star_Grid_2.jpg,Purple_Circle_Chess_3.jpg,right,1336.7800000004936,true,low,NA,NA,NA,NA,NA,NA,NA,false
Gf64OVz5,372ages0j7iqu68t52ou18jnn9hxrx,35gmh2sv3iugednq97m088p2ic7eok,Gf64OVz5,2020-0188,2020-05-21,10:09:19,10:29:49,NA,incomplete,135,shape,1,right,Red_Triangle_Grid_2.jpg,Red_Circle_Dots_1.jpg,Blue_Triangle_Chess_3.jpg,left,700.1300000001211,false,low,NA,NA,NA,NA,NA,NA,NA,false
Gf64OVz5,372ages0j7iqu68t52ou18jnn9hxrx,35gmh2sv3iugednq97m088p2ic7eok,Gf64OVz5,2020-0188,2020-05-21,10:09:19,10:29:49,NA,incomplete,136,shape,1,left,Red_Star_Grid_2.jpg,Purple_Star_Chess_1.jpg,Red_Plus_Dots_4.jpg,left,1292.9149999999208,true,low,NA,NA,NA,NA,NA,NA,NA,false
Gf64OVz5,372ages0j7iqu68t52ou18jnn9hxrx,35gmh2sv3iugednq97m088p2ic7eok,Gf64OVz5,2020-0188,2020-05-21,10:09:19,10:29:49,NA,incomplete,137,shape,1,left,Green_Triangle_Grid_1.jpg,Red_Triangle_Stripes_3.jpg,Green_Plus_Chess_2.jpg,left,1042.1399999995483,true,low,NA,NA,NA,NA,NA,NA,NA,false
Gf64OVz5,372ages0j7iqu68t52ou18jnn9hxrx,35gmh2sv3iugednq97m088p2ic7eok,Gf64OVz5,2020-0188,2020-05-21,10:09:19,10:29:49,NA,incomplete,138,shape,0,left,Red_Plus_Chess_1.jpg,Green_Plus_Grid_4.jpg,Red_Circle_Stripes_3.jpg,left,922.854999999865,true,low,NA,NA,NA,NA,NA,NA,NA,false
Gf64OVz5,372ages0j7iqu68t52ou18jnn9hxrx,35gmh2sv3iugednq97m088p2ic7eok,Gf64OVz5,2020-0188,2020-05-21,10:09:19,10:29:49,NA,incomplete,139,shape,1,left,Blue_Star_Chess_4.jpg,Purple_Star_Dots_3.jpg,Blue_Triangle_Stripes_1.jpg,left,1072.2150000002002,true,low,NA,NA,NA,NA,NA,NA,NA,false
Gf64OVz5,372ages0j7iqu68t52ou18jnn9hxrx,35gmh2sv3iugednq97m088p2ic7eok,Gf64OVz5,2020-0188,2020-05-21,10:09:19,10:29:49,NA,incomplete,140,color,1,left,Blue_Plus_Grid_2.jpg,Blue_Triangle_Stripes_1.jpg,Purple_Plus_Chess_3.jpg,right,794.4050000004936,false,low,NA,NA,NA,NA,NA,NA,NA,false
Gf64OVz5,372ages0j7iqu68t52ou18jnn9hxrx,35gmh2sv3iugednq97m088p2ic7eok,Gf64OVz5,2020-0188,2020-05-21,10:09:19,10:29:49,NA,incomplete,141,color,1,left,Purple_Star_Chess_3.jpg,Purple_Plus_Dots_4.jpg,Red_Star_Grid_1.jpg,right,1074.4899999999907,false,low,NA,NA,NA,NA,NA,NA,NA,false
Gf64OVz5,372ages0j7iqu68t52ou18jnn9hxrx,35gmh2sv3iugednq97m088p2ic7eok,Gf64OVz5,2020-0188,2020-05-21,10:09:19,10:29:49,NA,incomplete,142,color,1,left,Green_Star_Dots_3.jpg,Green_Circle_Stripes_2.jpg,Blue_Star_Chess_1.jpg,right,1062.659999999567,false,low,NA,NA,NA,NA,NA,NA,NA,false
Gf64OVz5,372ages0j7iqu68t52ou18jnn9hxrx,35gmh2sv3iugednq97m088p2ic7eok,Gf64OVz5,2020-0188,2020-05-21,10:09:19,10:29:49,NA,incomplete,143,color,1,right,Purple_Plus_Grid_2.jpg,Blue_Plus_Dots_3.jpg,Purple_Triangle_Chess_1.jpg,left,1285.4450000004144,false,low,NA,NA,NA,NA,NA,NA,NA,false
Gf64OVz5,372ages0j7iqu68t52ou18jnn9hxrx,35gmh2sv3iugednq97m088p2ic7eok,Gf64OVz5,2020-0188,2020-05-21,10:09:19,10:29:49,NA,incomplete,144,color,1,right,Green_Star_Chess_1.jpg,Blue_Star_Dots_4.jpg,Green_Triangle_Grid_3.jpg,right,1090.495000000461,true,low,NA,NA,NA,NA,NA,NA,NA,false
Gf64OVz5,372ages0j7iqu68t52ou18jnn9hxrx,35gmh2sv3iugednq97m088p2ic7eok,Gf64OVz5,2020-0188,2020-05-21,10:09:19,10:29:49,NA,incomplete,145,color,0,right,Red_Circle_Stripes_4.jpg,Purple_Circle_Grid_3.jpg,Red_Plus_Chess_1.jpg,right,1020.4150000000373,true,low,NA,NA,NA,NA,NA,NA,NA,false
Gf64OVz5,372ages0j7iqu68t52ou18jnn9hxrx,35gmh2sv3iugednq97m088p2ic7eok,Gf64OVz5,2020-0188,2020-05-21,10:09:19,10:29:49,NA,incomplete,146,color,1,left,Blue_Star_Dots_1.jpg,Blue_Circle_Stripes_2.jpg,Purple_Star_Grid_3.jpg,right,1196.7599999997765,false,low,NA,NA,NA,NA,NA,NA,NA,false
Gf64OVz5,372ages0j7iqu68t52ou18jnn9hxrx,35gmh2sv3iugednq97m088p2ic7eok,Gf64OVz5,2020-0188,2020-05-21,10:09:19,10:29:49,NA,incomplete,147,color,0,right,Green_Plus_Stripes_3.jpg,Red_Plus_Chess_4.jpg,Green_Triangle_Dots_1.jpg,right,626.9899999997579,true,low,NA,NA,NA,NA,NA,NA,NA,false
Gf64OVz5,372ages0j7iqu68t52ou18jnn9hxrx,35gmh2sv3iugednq97m088p2ic7eok,Gf64OVz5,2020-0188,2020-05-21,10:09:19,10:29:49,NA,incomplete,148,color,1,left,Blue_Plus_Grid_3.jpg,Blue_Triangle_Stripes_1.jpg,Red_Plus_Chess_2.jpg,left,744.9299999998184,true,low,NA,NA,NA,NA,NA,NA,NA,false
Gf64OVz5,372ages0j7iqu68t52ou18jnn9hxrx,35gmh2sv3iugednq97m088p2ic7eok,Gf64OVz5,2020-0188,2020-05-21,10:09:19,10:29:49,NA,incomplete,149,color,1,right,Red_Triangle_Grid_3.jpg,Green_Triangle_Stripes_2.jpg,Red_Circle_Dots_4.jpg,right,829.6949999993667,true,low,NA,NA,NA,NA,NA,NA,NA,false
Gf64OVz5,372ages0j7iqu68t52ou18jnn9hxrx,35gmh2sv3iugednq97m088p2ic7eok,Gf64OVz5,2020-0188,2020-05-21,10:09:19,10:29:49,NA,incomplete,150,color,1,left,Red_Circle_Grid_3.jpg,Red_Triangle_Chess_4.jpg,Green_Circle_Stripes_1.jpg,left,592.0949999999721,true,low,NA,NA,NA,NA,NA,NA,NA,false
Gf64OVz5,372ages0j7iqu68t52ou18jnn9hxrx,35gmh2sv3iugednq97m088p2ic7eok,Gf64OVz5,2020-0188,2020-05-21,10:09:19,10:29:49,NA,incomplete,151,color,1,left,Green_Star_Chess_3.jpg,Green_Circle_Grid_1.jpg,Red_Star_Stripes_2.jpg,left,627.6500000003725,true,low,NA,NA,NA,NA,NA,NA,NA,false
Gf64OVz5,372ages0j7iqu68t52ou18jnn9hxrx,35gmh2sv3iugednq97m088p2ic7eok,Gf64OVz5,2020-0188,2020-05-21,10:09:19,10:29:49,NA,incomplete,152,color,1,right,Blue_Plus_Stripes_3.jpg,Purple_Plus_Grid_1.jpg,Blue_Triangle_Chess_2.jpg,right,600.595000000787,true,low,NA,NA,NA,NA,NA,NA,NA,false
Gf64OVz5,372ages0j7iqu68t52ou18jnn9hxrx,35gmh2sv3iugednq97m088p2ic7eok,Gf64OVz5,2020-0188,2020-05-21,10:09:19,10:29:49,NA,incomplete,153,color,1,right,Red_Triangle_Stripes_3.jpg,Blue_Triangle_Dots_1.jpg,Red_Plus_Grid_2.jpg,right,671.2849999994505,true,low,NA,NA,NA,NA,NA,NA,NA,false
Gf64OVz5,372ages0j7iqu68t52ou18jnn9hxrx,35gmh2sv3iugednq97m088p2ic7eok,Gf64OVz5,2020-0188,2020-05-21,10:09:19,10:29:49,NA,incomplete,154,color,0,right,Purple_Circle_Stripes_2.jpg,Red_Circle_Chess_1.jpg,Purple_Plus_Grid_3.jpg,right,677.7199999996228,true,low,NA,NA,NA,NA,NA,NA,NA,false
Gf64OVz5,372ages0j7iqu68t52ou18jnn9hxrx,35gmh2sv3iugednq97m088p2ic7eok,Gf64OVz5,2020-0188,2020-05-21,10:09:19,10:29:49,NA,incomplete,155,color,1,right,Blue_Triangle_Grid_1.jpg,Purple_Triangle_Stripes_3.jpg,Blue_Circle_Dots_2.jpg,right,916.9949999996461,true,low,NA,NA,NA,NA,NA,NA,NA,false
Gf64OVz5,372ages0j7iqu68t52ou18jnn9hxrx,35gmh2sv3iugednq97m088p2ic7eok,Gf64OVz5,2020-0188,2020-05-21,10:09:19,10:29:49,NA,incomplete,156,color,1,right,Purple_Plus_Dots_4.jpg,Green_Plus_Chess_2.jpg,Purple_Triangle_Grid_3.jpg,right,629.0099999996601,true,low,NA,NA,NA,NA,NA,NA,NA,false
Gf64OVz5,372ages0j7iqu68t52ou18jnn9hxrx,35gmh2sv3iugednq97m088p2ic7eok,Gf64OVz5,2020-0188,2020-05-21,10:09:19,10:29:49,NA,incomplete,157,color,1,left,Purple_Circle_Dots_3.jpg,Purple_Star_Grid_2.jpg,Blue_Circle_Chess_4.jpg,left,630.9849999997532,true,low,NA,NA,NA,NA,NA,NA,NA,false
Gf64OVz5,372ages0j7iqu68t52ou18jnn9hxrx,35gmh2sv3iugednq97m088p2ic7eok,Gf64OVz5,2020-0188,2020-05-21,10:09:19,10:29:49,NA,incomplete,158,color,1,right,Green_Circle_Chess_2.jpg,Red_Circle_Grid_4.jpg,Green_Triangle_Dots_3.jpg,right,629.925000000163,true,low,NA,NA,NA,NA,NA,NA,NA,false
Gf64OVz5,372ages0j7iqu68t52ou18jnn9hxrx,35gmh2sv3iugednq97m088p2ic7eok,Gf64OVz5,2020-0188,2020-05-21,10:09:19,10:29:49,NA,incomplete,159,color,0,left,Blue_Plus_Chess_3.jpg,Blue_Star_Grid_1.jpg,Purple_Plus_Dots_2.jpg,left,616.379999999539,true,low,NA,NA,NA,NA,NA,NA,NA,false
Gf64OVz5,372ages0j7iqu68t52ou18jnn9hxrx,35gmh2sv3iugednq97m088p2ic7eok,Gf64OVz5,2020-0188,2020-05-21,10:09:19,10:29:49,NA,incomplete,160,shape,1,left,Purple_Triangle_Dots_3.jpg,Green_Triangle_Stripes_1.jpg,Purple_Plus_Chess_2.jpg,right,634.1000000002095,false,low,NA,NA,NA,NA,NA,NA,NA,false
Gf64OVz5,372ages0j7iqu68t52ou18jnn9hxrx,35gmh2sv3iugednq97m088p2ic7eok,Gf64OVz5,2020-0188,2020-05-21,10:09:19,10:29:49,NA,incomplete,161,shape,1,left,Purple_Plus_Chess_4.jpg,Blue_Plus_Grid_3.jpg,Purple_Triangle_Stripes_2.jpg,right,619.6799999998184,false,low,NA,NA,NA,NA,NA,NA,NA,false
Gf64OVz5,372ages0j7iqu68t52ou18jnn9hxrx,35gmh2sv3iugednq97m088p2ic7eok,Gf64OVz5,2020-0188,2020-05-21,10:09:19,10:29:49,NA,incomplete,162,shape,1,left,Green_Star_Stripes_2.jpg,Blue_Star_Dots_1.jpg,Green_Triangle_Grid_3.jpg,right,591.0700000004144,false,low,NA,NA,NA,NA,NA,NA,NA,false
Gf64OVz5,372ages0j7iqu68t52ou18jnn9hxrx,35gmh2sv3iugednq97m088p2ic7eok,Gf64OVz5,2020-0188,2020-05-21,10:09:19,10:29:49,NA,incomplete,163,shape,1,left,Blue_Circle_Stripes_2.jpg,Green_Circle_Dots_3.jpg,Blue_Star_Chess_1.jpg,left,1111.16500000027,true,low,NA,NA,NA,NA,NA,NA,NA,false
Gf64OVz5,372ages0j7iqu68t52ou18jnn9hxrx,35gmh2sv3iugednq97m088p2ic7eok,Gf64OVz5,2020-0188,2020-05-21,10:09:19,10:29:49,NA,incomplete,164,shape,1,right,Blue_Star_Stripes_2.jpg,Blue_Circle_Dots_3.jpg,Purple_Star_Chess_1.jpg,right,883.6249999995343,true,low,NA,NA,NA,NA,NA,NA,NA,false
Gf64OVz5,372ages0j7iqu68t52ou18jnn9hxrx,35gmh2sv3iugednq97m088p2ic7eok,Gf64OVz5,2020-0188,2020-05-21,10:09:19,10:29:49,NA,incomplete,165,shape,1,right,Blue_Triangle_Chess_1.jpg,Blue_Star_Dots_3.jpg,Purple_Triangle_Grid_2.jpg,left,819.6250000001164,false,low,NA,NA,NA,NA,NA,NA,NA,false
Gf64OVz5,372ages0j7iqu68t52ou18jnn9hxrx,35gmh2sv3iugednq97m088p2ic7eok,Gf64OVz5,2020-0188,2020-05-21,10:09:19,10:29:49,NA,incomplete,166,shape,0,right,Purple_Plus_Chess_1.jpg,Purple_Triangle_Stripes_2.jpg,Green_Plus_Dots_3.jpg,right,898.7699999997858,true,low,NA,NA,NA,NA,NA,NA,NA,false
Gf64OVz5,372ages0j7iqu68t52ou18jnn9hxrx,35gmh2sv3iugednq97m088p2ic7eok,Gf64OVz5,2020-0188,2020-05-21,10:09:19,10:29:49,NA,incomplete,167,shape,1,right,Green_Triangle_Grid_3.jpg,Green_Plus_Chess_1.jpg,Purple_Triangle_Stripes_4.jpg,right,835.6750000002794,true,low,NA,NA,NA,NA,NA,NA,NA,false
Gf64OVz5,372ages0j7iqu68t52ou18jnn9hxrx,35gmh2sv3iugednq97m088p2ic7eok,Gf64OVz5,2020-0188,2020-05-21,10:09:19,10:29:49,NA,incomplete,168,shape,1,right,Blue_Circle_Stripes_3.jpg,Blue_Triangle_Dots_2.jpg,Green_Circle_Chess_4.jpg,right,934.0700000001816,true,low,NA,NA,NA,NA,NA,NA,NA,false
Gf64OVz5,372ages0j7iqu68t52ou18jnn9hxrx,35gmh2sv3iugednq97m088p2ic7eok,Gf64OVz5,2020-0188,2020-05-21,10:09:19,10:29:49,NA,incomplete,169,shape,0,right,Red_Star_Chess_1.jpg,Red_Triangle_Grid_3.jpg,Purple_Star_Dots_2.jpg,left,690.0450000002747,false,low,NA,NA,NA,NA,NA,NA,NA,false
Gf64OVz5,372ages0j7iqu68t52ou18jnn9hxrx,35gmh2sv3iugednq97m088p2ic7eok,Gf64OVz5,2020-0188,2020-05-21,10:09:19,10:29:49,NA,incomplete,170,shape,1,right,Red_Triangle_Stripes_1.jpg,Red_Plus_Chess_3.jpg,Green_Triangle_Dots_4.jpg,right,976.945000000298,true,low,NA,NA,NA,NA,NA,NA,NA,false
Gf64OVz5,372ages0j7iqu68t52ou18jnn9hxrx,35gmh2sv3iugednq97m088p2ic7eok,Gf64OVz5,2020-0188,2020-05-21,10:09:19,10:29:49,NA,incomplete,171,shape,0,left,Purple_Plus_Dots_4.jpg,Blue_Plus_Stripes_2.jpg,Purple_Star_Grid_3.jpg,left,780.305000000284,true,low,NA,NA,NA,NA,NA,NA,NA,false
Gf64OVz5,372ages0j7iqu68t52ou18jnn9hxrx,35gmh2sv3iugednq97m088p2ic7eok,Gf64OVz5,2020-0188,2020-05-21,10:09:19,10:29:49,NA,incomplete,172,shape,1,left,Purple_Plus_Dots_1.jpg,Red_Plus_Stripes_2.jpg,Purple_Star_Chess_3.jpg,left,658.3200000005309,true,low,NA,NA,NA,NA,NA,NA,NA,false
Gf64OVz5,372ages0j7iqu68t52ou18jnn9hxrx,35gmh2sv3iugednq97m088p2ic7eok,Gf64OVz5,2020-0188,2020-05-21,10:09:19,10:29:49,NA,incomplete,173,shape,1,left,Red_Star_Grid_3.jpg,Blue_Star_Stripes_1.jpg,Red_Plus_Dots_2.jpg,left,870.2499999998836,true,low,NA,NA,NA,NA,NA,NA,NA,false
Gf64OVz5,372ages0j7iqu68t52ou18jnn9hxrx,35gmh2sv3iugednq97m088p2ic7eok,Gf64OVz5,2020-0188,2020-05-21,10:09:19,10:29:49,NA,incomplete,174,shape,1,left,Green_Triangle_Grid_4.jpg,Blue_Triangle_Stripes_1.jpg,Green_Plus_Chess_2.jpg,left,1059.8500000005588,true,low,NA,NA,NA,NA,NA,NA,NA,false
Gf64OVz5,372ages0j7iqu68t52ou18jnn9hxrx,35gmh2sv3iugednq97m088p2ic7eok,Gf64OVz5,2020-0188,2020-05-21,10:09:19,10:29:49,NA,incomplete,175,shape,1,left,Green_Star_Grid_2.jpg,Purple_Star_Chess_4.jpg,Green_Triangle_Stripes_3.jpg,left,931.4299999995856,true,low,NA,NA,NA,NA,NA,NA,NA,false
Gf64OVz5,372ages0j7iqu68t52ou18jnn9hxrx,35gmh2sv3iugednq97m088p2ic7eok,Gf64OVz5,2020-0188,2020-05-21,10:09:19,10:29:49,NA,incomplete,176,shape,1,left,Red_Plus_Grid_2.jpg,Green_Plus_Dots_3.jpg,Red_Triangle_Stripes_4.jpg,left,808.1750000000466,true,low,NA,NA,NA,NA,NA,NA,NA,false
Gf64OVz5,372ages0j7iqu68t52ou18jnn9hxrx,35gmh2sv3iugednq97m088p2ic7eok,Gf64OVz5,2020-0188,2020-05-21,10:09:19,10:29:49,NA,incomplete,177,shape,1,left,Purple_Triangle_Chess_2.jpg,Green_Triangle_Stripes_1.jpg,Purple_Star_Grid_4.jpg,left,903.6450000003679,true,low,NA,NA,NA,NA,NA,NA,NA,false
Gf64OVz5,372ages0j7iqu68t52ou18jnn9hxrx,35gmh2sv3iugednq97m088p2ic7eok,Gf64OVz5,2020-0188,2020-05-21,10:09:19,10:29:49,NA,incomplete,178,shape,1,left,Purple_Plus_Grid_3.jpg,Blue_Plus_Chess_1.jpg,Purple_Circle_Dots_4.jpg,left,732.1950000004144,true,low,NA,NA,NA,NA,NA,NA,NA,false
Gf64OVz5,372ages0j7iqu68t52ou18jnn9hxrx,35gmh2sv3iugednq97m088p2ic7eok,Gf64OVz5,2020-0188,2020-05-21,10:09:19,10:29:49,NA,incomplete,179,shape,1,left,Purple_Star_Stripes_4.jpg,Green_Star_Dots_1.jpg,Purple_Plus_Chess_2.jpg,left,862.7050000005402,true,low,NA,NA,NA,NA,NA,NA,NA,false
Gf64OVz5,372ages0j7iqu68t52ou18jnn9hxrx,35gmh2sv3iugednq97m088p2ic7eok,Gf64OVz5,2020-0188,2020-05-21,10:09:19,10:29:49,NA,incomplete,180,color,1,right,Red_Plus_Stripes_1.jpg,Blue_Plus_Grid_3.jpg,Red_Circle_Dots_4.jpg,left,677.7550000008196,false,low,NA,NA,NA,NA,NA,NA,NA,false
Gf64OVz5,372ages0j7iqu68t52ou18jnn9hxrx,35gmh2sv3iugednq97m088p2ic7eok,Gf64OVz5,2020-0188,2020-05-21,10:09:19,10:29:49,NA,incomplete,181,color,0,right,Purple_Circle_Stripes_4.jpg,Red_Circle_Grid_1.jpg,Purple_Triangle_Dots_3.jpg,left,1010.4399999999441,false,low,NA,NA,NA,NA,NA,NA,NA,false
Gf64OVz5,372ages0j7iqu68t52ou18jnn9hxrx,35gmh2sv3iugednq97m088p2ic7eok,Gf64OVz5,2020-0188,2020-05-21,10:09:19,10:29:49,NA,incomplete,182,color,1,right,Red_Circle_Grid_2.jpg,Purple_Circle_Stripes_4.jpg,Red_Triangle_Chess_3.jpg,left,690.9599999997299,false,low,NA,NA,NA,NA,NA,NA,NA,false
Gf64OVz5,372ages0j7iqu68t52ou18jnn9hxrx,35gmh2sv3iugednq97m088p2ic7eok,Gf64OVz5,2020-0188,2020-05-21,10:09:19,10:29:49,NA,incomplete,183,color,1,left,Blue_Circle_Chess_2.jpg,Blue_Star_Grid_1.jpg,Green_Circle_Stripes_4.jpg,right,594.184999999823,false,low,NA,NA,NA,NA,NA,NA,NA,false
Gf64OVz5,372ages0j7iqu68t52ou18jnn9hxrx,35gmh2sv3iugednq97m088p2ic7eok,Gf64OVz5,2020-0188,2020-05-21,10:09:19,10:29:49,NA,incomplete,184,color,1,left,Green_Plus_Grid_1.jpg,Green_Star_Chess_2.jpg,Red_Plus_Dots_4.jpg,left,1229.0750000001863,true,low,NA,NA,NA,NA,NA,NA,NA,false
Gf64OVz5,372ages0j7iqu68t52ou18jnn9hxrx,35gmh2sv3iugednq97m088p2ic7eok,Gf64OVz5,2020-0188,2020-05-21,10:09:19,10:29:49,NA,incomplete,185,color,0,right,Green_Triangle_Stripes_1.jpg,Red_Triangle_Grid_3.jpg,Green_Circle_Chess_4.jpg,right,591.894999999553,true,low,NA,NA,NA,NA,NA,NA,NA,false
Gf64OVz5,372ages0j7iqu68t52ou18jnn9hxrx,35gmh2sv3iugednq97m088p2ic7eok,Gf64OVz5,2020-0188,2020-05-21,10:09:19,10:29:49,NA,incomplete,186,color,1,left,Red_Circle_Stripes_3.jpg,Red_Star_Dots_4.jpg,Purple_Circle_Grid_2.jpg,left,792.644999999553,true,low,NA,NA,NA,NA,NA,NA,NA,false
Gf64OVz5,372ages0j7iqu68t52ou18jnn9hxrx,35gmh2sv3iugednq97m088p2ic7eok,Gf64OVz5,2020-0188,2020-05-21,10:09:19,10:29:49,NA,incomplete,187,color,1,right,Blue_Plus_Grid_4.jpg,Green_Plus_Chess_2.jpg,Blue_Circle_Dots_3.jpg,right,1206.0749999999534,true,low,NA,NA,NA,NA,NA,NA,NA,false
Gf64OVz5,372ages0j7iqu68t52ou18jnn9hxrx,35gmh2sv3iugednq97m088p2ic7eok,Gf64OVz5,2020-0188,2020-05-21,10:09:19,10:29:49,NA,incomplete,188,color,1,left,Green_Triangle_Stripes_2.jpg,Green_Plus_Grid_4.jpg,Red_Triangle_Chess_1.jpg,left,775.6400000008289,true,low,NA,NA,NA,NA,NA,NA,NA,false
Gf64OVz5,372ages0j7iqu68t52ou18jnn9hxrx,35gmh2sv3iugednq97m088p2ic7eok,Gf64OVz5,2020-0188,2020-05-21,10:09:19,10:29:49,NA,incomplete,189,color,1,right,Green_Plus_Stripes_3.jpg,Red_Plus_Grid_4.jpg,Green_Circle_Dots_1.jpg,right,638.1049999999814,true,low,NA,NA,NA,NA,NA,NA,NA,false
Gf64OVz5,372ages0j7iqu68t52ou18jnn9hxrx,35gmh2sv3iugednq97m088p2ic7eok,Gf64OVz5,2020-0188,2020-05-21,10:09:19,10:29:49,NA,incomplete,190,color,1,right,Green_Plus_Grid_1.jpg,Purple_Plus_Chess_4.jpg,Green_Circle_Dots_3.jpg,right,664.5600000000559,true,low,NA,NA,NA,NA,NA,NA,NA,false
Gf64OVz5,372ages0j7iqu68t52ou18jnn9hxrx,35gmh2sv3iugednq97m088p2ic7eok,Gf64OVz5,2020-0188,2020-05-21,10:09:19,10:29:49,NA,incomplete,191,color,0,right,Blue_Circle_Chess_1.jpg,Green_Circle_Grid_3.jpg,Blue_Star_Stripes_4.jpg,right,627.0750000001863,true,low,NA,NA,NA,NA,NA,NA,NA,false
Gf64OVz5,372ages0j7iqu68t52ou18jnn9hxrx,35gmh2sv3iugednq97m088p2ic7eok,Gf64OVz5,2020-0188,2020-05-21,10:09:19,10:29:49,NA,incomplete,192,color,1,right,Green_Circle_Chess_1.jpg,Blue_Circle_Grid_4.jpg,Green_Star_Stripes_3.jpg,right,747.9549999998417,true,low,NA,NA,NA,NA,NA,NA,NA,false
Gf64OVz5,372ages0j7iqu68t52ou18jnn9hxrx,35gmh2sv3iugednq97m088p2ic7eok,Gf64OVz5,2020-0188,2020-05-21,10:09:19,10:29:49,NA,incomplete,193,color,1,left,Red_Plus_Stripes_2.jpg,Red_Circle_Chess_3.jpg,Blue_Plus_Grid_1.jpg,right,1079.845000000205,false,low,NA,NA,NA,NA,NA,NA,NA,false
Gf64OVz5,372ages0j7iqu68t52ou18jnn9hxrx,35gmh2sv3iugednq97m088p2ic7eok,Gf64OVz5,2020-0188,2020-05-21,10:09:19,10:29:49,NA,incomplete,194,color,0,left,Green_Circle_Grid_3.jpg,Green_Plus_Chess_4.jpg,Blue_Circle_Stripes_2.jpg,left,755.1050000002142,true,low,NA,NA,NA,NA,NA,NA,NA,false
Gf64OVz5,372ages0j7iqu68t52ou18jnn9hxrx,35gmh2sv3iugednq97m088p2ic7eok,Gf64OVz5,2020-0188,2020-05-21,10:09:19,10:29:49,NA,incomplete,195,color,1,left,Blue_Plus_Chess_1.jpg,Blue_Star_Grid_4.jpg,Purple_Plus_Stripes_3.jpg,left,575.9950000001118,true,low,NA,NA,NA,NA,NA,NA,NA,false
Gf64OVz5,372ages0j7iqu68t52ou18jnn9hxrx,35gmh2sv3iugednq97m088p2ic7eok,Gf64OVz5,2020-0188,2020-05-21,10:09:19,10:29:49,NA,incomplete,196,color,0,right,Red_Circle_Dots_3.jpg,Purple_Circle_Stripes_4.jpg,Red_Star_Grid_1.jpg,right,776.2599999997765,true,low,NA,NA,NA,NA,NA,NA,NA,false
Gf64OVz5,372ages0j7iqu68t52ou18jnn9hxrx,35gmh2sv3iugednq97m088p2ic7eok,Gf64OVz5,2020-0188,2020-05-21,10:09:19,10:29:49,NA,incomplete,197,color,1,left,Red_Star_Stripes_3.jpg,Red_Plus_Dots_2.jpg,Green_Star_Grid_1.jpg,left,755.2699999997858,true,low,NA,NA,NA,NA,NA,NA,NA,false
Gf64OVz5,372ages0j7iqu68t52ou18jnn9hxrx,35gmh2sv3iugednq97m088p2ic7eok,Gf64OVz5,2020-0188,2020-05-21,10:09:19,10:29:49,NA,incomplete,198,color,1,right,Purple_Triangle_Stripes_4.jpg,Red_Triangle_Dots_2.jpg,Purple_Star_Grid_1.jpg,right,697.1099999989383,true,low,NA,NA,NA,NA,NA,NA,NA,false
Gf64OVz5,372ages0j7iqu68t52ou18jnn9hxrx,35gmh2sv3iugednq97m088p2ic7eok,Gf64OVz5,2020-0188,2020-05-21,10:09:19,10:29:49,NA,incomplete,199,color,1,right,Red_Circle_Grid_2.jpg,Blue_Circle_Dots_3.jpg,Red_Star_Chess_1.jpg,right,1065.0449999994598,true,low,NA,NA,NA,NA,NA,NA,NA,false
Gf64OVz5,372ages0j7iqu68t52ou18jnn9hxrx,35gmh2sv3iugednq97m088p2ic7eok,Gf64OVz5,2020-0188,2020-05-21,10:09:19,10:29:49,NA,incomplete,200,shape,1,right,Blue_Circle_Chess_3.jpg,Blue_Star_Dots_1.jpg,Green_Circle_Grid_2.jpg,left,908.2550000003539,false,low,NA,NA,NA,NA,NA,NA,NA,false
Gf64OVz5,372ages0j7iqu68t52ou18jnn9hxrx,35gmh2sv3iugednq97m088p2ic7eok,Gf64OVz5,2020-0188,2020-05-21,10:09:19,10:29:49,NA,incomplete,201,shape,0,right,Red_Triangle_Dots_4.jpg,Red_Star_Grid_1.jpg,Blue_Triangle_Chess_3.jpg,left,728.1850000000559,false,low,NA,NA,NA,NA,NA,NA,NA,false
Gf64OVz5,372ages0j7iqu68t52ou18jnn9hxrx,35gmh2sv3iugednq97m088p2ic7eok,Gf64OVz5,2020-0188,2020-05-21,10:09:19,10:29:49,NA,incomplete,202,shape,1,left,Blue_Star_Grid_4.jpg,Purple_Star_Dots_1.jpg,Blue_Circle_Stripes_2.jpg,right,664.8750000004657,false,low,NA,NA,NA,NA,NA,NA,NA,false
Gf64OVz5,372ages0j7iqu68t52ou18jnn9hxrx,35gmh2sv3iugednq97m088p2ic7eok,Gf64OVz5,2020-0188,2020-05-21,10:09:19,10:29:49,NA,incomplete,203,shape,1,right,Green_Circle_Chess_1.jpg,Green_Triangle_Dots_2.jpg,Blue_Circle_Grid_4.jpg,left,634.8550000002142,false,low,NA,NA,NA,NA,NA,NA,NA,false
Gf64OVz5,372ages0j7iqu68t52ou18jnn9hxrx,35gmh2sv3iugednq97m088p2ic7eok,Gf64OVz5,2020-0188,2020-05-21,10:09:19,10:29:49,NA,incomplete,204,shape,1,right,Blue_Star_Grid_4.jpg,Blue_Plus_Chess_3.jpg,Purple_Star_Stripes_2.jpg,left,694.5150000001304,false,low,NA,NA,NA,NA,NA,NA,NA,false
Gf64OVz5,372ages0j7iqu68t52ou18jnn9hxrx,35gmh2sv3iugednq97m088p2ic7eok,Gf64OVz5,2020-0188,2020-05-21,10:09:19,10:29:49,NA,incomplete,205,shape,0,left,Green_Star_Stripes_4.jpg,Red_Star_Grid_3.jpg,Green_Plus_Dots_1.jpg,right,1117.665000000503,false,low,NA,NA,NA,NA,NA,NA,NA,false
Gf64OVz5,372ages0j7iqu68t52ou18jnn9hxrx,35gmh2sv3iugednq97m088p2ic7eok,Gf64OVz5,2020-0188,2020-05-21,10:09:19,10:29:49,NA,incomplete,206,shape,1,right,Purple_Star_Grid_4.jpg,Purple_Triangle_Stripes_3.jpg,Red_Star_Chess_1.jpg,left,1011.144999999553,false,low,NA,NA,NA,NA,NA,NA,NA,false
Gf64OVz5,372ages0j7iqu68t52ou18jnn9hxrx,35gmh2sv3iugednq97m088p2ic7eok,Gf64OVz5,2020-0188,2020-05-21,10:09:19,10:29:49,NA,incomplete,207,shape,1,right,Purple_Circle_Chess_1.jpg,Purple_Plus_Grid_2.jpg,Green_Circle_Stripes_3.jpg,right,903.4399999999441,true,low,NA,NA,NA,NA,NA,NA,NA,false
Gf64OVz5,372ages0j7iqu68t52ou18jnn9hxrx,35gmh2sv3iugednq97m088p2ic7eok,Gf64OVz5,2020-0188,2020-05-21,10:09:19,10:29:49,NA,incomplete,208,shape,1,right,Green_Plus_Dots_4.jpg,Green_Star_Grid_3.jpg,Red_Plus_Chess_2.jpg,right,943.375,true,low,NA,NA,NA,NA,NA,NA,NA,false
Gf64OVz5,372ages0j7iqu68t52ou18jnn9hxrx,35gmh2sv3iugednq97m088p2ic7eok,Gf64OVz5,2020-0188,2020-05-21,10:09:19,10:29:49,NA,incomplete,209,shape,1,right,Green_Circle_Dots_3.jpg,Green_Star_Stripes_2.jpg,Purple_Circle_Grid_1.jpg,right,871.7900000000373,true,low,NA,NA,NA,NA,NA,NA,NA,false
Gf64OVz5,372ages0j7iqu68t52ou18jnn9hxrx,35gmh2sv3iugednq97m088p2ic7eok,Gf64OVz5,2020-0188,2020-05-21,10:09:19,10:29:49,NA,incomplete,210,shape,1,right,Green_Star_Dots_1.jpg,Green_Circle_Stripes_3.jpg,Red_Star_Chess_2.jpg,right,912.7850000006147,true,low,NA,NA,NA,NA,NA,NA,NA,false
Gf64OVz5,372ages0j7iqu68t52ou18jnn9hxrx,35gmh2sv3iugednq97m088p2ic7eok,Gf64OVz5,2020-0188,2020-05-21,10:09:19,10:29:49,NA,incomplete,211,shape,1,right,Blue_Triangle_Chess_1.jpg,Blue_Circle_Dots_3.jpg,Red_Triangle_Grid_4.jpg,right,897.850000000326,true,low,NA,NA,NA,NA,NA,NA,NA,false
Gf64OVz5,372ages0j7iqu68t52ou18jnn9hxrx,35gmh2sv3iugednq97m088p2ic7eok,Gf64OVz5,2020-0188,2020-05-21,10:09:19,10:29:49,NA,incomplete,212,shape,1,left,Blue_Triangle_Dots_4.jpg,Red_Triangle_Grid_1.jpg,Blue_Star_Chess_3.jpg,left,848.5300000002608,true,low,NA,NA,NA,NA,NA,NA,NA,false
Gf64OVz5,372ages0j7iqu68t52ou18jnn9hxrx,35gmh2sv3iugednq97m088p2ic7eok,Gf64OVz5,2020-0188,2020-05-21,10:09:19,10:29:49,NA,incomplete,213,shape,1,right,Red_Star_Dots_1.jpg,Red_Circle_Chess_2.jpg,Blue_Star_Grid_4.jpg,right,905.5550000001676,true,low,NA,NA,NA,NA,NA,NA,NA,false
Gf64OVz5,372ages0j7iqu68t52ou18jnn9hxrx,35gmh2sv3iugednq97m088p2ic7eok,Gf64OVz5,2020-0188,2020-05-21,10:09:19,10:29:49,NA,incomplete,214,shape,1,right,Green_Triangle_Grid_1.jpg,Green_Plus_Chess_4.jpg,Purple_Triangle_Stripes_2.jpg,right,837.6200000003446,true,low,NA,NA,NA,NA,NA,NA,NA,false
Gf64OVz5,372ages0j7iqu68t52ou18jnn9hxrx,35gmh2sv3iugednq97m088p2ic7eok,Gf64OVz5,2020-0188,2020-05-21,10:09:19,10:29:49,NA,incomplete,215,shape,1,left,Green_Star_Dots_2.jpg,Red_Star_Chess_1.jpg,Green_Triangle_Stripes_4.jpg,left,894.4549999996088,true,low,NA,NA,NA,NA,NA,NA,NA,false
Gf64OVz5,372ages0j7iqu68t52ou18jnn9hxrx,35gmh2sv3iugednq97m088p2ic7eok,Gf64OVz5,2020-0188,2020-05-21,10:09:19,10:29:49,NA,incomplete,216,shape,1,right,Red_Plus_Grid_3.jpg,Red_Star_Dots_4.jpg,Green_Plus_Stripes_2.jpg,right,850.4250000005122,true,low,NA,NA,NA,NA,NA,NA,NA,false
Gf64OVz5,372ages0j7iqu68t52ou18jnn9hxrx,35gmh2sv3iugednq97m088p2ic7eok,Gf64OVz5,2020-0188,2020-05-21,10:09:19,10:29:49,NA,incomplete,217,shape,1,left,Green_Plus_Grid_1.jpg,Blue_Plus_Stripes_2.jpg,Green_Circle_Dots_3.jpg,left,703.429999999702,true,low,NA,NA,NA,NA,NA,NA,NA,false
Gf64OVz5,372ages0j7iqu68t52ou18jnn9hxrx,35gmh2sv3iugednq97m088p2ic7eok,Gf64OVz5,2020-0188,2020-05-21,10:09:19,10:29:49,NA,incomplete,218,shape,0,right,Purple_Plus_Chess_1.jpg,Purple_Star_Grid_4.jpg,Green_Plus_Dots_3.jpg,right,742.3699999998789,true,low,NA,NA,NA,NA,NA,NA,NA,false
Gf64OVz5,372ages0j7iqu68t52ou18jnn9hxrx,35gmh2sv3iugednq97m088p2ic7eok,Gf64OVz5,2020-0188,2020-05-21,10:09:19,10:29:49,NA,incomplete,219,shape,1,right,Purple_Circle_Stripes_1.jpg,Purple_Triangle_Dots_2.jpg,Green_Circle_Chess_4.jpg,left,1305.4899999997579,false,low,NA,NA,NA,NA,NA,NA,NA,false
Gf64OVz5,372ages0j7iqu68t52ou18jnn9hxrx,35gmh2sv3iugednq97m088p2ic7eok,Gf64OVz5,2020-0188,2020-05-21,10:09:19,10:29:49,NA,incomplete,220,color,1,right,Red_Plus_Grid_1.jpg,Green_Plus_Dots_3.jpg,Red_Triangle_Stripes_2.jpg,right,971.3649999992922,true,low,NA,NA,NA,NA,NA,NA,NA,false
Gf64OVz5,372ages0j7iqu68t52ou18jnn9hxrx,35gmh2sv3iugednq97m088p2ic7eok,Gf64OVz5,2020-0188,2020-05-21,10:09:19,10:29:49,NA,incomplete,221,color,1,right,Green_Star_Grid_2.jpg,Purple_Star_Dots_3.jpg,Green_Plus_Chess_4.jpg,right,914.6250000002328,true,low,NA,NA,NA,NA,NA,NA,NA,false
Gf64OVz5,372ages0j7iqu68t52ou18jnn9hxrx,35gmh2sv3iugednq97m088p2ic7eok,Gf64OVz5,2020-0188,2020-05-21,10:09:19,10:29:49,NA,incomplete,222,color,1,right,Green_Star_Dots_2.jpg,Blue_Star_Stripes_4.jpg,Green_Plus_Chess_3.jpg,right,1203.8999999994412,true,low,NA,NA,NA,NA,NA,NA,NA,false
Gf64OVz5,372ages0j7iqu68t52ou18jnn9hxrx,35gmh2sv3iugednq97m088p2ic7eok,Gf64OVz5,2020-0188,2020-05-21,10:09:19,10:29:49,NA,incomplete,223,color,1,right,Red_Star_Grid_4.jpg,Blue_Star_Stripes_3.jpg,Red_Circle_Chess_2.jpg,left,887.7399999992922,false,low,NA,NA,NA,NA,NA,NA,NA,false
Gf64OVz5,372ages0j7iqu68t52ou18jnn9hxrx,35gmh2sv3iugednq97m088p2ic7eok,Gf64OVz5,2020-0188,2020-05-21,10:09:19,10:29:49,NA,incomplete,224,color,1,right,Blue_Circle_Stripes_1.jpg,Green_Circle_Chess_3.jpg,Blue_Star_Dots_4.jpg,right,1018.9300000001676,true,low,NA,NA,NA,NA,NA,NA,NA,false
Gf64OVz5,372ages0j7iqu68t52ou18jnn9hxrx,35gmh2sv3iugednq97m088p2ic7eok,Gf64OVz5,2020-0188,2020-05-21,10:09:19,10:29:49,NA,incomplete,225,color,0,right,Red_Star_Stripes_4.jpg,Purple_Star_Grid_3.jpg,Red_Circle_Dots_1.jpg,right,769.1899999999441,true,low,NA,NA,NA,NA,NA,NA,NA,false
Gf64OVz5,372ages0j7iqu68t52ou18jnn9hxrx,35gmh2sv3iugednq97m088p2ic7eok,Gf64OVz5,2020-0188,2020-05-21,10:09:19,10:29:49,NA,incomplete,226,color,1,left,Green_Plus_Stripes_3.jpg,Green_Triangle_Chess_4.jpg,Red_Plus_Grid_2.jpg,left,682.75,true,low,NA,NA,NA,NA,NA,NA,NA,false
Gf64OVz5,372ages0j7iqu68t52ou18jnn9hxrx,35gmh2sv3iugednq97m088p2ic7eok,Gf64OVz5,2020-0188,2020-05-21,10:09:19,10:29:49,NA,incomplete,227,color,0,left,Purple_Plus_Dots_2.jpg,Purple_Circle_Stripes_4.jpg,Blue_Plus_Chess_3.jpg,left,1136.8000000000466,true,low,NA,NA,NA,NA,NA,NA,NA,false
Gf64OVz5,372ages0j7iqu68t52ou18jnn9hxrx,35gmh2sv3iugednq97m088p2ic7eok,Gf64OVz5,2020-0188,2020-05-21,10:09:19,10:29:49,NA,incomplete,228,color,1,left,Blue_Triangle_Dots_1.jpg,Blue_Circle_Stripes_4.jpg,Red_Triangle_Grid_3.jpg,left,894.8799999998882,true,low,NA,NA,NA,NA,NA,NA,NA,false
Gf64OVz5,372ages0j7iqu68t52ou18jnn9hxrx,35gmh2sv3iugednq97m088p2ic7eok,Gf64OVz5,2020-0188,2020-05-21,10:09:19,10:29:49,NA,incomplete,229,color,0,left,Red_Star_Chess_1.jpg,Red_Plus_Stripes_4.jpg,Purple_Star_Grid_3.jpg,left,809.804999999702,true,low,NA,NA,NA,NA,NA,NA,NA,false
Gf64OVz5,372ages0j7iqu68t52ou18jnn9hxrx,35gmh2sv3iugednq97m088p2ic7eok,Gf64OVz5,2020-0188,2020-05-21,10:09:19,10:29:49,NA,incomplete,230,color,1,right,Purple_Circle_Dots_4.jpg,Green_Circle_Grid_3.jpg,Purple_Plus_Chess_1.jpg,right,771.8000000005122,true,low,NA,NA,NA,NA,NA,NA,NA,false
Gf64OVz5,372ages0j7iqu68t52ou18jnn9hxrx,35gmh2sv3iugednq97m088p2ic7eok,Gf64OVz5,2020-0188,2020-05-21,10:09:19,10:29:49,NA,incomplete,231,color,1,left,Red_Star_Dots_4.jpg,Red_Circle_Grid_3.jpg,Blue_Star_Stripes_1.jpg,left,896.5049999996554,true,low,NA,NA,NA,NA,NA,NA,NA,false
Gf64OVz5,372ages0j7iqu68t52ou18jnn9hxrx,35gmh2sv3iugednq97m088p2ic7eok,Gf64OVz5,2020-0188,2020-05-21,10:09:19,10:29:49,NA,incomplete,232,color,1,left,Purple_Star_Dots_2.jpg,Purple_Plus_Chess_4.jpg,Red_Star_Grid_3.jpg,left,877.695000000298,true,low,NA,NA,NA,NA,NA,NA,NA,false
Gf64OVz5,372ages0j7iqu68t52ou18jnn9hxrx,35gmh2sv3iugednq97m088p2ic7eok,Gf64OVz5,2020-0188,2020-05-21,10:09:19,10:29:49,NA,incomplete,233,color,1,left,Green_Triangle_Dots_1.jpg,Green_Star_Chess_4.jpg,Purple_Triangle_Grid_3.jpg,left,722.4199999999255,true,low,NA,NA,NA,NA,NA,NA,NA,false
Gf64OVz5,372ages0j7iqu68t52ou18jnn9hxrx,35gmh2sv3iugednq97m088p2ic7eok,Gf64OVz5,2020-0188,2020-05-21,10:09:19,10:29:49,NA,incomplete,234,color,1,right,Blue_Circle_Chess_1.jpg,Purple_Circle_Grid_3.jpg,Blue_Star_Stripes_4.jpg,right,781.0300000000279,true,low,NA,NA,NA,NA,NA,NA,NA,false
Gf64OVz5,372ages0j7iqu68t52ou18jnn9hxrx,35gmh2sv3iugednq97m088p2ic7eok,Gf64OVz5,2020-0188,2020-05-21,10:09:19,10:29:49,NA,incomplete,235,color,1,left,Purple_Star_Grid_4.jpg,Purple_Circle_Dots_1.jpg,Red_Star_Chess_2.jpg,left,709.2949999994598,true,low,NA,NA,NA,NA,NA,NA,NA,false
Gf64OVz5,372ages0j7iqu68t52ou18jnn9hxrx,35gmh2sv3iugednq97m088p2ic7eok,Gf64OVz5,2020-0188,2020-05-21,10:09:19,10:29:49,NA,incomplete,236,color,1,right,Green_Plus_Dots_1.jpg,Purple_Plus_Chess_3.jpg,Green_Star_Grid_2.jpg,right,692.9350000000559,true,low,NA,NA,NA,NA,NA,NA,NA,false
Gf64OVz5,372ages0j7iqu68t52ou18jnn9hxrx,35gmh2sv3iugednq97m088p2ic7eok,Gf64OVz5,2020-0188,2020-05-21,10:09:19,10:29:49,NA,incomplete,237,color,1,left,Green_Star_Stripes_2.jpg,Green_Triangle_Grid_1.jpg,Blue_Star_Dots_3.jpg,left,673.1100000005681,true,low,NA,NA,NA,NA,NA,NA,NA,false
Gf64OVz5,372ages0j7iqu68t52ou18jnn9hxrx,35gmh2sv3iugednq97m088p2ic7eok,Gf64OVz5,2020-0188,2020-05-21,10:09:19,10:29:49,NA,incomplete,238,color,1,right,Red_Circle_Chess_4.jpg,Green_Circle_Dots_3.jpg,Red_Plus_Stripes_2.jpg,right,741.5649999994785,true,low,NA,NA,NA,NA,NA,NA,NA,false
Gf64OVz5,372ages0j7iqu68t52ou18jnn9hxrx,35gmh2sv3iugednq97m088p2ic7eok,Gf64OVz5,2020-0188,2020-05-21,10:09:19,10:29:49,NA,incomplete,239,color,1,right,Blue_Plus_Dots_3.jpg,Green_Plus_Grid_4.jpg,Blue_Triangle_Chess_1.jpg,right,880.2250000000931,true,low,NA,NA,NA,NA,NA,NA,NA,false
Gf64OVz5,372ages0j7iqu68t52ou18jnn9hxrx,35gmh2sv3iugednq97m088p2ic7eok,Gf64OVz5,2020-0188,2020-05-21,10:09:19,10:29:49,NA,NA,instruction example,filling,NA,NA,Green_Circle_Stripes_1.jpg,Red_Star_Stripes_2.jpg,Blue_Triangle_Chess_1.jpg,NA,NA,NA,NA,NA,NA,NA,NA,NA,NA,NA,undefined
Gf64OVz5,372ages0j7iqu68t52ou18jnn9hxrx,35gmh2sv3iugednq97m088p2ic7eok,Gf64OVz5,2020-0188,2020-05-21,10:09:19,10:29:49,NA,NA,instruction example,filling,NA,NA,Blue_Star_Grid_1.jpg,Purple_Plus_Chess_1.jpg,Red_Triangle_Grid_2.jpg,NA,NA,NA,NA,NA,NA,NA,NA,NA,NA,NA,undefined
Gf64OVz5,372ages0j7iqu68t52ou18jnn9hxrx,35gmh2sv3iugednq97m088p2ic7eok,Gf64OVz5,2020-0188,2020-05-21,10:09:19,10:29:49,NA,NA,instruction example,filling,NA,NA,Purple_Star_Chess_3.jpg,Green_Star_Grid_2.jpg,Purple_Plus_Dots_4.jpg,NA,NA,NA,NA,NA,NA,NA,NA,NA,NA,NA,undefined
Gf64OVz5,372ages0j7iqu68t52ou18jnn9hxrx,35gmh2sv3iugednq97m088p2ic7eok,Gf64OVz5,2020-0188,2020-05-21,10:09:19,10:29:49,NA,NA,instruction example,filling,NA,NA,Purple_Circle_Stripes_3.jpg,Purple_Star_Dots_1.jpg,Green_Circle_Chess_4.jpg,NA,NA,NA,NA,NA,NA,NA,NA,NA,NA,NA,undefined
Gf64OVz5,372ages0j7iqu68t52ou18jnn9hxrx,35gmh2sv3iugednq97m088p2ic7eok,Gf64OVz5,2020-0188,2020-05-21,10:09:19,10:29:49,1204470.085000001,1232269.04,NA,NA,NA,NA,NA,NA,NA,NA,NA,NA,NA,56,Asian,Male,Taiwanese,no,yes,no,undefined
