workerId,hitId,assignmentId,subject,studyid,exp_date,exp_start,exp_end,time_start,time_end,trial,type,reward_validity,answer,image_top,image_left,image_right,response,response_time,response_acc,volatility,practice
iCJoNNYm,3ncn4n1h2juy25d07zfv3rnlauxnbw,35gmh2sv3iugednq97m088p3geuoel,iCJoNNYm,2020-0188,2020-11-19,12:46:50,13:16:31,NA,incomplete,0,color,1,right,Green_Plus_Chess_1.jpg,Purple_Star_Grid_1.jpg,Green_Triangle_Stripes_3.jpg,right,1960.6299999868497,true,NA,true
iCJoNNYm,3ncn4n1h2juy25d07zfv3rnlauxnbw,35gmh2sv3iugednq97m088p3geuoel,iCJoNNYm,2020-0188,2020-11-19,12:46:50,13:16:31,NA,incomplete,1,color,1,right,Red_Plus_Stripes_3.jpg,Blue_Star_Grid_3.jpg,Red_Circle_Dots_4.jpg,right,1125.7949999999255,true,NA,true
iCJoNNYm,3ncn4n1h2juy25d07zfv3rnlauxnbw,35gmh2sv3iugednq97m088p3geuoel,iCJoNNYm,2020-0188,2020-11-19,12:46:50,13:16:31,NA,incomplete,2,color,1,left,Red_Star_Stripes_4.jpg,Red_Plus_Chess_2.jpg,Blue_Triangle_Dots_4.jpg,left,925.1800000201911,true,NA,true
iCJoNNYm,3ncn4n1h2juy25d07zfv3rnlauxnbw,35gmh2sv3iugednq97m088p3geuoel,iCJoNNYm,2020-0188,2020-11-19,12:46:50,13:16:31,NA,incomplete,3,color,0,right,Blue_Triangle_Stripes_2.jpg,Green_Plus_Chess_2.jpg,Blue_Star_Dots_1.jpg,right,1174.5899999514222,true,NA,true
iCJoNNYm,3ncn4n1h2juy25d07zfv3rnlauxnbw,35gmh2sv3iugednq97m088p3geuoel,iCJoNNYm,2020-0188,2020-11-19,12:46:50,13:16:31,NA,incomplete,4,color,1,right,Blue_Plus_Dots_1.jpg,Purple_Star_Stripes_1.jpg,Blue_Triangle_Chess_4.jpg,right,1266.4050000021234,true,NA,true
iCJoNNYm,3ncn4n1h2juy25d07zfv3rnlauxnbw,35gmh2sv3iugednq97m088p3geuoel,iCJoNNYm,2020-0188,2020-11-19,12:46:50,13:16:31,NA,incomplete,5,color,0,right,Purple_Plus_Stripes_3.jpg,Blue_Triangle_Grid_3.jpg,Purple_Star_Chess_4.jpg,right,1298.2250000350177,true,NA,true
iCJoNNYm,3ncn4n1h2juy25d07zfv3rnlauxnbw,35gmh2sv3iugednq97m088p3geuoel,iCJoNNYm,2020-0188,2020-11-19,12:46:50,13:16:31,NA,incomplete,6,color,0,right,Green_Star_Dots_4.jpg,Purple_Triangle_Chess_4.jpg,Green_Circle_Stripes_2.jpg,right,1756.374999997206,true,NA,true
iCJoNNYm,3ncn4n1h2juy25d07zfv3rnlauxnbw,35gmh2sv3iugednq97m088p3geuoel,iCJoNNYm,2020-0188,2020-11-19,12:46:50,13:16:31,NA,incomplete,7,color,1,right,Purple_Circle_Grid_3.jpg,Blue_Star_Dots_3.jpg,Purple_Plus_Stripes_4.jpg,right,1267.284999950789,true,NA,true
iCJoNNYm,3ncn4n1h2juy25d07zfv3rnlauxnbw,35gmh2sv3iugednq97m088p3geuoel,iCJoNNYm,2020-0188,2020-11-19,12:46:50,13:16:31,NA,incomplete,8,color,0,left,Purple_Triangle_Stripes_1.jpg,Purple_Plus_Chess_3.jpg,Red_Star_Dots_1.jpg,left,1018.804999999702,true,NA,true
iCJoNNYm,3ncn4n1h2juy25d07zfv3rnlauxnbw,35gmh2sv3iugednq97m088p3geuoel,iCJoNNYm,2020-0188,2020-11-19,12:46:50,13:16:31,NA,incomplete,9,color,1,right,Purple_Star_Dots_3.jpg,Green_Plus_Stripes_3.jpg,Purple_Triangle_Grid_1.jpg,right,1422.4999999860302,true,NA,true
iCJoNNYm,3ncn4n1h2juy25d07zfv3rnlauxnbw,35gmh2sv3iugednq97m088p3geuoel,iCJoNNYm,2020-0188,2020-11-19,12:46:50,13:16:31,NA,incomplete,10,color,1,left,Purple_Plus_Stripes_2.jpg,Purple_Circle_Grid_1.jpg,Red_Triangle_Dots_2.jpg,left,1121.6799999820068,true,NA,true
iCJoNNYm,3ncn4n1h2juy25d07zfv3rnlauxnbw,35gmh2sv3iugednq97m088p3geuoel,iCJoNNYm,2020-0188,2020-11-19,12:46:50,13:16:31,NA,incomplete,11,color,1,right,Green_Triangle_Grid_1.jpg,Purple_Circle_Dots_1.jpg,Green_Plus_Chess_3.jpg,right,1212.7449999097735,true,NA,true
iCJoNNYm,3ncn4n1h2juy25d07zfv3rnlauxnbw,35gmh2sv3iugednq97m088p3geuoel,iCJoNNYm,2020-0188,2020-11-19,12:46:50,13:16:31,NA,incomplete,12,color,1,right,Red_Star_Dots_4.jpg,Purple_Plus_Grid_4.jpg,Red_Triangle_Chess_1.jpg,right,989.3549999687821,true,NA,true
iCJoNNYm,3ncn4n1h2juy25d07zfv3rnlauxnbw,35gmh2sv3iugednq97m088p3geuoel,iCJoNNYm,2020-0188,2020-11-19,12:46:50,13:16:31,NA,incomplete,13,color,0,right,Red_Circle_Dots_4.jpg,Green_Plus_Chess_4.jpg,Red_Triangle_Grid_3.jpg,right,881.7400000989437,true,NA,true
iCJoNNYm,3ncn4n1h2juy25d07zfv3rnlauxnbw,35gmh2sv3iugednq97m088p3geuoel,iCJoNNYm,2020-0188,2020-11-19,12:46:50,13:16:31,NA,incomplete,14,color,1,right,Blue_Star_Dots_1.jpg,Green_Circle_Stripes_1.jpg,Blue_Plus_Grid_4.jpg,right,891.1100000841543,true,NA,true
iCJoNNYm,3ncn4n1h2juy25d07zfv3rnlauxnbw,35gmh2sv3iugednq97m088p3geuoel,iCJoNNYm,2020-0188,2020-11-19,12:46:50,13:16:31,NA,incomplete,15,color,1,right,Blue_Star_Dots_2.jpg,Purple_Circle_Grid_2.jpg,Blue_Triangle_Stripes_4.jpg,right,811.3550000125542,true,NA,true
iCJoNNYm,3ncn4n1h2juy25d07zfv3rnlauxnbw,35gmh2sv3iugednq97m088p3geuoel,iCJoNNYm,2020-0188,2020-11-19,12:46:50,13:16:31,NA,incomplete,16,color,1,left,Red_Circle_Grid_3.jpg,Red_Triangle_Stripes_1.jpg,Purple_Star_Dots_3.jpg,left,1081.8649999564514,true,NA,true
iCJoNNYm,3ncn4n1h2juy25d07zfv3rnlauxnbw,35gmh2sv3iugednq97m088p3geuoel,iCJoNNYm,2020-0188,2020-11-19,12:46:50,13:16:31,NA,incomplete,17,color,1,left,Red_Triangle_Stripes_1.jpg,Red_Star_Grid_3.jpg,Blue_Circle_Chess_1.jpg,left,792.6049999659881,true,NA,true
iCJoNNYm,3ncn4n1h2juy25d07zfv3rnlauxnbw,35gmh2sv3iugednq97m088p3geuoel,iCJoNNYm,2020-0188,2020-11-19,12:46:50,13:16:31,NA,incomplete,18,color,0,left,Red_Triangle_Stripes_4.jpg,Red_Plus_Chess_2.jpg,Purple_Circle_Dots_4.jpg,left,965.6449999893084,true,NA,true
iCJoNNYm,3ncn4n1h2juy25d07zfv3rnlauxnbw,35gmh2sv3iugednq97m088p3geuoel,iCJoNNYm,2020-0188,2020-11-19,12:46:50,13:16:31,NA,incomplete,19,color,1,right,Red_Circle_Chess_2.jpg,Green_Star_Dots_2.jpg,Red_Triangle_Stripes_3.jpg,right,890.70999994874,true,NA,true
iCJoNNYm,3ncn4n1h2juy25d07zfv3rnlauxnbw,35gmh2sv3iugednq97m088p3geuoel,iCJoNNYm,2020-0188,2020-11-19,12:46:50,13:16:31,NA,incomplete,20,number,1,left,Blue_Triangle_Grid_4.jpg,Green_Plus_Stripes_4.jpg,Blue_Star_Chess_3.jpg,none,0,false,NA,true
iCJoNNYm,3ncn4n1h2juy25d07zfv3rnlauxnbw,35gmh2sv3iugednq97m088p3geuoel,iCJoNNYm,2020-0188,2020-11-19,12:46:50,13:16:31,NA,incomplete,21,number,1,left,Blue_Triangle_Dots_2.jpg,Green_Star_Grid_2.jpg,Blue_Plus_Stripes_3.jpg,left,1773.494999972172,true,NA,true
iCJoNNYm,3ncn4n1h2juy25d07zfv3rnlauxnbw,35gmh2sv3iugednq97m088p3geuoel,iCJoNNYm,2020-0188,2020-11-19,12:46:50,13:16:31,NA,incomplete,22,number,0,right,Blue_Star_Chess_3.jpg,Blue_Circle_Grid_2.jpg,Green_Triangle_Dots_3.jpg,right,1338.4350000414997,true,NA,true
iCJoNNYm,3ncn4n1h2juy25d07zfv3rnlauxnbw,35gmh2sv3iugednq97m088p3geuoel,iCJoNNYm,2020-0188,2020-11-19,12:46:50,13:16:31,NA,incomplete,23,number,1,right,Green_Circle_Dots_1.jpg,Green_Triangle_Chess_4.jpg,Red_Star_Stripes_1.jpg,right,1088.7999999104068,true,NA,true
iCJoNNYm,3ncn4n1h2juy25d07zfv3rnlauxnbw,35gmh2sv3iugednq97m088p3geuoel,iCJoNNYm,2020-0188,2020-11-19,12:46:50,13:16:31,NA,incomplete,24,number,1,left,Purple_Circle_Dots_3.jpg,Blue_Triangle_Stripes_3.jpg,Purple_Plus_Grid_1.jpg,left,1235.7199999969453,true,NA,true
iCJoNNYm,3ncn4n1h2juy25d07zfv3rnlauxnbw,35gmh2sv3iugednq97m088p3geuoel,iCJoNNYm,2020-0188,2020-11-19,12:46:50,13:16:31,NA,incomplete,25,number,1,right,Blue_Triangle_Grid_2.jpg,Blue_Star_Dots_3.jpg,Red_Circle_Chess_2.jpg,right,954.6700000064448,true,NA,true
iCJoNNYm,3ncn4n1h2juy25d07zfv3rnlauxnbw,35gmh2sv3iugednq97m088p3geuoel,iCJoNNYm,2020-0188,2020-11-19,12:46:50,13:16:31,NA,incomplete,26,number,1,left,Red_Triangle_Grid_4.jpg,Blue_Plus_Chess_4.jpg,Red_Circle_Dots_3.jpg,left,1129.7100000083447,true,NA,true
iCJoNNYm,3ncn4n1h2juy25d07zfv3rnlauxnbw,35gmh2sv3iugednq97m088p3geuoel,iCJoNNYm,2020-0188,2020-11-19,12:46:50,13:16:31,NA,incomplete,27,number,1,right,Blue_Star_Grid_3.jpg,Blue_Circle_Stripes_4.jpg,Red_Triangle_Chess_3.jpg,right,1514.1750000184402,true,NA,true
iCJoNNYm,3ncn4n1h2juy25d07zfv3rnlauxnbw,35gmh2sv3iugednq97m088p3geuoel,iCJoNNYm,2020-0188,2020-11-19,12:46:50,13:16:31,NA,incomplete,28,number,1,left,Blue_Plus_Grid_3.jpg,Purple_Triangle_Dots_3.jpg,Blue_Circle_Stripes_1.jpg,left,1042.5550000509247,true,NA,true
iCJoNNYm,3ncn4n1h2juy25d07zfv3rnlauxnbw,35gmh2sv3iugednq97m088p3geuoel,iCJoNNYm,2020-0188,2020-11-19,12:46:50,13:16:31,NA,incomplete,29,number,1,left,Blue_Circle_Stripes_1.jpg,Purple_Triangle_Grid_1.jpg,Blue_Star_Dots_2.jpg,left,899.5949999662116,true,NA,true
iCJoNNYm,3ncn4n1h2juy25d07zfv3rnlauxnbw,35gmh2sv3iugednq97m088p3geuoel,iCJoNNYm,2020-0188,2020-11-19,12:46:50,13:16:31,NA,incomplete,30,number,1,left,Blue_Plus_Dots_2.jpg,Purple_Triangle_Stripes_2.jpg,Blue_Star_Grid_1.jpg,left,876.300000003539,true,NA,true
iCJoNNYm,3ncn4n1h2juy25d07zfv3rnlauxnbw,35gmh2sv3iugednq97m088p3geuoel,iCJoNNYm,2020-0188,2020-11-19,12:46:50,13:16:31,NA,incomplete,31,number,1,left,Red_Star_Dots_3.jpg,Purple_Plus_Stripes_3.jpg,Red_Circle_Chess_2.jpg,left,1269.2500000121072,true,NA,true
iCJoNNYm,3ncn4n1h2juy25d07zfv3rnlauxnbw,35gmh2sv3iugednq97m088p3geuoel,iCJoNNYm,2020-0188,2020-11-19,12:46:50,13:16:31,NA,incomplete,32,number,0,left,Blue_Plus_Grid_1.jpg,Purple_Circle_Stripes_1.jpg,Blue_Triangle_Chess_4.jpg,left,1056.8249999778345,true,NA,true
iCJoNNYm,3ncn4n1h2juy25d07zfv3rnlauxnbw,35gmh2sv3iugednq97m088p3geuoel,iCJoNNYm,2020-0188,2020-11-19,12:46:50,13:16:31,NA,incomplete,33,number,1,left,Purple_Star_Grid_2.jpg,Red_Circle_Dots_2.jpg,Purple_Triangle_Chess_4.jpg,left,1168.0799999739975,true,NA,true
iCJoNNYm,3ncn4n1h2juy25d07zfv3rnlauxnbw,35gmh2sv3iugednq97m088p3geuoel,iCJoNNYm,2020-0188,2020-11-19,12:46:50,13:16:31,NA,incomplete,34,number,1,right,Green_Star_Grid_1.jpg,Green_Plus_Stripes_3.jpg,Purple_Circle_Dots_1.jpg,right,1182.1950000012293,true,NA,true
iCJoNNYm,3ncn4n1h2juy25d07zfv3rnlauxnbw,35gmh2sv3iugednq97m088p3geuoel,iCJoNNYm,2020-0188,2020-11-19,12:46:50,13:16:31,NA,incomplete,35,number,1,right,Green_Star_Grid_1.jpg,Green_Circle_Chess_2.jpg,Red_Triangle_Dots_1.jpg,right,1035.7349999248981,true,NA,true
iCJoNNYm,3ncn4n1h2juy25d07zfv3rnlauxnbw,35gmh2sv3iugednq97m088p3geuoel,iCJoNNYm,2020-0188,2020-11-19,12:46:50,13:16:31,NA,incomplete,36,number,1,right,Green_Triangle_Stripes_1.jpg,Green_Plus_Dots_3.jpg,Blue_Star_Chess_1.jpg,right,1591.9299999950454,true,NA,true
iCJoNNYm,3ncn4n1h2juy25d07zfv3rnlauxnbw,35gmh2sv3iugednq97m088p3geuoel,iCJoNNYm,2020-0188,2020-11-19,12:46:50,13:16:31,NA,incomplete,37,number,1,left,Red_Circle_Chess_4.jpg,Blue_Triangle_Dots_4.jpg,Red_Plus_Grid_3.jpg,left,1274.6150000020862,true,NA,true
iCJoNNYm,3ncn4n1h2juy25d07zfv3rnlauxnbw,35gmh2sv3iugednq97m088p3geuoel,iCJoNNYm,2020-0188,2020-11-19,12:46:50,13:16:31,NA,incomplete,38,number,1,right,Blue_Triangle_Grid_2.jpg,Blue_Circle_Chess_3.jpg,Green_Star_Stripes_2.jpg,right,1155.7150000007823,true,NA,true
iCJoNNYm,3ncn4n1h2juy25d07zfv3rnlauxnbw,35gmh2sv3iugednq97m088p3geuoel,iCJoNNYm,2020-0188,2020-11-19,12:46:50,13:16:31,NA,incomplete,39,number,1,right,Blue_Plus_Chess_4.jpg,Blue_Triangle_Stripes_1.jpg,Green_Star_Grid_4.jpg,right,929.424999980256,true,NA,true
iCJoNNYm,3ncn4n1h2juy25d07zfv3rnlauxnbw,35gmh2sv3iugednq97m088p3geuoel,iCJoNNYm,2020-0188,2020-11-19,12:46:50,13:16:31,NA,incomplete,0,color,1,left,Purple_Plus_Chess_2.jpg,Purple_Circle_Stripes_4.jpg,Red_Triangle_Grid_2.jpg,none,0,false,high,false
iCJoNNYm,3ncn4n1h2juy25d07zfv3rnlauxnbw,35gmh2sv3iugednq97m088p3geuoel,iCJoNNYm,2020-0188,2020-11-19,12:46:50,13:16:31,NA,incomplete,1,color,1,right,Green_Star_Stripes_2.jpg,Blue_Circle_Dots_2.jpg,Green_Plus_Chess_3.jpg,right,631.0150000499561,true,high,false
iCJoNNYm,3ncn4n1h2juy25d07zfv3rnlauxnbw,35gmh2sv3iugednq97m088p3geuoel,iCJoNNYm,2020-0188,2020-11-19,12:46:50,13:16:31,NA,incomplete,2,color,1,left,Purple_Plus_Dots_2.jpg,Purple_Star_Chess_1.jpg,Red_Triangle_Stripes_2.jpg,left,714.3599999835715,true,high,false
iCJoNNYm,3ncn4n1h2juy25d07zfv3rnlauxnbw,35gmh2sv3iugednq97m088p3geuoel,iCJoNNYm,2020-0188,2020-11-19,12:46:50,13:16:31,NA,incomplete,3,color,0,right,Green_Star_Grid_3.jpg,Red_Circle_Stripes_3.jpg,Green_Triangle_Chess_4.jpg,right,716.539999935776,true,high,false
iCJoNNYm,3ncn4n1h2juy25d07zfv3rnlauxnbw,35gmh2sv3iugednq97m088p3geuoel,iCJoNNYm,2020-0188,2020-11-19,12:46:50,13:16:31,NA,incomplete,4,color,1,left,Blue_Star_Chess_4.jpg,Blue_Circle_Grid_2.jpg,Purple_Plus_Dots_4.jpg,left,1330.1499999361113,true,high,false
iCJoNNYm,3ncn4n1h2juy25d07zfv3rnlauxnbw,35gmh2sv3iugednq97m088p3geuoel,iCJoNNYm,2020-0188,2020-11-19,12:46:50,13:16:31,NA,incomplete,5,color,1,left,Purple_Plus_Stripes_2.jpg,Purple_Circle_Dots_4.jpg,Green_Star_Grid_2.jpg,left,793.2399999117479,true,high,false
iCJoNNYm,3ncn4n1h2juy25d07zfv3rnlauxnbw,35gmh2sv3iugednq97m088p3geuoel,iCJoNNYm,2020-0188,2020-11-19,12:46:50,13:16:31,NA,incomplete,6,color,1,left,Purple_Circle_Grid_1.jpg,Purple_Plus_Dots_2.jpg,Blue_Triangle_Chess_1.jpg,left,550.6049999967217,true,high,false
iCJoNNYm,3ncn4n1h2juy25d07zfv3rnlauxnbw,35gmh2sv3iugednq97m088p3geuoel,iCJoNNYm,2020-0188,2020-11-19,12:46:50,13:16:31,NA,incomplete,7,color,1,left,Green_Plus_Grid_3.jpg,Green_Triangle_Chess_4.jpg,Blue_Circle_Dots_3.jpg,left,588.1349999690428,true,high,false
iCJoNNYm,3ncn4n1h2juy25d07zfv3rnlauxnbw,35gmh2sv3iugednq97m088p3geuoel,iCJoNNYm,2020-0188,2020-11-19,12:46:50,13:16:31,NA,incomplete,8,color,0,left,Purple_Plus_Grid_2.jpg,Purple_Circle_Chess_1.jpg,Green_Star_Stripes_2.jpg,left,794.4300000090152,true,high,false
iCJoNNYm,3ncn4n1h2juy25d07zfv3rnlauxnbw,35gmh2sv3iugednq97m088p3geuoel,iCJoNNYm,2020-0188,2020-11-19,12:46:50,13:16:31,NA,incomplete,9,color,1,left,Green_Star_Stripes_2.jpg,Green_Plus_Dots_3.jpg,Blue_Circle_Chess_2.jpg,left,1173.270000028424,true,high,false
iCJoNNYm,3ncn4n1h2juy25d07zfv3rnlauxnbw,35gmh2sv3iugednq97m088p3geuoel,iCJoNNYm,2020-0188,2020-11-19,12:46:50,13:16:31,NA,incomplete,10,number,1,left,Red_Triangle_Grid_3.jpg,Blue_Star_Chess_3.jpg,Red_Circle_Stripes_2.jpg,right,659.1600000392646,false,high,false
iCJoNNYm,3ncn4n1h2juy25d07zfv3rnlauxnbw,35gmh2sv3iugednq97m088p3geuoel,iCJoNNYm,2020-0188,2020-11-19,12:46:50,13:16:31,NA,incomplete,11,number,1,left,Blue_Plus_Grid_3.jpg,Green_Circle_Stripes_3.jpg,Blue_Triangle_Dots_4.jpg,right,892.504999996163,false,high,false
iCJoNNYm,3ncn4n1h2juy25d07zfv3rnlauxnbw,35gmh2sv3iugednq97m088p3geuoel,iCJoNNYm,2020-0188,2020-11-19,12:46:50,13:16:31,NA,incomplete,12,number,1,left,Red_Star_Dots_1.jpg,Green_Triangle_Chess_1.jpg,Red_Circle_Stripes_2.jpg,left,1013.6000000638887,true,high,false
iCJoNNYm,3ncn4n1h2juy25d07zfv3rnlauxnbw,35gmh2sv3iugednq97m088p3geuoel,iCJoNNYm,2020-0188,2020-11-19,12:46:50,13:16:31,NA,incomplete,13,number,1,right,Blue_Circle_Chess_4.jpg,Blue_Star_Grid_2.jpg,Purple_Triangle_Dots_4.jpg,left,1075.645000091754,false,high,false
iCJoNNYm,3ncn4n1h2juy25d07zfv3rnlauxnbw,35gmh2sv3iugednq97m088p3geuoel,iCJoNNYm,2020-0188,2020-11-19,12:46:50,13:16:31,NA,incomplete,14,number,1,left,Purple_Triangle_Dots_2.jpg,Green_Star_Stripes_2.jpg,Purple_Circle_Chess_3.jpg,left,1258.6349999764934,true,high,false
iCJoNNYm,3ncn4n1h2juy25d07zfv3rnlauxnbw,35gmh2sv3iugednq97m088p3geuoel,iCJoNNYm,2020-0188,2020-11-19,12:46:50,13:16:31,NA,incomplete,15,number,1,left,Purple_Star_Stripes_1.jpg,Blue_Circle_Dots_1.jpg,Purple_Plus_Chess_3.jpg,right,836.79500001017,false,high,false
iCJoNNYm,3ncn4n1h2juy25d07zfv3rnlauxnbw,35gmh2sv3iugednq97m088p3geuoel,iCJoNNYm,2020-0188,2020-11-19,12:46:50,13:16:31,NA,incomplete,16,number,1,right,Red_Triangle_Stripes_2.jpg,Red_Plus_Dots_3.jpg,Blue_Circle_Chess_2.jpg,left,1175.2450000494719,false,high,false
iCJoNNYm,3ncn4n1h2juy25d07zfv3rnlauxnbw,35gmh2sv3iugednq97m088p3geuoel,iCJoNNYm,2020-0188,2020-11-19,12:46:50,13:16:31,NA,incomplete,17,number,1,right,Purple_Circle_Chess_2.jpg,Purple_Star_Dots_1.jpg,Green_Triangle_Grid_2.jpg,left,918.8200000207871,false,high,false
iCJoNNYm,3ncn4n1h2juy25d07zfv3rnlauxnbw,35gmh2sv3iugednq97m088p3geuoel,iCJoNNYm,2020-0188,2020-11-19,12:46:50,13:16:31,NA,incomplete,18,number,0,left,Red_Triangle_Stripes_2.jpg,Blue_Star_Chess_2.jpg,Red_Plus_Dots_3.jpg,right,707.7750000171363,false,high,false
iCJoNNYm,3ncn4n1h2juy25d07zfv3rnlauxnbw,35gmh2sv3iugednq97m088p3geuoel,iCJoNNYm,2020-0188,2020-11-19,12:46:50,13:16:31,NA,incomplete,19,number,0,left,Red_Star_Dots_2.jpg,Purple_Circle_Grid_2.jpg,Red_Triangle_Chess_4.jpg,right,796.0949999978766,false,high,false
iCJoNNYm,3ncn4n1h2juy25d07zfv3rnlauxnbw,35gmh2sv3iugednq97m088p3geuoel,iCJoNNYm,2020-0188,2020-11-19,12:46:50,13:16:31,NA,incomplete,20,color,1,right,Red_Plus_Grid_1.jpg,Green_Triangle_Dots_1.jpg,Red_Star_Chess_4.jpg,right,568.2750000851229,true,high,false
iCJoNNYm,3ncn4n1h2juy25d07zfv3rnlauxnbw,35gmh2sv3iugednq97m088p3geuoel,iCJoNNYm,2020-0188,2020-11-19,12:46:50,13:16:31,NA,incomplete,21,color,1,left,Purple_Triangle_Dots_1.jpg,Purple_Star_Grid_4.jpg,Red_Circle_Chess_1.jpg,left,796.3400000007823,true,high,false
iCJoNNYm,3ncn4n1h2juy25d07zfv3rnlauxnbw,35gmh2sv3iugednq97m088p3geuoel,iCJoNNYm,2020-0188,2020-11-19,12:46:50,13:16:31,NA,incomplete,22,color,1,left,Green_Star_Dots_4.jpg,Green_Circle_Stripes_3.jpg,Purple_Triangle_Chess_4.jpg,left,981.3149999827147,true,high,false
iCJoNNYm,3ncn4n1h2juy25d07zfv3rnlauxnbw,35gmh2sv3iugednq97m088p3geuoel,iCJoNNYm,2020-0188,2020-11-19,12:46:50,13:16:31,NA,incomplete,23,color,1,left,Green_Plus_Stripes_1.jpg,Green_Triangle_Chess_2.jpg,Red_Star_Dots_1.jpg,left,600.0449999701232,true,high,false
iCJoNNYm,3ncn4n1h2juy25d07zfv3rnlauxnbw,35gmh2sv3iugednq97m088p3geuoel,iCJoNNYm,2020-0188,2020-11-19,12:46:50,13:16:31,NA,incomplete,24,color,1,left,Purple_Triangle_Stripes_1.jpg,Purple_Circle_Dots_2.jpg,Red_Star_Chess_1.jpg,left,764.1549999825656,true,high,false
iCJoNNYm,3ncn4n1h2juy25d07zfv3rnlauxnbw,35gmh2sv3iugednq97m088p3geuoel,iCJoNNYm,2020-0188,2020-11-19,12:46:50,13:16:31,NA,incomplete,25,color,1,right,Blue_Circle_Dots_1.jpg,Green_Plus_Chess_1.jpg,Blue_Star_Stripes_3.jpg,right,602.0649999845773,true,high,false
iCJoNNYm,3ncn4n1h2juy25d07zfv3rnlauxnbw,35gmh2sv3iugednq97m088p3geuoel,iCJoNNYm,2020-0188,2020-11-19,12:46:50,13:16:31,NA,incomplete,26,color,1,right,Blue_Triangle_Stripes_4.jpg,Green_Circle_Grid_4.jpg,Blue_Star_Chess_3.jpg,right,598.3449999475852,true,high,false
iCJoNNYm,3ncn4n1h2juy25d07zfv3rnlauxnbw,35gmh2sv3iugednq97m088p3geuoel,iCJoNNYm,2020-0188,2020-11-19,12:46:50,13:16:31,NA,incomplete,27,color,1,left,Green_Plus_Stripes_2.jpg,Green_Circle_Dots_4.jpg,Purple_Star_Grid_2.jpg,left,724.8549999203533,true,high,false
iCJoNNYm,3ncn4n1h2juy25d07zfv3rnlauxnbw,35gmh2sv3iugednq97m088p3geuoel,iCJoNNYm,2020-0188,2020-11-19,12:46:50,13:16:31,NA,incomplete,28,color,1,right,Blue_Circle_Stripes_1.jpg,Red_Plus_Dots_1.jpg,Blue_Triangle_Chess_4.jpg,right,665.4100000159815,true,high,false
iCJoNNYm,3ncn4n1h2juy25d07zfv3rnlauxnbw,35gmh2sv3iugednq97m088p3geuoel,iCJoNNYm,2020-0188,2020-11-19,12:46:50,13:16:31,NA,incomplete,29,color,1,left,Green_Plus_Chess_3.jpg,Green_Star_Dots_4.jpg,Blue_Circle_Stripes_3.jpg,left,699.1350000025705,true,high,false
iCJoNNYm,3ncn4n1h2juy25d07zfv3rnlauxnbw,35gmh2sv3iugednq97m088p3geuoel,iCJoNNYm,2020-0188,2020-11-19,12:46:50,13:16:31,NA,incomplete,30,number,1,right,Green_Triangle_Chess_2.jpg,Green_Star_Dots_1.jpg,Purple_Circle_Stripes_2.jpg,left,572.5600000005215,false,high,false
iCJoNNYm,3ncn4n1h2juy25d07zfv3rnlauxnbw,35gmh2sv3iugednq97m088p3geuoel,iCJoNNYm,2020-0188,2020-11-19,12:46:50,13:16:31,NA,incomplete,31,number,1,left,Blue_Triangle_Stripes_4.jpg,Red_Star_Dots_4.jpg,Blue_Plus_Chess_3.jpg,right,634.1300000203773,false,high,false
iCJoNNYm,3ncn4n1h2juy25d07zfv3rnlauxnbw,35gmh2sv3iugednq97m088p3geuoel,iCJoNNYm,2020-0188,2020-11-19,12:46:50,13:16:31,NA,incomplete,32,number,1,right,Purple_Plus_Dots_3.jpg,Purple_Circle_Stripes_1.jpg,Red_Star_Chess_3.jpg,left,799.265000037849,false,high,false
iCJoNNYm,3ncn4n1h2juy25d07zfv3rnlauxnbw,35gmh2sv3iugednq97m088p3geuoel,iCJoNNYm,2020-0188,2020-11-19,12:46:50,13:16:31,NA,incomplete,33,number,1,right,Red_Plus_Grid_4.jpg,Red_Star_Chess_1.jpg,Blue_Circle_Stripes_4.jpg,right,1234.2199999839067,true,high,false
iCJoNNYm,3ncn4n1h2juy25d07zfv3rnlauxnbw,35gmh2sv3iugednq97m088p3geuoel,iCJoNNYm,2020-0188,2020-11-19,12:46:50,13:16:31,NA,incomplete,34,number,1,right,Blue_Plus_Dots_1.jpg,Blue_Circle_Chess_3.jpg,Red_Triangle_Grid_1.jpg,right,1163.3750000037253,true,high,false
iCJoNNYm,3ncn4n1h2juy25d07zfv3rnlauxnbw,35gmh2sv3iugednq97m088p3geuoel,iCJoNNYm,2020-0188,2020-11-19,12:46:50,13:16:31,NA,incomplete,35,number,1,right,Red_Star_Dots_2.jpg,Red_Plus_Stripes_1.jpg,Purple_Triangle_Grid_2.jpg,left,698.7150000641122,false,high,false
iCJoNNYm,3ncn4n1h2juy25d07zfv3rnlauxnbw,35gmh2sv3iugednq97m088p3geuoel,iCJoNNYm,2020-0188,2020-11-19,12:46:50,13:16:31,NA,incomplete,36,number,1,right,Red_Circle_Stripes_1.jpg,Red_Star_Chess_2.jpg,Blue_Plus_Grid_1.jpg,right,771.0250000236556,true,high,false
iCJoNNYm,3ncn4n1h2juy25d07zfv3rnlauxnbw,35gmh2sv3iugednq97m088p3geuoel,iCJoNNYm,2020-0188,2020-11-19,12:46:50,13:16:31,NA,incomplete,37,number,1,left,Purple_Triangle_Chess_1.jpg,Red_Star_Grid_1.jpg,Purple_Circle_Stripes_3.jpg,left,683.2100000465289,true,high,false
iCJoNNYm,3ncn4n1h2juy25d07zfv3rnlauxnbw,35gmh2sv3iugednq97m088p3geuoel,iCJoNNYm,2020-0188,2020-11-19,12:46:50,13:16:31,NA,incomplete,38,number,1,left,Green_Triangle_Chess_1.jpg,Red_Star_Stripes_1.jpg,Green_Plus_Grid_2.jpg,left,840.8600001130253,true,high,false
iCJoNNYm,3ncn4n1h2juy25d07zfv3rnlauxnbw,35gmh2sv3iugednq97m088p3geuoel,iCJoNNYm,2020-0188,2020-11-19,12:46:50,13:16:31,NA,incomplete,39,number,1,left,Green_Plus_Chess_2.jpg,Red_Circle_Grid_2.jpg,Green_Triangle_Stripes_4.jpg,left,1204.1399999288842,true,high,false
iCJoNNYm,3ncn4n1h2juy25d07zfv3rnlauxnbw,35gmh2sv3iugednq97m088p3geuoel,iCJoNNYm,2020-0188,2020-11-19,12:46:50,13:16:31,NA,incomplete,40,color,0,right,Purple_Plus_Dots_4.jpg,Red_Triangle_Grid_4.jpg,Purple_Star_Stripes_3.jpg,left,816.3949999725446,false,high,false
iCJoNNYm,3ncn4n1h2juy25d07zfv3rnlauxnbw,35gmh2sv3iugednq97m088p3geuoel,iCJoNNYm,2020-0188,2020-11-19,12:46:50,13:16:31,NA,incomplete,41,color,1,left,Purple_Star_Chess_2.jpg,Purple_Circle_Grid_1.jpg,Blue_Triangle_Dots_2.jpg,left,628.2249999931082,true,high,false
iCJoNNYm,3ncn4n1h2juy25d07zfv3rnlauxnbw,35gmh2sv3iugednq97m088p3geuoel,iCJoNNYm,2020-0188,2020-11-19,12:46:50,13:16:31,NA,incomplete,42,color,0,right,Blue_Circle_Grid_1.jpg,Green_Triangle_Chess_1.jpg,Blue_Star_Stripes_2.jpg,right,1176.7349999863654,true,high,false
iCJoNNYm,3ncn4n1h2juy25d07zfv3rnlauxnbw,35gmh2sv3iugednq97m088p3geuoel,iCJoNNYm,2020-0188,2020-11-19,12:46:50,13:16:31,NA,incomplete,43,color,1,right,Purple_Triangle_Chess_2.jpg,Green_Circle_Grid_2.jpg,Purple_Star_Stripes_3.jpg,right,828.3550000051036,true,high,false
iCJoNNYm,3ncn4n1h2juy25d07zfv3rnlauxnbw,35gmh2sv3iugednq97m088p3geuoel,iCJoNNYm,2020-0188,2020-11-19,12:46:50,13:16:31,NA,incomplete,44,color,1,right,Green_Circle_Stripes_2.jpg,Red_Plus_Dots_2.jpg,Green_Star_Chess_1.jpg,right,903.9649999467656,true,high,false
iCJoNNYm,3ncn4n1h2juy25d07zfv3rnlauxnbw,35gmh2sv3iugednq97m088p3geuoel,iCJoNNYm,2020-0188,2020-11-19,12:46:50,13:16:31,NA,incomplete,45,color,1,right,Blue_Star_Chess_3.jpg,Red_Plus_Stripes_3.jpg,Blue_Triangle_Grid_4.jpg,right,863.7950000120327,true,high,false
iCJoNNYm,3ncn4n1h2juy25d07zfv3rnlauxnbw,35gmh2sv3iugednq97m088p3geuoel,iCJoNNYm,2020-0188,2020-11-19,12:46:50,13:16:31,NA,incomplete,46,color,1,right,Green_Circle_Dots_4.jpg,Red_Triangle_Stripes_4.jpg,Green_Plus_Chess_3.jpg,right,850.5750000476837,true,high,false
iCJoNNYm,3ncn4n1h2juy25d07zfv3rnlauxnbw,35gmh2sv3iugednq97m088p3geuoel,iCJoNNYm,2020-0188,2020-11-19,12:46:50,13:16:31,NA,incomplete,47,color,1,left,Red_Circle_Stripes_3.jpg,Red_Star_Dots_1.jpg,Green_Triangle_Chess_3.jpg,left,830.7849999982864,true,high,false
iCJoNNYm,3ncn4n1h2juy25d07zfv3rnlauxnbw,35gmh2sv3iugednq97m088p3geuoel,iCJoNNYm,2020-0188,2020-11-19,12:46:50,13:16:31,NA,incomplete,48,color,1,right,Blue_Plus_Dots_4.jpg,Red_Triangle_Stripes_4.jpg,Blue_Circle_Chess_1.jpg,left,920.5000000074506,false,high,false
iCJoNNYm,3ncn4n1h2juy25d07zfv3rnlauxnbw,35gmh2sv3iugednq97m088p3geuoel,iCJoNNYm,2020-0188,2020-11-19,12:46:50,13:16:31,NA,incomplete,49,color,1,right,Blue_Star_Dots_1.jpg,Red_Plus_Grid_1.jpg,Blue_Circle_Chess_3.jpg,right,598.7700000405312,true,high,false
iCJoNNYm,3ncn4n1h2juy25d07zfv3rnlauxnbw,35gmh2sv3iugednq97m088p3geuoel,iCJoNNYm,2020-0188,2020-11-19,12:46:50,13:16:31,NA,incomplete,50,number,1,right,Purple_Circle_Grid_1.jpg,Purple_Triangle_Chess_2.jpg,Blue_Plus_Dots_1.jpg,left,684.5449999673292,false,high,false
iCJoNNYm,3ncn4n1h2juy25d07zfv3rnlauxnbw,35gmh2sv3iugednq97m088p3geuoel,iCJoNNYm,2020-0188,2020-11-19,12:46:50,13:16:31,NA,incomplete,51,number,1,right,Red_Triangle_Grid_2.jpg,Red_Circle_Dots_4.jpg,Purple_Plus_Stripes_2.jpg,left,860.1550000021234,false,high,false
iCJoNNYm,3ncn4n1h2juy25d07zfv3rnlauxnbw,35gmh2sv3iugednq97m088p3geuoel,iCJoNNYm,2020-0188,2020-11-19,12:46:50,13:16:31,NA,incomplete,52,number,1,left,Green_Circle_Grid_2.jpg,Blue_Plus_Dots_2.jpg,Green_Triangle_Chess_3.jpg,left,1671.1900000227615,true,high,false
iCJoNNYm,3ncn4n1h2juy25d07zfv3rnlauxnbw,35gmh2sv3iugednq97m088p3geuoel,iCJoNNYm,2020-0188,2020-11-19,12:46:50,13:16:31,NA,incomplete,53,number,1,left,Blue_Star_Chess_1.jpg,Red_Circle_Grid_1.jpg,Blue_Plus_Stripes_3.jpg,left,991.4499999722466,true,high,false
iCJoNNYm,3ncn4n1h2juy25d07zfv3rnlauxnbw,35gmh2sv3iugednq97m088p3geuoel,iCJoNNYm,2020-0188,2020-11-19,12:46:50,13:16:31,NA,incomplete,54,number,0,left,Purple_Star_Chess_2.jpg,Green_Triangle_Dots_2.jpg,Purple_Circle_Grid_1.jpg,right,1331.8399999989197,false,high,false
iCJoNNYm,3ncn4n1h2juy25d07zfv3rnlauxnbw,35gmh2sv3iugednq97m088p3geuoel,iCJoNNYm,2020-0188,2020-11-19,12:46:50,13:16:31,NA,incomplete,55,number,0,right,Blue_Star_Grid_3.jpg,Blue_Triangle_Stripes_1.jpg,Red_Circle_Dots_3.jpg,left,716.4950000587851,false,high,false
iCJoNNYm,3ncn4n1h2juy25d07zfv3rnlauxnbw,35gmh2sv3iugednq97m088p3geuoel,iCJoNNYm,2020-0188,2020-11-19,12:46:50,13:16:31,NA,incomplete,56,number,1,right,Purple_Plus_Grid_1.jpg,Purple_Star_Dots_4.jpg,Blue_Circle_Chess_1.jpg,left,804.9149999860674,false,high,false
iCJoNNYm,3ncn4n1h2juy25d07zfv3rnlauxnbw,35gmh2sv3iugednq97m088p3geuoel,iCJoNNYm,2020-0188,2020-11-19,12:46:50,13:16:31,NA,incomplete,57,number,1,right,Blue_Triangle_Chess_3.jpg,Blue_Star_Stripes_4.jpg,Purple_Circle_Grid_3.jpg,left,833.7349999928847,false,high,false
iCJoNNYm,3ncn4n1h2juy25d07zfv3rnlauxnbw,35gmh2sv3iugednq97m088p3geuoel,iCJoNNYm,2020-0188,2020-11-19,12:46:50,13:16:31,NA,incomplete,58,number,1,right,Red_Star_Chess_1.jpg,Red_Plus_Grid_4.jpg,Purple_Circle_Dots_1.jpg,right,1394.1600000252947,true,high,false
iCJoNNYm,3ncn4n1h2juy25d07zfv3rnlauxnbw,35gmh2sv3iugednq97m088p3geuoel,iCJoNNYm,2020-0188,2020-11-19,12:46:50,13:16:31,NA,incomplete,59,number,1,left,Blue_Plus_Grid_3.jpg,Green_Triangle_Stripes_3.jpg,Blue_Circle_Dots_4.jpg,left,926.1849999893457,true,high,false
iCJoNNYm,3ncn4n1h2juy25d07zfv3rnlauxnbw,35gmh2sv3iugednq97m088p3geuoel,iCJoNNYm,2020-0188,2020-11-19,12:46:50,13:16:31,NA,incomplete,60,color,1,left,Purple_Circle_Stripes_2.jpg,Purple_Star_Dots_4.jpg,Blue_Triangle_Grid_2.jpg,right,806.9899999536574,false,high,false
iCJoNNYm,3ncn4n1h2juy25d07zfv3rnlauxnbw,35gmh2sv3iugednq97m088p3geuoel,iCJoNNYm,2020-0188,2020-11-19,12:46:50,13:16:31,NA,incomplete,61,color,1,right,Red_Star_Chess_3.jpg,Purple_Circle_Dots_3.jpg,Red_Triangle_Stripes_4.jpg,right,1181.114999926649,true,high,false
iCJoNNYm,3ncn4n1h2juy25d07zfv3rnlauxnbw,35gmh2sv3iugednq97m088p3geuoel,iCJoNNYm,2020-0188,2020-11-19,12:46:50,13:16:31,NA,incomplete,62,color,1,left,Purple_Star_Chess_4.jpg,Purple_Triangle_Grid_3.jpg,Blue_Circle_Dots_4.jpg,left,687.8849999047816,true,high,false
iCJoNNYm,3ncn4n1h2juy25d07zfv3rnlauxnbw,35gmh2sv3iugednq97m088p3geuoel,iCJoNNYm,2020-0188,2020-11-19,12:46:50,13:16:31,NA,incomplete,63,color,0,left,Red_Circle_Dots_4.jpg,Red_Plus_Stripes_3.jpg,Blue_Triangle_Chess_4.jpg,left,1088.5250000283122,true,high,false
iCJoNNYm,3ncn4n1h2juy25d07zfv3rnlauxnbw,35gmh2sv3iugednq97m088p3geuoel,iCJoNNYm,2020-0188,2020-11-19,12:46:50,13:16:31,NA,incomplete,64,color,0,right,Red_Star_Stripes_1.jpg,Blue_Triangle_Dots_1.jpg,Red_Plus_Grid_4.jpg,left,864.7500000661239,false,high,false
iCJoNNYm,3ncn4n1h2juy25d07zfv3rnlauxnbw,35gmh2sv3iugednq97m088p3geuoel,iCJoNNYm,2020-0188,2020-11-19,12:46:50,13:16:31,NA,incomplete,65,color,1,left,Red_Star_Stripes_4.jpg,Red_Triangle_Dots_3.jpg,Purple_Circle_Grid_4.jpg,right,1330.6350000202656,false,high,false
iCJoNNYm,3ncn4n1h2juy25d07zfv3rnlauxnbw,35gmh2sv3iugednq97m088p3geuoel,iCJoNNYm,2020-0188,2020-11-19,12:46:50,13:16:31,NA,incomplete,66,color,1,right,Purple_Triangle_Dots_2.jpg,Blue_Star_Stripes_2.jpg,Purple_Circle_Grid_1.jpg,right,844.4349999772385,true,high,false
iCJoNNYm,3ncn4n1h2juy25d07zfv3rnlauxnbw,35gmh2sv3iugednq97m088p3geuoel,iCJoNNYm,2020-0188,2020-11-19,12:46:50,13:16:31,NA,incomplete,67,color,1,left,Blue_Plus_Stripes_1.jpg,Blue_Triangle_Grid_4.jpg,Red_Star_Dots_1.jpg,left,549.0899999858811,true,high,false
iCJoNNYm,3ncn4n1h2juy25d07zfv3rnlauxnbw,35gmh2sv3iugednq97m088p3geuoel,iCJoNNYm,2020-0188,2020-11-19,12:46:50,13:16:31,NA,incomplete,68,color,0,left,Green_Triangle_Stripes_3.jpg,Green_Plus_Chess_2.jpg,Red_Star_Grid_3.jpg,left,763.7950000353158,true,high,false
iCJoNNYm,3ncn4n1h2juy25d07zfv3rnlauxnbw,35gmh2sv3iugednq97m088p3geuoel,iCJoNNYm,2020-0188,2020-11-19,12:46:50,13:16:31,NA,incomplete,69,color,1,right,Purple_Plus_Chess_4.jpg,Red_Triangle_Grid_4.jpg,Purple_Circle_Stripes_3.jpg,right,880.7200000155717,true,high,false
iCJoNNYm,3ncn4n1h2juy25d07zfv3rnlauxnbw,35gmh2sv3iugednq97m088p3geuoel,iCJoNNYm,2020-0188,2020-11-19,12:46:50,13:16:31,NA,incomplete,70,number,1,left,Red_Star_Dots_4.jpg,Purple_Plus_Grid_4.jpg,Red_Triangle_Stripes_1.jpg,right,883.1749999662861,false,high,false
iCJoNNYm,3ncn4n1h2juy25d07zfv3rnlauxnbw,35gmh2sv3iugednq97m088p3geuoel,iCJoNNYm,2020-0188,2020-11-19,12:46:50,13:16:31,NA,incomplete,71,number,1,left,Green_Star_Dots_3.jpg,Blue_Triangle_Grid_3.jpg,Green_Circle_Stripes_1.jpg,left,1263.0049999570474,true,high,false
iCJoNNYm,3ncn4n1h2juy25d07zfv3rnlauxnbw,35gmh2sv3iugednq97m088p3geuoel,iCJoNNYm,2020-0188,2020-11-19,12:46:50,13:16:31,NA,incomplete,72,number,0,left,Blue_Star_Stripes_4.jpg,Green_Triangle_Grid_4.jpg,Blue_Circle_Chess_3.jpg,left,1318.3300000382587,true,high,false
iCJoNNYm,3ncn4n1h2juy25d07zfv3rnlauxnbw,35gmh2sv3iugednq97m088p3geuoel,iCJoNNYm,2020-0188,2020-11-19,12:46:50,13:16:31,NA,incomplete,73,number,1,right,Blue_Circle_Chess_3.jpg,Blue_Plus_Stripes_4.jpg,Red_Star_Dots_3.jpg,right,1029.9100000411272,true,high,false
iCJoNNYm,3ncn4n1h2juy25d07zfv3rnlauxnbw,35gmh2sv3iugednq97m088p3geuoel,iCJoNNYm,2020-0188,2020-11-19,12:46:50,13:16:31,NA,incomplete,74,number,1,right,Purple_Circle_Stripes_2.jpg,Purple_Star_Chess_4.jpg,Blue_Triangle_Grid_2.jpg,right,1185.6799999950454,true,high,false
iCJoNNYm,3ncn4n1h2juy25d07zfv3rnlauxnbw,35gmh2sv3iugednq97m088p3geuoel,iCJoNNYm,2020-0188,2020-11-19,12:46:50,13:16:31,NA,incomplete,75,number,1,left,Purple_Plus_Chess_3.jpg,Red_Star_Stripes_3.jpg,Purple_Circle_Grid_1.jpg,left,1248.450000071898,true,high,false
iCJoNNYm,3ncn4n1h2juy25d07zfv3rnlauxnbw,35gmh2sv3iugednq97m088p3geuoel,iCJoNNYm,2020-0188,2020-11-19,12:46:50,13:16:31,NA,incomplete,76,number,0,right,Red_Star_Dots_4.jpg,Red_Plus_Grid_3.jpg,Blue_Triangle_Chess_4.jpg,right,1023.7799999304116,true,high,false
iCJoNNYm,3ncn4n1h2juy25d07zfv3rnlauxnbw,35gmh2sv3iugednq97m088p3geuoel,iCJoNNYm,2020-0188,2020-11-19,12:46:50,13:16:31,NA,incomplete,77,number,1,left,Blue_Triangle_Chess_2.jpg,Green_Circle_Stripes_2.jpg,Blue_Plus_Grid_3.jpg,left,1451.5000000828877,true,high,false
iCJoNNYm,3ncn4n1h2juy25d07zfv3rnlauxnbw,35gmh2sv3iugednq97m088p3geuoel,iCJoNNYm,2020-0188,2020-11-19,12:46:50,13:16:31,NA,incomplete,78,number,0,right,Purple_Plus_Grid_3.jpg,Purple_Circle_Chess_2.jpg,Green_Triangle_Dots_3.jpg,right,1211.8650000775233,true,high,false
iCJoNNYm,3ncn4n1h2juy25d07zfv3rnlauxnbw,35gmh2sv3iugednq97m088p3geuoel,iCJoNNYm,2020-0188,2020-11-19,12:46:50,13:16:31,NA,incomplete,79,number,1,right,Green_Triangle_Grid_3.jpg,Green_Plus_Stripes_4.jpg,Blue_Star_Chess_3.jpg,left,1172.054999973625,false,high,false
iCJoNNYm,3ncn4n1h2juy25d07zfv3rnlauxnbw,35gmh2sv3iugednq97m088p3geuoel,iCJoNNYm,2020-0188,2020-11-19,12:46:50,13:16:31,NA,incomplete,80,color,1,right,Green_Triangle_Stripes_2.jpg,Purple_Plus_Dots_2.jpg,Green_Circle_Grid_4.jpg,left,1622.6150000002235,false,high,false
iCJoNNYm,3ncn4n1h2juy25d07zfv3rnlauxnbw,35gmh2sv3iugednq97m088p3geuoel,iCJoNNYm,2020-0188,2020-11-19,12:46:50,13:16:31,NA,incomplete,81,color,1,right,Green_Triangle_Grid_3.jpg,Blue_Star_Dots_3.jpg,Green_Plus_Chess_1.jpg,right,641.620000009425,true,high,false
iCJoNNYm,3ncn4n1h2juy25d07zfv3rnlauxnbw,35gmh2sv3iugednq97m088p3geuoel,iCJoNNYm,2020-0188,2020-11-19,12:46:50,13:16:31,NA,incomplete,82,color,1,right,Red_Plus_Dots_2.jpg,Purple_Star_Chess_2.jpg,Red_Triangle_Stripes_3.jpg,left,884.4150000950322,false,high,false
iCJoNNYm,3ncn4n1h2juy25d07zfv3rnlauxnbw,35gmh2sv3iugednq97m088p3geuoel,iCJoNNYm,2020-0188,2020-11-19,12:46:50,13:16:31,NA,incomplete,83,color,1,left,Purple_Plus_Grid_1.jpg,Purple_Triangle_Dots_4.jpg,Blue_Star_Stripes_1.jpg,right,981.6049999790266,false,high,false
iCJoNNYm,3ncn4n1h2juy25d07zfv3rnlauxnbw,35gmh2sv3iugednq97m088p3geuoel,iCJoNNYm,2020-0188,2020-11-19,12:46:50,13:16:31,NA,incomplete,84,color,1,right,Red_Triangle_Dots_4.jpg,Blue_Star_Stripes_4.jpg,Red_Circle_Grid_3.jpg,right,778.0299999285489,true,high,false
iCJoNNYm,3ncn4n1h2juy25d07zfv3rnlauxnbw,35gmh2sv3iugednq97m088p3geuoel,iCJoNNYm,2020-0188,2020-11-19,12:46:50,13:16:31,NA,incomplete,85,color,0,right,Purple_Plus_Grid_2.jpg,Red_Star_Stripes_2.jpg,Purple_Circle_Chess_3.jpg,left,1759.6200000261888,false,high,false
iCJoNNYm,3ncn4n1h2juy25d07zfv3rnlauxnbw,35gmh2sv3iugednq97m088p3geuoel,iCJoNNYm,2020-0188,2020-11-19,12:46:50,13:16:31,NA,incomplete,86,color,0,left,Red_Triangle_Chess_3.jpg,Red_Circle_Stripes_2.jpg,Green_Plus_Grid_3.jpg,left,797.5099999457598,true,high,false
iCJoNNYm,3ncn4n1h2juy25d07zfv3rnlauxnbw,35gmh2sv3iugednq97m088p3geuoel,iCJoNNYm,2020-0188,2020-11-19,12:46:50,13:16:31,NA,incomplete,87,color,1,left,Red_Triangle_Grid_4.jpg,Red_Plus_Chess_2.jpg,Blue_Circle_Dots_4.jpg,right,836.1400000285357,false,high,false
iCJoNNYm,3ncn4n1h2juy25d07zfv3rnlauxnbw,35gmh2sv3iugednq97m088p3geuoel,iCJoNNYm,2020-0188,2020-11-19,12:46:50,13:16:31,NA,incomplete,88,color,1,right,Purple_Star_Dots_3.jpg,Green_Triangle_Stripes_3.jpg,Purple_Circle_Grid_1.jpg,left,901.1200000531971,false,high,false
iCJoNNYm,3ncn4n1h2juy25d07zfv3rnlauxnbw,35gmh2sv3iugednq97m088p3geuoel,iCJoNNYm,2020-0188,2020-11-19,12:46:50,13:16:31,NA,incomplete,89,color,1,left,Red_Circle_Grid_3.jpg,Red_Star_Stripes_4.jpg,Green_Plus_Dots_3.jpg,left,652.8049999615178,true,high,false
iCJoNNYm,3ncn4n1h2juy25d07zfv3rnlauxnbw,35gmh2sv3iugednq97m088p3geuoel,iCJoNNYm,2020-0188,2020-11-19,12:46:50,13:16:31,NA,incomplete,90,number,1,right,Green_Plus_Dots_2.jpg,Green_Triangle_Grid_1.jpg,Purple_Star_Stripes_2.jpg,left,583.1600000383332,false,high,false
iCJoNNYm,3ncn4n1h2juy25d07zfv3rnlauxnbw,35gmh2sv3iugednq97m088p3geuoel,iCJoNNYm,2020-0188,2020-11-19,12:46:50,13:16:31,NA,incomplete,91,number,1,left,Red_Star_Grid_1.jpg,Blue_Circle_Dots_1.jpg,Red_Plus_Chess_2.jpg,right,1195.7200000761077,false,high,false
iCJoNNYm,3ncn4n1h2juy25d07zfv3rnlauxnbw,35gmh2sv3iugednq97m088p3geuoel,iCJoNNYm,2020-0188,2020-11-19,12:46:50,13:16:31,NA,incomplete,92,number,1,left,Purple_Star_Grid_4.jpg,Green_Triangle_Stripes_4.jpg,Purple_Circle_Dots_1.jpg,right,754.9199999775738,false,high,false
iCJoNNYm,3ncn4n1h2juy25d07zfv3rnlauxnbw,35gmh2sv3iugednq97m088p3geuoel,iCJoNNYm,2020-0188,2020-11-19,12:46:50,13:16:31,NA,incomplete,93,number,1,left,Red_Circle_Grid_1.jpg,Blue_Star_Chess_1.jpg,Red_Plus_Dots_3.jpg,left,1095.214999979362,true,high,false
iCJoNNYm,3ncn4n1h2juy25d07zfv3rnlauxnbw,35gmh2sv3iugednq97m088p3geuoel,iCJoNNYm,2020-0188,2020-11-19,12:46:50,13:16:31,NA,incomplete,94,number,0,right,Green_Star_Chess_4.jpg,Green_Plus_Grid_3.jpg,Blue_Triangle_Stripes_4.jpg,right,1255.349999992177,true,high,false
iCJoNNYm,3ncn4n1h2juy25d07zfv3rnlauxnbw,35gmh2sv3iugednq97m088p3geuoel,iCJoNNYm,2020-0188,2020-11-19,12:46:50,13:16:31,NA,incomplete,95,number,1,left,Red_Circle_Chess_2.jpg,Green_Triangle_Stripes_2.jpg,Red_Star_Dots_1.jpg,left,1113.0350000457838,true,high,false
iCJoNNYm,3ncn4n1h2juy25d07zfv3rnlauxnbw,35gmh2sv3iugednq97m088p3geuoel,iCJoNNYm,2020-0188,2020-11-19,12:46:50,13:16:31,NA,incomplete,96,number,1,left,Green_Circle_Stripes_4.jpg,Red_Triangle_Dots_4.jpg,Green_Star_Chess_3.jpg,right,985.1100000087172,false,high,false
iCJoNNYm,3ncn4n1h2juy25d07zfv3rnlauxnbw,35gmh2sv3iugednq97m088p3geuoel,iCJoNNYm,2020-0188,2020-11-19,12:46:50,13:16:31,NA,incomplete,97,number,1,right,Green_Star_Dots_4.jpg,Green_Plus_Chess_1.jpg,Purple_Circle_Grid_4.jpg,right,1517.809999990277,true,high,false
iCJoNNYm,3ncn4n1h2juy25d07zfv3rnlauxnbw,35gmh2sv3iugednq97m088p3geuoel,iCJoNNYm,2020-0188,2020-11-19,12:46:50,13:16:31,NA,incomplete,98,number,1,left,Red_Circle_Chess_3.jpg,Blue_Star_Grid_3.jpg,Red_Plus_Stripes_1.jpg,left,1134.0899999486282,true,high,false
iCJoNNYm,3ncn4n1h2juy25d07zfv3rnlauxnbw,35gmh2sv3iugednq97m088p3geuoel,iCJoNNYm,2020-0188,2020-11-19,12:46:50,13:16:31,NA,incomplete,99,number,1,right,Blue_Star_Stripes_1.jpg,Blue_Plus_Grid_4.jpg,Red_Triangle_Chess_1.jpg,left,939.6950000664219,false,high,false
iCJoNNYm,3ncn4n1h2juy25d07zfv3rnlauxnbw,35gmh2sv3iugednq97m088p3geuoel,iCJoNNYm,2020-0188,2020-11-19,12:46:50,13:16:31,NA,incomplete,100,color,0,right,Blue_Circle_Stripes_2.jpg,Red_Triangle_Chess_2.jpg,Blue_Star_Grid_4.jpg,left,1517.7900000708178,false,high,false
iCJoNNYm,3ncn4n1h2juy25d07zfv3rnlauxnbw,35gmh2sv3iugednq97m088p3geuoel,iCJoNNYm,2020-0188,2020-11-19,12:46:50,13:16:31,NA,incomplete,101,color,1,right,Blue_Star_Stripes_2.jpg,Green_Plus_Grid_2.jpg,Blue_Triangle_Dots_1.jpg,left,851.7500000307336,false,high,false
iCJoNNYm,3ncn4n1h2juy25d07zfv3rnlauxnbw,35gmh2sv3iugednq97m088p3geuoel,iCJoNNYm,2020-0188,2020-11-19,12:46:50,13:16:31,NA,incomplete,102,color,0,left,Red_Circle_Dots_2.jpg,Red_Plus_Grid_3.jpg,Purple_Triangle_Chess_2.jpg,left,1076.9699999364093,true,high,false
iCJoNNYm,3ncn4n1h2juy25d07zfv3rnlauxnbw,35gmh2sv3iugednq97m088p3geuoel,iCJoNNYm,2020-0188,2020-11-19,12:46:50,13:16:31,NA,incomplete,103,color,1,left,Red_Star_Chess_1.jpg,Red_Triangle_Stripes_2.jpg,Purple_Circle_Grid_1.jpg,right,1036.850000033155,false,high,false
iCJoNNYm,3ncn4n1h2juy25d07zfv3rnlauxnbw,35gmh2sv3iugednq97m088p3geuoel,iCJoNNYm,2020-0188,2020-11-19,12:46:50,13:16:31,NA,incomplete,104,color,1,left,Purple_Plus_Stripes_2.jpg,Purple_Star_Dots_1.jpg,Blue_Triangle_Chess_2.jpg,left,1145.909999962896,true,high,false
iCJoNNYm,3ncn4n1h2juy25d07zfv3rnlauxnbw,35gmh2sv3iugednq97m088p3geuoel,iCJoNNYm,2020-0188,2020-11-19,12:46:50,13:16:31,NA,incomplete,105,color,1,left,Purple_Circle_Grid_3.jpg,Purple_Star_Dots_2.jpg,Green_Triangle_Chess_3.jpg,left,759.3549999874085,true,high,false
iCJoNNYm,3ncn4n1h2juy25d07zfv3rnlauxnbw,35gmh2sv3iugednq97m088p3geuoel,iCJoNNYm,2020-0188,2020-11-19,12:46:50,13:16:31,NA,incomplete,106,color,0,right,Red_Circle_Chess_3.jpg,Green_Star_Stripes_3.jpg,Red_Triangle_Grid_1.jpg,right,764.5999999949709,true,high,false
iCJoNNYm,3ncn4n1h2juy25d07zfv3rnlauxnbw,35gmh2sv3iugednq97m088p3geuoel,iCJoNNYm,2020-0188,2020-11-19,12:46:50,13:16:31,NA,incomplete,107,color,1,left,Red_Triangle_Grid_4.jpg,Red_Circle_Chess_1.jpg,Green_Plus_Dots_4.jpg,left,610.3349999757484,true,high,false
iCJoNNYm,3ncn4n1h2juy25d07zfv3rnlauxnbw,35gmh2sv3iugednq97m088p3geuoel,iCJoNNYm,2020-0188,2020-11-19,12:46:50,13:16:31,NA,incomplete,108,color,0,left,Blue_Circle_Grid_1.jpg,Blue_Triangle_Dots_2.jpg,Green_Plus_Stripes_1.jpg,left,567.6749999402091,true,high,false
iCJoNNYm,3ncn4n1h2juy25d07zfv3rnlauxnbw,35gmh2sv3iugednq97m088p3geuoel,iCJoNNYm,2020-0188,2020-11-19,12:46:50,13:16:31,NA,incomplete,109,color,0,right,Green_Circle_Grid_1.jpg,Blue_Triangle_Chess_1.jpg,Green_Star_Dots_3.jpg,left,663.0400000140071,false,high,false
iCJoNNYm,3ncn4n1h2juy25d07zfv3rnlauxnbw,35gmh2sv3iugednq97m088p3geuoel,iCJoNNYm,2020-0188,2020-11-19,12:46:50,13:16:31,NA,incomplete,110,number,0,left,Red_Circle_Grid_3.jpg,Green_Plus_Dots_3.jpg,Red_Star_Stripes_2.jpg,right,566.7550000362098,false,high,false
iCJoNNYm,3ncn4n1h2juy25d07zfv3rnlauxnbw,35gmh2sv3iugednq97m088p3geuoel,iCJoNNYm,2020-0188,2020-11-19,12:46:50,13:16:31,NA,incomplete,111,number,1,left,Green_Star_Chess_2.jpg,Blue_Plus_Grid_2.jpg,Green_Triangle_Dots_1.jpg,right,748.8850000081584,false,high,false
iCJoNNYm,3ncn4n1h2juy25d07zfv3rnlauxnbw,35gmh2sv3iugednq97m088p3geuoel,iCJoNNYm,2020-0188,2020-11-19,12:46:50,13:16:31,NA,incomplete,112,number,0,right,Purple_Plus_Chess_1.jpg,Purple_Circle_Dots_2.jpg,Blue_Star_Stripes_1.jpg,left,702.7049999451265,false,high,false
iCJoNNYm,3ncn4n1h2juy25d07zfv3rnlauxnbw,35gmh2sv3iugednq97m088p3geuoel,iCJoNNYm,2020-0188,2020-11-19,12:46:50,13:16:31,NA,incomplete,113,number,1,left,Blue_Plus_Stripes_3.jpg,Red_Triangle_Dots_3.jpg,Blue_Circle_Grid_4.jpg,right,819.2099999869242,false,high,false
iCJoNNYm,3ncn4n1h2juy25d07zfv3rnlauxnbw,35gmh2sv3iugednq97m088p3geuoel,iCJoNNYm,2020-0188,2020-11-19,12:46:50,13:16:31,NA,incomplete,114,number,1,left,Red_Star_Dots_1.jpg,Purple_Circle_Stripes_1.jpg,Red_Triangle_Grid_2.jpg,right,1729.7349999425933,false,high,false
iCJoNNYm,3ncn4n1h2juy25d07zfv3rnlauxnbw,35gmh2sv3iugednq97m088p3geuoel,iCJoNNYm,2020-0188,2020-11-19,12:46:50,13:16:31,NA,incomplete,115,number,1,right,Red_Circle_Stripes_3.jpg,Red_Triangle_Chess_2.jpg,Blue_Star_Dots_3.jpg,right,1293.8950000097975,true,high,false
iCJoNNYm,3ncn4n1h2juy25d07zfv3rnlauxnbw,35gmh2sv3iugednq97m088p3geuoel,iCJoNNYm,2020-0188,2020-11-19,12:46:50,13:16:31,NA,incomplete,116,number,1,right,Red_Star_Chess_1.jpg,Red_Circle_Grid_2.jpg,Green_Triangle_Dots_1.jpg,right,1398.6799999838695,true,high,false
iCJoNNYm,3ncn4n1h2juy25d07zfv3rnlauxnbw,35gmh2sv3iugednq97m088p3geuoel,iCJoNNYm,2020-0188,2020-11-19,12:46:50,13:16:31,NA,incomplete,117,number,1,right,Purple_Star_Chess_1.jpg,Purple_Circle_Grid_2.jpg,Red_Plus_Stripes_1.jpg,left,1459.0549999848008,false,high,false
iCJoNNYm,3ncn4n1h2juy25d07zfv3rnlauxnbw,35gmh2sv3iugednq97m088p3geuoel,iCJoNNYm,2020-0188,2020-11-19,12:46:50,13:16:31,NA,incomplete,118,number,1,left,Red_Plus_Grid_3.jpg,Purple_Circle_Stripes_3.jpg,Red_Star_Dots_2.jpg,right,775.4349999595433,false,high,false
iCJoNNYm,3ncn4n1h2juy25d07zfv3rnlauxnbw,35gmh2sv3iugednq97m088p3geuoel,iCJoNNYm,2020-0188,2020-11-19,12:46:50,13:16:31,NA,incomplete,119,number,1,left,Green_Triangle_Stripes_4.jpg,Red_Star_Dots_4.jpg,Green_Circle_Chess_1.jpg,right,970.1099999947473,false,high,false
iCJoNNYm,3ncn4n1h2juy25d07zfv3rnlauxnbw,35gmh2sv3iugednq97m088p3geuoel,iCJoNNYm,2020-0188,2020-11-19,12:46:50,13:16:31,NA,incomplete,120,filling,1,left,Blue_Star_Stripes_4.jpg,Purple_Triangle_Stripes_1.jpg,Red_Star_Chess_3.jpg,left,1359.4349999912083,true,high,false
iCJoNNYm,3ncn4n1h2juy25d07zfv3rnlauxnbw,35gmh2sv3iugednq97m088p3geuoel,iCJoNNYm,2020-0188,2020-11-19,12:46:50,13:16:31,NA,incomplete,121,filling,1,right,Purple_Triangle_Chess_4.jpg,Red_Triangle_Stripes_1.jpg,Green_Plus_Chess_2.jpg,left,525.0999999698251,false,high,false
iCJoNNYm,3ncn4n1h2juy25d07zfv3rnlauxnbw,35gmh2sv3iugednq97m088p3geuoel,iCJoNNYm,2020-0188,2020-11-19,12:46:50,13:16:31,NA,incomplete,122,filling,1,right,Red_Circle_Stripes_2.jpg,Green_Circle_Chess_3.jpg,Blue_Triangle_Stripes_4.jpg,right,1342.4149999627843,true,high,false
iCJoNNYm,3ncn4n1h2juy25d07zfv3rnlauxnbw,35gmh2sv3iugednq97m088p3geuoel,iCJoNNYm,2020-0188,2020-11-19,12:46:50,13:16:31,NA,incomplete,123,filling,1,right,Blue_Star_Chess_2.jpg,Purple_Star_Stripes_4.jpg,Green_Plus_Chess_3.jpg,right,1451.0250000748783,true,high,false
iCJoNNYm,3ncn4n1h2juy25d07zfv3rnlauxnbw,35gmh2sv3iugednq97m088p3geuoel,iCJoNNYm,2020-0188,2020-11-19,12:46:50,13:16:31,NA,incomplete,124,filling,1,left,Purple_Star_Grid_3.jpg,Blue_Plus_Grid_1.jpg,Red_Star_Stripes_4.jpg,left,1380.4049999453127,true,high,false
iCJoNNYm,3ncn4n1h2juy25d07zfv3rnlauxnbw,35gmh2sv3iugednq97m088p3geuoel,iCJoNNYm,2020-0188,2020-11-19,12:46:50,13:16:31,NA,incomplete,125,filling,1,left,Red_Star_Chess_1.jpg,Purple_Circle_Chess_4.jpg,Blue_Star_Dots_3.jpg,left,1153.4500000998378,true,high,false
iCJoNNYm,3ncn4n1h2juy25d07zfv3rnlauxnbw,35gmh2sv3iugednq97m088p3geuoel,iCJoNNYm,2020-0188,2020-11-19,12:46:50,13:16:31,NA,incomplete,126,filling,1,left,Green_Plus_Chess_3.jpg,Blue_Star_Chess_2.jpg,Purple_Plus_Dots_1.jpg,left,1242.22999997437,true,high,false
iCJoNNYm,3ncn4n1h2juy25d07zfv3rnlauxnbw,35gmh2sv3iugednq97m088p3geuoel,iCJoNNYm,2020-0188,2020-11-19,12:46:50,13:16:31,NA,incomplete,127,filling,0,left,Red_Plus_Dots_4.jpg,Green_Triangle_Dots_3.jpg,Purple_Plus_Grid_2.jpg,left,1242.7000000607222,true,high,false
iCJoNNYm,3ncn4n1h2juy25d07zfv3rnlauxnbw,35gmh2sv3iugednq97m088p3geuoel,iCJoNNYm,2020-0188,2020-11-19,12:46:50,13:16:31,NA,incomplete,128,filling,1,left,Red_Star_Chess_2.jpg,Green_Circle_Chess_1.jpg,Purple_Star_Grid_4.jpg,right,965.3450000332668,false,high,false
iCJoNNYm,3ncn4n1h2juy25d07zfv3rnlauxnbw,35gmh2sv3iugednq97m088p3geuoel,iCJoNNYm,2020-0188,2020-11-19,12:46:50,13:16:31,NA,incomplete,129,filling,1,right,Blue_Circle_Chess_1.jpg,Green_Circle_Grid_4.jpg,Red_Plus_Chess_2.jpg,left,1179.5850000344217,false,high,false
iCJoNNYm,3ncn4n1h2juy25d07zfv3rnlauxnbw,35gmh2sv3iugednq97m088p3geuoel,iCJoNNYm,2020-0188,2020-11-19,12:46:50,13:16:31,NA,incomplete,130,filling,1,right,Red_Plus_Grid_3.jpg,Purple_Plus_Chess_1.jpg,Blue_Triangle_Grid_2.jpg,right,987.43499990087,true,high,false
iCJoNNYm,3ncn4n1h2juy25d07zfv3rnlauxnbw,35gmh2sv3iugednq97m088p3geuoel,iCJoNNYm,2020-0188,2020-11-19,12:46:50,13:16:31,NA,incomplete,131,filling,1,left,Green_Triangle_Chess_1.jpg,Blue_Circle_Chess_3.jpg,Purple_Triangle_Stripes_2.jpg,left,1148.7949999282137,true,high,false
iCJoNNYm,3ncn4n1h2juy25d07zfv3rnlauxnbw,35gmh2sv3iugednq97m088p3geuoel,iCJoNNYm,2020-0188,2020-11-19,12:46:50,13:16:31,NA,incomplete,132,filling,0,right,Purple_Plus_Grid_3.jpg,Red_Plus_Dots_1.jpg,Blue_Triangle_Grid_4.jpg,left,1290.294999955222,false,high,false
iCJoNNYm,3ncn4n1h2juy25d07zfv3rnlauxnbw,35gmh2sv3iugednq97m088p3geuoel,iCJoNNYm,2020-0188,2020-11-19,12:46:50,13:16:31,NA,incomplete,133,filling,1,right,Purple_Plus_Chess_1.jpg,Blue_Plus_Grid_2.jpg,Red_Triangle_Chess_3.jpg,right,1035.7399999629706,true,high,false
iCJoNNYm,3ncn4n1h2juy25d07zfv3rnlauxnbw,35gmh2sv3iugednq97m088p3geuoel,iCJoNNYm,2020-0188,2020-11-19,12:46:50,13:16:31,NA,incomplete,134,filling,1,left,Purple_Plus_Chess_1.jpg,Blue_Triangle_Chess_3.jpg,Green_Plus_Stripes_2.jpg,left,1034.1199999675155,true,high,false
iCJoNNYm,3ncn4n1h2juy25d07zfv3rnlauxnbw,35gmh2sv3iugednq97m088p3geuoel,iCJoNNYm,2020-0188,2020-11-19,12:46:50,13:16:31,NA,incomplete,135,filling,1,right,Green_Circle_Grid_3.jpg,Purple_Circle_Dots_2.jpg,Red_Triangle_Grid_4.jpg,right,961.780000012368,true,high,false
iCJoNNYm,3ncn4n1h2juy25d07zfv3rnlauxnbw,35gmh2sv3iugednq97m088p3geuoel,iCJoNNYm,2020-0188,2020-11-19,12:46:50,13:16:31,NA,incomplete,136,filling,1,left,Red_Circle_Grid_1.jpg,Green_Plus_Grid_3.jpg,Purple_Circle_Chess_4.jpg,right,831.6549999872223,false,high,false
iCJoNNYm,3ncn4n1h2juy25d07zfv3rnlauxnbw,35gmh2sv3iugednq97m088p3geuoel,iCJoNNYm,2020-0188,2020-11-19,12:46:50,13:16:31,NA,incomplete,137,filling,1,left,Blue_Star_Stripes_4.jpg,Purple_Circle_Stripes_2.jpg,Green_Star_Grid_1.jpg,left,979.5549999689683,true,high,false
iCJoNNYm,3ncn4n1h2juy25d07zfv3rnlauxnbw,35gmh2sv3iugednq97m088p3geuoel,iCJoNNYm,2020-0188,2020-11-19,12:46:50,13:16:31,NA,incomplete,138,filling,0,right,Blue_Star_Chess_2.jpg,Purple_Star_Grid_4.jpg,Red_Triangle_Chess_3.jpg,right,961.2300000153482,true,high,false
iCJoNNYm,3ncn4n1h2juy25d07zfv3rnlauxnbw,35gmh2sv3iugednq97m088p3geuoel,iCJoNNYm,2020-0188,2020-11-19,12:46:50,13:16:31,NA,incomplete,139,filling,1,left,Red_Circle_Stripes_2.jpg,Purple_Triangle_Stripes_1.jpg,Green_Circle_Grid_4.jpg,left,1209.1600000858307,true,high,false
iCJoNNYm,3ncn4n1h2juy25d07zfv3rnlauxnbw,35gmh2sv3iugednq97m088p3geuoel,iCJoNNYm,2020-0188,2020-11-19,12:46:50,13:16:31,NA,incomplete,140,shape,1,right,Red_Star_Dots_1.jpg,Blue_Triangle_Dots_3.jpg,Green_Star_Stripes_4.jpg,left,1378.400000045076,false,high,false
iCJoNNYm,3ncn4n1h2juy25d07zfv3rnlauxnbw,35gmh2sv3iugednq97m088p3geuoel,iCJoNNYm,2020-0188,2020-11-19,12:46:50,13:16:31,NA,incomplete,141,shape,0,left,Purple_Triangle_Stripes_3.jpg,Green_Triangle_Dots_4.jpg,Blue_Circle_Stripes_2.jpg,right,903.9050000719726,false,high,false
iCJoNNYm,3ncn4n1h2juy25d07zfv3rnlauxnbw,35gmh2sv3iugednq97m088p3geuoel,iCJoNNYm,2020-0188,2020-11-19,12:46:50,13:16:31,NA,incomplete,142,shape,1,left,Green_Plus_Chess_3.jpg,Red_Plus_Dots_1.jpg,Blue_Circle_Chess_4.jpg,left,1135.6900000246242,true,high,false
iCJoNNYm,3ncn4n1h2juy25d07zfv3rnlauxnbw,35gmh2sv3iugednq97m088p3geuoel,iCJoNNYm,2020-0188,2020-11-19,12:46:50,13:16:31,NA,incomplete,143,shape,0,left,Purple_Triangle_Stripes_1.jpg,Blue_Triangle_Grid_3.jpg,Red_Circle_Stripes_2.jpg,left,984.8350000102073,true,high,false
iCJoNNYm,3ncn4n1h2juy25d07zfv3rnlauxnbw,35gmh2sv3iugednq97m088p3geuoel,iCJoNNYm,2020-0188,2020-11-19,12:46:50,13:16:31,NA,incomplete,144,shape,1,right,Purple_Star_Stripes_4.jpg,Blue_Triangle_Stripes_3.jpg,Red_Star_Grid_2.jpg,right,915.4400000115857,true,high,false
iCJoNNYm,3ncn4n1h2juy25d07zfv3rnlauxnbw,35gmh2sv3iugednq97m088p3geuoel,iCJoNNYm,2020-0188,2020-11-19,12:46:50,13:16:31,NA,incomplete,145,shape,0,right,Red_Star_Stripes_4.jpg,Blue_Triangle_Stripes_1.jpg,Purple_Star_Chess_3.jpg,left,1123.424999997951,false,high,false
iCJoNNYm,3ncn4n1h2juy25d07zfv3rnlauxnbw,35gmh2sv3iugednq97m088p3geuoel,iCJoNNYm,2020-0188,2020-11-19,12:46:50,13:16:31,NA,incomplete,146,shape,1,left,Blue_Plus_Dots_4.jpg,Red_Plus_Chess_3.jpg,Green_Circle_Dots_2.jpg,right,1026.494999998249,false,high,false
iCJoNNYm,3ncn4n1h2juy25d07zfv3rnlauxnbw,35gmh2sv3iugednq97m088p3geuoel,iCJoNNYm,2020-0188,2020-11-19,12:46:50,13:16:31,NA,incomplete,147,shape,0,right,Green_Plus_Grid_3.jpg,Blue_Star_Grid_2.jpg,Purple_Plus_Stripes_1.jpg,right,885.6849999865517,true,high,false
iCJoNNYm,3ncn4n1h2juy25d07zfv3rnlauxnbw,35gmh2sv3iugednq97m088p3geuoel,iCJoNNYm,2020-0188,2020-11-19,12:46:50,13:16:31,NA,incomplete,148,shape,1,left,Red_Triangle_Chess_3.jpg,Green_Triangle_Stripes_2.jpg,Blue_Star_Chess_1.jpg,left,1040.7250000862405,true,high,false
iCJoNNYm,3ncn4n1h2juy25d07zfv3rnlauxnbw,35gmh2sv3iugednq97m088p3geuoel,iCJoNNYm,2020-0188,2020-11-19,12:46:50,13:16:31,NA,incomplete,149,shape,1,left,Blue_Plus_Chess_4.jpg,Red_Plus_Stripes_1.jpg,Green_Triangle_Chess_2.jpg,left,817.46499997098,true,high,false
iCJoNNYm,3ncn4n1h2juy25d07zfv3rnlauxnbw,35gmh2sv3iugednq97m088p3geuoel,iCJoNNYm,2020-0188,2020-11-19,12:46:50,13:16:31,NA,incomplete,150,shape,0,left,Green_Plus_Grid_1.jpg,Purple_Plus_Dots_4.jpg,Red_Star_Grid_3.jpg,left,948.6649999162182,true,high,false
iCJoNNYm,3ncn4n1h2juy25d07zfv3rnlauxnbw,35gmh2sv3iugednq97m088p3geuoel,iCJoNNYm,2020-0188,2020-11-19,12:46:50,13:16:31,NA,incomplete,151,shape,1,left,Green_Plus_Chess_1.jpg,Red_Plus_Dots_2.jpg,Purple_Star_Chess_4.jpg,left,1299.1600000532344,true,high,false
iCJoNNYm,3ncn4n1h2juy25d07zfv3rnlauxnbw,35gmh2sv3iugednq97m088p3geuoel,iCJoNNYm,2020-0188,2020-11-19,12:46:50,13:16:31,NA,incomplete,152,shape,1,right,Purple_Star_Chess_3.jpg,Green_Triangle_Chess_1.jpg,Blue_Star_Grid_4.jpg,right,1086.4399999845773,true,high,false
iCJoNNYm,3ncn4n1h2juy25d07zfv3rnlauxnbw,35gmh2sv3iugednq97m088p3geuoel,iCJoNNYm,2020-0188,2020-11-19,12:46:50,13:16:31,NA,incomplete,153,shape,1,right,Blue_Star_Stripes_3.jpg,Green_Triangle_Stripes_1.jpg,Red_Star_Chess_4.jpg,right,724.7549999738112,true,high,false
iCJoNNYm,3ncn4n1h2juy25d07zfv3rnlauxnbw,35gmh2sv3iugednq97m088p3geuoel,iCJoNNYm,2020-0188,2020-11-19,12:46:50,13:16:31,NA,incomplete,154,shape,1,left,Red_Star_Dots_4.jpg,Blue_Star_Grid_3.jpg,Purple_Triangle_Dots_2.jpg,left,1092.0199999818578,true,high,false
iCJoNNYm,3ncn4n1h2juy25d07zfv3rnlauxnbw,35gmh2sv3iugednq97m088p3geuoel,iCJoNNYm,2020-0188,2020-11-19,12:46:50,13:16:31,NA,incomplete,155,shape,1,right,Purple_Triangle_Chess_1.jpg,Blue_Plus_Chess_4.jpg,Green_Triangle_Dots_2.jpg,right,1212.5300000188872,true,high,false
iCJoNNYm,3ncn4n1h2juy25d07zfv3rnlauxnbw,35gmh2sv3iugednq97m088p3geuoel,iCJoNNYm,2020-0188,2020-11-19,12:46:50,13:16:31,NA,incomplete,156,shape,1,left,Purple_Circle_Dots_3.jpg,Green_Circle_Grid_4.jpg,Blue_Plus_Dots_1.jpg,left,1067.559999995865,true,high,false
iCJoNNYm,3ncn4n1h2juy25d07zfv3rnlauxnbw,35gmh2sv3iugednq97m088p3geuoel,iCJoNNYm,2020-0188,2020-11-19,12:46:50,13:16:31,NA,incomplete,157,shape,1,left,Purple_Star_Chess_2.jpg,Red_Star_Stripes_1.jpg,Green_Plus_Chess_3.jpg,left,1082.3700000764802,true,high,false
iCJoNNYm,3ncn4n1h2juy25d07zfv3rnlauxnbw,35gmh2sv3iugednq97m088p3geuoel,iCJoNNYm,2020-0188,2020-11-19,12:46:50,13:16:31,NA,incomplete,158,shape,1,left,Blue_Plus_Stripes_3.jpg,Purple_Plus_Dots_4.jpg,Red_Star_Stripes_2.jpg,left,874.9900000402704,true,high,false
iCJoNNYm,3ncn4n1h2juy25d07zfv3rnlauxnbw,35gmh2sv3iugednq97m088p3geuoel,iCJoNNYm,2020-0188,2020-11-19,12:46:50,13:16:31,NA,incomplete,159,shape,1,right,Blue_Star_Dots_2.jpg,Red_Plus_Dots_3.jpg,Green_Star_Chess_1.jpg,right,852.3699999786913,true,high,false
iCJoNNYm,3ncn4n1h2juy25d07zfv3rnlauxnbw,35gmh2sv3iugednq97m088p3geuoel,iCJoNNYm,2020-0188,2020-11-19,12:46:50,13:16:31,NA,incomplete,160,filling,1,left,Red_Star_Grid_1.jpg,Purple_Triangle_Grid_2.jpg,Green_Star_Chess_3.jpg,right,758.8100000284612,false,high,false
iCJoNNYm,3ncn4n1h2juy25d07zfv3rnlauxnbw,35gmh2sv3iugednq97m088p3geuoel,iCJoNNYm,2020-0188,2020-11-19,12:46:50,13:16:31,NA,incomplete,161,filling,1,left,Blue_Star_Stripes_4.jpg,Red_Plus_Stripes_2.jpg,Purple_Star_Grid_1.jpg,left,1095.4449999844655,true,high,false
iCJoNNYm,3ncn4n1h2juy25d07zfv3rnlauxnbw,35gmh2sv3iugednq97m088p3geuoel,iCJoNNYm,2020-0188,2020-11-19,12:46:50,13:16:31,NA,incomplete,162,filling,1,right,Blue_Plus_Grid_4.jpg,Red_Plus_Chess_3.jpg,Green_Star_Grid_1.jpg,right,1093.4200000483543,true,high,false
iCJoNNYm,3ncn4n1h2juy25d07zfv3rnlauxnbw,35gmh2sv3iugednq97m088p3geuoel,iCJoNNYm,2020-0188,2020-11-19,12:46:50,13:16:31,NA,incomplete,163,filling,1,right,Red_Circle_Stripes_1.jpg,Purple_Circle_Grid_4.jpg,Blue_Star_Stripes_3.jpg,left,941.5749999461696,false,high,false
iCJoNNYm,3ncn4n1h2juy25d07zfv3rnlauxnbw,35gmh2sv3iugednq97m088p3geuoel,iCJoNNYm,2020-0188,2020-11-19,12:46:50,13:16:31,NA,incomplete,164,filling,1,right,Purple_Triangle_Chess_1.jpg,Blue_Triangle_Dots_4.jpg,Green_Plus_Chess_3.jpg,right,979.7650000546128,true,high,false
iCJoNNYm,3ncn4n1h2juy25d07zfv3rnlauxnbw,35gmh2sv3iugednq97m088p3geuoel,iCJoNNYm,2020-0188,2020-11-19,12:46:50,13:16:31,NA,incomplete,165,filling,1,right,Blue_Triangle_Chess_3.jpg,Purple_Triangle_Dots_4.jpg,Red_Star_Chess_1.jpg,right,1212.5900000100955,true,high,false
iCJoNNYm,3ncn4n1h2juy25d07zfv3rnlauxnbw,35gmh2sv3iugednq97m088p3geuoel,iCJoNNYm,2020-0188,2020-11-19,12:46:50,13:16:31,NA,incomplete,166,filling,0,right,Blue_Plus_Chess_1.jpg,Red_Plus_Dots_2.jpg,Purple_Triangle_Chess_4.jpg,right,965.5100000090897,true,high,false
iCJoNNYm,3ncn4n1h2juy25d07zfv3rnlauxnbw,35gmh2sv3iugednq97m088p3geuoel,iCJoNNYm,2020-0188,2020-11-19,12:46:50,13:16:31,NA,incomplete,167,filling,1,right,Blue_Plus_Dots_1.jpg,Red_Plus_Grid_3.jpg,Green_Triangle_Dots_2.jpg,left,803.4749999642372,false,high,false
iCJoNNYm,3ncn4n1h2juy25d07zfv3rnlauxnbw,35gmh2sv3iugednq97m088p3geuoel,iCJoNNYm,2020-0188,2020-11-19,12:46:50,13:16:31,NA,incomplete,168,filling,1,left,Blue_Plus_Dots_4.jpg,Red_Triangle_Dots_1.jpg,Green_Plus_Stripes_2.jpg,right,1015.9800000255927,false,high,false
iCJoNNYm,3ncn4n1h2juy25d07zfv3rnlauxnbw,35gmh2sv3iugednq97m088p3geuoel,iCJoNNYm,2020-0188,2020-11-19,12:46:50,13:16:31,NA,incomplete,169,filling,1,right,Purple_Circle_Dots_2.jpg,Red_Circle_Stripes_1.jpg,Green_Triangle_Dots_4.jpg,right,996.2100000120699,true,high,false
iCJoNNYm,3ncn4n1h2juy25d07zfv3rnlauxnbw,35gmh2sv3iugednq97m088p3geuoel,iCJoNNYm,2020-0188,2020-11-19,12:46:50,13:16:31,NA,incomplete,170,filling,1,left,Red_Star_Chess_4.jpg,Blue_Triangle_Chess_3.jpg,Green_Star_Stripes_2.jpg,left,1330.11500001885,true,high,false
iCJoNNYm,3ncn4n1h2juy25d07zfv3rnlauxnbw,35gmh2sv3iugednq97m088p3geuoel,iCJoNNYm,2020-0188,2020-11-19,12:46:50,13:16:31,NA,incomplete,171,filling,1,left,Purple_Triangle_Chess_3.jpg,Red_Circle_Chess_1.jpg,Green_Triangle_Dots_4.jpg,left,935.9799999510869,true,high,false
iCJoNNYm,3ncn4n1h2juy25d07zfv3rnlauxnbw,35gmh2sv3iugednq97m088p3geuoel,iCJoNNYm,2020-0188,2020-11-19,12:46:50,13:16:31,NA,incomplete,172,filling,1,right,Green_Triangle_Grid_3.jpg,Purple_Triangle_Stripes_4.jpg,Blue_Star_Grid_1.jpg,left,877.7999999001622,false,high,false
iCJoNNYm,3ncn4n1h2juy25d07zfv3rnlauxnbw,35gmh2sv3iugednq97m088p3geuoel,iCJoNNYm,2020-0188,2020-11-19,12:46:50,13:16:31,NA,incomplete,173,filling,0,right,Green_Star_Dots_4.jpg,Purple_Star_Chess_3.jpg,Blue_Plus_Dots_2.jpg,left,1351.7099999589846,false,high,false
iCJoNNYm,3ncn4n1h2juy25d07zfv3rnlauxnbw,35gmh2sv3iugednq97m088p3geuoel,iCJoNNYm,2020-0188,2020-11-19,12:46:50,13:16:31,NA,incomplete,174,filling,1,left,Blue_Triangle_Dots_1.jpg,Red_Circle_Dots_4.jpg,Green_Triangle_Chess_2.jpg,right,813.094999990426,false,high,false
iCJoNNYm,3ncn4n1h2juy25d07zfv3rnlauxnbw,35gmh2sv3iugednq97m088p3geuoel,iCJoNNYm,2020-0188,2020-11-19,12:46:50,13:16:31,NA,incomplete,175,filling,1,right,Red_Triangle_Grid_4.jpg,Green_Triangle_Chess_2.jpg,Blue_Circle_Grid_3.jpg,left,865.5599999474362,false,high,false
iCJoNNYm,3ncn4n1h2juy25d07zfv3rnlauxnbw,35gmh2sv3iugednq97m088p3geuoel,iCJoNNYm,2020-0188,2020-11-19,12:46:50,13:16:31,NA,incomplete,176,filling,0,right,Green_Star_Dots_1.jpg,Purple_Star_Chess_2.jpg,Blue_Circle_Dots_3.jpg,right,1305.9249999932945,true,high,false
iCJoNNYm,3ncn4n1h2juy25d07zfv3rnlauxnbw,35gmh2sv3iugednq97m088p3geuoel,iCJoNNYm,2020-0188,2020-11-19,12:46:50,13:16:31,NA,incomplete,177,filling,1,right,Blue_Triangle_Chess_2.jpg,Red_Triangle_Dots_3.jpg,Green_Circle_Chess_4.jpg,left,1106.4250000054017,false,high,false
iCJoNNYm,3ncn4n1h2juy25d07zfv3rnlauxnbw,35gmh2sv3iugednq97m088p3geuoel,iCJoNNYm,2020-0188,2020-11-19,12:46:50,13:16:31,NA,incomplete,178,filling,1,left,Blue_Plus_Stripes_2.jpg,Green_Circle_Stripes_1.jpg,Purple_Plus_Dots_3.jpg,right,842.8400000557303,false,high,false
iCJoNNYm,3ncn4n1h2juy25d07zfv3rnlauxnbw,35gmh2sv3iugednq97m088p3geuoel,iCJoNNYm,2020-0188,2020-11-19,12:46:50,13:16:31,NA,incomplete,179,filling,1,right,Purple_Circle_Grid_4.jpg,Red_Circle_Dots_2.jpg,Green_Triangle_Grid_3.jpg,right,887.2999999439344,true,high,false
iCJoNNYm,3ncn4n1h2juy25d07zfv3rnlauxnbw,35gmh2sv3iugednq97m088p3geuoel,iCJoNNYm,2020-0188,2020-11-19,12:46:50,13:16:31,NA,incomplete,180,shape,1,right,Green_Circle_Dots_2.jpg,Blue_Star_Dots_3.jpg,Red_Circle_Stripes_1.jpg,left,1037.9749999847263,false,high,false
iCJoNNYm,3ncn4n1h2juy25d07zfv3rnlauxnbw,35gmh2sv3iugednq97m088p3geuoel,iCJoNNYm,2020-0188,2020-11-19,12:46:50,13:16:31,NA,incomplete,181,shape,1,left,Green_Triangle_Dots_4.jpg,Purple_Triangle_Stripes_1.jpg,Blue_Circle_Dots_3.jpg,left,1176.6399999614805,true,high,false
iCJoNNYm,3ncn4n1h2juy25d07zfv3rnlauxnbw,35gmh2sv3iugednq97m088p3geuoel,iCJoNNYm,2020-0188,2020-11-19,12:46:50,13:16:31,NA,incomplete,182,shape,1,right,Blue_Circle_Grid_2.jpg,Purple_Star_Grid_3.jpg,Green_Circle_Dots_1.jpg,left,1077.7600000146776,false,high,false
iCJoNNYm,3ncn4n1h2juy25d07zfv3rnlauxnbw,35gmh2sv3iugednq97m088p3geuoel,iCJoNNYm,2020-0188,2020-11-19,12:46:50,13:16:31,NA,incomplete,183,shape,0,left,Blue_Circle_Grid_3.jpg,Red_Circle_Stripes_1.jpg,Purple_Star_Grid_2.jpg,left,807.0849999785423,true,high,false
iCJoNNYm,3ncn4n1h2juy25d07zfv3rnlauxnbw,35gmh2sv3iugednq97m088p3geuoel,iCJoNNYm,2020-0188,2020-11-19,12:46:50,13:16:31,NA,incomplete,184,shape,1,left,Purple_Triangle_Chess_3.jpg,Red_Triangle_Grid_4.jpg,Blue_Star_Chess_2.jpg,right,986.9100000942126,false,high,false
iCJoNNYm,3ncn4n1h2juy25d07zfv3rnlauxnbw,35gmh2sv3iugednq97m088p3geuoel,iCJoNNYm,2020-0188,2020-11-19,12:46:50,13:16:31,NA,incomplete,185,shape,1,left,Green_Plus_Grid_3.jpg,Blue_Plus_Dots_4.jpg,Red_Star_Grid_1.jpg,left,1016.5849999757484,true,high,false
iCJoNNYm,3ncn4n1h2juy25d07zfv3rnlauxnbw,35gmh2sv3iugednq97m088p3geuoel,iCJoNNYm,2020-0188,2020-11-19,12:46:50,13:16:31,NA,incomplete,186,shape,1,left,Purple_Star_Dots_2.jpg,Red_Star_Chess_1.jpg,Blue_Plus_Dots_4.jpg,left,1435.5600000126287,true,high,false
iCJoNNYm,3ncn4n1h2juy25d07zfv3rnlauxnbw,35gmh2sv3iugednq97m088p3geuoel,iCJoNNYm,2020-0188,2020-11-19,12:46:50,13:16:31,NA,incomplete,187,shape,1,right,Blue_Plus_Chess_2.jpg,Purple_Triangle_Chess_1.jpg,Green_Plus_Grid_3.jpg,right,704.1550000431016,true,high,false
iCJoNNYm,3ncn4n1h2juy25d07zfv3rnlauxnbw,35gmh2sv3iugednq97m088p3geuoel,iCJoNNYm,2020-0188,2020-11-19,12:46:50,13:16:31,NA,incomplete,188,shape,1,left,Blue_Triangle_Stripes_1.jpg,Red_Triangle_Chess_2.jpg,Purple_Plus_Stripes_4.jpg,left,845.6799999112263,true,high,false
iCJoNNYm,3ncn4n1h2juy25d07zfv3rnlauxnbw,35gmh2sv3iugednq97m088p3geuoel,iCJoNNYm,2020-0188,2020-11-19,12:46:50,13:16:31,NA,incomplete,189,shape,1,left,Green_Circle_Chess_4.jpg,Blue_Circle_Stripes_3.jpg,Red_Star_Chess_2.jpg,left,904.6800000360236,true,high,false
iCJoNNYm,3ncn4n1h2juy25d07zfv3rnlauxnbw,35gmh2sv3iugednq97m088p3geuoel,iCJoNNYm,2020-0188,2020-11-19,12:46:50,13:16:31,NA,incomplete,190,shape,1,right,Green_Plus_Chess_3.jpg,Red_Triangle_Chess_4.jpg,Blue_Plus_Dots_2.jpg,right,856.3950000097975,true,high,false
iCJoNNYm,3ncn4n1h2juy25d07zfv3rnlauxnbw,35gmh2sv3iugednq97m088p3geuoel,iCJoNNYm,2020-0188,2020-11-19,12:46:50,13:16:31,NA,incomplete,191,shape,1,right,Red_Triangle_Chess_3.jpg,Blue_Plus_Chess_4.jpg,Green_Triangle_Dots_1.jpg,right,754.3099999893457,true,high,false
iCJoNNYm,3ncn4n1h2juy25d07zfv3rnlauxnbw,35gmh2sv3iugednq97m088p3geuoel,iCJoNNYm,2020-0188,2020-11-19,12:46:50,13:16:31,NA,incomplete,192,shape,1,right,Red_Circle_Stripes_3.jpg,Purple_Star_Stripes_2.jpg,Blue_Circle_Chess_4.jpg,right,1090.7100000185892,true,high,false
iCJoNNYm,3ncn4n1h2juy25d07zfv3rnlauxnbw,35gmh2sv3iugednq97m088p3geuoel,iCJoNNYm,2020-0188,2020-11-19,12:46:50,13:16:31,NA,incomplete,193,shape,1,left,Red_Plus_Grid_1.jpg,Blue_Plus_Chess_3.jpg,Purple_Star_Grid_4.jpg,left,736.0650000628084,true,high,false
iCJoNNYm,3ncn4n1h2juy25d07zfv3rnlauxnbw,35gmh2sv3iugednq97m088p3geuoel,iCJoNNYm,2020-0188,2020-11-19,12:46:50,13:16:31,NA,incomplete,194,shape,1,right,Red_Triangle_Dots_3.jpg,Purple_Star_Dots_1.jpg,Blue_Triangle_Grid_4.jpg,right,711.5149999735877,true,high,false
iCJoNNYm,3ncn4n1h2juy25d07zfv3rnlauxnbw,35gmh2sv3iugednq97m088p3geuoel,iCJoNNYm,2020-0188,2020-11-19,12:46:50,13:16:31,NA,incomplete,195,shape,1,left,Red_Circle_Stripes_2.jpg,Blue_Circle_Grid_1.jpg,Purple_Plus_Stripes_3.jpg,left,1207.7499999431893,true,high,false
iCJoNNYm,3ncn4n1h2juy25d07zfv3rnlauxnbw,35gmh2sv3iugednq97m088p3geuoel,iCJoNNYm,2020-0188,2020-11-19,12:46:50,13:16:31,NA,incomplete,196,shape,1,right,Blue_Circle_Grid_3.jpg,Purple_Triangle_Grid_4.jpg,Green_Circle_Chess_1.jpg,left,675.0799999572337,false,high,false
iCJoNNYm,3ncn4n1h2juy25d07zfv3rnlauxnbw,35gmh2sv3iugednq97m088p3geuoel,iCJoNNYm,2020-0188,2020-11-19,12:46:50,13:16:31,NA,incomplete,197,shape,0,left,Green_Plus_Grid_3.jpg,Purple_Plus_Stripes_2.jpg,Red_Circle_Grid_1.jpg,left,669.1899999277666,true,high,false
iCJoNNYm,3ncn4n1h2juy25d07zfv3rnlauxnbw,35gmh2sv3iugednq97m088p3geuoel,iCJoNNYm,2020-0188,2020-11-19,12:46:50,13:16:31,NA,incomplete,198,shape,1,left,Purple_Circle_Dots_1.jpg,Blue_Circle_Grid_3.jpg,Red_Plus_Dots_4.jpg,left,573.6749999923632,true,high,false
iCJoNNYm,3ncn4n1h2juy25d07zfv3rnlauxnbw,35gmh2sv3iugednq97m088p3geuoel,iCJoNNYm,2020-0188,2020-11-19,12:46:50,13:16:31,NA,incomplete,199,shape,1,right,Blue_Circle_Chess_4.jpg,Purple_Triangle_Chess_3.jpg,Red_Circle_Dots_1.jpg,right,906.6699999384582,true,high,false
iCJoNNYm,3ncn4n1h2juy25d07zfv3rnlauxnbw,35gmh2sv3iugednq97m088p3geuoel,iCJoNNYm,2020-0188,2020-11-19,12:46:50,13:16:31,NA,incomplete,200,filling,0,right,Green_Triangle_Dots_3.jpg,Purple_Triangle_Grid_4.jpg,Red_Circle_Dots_2.jpg,left,706.804999965243,false,high,false
iCJoNNYm,3ncn4n1h2juy25d07zfv3rnlauxnbw,35gmh2sv3iugednq97m088p3geuoel,iCJoNNYm,2020-0188,2020-11-19,12:46:50,13:16:31,NA,incomplete,201,filling,1,right,Blue_Plus_Chess_1.jpg,Purple_Plus_Grid_3.jpg,Red_Star_Chess_4.jpg,left,698.7999998964369,false,high,false
iCJoNNYm,3ncn4n1h2juy25d07zfv3rnlauxnbw,35gmh2sv3iugednq97m088p3geuoel,iCJoNNYm,2020-0188,2020-11-19,12:46:50,13:16:31,NA,incomplete,202,filling,0,right,Blue_Triangle_Dots_4.jpg,Red_Triangle_Grid_2.jpg,Green_Plus_Dots_1.jpg,right,892.9950000019744,true,high,false
iCJoNNYm,3ncn4n1h2juy25d07zfv3rnlauxnbw,35gmh2sv3iugednq97m088p3geuoel,iCJoNNYm,2020-0188,2020-11-19,12:46:50,13:16:31,NA,incomplete,203,filling,1,right,Red_Triangle_Grid_3.jpg,Green_Triangle_Stripes_1.jpg,Purple_Plus_Grid_2.jpg,left,1252.4699999485165,false,high,false
iCJoNNYm,3ncn4n1h2juy25d07zfv3rnlauxnbw,35gmh2sv3iugednq97m088p3geuoel,iCJoNNYm,2020-0188,2020-11-19,12:46:50,13:16:31,NA,incomplete,204,filling,1,right,Red_Circle_Stripes_4.jpg,Purple_Circle_Grid_1.jpg,Blue_Plus_Stripes_3.jpg,right,829.9300000071526,true,high,false
iCJoNNYm,3ncn4n1h2juy25d07zfv3rnlauxnbw,35gmh2sv3iugednq97m088p3geuoel,iCJoNNYm,2020-0188,2020-11-19,12:46:50,13:16:31,NA,incomplete,205,filling,0,left,Purple_Star_Stripes_1.jpg,Red_Circle_Stripes_4.jpg,Green_Star_Chess_3.jpg,left,1025.3399999346584,true,high,false
iCJoNNYm,3ncn4n1h2juy25d07zfv3rnlauxnbw,35gmh2sv3iugednq97m088p3geuoel,iCJoNNYm,2020-0188,2020-11-19,12:46:50,13:16:31,NA,incomplete,206,filling,1,right,Blue_Plus_Chess_1.jpg,Purple_Plus_Stripes_3.jpg,Red_Star_Chess_4.jpg,right,1111.1650000093505,true,high,false
iCJoNNYm,3ncn4n1h2juy25d07zfv3rnlauxnbw,35gmh2sv3iugednq97m088p3geuoel,iCJoNNYm,2020-0188,2020-11-19,12:46:50,13:16:31,NA,incomplete,207,filling,0,left,Purple_Circle_Dots_3.jpg,Red_Star_Dots_4.jpg,Green_Circle_Stripes_1.jpg,left,1356.305000022985,true,high,false
iCJoNNYm,3ncn4n1h2juy25d07zfv3rnlauxnbw,35gmh2sv3iugednq97m088p3geuoel,iCJoNNYm,2020-0188,2020-11-19,12:46:50,13:16:31,NA,incomplete,208,filling,1,left,Blue_Triangle_Stripes_3.jpg,Red_Circle_Stripes_2.jpg,Purple_Triangle_Chess_1.jpg,right,1410.3399999439716,false,high,false
iCJoNNYm,3ncn4n1h2juy25d07zfv3rnlauxnbw,35gmh2sv3iugednq97m088p3geuoel,iCJoNNYm,2020-0188,2020-11-19,12:46:50,13:16:31,NA,incomplete,209,filling,1,left,Green_Triangle_Grid_2.jpg,Purple_Circle_Grid_4.jpg,Blue_Triangle_Dots_3.jpg,left,1133.2349999574944,true,high,false
iCJoNNYm,3ncn4n1h2juy25d07zfv3rnlauxnbw,35gmh2sv3iugednq97m088p3geuoel,iCJoNNYm,2020-0188,2020-11-19,12:46:50,13:16:31,NA,incomplete,210,filling,0,left,Green_Circle_Chess_3.jpg,Purple_Star_Chess_1.jpg,Red_Circle_Stripes_4.jpg,left,1759.955000015907,true,high,false
iCJoNNYm,3ncn4n1h2juy25d07zfv3rnlauxnbw,35gmh2sv3iugednq97m088p3geuoel,iCJoNNYm,2020-0188,2020-11-19,12:46:50,13:16:31,NA,incomplete,211,filling,1,left,Green_Triangle_Chess_1.jpg,Purple_Plus_Chess_2.jpg,Blue_Triangle_Grid_3.jpg,left,1053.1000000191852,true,high,false
iCJoNNYm,3ncn4n1h2juy25d07zfv3rnlauxnbw,35gmh2sv3iugednq97m088p3geuoel,iCJoNNYm,2020-0188,2020-11-19,12:46:50,13:16:31,NA,incomplete,212,filling,0,left,Red_Circle_Stripes_3.jpg,Purple_Star_Stripes_4.jpg,Green_Circle_Grid_2.jpg,right,901.6500000143424,false,high,false
iCJoNNYm,3ncn4n1h2juy25d07zfv3rnlauxnbw,35gmh2sv3iugednq97m088p3geuoel,iCJoNNYm,2020-0188,2020-11-19,12:46:50,13:16:31,NA,incomplete,213,filling,1,right,Green_Circle_Dots_1.jpg,Red_Circle_Stripes_4.jpg,Purple_Star_Dots_2.jpg,left,829.9150000093505,false,high,false
iCJoNNYm,3ncn4n1h2juy25d07zfv3rnlauxnbw,35gmh2sv3iugednq97m088p3geuoel,iCJoNNYm,2020-0188,2020-11-19,12:46:50,13:16:31,NA,incomplete,214,filling,0,left,Blue_Circle_Stripes_1.jpg,Purple_Star_Stripes_3.jpg,Green_Circle_Dots_4.jpg,left,1073.6249999608845,true,high,false
iCJoNNYm,3ncn4n1h2juy25d07zfv3rnlauxnbw,35gmh2sv3iugednq97m088p3geuoel,iCJoNNYm,2020-0188,2020-11-19,12:46:50,13:16:31,NA,incomplete,215,filling,1,right,Green_Circle_Grid_4.jpg,Purple_Circle_Stripes_2.jpg,Blue_Triangle_Grid_1.jpg,right,1076.450000051409,true,high,false
iCJoNNYm,3ncn4n1h2juy25d07zfv3rnlauxnbw,35gmh2sv3iugednq97m088p3geuoel,iCJoNNYm,2020-0188,2020-11-19,12:46:50,13:16:31,NA,incomplete,216,filling,0,right,Green_Plus_Stripes_4.jpg,Red_Plus_Grid_2.jpg,Blue_Star_Stripes_3.jpg,left,1068.0549999233335,false,high,false
iCJoNNYm,3ncn4n1h2juy25d07zfv3rnlauxnbw,35gmh2sv3iugednq97m088p3geuoel,iCJoNNYm,2020-0188,2020-11-19,12:46:50,13:16:31,NA,incomplete,217,filling,1,right,Red_Circle_Dots_2.jpg,Purple_Circle_Chess_4.jpg,Blue_Star_Dots_3.jpg,right,966.2300000200048,true,high,false
iCJoNNYm,3ncn4n1h2juy25d07zfv3rnlauxnbw,35gmh2sv3iugednq97m088p3geuoel,iCJoNNYm,2020-0188,2020-11-19,12:46:50,13:16:31,NA,incomplete,218,filling,1,right,Red_Circle_Grid_2.jpg,Purple_Circle_Stripes_1.jpg,Green_Plus_Grid_3.jpg,right,987.5349999638274,true,high,false
iCJoNNYm,3ncn4n1h2juy25d07zfv3rnlauxnbw,35gmh2sv3iugednq97m088p3geuoel,iCJoNNYm,2020-0188,2020-11-19,12:46:50,13:16:31,NA,incomplete,219,filling,1,right,Green_Plus_Dots_1.jpg,Blue_Plus_Stripes_3.jpg,Red_Star_Dots_2.jpg,right,1042.7200000267476,true,high,false
iCJoNNYm,3ncn4n1h2juy25d07zfv3rnlauxnbw,35gmh2sv3iugednq97m088p3geuoel,iCJoNNYm,2020-0188,2020-11-19,12:46:50,13:16:31,NA,incomplete,220,shape,0,right,Blue_Circle_Chess_2.jpg,Purple_Triangle_Chess_3.jpg,Green_Circle_Stripes_1.jpg,left,1506.7300000227988,false,high,false
iCJoNNYm,3ncn4n1h2juy25d07zfv3rnlauxnbw,35gmh2sv3iugednq97m088p3geuoel,iCJoNNYm,2020-0188,2020-11-19,12:46:50,13:16:31,NA,incomplete,221,shape,1,left,Purple_Triangle_Chess_1.jpg,Red_Triangle_Dots_3.jpg,Blue_Circle_Chess_2.jpg,right,954.7649999149144,false,high,false
iCJoNNYm,3ncn4n1h2juy25d07zfv3rnlauxnbw,35gmh2sv3iugednq97m088p3geuoel,iCJoNNYm,2020-0188,2020-11-19,12:46:50,13:16:31,NA,incomplete,222,shape,1,right,Purple_Plus_Chess_1.jpg,Red_Triangle_Chess_2.jpg,Blue_Plus_Stripes_3.jpg,left,1257.0350000169128,false,high,false
iCJoNNYm,3ncn4n1h2juy25d07zfv3rnlauxnbw,35gmh2sv3iugednq97m088p3geuoel,iCJoNNYm,2020-0188,2020-11-19,12:46:50,13:16:31,NA,incomplete,223,shape,1,right,Red_Plus_Dots_2.jpg,Blue_Triangle_Dots_1.jpg,Green_Plus_Stripes_3.jpg,right,754.3999999761581,true,high,false
iCJoNNYm,3ncn4n1h2juy25d07zfv3rnlauxnbw,35gmh2sv3iugednq97m088p3geuoel,iCJoNNYm,2020-0188,2020-11-19,12:46:50,13:16:31,NA,incomplete,224,shape,1,left,Red_Triangle_Stripes_4.jpg,Green_Triangle_Grid_3.jpg,Purple_Plus_Stripes_2.jpg,left,775.6049999734387,true,high,false
iCJoNNYm,3ncn4n1h2juy25d07zfv3rnlauxnbw,35gmh2sv3iugednq97m088p3geuoel,iCJoNNYm,2020-0188,2020-11-19,12:46:50,13:16:31,NA,incomplete,225,shape,0,right,Green_Star_Chess_1.jpg,Red_Triangle_Chess_4.jpg,Purple_Star_Grid_3.jpg,right,749.9499999685213,true,high,false
iCJoNNYm,3ncn4n1h2juy25d07zfv3rnlauxnbw,35gmh2sv3iugednq97m088p3geuoel,iCJoNNYm,2020-0188,2020-11-19,12:46:50,13:16:31,NA,incomplete,226,shape,1,left,Red_Circle_Chess_2.jpg,Green_Circle_Grid_4.jpg,Blue_Triangle_Chess_3.jpg,left,780.6750000454485,true,high,false
iCJoNNYm,3ncn4n1h2juy25d07zfv3rnlauxnbw,35gmh2sv3iugednq97m088p3geuoel,iCJoNNYm,2020-0188,2020-11-19,12:46:50,13:16:31,NA,incomplete,227,shape,1,left,Red_Circle_Stripes_3.jpg,Purple_Circle_Grid_4.jpg,Blue_Triangle_Stripes_2.jpg,left,905.26500006672,true,high,false
iCJoNNYm,3ncn4n1h2juy25d07zfv3rnlauxnbw,35gmh2sv3iugednq97m088p3geuoel,iCJoNNYm,2020-0188,2020-11-19,12:46:50,13:16:31,NA,incomplete,228,shape,1,right,Green_Plus_Stripes_1.jpg,Blue_Star_Stripes_3.jpg,Purple_Plus_Grid_2.jpg,right,827.9849999817088,true,high,false
iCJoNNYm,3ncn4n1h2juy25d07zfv3rnlauxnbw,35gmh2sv3iugednq97m088p3geuoel,iCJoNNYm,2020-0188,2020-11-19,12:46:50,13:16:31,NA,incomplete,229,shape,1,left,Purple_Circle_Stripes_2.jpg,Blue_Circle_Dots_1.jpg,Green_Triangle_Stripes_4.jpg,left,1604.0000000502914,true,high,false
iCJoNNYm,3ncn4n1h2juy25d07zfv3rnlauxnbw,35gmh2sv3iugednq97m088p3geuoel,iCJoNNYm,2020-0188,2020-11-19,12:46:50,13:16:31,NA,incomplete,230,shape,1,left,Red_Star_Dots_4.jpg,Purple_Star_Chess_3.jpg,Blue_Circle_Dots_2.jpg,right,1449.0000000223517,false,high,false
iCJoNNYm,3ncn4n1h2juy25d07zfv3rnlauxnbw,35gmh2sv3iugednq97m088p3geuoel,iCJoNNYm,2020-0188,2020-11-19,12:46:50,13:16:31,NA,incomplete,231,shape,1,right,Blue_Circle_Dots_4.jpg,Purple_Star_Dots_3.jpg,Red_Circle_Stripes_1.jpg,right,778.7500000558794,true,high,false
iCJoNNYm,3ncn4n1h2juy25d07zfv3rnlauxnbw,35gmh2sv3iugednq97m088p3geuoel,iCJoNNYm,2020-0188,2020-11-19,12:46:50,13:16:31,NA,incomplete,232,shape,1,right,Red_Plus_Stripes_3.jpg,Blue_Triangle_Stripes_4.jpg,Green_Plus_Dots_2.jpg,right,954.120000009425,true,high,false
iCJoNNYm,3ncn4n1h2juy25d07zfv3rnlauxnbw,35gmh2sv3iugednq97m088p3geuoel,iCJoNNYm,2020-0188,2020-11-19,12:46:50,13:16:31,NA,incomplete,233,shape,0,left,Red_Circle_Stripes_1.jpg,Purple_Circle_Chess_3.jpg,Green_Triangle_Stripes_2.jpg,left,790.125000057742,true,high,false
iCJoNNYm,3ncn4n1h2juy25d07zfv3rnlauxnbw,35gmh2sv3iugednq97m088p3geuoel,iCJoNNYm,2020-0188,2020-11-19,12:46:50,13:16:31,NA,incomplete,234,shape,1,right,Purple_Circle_Dots_4.jpg,Blue_Star_Dots_1.jpg,Red_Circle_Stripes_3.jpg,left,1362.7100000157952,false,high,false
iCJoNNYm,3ncn4n1h2juy25d07zfv3rnlauxnbw,35gmh2sv3iugednq97m088p3geuoel,iCJoNNYm,2020-0188,2020-11-19,12:46:50,13:16:31,NA,incomplete,235,shape,1,right,Green_Triangle_Grid_2.jpg,Purple_Star_Grid_4.jpg,Red_Triangle_Dots_3.jpg,right,1024.2350000189617,true,high,false
iCJoNNYm,3ncn4n1h2juy25d07zfv3rnlauxnbw,35gmh2sv3iugednq97m088p3geuoel,iCJoNNYm,2020-0188,2020-11-19,12:46:50,13:16:31,NA,incomplete,236,shape,1,right,Blue_Plus_Grid_4.jpg,Purple_Star_Grid_2.jpg,Red_Plus_Chess_3.jpg,right,460.0349999964237,true,high,false
iCJoNNYm,3ncn4n1h2juy25d07zfv3rnlauxnbw,35gmh2sv3iugednq97m088p3geuoel,iCJoNNYm,2020-0188,2020-11-19,12:46:50,13:16:31,NA,incomplete,237,shape,1,left,Purple_Circle_Chess_1.jpg,Red_Circle_Grid_2.jpg,Green_Star_Chess_3.jpg,left,736.975000007078,true,high,false
iCJoNNYm,3ncn4n1h2juy25d07zfv3rnlauxnbw,35gmh2sv3iugednq97m088p3geuoel,iCJoNNYm,2020-0188,2020-11-19,12:46:50,13:16:31,NA,incomplete,238,shape,1,left,Red_Star_Grid_3.jpg,Blue_Star_Dots_4.jpg,Purple_Plus_Grid_1.jpg,left,1476.8750000512227,true,high,false
iCJoNNYm,3ncn4n1h2juy25d07zfv3rnlauxnbw,35gmh2sv3iugednq97m088p3geuoel,iCJoNNYm,2020-0188,2020-11-19,12:46:50,13:16:31,NA,incomplete,239,shape,1,right,Purple_Star_Grid_1.jpg,Green_Plus_Grid_3.jpg,Blue_Star_Dots_2.jpg,right,733.4099999861792,true,high,false
iCJoNNYm,3ncn4n1h2juy25d07zfv3rnlauxnbw,35gmh2sv3iugednq97m088p3geuoel,iCJoNNYm,2020-0188,2020-11-19,12:46:50,13:16:31,NA,NA,instruction example,color,NA,NA,Purple_Star_Chess_2.jpg,Purple_Plus_Grid_3.jpg,Blue_Triangle_Dots_2.jpg,NA,NA,NA,NA,undefined
iCJoNNYm,3ncn4n1h2juy25d07zfv3rnlauxnbw,35gmh2sv3iugednq97m088p3geuoel,iCJoNNYm,2020-0188,2020-11-19,12:46:50,13:16:31,NA,NA,instruction example,color,NA,NA,Purple_Circle_Dots_1.jpg,Red_Plus_Chess_1.jpg,Purple_Star_Stripes_3.jpg,NA,NA,NA,NA,undefined
iCJoNNYm,3ncn4n1h2juy25d07zfv3rnlauxnbw,35gmh2sv3iugednq97m088p3geuoel,iCJoNNYm,2020-0188,2020-11-19,12:46:50,13:16:31,NA,NA,instruction example,color,NA,NA,Green_Triangle_Chess_2.jpg,Blue_Star_Chess_1.jpg,Purple_Triangle_Stripes_3.jpg,NA,NA,NA,NA,undefined
iCJoNNYm,3ncn4n1h2juy25d07zfv3rnlauxnbw,35gmh2sv3iugednq97m088p3geuoel,iCJoNNYm,2020-0188,2020-11-19,12:46:50,13:16:31,NA,NA,instruction example,color,NA,NA,Blue_Triangle_Stripes_3.jpg,Red_Triangle_Grid_4.jpg,Purple_Circle_Stripes_2.jpg,NA,NA,NA,NA,undefined
iCJoNNYm,3ncn4n1h2juy25d07zfv3rnlauxnbw,35gmh2sv3iugednq97m088p3geuoel,iCJoNNYm,2020-0188,2020-11-19,12:46:50,13:16:31,1759260.7850000495,1781803.9250000147,NA,NA,NA,NA,NA,NA,NA,NA,NA,NA,NA,undefined
