workerId,hitId,assignmentId,subject,studyid,exp_date,exp_start,exp_end,time_start,time_end,trial,type,reward_validity,answer,image_top,image_left,image_right,response,response_time,response_acc,volatility,practice
RWdqfTwB,3j6bhnx0vc5zv8hudcso2u6bq3dnka,35ldd5557ehv0auosdiqezd27cnmk2,RWdqfTwB,2020-0188,2020-05-21,17:30:12,18:08:09,NA,incomplete,0,filling,1,right,Blue_Circle_Stripes_4.jpg,Purple_Plus_Dots_4.jpg,Red_Triangle_Stripes_3.jpg,none,0,false,NA,true
RWdqfTwB,3j6bhnx0vc5zv8hudcso2u6bq3dnka,35ldd5557ehv0auosdiqezd27cnmk2,RWdqfTwB,2020-0188,2020-05-21,17:30:12,18:08:09,NA,incomplete,1,filling,1,left,Red_Circle_Chess_2.jpg,Blue_Triangle_Chess_1.jpg,Purple_Star_Stripes_2.jpg,left,1303.084999999497,true,NA,true
RWdqfTwB,3j6bhnx0vc5zv8hudcso2u6bq3dnka,35ldd5557ehv0auosdiqezd27cnmk2,RWdqfTwB,2020-0188,2020-05-21,17:30:12,18:08:09,NA,incomplete,2,filling,1,right,Purple_Triangle_Dots_3.jpg,Green_Star_Stripes_3.jpg,Red_Circle_Dots_1.jpg,right,960.1750000000466,true,NA,true
RWdqfTwB,3j6bhnx0vc5zv8hudcso2u6bq3dnka,35ldd5557ehv0auosdiqezd27cnmk2,RWdqfTwB,2020-0188,2020-05-21,17:30:12,18:08:09,NA,incomplete,3,filling,1,right,Blue_Star_Chess_3.jpg,Red_Plus_Dots_3.jpg,Purple_Circle_Chess_4.jpg,right,1181.0349999996834,true,NA,true
RWdqfTwB,3j6bhnx0vc5zv8hudcso2u6bq3dnka,35ldd5557ehv0auosdiqezd27cnmk2,RWdqfTwB,2020-0188,2020-05-21,17:30:12,18:08:09,NA,incomplete,4,filling,1,left,Red_Triangle_Dots_2.jpg,Green_Star_Dots_3.jpg,Purple_Plus_Grid_2.jpg,left,941.1149999997579,true,NA,true
RWdqfTwB,3j6bhnx0vc5zv8hudcso2u6bq3dnka,35ldd5557ehv0auosdiqezd27cnmk2,RWdqfTwB,2020-0188,2020-05-21,17:30:12,18:08:09,NA,incomplete,5,filling,1,right,Green_Plus_Grid_3.jpg,Purple_Circle_Dots_3.jpg,Red_Triangle_Grid_2.jpg,right,1016.6100000005681,true,NA,true
RWdqfTwB,3j6bhnx0vc5zv8hudcso2u6bq3dnka,35ldd5557ehv0auosdiqezd27cnmk2,RWdqfTwB,2020-0188,2020-05-21,17:30:12,18:08:09,NA,incomplete,6,filling,1,right,Blue_Plus_Dots_1.jpg,Green_Star_Chess_1.jpg,Red_Triangle_Dots_3.jpg,right,882.7450000008103,true,NA,true
RWdqfTwB,3j6bhnx0vc5zv8hudcso2u6bq3dnka,35ldd5557ehv0auosdiqezd27cnmk2,RWdqfTwB,2020-0188,2020-05-21,17:30:12,18:08:09,NA,incomplete,7,filling,1,right,Green_Plus_Stripes_1.jpg,Red_Circle_Chess_1.jpg,Purple_Triangle_Stripes_2.jpg,right,900.8099999993574,true,NA,true
RWdqfTwB,3j6bhnx0vc5zv8hudcso2u6bq3dnka,35ldd5557ehv0auosdiqezd27cnmk2,RWdqfTwB,2020-0188,2020-05-21,17:30:12,18:08:09,NA,incomplete,8,filling,1,right,Green_Star_Dots_2.jpg,Blue_Circle_Chess_2.jpg,Purple_Plus_Dots_1.jpg,right,901.1400000001304,true,NA,true
RWdqfTwB,3j6bhnx0vc5zv8hudcso2u6bq3dnka,35ldd5557ehv0auosdiqezd27cnmk2,RWdqfTwB,2020-0188,2020-05-21,17:30:12,18:08:09,NA,incomplete,9,filling,1,left,Purple_Triangle_Grid_2.jpg,Blue_Circle_Grid_3.jpg,Red_Plus_Chess_2.jpg,left,987.9799999997485,true,NA,true
RWdqfTwB,3j6bhnx0vc5zv8hudcso2u6bq3dnka,35ldd5557ehv0auosdiqezd27cnmk2,RWdqfTwB,2020-0188,2020-05-21,17:30:12,18:08:09,NA,incomplete,10,filling,1,right,Red_Circle_Grid_2.jpg,Purple_Triangle_Dots_2.jpg,Green_Plus_Grid_1.jpg,right,1045.680000001099,true,NA,true
RWdqfTwB,3j6bhnx0vc5zv8hudcso2u6bq3dnka,35ldd5557ehv0auosdiqezd27cnmk2,RWdqfTwB,2020-0188,2020-05-21,17:30:12,18:08:09,NA,incomplete,11,filling,1,left,Blue_Triangle_Dots_1.jpg,Red_Star_Dots_3.jpg,Green_Circle_Grid_1.jpg,left,973.2299999997485,true,NA,true
RWdqfTwB,3j6bhnx0vc5zv8hudcso2u6bq3dnka,35ldd5557ehv0auosdiqezd27cnmk2,RWdqfTwB,2020-0188,2020-05-21,17:30:12,18:08:09,NA,incomplete,12,filling,1,left,Red_Star_Stripes_1.jpg,Purple_Triangle_Stripes_4.jpg,Blue_Plus_Dots_1.jpg,left,966.9800000009127,true,NA,true
RWdqfTwB,3j6bhnx0vc5zv8hudcso2u6bq3dnka,35ldd5557ehv0auosdiqezd27cnmk2,RWdqfTwB,2020-0188,2020-05-21,17:30:12,18:08:09,NA,incomplete,13,filling,0,right,Blue_Plus_Stripes_2.jpg,Purple_Circle_Grid_2.jpg,Green_Star_Stripes_1.jpg,right,1120.4749999996275,true,NA,true
RWdqfTwB,3j6bhnx0vc5zv8hudcso2u6bq3dnka,35ldd5557ehv0auosdiqezd27cnmk2,RWdqfTwB,2020-0188,2020-05-21,17:30:12,18:08:09,NA,incomplete,14,filling,1,left,Purple_Triangle_Dots_1.jpg,Blue_Plus_Dots_3.jpg,Red_Star_Stripes_1.jpg,left,1237.9000000001397,true,NA,true
RWdqfTwB,3j6bhnx0vc5zv8hudcso2u6bq3dnka,35ldd5557ehv0auosdiqezd27cnmk2,RWdqfTwB,2020-0188,2020-05-21,17:30:12,18:08:09,NA,incomplete,15,filling,0,right,Red_Circle_Dots_2.jpg,Purple_Star_Stripes_2.jpg,Blue_Plus_Dots_1.jpg,right,1265.0799999991432,true,NA,true
RWdqfTwB,3j6bhnx0vc5zv8hudcso2u6bq3dnka,35ldd5557ehv0auosdiqezd27cnmk2,RWdqfTwB,2020-0188,2020-05-21,17:30:12,18:08:09,NA,incomplete,16,filling,1,left,Blue_Triangle_Stripes_2.jpg,Green_Plus_Stripes_3.jpg,Red_Circle_Dots_2.jpg,left,922.179999999702,true,NA,true
RWdqfTwB,3j6bhnx0vc5zv8hudcso2u6bq3dnka,35ldd5557ehv0auosdiqezd27cnmk2,RWdqfTwB,2020-0188,2020-05-21,17:30:12,18:08:09,NA,incomplete,17,filling,0,left,Blue_Circle_Grid_1.jpg,Purple_Plus_Grid_4.jpg,Red_Star_Dots_1.jpg,left,1015.8199999986682,true,NA,true
RWdqfTwB,3j6bhnx0vc5zv8hudcso2u6bq3dnka,35ldd5557ehv0auosdiqezd27cnmk2,RWdqfTwB,2020-0188,2020-05-21,17:30:12,18:08:09,NA,incomplete,18,filling,1,right,Red_Plus_Grid_3.jpg,Blue_Triangle_Stripes_3.jpg,Green_Circle_Grid_1.jpg,right,1312.9000000008382,true,NA,true
RWdqfTwB,3j6bhnx0vc5zv8hudcso2u6bq3dnka,35ldd5557ehv0auosdiqezd27cnmk2,RWdqfTwB,2020-0188,2020-05-21,17:30:12,18:08:09,NA,incomplete,19,filling,1,left,Blue_Star_Grid_4.jpg,Green_Triangle_Grid_1.jpg,Red_Plus_Stripes_4.jpg,left,1019.705000000773,true,NA,true
RWdqfTwB,3j6bhnx0vc5zv8hudcso2u6bq3dnka,35ldd5557ehv0auosdiqezd27cnmk2,RWdqfTwB,2020-0188,2020-05-21,17:30:12,18:08:09,NA,incomplete,20,number,1,right,Green_Circle_Grid_3.jpg,Purple_Star_Grid_1.jpg,Blue_Plus_Stripes_3.jpg,left,1150.2199999995064,false,NA,true
RWdqfTwB,3j6bhnx0vc5zv8hudcso2u6bq3dnka,35ldd5557ehv0auosdiqezd27cnmk2,RWdqfTwB,2020-0188,2020-05-21,17:30:12,18:08:09,NA,incomplete,21,number,1,right,Green_Plus_Grid_2.jpg,Purple_Circle_Grid_4.jpg,Blue_Triangle_Stripes_2.jpg,left,1268.1650000014342,false,NA,true
RWdqfTwB,3j6bhnx0vc5zv8hudcso2u6bq3dnka,35ldd5557ehv0auosdiqezd27cnmk2,RWdqfTwB,2020-0188,2020-05-21,17:30:12,18:08:09,NA,incomplete,22,number,1,left,Purple_Star_Chess_3.jpg,Blue_Triangle_Grid_3.jpg,Red_Plus_Chess_1.jpg,left,1475.414999999106,true,NA,true
RWdqfTwB,3j6bhnx0vc5zv8hudcso2u6bq3dnka,35ldd5557ehv0auosdiqezd27cnmk2,RWdqfTwB,2020-0188,2020-05-21,17:30:12,18:08:09,NA,incomplete,23,number,0,left,Blue_Star_Grid_2.jpg,Purple_Plus_Dots_2.jpg,Red_Triangle_Grid_1.jpg,left,739.8000000012107,true,NA,true
RWdqfTwB,3j6bhnx0vc5zv8hudcso2u6bq3dnka,35ldd5557ehv0auosdiqezd27cnmk2,RWdqfTwB,2020-0188,2020-05-21,17:30:12,18:08:09,NA,incomplete,24,number,0,right,Green_Circle_Dots_4.jpg,Blue_Triangle_Dots_3.jpg,Red_Plus_Grid_4.jpg,right,1049.5700000012293,true,NA,true
RWdqfTwB,3j6bhnx0vc5zv8hudcso2u6bq3dnka,35ldd5557ehv0auosdiqezd27cnmk2,RWdqfTwB,2020-0188,2020-05-21,17:30:12,18:08:09,NA,incomplete,25,number,1,right,Purple_Circle_Stripes_1.jpg,Red_Triangle_Stripes_2.jpg,Green_Star_Chess_1.jpg,right,1336.1299999996554,true,NA,true
RWdqfTwB,3j6bhnx0vc5zv8hudcso2u6bq3dnka,35ldd5557ehv0auosdiqezd27cnmk2,RWdqfTwB,2020-0188,2020-05-21,17:30:12,18:08:09,NA,incomplete,26,number,1,right,Blue_Star_Stripes_4.jpg,Green_Plus_Stripes_2.jpg,Purple_Triangle_Grid_4.jpg,right,797.8250000015832,true,NA,true
RWdqfTwB,3j6bhnx0vc5zv8hudcso2u6bq3dnka,35ldd5557ehv0auosdiqezd27cnmk2,RWdqfTwB,2020-0188,2020-05-21,17:30:12,18:08:09,NA,incomplete,27,number,0,left,Blue_Triangle_Grid_1.jpg,Green_Plus_Stripes_1.jpg,Purple_Star_Grid_4.jpg,left,607.9500000015832,true,NA,true
RWdqfTwB,3j6bhnx0vc5zv8hudcso2u6bq3dnka,35ldd5557ehv0auosdiqezd27cnmk2,RWdqfTwB,2020-0188,2020-05-21,17:30:12,18:08:09,NA,incomplete,28,number,1,right,Green_Circle_Grid_4.jpg,Purple_Triangle_Grid_1.jpg,Blue_Plus_Chess_4.jpg,right,876.8749999997672,true,NA,true
RWdqfTwB,3j6bhnx0vc5zv8hudcso2u6bq3dnka,35ldd5557ehv0auosdiqezd27cnmk2,RWdqfTwB,2020-0188,2020-05-21,17:30:12,18:08:09,NA,incomplete,29,number,1,right,Purple_Triangle_Dots_1.jpg,Blue_Circle_Dots_3.jpg,Green_Star_Chess_1.jpg,right,823.3900000012945,true,NA,true
RWdqfTwB,3j6bhnx0vc5zv8hudcso2u6bq3dnka,35ldd5557ehv0auosdiqezd27cnmk2,RWdqfTwB,2020-0188,2020-05-21,17:30:12,18:08:09,NA,incomplete,30,number,1,right,Blue_Star_Chess_4.jpg,Red_Triangle_Chess_1.jpg,Green_Circle_Stripes_4.jpg,right,850.3199999993667,true,NA,true
RWdqfTwB,3j6bhnx0vc5zv8hudcso2u6bq3dnka,35ldd5557ehv0auosdiqezd27cnmk2,RWdqfTwB,2020-0188,2020-05-21,17:30:12,18:08:09,NA,incomplete,31,number,0,right,Blue_Triangle_Dots_3.jpg,Green_Circle_Dots_4.jpg,Purple_Plus_Chess_3.jpg,right,964.9049999988638,true,NA,true
RWdqfTwB,3j6bhnx0vc5zv8hudcso2u6bq3dnka,35ldd5557ehv0auosdiqezd27cnmk2,RWdqfTwB,2020-0188,2020-05-21,17:30:12,18:08:09,NA,incomplete,32,number,0,left,Blue_Triangle_Stripes_2.jpg,Purple_Star_Dots_2.jpg,Green_Circle_Stripes_1.jpg,left,933.3349999997299,true,NA,true
RWdqfTwB,3j6bhnx0vc5zv8hudcso2u6bq3dnka,35ldd5557ehv0auosdiqezd27cnmk2,RWdqfTwB,2020-0188,2020-05-21,17:30:12,18:08:09,NA,incomplete,33,number,1,left,Purple_Triangle_Grid_4.jpg,Red_Star_Stripes_4.jpg,Blue_Circle_Grid_1.jpg,left,1115.7150000017136,true,NA,true
RWdqfTwB,3j6bhnx0vc5zv8hudcso2u6bq3dnka,35ldd5557ehv0auosdiqezd27cnmk2,RWdqfTwB,2020-0188,2020-05-21,17:30:12,18:08:09,NA,incomplete,34,number,1,right,Green_Triangle_Stripes_2.jpg,Purple_Star_Stripes_1.jpg,Red_Plus_Dots_2.jpg,right,937.1350000000093,true,NA,true
RWdqfTwB,3j6bhnx0vc5zv8hudcso2u6bq3dnka,35ldd5557ehv0auosdiqezd27cnmk2,RWdqfTwB,2020-0188,2020-05-21,17:30:12,18:08:09,NA,incomplete,35,number,1,right,Red_Star_Stripes_3.jpg,Purple_Triangle_Stripes_4.jpg,Blue_Plus_Grid_3.jpg,right,784.0500000002794,true,NA,true
RWdqfTwB,3j6bhnx0vc5zv8hudcso2u6bq3dnka,35ldd5557ehv0auosdiqezd27cnmk2,RWdqfTwB,2020-0188,2020-05-21,17:30:12,18:08:09,NA,incomplete,36,number,1,right,Green_Circle_Dots_1.jpg,Red_Triangle_Dots_3.jpg,Purple_Star_Grid_1.jpg,right,711.3800000005867,true,NA,true
RWdqfTwB,3j6bhnx0vc5zv8hudcso2u6bq3dnka,35ldd5557ehv0auosdiqezd27cnmk2,RWdqfTwB,2020-0188,2020-05-21,17:30:12,18:08:09,NA,incomplete,37,number,1,left,Purple_Triangle_Chess_1.jpg,Red_Star_Grid_1.jpg,Green_Plus_Chess_3.jpg,left,615.2199999995064,true,NA,true
RWdqfTwB,3j6bhnx0vc5zv8hudcso2u6bq3dnka,35ldd5557ehv0auosdiqezd27cnmk2,RWdqfTwB,2020-0188,2020-05-21,17:30:12,18:08:09,NA,incomplete,38,number,1,left,Red_Triangle_Dots_2.jpg,Purple_Plus_Stripes_2.jpg,Blue_Star_Dots_1.jpg,left,703.1649999991059,true,NA,true
RWdqfTwB,3j6bhnx0vc5zv8hudcso2u6bq3dnka,35ldd5557ehv0auosdiqezd27cnmk2,RWdqfTwB,2020-0188,2020-05-21,17:30:12,18:08:09,NA,incomplete,39,number,1,left,Purple_Triangle_Stripes_1.jpg,Green_Star_Dots_1.jpg,Blue_Circle_Stripes_4.jpg,left,573.5300000014249,true,NA,true
RWdqfTwB,3j6bhnx0vc5zv8hudcso2u6bq3dnka,35ldd5557ehv0auosdiqezd27cnmk2,RWdqfTwB,2020-0188,2020-05-21,17:30:12,18:08:09,NA,incomplete,0,filling,1,left,Red_Plus_Chess_1.jpg,Blue_Triangle_Chess_3.jpg,Purple_Star_Dots_1.jpg,right,1147.2599999997765,false,high,false
RWdqfTwB,3j6bhnx0vc5zv8hudcso2u6bq3dnka,35ldd5557ehv0auosdiqezd27cnmk2,RWdqfTwB,2020-0188,2020-05-21,17:30:12,18:08:09,NA,incomplete,1,filling,1,right,Red_Star_Chess_4.jpg,Purple_Circle_Dots_4.jpg,Blue_Triangle_Chess_1.jpg,left,851.0550000008661,false,high,false
RWdqfTwB,3j6bhnx0vc5zv8hudcso2u6bq3dnka,35ldd5557ehv0auosdiqezd27cnmk2,RWdqfTwB,2020-0188,2020-05-21,17:30:12,18:08:09,NA,incomplete,2,filling,1,left,Blue_Circle_Stripes_1.jpg,Red_Star_Stripes_4.jpg,Purple_Triangle_Grid_1.jpg,left,1354.4999999995343,true,high,false
RWdqfTwB,3j6bhnx0vc5zv8hudcso2u6bq3dnka,35ldd5557ehv0auosdiqezd27cnmk2,RWdqfTwB,2020-0188,2020-05-21,17:30:12,18:08:09,NA,incomplete,3,filling,0,right,Green_Plus_Stripes_2.jpg,Red_Star_Chess_2.jpg,Blue_Circle_Stripes_3.jpg,right,1113.0449999999255,true,high,false
RWdqfTwB,3j6bhnx0vc5zv8hudcso2u6bq3dnka,35ldd5557ehv0auosdiqezd27cnmk2,RWdqfTwB,2020-0188,2020-05-21,17:30:12,18:08:09,NA,incomplete,4,filling,1,right,Red_Triangle_Grid_1.jpg,Blue_Plus_Chess_1.jpg,Green_Star_Grid_4.jpg,left,1612.4649999982212,false,high,false
RWdqfTwB,3j6bhnx0vc5zv8hudcso2u6bq3dnka,35ldd5557ehv0auosdiqezd27cnmk2,RWdqfTwB,2020-0188,2020-05-21,17:30:12,18:08:09,NA,incomplete,5,filling,1,right,Red_Star_Stripes_4.jpg,Purple_Plus_Chess_4.jpg,Blue_Triangle_Stripes_1.jpg,right,1297.8199999998324,true,high,false
RWdqfTwB,3j6bhnx0vc5zv8hudcso2u6bq3dnka,35ldd5557ehv0auosdiqezd27cnmk2,RWdqfTwB,2020-0188,2020-05-21,17:30:12,18:08:09,NA,incomplete,6,filling,1,right,Red_Triangle_Chess_1.jpg,Purple_Plus_Stripes_1.jpg,Green_Star_Chess_4.jpg,right,1344.100000000326,true,high,false
RWdqfTwB,3j6bhnx0vc5zv8hudcso2u6bq3dnka,35ldd5557ehv0auosdiqezd27cnmk2,RWdqfTwB,2020-0188,2020-05-21,17:30:12,18:08:09,NA,incomplete,7,filling,1,right,Purple_Plus_Stripes_2.jpg,Green_Circle_Chess_2.jpg,Red_Star_Stripes_1.jpg,right,1701.780000001192,true,high,false
RWdqfTwB,3j6bhnx0vc5zv8hudcso2u6bq3dnka,35ldd5557ehv0auosdiqezd27cnmk2,RWdqfTwB,2020-0188,2020-05-21,17:30:12,18:08:09,NA,incomplete,8,filling,1,left,Red_Plus_Dots_4.jpg,Green_Triangle_Dots_1.jpg,Purple_Star_Stripes_4.jpg,left,1362.9599999985658,true,high,false
RWdqfTwB,3j6bhnx0vc5zv8hudcso2u6bq3dnka,35ldd5557ehv0auosdiqezd27cnmk2,RWdqfTwB,2020-0188,2020-05-21,17:30:12,18:08:09,NA,incomplete,9,filling,1,right,Purple_Plus_Grid_1.jpg,Blue_Triangle_Chess_1.jpg,Green_Star_Grid_3.jpg,right,1099.9200000003912,true,high,false
RWdqfTwB,3j6bhnx0vc5zv8hudcso2u6bq3dnka,35ldd5557ehv0auosdiqezd27cnmk2,RWdqfTwB,2020-0188,2020-05-21,17:30:12,18:08:09,NA,incomplete,10,number,0,right,Purple_Star_Stripes_2.jpg,Green_Circle_Stripes_3.jpg,Blue_Plus_Grid_2.jpg,left,942.8399999996182,false,high,false
RWdqfTwB,3j6bhnx0vc5zv8hudcso2u6bq3dnka,35ldd5557ehv0auosdiqezd27cnmk2,RWdqfTwB,2020-0188,2020-05-21,17:30:12,18:08:09,NA,incomplete,11,number,1,left,Green_Plus_Dots_4.jpg,Purple_Triangle_Grid_4.jpg,Blue_Star_Dots_3.jpg,right,1133.3400000003166,false,high,false
RWdqfTwB,3j6bhnx0vc5zv8hudcso2u6bq3dnka,35ldd5557ehv0auosdiqezd27cnmk2,RWdqfTwB,2020-0188,2020-05-21,17:30:12,18:08:09,NA,incomplete,12,number,1,right,Blue_Plus_Chess_2.jpg,Purple_Star_Chess_4.jpg,Green_Circle_Stripes_2.jpg,left,1600.3000000000466,false,high,false
RWdqfTwB,3j6bhnx0vc5zv8hudcso2u6bq3dnka,35ldd5557ehv0auosdiqezd27cnmk2,RWdqfTwB,2020-0188,2020-05-21,17:30:12,18:08:09,NA,incomplete,13,number,1,right,Green_Circle_Stripes_3.jpg,Red_Triangle_Stripes_4.jpg,Purple_Star_Chess_3.jpg,left,1433.0799999989104,false,high,false
RWdqfTwB,3j6bhnx0vc5zv8hudcso2u6bq3dnka,35ldd5557ehv0auosdiqezd27cnmk2,RWdqfTwB,2020-0188,2020-05-21,17:30:12,18:08:09,NA,incomplete,14,number,1,right,Red_Plus_Stripes_2.jpg,Green_Circle_Stripes_1.jpg,Purple_Star_Chess_2.jpg,none,0,false,high,false
RWdqfTwB,3j6bhnx0vc5zv8hudcso2u6bq3dnka,35ldd5557ehv0auosdiqezd27cnmk2,RWdqfTwB,2020-0188,2020-05-21,17:30:12,18:08:09,NA,incomplete,15,number,1,left,Blue_Triangle_Chess_1.jpg,Red_Circle_Stripes_1.jpg,Green_Plus_Chess_2.jpg,right,1769.6450000004843,false,high,false
RWdqfTwB,3j6bhnx0vc5zv8hudcso2u6bq3dnka,35ldd5557ehv0auosdiqezd27cnmk2,RWdqfTwB,2020-0188,2020-05-21,17:30:12,18:08:09,NA,incomplete,16,number,1,right,Green_Circle_Stripes_4.jpg,Red_Triangle_Stripes_1.jpg,Blue_Plus_Chess_4.jpg,left,1966.440000000177,false,high,false
RWdqfTwB,3j6bhnx0vc5zv8hudcso2u6bq3dnka,35ldd5557ehv0auosdiqezd27cnmk2,RWdqfTwB,2020-0188,2020-05-21,17:30:12,18:08:09,NA,incomplete,17,number,1,right,Red_Star_Grid_4.jpg,Blue_Plus_Grid_3.jpg,Green_Triangle_Dots_4.jpg,none,0,false,high,false
RWdqfTwB,3j6bhnx0vc5zv8hudcso2u6bq3dnka,35ldd5557ehv0auosdiqezd27cnmk2,RWdqfTwB,2020-0188,2020-05-21,17:30:12,18:08:09,NA,incomplete,18,number,0,right,Blue_Circle_Grid_2.jpg,Purple_Triangle_Grid_3.jpg,Red_Plus_Chess_2.jpg,right,1745.9550000003073,true,high,false
RWdqfTwB,3j6bhnx0vc5zv8hudcso2u6bq3dnka,35ldd5557ehv0auosdiqezd27cnmk2,RWdqfTwB,2020-0188,2020-05-21,17:30:12,18:08:09,NA,incomplete,19,number,1,left,Green_Plus_Dots_1.jpg,Blue_Circle_Grid_1.jpg,Red_Triangle_Dots_4.jpg,left,1351.9500000001863,true,high,false
RWdqfTwB,3j6bhnx0vc5zv8hudcso2u6bq3dnka,35ldd5557ehv0auosdiqezd27cnmk2,RWdqfTwB,2020-0188,2020-05-21,17:30:12,18:08:09,NA,incomplete,20,filling,1,right,Red_Triangle_Grid_2.jpg,Green_Circle_Stripes_2.jpg,Purple_Plus_Grid_4.jpg,right,1214.6400000001304,true,high,false
RWdqfTwB,3j6bhnx0vc5zv8hudcso2u6bq3dnka,35ldd5557ehv0auosdiqezd27cnmk2,RWdqfTwB,2020-0188,2020-05-21,17:30:12,18:08:09,NA,incomplete,21,filling,1,left,Green_Circle_Dots_4.jpg,Red_Plus_Dots_2.jpg,Purple_Star_Grid_4.jpg,left,925.4799999997485,true,high,false
RWdqfTwB,3j6bhnx0vc5zv8hudcso2u6bq3dnka,35ldd5557ehv0auosdiqezd27cnmk2,RWdqfTwB,2020-0188,2020-05-21,17:30:12,18:08:09,NA,incomplete,22,filling,1,right,Green_Triangle_Stripes_4.jpg,Blue_Star_Dots_4.jpg,Red_Circle_Stripes_2.jpg,right,987.0250000003725,true,high,false
RWdqfTwB,3j6bhnx0vc5zv8hudcso2u6bq3dnka,35ldd5557ehv0auosdiqezd27cnmk2,RWdqfTwB,2020-0188,2020-05-21,17:30:12,18:08:09,NA,incomplete,23,filling,1,left,Red_Triangle_Dots_2.jpg,Blue_Plus_Dots_1.jpg,Purple_Circle_Chess_2.jpg,left,985.9599999999627,true,high,false
RWdqfTwB,3j6bhnx0vc5zv8hudcso2u6bq3dnka,35ldd5557ehv0auosdiqezd27cnmk2,RWdqfTwB,2020-0188,2020-05-21,17:30:12,18:08:09,NA,incomplete,24,filling,1,left,Green_Plus_Dots_3.jpg,Red_Triangle_Dots_1.jpg,Purple_Star_Stripes_3.jpg,left,996.6600000006147,true,high,false
RWdqfTwB,3j6bhnx0vc5zv8hudcso2u6bq3dnka,35ldd5557ehv0auosdiqezd27cnmk2,RWdqfTwB,2020-0188,2020-05-21,17:30:12,18:08:09,NA,incomplete,25,filling,0,right,Red_Plus_Grid_4.jpg,Blue_Circle_Stripes_4.jpg,Green_Star_Grid_1.jpg,right,977.7600000016391,true,high,false
RWdqfTwB,3j6bhnx0vc5zv8hudcso2u6bq3dnka,35ldd5557ehv0auosdiqezd27cnmk2,RWdqfTwB,2020-0188,2020-05-21,17:30:12,18:08:09,NA,incomplete,26,filling,1,left,Green_Plus_Chess_1.jpg,Blue_Triangle_Chess_3.jpg,Purple_Star_Grid_1.jpg,left,874.9949999982491,true,high,false
RWdqfTwB,3j6bhnx0vc5zv8hudcso2u6bq3dnka,35ldd5557ehv0auosdiqezd27cnmk2,RWdqfTwB,2020-0188,2020-05-21,17:30:12,18:08:09,NA,incomplete,27,filling,1,left,Blue_Circle_Dots_1.jpg,Red_Plus_Dots_4.jpg,Purple_Triangle_Chess_1.jpg,left,1086.3649999990594,true,high,false
RWdqfTwB,3j6bhnx0vc5zv8hudcso2u6bq3dnka,35ldd5557ehv0auosdiqezd27cnmk2,RWdqfTwB,2020-0188,2020-05-21,17:30:12,18:08:09,NA,incomplete,28,filling,1,right,Red_Triangle_Chess_1.jpg,Green_Plus_Grid_1.jpg,Blue_Circle_Chess_3.jpg,right,1000.7350000012666,true,high,false
RWdqfTwB,3j6bhnx0vc5zv8hudcso2u6bq3dnka,35ldd5557ehv0auosdiqezd27cnmk2,RWdqfTwB,2020-0188,2020-05-21,17:30:12,18:08:09,NA,incomplete,29,filling,1,right,Red_Star_Dots_3.jpg,Green_Triangle_Chess_3.jpg,Blue_Circle_Dots_2.jpg,right,975.1250000006985,true,high,false
RWdqfTwB,3j6bhnx0vc5zv8hudcso2u6bq3dnka,35ldd5557ehv0auosdiqezd27cnmk2,RWdqfTwB,2020-0188,2020-05-21,17:30:12,18:08:09,NA,incomplete,30,number,1,right,Blue_Star_Grid_3.jpg,Green_Circle_Grid_2.jpg,Red_Plus_Dots_3.jpg,left,888.3300000014715,false,high,false
RWdqfTwB,3j6bhnx0vc5zv8hudcso2u6bq3dnka,35ldd5557ehv0auosdiqezd27cnmk2,RWdqfTwB,2020-0188,2020-05-21,17:30:12,18:08:09,NA,incomplete,31,number,1,right,Green_Star_Chess_4.jpg,Purple_Circle_Chess_3.jpg,Red_Triangle_Stripes_4.jpg,left,1214.6350000002421,false,high,false
RWdqfTwB,3j6bhnx0vc5zv8hudcso2u6bq3dnka,35ldd5557ehv0auosdiqezd27cnmk2,RWdqfTwB,2020-0188,2020-05-21,17:30:12,18:08:09,NA,incomplete,32,number,0,right,Red_Plus_Chess_1.jpg,Blue_Triangle_Chess_2.jpg,Purple_Star_Stripes_1.jpg,left,1142.1850000007544,false,high,false
RWdqfTwB,3j6bhnx0vc5zv8hudcso2u6bq3dnka,35ldd5557ehv0auosdiqezd27cnmk2,RWdqfTwB,2020-0188,2020-05-21,17:30:12,18:08:09,NA,incomplete,33,number,1,right,Red_Triangle_Chess_3.jpg,Purple_Star_Chess_2.jpg,Blue_Circle_Grid_3.jpg,left,1115.7099999999627,false,high,false
RWdqfTwB,3j6bhnx0vc5zv8hudcso2u6bq3dnka,35ldd5557ehv0auosdiqezd27cnmk2,RWdqfTwB,2020-0188,2020-05-21,17:30:12,18:08:09,NA,incomplete,34,number,1,right,Red_Star_Dots_3.jpg,Green_Plus_Dots_1.jpg,Blue_Triangle_Grid_3.jpg,left,1610.8450000011362,false,high,false
RWdqfTwB,3j6bhnx0vc5zv8hudcso2u6bq3dnka,35ldd5557ehv0auosdiqezd27cnmk2,RWdqfTwB,2020-0188,2020-05-21,17:30:12,18:08:09,NA,incomplete,35,number,0,right,Purple_Triangle_Stripes_3.jpg,Blue_Plus_Stripes_4.jpg,Red_Circle_Dots_3.jpg,left,1541.119999999879,false,high,false
RWdqfTwB,3j6bhnx0vc5zv8hudcso2u6bq3dnka,35ldd5557ehv0auosdiqezd27cnmk2,RWdqfTwB,2020-0188,2020-05-21,17:30:12,18:08:09,NA,incomplete,36,number,0,left,Blue_Circle_Chess_1.jpg,Purple_Plus_Stripes_1.jpg,Green_Triangle_Chess_3.jpg,right,999.4850000003353,false,high,false
RWdqfTwB,3j6bhnx0vc5zv8hudcso2u6bq3dnka,35ldd5557ehv0auosdiqezd27cnmk2,RWdqfTwB,2020-0188,2020-05-21,17:30:12,18:08:09,NA,incomplete,37,number,1,right,Blue_Plus_Dots_3.jpg,Red_Circle_Dots_1.jpg,Green_Triangle_Grid_3.jpg,left,823.0400000012014,false,high,false
RWdqfTwB,3j6bhnx0vc5zv8hudcso2u6bq3dnka,35ldd5557ehv0auosdiqezd27cnmk2,RWdqfTwB,2020-0188,2020-05-21,17:30:12,18:08:09,NA,incomplete,38,number,0,right,Purple_Plus_Stripes_2.jpg,Green_Circle_Stripes_4.jpg,Red_Star_Grid_2.jpg,left,1450.0000000006985,false,high,false
RWdqfTwB,3j6bhnx0vc5zv8hudcso2u6bq3dnka,35ldd5557ehv0auosdiqezd27cnmk2,RWdqfTwB,2020-0188,2020-05-21,17:30:12,18:08:09,NA,incomplete,39,number,1,left,Green_Star_Grid_1.jpg,Purple_Circle_Stripes_1.jpg,Red_Triangle_Grid_2.jpg,right,915.3349999997299,false,high,false
RWdqfTwB,3j6bhnx0vc5zv8hudcso2u6bq3dnka,35ldd5557ehv0auosdiqezd27cnmk2,RWdqfTwB,2020-0188,2020-05-21,17:30:12,18:08:09,NA,incomplete,40,filling,1,right,Purple_Plus_Stripes_3.jpg,Blue_Star_Chess_3.jpg,Green_Circle_Stripes_2.jpg,right,921.6250000009313,true,high,false
RWdqfTwB,3j6bhnx0vc5zv8hudcso2u6bq3dnka,35ldd5557ehv0auosdiqezd27cnmk2,RWdqfTwB,2020-0188,2020-05-21,17:30:12,18:08:09,NA,incomplete,41,filling,1,right,Green_Plus_Stripes_3.jpg,Red_Star_Dots_3.jpg,Blue_Triangle_Stripes_2.jpg,right,979.0000000011642,true,high,false
RWdqfTwB,3j6bhnx0vc5zv8hudcso2u6bq3dnka,35ldd5557ehv0auosdiqezd27cnmk2,RWdqfTwB,2020-0188,2020-05-21,17:30:12,18:08:09,NA,incomplete,42,filling,1,right,Purple_Circle_Grid_3.jpg,Green_Star_Stripes_3.jpg,Blue_Triangle_Grid_1.jpg,right,803.1999999985565,true,high,false
RWdqfTwB,3j6bhnx0vc5zv8hudcso2u6bq3dnka,35ldd5557ehv0auosdiqezd27cnmk2,RWdqfTwB,2020-0188,2020-05-21,17:30:12,18:08:09,NA,incomplete,43,filling,0,right,Blue_Plus_Dots_3.jpg,Green_Triangle_Stripes_3.jpg,Red_Circle_Dots_1.jpg,right,889.1500000008382,true,high,false
RWdqfTwB,3j6bhnx0vc5zv8hudcso2u6bq3dnka,35ldd5557ehv0auosdiqezd27cnmk2,RWdqfTwB,2020-0188,2020-05-21,17:30:12,18:08:09,NA,incomplete,44,filling,0,left,Red_Plus_Chess_4.jpg,Purple_Star_Chess_1.jpg,Green_Circle_Grid_4.jpg,left,977.1149999997579,true,high,false
RWdqfTwB,3j6bhnx0vc5zv8hudcso2u6bq3dnka,35ldd5557ehv0auosdiqezd27cnmk2,RWdqfTwB,2020-0188,2020-05-21,17:30:12,18:08:09,NA,incomplete,45,filling,1,right,Red_Star_Dots_4.jpg,Blue_Triangle_Stripes_4.jpg,Green_Circle_Dots_1.jpg,right,1051.7500000004657,true,high,false
RWdqfTwB,3j6bhnx0vc5zv8hudcso2u6bq3dnka,35ldd5557ehv0auosdiqezd27cnmk2,RWdqfTwB,2020-0188,2020-05-21,17:30:12,18:08:09,NA,incomplete,46,filling,1,left,Blue_Triangle_Grid_3.jpg,Purple_Star_Grid_4.jpg,Red_Circle_Dots_3.jpg,left,879.3000000005122,true,high,false
RWdqfTwB,3j6bhnx0vc5zv8hudcso2u6bq3dnka,35ldd5557ehv0auosdiqezd27cnmk2,RWdqfTwB,2020-0188,2020-05-21,17:30:12,18:08:09,NA,incomplete,47,filling,1,left,Green_Star_Dots_1.jpg,Blue_Plus_Dots_4.jpg,Purple_Circle_Stripes_1.jpg,left,923.4099999992177,true,high,false
RWdqfTwB,3j6bhnx0vc5zv8hudcso2u6bq3dnka,35ldd5557ehv0auosdiqezd27cnmk2,RWdqfTwB,2020-0188,2020-05-21,17:30:12,18:08:09,NA,incomplete,48,filling,1,right,Green_Star_Dots_4.jpg,Purple_Circle_Chess_4.jpg,Blue_Triangle_Dots_1.jpg,right,822.8849999995437,true,high,false
RWdqfTwB,3j6bhnx0vc5zv8hudcso2u6bq3dnka,35ldd5557ehv0auosdiqezd27cnmk2,RWdqfTwB,2020-0188,2020-05-21,17:30:12,18:08:09,NA,incomplete,49,filling,1,right,Purple_Triangle_Dots_4.jpg,Green_Plus_Stripes_4.jpg,Red_Circle_Dots_3.jpg,right,911.7150000003166,true,high,false
RWdqfTwB,3j6bhnx0vc5zv8hudcso2u6bq3dnka,35ldd5557ehv0auosdiqezd27cnmk2,RWdqfTwB,2020-0188,2020-05-21,17:30:12,18:08:09,NA,incomplete,50,number,0,left,Red_Circle_Chess_2.jpg,Purple_Star_Grid_2.jpg,Blue_Triangle_Chess_3.jpg,right,1026.4000000008382,false,high,false
RWdqfTwB,3j6bhnx0vc5zv8hudcso2u6bq3dnka,35ldd5557ehv0auosdiqezd27cnmk2,RWdqfTwB,2020-0188,2020-05-21,17:30:12,18:08:09,NA,incomplete,51,number,1,right,Blue_Star_Dots_1.jpg,Purple_Circle_Dots_4.jpg,Red_Plus_Stripes_1.jpg,left,846.6250000002328,false,high,false
RWdqfTwB,3j6bhnx0vc5zv8hudcso2u6bq3dnka,35ldd5557ehv0auosdiqezd27cnmk2,RWdqfTwB,2020-0188,2020-05-21,17:30:12,18:08:09,NA,incomplete,52,number,1,left,Green_Plus_Dots_1.jpg,Blue_Circle_Grid_1.jpg,Red_Triangle_Dots_4.jpg,right,964.624999998603,false,high,false
RWdqfTwB,3j6bhnx0vc5zv8hudcso2u6bq3dnka,35ldd5557ehv0auosdiqezd27cnmk2,RWdqfTwB,2020-0188,2020-05-21,17:30:12,18:08:09,NA,incomplete,53,number,1,left,Green_Plus_Stripes_1.jpg,Red_Circle_Chess_1.jpg,Blue_Triangle_Stripes_4.jpg,right,969.8050000006333,false,high,false
RWdqfTwB,3j6bhnx0vc5zv8hudcso2u6bq3dnka,35ldd5557ehv0auosdiqezd27cnmk2,RWdqfTwB,2020-0188,2020-05-21,17:30:12,18:08:09,NA,incomplete,54,number,1,left,Red_Star_Grid_3.jpg,Green_Circle_Stripes_3.jpg,Blue_Plus_Grid_2.jpg,right,1370.865000000922,false,high,false
RWdqfTwB,3j6bhnx0vc5zv8hudcso2u6bq3dnka,35ldd5557ehv0auosdiqezd27cnmk2,RWdqfTwB,2020-0188,2020-05-21,17:30:12,18:08:09,NA,incomplete,55,number,1,right,Blue_Circle_Stripes_3.jpg,Purple_Triangle_Stripes_2.jpg,Green_Plus_Dots_3.jpg,left,889.6899999999441,false,high,false
RWdqfTwB,3j6bhnx0vc5zv8hudcso2u6bq3dnka,35ldd5557ehv0auosdiqezd27cnmk2,RWdqfTwB,2020-0188,2020-05-21,17:30:12,18:08:09,NA,incomplete,56,number,0,left,Red_Star_Dots_4.jpg,Blue_Circle_Chess_4.jpg,Green_Triangle_Dots_1.jpg,left,792.9350000014529,true,high,false
RWdqfTwB,3j6bhnx0vc5zv8hudcso2u6bq3dnka,35ldd5557ehv0auosdiqezd27cnmk2,RWdqfTwB,2020-0188,2020-05-21,17:30:12,18:08:09,NA,incomplete,57,number,1,right,Blue_Plus_Chess_3.jpg,Red_Circle_Chess_2.jpg,Green_Star_Dots_3.jpg,left,1089.0949999992736,false,high,false
RWdqfTwB,3j6bhnx0vc5zv8hudcso2u6bq3dnka,35ldd5557ehv0auosdiqezd27cnmk2,RWdqfTwB,2020-0188,2020-05-21,17:30:12,18:08:09,NA,incomplete,58,number,1,right,Purple_Triangle_Grid_2.jpg,Blue_Circle_Grid_3.jpg,Green_Star_Stripes_2.jpg,right,842.3100000000559,true,high,false
RWdqfTwB,3j6bhnx0vc5zv8hudcso2u6bq3dnka,35ldd5557ehv0auosdiqezd27cnmk2,RWdqfTwB,2020-0188,2020-05-21,17:30:12,18:08:09,NA,incomplete,59,number,1,right,Blue_Triangle_Stripes_4.jpg,Purple_Star_Stripes_3.jpg,Green_Circle_Grid_4.jpg,right,966.970000001369,true,high,false
RWdqfTwB,3j6bhnx0vc5zv8hudcso2u6bq3dnka,35ldd5557ehv0auosdiqezd27cnmk2,RWdqfTwB,2020-0188,2020-05-21,17:30:12,18:08:09,NA,incomplete,60,filling,1,left,Blue_Plus_Grid_4.jpg,Purple_Star_Grid_2.jpg,Green_Triangle_Chess_4.jpg,right,1125.985000000568,false,high,false
RWdqfTwB,3j6bhnx0vc5zv8hudcso2u6bq3dnka,35ldd5557ehv0auosdiqezd27cnmk2,RWdqfTwB,2020-0188,2020-05-21,17:30:12,18:08:09,NA,incomplete,61,filling,1,left,Purple_Circle_Dots_4.jpg,Red_Plus_Dots_2.jpg,Green_Triangle_Chess_4.jpg,right,956.6699999996927,false,high,false
RWdqfTwB,3j6bhnx0vc5zv8hudcso2u6bq3dnka,35ldd5557ehv0auosdiqezd27cnmk2,RWdqfTwB,2020-0188,2020-05-21,17:30:12,18:08:09,NA,incomplete,62,filling,1,left,Blue_Triangle_Chess_1.jpg,Red_Circle_Chess_2.jpg,Purple_Plus_Dots_1.jpg,right,1001.6999999987893,false,high,false
RWdqfTwB,3j6bhnx0vc5zv8hudcso2u6bq3dnka,35ldd5557ehv0auosdiqezd27cnmk2,RWdqfTwB,2020-0188,2020-05-21,17:30:12,18:08:09,NA,incomplete,63,filling,1,right,Purple_Triangle_Grid_3.jpg,Green_Plus_Stripes_3.jpg,Blue_Circle_Grid_1.jpg,right,1399.5749999994878,true,high,false
RWdqfTwB,3j6bhnx0vc5zv8hudcso2u6bq3dnka,35ldd5557ehv0auosdiqezd27cnmk2,RWdqfTwB,2020-0188,2020-05-21,17:30:12,18:08:09,NA,incomplete,64,filling,1,left,Purple_Triangle_Stripes_3.jpg,Blue_Circle_Stripes_2.jpg,Green_Star_Chess_3.jpg,left,812.3549999999814,true,high,false
RWdqfTwB,3j6bhnx0vc5zv8hudcso2u6bq3dnka,35ldd5557ehv0auosdiqezd27cnmk2,RWdqfTwB,2020-0188,2020-05-21,17:30:12,18:08:09,NA,incomplete,65,filling,0,right,Purple_Triangle_Stripes_1.jpg,Blue_Circle_Grid_1.jpg,Green_Plus_Stripes_4.jpg,right,927.8299999986775,true,high,false
RWdqfTwB,3j6bhnx0vc5zv8hudcso2u6bq3dnka,35ldd5557ehv0auosdiqezd27cnmk2,RWdqfTwB,2020-0188,2020-05-21,17:30:12,18:08:09,NA,incomplete,66,filling,0,left,Red_Triangle_Grid_2.jpg,Purple_Plus_Grid_1.jpg,Green_Circle_Stripes_2.jpg,left,900.5399999986403,true,high,false
RWdqfTwB,3j6bhnx0vc5zv8hudcso2u6bq3dnka,35ldd5557ehv0auosdiqezd27cnmk2,RWdqfTwB,2020-0188,2020-05-21,17:30:12,18:08:09,NA,incomplete,67,filling,1,left,Blue_Star_Stripes_4.jpg,Red_Circle_Stripes_2.jpg,Green_Plus_Dots_4.jpg,left,1408.4599999987986,true,high,false
RWdqfTwB,3j6bhnx0vc5zv8hudcso2u6bq3dnka,35ldd5557ehv0auosdiqezd27cnmk2,RWdqfTwB,2020-0188,2020-05-21,17:30:12,18:08:09,NA,incomplete,68,filling,1,left,Blue_Circle_Grid_3.jpg,Red_Plus_Grid_4.jpg,Purple_Triangle_Dots_3.jpg,left,980.3099999988917,true,high,false
RWdqfTwB,3j6bhnx0vc5zv8hudcso2u6bq3dnka,35ldd5557ehv0auosdiqezd27cnmk2,RWdqfTwB,2020-0188,2020-05-21,17:30:12,18:08:09,NA,incomplete,69,filling,0,right,Purple_Circle_Grid_4.jpg,Green_Triangle_Dots_4.jpg,Red_Plus_Grid_2.jpg,right,943.0649999994785,true,high,false
RWdqfTwB,3j6bhnx0vc5zv8hudcso2u6bq3dnka,35ldd5557ehv0auosdiqezd27cnmk2,RWdqfTwB,2020-0188,2020-05-21,17:30:12,18:08:09,NA,incomplete,70,number,1,left,Blue_Triangle_Chess_3.jpg,Green_Circle_Stripes_3.jpg,Red_Star_Chess_4.jpg,right,930.5549999990035,false,high,false
RWdqfTwB,3j6bhnx0vc5zv8hudcso2u6bq3dnka,35ldd5557ehv0auosdiqezd27cnmk2,RWdqfTwB,2020-0188,2020-05-21,17:30:12,18:08:09,NA,incomplete,71,number,1,right,Green_Circle_Stripes_4.jpg,Blue_Star_Stripes_2.jpg,Purple_Plus_Chess_4.jpg,left,746.9750000000931,false,high,false
RWdqfTwB,3j6bhnx0vc5zv8hudcso2u6bq3dnka,35ldd5557ehv0auosdiqezd27cnmk2,RWdqfTwB,2020-0188,2020-05-21,17:30:12,18:08:09,NA,incomplete,72,number,1,left,Purple_Star_Dots_4.jpg,Green_Circle_Grid_4.jpg,Blue_Triangle_Dots_3.jpg,right,1183.280000001192,false,high,false
RWdqfTwB,3j6bhnx0vc5zv8hudcso2u6bq3dnka,35ldd5557ehv0auosdiqezd27cnmk2,RWdqfTwB,2020-0188,2020-05-21,17:30:12,18:08:09,NA,incomplete,73,number,0,right,Green_Plus_Grid_1.jpg,Blue_Triangle_Grid_3.jpg,Purple_Circle_Stripes_1.jpg,left,1615.9650000007823,false,high,false
RWdqfTwB,3j6bhnx0vc5zv8hudcso2u6bq3dnka,35ldd5557ehv0auosdiqezd27cnmk2,RWdqfTwB,2020-0188,2020-05-21,17:30:12,18:08:09,NA,incomplete,74,number,0,right,Green_Star_Grid_3.jpg,Blue_Circle_Grid_4.jpg,Purple_Triangle_Dots_3.jpg,left,903.1599999999162,false,high,false
RWdqfTwB,3j6bhnx0vc5zv8hudcso2u6bq3dnka,35ldd5557ehv0auosdiqezd27cnmk2,RWdqfTwB,2020-0188,2020-05-21,17:30:12,18:08:09,NA,incomplete,75,number,0,left,Blue_Triangle_Chess_3.jpg,Green_Circle_Grid_3.jpg,Purple_Star_Chess_2.jpg,right,953.7700000002515,false,high,false
RWdqfTwB,3j6bhnx0vc5zv8hudcso2u6bq3dnka,35ldd5557ehv0auosdiqezd27cnmk2,RWdqfTwB,2020-0188,2020-05-21,17:30:12,18:08:09,NA,incomplete,76,number,1,left,Purple_Plus_Grid_3.jpg,Green_Star_Dots_3.jpg,Red_Circle_Grid_1.jpg,right,1061.3749999993015,false,high,false
RWdqfTwB,3j6bhnx0vc5zv8hudcso2u6bq3dnka,35ldd5557ehv0auosdiqezd27cnmk2,RWdqfTwB,2020-0188,2020-05-21,17:30:12,18:08:09,NA,incomplete,77,number,0,left,Red_Plus_Dots_4.jpg,Green_Circle_Chess_4.jpg,Purple_Triangle_Dots_3.jpg,right,834.484999999404,false,high,false
RWdqfTwB,3j6bhnx0vc5zv8hudcso2u6bq3dnka,35ldd5557ehv0auosdiqezd27cnmk2,RWdqfTwB,2020-0188,2020-05-21,17:30:12,18:08:09,NA,incomplete,78,number,1,left,Purple_Triangle_Chess_4.jpg,Blue_Star_Dots_4.jpg,Green_Plus_Chess_2.jpg,right,1087.969999998808,false,high,false
RWdqfTwB,3j6bhnx0vc5zv8hudcso2u6bq3dnka,35ldd5557ehv0auosdiqezd27cnmk2,RWdqfTwB,2020-0188,2020-05-21,17:30:12,18:08:09,NA,incomplete,79,number,1,right,Red_Circle_Stripes_4.jpg,Green_Star_Stripes_1.jpg,Purple_Plus_Chess_4.jpg,left,852.9249999991152,false,high,false
RWdqfTwB,3j6bhnx0vc5zv8hudcso2u6bq3dnka,35ldd5557ehv0auosdiqezd27cnmk2,RWdqfTwB,2020-0188,2020-05-21,17:30:12,18:08:09,NA,incomplete,80,filling,1,left,Purple_Circle_Grid_4.jpg,Red_Star_Grid_1.jpg,Blue_Plus_Stripes_4.jpg,right,836.3649999992922,false,high,false
RWdqfTwB,3j6bhnx0vc5zv8hudcso2u6bq3dnka,35ldd5557ehv0auosdiqezd27cnmk2,RWdqfTwB,2020-0188,2020-05-21,17:30:12,18:08:09,NA,incomplete,81,filling,1,right,Purple_Circle_Chess_2.jpg,Blue_Star_Grid_2.jpg,Green_Plus_Chess_4.jpg,right,910.7750000003725,true,high,false
RWdqfTwB,3j6bhnx0vc5zv8hudcso2u6bq3dnka,35ldd5557ehv0auosdiqezd27cnmk2,RWdqfTwB,2020-0188,2020-05-21,17:30:12,18:08:09,NA,incomplete,82,filling,1,right,Blue_Plus_Chess_1.jpg,Purple_Triangle_Grid_1.jpg,Red_Circle_Chess_3.jpg,right,1279.5650000006426,true,high,false
RWdqfTwB,3j6bhnx0vc5zv8hudcso2u6bq3dnka,35ldd5557ehv0auosdiqezd27cnmk2,RWdqfTwB,2020-0188,2020-05-21,17:30:12,18:08:09,NA,incomplete,83,filling,0,left,Purple_Circle_Dots_4.jpg,Red_Star_Dots_1.jpg,Blue_Plus_Stripes_4.jpg,left,1124.3549999999814,true,high,false
RWdqfTwB,3j6bhnx0vc5zv8hudcso2u6bq3dnka,35ldd5557ehv0auosdiqezd27cnmk2,RWdqfTwB,2020-0188,2020-05-21,17:30:12,18:08:09,NA,incomplete,84,filling,1,left,Blue_Triangle_Chess_3.jpg,Purple_Star_Chess_4.jpg,Red_Plus_Dots_3.jpg,left,1124.6850000005215,true,high,false
RWdqfTwB,3j6bhnx0vc5zv8hudcso2u6bq3dnka,35ldd5557ehv0auosdiqezd27cnmk2,RWdqfTwB,2020-0188,2020-05-21,17:30:12,18:08:09,NA,incomplete,85,filling,1,right,Red_Circle_Chess_2.jpg,Blue_Plus_Dots_2.jpg,Purple_Star_Chess_3.jpg,right,956.4899999985937,true,high,false
RWdqfTwB,3j6bhnx0vc5zv8hudcso2u6bq3dnka,35ldd5557ehv0auosdiqezd27cnmk2,RWdqfTwB,2020-0188,2020-05-21,17:30:12,18:08:09,NA,incomplete,86,filling,0,right,Red_Circle_Dots_3.jpg,Purple_Star_Stripes_3.jpg,Blue_Plus_Dots_1.jpg,right,923.5900000003166,true,high,false
RWdqfTwB,3j6bhnx0vc5zv8hudcso2u6bq3dnka,35ldd5557ehv0auosdiqezd27cnmk2,RWdqfTwB,2020-0188,2020-05-21,17:30:12,18:08:09,NA,incomplete,87,filling,1,right,Purple_Star_Chess_1.jpg,Red_Circle_Grid_1.jpg,Blue_Plus_Chess_3.jpg,left,744.3199999998324,false,high,false
RWdqfTwB,3j6bhnx0vc5zv8hudcso2u6bq3dnka,35ldd5557ehv0auosdiqezd27cnmk2,RWdqfTwB,2020-0188,2020-05-21,17:30:12,18:08:09,NA,incomplete,88,filling,0,right,Blue_Plus_Grid_3.jpg,Green_Star_Dots_3.jpg,Purple_Triangle_Grid_2.jpg,right,1172.0549999992363,true,high,false
RWdqfTwB,3j6bhnx0vc5zv8hudcso2u6bq3dnka,35ldd5557ehv0auosdiqezd27cnmk2,RWdqfTwB,2020-0188,2020-05-21,17:30:12,18:08:09,NA,incomplete,89,filling,1,left,Red_Circle_Grid_3.jpg,Purple_Star_Grid_4.jpg,Green_Plus_Chess_3.jpg,left,905.6049999997485,true,high,false
RWdqfTwB,3j6bhnx0vc5zv8hudcso2u6bq3dnka,35ldd5557ehv0auosdiqezd27cnmk2,RWdqfTwB,2020-0188,2020-05-21,17:30:12,18:08:09,NA,incomplete,90,number,1,left,Green_Star_Chess_1.jpg,Blue_Plus_Stripes_1.jpg,Red_Triangle_Chess_2.jpg,left,972.5500000002794,true,high,false
RWdqfTwB,3j6bhnx0vc5zv8hudcso2u6bq3dnka,35ldd5557ehv0auosdiqezd27cnmk2,RWdqfTwB,2020-0188,2020-05-21,17:30:12,18:08:09,NA,incomplete,91,number,0,right,Green_Star_Stripes_2.jpg,Red_Plus_Stripes_1.jpg,Purple_Triangle_Chess_2.jpg,right,891.975000000326,true,high,false
RWdqfTwB,3j6bhnx0vc5zv8hudcso2u6bq3dnka,35ldd5557ehv0auosdiqezd27cnmk2,RWdqfTwB,2020-0188,2020-05-21,17:30:12,18:08:09,NA,incomplete,92,number,1,right,Green_Circle_Chess_1.jpg,Blue_Triangle_Chess_2.jpg,Purple_Plus_Stripes_1.jpg,left,987.4450000007637,false,high,false
RWdqfTwB,3j6bhnx0vc5zv8hudcso2u6bq3dnka,35ldd5557ehv0auosdiqezd27cnmk2,RWdqfTwB,2020-0188,2020-05-21,17:30:12,18:08:09,NA,incomplete,93,number,1,right,Purple_Star_Dots_1.jpg,Green_Triangle_Dots_4.jpg,Red_Plus_Grid_1.jpg,right,1694.6250000002328,true,high,false
RWdqfTwB,3j6bhnx0vc5zv8hudcso2u6bq3dnka,35ldd5557ehv0auosdiqezd27cnmk2,RWdqfTwB,2020-0188,2020-05-21,17:30:12,18:08:09,NA,incomplete,94,number,1,right,Purple_Circle_Grid_3.jpg,Blue_Plus_Grid_1.jpg,Green_Star_Dots_3.jpg,left,1643,false,high,false
RWdqfTwB,3j6bhnx0vc5zv8hudcso2u6bq3dnka,35ldd5557ehv0auosdiqezd27cnmk2,RWdqfTwB,2020-0188,2020-05-21,17:30:12,18:08:09,NA,incomplete,95,number,1,right,Purple_Triangle_Stripes_3.jpg,Blue_Circle_Stripes_2.jpg,Red_Plus_Chess_3.jpg,left,1481.3650000016205,false,high,false
RWdqfTwB,3j6bhnx0vc5zv8hudcso2u6bq3dnka,35ldd5557ehv0auosdiqezd27cnmk2,RWdqfTwB,2020-0188,2020-05-21,17:30:12,18:08:09,NA,incomplete,96,number,1,left,Green_Triangle_Chess_2.jpg,Red_Circle_Grid_2.jpg,Blue_Plus_Chess_3.jpg,right,1236.1700000001583,false,high,false
RWdqfTwB,3j6bhnx0vc5zv8hudcso2u6bq3dnka,35ldd5557ehv0auosdiqezd27cnmk2,RWdqfTwB,2020-0188,2020-05-21,17:30:12,18:08:09,NA,incomplete,97,number,1,left,Red_Triangle_Stripes_1.jpg,Green_Star_Grid_1.jpg,Purple_Circle_Stripes_2.jpg,left,737.6550000009593,true,high,false
RWdqfTwB,3j6bhnx0vc5zv8hudcso2u6bq3dnka,35ldd5557ehv0auosdiqezd27cnmk2,RWdqfTwB,2020-0188,2020-05-21,17:30:12,18:08:09,NA,incomplete,98,number,1,right,Red_Plus_Grid_4.jpg,Green_Star_Grid_3.jpg,Blue_Triangle_Chess_4.jpg,right,910.9600000008941,true,high,false
RWdqfTwB,3j6bhnx0vc5zv8hudcso2u6bq3dnka,35ldd5557ehv0auosdiqezd27cnmk2,RWdqfTwB,2020-0188,2020-05-21,17:30:12,18:08:09,NA,incomplete,99,number,1,left,Red_Star_Chess_1.jpg,Blue_Triangle_Dots_1.jpg,Green_Plus_Chess_2.jpg,left,857.7550000008196,true,high,false
RWdqfTwB,3j6bhnx0vc5zv8hudcso2u6bq3dnka,35ldd5557ehv0auosdiqezd27cnmk2,RWdqfTwB,2020-0188,2020-05-21,17:30:12,18:08:09,NA,incomplete,100,filling,1,right,Green_Circle_Stripes_3.jpg,Blue_Star_Grid_3.jpg,Red_Triangle_Stripes_1.jpg,left,1066.8900000001304,false,high,false
RWdqfTwB,3j6bhnx0vc5zv8hudcso2u6bq3dnka,35ldd5557ehv0auosdiqezd27cnmk2,RWdqfTwB,2020-0188,2020-05-21,17:30:12,18:08:09,NA,incomplete,101,filling,1,left,Purple_Star_Chess_4.jpg,Blue_Triangle_Chess_2.jpg,Red_Plus_Dots_4.jpg,left,1706.8600000003353,true,high,false
RWdqfTwB,3j6bhnx0vc5zv8hudcso2u6bq3dnka,35ldd5557ehv0auosdiqezd27cnmk2,RWdqfTwB,2020-0188,2020-05-21,17:30:12,18:08:09,NA,incomplete,102,filling,1,right,Green_Circle_Stripes_3.jpg,Blue_Plus_Grid_3.jpg,Purple_Star_Stripes_2.jpg,right,1585.8400000014808,true,high,false
RWdqfTwB,3j6bhnx0vc5zv8hudcso2u6bq3dnka,35ldd5557ehv0auosdiqezd27cnmk2,RWdqfTwB,2020-0188,2020-05-21,17:30:12,18:08:09,NA,incomplete,103,filling,1,left,Green_Plus_Chess_2.jpg,Blue_Star_Chess_3.jpg,Purple_Triangle_Stripes_2.jpg,left,885.7850000003818,true,high,false
RWdqfTwB,3j6bhnx0vc5zv8hudcso2u6bq3dnka,35ldd5557ehv0auosdiqezd27cnmk2,RWdqfTwB,2020-0188,2020-05-21,17:30:12,18:08:09,NA,incomplete,104,filling,1,left,Green_Plus_Stripes_4.jpg,Purple_Star_Stripes_1.jpg,Red_Circle_Grid_4.jpg,left,873.6350000000093,true,high,false
RWdqfTwB,3j6bhnx0vc5zv8hudcso2u6bq3dnka,35ldd5557ehv0auosdiqezd27cnmk2,RWdqfTwB,2020-0188,2020-05-21,17:30:12,18:08:09,NA,incomplete,105,filling,1,right,Blue_Circle_Stripes_3.jpg,Red_Star_Grid_3.jpg,Green_Plus_Stripes_4.jpg,right,1816.5250000001397,true,high,false
RWdqfTwB,3j6bhnx0vc5zv8hudcso2u6bq3dnka,35ldd5557ehv0auosdiqezd27cnmk2,RWdqfTwB,2020-0188,2020-05-21,17:30:12,18:08:09,NA,incomplete,106,filling,1,left,Green_Circle_Grid_3.jpg,Red_Plus_Grid_2.jpg,Purple_Star_Dots_3.jpg,left,789.5900000003166,true,high,false
RWdqfTwB,3j6bhnx0vc5zv8hudcso2u6bq3dnka,35ldd5557ehv0auosdiqezd27cnmk2,RWdqfTwB,2020-0188,2020-05-21,17:30:12,18:08:09,NA,incomplete,107,filling,1,left,Green_Plus_Stripes_4.jpg,Purple_Triangle_Stripes_2.jpg,Red_Star_Grid_4.jpg,left,871.4400000008754,true,high,false
RWdqfTwB,3j6bhnx0vc5zv8hudcso2u6bq3dnka,35ldd5557ehv0auosdiqezd27cnmk2,RWdqfTwB,2020-0188,2020-05-21,17:30:12,18:08:09,NA,incomplete,108,filling,1,right,Green_Plus_Dots_1.jpg,Blue_Star_Chess_1.jpg,Red_Circle_Dots_4.jpg,left,726.7749999989755,false,high,false
RWdqfTwB,3j6bhnx0vc5zv8hudcso2u6bq3dnka,35ldd5557ehv0auosdiqezd27cnmk2,RWdqfTwB,2020-0188,2020-05-21,17:30:12,18:08:09,NA,incomplete,109,filling,1,right,Green_Star_Dots_4.jpg,Blue_Plus_Grid_4.jpg,Red_Circle_Dots_2.jpg,right,971.7000000001863,true,high,false
RWdqfTwB,3j6bhnx0vc5zv8hudcso2u6bq3dnka,35ldd5557ehv0auosdiqezd27cnmk2,RWdqfTwB,2020-0188,2020-05-21,17:30:12,18:08:09,NA,incomplete,110,number,1,right,Red_Circle_Grid_2.jpg,Green_Plus_Grid_4.jpg,Blue_Triangle_Stripes_2.jpg,left,1021.2449999998789,false,high,false
RWdqfTwB,3j6bhnx0vc5zv8hudcso2u6bq3dnka,35ldd5557ehv0auosdiqezd27cnmk2,RWdqfTwB,2020-0188,2020-05-21,17:30:12,18:08:09,NA,incomplete,111,number,1,right,Red_Circle_Grid_4.jpg,Purple_Triangle_Grid_3.jpg,Blue_Plus_Stripes_4.jpg,left,1224.4800000006799,false,high,false
RWdqfTwB,3j6bhnx0vc5zv8hudcso2u6bq3dnka,35ldd5557ehv0auosdiqezd27cnmk2,RWdqfTwB,2020-0188,2020-05-21,17:30:12,18:08:09,NA,incomplete,112,number,1,left,Blue_Plus_Dots_1.jpg,Red_Star_Grid_1.jpg,Green_Circle_Dots_4.jpg,right,1368.9600000015926,false,high,false
RWdqfTwB,3j6bhnx0vc5zv8hudcso2u6bq3dnka,35ldd5557ehv0auosdiqezd27cnmk2,RWdqfTwB,2020-0188,2020-05-21,17:30:12,18:08:09,NA,incomplete,113,number,1,right,Green_Star_Grid_2.jpg,Purple_Plus_Grid_1.jpg,Blue_Triangle_Chess_2.jpg,left,1250.1649999995716,false,high,false
RWdqfTwB,3j6bhnx0vc5zv8hudcso2u6bq3dnka,35ldd5557ehv0auosdiqezd27cnmk2,RWdqfTwB,2020-0188,2020-05-21,17:30:12,18:08:09,NA,incomplete,114,number,1,right,Blue_Star_Grid_2.jpg,Purple_Triangle_Grid_4.jpg,Red_Plus_Chess_2.jpg,right,1171.089999999851,true,high,false
RWdqfTwB,3j6bhnx0vc5zv8hudcso2u6bq3dnka,35ldd5557ehv0auosdiqezd27cnmk2,RWdqfTwB,2020-0188,2020-05-21,17:30:12,18:08:09,NA,incomplete,115,number,0,left,Red_Triangle_Stripes_1.jpg,Green_Plus_Grid_1.jpg,Purple_Star_Stripes_4.jpg,left,586.1299999996554,true,high,false
RWdqfTwB,3j6bhnx0vc5zv8hudcso2u6bq3dnka,35ldd5557ehv0auosdiqezd27cnmk2,RWdqfTwB,2020-0188,2020-05-21,17:30:12,18:08:09,NA,incomplete,116,number,1,right,Purple_Plus_Stripes_1.jpg,Blue_Star_Stripes_2.jpg,Red_Triangle_Dots_1.jpg,right,877.6250000011642,true,high,false
RWdqfTwB,3j6bhnx0vc5zv8hudcso2u6bq3dnka,35ldd5557ehv0auosdiqezd27cnmk2,RWdqfTwB,2020-0188,2020-05-21,17:30:12,18:08:09,NA,incomplete,117,number,1,right,Purple_Star_Grid_1.jpg,Blue_Plus_Grid_2.jpg,Red_Triangle_Dots_1.jpg,left,1172.4950000008103,false,high,false
RWdqfTwB,3j6bhnx0vc5zv8hudcso2u6bq3dnka,35ldd5557ehv0auosdiqezd27cnmk2,RWdqfTwB,2020-0188,2020-05-21,17:30:12,18:08:09,NA,incomplete,118,number,1,right,Blue_Plus_Dots_4.jpg,Red_Circle_Dots_1.jpg,Purple_Star_Grid_4.jpg,left,1321.3749999995343,false,high,false
RWdqfTwB,3j6bhnx0vc5zv8hudcso2u6bq3dnka,35ldd5557ehv0auosdiqezd27cnmk2,RWdqfTwB,2020-0188,2020-05-21,17:30:12,18:08:09,NA,incomplete,119,number,1,right,Purple_Star_Stripes_3.jpg,Blue_Plus_Stripes_4.jpg,Green_Triangle_Dots_3.jpg,right,1482.330000000773,true,high,false
RWdqfTwB,3j6bhnx0vc5zv8hudcso2u6bq3dnka,35ldd5557ehv0auosdiqezd27cnmk2,RWdqfTwB,2020-0188,2020-05-21,17:30:12,18:08:09,NA,incomplete,120,color,1,left,Purple_Circle_Chess_3.jpg,Purple_Triangle_Dots_2.jpg,Blue_Circle_Grid_4.jpg,NA,NA,NA,high,false
RWdqfTwB,3j6bhnx0vc5zv8hudcso2u6bq3dnka,35ldd5557ehv0auosdiqezd27cnmk2,RWdqfTwB,2020-0188,2020-05-21,17:30:12,18:08:09,NA,incomplete,121,color,1,left,Red_Circle_Grid_3.jpg,Red_Plus_Stripes_4.jpg,Blue_Circle_Chess_1.jpg,right,1954.8250000008848,false,high,false
RWdqfTwB,3j6bhnx0vc5zv8hudcso2u6bq3dnka,35ldd5557ehv0auosdiqezd27cnmk2,RWdqfTwB,2020-0188,2020-05-21,17:30:12,18:08:09,NA,incomplete,122,color,1,right,Purple_Star_Stripes_3.jpg,Blue_Star_Chess_2.jpg,Purple_Circle_Dots_4.jpg,right,1316.789999999106,true,high,false
RWdqfTwB,3j6bhnx0vc5zv8hudcso2u6bq3dnka,35ldd5557ehv0auosdiqezd27cnmk2,RWdqfTwB,2020-0188,2020-05-21,17:30:12,18:08:09,NA,incomplete,123,color,1,left,Green_Plus_Grid_1.jpg,Green_Triangle_Stripes_4.jpg,Red_Plus_Dots_3.jpg,right,1532.280000001192,false,high,false
RWdqfTwB,3j6bhnx0vc5zv8hudcso2u6bq3dnka,35ldd5557ehv0auosdiqezd27cnmk2,RWdqfTwB,2020-0188,2020-05-21,17:30:12,18:08:09,NA,incomplete,124,color,1,left,Blue_Plus_Stripes_3.jpg,Blue_Triangle_Grid_4.jpg,Purple_Plus_Chess_2.jpg,left,785.4200000001583,true,high,false
RWdqfTwB,3j6bhnx0vc5zv8hudcso2u6bq3dnka,35ldd5557ehv0auosdiqezd27cnmk2,RWdqfTwB,2020-0188,2020-05-21,17:30:12,18:08:09,NA,incomplete,125,color,1,left,Green_Star_Chess_4.jpg,Green_Circle_Stripes_1.jpg,Blue_Star_Dots_2.jpg,right,1608.5650000004098,false,high,false
RWdqfTwB,3j6bhnx0vc5zv8hudcso2u6bq3dnka,35ldd5557ehv0auosdiqezd27cnmk2,RWdqfTwB,2020-0188,2020-05-21,17:30:12,18:08:09,NA,incomplete,126,color,1,right,Green_Circle_Stripes_1.jpg,Purple_Circle_Chess_4.jpg,Green_Star_Dots_3.jpg,none,0,false,high,false
RWdqfTwB,3j6bhnx0vc5zv8hudcso2u6bq3dnka,35ldd5557ehv0auosdiqezd27cnmk2,RWdqfTwB,2020-0188,2020-05-21,17:30:12,18:08:09,NA,incomplete,127,color,0,right,Purple_Star_Stripes_2.jpg,Red_Star_Grid_4.jpg,Purple_Circle_Dots_3.jpg,right,847.714999999851,true,high,false
RWdqfTwB,3j6bhnx0vc5zv8hudcso2u6bq3dnka,35ldd5557ehv0auosdiqezd27cnmk2,RWdqfTwB,2020-0188,2020-05-21,17:30:12,18:08:09,NA,incomplete,128,color,1,left,Red_Star_Chess_3.jpg,Red_Triangle_Grid_1.jpg,Green_Star_Dots_4.jpg,none,0,false,high,false
RWdqfTwB,3j6bhnx0vc5zv8hudcso2u6bq3dnka,35ldd5557ehv0auosdiqezd27cnmk2,RWdqfTwB,2020-0188,2020-05-21,17:30:12,18:08:09,NA,incomplete,129,color,1,right,Purple_Plus_Dots_2.jpg,Green_Plus_Grid_4.jpg,Purple_Triangle_Chess_1.jpg,left,1022.9799999997485,false,high,false
RWdqfTwB,3j6bhnx0vc5zv8hudcso2u6bq3dnka,35ldd5557ehv0auosdiqezd27cnmk2,RWdqfTwB,2020-0188,2020-05-21,17:30:12,18:08:09,NA,incomplete,130,color,1,right,Purple_Circle_Grid_3.jpg,Blue_Circle_Chess_4.jpg,Purple_Star_Stripes_1.jpg,right,757.9549999991432,true,high,false
RWdqfTwB,3j6bhnx0vc5zv8hudcso2u6bq3dnka,35ldd5557ehv0auosdiqezd27cnmk2,RWdqfTwB,2020-0188,2020-05-21,17:30:12,18:08:09,NA,incomplete,131,color,0,right,Blue_Star_Chess_4.jpg,Green_Star_Grid_2.jpg,Blue_Triangle_Dots_3.jpg,right,944.4550000005402,true,high,false
RWdqfTwB,3j6bhnx0vc5zv8hudcso2u6bq3dnka,35ldd5557ehv0auosdiqezd27cnmk2,RWdqfTwB,2020-0188,2020-05-21,17:30:12,18:08:09,NA,incomplete,132,color,1,right,Red_Circle_Grid_3.jpg,Green_Circle_Stripes_2.jpg,Red_Triangle_Dots_1.jpg,left,894.4250000005122,false,high,false
RWdqfTwB,3j6bhnx0vc5zv8hudcso2u6bq3dnka,35ldd5557ehv0auosdiqezd27cnmk2,RWdqfTwB,2020-0188,2020-05-21,17:30:12,18:08:09,NA,incomplete,133,color,1,left,Red_Triangle_Stripes_3.jpg,Red_Plus_Dots_1.jpg,Green_Triangle_Chess_2.jpg,right,1549.639999999432,false,high,false
RWdqfTwB,3j6bhnx0vc5zv8hudcso2u6bq3dnka,35ldd5557ehv0auosdiqezd27cnmk2,RWdqfTwB,2020-0188,2020-05-21,17:30:12,18:08:09,NA,incomplete,134,color,1,right,Green_Plus_Dots_4.jpg,Red_Plus_Grid_1.jpg,Green_Triangle_Chess_3.jpg,left,1021.7599999995437,false,high,false
RWdqfTwB,3j6bhnx0vc5zv8hudcso2u6bq3dnka,35ldd5557ehv0auosdiqezd27cnmk2,RWdqfTwB,2020-0188,2020-05-21,17:30:12,18:08:09,NA,incomplete,135,color,0,right,Purple_Star_Stripes_4.jpg,Red_Star_Grid_3.jpg,Purple_Plus_Dots_2.jpg,left,1167.7650000001304,false,high,false
RWdqfTwB,3j6bhnx0vc5zv8hudcso2u6bq3dnka,35ldd5557ehv0auosdiqezd27cnmk2,RWdqfTwB,2020-0188,2020-05-21,17:30:12,18:08:09,NA,incomplete,136,color,1,right,Purple_Star_Stripes_1.jpg,Red_Star_Chess_2.jpg,Purple_Plus_Dots_3.jpg,left,1146.744999999879,false,high,false
RWdqfTwB,3j6bhnx0vc5zv8hudcso2u6bq3dnka,35ldd5557ehv0auosdiqezd27cnmk2,RWdqfTwB,2020-0188,2020-05-21,17:30:12,18:08:09,NA,incomplete,137,color,0,left,Green_Plus_Chess_4.jpg,Green_Star_Dots_3.jpg,Blue_Plus_Grid_1.jpg,right,1123.6200000003446,false,high,false
RWdqfTwB,3j6bhnx0vc5zv8hudcso2u6bq3dnka,35ldd5557ehv0auosdiqezd27cnmk2,RWdqfTwB,2020-0188,2020-05-21,17:30:12,18:08:09,NA,incomplete,138,color,1,right,Green_Triangle_Dots_3.jpg,Blue_Triangle_Grid_1.jpg,Green_Star_Chess_4.jpg,left,992.3449999988079,false,high,false
RWdqfTwB,3j6bhnx0vc5zv8hudcso2u6bq3dnka,35ldd5557ehv0auosdiqezd27cnmk2,RWdqfTwB,2020-0188,2020-05-21,17:30:12,18:08:09,NA,incomplete,139,color,1,left,Red_Triangle_Stripes_2.jpg,Red_Star_Chess_4.jpg,Purple_Triangle_Dots_1.jpg,right,1460.139999999199,false,high,false
RWdqfTwB,3j6bhnx0vc5zv8hudcso2u6bq3dnka,35ldd5557ehv0auosdiqezd27cnmk2,RWdqfTwB,2020-0188,2020-05-21,17:30:12,18:08:09,NA,incomplete,140,shape,1,right,Blue_Star_Stripes_3.jpg,Blue_Plus_Chess_4.jpg,Red_Star_Dots_2.jpg,left,1743.0299999995623,false,high,false
RWdqfTwB,3j6bhnx0vc5zv8hudcso2u6bq3dnka,35ldd5557ehv0auosdiqezd27cnmk2,RWdqfTwB,2020-0188,2020-05-21,17:30:12,18:08:09,NA,incomplete,141,shape,1,right,Green_Circle_Grid_4.jpg,Green_Star_Chess_2.jpg,Purple_Circle_Stripes_1.jpg,left,1351.1849999995902,false,high,false
RWdqfTwB,3j6bhnx0vc5zv8hudcso2u6bq3dnka,35ldd5557ehv0auosdiqezd27cnmk2,RWdqfTwB,2020-0188,2020-05-21,17:30:12,18:08:09,NA,incomplete,142,shape,0,left,Red_Star_Grid_2.jpg,Blue_Star_Stripes_1.jpg,Red_Triangle_Chess_3.jpg,right,1366.539999999106,false,high,false
RWdqfTwB,3j6bhnx0vc5zv8hudcso2u6bq3dnka,35ldd5557ehv0auosdiqezd27cnmk2,RWdqfTwB,2020-0188,2020-05-21,17:30:12,18:08:09,NA,incomplete,143,shape,1,right,Purple_Plus_Grid_3.jpg,Purple_Circle_Dots_4.jpg,Red_Plus_Chess_2.jpg,none,0,false,high,false
RWdqfTwB,3j6bhnx0vc5zv8hudcso2u6bq3dnka,35ldd5557ehv0auosdiqezd27cnmk2,RWdqfTwB,2020-0188,2020-05-21,17:30:12,18:08:09,NA,incomplete,144,shape,0,right,Green_Triangle_Chess_4.jpg,Green_Plus_Stripes_1.jpg,Red_Triangle_Grid_2.jpg,left,994.5250000001397,false,high,false
RWdqfTwB,3j6bhnx0vc5zv8hudcso2u6bq3dnka,35ldd5557ehv0auosdiqezd27cnmk2,RWdqfTwB,2020-0188,2020-05-21,17:30:12,18:08:09,NA,incomplete,145,shape,1,right,Purple_Plus_Dots_3.jpg,Purple_Star_Stripes_2.jpg,Blue_Plus_Grid_1.jpg,left,1008.5300000009593,false,high,false
RWdqfTwB,3j6bhnx0vc5zv8hudcso2u6bq3dnka,35ldd5557ehv0auosdiqezd27cnmk2,RWdqfTwB,2020-0188,2020-05-21,17:30:12,18:08:09,NA,incomplete,146,shape,1,right,Green_Triangle_Grid_3.jpg,Green_Circle_Stripes_4.jpg,Blue_Triangle_Chess_1.jpg,right,1419.8599999998696,true,high,false
RWdqfTwB,3j6bhnx0vc5zv8hudcso2u6bq3dnka,35ldd5557ehv0auosdiqezd27cnmk2,RWdqfTwB,2020-0188,2020-05-21,17:30:12,18:08:09,NA,incomplete,147,shape,0,left,Purple_Circle_Dots_3.jpg,Blue_Circle_Grid_2.jpg,Purple_Triangle_Stripes_4.jpg,left,966.940000000177,true,high,false
RWdqfTwB,3j6bhnx0vc5zv8hudcso2u6bq3dnka,35ldd5557ehv0auosdiqezd27cnmk2,RWdqfTwB,2020-0188,2020-05-21,17:30:12,18:08:09,NA,incomplete,148,shape,1,right,Red_Triangle_Grid_1.jpg,Red_Star_Dots_2.jpg,Purple_Triangle_Chess_3.jpg,left,1086.0250000006054,false,high,false
RWdqfTwB,3j6bhnx0vc5zv8hudcso2u6bq3dnka,35ldd5557ehv0auosdiqezd27cnmk2,RWdqfTwB,2020-0188,2020-05-21,17:30:12,18:08:09,NA,incomplete,149,shape,1,left,Red_Triangle_Grid_4.jpg,Purple_Triangle_Dots_2.jpg,Red_Star_Stripes_3.jpg,left,874.3249999987893,true,high,false
RWdqfTwB,3j6bhnx0vc5zv8hudcso2u6bq3dnka,35ldd5557ehv0auosdiqezd27cnmk2,RWdqfTwB,2020-0188,2020-05-21,17:30:12,18:08:09,NA,incomplete,150,shape,1,right,Green_Circle_Chess_2.jpg,Green_Plus_Grid_1.jpg,Blue_Circle_Dots_3.jpg,right,1178.6150000006892,true,high,false
RWdqfTwB,3j6bhnx0vc5zv8hudcso2u6bq3dnka,35ldd5557ehv0auosdiqezd27cnmk2,RWdqfTwB,2020-0188,2020-05-21,17:30:12,18:08:09,NA,incomplete,151,shape,1,right,Purple_Triangle_Stripes_1.jpg,Purple_Plus_Grid_2.jpg,Green_Triangle_Chess_4.jpg,left,843.8850000002421,false,high,false
RWdqfTwB,3j6bhnx0vc5zv8hudcso2u6bq3dnka,35ldd5557ehv0auosdiqezd27cnmk2,RWdqfTwB,2020-0188,2020-05-21,17:30:12,18:08:09,NA,incomplete,152,shape,1,left,Red_Plus_Dots_3.jpg,Purple_Plus_Chess_4.jpg,Red_Star_Grid_2.jpg,left,820.9150000002701,true,high,false
RWdqfTwB,3j6bhnx0vc5zv8hudcso2u6bq3dnka,35ldd5557ehv0auosdiqezd27cnmk2,RWdqfTwB,2020-0188,2020-05-21,17:30:12,18:08:09,NA,incomplete,153,shape,1,right,Blue_Star_Grid_3.jpg,Blue_Triangle_Dots_2.jpg,Purple_Star_Chess_4.jpg,right,1319.494999999646,true,high,false
RWdqfTwB,3j6bhnx0vc5zv8hudcso2u6bq3dnka,35ldd5557ehv0auosdiqezd27cnmk2,RWdqfTwB,2020-0188,2020-05-21,17:30:12,18:08:09,NA,incomplete,154,shape,1,right,Purple_Plus_Grid_3.jpg,Purple_Circle_Stripes_2.jpg,Red_Plus_Chess_1.jpg,right,1063.9600000013597,true,high,false
RWdqfTwB,3j6bhnx0vc5zv8hudcso2u6bq3dnka,35ldd5557ehv0auosdiqezd27cnmk2,RWdqfTwB,2020-0188,2020-05-21,17:30:12,18:08:09,NA,incomplete,155,shape,1,left,Purple_Star_Dots_1.jpg,Blue_Star_Stripes_4.jpg,Purple_Circle_Chess_2.jpg,left,1456.3850000014063,true,high,false
RWdqfTwB,3j6bhnx0vc5zv8hudcso2u6bq3dnka,35ldd5557ehv0auosdiqezd27cnmk2,RWdqfTwB,2020-0188,2020-05-21,17:30:12,18:08:09,NA,incomplete,156,shape,1,right,Red_Plus_Dots_1.jpg,Red_Circle_Grid_2.jpg,Purple_Plus_Stripes_3.jpg,right,1052.4150000000373,true,high,false
RWdqfTwB,3j6bhnx0vc5zv8hudcso2u6bq3dnka,35ldd5557ehv0auosdiqezd27cnmk2,RWdqfTwB,2020-0188,2020-05-21,17:30:12,18:08:09,NA,incomplete,157,shape,1,left,Green_Plus_Grid_4.jpg,Blue_Plus_Stripes_1.jpg,Green_Circle_Chess_2.jpg,left,688.3699999996461,true,high,false
RWdqfTwB,3j6bhnx0vc5zv8hudcso2u6bq3dnka,35ldd5557ehv0auosdiqezd27cnmk2,RWdqfTwB,2020-0188,2020-05-21,17:30:12,18:08:09,NA,incomplete,158,shape,1,left,Purple_Plus_Dots_2.jpg,Red_Plus_Grid_3.jpg,Purple_Star_Chess_4.jpg,left,589.0949999992736,true,high,false
RWdqfTwB,3j6bhnx0vc5zv8hudcso2u6bq3dnka,35ldd5557ehv0auosdiqezd27cnmk2,RWdqfTwB,2020-0188,2020-05-21,17:30:12,18:08:09,NA,incomplete,159,shape,1,right,Red_Triangle_Chess_2.jpg,Red_Circle_Dots_1.jpg,Blue_Triangle_Stripes_3.jpg,right,530.3199999998324,true,high,false
RWdqfTwB,3j6bhnx0vc5zv8hudcso2u6bq3dnka,35ldd5557ehv0auosdiqezd27cnmk2,RWdqfTwB,2020-0188,2020-05-21,17:30:12,18:08:09,NA,incomplete,160,color,0,left,Blue_Plus_Stripes_4.jpg,Blue_Star_Dots_1.jpg,Red_Plus_Grid_2.jpg,right,491.7699999988545,false,high,false
RWdqfTwB,3j6bhnx0vc5zv8hudcso2u6bq3dnka,35ldd5557ehv0auosdiqezd27cnmk2,RWdqfTwB,2020-0188,2020-05-21,17:30:12,18:08:09,NA,incomplete,161,color,1,right,Green_Star_Stripes_1.jpg,Purple_Star_Dots_2.jpg,Green_Triangle_Chess_4.jpg,left,846.0399999984074,false,high,false
RWdqfTwB,3j6bhnx0vc5zv8hudcso2u6bq3dnka,35ldd5557ehv0auosdiqezd27cnmk2,RWdqfTwB,2020-0188,2020-05-21,17:30:12,18:08:09,NA,incomplete,162,color,1,right,Blue_Triangle_Grid_4.jpg,Green_Triangle_Chess_2.jpg,Blue_Star_Stripes_1.jpg,left,698.3849999995437,false,high,false
RWdqfTwB,3j6bhnx0vc5zv8hudcso2u6bq3dnka,35ldd5557ehv0auosdiqezd27cnmk2,RWdqfTwB,2020-0188,2020-05-21,17:30:12,18:08:09,NA,incomplete,163,color,1,right,Green_Circle_Chess_1.jpg,Purple_Circle_Dots_4.jpg,Green_Star_Grid_3.jpg,right,691.2599999995437,true,high,false
RWdqfTwB,3j6bhnx0vc5zv8hudcso2u6bq3dnka,35ldd5557ehv0auosdiqezd27cnmk2,RWdqfTwB,2020-0188,2020-05-21,17:30:12,18:08:09,NA,incomplete,164,color,1,right,Green_Triangle_Grid_3.jpg,Blue_Triangle_Dots_4.jpg,Green_Circle_Stripes_2.jpg,right,559.9849999998696,true,high,false
RWdqfTwB,3j6bhnx0vc5zv8hudcso2u6bq3dnka,35ldd5557ehv0auosdiqezd27cnmk2,RWdqfTwB,2020-0188,2020-05-21,17:30:12,18:08:09,NA,incomplete,165,color,1,right,Red_Plus_Grid_2.jpg,Purple_Plus_Chess_1.jpg,Red_Triangle_Stripes_3.jpg,right,576.4049999997951,true,high,false
RWdqfTwB,3j6bhnx0vc5zv8hudcso2u6bq3dnka,35ldd5557ehv0auosdiqezd27cnmk2,RWdqfTwB,2020-0188,2020-05-21,17:30:12,18:08:09,NA,incomplete,166,color,0,left,Green_Plus_Dots_4.jpg,Green_Circle_Stripes_2.jpg,Purple_Plus_Chess_3.jpg,left,1030.510000000475,true,high,false
RWdqfTwB,3j6bhnx0vc5zv8hudcso2u6bq3dnka,35ldd5557ehv0auosdiqezd27cnmk2,RWdqfTwB,2020-0188,2020-05-21,17:30:12,18:08:09,NA,incomplete,167,color,1,left,Purple_Triangle_Chess_1.jpg,Purple_Circle_Stripes_3.jpg,Blue_Triangle_Grid_2.jpg,right,699.9249999988824,false,high,false
RWdqfTwB,3j6bhnx0vc5zv8hudcso2u6bq3dnka,35ldd5557ehv0auosdiqezd27cnmk2,RWdqfTwB,2020-0188,2020-05-21,17:30:12,18:08:09,NA,incomplete,168,color,1,left,Green_Circle_Stripes_4.jpg,Green_Triangle_Dots_2.jpg,Red_Circle_Chess_1.jpg,left,609.8600000005681,true,high,false
RWdqfTwB,3j6bhnx0vc5zv8hudcso2u6bq3dnka,35ldd5557ehv0auosdiqezd27cnmk2,RWdqfTwB,2020-0188,2020-05-21,17:30:12,18:08:09,NA,incomplete,169,color,1,right,Green_Circle_Grid_4.jpg,Red_Circle_Chess_2.jpg,Green_Triangle_Dots_1.jpg,right,1433.269999999553,true,high,false
RWdqfTwB,3j6bhnx0vc5zv8hudcso2u6bq3dnka,35ldd5557ehv0auosdiqezd27cnmk2,RWdqfTwB,2020-0188,2020-05-21,17:30:12,18:08:09,NA,incomplete,170,color,1,left,Purple_Plus_Stripes_3.jpg,Purple_Circle_Dots_1.jpg,Red_Plus_Chess_4.jpg,left,738.4099999999162,true,high,false
RWdqfTwB,3j6bhnx0vc5zv8hudcso2u6bq3dnka,35ldd5557ehv0auosdiqezd27cnmk2,RWdqfTwB,2020-0188,2020-05-21,17:30:12,18:08:09,NA,incomplete,171,color,1,right,Purple_Star_Dots_3.jpg,Blue_Star_Chess_2.jpg,Purple_Circle_Grid_1.jpg,right,619.984999999404,true,high,false
RWdqfTwB,3j6bhnx0vc5zv8hudcso2u6bq3dnka,35ldd5557ehv0auosdiqezd27cnmk2,RWdqfTwB,2020-0188,2020-05-21,17:30:12,18:08:09,NA,incomplete,172,color,1,left,Purple_Star_Stripes_3.jpg,Purple_Plus_Chess_2.jpg,Blue_Star_Grid_1.jpg,left,695.5400000005029,true,high,false
RWdqfTwB,3j6bhnx0vc5zv8hudcso2u6bq3dnka,35ldd5557ehv0auosdiqezd27cnmk2,RWdqfTwB,2020-0188,2020-05-21,17:30:12,18:08:09,NA,incomplete,173,color,0,left,Green_Triangle_Stripes_4.jpg,Green_Plus_Chess_3.jpg,Red_Triangle_Dots_2.jpg,left,486.9149999995716,true,high,false
RWdqfTwB,3j6bhnx0vc5zv8hudcso2u6bq3dnka,35ldd5557ehv0auosdiqezd27cnmk2,RWdqfTwB,2020-0188,2020-05-21,17:30:12,18:08:09,NA,incomplete,174,color,1,right,Purple_Triangle_Dots_3.jpg,Red_Triangle_Chess_1.jpg,Purple_Plus_Stripes_2.jpg,right,534.9199999999255,true,high,false
RWdqfTwB,3j6bhnx0vc5zv8hudcso2u6bq3dnka,35ldd5557ehv0auosdiqezd27cnmk2,RWdqfTwB,2020-0188,2020-05-21,17:30:12,18:08:09,NA,incomplete,175,color,1,right,Purple_Plus_Grid_1.jpg,Blue_Plus_Chess_3.jpg,Purple_Triangle_Stripes_2.jpg,right,801.8449999999721,true,high,false
RWdqfTwB,3j6bhnx0vc5zv8hudcso2u6bq3dnka,35ldd5557ehv0auosdiqezd27cnmk2,RWdqfTwB,2020-0188,2020-05-21,17:30:12,18:08:09,NA,incomplete,176,color,0,right,Red_Plus_Grid_1.jpg,Green_Plus_Dots_3.jpg,Red_Circle_Stripes_4.jpg,right,754.1750000000466,true,high,false
RWdqfTwB,3j6bhnx0vc5zv8hudcso2u6bq3dnka,35ldd5557ehv0auosdiqezd27cnmk2,RWdqfTwB,2020-0188,2020-05-21,17:30:12,18:08:09,NA,incomplete,177,color,1,right,Green_Circle_Grid_4.jpg,Purple_Circle_Chess_3.jpg,Green_Plus_Stripes_2.jpg,right,619.4250000007451,true,high,false
RWdqfTwB,3j6bhnx0vc5zv8hudcso2u6bq3dnka,35ldd5557ehv0auosdiqezd27cnmk2,RWdqfTwB,2020-0188,2020-05-21,17:30:12,18:08:09,NA,incomplete,178,color,1,left,Purple_Circle_Grid_2.jpg,Purple_Star_Dots_3.jpg,Red_Circle_Stripes_4.jpg,left,634.5099999997765,true,high,false
RWdqfTwB,3j6bhnx0vc5zv8hudcso2u6bq3dnka,35ldd5557ehv0auosdiqezd27cnmk2,RWdqfTwB,2020-0188,2020-05-21,17:30:12,18:08:09,NA,incomplete,179,color,0,left,Red_Star_Dots_3.jpg,Red_Plus_Stripes_4.jpg,Purple_Star_Grid_1.jpg,left,615.7399999992922,true,high,false
RWdqfTwB,3j6bhnx0vc5zv8hudcso2u6bq3dnka,35ldd5557ehv0auosdiqezd27cnmk2,RWdqfTwB,2020-0188,2020-05-21,17:30:12,18:08:09,NA,incomplete,180,shape,1,left,Red_Plus_Dots_4.jpg,Purple_Plus_Grid_2.jpg,Red_Triangle_Stripes_1.jpg,right,623.8950000004843,false,high,false
RWdqfTwB,3j6bhnx0vc5zv8hudcso2u6bq3dnka,35ldd5557ehv0auosdiqezd27cnmk2,RWdqfTwB,2020-0188,2020-05-21,17:30:12,18:08:09,NA,incomplete,181,shape,0,left,Purple_Star_Chess_1.jpg,Green_Star_Grid_4.jpg,Purple_Triangle_Dots_3.jpg,left,663.5249999999069,true,high,false
RWdqfTwB,3j6bhnx0vc5zv8hudcso2u6bq3dnka,35ldd5557ehv0auosdiqezd27cnmk2,RWdqfTwB,2020-0188,2020-05-21,17:30:12,18:08:09,NA,incomplete,182,shape,1,right,Purple_Triangle_Dots_4.jpg,Purple_Circle_Stripes_3.jpg,Green_Triangle_Grid_2.jpg,right,831.2750000003725,true,high,false
RWdqfTwB,3j6bhnx0vc5zv8hudcso2u6bq3dnka,35ldd5557ehv0auosdiqezd27cnmk2,RWdqfTwB,2020-0188,2020-05-21,17:30:12,18:08:09,NA,incomplete,183,shape,0,left,Green_Triangle_Grid_2.jpg,Blue_Triangle_Dots_1.jpg,Green_Plus_Stripes_3.jpg,left,873.0550000001676,true,high,false
RWdqfTwB,3j6bhnx0vc5zv8hudcso2u6bq3dnka,35ldd5557ehv0auosdiqezd27cnmk2,RWdqfTwB,2020-0188,2020-05-21,17:30:12,18:08:09,NA,incomplete,184,shape,1,left,Purple_Star_Stripes_1.jpg,Blue_Star_Dots_3.jpg,Purple_Plus_Grid_4.jpg,right,588.7350000012666,false,high,false
RWdqfTwB,3j6bhnx0vc5zv8hudcso2u6bq3dnka,35ldd5557ehv0auosdiqezd27cnmk2,RWdqfTwB,2020-0188,2020-05-21,17:30:12,18:08:09,NA,incomplete,185,shape,1,right,Red_Triangle_Stripes_4.jpg,Red_Plus_Grid_1.jpg,Blue_Triangle_Dots_2.jpg,right,1010.8450000006706,true,high,false
RWdqfTwB,3j6bhnx0vc5zv8hudcso2u6bq3dnka,35ldd5557ehv0auosdiqezd27cnmk2,RWdqfTwB,2020-0188,2020-05-21,17:30:12,18:08:09,NA,incomplete,186,shape,1,right,Green_Star_Chess_3.jpg,Green_Plus_Grid_4.jpg,Purple_Star_Stripes_1.jpg,right,990.2000000001863,true,high,false
RWdqfTwB,3j6bhnx0vc5zv8hudcso2u6bq3dnka,35ldd5557ehv0auosdiqezd27cnmk2,RWdqfTwB,2020-0188,2020-05-21,17:30:12,18:08:09,NA,incomplete,187,shape,1,right,Purple_Circle_Chess_1.jpg,Purple_Plus_Stripes_2.jpg,Green_Circle_Dots_3.jpg,right,726.0600000009872,true,high,false
RWdqfTwB,3j6bhnx0vc5zv8hudcso2u6bq3dnka,35ldd5557ehv0auosdiqezd27cnmk2,RWdqfTwB,2020-0188,2020-05-21,17:30:12,18:08:09,NA,incomplete,188,shape,1,right,Blue_Triangle_Chess_2.jpg,Blue_Star_Dots_1.jpg,Green_Triangle_Stripes_4.jpg,right,685.929999999702,true,high,false
RWdqfTwB,3j6bhnx0vc5zv8hudcso2u6bq3dnka,35ldd5557ehv0auosdiqezd27cnmk2,RWdqfTwB,2020-0188,2020-05-21,17:30:12,18:08:09,NA,incomplete,189,shape,1,left,Purple_Circle_Stripes_2.jpg,Blue_Circle_Grid_3.jpg,Purple_Star_Dots_4.jpg,left,664.0249999999069,true,high,false
RWdqfTwB,3j6bhnx0vc5zv8hudcso2u6bq3dnka,35ldd5557ehv0auosdiqezd27cnmk2,RWdqfTwB,2020-0188,2020-05-21,17:30:12,18:08:09,NA,incomplete,190,shape,1,right,Green_Star_Stripes_2.jpg,Green_Triangle_Chess_3.jpg,Red_Star_Grid_1.jpg,right,667.6949999998324,true,high,false
RWdqfTwB,3j6bhnx0vc5zv8hudcso2u6bq3dnka,35ldd5557ehv0auosdiqezd27cnmk2,RWdqfTwB,2020-0188,2020-05-21,17:30:12,18:08:09,NA,incomplete,191,shape,1,right,Blue_Star_Chess_2.jpg,Blue_Circle_Dots_4.jpg,Purple_Star_Stripes_1.jpg,right,778.2449999991804,true,high,false
RWdqfTwB,3j6bhnx0vc5zv8hudcso2u6bq3dnka,35ldd5557ehv0auosdiqezd27cnmk2,RWdqfTwB,2020-0188,2020-05-21,17:30:12,18:08:09,NA,incomplete,192,shape,0,right,Blue_Plus_Chess_4.jpg,Blue_Star_Grid_2.jpg,Purple_Plus_Dots_3.jpg,right,666.5249999985099,true,high,false
RWdqfTwB,3j6bhnx0vc5zv8hudcso2u6bq3dnka,35ldd5557ehv0auosdiqezd27cnmk2,RWdqfTwB,2020-0188,2020-05-21,17:30:12,18:08:09,NA,incomplete,193,shape,1,left,Red_Plus_Grid_1.jpg,Blue_Plus_Chess_4.jpg,Red_Triangle_Stripes_2.jpg,right,1119.0850000004284,false,high,false
RWdqfTwB,3j6bhnx0vc5zv8hudcso2u6bq3dnka,35ldd5557ehv0auosdiqezd27cnmk2,RWdqfTwB,2020-0188,2020-05-21,17:30:12,18:08:09,NA,incomplete,194,shape,1,right,Purple_Triangle_Grid_4.jpg,Purple_Plus_Dots_3.jpg,Blue_Triangle_Stripes_1.jpg,left,1131.6299999998882,false,high,false
RWdqfTwB,3j6bhnx0vc5zv8hudcso2u6bq3dnka,35ldd5557ehv0auosdiqezd27cnmk2,RWdqfTwB,2020-0188,2020-05-21,17:30:12,18:08:09,NA,incomplete,195,shape,1,right,Blue_Star_Chess_1.jpg,Blue_Plus_Stripes_3.jpg,Red_Star_Dots_2.jpg,right,1138.529999999795,true,high,false
RWdqfTwB,3j6bhnx0vc5zv8hudcso2u6bq3dnka,35ldd5557ehv0auosdiqezd27cnmk2,RWdqfTwB,2020-0188,2020-05-21,17:30:12,18:08:09,NA,incomplete,196,shape,1,right,Purple_Plus_Stripes_1.jpg,Purple_Triangle_Grid_2.jpg,Blue_Plus_Dots_4.jpg,right,814.6450000000186,true,high,false
RWdqfTwB,3j6bhnx0vc5zv8hudcso2u6bq3dnka,35ldd5557ehv0auosdiqezd27cnmk2,RWdqfTwB,2020-0188,2020-05-21,17:30:12,18:08:09,NA,incomplete,197,shape,1,right,Blue_Plus_Grid_4.jpg,Blue_Star_Dots_2.jpg,Red_Plus_Chess_1.jpg,right,666.1949999998324,true,high,false
RWdqfTwB,3j6bhnx0vc5zv8hudcso2u6bq3dnka,35ldd5557ehv0auosdiqezd27cnmk2,RWdqfTwB,2020-0188,2020-05-21,17:30:12,18:08:09,NA,incomplete,198,shape,1,left,Purple_Plus_Dots_1.jpg,Blue_Plus_Chess_2.jpg,Purple_Circle_Grid_4.jpg,left,657.2400000002235,true,high,false
RWdqfTwB,3j6bhnx0vc5zv8hudcso2u6bq3dnka,35ldd5557ehv0auosdiqezd27cnmk2,RWdqfTwB,2020-0188,2020-05-21,17:30:12,18:08:09,NA,incomplete,199,shape,1,left,Blue_Triangle_Stripes_2.jpg,Purple_Triangle_Chess_4.jpg,Blue_Star_Dots_3.jpg,left,711.0200000004843,true,high,false
RWdqfTwB,3j6bhnx0vc5zv8hudcso2u6bq3dnka,35ldd5557ehv0auosdiqezd27cnmk2,RWdqfTwB,2020-0188,2020-05-21,17:30:12,18:08:09,NA,incomplete,200,color,1,left,Green_Plus_Grid_2.jpg,Green_Circle_Chess_4.jpg,Purple_Plus_Stripes_1.jpg,right,1045.4250000002794,false,high,false
RWdqfTwB,3j6bhnx0vc5zv8hudcso2u6bq3dnka,35ldd5557ehv0auosdiqezd27cnmk2,RWdqfTwB,2020-0188,2020-05-21,17:30:12,18:08:09,NA,incomplete,201,color,1,right,Green_Plus_Grid_3.jpg,Purple_Plus_Chess_2.jpg,Green_Circle_Dots_1.jpg,right,494.93500000052154,true,high,false
RWdqfTwB,3j6bhnx0vc5zv8hudcso2u6bq3dnka,35ldd5557ehv0auosdiqezd27cnmk2,RWdqfTwB,2020-0188,2020-05-21,17:30:12,18:08:09,NA,incomplete,202,color,1,left,Blue_Star_Grid_3.jpg,Blue_Plus_Dots_1.jpg,Purple_Star_Stripes_2.jpg,right,725.3099999995902,false,high,false
RWdqfTwB,3j6bhnx0vc5zv8hudcso2u6bq3dnka,35ldd5557ehv0auosdiqezd27cnmk2,RWdqfTwB,2020-0188,2020-05-21,17:30:12,18:08:09,NA,incomplete,203,color,1,right,Blue_Star_Grid_4.jpg,Green_Star_Stripes_2.jpg,Blue_Triangle_Dots_3.jpg,right,516.5350000010803,true,high,false
RWdqfTwB,3j6bhnx0vc5zv8hudcso2u6bq3dnka,35ldd5557ehv0auosdiqezd27cnmk2,RWdqfTwB,2020-0188,2020-05-21,17:30:12,18:08:09,NA,incomplete,204,color,1,left,Purple_Triangle_Chess_4.jpg,Purple_Plus_Stripes_3.jpg,Green_Triangle_Dots_2.jpg,left,656.0300000002608,true,high,false
RWdqfTwB,3j6bhnx0vc5zv8hudcso2u6bq3dnka,35ldd5557ehv0auosdiqezd27cnmk2,RWdqfTwB,2020-0188,2020-05-21,17:30:12,18:08:09,NA,incomplete,205,color,1,right,Green_Circle_Chess_3.jpg,Red_Circle_Grid_4.jpg,Green_Plus_Stripes_2.jpg,right,523.5250000003725,true,high,false
RWdqfTwB,3j6bhnx0vc5zv8hudcso2u6bq3dnka,35ldd5557ehv0auosdiqezd27cnmk2,RWdqfTwB,2020-0188,2020-05-21,17:30:12,18:08:09,NA,incomplete,206,color,1,left,Blue_Circle_Dots_2.jpg,Blue_Plus_Grid_3.jpg,Green_Circle_Stripes_1.jpg,left,636.8299999991432,true,high,false
RWdqfTwB,3j6bhnx0vc5zv8hudcso2u6bq3dnka,35ldd5557ehv0auosdiqezd27cnmk2,RWdqfTwB,2020-0188,2020-05-21,17:30:12,18:08:09,NA,incomplete,207,color,0,left,Red_Plus_Grid_3.jpg,Red_Triangle_Chess_1.jpg,Blue_Plus_Dots_2.jpg,right,755.6200000001118,false,high,false
RWdqfTwB,3j6bhnx0vc5zv8hudcso2u6bq3dnka,35ldd5557ehv0auosdiqezd27cnmk2,RWdqfTwB,2020-0188,2020-05-21,17:30:12,18:08:09,NA,incomplete,208,color,1,left,Purple_Star_Dots_1.jpg,Purple_Circle_Grid_4.jpg,Green_Star_Stripes_3.jpg,right,820.7949999994598,false,high,false
RWdqfTwB,3j6bhnx0vc5zv8hudcso2u6bq3dnka,35ldd5557ehv0auosdiqezd27cnmk2,RWdqfTwB,2020-0188,2020-05-21,17:30:12,18:08:09,NA,incomplete,209,color,1,right,Green_Triangle_Dots_1.jpg,Red_Triangle_Chess_4.jpg,Green_Plus_Stripes_2.jpg,left,725.7299999999814,false,high,false
RWdqfTwB,3j6bhnx0vc5zv8hudcso2u6bq3dnka,35ldd5557ehv0auosdiqezd27cnmk2,RWdqfTwB,2020-0188,2020-05-21,17:30:12,18:08:09,NA,incomplete,210,color,0,right,Red_Triangle_Dots_4.jpg,Green_Triangle_Chess_1.jpg,Red_Circle_Stripes_3.jpg,right,666.35499999905,true,high,false
RWdqfTwB,3j6bhnx0vc5zv8hudcso2u6bq3dnka,35ldd5557ehv0auosdiqezd27cnmk2,RWdqfTwB,2020-0188,2020-05-21,17:30:12,18:08:09,NA,incomplete,211,color,1,right,Red_Triangle_Dots_1.jpg,Green_Triangle_Grid_3.jpg,Red_Circle_Stripes_4.jpg,left,880.9250000012107,false,high,false
RWdqfTwB,3j6bhnx0vc5zv8hudcso2u6bq3dnka,35ldd5557ehv0auosdiqezd27cnmk2,RWdqfTwB,2020-0188,2020-05-21,17:30:12,18:08:09,NA,incomplete,212,color,1,left,Green_Triangle_Dots_4.jpg,Green_Plus_Grid_1.jpg,Blue_Triangle_Stripes_3.jpg,right,711.374999998603,false,high,false
RWdqfTwB,3j6bhnx0vc5zv8hudcso2u6bq3dnka,35ldd5557ehv0auosdiqezd27cnmk2,RWdqfTwB,2020-0188,2020-05-21,17:30:12,18:08:09,NA,incomplete,213,color,1,left,Purple_Triangle_Stripes_1.jpg,Purple_Star_Chess_3.jpg,Red_Triangle_Dots_4.jpg,left,650.1099999989383,true,high,false
RWdqfTwB,3j6bhnx0vc5zv8hudcso2u6bq3dnka,35ldd5557ehv0auosdiqezd27cnmk2,RWdqfTwB,2020-0188,2020-05-21,17:30:12,18:08:09,NA,incomplete,214,color,1,right,Green_Circle_Chess_4.jpg,Red_Circle_Dots_1.jpg,Green_Triangle_Grid_3.jpg,right,1714.9249999984168,true,high,false
RWdqfTwB,3j6bhnx0vc5zv8hudcso2u6bq3dnka,35ldd5557ehv0auosdiqezd27cnmk2,RWdqfTwB,2020-0188,2020-05-21,17:30:12,18:08:09,NA,incomplete,215,color,1,right,Blue_Circle_Grid_4.jpg,Green_Circle_Stripes_3.jpg,Blue_Triangle_Chess_2.jpg,left,1167.7950000013225,false,high,false
RWdqfTwB,3j6bhnx0vc5zv8hudcso2u6bq3dnka,35ldd5557ehv0auosdiqezd27cnmk2,RWdqfTwB,2020-0188,2020-05-21,17:30:12,18:08:09,NA,incomplete,216,color,0,right,Red_Circle_Grid_1.jpg,Purple_Circle_Dots_3.jpg,Red_Star_Stripes_4.jpg,right,560.535000000149,true,high,false
RWdqfTwB,3j6bhnx0vc5zv8hudcso2u6bq3dnka,35ldd5557ehv0auosdiqezd27cnmk2,RWdqfTwB,2020-0188,2020-05-21,17:30:12,18:08:09,NA,incomplete,217,color,1,right,Green_Triangle_Dots_4.jpg,Red_Triangle_Chess_3.jpg,Green_Circle_Stripes_1.jpg,right,602.5649999994785,true,high,false
RWdqfTwB,3j6bhnx0vc5zv8hudcso2u6bq3dnka,35ldd5557ehv0auosdiqezd27cnmk2,RWdqfTwB,2020-0188,2020-05-21,17:30:12,18:08:09,NA,incomplete,218,color,0,left,Blue_Star_Dots_3.jpg,Blue_Circle_Stripes_2.jpg,Purple_Star_Chess_1.jpg,left,512.2549999994226,true,high,false
RWdqfTwB,3j6bhnx0vc5zv8hudcso2u6bq3dnka,35ldd5557ehv0auosdiqezd27cnmk2,RWdqfTwB,2020-0188,2020-05-21,17:30:12,18:08:09,NA,incomplete,219,color,1,left,Blue_Plus_Chess_4.jpg,Blue_Circle_Stripes_2.jpg,Green_Plus_Grid_1.jpg,left,963.0050000012852,true,high,false
RWdqfTwB,3j6bhnx0vc5zv8hudcso2u6bq3dnka,35ldd5557ehv0auosdiqezd27cnmk2,RWdqfTwB,2020-0188,2020-05-21,17:30:12,18:08:09,NA,incomplete,220,shape,1,right,Blue_Plus_Chess_1.jpg,Blue_Star_Stripes_4.jpg,Green_Plus_Grid_3.jpg,left,696.2249999996275,false,high,false
RWdqfTwB,3j6bhnx0vc5zv8hudcso2u6bq3dnka,35ldd5557ehv0auosdiqezd27cnmk2,RWdqfTwB,2020-0188,2020-05-21,17:30:12,18:08:09,NA,incomplete,221,shape,1,left,Green_Plus_Grid_1.jpg,Purple_Plus_Stripes_3.jpg,Green_Circle_Chess_4.jpg,right,757.3900000010617,false,high,false
RWdqfTwB,3j6bhnx0vc5zv8hudcso2u6bq3dnka,35ldd5557ehv0auosdiqezd27cnmk2,RWdqfTwB,2020-0188,2020-05-21,17:30:12,18:08:09,NA,incomplete,222,shape,0,right,Blue_Circle_Chess_4.jpg,Blue_Triangle_Stripes_2.jpg,Red_Circle_Grid_3.jpg,right,817.015000000596,true,high,false
RWdqfTwB,3j6bhnx0vc5zv8hudcso2u6bq3dnka,35ldd5557ehv0auosdiqezd27cnmk2,RWdqfTwB,2020-0188,2020-05-21,17:30:12,18:08:09,NA,incomplete,223,shape,1,left,Blue_Plus_Dots_2.jpg,Purple_Plus_Stripes_1.jpg,Blue_Star_Grid_3.jpg,left,669.0049999998882,true,high,false
RWdqfTwB,3j6bhnx0vc5zv8hudcso2u6bq3dnka,35ldd5557ehv0auosdiqezd27cnmk2,RWdqfTwB,2020-0188,2020-05-21,17:30:12,18:08:09,NA,incomplete,224,shape,0,left,Green_Plus_Dots_4.jpg,Blue_Plus_Grid_3.jpg,Green_Circle_Stripes_1.jpg,left,654.8899999996647,true,high,false
RWdqfTwB,3j6bhnx0vc5zv8hudcso2u6bq3dnka,35ldd5557ehv0auosdiqezd27cnmk2,RWdqfTwB,2020-0188,2020-05-21,17:30:12,18:08:09,NA,incomplete,225,shape,1,left,Green_Star_Grid_1.jpg,Red_Star_Dots_2.jpg,Green_Plus_Chess_3.jpg,right,549.1949999998324,false,high,false
RWdqfTwB,3j6bhnx0vc5zv8hudcso2u6bq3dnka,35ldd5557ehv0auosdiqezd27cnmk2,RWdqfTwB,2020-0188,2020-05-21,17:30:12,18:08:09,NA,incomplete,226,shape,1,right,Red_Plus_Stripes_3.jpg,Red_Star_Chess_2.jpg,Green_Plus_Grid_4.jpg,right,1703.9249999998137,true,high,false
RWdqfTwB,3j6bhnx0vc5zv8hudcso2u6bq3dnka,35ldd5557ehv0auosdiqezd27cnmk2,RWdqfTwB,2020-0188,2020-05-21,17:30:12,18:08:09,NA,incomplete,227,shape,1,left,Green_Star_Stripes_3.jpg,Blue_Star_Dots_2.jpg,Green_Triangle_Chess_1.jpg,right,1810.7500000004657,false,high,false
RWdqfTwB,3j6bhnx0vc5zv8hudcso2u6bq3dnka,35ldd5557ehv0auosdiqezd27cnmk2,RWdqfTwB,2020-0188,2020-05-21,17:30:12,18:08:09,NA,incomplete,228,shape,1,right,Purple_Circle_Stripes_1.jpg,Purple_Triangle_Dots_4.jpg,Blue_Circle_Grid_3.jpg,left,1673.2600000011735,false,high,false
RWdqfTwB,3j6bhnx0vc5zv8hudcso2u6bq3dnka,35ldd5557ehv0auosdiqezd27cnmk2,RWdqfTwB,2020-0188,2020-05-21,17:30:12,18:08:09,NA,incomplete,229,shape,1,right,Red_Circle_Dots_4.jpg,Red_Plus_Chess_1.jpg,Blue_Circle_Stripes_3.jpg,none,0,false,high,false
RWdqfTwB,3j6bhnx0vc5zv8hudcso2u6bq3dnka,35ldd5557ehv0auosdiqezd27cnmk2,RWdqfTwB,2020-0188,2020-05-21,17:30:12,18:08:09,NA,incomplete,230,shape,0,left,Blue_Circle_Stripes_1.jpg,Green_Circle_Chess_4.jpg,Blue_Star_Dots_2.jpg,left,1348.5750000001863,true,high,false
RWdqfTwB,3j6bhnx0vc5zv8hudcso2u6bq3dnka,35ldd5557ehv0auosdiqezd27cnmk2,RWdqfTwB,2020-0188,2020-05-21,17:30:12,18:08:09,NA,incomplete,231,shape,1,right,Red_Star_Stripes_3.jpg,Red_Plus_Chess_4.jpg,Blue_Star_Dots_1.jpg,right,1959.5649999990128,true,high,false
RWdqfTwB,3j6bhnx0vc5zv8hudcso2u6bq3dnka,35ldd5557ehv0auosdiqezd27cnmk2,RWdqfTwB,2020-0188,2020-05-21,17:30:12,18:08:09,NA,incomplete,232,shape,1,right,Red_Star_Grid_2.jpg,Red_Triangle_Stripes_3.jpg,Purple_Star_Chess_1.jpg,right,1955.0249999994412,true,high,false
RWdqfTwB,3j6bhnx0vc5zv8hudcso2u6bq3dnka,35ldd5557ehv0auosdiqezd27cnmk2,RWdqfTwB,2020-0188,2020-05-21,17:30:12,18:08:09,NA,incomplete,233,shape,0,right,Purple_Circle_Chess_4.jpg,Purple_Star_Grid_2.jpg,Red_Circle_Stripes_3.jpg,right,1652.7649999987334,true,high,false
RWdqfTwB,3j6bhnx0vc5zv8hudcso2u6bq3dnka,35ldd5557ehv0auosdiqezd27cnmk2,RWdqfTwB,2020-0188,2020-05-21,17:30:12,18:08:09,NA,incomplete,234,shape,1,left,Blue_Star_Grid_2.jpg,Red_Star_Stripes_4.jpg,Blue_Plus_Chess_1.jpg,right,1730.8949999986216,false,high,false
RWdqfTwB,3j6bhnx0vc5zv8hudcso2u6bq3dnka,35ldd5557ehv0auosdiqezd27cnmk2,RWdqfTwB,2020-0188,2020-05-21,17:30:12,18:08:09,NA,incomplete,235,shape,0,left,Blue_Triangle_Grid_3.jpg,Purple_Triangle_Dots_2.jpg,Blue_Star_Stripes_4.jpg,left,657.8800000008196,true,high,false
RWdqfTwB,3j6bhnx0vc5zv8hudcso2u6bq3dnka,35ldd5557ehv0auosdiqezd27cnmk2,RWdqfTwB,2020-0188,2020-05-21,17:30:12,18:08:09,NA,incomplete,236,shape,1,right,Purple_Triangle_Dots_1.jpg,Purple_Star_Chess_2.jpg,Blue_Triangle_Grid_4.jpg,right,611.7250000005588,true,high,false
RWdqfTwB,3j6bhnx0vc5zv8hudcso2u6bq3dnka,35ldd5557ehv0auosdiqezd27cnmk2,RWdqfTwB,2020-0188,2020-05-21,17:30:12,18:08:09,NA,incomplete,237,shape,1,left,Purple_Circle_Stripes_3.jpg,Green_Circle_Chess_1.jpg,Purple_Triangle_Dots_2.jpg,right,578.4350000014529,false,high,false
RWdqfTwB,3j6bhnx0vc5zv8hudcso2u6bq3dnka,35ldd5557ehv0auosdiqezd27cnmk2,RWdqfTwB,2020-0188,2020-05-21,17:30:12,18:08:09,NA,incomplete,238,shape,1,left,Blue_Circle_Chess_2.jpg,Purple_Circle_Stripes_3.jpg,Blue_Triangle_Dots_4.jpg,right,675.1800000001676,false,high,false
RWdqfTwB,3j6bhnx0vc5zv8hudcso2u6bq3dnka,35ldd5557ehv0auosdiqezd27cnmk2,RWdqfTwB,2020-0188,2020-05-21,17:30:12,18:08:09,NA,incomplete,239,shape,1,right,Blue_Triangle_Dots_3.jpg,Blue_Circle_Grid_4.jpg,Green_Triangle_Stripes_1.jpg,left,727.0499999993481,false,high,false
RWdqfTwB,3j6bhnx0vc5zv8hudcso2u6bq3dnka,35ldd5557ehv0auosdiqezd27cnmk2,RWdqfTwB,2020-0188,2020-05-21,17:30:12,18:08:09,NA,NA,instruction example,filling,NA,NA,Red_Star_Chess_1.jpg,Blue_Triangle_Chess_4.jpg,Purple_Circle_Grid_1.jpg,NA,NA,NA,NA,undefined
RWdqfTwB,3j6bhnx0vc5zv8hudcso2u6bq3dnka,35ldd5557ehv0auosdiqezd27cnmk2,RWdqfTwB,2020-0188,2020-05-21,17:30:12,18:08:09,NA,NA,instruction example,filling,NA,NA,Blue_Circle_Dots_2.jpg,Red_Plus_Stripes_2.jpg,Green_Star_Dots_4.jpg,NA,NA,NA,NA,undefined
RWdqfTwB,3j6bhnx0vc5zv8hudcso2u6bq3dnka,35ldd5557ehv0auosdiqezd27cnmk2,RWdqfTwB,2020-0188,2020-05-21,17:30:12,18:08:09,NA,NA,instruction example,filling,NA,NA,Green_Circle_Dots_1.jpg,Green_Triangle_Stripes_4.jpg,Purple_Circle_Grid_2.jpg,NA,NA,NA,NA,undefined
RWdqfTwB,3j6bhnx0vc5zv8hudcso2u6bq3dnka,35ldd5557ehv0auosdiqezd27cnmk2,RWdqfTwB,2020-0188,2020-05-21,17:30:12,18:08:09,NA,NA,instruction example,filling,NA,NA,Green_Star_Dots_3.jpg,Purple_Star_Chess_1.jpg,Green_Circle_Stripes_2.jpg,NA,NA,NA,NA,undefined
RWdqfTwB,3j6bhnx0vc5zv8hudcso2u6bq3dnka,35ldd5557ehv0auosdiqezd27cnmk2,RWdqfTwB,2020-0188,2020-05-21,17:30:12,18:08:09,2252008.6199999996,2279458.085000001,NA,NA,NA,NA,NA,NA,NA,NA,NA,NA,NA,undefined
