workerId,hitId,assignmentId,subject,studyid,exp_date,exp_start,exp_end,time_start,time_end,trial,type,reward_validity,answer,image_top,image_left,image_right,response,response_time,response_acc,volatility,age,race,gender,ethnicity,color,vision,neuro,practice
POKowPNY,3ac6mfv6anv2a7u5af0lkpxs80hhzh,373erpl3ysll09x3rusz1pu8wc1rtp,POKowPNY,2020-0188,2020-05-21,17:55:35,18:12:54,NA,incomplete,0,filling,1,left,Blue_Plus_Chess_4.jpg,Red_Star_Chess_3.jpg,Blue_Circle_Grid_2.jpg,left,1867.8999999538064,true,NA,NA,NA,NA,NA,NA,NA,NA,true
POKowPNY,3ac6mfv6anv2a7u5af0lkpxs80hhzh,373erpl3ysll09x3rusz1pu8wc1rtp,POKowPNY,2020-0188,2020-05-21,17:55:35,18:12:54,NA,incomplete,1,filling,1,left,Green_Triangle_Chess_4.jpg,Blue_Star_Chess_1.jpg,Green_Circle_Dots_2.jpg,left,1408.735000062734,true,NA,NA,NA,NA,NA,NA,NA,NA,true
POKowPNY,3ac6mfv6anv2a7u5af0lkpxs80hhzh,373erpl3ysll09x3rusz1pu8wc1rtp,POKowPNY,2020-0188,2020-05-21,17:55:35,18:12:54,NA,incomplete,2,filling,1,left,Green_Triangle_Stripes_3.jpg,Purple_Circle_Stripes_4.jpg,Green_Plus_Chess_2.jpg,left,1239.5300000207499,true,NA,NA,NA,NA,NA,NA,NA,NA,true
POKowPNY,3ac6mfv6anv2a7u5af0lkpxs80hhzh,373erpl3ysll09x3rusz1pu8wc1rtp,POKowPNY,2020-0188,2020-05-21,17:55:35,18:12:54,NA,incomplete,3,filling,1,left,Green_Star_Dots_2.jpg,Purple_Triangle_Dots_1.jpg,Green_Circle_Chess_4.jpg,left,1221.8400000128895,true,NA,NA,NA,NA,NA,NA,NA,NA,true
POKowPNY,3ac6mfv6anv2a7u5af0lkpxs80hhzh,373erpl3ysll09x3rusz1pu8wc1rtp,POKowPNY,2020-0188,2020-05-21,17:55:35,18:12:54,NA,incomplete,4,filling,1,left,Purple_Triangle_Dots_4.jpg,Blue_Circle_Dots_1.jpg,Purple_Star_Stripes_3.jpg,left,940.5249999836087,true,NA,NA,NA,NA,NA,NA,NA,NA,true
POKowPNY,3ac6mfv6anv2a7u5af0lkpxs80hhzh,373erpl3ysll09x3rusz1pu8wc1rtp,POKowPNY,2020-0188,2020-05-21,17:55:35,18:12:54,NA,incomplete,5,filling,1,left,Purple_Plus_Chess_4.jpg,Blue_Star_Chess_1.jpg,Purple_Circle_Dots_2.jpg,left,1095.8000000100583,true,NA,NA,NA,NA,NA,NA,NA,NA,true
POKowPNY,3ac6mfv6anv2a7u5af0lkpxs80hhzh,373erpl3ysll09x3rusz1pu8wc1rtp,POKowPNY,2020-0188,2020-05-21,17:55:35,18:12:54,NA,incomplete,6,filling,1,left,Blue_Triangle_Grid_3.jpg,Green_Star_Grid_1.jpg,Blue_Plus_Stripes_2.jpg,left,1251.6349999932572,true,NA,NA,NA,NA,NA,NA,NA,NA,true
POKowPNY,3ac6mfv6anv2a7u5af0lkpxs80hhzh,373erpl3ysll09x3rusz1pu8wc1rtp,POKowPNY,2020-0188,2020-05-21,17:55:35,18:12:54,NA,incomplete,7,filling,0,left,Blue_Circle_Dots_4.jpg,Purple_Plus_Dots_3.jpg,Blue_Triangle_Grid_1.jpg,left,1067.0099999988452,true,NA,NA,NA,NA,NA,NA,NA,NA,true
POKowPNY,3ac6mfv6anv2a7u5af0lkpxs80hhzh,373erpl3ysll09x3rusz1pu8wc1rtp,POKowPNY,2020-0188,2020-05-21,17:55:35,18:12:54,NA,incomplete,8,filling,1,right,Purple_Star_Dots_4.jpg,Purple_Plus_Chess_1.jpg,Green_Triangle_Dots_3.jpg,right,1374.9750000424683,true,NA,NA,NA,NA,NA,NA,NA,NA,true
POKowPNY,3ac6mfv6anv2a7u5af0lkpxs80hhzh,373erpl3ysll09x3rusz1pu8wc1rtp,POKowPNY,2020-0188,2020-05-21,17:55:35,18:12:54,NA,incomplete,9,filling,1,right,Green_Circle_Chess_1.jpg,Green_Star_Grid_3.jpg,Purple_Plus_Chess_4.jpg,right,1303.4800000023097,true,NA,NA,NA,NA,NA,NA,NA,NA,true
POKowPNY,3ac6mfv6anv2a7u5af0lkpxs80hhzh,373erpl3ysll09x3rusz1pu8wc1rtp,POKowPNY,2020-0188,2020-05-21,17:55:35,18:12:54,NA,incomplete,10,filling,1,left,Green_Circle_Stripes_2.jpg,Blue_Star_Stripes_4.jpg,Green_Triangle_Dots_3.jpg,left,1075.4099999321625,true,NA,NA,NA,NA,NA,NA,NA,NA,true
POKowPNY,3ac6mfv6anv2a7u5af0lkpxs80hhzh,373erpl3ysll09x3rusz1pu8wc1rtp,POKowPNY,2020-0188,2020-05-21,17:55:35,18:12:54,NA,incomplete,11,filling,1,right,Green_Star_Dots_4.jpg,Green_Triangle_Grid_2.jpg,Red_Circle_Dots_3.jpg,right,1104.0199999697506,true,NA,NA,NA,NA,NA,NA,NA,NA,true
POKowPNY,3ac6mfv6anv2a7u5af0lkpxs80hhzh,373erpl3ysll09x3rusz1pu8wc1rtp,POKowPNY,2020-0188,2020-05-21,17:55:35,18:12:54,NA,incomplete,12,filling,0,right,Green_Circle_Chess_2.jpg,Green_Star_Dots_4.jpg,Blue_Plus_Chess_3.jpg,right,1275.080000050366,true,NA,NA,NA,NA,NA,NA,NA,NA,true
POKowPNY,3ac6mfv6anv2a7u5af0lkpxs80hhzh,373erpl3ysll09x3rusz1pu8wc1rtp,POKowPNY,2020-0188,2020-05-21,17:55:35,18:12:54,NA,incomplete,13,filling,1,left,Blue_Triangle_Stripes_2.jpg,Green_Plus_Stripes_4.jpg,Blue_Star_Grid_1.jpg,left,1128.2999999821186,true,NA,NA,NA,NA,NA,NA,NA,NA,true
POKowPNY,3ac6mfv6anv2a7u5af0lkpxs80hhzh,373erpl3ysll09x3rusz1pu8wc1rtp,POKowPNY,2020-0188,2020-05-21,17:55:35,18:12:54,NA,incomplete,14,filling,1,left,Red_Circle_Chess_1.jpg,Blue_Star_Chess_3.jpg,Red_Triangle_Grid_4.jpg,left,1155.6099998997524,true,NA,NA,NA,NA,NA,NA,NA,NA,true
POKowPNY,3ac6mfv6anv2a7u5af0lkpxs80hhzh,373erpl3ysll09x3rusz1pu8wc1rtp,POKowPNY,2020-0188,2020-05-21,17:55:35,18:12:54,NA,incomplete,15,filling,1,left,Green_Star_Grid_2.jpg,Blue_Plus_Grid_4.jpg,Green_Circle_Stripes_3.jpg,left,1461.200000019744,true,NA,NA,NA,NA,NA,NA,NA,NA,true
POKowPNY,3ac6mfv6anv2a7u5af0lkpxs80hhzh,373erpl3ysll09x3rusz1pu8wc1rtp,POKowPNY,2020-0188,2020-05-21,17:55:35,18:12:54,NA,incomplete,16,filling,0,right,Purple_Circle_Stripes_2.jpg,Purple_Triangle_Grid_4.jpg,Green_Plus_Stripes_1.jpg,right,1177.875000052154,true,NA,NA,NA,NA,NA,NA,NA,NA,true
POKowPNY,3ac6mfv6anv2a7u5af0lkpxs80hhzh,373erpl3ysll09x3rusz1pu8wc1rtp,POKowPNY,2020-0188,2020-05-21,17:55:35,18:12:54,NA,incomplete,17,filling,1,right,Blue_Triangle_Dots_2.jpg,Blue_Plus_Chess_4.jpg,Purple_Star_Dots_1.jpg,right,1243.0150000145659,true,NA,NA,NA,NA,NA,NA,NA,NA,true
POKowPNY,3ac6mfv6anv2a7u5af0lkpxs80hhzh,373erpl3ysll09x3rusz1pu8wc1rtp,POKowPNY,2020-0188,2020-05-21,17:55:35,18:12:54,NA,incomplete,18,filling,1,right,Purple_Star_Dots_4.jpg,Purple_Circle_Grid_2.jpg,Blue_Triangle_Dots_3.jpg,right,1193.1399999884889,true,NA,NA,NA,NA,NA,NA,NA,NA,true
POKowPNY,3ac6mfv6anv2a7u5af0lkpxs80hhzh,373erpl3ysll09x3rusz1pu8wc1rtp,POKowPNY,2020-0188,2020-05-21,17:55:35,18:12:54,NA,incomplete,19,filling,1,left,Green_Plus_Chess_3.jpg,Red_Star_Chess_2.jpg,Green_Triangle_Grid_4.jpg,left,1257.700000074692,true,NA,NA,NA,NA,NA,NA,NA,NA,true
POKowPNY,3ac6mfv6anv2a7u5af0lkpxs80hhzh,373erpl3ysll09x3rusz1pu8wc1rtp,POKowPNY,2020-0188,2020-05-21,17:55:35,18:12:54,NA,incomplete,20,color,0,right,Red_Triangle_Stripes_2.jpg,Green_Circle_Stripes_1.jpg,Red_Plus_Grid_3.jpg,left,1134.2749999603257,false,NA,NA,NA,NA,NA,NA,NA,NA,true
POKowPNY,3ac6mfv6anv2a7u5af0lkpxs80hhzh,373erpl3ysll09x3rusz1pu8wc1rtp,POKowPNY,2020-0188,2020-05-21,17:55:35,18:12:54,NA,incomplete,21,color,1,left,Red_Star_Chess_2.jpg,Red_Plus_Grid_3.jpg,Blue_Circle_Chess_4.jpg,right,1049.2150000063702,false,NA,NA,NA,NA,NA,NA,NA,NA,true
POKowPNY,3ac6mfv6anv2a7u5af0lkpxs80hhzh,373erpl3ysll09x3rusz1pu8wc1rtp,POKowPNY,2020-0188,2020-05-21,17:55:35,18:12:54,NA,incomplete,22,color,1,left,Red_Plus_Grid_1.jpg,Red_Star_Chess_4.jpg,Purple_Circle_Grid_3.jpg,left,1232.0249999174848,true,NA,NA,NA,NA,NA,NA,NA,NA,true
POKowPNY,3ac6mfv6anv2a7u5af0lkpxs80hhzh,373erpl3ysll09x3rusz1pu8wc1rtp,POKowPNY,2020-0188,2020-05-21,17:55:35,18:12:54,NA,incomplete,23,color,1,left,Green_Triangle_Chess_2.jpg,Green_Circle_Grid_1.jpg,Blue_Plus_Chess_3.jpg,left,959.510000073351,true,NA,NA,NA,NA,NA,NA,NA,NA,true
POKowPNY,3ac6mfv6anv2a7u5af0lkpxs80hhzh,373erpl3ysll09x3rusz1pu8wc1rtp,POKowPNY,2020-0188,2020-05-21,17:55:35,18:12:54,NA,incomplete,24,color,1,left,Green_Star_Dots_4.jpg,Green_Plus_Grid_3.jpg,Red_Circle_Dots_2.jpg,left,720.8999999566004,true,NA,NA,NA,NA,NA,NA,NA,NA,true
POKowPNY,3ac6mfv6anv2a7u5af0lkpxs80hhzh,373erpl3ysll09x3rusz1pu8wc1rtp,POKowPNY,2020-0188,2020-05-21,17:55:35,18:12:54,NA,incomplete,25,color,1,right,Purple_Triangle_Dots_2.jpg,Red_Star_Dots_1.jpg,Purple_Circle_Chess_4.jpg,right,1093.2349999202415,true,NA,NA,NA,NA,NA,NA,NA,NA,true
POKowPNY,3ac6mfv6anv2a7u5af0lkpxs80hhzh,373erpl3ysll09x3rusz1pu8wc1rtp,POKowPNY,2020-0188,2020-05-21,17:55:35,18:12:54,NA,incomplete,26,color,1,left,Blue_Plus_Grid_2.jpg,Blue_Triangle_Chess_4.jpg,Green_Star_Grid_1.jpg,left,824.7999999439344,true,NA,NA,NA,NA,NA,NA,NA,NA,true
POKowPNY,3ac6mfv6anv2a7u5af0lkpxs80hhzh,373erpl3ysll09x3rusz1pu8wc1rtp,POKowPNY,2020-0188,2020-05-21,17:55:35,18:12:54,NA,incomplete,27,color,1,left,Green_Triangle_Grid_4.jpg,Green_Star_Dots_3.jpg,Red_Plus_Grid_1.jpg,left,799.390000058338,true,NA,NA,NA,NA,NA,NA,NA,NA,true
POKowPNY,3ac6mfv6anv2a7u5af0lkpxs80hhzh,373erpl3ysll09x3rusz1pu8wc1rtp,POKowPNY,2020-0188,2020-05-21,17:55:35,18:12:54,NA,incomplete,28,color,0,left,Blue_Circle_Stripes_2.jpg,Blue_Triangle_Dots_1.jpg,Green_Plus_Stripes_4.jpg,left,1097.4700000369921,true,NA,NA,NA,NA,NA,NA,NA,NA,true
POKowPNY,3ac6mfv6anv2a7u5af0lkpxs80hhzh,373erpl3ysll09x3rusz1pu8wc1rtp,POKowPNY,2020-0188,2020-05-21,17:55:35,18:12:54,NA,incomplete,29,color,1,right,Purple_Star_Stripes_1.jpg,Blue_Plus_Stripes_3.jpg,Purple_Triangle_Chess_2.jpg,right,989.8050000192598,true,NA,NA,NA,NA,NA,NA,NA,NA,true
POKowPNY,3ac6mfv6anv2a7u5af0lkpxs80hhzh,373erpl3ysll09x3rusz1pu8wc1rtp,POKowPNY,2020-0188,2020-05-21,17:55:35,18:12:54,NA,incomplete,30,color,0,left,Purple_Plus_Chess_2.jpg,Purple_Star_Dots_4.jpg,Green_Triangle_Chess_1.jpg,left,862.3999999836087,true,NA,NA,NA,NA,NA,NA,NA,NA,true
POKowPNY,3ac6mfv6anv2a7u5af0lkpxs80hhzh,373erpl3ysll09x3rusz1pu8wc1rtp,POKowPNY,2020-0188,2020-05-21,17:55:35,18:12:54,NA,incomplete,31,color,1,right,Red_Star_Grid_2.jpg,Blue_Circle_Grid_1.jpg,Red_Triangle_Stripes_4.jpg,right,820.3750000102445,true,NA,NA,NA,NA,NA,NA,NA,NA,true
POKowPNY,3ac6mfv6anv2a7u5af0lkpxs80hhzh,373erpl3ysll09x3rusz1pu8wc1rtp,POKowPNY,2020-0188,2020-05-21,17:55:35,18:12:54,NA,incomplete,32,color,1,right,Red_Triangle_Grid_4.jpg,Blue_Circle_Grid_2.jpg,Red_Plus_Chess_1.jpg,right,1155.8100000256673,true,NA,NA,NA,NA,NA,NA,NA,NA,true
POKowPNY,3ac6mfv6anv2a7u5af0lkpxs80hhzh,373erpl3ysll09x3rusz1pu8wc1rtp,POKowPNY,2020-0188,2020-05-21,17:55:35,18:12:54,NA,incomplete,33,color,1,right,Red_Triangle_Dots_3.jpg,Green_Star_Dots_2.jpg,Red_Circle_Grid_1.jpg,right,774.0299999713898,true,NA,NA,NA,NA,NA,NA,NA,NA,true
POKowPNY,3ac6mfv6anv2a7u5af0lkpxs80hhzh,373erpl3ysll09x3rusz1pu8wc1rtp,POKowPNY,2020-0188,2020-05-21,17:55:35,18:12:54,NA,incomplete,34,color,1,left,Purple_Triangle_Chess_2.jpg,Purple_Star_Grid_1.jpg,Blue_Plus_Chess_3.jpg,left,854.7649999381974,true,NA,NA,NA,NA,NA,NA,NA,NA,true
POKowPNY,3ac6mfv6anv2a7u5af0lkpxs80hhzh,373erpl3ysll09x3rusz1pu8wc1rtp,POKowPNY,2020-0188,2020-05-21,17:55:35,18:12:54,NA,incomplete,35,color,1,right,Purple_Triangle_Chess_4.jpg,Red_Circle_Chess_1.jpg,Purple_Plus_Dots_2.jpg,right,908.8599999668077,true,NA,NA,NA,NA,NA,NA,NA,NA,true
POKowPNY,3ac6mfv6anv2a7u5af0lkpxs80hhzh,373erpl3ysll09x3rusz1pu8wc1rtp,POKowPNY,2020-0188,2020-05-21,17:55:35,18:12:54,NA,incomplete,36,color,0,right,Red_Circle_Dots_2.jpg,Purple_Star_Dots_4.jpg,Red_Triangle_Grid_1.jpg,right,1128.9749999996275,true,NA,NA,NA,NA,NA,NA,NA,NA,true
POKowPNY,3ac6mfv6anv2a7u5af0lkpxs80hhzh,373erpl3ysll09x3rusz1pu8wc1rtp,POKowPNY,2020-0188,2020-05-21,17:55:35,18:12:54,NA,incomplete,37,color,1,right,Red_Circle_Chess_4.jpg,Blue_Star_Chess_2.jpg,Red_Triangle_Dots_3.jpg,right,691.1500000860542,true,NA,NA,NA,NA,NA,NA,NA,NA,true
POKowPNY,3ac6mfv6anv2a7u5af0lkpxs80hhzh,373erpl3ysll09x3rusz1pu8wc1rtp,POKowPNY,2020-0188,2020-05-21,17:55:35,18:12:54,NA,incomplete,38,color,1,right,Green_Triangle_Stripes_1.jpg,Purple_Star_Stripes_4.jpg,Green_Circle_Chess_3.jpg,right,809.5500000054017,true,NA,NA,NA,NA,NA,NA,NA,NA,true
POKowPNY,3ac6mfv6anv2a7u5af0lkpxs80hhzh,373erpl3ysll09x3rusz1pu8wc1rtp,POKowPNY,2020-0188,2020-05-21,17:55:35,18:12:54,NA,incomplete,39,color,0,right,Purple_Star_Grid_2.jpg,Green_Triangle_Grid_3.jpg,Purple_Plus_Stripes_4.jpg,right,633.1550000468269,true,NA,NA,NA,NA,NA,NA,NA,NA,true
POKowPNY,3ac6mfv6anv2a7u5af0lkpxs80hhzh,373erpl3ysll09x3rusz1pu8wc1rtp,POKowPNY,2020-0188,2020-05-21,17:55:35,18:12:54,NA,incomplete,0,filling,1,right,Green_Plus_Chess_1.jpg,Green_Circle_Grid_3.jpg,Purple_Star_Chess_2.jpg,left,1401.0100000305101,false,low,NA,NA,NA,NA,NA,NA,NA,false
POKowPNY,3ac6mfv6anv2a7u5af0lkpxs80hhzh,373erpl3ysll09x3rusz1pu8wc1rtp,POKowPNY,2020-0188,2020-05-21,17:55:35,18:12:54,NA,incomplete,1,filling,1,left,Red_Circle_Chess_1.jpg,Green_Plus_Chess_4.jpg,Red_Star_Stripes_3.jpg,right,1401.0700000217184,false,low,NA,NA,NA,NA,NA,NA,NA,false
POKowPNY,3ac6mfv6anv2a7u5af0lkpxs80hhzh,373erpl3ysll09x3rusz1pu8wc1rtp,POKowPNY,2020-0188,2020-05-21,17:55:35,18:12:54,NA,incomplete,2,filling,1,left,Green_Triangle_Stripes_3.jpg,Blue_Plus_Stripes_1.jpg,Green_Circle_Dots_2.jpg,left,1632.975000073202,true,low,NA,NA,NA,NA,NA,NA,NA,false
POKowPNY,3ac6mfv6anv2a7u5af0lkpxs80hhzh,373erpl3ysll09x3rusz1pu8wc1rtp,POKowPNY,2020-0188,2020-05-21,17:55:35,18:12:54,NA,incomplete,3,filling,0,left,Blue_Plus_Chess_4.jpg,Green_Circle_Chess_1.jpg,Blue_Star_Dots_2.jpg,left,1031.6450000973418,true,low,NA,NA,NA,NA,NA,NA,NA,false
POKowPNY,3ac6mfv6anv2a7u5af0lkpxs80hhzh,373erpl3ysll09x3rusz1pu8wc1rtp,POKowPNY,2020-0188,2020-05-21,17:55:35,18:12:54,NA,incomplete,4,filling,0,left,Green_Plus_Stripes_3.jpg,Red_Star_Stripes_2.jpg,Green_Circle_Grid_4.jpg,left,1533.735000062734,true,low,NA,NA,NA,NA,NA,NA,NA,false
POKowPNY,3ac6mfv6anv2a7u5af0lkpxs80hhzh,373erpl3ysll09x3rusz1pu8wc1rtp,POKowPNY,2020-0188,2020-05-21,17:55:35,18:12:54,NA,incomplete,5,filling,1,right,Green_Triangle_Stripes_1.jpg,Green_Star_Dots_3.jpg,Purple_Plus_Stripes_2.jpg,right,1663.9750000322238,true,low,NA,NA,NA,NA,NA,NA,NA,false
POKowPNY,3ac6mfv6anv2a7u5af0lkpxs80hhzh,373erpl3ysll09x3rusz1pu8wc1rtp,POKowPNY,2020-0188,2020-05-21,17:55:35,18:12:54,NA,incomplete,6,filling,1,left,Green_Triangle_Grid_3.jpg,Red_Star_Grid_4.jpg,Green_Plus_Chess_2.jpg,left,1093.4799999231473,true,low,NA,NA,NA,NA,NA,NA,NA,false
POKowPNY,3ac6mfv6anv2a7u5af0lkpxs80hhzh,373erpl3ysll09x3rusz1pu8wc1rtp,POKowPNY,2020-0188,2020-05-21,17:55:35,18:12:54,NA,incomplete,7,filling,1,left,Red_Plus_Grid_1.jpg,Blue_Star_Grid_2.jpg,Red_Triangle_Chess_3.jpg,left,1121.75000004936,true,low,NA,NA,NA,NA,NA,NA,NA,false
POKowPNY,3ac6mfv6anv2a7u5af0lkpxs80hhzh,373erpl3ysll09x3rusz1pu8wc1rtp,POKowPNY,2020-0188,2020-05-21,17:55:35,18:12:54,NA,incomplete,8,filling,1,left,Blue_Circle_Stripes_1.jpg,Green_Plus_Stripes_2.jpg,Blue_Star_Grid_4.jpg,left,996.1549999425188,true,low,NA,NA,NA,NA,NA,NA,NA,false
POKowPNY,3ac6mfv6anv2a7u5af0lkpxs80hhzh,373erpl3ysll09x3rusz1pu8wc1rtp,POKowPNY,2020-0188,2020-05-21,17:55:35,18:12:54,NA,incomplete,9,filling,1,right,Red_Plus_Grid_4.jpg,Red_Circle_Chess_1.jpg,Purple_Triangle_Grid_2.jpg,right,1108.8199999649078,true,low,NA,NA,NA,NA,NA,NA,NA,false
POKowPNY,3ac6mfv6anv2a7u5af0lkpxs80hhzh,373erpl3ysll09x3rusz1pu8wc1rtp,POKowPNY,2020-0188,2020-05-21,17:55:35,18:12:54,NA,incomplete,10,filling,1,left,Blue_Plus_Grid_4.jpg,Red_Triangle_Grid_1.jpg,Blue_Star_Dots_2.jpg,left,1024.5750000467524,true,low,NA,NA,NA,NA,NA,NA,NA,false
POKowPNY,3ac6mfv6anv2a7u5af0lkpxs80hhzh,373erpl3ysll09x3rusz1pu8wc1rtp,POKowPNY,2020-0188,2020-05-21,17:55:35,18:12:54,NA,incomplete,11,filling,0,left,Green_Plus_Grid_4.jpg,Blue_Triangle_Grid_1.jpg,Green_Star_Chess_3.jpg,left,1415.999999968335,true,low,NA,NA,NA,NA,NA,NA,NA,false
POKowPNY,3ac6mfv6anv2a7u5af0lkpxs80hhzh,373erpl3ysll09x3rusz1pu8wc1rtp,POKowPNY,2020-0188,2020-05-21,17:55:35,18:12:54,NA,incomplete,12,filling,1,left,Purple_Triangle_Chess_1.jpg,Blue_Plus_Chess_3.jpg,Purple_Circle_Dots_2.jpg,right,1135.0150000071153,false,low,NA,NA,NA,NA,NA,NA,NA,false
POKowPNY,3ac6mfv6anv2a7u5af0lkpxs80hhzh,373erpl3ysll09x3rusz1pu8wc1rtp,POKowPNY,2020-0188,2020-05-21,17:55:35,18:12:54,NA,incomplete,13,filling,1,left,Blue_Triangle_Dots_1.jpg,Purple_Plus_Dots_3.jpg,Blue_Circle_Chess_2.jpg,left,977.9050000943244,true,low,NA,NA,NA,NA,NA,NA,NA,false
POKowPNY,3ac6mfv6anv2a7u5af0lkpxs80hhzh,373erpl3ysll09x3rusz1pu8wc1rtp,POKowPNY,2020-0188,2020-05-21,17:55:35,18:12:54,NA,incomplete,14,filling,1,right,Green_Circle_Chess_3.jpg,Green_Plus_Grid_2.jpg,Red_Triangle_Chess_4.jpg,right,1043.294999981299,true,low,NA,NA,NA,NA,NA,NA,NA,false
POKowPNY,3ac6mfv6anv2a7u5af0lkpxs80hhzh,373erpl3ysll09x3rusz1pu8wc1rtp,POKowPNY,2020-0188,2020-05-21,17:55:35,18:12:54,NA,incomplete,15,filling,0,left,Green_Triangle_Chess_3.jpg,Purple_Circle_Chess_1.jpg,Green_Plus_Dots_4.jpg,left,922.4249999970198,true,low,NA,NA,NA,NA,NA,NA,NA,false
POKowPNY,3ac6mfv6anv2a7u5af0lkpxs80hhzh,373erpl3ysll09x3rusz1pu8wc1rtp,POKowPNY,2020-0188,2020-05-21,17:55:35,18:12:54,NA,incomplete,16,filling,0,left,Purple_Star_Dots_1.jpg,Red_Circle_Dots_3.jpg,Purple_Plus_Chess_4.jpg,right,1212.279999977909,false,low,NA,NA,NA,NA,NA,NA,NA,false
POKowPNY,3ac6mfv6anv2a7u5af0lkpxs80hhzh,373erpl3ysll09x3rusz1pu8wc1rtp,POKowPNY,2020-0188,2020-05-21,17:55:35,18:12:54,NA,incomplete,17,filling,0,right,Blue_Circle_Stripes_2.jpg,Blue_Plus_Dots_3.jpg,Purple_Triangle_Stripes_1.jpg,left,708.3900000434369,false,low,NA,NA,NA,NA,NA,NA,NA,false
POKowPNY,3ac6mfv6anv2a7u5af0lkpxs80hhzh,373erpl3ysll09x3rusz1pu8wc1rtp,POKowPNY,2020-0188,2020-05-21,17:55:35,18:12:54,NA,incomplete,18,filling,0,left,Purple_Circle_Stripes_1.jpg,Green_Plus_Stripes_4.jpg,Purple_Star_Chess_2.jpg,right,672.5099999457598,false,low,NA,NA,NA,NA,NA,NA,NA,false
POKowPNY,3ac6mfv6anv2a7u5af0lkpxs80hhzh,373erpl3ysll09x3rusz1pu8wc1rtp,POKowPNY,2020-0188,2020-05-21,17:55:35,18:12:54,NA,incomplete,19,filling,1,right,Red_Circle_Chess_1.jpg,Red_Plus_Dots_4.jpg,Blue_Star_Chess_3.jpg,left,718.3149999473244,false,low,NA,NA,NA,NA,NA,NA,NA,false
POKowPNY,3ac6mfv6anv2a7u5af0lkpxs80hhzh,373erpl3ysll09x3rusz1pu8wc1rtp,POKowPNY,2020-0188,2020-05-21,17:55:35,18:12:54,NA,incomplete,20,filling,0,left,Green_Plus_Grid_1.jpg,Red_Triangle_Grid_3.jpg,Green_Star_Dots_2.jpg,right,834.0199999511242,false,low,NA,NA,NA,NA,NA,NA,NA,false
POKowPNY,3ac6mfv6anv2a7u5af0lkpxs80hhzh,373erpl3ysll09x3rusz1pu8wc1rtp,POKowPNY,2020-0188,2020-05-21,17:55:35,18:12:54,NA,incomplete,21,filling,1,right,Purple_Plus_Stripes_3.jpg,Purple_Star_Dots_2.jpg,Blue_Triangle_Stripes_1.jpg,left,640.830000047572,false,low,NA,NA,NA,NA,NA,NA,NA,false
POKowPNY,3ac6mfv6anv2a7u5af0lkpxs80hhzh,373erpl3ysll09x3rusz1pu8wc1rtp,POKowPNY,2020-0188,2020-05-21,17:55:35,18:12:54,NA,incomplete,22,filling,1,right,Blue_Star_Grid_1.jpg,Blue_Circle_Chess_2.jpg,Purple_Triangle_Grid_3.jpg,left,1001.5099999727681,false,low,NA,NA,NA,NA,NA,NA,NA,false
POKowPNY,3ac6mfv6anv2a7u5af0lkpxs80hhzh,373erpl3ysll09x3rusz1pu8wc1rtp,POKowPNY,2020-0188,2020-05-21,17:55:35,18:12:54,NA,incomplete,23,filling,0,left,Blue_Circle_Grid_1.jpg,Red_Star_Grid_3.jpg,Blue_Plus_Stripes_4.jpg,right,1456.4750000135973,false,low,NA,NA,NA,NA,NA,NA,NA,false
POKowPNY,3ac6mfv6anv2a7u5af0lkpxs80hhzh,373erpl3ysll09x3rusz1pu8wc1rtp,POKowPNY,2020-0188,2020-05-21,17:55:35,18:12:54,NA,incomplete,24,filling,1,left,Blue_Circle_Grid_3.jpg,Green_Triangle_Grid_1.jpg,Blue_Plus_Dots_4.jpg,left,1127.1249999990687,true,low,NA,NA,NA,NA,NA,NA,NA,false
POKowPNY,3ac6mfv6anv2a7u5af0lkpxs80hhzh,373erpl3ysll09x3rusz1pu8wc1rtp,POKowPNY,2020-0188,2020-05-21,17:55:35,18:12:54,NA,incomplete,25,filling,1,right,Purple_Circle_Stripes_1.jpg,Purple_Plus_Grid_3.jpg,Blue_Triangle_Stripes_2.jpg,right,928.6299999803305,true,low,NA,NA,NA,NA,NA,NA,NA,false
POKowPNY,3ac6mfv6anv2a7u5af0lkpxs80hhzh,373erpl3ysll09x3rusz1pu8wc1rtp,POKowPNY,2020-0188,2020-05-21,17:55:35,18:12:54,NA,incomplete,26,filling,1,right,Green_Plus_Chess_2.jpg,Green_Triangle_Dots_1.jpg,Red_Circle_Chess_3.jpg,right,915.7000000122935,true,low,NA,NA,NA,NA,NA,NA,NA,false
POKowPNY,3ac6mfv6anv2a7u5af0lkpxs80hhzh,373erpl3ysll09x3rusz1pu8wc1rtp,POKowPNY,2020-0188,2020-05-21,17:55:35,18:12:54,NA,incomplete,27,filling,1,right,Blue_Plus_Chess_3.jpg,Blue_Triangle_Grid_2.jpg,Green_Star_Chess_1.jpg,right,943.7600000528619,true,low,NA,NA,NA,NA,NA,NA,NA,false
POKowPNY,3ac6mfv6anv2a7u5af0lkpxs80hhzh,373erpl3ysll09x3rusz1pu8wc1rtp,POKowPNY,2020-0188,2020-05-21,17:55:35,18:12:54,NA,incomplete,28,filling,1,left,Red_Plus_Stripes_2.jpg,Green_Triangle_Stripes_1.jpg,Red_Star_Grid_3.jpg,left,834.6199999796227,true,low,NA,NA,NA,NA,NA,NA,NA,false
POKowPNY,3ac6mfv6anv2a7u5af0lkpxs80hhzh,373erpl3ysll09x3rusz1pu8wc1rtp,POKowPNY,2020-0188,2020-05-21,17:55:35,18:12:54,NA,incomplete,29,filling,1,right,Blue_Star_Chess_2.jpg,Blue_Circle_Grid_4.jpg,Purple_Plus_Chess_3.jpg,right,1051.3100000098348,true,low,NA,NA,NA,NA,NA,NA,NA,false
POKowPNY,3ac6mfv6anv2a7u5af0lkpxs80hhzh,373erpl3ysll09x3rusz1pu8wc1rtp,POKowPNY,2020-0188,2020-05-21,17:55:35,18:12:54,NA,incomplete,30,color,1,right,Blue_Circle_Dots_4.jpg,Green_Star_Dots_1.jpg,Blue_Triangle_Stripes_3.jpg,right,1463.7399999191985,true,low,NA,NA,NA,NA,NA,NA,NA,false
POKowPNY,3ac6mfv6anv2a7u5af0lkpxs80hhzh,373erpl3ysll09x3rusz1pu8wc1rtp,POKowPNY,2020-0188,2020-05-21,17:55:35,18:12:54,NA,incomplete,31,color,1,left,Green_Triangle_Stripes_2.jpg,Green_Plus_Dots_1.jpg,Red_Star_Stripes_4.jpg,left,845.3599999193102,true,low,NA,NA,NA,NA,NA,NA,NA,false
POKowPNY,3ac6mfv6anv2a7u5af0lkpxs80hhzh,373erpl3ysll09x3rusz1pu8wc1rtp,POKowPNY,2020-0188,2020-05-21,17:55:35,18:12:54,NA,incomplete,32,color,1,right,Blue_Circle_Chess_3.jpg,Green_Triangle_Chess_2.jpg,Blue_Star_Stripes_1.jpg,right,716.5599999716505,true,low,NA,NA,NA,NA,NA,NA,NA,false
POKowPNY,3ac6mfv6anv2a7u5af0lkpxs80hhzh,373erpl3ysll09x3rusz1pu8wc1rtp,POKowPNY,2020-0188,2020-05-21,17:55:35,18:12:54,NA,incomplete,33,color,1,right,Green_Triangle_Chess_4.jpg,Blue_Plus_Chess_1.jpg,Green_Circle_Stripes_2.jpg,right,672.649999964051,true,low,NA,NA,NA,NA,NA,NA,NA,false
POKowPNY,3ac6mfv6anv2a7u5af0lkpxs80hhzh,373erpl3ysll09x3rusz1pu8wc1rtp,POKowPNY,2020-0188,2020-05-21,17:55:35,18:12:54,NA,incomplete,34,color,1,right,Blue_Star_Stripes_2.jpg,Green_Triangle_Stripes_4.jpg,Blue_Plus_Chess_3.jpg,right,887.3299999395385,true,low,NA,NA,NA,NA,NA,NA,NA,false
POKowPNY,3ac6mfv6anv2a7u5af0lkpxs80hhzh,373erpl3ysll09x3rusz1pu8wc1rtp,POKowPNY,2020-0188,2020-05-21,17:55:35,18:12:54,NA,incomplete,35,color,1,right,Blue_Plus_Stripes_1.jpg,Purple_Star_Stripes_2.jpg,Blue_Circle_Grid_3.jpg,right,730.9100000420585,true,low,NA,NA,NA,NA,NA,NA,NA,false
POKowPNY,3ac6mfv6anv2a7u5af0lkpxs80hhzh,373erpl3ysll09x3rusz1pu8wc1rtp,POKowPNY,2020-0188,2020-05-21,17:55:35,18:12:54,NA,incomplete,36,color,1,left,Green_Triangle_Grid_1.jpg,Green_Circle_Stripes_4.jpg,Blue_Plus_Grid_3.jpg,left,1006.9249999942258,true,low,NA,NA,NA,NA,NA,NA,NA,false
POKowPNY,3ac6mfv6anv2a7u5af0lkpxs80hhzh,373erpl3ysll09x3rusz1pu8wc1rtp,POKowPNY,2020-0188,2020-05-21,17:55:35,18:12:54,NA,incomplete,37,color,0,left,Purple_Triangle_Dots_3.jpg,Purple_Star_Grid_4.jpg,Blue_Plus_Dots_1.jpg,left,902.3949999827892,true,low,NA,NA,NA,NA,NA,NA,NA,false
POKowPNY,3ac6mfv6anv2a7u5af0lkpxs80hhzh,373erpl3ysll09x3rusz1pu8wc1rtp,POKowPNY,2020-0188,2020-05-21,17:55:35,18:12:54,NA,incomplete,38,color,1,right,Red_Plus_Dots_3.jpg,Green_Triangle_Dots_4.jpg,Red_Circle_Stripes_1.jpg,left,1122.3800000734627,false,low,NA,NA,NA,NA,NA,NA,NA,false
POKowPNY,3ac6mfv6anv2a7u5af0lkpxs80hhzh,373erpl3ysll09x3rusz1pu8wc1rtp,POKowPNY,2020-0188,2020-05-21,17:55:35,18:12:54,NA,incomplete,39,color,1,left,Blue_Plus_Stripes_3.jpg,Blue_Circle_Dots_4.jpg,Purple_Triangle_Stripes_2.jpg,none,0,false,low,NA,NA,NA,NA,NA,NA,NA,false
POKowPNY,3ac6mfv6anv2a7u5af0lkpxs80hhzh,373erpl3ysll09x3rusz1pu8wc1rtp,POKowPNY,2020-0188,2020-05-21,17:55:35,18:12:54,NA,incomplete,40,color,1,right,Green_Plus_Stripes_3.jpg,Blue_Triangle_Stripes_4.jpg,Green_Circle_Dots_2.jpg,left,987.8899999894202,false,low,NA,NA,NA,NA,NA,NA,NA,false
POKowPNY,3ac6mfv6anv2a7u5af0lkpxs80hhzh,373erpl3ysll09x3rusz1pu8wc1rtp,POKowPNY,2020-0188,2020-05-21,17:55:35,18:12:54,NA,incomplete,41,color,0,right,Blue_Triangle_Stripes_1.jpg,Green_Plus_Stripes_3.jpg,Blue_Star_Dots_2.jpg,right,765.0799999246374,true,low,NA,NA,NA,NA,NA,NA,NA,false
POKowPNY,3ac6mfv6anv2a7u5af0lkpxs80hhzh,373erpl3ysll09x3rusz1pu8wc1rtp,POKowPNY,2020-0188,2020-05-21,17:55:35,18:12:54,NA,incomplete,42,color,1,left,Red_Star_Dots_4.jpg,Red_Circle_Grid_1.jpg,Purple_Triangle_Dots_3.jpg,right,1159.1600000392646,false,low,NA,NA,NA,NA,NA,NA,NA,false
POKowPNY,3ac6mfv6anv2a7u5af0lkpxs80hhzh,373erpl3ysll09x3rusz1pu8wc1rtp,POKowPNY,2020-0188,2020-05-21,17:55:35,18:12:54,NA,incomplete,43,color,1,right,Green_Star_Stripes_3.jpg,Red_Circle_Stripes_4.jpg,Green_Plus_Grid_2.jpg,left,1841.1749999504536,false,low,NA,NA,NA,NA,NA,NA,NA,false
POKowPNY,3ac6mfv6anv2a7u5af0lkpxs80hhzh,373erpl3ysll09x3rusz1pu8wc1rtp,POKowPNY,2020-0188,2020-05-21,17:55:35,18:12:54,NA,incomplete,44,color,1,left,Blue_Star_Stripes_2.jpg,Blue_Plus_Grid_1.jpg,Purple_Triangle_Stripes_3.jpg,right,1325.040000025183,false,low,NA,NA,NA,NA,NA,NA,NA,false
POKowPNY,3ac6mfv6anv2a7u5af0lkpxs80hhzh,373erpl3ysll09x3rusz1pu8wc1rtp,POKowPNY,2020-0188,2020-05-21,17:55:35,18:12:54,NA,incomplete,45,color,1,right,Green_Plus_Grid_3.jpg,Red_Circle_Grid_4.jpg,Green_Triangle_Chess_1.jpg,right,759.4800000078976,true,low,NA,NA,NA,NA,NA,NA,NA,false
POKowPNY,3ac6mfv6anv2a7u5af0lkpxs80hhzh,373erpl3ysll09x3rusz1pu8wc1rtp,POKowPNY,2020-0188,2020-05-21,17:55:35,18:12:54,NA,incomplete,46,color,1,left,Blue_Plus_Dots_4.jpg,Blue_Triangle_Grid_3.jpg,Purple_Star_Dots_2.jpg,left,682.5399999506772,true,low,NA,NA,NA,NA,NA,NA,NA,false
POKowPNY,3ac6mfv6anv2a7u5af0lkpxs80hhzh,373erpl3ysll09x3rusz1pu8wc1rtp,POKowPNY,2020-0188,2020-05-21,17:55:35,18:12:54,NA,incomplete,47,color,1,left,Red_Plus_Dots_1.jpg,Red_Star_Chess_3.jpg,Green_Circle_Dots_2.jpg,left,544.8150000302121,true,low,NA,NA,NA,NA,NA,NA,NA,false
POKowPNY,3ac6mfv6anv2a7u5af0lkpxs80hhzh,373erpl3ysll09x3rusz1pu8wc1rtp,POKowPNY,2020-0188,2020-05-21,17:55:35,18:12:54,NA,incomplete,48,color,1,left,Blue_Plus_Chess_4.jpg,Blue_Triangle_Dots_1.jpg,Purple_Star_Chess_3.jpg,left,612.8199999220669,true,low,NA,NA,NA,NA,NA,NA,NA,false
POKowPNY,3ac6mfv6anv2a7u5af0lkpxs80hhzh,373erpl3ysll09x3rusz1pu8wc1rtp,POKowPNY,2020-0188,2020-05-21,17:55:35,18:12:54,NA,incomplete,49,color,1,right,Purple_Triangle_Stripes_2.jpg,Red_Star_Stripes_4.jpg,Purple_Circle_Chess_3.jpg,right,1019.4650000194088,true,low,NA,NA,NA,NA,NA,NA,NA,false
POKowPNY,3ac6mfv6anv2a7u5af0lkpxs80hhzh,373erpl3ysll09x3rusz1pu8wc1rtp,POKowPNY,2020-0188,2020-05-21,17:55:35,18:12:54,NA,incomplete,50,color,1,left,Green_Triangle_Dots_1.jpg,Green_Plus_Grid_2.jpg,Red_Circle_Dots_3.jpg,left,754.8350000288337,true,low,NA,NA,NA,NA,NA,NA,NA,false
POKowPNY,3ac6mfv6anv2a7u5af0lkpxs80hhzh,373erpl3ysll09x3rusz1pu8wc1rtp,POKowPNY,2020-0188,2020-05-21,17:55:35,18:12:54,NA,incomplete,51,color,1,right,Green_Triangle_Grid_3.jpg,Red_Plus_Grid_4.jpg,Green_Circle_Chess_1.jpg,right,718.2599999941885,true,low,NA,NA,NA,NA,NA,NA,NA,false
POKowPNY,3ac6mfv6anv2a7u5af0lkpxs80hhzh,373erpl3ysll09x3rusz1pu8wc1rtp,POKowPNY,2020-0188,2020-05-21,17:55:35,18:12:54,NA,incomplete,52,color,1,right,Purple_Star_Grid_1.jpg,Blue_Plus_Grid_4.jpg,Purple_Triangle_Stripes_2.jpg,right,817.369999946095,true,low,NA,NA,NA,NA,NA,NA,NA,false
POKowPNY,3ac6mfv6anv2a7u5af0lkpxs80hhzh,373erpl3ysll09x3rusz1pu8wc1rtp,POKowPNY,2020-0188,2020-05-21,17:55:35,18:12:54,NA,incomplete,53,color,1,right,Blue_Plus_Dots_1.jpg,Green_Star_Dots_4.jpg,Blue_Circle_Stripes_3.jpg,right,761.850000009872,true,low,NA,NA,NA,NA,NA,NA,NA,false
POKowPNY,3ac6mfv6anv2a7u5af0lkpxs80hhzh,373erpl3ysll09x3rusz1pu8wc1rtp,POKowPNY,2020-0188,2020-05-21,17:55:35,18:12:54,NA,incomplete,54,color,1,right,Green_Circle_Stripes_2.jpg,Blue_Plus_Stripes_4.jpg,Green_Triangle_Grid_3.jpg,right,908.9849999872968,true,low,NA,NA,NA,NA,NA,NA,NA,false
POKowPNY,3ac6mfv6anv2a7u5af0lkpxs80hhzh,373erpl3ysll09x3rusz1pu8wc1rtp,POKowPNY,2020-0188,2020-05-21,17:55:35,18:12:54,NA,incomplete,55,color,1,right,Purple_Plus_Grid_1.jpg,Blue_Triangle_Grid_2.jpg,Purple_Star_Chess_3.jpg,right,728.000000002794,true,low,NA,NA,NA,NA,NA,NA,NA,false
POKowPNY,3ac6mfv6anv2a7u5af0lkpxs80hhzh,373erpl3ysll09x3rusz1pu8wc1rtp,POKowPNY,2020-0188,2020-05-21,17:55:35,18:12:54,NA,incomplete,56,color,1,left,Green_Plus_Grid_3.jpg,Green_Star_Chess_4.jpg,Red_Circle_Grid_1.jpg,left,787.3149999650195,true,low,NA,NA,NA,NA,NA,NA,NA,false
POKowPNY,3ac6mfv6anv2a7u5af0lkpxs80hhzh,373erpl3ysll09x3rusz1pu8wc1rtp,POKowPNY,2020-0188,2020-05-21,17:55:35,18:12:54,NA,incomplete,57,color,0,left,Red_Plus_Dots_3.jpg,Red_Star_Stripes_2.jpg,Purple_Circle_Dots_1.jpg,left,532.4750000145286,true,low,NA,NA,NA,NA,NA,NA,NA,false
POKowPNY,3ac6mfv6anv2a7u5af0lkpxs80hhzh,373erpl3ysll09x3rusz1pu8wc1rtp,POKowPNY,2020-0188,2020-05-21,17:55:35,18:12:54,NA,incomplete,58,color,1,right,Green_Plus_Chess_2.jpg,Red_Circle_Chess_3.jpg,Green_Star_Dots_4.jpg,left,1200.6149999797344,false,low,NA,NA,NA,NA,NA,NA,NA,false
POKowPNY,3ac6mfv6anv2a7u5af0lkpxs80hhzh,373erpl3ysll09x3rusz1pu8wc1rtp,POKowPNY,2020-0188,2020-05-21,17:55:35,18:12:54,NA,incomplete,59,color,1,right,Red_Triangle_Stripes_2.jpg,Purple_Circle_Stripes_3.jpg,Red_Plus_Chess_1.jpg,left,1000.6999999750406,false,low,NA,NA,NA,NA,NA,NA,NA,false
POKowPNY,3ac6mfv6anv2a7u5af0lkpxs80hhzh,373erpl3ysll09x3rusz1pu8wc1rtp,POKowPNY,2020-0188,2020-05-21,17:55:35,18:12:54,NA,incomplete,60,filling,1,right,Blue_Star_Stripes_3.jpg,Blue_Plus_Dots_4.jpg,Green_Triangle_Stripes_2.jpg,left,544.5349999936298,false,low,NA,NA,NA,NA,NA,NA,NA,false
POKowPNY,3ac6mfv6anv2a7u5af0lkpxs80hhzh,373erpl3ysll09x3rusz1pu8wc1rtp,POKowPNY,2020-0188,2020-05-21,17:55:35,18:12:54,NA,incomplete,61,filling,1,left,Purple_Star_Grid_4.jpg,Green_Plus_Grid_2.jpg,Purple_Circle_Stripes_1.jpg,left,1276.4299999689683,true,low,NA,NA,NA,NA,NA,NA,NA,false
POKowPNY,3ac6mfv6anv2a7u5af0lkpxs80hhzh,373erpl3ysll09x3rusz1pu8wc1rtp,POKowPNY,2020-0188,2020-05-21,17:55:35,18:12:54,NA,incomplete,62,filling,1,right,Red_Circle_Dots_4.jpg,Red_Plus_Chess_2.jpg,Green_Triangle_Dots_1.jpg,right,888.7600000016391,true,low,NA,NA,NA,NA,NA,NA,NA,false
POKowPNY,3ac6mfv6anv2a7u5af0lkpxs80hhzh,373erpl3ysll09x3rusz1pu8wc1rtp,POKowPNY,2020-0188,2020-05-21,17:55:35,18:12:54,NA,incomplete,63,filling,0,left,Purple_Star_Stripes_3.jpg,Blue_Triangle_Stripes_2.jpg,Purple_Plus_Chess_4.jpg,left,1061.890000011772,true,low,NA,NA,NA,NA,NA,NA,NA,false
POKowPNY,3ac6mfv6anv2a7u5af0lkpxs80hhzh,373erpl3ysll09x3rusz1pu8wc1rtp,POKowPNY,2020-0188,2020-05-21,17:55:35,18:12:54,NA,incomplete,64,filling,1,left,Green_Triangle_Chess_1.jpg,Blue_Star_Chess_2.jpg,Green_Circle_Stripes_3.jpg,left,1363.649999955669,true,low,NA,NA,NA,NA,NA,NA,NA,false
POKowPNY,3ac6mfv6anv2a7u5af0lkpxs80hhzh,373erpl3ysll09x3rusz1pu8wc1rtp,POKowPNY,2020-0188,2020-05-21,17:55:35,18:12:54,NA,incomplete,65,filling,1,left,Purple_Plus_Stripes_4.jpg,Green_Star_Stripes_1.jpg,Purple_Triangle_Grid_3.jpg,left,1005.3550000302494,true,low,NA,NA,NA,NA,NA,NA,NA,false
POKowPNY,3ac6mfv6anv2a7u5af0lkpxs80hhzh,373erpl3ysll09x3rusz1pu8wc1rtp,POKowPNY,2020-0188,2020-05-21,17:55:35,18:12:54,NA,incomplete,66,filling,1,left,Blue_Triangle_Chess_1.jpg,Green_Plus_Chess_2.jpg,Blue_Star_Dots_3.jpg,left,916.4599999785423,true,low,NA,NA,NA,NA,NA,NA,NA,false
POKowPNY,3ac6mfv6anv2a7u5af0lkpxs80hhzh,373erpl3ysll09x3rusz1pu8wc1rtp,POKowPNY,2020-0188,2020-05-21,17:55:35,18:12:54,NA,incomplete,67,filling,0,right,Green_Plus_Chess_4.jpg,Green_Circle_Grid_3.jpg,Red_Star_Chess_2.jpg,right,1641.1950000328943,true,low,NA,NA,NA,NA,NA,NA,NA,false
POKowPNY,3ac6mfv6anv2a7u5af0lkpxs80hhzh,373erpl3ysll09x3rusz1pu8wc1rtp,POKowPNY,2020-0188,2020-05-21,17:55:35,18:12:54,NA,incomplete,68,filling,1,left,Purple_Plus_Dots_4.jpg,Blue_Circle_Dots_2.jpg,Purple_Triangle_Chess_3.jpg,right,1662.1249999152496,false,low,NA,NA,NA,NA,NA,NA,NA,false
POKowPNY,3ac6mfv6anv2a7u5af0lkpxs80hhzh,373erpl3ysll09x3rusz1pu8wc1rtp,POKowPNY,2020-0188,2020-05-21,17:55:35,18:12:54,NA,incomplete,69,filling,1,left,Green_Plus_Chess_4.jpg,Red_Star_Chess_1.jpg,Green_Circle_Stripes_2.jpg,left,1258.2900000270456,true,low,NA,NA,NA,NA,NA,NA,NA,false
POKowPNY,3ac6mfv6anv2a7u5af0lkpxs80hhzh,373erpl3ysll09x3rusz1pu8wc1rtp,POKowPNY,2020-0188,2020-05-21,17:55:35,18:12:54,NA,incomplete,70,filling,1,left,Green_Star_Grid_3.jpg,Blue_Circle_Grid_2.jpg,Green_Plus_Chess_4.jpg,left,935.620000003837,true,low,NA,NA,NA,NA,NA,NA,NA,false
POKowPNY,3ac6mfv6anv2a7u5af0lkpxs80hhzh,373erpl3ysll09x3rusz1pu8wc1rtp,POKowPNY,2020-0188,2020-05-21,17:55:35,18:12:54,NA,incomplete,71,filling,0,left,Blue_Plus_Chess_2.jpg,Purple_Triangle_Chess_1.jpg,Blue_Star_Grid_4.jpg,left,915.515000000596,true,low,NA,NA,NA,NA,NA,NA,NA,false
POKowPNY,3ac6mfv6anv2a7u5af0lkpxs80hhzh,373erpl3ysll09x3rusz1pu8wc1rtp,POKowPNY,2020-0188,2020-05-21,17:55:35,18:12:54,NA,incomplete,72,filling,0,left,Blue_Circle_Dots_1.jpg,Purple_Star_Dots_2.jpg,Blue_Triangle_Chess_3.jpg,right,822.6049999939278,false,low,NA,NA,NA,NA,NA,NA,NA,false
POKowPNY,3ac6mfv6anv2a7u5af0lkpxs80hhzh,373erpl3ysll09x3rusz1pu8wc1rtp,POKowPNY,2020-0188,2020-05-21,17:55:35,18:12:54,NA,incomplete,73,filling,1,right,Blue_Star_Dots_4.jpg,Blue_Circle_Stripes_2.jpg,Purple_Plus_Dots_3.jpg,left,654.0599999716505,false,low,NA,NA,NA,NA,NA,NA,NA,false
POKowPNY,3ac6mfv6anv2a7u5af0lkpxs80hhzh,373erpl3ysll09x3rusz1pu8wc1rtp,POKowPNY,2020-0188,2020-05-21,17:55:35,18:12:54,NA,incomplete,74,filling,1,right,Green_Plus_Stripes_4.jpg,Green_Circle_Chess_1.jpg,Purple_Star_Stripes_2.jpg,left,1492.6249999552965,false,low,NA,NA,NA,NA,NA,NA,NA,false
POKowPNY,3ac6mfv6anv2a7u5af0lkpxs80hhzh,373erpl3ysll09x3rusz1pu8wc1rtp,POKowPNY,2020-0188,2020-05-21,17:55:35,18:12:54,NA,incomplete,75,filling,1,right,Purple_Circle_Dots_4.jpg,Purple_Triangle_Chess_2.jpg,Red_Plus_Dots_3.jpg,right,1089.2949999542907,true,low,NA,NA,NA,NA,NA,NA,NA,false
POKowPNY,3ac6mfv6anv2a7u5af0lkpxs80hhzh,373erpl3ysll09x3rusz1pu8wc1rtp,POKowPNY,2020-0188,2020-05-21,17:55:35,18:12:54,NA,incomplete,76,filling,0,right,Blue_Star_Stripes_4.jpg,Blue_Plus_Chess_1.jpg,Purple_Triangle_Stripes_3.jpg,right,1036.8149999994785,true,low,NA,NA,NA,NA,NA,NA,NA,false
POKowPNY,3ac6mfv6anv2a7u5af0lkpxs80hhzh,373erpl3ysll09x3rusz1pu8wc1rtp,POKowPNY,2020-0188,2020-05-21,17:55:35,18:12:54,NA,incomplete,77,filling,1,right,Purple_Star_Stripes_3.jpg,Purple_Circle_Chess_4.jpg,Blue_Triangle_Stripes_1.jpg,left,1130.8000000426546,false,low,NA,NA,NA,NA,NA,NA,NA,false
POKowPNY,3ac6mfv6anv2a7u5af0lkpxs80hhzh,373erpl3ysll09x3rusz1pu8wc1rtp,POKowPNY,2020-0188,2020-05-21,17:55:35,18:12:54,NA,incomplete,78,filling,1,left,Red_Star_Dots_3.jpg,Green_Circle_Dots_2.jpg,Red_Plus_Chess_4.jpg,right,1206.5200000070035,false,low,NA,NA,NA,NA,NA,NA,NA,false
POKowPNY,3ac6mfv6anv2a7u5af0lkpxs80hhzh,373erpl3ysll09x3rusz1pu8wc1rtp,POKowPNY,2020-0188,2020-05-21,17:55:35,18:12:54,NA,incomplete,79,filling,1,left,Green_Star_Stripes_1.jpg,Red_Plus_Stripes_4.jpg,Green_Circle_Chess_3.jpg,left,1509.8800000268966,true,low,NA,NA,NA,NA,NA,NA,NA,false
POKowPNY,3ac6mfv6anv2a7u5af0lkpxs80hhzh,373erpl3ysll09x3rusz1pu8wc1rtp,POKowPNY,2020-0188,2020-05-21,17:55:35,18:12:54,NA,incomplete,80,filling,0,right,Purple_Star_Chess_2.jpg,Purple_Plus_Grid_4.jpg,Red_Circle_Chess_1.jpg,right,1097.1450000070035,true,low,NA,NA,NA,NA,NA,NA,NA,false
POKowPNY,3ac6mfv6anv2a7u5af0lkpxs80hhzh,373erpl3ysll09x3rusz1pu8wc1rtp,POKowPNY,2020-0188,2020-05-21,17:55:35,18:12:54,NA,incomplete,81,filling,0,right,Blue_Triangle_Grid_1.jpg,Blue_Star_Dots_2.jpg,Purple_Plus_Grid_4.jpg,right,1373.0399999767542,true,low,NA,NA,NA,NA,NA,NA,NA,false
POKowPNY,3ac6mfv6anv2a7u5af0lkpxs80hhzh,373erpl3ysll09x3rusz1pu8wc1rtp,POKowPNY,2020-0188,2020-05-21,17:55:35,18:12:54,NA,incomplete,82,filling,1,left,Green_Triangle_Dots_2.jpg,Blue_Circle_Dots_3.jpg,Green_Star_Stripes_4.jpg,right,1622.099999920465,false,low,NA,NA,NA,NA,NA,NA,NA,false
POKowPNY,3ac6mfv6anv2a7u5af0lkpxs80hhzh,373erpl3ysll09x3rusz1pu8wc1rtp,POKowPNY,2020-0188,2020-05-21,17:55:35,18:12:54,NA,incomplete,83,filling,1,left,Blue_Triangle_Stripes_1.jpg,Green_Circle_Stripes_3.jpg,Blue_Plus_Grid_4.jpg,left,1163.3900000015274,true,low,NA,NA,NA,NA,NA,NA,NA,false
POKowPNY,3ac6mfv6anv2a7u5af0lkpxs80hhzh,373erpl3ysll09x3rusz1pu8wc1rtp,POKowPNY,2020-0188,2020-05-21,17:55:35,18:12:54,NA,incomplete,84,filling,1,right,Red_Triangle_Stripes_3.jpg,Red_Star_Grid_4.jpg,Green_Circle_Stripes_1.jpg,right,1244.620000012219,true,low,NA,NA,NA,NA,NA,NA,NA,false
POKowPNY,3ac6mfv6anv2a7u5af0lkpxs80hhzh,373erpl3ysll09x3rusz1pu8wc1rtp,POKowPNY,2020-0188,2020-05-21,17:55:35,18:12:54,NA,incomplete,85,filling,1,right,Purple_Triangle_Stripes_2.jpg,Purple_Plus_Dots_4.jpg,Green_Star_Stripes_3.jpg,right,1195.6200000131503,true,low,NA,NA,NA,NA,NA,NA,NA,false
POKowPNY,3ac6mfv6anv2a7u5af0lkpxs80hhzh,373erpl3ysll09x3rusz1pu8wc1rtp,POKowPNY,2020-0188,2020-05-21,17:55:35,18:12:54,NA,incomplete,86,filling,1,right,Purple_Star_Dots_3.jpg,Purple_Circle_Stripes_1.jpg,Red_Triangle_Dots_4.jpg,right,1203.1200000783429,true,low,NA,NA,NA,NA,NA,NA,NA,false
POKowPNY,3ac6mfv6anv2a7u5af0lkpxs80hhzh,373erpl3ysll09x3rusz1pu8wc1rtp,POKowPNY,2020-0188,2020-05-21,17:55:35,18:12:54,NA,incomplete,87,filling,1,right,Red_Star_Chess_1.jpg,Red_Plus_Grid_4.jpg,Green_Circle_Chess_3.jpg,right,1050.9900000179186,true,low,NA,NA,NA,NA,NA,NA,NA,false
POKowPNY,3ac6mfv6anv2a7u5af0lkpxs80hhzh,373erpl3ysll09x3rusz1pu8wc1rtp,POKowPNY,2020-0188,2020-05-21,17:55:35,18:12:54,NA,incomplete,88,filling,1,left,Green_Triangle_Dots_4.jpg,Blue_Star_Dots_3.jpg,Green_Plus_Stripes_1.jpg,left,1152.754999930039,true,low,NA,NA,NA,NA,NA,NA,NA,false
POKowPNY,3ac6mfv6anv2a7u5af0lkpxs80hhzh,373erpl3ysll09x3rusz1pu8wc1rtp,POKowPNY,2020-0188,2020-05-21,17:55:35,18:12:54,NA,incomplete,89,filling,1,left,Green_Triangle_Grid_1.jpg,Purple_Plus_Grid_2.jpg,Green_Star_Stripes_3.jpg,left,826.2099999701604,true,low,NA,NA,NA,NA,NA,NA,NA,false
POKowPNY,3ac6mfv6anv2a7u5af0lkpxs80hhzh,373erpl3ysll09x3rusz1pu8wc1rtp,POKowPNY,2020-0188,2020-05-21,17:55:35,18:12:54,NA,incomplete,90,color,1,right,Green_Star_Dots_4.jpg,Red_Plus_Dots_2.jpg,Green_Circle_Chess_3.jpg,left,1210.4749999707565,false,low,NA,NA,NA,NA,NA,NA,NA,false
POKowPNY,3ac6mfv6anv2a7u5af0lkpxs80hhzh,373erpl3ysll09x3rusz1pu8wc1rtp,POKowPNY,2020-0188,2020-05-21,17:55:35,18:12:54,NA,incomplete,91,color,1,right,Red_Star_Dots_4.jpg,Purple_Circle_Dots_2.jpg,Red_Triangle_Stripes_1.jpg,right,1234.4799999846146,true,low,NA,NA,NA,NA,NA,NA,NA,false
POKowPNY,3ac6mfv6anv2a7u5af0lkpxs80hhzh,373erpl3ysll09x3rusz1pu8wc1rtp,POKowPNY,2020-0188,2020-05-21,17:55:35,18:12:54,NA,incomplete,92,color,1,right,Purple_Star_Grid_1.jpg,Blue_Plus_Grid_2.jpg,Purple_Circle_Chess_4.jpg,right,736.7050000466406,true,low,NA,NA,NA,NA,NA,NA,NA,false
POKowPNY,3ac6mfv6anv2a7u5af0lkpxs80hhzh,373erpl3ysll09x3rusz1pu8wc1rtp,POKowPNY,2020-0188,2020-05-21,17:55:35,18:12:54,NA,incomplete,93,color,0,right,Green_Circle_Dots_2.jpg,Red_Star_Dots_4.jpg,Green_Triangle_Grid_3.jpg,right,803.9100000169128,true,low,NA,NA,NA,NA,NA,NA,NA,false
POKowPNY,3ac6mfv6anv2a7u5af0lkpxs80hhzh,373erpl3ysll09x3rusz1pu8wc1rtp,POKowPNY,2020-0188,2020-05-21,17:55:35,18:12:54,NA,incomplete,94,color,0,left,Green_Circle_Grid_1.jpg,Green_Triangle_Dots_3.jpg,Blue_Star_Grid_4.jpg,left,1244.6850000414997,true,low,NA,NA,NA,NA,NA,NA,NA,false
POKowPNY,3ac6mfv6anv2a7u5af0lkpxs80hhzh,373erpl3ysll09x3rusz1pu8wc1rtp,POKowPNY,2020-0188,2020-05-21,17:55:35,18:12:54,NA,incomplete,95,color,1,left,Green_Star_Chess_1.jpg,Green_Plus_Dots_4.jpg,Red_Circle_Chess_3.jpg,right,1049.5499999960884,false,low,NA,NA,NA,NA,NA,NA,NA,false
POKowPNY,3ac6mfv6anv2a7u5af0lkpxs80hhzh,373erpl3ysll09x3rusz1pu8wc1rtp,POKowPNY,2020-0188,2020-05-21,17:55:35,18:12:54,NA,incomplete,96,color,1,right,Blue_Star_Stripes_2.jpg,Green_Triangle_Stripes_1.jpg,Blue_Circle_Grid_4.jpg,right,1601.1749999597669,true,low,NA,NA,NA,NA,NA,NA,NA,false
POKowPNY,3ac6mfv6anv2a7u5af0lkpxs80hhzh,373erpl3ysll09x3rusz1pu8wc1rtp,POKowPNY,2020-0188,2020-05-21,17:55:35,18:12:54,NA,incomplete,97,color,1,right,Green_Circle_Dots_4.jpg,Blue_Triangle_Dots_2.jpg,Green_Star_Grid_1.jpg,right,1072.2300000488758,true,low,NA,NA,NA,NA,NA,NA,NA,false
POKowPNY,3ac6mfv6anv2a7u5af0lkpxs80hhzh,373erpl3ysll09x3rusz1pu8wc1rtp,POKowPNY,2020-0188,2020-05-21,17:55:35,18:12:54,NA,incomplete,98,color,1,left,Blue_Star_Dots_3.jpg,Blue_Plus_Chess_4.jpg,Red_Circle_Dots_1.jpg,left,1485.0700000533834,true,low,NA,NA,NA,NA,NA,NA,NA,false
POKowPNY,3ac6mfv6anv2a7u5af0lkpxs80hhzh,373erpl3ysll09x3rusz1pu8wc1rtp,POKowPNY,2020-0188,2020-05-21,17:55:35,18:12:54,NA,incomplete,99,color,0,right,Red_Circle_Stripes_3.jpg,Green_Star_Stripes_4.jpg,Red_Triangle_Dots_1.jpg,right,936.9099999312311,true,low,NA,NA,NA,NA,NA,NA,NA,false
POKowPNY,3ac6mfv6anv2a7u5af0lkpxs80hhzh,373erpl3ysll09x3rusz1pu8wc1rtp,POKowPNY,2020-0188,2020-05-21,17:55:35,18:12:54,NA,incomplete,100,color,1,right,Blue_Star_Chess_1.jpg,Purple_Triangle_Chess_2.jpg,Blue_Plus_Grid_3.jpg,left,1140.040000085719,false,low,NA,NA,NA,NA,NA,NA,NA,false
POKowPNY,3ac6mfv6anv2a7u5af0lkpxs80hhzh,373erpl3ysll09x3rusz1pu8wc1rtp,POKowPNY,2020-0188,2020-05-21,17:55:35,18:12:54,NA,incomplete,101,color,1,left,Purple_Star_Grid_1.jpg,Purple_Circle_Chess_3.jpg,Blue_Triangle_Grid_4.jpg,left,629.4099999358878,true,low,NA,NA,NA,NA,NA,NA,NA,false
POKowPNY,3ac6mfv6anv2a7u5af0lkpxs80hhzh,373erpl3ysll09x3rusz1pu8wc1rtp,POKowPNY,2020-0188,2020-05-21,17:55:35,18:12:54,NA,incomplete,102,color,1,right,Blue_Circle_Stripes_3.jpg,Red_Triangle_Stripes_4.jpg,Blue_Star_Grid_2.jpg,right,534.0050000231713,true,low,NA,NA,NA,NA,NA,NA,NA,false
POKowPNY,3ac6mfv6anv2a7u5af0lkpxs80hhzh,373erpl3ysll09x3rusz1pu8wc1rtp,POKowPNY,2020-0188,2020-05-21,17:55:35,18:12:54,NA,incomplete,103,color,1,right,Green_Plus_Grid_2.jpg,Red_Star_Grid_3.jpg,Green_Circle_Chess_4.jpg,right,777.229999890551,true,low,NA,NA,NA,NA,NA,NA,NA,false
POKowPNY,3ac6mfv6anv2a7u5af0lkpxs80hhzh,373erpl3ysll09x3rusz1pu8wc1rtp,POKowPNY,2020-0188,2020-05-21,17:55:35,18:12:54,NA,incomplete,104,color,1,right,Red_Triangle_Stripes_2.jpg,Blue_Circle_Stripes_1.jpg,Red_Star_Chess_4.jpg,right,651.0199999902397,true,low,NA,NA,NA,NA,NA,NA,NA,false
POKowPNY,3ac6mfv6anv2a7u5af0lkpxs80hhzh,373erpl3ysll09x3rusz1pu8wc1rtp,POKowPNY,2020-0188,2020-05-21,17:55:35,18:12:54,NA,incomplete,105,color,1,left,Blue_Circle_Stripes_2.jpg,Blue_Star_Grid_3.jpg,Purple_Triangle_Stripes_1.jpg,left,874.225000035949,true,low,NA,NA,NA,NA,NA,NA,NA,false
POKowPNY,3ac6mfv6anv2a7u5af0lkpxs80hhzh,373erpl3ysll09x3rusz1pu8wc1rtp,POKowPNY,2020-0188,2020-05-21,17:55:35,18:12:54,NA,incomplete,106,color,1,right,Red_Plus_Dots_3.jpg,Blue_Triangle_Dots_1.jpg,Red_Circle_Stripes_4.jpg,right,680.5449998937547,true,low,NA,NA,NA,NA,NA,NA,NA,false
POKowPNY,3ac6mfv6anv2a7u5af0lkpxs80hhzh,373erpl3ysll09x3rusz1pu8wc1rtp,POKowPNY,2020-0188,2020-05-21,17:55:35,18:12:54,NA,incomplete,107,color,1,left,Purple_Star_Stripes_4.jpg,Purple_Plus_Chess_1.jpg,Green_Circle_Stripes_2.jpg,left,805.2850000094622,true,low,NA,NA,NA,NA,NA,NA,NA,false
POKowPNY,3ac6mfv6anv2a7u5af0lkpxs80hhzh,373erpl3ysll09x3rusz1pu8wc1rtp,POKowPNY,2020-0188,2020-05-21,17:55:35,18:12:54,NA,incomplete,108,color,1,left,Green_Plus_Chess_2.jpg,Green_Star_Grid_4.jpg,Purple_Triangle_Chess_3.jpg,left,653.5450000083074,true,low,NA,NA,NA,NA,NA,NA,NA,false
POKowPNY,3ac6mfv6anv2a7u5af0lkpxs80hhzh,373erpl3ysll09x3rusz1pu8wc1rtp,POKowPNY,2020-0188,2020-05-21,17:55:35,18:12:54,NA,incomplete,109,color,1,right,Blue_Plus_Grid_3.jpg,Green_Triangle_Grid_4.jpg,Blue_Star_Dots_2.jpg,right,659.9799999967217,true,low,NA,NA,NA,NA,NA,NA,NA,false
POKowPNY,3ac6mfv6anv2a7u5af0lkpxs80hhzh,373erpl3ysll09x3rusz1pu8wc1rtp,POKowPNY,2020-0188,2020-05-21,17:55:35,18:12:54,NA,incomplete,110,color,1,right,Purple_Plus_Chess_4.jpg,Blue_Star_Chess_1.jpg,Purple_Triangle_Stripes_2.jpg,right,587.3000000137836,true,low,NA,NA,NA,NA,NA,NA,NA,false
POKowPNY,3ac6mfv6anv2a7u5af0lkpxs80hhzh,373erpl3ysll09x3rusz1pu8wc1rtp,POKowPNY,2020-0188,2020-05-21,17:55:35,18:12:54,NA,incomplete,111,color,1,left,Red_Triangle_Grid_1.jpg,Red_Star_Dots_3.jpg,Purple_Plus_Grid_2.jpg,left,563.5150000452995,true,low,NA,NA,NA,NA,NA,NA,NA,false
POKowPNY,3ac6mfv6anv2a7u5af0lkpxs80hhzh,373erpl3ysll09x3rusz1pu8wc1rtp,POKowPNY,2020-0188,2020-05-21,17:55:35,18:12:54,NA,incomplete,112,color,1,right,Purple_Star_Stripes_4.jpg,Blue_Circle_Stripes_2.jpg,Purple_Plus_Grid_3.jpg,right,566.0899999784306,true,low,NA,NA,NA,NA,NA,NA,NA,false
POKowPNY,3ac6mfv6anv2a7u5af0lkpxs80hhzh,373erpl3ysll09x3rusz1pu8wc1rtp,POKowPNY,2020-0188,2020-05-21,17:55:35,18:12:54,NA,incomplete,113,color,1,left,Green_Star_Chess_3.jpg,Green_Plus_Stripes_1.jpg,Purple_Triangle_Chess_4.jpg,left,561.1000000499189,true,low,NA,NA,NA,NA,NA,NA,NA,false
POKowPNY,3ac6mfv6anv2a7u5af0lkpxs80hhzh,373erpl3ysll09x3rusz1pu8wc1rtp,POKowPNY,2020-0188,2020-05-21,17:55:35,18:12:54,NA,incomplete,114,color,1,right,Green_Triangle_Dots_3.jpg,Purple_Plus_Dots_1.jpg,Green_Star_Chess_2.jpg,right,738.7650000164285,true,low,NA,NA,NA,NA,NA,NA,NA,false
POKowPNY,3ac6mfv6anv2a7u5af0lkpxs80hhzh,373erpl3ysll09x3rusz1pu8wc1rtp,POKowPNY,2020-0188,2020-05-21,17:55:35,18:12:54,NA,incomplete,115,color,0,left,Red_Star_Dots_2.jpg,Red_Circle_Chess_3.jpg,Purple_Plus_Dots_4.jpg,left,774.6250000782311,true,low,NA,NA,NA,NA,NA,NA,NA,false
POKowPNY,3ac6mfv6anv2a7u5af0lkpxs80hhzh,373erpl3ysll09x3rusz1pu8wc1rtp,POKowPNY,2020-0188,2020-05-21,17:55:35,18:12:54,NA,incomplete,116,color,1,left,Red_Circle_Dots_3.jpg,Red_Triangle_Chess_2.jpg,Purple_Plus_Dots_4.jpg,right,1079.6600000467151,false,low,NA,NA,NA,NA,NA,NA,NA,false
POKowPNY,3ac6mfv6anv2a7u5af0lkpxs80hhzh,373erpl3ysll09x3rusz1pu8wc1rtp,POKowPNY,2020-0188,2020-05-21,17:55:35,18:12:54,NA,incomplete,117,color,1,right,Blue_Circle_Stripes_4.jpg,Green_Star_Stripes_2.jpg,Blue_Triangle_Grid_3.jpg,left,1037.0499999262393,false,low,NA,NA,NA,NA,NA,NA,NA,false
POKowPNY,3ac6mfv6anv2a7u5af0lkpxs80hhzh,373erpl3ysll09x3rusz1pu8wc1rtp,POKowPNY,2020-0188,2020-05-21,17:55:35,18:12:54,NA,incomplete,118,color,1,left,Purple_Star_Grid_1.jpg,Purple_Triangle_Stripes_3.jpg,Green_Circle_Grid_4.jpg,right,1275.3199998987839,false,low,NA,NA,NA,NA,NA,NA,NA,false
POKowPNY,3ac6mfv6anv2a7u5af0lkpxs80hhzh,373erpl3ysll09x3rusz1pu8wc1rtp,POKowPNY,2020-0188,2020-05-21,17:55:35,18:12:54,NA,incomplete,119,color,0,left,Red_Star_Chess_3.jpg,Red_Triangle_Dots_2.jpg,Green_Circle_Chess_4.jpg,right,1408.5000000195578,false,low,NA,NA,NA,NA,NA,NA,NA,false
POKowPNY,3ac6mfv6anv2a7u5af0lkpxs80hhzh,373erpl3ysll09x3rusz1pu8wc1rtp,POKowPNY,2020-0188,2020-05-21,17:55:35,18:12:54,NA,incomplete,120,number,0,right,Purple_Triangle_Dots_1.jpg,Red_Triangle_Chess_4.jpg,Green_Plus_Grid_1.jpg,NA,NA,NA,low,NA,NA,NA,NA,NA,NA,NA,false
POKowPNY,3ac6mfv6anv2a7u5af0lkpxs80hhzh,373erpl3ysll09x3rusz1pu8wc1rtp,POKowPNY,2020-0188,2020-05-21,17:55:35,18:12:54,NA,incomplete,121,number,1,left,Purple_Plus_Stripes_3.jpg,Red_Circle_Chess_3.jpg,Green_Plus_Dots_4.jpg,right,1297.3550000460818,false,low,NA,NA,NA,NA,NA,NA,NA,false
POKowPNY,3ac6mfv6anv2a7u5af0lkpxs80hhzh,373erpl3ysll09x3rusz1pu8wc1rtp,POKowPNY,2020-0188,2020-05-21,17:55:35,18:12:54,NA,incomplete,122,number,1,left,Blue_Circle_Dots_4.jpg,Green_Triangle_Chess_4.jpg,Red_Circle_Grid_3.jpg,right,1780.9699999634176,false,low,NA,NA,NA,NA,NA,NA,NA,false
POKowPNY,3ac6mfv6anv2a7u5af0lkpxs80hhzh,373erpl3ysll09x3rusz1pu8wc1rtp,POKowPNY,2020-0188,2020-05-21,17:55:35,18:12:54,NA,incomplete,123,number,1,right,Red_Circle_Grid_3.jpg,Blue_Circle_Stripes_1.jpg,Green_Plus_Dots_3.jpg,right,1909.1699999989942,true,low,NA,NA,NA,NA,NA,NA,NA,false
POKowPNY,3ac6mfv6anv2a7u5af0lkpxs80hhzh,373erpl3ysll09x3rusz1pu8wc1rtp,POKowPNY,2020-0188,2020-05-21,17:55:35,18:12:54,NA,incomplete,124,number,1,left,Red_Triangle_Grid_1.jpg,Blue_Star_Stripes_1.jpg,Purple_Triangle_Chess_3.jpg,left,1406.639999942854,true,low,NA,NA,NA,NA,NA,NA,NA,false
POKowPNY,3ac6mfv6anv2a7u5af0lkpxs80hhzh,373erpl3ysll09x3rusz1pu8wc1rtp,POKowPNY,2020-0188,2020-05-21,17:55:35,18:12:54,NA,incomplete,125,number,1,left,Blue_Star_Chess_4.jpg,Red_Plus_Dots_4.jpg,Green_Star_Grid_2.jpg,left,798.1650000438094,true,low,NA,NA,NA,NA,NA,NA,NA,false
POKowPNY,3ac6mfv6anv2a7u5af0lkpxs80hhzh,373erpl3ysll09x3rusz1pu8wc1rtp,POKowPNY,2020-0188,2020-05-21,17:55:35,18:12:54,NA,incomplete,126,number,1,left,Purple_Star_Dots_2.jpg,Green_Circle_Grid_2.jpg,Blue_Star_Stripes_1.jpg,left,1143.4100000187755,true,low,NA,NA,NA,NA,NA,NA,NA,false
POKowPNY,3ac6mfv6anv2a7u5af0lkpxs80hhzh,373erpl3ysll09x3rusz1pu8wc1rtp,POKowPNY,2020-0188,2020-05-21,17:55:35,18:12:54,NA,incomplete,127,number,1,left,Purple_Star_Stripes_4.jpg,Green_Plus_Dots_4.jpg,Red_Star_Chess_2.jpg,left,921.3450000388548,true,low,NA,NA,NA,NA,NA,NA,NA,false
POKowPNY,3ac6mfv6anv2a7u5af0lkpxs80hhzh,373erpl3ysll09x3rusz1pu8wc1rtp,POKowPNY,2020-0188,2020-05-21,17:55:35,18:12:54,NA,incomplete,128,number,0,right,Green_Star_Grid_1.jpg,Purple_Star_Dots_4.jpg,Red_Plus_Chess_1.jpg,right,980.2399999462068,true,low,NA,NA,NA,NA,NA,NA,NA,false
POKowPNY,3ac6mfv6anv2a7u5af0lkpxs80hhzh,373erpl3ysll09x3rusz1pu8wc1rtp,POKowPNY,2020-0188,2020-05-21,17:55:35,18:12:54,NA,incomplete,129,number,1,right,Blue_Circle_Dots_1.jpg,Red_Circle_Chess_2.jpg,Green_Plus_Stripes_1.jpg,left,1269.6499999146909,false,low,NA,NA,NA,NA,NA,NA,NA,false
POKowPNY,3ac6mfv6anv2a7u5af0lkpxs80hhzh,373erpl3ysll09x3rusz1pu8wc1rtp,POKowPNY,2020-0188,2020-05-21,17:55:35,18:12:54,NA,incomplete,130,number,0,left,Green_Triangle_Grid_2.jpg,Purple_Circle_Chess_2.jpg,Blue_Triangle_Dots_3.jpg,right,842.0900000492111,false,low,NA,NA,NA,NA,NA,NA,NA,false
POKowPNY,3ac6mfv6anv2a7u5af0lkpxs80hhzh,373erpl3ysll09x3rusz1pu8wc1rtp,POKowPNY,2020-0188,2020-05-21,17:55:35,18:12:54,NA,incomplete,131,number,1,right,Green_Star_Chess_2.jpg,Red_Star_Dots_4.jpg,Purple_Plus_Stripes_2.jpg,left,882.2500000242144,false,low,NA,NA,NA,NA,NA,NA,NA,false
POKowPNY,3ac6mfv6anv2a7u5af0lkpxs80hhzh,373erpl3ysll09x3rusz1pu8wc1rtp,POKowPNY,2020-0188,2020-05-21,17:55:35,18:12:54,NA,incomplete,132,number,1,right,Green_Triangle_Grid_3.jpg,Red_Triangle_Stripes_1.jpg,Blue_Star_Dots_3.jpg,left,1134.8500000312924,false,low,NA,NA,NA,NA,NA,NA,NA,false
POKowPNY,3ac6mfv6anv2a7u5af0lkpxs80hhzh,373erpl3ysll09x3rusz1pu8wc1rtp,POKowPNY,2020-0188,2020-05-21,17:55:35,18:12:54,NA,incomplete,133,number,1,left,Blue_Triangle_Dots_3.jpg,Purple_Circle_Chess_3.jpg,Red_Triangle_Grid_1.jpg,left,1586.3249999238178,true,low,NA,NA,NA,NA,NA,NA,NA,false
POKowPNY,3ac6mfv6anv2a7u5af0lkpxs80hhzh,373erpl3ysll09x3rusz1pu8wc1rtp,POKowPNY,2020-0188,2020-05-21,17:55:35,18:12:54,NA,incomplete,134,number,1,right,Red_Plus_Stripes_4.jpg,Green_Plus_Dots_1.jpg,Blue_Star_Grid_4.jpg,left,857.7199999708682,false,low,NA,NA,NA,NA,NA,NA,NA,false
POKowPNY,3ac6mfv6anv2a7u5af0lkpxs80hhzh,373erpl3ysll09x3rusz1pu8wc1rtp,POKowPNY,2020-0188,2020-05-21,17:55:35,18:12:54,NA,incomplete,135,number,0,right,Red_Circle_Grid_4.jpg,Purple_Circle_Stripes_3.jpg,Green_Plus_Chess_4.jpg,right,1296.5400000102818,true,low,NA,NA,NA,NA,NA,NA,NA,false
POKowPNY,3ac6mfv6anv2a7u5af0lkpxs80hhzh,373erpl3ysll09x3rusz1pu8wc1rtp,POKowPNY,2020-0188,2020-05-21,17:55:35,18:12:54,NA,incomplete,136,number,1,right,Purple_Star_Grid_3.jpg,Green_Star_Stripes_4.jpg,Red_Triangle_Chess_3.jpg,left,1100.6000000052154,false,low,NA,NA,NA,NA,NA,NA,NA,false
POKowPNY,3ac6mfv6anv2a7u5af0lkpxs80hhzh,373erpl3ysll09x3rusz1pu8wc1rtp,POKowPNY,2020-0188,2020-05-21,17:55:35,18:12:54,NA,incomplete,137,number,0,right,Green_Star_Grid_4.jpg,Blue_Star_Dots_2.jpg,Red_Plus_Stripes_4.jpg,left,1401.0199999902397,false,low,NA,NA,NA,NA,NA,NA,NA,false
POKowPNY,3ac6mfv6anv2a7u5af0lkpxs80hhzh,373erpl3ysll09x3rusz1pu8wc1rtp,POKowPNY,2020-0188,2020-05-21,17:55:35,18:12:54,NA,incomplete,138,number,1,right,Green_Circle_Chess_4.jpg,Blue_Circle_Dots_1.jpg,Red_Plus_Grid_4.jpg,left,808.4650000091642,false,low,NA,NA,NA,NA,NA,NA,NA,false
POKowPNY,3ac6mfv6anv2a7u5af0lkpxs80hhzh,373erpl3ysll09x3rusz1pu8wc1rtp,POKowPNY,2020-0188,2020-05-21,17:55:35,18:12:54,NA,incomplete,139,number,1,left,Red_Star_Dots_2.jpg,Green_Circle_Stripes_2.jpg,Purple_Star_Chess_1.jpg,right,1065.9649999579415,false,low,NA,NA,NA,NA,NA,NA,NA,false
POKowPNY,3ac6mfv6anv2a7u5af0lkpxs80hhzh,373erpl3ysll09x3rusz1pu8wc1rtp,POKowPNY,2020-0188,2020-05-21,17:55:35,18:12:54,NA,incomplete,140,shape,1,right,Red_Star_Chess_4.jpg,Green_Plus_Dots_4.jpg,Purple_Star_Stripes_2.jpg,left,1414.3400000175461,false,low,NA,NA,NA,NA,NA,NA,NA,false
POKowPNY,3ac6mfv6anv2a7u5af0lkpxs80hhzh,373erpl3ysll09x3rusz1pu8wc1rtp,POKowPNY,2020-0188,2020-05-21,17:55:35,18:12:54,NA,incomplete,141,shape,1,left,Red_Circle_Chess_4.jpg,Purple_Circle_Stripes_3.jpg,Blue_Plus_Dots_4.jpg,left,1468.709999928251,true,low,NA,NA,NA,NA,NA,NA,NA,false
POKowPNY,3ac6mfv6anv2a7u5af0lkpxs80hhzh,373erpl3ysll09x3rusz1pu8wc1rtp,POKowPNY,2020-0188,2020-05-21,17:55:35,18:12:54,NA,incomplete,142,shape,1,right,Purple_Star_Grid_3.jpg,Blue_Circle_Stripes_3.jpg,Red_Star_Chess_2.jpg,right,801.3600000413135,true,low,NA,NA,NA,NA,NA,NA,NA,false
POKowPNY,3ac6mfv6anv2a7u5af0lkpxs80hhzh,373erpl3ysll09x3rusz1pu8wc1rtp,POKowPNY,2020-0188,2020-05-21,17:55:35,18:12:54,NA,incomplete,143,shape,1,left,Purple_Plus_Chess_1.jpg,Green_Plus_Dots_2.jpg,Blue_Circle_Stripes_1.jpg,left,865.9050000132993,true,low,NA,NA,NA,NA,NA,NA,NA,false
POKowPNY,3ac6mfv6anv2a7u5af0lkpxs80hhzh,373erpl3ysll09x3rusz1pu8wc1rtp,POKowPNY,2020-0188,2020-05-21,17:55:35,18:12:54,NA,incomplete,144,shape,1,left,Red_Circle_Chess_1.jpg,Blue_Circle_Stripes_4.jpg,Green_Triangle_Dots_1.jpg,left,799.4150000158697,true,low,NA,NA,NA,NA,NA,NA,NA,false
POKowPNY,3ac6mfv6anv2a7u5af0lkpxs80hhzh,373erpl3ysll09x3rusz1pu8wc1rtp,POKowPNY,2020-0188,2020-05-21,17:55:35,18:12:54,NA,incomplete,145,shape,1,left,Blue_Star_Chess_2.jpg,Red_Star_Dots_1.jpg,Green_Circle_Stripes_2.jpg,left,785.4800000786781,true,low,NA,NA,NA,NA,NA,NA,NA,false
POKowPNY,3ac6mfv6anv2a7u5af0lkpxs80hhzh,373erpl3ysll09x3rusz1pu8wc1rtp,POKowPNY,2020-0188,2020-05-21,17:55:35,18:12:54,NA,incomplete,146,shape,1,right,Red_Plus_Stripes_3.jpg,Blue_Triangle_Grid_3.jpg,Green_Plus_Chess_1.jpg,right,1074.140000040643,true,low,NA,NA,NA,NA,NA,NA,NA,false
POKowPNY,3ac6mfv6anv2a7u5af0lkpxs80hhzh,373erpl3ysll09x3rusz1pu8wc1rtp,POKowPNY,2020-0188,2020-05-21,17:55:35,18:12:54,NA,incomplete,147,shape,1,left,Blue_Triangle_Dots_1.jpg,Purple_Triangle_Chess_4.jpg,Red_Plus_Stripes_1.jpg,left,815.5500000575557,true,low,NA,NA,NA,NA,NA,NA,NA,false
POKowPNY,3ac6mfv6anv2a7u5af0lkpxs80hhzh,373erpl3ysll09x3rusz1pu8wc1rtp,POKowPNY,2020-0188,2020-05-21,17:55:35,18:12:54,NA,incomplete,148,shape,1,right,Blue_Triangle_Dots_2.jpg,Green_Circle_Stripes_2.jpg,Purple_Triangle_Chess_1.jpg,right,743.9000000013039,true,low,NA,NA,NA,NA,NA,NA,NA,false
POKowPNY,3ac6mfv6anv2a7u5af0lkpxs80hhzh,373erpl3ysll09x3rusz1pu8wc1rtp,POKowPNY,2020-0188,2020-05-21,17:55:35,18:12:54,NA,incomplete,149,shape,1,left,Blue_Circle_Dots_4.jpg,Green_Circle_Stripes_3.jpg,Purple_Triangle_Chess_4.jpg,left,827.2550000110641,true,low,NA,NA,NA,NA,NA,NA,NA,false
POKowPNY,3ac6mfv6anv2a7u5af0lkpxs80hhzh,373erpl3ysll09x3rusz1pu8wc1rtp,POKowPNY,2020-0188,2020-05-21,17:55:35,18:12:54,NA,incomplete,150,shape,1,left,Blue_Plus_Dots_2.jpg,Green_Plus_Stripes_1.jpg,Purple_Star_Grid_2.jpg,left,898.7199999392033,true,low,NA,NA,NA,NA,NA,NA,NA,false
POKowPNY,3ac6mfv6anv2a7u5af0lkpxs80hhzh,373erpl3ysll09x3rusz1pu8wc1rtp,POKowPNY,2020-0188,2020-05-21,17:55:35,18:12:54,NA,incomplete,151,shape,1,right,Green_Plus_Grid_4.jpg,Blue_Triangle_Stripes_4.jpg,Purple_Plus_Dots_2.jpg,left,1383.1300000892952,false,low,NA,NA,NA,NA,NA,NA,NA,false
POKowPNY,3ac6mfv6anv2a7u5af0lkpxs80hhzh,373erpl3ysll09x3rusz1pu8wc1rtp,POKowPNY,2020-0188,2020-05-21,17:55:35,18:12:54,NA,incomplete,152,shape,1,right,Green_Triangle_Chess_3.jpg,Purple_Circle_Stripes_3.jpg,Red_Triangle_Dots_1.jpg,right,1312.004999956116,true,low,NA,NA,NA,NA,NA,NA,NA,false
POKowPNY,3ac6mfv6anv2a7u5af0lkpxs80hhzh,373erpl3ysll09x3rusz1pu8wc1rtp,POKowPNY,2020-0188,2020-05-21,17:55:35,18:12:54,NA,incomplete,153,shape,1,left,Blue_Plus_Grid_4.jpg,Red_Plus_Chess_3.jpg,Purple_Star_Stripes_4.jpg,left,778.8849999196827,true,low,NA,NA,NA,NA,NA,NA,NA,false
POKowPNY,3ac6mfv6anv2a7u5af0lkpxs80hhzh,373erpl3ysll09x3rusz1pu8wc1rtp,POKowPNY,2020-0188,2020-05-21,17:55:35,18:12:54,NA,incomplete,154,shape,1,left,Purple_Triangle_Chess_1.jpg,Red_Triangle_Grid_2.jpg,Green_Star_Dots_1.jpg,left,1115.544999949634,true,low,NA,NA,NA,NA,NA,NA,NA,false
POKowPNY,3ac6mfv6anv2a7u5af0lkpxs80hhzh,373erpl3ysll09x3rusz1pu8wc1rtp,POKowPNY,2020-0188,2020-05-21,17:55:35,18:12:54,NA,incomplete,155,shape,0,right,Blue_Triangle_Stripes_1.jpg,Purple_Star_Chess_1.jpg,Red_Triangle_Dots_2.jpg,right,1023.31000007689,true,low,NA,NA,NA,NA,NA,NA,NA,false
POKowPNY,3ac6mfv6anv2a7u5af0lkpxs80hhzh,373erpl3ysll09x3rusz1pu8wc1rtp,POKowPNY,2020-0188,2020-05-21,17:55:35,18:12:54,NA,incomplete,156,shape,1,left,Blue_Circle_Chess_1.jpg,Red_Circle_Grid_2.jpg,Purple_Triangle_Stripes_1.jpg,none,0,false,low,NA,NA,NA,NA,NA,NA,NA,false
POKowPNY,3ac6mfv6anv2a7u5af0lkpxs80hhzh,373erpl3ysll09x3rusz1pu8wc1rtp,POKowPNY,2020-0188,2020-05-21,17:55:35,18:12:54,NA,incomplete,157,shape,1,right,Green_Star_Chess_3.jpg,Red_Triangle_Stripes_3.jpg,Blue_Star_Grid_1.jpg,left,1094.539999961853,false,low,NA,NA,NA,NA,NA,NA,NA,false
POKowPNY,3ac6mfv6anv2a7u5af0lkpxs80hhzh,373erpl3ysll09x3rusz1pu8wc1rtp,POKowPNY,2020-0188,2020-05-21,17:55:35,18:12:54,NA,incomplete,158,shape,1,right,Purple_Circle_Stripes_1.jpg,Red_Star_Dots_1.jpg,Blue_Circle_Chess_2.jpg,right,1714.549999916926,true,low,NA,NA,NA,NA,NA,NA,NA,false
POKowPNY,3ac6mfv6anv2a7u5af0lkpxs80hhzh,373erpl3ysll09x3rusz1pu8wc1rtp,POKowPNY,2020-0188,2020-05-21,17:55:35,18:12:54,NA,incomplete,159,shape,1,right,Red_Star_Chess_1.jpg,Blue_Circle_Dots_1.jpg,Purple_Star_Grid_3.jpg,right,717.339999973774,true,low,NA,NA,NA,NA,NA,NA,NA,false
POKowPNY,3ac6mfv6anv2a7u5af0lkpxs80hhzh,373erpl3ysll09x3rusz1pu8wc1rtp,POKowPNY,2020-0188,2020-05-21,17:55:35,18:12:54,NA,incomplete,160,number,1,right,Purple_Triangle_Chess_4.jpg,Red_Triangle_Grid_3.jpg,Blue_Circle_Dots_4.jpg,left,786.4899999694899,false,low,NA,NA,NA,NA,NA,NA,NA,false
POKowPNY,3ac6mfv6anv2a7u5af0lkpxs80hhzh,373erpl3ysll09x3rusz1pu8wc1rtp,POKowPNY,2020-0188,2020-05-21,17:55:35,18:12:54,NA,incomplete,161,number,1,left,Purple_Plus_Stripes_1.jpg,Red_Star_Chess_1.jpg,Green_Plus_Dots_2.jpg,left,1098.8499999511987,true,low,NA,NA,NA,NA,NA,NA,NA,false
POKowPNY,3ac6mfv6anv2a7u5af0lkpxs80hhzh,373erpl3ysll09x3rusz1pu8wc1rtp,POKowPNY,2020-0188,2020-05-21,17:55:35,18:12:54,NA,incomplete,162,number,1,right,Green_Circle_Stripes_3.jpg,Purple_Circle_Dots_4.jpg,Blue_Star_Chess_3.jpg,right,1063.3750000270084,true,low,NA,NA,NA,NA,NA,NA,NA,false
POKowPNY,3ac6mfv6anv2a7u5af0lkpxs80hhzh,373erpl3ysll09x3rusz1pu8wc1rtp,POKowPNY,2020-0188,2020-05-21,17:55:35,18:12:54,NA,incomplete,163,number,1,right,Green_Triangle_Grid_1.jpg,Blue_Triangle_Chess_3.jpg,Red_Plus_Stripes_1.jpg,right,1156.3900000182912,true,low,NA,NA,NA,NA,NA,NA,NA,false
POKowPNY,3ac6mfv6anv2a7u5af0lkpxs80hhzh,373erpl3ysll09x3rusz1pu8wc1rtp,POKowPNY,2020-0188,2020-05-21,17:55:35,18:12:54,NA,incomplete,164,number,0,right,Purple_Plus_Grid_2.jpg,Green_Plus_Dots_3.jpg,Blue_Circle_Chess_2.jpg,right,1007.8850000863895,true,low,NA,NA,NA,NA,NA,NA,NA,false
POKowPNY,3ac6mfv6anv2a7u5af0lkpxs80hhzh,373erpl3ysll09x3rusz1pu8wc1rtp,POKowPNY,2020-0188,2020-05-21,17:55:35,18:12:54,NA,incomplete,165,number,1,right,Green_Circle_Dots_2.jpg,Purple_Circle_Stripes_3.jpg,Blue_Triangle_Grid_2.jpg,right,1118.7650000210851,true,low,NA,NA,NA,NA,NA,NA,NA,false
POKowPNY,3ac6mfv6anv2a7u5af0lkpxs80hhzh,373erpl3ysll09x3rusz1pu8wc1rtp,POKowPNY,2020-0188,2020-05-21,17:55:35,18:12:54,NA,incomplete,166,number,0,left,Red_Star_Grid_2.jpg,Purple_Triangle_Stripes_2.jpg,Green_Star_Dots_1.jpg,left,1026.1449998943135,true,low,NA,NA,NA,NA,NA,NA,NA,false
POKowPNY,3ac6mfv6anv2a7u5af0lkpxs80hhzh,373erpl3ysll09x3rusz1pu8wc1rtp,POKowPNY,2020-0188,2020-05-21,17:55:35,18:12:54,NA,incomplete,167,number,1,right,Blue_Triangle_Chess_1.jpg,Red_Triangle_Dots_3.jpg,Purple_Star_Grid_1.jpg,right,793.0400000186637,true,low,NA,NA,NA,NA,NA,NA,NA,false
POKowPNY,3ac6mfv6anv2a7u5af0lkpxs80hhzh,373erpl3ysll09x3rusz1pu8wc1rtp,POKowPNY,2020-0188,2020-05-21,17:55:35,18:12:54,NA,incomplete,168,number,1,left,Blue_Plus_Stripes_4.jpg,Red_Triangle_Grid_4.jpg,Purple_Plus_Dots_3.jpg,left,1170.490000047721,true,low,NA,NA,NA,NA,NA,NA,NA,false
POKowPNY,3ac6mfv6anv2a7u5af0lkpxs80hhzh,373erpl3ysll09x3rusz1pu8wc1rtp,POKowPNY,2020-0188,2020-05-21,17:55:35,18:12:54,NA,incomplete,169,number,1,left,Blue_Star_Dots_2.jpg,Red_Triangle_Chess_2.jpg,Green_Star_Grid_4.jpg,left,1010.4949999367818,true,low,NA,NA,NA,NA,NA,NA,NA,false
POKowPNY,3ac6mfv6anv2a7u5af0lkpxs80hhzh,373erpl3ysll09x3rusz1pu8wc1rtp,POKowPNY,2020-0188,2020-05-21,17:55:35,18:12:54,NA,incomplete,170,number,0,right,Green_Star_Dots_3.jpg,Blue_Star_Chess_2.jpg,Red_Triangle_Grid_3.jpg,right,819.4149999180809,true,low,NA,NA,NA,NA,NA,NA,NA,false
POKowPNY,3ac6mfv6anv2a7u5af0lkpxs80hhzh,373erpl3ysll09x3rusz1pu8wc1rtp,POKowPNY,2020-0188,2020-05-21,17:55:35,18:12:54,NA,incomplete,171,number,1,left,Blue_Circle_Grid_3.jpg,Purple_Triangle_Dots_3.jpg,Red_Circle_Stripes_2.jpg,left,1049.4250000920147,true,low,NA,NA,NA,NA,NA,NA,NA,false
POKowPNY,3ac6mfv6anv2a7u5af0lkpxs80hhzh,373erpl3ysll09x3rusz1pu8wc1rtp,POKowPNY,2020-0188,2020-05-21,17:55:35,18:12:54,NA,incomplete,172,number,0,left,Blue_Circle_Chess_2.jpg,Red_Star_Dots_2.jpg,Purple_Circle_Grid_4.jpg,left,921.2450000923127,true,low,NA,NA,NA,NA,NA,NA,NA,false
POKowPNY,3ac6mfv6anv2a7u5af0lkpxs80hhzh,373erpl3ysll09x3rusz1pu8wc1rtp,POKowPNY,2020-0188,2020-05-21,17:55:35,18:12:54,NA,incomplete,173,number,1,right,Green_Triangle_Stripes_1.jpg,Blue_Triangle_Grid_4.jpg,Purple_Plus_Dots_1.jpg,right,868.7950000166893,true,low,NA,NA,NA,NA,NA,NA,NA,false
POKowPNY,3ac6mfv6anv2a7u5af0lkpxs80hhzh,373erpl3ysll09x3rusz1pu8wc1rtp,POKowPNY,2020-0188,2020-05-21,17:55:35,18:12:54,NA,incomplete,174,number,1,right,Blue_Plus_Grid_4.jpg,Red_Plus_Stripes_1.jpg,Green_Triangle_Dots_4.jpg,right,985.259999986738,true,low,NA,NA,NA,NA,NA,NA,NA,false
POKowPNY,3ac6mfv6anv2a7u5af0lkpxs80hhzh,373erpl3ysll09x3rusz1pu8wc1rtp,POKowPNY,2020-0188,2020-05-21,17:55:35,18:12:54,NA,incomplete,175,number,1,right,Red_Star_Chess_1.jpg,Blue_Star_Dots_3.jpg,Purple_Circle_Grid_1.jpg,right,1011.5800000494346,true,low,NA,NA,NA,NA,NA,NA,NA,false
POKowPNY,3ac6mfv6anv2a7u5af0lkpxs80hhzh,373erpl3ysll09x3rusz1pu8wc1rtp,POKowPNY,2020-0188,2020-05-21,17:55:35,18:12:54,NA,incomplete,176,number,1,right,Green_Star_Grid_4.jpg,Blue_Star_Stripes_2.jpg,Purple_Triangle_Chess_4.jpg,right,778.0400000046939,true,low,NA,NA,NA,NA,NA,NA,NA,false
POKowPNY,3ac6mfv6anv2a7u5af0lkpxs80hhzh,373erpl3ysll09x3rusz1pu8wc1rtp,POKowPNY,2020-0188,2020-05-21,17:55:35,18:12:54,NA,incomplete,177,number,1,right,Blue_Plus_Dots_3.jpg,Purple_Plus_Chess_1.jpg,Green_Triangle_Stripes_3.jpg,right,1332.0349999703467,true,low,NA,NA,NA,NA,NA,NA,NA,false
POKowPNY,3ac6mfv6anv2a7u5af0lkpxs80hhzh,373erpl3ysll09x3rusz1pu8wc1rtp,POKowPNY,2020-0188,2020-05-21,17:55:35,18:12:54,NA,incomplete,178,number,1,right,Green_Circle_Stripes_4.jpg,Purple_Circle_Dots_1.jpg,Blue_Star_Grid_4.jpg,right,702.6249999180436,true,low,NA,NA,NA,NA,NA,NA,NA,false
POKowPNY,3ac6mfv6anv2a7u5af0lkpxs80hhzh,373erpl3ysll09x3rusz1pu8wc1rtp,POKowPNY,2020-0188,2020-05-21,17:55:35,18:12:54,NA,incomplete,179,number,1,left,Purple_Circle_Chess_3.jpg,Green_Triangle_Grid_3.jpg,Blue_Circle_Stripes_1.jpg,left,1010.9149999916553,true,low,NA,NA,NA,NA,NA,NA,NA,false
POKowPNY,3ac6mfv6anv2a7u5af0lkpxs80hhzh,373erpl3ysll09x3rusz1pu8wc1rtp,POKowPNY,2020-0188,2020-05-21,17:55:35,18:12:54,NA,incomplete,180,shape,1,right,Red_Triangle_Grid_4.jpg,Blue_Star_Chess_4.jpg,Green_Triangle_Stripes_1.jpg,left,690.8100000582635,false,low,NA,NA,NA,NA,NA,NA,NA,false
POKowPNY,3ac6mfv6anv2a7u5af0lkpxs80hhzh,373erpl3ysll09x3rusz1pu8wc1rtp,POKowPNY,2020-0188,2020-05-21,17:55:35,18:12:54,NA,incomplete,181,shape,1,right,Green_Star_Chess_2.jpg,Blue_Triangle_Dots_2.jpg,Red_Star_Stripes_3.jpg,left,991.344999987632,false,low,NA,NA,NA,NA,NA,NA,NA,false
POKowPNY,3ac6mfv6anv2a7u5af0lkpxs80hhzh,373erpl3ysll09x3rusz1pu8wc1rtp,POKowPNY,2020-0188,2020-05-21,17:55:35,18:12:54,NA,incomplete,182,shape,0,left,Green_Star_Chess_3.jpg,Purple_Star_Grid_4.jpg,Blue_Circle_Dots_3.jpg,left,944.0649999305606,true,low,NA,NA,NA,NA,NA,NA,NA,false
POKowPNY,3ac6mfv6anv2a7u5af0lkpxs80hhzh,373erpl3ysll09x3rusz1pu8wc1rtp,POKowPNY,2020-0188,2020-05-21,17:55:35,18:12:54,NA,incomplete,183,shape,1,left,Blue_Plus_Grid_4.jpg,Purple_Plus_Dots_1.jpg,Green_Circle_Stripes_4.jpg,right,1354.1699999477714,false,low,NA,NA,NA,NA,NA,NA,NA,false
POKowPNY,3ac6mfv6anv2a7u5af0lkpxs80hhzh,373erpl3ysll09x3rusz1pu8wc1rtp,POKowPNY,2020-0188,2020-05-21,17:55:35,18:12:54,NA,incomplete,184,shape,1,left,Green_Plus_Grid_4.jpg,Red_Plus_Dots_2.jpg,Blue_Triangle_Stripes_4.jpg,left,1340.390000026673,true,low,NA,NA,NA,NA,NA,NA,NA,false
POKowPNY,3ac6mfv6anv2a7u5af0lkpxs80hhzh,373erpl3ysll09x3rusz1pu8wc1rtp,POKowPNY,2020-0188,2020-05-21,17:55:35,18:12:54,NA,incomplete,185,shape,1,left,Purple_Circle_Grid_3.jpg,Red_Circle_Dots_4.jpg,Blue_Triangle_Chess_3.jpg,left,1197.4349999800324,true,low,NA,NA,NA,NA,NA,NA,NA,false
POKowPNY,3ac6mfv6anv2a7u5af0lkpxs80hhzh,373erpl3ysll09x3rusz1pu8wc1rtp,POKowPNY,2020-0188,2020-05-21,17:55:35,18:12:54,NA,incomplete,186,shape,1,left,Red_Triangle_Chess_1.jpg,Purple_Triangle_Stripes_4.jpg,Green_Plus_Dots_1.jpg,left,757.9949999926612,true,low,NA,NA,NA,NA,NA,NA,NA,false
POKowPNY,3ac6mfv6anv2a7u5af0lkpxs80hhzh,373erpl3ysll09x3rusz1pu8wc1rtp,POKowPNY,2020-0188,2020-05-21,17:55:35,18:12:54,NA,incomplete,187,shape,1,left,Blue_Plus_Stripes_3.jpg,Green_Plus_Dots_1.jpg,Red_Triangle_Grid_3.jpg,left,1008.6350000929087,true,low,NA,NA,NA,NA,NA,NA,NA,false
POKowPNY,3ac6mfv6anv2a7u5af0lkpxs80hhzh,373erpl3ysll09x3rusz1pu8wc1rtp,POKowPNY,2020-0188,2020-05-21,17:55:35,18:12:54,NA,incomplete,188,shape,1,left,Red_Star_Dots_4.jpg,Blue_Star_Grid_3.jpg,Green_Circle_Chess_4.jpg,left,967.6200000103563,true,low,NA,NA,NA,NA,NA,NA,NA,false
POKowPNY,3ac6mfv6anv2a7u5af0lkpxs80hhzh,373erpl3ysll09x3rusz1pu8wc1rtp,POKowPNY,2020-0188,2020-05-21,17:55:35,18:12:54,NA,incomplete,189,shape,0,left,Green_Plus_Dots_1.jpg,Blue_Plus_Stripes_3.jpg,Red_Star_Grid_1.jpg,left,768.8949999865144,true,low,NA,NA,NA,NA,NA,NA,NA,false
POKowPNY,3ac6mfv6anv2a7u5af0lkpxs80hhzh,373erpl3ysll09x3rusz1pu8wc1rtp,POKowPNY,2020-0188,2020-05-21,17:55:35,18:12:54,NA,incomplete,190,shape,1,right,Green_Circle_Grid_1.jpg,Blue_Triangle_Chess_1.jpg,Purple_Circle_Stripes_4.jpg,left,1388.314999989234,false,low,NA,NA,NA,NA,NA,NA,NA,false
POKowPNY,3ac6mfv6anv2a7u5af0lkpxs80hhzh,373erpl3ysll09x3rusz1pu8wc1rtp,POKowPNY,2020-0188,2020-05-21,17:55:35,18:12:54,NA,incomplete,191,shape,1,left,Red_Circle_Stripes_2.jpg,Blue_Circle_Grid_1.jpg,Purple_Star_Chess_2.jpg,right,1802.3050000192598,false,low,NA,NA,NA,NA,NA,NA,NA,false
POKowPNY,3ac6mfv6anv2a7u5af0lkpxs80hhzh,373erpl3ysll09x3rusz1pu8wc1rtp,POKowPNY,2020-0188,2020-05-21,17:55:35,18:12:54,NA,incomplete,192,shape,1,right,Green_Plus_Dots_1.jpg,Purple_Circle_Chess_1.jpg,Blue_Plus_Grid_3.jpg,left,850.3600000403821,false,low,NA,NA,NA,NA,NA,NA,NA,false
POKowPNY,3ac6mfv6anv2a7u5af0lkpxs80hhzh,373erpl3ysll09x3rusz1pu8wc1rtp,POKowPNY,2020-0188,2020-05-21,17:55:35,18:12:54,NA,incomplete,193,shape,1,right,Green_Triangle_Dots_3.jpg,Red_Plus_Grid_3.jpg,Blue_Triangle_Stripes_1.jpg,left,977.5349999545142,false,low,NA,NA,NA,NA,NA,NA,NA,false
POKowPNY,3ac6mfv6anv2a7u5af0lkpxs80hhzh,373erpl3ysll09x3rusz1pu8wc1rtp,POKowPNY,2020-0188,2020-05-21,17:55:35,18:12:54,NA,incomplete,194,shape,1,right,Purple_Star_Dots_2.jpg,Red_Circle_Grid_2.jpg,Blue_Star_Stripes_3.jpg,right,1018.4550000121817,true,low,NA,NA,NA,NA,NA,NA,NA,false
POKowPNY,3ac6mfv6anv2a7u5af0lkpxs80hhzh,373erpl3ysll09x3rusz1pu8wc1rtp,POKowPNY,2020-0188,2020-05-21,17:55:35,18:12:54,NA,incomplete,195,shape,0,left,Red_Circle_Stripes_1.jpg,Green_Circle_Grid_3.jpg,Purple_Plus_Dots_1.jpg,left,985.869999974966,true,low,NA,NA,NA,NA,NA,NA,NA,false
POKowPNY,3ac6mfv6anv2a7u5af0lkpxs80hhzh,373erpl3ysll09x3rusz1pu8wc1rtp,POKowPNY,2020-0188,2020-05-21,17:55:35,18:12:54,NA,incomplete,196,shape,1,right,Green_Circle_Chess_2.jpg,Blue_Plus_Stripes_2.jpg,Purple_Circle_Dots_3.jpg,right,786.0850000288337,true,low,NA,NA,NA,NA,NA,NA,NA,false
POKowPNY,3ac6mfv6anv2a7u5af0lkpxs80hhzh,373erpl3ysll09x3rusz1pu8wc1rtp,POKowPNY,2020-0188,2020-05-21,17:55:35,18:12:54,NA,incomplete,197,shape,0,left,Blue_Star_Chess_2.jpg,Green_Star_Dots_1.jpg,Purple_Plus_Stripes_2.jpg,right,1003.3599999733269,false,low,NA,NA,NA,NA,NA,NA,NA,false
POKowPNY,3ac6mfv6anv2a7u5af0lkpxs80hhzh,373erpl3ysll09x3rusz1pu8wc1rtp,POKowPNY,2020-0188,2020-05-21,17:55:35,18:12:54,NA,incomplete,198,shape,1,right,Red_Circle_Dots_1.jpg,Purple_Plus_Chess_1.jpg,Blue_Circle_Stripes_2.jpg,left,947.0699999947101,false,low,NA,NA,NA,NA,NA,NA,NA,false
POKowPNY,3ac6mfv6anv2a7u5af0lkpxs80hhzh,373erpl3ysll09x3rusz1pu8wc1rtp,POKowPNY,2020-0188,2020-05-21,17:55:35,18:12:54,NA,incomplete,199,shape,1,left,Red_Plus_Stripes_1.jpg,Blue_Plus_Dots_2.jpg,Purple_Circle_Chess_1.jpg,left,1581.7350000143051,true,low,NA,NA,NA,NA,NA,NA,NA,false
POKowPNY,3ac6mfv6anv2a7u5af0lkpxs80hhzh,373erpl3ysll09x3rusz1pu8wc1rtp,POKowPNY,2020-0188,2020-05-21,17:55:35,18:12:54,NA,incomplete,200,number,0,right,Green_Star_Stripes_1.jpg,Purple_Star_Chess_3.jpg,Red_Circle_Dots_1.jpg,left,733.0150000052527,false,low,NA,NA,NA,NA,NA,NA,NA,false
POKowPNY,3ac6mfv6anv2a7u5af0lkpxs80hhzh,373erpl3ysll09x3rusz1pu8wc1rtp,POKowPNY,2020-0188,2020-05-21,17:55:35,18:12:54,NA,incomplete,201,number,1,left,Red_Triangle_Chess_4.jpg,Purple_Star_Stripes_4.jpg,Green_Triangle_Grid_3.jpg,right,849.4950000895187,false,low,NA,NA,NA,NA,NA,NA,NA,false
POKowPNY,3ac6mfv6anv2a7u5af0lkpxs80hhzh,373erpl3ysll09x3rusz1pu8wc1rtp,POKowPNY,2020-0188,2020-05-21,17:55:35,18:12:54,NA,incomplete,202,number,0,right,Green_Star_Stripes_4.jpg,Red_Star_Chess_3.jpg,Purple_Plus_Dots_4.jpg,left,1016.4549999171868,false,low,NA,NA,NA,NA,NA,NA,NA,false
POKowPNY,3ac6mfv6anv2a7u5af0lkpxs80hhzh,373erpl3ysll09x3rusz1pu8wc1rtp,POKowPNY,2020-0188,2020-05-21,17:55:35,18:12:54,NA,incomplete,203,number,1,left,Green_Circle_Grid_4.jpg,Purple_Plus_Chess_4.jpg,Blue_Circle_Dots_2.jpg,right,856.0800000559539,false,low,NA,NA,NA,NA,NA,NA,NA,false
POKowPNY,3ac6mfv6anv2a7u5af0lkpxs80hhzh,373erpl3ysll09x3rusz1pu8wc1rtp,POKowPNY,2020-0188,2020-05-21,17:55:35,18:12:54,NA,incomplete,204,number,0,right,Blue_Triangle_Stripes_1.jpg,Green_Triangle_Dots_4.jpg,Red_Circle_Grid_1.jpg,left,966.3350000046194,false,low,NA,NA,NA,NA,NA,NA,NA,false
POKowPNY,3ac6mfv6anv2a7u5af0lkpxs80hhzh,373erpl3ysll09x3rusz1pu8wc1rtp,POKowPNY,2020-0188,2020-05-21,17:55:35,18:12:54,NA,incomplete,205,number,1,left,Blue_Star_Stripes_1.jpg,Purple_Plus_Chess_1.jpg,Red_Star_Dots_3.jpg,right,872.2399999387562,false,low,NA,NA,NA,NA,NA,NA,NA,false
POKowPNY,3ac6mfv6anv2a7u5af0lkpxs80hhzh,373erpl3ysll09x3rusz1pu8wc1rtp,POKowPNY,2020-0188,2020-05-21,17:55:35,18:12:54,NA,incomplete,206,number,1,left,Purple_Circle_Dots_1.jpg,Red_Star_Chess_1.jpg,Blue_Circle_Grid_4.jpg,right,821.4500000467524,false,low,NA,NA,NA,NA,NA,NA,NA,false
POKowPNY,3ac6mfv6anv2a7u5af0lkpxs80hhzh,373erpl3ysll09x3rusz1pu8wc1rtp,POKowPNY,2020-0188,2020-05-21,17:55:35,18:12:54,NA,incomplete,207,number,0,left,Red_Circle_Grid_1.jpg,Purple_Star_Chess_1.jpg,Blue_Circle_Stripes_3.jpg,left,740.4699999606237,true,low,NA,NA,NA,NA,NA,NA,NA,false
POKowPNY,3ac6mfv6anv2a7u5af0lkpxs80hhzh,373erpl3ysll09x3rusz1pu8wc1rtp,POKowPNY,2020-0188,2020-05-21,17:55:35,18:12:54,NA,incomplete,208,number,1,right,Green_Plus_Dots_3.jpg,Purple_Plus_Chess_4.jpg,Blue_Star_Grid_3.jpg,right,1744.109999970533,true,low,NA,NA,NA,NA,NA,NA,NA,false
POKowPNY,3ac6mfv6anv2a7u5af0lkpxs80hhzh,373erpl3ysll09x3rusz1pu8wc1rtp,POKowPNY,2020-0188,2020-05-21,17:55:35,18:12:54,NA,incomplete,209,number,0,right,Purple_Triangle_Stripes_4.jpg,Blue_Triangle_Dots_1.jpg,Green_Star_Grid_4.jpg,right,1321.4949999237433,true,low,NA,NA,NA,NA,NA,NA,NA,false
POKowPNY,3ac6mfv6anv2a7u5af0lkpxs80hhzh,373erpl3ysll09x3rusz1pu8wc1rtp,POKowPNY,2020-0188,2020-05-21,17:55:35,18:12:54,NA,incomplete,210,number,1,left,Purple_Triangle_Dots_4.jpg,Blue_Star_Grid_4.jpg,Red_Triangle_Stripes_3.jpg,left,1323.8699999637902,true,low,NA,NA,NA,NA,NA,NA,NA,false
POKowPNY,3ac6mfv6anv2a7u5af0lkpxs80hhzh,373erpl3ysll09x3rusz1pu8wc1rtp,POKowPNY,2020-0188,2020-05-21,17:55:35,18:12:54,NA,incomplete,211,number,1,right,Green_Triangle_Chess_3.jpg,Blue_Triangle_Stripes_1.jpg,Red_Circle_Grid_3.jpg,right,830.8649999089539,true,low,NA,NA,NA,NA,NA,NA,NA,false
POKowPNY,3ac6mfv6anv2a7u5af0lkpxs80hhzh,373erpl3ysll09x3rusz1pu8wc1rtp,POKowPNY,2020-0188,2020-05-21,17:55:35,18:12:54,NA,incomplete,212,number,1,left,Red_Plus_Stripes_1.jpg,Blue_Star_Dots_1.jpg,Green_Plus_Chess_2.jpg,left,1470.6649999134243,true,low,NA,NA,NA,NA,NA,NA,NA,false
POKowPNY,3ac6mfv6anv2a7u5af0lkpxs80hhzh,373erpl3ysll09x3rusz1pu8wc1rtp,POKowPNY,2020-0188,2020-05-21,17:55:35,18:12:54,NA,incomplete,213,number,0,left,Blue_Plus_Dots_2.jpg,Purple_Star_Chess_2.jpg,Red_Plus_Stripes_1.jpg,left,737.4299999792129,true,low,NA,NA,NA,NA,NA,NA,NA,false
POKowPNY,3ac6mfv6anv2a7u5af0lkpxs80hhzh,373erpl3ysll09x3rusz1pu8wc1rtp,POKowPNY,2020-0188,2020-05-21,17:55:35,18:12:54,NA,incomplete,214,number,1,right,Blue_Star_Dots_1.jpg,Red_Star_Grid_3.jpg,Purple_Plus_Stripes_1.jpg,right,860.6399999698624,true,low,NA,NA,NA,NA,NA,NA,NA,false
POKowPNY,3ac6mfv6anv2a7u5af0lkpxs80hhzh,373erpl3ysll09x3rusz1pu8wc1rtp,POKowPNY,2020-0188,2020-05-21,17:55:35,18:12:54,NA,incomplete,215,number,1,left,Purple_Plus_Grid_2.jpg,Green_Circle_Dots_2.jpg,Red_Plus_Stripes_1.jpg,left,891.2799999816343,true,low,NA,NA,NA,NA,NA,NA,NA,false
POKowPNY,3ac6mfv6anv2a7u5af0lkpxs80hhzh,373erpl3ysll09x3rusz1pu8wc1rtp,POKowPNY,2020-0188,2020-05-21,17:55:35,18:12:54,NA,incomplete,216,number,1,right,Red_Plus_Dots_2.jpg,Green_Plus_Stripes_4.jpg,Purple_Circle_Chess_2.jpg,left,1224.72000005655,false,low,NA,NA,NA,NA,NA,NA,NA,false
POKowPNY,3ac6mfv6anv2a7u5af0lkpxs80hhzh,373erpl3ysll09x3rusz1pu8wc1rtp,POKowPNY,2020-0188,2020-05-21,17:55:35,18:12:54,NA,incomplete,217,number,1,left,Blue_Circle_Dots_3.jpg,Green_Plus_Grid_3.jpg,Red_Circle_Stripes_2.jpg,left,1199.3800000054762,true,low,NA,NA,NA,NA,NA,NA,NA,false
POKowPNY,3ac6mfv6anv2a7u5af0lkpxs80hhzh,373erpl3ysll09x3rusz1pu8wc1rtp,POKowPNY,2020-0188,2020-05-21,17:55:35,18:12:54,NA,incomplete,218,number,1,right,Purple_Triangle_Stripes_3.jpg,Blue_Triangle_Chess_4.jpg,Green_Plus_Dots_3.jpg,right,1318.8049999298528,true,low,NA,NA,NA,NA,NA,NA,NA,false
POKowPNY,3ac6mfv6anv2a7u5af0lkpxs80hhzh,373erpl3ysll09x3rusz1pu8wc1rtp,POKowPNY,2020-0188,2020-05-21,17:55:35,18:12:54,NA,incomplete,219,number,1,right,Green_Star_Stripes_2.jpg,Blue_Star_Grid_3.jpg,Purple_Circle_Dots_2.jpg,right,898.4499999787658,true,low,NA,NA,NA,NA,NA,NA,NA,false
POKowPNY,3ac6mfv6anv2a7u5af0lkpxs80hhzh,373erpl3ysll09x3rusz1pu8wc1rtp,POKowPNY,2020-0188,2020-05-21,17:55:35,18:12:54,NA,incomplete,220,shape,1,left,Red_Triangle_Grid_2.jpg,Purple_Triangle_Chess_1.jpg,Green_Plus_Stripes_2.jpg,right,838.8000000268221,false,low,NA,NA,NA,NA,NA,NA,NA,false
POKowPNY,3ac6mfv6anv2a7u5af0lkpxs80hhzh,373erpl3ysll09x3rusz1pu8wc1rtp,POKowPNY,2020-0188,2020-05-21,17:55:35,18:12:54,NA,incomplete,221,shape,0,right,Green_Triangle_Stripes_2.jpg,Purple_Star_Grid_2.jpg,Red_Triangle_Dots_1.jpg,left,1310.219999984838,false,low,NA,NA,NA,NA,NA,NA,NA,false
POKowPNY,3ac6mfv6anv2a7u5af0lkpxs80hhzh,373erpl3ysll09x3rusz1pu8wc1rtp,POKowPNY,2020-0188,2020-05-21,17:55:35,18:12:54,NA,incomplete,222,shape,1,right,Purple_Triangle_Chess_4.jpg,Red_Plus_Dots_4.jpg,Blue_Triangle_Grid_2.jpg,left,1137.8000000258908,false,low,NA,NA,NA,NA,NA,NA,NA,false
POKowPNY,3ac6mfv6anv2a7u5af0lkpxs80hhzh,373erpl3ysll09x3rusz1pu8wc1rtp,POKowPNY,2020-0188,2020-05-21,17:55:35,18:12:54,NA,incomplete,223,shape,1,left,Blue_Circle_Stripes_2.jpg,Red_Circle_Chess_3.jpg,Purple_Plus_Dots_2.jpg,right,898.600000073202,false,low,NA,NA,NA,NA,NA,NA,NA,false
POKowPNY,3ac6mfv6anv2a7u5af0lkpxs80hhzh,373erpl3ysll09x3rusz1pu8wc1rtp,POKowPNY,2020-0188,2020-05-21,17:55:35,18:12:54,NA,incomplete,224,shape,1,right,Green_Star_Dots_4.jpg,Red_Circle_Grid_4.jpg,Purple_Star_Chess_1.jpg,right,975.7299999473616,true,low,NA,NA,NA,NA,NA,NA,NA,false
POKowPNY,3ac6mfv6anv2a7u5af0lkpxs80hhzh,373erpl3ysll09x3rusz1pu8wc1rtp,POKowPNY,2020-0188,2020-05-21,17:55:35,18:12:54,NA,incomplete,225,shape,1,left,Purple_Circle_Dots_4.jpg,Blue_Circle_Grid_2.jpg,Green_Triangle_Chess_4.jpg,left,840.5849999981001,true,low,NA,NA,NA,NA,NA,NA,NA,false
POKowPNY,3ac6mfv6anv2a7u5af0lkpxs80hhzh,373erpl3ysll09x3rusz1pu8wc1rtp,POKowPNY,2020-0188,2020-05-21,17:55:35,18:12:54,NA,incomplete,226,shape,1,right,Blue_Star_Stripes_3.jpg,Green_Triangle_Dots_3.jpg,Red_Star_Grid_2.jpg,right,759.7799999639392,true,low,NA,NA,NA,NA,NA,NA,NA,false
POKowPNY,3ac6mfv6anv2a7u5af0lkpxs80hhzh,373erpl3ysll09x3rusz1pu8wc1rtp,POKowPNY,2020-0188,2020-05-21,17:55:35,18:12:54,NA,incomplete,227,shape,1,left,Green_Star_Grid_2.jpg,Red_Star_Chess_3.jpg,Purple_Triangle_Stripes_2.jpg,left,977.5349999545142,true,low,NA,NA,NA,NA,NA,NA,NA,false
POKowPNY,3ac6mfv6anv2a7u5af0lkpxs80hhzh,373erpl3ysll09x3rusz1pu8wc1rtp,POKowPNY,2020-0188,2020-05-21,17:55:35,18:12:54,NA,incomplete,228,shape,0,left,Purple_Circle_Stripes_1.jpg,Red_Circle_Chess_2.jpg,Blue_Triangle_Grid_1.jpg,left,795.1550000580028,true,low,NA,NA,NA,NA,NA,NA,NA,false
POKowPNY,3ac6mfv6anv2a7u5af0lkpxs80hhzh,373erpl3ysll09x3rusz1pu8wc1rtp,POKowPNY,2020-0188,2020-05-21,17:55:35,18:12:54,NA,incomplete,229,shape,1,right,Blue_Triangle_Dots_4.jpg,Purple_Circle_Grid_4.jpg,Red_Triangle_Chess_2.jpg,right,651.5549999894574,true,low,NA,NA,NA,NA,NA,NA,NA,false
POKowPNY,3ac6mfv6anv2a7u5af0lkpxs80hhzh,373erpl3ysll09x3rusz1pu8wc1rtp,POKowPNY,2020-0188,2020-05-21,17:55:35,18:12:54,NA,incomplete,230,shape,1,right,Purple_Star_Grid_1.jpg,Blue_Triangle_Dots_1.jpg,Green_Star_Chess_2.jpg,right,722.5399999879301,true,low,NA,NA,NA,NA,NA,NA,NA,false
POKowPNY,3ac6mfv6anv2a7u5af0lkpxs80hhzh,373erpl3ysll09x3rusz1pu8wc1rtp,POKowPNY,2020-0188,2020-05-21,17:55:35,18:12:54,NA,incomplete,231,shape,0,left,Blue_Star_Chess_3.jpg,Purple_Star_Stripes_2.jpg,Red_Plus_Dots_3.jpg,left,1127.7199999894947,true,low,NA,NA,NA,NA,NA,NA,NA,false
POKowPNY,3ac6mfv6anv2a7u5af0lkpxs80hhzh,373erpl3ysll09x3rusz1pu8wc1rtp,POKowPNY,2020-0188,2020-05-21,17:55:35,18:12:54,NA,incomplete,232,shape,1,left,Blue_Plus_Stripes_2.jpg,Green_Plus_Chess_3.jpg,Purple_Triangle_Grid_2.jpg,left,753.4349999623373,true,low,NA,NA,NA,NA,NA,NA,NA,false
POKowPNY,3ac6mfv6anv2a7u5af0lkpxs80hhzh,373erpl3ysll09x3rusz1pu8wc1rtp,POKowPNY,2020-0188,2020-05-21,17:55:35,18:12:54,NA,incomplete,233,shape,1,right,Green_Plus_Stripes_2.jpg,Blue_Circle_Chess_2.jpg,Purple_Plus_Grid_4.jpg,right,764.0949999913573,true,low,NA,NA,NA,NA,NA,NA,NA,false
POKowPNY,3ac6mfv6anv2a7u5af0lkpxs80hhzh,373erpl3ysll09x3rusz1pu8wc1rtp,POKowPNY,2020-0188,2020-05-21,17:55:35,18:12:54,NA,incomplete,234,shape,1,left,Blue_Star_Dots_4.jpg,Purple_Star_Chess_3.jpg,Green_Plus_Stripes_4.jpg,left,1221.6699999989942,true,low,NA,NA,NA,NA,NA,NA,NA,false
POKowPNY,3ac6mfv6anv2a7u5af0lkpxs80hhzh,373erpl3ysll09x3rusz1pu8wc1rtp,POKowPNY,2020-0188,2020-05-21,17:55:35,18:12:54,NA,incomplete,235,shape,1,left,Blue_Triangle_Grid_1.jpg,Red_Triangle_Chess_3.jpg,Purple_Circle_Stripes_1.jpg,left,804.6150000300258,true,low,NA,NA,NA,NA,NA,NA,NA,false
POKowPNY,3ac6mfv6anv2a7u5af0lkpxs80hhzh,373erpl3ysll09x3rusz1pu8wc1rtp,POKowPNY,2020-0188,2020-05-21,17:55:35,18:12:54,NA,incomplete,236,shape,0,left,Purple_Plus_Grid_2.jpg,Green_Plus_Chess_1.jpg,Red_Triangle_Stripes_2.jpg,left,724.9649999430403,true,low,NA,NA,NA,NA,NA,NA,NA,false
POKowPNY,3ac6mfv6anv2a7u5af0lkpxs80hhzh,373erpl3ysll09x3rusz1pu8wc1rtp,POKowPNY,2020-0188,2020-05-21,17:55:35,18:12:54,NA,incomplete,237,shape,1,right,Green_Star_Chess_4.jpg,Red_Circle_Grid_4.jpg,Purple_Star_Dots_1.jpg,right,1463.8200000626966,true,low,NA,NA,NA,NA,NA,NA,NA,false
POKowPNY,3ac6mfv6anv2a7u5af0lkpxs80hhzh,373erpl3ysll09x3rusz1pu8wc1rtp,POKowPNY,2020-0188,2020-05-21,17:55:35,18:12:54,NA,incomplete,238,shape,1,left,Blue_Star_Grid_3.jpg,Purple_Star_Stripes_2.jpg,Red_Plus_Dots_3.jpg,left,886.0749999294057,true,low,NA,NA,NA,NA,NA,NA,NA,false
POKowPNY,3ac6mfv6anv2a7u5af0lkpxs80hhzh,373erpl3ysll09x3rusz1pu8wc1rtp,POKowPNY,2020-0188,2020-05-21,17:55:35,18:12:54,NA,incomplete,239,shape,1,right,Green_Circle_Chess_2.jpg,Red_Plus_Grid_2.jpg,Blue_Circle_Dots_3.jpg,right,961.7900000885129,true,low,NA,NA,NA,NA,NA,NA,NA,false
POKowPNY,3ac6mfv6anv2a7u5af0lkpxs80hhzh,373erpl3ysll09x3rusz1pu8wc1rtp,POKowPNY,2020-0188,2020-05-21,17:55:35,18:12:54,NA,NA,instruction example,filling,NA,NA,Blue_Star_Dots_2.jpg,Purple_Circle_Dots_1.jpg,Blue_Plus_Chess_3.jpg,NA,NA,NA,NA,NA,NA,NA,NA,NA,NA,NA,undefined
POKowPNY,3ac6mfv6anv2a7u5af0lkpxs80hhzh,373erpl3ysll09x3rusz1pu8wc1rtp,POKowPNY,2020-0188,2020-05-21,17:55:35,18:12:54,NA,NA,instruction example,filling,NA,NA,Blue_Triangle_Dots_2.jpg,Blue_Star_Chess_3.jpg,Red_Circle_Dots_1.jpg,NA,NA,NA,NA,NA,NA,NA,NA,NA,NA,NA,undefined
POKowPNY,3ac6mfv6anv2a7u5af0lkpxs80hhzh,373erpl3ysll09x3rusz1pu8wc1rtp,POKowPNY,2020-0188,2020-05-21,17:55:35,18:12:54,NA,NA,instruction example,filling,NA,NA,Red_Circle_Stripes_1.jpg,Green_Star_Chess_1.jpg,Blue_Circle_Dots_3.jpg,NA,NA,NA,NA,NA,NA,NA,NA,NA,NA,NA,undefined
POKowPNY,3ac6mfv6anv2a7u5af0lkpxs80hhzh,373erpl3ysll09x3rusz1pu8wc1rtp,POKowPNY,2020-0188,2020-05-21,17:55:35,18:12:54,NA,NA,instruction example,filling,NA,NA,Purple_Plus_Dots_1.jpg,Green_Plus_Stripes_4.jpg,Red_Star_Chess_1.jpg,NA,NA,NA,NA,NA,NA,NA,NA,NA,NA,NA,undefined
POKowPNY,3ac6mfv6anv2a7u5af0lkpxs80hhzh,373erpl3ysll09x3rusz1pu8wc1rtp,POKowPNY,2020-0188,2020-05-21,17:55:35,18:12:54,1013634.2449999647,1038874.2499999935,NA,NA,NA,NA,NA,NA,NA,NA,NA,NA,NA,54,White/Caucasian,Female,caucasion,no,yes,no,undefined
