workerId,hitId,assignmentId,subject,studyid,exp_date,exp_start,exp_end,time_start,time_end,trial,type,reward_validity,answer,image_top,image_left,image_right,response,response_time,response_acc,volatility,practice
af1ur3WK,3y7ltze0zwz7ft0pae7k34mi28juzv,374tnbha8f8h5uhxolqy4gcifpfyqc,af1ur3WK,2020-0188,2020-05-21,14:43:49,15:01:02,NA,incomplete,0,filling,1,left,Blue_Star_Grid_2.jpg,Purple_Triangle_Grid_4.jpg,Red_Star_Dots_1.jpg,left,1821,true,NA,true
af1ur3WK,3y7ltze0zwz7ft0pae7k34mi28juzv,374tnbha8f8h5uhxolqy4gcifpfyqc,af1ur3WK,2020-0188,2020-05-21,14:43:49,15:01:02,NA,incomplete,1,filling,0,right,Purple_Circle_Chess_1.jpg,Green_Circle_Grid_2.jpg,Blue_Star_Chess_4.jpg,right,1526,true,NA,true
af1ur3WK,3y7ltze0zwz7ft0pae7k34mi28juzv,374tnbha8f8h5uhxolqy4gcifpfyqc,af1ur3WK,2020-0188,2020-05-21,14:43:49,15:01:02,NA,incomplete,2,filling,1,left,Red_Plus_Grid_3.jpg,Blue_Star_Grid_4.jpg,Purple_Plus_Chess_1.jpg,left,1419,true,NA,true
af1ur3WK,3y7ltze0zwz7ft0pae7k34mi28juzv,374tnbha8f8h5uhxolqy4gcifpfyqc,af1ur3WK,2020-0188,2020-05-21,14:43:49,15:01:02,NA,incomplete,3,filling,1,left,Purple_Plus_Chess_3.jpg,Green_Star_Chess_2.jpg,Red_Plus_Grid_4.jpg,left,1252,true,NA,true
af1ur3WK,3y7ltze0zwz7ft0pae7k34mi28juzv,374tnbha8f8h5uhxolqy4gcifpfyqc,af1ur3WK,2020-0188,2020-05-21,14:43:49,15:01:02,NA,incomplete,4,filling,1,left,Purple_Plus_Chess_3.jpg,Red_Circle_Chess_4.jpg,Green_Plus_Stripes_2.jpg,left,1401,true,NA,true
af1ur3WK,3y7ltze0zwz7ft0pae7k34mi28juzv,374tnbha8f8h5uhxolqy4gcifpfyqc,af1ur3WK,2020-0188,2020-05-21,14:43:49,15:01:02,NA,incomplete,5,filling,0,left,Blue_Triangle_Stripes_2.jpg,Red_Plus_Stripes_3.jpg,Purple_Triangle_Dots_1.jpg,left,1142,true,NA,true
af1ur3WK,3y7ltze0zwz7ft0pae7k34mi28juzv,374tnbha8f8h5uhxolqy4gcifpfyqc,af1ur3WK,2020-0188,2020-05-21,14:43:49,15:01:02,NA,incomplete,6,filling,1,left,Green_Triangle_Stripes_4.jpg,Red_Circle_Stripes_1.jpg,Blue_Triangle_Dots_3.jpg,left,1035,true,NA,true
af1ur3WK,3y7ltze0zwz7ft0pae7k34mi28juzv,374tnbha8f8h5uhxolqy4gcifpfyqc,af1ur3WK,2020-0188,2020-05-21,14:43:49,15:01:02,NA,incomplete,7,filling,1,right,Green_Plus_Dots_3.jpg,Red_Plus_Stripes_2.jpg,Purple_Star_Dots_1.jpg,right,1476,true,NA,true
af1ur3WK,3y7ltze0zwz7ft0pae7k34mi28juzv,374tnbha8f8h5uhxolqy4gcifpfyqc,af1ur3WK,2020-0188,2020-05-21,14:43:49,15:01:02,NA,incomplete,8,filling,1,left,Green_Star_Grid_3.jpg,Red_Triangle_Grid_1.jpg,Blue_Star_Chess_4.jpg,left,1199,true,NA,true
af1ur3WK,3y7ltze0zwz7ft0pae7k34mi28juzv,374tnbha8f8h5uhxolqy4gcifpfyqc,af1ur3WK,2020-0188,2020-05-21,14:43:49,15:01:02,NA,incomplete,9,filling,1,left,Green_Triangle_Chess_3.jpg,Blue_Plus_Chess_2.jpg,Purple_Triangle_Dots_4.jpg,left,1352,true,NA,true
af1ur3WK,3y7ltze0zwz7ft0pae7k34mi28juzv,374tnbha8f8h5uhxolqy4gcifpfyqc,af1ur3WK,2020-0188,2020-05-21,14:43:49,15:01:02,NA,incomplete,10,filling,1,right,Red_Circle_Dots_4.jpg,Blue_Circle_Stripes_2.jpg,Purple_Triangle_Dots_1.jpg,right,1083,true,NA,true
af1ur3WK,3y7ltze0zwz7ft0pae7k34mi28juzv,374tnbha8f8h5uhxolqy4gcifpfyqc,af1ur3WK,2020-0188,2020-05-21,14:43:49,15:01:02,NA,incomplete,11,filling,1,right,Red_Triangle_Chess_1.jpg,Purple_Triangle_Grid_2.jpg,Green_Star_Chess_3.jpg,right,1196,true,NA,true
af1ur3WK,3y7ltze0zwz7ft0pae7k34mi28juzv,374tnbha8f8h5uhxolqy4gcifpfyqc,af1ur3WK,2020-0188,2020-05-21,14:43:49,15:01:02,NA,incomplete,12,filling,1,left,Red_Star_Chess_1.jpg,Green_Plus_Chess_3.jpg,Purple_Star_Grid_2.jpg,left,1179,true,NA,true
af1ur3WK,3y7ltze0zwz7ft0pae7k34mi28juzv,374tnbha8f8h5uhxolqy4gcifpfyqc,af1ur3WK,2020-0188,2020-05-21,14:43:49,15:01:02,NA,incomplete,13,filling,0,left,Purple_Plus_Grid_3.jpg,Green_Circle_Grid_4.jpg,Red_Plus_Stripes_2.jpg,left,1186,true,NA,true
af1ur3WK,3y7ltze0zwz7ft0pae7k34mi28juzv,374tnbha8f8h5uhxolqy4gcifpfyqc,af1ur3WK,2020-0188,2020-05-21,14:43:49,15:01:02,NA,incomplete,14,filling,1,right,Blue_Triangle_Chess_2.jpg,Purple_Triangle_Dots_4.jpg,Red_Plus_Chess_3.jpg,right,1232,true,NA,true
af1ur3WK,3y7ltze0zwz7ft0pae7k34mi28juzv,374tnbha8f8h5uhxolqy4gcifpfyqc,af1ur3WK,2020-0188,2020-05-21,14:43:49,15:01:02,NA,incomplete,15,filling,1,left,Purple_Star_Grid_3.jpg,Red_Triangle_Grid_1.jpg,Green_Star_Chess_2.jpg,left,1467,true,NA,true
af1ur3WK,3y7ltze0zwz7ft0pae7k34mi28juzv,374tnbha8f8h5uhxolqy4gcifpfyqc,af1ur3WK,2020-0188,2020-05-21,14:43:49,15:01:02,NA,incomplete,16,filling,1,left,Red_Circle_Dots_2.jpg,Green_Plus_Dots_4.jpg,Purple_Circle_Stripes_3.jpg,left,1196,true,NA,true
af1ur3WK,3y7ltze0zwz7ft0pae7k34mi28juzv,374tnbha8f8h5uhxolqy4gcifpfyqc,af1ur3WK,2020-0188,2020-05-21,14:43:49,15:01:02,NA,incomplete,17,filling,1,left,Blue_Circle_Dots_2.jpg,Red_Triangle_Dots_3.jpg,Purple_Circle_Chess_1.jpg,left,1052,true,NA,true
af1ur3WK,3y7ltze0zwz7ft0pae7k34mi28juzv,374tnbha8f8h5uhxolqy4gcifpfyqc,af1ur3WK,2020-0188,2020-05-21,14:43:49,15:01:02,NA,incomplete,18,filling,1,left,Purple_Circle_Chess_1.jpg,Blue_Triangle_Chess_2.jpg,Red_Circle_Stripes_3.jpg,left,1376,true,NA,true
af1ur3WK,3y7ltze0zwz7ft0pae7k34mi28juzv,374tnbha8f8h5uhxolqy4gcifpfyqc,af1ur3WK,2020-0188,2020-05-21,14:43:49,15:01:02,NA,incomplete,19,filling,1,right,Blue_Star_Dots_1.jpg,Green_Star_Grid_2.jpg,Purple_Circle_Dots_3.jpg,right,1380,true,NA,true
af1ur3WK,3y7ltze0zwz7ft0pae7k34mi28juzv,374tnbha8f8h5uhxolqy4gcifpfyqc,af1ur3WK,2020-0188,2020-05-21,14:43:49,15:01:02,NA,incomplete,20,shape,1,left,Red_Circle_Stripes_1.jpg,Purple_Circle_Chess_2.jpg,Blue_Plus_Stripes_4.jpg,left,1070,true,NA,true
af1ur3WK,3y7ltze0zwz7ft0pae7k34mi28juzv,374tnbha8f8h5uhxolqy4gcifpfyqc,af1ur3WK,2020-0188,2020-05-21,14:43:49,15:01:02,NA,incomplete,21,shape,1,left,Red_Plus_Grid_4.jpg,Green_Plus_Stripes_2.jpg,Blue_Triangle_Grid_3.jpg,left,835,true,NA,true
af1ur3WK,3y7ltze0zwz7ft0pae7k34mi28juzv,374tnbha8f8h5uhxolqy4gcifpfyqc,af1ur3WK,2020-0188,2020-05-21,14:43:49,15:01:02,NA,incomplete,22,shape,1,left,Red_Triangle_Chess_4.jpg,Purple_Triangle_Grid_2.jpg,Blue_Circle_Chess_3.jpg,left,787,true,NA,true
af1ur3WK,3y7ltze0zwz7ft0pae7k34mi28juzv,374tnbha8f8h5uhxolqy4gcifpfyqc,af1ur3WK,2020-0188,2020-05-21,14:43:49,15:01:02,NA,incomplete,23,shape,0,right,Blue_Triangle_Chess_3.jpg,Red_Star_Chess_4.jpg,Green_Triangle_Dots_2.jpg,right,916,true,NA,true
af1ur3WK,3y7ltze0zwz7ft0pae7k34mi28juzv,374tnbha8f8h5uhxolqy4gcifpfyqc,af1ur3WK,2020-0188,2020-05-21,14:43:49,15:01:02,NA,incomplete,24,shape,0,right,Blue_Star_Stripes_1.jpg,Purple_Circle_Stripes_3.jpg,Red_Star_Dots_4.jpg,right,813,true,NA,true
af1ur3WK,3y7ltze0zwz7ft0pae7k34mi28juzv,374tnbha8f8h5uhxolqy4gcifpfyqc,af1ur3WK,2020-0188,2020-05-21,14:43:49,15:01:02,NA,incomplete,25,shape,1,left,Green_Circle_Chess_3.jpg,Red_Circle_Stripes_1.jpg,Blue_Triangle_Chess_2.jpg,left,760,true,NA,true
af1ur3WK,3y7ltze0zwz7ft0pae7k34mi28juzv,374tnbha8f8h5uhxolqy4gcifpfyqc,af1ur3WK,2020-0188,2020-05-21,14:43:49,15:01:02,NA,incomplete,26,shape,0,left,Red_Triangle_Chess_3.jpg,Green_Triangle_Dots_2.jpg,Purple_Plus_Chess_4.jpg,left,859,true,NA,true
af1ur3WK,3y7ltze0zwz7ft0pae7k34mi28juzv,374tnbha8f8h5uhxolqy4gcifpfyqc,af1ur3WK,2020-0188,2020-05-21,14:43:49,15:01:02,NA,incomplete,27,shape,1,right,Purple_Triangle_Dots_1.jpg,Green_Plus_Dots_2.jpg,Red_Triangle_Chess_3.jpg,right,810,true,NA,true
af1ur3WK,3y7ltze0zwz7ft0pae7k34mi28juzv,374tnbha8f8h5uhxolqy4gcifpfyqc,af1ur3WK,2020-0188,2020-05-21,14:43:49,15:01:02,NA,incomplete,28,shape,1,left,Red_Circle_Stripes_1.jpg,Purple_Circle_Chess_4.jpg,Green_Plus_Stripes_3.jpg,left,660,true,NA,true
af1ur3WK,3y7ltze0zwz7ft0pae7k34mi28juzv,374tnbha8f8h5uhxolqy4gcifpfyqc,af1ur3WK,2020-0188,2020-05-21,14:43:49,15:01:02,NA,incomplete,29,shape,1,left,Purple_Triangle_Dots_1.jpg,Blue_Triangle_Stripes_3.jpg,Red_Star_Dots_2.jpg,left,680,true,NA,true
af1ur3WK,3y7ltze0zwz7ft0pae7k34mi28juzv,374tnbha8f8h5uhxolqy4gcifpfyqc,af1ur3WK,2020-0188,2020-05-21,14:43:49,15:01:02,NA,incomplete,30,shape,1,left,Green_Circle_Dots_3.jpg,Purple_Circle_Grid_1.jpg,Red_Plus_Dots_4.jpg,left,648,true,NA,true
af1ur3WK,3y7ltze0zwz7ft0pae7k34mi28juzv,374tnbha8f8h5uhxolqy4gcifpfyqc,af1ur3WK,2020-0188,2020-05-21,14:43:49,15:01:02,NA,incomplete,31,shape,1,left,Green_Circle_Stripes_4.jpg,Red_Circle_Grid_1.jpg,Purple_Star_Stripes_3.jpg,left,917,true,NA,true
af1ur3WK,3y7ltze0zwz7ft0pae7k34mi28juzv,374tnbha8f8h5uhxolqy4gcifpfyqc,af1ur3WK,2020-0188,2020-05-21,14:43:49,15:01:02,NA,incomplete,32,shape,1,right,Red_Star_Grid_4.jpg,Green_Triangle_Grid_3.jpg,Purple_Star_Chess_1.jpg,right,901,true,NA,true
af1ur3WK,3y7ltze0zwz7ft0pae7k34mi28juzv,374tnbha8f8h5uhxolqy4gcifpfyqc,af1ur3WK,2020-0188,2020-05-21,14:43:49,15:01:02,NA,incomplete,33,shape,1,left,Red_Triangle_Chess_3.jpg,Blue_Triangle_Dots_4.jpg,Green_Star_Chess_1.jpg,left,981,true,NA,true
af1ur3WK,3y7ltze0zwz7ft0pae7k34mi28juzv,374tnbha8f8h5uhxolqy4gcifpfyqc,af1ur3WK,2020-0188,2020-05-21,14:43:49,15:01:02,NA,incomplete,34,shape,1,right,Purple_Circle_Grid_3.jpg,Red_Triangle_Grid_4.jpg,Blue_Circle_Chess_1.jpg,right,852,true,NA,true
af1ur3WK,3y7ltze0zwz7ft0pae7k34mi28juzv,374tnbha8f8h5uhxolqy4gcifpfyqc,af1ur3WK,2020-0188,2020-05-21,14:43:49,15:01:02,NA,incomplete,35,shape,0,right,Blue_Triangle_Grid_1.jpg,Green_Star_Grid_3.jpg,Purple_Triangle_Stripes_2.jpg,right,863,true,NA,true
af1ur3WK,3y7ltze0zwz7ft0pae7k34mi28juzv,374tnbha8f8h5uhxolqy4gcifpfyqc,af1ur3WK,2020-0188,2020-05-21,14:43:49,15:01:02,NA,incomplete,36,shape,1,right,Red_Star_Grid_3.jpg,Purple_Circle_Grid_4.jpg,Blue_Star_Chess_2.jpg,right,826,true,NA,true
af1ur3WK,3y7ltze0zwz7ft0pae7k34mi28juzv,374tnbha8f8h5uhxolqy4gcifpfyqc,af1ur3WK,2020-0188,2020-05-21,14:43:49,15:01:02,NA,incomplete,37,shape,1,left,Red_Plus_Grid_1.jpg,Green_Plus_Dots_2.jpg,Blue_Triangle_Grid_3.jpg,left,749,true,NA,true
af1ur3WK,3y7ltze0zwz7ft0pae7k34mi28juzv,374tnbha8f8h5uhxolqy4gcifpfyqc,af1ur3WK,2020-0188,2020-05-21,14:43:49,15:01:02,NA,incomplete,38,shape,0,right,Red_Plus_Grid_3.jpg,Green_Triangle_Grid_4.jpg,Purple_Plus_Dots_2.jpg,right,949,true,NA,true
af1ur3WK,3y7ltze0zwz7ft0pae7k34mi28juzv,374tnbha8f8h5uhxolqy4gcifpfyqc,af1ur3WK,2020-0188,2020-05-21,14:43:49,15:01:02,NA,incomplete,39,shape,1,left,Blue_Circle_Dots_4.jpg,Purple_Circle_Chess_3.jpg,Red_Star_Dots_1.jpg,left,998,true,NA,true
af1ur3WK,3y7ltze0zwz7ft0pae7k34mi28juzv,374tnbha8f8h5uhxolqy4gcifpfyqc,af1ur3WK,2020-0188,2020-05-21,14:43:49,15:01:02,NA,incomplete,0,filling,1,left,Red_Star_Chess_4.jpg,Green_Plus_Chess_3.jpg,Purple_Star_Stripes_1.jpg,right,949,false,high,false
af1ur3WK,3y7ltze0zwz7ft0pae7k34mi28juzv,374tnbha8f8h5uhxolqy4gcifpfyqc,af1ur3WK,2020-0188,2020-05-21,14:43:49,15:01:02,NA,incomplete,1,filling,0,right,Purple_Star_Stripes_1.jpg,Red_Star_Chess_2.jpg,Green_Circle_Stripes_4.jpg,left,646,false,high,false
af1ur3WK,3y7ltze0zwz7ft0pae7k34mi28juzv,374tnbha8f8h5uhxolqy4gcifpfyqc,af1ur3WK,2020-0188,2020-05-21,14:43:49,15:01:02,NA,incomplete,2,filling,1,left,Red_Plus_Chess_2.jpg,Blue_Circle_Chess_1.jpg,Green_Plus_Dots_3.jpg,right,752,false,high,false
af1ur3WK,3y7ltze0zwz7ft0pae7k34mi28juzv,374tnbha8f8h5uhxolqy4gcifpfyqc,af1ur3WK,2020-0188,2020-05-21,14:43:49,15:01:02,NA,incomplete,3,filling,1,right,Purple_Star_Chess_3.jpg,Green_Star_Dots_4.jpg,Red_Plus_Chess_2.jpg,left,777,false,high,false
af1ur3WK,3y7ltze0zwz7ft0pae7k34mi28juzv,374tnbha8f8h5uhxolqy4gcifpfyqc,af1ur3WK,2020-0188,2020-05-21,14:43:49,15:01:02,NA,incomplete,4,filling,0,right,Blue_Circle_Grid_4.jpg,Green_Circle_Dots_3.jpg,Purple_Star_Grid_1.jpg,right,1037,true,high,false
af1ur3WK,3y7ltze0zwz7ft0pae7k34mi28juzv,374tnbha8f8h5uhxolqy4gcifpfyqc,af1ur3WK,2020-0188,2020-05-21,14:43:49,15:01:02,NA,incomplete,5,filling,1,left,Purple_Triangle_Stripes_4.jpg,Red_Circle_Stripes_2.jpg,Green_Triangle_Dots_3.jpg,left,877,true,high,false
af1ur3WK,3y7ltze0zwz7ft0pae7k34mi28juzv,374tnbha8f8h5uhxolqy4gcifpfyqc,af1ur3WK,2020-0188,2020-05-21,14:43:49,15:01:02,NA,incomplete,6,filling,1,right,Red_Triangle_Chess_4.jpg,Blue_Triangle_Dots_2.jpg,Purple_Plus_Chess_3.jpg,right,886,true,high,false
af1ur3WK,3y7ltze0zwz7ft0pae7k34mi28juzv,374tnbha8f8h5uhxolqy4gcifpfyqc,af1ur3WK,2020-0188,2020-05-21,14:43:49,15:01:02,NA,incomplete,7,filling,1,left,Red_Circle_Grid_1.jpg,Green_Star_Grid_3.jpg,Purple_Circle_Dots_4.jpg,left,1042,true,high,false
af1ur3WK,3y7ltze0zwz7ft0pae7k34mi28juzv,374tnbha8f8h5uhxolqy4gcifpfyqc,af1ur3WK,2020-0188,2020-05-21,14:43:49,15:01:02,NA,incomplete,8,filling,1,left,Blue_Star_Grid_4.jpg,Green_Triangle_Grid_3.jpg,Red_Star_Chess_2.jpg,left,1190,true,high,false
af1ur3WK,3y7ltze0zwz7ft0pae7k34mi28juzv,374tnbha8f8h5uhxolqy4gcifpfyqc,af1ur3WK,2020-0188,2020-05-21,14:43:49,15:01:02,NA,incomplete,9,filling,1,right,Green_Star_Grid_2.jpg,Purple_Star_Stripes_4.jpg,Red_Circle_Grid_1.jpg,right,1234,true,high,false
af1ur3WK,3y7ltze0zwz7ft0pae7k34mi28juzv,374tnbha8f8h5uhxolqy4gcifpfyqc,af1ur3WK,2020-0188,2020-05-21,14:43:49,15:01:02,NA,incomplete,10,shape,1,left,Purple_Plus_Dots_2.jpg,Green_Plus_Chess_4.jpg,Blue_Circle_Dots_1.jpg,right,941,false,high,false
af1ur3WK,3y7ltze0zwz7ft0pae7k34mi28juzv,374tnbha8f8h5uhxolqy4gcifpfyqc,af1ur3WK,2020-0188,2020-05-21,14:43:49,15:01:02,NA,incomplete,11,shape,1,left,Purple_Triangle_Dots_2.jpg,Red_Triangle_Stripes_1.jpg,Green_Circle_Dots_4.jpg,right,1054,false,high,false
af1ur3WK,3y7ltze0zwz7ft0pae7k34mi28juzv,374tnbha8f8h5uhxolqy4gcifpfyqc,af1ur3WK,2020-0188,2020-05-21,14:43:49,15:01:02,NA,incomplete,12,shape,1,left,Red_Plus_Chess_1.jpg,Green_Plus_Stripes_4.jpg,Blue_Star_Chess_3.jpg,right,1510,false,high,false
af1ur3WK,3y7ltze0zwz7ft0pae7k34mi28juzv,374tnbha8f8h5uhxolqy4gcifpfyqc,af1ur3WK,2020-0188,2020-05-21,14:43:49,15:01:02,NA,incomplete,13,shape,1,right,Green_Star_Chess_1.jpg,Red_Triangle_Chess_4.jpg,Blue_Star_Stripes_3.jpg,right,670,true,high,false
af1ur3WK,3y7ltze0zwz7ft0pae7k34mi28juzv,374tnbha8f8h5uhxolqy4gcifpfyqc,af1ur3WK,2020-0188,2020-05-21,14:43:49,15:01:02,NA,incomplete,14,shape,1,left,Red_Circle_Grid_2.jpg,Blue_Circle_Stripes_1.jpg,Green_Star_Grid_4.jpg,left,613,true,high,false
af1ur3WK,3y7ltze0zwz7ft0pae7k34mi28juzv,374tnbha8f8h5uhxolqy4gcifpfyqc,af1ur3WK,2020-0188,2020-05-21,14:43:49,15:01:02,NA,incomplete,15,shape,1,left,Red_Triangle_Grid_2.jpg,Purple_Triangle_Stripes_1.jpg,Green_Circle_Grid_3.jpg,left,749,true,high,false
af1ur3WK,3y7ltze0zwz7ft0pae7k34mi28juzv,374tnbha8f8h5uhxolqy4gcifpfyqc,af1ur3WK,2020-0188,2020-05-21,14:43:49,15:01:02,NA,incomplete,16,shape,1,left,Blue_Plus_Grid_4.jpg,Purple_Plus_Chess_1.jpg,Red_Triangle_Grid_2.jpg,left,747,true,high,false
af1ur3WK,3y7ltze0zwz7ft0pae7k34mi28juzv,374tnbha8f8h5uhxolqy4gcifpfyqc,af1ur3WK,2020-0188,2020-05-21,14:43:49,15:01:02,NA,incomplete,17,shape,1,right,Purple_Plus_Dots_3.jpg,Blue_Triangle_Dots_2.jpg,Red_Plus_Chess_1.jpg,right,1010,true,high,false
af1ur3WK,3y7ltze0zwz7ft0pae7k34mi28juzv,374tnbha8f8h5uhxolqy4gcifpfyqc,af1ur3WK,2020-0188,2020-05-21,14:43:49,15:01:02,NA,incomplete,18,shape,1,right,Purple_Plus_Stripes_4.jpg,Red_Triangle_Stripes_1.jpg,Blue_Plus_Dots_3.jpg,right,712,true,high,false
af1ur3WK,3y7ltze0zwz7ft0pae7k34mi28juzv,374tnbha8f8h5uhxolqy4gcifpfyqc,af1ur3WK,2020-0188,2020-05-21,14:43:49,15:01:02,NA,incomplete,19,shape,1,left,Green_Circle_Chess_2.jpg,Purple_Circle_Grid_1.jpg,Red_Plus_Chess_3.jpg,left,640,true,high,false
af1ur3WK,3y7ltze0zwz7ft0pae7k34mi28juzv,374tnbha8f8h5uhxolqy4gcifpfyqc,af1ur3WK,2020-0188,2020-05-21,14:43:49,15:01:02,NA,incomplete,20,filling,1,right,Blue_Plus_Chess_1.jpg,Green_Plus_Dots_2.jpg,Purple_Star_Chess_4.jpg,left,699,false,high,false
af1ur3WK,3y7ltze0zwz7ft0pae7k34mi28juzv,374tnbha8f8h5uhxolqy4gcifpfyqc,af1ur3WK,2020-0188,2020-05-21,14:43:49,15:01:02,NA,incomplete,21,filling,0,left,Red_Plus_Chess_4.jpg,Green_Circle_Chess_2.jpg,Blue_Plus_Dots_1.jpg,right,767,false,high,false
af1ur3WK,3y7ltze0zwz7ft0pae7k34mi28juzv,374tnbha8f8h5uhxolqy4gcifpfyqc,af1ur3WK,2020-0188,2020-05-21,14:43:49,15:01:02,NA,incomplete,22,filling,1,left,Green_Circle_Stripes_1.jpg,Red_Triangle_Stripes_4.jpg,Blue_Circle_Dots_3.jpg,right,934,false,high,false
af1ur3WK,3y7ltze0zwz7ft0pae7k34mi28juzv,374tnbha8f8h5uhxolqy4gcifpfyqc,af1ur3WK,2020-0188,2020-05-21,14:43:49,15:01:02,NA,incomplete,23,filling,1,right,Blue_Star_Chess_2.jpg,Red_Star_Stripes_3.jpg,Green_Plus_Chess_1.jpg,left,788,false,high,false
af1ur3WK,3y7ltze0zwz7ft0pae7k34mi28juzv,374tnbha8f8h5uhxolqy4gcifpfyqc,af1ur3WK,2020-0188,2020-05-21,14:43:49,15:01:02,NA,incomplete,24,filling,0,right,Green_Plus_Dots_1.jpg,Purple_Plus_Grid_4.jpg,Blue_Circle_Dots_2.jpg,right,985,true,high,false
af1ur3WK,3y7ltze0zwz7ft0pae7k34mi28juzv,374tnbha8f8h5uhxolqy4gcifpfyqc,af1ur3WK,2020-0188,2020-05-21,14:43:49,15:01:02,NA,incomplete,25,filling,1,left,Green_Circle_Grid_1.jpg,Purple_Star_Grid_4.jpg,Red_Circle_Chess_2.jpg,left,978,true,high,false
af1ur3WK,3y7ltze0zwz7ft0pae7k34mi28juzv,374tnbha8f8h5uhxolqy4gcifpfyqc,af1ur3WK,2020-0188,2020-05-21,14:43:49,15:01:02,NA,incomplete,26,filling,1,right,Green_Triangle_Stripes_3.jpg,Purple_Triangle_Dots_4.jpg,Red_Plus_Stripes_2.jpg,right,900,true,high,false
af1ur3WK,3y7ltze0zwz7ft0pae7k34mi28juzv,374tnbha8f8h5uhxolqy4gcifpfyqc,af1ur3WK,2020-0188,2020-05-21,14:43:49,15:01:02,NA,incomplete,27,filling,1,right,Green_Triangle_Chess_4.jpg,Red_Triangle_Dots_1.jpg,Purple_Circle_Chess_2.jpg,right,979,true,high,false
af1ur3WK,3y7ltze0zwz7ft0pae7k34mi28juzv,374tnbha8f8h5uhxolqy4gcifpfyqc,af1ur3WK,2020-0188,2020-05-21,14:43:49,15:01:02,NA,incomplete,28,filling,1,right,Red_Circle_Stripes_2.jpg,Green_Circle_Chess_4.jpg,Blue_Star_Stripes_3.jpg,right,1086,true,high,false
af1ur3WK,3y7ltze0zwz7ft0pae7k34mi28juzv,374tnbha8f8h5uhxolqy4gcifpfyqc,af1ur3WK,2020-0188,2020-05-21,14:43:49,15:01:02,NA,incomplete,29,filling,1,right,Green_Star_Stripes_2.jpg,Blue_Star_Chess_1.jpg,Red_Circle_Stripes_4.jpg,right,978,true,high,false
af1ur3WK,3y7ltze0zwz7ft0pae7k34mi28juzv,374tnbha8f8h5uhxolqy4gcifpfyqc,af1ur3WK,2020-0188,2020-05-21,14:43:49,15:01:02,NA,incomplete,30,shape,1,right,Green_Circle_Grid_1.jpg,Red_Star_Grid_3.jpg,Blue_Circle_Stripes_4.jpg,left,1168,false,high,false
af1ur3WK,3y7ltze0zwz7ft0pae7k34mi28juzv,374tnbha8f8h5uhxolqy4gcifpfyqc,af1ur3WK,2020-0188,2020-05-21,14:43:49,15:01:02,NA,incomplete,31,shape,1,left,Red_Triangle_Grid_1.jpg,Green_Triangle_Stripes_4.jpg,Blue_Star_Grid_3.jpg,right,1804,false,high,false
af1ur3WK,3y7ltze0zwz7ft0pae7k34mi28juzv,374tnbha8f8h5uhxolqy4gcifpfyqc,af1ur3WK,2020-0188,2020-05-21,14:43:49,15:01:02,NA,incomplete,32,shape,1,right,Purple_Star_Grid_2.jpg,Blue_Plus_Grid_1.jpg,Green_Star_Stripes_4.jpg,right,1096,true,high,false
af1ur3WK,3y7ltze0zwz7ft0pae7k34mi28juzv,374tnbha8f8h5uhxolqy4gcifpfyqc,af1ur3WK,2020-0188,2020-05-21,14:43:49,15:01:02,NA,incomplete,33,shape,1,right,Red_Triangle_Stripes_4.jpg,Blue_Star_Stripes_2.jpg,Purple_Triangle_Grid_1.jpg,right,784,true,high,false
af1ur3WK,3y7ltze0zwz7ft0pae7k34mi28juzv,374tnbha8f8h5uhxolqy4gcifpfyqc,af1ur3WK,2020-0188,2020-05-21,14:43:49,15:01:02,NA,incomplete,34,shape,0,left,Purple_Circle_Grid_4.jpg,Blue_Circle_Dots_3.jpg,Green_Plus_Grid_2.jpg,left,830,true,high,false
af1ur3WK,3y7ltze0zwz7ft0pae7k34mi28juzv,374tnbha8f8h5uhxolqy4gcifpfyqc,af1ur3WK,2020-0188,2020-05-21,14:43:49,15:01:02,NA,incomplete,35,shape,1,right,Purple_Circle_Chess_2.jpg,Blue_Plus_Chess_4.jpg,Red_Circle_Dots_3.jpg,right,701,true,high,false
af1ur3WK,3y7ltze0zwz7ft0pae7k34mi28juzv,374tnbha8f8h5uhxolqy4gcifpfyqc,af1ur3WK,2020-0188,2020-05-21,14:43:49,15:01:02,NA,incomplete,36,shape,0,left,Blue_Plus_Stripes_4.jpg,Red_Plus_Dots_2.jpg,Purple_Circle_Stripes_1.jpg,left,703,true,high,false
af1ur3WK,3y7ltze0zwz7ft0pae7k34mi28juzv,374tnbha8f8h5uhxolqy4gcifpfyqc,af1ur3WK,2020-0188,2020-05-21,14:43:49,15:01:02,NA,incomplete,37,shape,0,left,Purple_Triangle_Grid_2.jpg,Blue_Triangle_Chess_1.jpg,Red_Star_Grid_3.jpg,left,711,true,high,false
af1ur3WK,3y7ltze0zwz7ft0pae7k34mi28juzv,374tnbha8f8h5uhxolqy4gcifpfyqc,af1ur3WK,2020-0188,2020-05-21,14:43:49,15:01:02,NA,incomplete,38,shape,1,left,Purple_Star_Stripes_4.jpg,Blue_Star_Grid_2.jpg,Red_Plus_Stripes_3.jpg,right,1307,false,high,false
af1ur3WK,3y7ltze0zwz7ft0pae7k34mi28juzv,374tnbha8f8h5uhxolqy4gcifpfyqc,af1ur3WK,2020-0188,2020-05-21,14:43:49,15:01:02,NA,incomplete,39,shape,1,right,Blue_Plus_Grid_2.jpg,Red_Triangle_Grid_4.jpg,Green_Plus_Dots_1.jpg,left,1352,false,high,false
af1ur3WK,3y7ltze0zwz7ft0pae7k34mi28juzv,374tnbha8f8h5uhxolqy4gcifpfyqc,af1ur3WK,2020-0188,2020-05-21,14:43:49,15:01:02,NA,incomplete,40,filling,1,left,Green_Star_Stripes_3.jpg,Red_Triangle_Stripes_4.jpg,Blue_Star_Grid_1.jpg,left,1009,true,high,false
af1ur3WK,3y7ltze0zwz7ft0pae7k34mi28juzv,374tnbha8f8h5uhxolqy4gcifpfyqc,af1ur3WK,2020-0188,2020-05-21,14:43:49,15:01:02,NA,incomplete,41,filling,1,left,Blue_Triangle_Dots_4.jpg,Red_Circle_Dots_2.jpg,Green_Triangle_Grid_1.jpg,left,1098,true,high,false
af1ur3WK,3y7ltze0zwz7ft0pae7k34mi28juzv,374tnbha8f8h5uhxolqy4gcifpfyqc,af1ur3WK,2020-0188,2020-05-21,14:43:49,15:01:02,NA,incomplete,42,filling,1,left,Green_Star_Chess_2.jpg,Red_Plus_Chess_4.jpg,Blue_Star_Dots_1.jpg,left,1021,true,high,false
af1ur3WK,3y7ltze0zwz7ft0pae7k34mi28juzv,374tnbha8f8h5uhxolqy4gcifpfyqc,af1ur3WK,2020-0188,2020-05-21,14:43:49,15:01:02,NA,incomplete,43,filling,0,left,Red_Triangle_Chess_1.jpg,Green_Star_Chess_2.jpg,Blue_Triangle_Stripes_3.jpg,left,1097,true,high,false
af1ur3WK,3y7ltze0zwz7ft0pae7k34mi28juzv,374tnbha8f8h5uhxolqy4gcifpfyqc,af1ur3WK,2020-0188,2020-05-21,14:43:49,15:01:02,NA,incomplete,44,filling,1,left,Blue_Star_Stripes_3.jpg,Purple_Plus_Stripes_1.jpg,Green_Star_Chess_2.jpg,left,1307,true,high,false
af1ur3WK,3y7ltze0zwz7ft0pae7k34mi28juzv,374tnbha8f8h5uhxolqy4gcifpfyqc,af1ur3WK,2020-0188,2020-05-21,14:43:49,15:01:02,NA,incomplete,45,filling,1,right,Blue_Circle_Chess_3.jpg,Purple_Circle_Dots_4.jpg,Red_Plus_Chess_2.jpg,right,985,true,high,false
af1ur3WK,3y7ltze0zwz7ft0pae7k34mi28juzv,374tnbha8f8h5uhxolqy4gcifpfyqc,af1ur3WK,2020-0188,2020-05-21,14:43:49,15:01:02,NA,incomplete,46,filling,1,left,Red_Star_Stripes_3.jpg,Blue_Circle_Stripes_1.jpg,Green_Star_Grid_4.jpg,left,1416,true,high,false
af1ur3WK,3y7ltze0zwz7ft0pae7k34mi28juzv,374tnbha8f8h5uhxolqy4gcifpfyqc,af1ur3WK,2020-0188,2020-05-21,14:43:49,15:01:02,NA,incomplete,47,filling,0,right,Purple_Circle_Stripes_4.jpg,Red_Circle_Dots_1.jpg,Green_Star_Stripes_2.jpg,right,1033,true,high,false
af1ur3WK,3y7ltze0zwz7ft0pae7k34mi28juzv,374tnbha8f8h5uhxolqy4gcifpfyqc,af1ur3WK,2020-0188,2020-05-21,14:43:49,15:01:02,NA,incomplete,48,filling,1,left,Green_Triangle_Dots_1.jpg,Purple_Star_Dots_4.jpg,Red_Triangle_Stripes_2.jpg,left,890,true,high,false
af1ur3WK,3y7ltze0zwz7ft0pae7k34mi28juzv,374tnbha8f8h5uhxolqy4gcifpfyqc,af1ur3WK,2020-0188,2020-05-21,14:43:49,15:01:02,NA,incomplete,49,filling,1,right,Green_Triangle_Stripes_1.jpg,Purple_Triangle_Dots_2.jpg,Red_Star_Stripes_3.jpg,right,1053,true,high,false
af1ur3WK,3y7ltze0zwz7ft0pae7k34mi28juzv,374tnbha8f8h5uhxolqy4gcifpfyqc,af1ur3WK,2020-0188,2020-05-21,14:43:49,15:01:02,NA,incomplete,50,shape,1,left,Blue_Plus_Grid_2.jpg,Red_Plus_Stripes_1.jpg,Green_Star_Grid_4.jpg,right,1058,false,high,false
af1ur3WK,3y7ltze0zwz7ft0pae7k34mi28juzv,374tnbha8f8h5uhxolqy4gcifpfyqc,af1ur3WK,2020-0188,2020-05-21,14:43:49,15:01:02,NA,incomplete,51,shape,1,right,Blue_Plus_Grid_1.jpg,Red_Circle_Grid_2.jpg,Green_Plus_Chess_3.jpg,left,1071,false,high,false
af1ur3WK,3y7ltze0zwz7ft0pae7k34mi28juzv,374tnbha8f8h5uhxolqy4gcifpfyqc,af1ur3WK,2020-0188,2020-05-21,14:43:49,15:01:02,NA,incomplete,52,shape,0,left,Purple_Circle_Grid_4.jpg,Red_Circle_Chess_1.jpg,Green_Triangle_Grid_2.jpg,left,624,true,high,false
af1ur3WK,3y7ltze0zwz7ft0pae7k34mi28juzv,374tnbha8f8h5uhxolqy4gcifpfyqc,af1ur3WK,2020-0188,2020-05-21,14:43:49,15:01:02,NA,incomplete,53,shape,1,left,Purple_Circle_Dots_1.jpg,Green_Circle_Grid_3.jpg,Blue_Plus_Dots_2.jpg,left,603,true,high,false
af1ur3WK,3y7ltze0zwz7ft0pae7k34mi28juzv,374tnbha8f8h5uhxolqy4gcifpfyqc,af1ur3WK,2020-0188,2020-05-21,14:43:49,15:01:02,NA,incomplete,54,shape,1,left,Blue_Triangle_Dots_2.jpg,Purple_Triangle_Chess_1.jpg,Green_Plus_Dots_3.jpg,left,671,true,high,false
af1ur3WK,3y7ltze0zwz7ft0pae7k34mi28juzv,374tnbha8f8h5uhxolqy4gcifpfyqc,af1ur3WK,2020-0188,2020-05-21,14:43:49,15:01:02,NA,incomplete,55,shape,1,right,Blue_Triangle_Chess_4.jpg,Green_Plus_Chess_2.jpg,Red_Triangle_Dots_1.jpg,right,720,true,high,false
af1ur3WK,3y7ltze0zwz7ft0pae7k34mi28juzv,374tnbha8f8h5uhxolqy4gcifpfyqc,af1ur3WK,2020-0188,2020-05-21,14:43:49,15:01:02,NA,incomplete,56,shape,1,left,Red_Star_Dots_3.jpg,Blue_Star_Stripes_2.jpg,Purple_Plus_Dots_4.jpg,left,803,true,high,false
af1ur3WK,3y7ltze0zwz7ft0pae7k34mi28juzv,374tnbha8f8h5uhxolqy4gcifpfyqc,af1ur3WK,2020-0188,2020-05-21,14:43:49,15:01:02,NA,incomplete,57,shape,0,right,Purple_Plus_Stripes_2.jpg,Blue_Star_Stripes_4.jpg,Green_Plus_Grid_3.jpg,right,981,true,high,false
af1ur3WK,3y7ltze0zwz7ft0pae7k34mi28juzv,374tnbha8f8h5uhxolqy4gcifpfyqc,af1ur3WK,2020-0188,2020-05-21,14:43:49,15:01:02,NA,incomplete,58,shape,1,right,Green_Circle_Dots_3.jpg,Red_Star_Dots_1.jpg,Purple_Circle_Chess_4.jpg,right,736,true,high,false
af1ur3WK,3y7ltze0zwz7ft0pae7k34mi28juzv,374tnbha8f8h5uhxolqy4gcifpfyqc,af1ur3WK,2020-0188,2020-05-21,14:43:49,15:01:02,NA,incomplete,59,shape,1,left,Red_Triangle_Grid_3.jpg,Green_Triangle_Dots_4.jpg,Blue_Circle_Grid_1.jpg,left,704,true,high,false
af1ur3WK,3y7ltze0zwz7ft0pae7k34mi28juzv,374tnbha8f8h5uhxolqy4gcifpfyqc,af1ur3WK,2020-0188,2020-05-21,14:43:49,15:01:02,NA,incomplete,60,filling,1,left,Blue_Plus_Chess_3.jpg,Purple_Triangle_Chess_2.jpg,Green_Plus_Grid_1.jpg,right,832,false,high,false
af1ur3WK,3y7ltze0zwz7ft0pae7k34mi28juzv,374tnbha8f8h5uhxolqy4gcifpfyqc,af1ur3WK,2020-0188,2020-05-21,14:43:49,15:01:02,NA,incomplete,61,filling,1,right,Green_Plus_Stripes_1.jpg,Red_Plus_Grid_3.jpg,Purple_Circle_Stripes_4.jpg,left,669,false,high,false
af1ur3WK,3y7ltze0zwz7ft0pae7k34mi28juzv,374tnbha8f8h5uhxolqy4gcifpfyqc,af1ur3WK,2020-0188,2020-05-21,14:43:49,15:01:02,NA,incomplete,62,filling,1,right,Blue_Triangle_Stripes_2.jpg,Green_Triangle_Grid_1.jpg,Purple_Plus_Stripes_3.jpg,right,1245,true,high,false
af1ur3WK,3y7ltze0zwz7ft0pae7k34mi28juzv,374tnbha8f8h5uhxolqy4gcifpfyqc,af1ur3WK,2020-0188,2020-05-21,14:43:49,15:01:02,NA,incomplete,63,filling,1,left,Red_Triangle_Grid_1.jpg,Purple_Star_Grid_4.jpg,Blue_Triangle_Chess_2.jpg,left,1057,true,high,false
af1ur3WK,3y7ltze0zwz7ft0pae7k34mi28juzv,374tnbha8f8h5uhxolqy4gcifpfyqc,af1ur3WK,2020-0188,2020-05-21,14:43:49,15:01:02,NA,incomplete,64,filling,1,right,Purple_Circle_Stripes_2.jpg,Green_Circle_Chess_4.jpg,Blue_Plus_Stripes_3.jpg,right,1170,true,high,false
af1ur3WK,3y7ltze0zwz7ft0pae7k34mi28juzv,374tnbha8f8h5uhxolqy4gcifpfyqc,af1ur3WK,2020-0188,2020-05-21,14:43:49,15:01:02,NA,incomplete,65,filling,1,right,Green_Circle_Stripes_1.jpg,Red_Circle_Grid_2.jpg,Purple_Triangle_Stripes_4.jpg,right,1040,true,high,false
af1ur3WK,3y7ltze0zwz7ft0pae7k34mi28juzv,374tnbha8f8h5uhxolqy4gcifpfyqc,af1ur3WK,2020-0188,2020-05-21,14:43:49,15:01:02,NA,incomplete,66,filling,1,right,Green_Circle_Chess_3.jpg,Purple_Circle_Stripes_2.jpg,Blue_Star_Chess_1.jpg,right,1202,true,high,false
af1ur3WK,3y7ltze0zwz7ft0pae7k34mi28juzv,374tnbha8f8h5uhxolqy4gcifpfyqc,af1ur3WK,2020-0188,2020-05-21,14:43:49,15:01:02,NA,incomplete,67,filling,1,right,Purple_Triangle_Dots_1.jpg,Green_Triangle_Chess_4.jpg,Blue_Plus_Dots_2.jpg,right,970,true,high,false
af1ur3WK,3y7ltze0zwz7ft0pae7k34mi28juzv,374tnbha8f8h5uhxolqy4gcifpfyqc,af1ur3WK,2020-0188,2020-05-21,14:43:49,15:01:02,NA,incomplete,68,filling,1,right,Red_Circle_Chess_2.jpg,Green_Circle_Grid_3.jpg,Blue_Star_Chess_1.jpg,right,1217,true,high,false
af1ur3WK,3y7ltze0zwz7ft0pae7k34mi28juzv,374tnbha8f8h5uhxolqy4gcifpfyqc,af1ur3WK,2020-0188,2020-05-21,14:43:49,15:01:02,NA,incomplete,69,filling,0,left,Red_Triangle_Dots_3.jpg,Blue_Circle_Dots_2.jpg,Green_Triangle_Stripes_1.jpg,left,953,true,high,false
af1ur3WK,3y7ltze0zwz7ft0pae7k34mi28juzv,374tnbha8f8h5uhxolqy4gcifpfyqc,af1ur3WK,2020-0188,2020-05-21,14:43:49,15:01:02,NA,incomplete,70,shape,1,right,Purple_Circle_Grid_2.jpg,Green_Plus_Grid_4.jpg,Blue_Circle_Chess_3.jpg,left,1368,false,high,false
af1ur3WK,3y7ltze0zwz7ft0pae7k34mi28juzv,374tnbha8f8h5uhxolqy4gcifpfyqc,af1ur3WK,2020-0188,2020-05-21,14:43:49,15:01:02,NA,incomplete,71,shape,1,right,Green_Star_Grid_3.jpg,Purple_Plus_Grid_4.jpg,Red_Star_Stripes_2.jpg,right,848,true,high,false
af1ur3WK,3y7ltze0zwz7ft0pae7k34mi28juzv,374tnbha8f8h5uhxolqy4gcifpfyqc,af1ur3WK,2020-0188,2020-05-21,14:43:49,15:01:02,NA,incomplete,72,shape,1,left,Green_Circle_Stripes_4.jpg,Blue_Circle_Chess_2.jpg,Red_Star_Stripes_1.jpg,left,1078,true,high,false
af1ur3WK,3y7ltze0zwz7ft0pae7k34mi28juzv,374tnbha8f8h5uhxolqy4gcifpfyqc,af1ur3WK,2020-0188,2020-05-21,14:43:49,15:01:02,NA,incomplete,73,shape,1,left,Green_Star_Stripes_1.jpg,Blue_Star_Dots_3.jpg,Purple_Triangle_Stripes_4.jpg,left,777,true,high,false
af1ur3WK,3y7ltze0zwz7ft0pae7k34mi28juzv,374tnbha8f8h5uhxolqy4gcifpfyqc,af1ur3WK,2020-0188,2020-05-21,14:43:49,15:01:02,NA,incomplete,74,shape,1,left,Green_Triangle_Chess_2.jpg,Purple_Triangle_Grid_3.jpg,Red_Star_Chess_4.jpg,left,728,true,high,false
af1ur3WK,3y7ltze0zwz7ft0pae7k34mi28juzv,374tnbha8f8h5uhxolqy4gcifpfyqc,af1ur3WK,2020-0188,2020-05-21,14:43:49,15:01:02,NA,incomplete,75,shape,0,left,Red_Circle_Stripes_2.jpg,Blue_Circle_Grid_4.jpg,Purple_Triangle_Stripes_1.jpg,left,710,true,high,false
af1ur3WK,3y7ltze0zwz7ft0pae7k34mi28juzv,374tnbha8f8h5uhxolqy4gcifpfyqc,af1ur3WK,2020-0188,2020-05-21,14:43:49,15:01:02,NA,incomplete,76,shape,1,left,Red_Circle_Dots_3.jpg,Purple_Circle_Chess_2.jpg,Blue_Plus_Dots_1.jpg,left,689,true,high,false
af1ur3WK,3y7ltze0zwz7ft0pae7k34mi28juzv,374tnbha8f8h5uhxolqy4gcifpfyqc,af1ur3WK,2020-0188,2020-05-21,14:43:49,15:01:02,NA,incomplete,77,shape,0,left,Blue_Triangle_Stripes_2.jpg,Green_Triangle_Grid_4.jpg,Purple_Plus_Stripes_3.jpg,left,591,true,high,false
af1ur3WK,3y7ltze0zwz7ft0pae7k34mi28juzv,374tnbha8f8h5uhxolqy4gcifpfyqc,af1ur3WK,2020-0188,2020-05-21,14:43:49,15:01:02,NA,incomplete,78,shape,0,left,Green_Circle_Chess_4.jpg,Blue_Circle_Grid_1.jpg,Red_Triangle_Chess_3.jpg,left,579,true,high,false
af1ur3WK,3y7ltze0zwz7ft0pae7k34mi28juzv,374tnbha8f8h5uhxolqy4gcifpfyqc,af1ur3WK,2020-0188,2020-05-21,14:43:49,15:01:02,NA,incomplete,79,shape,1,right,Red_Circle_Dots_1.jpg,Green_Star_Dots_2.jpg,Purple_Circle_Grid_4.jpg,left,1031,false,high,false
af1ur3WK,3y7ltze0zwz7ft0pae7k34mi28juzv,374tnbha8f8h5uhxolqy4gcifpfyqc,af1ur3WK,2020-0188,2020-05-21,14:43:49,15:01:02,NA,incomplete,80,filling,1,right,Purple_Star_Dots_4.jpg,Blue_Star_Chess_2.jpg,Red_Plus_Dots_1.jpg,right,1355,true,high,false
af1ur3WK,3y7ltze0zwz7ft0pae7k34mi28juzv,374tnbha8f8h5uhxolqy4gcifpfyqc,af1ur3WK,2020-0188,2020-05-21,14:43:49,15:01:02,NA,incomplete,81,filling,0,left,Green_Plus_Stripes_1.jpg,Purple_Triangle_Stripes_4.jpg,Blue_Plus_Grid_2.jpg,left,915,true,high,false
af1ur3WK,3y7ltze0zwz7ft0pae7k34mi28juzv,374tnbha8f8h5uhxolqy4gcifpfyqc,af1ur3WK,2020-0188,2020-05-21,14:43:49,15:01:02,NA,incomplete,82,filling,1,right,Blue_Triangle_Chess_4.jpg,Purple_Triangle_Dots_2.jpg,Red_Plus_Chess_1.jpg,right,1178,true,high,false
af1ur3WK,3y7ltze0zwz7ft0pae7k34mi28juzv,374tnbha8f8h5uhxolqy4gcifpfyqc,af1ur3WK,2020-0188,2020-05-21,14:43:49,15:01:02,NA,incomplete,83,filling,1,right,Red_Plus_Grid_2.jpg,Green_Plus_Chess_4.jpg,Purple_Circle_Grid_3.jpg,right,1281,true,high,false
af1ur3WK,3y7ltze0zwz7ft0pae7k34mi28juzv,374tnbha8f8h5uhxolqy4gcifpfyqc,af1ur3WK,2020-0188,2020-05-21,14:43:49,15:01:02,NA,incomplete,84,filling,1,left,Blue_Plus_Chess_2.jpg,Green_Circle_Chess_3.jpg,Red_Plus_Stripes_1.jpg,left,1048,true,high,false
af1ur3WK,3y7ltze0zwz7ft0pae7k34mi28juzv,374tnbha8f8h5uhxolqy4gcifpfyqc,af1ur3WK,2020-0188,2020-05-21,14:43:49,15:01:02,NA,incomplete,85,filling,1,right,Purple_Plus_Grid_2.jpg,Green_Plus_Chess_1.jpg,Blue_Circle_Grid_3.jpg,right,1057,true,high,false
af1ur3WK,3y7ltze0zwz7ft0pae7k34mi28juzv,374tnbha8f8h5uhxolqy4gcifpfyqc,af1ur3WK,2020-0188,2020-05-21,14:43:49,15:01:02,NA,incomplete,86,filling,1,left,Green_Plus_Chess_1.jpg,Red_Circle_Chess_4.jpg,Blue_Plus_Stripes_2.jpg,left,996,true,high,false
af1ur3WK,3y7ltze0zwz7ft0pae7k34mi28juzv,374tnbha8f8h5uhxolqy4gcifpfyqc,af1ur3WK,2020-0188,2020-05-21,14:43:49,15:01:02,NA,incomplete,87,filling,0,right,Blue_Triangle_Grid_3.jpg,Green_Triangle_Dots_1.jpg,Purple_Plus_Grid_2.jpg,right,1183,true,high,false
af1ur3WK,3y7ltze0zwz7ft0pae7k34mi28juzv,374tnbha8f8h5uhxolqy4gcifpfyqc,af1ur3WK,2020-0188,2020-05-21,14:43:49,15:01:02,NA,incomplete,88,filling,1,right,Green_Plus_Grid_1.jpg,Blue_Plus_Chess_3.jpg,Purple_Star_Grid_2.jpg,right,1252,true,high,false
af1ur3WK,3y7ltze0zwz7ft0pae7k34mi28juzv,374tnbha8f8h5uhxolqy4gcifpfyqc,af1ur3WK,2020-0188,2020-05-21,14:43:49,15:01:02,NA,incomplete,89,filling,1,right,Blue_Circle_Grid_2.jpg,Green_Circle_Dots_3.jpg,Purple_Plus_Grid_1.jpg,right,1134,true,high,false
af1ur3WK,3y7ltze0zwz7ft0pae7k34mi28juzv,374tnbha8f8h5uhxolqy4gcifpfyqc,af1ur3WK,2020-0188,2020-05-21,14:43:49,15:01:02,NA,incomplete,90,shape,1,left,Purple_Star_Stripes_3.jpg,Green_Star_Dots_2.jpg,Blue_Triangle_Stripes_1.jpg,right,1241,false,high,false
af1ur3WK,3y7ltze0zwz7ft0pae7k34mi28juzv,374tnbha8f8h5uhxolqy4gcifpfyqc,af1ur3WK,2020-0188,2020-05-21,14:43:49,15:01:02,NA,incomplete,91,shape,0,left,Red_Circle_Dots_1.jpg,Green_Circle_Grid_4.jpg,Purple_Star_Dots_2.jpg,right,1220,false,high,false
af1ur3WK,3y7ltze0zwz7ft0pae7k34mi28juzv,374tnbha8f8h5uhxolqy4gcifpfyqc,af1ur3WK,2020-0188,2020-05-21,14:43:49,15:01:02,NA,incomplete,92,shape,1,left,Green_Plus_Chess_1.jpg,Blue_Plus_Grid_3.jpg,Purple_Circle_Chess_4.jpg,left,1066,true,high,false
af1ur3WK,3y7ltze0zwz7ft0pae7k34mi28juzv,374tnbha8f8h5uhxolqy4gcifpfyqc,af1ur3WK,2020-0188,2020-05-21,14:43:49,15:01:02,NA,incomplete,93,shape,1,left,Purple_Star_Stripes_1.jpg,Green_Star_Chess_2.jpg,Red_Triangle_Stripes_3.jpg,left,776,true,high,false
af1ur3WK,3y7ltze0zwz7ft0pae7k34mi28juzv,374tnbha8f8h5uhxolqy4gcifpfyqc,af1ur3WK,2020-0188,2020-05-21,14:43:49,15:01:02,NA,incomplete,94,shape,1,right,Red_Plus_Chess_4.jpg,Purple_Triangle_Chess_3.jpg,Blue_Plus_Grid_2.jpg,right,811,true,high,false
af1ur3WK,3y7ltze0zwz7ft0pae7k34mi28juzv,374tnbha8f8h5uhxolqy4gcifpfyqc,af1ur3WK,2020-0188,2020-05-21,14:43:49,15:01:02,NA,incomplete,95,shape,1,left,Purple_Circle_Stripes_2.jpg,Green_Circle_Grid_4.jpg,Blue_Triangle_Stripes_1.jpg,left,648,true,high,false
af1ur3WK,3y7ltze0zwz7ft0pae7k34mi28juzv,374tnbha8f8h5uhxolqy4gcifpfyqc,af1ur3WK,2020-0188,2020-05-21,14:43:49,15:01:02,NA,incomplete,96,shape,1,left,Green_Plus_Grid_1.jpg,Purple_Plus_Stripes_2.jpg,Red_Triangle_Grid_4.jpg,left,655,true,high,false
af1ur3WK,3y7ltze0zwz7ft0pae7k34mi28juzv,374tnbha8f8h5uhxolqy4gcifpfyqc,af1ur3WK,2020-0188,2020-05-21,14:43:49,15:01:02,NA,incomplete,97,shape,0,right,Blue_Circle_Chess_1.jpg,Red_Triangle_Chess_2.jpg,Green_Circle_Grid_4.jpg,right,733,true,high,false
af1ur3WK,3y7ltze0zwz7ft0pae7k34mi28juzv,374tnbha8f8h5uhxolqy4gcifpfyqc,af1ur3WK,2020-0188,2020-05-21,14:43:49,15:01:02,NA,incomplete,98,shape,1,right,Blue_Circle_Stripes_4.jpg,Purple_Plus_Stripes_2.jpg,Red_Circle_Chess_1.jpg,right,669,true,high,false
af1ur3WK,3y7ltze0zwz7ft0pae7k34mi28juzv,374tnbha8f8h5uhxolqy4gcifpfyqc,af1ur3WK,2020-0188,2020-05-21,14:43:49,15:01:02,NA,incomplete,99,shape,0,left,Green_Circle_Grid_4.jpg,Purple_Circle_Chess_2.jpg,Blue_Triangle_Grid_3.jpg,left,618,true,high,false
af1ur3WK,3y7ltze0zwz7ft0pae7k34mi28juzv,374tnbha8f8h5uhxolqy4gcifpfyqc,af1ur3WK,2020-0188,2020-05-21,14:43:49,15:01:02,NA,incomplete,100,filling,1,right,Blue_Plus_Grid_2.jpg,Purple_Plus_Stripes_1.jpg,Green_Star_Grid_3.jpg,right,1651,true,high,false
af1ur3WK,3y7ltze0zwz7ft0pae7k34mi28juzv,374tnbha8f8h5uhxolqy4gcifpfyqc,af1ur3WK,2020-0188,2020-05-21,14:43:49,15:01:02,NA,incomplete,101,filling,1,right,Purple_Star_Dots_3.jpg,Green_Star_Grid_1.jpg,Blue_Plus_Dots_4.jpg,right,1446,true,high,false
af1ur3WK,3y7ltze0zwz7ft0pae7k34mi28juzv,374tnbha8f8h5uhxolqy4gcifpfyqc,af1ur3WK,2020-0188,2020-05-21,14:43:49,15:01:02,NA,incomplete,102,filling,0,left,Purple_Star_Stripes_3.jpg,Green_Triangle_Stripes_4.jpg,Red_Star_Grid_2.jpg,left,1025,true,high,false
af1ur3WK,3y7ltze0zwz7ft0pae7k34mi28juzv,374tnbha8f8h5uhxolqy4gcifpfyqc,af1ur3WK,2020-0188,2020-05-21,14:43:49,15:01:02,NA,incomplete,103,filling,1,left,Purple_Circle_Stripes_2.jpg,Green_Triangle_Stripes_1.jpg,Red_Circle_Grid_4.jpg,left,1155,true,high,false
af1ur3WK,3y7ltze0zwz7ft0pae7k34mi28juzv,374tnbha8f8h5uhxolqy4gcifpfyqc,af1ur3WK,2020-0188,2020-05-21,14:43:49,15:01:02,NA,incomplete,104,filling,1,right,Blue_Triangle_Grid_3.jpg,Purple_Triangle_Stripes_2.jpg,Red_Plus_Grid_1.jpg,right,1025,true,high,false
af1ur3WK,3y7ltze0zwz7ft0pae7k34mi28juzv,374tnbha8f8h5uhxolqy4gcifpfyqc,af1ur3WK,2020-0188,2020-05-21,14:43:49,15:01:02,NA,incomplete,105,filling,0,right,Green_Star_Chess_1.jpg,Blue_Star_Dots_4.jpg,Purple_Triangle_Chess_3.jpg,right,1140,true,high,false
af1ur3WK,3y7ltze0zwz7ft0pae7k34mi28juzv,374tnbha8f8h5uhxolqy4gcifpfyqc,af1ur3WK,2020-0188,2020-05-21,14:43:49,15:01:02,NA,incomplete,106,filling,1,left,Purple_Triangle_Grid_3.jpg,Red_Circle_Grid_4.jpg,Blue_Triangle_Dots_2.jpg,right,997,false,high,false
af1ur3WK,3y7ltze0zwz7ft0pae7k34mi28juzv,374tnbha8f8h5uhxolqy4gcifpfyqc,af1ur3WK,2020-0188,2020-05-21,14:43:49,15:01:02,NA,incomplete,107,filling,1,left,Red_Triangle_Stripes_3.jpg,Blue_Star_Stripes_4.jpg,Green_Triangle_Dots_1.jpg,right,754,false,high,false
af1ur3WK,3y7ltze0zwz7ft0pae7k34mi28juzv,374tnbha8f8h5uhxolqy4gcifpfyqc,af1ur3WK,2020-0188,2020-05-21,14:43:49,15:01:02,NA,incomplete,108,filling,1,right,Red_Plus_Grid_2.jpg,Green_Plus_Chess_3.jpg,Blue_Star_Grid_1.jpg,right,1251,true,high,false
af1ur3WK,3y7ltze0zwz7ft0pae7k34mi28juzv,374tnbha8f8h5uhxolqy4gcifpfyqc,af1ur3WK,2020-0188,2020-05-21,14:43:49,15:01:02,NA,incomplete,109,filling,1,left,Purple_Circle_Grid_4.jpg,Blue_Plus_Grid_3.jpg,Red_Circle_Stripes_2.jpg,left,1554,true,high,false
af1ur3WK,3y7ltze0zwz7ft0pae7k34mi28juzv,374tnbha8f8h5uhxolqy4gcifpfyqc,af1ur3WK,2020-0188,2020-05-21,14:43:49,15:01:02,NA,incomplete,110,shape,0,left,Blue_Circle_Grid_2.jpg,Green_Circle_Dots_1.jpg,Purple_Star_Grid_3.jpg,right,1115,false,high,false
af1ur3WK,3y7ltze0zwz7ft0pae7k34mi28juzv,374tnbha8f8h5uhxolqy4gcifpfyqc,af1ur3WK,2020-0188,2020-05-21,14:43:49,15:01:02,NA,incomplete,111,shape,1,right,Red_Star_Chess_1.jpg,Purple_Circle_Chess_2.jpg,Blue_Star_Stripes_4.jpg,left,946,false,high,false
af1ur3WK,3y7ltze0zwz7ft0pae7k34mi28juzv,374tnbha8f8h5uhxolqy4gcifpfyqc,af1ur3WK,2020-0188,2020-05-21,14:43:49,15:01:02,NA,incomplete,112,shape,1,right,Blue_Triangle_Grid_1.jpg,Purple_Plus_Grid_4.jpg,Red_Triangle_Dots_2.jpg,left,1034,false,high,false
af1ur3WK,3y7ltze0zwz7ft0pae7k34mi28juzv,374tnbha8f8h5uhxolqy4gcifpfyqc,af1ur3WK,2020-0188,2020-05-21,14:43:49,15:01:02,NA,incomplete,113,shape,1,left,Purple_Circle_Chess_2.jpg,Red_Circle_Stripes_4.jpg,Blue_Plus_Chess_1.jpg,left,665,true,high,false
af1ur3WK,3y7ltze0zwz7ft0pae7k34mi28juzv,374tnbha8f8h5uhxolqy4gcifpfyqc,af1ur3WK,2020-0188,2020-05-21,14:43:49,15:01:02,NA,incomplete,114,shape,1,right,Green_Star_Chess_2.jpg,Blue_Plus_Chess_3.jpg,Red_Star_Stripes_4.jpg,right,863,true,high,false
af1ur3WK,3y7ltze0zwz7ft0pae7k34mi28juzv,374tnbha8f8h5uhxolqy4gcifpfyqc,af1ur3WK,2020-0188,2020-05-21,14:43:49,15:01:02,NA,incomplete,115,shape,1,left,Purple_Star_Grid_2.jpg,Red_Star_Chess_3.jpg,Green_Triangle_Grid_1.jpg,left,617,true,high,false
af1ur3WK,3y7ltze0zwz7ft0pae7k34mi28juzv,374tnbha8f8h5uhxolqy4gcifpfyqc,af1ur3WK,2020-0188,2020-05-21,14:43:49,15:01:02,NA,incomplete,116,shape,0,right,Green_Star_Dots_3.jpg,Red_Triangle_Dots_4.jpg,Purple_Star_Chess_1.jpg,right,692,true,high,false
af1ur3WK,3y7ltze0zwz7ft0pae7k34mi28juzv,374tnbha8f8h5uhxolqy4gcifpfyqc,af1ur3WK,2020-0188,2020-05-21,14:43:49,15:01:02,NA,incomplete,117,shape,1,left,Purple_Plus_Chess_1.jpg,Green_Plus_Dots_2.jpg,Blue_Circle_Chess_4.jpg,left,759,true,high,false
af1ur3WK,3y7ltze0zwz7ft0pae7k34mi28juzv,374tnbha8f8h5uhxolqy4gcifpfyqc,af1ur3WK,2020-0188,2020-05-21,14:43:49,15:01:02,NA,incomplete,118,shape,1,left,Blue_Circle_Grid_4.jpg,Red_Circle_Chess_3.jpg,Green_Star_Grid_2.jpg,left,665,true,high,false
af1ur3WK,3y7ltze0zwz7ft0pae7k34mi28juzv,374tnbha8f8h5uhxolqy4gcifpfyqc,af1ur3WK,2020-0188,2020-05-21,14:43:49,15:01:02,NA,incomplete,119,shape,1,left,Blue_Triangle_Grid_1.jpg,Purple_Triangle_Stripes_4.jpg,Red_Star_Grid_3.jpg,left,638,true,high,false
af1ur3WK,3y7ltze0zwz7ft0pae7k34mi28juzv,374tnbha8f8h5uhxolqy4gcifpfyqc,af1ur3WK,2020-0188,2020-05-21,14:43:49,15:01:02,NA,incomplete,120,color,1,left,Green_Circle_Chess_2.jpg,Green_Triangle_Grid_1.jpg,Purple_Star_Dots_2.jpg,NA,NA,NA,high,false
af1ur3WK,3y7ltze0zwz7ft0pae7k34mi28juzv,374tnbha8f8h5uhxolqy4gcifpfyqc,af1ur3WK,2020-0188,2020-05-21,14:43:49,15:01:02,NA,incomplete,121,color,1,right,Red_Plus_Stripes_4.jpg,Green_Circle_Dots_4.jpg,Red_Triangle_Chess_2.jpg,right,850,true,high,false
af1ur3WK,3y7ltze0zwz7ft0pae7k34mi28juzv,374tnbha8f8h5uhxolqy4gcifpfyqc,af1ur3WK,2020-0188,2020-05-21,14:43:49,15:01:02,NA,incomplete,122,color,0,right,Green_Plus_Chess_1.jpg,Red_Star_Stripes_1.jpg,Green_Circle_Dots_3.jpg,right,677,true,high,false
af1ur3WK,3y7ltze0zwz7ft0pae7k34mi28juzv,374tnbha8f8h5uhxolqy4gcifpfyqc,af1ur3WK,2020-0188,2020-05-21,14:43:49,15:01:02,NA,incomplete,123,color,1,left,Green_Circle_Grid_1.jpg,Green_Star_Chess_2.jpg,Purple_Plus_Dots_1.jpg,left,605,true,high,false
af1ur3WK,3y7ltze0zwz7ft0pae7k34mi28juzv,374tnbha8f8h5uhxolqy4gcifpfyqc,af1ur3WK,2020-0188,2020-05-21,14:43:49,15:01:02,NA,incomplete,124,color,1,left,Green_Circle_Dots_2.jpg,Green_Triangle_Grid_4.jpg,Blue_Star_Chess_2.jpg,left,635,true,high,false
af1ur3WK,3y7ltze0zwz7ft0pae7k34mi28juzv,374tnbha8f8h5uhxolqy4gcifpfyqc,af1ur3WK,2020-0188,2020-05-21,14:43:49,15:01:02,NA,incomplete,125,color,1,right,Purple_Plus_Chess_3.jpg,Red_Star_Grid_3.jpg,Purple_Circle_Stripes_4.jpg,right,645,true,high,false
af1ur3WK,3y7ltze0zwz7ft0pae7k34mi28juzv,374tnbha8f8h5uhxolqy4gcifpfyqc,af1ur3WK,2020-0188,2020-05-21,14:43:49,15:01:02,NA,incomplete,126,color,0,right,Purple_Plus_Dots_2.jpg,Blue_Circle_Stripes_2.jpg,Purple_Triangle_Grid_4.jpg,right,601,true,high,false
af1ur3WK,3y7ltze0zwz7ft0pae7k34mi28juzv,374tnbha8f8h5uhxolqy4gcifpfyqc,af1ur3WK,2020-0188,2020-05-21,14:43:49,15:01:02,NA,incomplete,127,color,1,right,Green_Circle_Grid_2.jpg,Red_Star_Stripes_2.jpg,Green_Triangle_Chess_3.jpg,right,556,true,high,false
af1ur3WK,3y7ltze0zwz7ft0pae7k34mi28juzv,374tnbha8f8h5uhxolqy4gcifpfyqc,af1ur3WK,2020-0188,2020-05-21,14:43:49,15:01:02,NA,incomplete,128,color,1,right,Purple_Star_Dots_2.jpg,Red_Circle_Grid_2.jpg,Purple_Plus_Chess_4.jpg,right,705,true,high,false
af1ur3WK,3y7ltze0zwz7ft0pae7k34mi28juzv,374tnbha8f8h5uhxolqy4gcifpfyqc,af1ur3WK,2020-0188,2020-05-21,14:43:49,15:01:02,NA,incomplete,129,color,1,right,Red_Triangle_Dots_3.jpg,Purple_Circle_Stripes_3.jpg,Red_Plus_Chess_1.jpg,right,606,true,high,false
af1ur3WK,3y7ltze0zwz7ft0pae7k34mi28juzv,374tnbha8f8h5uhxolqy4gcifpfyqc,af1ur3WK,2020-0188,2020-05-21,14:43:49,15:01:02,NA,incomplete,130,color,1,right,Red_Star_Stripes_2.jpg,Blue_Circle_Chess_2.jpg,Red_Triangle_Grid_4.jpg,right,493,true,high,false
af1ur3WK,3y7ltze0zwz7ft0pae7k34mi28juzv,374tnbha8f8h5uhxolqy4gcifpfyqc,af1ur3WK,2020-0188,2020-05-21,14:43:49,15:01:02,NA,incomplete,131,color,1,right,Red_Circle_Grid_2.jpg,Green_Star_Dots_2.jpg,Red_Triangle_Stripes_4.jpg,right,508,true,high,false
af1ur3WK,3y7ltze0zwz7ft0pae7k34mi28juzv,374tnbha8f8h5uhxolqy4gcifpfyqc,af1ur3WK,2020-0188,2020-05-21,14:43:49,15:01:02,NA,incomplete,132,color,1,right,Purple_Star_Stripes_2.jpg,Green_Circle_Dots_2.jpg,Purple_Triangle_Chess_3.jpg,right,540,true,high,false
af1ur3WK,3y7ltze0zwz7ft0pae7k34mi28juzv,374tnbha8f8h5uhxolqy4gcifpfyqc,af1ur3WK,2020-0188,2020-05-21,14:43:49,15:01:02,NA,incomplete,133,color,0,left,Red_Plus_Stripes_1.jpg,Red_Star_Grid_3.jpg,Green_Triangle_Chess_1.jpg,left,599,true,high,false
af1ur3WK,3y7ltze0zwz7ft0pae7k34mi28juzv,374tnbha8f8h5uhxolqy4gcifpfyqc,af1ur3WK,2020-0188,2020-05-21,14:43:49,15:01:02,NA,incomplete,134,color,1,right,Green_Plus_Grid_4.jpg,Purple_Star_Chess_4.jpg,Green_Circle_Stripes_1.jpg,right,572,true,high,false
af1ur3WK,3y7ltze0zwz7ft0pae7k34mi28juzv,374tnbha8f8h5uhxolqy4gcifpfyqc,af1ur3WK,2020-0188,2020-05-21,14:43:49,15:01:02,NA,incomplete,135,color,1,right,Purple_Triangle_Grid_4.jpg,Blue_Circle_Dots_4.jpg,Purple_Star_Stripes_1.jpg,right,600,true,high,false
af1ur3WK,3y7ltze0zwz7ft0pae7k34mi28juzv,374tnbha8f8h5uhxolqy4gcifpfyqc,af1ur3WK,2020-0188,2020-05-21,14:43:49,15:01:02,NA,incomplete,136,color,0,right,Purple_Star_Chess_4.jpg,Green_Circle_Grid_4.jpg,Purple_Triangle_Stripes_1.jpg,right,561,true,high,false
af1ur3WK,3y7ltze0zwz7ft0pae7k34mi28juzv,374tnbha8f8h5uhxolqy4gcifpfyqc,af1ur3WK,2020-0188,2020-05-21,14:43:49,15:01:02,NA,incomplete,137,color,1,left,Green_Star_Stripes_3.jpg,Green_Triangle_Dots_4.jpg,Blue_Plus_Grid_3.jpg,left,553,true,high,false
af1ur3WK,3y7ltze0zwz7ft0pae7k34mi28juzv,374tnbha8f8h5uhxolqy4gcifpfyqc,af1ur3WK,2020-0188,2020-05-21,14:43:49,15:01:02,NA,incomplete,138,color,1,right,Purple_Star_Stripes_1.jpg,Green_Circle_Chess_1.jpg,Purple_Triangle_Dots_2.jpg,right,547,true,high,false
af1ur3WK,3y7ltze0zwz7ft0pae7k34mi28juzv,374tnbha8f8h5uhxolqy4gcifpfyqc,af1ur3WK,2020-0188,2020-05-21,14:43:49,15:01:02,NA,incomplete,139,color,1,right,Red_Plus_Chess_4.jpg,Purple_Circle_Stripes_4.jpg,Red_Star_Dots_1.jpg,right,552,true,high,false
af1ur3WK,3y7ltze0zwz7ft0pae7k34mi28juzv,374tnbha8f8h5uhxolqy4gcifpfyqc,af1ur3WK,2020-0188,2020-05-21,14:43:49,15:01:02,NA,incomplete,140,number,0,right,Red_Plus_Stripes_3.jpg,Red_Star_Grid_4.jpg,Blue_Triangle_Chess_3.jpg,left,518,false,high,false
af1ur3WK,3y7ltze0zwz7ft0pae7k34mi28juzv,374tnbha8f8h5uhxolqy4gcifpfyqc,af1ur3WK,2020-0188,2020-05-21,14:43:49,15:01:02,NA,incomplete,141,number,1,right,Green_Triangle_Grid_4.jpg,Green_Plus_Chess_2.jpg,Red_Star_Stripes_4.jpg,left,747,false,high,false
af1ur3WK,3y7ltze0zwz7ft0pae7k34mi28juzv,374tnbha8f8h5uhxolqy4gcifpfyqc,af1ur3WK,2020-0188,2020-05-21,14:43:49,15:01:02,NA,incomplete,142,number,1,right,Green_Star_Dots_1.jpg,Green_Circle_Grid_3.jpg,Blue_Plus_Chess_1.jpg,left,571,false,high,false
af1ur3WK,3y7ltze0zwz7ft0pae7k34mi28juzv,374tnbha8f8h5uhxolqy4gcifpfyqc,af1ur3WK,2020-0188,2020-05-21,14:43:49,15:01:02,NA,incomplete,143,number,1,right,Blue_Plus_Stripes_4.jpg,Blue_Triangle_Dots_3.jpg,Green_Star_Grid_4.jpg,right,850,true,high,false
af1ur3WK,3y7ltze0zwz7ft0pae7k34mi28juzv,374tnbha8f8h5uhxolqy4gcifpfyqc,af1ur3WK,2020-0188,2020-05-21,14:43:49,15:01:02,NA,incomplete,144,number,1,left,Purple_Star_Dots_4.jpg,Red_Plus_Grid_4.jpg,Purple_Triangle_Stripes_2.jpg,left,702,true,high,false
af1ur3WK,3y7ltze0zwz7ft0pae7k34mi28juzv,374tnbha8f8h5uhxolqy4gcifpfyqc,af1ur3WK,2020-0188,2020-05-21,14:43:49,15:01:02,NA,incomplete,145,number,0,left,Blue_Circle_Grid_4.jpg,Green_Star_Chess_4.jpg,Blue_Plus_Stripes_3.jpg,left,1094,true,high,false
af1ur3WK,3y7ltze0zwz7ft0pae7k34mi28juzv,374tnbha8f8h5uhxolqy4gcifpfyqc,af1ur3WK,2020-0188,2020-05-21,14:43:49,15:01:02,NA,incomplete,146,number,1,left,Blue_Star_Stripes_1.jpg,Red_Plus_Chess_1.jpg,Blue_Circle_Grid_3.jpg,left,719,true,high,false
af1ur3WK,3y7ltze0zwz7ft0pae7k34mi28juzv,374tnbha8f8h5uhxolqy4gcifpfyqc,af1ur3WK,2020-0188,2020-05-21,14:43:49,15:01:02,NA,incomplete,147,number,0,right,Purple_Circle_Stripes_3.jpg,Purple_Star_Grid_1.jpg,Blue_Plus_Dots_3.jpg,right,1125,true,high,false
af1ur3WK,3y7ltze0zwz7ft0pae7k34mi28juzv,374tnbha8f8h5uhxolqy4gcifpfyqc,af1ur3WK,2020-0188,2020-05-21,14:43:49,15:01:02,NA,incomplete,148,number,1,right,Green_Triangle_Chess_3.jpg,Green_Plus_Grid_4.jpg,Blue_Circle_Stripes_3.jpg,right,857,true,high,false
af1ur3WK,3y7ltze0zwz7ft0pae7k34mi28juzv,374tnbha8f8h5uhxolqy4gcifpfyqc,af1ur3WK,2020-0188,2020-05-21,14:43:49,15:01:02,NA,incomplete,149,number,1,right,Green_Triangle_Dots_1.jpg,Green_Star_Stripes_4.jpg,Red_Circle_Grid_1.jpg,right,825,true,high,false
af1ur3WK,3y7ltze0zwz7ft0pae7k34mi28juzv,374tnbha8f8h5uhxolqy4gcifpfyqc,af1ur3WK,2020-0188,2020-05-21,14:43:49,15:01:02,NA,incomplete,150,number,0,left,Purple_Triangle_Chess_3.jpg,Blue_Plus_Dots_3.jpg,Purple_Circle_Grid_1.jpg,left,883,true,high,false
af1ur3WK,3y7ltze0zwz7ft0pae7k34mi28juzv,374tnbha8f8h5uhxolqy4gcifpfyqc,af1ur3WK,2020-0188,2020-05-21,14:43:49,15:01:02,NA,incomplete,151,number,1,right,Purple_Triangle_Stripes_2.jpg,Purple_Plus_Chess_1.jpg,Red_Star_Dots_2.jpg,right,762,true,high,false
af1ur3WK,3y7ltze0zwz7ft0pae7k34mi28juzv,374tnbha8f8h5uhxolqy4gcifpfyqc,af1ur3WK,2020-0188,2020-05-21,14:43:49,15:01:02,NA,incomplete,152,number,1,left,Red_Circle_Stripes_2.jpg,Green_Plus_Grid_2.jpg,Red_Star_Dots_4.jpg,left,739,true,high,false
af1ur3WK,3y7ltze0zwz7ft0pae7k34mi28juzv,374tnbha8f8h5uhxolqy4gcifpfyqc,af1ur3WK,2020-0188,2020-05-21,14:43:49,15:01:02,NA,incomplete,153,number,1,left,Blue_Plus_Chess_2.jpg,Green_Circle_Dots_2.jpg,Blue_Triangle_Stripes_4.jpg,left,745,true,high,false
af1ur3WK,3y7ltze0zwz7ft0pae7k34mi28juzv,374tnbha8f8h5uhxolqy4gcifpfyqc,af1ur3WK,2020-0188,2020-05-21,14:43:49,15:01:02,NA,incomplete,154,number,0,right,Green_Star_Chess_3.jpg,Green_Plus_Stripes_1.jpg,Purple_Triangle_Grid_3.jpg,right,674,true,high,false
af1ur3WK,3y7ltze0zwz7ft0pae7k34mi28juzv,374tnbha8f8h5uhxolqy4gcifpfyqc,af1ur3WK,2020-0188,2020-05-21,14:43:49,15:01:02,NA,incomplete,155,number,1,right,Blue_Circle_Stripes_1.jpg,Blue_Star_Dots_4.jpg,Green_Triangle_Chess_1.jpg,right,707,true,high,false
af1ur3WK,3y7ltze0zwz7ft0pae7k34mi28juzv,374tnbha8f8h5uhxolqy4gcifpfyqc,af1ur3WK,2020-0188,2020-05-21,14:43:49,15:01:02,NA,incomplete,156,number,1,left,Green_Circle_Dots_1.jpg,Blue_Star_Stripes_1.jpg,Green_Triangle_Chess_2.jpg,left,574,true,high,false
af1ur3WK,3y7ltze0zwz7ft0pae7k34mi28juzv,374tnbha8f8h5uhxolqy4gcifpfyqc,af1ur3WK,2020-0188,2020-05-21,14:43:49,15:01:02,NA,incomplete,157,number,0,left,Purple_Star_Stripes_1.jpg,Green_Triangle_Grid_1.jpg,Purple_Plus_Chess_4.jpg,left,555,true,high,false
af1ur3WK,3y7ltze0zwz7ft0pae7k34mi28juzv,374tnbha8f8h5uhxolqy4gcifpfyqc,af1ur3WK,2020-0188,2020-05-21,14:43:49,15:01:02,NA,incomplete,158,number,1,right,Purple_Triangle_Stripes_1.jpg,Purple_Star_Chess_4.jpg,Blue_Plus_Dots_1.jpg,right,636,true,high,false
af1ur3WK,3y7ltze0zwz7ft0pae7k34mi28juzv,374tnbha8f8h5uhxolqy4gcifpfyqc,af1ur3WK,2020-0188,2020-05-21,14:43:49,15:01:02,NA,incomplete,159,number,1,right,Purple_Plus_Stripes_2.jpg,Purple_Star_Dots_1.jpg,Green_Triangle_Grid_2.jpg,right,1033,true,high,false
af1ur3WK,3y7ltze0zwz7ft0pae7k34mi28juzv,374tnbha8f8h5uhxolqy4gcifpfyqc,af1ur3WK,2020-0188,2020-05-21,14:43:49,15:01:02,NA,incomplete,160,color,1,right,Green_Plus_Chess_1.jpg,Red_Star_Stripes_1.jpg,Green_Circle_Dots_4.jpg,left,830,false,high,false
af1ur3WK,3y7ltze0zwz7ft0pae7k34mi28juzv,374tnbha8f8h5uhxolqy4gcifpfyqc,af1ur3WK,2020-0188,2020-05-21,14:43:49,15:01:02,NA,incomplete,161,color,1,left,Green_Triangle_Grid_3.jpg,Green_Circle_Stripes_2.jpg,Blue_Star_Dots_3.jpg,right,688,false,high,false
af1ur3WK,3y7ltze0zwz7ft0pae7k34mi28juzv,374tnbha8f8h5uhxolqy4gcifpfyqc,af1ur3WK,2020-0188,2020-05-21,14:43:49,15:01:02,NA,incomplete,162,color,1,left,Green_Plus_Grid_2.jpg,Green_Star_Stripes_3.jpg,Purple_Circle_Chess_2.jpg,left,684,true,high,false
af1ur3WK,3y7ltze0zwz7ft0pae7k34mi28juzv,374tnbha8f8h5uhxolqy4gcifpfyqc,af1ur3WK,2020-0188,2020-05-21,14:43:49,15:01:02,NA,incomplete,163,color,0,right,Green_Star_Chess_2.jpg,Red_Triangle_Stripes_2.jpg,Green_Circle_Grid_1.jpg,right,732,true,high,false
af1ur3WK,3y7ltze0zwz7ft0pae7k34mi28juzv,374tnbha8f8h5uhxolqy4gcifpfyqc,af1ur3WK,2020-0188,2020-05-21,14:43:49,15:01:02,NA,incomplete,164,color,1,right,Blue_Star_Stripes_1.jpg,Purple_Plus_Dots_1.jpg,Blue_Triangle_Chess_4.jpg,right,647,true,high,false
af1ur3WK,3y7ltze0zwz7ft0pae7k34mi28juzv,374tnbha8f8h5uhxolqy4gcifpfyqc,af1ur3WK,2020-0188,2020-05-21,14:43:49,15:01:02,NA,incomplete,165,color,1,left,Red_Plus_Chess_2.jpg,Red_Circle_Stripes_3.jpg,Green_Star_Dots_2.jpg,left,747,true,high,false
af1ur3WK,3y7ltze0zwz7ft0pae7k34mi28juzv,374tnbha8f8h5uhxolqy4gcifpfyqc,af1ur3WK,2020-0188,2020-05-21,14:43:49,15:01:02,NA,incomplete,166,color,1,right,Green_Triangle_Chess_2.jpg,Blue_Plus_Dots_2.jpg,Green_Circle_Stripes_4.jpg,right,681,true,high,false
af1ur3WK,3y7ltze0zwz7ft0pae7k34mi28juzv,374tnbha8f8h5uhxolqy4gcifpfyqc,af1ur3WK,2020-0188,2020-05-21,14:43:49,15:01:02,NA,incomplete,167,color,0,right,Red_Circle_Grid_2.jpg,Purple_Star_Dots_2.jpg,Red_Plus_Chess_1.jpg,right,635,true,high,false
af1ur3WK,3y7ltze0zwz7ft0pae7k34mi28juzv,374tnbha8f8h5uhxolqy4gcifpfyqc,af1ur3WK,2020-0188,2020-05-21,14:43:49,15:01:02,NA,incomplete,168,color,1,left,Purple_Plus_Stripes_3.jpg,Purple_Circle_Dots_4.jpg,Green_Triangle_Grid_3.jpg,right,944,false,high,false
af1ur3WK,3y7ltze0zwz7ft0pae7k34mi28juzv,374tnbha8f8h5uhxolqy4gcifpfyqc,af1ur3WK,2020-0188,2020-05-21,14:43:49,15:01:02,NA,incomplete,169,color,0,left,Red_Plus_Grid_2.jpg,Red_Star_Chess_4.jpg,Blue_Triangle_Dots_2.jpg,left,739,true,high,false
af1ur3WK,3y7ltze0zwz7ft0pae7k34mi28juzv,374tnbha8f8h5uhxolqy4gcifpfyqc,af1ur3WK,2020-0188,2020-05-21,14:43:49,15:01:02,NA,incomplete,170,color,1,left,Purple_Plus_Chess_3.jpg,Purple_Triangle_Stripes_1.jpg,Red_Star_Grid_3.jpg,left,735,true,high,false
af1ur3WK,3y7ltze0zwz7ft0pae7k34mi28juzv,374tnbha8f8h5uhxolqy4gcifpfyqc,af1ur3WK,2020-0188,2020-05-21,14:43:49,15:01:02,NA,incomplete,171,color,1,left,Red_Plus_Chess_2.jpg,Red_Star_Grid_4.jpg,Blue_Triangle_Dots_2.jpg,left,576,true,high,false
af1ur3WK,3y7ltze0zwz7ft0pae7k34mi28juzv,374tnbha8f8h5uhxolqy4gcifpfyqc,af1ur3WK,2020-0188,2020-05-21,14:43:49,15:01:02,NA,incomplete,172,color,1,right,Green_Circle_Chess_2.jpg,Purple_Plus_Stripes_2.jpg,Green_Star_Grid_4.jpg,right,533,true,high,false
af1ur3WK,3y7ltze0zwz7ft0pae7k34mi28juzv,374tnbha8f8h5uhxolqy4gcifpfyqc,af1ur3WK,2020-0188,2020-05-21,14:43:49,15:01:02,NA,incomplete,173,color,1,right,Red_Circle_Chess_4.jpg,Blue_Star_Stripes_4.jpg,Red_Plus_Grid_1.jpg,right,686,true,high,false
af1ur3WK,3y7ltze0zwz7ft0pae7k34mi28juzv,374tnbha8f8h5uhxolqy4gcifpfyqc,af1ur3WK,2020-0188,2020-05-21,14:43:49,15:01:02,NA,incomplete,174,color,1,left,Purple_Star_Dots_4.jpg,Purple_Circle_Chess_1.jpg,Green_Triangle_Stripes_4.jpg,left,936,true,high,false
af1ur3WK,3y7ltze0zwz7ft0pae7k34mi28juzv,374tnbha8f8h5uhxolqy4gcifpfyqc,af1ur3WK,2020-0188,2020-05-21,14:43:49,15:01:02,NA,incomplete,175,color,1,left,Green_Circle_Stripes_4.jpg,Green_Star_Dots_3.jpg,Red_Plus_Chess_4.jpg,left,602,true,high,false
af1ur3WK,3y7ltze0zwz7ft0pae7k34mi28juzv,374tnbha8f8h5uhxolqy4gcifpfyqc,af1ur3WK,2020-0188,2020-05-21,14:43:49,15:01:02,NA,incomplete,176,color,1,right,Green_Triangle_Grid_1.jpg,Purple_Plus_Chess_1.jpg,Green_Circle_Stripes_4.jpg,right,537,true,high,false
af1ur3WK,3y7ltze0zwz7ft0pae7k34mi28juzv,374tnbha8f8h5uhxolqy4gcifpfyqc,af1ur3WK,2020-0188,2020-05-21,14:43:49,15:01:02,NA,incomplete,177,color,1,left,Red_Star_Stripes_2.jpg,Red_Plus_Grid_3.jpg,Blue_Triangle_Dots_2.jpg,left,578,true,high,false
af1ur3WK,3y7ltze0zwz7ft0pae7k34mi28juzv,374tnbha8f8h5uhxolqy4gcifpfyqc,af1ur3WK,2020-0188,2020-05-21,14:43:49,15:01:02,NA,incomplete,178,color,1,right,Blue_Triangle_Grid_1.jpg,Purple_Star_Stripes_1.jpg,Blue_Circle_Chess_3.jpg,right,614,true,high,false
af1ur3WK,3y7ltze0zwz7ft0pae7k34mi28juzv,374tnbha8f8h5uhxolqy4gcifpfyqc,af1ur3WK,2020-0188,2020-05-21,14:43:49,15:01:02,NA,incomplete,179,color,1,right,Green_Circle_Grid_4.jpg,Blue_Triangle_Chess_4.jpg,Green_Plus_Stripes_1.jpg,right,673,true,high,false
af1ur3WK,3y7ltze0zwz7ft0pae7k34mi28juzv,374tnbha8f8h5uhxolqy4gcifpfyqc,af1ur3WK,2020-0188,2020-05-21,14:43:49,15:01:02,NA,incomplete,180,number,0,left,Blue_Plus_Stripes_3.jpg,Red_Circle_Chess_3.jpg,Blue_Triangle_Grid_1.jpg,right,510,false,high,false
af1ur3WK,3y7ltze0zwz7ft0pae7k34mi28juzv,374tnbha8f8h5uhxolqy4gcifpfyqc,af1ur3WK,2020-0188,2020-05-21,14:43:49,15:01:02,NA,incomplete,181,number,1,left,Purple_Triangle_Stripes_4.jpg,Blue_Circle_Grid_4.jpg,Purple_Plus_Dots_2.jpg,right,828,false,high,false
af1ur3WK,3y7ltze0zwz7ft0pae7k34mi28juzv,374tnbha8f8h5uhxolqy4gcifpfyqc,af1ur3WK,2020-0188,2020-05-21,14:43:49,15:01:02,NA,incomplete,182,number,0,left,Red_Star_Dots_3.jpg,Purple_Plus_Chess_3.jpg,Red_Circle_Grid_1.jpg,right,607,false,high,false
af1ur3WK,3y7ltze0zwz7ft0pae7k34mi28juzv,374tnbha8f8h5uhxolqy4gcifpfyqc,af1ur3WK,2020-0188,2020-05-21,14:43:49,15:01:02,NA,incomplete,183,number,1,right,Purple_Plus_Chess_1.jpg,Purple_Circle_Grid_2.jpg,Green_Star_Stripes_1.jpg,left,512,false,high,false
af1ur3WK,3y7ltze0zwz7ft0pae7k34mi28juzv,374tnbha8f8h5uhxolqy4gcifpfyqc,af1ur3WK,2020-0188,2020-05-21,14:43:49,15:01:02,NA,incomplete,184,number,1,right,Blue_Plus_Grid_2.jpg,Blue_Circle_Chess_4.jpg,Green_Triangle_Stripes_2.jpg,left,558,false,high,false
af1ur3WK,3y7ltze0zwz7ft0pae7k34mi28juzv,374tnbha8f8h5uhxolqy4gcifpfyqc,af1ur3WK,2020-0188,2020-05-21,14:43:49,15:01:02,NA,incomplete,185,number,1,right,Purple_Circle_Dots_1.jpg,Purple_Triangle_Chess_4.jpg,Green_Star_Grid_1.jpg,right,682,true,high,false
af1ur3WK,3y7ltze0zwz7ft0pae7k34mi28juzv,374tnbha8f8h5uhxolqy4gcifpfyqc,af1ur3WK,2020-0188,2020-05-21,14:43:49,15:01:02,NA,incomplete,186,number,1,right,Purple_Circle_Stripes_3.jpg,Purple_Triangle_Dots_4.jpg,Red_Plus_Chess_3.jpg,right,871,true,high,false
af1ur3WK,3y7ltze0zwz7ft0pae7k34mi28juzv,374tnbha8f8h5uhxolqy4gcifpfyqc,af1ur3WK,2020-0188,2020-05-21,14:43:49,15:01:02,NA,incomplete,187,number,1,right,Green_Circle_Grid_1.jpg,Green_Star_Stripes_2.jpg,Blue_Triangle_Chess_1.jpg,right,735,true,high,false
af1ur3WK,3y7ltze0zwz7ft0pae7k34mi28juzv,374tnbha8f8h5uhxolqy4gcifpfyqc,af1ur3WK,2020-0188,2020-05-21,14:43:49,15:01:02,NA,incomplete,188,number,1,left,Red_Plus_Dots_4.jpg,Blue_Triangle_Stripes_4.jpg,Red_Star_Grid_1.jpg,left,691,true,high,false
af1ur3WK,3y7ltze0zwz7ft0pae7k34mi28juzv,374tnbha8f8h5uhxolqy4gcifpfyqc,af1ur3WK,2020-0188,2020-05-21,14:43:49,15:01:02,NA,incomplete,189,number,0,left,Blue_Plus_Grid_4.jpg,Green_Triangle_Chess_4.jpg,Blue_Circle_Dots_3.jpg,left,751,true,high,false
af1ur3WK,3y7ltze0zwz7ft0pae7k34mi28juzv,374tnbha8f8h5uhxolqy4gcifpfyqc,af1ur3WK,2020-0188,2020-05-21,14:43:49,15:01:02,NA,incomplete,190,number,1,left,Blue_Circle_Chess_3.jpg,Purple_Star_Stripes_3.jpg,Blue_Plus_Dots_4.jpg,left,741,true,high,false
af1ur3WK,3y7ltze0zwz7ft0pae7k34mi28juzv,374tnbha8f8h5uhxolqy4gcifpfyqc,af1ur3WK,2020-0188,2020-05-21,14:43:49,15:01:02,NA,incomplete,191,number,0,right,Blue_Circle_Stripes_1.jpg,Blue_Plus_Grid_3.jpg,Green_Star_Dots_1.jpg,right,823,true,high,false
af1ur3WK,3y7ltze0zwz7ft0pae7k34mi28juzv,374tnbha8f8h5uhxolqy4gcifpfyqc,af1ur3WK,2020-0188,2020-05-21,14:43:49,15:01:02,NA,incomplete,192,number,1,right,Red_Plus_Stripes_2.jpg,Red_Star_Chess_4.jpg,Blue_Circle_Dots_2.jpg,right,917,true,high,false
af1ur3WK,3y7ltze0zwz7ft0pae7k34mi28juzv,374tnbha8f8h5uhxolqy4gcifpfyqc,af1ur3WK,2020-0188,2020-05-21,14:43:49,15:01:02,NA,incomplete,193,number,1,right,Blue_Triangle_Grid_3.jpg,Blue_Circle_Chess_2.jpg,Red_Plus_Stripes_3.jpg,right,760,true,high,false
af1ur3WK,3y7ltze0zwz7ft0pae7k34mi28juzv,374tnbha8f8h5uhxolqy4gcifpfyqc,af1ur3WK,2020-0188,2020-05-21,14:43:49,15:01:02,NA,incomplete,194,number,1,right,Blue_Plus_Grid_4.jpg,Blue_Star_Chess_1.jpg,Green_Circle_Dots_4.jpg,right,691,true,high,false
af1ur3WK,3y7ltze0zwz7ft0pae7k34mi28juzv,374tnbha8f8h5uhxolqy4gcifpfyqc,af1ur3WK,2020-0188,2020-05-21,14:43:49,15:01:02,NA,incomplete,195,number,0,right,Purple_Star_Dots_2.jpg,Purple_Circle_Grid_4.jpg,Red_Plus_Chess_2.jpg,right,710,true,high,false
af1ur3WK,3y7ltze0zwz7ft0pae7k34mi28juzv,374tnbha8f8h5uhxolqy4gcifpfyqc,af1ur3WK,2020-0188,2020-05-21,14:43:49,15:01:02,NA,incomplete,196,number,1,right,Green_Triangle_Dots_1.jpg,Green_Circle_Grid_3.jpg,Red_Plus_Stripes_1.jpg,right,684,true,high,false
af1ur3WK,3y7ltze0zwz7ft0pae7k34mi28juzv,374tnbha8f8h5uhxolqy4gcifpfyqc,af1ur3WK,2020-0188,2020-05-21,14:43:49,15:01:02,NA,incomplete,197,number,1,right,Green_Circle_Stripes_3.jpg,Green_Plus_Dots_2.jpg,Blue_Star_Chess_3.jpg,right,808,true,high,false
af1ur3WK,3y7ltze0zwz7ft0pae7k34mi28juzv,374tnbha8f8h5uhxolqy4gcifpfyqc,af1ur3WK,2020-0188,2020-05-21,14:43:49,15:01:02,NA,incomplete,198,number,1,right,Red_Triangle_Chess_3.jpg,Red_Plus_Stripes_2.jpg,Green_Star_Dots_3.jpg,right,772,true,high,false
af1ur3WK,3y7ltze0zwz7ft0pae7k34mi28juzv,374tnbha8f8h5uhxolqy4gcifpfyqc,af1ur3WK,2020-0188,2020-05-21,14:43:49,15:01:02,NA,incomplete,199,number,1,right,Red_Plus_Dots_4.jpg,Red_Circle_Stripes_2.jpg,Blue_Star_Chess_4.jpg,right,731,true,high,false
af1ur3WK,3y7ltze0zwz7ft0pae7k34mi28juzv,374tnbha8f8h5uhxolqy4gcifpfyqc,af1ur3WK,2020-0188,2020-05-21,14:43:49,15:01:02,NA,incomplete,200,color,1,right,Red_Triangle_Chess_3.jpg,Blue_Circle_Grid_3.jpg,Red_Star_Dots_2.jpg,left,801,false,high,false
af1ur3WK,3y7ltze0zwz7ft0pae7k34mi28juzv,374tnbha8f8h5uhxolqy4gcifpfyqc,af1ur3WK,2020-0188,2020-05-21,14:43:49,15:01:02,NA,incomplete,201,color,1,left,Green_Star_Grid_4.jpg,Green_Triangle_Stripes_3.jpg,Red_Circle_Chess_4.jpg,right,856,false,high,false
af1ur3WK,3y7ltze0zwz7ft0pae7k34mi28juzv,374tnbha8f8h5uhxolqy4gcifpfyqc,af1ur3WK,2020-0188,2020-05-21,14:43:49,15:01:02,NA,incomplete,202,color,1,left,Purple_Plus_Stripes_3.jpg,Purple_Star_Dots_1.jpg,Green_Triangle_Grid_3.jpg,left,595,true,high,false
af1ur3WK,3y7ltze0zwz7ft0pae7k34mi28juzv,374tnbha8f8h5uhxolqy4gcifpfyqc,af1ur3WK,2020-0188,2020-05-21,14:43:49,15:01:02,NA,incomplete,203,color,1,left,Red_Triangle_Grid_3.jpg,Red_Circle_Chess_4.jpg,Purple_Plus_Dots_3.jpg,left,702,true,high,false
af1ur3WK,3y7ltze0zwz7ft0pae7k34mi28juzv,374tnbha8f8h5uhxolqy4gcifpfyqc,af1ur3WK,2020-0188,2020-05-21,14:43:49,15:01:02,NA,incomplete,204,color,1,right,Purple_Star_Stripes_2.jpg,Blue_Triangle_Dots_2.jpg,Purple_Circle_Grid_3.jpg,right,847,true,high,false
af1ur3WK,3y7ltze0zwz7ft0pae7k34mi28juzv,374tnbha8f8h5uhxolqy4gcifpfyqc,af1ur3WK,2020-0188,2020-05-21,14:43:49,15:01:02,NA,incomplete,205,color,1,left,Green_Circle_Stripes_4.jpg,Green_Plus_Chess_3.jpg,Red_Triangle_Dots_4.jpg,left,641,true,high,false
af1ur3WK,3y7ltze0zwz7ft0pae7k34mi28juzv,374tnbha8f8h5uhxolqy4gcifpfyqc,af1ur3WK,2020-0188,2020-05-21,14:43:49,15:01:02,NA,incomplete,206,color,1,right,Purple_Plus_Stripes_2.jpg,Red_Triangle_Chess_2.jpg,Purple_Star_Dots_1.jpg,right,632,true,high,false
af1ur3WK,3y7ltze0zwz7ft0pae7k34mi28juzv,374tnbha8f8h5uhxolqy4gcifpfyqc,af1ur3WK,2020-0188,2020-05-21,14:43:49,15:01:02,NA,incomplete,207,color,1,left,Green_Triangle_Chess_1.jpg,Green_Circle_Dots_3.jpg,Blue_Star_Stripes_1.jpg,left,567,true,high,false
af1ur3WK,3y7ltze0zwz7ft0pae7k34mi28juzv,374tnbha8f8h5uhxolqy4gcifpfyqc,af1ur3WK,2020-0188,2020-05-21,14:43:49,15:01:02,NA,incomplete,208,color,1,left,Blue_Plus_Grid_2.jpg,Blue_Circle_Dots_4.jpg,Red_Triangle_Stripes_2.jpg,right,666,false,high,false
af1ur3WK,3y7ltze0zwz7ft0pae7k34mi28juzv,374tnbha8f8h5uhxolqy4gcifpfyqc,af1ur3WK,2020-0188,2020-05-21,14:43:49,15:01:02,NA,incomplete,209,color,1,right,Green_Triangle_Chess_2.jpg,Red_Circle_Dots_2.jpg,Green_Star_Stripes_3.jpg,right,788,true,high,false
af1ur3WK,3y7ltze0zwz7ft0pae7k34mi28juzv,374tnbha8f8h5uhxolqy4gcifpfyqc,af1ur3WK,2020-0188,2020-05-21,14:43:49,15:01:02,NA,incomplete,210,color,1,right,Green_Plus_Grid_3.jpg,Blue_Triangle_Stripes_3.jpg,Green_Circle_Dots_2.jpg,left,843,false,high,false
af1ur3WK,3y7ltze0zwz7ft0pae7k34mi28juzv,374tnbha8f8h5uhxolqy4gcifpfyqc,af1ur3WK,2020-0188,2020-05-21,14:43:49,15:01:02,NA,incomplete,211,color,0,right,Blue_Plus_Stripes_2.jpg,Green_Circle_Dots_2.jpg,Blue_Star_Chess_1.jpg,right,1072,true,high,false
af1ur3WK,3y7ltze0zwz7ft0pae7k34mi28juzv,374tnbha8f8h5uhxolqy4gcifpfyqc,af1ur3WK,2020-0188,2020-05-21,14:43:49,15:01:02,NA,incomplete,212,color,1,right,Blue_Star_Chess_4.jpg,Purple_Plus_Stripes_4.jpg,Blue_Triangle_Dots_1.jpg,right,595,true,high,false
af1ur3WK,3y7ltze0zwz7ft0pae7k34mi28juzv,374tnbha8f8h5uhxolqy4gcifpfyqc,af1ur3WK,2020-0188,2020-05-21,14:43:49,15:01:02,NA,incomplete,213,color,1,right,Green_Plus_Grid_3.jpg,Red_Star_Chess_3.jpg,Green_Circle_Dots_1.jpg,right,628,true,high,false
af1ur3WK,3y7ltze0zwz7ft0pae7k34mi28juzv,374tnbha8f8h5uhxolqy4gcifpfyqc,af1ur3WK,2020-0188,2020-05-21,14:43:49,15:01:02,NA,incomplete,214,color,1,left,Blue_Star_Dots_4.jpg,Blue_Plus_Grid_1.jpg,Purple_Triangle_Stripes_4.jpg,left,693,true,high,false
af1ur3WK,3y7ltze0zwz7ft0pae7k34mi28juzv,374tnbha8f8h5uhxolqy4gcifpfyqc,af1ur3WK,2020-0188,2020-05-21,14:43:49,15:01:02,NA,incomplete,215,color,1,right,Green_Circle_Stripes_1.jpg,Purple_Triangle_Dots_1.jpg,Green_Plus_Chess_4.jpg,right,648,true,high,false
af1ur3WK,3y7ltze0zwz7ft0pae7k34mi28juzv,374tnbha8f8h5uhxolqy4gcifpfyqc,af1ur3WK,2020-0188,2020-05-21,14:43:49,15:01:02,NA,incomplete,216,color,0,left,Green_Triangle_Grid_4.jpg,Green_Plus_Stripes_1.jpg,Purple_Circle_Dots_4.jpg,left,743,true,high,false
af1ur3WK,3y7ltze0zwz7ft0pae7k34mi28juzv,374tnbha8f8h5uhxolqy4gcifpfyqc,af1ur3WK,2020-0188,2020-05-21,14:43:49,15:01:02,NA,incomplete,217,color,1,left,Green_Circle_Chess_4.jpg,Green_Plus_Stripes_1.jpg,Red_Triangle_Dots_4.jpg,left,619,true,high,false
af1ur3WK,3y7ltze0zwz7ft0pae7k34mi28juzv,374tnbha8f8h5uhxolqy4gcifpfyqc,af1ur3WK,2020-0188,2020-05-21,14:43:49,15:01:02,NA,incomplete,218,color,1,right,Red_Circle_Chess_3.jpg,Purple_Plus_Grid_3.jpg,Red_Star_Dots_1.jpg,right,575,true,high,false
af1ur3WK,3y7ltze0zwz7ft0pae7k34mi28juzv,374tnbha8f8h5uhxolqy4gcifpfyqc,af1ur3WK,2020-0188,2020-05-21,14:43:49,15:01:02,NA,incomplete,219,color,0,left,Purple_Star_Chess_1.jpg,Purple_Plus_Dots_2.jpg,Blue_Circle_Stripes_1.jpg,left,584,true,high,false
af1ur3WK,3y7ltze0zwz7ft0pae7k34mi28juzv,374tnbha8f8h5uhxolqy4gcifpfyqc,af1ur3WK,2020-0188,2020-05-21,14:43:49,15:01:02,NA,incomplete,220,number,1,left,Green_Circle_Dots_2.jpg,Purple_Plus_Grid_2.jpg,Green_Star_Stripes_3.jpg,right,537,false,high,false
af1ur3WK,3y7ltze0zwz7ft0pae7k34mi28juzv,374tnbha8f8h5uhxolqy4gcifpfyqc,af1ur3WK,2020-0188,2020-05-21,14:43:49,15:01:02,NA,incomplete,221,number,1,left,Green_Star_Dots_1.jpg,Purple_Plus_Grid_1.jpg,Green_Circle_Stripes_2.jpg,left,578,true,high,false
af1ur3WK,3y7ltze0zwz7ft0pae7k34mi28juzv,374tnbha8f8h5uhxolqy4gcifpfyqc,af1ur3WK,2020-0188,2020-05-21,14:43:49,15:01:02,NA,incomplete,222,number,0,left,Blue_Triangle_Dots_4.jpg,Red_Circle_Grid_4.jpg,Blue_Star_Stripes_3.jpg,left,739,true,high,false
af1ur3WK,3y7ltze0zwz7ft0pae7k34mi28juzv,374tnbha8f8h5uhxolqy4gcifpfyqc,af1ur3WK,2020-0188,2020-05-21,14:43:49,15:01:02,NA,incomplete,223,number,1,left,Purple_Circle_Stripes_2.jpg,Red_Star_Dots_2.jpg,Purple_Triangle_Chess_1.jpg,left,771,true,high,false
af1ur3WK,3y7ltze0zwz7ft0pae7k34mi28juzv,374tnbha8f8h5uhxolqy4gcifpfyqc,af1ur3WK,2020-0188,2020-05-21,14:43:49,15:01:02,NA,incomplete,224,number,1,right,Red_Circle_Dots_1.jpg,Red_Plus_Chess_4.jpg,Blue_Triangle_Stripes_1.jpg,right,695,true,high,false
af1ur3WK,3y7ltze0zwz7ft0pae7k34mi28juzv,374tnbha8f8h5uhxolqy4gcifpfyqc,af1ur3WK,2020-0188,2020-05-21,14:43:49,15:01:02,NA,incomplete,225,number,1,left,Green_Plus_Chess_2.jpg,Blue_Star_Dots_2.jpg,Green_Triangle_Stripes_3.jpg,left,697,true,high,false
af1ur3WK,3y7ltze0zwz7ft0pae7k34mi28juzv,374tnbha8f8h5uhxolqy4gcifpfyqc,af1ur3WK,2020-0188,2020-05-21,14:43:49,15:01:02,NA,incomplete,226,number,1,left,Green_Plus_Dots_4.jpg,Blue_Star_Chess_4.jpg,Green_Triangle_Stripes_1.jpg,left,594,true,high,false
af1ur3WK,3y7ltze0zwz7ft0pae7k34mi28juzv,374tnbha8f8h5uhxolqy4gcifpfyqc,af1ur3WK,2020-0188,2020-05-21,14:43:49,15:01:02,NA,incomplete,227,number,1,left,Purple_Plus_Chess_1.jpg,Red_Star_Dots_1.jpg,Purple_Triangle_Stripes_2.jpg,left,575,true,high,false
af1ur3WK,3y7ltze0zwz7ft0pae7k34mi28juzv,374tnbha8f8h5uhxolqy4gcifpfyqc,af1ur3WK,2020-0188,2020-05-21,14:43:49,15:01:02,NA,incomplete,228,number,1,right,Red_Plus_Chess_4.jpg,Red_Circle_Grid_3.jpg,Purple_Star_Dots_4.jpg,right,1075,true,high,false
af1ur3WK,3y7ltze0zwz7ft0pae7k34mi28juzv,374tnbha8f8h5uhxolqy4gcifpfyqc,af1ur3WK,2020-0188,2020-05-21,14:43:49,15:01:02,NA,incomplete,229,number,0,right,Purple_Plus_Chess_2.jpg,Purple_Star_Stripes_1.jpg,Blue_Triangle_Grid_2.jpg,right,737,true,high,false
af1ur3WK,3y7ltze0zwz7ft0pae7k34mi28juzv,374tnbha8f8h5uhxolqy4gcifpfyqc,af1ur3WK,2020-0188,2020-05-21,14:43:49,15:01:02,NA,incomplete,230,number,1,left,Blue_Star_Grid_1.jpg,Green_Triangle_Stripes_1.jpg,Blue_Plus_Chess_3.jpg,left,591,true,high,false
af1ur3WK,3y7ltze0zwz7ft0pae7k34mi28juzv,374tnbha8f8h5uhxolqy4gcifpfyqc,af1ur3WK,2020-0188,2020-05-21,14:43:49,15:01:02,NA,incomplete,231,number,1,left,Green_Star_Stripes_4.jpg,Red_Plus_Chess_4.jpg,Green_Triangle_Grid_2.jpg,left,642,true,high,false
af1ur3WK,3y7ltze0zwz7ft0pae7k34mi28juzv,374tnbha8f8h5uhxolqy4gcifpfyqc,af1ur3WK,2020-0188,2020-05-21,14:43:49,15:01:02,NA,incomplete,232,number,0,left,Red_Circle_Chess_3.jpg,Purple_Star_Grid_3.jpg,Red_Plus_Stripes_4.jpg,left,766,true,high,false
af1ur3WK,3y7ltze0zwz7ft0pae7k34mi28juzv,374tnbha8f8h5uhxolqy4gcifpfyqc,af1ur3WK,2020-0188,2020-05-21,14:43:49,15:01:02,NA,incomplete,233,number,1,left,Purple_Circle_Stripes_2.jpg,Blue_Star_Grid_2.jpg,Purple_Triangle_Chess_4.jpg,left,571,true,high,false
af1ur3WK,3y7ltze0zwz7ft0pae7k34mi28juzv,374tnbha8f8h5uhxolqy4gcifpfyqc,af1ur3WK,2020-0188,2020-05-21,14:43:49,15:01:02,NA,incomplete,234,number,1,left,Red_Triangle_Stripes_3.jpg,Green_Circle_Dots_3.jpg,Red_Plus_Grid_4.jpg,left,624,true,high,false
af1ur3WK,3y7ltze0zwz7ft0pae7k34mi28juzv,374tnbha8f8h5uhxolqy4gcifpfyqc,af1ur3WK,2020-0188,2020-05-21,14:43:49,15:01:02,NA,incomplete,235,number,1,left,Blue_Triangle_Dots_1.jpg,Green_Star_Stripes_1.jpg,Blue_Circle_Chess_2.jpg,left,615,true,high,false
af1ur3WK,3y7ltze0zwz7ft0pae7k34mi28juzv,374tnbha8f8h5uhxolqy4gcifpfyqc,af1ur3WK,2020-0188,2020-05-21,14:43:49,15:01:02,NA,incomplete,236,number,1,right,Blue_Triangle_Stripes_2.jpg,Blue_Plus_Dots_3.jpg,Purple_Star_Chess_2.jpg,right,782,true,high,false
af1ur3WK,3y7ltze0zwz7ft0pae7k34mi28juzv,374tnbha8f8h5uhxolqy4gcifpfyqc,af1ur3WK,2020-0188,2020-05-21,14:43:49,15:01:02,NA,incomplete,237,number,1,right,Red_Triangle_Chess_2.jpg,Red_Plus_Grid_4.jpg,Blue_Circle_Stripes_2.jpg,right,785,true,high,false
af1ur3WK,3y7ltze0zwz7ft0pae7k34mi28juzv,374tnbha8f8h5uhxolqy4gcifpfyqc,af1ur3WK,2020-0188,2020-05-21,14:43:49,15:01:02,NA,incomplete,238,number,1,left,Green_Triangle_Dots_4.jpg,Blue_Plus_Grid_4.jpg,Green_Circle_Stripes_2.jpg,left,702,true,high,false
af1ur3WK,3y7ltze0zwz7ft0pae7k34mi28juzv,374tnbha8f8h5uhxolqy4gcifpfyqc,af1ur3WK,2020-0188,2020-05-21,14:43:49,15:01:02,NA,incomplete,239,number,1,right,Red_Circle_Stripes_1.jpg,Red_Star_Chess_2.jpg,Green_Plus_Grid_1.jpg,right,759,true,high,false
af1ur3WK,3y7ltze0zwz7ft0pae7k34mi28juzv,374tnbha8f8h5uhxolqy4gcifpfyqc,af1ur3WK,2020-0188,2020-05-21,14:43:49,15:01:02,NA,NA,instruction example,filling,NA,NA,Red_Circle_Grid_3.jpg,Purple_Star_Grid_2.jpg,Blue_Circle_Dots_4.jpg,NA,NA,NA,NA,undefined
af1ur3WK,3y7ltze0zwz7ft0pae7k34mi28juzv,374tnbha8f8h5uhxolqy4gcifpfyqc,af1ur3WK,2020-0188,2020-05-21,14:43:49,15:01:02,NA,NA,instruction example,filling,NA,NA,Green_Circle_Chess_4.jpg,Blue_Circle_Stripes_2.jpg,Red_Star_Chess_3.jpg,NA,NA,NA,NA,undefined
af1ur3WK,3y7ltze0zwz7ft0pae7k34mi28juzv,374tnbha8f8h5uhxolqy4gcifpfyqc,af1ur3WK,2020-0188,2020-05-21,14:43:49,15:01:02,NA,NA,instruction example,filling,NA,NA,Green_Plus_Stripes_1.jpg,Green_Triangle_Grid_4.jpg,Purple_Star_Dots_1.jpg,NA,NA,NA,NA,undefined
af1ur3WK,3y7ltze0zwz7ft0pae7k34mi28juzv,374tnbha8f8h5uhxolqy4gcifpfyqc,af1ur3WK,2020-0188,2020-05-21,14:43:49,15:01:02,NA,NA,instruction example,filling,NA,NA,Red_Star_Grid_3.jpg,Purple_Plus_Chess_3.jpg,Red_Triangle_Stripes_4.jpg,NA,NA,NA,NA,undefined
af1ur3WK,3y7ltze0zwz7ft0pae7k34mi28juzv,374tnbha8f8h5uhxolqy4gcifpfyqc,af1ur3WK,2020-0188,2020-05-21,14:43:49,15:01:02,1002303,1032679,NA,NA,NA,NA,NA,NA,NA,NA,NA,NA,NA,undefined
