workerId,hitId,assignmentId,subject,studyid,exp_date,exp_start,exp_end,time_start,time_end,trial,type,reward_validity,answer,image_top,image_left,image_right,response,response_time,response_acc,volatility,practice
7wbaRHD2,3ac6mfv6anv2a7u5af0lkpxs80hhzh,374tnbha8f8h5uhxolqy4gcifptqyi,7wbaRHD2,2020-0188,2020-05-21,14:20:06,14:52:23,NA,incomplete,0,filling,1,left,Blue_Circle_Dots_3.jpg,Red_Triangle_Dots_1.jpg,Blue_Star_Chess_2.jpg,right,1667.7899999923538,false,NA,true
7wbaRHD2,3ac6mfv6anv2a7u5af0lkpxs80hhzh,374tnbha8f8h5uhxolqy4gcifptqyi,7wbaRHD2,2020-0188,2020-05-21,14:20:06,14:52:23,NA,incomplete,1,filling,1,left,Green_Circle_Chess_2.jpg,Red_Star_Chess_1.jpg,Green_Plus_Stripes_3.jpg,left,907.4099999996834,true,NA,true
7wbaRHD2,3ac6mfv6anv2a7u5af0lkpxs80hhzh,374tnbha8f8h5uhxolqy4gcifptqyi,7wbaRHD2,2020-0188,2020-05-21,14:20:06,14:52:23,NA,incomplete,2,filling,1,left,Purple_Star_Stripes_1.jpg,Blue_Circle_Stripes_4.jpg,Purple_Triangle_Dots_3.jpg,right,752.5900000038091,false,NA,true
7wbaRHD2,3ac6mfv6anv2a7u5af0lkpxs80hhzh,374tnbha8f8h5uhxolqy4gcifptqyi,7wbaRHD2,2020-0188,2020-05-21,14:20:06,14:52:23,NA,incomplete,3,filling,1,left,Green_Circle_Grid_2.jpg,Purple_Plus_Grid_1.jpg,Green_Triangle_Chess_4.jpg,left,914.3500000063796,true,NA,true
7wbaRHD2,3ac6mfv6anv2a7u5af0lkpxs80hhzh,374tnbha8f8h5uhxolqy4gcifptqyi,7wbaRHD2,2020-0188,2020-05-21,14:20:06,14:52:23,NA,incomplete,4,filling,1,left,Purple_Circle_Grid_3.jpg,Green_Star_Grid_4.jpg,Purple_Triangle_Chess_2.jpg,left,892.9950000019744,true,NA,true
7wbaRHD2,3ac6mfv6anv2a7u5af0lkpxs80hhzh,374tnbha8f8h5uhxolqy4gcifptqyi,7wbaRHD2,2020-0188,2020-05-21,14:20:06,14:52:23,NA,incomplete,5,filling,0,right,Red_Circle_Stripes_1.jpg,Red_Star_Dots_2.jpg,Purple_Triangle_Stripes_4.jpg,right,762.6199999940582,true,NA,true
7wbaRHD2,3ac6mfv6anv2a7u5af0lkpxs80hhzh,374tnbha8f8h5uhxolqy4gcifptqyi,7wbaRHD2,2020-0188,2020-05-21,14:20:06,14:52:23,NA,incomplete,6,filling,0,left,Red_Triangle_Stripes_1.jpg,Green_Plus_Stripes_3.jpg,Red_Circle_Dots_2.jpg,left,734.375,true,NA,true
7wbaRHD2,3ac6mfv6anv2a7u5af0lkpxs80hhzh,374tnbha8f8h5uhxolqy4gcifptqyi,7wbaRHD2,2020-0188,2020-05-21,14:20:06,14:52:23,NA,incomplete,7,filling,1,right,Red_Triangle_Stripes_3.jpg,Red_Circle_Dots_2.jpg,Green_Star_Stripes_1.jpg,right,869.0199999983888,true,NA,true
7wbaRHD2,3ac6mfv6anv2a7u5af0lkpxs80hhzh,374tnbha8f8h5uhxolqy4gcifptqyi,7wbaRHD2,2020-0188,2020-05-21,14:20:06,14:52:23,NA,incomplete,8,filling,1,right,Green_Star_Chess_4.jpg,Green_Plus_Dots_3.jpg,Blue_Triangle_Chess_1.jpg,right,1001.0100000072271,true,NA,true
7wbaRHD2,3ac6mfv6anv2a7u5af0lkpxs80hhzh,374tnbha8f8h5uhxolqy4gcifptqyi,7wbaRHD2,2020-0188,2020-05-21,14:20:06,14:52:23,NA,incomplete,9,filling,1,right,Blue_Plus_Grid_1.jpg,Blue_Star_Chess_2.jpg,Green_Triangle_Grid_3.jpg,right,892.7899999981746,true,NA,true
7wbaRHD2,3ac6mfv6anv2a7u5af0lkpxs80hhzh,374tnbha8f8h5uhxolqy4gcifptqyi,7wbaRHD2,2020-0188,2020-05-21,14:20:06,14:52:23,NA,incomplete,10,filling,1,right,Red_Star_Dots_2.jpg,Red_Triangle_Grid_3.jpg,Purple_Circle_Dots_4.jpg,right,880.2599999906961,true,NA,true
7wbaRHD2,3ac6mfv6anv2a7u5af0lkpxs80hhzh,374tnbha8f8h5uhxolqy4gcifptqyi,7wbaRHD2,2020-0188,2020-05-21,14:20:06,14:52:23,NA,incomplete,11,filling,1,left,Blue_Triangle_Chess_4.jpg,Green_Plus_Chess_1.jpg,Blue_Circle_Stripes_2.jpg,left,885.7699999934994,true,NA,true
7wbaRHD2,3ac6mfv6anv2a7u5af0lkpxs80hhzh,374tnbha8f8h5uhxolqy4gcifptqyi,7wbaRHD2,2020-0188,2020-05-21,14:20:06,14:52:23,NA,incomplete,12,filling,1,left,Blue_Triangle_Dots_4.jpg,Red_Plus_Dots_3.jpg,Blue_Star_Chess_1.jpg,left,983.2150000000838,true,NA,true
7wbaRHD2,3ac6mfv6anv2a7u5af0lkpxs80hhzh,374tnbha8f8h5uhxolqy4gcifptqyi,7wbaRHD2,2020-0188,2020-05-21,14:20:06,14:52:23,NA,incomplete,13,filling,1,right,Purple_Plus_Chess_2.jpg,Purple_Triangle_Grid_4.jpg,Blue_Circle_Chess_1.jpg,right,831.1950000061188,true,NA,true
7wbaRHD2,3ac6mfv6anv2a7u5af0lkpxs80hhzh,374tnbha8f8h5uhxolqy4gcifptqyi,7wbaRHD2,2020-0188,2020-05-21,14:20:06,14:52:23,NA,incomplete,14,filling,1,right,Green_Circle_Dots_4.jpg,Green_Plus_Stripes_3.jpg,Purple_Triangle_Dots_2.jpg,right,837.599999998929,true,NA,true
7wbaRHD2,3ac6mfv6anv2a7u5af0lkpxs80hhzh,374tnbha8f8h5uhxolqy4gcifptqyi,7wbaRHD2,2020-0188,2020-05-21,14:20:06,14:52:23,NA,incomplete,15,filling,1,right,Red_Star_Chess_4.jpg,Red_Plus_Stripes_2.jpg,Purple_Circle_Chess_3.jpg,right,888.5699999954086,true,NA,true
7wbaRHD2,3ac6mfv6anv2a7u5af0lkpxs80hhzh,374tnbha8f8h5uhxolqy4gcifptqyi,7wbaRHD2,2020-0188,2020-05-21,14:20:06,14:52:23,NA,incomplete,16,filling,1,right,Blue_Plus_Grid_2.jpg,Blue_Star_Dots_3.jpg,Purple_Circle_Grid_1.jpg,right,841.1049999995157,true,NA,true
7wbaRHD2,3ac6mfv6anv2a7u5af0lkpxs80hhzh,374tnbha8f8h5uhxolqy4gcifptqyi,7wbaRHD2,2020-0188,2020-05-21,14:20:06,14:52:23,NA,incomplete,17,filling,0,right,Purple_Circle_Grid_1.jpg,Purple_Triangle_Chess_2.jpg,Green_Plus_Grid_3.jpg,right,844.8400000054389,true,NA,true
7wbaRHD2,3ac6mfv6anv2a7u5af0lkpxs80hhzh,374tnbha8f8h5uhxolqy4gcifptqyi,7wbaRHD2,2020-0188,2020-05-21,14:20:06,14:52:23,NA,incomplete,18,filling,1,right,Green_Triangle_Stripes_4.jpg,Green_Star_Grid_3.jpg,Blue_Circle_Stripes_1.jpg,right,854.4099999999162,true,NA,true
7wbaRHD2,3ac6mfv6anv2a7u5af0lkpxs80hhzh,374tnbha8f8h5uhxolqy4gcifptqyi,7wbaRHD2,2020-0188,2020-05-21,14:20:06,14:52:23,NA,incomplete,19,filling,0,left,Red_Plus_Dots_3.jpg,Purple_Triangle_Dots_4.jpg,Red_Circle_Grid_1.jpg,right,766.4300000034273,false,NA,true
7wbaRHD2,3ac6mfv6anv2a7u5af0lkpxs80hhzh,374tnbha8f8h5uhxolqy4gcifptqyi,7wbaRHD2,2020-0188,2020-05-21,14:20:06,14:52:23,NA,incomplete,20,color,1,left,Purple_Circle_Grid_1.jpg,Purple_Triangle_Chess_4.jpg,Blue_Plus_Grid_2.jpg,left,724.8899999975692,true,NA,true
7wbaRHD2,3ac6mfv6anv2a7u5af0lkpxs80hhzh,374tnbha8f8h5uhxolqy4gcifptqyi,7wbaRHD2,2020-0188,2020-05-21,14:20:06,14:52:23,NA,incomplete,21,color,1,right,Blue_Plus_Stripes_2.jpg,Green_Triangle_Stripes_3.jpg,Blue_Star_Grid_1.jpg,right,668.0599999963306,true,NA,true
7wbaRHD2,3ac6mfv6anv2a7u5af0lkpxs80hhzh,374tnbha8f8h5uhxolqy4gcifptqyi,7wbaRHD2,2020-0188,2020-05-21,14:20:06,14:52:23,NA,incomplete,22,color,0,left,Purple_Triangle_Chess_2.jpg,Purple_Plus_Stripes_4.jpg,Blue_Star_Chess_3.jpg,left,567.1949999958742,true,NA,true
7wbaRHD2,3ac6mfv6anv2a7u5af0lkpxs80hhzh,374tnbha8f8h5uhxolqy4gcifptqyi,7wbaRHD2,2020-0188,2020-05-21,14:20:06,14:52:23,NA,incomplete,23,color,1,left,Green_Plus_Dots_2.jpg,Green_Triangle_Stripes_4.jpg,Red_Circle_Dots_1.jpg,left,507.47499999124557,true,NA,true
7wbaRHD2,3ac6mfv6anv2a7u5af0lkpxs80hhzh,374tnbha8f8h5uhxolqy4gcifptqyi,7wbaRHD2,2020-0188,2020-05-21,14:20:06,14:52:23,NA,incomplete,24,color,0,right,Blue_Circle_Stripes_4.jpg,Red_Triangle_Stripes_3.jpg,Blue_Star_Chess_2.jpg,right,581.4200000022538,true,NA,true
7wbaRHD2,3ac6mfv6anv2a7u5af0lkpxs80hhzh,374tnbha8f8h5uhxolqy4gcifptqyi,7wbaRHD2,2020-0188,2020-05-21,14:20:06,14:52:23,NA,incomplete,25,color,1,right,Red_Triangle_Dots_1.jpg,Purple_Circle_Dots_3.jpg,Red_Plus_Chess_4.jpg,right,463.43000000342727,true,NA,true
7wbaRHD2,3ac6mfv6anv2a7u5af0lkpxs80hhzh,374tnbha8f8h5uhxolqy4gcifptqyi,7wbaRHD2,2020-0188,2020-05-21,14:20:06,14:52:23,NA,incomplete,26,color,1,left,Blue_Star_Grid_1.jpg,Blue_Circle_Stripes_3.jpg,Green_Triangle_Grid_2.jpg,left,492.8849999997765,true,NA,true
7wbaRHD2,3ac6mfv6anv2a7u5af0lkpxs80hhzh,374tnbha8f8h5uhxolqy4gcifptqyi,7wbaRHD2,2020-0188,2020-05-21,14:20:06,14:52:23,NA,incomplete,27,color,0,left,Red_Star_Grid_3.jpg,Red_Plus_Stripes_1.jpg,Green_Triangle_Grid_4.jpg,left,526.5300000028219,true,NA,true
7wbaRHD2,3ac6mfv6anv2a7u5af0lkpxs80hhzh,374tnbha8f8h5uhxolqy4gcifptqyi,7wbaRHD2,2020-0188,2020-05-21,14:20:06,14:52:23,NA,incomplete,28,color,1,right,Purple_Circle_Dots_1.jpg,Green_Triangle_Dots_4.jpg,Purple_Star_Grid_3.jpg,right,450.20999999530613,true,NA,true
7wbaRHD2,3ac6mfv6anv2a7u5af0lkpxs80hhzh,374tnbha8f8h5uhxolqy4gcifptqyi,7wbaRHD2,2020-0188,2020-05-21,14:20:06,14:52:23,NA,incomplete,29,color,1,right,Blue_Plus_Chess_4.jpg,Green_Triangle_Chess_3.jpg,Blue_Circle_Grid_2.jpg,right,508.63500000559725,true,NA,true
7wbaRHD2,3ac6mfv6anv2a7u5af0lkpxs80hhzh,374tnbha8f8h5uhxolqy4gcifptqyi,7wbaRHD2,2020-0188,2020-05-21,14:20:06,14:52:23,NA,incomplete,30,color,1,right,Red_Plus_Chess_2.jpg,Blue_Circle_Chess_3.jpg,Red_Star_Stripes_4.jpg,right,422.45999998692423,true,NA,true
7wbaRHD2,3ac6mfv6anv2a7u5af0lkpxs80hhzh,374tnbha8f8h5uhxolqy4gcifptqyi,7wbaRHD2,2020-0188,2020-05-21,14:20:06,14:52:23,NA,incomplete,31,color,0,right,Green_Star_Grid_2.jpg,Purple_Circle_Grid_4.jpg,Green_Plus_Stripes_3.jpg,right,495.9099999978207,true,NA,true
7wbaRHD2,3ac6mfv6anv2a7u5af0lkpxs80hhzh,374tnbha8f8h5uhxolqy4gcifptqyi,7wbaRHD2,2020-0188,2020-05-21,14:20:06,14:52:23,NA,incomplete,32,color,1,right,Green_Plus_Stripes_2.jpg,Purple_Circle_Stripes_1.jpg,Green_Star_Dots_3.jpg,right,370.84000000334345,true,NA,true
7wbaRHD2,3ac6mfv6anv2a7u5af0lkpxs80hhzh,374tnbha8f8h5uhxolqy4gcifptqyi,7wbaRHD2,2020-0188,2020-05-21,14:20:06,14:52:23,NA,incomplete,33,color,1,right,Red_Circle_Grid_3.jpg,Blue_Plus_Grid_2.jpg,Red_Triangle_Stripes_4.jpg,right,420.36500001256354,true,NA,true
7wbaRHD2,3ac6mfv6anv2a7u5af0lkpxs80hhzh,374tnbha8f8h5uhxolqy4gcifptqyi,7wbaRHD2,2020-0188,2020-05-21,14:20:06,14:52:23,NA,incomplete,34,color,1,right,Purple_Star_Stripes_2.jpg,Blue_Circle_Stripes_3.jpg,Purple_Plus_Chess_1.jpg,right,448.74999999580905,true,NA,true
7wbaRHD2,3ac6mfv6anv2a7u5af0lkpxs80hhzh,374tnbha8f8h5uhxolqy4gcifptqyi,7wbaRHD2,2020-0188,2020-05-21,14:20:06,14:52:23,NA,incomplete,35,color,1,left,Red_Circle_Chess_4.jpg,Red_Plus_Dots_3.jpg,Green_Star_Chess_1.jpg,left,492.0950000088196,true,NA,true
7wbaRHD2,3ac6mfv6anv2a7u5af0lkpxs80hhzh,374tnbha8f8h5uhxolqy4gcifptqyi,7wbaRHD2,2020-0188,2020-05-21,14:20:06,14:52:23,NA,incomplete,36,color,1,right,Green_Star_Grid_1.jpg,Purple_Plus_Grid_4.jpg,Green_Circle_Chess_3.jpg,right,480.3000000100583,true,NA,true
7wbaRHD2,3ac6mfv6anv2a7u5af0lkpxs80hhzh,374tnbha8f8h5uhxolqy4gcifptqyi,7wbaRHD2,2020-0188,2020-05-21,14:20:06,14:52:23,NA,incomplete,37,color,1,right,Green_Triangle_Dots_3.jpg,Blue_Circle_Dots_1.jpg,Green_Plus_Grid_2.jpg,right,425.0400000018999,true,NA,true
7wbaRHD2,3ac6mfv6anv2a7u5af0lkpxs80hhzh,374tnbha8f8h5uhxolqy4gcifptqyi,7wbaRHD2,2020-0188,2020-05-21,14:20:06,14:52:23,NA,incomplete,38,color,1,right,Blue_Plus_Chess_2.jpg,Red_Circle_Chess_3.jpg,Blue_Star_Dots_4.jpg,right,476.62500001024455,true,NA,true
7wbaRHD2,3ac6mfv6anv2a7u5af0lkpxs80hhzh,374tnbha8f8h5uhxolqy4gcifptqyi,7wbaRHD2,2020-0188,2020-05-21,14:20:06,14:52:23,NA,incomplete,39,color,1,left,Blue_Triangle_Chess_3.jpg,Blue_Circle_Dots_2.jpg,Purple_Plus_Chess_1.jpg,left,520.11500000651,true,NA,true
7wbaRHD2,3ac6mfv6anv2a7u5af0lkpxs80hhzh,374tnbha8f8h5uhxolqy4gcifptqyi,7wbaRHD2,2020-0188,2020-05-21,14:20:06,14:52:23,NA,incomplete,0,filling,1,left,Red_Star_Stripes_4.jpg,Purple_Plus_Stripes_1.jpg,Red_Circle_Grid_2.jpg,right,968.1799999962095,false,low,false
7wbaRHD2,3ac6mfv6anv2a7u5af0lkpxs80hhzh,374tnbha8f8h5uhxolqy4gcifptqyi,7wbaRHD2,2020-0188,2020-05-21,14:20:06,14:52:23,NA,incomplete,1,filling,1,right,Green_Circle_Stripes_3.jpg,Green_Star_Chess_4.jpg,Purple_Triangle_Stripes_1.jpg,right,866.4649999993853,true,low,false
7wbaRHD2,3ac6mfv6anv2a7u5af0lkpxs80hhzh,374tnbha8f8h5uhxolqy4gcifptqyi,7wbaRHD2,2020-0188,2020-05-21,14:20:06,14:52:23,NA,incomplete,2,filling,0,right,Red_Triangle_Chess_1.jpg,Red_Star_Stripes_3.jpg,Green_Circle_Chess_2.jpg,right,877.3849999997765,true,low,false
7wbaRHD2,3ac6mfv6anv2a7u5af0lkpxs80hhzh,374tnbha8f8h5uhxolqy4gcifptqyi,7wbaRHD2,2020-0188,2020-05-21,14:20:06,14:52:23,NA,incomplete,3,filling,0,right,Green_Plus_Stripes_2.jpg,Green_Triangle_Dots_4.jpg,Blue_Circle_Stripes_3.jpg,right,1203.1750000023749,true,low,false
7wbaRHD2,3ac6mfv6anv2a7u5af0lkpxs80hhzh,374tnbha8f8h5uhxolqy4gcifptqyi,7wbaRHD2,2020-0188,2020-05-21,14:20:06,14:52:23,NA,incomplete,4,filling,1,left,Red_Triangle_Dots_4.jpg,Purple_Circle_Dots_2.jpg,Red_Star_Grid_3.jpg,right,613.4299999973737,false,low,false
7wbaRHD2,3ac6mfv6anv2a7u5af0lkpxs80hhzh,374tnbha8f8h5uhxolqy4gcifptqyi,7wbaRHD2,2020-0188,2020-05-21,14:20:06,14:52:23,NA,incomplete,5,filling,1,left,Red_Star_Chess_2.jpg,Green_Triangle_Chess_3.jpg,Red_Plus_Grid_1.jpg,left,868.994999997085,true,low,false
7wbaRHD2,3ac6mfv6anv2a7u5af0lkpxs80hhzh,374tnbha8f8h5uhxolqy4gcifptqyi,7wbaRHD2,2020-0188,2020-05-21,14:20:06,14:52:23,NA,incomplete,6,filling,1,right,Blue_Triangle_Grid_4.jpg,Blue_Circle_Dots_3.jpg,Purple_Plus_Grid_2.jpg,right,810.3499999996275,true,low,false
7wbaRHD2,3ac6mfv6anv2a7u5af0lkpxs80hhzh,374tnbha8f8h5uhxolqy4gcifptqyi,7wbaRHD2,2020-0188,2020-05-21,14:20:06,14:52:23,NA,incomplete,7,filling,1,left,Green_Star_Stripes_2.jpg,Blue_Plus_Stripes_4.jpg,Green_Circle_Chess_1.jpg,left,825.8849999983795,true,low,false
7wbaRHD2,3ac6mfv6anv2a7u5af0lkpxs80hhzh,374tnbha8f8h5uhxolqy4gcifptqyi,7wbaRHD2,2020-0188,2020-05-21,14:20:06,14:52:23,NA,incomplete,8,filling,1,left,Purple_Plus_Grid_2.jpg,Green_Circle_Grid_1.jpg,Purple_Star_Stripes_4.jpg,left,837.1499999922235,true,low,false
7wbaRHD2,3ac6mfv6anv2a7u5af0lkpxs80hhzh,374tnbha8f8h5uhxolqy4gcifptqyi,7wbaRHD2,2020-0188,2020-05-21,14:20:06,14:52:23,NA,incomplete,9,filling,0,right,Purple_Plus_Chess_1.jpg,Purple_Circle_Stripes_3.jpg,Red_Triangle_Chess_2.jpg,right,917.1399999905843,true,low,false
7wbaRHD2,3ac6mfv6anv2a7u5af0lkpxs80hhzh,374tnbha8f8h5uhxolqy4gcifptqyi,7wbaRHD2,2020-0188,2020-05-21,14:20:06,14:52:23,NA,incomplete,10,filling,1,left,Red_Triangle_Grid_1.jpg,Blue_Circle_Grid_4.jpg,Red_Star_Chess_2.jpg,left,881.0649999943562,true,low,false
7wbaRHD2,3ac6mfv6anv2a7u5af0lkpxs80hhzh,374tnbha8f8h5uhxolqy4gcifptqyi,7wbaRHD2,2020-0188,2020-05-21,14:20:06,14:52:23,NA,incomplete,11,filling,0,right,Blue_Star_Dots_2.jpg,Blue_Plus_Grid_1.jpg,Purple_Circle_Dots_4.jpg,right,846.0199999972247,true,low,false
7wbaRHD2,3ac6mfv6anv2a7u5af0lkpxs80hhzh,374tnbha8f8h5uhxolqy4gcifptqyi,7wbaRHD2,2020-0188,2020-05-21,14:20:06,14:52:23,NA,incomplete,12,filling,1,right,Purple_Triangle_Dots_1.jpg,Purple_Star_Grid_4.jpg,Green_Circle_Dots_3.jpg,right,814.9750000012573,true,low,false
7wbaRHD2,3ac6mfv6anv2a7u5af0lkpxs80hhzh,374tnbha8f8h5uhxolqy4gcifptqyi,7wbaRHD2,2020-0188,2020-05-21,14:20:06,14:52:23,NA,incomplete,13,filling,1,left,Red_Triangle_Chess_3.jpg,Purple_Plus_Chess_2.jpg,Red_Star_Dots_4.jpg,left,778.6599999964237,true,low,false
7wbaRHD2,3ac6mfv6anv2a7u5af0lkpxs80hhzh,374tnbha8f8h5uhxolqy4gcifptqyi,7wbaRHD2,2020-0188,2020-05-21,14:20:06,14:52:23,NA,incomplete,14,filling,1,left,Green_Star_Chess_4.jpg,Blue_Circle_Chess_3.jpg,Green_Plus_Grid_2.jpg,left,914.9899999904446,true,low,false
7wbaRHD2,3ac6mfv6anv2a7u5af0lkpxs80hhzh,374tnbha8f8h5uhxolqy4gcifptqyi,7wbaRHD2,2020-0188,2020-05-21,14:20:06,14:52:23,NA,incomplete,15,filling,1,right,Blue_Triangle_Dots_2.jpg,Blue_Plus_Stripes_3.jpg,Purple_Star_Dots_4.jpg,right,825.9200000029523,true,low,false
7wbaRHD2,3ac6mfv6anv2a7u5af0lkpxs80hhzh,374tnbha8f8h5uhxolqy4gcifptqyi,7wbaRHD2,2020-0188,2020-05-21,14:20:06,14:52:23,NA,incomplete,16,filling,1,left,Green_Circle_Stripes_2.jpg,Blue_Plus_Stripes_4.jpg,Green_Star_Chess_3.jpg,left,744.9200000117999,true,low,false
7wbaRHD2,3ac6mfv6anv2a7u5af0lkpxs80hhzh,374tnbha8f8h5uhxolqy4gcifptqyi,7wbaRHD2,2020-0188,2020-05-21,14:20:06,14:52:23,NA,incomplete,17,filling,1,left,Purple_Star_Chess_3.jpg,Red_Plus_Chess_4.jpg,Purple_Triangle_Stripes_2.jpg,left,843.0150000057183,true,low,false
7wbaRHD2,3ac6mfv6anv2a7u5af0lkpxs80hhzh,374tnbha8f8h5uhxolqy4gcifptqyi,7wbaRHD2,2020-0188,2020-05-21,14:20:06,14:52:23,NA,incomplete,18,filling,0,left,Purple_Plus_Chess_3.jpg,Red_Triangle_Chess_4.jpg,Purple_Circle_Dots_1.jpg,left,754.6599999913014,true,low,false
7wbaRHD2,3ac6mfv6anv2a7u5af0lkpxs80hhzh,374tnbha8f8h5uhxolqy4gcifptqyi,7wbaRHD2,2020-0188,2020-05-21,14:20:06,14:52:23,NA,incomplete,19,filling,1,right,Green_Circle_Grid_2.jpg,Green_Triangle_Stripes_1.jpg,Blue_Star_Grid_3.jpg,right,1034.0250000008382,true,low,false
7wbaRHD2,3ac6mfv6anv2a7u5af0lkpxs80hhzh,374tnbha8f8h5uhxolqy4gcifptqyi,7wbaRHD2,2020-0188,2020-05-21,14:20:06,14:52:23,NA,incomplete,20,filling,1,right,Purple_Star_Chess_1.jpg,Purple_Circle_Dots_4.jpg,Red_Triangle_Chess_2.jpg,right,1129.0949999967124,true,low,false
7wbaRHD2,3ac6mfv6anv2a7u5af0lkpxs80hhzh,374tnbha8f8h5uhxolqy4gcifptqyi,7wbaRHD2,2020-0188,2020-05-21,14:20:06,14:52:23,NA,incomplete,21,filling,1,left,Blue_Star_Stripes_1.jpg,Green_Circle_Stripes_3.jpg,Blue_Triangle_Dots_4.jpg,left,930.5599999935366,true,low,false
7wbaRHD2,3ac6mfv6anv2a7u5af0lkpxs80hhzh,374tnbha8f8h5uhxolqy4gcifptqyi,7wbaRHD2,2020-0188,2020-05-21,14:20:06,14:52:23,NA,incomplete,22,filling,1,right,Green_Star_Chess_1.jpg,Green_Circle_Dots_3.jpg,Purple_Triangle_Chess_2.jpg,right,868.4750000103377,true,low,false
7wbaRHD2,3ac6mfv6anv2a7u5af0lkpxs80hhzh,374tnbha8f8h5uhxolqy4gcifptqyi,7wbaRHD2,2020-0188,2020-05-21,14:20:06,14:52:23,NA,incomplete,23,filling,0,right,Blue_Star_Dots_2.jpg,Blue_Plus_Stripes_1.jpg,Red_Triangle_Dots_4.jpg,right,841.0600000061095,true,low,false
7wbaRHD2,3ac6mfv6anv2a7u5af0lkpxs80hhzh,374tnbha8f8h5uhxolqy4gcifptqyi,7wbaRHD2,2020-0188,2020-05-21,14:20:06,14:52:23,NA,incomplete,24,filling,1,right,Green_Star_Grid_2.jpg,Green_Triangle_Stripes_3.jpg,Red_Plus_Grid_1.jpg,right,929.3699999980163,true,low,false
7wbaRHD2,3ac6mfv6anv2a7u5af0lkpxs80hhzh,374tnbha8f8h5uhxolqy4gcifptqyi,7wbaRHD2,2020-0188,2020-05-21,14:20:06,14:52:23,NA,incomplete,25,filling,0,left,Green_Triangle_Grid_2.jpg,Purple_Star_Grid_1.jpg,Green_Circle_Stripes_3.jpg,left,932.9799999976531,true,low,false
7wbaRHD2,3ac6mfv6anv2a7u5af0lkpxs80hhzh,374tnbha8f8h5uhxolqy4gcifptqyi,7wbaRHD2,2020-0188,2020-05-21,14:20:06,14:52:23,NA,incomplete,26,filling,1,right,Red_Triangle_Chess_2.jpg,Red_Circle_Grid_3.jpg,Purple_Plus_Chess_4.jpg,right,926.8300000112504,true,low,false
7wbaRHD2,3ac6mfv6anv2a7u5af0lkpxs80hhzh,374tnbha8f8h5uhxolqy4gcifptqyi,7wbaRHD2,2020-0188,2020-05-21,14:20:06,14:52:23,NA,incomplete,27,filling,1,right,Purple_Triangle_Dots_2.jpg,Purple_Star_Chess_3.jpg,Blue_Plus_Dots_4.jpg,right,719.710000005085,true,low,false
7wbaRHD2,3ac6mfv6anv2a7u5af0lkpxs80hhzh,374tnbha8f8h5uhxolqy4gcifptqyi,7wbaRHD2,2020-0188,2020-05-21,14:20:06,14:52:23,NA,incomplete,28,filling,1,left,Red_Circle_Stripes_1.jpg,Purple_Plus_Stripes_3.jpg,Red_Triangle_Dots_2.jpg,left,746.5450000017881,true,low,false
7wbaRHD2,3ac6mfv6anv2a7u5af0lkpxs80hhzh,374tnbha8f8h5uhxolqy4gcifptqyi,7wbaRHD2,2020-0188,2020-05-21,14:20:06,14:52:23,NA,incomplete,29,filling,0,left,Purple_Triangle_Chess_2.jpg,Blue_Star_Chess_4.jpg,Purple_Circle_Dots_3.jpg,left,890.5850000008941,true,low,false
7wbaRHD2,3ac6mfv6anv2a7u5af0lkpxs80hhzh,374tnbha8f8h5uhxolqy4gcifptqyi,7wbaRHD2,2020-0188,2020-05-21,14:20:06,14:52:23,NA,incomplete,30,color,1,left,Purple_Triangle_Chess_4.jpg,Purple_Circle_Grid_1.jpg,Blue_Plus_Chess_2.jpg,right,891.0699999977369,false,low,false
7wbaRHD2,3ac6mfv6anv2a7u5af0lkpxs80hhzh,374tnbha8f8h5uhxolqy4gcifptqyi,7wbaRHD2,2020-0188,2020-05-21,14:20:06,14:52:23,NA,incomplete,31,color,1,left,Blue_Star_Stripes_3.jpg,Blue_Plus_Dots_2.jpg,Red_Triangle_Stripes_1.jpg,right,844.5999999968335,false,low,false
7wbaRHD2,3ac6mfv6anv2a7u5af0lkpxs80hhzh,374tnbha8f8h5uhxolqy4gcifptqyi,7wbaRHD2,2020-0188,2020-05-21,14:20:06,14:52:23,NA,incomplete,32,color,1,left,Blue_Plus_Stripes_3.jpg,Blue_Circle_Chess_4.jpg,Red_Star_Stripes_1.jpg,left,573.2099999876227,true,low,false
7wbaRHD2,3ac6mfv6anv2a7u5af0lkpxs80hhzh,374tnbha8f8h5uhxolqy4gcifptqyi,7wbaRHD2,2020-0188,2020-05-21,14:20:06,14:52:23,NA,incomplete,33,color,1,right,Purple_Triangle_Chess_4.jpg,Red_Star_Chess_2.jpg,Purple_Plus_Grid_1.jpg,right,629.0799999989104,true,low,false
7wbaRHD2,3ac6mfv6anv2a7u5af0lkpxs80hhzh,374tnbha8f8h5uhxolqy4gcifptqyi,7wbaRHD2,2020-0188,2020-05-21,14:20:06,14:52:23,NA,incomplete,34,color,1,left,Purple_Circle_Stripes_4.jpg,Purple_Plus_Chess_3.jpg,Red_Triangle_Stripes_1.jpg,left,650.2399999881163,true,low,false
7wbaRHD2,3ac6mfv6anv2a7u5af0lkpxs80hhzh,374tnbha8f8h5uhxolqy4gcifptqyi,7wbaRHD2,2020-0188,2020-05-21,14:20:06,14:52:23,NA,incomplete,35,color,1,right,Red_Circle_Grid_2.jpg,Green_Plus_Grid_3.jpg,Red_Triangle_Chess_1.jpg,right,441.9099999940954,true,low,false
7wbaRHD2,3ac6mfv6anv2a7u5af0lkpxs80hhzh,374tnbha8f8h5uhxolqy4gcifptqyi,7wbaRHD2,2020-0188,2020-05-21,14:20:06,14:52:23,NA,incomplete,36,color,1,right,Green_Triangle_Dots_2.jpg,Red_Plus_Dots_4.jpg,Green_Star_Grid_3.jpg,right,485.8399999937974,true,low,false
7wbaRHD2,3ac6mfv6anv2a7u5af0lkpxs80hhzh,374tnbha8f8h5uhxolqy4gcifptqyi,7wbaRHD2,2020-0188,2020-05-21,14:20:06,14:52:23,NA,incomplete,37,color,0,right,Blue_Star_Chess_1.jpg,Purple_Circle_Chess_4.jpg,Blue_Triangle_Dots_2.jpg,right,434.554999999702,true,low,false
7wbaRHD2,3ac6mfv6anv2a7u5af0lkpxs80hhzh,374tnbha8f8h5uhxolqy4gcifptqyi,7wbaRHD2,2020-0188,2020-05-21,14:20:06,14:52:23,NA,incomplete,38,color,0,right,Purple_Triangle_Grid_2.jpg,Red_Plus_Grid_1.jpg,Purple_Star_Stripes_4.jpg,right,531.9549999984447,true,low,false
7wbaRHD2,3ac6mfv6anv2a7u5af0lkpxs80hhzh,374tnbha8f8h5uhxolqy4gcifptqyi,7wbaRHD2,2020-0188,2020-05-21,14:20:06,14:52:23,NA,incomplete,39,color,1,left,Blue_Circle_Dots_3.jpg,Blue_Triangle_Chess_4.jpg,Green_Star_Dots_2.jpg,left,561.9750000040513,true,low,false
7wbaRHD2,3ac6mfv6anv2a7u5af0lkpxs80hhzh,374tnbha8f8h5uhxolqy4gcifptqyi,7wbaRHD2,2020-0188,2020-05-21,14:20:06,14:52:23,NA,incomplete,40,color,1,left,Red_Circle_Stripes_4.jpg,Red_Triangle_Dots_3.jpg,Green_Plus_Stripes_1.jpg,left,512.3949999979232,true,low,false
7wbaRHD2,3ac6mfv6anv2a7u5af0lkpxs80hhzh,374tnbha8f8h5uhxolqy4gcifptqyi,7wbaRHD2,2020-0188,2020-05-21,14:20:06,14:52:23,NA,incomplete,41,color,1,left,Green_Triangle_Dots_4.jpg,Green_Star_Grid_3.jpg,Blue_Circle_Dots_1.jpg,left,501.6249999899883,true,low,false
7wbaRHD2,3ac6mfv6anv2a7u5af0lkpxs80hhzh,374tnbha8f8h5uhxolqy4gcifptqyi,7wbaRHD2,2020-0188,2020-05-21,14:20:06,14:52:23,NA,incomplete,42,color,1,right,Purple_Circle_Dots_2.jpg,Blue_Triangle_Dots_4.jpg,Purple_Plus_Grid_3.jpg,right,414.2500000016298,true,low,false
7wbaRHD2,3ac6mfv6anv2a7u5af0lkpxs80hhzh,374tnbha8f8h5uhxolqy4gcifptqyi,7wbaRHD2,2020-0188,2020-05-21,14:20:06,14:52:23,NA,incomplete,43,color,1,left,Green_Circle_Dots_4.jpg,Green_Triangle_Chess_1.jpg,Purple_Star_Dots_2.jpg,left,450.16500000213273,true,low,false
7wbaRHD2,3ac6mfv6anv2a7u5af0lkpxs80hhzh,374tnbha8f8h5uhxolqy4gcifptqyi,7wbaRHD2,2020-0188,2020-05-21,14:20:06,14:52:23,NA,incomplete,44,color,1,left,Green_Circle_Chess_2.jpg,Green_Star_Stripes_1.jpg,Purple_Triangle_Chess_3.jpg,left,506.36999998800457,true,low,false
7wbaRHD2,3ac6mfv6anv2a7u5af0lkpxs80hhzh,374tnbha8f8h5uhxolqy4gcifptqyi,7wbaRHD2,2020-0188,2020-05-21,14:20:06,14:52:23,NA,incomplete,45,color,1,left,Purple_Triangle_Chess_3.jpg,Purple_Circle_Stripes_1.jpg,Red_Star_Chess_4.jpg,left,539.2649999994319,true,low,false
7wbaRHD2,3ac6mfv6anv2a7u5af0lkpxs80hhzh,374tnbha8f8h5uhxolqy4gcifptqyi,7wbaRHD2,2020-0188,2020-05-21,14:20:06,14:52:23,NA,incomplete,46,color,1,left,Blue_Triangle_Dots_4.jpg,Blue_Circle_Grid_3.jpg,Red_Star_Dots_2.jpg,left,456.9999999948777,true,low,false
7wbaRHD2,3ac6mfv6anv2a7u5af0lkpxs80hhzh,374tnbha8f8h5uhxolqy4gcifptqyi,7wbaRHD2,2020-0188,2020-05-21,14:20:06,14:52:23,NA,incomplete,47,color,1,right,Green_Star_Chess_4.jpg,Blue_Plus_Chess_2.jpg,Green_Circle_Dots_1.jpg,right,508.8300000061281,true,low,false
7wbaRHD2,3ac6mfv6anv2a7u5af0lkpxs80hhzh,374tnbha8f8h5uhxolqy4gcifptqyi,7wbaRHD2,2020-0188,2020-05-21,14:20:06,14:52:23,NA,incomplete,48,color,1,left,Purple_Circle_Chess_3.jpg,Purple_Triangle_Grid_1.jpg,Green_Plus_Chess_4.jpg,left,507.5000000069849,true,low,false
7wbaRHD2,3ac6mfv6anv2a7u5af0lkpxs80hhzh,374tnbha8f8h5uhxolqy4gcifptqyi,7wbaRHD2,2020-0188,2020-05-21,14:20:06,14:52:23,NA,incomplete,49,color,1,right,Green_Plus_Dots_4.jpg,Red_Triangle_Dots_2.jpg,Green_Star_Stripes_3.jpg,right,428.5200000011828,true,low,false
7wbaRHD2,3ac6mfv6anv2a7u5af0lkpxs80hhzh,374tnbha8f8h5uhxolqy4gcifptqyi,7wbaRHD2,2020-0188,2020-05-21,14:20:06,14:52:23,NA,incomplete,50,color,1,left,Blue_Star_Chess_4.jpg,Blue_Triangle_Dots_3.jpg,Green_Plus_Chess_2.jpg,left,447.5349999992177,true,low,false
7wbaRHD2,3ac6mfv6anv2a7u5af0lkpxs80hhzh,374tnbha8f8h5uhxolqy4gcifptqyi,7wbaRHD2,2020-0188,2020-05-21,14:20:06,14:52:23,NA,incomplete,51,color,1,right,Red_Star_Chess_4.jpg,Purple_Plus_Chess_2.jpg,Red_Circle_Grid_1.jpg,right,429.8749999871943,true,low,false
7wbaRHD2,3ac6mfv6anv2a7u5af0lkpxs80hhzh,374tnbha8f8h5uhxolqy4gcifptqyi,7wbaRHD2,2020-0188,2020-05-21,14:20:06,14:52:23,NA,incomplete,52,color,1,left,Blue_Star_Stripes_1.jpg,Blue_Circle_Grid_4.jpg,Green_Plus_Stripes_2.jpg,left,467.98499999567866,true,low,false
7wbaRHD2,3ac6mfv6anv2a7u5af0lkpxs80hhzh,374tnbha8f8h5uhxolqy4gcifptqyi,7wbaRHD2,2020-0188,2020-05-21,14:20:06,14:52:23,NA,incomplete,53,color,1,right,Purple_Triangle_Chess_4.jpg,Green_Plus_Chess_1.jpg,Purple_Circle_Stripes_3.jpg,right,424.61000000173226,true,low,false
7wbaRHD2,3ac6mfv6anv2a7u5af0lkpxs80hhzh,374tnbha8f8h5uhxolqy4gcifptqyi,7wbaRHD2,2020-0188,2020-05-21,14:20:06,14:52:23,NA,incomplete,54,color,1,left,Red_Plus_Stripes_4.jpg,Red_Star_Grid_1.jpg,Green_Circle_Stripes_3.jpg,left,544.890000004787,true,low,false
7wbaRHD2,3ac6mfv6anv2a7u5af0lkpxs80hhzh,374tnbha8f8h5uhxolqy4gcifptqyi,7wbaRHD2,2020-0188,2020-05-21,14:20:06,14:52:23,NA,incomplete,55,color,1,right,Blue_Plus_Chess_4.jpg,Purple_Triangle_Chess_2.jpg,Blue_Star_Stripes_1.jpg,right,439.0949999941513,true,low,false
7wbaRHD2,3ac6mfv6anv2a7u5af0lkpxs80hhzh,374tnbha8f8h5uhxolqy4gcifptqyi,7wbaRHD2,2020-0188,2020-05-21,14:20:06,14:52:23,NA,incomplete,56,color,0,left,Blue_Circle_Grid_1.jpg,Blue_Triangle_Dots_2.jpg,Green_Star_Grid_4.jpg,left,415.1949999940116,true,low,false
7wbaRHD2,3ac6mfv6anv2a7u5af0lkpxs80hhzh,374tnbha8f8h5uhxolqy4gcifptqyi,7wbaRHD2,2020-0188,2020-05-21,14:20:06,14:52:23,NA,incomplete,57,color,1,right,Green_Plus_Stripes_3.jpg,Red_Circle_Stripes_1.jpg,Green_Star_Grid_4.jpg,right,444.1599999992177,true,low,false
7wbaRHD2,3ac6mfv6anv2a7u5af0lkpxs80hhzh,374tnbha8f8h5uhxolqy4gcifptqyi,7wbaRHD2,2020-0188,2020-05-21,14:20:06,14:52:23,NA,incomplete,58,color,1,left,Red_Triangle_Chess_3.jpg,Red_Star_Grid_1.jpg,Purple_Circle_Chess_4.jpg,left,579.8849999993108,true,low,false
7wbaRHD2,3ac6mfv6anv2a7u5af0lkpxs80hhzh,374tnbha8f8h5uhxolqy4gcifptqyi,7wbaRHD2,2020-0188,2020-05-21,14:20:06,14:52:23,NA,incomplete,59,color,0,left,Green_Triangle_Chess_3.jpg,Green_Plus_Grid_4.jpg,Red_Star_Chess_2.jpg,left,462.59500000439584,true,low,false
7wbaRHD2,3ac6mfv6anv2a7u5af0lkpxs80hhzh,374tnbha8f8h5uhxolqy4gcifptqyi,7wbaRHD2,2020-0188,2020-05-21,14:20:06,14:52:23,NA,incomplete,60,filling,1,left,Blue_Triangle_Grid_4.jpg,Red_Circle_Grid_2.jpg,Blue_Plus_Stripes_1.jpg,right,464.3600000126753,false,low,false
7wbaRHD2,3ac6mfv6anv2a7u5af0lkpxs80hhzh,374tnbha8f8h5uhxolqy4gcifptqyi,7wbaRHD2,2020-0188,2020-05-21,14:20:06,14:52:23,NA,incomplete,61,filling,1,right,Blue_Circle_Stripes_1.jpg,Blue_Triangle_Grid_2.jpg,Red_Plus_Stripes_3.jpg,left,492.5000000076834,false,low,false
7wbaRHD2,3ac6mfv6anv2a7u5af0lkpxs80hhzh,374tnbha8f8h5uhxolqy4gcifptqyi,7wbaRHD2,2020-0188,2020-05-21,14:20:06,14:52:23,NA,incomplete,62,filling,1,left,Green_Plus_Chess_2.jpg,Purple_Triangle_Chess_4.jpg,Green_Circle_Stripes_3.jpg,left,782.984999998007,true,low,false
7wbaRHD2,3ac6mfv6anv2a7u5af0lkpxs80hhzh,374tnbha8f8h5uhxolqy4gcifptqyi,7wbaRHD2,2020-0188,2020-05-21,14:20:06,14:52:23,NA,incomplete,63,filling,0,left,Blue_Plus_Grid_2.jpg,Purple_Triangle_Grid_1.jpg,Blue_Circle_Dots_4.jpg,left,868.8549999934621,true,low,false
7wbaRHD2,3ac6mfv6anv2a7u5af0lkpxs80hhzh,374tnbha8f8h5uhxolqy4gcifptqyi,7wbaRHD2,2020-0188,2020-05-21,14:20:06,14:52:23,NA,incomplete,64,filling,1,left,Blue_Circle_Grid_1.jpg,Red_Plus_Grid_4.jpg,Blue_Star_Stripes_3.jpg,left,849.4099999950267,true,low,false
7wbaRHD2,3ac6mfv6anv2a7u5af0lkpxs80hhzh,374tnbha8f8h5uhxolqy4gcifptqyi,7wbaRHD2,2020-0188,2020-05-21,14:20:06,14:52:23,NA,incomplete,65,filling,0,right,Purple_Star_Stripes_2.jpg,Purple_Triangle_Grid_1.jpg,Red_Plus_Stripes_4.jpg,right,779.5349999940954,true,low,false
7wbaRHD2,3ac6mfv6anv2a7u5af0lkpxs80hhzh,374tnbha8f8h5uhxolqy4gcifptqyi,7wbaRHD2,2020-0188,2020-05-21,14:20:06,14:52:23,NA,incomplete,66,filling,1,left,Purple_Triangle_Grid_2.jpg,Blue_Circle_Grid_4.jpg,Purple_Star_Stripes_1.jpg,left,977.5499999960884,true,low,false
7wbaRHD2,3ac6mfv6anv2a7u5af0lkpxs80hhzh,374tnbha8f8h5uhxolqy4gcifptqyi,7wbaRHD2,2020-0188,2020-05-21,14:20:06,14:52:23,NA,incomplete,67,filling,1,right,Blue_Plus_Chess_3.jpg,Blue_Circle_Dots_4.jpg,Red_Star_Chess_2.jpg,right,773.4849999977741,true,low,false
7wbaRHD2,3ac6mfv6anv2a7u5af0lkpxs80hhzh,374tnbha8f8h5uhxolqy4gcifptqyi,7wbaRHD2,2020-0188,2020-05-21,14:20:06,14:52:23,NA,incomplete,68,filling,1,left,Red_Triangle_Dots_1.jpg,Green_Star_Dots_3.jpg,Red_Plus_Grid_2.jpg,left,858.6400000059512,true,low,false
7wbaRHD2,3ac6mfv6anv2a7u5af0lkpxs80hhzh,374tnbha8f8h5uhxolqy4gcifptqyi,7wbaRHD2,2020-0188,2020-05-21,14:20:06,14:52:23,NA,incomplete,69,filling,1,right,Green_Circle_Dots_4.jpg,Green_Plus_Grid_3.jpg,Purple_Star_Dots_1.jpg,right,847.4100000020117,true,low,false
7wbaRHD2,3ac6mfv6anv2a7u5af0lkpxs80hhzh,374tnbha8f8h5uhxolqy4gcifptqyi,7wbaRHD2,2020-0188,2020-05-21,14:20:06,14:52:23,NA,incomplete,70,filling,1,right,Purple_Plus_Grid_3.jpg,Purple_Circle_Dots_1.jpg,Green_Triangle_Grid_4.jpg,right,763.7749999994412,true,low,false
7wbaRHD2,3ac6mfv6anv2a7u5af0lkpxs80hhzh,374tnbha8f8h5uhxolqy4gcifptqyi,7wbaRHD2,2020-0188,2020-05-21,14:20:06,14:52:23,NA,incomplete,71,filling,1,left,Green_Plus_Chess_3.jpg,Red_Triangle_Chess_1.jpg,Green_Star_Stripes_2.jpg,left,677.7799999979325,true,low,false
7wbaRHD2,3ac6mfv6anv2a7u5af0lkpxs80hhzh,374tnbha8f8h5uhxolqy4gcifptqyi,7wbaRHD2,2020-0188,2020-05-21,14:20:06,14:52:23,NA,incomplete,72,filling,1,right,Purple_Triangle_Dots_4.jpg,Purple_Circle_Chess_2.jpg,Blue_Plus_Dots_1.jpg,right,654.460000005085,true,low,false
7wbaRHD2,3ac6mfv6anv2a7u5af0lkpxs80hhzh,374tnbha8f8h5uhxolqy4gcifptqyi,7wbaRHD2,2020-0188,2020-05-21,14:20:06,14:52:23,NA,incomplete,73,filling,1,left,Blue_Plus_Stripes_1.jpg,Red_Circle_Stripes_2.jpg,Blue_Star_Chess_3.jpg,left,865.5549999964423,true,low,false
7wbaRHD2,3ac6mfv6anv2a7u5af0lkpxs80hhzh,374tnbha8f8h5uhxolqy4gcifptqyi,7wbaRHD2,2020-0188,2020-05-21,14:20:06,14:52:23,NA,incomplete,74,filling,1,left,Purple_Circle_Dots_4.jpg,Green_Plus_Dots_1.jpg,Purple_Star_Grid_3.jpg,left,964.8400000007823,true,low,false
7wbaRHD2,3ac6mfv6anv2a7u5af0lkpxs80hhzh,374tnbha8f8h5uhxolqy4gcifptqyi,7wbaRHD2,2020-0188,2020-05-21,14:20:06,14:52:23,NA,incomplete,75,filling,1,right,Purple_Plus_Grid_2.jpg,Purple_Circle_Stripes_3.jpg,Blue_Triangle_Grid_4.jpg,right,757.6399999961723,true,low,false
7wbaRHD2,3ac6mfv6anv2a7u5af0lkpxs80hhzh,374tnbha8f8h5uhxolqy4gcifptqyi,7wbaRHD2,2020-0188,2020-05-21,14:20:06,14:52:23,NA,incomplete,76,filling,0,left,Purple_Star_Chess_1.jpg,Blue_Circle_Chess_4.jpg,Purple_Plus_Stripes_2.jpg,left,861.294999995036,true,low,false
7wbaRHD2,3ac6mfv6anv2a7u5af0lkpxs80hhzh,374tnbha8f8h5uhxolqy4gcifptqyi,7wbaRHD2,2020-0188,2020-05-21,14:20:06,14:52:23,NA,incomplete,77,filling,1,left,Purple_Circle_Stripes_4.jpg,Red_Triangle_Stripes_1.jpg,Purple_Plus_Chess_3.jpg,left,833.8450000011362,true,low,false
7wbaRHD2,3ac6mfv6anv2a7u5af0lkpxs80hhzh,374tnbha8f8h5uhxolqy4gcifptqyi,7wbaRHD2,2020-0188,2020-05-21,14:20:06,14:52:23,NA,incomplete,78,filling,0,right,Green_Circle_Grid_3.jpg,Green_Star_Chess_2.jpg,Blue_Triangle_Grid_4.jpg,right,731.2749999985099,true,low,false
7wbaRHD2,3ac6mfv6anv2a7u5af0lkpxs80hhzh,374tnbha8f8h5uhxolqy4gcifptqyi,7wbaRHD2,2020-0188,2020-05-21,14:20:06,14:52:23,NA,incomplete,79,filling,1,right,Purple_Plus_Chess_4.jpg,Purple_Star_Dots_3.jpg,Blue_Triangle_Chess_1.jpg,right,776.5950000029989,true,low,false
7wbaRHD2,3ac6mfv6anv2a7u5af0lkpxs80hhzh,374tnbha8f8h5uhxolqy4gcifptqyi,7wbaRHD2,2020-0188,2020-05-21,14:20:06,14:52:23,NA,incomplete,80,filling,0,left,Purple_Triangle_Stripes_3.jpg,Blue_Circle_Stripes_2.jpg,Purple_Star_Dots_4.jpg,left,740.0349999954924,true,low,false
7wbaRHD2,3ac6mfv6anv2a7u5af0lkpxs80hhzh,374tnbha8f8h5uhxolqy4gcifptqyi,7wbaRHD2,2020-0188,2020-05-21,14:20:06,14:52:23,NA,incomplete,81,filling,0,right,Red_Star_Dots_1.jpg,Red_Plus_Chess_3.jpg,Purple_Triangle_Dots_4.jpg,right,1030.4000000033993,true,low,false
7wbaRHD2,3ac6mfv6anv2a7u5af0lkpxs80hhzh,374tnbha8f8h5uhxolqy4gcifptqyi,7wbaRHD2,2020-0188,2020-05-21,14:20:06,14:52:23,NA,incomplete,82,filling,1,left,Blue_Triangle_Stripes_3.jpg,Red_Star_Stripes_2.jpg,Blue_Circle_Grid_1.jpg,right,645.5850000055507,false,low,false
7wbaRHD2,3ac6mfv6anv2a7u5af0lkpxs80hhzh,374tnbha8f8h5uhxolqy4gcifptqyi,7wbaRHD2,2020-0188,2020-05-21,14:20:06,14:52:23,NA,incomplete,83,filling,1,left,Purple_Star_Dots_2.jpg,Red_Circle_Dots_4.jpg,Purple_Plus_Grid_1.jpg,right,629.9700000090525,false,low,false
7wbaRHD2,3ac6mfv6anv2a7u5af0lkpxs80hhzh,374tnbha8f8h5uhxolqy4gcifptqyi,7wbaRHD2,2020-0188,2020-05-21,14:20:06,14:52:23,NA,incomplete,84,filling,1,left,Green_Star_Grid_4.jpg,Red_Plus_Grid_3.jpg,Green_Circle_Dots_2.jpg,right,496.7700000125915,false,low,false
7wbaRHD2,3ac6mfv6anv2a7u5af0lkpxs80hhzh,374tnbha8f8h5uhxolqy4gcifptqyi,7wbaRHD2,2020-0188,2020-05-21,14:20:06,14:52:23,NA,incomplete,85,filling,0,left,Blue_Star_Dots_3.jpg,Green_Triangle_Dots_4.jpg,Blue_Plus_Stripes_2.jpg,left,1092.489999995567,true,low,false
7wbaRHD2,3ac6mfv6anv2a7u5af0lkpxs80hhzh,374tnbha8f8h5uhxolqy4gcifptqyi,7wbaRHD2,2020-0188,2020-05-21,14:20:06,14:52:23,NA,incomplete,86,filling,1,right,Green_Plus_Grid_3.jpg,Green_Star_Stripes_4.jpg,Purple_Triangle_Grid_1.jpg,right,845.0000000011642,true,low,false
7wbaRHD2,3ac6mfv6anv2a7u5af0lkpxs80hhzh,374tnbha8f8h5uhxolqy4gcifptqyi,7wbaRHD2,2020-0188,2020-05-21,14:20:06,14:52:23,NA,incomplete,87,filling,1,right,Blue_Circle_Dots_1.jpg,Blue_Star_Stripes_3.jpg,Green_Plus_Dots_4.jpg,right,788.3199999923818,true,low,false
7wbaRHD2,3ac6mfv6anv2a7u5af0lkpxs80hhzh,374tnbha8f8h5uhxolqy4gcifptqyi,7wbaRHD2,2020-0188,2020-05-21,14:20:06,14:52:23,NA,incomplete,88,filling,0,right,Blue_Triangle_Dots_3.jpg,Blue_Plus_Grid_4.jpg,Purple_Circle_Dots_2.jpg,right,629.5749999987893,true,low,false
7wbaRHD2,3ac6mfv6anv2a7u5af0lkpxs80hhzh,374tnbha8f8h5uhxolqy4gcifptqyi,7wbaRHD2,2020-0188,2020-05-21,14:20:06,14:52:23,NA,incomplete,89,filling,1,left,Red_Plus_Chess_1.jpg,Green_Star_Chess_2.jpg,Red_Circle_Dots_4.jpg,left,773.600000000326,true,low,false
7wbaRHD2,3ac6mfv6anv2a7u5af0lkpxs80hhzh,374tnbha8f8h5uhxolqy4gcifptqyi,7wbaRHD2,2020-0188,2020-05-21,14:20:06,14:52:23,NA,incomplete,90,color,1,right,Green_Plus_Dots_4.jpg,Red_Circle_Dots_3.jpg,Green_Star_Grid_1.jpg,left,944.0750000067055,false,low,false
7wbaRHD2,3ac6mfv6anv2a7u5af0lkpxs80hhzh,374tnbha8f8h5uhxolqy4gcifptqyi,7wbaRHD2,2020-0188,2020-05-21,14:20:06,14:52:23,NA,incomplete,91,color,1,right,Purple_Plus_Stripes_4.jpg,Green_Triangle_Stripes_1.jpg,Purple_Star_Dots_3.jpg,left,807.7250000061467,false,low,false
7wbaRHD2,3ac6mfv6anv2a7u5af0lkpxs80hhzh,374tnbha8f8h5uhxolqy4gcifptqyi,7wbaRHD2,2020-0188,2020-05-21,14:20:06,14:52:23,NA,incomplete,92,color,1,left,Green_Plus_Stripes_1.jpg,Green_Star_Dots_4.jpg,Blue_Circle_Stripes_3.jpg,right,793.894999995362,false,low,false
7wbaRHD2,3ac6mfv6anv2a7u5af0lkpxs80hhzh,374tnbha8f8h5uhxolqy4gcifptqyi,7wbaRHD2,2020-0188,2020-05-21,14:20:06,14:52:23,NA,incomplete,93,color,1,right,Red_Star_Grid_2.jpg,Purple_Triangle_Grid_1.jpg,Red_Circle_Stripes_4.jpg,right,533.810000008205,true,low,false
7wbaRHD2,3ac6mfv6anv2a7u5af0lkpxs80hhzh,374tnbha8f8h5uhxolqy4gcifptqyi,7wbaRHD2,2020-0188,2020-05-21,14:20:06,14:52:23,NA,incomplete,94,color,1,right,Purple_Triangle_Dots_4.jpg,Red_Circle_Dots_2.jpg,Purple_Star_Chess_1.jpg,right,800.1400000066496,true,low,false
7wbaRHD2,3ac6mfv6anv2a7u5af0lkpxs80hhzh,374tnbha8f8h5uhxolqy4gcifptqyi,7wbaRHD2,2020-0188,2020-05-21,14:20:06,14:52:23,NA,incomplete,95,color,1,left,Red_Star_Grid_2.jpg,Red_Triangle_Stripes_4.jpg,Purple_Plus_Grid_3.jpg,left,484.3799999943003,true,low,false
7wbaRHD2,3ac6mfv6anv2a7u5af0lkpxs80hhzh,374tnbha8f8h5uhxolqy4gcifptqyi,7wbaRHD2,2020-0188,2020-05-21,14:20:06,14:52:23,NA,incomplete,96,color,0,right,Green_Triangle_Dots_4.jpg,Purple_Circle_Dots_3.jpg,Green_Star_Chess_1.jpg,right,645.7150000061374,true,low,false
7wbaRHD2,3ac6mfv6anv2a7u5af0lkpxs80hhzh,374tnbha8f8h5uhxolqy4gcifptqyi,7wbaRHD2,2020-0188,2020-05-21,14:20:06,14:52:23,NA,incomplete,97,color,1,right,Red_Star_Stripes_3.jpg,Purple_Circle_Stripes_4.jpg,Red_Triangle_Dots_1.jpg,right,495.2649999903515,true,low,false
7wbaRHD2,3ac6mfv6anv2a7u5af0lkpxs80hhzh,374tnbha8f8h5uhxolqy4gcifptqyi,7wbaRHD2,2020-0188,2020-05-21,14:20:06,14:52:23,NA,incomplete,98,color,1,left,Red_Circle_Dots_4.jpg,Red_Star_Stripes_2.jpg,Green_Plus_Dots_1.jpg,left,440.4199999989942,true,low,false
7wbaRHD2,3ac6mfv6anv2a7u5af0lkpxs80hhzh,374tnbha8f8h5uhxolqy4gcifptqyi,7wbaRHD2,2020-0188,2020-05-21,14:20:06,14:52:23,NA,incomplete,99,color,0,left,Green_Circle_Dots_4.jpg,Green_Star_Stripes_3.jpg,Blue_Plus_Dots_1.jpg,left,457.44499999284744,true,low,false
7wbaRHD2,3ac6mfv6anv2a7u5af0lkpxs80hhzh,374tnbha8f8h5uhxolqy4gcifptqyi,7wbaRHD2,2020-0188,2020-05-21,14:20:06,14:52:23,NA,incomplete,100,color,1,right,Blue_Circle_Grid_3.jpg,Green_Star_Grid_4.jpg,Blue_Plus_Stripes_1.jpg,right,534.1349999941885,true,low,false
7wbaRHD2,3ac6mfv6anv2a7u5af0lkpxs80hhzh,374tnbha8f8h5uhxolqy4gcifptqyi,7wbaRHD2,2020-0188,2020-05-21,14:20:06,14:52:23,NA,incomplete,101,color,1,left,Green_Plus_Grid_2.jpg,Green_Circle_Chess_1.jpg,Red_Star_Grid_4.jpg,left,526.570000001695,true,low,false
7wbaRHD2,3ac6mfv6anv2a7u5af0lkpxs80hhzh,374tnbha8f8h5uhxolqy4gcifptqyi,7wbaRHD2,2020-0188,2020-05-21,14:20:06,14:52:23,NA,incomplete,102,color,1,left,Green_Star_Dots_2.jpg,Green_Circle_Grid_3.jpg,Purple_Triangle_Dots_4.jpg,left,469.4149999995716,true,low,false
7wbaRHD2,3ac6mfv6anv2a7u5af0lkpxs80hhzh,374tnbha8f8h5uhxolqy4gcifptqyi,7wbaRHD2,2020-0188,2020-05-21,14:20:06,14:52:23,NA,incomplete,103,color,1,left,Red_Plus_Stripes_4.jpg,Red_Triangle_Grid_2.jpg,Purple_Circle_Stripes_3.jpg,left,415.554999999702,true,low,false
7wbaRHD2,3ac6mfv6anv2a7u5af0lkpxs80hhzh,374tnbha8f8h5uhxolqy4gcifptqyi,7wbaRHD2,2020-0188,2020-05-21,14:20:06,14:52:23,NA,incomplete,104,color,1,right,Red_Plus_Stripes_4.jpg,Green_Star_Stripes_3.jpg,Red_Triangle_Grid_1.jpg,right,457.94500000192784,true,low,false
7wbaRHD2,3ac6mfv6anv2a7u5af0lkpxs80hhzh,374tnbha8f8h5uhxolqy4gcifptqyi,7wbaRHD2,2020-0188,2020-05-21,14:20:06,14:52:23,NA,incomplete,105,color,1,left,Red_Star_Stripes_1.jpg,Red_Triangle_Dots_4.jpg,Green_Circle_Stripes_3.jpg,left,447.0699999947101,true,low,false
7wbaRHD2,3ac6mfv6anv2a7u5af0lkpxs80hhzh,374tnbha8f8h5uhxolqy4gcifptqyi,7wbaRHD2,2020-0188,2020-05-21,14:20:06,14:52:23,NA,incomplete,106,color,1,left,Blue_Star_Chess_3.jpg,Blue_Plus_Dots_4.jpg,Red_Triangle_Chess_1.jpg,left,478.46499999286607,true,low,false
7wbaRHD2,3ac6mfv6anv2a7u5af0lkpxs80hhzh,374tnbha8f8h5uhxolqy4gcifptqyi,7wbaRHD2,2020-0188,2020-05-21,14:20:06,14:52:23,NA,incomplete,107,color,1,left,Blue_Plus_Grid_2.jpg,Blue_Circle_Stripes_1.jpg,Green_Triangle_Grid_3.jpg,left,530.0900000000838,true,low,false
7wbaRHD2,3ac6mfv6anv2a7u5af0lkpxs80hhzh,374tnbha8f8h5uhxolqy4gcifptqyi,7wbaRHD2,2020-0188,2020-05-21,14:20:06,14:52:23,NA,incomplete,108,color,1,left,Green_Circle_Stripes_3.jpg,Green_Plus_Grid_1.jpg,Purple_Star_Stripes_4.jpg,left,461.1000000005588,true,low,false
7wbaRHD2,3ac6mfv6anv2a7u5af0lkpxs80hhzh,374tnbha8f8h5uhxolqy4gcifptqyi,7wbaRHD2,2020-0188,2020-05-21,14:20:06,14:52:23,NA,incomplete,109,color,1,left,Green_Star_Stripes_1.jpg,Green_Circle_Grid_4.jpg,Purple_Triangle_Stripes_2.jpg,left,419.7250000142958,true,low,false
7wbaRHD2,3ac6mfv6anv2a7u5af0lkpxs80hhzh,374tnbha8f8h5uhxolqy4gcifptqyi,7wbaRHD2,2020-0188,2020-05-21,14:20:06,14:52:23,NA,incomplete,110,color,0,right,Green_Plus_Chess_2.jpg,Purple_Circle_Chess_3.jpg,Green_Star_Stripes_1.jpg,right,505.67500000773,true,low,false
7wbaRHD2,3ac6mfv6anv2a7u5af0lkpxs80hhzh,374tnbha8f8h5uhxolqy4gcifptqyi,7wbaRHD2,2020-0188,2020-05-21,14:20:06,14:52:23,NA,incomplete,111,color,1,left,Red_Triangle_Dots_3.jpg,Red_Star_Chess_4.jpg,Green_Circle_Dots_1.jpg,left,471.0399999895599,true,low,false
7wbaRHD2,3ac6mfv6anv2a7u5af0lkpxs80hhzh,374tnbha8f8h5uhxolqy4gcifptqyi,7wbaRHD2,2020-0188,2020-05-21,14:20:06,14:52:23,NA,incomplete,112,color,1,right,Red_Plus_Grid_4.jpg,Green_Star_Grid_3.jpg,Red_Circle_Dots_1.jpg,right,459.7149999900721,true,low,false
7wbaRHD2,3ac6mfv6anv2a7u5af0lkpxs80hhzh,374tnbha8f8h5uhxolqy4gcifptqyi,7wbaRHD2,2020-0188,2020-05-21,14:20:06,14:52:23,NA,incomplete,113,color,1,right,Purple_Triangle_Dots_2.jpg,Blue_Plus_Dots_3.jpg,Purple_Star_Chess_4.jpg,right,488.62499999813735,true,low,false
7wbaRHD2,3ac6mfv6anv2a7u5af0lkpxs80hhzh,374tnbha8f8h5uhxolqy4gcifptqyi,7wbaRHD2,2020-0188,2020-05-21,14:20:06,14:52:23,NA,incomplete,114,color,1,left,Blue_Triangle_Grid_1.jpg,Blue_Plus_Dots_2.jpg,Red_Circle_Grid_3.jpg,left,450.92500001192093,true,low,false
7wbaRHD2,3ac6mfv6anv2a7u5af0lkpxs80hhzh,374tnbha8f8h5uhxolqy4gcifptqyi,7wbaRHD2,2020-0188,2020-05-21,14:20:06,14:52:23,NA,incomplete,115,color,1,left,Red_Circle_Stripes_3.jpg,Red_Triangle_Chess_4.jpg,Green_Plus_Stripes_1.jpg,left,459.62999999755993,true,low,false
7wbaRHD2,3ac6mfv6anv2a7u5af0lkpxs80hhzh,374tnbha8f8h5uhxolqy4gcifptqyi,7wbaRHD2,2020-0188,2020-05-21,14:20:06,14:52:23,NA,incomplete,116,color,1,left,Red_Circle_Grid_3.jpg,Red_Star_Dots_1.jpg,Green_Triangle_Grid_2.jpg,left,468.16000000410713,true,low,false
7wbaRHD2,3ac6mfv6anv2a7u5af0lkpxs80hhzh,374tnbha8f8h5uhxolqy4gcifptqyi,7wbaRHD2,2020-0188,2020-05-21,14:20:06,14:52:23,NA,incomplete,117,color,1,right,Red_Triangle_Chess_3.jpg,Purple_Circle_Chess_2.jpg,Red_Star_Grid_4.jpg,right,540.9150000049267,true,low,false
7wbaRHD2,3ac6mfv6anv2a7u5af0lkpxs80hhzh,374tnbha8f8h5uhxolqy4gcifptqyi,7wbaRHD2,2020-0188,2020-05-21,14:20:06,14:52:23,NA,incomplete,118,color,1,right,Purple_Plus_Grid_3.jpg,Blue_Triangle_Grid_4.jpg,Purple_Circle_Stripes_2.jpg,right,465.8300000010058,true,low,false
7wbaRHD2,3ac6mfv6anv2a7u5af0lkpxs80hhzh,374tnbha8f8h5uhxolqy4gcifptqyi,7wbaRHD2,2020-0188,2020-05-21,14:20:06,14:52:23,NA,incomplete,119,color,0,right,Purple_Star_Dots_4.jpg,Green_Triangle_Dots_2.jpg,Purple_Plus_Grid_3.jpg,right,401.5750000108965,true,low,false
7wbaRHD2,3ac6mfv6anv2a7u5af0lkpxs80hhzh,374tnbha8f8h5uhxolqy4gcifptqyi,7wbaRHD2,2020-0188,2020-05-21,14:20:06,14:52:23,NA,incomplete,120,number,1,right,Purple_Plus_Chess_2.jpg,Red_Plus_Stripes_4.jpg,Blue_Star_Dots_2.jpg,NA,NA,NA,low,false
7wbaRHD2,3ac6mfv6anv2a7u5af0lkpxs80hhzh,374tnbha8f8h5uhxolqy4gcifptqyi,7wbaRHD2,2020-0188,2020-05-21,14:20:06,14:52:23,NA,incomplete,121,number,1,right,Red_Star_Stripes_4.jpg,Blue_Star_Dots_3.jpg,Green_Circle_Grid_4.jpg,right,986.2100000027567,true,low,false
7wbaRHD2,3ac6mfv6anv2a7u5af0lkpxs80hhzh,374tnbha8f8h5uhxolqy4gcifptqyi,7wbaRHD2,2020-0188,2020-05-21,14:20:06,14:52:23,NA,incomplete,122,number,0,left,Blue_Star_Chess_4.jpg,Purple_Triangle_Dots_4.jpg,Red_Star_Stripes_1.jpg,left,692.2550000017509,true,low,false
7wbaRHD2,3ac6mfv6anv2a7u5af0lkpxs80hhzh,374tnbha8f8h5uhxolqy4gcifptqyi,7wbaRHD2,2020-0188,2020-05-21,14:20:06,14:52:23,NA,incomplete,123,number,1,right,Purple_Triangle_Chess_4.jpg,Red_Triangle_Dots_3.jpg,Green_Star_Stripes_4.jpg,right,958.5850000004284,true,low,false
7wbaRHD2,3ac6mfv6anv2a7u5af0lkpxs80hhzh,374tnbha8f8h5uhxolqy4gcifptqyi,7wbaRHD2,2020-0188,2020-05-21,14:20:06,14:52:23,NA,incomplete,124,number,0,left,Red_Plus_Grid_2.jpg,Green_Triangle_Chess_2.jpg,Purple_Plus_Stripes_1.jpg,left,887.4400000057649,true,low,false
7wbaRHD2,3ac6mfv6anv2a7u5af0lkpxs80hhzh,374tnbha8f8h5uhxolqy4gcifptqyi,7wbaRHD2,2020-0188,2020-05-21,14:20:06,14:52:23,NA,incomplete,125,number,1,right,Green_Star_Chess_1.jpg,Purple_Star_Stripes_4.jpg,Blue_Triangle_Grid_1.jpg,right,769.3949999958277,true,low,false
7wbaRHD2,3ac6mfv6anv2a7u5af0lkpxs80hhzh,374tnbha8f8h5uhxolqy4gcifptqyi,7wbaRHD2,2020-0188,2020-05-21,14:20:06,14:52:23,NA,incomplete,126,number,1,left,Green_Triangle_Chess_2.jpg,Blue_Star_Stripes_2.jpg,Purple_Triangle_Grid_4.jpg,left,763.2250000024214,true,low,false
7wbaRHD2,3ac6mfv6anv2a7u5af0lkpxs80hhzh,374tnbha8f8h5uhxolqy4gcifptqyi,7wbaRHD2,2020-0188,2020-05-21,14:20:06,14:52:23,NA,incomplete,127,number,0,left,Green_Star_Chess_3.jpg,Red_Triangle_Stripes_3.jpg,Purple_Star_Grid_1.jpg,right,787.0450000045821,false,low,false
7wbaRHD2,3ac6mfv6anv2a7u5af0lkpxs80hhzh,374tnbha8f8h5uhxolqy4gcifptqyi,7wbaRHD2,2020-0188,2020-05-21,14:20:06,14:52:23,NA,incomplete,128,number,1,left,Red_Star_Chess_4.jpg,Blue_Triangle_Dots_4.jpg,Purple_Star_Stripes_3.jpg,left,926.3950000021141,true,low,false
7wbaRHD2,3ac6mfv6anv2a7u5af0lkpxs80hhzh,374tnbha8f8h5uhxolqy4gcifptqyi,7wbaRHD2,2020-0188,2020-05-21,14:20:06,14:52:23,NA,incomplete,129,number,1,right,Purple_Star_Chess_1.jpg,Blue_Star_Stripes_2.jpg,Green_Circle_Dots_1.jpg,left,713.2350000026636,false,low,false
7wbaRHD2,3ac6mfv6anv2a7u5af0lkpxs80hhzh,374tnbha8f8h5uhxolqy4gcifptqyi,7wbaRHD2,2020-0188,2020-05-21,14:20:06,14:52:23,NA,incomplete,130,number,1,left,Green_Star_Grid_1.jpg,Purple_Circle_Stripes_1.jpg,Blue_Star_Chess_3.jpg,left,727.0100000023376,true,low,false
7wbaRHD2,3ac6mfv6anv2a7u5af0lkpxs80hhzh,374tnbha8f8h5uhxolqy4gcifptqyi,7wbaRHD2,2020-0188,2020-05-21,14:20:06,14:52:23,NA,incomplete,131,number,1,right,Blue_Plus_Grid_1.jpg,Green_Plus_Stripes_2.jpg,Purple_Triangle_Chess_1.jpg,right,700.4999999916181,true,low,false
7wbaRHD2,3ac6mfv6anv2a7u5af0lkpxs80hhzh,374tnbha8f8h5uhxolqy4gcifptqyi,7wbaRHD2,2020-0188,2020-05-21,14:20:06,14:52:23,NA,incomplete,132,number,1,left,Purple_Triangle_Dots_1.jpg,Red_Circle_Stripes_1.jpg,Blue_Triangle_Chess_4.jpg,left,700.3200000035577,true,low,false
7wbaRHD2,3ac6mfv6anv2a7u5af0lkpxs80hhzh,374tnbha8f8h5uhxolqy4gcifptqyi,7wbaRHD2,2020-0188,2020-05-21,14:20:06,14:52:23,NA,incomplete,133,number,1,right,Red_Star_Dots_4.jpg,Green_Star_Chess_3.jpg,Purple_Plus_Grid_4.jpg,right,801.2250000028871,true,low,false
7wbaRHD2,3ac6mfv6anv2a7u5af0lkpxs80hhzh,374tnbha8f8h5uhxolqy4gcifptqyi,7wbaRHD2,2020-0188,2020-05-21,14:20:06,14:52:23,NA,incomplete,134,number,0,left,Blue_Triangle_Grid_2.jpg,Purple_Circle_Stripes_2.jpg,Green_Triangle_Dots_1.jpg,left,694.9399999866728,true,low,false
7wbaRHD2,3ac6mfv6anv2a7u5af0lkpxs80hhzh,374tnbha8f8h5uhxolqy4gcifptqyi,7wbaRHD2,2020-0188,2020-05-21,14:20:06,14:52:23,NA,incomplete,135,number,1,left,Red_Triangle_Grid_2.jpg,Blue_Circle_Stripes_2.jpg,Purple_Triangle_Chess_3.jpg,left,959.4350000116974,true,low,false
7wbaRHD2,3ac6mfv6anv2a7u5af0lkpxs80hhzh,374tnbha8f8h5uhxolqy4gcifptqyi,7wbaRHD2,2020-0188,2020-05-21,14:20:06,14:52:23,NA,incomplete,136,number,1,left,Red_Plus_Stripes_1.jpg,Purple_Circle_Grid_1.jpg,Green_Plus_Chess_3.jpg,left,712.9100000020117,true,low,false
7wbaRHD2,3ac6mfv6anv2a7u5af0lkpxs80hhzh,374tnbha8f8h5uhxolqy4gcifptqyi,7wbaRHD2,2020-0188,2020-05-21,14:20:06,14:52:23,NA,incomplete,137,number,1,left,Red_Triangle_Stripes_4.jpg,Blue_Star_Dots_4.jpg,Green_Triangle_Grid_3.jpg,left,1119.9499999929685,true,low,false
7wbaRHD2,3ac6mfv6anv2a7u5af0lkpxs80hhzh,374tnbha8f8h5uhxolqy4gcifptqyi,7wbaRHD2,2020-0188,2020-05-21,14:20:06,14:52:23,NA,incomplete,138,number,1,left,Blue_Triangle_Chess_4.jpg,Green_Star_Grid_4.jpg,Purple_Triangle_Dots_1.jpg,left,666.5300000023562,true,low,false
7wbaRHD2,3ac6mfv6anv2a7u5af0lkpxs80hhzh,374tnbha8f8h5uhxolqy4gcifptqyi,7wbaRHD2,2020-0188,2020-05-21,14:20:06,14:52:23,NA,incomplete,139,number,0,left,Green_Triangle_Chess_3.jpg,Purple_Star_Grid_3.jpg,Red_Triangle_Dots_1.jpg,left,767.3399999910034,true,low,false
7wbaRHD2,3ac6mfv6anv2a7u5af0lkpxs80hhzh,374tnbha8f8h5uhxolqy4gcifptqyi,7wbaRHD2,2020-0188,2020-05-21,14:20:06,14:52:23,NA,incomplete,140,shape,1,right,Purple_Circle_Grid_1.jpg,Green_Star_Stripes_1.jpg,Red_Circle_Dots_4.jpg,left,700.7450000089593,false,low,false
7wbaRHD2,3ac6mfv6anv2a7u5af0lkpxs80hhzh,374tnbha8f8h5uhxolqy4gcifptqyi,7wbaRHD2,2020-0188,2020-05-21,14:20:06,14:52:23,NA,incomplete,141,shape,0,right,Purple_Plus_Dots_1.jpg,Blue_Circle_Stripes_1.jpg,Red_Plus_Grid_2.jpg,right,773.8299999912269,true,low,false
7wbaRHD2,3ac6mfv6anv2a7u5af0lkpxs80hhzh,374tnbha8f8h5uhxolqy4gcifptqyi,7wbaRHD2,2020-0188,2020-05-21,14:20:06,14:52:23,NA,incomplete,142,shape,1,left,Red_Circle_Stripes_4.jpg,Blue_Circle_Dots_1.jpg,Green_Triangle_Grid_4.jpg,left,717.2700000081677,true,low,false
7wbaRHD2,3ac6mfv6anv2a7u5af0lkpxs80hhzh,374tnbha8f8h5uhxolqy4gcifptqyi,7wbaRHD2,2020-0188,2020-05-21,14:20:06,14:52:23,NA,incomplete,143,shape,1,right,Green_Circle_Dots_4.jpg,Blue_Star_Grid_4.jpg,Red_Circle_Stripes_3.jpg,right,653.304999999702,true,low,false
7wbaRHD2,3ac6mfv6anv2a7u5af0lkpxs80hhzh,374tnbha8f8h5uhxolqy4gcifptqyi,7wbaRHD2,2020-0188,2020-05-21,14:20:06,14:52:23,NA,incomplete,144,shape,1,right,Blue_Star_Chess_2.jpg,Red_Circle_Grid_2.jpg,Purple_Star_Stripes_4.jpg,right,685.9700000060257,true,low,false
7wbaRHD2,3ac6mfv6anv2a7u5af0lkpxs80hhzh,374tnbha8f8h5uhxolqy4gcifptqyi,7wbaRHD2,2020-0188,2020-05-21,14:20:06,14:52:23,NA,incomplete,145,shape,1,right,Red_Circle_Stripes_3.jpg,Blue_Plus_Chess_3.jpg,Purple_Circle_Grid_1.jpg,right,578.6599999992177,true,low,false
7wbaRHD2,3ac6mfv6anv2a7u5af0lkpxs80hhzh,374tnbha8f8h5uhxolqy4gcifptqyi,7wbaRHD2,2020-0188,2020-05-21,14:20:06,14:52:23,NA,incomplete,146,shape,1,left,Purple_Star_Chess_4.jpg,Red_Star_Stripes_2.jpg,Blue_Triangle_Grid_4.jpg,left,802.0200000028126,true,low,false
7wbaRHD2,3ac6mfv6anv2a7u5af0lkpxs80hhzh,374tnbha8f8h5uhxolqy4gcifptqyi,7wbaRHD2,2020-0188,2020-05-21,14:20:06,14:52:23,NA,incomplete,147,shape,1,right,Red_Star_Dots_3.jpg,Purple_Circle_Chess_3.jpg,Green_Star_Stripes_4.jpg,right,740.6199999968521,true,low,false
7wbaRHD2,3ac6mfv6anv2a7u5af0lkpxs80hhzh,374tnbha8f8h5uhxolqy4gcifptqyi,7wbaRHD2,2020-0188,2020-05-21,14:20:06,14:52:23,NA,incomplete,148,shape,0,right,Purple_Triangle_Dots_1.jpg,Blue_Circle_Chess_1.jpg,Green_Triangle_Grid_3.jpg,right,754.5650000101887,true,low,false
7wbaRHD2,3ac6mfv6anv2a7u5af0lkpxs80hhzh,374tnbha8f8h5uhxolqy4gcifptqyi,7wbaRHD2,2020-0188,2020-05-21,14:20:06,14:52:23,NA,incomplete,149,shape,1,right,Purple_Star_Dots_3.jpg,Blue_Plus_Stripes_3.jpg,Red_Star_Chess_2.jpg,right,833.2200000004377,true,low,false
7wbaRHD2,3ac6mfv6anv2a7u5af0lkpxs80hhzh,374tnbha8f8h5uhxolqy4gcifptqyi,7wbaRHD2,2020-0188,2020-05-21,14:20:06,14:52:23,NA,incomplete,150,shape,1,right,Green_Circle_Dots_3.jpg,Purple_Triangle_Grid_3.jpg,Blue_Circle_Stripes_2.jpg,right,612.2699999979232,true,low,false
7wbaRHD2,3ac6mfv6anv2a7u5af0lkpxs80hhzh,374tnbha8f8h5uhxolqy4gcifptqyi,7wbaRHD2,2020-0188,2020-05-21,14:20:06,14:52:23,NA,incomplete,151,shape,1,right,Green_Plus_Dots_2.jpg,Red_Circle_Chess_2.jpg,Purple_Plus_Stripes_1.jpg,right,683.8799999970943,true,low,false
7wbaRHD2,3ac6mfv6anv2a7u5af0lkpxs80hhzh,374tnbha8f8h5uhxolqy4gcifptqyi,7wbaRHD2,2020-0188,2020-05-21,14:20:06,14:52:23,NA,incomplete,152,shape,1,left,Purple_Triangle_Grid_4.jpg,Blue_Triangle_Chess_3.jpg,Red_Plus_Dots_4.jpg,left,695.3700000012759,true,low,false
7wbaRHD2,3ac6mfv6anv2a7u5af0lkpxs80hhzh,374tnbha8f8h5uhxolqy4gcifptqyi,7wbaRHD2,2020-0188,2020-05-21,14:20:06,14:52:23,NA,incomplete,153,shape,1,left,Green_Circle_Dots_1.jpg,Red_Circle_Grid_2.jpg,Blue_Triangle_Stripes_1.jpg,left,913.0250000017695,true,low,false
7wbaRHD2,3ac6mfv6anv2a7u5af0lkpxs80hhzh,374tnbha8f8h5uhxolqy4gcifptqyi,7wbaRHD2,2020-0188,2020-05-21,14:20:06,14:52:23,NA,incomplete,154,shape,1,right,Green_Circle_Stripes_2.jpg,Purple_Plus_Grid_2.jpg,Red_Circle_Dots_3.jpg,right,616.9050000025891,true,low,false
7wbaRHD2,3ac6mfv6anv2a7u5af0lkpxs80hhzh,374tnbha8f8h5uhxolqy4gcifptqyi,7wbaRHD2,2020-0188,2020-05-21,14:20:06,14:52:23,NA,incomplete,155,shape,1,left,Green_Plus_Grid_2.jpg,Blue_Plus_Dots_1.jpg,Red_Star_Chess_2.jpg,left,866.32999998983,true,low,false
7wbaRHD2,3ac6mfv6anv2a7u5af0lkpxs80hhzh,374tnbha8f8h5uhxolqy4gcifptqyi,7wbaRHD2,2020-0188,2020-05-21,14:20:06,14:52:23,NA,incomplete,156,shape,0,left,Purple_Star_Stripes_4.jpg,Red_Star_Chess_2.jpg,Blue_Plus_Grid_4.jpg,left,797.5650000006426,true,low,false
7wbaRHD2,3ac6mfv6anv2a7u5af0lkpxs80hhzh,374tnbha8f8h5uhxolqy4gcifptqyi,7wbaRHD2,2020-0188,2020-05-21,14:20:06,14:52:23,NA,incomplete,157,shape,1,right,Purple_Circle_Dots_1.jpg,Blue_Triangle_Grid_1.jpg,Green_Circle_Stripes_2.jpg,right,788.4250000061002,true,low,false
7wbaRHD2,3ac6mfv6anv2a7u5af0lkpxs80hhzh,374tnbha8f8h5uhxolqy4gcifptqyi,7wbaRHD2,2020-0188,2020-05-21,14:20:06,14:52:23,NA,incomplete,158,shape,1,left,Blue_Triangle_Stripes_3.jpg,Green_Triangle_Chess_4.jpg,Red_Circle_Dots_3.jpg,left,803.0100000032689,true,low,false
7wbaRHD2,3ac6mfv6anv2a7u5af0lkpxs80hhzh,374tnbha8f8h5uhxolqy4gcifptqyi,7wbaRHD2,2020-0188,2020-05-21,14:20:06,14:52:23,NA,incomplete,159,shape,0,left,Blue_Star_Chess_3.jpg,Green_Star_Stripes_2.jpg,Purple_Circle_Dots_3.jpg,left,725.3700000001118,true,low,false
7wbaRHD2,3ac6mfv6anv2a7u5af0lkpxs80hhzh,374tnbha8f8h5uhxolqy4gcifptqyi,7wbaRHD2,2020-0188,2020-05-21,14:20:06,14:52:23,NA,incomplete,160,number,1,right,Green_Triangle_Stripes_3.jpg,Purple_Triangle_Chess_1.jpg,Blue_Star_Grid_3.jpg,left,686.8299999914598,false,low,false
7wbaRHD2,3ac6mfv6anv2a7u5af0lkpxs80hhzh,374tnbha8f8h5uhxolqy4gcifptqyi,7wbaRHD2,2020-0188,2020-05-21,14:20:06,14:52:23,NA,incomplete,161,number,0,right,Red_Triangle_Stripes_1.jpg,Green_Triangle_Grid_2.jpg,Blue_Star_Dots_1.jpg,left,742.5550000043586,false,low,false
7wbaRHD2,3ac6mfv6anv2a7u5af0lkpxs80hhzh,374tnbha8f8h5uhxolqy4gcifptqyi,7wbaRHD2,2020-0188,2020-05-21,14:20:06,14:52:23,NA,incomplete,162,number,1,left,Purple_Triangle_Chess_4.jpg,Blue_Plus_Dots_4.jpg,Green_Triangle_Grid_2.jpg,right,652.0049999963958,false,low,false
7wbaRHD2,3ac6mfv6anv2a7u5af0lkpxs80hhzh,374tnbha8f8h5uhxolqy4gcifptqyi,7wbaRHD2,2020-0188,2020-05-21,14:20:06,14:52:23,NA,incomplete,163,number,1,left,Green_Circle_Dots_2.jpg,Red_Star_Grid_2.jpg,Purple_Circle_Chess_1.jpg,right,1083.8950000032783,false,low,false
7wbaRHD2,3ac6mfv6anv2a7u5af0lkpxs80hhzh,374tnbha8f8h5uhxolqy4gcifptqyi,7wbaRHD2,2020-0188,2020-05-21,14:20:06,14:52:23,NA,incomplete,164,number,0,right,Blue_Star_Dots_2.jpg,Green_Star_Grid_4.jpg,Red_Plus_Chess_2.jpg,right,1090.1849999937695,true,low,false
7wbaRHD2,3ac6mfv6anv2a7u5af0lkpxs80hhzh,374tnbha8f8h5uhxolqy4gcifptqyi,7wbaRHD2,2020-0188,2020-05-21,14:20:06,14:52:23,NA,incomplete,165,number,1,left,Blue_Plus_Chess_4.jpg,Green_Triangle_Grid_4.jpg,Red_Plus_Dots_3.jpg,left,1289.6900000050664,true,low,false
7wbaRHD2,3ac6mfv6anv2a7u5af0lkpxs80hhzh,374tnbha8f8h5uhxolqy4gcifptqyi,7wbaRHD2,2020-0188,2020-05-21,14:20:06,14:52:23,NA,incomplete,166,number,1,left,Red_Circle_Chess_4.jpg,Blue_Triangle_Grid_4.jpg,Purple_Circle_Dots_2.jpg,left,850.3300000012387,true,low,false
7wbaRHD2,3ac6mfv6anv2a7u5af0lkpxs80hhzh,374tnbha8f8h5uhxolqy4gcifptqyi,7wbaRHD2,2020-0188,2020-05-21,14:20:06,14:52:23,NA,incomplete,167,number,1,left,Purple_Plus_Grid_2.jpg,Blue_Triangle_Chess_2.jpg,Red_Plus_Dots_1.jpg,left,718.8299999977462,true,low,false
7wbaRHD2,3ac6mfv6anv2a7u5af0lkpxs80hhzh,374tnbha8f8h5uhxolqy4gcifptqyi,7wbaRHD2,2020-0188,2020-05-21,14:20:06,14:52:23,NA,incomplete,168,number,1,left,Blue_Plus_Dots_3.jpg,Red_Star_Chess_3.jpg,Purple_Plus_Grid_4.jpg,right,799.5550000050571,false,low,false
7wbaRHD2,3ac6mfv6anv2a7u5af0lkpxs80hhzh,374tnbha8f8h5uhxolqy4gcifptqyi,7wbaRHD2,2020-0188,2020-05-21,14:20:06,14:52:23,NA,incomplete,169,number,1,left,Purple_Star_Chess_2.jpg,Red_Triangle_Dots_2.jpg,Green_Star_Grid_4.jpg,left,826.7199999971781,true,low,false
7wbaRHD2,3ac6mfv6anv2a7u5af0lkpxs80hhzh,374tnbha8f8h5uhxolqy4gcifptqyi,7wbaRHD2,2020-0188,2020-05-21,14:20:06,14:52:23,NA,incomplete,170,number,0,left,Red_Plus_Grid_1.jpg,Green_Circle_Stripes_1.jpg,Blue_Plus_Dots_4.jpg,left,730.0350000006147,true,low,false
7wbaRHD2,3ac6mfv6anv2a7u5af0lkpxs80hhzh,374tnbha8f8h5uhxolqy4gcifptqyi,7wbaRHD2,2020-0188,2020-05-21,14:20:06,14:52:23,NA,incomplete,171,number,1,right,Blue_Triangle_Grid_1.jpg,Purple_Triangle_Dots_4.jpg,Green_Star_Chess_1.jpg,right,861.5099999876693,true,low,false
7wbaRHD2,3ac6mfv6anv2a7u5af0lkpxs80hhzh,374tnbha8f8h5uhxolqy4gcifptqyi,7wbaRHD2,2020-0188,2020-05-21,14:20:06,14:52:23,NA,incomplete,172,number,1,right,Purple_Circle_Chess_3.jpg,Green_Circle_Stripes_4.jpg,Blue_Star_Dots_3.jpg,right,722.9749999968335,true,low,false
7wbaRHD2,3ac6mfv6anv2a7u5af0lkpxs80hhzh,374tnbha8f8h5uhxolqy4gcifptqyi,7wbaRHD2,2020-0188,2020-05-21,14:20:06,14:52:23,NA,incomplete,173,number,1,right,Purple_Star_Chess_1.jpg,Red_Star_Stripes_3.jpg,Blue_Circle_Dots_1.jpg,right,702.9749999928754,true,low,false
7wbaRHD2,3ac6mfv6anv2a7u5af0lkpxs80hhzh,374tnbha8f8h5uhxolqy4gcifptqyi,7wbaRHD2,2020-0188,2020-05-21,14:20:06,14:52:23,NA,incomplete,174,number,0,right,Blue_Plus_Chess_1.jpg,Red_Plus_Dots_2.jpg,Purple_Star_Grid_1.jpg,right,789.2350000038277,true,low,false
7wbaRHD2,3ac6mfv6anv2a7u5af0lkpxs80hhzh,374tnbha8f8h5uhxolqy4gcifptqyi,7wbaRHD2,2020-0188,2020-05-21,14:20:06,14:52:23,NA,incomplete,175,number,1,right,Purple_Plus_Chess_2.jpg,Red_Plus_Dots_1.jpg,Blue_Triangle_Stripes_2.jpg,right,886.7500000051223,true,low,false
7wbaRHD2,3ac6mfv6anv2a7u5af0lkpxs80hhzh,374tnbha8f8h5uhxolqy4gcifptqyi,7wbaRHD2,2020-0188,2020-05-21,14:20:06,14:52:23,NA,incomplete,176,number,1,right,Purple_Plus_Grid_3.jpg,Blue_Plus_Stripes_4.jpg,Green_Star_Dots_3.jpg,right,758.6900000025053,true,low,false
7wbaRHD2,3ac6mfv6anv2a7u5af0lkpxs80hhzh,374tnbha8f8h5uhxolqy4gcifptqyi,7wbaRHD2,2020-0188,2020-05-21,14:20:06,14:52:23,NA,incomplete,177,number,1,left,Green_Triangle_Grid_4.jpg,Blue_Circle_Chess_4.jpg,Purple_Triangle_Stripes_2.jpg,left,730.3700000047684,true,low,false
7wbaRHD2,3ac6mfv6anv2a7u5af0lkpxs80hhzh,374tnbha8f8h5uhxolqy4gcifptqyi,7wbaRHD2,2020-0188,2020-05-21,14:20:06,14:52:23,NA,incomplete,178,number,1,right,Red_Star_Chess_4.jpg,Blue_Star_Dots_2.jpg,Green_Plus_Stripes_4.jpg,right,681.8550000023097,true,low,false
7wbaRHD2,3ac6mfv6anv2a7u5af0lkpxs80hhzh,374tnbha8f8h5uhxolqy4gcifptqyi,7wbaRHD2,2020-0188,2020-05-21,14:20:06,14:52:23,NA,incomplete,179,number,1,right,Green_Triangle_Chess_4.jpg,Purple_Triangle_Dots_2.jpg,Blue_Plus_Stripes_4.jpg,right,674.4199999957345,true,low,false
7wbaRHD2,3ac6mfv6anv2a7u5af0lkpxs80hhzh,374tnbha8f8h5uhxolqy4gcifptqyi,7wbaRHD2,2020-0188,2020-05-21,14:20:06,14:52:23,NA,incomplete,180,shape,1,right,Green_Circle_Chess_3.jpg,Purple_Plus_Dots_3.jpg,Blue_Circle_Grid_1.jpg,left,872.3549999995157,false,low,false
7wbaRHD2,3ac6mfv6anv2a7u5af0lkpxs80hhzh,374tnbha8f8h5uhxolqy4gcifptqyi,7wbaRHD2,2020-0188,2020-05-21,14:20:06,14:52:23,NA,incomplete,181,shape,1,left,Blue_Star_Stripes_4.jpg,Purple_Star_Dots_1.jpg,Green_Triangle_Chess_4.jpg,right,696.6499999980442,false,low,false
7wbaRHD2,3ac6mfv6anv2a7u5af0lkpxs80hhzh,374tnbha8f8h5uhxolqy4gcifptqyi,7wbaRHD2,2020-0188,2020-05-21,14:20:06,14:52:23,NA,incomplete,182,shape,1,right,Purple_Plus_Grid_1.jpg,Red_Circle_Stripes_1.jpg,Green_Plus_Dots_2.jpg,right,1639.0199999876786,true,low,false
7wbaRHD2,3ac6mfv6anv2a7u5af0lkpxs80hhzh,374tnbha8f8h5uhxolqy4gcifptqyi,7wbaRHD2,2020-0188,2020-05-21,14:20:06,14:52:23,NA,incomplete,183,shape,1,left,Purple_Triangle_Grid_4.jpg,Red_Triangle_Stripes_3.jpg,Green_Plus_Dots_4.jpg,left,749.5150000031572,true,low,false
7wbaRHD2,3ac6mfv6anv2a7u5af0lkpxs80hhzh,374tnbha8f8h5uhxolqy4gcifptqyi,7wbaRHD2,2020-0188,2020-05-21,14:20:06,14:52:23,NA,incomplete,184,shape,0,left,Green_Circle_Stripes_1.jpg,Red_Circle_Chess_3.jpg,Purple_Plus_Dots_1.jpg,left,771.3499999954365,true,low,false
7wbaRHD2,3ac6mfv6anv2a7u5af0lkpxs80hhzh,374tnbha8f8h5uhxolqy4gcifptqyi,7wbaRHD2,2020-0188,2020-05-21,14:20:06,14:52:23,NA,incomplete,185,shape,1,left,Green_Triangle_Chess_1.jpg,Blue_Triangle_Grid_2.jpg,Red_Star_Dots_1.jpg,left,752.6849999993574,true,low,false
7wbaRHD2,3ac6mfv6anv2a7u5af0lkpxs80hhzh,374tnbha8f8h5uhxolqy4gcifptqyi,7wbaRHD2,2020-0188,2020-05-21,14:20:06,14:52:23,NA,incomplete,186,shape,1,left,Red_Star_Dots_2.jpg,Purple_Star_Chess_3.jpg,Green_Triangle_Stripes_2.jpg,left,784.7699999983888,true,low,false
7wbaRHD2,3ac6mfv6anv2a7u5af0lkpxs80hhzh,374tnbha8f8h5uhxolqy4gcifptqyi,7wbaRHD2,2020-0188,2020-05-21,14:20:06,14:52:23,NA,incomplete,187,shape,1,left,Blue_Star_Stripes_4.jpg,Green_Star_Grid_1.jpg,Purple_Plus_Dots_4.jpg,left,707.0600000007544,true,low,false
7wbaRHD2,3ac6mfv6anv2a7u5af0lkpxs80hhzh,374tnbha8f8h5uhxolqy4gcifptqyi,7wbaRHD2,2020-0188,2020-05-21,14:20:06,14:52:23,NA,incomplete,188,shape,1,left,Purple_Circle_Stripes_3.jpg,Green_Circle_Grid_4.jpg,Blue_Star_Dots_3.jpg,left,695.305000001099,true,low,false
7wbaRHD2,3ac6mfv6anv2a7u5af0lkpxs80hhzh,374tnbha8f8h5uhxolqy4gcifptqyi,7wbaRHD2,2020-0188,2020-05-21,14:20:06,14:52:23,NA,incomplete,189,shape,1,left,Purple_Circle_Grid_1.jpg,Green_Circle_Stripes_3.jpg,Blue_Triangle_Chess_1.jpg,left,657.6000000061467,true,low,false
7wbaRHD2,3ac6mfv6anv2a7u5af0lkpxs80hhzh,374tnbha8f8h5uhxolqy4gcifptqyi,7wbaRHD2,2020-0188,2020-05-21,14:20:06,14:52:23,NA,incomplete,190,shape,0,right,Red_Star_Chess_4.jpg,Purple_Plus_Dots_4.jpg,Blue_Star_Grid_3.jpg,right,799.9049999925774,true,low,false
7wbaRHD2,3ac6mfv6anv2a7u5af0lkpxs80hhzh,374tnbha8f8h5uhxolqy4gcifptqyi,7wbaRHD2,2020-0188,2020-05-21,14:20:06,14:52:23,NA,incomplete,191,shape,1,left,Blue_Star_Dots_3.jpg,Red_Star_Chess_2.jpg,Green_Plus_Grid_3.jpg,left,723.5599999984261,true,low,false
7wbaRHD2,3ac6mfv6anv2a7u5af0lkpxs80hhzh,374tnbha8f8h5uhxolqy4gcifptqyi,7wbaRHD2,2020-0188,2020-05-21,14:20:06,14:52:23,NA,incomplete,192,shape,1,right,Blue_Star_Dots_1.jpg,Red_Plus_Chess_1.jpg,Green_Star_Stripes_3.jpg,right,823.3049999978393,true,low,false
7wbaRHD2,3ac6mfv6anv2a7u5af0lkpxs80hhzh,374tnbha8f8h5uhxolqy4gcifptqyi,7wbaRHD2,2020-0188,2020-05-21,14:20:06,14:52:23,NA,incomplete,193,shape,1,left,Blue_Plus_Chess_4.jpg,Red_Plus_Stripes_3.jpg,Green_Star_Grid_4.jpg,left,736.5799999970477,true,low,false
7wbaRHD2,3ac6mfv6anv2a7u5af0lkpxs80hhzh,374tnbha8f8h5uhxolqy4gcifptqyi,7wbaRHD2,2020-0188,2020-05-21,14:20:06,14:52:23,NA,incomplete,194,shape,1,right,Purple_Star_Stripes_3.jpg,Green_Plus_Dots_3.jpg,Blue_Star_Grid_2.jpg,right,788.8649999951012,true,low,false
7wbaRHD2,3ac6mfv6anv2a7u5af0lkpxs80hhzh,374tnbha8f8h5uhxolqy4gcifptqyi,7wbaRHD2,2020-0188,2020-05-21,14:20:06,14:52:23,NA,incomplete,195,shape,1,right,Purple_Circle_Chess_3.jpg,Blue_Star_Dots_3.jpg,Red_Circle_Stripes_1.jpg,right,645.6899999903981,true,low,false
7wbaRHD2,3ac6mfv6anv2a7u5af0lkpxs80hhzh,374tnbha8f8h5uhxolqy4gcifptqyi,7wbaRHD2,2020-0188,2020-05-21,14:20:06,14:52:23,NA,incomplete,196,shape,1,left,Green_Plus_Grid_4.jpg,Purple_Plus_Dots_1.jpg,Blue_Circle_Chess_4.jpg,left,767.3999999968801,true,low,false
7wbaRHD2,3ac6mfv6anv2a7u5af0lkpxs80hhzh,374tnbha8f8h5uhxolqy4gcifptqyi,7wbaRHD2,2020-0188,2020-05-21,14:20:06,14:52:23,NA,incomplete,197,shape,1,left,Red_Circle_Dots_4.jpg,Purple_Circle_Stripes_3.jpg,Green_Star_Grid_4.jpg,left,660.2300000083633,true,low,false
7wbaRHD2,3ac6mfv6anv2a7u5af0lkpxs80hhzh,374tnbha8f8h5uhxolqy4gcifptqyi,7wbaRHD2,2020-0188,2020-05-21,14:20:06,14:52:23,NA,incomplete,198,shape,0,left,Purple_Plus_Chess_2.jpg,Red_Plus_Grid_4.jpg,Blue_Circle_Stripes_2.jpg,left,689.8649999932386,true,low,false
7wbaRHD2,3ac6mfv6anv2a7u5af0lkpxs80hhzh,374tnbha8f8h5uhxolqy4gcifptqyi,7wbaRHD2,2020-0188,2020-05-21,14:20:06,14:52:23,NA,incomplete,199,shape,1,right,Blue_Circle_Chess_3.jpg,Green_Plus_Grid_3.jpg,Purple_Circle_Stripes_1.jpg,right,625.6300000096671,true,low,false
7wbaRHD2,3ac6mfv6anv2a7u5af0lkpxs80hhzh,374tnbha8f8h5uhxolqy4gcifptqyi,7wbaRHD2,2020-0188,2020-05-21,14:20:06,14:52:23,NA,incomplete,200,number,0,left,Purple_Circle_Chess_4.jpg,Blue_Star_Grid_4.jpg,Green_Circle_Dots_1.jpg,right,556.8849999983795,false,low,false
7wbaRHD2,3ac6mfv6anv2a7u5af0lkpxs80hhzh,374tnbha8f8h5uhxolqy4gcifptqyi,7wbaRHD2,2020-0188,2020-05-21,14:20:06,14:52:23,NA,incomplete,201,number,1,right,Red_Circle_Stripes_4.jpg,Green_Circle_Dots_1.jpg,Blue_Plus_Grid_4.jpg,left,616.6650000088848,false,low,false
7wbaRHD2,3ac6mfv6anv2a7u5af0lkpxs80hhzh,374tnbha8f8h5uhxolqy4gcifptqyi,7wbaRHD2,2020-0188,2020-05-21,14:20:06,14:52:23,NA,incomplete,202,number,0,left,Purple_Star_Dots_3.jpg,Red_Plus_Stripes_3.jpg,Blue_Star_Grid_2.jpg,right,749.4949999963865,false,low,false
7wbaRHD2,3ac6mfv6anv2a7u5af0lkpxs80hhzh,374tnbha8f8h5uhxolqy4gcifptqyi,7wbaRHD2,2020-0188,2020-05-21,14:20:06,14:52:23,NA,incomplete,203,number,1,right,Red_Circle_Grid_4.jpg,Purple_Circle_Chess_2.jpg,Green_Star_Dots_4.jpg,left,830.1500000087544,false,low,false
7wbaRHD2,3ac6mfv6anv2a7u5af0lkpxs80hhzh,374tnbha8f8h5uhxolqy4gcifptqyi,7wbaRHD2,2020-0188,2020-05-21,14:20:06,14:52:23,NA,incomplete,204,number,1,left,Green_Plus_Chess_2.jpg,Blue_Circle_Grid_2.jpg,Purple_Plus_Dots_4.jpg,right,687.4949999912642,false,low,false
7wbaRHD2,3ac6mfv6anv2a7u5af0lkpxs80hhzh,374tnbha8f8h5uhxolqy4gcifptqyi,7wbaRHD2,2020-0188,2020-05-21,14:20:06,14:52:23,NA,incomplete,205,number,0,right,Purple_Plus_Dots_1.jpg,Green_Plus_Chess_3.jpg,Red_Circle_Stripes_1.jpg,right,1635.695000004489,true,low,false
7wbaRHD2,3ac6mfv6anv2a7u5af0lkpxs80hhzh,374tnbha8f8h5uhxolqy4gcifptqyi,7wbaRHD2,2020-0188,2020-05-21,14:20:06,14:52:23,NA,incomplete,206,number,1,right,Purple_Star_Dots_2.jpg,Green_Star_Chess_3.jpg,Red_Triangle_Grid_2.jpg,right,800.9750000054482,true,low,false
7wbaRHD2,3ac6mfv6anv2a7u5af0lkpxs80hhzh,374tnbha8f8h5uhxolqy4gcifptqyi,7wbaRHD2,2020-0188,2020-05-21,14:20:06,14:52:23,NA,incomplete,207,number,1,right,Blue_Star_Grid_1.jpg,Purple_Star_Dots_4.jpg,Green_Plus_Stripes_1.jpg,right,738.7400000006892,true,low,false
7wbaRHD2,3ac6mfv6anv2a7u5af0lkpxs80hhzh,374tnbha8f8h5uhxolqy4gcifptqyi,7wbaRHD2,2020-0188,2020-05-21,14:20:06,14:52:23,NA,incomplete,208,number,1,right,Blue_Plus_Grid_1.jpg,Green_Plus_Stripes_4.jpg,Purple_Circle_Chess_1.jpg,right,651.4049999967683,true,low,false
7wbaRHD2,3ac6mfv6anv2a7u5af0lkpxs80hhzh,374tnbha8f8h5uhxolqy4gcifptqyi,7wbaRHD2,2020-0188,2020-05-21,14:20:06,14:52:23,NA,incomplete,209,number,1,left,Red_Circle_Dots_3.jpg,Purple_Plus_Grid_3.jpg,Green_Circle_Chess_4.jpg,left,887.589999998454,true,low,false
7wbaRHD2,3ac6mfv6anv2a7u5af0lkpxs80hhzh,374tnbha8f8h5uhxolqy4gcifptqyi,7wbaRHD2,2020-0188,2020-05-21,14:20:06,14:52:23,NA,incomplete,210,number,0,left,Red_Circle_Grid_1.jpg,Green_Triangle_Chess_1.jpg,Blue_Circle_Dots_2.jpg,left,1127.1649999981746,true,low,false
7wbaRHD2,3ac6mfv6anv2a7u5af0lkpxs80hhzh,374tnbha8f8h5uhxolqy4gcifptqyi,7wbaRHD2,2020-0188,2020-05-21,14:20:06,14:52:23,NA,incomplete,211,number,1,right,Purple_Star_Stripes_1.jpg,Blue_Star_Grid_2.jpg,Green_Triangle_Chess_1.jpg,right,749.7699999948964,true,low,false
7wbaRHD2,3ac6mfv6anv2a7u5af0lkpxs80hhzh,374tnbha8f8h5uhxolqy4gcifptqyi,7wbaRHD2,2020-0188,2020-05-21,14:20:06,14:52:23,NA,incomplete,212,number,1,right,Blue_Circle_Grid_4.jpg,Green_Circle_Dots_3.jpg,Red_Triangle_Stripes_4.jpg,left,858.4850000045262,false,low,false
7wbaRHD2,3ac6mfv6anv2a7u5af0lkpxs80hhzh,374tnbha8f8h5uhxolqy4gcifptqyi,7wbaRHD2,2020-0188,2020-05-21,14:20:06,14:52:23,NA,incomplete,213,number,1,right,Red_Star_Grid_4.jpg,Purple_Star_Dots_3.jpg,Blue_Plus_Stripes_4.jpg,right,754.3349999904167,true,low,false
7wbaRHD2,3ac6mfv6anv2a7u5af0lkpxs80hhzh,374tnbha8f8h5uhxolqy4gcifptqyi,7wbaRHD2,2020-0188,2020-05-21,14:20:06,14:52:23,NA,incomplete,214,number,1,right,Green_Circle_Chess_4.jpg,Blue_Circle_Dots_3.jpg,Red_Triangle_Stripes_4.jpg,right,865.2650000003632,true,low,false
7wbaRHD2,3ac6mfv6anv2a7u5af0lkpxs80hhzh,374tnbha8f8h5uhxolqy4gcifptqyi,7wbaRHD2,2020-0188,2020-05-21,14:20:06,14:52:23,NA,incomplete,215,number,1,left,Blue_Star_Dots_4.jpg,Purple_Circle_Stripes_4.jpg,Green_Star_Grid_2.jpg,left,833.0500000012107,true,low,false
7wbaRHD2,3ac6mfv6anv2a7u5af0lkpxs80hhzh,374tnbha8f8h5uhxolqy4gcifptqyi,7wbaRHD2,2020-0188,2020-05-21,14:20:06,14:52:23,NA,incomplete,216,number,1,right,Red_Star_Grid_4.jpg,Green_Star_Chess_2.jpg,Blue_Plus_Dots_4.jpg,right,642.0599999984261,true,low,false
7wbaRHD2,3ac6mfv6anv2a7u5af0lkpxs80hhzh,374tnbha8f8h5uhxolqy4gcifptqyi,7wbaRHD2,2020-0188,2020-05-21,14:20:06,14:52:23,NA,incomplete,217,number,1,left,Blue_Star_Chess_1.jpg,Red_Circle_Grid_1.jpg,Green_Star_Dots_3.jpg,left,640.5350000131875,true,low,false
7wbaRHD2,3ac6mfv6anv2a7u5af0lkpxs80hhzh,374tnbha8f8h5uhxolqy4gcifptqyi,7wbaRHD2,2020-0188,2020-05-21,14:20:06,14:52:23,NA,incomplete,218,number,1,right,Purple_Circle_Chess_3.jpg,Red_Circle_Dots_4.jpg,Green_Plus_Grid_3.jpg,right,781.224999998929,true,low,false
7wbaRHD2,3ac6mfv6anv2a7u5af0lkpxs80hhzh,374tnbha8f8h5uhxolqy4gcifptqyi,7wbaRHD2,2020-0188,2020-05-21,14:20:06,14:52:23,NA,incomplete,219,number,1,left,Red_Triangle_Chess_2.jpg,Blue_Plus_Dots_2.jpg,Green_Triangle_Stripes_1.jpg,left,820.5100000048988,true,low,false
7wbaRHD2,3ac6mfv6anv2a7u5af0lkpxs80hhzh,374tnbha8f8h5uhxolqy4gcifptqyi,7wbaRHD2,2020-0188,2020-05-21,14:20:06,14:52:23,NA,incomplete,220,shape,1,left,Green_Triangle_Chess_2.jpg,Purple_Triangle_Grid_3.jpg,Blue_Circle_Dots_2.jpg,right,671.9850000080187,false,low,false
7wbaRHD2,3ac6mfv6anv2a7u5af0lkpxs80hhzh,374tnbha8f8h5uhxolqy4gcifptqyi,7wbaRHD2,2020-0188,2020-05-21,14:20:06,14:52:23,NA,incomplete,221,shape,1,right,Green_Plus_Dots_4.jpg,Purple_Circle_Stripes_4.jpg,Red_Plus_Chess_2.jpg,left,818.9800000111572,false,low,false
7wbaRHD2,3ac6mfv6anv2a7u5af0lkpxs80hhzh,374tnbha8f8h5uhxolqy4gcifptqyi,7wbaRHD2,2020-0188,2020-05-21,14:20:06,14:52:23,NA,incomplete,222,shape,1,left,Purple_Plus_Dots_1.jpg,Green_Plus_Grid_2.jpg,Red_Circle_Stripes_1.jpg,right,690.4250000079628,false,low,false
7wbaRHD2,3ac6mfv6anv2a7u5af0lkpxs80hhzh,374tnbha8f8h5uhxolqy4gcifptqyi,7wbaRHD2,2020-0188,2020-05-21,14:20:06,14:52:23,NA,incomplete,223,shape,1,right,Green_Circle_Stripes_1.jpg,Blue_Star_Dots_1.jpg,Purple_Circle_Chess_4.jpg,right,719.8349999962375,true,low,false
7wbaRHD2,3ac6mfv6anv2a7u5af0lkpxs80hhzh,374tnbha8f8h5uhxolqy4gcifptqyi,7wbaRHD2,2020-0188,2020-05-21,14:20:06,14:52:23,NA,incomplete,224,shape,1,right,Blue_Star_Chess_2.jpg,Red_Triangle_Stripes_2.jpg,Purple_Star_Grid_1.jpg,right,626.6500000057276,true,low,false
7wbaRHD2,3ac6mfv6anv2a7u5af0lkpxs80hhzh,374tnbha8f8h5uhxolqy4gcifptqyi,7wbaRHD2,2020-0188,2020-05-21,14:20:06,14:52:23,NA,incomplete,225,shape,1,left,Red_Triangle_Grid_4.jpg,Purple_Triangle_Stripes_2.jpg,Blue_Circle_Dots_4.jpg,left,709.8300000070594,true,low,false
7wbaRHD2,3ac6mfv6anv2a7u5af0lkpxs80hhzh,374tnbha8f8h5uhxolqy4gcifptqyi,7wbaRHD2,2020-0188,2020-05-21,14:20:06,14:52:23,NA,incomplete,226,shape,0,left,Red_Triangle_Grid_3.jpg,Green_Triangle_Chess_2.jpg,Blue_Circle_Dots_3.jpg,left,673.6349999993108,true,low,false
7wbaRHD2,3ac6mfv6anv2a7u5af0lkpxs80hhzh,374tnbha8f8h5uhxolqy4gcifptqyi,7wbaRHD2,2020-0188,2020-05-21,14:20:06,14:52:23,NA,incomplete,227,shape,1,right,Blue_Plus_Stripes_3.jpg,Purple_Circle_Dots_3.jpg,Red_Plus_Grid_1.jpg,right,649.730000004638,true,low,false
7wbaRHD2,3ac6mfv6anv2a7u5af0lkpxs80hhzh,374tnbha8f8h5uhxolqy4gcifptqyi,7wbaRHD2,2020-0188,2020-05-21,14:20:06,14:52:23,NA,incomplete,228,shape,0,right,Red_Star_Chess_4.jpg,Purple_Triangle_Grid_4.jpg,Green_Star_Stripes_2.jpg,right,730.4399999992456,true,low,false
7wbaRHD2,3ac6mfv6anv2a7u5af0lkpxs80hhzh,374tnbha8f8h5uhxolqy4gcifptqyi,7wbaRHD2,2020-0188,2020-05-21,14:20:06,14:52:23,NA,incomplete,229,shape,1,left,Blue_Star_Chess_3.jpg,Purple_Star_Grid_1.jpg,Green_Plus_Stripes_3.jpg,left,729.9999999960419,true,low,false
7wbaRHD2,3ac6mfv6anv2a7u5af0lkpxs80hhzh,374tnbha8f8h5uhxolqy4gcifptqyi,7wbaRHD2,2020-0188,2020-05-21,14:20:06,14:52:23,NA,incomplete,230,shape,0,right,Green_Star_Chess_3.jpg,Blue_Circle_Dots_3.jpg,Purple_Star_Grid_4.jpg,right,626.0250000050291,true,low,false
7wbaRHD2,3ac6mfv6anv2a7u5af0lkpxs80hhzh,374tnbha8f8h5uhxolqy4gcifptqyi,7wbaRHD2,2020-0188,2020-05-21,14:20:06,14:52:23,NA,incomplete,231,shape,1,left,Green_Star_Stripes_2.jpg,Red_Star_Dots_4.jpg,Blue_Plus_Chess_2.jpg,left,700.1250000030268,true,low,false
7wbaRHD2,3ac6mfv6anv2a7u5af0lkpxs80hhzh,374tnbha8f8h5uhxolqy4gcifptqyi,7wbaRHD2,2020-0188,2020-05-21,14:20:06,14:52:23,NA,incomplete,232,shape,1,right,Blue_Circle_Dots_3.jpg,Purple_Plus_Stripes_3.jpg,Green_Circle_Chess_1.jpg,right,721.8299999949522,true,low,false
7wbaRHD2,3ac6mfv6anv2a7u5af0lkpxs80hhzh,374tnbha8f8h5uhxolqy4gcifptqyi,7wbaRHD2,2020-0188,2020-05-21,14:20:06,14:52:23,NA,incomplete,233,shape,1,left,Purple_Star_Grid_4.jpg,Red_Star_Stripes_3.jpg,Green_Plus_Chess_4.jpg,left,692.1299999956973,true,low,false
7wbaRHD2,3ac6mfv6anv2a7u5af0lkpxs80hhzh,374tnbha8f8h5uhxolqy4gcifptqyi,7wbaRHD2,2020-0188,2020-05-21,14:20:06,14:52:23,NA,incomplete,234,shape,1,right,Green_Circle_Stripes_3.jpg,Purple_Star_Chess_3.jpg,Red_Circle_Grid_2.jpg,right,580.9250000019092,true,low,false
7wbaRHD2,3ac6mfv6anv2a7u5af0lkpxs80hhzh,374tnbha8f8h5uhxolqy4gcifptqyi,7wbaRHD2,2020-0188,2020-05-21,14:20:06,14:52:23,NA,incomplete,235,shape,1,right,Red_Star_Chess_3.jpg,Purple_Plus_Grid_3.jpg,Blue_Star_Dots_1.jpg,right,840.4750000042841,true,low,false
7wbaRHD2,3ac6mfv6anv2a7u5af0lkpxs80hhzh,374tnbha8f8h5uhxolqy4gcifptqyi,7wbaRHD2,2020-0188,2020-05-21,14:20:06,14:52:23,NA,incomplete,236,shape,1,left,Red_Plus_Chess_4.jpg,Blue_Plus_Grid_3.jpg,Green_Triangle_Stripes_4.jpg,left,810.2450000005774,true,low,false
7wbaRHD2,3ac6mfv6anv2a7u5af0lkpxs80hhzh,374tnbha8f8h5uhxolqy4gcifptqyi,7wbaRHD2,2020-0188,2020-05-21,14:20:06,14:52:23,NA,incomplete,237,shape,0,right,Red_Triangle_Stripes_4.jpg,Blue_Circle_Dots_4.jpg,Green_Triangle_Grid_1.jpg,right,643.8700000001118,true,low,false
7wbaRHD2,3ac6mfv6anv2a7u5af0lkpxs80hhzh,374tnbha8f8h5uhxolqy4gcifptqyi,7wbaRHD2,2020-0188,2020-05-21,14:20:06,14:52:23,NA,incomplete,238,shape,1,left,Blue_Plus_Chess_3.jpg,Green_Plus_Stripes_1.jpg,Red_Triangle_Grid_3.jpg,left,791.4149999995716,true,low,false
7wbaRHD2,3ac6mfv6anv2a7u5af0lkpxs80hhzh,374tnbha8f8h5uhxolqy4gcifptqyi,7wbaRHD2,2020-0188,2020-05-21,14:20:06,14:52:23,NA,incomplete,239,shape,1,left,Green_Star_Chess_1.jpg,Blue_Star_Dots_3.jpg,Red_Triangle_Grid_1.jpg,left,776.110000006156,true,low,false
7wbaRHD2,3ac6mfv6anv2a7u5af0lkpxs80hhzh,374tnbha8f8h5uhxolqy4gcifptqyi,7wbaRHD2,2020-0188,2020-05-21,14:20:06,14:52:23,NA,NA,instruction example,filling,NA,NA,Purple_Circle_Chess_2.jpg,Red_Triangle_Chess_1.jpg,Purple_Plus_Dots_4.jpg,NA,NA,NA,NA,undefined
7wbaRHD2,3ac6mfv6anv2a7u5af0lkpxs80hhzh,374tnbha8f8h5uhxolqy4gcifptqyi,7wbaRHD2,2020-0188,2020-05-21,14:20:06,14:52:23,NA,NA,instruction example,filling,NA,NA,Green_Circle_Dots_4.jpg,Green_Triangle_Chess_1.jpg,Red_Star_Dots_2.jpg,NA,NA,NA,NA,undefined
7wbaRHD2,3ac6mfv6anv2a7u5af0lkpxs80hhzh,374tnbha8f8h5uhxolqy4gcifptqyi,7wbaRHD2,2020-0188,2020-05-21,14:20:06,14:52:23,NA,NA,instruction example,filling,NA,NA,Purple_Circle_Dots_3.jpg,Green_Star_Stripes_3.jpg,Red_Circle_Grid_1.jpg,NA,NA,NA,NA,undefined
7wbaRHD2,3ac6mfv6anv2a7u5af0lkpxs80hhzh,374tnbha8f8h5uhxolqy4gcifptqyi,7wbaRHD2,2020-0188,2020-05-21,14:20:06,14:52:23,NA,NA,instruction example,filling,NA,NA,Blue_Circle_Chess_3.jpg,Purple_Circle_Stripes_4.jpg,Green_Plus_Grid_3.jpg,NA,NA,NA,NA,undefined
7wbaRHD2,3ac6mfv6anv2a7u5af0lkpxs80hhzh,374tnbha8f8h5uhxolqy4gcifptqyi,7wbaRHD2,2020-0188,2020-05-21,14:20:06,14:52:23,1913312.7050000038,1937167.180000004,NA,NA,NA,NA,NA,NA,NA,NA,NA,NA,NA,undefined
