workerId,hitId,assignmentId,subject,studyid,exp_date,exp_start,exp_end,time_start,time_end,trial,type,reward_validity,answer,image_top,image_left,image_right,response,response_time,response_acc,volatility,practice
EICX8zv5,3axfspqoztbswwyvx39ztaxp9nrfjw,379j5ii41st88sktwf68grl8n71el2,EICX8zv5,2020-0188,2020-05-21,13:43:46,14:08:24,NA,incomplete,0,filling,1,left,Green_Circle_Grid_2.jpg,Purple_Plus_Grid_1.jpg,Red_Star_Dots_2.jpg,right,1616.200000000419,false,NA,true
EICX8zv5,3axfspqoztbswwyvx39ztaxp9nrfjw,379j5ii41st88sktwf68grl8n71el2,EICX8zv5,2020-0188,2020-05-21,13:43:46,14:08:24,NA,incomplete,1,filling,1,right,Green_Star_Dots_1.jpg,Blue_Triangle_Chess_1.jpg,Purple_Plus_Dots_3.jpg,left,1008.6050000027753,false,NA,true
EICX8zv5,3axfspqoztbswwyvx39ztaxp9nrfjw,379j5ii41st88sktwf68grl8n71el2,EICX8zv5,2020-0188,2020-05-21,13:43:46,14:08:24,NA,incomplete,2,filling,1,right,Green_Triangle_Chess_3.jpg,Blue_Plus_Stripes_3.jpg,Purple_Star_Chess_2.jpg,right,1252.2449999997625,true,NA,true
EICX8zv5,3axfspqoztbswwyvx39ztaxp9nrfjw,379j5ii41st88sktwf68grl8n71el2,EICX8zv5,2020-0188,2020-05-21,13:43:46,14:08:24,NA,incomplete,3,filling,1,right,Red_Plus_Dots_4.jpg,Green_Triangle_Stripes_4.jpg,Purple_Circle_Dots_3.jpg,right,927.9649999989197,true,NA,true
EICX8zv5,3axfspqoztbswwyvx39ztaxp9nrfjw,379j5ii41st88sktwf68grl8n71el2,EICX8zv5,2020-0188,2020-05-21,13:43:46,14:08:24,NA,incomplete,4,filling,0,left,Red_Plus_Grid_1.jpg,Green_Circle_Grid_4.jpg,Blue_Star_Chess_1.jpg,left,966.2050000006566,true,NA,true
EICX8zv5,3axfspqoztbswwyvx39ztaxp9nrfjw,379j5ii41st88sktwf68grl8n71el2,EICX8zv5,2020-0188,2020-05-21,13:43:46,14:08:24,NA,incomplete,5,filling,1,left,Blue_Triangle_Stripes_3.jpg,Red_Star_Stripes_2.jpg,Purple_Circle_Grid_3.jpg,left,1290.5200000022305,true,NA,true
EICX8zv5,3axfspqoztbswwyvx39ztaxp9nrfjw,379j5ii41st88sktwf68grl8n71el2,EICX8zv5,2020-0188,2020-05-21,13:43:46,14:08:24,NA,incomplete,6,filling,1,left,Purple_Star_Stripes_3.jpg,Blue_Plus_Stripes_1.jpg,Green_Triangle_Grid_3.jpg,left,1121.7199999992736,true,NA,true
EICX8zv5,3axfspqoztbswwyvx39ztaxp9nrfjw,379j5ii41st88sktwf68grl8n71el2,EICX8zv5,2020-0188,2020-05-21,13:43:46,14:08:24,NA,incomplete,7,filling,1,right,Green_Triangle_Grid_3.jpg,Purple_Star_Stripes_3.jpg,Red_Plus_Grid_2.jpg,right,891.8049999992363,true,NA,true
EICX8zv5,3axfspqoztbswwyvx39ztaxp9nrfjw,379j5ii41st88sktwf68grl8n71el2,EICX8zv5,2020-0188,2020-05-21,13:43:46,14:08:24,NA,incomplete,8,filling,0,left,Green_Triangle_Stripes_1.jpg,Blue_Plus_Stripes_2.jpg,Red_Circle_Grid_1.jpg,left,936.2450000008103,true,NA,true
EICX8zv5,3axfspqoztbswwyvx39ztaxp9nrfjw,379j5ii41st88sktwf68grl8n71el2,EICX8zv5,2020-0188,2020-05-21,13:43:46,14:08:24,NA,incomplete,9,filling,1,right,Purple_Triangle_Grid_4.jpg,Green_Plus_Chess_4.jpg,Red_Circle_Grid_2.jpg,right,1085.7600000017555,true,NA,true
EICX8zv5,3axfspqoztbswwyvx39ztaxp9nrfjw,379j5ii41st88sktwf68grl8n71el2,EICX8zv5,2020-0188,2020-05-21,13:43:46,14:08:24,NA,incomplete,10,filling,0,left,Purple_Plus_Dots_4.jpg,Blue_Star_Dots_1.jpg,Red_Triangle_Stripes_4.jpg,left,1141.8899999989662,true,NA,true
EICX8zv5,3axfspqoztbswwyvx39ztaxp9nrfjw,379j5ii41st88sktwf68grl8n71el2,EICX8zv5,2020-0188,2020-05-21,13:43:46,14:08:24,NA,incomplete,11,filling,1,left,Green_Circle_Grid_4.jpg,Red_Plus_Grid_1.jpg,Purple_Star_Chess_4.jpg,left,1103.3300000017043,true,NA,true
EICX8zv5,3axfspqoztbswwyvx39ztaxp9nrfjw,379j5ii41st88sktwf68grl8n71el2,EICX8zv5,2020-0188,2020-05-21,13:43:46,14:08:24,NA,incomplete,12,filling,0,right,Red_Circle_Chess_1.jpg,Blue_Star_Dots_1.jpg,Green_Triangle_Chess_3.jpg,right,900.690000002156,true,NA,true
EICX8zv5,3axfspqoztbswwyvx39ztaxp9nrfjw,379j5ii41st88sktwf68grl8n71el2,EICX8zv5,2020-0188,2020-05-21,13:43:46,14:08:24,NA,incomplete,13,filling,1,right,Purple_Triangle_Grid_3.jpg,Red_Star_Dots_3.jpg,Blue_Circle_Grid_2.jpg,right,994.9600000000792,true,NA,true
EICX8zv5,3axfspqoztbswwyvx39ztaxp9nrfjw,379j5ii41st88sktwf68grl8n71el2,EICX8zv5,2020-0188,2020-05-21,13:43:46,14:08:24,NA,incomplete,14,filling,0,left,Purple_Star_Dots_4.jpg,Blue_Triangle_Dots_2.jpg,Green_Plus_Chess_4.jpg,left,1044.580000001588,true,NA,true
EICX8zv5,3axfspqoztbswwyvx39ztaxp9nrfjw,379j5ii41st88sktwf68grl8n71el2,EICX8zv5,2020-0188,2020-05-21,13:43:46,14:08:24,NA,incomplete,15,filling,1,left,Blue_Star_Stripes_3.jpg,Green_Circle_Stripes_2.jpg,Red_Triangle_Chess_3.jpg,left,983.3999999973457,true,NA,true
EICX8zv5,3axfspqoztbswwyvx39ztaxp9nrfjw,379j5ii41st88sktwf68grl8n71el2,EICX8zv5,2020-0188,2020-05-21,13:43:46,14:08:24,NA,incomplete,16,filling,1,left,Red_Circle_Grid_2.jpg,Blue_Plus_Grid_1.jpg,Green_Triangle_Chess_2.jpg,left,968.2099999990314,true,NA,true
EICX8zv5,3axfspqoztbswwyvx39ztaxp9nrfjw,379j5ii41st88sktwf68grl8n71el2,EICX8zv5,2020-0188,2020-05-21,13:43:46,14:08:24,NA,incomplete,17,filling,1,left,Blue_Star_Chess_1.jpg,Green_Circle_Chess_3.jpg,Red_Plus_Stripes_1.jpg,left,1138.5700000028592,true,NA,true
EICX8zv5,3axfspqoztbswwyvx39ztaxp9nrfjw,379j5ii41st88sktwf68grl8n71el2,EICX8zv5,2020-0188,2020-05-21,13:43:46,14:08:24,NA,incomplete,18,filling,1,right,Purple_Star_Stripes_2.jpg,Green_Plus_Chess_2.jpg,Red_Circle_Stripes_1.jpg,right,923.5200000002515,true,NA,true
EICX8zv5,3axfspqoztbswwyvx39ztaxp9nrfjw,379j5ii41st88sktwf68grl8n71el2,EICX8zv5,2020-0188,2020-05-21,13:43:46,14:08:24,NA,incomplete,19,filling,1,right,Blue_Star_Stripes_4.jpg,Red_Triangle_Chess_4.jpg,Green_Circle_Stripes_3.jpg,right,995.5850000005448,true,NA,true
EICX8zv5,3axfspqoztbswwyvx39ztaxp9nrfjw,379j5ii41st88sktwf68grl8n71el2,EICX8zv5,2020-0188,2020-05-21,13:43:46,14:08:24,NA,incomplete,20,number,1,left,Blue_Circle_Grid_1.jpg,Green_Star_Chess_1.jpg,Purple_Plus_Grid_4.jpg,right,888.1999999976251,false,NA,true
EICX8zv5,3axfspqoztbswwyvx39ztaxp9nrfjw,379j5ii41st88sktwf68grl8n71el2,EICX8zv5,2020-0188,2020-05-21,13:43:46,14:08:24,NA,incomplete,21,number,1,left,Green_Triangle_Grid_3.jpg,Red_Star_Dots_3.jpg,Purple_Plus_Grid_2.jpg,left,1395.1249999990687,true,NA,true
EICX8zv5,3axfspqoztbswwyvx39ztaxp9nrfjw,379j5ii41st88sktwf68grl8n71el2,EICX8zv5,2020-0188,2020-05-21,13:43:46,14:08:24,NA,incomplete,22,number,1,left,Blue_Circle_Grid_1.jpg,Green_Star_Dots_1.jpg,Purple_Triangle_Grid_4.jpg,left,1318.9949999977835,true,NA,true
EICX8zv5,3axfspqoztbswwyvx39ztaxp9nrfjw,379j5ii41st88sktwf68grl8n71el2,EICX8zv5,2020-0188,2020-05-21,13:43:46,14:08:24,NA,incomplete,23,number,1,right,Green_Circle_Chess_4.jpg,Purple_Star_Chess_3.jpg,Blue_Plus_Stripes_4.jpg,right,985.6299999991897,true,NA,true
EICX8zv5,3axfspqoztbswwyvx39ztaxp9nrfjw,379j5ii41st88sktwf68grl8n71el2,EICX8zv5,2020-0188,2020-05-21,13:43:46,14:08:24,NA,incomplete,24,number,1,left,Purple_Star_Dots_4.jpg,Red_Circle_Grid_4.jpg,Green_Triangle_Dots_1.jpg,left,744.6250000030268,true,NA,true
EICX8zv5,3axfspqoztbswwyvx39ztaxp9nrfjw,379j5ii41st88sktwf68grl8n71el2,EICX8zv5,2020-0188,2020-05-21,13:43:46,14:08:24,NA,incomplete,25,number,1,left,Red_Circle_Grid_2.jpg,Blue_Plus_Stripes_2.jpg,Green_Star_Grid_3.jpg,left,999.5250000029337,true,NA,true
EICX8zv5,3axfspqoztbswwyvx39ztaxp9nrfjw,379j5ii41st88sktwf68grl8n71el2,EICX8zv5,2020-0188,2020-05-21,13:43:46,14:08:24,NA,incomplete,26,number,1,left,Red_Plus_Dots_1.jpg,Green_Circle_Stripes_1.jpg,Purple_Triangle_Dots_2.jpg,left,730.9100000020117,true,NA,true
EICX8zv5,3axfspqoztbswwyvx39ztaxp9nrfjw,379j5ii41st88sktwf68grl8n71el2,EICX8zv5,2020-0188,2020-05-21,13:43:46,14:08:24,NA,incomplete,27,number,0,left,Green_Triangle_Chess_4.jpg,Purple_Circle_Grid_4.jpg,Blue_Star_Chess_3.jpg,left,829.1699999972479,true,NA,true
EICX8zv5,3axfspqoztbswwyvx39ztaxp9nrfjw,379j5ii41st88sktwf68grl8n71el2,EICX8zv5,2020-0188,2020-05-21,13:43:46,14:08:24,NA,incomplete,28,number,1,left,Blue_Plus_Dots_2.jpg,Purple_Star_Grid_2.jpg,Green_Triangle_Dots_3.jpg,left,985.3200000033248,true,NA,true
EICX8zv5,3axfspqoztbswwyvx39ztaxp9nrfjw,379j5ii41st88sktwf68grl8n71el2,EICX8zv5,2020-0188,2020-05-21,13:43:46,14:08:24,NA,incomplete,29,number,0,left,Purple_Triangle_Grid_4.jpg,Green_Plus_Chess_4.jpg,Blue_Star_Grid_2.jpg,left,1118.2150000022957,true,NA,true
EICX8zv5,3axfspqoztbswwyvx39ztaxp9nrfjw,379j5ii41st88sktwf68grl8n71el2,EICX8zv5,2020-0188,2020-05-21,13:43:46,14:08:24,NA,incomplete,30,number,1,right,Purple_Triangle_Grid_4.jpg,Red_Circle_Grid_3.jpg,Blue_Plus_Chess_4.jpg,right,1208.9300000007497,true,NA,true
EICX8zv5,3axfspqoztbswwyvx39ztaxp9nrfjw,379j5ii41st88sktwf68grl8n71el2,EICX8zv5,2020-0188,2020-05-21,13:43:46,14:08:24,NA,incomplete,31,number,1,right,Red_Triangle_Chess_1.jpg,Purple_Circle_Chess_2.jpg,Blue_Plus_Stripes_1.jpg,right,945.7949999995762,true,NA,true
EICX8zv5,3axfspqoztbswwyvx39ztaxp9nrfjw,379j5ii41st88sktwf68grl8n71el2,EICX8zv5,2020-0188,2020-05-21,13:43:46,14:08:24,NA,incomplete,32,number,1,right,Red_Star_Dots_4.jpg,Blue_Plus_Dots_1.jpg,Green_Triangle_Grid_4.jpg,right,694.484999999986,true,NA,true
EICX8zv5,3axfspqoztbswwyvx39ztaxp9nrfjw,379j5ii41st88sktwf68grl8n71el2,EICX8zv5,2020-0188,2020-05-21,13:43:46,14:08:24,NA,incomplete,33,number,1,right,Red_Plus_Dots_1.jpg,Purple_Star_Dots_2.jpg,Blue_Circle_Grid_1.jpg,right,714.785000000149,true,NA,true
EICX8zv5,3axfspqoztbswwyvx39ztaxp9nrfjw,379j5ii41st88sktwf68grl8n71el2,EICX8zv5,2020-0188,2020-05-21,13:43:46,14:08:24,NA,incomplete,34,number,1,right,Green_Plus_Dots_3.jpg,Purple_Star_Dots_2.jpg,Blue_Triangle_Chess_3.jpg,right,715.2150000002002,true,NA,true
EICX8zv5,3axfspqoztbswwyvx39ztaxp9nrfjw,379j5ii41st88sktwf68grl8n71el2,EICX8zv5,2020-0188,2020-05-21,13:43:46,14:08:24,NA,incomplete,35,number,1,left,Purple_Triangle_Stripes_2.jpg,Green_Circle_Dots_2.jpg,Red_Star_Stripes_1.jpg,left,965.5800000000745,true,NA,true
EICX8zv5,3axfspqoztbswwyvx39ztaxp9nrfjw,379j5ii41st88sktwf68grl8n71el2,EICX8zv5,2020-0188,2020-05-21,13:43:46,14:08:24,NA,incomplete,36,number,1,right,Purple_Triangle_Grid_3.jpg,Red_Circle_Grid_4.jpg,Blue_Plus_Chess_3.jpg,right,858.2349999996368,true,NA,true
EICX8zv5,3axfspqoztbswwyvx39ztaxp9nrfjw,379j5ii41st88sktwf68grl8n71el2,EICX8zv5,2020-0188,2020-05-21,13:43:46,14:08:24,NA,incomplete,37,number,1,left,Red_Plus_Chess_4.jpg,Blue_Triangle_Grid_4.jpg,Green_Star_Chess_2.jpg,left,1058.2099999991478,true,NA,true
EICX8zv5,3axfspqoztbswwyvx39ztaxp9nrfjw,379j5ii41st88sktwf68grl8n71el2,EICX8zv5,2020-0188,2020-05-21,13:43:46,14:08:24,NA,incomplete,38,number,1,right,Purple_Plus_Stripes_4.jpg,Green_Circle_Stripes_3.jpg,Red_Triangle_Chess_4.jpg,right,761.8149999979651,true,NA,true
EICX8zv5,3axfspqoztbswwyvx39ztaxp9nrfjw,379j5ii41st88sktwf68grl8n71el2,EICX8zv5,2020-0188,2020-05-21,13:43:46,14:08:24,NA,incomplete,39,number,0,right,Red_Star_Grid_2.jpg,Purple_Circle_Grid_4.jpg,Green_Plus_Dots_2.jpg,right,838.4949999998789,true,NA,true
EICX8zv5,3axfspqoztbswwyvx39ztaxp9nrfjw,379j5ii41st88sktwf68grl8n71el2,EICX8zv5,2020-0188,2020-05-21,13:43:46,14:08:24,NA,incomplete,0,filling,0,right,Blue_Circle_Stripes_4.jpg,Purple_Triangle_Dots_4.jpg,Red_Star_Stripes_1.jpg,left,1497.3800000007031,false,low,false
EICX8zv5,3axfspqoztbswwyvx39ztaxp9nrfjw,379j5ii41st88sktwf68grl8n71el2,EICX8zv5,2020-0188,2020-05-21,13:43:46,14:08:24,NA,incomplete,1,filling,1,right,Purple_Triangle_Stripes_3.jpg,Blue_Star_Chess_3.jpg,Red_Circle_Stripes_1.jpg,left,842.1449999986216,false,low,false
EICX8zv5,3axfspqoztbswwyvx39ztaxp9nrfjw,379j5ii41st88sktwf68grl8n71el2,EICX8zv5,2020-0188,2020-05-21,13:43:46,14:08:24,NA,incomplete,2,filling,1,left,Blue_Star_Grid_4.jpg,Red_Triangle_Grid_2.jpg,Green_Plus_Stripes_4.jpg,left,1028.8299999992596,true,low,false
EICX8zv5,3axfspqoztbswwyvx39ztaxp9nrfjw,379j5ii41st88sktwf68grl8n71el2,EICX8zv5,2020-0188,2020-05-21,13:43:46,14:08:24,NA,incomplete,3,filling,1,right,Blue_Circle_Chess_1.jpg,Green_Triangle_Dots_1.jpg,Purple_Star_Chess_3.jpg,right,902.7549999991897,true,low,false
EICX8zv5,3axfspqoztbswwyvx39ztaxp9nrfjw,379j5ii41st88sktwf68grl8n71el2,EICX8zv5,2020-0188,2020-05-21,13:43:46,14:08:24,NA,incomplete,4,filling,1,left,Purple_Plus_Chess_2.jpg,Blue_Triangle_Chess_4.jpg,Green_Circle_Stripes_2.jpg,left,966.0199999997858,true,low,false
EICX8zv5,3axfspqoztbswwyvx39ztaxp9nrfjw,379j5ii41st88sktwf68grl8n71el2,EICX8zv5,2020-0188,2020-05-21,13:43:46,14:08:24,NA,incomplete,5,filling,1,left,Red_Triangle_Dots_3.jpg,Purple_Star_Dots_2.jpg,Green_Circle_Chess_3.jpg,left,1024.5949999989243,true,low,false
EICX8zv5,3axfspqoztbswwyvx39ztaxp9nrfjw,379j5ii41st88sktwf68grl8n71el2,EICX8zv5,2020-0188,2020-05-21,13:43:46,14:08:24,NA,incomplete,6,filling,1,right,Blue_Triangle_Grid_2.jpg,Red_Star_Chess_2.jpg,Green_Circle_Grid_3.jpg,right,809.8699999973178,true,low,false
EICX8zv5,3axfspqoztbswwyvx39ztaxp9nrfjw,379j5ii41st88sktwf68grl8n71el2,EICX8zv5,2020-0188,2020-05-21,13:43:46,14:08:24,NA,incomplete,7,filling,0,left,Green_Circle_Stripes_2.jpg,Purple_Triangle_Stripes_1.jpg,Red_Plus_Dots_2.jpg,left,875.5549999987707,true,low,false
EICX8zv5,3axfspqoztbswwyvx39ztaxp9nrfjw,379j5ii41st88sktwf68grl8n71el2,EICX8zv5,2020-0188,2020-05-21,13:43:46,14:08:24,NA,incomplete,8,filling,1,right,Purple_Star_Grid_2.jpg,Blue_Plus_Stripes_2.jpg,Red_Triangle_Grid_4.jpg,right,801.3749999990687,true,low,false
EICX8zv5,3axfspqoztbswwyvx39ztaxp9nrfjw,379j5ii41st88sktwf68grl8n71el2,EICX8zv5,2020-0188,2020-05-21,13:43:46,14:08:24,NA,incomplete,9,filling,1,right,Blue_Plus_Grid_4.jpg,Green_Triangle_Dots_4.jpg,Red_Star_Grid_2.jpg,right,861.2549999997718,true,low,false
EICX8zv5,3axfspqoztbswwyvx39ztaxp9nrfjw,379j5ii41st88sktwf68grl8n71el2,EICX8zv5,2020-0188,2020-05-21,13:43:46,14:08:24,NA,incomplete,10,filling,1,right,Purple_Plus_Chess_2.jpg,Blue_Star_Stripes_2.jpg,Red_Triangle_Chess_4.jpg,right,930.6749999995809,true,low,false
EICX8zv5,3axfspqoztbswwyvx39ztaxp9nrfjw,379j5ii41st88sktwf68grl8n71el2,EICX8zv5,2020-0188,2020-05-21,13:43:46,14:08:24,NA,incomplete,11,filling,0,right,Blue_Circle_Stripes_3.jpg,Green_Plus_Grid_3.jpg,Purple_Star_Stripes_2.jpg,right,982.834999998915,true,low,false
EICX8zv5,3axfspqoztbswwyvx39ztaxp9nrfjw,379j5ii41st88sktwf68grl8n71el2,EICX8zv5,2020-0188,2020-05-21,13:43:46,14:08:24,NA,incomplete,12,filling,1,right,Red_Plus_Stripes_2.jpg,Blue_Triangle_Grid_2.jpg,Purple_Circle_Stripes_1.jpg,right,1096.914999998291,true,low,false
EICX8zv5,3axfspqoztbswwyvx39ztaxp9nrfjw,379j5ii41st88sktwf68grl8n71el2,EICX8zv5,2020-0188,2020-05-21,13:43:46,14:08:24,NA,incomplete,13,filling,1,right,Red_Star_Grid_2.jpg,Green_Circle_Chess_2.jpg,Blue_Plus_Grid_1.jpg,right,839.6350000002421,true,low,false
EICX8zv5,3axfspqoztbswwyvx39ztaxp9nrfjw,379j5ii41st88sktwf68grl8n71el2,EICX8zv5,2020-0188,2020-05-21,13:43:46,14:08:24,NA,incomplete,14,filling,1,right,Purple_Plus_Stripes_1.jpg,Blue_Circle_Chess_1.jpg,Green_Triangle_Stripes_3.jpg,right,897.4200000012061,true,low,false
EICX8zv5,3axfspqoztbswwyvx39ztaxp9nrfjw,379j5ii41st88sktwf68grl8n71el2,EICX8zv5,2020-0188,2020-05-21,13:43:46,14:08:24,NA,incomplete,15,filling,1,left,Red_Star_Dots_4.jpg,Blue_Triangle_Dots_3.jpg,Green_Plus_Chess_4.jpg,left,1093.4249999991152,true,low,false
EICX8zv5,3axfspqoztbswwyvx39ztaxp9nrfjw,379j5ii41st88sktwf68grl8n71el2,EICX8zv5,2020-0188,2020-05-21,13:43:46,14:08:24,NA,incomplete,16,filling,1,right,Green_Triangle_Chess_1.jpg,Blue_Plus_Dots_1.jpg,Purple_Circle_Chess_3.jpg,right,875,true,low,false
EICX8zv5,3axfspqoztbswwyvx39ztaxp9nrfjw,379j5ii41st88sktwf68grl8n71el2,EICX8zv5,2020-0188,2020-05-21,13:43:46,14:08:24,NA,incomplete,17,filling,0,right,Red_Circle_Stripes_2.jpg,Blue_Star_Chess_2.jpg,Purple_Triangle_Stripes_4.jpg,right,801.7800000016578,true,low,false
EICX8zv5,3axfspqoztbswwyvx39ztaxp9nrfjw,379j5ii41st88sktwf68grl8n71el2,EICX8zv5,2020-0188,2020-05-21,13:43:46,14:08:24,NA,incomplete,18,filling,1,left,Purple_Star_Chess_1.jpg,Blue_Circle_Chess_2.jpg,Green_Triangle_Grid_1.jpg,left,1097.6399999998976,true,low,false
EICX8zv5,3axfspqoztbswwyvx39ztaxp9nrfjw,379j5ii41st88sktwf68grl8n71el2,EICX8zv5,2020-0188,2020-05-21,13:43:46,14:08:24,NA,incomplete,19,filling,1,right,Purple_Plus_Grid_1.jpg,Red_Star_Chess_1.jpg,Blue_Circle_Grid_4.jpg,right,844.8200000020443,true,low,false
EICX8zv5,3axfspqoztbswwyvx39ztaxp9nrfjw,379j5ii41st88sktwf68grl8n71el2,EICX8zv5,2020-0188,2020-05-21,13:43:46,14:08:24,NA,incomplete,20,filling,1,right,Red_Circle_Grid_2.jpg,Green_Star_Chess_2.jpg,Purple_Triangle_Grid_4.jpg,right,826.4049999997951,true,low,false
EICX8zv5,3axfspqoztbswwyvx39ztaxp9nrfjw,379j5ii41st88sktwf68grl8n71el2,EICX8zv5,2020-0188,2020-05-21,13:43:46,14:08:24,NA,incomplete,21,filling,1,right,Blue_Star_Grid_4.jpg,Red_Circle_Stripes_4.jpg,Purple_Plus_Grid_2.jpg,right,859.0650000005262,true,low,false
EICX8zv5,3axfspqoztbswwyvx39ztaxp9nrfjw,379j5ii41st88sktwf68grl8n71el2,EICX8zv5,2020-0188,2020-05-21,13:43:46,14:08:24,NA,incomplete,22,filling,1,right,Green_Triangle_Dots_2.jpg,Purple_Circle_Grid_2.jpg,Red_Plus_Dots_4.jpg,right,946.8699999997625,true,low,false
EICX8zv5,3axfspqoztbswwyvx39ztaxp9nrfjw,379j5ii41st88sktwf68grl8n71el2,EICX8zv5,2020-0188,2020-05-21,13:43:46,14:08:24,NA,incomplete,23,filling,1,left,Purple_Star_Chess_2.jpg,Red_Triangle_Chess_4.jpg,Green_Plus_Stripes_2.jpg,left,926.3099999990081,true,low,false
EICX8zv5,3axfspqoztbswwyvx39ztaxp9nrfjw,379j5ii41st88sktwf68grl8n71el2,EICX8zv5,2020-0188,2020-05-21,13:43:46,14:08:24,NA,incomplete,24,filling,1,left,Green_Plus_Dots_1.jpg,Purple_Circle_Dots_2.jpg,Blue_Star_Grid_1.jpg,left,1054.1799999992363,true,low,false
EICX8zv5,3axfspqoztbswwyvx39ztaxp9nrfjw,379j5ii41st88sktwf68grl8n71el2,EICX8zv5,2020-0188,2020-05-21,13:43:46,14:08:24,NA,incomplete,25,filling,1,right,Green_Star_Stripes_1.jpg,Blue_Triangle_Dots_1.jpg,Purple_Plus_Stripes_3.jpg,right,1041.2400000022026,true,low,false
EICX8zv5,3axfspqoztbswwyvx39ztaxp9nrfjw,379j5ii41st88sktwf68grl8n71el2,EICX8zv5,2020-0188,2020-05-21,13:43:46,14:08:24,NA,incomplete,26,filling,1,right,Blue_Star_Stripes_3.jpg,Green_Triangle_Dots_3.jpg,Purple_Plus_Stripes_1.jpg,right,977.5350000017788,true,low,false
EICX8zv5,3axfspqoztbswwyvx39ztaxp9nrfjw,379j5ii41st88sktwf68grl8n71el2,EICX8zv5,2020-0188,2020-05-21,13:43:46,14:08:24,NA,incomplete,27,filling,1,right,Green_Plus_Dots_1.jpg,Purple_Star_Stripes_1.jpg,Blue_Circle_Dots_4.jpg,right,906.5450000016717,true,low,false
EICX8zv5,3axfspqoztbswwyvx39ztaxp9nrfjw,379j5ii41st88sktwf68grl8n71el2,EICX8zv5,2020-0188,2020-05-21,13:43:46,14:08:24,NA,incomplete,28,filling,1,left,Green_Triangle_Chess_2.jpg,Red_Star_Chess_1.jpg,Blue_Circle_Grid_2.jpg,left,1178.845000002184,true,low,false
EICX8zv5,3axfspqoztbswwyvx39ztaxp9nrfjw,379j5ii41st88sktwf68grl8n71el2,EICX8zv5,2020-0188,2020-05-21,13:43:46,14:08:24,NA,incomplete,29,filling,1,left,Blue_Triangle_Grid_3.jpg,Red_Plus_Grid_2.jpg,Purple_Star_Stripes_3.jpg,left,1077.304999998887,true,low,false
EICX8zv5,3axfspqoztbswwyvx39ztaxp9nrfjw,379j5ii41st88sktwf68grl8n71el2,EICX8zv5,2020-0188,2020-05-21,13:43:46,14:08:24,NA,incomplete,30,number,1,right,Purple_Star_Dots_1.jpg,Blue_Plus_Dots_2.jpg,Red_Triangle_Stripes_1.jpg,left,971.835000000312,false,low,false
EICX8zv5,3axfspqoztbswwyvx39ztaxp9nrfjw,379j5ii41st88sktwf68grl8n71el2,EICX8zv5,2020-0188,2020-05-21,13:43:46,14:08:24,NA,incomplete,31,number,0,right,Red_Triangle_Stripes_3.jpg,Purple_Star_Stripes_1.jpg,Blue_Circle_Grid_3.jpg,left,965.9949999987148,false,low,false
EICX8zv5,3axfspqoztbswwyvx39ztaxp9nrfjw,379j5ii41st88sktwf68grl8n71el2,EICX8zv5,2020-0188,2020-05-21,13:43:46,14:08:24,NA,incomplete,32,number,1,right,Blue_Circle_Dots_2.jpg,Green_Plus_Dots_3.jpg,Purple_Triangle_Grid_2.jpg,left,1002.5600000008708,false,low,false
EICX8zv5,3axfspqoztbswwyvx39ztaxp9nrfjw,379j5ii41st88sktwf68grl8n71el2,EICX8zv5,2020-0188,2020-05-21,13:43:46,14:08:24,NA,incomplete,33,number,1,left,Blue_Triangle_Chess_3.jpg,Green_Plus_Stripes_3.jpg,Red_Star_Chess_2.jpg,right,925.7099999994971,false,low,false
EICX8zv5,3axfspqoztbswwyvx39ztaxp9nrfjw,379j5ii41st88sktwf68grl8n71el2,EICX8zv5,2020-0188,2020-05-21,13:43:46,14:08:24,NA,incomplete,34,number,1,right,Green_Triangle_Dots_4.jpg,Purple_Star_Dots_1.jpg,Blue_Plus_Chess_4.jpg,right,1024.5900000008987,true,low,false
EICX8zv5,3axfspqoztbswwyvx39ztaxp9nrfjw,379j5ii41st88sktwf68grl8n71el2,EICX8zv5,2020-0188,2020-05-21,13:43:46,14:08:24,NA,incomplete,35,number,1,right,Blue_Circle_Dots_2.jpg,Red_Triangle_Dots_1.jpg,Green_Star_Grid_2.jpg,right,1096.6599999992177,true,low,false
EICX8zv5,3axfspqoztbswwyvx39ztaxp9nrfjw,379j5ii41st88sktwf68grl8n71el2,EICX8zv5,2020-0188,2020-05-21,13:43:46,14:08:24,NA,incomplete,36,number,1,left,Green_Plus_Chess_2.jpg,Blue_Circle_Stripes_2.jpg,Purple_Triangle_Chess_3.jpg,left,1198.1850000011036,true,low,false
EICX8zv5,3axfspqoztbswwyvx39ztaxp9nrfjw,379j5ii41st88sktwf68grl8n71el2,EICX8zv5,2020-0188,2020-05-21,13:43:46,14:08:24,NA,incomplete,37,number,1,left,Green_Plus_Stripes_4.jpg,Purple_Star_Chess_4.jpg,Blue_Triangle_Stripes_1.jpg,left,946.6700000012061,true,low,false
EICX8zv5,3axfspqoztbswwyvx39ztaxp9nrfjw,379j5ii41st88sktwf68grl8n71el2,EICX8zv5,2020-0188,2020-05-21,13:43:46,14:08:24,NA,incomplete,38,number,1,left,Purple_Circle_Chess_2.jpg,Green_Plus_Stripes_2.jpg,Red_Triangle_Chess_1.jpg,left,1364.0249999989755,true,low,false
EICX8zv5,3axfspqoztbswwyvx39ztaxp9nrfjw,379j5ii41st88sktwf68grl8n71el2,EICX8zv5,2020-0188,2020-05-21,13:43:46,14:08:24,NA,incomplete,39,number,1,right,Purple_Circle_Grid_1.jpg,Blue_Plus_Grid_2.jpg,Green_Star_Stripes_1.jpg,right,830.9900000022026,true,low,false
EICX8zv5,3axfspqoztbswwyvx39ztaxp9nrfjw,379j5ii41st88sktwf68grl8n71el2,EICX8zv5,2020-0188,2020-05-21,13:43:46,14:08:24,NA,incomplete,40,number,1,left,Red_Plus_Dots_2.jpg,Green_Triangle_Grid_2.jpg,Purple_Star_Dots_3.jpg,left,871.2850000010803,true,low,false
EICX8zv5,3axfspqoztbswwyvx39ztaxp9nrfjw,379j5ii41st88sktwf68grl8n71el2,EICX8zv5,2020-0188,2020-05-21,13:43:46,14:08:24,NA,incomplete,41,number,1,right,Blue_Triangle_Chess_4.jpg,Green_Plus_Chess_2.jpg,Purple_Star_Dots_4.jpg,right,1256.3850000005914,true,low,false
EICX8zv5,3axfspqoztbswwyvx39ztaxp9nrfjw,379j5ii41st88sktwf68grl8n71el2,EICX8zv5,2020-0188,2020-05-21,13:43:46,14:08:24,NA,incomplete,42,number,0,right,Blue_Star_Stripes_4.jpg,Green_Circle_Stripes_1.jpg,Red_Triangle_Chess_4.jpg,right,653.9100000009639,true,low,false
EICX8zv5,3axfspqoztbswwyvx39ztaxp9nrfjw,379j5ii41st88sktwf68grl8n71el2,EICX8zv5,2020-0188,2020-05-21,13:43:46,14:08:24,NA,incomplete,43,number,1,left,Purple_Triangle_Grid_4.jpg,Blue_Star_Stripes_4.jpg,Green_Circle_Grid_3.jpg,left,980.8599999997532,true,low,false
EICX8zv5,3axfspqoztbswwyvx39ztaxp9nrfjw,379j5ii41st88sktwf68grl8n71el2,EICX8zv5,2020-0188,2020-05-21,13:43:46,14:08:24,NA,incomplete,44,number,0,right,Red_Triangle_Chess_2.jpg,Purple_Circle_Chess_4.jpg,Green_Star_Grid_2.jpg,right,823.6299999989569,true,low,false
EICX8zv5,3axfspqoztbswwyvx39ztaxp9nrfjw,379j5ii41st88sktwf68grl8n71el2,EICX8zv5,2020-0188,2020-05-21,13:43:46,14:08:24,NA,incomplete,45,number,0,right,Blue_Plus_Chess_2.jpg,Green_Triangle_Chess_3.jpg,Red_Star_Grid_2.jpg,right,839.814999999362,true,low,false
EICX8zv5,3axfspqoztbswwyvx39ztaxp9nrfjw,379j5ii41st88sktwf68grl8n71el2,EICX8zv5,2020-0188,2020-05-21,13:43:46,14:08:24,NA,incomplete,46,number,1,right,Green_Circle_Stripes_4.jpg,Red_Star_Stripes_1.jpg,Purple_Triangle_Dots_4.jpg,left,1051.4100000000326,false,low,false
EICX8zv5,3axfspqoztbswwyvx39ztaxp9nrfjw,379j5ii41st88sktwf68grl8n71el2,EICX8zv5,2020-0188,2020-05-21,13:43:46,14:08:24,NA,incomplete,47,number,0,right,Red_Star_Chess_2.jpg,Blue_Triangle_Chess_4.jpg,Green_Circle_Stripes_2.jpg,right,752.6299999990733,true,low,false
EICX8zv5,3axfspqoztbswwyvx39ztaxp9nrfjw,379j5ii41st88sktwf68grl8n71el2,EICX8zv5,2020-0188,2020-05-21,13:43:46,14:08:24,NA,incomplete,48,number,1,left,Blue_Star_Chess_3.jpg,Purple_Circle_Dots_3.jpg,Red_Triangle_Chess_1.jpg,right,907.9050000000279,false,low,false
EICX8zv5,3axfspqoztbswwyvx39ztaxp9nrfjw,379j5ii41st88sktwf68grl8n71el2,EICX8zv5,2020-0188,2020-05-21,13:43:46,14:08:24,NA,incomplete,49,number,1,right,Purple_Circle_Chess_3.jpg,Blue_Plus_Chess_1.jpg,Green_Triangle_Grid_3.jpg,left,1048.8950000000186,false,low,false
EICX8zv5,3axfspqoztbswwyvx39ztaxp9nrfjw,379j5ii41st88sktwf68grl8n71el2,EICX8zv5,2020-0188,2020-05-21,13:43:46,14:08:24,NA,incomplete,50,number,1,left,Purple_Plus_Stripes_3.jpg,Green_Triangle_Chess_3.jpg,Red_Circle_Stripes_1.jpg,right,1024.810000002617,false,low,false
EICX8zv5,3axfspqoztbswwyvx39ztaxp9nrfjw,379j5ii41st88sktwf68grl8n71el2,EICX8zv5,2020-0188,2020-05-21,13:43:46,14:08:24,NA,incomplete,51,number,1,right,Green_Star_Grid_2.jpg,Blue_Triangle_Grid_1.jpg,Purple_Circle_Dots_2.jpg,right,843.8950000017649,true,low,false
EICX8zv5,3axfspqoztbswwyvx39ztaxp9nrfjw,379j5ii41st88sktwf68grl8n71el2,EICX8zv5,2020-0188,2020-05-21,13:43:46,14:08:24,NA,incomplete,52,number,1,left,Blue_Plus_Chess_3.jpg,Green_Triangle_Grid_3.jpg,Purple_Star_Chess_2.jpg,left,874.4899999983609,true,low,false
EICX8zv5,3axfspqoztbswwyvx39ztaxp9nrfjw,379j5ii41st88sktwf68grl8n71el2,EICX8zv5,2020-0188,2020-05-21,13:43:46,14:08:24,NA,incomplete,53,number,1,left,Purple_Circle_Dots_1.jpg,Blue_Triangle_Grid_1.jpg,Red_Star_Dots_2.jpg,left,873.2950000013225,true,low,false
EICX8zv5,3axfspqoztbswwyvx39ztaxp9nrfjw,379j5ii41st88sktwf68grl8n71el2,EICX8zv5,2020-0188,2020-05-21,13:43:46,14:08:24,NA,incomplete,54,number,1,left,Blue_Plus_Stripes_1.jpg,Red_Triangle_Chess_1.jpg,Purple_Circle_Stripes_3.jpg,left,656.394999998156,true,low,false
EICX8zv5,3axfspqoztbswwyvx39ztaxp9nrfjw,379j5ii41st88sktwf68grl8n71el2,EICX8zv5,2020-0188,2020-05-21,13:43:46,14:08:24,NA,incomplete,55,number,1,right,Blue_Circle_Dots_3.jpg,Purple_Plus_Dots_1.jpg,Green_Star_Grid_3.jpg,right,688.0400000009686,true,low,false
EICX8zv5,3axfspqoztbswwyvx39ztaxp9nrfjw,379j5ii41st88sktwf68grl8n71el2,EICX8zv5,2020-0188,2020-05-21,13:43:46,14:08:24,NA,incomplete,56,number,1,right,Purple_Plus_Grid_2.jpg,Blue_Circle_Grid_3.jpg,Green_Star_Dots_2.jpg,right,983.6900000009919,true,low,false
EICX8zv5,3axfspqoztbswwyvx39ztaxp9nrfjw,379j5ii41st88sktwf68grl8n71el2,EICX8zv5,2020-0188,2020-05-21,13:43:46,14:08:24,NA,incomplete,57,number,1,right,Purple_Triangle_Dots_4.jpg,Green_Circle_Dots_2.jpg,Blue_Star_Grid_4.jpg,right,712.7949999994598,true,low,false
EICX8zv5,3axfspqoztbswwyvx39ztaxp9nrfjw,379j5ii41st88sktwf68grl8n71el2,EICX8zv5,2020-0188,2020-05-21,13:43:46,14:08:24,NA,incomplete,58,number,1,left,Red_Plus_Chess_2.jpg,Blue_Triangle_Grid_2.jpg,Purple_Circle_Chess_4.jpg,left,798.2599999996601,true,low,false
EICX8zv5,3axfspqoztbswwyvx39ztaxp9nrfjw,379j5ii41st88sktwf68grl8n71el2,EICX8zv5,2020-0188,2020-05-21,13:43:46,14:08:24,NA,incomplete,59,number,0,right,Red_Star_Grid_3.jpg,Blue_Plus_Grid_4.jpg,Green_Triangle_Dots_3.jpg,right,880.2450000002282,true,low,false
EICX8zv5,3axfspqoztbswwyvx39ztaxp9nrfjw,379j5ii41st88sktwf68grl8n71el2,EICX8zv5,2020-0188,2020-05-21,13:43:46,14:08:24,NA,incomplete,60,filling,0,left,Red_Star_Stripes_4.jpg,Purple_Triangle_Stripes_3.jpg,Green_Plus_Dots_4.jpg,right,669.4450000032084,false,low,false
EICX8zv5,3axfspqoztbswwyvx39ztaxp9nrfjw,379j5ii41st88sktwf68grl8n71el2,EICX8zv5,2020-0188,2020-05-21,13:43:46,14:08:24,NA,incomplete,61,filling,0,left,Red_Star_Dots_2.jpg,Purple_Plus_Dots_3.jpg,Green_Triangle_Grid_2.jpg,right,727.6249999995343,false,low,false
EICX8zv5,3axfspqoztbswwyvx39ztaxp9nrfjw,379j5ii41st88sktwf68grl8n71el2,EICX8zv5,2020-0188,2020-05-21,13:43:46,14:08:24,NA,incomplete,62,filling,1,left,Green_Plus_Dots_2.jpg,Purple_Star_Dots_4.jpg,Red_Triangle_Grid_2.jpg,right,634.1949999987846,false,low,false
EICX8zv5,3axfspqoztbswwyvx39ztaxp9nrfjw,379j5ii41st88sktwf68grl8n71el2,EICX8zv5,2020-0188,2020-05-21,13:43:46,14:08:24,NA,incomplete,63,filling,1,left,Blue_Plus_Grid_3.jpg,Red_Circle_Grid_4.jpg,Purple_Triangle_Stripes_3.jpg,right,627.6049999978859,false,low,false
EICX8zv5,3axfspqoztbswwyvx39ztaxp9nrfjw,379j5ii41st88sktwf68grl8n71el2,EICX8zv5,2020-0188,2020-05-21,13:43:46,14:08:24,NA,incomplete,64,filling,1,left,Purple_Star_Dots_3.jpg,Red_Plus_Dots_4.jpg,Green_Triangle_Stripes_3.jpg,right,660.3299999987939,false,low,false
EICX8zv5,3axfspqoztbswwyvx39ztaxp9nrfjw,379j5ii41st88sktwf68grl8n71el2,EICX8zv5,2020-0188,2020-05-21,13:43:46,14:08:24,NA,incomplete,65,filling,1,right,Green_Circle_Chess_1.jpg,Blue_Star_Stripes_1.jpg,Purple_Plus_Chess_4.jpg,right,948.4050000028219,true,low,false
EICX8zv5,3axfspqoztbswwyvx39ztaxp9nrfjw,379j5ii41st88sktwf68grl8n71el2,EICX8zv5,2020-0188,2020-05-21,13:43:46,14:08:24,NA,incomplete,66,filling,1,right,Green_Plus_Grid_1.jpg,Blue_Triangle_Chess_1.jpg,Red_Star_Grid_2.jpg,right,946.8899999991991,true,low,false
EICX8zv5,3axfspqoztbswwyvx39ztaxp9nrfjw,379j5ii41st88sktwf68grl8n71el2,EICX8zv5,2020-0188,2020-05-21,13:43:46,14:08:24,NA,incomplete,67,filling,1,right,Blue_Plus_Chess_2.jpg,Purple_Star_Stripes_2.jpg,Red_Circle_Chess_4.jpg,right,768.0900000014808,true,low,false
EICX8zv5,3axfspqoztbswwyvx39ztaxp9nrfjw,379j5ii41st88sktwf68grl8n71el2,EICX8zv5,2020-0188,2020-05-21,13:43:46,14:08:24,NA,incomplete,68,filling,1,right,Purple_Plus_Grid_1.jpg,Green_Star_Chess_1.jpg,Red_Circle_Grid_4.jpg,right,735.3650000004563,true,low,false
EICX8zv5,3axfspqoztbswwyvx39ztaxp9nrfjw,379j5ii41st88sktwf68grl8n71el2,EICX8zv5,2020-0188,2020-05-21,13:43:46,14:08:24,NA,incomplete,69,filling,1,left,Purple_Circle_Dots_2.jpg,Red_Star_Dots_1.jpg,Green_Triangle_Grid_2.jpg,left,947.4200000003912,true,low,false
EICX8zv5,3axfspqoztbswwyvx39ztaxp9nrfjw,379j5ii41st88sktwf68grl8n71el2,EICX8zv5,2020-0188,2020-05-21,13:43:46,14:08:24,NA,incomplete,70,filling,0,right,Green_Circle_Chess_2.jpg,Purple_Star_Dots_2.jpg,Blue_Plus_Chess_3.jpg,right,720.1249999997672,true,low,false
EICX8zv5,3axfspqoztbswwyvx39ztaxp9nrfjw,379j5ii41st88sktwf68grl8n71el2,EICX8zv5,2020-0188,2020-05-21,13:43:46,14:08:24,NA,incomplete,71,filling,1,right,Green_Triangle_Dots_1.jpg,Blue_Star_Grid_1.jpg,Purple_Plus_Dots_3.jpg,right,809.4949999977835,true,low,false
EICX8zv5,3axfspqoztbswwyvx39ztaxp9nrfjw,379j5ii41st88sktwf68grl8n71el2,EICX8zv5,2020-0188,2020-05-21,13:43:46,14:08:24,NA,incomplete,72,filling,0,left,Green_Star_Chess_2.jpg,Blue_Triangle_Chess_1.jpg,Purple_Circle_Grid_2.jpg,left,878.835000003106,true,low,false
EICX8zv5,3axfspqoztbswwyvx39ztaxp9nrfjw,379j5ii41st88sktwf68grl8n71el2,EICX8zv5,2020-0188,2020-05-21,13:43:46,14:08:24,NA,incomplete,73,filling,1,right,Red_Triangle_Stripes_3.jpg,Purple_Star_Dots_3.jpg,Blue_Plus_Stripes_4.jpg,right,789.5649999991292,true,low,false
EICX8zv5,3axfspqoztbswwyvx39ztaxp9nrfjw,379j5ii41st88sktwf68grl8n71el2,EICX8zv5,2020-0188,2020-05-21,13:43:46,14:08:24,NA,incomplete,74,filling,1,left,Red_Circle_Grid_1.jpg,Purple_Star_Grid_3.jpg,Blue_Triangle_Chess_1.jpg,left,830.5450000007404,true,low,false
EICX8zv5,3axfspqoztbswwyvx39ztaxp9nrfjw,379j5ii41st88sktwf68grl8n71el2,EICX8zv5,2020-0188,2020-05-21,13:43:46,14:08:24,NA,incomplete,75,filling,1,right,Blue_Circle_Stripes_2.jpg,Red_Plus_Chess_2.jpg,Green_Triangle_Stripes_1.jpg,right,850.7600000011735,true,low,false
EICX8zv5,3axfspqoztbswwyvx39ztaxp9nrfjw,379j5ii41st88sktwf68grl8n71el2,EICX8zv5,2020-0188,2020-05-21,13:43:46,14:08:24,NA,incomplete,76,filling,0,right,Red_Triangle_Stripes_4.jpg,Blue_Star_Grid_4.jpg,Purple_Plus_Stripes_1.jpg,right,843.3350000014761,true,low,false
EICX8zv5,3axfspqoztbswwyvx39ztaxp9nrfjw,379j5ii41st88sktwf68grl8n71el2,EICX8zv5,2020-0188,2020-05-21,13:43:46,14:08:24,NA,incomplete,77,filling,1,left,Blue_Circle_Grid_3.jpg,Purple_Triangle_Grid_1.jpg,Green_Plus_Dots_3.jpg,left,928.3800000011688,true,low,false
EICX8zv5,3axfspqoztbswwyvx39ztaxp9nrfjw,379j5ii41st88sktwf68grl8n71el2,EICX8zv5,2020-0188,2020-05-21,13:43:46,14:08:24,NA,incomplete,78,filling,0,right,Red_Plus_Chess_4.jpg,Green_Circle_Dots_4.jpg,Blue_Triangle_Chess_3.jpg,right,748.9300000015646,true,low,false
EICX8zv5,3axfspqoztbswwyvx39ztaxp9nrfjw,379j5ii41st88sktwf68grl8n71el2,EICX8zv5,2020-0188,2020-05-21,13:43:46,14:08:24,NA,incomplete,79,filling,0,right,Purple_Star_Chess_2.jpg,Green_Circle_Dots_2.jpg,Blue_Triangle_Chess_1.jpg,right,785.7000000003027,true,low,false
EICX8zv5,3axfspqoztbswwyvx39ztaxp9nrfjw,379j5ii41st88sktwf68grl8n71el2,EICX8zv5,2020-0188,2020-05-21,13:43:46,14:08:24,NA,incomplete,80,filling,1,left,Green_Plus_Stripes_2.jpg,Red_Triangle_Stripes_1.jpg,Purple_Star_Chess_2.jpg,right,1211.1349999977974,false,low,false
EICX8zv5,3axfspqoztbswwyvx39ztaxp9nrfjw,379j5ii41st88sktwf68grl8n71el2,EICX8zv5,2020-0188,2020-05-21,13:43:46,14:08:24,NA,incomplete,81,filling,0,left,Purple_Plus_Grid_4.jpg,Green_Circle_Grid_3.jpg,Blue_Triangle_Chess_4.jpg,left,967.4100000011967,true,low,false
EICX8zv5,3axfspqoztbswwyvx39ztaxp9nrfjw,379j5ii41st88sktwf68grl8n71el2,EICX8zv5,2020-0188,2020-05-21,13:43:46,14:08:24,NA,incomplete,82,filling,1,right,Blue_Circle_Dots_4.jpg,Red_Star_Chess_4.jpg,Purple_Plus_Dots_1.jpg,right,870.9450000023935,true,low,false
EICX8zv5,3axfspqoztbswwyvx39ztaxp9nrfjw,379j5ii41st88sktwf68grl8n71el2,EICX8zv5,2020-0188,2020-05-21,13:43:46,14:08:24,NA,incomplete,83,filling,1,right,Purple_Star_Stripes_2.jpg,Blue_Plus_Chess_2.jpg,Red_Triangle_Stripes_1.jpg,right,1214.9500000013504,true,low,false
EICX8zv5,3axfspqoztbswwyvx39ztaxp9nrfjw,379j5ii41st88sktwf68grl8n71el2,EICX8zv5,2020-0188,2020-05-21,13:43:46,14:08:24,NA,incomplete,84,filling,1,right,Red_Plus_Stripes_1.jpg,Green_Circle_Dots_1.jpg,Blue_Triangle_Stripes_3.jpg,right,999.4200000001583,true,low,false
EICX8zv5,3axfspqoztbswwyvx39ztaxp9nrfjw,379j5ii41st88sktwf68grl8n71el2,EICX8zv5,2020-0188,2020-05-21,13:43:46,14:08:24,NA,incomplete,85,filling,1,left,Green_Triangle_Chess_1.jpg,Blue_Circle_Chess_4.jpg,Purple_Star_Grid_1.jpg,left,1315.8500000026543,true,low,false
EICX8zv5,3axfspqoztbswwyvx39ztaxp9nrfjw,379j5ii41st88sktwf68grl8n71el2,EICX8zv5,2020-0188,2020-05-21,13:43:46,14:08:24,NA,incomplete,86,filling,1,right,Purple_Star_Dots_2.jpg,Blue_Triangle_Chess_2.jpg,Red_Plus_Dots_1.jpg,right,940.6500000003725,true,low,false
EICX8zv5,3axfspqoztbswwyvx39ztaxp9nrfjw,379j5ii41st88sktwf68grl8n71el2,EICX8zv5,2020-0188,2020-05-21,13:43:46,14:08:24,NA,incomplete,87,filling,0,right,Red_Plus_Grid_4.jpg,Green_Circle_Chess_4.jpg,Blue_Triangle_Grid_2.jpg,right,931.775000001071,true,low,false
EICX8zv5,3axfspqoztbswwyvx39ztaxp9nrfjw,379j5ii41st88sktwf68grl8n71el2,EICX8zv5,2020-0188,2020-05-21,13:43:46,14:08:24,NA,incomplete,88,filling,1,left,Blue_Star_Chess_4.jpg,Green_Plus_Chess_2.jpg,Purple_Triangle_Dots_4.jpg,left,1200.5050000008196,true,low,false
EICX8zv5,3axfspqoztbswwyvx39ztaxp9nrfjw,379j5ii41st88sktwf68grl8n71el2,EICX8zv5,2020-0188,2020-05-21,13:43:46,14:08:24,NA,incomplete,89,filling,1,left,Blue_Triangle_Stripes_3.jpg,Purple_Plus_Stripes_4.jpg,Red_Circle_Chess_3.jpg,left,881.1899999999441,true,low,false
EICX8zv5,3axfspqoztbswwyvx39ztaxp9nrfjw,379j5ii41st88sktwf68grl8n71el2,EICX8zv5,2020-0188,2020-05-21,13:43:46,14:08:24,NA,incomplete,90,number,0,right,Blue_Plus_Grid_1.jpg,Purple_Circle_Grid_2.jpg,Green_Star_Stripes_1.jpg,left,1066.5150000022259,false,low,false
EICX8zv5,3axfspqoztbswwyvx39ztaxp9nrfjw,379j5ii41st88sktwf68grl8n71el2,EICX8zv5,2020-0188,2020-05-21,13:43:46,14:08:24,NA,incomplete,91,number,1,left,Green_Triangle_Chess_3.jpg,Blue_Plus_Grid_3.jpg,Purple_Star_Chess_2.jpg,right,927.0249999973457,false,low,false
EICX8zv5,3axfspqoztbswwyvx39ztaxp9nrfjw,379j5ii41st88sktwf68grl8n71el2,EICX8zv5,2020-0188,2020-05-21,13:43:46,14:08:24,NA,incomplete,92,number,0,right,Green_Circle_Stripes_1.jpg,Purple_Star_Stripes_2.jpg,Red_Plus_Dots_1.jpg,left,1012.4499999983236,false,low,false
EICX8zv5,3axfspqoztbswwyvx39ztaxp9nrfjw,379j5ii41st88sktwf68grl8n71el2,EICX8zv5,2020-0188,2020-05-21,13:43:46,14:08:24,NA,incomplete,93,number,1,right,Purple_Triangle_Stripes_2.jpg,Blue_Star_Stripes_1.jpg,Red_Circle_Dots_2.jpg,left,901.7200000016019,false,low,false
EICX8zv5,3axfspqoztbswwyvx39ztaxp9nrfjw,379j5ii41st88sktwf68grl8n71el2,EICX8zv5,2020-0188,2020-05-21,13:43:46,14:08:24,NA,incomplete,94,number,1,right,Purple_Plus_Chess_3.jpg,Green_Triangle_Chess_2.jpg,Red_Star_Stripes_3.jpg,left,868.135000000475,false,low,false
EICX8zv5,3axfspqoztbswwyvx39ztaxp9nrfjw,379j5ii41st88sktwf68grl8n71el2,EICX8zv5,2020-0188,2020-05-21,13:43:46,14:08:24,NA,incomplete,95,number,1,right,Green_Triangle_Dots_2.jpg,Red_Plus_Dots_3.jpg,Blue_Circle_Stripes_2.jpg,right,686.2250000012573,true,low,false
EICX8zv5,3axfspqoztbswwyvx39ztaxp9nrfjw,379j5ii41st88sktwf68grl8n71el2,EICX8zv5,2020-0188,2020-05-21,13:43:46,14:08:24,NA,incomplete,96,number,0,left,Green_Circle_Grid_1.jpg,Red_Plus_Stripes_1.jpg,Purple_Triangle_Grid_4.jpg,left,1407.9749999982305,true,low,false
EICX8zv5,3axfspqoztbswwyvx39ztaxp9nrfjw,379j5ii41st88sktwf68grl8n71el2,EICX8zv5,2020-0188,2020-05-21,13:43:46,14:08:24,NA,incomplete,97,number,1,right,Purple_Plus_Stripes_1.jpg,Green_Triangle_Stripes_4.jpg,Red_Star_Dots_1.jpg,right,651.6100000008009,true,low,false
EICX8zv5,3axfspqoztbswwyvx39ztaxp9nrfjw,379j5ii41st88sktwf68grl8n71el2,EICX8zv5,2020-0188,2020-05-21,13:43:46,14:08:24,NA,incomplete,98,number,1,right,Green_Triangle_Dots_2.jpg,Purple_Star_Dots_3.jpg,Red_Plus_Stripes_2.jpg,right,690.3800000001211,true,low,false
EICX8zv5,3axfspqoztbswwyvx39ztaxp9nrfjw,379j5ii41st88sktwf68grl8n71el2,EICX8zv5,2020-0188,2020-05-21,13:43:46,14:08:24,NA,incomplete,99,number,1,left,Blue_Star_Dots_3.jpg,Red_Plus_Stripes_3.jpg,Green_Circle_Dots_1.jpg,left,826.4349999991246,true,low,false
EICX8zv5,3axfspqoztbswwyvx39ztaxp9nrfjw,379j5ii41st88sktwf68grl8n71el2,EICX8zv5,2020-0188,2020-05-21,13:43:46,14:08:24,NA,incomplete,100,number,1,right,Blue_Star_Grid_3.jpg,Green_Triangle_Grid_4.jpg,Red_Circle_Stripes_3.jpg,right,828.3899999987334,true,low,false
EICX8zv5,3axfspqoztbswwyvx39ztaxp9nrfjw,379j5ii41st88sktwf68grl8n71el2,EICX8zv5,2020-0188,2020-05-21,13:43:46,14:08:24,NA,incomplete,101,number,1,left,Blue_Plus_Stripes_3.jpg,Red_Triangle_Chess_3.jpg,Purple_Star_Stripes_1.jpg,left,787.3949999993201,true,low,false
EICX8zv5,3axfspqoztbswwyvx39ztaxp9nrfjw,379j5ii41st88sktwf68grl8n71el2,EICX8zv5,2020-0188,2020-05-21,13:43:46,14:08:24,NA,incomplete,102,number,1,right,Green_Triangle_Chess_1.jpg,Purple_Star_Chess_2.jpg,Red_Plus_Grid_1.jpg,right,670.055000002496,true,low,false
EICX8zv5,3axfspqoztbswwyvx39ztaxp9nrfjw,379j5ii41st88sktwf68grl8n71el2,EICX8zv5,2020-0188,2020-05-21,13:43:46,14:08:24,NA,incomplete,103,number,1,left,Blue_Star_Stripes_3.jpg,Green_Circle_Chess_3.jpg,Red_Triangle_Stripes_1.jpg,left,765.1000000005588,true,low,false
EICX8zv5,3axfspqoztbswwyvx39ztaxp9nrfjw,379j5ii41st88sktwf68grl8n71el2,EICX8zv5,2020-0188,2020-05-21,13:43:46,14:08:24,NA,incomplete,104,number,1,right,Red_Plus_Dots_3.jpg,Green_Circle_Dots_2.jpg,Purple_Triangle_Grid_3.jpg,right,838.240000000922,true,low,false
EICX8zv5,3axfspqoztbswwyvx39ztaxp9nrfjw,379j5ii41st88sktwf68grl8n71el2,EICX8zv5,2020-0188,2020-05-21,13:43:46,14:08:24,NA,incomplete,105,number,1,right,Blue_Circle_Chess_4.jpg,Red_Star_Chess_3.jpg,Green_Plus_Dots_4.jpg,right,802.1050000023097,true,low,false
EICX8zv5,3axfspqoztbswwyvx39ztaxp9nrfjw,379j5ii41st88sktwf68grl8n71el2,EICX8zv5,2020-0188,2020-05-21,13:43:46,14:08:24,NA,incomplete,106,number,1,left,Blue_Star_Stripes_3.jpg,Green_Plus_Dots_3.jpg,Purple_Triangle_Stripes_4.jpg,left,1218.010000000475,true,low,false
EICX8zv5,3axfspqoztbswwyvx39ztaxp9nrfjw,379j5ii41st88sktwf68grl8n71el2,EICX8zv5,2020-0188,2020-05-21,13:43:46,14:08:24,NA,incomplete,107,number,1,right,Red_Plus_Chess_3.jpg,Purple_Circle_Chess_4.jpg,Green_Star_Grid_3.jpg,right,626.5299999976996,true,low,false
EICX8zv5,3axfspqoztbswwyvx39ztaxp9nrfjw,379j5ii41st88sktwf68grl8n71el2,EICX8zv5,2020-0188,2020-05-21,13:43:46,14:08:24,NA,incomplete,108,number,1,left,Blue_Circle_Grid_3.jpg,Green_Star_Dots_3.jpg,Purple_Plus_Grid_4.jpg,left,1004.6300000031479,true,low,false
EICX8zv5,3axfspqoztbswwyvx39ztaxp9nrfjw,379j5ii41st88sktwf68grl8n71el2,EICX8zv5,2020-0188,2020-05-21,13:43:46,14:08:24,NA,incomplete,109,number,0,right,Purple_Plus_Grid_4.jpg,Green_Star_Grid_3.jpg,Red_Triangle_Chess_4.jpg,right,917.5849999992643,true,low,false
EICX8zv5,3axfspqoztbswwyvx39ztaxp9nrfjw,379j5ii41st88sktwf68grl8n71el2,EICX8zv5,2020-0188,2020-05-21,13:43:46,14:08:24,NA,incomplete,110,number,1,left,Purple_Triangle_Chess_2.jpg,Blue_Star_Stripes_2.jpg,Green_Plus_Chess_1.jpg,left,963.2499999969732,true,low,false
EICX8zv5,3axfspqoztbswwyvx39ztaxp9nrfjw,379j5ii41st88sktwf68grl8n71el2,EICX8zv5,2020-0188,2020-05-21,13:43:46,14:08:24,NA,incomplete,111,number,1,left,Red_Triangle_Chess_3.jpg,Purple_Star_Stripes_3.jpg,Green_Plus_Chess_2.jpg,left,1093.5050000005867,true,low,false
EICX8zv5,3axfspqoztbswwyvx39ztaxp9nrfjw,379j5ii41st88sktwf68grl8n71el2,EICX8zv5,2020-0188,2020-05-21,13:43:46,14:08:24,NA,incomplete,112,number,1,left,Red_Plus_Stripes_3.jpg,Green_Triangle_Chess_3.jpg,Purple_Star_Stripes_2.jpg,left,899.7300000009127,true,low,false
EICX8zv5,3axfspqoztbswwyvx39ztaxp9nrfjw,379j5ii41st88sktwf68grl8n71el2,EICX8zv5,2020-0188,2020-05-21,13:43:46,14:08:24,NA,incomplete,113,number,0,right,Purple_Plus_Stripes_1.jpg,Red_Star_Stripes_3.jpg,Blue_Circle_Grid_1.jpg,right,784.8599999996368,true,low,false
EICX8zv5,3axfspqoztbswwyvx39ztaxp9nrfjw,379j5ii41st88sktwf68grl8n71el2,EICX8zv5,2020-0188,2020-05-21,13:43:46,14:08:24,NA,incomplete,114,number,1,left,Green_Triangle_Dots_2.jpg,Purple_Circle_Grid_2.jpg,Red_Star_Dots_1.jpg,left,739.8900000008289,true,low,false
EICX8zv5,3axfspqoztbswwyvx39ztaxp9nrfjw,379j5ii41st88sktwf68grl8n71el2,EICX8zv5,2020-0188,2020-05-21,13:43:46,14:08:24,NA,incomplete,115,number,1,left,Blue_Star_Grid_3.jpg,Red_Plus_Chess_3.jpg,Green_Circle_Grid_2.jpg,left,875.3600000017323,true,low,false
EICX8zv5,3axfspqoztbswwyvx39ztaxp9nrfjw,379j5ii41st88sktwf68grl8n71el2,EICX8zv5,2020-0188,2020-05-21,13:43:46,14:08:24,NA,incomplete,116,number,1,right,Green_Plus_Chess_3.jpg,Red_Star_Chess_1.jpg,Purple_Triangle_Grid_3.jpg,right,726.4450000000652,true,low,false
EICX8zv5,3axfspqoztbswwyvx39ztaxp9nrfjw,379j5ii41st88sktwf68grl8n71el2,EICX8zv5,2020-0188,2020-05-21,13:43:46,14:08:24,NA,incomplete,117,number,1,left,Purple_Circle_Dots_2.jpg,Blue_Plus_Grid_2.jpg,Green_Star_Dots_1.jpg,left,756.9600000025239,true,low,false
EICX8zv5,3axfspqoztbswwyvx39ztaxp9nrfjw,379j5ii41st88sktwf68grl8n71el2,EICX8zv5,2020-0188,2020-05-21,13:43:46,14:08:24,NA,incomplete,118,number,1,left,Red_Plus_Grid_3.jpg,Green_Star_Chess_3.jpg,Purple_Circle_Grid_1.jpg,left,648.1999999997206,true,low,false
EICX8zv5,3axfspqoztbswwyvx39ztaxp9nrfjw,379j5ii41st88sktwf68grl8n71el2,EICX8zv5,2020-0188,2020-05-21,13:43:46,14:08:24,NA,incomplete,119,number,1,right,Purple_Plus_Dots_4.jpg,Blue_Star_Dots_1.jpg,Red_Triangle_Chess_4.jpg,right,599.940000000177,true,low,false
EICX8zv5,3axfspqoztbswwyvx39ztaxp9nrfjw,379j5ii41st88sktwf68grl8n71el2,EICX8zv5,2020-0188,2020-05-21,13:43:46,14:08:24,NA,incomplete,120,shape,1,right,Red_Circle_Stripes_2.jpg,Red_Triangle_Grid_4.jpg,Blue_Circle_Dots_3.jpg,NA,NA,NA,low,false
EICX8zv5,3axfspqoztbswwyvx39ztaxp9nrfjw,379j5ii41st88sktwf68grl8n71el2,EICX8zv5,2020-0188,2020-05-21,13:43:46,14:08:24,NA,incomplete,121,shape,1,right,Purple_Star_Dots_4.jpg,Purple_Triangle_Grid_1.jpg,Blue_Star_Chess_3.jpg,right,903.2349999977741,true,low,false
EICX8zv5,3axfspqoztbswwyvx39ztaxp9nrfjw,379j5ii41st88sktwf68grl8n71el2,EICX8zv5,2020-0188,2020-05-21,13:43:46,14:08:24,NA,incomplete,122,shape,1,left,Purple_Triangle_Dots_3.jpg,Green_Triangle_Grid_2.jpg,Purple_Plus_Chess_1.jpg,left,1139.709999999497,true,low,false
EICX8zv5,3axfspqoztbswwyvx39ztaxp9nrfjw,379j5ii41st88sktwf68grl8n71el2,EICX8zv5,2020-0188,2020-05-21,13:43:46,14:08:24,NA,incomplete,123,shape,0,right,Blue_Triangle_Grid_2.jpg,Blue_Circle_Dots_3.jpg,Red_Triangle_Chess_1.jpg,right,768.6099999991711,true,low,false
EICX8zv5,3axfspqoztbswwyvx39ztaxp9nrfjw,379j5ii41st88sktwf68grl8n71el2,EICX8zv5,2020-0188,2020-05-21,13:43:46,14:08:24,NA,incomplete,124,shape,1,right,Red_Circle_Chess_1.jpg,Red_Triangle_Stripes_3.jpg,Blue_Circle_Dots_2.jpg,right,684.0850000008941,true,low,false
EICX8zv5,3axfspqoztbswwyvx39ztaxp9nrfjw,379j5ii41st88sktwf68grl8n71el2,EICX8zv5,2020-0188,2020-05-21,13:43:46,14:08:24,NA,incomplete,125,shape,1,right,Blue_Star_Chess_2.jpg,Blue_Triangle_Dots_3.jpg,Red_Star_Stripes_1.jpg,right,980.1699999987613,true,low,false
EICX8zv5,3axfspqoztbswwyvx39ztaxp9nrfjw,379j5ii41st88sktwf68grl8n71el2,EICX8zv5,2020-0188,2020-05-21,13:43:46,14:08:24,NA,incomplete,126,shape,1,left,Green_Plus_Chess_3.jpg,Purple_Plus_Dots_1.jpg,Green_Triangle_Grid_2.jpg,right,1245.8399999996182,false,low,false
EICX8zv5,3axfspqoztbswwyvx39ztaxp9nrfjw,379j5ii41st88sktwf68grl8n71el2,EICX8zv5,2020-0188,2020-05-21,13:43:46,14:08:24,NA,incomplete,127,shape,1,left,Purple_Star_Stripes_4.jpg,Blue_Star_Chess_3.jpg,Purple_Plus_Dots_1.jpg,left,1053.1649999974761,true,low,false
EICX8zv5,3axfspqoztbswwyvx39ztaxp9nrfjw,379j5ii41st88sktwf68grl8n71el2,EICX8zv5,2020-0188,2020-05-21,13:43:46,14:08:24,NA,incomplete,128,shape,0,right,Red_Circle_Stripes_3.jpg,Red_Triangle_Grid_1.jpg,Blue_Circle_Dots_2.jpg,right,629.3100000002887,true,low,false
EICX8zv5,3axfspqoztbswwyvx39ztaxp9nrfjw,379j5ii41st88sktwf68grl8n71el2,EICX8zv5,2020-0188,2020-05-21,13:43:46,14:08:24,NA,incomplete,129,shape,1,right,Red_Star_Chess_3.jpg,Red_Circle_Grid_4.jpg,Blue_Star_Dots_2.jpg,right,669.7050000003073,true,low,false
EICX8zv5,3axfspqoztbswwyvx39ztaxp9nrfjw,379j5ii41st88sktwf68grl8n71el2,EICX8zv5,2020-0188,2020-05-21,13:43:46,14:08:24,NA,incomplete,130,shape,1,right,Purple_Triangle_Dots_2.jpg,Purple_Circle_Chess_1.jpg,Blue_Triangle_Grid_3.jpg,right,590.4300000001676,true,low,false
EICX8zv5,3axfspqoztbswwyvx39ztaxp9nrfjw,379j5ii41st88sktwf68grl8n71el2,EICX8zv5,2020-0188,2020-05-21,13:43:46,14:08:24,NA,incomplete,131,shape,1,left,Blue_Triangle_Dots_4.jpg,Green_Triangle_Chess_3.jpg,Blue_Star_Stripes_1.jpg,left,879.1299999975599,true,low,false
EICX8zv5,3axfspqoztbswwyvx39ztaxp9nrfjw,379j5ii41st88sktwf68grl8n71el2,EICX8zv5,2020-0188,2020-05-21,13:43:46,14:08:24,NA,incomplete,132,shape,1,right,Green_Plus_Dots_1.jpg,Green_Star_Grid_4.jpg,Purple_Plus_Stripes_3.jpg,right,805.3700000017416,true,low,false
EICX8zv5,3axfspqoztbswwyvx39ztaxp9nrfjw,379j5ii41st88sktwf68grl8n71el2,EICX8zv5,2020-0188,2020-05-21,13:43:46,14:08:24,NA,incomplete,133,shape,1,right,Blue_Star_Grid_4.jpg,Blue_Plus_Chess_1.jpg,Red_Star_Dots_2.jpg,right,983.9550000033341,true,low,false
EICX8zv5,3axfspqoztbswwyvx39ztaxp9nrfjw,379j5ii41st88sktwf68grl8n71el2,EICX8zv5,2020-0188,2020-05-21,13:43:46,14:08:24,NA,incomplete,134,shape,1,left,Green_Triangle_Chess_1.jpg,Purple_Triangle_Grid_2.jpg,Green_Plus_Stripes_3.jpg,left,929.7449999977835,true,low,false
EICX8zv5,3axfspqoztbswwyvx39ztaxp9nrfjw,379j5ii41st88sktwf68grl8n71el2,EICX8zv5,2020-0188,2020-05-21,13:43:46,14:08:24,NA,incomplete,135,shape,0,left,Green_Star_Grid_3.jpg,Purple_Star_Dots_4.jpg,Green_Triangle_Chess_2.jpg,left,1177.8349999985658,true,low,false
EICX8zv5,3axfspqoztbswwyvx39ztaxp9nrfjw,379j5ii41st88sktwf68grl8n71el2,EICX8zv5,2020-0188,2020-05-21,13:43:46,14:08:24,NA,incomplete,136,shape,1,left,Green_Triangle_Chess_2.jpg,Red_Triangle_Grid_1.jpg,Green_Plus_Dots_4.jpg,left,993.5649999971502,true,low,false
EICX8zv5,3axfspqoztbswwyvx39ztaxp9nrfjw,379j5ii41st88sktwf68grl8n71el2,EICX8zv5,2020-0188,2020-05-21,13:43:46,14:08:24,NA,incomplete,137,shape,1,left,Green_Circle_Dots_2.jpg,Blue_Circle_Stripes_4.jpg,Green_Star_Chess_3.jpg,left,698.6550000000279,true,low,false
EICX8zv5,3axfspqoztbswwyvx39ztaxp9nrfjw,379j5ii41st88sktwf68grl8n71el2,EICX8zv5,2020-0188,2020-05-21,13:43:46,14:08:24,NA,incomplete,138,shape,1,left,Red_Circle_Dots_3.jpg,Purple_Circle_Grid_1.jpg,Red_Triangle_Chess_4.jpg,left,1088.8999999989755,true,low,false
EICX8zv5,3axfspqoztbswwyvx39ztaxp9nrfjw,379j5ii41st88sktwf68grl8n71el2,EICX8zv5,2020-0188,2020-05-21,13:43:46,14:08:24,NA,incomplete,139,shape,0,right,Blue_Plus_Dots_3.jpg,Blue_Triangle_Grid_4.jpg,Red_Plus_Chess_1.jpg,right,1071.0099999995437,true,low,false
EICX8zv5,3axfspqoztbswwyvx39ztaxp9nrfjw,379j5ii41st88sktwf68grl8n71el2,EICX8zv5,2020-0188,2020-05-21,13:43:46,14:08:24,NA,incomplete,140,color,1,right,Blue_Triangle_Grid_3.jpg,Green_Triangle_Stripes_4.jpg,Blue_Star_Dots_2.jpg,left,669.8549999999814,false,low,false
EICX8zv5,3axfspqoztbswwyvx39ztaxp9nrfjw,379j5ii41st88sktwf68grl8n71el2,EICX8zv5,2020-0188,2020-05-21,13:43:46,14:08:24,NA,incomplete,141,color,0,right,Purple_Circle_Dots_3.jpg,Blue_Circle_Chess_4.jpg,Purple_Plus_Grid_2.jpg,left,934.1850000019185,false,low,false
EICX8zv5,3axfspqoztbswwyvx39ztaxp9nrfjw,379j5ii41st88sktwf68grl8n71el2,EICX8zv5,2020-0188,2020-05-21,13:43:46,14:08:24,NA,incomplete,142,color,1,left,Blue_Star_Dots_3.jpg,Blue_Circle_Grid_1.jpg,Red_Star_Stripes_2.jpg,right,795.194999998901,false,low,false
EICX8zv5,3axfspqoztbswwyvx39ztaxp9nrfjw,379j5ii41st88sktwf68grl8n71el2,EICX8zv5,2020-0188,2020-05-21,13:43:46,14:08:24,NA,incomplete,143,color,1,left,Blue_Star_Grid_4.jpg,Blue_Plus_Stripes_1.jpg,Red_Star_Dots_2.jpg,right,925.1650000005029,false,low,false
EICX8zv5,3axfspqoztbswwyvx39ztaxp9nrfjw,379j5ii41st88sktwf68grl8n71el2,EICX8zv5,2020-0188,2020-05-21,13:43:46,14:08:24,NA,incomplete,144,color,1,left,Blue_Triangle_Chess_3.jpg,Blue_Circle_Dots_2.jpg,Green_Triangle_Grid_1.jpg,left,919.7349999996368,true,low,false
EICX8zv5,3axfspqoztbswwyvx39ztaxp9nrfjw,379j5ii41st88sktwf68grl8n71el2,EICX8zv5,2020-0188,2020-05-21,13:43:46,14:08:24,NA,incomplete,145,color,1,right,Blue_Circle_Stripes_3.jpg,Red_Circle_Dots_1.jpg,Blue_Triangle_Grid_4.jpg,right,720.6549999974668,true,low,false
EICX8zv5,3axfspqoztbswwyvx39ztaxp9nrfjw,379j5ii41st88sktwf68grl8n71el2,EICX8zv5,2020-0188,2020-05-21,13:43:46,14:08:24,NA,incomplete,146,color,1,left,Red_Plus_Stripes_3.jpg,Red_Triangle_Chess_1.jpg,Green_Plus_Dots_4.jpg,left,628.9350000007544,true,low,false
EICX8zv5,3axfspqoztbswwyvx39ztaxp9nrfjw,379j5ii41st88sktwf68grl8n71el2,EICX8zv5,2020-0188,2020-05-21,13:43:46,14:08:24,NA,incomplete,147,color,0,left,Green_Star_Dots_1.jpg,Green_Circle_Chess_3.jpg,Red_Star_Grid_4.jpg,left,580.8099999993574,true,low,false
EICX8zv5,3axfspqoztbswwyvx39ztaxp9nrfjw,379j5ii41st88sktwf68grl8n71el2,EICX8zv5,2020-0188,2020-05-21,13:43:46,14:08:24,NA,incomplete,148,color,1,right,Purple_Circle_Stripes_4.jpg,Blue_Circle_Grid_1.jpg,Purple_Star_Dots_2.jpg,right,1063.494999998482,true,low,false
EICX8zv5,3axfspqoztbswwyvx39ztaxp9nrfjw,379j5ii41st88sktwf68grl8n71el2,EICX8zv5,2020-0188,2020-05-21,13:43:46,14:08:24,NA,incomplete,149,color,1,left,Red_Triangle_Dots_3.jpg,Red_Plus_Chess_4.jpg,Green_Triangle_Grid_1.jpg,left,559.5749999992549,true,low,false
EICX8zv5,3axfspqoztbswwyvx39ztaxp9nrfjw,379j5ii41st88sktwf68grl8n71el2,EICX8zv5,2020-0188,2020-05-21,13:43:46,14:08:24,NA,incomplete,150,color,0,left,Red_Star_Dots_3.jpg,Red_Triangle_Chess_1.jpg,Green_Star_Grid_4.jpg,left,604.6249999997672,true,low,false
EICX8zv5,3axfspqoztbswwyvx39ztaxp9nrfjw,379j5ii41st88sktwf68grl8n71el2,EICX8zv5,2020-0188,2020-05-21,13:43:46,14:08:24,NA,incomplete,151,color,1,left,Blue_Triangle_Dots_2.jpg,Blue_Circle_Chess_1.jpg,Purple_Triangle_Grid_3.jpg,left,689.2649999973364,true,low,false
EICX8zv5,3axfspqoztbswwyvx39ztaxp9nrfjw,379j5ii41st88sktwf68grl8n71el2,EICX8zv5,2020-0188,2020-05-21,13:43:46,14:08:24,NA,incomplete,152,color,1,right,Blue_Circle_Dots_2.jpg,Purple_Circle_Chess_3.jpg,Blue_Triangle_Grid_1.jpg,left,811.2949999994598,false,low,false
EICX8zv5,3axfspqoztbswwyvx39ztaxp9nrfjw,379j5ii41st88sktwf68grl8n71el2,EICX8zv5,2020-0188,2020-05-21,13:43:46,14:08:24,NA,incomplete,153,color,1,right,Red_Plus_Chess_4.jpg,Purple_Plus_Stripes_1.jpg,Red_Circle_Grid_3.jpg,right,684.4899999997579,true,low,false
EICX8zv5,3axfspqoztbswwyvx39ztaxp9nrfjw,379j5ii41st88sktwf68grl8n71el2,EICX8zv5,2020-0188,2020-05-21,13:43:46,14:08:24,NA,incomplete,154,color,1,left,Green_Star_Dots_1.jpg,Green_Circle_Grid_3.jpg,Red_Star_Chess_4.jpg,left,667.6199999966193,true,low,false
EICX8zv5,3axfspqoztbswwyvx39ztaxp9nrfjw,379j5ii41st88sktwf68grl8n71el2,EICX8zv5,2020-0188,2020-05-21,13:43:46,14:08:24,NA,incomplete,155,color,0,right,Blue_Circle_Grid_4.jpg,Green_Circle_Dots_2.jpg,Blue_Star_Chess_1.jpg,right,653.4049999974668,true,low,false
EICX8zv5,3axfspqoztbswwyvx39ztaxp9nrfjw,379j5ii41st88sktwf68grl8n71el2,EICX8zv5,2020-0188,2020-05-21,13:43:46,14:08:24,NA,incomplete,156,color,1,left,Blue_Circle_Dots_3.jpg,Blue_Plus_Chess_2.jpg,Purple_Circle_Stripes_1.jpg,left,874.274999998277,true,low,false
EICX8zv5,3axfspqoztbswwyvx39ztaxp9nrfjw,379j5ii41st88sktwf68grl8n71el2,EICX8zv5,2020-0188,2020-05-21,13:43:46,14:08:24,NA,incomplete,157,color,1,left,Blue_Triangle_Grid_1.jpg,Blue_Star_Stripes_4.jpg,Red_Triangle_Chess_3.jpg,left,929.2199999983422,true,low,false
EICX8zv5,3axfspqoztbswwyvx39ztaxp9nrfjw,379j5ii41st88sktwf68grl8n71el2,EICX8zv5,2020-0188,2020-05-21,13:43:46,14:08:24,NA,incomplete,158,color,0,left,Green_Star_Grid_4.jpg,Green_Circle_Dots_2.jpg,Red_Star_Stripes_3.jpg,left,669.5150000015274,true,low,false
EICX8zv5,3axfspqoztbswwyvx39ztaxp9nrfjw,379j5ii41st88sktwf68grl8n71el2,EICX8zv5,2020-0188,2020-05-21,13:43:46,14:08:24,NA,incomplete,159,color,1,right,Red_Circle_Chess_2.jpg,Blue_Circle_Dots_1.jpg,Red_Star_Grid_4.jpg,right,536.4850000005681,true,low,false
EICX8zv5,3axfspqoztbswwyvx39ztaxp9nrfjw,379j5ii41st88sktwf68grl8n71el2,EICX8zv5,2020-0188,2020-05-21,13:43:46,14:08:24,NA,incomplete,160,shape,1,left,Blue_Star_Dots_2.jpg,Purple_Star_Stripes_1.jpg,Blue_Circle_Chess_3.jpg,right,695.1399999998976,false,low,false
EICX8zv5,3axfspqoztbswwyvx39ztaxp9nrfjw,379j5ii41st88sktwf68grl8n71el2,EICX8zv5,2020-0188,2020-05-21,13:43:46,14:08:24,NA,incomplete,161,shape,1,left,Green_Star_Dots_3.jpg,Red_Star_Chess_1.jpg,Green_Circle_Grid_4.jpg,right,1143.7249999979977,false,low,false
EICX8zv5,3axfspqoztbswwyvx39ztaxp9nrfjw,379j5ii41st88sktwf68grl8n71el2,EICX8zv5,2020-0188,2020-05-21,13:43:46,14:08:24,NA,incomplete,162,shape,1,left,Purple_Plus_Stripes_3.jpg,Blue_Plus_Dots_1.jpg,Purple_Star_Grid_2.jpg,left,1028.4549999996088,true,low,false
EICX8zv5,3axfspqoztbswwyvx39ztaxp9nrfjw,379j5ii41st88sktwf68grl8n71el2,EICX8zv5,2020-0188,2020-05-21,13:43:46,14:08:24,NA,incomplete,163,shape,1,right,Blue_Plus_Grid_1.jpg,Blue_Circle_Stripes_2.jpg,Red_Plus_Chess_3.jpg,right,1066.1450000007171,true,low,false
EICX8zv5,3axfspqoztbswwyvx39ztaxp9nrfjw,379j5ii41st88sktwf68grl8n71el2,EICX8zv5,2020-0188,2020-05-21,13:43:46,14:08:24,NA,incomplete,164,shape,0,left,Green_Triangle_Stripes_3.jpg,Purple_Triangle_Grid_2.jpg,Green_Circle_Dots_1.jpg,left,713.7449999973178,true,low,false
EICX8zv5,3axfspqoztbswwyvx39ztaxp9nrfjw,379j5ii41st88sktwf68grl8n71el2,EICX8zv5,2020-0188,2020-05-21,13:43:46,14:08:24,NA,incomplete,165,shape,1,right,Red_Plus_Chess_4.jpg,Red_Triangle_Stripes_1.jpg,Green_Plus_Dots_3.jpg,right,962.9499999973923,true,low,false
EICX8zv5,3axfspqoztbswwyvx39ztaxp9nrfjw,379j5ii41st88sktwf68grl8n71el2,EICX8zv5,2020-0188,2020-05-21,13:43:46,14:08:24,NA,incomplete,166,shape,0,left,Red_Plus_Chess_4.jpg,Green_Plus_Dots_2.jpg,Red_Triangle_Stripes_3.jpg,left,1011.849999998929,true,low,false
EICX8zv5,3axfspqoztbswwyvx39ztaxp9nrfjw,379j5ii41st88sktwf68grl8n71el2,EICX8zv5,2020-0188,2020-05-21,13:43:46,14:08:24,NA,incomplete,167,shape,1,right,Purple_Star_Chess_1.jpg,Purple_Circle_Grid_2.jpg,Red_Star_Dots_3.jpg,right,854.1550000009593,true,low,false
EICX8zv5,3axfspqoztbswwyvx39ztaxp9nrfjw,379j5ii41st88sktwf68grl8n71el2,EICX8zv5,2020-0188,2020-05-21,13:43:46,14:08:24,NA,incomplete,168,shape,1,left,Red_Circle_Stripes_2.jpg,Green_Circle_Grid_3.jpg,Red_Star_Dots_4.jpg,left,732.4900000020862,true,low,false
EICX8zv5,3axfspqoztbswwyvx39ztaxp9nrfjw,379j5ii41st88sktwf68grl8n71el2,EICX8zv5,2020-0188,2020-05-21,13:43:46,14:08:24,NA,incomplete,169,shape,1,right,Purple_Circle_Grid_2.jpg,Purple_Plus_Chess_3.jpg,Green_Circle_Stripes_1.jpg,right,976.2450000017416,true,low,false
EICX8zv5,3axfspqoztbswwyvx39ztaxp9nrfjw,379j5ii41st88sktwf68grl8n71el2,EICX8zv5,2020-0188,2020-05-21,13:43:46,14:08:24,NA,incomplete,170,shape,1,left,Green_Circle_Dots_3.jpg,Blue_Circle_Stripes_1.jpg,Green_Triangle_Grid_4.jpg,left,1132.904999998631,true,low,false
EICX8zv5,3axfspqoztbswwyvx39ztaxp9nrfjw,379j5ii41st88sktwf68grl8n71el2,EICX8zv5,2020-0188,2020-05-21,13:43:46,14:08:24,NA,incomplete,171,shape,1,right,Purple_Plus_Grid_4.jpg,Purple_Circle_Stripes_3.jpg,Green_Plus_Chess_2.jpg,right,792.8700000010431,true,low,false
EICX8zv5,3axfspqoztbswwyvx39ztaxp9nrfjw,379j5ii41st88sktwf68grl8n71el2,EICX8zv5,2020-0188,2020-05-21,13:43:46,14:08:24,NA,incomplete,172,shape,1,right,Purple_Star_Grid_2.jpg,Purple_Circle_Stripes_3.jpg,Green_Star_Chess_1.jpg,right,970.8199999986682,true,low,false
EICX8zv5,3axfspqoztbswwyvx39ztaxp9nrfjw,379j5ii41st88sktwf68grl8n71el2,EICX8zv5,2020-0188,2020-05-21,13:43:46,14:08:24,NA,incomplete,173,shape,1,left,Red_Star_Chess_1.jpg,Green_Star_Dots_3.jpg,Red_Plus_Grid_4.jpg,left,1109.5999999998603,true,low,false
EICX8zv5,3axfspqoztbswwyvx39ztaxp9nrfjw,379j5ii41st88sktwf68grl8n71el2,EICX8zv5,2020-0188,2020-05-21,13:43:46,14:08:24,NA,incomplete,174,shape,1,right,Blue_Plus_Grid_4.jpg,Blue_Triangle_Stripes_3.jpg,Red_Plus_Dots_2.jpg,right,700.7200000006706,true,low,false
EICX8zv5,3axfspqoztbswwyvx39ztaxp9nrfjw,379j5ii41st88sktwf68grl8n71el2,EICX8zv5,2020-0188,2020-05-21,13:43:46,14:08:24,NA,incomplete,175,shape,1,left,Green_Plus_Dots_4.jpg,Purple_Plus_Chess_3.jpg,Green_Circle_Grid_2.jpg,left,1076.3049999987707,true,low,false
EICX8zv5,3axfspqoztbswwyvx39ztaxp9nrfjw,379j5ii41st88sktwf68grl8n71el2,EICX8zv5,2020-0188,2020-05-21,13:43:46,14:08:24,NA,incomplete,176,shape,1,right,Blue_Triangle_Dots_2.jpg,Blue_Circle_Chess_3.jpg,Red_Triangle_Grid_1.jpg,right,787.0900000017136,true,low,false
EICX8zv5,3axfspqoztbswwyvx39ztaxp9nrfjw,379j5ii41st88sktwf68grl8n71el2,EICX8zv5,2020-0188,2020-05-21,13:43:46,14:08:24,NA,incomplete,177,shape,1,right,Red_Triangle_Dots_1.jpg,Red_Plus_Stripes_3.jpg,Blue_Triangle_Grid_2.jpg,right,1061.3950000007171,true,low,false
EICX8zv5,3axfspqoztbswwyvx39ztaxp9nrfjw,379j5ii41st88sktwf68grl8n71el2,EICX8zv5,2020-0188,2020-05-21,13:43:46,14:08:24,NA,incomplete,178,shape,1,right,Red_Plus_Grid_1.jpg,Red_Triangle_Stripes_2.jpg,Purple_Plus_Dots_3.jpg,right,786.5850000015926,true,low,false
EICX8zv5,3axfspqoztbswwyvx39ztaxp9nrfjw,379j5ii41st88sktwf68grl8n71el2,EICX8zv5,2020-0188,2020-05-21,13:43:46,14:08:24,NA,incomplete,179,shape,1,left,Red_Plus_Dots_4.jpg,Green_Plus_Grid_3.jpg,Red_Triangle_Chess_1.jpg,left,988.975000000326,true,low,false
EICX8zv5,3axfspqoztbswwyvx39ztaxp9nrfjw,379j5ii41st88sktwf68grl8n71el2,EICX8zv5,2020-0188,2020-05-21,13:43:46,14:08:24,NA,incomplete,180,color,1,left,Purple_Plus_Stripes_4.jpg,Purple_Star_Grid_2.jpg,Green_Plus_Chess_1.jpg,right,871.859999999404,false,low,false
EICX8zv5,3axfspqoztbswwyvx39ztaxp9nrfjw,379j5ii41st88sktwf68grl8n71el2,EICX8zv5,2020-0188,2020-05-21,13:43:46,14:08:24,NA,incomplete,181,color,1,left,Red_Circle_Stripes_1.jpg,Red_Triangle_Dots_4.jpg,Green_Circle_Grid_2.jpg,right,803.9399999980815,false,low,false
EICX8zv5,3axfspqoztbswwyvx39ztaxp9nrfjw,379j5ii41st88sktwf68grl8n71el2,EICX8zv5,2020-0188,2020-05-21,13:43:46,14:08:24,NA,incomplete,182,color,1,left,Red_Star_Chess_1.jpg,Red_Plus_Grid_2.jpg,Blue_Star_Stripes_3.jpg,left,1502.7200000004377,true,low,false
EICX8zv5,3axfspqoztbswwyvx39ztaxp9nrfjw,379j5ii41st88sktwf68grl8n71el2,EICX8zv5,2020-0188,2020-05-21,13:43:46,14:08:24,NA,incomplete,183,color,1,right,Blue_Circle_Grid_4.jpg,Green_Circle_Dots_3.jpg,Blue_Triangle_Chess_1.jpg,right,940.1699999980628,true,low,false
EICX8zv5,3axfspqoztbswwyvx39ztaxp9nrfjw,379j5ii41st88sktwf68grl8n71el2,EICX8zv5,2020-0188,2020-05-21,13:43:46,14:08:24,NA,incomplete,184,color,1,left,Blue_Circle_Stripes_2.jpg,Blue_Triangle_Chess_4.jpg,Purple_Circle_Dots_3.jpg,left,1281.0099999988452,true,low,false
EICX8zv5,3axfspqoztbswwyvx39ztaxp9nrfjw,379j5ii41st88sktwf68grl8n71el2,EICX8zv5,2020-0188,2020-05-21,13:43:46,14:08:24,NA,incomplete,185,color,1,right,Purple_Circle_Stripes_3.jpg,Green_Circle_Dots_4.jpg,Purple_Triangle_Chess_1.jpg,right,1286.200000002049,true,low,false
EICX8zv5,3axfspqoztbswwyvx39ztaxp9nrfjw,379j5ii41st88sktwf68grl8n71el2,EICX8zv5,2020-0188,2020-05-21,13:43:46,14:08:24,NA,incomplete,186,color,0,left,Red_Circle_Stripes_4.jpg,Red_Plus_Dots_2.jpg,Green_Circle_Chess_1.jpg,left,1379.2100000027567,true,low,false
EICX8zv5,3axfspqoztbswwyvx39ztaxp9nrfjw,379j5ii41st88sktwf68grl8n71el2,EICX8zv5,2020-0188,2020-05-21,13:43:46,14:08:24,NA,incomplete,187,color,1,left,Green_Plus_Grid_2.jpg,Green_Triangle_Dots_1.jpg,Blue_Plus_Chess_3.jpg,left,805.1699999994598,true,low,false
EICX8zv5,3axfspqoztbswwyvx39ztaxp9nrfjw,379j5ii41st88sktwf68grl8n71el2,EICX8zv5,2020-0188,2020-05-21,13:43:46,14:08:24,NA,incomplete,188,color,0,right,Blue_Star_Grid_1.jpg,Red_Star_Dots_3.jpg,Blue_Plus_Stripes_4.jpg,right,536.3500000021886,true,low,false
EICX8zv5,3axfspqoztbswwyvx39ztaxp9nrfjw,379j5ii41st88sktwf68grl8n71el2,EICX8zv5,2020-0188,2020-05-21,13:43:46,14:08:24,NA,incomplete,189,color,1,right,Green_Star_Dots_3.jpg,Blue_Star_Grid_1.jpg,Green_Circle_Chess_2.jpg,right,611.4699999997392,true,low,false
EICX8zv5,3axfspqoztbswwyvx39ztaxp9nrfjw,379j5ii41st88sktwf68grl8n71el2,EICX8zv5,2020-0188,2020-05-21,13:43:46,14:08:24,NA,incomplete,190,color,1,right,Red_Circle_Grid_3.jpg,Green_Circle_Chess_1.jpg,Red_Star_Dots_2.jpg,right,996.6100000019651,true,low,false
EICX8zv5,3axfspqoztbswwyvx39ztaxp9nrfjw,379j5ii41st88sktwf68grl8n71el2,EICX8zv5,2020-0188,2020-05-21,13:43:46,14:08:24,NA,incomplete,191,color,1,left,Blue_Triangle_Chess_1.jpg,Blue_Plus_Dots_2.jpg,Green_Triangle_Grid_3.jpg,left,1038.4449999984354,true,low,false
EICX8zv5,3axfspqoztbswwyvx39ztaxp9nrfjw,379j5ii41st88sktwf68grl8n71el2,EICX8zv5,2020-0188,2020-05-21,13:43:46,14:08:24,NA,incomplete,192,color,1,right,Green_Star_Stripes_2.jpg,Red_Star_Dots_4.jpg,Green_Circle_Grid_1.jpg,right,1175.0450000001583,true,low,false
EICX8zv5,3axfspqoztbswwyvx39ztaxp9nrfjw,379j5ii41st88sktwf68grl8n71el2,EICX8zv5,2020-0188,2020-05-21,13:43:46,14:08:24,NA,incomplete,193,color,1,left,Blue_Triangle_Dots_2.jpg,Blue_Circle_Stripes_3.jpg,Purple_Triangle_Grid_1.jpg,left,625.3649999999907,true,low,false
EICX8zv5,3axfspqoztbswwyvx39ztaxp9nrfjw,379j5ii41st88sktwf68grl8n71el2,EICX8zv5,2020-0188,2020-05-21,13:43:46,14:08:24,NA,incomplete,194,color,1,left,Blue_Star_Chess_4.jpg,Blue_Plus_Dots_2.jpg,Green_Star_Stripes_1.jpg,left,1117.1199999989476,true,low,false
EICX8zv5,3axfspqoztbswwyvx39ztaxp9nrfjw,379j5ii41st88sktwf68grl8n71el2,EICX8zv5,2020-0188,2020-05-21,13:43:46,14:08:24,NA,incomplete,195,color,0,left,Green_Circle_Chess_2.jpg,Green_Triangle_Dots_1.jpg,Blue_Circle_Grid_3.jpg,left,1056.5400000014342,true,low,false
EICX8zv5,3axfspqoztbswwyvx39ztaxp9nrfjw,379j5ii41st88sktwf68grl8n71el2,EICX8zv5,2020-0188,2020-05-21,13:43:46,14:08:24,NA,incomplete,196,color,1,right,Blue_Triangle_Stripes_2.jpg,Purple_Triangle_Chess_4.jpg,Blue_Star_Grid_1.jpg,right,711.9349999991246,true,low,false
EICX8zv5,3axfspqoztbswwyvx39ztaxp9nrfjw,379j5ii41st88sktwf68grl8n71el2,EICX8zv5,2020-0188,2020-05-21,13:43:46,14:08:24,NA,incomplete,197,color,1,left,Green_Plus_Stripes_3.jpg,Green_Circle_Dots_4.jpg,Blue_Plus_Chess_2.jpg,left,756.4149999998044,true,low,false
EICX8zv5,3axfspqoztbswwyvx39ztaxp9nrfjw,379j5ii41st88sktwf68grl8n71el2,EICX8zv5,2020-0188,2020-05-21,13:43:46,14:08:24,NA,incomplete,198,color,1,right,Red_Star_Grid_4.jpg,Blue_Star_Chess_3.jpg,Red_Circle_Stripes_1.jpg,right,1047.3749999983702,true,low,false
EICX8zv5,3axfspqoztbswwyvx39ztaxp9nrfjw,379j5ii41st88sktwf68grl8n71el2,EICX8zv5,2020-0188,2020-05-21,13:43:46,14:08:24,NA,incomplete,199,color,1,left,Blue_Triangle_Stripes_2.jpg,Blue_Star_Chess_1.jpg,Purple_Triangle_Dots_4.jpg,left,879.8749999988358,true,low,false
EICX8zv5,3axfspqoztbswwyvx39ztaxp9nrfjw,379j5ii41st88sktwf68grl8n71el2,EICX8zv5,2020-0188,2020-05-21,13:43:46,14:08:24,NA,incomplete,200,shape,0,right,Green_Plus_Chess_4.jpg,Green_Star_Grid_1.jpg,Blue_Plus_Stripes_3.jpg,left,565.7699999974575,false,low,false
EICX8zv5,3axfspqoztbswwyvx39ztaxp9nrfjw,379j5ii41st88sktwf68grl8n71el2,EICX8zv5,2020-0188,2020-05-21,13:43:46,14:08:24,NA,incomplete,201,shape,1,right,Blue_Plus_Chess_4.jpg,Blue_Circle_Stripes_3.jpg,Green_Plus_Dots_2.jpg,left,1011.0850000018254,false,low,false
EICX8zv5,3axfspqoztbswwyvx39ztaxp9nrfjw,379j5ii41st88sktwf68grl8n71el2,EICX8zv5,2020-0188,2020-05-21,13:43:46,14:08:24,NA,incomplete,202,shape,1,left,Purple_Circle_Dots_1.jpg,Blue_Circle_Chess_4.jpg,Purple_Triangle_Grid_3.jpg,right,1196.6249999967404,false,low,false
EICX8zv5,3axfspqoztbswwyvx39ztaxp9nrfjw,379j5ii41st88sktwf68grl8n71el2,EICX8zv5,2020-0188,2020-05-21,13:43:46,14:08:24,NA,incomplete,203,shape,1,left,Purple_Plus_Stripes_2.jpg,Green_Plus_Chess_1.jpg,Purple_Star_Grid_4.jpg,left,965.340000002645,true,low,false
EICX8zv5,3axfspqoztbswwyvx39ztaxp9nrfjw,379j5ii41st88sktwf68grl8n71el2,EICX8zv5,2020-0188,2020-05-21,13:43:46,14:08:24,NA,incomplete,204,shape,0,left,Red_Triangle_Dots_2.jpg,Green_Triangle_Grid_4.jpg,Red_Circle_Chess_1.jpg,left,805.9300000022631,true,low,false
EICX8zv5,3axfspqoztbswwyvx39ztaxp9nrfjw,379j5ii41st88sktwf68grl8n71el2,EICX8zv5,2020-0188,2020-05-21,13:43:46,14:08:24,NA,incomplete,205,shape,1,left,Blue_Star_Grid_3.jpg,Green_Star_Dots_2.jpg,Blue_Circle_Stripes_4.jpg,left,1309.7650000017602,true,low,false
EICX8zv5,3axfspqoztbswwyvx39ztaxp9nrfjw,379j5ii41st88sktwf68grl8n71el2,EICX8zv5,2020-0188,2020-05-21,13:43:46,14:08:24,NA,incomplete,206,shape,0,right,Red_Triangle_Grid_3.jpg,Red_Circle_Stripes_2.jpg,Green_Triangle_Dots_1.jpg,right,895.5199999983888,true,low,false
EICX8zv5,3axfspqoztbswwyvx39ztaxp9nrfjw,379j5ii41st88sktwf68grl8n71el2,EICX8zv5,2020-0188,2020-05-21,13:43:46,14:08:24,NA,incomplete,207,shape,1,left,Purple_Triangle_Stripes_3.jpg,Green_Triangle_Chess_2.jpg,Purple_Star_Grid_1.jpg,left,1189.8799999982584,true,low,false
EICX8zv5,3axfspqoztbswwyvx39ztaxp9nrfjw,379j5ii41st88sktwf68grl8n71el2,EICX8zv5,2020-0188,2020-05-21,13:43:46,14:08:24,NA,incomplete,208,shape,1,left,Purple_Circle_Chess_1.jpg,Green_Circle_Stripes_2.jpg,Purple_Triangle_Dots_3.jpg,left,1009.9200000003912,true,low,false
EICX8zv5,3axfspqoztbswwyvx39ztaxp9nrfjw,379j5ii41st88sktwf68grl8n71el2,EICX8zv5,2020-0188,2020-05-21,13:43:46,14:08:24,NA,incomplete,209,shape,1,left,Purple_Plus_Stripes_2.jpg,Green_Plus_Dots_1.jpg,Purple_Circle_Chess_3.jpg,left,903.8250000013504,true,low,false
EICX8zv5,3axfspqoztbswwyvx39ztaxp9nrfjw,379j5ii41st88sktwf68grl8n71el2,EICX8zv5,2020-0188,2020-05-21,13:43:46,14:08:24,NA,incomplete,210,shape,1,right,Purple_Triangle_Chess_1.jpg,Purple_Star_Grid_4.jpg,Green_Triangle_Stripes_3.jpg,right,710.269999999553,true,low,false
EICX8zv5,3axfspqoztbswwyvx39ztaxp9nrfjw,379j5ii41st88sktwf68grl8n71el2,EICX8zv5,2020-0188,2020-05-21,13:43:46,14:08:24,NA,incomplete,211,shape,0,right,Green_Star_Stripes_3.jpg,Green_Circle_Dots_1.jpg,Purple_Star_Chess_4.jpg,right,795.2599999988452,true,low,false
EICX8zv5,3axfspqoztbswwyvx39ztaxp9nrfjw,379j5ii41st88sktwf68grl8n71el2,EICX8zv5,2020-0188,2020-05-21,13:43:46,14:08:24,NA,incomplete,212,shape,1,right,Green_Star_Dots_1.jpg,Green_Circle_Grid_2.jpg,Red_Star_Chess_4.jpg,right,726.2299999999814,true,low,false
EICX8zv5,3axfspqoztbswwyvx39ztaxp9nrfjw,379j5ii41st88sktwf68grl8n71el2,EICX8zv5,2020-0188,2020-05-21,13:43:46,14:08:24,NA,incomplete,213,shape,1,left,Red_Plus_Chess_3.jpg,Blue_Plus_Dots_4.jpg,Red_Star_Stripes_1.jpg,left,820.5650000018068,true,low,false
EICX8zv5,3axfspqoztbswwyvx39ztaxp9nrfjw,379j5ii41st88sktwf68grl8n71el2,EICX8zv5,2020-0188,2020-05-21,13:43:46,14:08:24,NA,incomplete,214,shape,1,right,Red_Plus_Chess_3.jpg,Red_Circle_Grid_1.jpg,Blue_Plus_Stripes_4.jpg,right,803.7600000025705,true,low,false
EICX8zv5,3axfspqoztbswwyvx39ztaxp9nrfjw,379j5ii41st88sktwf68grl8n71el2,EICX8zv5,2020-0188,2020-05-21,13:43:46,14:08:24,NA,incomplete,215,shape,1,left,Purple_Circle_Dots_3.jpg,Blue_Circle_Chess_4.jpg,Purple_Star_Stripes_2.jpg,left,854.0800000010058,true,low,false
EICX8zv5,3axfspqoztbswwyvx39ztaxp9nrfjw,379j5ii41st88sktwf68grl8n71el2,EICX8zv5,2020-0188,2020-05-21,13:43:46,14:08:24,NA,incomplete,216,shape,1,left,Red_Triangle_Chess_2.jpg,Green_Triangle_Stripes_4.jpg,Red_Circle_Grid_1.jpg,left,846.1399999978021,true,low,false
EICX8zv5,3axfspqoztbswwyvx39ztaxp9nrfjw,379j5ii41st88sktwf68grl8n71el2,EICX8zv5,2020-0188,2020-05-21,13:43:46,14:08:24,NA,incomplete,217,shape,1,right,Blue_Triangle_Stripes_3.jpg,Blue_Plus_Dots_1.jpg,Purple_Triangle_Chess_2.jpg,right,701.8900000003632,true,low,false
EICX8zv5,3axfspqoztbswwyvx39ztaxp9nrfjw,379j5ii41st88sktwf68grl8n71el2,EICX8zv5,2020-0188,2020-05-21,13:43:46,14:08:24,NA,incomplete,218,shape,0,left,Blue_Plus_Chess_1.jpg,Red_Plus_Dots_3.jpg,Blue_Triangle_Stripes_4.jpg,left,1287.0700000021607,true,low,false
EICX8zv5,3axfspqoztbswwyvx39ztaxp9nrfjw,379j5ii41st88sktwf68grl8n71el2,EICX8zv5,2020-0188,2020-05-21,13:43:46,14:08:24,NA,incomplete,219,shape,1,right,Green_Plus_Stripes_1.jpg,Green_Triangle_Dots_4.jpg,Blue_Plus_Chess_3.jpg,right,856.5400000007357,true,low,false
EICX8zv5,3axfspqoztbswwyvx39ztaxp9nrfjw,379j5ii41st88sktwf68grl8n71el2,EICX8zv5,2020-0188,2020-05-21,13:43:46,14:08:24,NA,incomplete,220,color,1,left,Purple_Triangle_Dots_2.jpg,Purple_Circle_Grid_3.jpg,Green_Triangle_Stripes_1.jpg,right,912.9300000022631,false,low,false
EICX8zv5,3axfspqoztbswwyvx39ztaxp9nrfjw,379j5ii41st88sktwf68grl8n71el2,EICX8zv5,2020-0188,2020-05-21,13:43:46,14:08:24,NA,incomplete,221,color,1,right,Blue_Star_Dots_1.jpg,Red_Star_Chess_2.jpg,Blue_Triangle_Grid_3.jpg,left,1342.4250000023749,false,low,false
EICX8zv5,3axfspqoztbswwyvx39ztaxp9nrfjw,379j5ii41st88sktwf68grl8n71el2,EICX8zv5,2020-0188,2020-05-21,13:43:46,14:08:24,NA,incomplete,222,color,1,right,Blue_Plus_Stripes_4.jpg,Red_Plus_Grid_1.jpg,Blue_Triangle_Chess_3.jpg,right,889.749999998603,true,low,false
EICX8zv5,3axfspqoztbswwyvx39ztaxp9nrfjw,379j5ii41st88sktwf68grl8n71el2,EICX8zv5,2020-0188,2020-05-21,13:43:46,14:08:24,NA,incomplete,223,color,1,right,Purple_Star_Stripes_2.jpg,Red_Star_Grid_3.jpg,Purple_Plus_Dots_1.jpg,right,1002.4800000030082,true,low,false
EICX8zv5,3axfspqoztbswwyvx39ztaxp9nrfjw,379j5ii41st88sktwf68grl8n71el2,EICX8zv5,2020-0188,2020-05-21,13:43:46,14:08:24,NA,incomplete,224,color,0,right,Red_Plus_Dots_1.jpg,Blue_Plus_Chess_3.jpg,Red_Circle_Stripes_4.jpg,right,1657.7950000027195,true,low,false
EICX8zv5,3axfspqoztbswwyvx39ztaxp9nrfjw,379j5ii41st88sktwf68grl8n71el2,EICX8zv5,2020-0188,2020-05-21,13:43:46,14:08:24,NA,incomplete,225,color,1,left,Green_Circle_Chess_1.jpg,Green_Triangle_Stripes_3.jpg,Purple_Circle_Grid_4.jpg,left,599.7050000005402,true,low,false
EICX8zv5,3axfspqoztbswwyvx39ztaxp9nrfjw,379j5ii41st88sktwf68grl8n71el2,EICX8zv5,2020-0188,2020-05-21,13:43:46,14:08:24,NA,incomplete,226,color,0,right,Green_Plus_Stripes_1.jpg,Red_Plus_Grid_4.jpg,Green_Triangle_Chess_3.jpg,right,1130.41999999783,true,low,false
EICX8zv5,3axfspqoztbswwyvx39ztaxp9nrfjw,379j5ii41st88sktwf68grl8n71el2,EICX8zv5,2020-0188,2020-05-21,13:43:46,14:08:24,NA,incomplete,227,color,1,left,Green_Star_Grid_3.jpg,Green_Circle_Stripes_1.jpg,Red_Star_Dots_2.jpg,left,695.8699999994133,true,low,false
EICX8zv5,3axfspqoztbswwyvx39ztaxp9nrfjw,379j5ii41st88sktwf68grl8n71el2,EICX8zv5,2020-0188,2020-05-21,13:43:46,14:08:24,NA,incomplete,228,color,0,left,Green_Plus_Grid_2.jpg,Green_Circle_Stripes_3.jpg,Blue_Plus_Chess_1.jpg,left,878.6299999994226,true,low,false
EICX8zv5,3axfspqoztbswwyvx39ztaxp9nrfjw,379j5ii41st88sktwf68grl8n71el2,EICX8zv5,2020-0188,2020-05-21,13:43:46,14:08:24,NA,incomplete,229,color,1,right,Blue_Triangle_Grid_2.jpg,Green_Triangle_Stripes_3.jpg,Blue_Circle_Chess_1.jpg,right,668.2550000005867,true,low,false
EICX8zv5,3axfspqoztbswwyvx39ztaxp9nrfjw,379j5ii41st88sktwf68grl8n71el2,EICX8zv5,2020-0188,2020-05-21,13:43:46,14:08:24,NA,incomplete,230,color,0,right,Blue_Plus_Dots_4.jpg,Green_Plus_Stripes_3.jpg,Blue_Star_Grid_2.jpg,right,595.6800000022631,true,low,false
EICX8zv5,3axfspqoztbswwyvx39ztaxp9nrfjw,379j5ii41st88sktwf68grl8n71el2,EICX8zv5,2020-0188,2020-05-21,13:43:46,14:08:24,NA,incomplete,231,color,1,right,Red_Star_Stripes_1.jpg,Purple_Star_Dots_3.jpg,Red_Plus_Grid_2.jpg,right,566.9000000015367,true,low,false
EICX8zv5,3axfspqoztbswwyvx39ztaxp9nrfjw,379j5ii41st88sktwf68grl8n71el2,EICX8zv5,2020-0188,2020-05-21,13:43:46,14:08:24,NA,incomplete,232,color,1,right,Blue_Star_Stripes_4.jpg,Red_Star_Chess_1.jpg,Blue_Plus_Grid_3.jpg,right,828.8099999991246,true,low,false
EICX8zv5,3axfspqoztbswwyvx39ztaxp9nrfjw,379j5ii41st88sktwf68grl8n71el2,EICX8zv5,2020-0188,2020-05-21,13:43:46,14:08:24,NA,incomplete,233,color,1,left,Green_Star_Chess_2.jpg,Green_Triangle_Dots_3.jpg,Red_Star_Stripes_4.jpg,left,773.1399999973364,true,low,false
EICX8zv5,3axfspqoztbswwyvx39ztaxp9nrfjw,379j5ii41st88sktwf68grl8n71el2,EICX8zv5,2020-0188,2020-05-21,13:43:46,14:08:24,NA,incomplete,234,color,0,left,Purple_Triangle_Grid_4.jpg,Purple_Plus_Chess_2.jpg,Green_Triangle_Dots_1.jpg,left,598.350000000326,true,low,false
EICX8zv5,3axfspqoztbswwyvx39ztaxp9nrfjw,379j5ii41st88sktwf68grl8n71el2,EICX8zv5,2020-0188,2020-05-21,13:43:46,14:08:24,NA,incomplete,235,color,1,left,Green_Star_Stripes_2.jpg,Green_Circle_Chess_3.jpg,Purple_Star_Grid_4.jpg,left,734.6150000011548,true,low,false
EICX8zv5,3axfspqoztbswwyvx39ztaxp9nrfjw,379j5ii41st88sktwf68grl8n71el2,EICX8zv5,2020-0188,2020-05-21,13:43:46,14:08:24,NA,incomplete,236,color,1,left,Purple_Star_Grid_2.jpg,Purple_Circle_Stripes_4.jpg,Green_Star_Dots_3.jpg,left,838.2049999998417,true,low,false
EICX8zv5,3axfspqoztbswwyvx39ztaxp9nrfjw,379j5ii41st88sktwf68grl8n71el2,EICX8zv5,2020-0188,2020-05-21,13:43:46,14:08:24,NA,incomplete,237,color,1,left,Blue_Triangle_Dots_4.jpg,Blue_Star_Chess_1.jpg,Red_Triangle_Stripes_3.jpg,left,606.6299999984913,true,low,false
EICX8zv5,3axfspqoztbswwyvx39ztaxp9nrfjw,379j5ii41st88sktwf68grl8n71el2,EICX8zv5,2020-0188,2020-05-21,13:43:46,14:08:24,NA,incomplete,238,color,1,right,Red_Plus_Chess_1.jpg,Blue_Plus_Dots_2.jpg,Red_Circle_Stripes_3.jpg,right,798.2850000006147,true,low,false
EICX8zv5,3axfspqoztbswwyvx39ztaxp9nrfjw,379j5ii41st88sktwf68grl8n71el2,EICX8zv5,2020-0188,2020-05-21,13:43:46,14:08:24,NA,incomplete,239,color,1,right,Purple_Plus_Dots_1.jpg,Green_Plus_Stripes_3.jpg,Purple_Triangle_Grid_4.jpg,right,1105.0350000006147,true,low,false
EICX8zv5,3axfspqoztbswwyvx39ztaxp9nrfjw,379j5ii41st88sktwf68grl8n71el2,EICX8zv5,2020-0188,2020-05-21,13:43:46,14:08:24,NA,NA,instruction example,filling,NA,NA,Red_Circle_Stripes_4.jpg,Purple_Star_Stripes_3.jpg,Blue_Plus_Dots_4.jpg,NA,NA,NA,NA,undefined
EICX8zv5,3axfspqoztbswwyvx39ztaxp9nrfjw,379j5ii41st88sktwf68grl8n71el2,EICX8zv5,2020-0188,2020-05-21,13:43:46,14:08:24,NA,NA,instruction example,filling,NA,NA,Purple_Plus_Dots_1.jpg,Red_Star_Stripes_1.jpg,Blue_Circle_Dots_3.jpg,NA,NA,NA,NA,undefined
EICX8zv5,3axfspqoztbswwyvx39ztaxp9nrfjw,379j5ii41st88sktwf68grl8n71el2,EICX8zv5,2020-0188,2020-05-21,13:43:46,14:08:24,NA,NA,instruction example,filling,NA,NA,Blue_Circle_Chess_1.jpg,Green_Circle_Grid_2.jpg,Blue_Star_Stripes_4.jpg,NA,NA,NA,NA,undefined
EICX8zv5,3axfspqoztbswwyvx39ztaxp9nrfjw,379j5ii41st88sktwf68grl8n71el2,EICX8zv5,2020-0188,2020-05-21,13:43:46,14:08:24,NA,NA,instruction example,filling,NA,NA,Blue_Triangle_Grid_1.jpg,Blue_Star_Chess_2.jpg,Red_Triangle_Dots_4.jpg,NA,NA,NA,NA,undefined
EICX8zv5,3axfspqoztbswwyvx39ztaxp9nrfjw,379j5ii41st88sktwf68grl8n71el2,EICX8zv5,2020-0188,2020-05-21,13:43:46,14:08:24,1471389.4549999968,1499824.6799999978,NA,NA,NA,NA,NA,NA,NA,NA,NA,NA,NA,undefined
