workerId,hitId,assignmentId,subject,studyid,exp_date,exp_start,exp_end,time_start,time_end,trial,type,reward_validity,answer,image_top,image_left,image_right,response,response_time,response_acc,volatility,practice
UrxXYfm0,3j6bhnx0vc5zv8hudcso2u6bq3dnka,37qw5d2zrkze345s3lh9033h4yxs8h,UrxXYfm0,2020-0188,2020-05-21,14:31:58,14:49:33,NA,incomplete,0,color,1,right,Red_Star_Chess_1.jpg,Purple_Circle_Chess_4.jpg,Red_Triangle_Dots_2.jpg,none,0,false,NA,true
UrxXYfm0,3j6bhnx0vc5zv8hudcso2u6bq3dnka,37qw5d2zrkze345s3lh9033h4yxs8h,UrxXYfm0,2020-0188,2020-05-21,14:31:58,14:49:33,NA,incomplete,1,color,1,right,Red_Plus_Stripes_4.jpg,Blue_Circle_Stripes_2.jpg,Red_Triangle_Grid_1.jpg,right,926.194999992731,true,NA,true
UrxXYfm0,3j6bhnx0vc5zv8hudcso2u6bq3dnka,37qw5d2zrkze345s3lh9033h4yxs8h,UrxXYfm0,2020-0188,2020-05-21,14:31:58,14:49:33,NA,incomplete,2,color,1,right,Green_Circle_Chess_2.jpg,Blue_Triangle_Chess_1.jpg,Green_Star_Grid_3.jpg,right,810.7850000087637,true,NA,true
UrxXYfm0,3j6bhnx0vc5zv8hudcso2u6bq3dnka,37qw5d2zrkze345s3lh9033h4yxs8h,UrxXYfm0,2020-0188,2020-05-21,14:31:58,14:49:33,NA,incomplete,3,color,1,left,Blue_Circle_Grid_2.jpg,Blue_Triangle_Stripes_4.jpg,Red_Plus_Grid_3.jpg,left,851.4349999895785,true,NA,true
UrxXYfm0,3j6bhnx0vc5zv8hudcso2u6bq3dnka,37qw5d2zrkze345s3lh9033h4yxs8h,UrxXYfm0,2020-0188,2020-05-21,14:31:58,14:49:33,NA,incomplete,4,color,1,right,Red_Star_Grid_4.jpg,Purple_Plus_Grid_2.jpg,Red_Circle_Stripes_1.jpg,right,764.0249999967637,true,NA,true
UrxXYfm0,3j6bhnx0vc5zv8hudcso2u6bq3dnka,37qw5d2zrkze345s3lh9033h4yxs8h,UrxXYfm0,2020-0188,2020-05-21,14:31:58,14:49:33,NA,incomplete,5,color,0,left,Blue_Star_Dots_3.jpg,Blue_Circle_Chess_1.jpg,Purple_Triangle_Dots_4.jpg,left,848.0599999893457,true,NA,true
UrxXYfm0,3j6bhnx0vc5zv8hudcso2u6bq3dnka,37qw5d2zrkze345s3lh9033h4yxs8h,UrxXYfm0,2020-0188,2020-05-21,14:31:58,14:49:33,NA,incomplete,6,color,1,right,Red_Circle_Grid_2.jpg,Purple_Star_Grid_4.jpg,Red_Triangle_Chess_3.jpg,right,1071.0650000110036,true,NA,true
UrxXYfm0,3j6bhnx0vc5zv8hudcso2u6bq3dnka,37qw5d2zrkze345s3lh9033h4yxs8h,UrxXYfm0,2020-0188,2020-05-21,14:31:58,14:49:33,NA,incomplete,7,color,0,left,Blue_Circle_Grid_3.jpg,Blue_Triangle_Chess_4.jpg,Red_Plus_Grid_2.jpg,left,757.805000001099,true,NA,true
UrxXYfm0,3j6bhnx0vc5zv8hudcso2u6bq3dnka,37qw5d2zrkze345s3lh9033h4yxs8h,UrxXYfm0,2020-0188,2020-05-21,14:31:58,14:49:33,NA,incomplete,8,color,1,right,Blue_Circle_Chess_4.jpg,Red_Star_Chess_2.jpg,Blue_Triangle_Grid_1.jpg,right,730.5250000063097,true,NA,true
UrxXYfm0,3j6bhnx0vc5zv8hudcso2u6bq3dnka,37qw5d2zrkze345s3lh9033h4yxs8h,UrxXYfm0,2020-0188,2020-05-21,14:31:58,14:49:33,NA,incomplete,9,color,1,left,Purple_Plus_Grid_2.jpg,Purple_Star_Dots_4.jpg,Red_Triangle_Grid_1.jpg,left,847.7849999908358,true,NA,true
UrxXYfm0,3j6bhnx0vc5zv8hudcso2u6bq3dnka,37qw5d2zrkze345s3lh9033h4yxs8h,UrxXYfm0,2020-0188,2020-05-21,14:31:58,14:49:33,NA,incomplete,10,color,1,right,Green_Plus_Grid_4.jpg,Purple_Star_Grid_2.jpg,Green_Circle_Dots_3.jpg,right,694.7349999973085,true,NA,true
UrxXYfm0,3j6bhnx0vc5zv8hudcso2u6bq3dnka,37qw5d2zrkze345s3lh9033h4yxs8h,UrxXYfm0,2020-0188,2020-05-21,14:31:58,14:49:33,NA,incomplete,11,color,0,left,Blue_Plus_Dots_2.jpg,Blue_Star_Grid_1.jpg,Green_Triangle_Dots_4.jpg,left,909.8999999987427,true,NA,true
UrxXYfm0,3j6bhnx0vc5zv8hudcso2u6bq3dnka,37qw5d2zrkze345s3lh9033h4yxs8h,UrxXYfm0,2020-0188,2020-05-21,14:31:58,14:49:33,NA,incomplete,12,color,1,left,Green_Plus_Stripes_4.jpg,Green_Triangle_Chess_3.jpg,Red_Circle_Stripes_1.jpg,left,708.5800000058953,true,NA,true
UrxXYfm0,3j6bhnx0vc5zv8hudcso2u6bq3dnka,37qw5d2zrkze345s3lh9033h4yxs8h,UrxXYfm0,2020-0188,2020-05-21,14:31:58,14:49:33,NA,incomplete,13,color,1,right,Green_Star_Dots_3.jpg,Blue_Circle_Dots_1.jpg,Green_Plus_Chess_4.jpg,right,690.2500000142027,true,NA,true
UrxXYfm0,3j6bhnx0vc5zv8hudcso2u6bq3dnka,37qw5d2zrkze345s3lh9033h4yxs8h,UrxXYfm0,2020-0188,2020-05-21,14:31:58,14:49:33,NA,incomplete,14,color,1,left,Green_Star_Dots_2.jpg,Green_Plus_Chess_4.jpg,Purple_Triangle_Dots_1.jpg,left,632.7549999987241,true,NA,true
UrxXYfm0,3j6bhnx0vc5zv8hudcso2u6bq3dnka,37qw5d2zrkze345s3lh9033h4yxs8h,UrxXYfm0,2020-0188,2020-05-21,14:31:58,14:49:33,NA,incomplete,15,color,1,right,Red_Triangle_Dots_1.jpg,Purple_Star_Dots_4.jpg,Red_Plus_Grid_2.jpg,right,632.3750000010477,true,NA,true
UrxXYfm0,3j6bhnx0vc5zv8hudcso2u6bq3dnka,37qw5d2zrkze345s3lh9033h4yxs8h,UrxXYfm0,2020-0188,2020-05-21,14:31:58,14:49:33,NA,incomplete,16,color,1,left,Purple_Plus_Grid_2.jpg,Purple_Triangle_Dots_3.jpg,Blue_Star_Grid_1.jpg,left,690.3750000055879,true,NA,true
UrxXYfm0,3j6bhnx0vc5zv8hudcso2u6bq3dnka,37qw5d2zrkze345s3lh9033h4yxs8h,UrxXYfm0,2020-0188,2020-05-21,14:31:58,14:49:33,NA,incomplete,17,color,1,right,Purple_Triangle_Dots_4.jpg,Green_Circle_Dots_2.jpg,Purple_Plus_Grid_1.jpg,left,464.31999999913387,false,NA,true
UrxXYfm0,3j6bhnx0vc5zv8hudcso2u6bq3dnka,37qw5d2zrkze345s3lh9033h4yxs8h,UrxXYfm0,2020-0188,2020-05-21,14:31:58,14:49:33,NA,incomplete,18,color,1,left,Red_Triangle_Stripes_3.jpg,Red_Star_Chess_2.jpg,Green_Plus_Stripes_1.jpg,left,560.1699999970151,true,NA,true
UrxXYfm0,3j6bhnx0vc5zv8hudcso2u6bq3dnka,37qw5d2zrkze345s3lh9033h4yxs8h,UrxXYfm0,2020-0188,2020-05-21,14:31:58,14:49:33,NA,incomplete,19,color,1,left,Green_Triangle_Dots_4.jpg,Green_Plus_Stripes_2.jpg,Purple_Circle_Dots_3.jpg,left,717.9600000090431,true,NA,true
UrxXYfm0,3j6bhnx0vc5zv8hudcso2u6bq3dnka,37qw5d2zrkze345s3lh9033h4yxs8h,UrxXYfm0,2020-0188,2020-05-21,14:31:58,14:49:33,NA,incomplete,20,filling,0,right,Blue_Triangle_Chess_2.jpg,Blue_Star_Stripes_1.jpg,Green_Circle_Chess_3.jpg,right,1042.5649999961024,true,NA,true
UrxXYfm0,3j6bhnx0vc5zv8hudcso2u6bq3dnka,37qw5d2zrkze345s3lh9033h4yxs8h,UrxXYfm0,2020-0188,2020-05-21,14:31:58,14:49:33,NA,incomplete,21,filling,1,right,Green_Star_Dots_2.jpg,Green_Plus_Chess_4.jpg,Blue_Circle_Dots_3.jpg,right,1027.0000000018626,true,NA,true
UrxXYfm0,3j6bhnx0vc5zv8hudcso2u6bq3dnka,37qw5d2zrkze345s3lh9033h4yxs8h,UrxXYfm0,2020-0188,2020-05-21,14:31:58,14:49:33,NA,incomplete,22,filling,1,left,Blue_Plus_Dots_2.jpg,Green_Triangle_Dots_4.jpg,Blue_Star_Chess_1.jpg,left,1402.830000006361,true,NA,true
UrxXYfm0,3j6bhnx0vc5zv8hudcso2u6bq3dnka,37qw5d2zrkze345s3lh9033h4yxs8h,UrxXYfm0,2020-0188,2020-05-21,14:31:58,14:49:33,NA,incomplete,23,filling,1,right,Purple_Plus_Dots_4.jpg,Purple_Circle_Grid_3.jpg,Green_Star_Dots_1.jpg,right,1268.915000007837,true,NA,true
UrxXYfm0,3j6bhnx0vc5zv8hudcso2u6bq3dnka,37qw5d2zrkze345s3lh9033h4yxs8h,UrxXYfm0,2020-0188,2020-05-21,14:31:58,14:49:33,NA,incomplete,24,filling,1,left,Red_Star_Stripes_2.jpg,Purple_Triangle_Stripes_1.jpg,Red_Circle_Grid_3.jpg,left,1115.2900000015507,true,NA,true
UrxXYfm0,3j6bhnx0vc5zv8hudcso2u6bq3dnka,37qw5d2zrkze345s3lh9033h4yxs8h,UrxXYfm0,2020-0188,2020-05-21,14:31:58,14:49:33,NA,incomplete,25,filling,1,right,Blue_Star_Stripes_2.jpg,Blue_Circle_Dots_3.jpg,Green_Triangle_Stripes_4.jpg,right,960.8649999863701,true,NA,true
UrxXYfm0,3j6bhnx0vc5zv8hudcso2u6bq3dnka,37qw5d2zrkze345s3lh9033h4yxs8h,UrxXYfm0,2020-0188,2020-05-21,14:31:58,14:49:33,NA,incomplete,26,filling,0,right,Green_Triangle_Stripes_3.jpg,Green_Plus_Grid_2.jpg,Purple_Circle_Stripes_1.jpg,left,948.6800000013318,false,NA,true
UrxXYfm0,3j6bhnx0vc5zv8hudcso2u6bq3dnka,37qw5d2zrkze345s3lh9033h4yxs8h,UrxXYfm0,2020-0188,2020-05-21,14:31:58,14:49:33,NA,incomplete,27,filling,1,right,Green_Triangle_Dots_4.jpg,Green_Circle_Grid_3.jpg,Red_Plus_Dots_1.jpg,right,1232.6199999952223,true,NA,true
UrxXYfm0,3j6bhnx0vc5zv8hudcso2u6bq3dnka,37qw5d2zrkze345s3lh9033h4yxs8h,UrxXYfm0,2020-0188,2020-05-21,14:31:58,14:49:33,NA,incomplete,28,filling,1,left,Purple_Star_Dots_2.jpg,Green_Triangle_Dots_4.jpg,Purple_Circle_Chess_1.jpg,left,1097.5200000102632,true,NA,true
UrxXYfm0,3j6bhnx0vc5zv8hudcso2u6bq3dnka,37qw5d2zrkze345s3lh9033h4yxs8h,UrxXYfm0,2020-0188,2020-05-21,14:31:58,14:49:33,NA,incomplete,29,filling,1,right,Purple_Plus_Stripes_4.jpg,Purple_Circle_Grid_2.jpg,Green_Triangle_Stripes_3.jpg,right,959.6350000065286,true,NA,true
UrxXYfm0,3j6bhnx0vc5zv8hudcso2u6bq3dnka,37qw5d2zrkze345s3lh9033h4yxs8h,UrxXYfm0,2020-0188,2020-05-21,14:31:58,14:49:33,NA,incomplete,30,filling,0,left,Blue_Triangle_Stripes_2.jpg,Purple_Circle_Stripes_4.jpg,Blue_Star_Chess_3.jpg,left,1027.0849999942584,true,NA,true
UrxXYfm0,3j6bhnx0vc5zv8hudcso2u6bq3dnka,37qw5d2zrkze345s3lh9033h4yxs8h,UrxXYfm0,2020-0188,2020-05-21,14:31:58,14:49:33,NA,incomplete,31,filling,1,left,Green_Plus_Dots_3.jpg,Purple_Circle_Dots_2.jpg,Green_Star_Chess_4.jpg,left,1155.784999995376,true,NA,true
UrxXYfm0,3j6bhnx0vc5zv8hudcso2u6bq3dnka,37qw5d2zrkze345s3lh9033h4yxs8h,UrxXYfm0,2020-0188,2020-05-21,14:31:58,14:49:33,NA,incomplete,32,filling,0,left,Green_Star_Grid_1.jpg,Red_Triangle_Grid_4.jpg,Green_Plus_Dots_2.jpg,left,1135.519999996177,true,NA,true
UrxXYfm0,3j6bhnx0vc5zv8hudcso2u6bq3dnka,37qw5d2zrkze345s3lh9033h4yxs8h,UrxXYfm0,2020-0188,2020-05-21,14:31:58,14:49:33,NA,incomplete,33,filling,0,left,Purple_Triangle_Grid_4.jpg,Red_Plus_Grid_1.jpg,Purple_Circle_Dots_3.jpg,left,931.88000000373,true,NA,true
UrxXYfm0,3j6bhnx0vc5zv8hudcso2u6bq3dnka,37qw5d2zrkze345s3lh9033h4yxs8h,UrxXYfm0,2020-0188,2020-05-21,14:31:58,14:49:33,NA,incomplete,34,filling,1,right,Purple_Star_Stripes_4.jpg,Purple_Plus_Dots_1.jpg,Red_Triangle_Stripes_3.jpg,right,816.9449999986682,true,NA,true
UrxXYfm0,3j6bhnx0vc5zv8hudcso2u6bq3dnka,37qw5d2zrkze345s3lh9033h4yxs8h,UrxXYfm0,2020-0188,2020-05-21,14:31:58,14:49:33,NA,incomplete,35,filling,1,right,Purple_Plus_Dots_1.jpg,Purple_Triangle_Chess_2.jpg,Green_Star_Dots_4.jpg,right,954.3150000099558,true,NA,true
UrxXYfm0,3j6bhnx0vc5zv8hudcso2u6bq3dnka,37qw5d2zrkze345s3lh9033h4yxs8h,UrxXYfm0,2020-0188,2020-05-21,14:31:58,14:49:33,NA,incomplete,36,filling,1,right,Red_Triangle_Chess_2.jpg,Red_Star_Dots_4.jpg,Green_Circle_Chess_3.jpg,right,893.7100000039209,true,NA,true
UrxXYfm0,3j6bhnx0vc5zv8hudcso2u6bq3dnka,37qw5d2zrkze345s3lh9033h4yxs8h,UrxXYfm0,2020-0188,2020-05-21,14:31:58,14:49:33,NA,incomplete,37,filling,1,right,Blue_Circle_Stripes_2.jpg,Blue_Triangle_Chess_3.jpg,Red_Star_Stripes_4.jpg,right,1028.8850000069942,true,NA,true
UrxXYfm0,3j6bhnx0vc5zv8hudcso2u6bq3dnka,37qw5d2zrkze345s3lh9033h4yxs8h,UrxXYfm0,2020-0188,2020-05-21,14:31:58,14:49:33,NA,incomplete,38,filling,1,right,Purple_Star_Grid_1.jpg,Purple_Plus_Dots_2.jpg,Blue_Circle_Grid_4.jpg,right,981.404999998631,true,NA,true
UrxXYfm0,3j6bhnx0vc5zv8hudcso2u6bq3dnka,37qw5d2zrkze345s3lh9033h4yxs8h,UrxXYfm0,2020-0188,2020-05-21,14:31:58,14:49:33,NA,incomplete,39,filling,1,left,Red_Circle_Chess_3.jpg,Blue_Triangle_Chess_1.jpg,Red_Plus_Stripes_4.jpg,left,863.7700000108453,true,NA,true
UrxXYfm0,3j6bhnx0vc5zv8hudcso2u6bq3dnka,37qw5d2zrkze345s3lh9033h4yxs8h,UrxXYfm0,2020-0188,2020-05-21,14:31:58,14:49:33,NA,incomplete,0,color,1,left,Blue_Star_Chess_1.jpg,Blue_Plus_Grid_3.jpg,Purple_Triangle_Chess_4.jpg,right,1079.425000003539,false,high,false
UrxXYfm0,3j6bhnx0vc5zv8hudcso2u6bq3dnka,37qw5d2zrkze345s3lh9033h4yxs8h,UrxXYfm0,2020-0188,2020-05-21,14:31:58,14:49:33,NA,incomplete,1,color,1,right,Green_Plus_Grid_3.jpg,Blue_Star_Grid_2.jpg,Green_Triangle_Chess_4.jpg,left,1110.9399999986636,false,high,false
UrxXYfm0,3j6bhnx0vc5zv8hudcso2u6bq3dnka,37qw5d2zrkze345s3lh9033h4yxs8h,UrxXYfm0,2020-0188,2020-05-21,14:31:58,14:49:33,NA,incomplete,2,color,1,left,Green_Plus_Stripes_4.jpg,Green_Circle_Grid_3.jpg,Red_Star_Stripes_2.jpg,left,732.5950000085868,true,high,false
UrxXYfm0,3j6bhnx0vc5zv8hudcso2u6bq3dnka,37qw5d2zrkze345s3lh9033h4yxs8h,UrxXYfm0,2020-0188,2020-05-21,14:31:58,14:49:33,NA,incomplete,3,color,0,right,Purple_Circle_Chess_2.jpg,Green_Star_Chess_4.jpg,Purple_Triangle_Dots_3.jpg,right,441.15499999315944,true,high,false
UrxXYfm0,3j6bhnx0vc5zv8hudcso2u6bq3dnka,37qw5d2zrkze345s3lh9033h4yxs8h,UrxXYfm0,2020-0188,2020-05-21,14:31:58,14:49:33,NA,incomplete,4,color,1,right,Green_Star_Stripes_4.jpg,Purple_Triangle_Stripes_3.jpg,Green_Plus_Dots_2.jpg,right,522.46500000183,true,high,false
UrxXYfm0,3j6bhnx0vc5zv8hudcso2u6bq3dnka,37qw5d2zrkze345s3lh9033h4yxs8h,UrxXYfm0,2020-0188,2020-05-21,14:31:58,14:49:33,NA,incomplete,5,color,1,left,Red_Star_Chess_3.jpg,Red_Plus_Dots_4.jpg,Green_Circle_Chess_1.jpg,left,584.2200000042794,true,high,false
UrxXYfm0,3j6bhnx0vc5zv8hudcso2u6bq3dnka,37qw5d2zrkze345s3lh9033h4yxs8h,UrxXYfm0,2020-0188,2020-05-21,14:31:58,14:49:33,NA,incomplete,6,color,1,right,Blue_Triangle_Chess_2.jpg,Green_Plus_Chess_3.jpg,Blue_Star_Grid_4.jpg,right,506.93000000319444,true,high,false
UrxXYfm0,3j6bhnx0vc5zv8hudcso2u6bq3dnka,37qw5d2zrkze345s3lh9033h4yxs8h,UrxXYfm0,2020-0188,2020-05-21,14:31:58,14:49:33,NA,incomplete,7,color,1,left,Blue_Circle_Grid_3.jpg,Blue_Plus_Chess_1.jpg,Purple_Star_Grid_2.jpg,left,488.01000000094064,true,high,false
UrxXYfm0,3j6bhnx0vc5zv8hudcso2u6bq3dnka,37qw5d2zrkze345s3lh9033h4yxs8h,UrxXYfm0,2020-0188,2020-05-21,14:31:58,14:49:33,NA,incomplete,8,color,1,left,Purple_Star_Chess_4.jpg,Purple_Triangle_Stripes_1.jpg,Blue_Plus_Chess_3.jpg,left,582.7950000093551,true,high,false
UrxXYfm0,3j6bhnx0vc5zv8hudcso2u6bq3dnka,37qw5d2zrkze345s3lh9033h4yxs8h,UrxXYfm0,2020-0188,2020-05-21,14:31:58,14:49:33,NA,incomplete,9,color,1,right,Red_Star_Stripes_4.jpg,Blue_Circle_Stripes_1.jpg,Red_Triangle_Grid_2.jpg,right,498.539999985951,true,high,false
UrxXYfm0,3j6bhnx0vc5zv8hudcso2u6bq3dnka,37qw5d2zrkze345s3lh9033h4yxs8h,UrxXYfm0,2020-0188,2020-05-21,14:31:58,14:49:33,NA,incomplete,10,filling,0,left,Red_Star_Dots_4.jpg,Blue_Circle_Dots_1.jpg,Red_Plus_Chess_2.jpg,right,433.4250000101747,false,high,false
UrxXYfm0,3j6bhnx0vc5zv8hudcso2u6bq3dnka,37qw5d2zrkze345s3lh9033h4yxs8h,UrxXYfm0,2020-0188,2020-05-21,14:31:58,14:49:33,NA,incomplete,11,filling,1,left,Red_Circle_Chess_2.jpg,Purple_Plus_Chess_3.jpg,Red_Triangle_Grid_1.jpg,right,450.924999997369,false,high,false
UrxXYfm0,3j6bhnx0vc5zv8hudcso2u6bq3dnka,37qw5d2zrkze345s3lh9033h4yxs8h,UrxXYfm0,2020-0188,2020-05-21,14:31:58,14:49:33,NA,incomplete,12,filling,1,left,Red_Plus_Chess_4.jpg,Green_Triangle_Chess_1.jpg,Red_Circle_Stripes_3.jpg,right,458.4549999999581,false,high,false
UrxXYfm0,3j6bhnx0vc5zv8hudcso2u6bq3dnka,37qw5d2zrkze345s3lh9033h4yxs8h,UrxXYfm0,2020-0188,2020-05-21,14:31:58,14:49:33,NA,incomplete,13,filling,1,left,Blue_Plus_Dots_3.jpg,Purple_Star_Dots_4.jpg,Blue_Triangle_Chess_1.jpg,left,658.4350000048289,true,high,false
UrxXYfm0,3j6bhnx0vc5zv8hudcso2u6bq3dnka,37qw5d2zrkze345s3lh9033h4yxs8h,UrxXYfm0,2020-0188,2020-05-21,14:31:58,14:49:33,NA,incomplete,14,filling,0,right,Blue_Star_Chess_3.jpg,Blue_Plus_Dots_1.jpg,Green_Circle_Chess_2.jpg,right,747.4800000054529,true,high,false
UrxXYfm0,3j6bhnx0vc5zv8hudcso2u6bq3dnka,37qw5d2zrkze345s3lh9033h4yxs8h,UrxXYfm0,2020-0188,2020-05-21,14:31:58,14:49:33,NA,incomplete,15,filling,0,right,Green_Circle_Chess_4.jpg,Green_Plus_Grid_1.jpg,Purple_Star_Chess_3.jpg,right,774.9949999997625,true,high,false
UrxXYfm0,3j6bhnx0vc5zv8hudcso2u6bq3dnka,37qw5d2zrkze345s3lh9033h4yxs8h,UrxXYfm0,2020-0188,2020-05-21,14:31:58,14:49:33,NA,incomplete,16,filling,1,right,Green_Triangle_Stripes_4.jpg,Green_Circle_Dots_2.jpg,Red_Star_Stripes_3.jpg,left,658.5800000029849,false,high,false
UrxXYfm0,3j6bhnx0vc5zv8hudcso2u6bq3dnka,37qw5d2zrkze345s3lh9033h4yxs8h,UrxXYfm0,2020-0188,2020-05-21,14:31:58,14:49:33,NA,incomplete,17,filling,1,left,Purple_Star_Dots_1.jpg,Green_Plus_Dots_3.jpg,Purple_Circle_Grid_4.jpg,right,570.1699999917764,false,high,false
UrxXYfm0,3j6bhnx0vc5zv8hudcso2u6bq3dnka,37qw5d2zrkze345s3lh9033h4yxs8h,UrxXYfm0,2020-0188,2020-05-21,14:31:58,14:49:33,NA,incomplete,18,filling,0,left,Blue_Triangle_Grid_3.jpg,Purple_Circle_Grid_4.jpg,Blue_Plus_Dots_2.jpg,left,750.0149999978021,true,high,false
UrxXYfm0,3j6bhnx0vc5zv8hudcso2u6bq3dnka,37qw5d2zrkze345s3lh9033h4yxs8h,UrxXYfm0,2020-0188,2020-05-21,14:31:58,14:49:33,NA,incomplete,19,filling,0,left,Blue_Circle_Chess_1.jpg,Green_Triangle_Chess_2.jpg,Blue_Plus_Stripes_4.jpg,right,754.4599999964703,false,high,false
UrxXYfm0,3j6bhnx0vc5zv8hudcso2u6bq3dnka,37qw5d2zrkze345s3lh9033h4yxs8h,UrxXYfm0,2020-0188,2020-05-21,14:31:58,14:49:33,NA,incomplete,20,color,1,right,Purple_Circle_Stripes_3.jpg,Green_Star_Stripes_4.jpg,Purple_Triangle_Grid_2.jpg,right,550.1650000078371,true,high,false
UrxXYfm0,3j6bhnx0vc5zv8hudcso2u6bq3dnka,37qw5d2zrkze345s3lh9033h4yxs8h,UrxXYfm0,2020-0188,2020-05-21,14:31:58,14:49:33,NA,incomplete,21,color,0,right,Purple_Triangle_Stripes_1.jpg,Red_Circle_Stripes_4.jpg,Purple_Star_Grid_2.jpg,right,913.7100000079954,true,high,false
UrxXYfm0,3j6bhnx0vc5zv8hudcso2u6bq3dnka,37qw5d2zrkze345s3lh9033h4yxs8h,UrxXYfm0,2020-0188,2020-05-21,14:31:58,14:49:33,NA,incomplete,22,color,1,right,Green_Plus_Chess_4.jpg,Purple_Triangle_Chess_3.jpg,Green_Star_Stripes_2.jpg,right,480.23499999544583,true,high,false
UrxXYfm0,3j6bhnx0vc5zv8hudcso2u6bq3dnka,37qw5d2zrkze345s3lh9033h4yxs8h,UrxXYfm0,2020-0188,2020-05-21,14:31:58,14:49:33,NA,incomplete,23,color,1,left,Green_Star_Chess_4.jpg,Green_Circle_Grid_1.jpg,Red_Triangle_Chess_2.jpg,left,447.54000000830274,true,high,false
UrxXYfm0,3j6bhnx0vc5zv8hudcso2u6bq3dnka,37qw5d2zrkze345s3lh9033h4yxs8h,UrxXYfm0,2020-0188,2020-05-21,14:31:58,14:49:33,NA,incomplete,24,color,1,right,Green_Triangle_Chess_3.jpg,Blue_Star_Chess_1.jpg,Green_Plus_Grid_4.jpg,right,552.2749999945518,true,high,false
UrxXYfm0,3j6bhnx0vc5zv8hudcso2u6bq3dnka,37qw5d2zrkze345s3lh9033h4yxs8h,UrxXYfm0,2020-0188,2020-05-21,14:31:58,14:49:33,NA,incomplete,25,color,0,right,Blue_Triangle_Chess_1.jpg,Purple_Star_Chess_4.jpg,Blue_Plus_Dots_2.jpg,right,435.83000000217,true,high,false
UrxXYfm0,3j6bhnx0vc5zv8hudcso2u6bq3dnka,37qw5d2zrkze345s3lh9033h4yxs8h,UrxXYfm0,2020-0188,2020-05-21,14:31:58,14:49:33,NA,incomplete,26,color,1,left,Green_Star_Grid_3.jpg,Green_Plus_Chess_2.jpg,Red_Circle_Grid_4.jpg,left,507.9450000048382,true,high,false
UrxXYfm0,3j6bhnx0vc5zv8hudcso2u6bq3dnka,37qw5d2zrkze345s3lh9033h4yxs8h,UrxXYfm0,2020-0188,2020-05-21,14:31:58,14:49:33,NA,incomplete,27,color,1,left,Red_Triangle_Stripes_3.jpg,Red_Star_Dots_4.jpg,Purple_Plus_Stripes_1.jpg,left,418.9850000111619,true,high,false
UrxXYfm0,3j6bhnx0vc5zv8hudcso2u6bq3dnka,37qw5d2zrkze345s3lh9033h4yxs8h,UrxXYfm0,2020-0188,2020-05-21,14:31:58,14:49:33,NA,incomplete,28,color,1,right,Purple_Circle_Grid_1.jpg,Green_Triangle_Grid_2.jpg,Purple_Plus_Dots_4.jpg,right,451.35499999742024,true,high,false
UrxXYfm0,3j6bhnx0vc5zv8hudcso2u6bq3dnka,37qw5d2zrkze345s3lh9033h4yxs8h,UrxXYfm0,2020-0188,2020-05-21,14:31:58,14:49:33,NA,incomplete,29,color,1,right,Green_Circle_Grid_1.jpg,Red_Triangle_Grid_2.jpg,Green_Star_Stripes_4.jpg,right,404.53499999421183,true,high,false
UrxXYfm0,3j6bhnx0vc5zv8hudcso2u6bq3dnka,37qw5d2zrkze345s3lh9033h4yxs8h,UrxXYfm0,2020-0188,2020-05-21,14:31:58,14:49:33,NA,incomplete,30,filling,1,right,Green_Circle_Stripes_3.jpg,Green_Triangle_Chess_1.jpg,Red_Plus_Stripes_2.jpg,left,431.2999999965541,false,high,false
UrxXYfm0,3j6bhnx0vc5zv8hudcso2u6bq3dnka,37qw5d2zrkze345s3lh9033h4yxs8h,UrxXYfm0,2020-0188,2020-05-21,14:31:58,14:49:33,NA,incomplete,31,filling,1,right,Green_Star_Chess_4.jpg,Green_Triangle_Dots_2.jpg,Purple_Circle_Chess_1.jpg,left,415.47500000160653,false,high,false
UrxXYfm0,3j6bhnx0vc5zv8hudcso2u6bq3dnka,37qw5d2zrkze345s3lh9033h4yxs8h,UrxXYfm0,2020-0188,2020-05-21,14:31:58,14:49:33,NA,incomplete,32,filling,1,left,Blue_Triangle_Chess_4.jpg,Green_Star_Chess_1.jpg,Blue_Plus_Stripes_2.jpg,right,530.0099999876693,false,high,false
UrxXYfm0,3j6bhnx0vc5zv8hudcso2u6bq3dnka,37qw5d2zrkze345s3lh9033h4yxs8h,UrxXYfm0,2020-0188,2020-05-21,14:31:58,14:49:33,NA,incomplete,33,filling,1,left,Purple_Star_Dots_1.jpg,Blue_Triangle_Dots_3.jpg,Purple_Circle_Grid_2.jpg,left,743.3799999998882,true,high,false
UrxXYfm0,3j6bhnx0vc5zv8hudcso2u6bq3dnka,37qw5d2zrkze345s3lh9033h4yxs8h,UrxXYfm0,2020-0188,2020-05-21,14:31:58,14:49:33,NA,incomplete,34,filling,1,right,Green_Star_Grid_1.jpg,Green_Circle_Chess_4.jpg,Purple_Plus_Grid_3.jpg,right,835.3599999973085,true,high,false
UrxXYfm0,3j6bhnx0vc5zv8hudcso2u6bq3dnka,37qw5d2zrkze345s3lh9033h4yxs8h,UrxXYfm0,2020-0188,2020-05-21,14:31:58,14:49:33,NA,incomplete,35,filling,0,left,Purple_Circle_Dots_3.jpg,Red_Plus_Dots_4.jpg,Purple_Star_Grid_2.jpg,left,612.3349999979837,true,high,false
UrxXYfm0,3j6bhnx0vc5zv8hudcso2u6bq3dnka,37qw5d2zrkze345s3lh9033h4yxs8h,UrxXYfm0,2020-0188,2020-05-21,14:31:58,14:49:33,NA,incomplete,36,filling,1,left,Green_Triangle_Chess_4.jpg,Red_Star_Chess_3.jpg,Green_Circle_Grid_2.jpg,left,718.3950000035111,true,high,false
UrxXYfm0,3j6bhnx0vc5zv8hudcso2u6bq3dnka,37qw5d2zrkze345s3lh9033h4yxs8h,UrxXYfm0,2020-0188,2020-05-21,14:31:58,14:49:33,NA,incomplete,37,filling,1,left,Purple_Plus_Grid_1.jpg,Green_Triangle_Grid_2.jpg,Purple_Circle_Stripes_3.jpg,left,771.6999999975087,true,high,false
UrxXYfm0,3j6bhnx0vc5zv8hudcso2u6bq3dnka,37qw5d2zrkze345s3lh9033h4yxs8h,UrxXYfm0,2020-0188,2020-05-21,14:31:58,14:49:33,NA,incomplete,38,filling,1,right,Red_Circle_Dots_3.jpg,Red_Star_Grid_1.jpg,Purple_Plus_Dots_2.jpg,right,646.5700000117067,true,high,false
UrxXYfm0,3j6bhnx0vc5zv8hudcso2u6bq3dnka,37qw5d2zrkze345s3lh9033h4yxs8h,UrxXYfm0,2020-0188,2020-05-21,14:31:58,14:49:33,NA,incomplete,39,filling,1,left,Purple_Plus_Stripes_2.jpg,Red_Circle_Stripes_1.jpg,Purple_Triangle_Grid_4.jpg,left,871.0949999949662,true,high,false
UrxXYfm0,3j6bhnx0vc5zv8hudcso2u6bq3dnka,37qw5d2zrkze345s3lh9033h4yxs8h,UrxXYfm0,2020-0188,2020-05-21,14:31:58,14:49:33,NA,incomplete,40,color,0,right,Blue_Plus_Dots_1.jpg,Green_Triangle_Dots_2.jpg,Blue_Circle_Grid_4.jpg,left,829.4949999981327,false,high,false
UrxXYfm0,3j6bhnx0vc5zv8hudcso2u6bq3dnka,37qw5d2zrkze345s3lh9033h4yxs8h,UrxXYfm0,2020-0188,2020-05-21,14:31:58,14:49:33,NA,incomplete,41,color,1,left,Green_Circle_Grid_3.jpg,Green_Triangle_Dots_1.jpg,Purple_Plus_Grid_2.jpg,right,582.9599999997299,false,high,false
UrxXYfm0,3j6bhnx0vc5zv8hudcso2u6bq3dnka,37qw5d2zrkze345s3lh9033h4yxs8h,UrxXYfm0,2020-0188,2020-05-21,14:31:58,14:49:33,NA,incomplete,42,color,1,left,Purple_Circle_Grid_1.jpg,Purple_Triangle_Chess_2.jpg,Red_Plus_Grid_4.jpg,left,706.1849999881815,true,high,false
UrxXYfm0,3j6bhnx0vc5zv8hudcso2u6bq3dnka,37qw5d2zrkze345s3lh9033h4yxs8h,UrxXYfm0,2020-0188,2020-05-21,14:31:58,14:49:33,NA,incomplete,43,color,1,right,Red_Triangle_Dots_1.jpg,Purple_Star_Dots_2.jpg,Red_Plus_Stripes_3.jpg,right,791.3799999951152,true,high,false
UrxXYfm0,3j6bhnx0vc5zv8hudcso2u6bq3dnka,37qw5d2zrkze345s3lh9033h4yxs8h,UrxXYfm0,2020-0188,2020-05-21,14:31:58,14:49:33,NA,incomplete,44,color,0,left,Red_Star_Grid_1.jpg,Red_Plus_Dots_2.jpg,Blue_Circle_Grid_3.jpg,left,674.6399999974528,true,high,false
UrxXYfm0,3j6bhnx0vc5zv8hudcso2u6bq3dnka,37qw5d2zrkze345s3lh9033h4yxs8h,UrxXYfm0,2020-0188,2020-05-21,14:31:58,14:49:33,NA,incomplete,45,color,0,left,Blue_Triangle_Dots_2.jpg,Blue_Star_Stripes_1.jpg,Purple_Circle_Dots_4.jpg,left,570.5799999996088,true,high,false
UrxXYfm0,3j6bhnx0vc5zv8hudcso2u6bq3dnka,37qw5d2zrkze345s3lh9033h4yxs8h,UrxXYfm0,2020-0188,2020-05-21,14:31:58,14:49:33,NA,incomplete,46,color,0,left,Green_Circle_Chess_1.jpg,Green_Plus_Dots_4.jpg,Red_Star_Chess_3.jpg,left,573.0650000041351,true,high,false
UrxXYfm0,3j6bhnx0vc5zv8hudcso2u6bq3dnka,37qw5d2zrkze345s3lh9033h4yxs8h,UrxXYfm0,2020-0188,2020-05-21,14:31:58,14:49:33,NA,incomplete,47,color,1,right,Red_Star_Grid_2.jpg,Purple_Triangle_Grid_1.jpg,Red_Plus_Dots_3.jpg,left,776.030000008177,false,high,false
UrxXYfm0,3j6bhnx0vc5zv8hudcso2u6bq3dnka,37qw5d2zrkze345s3lh9033h4yxs8h,UrxXYfm0,2020-0188,2020-05-21,14:31:58,14:49:33,NA,incomplete,48,color,1,left,Red_Star_Chess_2.jpg,Red_Circle_Dots_4.jpg,Blue_Triangle_Chess_3.jpg,right,723.6850000044797,false,high,false
UrxXYfm0,3j6bhnx0vc5zv8hudcso2u6bq3dnka,37qw5d2zrkze345s3lh9033h4yxs8h,UrxXYfm0,2020-0188,2020-05-21,14:31:58,14:49:33,NA,incomplete,49,color,1,right,Green_Star_Dots_4.jpg,Red_Triangle_Dots_2.jpg,Green_Plus_Stripes_1.jpg,left,913.2249999966007,false,high,false
UrxXYfm0,3j6bhnx0vc5zv8hudcso2u6bq3dnka,37qw5d2zrkze345s3lh9033h4yxs8h,UrxXYfm0,2020-0188,2020-05-21,14:31:58,14:49:33,NA,incomplete,50,filling,1,right,Blue_Plus_Dots_3.jpg,Blue_Star_Chess_2.jpg,Red_Circle_Dots_1.jpg,left,654.9249999952735,false,high,false
UrxXYfm0,3j6bhnx0vc5zv8hudcso2u6bq3dnka,37qw5d2zrkze345s3lh9033h4yxs8h,UrxXYfm0,2020-0188,2020-05-21,14:31:58,14:49:33,NA,incomplete,51,filling,1,left,Red_Triangle_Stripes_1.jpg,Blue_Star_Stripes_2.jpg,Red_Plus_Dots_4.jpg,left,749.4999999908032,true,high,false
UrxXYfm0,3j6bhnx0vc5zv8hudcso2u6bq3dnka,37qw5d2zrkze345s3lh9033h4yxs8h,UrxXYfm0,2020-0188,2020-05-21,14:31:58,14:49:33,NA,incomplete,52,filling,1,right,Blue_Star_Stripes_3.jpg,Blue_Triangle_Grid_4.jpg,Purple_Circle_Stripes_2.jpg,left,506.439999997383,false,high,false
UrxXYfm0,3j6bhnx0vc5zv8hudcso2u6bq3dnka,37qw5d2zrkze345s3lh9033h4yxs8h,UrxXYfm0,2020-0188,2020-05-21,14:31:58,14:49:33,NA,incomplete,53,filling,0,right,Blue_Triangle_Stripes_2.jpg,Blue_Plus_Dots_3.jpg,Purple_Star_Stripes_1.jpg,right,839.2299999977695,true,high,false
UrxXYfm0,3j6bhnx0vc5zv8hudcso2u6bq3dnka,37qw5d2zrkze345s3lh9033h4yxs8h,UrxXYfm0,2020-0188,2020-05-21,14:31:58,14:49:33,NA,incomplete,54,filling,0,right,Blue_Star_Grid_4.jpg,Blue_Triangle_Dots_3.jpg,Red_Plus_Grid_1.jpg,right,969.0350000018952,true,high,false
UrxXYfm0,3j6bhnx0vc5zv8hudcso2u6bq3dnka,37qw5d2zrkze345s3lh9033h4yxs8h,UrxXYfm0,2020-0188,2020-05-21,14:31:58,14:49:33,NA,incomplete,55,filling,1,right,Purple_Circle_Chess_1.jpg,Purple_Triangle_Dots_2.jpg,Red_Star_Chess_4.jpg,right,923.834999994142,true,high,false
UrxXYfm0,3j6bhnx0vc5zv8hudcso2u6bq3dnka,37qw5d2zrkze345s3lh9033h4yxs8h,UrxXYfm0,2020-0188,2020-05-21,14:31:58,14:49:33,NA,incomplete,56,filling,1,right,Red_Circle_Grid_3.jpg,Red_Star_Dots_2.jpg,Green_Triangle_Grid_4.jpg,right,680.3599999984726,true,high,false
UrxXYfm0,3j6bhnx0vc5zv8hudcso2u6bq3dnka,37qw5d2zrkze345s3lh9033h4yxs8h,UrxXYfm0,2020-0188,2020-05-21,14:31:58,14:49:33,NA,incomplete,57,filling,0,left,Blue_Star_Stripes_3.jpg,Green_Circle_Stripes_2.jpg,Blue_Plus_Chess_4.jpg,left,702.835000003688,true,high,false
UrxXYfm0,3j6bhnx0vc5zv8hudcso2u6bq3dnka,37qw5d2zrkze345s3lh9033h4yxs8h,UrxXYfm0,2020-0188,2020-05-21,14:31:58,14:49:33,NA,incomplete,58,filling,1,left,Green_Circle_Dots_3.jpg,Purple_Plus_Dots_4.jpg,Green_Star_Grid_1.jpg,left,813.4450000070501,true,high,false
UrxXYfm0,3j6bhnx0vc5zv8hudcso2u6bq3dnka,37qw5d2zrkze345s3lh9033h4yxs8h,UrxXYfm0,2020-0188,2020-05-21,14:31:58,14:49:33,NA,incomplete,59,filling,1,left,Green_Triangle_Stripes_3.jpg,Purple_Circle_Stripes_1.jpg,Green_Star_Dots_2.jpg,left,766.539999996894,true,high,false
UrxXYfm0,3j6bhnx0vc5zv8hudcso2u6bq3dnka,37qw5d2zrkze345s3lh9033h4yxs8h,UrxXYfm0,2020-0188,2020-05-21,14:31:58,14:49:33,NA,incomplete,60,color,1,left,Red_Star_Chess_3.jpg,Red_Circle_Stripes_1.jpg,Green_Plus_Chess_4.jpg,right,561.4649999915855,false,high,false
UrxXYfm0,3j6bhnx0vc5zv8hudcso2u6bq3dnka,37qw5d2zrkze345s3lh9033h4yxs8h,UrxXYfm0,2020-0188,2020-05-21,14:31:58,14:49:33,NA,incomplete,61,color,1,left,Blue_Star_Dots_3.jpg,Blue_Plus_Grid_2.jpg,Green_Circle_Dots_1.jpg,right,805.3650000074413,false,high,false
UrxXYfm0,3j6bhnx0vc5zv8hudcso2u6bq3dnka,37qw5d2zrkze345s3lh9033h4yxs8h,UrxXYfm0,2020-0188,2020-05-21,14:31:58,14:49:33,NA,incomplete,62,color,1,right,Blue_Triangle_Stripes_3.jpg,Green_Circle_Stripes_1.jpg,Blue_Plus_Chess_2.jpg,left,720.0900000025285,false,high,false
UrxXYfm0,3j6bhnx0vc5zv8hudcso2u6bq3dnka,37qw5d2zrkze345s3lh9033h4yxs8h,UrxXYfm0,2020-0188,2020-05-21,14:31:58,14:49:33,NA,incomplete,63,color,1,left,Blue_Star_Chess_3.jpg,Blue_Plus_Dots_1.jpg,Green_Circle_Chess_4.jpg,left,604.2799999995623,true,high,false
UrxXYfm0,3j6bhnx0vc5zv8hudcso2u6bq3dnka,37qw5d2zrkze345s3lh9033h4yxs8h,UrxXYfm0,2020-0188,2020-05-21,14:31:58,14:49:33,NA,incomplete,64,color,1,left,Purple_Plus_Grid_1.jpg,Purple_Star_Dots_3.jpg,Red_Circle_Grid_2.jpg,left,511.39500000863336,true,high,false
UrxXYfm0,3j6bhnx0vc5zv8hudcso2u6bq3dnka,37qw5d2zrkze345s3lh9033h4yxs8h,UrxXYfm0,2020-0188,2020-05-21,14:31:58,14:49:33,NA,incomplete,65,color,1,right,Red_Star_Stripes_1.jpg,Blue_Circle_Stripes_2.jpg,Red_Plus_Chess_4.jpg,right,443.74499999685213,true,high,false
UrxXYfm0,3j6bhnx0vc5zv8hudcso2u6bq3dnka,37qw5d2zrkze345s3lh9033h4yxs8h,UrxXYfm0,2020-0188,2020-05-21,14:31:58,14:49:33,NA,incomplete,66,color,1,left,Red_Circle_Stripes_4.jpg,Red_Star_Chess_2.jpg,Green_Triangle_Stripes_3.jpg,left,477.05499999574386,true,high,false
UrxXYfm0,3j6bhnx0vc5zv8hudcso2u6bq3dnka,37qw5d2zrkze345s3lh9033h4yxs8h,UrxXYfm0,2020-0188,2020-05-21,14:31:58,14:49:33,NA,incomplete,67,color,1,right,Blue_Plus_Chess_3.jpg,Red_Circle_Chess_2.jpg,Blue_Triangle_Dots_4.jpg,right,405.24000000732485,true,high,false
UrxXYfm0,3j6bhnx0vc5zv8hudcso2u6bq3dnka,37qw5d2zrkze345s3lh9033h4yxs8h,UrxXYfm0,2020-0188,2020-05-21,14:31:58,14:49:33,NA,incomplete,68,color,1,left,Purple_Triangle_Grid_1.jpg,Purple_Plus_Dots_2.jpg,Blue_Circle_Grid_4.jpg,left,398.00000000104774,true,high,false
UrxXYfm0,3j6bhnx0vc5zv8hudcso2u6bq3dnka,37qw5d2zrkze345s3lh9033h4yxs8h,UrxXYfm0,2020-0188,2020-05-21,14:31:58,14:49:33,NA,incomplete,69,color,1,right,Blue_Triangle_Chess_3.jpg,Green_Circle_Chess_1.jpg,Blue_Plus_Grid_2.jpg,right,378.08499998936895,true,high,false
UrxXYfm0,3j6bhnx0vc5zv8hudcso2u6bq3dnka,37qw5d2zrkze345s3lh9033h4yxs8h,UrxXYfm0,2020-0188,2020-05-21,14:31:58,14:49:33,NA,incomplete,70,filling,1,left,Blue_Triangle_Dots_2.jpg,Purple_Plus_Dots_3.jpg,Blue_Circle_Grid_1.jpg,right,388.41500000853557,false,high,false
UrxXYfm0,3j6bhnx0vc5zv8hudcso2u6bq3dnka,37qw5d2zrkze345s3lh9033h4yxs8h,UrxXYfm0,2020-0188,2020-05-21,14:31:58,14:49:33,NA,incomplete,71,filling,1,right,Purple_Plus_Grid_4.jpg,Purple_Circle_Chess_1.jpg,Red_Star_Grid_3.jpg,left,544.690000009723,false,high,false
UrxXYfm0,3j6bhnx0vc5zv8hudcso2u6bq3dnka,37qw5d2zrkze345s3lh9033h4yxs8h,UrxXYfm0,2020-0188,2020-05-21,14:31:58,14:49:33,NA,incomplete,72,filling,1,left,Red_Triangle_Chess_3.jpg,Purple_Circle_Chess_1.jpg,Red_Star_Stripes_4.jpg,right,603.8100000005215,false,high,false
UrxXYfm0,3j6bhnx0vc5zv8hudcso2u6bq3dnka,37qw5d2zrkze345s3lh9033h4yxs8h,UrxXYfm0,2020-0188,2020-05-21,14:31:58,14:49:33,NA,incomplete,73,filling,1,left,Red_Triangle_Grid_1.jpg,Blue_Star_Grid_3.jpg,Red_Circle_Dots_4.jpg,left,574.7149999951944,true,high,false
UrxXYfm0,3j6bhnx0vc5zv8hudcso2u6bq3dnka,37qw5d2zrkze345s3lh9033h4yxs8h,UrxXYfm0,2020-0188,2020-05-21,14:31:58,14:49:33,NA,incomplete,74,filling,1,right,Green_Circle_Chess_2.jpg,Green_Star_Stripes_1.jpg,Purple_Plus_Chess_4.jpg,right,730.2250000066124,true,high,false
UrxXYfm0,3j6bhnx0vc5zv8hudcso2u6bq3dnka,37qw5d2zrkze345s3lh9033h4yxs8h,UrxXYfm0,2020-0188,2020-05-21,14:31:58,14:49:33,NA,incomplete,75,filling,1,right,Blue_Triangle_Stripes_1.jpg,Blue_Star_Chess_2.jpg,Green_Circle_Stripes_4.jpg,right,798.6649999947986,true,high,false
UrxXYfm0,3j6bhnx0vc5zv8hudcso2u6bq3dnka,37qw5d2zrkze345s3lh9033h4yxs8h,UrxXYfm0,2020-0188,2020-05-21,14:31:58,14:49:33,NA,incomplete,76,filling,1,left,Blue_Triangle_Dots_2.jpg,Purple_Plus_Dots_3.jpg,Blue_Star_Stripes_4.jpg,left,746.1999999941327,true,high,false
UrxXYfm0,3j6bhnx0vc5zv8hudcso2u6bq3dnka,37qw5d2zrkze345s3lh9033h4yxs8h,UrxXYfm0,2020-0188,2020-05-21,14:31:58,14:49:33,NA,incomplete,77,filling,1,left,Purple_Triangle_Grid_1.jpg,Blue_Plus_Grid_2.jpg,Purple_Circle_Chess_4.jpg,right,566.0199999983888,false,high,false
UrxXYfm0,3j6bhnx0vc5zv8hudcso2u6bq3dnka,37qw5d2zrkze345s3lh9033h4yxs8h,UrxXYfm0,2020-0188,2020-05-21,14:31:58,14:49:33,NA,incomplete,78,filling,0,left,Purple_Triangle_Dots_2.jpg,Blue_Plus_Dots_3.jpg,Purple_Star_Stripes_1.jpg,left,848.7499999901047,true,high,false
UrxXYfm0,3j6bhnx0vc5zv8hudcso2u6bq3dnka,37qw5d2zrkze345s3lh9033h4yxs8h,UrxXYfm0,2020-0188,2020-05-21,14:31:58,14:49:33,NA,incomplete,79,filling,1,right,Red_Plus_Chess_1.jpg,Red_Star_Grid_4.jpg,Blue_Triangle_Chess_2.jpg,right,801.6199999983655,true,high,false
UrxXYfm0,3j6bhnx0vc5zv8hudcso2u6bq3dnka,37qw5d2zrkze345s3lh9033h4yxs8h,UrxXYfm0,2020-0188,2020-05-21,14:31:58,14:49:33,NA,incomplete,80,color,1,left,Blue_Triangle_Chess_1.jpg,Blue_Plus_Stripes_2.jpg,Red_Star_Chess_3.jpg,right,764.3949999910546,false,high,false
UrxXYfm0,3j6bhnx0vc5zv8hudcso2u6bq3dnka,37qw5d2zrkze345s3lh9033h4yxs8h,UrxXYfm0,2020-0188,2020-05-21,14:31:58,14:49:33,NA,incomplete,81,color,1,right,Green_Star_Dots_1.jpg,Blue_Circle_Dots_2.jpg,Green_Plus_Grid_3.jpg,left,944.0150000009453,false,high,false
UrxXYfm0,3j6bhnx0vc5zv8hudcso2u6bq3dnka,37qw5d2zrkze345s3lh9033h4yxs8h,UrxXYfm0,2020-0188,2020-05-21,14:31:58,14:49:33,NA,incomplete,82,color,1,left,Red_Triangle_Grid_1.jpg,Red_Star_Dots_4.jpg,Blue_Plus_Grid_3.jpg,left,652.0449999952689,true,high,false
UrxXYfm0,3j6bhnx0vc5zv8hudcso2u6bq3dnka,37qw5d2zrkze345s3lh9033h4yxs8h,UrxXYfm0,2020-0188,2020-05-21,14:31:58,14:49:33,NA,incomplete,83,color,1,left,Purple_Triangle_Stripes_4.jpg,Purple_Plus_Dots_3.jpg,Red_Circle_Stripes_2.jpg,left,451.86000000103377,true,high,false
UrxXYfm0,3j6bhnx0vc5zv8hudcso2u6bq3dnka,37qw5d2zrkze345s3lh9033h4yxs8h,UrxXYfm0,2020-0188,2020-05-21,14:31:58,14:49:33,NA,incomplete,84,color,1,right,Blue_Triangle_Grid_4.jpg,Green_Star_Grid_1.jpg,Blue_Plus_Dots_2.jpg,right,547.8100000036648,true,high,false
UrxXYfm0,3j6bhnx0vc5zv8hudcso2u6bq3dnka,37qw5d2zrkze345s3lh9033h4yxs8h,UrxXYfm0,2020-0188,2020-05-21,14:31:58,14:49:33,NA,incomplete,85,color,1,left,Blue_Triangle_Grid_3.jpg,Blue_Plus_Chess_4.jpg,Red_Star_Grid_1.jpg,left,512.1950000029756,true,high,false
UrxXYfm0,3j6bhnx0vc5zv8hudcso2u6bq3dnka,37qw5d2zrkze345s3lh9033h4yxs8h,UrxXYfm0,2020-0188,2020-05-21,14:31:58,14:49:33,NA,incomplete,86,color,1,left,Red_Triangle_Chess_1.jpg,Red_Plus_Dots_2.jpg,Purple_Circle_Chess_3.jpg,left,566.915000003064,true,high,false
UrxXYfm0,3j6bhnx0vc5zv8hudcso2u6bq3dnka,37qw5d2zrkze345s3lh9033h4yxs8h,UrxXYfm0,2020-0188,2020-05-21,14:31:58,14:49:33,NA,incomplete,87,color,1,left,Purple_Triangle_Chess_4.jpg,Purple_Plus_Dots_2.jpg,Blue_Star_Chess_1.jpg,left,402.1749999956228,true,high,false
UrxXYfm0,3j6bhnx0vc5zv8hudcso2u6bq3dnka,37qw5d2zrkze345s3lh9033h4yxs8h,UrxXYfm0,2020-0188,2020-05-21,14:31:58,14:49:33,NA,incomplete,88,color,1,right,Red_Circle_Dots_3.jpg,Green_Triangle_Dots_4.jpg,Red_Star_Grid_2.jpg,right,468.6800000054063,true,high,false
UrxXYfm0,3j6bhnx0vc5zv8hudcso2u6bq3dnka,37qw5d2zrkze345s3lh9033h4yxs8h,UrxXYfm0,2020-0188,2020-05-21,14:31:58,14:49:33,NA,incomplete,89,color,1,right,Blue_Circle_Dots_4.jpg,Purple_Star_Dots_3.jpg,Blue_Plus_Grid_2.jpg,right,467.88999999989755,true,high,false
UrxXYfm0,3j6bhnx0vc5zv8hudcso2u6bq3dnka,37qw5d2zrkze345s3lh9033h4yxs8h,UrxXYfm0,2020-0188,2020-05-21,14:31:58,14:49:33,NA,incomplete,90,filling,1,left,Red_Star_Chess_4.jpg,Green_Plus_Chess_2.jpg,Red_Triangle_Grid_1.jpg,right,402.8650000109337,false,high,false
UrxXYfm0,3j6bhnx0vc5zv8hudcso2u6bq3dnka,37qw5d2zrkze345s3lh9033h4yxs8h,UrxXYfm0,2020-0188,2020-05-21,14:31:58,14:49:33,NA,incomplete,91,filling,0,right,Purple_Star_Chess_3.jpg,Purple_Circle_Grid_1.jpg,Green_Plus_Chess_4.jpg,left,532.535000005737,false,high,false
UrxXYfm0,3j6bhnx0vc5zv8hudcso2u6bq3dnka,37qw5d2zrkze345s3lh9033h4yxs8h,UrxXYfm0,2020-0188,2020-05-21,14:31:58,14:49:33,NA,incomplete,92,filling,1,left,Red_Star_Stripes_2.jpg,Blue_Circle_Stripes_1.jpg,Red_Triangle_Dots_4.jpg,right,514.7149999975227,false,high,false
UrxXYfm0,3j6bhnx0vc5zv8hudcso2u6bq3dnka,37qw5d2zrkze345s3lh9033h4yxs8h,UrxXYfm0,2020-0188,2020-05-21,14:31:58,14:49:33,NA,incomplete,93,filling,1,left,Blue_Star_Stripes_4.jpg,Purple_Circle_Stripes_3.jpg,Blue_Plus_Chess_2.jpg,right,448.22500000009313,false,high,false
UrxXYfm0,3j6bhnx0vc5zv8hudcso2u6bq3dnka,37qw5d2zrkze345s3lh9033h4yxs8h,UrxXYfm0,2020-0188,2020-05-21,14:31:58,14:49:33,NA,incomplete,94,filling,1,right,Green_Star_Chess_2.jpg,Green_Plus_Dots_4.jpg,Blue_Circle_Chess_3.jpg,right,993.5249999980442,true,high,false
UrxXYfm0,3j6bhnx0vc5zv8hudcso2u6bq3dnka,37qw5d2zrkze345s3lh9033h4yxs8h,UrxXYfm0,2020-0188,2020-05-21,14:31:58,14:49:33,NA,incomplete,95,filling,1,left,Blue_Circle_Stripes_4.jpg,Purple_Triangle_Stripes_1.jpg,Blue_Plus_Dots_3.jpg,left,619.8250000015832,true,high,false
UrxXYfm0,3j6bhnx0vc5zv8hudcso2u6bq3dnka,37qw5d2zrkze345s3lh9033h4yxs8h,UrxXYfm0,2020-0188,2020-05-21,14:31:58,14:49:33,NA,incomplete,96,filling,0,left,Red_Plus_Dots_2.jpg,Blue_Star_Dots_3.jpg,Red_Triangle_Grid_1.jpg,left,780.8249999943655,true,high,false
UrxXYfm0,3j6bhnx0vc5zv8hudcso2u6bq3dnka,37qw5d2zrkze345s3lh9033h4yxs8h,UrxXYfm0,2020-0188,2020-05-21,14:31:58,14:49:33,NA,incomplete,97,filling,1,right,Red_Star_Chess_4.jpg,Red_Circle_Stripes_3.jpg,Purple_Plus_Chess_2.jpg,right,608.1049999920651,true,high,false
UrxXYfm0,3j6bhnx0vc5zv8hudcso2u6bq3dnka,37qw5d2zrkze345s3lh9033h4yxs8h,UrxXYfm0,2020-0188,2020-05-21,14:31:58,14:49:33,NA,incomplete,98,filling,1,right,Red_Circle_Dots_4.jpg,Red_Star_Grid_1.jpg,Purple_Triangle_Dots_2.jpg,right,664.8050000076182,true,high,false
UrxXYfm0,3j6bhnx0vc5zv8hudcso2u6bq3dnka,37qw5d2zrkze345s3lh9033h4yxs8h,UrxXYfm0,2020-0188,2020-05-21,14:31:58,14:49:33,NA,incomplete,99,filling,1,left,Red_Star_Chess_3.jpg,Green_Plus_Chess_2.jpg,Red_Circle_Grid_4.jpg,left,593.8600000081351,true,high,false
UrxXYfm0,3j6bhnx0vc5zv8hudcso2u6bq3dnka,37qw5d2zrkze345s3lh9033h4yxs8h,UrxXYfm0,2020-0188,2020-05-21,14:31:58,14:49:33,NA,incomplete,100,color,0,right,Red_Star_Stripes_3.jpg,Blue_Plus_Stripes_2.jpg,Red_Triangle_Chess_1.jpg,left,684.1550000099232,false,high,false
UrxXYfm0,3j6bhnx0vc5zv8hudcso2u6bq3dnka,37qw5d2zrkze345s3lh9033h4yxs8h,UrxXYfm0,2020-0188,2020-05-21,14:31:58,14:49:33,NA,incomplete,101,color,1,right,Red_Circle_Grid_3.jpg,Green_Star_Grid_2.jpg,Red_Plus_Dots_1.jpg,left,754.1700000001583,false,high,false
UrxXYfm0,3j6bhnx0vc5zv8hudcso2u6bq3dnka,37qw5d2zrkze345s3lh9033h4yxs8h,UrxXYfm0,2020-0188,2020-05-21,14:31:58,14:49:33,NA,incomplete,102,color,1,left,Blue_Circle_Stripes_2.jpg,Blue_Triangle_Grid_4.jpg,Red_Star_Stripes_1.jpg,right,718.4899999992922,false,high,false
UrxXYfm0,3j6bhnx0vc5zv8hudcso2u6bq3dnka,37qw5d2zrkze345s3lh9033h4yxs8h,UrxXYfm0,2020-0188,2020-05-21,14:31:58,14:49:33,NA,incomplete,103,color,0,right,Blue_Plus_Stripes_2.jpg,Green_Star_Stripes_3.jpg,Blue_Circle_Grid_4.jpg,right,523.1050000002142,true,high,false
UrxXYfm0,3j6bhnx0vc5zv8hudcso2u6bq3dnka,37qw5d2zrkze345s3lh9033h4yxs8h,UrxXYfm0,2020-0188,2020-05-21,14:31:58,14:49:33,NA,incomplete,104,color,1,left,Green_Triangle_Chess_4.jpg,Green_Star_Grid_1.jpg,Blue_Circle_Chess_2.jpg,left,496.74999999115244,true,high,false
UrxXYfm0,3j6bhnx0vc5zv8hudcso2u6bq3dnka,37qw5d2zrkze345s3lh9033h4yxs8h,UrxXYfm0,2020-0188,2020-05-21,14:31:58,14:49:33,NA,incomplete,105,color,1,left,Blue_Star_Chess_3.jpg,Blue_Triangle_Dots_2.jpg,Red_Circle_Chess_1.jpg,left,495.6850000016857,true,high,false
UrxXYfm0,3j6bhnx0vc5zv8hudcso2u6bq3dnka,37qw5d2zrkze345s3lh9033h4yxs8h,UrxXYfm0,2020-0188,2020-05-21,14:31:58,14:49:33,NA,incomplete,106,color,1,left,Blue_Plus_Stripes_4.jpg,Blue_Star_Grid_3.jpg,Green_Circle_Stripes_1.jpg,left,430.5000000022119,true,high,false
UrxXYfm0,3j6bhnx0vc5zv8hudcso2u6bq3dnka,37qw5d2zrkze345s3lh9033h4yxs8h,UrxXYfm0,2020-0188,2020-05-21,14:31:58,14:49:33,NA,incomplete,107,color,1,left,Purple_Plus_Stripes_4.jpg,Purple_Triangle_Grid_2.jpg,Green_Star_Stripes_3.jpg,left,511.58000000577886,true,high,false
UrxXYfm0,3j6bhnx0vc5zv8hudcso2u6bq3dnka,37qw5d2zrkze345s3lh9033h4yxs8h,UrxXYfm0,2020-0188,2020-05-21,14:31:58,14:49:33,NA,incomplete,108,color,0,left,Blue_Plus_Stripes_4.jpg,Blue_Circle_Chess_1.jpg,Red_Triangle_Stripes_2.jpg,left,438.02499999583233,true,high,false
UrxXYfm0,3j6bhnx0vc5zv8hudcso2u6bq3dnka,37qw5d2zrkze345s3lh9033h4yxs8h,UrxXYfm0,2020-0188,2020-05-21,14:31:58,14:49:33,NA,incomplete,109,color,1,right,Green_Plus_Dots_2.jpg,Blue_Triangle_Dots_3.jpg,Green_Circle_Grid_1.jpg,right,526.1850000097184,true,high,false
UrxXYfm0,3j6bhnx0vc5zv8hudcso2u6bq3dnka,37qw5d2zrkze345s3lh9033h4yxs8h,UrxXYfm0,2020-0188,2020-05-21,14:31:58,14:49:33,NA,incomplete,110,filling,1,right,Blue_Circle_Stripes_2.jpg,Blue_Triangle_Dots_1.jpg,Purple_Plus_Stripes_3.jpg,left,459.63500000652857,false,high,false
UrxXYfm0,3j6bhnx0vc5zv8hudcso2u6bq3dnka,37qw5d2zrkze345s3lh9033h4yxs8h,UrxXYfm0,2020-0188,2020-05-21,14:31:58,14:49:33,NA,incomplete,111,filling,0,right,Purple_Plus_Grid_4.jpg,Purple_Star_Stripes_3.jpg,Green_Circle_Grid_2.jpg,left,467.66999999817926,false,high,false
UrxXYfm0,3j6bhnx0vc5zv8hudcso2u6bq3dnka,37qw5d2zrkze345s3lh9033h4yxs8h,UrxXYfm0,2020-0188,2020-05-21,14:31:58,14:49:33,NA,incomplete,112,filling,1,left,Green_Plus_Chess_1.jpg,Purple_Circle_Chess_4.jpg,Green_Triangle_Stripes_2.jpg,right,499.2649999912828,false,high,false
UrxXYfm0,3j6bhnx0vc5zv8hudcso2u6bq3dnka,37qw5d2zrkze345s3lh9033h4yxs8h,UrxXYfm0,2020-0188,2020-05-21,14:31:58,14:49:33,NA,incomplete,113,filling,1,right,Green_Triangle_Dots_1.jpg,Green_Circle_Grid_3.jpg,Red_Star_Dots_2.jpg,right,1026.1049999971874,true,high,false
UrxXYfm0,3j6bhnx0vc5zv8hudcso2u6bq3dnka,37qw5d2zrkze345s3lh9033h4yxs8h,UrxXYfm0,2020-0188,2020-05-21,14:31:58,14:49:33,NA,incomplete,114,filling,1,left,Red_Circle_Chess_2.jpg,Purple_Star_Chess_3.jpg,Red_Plus_Grid_4.jpg,left,905.1850000105333,true,high,false
UrxXYfm0,3j6bhnx0vc5zv8hudcso2u6bq3dnka,37qw5d2zrkze345s3lh9033h4yxs8h,UrxXYfm0,2020-0188,2020-05-21,14:31:58,14:49:33,NA,incomplete,115,filling,0,right,Purple_Circle_Grid_1.jpg,Purple_Star_Stripes_3.jpg,Blue_Triangle_Grid_4.jpg,right,760.3300000046147,true,high,false
UrxXYfm0,3j6bhnx0vc5zv8hudcso2u6bq3dnka,37qw5d2zrkze345s3lh9033h4yxs8h,UrxXYfm0,2020-0188,2020-05-21,14:31:58,14:49:33,NA,incomplete,116,filling,1,left,Green_Triangle_Grid_4.jpg,Blue_Circle_Grid_1.jpg,Green_Plus_Chess_3.jpg,left,668.3550000016112,true,high,false
UrxXYfm0,3j6bhnx0vc5zv8hudcso2u6bq3dnka,37qw5d2zrkze345s3lh9033h4yxs8h,UrxXYfm0,2020-0188,2020-05-21,14:31:58,14:49:33,NA,incomplete,117,filling,1,left,Red_Star_Grid_1.jpg,Blue_Plus_Grid_4.jpg,Red_Circle_Stripes_2.jpg,left,716.1200000118697,true,high,false
UrxXYfm0,3j6bhnx0vc5zv8hudcso2u6bq3dnka,37qw5d2zrkze345s3lh9033h4yxs8h,UrxXYfm0,2020-0188,2020-05-21,14:31:58,14:49:33,NA,incomplete,118,filling,1,right,Purple_Circle_Chess_1.jpg,Purple_Plus_Grid_2.jpg,Blue_Star_Chess_4.jpg,right,745.0749999989057,true,high,false
UrxXYfm0,3j6bhnx0vc5zv8hudcso2u6bq3dnka,37qw5d2zrkze345s3lh9033h4yxs8h,UrxXYfm0,2020-0188,2020-05-21,14:31:58,14:49:33,NA,incomplete,119,filling,1,left,Blue_Plus_Dots_4.jpg,Green_Circle_Dots_3.jpg,Blue_Triangle_Stripes_1.jpg,left,726.3899999961723,true,high,false
UrxXYfm0,3j6bhnx0vc5zv8hudcso2u6bq3dnka,37qw5d2zrkze345s3lh9033h4yxs8h,UrxXYfm0,2020-0188,2020-05-21,14:31:58,14:49:33,NA,incomplete,120,shape,1,left,Blue_Plus_Dots_4.jpg,Green_Plus_Stripes_2.jpg,Purple_Triangle_Grid_4.jpg,NA,NA,NA,high,false
UrxXYfm0,3j6bhnx0vc5zv8hudcso2u6bq3dnka,37qw5d2zrkze345s3lh9033h4yxs8h,UrxXYfm0,2020-0188,2020-05-21,14:31:58,14:49:33,NA,incomplete,121,shape,0,left,Green_Plus_Chess_2.jpg,Blue_Plus_Dots_4.jpg,Purple_Circle_Stripes_2.jpg,right,1012.3549999989336,false,high,false
UrxXYfm0,3j6bhnx0vc5zv8hudcso2u6bq3dnka,37qw5d2zrkze345s3lh9033h4yxs8h,UrxXYfm0,2020-0188,2020-05-21,14:31:58,14:49:33,NA,incomplete,122,shape,1,left,Red_Circle_Chess_3.jpg,Purple_Circle_Stripes_4.jpg,Blue_Triangle_Dots_3.jpg,right,701.4749999943888,false,high,false
UrxXYfm0,3j6bhnx0vc5zv8hudcso2u6bq3dnka,37qw5d2zrkze345s3lh9033h4yxs8h,UrxXYfm0,2020-0188,2020-05-21,14:31:58,14:49:33,NA,incomplete,123,shape,1,left,Blue_Plus_Chess_4.jpg,Purple_Plus_Dots_2.jpg,Green_Triangle_Grid_4.jpg,left,690.7550000032643,true,high,false
UrxXYfm0,3j6bhnx0vc5zv8hudcso2u6bq3dnka,37qw5d2zrkze345s3lh9033h4yxs8h,UrxXYfm0,2020-0188,2020-05-21,14:31:58,14:49:33,NA,incomplete,124,shape,0,left,Red_Plus_Chess_2.jpg,Purple_Plus_Dots_4.jpg,Green_Star_Grid_2.jpg,left,954.2799999908311,true,high,false
UrxXYfm0,3j6bhnx0vc5zv8hudcso2u6bq3dnka,37qw5d2zrkze345s3lh9033h4yxs8h,UrxXYfm0,2020-0188,2020-05-21,14:31:58,14:49:33,NA,incomplete,125,shape,1,right,Purple_Triangle_Dots_1.jpg,Red_Star_Grid_1.jpg,Green_Triangle_Chess_3.jpg,right,804.839999997057,true,high,false
UrxXYfm0,3j6bhnx0vc5zv8hudcso2u6bq3dnka,37qw5d2zrkze345s3lh9033h4yxs8h,UrxXYfm0,2020-0188,2020-05-21,14:31:58,14:49:33,NA,incomplete,126,shape,1,left,Purple_Circle_Chess_3.jpg,Green_Circle_Stripes_1.jpg,Blue_Triangle_Dots_3.jpg,left,990.0449999986449,true,high,false
UrxXYfm0,3j6bhnx0vc5zv8hudcso2u6bq3dnka,37qw5d2zrkze345s3lh9033h4yxs8h,UrxXYfm0,2020-0188,2020-05-21,14:31:58,14:49:33,NA,incomplete,127,shape,0,right,Purple_Circle_Chess_3.jpg,Green_Plus_Stripes_3.jpg,Blue_Circle_Grid_1.jpg,right,553.699999989476,true,high,false
UrxXYfm0,3j6bhnx0vc5zv8hudcso2u6bq3dnka,37qw5d2zrkze345s3lh9033h4yxs8h,UrxXYfm0,2020-0188,2020-05-21,14:31:58,14:49:33,NA,incomplete,128,shape,1,right,Green_Plus_Grid_3.jpg,Blue_Star_Chess_3.jpg,Red_Plus_Dots_2.jpg,right,573.1500000110827,true,high,false
UrxXYfm0,3j6bhnx0vc5zv8hudcso2u6bq3dnka,37qw5d2zrkze345s3lh9033h4yxs8h,UrxXYfm0,2020-0188,2020-05-21,14:31:58,14:49:33,NA,incomplete,129,shape,1,left,Purple_Triangle_Stripes_1.jpg,Red_Triangle_Grid_3.jpg,Green_Plus_Dots_1.jpg,left,672.630000000936,true,high,false
UrxXYfm0,3j6bhnx0vc5zv8hudcso2u6bq3dnka,37qw5d2zrkze345s3lh9033h4yxs8h,UrxXYfm0,2020-0188,2020-05-21,14:31:58,14:49:33,NA,incomplete,130,shape,1,left,Purple_Triangle_Dots_4.jpg,Green_Triangle_Grid_3.jpg,Blue_Circle_Stripes_4.jpg,left,950.5999999964843,true,high,false
UrxXYfm0,3j6bhnx0vc5zv8hudcso2u6bq3dnka,37qw5d2zrkze345s3lh9033h4yxs8h,UrxXYfm0,2020-0188,2020-05-21,14:31:58,14:49:33,NA,incomplete,131,shape,1,left,Blue_Triangle_Chess_3.jpg,Green_Triangle_Grid_4.jpg,Purple_Star_Stripes_3.jpg,left,650.5150000011781,true,high,false
UrxXYfm0,3j6bhnx0vc5zv8hudcso2u6bq3dnka,37qw5d2zrkze345s3lh9033h4yxs8h,UrxXYfm0,2020-0188,2020-05-21,14:31:58,14:49:33,NA,incomplete,132,shape,1,right,Green_Circle_Dots_1.jpg,Blue_Plus_Chess_1.jpg,Red_Circle_Grid_2.jpg,right,563.7799999967683,true,high,false
UrxXYfm0,3j6bhnx0vc5zv8hudcso2u6bq3dnka,37qw5d2zrkze345s3lh9033h4yxs8h,UrxXYfm0,2020-0188,2020-05-21,14:31:58,14:49:33,NA,incomplete,133,shape,0,left,Blue_Circle_Dots_1.jpg,Red_Circle_Stripes_4.jpg,Purple_Star_Grid_1.jpg,left,574.8749999911524,true,high,false
UrxXYfm0,3j6bhnx0vc5zv8hudcso2u6bq3dnka,37qw5d2zrkze345s3lh9033h4yxs8h,UrxXYfm0,2020-0188,2020-05-21,14:31:58,14:49:33,NA,incomplete,134,shape,1,left,Blue_Star_Chess_1.jpg,Red_Star_Stripes_3.jpg,Green_Plus_Dots_1.jpg,left,601.4449999929639,true,high,false
UrxXYfm0,3j6bhnx0vc5zv8hudcso2u6bq3dnka,37qw5d2zrkze345s3lh9033h4yxs8h,UrxXYfm0,2020-0188,2020-05-21,14:31:58,14:49:33,NA,incomplete,135,shape,1,left,Purple_Star_Dots_4.jpg,Red_Star_Stripes_2.jpg,Blue_Triangle_Grid_4.jpg,left,588.4800000058021,true,high,false
UrxXYfm0,3j6bhnx0vc5zv8hudcso2u6bq3dnka,37qw5d2zrkze345s3lh9033h4yxs8h,UrxXYfm0,2020-0188,2020-05-21,14:31:58,14:49:33,NA,incomplete,136,shape,1,left,Red_Triangle_Dots_3.jpg,Green_Triangle_Grid_4.jpg,Blue_Circle_Chess_3.jpg,left,870.4500000021653,true,high,false
UrxXYfm0,3j6bhnx0vc5zv8hudcso2u6bq3dnka,37qw5d2zrkze345s3lh9033h4yxs8h,UrxXYfm0,2020-0188,2020-05-21,14:31:58,14:49:33,NA,incomplete,137,shape,0,left,Red_Plus_Dots_1.jpg,Purple_Plus_Chess_3.jpg,Blue_Circle_Grid_1.jpg,left,670.3550000092946,true,high,false
UrxXYfm0,3j6bhnx0vc5zv8hudcso2u6bq3dnka,37qw5d2zrkze345s3lh9033h4yxs8h,UrxXYfm0,2020-0188,2020-05-21,14:31:58,14:49:33,NA,incomplete,138,shape,1,left,Green_Triangle_Stripes_1.jpg,Blue_Triangle_Grid_4.jpg,Red_Star_Dots_1.jpg,left,596.5949999954319,true,high,false
UrxXYfm0,3j6bhnx0vc5zv8hudcso2u6bq3dnka,37qw5d2zrkze345s3lh9033h4yxs8h,UrxXYfm0,2020-0188,2020-05-21,14:31:58,14:49:33,NA,incomplete,139,shape,1,right,Green_Star_Chess_3.jpg,Purple_Plus_Dots_3.jpg,Blue_Star_Grid_1.jpg,right,671.9699999957811,true,high,false
UrxXYfm0,3j6bhnx0vc5zv8hudcso2u6bq3dnka,37qw5d2zrkze345s3lh9033h4yxs8h,UrxXYfm0,2020-0188,2020-05-21,14:31:58,14:49:33,NA,incomplete,140,number,1,right,Purple_Triangle_Stripes_3.jpg,Blue_Triangle_Dots_4.jpg,Red_Star_Chess_3.jpg,left,702.1600000007311,false,high,false
UrxXYfm0,3j6bhnx0vc5zv8hudcso2u6bq3dnka,37qw5d2zrkze345s3lh9033h4yxs8h,UrxXYfm0,2020-0188,2020-05-21,14:31:58,14:49:33,NA,incomplete,141,number,1,right,Purple_Star_Grid_3.jpg,Red_Star_Chess_2.jpg,Green_Circle_Dots_3.jpg,left,499.63500000012573,false,high,false
UrxXYfm0,3j6bhnx0vc5zv8hudcso2u6bq3dnka,37qw5d2zrkze345s3lh9033h4yxs8h,UrxXYfm0,2020-0188,2020-05-21,14:31:58,14:49:33,NA,incomplete,142,number,1,right,Blue_Star_Stripes_1.jpg,Purple_Star_Dots_2.jpg,Green_Plus_Grid_1.jpg,right,770.6449999968754,true,high,false
UrxXYfm0,3j6bhnx0vc5zv8hudcso2u6bq3dnka,37qw5d2zrkze345s3lh9033h4yxs8h,UrxXYfm0,2020-0188,2020-05-21,14:31:58,14:49:33,NA,incomplete,143,number,1,right,Green_Circle_Dots_3.jpg,Blue_Circle_Chess_1.jpg,Purple_Triangle_Grid_3.jpg,right,694.0750000067055,true,high,false
UrxXYfm0,3j6bhnx0vc5zv8hudcso2u6bq3dnka,37qw5d2zrkze345s3lh9033h4yxs8h,UrxXYfm0,2020-0188,2020-05-21,14:31:58,14:49:33,NA,incomplete,144,number,1,right,Green_Plus_Stripes_4.jpg,Blue_Plus_Chess_2.jpg,Purple_Circle_Grid_4.jpg,right,756.8049999972573,true,high,false
UrxXYfm0,3j6bhnx0vc5zv8hudcso2u6bq3dnka,37qw5d2zrkze345s3lh9033h4yxs8h,UrxXYfm0,2020-0188,2020-05-21,14:31:58,14:49:33,NA,incomplete,145,number,1,right,Blue_Triangle_Chess_1.jpg,Red_Triangle_Dots_4.jpg,Purple_Star_Grid_1.jpg,right,728.3199999947101,true,high,false
UrxXYfm0,3j6bhnx0vc5zv8hudcso2u6bq3dnka,37qw5d2zrkze345s3lh9033h4yxs8h,UrxXYfm0,2020-0188,2020-05-21,14:31:58,14:49:33,NA,incomplete,146,number,1,left,Blue_Triangle_Dots_1.jpg,Red_Plus_Stripes_1.jpg,Purple_Triangle_Grid_3.jpg,left,589.1100000008009,true,high,false
UrxXYfm0,3j6bhnx0vc5zv8hudcso2u6bq3dnka,37qw5d2zrkze345s3lh9033h4yxs8h,UrxXYfm0,2020-0188,2020-05-21,14:31:58,14:49:33,NA,incomplete,147,number,1,right,Purple_Plus_Grid_4.jpg,Green_Plus_Stripes_1.jpg,Blue_Circle_Chess_4.jpg,right,688.8199999957578,true,high,false
UrxXYfm0,3j6bhnx0vc5zv8hudcso2u6bq3dnka,37qw5d2zrkze345s3lh9033h4yxs8h,UrxXYfm0,2020-0188,2020-05-21,14:31:58,14:49:33,NA,incomplete,148,number,1,left,Red_Circle_Dots_4.jpg,Purple_Triangle_Stripes_4.jpg,Green_Circle_Chess_2.jpg,right,550.8399999962421,false,high,false
UrxXYfm0,3j6bhnx0vc5zv8hudcso2u6bq3dnka,37qw5d2zrkze345s3lh9033h4yxs8h,UrxXYfm0,2020-0188,2020-05-21,14:31:58,14:49:33,NA,incomplete,149,number,1,right,Purple_Triangle_Stripes_2.jpg,Green_Triangle_Dots_4.jpg,Blue_Circle_Chess_2.jpg,right,817.7649999997811,true,high,false
UrxXYfm0,3j6bhnx0vc5zv8hudcso2u6bq3dnka,37qw5d2zrkze345s3lh9033h4yxs8h,UrxXYfm0,2020-0188,2020-05-21,14:31:58,14:49:33,NA,incomplete,150,number,1,right,Purple_Circle_Dots_3.jpg,Blue_Circle_Grid_4.jpg,Green_Star_Stripes_3.jpg,right,771.2749999918742,true,high,false
UrxXYfm0,3j6bhnx0vc5zv8hudcso2u6bq3dnka,37qw5d2zrkze345s3lh9033h4yxs8h,UrxXYfm0,2020-0188,2020-05-21,14:31:58,14:49:33,NA,incomplete,151,number,1,right,Blue_Triangle_Dots_2.jpg,Red_Triangle_Chess_4.jpg,Purple_Plus_Grid_2.jpg,right,743.015000000014,true,high,false
UrxXYfm0,3j6bhnx0vc5zv8hudcso2u6bq3dnka,37qw5d2zrkze345s3lh9033h4yxs8h,UrxXYfm0,2020-0188,2020-05-21,14:31:58,14:49:33,NA,incomplete,152,number,1,left,Blue_Star_Stripes_1.jpg,Green_Circle_Grid_1.jpg,Red_Star_Chess_2.jpg,right,586.8650000047637,false,high,false
UrxXYfm0,3j6bhnx0vc5zv8hudcso2u6bq3dnka,37qw5d2zrkze345s3lh9033h4yxs8h,UrxXYfm0,2020-0188,2020-05-21,14:31:58,14:49:33,NA,incomplete,153,number,1,right,Blue_Plus_Dots_3.jpg,Green_Plus_Stripes_2.jpg,Red_Triangle_Grid_3.jpg,right,716.5249999961816,true,high,false
UrxXYfm0,3j6bhnx0vc5zv8hudcso2u6bq3dnka,37qw5d2zrkze345s3lh9033h4yxs8h,UrxXYfm0,2020-0188,2020-05-21,14:31:58,14:49:33,NA,incomplete,154,number,1,left,Green_Circle_Chess_1.jpg,Red_Plus_Dots_1.jpg,Blue_Circle_Stripes_3.jpg,left,1019.9500000016997,true,high,false
UrxXYfm0,3j6bhnx0vc5zv8hudcso2u6bq3dnka,37qw5d2zrkze345s3lh9033h4yxs8h,UrxXYfm0,2020-0188,2020-05-21,14:31:58,14:49:33,NA,incomplete,155,number,0,left,Purple_Star_Chess_3.jpg,Green_Circle_Dots_3.jpg,Red_Star_Grid_4.jpg,right,843.7799999956042,false,high,false
UrxXYfm0,3j6bhnx0vc5zv8hudcso2u6bq3dnka,37qw5d2zrkze345s3lh9033h4yxs8h,UrxXYfm0,2020-0188,2020-05-21,14:31:58,14:49:33,NA,incomplete,156,number,1,right,Blue_Triangle_Chess_1.jpg,Purple_Triangle_Grid_2.jpg,Red_Star_Dots_1.jpg,right,828.5150000010617,true,high,false
UrxXYfm0,3j6bhnx0vc5zv8hudcso2u6bq3dnka,37qw5d2zrkze345s3lh9033h4yxs8h,UrxXYfm0,2020-0188,2020-05-21,14:31:58,14:49:33,NA,incomplete,157,number,1,right,Red_Plus_Grid_3.jpg,Purple_Plus_Dots_4.jpg,Green_Circle_Chess_3.jpg,right,686.3699999958044,true,high,false
UrxXYfm0,3j6bhnx0vc5zv8hudcso2u6bq3dnka,37qw5d2zrkze345s3lh9033h4yxs8h,UrxXYfm0,2020-0188,2020-05-21,14:31:58,14:49:33,NA,incomplete,158,number,1,right,Blue_Triangle_Stripes_2.jpg,Green_Triangle_Chess_1.jpg,Red_Plus_Dots_2.jpg,right,811.8350000004284,true,high,false
UrxXYfm0,3j6bhnx0vc5zv8hudcso2u6bq3dnka,37qw5d2zrkze345s3lh9033h4yxs8h,UrxXYfm0,2020-0188,2020-05-21,14:31:58,14:49:33,NA,incomplete,159,number,1,left,Green_Circle_Stripes_2.jpg,Purple_Star_Grid_2.jpg,Red_Circle_Dots_3.jpg,left,837.5950000045123,true,high,false
UrxXYfm0,3j6bhnx0vc5zv8hudcso2u6bq3dnka,37qw5d2zrkze345s3lh9033h4yxs8h,UrxXYfm0,2020-0188,2020-05-21,14:31:58,14:49:33,NA,incomplete,160,shape,1,left,Green_Triangle_Dots_1.jpg,Blue_Triangle_Stripes_4.jpg,Red_Plus_Chess_1.jpg,right,678.6600000050385,false,high,false
UrxXYfm0,3j6bhnx0vc5zv8hudcso2u6bq3dnka,37qw5d2zrkze345s3lh9033h4yxs8h,UrxXYfm0,2020-0188,2020-05-21,14:31:58,14:49:33,NA,incomplete,161,shape,0,left,Green_Plus_Dots_2.jpg,Blue_Plus_Stripes_1.jpg,Purple_Star_Chess_2.jpg,right,661.5750000055414,false,high,false
UrxXYfm0,3j6bhnx0vc5zv8hudcso2u6bq3dnka,37qw5d2zrkze345s3lh9033h4yxs8h,UrxXYfm0,2020-0188,2020-05-21,14:31:58,14:49:33,NA,incomplete,162,shape,1,right,Green_Star_Stripes_4.jpg,Purple_Circle_Grid_4.jpg,Red_Star_Chess_2.jpg,left,693.6249999998836,false,high,false
UrxXYfm0,3j6bhnx0vc5zv8hudcso2u6bq3dnka,37qw5d2zrkze345s3lh9033h4yxs8h,UrxXYfm0,2020-0188,2020-05-21,14:31:58,14:49:33,NA,incomplete,163,shape,1,right,Green_Circle_Stripes_3.jpg,Red_Star_Dots_3.jpg,Purple_Circle_Chess_4.jpg,left,1027.5650000112364,false,high,false
UrxXYfm0,3j6bhnx0vc5zv8hudcso2u6bq3dnka,37qw5d2zrkze345s3lh9033h4yxs8h,UrxXYfm0,2020-0188,2020-05-21,14:31:58,14:49:33,NA,incomplete,164,shape,1,left,Purple_Star_Chess_2.jpg,Green_Star_Dots_1.jpg,Blue_Plus_Grid_2.jpg,left,780.2850000007311,true,high,false
UrxXYfm0,3j6bhnx0vc5zv8hudcso2u6bq3dnka,37qw5d2zrkze345s3lh9033h4yxs8h,UrxXYfm0,2020-0188,2020-05-21,14:31:58,14:49:33,NA,incomplete,165,shape,1,right,Green_Triangle_Dots_3.jpg,Purple_Plus_Grid_3.jpg,Blue_Triangle_Chess_4.jpg,right,719.7850000084145,true,high,false
UrxXYfm0,3j6bhnx0vc5zv8hudcso2u6bq3dnka,37qw5d2zrkze345s3lh9033h4yxs8h,UrxXYfm0,2020-0188,2020-05-21,14:31:58,14:49:33,NA,incomplete,166,shape,0,left,Red_Triangle_Stripes_3.jpg,Blue_Triangle_Chess_2.jpg,Green_Plus_Grid_3.jpg,left,948.8550000096438,true,high,false
UrxXYfm0,3j6bhnx0vc5zv8hudcso2u6bq3dnka,37qw5d2zrkze345s3lh9033h4yxs8h,UrxXYfm0,2020-0188,2020-05-21,14:31:58,14:49:33,NA,incomplete,167,shape,1,left,Blue_Star_Dots_4.jpg,Red_Star_Stripes_2.jpg,Green_Triangle_Grid_4.jpg,right,705.0900000031106,false,high,false
UrxXYfm0,3j6bhnx0vc5zv8hudcso2u6bq3dnka,37qw5d2zrkze345s3lh9033h4yxs8h,UrxXYfm0,2020-0188,2020-05-21,14:31:58,14:49:33,NA,incomplete,168,shape,1,right,Purple_Plus_Chess_4.jpg,Green_Circle_Grid_4.jpg,Red_Plus_Dots_1.jpg,right,966.7699999990873,true,high,false
UrxXYfm0,3j6bhnx0vc5zv8hudcso2u6bq3dnka,37qw5d2zrkze345s3lh9033h4yxs8h,UrxXYfm0,2020-0188,2020-05-21,14:31:58,14:49:33,NA,incomplete,169,shape,0,right,Red_Circle_Stripes_3.jpg,Green_Star_Dots_3.jpg,Blue_Circle_Grid_2.jpg,right,833.5750000114786,true,high,false
UrxXYfm0,3j6bhnx0vc5zv8hudcso2u6bq3dnka,37qw5d2zrkze345s3lh9033h4yxs8h,UrxXYfm0,2020-0188,2020-05-21,14:31:58,14:49:33,NA,incomplete,170,shape,1,left,Blue_Circle_Chess_2.jpg,Green_Circle_Dots_3.jpg,Red_Plus_Stripes_2.jpg,left,841.4849999971921,true,high,false
UrxXYfm0,3j6bhnx0vc5zv8hudcso2u6bq3dnka,37qw5d2zrkze345s3lh9033h4yxs8h,UrxXYfm0,2020-0188,2020-05-21,14:31:58,14:49:33,NA,incomplete,171,shape,1,left,Red_Star_Grid_4.jpg,Purple_Star_Dots_2.jpg,Green_Plus_Chess_4.jpg,right,706.9199999968987,false,high,false
UrxXYfm0,3j6bhnx0vc5zv8hudcso2u6bq3dnka,37qw5d2zrkze345s3lh9033h4yxs8h,UrxXYfm0,2020-0188,2020-05-21,14:31:58,14:49:33,NA,incomplete,172,shape,1,right,Blue_Plus_Grid_4.jpg,Purple_Circle_Dots_4.jpg,Red_Plus_Chess_3.jpg,right,729.1849999892293,true,high,false
UrxXYfm0,3j6bhnx0vc5zv8hudcso2u6bq3dnka,37qw5d2zrkze345s3lh9033h4yxs8h,UrxXYfm0,2020-0188,2020-05-21,14:31:58,14:49:33,NA,incomplete,173,shape,1,right,Purple_Star_Dots_3.jpg,Green_Triangle_Grid_3.jpg,Red_Star_Chess_4.jpg,right,701.5949999913573,true,high,false
UrxXYfm0,3j6bhnx0vc5zv8hudcso2u6bq3dnka,37qw5d2zrkze345s3lh9033h4yxs8h,UrxXYfm0,2020-0188,2020-05-21,14:31:58,14:49:33,NA,incomplete,174,shape,1,left,Blue_Plus_Grid_3.jpg,Red_Plus_Stripes_4.jpg,Green_Circle_Chess_3.jpg,left,699.5999999926426,true,high,false
UrxXYfm0,3j6bhnx0vc5zv8hudcso2u6bq3dnka,37qw5d2zrkze345s3lh9033h4yxs8h,UrxXYfm0,2020-0188,2020-05-21,14:31:58,14:49:33,NA,incomplete,175,shape,0,left,Blue_Circle_Dots_1.jpg,Red_Circle_Grid_3.jpg,Green_Star_Chess_1.jpg,left,721.8149999971502,true,high,false
UrxXYfm0,3j6bhnx0vc5zv8hudcso2u6bq3dnka,37qw5d2zrkze345s3lh9033h4yxs8h,UrxXYfm0,2020-0188,2020-05-21,14:31:58,14:49:33,NA,incomplete,176,shape,1,right,Red_Triangle_Dots_2.jpg,Blue_Plus_Stripes_2.jpg,Purple_Triangle_Chess_4.jpg,right,895.4050000029383,true,high,false
UrxXYfm0,3j6bhnx0vc5zv8hudcso2u6bq3dnka,37qw5d2zrkze345s3lh9033h4yxs8h,UrxXYfm0,2020-0188,2020-05-21,14:31:58,14:49:33,NA,incomplete,177,shape,1,left,Blue_Plus_Stripes_4.jpg,Green_Plus_Grid_2.jpg,Red_Circle_Chess_4.jpg,left,902.1349999966333,true,high,false
UrxXYfm0,3j6bhnx0vc5zv8hudcso2u6bq3dnka,37qw5d2zrkze345s3lh9033h4yxs8h,UrxXYfm0,2020-0188,2020-05-21,14:31:58,14:49:33,NA,incomplete,178,shape,1,right,Green_Triangle_Stripes_2.jpg,Purple_Circle_Grid_2.jpg,Red_Triangle_Chess_1.jpg,right,874.9249999964377,true,high,false
UrxXYfm0,3j6bhnx0vc5zv8hudcso2u6bq3dnka,37qw5d2zrkze345s3lh9033h4yxs8h,UrxXYfm0,2020-0188,2020-05-21,14:31:58,14:49:33,NA,incomplete,179,shape,0,right,Red_Circle_Stripes_2.jpg,Purple_Triangle_Grid_2.jpg,Green_Circle_Dots_3.jpg,right,712.840000007418,true,high,false
UrxXYfm0,3j6bhnx0vc5zv8hudcso2u6bq3dnka,37qw5d2zrkze345s3lh9033h4yxs8h,UrxXYfm0,2020-0188,2020-05-21,14:31:58,14:49:33,NA,incomplete,180,number,1,right,Purple_Plus_Chess_2.jpg,Green_Plus_Stripes_3.jpg,Blue_Star_Dots_2.jpg,left,622.8450000053272,false,high,false
UrxXYfm0,3j6bhnx0vc5zv8hudcso2u6bq3dnka,37qw5d2zrkze345s3lh9033h4yxs8h,UrxXYfm0,2020-0188,2020-05-21,14:31:58,14:49:33,NA,incomplete,181,number,1,right,Purple_Plus_Grid_1.jpg,Red_Plus_Dots_4.jpg,Blue_Triangle_Chess_1.jpg,right,599.6900000027381,true,high,false
UrxXYfm0,3j6bhnx0vc5zv8hudcso2u6bq3dnka,37qw5d2zrkze345s3lh9033h4yxs8h,UrxXYfm0,2020-0188,2020-05-21,14:31:58,14:49:33,NA,incomplete,182,number,0,left,Green_Triangle_Dots_4.jpg,Blue_Star_Stripes_4.jpg,Purple_Triangle_Grid_3.jpg,left,692.0850000024075,true,high,false
UrxXYfm0,3j6bhnx0vc5zv8hudcso2u6bq3dnka,37qw5d2zrkze345s3lh9033h4yxs8h,UrxXYfm0,2020-0188,2020-05-21,14:31:58,14:49:33,NA,incomplete,183,number,1,right,Red_Circle_Chess_2.jpg,Green_Circle_Dots_3.jpg,Purple_Star_Grid_2.jpg,right,769.719999996596,true,high,false
UrxXYfm0,3j6bhnx0vc5zv8hudcso2u6bq3dnka,37qw5d2zrkze345s3lh9033h4yxs8h,UrxXYfm0,2020-0188,2020-05-21,14:31:58,14:49:33,NA,incomplete,184,number,0,left,Green_Circle_Chess_3.jpg,Red_Plus_Stripes_3.jpg,Blue_Circle_Grid_4.jpg,right,821.6499999980442,false,high,false
UrxXYfm0,3j6bhnx0vc5zv8hudcso2u6bq3dnka,37qw5d2zrkze345s3lh9033h4yxs8h,UrxXYfm0,2020-0188,2020-05-21,14:31:58,14:49:33,NA,incomplete,185,number,1,right,Blue_Plus_Grid_2.jpg,Purple_Plus_Dots_4.jpg,Red_Triangle_Stripes_2.jpg,right,718.4349999879487,true,high,false
UrxXYfm0,3j6bhnx0vc5zv8hudcso2u6bq3dnka,37qw5d2zrkze345s3lh9033h4yxs8h,UrxXYfm0,2020-0188,2020-05-21,14:31:58,14:49:33,NA,incomplete,186,number,0,left,Blue_Plus_Dots_3.jpg,Red_Triangle_Stripes_3.jpg,Purple_Plus_Chess_2.jpg,left,729.9349999957485,true,high,false
UrxXYfm0,3j6bhnx0vc5zv8hudcso2u6bq3dnka,37qw5d2zrkze345s3lh9033h4yxs8h,UrxXYfm0,2020-0188,2020-05-21,14:31:58,14:49:33,NA,incomplete,187,number,1,right,Red_Triangle_Grid_4.jpg,Blue_Triangle_Stripes_2.jpg,Green_Star_Chess_4.jpg,right,688.1250000005821,true,high,false
UrxXYfm0,3j6bhnx0vc5zv8hudcso2u6bq3dnka,37qw5d2zrkze345s3lh9033h4yxs8h,UrxXYfm0,2020-0188,2020-05-21,14:31:58,14:49:33,NA,incomplete,188,number,0,right,Red_Circle_Dots_1.jpg,Blue_Circle_Grid_3.jpg,Green_Star_Chess_1.jpg,right,678.7049999984447,true,high,false
UrxXYfm0,3j6bhnx0vc5zv8hudcso2u6bq3dnka,37qw5d2zrkze345s3lh9033h4yxs8h,UrxXYfm0,2020-0188,2020-05-21,14:31:58,14:49:33,NA,incomplete,189,number,1,left,Blue_Plus_Chess_1.jpg,Green_Triangle_Dots_1.jpg,Purple_Plus_Stripes_2.jpg,right,622.5600000034319,false,high,false
UrxXYfm0,3j6bhnx0vc5zv8hudcso2u6bq3dnka,37qw5d2zrkze345s3lh9033h4yxs8h,UrxXYfm0,2020-0188,2020-05-21,14:31:58,14:49:33,NA,incomplete,190,number,0,right,Green_Circle_Stripes_2.jpg,Purple_Circle_Dots_3.jpg,Red_Triangle_Grid_2.jpg,left,919.6999999985565,false,high,false
UrxXYfm0,3j6bhnx0vc5zv8hudcso2u6bq3dnka,37qw5d2zrkze345s3lh9033h4yxs8h,UrxXYfm0,2020-0188,2020-05-21,14:31:58,14:49:33,NA,incomplete,191,number,1,left,Purple_Star_Chess_3.jpg,Green_Plus_Dots_3.jpg,Blue_Star_Stripes_4.jpg,right,1172.3300000012387,false,high,false
UrxXYfm0,3j6bhnx0vc5zv8hudcso2u6bq3dnka,37qw5d2zrkze345s3lh9033h4yxs8h,UrxXYfm0,2020-0188,2020-05-21,14:31:58,14:49:33,NA,incomplete,192,number,1,left,Blue_Triangle_Stripes_2.jpg,Red_Star_Grid_2.jpg,Purple_Triangle_Dots_1.jpg,left,1175.1599999988684,true,high,false
UrxXYfm0,3j6bhnx0vc5zv8hudcso2u6bq3dnka,37qw5d2zrkze345s3lh9033h4yxs8h,UrxXYfm0,2020-0188,2020-05-21,14:31:58,14:49:33,NA,incomplete,193,number,1,left,Purple_Plus_Grid_1.jpg,Red_Triangle_Stripes_1.jpg,Green_Plus_Dots_3.jpg,left,761.4150000008522,true,high,false
UrxXYfm0,3j6bhnx0vc5zv8hudcso2u6bq3dnka,37qw5d2zrkze345s3lh9033h4yxs8h,UrxXYfm0,2020-0188,2020-05-21,14:31:58,14:49:33,NA,incomplete,194,number,1,right,Red_Plus_Grid_1.jpg,Purple_Plus_Dots_4.jpg,Blue_Circle_Stripes_1.jpg,left,725.7799999933923,false,high,false
UrxXYfm0,3j6bhnx0vc5zv8hudcso2u6bq3dnka,37qw5d2zrkze345s3lh9033h4yxs8h,UrxXYfm0,2020-0188,2020-05-21,14:31:58,14:49:33,NA,incomplete,195,number,1,left,Blue_Circle_Chess_3.jpg,Green_Plus_Stripes_3.jpg,Red_Circle_Grid_4.jpg,left,1026.6999999876134,true,high,false
UrxXYfm0,3j6bhnx0vc5zv8hudcso2u6bq3dnka,37qw5d2zrkze345s3lh9033h4yxs8h,UrxXYfm0,2020-0188,2020-05-21,14:31:58,14:49:33,NA,incomplete,196,number,1,right,Green_Triangle_Grid_2.jpg,Red_Triangle_Dots_1.jpg,Purple_Star_Stripes_2.jpg,right,690.9750000049826,true,high,false
UrxXYfm0,3j6bhnx0vc5zv8hudcso2u6bq3dnka,37qw5d2zrkze345s3lh9033h4yxs8h,UrxXYfm0,2020-0188,2020-05-21,14:31:58,14:49:33,NA,incomplete,197,number,1,right,Green_Star_Stripes_3.jpg,Blue_Star_Chess_1.jpg,Purple_Triangle_Grid_3.jpg,right,722.3549999907846,true,high,false
UrxXYfm0,3j6bhnx0vc5zv8hudcso2u6bq3dnka,37qw5d2zrkze345s3lh9033h4yxs8h,UrxXYfm0,2020-0188,2020-05-21,14:31:58,14:49:33,NA,incomplete,198,number,0,left,Green_Plus_Dots_4.jpg,Blue_Triangle_Chess_4.jpg,Purple_Plus_Grid_2.jpg,left,654.8349999939092,true,high,false
UrxXYfm0,3j6bhnx0vc5zv8hudcso2u6bq3dnka,37qw5d2zrkze345s3lh9033h4yxs8h,UrxXYfm0,2020-0188,2020-05-21,14:31:58,14:49:33,NA,incomplete,199,number,1,left,Purple_Circle_Chess_4.jpg,Red_Star_Grid_4.jpg,Green_Circle_Stripes_3.jpg,left,1286.4299999928335,true,high,false
UrxXYfm0,3j6bhnx0vc5zv8hudcso2u6bq3dnka,37qw5d2zrkze345s3lh9033h4yxs8h,UrxXYfm0,2020-0188,2020-05-21,14:31:58,14:49:33,NA,incomplete,200,shape,1,left,Purple_Plus_Stripes_1.jpg,Blue_Plus_Chess_4.jpg,Green_Triangle_Dots_1.jpg,right,556.7599999922095,false,high,false
UrxXYfm0,3j6bhnx0vc5zv8hudcso2u6bq3dnka,37qw5d2zrkze345s3lh9033h4yxs8h,UrxXYfm0,2020-0188,2020-05-21,14:31:58,14:49:33,NA,incomplete,201,shape,1,left,Blue_Triangle_Dots_2.jpg,Green_Triangle_Chess_1.jpg,Red_Circle_Stripes_2.jpg,left,1111.3299999997253,true,high,false
UrxXYfm0,3j6bhnx0vc5zv8hudcso2u6bq3dnka,37qw5d2zrkze345s3lh9033h4yxs8h,UrxXYfm0,2020-0188,2020-05-21,14:31:58,14:49:33,NA,incomplete,202,shape,1,right,Red_Plus_Stripes_4.jpg,Blue_Triangle_Grid_4.jpg,Green_Plus_Chess_2.jpg,right,717.6400000025751,true,high,false
UrxXYfm0,3j6bhnx0vc5zv8hudcso2u6bq3dnka,37qw5d2zrkze345s3lh9033h4yxs8h,UrxXYfm0,2020-0188,2020-05-21,14:31:58,14:49:33,NA,incomplete,203,shape,0,left,Blue_Plus_Chess_2.jpg,Green_Plus_Grid_1.jpg,Red_Circle_Dots_2.jpg,left,691.1799999943469,true,high,false
UrxXYfm0,3j6bhnx0vc5zv8hudcso2u6bq3dnka,37qw5d2zrkze345s3lh9033h4yxs8h,UrxXYfm0,2020-0188,2020-05-21,14:31:58,14:49:33,NA,incomplete,204,shape,1,right,Green_Circle_Stripes_1.jpg,Red_Plus_Chess_1.jpg,Purple_Circle_Dots_3.jpg,right,553.9049999933923,true,high,false
UrxXYfm0,3j6bhnx0vc5zv8hudcso2u6bq3dnka,37qw5d2zrkze345s3lh9033h4yxs8h,UrxXYfm0,2020-0188,2020-05-21,14:31:58,14:49:33,NA,incomplete,205,shape,1,right,Blue_Triangle_Grid_2.jpg,Purple_Star_Chess_2.jpg,Red_Triangle_Dots_4.jpg,right,716.5200000017649,true,high,false
UrxXYfm0,3j6bhnx0vc5zv8hudcso2u6bq3dnka,37qw5d2zrkze345s3lh9033h4yxs8h,UrxXYfm0,2020-0188,2020-05-21,14:31:58,14:49:33,NA,incomplete,206,shape,1,left,Blue_Triangle_Grid_4.jpg,Red_Triangle_Dots_3.jpg,Purple_Star_Stripes_4.jpg,left,642.3250000079861,true,high,false
UrxXYfm0,3j6bhnx0vc5zv8hudcso2u6bq3dnka,37qw5d2zrkze345s3lh9033h4yxs8h,UrxXYfm0,2020-0188,2020-05-21,14:31:58,14:49:33,NA,incomplete,207,shape,1,right,Purple_Plus_Dots_4.jpg,Blue_Triangle_Chess_4.jpg,Green_Plus_Grid_1.jpg,right,979.1350000014063,true,high,false
UrxXYfm0,3j6bhnx0vc5zv8hudcso2u6bq3dnka,37qw5d2zrkze345s3lh9033h4yxs8h,UrxXYfm0,2020-0188,2020-05-21,14:31:58,14:49:33,NA,incomplete,208,shape,1,left,Green_Triangle_Chess_3.jpg,Red_Triangle_Grid_1.jpg,Blue_Star_Stripes_3.jpg,left,709.5899999985704,true,high,false
UrxXYfm0,3j6bhnx0vc5zv8hudcso2u6bq3dnka,37qw5d2zrkze345s3lh9033h4yxs8h,UrxXYfm0,2020-0188,2020-05-21,14:31:58,14:49:33,NA,incomplete,209,shape,1,right,Purple_Circle_Chess_2.jpg,Red_Triangle_Stripes_2.jpg,Blue_Circle_Dots_3.jpg,right,667.8400000091642,true,high,false
UrxXYfm0,3j6bhnx0vc5zv8hudcso2u6bq3dnka,37qw5d2zrkze345s3lh9033h4yxs8h,UrxXYfm0,2020-0188,2020-05-21,14:31:58,14:49:33,NA,incomplete,210,shape,1,left,Blue_Triangle_Dots_4.jpg,Purple_Triangle_Chess_2.jpg,Green_Star_Stripes_4.jpg,left,690.710000009858,true,high,false
UrxXYfm0,3j6bhnx0vc5zv8hudcso2u6bq3dnka,37qw5d2zrkze345s3lh9033h4yxs8h,UrxXYfm0,2020-0188,2020-05-21,14:31:58,14:49:33,NA,incomplete,211,shape,0,left,Purple_Star_Grid_4.jpg,Green_Star_Dots_3.jpg,Red_Plus_Stripes_4.jpg,left,673.1500000023516,true,high,false
UrxXYfm0,3j6bhnx0vc5zv8hudcso2u6bq3dnka,37qw5d2zrkze345s3lh9033h4yxs8h,UrxXYfm0,2020-0188,2020-05-21,14:31:58,14:49:33,NA,incomplete,212,shape,1,left,Blue_Circle_Dots_1.jpg,Purple_Circle_Stripes_4.jpg,Red_Star_Chess_1.jpg,left,640.6149999966146,true,high,false
UrxXYfm0,3j6bhnx0vc5zv8hudcso2u6bq3dnka,37qw5d2zrkze345s3lh9033h4yxs8h,UrxXYfm0,2020-0188,2020-05-21,14:31:58,14:49:33,NA,incomplete,213,shape,1,left,Red_Star_Stripes_2.jpg,Green_Star_Grid_3.jpg,Purple_Triangle_Chess_2.jpg,left,600.8650000003399,true,high,false
UrxXYfm0,3j6bhnx0vc5zv8hudcso2u6bq3dnka,37qw5d2zrkze345s3lh9033h4yxs8h,UrxXYfm0,2020-0188,2020-05-21,14:31:58,14:49:33,NA,incomplete,214,shape,1,right,Blue_Circle_Dots_2.jpg,Green_Star_Stripes_2.jpg,Purple_Circle_Chess_1.jpg,right,602.035000003525,true,high,false
UrxXYfm0,3j6bhnx0vc5zv8hudcso2u6bq3dnka,37qw5d2zrkze345s3lh9033h4yxs8h,UrxXYfm0,2020-0188,2020-05-21,14:31:58,14:49:33,NA,incomplete,215,shape,0,right,Green_Triangle_Dots_4.jpg,Purple_Star_Stripes_4.jpg,Blue_Triangle_Chess_3.jpg,right,644.4999999948777,true,high,false
UrxXYfm0,3j6bhnx0vc5zv8hudcso2u6bq3dnka,37qw5d2zrkze345s3lh9033h4yxs8h,UrxXYfm0,2020-0188,2020-05-21,14:31:58,14:49:33,NA,incomplete,216,shape,1,right,Purple_Triangle_Stripes_1.jpg,Red_Circle_Chess_1.jpg,Blue_Triangle_Dots_4.jpg,right,612.0850000006612,true,high,false
UrxXYfm0,3j6bhnx0vc5zv8hudcso2u6bq3dnka,37qw5d2zrkze345s3lh9033h4yxs8h,UrxXYfm0,2020-0188,2020-05-21,14:31:58,14:49:33,NA,incomplete,217,shape,0,right,Red_Plus_Chess_1.jpg,Blue_Triangle_Stripes_1.jpg,Green_Plus_Dots_4.jpg,right,647.595000002184,true,high,false
UrxXYfm0,3j6bhnx0vc5zv8hudcso2u6bq3dnka,37qw5d2zrkze345s3lh9033h4yxs8h,UrxXYfm0,2020-0188,2020-05-21,14:31:58,14:49:33,NA,incomplete,218,shape,1,left,Blue_Plus_Chess_3.jpg,Green_Plus_Grid_2.jpg,Purple_Triangle_Dots_3.jpg,right,935.154999999213,false,high,false
UrxXYfm0,3j6bhnx0vc5zv8hudcso2u6bq3dnka,37qw5d2zrkze345s3lh9033h4yxs8h,UrxXYfm0,2020-0188,2020-05-21,14:31:58,14:49:33,NA,incomplete,219,shape,1,right,Blue_Circle_Grid_4.jpg,Green_Star_Stripes_4.jpg,Purple_Circle_Dots_3.jpg,left,811.8799999938346,false,high,false
UrxXYfm0,3j6bhnx0vc5zv8hudcso2u6bq3dnka,37qw5d2zrkze345s3lh9033h4yxs8h,UrxXYfm0,2020-0188,2020-05-21,14:31:58,14:49:33,NA,incomplete,220,number,1,right,Red_Star_Dots_3.jpg,Green_Star_Chess_4.jpg,Blue_Circle_Grid_3.jpg,left,853.2899999991059,false,high,false
UrxXYfm0,3j6bhnx0vc5zv8hudcso2u6bq3dnka,37qw5d2zrkze345s3lh9033h4yxs8h,UrxXYfm0,2020-0188,2020-05-21,14:31:58,14:49:33,NA,incomplete,221,number,1,left,Red_Star_Stripes_3.jpg,Green_Plus_Dots_3.jpg,Blue_Star_Grid_2.jpg,left,853.1800000055227,true,high,false
UrxXYfm0,3j6bhnx0vc5zv8hudcso2u6bq3dnka,37qw5d2zrkze345s3lh9033h4yxs8h,UrxXYfm0,2020-0188,2020-05-21,14:31:58,14:49:33,NA,incomplete,222,number,1,left,Green_Plus_Dots_1.jpg,Blue_Circle_Stripes_1.jpg,Purple_Plus_Chess_4.jpg,left,900.3649999940535,true,high,false
UrxXYfm0,3j6bhnx0vc5zv8hudcso2u6bq3dnka,37qw5d2zrkze345s3lh9033h4yxs8h,UrxXYfm0,2020-0188,2020-05-21,14:31:58,14:49:33,NA,incomplete,223,number,1,right,Purple_Circle_Dots_1.jpg,Green_Circle_Grid_2.jpg,Red_Triangle_Chess_1.jpg,left,651.159999993979,false,high,false
UrxXYfm0,3j6bhnx0vc5zv8hudcso2u6bq3dnka,37qw5d2zrkze345s3lh9033h4yxs8h,UrxXYfm0,2020-0188,2020-05-21,14:31:58,14:49:33,NA,incomplete,224,number,0,right,Red_Circle_Stripes_3.jpg,Purple_Circle_Chess_4.jpg,Blue_Plus_Grid_3.jpg,right,674.1900000051828,true,high,false
UrxXYfm0,3j6bhnx0vc5zv8hudcso2u6bq3dnka,37qw5d2zrkze345s3lh9033h4yxs8h,UrxXYfm0,2020-0188,2020-05-21,14:31:58,14:49:33,NA,incomplete,225,number,1,left,Green_Circle_Dots_2.jpg,Blue_Triangle_Grid_2.jpg,Purple_Circle_Chess_3.jpg,left,1298.1250000011642,true,high,false
UrxXYfm0,3j6bhnx0vc5zv8hudcso2u6bq3dnka,37qw5d2zrkze345s3lh9033h4yxs8h,UrxXYfm0,2020-0188,2020-05-21,14:31:58,14:49:33,NA,incomplete,226,number,1,left,Blue_Star_Stripes_2.jpg,Purple_Circle_Grid_2.jpg,Green_Star_Chess_1.jpg,right,1352.5200000003679,false,high,false
UrxXYfm0,3j6bhnx0vc5zv8hudcso2u6bq3dnka,37qw5d2zrkze345s3lh9033h4yxs8h,UrxXYfm0,2020-0188,2020-05-21,14:31:58,14:49:33,NA,incomplete,227,number,1,right,Blue_Star_Chess_4.jpg,Purple_Star_Grid_2.jpg,Green_Circle_Stripes_4.jpg,right,876.445000001695,true,high,false
UrxXYfm0,3j6bhnx0vc5zv8hudcso2u6bq3dnka,37qw5d2zrkze345s3lh9033h4yxs8h,UrxXYfm0,2020-0188,2020-05-21,14:31:58,14:49:33,NA,incomplete,228,number,1,left,Red_Star_Grid_1.jpg,Purple_Circle_Dots_1.jpg,Green_Star_Chess_2.jpg,left,594.3950000073528,true,high,false
UrxXYfm0,3j6bhnx0vc5zv8hudcso2u6bq3dnka,37qw5d2zrkze345s3lh9033h4yxs8h,UrxXYfm0,2020-0188,2020-05-21,14:31:58,14:49:33,NA,incomplete,229,number,1,right,Red_Plus_Stripes_1.jpg,Green_Plus_Dots_2.jpg,Purple_Triangle_Chess_1.jpg,right,605.439999999362,true,high,false
UrxXYfm0,3j6bhnx0vc5zv8hudcso2u6bq3dnka,37qw5d2zrkze345s3lh9033h4yxs8h,UrxXYfm0,2020-0188,2020-05-21,14:31:58,14:49:33,NA,incomplete,230,number,1,left,Purple_Star_Stripes_1.jpg,Green_Circle_Chess_1.jpg,Blue_Star_Grid_2.jpg,left,799.31500001112,true,high,false
UrxXYfm0,3j6bhnx0vc5zv8hudcso2u6bq3dnka,37qw5d2zrkze345s3lh9033h4yxs8h,UrxXYfm0,2020-0188,2020-05-21,14:31:58,14:49:33,NA,incomplete,231,number,1,right,Purple_Triangle_Stripes_3.jpg,Green_Triangle_Chess_2.jpg,Red_Plus_Grid_3.jpg,right,737.4200000049314,true,high,false
UrxXYfm0,3j6bhnx0vc5zv8hudcso2u6bq3dnka,37qw5d2zrkze345s3lh9033h4yxs8h,UrxXYfm0,2020-0188,2020-05-21,14:31:58,14:49:33,NA,incomplete,232,number,1,right,Red_Circle_Chess_1.jpg,Blue_Circle_Dots_4.jpg,Purple_Plus_Stripes_1.jpg,right,646.7350000020815,true,high,false
UrxXYfm0,3j6bhnx0vc5zv8hudcso2u6bq3dnka,37qw5d2zrkze345s3lh9033h4yxs8h,UrxXYfm0,2020-0188,2020-05-21,14:31:58,14:49:33,NA,incomplete,233,number,0,left,Blue_Triangle_Dots_4.jpg,Purple_Plus_Stripes_4.jpg,Green_Triangle_Chess_3.jpg,left,751.204999993206,true,high,false
UrxXYfm0,3j6bhnx0vc5zv8hudcso2u6bq3dnka,37qw5d2zrkze345s3lh9033h4yxs8h,UrxXYfm0,2020-0188,2020-05-21,14:31:58,14:49:33,NA,incomplete,234,number,1,right,Red_Triangle_Dots_3.jpg,Green_Triangle_Grid_4.jpg,Purple_Plus_Chess_3.jpg,right,667.1599999972386,true,high,false
UrxXYfm0,3j6bhnx0vc5zv8hudcso2u6bq3dnka,37qw5d2zrkze345s3lh9033h4yxs8h,UrxXYfm0,2020-0188,2020-05-21,14:31:58,14:49:33,NA,incomplete,235,number,1,right,Green_Circle_Chess_2.jpg,Purple_Circle_Dots_3.jpg,Blue_Triangle_Stripes_2.jpg,right,746.5450000017881,true,high,false
UrxXYfm0,3j6bhnx0vc5zv8hudcso2u6bq3dnka,37qw5d2zrkze345s3lh9033h4yxs8h,UrxXYfm0,2020-0188,2020-05-21,14:31:58,14:49:33,NA,incomplete,236,number,1,right,Green_Circle_Dots_3.jpg,Purple_Circle_Stripes_4.jpg,Red_Star_Grid_3.jpg,right,735.065000000759,true,high,false
UrxXYfm0,3j6bhnx0vc5zv8hudcso2u6bq3dnka,37qw5d2zrkze345s3lh9033h4yxs8h,UrxXYfm0,2020-0188,2020-05-21,14:31:58,14:49:33,NA,incomplete,237,number,0,left,Blue_Triangle_Chess_4.jpg,Red_Plus_Stripes_4.jpg,Purple_Triangle_Dots_3.jpg,left,715.1450000092154,true,high,false
UrxXYfm0,3j6bhnx0vc5zv8hudcso2u6bq3dnka,37qw5d2zrkze345s3lh9033h4yxs8h,UrxXYfm0,2020-0188,2020-05-21,14:31:58,14:49:33,NA,incomplete,238,number,1,left,Red_Triangle_Chess_3.jpg,Purple_Plus_Dots_3.jpg,Green_Triangle_Grid_1.jpg,left,689.4049999973504,true,high,false
UrxXYfm0,3j6bhnx0vc5zv8hudcso2u6bq3dnka,37qw5d2zrkze345s3lh9033h4yxs8h,UrxXYfm0,2020-0188,2020-05-21,14:31:58,14:49:33,NA,incomplete,239,number,1,right,Red_Triangle_Dots_3.jpg,Purple_Triangle_Chess_1.jpg,Green_Plus_Stripes_3.jpg,right,632.435000006808,true,high,false
UrxXYfm0,3j6bhnx0vc5zv8hudcso2u6bq3dnka,37qw5d2zrkze345s3lh9033h4yxs8h,UrxXYfm0,2020-0188,2020-05-21,14:31:58,14:49:33,NA,NA,instruction example,color,NA,NA,Green_Star_Grid_2.jpg,Green_Plus_Chess_3.jpg,Red_Triangle_Grid_4.jpg,NA,NA,NA,NA,undefined
UrxXYfm0,3j6bhnx0vc5zv8hudcso2u6bq3dnka,37qw5d2zrkze345s3lh9033h4yxs8h,UrxXYfm0,2020-0188,2020-05-21,14:31:58,14:49:33,NA,NA,instruction example,color,NA,NA,Red_Triangle_Stripes_2.jpg,Purple_Star_Stripes_3.jpg,Red_Circle_Grid_1.jpg,NA,NA,NA,NA,undefined
UrxXYfm0,3j6bhnx0vc5zv8hudcso2u6bq3dnka,37qw5d2zrkze345s3lh9033h4yxs8h,UrxXYfm0,2020-0188,2020-05-21,14:31:58,14:49:33,NA,NA,instruction example,color,NA,NA,Blue_Plus_Dots_3.jpg,Green_Plus_Chess_4.jpg,Red_Triangle_Grid_3.jpg,NA,NA,NA,NA,undefined
UrxXYfm0,3j6bhnx0vc5zv8hudcso2u6bq3dnka,37qw5d2zrkze345s3lh9033h4yxs8h,UrxXYfm0,2020-0188,2020-05-21,14:31:58,14:49:33,NA,NA,instruction example,color,NA,NA,Green_Circle_Dots_2.jpg,Blue_Star_Stripes_2.jpg,Red_Circle_Chess_1.jpg,NA,NA,NA,NA,undefined
UrxXYfm0,3j6bhnx0vc5zv8hudcso2u6bq3dnka,37qw5d2zrkze345s3lh9033h4yxs8h,UrxXYfm0,2020-0188,2020-05-21,14:31:58,14:49:33,1003692.3700000043,1055669.4650000136,NA,NA,NA,NA,NA,NA,NA,NA,NA,NA,NA,undefined
