workerId,hitId,assignmentId,subject,studyid,exp_date,exp_start,exp_end,time_start,time_end,trial,type,reward_validity,answer,image_top,image_left,image_right,response,response_time,response_acc,volatility,practice
KE3djsqD,3icohx7eofotocxdgkfntnxt5xb0e8,37u1utwh9zz22p5fowh4atymgtl8ra,KE3djsqD,2020-0188,2020-11-18,15:13:13,15:32:15,NA,incomplete,0,color,1,left,Blue_Star_Dots_2.jpg,Blue_Circle_Grid_1.jpg,Purple_Star_Chess_4.jpg,none,0,false,NA,true
KE3djsqD,3icohx7eofotocxdgkfntnxt5xb0e8,37u1utwh9zz22p5fowh4atymgtl8ra,KE3djsqD,2020-0188,2020-11-18,15:13:13,15:32:15,NA,incomplete,1,color,1,left,Purple_Triangle_Stripes_4.jpg,Purple_Circle_Dots_1.jpg,Blue_Triangle_Grid_2.jpg,left,1053.169999999227,true,NA,true
KE3djsqD,3icohx7eofotocxdgkfntnxt5xb0e8,37u1utwh9zz22p5fowh4atymgtl8ra,KE3djsqD,2020-0188,2020-11-18,15:13:13,15:32:15,NA,incomplete,2,color,1,right,Purple_Star_Stripes_2.jpg,Red_Star_Chess_4.jpg,Purple_Triangle_Grid_3.jpg,right,1070.654999999504,true,NA,true
KE3djsqD,3icohx7eofotocxdgkfntnxt5xb0e8,37u1utwh9zz22p5fowh4atymgtl8ra,KE3djsqD,2020-0188,2020-11-18,15:13:13,15:32:15,NA,incomplete,3,color,1,right,Blue_Plus_Dots_3.jpg,Purple_Plus_Stripes_1.jpg,Blue_Circle_Chess_4.jpg,right,937.6650000003865,true,NA,true
KE3djsqD,3icohx7eofotocxdgkfntnxt5xb0e8,37u1utwh9zz22p5fowh4atymgtl8ra,KE3djsqD,2020-0188,2020-11-18,15:13:13,15:32:15,NA,incomplete,4,color,1,left,Blue_Circle_Dots_1.jpg,Blue_Plus_Chess_3.jpg,Purple_Circle_Grid_4.jpg,left,760.4650000002584,true,NA,true
KE3djsqD,3icohx7eofotocxdgkfntnxt5xb0e8,37u1utwh9zz22p5fowh4atymgtl8ra,KE3djsqD,2020-0188,2020-11-18,15:13:13,15:32:15,NA,incomplete,5,color,1,left,Red_Star_Stripes_1.jpg,Red_Plus_Grid_3.jpg,Blue_Star_Dots_4.jpg,left,893.4599999993225,true,NA,true
KE3djsqD,3icohx7eofotocxdgkfntnxt5xb0e8,37u1utwh9zz22p5fowh4atymgtl8ra,KE3djsqD,2020-0188,2020-11-18,15:13:13,15:32:15,NA,incomplete,6,color,1,right,Purple_Circle_Dots_4.jpg,Blue_Circle_Grid_3.jpg,Purple_Plus_Stripes_2.jpg,right,926.195000000007,true,NA,true
KE3djsqD,3icohx7eofotocxdgkfntnxt5xb0e8,37u1utwh9zz22p5fowh4atymgtl8ra,KE3djsqD,2020-0188,2020-11-18,15:13:13,15:32:15,NA,incomplete,7,color,1,right,Red_Star_Stripes_1.jpg,Purple_Star_Grid_3.jpg,Red_Plus_Dots_2.jpg,right,798.6799999998766,true,NA,true
KE3djsqD,3icohx7eofotocxdgkfntnxt5xb0e8,37u1utwh9zz22p5fowh4atymgtl8ra,KE3djsqD,2020-0188,2020-11-18,15:13:13,15:32:15,NA,incomplete,8,color,0,left,Red_Circle_Chess_2.jpg,Red_Triangle_Stripes_1.jpg,Blue_Circle_Dots_3.jpg,left,755.0650000002352,true,NA,true
KE3djsqD,3icohx7eofotocxdgkfntnxt5xb0e8,37u1utwh9zz22p5fowh4atymgtl8ra,KE3djsqD,2020-0188,2020-11-18,15:13:13,15:32:15,NA,incomplete,9,color,0,left,Red_Star_Stripes_3.jpg,Red_Triangle_Dots_4.jpg,Purple_Star_Grid_2.jpg,left,968.0250000001397,true,NA,true
KE3djsqD,3icohx7eofotocxdgkfntnxt5xb0e8,37u1utwh9zz22p5fowh4atymgtl8ra,KE3djsqD,2020-0188,2020-11-18,15:13:13,15:32:15,NA,incomplete,10,color,0,right,Green_Plus_Chess_1.jpg,Blue_Plus_Stripes_4.jpg,Green_Star_Grid_3.jpg,right,886.6949999992503,true,NA,true
KE3djsqD,3icohx7eofotocxdgkfntnxt5xb0e8,37u1utwh9zz22p5fowh4atymgtl8ra,KE3djsqD,2020-0188,2020-11-18,15:13:13,15:32:15,NA,incomplete,11,color,1,right,Purple_Star_Chess_4.jpg,Blue_Star_Dots_1.jpg,Purple_Plus_Grid_2.jpg,right,870.9049999997951,true,NA,true
KE3djsqD,3icohx7eofotocxdgkfntnxt5xb0e8,37u1utwh9zz22p5fowh4atymgtl8ra,KE3djsqD,2020-0188,2020-11-18,15:13:13,15:32:15,NA,incomplete,12,color,1,right,Purple_Triangle_Grid_3.jpg,Green_Triangle_Dots_4.jpg,Purple_Star_Stripes_2.jpg,right,864.1699999998091,true,NA,true
KE3djsqD,3icohx7eofotocxdgkfntnxt5xb0e8,37u1utwh9zz22p5fowh4atymgtl8ra,KE3djsqD,2020-0188,2020-11-18,15:13:13,15:32:15,NA,incomplete,13,color,1,right,Red_Triangle_Chess_1.jpg,Purple_Triangle_Dots_4.jpg,Red_Plus_Grid_3.jpg,right,722.6849999997066,true,NA,true
KE3djsqD,3icohx7eofotocxdgkfntnxt5xb0e8,37u1utwh9zz22p5fowh4atymgtl8ra,KE3djsqD,2020-0188,2020-11-18,15:13:13,15:32:15,NA,incomplete,14,color,1,right,Red_Star_Grid_4.jpg,Purple_Star_Chess_1.jpg,Red_Triangle_Stripes_3.jpg,right,752.5900000000838,true,NA,true
KE3djsqD,3icohx7eofotocxdgkfntnxt5xb0e8,37u1utwh9zz22p5fowh4atymgtl8ra,KE3djsqD,2020-0188,2020-11-18,15:13:13,15:32:15,NA,incomplete,15,color,1,left,Purple_Plus_Dots_1.jpg,Purple_Circle_Stripes_3.jpg,Green_Plus_Grid_4.jpg,left,734.4149999999208,true,NA,true
KE3djsqD,3icohx7eofotocxdgkfntnxt5xb0e8,37u1utwh9zz22p5fowh4atymgtl8ra,KE3djsqD,2020-0188,2020-11-18,15:13:13,15:32:15,NA,incomplete,16,color,0,right,Green_Star_Stripes_2.jpg,Blue_Star_Grid_4.jpg,Green_Circle_Chess_1.jpg,right,693.6949999998906,true,NA,true
KE3djsqD,3icohx7eofotocxdgkfntnxt5xb0e8,37u1utwh9zz22p5fowh4atymgtl8ra,KE3djsqD,2020-0188,2020-11-18,15:13:13,15:32:15,NA,incomplete,17,color,1,left,Blue_Plus_Stripes_3.jpg,Blue_Star_Grid_1.jpg,Red_Plus_Dots_2.jpg,left,677.5950000000885,true,NA,true
KE3djsqD,3icohx7eofotocxdgkfntnxt5xb0e8,37u1utwh9zz22p5fowh4atymgtl8ra,KE3djsqD,2020-0188,2020-11-18,15:13:13,15:32:15,NA,incomplete,18,color,1,left,Red_Circle_Stripes_1.jpg,Red_Plus_Grid_2.jpg,Blue_Circle_Chess_4.jpg,left,743.2200000003213,true,NA,true
KE3djsqD,3icohx7eofotocxdgkfntnxt5xb0e8,37u1utwh9zz22p5fowh4atymgtl8ra,KE3djsqD,2020-0188,2020-11-18,15:13:13,15:32:15,NA,incomplete,19,color,1,right,Purple_Star_Dots_1.jpg,Green_Star_Grid_2.jpg,Purple_Circle_Stripes_3.jpg,right,597.1150000004563,true,NA,true
KE3djsqD,3icohx7eofotocxdgkfntnxt5xb0e8,37u1utwh9zz22p5fowh4atymgtl8ra,KE3djsqD,2020-0188,2020-11-18,15:13:13,15:32:15,NA,incomplete,20,shape,1,right,Blue_Star_Chess_4.jpg,Blue_Circle_Stripes_2.jpg,Purple_Star_Grid_1.jpg,right,1151.9899999993504,true,NA,true
KE3djsqD,3icohx7eofotocxdgkfntnxt5xb0e8,37u1utwh9zz22p5fowh4atymgtl8ra,KE3djsqD,2020-0188,2020-11-18,15:13:13,15:32:15,NA,incomplete,21,shape,1,right,Red_Triangle_Stripes_2.jpg,Red_Star_Chess_4.jpg,Purple_Triangle_Dots_1.jpg,right,1063.064999999362,true,NA,true
KE3djsqD,3icohx7eofotocxdgkfntnxt5xb0e8,37u1utwh9zz22p5fowh4atymgtl8ra,KE3djsqD,2020-0188,2020-11-18,15:13:13,15:32:15,NA,incomplete,22,shape,1,right,Purple_Star_Stripes_2.jpg,Purple_Circle_Grid_1.jpg,Green_Star_Chess_3.jpg,right,977.7049999993178,true,NA,true
KE3djsqD,3icohx7eofotocxdgkfntnxt5xb0e8,37u1utwh9zz22p5fowh4atymgtl8ra,KE3djsqD,2020-0188,2020-11-18,15:13:13,15:32:15,NA,incomplete,23,shape,1,left,Blue_Triangle_Grid_4.jpg,Red_Triangle_Dots_3.jpg,Blue_Circle_Chess_2.jpg,left,1032.1000000003842,true,NA,true
KE3djsqD,3icohx7eofotocxdgkfntnxt5xb0e8,37u1utwh9zz22p5fowh4atymgtl8ra,KE3djsqD,2020-0188,2020-11-18,15:13:13,15:32:15,NA,incomplete,24,shape,1,right,Purple_Circle_Grid_4.jpg,Purple_Plus_Dots_2.jpg,Red_Circle_Chess_3.jpg,right,1011.554999999993,true,NA,true
KE3djsqD,3icohx7eofotocxdgkfntnxt5xb0e8,37u1utwh9zz22p5fowh4atymgtl8ra,KE3djsqD,2020-0188,2020-11-18,15:13:13,15:32:15,NA,incomplete,25,shape,1,left,Red_Star_Chess_2.jpg,Purple_Star_Grid_4.jpg,Red_Plus_Dots_3.jpg,left,815.6500000004307,true,NA,true
KE3djsqD,3icohx7eofotocxdgkfntnxt5xb0e8,37u1utwh9zz22p5fowh4atymgtl8ra,KE3djsqD,2020-0188,2020-11-18,15:13:13,15:32:15,NA,incomplete,26,shape,1,right,Green_Triangle_Stripes_3.jpg,Green_Circle_Dots_2.jpg,Red_Triangle_Grid_1.jpg,right,1002.9150000000373,true,NA,true
KE3djsqD,3icohx7eofotocxdgkfntnxt5xb0e8,37u1utwh9zz22p5fowh4atymgtl8ra,KE3djsqD,2020-0188,2020-11-18,15:13:13,15:32:15,NA,incomplete,27,shape,1,left,Blue_Triangle_Chess_2.jpg,Green_Triangle_Grid_4.jpg,Blue_Circle_Stripes_3.jpg,left,1024.1800000004005,true,NA,true
KE3djsqD,3icohx7eofotocxdgkfntnxt5xb0e8,37u1utwh9zz22p5fowh4atymgtl8ra,KE3djsqD,2020-0188,2020-11-18,15:13:13,15:32:15,NA,incomplete,28,shape,1,right,Red_Plus_Stripes_4.jpg,Red_Circle_Grid_2.jpg,Blue_Plus_Chess_3.jpg,right,924.1950000004726,true,NA,true
KE3djsqD,3icohx7eofotocxdgkfntnxt5xb0e8,37u1utwh9zz22p5fowh4atymgtl8ra,KE3djsqD,2020-0188,2020-11-18,15:13:13,15:32:15,NA,incomplete,29,shape,0,left,Red_Circle_Dots_3.jpg,Green_Circle_Chess_4.jpg,Red_Plus_Stripes_2.jpg,left,923.2750000001397,true,NA,true
KE3djsqD,3icohx7eofotocxdgkfntnxt5xb0e8,37u1utwh9zz22p5fowh4atymgtl8ra,KE3djsqD,2020-0188,2020-11-18,15:13:13,15:32:15,NA,incomplete,30,shape,0,left,Purple_Triangle_Dots_3.jpg,Green_Triangle_Stripes_4.jpg,Purple_Circle_Chess_1.jpg,left,859.644999999553,true,NA,true
KE3djsqD,3icohx7eofotocxdgkfntnxt5xb0e8,37u1utwh9zz22p5fowh4atymgtl8ra,KE3djsqD,2020-0188,2020-11-18,15:13:13,15:32:15,NA,incomplete,31,shape,1,left,Blue_Plus_Dots_2.jpg,Green_Plus_Stripes_1.jpg,Blue_Star_Chess_4.jpg,left,1005.2000000004773,true,NA,true
KE3djsqD,3icohx7eofotocxdgkfntnxt5xb0e8,37u1utwh9zz22p5fowh4atymgtl8ra,KE3djsqD,2020-0188,2020-11-18,15:13:13,15:32:15,NA,incomplete,32,shape,1,left,Purple_Star_Grid_3.jpg,Blue_Star_Stripes_1.jpg,Purple_Triangle_Chess_2.jpg,left,1154.4699999995064,true,NA,true
KE3djsqD,3icohx7eofotocxdgkfntnxt5xb0e8,37u1utwh9zz22p5fowh4atymgtl8ra,KE3djsqD,2020-0188,2020-11-18,15:13:13,15:32:15,NA,incomplete,33,shape,1,right,Blue_Triangle_Grid_2.jpg,Blue_Circle_Dots_1.jpg,Red_Triangle_Chess_3.jpg,right,944.7550000004703,true,NA,true
KE3djsqD,3icohx7eofotocxdgkfntnxt5xb0e8,37u1utwh9zz22p5fowh4atymgtl8ra,KE3djsqD,2020-0188,2020-11-18,15:13:13,15:32:15,NA,incomplete,34,shape,1,left,Blue_Circle_Stripes_4.jpg,Purple_Circle_Chess_1.jpg,Blue_Triangle_Grid_2.jpg,left,863.7799999996787,true,NA,true
KE3djsqD,3icohx7eofotocxdgkfntnxt5xb0e8,37u1utwh9zz22p5fowh4atymgtl8ra,KE3djsqD,2020-0188,2020-11-18,15:13:13,15:32:15,NA,incomplete,35,shape,1,left,Red_Plus_Dots_1.jpg,Blue_Plus_Grid_2.jpg,Red_Circle_Chess_3.jpg,left,914.3299999996088,true,NA,true
KE3djsqD,3icohx7eofotocxdgkfntnxt5xb0e8,37u1utwh9zz22p5fowh4atymgtl8ra,KE3djsqD,2020-0188,2020-11-18,15:13:13,15:32:15,NA,incomplete,36,shape,0,left,Green_Star_Chess_3.jpg,Blue_Star_Grid_4.jpg,Green_Circle_Dots_1.jpg,left,1162.209999999497,true,NA,true
KE3djsqD,3icohx7eofotocxdgkfntnxt5xb0e8,37u1utwh9zz22p5fowh4atymgtl8ra,KE3djsqD,2020-0188,2020-11-18,15:13:13,15:32:15,NA,incomplete,37,shape,1,right,Purple_Plus_Stripes_4.jpg,Purple_Star_Dots_3.jpg,Green_Plus_Chess_1.jpg,right,1040.114999999816,true,NA,true
KE3djsqD,3icohx7eofotocxdgkfntnxt5xb0e8,37u1utwh9zz22p5fowh4atymgtl8ra,KE3djsqD,2020-0188,2020-11-18,15:13:13,15:32:15,NA,incomplete,38,shape,0,right,Green_Triangle_Dots_1.jpg,Green_Circle_Stripes_2.jpg,Purple_Triangle_Chess_4.jpg,right,1084.7199999997974,true,NA,true
KE3djsqD,3icohx7eofotocxdgkfntnxt5xb0e8,37u1utwh9zz22p5fowh4atymgtl8ra,KE3djsqD,2020-0188,2020-11-18,15:13:13,15:32:15,NA,incomplete,39,shape,1,right,Purple_Triangle_Dots_1.jpg,Purple_Plus_Grid_4.jpg,Green_Triangle_Chess_3.jpg,right,1150.11500000034,true,NA,true
KE3djsqD,3icohx7eofotocxdgkfntnxt5xb0e8,37u1utwh9zz22p5fowh4atymgtl8ra,KE3djsqD,2020-0188,2020-11-18,15:13:13,15:32:15,NA,incomplete,0,color,1,left,Green_Plus_Chess_3.jpg,Green_Circle_Dots_4.jpg,Blue_Plus_Stripes_1.jpg,left,1652.715000000142,true,low,false
KE3djsqD,3icohx7eofotocxdgkfntnxt5xb0e8,37u1utwh9zz22p5fowh4atymgtl8ra,KE3djsqD,2020-0188,2020-11-18,15:13:13,15:32:15,NA,incomplete,1,color,1,left,Blue_Star_Stripes_4.jpg,Blue_Circle_Dots_2.jpg,Green_Star_Grid_1.jpg,left,918.4199999999837,true,low,false
KE3djsqD,3icohx7eofotocxdgkfntnxt5xb0e8,37u1utwh9zz22p5fowh4atymgtl8ra,KE3djsqD,2020-0188,2020-11-18,15:13:13,15:32:15,NA,incomplete,2,color,1,left,Green_Circle_Stripes_3.jpg,Green_Star_Chess_1.jpg,Purple_Circle_Dots_4.jpg,right,1021.2100000007777,false,low,false
KE3djsqD,3icohx7eofotocxdgkfntnxt5xb0e8,37u1utwh9zz22p5fowh4atymgtl8ra,KE3djsqD,2020-0188,2020-11-18,15:13:13,15:32:15,NA,incomplete,3,color,1,left,Green_Circle_Chess_3.jpg,Green_Triangle_Grid_4.jpg,Purple_Circle_Dots_1.jpg,left,857.2700000004261,true,low,false
KE3djsqD,3icohx7eofotocxdgkfntnxt5xb0e8,37u1utwh9zz22p5fowh4atymgtl8ra,KE3djsqD,2020-0188,2020-11-18,15:13:13,15:32:15,NA,incomplete,4,color,1,right,Blue_Star_Chess_2.jpg,Purple_Star_Stripes_4.jpg,Blue_Triangle_Grid_3.jpg,right,700.2400000001071,true,low,false
KE3djsqD,3icohx7eofotocxdgkfntnxt5xb0e8,37u1utwh9zz22p5fowh4atymgtl8ra,KE3djsqD,2020-0188,2020-11-18,15:13:13,15:32:15,NA,incomplete,5,color,1,right,Red_Triangle_Chess_4.jpg,Blue_Triangle_Dots_2.jpg,Red_Star_Grid_1.jpg,right,754.6600000004983,true,low,false
KE3djsqD,3icohx7eofotocxdgkfntnxt5xb0e8,37u1utwh9zz22p5fowh4atymgtl8ra,KE3djsqD,2020-0188,2020-11-18,15:13:13,15:32:15,NA,incomplete,6,color,1,left,Blue_Star_Stripes_1.jpg,Blue_Plus_Grid_4.jpg,Green_Star_Chess_2.jpg,left,712.6250000001164,true,low,false
KE3djsqD,3icohx7eofotocxdgkfntnxt5xb0e8,37u1utwh9zz22p5fowh4atymgtl8ra,KE3djsqD,2020-0188,2020-11-18,15:13:13,15:32:15,NA,incomplete,7,color,0,right,Red_Plus_Chess_3.jpg,Green_Plus_Grid_2.jpg,Red_Star_Stripes_4.jpg,right,624.6950000004726,true,low,false
KE3djsqD,3icohx7eofotocxdgkfntnxt5xb0e8,37u1utwh9zz22p5fowh4atymgtl8ra,KE3djsqD,2020-0188,2020-11-18,15:13:13,15:32:15,NA,incomplete,8,color,0,right,Blue_Circle_Stripes_2.jpg,Green_Circle_Dots_1.jpg,Blue_Plus_Chess_3.jpg,right,691.4249999999884,true,low,false
KE3djsqD,3icohx7eofotocxdgkfntnxt5xb0e8,37u1utwh9zz22p5fowh4atymgtl8ra,KE3djsqD,2020-0188,2020-11-18,15:13:13,15:32:15,NA,incomplete,9,color,1,left,Red_Triangle_Stripes_2.jpg,Red_Star_Dots_1.jpg,Blue_Triangle_Grid_4.jpg,left,891.8400000002002,true,low,false
KE3djsqD,3icohx7eofotocxdgkfntnxt5xb0e8,37u1utwh9zz22p5fowh4atymgtl8ra,KE3djsqD,2020-0188,2020-11-18,15:13:13,15:32:15,NA,incomplete,10,color,1,left,Purple_Triangle_Chess_4.jpg,Purple_Plus_Grid_3.jpg,Red_Triangle_Dots_2.jpg,left,1068.0300000003772,true,low,false
KE3djsqD,3icohx7eofotocxdgkfntnxt5xb0e8,37u1utwh9zz22p5fowh4atymgtl8ra,KE3djsqD,2020-0188,2020-11-18,15:13:13,15:32:15,NA,incomplete,11,color,1,right,Red_Circle_Chess_1.jpg,Blue_Circle_Grid_4.jpg,Red_Star_Dots_2.jpg,right,798.2950000005076,true,low,false
KE3djsqD,3icohx7eofotocxdgkfntnxt5xb0e8,37u1utwh9zz22p5fowh4atymgtl8ra,KE3djsqD,2020-0188,2020-11-18,15:13:13,15:32:15,NA,incomplete,12,color,0,left,Blue_Star_Chess_3.jpg,Blue_Triangle_Dots_2.jpg,Red_Star_Stripes_4.jpg,left,906.2649999996065,true,low,false
KE3djsqD,3icohx7eofotocxdgkfntnxt5xb0e8,37u1utwh9zz22p5fowh4atymgtl8ra,KE3djsqD,2020-0188,2020-11-18,15:13:13,15:32:15,NA,incomplete,13,color,1,left,Blue_Circle_Dots_3.jpg,Blue_Plus_Grid_2.jpg,Green_Circle_Stripes_1.jpg,right,915.1000000001513,false,low,false
KE3djsqD,3icohx7eofotocxdgkfntnxt5xb0e8,37u1utwh9zz22p5fowh4atymgtl8ra,KE3djsqD,2020-0188,2020-11-18,15:13:13,15:32:15,NA,incomplete,14,color,1,left,Purple_Star_Dots_1.jpg,Purple_Circle_Chess_2.jpg,Green_Star_Grid_4.jpg,left,770.8200000006473,true,low,false
KE3djsqD,3icohx7eofotocxdgkfntnxt5xb0e8,37u1utwh9zz22p5fowh4atymgtl8ra,KE3djsqD,2020-0188,2020-11-18,15:13:13,15:32:15,NA,incomplete,15,color,1,right,Red_Triangle_Dots_4.jpg,Purple_Triangle_Grid_2.jpg,Red_Circle_Chess_3.jpg,right,951.1549999997369,true,low,false
KE3djsqD,3icohx7eofotocxdgkfntnxt5xb0e8,37u1utwh9zz22p5fowh4atymgtl8ra,KE3djsqD,2020-0188,2020-11-18,15:13:13,15:32:15,NA,incomplete,16,color,1,right,Green_Circle_Stripes_1.jpg,Purple_Circle_Dots_3.jpg,Green_Triangle_Chess_4.jpg,right,750.1750000001048,true,low,false
KE3djsqD,3icohx7eofotocxdgkfntnxt5xb0e8,37u1utwh9zz22p5fowh4atymgtl8ra,KE3djsqD,2020-0188,2020-11-18,15:13:13,15:32:15,NA,incomplete,17,color,1,left,Green_Triangle_Stripes_1.jpg,Green_Plus_Dots_3.jpg,Blue_Triangle_Chess_4.jpg,left,691.7500000008731,true,low,false
KE3djsqD,3icohx7eofotocxdgkfntnxt5xb0e8,37u1utwh9zz22p5fowh4atymgtl8ra,KE3djsqD,2020-0188,2020-11-18,15:13:13,15:32:15,NA,incomplete,18,color,1,left,Blue_Triangle_Chess_2.jpg,Blue_Plus_Dots_1.jpg,Red_Triangle_Stripes_3.jpg,right,1043.4949999999371,false,low,false
KE3djsqD,3icohx7eofotocxdgkfntnxt5xb0e8,37u1utwh9zz22p5fowh4atymgtl8ra,KE3djsqD,2020-0188,2020-11-18,15:13:13,15:32:15,NA,incomplete,19,color,1,right,Green_Plus_Grid_2.jpg,Red_Plus_Chess_3.jpg,Green_Circle_Stripes_1.jpg,right,783.6299999998882,true,low,false
KE3djsqD,3icohx7eofotocxdgkfntnxt5xb0e8,37u1utwh9zz22p5fowh4atymgtl8ra,KE3djsqD,2020-0188,2020-11-18,15:13:13,15:32:15,NA,incomplete,20,color,1,left,Blue_Circle_Grid_1.jpg,Blue_Triangle_Stripes_2.jpg,Red_Circle_Dots_3.jpg,left,739.1649999999208,true,low,false
KE3djsqD,3icohx7eofotocxdgkfntnxt5xb0e8,37u1utwh9zz22p5fowh4atymgtl8ra,KE3djsqD,2020-0188,2020-11-18,15:13:13,15:32:15,NA,incomplete,21,color,1,right,Green_Circle_Stripes_1.jpg,Purple_Circle_Grid_4.jpg,Green_Plus_Dots_3.jpg,right,722.0649999999441,true,low,false
KE3djsqD,3icohx7eofotocxdgkfntnxt5xb0e8,37u1utwh9zz22p5fowh4atymgtl8ra,KE3djsqD,2020-0188,2020-11-18,15:13:13,15:32:15,NA,incomplete,22,color,1,left,Blue_Triangle_Chess_4.jpg,Blue_Circle_Stripes_3.jpg,Green_Triangle_Dots_1.jpg,left,896.5749999997206,true,low,false
KE3djsqD,3icohx7eofotocxdgkfntnxt5xb0e8,37u1utwh9zz22p5fowh4atymgtl8ra,KE3djsqD,2020-0188,2020-11-18,15:13:13,15:32:15,NA,incomplete,23,color,1,left,Purple_Triangle_Dots_4.jpg,Purple_Star_Stripes_2.jpg,Blue_Triangle_Chess_1.jpg,left,953.509999999369,true,low,false
KE3djsqD,3icohx7eofotocxdgkfntnxt5xb0e8,37u1utwh9zz22p5fowh4atymgtl8ra,KE3djsqD,2020-0188,2020-11-18,15:13:13,15:32:15,NA,incomplete,24,color,1,left,Purple_Circle_Grid_2.jpg,Purple_Star_Chess_1.jpg,Green_Circle_Dots_4.jpg,left,896.9299999998766,true,low,false
KE3djsqD,3icohx7eofotocxdgkfntnxt5xb0e8,37u1utwh9zz22p5fowh4atymgtl8ra,KE3djsqD,2020-0188,2020-11-18,15:13:13,15:32:15,NA,incomplete,25,color,1,left,Green_Circle_Stripes_2.jpg,Green_Star_Dots_1.jpg,Red_Circle_Grid_3.jpg,left,745.9649999991525,true,low,false
KE3djsqD,3icohx7eofotocxdgkfntnxt5xb0e8,37u1utwh9zz22p5fowh4atymgtl8ra,KE3djsqD,2020-0188,2020-11-18,15:13:13,15:32:15,NA,incomplete,26,color,1,left,Purple_Circle_Dots_1.jpg,Purple_Plus_Grid_4.jpg,Green_Circle_Stripes_3.jpg,right,903.5550000007497,false,low,false
KE3djsqD,3icohx7eofotocxdgkfntnxt5xb0e8,37u1utwh9zz22p5fowh4atymgtl8ra,KE3djsqD,2020-0188,2020-11-18,15:13:13,15:32:15,NA,incomplete,27,color,1,right,Red_Star_Dots_1.jpg,Blue_Star_Chess_3.jpg,Red_Plus_Grid_4.jpg,right,719.5499999997555,true,low,false
KE3djsqD,3icohx7eofotocxdgkfntnxt5xb0e8,37u1utwh9zz22p5fowh4atymgtl8ra,KE3djsqD,2020-0188,2020-11-18,15:13:13,15:32:15,NA,incomplete,28,color,1,left,Green_Triangle_Dots_1.jpg,Green_Plus_Grid_4.jpg,Blue_Triangle_Chess_2.jpg,left,710.5650000002934,true,low,false
KE3djsqD,3icohx7eofotocxdgkfntnxt5xb0e8,37u1utwh9zz22p5fowh4atymgtl8ra,KE3djsqD,2020-0188,2020-11-18,15:13:13,15:32:15,NA,incomplete,29,color,1,right,Purple_Star_Chess_4.jpg,Green_Star_Grid_2.jpg,Purple_Circle_Dots_1.jpg,right,846.7999999993481,true,low,false
KE3djsqD,3icohx7eofotocxdgkfntnxt5xb0e8,37u1utwh9zz22p5fowh4atymgtl8ra,KE3djsqD,2020-0188,2020-11-18,15:13:13,15:32:15,NA,incomplete,30,shape,0,right,Purple_Circle_Dots_4.jpg,Purple_Star_Grid_3.jpg,Blue_Circle_Chess_1.jpg,left,929.1149999999325,false,low,false
KE3djsqD,3icohx7eofotocxdgkfntnxt5xb0e8,37u1utwh9zz22p5fowh4atymgtl8ra,KE3djsqD,2020-0188,2020-11-18,15:13:13,15:32:15,NA,incomplete,31,shape,1,left,Blue_Plus_Grid_2.jpg,Purple_Plus_Dots_4.jpg,Blue_Star_Chess_1.jpg,right,704.890000000014,false,low,false
KE3djsqD,3icohx7eofotocxdgkfntnxt5xb0e8,37u1utwh9zz22p5fowh4atymgtl8ra,KE3djsqD,2020-0188,2020-11-18,15:13:13,15:32:15,NA,incomplete,32,shape,0,left,Blue_Circle_Grid_3.jpg,Green_Circle_Dots_4.jpg,Blue_Plus_Stripes_2.jpg,right,656.0600000002305,false,low,false
KE3djsqD,3icohx7eofotocxdgkfntnxt5xb0e8,37u1utwh9zz22p5fowh4atymgtl8ra,KE3djsqD,2020-0188,2020-11-18,15:13:13,15:32:15,NA,incomplete,33,shape,1,right,Green_Circle_Chess_1.jpg,Green_Triangle_Stripes_2.jpg,Red_Circle_Dots_4.jpg,left,729.8950000003679,false,low,false
KE3djsqD,3icohx7eofotocxdgkfntnxt5xb0e8,37u1utwh9zz22p5fowh4atymgtl8ra,KE3djsqD,2020-0188,2020-11-18,15:13:13,15:32:15,NA,incomplete,34,shape,1,left,Blue_Triangle_Stripes_3.jpg,Purple_Triangle_Chess_1.jpg,Blue_Star_Dots_2.jpg,right,609.6550000002026,false,low,false
KE3djsqD,3icohx7eofotocxdgkfntnxt5xb0e8,37u1utwh9zz22p5fowh4atymgtl8ra,KE3djsqD,2020-0188,2020-11-18,15:13:13,15:32:15,NA,incomplete,35,shape,0,right,Green_Triangle_Dots_1.jpg,Green_Star_Chess_4.jpg,Purple_Triangle_Stripes_2.jpg,left,955.7949999998673,false,low,false
KE3djsqD,3icohx7eofotocxdgkfntnxt5xb0e8,37u1utwh9zz22p5fowh4atymgtl8ra,KE3djsqD,2020-0188,2020-11-18,15:13:13,15:32:15,NA,incomplete,36,shape,1,right,Blue_Circle_Grid_2.jpg,Blue_Triangle_Chess_3.jpg,Red_Circle_Dots_4.jpg,left,858.3599999992293,false,low,false
KE3djsqD,3icohx7eofotocxdgkfntnxt5xb0e8,37u1utwh9zz22p5fowh4atymgtl8ra,KE3djsqD,2020-0188,2020-11-18,15:13:13,15:32:15,NA,incomplete,37,shape,0,left,Red_Circle_Grid_1.jpg,Purple_Circle_Stripes_2.jpg,Red_Star_Dots_3.jpg,left,972.1099999997532,true,low,false
KE3djsqD,3icohx7eofotocxdgkfntnxt5xb0e8,37u1utwh9zz22p5fowh4atymgtl8ra,KE3djsqD,2020-0188,2020-11-18,15:13:13,15:32:15,NA,incomplete,38,shape,1,right,Green_Star_Grid_1.jpg,Green_Triangle_Dots_2.jpg,Red_Star_Stripes_3.jpg,left,818.1500000000233,false,low,false
KE3djsqD,3icohx7eofotocxdgkfntnxt5xb0e8,37u1utwh9zz22p5fowh4atymgtl8ra,KE3djsqD,2020-0188,2020-11-18,15:13:13,15:32:15,NA,incomplete,39,shape,1,right,Blue_Circle_Stripes_2.jpg,Blue_Triangle_Dots_4.jpg,Green_Circle_Chess_3.jpg,left,926.3250000003609,false,low,false
KE3djsqD,3icohx7eofotocxdgkfntnxt5xb0e8,37u1utwh9zz22p5fowh4atymgtl8ra,KE3djsqD,2020-0188,2020-11-18,15:13:13,15:32:15,NA,incomplete,40,shape,0,left,Blue_Plus_Dots_1.jpg,Green_Plus_Grid_4.jpg,Blue_Circle_Stripes_3.jpg,left,813.3800000005285,true,low,false
KE3djsqD,3icohx7eofotocxdgkfntnxt5xb0e8,37u1utwh9zz22p5fowh4atymgtl8ra,KE3djsqD,2020-0188,2020-11-18,15:13:13,15:32:15,NA,incomplete,41,shape,1,right,Purple_Triangle_Dots_4.jpg,Purple_Plus_Stripes_1.jpg,Blue_Triangle_Grid_3.jpg,right,833.1399999997229,true,low,false
KE3djsqD,3icohx7eofotocxdgkfntnxt5xb0e8,37u1utwh9zz22p5fowh4atymgtl8ra,KE3djsqD,2020-0188,2020-11-18,15:13:13,15:32:15,NA,incomplete,42,shape,1,left,Purple_Star_Dots_3.jpg,Green_Star_Stripes_2.jpg,Purple_Plus_Chess_4.jpg,left,1067.9550000004238,true,low,false
KE3djsqD,3icohx7eofotocxdgkfntnxt5xb0e8,37u1utwh9zz22p5fowh4atymgtl8ra,KE3djsqD,2020-0188,2020-11-18,15:13:13,15:32:15,NA,incomplete,43,shape,1,right,Blue_Circle_Chess_1.jpg,Blue_Star_Dots_3.jpg,Green_Circle_Grid_4.jpg,right,965.5950000006706,true,low,false
KE3djsqD,3icohx7eofotocxdgkfntnxt5xb0e8,37u1utwh9zz22p5fowh4atymgtl8ra,KE3djsqD,2020-0188,2020-11-18,15:13:13,15:32:15,NA,incomplete,44,shape,1,right,Green_Circle_Dots_3.jpg,Green_Plus_Grid_4.jpg,Red_Circle_Stripes_1.jpg,right,932.3850000001257,true,low,false
KE3djsqD,3icohx7eofotocxdgkfntnxt5xb0e8,37u1utwh9zz22p5fowh4atymgtl8ra,KE3djsqD,2020-0188,2020-11-18,15:13:13,15:32:15,NA,incomplete,45,shape,1,left,Purple_Triangle_Dots_3.jpg,Green_Triangle_Stripes_2.jpg,Purple_Star_Chess_4.jpg,left,795.5099999998929,true,low,false
KE3djsqD,3icohx7eofotocxdgkfntnxt5xb0e8,37u1utwh9zz22p5fowh4atymgtl8ra,KE3djsqD,2020-0188,2020-11-18,15:13:13,15:32:15,NA,incomplete,46,shape,1,right,Purple_Plus_Grid_4.jpg,Purple_Star_Stripes_2.jpg,Blue_Plus_Chess_3.jpg,right,927.2449999998789,true,low,false
KE3djsqD,3icohx7eofotocxdgkfntnxt5xb0e8,37u1utwh9zz22p5fowh4atymgtl8ra,KE3djsqD,2020-0188,2020-11-18,15:13:13,15:32:15,NA,incomplete,47,shape,1,left,Red_Star_Chess_1.jpg,Purple_Star_Stripes_4.jpg,Red_Triangle_Grid_3.jpg,left,766.8800000001211,true,low,false
KE3djsqD,3icohx7eofotocxdgkfntnxt5xb0e8,37u1utwh9zz22p5fowh4atymgtl8ra,KE3djsqD,2020-0188,2020-11-18,15:13:13,15:32:15,NA,incomplete,48,shape,0,left,Red_Circle_Grid_1.jpg,Blue_Circle_Dots_4.jpg,Red_Star_Chess_2.jpg,left,764.1650000005029,true,low,false
KE3djsqD,3icohx7eofotocxdgkfntnxt5xb0e8,37u1utwh9zz22p5fowh4atymgtl8ra,KE3djsqD,2020-0188,2020-11-18,15:13:13,15:32:15,NA,incomplete,49,shape,1,left,Purple_Star_Stripes_3.jpg,Green_Star_Dots_2.jpg,Purple_Plus_Chess_1.jpg,left,866.0250000002561,true,low,false
KE3djsqD,3icohx7eofotocxdgkfntnxt5xb0e8,37u1utwh9zz22p5fowh4atymgtl8ra,KE3djsqD,2020-0188,2020-11-18,15:13:13,15:32:15,NA,incomplete,50,shape,1,right,Green_Triangle_Grid_4.jpg,Green_Circle_Chess_3.jpg,Blue_Triangle_Stripes_1.jpg,right,882.4249999998137,true,low,false
KE3djsqD,3icohx7eofotocxdgkfntnxt5xb0e8,37u1utwh9zz22p5fowh4atymgtl8ra,KE3djsqD,2020-0188,2020-11-18,15:13:13,15:32:15,NA,incomplete,51,shape,0,right,Blue_Plus_Dots_3.jpg,Blue_Triangle_Grid_2.jpg,Red_Plus_Stripes_4.jpg,right,963.9249999999302,true,low,false
KE3djsqD,3icohx7eofotocxdgkfntnxt5xb0e8,37u1utwh9zz22p5fowh4atymgtl8ra,KE3djsqD,2020-0188,2020-11-18,15:13:13,15:32:15,NA,incomplete,52,shape,1,left,Purple_Triangle_Chess_4.jpg,Green_Triangle_Grid_2.jpg,Purple_Circle_Stripes_1.jpg,left,754.0900000003166,true,low,false
KE3djsqD,3icohx7eofotocxdgkfntnxt5xb0e8,37u1utwh9zz22p5fowh4atymgtl8ra,KE3djsqD,2020-0188,2020-11-18,15:13:13,15:32:15,NA,incomplete,53,shape,1,right,Red_Plus_Chess_3.jpg,Red_Triangle_Dots_4.jpg,Green_Plus_Grid_2.jpg,right,839.765000000596,true,low,false
KE3djsqD,3icohx7eofotocxdgkfntnxt5xb0e8,37u1utwh9zz22p5fowh4atymgtl8ra,KE3djsqD,2020-0188,2020-11-18,15:13:13,15:32:15,NA,incomplete,54,shape,1,left,Red_Circle_Stripes_4.jpg,Purple_Circle_Chess_3.jpg,Red_Triangle_Grid_2.jpg,left,947.2349999996368,true,low,false
KE3djsqD,3icohx7eofotocxdgkfntnxt5xb0e8,37u1utwh9zz22p5fowh4atymgtl8ra,KE3djsqD,2020-0188,2020-11-18,15:13:13,15:32:15,NA,incomplete,55,shape,1,right,Blue_Triangle_Chess_1.jpg,Blue_Star_Dots_3.jpg,Red_Triangle_Stripes_2.jpg,right,753.7199999997392,true,low,false
KE3djsqD,3icohx7eofotocxdgkfntnxt5xb0e8,37u1utwh9zz22p5fowh4atymgtl8ra,KE3djsqD,2020-0188,2020-11-18,15:13:13,15:32:15,NA,incomplete,56,shape,1,right,Purple_Plus_Dots_4.jpg,Purple_Triangle_Chess_3.jpg,Blue_Plus_Grid_1.jpg,right,879.5049999998882,true,low,false
KE3djsqD,3icohx7eofotocxdgkfntnxt5xb0e8,37u1utwh9zz22p5fowh4atymgtl8ra,KE3djsqD,2020-0188,2020-11-18,15:13:13,15:32:15,NA,incomplete,57,shape,1,right,Red_Triangle_Stripes_3.jpg,Red_Circle_Chess_2.jpg,Blue_Triangle_Grid_1.jpg,right,880.6949999998324,true,low,false
KE3djsqD,3icohx7eofotocxdgkfntnxt5xb0e8,37u1utwh9zz22p5fowh4atymgtl8ra,KE3djsqD,2020-0188,2020-11-18,15:13:13,15:32:15,NA,incomplete,58,shape,1,right,Blue_Circle_Stripes_3.jpg,Blue_Star_Grid_4.jpg,Green_Circle_Dots_2.jpg,right,745.6350000002421,true,low,false
KE3djsqD,3icohx7eofotocxdgkfntnxt5xb0e8,37u1utwh9zz22p5fowh4atymgtl8ra,KE3djsqD,2020-0188,2020-11-18,15:13:13,15:32:15,NA,incomplete,59,shape,1,right,Red_Star_Chess_3.jpg,Red_Circle_Dots_2.jpg,Blue_Star_Stripes_1.jpg,right,848.4850000003353,true,low,false
KE3djsqD,3icohx7eofotocxdgkfntnxt5xb0e8,37u1utwh9zz22p5fowh4atymgtl8ra,KE3djsqD,2020-0188,2020-11-18,15:13:13,15:32:15,NA,incomplete,60,color,1,left,Red_Plus_Chess_2.jpg,Red_Triangle_Dots_3.jpg,Green_Plus_Stripes_1.jpg,right,850.0450000001583,false,low,false
KE3djsqD,3icohx7eofotocxdgkfntnxt5xb0e8,37u1utwh9zz22p5fowh4atymgtl8ra,KE3djsqD,2020-0188,2020-11-18,15:13:13,15:32:15,NA,incomplete,61,color,1,right,Blue_Triangle_Grid_1.jpg,Red_Triangle_Chess_3.jpg,Blue_Plus_Stripes_4.jpg,left,788.2300000000978,false,low,false
KE3djsqD,3icohx7eofotocxdgkfntnxt5xb0e8,37u1utwh9zz22p5fowh4atymgtl8ra,KE3djsqD,2020-0188,2020-11-18,15:13:13,15:32:15,NA,incomplete,62,color,1,right,Green_Triangle_Grid_2.jpg,Purple_Triangle_Dots_3.jpg,Green_Circle_Stripes_1.jpg,left,777.1450000000186,false,low,false
KE3djsqD,3icohx7eofotocxdgkfntnxt5xb0e8,37u1utwh9zz22p5fowh4atymgtl8ra,KE3djsqD,2020-0188,2020-11-18,15:13:13,15:32:15,NA,incomplete,63,color,1,right,Green_Star_Chess_1.jpg,Blue_Star_Grid_4.jpg,Green_Triangle_Stripes_2.jpg,right,766.2499999996508,true,low,false
KE3djsqD,3icohx7eofotocxdgkfntnxt5xb0e8,37u1utwh9zz22p5fowh4atymgtl8ra,KE3djsqD,2020-0188,2020-11-18,15:13:13,15:32:15,NA,incomplete,64,color,1,left,Purple_Circle_Dots_1.jpg,Purple_Plus_Stripes_2.jpg,Green_Circle_Chess_4.jpg,left,908.6100000004517,true,low,false
KE3djsqD,3icohx7eofotocxdgkfntnxt5xb0e8,37u1utwh9zz22p5fowh4atymgtl8ra,KE3djsqD,2020-0188,2020-11-18,15:13:13,15:32:15,NA,incomplete,65,color,1,left,Red_Circle_Dots_4.jpg,Red_Plus_Chess_2.jpg,Purple_Circle_Stripes_3.jpg,left,891.2449999997625,true,low,false
KE3djsqD,3icohx7eofotocxdgkfntnxt5xb0e8,37u1utwh9zz22p5fowh4atymgtl8ra,KE3djsqD,2020-0188,2020-11-18,15:13:13,15:32:15,NA,incomplete,66,color,1,left,Red_Circle_Grid_3.jpg,Red_Plus_Dots_2.jpg,Blue_Circle_Stripes_4.jpg,left,907.8899999995483,true,low,false
KE3djsqD,3icohx7eofotocxdgkfntnxt5xb0e8,37u1utwh9zz22p5fowh4atymgtl8ra,KE3djsqD,2020-0188,2020-11-18,15:13:13,15:32:15,NA,incomplete,67,color,1,right,Blue_Star_Grid_2.jpg,Purple_Star_Chess_3.jpg,Blue_Triangle_Stripes_4.jpg,left,973.140000000014,false,low,false
KE3djsqD,3icohx7eofotocxdgkfntnxt5xb0e8,37u1utwh9zz22p5fowh4atymgtl8ra,KE3djsqD,2020-0188,2020-11-18,15:13:13,15:32:15,NA,incomplete,68,color,1,right,Green_Triangle_Chess_4.jpg,Purple_Triangle_Stripes_3.jpg,Green_Circle_Dots_1.jpg,right,762.7400000001071,true,low,false
KE3djsqD,3icohx7eofotocxdgkfntnxt5xb0e8,37u1utwh9zz22p5fowh4atymgtl8ra,KE3djsqD,2020-0188,2020-11-18,15:13:13,15:32:15,NA,incomplete,69,color,0,left,Blue_Star_Chess_3.jpg,Blue_Triangle_Dots_2.jpg,Purple_Star_Grid_4.jpg,left,953.2000000008848,true,low,false
KE3djsqD,3icohx7eofotocxdgkfntnxt5xb0e8,37u1utwh9zz22p5fowh4atymgtl8ra,KE3djsqD,2020-0188,2020-11-18,15:13:13,15:32:15,NA,incomplete,70,color,1,left,Green_Circle_Stripes_3.jpg,Green_Triangle_Grid_4.jpg,Blue_Circle_Dots_1.jpg,left,814.3550000003306,true,low,false
KE3djsqD,3icohx7eofotocxdgkfntnxt5xb0e8,37u1utwh9zz22p5fowh4atymgtl8ra,KE3djsqD,2020-0188,2020-11-18,15:13:13,15:32:15,NA,incomplete,71,color,1,right,Red_Plus_Chess_2.jpg,Green_Plus_Dots_4.jpg,Red_Triangle_Grid_1.jpg,right,770.1450000003679,true,low,false
KE3djsqD,3icohx7eofotocxdgkfntnxt5xb0e8,37u1utwh9zz22p5fowh4atymgtl8ra,KE3djsqD,2020-0188,2020-11-18,15:13:13,15:32:15,NA,incomplete,72,color,0,right,Blue_Star_Chess_1.jpg,Red_Star_Grid_4.jpg,Blue_Circle_Dots_2.jpg,right,854.7300000000978,true,low,false
KE3djsqD,3icohx7eofotocxdgkfntnxt5xb0e8,37u1utwh9zz22p5fowh4atymgtl8ra,KE3djsqD,2020-0188,2020-11-18,15:13:13,15:32:15,NA,incomplete,73,color,1,right,Blue_Circle_Chess_4.jpg,Green_Circle_Grid_1.jpg,Blue_Star_Stripes_3.jpg,right,761.5999999997439,true,low,false
KE3djsqD,3icohx7eofotocxdgkfntnxt5xb0e8,37u1utwh9zz22p5fowh4atymgtl8ra,KE3djsqD,2020-0188,2020-11-18,15:13:13,15:32:15,NA,incomplete,74,color,1,right,Blue_Triangle_Stripes_1.jpg,Red_Triangle_Dots_3.jpg,Blue_Star_Grid_4.jpg,right,607.7750000003725,true,low,false
KE3djsqD,3icohx7eofotocxdgkfntnxt5xb0e8,37u1utwh9zz22p5fowh4atymgtl8ra,KE3djsqD,2020-0188,2020-11-18,15:13:13,15:32:15,NA,incomplete,75,color,1,left,Blue_Circle_Grid_4.jpg,Blue_Star_Dots_3.jpg,Purple_Circle_Chess_1.jpg,left,713.899999999674,true,low,false
KE3djsqD,3icohx7eofotocxdgkfntnxt5xb0e8,37u1utwh9zz22p5fowh4atymgtl8ra,KE3djsqD,2020-0188,2020-11-18,15:13:13,15:32:15,NA,incomplete,76,color,1,left,Purple_Circle_Stripes_2.jpg,Purple_Triangle_Chess_3.jpg,Red_Circle_Dots_1.jpg,left,865.5949999992736,true,low,false
KE3djsqD,3icohx7eofotocxdgkfntnxt5xb0e8,37u1utwh9zz22p5fowh4atymgtl8ra,KE3djsqD,2020-0188,2020-11-18,15:13:13,15:32:15,NA,incomplete,77,color,1,left,Purple_Circle_Chess_4.jpg,Purple_Plus_Dots_1.jpg,Red_Circle_Stripes_3.jpg,left,722.5349999999162,true,low,false
KE3djsqD,3icohx7eofotocxdgkfntnxt5xb0e8,37u1utwh9zz22p5fowh4atymgtl8ra,KE3djsqD,2020-0188,2020-11-18,15:13:13,15:32:15,NA,incomplete,78,color,0,left,Purple_Plus_Chess_4.jpg,Purple_Circle_Stripes_2.jpg,Green_Plus_Dots_3.jpg,left,713.3949999997858,true,low,false
KE3djsqD,3icohx7eofotocxdgkfntnxt5xb0e8,37u1utwh9zz22p5fowh4atymgtl8ra,KE3djsqD,2020-0188,2020-11-18,15:13:13,15:32:15,NA,incomplete,79,color,1,left,Purple_Triangle_Grid_3.jpg,Purple_Star_Stripes_4.jpg,Blue_Triangle_Chess_2.jpg,left,793.854999999865,true,low,false
KE3djsqD,3icohx7eofotocxdgkfntnxt5xb0e8,37u1utwh9zz22p5fowh4atymgtl8ra,KE3djsqD,2020-0188,2020-11-18,15:13:13,15:32:15,NA,incomplete,80,color,1,right,Green_Star_Grid_4.jpg,Purple_Star_Chess_3.jpg,Green_Triangle_Dots_1.jpg,right,765.4050000001444,true,low,false
KE3djsqD,3icohx7eofotocxdgkfntnxt5xb0e8,37u1utwh9zz22p5fowh4atymgtl8ra,KE3djsqD,2020-0188,2020-11-18,15:13:13,15:32:15,NA,incomplete,81,color,1,left,Red_Triangle_Stripes_4.jpg,Red_Plus_Chess_2.jpg,Purple_Triangle_Dots_3.jpg,left,666.1850000000559,true,low,false
KE3djsqD,3icohx7eofotocxdgkfntnxt5xb0e8,37u1utwh9zz22p5fowh4atymgtl8ra,KE3djsqD,2020-0188,2020-11-18,15:13:13,15:32:15,NA,incomplete,82,color,0,right,Blue_Star_Grid_3.jpg,Red_Star_Dots_2.jpg,Blue_Plus_Chess_4.jpg,right,923.8800000003539,true,low,false
KE3djsqD,3icohx7eofotocxdgkfntnxt5xb0e8,37u1utwh9zz22p5fowh4atymgtl8ra,KE3djsqD,2020-0188,2020-11-18,15:13:13,15:32:15,NA,incomplete,83,color,0,right,Blue_Circle_Grid_2.jpg,Green_Circle_Stripes_3.jpg,Blue_Star_Chess_1.jpg,right,651.3100000001723,true,low,false
KE3djsqD,3icohx7eofotocxdgkfntnxt5xb0e8,37u1utwh9zz22p5fowh4atymgtl8ra,KE3djsqD,2020-0188,2020-11-18,15:13:13,15:32:15,NA,incomplete,84,color,1,left,Blue_Star_Stripes_4.jpg,Blue_Plus_Dots_1.jpg,Purple_Star_Chess_3.jpg,right,853.4850000005681,false,low,false
KE3djsqD,3icohx7eofotocxdgkfntnxt5xb0e8,37u1utwh9zz22p5fowh4atymgtl8ra,KE3djsqD,2020-0188,2020-11-18,15:13:13,15:32:15,NA,incomplete,85,color,0,left,Green_Triangle_Chess_1.jpg,Green_Circle_Grid_3.jpg,Red_Triangle_Dots_4.jpg,left,831.6100000002189,true,low,false
KE3djsqD,3icohx7eofotocxdgkfntnxt5xb0e8,37u1utwh9zz22p5fowh4atymgtl8ra,KE3djsqD,2020-0188,2020-11-18,15:13:13,15:32:15,NA,incomplete,86,color,1,right,Green_Triangle_Grid_2.jpg,Purple_Triangle_Chess_1.jpg,Green_Circle_Dots_4.jpg,right,721.3500000006752,true,low,false
KE3djsqD,3icohx7eofotocxdgkfntnxt5xb0e8,37u1utwh9zz22p5fowh4atymgtl8ra,KE3djsqD,2020-0188,2020-11-18,15:13:13,15:32:15,NA,incomplete,87,color,1,left,Purple_Circle_Grid_2.jpg,Purple_Plus_Stripes_4.jpg,Red_Circle_Chess_3.jpg,left,808.7300000005635,true,low,false
KE3djsqD,3icohx7eofotocxdgkfntnxt5xb0e8,37u1utwh9zz22p5fowh4atymgtl8ra,KE3djsqD,2020-0188,2020-11-18,15:13:13,15:32:15,NA,incomplete,88,color,1,right,Green_Plus_Dots_3.jpg,Blue_Plus_Stripes_4.jpg,Green_Triangle_Chess_2.jpg,right,676.1849999993574,true,low,false
KE3djsqD,3icohx7eofotocxdgkfntnxt5xb0e8,37u1utwh9zz22p5fowh4atymgtl8ra,KE3djsqD,2020-0188,2020-11-18,15:13:13,15:32:15,NA,incomplete,89,color,1,right,Red_Star_Dots_2.jpg,Green_Star_Chess_1.jpg,Red_Triangle_Stripes_4.jpg,right,749.7750000002561,true,low,false
KE3djsqD,3icohx7eofotocxdgkfntnxt5xb0e8,37u1utwh9zz22p5fowh4atymgtl8ra,KE3djsqD,2020-0188,2020-11-18,15:13:13,15:32:15,NA,incomplete,90,shape,1,right,Red_Triangle_Chess_2.jpg,Red_Plus_Stripes_3.jpg,Purple_Triangle_Dots_1.jpg,left,674.6199999997625,false,low,false
KE3djsqD,3icohx7eofotocxdgkfntnxt5xb0e8,37u1utwh9zz22p5fowh4atymgtl8ra,KE3djsqD,2020-0188,2020-11-18,15:13:13,15:32:15,NA,incomplete,91,shape,0,left,Red_Circle_Stripes_1.jpg,Blue_Circle_Dots_2.jpg,Red_Plus_Grid_3.jpg,right,707.8800000008196,false,low,false
KE3djsqD,3icohx7eofotocxdgkfntnxt5xb0e8,37u1utwh9zz22p5fowh4atymgtl8ra,KE3djsqD,2020-0188,2020-11-18,15:13:13,15:32:15,NA,incomplete,92,shape,0,right,Green_Plus_Grid_3.jpg,Green_Triangle_Chess_4.jpg,Purple_Plus_Dots_2.jpg,left,682.8850000001257,false,low,false
KE3djsqD,3icohx7eofotocxdgkfntnxt5xb0e8,37u1utwh9zz22p5fowh4atymgtl8ra,KE3djsqD,2020-0188,2020-11-18,15:13:13,15:32:15,NA,incomplete,93,shape,1,left,Green_Triangle_Chess_4.jpg,Purple_Triangle_Stripes_2.jpg,Green_Plus_Dots_3.jpg,right,555.2699999997858,false,low,false
KE3djsqD,3icohx7eofotocxdgkfntnxt5xb0e8,37u1utwh9zz22p5fowh4atymgtl8ra,KE3djsqD,2020-0188,2020-11-18,15:13:13,15:32:15,NA,incomplete,94,shape,1,right,Purple_Circle_Chess_1.jpg,Purple_Star_Dots_2.jpg,Red_Circle_Stripes_3.jpg,left,705.7749999994412,false,low,false
KE3djsqD,3icohx7eofotocxdgkfntnxt5xb0e8,37u1utwh9zz22p5fowh4atymgtl8ra,KE3djsqD,2020-0188,2020-11-18,15:13:13,15:32:15,NA,incomplete,95,shape,1,left,Blue_Triangle_Chess_3.jpg,Purple_Triangle_Grid_4.jpg,Blue_Star_Stripes_2.jpg,left,808.2649999996647,true,low,false
KE3djsqD,3icohx7eofotocxdgkfntnxt5xb0e8,37u1utwh9zz22p5fowh4atymgtl8ra,KE3djsqD,2020-0188,2020-11-18,15:13:13,15:32:15,NA,incomplete,96,shape,1,left,Green_Circle_Grid_3.jpg,Blue_Circle_Chess_2.jpg,Green_Star_Dots_1.jpg,left,667.6850000002887,true,low,false
KE3djsqD,3icohx7eofotocxdgkfntnxt5xb0e8,37u1utwh9zz22p5fowh4atymgtl8ra,KE3djsqD,2020-0188,2020-11-18,15:13:13,15:32:15,NA,incomplete,97,shape,1,left,Purple_Triangle_Stripes_2.jpg,Green_Triangle_Chess_4.jpg,Purple_Star_Dots_3.jpg,left,725.1500000002561,true,low,false
KE3djsqD,3icohx7eofotocxdgkfntnxt5xb0e8,37u1utwh9zz22p5fowh4atymgtl8ra,KE3djsqD,2020-0188,2020-11-18,15:13:13,15:32:15,NA,incomplete,98,shape,1,right,Purple_Triangle_Dots_3.jpg,Purple_Circle_Grid_4.jpg,Red_Triangle_Chess_1.jpg,right,787.6200000001118,true,low,false
KE3djsqD,3icohx7eofotocxdgkfntnxt5xb0e8,37u1utwh9zz22p5fowh4atymgtl8ra,KE3djsqD,2020-0188,2020-11-18,15:13:13,15:32:15,NA,incomplete,99,shape,1,right,Blue_Star_Stripes_3.jpg,Blue_Plus_Dots_2.jpg,Purple_Star_Grid_4.jpg,right,968.75,true,low,false
KE3djsqD,3icohx7eofotocxdgkfntnxt5xb0e8,37u1utwh9zz22p5fowh4atymgtl8ra,KE3djsqD,2020-0188,2020-11-18,15:13:13,15:32:15,NA,incomplete,100,shape,1,left,Blue_Plus_Stripes_2.jpg,Red_Plus_Chess_4.jpg,Blue_Star_Grid_3.jpg,left,918.6550000003772,true,low,false
KE3djsqD,3icohx7eofotocxdgkfntnxt5xb0e8,37u1utwh9zz22p5fowh4atymgtl8ra,KE3djsqD,2020-0188,2020-11-18,15:13:13,15:32:15,NA,incomplete,101,shape,1,right,Green_Circle_Chess_4.jpg,Green_Plus_Stripes_1.jpg,Purple_Circle_Dots_2.jpg,right,789.5699999999488,true,low,false
KE3djsqD,3icohx7eofotocxdgkfntnxt5xb0e8,37u1utwh9zz22p5fowh4atymgtl8ra,KE3djsqD,2020-0188,2020-11-18,15:13:13,15:32:15,NA,incomplete,102,shape,1,left,Blue_Circle_Dots_3.jpg,Green_Circle_Grid_4.jpg,Blue_Triangle_Chess_1.jpg,left,746.2900000000373,true,low,false
KE3djsqD,3icohx7eofotocxdgkfntnxt5xb0e8,37u1utwh9zz22p5fowh4atymgtl8ra,KE3djsqD,2020-0188,2020-11-18,15:13:13,15:32:15,NA,incomplete,103,shape,0,left,Blue_Triangle_Grid_2.jpg,Red_Triangle_Chess_4.jpg,Blue_Plus_Stripes_3.jpg,left,672.6100000005681,true,low,false
KE3djsqD,3icohx7eofotocxdgkfntnxt5xb0e8,37u1utwh9zz22p5fowh4atymgtl8ra,KE3djsqD,2020-0188,2020-11-18,15:13:13,15:32:15,NA,incomplete,104,shape,0,left,Blue_Star_Stripes_3.jpg,Green_Star_Dots_4.jpg,Blue_Triangle_Chess_2.jpg,left,754.4599999991478,true,low,false
KE3djsqD,3icohx7eofotocxdgkfntnxt5xb0e8,37u1utwh9zz22p5fowh4atymgtl8ra,KE3djsqD,2020-0188,2020-11-18,15:13:13,15:32:15,NA,incomplete,105,shape,1,right,Blue_Plus_Grid_2.jpg,Blue_Triangle_Dots_3.jpg,Red_Plus_Chess_4.jpg,left,807.4999999998836,false,low,false
KE3djsqD,3icohx7eofotocxdgkfntnxt5xb0e8,37u1utwh9zz22p5fowh4atymgtl8ra,KE3djsqD,2020-0188,2020-11-18,15:13:13,15:32:15,NA,incomplete,106,shape,1,left,Red_Plus_Chess_2.jpg,Green_Plus_Dots_4.jpg,Red_Star_Stripes_1.jpg,left,755.6399999994319,true,low,false
KE3djsqD,3icohx7eofotocxdgkfntnxt5xb0e8,37u1utwh9zz22p5fowh4atymgtl8ra,KE3djsqD,2020-0188,2020-11-18,15:13:13,15:32:15,NA,incomplete,107,shape,0,right,Red_Star_Chess_4.jpg,Red_Triangle_Stripes_2.jpg,Purple_Star_Dots_1.jpg,right,800.6650000006193,true,low,false
KE3djsqD,3icohx7eofotocxdgkfntnxt5xb0e8,37u1utwh9zz22p5fowh4atymgtl8ra,KE3djsqD,2020-0188,2020-11-18,15:13:13,15:32:15,NA,incomplete,108,shape,1,right,Blue_Triangle_Stripes_3.jpg,Blue_Star_Chess_4.jpg,Red_Triangle_Dots_1.jpg,left,708.9150000001537,false,low,false
KE3djsqD,3icohx7eofotocxdgkfntnxt5xb0e8,37u1utwh9zz22p5fowh4atymgtl8ra,KE3djsqD,2020-0188,2020-11-18,15:13:13,15:32:15,NA,incomplete,109,shape,1,right,Purple_Circle_Dots_1.jpg,Purple_Plus_Chess_3.jpg,Red_Circle_Grid_2.jpg,right,836.6500000001397,true,low,false
KE3djsqD,3icohx7eofotocxdgkfntnxt5xb0e8,37u1utwh9zz22p5fowh4atymgtl8ra,KE3djsqD,2020-0188,2020-11-18,15:13:13,15:32:15,NA,incomplete,110,shape,1,right,Purple_Circle_Stripes_3.jpg,Purple_Star_Dots_1.jpg,Blue_Circle_Chess_2.jpg,right,758.9200000001583,true,low,false
KE3djsqD,3icohx7eofotocxdgkfntnxt5xb0e8,37u1utwh9zz22p5fowh4atymgtl8ra,KE3djsqD,2020-0188,2020-11-18,15:13:13,15:32:15,NA,incomplete,111,shape,1,right,Red_Star_Stripes_4.jpg,Red_Triangle_Grid_1.jpg,Blue_Star_Dots_2.jpg,right,812.7899999999208,true,low,false
KE3djsqD,3icohx7eofotocxdgkfntnxt5xb0e8,37u1utwh9zz22p5fowh4atymgtl8ra,KE3djsqD,2020-0188,2020-11-18,15:13:13,15:32:15,NA,incomplete,112,shape,0,left,Green_Triangle_Grid_1.jpg,Red_Triangle_Stripes_3.jpg,Green_Circle_Chess_2.jpg,left,785.0499999994645,true,low,false
KE3djsqD,3icohx7eofotocxdgkfntnxt5xb0e8,37u1utwh9zz22p5fowh4atymgtl8ra,KE3djsqD,2020-0188,2020-11-18,15:13:13,15:32:15,NA,incomplete,113,shape,1,right,Red_Star_Grid_3.jpg,Red_Circle_Dots_4.jpg,Green_Star_Chess_1.jpg,left,821.3500000002095,false,low,false
KE3djsqD,3icohx7eofotocxdgkfntnxt5xb0e8,37u1utwh9zz22p5fowh4atymgtl8ra,KE3djsqD,2020-0188,2020-11-18,15:13:13,15:32:15,NA,incomplete,114,shape,1,left,Red_Circle_Chess_4.jpg,Green_Circle_Stripes_1.jpg,Red_Triangle_Grid_2.jpg,right,841.0800000000745,false,low,false
KE3djsqD,3icohx7eofotocxdgkfntnxt5xb0e8,37u1utwh9zz22p5fowh4atymgtl8ra,KE3djsqD,2020-0188,2020-11-18,15:13:13,15:32:15,NA,incomplete,115,shape,0,right,Green_Plus_Stripes_2.jpg,Green_Star_Grid_3.jpg,Red_Plus_Dots_1.jpg,right,835.5750000000698,true,low,false
KE3djsqD,3icohx7eofotocxdgkfntnxt5xb0e8,37u1utwh9zz22p5fowh4atymgtl8ra,KE3djsqD,2020-0188,2020-11-18,15:13:13,15:32:15,NA,incomplete,116,shape,1,right,Green_Plus_Stripes_1.jpg,Green_Triangle_Grid_2.jpg,Blue_Plus_Chess_3.jpg,left,1157.8649999991758,false,low,false
KE3djsqD,3icohx7eofotocxdgkfntnxt5xb0e8,37u1utwh9zz22p5fowh4atymgtl8ra,KE3djsqD,2020-0188,2020-11-18,15:13:13,15:32:15,NA,incomplete,117,shape,0,left,Blue_Triangle_Stripes_4.jpg,Red_Triangle_Chess_2.jpg,Blue_Star_Grid_1.jpg,left,893.7900000000373,true,low,false
KE3djsqD,3icohx7eofotocxdgkfntnxt5xb0e8,37u1utwh9zz22p5fowh4atymgtl8ra,KE3djsqD,2020-0188,2020-11-18,15:13:13,15:32:15,NA,incomplete,118,shape,1,right,Red_Plus_Chess_3.jpg,Red_Star_Grid_2.jpg,Blue_Plus_Dots_4.jpg,left,757.870000000461,false,low,false
KE3djsqD,3icohx7eofotocxdgkfntnxt5xb0e8,37u1utwh9zz22p5fowh4atymgtl8ra,KE3djsqD,2020-0188,2020-11-18,15:13:13,15:32:15,NA,incomplete,119,shape,1,left,Purple_Circle_Grid_2.jpg,Blue_Circle_Stripes_3.jpg,Purple_Star_Chess_1.jpg,right,867.3799999996554,false,low,false
KE3djsqD,3icohx7eofotocxdgkfntnxt5xb0e8,37u1utwh9zz22p5fowh4atymgtl8ra,KE3djsqD,2020-0188,2020-11-18,15:13:13,15:32:15,NA,incomplete,120,filling,1,left,Blue_Circle_Stripes_4.jpg,Green_Star_Stripes_2.jpg,Red_Plus_Grid_4.jpg,right,874.8899999990826,false,low,false
KE3djsqD,3icohx7eofotocxdgkfntnxt5xb0e8,37u1utwh9zz22p5fowh4atymgtl8ra,KE3djsqD,2020-0188,2020-11-18,15:13:13,15:32:15,NA,incomplete,121,filling,0,left,Green_Plus_Dots_3.jpg,Purple_Star_Dots_2.jpg,Red_Triangle_Chess_3.jpg,right,1488.6049999995157,false,low,false
KE3djsqD,3icohx7eofotocxdgkfntnxt5xb0e8,37u1utwh9zz22p5fowh4atymgtl8ra,KE3djsqD,2020-0188,2020-11-18,15:13:13,15:32:15,NA,incomplete,122,filling,1,right,Red_Plus_Stripes_3.jpg,Purple_Star_Grid_3.jpg,Green_Triangle_Stripes_2.jpg,right,1404.0550000000512,true,low,false
KE3djsqD,3icohx7eofotocxdgkfntnxt5xb0e8,37u1utwh9zz22p5fowh4atymgtl8ra,KE3djsqD,2020-0188,2020-11-18,15:13:13,15:32:15,NA,incomplete,123,filling,0,right,Green_Star_Grid_1.jpg,Blue_Plus_Chess_1.jpg,Red_Circle_Grid_2.jpg,right,1257.079999999376,true,low,false
KE3djsqD,3icohx7eofotocxdgkfntnxt5xb0e8,37u1utwh9zz22p5fowh4atymgtl8ra,KE3djsqD,2020-0188,2020-11-18,15:13:13,15:32:15,NA,incomplete,124,filling,1,left,Blue_Circle_Stripes_2.jpg,Green_Triangle_Stripes_4.jpg,Purple_Star_Dots_2.jpg,left,1068.8500000005588,true,low,false
KE3djsqD,3icohx7eofotocxdgkfntnxt5xb0e8,37u1utwh9zz22p5fowh4atymgtl8ra,KE3djsqD,2020-0188,2020-11-18,15:13:13,15:32:15,NA,incomplete,125,filling,1,left,Purple_Star_Stripes_2.jpg,Red_Plus_Stripes_4.jpg,Blue_Triangle_Chess_2.jpg,left,1046.8399999999674,true,low,false
KE3djsqD,3icohx7eofotocxdgkfntnxt5xb0e8,37u1utwh9zz22p5fowh4atymgtl8ra,KE3djsqD,2020-0188,2020-11-18,15:13:13,15:32:15,NA,incomplete,126,filling,1,right,Green_Star_Chess_1.jpg,Red_Triangle_Stripes_1.jpg,Purple_Circle_Chess_2.jpg,right,1011.1550000001444,true,low,false
KE3djsqD,3icohx7eofotocxdgkfntnxt5xb0e8,37u1utwh9zz22p5fowh4atymgtl8ra,KE3djsqD,2020-0188,2020-11-18,15:13:13,15:32:15,NA,incomplete,127,filling,0,right,Green_Plus_Stripes_2.jpg,Red_Star_Dots_2.jpg,Blue_Circle_Stripes_3.jpg,right,1039.0550000001676,true,low,false
KE3djsqD,3icohx7eofotocxdgkfntnxt5xb0e8,37u1utwh9zz22p5fowh4atymgtl8ra,KE3djsqD,2020-0188,2020-11-18,15:13:13,15:32:15,NA,incomplete,128,filling,1,right,Blue_Triangle_Grid_4.jpg,Purple_Circle_Chess_4.jpg,Green_Star_Grid_1.jpg,left,1034.909999999334,false,low,false
KE3djsqD,3icohx7eofotocxdgkfntnxt5xb0e8,37u1utwh9zz22p5fowh4atymgtl8ra,KE3djsqD,2020-0188,2020-11-18,15:13:13,15:32:15,NA,incomplete,129,filling,1,right,Blue_Plus_Grid_3.jpg,Green_Star_Chess_3.jpg,Purple_Triangle_Grid_2.jpg,right,1117.7649999998976,true,low,false
KE3djsqD,3icohx7eofotocxdgkfntnxt5xb0e8,37u1utwh9zz22p5fowh4atymgtl8ra,KE3djsqD,2020-0188,2020-11-18,15:13:13,15:32:15,NA,incomplete,130,filling,1,right,Blue_Plus_Grid_2.jpg,Red_Star_Stripes_2.jpg,Purple_Circle_Grid_1.jpg,right,1055.1500000001397,true,low,false
KE3djsqD,3icohx7eofotocxdgkfntnxt5xb0e8,37u1utwh9zz22p5fowh4atymgtl8ra,KE3djsqD,2020-0188,2020-11-18,15:13:13,15:32:15,NA,incomplete,131,filling,1,right,Green_Triangle_Chess_4.jpg,Blue_Star_Dots_4.jpg,Purple_Plus_Chess_1.jpg,right,1097.1200000003446,true,low,false
KE3djsqD,3icohx7eofotocxdgkfntnxt5xb0e8,37u1utwh9zz22p5fowh4atymgtl8ra,KE3djsqD,2020-0188,2020-11-18,15:13:13,15:32:15,NA,incomplete,132,filling,1,right,Green_Plus_Grid_3.jpg,Purple_Triangle_Dots_3.jpg,Red_Star_Grid_2.jpg,right,1138.3650000006892,true,low,false
KE3djsqD,3icohx7eofotocxdgkfntnxt5xb0e8,37u1utwh9zz22p5fowh4atymgtl8ra,KE3djsqD,2020-0188,2020-11-18,15:13:13,15:32:15,NA,incomplete,133,filling,1,left,Green_Star_Chess_3.jpg,Red_Plus_Chess_2.jpg,Blue_Circle_Dots_3.jpg,left,1138.1149999996414,true,low,false
KE3djsqD,3icohx7eofotocxdgkfntnxt5xb0e8,37u1utwh9zz22p5fowh4atymgtl8ra,KE3djsqD,2020-0188,2020-11-18,15:13:13,15:32:15,NA,incomplete,134,filling,1,right,Green_Circle_Stripes_1.jpg,Red_Plus_Chess_1.jpg,Purple_Triangle_Stripes_4.jpg,right,1003.1949999993667,true,low,false
KE3djsqD,3icohx7eofotocxdgkfntnxt5xb0e8,37u1utwh9zz22p5fowh4atymgtl8ra,KE3djsqD,2020-0188,2020-11-18,15:13:13,15:32:15,NA,incomplete,135,filling,0,left,Blue_Star_Chess_1.jpg,Green_Circle_Chess_2.jpg,Purple_Plus_Grid_1.jpg,left,1214.5300000001444,true,low,false
KE3djsqD,3icohx7eofotocxdgkfntnxt5xb0e8,37u1utwh9zz22p5fowh4atymgtl8ra,KE3djsqD,2020-0188,2020-11-18,15:13:13,15:32:15,NA,incomplete,136,filling,1,right,Purple_Plus_Dots_4.jpg,Green_Circle_Stripes_4.jpg,Red_Triangle_Dots_3.jpg,right,1267.6349999991944,true,low,false
KE3djsqD,3icohx7eofotocxdgkfntnxt5xb0e8,37u1utwh9zz22p5fowh4atymgtl8ra,KE3djsqD,2020-0188,2020-11-18,15:13:13,15:32:15,NA,incomplete,137,filling,1,left,Purple_Plus_Grid_4.jpg,Red_Triangle_Grid_3.jpg,Green_Star_Stripes_4.jpg,left,1190.2650000001304,true,low,false
KE3djsqD,3icohx7eofotocxdgkfntnxt5xb0e8,37u1utwh9zz22p5fowh4atymgtl8ra,KE3djsqD,2020-0188,2020-11-18,15:13:13,15:32:15,NA,incomplete,138,filling,1,left,Red_Plus_Grid_4.jpg,Blue_Triangle_Grid_2.jpg,Purple_Star_Stripes_4.jpg,left,1405.4050000004936,true,low,false
KE3djsqD,3icohx7eofotocxdgkfntnxt5xb0e8,37u1utwh9zz22p5fowh4atymgtl8ra,KE3djsqD,2020-0188,2020-11-18,15:13:13,15:32:15,NA,incomplete,139,filling,1,right,Red_Triangle_Grid_3.jpg,Purple_Plus_Chess_3.jpg,Green_Star_Grid_4.jpg,right,1354.3600000002189,true,low,false
KE3djsqD,3icohx7eofotocxdgkfntnxt5xb0e8,37u1utwh9zz22p5fowh4atymgtl8ra,KE3djsqD,2020-0188,2020-11-18,15:13:13,15:32:15,NA,incomplete,140,number,1,right,Blue_Triangle_Stripes_4.jpg,Green_Plus_Stripes_3.jpg,Purple_Star_Dots_4.jpg,left,1098.1549999996787,false,low,false
KE3djsqD,3icohx7eofotocxdgkfntnxt5xb0e8,37u1utwh9zz22p5fowh4atymgtl8ra,KE3djsqD,2020-0188,2020-11-18,15:13:13,15:32:15,NA,incomplete,141,number,1,left,Blue_Triangle_Chess_3.jpg,Green_Circle_Grid_3.jpg,Purple_Plus_Chess_2.jpg,right,994.6149999996414,false,low,false
KE3djsqD,3icohx7eofotocxdgkfntnxt5xb0e8,37u1utwh9zz22p5fowh4atymgtl8ra,KE3djsqD,2020-0188,2020-11-18,15:13:13,15:32:15,NA,incomplete,142,number,1,left,Purple_Circle_Chess_1.jpg,Blue_Star_Stripes_1.jpg,Green_Triangle_Chess_4.jpg,left,1000.5700000001816,true,low,false
KE3djsqD,3icohx7eofotocxdgkfntnxt5xb0e8,37u1utwh9zz22p5fowh4atymgtl8ra,KE3djsqD,2020-0188,2020-11-18,15:13:13,15:32:15,NA,incomplete,143,number,1,right,Purple_Circle_Dots_3.jpg,Red_Plus_Dots_4.jpg,Blue_Star_Grid_3.jpg,right,996.7200000000885,true,low,false
KE3djsqD,3icohx7eofotocxdgkfntnxt5xb0e8,37u1utwh9zz22p5fowh4atymgtl8ra,KE3djsqD,2020-0188,2020-11-18,15:13:13,15:32:15,NA,incomplete,144,number,1,right,Blue_Triangle_Grid_4.jpg,Purple_Circle_Grid_2.jpg,Green_Plus_Chess_4.jpg,right,1265.5500000000466,true,low,false
KE3djsqD,3icohx7eofotocxdgkfntnxt5xb0e8,37u1utwh9zz22p5fowh4atymgtl8ra,KE3djsqD,2020-0188,2020-11-18,15:13:13,15:32:15,NA,incomplete,145,number,1,left,Purple_Star_Stripes_3.jpg,Red_Triangle_Chess_3.jpg,Green_Plus_Stripes_1.jpg,left,1100.6600000000326,true,low,false
KE3djsqD,3icohx7eofotocxdgkfntnxt5xb0e8,37u1utwh9zz22p5fowh4atymgtl8ra,KE3djsqD,2020-0188,2020-11-18,15:13:13,15:32:15,NA,incomplete,146,number,1,left,Purple_Circle_Grid_3.jpg,Blue_Triangle_Chess_3.jpg,Green_Star_Grid_4.jpg,left,1454.069999999716,true,low,false
KE3djsqD,3icohx7eofotocxdgkfntnxt5xb0e8,37u1utwh9zz22p5fowh4atymgtl8ra,KE3djsqD,2020-0188,2020-11-18,15:13:13,15:32:15,NA,incomplete,147,number,0,left,Blue_Circle_Chess_1.jpg,Purple_Triangle_Dots_1.jpg,Green_Star_Chess_4.jpg,left,1338.6449999997858,true,low,false
KE3djsqD,3icohx7eofotocxdgkfntnxt5xb0e8,37u1utwh9zz22p5fowh4atymgtl8ra,KE3djsqD,2020-0188,2020-11-18,15:13:13,15:32:15,NA,incomplete,148,number,1,left,Blue_Triangle_Stripes_3.jpg,Green_Star_Grid_3.jpg,Red_Plus_Stripes_1.jpg,left,834.5850000005448,true,low,false
KE3djsqD,3icohx7eofotocxdgkfntnxt5xb0e8,37u1utwh9zz22p5fowh4atymgtl8ra,KE3djsqD,2020-0188,2020-11-18,15:13:13,15:32:15,NA,incomplete,149,number,0,left,Blue_Triangle_Grid_2.jpg,Purple_Star_Stripes_2.jpg,Red_Circle_Grid_1.jpg,left,804.8699999999953,true,low,false
KE3djsqD,3icohx7eofotocxdgkfntnxt5xb0e8,37u1utwh9zz22p5fowh4atymgtl8ra,KE3djsqD,2020-0188,2020-11-18,15:13:13,15:32:15,NA,incomplete,150,number,1,left,Blue_Triangle_Dots_2.jpg,Red_Circle_Chess_2.jpg,Purple_Star_Dots_3.jpg,left,953.2099999996135,true,low,false
KE3djsqD,3icohx7eofotocxdgkfntnxt5xb0e8,37u1utwh9zz22p5fowh4atymgtl8ra,KE3djsqD,2020-0188,2020-11-18,15:13:13,15:32:15,NA,incomplete,151,number,0,left,Blue_Star_Stripes_4.jpg,Purple_Triangle_Dots_4.jpg,Green_Plus_Stripes_2.jpg,left,871.9949999995297,true,low,false
KE3djsqD,3icohx7eofotocxdgkfntnxt5xb0e8,37u1utwh9zz22p5fowh4atymgtl8ra,KE3djsqD,2020-0188,2020-11-18,15:13:13,15:32:15,NA,incomplete,152,number,1,left,Blue_Star_Grid_3.jpg,Purple_Plus_Stripes_3.jpg,Red_Triangle_Grid_1.jpg,left,1152.7999999998137,true,low,false
KE3djsqD,3icohx7eofotocxdgkfntnxt5xb0e8,37u1utwh9zz22p5fowh4atymgtl8ra,KE3djsqD,2020-0188,2020-11-18,15:13:13,15:32:15,NA,incomplete,153,number,1,right,Green_Triangle_Grid_2.jpg,Red_Plus_Grid_1.jpg,Purple_Circle_Dots_2.jpg,right,775.8000000003958,true,low,false
KE3djsqD,3icohx7eofotocxdgkfntnxt5xb0e8,37u1utwh9zz22p5fowh4atymgtl8ra,KE3djsqD,2020-0188,2020-11-18,15:13:13,15:32:15,NA,incomplete,154,number,1,left,Red_Star_Grid_1.jpg,Green_Triangle_Dots_1.jpg,Purple_Plus_Grid_4.jpg,left,620.7250000006752,true,low,false
KE3djsqD,3icohx7eofotocxdgkfntnxt5xb0e8,37u1utwh9zz22p5fowh4atymgtl8ra,KE3djsqD,2020-0188,2020-11-18,15:13:13,15:32:15,NA,incomplete,155,number,1,left,Red_Star_Dots_1.jpg,Blue_Plus_Grid_1.jpg,Purple_Triangle_Dots_3.jpg,left,864.0949999998556,true,low,false
KE3djsqD,3icohx7eofotocxdgkfntnxt5xb0e8,37u1utwh9zz22p5fowh4atymgtl8ra,KE3djsqD,2020-0188,2020-11-18,15:13:13,15:32:15,NA,incomplete,156,number,1,right,Red_Triangle_Stripes_1.jpg,Blue_Star_Stripes_2.jpg,Purple_Plus_Chess_1.jpg,right,762.6350000000093,true,low,false
KE3djsqD,3icohx7eofotocxdgkfntnxt5xb0e8,37u1utwh9zz22p5fowh4atymgtl8ra,KE3djsqD,2020-0188,2020-11-18,15:13:13,15:32:15,NA,incomplete,157,number,1,left,Purple_Plus_Stripes_3.jpg,Green_Star_Dots_3.jpg,Blue_Circle_Stripes_1.jpg,left,687.4150000002701,true,low,false
KE3djsqD,3icohx7eofotocxdgkfntnxt5xb0e8,37u1utwh9zz22p5fowh4atymgtl8ra,KE3djsqD,2020-0188,2020-11-18,15:13:13,15:32:15,NA,incomplete,158,number,1,left,Green_Star_Stripes_4.jpg,Blue_Triangle_Dots_4.jpg,Purple_Plus_Stripes_2.jpg,left,928.0600000001723,true,low,false
KE3djsqD,3icohx7eofotocxdgkfntnxt5xb0e8,37u1utwh9zz22p5fowh4atymgtl8ra,KE3djsqD,2020-0188,2020-11-18,15:13:13,15:32:15,NA,incomplete,159,number,1,right,Blue_Plus_Chess_4.jpg,Purple_Triangle_Chess_3.jpg,Red_Circle_Dots_4.jpg,right,919.5550000004005,true,low,false
KE3djsqD,3icohx7eofotocxdgkfntnxt5xb0e8,37u1utwh9zz22p5fowh4atymgtl8ra,KE3djsqD,2020-0188,2020-11-18,15:13:13,15:32:15,NA,incomplete,160,filling,1,right,Purple_Plus_Grid_4.jpg,Blue_Triangle_Stripes_4.jpg,Red_Star_Grid_2.jpg,left,863.4799999999814,false,low,false
KE3djsqD,3icohx7eofotocxdgkfntnxt5xb0e8,37u1utwh9zz22p5fowh4atymgtl8ra,KE3djsqD,2020-0188,2020-11-18,15:13:13,15:32:15,NA,incomplete,161,filling,1,right,Green_Triangle_Stripes_2.jpg,Red_Star_Grid_2.jpg,Purple_Circle_Stripes_3.jpg,left,930.5399999993388,false,low,false
KE3djsqD,3icohx7eofotocxdgkfntnxt5xb0e8,37u1utwh9zz22p5fowh4atymgtl8ra,KE3djsqD,2020-0188,2020-11-18,15:13:13,15:32:15,NA,incomplete,162,filling,1,left,Purple_Circle_Dots_1.jpg,Blue_Plus_Dots_2.jpg,Red_Star_Stripes_1.jpg,left,1048.6849999997066,true,low,false
KE3djsqD,3icohx7eofotocxdgkfntnxt5xb0e8,37u1utwh9zz22p5fowh4atymgtl8ra,KE3djsqD,2020-0188,2020-11-18,15:13:13,15:32:15,NA,incomplete,163,filling,0,left,Blue_Star_Stripes_2.jpg,Purple_Plus_Stripes_4.jpg,Green_Circle_Grid_2.jpg,left,1163.1399999995483,true,low,false
KE3djsqD,3icohx7eofotocxdgkfntnxt5xb0e8,37u1utwh9zz22p5fowh4atymgtl8ra,KE3djsqD,2020-0188,2020-11-18,15:13:13,15:32:15,NA,incomplete,164,filling,1,right,Red_Star_Grid_2.jpg,Blue_Triangle_Stripes_2.jpg,Purple_Plus_Grid_1.jpg,left,1163.325000000419,false,low,false
KE3djsqD,3icohx7eofotocxdgkfntnxt5xb0e8,37u1utwh9zz22p5fowh4atymgtl8ra,KE3djsqD,2020-0188,2020-11-18,15:13:13,15:32:15,NA,incomplete,165,filling,0,left,Blue_Star_Dots_3.jpg,Purple_Circle_Dots_1.jpg,Green_Triangle_Grid_3.jpg,right,1042.975000000326,false,low,false
KE3djsqD,3icohx7eofotocxdgkfntnxt5xb0e8,37u1utwh9zz22p5fowh4atymgtl8ra,KE3djsqD,2020-0188,2020-11-18,15:13:13,15:32:15,NA,incomplete,166,filling,1,left,Purple_Circle_Stripes_4.jpg,Blue_Triangle_Stripes_1.jpg,Green_Plus_Grid_4.jpg,right,1149.0750000003027,false,low,false
KE3djsqD,3icohx7eofotocxdgkfntnxt5xb0e8,37u1utwh9zz22p5fowh4atymgtl8ra,KE3djsqD,2020-0188,2020-11-18,15:13:13,15:32:15,NA,incomplete,167,filling,1,right,Purple_Star_Grid_4.jpg,Blue_Plus_Dots_4.jpg,Red_Circle_Grid_1.jpg,right,1180.674999999581,true,low,false
KE3djsqD,3icohx7eofotocxdgkfntnxt5xb0e8,37u1utwh9zz22p5fowh4atymgtl8ra,KE3djsqD,2020-0188,2020-11-18,15:13:13,15:32:15,NA,incomplete,168,filling,0,right,Blue_Plus_Grid_4.jpg,Red_Star_Chess_4.jpg,Green_Triangle_Grid_3.jpg,right,1179.1450000000186,true,low,false
KE3djsqD,3icohx7eofotocxdgkfntnxt5xb0e8,37u1utwh9zz22p5fowh4atymgtl8ra,KE3djsqD,2020-0188,2020-11-18,15:13:13,15:32:15,NA,incomplete,169,filling,1,left,Purple_Plus_Grid_3.jpg,Green_Circle_Grid_1.jpg,Red_Star_Stripes_3.jpg,left,1201.9200000005076,true,low,false
KE3djsqD,3icohx7eofotocxdgkfntnxt5xb0e8,37u1utwh9zz22p5fowh4atymgtl8ra,KE3djsqD,2020-0188,2020-11-18,15:13:13,15:32:15,NA,incomplete,170,filling,1,left,Purple_Star_Stripes_1.jpg,Red_Plus_Stripes_4.jpg,Green_Circle_Dots_1.jpg,left,1047.189999999362,true,low,false
KE3djsqD,3icohx7eofotocxdgkfntnxt5xb0e8,37u1utwh9zz22p5fowh4atymgtl8ra,KE3djsqD,2020-0188,2020-11-18,15:13:13,15:32:15,NA,incomplete,171,filling,1,right,Green_Star_Chess_1.jpg,Purple_Plus_Grid_1.jpg,Red_Triangle_Chess_2.jpg,right,1210.820000000298,true,low,false
KE3djsqD,3icohx7eofotocxdgkfntnxt5xb0e8,37u1utwh9zz22p5fowh4atymgtl8ra,KE3djsqD,2020-0188,2020-11-18,15:13:13,15:32:15,NA,incomplete,172,filling,1,right,Red_Triangle_Chess_1.jpg,Blue_Star_Stripes_1.jpg,Green_Circle_Chess_2.jpg,right,1303.324999999837,true,low,false
KE3djsqD,3icohx7eofotocxdgkfntnxt5xb0e8,37u1utwh9zz22p5fowh4atymgtl8ra,KE3djsqD,2020-0188,2020-11-18,15:13:13,15:32:15,NA,incomplete,173,filling,1,left,Red_Triangle_Dots_3.jpg,Green_Star_Dots_2.jpg,Blue_Circle_Chess_3.jpg,left,1345.5849999999627,true,low,false
KE3djsqD,3icohx7eofotocxdgkfntnxt5xb0e8,37u1utwh9zz22p5fowh4atymgtl8ra,KE3djsqD,2020-0188,2020-11-18,15:13:13,15:32:15,NA,incomplete,174,filling,1,left,Green_Circle_Stripes_1.jpg,Red_Plus_Stripes_2.jpg,Purple_Star_Chess_1.jpg,left,1025.189999999362,true,low,false
KE3djsqD,3icohx7eofotocxdgkfntnxt5xb0e8,37u1utwh9zz22p5fowh4atymgtl8ra,KE3djsqD,2020-0188,2020-11-18,15:13:13,15:32:15,NA,incomplete,175,filling,0,right,Blue_Star_Stripes_3.jpg,Red_Plus_Grid_3.jpg,Purple_Circle_Stripes_1.jpg,right,1165.645000000135,true,low,false
KE3djsqD,3icohx7eofotocxdgkfntnxt5xb0e8,37u1utwh9zz22p5fowh4atymgtl8ra,KE3djsqD,2020-0188,2020-11-18,15:13:13,15:32:15,NA,incomplete,176,filling,1,left,Green_Triangle_Grid_4.jpg,Blue_Circle_Grid_1.jpg,Purple_Star_Chess_4.jpg,left,1004.1650000002701,true,low,false
KE3djsqD,3icohx7eofotocxdgkfntnxt5xb0e8,37u1utwh9zz22p5fowh4atymgtl8ra,KE3djsqD,2020-0188,2020-11-18,15:13:13,15:32:15,NA,incomplete,177,filling,1,right,Red_Circle_Chess_4.jpg,Green_Plus_Dots_4.jpg,Purple_Star_Chess_2.jpg,right,1105.2650000001304,true,low,false
KE3djsqD,3icohx7eofotocxdgkfntnxt5xb0e8,37u1utwh9zz22p5fowh4atymgtl8ra,KE3djsqD,2020-0188,2020-11-18,15:13:13,15:32:15,NA,incomplete,178,filling,1,left,Blue_Star_Dots_1.jpg,Red_Triangle_Dots_4.jpg,Purple_Plus_Grid_1.jpg,left,1289.0999999999767,true,low,false
KE3djsqD,3icohx7eofotocxdgkfntnxt5xb0e8,37u1utwh9zz22p5fowh4atymgtl8ra,KE3djsqD,2020-0188,2020-11-18,15:13:13,15:32:15,NA,incomplete,179,filling,0,left,Blue_Circle_Grid_1.jpg,Purple_Triangle_Grid_3.jpg,Red_Star_Stripes_1.jpg,left,963.5699999998324,true,low,false
KE3djsqD,3icohx7eofotocxdgkfntnxt5xb0e8,37u1utwh9zz22p5fowh4atymgtl8ra,KE3djsqD,2020-0188,2020-11-18,15:13:13,15:32:15,NA,incomplete,180,number,1,right,Blue_Triangle_Dots_2.jpg,Purple_Star_Dots_4.jpg,Green_Plus_Grid_2.jpg,left,1146.195000000298,false,low,false
KE3djsqD,3icohx7eofotocxdgkfntnxt5xb0e8,37u1utwh9zz22p5fowh4atymgtl8ra,KE3djsqD,2020-0188,2020-11-18,15:13:13,15:32:15,NA,incomplete,181,number,0,left,Green_Triangle_Dots_1.jpg,Blue_Circle_Grid_1.jpg,Red_Star_Dots_4.jpg,left,850.8200000005309,true,low,false
KE3djsqD,3icohx7eofotocxdgkfntnxt5xb0e8,37u1utwh9zz22p5fowh4atymgtl8ra,KE3djsqD,2020-0188,2020-11-18,15:13:13,15:32:15,NA,incomplete,182,number,1,left,Red_Star_Dots_4.jpg,Purple_Plus_Stripes_4.jpg,Blue_Circle_Dots_3.jpg,right,1156.3649999997579,false,low,false
KE3djsqD,3icohx7eofotocxdgkfntnxt5xb0e8,37u1utwh9zz22p5fowh4atymgtl8ra,KE3djsqD,2020-0188,2020-11-18,15:13:13,15:32:15,NA,incomplete,183,number,0,left,Red_Plus_Chess_2.jpg,Green_Triangle_Grid_2.jpg,Purple_Circle_Chess_3.jpg,left,1059.2900000001537,true,low,false
KE3djsqD,3icohx7eofotocxdgkfntnxt5xb0e8,37u1utwh9zz22p5fowh4atymgtl8ra,KE3djsqD,2020-0188,2020-11-18,15:13:13,15:32:15,NA,incomplete,184,number,1,left,Red_Star_Chess_1.jpg,Purple_Circle_Stripes_1.jpg,Green_Plus_Chess_4.jpg,right,1117.9550000005402,false,low,false
KE3djsqD,3icohx7eofotocxdgkfntnxt5xb0e8,37u1utwh9zz22p5fowh4atymgtl8ra,KE3djsqD,2020-0188,2020-11-18,15:13:13,15:32:15,NA,incomplete,185,number,1,right,Purple_Triangle_Dots_3.jpg,Green_Plus_Dots_2.jpg,Blue_Star_Stripes_3.jpg,right,918.7849999999162,true,low,false
KE3djsqD,3icohx7eofotocxdgkfntnxt5xb0e8,37u1utwh9zz22p5fowh4atymgtl8ra,KE3djsqD,2020-0188,2020-11-18,15:13:13,15:32:15,NA,incomplete,186,number,1,right,Green_Triangle_Dots_4.jpg,Red_Circle_Dots_3.jpg,Purple_Plus_Chess_4.jpg,right,821.8450000003213,true,low,false
KE3djsqD,3icohx7eofotocxdgkfntnxt5xb0e8,37u1utwh9zz22p5fowh4atymgtl8ra,KE3djsqD,2020-0188,2020-11-18,15:13:13,15:32:15,NA,incomplete,187,number,0,right,Green_Plus_Dots_4.jpg,Purple_Triangle_Dots_3.jpg,Red_Circle_Grid_4.jpg,left,1065.6549999993294,false,low,false
KE3djsqD,3icohx7eofotocxdgkfntnxt5xb0e8,37u1utwh9zz22p5fowh4atymgtl8ra,KE3djsqD,2020-0188,2020-11-18,15:13:13,15:32:15,NA,incomplete,188,number,1,right,Blue_Plus_Stripes_4.jpg,Purple_Star_Stripes_1.jpg,Green_Triangle_Chess_4.jpg,right,1059.8199999994831,true,low,false
KE3djsqD,3icohx7eofotocxdgkfntnxt5xb0e8,37u1utwh9zz22p5fowh4atymgtl8ra,KE3djsqD,2020-0188,2020-11-18,15:13:13,15:32:15,NA,incomplete,189,number,1,right,Red_Star_Dots_4.jpg,Green_Triangle_Dots_2.jpg,Blue_Circle_Chess_4.jpg,right,1135.470000000205,true,low,false
KE3djsqD,3icohx7eofotocxdgkfntnxt5xb0e8,37u1utwh9zz22p5fowh4atymgtl8ra,KE3djsqD,2020-0188,2020-11-18,15:13:13,15:32:15,NA,incomplete,190,number,1,left,Blue_Plus_Chess_3.jpg,Purple_Star_Grid_3.jpg,Green_Circle_Chess_2.jpg,left,1013.7249999998603,true,low,false
KE3djsqD,3icohx7eofotocxdgkfntnxt5xb0e8,37u1utwh9zz22p5fowh4atymgtl8ra,KE3djsqD,2020-0188,2020-11-18,15:13:13,15:32:15,NA,incomplete,191,number,1,right,Purple_Plus_Grid_4.jpg,Green_Star_Grid_3.jpg,Red_Circle_Dots_4.jpg,right,1066.3649999997579,true,low,false
KE3djsqD,3icohx7eofotocxdgkfntnxt5xb0e8,37u1utwh9zz22p5fowh4atymgtl8ra,KE3djsqD,2020-0188,2020-11-18,15:13:13,15:32:15,NA,incomplete,192,number,1,right,Red_Star_Dots_2.jpg,Purple_Circle_Dots_3.jpg,Blue_Triangle_Chess_2.jpg,right,1029.0949999998556,true,low,false
KE3djsqD,3icohx7eofotocxdgkfntnxt5xb0e8,37u1utwh9zz22p5fowh4atymgtl8ra,KE3djsqD,2020-0188,2020-11-18,15:13:13,15:32:15,NA,incomplete,193,number,1,right,Red_Star_Dots_1.jpg,Purple_Circle_Dots_2.jpg,Blue_Plus_Grid_1.jpg,right,1001.5599999997066,true,low,false
KE3djsqD,3icohx7eofotocxdgkfntnxt5xb0e8,37u1utwh9zz22p5fowh4atymgtl8ra,KE3djsqD,2020-0188,2020-11-18,15:13:13,15:32:15,NA,incomplete,194,number,1,right,Red_Circle_Chess_4.jpg,Blue_Plus_Chess_2.jpg,Purple_Triangle_Grid_4.jpg,right,861.2800000001444,true,low,false
KE3djsqD,3icohx7eofotocxdgkfntnxt5xb0e8,37u1utwh9zz22p5fowh4atymgtl8ra,KE3djsqD,2020-0188,2020-11-18,15:13:13,15:32:15,NA,incomplete,195,number,1,left,Red_Star_Grid_3.jpg,Green_Circle_Stripes_3.jpg,Blue_Plus_Grid_4.jpg,left,1095.5650000005262,true,low,false
KE3djsqD,3icohx7eofotocxdgkfntnxt5xb0e8,37u1utwh9zz22p5fowh4atymgtl8ra,KE3djsqD,2020-0188,2020-11-18,15:13:13,15:32:15,NA,incomplete,196,number,1,left,Purple_Star_Dots_3.jpg,Blue_Plus_Stripes_3.jpg,Green_Triangle_Dots_1.jpg,left,921.8600000003353,true,low,false
KE3djsqD,3icohx7eofotocxdgkfntnxt5xb0e8,37u1utwh9zz22p5fowh4atymgtl8ra,KE3djsqD,2020-0188,2020-11-18,15:13:13,15:32:15,NA,incomplete,197,number,1,right,Red_Circle_Grid_2.jpg,Purple_Star_Grid_4.jpg,Blue_Triangle_Chess_2.jpg,right,745.0799999997253,true,low,false
KE3djsqD,3icohx7eofotocxdgkfntnxt5xb0e8,37u1utwh9zz22p5fowh4atymgtl8ra,KE3djsqD,2020-0188,2020-11-18,15:13:13,15:32:15,NA,incomplete,198,number,1,left,Green_Triangle_Grid_2.jpg,Blue_Star_Chess_2.jpg,Purple_Plus_Grid_3.jpg,left,751.4900000005728,true,low,false
KE3djsqD,3icohx7eofotocxdgkfntnxt5xb0e8,37u1utwh9zz22p5fowh4atymgtl8ra,KE3djsqD,2020-0188,2020-11-18,15:13:13,15:32:15,NA,incomplete,199,number,1,right,Purple_Circle_Dots_4.jpg,Red_Triangle_Dots_1.jpg,Blue_Plus_Chess_4.jpg,right,708.8999999995576,true,low,false
KE3djsqD,3icohx7eofotocxdgkfntnxt5xb0e8,37u1utwh9zz22p5fowh4atymgtl8ra,KE3djsqD,2020-0188,2020-11-18,15:13:13,15:32:15,NA,incomplete,200,filling,1,right,Green_Star_Grid_3.jpg,Blue_Circle_Dots_3.jpg,Purple_Plus_Grid_4.jpg,left,700.2499999998836,false,low,false
KE3djsqD,3icohx7eofotocxdgkfntnxt5xb0e8,37u1utwh9zz22p5fowh4atymgtl8ra,KE3djsqD,2020-0188,2020-11-18,15:13:13,15:32:15,NA,incomplete,201,filling,1,right,Green_Triangle_Grid_2.jpg,Red_Star_Stripes_2.jpg,Blue_Plus_Grid_3.jpg,left,859.6950000000652,false,low,false
KE3djsqD,3icohx7eofotocxdgkfntnxt5xb0e8,37u1utwh9zz22p5fowh4atymgtl8ra,KE3djsqD,2020-0188,2020-11-18,15:13:13,15:32:15,NA,incomplete,202,filling,1,left,Red_Triangle_Stripes_1.jpg,Purple_Plus_Stripes_4.jpg,Green_Star_Grid_1.jpg,left,1118.8400000000838,true,low,false
KE3djsqD,3icohx7eofotocxdgkfntnxt5xb0e8,37u1utwh9zz22p5fowh4atymgtl8ra,KE3djsqD,2020-0188,2020-11-18,15:13:13,15:32:15,NA,incomplete,203,filling,1,left,Red_Plus_Chess_2.jpg,Purple_Triangle_Chess_4.jpg,Blue_Star_Grid_2.jpg,left,1167.4499999999534,true,low,false
KE3djsqD,3icohx7eofotocxdgkfntnxt5xb0e8,37u1utwh9zz22p5fowh4atymgtl8ra,KE3djsqD,2020-0188,2020-11-18,15:13:13,15:32:15,NA,incomplete,204,filling,1,left,Red_Triangle_Chess_4.jpg,Blue_Plus_Chess_2.jpg,Green_Star_Stripes_4.jpg,left,1109.2950000001583,true,low,false
KE3djsqD,3icohx7eofotocxdgkfntnxt5xb0e8,37u1utwh9zz22p5fowh4atymgtl8ra,KE3djsqD,2020-0188,2020-11-18,15:13:13,15:32:15,NA,incomplete,205,filling,1,right,Blue_Plus_Grid_1.jpg,Red_Circle_Chess_1.jpg,Green_Star_Grid_2.jpg,right,1125.755000000121,true,low,false
KE3djsqD,3icohx7eofotocxdgkfntnxt5xb0e8,37u1utwh9zz22p5fowh4atymgtl8ra,KE3djsqD,2020-0188,2020-11-18,15:13:13,15:32:15,NA,incomplete,206,filling,1,left,Red_Plus_Grid_1.jpg,Green_Circle_Grid_3.jpg,Purple_Star_Chess_1.jpg,left,1118.4949999997625,true,low,false
KE3djsqD,3icohx7eofotocxdgkfntnxt5xb0e8,37u1utwh9zz22p5fowh4atymgtl8ra,KE3djsqD,2020-0188,2020-11-18,15:13:13,15:32:15,NA,incomplete,207,filling,1,right,Green_Circle_Chess_3.jpg,Red_Star_Dots_3.jpg,Blue_Plus_Chess_2.jpg,right,1007.4199999999255,true,low,false
KE3djsqD,3icohx7eofotocxdgkfntnxt5xb0e8,37u1utwh9zz22p5fowh4atymgtl8ra,KE3djsqD,2020-0188,2020-11-18,15:13:13,15:32:15,NA,incomplete,208,filling,1,right,Green_Circle_Dots_1.jpg,Purple_Triangle_Grid_1.jpg,Red_Star_Dots_3.jpg,right,1098.989999999525,true,low,false
KE3djsqD,3icohx7eofotocxdgkfntnxt5xb0e8,37u1utwh9zz22p5fowh4atymgtl8ra,KE3djsqD,2020-0188,2020-11-18,15:13:13,15:32:15,NA,incomplete,209,filling,0,left,Purple_Star_Chess_3.jpg,Blue_Circle_Chess_1.jpg,Green_Plus_Stripes_3.jpg,left,1052.539999999688,true,low,false
KE3djsqD,3icohx7eofotocxdgkfntnxt5xb0e8,37u1utwh9zz22p5fowh4atymgtl8ra,KE3djsqD,2020-0188,2020-11-18,15:13:13,15:32:15,NA,incomplete,210,filling,1,left,Purple_Circle_Grid_1.jpg,Green_Star_Grid_3.jpg,Red_Plus_Dots_1.jpg,left,1119.2099999998463,true,low,false
KE3djsqD,3icohx7eofotocxdgkfntnxt5xb0e8,37u1utwh9zz22p5fowh4atymgtl8ra,KE3djsqD,2020-0188,2020-11-18,15:13:13,15:32:15,NA,incomplete,211,filling,0,right,Purple_Star_Grid_3.jpg,Blue_Circle_Chess_3.jpg,Green_Triangle_Grid_1.jpg,right,1175.625000000815,true,low,false
KE3djsqD,3icohx7eofotocxdgkfntnxt5xb0e8,37u1utwh9zz22p5fowh4atymgtl8ra,KE3djsqD,2020-0188,2020-11-18,15:13:13,15:32:15,NA,incomplete,212,filling,1,right,Red_Triangle_Dots_4.jpg,Blue_Plus_Grid_4.jpg,Green_Star_Dots_3.jpg,right,1118.2749999997905,true,low,false
KE3djsqD,3icohx7eofotocxdgkfntnxt5xb0e8,37u1utwh9zz22p5fowh4atymgtl8ra,KE3djsqD,2020-0188,2020-11-18,15:13:13,15:32:15,NA,incomplete,213,filling,0,left,Blue_Plus_Dots_3.jpg,Green_Circle_Dots_4.jpg,Purple_Triangle_Grid_3.jpg,left,1134.1999999994878,true,low,false
KE3djsqD,3icohx7eofotocxdgkfntnxt5xb0e8,37u1utwh9zz22p5fowh4atymgtl8ra,KE3djsqD,2020-0188,2020-11-18,15:13:13,15:32:15,NA,incomplete,214,filling,1,left,Green_Plus_Chess_4.jpg,Blue_Star_Chess_1.jpg,Red_Circle_Dots_4.jpg,left,1286.369999999879,true,low,false
KE3djsqD,3icohx7eofotocxdgkfntnxt5xb0e8,37u1utwh9zz22p5fowh4atymgtl8ra,KE3djsqD,2020-0188,2020-11-18,15:13:13,15:32:15,NA,incomplete,215,filling,1,right,Purple_Plus_Stripes_2.jpg,Blue_Circle_Grid_2.jpg,Red_Triangle_Stripes_3.jpg,right,1161.0250000003725,true,low,false
KE3djsqD,3icohx7eofotocxdgkfntnxt5xb0e8,37u1utwh9zz22p5fowh4atymgtl8ra,KE3djsqD,2020-0188,2020-11-18,15:13:13,15:32:15,NA,incomplete,216,filling,1,right,Blue_Triangle_Dots_3.jpg,Purple_Plus_Chess_3.jpg,Green_Circle_Dots_1.jpg,right,1039.3249999997206,true,low,false
KE3djsqD,3icohx7eofotocxdgkfntnxt5xb0e8,37u1utwh9zz22p5fowh4atymgtl8ra,KE3djsqD,2020-0188,2020-11-18,15:13:13,15:32:15,NA,incomplete,217,filling,0,left,Purple_Plus_Grid_3.jpg,Blue_Star_Grid_2.jpg,Red_Circle_Dots_3.jpg,left,1098.7249999997439,true,low,false
KE3djsqD,3icohx7eofotocxdgkfntnxt5xb0e8,37u1utwh9zz22p5fowh4atymgtl8ra,KE3djsqD,2020-0188,2020-11-18,15:13:13,15:32:15,NA,incomplete,218,filling,1,left,Green_Plus_Stripes_3.jpg,Red_Circle_Stripes_2.jpg,Blue_Star_Grid_3.jpg,left,1075.5149999995483,true,low,false
KE3djsqD,3icohx7eofotocxdgkfntnxt5xb0e8,37u1utwh9zz22p5fowh4atymgtl8ra,KE3djsqD,2020-0188,2020-11-18,15:13:13,15:32:15,NA,incomplete,219,filling,1,right,Blue_Plus_Chess_4.jpg,Green_Star_Grid_4.jpg,Purple_Circle_Chess_1.jpg,right,1006.6049999995157,true,low,false
KE3djsqD,3icohx7eofotocxdgkfntnxt5xb0e8,37u1utwh9zz22p5fowh4atymgtl8ra,KE3djsqD,2020-0188,2020-11-18,15:13:13,15:32:15,NA,incomplete,220,number,1,right,Red_Circle_Chess_4.jpg,Purple_Triangle_Chess_1.jpg,Blue_Plus_Dots_4.jpg,left,962.2700000000186,false,low,false
KE3djsqD,3icohx7eofotocxdgkfntnxt5xb0e8,37u1utwh9zz22p5fowh4atymgtl8ra,KE3djsqD,2020-0188,2020-11-18,15:13:13,15:32:15,NA,incomplete,221,number,0,right,Red_Circle_Dots_3.jpg,Purple_Star_Dots_4.jpg,Green_Triangle_Grid_3.jpg,left,1344.7399999996414,false,low,false
KE3djsqD,3icohx7eofotocxdgkfntnxt5xb0e8,37u1utwh9zz22p5fowh4atymgtl8ra,KE3djsqD,2020-0188,2020-11-18,15:13:13,15:32:15,NA,incomplete,222,number,1,right,Green_Star_Chess_3.jpg,Purple_Plus_Chess_1.jpg,Blue_Triangle_Stripes_3.jpg,left,1105.279999999795,false,low,false
KE3djsqD,3icohx7eofotocxdgkfntnxt5xb0e8,37u1utwh9zz22p5fowh4atymgtl8ra,KE3djsqD,2020-0188,2020-11-18,15:13:13,15:32:15,NA,incomplete,223,number,0,left,Purple_Triangle_Grid_4.jpg,Red_Star_Dots_4.jpg,Green_Plus_Grid_3.jpg,right,1251.4549999996088,false,low,false
KE3djsqD,3icohx7eofotocxdgkfntnxt5xb0e8,37u1utwh9zz22p5fowh4atymgtl8ra,KE3djsqD,2020-0188,2020-11-18,15:13:13,15:32:15,NA,incomplete,224,number,1,right,Blue_Circle_Dots_1.jpg,Purple_Plus_Dots_4.jpg,Red_Triangle_Chess_1.jpg,left,1094.1400000001304,false,low,false
KE3djsqD,3icohx7eofotocxdgkfntnxt5xb0e8,37u1utwh9zz22p5fowh4atymgtl8ra,KE3djsqD,2020-0188,2020-11-18,15:13:13,15:32:15,NA,incomplete,225,number,0,left,Purple_Plus_Grid_3.jpg,Blue_Star_Stripes_3.jpg,Red_Triangle_Grid_4.jpg,left,1287.2400000005728,true,low,false
KE3djsqD,3icohx7eofotocxdgkfntnxt5xb0e8,37u1utwh9zz22p5fowh4atymgtl8ra,KE3djsqD,2020-0188,2020-11-18,15:13:13,15:32:15,NA,incomplete,226,number,1,left,Blue_Triangle_Dots_2.jpg,Red_Circle_Stripes_2.jpg,Green_Plus_Dots_3.jpg,right,1049.3950000000186,false,low,false
KE3djsqD,3icohx7eofotocxdgkfntnxt5xb0e8,37u1utwh9zz22p5fowh4atymgtl8ra,KE3djsqD,2020-0188,2020-11-18,15:13:13,15:32:15,NA,incomplete,227,number,1,left,Blue_Plus_Dots_1.jpg,Green_Circle_Grid_1.jpg,Red_Star_Dots_2.jpg,right,1173.360000000568,false,low,false
KE3djsqD,3icohx7eofotocxdgkfntnxt5xb0e8,37u1utwh9zz22p5fowh4atymgtl8ra,KE3djsqD,2020-0188,2020-11-18,15:13:13,15:32:15,NA,incomplete,228,number,1,left,Red_Circle_Dots_1.jpg,Green_Triangle_Stripes_1.jpg,Blue_Plus_Dots_3.jpg,left,715.1650000005029,true,low,false
KE3djsqD,3icohx7eofotocxdgkfntnxt5xb0e8,37u1utwh9zz22p5fowh4atymgtl8ra,KE3djsqD,2020-0188,2020-11-18,15:13:13,15:32:15,NA,incomplete,229,number,1,left,Red_Plus_Chess_4.jpg,Purple_Triangle_Stripes_4.jpg,Blue_Circle_Chess_3.jpg,left,1034.0999999998603,true,low,false
KE3djsqD,3icohx7eofotocxdgkfntnxt5xb0e8,37u1utwh9zz22p5fowh4atymgtl8ra,KE3djsqD,2020-0188,2020-11-18,15:13:13,15:32:15,NA,incomplete,230,number,0,right,Blue_Star_Stripes_3.jpg,Purple_Plus_Stripes_1.jpg,Red_Triangle_Grid_3.jpg,right,645.8049999992363,true,low,false
KE3djsqD,3icohx7eofotocxdgkfntnxt5xb0e8,37u1utwh9zz22p5fowh4atymgtl8ra,KE3djsqD,2020-0188,2020-11-18,15:13:13,15:32:15,NA,incomplete,231,number,1,left,Red_Circle_Stripes_1.jpg,Green_Triangle_Chess_1.jpg,Purple_Star_Stripes_2.jpg,left,671.1650000007357,true,low,false
KE3djsqD,3icohx7eofotocxdgkfntnxt5xb0e8,37u1utwh9zz22p5fowh4atymgtl8ra,KE3djsqD,2020-0188,2020-11-18,15:13:13,15:32:15,NA,incomplete,232,number,1,left,Purple_Triangle_Dots_3.jpg,Green_Star_Grid_3.jpg,Red_Circle_Dots_1.jpg,left,800.1249999997672,true,low,false
KE3djsqD,3icohx7eofotocxdgkfntnxt5xb0e8,37u1utwh9zz22p5fowh4atymgtl8ra,KE3djsqD,2020-0188,2020-11-18,15:13:13,15:32:15,NA,incomplete,233,number,1,left,Blue_Triangle_Stripes_1.jpg,Red_Plus_Grid_1.jpg,Purple_Star_Stripes_2.jpg,left,740.3450000002049,true,low,false
KE3djsqD,3icohx7eofotocxdgkfntnxt5xb0e8,37u1utwh9zz22p5fowh4atymgtl8ra,KE3djsqD,2020-0188,2020-11-18,15:13:13,15:32:15,NA,incomplete,234,number,1,left,Red_Plus_Chess_3.jpg,Purple_Star_Stripes_3.jpg,Blue_Circle_Chess_2.jpg,left,802.4150000000373,true,low,false
KE3djsqD,3icohx7eofotocxdgkfntnxt5xb0e8,37u1utwh9zz22p5fowh4atymgtl8ra,KE3djsqD,2020-0188,2020-11-18,15:13:13,15:32:15,NA,incomplete,235,number,1,left,Blue_Plus_Dots_1.jpg,Red_Triangle_Stripes_1.jpg,Green_Circle_Dots_3.jpg,left,942.4500000004191,true,low,false
KE3djsqD,3icohx7eofotocxdgkfntnxt5xb0e8,37u1utwh9zz22p5fowh4atymgtl8ra,KE3djsqD,2020-0188,2020-11-18,15:13:13,15:32:15,NA,incomplete,236,number,1,right,Blue_Star_Stripes_3.jpg,Green_Triangle_Stripes_1.jpg,Purple_Circle_Dots_3.jpg,right,709.6650000002701,true,low,false
KE3djsqD,3icohx7eofotocxdgkfntnxt5xb0e8,37u1utwh9zz22p5fowh4atymgtl8ra,KE3djsqD,2020-0188,2020-11-18,15:13:13,15:32:15,NA,incomplete,237,number,0,left,Green_Triangle_Stripes_4.jpg,Purple_Circle_Grid_4.jpg,Red_Plus_Stripes_3.jpg,left,1053.5149999996647,true,low,false
KE3djsqD,3icohx7eofotocxdgkfntnxt5xb0e8,37u1utwh9zz22p5fowh4atymgtl8ra,KE3djsqD,2020-0188,2020-11-18,15:13:13,15:32:15,NA,incomplete,238,number,1,right,Red_Triangle_Grid_3.jpg,Blue_Star_Grid_2.jpg,Purple_Circle_Dots_3.jpg,right,808.0900000005495,true,low,false
KE3djsqD,3icohx7eofotocxdgkfntnxt5xb0e8,37u1utwh9zz22p5fowh4atymgtl8ra,KE3djsqD,2020-0188,2020-11-18,15:13:13,15:32:15,NA,incomplete,239,number,1,right,Red_Plus_Stripes_3.jpg,Purple_Star_Stripes_2.jpg,Green_Circle_Dots_3.jpg,right,868.440000000177,true,low,false
KE3djsqD,3icohx7eofotocxdgkfntnxt5xb0e8,37u1utwh9zz22p5fowh4atymgtl8ra,KE3djsqD,2020-0188,2020-11-18,15:13:13,15:32:15,NA,NA,instruction example,color,NA,NA,Green_Triangle_Dots_3.jpg,Green_Circle_Stripes_1.jpg,Blue_Triangle_Grid_4.jpg,NA,NA,NA,NA,undefined
KE3djsqD,3icohx7eofotocxdgkfntnxt5xb0e8,37u1utwh9zz22p5fowh4atymgtl8ra,KE3djsqD,2020-0188,2020-11-18,15:13:13,15:32:15,NA,NA,instruction example,color,NA,NA,Red_Star_Chess_3.jpg,Purple_Star_Dots_4.jpg,Red_Triangle_Grid_1.jpg,NA,NA,NA,NA,undefined
KE3djsqD,3icohx7eofotocxdgkfntnxt5xb0e8,37u1utwh9zz22p5fowh4atymgtl8ra,KE3djsqD,2020-0188,2020-11-18,15:13:13,15:32:15,NA,NA,instruction example,color,NA,NA,Red_Circle_Chess_2.jpg,Purple_Plus_Chess_1.jpg,Blue_Triangle_Dots_2.jpg,NA,NA,NA,NA,undefined
KE3djsqD,3icohx7eofotocxdgkfntnxt5xb0e8,37u1utwh9zz22p5fowh4atymgtl8ra,KE3djsqD,2020-0188,2020-11-18,15:13:13,15:32:15,NA,NA,instruction example,color,NA,NA,Red_Triangle_Grid_3.jpg,Blue_Circle_Stripes_3.jpg,Green_Plus_Grid_2.jpg,NA,NA,NA,NA,undefined
KE3djsqD,3icohx7eofotocxdgkfntnxt5xb0e8,37u1utwh9zz22p5fowh4atymgtl8ra,KE3djsqD,2020-0188,2020-11-18,15:13:13,15:32:15,1100376.0499999998,1143543.02,NA,NA,NA,NA,NA,NA,NA,NA,NA,NA,NA,undefined
