workerId,hitId,assignmentId,subject,studyid,exp_date,exp_start,exp_end,time_start,time_end,trial,type,reward_validity,answer,image_top,image_left,image_right,response,response_time,response_acc,volatility,practice
8QcTsLE3,3peg1bh7bh4xuzsxamnfbz6ha40bkr,37u1utwh9zz22p5fowh4atylmt3r8f,8QcTsLE3,2020-0188,2020-06-15,21:24:28,21:39:15,NA,incomplete,0,color,0,right,Purple_Circle_Chess_1.jpg,Blue_Plus_Chess_4.jpg,Purple_Triangle_Dots_3.jpg,none,0,false,NA,true
8QcTsLE3,3peg1bh7bh4xuzsxamnfbz6ha40bkr,37u1utwh9zz22p5fowh4atylmt3r8f,8QcTsLE3,2020-0188,2020-06-15,21:24:28,21:39:15,NA,incomplete,1,color,1,right,Blue_Triangle_Dots_4.jpg,Green_Plus_Dots_3.jpg,Blue_Circle_Chess_2.jpg,right,972.5749999997788,true,NA,true
8QcTsLE3,3peg1bh7bh4xuzsxamnfbz6ha40bkr,37u1utwh9zz22p5fowh4atylmt3r8f,8QcTsLE3,2020-0188,2020-06-15,21:24:28,21:39:15,NA,incomplete,2,color,1,left,Red_Circle_Grid_1.jpg,Red_Triangle_Stripes_3.jpg,Purple_Plus_Grid_4.jpg,left,852.9550000021118,true,NA,true
8QcTsLE3,3peg1bh7bh4xuzsxamnfbz6ha40bkr,37u1utwh9zz22p5fowh4atylmt3r8f,8QcTsLE3,2020-0188,2020-06-15,21:24:28,21:39:15,NA,incomplete,3,color,1,right,Purple_Plus_Dots_3.jpg,Blue_Circle_Dots_2.jpg,Purple_Triangle_Grid_4.jpg,right,833.8850000000093,true,NA,true
8QcTsLE3,3peg1bh7bh4xuzsxamnfbz6ha40bkr,37u1utwh9zz22p5fowh4atylmt3r8f,8QcTsLE3,2020-0188,2020-06-15,21:24:28,21:39:15,NA,incomplete,4,color,1,left,Purple_Circle_Stripes_4.jpg,Purple_Plus_Dots_3.jpg,Red_Triangle_Stripes_2.jpg,left,825.9949999992386,true,NA,true
8QcTsLE3,3peg1bh7bh4xuzsxamnfbz6ha40bkr,37u1utwh9zz22p5fowh4atylmt3r8f,8QcTsLE3,2020-0188,2020-06-15,21:24:28,21:39:15,NA,incomplete,5,color,1,left,Purple_Triangle_Stripes_3.jpg,Purple_Star_Dots_2.jpg,Red_Circle_Stripes_1.jpg,left,712.4350000012782,true,NA,true
8QcTsLE3,3peg1bh7bh4xuzsxamnfbz6ha40bkr,37u1utwh9zz22p5fowh4atylmt3r8f,8QcTsLE3,2020-0188,2020-06-15,21:24:28,21:39:15,NA,incomplete,6,color,1,left,Red_Plus_Dots_1.jpg,Red_Circle_Chess_3.jpg,Blue_Star_Dots_2.jpg,left,928.0050000015763,true,NA,true
8QcTsLE3,3peg1bh7bh4xuzsxamnfbz6ha40bkr,37u1utwh9zz22p5fowh4atylmt3r8f,8QcTsLE3,2020-0188,2020-06-15,21:24:28,21:39:15,NA,incomplete,7,color,1,right,Blue_Circle_Dots_3.jpg,Purple_Plus_Dots_1.jpg,Blue_Triangle_Stripes_2.jpg,right,632.0850000010978,true,NA,true
8QcTsLE3,3peg1bh7bh4xuzsxamnfbz6ha40bkr,37u1utwh9zz22p5fowh4atylmt3r8f,8QcTsLE3,2020-0188,2020-06-15,21:24:28,21:39:15,NA,incomplete,8,color,1,right,Red_Triangle_Chess_3.jpg,Purple_Circle_Chess_1.jpg,Red_Plus_Dots_2.jpg,right,692.9649999983667,true,NA,true
8QcTsLE3,3peg1bh7bh4xuzsxamnfbz6ha40bkr,37u1utwh9zz22p5fowh4atylmt3r8f,8QcTsLE3,2020-0188,2020-06-15,21:24:28,21:39:15,NA,incomplete,9,color,0,right,Green_Circle_Dots_1.jpg,Blue_Triangle_Dots_3.jpg,Green_Star_Chess_2.jpg,right,705.0400000007357,true,NA,true
8QcTsLE3,3peg1bh7bh4xuzsxamnfbz6ha40bkr,37u1utwh9zz22p5fowh4atylmt3r8f,8QcTsLE3,2020-0188,2020-06-15,21:24:28,21:39:15,NA,incomplete,10,color,1,left,Red_Triangle_Grid_1.jpg,Red_Circle_Stripes_4.jpg,Green_Plus_Grid_2.jpg,left,937.4700000007579,true,NA,true
8QcTsLE3,3peg1bh7bh4xuzsxamnfbz6ha40bkr,37u1utwh9zz22p5fowh4atylmt3r8f,8QcTsLE3,2020-0188,2020-06-15,21:24:28,21:39:15,NA,incomplete,11,color,1,left,Blue_Star_Chess_2.jpg,Blue_Plus_Grid_4.jpg,Green_Triangle_Chess_1.jpg,left,771.2350000001607,true,NA,true
8QcTsLE3,3peg1bh7bh4xuzsxamnfbz6ha40bkr,37u1utwh9zz22p5fowh4atylmt3r8f,8QcTsLE3,2020-0188,2020-06-15,21:24:28,21:39:15,NA,incomplete,12,color,1,right,Purple_Plus_Grid_2.jpg,Red_Star_Grid_4.jpg,Purple_Circle_Stripes_3.jpg,right,787.1900000027381,true,NA,true
8QcTsLE3,3peg1bh7bh4xuzsxamnfbz6ha40bkr,37u1utwh9zz22p5fowh4atylmt3r8f,8QcTsLE3,2020-0188,2020-06-15,21:24:28,21:39:15,NA,incomplete,13,color,1,right,Green_Circle_Grid_2.jpg,Red_Star_Grid_1.jpg,Green_Triangle_Dots_4.jpg,right,679.4350000018312,true,NA,true
8QcTsLE3,3peg1bh7bh4xuzsxamnfbz6ha40bkr,37u1utwh9zz22p5fowh4atylmt3r8f,8QcTsLE3,2020-0188,2020-06-15,21:24:28,21:39:15,NA,incomplete,14,color,0,right,Purple_Star_Stripes_1.jpg,Red_Plus_Stripes_3.jpg,Purple_Circle_Chess_4.jpg,right,599.5700000021316,true,NA,true
8QcTsLE3,3peg1bh7bh4xuzsxamnfbz6ha40bkr,37u1utwh9zz22p5fowh4atylmt3r8f,8QcTsLE3,2020-0188,2020-06-15,21:24:28,21:39:15,NA,incomplete,15,color,1,right,Green_Plus_Grid_3.jpg,Red_Circle_Grid_2.jpg,Green_Star_Chess_4.jpg,right,650.3950000005716,true,NA,true
8QcTsLE3,3peg1bh7bh4xuzsxamnfbz6ha40bkr,37u1utwh9zz22p5fowh4atylmt3r8f,8QcTsLE3,2020-0188,2020-06-15,21:24:28,21:39:15,NA,incomplete,16,color,1,left,Red_Star_Grid_1.jpg,Red_Circle_Chess_2.jpg,Green_Triangle_Grid_3.jpg,left,674.6149999999034,true,NA,true
8QcTsLE3,3peg1bh7bh4xuzsxamnfbz6ha40bkr,37u1utwh9zz22p5fowh4atylmt3r8f,8QcTsLE3,2020-0188,2020-06-15,21:24:28,21:39:15,NA,incomplete,17,color,1,left,Blue_Star_Chess_3.jpg,Blue_Plus_Grid_1.jpg,Green_Circle_Chess_2.jpg,left,728.3499999975902,true,NA,true
8QcTsLE3,3peg1bh7bh4xuzsxamnfbz6ha40bkr,37u1utwh9zz22p5fowh4atylmt3r8f,8QcTsLE3,2020-0188,2020-06-15,21:24:28,21:39:15,NA,incomplete,18,color,1,right,Red_Circle_Grid_4.jpg,Green_Star_Grid_2.jpg,Red_Triangle_Dots_3.jpg,right,661.7349999978615,true,NA,true
8QcTsLE3,3peg1bh7bh4xuzsxamnfbz6ha40bkr,37u1utwh9zz22p5fowh4atylmt3r8f,8QcTsLE3,2020-0188,2020-06-15,21:24:28,21:39:15,NA,incomplete,19,color,0,right,Green_Triangle_Dots_4.jpg,Blue_Circle_Dots_2.jpg,Green_Star_Stripes_3.jpg,right,591.3499999987835,true,NA,true
8QcTsLE3,3peg1bh7bh4xuzsxamnfbz6ha40bkr,37u1utwh9zz22p5fowh4atylmt3r8f,8QcTsLE3,2020-0188,2020-06-15,21:24:28,21:39:15,NA,incomplete,20,filling,0,left,Green_Triangle_Stripes_2.jpg,Blue_Circle_Stripes_1.jpg,Green_Plus_Grid_4.jpg,right,810.4700000003504,false,NA,true
8QcTsLE3,3peg1bh7bh4xuzsxamnfbz6ha40bkr,37u1utwh9zz22p5fowh4atylmt3r8f,8QcTsLE3,2020-0188,2020-06-15,21:24:28,21:39:15,NA,incomplete,21,filling,1,left,Green_Circle_Chess_1.jpg,Blue_Triangle_Chess_3.jpg,Green_Star_Stripes_4.jpg,left,1095.6150000019989,true,NA,true
8QcTsLE3,3peg1bh7bh4xuzsxamnfbz6ha40bkr,37u1utwh9zz22p5fowh4atylmt3r8f,8QcTsLE3,2020-0188,2020-06-15,21:24:28,21:39:15,NA,incomplete,22,filling,1,left,Purple_Triangle_Dots_4.jpg,Blue_Star_Dots_3.jpg,Purple_Plus_Chess_1.jpg,right,1249.6700000010605,false,NA,true
8QcTsLE3,3peg1bh7bh4xuzsxamnfbz6ha40bkr,37u1utwh9zz22p5fowh4atylmt3r8f,8QcTsLE3,2020-0188,2020-06-15,21:24:28,21:39:15,NA,incomplete,23,filling,1,left,Blue_Star_Grid_1.jpg,Red_Triangle_Grid_4.jpg,Blue_Plus_Chess_2.jpg,right,1014.2550000018673,false,NA,true
8QcTsLE3,3peg1bh7bh4xuzsxamnfbz6ha40bkr,37u1utwh9zz22p5fowh4atylmt3r8f,8QcTsLE3,2020-0188,2020-06-15,21:24:28,21:39:15,NA,incomplete,24,filling,1,left,Purple_Circle_Dots_3.jpg,Blue_Star_Dots_1.jpg,Purple_Triangle_Stripes_2.jpg,left,1001.3699999981327,true,NA,true
8QcTsLE3,3peg1bh7bh4xuzsxamnfbz6ha40bkr,37u1utwh9zz22p5fowh4atylmt3r8f,8QcTsLE3,2020-0188,2020-06-15,21:24:28,21:39:15,NA,incomplete,25,filling,1,left,Purple_Triangle_Grid_1.jpg,Red_Plus_Grid_2.jpg,Purple_Star_Stripes_4.jpg,left,1183.099999998376,true,NA,true
8QcTsLE3,3peg1bh7bh4xuzsxamnfbz6ha40bkr,37u1utwh9zz22p5fowh4atylmt3r8f,8QcTsLE3,2020-0188,2020-06-15,21:24:28,21:39:15,NA,incomplete,26,filling,1,right,Green_Plus_Grid_4.jpg,Green_Triangle_Dots_2.jpg,Red_Circle_Grid_3.jpg,right,866.8349999970815,true,NA,true
8QcTsLE3,3peg1bh7bh4xuzsxamnfbz6ha40bkr,37u1utwh9zz22p5fowh4atylmt3r8f,8QcTsLE3,2020-0188,2020-06-15,21:24:28,21:39:15,NA,incomplete,27,filling,1,right,Purple_Circle_Grid_2.jpg,Purple_Star_Stripes_4.jpg,Blue_Triangle_Grid_3.jpg,right,1557.0850000003702,true,NA,true
8QcTsLE3,3peg1bh7bh4xuzsxamnfbz6ha40bkr,37u1utwh9zz22p5fowh4atylmt3r8f,8QcTsLE3,2020-0188,2020-06-15,21:24:28,21:39:15,NA,incomplete,28,filling,1,right,Blue_Circle_Grid_1.jpg,Blue_Triangle_Dots_2.jpg,Red_Star_Grid_4.jpg,right,1153.760000001057,true,NA,true
8QcTsLE3,3peg1bh7bh4xuzsxamnfbz6ha40bkr,37u1utwh9zz22p5fowh4atylmt3r8f,8QcTsLE3,2020-0188,2020-06-15,21:24:28,21:39:15,NA,incomplete,29,filling,1,right,Red_Circle_Grid_2.jpg,Red_Plus_Stripes_1.jpg,Green_Triangle_Grid_4.jpg,right,948.8550000023679,true,NA,true
8QcTsLE3,3peg1bh7bh4xuzsxamnfbz6ha40bkr,37u1utwh9zz22p5fowh4atylmt3r8f,8QcTsLE3,2020-0188,2020-06-15,21:24:28,21:39:15,NA,incomplete,30,filling,1,right,Blue_Star_Dots_2.jpg,Blue_Plus_Grid_4.jpg,Green_Triangle_Dots_1.jpg,right,1354.574999997567,true,NA,true
8QcTsLE3,3peg1bh7bh4xuzsxamnfbz6ha40bkr,37u1utwh9zz22p5fowh4atylmt3r8f,8QcTsLE3,2020-0188,2020-06-15,21:24:28,21:39:15,NA,incomplete,31,filling,0,right,Green_Star_Chess_3.jpg,Green_Plus_Grid_1.jpg,Purple_Triangle_Chess_4.jpg,right,1213.2700000001932,true,NA,true
8QcTsLE3,3peg1bh7bh4xuzsxamnfbz6ha40bkr,37u1utwh9zz22p5fowh4atylmt3r8f,8QcTsLE3,2020-0188,2020-06-15,21:24:28,21:39:15,NA,incomplete,32,filling,0,right,Green_Circle_Dots_1.jpg,Green_Star_Chess_3.jpg,Red_Plus_Dots_4.jpg,right,1386.38500000161,true,NA,true
8QcTsLE3,3peg1bh7bh4xuzsxamnfbz6ha40bkr,37u1utwh9zz22p5fowh4atylmt3r8f,8QcTsLE3,2020-0188,2020-06-15,21:24:28,21:39:15,NA,incomplete,33,filling,1,left,Blue_Star_Dots_4.jpg,Red_Triangle_Dots_2.jpg,Blue_Circle_Stripes_1.jpg,left,1172.8499999990163,true,NA,true
8QcTsLE3,3peg1bh7bh4xuzsxamnfbz6ha40bkr,37u1utwh9zz22p5fowh4atylmt3r8f,8QcTsLE3,2020-0188,2020-06-15,21:24:28,21:39:15,NA,incomplete,34,filling,1,left,Purple_Star_Grid_4.jpg,Green_Triangle_Grid_3.jpg,Purple_Circle_Dots_2.jpg,left,1166.3950000001932,true,NA,true
8QcTsLE3,3peg1bh7bh4xuzsxamnfbz6ha40bkr,37u1utwh9zz22p5fowh4atylmt3r8f,8QcTsLE3,2020-0188,2020-06-15,21:24:28,21:39:15,NA,incomplete,35,filling,1,right,Purple_Triangle_Grid_2.jpg,Purple_Star_Dots_4.jpg,Green_Plus_Grid_1.jpg,right,984.4599999996717,true,NA,true
8QcTsLE3,3peg1bh7bh4xuzsxamnfbz6ha40bkr,37u1utwh9zz22p5fowh4atylmt3r8f,8QcTsLE3,2020-0188,2020-06-15,21:24:28,21:39:15,NA,incomplete,36,filling,0,left,Blue_Star_Stripes_3.jpg,Purple_Plus_Stripes_2.jpg,Blue_Triangle_Dots_4.jpg,left,801.3099999989208,true,NA,true
8QcTsLE3,3peg1bh7bh4xuzsxamnfbz6ha40bkr,37u1utwh9zz22p5fowh4atylmt3r8f,8QcTsLE3,2020-0188,2020-06-15,21:24:28,21:39:15,NA,incomplete,37,filling,1,left,Blue_Plus_Stripes_3.jpg,Red_Circle_Stripes_4.jpg,Blue_Star_Dots_2.jpg,left,931.4750000012282,true,NA,true
8QcTsLE3,3peg1bh7bh4xuzsxamnfbz6ha40bkr,37u1utwh9zz22p5fowh4atylmt3r8f,8QcTsLE3,2020-0188,2020-06-15,21:24:28,21:39:15,NA,incomplete,38,filling,1,right,Purple_Circle_Stripes_2.jpg,Purple_Plus_Grid_4.jpg,Red_Triangle_Stripes_1.jpg,right,866.0600000002887,true,NA,true
8QcTsLE3,3peg1bh7bh4xuzsxamnfbz6ha40bkr,37u1utwh9zz22p5fowh4atylmt3r8f,8QcTsLE3,2020-0188,2020-06-15,21:24:28,21:39:15,NA,incomplete,39,filling,1,right,Blue_Triangle_Dots_4.jpg,Blue_Plus_Stripes_1.jpg,Purple_Circle_Dots_3.jpg,right,1134.9499999996624,true,NA,true
8QcTsLE3,3peg1bh7bh4xuzsxamnfbz6ha40bkr,37u1utwh9zz22p5fowh4atylmt3r8f,8QcTsLE3,2020-0188,2020-06-15,21:24:28,21:39:15,NA,incomplete,0,color,1,right,Blue_Triangle_Chess_4.jpg,Red_Star_Chess_3.jpg,Blue_Circle_Grid_2.jpg,right,1105.1899999984016,true,high,false
8QcTsLE3,3peg1bh7bh4xuzsxamnfbz6ha40bkr,37u1utwh9zz22p5fowh4atylmt3r8f,8QcTsLE3,2020-0188,2020-06-15,21:24:28,21:39:15,NA,incomplete,1,color,0,left,Blue_Plus_Chess_1.jpg,Blue_Star_Grid_2.jpg,Green_Circle_Chess_4.jpg,right,1413.8349999993807,false,high,false
8QcTsLE3,3peg1bh7bh4xuzsxamnfbz6ha40bkr,37u1utwh9zz22p5fowh4atylmt3r8f,8QcTsLE3,2020-0188,2020-06-15,21:24:28,21:39:15,NA,incomplete,2,color,1,left,Red_Triangle_Dots_4.jpg,Red_Star_Grid_3.jpg,Purple_Plus_Dots_2.jpg,right,1018.615000000922,false,high,false
8QcTsLE3,3peg1bh7bh4xuzsxamnfbz6ha40bkr,37u1utwh9zz22p5fowh4atylmt3r8f,8QcTsLE3,2020-0188,2020-06-15,21:24:28,21:39:15,NA,incomplete,3,color,1,right,Green_Star_Chess_1.jpg,Red_Circle_Chess_2.jpg,Green_Triangle_Stripes_3.jpg,left,985.0350000014878,false,high,false
8QcTsLE3,3peg1bh7bh4xuzsxamnfbz6ha40bkr,37u1utwh9zz22p5fowh4atylmt3r8f,8QcTsLE3,2020-0188,2020-06-15,21:24:28,21:39:15,NA,incomplete,4,color,0,left,Green_Triangle_Chess_2.jpg,Green_Plus_Dots_1.jpg,Red_Circle_Chess_3.jpg,right,740.4549999992014,false,high,false
8QcTsLE3,3peg1bh7bh4xuzsxamnfbz6ha40bkr,37u1utwh9zz22p5fowh4atylmt3r8f,8QcTsLE3,2020-0188,2020-06-15,21:24:28,21:39:15,NA,incomplete,5,color,0,right,Red_Triangle_Grid_2.jpg,Blue_Plus_Grid_1.jpg,Red_Circle_Stripes_3.jpg,left,1038.7449999980163,false,high,false
8QcTsLE3,3peg1bh7bh4xuzsxamnfbz6ha40bkr,37u1utwh9zz22p5fowh4atylmt3r8f,8QcTsLE3,2020-0188,2020-06-15,21:24:28,21:39:15,NA,incomplete,6,color,0,left,Blue_Triangle_Dots_3.jpg,Blue_Star_Chess_1.jpg,Green_Circle_Dots_4.jpg,right,1291.769999999844,false,high,false
8QcTsLE3,3peg1bh7bh4xuzsxamnfbz6ha40bkr,37u1utwh9zz22p5fowh4atylmt3r8f,8QcTsLE3,2020-0188,2020-06-15,21:24:28,21:39:15,NA,incomplete,7,color,1,left,Purple_Circle_Chess_2.jpg,Purple_Plus_Stripes_4.jpg,Red_Star_Chess_3.jpg,right,1013.4499999985565,false,high,false
8QcTsLE3,3peg1bh7bh4xuzsxamnfbz6ha40bkr,37u1utwh9zz22p5fowh4atylmt3r8f,8QcTsLE3,2020-0188,2020-06-15,21:24:28,21:39:15,NA,incomplete,8,color,1,left,Blue_Star_Stripes_4.jpg,Blue_Triangle_Dots_3.jpg,Red_Circle_Stripes_2.jpg,left,1078.1700000006822,true,high,false
8QcTsLE3,3peg1bh7bh4xuzsxamnfbz6ha40bkr,37u1utwh9zz22p5fowh4atylmt3r8f,8QcTsLE3,2020-0188,2020-06-15,21:24:28,21:39:15,NA,incomplete,9,color,1,right,Purple_Star_Dots_4.jpg,Red_Circle_Dots_1.jpg,Purple_Plus_Stripes_2.jpg,right,805.3650000002235,true,high,false
8QcTsLE3,3peg1bh7bh4xuzsxamnfbz6ha40bkr,37u1utwh9zz22p5fowh4atylmt3r8f,8QcTsLE3,2020-0188,2020-06-15,21:24:28,21:39:15,NA,incomplete,10,filling,1,right,Purple_Triangle_Grid_2.jpg,Purple_Star_Chess_1.jpg,Red_Circle_Grid_4.jpg,left,702.0599999995902,false,high,false
8QcTsLE3,3peg1bh7bh4xuzsxamnfbz6ha40bkr,37u1utwh9zz22p5fowh4atylmt3r8f,8QcTsLE3,2020-0188,2020-06-15,21:24:28,21:39:15,NA,incomplete,11,filling,1,right,Red_Circle_Grid_4.jpg,Red_Plus_Dots_1.jpg,Blue_Star_Grid_3.jpg,left,928.3049999976647,false,high,false
8QcTsLE3,3peg1bh7bh4xuzsxamnfbz6ha40bkr,37u1utwh9zz22p5fowh4atylmt3r8f,8QcTsLE3,2020-0188,2020-06-15,21:24:28,21:39:15,NA,incomplete,12,filling,1,right,Red_Triangle_Stripes_2.jpg,Red_Circle_Dots_1.jpg,Purple_Plus_Stripes_3.jpg,right,879.0700000026845,true,high,false
8QcTsLE3,3peg1bh7bh4xuzsxamnfbz6ha40bkr,37u1utwh9zz22p5fowh4atylmt3r8f,8QcTsLE3,2020-0188,2020-06-15,21:24:28,21:39:15,NA,incomplete,13,filling,1,right,Purple_Star_Grid_3.jpg,Purple_Plus_Stripes_2.jpg,Red_Triangle_Grid_4.jpg,right,1044.7100000019418,true,high,false
8QcTsLE3,3peg1bh7bh4xuzsxamnfbz6ha40bkr,37u1utwh9zz22p5fowh4atylmt3r8f,8QcTsLE3,2020-0188,2020-06-15,21:24:28,21:39:15,NA,incomplete,14,filling,1,right,Red_Plus_Dots_3.jpg,Red_Triangle_Grid_1.jpg,Green_Circle_Dots_4.jpg,left,803.9600000010687,false,high,false
8QcTsLE3,3peg1bh7bh4xuzsxamnfbz6ha40bkr,37u1utwh9zz22p5fowh4atylmt3r8f,8QcTsLE3,2020-0188,2020-06-15,21:24:28,21:39:15,NA,incomplete,15,filling,1,left,Green_Circle_Grid_3.jpg,Red_Star_Grid_2.jpg,Green_Plus_Dots_4.jpg,left,1091.7399999998743,true,high,false
8QcTsLE3,3peg1bh7bh4xuzsxamnfbz6ha40bkr,37u1utwh9zz22p5fowh4atylmt3r8f,8QcTsLE3,2020-0188,2020-06-15,21:24:28,21:39:15,NA,incomplete,16,filling,1,right,Purple_Triangle_Dots_2.jpg,Purple_Circle_Grid_4.jpg,Blue_Plus_Dots_1.jpg,right,1300.5050000028568,true,high,false
8QcTsLE3,3peg1bh7bh4xuzsxamnfbz6ha40bkr,37u1utwh9zz22p5fowh4atylmt3r8f,8QcTsLE3,2020-0188,2020-06-15,21:24:28,21:39:15,NA,incomplete,17,filling,1,right,Purple_Triangle_Dots_1.jpg,Purple_Circle_Chess_2.jpg,Red_Plus_Dots_4.jpg,right,1014.1249999979045,true,high,false
8QcTsLE3,3peg1bh7bh4xuzsxamnfbz6ha40bkr,37u1utwh9zz22p5fowh4atylmt3r8f,8QcTsLE3,2020-0188,2020-06-15,21:24:28,21:39:15,NA,incomplete,18,filling,1,right,Blue_Triangle_Dots_1.jpg,Blue_Plus_Grid_4.jpg,Green_Star_Dots_3.jpg,right,1045.460000001127,true,high,false
8QcTsLE3,3peg1bh7bh4xuzsxamnfbz6ha40bkr,37u1utwh9zz22p5fowh4atylmt3r8f,8QcTsLE3,2020-0188,2020-06-15,21:24:28,21:39:15,NA,incomplete,19,filling,1,left,Blue_Plus_Grid_3.jpg,Red_Triangle_Grid_4.jpg,Blue_Star_Dots_1.jpg,left,831.2049999986193,true,high,false
8QcTsLE3,3peg1bh7bh4xuzsxamnfbz6ha40bkr,37u1utwh9zz22p5fowh4atylmt3r8f,8QcTsLE3,2020-0188,2020-06-15,21:24:28,21:39:15,NA,incomplete,20,color,1,right,Blue_Star_Dots_3.jpg,Red_Circle_Dots_2.jpg,Blue_Plus_Chess_4.jpg,left,1051.3300000020536,false,high,false
8QcTsLE3,3peg1bh7bh4xuzsxamnfbz6ha40bkr,37u1utwh9zz22p5fowh4atylmt3r8f,8QcTsLE3,2020-0188,2020-06-15,21:24:28,21:39:15,NA,incomplete,21,color,1,left,Red_Triangle_Grid_4.jpg,Red_Circle_Chess_1.jpg,Blue_Plus_Grid_3.jpg,right,934.6549999972922,false,high,false
8QcTsLE3,3peg1bh7bh4xuzsxamnfbz6ha40bkr,37u1utwh9zz22p5fowh4atylmt3r8f,8QcTsLE3,2020-0188,2020-06-15,21:24:28,21:39:15,NA,incomplete,22,color,1,left,Red_Plus_Chess_2.jpg,Red_Star_Grid_4.jpg,Green_Triangle_Chess_3.jpg,left,764.5000000011642,true,high,false
8QcTsLE3,3peg1bh7bh4xuzsxamnfbz6ha40bkr,37u1utwh9zz22p5fowh4atylmt3r8f,8QcTsLE3,2020-0188,2020-06-15,21:24:28,21:39:15,NA,incomplete,23,color,1,left,Green_Triangle_Dots_4.jpg,Green_Star_Chess_1.jpg,Purple_Plus_Dots_2.jpg,left,526.8099999994156,true,high,false
8QcTsLE3,3peg1bh7bh4xuzsxamnfbz6ha40bkr,37u1utwh9zz22p5fowh4atylmt3r8f,8QcTsLE3,2020-0188,2020-06-15,21:24:28,21:39:15,NA,incomplete,24,color,1,right,Red_Triangle_Grid_3.jpg,Blue_Star_Grid_2.jpg,Red_Plus_Chess_1.jpg,right,775.3650000013295,true,high,false
8QcTsLE3,3peg1bh7bh4xuzsxamnfbz6ha40bkr,37u1utwh9zz22p5fowh4atylmt3r8f,8QcTsLE3,2020-0188,2020-06-15,21:24:28,21:39:15,NA,incomplete,25,color,1,left,Green_Circle_Dots_3.jpg,Green_Triangle_Chess_1.jpg,Red_Star_Dots_2.jpg,left,807.8850000019884,true,high,false
8QcTsLE3,3peg1bh7bh4xuzsxamnfbz6ha40bkr,37u1utwh9zz22p5fowh4atylmt3r8f,8QcTsLE3,2020-0188,2020-06-15,21:24:28,21:39:15,NA,incomplete,26,color,1,left,Purple_Circle_Dots_4.jpg,Purple_Star_Chess_3.jpg,Blue_Triangle_Dots_2.jpg,left,862.6299999996554,true,high,false
8QcTsLE3,3peg1bh7bh4xuzsxamnfbz6ha40bkr,37u1utwh9zz22p5fowh4atylmt3r8f,8QcTsLE3,2020-0188,2020-06-15,21:24:28,21:39:15,NA,incomplete,27,color,1,right,Green_Circle_Dots_3.jpg,Red_Plus_Dots_2.jpg,Green_Star_Chess_1.jpg,right,739.2499999987194,true,high,false
8QcTsLE3,3peg1bh7bh4xuzsxamnfbz6ha40bkr,37u1utwh9zz22p5fowh4atylmt3r8f,8QcTsLE3,2020-0188,2020-06-15,21:24:28,21:39:15,NA,incomplete,28,color,1,left,Purple_Star_Dots_3.jpg,Purple_Circle_Stripes_4.jpg,Green_Plus_Dots_1.jpg,left,1099.7150000003166,true,high,false
8QcTsLE3,3peg1bh7bh4xuzsxamnfbz6ha40bkr,37u1utwh9zz22p5fowh4atylmt3r8f,8QcTsLE3,2020-0188,2020-06-15,21:24:28,21:39:15,NA,incomplete,29,color,1,left,Green_Circle_Chess_3.jpg,Green_Triangle_Grid_4.jpg,Purple_Plus_Chess_2.jpg,left,643.8249999992549,true,high,false
8QcTsLE3,3peg1bh7bh4xuzsxamnfbz6ha40bkr,37u1utwh9zz22p5fowh4atylmt3r8f,8QcTsLE3,2020-0188,2020-06-15,21:24:28,21:39:15,NA,incomplete,30,filling,1,left,Purple_Circle_Chess_1.jpg,Red_Triangle_Chess_2.jpg,Purple_Plus_Dots_3.jpg,right,606.1499999996158,false,high,false
8QcTsLE3,3peg1bh7bh4xuzsxamnfbz6ha40bkr,37u1utwh9zz22p5fowh4atylmt3r8f,8QcTsLE3,2020-0188,2020-06-15,21:24:28,21:39:15,NA,incomplete,31,filling,1,right,Purple_Circle_Dots_1.jpg,Purple_Star_Grid_4.jpg,Red_Plus_Dots_3.jpg,left,699.0850000001956,false,high,false
8QcTsLE3,3peg1bh7bh4xuzsxamnfbz6ha40bkr,37u1utwh9zz22p5fowh4atylmt3r8f,8QcTsLE3,2020-0188,2020-06-15,21:24:28,21:39:15,NA,incomplete,32,filling,1,left,Green_Star_Chess_4.jpg,Blue_Plus_Chess_1.jpg,Green_Triangle_Stripes_2.jpg,left,1019.87999999983,true,high,false
8QcTsLE3,3peg1bh7bh4xuzsxamnfbz6ha40bkr,37u1utwh9zz22p5fowh4atylmt3r8f,8QcTsLE3,2020-0188,2020-06-15,21:24:28,21:39:15,NA,incomplete,33,filling,1,left,Blue_Triangle_Grid_1.jpg,Purple_Star_Grid_3.jpg,Blue_Circle_Dots_4.jpg,left,1186.7000000019907,true,high,false
8QcTsLE3,3peg1bh7bh4xuzsxamnfbz6ha40bkr,37u1utwh9zz22p5fowh4atylmt3r8f,8QcTsLE3,2020-0188,2020-06-15,21:24:28,21:39:15,NA,incomplete,34,filling,1,left,Red_Triangle_Grid_2.jpg,Purple_Circle_Grid_1.jpg,Red_Plus_Chess_4.jpg,left,921.9250000023749,true,high,false
8QcTsLE3,3peg1bh7bh4xuzsxamnfbz6ha40bkr,37u1utwh9zz22p5fowh4atylmt3r8f,8QcTsLE3,2020-0188,2020-06-15,21:24:28,21:39:15,NA,incomplete,35,filling,1,right,Purple_Triangle_Stripes_3.jpg,Purple_Circle_Grid_2.jpg,Green_Plus_Stripes_4.jpg,left,809.6749999967869,false,high,false
8QcTsLE3,3peg1bh7bh4xuzsxamnfbz6ha40bkr,37u1utwh9zz22p5fowh4atylmt3r8f,8QcTsLE3,2020-0188,2020-06-15,21:24:28,21:39:15,NA,incomplete,36,filling,1,left,Blue_Circle_Dots_2.jpg,Green_Star_Dots_1.jpg,Blue_Plus_Grid_3.jpg,left,1008.7249999996857,true,high,false
8QcTsLE3,3peg1bh7bh4xuzsxamnfbz6ha40bkr,37u1utwh9zz22p5fowh4atylmt3r8f,8QcTsLE3,2020-0188,2020-06-15,21:24:28,21:39:15,NA,incomplete,37,filling,1,right,Red_Star_Chess_3.jpg,Red_Plus_Grid_4.jpg,Purple_Circle_Chess_1.jpg,right,1109.679999997723,true,high,false
8QcTsLE3,3peg1bh7bh4xuzsxamnfbz6ha40bkr,37u1utwh9zz22p5fowh4atylmt3r8f,8QcTsLE3,2020-0188,2020-06-15,21:24:28,21:39:15,NA,incomplete,38,filling,1,right,Purple_Star_Dots_2.jpg,Purple_Triangle_Chess_4.jpg,Green_Plus_Dots_1.jpg,right,1198.1100000011502,true,high,false
8QcTsLE3,3peg1bh7bh4xuzsxamnfbz6ha40bkr,37u1utwh9zz22p5fowh4atylmt3r8f,8QcTsLE3,2020-0188,2020-06-15,21:24:28,21:39:15,NA,incomplete,39,filling,0,left,Red_Star_Chess_4.jpg,Blue_Circle_Chess_2.jpg,Red_Triangle_Grid_3.jpg,left,933.3100000003469,true,high,false
8QcTsLE3,3peg1bh7bh4xuzsxamnfbz6ha40bkr,37u1utwh9zz22p5fowh4atylmt3r8f,8QcTsLE3,2020-0188,2020-06-15,21:24:28,21:39:15,NA,incomplete,40,color,1,right,Purple_Star_Dots_1.jpg,Green_Circle_Dots_3.jpg,Purple_Triangle_Chess_4.jpg,right,533.8200000005891,true,high,false
8QcTsLE3,3peg1bh7bh4xuzsxamnfbz6ha40bkr,37u1utwh9zz22p5fowh4atylmt3r8f,8QcTsLE3,2020-0188,2020-06-15,21:24:28,21:39:15,NA,incomplete,41,color,1,right,Red_Star_Grid_2.jpg,Purple_Plus_Grid_1.jpg,Red_Triangle_Dots_3.jpg,left,1076.404999999795,false,high,false
8QcTsLE3,3peg1bh7bh4xuzsxamnfbz6ha40bkr,37u1utwh9zz22p5fowh4atylmt3r8f,8QcTsLE3,2020-0188,2020-06-15,21:24:28,21:39:15,NA,incomplete,42,color,0,left,Red_Star_Stripes_3.jpg,Red_Triangle_Chess_1.jpg,Blue_Plus_Stripes_2.jpg,left,788.5099999984959,true,high,false
8QcTsLE3,3peg1bh7bh4xuzsxamnfbz6ha40bkr,37u1utwh9zz22p5fowh4atylmt3r8f,8QcTsLE3,2020-0188,2020-06-15,21:24:28,21:39:15,NA,incomplete,43,color,1,right,Green_Plus_Dots_2.jpg,Blue_Star_Dots_1.jpg,Green_Triangle_Chess_4.jpg,left,826.390000001993,false,high,false
8QcTsLE3,3peg1bh7bh4xuzsxamnfbz6ha40bkr,37u1utwh9zz22p5fowh4atylmt3r8f,8QcTsLE3,2020-0188,2020-06-15,21:24:28,21:39:15,NA,incomplete,44,color,1,right,Blue_Plus_Stripes_3.jpg,Red_Triangle_Stripes_2.jpg,Blue_Star_Dots_4.jpg,left,810.8149999971502,false,high,false
8QcTsLE3,3peg1bh7bh4xuzsxamnfbz6ha40bkr,37u1utwh9zz22p5fowh4atylmt3r8f,8QcTsLE3,2020-0188,2020-06-15,21:24:28,21:39:15,NA,incomplete,45,color,0,right,Red_Star_Dots_2.jpg,Blue_Plus_Dots_4.jpg,Red_Triangle_Chess_3.jpg,right,434.4249999994645,true,high,false
8QcTsLE3,3peg1bh7bh4xuzsxamnfbz6ha40bkr,37u1utwh9zz22p5fowh4atylmt3r8f,8QcTsLE3,2020-0188,2020-06-15,21:24:28,21:39:15,NA,incomplete,46,color,0,left,Green_Star_Chess_4.jpg,Green_Circle_Stripes_2.jpg,Purple_Triangle_Chess_1.jpg,left,855.3549999996903,true,high,false
8QcTsLE3,3peg1bh7bh4xuzsxamnfbz6ha40bkr,37u1utwh9zz22p5fowh4atylmt3r8f,8QcTsLE3,2020-0188,2020-06-15,21:24:28,21:39:15,NA,incomplete,47,color,1,right,Red_Triangle_Grid_2.jpg,Blue_Circle_Grid_3.jpg,Red_Star_Dots_4.jpg,left,745.4599999982165,false,high,false
8QcTsLE3,3peg1bh7bh4xuzsxamnfbz6ha40bkr,37u1utwh9zz22p5fowh4atylmt3r8f,8QcTsLE3,2020-0188,2020-06-15,21:24:28,21:39:15,NA,incomplete,48,color,1,left,Purple_Triangle_Chess_2.jpg,Purple_Plus_Dots_4.jpg,Red_Star_Chess_3.jpg,right,901.2350000012084,false,high,false
8QcTsLE3,3peg1bh7bh4xuzsxamnfbz6ha40bkr,37u1utwh9zz22p5fowh4atylmt3r8f,8QcTsLE3,2020-0188,2020-06-15,21:24:28,21:39:15,NA,incomplete,49,color,0,left,Blue_Plus_Dots_3.jpg,Blue_Star_Chess_4.jpg,Purple_Circle_Dots_2.jpg,left,580.2100000000792,true,high,false
8QcTsLE3,3peg1bh7bh4xuzsxamnfbz6ha40bkr,37u1utwh9zz22p5fowh4atylmt3r8f,8QcTsLE3,2020-0188,2020-06-15,21:24:28,21:39:15,NA,incomplete,50,filling,1,right,Red_Triangle_Chess_4.jpg,Red_Circle_Dots_3.jpg,Green_Plus_Chess_1.jpg,right,734.7000000008848,true,high,false
8QcTsLE3,3peg1bh7bh4xuzsxamnfbz6ha40bkr,37u1utwh9zz22p5fowh4atylmt3r8f,8QcTsLE3,2020-0188,2020-06-15,21:24:28,21:39:15,NA,incomplete,51,filling,0,right,Purple_Triangle_Dots_4.jpg,Purple_Star_Chess_1.jpg,Blue_Plus_Dots_2.jpg,left,750.7599999990198,false,high,false
8QcTsLE3,3peg1bh7bh4xuzsxamnfbz6ha40bkr,37u1utwh9zz22p5fowh4atylmt3r8f,8QcTsLE3,2020-0188,2020-06-15,21:24:28,21:39:15,NA,incomplete,52,filling,1,left,Red_Triangle_Chess_1.jpg,Purple_Star_Chess_4.jpg,Red_Plus_Grid_2.jpg,right,561.7549999987823,false,high,false
8QcTsLE3,3peg1bh7bh4xuzsxamnfbz6ha40bkr,37u1utwh9zz22p5fowh4atylmt3r8f,8QcTsLE3,2020-0188,2020-06-15,21:24:28,21:39:15,NA,incomplete,53,filling,1,right,Red_Circle_Chess_4.jpg,Red_Plus_Dots_1.jpg,Green_Triangle_Chess_2.jpg,right,771.4249999989988,true,high,false
8QcTsLE3,3peg1bh7bh4xuzsxamnfbz6ha40bkr,37u1utwh9zz22p5fowh4atylmt3r8f,8QcTsLE3,2020-0188,2020-06-15,21:24:28,21:39:15,NA,incomplete,54,filling,1,right,Blue_Triangle_Dots_4.jpg,Blue_Circle_Chess_3.jpg,Purple_Plus_Dots_1.jpg,left,655.0749999987311,false,high,false
8QcTsLE3,3peg1bh7bh4xuzsxamnfbz6ha40bkr,37u1utwh9zz22p5fowh4atylmt3r8f,8QcTsLE3,2020-0188,2020-06-15,21:24:28,21:39:15,NA,incomplete,55,filling,1,left,Purple_Circle_Stripes_2.jpg,Blue_Star_Stripes_4.jpg,Purple_Triangle_Dots_1.jpg,left,896.440000000468,true,high,false
8QcTsLE3,3peg1bh7bh4xuzsxamnfbz6ha40bkr,37u1utwh9zz22p5fowh4atylmt3r8f,8QcTsLE3,2020-0188,2020-06-15,21:24:28,21:39:15,NA,incomplete,56,filling,1,right,Red_Circle_Grid_3.jpg,Red_Triangle_Dots_4.jpg,Purple_Plus_Grid_1.jpg,right,1236.9300000027288,true,high,false
8QcTsLE3,3peg1bh7bh4xuzsxamnfbz6ha40bkr,37u1utwh9zz22p5fowh4atylmt3r8f,8QcTsLE3,2020-0188,2020-06-15,21:24:28,21:39:15,NA,incomplete,57,filling,1,left,Blue_Star_Stripes_1.jpg,Green_Circle_Stripes_3.jpg,Blue_Plus_Grid_2.jpg,left,892.8049999994691,true,high,false
8QcTsLE3,3peg1bh7bh4xuzsxamnfbz6ha40bkr,37u1utwh9zz22p5fowh4atylmt3r8f,8QcTsLE3,2020-0188,2020-06-15,21:24:28,21:39:15,NA,incomplete,58,filling,1,right,Red_Triangle_Chess_3.jpg,Red_Circle_Grid_4.jpg,Purple_Plus_Chess_2.jpg,right,972.4900000001071,true,high,false
8QcTsLE3,3peg1bh7bh4xuzsxamnfbz6ha40bkr,37u1utwh9zz22p5fowh4atylmt3r8f,8QcTsLE3,2020-0188,2020-06-15,21:24:28,21:39:15,NA,incomplete,59,filling,1,left,Red_Star_Stripes_4.jpg,Blue_Plus_Stripes_2.jpg,Red_Circle_Grid_3.jpg,left,941.6749999981839,true,high,false
8QcTsLE3,3peg1bh7bh4xuzsxamnfbz6ha40bkr,37u1utwh9zz22p5fowh4atylmt3r8f,8QcTsLE3,2020-0188,2020-06-15,21:24:28,21:39:15,NA,incomplete,60,color,1,right,Green_Star_Dots_1.jpg,Red_Circle_Dots_4.jpg,Green_Triangle_Chess_3.jpg,right,663.6049999978859,true,high,false
8QcTsLE3,3peg1bh7bh4xuzsxamnfbz6ha40bkr,37u1utwh9zz22p5fowh4atylmt3r8f,8QcTsLE3,2020-0188,2020-06-15,21:24:28,21:39:15,NA,incomplete,61,color,1,left,Red_Circle_Dots_1.jpg,Red_Plus_Grid_2.jpg,Blue_Triangle_Dots_3.jpg,right,919.0750000015832,false,high,false
8QcTsLE3,3peg1bh7bh4xuzsxamnfbz6ha40bkr,37u1utwh9zz22p5fowh4atylmt3r8f,8QcTsLE3,2020-0188,2020-06-15,21:24:28,21:39:15,NA,incomplete,62,color,1,left,Red_Plus_Grid_4.jpg,Red_Star_Dots_1.jpg,Blue_Circle_Grid_2.jpg,left,542.939999999362,true,high,false
8QcTsLE3,3peg1bh7bh4xuzsxamnfbz6ha40bkr,37u1utwh9zz22p5fowh4atylmt3r8f,8QcTsLE3,2020-0188,2020-06-15,21:24:28,21:39:15,NA,incomplete,63,color,1,left,Red_Triangle_Grid_1.jpg,Red_Plus_Stripes_4.jpg,Blue_Star_Grid_3.jpg,left,721.0650000015157,true,high,false
8QcTsLE3,3peg1bh7bh4xuzsxamnfbz6ha40bkr,37u1utwh9zz22p5fowh4atylmt3r8f,8QcTsLE3,2020-0188,2020-06-15,21:24:28,21:39:15,NA,incomplete,64,color,1,left,Red_Plus_Grid_3.jpg,Red_Star_Stripes_2.jpg,Purple_Triangle_Grid_1.jpg,left,490.3599999997532,true,high,false
8QcTsLE3,3peg1bh7bh4xuzsxamnfbz6ha40bkr,37u1utwh9zz22p5fowh4atylmt3r8f,8QcTsLE3,2020-0188,2020-06-15,21:24:28,21:39:15,NA,incomplete,65,color,1,left,Red_Star_Grid_3.jpg,Red_Triangle_Chess_1.jpg,Green_Plus_Grid_4.jpg,left,584.7649999996065,true,high,false
8QcTsLE3,3peg1bh7bh4xuzsxamnfbz6ha40bkr,37u1utwh9zz22p5fowh4atylmt3r8f,8QcTsLE3,2020-0188,2020-06-15,21:24:28,21:39:15,NA,incomplete,66,color,1,left,Blue_Star_Dots_3.jpg,Blue_Circle_Stripes_1.jpg,Purple_Triangle_Dots_4.jpg,left,566.8850000002421,true,high,false
8QcTsLE3,3peg1bh7bh4xuzsxamnfbz6ha40bkr,37u1utwh9zz22p5fowh4atylmt3r8f,8QcTsLE3,2020-0188,2020-06-15,21:24:28,21:39:15,NA,incomplete,67,color,0,left,Green_Triangle_Chess_4.jpg,Green_Circle_Dots_1.jpg,Red_Star_Chess_2.jpg,left,501.1250000024447,true,high,false
8QcTsLE3,3peg1bh7bh4xuzsxamnfbz6ha40bkr,37u1utwh9zz22p5fowh4atylmt3r8f,8QcTsLE3,2020-0188,2020-06-15,21:24:28,21:39:15,NA,incomplete,68,color,1,right,Green_Circle_Grid_2.jpg,Blue_Triangle_Grid_1.jpg,Green_Plus_Dots_4.jpg,left,909.5350000025355,false,high,false
8QcTsLE3,3peg1bh7bh4xuzsxamnfbz6ha40bkr,37u1utwh9zz22p5fowh4atylmt3r8f,8QcTsLE3,2020-0188,2020-06-15,21:24:28,21:39:15,NA,incomplete,69,color,0,left,Red_Plus_Chess_1.jpg,Red_Star_Stripes_3.jpg,Green_Circle_Chess_2.jpg,right,875.7149999983376,false,high,false
8QcTsLE3,3peg1bh7bh4xuzsxamnfbz6ha40bkr,37u1utwh9zz22p5fowh4atylmt3r8f,8QcTsLE3,2020-0188,2020-06-15,21:24:28,21:39:15,NA,incomplete,70,filling,0,left,Green_Plus_Stripes_1.jpg,Blue_Triangle_Stripes_2.jpg,Green_Star_Grid_3.jpg,right,856.2450000026729,false,high,false
8QcTsLE3,3peg1bh7bh4xuzsxamnfbz6ha40bkr,37u1utwh9zz22p5fowh4atylmt3r8f,8QcTsLE3,2020-0188,2020-06-15,21:24:28,21:39:15,NA,incomplete,71,filling,1,right,Purple_Circle_Chess_3.jpg,Purple_Star_Stripes_4.jpg,Blue_Triangle_Chess_1.jpg,right,988.1700000005658,true,high,false
8QcTsLE3,3peg1bh7bh4xuzsxamnfbz6ha40bkr,37u1utwh9zz22p5fowh4atylmt3r8f,8QcTsLE3,2020-0188,2020-06-15,21:24:28,21:39:15,NA,incomplete,72,filling,1,left,Red_Triangle_Dots_1.jpg,Purple_Star_Dots_4.jpg,Red_Circle_Stripes_3.jpg,left,890.0399999984074,true,high,false
8QcTsLE3,3peg1bh7bh4xuzsxamnfbz6ha40bkr,37u1utwh9zz22p5fowh4atylmt3r8f,8QcTsLE3,2020-0188,2020-06-15,21:24:28,21:39:15,NA,incomplete,73,filling,1,right,Purple_Triangle_Dots_3.jpg,Purple_Circle_Chess_2.jpg,Green_Star_Dots_1.jpg,left,692.3700000006938,false,high,false
8QcTsLE3,3peg1bh7bh4xuzsxamnfbz6ha40bkr,37u1utwh9zz22p5fowh4atylmt3r8f,8QcTsLE3,2020-0188,2020-06-15,21:24:28,21:39:15,NA,incomplete,74,filling,1,right,Purple_Triangle_Stripes_1.jpg,Purple_Star_Grid_2.jpg,Blue_Plus_Stripes_4.jpg,right,935.204999997979,true,high,false
8QcTsLE3,3peg1bh7bh4xuzsxamnfbz6ha40bkr,37u1utwh9zz22p5fowh4atylmt3r8f,8QcTsLE3,2020-0188,2020-06-15,21:24:28,21:39:15,NA,incomplete,75,filling,1,right,Green_Plus_Dots_4.jpg,Green_Star_Chess_3.jpg,Purple_Triangle_Dots_1.jpg,left,645.7049999990268,false,high,false
8QcTsLE3,3peg1bh7bh4xuzsxamnfbz6ha40bkr,37u1utwh9zz22p5fowh4atylmt3r8f,8QcTsLE3,2020-0188,2020-06-15,21:24:28,21:39:15,NA,incomplete,76,filling,1,left,Red_Circle_Dots_4.jpg,Green_Plus_Dots_2.jpg,Red_Triangle_Stripes_1.jpg,right,721.9149999982328,false,high,false
8QcTsLE3,3peg1bh7bh4xuzsxamnfbz6ha40bkr,37u1utwh9zz22p5fowh4atylmt3r8f,8QcTsLE3,2020-0188,2020-06-15,21:24:28,21:39:15,NA,incomplete,77,filling,0,right,Green_Circle_Dots_2.jpg,Green_Star_Chess_4.jpg,Blue_Triangle_Dots_1.jpg,left,640.0749999993714,false,high,false
8QcTsLE3,3peg1bh7bh4xuzsxamnfbz6ha40bkr,37u1utwh9zz22p5fowh4atylmt3r8f,8QcTsLE3,2020-0188,2020-06-15,21:24:28,21:39:15,NA,incomplete,78,filling,0,right,Blue_Circle_Dots_1.jpg,Blue_Star_Stripes_2.jpg,Purple_Triangle_Dots_4.jpg,left,542.5400000021327,false,high,false
8QcTsLE3,3peg1bh7bh4xuzsxamnfbz6ha40bkr,37u1utwh9zz22p5fowh4atylmt3r8f,8QcTsLE3,2020-0188,2020-06-15,21:24:28,21:39:15,NA,incomplete,79,filling,1,right,Red_Triangle_Grid_4.jpg,Red_Star_Stripes_1.jpg,Green_Plus_Grid_2.jpg,left,767.8999999988591,false,high,false
8QcTsLE3,3peg1bh7bh4xuzsxamnfbz6ha40bkr,37u1utwh9zz22p5fowh4atylmt3r8f,8QcTsLE3,2020-0188,2020-06-15,21:24:28,21:39:15,NA,incomplete,80,color,1,left,Green_Circle_Grid_3.jpg,Green_Star_Dots_1.jpg,Red_Triangle_Grid_4.jpg,left,472.1000000027125,true,high,false
8QcTsLE3,3peg1bh7bh4xuzsxamnfbz6ha40bkr,37u1utwh9zz22p5fowh4atylmt3r8f,8QcTsLE3,2020-0188,2020-06-15,21:24:28,21:39:15,NA,incomplete,81,color,0,left,Purple_Star_Stripes_1.jpg,Purple_Plus_Grid_4.jpg,Green_Triangle_Stripes_2.jpg,left,614.5999999971245,true,high,false
8QcTsLE3,3peg1bh7bh4xuzsxamnfbz6ha40bkr,37u1utwh9zz22p5fowh4atylmt3r8f,8QcTsLE3,2020-0188,2020-06-15,21:24:28,21:39:15,NA,incomplete,82,color,0,left,Green_Plus_Chess_1.jpg,Green_Star_Stripes_4.jpg,Purple_Triangle_Chess_2.jpg,right,610.6500000023516,false,high,false
8QcTsLE3,3peg1bh7bh4xuzsxamnfbz6ha40bkr,37u1utwh9zz22p5fowh4atylmt3r8f,8QcTsLE3,2020-0188,2020-06-15,21:24:28,21:39:15,NA,incomplete,83,color,1,left,Purple_Circle_Chess_1.jpg,Purple_Plus_Grid_2.jpg,Green_Star_Chess_4.jpg,left,668.5700000016368,true,high,false
8QcTsLE3,3peg1bh7bh4xuzsxamnfbz6ha40bkr,37u1utwh9zz22p5fowh4atylmt3r8f,8QcTsLE3,2020-0188,2020-06-15,21:24:28,21:39:15,NA,incomplete,84,color,1,right,Blue_Star_Chess_2.jpg,Purple_Triangle_Chess_3.jpg,Blue_Plus_Stripes_1.jpg,right,570.240000000922,true,high,false
8QcTsLE3,3peg1bh7bh4xuzsxamnfbz6ha40bkr,37u1utwh9zz22p5fowh4atylmt3r8f,8QcTsLE3,2020-0188,2020-06-15,21:24:28,21:39:15,NA,incomplete,85,color,1,right,Blue_Plus_Stripes_4.jpg,Green_Triangle_Stripes_3.jpg,Blue_Circle_Chess_2.jpg,right,659.2899999996298,true,high,false
8QcTsLE3,3peg1bh7bh4xuzsxamnfbz6ha40bkr,37u1utwh9zz22p5fowh4atylmt3r8f,8QcTsLE3,2020-0188,2020-06-15,21:24:28,21:39:15,NA,incomplete,86,color,1,left,Green_Star_Stripes_1.jpg,Green_Circle_Chess_2.jpg,Purple_Plus_Stripes_4.jpg,left,542.1699999969569,true,high,false
8QcTsLE3,3peg1bh7bh4xuzsxamnfbz6ha40bkr,37u1utwh9zz22p5fowh4atylmt3r8f,8QcTsLE3,2020-0188,2020-06-15,21:24:28,21:39:15,NA,incomplete,87,color,1,left,Green_Triangle_Grid_2.jpg,Green_Star_Chess_4.jpg,Blue_Plus_Grid_1.jpg,left,511.81999999971595,true,high,false
8QcTsLE3,3peg1bh7bh4xuzsxamnfbz6ha40bkr,37u1utwh9zz22p5fowh4atylmt3r8f,8QcTsLE3,2020-0188,2020-06-15,21:24:28,21:39:15,NA,incomplete,88,color,1,left,Green_Triangle_Grid_2.jpg,Green_Star_Chess_4.jpg,Red_Circle_Grid_1.jpg,left,473.92000000039116,true,high,false
8QcTsLE3,3peg1bh7bh4xuzsxamnfbz6ha40bkr,37u1utwh9zz22p5fowh4atylmt3r8f,8QcTsLE3,2020-0188,2020-06-15,21:24:28,21:39:15,NA,incomplete,89,color,1,right,Purple_Circle_Chess_4.jpg,Green_Star_Chess_2.jpg,Purple_Triangle_Dots_3.jpg,right,586.3100000024424,true,high,false
8QcTsLE3,3peg1bh7bh4xuzsxamnfbz6ha40bkr,37u1utwh9zz22p5fowh4atylmt3r8f,8QcTsLE3,2020-0188,2020-06-15,21:24:28,21:39:15,NA,incomplete,90,filling,1,left,Blue_Star_Dots_4.jpg,Red_Circle_Dots_1.jpg,Blue_Triangle_Chess_2.jpg,right,521.7100000008941,false,high,false
8QcTsLE3,3peg1bh7bh4xuzsxamnfbz6ha40bkr,37u1utwh9zz22p5fowh4atylmt3r8f,8QcTsLE3,2020-0188,2020-06-15,21:24:28,21:39:15,NA,incomplete,91,filling,1,right,Purple_Circle_Stripes_3.jpg,Purple_Triangle_Chess_4.jpg,Red_Star_Stripes_1.jpg,left,679.9400000018068,false,high,false
8QcTsLE3,3peg1bh7bh4xuzsxamnfbz6ha40bkr,37u1utwh9zz22p5fowh4atylmt3r8f,8QcTsLE3,2020-0188,2020-06-15,21:24:28,21:39:15,NA,incomplete,92,filling,1,left,Blue_Plus_Dots_4.jpg,Red_Circle_Dots_2.jpg,Blue_Triangle_Grid_1.jpg,right,532.9249999995227,false,high,false
8QcTsLE3,3peg1bh7bh4xuzsxamnfbz6ha40bkr,37u1utwh9zz22p5fowh4atylmt3r8f,8QcTsLE3,2020-0188,2020-06-15,21:24:28,21:39:15,NA,incomplete,93,filling,1,left,Purple_Star_Stripes_3.jpg,Red_Triangle_Stripes_4.jpg,Purple_Circle_Dots_1.jpg,left,849.930000000284,true,high,false
8QcTsLE3,3peg1bh7bh4xuzsxamnfbz6ha40bkr,37u1utwh9zz22p5fowh4atylmt3r8f,8QcTsLE3,2020-0188,2020-06-15,21:24:28,21:39:15,NA,incomplete,94,filling,1,left,Blue_Star_Grid_2.jpg,Red_Circle_Grid_1.jpg,Blue_Triangle_Dots_3.jpg,left,1004.6099999999278,true,high,false
8QcTsLE3,3peg1bh7bh4xuzsxamnfbz6ha40bkr,37u1utwh9zz22p5fowh4atylmt3r8f,8QcTsLE3,2020-0188,2020-06-15,21:24:28,21:39:15,NA,incomplete,95,filling,1,left,Red_Triangle_Chess_2.jpg,Green_Plus_Chess_3.jpg,Red_Star_Dots_4.jpg,left,885.6699999996345,true,high,false
8QcTsLE3,3peg1bh7bh4xuzsxamnfbz6ha40bkr,37u1utwh9zz22p5fowh4atylmt3r8f,8QcTsLE3,2020-0188,2020-06-15,21:24:28,21:39:15,NA,incomplete,96,filling,0,right,Blue_Circle_Grid_1.jpg,Blue_Star_Dots_3.jpg,Green_Triangle_Grid_2.jpg,right,772.2049999974552,true,high,false
8QcTsLE3,3peg1bh7bh4xuzsxamnfbz6ha40bkr,37u1utwh9zz22p5fowh4atylmt3r8f,8QcTsLE3,2020-0188,2020-06-15,21:24:28,21:39:15,NA,incomplete,97,filling,1,left,Blue_Plus_Chess_3.jpg,Green_Circle_Chess_4.jpg,Blue_Triangle_Dots_2.jpg,left,977.8149999983725,true,high,false
8QcTsLE3,3peg1bh7bh4xuzsxamnfbz6ha40bkr,37u1utwh9zz22p5fowh4atylmt3r8f,8QcTsLE3,2020-0188,2020-06-15,21:24:28,21:39:15,NA,incomplete,98,filling,1,right,Green_Star_Grid_3.jpg,Green_Triangle_Stripes_2.jpg,Purple_Circle_Grid_4.jpg,left,1018.6700000012643,false,high,false
8QcTsLE3,3peg1bh7bh4xuzsxamnfbz6ha40bkr,37u1utwh9zz22p5fowh4atylmt3r8f,8QcTsLE3,2020-0188,2020-06-15,21:24:28,21:39:15,NA,incomplete,99,filling,1,left,Green_Triangle_Chess_3.jpg,Red_Star_Chess_2.jpg,Green_Circle_Stripes_1.jpg,none,0,false,high,false
8QcTsLE3,3peg1bh7bh4xuzsxamnfbz6ha40bkr,37u1utwh9zz22p5fowh4atylmt3r8f,8QcTsLE3,2020-0188,2020-06-15,21:24:28,21:39:15,NA,incomplete,100,color,1,right,Green_Star_Stripes_1.jpg,Red_Triangle_Stripes_3.jpg,Green_Plus_Dots_4.jpg,left,853.8300000000163,false,high,false
8QcTsLE3,3peg1bh7bh4xuzsxamnfbz6ha40bkr,37u1utwh9zz22p5fowh4atylmt3r8f,8QcTsLE3,2020-0188,2020-06-15,21:24:28,21:39:15,NA,incomplete,101,color,1,left,Purple_Star_Grid_1.jpg,Purple_Triangle_Stripes_4.jpg,Red_Circle_Grid_2.jpg,left,458.7200000023586,true,high,false
8QcTsLE3,3peg1bh7bh4xuzsxamnfbz6ha40bkr,37u1utwh9zz22p5fowh4atylmt3r8f,8QcTsLE3,2020-0188,2020-06-15,21:24:28,21:39:15,NA,incomplete,102,color,1,left,Red_Plus_Stripes_2.jpg,Red_Star_Grid_1.jpg,Blue_Triangle_Stripes_4.jpg,left,719.2199999990407,true,high,false
8QcTsLE3,3peg1bh7bh4xuzsxamnfbz6ha40bkr,37u1utwh9zz22p5fowh4atylmt3r8f,8QcTsLE3,2020-0188,2020-06-15,21:24:28,21:39:15,NA,incomplete,103,color,0,right,Purple_Triangle_Chess_1.jpg,Blue_Circle_Chess_4.jpg,Purple_Star_Stripes_2.jpg,right,677.3899999971036,true,high,false
8QcTsLE3,3peg1bh7bh4xuzsxamnfbz6ha40bkr,37u1utwh9zz22p5fowh4atylmt3r8f,8QcTsLE3,2020-0188,2020-06-15,21:24:28,21:39:15,NA,incomplete,104,color,1,right,Blue_Plus_Dots_3.jpg,Red_Triangle_Dots_4.jpg,Blue_Star_Stripes_1.jpg,right,510.2200000001467,true,high,false
8QcTsLE3,3peg1bh7bh4xuzsxamnfbz6ha40bkr,37u1utwh9zz22p5fowh4atylmt3r8f,8QcTsLE3,2020-0188,2020-06-15,21:24:28,21:39:15,NA,incomplete,105,color,1,left,Blue_Plus_Grid_1.jpg,Blue_Circle_Chess_2.jpg,Green_Star_Grid_4.jpg,left,498.39000000065425,true,high,false
8QcTsLE3,3peg1bh7bh4xuzsxamnfbz6ha40bkr,37u1utwh9zz22p5fowh4atylmt3r8f,8QcTsLE3,2020-0188,2020-06-15,21:24:28,21:39:15,NA,incomplete,106,color,1,right,Blue_Triangle_Stripes_1.jpg,Red_Star_Stripes_2.jpg,Blue_Plus_Chess_3.jpg,right,554.02000000322,true,high,false
8QcTsLE3,3peg1bh7bh4xuzsxamnfbz6ha40bkr,37u1utwh9zz22p5fowh4atylmt3r8f,8QcTsLE3,2020-0188,2020-06-15,21:24:28,21:39:15,NA,incomplete,107,color,1,right,Red_Plus_Stripes_3.jpg,Blue_Circle_Stripes_2.jpg,Red_Triangle_Chess_4.jpg,right,621.129999999539,true,high,false
8QcTsLE3,3peg1bh7bh4xuzsxamnfbz6ha40bkr,37u1utwh9zz22p5fowh4atylmt3r8f,8QcTsLE3,2020-0188,2020-06-15,21:24:28,21:39:15,NA,incomplete,108,color,1,left,Blue_Star_Grid_2.jpg,Blue_Circle_Chess_1.jpg,Red_Plus_Grid_3.jpg,left,399.1299999979092,true,high,false
8QcTsLE3,3peg1bh7bh4xuzsxamnfbz6ha40bkr,37u1utwh9zz22p5fowh4atylmt3r8f,8QcTsLE3,2020-0188,2020-06-15,21:24:28,21:39:15,NA,incomplete,109,color,1,right,Purple_Star_Chess_1.jpg,Red_Circle_Chess_3.jpg,Purple_Plus_Dots_2.jpg,right,445.5099999977974,true,high,false
8QcTsLE3,3peg1bh7bh4xuzsxamnfbz6ha40bkr,37u1utwh9zz22p5fowh4atylmt3r8f,8QcTsLE3,2020-0188,2020-06-15,21:24:28,21:39:15,NA,incomplete,110,filling,0,right,Purple_Circle_Grid_3.jpg,Purple_Plus_Stripes_2.jpg,Green_Triangle_Grid_4.jpg,left,492.32499999925494,false,high,false
8QcTsLE3,3peg1bh7bh4xuzsxamnfbz6ha40bkr,37u1utwh9zz22p5fowh4atylmt3r8f,8QcTsLE3,2020-0188,2020-06-15,21:24:28,21:39:15,NA,incomplete,111,filling,1,right,Green_Triangle_Grid_2.jpg,Green_Plus_Stripes_1.jpg,Blue_Circle_Grid_4.jpg,left,601.7499999979627,false,high,false
8QcTsLE3,3peg1bh7bh4xuzsxamnfbz6ha40bkr,37u1utwh9zz22p5fowh4atylmt3r8f,8QcTsLE3,2020-0188,2020-06-15,21:24:28,21:39:15,NA,incomplete,112,filling,1,right,Blue_Circle_Grid_4.jpg,Blue_Plus_Dots_1.jpg,Green_Star_Grid_2.jpg,right,836.975000002014,true,high,false
8QcTsLE3,3peg1bh7bh4xuzsxamnfbz6ha40bkr,37u1utwh9zz22p5fowh4atylmt3r8f,8QcTsLE3,2020-0188,2020-06-15,21:24:28,21:39:15,NA,incomplete,113,filling,1,left,Red_Star_Stripes_3.jpg,Blue_Plus_Stripes_1.jpg,Red_Circle_Chess_2.jpg,left,792.5600000016857,true,high,false
8QcTsLE3,3peg1bh7bh4xuzsxamnfbz6ha40bkr,37u1utwh9zz22p5fowh4atylmt3r8f,8QcTsLE3,2020-0188,2020-06-15,21:24:28,21:39:15,NA,incomplete,114,filling,1,left,Purple_Circle_Stripes_3.jpg,Blue_Plus_Stripes_2.jpg,Purple_Triangle_Dots_1.jpg,left,1172.050000001036,true,high,false
8QcTsLE3,3peg1bh7bh4xuzsxamnfbz6ha40bkr,37u1utwh9zz22p5fowh4atylmt3r8f,8QcTsLE3,2020-0188,2020-06-15,21:24:28,21:39:15,NA,incomplete,115,filling,0,left,Blue_Triangle_Dots_2.jpg,Purple_Circle_Dots_4.jpg,Blue_Star_Grid_3.jpg,left,997.2749999979278,true,high,false
8QcTsLE3,3peg1bh7bh4xuzsxamnfbz6ha40bkr,37u1utwh9zz22p5fowh4atylmt3r8f,8QcTsLE3,2020-0188,2020-06-15,21:24:28,21:39:15,NA,incomplete,116,filling,1,right,Blue_Circle_Chess_3.jpg,Blue_Star_Stripes_2.jpg,Purple_Triangle_Chess_4.jpg,right,1007.3000000010943,true,high,false
8QcTsLE3,3peg1bh7bh4xuzsxamnfbz6ha40bkr,37u1utwh9zz22p5fowh4atylmt3r8f,8QcTsLE3,2020-0188,2020-06-15,21:24:28,21:39:15,NA,incomplete,117,filling,0,left,Green_Star_Stripes_1.jpg,Blue_Triangle_Stripes_2.jpg,Green_Plus_Grid_4.jpg,left,844.3249999982072,true,high,false
8QcTsLE3,3peg1bh7bh4xuzsxamnfbz6ha40bkr,37u1utwh9zz22p5fowh4atylmt3r8f,8QcTsLE3,2020-0188,2020-06-15,21:24:28,21:39:15,NA,incomplete,118,filling,0,right,Blue_Star_Chess_2.jpg,Blue_Circle_Stripes_3.jpg,Red_Triangle_Chess_1.jpg,right,833.3600000005681,true,high,false
8QcTsLE3,3peg1bh7bh4xuzsxamnfbz6ha40bkr,37u1utwh9zz22p5fowh4atylmt3r8f,8QcTsLE3,2020-0188,2020-06-15,21:24:28,21:39:15,NA,incomplete,119,filling,0,left,Purple_Triangle_Dots_4.jpg,Green_Plus_Dots_1.jpg,Purple_Circle_Grid_3.jpg,right,663.2599999975646,false,high,false
8QcTsLE3,3peg1bh7bh4xuzsxamnfbz6ha40bkr,37u1utwh9zz22p5fowh4atylmt3r8f,8QcTsLE3,2020-0188,2020-06-15,21:24:28,21:39:15,NA,incomplete,120,number,1,left,Purple_Triangle_Chess_3.jpg,Red_Star_Stripes_3.jpg,Green_Triangle_Grid_2.jpg,NA,NA,NA,high,false
8QcTsLE3,3peg1bh7bh4xuzsxamnfbz6ha40bkr,37u1utwh9zz22p5fowh4atylmt3r8f,8QcTsLE3,2020-0188,2020-06-15,21:24:28,21:39:15,NA,incomplete,121,number,1,left,Red_Star_Grid_4.jpg,Purple_Triangle_Chess_4.jpg,Blue_Star_Dots_1.jpg,left,967.9099999994505,true,high,false
8QcTsLE3,3peg1bh7bh4xuzsxamnfbz6ha40bkr,37u1utwh9zz22p5fowh4atylmt3r8f,8QcTsLE3,2020-0188,2020-06-15,21:24:28,21:39:15,NA,incomplete,122,number,0,right,Red_Plus_Chess_4.jpg,Green_Plus_Grid_2.jpg,Blue_Star_Stripes_4.jpg,right,707.2000000007683,true,high,false
8QcTsLE3,3peg1bh7bh4xuzsxamnfbz6ha40bkr,37u1utwh9zz22p5fowh4atylmt3r8f,8QcTsLE3,2020-0188,2020-06-15,21:24:28,21:39:15,NA,incomplete,123,number,1,right,Purple_Circle_Chess_2.jpg,Blue_Circle_Grid_1.jpg,Green_Plus_Stripes_2.jpg,left,711.5349999986356,false,high,false
8QcTsLE3,3peg1bh7bh4xuzsxamnfbz6ha40bkr,37u1utwh9zz22p5fowh4atylmt3r8f,8QcTsLE3,2020-0188,2020-06-15,21:24:28,21:39:15,NA,incomplete,124,number,1,right,Red_Circle_Dots_2.jpg,Green_Circle_Chess_4.jpg,Purple_Triangle_Stripes_2.jpg,right,1130.2749999995576,true,high,false
8QcTsLE3,3peg1bh7bh4xuzsxamnfbz6ha40bkr,37u1utwh9zz22p5fowh4atylmt3r8f,8QcTsLE3,2020-0188,2020-06-15,21:24:28,21:39:15,NA,incomplete,125,number,1,left,Blue_Plus_Chess_3.jpg,Red_Triangle_Dots_3.jpg,Green_Plus_Grid_2.jpg,left,921.3700000001118,true,high,false
8QcTsLE3,3peg1bh7bh4xuzsxamnfbz6ha40bkr,37u1utwh9zz22p5fowh4atylmt3r8f,8QcTsLE3,2020-0188,2020-06-15,21:24:28,21:39:15,NA,incomplete,126,number,1,left,Purple_Plus_Dots_4.jpg,Red_Circle_Stripes_4.jpg,Blue_Plus_Grid_2.jpg,left,856.1749999971362,true,high,false
8QcTsLE3,3peg1bh7bh4xuzsxamnfbz6ha40bkr,37u1utwh9zz22p5fowh4atylmt3r8f,8QcTsLE3,2020-0188,2020-06-15,21:24:28,21:39:15,NA,incomplete,127,number,1,left,Blue_Star_Dots_2.jpg,Purple_Triangle_Grid_2.jpg,Green_Star_Chess_3.jpg,left,904.06499999878,true,high,false
8QcTsLE3,3peg1bh7bh4xuzsxamnfbz6ha40bkr,37u1utwh9zz22p5fowh4atylmt3r8f,8QcTsLE3,2020-0188,2020-06-15,21:24:28,21:39:15,NA,incomplete,128,number,1,right,Red_Triangle_Chess_2.jpg,Blue_Triangle_Stripes_1.jpg,Purple_Plus_Dots_2.jpg,right,784.255000002333,true,high,false
8QcTsLE3,3peg1bh7bh4xuzsxamnfbz6ha40bkr,37u1utwh9zz22p5fowh4atylmt3r8f,8QcTsLE3,2020-0188,2020-06-15,21:24:28,21:39:15,NA,incomplete,129,number,1,right,Blue_Triangle_Grid_3.jpg,Red_Triangle_Dots_1.jpg,Green_Star_Stripes_3.jpg,right,650.02000000095,true,high,false
8QcTsLE3,3peg1bh7bh4xuzsxamnfbz6ha40bkr,37u1utwh9zz22p5fowh4atylmt3r8f,8QcTsLE3,2020-0188,2020-06-15,21:24:28,21:39:15,NA,incomplete,130,number,0,left,Red_Circle_Dots_3.jpg,Purple_Star_Chess_3.jpg,Green_Circle_Stripes_1.jpg,left,584.2699999993201,true,high,false
8QcTsLE3,3peg1bh7bh4xuzsxamnfbz6ha40bkr,37u1utwh9zz22p5fowh4atylmt3r8f,8QcTsLE3,2020-0188,2020-06-15,21:24:28,21:39:15,NA,incomplete,131,number,1,left,Green_Circle_Stripes_2.jpg,Blue_Star_Dots_2.jpg,Red_Circle_Chess_3.jpg,right,467.01499999838416,false,high,false
8QcTsLE3,3peg1bh7bh4xuzsxamnfbz6ha40bkr,37u1utwh9zz22p5fowh4atylmt3r8f,8QcTsLE3,2020-0188,2020-06-15,21:24:28,21:39:15,NA,incomplete,132,number,0,left,Purple_Star_Chess_4.jpg,Red_Triangle_Dots_4.jpg,Green_Star_Grid_2.jpg,left,875.1650000013178,true,high,false
8QcTsLE3,3peg1bh7bh4xuzsxamnfbz6ha40bkr,37u1utwh9zz22p5fowh4atylmt3r8f,8QcTsLE3,2020-0188,2020-06-15,21:24:28,21:39:15,NA,incomplete,133,number,1,right,Purple_Star_Grid_3.jpg,Green_Star_Chess_1.jpg,Red_Triangle_Dots_3.jpg,left,999.1450000016484,false,high,false
8QcTsLE3,3peg1bh7bh4xuzsxamnfbz6ha40bkr,37u1utwh9zz22p5fowh4atylmt3r8f,8QcTsLE3,2020-0188,2020-06-15,21:24:28,21:39:15,NA,incomplete,134,number,1,left,Blue_Star_Dots_2.jpg,Green_Triangle_Grid_2.jpg,Purple_Star_Chess_1.jpg,right,850.4749999991618,false,high,false
8QcTsLE3,3peg1bh7bh4xuzsxamnfbz6ha40bkr,37u1utwh9zz22p5fowh4atylmt3r8f,8QcTsLE3,2020-0188,2020-06-15,21:24:28,21:39:15,NA,incomplete,135,number,1,left,Purple_Star_Grid_4.jpg,Red_Triangle_Chess_4.jpg,Blue_Star_Stripes_3.jpg,left,867.7150000003166,true,high,false
8QcTsLE3,3peg1bh7bh4xuzsxamnfbz6ha40bkr,37u1utwh9zz22p5fowh4atylmt3r8f,8QcTsLE3,2020-0188,2020-06-15,21:24:28,21:39:15,NA,incomplete,136,number,0,right,Red_Circle_Dots_4.jpg,Blue_Circle_Stripes_2.jpg,Green_Plus_Grid_4.jpg,right,726.1849999995902,true,high,false
8QcTsLE3,3peg1bh7bh4xuzsxamnfbz6ha40bkr,37u1utwh9zz22p5fowh4atylmt3r8f,8QcTsLE3,2020-0188,2020-06-15,21:24:28,21:39:15,NA,incomplete,137,number,1,right,Green_Plus_Dots_1.jpg,Blue_Plus_Stripes_2.jpg,Purple_Star_Chess_1.jpg,left,529.9850000010338,false,high,false
8QcTsLE3,3peg1bh7bh4xuzsxamnfbz6ha40bkr,37u1utwh9zz22p5fowh4atylmt3r8f,8QcTsLE3,2020-0188,2020-06-15,21:24:28,21:39:15,NA,incomplete,138,number,0,left,Blue_Star_Dots_1.jpg,Green_Triangle_Stripes_1.jpg,Purple_Star_Grid_4.jpg,left,725.1100000030128,true,high,false
8QcTsLE3,3peg1bh7bh4xuzsxamnfbz6ha40bkr,37u1utwh9zz22p5fowh4atylmt3r8f,8QcTsLE3,2020-0188,2020-06-15,21:24:28,21:39:15,NA,incomplete,139,number,1,right,Red_Circle_Stripes_2.jpg,Blue_Circle_Grid_1.jpg,Green_Plus_Chess_2.jpg,left,911.3450000004377,false,high,false
8QcTsLE3,3peg1bh7bh4xuzsxamnfbz6ha40bkr,37u1utwh9zz22p5fowh4atylmt3r8f,8QcTsLE3,2020-0188,2020-06-15,21:24:28,21:39:15,NA,incomplete,140,shape,1,right,Purple_Circle_Chess_2.jpg,Blue_Triangle_Grid_2.jpg,Green_Circle_Dots_4.jpg,left,785.314999997383,false,high,false
8QcTsLE3,3peg1bh7bh4xuzsxamnfbz6ha40bkr,37u1utwh9zz22p5fowh4atylmt3r8f,8QcTsLE3,2020-0188,2020-06-15,21:24:28,21:39:15,NA,incomplete,141,shape,1,left,Blue_Triangle_Chess_2.jpg,Green_Triangle_Grid_4.jpg,Purple_Plus_Stripes_2.jpg,right,673.5450000014389,false,high,false
8QcTsLE3,3peg1bh7bh4xuzsxamnfbz6ha40bkr,37u1utwh9zz22p5fowh4atylmt3r8f,8QcTsLE3,2020-0188,2020-06-15,21:24:28,21:39:15,NA,incomplete,142,shape,1,left,Red_Plus_Stripes_1.jpg,Blue_Plus_Chess_3.jpg,Purple_Star_Grid_1.jpg,left,725.3799999997718,true,high,false
8QcTsLE3,3peg1bh7bh4xuzsxamnfbz6ha40bkr,37u1utwh9zz22p5fowh4atylmt3r8f,8QcTsLE3,2020-0188,2020-06-15,21:24:28,21:39:15,NA,incomplete,143,shape,0,right,Red_Star_Grid_1.jpg,Purple_Circle_Dots_1.jpg,Green_Star_Chess_2.jpg,right,877.8100000018021,true,high,false
8QcTsLE3,3peg1bh7bh4xuzsxamnfbz6ha40bkr,37u1utwh9zz22p5fowh4atylmt3r8f,8QcTsLE3,2020-0188,2020-06-15,21:24:28,21:39:15,NA,incomplete,144,shape,1,right,Green_Circle_Grid_3.jpg,Blue_Star_Chess_3.jpg,Purple_Circle_Stripes_2.jpg,right,800.1350000012899,true,high,false
8QcTsLE3,3peg1bh7bh4xuzsxamnfbz6ha40bkr,37u1utwh9zz22p5fowh4atylmt3r8f,8QcTsLE3,2020-0188,2020-06-15,21:24:28,21:39:15,NA,incomplete,145,shape,1,left,Green_Plus_Chess_3.jpg,Blue_Plus_Dots_2.jpg,Red_Circle_Grid_3.jpg,left,698.5600000007544,true,high,false
8QcTsLE3,3peg1bh7bh4xuzsxamnfbz6ha40bkr,37u1utwh9zz22p5fowh4atylmt3r8f,8QcTsLE3,2020-0188,2020-06-15,21:24:28,21:39:15,NA,incomplete,146,shape,1,left,Purple_Circle_Dots_4.jpg,Blue_Circle_Stripes_3.jpg,Green_Plus_Grid_4.jpg,left,754.0799999987939,true,high,false
8QcTsLE3,3peg1bh7bh4xuzsxamnfbz6ha40bkr,37u1utwh9zz22p5fowh4atylmt3r8f,8QcTsLE3,2020-0188,2020-06-15,21:24:28,21:39:15,NA,incomplete,147,shape,0,right,Red_Star_Stripes_2.jpg,Blue_Circle_Dots_2.jpg,Green_Star_Grid_1.jpg,right,818.6549999990966,true,high,false
8QcTsLE3,3peg1bh7bh4xuzsxamnfbz6ha40bkr,37u1utwh9zz22p5fowh4atylmt3r8f,8QcTsLE3,2020-0188,2020-06-15,21:24:28,21:39:15,NA,incomplete,148,shape,1,right,Green_Circle_Dots_4.jpg,Red_Triangle_Chess_4.jpg,Blue_Circle_Stripes_3.jpg,right,602.6199999977835,true,high,false
8QcTsLE3,3peg1bh7bh4xuzsxamnfbz6ha40bkr,37u1utwh9zz22p5fowh4atylmt3r8f,8QcTsLE3,2020-0188,2020-06-15,21:24:28,21:39:15,NA,incomplete,149,shape,0,right,Purple_Triangle_Dots_1.jpg,Red_Star_Grid_1.jpg,Blue_Triangle_Stripes_4.jpg,right,962.4900000017369,true,high,false
8QcTsLE3,3peg1bh7bh4xuzsxamnfbz6ha40bkr,37u1utwh9zz22p5fowh4atylmt3r8f,8QcTsLE3,2020-0188,2020-06-15,21:24:28,21:39:15,NA,incomplete,150,shape,1,left,Blue_Triangle_Grid_4.jpg,Red_Triangle_Chess_3.jpg,Green_Star_Dots_4.jpg,left,1066.0800000005402,true,high,false
8QcTsLE3,3peg1bh7bh4xuzsxamnfbz6ha40bkr,37u1utwh9zz22p5fowh4atylmt3r8f,8QcTsLE3,2020-0188,2020-06-15,21:24:28,21:39:15,NA,incomplete,151,shape,1,left,Blue_Plus_Dots_2.jpg,Purple_Plus_Stripes_1.jpg,Red_Star_Grid_2.jpg,right,926.595000000787,false,high,false
8QcTsLE3,3peg1bh7bh4xuzsxamnfbz6ha40bkr,37u1utwh9zz22p5fowh4atylmt3r8f,8QcTsLE3,2020-0188,2020-06-15,21:24:28,21:39:15,NA,incomplete,152,shape,1,right,Purple_Triangle_Stripes_1.jpg,Red_Circle_Dots_1.jpg,Green_Triangle_Chess_3.jpg,right,680.3099999997066,true,high,false
8QcTsLE3,3peg1bh7bh4xuzsxamnfbz6ha40bkr,37u1utwh9zz22p5fowh4atylmt3r8f,8QcTsLE3,2020-0188,2020-06-15,21:24:28,21:39:15,NA,incomplete,153,shape,1,right,Red_Plus_Grid_3.jpg,Blue_Star_Chess_3.jpg,Green_Plus_Stripes_2.jpg,right,776.8050000013318,true,high,false
8QcTsLE3,3peg1bh7bh4xuzsxamnfbz6ha40bkr,37u1utwh9zz22p5fowh4atylmt3r8f,8QcTsLE3,2020-0188,2020-06-15,21:24:28,21:39:15,NA,incomplete,154,shape,1,left,Purple_Circle_Stripes_1.jpg,Red_Circle_Dots_2.jpg,Blue_Plus_Grid_1.jpg,left,635.6049999995157,true,high,false
8QcTsLE3,3peg1bh7bh4xuzsxamnfbz6ha40bkr,37u1utwh9zz22p5fowh4atylmt3r8f,8QcTsLE3,2020-0188,2020-06-15,21:24:28,21:39:15,NA,incomplete,155,shape,1,left,Green_Star_Stripes_1.jpg,Red_Star_Grid_4.jpg,Purple_Triangle_Chess_1.jpg,left,809.489999999525,true,high,false
8QcTsLE3,3peg1bh7bh4xuzsxamnfbz6ha40bkr,37u1utwh9zz22p5fowh4atylmt3r8f,8QcTsLE3,2020-0188,2020-06-15,21:24:28,21:39:15,NA,incomplete,156,shape,1,left,Blue_Star_Chess_1.jpg,Purple_Star_Dots_3.jpg,Red_Plus_Stripes_1.jpg,left,631.9150000017835,true,high,false
8QcTsLE3,3peg1bh7bh4xuzsxamnfbz6ha40bkr,37u1utwh9zz22p5fowh4atylmt3r8f,8QcTsLE3,2020-0188,2020-06-15,21:24:28,21:39:15,NA,incomplete,157,shape,1,left,Red_Circle_Chess_4.jpg,Green_Circle_Dots_3.jpg,Purple_Plus_Grid_4.jpg,left,598.614999998943,true,high,false
8QcTsLE3,3peg1bh7bh4xuzsxamnfbz6ha40bkr,37u1utwh9zz22p5fowh4atylmt3r8f,8QcTsLE3,2020-0188,2020-06-15,21:24:28,21:39:15,NA,incomplete,158,shape,1,right,Green_Plus_Grid_3.jpg,Blue_Circle_Stripes_3.jpg,Purple_Plus_Dots_1.jpg,right,632.5249999972293,true,high,false
8QcTsLE3,3peg1bh7bh4xuzsxamnfbz6ha40bkr,37u1utwh9zz22p5fowh4atylmt3r8f,8QcTsLE3,2020-0188,2020-06-15,21:24:28,21:39:15,NA,incomplete,159,shape,1,right,Red_Star_Dots_2.jpg,Blue_Triangle_Chess_2.jpg,Purple_Star_Stripes_1.jpg,right,695.6599999975879,true,high,false
8QcTsLE3,3peg1bh7bh4xuzsxamnfbz6ha40bkr,37u1utwh9zz22p5fowh4atylmt3r8f,8QcTsLE3,2020-0188,2020-06-15,21:24:28,21:39:15,NA,incomplete,160,number,1,right,Purple_Triangle_Grid_3.jpg,Green_Triangle_Dots_4.jpg,Red_Star_Stripes_3.jpg,left,688.9999999984866,false,high,false
8QcTsLE3,3peg1bh7bh4xuzsxamnfbz6ha40bkr,37u1utwh9zz22p5fowh4atylmt3r8f,8QcTsLE3,2020-0188,2020-06-15,21:24:28,21:39:15,NA,incomplete,161,number,1,left,Purple_Plus_Stripes_1.jpg,Green_Triangle_Grid_1.jpg,Red_Plus_Dots_2.jpg,right,942.7100000029895,false,high,false
8QcTsLE3,3peg1bh7bh4xuzsxamnfbz6ha40bkr,37u1utwh9zz22p5fowh4atylmt3r8f,8QcTsLE3,2020-0188,2020-06-15,21:24:28,21:39:15,NA,incomplete,162,number,0,right,Purple_Triangle_Chess_4.jpg,Green_Triangle_Dots_2.jpg,Red_Circle_Grid_4.jpg,right,747.3700000010431,true,high,false
8QcTsLE3,3peg1bh7bh4xuzsxamnfbz6ha40bkr,37u1utwh9zz22p5fowh4atylmt3r8f,8QcTsLE3,2020-0188,2020-06-15,21:24:28,21:39:15,NA,incomplete,163,number,1,right,Purple_Star_Chess_4.jpg,Red_Star_Grid_1.jpg,Green_Plus_Stripes_4.jpg,right,609.260000001057,true,high,false
8QcTsLE3,3peg1bh7bh4xuzsxamnfbz6ha40bkr,37u1utwh9zz22p5fowh4atylmt3r8f,8QcTsLE3,2020-0188,2020-06-15,21:24:28,21:39:15,NA,incomplete,164,number,1,right,Blue_Plus_Grid_1.jpg,Green_Plus_Dots_3.jpg,Red_Circle_Chess_1.jpg,left,971.5550000001676,false,high,false
8QcTsLE3,3peg1bh7bh4xuzsxamnfbz6ha40bkr,37u1utwh9zz22p5fowh4atylmt3r8f,8QcTsLE3,2020-0188,2020-06-15,21:24:28,21:39:15,NA,incomplete,165,number,1,right,Purple_Plus_Chess_4.jpg,Red_Plus_Grid_1.jpg,Blue_Star_Stripes_4.jpg,right,695.8500000000931,true,high,false
8QcTsLE3,3peg1bh7bh4xuzsxamnfbz6ha40bkr,37u1utwh9zz22p5fowh4atylmt3r8f,8QcTsLE3,2020-0188,2020-06-15,21:24:28,21:39:15,NA,incomplete,166,number,0,right,Blue_Star_Stripes_2.jpg,Purple_Star_Grid_4.jpg,Green_Circle_Dots_2.jpg,right,761.1900000011083,true,high,false
8QcTsLE3,3peg1bh7bh4xuzsxamnfbz6ha40bkr,37u1utwh9zz22p5fowh4atylmt3r8f,8QcTsLE3,2020-0188,2020-06-15,21:24:28,21:39:15,NA,incomplete,167,number,1,left,Purple_Plus_Stripes_1.jpg,Green_Triangle_Grid_1.jpg,Blue_Plus_Chess_2.jpg,left,705.3199999972712,true,high,false
8QcTsLE3,3peg1bh7bh4xuzsxamnfbz6ha40bkr,37u1utwh9zz22p5fowh4atylmt3r8f,8QcTsLE3,2020-0188,2020-06-15,21:24:28,21:39:15,NA,incomplete,168,number,1,left,Blue_Star_Grid_4.jpg,Red_Circle_Dots_4.jpg,Green_Star_Stripes_2.jpg,left,886.3899999996647,true,high,false
8QcTsLE3,3peg1bh7bh4xuzsxamnfbz6ha40bkr,37u1utwh9zz22p5fowh4atylmt3r8f,8QcTsLE3,2020-0188,2020-06-15,21:24:28,21:39:15,NA,incomplete,169,number,0,left,Red_Triangle_Grid_1.jpg,Purple_Star_Dots_1.jpg,Green_Triangle_Chess_4.jpg,left,830.8450000004377,true,high,false
8QcTsLE3,3peg1bh7bh4xuzsxamnfbz6ha40bkr,37u1utwh9zz22p5fowh4atylmt3r8f,8QcTsLE3,2020-0188,2020-06-15,21:24:28,21:39:15,NA,incomplete,170,number,1,right,Green_Triangle_Chess_3.jpg,Blue_Triangle_Dots_1.jpg,Red_Star_Stripes_3.jpg,right,696.169999999227,true,high,false
8QcTsLE3,3peg1bh7bh4xuzsxamnfbz6ha40bkr,37u1utwh9zz22p5fowh4atylmt3r8f,8QcTsLE3,2020-0188,2020-06-15,21:24:28,21:39:15,NA,incomplete,171,number,0,right,Blue_Triangle_Grid_4.jpg,Green_Triangle_Chess_3.jpg,Purple_Star_Stripes_4.jpg,right,1088.145000001532,true,high,false
8QcTsLE3,3peg1bh7bh4xuzsxamnfbz6ha40bkr,37u1utwh9zz22p5fowh4atylmt3r8f,8QcTsLE3,2020-0188,2020-06-15,21:24:28,21:39:15,NA,incomplete,172,number,1,left,Green_Plus_Chess_1.jpg,Purple_Star_Dots_1.jpg,Red_Plus_Stripes_3.jpg,left,672.0449999993434,true,high,false
8QcTsLE3,3peg1bh7bh4xuzsxamnfbz6ha40bkr,37u1utwh9zz22p5fowh4atylmt3r8f,8QcTsLE3,2020-0188,2020-06-15,21:24:28,21:39:15,NA,incomplete,173,number,1,left,Red_Triangle_Stripes_1.jpg,Blue_Star_Chess_1.jpg,Purple_Triangle_Grid_2.jpg,left,818.9600000005448,true,high,false
8QcTsLE3,3peg1bh7bh4xuzsxamnfbz6ha40bkr,37u1utwh9zz22p5fowh4atylmt3r8f,8QcTsLE3,2020-0188,2020-06-15,21:24:28,21:39:15,NA,incomplete,174,number,1,left,Blue_Circle_Stripes_2.jpg,Green_Plus_Grid_2.jpg,Purple_Circle_Chess_4.jpg,right,701.1099999982398,false,high,false
8QcTsLE3,3peg1bh7bh4xuzsxamnfbz6ha40bkr,37u1utwh9zz22p5fowh4atylmt3r8f,8QcTsLE3,2020-0188,2020-06-15,21:24:28,21:39:15,NA,incomplete,175,number,1,left,Purple_Circle_Chess_4.jpg,Red_Triangle_Dots_4.jpg,Blue_Circle_Grid_3.jpg,left,781.1400000028079,true,high,false
8QcTsLE3,3peg1bh7bh4xuzsxamnfbz6ha40bkr,37u1utwh9zz22p5fowh4atylmt3r8f,8QcTsLE3,2020-0188,2020-06-15,21:24:28,21:39:15,NA,incomplete,176,number,0,right,Blue_Circle_Chess_4.jpg,Purple_Circle_Dots_1.jpg,Green_Plus_Stripes_4.jpg,right,560.5900000008987,true,high,false
8QcTsLE3,3peg1bh7bh4xuzsxamnfbz6ha40bkr,37u1utwh9zz22p5fowh4atylmt3r8f,8QcTsLE3,2020-0188,2020-06-15,21:24:28,21:39:15,NA,incomplete,177,number,1,left,Purple_Triangle_Dots_1.jpg,Blue_Plus_Grid_1.jpg,Red_Triangle_Chess_3.jpg,right,708.4850000028964,false,high,false
8QcTsLE3,3peg1bh7bh4xuzsxamnfbz6ha40bkr,37u1utwh9zz22p5fowh4atylmt3r8f,8QcTsLE3,2020-0188,2020-06-15,21:24:28,21:39:15,NA,incomplete,178,number,1,left,Blue_Circle_Dots_4.jpg,Purple_Triangle_Chess_4.jpg,Green_Circle_Grid_3.jpg,right,748.7550000005867,false,high,false
8QcTsLE3,3peg1bh7bh4xuzsxamnfbz6ha40bkr,37u1utwh9zz22p5fowh4atylmt3r8f,8QcTsLE3,2020-0188,2020-06-15,21:24:28,21:39:15,NA,incomplete,179,number,0,left,Blue_Triangle_Chess_2.jpg,Red_Star_Stripes_2.jpg,Green_Triangle_Dots_1.jpg,left,750.834999998915,true,high,false
8QcTsLE3,3peg1bh7bh4xuzsxamnfbz6ha40bkr,37u1utwh9zz22p5fowh4atylmt3r8f,8QcTsLE3,2020-0188,2020-06-15,21:24:28,21:39:15,NA,incomplete,180,shape,1,right,Green_Circle_Stripes_2.jpg,Red_Star_Dots_2.jpg,Purple_Circle_Chess_4.jpg,right,706.7250000000931,true,high,false
8QcTsLE3,3peg1bh7bh4xuzsxamnfbz6ha40bkr,37u1utwh9zz22p5fowh4atylmt3r8f,8QcTsLE3,2020-0188,2020-06-15,21:24:28,21:39:15,NA,incomplete,181,shape,1,right,Purple_Plus_Dots_4.jpg,Blue_Triangle_Grid_4.jpg,Red_Plus_Chess_3.jpg,right,765.1699999987613,true,high,false
8QcTsLE3,3peg1bh7bh4xuzsxamnfbz6ha40bkr,37u1utwh9zz22p5fowh4atylmt3r8f,8QcTsLE3,2020-0188,2020-06-15,21:24:28,21:39:15,NA,incomplete,182,shape,1,left,Blue_Triangle_Grid_3.jpg,Green_Triangle_Chess_1.jpg,Purple_Circle_Dots_3.jpg,left,740.2800000017742,true,high,false
8QcTsLE3,3peg1bh7bh4xuzsxamnfbz6ha40bkr,37u1utwh9zz22p5fowh4atylmt3r8f,8QcTsLE3,2020-0188,2020-06-15,21:24:28,21:39:15,NA,incomplete,183,shape,1,left,Purple_Triangle_Grid_4.jpg,Blue_Triangle_Dots_2.jpg,Red_Star_Stripes_4.jpg,left,706.0099999980303,true,high,false
8QcTsLE3,3peg1bh7bh4xuzsxamnfbz6ha40bkr,37u1utwh9zz22p5fowh4atylmt3r8f,8QcTsLE3,2020-0188,2020-06-15,21:24:28,21:39:15,NA,incomplete,184,shape,1,right,Green_Plus_Stripes_3.jpg,Red_Star_Grid_3.jpg,Purple_Plus_Chess_2.jpg,right,682.7850000008475,true,high,false
8QcTsLE3,3peg1bh7bh4xuzsxamnfbz6ha40bkr,37u1utwh9zz22p5fowh4atylmt3r8f,8QcTsLE3,2020-0188,2020-06-15,21:24:28,21:39:15,NA,incomplete,185,shape,1,left,Green_Triangle_Dots_1.jpg,Red_Triangle_Stripes_2.jpg,Purple_Star_Grid_1.jpg,left,645.3800000017509,true,high,false
8QcTsLE3,3peg1bh7bh4xuzsxamnfbz6ha40bkr,37u1utwh9zz22p5fowh4atylmt3r8f,8QcTsLE3,2020-0188,2020-06-15,21:24:28,21:39:15,NA,incomplete,186,shape,1,right,Purple_Plus_Stripes_2.jpg,Green_Circle_Dots_2.jpg,Red_Plus_Chess_1.jpg,right,567.5449999980628,true,high,false
8QcTsLE3,3peg1bh7bh4xuzsxamnfbz6ha40bkr,37u1utwh9zz22p5fowh4atylmt3r8f,8QcTsLE3,2020-0188,2020-06-15,21:24:28,21:39:15,NA,incomplete,187,shape,1,left,Green_Star_Dots_4.jpg,Red_Star_Stripes_2.jpg,Purple_Plus_Grid_4.jpg,left,659.319999998901,true,high,false
8QcTsLE3,3peg1bh7bh4xuzsxamnfbz6ha40bkr,37u1utwh9zz22p5fowh4atylmt3r8f,8QcTsLE3,2020-0188,2020-06-15,21:24:28,21:39:15,NA,incomplete,188,shape,1,right,Purple_Plus_Stripes_1.jpg,Red_Star_Grid_1.jpg,Blue_Plus_Dots_4.jpg,right,764.6999999997206,true,high,false
8QcTsLE3,3peg1bh7bh4xuzsxamnfbz6ha40bkr,37u1utwh9zz22p5fowh4atylmt3r8f,8QcTsLE3,2020-0188,2020-06-15,21:24:28,21:39:15,NA,incomplete,189,shape,1,right,Red_Circle_Stripes_3.jpg,Purple_Plus_Dots_3.jpg,Green_Circle_Grid_1.jpg,right,746.7200000028824,true,high,false
8QcTsLE3,3peg1bh7bh4xuzsxamnfbz6ha40bkr,37u1utwh9zz22p5fowh4atylmt3r8f,8QcTsLE3,2020-0188,2020-06-15,21:24:28,21:39:15,NA,incomplete,190,shape,1,left,Red_Triangle_Chess_1.jpg,Purple_Triangle_Grid_3.jpg,Blue_Star_Stripes_1.jpg,left,600.9950000006938,true,high,false
8QcTsLE3,3peg1bh7bh4xuzsxamnfbz6ha40bkr,37u1utwh9zz22p5fowh4atylmt3r8f,8QcTsLE3,2020-0188,2020-06-15,21:24:28,21:39:15,NA,incomplete,191,shape,0,left,Blue_Triangle_Dots_2.jpg,Red_Triangle_Stripes_4.jpg,Purple_Plus_Chess_2.jpg,left,680.4849999970756,true,high,false
8QcTsLE3,3peg1bh7bh4xuzsxamnfbz6ha40bkr,37u1utwh9zz22p5fowh4atylmt3r8f,8QcTsLE3,2020-0188,2020-06-15,21:24:28,21:39:15,NA,incomplete,192,shape,1,right,Blue_Triangle_Stripes_1.jpg,Purple_Star_Grid_1.jpg,Red_Triangle_Chess_4.jpg,right,711.7200000029989,true,high,false
8QcTsLE3,3peg1bh7bh4xuzsxamnfbz6ha40bkr,37u1utwh9zz22p5fowh4atylmt3r8f,8QcTsLE3,2020-0188,2020-06-15,21:24:28,21:39:15,NA,incomplete,193,shape,1,left,Red_Triangle_Grid_1.jpg,Purple_Triangle_Stripes_4.jpg,Blue_Star_Chess_1.jpg,left,672.5149999983842,true,high,false
8QcTsLE3,3peg1bh7bh4xuzsxamnfbz6ha40bkr,37u1utwh9zz22p5fowh4atylmt3r8f,8QcTsLE3,2020-0188,2020-06-15,21:24:28,21:39:15,NA,incomplete,194,shape,1,right,Blue_Plus_Dots_1.jpg,Red_Star_Grid_1.jpg,Purple_Plus_Stripes_4.jpg,right,758.3200000007637,true,high,false
8QcTsLE3,3peg1bh7bh4xuzsxamnfbz6ha40bkr,37u1utwh9zz22p5fowh4atylmt3r8f,8QcTsLE3,2020-0188,2020-06-15,21:24:28,21:39:15,NA,incomplete,195,shape,1,left,Red_Circle_Dots_3.jpg,Purple_Circle_Chess_4.jpg,Green_Plus_Grid_3.jpg,left,700.8500000010245,true,high,false
8QcTsLE3,3peg1bh7bh4xuzsxamnfbz6ha40bkr,37u1utwh9zz22p5fowh4atylmt3r8f,8QcTsLE3,2020-0188,2020-06-15,21:24:28,21:39:15,NA,incomplete,196,shape,1,right,Red_Circle_Chess_2.jpg,Green_Star_Dots_2.jpg,Purple_Circle_Stripes_1.jpg,right,661.2699999968754,true,high,false
8QcTsLE3,3peg1bh7bh4xuzsxamnfbz6ha40bkr,37u1utwh9zz22p5fowh4atylmt3r8f,8QcTsLE3,2020-0188,2020-06-15,21:24:28,21:39:15,NA,incomplete,197,shape,1,left,Purple_Triangle_Grid_3.jpg,Blue_Triangle_Dots_4.jpg,Green_Star_Chess_3.jpg,left,596.5600000018021,true,high,false
8QcTsLE3,3peg1bh7bh4xuzsxamnfbz6ha40bkr,37u1utwh9zz22p5fowh4atylmt3r8f,8QcTsLE3,2020-0188,2020-06-15,21:24:28,21:39:15,NA,incomplete,198,shape,1,left,Purple_Triangle_Grid_1.jpg,Green_Triangle_Dots_3.jpg,Blue_Plus_Chess_1.jpg,left,617.9749999974156,true,high,false
8QcTsLE3,3peg1bh7bh4xuzsxamnfbz6ha40bkr,37u1utwh9zz22p5fowh4atylmt3r8f,8QcTsLE3,2020-0188,2020-06-15,21:24:28,21:39:15,NA,incomplete,199,shape,1,right,Green_Plus_Stripes_3.jpg,Purple_Circle_Chess_3.jpg,Red_Plus_Grid_2.jpg,right,574.4850000010338,true,high,false
8QcTsLE3,3peg1bh7bh4xuzsxamnfbz6ha40bkr,37u1utwh9zz22p5fowh4atylmt3r8f,8QcTsLE3,2020-0188,2020-06-15,21:24:28,21:39:15,NA,incomplete,200,number,0,right,Red_Star_Chess_4.jpg,Green_Star_Stripes_2.jpg,Blue_Triangle_Grid_4.jpg,left,737.600000000326,false,high,false
8QcTsLE3,3peg1bh7bh4xuzsxamnfbz6ha40bkr,37u1utwh9zz22p5fowh4atylmt3r8f,8QcTsLE3,2020-0188,2020-06-15,21:24:28,21:39:15,NA,incomplete,201,number,1,right,Purple_Plus_Stripes_2.jpg,Blue_Plus_Grid_1.jpg,Green_Star_Chess_2.jpg,left,791.7749999978114,false,high,false
8QcTsLE3,3peg1bh7bh4xuzsxamnfbz6ha40bkr,37u1utwh9zz22p5fowh4atylmt3r8f,8QcTsLE3,2020-0188,2020-06-15,21:24:28,21:39:15,NA,incomplete,202,number,1,right,Red_Star_Stripes_2.jpg,Green_Star_Dots_3.jpg,Blue_Plus_Grid_2.jpg,right,1044.625000002212,true,high,false
8QcTsLE3,3peg1bh7bh4xuzsxamnfbz6ha40bkr,37u1utwh9zz22p5fowh4atylmt3r8f,8QcTsLE3,2020-0188,2020-06-15,21:24:28,21:39:15,NA,incomplete,203,number,1,left,Purple_Star_Chess_3.jpg,Blue_Plus_Stripes_3.jpg,Green_Star_Grid_2.jpg,left,1254.3699999987148,true,high,false
8QcTsLE3,3peg1bh7bh4xuzsxamnfbz6ha40bkr,37u1utwh9zz22p5fowh4atylmt3r8f,8QcTsLE3,2020-0188,2020-06-15,21:24:28,21:39:15,NA,incomplete,204,number,1,right,Blue_Triangle_Dots_3.jpg,Red_Triangle_Grid_2.jpg,Green_Plus_Chess_3.jpg,right,594.1300000012852,true,high,false
8QcTsLE3,3peg1bh7bh4xuzsxamnfbz6ha40bkr,37u1utwh9zz22p5fowh4atylmt3r8f,8QcTsLE3,2020-0188,2020-06-15,21:24:28,21:39:15,NA,incomplete,205,number,1,left,Blue_Plus_Dots_4.jpg,Red_Triangle_Grid_4.jpg,Purple_Plus_Stripes_1.jpg,left,606.6699999973644,true,high,false
8QcTsLE3,3peg1bh7bh4xuzsxamnfbz6ha40bkr,37u1utwh9zz22p5fowh4atylmt3r8f,8QcTsLE3,2020-0188,2020-06-15,21:24:28,21:39:15,NA,incomplete,206,number,0,right,Purple_Star_Grid_2.jpg,Green_Star_Dots_1.jpg,Blue_Plus_Chess_2.jpg,right,862.7349999987055,true,high,false
8QcTsLE3,3peg1bh7bh4xuzsxamnfbz6ha40bkr,37u1utwh9zz22p5fowh4atylmt3r8f,8QcTsLE3,2020-0188,2020-06-15,21:24:28,21:39:15,NA,incomplete,207,number,1,left,Blue_Plus_Chess_2.jpg,Green_Star_Stripes_2.jpg,Red_Plus_Grid_3.jpg,left,731.3150000009919,true,high,false
8QcTsLE3,3peg1bh7bh4xuzsxamnfbz6ha40bkr,37u1utwh9zz22p5fowh4atylmt3r8f,8QcTsLE3,2020-0188,2020-06-15,21:24:28,21:39:15,NA,incomplete,208,number,1,left,Red_Star_Stripes_2.jpg,Blue_Circle_Chess_2.jpg,Green_Star_Dots_3.jpg,left,746.1150000017369,true,high,false
8QcTsLE3,3peg1bh7bh4xuzsxamnfbz6ha40bkr,37u1utwh9zz22p5fowh4atylmt3r8f,8QcTsLE3,2020-0188,2020-06-15,21:24:28,21:39:15,NA,incomplete,209,number,0,left,Purple_Plus_Stripes_1.jpg,Red_Star_Grid_1.jpg,Blue_Plus_Dots_4.jpg,left,684.5350000002654,true,high,false
8QcTsLE3,3peg1bh7bh4xuzsxamnfbz6ha40bkr,37u1utwh9zz22p5fowh4atylmt3r8f,8QcTsLE3,2020-0188,2020-06-15,21:24:28,21:39:15,NA,incomplete,210,number,1,right,Red_Circle_Grid_3.jpg,Blue_Circle_Chess_4.jpg,Purple_Triangle_Stripes_3.jpg,right,877.5000000023283,true,high,false
8QcTsLE3,3peg1bh7bh4xuzsxamnfbz6ha40bkr,37u1utwh9zz22p5fowh4atylmt3r8f,8QcTsLE3,2020-0188,2020-06-15,21:24:28,21:39:15,NA,incomplete,211,number,1,left,Red_Triangle_Dots_2.jpg,Green_Circle_Stripes_2.jpg,Blue_Triangle_Grid_3.jpg,right,1019.0049999982584,false,high,false
8QcTsLE3,3peg1bh7bh4xuzsxamnfbz6ha40bkr,37u1utwh9zz22p5fowh4atylmt3r8f,8QcTsLE3,2020-0188,2020-06-15,21:24:28,21:39:15,NA,incomplete,212,number,1,left,Red_Star_Grid_2.jpg,Purple_Plus_Chess_2.jpg,Green_Star_Stripes_1.jpg,left,768.4250000020256,true,high,false
8QcTsLE3,3peg1bh7bh4xuzsxamnfbz6ha40bkr,37u1utwh9zz22p5fowh4atylmt3r8f,8QcTsLE3,2020-0188,2020-06-15,21:24:28,21:39:15,NA,incomplete,213,number,1,left,Green_Star_Stripes_4.jpg,Red_Circle_Grid_4.jpg,Purple_Star_Chess_1.jpg,left,778.2650000008289,true,high,false
8QcTsLE3,3peg1bh7bh4xuzsxamnfbz6ha40bkr,37u1utwh9zz22p5fowh4atylmt3r8f,8QcTsLE3,2020-0188,2020-06-15,21:24:28,21:39:15,NA,incomplete,214,number,1,left,Blue_Plus_Grid_2.jpg,Red_Circle_Stripes_2.jpg,Green_Plus_Chess_1.jpg,left,744.9649999981048,true,high,false
8QcTsLE3,3peg1bh7bh4xuzsxamnfbz6ha40bkr,37u1utwh9zz22p5fowh4atylmt3r8f,8QcTsLE3,2020-0188,2020-06-15,21:24:28,21:39:15,NA,incomplete,215,number,1,right,Blue_Circle_Stripes_1.jpg,Purple_Circle_Grid_4.jpg,Green_Star_Dots_1.jpg,right,765.0150000009453,true,high,false
8QcTsLE3,3peg1bh7bh4xuzsxamnfbz6ha40bkr,37u1utwh9zz22p5fowh4atylmt3r8f,8QcTsLE3,2020-0188,2020-06-15,21:24:28,21:39:15,NA,incomplete,216,number,1,left,Green_Triangle_Chess_3.jpg,Purple_Plus_Stripes_3.jpg,Blue_Triangle_Dots_4.jpg,right,835.7199999991572,false,high,false
8QcTsLE3,3peg1bh7bh4xuzsxamnfbz6ha40bkr,37u1utwh9zz22p5fowh4atylmt3r8f,8QcTsLE3,2020-0188,2020-06-15,21:24:28,21:39:15,NA,incomplete,217,number,0,left,Purple_Star_Chess_4.jpg,Red_Circle_Stripes_4.jpg,Blue_Star_Dots_3.jpg,left,842.805000000284,true,high,false
8QcTsLE3,3peg1bh7bh4xuzsxamnfbz6ha40bkr,37u1utwh9zz22p5fowh4atylmt3r8f,8QcTsLE3,2020-0188,2020-06-15,21:24:28,21:39:15,NA,incomplete,218,number,1,right,Blue_Triangle_Chess_4.jpg,Red_Triangle_Stripes_2.jpg,Purple_Plus_Dots_4.jpg,right,701.435000002617,true,high,false
8QcTsLE3,3peg1bh7bh4xuzsxamnfbz6ha40bkr,37u1utwh9zz22p5fowh4atylmt3r8f,8QcTsLE3,2020-0188,2020-06-15,21:24:28,21:39:15,NA,incomplete,219,number,0,right,Purple_Circle_Chess_3.jpg,Blue_Circle_Stripes_2.jpg,Green_Star_Dots_3.jpg,left,596.6200000002282,false,high,false
8QcTsLE3,3peg1bh7bh4xuzsxamnfbz6ha40bkr,37u1utwh9zz22p5fowh4atylmt3r8f,8QcTsLE3,2020-0188,2020-06-15,21:24:28,21:39:15,NA,incomplete,220,shape,1,left,Green_Triangle_Stripes_4.jpg,Blue_Triangle_Grid_2.jpg,Purple_Star_Chess_4.jpg,left,710.6149999999907,true,high,false
8QcTsLE3,3peg1bh7bh4xuzsxamnfbz6ha40bkr,37u1utwh9zz22p5fowh4atylmt3r8f,8QcTsLE3,2020-0188,2020-06-15,21:24:28,21:39:15,NA,incomplete,221,shape,0,right,Green_Plus_Stripes_1.jpg,Blue_Star_Grid_1.jpg,Red_Plus_Dots_2.jpg,right,1127.7399999998743,true,high,false
8QcTsLE3,3peg1bh7bh4xuzsxamnfbz6ha40bkr,37u1utwh9zz22p5fowh4atylmt3r8f,8QcTsLE3,2020-0188,2020-06-15,21:24:28,21:39:15,NA,incomplete,222,shape,1,right,Red_Plus_Grid_1.jpg,Green_Circle_Chess_1.jpg,Blue_Plus_Dots_4.jpg,right,687.2699999985052,true,high,false
8QcTsLE3,3peg1bh7bh4xuzsxamnfbz6ha40bkr,37u1utwh9zz22p5fowh4atylmt3r8f,8QcTsLE3,2020-0188,2020-06-15,21:24:28,21:39:15,NA,incomplete,223,shape,1,right,Green_Star_Stripes_2.jpg,Purple_Triangle_Chess_2.jpg,Blue_Star_Dots_4.jpg,left,867.9100000008475,false,high,false
8QcTsLE3,3peg1bh7bh4xuzsxamnfbz6ha40bkr,37u1utwh9zz22p5fowh4atylmt3r8f,8QcTsLE3,2020-0188,2020-06-15,21:24:28,21:39:15,NA,incomplete,224,shape,1,left,Red_Star_Grid_3.jpg,Green_Star_Stripes_4.jpg,Purple_Triangle_Chess_3.jpg,left,767.5049999998882,true,high,false
8QcTsLE3,3peg1bh7bh4xuzsxamnfbz6ha40bkr,37u1utwh9zz22p5fowh4atylmt3r8f,8QcTsLE3,2020-0188,2020-06-15,21:24:28,21:39:15,NA,incomplete,225,shape,1,left,Purple_Triangle_Dots_3.jpg,Green_Triangle_Chess_1.jpg,Red_Circle_Stripes_3.jpg,left,845.7699999999022,true,high,false
8QcTsLE3,3peg1bh7bh4xuzsxamnfbz6ha40bkr,37u1utwh9zz22p5fowh4atylmt3r8f,8QcTsLE3,2020-0188,2020-06-15,21:24:28,21:39:15,NA,incomplete,226,shape,1,left,Red_Circle_Chess_3.jpg,Green_Circle_Dots_2.jpg,Blue_Triangle_Stripes_3.jpg,left,670.3600000001024,true,high,false
8QcTsLE3,3peg1bh7bh4xuzsxamnfbz6ha40bkr,37u1utwh9zz22p5fowh4atylmt3r8f,8QcTsLE3,2020-0188,2020-06-15,21:24:28,21:39:15,NA,incomplete,227,shape,1,right,Blue_Triangle_Grid_1.jpg,Green_Circle_Dots_1.jpg,Red_Triangle_Stripes_4.jpg,right,609.0150000018766,true,high,false
8QcTsLE3,3peg1bh7bh4xuzsxamnfbz6ha40bkr,37u1utwh9zz22p5fowh4atylmt3r8f,8QcTsLE3,2020-0188,2020-06-15,21:24:28,21:39:15,NA,incomplete,228,shape,0,left,Red_Triangle_Grid_4.jpg,Blue_Triangle_Chess_3.jpg,Purple_Circle_Stripes_4.jpg,left,655.7800000009593,true,high,false
8QcTsLE3,3peg1bh7bh4xuzsxamnfbz6ha40bkr,37u1utwh9zz22p5fowh4atylmt3r8f,8QcTsLE3,2020-0188,2020-06-15,21:24:28,21:39:15,NA,incomplete,229,shape,1,left,Purple_Plus_Chess_1.jpg,Blue_Plus_Stripes_3.jpg,Green_Circle_Grid_1.jpg,left,578.1700000007404,true,high,false
8QcTsLE3,3peg1bh7bh4xuzsxamnfbz6ha40bkr,37u1utwh9zz22p5fowh4atylmt3r8f,8QcTsLE3,2020-0188,2020-06-15,21:24:28,21:39:15,NA,incomplete,230,shape,1,right,Green_Plus_Stripes_4.jpg,Purple_Triangle_Grid_4.jpg,Red_Plus_Dots_2.jpg,right,718.3350000013597,true,high,false
8QcTsLE3,3peg1bh7bh4xuzsxamnfbz6ha40bkr,37u1utwh9zz22p5fowh4atylmt3r8f,8QcTsLE3,2020-0188,2020-06-15,21:24:28,21:39:15,NA,incomplete,231,shape,1,left,Purple_Circle_Chess_1.jpg,Green_Circle_Grid_4.jpg,Blue_Triangle_Dots_1.jpg,left,791.5750000029802,true,high,false
8QcTsLE3,3peg1bh7bh4xuzsxamnfbz6ha40bkr,37u1utwh9zz22p5fowh4atylmt3r8f,8QcTsLE3,2020-0188,2020-06-15,21:24:28,21:39:15,NA,incomplete,232,shape,1,left,Red_Triangle_Chess_3.jpg,Green_Triangle_Stripes_2.jpg,Purple_Circle_Grid_3.jpg,left,745.3750000022119,true,high,false
8QcTsLE3,3peg1bh7bh4xuzsxamnfbz6ha40bkr,37u1utwh9zz22p5fowh4atylmt3r8f,8QcTsLE3,2020-0188,2020-06-15,21:24:28,21:39:15,NA,incomplete,233,shape,1,right,Red_Triangle_Stripes_2.jpg,Blue_Star_Chess_2.jpg,Green_Triangle_Grid_4.jpg,right,808.7899999992223,true,high,false
8QcTsLE3,3peg1bh7bh4xuzsxamnfbz6ha40bkr,37u1utwh9zz22p5fowh4atylmt3r8f,8QcTsLE3,2020-0188,2020-06-15,21:24:28,21:39:15,NA,incomplete,234,shape,0,left,Red_Star_Dots_2.jpg,Blue_Star_Chess_1.jpg,Green_Plus_Grid_2.jpg,left,740.6550000014249,true,high,false
8QcTsLE3,3peg1bh7bh4xuzsxamnfbz6ha40bkr,37u1utwh9zz22p5fowh4atylmt3r8f,8QcTsLE3,2020-0188,2020-06-15,21:24:28,21:39:15,NA,incomplete,235,shape,1,left,Blue_Triangle_Grid_4.jpg,Red_Triangle_Dots_3.jpg,Purple_Circle_Stripes_4.jpg,left,808.1050000000978,true,high,false
8QcTsLE3,3peg1bh7bh4xuzsxamnfbz6ha40bkr,37u1utwh9zz22p5fowh4atylmt3r8f,8QcTsLE3,2020-0188,2020-06-15,21:24:28,21:39:15,NA,incomplete,236,shape,1,right,Purple_Circle_Grid_3.jpg,Red_Triangle_Stripes_3.jpg,Blue_Circle_Chess_4.jpg,right,703.03000000061,true,high,false
8QcTsLE3,3peg1bh7bh4xuzsxamnfbz6ha40bkr,37u1utwh9zz22p5fowh4atylmt3r8f,8QcTsLE3,2020-0188,2020-06-15,21:24:28,21:39:15,NA,incomplete,237,shape,1,right,Red_Triangle_Stripes_4.jpg,Purple_Star_Grid_4.jpg,Blue_Triangle_Chess_1.jpg,right,816.0300000017742,true,high,false
8QcTsLE3,3peg1bh7bh4xuzsxamnfbz6ha40bkr,37u1utwh9zz22p5fowh4atylmt3r8f,8QcTsLE3,2020-0188,2020-06-15,21:24:28,21:39:15,NA,incomplete,238,shape,0,left,Blue_Circle_Grid_1.jpg,Purple_Circle_Chess_2.jpg,Red_Triangle_Dots_1.jpg,left,597.2299999993993,true,high,false
8QcTsLE3,3peg1bh7bh4xuzsxamnfbz6ha40bkr,37u1utwh9zz22p5fowh4atylmt3r8f,8QcTsLE3,2020-0188,2020-06-15,21:24:28,21:39:15,NA,incomplete,239,shape,1,right,Purple_Circle_Grid_2.jpg,Red_Star_Stripes_2.jpg,Blue_Circle_Dots_4.jpg,right,638.2149999990361,true,high,false
8QcTsLE3,3peg1bh7bh4xuzsxamnfbz6ha40bkr,37u1utwh9zz22p5fowh4atylmt3r8f,8QcTsLE3,2020-0188,2020-06-15,21:24:28,21:39:15,NA,NA,instruction example,color,NA,NA,Green_Plus_Chess_3.jpg,Green_Triangle_Dots_4.jpg,Blue_Star_Chess_2.jpg,NA,NA,NA,NA,undefined
8QcTsLE3,3peg1bh7bh4xuzsxamnfbz6ha40bkr,37u1utwh9zz22p5fowh4atylmt3r8f,8QcTsLE3,2020-0188,2020-06-15,21:24:28,21:39:15,NA,NA,instruction example,color,NA,NA,Green_Plus_Stripes_1.jpg,Purple_Star_Stripes_4.jpg,Green_Circle_Dots_2.jpg,NA,NA,NA,NA,undefined
8QcTsLE3,3peg1bh7bh4xuzsxamnfbz6ha40bkr,37u1utwh9zz22p5fowh4atylmt3r8f,8QcTsLE3,2020-0188,2020-06-15,21:24:28,21:39:15,NA,NA,instruction example,color,NA,NA,Purple_Star_Stripes_3.jpg,Green_Circle_Grid_3.jpg,Red_Star_Dots_2.jpg,NA,NA,NA,NA,undefined
8QcTsLE3,3peg1bh7bh4xuzsxamnfbz6ha40bkr,37u1utwh9zz22p5fowh4atylmt3r8f,8QcTsLE3,2020-0188,2020-06-15,21:24:28,21:39:15,NA,NA,instruction example,color,NA,NA,Purple_Circle_Chess_4.jpg,Red_Circle_Stripes_3.jpg,Green_Triangle_Dots_4.jpg,NA,NA,NA,NA,undefined
8QcTsLE3,3peg1bh7bh4xuzsxamnfbz6ha40bkr,37u1utwh9zz22p5fowh4atylmt3r8f,8QcTsLE3,2020-0188,2020-06-15,21:24:28,21:39:15,852142.8799999994,887261.3149999997,NA,NA,NA,NA,NA,NA,NA,NA,NA,NA,NA,undefined
