workerId,hitId,assignmentId,subject,studyid,exp_date,exp_start,exp_end,time_start,time_end,trial,type,reward_validity,answer,image_top,image_left,image_right,response,response_time,response_acc,volatility,age,race,gender,ethnicity,color,vision,neuro,practice
kUg2KDXV,3y7ltze0zwz7ft0pae7k34mi28juzv,37uewgm5hxlkrplupb8pvjbd4rsr1u,kUg2KDXV,2020-0188,2020-05-21,14:21:06,14:38:52,NA,incomplete,0,filling,1,left,Green_Star_Stripes_3.jpg,Blue_Triangle_Stripes_2.jpg,Green_Plus_Dots_4.jpg,right,901.490000076592,false,NA,NA,NA,NA,NA,NA,NA,NA,true
kUg2KDXV,3y7ltze0zwz7ft0pae7k34mi28juzv,37uewgm5hxlkrplupb8pvjbd4rsr1u,kUg2KDXV,2020-0188,2020-05-21,14:21:06,14:38:52,NA,incomplete,1,filling,1,left,Green_Plus_Chess_4.jpg,Purple_Star_Chess_3.jpg,Green_Triangle_Grid_1.jpg,left,1522.2549999598414,true,NA,NA,NA,NA,NA,NA,NA,NA,true
kUg2KDXV,3y7ltze0zwz7ft0pae7k34mi28juzv,37uewgm5hxlkrplupb8pvjbd4rsr1u,kUg2KDXV,2020-0188,2020-05-21,14:21:06,14:38:52,NA,incomplete,2,filling,1,right,Red_Circle_Chess_2.jpg,Red_Triangle_Grid_4.jpg,Purple_Plus_Chess_3.jpg,right,1078.3649999648333,true,NA,NA,NA,NA,NA,NA,NA,NA,true
kUg2KDXV,3y7ltze0zwz7ft0pae7k34mi28juzv,37uewgm5hxlkrplupb8pvjbd4rsr1u,kUg2KDXV,2020-0188,2020-05-21,14:21:06,14:38:52,NA,incomplete,3,filling,1,right,Red_Triangle_Chess_4.jpg,Red_Plus_Stripes_1.jpg,Purple_Circle_Chess_2.jpg,right,1295.9199999459088,true,NA,NA,NA,NA,NA,NA,NA,NA,true
kUg2KDXV,3y7ltze0zwz7ft0pae7k34mi28juzv,37uewgm5hxlkrplupb8pvjbd4rsr1u,kUg2KDXV,2020-0188,2020-05-21,14:21:06,14:38:52,NA,incomplete,4,filling,0,left,Purple_Circle_Dots_3.jpg,Red_Star_Dots_2.jpg,Purple_Plus_Chess_1.jpg,left,1226.8199999816716,true,NA,NA,NA,NA,NA,NA,NA,NA,true
kUg2KDXV,3y7ltze0zwz7ft0pae7k34mi28juzv,37uewgm5hxlkrplupb8pvjbd4rsr1u,kUg2KDXV,2020-0188,2020-05-21,14:21:06,14:38:52,NA,incomplete,5,filling,0,right,Red_Circle_Stripes_2.jpg,Red_Triangle_Dots_3.jpg,Green_Star_Stripes_4.jpg,right,1292.6600000355393,true,NA,NA,NA,NA,NA,NA,NA,NA,true
kUg2KDXV,3y7ltze0zwz7ft0pae7k34mi28juzv,37uewgm5hxlkrplupb8pvjbd4rsr1u,kUg2KDXV,2020-0188,2020-05-21,14:21:06,14:38:52,NA,incomplete,6,filling,1,right,Red_Star_Stripes_4.jpg,Red_Circle_Grid_3.jpg,Purple_Triangle_Stripes_1.jpg,right,1969.2999999970198,true,NA,NA,NA,NA,NA,NA,NA,NA,true
kUg2KDXV,3y7ltze0zwz7ft0pae7k34mi28juzv,37uewgm5hxlkrplupb8pvjbd4rsr1u,kUg2KDXV,2020-0188,2020-05-21,14:21:06,14:38:52,NA,incomplete,7,filling,1,left,Purple_Star_Dots_2.jpg,Blue_Circle_Dots_3.jpg,Purple_Triangle_Chess_1.jpg,left,1071.1399998981506,true,NA,NA,NA,NA,NA,NA,NA,NA,true
kUg2KDXV,3y7ltze0zwz7ft0pae7k34mi28juzv,37uewgm5hxlkrplupb8pvjbd4rsr1u,kUg2KDXV,2020-0188,2020-05-21,14:21:06,14:38:52,NA,incomplete,8,filling,0,right,Green_Circle_Dots_2.jpg,Green_Plus_Grid_4.jpg,Red_Star_Dots_1.jpg,right,907.3199999984354,true,NA,NA,NA,NA,NA,NA,NA,NA,true
kUg2KDXV,3y7ltze0zwz7ft0pae7k34mi28juzv,37uewgm5hxlkrplupb8pvjbd4rsr1u,kUg2KDXV,2020-0188,2020-05-21,14:21:06,14:38:52,NA,incomplete,9,filling,1,right,Blue_Plus_Stripes_2.jpg,Blue_Circle_Chess_1.jpg,Green_Star_Stripes_3.jpg,right,1624.1500000469387,true,NA,NA,NA,NA,NA,NA,NA,NA,true
kUg2KDXV,3y7ltze0zwz7ft0pae7k34mi28juzv,37uewgm5hxlkrplupb8pvjbd4rsr1u,kUg2KDXV,2020-0188,2020-05-21,14:21:06,14:38:52,NA,incomplete,10,filling,1,left,Red_Circle_Grid_2.jpg,Green_Plus_Grid_3.jpg,Red_Star_Stripes_1.jpg,left,1831.5549998078495,true,NA,NA,NA,NA,NA,NA,NA,NA,true
kUg2KDXV,3y7ltze0zwz7ft0pae7k34mi28juzv,37uewgm5hxlkrplupb8pvjbd4rsr1u,kUg2KDXV,2020-0188,2020-05-21,14:21:06,14:38:52,NA,incomplete,11,filling,1,left,Blue_Plus_Dots_2.jpg,Green_Circle_Dots_3.jpg,Blue_Star_Chess_1.jpg,left,1425.4099999088794,true,NA,NA,NA,NA,NA,NA,NA,NA,true
kUg2KDXV,3y7ltze0zwz7ft0pae7k34mi28juzv,37uewgm5hxlkrplupb8pvjbd4rsr1u,kUg2KDXV,2020-0188,2020-05-21,14:21:06,14:38:52,NA,incomplete,12,filling,1,right,Green_Plus_Stripes_4.jpg,Green_Star_Dots_3.jpg,Red_Triangle_Stripes_1.jpg,right,1033.8749999646097,true,NA,NA,NA,NA,NA,NA,NA,NA,true
kUg2KDXV,3y7ltze0zwz7ft0pae7k34mi28juzv,37uewgm5hxlkrplupb8pvjbd4rsr1u,kUg2KDXV,2020-0188,2020-05-21,14:21:06,14:38:52,NA,incomplete,13,filling,1,left,Blue_Circle_Dots_2.jpg,Green_Triangle_Dots_3.jpg,Blue_Plus_Grid_4.jpg,left,1811.574999941513,true,NA,NA,NA,NA,NA,NA,NA,NA,true
kUg2KDXV,3y7ltze0zwz7ft0pae7k34mi28juzv,37uewgm5hxlkrplupb8pvjbd4rsr1u,kUg2KDXV,2020-0188,2020-05-21,14:21:06,14:38:52,NA,incomplete,14,filling,0,right,Green_Circle_Stripes_2.jpg,Green_Triangle_Dots_3.jpg,Blue_Star_Stripes_1.jpg,right,1114.934999961406,true,NA,NA,NA,NA,NA,NA,NA,NA,true
kUg2KDXV,3y7ltze0zwz7ft0pae7k34mi28juzv,37uewgm5hxlkrplupb8pvjbd4rsr1u,kUg2KDXV,2020-0188,2020-05-21,14:21:06,14:38:52,NA,incomplete,15,filling,1,left,Blue_Star_Grid_3.jpg,Red_Triangle_Grid_2.jpg,Blue_Plus_Dots_4.jpg,left,1226.5449999831617,true,NA,NA,NA,NA,NA,NA,NA,NA,true
kUg2KDXV,3y7ltze0zwz7ft0pae7k34mi28juzv,37uewgm5hxlkrplupb8pvjbd4rsr1u,kUg2KDXV,2020-0188,2020-05-21,14:21:06,14:38:52,NA,incomplete,16,filling,1,left,Green_Star_Chess_2.jpg,Purple_Triangle_Chess_3.jpg,Green_Circle_Stripes_1.jpg,left,1368.125000037253,true,NA,NA,NA,NA,NA,NA,NA,NA,true
kUg2KDXV,3y7ltze0zwz7ft0pae7k34mi28juzv,37uewgm5hxlkrplupb8pvjbd4rsr1u,kUg2KDXV,2020-0188,2020-05-21,14:21:06,14:38:52,NA,incomplete,17,filling,1,left,Red_Circle_Grid_4.jpg,Green_Plus_Grid_3.jpg,Red_Triangle_Stripes_1.jpg,left,1051.19499983266,true,NA,NA,NA,NA,NA,NA,NA,NA,true
kUg2KDXV,3y7ltze0zwz7ft0pae7k34mi28juzv,37uewgm5hxlkrplupb8pvjbd4rsr1u,kUg2KDXV,2020-0188,2020-05-21,14:21:06,14:38:52,NA,incomplete,18,filling,1,right,Red_Triangle_Dots_1.jpg,Red_Plus_Grid_3.jpg,Purple_Circle_Dots_2.jpg,right,890.7749999780208,true,NA,NA,NA,NA,NA,NA,NA,NA,true
kUg2KDXV,3y7ltze0zwz7ft0pae7k34mi28juzv,37uewgm5hxlkrplupb8pvjbd4rsr1u,kUg2KDXV,2020-0188,2020-05-21,14:21:06,14:38:52,NA,incomplete,19,filling,1,left,Purple_Circle_Chess_1.jpg,Green_Plus_Chess_2.jpg,Purple_Triangle_Dots_4.jpg,left,970.024999929592,true,NA,NA,NA,NA,NA,NA,NA,NA,true
kUg2KDXV,3y7ltze0zwz7ft0pae7k34mi28juzv,37uewgm5hxlkrplupb8pvjbd4rsr1u,kUg2KDXV,2020-0188,2020-05-21,14:21:06,14:38:52,NA,incomplete,20,color,0,right,Blue_Star_Stripes_3.jpg,Red_Circle_Stripes_2.jpg,Blue_Plus_Chess_1.jpg,left,1249.9900001566857,false,NA,NA,NA,NA,NA,NA,NA,NA,true
kUg2KDXV,3y7ltze0zwz7ft0pae7k34mi28juzv,37uewgm5hxlkrplupb8pvjbd4rsr1u,kUg2KDXV,2020-0188,2020-05-21,14:21:06,14:38:52,NA,incomplete,21,color,0,right,Green_Star_Grid_1.jpg,Purple_Circle_Grid_2.jpg,Green_Triangle_Stripes_4.jpg,right,812.4199998565018,true,NA,NA,NA,NA,NA,NA,NA,NA,true
kUg2KDXV,3y7ltze0zwz7ft0pae7k34mi28juzv,37uewgm5hxlkrplupb8pvjbd4rsr1u,kUg2KDXV,2020-0188,2020-05-21,14:21:06,14:38:52,NA,incomplete,22,color,1,left,Purple_Star_Chess_1.jpg,Purple_Circle_Dots_3.jpg,Red_Triangle_Chess_2.jpg,left,763.5449999943376,true,NA,NA,NA,NA,NA,NA,NA,NA,true
kUg2KDXV,3y7ltze0zwz7ft0pae7k34mi28juzv,37uewgm5hxlkrplupb8pvjbd4rsr1u,kUg2KDXV,2020-0188,2020-05-21,14:21:06,14:38:52,NA,incomplete,23,color,1,left,Green_Star_Stripes_4.jpg,Green_Circle_Grid_3.jpg,Red_Triangle_Stripes_2.jpg,left,792.7300001028925,true,NA,NA,NA,NA,NA,NA,NA,NA,true
kUg2KDXV,3y7ltze0zwz7ft0pae7k34mi28juzv,37uewgm5hxlkrplupb8pvjbd4rsr1u,kUg2KDXV,2020-0188,2020-05-21,14:21:06,14:38:52,NA,incomplete,24,color,1,right,Red_Star_Dots_4.jpg,Green_Triangle_Dots_2.jpg,Red_Plus_Stripes_3.jpg,right,631.214999826625,true,NA,NA,NA,NA,NA,NA,NA,NA,true
kUg2KDXV,3y7ltze0zwz7ft0pae7k34mi28juzv,37uewgm5hxlkrplupb8pvjbd4rsr1u,kUg2KDXV,2020-0188,2020-05-21,14:21:06,14:38:52,NA,incomplete,25,color,1,right,Purple_Triangle_Chess_2.jpg,Blue_Circle_Chess_1.jpg,Purple_Plus_Stripes_3.jpg,right,693.1949998252094,true,NA,NA,NA,NA,NA,NA,NA,NA,true
kUg2KDXV,3y7ltze0zwz7ft0pae7k34mi28juzv,37uewgm5hxlkrplupb8pvjbd4rsr1u,kUg2KDXV,2020-0188,2020-05-21,14:21:06,14:38:52,NA,incomplete,26,color,0,right,Blue_Star_Chess_1.jpg,Red_Circle_Chess_2.jpg,Blue_Plus_Dots_4.jpg,right,691.3399999029934,true,NA,NA,NA,NA,NA,NA,NA,NA,true
kUg2KDXV,3y7ltze0zwz7ft0pae7k34mi28juzv,37uewgm5hxlkrplupb8pvjbd4rsr1u,kUg2KDXV,2020-0188,2020-05-21,14:21:06,14:38:52,NA,incomplete,27,color,1,right,Blue_Plus_Dots_2.jpg,Red_Star_Dots_1.jpg,Blue_Circle_Stripes_3.jpg,right,584.3350000213832,true,NA,NA,NA,NA,NA,NA,NA,NA,true
kUg2KDXV,3y7ltze0zwz7ft0pae7k34mi28juzv,37uewgm5hxlkrplupb8pvjbd4rsr1u,kUg2KDXV,2020-0188,2020-05-21,14:21:06,14:38:52,NA,incomplete,28,color,1,right,Red_Circle_Grid_2.jpg,Green_Star_Grid_4.jpg,Red_Plus_Chess_1.jpg,right,804.8500001896173,true,NA,NA,NA,NA,NA,NA,NA,NA,true
kUg2KDXV,3y7ltze0zwz7ft0pae7k34mi28juzv,37uewgm5hxlkrplupb8pvjbd4rsr1u,kUg2KDXV,2020-0188,2020-05-21,14:21:06,14:38:52,NA,incomplete,29,color,1,left,Green_Star_Chess_2.jpg,Green_Triangle_Dots_4.jpg,Blue_Plus_Chess_3.jpg,left,575.5449999123812,true,NA,NA,NA,NA,NA,NA,NA,NA,true
kUg2KDXV,3y7ltze0zwz7ft0pae7k34mi28juzv,37uewgm5hxlkrplupb8pvjbd4rsr1u,kUg2KDXV,2020-0188,2020-05-21,14:21:06,14:38:52,NA,incomplete,30,color,1,right,Blue_Plus_Grid_1.jpg,Red_Triangle_Grid_3.jpg,Blue_Circle_Chess_4.jpg,right,569.3400001619011,true,NA,NA,NA,NA,NA,NA,NA,NA,true
kUg2KDXV,3y7ltze0zwz7ft0pae7k34mi28juzv,37uewgm5hxlkrplupb8pvjbd4rsr1u,kUg2KDXV,2020-0188,2020-05-21,14:21:06,14:38:52,NA,incomplete,31,color,1,left,Purple_Star_Chess_4.jpg,Purple_Circle_Dots_2.jpg,Green_Plus_Chess_3.jpg,left,564.8000000510365,true,NA,NA,NA,NA,NA,NA,NA,NA,true
kUg2KDXV,3y7ltze0zwz7ft0pae7k34mi28juzv,37uewgm5hxlkrplupb8pvjbd4rsr1u,kUg2KDXV,2020-0188,2020-05-21,14:21:06,14:38:52,NA,incomplete,32,color,1,left,Red_Star_Stripes_3.jpg,Red_Circle_Grid_4.jpg,Purple_Plus_Stripes_2.jpg,left,617.4249998293817,true,NA,NA,NA,NA,NA,NA,NA,NA,true
kUg2KDXV,3y7ltze0zwz7ft0pae7k34mi28juzv,37uewgm5hxlkrplupb8pvjbd4rsr1u,kUg2KDXV,2020-0188,2020-05-21,14:21:06,14:38:52,NA,incomplete,33,color,0,right,Blue_Triangle_Chess_1.jpg,Red_Star_Chess_3.jpg,Blue_Plus_Grid_2.jpg,right,618.769999826327,true,NA,NA,NA,NA,NA,NA,NA,NA,true
kUg2KDXV,3y7ltze0zwz7ft0pae7k34mi28juzv,37uewgm5hxlkrplupb8pvjbd4rsr1u,kUg2KDXV,2020-0188,2020-05-21,14:21:06,14:38:52,NA,incomplete,34,color,1,left,Purple_Circle_Dots_1.jpg,Purple_Triangle_Chess_3.jpg,Red_Plus_Dots_2.jpg,left,719.4750001654029,true,NA,NA,NA,NA,NA,NA,NA,NA,true
kUg2KDXV,3y7ltze0zwz7ft0pae7k34mi28juzv,37uewgm5hxlkrplupb8pvjbd4rsr1u,kUg2KDXV,2020-0188,2020-05-21,14:21:06,14:38:52,NA,incomplete,35,color,1,left,Red_Plus_Grid_3.jpg,Red_Triangle_Chess_2.jpg,Blue_Circle_Grid_4.jpg,left,537.5649998895824,true,NA,NA,NA,NA,NA,NA,NA,NA,true
kUg2KDXV,3y7ltze0zwz7ft0pae7k34mi28juzv,37uewgm5hxlkrplupb8pvjbd4rsr1u,kUg2KDXV,2020-0188,2020-05-21,14:21:06,14:38:52,NA,incomplete,36,color,1,left,Green_Triangle_Stripes_2.jpg,Green_Plus_Chess_4.jpg,Purple_Star_Stripes_1.jpg,left,557.4900000356138,true,NA,NA,NA,NA,NA,NA,NA,NA,true
kUg2KDXV,3y7ltze0zwz7ft0pae7k34mi28juzv,37uewgm5hxlkrplupb8pvjbd4rsr1u,kUg2KDXV,2020-0188,2020-05-21,14:21:06,14:38:52,NA,incomplete,37,color,1,right,Green_Circle_Stripes_2.jpg,Purple_Plus_Stripes_4.jpg,Green_Star_Chess_3.jpg,right,554.5899998396635,true,NA,NA,NA,NA,NA,NA,NA,NA,true
kUg2KDXV,3y7ltze0zwz7ft0pae7k34mi28juzv,37uewgm5hxlkrplupb8pvjbd4rsr1u,kUg2KDXV,2020-0188,2020-05-21,14:21:06,14:38:52,NA,incomplete,38,color,1,right,Blue_Star_Stripes_2.jpg,Green_Triangle_Stripes_3.jpg,Blue_Circle_Chess_4.jpg,right,710.2300000842661,true,NA,NA,NA,NA,NA,NA,NA,NA,true
kUg2KDXV,3y7ltze0zwz7ft0pae7k34mi28juzv,37uewgm5hxlkrplupb8pvjbd4rsr1u,kUg2KDXV,2020-0188,2020-05-21,14:21:06,14:38:52,NA,incomplete,39,color,1,left,Blue_Plus_Chess_4.jpg,Blue_Triangle_Stripes_1.jpg,Purple_Star_Chess_3.jpg,left,613.3499999996275,true,NA,NA,NA,NA,NA,NA,NA,NA,true
kUg2KDXV,3y7ltze0zwz7ft0pae7k34mi28juzv,37uewgm5hxlkrplupb8pvjbd4rsr1u,kUg2KDXV,2020-0188,2020-05-21,14:21:06,14:38:52,NA,incomplete,0,filling,1,left,Green_Triangle_Stripes_4.jpg,Blue_Star_Stripes_1.jpg,Green_Circle_Chess_2.jpg,right,1426.7749998252839,false,low,NA,NA,NA,NA,NA,NA,NA,false
kUg2KDXV,3y7ltze0zwz7ft0pae7k34mi28juzv,37uewgm5hxlkrplupb8pvjbd4rsr1u,kUg2KDXV,2020-0188,2020-05-21,14:21:06,14:38:52,NA,incomplete,1,filling,1,left,Red_Plus_Stripes_4.jpg,Blue_Circle_Stripes_2.jpg,Red_Star_Chess_1.jpg,left,1226.5849998220801,true,low,NA,NA,NA,NA,NA,NA,NA,false
kUg2KDXV,3y7ltze0zwz7ft0pae7k34mi28juzv,37uewgm5hxlkrplupb8pvjbd4rsr1u,kUg2KDXV,2020-0188,2020-05-21,14:21:06,14:38:52,NA,incomplete,2,filling,0,right,Purple_Plus_Chess_1.jpg,Purple_Triangle_Dots_2.jpg,Blue_Circle_Chess_3.jpg,right,1235.0649998988956,true,low,NA,NA,NA,NA,NA,NA,NA,false
kUg2KDXV,3y7ltze0zwz7ft0pae7k34mi28juzv,37uewgm5hxlkrplupb8pvjbd4rsr1u,kUg2KDXV,2020-0188,2020-05-21,14:21:06,14:38:52,NA,incomplete,3,filling,1,right,Blue_Star_Stripes_2.jpg,Blue_Circle_Grid_1.jpg,Green_Plus_Stripes_4.jpg,right,1935.215000063181,true,low,NA,NA,NA,NA,NA,NA,NA,false
kUg2KDXV,3y7ltze0zwz7ft0pae7k34mi28juzv,37uewgm5hxlkrplupb8pvjbd4rsr1u,kUg2KDXV,2020-0188,2020-05-21,14:21:06,14:38:52,NA,incomplete,4,filling,1,right,Green_Triangle_Grid_1.jpg,Green_Plus_Stripes_3.jpg,Red_Circle_Grid_4.jpg,right,1447.7800000458956,true,low,NA,NA,NA,NA,NA,NA,NA,false
kUg2KDXV,3y7ltze0zwz7ft0pae7k34mi28juzv,37uewgm5hxlkrplupb8pvjbd4rsr1u,kUg2KDXV,2020-0188,2020-05-21,14:21:06,14:38:52,NA,incomplete,5,filling,1,right,Purple_Star_Grid_2.jpg,Purple_Plus_Chess_4.jpg,Green_Triangle_Grid_1.jpg,right,1309.9750000983477,true,low,NA,NA,NA,NA,NA,NA,NA,false
kUg2KDXV,3y7ltze0zwz7ft0pae7k34mi28juzv,37uewgm5hxlkrplupb8pvjbd4rsr1u,kUg2KDXV,2020-0188,2020-05-21,14:21:06,14:38:52,NA,incomplete,6,filling,1,left,Green_Plus_Dots_3.jpg,Red_Star_Dots_2.jpg,Green_Triangle_Stripes_1.jpg,left,1061.3299999386072,true,low,NA,NA,NA,NA,NA,NA,NA,false
kUg2KDXV,3y7ltze0zwz7ft0pae7k34mi28juzv,37uewgm5hxlkrplupb8pvjbd4rsr1u,kUg2KDXV,2020-0188,2020-05-21,14:21:06,14:38:52,NA,incomplete,7,filling,1,right,Red_Triangle_Stripes_4.jpg,Red_Circle_Grid_1.jpg,Purple_Plus_Stripes_2.jpg,right,1271.3849998544902,true,low,NA,NA,NA,NA,NA,NA,NA,false
kUg2KDXV,3y7ltze0zwz7ft0pae7k34mi28juzv,37uewgm5hxlkrplupb8pvjbd4rsr1u,kUg2KDXV,2020-0188,2020-05-21,14:21:06,14:38:52,NA,incomplete,8,filling,0,right,Blue_Triangle_Stripes_1.jpg,Blue_Star_Grid_4.jpg,Green_Circle_Stripes_2.jpg,right,1258.7400001939386,true,low,NA,NA,NA,NA,NA,NA,NA,false
kUg2KDXV,3y7ltze0zwz7ft0pae7k34mi28juzv,37uewgm5hxlkrplupb8pvjbd4rsr1u,kUg2KDXV,2020-0188,2020-05-21,14:21:06,14:38:52,NA,incomplete,9,filling,1,left,Blue_Triangle_Stripes_1.jpg,Purple_Star_Stripes_4.jpg,Blue_Plus_Dots_3.jpg,left,962.7249999903142,true,low,NA,NA,NA,NA,NA,NA,NA,false
kUg2KDXV,3y7ltze0zwz7ft0pae7k34mi28juzv,37uewgm5hxlkrplupb8pvjbd4rsr1u,kUg2KDXV,2020-0188,2020-05-21,14:21:06,14:38:52,NA,incomplete,10,filling,1,left,Blue_Plus_Grid_4.jpg,Red_Triangle_Grid_3.jpg,Blue_Star_Chess_1.jpg,left,1021.089999936521,true,low,NA,NA,NA,NA,NA,NA,NA,false
kUg2KDXV,3y7ltze0zwz7ft0pae7k34mi28juzv,37uewgm5hxlkrplupb8pvjbd4rsr1u,kUg2KDXV,2020-0188,2020-05-21,14:21:06,14:38:52,NA,incomplete,11,filling,0,left,Blue_Triangle_Chess_1.jpg,Red_Star_Chess_4.jpg,Blue_Circle_Dots_2.jpg,left,1017.5999999046326,true,low,NA,NA,NA,NA,NA,NA,NA,false
kUg2KDXV,3y7ltze0zwz7ft0pae7k34mi28juzv,37uewgm5hxlkrplupb8pvjbd4rsr1u,kUg2KDXV,2020-0188,2020-05-21,14:21:06,14:38:52,NA,incomplete,12,filling,1,right,Blue_Plus_Stripes_1.jpg,Blue_Triangle_Dots_2.jpg,Purple_Circle_Stripes_4.jpg,right,1176.370000001043,true,low,NA,NA,NA,NA,NA,NA,NA,false
kUg2KDXV,3y7ltze0zwz7ft0pae7k34mi28juzv,37uewgm5hxlkrplupb8pvjbd4rsr1u,kUg2KDXV,2020-0188,2020-05-21,14:21:06,14:38:52,NA,incomplete,13,filling,0,left,Blue_Plus_Dots_4.jpg,Green_Triangle_Dots_3.jpg,Blue_Circle_Chess_2.jpg,left,1018.7350001651794,true,low,NA,NA,NA,NA,NA,NA,NA,false
kUg2KDXV,3y7ltze0zwz7ft0pae7k34mi28juzv,37uewgm5hxlkrplupb8pvjbd4rsr1u,kUg2KDXV,2020-0188,2020-05-21,14:21:06,14:38:52,NA,incomplete,14,filling,0,right,Purple_Triangle_Stripes_3.jpg,Purple_Plus_Grid_1.jpg,Red_Star_Stripes_2.jpg,right,1523.6700000241399,true,low,NA,NA,NA,NA,NA,NA,NA,false
kUg2KDXV,3y7ltze0zwz7ft0pae7k34mi28juzv,37uewgm5hxlkrplupb8pvjbd4rsr1u,kUg2KDXV,2020-0188,2020-05-21,14:21:06,14:38:52,NA,incomplete,15,filling,1,left,Blue_Triangle_Dots_4.jpg,Green_Circle_Dots_2.jpg,Blue_Plus_Chess_3.jpg,left,914.9499998893589,true,low,NA,NA,NA,NA,NA,NA,NA,false
kUg2KDXV,3y7ltze0zwz7ft0pae7k34mi28juzv,37uewgm5hxlkrplupb8pvjbd4rsr1u,kUg2KDXV,2020-0188,2020-05-21,14:21:06,14:38:52,NA,incomplete,16,filling,1,right,Green_Star_Grid_4.jpg,Green_Triangle_Dots_2.jpg,Red_Circle_Grid_3.jpg,right,1141.3849999662489,true,low,NA,NA,NA,NA,NA,NA,NA,false
kUg2KDXV,3y7ltze0zwz7ft0pae7k34mi28juzv,37uewgm5hxlkrplupb8pvjbd4rsr1u,kUg2KDXV,2020-0188,2020-05-21,14:21:06,14:38:52,NA,incomplete,17,filling,1,left,Red_Triangle_Grid_2.jpg,Blue_Plus_Grid_3.jpg,Red_Circle_Stripes_1.jpg,left,1008.9500001631677,true,low,NA,NA,NA,NA,NA,NA,NA,false
kUg2KDXV,3y7ltze0zwz7ft0pae7k34mi28juzv,37uewgm5hxlkrplupb8pvjbd4rsr1u,kUg2KDXV,2020-0188,2020-05-21,14:21:06,14:38:52,NA,incomplete,18,filling,1,left,Purple_Circle_Grid_2.jpg,Red_Triangle_Grid_4.jpg,Purple_Plus_Chess_3.jpg,right,1714.7999999579042,false,low,NA,NA,NA,NA,NA,NA,NA,false
kUg2KDXV,3y7ltze0zwz7ft0pae7k34mi28juzv,37uewgm5hxlkrplupb8pvjbd4rsr1u,kUg2KDXV,2020-0188,2020-05-21,14:21:06,14:38:52,NA,incomplete,19,filling,1,left,Blue_Star_Grid_4.jpg,Green_Circle_Grid_2.jpg,Blue_Plus_Chess_3.jpg,left,1138.38000013493,true,low,NA,NA,NA,NA,NA,NA,NA,false
kUg2KDXV,3y7ltze0zwz7ft0pae7k34mi28juzv,37uewgm5hxlkrplupb8pvjbd4rsr1u,kUg2KDXV,2020-0188,2020-05-21,14:21:06,14:38:52,NA,incomplete,20,filling,1,left,Red_Star_Grid_2.jpg,Green_Triangle_Grid_3.jpg,Red_Plus_Dots_4.jpg,left,1092.5549999810755,true,low,NA,NA,NA,NA,NA,NA,NA,false
kUg2KDXV,3y7ltze0zwz7ft0pae7k34mi28juzv,37uewgm5hxlkrplupb8pvjbd4rsr1u,kUg2KDXV,2020-0188,2020-05-21,14:21:06,14:38:52,NA,incomplete,21,filling,1,left,Purple_Circle_Stripes_2.jpg,Blue_Plus_Stripes_4.jpg,Purple_Star_Dots_3.jpg,left,1113.7599998619407,true,low,NA,NA,NA,NA,NA,NA,NA,false
kUg2KDXV,3y7ltze0zwz7ft0pae7k34mi28juzv,37uewgm5hxlkrplupb8pvjbd4rsr1u,kUg2KDXV,2020-0188,2020-05-21,14:21:06,14:38:52,NA,incomplete,22,filling,1,left,Green_Triangle_Stripes_3.jpg,Blue_Plus_Stripes_2.jpg,Green_Star_Grid_1.jpg,left,1095.7700000144541,true,low,NA,NA,NA,NA,NA,NA,NA,false
kUg2KDXV,3y7ltze0zwz7ft0pae7k34mi28juzv,37uewgm5hxlkrplupb8pvjbd4rsr1u,kUg2KDXV,2020-0188,2020-05-21,14:21:06,14:38:52,NA,incomplete,23,filling,1,right,Blue_Circle_Grid_3.jpg,Blue_Star_Stripes_1.jpg,Red_Triangle_Grid_2.jpg,right,1169.6399999782443,true,low,NA,NA,NA,NA,NA,NA,NA,false
kUg2KDXV,3y7ltze0zwz7ft0pae7k34mi28juzv,37uewgm5hxlkrplupb8pvjbd4rsr1u,kUg2KDXV,2020-0188,2020-05-21,14:21:06,14:38:52,NA,incomplete,24,filling,1,left,Purple_Triangle_Chess_4.jpg,Blue_Plus_Chess_2.jpg,Purple_Circle_Grid_1.jpg,left,968.8500000629574,true,low,NA,NA,NA,NA,NA,NA,NA,false
kUg2KDXV,3y7ltze0zwz7ft0pae7k34mi28juzv,37uewgm5hxlkrplupb8pvjbd4rsr1u,kUg2KDXV,2020-0188,2020-05-21,14:21:06,14:38:52,NA,incomplete,25,filling,1,left,Green_Triangle_Stripes_2.jpg,Red_Circle_Stripes_4.jpg,Green_Plus_Dots_1.jpg,left,972.6650000084192,true,low,NA,NA,NA,NA,NA,NA,NA,false
kUg2KDXV,3y7ltze0zwz7ft0pae7k34mi28juzv,37uewgm5hxlkrplupb8pvjbd4rsr1u,kUg2KDXV,2020-0188,2020-05-21,14:21:06,14:38:52,NA,incomplete,26,filling,1,left,Purple_Star_Grid_3.jpg,Blue_Circle_Grid_2.jpg,Purple_Triangle_Stripes_4.jpg,left,1296.1500000674278,true,low,NA,NA,NA,NA,NA,NA,NA,false
kUg2KDXV,3y7ltze0zwz7ft0pae7k34mi28juzv,37uewgm5hxlkrplupb8pvjbd4rsr1u,kUg2KDXV,2020-0188,2020-05-21,14:21:06,14:38:52,NA,incomplete,27,filling,0,left,Red_Star_Chess_1.jpg,Green_Triangle_Chess_4.jpg,Red_Plus_Dots_3.jpg,left,919.1000000573695,true,low,NA,NA,NA,NA,NA,NA,NA,false
kUg2KDXV,3y7ltze0zwz7ft0pae7k34mi28juzv,37uewgm5hxlkrplupb8pvjbd4rsr1u,kUg2KDXV,2020-0188,2020-05-21,14:21:06,14:38:52,NA,incomplete,28,filling,0,left,Green_Star_Dots_2.jpg,Blue_Triangle_Dots_4.jpg,Green_Plus_Stripes_1.jpg,left,995.1049999799579,true,low,NA,NA,NA,NA,NA,NA,NA,false
kUg2KDXV,3y7ltze0zwz7ft0pae7k34mi28juzv,37uewgm5hxlkrplupb8pvjbd4rsr1u,kUg2KDXV,2020-0188,2020-05-21,14:21:06,14:38:52,NA,incomplete,29,filling,0,left,Red_Circle_Dots_1.jpg,Blue_Plus_Dots_2.jpg,Red_Star_Grid_3.jpg,right,1475.9349999949336,false,low,NA,NA,NA,NA,NA,NA,NA,false
kUg2KDXV,3y7ltze0zwz7ft0pae7k34mi28juzv,37uewgm5hxlkrplupb8pvjbd4rsr1u,kUg2KDXV,2020-0188,2020-05-21,14:21:06,14:38:52,NA,incomplete,30,color,1,left,Green_Triangle_Chess_4.jpg,Green_Plus_Dots_1.jpg,Red_Star_Chess_3.jpg,left,803.4250000491738,true,low,NA,NA,NA,NA,NA,NA,NA,false
kUg2KDXV,3y7ltze0zwz7ft0pae7k34mi28juzv,37uewgm5hxlkrplupb8pvjbd4rsr1u,kUg2KDXV,2020-0188,2020-05-21,14:21:06,14:38:52,NA,incomplete,31,color,0,right,Purple_Triangle_Dots_4.jpg,Blue_Star_Dots_1.jpg,Purple_Circle_Chess_3.jpg,right,588.285000063479,true,low,NA,NA,NA,NA,NA,NA,NA,false
kUg2KDXV,3y7ltze0zwz7ft0pae7k34mi28juzv,37uewgm5hxlkrplupb8pvjbd4rsr1u,kUg2KDXV,2020-0188,2020-05-21,14:21:06,14:38:52,NA,incomplete,32,color,1,left,Red_Plus_Chess_4.jpg,Red_Triangle_Stripes_1.jpg,Blue_Circle_Chess_3.jpg,left,554.075000109151,true,low,NA,NA,NA,NA,NA,NA,NA,false
kUg2KDXV,3y7ltze0zwz7ft0pae7k34mi28juzv,37uewgm5hxlkrplupb8pvjbd4rsr1u,kUg2KDXV,2020-0188,2020-05-21,14:21:06,14:38:52,NA,incomplete,33,color,1,right,Red_Triangle_Chess_1.jpg,Green_Circle_Chess_4.jpg,Red_Star_Dots_2.jpg,right,651.3450001366436,true,low,NA,NA,NA,NA,NA,NA,NA,false
kUg2KDXV,3y7ltze0zwz7ft0pae7k34mi28juzv,37uewgm5hxlkrplupb8pvjbd4rsr1u,kUg2KDXV,2020-0188,2020-05-21,14:21:06,14:38:52,NA,incomplete,34,color,1,right,Red_Circle_Dots_1.jpg,Blue_Plus_Dots_3.jpg,Red_Star_Chess_4.jpg,right,964.4299999345094,true,low,NA,NA,NA,NA,NA,NA,NA,false
kUg2KDXV,3y7ltze0zwz7ft0pae7k34mi28juzv,37uewgm5hxlkrplupb8pvjbd4rsr1u,kUg2KDXV,2020-0188,2020-05-21,14:21:06,14:38:52,NA,incomplete,35,color,1,right,Red_Circle_Grid_2.jpg,Purple_Triangle_Grid_4.jpg,Red_Plus_Dots_1.jpg,right,887.2650000266731,true,low,NA,NA,NA,NA,NA,NA,NA,false
kUg2KDXV,3y7ltze0zwz7ft0pae7k34mi28juzv,37uewgm5hxlkrplupb8pvjbd4rsr1u,kUg2KDXV,2020-0188,2020-05-21,14:21:06,14:38:52,NA,incomplete,36,color,0,left,Red_Triangle_Stripes_4.jpg,Red_Plus_Grid_2.jpg,Purple_Star_Stripes_3.jpg,left,637.4350001569837,true,low,NA,NA,NA,NA,NA,NA,NA,false
kUg2KDXV,3y7ltze0zwz7ft0pae7k34mi28juzv,37uewgm5hxlkrplupb8pvjbd4rsr1u,kUg2KDXV,2020-0188,2020-05-21,14:21:06,14:38:52,NA,incomplete,37,color,1,right,Red_Circle_Grid_3.jpg,Purple_Plus_Grid_1.jpg,Red_Triangle_Dots_2.jpg,right,608.4700000938028,true,low,NA,NA,NA,NA,NA,NA,NA,false
kUg2KDXV,3y7ltze0zwz7ft0pae7k34mi28juzv,37uewgm5hxlkrplupb8pvjbd4rsr1u,kUg2KDXV,2020-0188,2020-05-21,14:21:06,14:38:52,NA,incomplete,38,color,1,right,Purple_Circle_Chess_4.jpg,Red_Plus_Chess_3.jpg,Purple_Star_Stripes_1.jpg,right,743.7849999405444,true,low,NA,NA,NA,NA,NA,NA,NA,false
kUg2KDXV,3y7ltze0zwz7ft0pae7k34mi28juzv,37uewgm5hxlkrplupb8pvjbd4rsr1u,kUg2KDXV,2020-0188,2020-05-21,14:21:06,14:38:52,NA,incomplete,39,color,0,left,Purple_Plus_Chess_1.jpg,Purple_Star_Stripes_4.jpg,Green_Circle_Chess_3.jpg,left,676.0050000157207,true,low,NA,NA,NA,NA,NA,NA,NA,false
kUg2KDXV,3y7ltze0zwz7ft0pae7k34mi28juzv,37uewgm5hxlkrplupb8pvjbd4rsr1u,kUg2KDXV,2020-0188,2020-05-21,14:21:06,14:38:52,NA,incomplete,40,color,0,left,Blue_Triangle_Dots_4.jpg,Blue_Star_Stripes_1.jpg,Red_Circle_Dots_2.jpg,left,576.0949999094009,true,low,NA,NA,NA,NA,NA,NA,NA,false
kUg2KDXV,3y7ltze0zwz7ft0pae7k34mi28juzv,37uewgm5hxlkrplupb8pvjbd4rsr1u,kUg2KDXV,2020-0188,2020-05-21,14:21:06,14:38:52,NA,incomplete,41,color,1,left,Green_Plus_Chess_3.jpg,Green_Star_Dots_2.jpg,Red_Circle_Chess_1.jpg,right,823.9700000267476,false,low,NA,NA,NA,NA,NA,NA,NA,false
kUg2KDXV,3y7ltze0zwz7ft0pae7k34mi28juzv,37uewgm5hxlkrplupb8pvjbd4rsr1u,kUg2KDXV,2020-0188,2020-05-21,14:21:06,14:38:52,NA,incomplete,42,color,1,left,Purple_Plus_Dots_4.jpg,Purple_Triangle_Grid_1.jpg,Green_Star_Dots_2.jpg,right,1067.8049998823553,false,low,NA,NA,NA,NA,NA,NA,NA,false
kUg2KDXV,3y7ltze0zwz7ft0pae7k34mi28juzv,37uewgm5hxlkrplupb8pvjbd4rsr1u,kUg2KDXV,2020-0188,2020-05-21,14:21:06,14:38:52,NA,incomplete,43,color,0,right,Purple_Circle_Dots_3.jpg,Green_Star_Dots_4.jpg,Purple_Plus_Stripes_1.jpg,right,1304.1900000534952,true,low,NA,NA,NA,NA,NA,NA,NA,false
kUg2KDXV,3y7ltze0zwz7ft0pae7k34mi28juzv,37uewgm5hxlkrplupb8pvjbd4rsr1u,kUg2KDXV,2020-0188,2020-05-21,14:21:06,14:38:52,NA,incomplete,44,color,1,right,Purple_Triangle_Chess_4.jpg,Green_Star_Chess_1.jpg,Purple_Plus_Grid_2.jpg,left,1189.2750000115484,false,low,NA,NA,NA,NA,NA,NA,NA,false
kUg2KDXV,3y7ltze0zwz7ft0pae7k34mi28juzv,37uewgm5hxlkrplupb8pvjbd4rsr1u,kUg2KDXV,2020-0188,2020-05-21,14:21:06,14:38:52,NA,incomplete,45,color,1,left,Green_Triangle_Grid_2.jpg,Green_Circle_Dots_4.jpg,Red_Star_Grid_1.jpg,right,950.7299999240786,false,low,NA,NA,NA,NA,NA,NA,NA,false
kUg2KDXV,3y7ltze0zwz7ft0pae7k34mi28juzv,37uewgm5hxlkrplupb8pvjbd4rsr1u,kUg2KDXV,2020-0188,2020-05-21,14:21:06,14:38:52,NA,incomplete,46,color,1,left,Red_Star_Stripes_1.jpg,Red_Triangle_Chess_4.jpg,Blue_Plus_Stripes_3.jpg,left,669.88499998115,true,low,NA,NA,NA,NA,NA,NA,NA,false
kUg2KDXV,3y7ltze0zwz7ft0pae7k34mi28juzv,37uewgm5hxlkrplupb8pvjbd4rsr1u,kUg2KDXV,2020-0188,2020-05-21,14:21:06,14:38:52,NA,incomplete,47,color,1,left,Blue_Circle_Stripes_3.jpg,Blue_Star_Grid_4.jpg,Purple_Plus_Stripes_1.jpg,left,961.7049999069422,true,low,NA,NA,NA,NA,NA,NA,NA,false
kUg2KDXV,3y7ltze0zwz7ft0pae7k34mi28juzv,37uewgm5hxlkrplupb8pvjbd4rsr1u,kUg2KDXV,2020-0188,2020-05-21,14:21:06,14:38:52,NA,incomplete,48,color,1,right,Red_Star_Stripes_1.jpg,Green_Triangle_Stripes_4.jpg,Red_Circle_Dots_2.jpg,right,781.9349998608232,true,low,NA,NA,NA,NA,NA,NA,NA,false
kUg2KDXV,3y7ltze0zwz7ft0pae7k34mi28juzv,37uewgm5hxlkrplupb8pvjbd4rsr1u,kUg2KDXV,2020-0188,2020-05-21,14:21:06,14:38:52,NA,incomplete,49,color,1,right,Green_Plus_Chess_2.jpg,Red_Star_Chess_3.jpg,Green_Circle_Grid_4.jpg,right,656.7300001624972,true,low,NA,NA,NA,NA,NA,NA,NA,false
kUg2KDXV,3y7ltze0zwz7ft0pae7k34mi28juzv,37uewgm5hxlkrplupb8pvjbd4rsr1u,kUg2KDXV,2020-0188,2020-05-21,14:21:06,14:38:52,NA,incomplete,50,color,1,right,Green_Plus_Grid_1.jpg,Purple_Star_Grid_3.jpg,Green_Triangle_Chess_4.jpg,right,657.0849998388439,true,low,NA,NA,NA,NA,NA,NA,NA,false
kUg2KDXV,3y7ltze0zwz7ft0pae7k34mi28juzv,37uewgm5hxlkrplupb8pvjbd4rsr1u,kUg2KDXV,2020-0188,2020-05-21,14:21:06,14:38:52,NA,incomplete,51,color,1,right,Blue_Circle_Dots_2.jpg,Red_Plus_Dots_4.jpg,Blue_Triangle_Stripes_1.jpg,right,747.7900001686066,true,low,NA,NA,NA,NA,NA,NA,NA,false
kUg2KDXV,3y7ltze0zwz7ft0pae7k34mi28juzv,37uewgm5hxlkrplupb8pvjbd4rsr1u,kUg2KDXV,2020-0188,2020-05-21,14:21:06,14:38:52,NA,incomplete,52,color,1,left,Green_Star_Dots_4.jpg,Green_Plus_Chess_2.jpg,Purple_Circle_Dots_1.jpg,left,557.9999999608845,true,low,NA,NA,NA,NA,NA,NA,NA,false
kUg2KDXV,3y7ltze0zwz7ft0pae7k34mi28juzv,37uewgm5hxlkrplupb8pvjbd4rsr1u,kUg2KDXV,2020-0188,2020-05-21,14:21:06,14:38:52,NA,incomplete,53,color,1,left,Green_Triangle_Dots_2.jpg,Green_Plus_Stripes_3.jpg,Red_Circle_Dots_4.jpg,left,578.3400000073016,true,low,NA,NA,NA,NA,NA,NA,NA,false
kUg2KDXV,3y7ltze0zwz7ft0pae7k34mi28juzv,37uewgm5hxlkrplupb8pvjbd4rsr1u,kUg2KDXV,2020-0188,2020-05-21,14:21:06,14:38:52,NA,incomplete,54,color,1,right,Red_Triangle_Chess_4.jpg,Purple_Circle_Chess_1.jpg,Red_Star_Grid_2.jpg,right,604.3650000356138,true,low,NA,NA,NA,NA,NA,NA,NA,false
kUg2KDXV,3y7ltze0zwz7ft0pae7k34mi28juzv,37uewgm5hxlkrplupb8pvjbd4rsr1u,kUg2KDXV,2020-0188,2020-05-21,14:21:06,14:38:52,NA,incomplete,55,color,1,left,Purple_Star_Dots_3.jpg,Purple_Plus_Stripes_2.jpg,Red_Circle_Dots_1.jpg,left,574.7599999886006,true,low,NA,NA,NA,NA,NA,NA,NA,false
kUg2KDXV,3y7ltze0zwz7ft0pae7k34mi28juzv,37uewgm5hxlkrplupb8pvjbd4rsr1u,kUg2KDXV,2020-0188,2020-05-21,14:21:06,14:38:52,NA,incomplete,56,color,1,left,Red_Triangle_Grid_4.jpg,Red_Star_Dots_2.jpg,Blue_Circle_Grid_3.jpg,left,572.2850000020117,true,low,NA,NA,NA,NA,NA,NA,NA,false
kUg2KDXV,3y7ltze0zwz7ft0pae7k34mi28juzv,37uewgm5hxlkrplupb8pvjbd4rsr1u,kUg2KDXV,2020-0188,2020-05-21,14:21:06,14:38:52,NA,incomplete,57,color,1,right,Green_Circle_Dots_1.jpg,Blue_Star_Dots_3.jpg,Green_Plus_Stripes_4.jpg,right,614.1549998428673,true,low,NA,NA,NA,NA,NA,NA,NA,false
kUg2KDXV,3y7ltze0zwz7ft0pae7k34mi28juzv,37uewgm5hxlkrplupb8pvjbd4rsr1u,kUg2KDXV,2020-0188,2020-05-21,14:21:06,14:38:52,NA,incomplete,58,color,1,left,Green_Triangle_Stripes_3.jpg,Green_Star_Grid_2.jpg,Red_Circle_Stripes_4.jpg,left,687.2300000395626,true,low,NA,NA,NA,NA,NA,NA,NA,false
kUg2KDXV,3y7ltze0zwz7ft0pae7k34mi28juzv,37uewgm5hxlkrplupb8pvjbd4rsr1u,kUg2KDXV,2020-0188,2020-05-21,14:21:06,14:38:52,NA,incomplete,59,color,1,left,Blue_Circle_Chess_1.jpg,Blue_Triangle_Grid_2.jpg,Green_Plus_Chess_4.jpg,left,773.0449999216944,true,low,NA,NA,NA,NA,NA,NA,NA,false
kUg2KDXV,3y7ltze0zwz7ft0pae7k34mi28juzv,37uewgm5hxlkrplupb8pvjbd4rsr1u,kUg2KDXV,2020-0188,2020-05-21,14:21:06,14:38:52,NA,incomplete,60,filling,0,right,Green_Star_Stripes_2.jpg,Green_Plus_Chess_1.jpg,Red_Triangle_Stripes_3.jpg,left,560.1749999914318,false,low,NA,NA,NA,NA,NA,NA,NA,false
kUg2KDXV,3y7ltze0zwz7ft0pae7k34mi28juzv,37uewgm5hxlkrplupb8pvjbd4rsr1u,kUg2KDXV,2020-0188,2020-05-21,14:21:06,14:38:52,NA,incomplete,61,filling,1,left,Green_Triangle_Dots_3.jpg,Red_Plus_Dots_4.jpg,Green_Circle_Grid_2.jpg,right,582.4349999893457,false,low,NA,NA,NA,NA,NA,NA,NA,false
kUg2KDXV,3y7ltze0zwz7ft0pae7k34mi28juzv,37uewgm5hxlkrplupb8pvjbd4rsr1u,kUg2KDXV,2020-0188,2020-05-21,14:21:06,14:38:52,NA,incomplete,62,filling,1,left,Blue_Plus_Dots_1.jpg,Red_Circle_Dots_2.jpg,Blue_Star_Grid_3.jpg,right,583.90500000678,false,low,NA,NA,NA,NA,NA,NA,NA,false
kUg2KDXV,3y7ltze0zwz7ft0pae7k34mi28juzv,37uewgm5hxlkrplupb8pvjbd4rsr1u,kUg2KDXV,2020-0188,2020-05-21,14:21:06,14:38:52,NA,incomplete,63,filling,1,right,Red_Triangle_Stripes_3.jpg,Red_Plus_Chess_1.jpg,Green_Star_Stripes_2.jpg,left,1019.2599999718368,false,low,NA,NA,NA,NA,NA,NA,NA,false
kUg2KDXV,3y7ltze0zwz7ft0pae7k34mi28juzv,37uewgm5hxlkrplupb8pvjbd4rsr1u,kUg2KDXV,2020-0188,2020-05-21,14:21:06,14:38:52,NA,incomplete,64,filling,1,left,Green_Triangle_Grid_1.jpg,Purple_Plus_Grid_2.jpg,Green_Circle_Stripes_3.jpg,left,1323.6549999564886,true,low,NA,NA,NA,NA,NA,NA,NA,false
kUg2KDXV,3y7ltze0zwz7ft0pae7k34mi28juzv,37uewgm5hxlkrplupb8pvjbd4rsr1u,kUg2KDXV,2020-0188,2020-05-21,14:21:06,14:38:52,NA,incomplete,65,filling,1,right,Blue_Star_Stripes_1.jpg,Blue_Triangle_Grid_3.jpg,Red_Circle_Stripes_2.jpg,right,1314.8750001564622,true,low,NA,NA,NA,NA,NA,NA,NA,false
kUg2KDXV,3y7ltze0zwz7ft0pae7k34mi28juzv,37uewgm5hxlkrplupb8pvjbd4rsr1u,kUg2KDXV,2020-0188,2020-05-21,14:21:06,14:38:52,NA,incomplete,66,filling,0,right,Red_Star_Chess_1.jpg,Red_Triangle_Grid_3.jpg,Blue_Plus_Chess_4.jpg,right,876.9800001755357,true,low,NA,NA,NA,NA,NA,NA,NA,false
kUg2KDXV,3y7ltze0zwz7ft0pae7k34mi28juzv,37uewgm5hxlkrplupb8pvjbd4rsr1u,kUg2KDXV,2020-0188,2020-05-21,14:21:06,14:38:52,NA,incomplete,67,filling,1,right,Purple_Plus_Stripes_2.jpg,Purple_Circle_Dots_3.jpg,Red_Star_Stripes_4.jpg,right,1220.7849998958409,true,low,NA,NA,NA,NA,NA,NA,NA,false
kUg2KDXV,3y7ltze0zwz7ft0pae7k34mi28juzv,37uewgm5hxlkrplupb8pvjbd4rsr1u,kUg2KDXV,2020-0188,2020-05-21,14:21:06,14:38:52,NA,incomplete,68,filling,1,left,Blue_Star_Grid_3.jpg,Red_Circle_Grid_1.jpg,Blue_Plus_Stripes_4.jpg,right,1053.3200001809746,false,low,NA,NA,NA,NA,NA,NA,NA,false
kUg2KDXV,3y7ltze0zwz7ft0pae7k34mi28juzv,37uewgm5hxlkrplupb8pvjbd4rsr1u,kUg2KDXV,2020-0188,2020-05-21,14:21:06,14:38:52,NA,incomplete,69,filling,1,left,Green_Star_Stripes_1.jpg,Blue_Plus_Stripes_3.jpg,Green_Circle_Dots_2.jpg,left,1303.7050000857562,true,low,NA,NA,NA,NA,NA,NA,NA,false
kUg2KDXV,3y7ltze0zwz7ft0pae7k34mi28juzv,37uewgm5hxlkrplupb8pvjbd4rsr1u,kUg2KDXV,2020-0188,2020-05-21,14:21:06,14:38:52,NA,incomplete,70,filling,1,left,Red_Star_Stripes_3.jpg,Green_Circle_Stripes_2.jpg,Red_Triangle_Dots_1.jpg,left,1058.4549999330193,true,low,NA,NA,NA,NA,NA,NA,NA,false
kUg2KDXV,3y7ltze0zwz7ft0pae7k34mi28juzv,37uewgm5hxlkrplupb8pvjbd4rsr1u,kUg2KDXV,2020-0188,2020-05-21,14:21:06,14:38:52,NA,incomplete,71,filling,1,right,Green_Plus_Stripes_2.jpg,Green_Circle_Chess_3.jpg,Purple_Triangle_Stripes_4.jpg,right,1192.5900001078844,true,low,NA,NA,NA,NA,NA,NA,NA,false
kUg2KDXV,3y7ltze0zwz7ft0pae7k34mi28juzv,37uewgm5hxlkrplupb8pvjbd4rsr1u,kUg2KDXV,2020-0188,2020-05-21,14:21:06,14:38:52,NA,incomplete,72,filling,1,right,Red_Star_Grid_4.jpg,Red_Triangle_Chess_3.jpg,Purple_Plus_Grid_1.jpg,right,1051.4350000303239,true,low,NA,NA,NA,NA,NA,NA,NA,false
kUg2KDXV,3y7ltze0zwz7ft0pae7k34mi28juzv,37uewgm5hxlkrplupb8pvjbd4rsr1u,kUg2KDXV,2020-0188,2020-05-21,14:21:06,14:38:52,NA,incomplete,73,filling,0,left,Blue_Star_Chess_2.jpg,Red_Circle_Chess_4.jpg,Blue_Triangle_Dots_1.jpg,left,981.4549998845905,true,low,NA,NA,NA,NA,NA,NA,NA,false
kUg2KDXV,3y7ltze0zwz7ft0pae7k34mi28juzv,37uewgm5hxlkrplupb8pvjbd4rsr1u,kUg2KDXV,2020-0188,2020-05-21,14:21:06,14:38:52,NA,incomplete,74,filling,1,right,Red_Plus_Stripes_1.jpg,Red_Star_Grid_3.jpg,Purple_Circle_Stripes_4.jpg,right,981.2049998436123,true,low,NA,NA,NA,NA,NA,NA,NA,false
kUg2KDXV,3y7ltze0zwz7ft0pae7k34mi28juzv,37uewgm5hxlkrplupb8pvjbd4rsr1u,kUg2KDXV,2020-0188,2020-05-21,14:21:06,14:38:52,NA,incomplete,75,filling,1,left,Blue_Triangle_Dots_3.jpg,Green_Circle_Dots_2.jpg,Blue_Star_Grid_1.jpg,left,855.6150000076741,true,low,NA,NA,NA,NA,NA,NA,NA,false
kUg2KDXV,3y7ltze0zwz7ft0pae7k34mi28juzv,37uewgm5hxlkrplupb8pvjbd4rsr1u,kUg2KDXV,2020-0188,2020-05-21,14:21:06,14:38:52,NA,incomplete,76,filling,1,right,Purple_Plus_Dots_2.jpg,Purple_Circle_Grid_1.jpg,Green_Star_Dots_3.jpg,right,895.9900001063943,true,low,NA,NA,NA,NA,NA,NA,NA,false
kUg2KDXV,3y7ltze0zwz7ft0pae7k34mi28juzv,37uewgm5hxlkrplupb8pvjbd4rsr1u,kUg2KDXV,2020-0188,2020-05-21,14:21:06,14:38:52,NA,incomplete,77,filling,1,left,Purple_Plus_Chess_3.jpg,Green_Circle_Chess_2.jpg,Purple_Triangle_Stripes_1.jpg,left,997.5799999665469,true,low,NA,NA,NA,NA,NA,NA,NA,false
kUg2KDXV,3y7ltze0zwz7ft0pae7k34mi28juzv,37uewgm5hxlkrplupb8pvjbd4rsr1u,kUg2KDXV,2020-0188,2020-05-21,14:21:06,14:38:52,NA,incomplete,78,filling,1,right,Red_Triangle_Stripes_2.jpg,Red_Circle_Dots_1.jpg,Green_Star_Stripes_4.jpg,right,853.0199998058379,true,low,NA,NA,NA,NA,NA,NA,NA,false
kUg2KDXV,3y7ltze0zwz7ft0pae7k34mi28juzv,37uewgm5hxlkrplupb8pvjbd4rsr1u,kUg2KDXV,2020-0188,2020-05-21,14:21:06,14:38:52,NA,incomplete,79,filling,1,left,Red_Circle_Dots_2.jpg,Purple_Star_Dots_1.jpg,Red_Triangle_Grid_3.jpg,left,728.995000012219,true,low,NA,NA,NA,NA,NA,NA,NA,false
kUg2KDXV,3y7ltze0zwz7ft0pae7k34mi28juzv,37uewgm5hxlkrplupb8pvjbd4rsr1u,kUg2KDXV,2020-0188,2020-05-21,14:21:06,14:38:52,NA,incomplete,80,filling,1,right,Red_Triangle_Chess_4.jpg,Red_Plus_Grid_2.jpg,Purple_Star_Chess_3.jpg,right,813.3499999530613,true,low,NA,NA,NA,NA,NA,NA,NA,false
kUg2KDXV,3y7ltze0zwz7ft0pae7k34mi28juzv,37uewgm5hxlkrplupb8pvjbd4rsr1u,kUg2KDXV,2020-0188,2020-05-21,14:21:06,14:38:52,NA,incomplete,81,filling,0,left,Green_Triangle_Grid_2.jpg,Red_Star_Grid_3.jpg,Green_Circle_Stripes_4.jpg,left,784.4950000289828,true,low,NA,NA,NA,NA,NA,NA,NA,false
kUg2KDXV,3y7ltze0zwz7ft0pae7k34mi28juzv,37uewgm5hxlkrplupb8pvjbd4rsr1u,kUg2KDXV,2020-0188,2020-05-21,14:21:06,14:38:52,NA,incomplete,82,filling,1,right,Red_Plus_Dots_4.jpg,Red_Triangle_Grid_2.jpg,Blue_Circle_Dots_1.jpg,right,866.2450001575053,true,low,NA,NA,NA,NA,NA,NA,NA,false
kUg2KDXV,3y7ltze0zwz7ft0pae7k34mi28juzv,37uewgm5hxlkrplupb8pvjbd4rsr1u,kUg2KDXV,2020-0188,2020-05-21,14:21:06,14:38:52,NA,incomplete,83,filling,1,right,Purple_Circle_Stripes_3.jpg,Purple_Star_Dots_4.jpg,Green_Triangle_Stripes_2.jpg,right,901.6700000502169,true,low,NA,NA,NA,NA,NA,NA,NA,false
kUg2KDXV,3y7ltze0zwz7ft0pae7k34mi28juzv,37uewgm5hxlkrplupb8pvjbd4rsr1u,kUg2KDXV,2020-0188,2020-05-21,14:21:06,14:38:52,NA,incomplete,84,filling,1,left,Purple_Plus_Dots_2.jpg,Blue_Triangle_Dots_3.jpg,Purple_Circle_Grid_1.jpg,left,785.304999910295,true,low,NA,NA,NA,NA,NA,NA,NA,false
kUg2KDXV,3y7ltze0zwz7ft0pae7k34mi28juzv,37uewgm5hxlkrplupb8pvjbd4rsr1u,kUg2KDXV,2020-0188,2020-05-21,14:21:06,14:38:52,NA,incomplete,85,filling,1,left,Blue_Star_Grid_2.jpg,Purple_Circle_Grid_4.jpg,Blue_Plus_Chess_1.jpg,left,787.6199998427182,true,low,NA,NA,NA,NA,NA,NA,NA,false
kUg2KDXV,3y7ltze0zwz7ft0pae7k34mi28juzv,37uewgm5hxlkrplupb8pvjbd4rsr1u,kUg2KDXV,2020-0188,2020-05-21,14:21:06,14:38:52,NA,incomplete,86,filling,1,right,Red_Plus_Dots_4.jpg,Red_Circle_Stripes_2.jpg,Green_Star_Dots_3.jpg,right,895.0650000479072,true,low,NA,NA,NA,NA,NA,NA,NA,false
kUg2KDXV,3y7ltze0zwz7ft0pae7k34mi28juzv,37uewgm5hxlkrplupb8pvjbd4rsr1u,kUg2KDXV,2020-0188,2020-05-21,14:21:06,14:38:52,NA,incomplete,87,filling,1,right,Blue_Circle_Chess_1.jpg,Blue_Triangle_Grid_3.jpg,Purple_Plus_Chess_4.jpg,right,900.5700000561774,true,low,NA,NA,NA,NA,NA,NA,NA,false
kUg2KDXV,3y7ltze0zwz7ft0pae7k34mi28juzv,37uewgm5hxlkrplupb8pvjbd4rsr1u,kUg2KDXV,2020-0188,2020-05-21,14:21:06,14:38:52,NA,incomplete,88,filling,1,right,Green_Circle_Dots_1.jpg,Green_Star_Grid_3.jpg,Red_Plus_Dots_2.jpg,right,916.5600000414997,true,low,NA,NA,NA,NA,NA,NA,NA,false
kUg2KDXV,3y7ltze0zwz7ft0pae7k34mi28juzv,37uewgm5hxlkrplupb8pvjbd4rsr1u,kUg2KDXV,2020-0188,2020-05-21,14:21:06,14:38:52,NA,incomplete,89,filling,0,left,Purple_Star_Dots_1.jpg,Blue_Circle_Dots_4.jpg,Purple_Triangle_Chess_2.jpg,left,816.3399999029934,true,low,NA,NA,NA,NA,NA,NA,NA,false
kUg2KDXV,3y7ltze0zwz7ft0pae7k34mi28juzv,37uewgm5hxlkrplupb8pvjbd4rsr1u,kUg2KDXV,2020-0188,2020-05-21,14:21:06,14:38:52,NA,incomplete,90,color,1,right,Red_Triangle_Chess_1.jpg,Blue_Plus_Chess_4.jpg,Red_Star_Grid_3.jpg,left,794.4799999240786,false,low,NA,NA,NA,NA,NA,NA,NA,false
kUg2KDXV,3y7ltze0zwz7ft0pae7k34mi28juzv,37uewgm5hxlkrplupb8pvjbd4rsr1u,kUg2KDXV,2020-0188,2020-05-21,14:21:06,14:38:52,NA,incomplete,91,color,1,left,Green_Circle_Chess_1.jpg,Green_Star_Grid_2.jpg,Red_Triangle_Chess_4.jpg,right,868.4100001119077,false,low,NA,NA,NA,NA,NA,NA,NA,false
kUg2KDXV,3y7ltze0zwz7ft0pae7k34mi28juzv,37uewgm5hxlkrplupb8pvjbd4rsr1u,kUg2KDXV,2020-0188,2020-05-21,14:21:06,14:38:52,NA,incomplete,92,color,1,left,Purple_Star_Dots_3.jpg,Purple_Circle_Grid_4.jpg,Red_Plus_Dots_2.jpg,left,1116.734999930486,true,low,NA,NA,NA,NA,NA,NA,NA,false
kUg2KDXV,3y7ltze0zwz7ft0pae7k34mi28juzv,37uewgm5hxlkrplupb8pvjbd4rsr1u,kUg2KDXV,2020-0188,2020-05-21,14:21:06,14:38:52,NA,incomplete,93,color,1,left,Green_Triangle_Dots_4.jpg,Green_Plus_Stripes_2.jpg,Blue_Circle_Dots_1.jpg,left,547.4549999926239,true,low,NA,NA,NA,NA,NA,NA,NA,false
kUg2KDXV,3y7ltze0zwz7ft0pae7k34mi28juzv,37uewgm5hxlkrplupb8pvjbd4rsr1u,kUg2KDXV,2020-0188,2020-05-21,14:21:06,14:38:52,NA,incomplete,94,color,0,right,Red_Triangle_Dots_1.jpg,Green_Star_Dots_2.jpg,Red_Plus_Grid_4.jpg,right,678.2450000755489,true,low,NA,NA,NA,NA,NA,NA,NA,false
kUg2KDXV,3y7ltze0zwz7ft0pae7k34mi28juzv,37uewgm5hxlkrplupb8pvjbd4rsr1u,kUg2KDXV,2020-0188,2020-05-21,14:21:06,14:38:52,NA,incomplete,95,color,1,left,Purple_Triangle_Dots_1.jpg,Purple_Circle_Grid_2.jpg,Green_Plus_Dots_4.jpg,left,565.4750000685453,true,low,NA,NA,NA,NA,NA,NA,NA,false
kUg2KDXV,3y7ltze0zwz7ft0pae7k34mi28juzv,37uewgm5hxlkrplupb8pvjbd4rsr1u,kUg2KDXV,2020-0188,2020-05-21,14:21:06,14:38:52,NA,incomplete,96,color,1,right,Green_Plus_Chess_1.jpg,Red_Triangle_Chess_3.jpg,Green_Circle_Stripes_2.jpg,right,689.4549999851733,true,low,NA,NA,NA,NA,NA,NA,NA,false
kUg2KDXV,3y7ltze0zwz7ft0pae7k34mi28juzv,37uewgm5hxlkrplupb8pvjbd4rsr1u,kUg2KDXV,2020-0188,2020-05-21,14:21:06,14:38:52,NA,incomplete,97,color,1,right,Purple_Star_Dots_2.jpg,Red_Plus_Dots_3.jpg,Purple_Triangle_Chess_4.jpg,right,558.6900000926107,true,low,NA,NA,NA,NA,NA,NA,NA,false
kUg2KDXV,3y7ltze0zwz7ft0pae7k34mi28juzv,37uewgm5hxlkrplupb8pvjbd4rsr1u,kUg2KDXV,2020-0188,2020-05-21,14:21:06,14:38:52,NA,incomplete,98,color,1,right,Purple_Triangle_Stripes_4.jpg,Green_Star_Stripes_2.jpg,Purple_Plus_Grid_1.jpg,right,574.3700000457466,true,low,NA,NA,NA,NA,NA,NA,NA,false
kUg2KDXV,3y7ltze0zwz7ft0pae7k34mi28juzv,37uewgm5hxlkrplupb8pvjbd4rsr1u,kUg2KDXV,2020-0188,2020-05-21,14:21:06,14:38:52,NA,incomplete,99,color,1,right,Purple_Triangle_Chess_3.jpg,Red_Circle_Chess_1.jpg,Purple_Star_Grid_2.jpg,right,526.8500000238419,true,low,NA,NA,NA,NA,NA,NA,NA,false
kUg2KDXV,3y7ltze0zwz7ft0pae7k34mi28juzv,37uewgm5hxlkrplupb8pvjbd4rsr1u,kUg2KDXV,2020-0188,2020-05-21,14:21:06,14:38:52,NA,incomplete,100,color,1,left,Green_Circle_Grid_2.jpg,Green_Plus_Dots_4.jpg,Purple_Star_Grid_3.jpg,left,547.8900000452995,true,low,NA,NA,NA,NA,NA,NA,NA,false
kUg2KDXV,3y7ltze0zwz7ft0pae7k34mi28juzv,37uewgm5hxlkrplupb8pvjbd4rsr1u,kUg2KDXV,2020-0188,2020-05-21,14:21:06,14:38:52,NA,incomplete,101,color,0,right,Red_Triangle_Dots_2.jpg,Green_Plus_Dots_1.jpg,Red_Circle_Chess_4.jpg,right,593.0699999444187,true,low,NA,NA,NA,NA,NA,NA,NA,false
kUg2KDXV,3y7ltze0zwz7ft0pae7k34mi28juzv,37uewgm5hxlkrplupb8pvjbd4rsr1u,kUg2KDXV,2020-0188,2020-05-21,14:21:06,14:38:52,NA,incomplete,102,color,1,right,Purple_Circle_Stripes_1.jpg,Green_Plus_Stripes_4.jpg,Purple_Triangle_Chess_3.jpg,right,538.6900000739843,true,low,NA,NA,NA,NA,NA,NA,NA,false
kUg2KDXV,3y7ltze0zwz7ft0pae7k34mi28juzv,37uewgm5hxlkrplupb8pvjbd4rsr1u,kUg2KDXV,2020-0188,2020-05-21,14:21:06,14:38:52,NA,incomplete,103,color,1,left,Red_Circle_Chess_4.jpg,Red_Star_Dots_1.jpg,Blue_Plus_Chess_2.jpg,right,1018.7649999279529,false,low,NA,NA,NA,NA,NA,NA,NA,false
kUg2KDXV,3y7ltze0zwz7ft0pae7k34mi28juzv,37uewgm5hxlkrplupb8pvjbd4rsr1u,kUg2KDXV,2020-0188,2020-05-21,14:21:06,14:38:52,NA,incomplete,104,color,1,right,Blue_Circle_Dots_1.jpg,Red_Star_Dots_3.jpg,Blue_Plus_Grid_4.jpg,right,881.1899998690933,true,low,NA,NA,NA,NA,NA,NA,NA,false
kUg2KDXV,3y7ltze0zwz7ft0pae7k34mi28juzv,37uewgm5hxlkrplupb8pvjbd4rsr1u,kUg2KDXV,2020-0188,2020-05-21,14:21:06,14:38:52,NA,incomplete,105,color,1,left,Blue_Plus_Stripes_1.jpg,Blue_Star_Dots_3.jpg,Green_Circle_Stripes_4.jpg,left,511.93500007502735,true,low,NA,NA,NA,NA,NA,NA,NA,false
kUg2KDXV,3y7ltze0zwz7ft0pae7k34mi28juzv,37uewgm5hxlkrplupb8pvjbd4rsr1u,kUg2KDXV,2020-0188,2020-05-21,14:21:06,14:38:52,NA,incomplete,106,color,1,right,Green_Star_Chess_1.jpg,Purple_Triangle_Chess_2.jpg,Green_Plus_Dots_4.jpg,right,552.4249998852611,true,low,NA,NA,NA,NA,NA,NA,NA,false
kUg2KDXV,3y7ltze0zwz7ft0pae7k34mi28juzv,37uewgm5hxlkrplupb8pvjbd4rsr1u,kUg2KDXV,2020-0188,2020-05-21,14:21:06,14:38:52,NA,incomplete,107,color,0,left,Purple_Circle_Chess_2.jpg,Purple_Plus_Dots_4.jpg,Green_Star_Chess_1.jpg,left,555.6199999991804,true,low,NA,NA,NA,NA,NA,NA,NA,false
kUg2KDXV,3y7ltze0zwz7ft0pae7k34mi28juzv,37uewgm5hxlkrplupb8pvjbd4rsr1u,kUg2KDXV,2020-0188,2020-05-21,14:21:06,14:38:52,NA,incomplete,108,color,1,left,Purple_Plus_Chess_2.jpg,Purple_Star_Dots_4.jpg,Red_Triangle_Chess_1.jpg,left,536.9499998632818,true,low,NA,NA,NA,NA,NA,NA,NA,false
kUg2KDXV,3y7ltze0zwz7ft0pae7k34mi28juzv,37uewgm5hxlkrplupb8pvjbd4rsr1u,kUg2KDXV,2020-0188,2020-05-21,14:21:06,14:38:52,NA,incomplete,109,color,0,right,Green_Circle_Grid_2.jpg,Red_Star_Grid_3.jpg,Green_Plus_Chess_1.jpg,right,555.7050001807511,true,low,NA,NA,NA,NA,NA,NA,NA,false
kUg2KDXV,3y7ltze0zwz7ft0pae7k34mi28juzv,37uewgm5hxlkrplupb8pvjbd4rsr1u,kUg2KDXV,2020-0188,2020-05-21,14:21:06,14:38:52,NA,incomplete,110,color,0,left,Blue_Circle_Chess_4.jpg,Blue_Triangle_Dots_1.jpg,Purple_Star_Chess_2.jpg,left,543.0550000164658,true,low,NA,NA,NA,NA,NA,NA,NA,false
kUg2KDXV,3y7ltze0zwz7ft0pae7k34mi28juzv,37uewgm5hxlkrplupb8pvjbd4rsr1u,kUg2KDXV,2020-0188,2020-05-21,14:21:06,14:38:52,NA,incomplete,111,color,1,left,Purple_Plus_Grid_1.jpg,Purple_Star_Stripes_3.jpg,Red_Circle_Grid_4.jpg,right,1371.7499999329448,false,low,NA,NA,NA,NA,NA,NA,NA,false
kUg2KDXV,3y7ltze0zwz7ft0pae7k34mi28juzv,37uewgm5hxlkrplupb8pvjbd4rsr1u,kUg2KDXV,2020-0188,2020-05-21,14:21:06,14:38:52,NA,incomplete,112,color,1,left,Blue_Circle_Dots_4.jpg,Blue_Triangle_Grid_3.jpg,Purple_Star_Dots_1.jpg,right,1085.8599999919534,false,low,NA,NA,NA,NA,NA,NA,NA,false
kUg2KDXV,3y7ltze0zwz7ft0pae7k34mi28juzv,37uewgm5hxlkrplupb8pvjbd4rsr1u,kUg2KDXV,2020-0188,2020-05-21,14:21:06,14:38:52,NA,incomplete,113,color,1,left,Purple_Star_Chess_2.jpg,Purple_Circle_Dots_4.jpg,Blue_Plus_Chess_1.jpg,right,1097.6449998561293,false,low,NA,NA,NA,NA,NA,NA,NA,false
kUg2KDXV,3y7ltze0zwz7ft0pae7k34mi28juzv,37uewgm5hxlkrplupb8pvjbd4rsr1u,kUg2KDXV,2020-0188,2020-05-21,14:21:06,14:38:52,NA,incomplete,114,color,1,right,Blue_Plus_Grid_2.jpg,Purple_Star_Grid_4.jpg,Blue_Circle_Dots_1.jpg,right,658.5299998987466,true,low,NA,NA,NA,NA,NA,NA,NA,false
kUg2KDXV,3y7ltze0zwz7ft0pae7k34mi28juzv,37uewgm5hxlkrplupb8pvjbd4rsr1u,kUg2KDXV,2020-0188,2020-05-21,14:21:06,14:38:52,NA,incomplete,115,color,1,left,Green_Plus_Chess_3.jpg,Green_Triangle_Grid_1.jpg,Red_Circle_Chess_2.jpg,left,745.9550001658499,true,low,NA,NA,NA,NA,NA,NA,NA,false
kUg2KDXV,3y7ltze0zwz7ft0pae7k34mi28juzv,37uewgm5hxlkrplupb8pvjbd4rsr1u,kUg2KDXV,2020-0188,2020-05-21,14:21:06,14:38:52,NA,incomplete,116,color,0,left,Green_Triangle_Stripes_2.jpg,Green_Star_Chess_3.jpg,Purple_Circle_Stripes_4.jpg,left,685.9450000338256,true,low,NA,NA,NA,NA,NA,NA,NA,false
kUg2KDXV,3y7ltze0zwz7ft0pae7k34mi28juzv,37uewgm5hxlkrplupb8pvjbd4rsr1u,kUg2KDXV,2020-0188,2020-05-21,14:21:06,14:38:52,NA,incomplete,117,color,1,left,Green_Triangle_Chess_3.jpg,Green_Plus_Dots_2.jpg,Red_Star_Chess_1.jpg,left,605.9550000354648,true,low,NA,NA,NA,NA,NA,NA,NA,false
kUg2KDXV,3y7ltze0zwz7ft0pae7k34mi28juzv,37uewgm5hxlkrplupb8pvjbd4rsr1u,kUg2KDXV,2020-0188,2020-05-21,14:21:06,14:38:52,NA,incomplete,118,color,1,right,Purple_Triangle_Dots_3.jpg,Blue_Star_Dots_4.jpg,Purple_Circle_Grid_2.jpg,right,626.2350000906736,true,low,NA,NA,NA,NA,NA,NA,NA,false
kUg2KDXV,3y7ltze0zwz7ft0pae7k34mi28juzv,37uewgm5hxlkrplupb8pvjbd4rsr1u,kUg2KDXV,2020-0188,2020-05-21,14:21:06,14:38:52,NA,incomplete,119,color,1,right,Purple_Star_Stripes_4.jpg,Red_Plus_Stripes_3.jpg,Purple_Circle_Dots_1.jpg,right,647.9699998162687,true,low,NA,NA,NA,NA,NA,NA,NA,false
kUg2KDXV,3y7ltze0zwz7ft0pae7k34mi28juzv,37uewgm5hxlkrplupb8pvjbd4rsr1u,kUg2KDXV,2020-0188,2020-05-21,14:21:06,14:38:52,NA,incomplete,120,number,1,right,Red_Star_Chess_2.jpg,Green_Star_Stripes_4.jpg,Purple_Triangle_Dots_2.jpg,NA,NA,NA,low,NA,NA,NA,NA,NA,NA,NA,false
kUg2KDXV,3y7ltze0zwz7ft0pae7k34mi28juzv,37uewgm5hxlkrplupb8pvjbd4rsr1u,kUg2KDXV,2020-0188,2020-05-21,14:21:06,14:38:52,NA,incomplete,121,number,1,left,Blue_Star_Dots_4.jpg,Red_Plus_Grid_4.jpg,Green_Star_Chess_1.jpg,left,1107.6249999459833,true,low,NA,NA,NA,NA,NA,NA,NA,false
kUg2KDXV,3y7ltze0zwz7ft0pae7k34mi28juzv,37uewgm5hxlkrplupb8pvjbd4rsr1u,kUg2KDXV,2020-0188,2020-05-21,14:21:06,14:38:52,NA,incomplete,122,number,1,left,Green_Circle_Dots_4.jpg,Purple_Plus_Chess_4.jpg,Red_Circle_Stripes_3.jpg,right,1517.0950000174344,false,low,NA,NA,NA,NA,NA,NA,NA,false
kUg2KDXV,3y7ltze0zwz7ft0pae7k34mi28juzv,37uewgm5hxlkrplupb8pvjbd4rsr1u,kUg2KDXV,2020-0188,2020-05-21,14:21:06,14:38:52,NA,incomplete,123,number,1,right,Purple_Circle_Chess_4.jpg,Blue_Circle_Grid_2.jpg,Green_Plus_Stripes_4.jpg,right,859.5000000204891,true,low,NA,NA,NA,NA,NA,NA,NA,false
kUg2KDXV,3y7ltze0zwz7ft0pae7k34mi28juzv,37uewgm5hxlkrplupb8pvjbd4rsr1u,kUg2KDXV,2020-0188,2020-05-21,14:21:06,14:38:52,NA,incomplete,124,number,1,left,Purple_Star_Stripes_4.jpg,Blue_Circle_Grid_4.jpg,Green_Star_Dots_1.jpg,left,779.0699999313802,true,low,NA,NA,NA,NA,NA,NA,NA,false
kUg2KDXV,3y7ltze0zwz7ft0pae7k34mi28juzv,37uewgm5hxlkrplupb8pvjbd4rsr1u,kUg2KDXV,2020-0188,2020-05-21,14:21:06,14:38:52,NA,incomplete,125,number,1,left,Blue_Circle_Chess_1.jpg,Purple_Star_Stripes_1.jpg,Red_Circle_Grid_2.jpg,left,1224.0100000053644,true,low,NA,NA,NA,NA,NA,NA,NA,false
kUg2KDXV,3y7ltze0zwz7ft0pae7k34mi28juzv,37uewgm5hxlkrplupb8pvjbd4rsr1u,kUg2KDXV,2020-0188,2020-05-21,14:21:06,14:38:52,NA,incomplete,126,number,1,left,Purple_Circle_Chess_1.jpg,Blue_Triangle_Stripes_1.jpg,Green_Circle_Grid_2.jpg,left,1206.5700001548976,true,low,NA,NA,NA,NA,NA,NA,NA,false
kUg2KDXV,3y7ltze0zwz7ft0pae7k34mi28juzv,37uewgm5hxlkrplupb8pvjbd4rsr1u,kUg2KDXV,2020-0188,2020-05-21,14:21:06,14:38:52,NA,incomplete,127,number,0,right,Purple_Circle_Stripes_3.jpg,Blue_Circle_Chess_4.jpg,Green_Star_Grid_3.jpg,right,1095.8899999968708,true,low,NA,NA,NA,NA,NA,NA,NA,false
kUg2KDXV,3y7ltze0zwz7ft0pae7k34mi28juzv,37uewgm5hxlkrplupb8pvjbd4rsr1u,kUg2KDXV,2020-0188,2020-05-21,14:21:06,14:38:52,NA,incomplete,128,number,1,right,Red_Plus_Dots_3.jpg,Purple_Plus_Chess_1.jpg,Green_Triangle_Grid_3.jpg,right,717.3349999357015,true,low,NA,NA,NA,NA,NA,NA,NA,false
kUg2KDXV,3y7ltze0zwz7ft0pae7k34mi28juzv,37uewgm5hxlkrplupb8pvjbd4rsr1u,kUg2KDXV,2020-0188,2020-05-21,14:21:06,14:38:52,NA,incomplete,129,number,1,left,Purple_Circle_Dots_4.jpg,Red_Triangle_Stripes_4.jpg,Green_Circle_Grid_1.jpg,left,754.9200002104044,true,low,NA,NA,NA,NA,NA,NA,NA,false
kUg2KDXV,3y7ltze0zwz7ft0pae7k34mi28juzv,37uewgm5hxlkrplupb8pvjbd4rsr1u,kUg2KDXV,2020-0188,2020-05-21,14:21:06,14:38:52,NA,incomplete,130,number,0,left,Purple_Circle_Dots_1.jpg,Blue_Plus_Chess_1.jpg,Green_Circle_Stripes_3.jpg,left,857.1099999826401,true,low,NA,NA,NA,NA,NA,NA,NA,false
kUg2KDXV,3y7ltze0zwz7ft0pae7k34mi28juzv,37uewgm5hxlkrplupb8pvjbd4rsr1u,kUg2KDXV,2020-0188,2020-05-21,14:21:06,14:38:52,NA,incomplete,131,number,1,left,Red_Triangle_Grid_2.jpg,Green_Plus_Stripes_2.jpg,Blue_Triangle_Dots_3.jpg,left,1214.7750000003725,true,low,NA,NA,NA,NA,NA,NA,NA,false
kUg2KDXV,3y7ltze0zwz7ft0pae7k34mi28juzv,37uewgm5hxlkrplupb8pvjbd4rsr1u,kUg2KDXV,2020-0188,2020-05-21,14:21:06,14:38:52,NA,incomplete,132,number,0,left,Green_Plus_Stripes_1.jpg,Blue_Star_Chess_1.jpg,Purple_Plus_Dots_3.jpg,right,1288.1849999539554,false,low,NA,NA,NA,NA,NA,NA,NA,false
kUg2KDXV,3y7ltze0zwz7ft0pae7k34mi28juzv,37uewgm5hxlkrplupb8pvjbd4rsr1u,kUg2KDXV,2020-0188,2020-05-21,14:21:06,14:38:52,NA,incomplete,133,number,1,right,Blue_Circle_Grid_4.jpg,Purple_Circle_Stripes_1.jpg,Green_Star_Dots_4.jpg,right,935.120000038296,true,low,NA,NA,NA,NA,NA,NA,NA,false
kUg2KDXV,3y7ltze0zwz7ft0pae7k34mi28juzv,37uewgm5hxlkrplupb8pvjbd4rsr1u,kUg2KDXV,2020-0188,2020-05-21,14:21:06,14:38:52,NA,incomplete,134,number,1,right,Green_Plus_Grid_1.jpg,Red_Plus_Stripes_3.jpg,Blue_Star_Dots_1.jpg,right,1005.705000134185,true,low,NA,NA,NA,NA,NA,NA,NA,false
kUg2KDXV,3y7ltze0zwz7ft0pae7k34mi28juzv,37uewgm5hxlkrplupb8pvjbd4rsr1u,kUg2KDXV,2020-0188,2020-05-21,14:21:06,14:38:52,NA,incomplete,135,number,1,left,Green_Triangle_Chess_1.jpg,Purple_Circle_Stripes_1.jpg,Red_Triangle_Grid_4.jpg,left,627.9050000011921,true,low,NA,NA,NA,NA,NA,NA,NA,false
kUg2KDXV,3y7ltze0zwz7ft0pae7k34mi28juzv,37uewgm5hxlkrplupb8pvjbd4rsr1u,kUg2KDXV,2020-0188,2020-05-21,14:21:06,14:38:52,NA,incomplete,136,number,1,left,Blue_Triangle_Chess_1.jpg,Green_Circle_Dots_1.jpg,Purple_Triangle_Stripes_4.jpg,left,596.0349999368191,true,low,NA,NA,NA,NA,NA,NA,NA,false
kUg2KDXV,3y7ltze0zwz7ft0pae7k34mi28juzv,37uewgm5hxlkrplupb8pvjbd4rsr1u,kUg2KDXV,2020-0188,2020-05-21,14:21:06,14:38:52,NA,incomplete,137,number,1,right,Blue_Triangle_Chess_2.jpg,Red_Triangle_Dots_3.jpg,Green_Plus_Grid_2.jpg,right,872.3800000734627,true,low,NA,NA,NA,NA,NA,NA,NA,false
kUg2KDXV,3y7ltze0zwz7ft0pae7k34mi28juzv,37uewgm5hxlkrplupb8pvjbd4rsr1u,kUg2KDXV,2020-0188,2020-05-21,14:21:06,14:38:52,NA,incomplete,138,number,1,left,Purple_Star_Grid_1.jpg,Green_Plus_Dots_1.jpg,Red_Star_Chess_3.jpg,left,719.1649999003857,true,low,NA,NA,NA,NA,NA,NA,NA,false
kUg2KDXV,3y7ltze0zwz7ft0pae7k34mi28juzv,37uewgm5hxlkrplupb8pvjbd4rsr1u,kUg2KDXV,2020-0188,2020-05-21,14:21:06,14:38:52,NA,incomplete,139,number,1,left,Blue_Star_Stripes_1.jpg,Green_Circle_Grid_1.jpg,Purple_Star_Chess_3.jpg,left,662.8100001253188,true,low,NA,NA,NA,NA,NA,NA,NA,false
kUg2KDXV,3y7ltze0zwz7ft0pae7k34mi28juzv,37uewgm5hxlkrplupb8pvjbd4rsr1u,kUg2KDXV,2020-0188,2020-05-21,14:21:06,14:38:52,NA,incomplete,140,shape,1,left,Blue_Star_Stripes_2.jpg,Red_Star_Grid_4.jpg,Purple_Triangle_Chess_2.jpg,right,781.2949998769909,false,low,NA,NA,NA,NA,NA,NA,NA,false
kUg2KDXV,3y7ltze0zwz7ft0pae7k34mi28juzv,37uewgm5hxlkrplupb8pvjbd4rsr1u,kUg2KDXV,2020-0188,2020-05-21,14:21:06,14:38:52,NA,incomplete,141,shape,0,right,Red_Plus_Chess_2.jpg,Blue_Star_Stripes_2.jpg,Purple_Plus_Dots_4.jpg,left,592.0549998991191,false,low,NA,NA,NA,NA,NA,NA,NA,false
kUg2KDXV,3y7ltze0zwz7ft0pae7k34mi28juzv,37uewgm5hxlkrplupb8pvjbd4rsr1u,kUg2KDXV,2020-0188,2020-05-21,14:21:06,14:38:52,NA,incomplete,142,shape,1,right,Purple_Triangle_Stripes_4.jpg,Red_Circle_Dots_4.jpg,Green_Triangle_Grid_2.jpg,left,802.1749998442829,false,low,NA,NA,NA,NA,NA,NA,NA,false
kUg2KDXV,3y7ltze0zwz7ft0pae7k34mi28juzv,37uewgm5hxlkrplupb8pvjbd4rsr1u,kUg2KDXV,2020-0188,2020-05-21,14:21:06,14:38:52,NA,incomplete,143,shape,0,right,Green_Plus_Chess_3.jpg,Red_Circle_Dots_3.jpg,Blue_Plus_Stripes_2.jpg,left,1004.285000031814,false,low,NA,NA,NA,NA,NA,NA,NA,false
kUg2KDXV,3y7ltze0zwz7ft0pae7k34mi28juzv,37uewgm5hxlkrplupb8pvjbd4rsr1u,kUg2KDXV,2020-0188,2020-05-21,14:21:06,14:38:52,NA,incomplete,144,shape,1,right,Blue_Star_Dots_2.jpg,Green_Plus_Chess_2.jpg,Red_Star_Stripes_1.jpg,left,1271.794999949634,false,low,NA,NA,NA,NA,NA,NA,NA,false
kUg2KDXV,3y7ltze0zwz7ft0pae7k34mi28juzv,37uewgm5hxlkrplupb8pvjbd4rsr1u,kUg2KDXV,2020-0188,2020-05-21,14:21:06,14:38:52,NA,incomplete,145,shape,1,left,Blue_Plus_Dots_4.jpg,Purple_Plus_Stripes_2.jpg,Green_Star_Grid_4.jpg,right,861.4149999339134,false,low,NA,NA,NA,NA,NA,NA,NA,false
kUg2KDXV,3y7ltze0zwz7ft0pae7k34mi28juzv,37uewgm5hxlkrplupb8pvjbd4rsr1u,kUg2KDXV,2020-0188,2020-05-21,14:21:06,14:38:52,NA,incomplete,146,shape,1,right,Blue_Plus_Grid_4.jpg,Green_Triangle_Dots_4.jpg,Red_Plus_Stripes_3.jpg,right,972.414999967441,true,low,NA,NA,NA,NA,NA,NA,NA,false
kUg2KDXV,3y7ltze0zwz7ft0pae7k34mi28juzv,37uewgm5hxlkrplupb8pvjbd4rsr1u,kUg2KDXV,2020-0188,2020-05-21,14:21:06,14:38:52,NA,incomplete,147,shape,1,left,Purple_Plus_Stripes_4.jpg,Green_Plus_Chess_2.jpg,Red_Circle_Grid_4.jpg,left,727.574999909848,true,low,NA,NA,NA,NA,NA,NA,NA,false
kUg2KDXV,3y7ltze0zwz7ft0pae7k34mi28juzv,37uewgm5hxlkrplupb8pvjbd4rsr1u,kUg2KDXV,2020-0188,2020-05-21,14:21:06,14:38:52,NA,incomplete,148,shape,1,right,Green_Star_Dots_1.jpg,Purple_Circle_Chess_1.jpg,Blue_Star_Stripes_3.jpg,left,740.9950001165271,false,low,NA,NA,NA,NA,NA,NA,NA,false
kUg2KDXV,3y7ltze0zwz7ft0pae7k34mi28juzv,37uewgm5hxlkrplupb8pvjbd4rsr1u,kUg2KDXV,2020-0188,2020-05-21,14:21:06,14:38:52,NA,incomplete,149,shape,0,left,Red_Triangle_Chess_4.jpg,Purple_Triangle_Dots_3.jpg,Blue_Circle_Stripes_4.jpg,left,763.9450000133365,true,low,NA,NA,NA,NA,NA,NA,NA,false
kUg2KDXV,3y7ltze0zwz7ft0pae7k34mi28juzv,37uewgm5hxlkrplupb8pvjbd4rsr1u,kUg2KDXV,2020-0188,2020-05-21,14:21:06,14:38:52,NA,incomplete,150,shape,1,left,Red_Star_Chess_2.jpg,Purple_Star_Dots_3.jpg,Green_Circle_Grid_2.jpg,left,868.8999998848885,true,low,NA,NA,NA,NA,NA,NA,NA,false
kUg2KDXV,3y7ltze0zwz7ft0pae7k34mi28juzv,37uewgm5hxlkrplupb8pvjbd4rsr1u,kUg2KDXV,2020-0188,2020-05-21,14:21:06,14:38:52,NA,incomplete,151,shape,1,right,Purple_Circle_Dots_2.jpg,Red_Plus_Chess_2.jpg,Blue_Circle_Stripes_1.jpg,right,662.6399999950081,true,low,NA,NA,NA,NA,NA,NA,NA,false
kUg2KDXV,3y7ltze0zwz7ft0pae7k34mi28juzv,37uewgm5hxlkrplupb8pvjbd4rsr1u,kUg2KDXV,2020-0188,2020-05-21,14:21:06,14:38:52,NA,incomplete,152,shape,0,left,Purple_Plus_Chess_1.jpg,Blue_Plus_Grid_2.jpg,Red_Star_Dots_1.jpg,left,676.9100001547486,true,low,NA,NA,NA,NA,NA,NA,NA,false
kUg2KDXV,3y7ltze0zwz7ft0pae7k34mi28juzv,37uewgm5hxlkrplupb8pvjbd4rsr1u,kUg2KDXV,2020-0188,2020-05-21,14:21:06,14:38:52,NA,incomplete,153,shape,1,right,Red_Triangle_Chess_1.jpg,Green_Circle_Stripes_1.jpg,Blue_Triangle_Grid_4.jpg,right,837.7700001001358,true,low,NA,NA,NA,NA,NA,NA,NA,false
kUg2KDXV,3y7ltze0zwz7ft0pae7k34mi28juzv,37uewgm5hxlkrplupb8pvjbd4rsr1u,kUg2KDXV,2020-0188,2020-05-21,14:21:06,14:38:52,NA,incomplete,154,shape,1,right,Purple_Plus_Stripes_2.jpg,Green_Triangle_Dots_2.jpg,Blue_Plus_Chess_1.jpg,right,711.0850000753999,true,low,NA,NA,NA,NA,NA,NA,NA,false
kUg2KDXV,3y7ltze0zwz7ft0pae7k34mi28juzv,37uewgm5hxlkrplupb8pvjbd4rsr1u,kUg2KDXV,2020-0188,2020-05-21,14:21:06,14:38:52,NA,incomplete,155,shape,1,right,Red_Star_Grid_4.jpg,Green_Plus_Dots_4.jpg,Blue_Star_Chess_1.jpg,left,946.8249999918044,false,low,NA,NA,NA,NA,NA,NA,NA,false
kUg2KDXV,3y7ltze0zwz7ft0pae7k34mi28juzv,37uewgm5hxlkrplupb8pvjbd4rsr1u,kUg2KDXV,2020-0188,2020-05-21,14:21:06,14:38:52,NA,incomplete,156,shape,0,right,Green_Plus_Stripes_1.jpg,Blue_Circle_Grid_1.jpg,Purple_Plus_Dots_4.jpg,right,863.649999955669,true,low,NA,NA,NA,NA,NA,NA,NA,false
kUg2KDXV,3y7ltze0zwz7ft0pae7k34mi28juzv,37uewgm5hxlkrplupb8pvjbd4rsr1u,kUg2KDXV,2020-0188,2020-05-21,14:21:06,14:38:52,NA,incomplete,157,shape,1,left,Red_Plus_Chess_4.jpg,Green_Plus_Dots_2.jpg,Blue_Triangle_Grid_4.jpg,left,1057.5000001117587,true,low,NA,NA,NA,NA,NA,NA,NA,false
kUg2KDXV,3y7ltze0zwz7ft0pae7k34mi28juzv,37uewgm5hxlkrplupb8pvjbd4rsr1u,kUg2KDXV,2020-0188,2020-05-21,14:21:06,14:38:52,NA,incomplete,158,shape,1,left,Green_Plus_Dots_1.jpg,Purple_Plus_Chess_4.jpg,Blue_Star_Grid_1.jpg,left,798.8700000569224,true,low,NA,NA,NA,NA,NA,NA,NA,false
kUg2KDXV,3y7ltze0zwz7ft0pae7k34mi28juzv,37uewgm5hxlkrplupb8pvjbd4rsr1u,kUg2KDXV,2020-0188,2020-05-21,14:21:06,14:38:52,NA,incomplete,159,shape,1,left,Blue_Triangle_Dots_1.jpg,Green_Triangle_Stripes_4.jpg,Purple_Circle_Grid_1.jpg,left,690.8800001256168,true,low,NA,NA,NA,NA,NA,NA,NA,false
kUg2KDXV,3y7ltze0zwz7ft0pae7k34mi28juzv,37uewgm5hxlkrplupb8pvjbd4rsr1u,kUg2KDXV,2020-0188,2020-05-21,14:21:06,14:38:52,NA,incomplete,160,number,0,left,Green_Triangle_Dots_3.jpg,Red_Star_Stripes_3.jpg,Purple_Triangle_Grid_1.jpg,left,727.4100000504404,true,low,NA,NA,NA,NA,NA,NA,NA,false
kUg2KDXV,3y7ltze0zwz7ft0pae7k34mi28juzv,37uewgm5hxlkrplupb8pvjbd4rsr1u,kUg2KDXV,2020-0188,2020-05-21,14:21:06,14:38:52,NA,incomplete,161,number,1,left,Red_Plus_Stripes_4.jpg,Purple_Triangle_Chess_4.jpg,Blue_Plus_Dots_3.jpg,right,1124.4399999268353,false,low,NA,NA,NA,NA,NA,NA,NA,false
kUg2KDXV,3y7ltze0zwz7ft0pae7k34mi28juzv,37uewgm5hxlkrplupb8pvjbd4rsr1u,kUg2KDXV,2020-0188,2020-05-21,14:21:06,14:38:52,NA,incomplete,162,number,1,right,Purple_Triangle_Grid_1.jpg,Blue_Triangle_Dots_4.jpg,Red_Plus_Chess_1.jpg,left,1201.1250001378357,false,low,NA,NA,NA,NA,NA,NA,NA,false
kUg2KDXV,3y7ltze0zwz7ft0pae7k34mi28juzv,37uewgm5hxlkrplupb8pvjbd4rsr1u,kUg2KDXV,2020-0188,2020-05-21,14:21:06,14:38:52,NA,incomplete,163,number,0,right,Blue_Circle_Grid_1.jpg,Purple_Circle_Dots_4.jpg,Red_Star_Chess_1.jpg,right,787.3199998866767,true,low,NA,NA,NA,NA,NA,NA,NA,false
kUg2KDXV,3y7ltze0zwz7ft0pae7k34mi28juzv,37uewgm5hxlkrplupb8pvjbd4rsr1u,kUg2KDXV,2020-0188,2020-05-21,14:21:06,14:38:52,NA,incomplete,164,number,1,right,Purple_Star_Grid_4.jpg,Green_Star_Stripes_3.jpg,Blue_Circle_Chess_4.jpg,left,991.9000000227243,false,low,NA,NA,NA,NA,NA,NA,NA,false
kUg2KDXV,3y7ltze0zwz7ft0pae7k34mi28juzv,37uewgm5hxlkrplupb8pvjbd4rsr1u,kUg2KDXV,2020-0188,2020-05-21,14:21:06,14:38:52,NA,incomplete,165,number,1,left,Blue_Star_Dots_4.jpg,Purple_Triangle_Chess_4.jpg,Green_Star_Stripes_1.jpg,left,935.0049998611212,true,low,NA,NA,NA,NA,NA,NA,NA,false
kUg2KDXV,3y7ltze0zwz7ft0pae7k34mi28juzv,37uewgm5hxlkrplupb8pvjbd4rsr1u,kUg2KDXV,2020-0188,2020-05-21,14:21:06,14:38:52,NA,incomplete,166,number,1,left,Red_Triangle_Dots_2.jpg,Green_Plus_Stripes_2.jpg,Purple_Triangle_Chess_4.jpg,left,972.3000000230968,true,low,NA,NA,NA,NA,NA,NA,NA,false
kUg2KDXV,3y7ltze0zwz7ft0pae7k34mi28juzv,37uewgm5hxlkrplupb8pvjbd4rsr1u,kUg2KDXV,2020-0188,2020-05-21,14:21:06,14:38:52,NA,incomplete,167,number,1,left,Green_Triangle_Chess_2.jpg,Red_Star_Grid_2.jpg,Blue_Triangle_Stripes_4.jpg,left,744.1950000356883,true,low,NA,NA,NA,NA,NA,NA,NA,false
kUg2KDXV,3y7ltze0zwz7ft0pae7k34mi28juzv,37uewgm5hxlkrplupb8pvjbd4rsr1u,kUg2KDXV,2020-0188,2020-05-21,14:21:06,14:38:52,NA,incomplete,168,number,1,right,Green_Plus_Grid_3.jpg,Blue_Plus_Stripes_1.jpg,Purple_Star_Dots_3.jpg,right,811.7800001055002,true,low,NA,NA,NA,NA,NA,NA,NA,false
kUg2KDXV,3y7ltze0zwz7ft0pae7k34mi28juzv,37uewgm5hxlkrplupb8pvjbd4rsr1u,kUg2KDXV,2020-0188,2020-05-21,14:21:06,14:38:52,NA,incomplete,169,number,0,left,Blue_Triangle_Chess_4.jpg,Green_Star_Stripes_4.jpg,Purple_Triangle_Grid_2.jpg,left,743.1900000665337,true,low,NA,NA,NA,NA,NA,NA,NA,false
kUg2KDXV,3y7ltze0zwz7ft0pae7k34mi28juzv,37uewgm5hxlkrplupb8pvjbd4rsr1u,kUg2KDXV,2020-0188,2020-05-21,14:21:06,14:38:52,NA,incomplete,170,number,1,left,Red_Circle_Grid_3.jpg,Green_Star_Stripes_3.jpg,Blue_Circle_Chess_1.jpg,left,823.2299999799579,true,low,NA,NA,NA,NA,NA,NA,NA,false
kUg2KDXV,3y7ltze0zwz7ft0pae7k34mi28juzv,37uewgm5hxlkrplupb8pvjbd4rsr1u,kUg2KDXV,2020-0188,2020-05-21,14:21:06,14:38:52,NA,incomplete,171,number,1,left,Red_Triangle_Chess_2.jpg,Green_Star_Grid_2.jpg,Blue_Triangle_Dots_1.jpg,left,842.8950000088662,true,low,NA,NA,NA,NA,NA,NA,NA,false
kUg2KDXV,3y7ltze0zwz7ft0pae7k34mi28juzv,37uewgm5hxlkrplupb8pvjbd4rsr1u,kUg2KDXV,2020-0188,2020-05-21,14:21:06,14:38:52,NA,incomplete,172,number,1,left,Red_Star_Dots_3.jpg,Blue_Triangle_Stripes_3.jpg,Green_Star_Grid_1.jpg,left,682.6349999755621,true,low,NA,NA,NA,NA,NA,NA,NA,false
kUg2KDXV,3y7ltze0zwz7ft0pae7k34mi28juzv,37uewgm5hxlkrplupb8pvjbd4rsr1u,kUg2KDXV,2020-0188,2020-05-21,14:21:06,14:38:52,NA,incomplete,173,number,0,right,Red_Star_Chess_1.jpg,Blue_Star_Grid_2.jpg,Purple_Triangle_Stripes_1.jpg,right,899.1050000768155,true,low,NA,NA,NA,NA,NA,NA,NA,false
kUg2KDXV,3y7ltze0zwz7ft0pae7k34mi28juzv,37uewgm5hxlkrplupb8pvjbd4rsr1u,kUg2KDXV,2020-0188,2020-05-21,14:21:06,14:38:52,NA,incomplete,174,number,1,left,Red_Circle_Stripes_4.jpg,Blue_Triangle_Dots_4.jpg,Purple_Circle_Grid_1.jpg,left,779.6549999620765,true,low,NA,NA,NA,NA,NA,NA,NA,false
kUg2KDXV,3y7ltze0zwz7ft0pae7k34mi28juzv,37uewgm5hxlkrplupb8pvjbd4rsr1u,kUg2KDXV,2020-0188,2020-05-21,14:21:06,14:38:52,NA,incomplete,175,number,1,left,Blue_Triangle_Chess_4.jpg,Green_Circle_Dots_4.jpg,Purple_Triangle_Grid_2.jpg,left,812.1599999722093,true,low,NA,NA,NA,NA,NA,NA,NA,false
kUg2KDXV,3y7ltze0zwz7ft0pae7k34mi28juzv,37uewgm5hxlkrplupb8pvjbd4rsr1u,kUg2KDXV,2020-0188,2020-05-21,14:21:06,14:38:52,NA,incomplete,176,number,1,right,Green_Circle_Stripes_1.jpg,Red_Circle_Chess_4.jpg,Purple_Star_Grid_1.jpg,right,935.1500000339001,true,low,NA,NA,NA,NA,NA,NA,NA,false
kUg2KDXV,3y7ltze0zwz7ft0pae7k34mi28juzv,37uewgm5hxlkrplupb8pvjbd4rsr1u,kUg2KDXV,2020-0188,2020-05-21,14:21:06,14:38:52,NA,incomplete,177,number,1,right,Red_Star_Dots_3.jpg,Purple_Star_Grid_2.jpg,Blue_Circle_Chess_3.jpg,right,795.7049999386072,true,low,NA,NA,NA,NA,NA,NA,NA,false
kUg2KDXV,3y7ltze0zwz7ft0pae7k34mi28juzv,37uewgm5hxlkrplupb8pvjbd4rsr1u,kUg2KDXV,2020-0188,2020-05-21,14:21:06,14:38:52,NA,incomplete,178,number,1,left,Green_Plus_Stripes_1.jpg,Blue_Circle_Chess_1.jpg,Purple_Plus_Dots_3.jpg,left,644.6999998297542,true,low,NA,NA,NA,NA,NA,NA,NA,false
kUg2KDXV,3y7ltze0zwz7ft0pae7k34mi28juzv,37uewgm5hxlkrplupb8pvjbd4rsr1u,kUg2KDXV,2020-0188,2020-05-21,14:21:06,14:38:52,NA,incomplete,179,number,1,left,Blue_Star_Stripes_2.jpg,Green_Triangle_Dots_2.jpg,Purple_Star_Chess_4.jpg,left,753.4750001505017,true,low,NA,NA,NA,NA,NA,NA,NA,false
kUg2KDXV,3y7ltze0zwz7ft0pae7k34mi28juzv,37uewgm5hxlkrplupb8pvjbd4rsr1u,kUg2KDXV,2020-0188,2020-05-21,14:21:06,14:38:52,NA,incomplete,180,shape,0,right,Purple_Triangle_Chess_4.jpg,Green_Circle_Dots_4.jpg,Red_Triangle_Grid_1.jpg,left,666.230000089854,false,low,NA,NA,NA,NA,NA,NA,NA,false
kUg2KDXV,3y7ltze0zwz7ft0pae7k34mi28juzv,37uewgm5hxlkrplupb8pvjbd4rsr1u,kUg2KDXV,2020-0188,2020-05-21,14:21:06,14:38:52,NA,incomplete,181,shape,1,left,Green_Triangle_Stripes_4.jpg,Purple_Triangle_Chess_1.jpg,Blue_Plus_Grid_4.jpg,right,641.994999954477,false,low,NA,NA,NA,NA,NA,NA,NA,false
kUg2KDXV,3y7ltze0zwz7ft0pae7k34mi28juzv,37uewgm5hxlkrplupb8pvjbd4rsr1u,kUg2KDXV,2020-0188,2020-05-21,14:21:06,14:38:52,NA,incomplete,182,shape,1,left,Blue_Circle_Stripes_4.jpg,Green_Circle_Grid_1.jpg,Purple_Triangle_Chess_4.jpg,right,689.6349999587983,false,low,NA,NA,NA,NA,NA,NA,NA,false
kUg2KDXV,3y7ltze0zwz7ft0pae7k34mi28juzv,37uewgm5hxlkrplupb8pvjbd4rsr1u,kUg2KDXV,2020-0188,2020-05-21,14:21:06,14:38:52,NA,incomplete,183,shape,1,right,Red_Circle_Dots_3.jpg,Purple_Star_Stripes_3.jpg,Blue_Circle_Grid_4.jpg,right,752.5899999309331,true,low,NA,NA,NA,NA,NA,NA,NA,false
kUg2KDXV,3y7ltze0zwz7ft0pae7k34mi28juzv,37uewgm5hxlkrplupb8pvjbd4rsr1u,kUg2KDXV,2020-0188,2020-05-21,14:21:06,14:38:52,NA,incomplete,184,shape,1,left,Purple_Triangle_Stripes_1.jpg,Blue_Triangle_Dots_2.jpg,Green_Plus_Grid_1.jpg,left,709.9750000052154,true,low,NA,NA,NA,NA,NA,NA,NA,false
kUg2KDXV,3y7ltze0zwz7ft0pae7k34mi28juzv,37uewgm5hxlkrplupb8pvjbd4rsr1u,kUg2KDXV,2020-0188,2020-05-21,14:21:06,14:38:52,NA,incomplete,185,shape,0,left,Green_Triangle_Grid_1.jpg,Purple_Triangle_Chess_2.jpg,Red_Plus_Stripes_1.jpg,left,762.0850000530481,true,low,NA,NA,NA,NA,NA,NA,NA,false
kUg2KDXV,3y7ltze0zwz7ft0pae7k34mi28juzv,37uewgm5hxlkrplupb8pvjbd4rsr1u,kUg2KDXV,2020-0188,2020-05-21,14:21:06,14:38:52,NA,incomplete,186,shape,1,right,Red_Star_Stripes_2.jpg,Purple_Triangle_Chess_2.jpg,Blue_Star_Grid_3.jpg,right,734.9799999501556,true,low,NA,NA,NA,NA,NA,NA,NA,false
kUg2KDXV,3y7ltze0zwz7ft0pae7k34mi28juzv,37uewgm5hxlkrplupb8pvjbd4rsr1u,kUg2KDXV,2020-0188,2020-05-21,14:21:06,14:38:52,NA,incomplete,187,shape,1,right,Blue_Circle_Grid_4.jpg,Purple_Star_Chess_4.jpg,Red_Circle_Dots_3.jpg,left,651.7699998803437,false,low,NA,NA,NA,NA,NA,NA,NA,false
kUg2KDXV,3y7ltze0zwz7ft0pae7k34mi28juzv,37uewgm5hxlkrplupb8pvjbd4rsr1u,kUg2KDXV,2020-0188,2020-05-21,14:21:06,14:38:52,NA,incomplete,188,shape,0,right,Red_Star_Chess_2.jpg,Blue_Plus_Grid_2.jpg,Green_Star_Stripes_4.jpg,right,916.7800000868738,true,low,NA,NA,NA,NA,NA,NA,NA,false
kUg2KDXV,3y7ltze0zwz7ft0pae7k34mi28juzv,37uewgm5hxlkrplupb8pvjbd4rsr1u,kUg2KDXV,2020-0188,2020-05-21,14:21:06,14:38:52,NA,incomplete,189,shape,1,right,Green_Star_Dots_1.jpg,Red_Plus_Chess_1.jpg,Blue_Star_Grid_4.jpg,right,922.8499999735504,true,low,NA,NA,NA,NA,NA,NA,NA,false
kUg2KDXV,3y7ltze0zwz7ft0pae7k34mi28juzv,37uewgm5hxlkrplupb8pvjbd4rsr1u,kUg2KDXV,2020-0188,2020-05-21,14:21:06,14:38:52,NA,incomplete,190,shape,1,right,Purple_Circle_Stripes_1.jpg,Green_Triangle_Chess_1.jpg,Red_Circle_Grid_3.jpg,right,733.8650000747293,true,low,NA,NA,NA,NA,NA,NA,NA,false
kUg2KDXV,3y7ltze0zwz7ft0pae7k34mi28juzv,37uewgm5hxlkrplupb8pvjbd4rsr1u,kUg2KDXV,2020-0188,2020-05-21,14:21:06,14:38:52,NA,incomplete,191,shape,1,left,Red_Plus_Stripes_4.jpg,Blue_Plus_Grid_1.jpg,Green_Star_Chess_4.jpg,left,971.7650001402944,true,low,NA,NA,NA,NA,NA,NA,NA,false
kUg2KDXV,3y7ltze0zwz7ft0pae7k34mi28juzv,37uewgm5hxlkrplupb8pvjbd4rsr1u,kUg2KDXV,2020-0188,2020-05-21,14:21:06,14:38:52,NA,incomplete,192,shape,1,left,Purple_Triangle_Chess_3.jpg,Green_Triangle_Dots_4.jpg,Red_Plus_Grid_3.jpg,left,1033.900000154972,true,low,NA,NA,NA,NA,NA,NA,NA,false
kUg2KDXV,3y7ltze0zwz7ft0pae7k34mi28juzv,37uewgm5hxlkrplupb8pvjbd4rsr1u,kUg2KDXV,2020-0188,2020-05-21,14:21:06,14:38:52,NA,incomplete,193,shape,1,right,Blue_Circle_Stripes_3.jpg,Purple_Plus_Grid_3.jpg,Green_Circle_Dots_2.jpg,right,734.9399998784065,true,low,NA,NA,NA,NA,NA,NA,NA,false
kUg2KDXV,3y7ltze0zwz7ft0pae7k34mi28juzv,37uewgm5hxlkrplupb8pvjbd4rsr1u,kUg2KDXV,2020-0188,2020-05-21,14:21:06,14:38:52,NA,incomplete,194,shape,1,left,Blue_Triangle_Grid_3.jpg,Purple_Triangle_Chess_1.jpg,Green_Circle_Stripes_3.jpg,left,942.975000012666,true,low,NA,NA,NA,NA,NA,NA,NA,false
kUg2KDXV,3y7ltze0zwz7ft0pae7k34mi28juzv,37uewgm5hxlkrplupb8pvjbd4rsr1u,kUg2KDXV,2020-0188,2020-05-21,14:21:06,14:38:52,NA,incomplete,195,shape,0,right,Red_Star_Stripes_4.jpg,Green_Circle_Dots_4.jpg,Blue_Star_Grid_2.jpg,right,887.8500000573695,true,low,NA,NA,NA,NA,NA,NA,NA,false
kUg2KDXV,3y7ltze0zwz7ft0pae7k34mi28juzv,37uewgm5hxlkrplupb8pvjbd4rsr1u,kUg2KDXV,2020-0188,2020-05-21,14:21:06,14:38:52,NA,incomplete,196,shape,1,right,Purple_Triangle_Dots_3.jpg,Green_Plus_Stripes_3.jpg,Blue_Triangle_Chess_1.jpg,right,918.4449999593198,true,low,NA,NA,NA,NA,NA,NA,NA,false
kUg2KDXV,3y7ltze0zwz7ft0pae7k34mi28juzv,37uewgm5hxlkrplupb8pvjbd4rsr1u,kUg2KDXV,2020-0188,2020-05-21,14:21:06,14:38:52,NA,incomplete,197,shape,1,right,Red_Circle_Stripes_1.jpg,Green_Plus_Dots_1.jpg,Blue_Circle_Grid_3.jpg,right,876.274999929592,true,low,NA,NA,NA,NA,NA,NA,NA,false
kUg2KDXV,3y7ltze0zwz7ft0pae7k34mi28juzv,37uewgm5hxlkrplupb8pvjbd4rsr1u,kUg2KDXV,2020-0188,2020-05-21,14:21:06,14:38:52,NA,incomplete,198,shape,1,left,Purple_Triangle_Dots_4.jpg,Blue_Triangle_Stripes_3.jpg,Green_Plus_Chess_4.jpg,left,731.900000013411,true,low,NA,NA,NA,NA,NA,NA,NA,false
kUg2KDXV,3y7ltze0zwz7ft0pae7k34mi28juzv,37uewgm5hxlkrplupb8pvjbd4rsr1u,kUg2KDXV,2020-0188,2020-05-21,14:21:06,14:38:52,NA,incomplete,199,shape,0,left,Green_Triangle_Chess_1.jpg,Purple_Triangle_Grid_2.jpg,Blue_Star_Dots_1.jpg,left,914.9849999230355,true,low,NA,NA,NA,NA,NA,NA,NA,false
kUg2KDXV,3y7ltze0zwz7ft0pae7k34mi28juzv,37uewgm5hxlkrplupb8pvjbd4rsr1u,kUg2KDXV,2020-0188,2020-05-21,14:21:06,14:38:52,NA,incomplete,200,number,1,left,Green_Circle_Stripes_2.jpg,Blue_Star_Chess_2.jpg,Red_Circle_Dots_3.jpg,right,733.3949999883771,false,low,NA,NA,NA,NA,NA,NA,NA,false
kUg2KDXV,3y7ltze0zwz7ft0pae7k34mi28juzv,37uewgm5hxlkrplupb8pvjbd4rsr1u,kUg2KDXV,2020-0188,2020-05-21,14:21:06,14:38:52,NA,incomplete,201,number,0,left,Purple_Plus_Grid_1.jpg,Green_Triangle_Stripes_1.jpg,Red_Plus_Chess_4.jpg,left,626.6099999193102,true,low,NA,NA,NA,NA,NA,NA,NA,false
kUg2KDXV,3y7ltze0zwz7ft0pae7k34mi28juzv,37uewgm5hxlkrplupb8pvjbd4rsr1u,kUg2KDXV,2020-0188,2020-05-21,14:21:06,14:38:52,NA,incomplete,202,number,1,right,Red_Star_Chess_4.jpg,Purple_Star_Grid_1.jpg,Blue_Circle_Stripes_4.jpg,right,1042.8400000091642,true,low,NA,NA,NA,NA,NA,NA,NA,false
kUg2KDXV,3y7ltze0zwz7ft0pae7k34mi28juzv,37uewgm5hxlkrplupb8pvjbd4rsr1u,kUg2KDXV,2020-0188,2020-05-21,14:21:06,14:38:52,NA,incomplete,203,number,0,left,Purple_Triangle_Stripes_1.jpg,Blue_Star_Chess_1.jpg,Green_Triangle_Grid_4.jpg,left,651.2900001835078,true,low,NA,NA,NA,NA,NA,NA,NA,false
kUg2KDXV,3y7ltze0zwz7ft0pae7k34mi28juzv,37uewgm5hxlkrplupb8pvjbd4rsr1u,kUg2KDXV,2020-0188,2020-05-21,14:21:06,14:38:52,NA,incomplete,204,number,1,right,Red_Triangle_Chess_3.jpg,Purple_Triangle_Grid_1.jpg,Blue_Star_Stripes_3.jpg,right,869.925000006333,true,low,NA,NA,NA,NA,NA,NA,NA,false
kUg2KDXV,3y7ltze0zwz7ft0pae7k34mi28juzv,37uewgm5hxlkrplupb8pvjbd4rsr1u,kUg2KDXV,2020-0188,2020-05-21,14:21:06,14:38:52,NA,incomplete,205,number,1,right,Green_Circle_Dots_1.jpg,Red_Circle_Stripes_4.jpg,Blue_Star_Chess_1.jpg,right,846.794999903068,true,low,NA,NA,NA,NA,NA,NA,NA,false
kUg2KDXV,3y7ltze0zwz7ft0pae7k34mi28juzv,37uewgm5hxlkrplupb8pvjbd4rsr1u,kUg2KDXV,2020-0188,2020-05-21,14:21:06,14:38:52,NA,incomplete,206,number,0,right,Purple_Triangle_Chess_1.jpg,Blue_Triangle_Stripes_3.jpg,Red_Circle_Dots_1.jpg,right,771.2300000712276,true,low,NA,NA,NA,NA,NA,NA,NA,false
kUg2KDXV,3y7ltze0zwz7ft0pae7k34mi28juzv,37uewgm5hxlkrplupb8pvjbd4rsr1u,kUg2KDXV,2020-0188,2020-05-21,14:21:06,14:38:52,NA,incomplete,207,number,1,right,Red_Triangle_Stripes_3.jpg,Purple_Triangle_Grid_1.jpg,Green_Plus_Dots_3.jpg,right,772.7399999275804,true,low,NA,NA,NA,NA,NA,NA,NA,false
kUg2KDXV,3y7ltze0zwz7ft0pae7k34mi28juzv,37uewgm5hxlkrplupb8pvjbd4rsr1u,kUg2KDXV,2020-0188,2020-05-21,14:21:06,14:38:52,NA,incomplete,208,number,1,left,Green_Plus_Grid_3.jpg,Purple_Circle_Stripes_3.jpg,Red_Plus_Chess_2.jpg,left,769.645000109449,true,low,NA,NA,NA,NA,NA,NA,NA,false
kUg2KDXV,3y7ltze0zwz7ft0pae7k34mi28juzv,37uewgm5hxlkrplupb8pvjbd4rsr1u,kUg2KDXV,2020-0188,2020-05-21,14:21:06,14:38:52,NA,incomplete,209,number,1,right,Blue_Plus_Chess_3.jpg,Red_Plus_Grid_2.jpg,Purple_Star_Stripes_3.jpg,right,887.224999954924,true,low,NA,NA,NA,NA,NA,NA,NA,false
kUg2KDXV,3y7ltze0zwz7ft0pae7k34mi28juzv,37uewgm5hxlkrplupb8pvjbd4rsr1u,kUg2KDXV,2020-0188,2020-05-21,14:21:06,14:38:52,NA,incomplete,210,number,1,right,Purple_Plus_Stripes_2.jpg,Blue_Plus_Dots_1.jpg,Red_Triangle_Chess_2.jpg,right,851.9349999260157,true,low,NA,NA,NA,NA,NA,NA,NA,false
kUg2KDXV,3y7ltze0zwz7ft0pae7k34mi28juzv,37uewgm5hxlkrplupb8pvjbd4rsr1u,kUg2KDXV,2020-0188,2020-05-21,14:21:06,14:38:52,NA,incomplete,211,number,0,left,Red_Star_Dots_3.jpg,Green_Triangle_Stripes_3.jpg,Purple_Star_Grid_4.jpg,right,1003.7350000347942,false,low,NA,NA,NA,NA,NA,NA,NA,false
kUg2KDXV,3y7ltze0zwz7ft0pae7k34mi28juzv,37uewgm5hxlkrplupb8pvjbd4rsr1u,kUg2KDXV,2020-0188,2020-05-21,14:21:06,14:38:52,NA,incomplete,212,number,1,left,Green_Plus_Dots_4.jpg,Purple_Star_Grid_4.jpg,Blue_Plus_Chess_3.jpg,right,1395.6349999643862,false,low,NA,NA,NA,NA,NA,NA,NA,false
kUg2KDXV,3y7ltze0zwz7ft0pae7k34mi28juzv,37uewgm5hxlkrplupb8pvjbd4rsr1u,kUg2KDXV,2020-0188,2020-05-21,14:21:06,14:38:52,NA,incomplete,213,number,1,left,Red_Circle_Dots_4.jpg,Green_Star_Grid_4.jpg,Purple_Circle_Stripes_3.jpg,left,958.4150000009686,true,low,NA,NA,NA,NA,NA,NA,NA,false
kUg2KDXV,3y7ltze0zwz7ft0pae7k34mi28juzv,37uewgm5hxlkrplupb8pvjbd4rsr1u,kUg2KDXV,2020-0188,2020-05-21,14:21:06,14:38:52,NA,incomplete,214,number,1,right,Red_Plus_Dots_4.jpg,Blue_Plus_Grid_1.jpg,Green_Circle_Stripes_4.jpg,right,803.1699999701232,true,low,NA,NA,NA,NA,NA,NA,NA,false
kUg2KDXV,3y7ltze0zwz7ft0pae7k34mi28juzv,37uewgm5hxlkrplupb8pvjbd4rsr1u,kUg2KDXV,2020-0188,2020-05-21,14:21:06,14:38:52,NA,incomplete,215,number,1,left,Red_Plus_Grid_3.jpg,Green_Star_Chess_3.jpg,Blue_Plus_Dots_2.jpg,left,951.2150001246482,true,low,NA,NA,NA,NA,NA,NA,NA,false
kUg2KDXV,3y7ltze0zwz7ft0pae7k34mi28juzv,37uewgm5hxlkrplupb8pvjbd4rsr1u,kUg2KDXV,2020-0188,2020-05-21,14:21:06,14:38:52,NA,incomplete,216,number,1,left,Green_Triangle_Dots_4.jpg,Red_Circle_Grid_4.jpg,Blue_Triangle_Stripes_2.jpg,left,714.0399999916553,true,low,NA,NA,NA,NA,NA,NA,NA,false
kUg2KDXV,3y7ltze0zwz7ft0pae7k34mi28juzv,37uewgm5hxlkrplupb8pvjbd4rsr1u,kUg2KDXV,2020-0188,2020-05-21,14:21:06,14:38:52,NA,incomplete,217,number,1,left,Blue_Star_Grid_4.jpg,Purple_Triangle_Stripes_4.jpg,Green_Star_Dots_3.jpg,left,928.1700002029538,true,low,NA,NA,NA,NA,NA,NA,NA,false
kUg2KDXV,3y7ltze0zwz7ft0pae7k34mi28juzv,37uewgm5hxlkrplupb8pvjbd4rsr1u,kUg2KDXV,2020-0188,2020-05-21,14:21:06,14:38:52,NA,incomplete,218,number,1,right,Green_Circle_Stripes_4.jpg,Red_Circle_Grid_3.jpg,Purple_Triangle_Chess_4.jpg,right,750.3700000233948,true,low,NA,NA,NA,NA,NA,NA,NA,false
kUg2KDXV,3y7ltze0zwz7ft0pae7k34mi28juzv,37uewgm5hxlkrplupb8pvjbd4rsr1u,kUg2KDXV,2020-0188,2020-05-21,14:21:06,14:38:52,NA,incomplete,219,number,1,right,Purple_Plus_Stripes_1.jpg,Blue_Plus_Grid_2.jpg,Green_Circle_Dots_1.jpg,right,781.7800000775605,true,low,NA,NA,NA,NA,NA,NA,NA,false
kUg2KDXV,3y7ltze0zwz7ft0pae7k34mi28juzv,37uewgm5hxlkrplupb8pvjbd4rsr1u,kUg2KDXV,2020-0188,2020-05-21,14:21:06,14:38:52,NA,incomplete,220,shape,1,left,Green_Circle_Chess_1.jpg,Purple_Circle_Grid_4.jpg,Blue_Triangle_Stripes_1.jpg,right,699.2849998641759,false,low,NA,NA,NA,NA,NA,NA,NA,false
kUg2KDXV,3y7ltze0zwz7ft0pae7k34mi28juzv,37uewgm5hxlkrplupb8pvjbd4rsr1u,kUg2KDXV,2020-0188,2020-05-21,14:21:06,14:38:52,NA,incomplete,221,shape,1,left,Blue_Triangle_Dots_2.jpg,Purple_Triangle_Chess_3.jpg,Green_Circle_Stripes_2.jpg,right,764.1799999400973,false,low,NA,NA,NA,NA,NA,NA,NA,false
kUg2KDXV,3y7ltze0zwz7ft0pae7k34mi28juzv,37uewgm5hxlkrplupb8pvjbd4rsr1u,kUg2KDXV,2020-0188,2020-05-21,14:21:06,14:38:52,NA,incomplete,222,shape,1,right,Red_Circle_Grid_2.jpg,Green_Triangle_Dots_2.jpg,Blue_Circle_Stripes_3.jpg,right,1165.9450000151992,true,low,NA,NA,NA,NA,NA,NA,NA,false
kUg2KDXV,3y7ltze0zwz7ft0pae7k34mi28juzv,37uewgm5hxlkrplupb8pvjbd4rsr1u,kUg2KDXV,2020-0188,2020-05-21,14:21:06,14:38:52,NA,incomplete,223,shape,1,right,Red_Plus_Stripes_3.jpg,Blue_Triangle_Dots_3.jpg,Green_Plus_Chess_4.jpg,right,1019.2950000055134,true,low,NA,NA,NA,NA,NA,NA,NA,false
kUg2KDXV,3y7ltze0zwz7ft0pae7k34mi28juzv,37uewgm5hxlkrplupb8pvjbd4rsr1u,kUg2KDXV,2020-0188,2020-05-21,14:21:06,14:38:52,NA,incomplete,224,shape,1,right,Red_Circle_Stripes_1.jpg,Green_Plus_Grid_1.jpg,Blue_Circle_Chess_4.jpg,right,961.7449999786913,true,low,NA,NA,NA,NA,NA,NA,NA,false
kUg2KDXV,3y7ltze0zwz7ft0pae7k34mi28juzv,37uewgm5hxlkrplupb8pvjbd4rsr1u,kUg2KDXV,2020-0188,2020-05-21,14:21:06,14:38:52,NA,incomplete,225,shape,1,left,Purple_Star_Grid_2.jpg,Green_Star_Dots_4.jpg,Blue_Triangle_Chess_2.jpg,left,814.40500007011,true,low,NA,NA,NA,NA,NA,NA,NA,false
kUg2KDXV,3y7ltze0zwz7ft0pae7k34mi28juzv,37uewgm5hxlkrplupb8pvjbd4rsr1u,kUg2KDXV,2020-0188,2020-05-21,14:21:06,14:38:52,NA,incomplete,226,shape,1,right,Blue_Circle_Chess_2.jpg,Purple_Plus_Dots_2.jpg,Red_Circle_Grid_3.jpg,right,671.2700000498444,true,low,NA,NA,NA,NA,NA,NA,NA,false
kUg2KDXV,3y7ltze0zwz7ft0pae7k34mi28juzv,37uewgm5hxlkrplupb8pvjbd4rsr1u,kUg2KDXV,2020-0188,2020-05-21,14:21:06,14:38:52,NA,incomplete,227,shape,1,left,Green_Plus_Stripes_1.jpg,Blue_Plus_Dots_4.jpg,Purple_Triangle_Grid_1.jpg,left,945.134999928996,true,low,NA,NA,NA,NA,NA,NA,NA,false
kUg2KDXV,3y7ltze0zwz7ft0pae7k34mi28juzv,37uewgm5hxlkrplupb8pvjbd4rsr1u,kUg2KDXV,2020-0188,2020-05-21,14:21:06,14:38:52,NA,incomplete,228,shape,1,right,Red_Circle_Chess_2.jpg,Purple_Star_Grid_2.jpg,Green_Circle_Stripes_3.jpg,right,669.5399999152869,true,low,NA,NA,NA,NA,NA,NA,NA,false
kUg2KDXV,3y7ltze0zwz7ft0pae7k34mi28juzv,37uewgm5hxlkrplupb8pvjbd4rsr1u,kUg2KDXV,2020-0188,2020-05-21,14:21:06,14:38:52,NA,incomplete,229,shape,1,right,Purple_Circle_Chess_4.jpg,Green_Triangle_Dots_4.jpg,Red_Circle_Grid_2.jpg,left,800.4250000230968,false,low,NA,NA,NA,NA,NA,NA,NA,false
kUg2KDXV,3y7ltze0zwz7ft0pae7k34mi28juzv,37uewgm5hxlkrplupb8pvjbd4rsr1u,kUg2KDXV,2020-0188,2020-05-21,14:21:06,14:38:52,NA,incomplete,230,shape,1,right,Purple_Star_Chess_3.jpg,Green_Circle_Grid_3.jpg,Blue_Star_Stripes_4.jpg,right,796.1550001055002,true,low,NA,NA,NA,NA,NA,NA,NA,false
kUg2KDXV,3y7ltze0zwz7ft0pae7k34mi28juzv,37uewgm5hxlkrplupb8pvjbd4rsr1u,kUg2KDXV,2020-0188,2020-05-21,14:21:06,14:38:52,NA,incomplete,231,shape,1,left,Purple_Circle_Grid_3.jpg,Red_Circle_Dots_2.jpg,Blue_Plus_Chess_3.jpg,left,1108.5899998433888,true,low,NA,NA,NA,NA,NA,NA,NA,false
kUg2KDXV,3y7ltze0zwz7ft0pae7k34mi28juzv,37uewgm5hxlkrplupb8pvjbd4rsr1u,kUg2KDXV,2020-0188,2020-05-21,14:21:06,14:38:52,NA,incomplete,232,shape,0,left,Blue_Plus_Grid_1.jpg,Green_Plus_Chess_3.jpg,Red_Circle_Stripes_1.jpg,left,700.7550001144409,true,low,NA,NA,NA,NA,NA,NA,NA,false
kUg2KDXV,3y7ltze0zwz7ft0pae7k34mi28juzv,37uewgm5hxlkrplupb8pvjbd4rsr1u,kUg2KDXV,2020-0188,2020-05-21,14:21:06,14:38:52,NA,incomplete,233,shape,1,left,Blue_Plus_Dots_1.jpg,Red_Plus_Chess_3.jpg,Green_Triangle_Grid_1.jpg,left,708.4500000346452,true,low,NA,NA,NA,NA,NA,NA,NA,false
kUg2KDXV,3y7ltze0zwz7ft0pae7k34mi28juzv,37uewgm5hxlkrplupb8pvjbd4rsr1u,kUg2KDXV,2020-0188,2020-05-21,14:21:06,14:38:52,NA,incomplete,234,shape,0,left,Purple_Circle_Chess_4.jpg,Red_Circle_Dots_1.jpg,Blue_Triangle_Stripes_4.jpg,right,735.0250000599772,false,low,NA,NA,NA,NA,NA,NA,NA,false
kUg2KDXV,3y7ltze0zwz7ft0pae7k34mi28juzv,37uewgm5hxlkrplupb8pvjbd4rsr1u,kUg2KDXV,2020-0188,2020-05-21,14:21:06,14:38:52,NA,incomplete,235,shape,1,left,Green_Plus_Chess_2.jpg,Blue_Plus_Dots_1.jpg,Purple_Circle_Grid_2.jpg,right,1139.6800000220537,false,low,NA,NA,NA,NA,NA,NA,NA,false
kUg2KDXV,3y7ltze0zwz7ft0pae7k34mi28juzv,37uewgm5hxlkrplupb8pvjbd4rsr1u,kUg2KDXV,2020-0188,2020-05-21,14:21:06,14:38:52,NA,incomplete,236,shape,1,right,Purple_Circle_Grid_1.jpg,Green_Plus_Chess_1.jpg,Red_Circle_Dots_3.jpg,left,712.6199998892844,false,low,NA,NA,NA,NA,NA,NA,NA,false
kUg2KDXV,3y7ltze0zwz7ft0pae7k34mi28juzv,37uewgm5hxlkrplupb8pvjbd4rsr1u,kUg2KDXV,2020-0188,2020-05-21,14:21:06,14:38:52,NA,incomplete,237,shape,1,left,Green_Plus_Chess_2.jpg,Purple_Plus_Stripes_4.jpg,Red_Triangle_Dots_2.jpg,left,821.9550000503659,true,low,NA,NA,NA,NA,NA,NA,NA,false
kUg2KDXV,3y7ltze0zwz7ft0pae7k34mi28juzv,37uewgm5hxlkrplupb8pvjbd4rsr1u,kUg2KDXV,2020-0188,2020-05-21,14:21:06,14:38:52,NA,incomplete,238,shape,0,right,Green_Triangle_Chess_2.jpg,Purple_Star_Grid_2.jpg,Red_Triangle_Dots_3.jpg,right,1003.885000012815,true,low,NA,NA,NA,NA,NA,NA,NA,false
kUg2KDXV,3y7ltze0zwz7ft0pae7k34mi28juzv,37uewgm5hxlkrplupb8pvjbd4rsr1u,kUg2KDXV,2020-0188,2020-05-21,14:21:06,14:38:52,NA,incomplete,239,shape,1,right,Red_Triangle_Grid_2.jpg,Purple_Star_Chess_2.jpg,Blue_Triangle_Stripes_4.jpg,right,768.4649999719113,true,low,NA,NA,NA,NA,NA,NA,NA,false
kUg2KDXV,3y7ltze0zwz7ft0pae7k34mi28juzv,37uewgm5hxlkrplupb8pvjbd4rsr1u,kUg2KDXV,2020-0188,2020-05-21,14:21:06,14:38:52,NA,NA,instruction example,filling,NA,NA,Green_Plus_Stripes_1.jpg,Purple_Star_Stripes_3.jpg,Green_Circle_Dots_2.jpg,NA,NA,NA,NA,NA,NA,NA,NA,NA,NA,NA,undefined
kUg2KDXV,3y7ltze0zwz7ft0pae7k34mi28juzv,37uewgm5hxlkrplupb8pvjbd4rsr1u,kUg2KDXV,2020-0188,2020-05-21,14:21:06,14:38:52,NA,NA,instruction example,filling,NA,NA,Purple_Star_Chess_3.jpg,Purple_Triangle_Dots_4.jpg,Red_Circle_Chess_2.jpg,NA,NA,NA,NA,NA,NA,NA,NA,NA,NA,NA,undefined
kUg2KDXV,3y7ltze0zwz7ft0pae7k34mi28juzv,37uewgm5hxlkrplupb8pvjbd4rsr1u,kUg2KDXV,2020-0188,2020-05-21,14:21:06,14:38:52,NA,NA,instruction example,filling,NA,NA,Purple_Triangle_Dots_3.jpg,Red_Circle_Stripes_3.jpg,Blue_Triangle_Chess_4.jpg,NA,NA,NA,NA,NA,NA,NA,NA,NA,NA,NA,undefined
kUg2KDXV,3y7ltze0zwz7ft0pae7k34mi28juzv,37uewgm5hxlkrplupb8pvjbd4rsr1u,kUg2KDXV,2020-0188,2020-05-21,14:21:06,14:38:52,NA,NA,instruction example,filling,NA,NA,Green_Circle_Stripes_1.jpg,Blue_Circle_Dots_4.jpg,Red_Star_Grid_1.jpg,NA,NA,NA,NA,NA,NA,NA,NA,NA,NA,NA,undefined
kUg2KDXV,3y7ltze0zwz7ft0pae7k34mi28juzv,37uewgm5hxlkrplupb8pvjbd4rsr1u,kUg2KDXV,2020-0188,2020-05-21,14:21:06,14:38:52,1039566.7300000787,1067461.0399999656,NA,NA,NA,NA,NA,NA,NA,NA,NA,NA,NA,52,White/Caucasian,Male,White American,no,yes,no,undefined
