workerId,hitId,assignmentId,subject,studyid,exp_date,exp_start,exp_end,time_start,time_end,trial,type,reward_validity,answer,image_top,image_left,image_right,response,response_time,response_acc,volatility,age,race,gender,ethnicity,color,vision,neuro,practice
1tCymLca,3dzkabx20liukfefnqxhosng7x6cv3,382m9cohelsbri7n5ty97ehr012ueq,1tCymLca,2020-0188,2020-05-21,16:46:29,17:04:57,NA,incomplete,0,shape,0,right,Red_Circle_Stripes_2.jpg,Green_Triangle_Dots_2.jpg,Purple_Circle_Grid_3.jpg,right,1551.210000005085,true,NA,NA,NA,NA,NA,NA,NA,NA,true
1tCymLca,3dzkabx20liukfefnqxhosng7x6cv3,382m9cohelsbri7n5ty97ehr012ueq,1tCymLca,2020-0188,2020-05-21,16:46:29,17:04:57,NA,incomplete,1,shape,1,left,Blue_Circle_Stripes_2.jpg,Red_Circle_Chess_3.jpg,Green_Plus_Dots_2.jpg,left,1338.4249999944586,true,NA,NA,NA,NA,NA,NA,NA,NA,true
1tCymLca,3dzkabx20liukfefnqxhosng7x6cv3,382m9cohelsbri7n5ty97ehr012ueq,1tCymLca,2020-0188,2020-05-21,16:46:29,17:04:57,NA,incomplete,2,shape,1,left,Blue_Star_Dots_4.jpg,Red_Star_Chess_2.jpg,Green_Triangle_Grid_4.jpg,left,856.1099999933504,true,NA,NA,NA,NA,NA,NA,NA,NA,true
1tCymLca,3dzkabx20liukfefnqxhosng7x6cv3,382m9cohelsbri7n5ty97ehr012ueq,1tCymLca,2020-0188,2020-05-21,16:46:29,17:04:57,NA,incomplete,3,shape,1,left,Green_Star_Chess_1.jpg,Purple_Star_Grid_3.jpg,Red_Triangle_Stripes_1.jpg,left,1013.8149999838788,true,NA,NA,NA,NA,NA,NA,NA,NA,true
1tCymLca,3dzkabx20liukfefnqxhosng7x6cv3,382m9cohelsbri7n5ty97ehr012ueq,1tCymLca,2020-0188,2020-05-21,16:46:29,17:04:57,NA,incomplete,4,shape,1,left,Red_Triangle_Grid_1.jpg,Purple_Triangle_Stripes_3.jpg,Blue_Circle_Chess_1.jpg,left,839.4249999837484,true,NA,NA,NA,NA,NA,NA,NA,NA,true
1tCymLca,3dzkabx20liukfefnqxhosng7x6cv3,382m9cohelsbri7n5ty97ehr012ueq,1tCymLca,2020-0188,2020-05-21,16:46:29,17:04:57,NA,incomplete,5,shape,0,right,Green_Star_Chess_3.jpg,Purple_Plus_Stripes_3.jpg,Red_Star_Dots_1.jpg,right,745.2399999892805,true,NA,NA,NA,NA,NA,NA,NA,NA,true
1tCymLca,3dzkabx20liukfefnqxhosng7x6cv3,382m9cohelsbri7n5ty97ehr012ueq,1tCymLca,2020-0188,2020-05-21,16:46:29,17:04:57,NA,incomplete,6,shape,1,right,Green_Circle_Stripes_1.jpg,Red_Star_Dots_1.jpg,Blue_Circle_Grid_2.jpg,right,757.6249999983702,true,NA,NA,NA,NA,NA,NA,NA,NA,true
1tCymLca,3dzkabx20liukfefnqxhosng7x6cv3,382m9cohelsbri7n5ty97ehr012ueq,1tCymLca,2020-0188,2020-05-21,16:46:29,17:04:57,NA,incomplete,7,shape,1,right,Purple_Triangle_Stripes_1.jpg,Green_Star_Dots_1.jpg,Red_Triangle_Chess_2.jpg,right,773.5300000058487,true,NA,NA,NA,NA,NA,NA,NA,NA,true
1tCymLca,3dzkabx20liukfefnqxhosng7x6cv3,382m9cohelsbri7n5ty97ehr012ueq,1tCymLca,2020-0188,2020-05-21,16:46:29,17:04:57,NA,incomplete,8,shape,1,left,Red_Triangle_Dots_4.jpg,Blue_Triangle_Grid_1.jpg,Green_Star_Stripes_4.jpg,left,696.4500000176486,true,NA,NA,NA,NA,NA,NA,NA,NA,true
1tCymLca,3dzkabx20liukfefnqxhosng7x6cv3,382m9cohelsbri7n5ty97ehr012ueq,1tCymLca,2020-0188,2020-05-21,16:46:29,17:04:57,NA,incomplete,9,shape,1,left,Red_Circle_Chess_2.jpg,Green_Circle_Grid_4.jpg,Purple_Star_Stripes_2.jpg,left,715.8150000032037,true,NA,NA,NA,NA,NA,NA,NA,NA,true
1tCymLca,3dzkabx20liukfefnqxhosng7x6cv3,382m9cohelsbri7n5ty97ehr012ueq,1tCymLca,2020-0188,2020-05-21,16:46:29,17:04:57,NA,incomplete,10,shape,1,left,Purple_Circle_Chess_3.jpg,Green_Circle_Dots_4.jpg,Blue_Plus_Grid_3.jpg,left,660.0800000014715,true,NA,NA,NA,NA,NA,NA,NA,NA,true
1tCymLca,3dzkabx20liukfefnqxhosng7x6cv3,382m9cohelsbri7n5ty97ehr012ueq,1tCymLca,2020-0188,2020-05-21,16:46:29,17:04:57,NA,incomplete,11,shape,0,left,Blue_Plus_Grid_4.jpg,Red_Plus_Chess_2.jpg,Purple_Circle_Dots_4.jpg,left,869.0999999816995,true,NA,NA,NA,NA,NA,NA,NA,NA,true
1tCymLca,3dzkabx20liukfefnqxhosng7x6cv3,382m9cohelsbri7n5ty97ehr012ueq,1tCymLca,2020-0188,2020-05-21,16:46:29,17:04:57,NA,incomplete,12,shape,1,right,Blue_Circle_Grid_1.jpg,Red_Star_Dots_1.jpg,Purple_Circle_Chess_4.jpg,right,756.0549999761861,true,NA,NA,NA,NA,NA,NA,NA,NA,true
1tCymLca,3dzkabx20liukfefnqxhosng7x6cv3,382m9cohelsbri7n5ty97ehr012ueq,1tCymLca,2020-0188,2020-05-21,16:46:29,17:04:57,NA,incomplete,13,shape,1,left,Red_Star_Grid_1.jpg,Green_Star_Chess_4.jpg,Blue_Plus_Dots_1.jpg,left,679.7450000012759,true,NA,NA,NA,NA,NA,NA,NA,NA,true
1tCymLca,3dzkabx20liukfefnqxhosng7x6cv3,382m9cohelsbri7n5ty97ehr012ueq,1tCymLca,2020-0188,2020-05-21,16:46:29,17:04:57,NA,incomplete,14,shape,1,right,Blue_Star_Dots_4.jpg,Purple_Triangle_Stripes_4.jpg,Green_Star_Chess_1.jpg,right,630.589999986114,true,NA,NA,NA,NA,NA,NA,NA,NA,true
1tCymLca,3dzkabx20liukfefnqxhosng7x6cv3,382m9cohelsbri7n5ty97ehr012ueq,1tCymLca,2020-0188,2020-05-21,16:46:29,17:04:57,NA,incomplete,15,shape,0,right,Green_Star_Dots_2.jpg,Red_Plus_Stripes_2.jpg,Purple_Star_Grid_4.jpg,right,678.1550000014249,true,NA,NA,NA,NA,NA,NA,NA,NA,true
1tCymLca,3dzkabx20liukfefnqxhosng7x6cv3,382m9cohelsbri7n5ty97ehr012ueq,1tCymLca,2020-0188,2020-05-21,16:46:29,17:04:57,NA,incomplete,16,shape,1,left,Purple_Star_Stripes_4.jpg,Blue_Star_Chess_1.jpg,Green_Plus_Dots_4.jpg,left,713.1650000228547,true,NA,NA,NA,NA,NA,NA,NA,NA,true
1tCymLca,3dzkabx20liukfefnqxhosng7x6cv3,382m9cohelsbri7n5ty97ehr012ueq,1tCymLca,2020-0188,2020-05-21,16:46:29,17:04:57,NA,incomplete,17,shape,1,left,Red_Triangle_Dots_2.jpg,Purple_Triangle_Stripes_4.jpg,Green_Circle_Chess_2.jpg,left,718.2449999963865,true,NA,NA,NA,NA,NA,NA,NA,NA,true
1tCymLca,3dzkabx20liukfefnqxhosng7x6cv3,382m9cohelsbri7n5ty97ehr012ueq,1tCymLca,2020-0188,2020-05-21,16:46:29,17:04:57,NA,incomplete,18,shape,1,right,Blue_Star_Stripes_3.jpg,Red_Plus_Dots_3.jpg,Green_Star_Grid_2.jpg,right,627.7150000096299,true,NA,NA,NA,NA,NA,NA,NA,NA,true
1tCymLca,3dzkabx20liukfefnqxhosng7x6cv3,382m9cohelsbri7n5ty97ehr012ueq,1tCymLca,2020-0188,2020-05-21,16:46:29,17:04:57,NA,incomplete,19,shape,1,left,Purple_Triangle_Grid_4.jpg,Green_Triangle_Dots_1.jpg,Blue_Plus_Stripes_4.jpg,left,628.2699999865144,true,NA,NA,NA,NA,NA,NA,NA,NA,true
1tCymLca,3dzkabx20liukfefnqxhosng7x6cv3,382m9cohelsbri7n5ty97ehr012ueq,1tCymLca,2020-0188,2020-05-21,16:46:29,17:04:57,NA,incomplete,20,number,1,right,Purple_Plus_Grid_3.jpg,Green_Plus_Dots_1.jpg,Blue_Circle_Stripes_3.jpg,right,672.839999984717,true,NA,NA,NA,NA,NA,NA,NA,NA,true
1tCymLca,3dzkabx20liukfefnqxhosng7x6cv3,382m9cohelsbri7n5ty97ehr012ueq,1tCymLca,2020-0188,2020-05-21,16:46:29,17:04:57,NA,incomplete,21,number,1,right,Blue_Circle_Chess_2.jpg,Green_Circle_Dots_3.jpg,Purple_Star_Grid_2.jpg,right,777.4799999897368,true,NA,NA,NA,NA,NA,NA,NA,NA,true
1tCymLca,3dzkabx20liukfefnqxhosng7x6cv3,382m9cohelsbri7n5ty97ehr012ueq,1tCymLca,2020-0188,2020-05-21,16:46:29,17:04:57,NA,incomplete,22,number,1,left,Blue_Circle_Chess_2.jpg,Red_Triangle_Stripes_2.jpg,Purple_Circle_Dots_4.jpg,left,714.1150000097696,true,NA,NA,NA,NA,NA,NA,NA,NA,true
1tCymLca,3dzkabx20liukfefnqxhosng7x6cv3,382m9cohelsbri7n5ty97ehr012ueq,1tCymLca,2020-0188,2020-05-21,16:46:29,17:04:57,NA,incomplete,23,number,1,right,Green_Plus_Stripes_1.jpg,Blue_Plus_Dots_4.jpg,Red_Circle_Grid_1.jpg,right,586.2799999886192,true,NA,NA,NA,NA,NA,NA,NA,NA,true
1tCymLca,3dzkabx20liukfefnqxhosng7x6cv3,382m9cohelsbri7n5ty97ehr012ueq,1tCymLca,2020-0188,2020-05-21,16:46:29,17:04:57,NA,incomplete,24,number,1,left,Blue_Circle_Stripes_4.jpg,Red_Plus_Chess_4.jpg,Purple_Circle_Grid_1.jpg,left,742.419999995036,true,NA,NA,NA,NA,NA,NA,NA,NA,true
1tCymLca,3dzkabx20liukfefnqxhosng7x6cv3,382m9cohelsbri7n5ty97ehr012ueq,1tCymLca,2020-0188,2020-05-21,16:46:29,17:04:57,NA,incomplete,25,number,1,right,Purple_Circle_Dots_1.jpg,Red_Circle_Chess_3.jpg,Green_Triangle_Grid_1.jpg,right,645.5849999911152,true,NA,NA,NA,NA,NA,NA,NA,NA,true
1tCymLca,3dzkabx20liukfefnqxhosng7x6cv3,382m9cohelsbri7n5ty97ehr012ueq,1tCymLca,2020-0188,2020-05-21,16:46:29,17:04:57,NA,incomplete,26,number,1,left,Blue_Plus_Stripes_1.jpg,Green_Triangle_Dots_1.jpg,Purple_Plus_Grid_4.jpg,left,669.8750000214204,true,NA,NA,NA,NA,NA,NA,NA,NA,true
1tCymLca,3dzkabx20liukfefnqxhosng7x6cv3,382m9cohelsbri7n5ty97ehr012ueq,1tCymLca,2020-0188,2020-05-21,16:46:29,17:04:57,NA,incomplete,27,number,0,right,Purple_Triangle_Chess_3.jpg,Green_Triangle_Dots_2.jpg,Red_Plus_Stripes_3.jpg,right,671.2799999804702,true,NA,NA,NA,NA,NA,NA,NA,NA,true
1tCymLca,3dzkabx20liukfefnqxhosng7x6cv3,382m9cohelsbri7n5ty97ehr012ueq,1tCymLca,2020-0188,2020-05-21,16:46:29,17:04:57,NA,incomplete,28,number,0,left,Green_Triangle_Stripes_2.jpg,Red_Star_Dots_2.jpg,Blue_Triangle_Chess_3.jpg,left,918.020000011893,true,NA,NA,NA,NA,NA,NA,NA,NA,true
1tCymLca,3dzkabx20liukfefnqxhosng7x6cv3,382m9cohelsbri7n5ty97ehr012ueq,1tCymLca,2020-0188,2020-05-21,16:46:29,17:04:57,NA,incomplete,29,number,0,left,Green_Circle_Grid_3.jpg,Red_Triangle_Stripes_3.jpg,Blue_Circle_Chess_2.jpg,left,695.609999995213,true,NA,NA,NA,NA,NA,NA,NA,NA,true
1tCymLca,3dzkabx20liukfefnqxhosng7x6cv3,382m9cohelsbri7n5ty97ehr012ueq,1tCymLca,2020-0188,2020-05-21,16:46:29,17:04:57,NA,incomplete,30,number,1,right,Red_Triangle_Grid_4.jpg,Purple_Triangle_Stripes_1.jpg,Blue_Circle_Dots_4.jpg,right,540.4850000049919,true,NA,NA,NA,NA,NA,NA,NA,NA,true
1tCymLca,3dzkabx20liukfefnqxhosng7x6cv3,382m9cohelsbri7n5ty97ehr012ueq,1tCymLca,2020-0188,2020-05-21,16:46:29,17:04:57,NA,incomplete,31,number,1,left,Purple_Triangle_Chess_2.jpg,Blue_Circle_Grid_2.jpg,Red_Triangle_Stripes_4.jpg,left,645.9000000031665,true,NA,NA,NA,NA,NA,NA,NA,NA,true
1tCymLca,3dzkabx20liukfefnqxhosng7x6cv3,382m9cohelsbri7n5ty97ehr012ueq,1tCymLca,2020-0188,2020-05-21,16:46:29,17:04:57,NA,incomplete,32,number,1,left,Purple_Plus_Grid_2.jpg,Green_Circle_Stripes_2.jpg,Red_Plus_Dots_3.jpg,left,563.785000005737,true,NA,NA,NA,NA,NA,NA,NA,NA,true
1tCymLca,3dzkabx20liukfefnqxhosng7x6cv3,382m9cohelsbri7n5ty97ehr012ueq,1tCymLca,2020-0188,2020-05-21,16:46:29,17:04:57,NA,incomplete,33,number,1,right,Blue_Circle_Stripes_3.jpg,Red_Circle_Dots_1.jpg,Purple_Plus_Grid_3.jpg,right,545.8250000083353,true,NA,NA,NA,NA,NA,NA,NA,NA,true
1tCymLca,3dzkabx20liukfefnqxhosng7x6cv3,382m9cohelsbri7n5ty97ehr012ueq,1tCymLca,2020-0188,2020-05-21,16:46:29,17:04:57,NA,incomplete,34,number,1,left,Red_Star_Dots_4.jpg,Purple_Triangle_Stripes_4.jpg,Blue_Star_Grid_2.jpg,right,627.6350000116508,false,NA,NA,NA,NA,NA,NA,NA,NA,true
1tCymLca,3dzkabx20liukfefnqxhosng7x6cv3,382m9cohelsbri7n5ty97ehr012ueq,1tCymLca,2020-0188,2020-05-21,16:46:29,17:04:57,NA,incomplete,35,number,1,right,Purple_Triangle_Dots_4.jpg,Blue_Triangle_Stripes_2.jpg,Green_Plus_Grid_4.jpg,right,538.3750000037253,true,NA,NA,NA,NA,NA,NA,NA,NA,true
1tCymLca,3dzkabx20liukfefnqxhosng7x6cv3,382m9cohelsbri7n5ty97ehr012ueq,1tCymLca,2020-0188,2020-05-21,16:46:29,17:04:57,NA,incomplete,36,number,0,left,Red_Circle_Grid_3.jpg,Blue_Triangle_Dots_3.jpg,Green_Circle_Stripes_1.jpg,left,578.3250000094995,true,NA,NA,NA,NA,NA,NA,NA,NA,true
1tCymLca,3dzkabx20liukfefnqxhosng7x6cv3,382m9cohelsbri7n5ty97ehr012ueq,1tCymLca,2020-0188,2020-05-21,16:46:29,17:04:57,NA,incomplete,37,number,1,left,Red_Star_Dots_2.jpg,Blue_Circle_Chess_2.jpg,Green_Star_Grid_3.jpg,right,535.7500000100117,false,NA,NA,NA,NA,NA,NA,NA,NA,true
1tCymLca,3dzkabx20liukfefnqxhosng7x6cv3,382m9cohelsbri7n5ty97ehr012ueq,1tCymLca,2020-0188,2020-05-21,16:46:29,17:04:57,NA,incomplete,38,number,1,left,Purple_Plus_Grid_4.jpg,Green_Circle_Dots_4.jpg,Red_Plus_Chess_2.jpg,left,659.7800000163261,true,NA,NA,NA,NA,NA,NA,NA,NA,true
1tCymLca,3dzkabx20liukfefnqxhosng7x6cv3,382m9cohelsbri7n5ty97ehr012ueq,1tCymLca,2020-0188,2020-05-21,16:46:29,17:04:57,NA,incomplete,39,number,1,right,Purple_Triangle_Grid_4.jpg,Red_Triangle_Dots_1.jpg,Blue_Circle_Chess_4.jpg,right,571.2850000127219,true,NA,NA,NA,NA,NA,NA,NA,NA,true
1tCymLca,3dzkabx20liukfefnqxhosng7x6cv3,382m9cohelsbri7n5ty97ehr012ueq,1tCymLca,2020-0188,2020-05-21,16:46:29,17:04:57,NA,incomplete,0,shape,1,right,Blue_Triangle_Grid_3.jpg,Purple_Plus_Stripes_3.jpg,Green_Triangle_Dots_1.jpg,left,908.4799999836832,false,high,NA,NA,NA,NA,NA,NA,NA,false
1tCymLca,3dzkabx20liukfefnqxhosng7x6cv3,382m9cohelsbri7n5ty97ehr012ueq,1tCymLca,2020-0188,2020-05-21,16:46:29,17:04:57,NA,incomplete,1,shape,1,right,Green_Plus_Dots_2.jpg,Blue_Triangle_Grid_2.jpg,Red_Plus_Chess_4.jpg,left,745.2900000207592,false,high,NA,NA,NA,NA,NA,NA,NA,false
1tCymLca,3dzkabx20liukfefnqxhosng7x6cv3,382m9cohelsbri7n5ty97ehr012ueq,1tCymLca,2020-0188,2020-05-21,16:46:29,17:04:57,NA,incomplete,2,shape,0,right,Green_Triangle_Stripes_2.jpg,Purple_Star_Dots_2.jpg,Red_Triangle_Chess_1.jpg,right,997.1350000123493,true,high,NA,NA,NA,NA,NA,NA,NA,false
1tCymLca,3dzkabx20liukfefnqxhosng7x6cv3,382m9cohelsbri7n5ty97ehr012ueq,1tCymLca,2020-0188,2020-05-21,16:46:29,17:04:57,NA,incomplete,3,shape,1,right,Red_Plus_Chess_3.jpg,Green_Star_Stripes_3.jpg,Purple_Plus_Dots_2.jpg,left,750.5649999948218,false,high,NA,NA,NA,NA,NA,NA,NA,false
1tCymLca,3dzkabx20liukfefnqxhosng7x6cv3,382m9cohelsbri7n5ty97ehr012ueq,1tCymLca,2020-0188,2020-05-21,16:46:29,17:04:57,NA,incomplete,4,shape,0,left,Green_Circle_Chess_3.jpg,Red_Circle_Dots_4.jpg,Blue_Plus_Grid_3.jpg,right,754.6900000015739,false,high,NA,NA,NA,NA,NA,NA,NA,false
1tCymLca,3dzkabx20liukfefnqxhosng7x6cv3,382m9cohelsbri7n5ty97ehr012ueq,1tCymLca,2020-0188,2020-05-21,16:46:29,17:04:57,NA,incomplete,5,shape,1,left,Red_Circle_Dots_1.jpg,Green_Circle_Stripes_3.jpg,Purple_Star_Chess_1.jpg,right,846.5199999918696,false,high,NA,NA,NA,NA,NA,NA,NA,false
1tCymLca,3dzkabx20liukfefnqxhosng7x6cv3,382m9cohelsbri7n5ty97ehr012ueq,1tCymLca,2020-0188,2020-05-21,16:46:29,17:04:57,NA,incomplete,6,shape,1,right,Green_Triangle_Dots_1.jpg,Blue_Plus_Stripes_1.jpg,Red_Triangle_Chess_2.jpg,right,778.9300000004005,true,high,NA,NA,NA,NA,NA,NA,NA,false
1tCymLca,3dzkabx20liukfefnqxhosng7x6cv3,382m9cohelsbri7n5ty97ehr012ueq,1tCymLca,2020-0188,2020-05-21,16:46:29,17:04:57,NA,incomplete,7,shape,0,left,Purple_Plus_Chess_2.jpg,Green_Plus_Stripes_4.jpg,Red_Triangle_Grid_2.jpg,left,559.7750000015367,true,high,NA,NA,NA,NA,NA,NA,NA,false
1tCymLca,3dzkabx20liukfefnqxhosng7x6cv3,382m9cohelsbri7n5ty97ehr012ueq,1tCymLca,2020-0188,2020-05-21,16:46:29,17:04:57,NA,incomplete,8,shape,1,left,Red_Star_Chess_1.jpg,Purple_Star_Grid_4.jpg,Green_Circle_Stripes_1.jpg,right,593.9950000029057,false,high,NA,NA,NA,NA,NA,NA,NA,false
1tCymLca,3dzkabx20liukfefnqxhosng7x6cv3,382m9cohelsbri7n5ty97ehr012ueq,1tCymLca,2020-0188,2020-05-21,16:46:29,17:04:57,NA,incomplete,9,shape,0,left,Green_Circle_Stripes_2.jpg,Blue_Circle_Grid_3.jpg,Purple_Triangle_Dots_2.jpg,right,760.9599999850616,false,high,NA,NA,NA,NA,NA,NA,NA,false
1tCymLca,3dzkabx20liukfefnqxhosng7x6cv3,382m9cohelsbri7n5ty97ehr012ueq,1tCymLca,2020-0188,2020-05-21,16:46:29,17:04:57,NA,incomplete,10,number,1,left,Red_Circle_Stripes_1.jpg,Green_Star_Chess_1.jpg,Purple_Circle_Grid_4.jpg,left,548.8849999965169,true,high,NA,NA,NA,NA,NA,NA,NA,false
1tCymLca,3dzkabx20liukfefnqxhosng7x6cv3,382m9cohelsbri7n5ty97ehr012ueq,1tCymLca,2020-0188,2020-05-21,16:46:29,17:04:57,NA,incomplete,11,number,1,left,Red_Circle_Chess_4.jpg,Blue_Plus_Stripes_4.jpg,Green_Circle_Grid_2.jpg,left,787.5000000058208,true,high,NA,NA,NA,NA,NA,NA,NA,false
1tCymLca,3dzkabx20liukfefnqxhosng7x6cv3,382m9cohelsbri7n5ty97ehr012ueq,1tCymLca,2020-0188,2020-05-21,16:46:29,17:04:57,NA,incomplete,12,number,1,left,Blue_Plus_Chess_4.jpg,Red_Star_Grid_4.jpg,Purple_Plus_Dots_3.jpg,right,769.960000005085,false,high,NA,NA,NA,NA,NA,NA,NA,false
1tCymLca,3dzkabx20liukfefnqxhosng7x6cv3,382m9cohelsbri7n5ty97ehr012ueq,1tCymLca,2020-0188,2020-05-21,16:46:29,17:04:57,NA,incomplete,13,number,0,left,Blue_Star_Grid_1.jpg,Green_Plus_Stripes_1.jpg,Red_Star_Dots_4.jpg,right,725.9199999971315,false,high,NA,NA,NA,NA,NA,NA,NA,false
1tCymLca,3dzkabx20liukfefnqxhosng7x6cv3,382m9cohelsbri7n5ty97ehr012ueq,1tCymLca,2020-0188,2020-05-21,16:46:29,17:04:57,NA,incomplete,14,number,0,right,Purple_Triangle_Grid_4.jpg,Green_Triangle_Dots_3.jpg,Blue_Plus_Chess_4.jpg,left,592.2199999913573,false,high,NA,NA,NA,NA,NA,NA,NA,false
1tCymLca,3dzkabx20liukfefnqxhosng7x6cv3,382m9cohelsbri7n5ty97ehr012ueq,1tCymLca,2020-0188,2020-05-21,16:46:29,17:04:57,NA,incomplete,15,number,1,right,Blue_Plus_Dots_2.jpg,Red_Plus_Chess_3.jpg,Purple_Circle_Grid_2.jpg,left,530.0050000078045,false,high,NA,NA,NA,NA,NA,NA,NA,false
1tCymLca,3dzkabx20liukfefnqxhosng7x6cv3,382m9cohelsbri7n5ty97ehr012ueq,1tCymLca,2020-0188,2020-05-21,16:46:29,17:04:57,NA,incomplete,16,number,1,left,Purple_Star_Grid_2.jpg,Red_Circle_Dots_2.jpg,Blue_Star_Stripes_3.jpg,left,694.0349999931641,true,high,NA,NA,NA,NA,NA,NA,NA,false
1tCymLca,3dzkabx20liukfefnqxhosng7x6cv3,382m9cohelsbri7n5ty97ehr012ueq,1tCymLca,2020-0188,2020-05-21,16:46:29,17:04:57,NA,incomplete,17,number,1,right,Purple_Circle_Grid_1.jpg,Green_Circle_Dots_2.jpg,Blue_Star_Stripes_1.jpg,right,493.1649999925867,true,high,NA,NA,NA,NA,NA,NA,NA,false
1tCymLca,3dzkabx20liukfefnqxhosng7x6cv3,382m9cohelsbri7n5ty97ehr012ueq,1tCymLca,2020-0188,2020-05-21,16:46:29,17:04:57,NA,incomplete,18,number,1,right,Purple_Triangle_Chess_2.jpg,Red_Triangle_Grid_4.jpg,Blue_Star_Stripes_2.jpg,left,440.63999998616055,false,high,NA,NA,NA,NA,NA,NA,NA,false
1tCymLca,3dzkabx20liukfefnqxhosng7x6cv3,382m9cohelsbri7n5ty97ehr012ueq,1tCymLca,2020-0188,2020-05-21,16:46:29,17:04:57,NA,incomplete,19,number,1,left,Green_Triangle_Chess_3.jpg,Blue_Star_Grid_3.jpg,Purple_Triangle_Dots_1.jpg,right,440.6500000040978,false,high,NA,NA,NA,NA,NA,NA,NA,false
1tCymLca,3dzkabx20liukfefnqxhosng7x6cv3,382m9cohelsbri7n5ty97ehr012ueq,1tCymLca,2020-0188,2020-05-21,16:46:29,17:04:57,NA,incomplete,20,shape,0,left,Green_Star_Stripes_3.jpg,Blue_Star_Dots_4.jpg,Red_Circle_Grid_3.jpg,right,443.50500000291504,false,high,NA,NA,NA,NA,NA,NA,NA,false
1tCymLca,3dzkabx20liukfefnqxhosng7x6cv3,382m9cohelsbri7n5ty97ehr012ueq,1tCymLca,2020-0188,2020-05-21,16:46:29,17:04:57,NA,incomplete,21,shape,1,right,Red_Plus_Chess_4.jpg,Green_Triangle_Dots_4.jpg,Blue_Plus_Grid_2.jpg,left,514.885000011418,false,high,NA,NA,NA,NA,NA,NA,NA,false
1tCymLca,3dzkabx20liukfefnqxhosng7x6cv3,382m9cohelsbri7n5ty97ehr012ueq,1tCymLca,2020-0188,2020-05-21,16:46:29,17:04:57,NA,incomplete,22,shape,1,right,Green_Triangle_Grid_4.jpg,Blue_Plus_Chess_4.jpg,Red_Triangle_Dots_3.jpg,left,461.19000000180677,false,high,NA,NA,NA,NA,NA,NA,NA,false
1tCymLca,3dzkabx20liukfefnqxhosng7x6cv3,382m9cohelsbri7n5ty97ehr012ueq,1tCymLca,2020-0188,2020-05-21,16:46:29,17:04:57,NA,incomplete,23,shape,1,left,Blue_Star_Chess_2.jpg,Red_Star_Dots_3.jpg,Green_Plus_Stripes_2.jpg,right,590.9499999834225,false,high,NA,NA,NA,NA,NA,NA,NA,false
1tCymLca,3dzkabx20liukfefnqxhosng7x6cv3,382m9cohelsbri7n5ty97ehr012ueq,1tCymLca,2020-0188,2020-05-21,16:46:29,17:04:57,NA,incomplete,24,shape,1,left,Green_Star_Grid_4.jpg,Red_Star_Chess_2.jpg,Blue_Circle_Stripes_4.jpg,right,360.2100000134669,false,high,NA,NA,NA,NA,NA,NA,NA,false
1tCymLca,3dzkabx20liukfefnqxhosng7x6cv3,382m9cohelsbri7n5ty97ehr012ueq,1tCymLca,2020-0188,2020-05-21,16:46:29,17:04:57,NA,incomplete,25,shape,0,left,Green_Circle_Grid_2.jpg,Red_Circle_Dots_1.jpg,Purple_Star_Stripes_2.jpg,right,311.3549999834504,false,high,NA,NA,NA,NA,NA,NA,NA,false
1tCymLca,3dzkabx20liukfefnqxhosng7x6cv3,382m9cohelsbri7n5ty97ehr012ueq,1tCymLca,2020-0188,2020-05-21,16:46:29,17:04:57,NA,incomplete,26,shape,1,left,Red_Circle_Dots_1.jpg,Purple_Circle_Stripes_2.jpg,Blue_Star_Chess_1.jpg,left,387.17499998165295,true,high,NA,NA,NA,NA,NA,NA,NA,false
1tCymLca,3dzkabx20liukfefnqxhosng7x6cv3,382m9cohelsbri7n5ty97ehr012ueq,1tCymLca,2020-0188,2020-05-21,16:46:29,17:04:57,NA,incomplete,27,shape,1,left,Purple_Circle_Stripes_2.jpg,Red_Circle_Chess_3.jpg,Green_Plus_Dots_2.jpg,left,640.5250000243541,true,high,NA,NA,NA,NA,NA,NA,NA,false
1tCymLca,3dzkabx20liukfefnqxhosng7x6cv3,382m9cohelsbri7n5ty97ehr012ueq,1tCymLca,2020-0188,2020-05-21,16:46:29,17:04:57,NA,incomplete,28,shape,1,left,Purple_Plus_Chess_3.jpg,Blue_Plus_Grid_1.jpg,Red_Circle_Dots_3.jpg,right,556.2199999985751,false,high,NA,NA,NA,NA,NA,NA,NA,false
1tCymLca,3dzkabx20liukfefnqxhosng7x6cv3,382m9cohelsbri7n5ty97ehr012ueq,1tCymLca,2020-0188,2020-05-21,16:46:29,17:04:57,NA,incomplete,29,shape,1,left,Blue_Plus_Chess_1.jpg,Purple_Plus_Stripes_3.jpg,Red_Triangle_Dots_1.jpg,left,755.1749999984168,true,high,NA,NA,NA,NA,NA,NA,NA,false
1tCymLca,3dzkabx20liukfefnqxhosng7x6cv3,382m9cohelsbri7n5ty97ehr012ueq,1tCymLca,2020-0188,2020-05-21,16:46:29,17:04:57,NA,incomplete,30,number,1,right,Red_Circle_Grid_4.jpg,Green_Circle_Stripes_3.jpg,Blue_Star_Chess_4.jpg,right,808.5149999824353,true,high,NA,NA,NA,NA,NA,NA,NA,false
1tCymLca,3dzkabx20liukfefnqxhosng7x6cv3,382m9cohelsbri7n5ty97ehr012ueq,1tCymLca,2020-0188,2020-05-21,16:46:29,17:04:57,NA,incomplete,31,number,0,right,Green_Triangle_Stripes_2.jpg,Red_Triangle_Dots_3.jpg,Blue_Star_Chess_2.jpg,right,724.5249999978114,true,high,NA,NA,NA,NA,NA,NA,NA,false
1tCymLca,3dzkabx20liukfefnqxhosng7x6cv3,382m9cohelsbri7n5ty97ehr012ueq,1tCymLca,2020-0188,2020-05-21,16:46:29,17:04:57,NA,incomplete,32,number,1,left,Purple_Plus_Dots_4.jpg,Red_Circle_Stripes_4.jpg,Blue_Plus_Grid_2.jpg,right,813.4199999913108,false,high,NA,NA,NA,NA,NA,NA,NA,false
1tCymLca,3dzkabx20liukfefnqxhosng7x6cv3,382m9cohelsbri7n5ty97ehr012ueq,1tCymLca,2020-0188,2020-05-21,16:46:29,17:04:57,NA,incomplete,33,number,1,left,Red_Star_Chess_3.jpg,Green_Triangle_Dots_3.jpg,Purple_Star_Stripes_4.jpg,left,641.0900000191759,true,high,NA,NA,NA,NA,NA,NA,NA,false
1tCymLca,3dzkabx20liukfefnqxhosng7x6cv3,382m9cohelsbri7n5ty97ehr012ueq,1tCymLca,2020-0188,2020-05-21,16:46:29,17:04:57,NA,incomplete,34,number,1,right,Purple_Triangle_Dots_2.jpg,Blue_Triangle_Stripes_4.jpg,Green_Star_Grid_2.jpg,right,1049.559999984922,true,high,NA,NA,NA,NA,NA,NA,NA,false
1tCymLca,3dzkabx20liukfefnqxhosng7x6cv3,382m9cohelsbri7n5ty97ehr012ueq,1tCymLca,2020-0188,2020-05-21,16:46:29,17:04:57,NA,incomplete,35,number,1,left,Red_Plus_Chess_2.jpg,Purple_Triangle_Stripes_2.jpg,Blue_Plus_Dots_3.jpg,right,864.0399999858346,false,high,NA,NA,NA,NA,NA,NA,NA,false
1tCymLca,3dzkabx20liukfefnqxhosng7x6cv3,382m9cohelsbri7n5ty97ehr012ueq,1tCymLca,2020-0188,2020-05-21,16:46:29,17:04:57,NA,incomplete,36,number,1,right,Purple_Star_Grid_3.jpg,Green_Star_Dots_2.jpg,Blue_Circle_Chess_3.jpg,right,982.5049999926705,true,high,NA,NA,NA,NA,NA,NA,NA,false
1tCymLca,3dzkabx20liukfefnqxhosng7x6cv3,382m9cohelsbri7n5ty97ehr012ueq,1tCymLca,2020-0188,2020-05-21,16:46:29,17:04:57,NA,incomplete,37,number,1,left,Purple_Star_Dots_3.jpg,Green_Plus_Chess_3.jpg,Blue_Star_Grid_1.jpg,right,733.8650000165217,false,high,NA,NA,NA,NA,NA,NA,NA,false
1tCymLca,3dzkabx20liukfefnqxhosng7x6cv3,382m9cohelsbri7n5ty97ehr012ueq,1tCymLca,2020-0188,2020-05-21,16:46:29,17:04:57,NA,incomplete,38,number,0,right,Green_Star_Dots_1.jpg,Blue_Star_Stripes_4.jpg,Purple_Circle_Grid_1.jpg,left,796.505000005709,false,high,NA,NA,NA,NA,NA,NA,NA,false
1tCymLca,3dzkabx20liukfefnqxhosng7x6cv3,382m9cohelsbri7n5ty97ehr012ueq,1tCymLca,2020-0188,2020-05-21,16:46:29,17:04:57,NA,incomplete,39,number,1,left,Blue_Triangle_Stripes_3.jpg,Purple_Star_Chess_3.jpg,Red_Triangle_Dots_2.jpg,right,740.9550000156742,false,high,NA,NA,NA,NA,NA,NA,NA,false
1tCymLca,3dzkabx20liukfefnqxhosng7x6cv3,382m9cohelsbri7n5ty97ehr012ueq,1tCymLca,2020-0188,2020-05-21,16:46:29,17:04:57,NA,incomplete,40,shape,1,right,Green_Triangle_Chess_4.jpg,Purple_Plus_Dots_4.jpg,Red_Triangle_Grid_1.jpg,left,542.4899999925401,false,high,NA,NA,NA,NA,NA,NA,NA,false
1tCymLca,3dzkabx20liukfefnqxhosng7x6cv3,382m9cohelsbri7n5ty97ehr012ueq,1tCymLca,2020-0188,2020-05-21,16:46:29,17:04:57,NA,incomplete,41,shape,0,right,Blue_Plus_Grid_2.jpg,Green_Circle_Stripes_2.jpg,Purple_Plus_Dots_4.jpg,left,566.835000005085,false,high,NA,NA,NA,NA,NA,NA,NA,false
1tCymLca,3dzkabx20liukfefnqxhosng7x6cv3,382m9cohelsbri7n5ty97ehr012ueq,1tCymLca,2020-0188,2020-05-21,16:46:29,17:04:57,NA,incomplete,42,shape,1,left,Purple_Plus_Chess_2.jpg,Red_Plus_Grid_3.jpg,Blue_Circle_Dots_2.jpg,right,431.73000001115724,false,high,NA,NA,NA,NA,NA,NA,NA,false
1tCymLca,3dzkabx20liukfefnqxhosng7x6cv3,382m9cohelsbri7n5ty97ehr012ueq,1tCymLca,2020-0188,2020-05-21,16:46:29,17:04:57,NA,incomplete,43,shape,1,right,Purple_Triangle_Chess_3.jpg,Blue_Star_Grid_3.jpg,Red_Triangle_Dots_1.jpg,right,380.2150000119582,true,high,NA,NA,NA,NA,NA,NA,NA,false
1tCymLca,3dzkabx20liukfefnqxhosng7x6cv3,382m9cohelsbri7n5ty97ehr012ueq,1tCymLca,2020-0188,2020-05-21,16:46:29,17:04:57,NA,incomplete,44,shape,0,left,Green_Circle_Chess_4.jpg,Purple_Circle_Stripes_3.jpg,Blue_Plus_Dots_4.jpg,left,407.5249999877997,true,high,NA,NA,NA,NA,NA,NA,NA,false
1tCymLca,3dzkabx20liukfefnqxhosng7x6cv3,382m9cohelsbri7n5ty97ehr012ueq,1tCymLca,2020-0188,2020-05-21,16:46:29,17:04:57,NA,incomplete,45,shape,1,right,Red_Circle_Stripes_3.jpg,Green_Plus_Dots_3.jpg,Purple_Circle_Chess_2.jpg,left,389.74499999312684,false,high,NA,NA,NA,NA,NA,NA,NA,false
1tCymLca,3dzkabx20liukfefnqxhosng7x6cv3,382m9cohelsbri7n5ty97ehr012ueq,1tCymLca,2020-0188,2020-05-21,16:46:29,17:04:57,NA,incomplete,46,shape,1,right,Purple_Plus_Chess_2.jpg,Blue_Circle_Stripes_2.jpg,Red_Plus_Grid_1.jpg,right,329.1949999984354,true,high,NA,NA,NA,NA,NA,NA,NA,false
1tCymLca,3dzkabx20liukfefnqxhosng7x6cv3,382m9cohelsbri7n5ty97ehr012ueq,1tCymLca,2020-0188,2020-05-21,16:46:29,17:04:57,NA,incomplete,47,shape,1,left,Purple_Triangle_Stripes_1.jpg,Red_Triangle_Chess_2.jpg,Blue_Plus_Dots_1.jpg,left,735.1100000087172,true,high,NA,NA,NA,NA,NA,NA,NA,false
1tCymLca,3dzkabx20liukfefnqxhosng7x6cv3,382m9cohelsbri7n5ty97ehr012ueq,1tCymLca,2020-0188,2020-05-21,16:46:29,17:04:57,NA,incomplete,48,shape,1,right,Red_Plus_Chess_2.jpg,Blue_Triangle_Dots_2.jpg,Purple_Plus_Grid_3.jpg,right,533.0599999870174,true,high,NA,NA,NA,NA,NA,NA,NA,false
1tCymLca,3dzkabx20liukfefnqxhosng7x6cv3,382m9cohelsbri7n5ty97ehr012ueq,1tCymLca,2020-0188,2020-05-21,16:46:29,17:04:57,NA,incomplete,49,shape,1,left,Purple_Triangle_Grid_2.jpg,Blue_Triangle_Stripes_3.jpg,Green_Circle_Chess_2.jpg,left,822.0649999857415,true,high,NA,NA,NA,NA,NA,NA,NA,false
1tCymLca,3dzkabx20liukfefnqxhosng7x6cv3,382m9cohelsbri7n5ty97ehr012ueq,1tCymLca,2020-0188,2020-05-21,16:46:29,17:04:57,NA,incomplete,50,number,1,left,Blue_Triangle_Chess_4.jpg,Red_Star_Stripes_4.jpg,Purple_Triangle_Grid_3.jpg,right,822.1350000239909,false,high,NA,NA,NA,NA,NA,NA,NA,false
1tCymLca,3dzkabx20liukfefnqxhosng7x6cv3,382m9cohelsbri7n5ty97ehr012ueq,1tCymLca,2020-0188,2020-05-21,16:46:29,17:04:57,NA,incomplete,51,number,1,right,Red_Triangle_Stripes_3.jpg,Blue_Triangle_Chess_1.jpg,Green_Plus_Grid_3.jpg,left,741.4100000169128,false,high,NA,NA,NA,NA,NA,NA,NA,false
1tCymLca,3dzkabx20liukfefnqxhosng7x6cv3,382m9cohelsbri7n5ty97ehr012ueq,1tCymLca,2020-0188,2020-05-21,16:46:29,17:04:57,NA,incomplete,52,number,0,left,Blue_Star_Chess_4.jpg,Green_Plus_Stripes_4.jpg,Red_Star_Dots_3.jpg,right,641.3500000198837,false,high,NA,NA,NA,NA,NA,NA,NA,false
1tCymLca,3dzkabx20liukfefnqxhosng7x6cv3,382m9cohelsbri7n5ty97ehr012ueq,1tCymLca,2020-0188,2020-05-21,16:46:29,17:04:57,NA,incomplete,53,number,1,right,Green_Circle_Chess_4.jpg,Purple_Circle_Dots_1.jpg,Blue_Star_Stripes_4.jpg,right,620.1250000158325,true,high,NA,NA,NA,NA,NA,NA,NA,false
1tCymLca,3dzkabx20liukfefnqxhosng7x6cv3,382m9cohelsbri7n5ty97ehr012ueq,1tCymLca,2020-0188,2020-05-21,16:46:29,17:04:57,NA,incomplete,54,number,1,left,Green_Triangle_Dots_2.jpg,Blue_Circle_Stripes_2.jpg,Purple_Triangle_Grid_3.jpg,right,436.9200000073761,false,high,NA,NA,NA,NA,NA,NA,NA,false
1tCymLca,3dzkabx20liukfefnqxhosng7x6cv3,382m9cohelsbri7n5ty97ehr012ueq,1tCymLca,2020-0188,2020-05-21,16:46:29,17:04:57,NA,incomplete,55,number,1,right,Purple_Plus_Chess_3.jpg,Green_Plus_Stripes_1.jpg,Blue_Circle_Dots_3.jpg,left,365.0600000109989,false,high,NA,NA,NA,NA,NA,NA,NA,false
1tCymLca,3dzkabx20liukfefnqxhosng7x6cv3,382m9cohelsbri7n5ty97ehr012ueq,1tCymLca,2020-0188,2020-05-21,16:46:29,17:04:57,NA,incomplete,56,number,1,right,Blue_Triangle_Stripes_3.jpg,Purple_Triangle_Dots_2.jpg,Green_Circle_Grid_3.jpg,left,318.1100000219885,false,high,NA,NA,NA,NA,NA,NA,NA,false
1tCymLca,3dzkabx20liukfefnqxhosng7x6cv3,382m9cohelsbri7n5ty97ehr012ueq,1tCymLca,2020-0188,2020-05-21,16:46:29,17:04:57,NA,incomplete,57,number,1,left,Blue_Plus_Dots_3.jpg,Red_Triangle_Grid_3.jpg,Purple_Plus_Stripes_2.jpg,right,314.2799999914132,false,high,NA,NA,NA,NA,NA,NA,NA,false
1tCymLca,3dzkabx20liukfefnqxhosng7x6cv3,382m9cohelsbri7n5ty97ehr012ueq,1tCymLca,2020-0188,2020-05-21,16:46:29,17:04:57,NA,incomplete,58,number,1,right,Red_Triangle_Stripes_1.jpg,Purple_Triangle_Grid_3.jpg,Green_Plus_Dots_1.jpg,right,359.08999998355284,true,high,NA,NA,NA,NA,NA,NA,NA,false
1tCymLca,3dzkabx20liukfefnqxhosng7x6cv3,382m9cohelsbri7n5ty97ehr012ueq,1tCymLca,2020-0188,2020-05-21,16:46:29,17:04:57,NA,incomplete,59,number,1,right,Green_Plus_Stripes_2.jpg,Red_Plus_Dots_3.jpg,Blue_Triangle_Grid_2.jpg,left,398.3400000142865,false,high,NA,NA,NA,NA,NA,NA,NA,false
1tCymLca,3dzkabx20liukfefnqxhosng7x6cv3,382m9cohelsbri7n5ty97ehr012ueq,1tCymLca,2020-0188,2020-05-21,16:46:29,17:04:57,NA,incomplete,60,shape,0,right,Blue_Plus_Grid_2.jpg,Green_Star_Stripes_2.jpg,Red_Plus_Dots_4.jpg,left,347.9100000113249,false,high,NA,NA,NA,NA,NA,NA,NA,false
1tCymLca,3dzkabx20liukfefnqxhosng7x6cv3,382m9cohelsbri7n5ty97ehr012ueq,1tCymLca,2020-0188,2020-05-21,16:46:29,17:04:57,NA,incomplete,61,shape,1,left,Red_Circle_Dots_2.jpg,Green_Circle_Grid_4.jpg,Purple_Star_Stripes_2.jpg,left,693.3199999912176,true,high,NA,NA,NA,NA,NA,NA,NA,false
1tCymLca,3dzkabx20liukfefnqxhosng7x6cv3,382m9cohelsbri7n5ty97ehr012ueq,1tCymLca,2020-0188,2020-05-21,16:46:29,17:04:57,NA,incomplete,62,shape,1,left,Purple_Plus_Grid_3.jpg,Green_Plus_Chess_4.jpg,Blue_Triangle_Stripes_3.jpg,left,739.1549999883864,true,high,NA,NA,NA,NA,NA,NA,NA,false
1tCymLca,3dzkabx20liukfefnqxhosng7x6cv3,382m9cohelsbri7n5ty97ehr012ueq,1tCymLca,2020-0188,2020-05-21,16:46:29,17:04:57,NA,incomplete,63,shape,1,left,Purple_Star_Stripes_4.jpg,Blue_Star_Grid_1.jpg,Red_Plus_Chess_4.jpg,left,758.5749999852851,true,high,NA,NA,NA,NA,NA,NA,NA,false
1tCymLca,3dzkabx20liukfefnqxhosng7x6cv3,382m9cohelsbri7n5ty97ehr012ueq,1tCymLca,2020-0188,2020-05-21,16:46:29,17:04:57,NA,incomplete,64,shape,0,right,Purple_Triangle_Stripes_1.jpg,Blue_Circle_Chess_1.jpg,Red_Triangle_Grid_2.jpg,right,747.6000000024214,true,high,NA,NA,NA,NA,NA,NA,NA,false
1tCymLca,3dzkabx20liukfefnqxhosng7x6cv3,382m9cohelsbri7n5ty97ehr012ueq,1tCymLca,2020-0188,2020-05-21,16:46:29,17:04:57,NA,incomplete,65,shape,0,left,Green_Circle_Grid_3.jpg,Blue_Circle_Stripes_4.jpg,Purple_Plus_Chess_3.jpg,left,801.275000005262,true,high,NA,NA,NA,NA,NA,NA,NA,false
1tCymLca,3dzkabx20liukfefnqxhosng7x6cv3,382m9cohelsbri7n5ty97ehr012ueq,1tCymLca,2020-0188,2020-05-21,16:46:29,17:04:57,NA,incomplete,66,shape,1,left,Green_Plus_Stripes_1.jpg,Red_Plus_Chess_4.jpg,Purple_Star_Dots_1.jpg,left,815.3250000032131,true,high,NA,NA,NA,NA,NA,NA,NA,false
1tCymLca,3dzkabx20liukfefnqxhosng7x6cv3,382m9cohelsbri7n5ty97ehr012ueq,1tCymLca,2020-0188,2020-05-21,16:46:29,17:04:57,NA,incomplete,67,shape,1,left,Blue_Star_Chess_4.jpg,Green_Star_Grid_2.jpg,Red_Plus_Stripes_4.jpg,left,533.1500000029337,true,high,NA,NA,NA,NA,NA,NA,NA,false
1tCymLca,3dzkabx20liukfefnqxhosng7x6cv3,382m9cohelsbri7n5ty97ehr012ueq,1tCymLca,2020-0188,2020-05-21,16:46:29,17:04:57,NA,incomplete,68,shape,1,right,Purple_Star_Chess_1.jpg,Green_Plus_Grid_1.jpg,Blue_Star_Dots_2.jpg,right,832.0949999906588,true,high,NA,NA,NA,NA,NA,NA,NA,false
1tCymLca,3dzkabx20liukfefnqxhosng7x6cv3,382m9cohelsbri7n5ty97ehr012ueq,1tCymLca,2020-0188,2020-05-21,16:46:29,17:04:57,NA,incomplete,69,shape,1,left,Red_Circle_Stripes_1.jpg,Green_Circle_Chess_4.jpg,Blue_Plus_Dots_1.jpg,left,700.0300000072457,true,high,NA,NA,NA,NA,NA,NA,NA,false
1tCymLca,3dzkabx20liukfefnqxhosng7x6cv3,382m9cohelsbri7n5ty97ehr012ueq,1tCymLca,2020-0188,2020-05-21,16:46:29,17:04:57,NA,incomplete,70,number,1,right,Green_Circle_Chess_3.jpg,Purple_Circle_Grid_4.jpg,Blue_Triangle_Dots_3.jpg,left,649.9600000097416,false,high,NA,NA,NA,NA,NA,NA,NA,false
1tCymLca,3dzkabx20liukfefnqxhosng7x6cv3,382m9cohelsbri7n5ty97ehr012ueq,1tCymLca,2020-0188,2020-05-21,16:46:29,17:04:57,NA,incomplete,71,number,1,left,Purple_Triangle_Stripes_4.jpg,Green_Circle_Grid_4.jpg,Blue_Triangle_Chess_2.jpg,right,654.7900000005029,false,high,NA,NA,NA,NA,NA,NA,NA,false
1tCymLca,3dzkabx20liukfefnqxhosng7x6cv3,382m9cohelsbri7n5ty97ehr012ueq,1tCymLca,2020-0188,2020-05-21,16:46:29,17:04:57,NA,incomplete,72,number,1,left,Red_Star_Dots_4.jpg,Green_Circle_Grid_4.jpg,Blue_Star_Stripes_3.jpg,right,968.6949999886565,false,high,NA,NA,NA,NA,NA,NA,NA,false
1tCymLca,3dzkabx20liukfefnqxhosng7x6cv3,382m9cohelsbri7n5ty97ehr012ueq,1tCymLca,2020-0188,2020-05-21,16:46:29,17:04:57,NA,incomplete,73,number,1,right,Red_Star_Stripes_1.jpg,Blue_Star_Grid_3.jpg,Green_Circle_Dots_1.jpg,left,910.730000003241,false,high,NA,NA,NA,NA,NA,NA,NA,false
1tCymLca,3dzkabx20liukfefnqxhosng7x6cv3,382m9cohelsbri7n5ty97ehr012ueq,1tCymLca,2020-0188,2020-05-21,16:46:29,17:04:57,NA,incomplete,74,number,1,right,Green_Plus_Chess_2.jpg,Purple_Plus_Grid_4.jpg,Blue_Star_Stripes_2.jpg,left,619.9649999907706,false,high,NA,NA,NA,NA,NA,NA,NA,false
1tCymLca,3dzkabx20liukfefnqxhosng7x6cv3,382m9cohelsbri7n5ty97ehr012ueq,1tCymLca,2020-0188,2020-05-21,16:46:29,17:04:57,NA,incomplete,75,number,1,right,Purple_Circle_Chess_4.jpg,Blue_Circle_Stripes_3.jpg,Green_Triangle_Dots_4.jpg,left,510.17500000307336,false,high,NA,NA,NA,NA,NA,NA,NA,false
1tCymLca,3dzkabx20liukfefnqxhosng7x6cv3,382m9cohelsbri7n5ty97ehr012ueq,1tCymLca,2020-0188,2020-05-21,16:46:29,17:04:57,NA,incomplete,76,number,1,left,Red_Star_Chess_2.jpg,Blue_Circle_Stripes_2.jpg,Green_Star_Grid_4.jpg,left,352.6899999997113,true,high,NA,NA,NA,NA,NA,NA,NA,false
1tCymLca,3dzkabx20liukfefnqxhosng7x6cv3,382m9cohelsbri7n5ty97ehr012ueq,1tCymLca,2020-0188,2020-05-21,16:46:29,17:04:57,NA,incomplete,77,number,0,left,Purple_Triangle_Chess_2.jpg,Green_Plus_Dots_2.jpg,Red_Triangle_Grid_4.jpg,right,340.2700000151526,false,high,NA,NA,NA,NA,NA,NA,NA,false
1tCymLca,3dzkabx20liukfefnqxhosng7x6cv3,382m9cohelsbri7n5ty97ehr012ueq,1tCymLca,2020-0188,2020-05-21,16:46:29,17:04:57,NA,incomplete,78,number,1,right,Green_Star_Chess_4.jpg,Purple_Star_Dots_3.jpg,Blue_Triangle_Stripes_4.jpg,right,389.2999999807216,true,high,NA,NA,NA,NA,NA,NA,NA,false
1tCymLca,3dzkabx20liukfefnqxhosng7x6cv3,382m9cohelsbri7n5ty97ehr012ueq,1tCymLca,2020-0188,2020-05-21,16:46:29,17:04:57,NA,incomplete,79,number,1,left,Blue_Triangle_Chess_1.jpg,Green_Star_Dots_1.jpg,Red_Triangle_Stripes_3.jpg,right,427.99999998533167,false,high,NA,NA,NA,NA,NA,NA,NA,false
1tCymLca,3dzkabx20liukfefnqxhosng7x6cv3,382m9cohelsbri7n5ty97ehr012ueq,1tCymLca,2020-0188,2020-05-21,16:46:29,17:04:57,NA,incomplete,80,shape,1,right,Purple_Star_Grid_1.jpg,Green_Triangle_Dots_1.jpg,Blue_Star_Stripes_4.jpg,right,318.5750000120606,true,high,NA,NA,NA,NA,NA,NA,NA,false
1tCymLca,3dzkabx20liukfefnqxhosng7x6cv3,382m9cohelsbri7n5ty97ehr012ueq,1tCymLca,2020-0188,2020-05-21,16:46:29,17:04:57,NA,incomplete,81,shape,1,right,Green_Circle_Dots_4.jpg,Purple_Plus_Grid_4.jpg,Red_Circle_Chess_1.jpg,left,423.16000000573695,false,high,NA,NA,NA,NA,NA,NA,NA,false
1tCymLca,3dzkabx20liukfefnqxhosng7x6cv3,382m9cohelsbri7n5ty97ehr012ueq,1tCymLca,2020-0188,2020-05-21,16:46:29,17:04:57,NA,incomplete,82,shape,0,right,Blue_Star_Chess_1.jpg,Green_Triangle_Stripes_1.jpg,Purple_Star_Grid_2.jpg,left,365.2299999957904,false,high,NA,NA,NA,NA,NA,NA,NA,false
1tCymLca,3dzkabx20liukfefnqxhosng7x6cv3,382m9cohelsbri7n5ty97ehr012ueq,1tCymLca,2020-0188,2020-05-21,16:46:29,17:04:57,NA,incomplete,83,shape,0,right,Blue_Triangle_Grid_2.jpg,Purple_Plus_Dots_2.jpg,Green_Triangle_Chess_3.jpg,right,364.23000000650063,true,high,NA,NA,NA,NA,NA,NA,NA,false
1tCymLca,3dzkabx20liukfefnqxhosng7x6cv3,382m9cohelsbri7n5ty97ehr012ueq,1tCymLca,2020-0188,2020-05-21,16:46:29,17:04:57,NA,incomplete,84,shape,1,left,Blue_Plus_Chess_4.jpg,Purple_Plus_Grid_1.jpg,Green_Circle_Dots_4.jpg,right,241.0550000204239,false,high,NA,NA,NA,NA,NA,NA,NA,false
1tCymLca,3dzkabx20liukfefnqxhosng7x6cv3,382m9cohelsbri7n5ty97ehr012ueq,1tCymLca,2020-0188,2020-05-21,16:46:29,17:04:57,NA,incomplete,85,shape,1,left,Blue_Circle_Grid_2.jpg,Green_Circle_Dots_4.jpg,Red_Plus_Chess_2.jpg,left,308.01000000792556,true,high,NA,NA,NA,NA,NA,NA,NA,false
1tCymLca,3dzkabx20liukfefnqxhosng7x6cv3,382m9cohelsbri7n5ty97ehr012ueq,1tCymLca,2020-0188,2020-05-21,16:46:29,17:04:57,NA,incomplete,86,shape,1,left,Blue_Circle_Chess_1.jpg,Red_Circle_Dots_4.jpg,Green_Triangle_Grid_1.jpg,left,675.0650000176392,true,high,NA,NA,NA,NA,NA,NA,NA,false
1tCymLca,3dzkabx20liukfefnqxhosng7x6cv3,382m9cohelsbri7n5ty97ehr012ueq,1tCymLca,2020-0188,2020-05-21,16:46:29,17:04:57,NA,incomplete,87,shape,1,left,Green_Plus_Grid_4.jpg,Blue_Plus_Chess_3.jpg,Red_Star_Stripes_4.jpg,right,602.4100000213366,false,high,NA,NA,NA,NA,NA,NA,NA,false
1tCymLca,3dzkabx20liukfefnqxhosng7x6cv3,382m9cohelsbri7n5ty97ehr012ueq,1tCymLca,2020-0188,2020-05-21,16:46:29,17:04:57,NA,incomplete,88,shape,1,left,Green_Triangle_Dots_1.jpg,Red_Triangle_Grid_3.jpg,Blue_Plus_Chess_1.jpg,right,868.110000010347,false,high,NA,NA,NA,NA,NA,NA,NA,false
1tCymLca,3dzkabx20liukfefnqxhosng7x6cv3,382m9cohelsbri7n5ty97ehr012ueq,1tCymLca,2020-0188,2020-05-21,16:46:29,17:04:57,NA,incomplete,89,shape,1,right,Red_Star_Chess_3.jpg,Blue_Triangle_Grid_3.jpg,Purple_Star_Dots_4.jpg,left,385.664999979781,false,high,NA,NA,NA,NA,NA,NA,NA,false
1tCymLca,3dzkabx20liukfefnqxhosng7x6cv3,382m9cohelsbri7n5ty97ehr012ueq,1tCymLca,2020-0188,2020-05-21,16:46:29,17:04:57,NA,incomplete,90,number,1,left,Green_Triangle_Dots_4.jpg,Purple_Circle_Chess_4.jpg,Blue_Triangle_Grid_2.jpg,left,340.234999981476,true,high,NA,NA,NA,NA,NA,NA,NA,false
1tCymLca,3dzkabx20liukfefnqxhosng7x6cv3,382m9cohelsbri7n5ty97ehr012ueq,1tCymLca,2020-0188,2020-05-21,16:46:29,17:04:57,NA,incomplete,91,number,1,left,Purple_Plus_Grid_3.jpg,Green_Star_Chess_3.jpg,Blue_Plus_Dots_2.jpg,left,631.3699999882374,true,high,NA,NA,NA,NA,NA,NA,NA,false
1tCymLca,3dzkabx20liukfefnqxhosng7x6cv3,382m9cohelsbri7n5ty97ehr012ueq,1tCymLca,2020-0188,2020-05-21,16:46:29,17:04:57,NA,incomplete,92,number,0,left,Blue_Plus_Chess_1.jpg,Red_Triangle_Grid_1.jpg,Green_Plus_Stripes_2.jpg,left,647.3449999757577,true,high,NA,NA,NA,NA,NA,NA,NA,false
1tCymLca,3dzkabx20liukfefnqxhosng7x6cv3,382m9cohelsbri7n5ty97ehr012ueq,1tCymLca,2020-0188,2020-05-21,16:46:29,17:04:57,NA,incomplete,93,number,1,right,Purple_Triangle_Chess_4.jpg,Blue_Triangle_Grid_1.jpg,Red_Plus_Dots_4.jpg,left,525.3850000153761,false,high,NA,NA,NA,NA,NA,NA,NA,false
1tCymLca,3dzkabx20liukfefnqxhosng7x6cv3,382m9cohelsbri7n5ty97ehr012ueq,1tCymLca,2020-0188,2020-05-21,16:46:29,17:04:57,NA,incomplete,94,number,1,left,Purple_Star_Dots_1.jpg,Green_Plus_Grid_1.jpg,Blue_Star_Chess_2.jpg,right,386.74499999615364,false,high,NA,NA,NA,NA,NA,NA,NA,false
1tCymLca,3dzkabx20liukfefnqxhosng7x6cv3,382m9cohelsbri7n5ty97ehr012ueq,1tCymLca,2020-0188,2020-05-21,16:46:29,17:04:57,NA,incomplete,95,number,1,left,Purple_Star_Grid_2.jpg,Blue_Plus_Stripes_2.jpg,Green_Star_Chess_1.jpg,left,297.60499999974854,true,high,NA,NA,NA,NA,NA,NA,NA,false
1tCymLca,3dzkabx20liukfefnqxhosng7x6cv3,382m9cohelsbri7n5ty97ehr012ueq,1tCymLca,2020-0188,2020-05-21,16:46:29,17:04:57,NA,incomplete,96,number,1,left,Purple_Triangle_Chess_2.jpg,Red_Star_Dots_2.jpg,Blue_Triangle_Stripes_1.jpg,right,680.8599999931175,false,high,NA,NA,NA,NA,NA,NA,NA,false
1tCymLca,3dzkabx20liukfefnqxhosng7x6cv3,382m9cohelsbri7n5ty97ehr012ueq,1tCymLca,2020-0188,2020-05-21,16:46:29,17:04:57,NA,incomplete,97,number,1,right,Purple_Triangle_Chess_2.jpg,Blue_Triangle_Grid_1.jpg,Red_Plus_Stripes_2.jpg,left,403.87000000919215,false,high,NA,NA,NA,NA,NA,NA,NA,false
1tCymLca,3dzkabx20liukfefnqxhosng7x6cv3,382m9cohelsbri7n5ty97ehr012ueq,1tCymLca,2020-0188,2020-05-21,16:46:29,17:04:57,NA,incomplete,98,number,1,left,Red_Plus_Grid_2.jpg,Purple_Triangle_Dots_2.jpg,Blue_Plus_Stripes_3.jpg,left,792.5499999837484,true,high,NA,NA,NA,NA,NA,NA,NA,false
1tCymLca,3dzkabx20liukfefnqxhosng7x6cv3,382m9cohelsbri7n5ty97ehr012ueq,1tCymLca,2020-0188,2020-05-21,16:46:29,17:04:57,NA,incomplete,99,number,1,left,Red_Triangle_Stripes_2.jpg,Purple_Circle_Dots_2.jpg,Blue_Triangle_Chess_1.jpg,left,974.2950000218116,true,high,NA,NA,NA,NA,NA,NA,NA,false
1tCymLca,3dzkabx20liukfefnqxhosng7x6cv3,382m9cohelsbri7n5ty97ehr012ueq,1tCymLca,2020-0188,2020-05-21,16:46:29,17:04:57,NA,incomplete,100,shape,1,right,Blue_Star_Dots_1.jpg,Green_Plus_Grid_1.jpg,Purple_Star_Chess_4.jpg,right,820.2949999831617,true,high,NA,NA,NA,NA,NA,NA,NA,false
1tCymLca,3dzkabx20liukfefnqxhosng7x6cv3,382m9cohelsbri7n5ty97ehr012ueq,1tCymLca,2020-0188,2020-05-21,16:46:29,17:04:57,NA,incomplete,101,shape,1,right,Purple_Circle_Chess_2.jpg,Blue_Star_Dots_2.jpg,Red_Circle_Stripes_4.jpg,right,673.0549999920186,true,high,NA,NA,NA,NA,NA,NA,NA,false
1tCymLca,3dzkabx20liukfefnqxhosng7x6cv3,382m9cohelsbri7n5ty97ehr012ueq,1tCymLca,2020-0188,2020-05-21,16:46:29,17:04:57,NA,incomplete,102,shape,1,left,Blue_Star_Dots_3.jpg,Green_Star_Grid_4.jpg,Purple_Plus_Chess_3.jpg,left,1019.3949999811593,true,high,NA,NA,NA,NA,NA,NA,NA,false
1tCymLca,3dzkabx20liukfefnqxhosng7x6cv3,382m9cohelsbri7n5ty97ehr012ueq,1tCymLca,2020-0188,2020-05-21,16:46:29,17:04:57,NA,incomplete,103,shape,1,right,Blue_Star_Dots_2.jpg,Green_Circle_Chess_2.jpg,Red_Star_Grid_3.jpg,right,870.5250000057276,true,high,NA,NA,NA,NA,NA,NA,NA,false
1tCymLca,3dzkabx20liukfefnqxhosng7x6cv3,382m9cohelsbri7n5ty97ehr012ueq,1tCymLca,2020-0188,2020-05-21,16:46:29,17:04:57,NA,incomplete,104,shape,1,left,Blue_Plus_Dots_3.jpg,Red_Plus_Chess_1.jpg,Green_Circle_Grid_3.jpg,right,945.240000000922,false,high,NA,NA,NA,NA,NA,NA,NA,false
1tCymLca,3dzkabx20liukfefnqxhosng7x6cv3,382m9cohelsbri7n5ty97ehr012ueq,1tCymLca,2020-0188,2020-05-21,16:46:29,17:04:57,NA,incomplete,105,shape,1,left,Purple_Circle_Chess_4.jpg,Blue_Circle_Dots_3.jpg,Red_Plus_Stripes_4.jpg,left,522.9800000088289,true,high,NA,NA,NA,NA,NA,NA,NA,false
1tCymLca,3dzkabx20liukfefnqxhosng7x6cv3,382m9cohelsbri7n5ty97ehr012ueq,1tCymLca,2020-0188,2020-05-21,16:46:29,17:04:57,NA,incomplete,106,shape,1,right,Green_Circle_Grid_3.jpg,Purple_Star_Chess_3.jpg,Red_Circle_Dots_1.jpg,right,687.6999999803957,true,high,NA,NA,NA,NA,NA,NA,NA,false
1tCymLca,3dzkabx20liukfefnqxhosng7x6cv3,382m9cohelsbri7n5ty97ehr012ueq,1tCymLca,2020-0188,2020-05-21,16:46:29,17:04:57,NA,incomplete,107,shape,1,right,Red_Triangle_Grid_4.jpg,Green_Star_Chess_4.jpg,Purple_Triangle_Dots_3.jpg,left,594.0900000277907,false,high,NA,NA,NA,NA,NA,NA,NA,false
1tCymLca,3dzkabx20liukfefnqxhosng7x6cv3,382m9cohelsbri7n5ty97ehr012ueq,1tCymLca,2020-0188,2020-05-21,16:46:29,17:04:57,NA,incomplete,108,shape,1,left,Purple_Circle_Stripes_1.jpg,Blue_Circle_Dots_4.jpg,Green_Plus_Grid_1.jpg,right,499.6499999833759,false,high,NA,NA,NA,NA,NA,NA,NA,false
1tCymLca,3dzkabx20liukfefnqxhosng7x6cv3,382m9cohelsbri7n5ty97ehr012ueq,1tCymLca,2020-0188,2020-05-21,16:46:29,17:04:57,NA,incomplete,109,shape,1,right,Blue_Circle_Stripes_2.jpg,Green_Triangle_Chess_2.jpg,Red_Circle_Dots_3.jpg,left,461.44500002264977,false,high,NA,NA,NA,NA,NA,NA,NA,false
1tCymLca,3dzkabx20liukfefnqxhosng7x6cv3,382m9cohelsbri7n5ty97ehr012ueq,1tCymLca,2020-0188,2020-05-21,16:46:29,17:04:57,NA,incomplete,110,number,1,left,Red_Triangle_Dots_1.jpg,Blue_Star_Grid_1.jpg,Green_Triangle_Stripes_4.jpg,left,499.93000001995824,true,high,NA,NA,NA,NA,NA,NA,NA,false
1tCymLca,3dzkabx20liukfefnqxhosng7x6cv3,382m9cohelsbri7n5ty97ehr012ueq,1tCymLca,2020-0188,2020-05-21,16:46:29,17:04:57,NA,incomplete,111,number,0,left,Purple_Triangle_Dots_2.jpg,Green_Plus_Grid_2.jpg,Red_Triangle_Chess_4.jpg,right,588.1550000049174,false,high,NA,NA,NA,NA,NA,NA,NA,false
1tCymLca,3dzkabx20liukfefnqxhosng7x6cv3,382m9cohelsbri7n5ty97ehr012ueq,1tCymLca,2020-0188,2020-05-21,16:46:29,17:04:57,NA,incomplete,112,number,1,left,Purple_Triangle_Grid_2.jpg,Blue_Plus_Dots_2.jpg,Red_Triangle_Chess_3.jpg,left,629.8750000132713,true,high,NA,NA,NA,NA,NA,NA,NA,false
1tCymLca,3dzkabx20liukfefnqxhosng7x6cv3,382m9cohelsbri7n5ty97ehr012ueq,1tCymLca,2020-0188,2020-05-21,16:46:29,17:04:57,NA,incomplete,113,number,0,right,Blue_Plus_Dots_4.jpg,Purple_Plus_Grid_1.jpg,Red_Triangle_Stripes_4.jpg,right,489.88499998813495,true,high,NA,NA,NA,NA,NA,NA,NA,false
1tCymLca,3dzkabx20liukfefnqxhosng7x6cv3,382m9cohelsbri7n5ty97ehr012ueq,1tCymLca,2020-0188,2020-05-21,16:46:29,17:04:57,NA,incomplete,114,number,0,right,Green_Triangle_Chess_3.jpg,Blue_Triangle_Dots_1.jpg,Purple_Plus_Stripes_3.jpg,right,487.1300000231713,true,high,NA,NA,NA,NA,NA,NA,NA,false
1tCymLca,3dzkabx20liukfefnqxhosng7x6cv3,382m9cohelsbri7n5ty97ehr012ueq,1tCymLca,2020-0188,2020-05-21,16:46:29,17:04:57,NA,incomplete,115,number,1,left,Green_Star_Stripes_4.jpg,Red_Triangle_Grid_4.jpg,Purple_Star_Dots_3.jpg,right,501.6800000157673,false,high,NA,NA,NA,NA,NA,NA,NA,false
1tCymLca,3dzkabx20liukfefnqxhosng7x6cv3,382m9cohelsbri7n5ty97ehr012ueq,1tCymLca,2020-0188,2020-05-21,16:46:29,17:04:57,NA,incomplete,116,number,0,right,Green_Circle_Grid_2.jpg,Red_Circle_Stripes_3.jpg,Blue_Star_Chess_2.jpg,right,376.89499999396503,true,high,NA,NA,NA,NA,NA,NA,NA,false
1tCymLca,3dzkabx20liukfefnqxhosng7x6cv3,382m9cohelsbri7n5ty97ehr012ueq,1tCymLca,2020-0188,2020-05-21,16:46:29,17:04:57,NA,incomplete,117,number,1,right,Green_Circle_Chess_1.jpg,Purple_Circle_Stripes_3.jpg,Red_Triangle_Grid_1.jpg,left,334.96499998727813,false,high,NA,NA,NA,NA,NA,NA,NA,false
1tCymLca,3dzkabx20liukfefnqxhosng7x6cv3,382m9cohelsbri7n5ty97ehr012ueq,1tCymLca,2020-0188,2020-05-21,16:46:29,17:04:57,NA,incomplete,118,number,1,right,Blue_Star_Stripes_4.jpg,Red_Star_Grid_2.jpg,Green_Circle_Chess_4.jpg,left,340.08999998332,false,high,NA,NA,NA,NA,NA,NA,NA,false
1tCymLca,3dzkabx20liukfefnqxhosng7x6cv3,382m9cohelsbri7n5ty97ehr012ueq,1tCymLca,2020-0188,2020-05-21,16:46:29,17:04:57,NA,incomplete,119,number,1,left,Purple_Triangle_Stripes_3.jpg,Blue_Star_Chess_3.jpg,Green_Triangle_Dots_2.jpg,right,285.8350000169594,false,high,NA,NA,NA,NA,NA,NA,NA,false
1tCymLca,3dzkabx20liukfefnqxhosng7x6cv3,382m9cohelsbri7n5ty97ehr012ueq,1tCymLca,2020-0188,2020-05-21,16:46:29,17:04:57,NA,incomplete,120,color,1,left,Green_Plus_Grid_3.jpg,Green_Circle_Dots_2.jpg,Blue_Triangle_Grid_4.jpg,NA,NA,NA,high,NA,NA,NA,NA,NA,NA,NA,false
1tCymLca,3dzkabx20liukfefnqxhosng7x6cv3,382m9cohelsbri7n5ty97ehr012ueq,1tCymLca,2020-0188,2020-05-21,16:46:29,17:04:57,NA,incomplete,121,color,1,right,Purple_Triangle_Chess_1.jpg,Green_Circle_Chess_4.jpg,Purple_Plus_Dots_3.jpg,right,745.5550000013318,true,high,NA,NA,NA,NA,NA,NA,NA,false
1tCymLca,3dzkabx20liukfefnqxhosng7x6cv3,382m9cohelsbri7n5ty97ehr012ueq,1tCymLca,2020-0188,2020-05-21,16:46:29,17:04:57,NA,incomplete,122,color,1,right,Blue_Plus_Dots_3.jpg,Green_Triangle_Dots_1.jpg,Blue_Star_Grid_4.jpg,right,608.3400000061374,true,high,NA,NA,NA,NA,NA,NA,NA,false
1tCymLca,3dzkabx20liukfefnqxhosng7x6cv3,382m9cohelsbri7n5ty97ehr012ueq,1tCymLca,2020-0188,2020-05-21,16:46:29,17:04:57,NA,incomplete,123,color,0,left,Blue_Circle_Dots_4.jpg,Blue_Plus_Grid_2.jpg,Purple_Star_Dots_1.jpg,left,618.4899999934714,true,high,NA,NA,NA,NA,NA,NA,NA,false
1tCymLca,3dzkabx20liukfefnqxhosng7x6cv3,382m9cohelsbri7n5ty97ehr012ueq,1tCymLca,2020-0188,2020-05-21,16:46:29,17:04:57,NA,incomplete,124,color,1,right,Purple_Circle_Grid_3.jpg,Green_Star_Grid_4.jpg,Purple_Plus_Dots_2.jpg,right,601.569999998901,true,high,NA,NA,NA,NA,NA,NA,NA,false
1tCymLca,3dzkabx20liukfefnqxhosng7x6cv3,382m9cohelsbri7n5ty97ehr012ueq,1tCymLca,2020-0188,2020-05-21,16:46:29,17:04:57,NA,incomplete,125,color,1,left,Red_Triangle_Grid_4.jpg,Red_Plus_Chess_2.jpg,Green_Star_Grid_1.jpg,left,682.329999981448,true,high,NA,NA,NA,NA,NA,NA,NA,false
1tCymLca,3dzkabx20liukfefnqxhosng7x6cv3,382m9cohelsbri7n5ty97ehr012ueq,1tCymLca,2020-0188,2020-05-21,16:46:29,17:04:57,NA,incomplete,126,color,1,left,Blue_Star_Chess_1.jpg,Blue_Plus_Grid_2.jpg,Purple_Circle_Chess_4.jpg,left,674.1849999816623,true,high,NA,NA,NA,NA,NA,NA,NA,false
1tCymLca,3dzkabx20liukfefnqxhosng7x6cv3,382m9cohelsbri7n5ty97ehr012ueq,1tCymLca,2020-0188,2020-05-21,16:46:29,17:04:57,NA,incomplete,127,color,1,right,Purple_Star_Chess_3.jpg,Blue_Circle_Chess_2.jpg,Purple_Plus_Grid_1.jpg,right,578.3749999827705,true,high,NA,NA,NA,NA,NA,NA,NA,false
1tCymLca,3dzkabx20liukfefnqxhosng7x6cv3,382m9cohelsbri7n5ty97ehr012ueq,1tCymLca,2020-0188,2020-05-21,16:46:29,17:04:57,NA,incomplete,128,color,1,right,Green_Triangle_Stripes_1.jpg,Purple_Circle_Stripes_4.jpg,Green_Plus_Dots_2.jpg,right,526.6199999896344,true,high,NA,NA,NA,NA,NA,NA,NA,false
1tCymLca,3dzkabx20liukfefnqxhosng7x6cv3,382m9cohelsbri7n5ty97ehr012ueq,1tCymLca,2020-0188,2020-05-21,16:46:29,17:04:57,NA,incomplete,129,color,1,left,Red_Triangle_Stripes_3.jpg,Red_Circle_Dots_1.jpg,Purple_Star_Stripes_2.jpg,left,694.5849999901839,true,high,NA,NA,NA,NA,NA,NA,NA,false
1tCymLca,3dzkabx20liukfefnqxhosng7x6cv3,382m9cohelsbri7n5ty97ehr012ueq,1tCymLca,2020-0188,2020-05-21,16:46:29,17:04:57,NA,incomplete,130,color,1,right,Red_Star_Chess_2.jpg,Blue_Plus_Chess_1.jpg,Red_Circle_Stripes_3.jpg,right,453.61500000581145,true,high,NA,NA,NA,NA,NA,NA,NA,false
1tCymLca,3dzkabx20liukfefnqxhosng7x6cv3,382m9cohelsbri7n5ty97ehr012ueq,1tCymLca,2020-0188,2020-05-21,16:46:29,17:04:57,NA,incomplete,131,color,1,left,Green_Plus_Grid_4.jpg,Green_Star_Dots_3.jpg,Red_Circle_Grid_1.jpg,left,453.7899999995716,true,high,NA,NA,NA,NA,NA,NA,NA,false
1tCymLca,3dzkabx20liukfefnqxhosng7x6cv3,382m9cohelsbri7n5ty97ehr012ueq,1tCymLca,2020-0188,2020-05-21,16:46:29,17:04:57,NA,incomplete,132,color,1,left,Red_Plus_Chess_2.jpg,Red_Triangle_Dots_3.jpg,Purple_Circle_Chess_4.jpg,left,470.1049999857787,true,high,NA,NA,NA,NA,NA,NA,NA,false
1tCymLca,3dzkabx20liukfefnqxhosng7x6cv3,382m9cohelsbri7n5ty97ehr012ueq,1tCymLca,2020-0188,2020-05-21,16:46:29,17:04:57,NA,incomplete,133,color,1,left,Blue_Star_Dots_1.jpg,Blue_Triangle_Stripes_3.jpg,Green_Circle_Dots_4.jpg,left,523.7400000041816,true,high,NA,NA,NA,NA,NA,NA,NA,false
1tCymLca,3dzkabx20liukfefnqxhosng7x6cv3,382m9cohelsbri7n5ty97ehr012ueq,1tCymLca,2020-0188,2020-05-21,16:46:29,17:04:57,NA,incomplete,134,color,1,right,Blue_Star_Dots_3.jpg,Purple_Circle_Dots_2.jpg,Blue_Plus_Grid_1.jpg,right,550.9099999908358,true,high,NA,NA,NA,NA,NA,NA,NA,false
1tCymLca,3dzkabx20liukfefnqxhosng7x6cv3,382m9cohelsbri7n5ty97ehr012ueq,1tCymLca,2020-0188,2020-05-21,16:46:29,17:04:57,NA,incomplete,135,color,0,left,Blue_Plus_Dots_4.jpg,Blue_Circle_Chess_3.jpg,Red_Triangle_Dots_1.jpg,left,500.02500001573935,true,high,NA,NA,NA,NA,NA,NA,NA,false
1tCymLca,3dzkabx20liukfefnqxhosng7x6cv3,382m9cohelsbri7n5ty97ehr012ueq,1tCymLca,2020-0188,2020-05-21,16:46:29,17:04:57,NA,incomplete,136,color,1,left,Purple_Star_Stripes_1.jpg,Purple_Triangle_Chess_2.jpg,Red_Circle_Stripes_4.jpg,left,601.6649999946821,true,high,NA,NA,NA,NA,NA,NA,NA,false
1tCymLca,3dzkabx20liukfefnqxhosng7x6cv3,382m9cohelsbri7n5ty97ehr012ueq,1tCymLca,2020-0188,2020-05-21,16:46:29,17:04:57,NA,incomplete,137,color,1,left,Purple_Triangle_Stripes_3.jpg,Purple_Circle_Grid_4.jpg,Red_Plus_Stripes_1.jpg,left,459.0650000027381,true,high,NA,NA,NA,NA,NA,NA,NA,false
1tCymLca,3dzkabx20liukfefnqxhosng7x6cv3,382m9cohelsbri7n5ty97ehr012ueq,1tCymLca,2020-0188,2020-05-21,16:46:29,17:04:57,NA,incomplete,138,color,0,left,Blue_Triangle_Grid_4.jpg,Blue_Plus_Chess_3.jpg,Green_Star_Grid_1.jpg,left,514.9099999980535,true,high,NA,NA,NA,NA,NA,NA,NA,false
1tCymLca,3dzkabx20liukfefnqxhosng7x6cv3,382m9cohelsbri7n5ty97ehr012ueq,1tCymLca,2020-0188,2020-05-21,16:46:29,17:04:57,NA,incomplete,139,color,1,right,Red_Triangle_Chess_2.jpg,Purple_Plus_Chess_4.jpg,Red_Star_Stripes_3.jpg,right,448.95000001997687,true,high,NA,NA,NA,NA,NA,NA,NA,false
1tCymLca,3dzkabx20liukfefnqxhosng7x6cv3,382m9cohelsbri7n5ty97ehr012ueq,1tCymLca,2020-0188,2020-05-21,16:46:29,17:04:57,NA,incomplete,140,filling,1,right,Blue_Star_Stripes_4.jpg,Blue_Circle_Grid_3.jpg,Purple_Triangle_Stripes_2.jpg,left,529.0150000073481,false,high,NA,NA,NA,NA,NA,NA,NA,false
1tCymLca,3dzkabx20liukfefnqxhosng7x6cv3,382m9cohelsbri7n5ty97ehr012ueq,1tCymLca,2020-0188,2020-05-21,16:46:29,17:04:57,NA,incomplete,141,filling,1,right,Blue_Circle_Dots_1.jpg,Blue_Star_Chess_3.jpg,Purple_Plus_Dots_2.jpg,left,470.66000002087094,false,high,NA,NA,NA,NA,NA,NA,NA,false
1tCymLca,3dzkabx20liukfefnqxhosng7x6cv3,382m9cohelsbri7n5ty97ehr012ueq,1tCymLca,2020-0188,2020-05-21,16:46:29,17:04:57,NA,incomplete,142,filling,0,right,Purple_Circle_Stripes_2.jpg,Purple_Star_Grid_3.jpg,Green_Plus_Stripes_1.jpg,left,635.840000002645,false,high,NA,NA,NA,NA,NA,NA,NA,false
1tCymLca,3dzkabx20liukfefnqxhosng7x6cv3,382m9cohelsbri7n5ty97ehr012ueq,1tCymLca,2020-0188,2020-05-21,16:46:29,17:04:57,NA,incomplete,143,filling,1,right,Blue_Star_Stripes_4.jpg,Blue_Circle_Dots_3.jpg,Purple_Triangle_Stripes_1.jpg,left,520.2249999856576,false,high,NA,NA,NA,NA,NA,NA,NA,false
1tCymLca,3dzkabx20liukfefnqxhosng7x6cv3,382m9cohelsbri7n5ty97ehr012ueq,1tCymLca,2020-0188,2020-05-21,16:46:29,17:04:57,NA,incomplete,144,filling,0,left,Green_Star_Stripes_3.jpg,Blue_Triangle_Stripes_2.jpg,Green_Circle_Chess_4.jpg,right,508.3549999981187,false,high,NA,NA,NA,NA,NA,NA,NA,false
1tCymLca,3dzkabx20liukfefnqxhosng7x6cv3,382m9cohelsbri7n5ty97ehr012ueq,1tCymLca,2020-0188,2020-05-21,16:46:29,17:04:57,NA,incomplete,145,filling,1,right,Red_Star_Chess_4.jpg,Red_Triangle_Stripes_1.jpg,Blue_Plus_Chess_3.jpg,left,493.5350000159815,false,high,NA,NA,NA,NA,NA,NA,NA,false
1tCymLca,3dzkabx20liukfefnqxhosng7x6cv3,382m9cohelsbri7n5ty97ehr012ueq,1tCymLca,2020-0188,2020-05-21,16:46:29,17:04:57,NA,incomplete,146,filling,1,left,Green_Star_Dots_2.jpg,Purple_Plus_Dots_3.jpg,Green_Circle_Grid_1.jpg,right,573.1899999955203,false,high,NA,NA,NA,NA,NA,NA,NA,false
1tCymLca,3dzkabx20liukfefnqxhosng7x6cv3,382m9cohelsbri7n5ty97ehr012ueq,1tCymLca,2020-0188,2020-05-21,16:46:29,17:04:57,NA,incomplete,147,filling,1,left,Blue_Triangle_Grid_4.jpg,Red_Star_Grid_2.jpg,Blue_Plus_Dots_1.jpg,right,741.1299999803305,false,high,NA,NA,NA,NA,NA,NA,NA,false
1tCymLca,3dzkabx20liukfefnqxhosng7x6cv3,382m9cohelsbri7n5ty97ehr012ueq,1tCymLca,2020-0188,2020-05-21,16:46:29,17:04:57,NA,incomplete,148,filling,1,right,Green_Star_Chess_1.jpg,Green_Triangle_Grid_3.jpg,Red_Circle_Chess_4.jpg,left,520.6249999755528,false,high,NA,NA,NA,NA,NA,NA,NA,false
1tCymLca,3dzkabx20liukfefnqxhosng7x6cv3,382m9cohelsbri7n5ty97ehr012ueq,1tCymLca,2020-0188,2020-05-21,16:46:29,17:04:57,NA,incomplete,149,filling,1,left,Blue_Triangle_Stripes_2.jpg,Red_Circle_Stripes_1.jpg,Blue_Plus_Chess_4.jpg,right,426.4499999990221,false,high,NA,NA,NA,NA,NA,NA,NA,false
1tCymLca,3dzkabx20liukfefnqxhosng7x6cv3,382m9cohelsbri7n5ty97ehr012ueq,1tCymLca,2020-0188,2020-05-21,16:46:29,17:04:57,NA,incomplete,150,filling,1,right,Red_Triangle_Chess_4.jpg,Red_Star_Stripes_2.jpg,Purple_Plus_Chess_1.jpg,left,519.140000018524,false,high,NA,NA,NA,NA,NA,NA,NA,false
1tCymLca,3dzkabx20liukfefnqxhosng7x6cv3,382m9cohelsbri7n5ty97ehr012ueq,1tCymLca,2020-0188,2020-05-21,16:46:29,17:04:57,NA,incomplete,151,filling,0,right,Blue_Triangle_Dots_3.jpg,Blue_Circle_Stripes_4.jpg,Green_Plus_Dots_1.jpg,left,517.0400000060908,false,high,NA,NA,NA,NA,NA,NA,NA,false
1tCymLca,3dzkabx20liukfefnqxhosng7x6cv3,382m9cohelsbri7n5ty97ehr012ueq,1tCymLca,2020-0188,2020-05-21,16:46:29,17:04:57,NA,incomplete,152,filling,1,left,Purple_Plus_Chess_2.jpg,Blue_Star_Chess_1.jpg,Purple_Circle_Stripes_4.jpg,right,440.279999980703,false,high,NA,NA,NA,NA,NA,NA,NA,false
1tCymLca,3dzkabx20liukfefnqxhosng7x6cv3,382m9cohelsbri7n5ty97ehr012ueq,1tCymLca,2020-0188,2020-05-21,16:46:29,17:04:57,NA,incomplete,153,filling,1,left,Green_Plus_Chess_3.jpg,Red_Circle_Chess_2.jpg,Green_Triangle_Grid_1.jpg,right,447.3899999866262,false,high,NA,NA,NA,NA,NA,NA,NA,false
1tCymLca,3dzkabx20liukfefnqxhosng7x6cv3,382m9cohelsbri7n5ty97ehr012ueq,1tCymLca,2020-0188,2020-05-21,16:46:29,17:04:57,NA,incomplete,154,filling,1,right,Blue_Triangle_Grid_2.jpg,Blue_Plus_Stripes_4.jpg,Purple_Circle_Grid_3.jpg,left,492.19499999890104,false,high,NA,NA,NA,NA,NA,NA,NA,false
1tCymLca,3dzkabx20liukfefnqxhosng7x6cv3,382m9cohelsbri7n5ty97ehr012ueq,1tCymLca,2020-0188,2020-05-21,16:46:29,17:04:57,NA,incomplete,155,filling,1,right,Green_Circle_Chess_3.jpg,Green_Plus_Grid_2.jpg,Blue_Star_Chess_4.jpg,left,854.1499999992084,false,high,NA,NA,NA,NA,NA,NA,NA,false
1tCymLca,3dzkabx20liukfefnqxhosng7x6cv3,382m9cohelsbri7n5ty97ehr012ueq,1tCymLca,2020-0188,2020-05-21,16:46:29,17:04:57,NA,incomplete,156,filling,1,left,Purple_Star_Grid_3.jpg,Red_Plus_Grid_4.jpg,Purple_Triangle_Stripes_1.jpg,right,447.6849999919068,false,high,NA,NA,NA,NA,NA,NA,NA,false
1tCymLca,3dzkabx20liukfefnqxhosng7x6cv3,382m9cohelsbri7n5ty97ehr012ueq,1tCymLca,2020-0188,2020-05-21,16:46:29,17:04:57,NA,incomplete,157,filling,1,left,Green_Triangle_Dots_4.jpg,Blue_Star_Dots_2.jpg,Green_Plus_Stripes_1.jpg,right,454.5900000084657,false,high,NA,NA,NA,NA,NA,NA,NA,false
1tCymLca,3dzkabx20liukfefnqxhosng7x6cv3,382m9cohelsbri7n5ty97ehr012ueq,1tCymLca,2020-0188,2020-05-21,16:46:29,17:04:57,NA,incomplete,158,filling,0,right,Red_Plus_Grid_4.jpg,Red_Star_Dots_3.jpg,Blue_Triangle_Grid_1.jpg,left,440.26500001200475,false,high,NA,NA,NA,NA,NA,NA,NA,false
1tCymLca,3dzkabx20liukfefnqxhosng7x6cv3,382m9cohelsbri7n5ty97ehr012ueq,1tCymLca,2020-0188,2020-05-21,16:46:29,17:04:57,NA,incomplete,159,filling,1,right,Blue_Plus_Stripes_3.jpg,Blue_Star_Grid_2.jpg,Green_Triangle_Stripes_4.jpg,left,595.5249999824446,false,high,NA,NA,NA,NA,NA,NA,NA,false
1tCymLca,3dzkabx20liukfefnqxhosng7x6cv3,382m9cohelsbri7n5ty97ehr012ueq,1tCymLca,2020-0188,2020-05-21,16:46:29,17:04:57,NA,incomplete,160,color,1,right,Green_Triangle_Grid_3.jpg,Blue_Star_Grid_2.jpg,Green_Circle_Dots_4.jpg,right,476.49500000989065,true,high,NA,NA,NA,NA,NA,NA,NA,false
1tCymLca,3dzkabx20liukfefnqxhosng7x6cv3,382m9cohelsbri7n5ty97ehr012ueq,1tCymLca,2020-0188,2020-05-21,16:46:29,17:04:57,NA,incomplete,161,color,1,left,Blue_Star_Dots_4.jpg,Blue_Circle_Chess_1.jpg,Red_Triangle_Dots_2.jpg,left,456.5349999757018,true,high,NA,NA,NA,NA,NA,NA,NA,false
1tCymLca,3dzkabx20liukfefnqxhosng7x6cv3,382m9cohelsbri7n5ty97ehr012ueq,1tCymLca,2020-0188,2020-05-21,16:46:29,17:04:57,NA,incomplete,162,color,1,left,Red_Star_Dots_4.jpg,Red_Plus_Chess_2.jpg,Blue_Triangle_Dots_3.jpg,left,678.6499999871012,true,high,NA,NA,NA,NA,NA,NA,NA,false
1tCymLca,3dzkabx20liukfefnqxhosng7x6cv3,382m9cohelsbri7n5ty97ehr012ueq,1tCymLca,2020-0188,2020-05-21,16:46:29,17:04:57,NA,incomplete,163,color,1,right,Red_Plus_Grid_1.jpg,Blue_Triangle_Grid_2.jpg,Red_Star_Stripes_4.jpg,right,545.3249999845866,true,high,NA,NA,NA,NA,NA,NA,NA,false
1tCymLca,3dzkabx20liukfefnqxhosng7x6cv3,382m9cohelsbri7n5ty97ehr012ueq,1tCymLca,2020-0188,2020-05-21,16:46:29,17:04:57,NA,incomplete,164,color,1,left,Purple_Plus_Grid_1.jpg,Purple_Triangle_Chess_4.jpg,Blue_Star_Grid_2.jpg,left,524.5749999885447,true,high,NA,NA,NA,NA,NA,NA,NA,false
1tCymLca,3dzkabx20liukfefnqxhosng7x6cv3,382m9cohelsbri7n5ty97ehr012ueq,1tCymLca,2020-0188,2020-05-21,16:46:29,17:04:57,NA,incomplete,165,color,1,left,Blue_Triangle_Dots_4.jpg,Blue_Plus_Grid_2.jpg,Purple_Circle_Dots_3.jpg,left,501.43999999272637,true,high,NA,NA,NA,NA,NA,NA,NA,false
1tCymLca,3dzkabx20liukfefnqxhosng7x6cv3,382m9cohelsbri7n5ty97ehr012ueq,1tCymLca,2020-0188,2020-05-21,16:46:29,17:04:57,NA,incomplete,166,color,1,left,Red_Triangle_Grid_2.jpg,Red_Star_Chess_1.jpg,Blue_Plus_Grid_4.jpg,left,469.005000020843,true,high,NA,NA,NA,NA,NA,NA,NA,false
1tCymLca,3dzkabx20liukfefnqxhosng7x6cv3,382m9cohelsbri7n5ty97ehr012ueq,1tCymLca,2020-0188,2020-05-21,16:46:29,17:04:57,NA,incomplete,167,color,1,right,Blue_Triangle_Stripes_4.jpg,Green_Star_Stripes_2.jpg,Blue_Plus_Chess_3.jpg,right,464.6999999822583,true,high,NA,NA,NA,NA,NA,NA,NA,false
1tCymLca,3dzkabx20liukfefnqxhosng7x6cv3,382m9cohelsbri7n5ty97ehr012ueq,1tCymLca,2020-0188,2020-05-21,16:46:29,17:04:57,NA,incomplete,168,color,1,right,Blue_Circle_Dots_2.jpg,Red_Star_Dots_3.jpg,Blue_Triangle_Chess_4.jpg,right,462.6200000056997,true,high,NA,NA,NA,NA,NA,NA,NA,false
1tCymLca,3dzkabx20liukfefnqxhosng7x6cv3,382m9cohelsbri7n5ty97ehr012ueq,1tCymLca,2020-0188,2020-05-21,16:46:29,17:04:57,NA,incomplete,169,color,1,left,Purple_Star_Grid_4.jpg,Purple_Plus_Chess_1.jpg,Green_Triangle_Grid_3.jpg,left,417.77499997988343,true,high,NA,NA,NA,NA,NA,NA,NA,false
1tCymLca,3dzkabx20liukfefnqxhosng7x6cv3,382m9cohelsbri7n5ty97ehr012ueq,1tCymLca,2020-0188,2020-05-21,16:46:29,17:04:57,NA,incomplete,170,color,1,left,Green_Plus_Grid_3.jpg,Green_Star_Dots_4.jpg,Red_Triangle_Grid_2.jpg,left,435.5550000036601,true,high,NA,NA,NA,NA,NA,NA,NA,false
1tCymLca,3dzkabx20liukfefnqxhosng7x6cv3,382m9cohelsbri7n5ty97ehr012ueq,1tCymLca,2020-0188,2020-05-21,16:46:29,17:04:57,NA,incomplete,171,color,1,left,Red_Star_Dots_3.jpg,Red_Plus_Grid_1.jpg,Purple_Triangle_Dots_2.jpg,left,457.5900000054389,true,high,NA,NA,NA,NA,NA,NA,NA,false
1tCymLca,3dzkabx20liukfefnqxhosng7x6cv3,382m9cohelsbri7n5ty97ehr012ueq,1tCymLca,2020-0188,2020-05-21,16:46:29,17:04:57,NA,incomplete,172,color,1,left,Green_Star_Grid_4.jpg,Green_Circle_Stripes_3.jpg,Blue_Plus_Grid_1.jpg,left,491.6450000018813,true,high,NA,NA,NA,NA,NA,NA,NA,false
1tCymLca,3dzkabx20liukfefnqxhosng7x6cv3,382m9cohelsbri7n5ty97ehr012ueq,1tCymLca,2020-0188,2020-05-21,16:46:29,17:04:57,NA,incomplete,173,color,1,left,Blue_Star_Chess_3.jpg,Blue_Circle_Grid_4.jpg,Red_Plus_Chess_2.jpg,left,667.9949999961536,true,high,NA,NA,NA,NA,NA,NA,NA,false
1tCymLca,3dzkabx20liukfefnqxhosng7x6cv3,382m9cohelsbri7n5ty97ehr012ueq,1tCymLca,2020-0188,2020-05-21,16:46:29,17:04:57,NA,incomplete,174,color,1,left,Blue_Triangle_Chess_1.jpg,Blue_Star_Stripes_2.jpg,Red_Circle_Chess_3.jpg,left,672.6199999975506,true,high,NA,NA,NA,NA,NA,NA,NA,false
1tCymLca,3dzkabx20liukfefnqxhosng7x6cv3,382m9cohelsbri7n5ty97ehr012ueq,1tCymLca,2020-0188,2020-05-21,16:46:29,17:04:57,NA,incomplete,175,color,1,right,Purple_Star_Dots_1.jpg,Blue_Triangle_Dots_3.jpg,Purple_Plus_Stripes_2.jpg,left,1119.330000015907,false,high,NA,NA,NA,NA,NA,NA,NA,false
1tCymLca,3dzkabx20liukfefnqxhosng7x6cv3,382m9cohelsbri7n5ty97ehr012ueq,1tCymLca,2020-0188,2020-05-21,16:46:29,17:04:57,NA,incomplete,176,color,0,right,Blue_Star_Chess_1.jpg,Green_Plus_Chess_3.jpg,Blue_Circle_Stripes_2.jpg,right,548.5150000022259,true,high,NA,NA,NA,NA,NA,NA,NA,false
1tCymLca,3dzkabx20liukfefnqxhosng7x6cv3,382m9cohelsbri7n5ty97ehr012ueq,1tCymLca,2020-0188,2020-05-21,16:46:29,17:04:57,NA,incomplete,177,color,1,right,Purple_Plus_Dots_4.jpg,Green_Triangle_Dots_1.jpg,Purple_Star_Chess_3.jpg,right,725.0749999948312,true,high,NA,NA,NA,NA,NA,NA,NA,false
1tCymLca,3dzkabx20liukfefnqxhosng7x6cv3,382m9cohelsbri7n5ty97ehr012ueq,1tCymLca,2020-0188,2020-05-21,16:46:29,17:04:57,NA,incomplete,178,color,0,right,Green_Star_Grid_2.jpg,Purple_Circle_Grid_4.jpg,Green_Plus_Stripes_3.jpg,right,887.0649999880698,true,high,NA,NA,NA,NA,NA,NA,NA,false
1tCymLca,3dzkabx20liukfefnqxhosng7x6cv3,382m9cohelsbri7n5ty97ehr012ueq,1tCymLca,2020-0188,2020-05-21,16:46:29,17:04:57,NA,incomplete,179,color,1,right,Red_Plus_Stripes_3.jpg,Purple_Triangle_Stripes_1.jpg,Red_Star_Dots_4.jpg,left,1172.4099999992177,false,high,NA,NA,NA,NA,NA,NA,NA,false
1tCymLca,3dzkabx20liukfefnqxhosng7x6cv3,382m9cohelsbri7n5ty97ehr012ueq,1tCymLca,2020-0188,2020-05-21,16:46:29,17:04:57,NA,incomplete,180,filling,0,right,Red_Star_Dots_3.jpg,Red_Triangle_Chess_2.jpg,Blue_Circle_Dots_4.jpg,left,486.2600000051316,false,high,NA,NA,NA,NA,NA,NA,NA,false
1tCymLca,3dzkabx20liukfefnqxhosng7x6cv3,382m9cohelsbri7n5ty97ehr012ueq,1tCymLca,2020-0188,2020-05-21,16:46:29,17:04:57,NA,incomplete,181,filling,1,right,Blue_Star_Dots_2.jpg,Blue_Circle_Grid_4.jpg,Green_Triangle_Dots_1.jpg,left,1010.9499999962281,false,high,NA,NA,NA,NA,NA,NA,NA,false
1tCymLca,3dzkabx20liukfefnqxhosng7x6cv3,382m9cohelsbri7n5ty97ehr012ueq,1tCymLca,2020-0188,2020-05-21,16:46:29,17:04:57,NA,incomplete,182,filling,1,right,Green_Triangle_Stripes_3.jpg,Green_Circle_Dots_2.jpg,Red_Plus_Stripes_1.jpg,left,1094.8050000006333,false,high,NA,NA,NA,NA,NA,NA,NA,false
1tCymLca,3dzkabx20liukfefnqxhosng7x6cv3,382m9cohelsbri7n5ty97ehr012ueq,1tCymLca,2020-0188,2020-05-21,16:46:29,17:04:57,NA,incomplete,183,filling,0,right,Red_Triangle_Grid_3.jpg,Red_Circle_Dots_2.jpg,Purple_Star_Grid_1.jpg,left,572.8999999992084,false,high,NA,NA,NA,NA,NA,NA,NA,false
1tCymLca,3dzkabx20liukfefnqxhosng7x6cv3,382m9cohelsbri7n5ty97ehr012ueq,1tCymLca,2020-0188,2020-05-21,16:46:29,17:04:57,NA,incomplete,184,filling,1,right,Purple_Star_Chess_4.jpg,Purple_Plus_Stripes_2.jpg,Blue_Circle_Chess_3.jpg,left,580.5499999842141,false,high,NA,NA,NA,NA,NA,NA,NA,false
1tCymLca,3dzkabx20liukfefnqxhosng7x6cv3,382m9cohelsbri7n5ty97ehr012ueq,1tCymLca,2020-0188,2020-05-21,16:46:29,17:04:57,NA,incomplete,185,filling,1,right,Purple_Circle_Grid_2.jpg,Purple_Star_Chess_1.jpg,Red_Plus_Grid_3.jpg,left,515.4399999883026,false,high,NA,NA,NA,NA,NA,NA,NA,false
1tCymLca,3dzkabx20liukfefnqxhosng7x6cv3,382m9cohelsbri7n5ty97ehr012ueq,1tCymLca,2020-0188,2020-05-21,16:46:29,17:04:57,NA,incomplete,186,filling,0,left,Green_Plus_Stripes_3.jpg,Red_Star_Stripes_4.jpg,Green_Triangle_Chess_1.jpg,right,455.48999999300577,false,high,NA,NA,NA,NA,NA,NA,NA,false
1tCymLca,3dzkabx20liukfefnqxhosng7x6cv3,382m9cohelsbri7n5ty97ehr012ueq,1tCymLca,2020-0188,2020-05-21,16:46:29,17:04:57,NA,incomplete,187,filling,1,left,Blue_Triangle_Stripes_1.jpg,Green_Circle_Stripes_4.jpg,Blue_Star_Chess_2.jpg,right,383.2199999887962,false,high,NA,NA,NA,NA,NA,NA,NA,false
1tCymLca,3dzkabx20liukfefnqxhosng7x6cv3,382m9cohelsbri7n5ty97ehr012ueq,1tCymLca,2020-0188,2020-05-21,16:46:29,17:04:57,NA,incomplete,188,filling,1,left,Purple_Star_Stripes_2.jpg,Green_Triangle_Stripes_4.jpg,Purple_Plus_Dots_3.jpg,right,444.92999999783933,false,high,NA,NA,NA,NA,NA,NA,NA,false
1tCymLca,3dzkabx20liukfefnqxhosng7x6cv3,382m9cohelsbri7n5ty97ehr012ueq,1tCymLca,2020-0188,2020-05-21,16:46:29,17:04:57,NA,incomplete,189,filling,0,left,Red_Star_Stripes_4.jpg,Purple_Plus_Stripes_1.jpg,Red_Triangle_Grid_3.jpg,right,407.1750000002794,false,high,NA,NA,NA,NA,NA,NA,NA,false
1tCymLca,3dzkabx20liukfefnqxhosng7x6cv3,382m9cohelsbri7n5ty97ehr012ueq,1tCymLca,2020-0188,2020-05-21,16:46:29,17:04:57,NA,incomplete,190,filling,1,right,Red_Triangle_Grid_2.jpg,Red_Plus_Dots_3.jpg,Blue_Star_Grid_1.jpg,left,570.5899999884423,false,high,NA,NA,NA,NA,NA,NA,NA,false
1tCymLca,3dzkabx20liukfefnqxhosng7x6cv3,382m9cohelsbri7n5ty97ehr012ueq,1tCymLca,2020-0188,2020-05-21,16:46:29,17:04:57,NA,incomplete,191,filling,1,right,Blue_Plus_Chess_1.jpg,Blue_Circle_Stripes_3.jpg,Green_Triangle_Chess_2.jpg,left,557.3549999971874,false,high,NA,NA,NA,NA,NA,NA,NA,false
1tCymLca,3dzkabx20liukfefnqxhosng7x6cv3,382m9cohelsbri7n5ty97ehr012ueq,1tCymLca,2020-0188,2020-05-21,16:46:29,17:04:57,NA,incomplete,192,filling,1,right,Purple_Plus_Stripes_4.jpg,Purple_Circle_Chess_2.jpg,Blue_Star_Stripes_3.jpg,right,1331.545000022743,true,high,NA,NA,NA,NA,NA,NA,NA,false
1tCymLca,3dzkabx20liukfefnqxhosng7x6cv3,382m9cohelsbri7n5ty97ehr012ueq,1tCymLca,2020-0188,2020-05-21,16:46:29,17:04:57,NA,incomplete,193,filling,1,right,Green_Plus_Stripes_3.jpg,Green_Circle_Grid_1.jpg,Blue_Triangle_Stripes_4.jpg,left,1301.3999999966472,false,high,NA,NA,NA,NA,NA,NA,NA,false
1tCymLca,3dzkabx20liukfefnqxhosng7x6cv3,382m9cohelsbri7n5ty97ehr012ueq,1tCymLca,2020-0188,2020-05-21,16:46:29,17:04:57,NA,incomplete,194,filling,0,right,Green_Triangle_Stripes_1.jpg,Green_Circle_Chess_4.jpg,Red_Star_Stripes_3.jpg,left,929.8200000193901,false,high,NA,NA,NA,NA,NA,NA,NA,false
1tCymLca,3dzkabx20liukfefnqxhosng7x6cv3,382m9cohelsbri7n5ty97ehr012ueq,1tCymLca,2020-0188,2020-05-21,16:46:29,17:04:57,NA,incomplete,195,filling,1,right,Blue_Circle_Chess_2.jpg,Blue_Plus_Stripes_4.jpg,Purple_Triangle_Chess_3.jpg,left,943.8400000217371,false,high,NA,NA,NA,NA,NA,NA,NA,false
1tCymLca,3dzkabx20liukfefnqxhosng7x6cv3,382m9cohelsbri7n5ty97ehr012ueq,1tCymLca,2020-0188,2020-05-21,16:46:29,17:04:57,NA,incomplete,196,filling,1,left,Green_Plus_Chess_4.jpg,Blue_Circle_Chess_1.jpg,Green_Star_Grid_3.jpg,right,810.170000011567,false,high,NA,NA,NA,NA,NA,NA,NA,false
1tCymLca,3dzkabx20liukfefnqxhosng7x6cv3,382m9cohelsbri7n5ty97ehr012ueq,1tCymLca,2020-0188,2020-05-21,16:46:29,17:04:57,NA,incomplete,197,filling,1,right,Green_Circle_Dots_2.jpg,Green_Plus_Chess_3.jpg,Blue_Star_Dots_4.jpg,left,646.149999985937,false,high,NA,NA,NA,NA,NA,NA,NA,false
1tCymLca,3dzkabx20liukfefnqxhosng7x6cv3,382m9cohelsbri7n5ty97ehr012ueq,1tCymLca,2020-0188,2020-05-21,16:46:29,17:04:57,NA,incomplete,198,filling,0,right,Green_Plus_Dots_3.jpg,Green_Circle_Chess_2.jpg,Purple_Triangle_Dots_1.jpg,left,474.5100000000093,false,high,NA,NA,NA,NA,NA,NA,NA,false
1tCymLca,3dzkabx20liukfefnqxhosng7x6cv3,382m9cohelsbri7n5ty97ehr012ueq,1tCymLca,2020-0188,2020-05-21,16:46:29,17:04:57,NA,incomplete,199,filling,1,left,Green_Star_Dots_4.jpg,Purple_Triangle_Dots_1.jpg,Green_Plus_Grid_2.jpg,right,701.2299999769311,false,high,NA,NA,NA,NA,NA,NA,NA,false
1tCymLca,3dzkabx20liukfefnqxhosng7x6cv3,382m9cohelsbri7n5ty97ehr012ueq,1tCymLca,2020-0188,2020-05-21,16:46:29,17:04:57,NA,incomplete,200,color,1,right,Green_Circle_Grid_3.jpg,Red_Plus_Grid_1.jpg,Green_Triangle_Chess_2.jpg,right,616.4449999923818,true,high,NA,NA,NA,NA,NA,NA,NA,false
1tCymLca,3dzkabx20liukfefnqxhosng7x6cv3,382m9cohelsbri7n5ty97ehr012ueq,1tCymLca,2020-0188,2020-05-21,16:46:29,17:04:57,NA,incomplete,201,color,0,right,Purple_Plus_Chess_1.jpg,Red_Star_Chess_4.jpg,Purple_Circle_Dots_2.jpg,right,544.240000017453,true,high,NA,NA,NA,NA,NA,NA,NA,false
1tCymLca,3dzkabx20liukfefnqxhosng7x6cv3,382m9cohelsbri7n5ty97ehr012ueq,1tCymLca,2020-0188,2020-05-21,16:46:29,17:04:57,NA,incomplete,202,color,1,right,Purple_Triangle_Chess_4.jpg,Red_Plus_Chess_2.jpg,Purple_Star_Dots_3.jpg,right,464.94500001426786,true,high,NA,NA,NA,NA,NA,NA,NA,false
1tCymLca,3dzkabx20liukfefnqxhosng7x6cv3,382m9cohelsbri7n5ty97ehr012ueq,1tCymLca,2020-0188,2020-05-21,16:46:29,17:04:57,NA,incomplete,203,color,1,left,Green_Plus_Stripes_2.jpg,Green_Circle_Grid_4.jpg,Red_Triangle_Stripes_3.jpg,left,467.16999998898245,true,high,NA,NA,NA,NA,NA,NA,NA,false
1tCymLca,3dzkabx20liukfefnqxhosng7x6cv3,382m9cohelsbri7n5ty97ehr012ueq,1tCymLca,2020-0188,2020-05-21,16:46:29,17:04:57,NA,incomplete,204,color,0,left,Red_Triangle_Chess_2.jpg,Red_Plus_Grid_1.jpg,Purple_Circle_Chess_4.jpg,left,580.1700000010896,true,high,NA,NA,NA,NA,NA,NA,NA,false
1tCymLca,3dzkabx20liukfefnqxhosng7x6cv3,382m9cohelsbri7n5ty97ehr012ueq,1tCymLca,2020-0188,2020-05-21,16:46:29,17:04:57,NA,incomplete,205,color,1,right,Red_Star_Grid_4.jpg,Purple_Triangle_Grid_1.jpg,Red_Plus_Dots_3.jpg,right,556.3200000033248,true,high,NA,NA,NA,NA,NA,NA,NA,false
1tCymLca,3dzkabx20liukfefnqxhosng7x6cv3,382m9cohelsbri7n5ty97ehr012ueq,1tCymLca,2020-0188,2020-05-21,16:46:29,17:04:57,NA,incomplete,206,color,1,left,Green_Star_Chess_3.jpg,Green_Triangle_Grid_2.jpg,Purple_Plus_Chess_1.jpg,left,488.2499999948777,true,high,NA,NA,NA,NA,NA,NA,NA,false
1tCymLca,3dzkabx20liukfefnqxhosng7x6cv3,382m9cohelsbri7n5ty97ehr012ueq,1tCymLca,2020-0188,2020-05-21,16:46:29,17:04:57,NA,incomplete,207,color,1,left,Purple_Circle_Dots_1.jpg,Purple_Star_Stripes_2.jpg,Red_Triangle_Dots_3.jpg,left,575.2999999967869,true,high,NA,NA,NA,NA,NA,NA,NA,false
1tCymLca,3dzkabx20liukfefnqxhosng7x6cv3,382m9cohelsbri7n5ty97ehr012ueq,1tCymLca,2020-0188,2020-05-21,16:46:29,17:04:57,NA,incomplete,208,color,1,right,Blue_Star_Stripes_4.jpg,Green_Triangle_Stripes_2.jpg,Blue_Plus_Grid_3.jpg,right,759.6000000194181,true,high,NA,NA,NA,NA,NA,NA,NA,false
1tCymLca,3dzkabx20liukfefnqxhosng7x6cv3,382m9cohelsbri7n5ty97ehr012ueq,1tCymLca,2020-0188,2020-05-21,16:46:29,17:04:57,NA,incomplete,209,color,1,right,Red_Triangle_Dots_2.jpg,Purple_Star_Dots_4.jpg,Red_Plus_Stripes_3.jpg,right,410.4499999957625,true,high,NA,NA,NA,NA,NA,NA,NA,false
1tCymLca,3dzkabx20liukfefnqxhosng7x6cv3,382m9cohelsbri7n5ty97ehr012ueq,1tCymLca,2020-0188,2020-05-21,16:46:29,17:04:57,NA,incomplete,210,color,0,right,Red_Triangle_Chess_1.jpg,Purple_Plus_Chess_4.jpg,Red_Star_Stripes_3.jpg,right,532.9499999934342,true,high,NA,NA,NA,NA,NA,NA,NA,false
1tCymLca,3dzkabx20liukfefnqxhosng7x6cv3,382m9cohelsbri7n5ty97ehr012ueq,1tCymLca,2020-0188,2020-05-21,16:46:29,17:04:57,NA,incomplete,211,color,1,right,Green_Triangle_Chess_1.jpg,Red_Star_Chess_2.jpg,Green_Circle_Grid_4.jpg,right,478.84999998495914,true,high,NA,NA,NA,NA,NA,NA,NA,false
1tCymLca,3dzkabx20liukfefnqxhosng7x6cv3,382m9cohelsbri7n5ty97ehr012ueq,1tCymLca,2020-0188,2020-05-21,16:46:29,17:04:57,NA,incomplete,212,color,0,right,Purple_Circle_Chess_4.jpg,Green_Triangle_Chess_3.jpg,Purple_Plus_Dots_2.jpg,right,599.2149999947287,true,high,NA,NA,NA,NA,NA,NA,NA,false
1tCymLca,3dzkabx20liukfefnqxhosng7x6cv3,382m9cohelsbri7n5ty97ehr012ueq,1tCymLca,2020-0188,2020-05-21,16:46:29,17:04:57,NA,incomplete,213,color,1,right,Purple_Circle_Dots_3.jpg,Green_Plus_Dots_2.jpg,Purple_Triangle_Grid_4.jpg,right,430.3150000050664,true,high,NA,NA,NA,NA,NA,NA,NA,false
1tCymLca,3dzkabx20liukfefnqxhosng7x6cv3,382m9cohelsbri7n5ty97ehr012ueq,1tCymLca,2020-0188,2020-05-21,16:46:29,17:04:57,NA,incomplete,214,color,0,right,Green_Circle_Grid_1.jpg,Red_Star_Grid_2.jpg,Green_Triangle_Stripes_4.jpg,right,583.9799999957904,true,high,NA,NA,NA,NA,NA,NA,NA,false
1tCymLca,3dzkabx20liukfefnqxhosng7x6cv3,382m9cohelsbri7n5ty97ehr012ueq,1tCymLca,2020-0188,2020-05-21,16:46:29,17:04:57,NA,incomplete,215,color,1,left,Green_Star_Grid_2.jpg,Green_Circle_Chess_3.jpg,Red_Triangle_Grid_1.jpg,left,642.8000000014435,true,high,NA,NA,NA,NA,NA,NA,NA,false
1tCymLca,3dzkabx20liukfefnqxhosng7x6cv3,382m9cohelsbri7n5ty97ehr012ueq,1tCymLca,2020-0188,2020-05-21,16:46:29,17:04:57,NA,incomplete,216,color,1,right,Blue_Triangle_Stripes_2.jpg,Green_Star_Stripes_1.jpg,Blue_Circle_Dots_4.jpg,right,481.4450000121724,true,high,NA,NA,NA,NA,NA,NA,NA,false
1tCymLca,3dzkabx20liukfefnqxhosng7x6cv3,382m9cohelsbri7n5ty97ehr012ueq,1tCymLca,2020-0188,2020-05-21,16:46:29,17:04:57,NA,incomplete,217,color,1,right,Green_Star_Chess_4.jpg,Purple_Plus_Chess_1.jpg,Green_Triangle_Dots_3.jpg,right,469.5599999977276,true,high,NA,NA,NA,NA,NA,NA,NA,false
1tCymLca,3dzkabx20liukfefnqxhosng7x6cv3,382m9cohelsbri7n5ty97ehr012ueq,1tCymLca,2020-0188,2020-05-21,16:46:29,17:04:57,NA,incomplete,218,color,1,right,Green_Star_Chess_3.jpg,Red_Circle_Chess_4.jpg,Green_Triangle_Grid_2.jpg,right,400.20499998354353,true,high,NA,NA,NA,NA,NA,NA,NA,false
1tCymLca,3dzkabx20liukfefnqxhosng7x6cv3,382m9cohelsbri7n5ty97ehr012ueq,1tCymLca,2020-0188,2020-05-21,16:46:29,17:04:57,NA,incomplete,219,color,1,right,Blue_Plus_Stripes_1.jpg,Purple_Triangle_Stripes_3.jpg,Blue_Star_Grid_2.jpg,right,354.82999999658205,true,high,NA,NA,NA,NA,NA,NA,NA,false
1tCymLca,3dzkabx20liukfefnqxhosng7x6cv3,382m9cohelsbri7n5ty97ehr012ueq,1tCymLca,2020-0188,2020-05-21,16:46:29,17:04:57,NA,incomplete,220,filling,1,right,Red_Star_Dots_4.jpg,Red_Circle_Stripes_2.jpg,Blue_Plus_Dots_3.jpg,left,867.0400000119116,false,high,NA,NA,NA,NA,NA,NA,NA,false
1tCymLca,3dzkabx20liukfefnqxhosng7x6cv3,382m9cohelsbri7n5ty97ehr012ueq,1tCymLca,2020-0188,2020-05-21,16:46:29,17:04:57,NA,incomplete,221,filling,1,left,Red_Circle_Chess_1.jpg,Purple_Plus_Chess_3.jpg,Red_Star_Dots_4.jpg,right,484.7249999875203,false,high,NA,NA,NA,NA,NA,NA,NA,false
1tCymLca,3dzkabx20liukfefnqxhosng7x6cv3,382m9cohelsbri7n5ty97ehr012ueq,1tCymLca,2020-0188,2020-05-21,16:46:29,17:04:57,NA,incomplete,222,filling,0,left,Red_Triangle_Chess_1.jpg,Green_Circle_Chess_4.jpg,Red_Plus_Dots_3.jpg,right,461.37499998440035,false,high,NA,NA,NA,NA,NA,NA,NA,false
1tCymLca,3dzkabx20liukfefnqxhosng7x6cv3,382m9cohelsbri7n5ty97ehr012ueq,1tCymLca,2020-0188,2020-05-21,16:46:29,17:04:57,NA,incomplete,223,filling,1,left,Green_Circle_Stripes_1.jpg,Blue_Triangle_Stripes_4.jpg,Green_Star_Dots_3.jpg,right,451.759999996284,false,high,NA,NA,NA,NA,NA,NA,NA,false
1tCymLca,3dzkabx20liukfefnqxhosng7x6cv3,382m9cohelsbri7n5ty97ehr012ueq,1tCymLca,2020-0188,2020-05-21,16:46:29,17:04:57,NA,incomplete,224,filling,0,right,Purple_Triangle_Grid_1.jpg,Purple_Circle_Chess_2.jpg,Red_Plus_Grid_4.jpg,left,558.0550000013318,false,high,NA,NA,NA,NA,NA,NA,NA,false
1tCymLca,3dzkabx20liukfefnqxhosng7x6cv3,382m9cohelsbri7n5ty97ehr012ueq,1tCymLca,2020-0188,2020-05-21,16:46:29,17:04:57,NA,incomplete,225,filling,1,left,Blue_Plus_Stripes_1.jpg,Red_Circle_Stripes_3.jpg,Blue_Triangle_Grid_4.jpg,right,878.5050000005867,false,high,NA,NA,NA,NA,NA,NA,NA,false
1tCymLca,3dzkabx20liukfefnqxhosng7x6cv3,382m9cohelsbri7n5ty97ehr012ueq,1tCymLca,2020-0188,2020-05-21,16:46:29,17:04:57,NA,incomplete,226,filling,1,right,Blue_Plus_Stripes_1.jpg,Blue_Star_Chess_2.jpg,Red_Triangle_Stripes_3.jpg,left,589.6000000066124,false,high,NA,NA,NA,NA,NA,NA,NA,false
1tCymLca,3dzkabx20liukfefnqxhosng7x6cv3,382m9cohelsbri7n5ty97ehr012ueq,1tCymLca,2020-0188,2020-05-21,16:46:29,17:04:57,NA,incomplete,227,filling,0,left,Blue_Star_Chess_2.jpg,Green_Plus_Chess_4.jpg,Blue_Triangle_Grid_3.jpg,right,528.3399999898393,false,high,NA,NA,NA,NA,NA,NA,NA,false
1tCymLca,3dzkabx20liukfefnqxhosng7x6cv3,382m9cohelsbri7n5ty97ehr012ueq,1tCymLca,2020-0188,2020-05-21,16:46:29,17:04:57,NA,incomplete,228,filling,1,right,Purple_Triangle_Chess_2.jpg,Purple_Star_Grid_1.jpg,Red_Plus_Chess_4.jpg,left,565.2199999894947,false,high,NA,NA,NA,NA,NA,NA,NA,false
1tCymLca,3dzkabx20liukfefnqxhosng7x6cv3,382m9cohelsbri7n5ty97ehr012ueq,1tCymLca,2020-0188,2020-05-21,16:46:29,17:04:57,NA,incomplete,229,filling,1,right,Blue_Circle_Grid_3.jpg,Blue_Star_Stripes_4.jpg,Green_Plus_Grid_2.jpg,left,571.4199999929406,false,high,NA,NA,NA,NA,NA,NA,NA,false
1tCymLca,3dzkabx20liukfefnqxhosng7x6cv3,382m9cohelsbri7n5ty97ehr012ueq,1tCymLca,2020-0188,2020-05-21,16:46:29,17:04:57,NA,incomplete,230,filling,1,right,Red_Star_Chess_1.jpg,Red_Triangle_Dots_4.jpg,Green_Circle_Chess_2.jpg,left,467.3999999940861,false,high,NA,NA,NA,NA,NA,NA,NA,false
1tCymLca,3dzkabx20liukfefnqxhosng7x6cv3,382m9cohelsbri7n5ty97ehr012ueq,1tCymLca,2020-0188,2020-05-21,16:46:29,17:04:57,NA,incomplete,231,filling,1,right,Red_Circle_Chess_4.jpg,Red_Plus_Grid_3.jpg,Blue_Triangle_Chess_1.jpg,left,403.2500000030268,false,high,NA,NA,NA,NA,NA,NA,NA,false
1tCymLca,3dzkabx20liukfefnqxhosng7x6cv3,382m9cohelsbri7n5ty97ehr012ueq,1tCymLca,2020-0188,2020-05-21,16:46:29,17:04:57,NA,incomplete,232,filling,1,left,Purple_Triangle_Stripes_2.jpg,Blue_Star_Stripes_3.jpg,Purple_Plus_Chess_4.jpg,right,414.504999993369,false,high,NA,NA,NA,NA,NA,NA,NA,false
1tCymLca,3dzkabx20liukfefnqxhosng7x6cv3,382m9cohelsbri7n5ty97ehr012ueq,1tCymLca,2020-0188,2020-05-21,16:46:29,17:04:57,NA,incomplete,233,filling,1,left,Green_Plus_Chess_1.jpg,Purple_Circle_Chess_4.jpg,Green_Triangle_Dots_2.jpg,right,610.1250000065193,false,high,NA,NA,NA,NA,NA,NA,NA,false
1tCymLca,3dzkabx20liukfefnqxhosng7x6cv3,382m9cohelsbri7n5ty97ehr012ueq,1tCymLca,2020-0188,2020-05-21,16:46:29,17:04:57,NA,incomplete,234,filling,0,left,Purple_Star_Dots_2.jpg,Blue_Plus_Dots_3.jpg,Purple_Triangle_Grid_1.jpg,right,432.8699999896344,false,high,NA,NA,NA,NA,NA,NA,NA,false
1tCymLca,3dzkabx20liukfefnqxhosng7x6cv3,382m9cohelsbri7n5ty97ehr012ueq,1tCymLca,2020-0188,2020-05-21,16:46:29,17:04:57,NA,incomplete,235,filling,1,right,Blue_Plus_Dots_1.jpg,Blue_Triangle_Stripes_4.jpg,Purple_Star_Dots_2.jpg,left,418.27500000363216,false,high,NA,NA,NA,NA,NA,NA,NA,false
1tCymLca,3dzkabx20liukfefnqxhosng7x6cv3,382m9cohelsbri7n5ty97ehr012ueq,1tCymLca,2020-0188,2020-05-21,16:46:29,17:04:57,NA,incomplete,236,filling,1,right,Purple_Plus_Chess_4.jpg,Purple_Triangle_Stripes_2.jpg,Green_Star_Chess_1.jpg,left,487.4649999837857,false,high,NA,NA,NA,NA,NA,NA,NA,false
1tCymLca,3dzkabx20liukfefnqxhosng7x6cv3,382m9cohelsbri7n5ty97ehr012ueq,1tCymLca,2020-0188,2020-05-21,16:46:29,17:04:57,NA,incomplete,237,filling,1,left,Green_Circle_Chess_1.jpg,Blue_Triangle_Chess_3.jpg,Green_Plus_Stripes_4.jpg,right,929.0299999993294,false,high,NA,NA,NA,NA,NA,NA,NA,false
1tCymLca,3dzkabx20liukfefnqxhosng7x6cv3,382m9cohelsbri7n5ty97ehr012ueq,1tCymLca,2020-0188,2020-05-21,16:46:29,17:04:57,NA,incomplete,238,filling,1,left,Green_Circle_Stripes_3.jpg,Red_Triangle_Stripes_1.jpg,Green_Plus_Grid_4.jpg,right,517.2650000022259,false,high,NA,NA,NA,NA,NA,NA,NA,false
1tCymLca,3dzkabx20liukfefnqxhosng7x6cv3,382m9cohelsbri7n5ty97ehr012ueq,1tCymLca,2020-0188,2020-05-21,16:46:29,17:04:57,NA,incomplete,239,filling,1,right,Green_Star_Grid_3.jpg,Green_Triangle_Stripes_1.jpg,Red_Plus_Grid_4.jpg,left,534.3450000218581,false,high,NA,NA,NA,NA,NA,NA,NA,false
1tCymLca,3dzkabx20liukfefnqxhosng7x6cv3,382m9cohelsbri7n5ty97ehr012ueq,1tCymLca,2020-0188,2020-05-21,16:46:29,17:04:57,NA,NA,instruction example,shape,NA,NA,Blue_Circle_Grid_1.jpg,Green_Circle_Dots_4.jpg,Purple_Plus_Stripes_1.jpg,NA,NA,NA,NA,NA,NA,NA,NA,NA,NA,NA,undefined
1tCymLca,3dzkabx20liukfefnqxhosng7x6cv3,382m9cohelsbri7n5ty97ehr012ueq,1tCymLca,2020-0188,2020-05-21,16:46:29,17:04:57,NA,NA,instruction example,shape,NA,NA,Purple_Triangle_Grid_3.jpg,Blue_Star_Chess_3.jpg,Green_Triangle_Stripes_2.jpg,NA,NA,NA,NA,NA,NA,NA,NA,NA,NA,NA,undefined
1tCymLca,3dzkabx20liukfefnqxhosng7x6cv3,382m9cohelsbri7n5ty97ehr012ueq,1tCymLca,2020-0188,2020-05-21,16:46:29,17:04:57,NA,NA,instruction example,shape,NA,NA,Blue_Triangle_Stripes_1.jpg,Blue_Plus_Grid_4.jpg,Purple_Star_Stripes_2.jpg,NA,NA,NA,NA,NA,NA,NA,NA,NA,NA,NA,undefined
1tCymLca,3dzkabx20liukfefnqxhosng7x6cv3,382m9cohelsbri7n5ty97ehr012ueq,1tCymLca,2020-0188,2020-05-21,16:46:29,17:04:57,NA,NA,instruction example,shape,NA,NA,Blue_Circle_Dots_4.jpg,Green_Star_Dots_1.jpg,Blue_Triangle_Grid_2.jpg,NA,NA,NA,NA,NA,NA,NA,NA,NA,NA,NA,undefined
1tCymLca,3dzkabx20liukfefnqxhosng7x6cv3,382m9cohelsbri7n5ty97ehr012ueq,1tCymLca,2020-0188,2020-05-21,16:46:29,17:04:57,1058903.7499999977,1108823.5749999876,NA,NA,NA,NA,NA,NA,NA,NA,NA,NA,NA,54,White/Caucasian,Female,American,no,yes,no,undefined
