workerId,hitId,assignmentId,subject,studyid,exp_date,exp_start,exp_end,time_start,time_end,trial,type,reward_validity,answer,image_top,image_left,image_right,response,response_time,response_acc,volatility,practice
VrNfzoCS,372ages0j7iqu68t52ou18jnn9hxrx,38f71oa9gx9kko2ar2rtymlxzhqmfm,VrNfzoCS,2020-0188,2020-05-22,04:43:17,05:04:04,NA,incomplete,0,color,0,right,Purple_Plus_Stripes_4.jpg,Blue_Star_Stripes_3.jpg,Purple_Triangle_Dots_1.jpg,right,1188.2750000804663,true,NA,true
VrNfzoCS,372ages0j7iqu68t52ou18jnn9hxrx,38f71oa9gx9kko2ar2rtymlxzhqmfm,VrNfzoCS,2020-0188,2020-05-22,04:43:17,05:04:04,NA,incomplete,1,color,1,right,Blue_Plus_Dots_3.jpg,Purple_Triangle_Dots_4.jpg,Blue_Star_Grid_2.jpg,right,744.014999945648,true,NA,true
VrNfzoCS,372ages0j7iqu68t52ou18jnn9hxrx,38f71oa9gx9kko2ar2rtymlxzhqmfm,VrNfzoCS,2020-0188,2020-05-22,04:43:17,05:04:04,NA,incomplete,2,color,1,left,Red_Circle_Grid_3.jpg,Red_Triangle_Dots_2.jpg,Blue_Star_Grid_1.jpg,left,1334.3350000213832,true,NA,true
VrNfzoCS,372ages0j7iqu68t52ou18jnn9hxrx,38f71oa9gx9kko2ar2rtymlxzhqmfm,VrNfzoCS,2020-0188,2020-05-22,04:43:17,05:04:04,NA,incomplete,3,color,1,left,Red_Plus_Grid_2.jpg,Red_Triangle_Stripes_1.jpg,Purple_Circle_Grid_4.jpg,left,1045.8250000374392,true,NA,true
VrNfzoCS,372ages0j7iqu68t52ou18jnn9hxrx,38f71oa9gx9kko2ar2rtymlxzhqmfm,VrNfzoCS,2020-0188,2020-05-22,04:43:17,05:04:04,NA,incomplete,4,color,0,right,Blue_Circle_Grid_2.jpg,Green_Star_Grid_4.jpg,Blue_Triangle_Stripes_1.jpg,right,945.7149999216199,true,NA,true
VrNfzoCS,372ages0j7iqu68t52ou18jnn9hxrx,38f71oa9gx9kko2ar2rtymlxzhqmfm,VrNfzoCS,2020-0188,2020-05-22,04:43:17,05:04:04,NA,incomplete,5,color,1,left,Red_Plus_Grid_3.jpg,Red_Triangle_Stripes_1.jpg,Blue_Star_Grid_4.jpg,left,1023.1049999129027,true,NA,true
VrNfzoCS,372ages0j7iqu68t52ou18jnn9hxrx,38f71oa9gx9kko2ar2rtymlxzhqmfm,VrNfzoCS,2020-0188,2020-05-22,04:43:17,05:04:04,NA,incomplete,6,color,0,left,Purple_Plus_Stripes_3.jpg,Purple_Circle_Grid_1.jpg,Green_Star_Stripes_4.jpg,left,977.6850000489503,true,NA,true
VrNfzoCS,372ages0j7iqu68t52ou18jnn9hxrx,38f71oa9gx9kko2ar2rtymlxzhqmfm,VrNfzoCS,2020-0188,2020-05-22,04:43:17,05:04:04,NA,incomplete,7,color,1,right,Purple_Circle_Grid_3.jpg,Green_Star_Grid_1.jpg,Purple_Triangle_Chess_4.jpg,right,726.8349999794737,true,NA,true
VrNfzoCS,372ages0j7iqu68t52ou18jnn9hxrx,38f71oa9gx9kko2ar2rtymlxzhqmfm,VrNfzoCS,2020-0188,2020-05-22,04:43:17,05:04:04,NA,incomplete,8,color,1,left,Blue_Triangle_Grid_1.jpg,Blue_Circle_Stripes_4.jpg,Purple_Plus_Grid_2.jpg,left,1070.8299999823794,true,NA,true
VrNfzoCS,372ages0j7iqu68t52ou18jnn9hxrx,38f71oa9gx9kko2ar2rtymlxzhqmfm,VrNfzoCS,2020-0188,2020-05-22,04:43:17,05:04:04,NA,incomplete,9,color,0,left,Green_Triangle_Stripes_3.jpg,Green_Circle_Grid_4.jpg,Red_Star_Stripes_1.jpg,left,1320.9899999201298,true,NA,true
VrNfzoCS,372ages0j7iqu68t52ou18jnn9hxrx,38f71oa9gx9kko2ar2rtymlxzhqmfm,VrNfzoCS,2020-0188,2020-05-22,04:43:17,05:04:04,NA,incomplete,10,color,1,left,Red_Plus_Chess_1.jpg,Red_Circle_Stripes_4.jpg,Blue_Star_Chess_2.jpg,left,567.9549999767914,true,NA,true
VrNfzoCS,372ages0j7iqu68t52ou18jnn9hxrx,38f71oa9gx9kko2ar2rtymlxzhqmfm,VrNfzoCS,2020-0188,2020-05-22,04:43:17,05:04:04,NA,incomplete,11,color,0,right,Red_Circle_Dots_4.jpg,Blue_Triangle_Dots_1.jpg,Red_Plus_Stripes_3.jpg,right,741.2400000030175,true,NA,true
VrNfzoCS,372ages0j7iqu68t52ou18jnn9hxrx,38f71oa9gx9kko2ar2rtymlxzhqmfm,VrNfzoCS,2020-0188,2020-05-22,04:43:17,05:04:04,NA,incomplete,12,color,1,left,Purple_Star_Grid_4.jpg,Purple_Triangle_Stripes_2.jpg,Blue_Circle_Grid_3.jpg,left,1235.9599999617785,true,NA,true
VrNfzoCS,372ages0j7iqu68t52ou18jnn9hxrx,38f71oa9gx9kko2ar2rtymlxzhqmfm,VrNfzoCS,2020-0188,2020-05-22,04:43:17,05:04:04,NA,incomplete,13,color,1,right,Blue_Star_Dots_4.jpg,Purple_Triangle_Dots_3.jpg,Blue_Circle_Chess_2.jpg,right,998.4000000404194,true,NA,true
VrNfzoCS,372ages0j7iqu68t52ou18jnn9hxrx,38f71oa9gx9kko2ar2rtymlxzhqmfm,VrNfzoCS,2020-0188,2020-05-22,04:43:17,05:04:04,NA,incomplete,14,color,1,right,Blue_Star_Dots_1.jpg,Purple_Circle_Dots_4.jpg,Blue_Plus_Stripes_2.jpg,right,1067.46499997098,true,NA,true
VrNfzoCS,372ages0j7iqu68t52ou18jnn9hxrx,38f71oa9gx9kko2ar2rtymlxzhqmfm,VrNfzoCS,2020-0188,2020-05-22,04:43:17,05:04:04,NA,incomplete,15,color,1,right,Purple_Plus_Dots_4.jpg,Green_Triangle_Dots_2.jpg,Purple_Star_Chess_1.jpg,right,1091.8999999994412,true,NA,true
VrNfzoCS,372ages0j7iqu68t52ou18jnn9hxrx,38f71oa9gx9kko2ar2rtymlxzhqmfm,VrNfzoCS,2020-0188,2020-05-22,04:43:17,05:04:04,NA,incomplete,16,color,1,right,Green_Plus_Stripes_1.jpg,Red_Triangle_Stripes_2.jpg,Green_Star_Dots_4.jpg,right,1165.099999983795,true,NA,true
VrNfzoCS,372ages0j7iqu68t52ou18jnn9hxrx,38f71oa9gx9kko2ar2rtymlxzhqmfm,VrNfzoCS,2020-0188,2020-05-22,04:43:17,05:04:04,NA,incomplete,17,color,0,right,Green_Plus_Grid_2.jpg,Red_Triangle_Grid_1.jpg,Green_Circle_Dots_3.jpg,right,1067.0899999095127,true,NA,true
VrNfzoCS,372ages0j7iqu68t52ou18jnn9hxrx,38f71oa9gx9kko2ar2rtymlxzhqmfm,VrNfzoCS,2020-0188,2020-05-22,04:43:17,05:04:04,NA,incomplete,18,color,1,right,Blue_Circle_Stripes_4.jpg,Green_Triangle_Stripes_2.jpg,Blue_Plus_Chess_1.jpg,right,1166.205000015907,true,NA,true
VrNfzoCS,372ages0j7iqu68t52ou18jnn9hxrx,38f71oa9gx9kko2ar2rtymlxzhqmfm,VrNfzoCS,2020-0188,2020-05-22,04:43:17,05:04:04,NA,incomplete,19,color,1,left,Blue_Star_Chess_2.jpg,Blue_Triangle_Dots_3.jpg,Green_Plus_Chess_1.jpg,left,1299.1199999814853,true,NA,true
VrNfzoCS,372ages0j7iqu68t52ou18jnn9hxrx,38f71oa9gx9kko2ar2rtymlxzhqmfm,VrNfzoCS,2020-0188,2020-05-22,04:43:17,05:04:04,NA,incomplete,20,filling,1,left,Red_Circle_Chess_1.jpg,Purple_Triangle_Chess_2.jpg,Red_Star_Dots_4.jpg,left,1388.5299999965355,true,NA,true
VrNfzoCS,372ages0j7iqu68t52ou18jnn9hxrx,38f71oa9gx9kko2ar2rtymlxzhqmfm,VrNfzoCS,2020-0188,2020-05-22,04:43:17,05:04:04,NA,incomplete,21,filling,1,left,Green_Triangle_Stripes_1.jpg,Red_Plus_Stripes_3.jpg,Green_Circle_Chess_4.jpg,left,1535.6900000479072,true,NA,true
VrNfzoCS,372ages0j7iqu68t52ou18jnn9hxrx,38f71oa9gx9kko2ar2rtymlxzhqmfm,VrNfzoCS,2020-0188,2020-05-22,04:43:17,05:04:04,NA,incomplete,22,filling,1,left,Purple_Star_Stripes_4.jpg,Green_Plus_Stripes_2.jpg,Purple_Circle_Chess_3.jpg,left,1615.43000000529,true,NA,true
VrNfzoCS,372ages0j7iqu68t52ou18jnn9hxrx,38f71oa9gx9kko2ar2rtymlxzhqmfm,VrNfzoCS,2020-0188,2020-05-22,04:43:17,05:04:04,NA,incomplete,23,filling,1,left,Red_Triangle_Grid_3.jpg,Purple_Star_Grid_1.jpg,Red_Plus_Dots_4.jpg,left,1699.6950000757352,true,NA,true
VrNfzoCS,372ages0j7iqu68t52ou18jnn9hxrx,38f71oa9gx9kko2ar2rtymlxzhqmfm,VrNfzoCS,2020-0188,2020-05-22,04:43:17,05:04:04,NA,incomplete,24,filling,0,right,Purple_Circle_Dots_1.jpg,Purple_Star_Chess_3.jpg,Blue_Triangle_Dots_4.jpg,right,1523.7099999794737,true,NA,true
VrNfzoCS,372ages0j7iqu68t52ou18jnn9hxrx,38f71oa9gx9kko2ar2rtymlxzhqmfm,VrNfzoCS,2020-0188,2020-05-22,04:43:17,05:04:04,NA,incomplete,25,filling,0,right,Purple_Plus_Grid_2.jpg,Purple_Star_Stripes_4.jpg,Blue_Circle_Grid_1.jpg,right,1907.6299999142066,true,NA,true
VrNfzoCS,372ages0j7iqu68t52ou18jnn9hxrx,38f71oa9gx9kko2ar2rtymlxzhqmfm,VrNfzoCS,2020-0188,2020-05-22,04:43:17,05:04:04,NA,incomplete,26,filling,1,right,Green_Star_Stripes_2.jpg,Green_Triangle_Grid_4.jpg,Blue_Circle_Stripes_1.jpg,right,1500.2600000007078,true,NA,true
VrNfzoCS,372ages0j7iqu68t52ou18jnn9hxrx,38f71oa9gx9kko2ar2rtymlxzhqmfm,VrNfzoCS,2020-0188,2020-05-22,04:43:17,05:04:04,NA,incomplete,27,filling,1,left,Green_Star_Dots_3.jpg,Blue_Circle_Dots_4.jpg,Green_Triangle_Stripes_2.jpg,left,1532.34000003431,true,NA,true
VrNfzoCS,372ages0j7iqu68t52ou18jnn9hxrx,38f71oa9gx9kko2ar2rtymlxzhqmfm,VrNfzoCS,2020-0188,2020-05-22,04:43:17,05:04:04,NA,incomplete,28,filling,1,right,Purple_Circle_Grid_1.jpg,Purple_Plus_Stripes_4.jpg,Red_Star_Grid_2.jpg,right,1570.9999999962747,true,NA,true
VrNfzoCS,372ages0j7iqu68t52ou18jnn9hxrx,38f71oa9gx9kko2ar2rtymlxzhqmfm,VrNfzoCS,2020-0188,2020-05-22,04:43:17,05:04:04,NA,incomplete,29,filling,1,left,Red_Circle_Grid_4.jpg,Blue_Star_Grid_2.jpg,Red_Triangle_Dots_3.jpg,left,1592.6949999993667,true,NA,true
VrNfzoCS,372ages0j7iqu68t52ou18jnn9hxrx,38f71oa9gx9kko2ar2rtymlxzhqmfm,VrNfzoCS,2020-0188,2020-05-22,04:43:17,05:04:04,NA,incomplete,30,filling,1,left,Blue_Star_Grid_2.jpg,Purple_Triangle_Grid_4.jpg,Blue_Plus_Dots_3.jpg,left,1581.2249999726191,true,NA,true
VrNfzoCS,372ages0j7iqu68t52ou18jnn9hxrx,38f71oa9gx9kko2ar2rtymlxzhqmfm,VrNfzoCS,2020-0188,2020-05-22,04:43:17,05:04:04,NA,incomplete,31,filling,1,left,Red_Star_Grid_4.jpg,Purple_Plus_Grid_3.jpg,Red_Triangle_Dots_2.jpg,left,1442.8850000258535,true,NA,true
VrNfzoCS,372ages0j7iqu68t52ou18jnn9hxrx,38f71oa9gx9kko2ar2rtymlxzhqmfm,VrNfzoCS,2020-0188,2020-05-22,04:43:17,05:04:04,NA,incomplete,32,filling,1,right,Blue_Triangle_Grid_3.jpg,Blue_Plus_Chess_4.jpg,Red_Star_Grid_2.jpg,right,1773.6299999523908,true,NA,true
VrNfzoCS,372ages0j7iqu68t52ou18jnn9hxrx,38f71oa9gx9kko2ar2rtymlxzhqmfm,VrNfzoCS,2020-0188,2020-05-22,04:43:17,05:04:04,NA,incomplete,33,filling,1,left,Green_Triangle_Grid_4.jpg,Red_Plus_Grid_1.jpg,Green_Star_Dots_3.jpg,left,1529.8750000074506,true,NA,true
VrNfzoCS,372ages0j7iqu68t52ou18jnn9hxrx,38f71oa9gx9kko2ar2rtymlxzhqmfm,VrNfzoCS,2020-0188,2020-05-22,04:43:17,05:04:04,NA,incomplete,34,filling,1,right,Green_Star_Grid_4.jpg,Green_Triangle_Stripes_3.jpg,Red_Circle_Grid_1.jpg,right,1954.784999950789,true,NA,true
VrNfzoCS,372ages0j7iqu68t52ou18jnn9hxrx,38f71oa9gx9kko2ar2rtymlxzhqmfm,VrNfzoCS,2020-0188,2020-05-22,04:43:17,05:04:04,NA,incomplete,35,filling,1,left,Green_Triangle_Stripes_2.jpg,Red_Circle_Stripes_1.jpg,Green_Star_Dots_4.jpg,none,0,false,NA,true
VrNfzoCS,372ages0j7iqu68t52ou18jnn9hxrx,38f71oa9gx9kko2ar2rtymlxzhqmfm,VrNfzoCS,2020-0188,2020-05-22,04:43:17,05:04:04,NA,incomplete,36,filling,1,left,Green_Circle_Dots_3.jpg,Red_Star_Dots_1.jpg,Green_Plus_Grid_2.jpg,left,1452.5500000454485,true,NA,true
VrNfzoCS,372ages0j7iqu68t52ou18jnn9hxrx,38f71oa9gx9kko2ar2rtymlxzhqmfm,VrNfzoCS,2020-0188,2020-05-22,04:43:17,05:04:04,NA,incomplete,37,filling,1,left,Purple_Plus_Chess_1.jpg,Blue_Triangle_Chess_2.jpg,Purple_Star_Grid_4.jpg,left,1158.8850000407547,true,NA,true
VrNfzoCS,372ages0j7iqu68t52ou18jnn9hxrx,38f71oa9gx9kko2ar2rtymlxzhqmfm,VrNfzoCS,2020-0188,2020-05-22,04:43:17,05:04:04,NA,incomplete,38,filling,1,right,Green_Star_Dots_3.jpg,Green_Triangle_Chess_1.jpg,Purple_Circle_Dots_2.jpg,right,1333.4800000302494,true,NA,true
VrNfzoCS,372ages0j7iqu68t52ou18jnn9hxrx,38f71oa9gx9kko2ar2rtymlxzhqmfm,VrNfzoCS,2020-0188,2020-05-22,04:43:17,05:04:04,NA,incomplete,39,filling,1,left,Green_Circle_Grid_4.jpg,Red_Plus_Grid_1.jpg,Green_Triangle_Chess_3.jpg,left,1444.8499999707565,true,NA,true
VrNfzoCS,372ages0j7iqu68t52ou18jnn9hxrx,38f71oa9gx9kko2ar2rtymlxzhqmfm,VrNfzoCS,2020-0188,2020-05-22,04:43:17,05:04:04,NA,incomplete,0,color,1,right,Purple_Plus_Grid_2.jpg,Red_Star_Grid_1.jpg,Purple_Circle_Stripes_3.jpg,right,1150.1050000078976,true,low,false
VrNfzoCS,372ages0j7iqu68t52ou18jnn9hxrx,38f71oa9gx9kko2ar2rtymlxzhqmfm,VrNfzoCS,2020-0188,2020-05-22,04:43:17,05:04:04,NA,incomplete,1,color,1,left,Blue_Plus_Chess_3.jpg,Blue_Triangle_Stripes_4.jpg,Green_Star_Chess_1.jpg,left,668.3450000127777,true,low,false
VrNfzoCS,372ages0j7iqu68t52ou18jnn9hxrx,38f71oa9gx9kko2ar2rtymlxzhqmfm,VrNfzoCS,2020-0188,2020-05-22,04:43:17,05:04:04,NA,incomplete,2,color,1,right,Green_Triangle_Grid_3.jpg,Blue_Star_Grid_4.jpg,Green_Circle_Stripes_1.jpg,right,734.0100000146776,true,low,false
VrNfzoCS,372ages0j7iqu68t52ou18jnn9hxrx,38f71oa9gx9kko2ar2rtymlxzhqmfm,VrNfzoCS,2020-0188,2020-05-22,04:43:17,05:04:04,NA,incomplete,3,color,1,right,Green_Plus_Stripes_3.jpg,Purple_Star_Stripes_4.jpg,Green_Circle_Dots_1.jpg,right,652.9250000603497,true,low,false
VrNfzoCS,372ages0j7iqu68t52ou18jnn9hxrx,38f71oa9gx9kko2ar2rtymlxzhqmfm,VrNfzoCS,2020-0188,2020-05-22,04:43:17,05:04:04,NA,incomplete,4,color,1,right,Blue_Triangle_Grid_4.jpg,Purple_Plus_Grid_2.jpg,Blue_Star_Chess_1.jpg,right,719.2450000438839,true,low,false
VrNfzoCS,372ages0j7iqu68t52ou18jnn9hxrx,38f71oa9gx9kko2ar2rtymlxzhqmfm,VrNfzoCS,2020-0188,2020-05-22,04:43:17,05:04:04,NA,incomplete,5,color,1,left,Blue_Triangle_Grid_2.jpg,Blue_Star_Stripes_1.jpg,Purple_Circle_Grid_3.jpg,left,797.5599999772385,true,low,false
VrNfzoCS,372ages0j7iqu68t52ou18jnn9hxrx,38f71oa9gx9kko2ar2rtymlxzhqmfm,VrNfzoCS,2020-0188,2020-05-22,04:43:17,05:04:04,NA,incomplete,6,color,1,right,Purple_Star_Chess_4.jpg,Blue_Triangle_Chess_1.jpg,Purple_Plus_Grid_2.jpg,right,753.6350000882521,true,low,false
VrNfzoCS,372ages0j7iqu68t52ou18jnn9hxrx,38f71oa9gx9kko2ar2rtymlxzhqmfm,VrNfzoCS,2020-0188,2020-05-22,04:43:17,05:04:04,NA,incomplete,7,color,1,right,Purple_Triangle_Stripes_2.jpg,Blue_Plus_Stripes_1.jpg,Purple_Circle_Dots_4.jpg,right,552.6149999350309,true,low,false
VrNfzoCS,372ages0j7iqu68t52ou18jnn9hxrx,38f71oa9gx9kko2ar2rtymlxzhqmfm,VrNfzoCS,2020-0188,2020-05-22,04:43:17,05:04:04,NA,incomplete,8,color,1,left,Red_Star_Grid_1.jpg,Red_Triangle_Chess_2.jpg,Green_Plus_Grid_3.jpg,left,598.8399999914691,true,low,false
VrNfzoCS,372ages0j7iqu68t52ou18jnn9hxrx,38f71oa9gx9kko2ar2rtymlxzhqmfm,VrNfzoCS,2020-0188,2020-05-22,04:43:17,05:04:04,NA,incomplete,9,color,1,left,Purple_Star_Dots_3.jpg,Purple_Triangle_Stripes_2.jpg,Red_Plus_Dots_1.jpg,left,604.2450000531971,true,low,false
VrNfzoCS,372ages0j7iqu68t52ou18jnn9hxrx,38f71oa9gx9kko2ar2rtymlxzhqmfm,VrNfzoCS,2020-0188,2020-05-22,04:43:17,05:04:04,NA,incomplete,10,color,1,right,Red_Star_Dots_4.jpg,Purple_Triangle_Dots_2.jpg,Red_Circle_Grid_3.jpg,right,638.6149999452755,true,low,false
VrNfzoCS,372ages0j7iqu68t52ou18jnn9hxrx,38f71oa9gx9kko2ar2rtymlxzhqmfm,VrNfzoCS,2020-0188,2020-05-22,04:43:17,05:04:04,NA,incomplete,11,color,1,left,Red_Triangle_Chess_3.jpg,Red_Plus_Stripes_1.jpg,Blue_Circle_Chess_4.jpg,left,553.0149999540299,true,low,false
VrNfzoCS,372ages0j7iqu68t52ou18jnn9hxrx,38f71oa9gx9kko2ar2rtymlxzhqmfm,VrNfzoCS,2020-0188,2020-05-22,04:43:17,05:04:04,NA,incomplete,12,color,1,left,Purple_Circle_Dots_1.jpg,Purple_Star_Grid_4.jpg,Green_Plus_Dots_2.jpg,left,479.5849999645725,true,low,false
VrNfzoCS,372ages0j7iqu68t52ou18jnn9hxrx,38f71oa9gx9kko2ar2rtymlxzhqmfm,VrNfzoCS,2020-0188,2020-05-22,04:43:17,05:04:04,NA,incomplete,13,color,1,left,Red_Triangle_Grid_3.jpg,Red_Star_Stripes_1.jpg,Blue_Circle_Grid_4.jpg,left,600.235000019893,true,low,false
VrNfzoCS,372ages0j7iqu68t52ou18jnn9hxrx,38f71oa9gx9kko2ar2rtymlxzhqmfm,VrNfzoCS,2020-0188,2020-05-22,04:43:17,05:04:04,NA,incomplete,14,color,1,right,Red_Triangle_Stripes_2.jpg,Purple_Star_Stripes_3.jpg,Red_Circle_Chess_4.jpg,right,701.9800000125542,true,low,false
VrNfzoCS,372ages0j7iqu68t52ou18jnn9hxrx,38f71oa9gx9kko2ar2rtymlxzhqmfm,VrNfzoCS,2020-0188,2020-05-22,04:43:17,05:04:04,NA,incomplete,15,color,0,right,Blue_Circle_Stripes_3.jpg,Green_Triangle_Stripes_2.jpg,Blue_Plus_Dots_1.jpg,right,756.9300000322983,true,low,false
VrNfzoCS,372ages0j7iqu68t52ou18jnn9hxrx,38f71oa9gx9kko2ar2rtymlxzhqmfm,VrNfzoCS,2020-0188,2020-05-22,04:43:17,05:04:04,NA,incomplete,16,color,0,left,Blue_Plus_Grid_2.jpg,Blue_Star_Stripes_1.jpg,Purple_Triangle_Grid_3.jpg,left,515.2099999831989,true,low,false
VrNfzoCS,372ages0j7iqu68t52ou18jnn9hxrx,38f71oa9gx9kko2ar2rtymlxzhqmfm,VrNfzoCS,2020-0188,2020-05-22,04:43:17,05:04:04,NA,incomplete,17,color,1,left,Blue_Circle_Stripes_3.jpg,Blue_Triangle_Chess_4.jpg,Red_Plus_Stripes_2.jpg,right,1114.8400000529364,false,low,false
VrNfzoCS,372ages0j7iqu68t52ou18jnn9hxrx,38f71oa9gx9kko2ar2rtymlxzhqmfm,VrNfzoCS,2020-0188,2020-05-22,04:43:17,05:04:04,NA,incomplete,18,color,1,right,Green_Star_Grid_1.jpg,Blue_Plus_Grid_2.jpg,Green_Triangle_Stripes_4.jpg,right,1042.4300000304356,true,low,false
VrNfzoCS,372ages0j7iqu68t52ou18jnn9hxrx,38f71oa9gx9kko2ar2rtymlxzhqmfm,VrNfzoCS,2020-0188,2020-05-22,04:43:17,05:04:04,NA,incomplete,19,color,1,right,Blue_Star_Grid_4.jpg,Green_Plus_Grid_1.jpg,Blue_Triangle_Dots_3.jpg,right,662.4399999855086,true,low,false
VrNfzoCS,372ages0j7iqu68t52ou18jnn9hxrx,38f71oa9gx9kko2ar2rtymlxzhqmfm,VrNfzoCS,2020-0188,2020-05-22,04:43:17,05:04:04,NA,incomplete,20,color,1,left,Blue_Star_Chess_3.jpg,Blue_Triangle_Dots_4.jpg,Green_Circle_Chess_1.jpg,left,607.979999971576,true,low,false
VrNfzoCS,372ages0j7iqu68t52ou18jnn9hxrx,38f71oa9gx9kko2ar2rtymlxzhqmfm,VrNfzoCS,2020-0188,2020-05-22,04:43:17,05:04:04,NA,incomplete,21,color,0,left,Purple_Circle_Dots_1.jpg,Purple_Star_Chess_2.jpg,Red_Plus_Dots_4.jpg,left,619.4150000810623,true,low,false
VrNfzoCS,372ages0j7iqu68t52ou18jnn9hxrx,38f71oa9gx9kko2ar2rtymlxzhqmfm,VrNfzoCS,2020-0188,2020-05-22,04:43:17,05:04:04,NA,incomplete,22,color,1,left,Green_Star_Chess_2.jpg,Green_Circle_Stripes_4.jpg,Blue_Plus_Chess_1.jpg,left,503.00999998580664,true,low,false
VrNfzoCS,372ages0j7iqu68t52ou18jnn9hxrx,38f71oa9gx9kko2ar2rtymlxzhqmfm,VrNfzoCS,2020-0188,2020-05-22,04:43:17,05:04:04,NA,incomplete,23,color,1,right,Red_Plus_Stripes_3.jpg,Blue_Star_Stripes_2.jpg,Red_Circle_Dots_4.jpg,right,502.34000000637025,true,low,false
VrNfzoCS,372ages0j7iqu68t52ou18jnn9hxrx,38f71oa9gx9kko2ar2rtymlxzhqmfm,VrNfzoCS,2020-0188,2020-05-22,04:43:17,05:04:04,NA,incomplete,24,color,1,right,Blue_Plus_Stripes_3.jpg,Red_Triangle_Stripes_2.jpg,Blue_Circle_Dots_1.jpg,right,655.2500000689179,true,low,false
VrNfzoCS,372ages0j7iqu68t52ou18jnn9hxrx,38f71oa9gx9kko2ar2rtymlxzhqmfm,VrNfzoCS,2020-0188,2020-05-22,04:43:17,05:04:04,NA,incomplete,25,color,1,right,Green_Circle_Dots_4.jpg,Red_Plus_Dots_3.jpg,Green_Triangle_Grid_2.jpg,right,528.2799999695271,true,low,false
VrNfzoCS,372ages0j7iqu68t52ou18jnn9hxrx,38f71oa9gx9kko2ar2rtymlxzhqmfm,VrNfzoCS,2020-0188,2020-05-22,04:43:17,05:04:04,NA,incomplete,26,color,1,right,Green_Plus_Chess_1.jpg,Blue_Triangle_Chess_4.jpg,Green_Circle_Stripes_3.jpg,right,599.7750000096858,true,low,false
VrNfzoCS,372ages0j7iqu68t52ou18jnn9hxrx,38f71oa9gx9kko2ar2rtymlxzhqmfm,VrNfzoCS,2020-0188,2020-05-22,04:43:17,05:04:04,NA,incomplete,27,color,1,left,Blue_Star_Dots_3.jpg,Blue_Triangle_Chess_4.jpg,Green_Circle_Dots_1.jpg,left,693.6449999921024,true,low,false
VrNfzoCS,372ages0j7iqu68t52ou18jnn9hxrx,38f71oa9gx9kko2ar2rtymlxzhqmfm,VrNfzoCS,2020-0188,2020-05-22,04:43:17,05:04:04,NA,incomplete,28,color,0,left,Red_Plus_Dots_1.jpg,Red_Circle_Grid_2.jpg,Green_Star_Dots_3.jpg,left,629.8099999548867,true,low,false
VrNfzoCS,372ages0j7iqu68t52ou18jnn9hxrx,38f71oa9gx9kko2ar2rtymlxzhqmfm,VrNfzoCS,2020-0188,2020-05-22,04:43:17,05:04:04,NA,incomplete,29,color,1,right,Green_Circle_Chess_3.jpg,Blue_Triangle_Chess_1.jpg,Green_Star_Stripes_4.jpg,right,457.55000005010515,true,low,false
VrNfzoCS,372ages0j7iqu68t52ou18jnn9hxrx,38f71oa9gx9kko2ar2rtymlxzhqmfm,VrNfzoCS,2020-0188,2020-05-22,04:43:17,05:04:04,NA,incomplete,30,filling,1,left,Purple_Circle_Dots_4.jpg,Green_Triangle_Dots_1.jpg,Purple_Plus_Grid_2.jpg,right,530.7000000029802,false,low,false
VrNfzoCS,372ages0j7iqu68t52ou18jnn9hxrx,38f71oa9gx9kko2ar2rtymlxzhqmfm,VrNfzoCS,2020-0188,2020-05-22,04:43:17,05:04:04,NA,incomplete,31,filling,1,left,Red_Triangle_Grid_1.jpg,Blue_Star_Grid_2.jpg,Red_Circle_Dots_3.jpg,right,474.06999999657273,false,low,false
VrNfzoCS,372ages0j7iqu68t52ou18jnn9hxrx,38f71oa9gx9kko2ar2rtymlxzhqmfm,VrNfzoCS,2020-0188,2020-05-22,04:43:17,05:04:04,NA,incomplete,32,filling,1,left,Purple_Star_Chess_3.jpg,Blue_Triangle_Chess_2.jpg,Purple_Circle_Dots_1.jpg,right,523.4400000190362,false,low,false
VrNfzoCS,372ages0j7iqu68t52ou18jnn9hxrx,38f71oa9gx9kko2ar2rtymlxzhqmfm,VrNfzoCS,2020-0188,2020-05-22,04:43:17,05:04:04,NA,incomplete,33,filling,1,left,Green_Circle_Dots_4.jpg,Red_Plus_Dots_1.jpg,Green_Star_Stripes_2.jpg,left,1128.3149999799207,true,low,false
VrNfzoCS,372ages0j7iqu68t52ou18jnn9hxrx,38f71oa9gx9kko2ar2rtymlxzhqmfm,VrNfzoCS,2020-0188,2020-05-22,04:43:17,05:04:04,NA,incomplete,34,filling,1,left,Red_Triangle_Dots_3.jpg,Purple_Star_Dots_4.jpg,Red_Plus_Chess_1.jpg,left,1193.9900000579655,true,low,false
VrNfzoCS,372ages0j7iqu68t52ou18jnn9hxrx,38f71oa9gx9kko2ar2rtymlxzhqmfm,VrNfzoCS,2020-0188,2020-05-22,04:43:17,05:04:04,NA,incomplete,35,filling,1,right,Red_Star_Chess_4.jpg,Red_Triangle_Grid_1.jpg,Green_Circle_Chess_3.jpg,right,1191.3550000172108,true,low,false
VrNfzoCS,372ages0j7iqu68t52ou18jnn9hxrx,38f71oa9gx9kko2ar2rtymlxzhqmfm,VrNfzoCS,2020-0188,2020-05-22,04:43:17,05:04:04,NA,incomplete,36,filling,1,left,Blue_Triangle_Grid_1.jpg,Purple_Plus_Grid_2.jpg,Blue_Star_Chess_3.jpg,left,1051.259999978356,true,low,false
VrNfzoCS,372ages0j7iqu68t52ou18jnn9hxrx,38f71oa9gx9kko2ar2rtymlxzhqmfm,VrNfzoCS,2020-0188,2020-05-22,04:43:17,05:04:04,NA,incomplete,37,filling,1,left,Green_Star_Dots_4.jpg,Purple_Circle_Dots_2.jpg,Green_Plus_Chess_3.jpg,left,973.6399999819696,true,low,false
VrNfzoCS,372ages0j7iqu68t52ou18jnn9hxrx,38f71oa9gx9kko2ar2rtymlxzhqmfm,VrNfzoCS,2020-0188,2020-05-22,04:43:17,05:04:04,NA,incomplete,38,filling,1,left,Red_Circle_Stripes_4.jpg,Green_Star_Stripes_3.jpg,Red_Plus_Dots_2.jpg,left,1148.12000002712,true,low,false
VrNfzoCS,372ages0j7iqu68t52ou18jnn9hxrx,38f71oa9gx9kko2ar2rtymlxzhqmfm,VrNfzoCS,2020-0188,2020-05-22,04:43:17,05:04:04,NA,incomplete,39,filling,1,left,Red_Circle_Stripes_1.jpg,Blue_Plus_Stripes_2.jpg,Red_Triangle_Chess_4.jpg,left,1121.0650000721216,true,low,false
VrNfzoCS,372ages0j7iqu68t52ou18jnn9hxrx,38f71oa9gx9kko2ar2rtymlxzhqmfm,VrNfzoCS,2020-0188,2020-05-22,04:43:17,05:04:04,NA,incomplete,40,filling,0,left,Purple_Plus_Grid_3.jpg,Blue_Circle_Grid_2.jpg,Purple_Triangle_Chess_1.jpg,left,1272.8499999502674,true,low,false
VrNfzoCS,372ages0j7iqu68t52ou18jnn9hxrx,38f71oa9gx9kko2ar2rtymlxzhqmfm,VrNfzoCS,2020-0188,2020-05-22,04:43:17,05:04:04,NA,incomplete,41,filling,1,right,Blue_Star_Grid_1.jpg,Blue_Triangle_Dots_2.jpg,Green_Circle_Grid_3.jpg,right,962.6649999991059,true,low,false
VrNfzoCS,372ages0j7iqu68t52ou18jnn9hxrx,38f71oa9gx9kko2ar2rtymlxzhqmfm,VrNfzoCS,2020-0188,2020-05-22,04:43:17,05:04:04,NA,incomplete,42,filling,0,right,Purple_Circle_Chess_1.jpg,Purple_Star_Stripes_4.jpg,Green_Triangle_Chess_2.jpg,right,1057.5100000714883,true,low,false
VrNfzoCS,372ages0j7iqu68t52ou18jnn9hxrx,38f71oa9gx9kko2ar2rtymlxzhqmfm,VrNfzoCS,2020-0188,2020-05-22,04:43:17,05:04:04,NA,incomplete,43,filling,1,left,Purple_Plus_Stripes_4.jpg,Blue_Circle_Stripes_2.jpg,Purple_Triangle_Dots_3.jpg,right,682.5050000334159,false,low,false
VrNfzoCS,372ages0j7iqu68t52ou18jnn9hxrx,38f71oa9gx9kko2ar2rtymlxzhqmfm,VrNfzoCS,2020-0188,2020-05-22,04:43:17,05:04:04,NA,incomplete,44,filling,1,left,Green_Plus_Stripes_2.jpg,Purple_Triangle_Stripes_3.jpg,Green_Star_Grid_4.jpg,left,1027.9099999461323,true,low,false
VrNfzoCS,372ages0j7iqu68t52ou18jnn9hxrx,38f71oa9gx9kko2ar2rtymlxzhqmfm,VrNfzoCS,2020-0188,2020-05-22,04:43:17,05:04:04,NA,incomplete,45,filling,1,right,Purple_Star_Stripes_2.jpg,Purple_Triangle_Dots_3.jpg,Green_Circle_Stripes_1.jpg,right,1095.244999974966,true,low,false
VrNfzoCS,372ages0j7iqu68t52ou18jnn9hxrx,38f71oa9gx9kko2ar2rtymlxzhqmfm,VrNfzoCS,2020-0188,2020-05-22,04:43:17,05:04:04,NA,incomplete,46,filling,0,left,Purple_Plus_Stripes_2.jpg,Blue_Circle_Stripes_4.jpg,Purple_Star_Dots_1.jpg,left,1097.334999940358,true,low,false
VrNfzoCS,372ages0j7iqu68t52ou18jnn9hxrx,38f71oa9gx9kko2ar2rtymlxzhqmfm,VrNfzoCS,2020-0188,2020-05-22,04:43:17,05:04:04,NA,incomplete,47,filling,0,left,Purple_Triangle_Chess_4.jpg,Green_Plus_Chess_3.jpg,Purple_Circle_Grid_1.jpg,right,641.1899999948218,false,low,false
VrNfzoCS,372ages0j7iqu68t52ou18jnn9hxrx,38f71oa9gx9kko2ar2rtymlxzhqmfm,VrNfzoCS,2020-0188,2020-05-22,04:43:17,05:04:04,NA,incomplete,48,filling,1,right,Purple_Star_Dots_2.jpg,Purple_Circle_Chess_3.jpg,Green_Plus_Dots_4.jpg,left,747.1249999944121,false,low,false
VrNfzoCS,372ages0j7iqu68t52ou18jnn9hxrx,38f71oa9gx9kko2ar2rtymlxzhqmfm,VrNfzoCS,2020-0188,2020-05-22,04:43:17,05:04:04,NA,incomplete,49,filling,1,left,Red_Plus_Dots_3.jpg,Blue_Star_Dots_1.jpg,Red_Triangle_Stripes_4.jpg,right,497.789999935776,false,low,false
VrNfzoCS,372ages0j7iqu68t52ou18jnn9hxrx,38f71oa9gx9kko2ar2rtymlxzhqmfm,VrNfzoCS,2020-0188,2020-05-22,04:43:17,05:04:04,NA,incomplete,50,filling,1,left,Purple_Plus_Chess_3.jpg,Blue_Circle_Chess_2.jpg,Purple_Star_Grid_4.jpg,left,930.7150000240654,true,low,false
VrNfzoCS,372ages0j7iqu68t52ou18jnn9hxrx,38f71oa9gx9kko2ar2rtymlxzhqmfm,VrNfzoCS,2020-0188,2020-05-22,04:43:17,05:04:04,NA,incomplete,51,filling,0,right,Blue_Triangle_Grid_3.jpg,Blue_Star_Chess_4.jpg,Green_Plus_Grid_2.jpg,right,921.1799999466166,true,low,false
VrNfzoCS,372ages0j7iqu68t52ou18jnn9hxrx,38f71oa9gx9kko2ar2rtymlxzhqmfm,VrNfzoCS,2020-0188,2020-05-22,04:43:17,05:04:04,NA,incomplete,52,filling,1,right,Blue_Triangle_Grid_3.jpg,Blue_Circle_Stripes_1.jpg,Purple_Star_Grid_4.jpg,right,1586.3150000805035,true,low,false
VrNfzoCS,372ages0j7iqu68t52ou18jnn9hxrx,38f71oa9gx9kko2ar2rtymlxzhqmfm,VrNfzoCS,2020-0188,2020-05-22,04:43:17,05:04:04,NA,incomplete,53,filling,0,left,Blue_Star_Dots_1.jpg,Green_Plus_Dots_2.jpg,Blue_Triangle_Chess_4.jpg,left,1086.0150000080466,true,low,false
VrNfzoCS,372ages0j7iqu68t52ou18jnn9hxrx,38f71oa9gx9kko2ar2rtymlxzhqmfm,VrNfzoCS,2020-0188,2020-05-22,04:43:17,05:04:04,NA,incomplete,54,filling,1,right,Blue_Triangle_Chess_1.jpg,Blue_Star_Grid_3.jpg,Red_Circle_Chess_4.jpg,left,446.6699999757111,false,low,false
VrNfzoCS,372ages0j7iqu68t52ou18jnn9hxrx,38f71oa9gx9kko2ar2rtymlxzhqmfm,VrNfzoCS,2020-0188,2020-05-22,04:43:17,05:04:04,NA,incomplete,55,filling,1,right,Purple_Plus_Dots_4.jpg,Purple_Circle_Chess_1.jpg,Blue_Star_Dots_3.jpg,right,1304.9849999370053,true,low,false
VrNfzoCS,372ages0j7iqu68t52ou18jnn9hxrx,38f71oa9gx9kko2ar2rtymlxzhqmfm,VrNfzoCS,2020-0188,2020-05-22,04:43:17,05:04:04,NA,incomplete,56,filling,0,left,Green_Plus_Grid_1.jpg,Red_Star_Grid_4.jpg,Green_Triangle_Chess_2.jpg,left,1105.015000095591,true,low,false
VrNfzoCS,372ages0j7iqu68t52ou18jnn9hxrx,38f71oa9gx9kko2ar2rtymlxzhqmfm,VrNfzoCS,2020-0188,2020-05-22,04:43:17,05:04:04,NA,incomplete,57,filling,0,right,Green_Star_Dots_4.jpg,Green_Circle_Grid_1.jpg,Blue_Triangle_Dots_3.jpg,right,1625.9500000160187,true,low,false
VrNfzoCS,372ages0j7iqu68t52ou18jnn9hxrx,38f71oa9gx9kko2ar2rtymlxzhqmfm,VrNfzoCS,2020-0188,2020-05-22,04:43:17,05:04:04,NA,incomplete,58,filling,1,left,Green_Plus_Stripes_2.jpg,Blue_Star_Stripes_4.jpg,Green_Triangle_Chess_3.jpg,right,492.0200000051409,false,low,false
VrNfzoCS,372ages0j7iqu68t52ou18jnn9hxrx,38f71oa9gx9kko2ar2rtymlxzhqmfm,VrNfzoCS,2020-0188,2020-05-22,04:43:17,05:04:04,NA,incomplete,59,filling,1,right,Blue_Star_Dots_2.jpg,Blue_Circle_Chess_4.jpg,Red_Plus_Dots_3.jpg,left,524.0950000006706,false,low,false
VrNfzoCS,372ages0j7iqu68t52ou18jnn9hxrx,38f71oa9gx9kko2ar2rtymlxzhqmfm,VrNfzoCS,2020-0188,2020-05-22,04:43:17,05:04:04,NA,incomplete,60,color,1,left,Purple_Circle_Chess_3.jpg,Purple_Triangle_Grid_1.jpg,Blue_Plus_Chess_4.jpg,right,1091.9299999950454,false,low,false
VrNfzoCS,372ages0j7iqu68t52ou18jnn9hxrx,38f71oa9gx9kko2ar2rtymlxzhqmfm,VrNfzoCS,2020-0188,2020-05-22,04:43:17,05:04:04,NA,incomplete,61,color,1,left,Blue_Plus_Chess_2.jpg,Blue_Circle_Stripes_1.jpg,Green_Triangle_Chess_3.jpg,right,1005.5849999189377,false,low,false
VrNfzoCS,372ages0j7iqu68t52ou18jnn9hxrx,38f71oa9gx9kko2ar2rtymlxzhqmfm,VrNfzoCS,2020-0188,2020-05-22,04:43:17,05:04:04,NA,incomplete,62,color,1,left,Blue_Star_Stripes_2.jpg,Blue_Plus_Dots_3.jpg,Green_Triangle_Stripes_1.jpg,left,625.9550000540912,true,low,false
VrNfzoCS,372ages0j7iqu68t52ou18jnn9hxrx,38f71oa9gx9kko2ar2rtymlxzhqmfm,VrNfzoCS,2020-0188,2020-05-22,04:43:17,05:04:04,NA,incomplete,63,color,1,left,Purple_Star_Dots_1.jpg,Purple_Triangle_Stripes_2.jpg,Red_Plus_Dots_4.jpg,left,756.4250000286847,true,low,false
VrNfzoCS,372ages0j7iqu68t52ou18jnn9hxrx,38f71oa9gx9kko2ar2rtymlxzhqmfm,VrNfzoCS,2020-0188,2020-05-22,04:43:17,05:04:04,NA,incomplete,64,color,1,left,Red_Star_Grid_2.jpg,Red_Circle_Dots_1.jpg,Purple_Plus_Grid_3.jpg,left,882.0200000191107,true,low,false
VrNfzoCS,372ages0j7iqu68t52ou18jnn9hxrx,38f71oa9gx9kko2ar2rtymlxzhqmfm,VrNfzoCS,2020-0188,2020-05-22,04:43:17,05:04:04,NA,incomplete,65,color,1,left,Green_Star_Chess_1.jpg,Green_Circle_Dots_3.jpg,Purple_Triangle_Chess_2.jpg,left,499.85499994363636,true,low,false
VrNfzoCS,372ages0j7iqu68t52ou18jnn9hxrx,38f71oa9gx9kko2ar2rtymlxzhqmfm,VrNfzoCS,2020-0188,2020-05-22,04:43:17,05:04:04,NA,incomplete,66,color,1,left,Purple_Star_Stripes_2.jpg,Purple_Plus_Chess_3.jpg,Blue_Triangle_Stripes_4.jpg,left,716.5550000499934,true,low,false
VrNfzoCS,372ages0j7iqu68t52ou18jnn9hxrx,38f71oa9gx9kko2ar2rtymlxzhqmfm,VrNfzoCS,2020-0188,2020-05-22,04:43:17,05:04:04,NA,incomplete,67,color,1,right,Green_Triangle_Dots_4.jpg,Red_Star_Dots_3.jpg,Green_Plus_Stripes_2.jpg,right,525.5200000246987,true,low,false
VrNfzoCS,372ages0j7iqu68t52ou18jnn9hxrx,38f71oa9gx9kko2ar2rtymlxzhqmfm,VrNfzoCS,2020-0188,2020-05-22,04:43:17,05:04:04,NA,incomplete,68,color,0,right,Red_Star_Chess_4.jpg,Purple_Circle_Chess_1.jpg,Red_Triangle_Grid_3.jpg,right,579.1549999266863,true,low,false
VrNfzoCS,372ages0j7iqu68t52ou18jnn9hxrx,38f71oa9gx9kko2ar2rtymlxzhqmfm,VrNfzoCS,2020-0188,2020-05-22,04:43:17,05:04:04,NA,incomplete,69,color,1,right,Green_Plus_Stripes_2.jpg,Blue_Star_Stripes_4.jpg,Green_Circle_Chess_1.jpg,right,624.5049999561161,true,low,false
VrNfzoCS,372ages0j7iqu68t52ou18jnn9hxrx,38f71oa9gx9kko2ar2rtymlxzhqmfm,VrNfzoCS,2020-0188,2020-05-22,04:43:17,05:04:04,NA,incomplete,70,color,0,left,Red_Plus_Chess_4.jpg,Red_Star_Dots_1.jpg,Blue_Triangle_Chess_2.jpg,left,635.8349999645725,true,low,false
VrNfzoCS,372ages0j7iqu68t52ou18jnn9hxrx,38f71oa9gx9kko2ar2rtymlxzhqmfm,VrNfzoCS,2020-0188,2020-05-22,04:43:17,05:04:04,NA,incomplete,71,color,1,right,Blue_Plus_Chess_4.jpg,Purple_Triangle_Chess_3.jpg,Blue_Circle_Grid_2.jpg,left,1160.0349999498576,false,low,false
VrNfzoCS,372ages0j7iqu68t52ou18jnn9hxrx,38f71oa9gx9kko2ar2rtymlxzhqmfm,VrNfzoCS,2020-0188,2020-05-22,04:43:17,05:04:04,NA,incomplete,72,color,0,left,Red_Circle_Dots_4.jpg,Red_Star_Grid_1.jpg,Blue_Triangle_Dots_3.jpg,left,629.7900000354275,true,low,false
VrNfzoCS,372ages0j7iqu68t52ou18jnn9hxrx,38f71oa9gx9kko2ar2rtymlxzhqmfm,VrNfzoCS,2020-0188,2020-05-22,04:43:17,05:04:04,NA,incomplete,73,color,1,left,Purple_Circle_Grid_3.jpg,Purple_Star_Stripes_1.jpg,Red_Triangle_Grid_2.jpg,left,783.5350000532344,true,low,false
VrNfzoCS,372ages0j7iqu68t52ou18jnn9hxrx,38f71oa9gx9kko2ar2rtymlxzhqmfm,VrNfzoCS,2020-0188,2020-05-22,04:43:17,05:04:04,NA,incomplete,74,color,1,left,Red_Circle_Stripes_1.jpg,Red_Star_Dots_3.jpg,Purple_Triangle_Stripes_4.jpg,left,588.1550000049174,true,low,false
VrNfzoCS,372ages0j7iqu68t52ou18jnn9hxrx,38f71oa9gx9kko2ar2rtymlxzhqmfm,VrNfzoCS,2020-0188,2020-05-22,04:43:17,05:04:04,NA,incomplete,75,color,1,left,Red_Circle_Stripes_1.jpg,Red_Star_Grid_4.jpg,Blue_Plus_Stripes_2.jpg,left,729.7649999381974,true,low,false
VrNfzoCS,372ages0j7iqu68t52ou18jnn9hxrx,38f71oa9gx9kko2ar2rtymlxzhqmfm,VrNfzoCS,2020-0188,2020-05-22,04:43:17,05:04:04,NA,incomplete,76,color,1,left,Red_Star_Stripes_4.jpg,Red_Triangle_Chess_2.jpg,Green_Circle_Stripes_3.jpg,left,657.0449999999255,true,low,false
VrNfzoCS,372ages0j7iqu68t52ou18jnn9hxrx,38f71oa9gx9kko2ar2rtymlxzhqmfm,VrNfzoCS,2020-0188,2020-05-22,04:43:17,05:04:04,NA,incomplete,77,color,1,right,Purple_Triangle_Chess_3.jpg,Red_Circle_Chess_4.jpg,Purple_Plus_Grid_1.jpg,left,1267.714999965392,false,low,false
VrNfzoCS,372ages0j7iqu68t52ou18jnn9hxrx,38f71oa9gx9kko2ar2rtymlxzhqmfm,VrNfzoCS,2020-0188,2020-05-22,04:43:17,05:04:04,NA,incomplete,78,color,0,right,Blue_Triangle_Chess_3.jpg,Red_Circle_Chess_1.jpg,Blue_Plus_Grid_2.jpg,right,580.3699999814853,true,low,false
VrNfzoCS,372ages0j7iqu68t52ou18jnn9hxrx,38f71oa9gx9kko2ar2rtymlxzhqmfm,VrNfzoCS,2020-0188,2020-05-22,04:43:17,05:04:04,NA,incomplete,79,color,1,right,Green_Plus_Grid_2.jpg,Purple_Triangle_Grid_4.jpg,Green_Star_Chess_1.jpg,right,513.7099999701604,true,low,false
VrNfzoCS,372ages0j7iqu68t52ou18jnn9hxrx,38f71oa9gx9kko2ar2rtymlxzhqmfm,VrNfzoCS,2020-0188,2020-05-22,04:43:17,05:04:04,NA,incomplete,80,color,1,left,Red_Star_Chess_1.jpg,Red_Circle_Stripes_2.jpg,Green_Plus_Chess_4.jpg,left,633.75499995891,true,low,false
VrNfzoCS,372ages0j7iqu68t52ou18jnn9hxrx,38f71oa9gx9kko2ar2rtymlxzhqmfm,VrNfzoCS,2020-0188,2020-05-22,04:43:17,05:04:04,NA,incomplete,81,color,0,right,Red_Circle_Stripes_2.jpg,Purple_Star_Stripes_3.jpg,Red_Triangle_Dots_4.jpg,right,540.6649999786168,true,low,false
VrNfzoCS,372ages0j7iqu68t52ou18jnn9hxrx,38f71oa9gx9kko2ar2rtymlxzhqmfm,VrNfzoCS,2020-0188,2020-05-22,04:43:17,05:04:04,NA,incomplete,82,color,1,right,Purple_Circle_Stripes_3.jpg,Blue_Plus_Stripes_2.jpg,Purple_Star_Chess_1.jpg,right,604.505000053905,true,low,false
VrNfzoCS,372ages0j7iqu68t52ou18jnn9hxrx,38f71oa9gx9kko2ar2rtymlxzhqmfm,VrNfzoCS,2020-0188,2020-05-22,04:43:17,05:04:04,NA,incomplete,83,color,1,right,Blue_Triangle_Stripes_1.jpg,Red_Circle_Stripes_3.jpg,Blue_Plus_Dots_4.jpg,right,608.0850000726059,true,low,false
VrNfzoCS,372ages0j7iqu68t52ou18jnn9hxrx,38f71oa9gx9kko2ar2rtymlxzhqmfm,VrNfzoCS,2020-0188,2020-05-22,04:43:17,05:04:04,NA,incomplete,84,color,0,right,Red_Star_Stripes_4.jpg,Purple_Circle_Stripes_3.jpg,Red_Plus_Grid_1.jpg,right,708.0549999373034,true,low,false
VrNfzoCS,372ages0j7iqu68t52ou18jnn9hxrx,38f71oa9gx9kko2ar2rtymlxzhqmfm,VrNfzoCS,2020-0188,2020-05-22,04:43:17,05:04:04,NA,incomplete,85,color,1,left,Purple_Plus_Chess_3.jpg,Purple_Triangle_Stripes_2.jpg,Blue_Circle_Chess_1.jpg,left,540.0950000621378,true,low,false
VrNfzoCS,372ages0j7iqu68t52ou18jnn9hxrx,38f71oa9gx9kko2ar2rtymlxzhqmfm,VrNfzoCS,2020-0188,2020-05-22,04:43:17,05:04:04,NA,incomplete,86,color,0,left,Purple_Plus_Dots_4.jpg,Purple_Star_Chess_1.jpg,Red_Triangle_Dots_3.jpg,left,690.1099999668077,true,low,false
VrNfzoCS,372ages0j7iqu68t52ou18jnn9hxrx,38f71oa9gx9kko2ar2rtymlxzhqmfm,VrNfzoCS,2020-0188,2020-05-22,04:43:17,05:04:04,NA,incomplete,87,color,1,left,Purple_Circle_Dots_1.jpg,Purple_Plus_Chess_4.jpg,Blue_Star_Dots_2.jpg,left,667.090000002645,true,low,false
VrNfzoCS,372ages0j7iqu68t52ou18jnn9hxrx,38f71oa9gx9kko2ar2rtymlxzhqmfm,VrNfzoCS,2020-0188,2020-05-22,04:43:17,05:04:04,NA,incomplete,88,color,1,right,Red_Triangle_Chess_2.jpg,Green_Circle_Chess_3.jpg,Red_Star_Grid_4.jpg,right,1220.6749999895692,true,low,false
VrNfzoCS,372ages0j7iqu68t52ou18jnn9hxrx,38f71oa9gx9kko2ar2rtymlxzhqmfm,VrNfzoCS,2020-0188,2020-05-22,04:43:17,05:04:04,NA,incomplete,89,color,1,right,Purple_Triangle_Stripes_1.jpg,Red_Star_Stripes_4.jpg,Purple_Plus_Grid_3.jpg,right,1167.7650000201538,true,low,false
VrNfzoCS,372ages0j7iqu68t52ou18jnn9hxrx,38f71oa9gx9kko2ar2rtymlxzhqmfm,VrNfzoCS,2020-0188,2020-05-22,04:43:17,05:04:04,NA,incomplete,90,filling,1,left,Purple_Circle_Chess_1.jpg,Red_Star_Chess_2.jpg,Purple_Triangle_Stripes_4.jpg,right,1125.08499994874,false,low,false
VrNfzoCS,372ages0j7iqu68t52ou18jnn9hxrx,38f71oa9gx9kko2ar2rtymlxzhqmfm,VrNfzoCS,2020-0188,2020-05-22,04:43:17,05:04:04,NA,incomplete,91,filling,1,left,Red_Star_Chess_1.jpg,Purple_Triangle_Chess_3.jpg,Red_Plus_Stripes_4.jpg,left,1149.3699999991804,true,low,false
VrNfzoCS,372ages0j7iqu68t52ou18jnn9hxrx,38f71oa9gx9kko2ar2rtymlxzhqmfm,VrNfzoCS,2020-0188,2020-05-22,04:43:17,05:04:04,NA,incomplete,92,filling,1,right,Purple_Star_Stripes_1.jpg,Purple_Circle_Dots_3.jpg,Red_Triangle_Stripes_4.jpg,right,1051.5150000574067,true,low,false
VrNfzoCS,372ages0j7iqu68t52ou18jnn9hxrx,38f71oa9gx9kko2ar2rtymlxzhqmfm,VrNfzoCS,2020-0188,2020-05-22,04:43:17,05:04:04,NA,incomplete,93,filling,0,right,Blue_Star_Grid_2.jpg,Blue_Plus_Chess_1.jpg,Green_Triangle_Grid_4.jpg,right,1004.3049999512732,true,low,false
VrNfzoCS,372ages0j7iqu68t52ou18jnn9hxrx,38f71oa9gx9kko2ar2rtymlxzhqmfm,VrNfzoCS,2020-0188,2020-05-22,04:43:17,05:04:04,NA,incomplete,94,filling,0,left,Purple_Triangle_Dots_1.jpg,Red_Star_Dots_4.jpg,Purple_Circle_Stripes_3.jpg,left,1656.1350000556558,true,low,false
VrNfzoCS,372ages0j7iqu68t52ou18jnn9hxrx,38f71oa9gx9kko2ar2rtymlxzhqmfm,VrNfzoCS,2020-0188,2020-05-22,04:43:17,05:04:04,NA,incomplete,95,filling,1,left,Purple_Plus_Chess_2.jpg,Green_Triangle_Chess_3.jpg,Purple_Circle_Stripes_1.jpg,right,675.8200000040233,false,low,false
VrNfzoCS,372ages0j7iqu68t52ou18jnn9hxrx,38f71oa9gx9kko2ar2rtymlxzhqmfm,VrNfzoCS,2020-0188,2020-05-22,04:43:17,05:04:04,NA,incomplete,96,filling,1,right,Blue_Triangle_Chess_4.jpg,Blue_Plus_Stripes_3.jpg,Purple_Circle_Chess_2.jpg,left,508.5249999538064,false,low,false
VrNfzoCS,372ages0j7iqu68t52ou18jnn9hxrx,38f71oa9gx9kko2ar2rtymlxzhqmfm,VrNfzoCS,2020-0188,2020-05-22,04:43:17,05:04:04,NA,incomplete,97,filling,1,right,Red_Plus_Chess_1.jpg,Red_Circle_Stripes_2.jpg,Green_Star_Chess_3.jpg,right,1108.4099999861792,true,low,false
VrNfzoCS,372ages0j7iqu68t52ou18jnn9hxrx,38f71oa9gx9kko2ar2rtymlxzhqmfm,VrNfzoCS,2020-0188,2020-05-22,04:43:17,05:04:04,NA,incomplete,98,filling,1,right,Purple_Plus_Stripes_1.jpg,Purple_Star_Grid_3.jpg,Blue_Circle_Stripes_2.jpg,right,1355.9249999234453,true,low,false
VrNfzoCS,372ages0j7iqu68t52ou18jnn9hxrx,38f71oa9gx9kko2ar2rtymlxzhqmfm,VrNfzoCS,2020-0188,2020-05-22,04:43:17,05:04:04,NA,incomplete,99,filling,1,right,Purple_Plus_Dots_1.jpg,Purple_Triangle_Stripes_3.jpg,Green_Star_Dots_2.jpg,right,1025.8250000188127,true,low,false
VrNfzoCS,372ages0j7iqu68t52ou18jnn9hxrx,38f71oa9gx9kko2ar2rtymlxzhqmfm,VrNfzoCS,2020-0188,2020-05-22,04:43:17,05:04:04,NA,incomplete,100,filling,0,left,Red_Star_Dots_3.jpg,Purple_Plus_Dots_4.jpg,Red_Circle_Chess_1.jpg,left,1399.0650000050664,true,low,false
VrNfzoCS,372ages0j7iqu68t52ou18jnn9hxrx,38f71oa9gx9kko2ar2rtymlxzhqmfm,VrNfzoCS,2020-0188,2020-05-22,04:43:17,05:04:04,NA,incomplete,101,filling,1,right,Red_Circle_Grid_1.jpg,Red_Plus_Stripes_4.jpg,Purple_Triangle_Grid_3.jpg,right,1193.4549999423325,true,low,false
VrNfzoCS,372ages0j7iqu68t52ou18jnn9hxrx,38f71oa9gx9kko2ar2rtymlxzhqmfm,VrNfzoCS,2020-0188,2020-05-22,04:43:17,05:04:04,NA,incomplete,102,filling,1,right,Blue_Plus_Grid_3.jpg,Blue_Star_Stripes_2.jpg,Red_Circle_Grid_4.jpg,right,919.2999999504536,true,low,false
VrNfzoCS,372ages0j7iqu68t52ou18jnn9hxrx,38f71oa9gx9kko2ar2rtymlxzhqmfm,VrNfzoCS,2020-0188,2020-05-22,04:43:17,05:04:04,NA,incomplete,103,filling,1,right,Blue_Plus_Chess_3.jpg,Blue_Triangle_Stripes_1.jpg,Green_Circle_Chess_2.jpg,right,1230.6350000435486,true,low,false
VrNfzoCS,372ages0j7iqu68t52ou18jnn9hxrx,38f71oa9gx9kko2ar2rtymlxzhqmfm,VrNfzoCS,2020-0188,2020-05-22,04:43:17,05:04:04,NA,incomplete,104,filling,0,right,Blue_Circle_Grid_3.jpg,Blue_Plus_Stripes_4.jpg,Green_Triangle_Grid_1.jpg,right,1290.709999972023,true,low,false
VrNfzoCS,372ages0j7iqu68t52ou18jnn9hxrx,38f71oa9gx9kko2ar2rtymlxzhqmfm,VrNfzoCS,2020-0188,2020-05-22,04:43:17,05:04:04,NA,incomplete,105,filling,1,right,Red_Plus_Grid_1.jpg,Red_Triangle_Dots_4.jpg,Blue_Circle_Grid_3.jpg,right,1098.0849999468774,true,low,false
VrNfzoCS,372ages0j7iqu68t52ou18jnn9hxrx,38f71oa9gx9kko2ar2rtymlxzhqmfm,VrNfzoCS,2020-0188,2020-05-22,04:43:17,05:04:04,NA,incomplete,106,filling,1,right,Blue_Star_Grid_4.jpg,Blue_Plus_Chess_2.jpg,Red_Triangle_Grid_1.jpg,right,1483.9949999004602,true,low,false
VrNfzoCS,372ages0j7iqu68t52ou18jnn9hxrx,38f71oa9gx9kko2ar2rtymlxzhqmfm,VrNfzoCS,2020-0188,2020-05-22,04:43:17,05:04:04,NA,incomplete,107,filling,1,right,Blue_Triangle_Grid_1.jpg,Blue_Plus_Stripes_3.jpg,Red_Star_Grid_4.jpg,right,1220.314999925904,true,low,false
VrNfzoCS,372ages0j7iqu68t52ou18jnn9hxrx,38f71oa9gx9kko2ar2rtymlxzhqmfm,VrNfzoCS,2020-0188,2020-05-22,04:43:17,05:04:04,NA,incomplete,108,filling,1,right,Red_Circle_Chess_2.jpg,Red_Star_Grid_3.jpg,Blue_Plus_Chess_1.jpg,right,1096.6649999609217,true,low,false
VrNfzoCS,372ages0j7iqu68t52ou18jnn9hxrx,38f71oa9gx9kko2ar2rtymlxzhqmfm,VrNfzoCS,2020-0188,2020-05-22,04:43:17,05:04:04,NA,incomplete,109,filling,1,left,Blue_Plus_Grid_3.jpg,Green_Star_Grid_2.jpg,Blue_Triangle_Chess_4.jpg,left,1488.5850000428036,true,low,false
VrNfzoCS,372ages0j7iqu68t52ou18jnn9hxrx,38f71oa9gx9kko2ar2rtymlxzhqmfm,VrNfzoCS,2020-0188,2020-05-22,04:43:17,05:04:04,NA,incomplete,110,filling,1,left,Purple_Triangle_Stripes_2.jpg,Green_Star_Stripes_3.jpg,Purple_Circle_Grid_4.jpg,left,1385.4049999499694,true,low,false
VrNfzoCS,372ages0j7iqu68t52ou18jnn9hxrx,38f71oa9gx9kko2ar2rtymlxzhqmfm,VrNfzoCS,2020-0188,2020-05-22,04:43:17,05:04:04,NA,incomplete,111,filling,1,right,Red_Circle_Stripes_1.jpg,Red_Star_Dots_3.jpg,Blue_Triangle_Stripes_2.jpg,right,1084.8649999825284,true,low,false
VrNfzoCS,372ages0j7iqu68t52ou18jnn9hxrx,38f71oa9gx9kko2ar2rtymlxzhqmfm,VrNfzoCS,2020-0188,2020-05-22,04:43:17,05:04:04,NA,incomplete,112,filling,1,right,Purple_Circle_Stripes_4.jpg,Purple_Triangle_Dots_3.jpg,Red_Plus_Stripes_1.jpg,right,1222.1150000113994,true,low,false
VrNfzoCS,372ages0j7iqu68t52ou18jnn9hxrx,38f71oa9gx9kko2ar2rtymlxzhqmfm,VrNfzoCS,2020-0188,2020-05-22,04:43:17,05:04:04,NA,incomplete,113,filling,1,left,Green_Plus_Stripes_3.jpg,Blue_Triangle_Stripes_2.jpg,Green_Star_Grid_1.jpg,left,1546.0500000044703,true,low,false
VrNfzoCS,372ages0j7iqu68t52ou18jnn9hxrx,38f71oa9gx9kko2ar2rtymlxzhqmfm,VrNfzoCS,2020-0188,2020-05-22,04:43:17,05:04:04,NA,incomplete,114,filling,1,right,Purple_Circle_Dots_1.jpg,Purple_Triangle_Chess_4.jpg,Blue_Star_Dots_3.jpg,right,1391.7349999537691,true,low,false
VrNfzoCS,372ages0j7iqu68t52ou18jnn9hxrx,38f71oa9gx9kko2ar2rtymlxzhqmfm,VrNfzoCS,2020-0188,2020-05-22,04:43:17,05:04:04,NA,incomplete,115,filling,1,right,Blue_Triangle_Chess_4.jpg,Blue_Plus_Grid_2.jpg,Purple_Circle_Chess_3.jpg,right,1316.7949999915436,true,low,false
VrNfzoCS,372ages0j7iqu68t52ou18jnn9hxrx,38f71oa9gx9kko2ar2rtymlxzhqmfm,VrNfzoCS,2020-0188,2020-05-22,04:43:17,05:04:04,NA,incomplete,116,filling,1,right,Red_Star_Stripes_4.jpg,Red_Triangle_Grid_3.jpg,Blue_Circle_Stripes_1.jpg,right,1589.7450000047684,true,low,false
VrNfzoCS,372ages0j7iqu68t52ou18jnn9hxrx,38f71oa9gx9kko2ar2rtymlxzhqmfm,VrNfzoCS,2020-0188,2020-05-22,04:43:17,05:04:04,NA,incomplete,117,filling,0,left,Purple_Star_Stripes_2.jpg,Green_Plus_Stripes_3.jpg,Purple_Circle_Chess_4.jpg,left,1138.0900000222027,true,low,false
VrNfzoCS,372ages0j7iqu68t52ou18jnn9hxrx,38f71oa9gx9kko2ar2rtymlxzhqmfm,VrNfzoCS,2020-0188,2020-05-22,04:43:17,05:04:04,NA,incomplete,118,filling,1,right,Purple_Star_Dots_4.jpg,Purple_Triangle_Chess_2.jpg,Red_Circle_Dots_1.jpg,left,568.28000000678,false,low,false
VrNfzoCS,372ages0j7iqu68t52ou18jnn9hxrx,38f71oa9gx9kko2ar2rtymlxzhqmfm,VrNfzoCS,2020-0188,2020-05-22,04:43:17,05:04:04,NA,incomplete,119,filling,1,left,Green_Circle_Chess_3.jpg,Blue_Triangle_Chess_4.jpg,Green_Star_Stripes_1.jpg,left,966.5250000543892,true,low,false
VrNfzoCS,372ages0j7iqu68t52ou18jnn9hxrx,38f71oa9gx9kko2ar2rtymlxzhqmfm,VrNfzoCS,2020-0188,2020-05-22,04:43:17,05:04:04,NA,incomplete,120,shape,1,right,Green_Triangle_Dots_4.jpg,Purple_Circle_Chess_4.jpg,Blue_Triangle_Grid_3.jpg,NA,NA,NA,low,false
VrNfzoCS,372ages0j7iqu68t52ou18jnn9hxrx,38f71oa9gx9kko2ar2rtymlxzhqmfm,VrNfzoCS,2020-0188,2020-05-22,04:43:17,05:04:04,NA,incomplete,121,shape,1,left,Green_Circle_Dots_1.jpg,Red_Circle_Chess_3.jpg,Blue_Plus_Grid_1.jpg,left,1171.6599999926984,true,low,false
VrNfzoCS,372ages0j7iqu68t52ou18jnn9hxrx,38f71oa9gx9kko2ar2rtymlxzhqmfm,VrNfzoCS,2020-0188,2020-05-22,04:43:17,05:04:04,NA,incomplete,122,shape,1,right,Green_Plus_Grid_4.jpg,Red_Triangle_Dots_4.jpg,Blue_Plus_Chess_2.jpg,left,913.7099999934435,false,low,false
VrNfzoCS,372ages0j7iqu68t52ou18jnn9hxrx,38f71oa9gx9kko2ar2rtymlxzhqmfm,VrNfzoCS,2020-0188,2020-05-22,04:43:17,05:04:04,NA,incomplete,123,shape,1,left,Red_Triangle_Dots_3.jpg,Purple_Triangle_Grid_4.jpg,Blue_Star_Stripes_3.jpg,left,801.3100000098348,true,low,false
VrNfzoCS,372ages0j7iqu68t52ou18jnn9hxrx,38f71oa9gx9kko2ar2rtymlxzhqmfm,VrNfzoCS,2020-0188,2020-05-22,04:43:17,05:04:04,NA,incomplete,124,shape,1,right,Green_Plus_Dots_1.jpg,Blue_Triangle_Chess_1.jpg,Red_Plus_Stripes_4.jpg,right,789.5749999443069,true,low,false
VrNfzoCS,372ages0j7iqu68t52ou18jnn9hxrx,38f71oa9gx9kko2ar2rtymlxzhqmfm,VrNfzoCS,2020-0188,2020-05-22,04:43:17,05:04:04,NA,incomplete,125,shape,1,right,Red_Triangle_Chess_4.jpg,Green_Star_Grid_4.jpg,Purple_Triangle_Dots_2.jpg,right,1025.2150000305846,true,low,false
VrNfzoCS,372ages0j7iqu68t52ou18jnn9hxrx,38f71oa9gx9kko2ar2rtymlxzhqmfm,VrNfzoCS,2020-0188,2020-05-22,04:43:17,05:04:04,NA,incomplete,126,shape,0,right,Red_Plus_Dots_4.jpg,Green_Triangle_Stripes_4.jpg,Blue_Plus_Grid_1.jpg,right,1189.1099999193102,true,low,false
VrNfzoCS,372ages0j7iqu68t52ou18jnn9hxrx,38f71oa9gx9kko2ar2rtymlxzhqmfm,VrNfzoCS,2020-0188,2020-05-22,04:43:17,05:04:04,NA,incomplete,127,shape,1,left,Blue_Triangle_Stripes_3.jpg,Purple_Triangle_Grid_4.jpg,Red_Star_Dots_3.jpg,left,802.2750000236556,true,low,false
VrNfzoCS,372ages0j7iqu68t52ou18jnn9hxrx,38f71oa9gx9kko2ar2rtymlxzhqmfm,VrNfzoCS,2020-0188,2020-05-22,04:43:17,05:04:04,NA,incomplete,128,shape,0,right,Red_Plus_Chess_4.jpg,Blue_Triangle_Stripes_4.jpg,Green_Plus_Dots_1.jpg,right,910.0199999520555,true,low,false
VrNfzoCS,372ages0j7iqu68t52ou18jnn9hxrx,38f71oa9gx9kko2ar2rtymlxzhqmfm,VrNfzoCS,2020-0188,2020-05-22,04:43:17,05:04:04,NA,incomplete,129,shape,1,right,Blue_Circle_Chess_1.jpg,Green_Triangle_Dots_1.jpg,Red_Circle_Grid_3.jpg,right,1006.495000096038,true,low,false
VrNfzoCS,372ages0j7iqu68t52ou18jnn9hxrx,38f71oa9gx9kko2ar2rtymlxzhqmfm,VrNfzoCS,2020-0188,2020-05-22,04:43:17,05:04:04,NA,incomplete,130,shape,1,left,Purple_Triangle_Grid_3.jpg,Green_Triangle_Chess_4.jpg,Red_Plus_Dots_3.jpg,left,945.3650000505149,true,low,false
VrNfzoCS,372ages0j7iqu68t52ou18jnn9hxrx,38f71oa9gx9kko2ar2rtymlxzhqmfm,VrNfzoCS,2020-0188,2020-05-22,04:43:17,05:04:04,NA,incomplete,131,shape,1,right,Purple_Star_Dots_4.jpg,Green_Triangle_Grid_4.jpg,Red_Star_Chess_1.jpg,right,872.2700000507757,true,low,false
VrNfzoCS,372ages0j7iqu68t52ou18jnn9hxrx,38f71oa9gx9kko2ar2rtymlxzhqmfm,VrNfzoCS,2020-0188,2020-05-22,04:43:17,05:04:04,NA,incomplete,132,shape,1,left,Red_Star_Stripes_1.jpg,Blue_Star_Dots_4.jpg,Green_Plus_Grid_1.jpg,left,938.5800000745803,true,low,false
VrNfzoCS,372ages0j7iqu68t52ou18jnn9hxrx,38f71oa9gx9kko2ar2rtymlxzhqmfm,VrNfzoCS,2020-0188,2020-05-22,04:43:17,05:04:04,NA,incomplete,133,shape,0,left,Green_Plus_Dots_1.jpg,Purple_Plus_Chess_4.jpg,Red_Star_Stripes_1.jpg,left,959.5299999928102,true,low,false
VrNfzoCS,372ages0j7iqu68t52ou18jnn9hxrx,38f71oa9gx9kko2ar2rtymlxzhqmfm,VrNfzoCS,2020-0188,2020-05-22,04:43:17,05:04:04,NA,incomplete,134,shape,1,right,Red_Circle_Chess_1.jpg,Blue_Triangle_Dots_1.jpg,Green_Circle_Stripes_3.jpg,right,663.1700000725687,true,low,false
VrNfzoCS,372ages0j7iqu68t52ou18jnn9hxrx,38f71oa9gx9kko2ar2rtymlxzhqmfm,VrNfzoCS,2020-0188,2020-05-22,04:43:17,05:04:04,NA,incomplete,135,shape,0,right,Green_Triangle_Chess_1.jpg,Blue_Plus_Grid_1.jpg,Red_Triangle_Dots_3.jpg,right,736.0999999800697,true,low,false
VrNfzoCS,372ages0j7iqu68t52ou18jnn9hxrx,38f71oa9gx9kko2ar2rtymlxzhqmfm,VrNfzoCS,2020-0188,2020-05-22,04:43:17,05:04:04,NA,incomplete,136,shape,1,left,Purple_Triangle_Grid_4.jpg,Red_Triangle_Dots_2.jpg,Blue_Plus_Stripes_4.jpg,right,783.0900000408292,false,low,false
VrNfzoCS,372ages0j7iqu68t52ou18jnn9hxrx,38f71oa9gx9kko2ar2rtymlxzhqmfm,VrNfzoCS,2020-0188,2020-05-22,04:43:17,05:04:04,NA,incomplete,137,shape,1,right,Blue_Triangle_Dots_2.jpg,Red_Plus_Stripes_2.jpg,Green_Triangle_Grid_4.jpg,right,828.6549999611452,true,low,false
VrNfzoCS,372ages0j7iqu68t52ou18jnn9hxrx,38f71oa9gx9kko2ar2rtymlxzhqmfm,VrNfzoCS,2020-0188,2020-05-22,04:43:17,05:04:04,NA,incomplete,138,shape,0,left,Green_Plus_Stripes_2.jpg,Red_Plus_Dots_3.jpg,Purple_Triangle_Grid_2.jpg,left,888.5950000258163,true,low,false
VrNfzoCS,372ages0j7iqu68t52ou18jnn9hxrx,38f71oa9gx9kko2ar2rtymlxzhqmfm,VrNfzoCS,2020-0188,2020-05-22,04:43:17,05:04:04,NA,incomplete,139,shape,1,right,Green_Circle_Dots_2.jpg,Blue_Triangle_Chess_2.jpg,Purple_Circle_Stripes_1.jpg,left,809.3399999197572,false,low,false
VrNfzoCS,372ages0j7iqu68t52ou18jnn9hxrx,38f71oa9gx9kko2ar2rtymlxzhqmfm,VrNfzoCS,2020-0188,2020-05-22,04:43:17,05:04:04,NA,incomplete,140,number,1,right,Red_Triangle_Dots_4.jpg,Purple_Triangle_Grid_1.jpg,Blue_Star_Stripes_4.jpg,left,676.644999999553,false,low,false
VrNfzoCS,372ages0j7iqu68t52ou18jnn9hxrx,38f71oa9gx9kko2ar2rtymlxzhqmfm,VrNfzoCS,2020-0188,2020-05-22,04:43:17,05:04:04,NA,incomplete,141,number,1,left,Green_Star_Dots_1.jpg,Purple_Triangle_Stripes_1.jpg,Blue_Star_Chess_4.jpg,left,854.1249999543652,true,low,false
VrNfzoCS,372ages0j7iqu68t52ou18jnn9hxrx,38f71oa9gx9kko2ar2rtymlxzhqmfm,VrNfzoCS,2020-0188,2020-05-22,04:43:17,05:04:04,NA,incomplete,142,number,0,right,Green_Triangle_Grid_3.jpg,Purple_Triangle_Stripes_1.jpg,Red_Star_Chess_3.jpg,right,743.2549999793991,true,low,false
VrNfzoCS,372ages0j7iqu68t52ou18jnn9hxrx,38f71oa9gx9kko2ar2rtymlxzhqmfm,VrNfzoCS,2020-0188,2020-05-22,04:43:17,05:04:04,NA,incomplete,143,number,1,left,Green_Star_Dots_3.jpg,Purple_Plus_Stripes_3.jpg,Blue_Star_Grid_4.jpg,left,942.6100000273436,true,low,false
VrNfzoCS,372ages0j7iqu68t52ou18jnn9hxrx,38f71oa9gx9kko2ar2rtymlxzhqmfm,VrNfzoCS,2020-0188,2020-05-22,04:43:17,05:04:04,NA,incomplete,144,number,1,right,Blue_Triangle_Grid_4.jpg,Green_Triangle_Stripes_1.jpg,Red_Circle_Chess_4.jpg,right,805.860000080429,true,low,false
VrNfzoCS,372ages0j7iqu68t52ou18jnn9hxrx,38f71oa9gx9kko2ar2rtymlxzhqmfm,VrNfzoCS,2020-0188,2020-05-22,04:43:17,05:04:04,NA,incomplete,145,number,1,left,Red_Plus_Dots_2.jpg,Purple_Circle_Grid_2.jpg,Blue_Plus_Stripes_1.jpg,left,841.6449999203905,true,low,false
VrNfzoCS,372ages0j7iqu68t52ou18jnn9hxrx,38f71oa9gx9kko2ar2rtymlxzhqmfm,VrNfzoCS,2020-0188,2020-05-22,04:43:17,05:04:04,NA,incomplete,146,number,1,left,Red_Star_Chess_3.jpg,Green_Circle_Grid_3.jpg,Purple_Star_Dots_2.jpg,left,884.5349999610335,true,low,false
VrNfzoCS,372ages0j7iqu68t52ou18jnn9hxrx,38f71oa9gx9kko2ar2rtymlxzhqmfm,VrNfzoCS,2020-0188,2020-05-22,04:43:17,05:04:04,NA,incomplete,147,number,1,left,Blue_Plus_Grid_3.jpg,Purple_Circle_Dots_3.jpg,Green_Plus_Stripes_4.jpg,left,876.6099999193102,true,low,false
VrNfzoCS,372ages0j7iqu68t52ou18jnn9hxrx,38f71oa9gx9kko2ar2rtymlxzhqmfm,VrNfzoCS,2020-0188,2020-05-22,04:43:17,05:04:04,NA,incomplete,148,number,1,left,Red_Plus_Dots_4.jpg,Green_Triangle_Stripes_4.jpg,Purple_Plus_Grid_2.jpg,left,789.6900000050664,true,low,false
VrNfzoCS,372ages0j7iqu68t52ou18jnn9hxrx,38f71oa9gx9kko2ar2rtymlxzhqmfm,VrNfzoCS,2020-0188,2020-05-22,04:43:17,05:04:04,NA,incomplete,149,number,0,right,Purple_Plus_Stripes_1.jpg,Red_Plus_Chess_3.jpg,Green_Star_Dots_1.jpg,right,762.6300000119954,true,low,false
VrNfzoCS,372ages0j7iqu68t52ou18jnn9hxrx,38f71oa9gx9kko2ar2rtymlxzhqmfm,VrNfzoCS,2020-0188,2020-05-22,04:43:17,05:04:04,NA,incomplete,150,number,1,right,Blue_Triangle_Grid_2.jpg,Red_Triangle_Stripes_1.jpg,Green_Star_Chess_2.jpg,right,824.750000028871,true,low,false
VrNfzoCS,372ages0j7iqu68t52ou18jnn9hxrx,38f71oa9gx9kko2ar2rtymlxzhqmfm,VrNfzoCS,2020-0188,2020-05-22,04:43:17,05:04:04,NA,incomplete,151,number,1,left,Green_Triangle_Dots_1.jpg,Blue_Plus_Chess_1.jpg,Purple_Triangle_Grid_4.jpg,left,852.0149999530986,true,low,false
VrNfzoCS,372ages0j7iqu68t52ou18jnn9hxrx,38f71oa9gx9kko2ar2rtymlxzhqmfm,VrNfzoCS,2020-0188,2020-05-22,04:43:17,05:04:04,NA,incomplete,152,number,0,right,Blue_Star_Grid_4.jpg,Purple_Star_Chess_1.jpg,Green_Plus_Stripes_4.jpg,right,653.8500000024214,true,low,false
VrNfzoCS,372ages0j7iqu68t52ou18jnn9hxrx,38f71oa9gx9kko2ar2rtymlxzhqmfm,VrNfzoCS,2020-0188,2020-05-22,04:43:17,05:04:04,NA,incomplete,153,number,1,left,Blue_Triangle_Grid_3.jpg,Green_Star_Stripes_3.jpg,Purple_Triangle_Chess_1.jpg,left,631.7900000140071,true,low,false
VrNfzoCS,372ages0j7iqu68t52ou18jnn9hxrx,38f71oa9gx9kko2ar2rtymlxzhqmfm,VrNfzoCS,2020-0188,2020-05-22,04:43:17,05:04:04,NA,incomplete,154,number,1,left,Blue_Triangle_Grid_2.jpg,Red_Circle_Dots_2.jpg,Purple_Triangle_Stripes_3.jpg,left,828.2299999846146,true,low,false
VrNfzoCS,372ages0j7iqu68t52ou18jnn9hxrx,38f71oa9gx9kko2ar2rtymlxzhqmfm,VrNfzoCS,2020-0188,2020-05-22,04:43:17,05:04:04,NA,incomplete,155,number,1,right,Purple_Star_Stripes_3.jpg,Green_Star_Chess_2.jpg,Red_Triangle_Grid_3.jpg,right,646.7100000008941,true,low,false
VrNfzoCS,372ages0j7iqu68t52ou18jnn9hxrx,38f71oa9gx9kko2ar2rtymlxzhqmfm,VrNfzoCS,2020-0188,2020-05-22,04:43:17,05:04:04,NA,incomplete,156,number,1,left,Blue_Star_Dots_2.jpg,Red_Plus_Chess_2.jpg,Green_Star_Stripes_4.jpg,left,744.4550000363961,true,low,false
VrNfzoCS,372ages0j7iqu68t52ou18jnn9hxrx,38f71oa9gx9kko2ar2rtymlxzhqmfm,VrNfzoCS,2020-0188,2020-05-22,04:43:17,05:04:04,NA,incomplete,157,number,0,left,Red_Star_Dots_4.jpg,Green_Circle_Chess_4.jpg,Blue_Star_Grid_1.jpg,left,607.0099999196827,true,low,false
VrNfzoCS,372ages0j7iqu68t52ou18jnn9hxrx,38f71oa9gx9kko2ar2rtymlxzhqmfm,VrNfzoCS,2020-0188,2020-05-22,04:43:17,05:04:04,NA,incomplete,158,number,1,right,Blue_Plus_Stripes_1.jpg,Purple_Plus_Grid_4.jpg,Green_Star_Chess_1.jpg,right,699.4699999922886,true,low,false
VrNfzoCS,372ages0j7iqu68t52ou18jnn9hxrx,38f71oa9gx9kko2ar2rtymlxzhqmfm,VrNfzoCS,2020-0188,2020-05-22,04:43:17,05:04:04,NA,incomplete,159,number,1,right,Green_Circle_Chess_1.jpg,Purple_Circle_Grid_3.jpg,Red_Star_Stripes_1.jpg,right,796.3300000410527,true,low,false
VrNfzoCS,372ages0j7iqu68t52ou18jnn9hxrx,38f71oa9gx9kko2ar2rtymlxzhqmfm,VrNfzoCS,2020-0188,2020-05-22,04:43:17,05:04:04,NA,incomplete,160,shape,1,right,Purple_Star_Chess_2.jpg,Blue_Triangle_Stripes_2.jpg,Red_Star_Dots_3.jpg,left,600.3799999598414,false,low,false
VrNfzoCS,372ages0j7iqu68t52ou18jnn9hxrx,38f71oa9gx9kko2ar2rtymlxzhqmfm,VrNfzoCS,2020-0188,2020-05-22,04:43:17,05:04:04,NA,incomplete,161,shape,1,right,Green_Triangle_Dots_4.jpg,Blue_Plus_Grid_4.jpg,Red_Triangle_Stripes_1.jpg,left,646.0300000617281,false,low,false
VrNfzoCS,372ages0j7iqu68t52ou18jnn9hxrx,38f71oa9gx9kko2ar2rtymlxzhqmfm,VrNfzoCS,2020-0188,2020-05-22,04:43:17,05:04:04,NA,incomplete,162,shape,1,right,Red_Plus_Stripes_4.jpg,Purple_Triangle_Chess_4.jpg,Blue_Plus_Dots_1.jpg,right,881.1149999964982,true,low,false
VrNfzoCS,372ages0j7iqu68t52ou18jnn9hxrx,38f71oa9gx9kko2ar2rtymlxzhqmfm,VrNfzoCS,2020-0188,2020-05-22,04:43:17,05:04:04,NA,incomplete,163,shape,1,right,Purple_Plus_Stripes_2.jpg,Blue_Triangle_Grid_2.jpg,Green_Plus_Chess_4.jpg,right,1057.4049999704584,true,low,false
VrNfzoCS,372ages0j7iqu68t52ou18jnn9hxrx,38f71oa9gx9kko2ar2rtymlxzhqmfm,VrNfzoCS,2020-0188,2020-05-22,04:43:17,05:04:04,NA,incomplete,164,shape,1,right,Purple_Star_Dots_4.jpg,Green_Plus_Chess_4.jpg,Blue_Star_Grid_3.jpg,right,1284.5949999755248,true,low,false
VrNfzoCS,372ages0j7iqu68t52ou18jnn9hxrx,38f71oa9gx9kko2ar2rtymlxzhqmfm,VrNfzoCS,2020-0188,2020-05-22,04:43:17,05:04:04,NA,incomplete,165,shape,1,right,Red_Triangle_Grid_2.jpg,Green_Star_Stripes_2.jpg,Blue_Triangle_Dots_3.jpg,right,811.9799999985844,true,low,false
VrNfzoCS,372ages0j7iqu68t52ou18jnn9hxrx,38f71oa9gx9kko2ar2rtymlxzhqmfm,VrNfzoCS,2020-0188,2020-05-22,04:43:17,05:04:04,NA,incomplete,166,shape,0,left,Purple_Circle_Chess_2.jpg,Blue_Circle_Dots_1.jpg,Green_Triangle_Grid_2.jpg,left,1216.5449999738485,true,low,false
VrNfzoCS,372ages0j7iqu68t52ou18jnn9hxrx,38f71oa9gx9kko2ar2rtymlxzhqmfm,VrNfzoCS,2020-0188,2020-05-22,04:43:17,05:04:04,NA,incomplete,167,shape,1,left,Red_Circle_Chess_4.jpg,Green_Circle_Stripes_2.jpg,Blue_Plus_Grid_4.jpg,left,827.7399999788031,true,low,false
VrNfzoCS,372ages0j7iqu68t52ou18jnn9hxrx,38f71oa9gx9kko2ar2rtymlxzhqmfm,VrNfzoCS,2020-0188,2020-05-22,04:43:17,05:04:04,NA,incomplete,168,shape,0,left,Red_Triangle_Stripes_3.jpg,Purple_Triangle_Dots_2.jpg,Green_Plus_Chess_3.jpg,left,807.0800000568852,true,low,false
VrNfzoCS,372ages0j7iqu68t52ou18jnn9hxrx,38f71oa9gx9kko2ar2rtymlxzhqmfm,VrNfzoCS,2020-0188,2020-05-22,04:43:17,05:04:04,NA,incomplete,169,shape,1,right,Red_Triangle_Chess_3.jpg,Purple_Circle_Dots_3.jpg,Blue_Triangle_Stripes_2.jpg,left,916.0749999573454,false,low,false
VrNfzoCS,372ages0j7iqu68t52ou18jnn9hxrx,38f71oa9gx9kko2ar2rtymlxzhqmfm,VrNfzoCS,2020-0188,2020-05-22,04:43:17,05:04:04,NA,incomplete,170,shape,1,left,Blue_Plus_Stripes_3.jpg,Purple_Plus_Dots_2.jpg,Green_Star_Chess_3.jpg,left,1043.2049999944866,true,low,false
VrNfzoCS,372ages0j7iqu68t52ou18jnn9hxrx,38f71oa9gx9kko2ar2rtymlxzhqmfm,VrNfzoCS,2020-0188,2020-05-22,04:43:17,05:04:04,NA,incomplete,171,shape,1,right,Blue_Triangle_Stripes_1.jpg,Red_Plus_Dots_1.jpg,Green_Triangle_Grid_3.jpg,right,814.1049999976531,true,low,false
VrNfzoCS,372ages0j7iqu68t52ou18jnn9hxrx,38f71oa9gx9kko2ar2rtymlxzhqmfm,VrNfzoCS,2020-0188,2020-05-22,04:43:17,05:04:04,NA,incomplete,172,shape,1,left,Red_Plus_Grid_4.jpg,Green_Plus_Dots_2.jpg,Blue_Star_Chess_4.jpg,left,922.675000037998,true,low,false
VrNfzoCS,372ages0j7iqu68t52ou18jnn9hxrx,38f71oa9gx9kko2ar2rtymlxzhqmfm,VrNfzoCS,2020-0188,2020-05-22,04:43:17,05:04:04,NA,incomplete,173,shape,1,left,Red_Plus_Stripes_1.jpg,Green_Plus_Dots_2.jpg,Purple_Triangle_Chess_1.jpg,left,1056.7750000627711,true,low,false
VrNfzoCS,372ages0j7iqu68t52ou18jnn9hxrx,38f71oa9gx9kko2ar2rtymlxzhqmfm,VrNfzoCS,2020-0188,2020-05-22,04:43:17,05:04:04,NA,incomplete,174,shape,0,right,Purple_Triangle_Dots_1.jpg,Blue_Plus_Chess_1.jpg,Red_Triangle_Grid_4.jpg,right,740.7850000308827,true,low,false
VrNfzoCS,372ages0j7iqu68t52ou18jnn9hxrx,38f71oa9gx9kko2ar2rtymlxzhqmfm,VrNfzoCS,2020-0188,2020-05-22,04:43:17,05:04:04,NA,incomplete,175,shape,1,left,Red_Plus_Grid_4.jpg,Purple_Plus_Dots_1.jpg,Blue_Triangle_Chess_4.jpg,left,833.8350000558421,true,low,false
VrNfzoCS,372ages0j7iqu68t52ou18jnn9hxrx,38f71oa9gx9kko2ar2rtymlxzhqmfm,VrNfzoCS,2020-0188,2020-05-22,04:43:17,05:04:04,NA,incomplete,176,shape,1,right,Purple_Circle_Dots_4.jpg,Green_Triangle_Grid_4.jpg,Red_Circle_Stripes_3.jpg,right,852.7250000042841,true,low,false
VrNfzoCS,372ages0j7iqu68t52ou18jnn9hxrx,38f71oa9gx9kko2ar2rtymlxzhqmfm,VrNfzoCS,2020-0188,2020-05-22,04:43:17,05:04:04,NA,incomplete,177,shape,1,left,Blue_Triangle_Dots_1.jpg,Red_Triangle_Stripes_2.jpg,Purple_Plus_Grid_1.jpg,left,982.2400000412017,true,low,false
VrNfzoCS,372ages0j7iqu68t52ou18jnn9hxrx,38f71oa9gx9kko2ar2rtymlxzhqmfm,VrNfzoCS,2020-0188,2020-05-22,04:43:17,05:04:04,NA,incomplete,178,shape,1,left,Blue_Plus_Dots_1.jpg,Green_Plus_Stripes_3.jpg,Purple_Circle_Grid_1.jpg,left,788.1849999539554,true,low,false
VrNfzoCS,372ages0j7iqu68t52ou18jnn9hxrx,38f71oa9gx9kko2ar2rtymlxzhqmfm,VrNfzoCS,2020-0188,2020-05-22,04:43:17,05:04:04,NA,incomplete,179,shape,1,left,Purple_Star_Stripes_2.jpg,Red_Star_Grid_4.jpg,Green_Triangle_Chess_2.jpg,left,736.7349999258295,true,low,false
VrNfzoCS,372ages0j7iqu68t52ou18jnn9hxrx,38f71oa9gx9kko2ar2rtymlxzhqmfm,VrNfzoCS,2020-0188,2020-05-22,04:43:17,05:04:04,NA,incomplete,180,number,0,left,Green_Star_Dots_4.jpg,Blue_Circle_Stripes_4.jpg,Red_Star_Grid_3.jpg,right,807.4899999191985,false,low,false
VrNfzoCS,372ages0j7iqu68t52ou18jnn9hxrx,38f71oa9gx9kko2ar2rtymlxzhqmfm,VrNfzoCS,2020-0188,2020-05-22,04:43:17,05:04:04,NA,incomplete,181,number,1,right,Blue_Circle_Grid_2.jpg,Purple_Circle_Dots_1.jpg,Red_Star_Chess_2.jpg,left,698.8150000106543,false,low,false
VrNfzoCS,372ages0j7iqu68t52ou18jnn9hxrx,38f71oa9gx9kko2ar2rtymlxzhqmfm,VrNfzoCS,2020-0188,2020-05-22,04:43:17,05:04:04,NA,incomplete,182,number,0,left,Red_Triangle_Grid_1.jpg,Green_Star_Chess_1.jpg,Blue_Triangle_Stripes_2.jpg,right,1077.045000041835,false,low,false
VrNfzoCS,372ages0j7iqu68t52ou18jnn9hxrx,38f71oa9gx9kko2ar2rtymlxzhqmfm,VrNfzoCS,2020-0188,2020-05-22,04:43:17,05:04:04,NA,incomplete,183,number,1,right,Red_Plus_Grid_4.jpg,Purple_Plus_Dots_1.jpg,Green_Circle_Stripes_4.jpg,left,773.3400000724941,false,low,false
VrNfzoCS,372ages0j7iqu68t52ou18jnn9hxrx,38f71oa9gx9kko2ar2rtymlxzhqmfm,VrNfzoCS,2020-0188,2020-05-22,04:43:17,05:04:04,NA,incomplete,184,number,1,right,Green_Star_Stripes_1.jpg,Red_Star_Dots_4.jpg,Purple_Plus_Chess_1.jpg,left,923.0749999405816,false,low,false
VrNfzoCS,372ages0j7iqu68t52ou18jnn9hxrx,38f71oa9gx9kko2ar2rtymlxzhqmfm,VrNfzoCS,2020-0188,2020-05-22,04:43:17,05:04:04,NA,incomplete,185,number,1,left,Purple_Star_Dots_4.jpg,Red_Triangle_Grid_4.jpg,Green_Star_Stripes_1.jpg,left,681.7750000627711,true,low,false
VrNfzoCS,372ages0j7iqu68t52ou18jnn9hxrx,38f71oa9gx9kko2ar2rtymlxzhqmfm,VrNfzoCS,2020-0188,2020-05-22,04:43:17,05:04:04,NA,incomplete,186,number,1,left,Blue_Circle_Grid_4.jpg,Purple_Star_Dots_4.jpg,Red_Circle_Stripes_3.jpg,left,1283.1149999983609,true,low,false
VrNfzoCS,372ages0j7iqu68t52ou18jnn9hxrx,38f71oa9gx9kko2ar2rtymlxzhqmfm,VrNfzoCS,2020-0188,2020-05-22,04:43:17,05:04:04,NA,incomplete,187,number,0,right,Green_Triangle_Dots_4.jpg,Purple_Triangle_Grid_1.jpg,Blue_Plus_Stripes_4.jpg,right,796.7099999077618,true,low,false
VrNfzoCS,372ages0j7iqu68t52ou18jnn9hxrx,38f71oa9gx9kko2ar2rtymlxzhqmfm,VrNfzoCS,2020-0188,2020-05-22,04:43:17,05:04:04,NA,incomplete,188,number,1,right,Red_Star_Grid_1.jpg,Blue_Star_Chess_4.jpg,Green_Circle_Dots_1.jpg,right,785.8700000215322,true,low,false
VrNfzoCS,372ages0j7iqu68t52ou18jnn9hxrx,38f71oa9gx9kko2ar2rtymlxzhqmfm,VrNfzoCS,2020-0188,2020-05-22,04:43:17,05:04:04,NA,incomplete,189,number,0,left,Purple_Circle_Chess_2.jpg,Blue_Star_Stripes_2.jpg,Green_Circle_Grid_4.jpg,left,830.3900000173599,true,low,false
VrNfzoCS,372ages0j7iqu68t52ou18jnn9hxrx,38f71oa9gx9kko2ar2rtymlxzhqmfm,VrNfzoCS,2020-0188,2020-05-22,04:43:17,05:04:04,NA,incomplete,190,number,1,left,Green_Plus_Grid_1.jpg,Purple_Triangle_Stripes_1.jpg,Blue_Plus_Dots_3.jpg,left,609.2800000915304,true,low,false
VrNfzoCS,372ages0j7iqu68t52ou18jnn9hxrx,38f71oa9gx9kko2ar2rtymlxzhqmfm,VrNfzoCS,2020-0188,2020-05-22,04:43:17,05:04:04,NA,incomplete,191,number,0,left,Purple_Triangle_Stripes_1.jpg,Blue_Plus_Grid_1.jpg,Red_Triangle_Dots_2.jpg,left,701.024999958463,true,low,false
VrNfzoCS,372ages0j7iqu68t52ou18jnn9hxrx,38f71oa9gx9kko2ar2rtymlxzhqmfm,VrNfzoCS,2020-0188,2020-05-22,04:43:17,05:04:04,NA,incomplete,192,number,1,left,Blue_Circle_Chess_2.jpg,Purple_Plus_Stripes_2.jpg,Red_Circle_Grid_4.jpg,left,877.9550000326708,true,low,false
VrNfzoCS,372ages0j7iqu68t52ou18jnn9hxrx,38f71oa9gx9kko2ar2rtymlxzhqmfm,VrNfzoCS,2020-0188,2020-05-22,04:43:17,05:04:04,NA,incomplete,193,number,1,left,Red_Triangle_Dots_2.jpg,Purple_Plus_Chess_2.jpg,Blue_Triangle_Grid_4.jpg,left,743.5950000071898,true,low,false
VrNfzoCS,372ages0j7iqu68t52ou18jnn9hxrx,38f71oa9gx9kko2ar2rtymlxzhqmfm,VrNfzoCS,2020-0188,2020-05-22,04:43:17,05:04:04,NA,incomplete,194,number,1,right,Green_Triangle_Chess_4.jpg,Purple_Triangle_Stripes_1.jpg,Red_Plus_Grid_4.jpg,right,782.550000003539,true,low,false
VrNfzoCS,372ages0j7iqu68t52ou18jnn9hxrx,38f71oa9gx9kko2ar2rtymlxzhqmfm,VrNfzoCS,2020-0188,2020-05-22,04:43:17,05:04:04,NA,incomplete,195,number,1,left,Red_Circle_Chess_3.jpg,Green_Star_Grid_3.jpg,Blue_Circle_Dots_2.jpg,left,867.3349999589846,true,low,false
VrNfzoCS,372ages0j7iqu68t52ou18jnn9hxrx,38f71oa9gx9kko2ar2rtymlxzhqmfm,VrNfzoCS,2020-0188,2020-05-22,04:43:17,05:04:04,NA,incomplete,196,number,0,right,Green_Circle_Stripes_2.jpg,Red_Circle_Dots_4.jpg,Blue_Star_Grid_2.jpg,right,901.8650000216439,true,low,false
VrNfzoCS,372ages0j7iqu68t52ou18jnn9hxrx,38f71oa9gx9kko2ar2rtymlxzhqmfm,VrNfzoCS,2020-0188,2020-05-22,04:43:17,05:04:04,NA,incomplete,197,number,1,right,Purple_Plus_Chess_3.jpg,Green_Plus_Stripes_4.jpg,Blue_Star_Dots_3.jpg,right,925.3200000384822,true,low,false
VrNfzoCS,372ages0j7iqu68t52ou18jnn9hxrx,38f71oa9gx9kko2ar2rtymlxzhqmfm,VrNfzoCS,2020-0188,2020-05-22,04:43:17,05:04:04,NA,incomplete,198,number,1,right,Green_Circle_Stripes_1.jpg,Purple_Circle_Chess_3.jpg,Blue_Star_Grid_1.jpg,right,844.6449999464676,true,low,false
VrNfzoCS,372ages0j7iqu68t52ou18jnn9hxrx,38f71oa9gx9kko2ar2rtymlxzhqmfm,VrNfzoCS,2020-0188,2020-05-22,04:43:17,05:04:04,NA,incomplete,199,number,1,left,Green_Plus_Stripes_4.jpg,Blue_Circle_Chess_4.jpg,Purple_Plus_Grid_2.jpg,left,662.8299999283627,true,low,false
VrNfzoCS,372ages0j7iqu68t52ou18jnn9hxrx,38f71oa9gx9kko2ar2rtymlxzhqmfm,VrNfzoCS,2020-0188,2020-05-22,04:43:17,05:04:04,NA,incomplete,200,shape,1,left,Purple_Circle_Stripes_4.jpg,Green_Circle_Grid_3.jpg,Red_Triangle_Chess_4.jpg,right,825.7050000829622,false,low,false
VrNfzoCS,372ages0j7iqu68t52ou18jnn9hxrx,38f71oa9gx9kko2ar2rtymlxzhqmfm,VrNfzoCS,2020-0188,2020-05-22,04:43:17,05:04:04,NA,incomplete,201,shape,1,left,Purple_Triangle_Grid_4.jpg,Green_Triangle_Dots_1.jpg,Blue_Star_Chess_4.jpg,left,755.8200000785291,true,low,false
VrNfzoCS,372ages0j7iqu68t52ou18jnn9hxrx,38f71oa9gx9kko2ar2rtymlxzhqmfm,VrNfzoCS,2020-0188,2020-05-22,04:43:17,05:04:04,NA,incomplete,202,shape,1,left,Blue_Triangle_Grid_2.jpg,Green_Triangle_Chess_3.jpg,Red_Plus_Stripes_2.jpg,left,778.470000019297,true,low,false
VrNfzoCS,372ages0j7iqu68t52ou18jnn9hxrx,38f71oa9gx9kko2ar2rtymlxzhqmfm,VrNfzoCS,2020-0188,2020-05-22,04:43:17,05:04:04,NA,incomplete,203,shape,1,right,Green_Star_Grid_1.jpg,Red_Triangle_Stripes_1.jpg,Blue_Star_Dots_4.jpg,right,1230.905000003986,true,low,false
VrNfzoCS,372ages0j7iqu68t52ou18jnn9hxrx,38f71oa9gx9kko2ar2rtymlxzhqmfm,VrNfzoCS,2020-0188,2020-05-22,04:43:17,05:04:04,NA,incomplete,204,shape,1,left,Purple_Star_Stripes_3.jpg,Blue_Star_Grid_4.jpg,Green_Circle_Dots_3.jpg,left,836.089999997057,true,low,false
VrNfzoCS,372ages0j7iqu68t52ou18jnn9hxrx,38f71oa9gx9kko2ar2rtymlxzhqmfm,VrNfzoCS,2020-0188,2020-05-22,04:43:17,05:04:04,NA,incomplete,205,shape,0,right,Purple_Triangle_Chess_4.jpg,Red_Plus_Stripes_4.jpg,Green_Triangle_Dots_2.jpg,right,1117.8250000812113,true,low,false
VrNfzoCS,372ages0j7iqu68t52ou18jnn9hxrx,38f71oa9gx9kko2ar2rtymlxzhqmfm,VrNfzoCS,2020-0188,2020-05-22,04:43:17,05:04:04,NA,incomplete,206,shape,1,right,Green_Triangle_Grid_4.jpg,Purple_Circle_Chess_4.jpg,Blue_Triangle_Stripes_1.jpg,right,902.0650000311434,true,low,false
VrNfzoCS,372ages0j7iqu68t52ou18jnn9hxrx,38f71oa9gx9kko2ar2rtymlxzhqmfm,VrNfzoCS,2020-0188,2020-05-22,04:43:17,05:04:04,NA,incomplete,207,shape,1,left,Green_Circle_Chess_4.jpg,Purple_Circle_Stripes_2.jpg,Blue_Plus_Dots_4.jpg,left,1237.165000056848,true,low,false
VrNfzoCS,372ages0j7iqu68t52ou18jnn9hxrx,38f71oa9gx9kko2ar2rtymlxzhqmfm,VrNfzoCS,2020-0188,2020-05-22,04:43:17,05:04:04,NA,incomplete,208,shape,1,right,Red_Triangle_Grid_4.jpg,Blue_Star_Dots_4.jpg,Purple_Triangle_Chess_3.jpg,right,743.9850000664592,true,low,false
VrNfzoCS,372ages0j7iqu68t52ou18jnn9hxrx,38f71oa9gx9kko2ar2rtymlxzhqmfm,VrNfzoCS,2020-0188,2020-05-22,04:43:17,05:04:04,NA,incomplete,209,shape,1,left,Blue_Circle_Stripes_4.jpg,Green_Circle_Grid_3.jpg,Red_Star_Chess_4.jpg,left,703.2700000563636,true,low,false
VrNfzoCS,372ages0j7iqu68t52ou18jnn9hxrx,38f71oa9gx9kko2ar2rtymlxzhqmfm,VrNfzoCS,2020-0188,2020-05-22,04:43:17,05:04:04,NA,incomplete,210,shape,1,right,Purple_Triangle_Dots_1.jpg,Blue_Star_Chess_1.jpg,Green_Triangle_Grid_2.jpg,right,814.7300001000986,true,low,false
VrNfzoCS,372ages0j7iqu68t52ou18jnn9hxrx,38f71oa9gx9kko2ar2rtymlxzhqmfm,VrNfzoCS,2020-0188,2020-05-22,04:43:17,05:04:04,NA,incomplete,211,shape,1,right,Purple_Triangle_Grid_3.jpg,Red_Star_Stripes_3.jpg,Green_Triangle_Chess_2.jpg,right,793.6500000068918,true,low,false
VrNfzoCS,372ages0j7iqu68t52ou18jnn9hxrx,38f71oa9gx9kko2ar2rtymlxzhqmfm,VrNfzoCS,2020-0188,2020-05-22,04:43:17,05:04:04,NA,incomplete,212,shape,1,right,Red_Plus_Grid_3.jpg,Purple_Circle_Chess_3.jpg,Blue_Plus_Stripes_4.jpg,right,911.6449999855831,true,low,false
VrNfzoCS,372ages0j7iqu68t52ou18jnn9hxrx,38f71oa9gx9kko2ar2rtymlxzhqmfm,VrNfzoCS,2020-0188,2020-05-22,04:43:17,05:04:04,NA,incomplete,213,shape,1,left,Red_Circle_Stripes_4.jpg,Green_Circle_Chess_1.jpg,Blue_Plus_Dots_4.jpg,left,743.4399999910966,true,low,false
VrNfzoCS,372ages0j7iqu68t52ou18jnn9hxrx,38f71oa9gx9kko2ar2rtymlxzhqmfm,VrNfzoCS,2020-0188,2020-05-22,04:43:17,05:04:04,NA,incomplete,214,shape,1,right,Purple_Circle_Stripes_4.jpg,Green_Plus_Chess_4.jpg,Blue_Circle_Grid_2.jpg,right,693.7300000572577,true,low,false
VrNfzoCS,372ages0j7iqu68t52ou18jnn9hxrx,38f71oa9gx9kko2ar2rtymlxzhqmfm,VrNfzoCS,2020-0188,2020-05-22,04:43:17,05:04:04,NA,incomplete,215,shape,1,right,Purple_Star_Stripes_1.jpg,Green_Plus_Grid_1.jpg,Red_Star_Dots_3.jpg,right,854.5099999755621,true,low,false
VrNfzoCS,372ages0j7iqu68t52ou18jnn9hxrx,38f71oa9gx9kko2ar2rtymlxzhqmfm,VrNfzoCS,2020-0188,2020-05-22,04:43:17,05:04:04,NA,incomplete,216,shape,1,right,Green_Triangle_Stripes_1.jpg,Blue_Star_Chess_1.jpg,Red_Triangle_Dots_2.jpg,right,688.8050000416115,true,low,false
VrNfzoCS,372ages0j7iqu68t52ou18jnn9hxrx,38f71oa9gx9kko2ar2rtymlxzhqmfm,VrNfzoCS,2020-0188,2020-05-22,04:43:17,05:04:04,NA,incomplete,217,shape,1,left,Blue_Plus_Dots_2.jpg,Purple_Plus_Stripes_1.jpg,Red_Triangle_Chess_2.jpg,left,1281.749999965541,true,low,false
VrNfzoCS,372ages0j7iqu68t52ou18jnn9hxrx,38f71oa9gx9kko2ar2rtymlxzhqmfm,VrNfzoCS,2020-0188,2020-05-22,04:43:17,05:04:04,NA,incomplete,218,shape,1,left,Blue_Circle_Grid_1.jpg,Red_Circle_Chess_2.jpg,Purple_Triangle_Stripes_1.jpg,left,834.2999999877065,true,low,false
VrNfzoCS,372ages0j7iqu68t52ou18jnn9hxrx,38f71oa9gx9kko2ar2rtymlxzhqmfm,VrNfzoCS,2020-0188,2020-05-22,04:43:17,05:04:04,NA,incomplete,219,shape,0,left,Blue_Triangle_Stripes_4.jpg,Purple_Triangle_Chess_2.jpg,Red_Circle_Grid_4.jpg,left,734.1000000014901,true,low,false
VrNfzoCS,372ages0j7iqu68t52ou18jnn9hxrx,38f71oa9gx9kko2ar2rtymlxzhqmfm,VrNfzoCS,2020-0188,2020-05-22,04:43:17,05:04:04,NA,incomplete,220,number,1,right,Purple_Triangle_Stripes_1.jpg,Blue_Triangle_Chess_2.jpg,Green_Star_Grid_1.jpg,right,755.8450000360608,true,low,false
VrNfzoCS,372ages0j7iqu68t52ou18jnn9hxrx,38f71oa9gx9kko2ar2rtymlxzhqmfm,VrNfzoCS,2020-0188,2020-05-22,04:43:17,05:04:04,NA,incomplete,221,number,1,left,Blue_Triangle_Grid_1.jpg,Red_Plus_Dots_1.jpg,Purple_Triangle_Chess_3.jpg,left,857.480000006035,true,low,false
VrNfzoCS,372ages0j7iqu68t52ou18jnn9hxrx,38f71oa9gx9kko2ar2rtymlxzhqmfm,VrNfzoCS,2020-0188,2020-05-22,04:43:17,05:04:04,NA,incomplete,222,number,1,right,Green_Plus_Grid_4.jpg,Blue_Plus_Stripes_1.jpg,Red_Star_Dots_4.jpg,right,860.1950000738725,true,low,false
VrNfzoCS,372ages0j7iqu68t52ou18jnn9hxrx,38f71oa9gx9kko2ar2rtymlxzhqmfm,VrNfzoCS,2020-0188,2020-05-22,04:43:17,05:04:04,NA,incomplete,223,number,0,left,Green_Circle_Grid_3.jpg,Red_Star_Chess_3.jpg,Blue_Circle_Dots_4.jpg,left,982.3049999540672,true,low,false
VrNfzoCS,372ages0j7iqu68t52ou18jnn9hxrx,38f71oa9gx9kko2ar2rtymlxzhqmfm,VrNfzoCS,2020-0188,2020-05-22,04:43:17,05:04:04,NA,incomplete,224,number,1,left,Blue_Plus_Dots_2.jpg,Green_Star_Chess_2.jpg,Purple_Plus_Grid_3.jpg,left,755.379999987781,true,low,false
VrNfzoCS,372ages0j7iqu68t52ou18jnn9hxrx,38f71oa9gx9kko2ar2rtymlxzhqmfm,VrNfzoCS,2020-0188,2020-05-22,04:43:17,05:04:04,NA,incomplete,225,number,1,right,Green_Plus_Dots_3.jpg,Red_Plus_Stripes_1.jpg,Purple_Triangle_Chess_3.jpg,right,760.270000086166,true,low,false
VrNfzoCS,372ages0j7iqu68t52ou18jnn9hxrx,38f71oa9gx9kko2ar2rtymlxzhqmfm,VrNfzoCS,2020-0188,2020-05-22,04:43:17,05:04:04,NA,incomplete,226,number,0,right,Red_Plus_Stripes_2.jpg,Green_Plus_Dots_1.jpg,Blue_Triangle_Chess_2.jpg,right,855.2399999462068,true,low,false
VrNfzoCS,372ages0j7iqu68t52ou18jnn9hxrx,38f71oa9gx9kko2ar2rtymlxzhqmfm,VrNfzoCS,2020-0188,2020-05-22,04:43:17,05:04:04,NA,incomplete,227,number,1,right,Blue_Triangle_Grid_3.jpg,Purple_Triangle_Dots_4.jpg,Green_Circle_Chess_3.jpg,right,984.5750000094995,true,low,false
VrNfzoCS,372ages0j7iqu68t52ou18jnn9hxrx,38f71oa9gx9kko2ar2rtymlxzhqmfm,VrNfzoCS,2020-0188,2020-05-22,04:43:17,05:04:04,NA,incomplete,228,number,0,right,Red_Circle_Chess_1.jpg,Blue_Circle_Stripes_4.jpg,Green_Star_Grid_1.jpg,right,789.5400000270456,true,low,false
VrNfzoCS,372ages0j7iqu68t52ou18jnn9hxrx,38f71oa9gx9kko2ar2rtymlxzhqmfm,VrNfzoCS,2020-0188,2020-05-22,04:43:17,05:04:04,NA,incomplete,229,number,1,left,Red_Triangle_Dots_1.jpg,Blue_Star_Chess_1.jpg,Green_Triangle_Stripes_3.jpg,right,690.1200000429526,false,low,false
VrNfzoCS,372ages0j7iqu68t52ou18jnn9hxrx,38f71oa9gx9kko2ar2rtymlxzhqmfm,VrNfzoCS,2020-0188,2020-05-22,04:43:17,05:04:04,NA,incomplete,230,number,1,left,Green_Star_Grid_2.jpg,Red_Plus_Stripes_2.jpg,Purple_Star_Chess_4.jpg,left,810.8699999283999,true,low,false
VrNfzoCS,372ages0j7iqu68t52ou18jnn9hxrx,38f71oa9gx9kko2ar2rtymlxzhqmfm,VrNfzoCS,2020-0188,2020-05-22,04:43:17,05:04:04,NA,incomplete,231,number,0,right,Blue_Star_Grid_2.jpg,Green_Star_Dots_1.jpg,Red_Plus_Chess_2.jpg,right,759.4950000056997,true,low,false
VrNfzoCS,372ages0j7iqu68t52ou18jnn9hxrx,38f71oa9gx9kko2ar2rtymlxzhqmfm,VrNfzoCS,2020-0188,2020-05-22,04:43:17,05:04:04,NA,incomplete,232,number,1,left,Green_Triangle_Chess_4.jpg,Blue_Circle_Dots_4.jpg,Purple_Triangle_Stripes_3.jpg,left,764.2950000008568,true,low,false
VrNfzoCS,372ages0j7iqu68t52ou18jnn9hxrx,38f71oa9gx9kko2ar2rtymlxzhqmfm,VrNfzoCS,2020-0188,2020-05-22,04:43:17,05:04:04,NA,incomplete,233,number,1,right,Red_Triangle_Stripes_2.jpg,Purple_Triangle_Dots_1.jpg,Green_Plus_Grid_2.jpg,right,818.4049999108538,true,low,false
VrNfzoCS,372ages0j7iqu68t52ou18jnn9hxrx,38f71oa9gx9kko2ar2rtymlxzhqmfm,VrNfzoCS,2020-0188,2020-05-22,04:43:17,05:04:04,NA,incomplete,234,number,1,left,Red_Plus_Chess_3.jpg,Blue_Circle_Grid_3.jpg,Green_Plus_Dots_2.jpg,left,711.284999968484,true,low,false
VrNfzoCS,372ages0j7iqu68t52ou18jnn9hxrx,38f71oa9gx9kko2ar2rtymlxzhqmfm,VrNfzoCS,2020-0188,2020-05-22,04:43:17,05:04:04,NA,incomplete,235,number,1,right,Purple_Circle_Stripes_2.jpg,Blue_Circle_Dots_4.jpg,Red_Star_Grid_2.jpg,right,806.5450000576675,true,low,false
VrNfzoCS,372ages0j7iqu68t52ou18jnn9hxrx,38f71oa9gx9kko2ar2rtymlxzhqmfm,VrNfzoCS,2020-0188,2020-05-22,04:43:17,05:04:04,NA,incomplete,236,number,1,left,Green_Star_Stripes_1.jpg,Blue_Plus_Grid_1.jpg,Red_Star_Chess_4.jpg,left,681.8750000093132,true,low,false
VrNfzoCS,372ages0j7iqu68t52ou18jnn9hxrx,38f71oa9gx9kko2ar2rtymlxzhqmfm,VrNfzoCS,2020-0188,2020-05-22,04:43:17,05:04:04,NA,incomplete,237,number,1,left,Green_Plus_Grid_3.jpg,Red_Star_Stripes_3.jpg,Blue_Plus_Chess_4.jpg,left,1068.1450000265613,true,low,false
VrNfzoCS,372ages0j7iqu68t52ou18jnn9hxrx,38f71oa9gx9kko2ar2rtymlxzhqmfm,VrNfzoCS,2020-0188,2020-05-22,04:43:17,05:04:04,NA,incomplete,238,number,1,right,Blue_Circle_Chess_4.jpg,Purple_Circle_Dots_2.jpg,Red_Triangle_Stripes_4.jpg,right,677.2999999811873,true,low,false
VrNfzoCS,372ages0j7iqu68t52ou18jnn9hxrx,38f71oa9gx9kko2ar2rtymlxzhqmfm,VrNfzoCS,2020-0188,2020-05-22,04:43:17,05:04:04,NA,incomplete,239,number,1,left,Red_Star_Grid_2.jpg,Green_Triangle_Stripes_2.jpg,Purple_Star_Chess_3.jpg,left,783.4750000620261,true,low,false
VrNfzoCS,372ages0j7iqu68t52ou18jnn9hxrx,38f71oa9gx9kko2ar2rtymlxzhqmfm,VrNfzoCS,2020-0188,2020-05-22,04:43:17,05:04:04,NA,NA,instruction example,color,NA,NA,Blue_Star_Dots_1.jpg,Blue_Plus_Stripes_4.jpg,Green_Triangle_Dots_3.jpg,NA,NA,NA,NA,undefined
VrNfzoCS,372ages0j7iqu68t52ou18jnn9hxrx,38f71oa9gx9kko2ar2rtymlxzhqmfm,VrNfzoCS,2020-0188,2020-05-22,04:43:17,05:04:04,NA,NA,instruction example,color,NA,NA,Purple_Star_Stripes_1.jpg,Blue_Plus_Stripes_4.jpg,Purple_Circle_Dots_2.jpg,NA,NA,NA,NA,undefined
VrNfzoCS,372ages0j7iqu68t52ou18jnn9hxrx,38f71oa9gx9kko2ar2rtymlxzhqmfm,VrNfzoCS,2020-0188,2020-05-22,04:43:17,05:04:04,NA,NA,instruction example,color,NA,NA,Blue_Star_Grid_2.jpg,Red_Star_Stripes_4.jpg,Green_Circle_Dots_2.jpg,NA,NA,NA,NA,undefined
VrNfzoCS,372ages0j7iqu68t52ou18jnn9hxrx,38f71oa9gx9kko2ar2rtymlxzhqmfm,VrNfzoCS,2020-0188,2020-05-22,04:43:17,05:04:04,NA,NA,instruction example,color,NA,NA,Blue_Star_Chess_4.jpg,Red_Circle_Stripes_4.jpg,Purple_Star_Grid_2.jpg,NA,NA,NA,NA,undefined
VrNfzoCS,372ages0j7iqu68t52ou18jnn9hxrx,38f71oa9gx9kko2ar2rtymlxzhqmfm,VrNfzoCS,2020-0188,2020-05-22,04:43:17,05:04:04,1218740.6699999701,1247109.4300000696,NA,NA,NA,NA,NA,NA,NA,NA,NA,NA,NA,undefined
