workerId,hitId,assignmentId,subject,studyid,exp_date,exp_start,exp_end,time_start,time_end,trial,type,reward_validity,answer,image_top,image_left,image_right,response,response_time,response_acc,volatility,age,race,gender,ethnicity,color,vision,neuro,practice
YeIybkNQ,3y7ltze0zwz7ft0pae7k34mi28juzv,39kfrkbfir8eki4h98yufbhi0qtyo4,YeIybkNQ,2020-0188,2020-05-21,17:08:37,17:41:36,NA,incomplete,0,color,1,left,Purple_Star_Stripes_4.jpg,Purple_Triangle_Grid_2.jpg,Green_Circle_Stripes_1.jpg,left,1483.4550000086892,true,NA,NA,NA,NA,NA,NA,NA,NA,true
YeIybkNQ,3y7ltze0zwz7ft0pae7k34mi28juzv,39kfrkbfir8eki4h98yufbhi0qtyo4,YeIybkNQ,2020-0188,2020-05-21,17:08:37,17:41:36,NA,incomplete,1,color,0,left,Red_Plus_Chess_2.jpg,Red_Circle_Stripes_3.jpg,Purple_Star_Chess_1.jpg,left,578.3649999939371,true,NA,NA,NA,NA,NA,NA,NA,NA,true
YeIybkNQ,3y7ltze0zwz7ft0pae7k34mi28juzv,39kfrkbfir8eki4h98yufbhi0qtyo4,YeIybkNQ,2020-0188,2020-05-21,17:08:37,17:41:36,NA,incomplete,2,color,1,left,Red_Star_Dots_2.jpg,Red_Circle_Grid_4.jpg,Green_Plus_Dots_1.jpg,left,426.5350000059698,true,NA,NA,NA,NA,NA,NA,NA,NA,true
YeIybkNQ,3y7ltze0zwz7ft0pae7k34mi28juzv,39kfrkbfir8eki4h98yufbhi0qtyo4,YeIybkNQ,2020-0188,2020-05-21,17:08:37,17:41:36,NA,incomplete,3,color,1,left,Green_Plus_Grid_3.jpg,Green_Triangle_Stripes_1.jpg,Purple_Circle_Grid_2.jpg,left,506.4100000017788,true,NA,NA,NA,NA,NA,NA,NA,NA,true
YeIybkNQ,3y7ltze0zwz7ft0pae7k34mi28juzv,39kfrkbfir8eki4h98yufbhi0qtyo4,YeIybkNQ,2020-0188,2020-05-21,17:08:37,17:41:36,NA,incomplete,4,color,0,left,Purple_Circle_Chess_1.jpg,Purple_Triangle_Stripes_3.jpg,Red_Plus_Chess_2.jpg,left,684.6050000021933,true,NA,NA,NA,NA,NA,NA,NA,NA,true
YeIybkNQ,3y7ltze0zwz7ft0pae7k34mi28juzv,39kfrkbfir8eki4h98yufbhi0qtyo4,YeIybkNQ,2020-0188,2020-05-21,17:08:37,17:41:36,NA,incomplete,5,color,1,left,Green_Triangle_Stripes_1.jpg,Green_Circle_Grid_2.jpg,Purple_Plus_Stripes_4.jpg,left,418.8999999896623,true,NA,NA,NA,NA,NA,NA,NA,NA,true
YeIybkNQ,3y7ltze0zwz7ft0pae7k34mi28juzv,39kfrkbfir8eki4h98yufbhi0qtyo4,YeIybkNQ,2020-0188,2020-05-21,17:08:37,17:41:36,NA,incomplete,6,color,1,left,Purple_Plus_Stripes_4.jpg,Purple_Circle_Dots_3.jpg,Blue_Triangle_Stripes_2.jpg,left,500.30999998853076,true,NA,NA,NA,NA,NA,NA,NA,NA,true
YeIybkNQ,3y7ltze0zwz7ft0pae7k34mi28juzv,39kfrkbfir8eki4h98yufbhi0qtyo4,YeIybkNQ,2020-0188,2020-05-21,17:08:37,17:41:36,NA,incomplete,7,color,1,right,Green_Plus_Stripes_4.jpg,Purple_Star_Stripes_3.jpg,Green_Circle_Grid_1.jpg,right,660.3700000123354,true,NA,NA,NA,NA,NA,NA,NA,NA,true
YeIybkNQ,3y7ltze0zwz7ft0pae7k34mi28juzv,39kfrkbfir8eki4h98yufbhi0qtyo4,YeIybkNQ,2020-0188,2020-05-21,17:08:37,17:41:36,NA,incomplete,8,color,1,left,Purple_Plus_Stripes_1.jpg,Purple_Star_Dots_3.jpg,Red_Triangle_Stripes_2.jpg,left,473.3000000123866,true,NA,NA,NA,NA,NA,NA,NA,NA,true
YeIybkNQ,3y7ltze0zwz7ft0pae7k34mi28juzv,39kfrkbfir8eki4h98yufbhi0qtyo4,YeIybkNQ,2020-0188,2020-05-21,17:08:37,17:41:36,NA,incomplete,9,color,1,left,Red_Star_Dots_2.jpg,Red_Plus_Stripes_4.jpg,Blue_Circle_Dots_3.jpg,left,644.1000000049826,true,NA,NA,NA,NA,NA,NA,NA,NA,true
YeIybkNQ,3y7ltze0zwz7ft0pae7k34mi28juzv,39kfrkbfir8eki4h98yufbhi0qtyo4,YeIybkNQ,2020-0188,2020-05-21,17:08:37,17:41:36,NA,incomplete,10,color,1,right,Red_Triangle_Chess_2.jpg,Blue_Circle_Chess_1.jpg,Red_Star_Grid_3.jpg,right,593.3499999955529,true,NA,NA,NA,NA,NA,NA,NA,NA,true
YeIybkNQ,3y7ltze0zwz7ft0pae7k34mi28juzv,39kfrkbfir8eki4h98yufbhi0qtyo4,YeIybkNQ,2020-0188,2020-05-21,17:08:37,17:41:36,NA,incomplete,11,color,1,left,Red_Circle_Grid_1.jpg,Red_Plus_Dots_4.jpg,Purple_Triangle_Grid_2.jpg,left,428.6450000072364,true,NA,NA,NA,NA,NA,NA,NA,NA,true
YeIybkNQ,3y7ltze0zwz7ft0pae7k34mi28juzv,39kfrkbfir8eki4h98yufbhi0qtyo4,YeIybkNQ,2020-0188,2020-05-21,17:08:37,17:41:36,NA,incomplete,12,color,1,right,Purple_Circle_Chess_3.jpg,Blue_Triangle_Chess_4.jpg,Purple_Plus_Grid_2.jpg,right,444.1300000034971,true,NA,NA,NA,NA,NA,NA,NA,NA,true
YeIybkNQ,3y7ltze0zwz7ft0pae7k34mi28juzv,39kfrkbfir8eki4h98yufbhi0qtyo4,YeIybkNQ,2020-0188,2020-05-21,17:08:37,17:41:36,NA,incomplete,13,color,1,left,Red_Plus_Chess_3.jpg,Red_Star_Dots_2.jpg,Purple_Triangle_Chess_4.jpg,left,454.2100000107894,true,NA,NA,NA,NA,NA,NA,NA,NA,true
YeIybkNQ,3y7ltze0zwz7ft0pae7k34mi28juzv,39kfrkbfir8eki4h98yufbhi0qtyo4,YeIybkNQ,2020-0188,2020-05-21,17:08:37,17:41:36,NA,incomplete,14,color,1,right,Red_Circle_Stripes_3.jpg,Blue_Triangle_Stripes_1.jpg,Red_Star_Dots_2.jpg,right,411.854999998468,true,NA,NA,NA,NA,NA,NA,NA,NA,true
YeIybkNQ,3y7ltze0zwz7ft0pae7k34mi28juzv,39kfrkbfir8eki4h98yufbhi0qtyo4,YeIybkNQ,2020-0188,2020-05-21,17:08:37,17:41:36,NA,incomplete,15,color,1,left,Green_Star_Dots_1.jpg,Green_Circle_Chess_4.jpg,Blue_Plus_Dots_3.jpg,left,501.54000001202803,true,NA,NA,NA,NA,NA,NA,NA,NA,true
YeIybkNQ,3y7ltze0zwz7ft0pae7k34mi28juzv,39kfrkbfir8eki4h98yufbhi0qtyo4,YeIybkNQ,2020-0188,2020-05-21,17:08:37,17:41:36,NA,incomplete,16,color,1,right,Purple_Circle_Grid_3.jpg,Green_Plus_Grid_2.jpg,Purple_Triangle_Stripes_4.jpg,right,439.97500000114087,true,NA,NA,NA,NA,NA,NA,NA,NA,true
YeIybkNQ,3y7ltze0zwz7ft0pae7k34mi28juzv,39kfrkbfir8eki4h98yufbhi0qtyo4,YeIybkNQ,2020-0188,2020-05-21,17:08:37,17:41:36,NA,incomplete,17,color,1,right,Red_Triangle_Dots_4.jpg,Blue_Star_Dots_2.jpg,Red_Circle_Chess_3.jpg,right,486.95999999472406,true,NA,NA,NA,NA,NA,NA,NA,NA,true
YeIybkNQ,3y7ltze0zwz7ft0pae7k34mi28juzv,39kfrkbfir8eki4h98yufbhi0qtyo4,YeIybkNQ,2020-0188,2020-05-21,17:08:37,17:41:36,NA,incomplete,18,color,1,right,Purple_Circle_Grid_2.jpg,Blue_Plus_Grid_4.jpg,Purple_Triangle_Stripes_1.jpg,left,527.0650000020396,false,NA,NA,NA,NA,NA,NA,NA,NA,true
YeIybkNQ,3y7ltze0zwz7ft0pae7k34mi28juzv,39kfrkbfir8eki4h98yufbhi0qtyo4,YeIybkNQ,2020-0188,2020-05-21,17:08:37,17:41:36,NA,incomplete,19,color,0,right,Red_Triangle_Chess_2.jpg,Green_Plus_Chess_4.jpg,Red_Circle_Dots_3.jpg,right,473.49500001291744,true,NA,NA,NA,NA,NA,NA,NA,NA,true
YeIybkNQ,3y7ltze0zwz7ft0pae7k34mi28juzv,39kfrkbfir8eki4h98yufbhi0qtyo4,YeIybkNQ,2020-0188,2020-05-21,17:08:37,17:41:36,NA,incomplete,20,filling,1,left,Red_Star_Dots_1.jpg,Green_Circle_Dots_4.jpg,Red_Plus_Grid_2.jpg,right,564.5199999999022,false,NA,NA,NA,NA,NA,NA,NA,NA,true
YeIybkNQ,3y7ltze0zwz7ft0pae7k34mi28juzv,39kfrkbfir8eki4h98yufbhi0qtyo4,YeIybkNQ,2020-0188,2020-05-21,17:08:37,17:41:36,NA,incomplete,21,filling,1,left,Red_Star_Stripes_2.jpg,Purple_Plus_Stripes_3.jpg,Red_Triangle_Grid_4.jpg,left,573.0949999997392,true,NA,NA,NA,NA,NA,NA,NA,NA,true
YeIybkNQ,3y7ltze0zwz7ft0pae7k34mi28juzv,39kfrkbfir8eki4h98yufbhi0qtyo4,YeIybkNQ,2020-0188,2020-05-21,17:08:37,17:41:36,NA,incomplete,22,filling,1,left,Blue_Star_Chess_1.jpg,Green_Plus_Chess_4.jpg,Blue_Triangle_Grid_3.jpg,left,503.5749999951804,true,NA,NA,NA,NA,NA,NA,NA,NA,true
YeIybkNQ,3y7ltze0zwz7ft0pae7k34mi28juzv,39kfrkbfir8eki4h98yufbhi0qtyo4,YeIybkNQ,2020-0188,2020-05-21,17:08:37,17:41:36,NA,incomplete,23,filling,1,left,Red_Star_Grid_2.jpg,Purple_Circle_Grid_1.jpg,Red_Triangle_Dots_4.jpg,left,506.2800000014249,true,NA,NA,NA,NA,NA,NA,NA,NA,true
YeIybkNQ,3y7ltze0zwz7ft0pae7k34mi28juzv,39kfrkbfir8eki4h98yufbhi0qtyo4,YeIybkNQ,2020-0188,2020-05-21,17:08:37,17:41:36,NA,incomplete,24,filling,1,left,Blue_Plus_Grid_4.jpg,Purple_Circle_Grid_2.jpg,Blue_Triangle_Dots_1.jpg,left,514.1949999961071,true,NA,NA,NA,NA,NA,NA,NA,NA,true
YeIybkNQ,3y7ltze0zwz7ft0pae7k34mi28juzv,39kfrkbfir8eki4h98yufbhi0qtyo4,YeIybkNQ,2020-0188,2020-05-21,17:08:37,17:41:36,NA,incomplete,25,filling,1,left,Red_Star_Grid_4.jpg,Blue_Circle_Grid_3.jpg,Red_Plus_Stripes_2.jpg,left,422.45500000717584,true,NA,NA,NA,NA,NA,NA,NA,NA,true
YeIybkNQ,3y7ltze0zwz7ft0pae7k34mi28juzv,39kfrkbfir8eki4h98yufbhi0qtyo4,YeIybkNQ,2020-0188,2020-05-21,17:08:37,17:41:36,NA,incomplete,26,filling,0,right,Red_Circle_Grid_4.jpg,Red_Plus_Chess_2.jpg,Purple_Triangle_Grid_3.jpg,right,475.0849999982165,true,NA,NA,NA,NA,NA,NA,NA,NA,true
YeIybkNQ,3y7ltze0zwz7ft0pae7k34mi28juzv,39kfrkbfir8eki4h98yufbhi0qtyo4,YeIybkNQ,2020-0188,2020-05-21,17:08:37,17:41:36,NA,incomplete,27,filling,1,left,Green_Star_Dots_4.jpg,Blue_Triangle_Dots_2.jpg,Green_Circle_Chess_3.jpg,left,511.0299999942072,true,NA,NA,NA,NA,NA,NA,NA,NA,true
YeIybkNQ,3y7ltze0zwz7ft0pae7k34mi28juzv,39kfrkbfir8eki4h98yufbhi0qtyo4,YeIybkNQ,2020-0188,2020-05-21,17:08:37,17:41:36,NA,incomplete,28,filling,1,left,Blue_Plus_Grid_4.jpg,Red_Circle_Grid_1.jpg,Blue_Star_Stripes_3.jpg,left,438.8349999935599,true,NA,NA,NA,NA,NA,NA,NA,NA,true
YeIybkNQ,3y7ltze0zwz7ft0pae7k34mi28juzv,39kfrkbfir8eki4h98yufbhi0qtyo4,YeIybkNQ,2020-0188,2020-05-21,17:08:37,17:41:36,NA,incomplete,29,filling,0,left,Purple_Star_Chess_2.jpg,Green_Circle_Chess_3.jpg,Purple_Triangle_Stripes_4.jpg,left,444.7350000118604,true,NA,NA,NA,NA,NA,NA,NA,NA,true
YeIybkNQ,3y7ltze0zwz7ft0pae7k34mi28juzv,39kfrkbfir8eki4h98yufbhi0qtyo4,YeIybkNQ,2020-0188,2020-05-21,17:08:37,17:41:36,NA,incomplete,30,filling,1,left,Red_Star_Stripes_3.jpg,Purple_Triangle_Stripes_2.jpg,Red_Circle_Dots_1.jpg,left,436.77000000025146,true,NA,NA,NA,NA,NA,NA,NA,NA,true
YeIybkNQ,3y7ltze0zwz7ft0pae7k34mi28juzv,39kfrkbfir8eki4h98yufbhi0qtyo4,YeIybkNQ,2020-0188,2020-05-21,17:08:37,17:41:36,NA,incomplete,31,filling,1,left,Green_Star_Dots_4.jpg,Purple_Plus_Dots_2.jpg,Green_Triangle_Stripes_3.jpg,left,456.3800000032643,true,NA,NA,NA,NA,NA,NA,NA,NA,true
YeIybkNQ,3y7ltze0zwz7ft0pae7k34mi28juzv,39kfrkbfir8eki4h98yufbhi0qtyo4,YeIybkNQ,2020-0188,2020-05-21,17:08:37,17:41:36,NA,incomplete,32,filling,1,left,Red_Triangle_Chess_2.jpg,Green_Plus_Chess_4.jpg,Red_Star_Grid_1.jpg,left,1029.8100000072736,true,NA,NA,NA,NA,NA,NA,NA,NA,true
YeIybkNQ,3y7ltze0zwz7ft0pae7k34mi28juzv,39kfrkbfir8eki4h98yufbhi0qtyo4,YeIybkNQ,2020-0188,2020-05-21,17:08:37,17:41:36,NA,incomplete,33,filling,1,right,Green_Plus_Chess_3.jpg,Green_Star_Dots_2.jpg,Purple_Triangle_Chess_1.jpg,right,570.9449999994831,true,NA,NA,NA,NA,NA,NA,NA,NA,true
YeIybkNQ,3y7ltze0zwz7ft0pae7k34mi28juzv,39kfrkbfir8eki4h98yufbhi0qtyo4,YeIybkNQ,2020-0188,2020-05-21,17:08:37,17:41:36,NA,incomplete,34,filling,0,left,Purple_Plus_Chess_4.jpg,Red_Triangle_Chess_2.jpg,Purple_Star_Stripes_3.jpg,left,472.62500000942964,true,NA,NA,NA,NA,NA,NA,NA,NA,true
YeIybkNQ,3y7ltze0zwz7ft0pae7k34mi28juzv,39kfrkbfir8eki4h98yufbhi0qtyo4,YeIybkNQ,2020-0188,2020-05-21,17:08:37,17:41:36,NA,incomplete,35,filling,1,left,Purple_Triangle_Dots_1.jpg,Red_Plus_Dots_2.jpg,Purple_Star_Grid_4.jpg,left,522.6149999944028,true,NA,NA,NA,NA,NA,NA,NA,NA,true
YeIybkNQ,3y7ltze0zwz7ft0pae7k34mi28juzv,39kfrkbfir8eki4h98yufbhi0qtyo4,YeIybkNQ,2020-0188,2020-05-21,17:08:37,17:41:36,NA,incomplete,36,filling,0,right,Purple_Triangle_Dots_2.jpg,Purple_Plus_Grid_1.jpg,Blue_Circle_Dots_4.jpg,right,494.3199999979697,true,NA,NA,NA,NA,NA,NA,NA,NA,true
YeIybkNQ,3y7ltze0zwz7ft0pae7k34mi28juzv,39kfrkbfir8eki4h98yufbhi0qtyo4,YeIybkNQ,2020-0188,2020-05-21,17:08:37,17:41:36,NA,incomplete,37,filling,1,right,Blue_Plus_Chess_1.jpg,Blue_Circle_Grid_2.jpg,Green_Star_Chess_4.jpg,right,690.1599999982864,true,NA,NA,NA,NA,NA,NA,NA,NA,true
YeIybkNQ,3y7ltze0zwz7ft0pae7k34mi28juzv,39kfrkbfir8eki4h98yufbhi0qtyo4,YeIybkNQ,2020-0188,2020-05-21,17:08:37,17:41:36,NA,incomplete,38,filling,0,right,Green_Triangle_Stripes_1.jpg,Green_Star_Dots_4.jpg,Blue_Plus_Stripes_3.jpg,right,655.5949999892619,true,NA,NA,NA,NA,NA,NA,NA,NA,true
YeIybkNQ,3y7ltze0zwz7ft0pae7k34mi28juzv,39kfrkbfir8eki4h98yufbhi0qtyo4,YeIybkNQ,2020-0188,2020-05-21,17:08:37,17:41:36,NA,incomplete,39,filling,1,right,Red_Plus_Dots_2.jpg,Red_Star_Grid_4.jpg,Blue_Circle_Dots_3.jpg,right,1109.5950000017183,true,NA,NA,NA,NA,NA,NA,NA,NA,true
YeIybkNQ,3y7ltze0zwz7ft0pae7k34mi28juzv,39kfrkbfir8eki4h98yufbhi0qtyo4,YeIybkNQ,2020-0188,2020-05-21,17:08:37,17:41:36,NA,incomplete,0,color,1,left,Blue_Triangle_Stripes_3.jpg,Blue_Plus_Chess_4.jpg,Red_Circle_Stripes_1.jpg,left,621.1899999906309,true,high,NA,NA,NA,NA,NA,NA,NA,false
YeIybkNQ,3y7ltze0zwz7ft0pae7k34mi28juzv,39kfrkbfir8eki4h98yufbhi0qtyo4,YeIybkNQ,2020-0188,2020-05-21,17:08:37,17:41:36,NA,incomplete,1,color,0,right,Red_Star_Chess_3.jpg,Purple_Triangle_Chess_4.jpg,Red_Plus_Grid_1.jpg,right,592.6500000059605,true,high,NA,NA,NA,NA,NA,NA,NA,false
YeIybkNQ,3y7ltze0zwz7ft0pae7k34mi28juzv,39kfrkbfir8eki4h98yufbhi0qtyo4,YeIybkNQ,2020-0188,2020-05-21,17:08:37,17:41:36,NA,incomplete,2,color,1,left,Red_Circle_Grid_3.jpg,Red_Triangle_Stripes_2.jpg,Purple_Star_Grid_4.jpg,left,428.9100000022445,true,high,NA,NA,NA,NA,NA,NA,NA,false
YeIybkNQ,3y7ltze0zwz7ft0pae7k34mi28juzv,39kfrkbfir8eki4h98yufbhi0qtyo4,YeIybkNQ,2020-0188,2020-05-21,17:08:37,17:41:36,NA,incomplete,3,color,1,left,Blue_Plus_Dots_4.jpg,Blue_Triangle_Grid_2.jpg,Purple_Circle_Dots_1.jpg,left,485.14000000432134,true,high,NA,NA,NA,NA,NA,NA,NA,false
YeIybkNQ,3y7ltze0zwz7ft0pae7k34mi28juzv,39kfrkbfir8eki4h98yufbhi0qtyo4,YeIybkNQ,2020-0188,2020-05-21,17:08:37,17:41:36,NA,incomplete,4,color,1,right,Green_Triangle_Stripes_4.jpg,Purple_Plus_Stripes_3.jpg,Green_Circle_Grid_1.jpg,right,441.56500000087544,true,high,NA,NA,NA,NA,NA,NA,NA,false
YeIybkNQ,3y7ltze0zwz7ft0pae7k34mi28juzv,39kfrkbfir8eki4h98yufbhi0qtyo4,YeIybkNQ,2020-0188,2020-05-21,17:08:37,17:41:36,NA,incomplete,5,color,1,left,Green_Triangle_Stripes_4.jpg,Green_Star_Grid_1.jpg,Purple_Plus_Stripes_2.jpg,left,463.2350000026636,true,high,NA,NA,NA,NA,NA,NA,NA,false
YeIybkNQ,3y7ltze0zwz7ft0pae7k34mi28juzv,39kfrkbfir8eki4h98yufbhi0qtyo4,YeIybkNQ,2020-0188,2020-05-21,17:08:37,17:41:36,NA,incomplete,6,color,1,left,Purple_Plus_Dots_4.jpg,Purple_Star_Stripes_2.jpg,Blue_Circle_Dots_1.jpg,left,372.08500000997446,true,high,NA,NA,NA,NA,NA,NA,NA,false
YeIybkNQ,3y7ltze0zwz7ft0pae7k34mi28juzv,39kfrkbfir8eki4h98yufbhi0qtyo4,YeIybkNQ,2020-0188,2020-05-21,17:08:37,17:41:36,NA,incomplete,7,color,1,left,Green_Circle_Dots_4.jpg,Green_Triangle_Stripes_3.jpg,Blue_Star_Dots_1.jpg,left,413.1400000040885,true,high,NA,NA,NA,NA,NA,NA,NA,false
YeIybkNQ,3y7ltze0zwz7ft0pae7k34mi28juzv,39kfrkbfir8eki4h98yufbhi0qtyo4,YeIybkNQ,2020-0188,2020-05-21,17:08:37,17:41:36,NA,incomplete,8,color,1,left,Red_Circle_Stripes_2.jpg,Red_Plus_Chess_1.jpg,Blue_Star_Stripes_4.jpg,left,381.6850000002887,true,high,NA,NA,NA,NA,NA,NA,NA,false
YeIybkNQ,3y7ltze0zwz7ft0pae7k34mi28juzv,39kfrkbfir8eki4h98yufbhi0qtyo4,YeIybkNQ,2020-0188,2020-05-21,17:08:37,17:41:36,NA,incomplete,9,color,1,right,Red_Plus_Chess_2.jpg,Blue_Triangle_Chess_4.jpg,Red_Star_Stripes_1.jpg,right,396.8800000003539,true,high,NA,NA,NA,NA,NA,NA,NA,false
YeIybkNQ,3y7ltze0zwz7ft0pae7k34mi28juzv,39kfrkbfir8eki4h98yufbhi0qtyo4,YeIybkNQ,2020-0188,2020-05-21,17:08:37,17:41:36,NA,incomplete,10,filling,1,left,Blue_Star_Dots_3.jpg,Red_Triangle_Dots_4.jpg,Blue_Circle_Grid_1.jpg,left,341.0850000074133,true,high,NA,NA,NA,NA,NA,NA,NA,false
YeIybkNQ,3y7ltze0zwz7ft0pae7k34mi28juzv,39kfrkbfir8eki4h98yufbhi0qtyo4,YeIybkNQ,2020-0188,2020-05-21,17:08:37,17:41:36,NA,incomplete,11,filling,1,left,Green_Plus_Stripes_4.jpg,Red_Star_Stripes_3.jpg,Green_Circle_Chess_1.jpg,right,522.6950000068173,false,high,NA,NA,NA,NA,NA,NA,NA,false
YeIybkNQ,3y7ltze0zwz7ft0pae7k34mi28juzv,39kfrkbfir8eki4h98yufbhi0qtyo4,YeIybkNQ,2020-0188,2020-05-21,17:08:37,17:41:36,NA,incomplete,12,filling,1,left,Blue_Plus_Chess_4.jpg,Green_Circle_Chess_3.jpg,Blue_Star_Dots_2.jpg,left,425.94000000087544,true,high,NA,NA,NA,NA,NA,NA,NA,false
YeIybkNQ,3y7ltze0zwz7ft0pae7k34mi28juzv,39kfrkbfir8eki4h98yufbhi0qtyo4,YeIybkNQ,2020-0188,2020-05-21,17:08:37,17:41:36,NA,incomplete,13,filling,1,right,Red_Circle_Stripes_1.jpg,Red_Plus_Grid_2.jpg,Purple_Triangle_Stripes_3.jpg,right,535.6100000063889,true,high,NA,NA,NA,NA,NA,NA,NA,false
YeIybkNQ,3y7ltze0zwz7ft0pae7k34mi28juzv,39kfrkbfir8eki4h98yufbhi0qtyo4,YeIybkNQ,2020-0188,2020-05-21,17:08:37,17:41:36,NA,incomplete,14,filling,1,left,Blue_Plus_Chess_1.jpg,Red_Star_Chess_4.jpg,Blue_Triangle_Dots_2.jpg,right,418.5200000065379,false,high,NA,NA,NA,NA,NA,NA,NA,false
YeIybkNQ,3y7ltze0zwz7ft0pae7k34mi28juzv,39kfrkbfir8eki4h98yufbhi0qtyo4,YeIybkNQ,2020-0188,2020-05-21,17:08:37,17:41:36,NA,incomplete,15,filling,1,left,Blue_Triangle_Grid_2.jpg,Green_Plus_Grid_3.jpg,Blue_Star_Chess_4.jpg,left,454.5800000051968,true,high,NA,NA,NA,NA,NA,NA,NA,false
YeIybkNQ,3y7ltze0zwz7ft0pae7k34mi28juzv,39kfrkbfir8eki4h98yufbhi0qtyo4,YeIybkNQ,2020-0188,2020-05-21,17:08:37,17:41:36,NA,incomplete,16,filling,1,left,Red_Triangle_Grid_3.jpg,Purple_Star_Grid_2.jpg,Red_Circle_Stripes_1.jpg,right,378.3699999912642,false,high,NA,NA,NA,NA,NA,NA,NA,false
YeIybkNQ,3y7ltze0zwz7ft0pae7k34mi28juzv,39kfrkbfir8eki4h98yufbhi0qtyo4,YeIybkNQ,2020-0188,2020-05-21,17:08:37,17:41:36,NA,incomplete,17,filling,1,left,Blue_Star_Grid_4.jpg,Red_Triangle_Grid_2.jpg,Blue_Plus_Chess_1.jpg,left,764.494999995688,true,high,NA,NA,NA,NA,NA,NA,NA,false
YeIybkNQ,3y7ltze0zwz7ft0pae7k34mi28juzv,39kfrkbfir8eki4h98yufbhi0qtyo4,YeIybkNQ,2020-0188,2020-05-21,17:08:37,17:41:36,NA,incomplete,18,filling,1,left,Green_Plus_Dots_1.jpg,Purple_Star_Dots_4.jpg,Green_Triangle_Chess_3.jpg,left,737.2449999966193,true,high,NA,NA,NA,NA,NA,NA,NA,false
YeIybkNQ,3y7ltze0zwz7ft0pae7k34mi28juzv,39kfrkbfir8eki4h98yufbhi0qtyo4,YeIybkNQ,2020-0188,2020-05-21,17:08:37,17:41:36,NA,incomplete,19,filling,1,left,Red_Star_Chess_2.jpg,Blue_Triangle_Chess_1.jpg,Red_Plus_Stripes_3.jpg,left,503.06500001158565,true,high,NA,NA,NA,NA,NA,NA,NA,false
YeIybkNQ,3y7ltze0zwz7ft0pae7k34mi28juzv,39kfrkbfir8eki4h98yufbhi0qtyo4,YeIybkNQ,2020-0188,2020-05-21,17:08:37,17:41:36,NA,incomplete,20,color,1,left,Blue_Plus_Chess_1.jpg,Blue_Star_Stripes_2.jpg,Green_Triangle_Chess_3.jpg,right,506.5350000075996,false,high,NA,NA,NA,NA,NA,NA,NA,false
YeIybkNQ,3y7ltze0zwz7ft0pae7k34mi28juzv,39kfrkbfir8eki4h98yufbhi0qtyo4,YeIybkNQ,2020-0188,2020-05-21,17:08:37,17:41:36,NA,incomplete,21,color,1,right,Green_Star_Chess_1.jpg,Red_Circle_Chess_4.jpg,Green_Triangle_Grid_3.jpg,left,510.51500000199303,false,high,NA,NA,NA,NA,NA,NA,NA,false
YeIybkNQ,3y7ltze0zwz7ft0pae7k34mi28juzv,39kfrkbfir8eki4h98yufbhi0qtyo4,YeIybkNQ,2020-0188,2020-05-21,17:08:37,17:41:36,NA,incomplete,22,color,1,left,Blue_Star_Grid_1.jpg,Blue_Triangle_Chess_2.jpg,Red_Plus_Grid_3.jpg,left,501.36000000918284,true,high,NA,NA,NA,NA,NA,NA,NA,false
YeIybkNQ,3y7ltze0zwz7ft0pae7k34mi28juzv,39kfrkbfir8eki4h98yufbhi0qtyo4,YeIybkNQ,2020-0188,2020-05-21,17:08:37,17:41:36,NA,incomplete,23,color,0,left,Red_Circle_Chess_1.jpg,Red_Plus_Dots_4.jpg,Purple_Triangle_Chess_3.jpg,left,515.2299999897368,true,high,NA,NA,NA,NA,NA,NA,NA,false
YeIybkNQ,3y7ltze0zwz7ft0pae7k34mi28juzv,39kfrkbfir8eki4h98yufbhi0qtyo4,YeIybkNQ,2020-0188,2020-05-21,17:08:37,17:41:36,NA,incomplete,24,color,1,right,Red_Plus_Dots_1.jpg,Green_Star_Dots_2.jpg,Red_Triangle_Grid_4.jpg,right,475.03999999025837,true,high,NA,NA,NA,NA,NA,NA,NA,false
YeIybkNQ,3y7ltze0zwz7ft0pae7k34mi28juzv,39kfrkbfir8eki4h98yufbhi0qtyo4,YeIybkNQ,2020-0188,2020-05-21,17:08:37,17:41:36,NA,incomplete,25,color,0,left,Blue_Plus_Dots_2.jpg,Blue_Circle_Grid_1.jpg,Green_Star_Dots_4.jpg,left,692.6099999982398,true,high,NA,NA,NA,NA,NA,NA,NA,false
YeIybkNQ,3y7ltze0zwz7ft0pae7k34mi28juzv,39kfrkbfir8eki4h98yufbhi0qtyo4,YeIybkNQ,2020-0188,2020-05-21,17:08:37,17:41:36,NA,incomplete,26,color,1,left,Red_Plus_Stripes_2.jpg,Red_Triangle_Dots_4.jpg,Blue_Star_Stripes_1.jpg,right,522.2050000010058,false,high,NA,NA,NA,NA,NA,NA,NA,false
YeIybkNQ,3y7ltze0zwz7ft0pae7k34mi28juzv,39kfrkbfir8eki4h98yufbhi0qtyo4,YeIybkNQ,2020-0188,2020-05-21,17:08:37,17:41:36,NA,incomplete,27,color,1,right,Purple_Star_Chess_3.jpg,Red_Triangle_Chess_4.jpg,Purple_Plus_Dots_1.jpg,right,530.6199999905657,true,high,NA,NA,NA,NA,NA,NA,NA,false
YeIybkNQ,3y7ltze0zwz7ft0pae7k34mi28juzv,39kfrkbfir8eki4h98yufbhi0qtyo4,YeIybkNQ,2020-0188,2020-05-21,17:08:37,17:41:36,NA,incomplete,28,color,0,right,Blue_Star_Chess_1.jpg,Green_Plus_Chess_3.jpg,Blue_Triangle_Stripes_2.jpg,left,618.1899999936577,false,high,NA,NA,NA,NA,NA,NA,NA,false
YeIybkNQ,3y7ltze0zwz7ft0pae7k34mi28juzv,39kfrkbfir8eki4h98yufbhi0qtyo4,YeIybkNQ,2020-0188,2020-05-21,17:08:37,17:41:36,NA,incomplete,29,color,1,left,Red_Circle_Grid_3.jpg,Red_Star_Chess_2.jpg,Purple_Triangle_Grid_4.jpg,left,430.4100000008475,true,high,NA,NA,NA,NA,NA,NA,NA,false
YeIybkNQ,3y7ltze0zwz7ft0pae7k34mi28juzv,39kfrkbfir8eki4h98yufbhi0qtyo4,YeIybkNQ,2020-0188,2020-05-21,17:08:37,17:41:36,NA,incomplete,30,filling,1,left,Green_Circle_Stripes_3.jpg,Blue_Star_Stripes_2.jpg,Green_Plus_Chess_1.jpg,right,406.7700000014156,false,high,NA,NA,NA,NA,NA,NA,NA,false
YeIybkNQ,3y7ltze0zwz7ft0pae7k34mi28juzv,39kfrkbfir8eki4h98yufbhi0qtyo4,YeIybkNQ,2020-0188,2020-05-21,17:08:37,17:41:36,NA,incomplete,31,filling,1,left,Green_Triangle_Grid_3.jpg,Purple_Star_Grid_4.jpg,Green_Plus_Chess_1.jpg,right,509.3899999917485,false,high,NA,NA,NA,NA,NA,NA,NA,false
YeIybkNQ,3y7ltze0zwz7ft0pae7k34mi28juzv,39kfrkbfir8eki4h98yufbhi0qtyo4,YeIybkNQ,2020-0188,2020-05-21,17:08:37,17:41:36,NA,incomplete,32,filling,1,left,Green_Triangle_Grid_3.jpg,Purple_Plus_Grid_1.jpg,Green_Star_Stripes_2.jpg,left,558.78000000678,true,high,NA,NA,NA,NA,NA,NA,NA,false
YeIybkNQ,3y7ltze0zwz7ft0pae7k34mi28juzv,39kfrkbfir8eki4h98yufbhi0qtyo4,YeIybkNQ,2020-0188,2020-05-21,17:08:37,17:41:36,NA,incomplete,33,filling,1,left,Green_Star_Dots_2.jpg,Blue_Plus_Dots_4.jpg,Green_Triangle_Chess_1.jpg,left,520.3850000107195,true,high,NA,NA,NA,NA,NA,NA,NA,false
YeIybkNQ,3y7ltze0zwz7ft0pae7k34mi28juzv,39kfrkbfir8eki4h98yufbhi0qtyo4,YeIybkNQ,2020-0188,2020-05-21,17:08:37,17:41:36,NA,incomplete,34,filling,1,left,Purple_Triangle_Stripes_1.jpg,Red_Circle_Stripes_2.jpg,Purple_Plus_Grid_4.jpg,left,523.3299999963492,true,high,NA,NA,NA,NA,NA,NA,NA,false
YeIybkNQ,3y7ltze0zwz7ft0pae7k34mi28juzv,39kfrkbfir8eki4h98yufbhi0qtyo4,YeIybkNQ,2020-0188,2020-05-21,17:08:37,17:41:36,NA,incomplete,35,filling,1,right,Purple_Star_Chess_4.jpg,Purple_Circle_Grid_3.jpg,Red_Plus_Chess_1.jpg,right,545.8849999995437,true,high,NA,NA,NA,NA,NA,NA,NA,false
YeIybkNQ,3y7ltze0zwz7ft0pae7k34mi28juzv,39kfrkbfir8eki4h98yufbhi0qtyo4,YeIybkNQ,2020-0188,2020-05-21,17:08:37,17:41:36,NA,incomplete,36,filling,1,right,Green_Plus_Stripes_1.jpg,Green_Circle_Grid_3.jpg,Red_Star_Stripes_4.jpg,left,535.640000001993,false,high,NA,NA,NA,NA,NA,NA,NA,false
YeIybkNQ,3y7ltze0zwz7ft0pae7k34mi28juzv,39kfrkbfir8eki4h98yufbhi0qtyo4,YeIybkNQ,2020-0188,2020-05-21,17:08:37,17:41:36,NA,incomplete,37,filling,1,right,Purple_Star_Stripes_4.jpg,Purple_Circle_Dots_3.jpg,Blue_Triangle_Stripes_2.jpg,right,431.42000000784174,true,high,NA,NA,NA,NA,NA,NA,NA,false
YeIybkNQ,3y7ltze0zwz7ft0pae7k34mi28juzv,39kfrkbfir8eki4h98yufbhi0qtyo4,YeIybkNQ,2020-0188,2020-05-21,17:08:37,17:41:36,NA,incomplete,38,filling,1,left,Red_Circle_Dots_3.jpg,Blue_Star_Dots_2.jpg,Red_Plus_Stripes_1.jpg,left,492.6150000100024,true,high,NA,NA,NA,NA,NA,NA,NA,false
YeIybkNQ,3y7ltze0zwz7ft0pae7k34mi28juzv,39kfrkbfir8eki4h98yufbhi0qtyo4,YeIybkNQ,2020-0188,2020-05-21,17:08:37,17:41:36,NA,incomplete,39,filling,1,right,Blue_Plus_Grid_3.jpg,Blue_Circle_Chess_1.jpg,Purple_Triangle_Grid_2.jpg,right,436.7999999958556,true,high,NA,NA,NA,NA,NA,NA,NA,false
YeIybkNQ,3y7ltze0zwz7ft0pae7k34mi28juzv,39kfrkbfir8eki4h98yufbhi0qtyo4,YeIybkNQ,2020-0188,2020-05-21,17:08:37,17:41:36,NA,incomplete,40,color,1,left,Red_Triangle_Dots_2.jpg,Red_Circle_Chess_3.jpg,Green_Plus_Dots_4.jpg,right,493.3299999977462,false,high,NA,NA,NA,NA,NA,NA,NA,false
YeIybkNQ,3y7ltze0zwz7ft0pae7k34mi28juzv,39kfrkbfir8eki4h98yufbhi0qtyo4,YeIybkNQ,2020-0188,2020-05-21,17:08:37,17:41:36,NA,incomplete,41,color,1,left,Blue_Triangle_Chess_1.jpg,Blue_Star_Dots_4.jpg,Green_Circle_Chess_2.jpg,left,439.41000000643544,true,high,NA,NA,NA,NA,NA,NA,NA,false
YeIybkNQ,3y7ltze0zwz7ft0pae7k34mi28juzv,39kfrkbfir8eki4h98yufbhi0qtyo4,YeIybkNQ,2020-0188,2020-05-21,17:08:37,17:41:36,NA,incomplete,42,color,1,right,Purple_Star_Stripes_2.jpg,Red_Triangle_Stripes_4.jpg,Purple_Plus_Dots_3.jpg,right,563.920000000624,true,high,NA,NA,NA,NA,NA,NA,NA,false
YeIybkNQ,3y7ltze0zwz7ft0pae7k34mi28juzv,39kfrkbfir8eki4h98yufbhi0qtyo4,YeIybkNQ,2020-0188,2020-05-21,17:08:37,17:41:36,NA,incomplete,43,color,1,left,Blue_Plus_Dots_4.jpg,Blue_Circle_Chess_3.jpg,Red_Triangle_Dots_2.jpg,left,534.3450000071898,true,high,NA,NA,NA,NA,NA,NA,NA,false
YeIybkNQ,3y7ltze0zwz7ft0pae7k34mi28juzv,39kfrkbfir8eki4h98yufbhi0qtyo4,YeIybkNQ,2020-0188,2020-05-21,17:08:37,17:41:36,NA,incomplete,44,color,1,right,Green_Plus_Chess_4.jpg,Purple_Circle_Chess_3.jpg,Green_Star_Dots_1.jpg,right,364.5550000073854,true,high,NA,NA,NA,NA,NA,NA,NA,false
YeIybkNQ,3y7ltze0zwz7ft0pae7k34mi28juzv,39kfrkbfir8eki4h98yufbhi0qtyo4,YeIybkNQ,2020-0188,2020-05-21,17:08:37,17:41:36,NA,incomplete,45,color,1,left,Purple_Circle_Chess_2.jpg,Purple_Triangle_Dots_3.jpg,Green_Star_Chess_1.jpg,right,378.68999999784864,false,high,NA,NA,NA,NA,NA,NA,NA,false
YeIybkNQ,3y7ltze0zwz7ft0pae7k34mi28juzv,39kfrkbfir8eki4h98yufbhi0qtyo4,YeIybkNQ,2020-0188,2020-05-21,17:08:37,17:41:36,NA,incomplete,46,color,1,right,Red_Plus_Grid_2.jpg,Blue_Star_Grid_1.jpg,Red_Triangle_Dots_3.jpg,right,538.6549999965355,true,high,NA,NA,NA,NA,NA,NA,NA,false
YeIybkNQ,3y7ltze0zwz7ft0pae7k34mi28juzv,39kfrkbfir8eki4h98yufbhi0qtyo4,YeIybkNQ,2020-0188,2020-05-21,17:08:37,17:41:36,NA,incomplete,47,color,1,right,Red_Plus_Stripes_1.jpg,Purple_Star_Stripes_2.jpg,Red_Triangle_Grid_4.jpg,right,340.28499999828637,true,high,NA,NA,NA,NA,NA,NA,NA,false
YeIybkNQ,3y7ltze0zwz7ft0pae7k34mi28juzv,39kfrkbfir8eki4h98yufbhi0qtyo4,YeIybkNQ,2020-0188,2020-05-21,17:08:37,17:41:36,NA,incomplete,48,color,1,right,Blue_Plus_Chess_3.jpg,Red_Star_Chess_4.jpg,Blue_Triangle_Dots_2.jpg,right,506.74999998603016,true,high,NA,NA,NA,NA,NA,NA,NA,false
YeIybkNQ,3y7ltze0zwz7ft0pae7k34mi28juzv,39kfrkbfir8eki4h98yufbhi0qtyo4,YeIybkNQ,2020-0188,2020-05-21,17:08:37,17:41:36,NA,incomplete,49,color,0,left,Green_Plus_Chess_4.jpg,Green_Star_Dots_3.jpg,Blue_Triangle_Chess_2.jpg,right,384.46499999566004,false,high,NA,NA,NA,NA,NA,NA,NA,false
YeIybkNQ,3y7ltze0zwz7ft0pae7k34mi28juzv,39kfrkbfir8eki4h98yufbhi0qtyo4,YeIybkNQ,2020-0188,2020-05-21,17:08:37,17:41:36,NA,incomplete,50,filling,1,left,Green_Circle_Chess_2.jpg,Purple_Triangle_Chess_4.jpg,Green_Star_Dots_1.jpg,left,494.33999999030493,true,high,NA,NA,NA,NA,NA,NA,NA,false
YeIybkNQ,3y7ltze0zwz7ft0pae7k34mi28juzv,39kfrkbfir8eki4h98yufbhi0qtyo4,YeIybkNQ,2020-0188,2020-05-21,17:08:37,17:41:36,NA,incomplete,51,filling,1,right,Blue_Circle_Grid_1.jpg,Blue_Plus_Stripes_4.jpg,Purple_Triangle_Grid_2.jpg,right,435.84499999997206,true,high,NA,NA,NA,NA,NA,NA,NA,false
YeIybkNQ,3y7ltze0zwz7ft0pae7k34mi28juzv,39kfrkbfir8eki4h98yufbhi0qtyo4,YeIybkNQ,2020-0188,2020-05-21,17:08:37,17:41:36,NA,incomplete,52,filling,1,left,Red_Star_Stripes_2.jpg,Purple_Triangle_Stripes_3.jpg,Red_Circle_Dots_4.jpg,left,350.9099999938626,true,high,NA,NA,NA,NA,NA,NA,NA,false
YeIybkNQ,3y7ltze0zwz7ft0pae7k34mi28juzv,39kfrkbfir8eki4h98yufbhi0qtyo4,YeIybkNQ,2020-0188,2020-05-21,17:08:37,17:41:36,NA,incomplete,53,filling,1,right,Green_Plus_Dots_3.jpg,Green_Triangle_Chess_2.jpg,Purple_Circle_Dots_1.jpg,right,347.63000000384636,true,high,NA,NA,NA,NA,NA,NA,NA,false
YeIybkNQ,3y7ltze0zwz7ft0pae7k34mi28juzv,39kfrkbfir8eki4h98yufbhi0qtyo4,YeIybkNQ,2020-0188,2020-05-21,17:08:37,17:41:36,NA,incomplete,54,filling,0,left,Green_Plus_Chess_4.jpg,Red_Star_Chess_2.jpg,Green_Circle_Dots_1.jpg,left,411.09500000299886,true,high,NA,NA,NA,NA,NA,NA,NA,false
YeIybkNQ,3y7ltze0zwz7ft0pae7k34mi28juzv,39kfrkbfir8eki4h98yufbhi0qtyo4,YeIybkNQ,2020-0188,2020-05-21,17:08:37,17:41:36,NA,incomplete,55,filling,1,left,Red_Plus_Chess_3.jpg,Green_Triangle_Chess_2.jpg,Red_Circle_Stripes_1.jpg,right,580.7500000081491,false,high,NA,NA,NA,NA,NA,NA,NA,false
YeIybkNQ,3y7ltze0zwz7ft0pae7k34mi28juzv,39kfrkbfir8eki4h98yufbhi0qtyo4,YeIybkNQ,2020-0188,2020-05-21,17:08:37,17:41:36,NA,incomplete,56,filling,1,left,Purple_Star_Chess_3.jpg,Blue_Plus_Chess_2.jpg,Purple_Triangle_Dots_4.jpg,left,422.4799999939278,true,high,NA,NA,NA,NA,NA,NA,NA,false
YeIybkNQ,3y7ltze0zwz7ft0pae7k34mi28juzv,39kfrkbfir8eki4h98yufbhi0qtyo4,YeIybkNQ,2020-0188,2020-05-21,17:08:37,17:41:36,NA,incomplete,57,filling,1,right,Blue_Star_Chess_4.jpg,Blue_Triangle_Dots_3.jpg,Red_Plus_Chess_1.jpg,right,467.414999992121,true,high,NA,NA,NA,NA,NA,NA,NA,false
YeIybkNQ,3y7ltze0zwz7ft0pae7k34mi28juzv,39kfrkbfir8eki4h98yufbhi0qtyo4,YeIybkNQ,2020-0188,2020-05-21,17:08:37,17:41:36,NA,incomplete,58,filling,0,left,Red_Circle_Chess_1.jpg,Green_Plus_Chess_4.jpg,Red_Triangle_Stripes_2.jpg,left,491.8849999960512,true,high,NA,NA,NA,NA,NA,NA,NA,false
YeIybkNQ,3y7ltze0zwz7ft0pae7k34mi28juzv,39kfrkbfir8eki4h98yufbhi0qtyo4,YeIybkNQ,2020-0188,2020-05-21,17:08:37,17:41:36,NA,incomplete,59,filling,0,left,Red_Plus_Stripes_4.jpg,Green_Circle_Stripes_1.jpg,Red_Triangle_Chess_2.jpg,right,378.0700000061188,false,high,NA,NA,NA,NA,NA,NA,NA,false
YeIybkNQ,3y7ltze0zwz7ft0pae7k34mi28juzv,39kfrkbfir8eki4h98yufbhi0qtyo4,YeIybkNQ,2020-0188,2020-05-21,17:08:37,17:41:36,NA,incomplete,60,color,1,left,Purple_Star_Chess_2.jpg,Purple_Plus_Dots_4.jpg,Blue_Triangle_Chess_1.jpg,left,335.59999999124557,true,high,NA,NA,NA,NA,NA,NA,NA,false
YeIybkNQ,3y7ltze0zwz7ft0pae7k34mi28juzv,39kfrkbfir8eki4h98yufbhi0qtyo4,YeIybkNQ,2020-0188,2020-05-21,17:08:37,17:41:36,NA,incomplete,61,color,0,right,Red_Triangle_Chess_4.jpg,Purple_Plus_Chess_3.jpg,Red_Star_Stripes_2.jpg,right,320.4600000027567,true,high,NA,NA,NA,NA,NA,NA,NA,false
YeIybkNQ,3y7ltze0zwz7ft0pae7k34mi28juzv,39kfrkbfir8eki4h98yufbhi0qtyo4,YeIybkNQ,2020-0188,2020-05-21,17:08:37,17:41:36,NA,incomplete,62,color,0,left,Red_Plus_Chess_2.jpg,Red_Star_Dots_1.jpg,Blue_Circle_Chess_4.jpg,left,387.21000000089407,true,high,NA,NA,NA,NA,NA,NA,NA,false
YeIybkNQ,3y7ltze0zwz7ft0pae7k34mi28juzv,39kfrkbfir8eki4h98yufbhi0qtyo4,YeIybkNQ,2020-0188,2020-05-21,17:08:37,17:41:36,NA,incomplete,63,color,0,right,Green_Plus_Dots_2.jpg,Purple_Circle_Dots_1.jpg,Green_Star_Stripes_3.jpg,right,319.5899999991525,true,high,NA,NA,NA,NA,NA,NA,NA,false
YeIybkNQ,3y7ltze0zwz7ft0pae7k34mi28juzv,39kfrkbfir8eki4h98yufbhi0qtyo4,YeIybkNQ,2020-0188,2020-05-21,17:08:37,17:41:36,NA,incomplete,64,color,1,right,Red_Plus_Grid_3.jpg,Blue_Circle_Grid_2.jpg,Red_Triangle_Dots_1.jpg,left,385.02000000164844,false,high,NA,NA,NA,NA,NA,NA,NA,false
YeIybkNQ,3y7ltze0zwz7ft0pae7k34mi28juzv,39kfrkbfir8eki4h98yufbhi0qtyo4,YeIybkNQ,2020-0188,2020-05-21,17:08:37,17:41:36,NA,incomplete,65,color,1,right,Blue_Circle_Chess_4.jpg,Red_Triangle_Chess_1.jpg,Blue_Plus_Grid_3.jpg,right,441.65000000805594,true,high,NA,NA,NA,NA,NA,NA,NA,false
YeIybkNQ,3y7ltze0zwz7ft0pae7k34mi28juzv,39kfrkbfir8eki4h98yufbhi0qtyo4,YeIybkNQ,2020-0188,2020-05-21,17:08:37,17:41:36,NA,incomplete,66,color,1,left,Green_Plus_Dots_4.jpg,Green_Star_Grid_2.jpg,Red_Circle_Dots_1.jpg,left,345.86500001023524,true,high,NA,NA,NA,NA,NA,NA,NA,false
YeIybkNQ,3y7ltze0zwz7ft0pae7k34mi28juzv,39kfrkbfir8eki4h98yufbhi0qtyo4,YeIybkNQ,2020-0188,2020-05-21,17:08:37,17:41:36,NA,incomplete,67,color,1,right,Purple_Circle_Grid_4.jpg,Green_Plus_Grid_3.jpg,Purple_Triangle_Dots_2.jpg,right,376.3100000070408,true,high,NA,NA,NA,NA,NA,NA,NA,false
YeIybkNQ,3y7ltze0zwz7ft0pae7k34mi28juzv,39kfrkbfir8eki4h98yufbhi0qtyo4,YeIybkNQ,2020-0188,2020-05-21,17:08:37,17:41:36,NA,incomplete,68,color,1,right,Blue_Triangle_Grid_2.jpg,Green_Circle_Grid_4.jpg,Blue_Star_Chess_1.jpg,right,484.2499999939464,true,high,NA,NA,NA,NA,NA,NA,NA,false
YeIybkNQ,3y7ltze0zwz7ft0pae7k34mi28juzv,39kfrkbfir8eki4h98yufbhi0qtyo4,YeIybkNQ,2020-0188,2020-05-21,17:08:37,17:41:36,NA,incomplete,69,color,1,left,Blue_Triangle_Chess_2.jpg,Blue_Circle_Stripes_3.jpg,Purple_Plus_Chess_1.jpg,left,379.84500000299886,true,high,NA,NA,NA,NA,NA,NA,NA,false
YeIybkNQ,3y7ltze0zwz7ft0pae7k34mi28juzv,39kfrkbfir8eki4h98yufbhi0qtyo4,YeIybkNQ,2020-0188,2020-05-21,17:08:37,17:41:36,NA,incomplete,70,filling,0,left,Blue_Plus_Chess_3.jpg,Purple_Triangle_Chess_2.jpg,Blue_Circle_Dots_4.jpg,right,351.6950000047218,false,high,NA,NA,NA,NA,NA,NA,NA,false
YeIybkNQ,3y7ltze0zwz7ft0pae7k34mi28juzv,39kfrkbfir8eki4h98yufbhi0qtyo4,YeIybkNQ,2020-0188,2020-05-21,17:08:37,17:41:36,NA,incomplete,71,filling,1,left,Purple_Star_Stripes_3.jpg,Red_Plus_Stripes_4.jpg,Purple_Triangle_Grid_1.jpg,right,330.36499998695217,false,high,NA,NA,NA,NA,NA,NA,NA,false
YeIybkNQ,3y7ltze0zwz7ft0pae7k34mi28juzv,39kfrkbfir8eki4h98yufbhi0qtyo4,YeIybkNQ,2020-0188,2020-05-21,17:08:37,17:41:36,NA,incomplete,72,filling,1,right,Purple_Star_Stripes_2.jpg,Purple_Triangle_Dots_4.jpg,Green_Plus_Stripes_1.jpg,left,438.4550000105519,false,high,NA,NA,NA,NA,NA,NA,NA,false
YeIybkNQ,3y7ltze0zwz7ft0pae7k34mi28juzv,39kfrkbfir8eki4h98yufbhi0qtyo4,YeIybkNQ,2020-0188,2020-05-21,17:08:37,17:41:36,NA,incomplete,73,filling,1,right,Green_Circle_Grid_1.jpg,Green_Plus_Dots_4.jpg,Red_Triangle_Grid_2.jpg,right,499.8650000053458,true,high,NA,NA,NA,NA,NA,NA,NA,false
YeIybkNQ,3y7ltze0zwz7ft0pae7k34mi28juzv,39kfrkbfir8eki4h98yufbhi0qtyo4,YeIybkNQ,2020-0188,2020-05-21,17:08:37,17:41:36,NA,incomplete,74,filling,0,left,Blue_Circle_Dots_4.jpg,Red_Plus_Dots_2.jpg,Blue_Triangle_Stripes_3.jpg,left,323.65500000026077,true,high,NA,NA,NA,NA,NA,NA,NA,false
YeIybkNQ,3y7ltze0zwz7ft0pae7k34mi28juzv,39kfrkbfir8eki4h98yufbhi0qtyo4,YeIybkNQ,2020-0188,2020-05-21,17:08:37,17:41:36,NA,incomplete,75,filling,0,right,Blue_Circle_Stripes_2.jpg,Blue_Triangle_Dots_4.jpg,Purple_Star_Stripes_1.jpg,right,403.0199999976903,true,high,NA,NA,NA,NA,NA,NA,NA,false
YeIybkNQ,3y7ltze0zwz7ft0pae7k34mi28juzv,39kfrkbfir8eki4h98yufbhi0qtyo4,YeIybkNQ,2020-0188,2020-05-21,17:08:37,17:41:36,NA,incomplete,76,filling,0,right,Blue_Star_Chess_2.jpg,Blue_Triangle_Stripes_3.jpg,Purple_Plus_Chess_1.jpg,left,316.34499999927357,false,high,NA,NA,NA,NA,NA,NA,NA,false
YeIybkNQ,3y7ltze0zwz7ft0pae7k34mi28juzv,39kfrkbfir8eki4h98yufbhi0qtyo4,YeIybkNQ,2020-0188,2020-05-21,17:08:37,17:41:36,NA,incomplete,77,filling,1,right,Red_Circle_Grid_2.jpg,Red_Triangle_Stripes_3.jpg,Purple_Star_Grid_1.jpg,left,443.78500001039356,false,high,NA,NA,NA,NA,NA,NA,NA,false
YeIybkNQ,3y7ltze0zwz7ft0pae7k34mi28juzv,39kfrkbfir8eki4h98yufbhi0qtyo4,YeIybkNQ,2020-0188,2020-05-21,17:08:37,17:41:36,NA,incomplete,78,filling,1,right,Purple_Triangle_Dots_1.jpg,Purple_Plus_Grid_3.jpg,Blue_Star_Dots_4.jpg,left,564.5300000032876,false,high,NA,NA,NA,NA,NA,NA,NA,false
YeIybkNQ,3y7ltze0zwz7ft0pae7k34mi28juzv,39kfrkbfir8eki4h98yufbhi0qtyo4,YeIybkNQ,2020-0188,2020-05-21,17:08:37,17:41:36,NA,incomplete,79,filling,0,right,Green_Circle_Dots_3.jpg,Green_Plus_Grid_2.jpg,Red_Star_Dots_1.jpg,right,468.76000000326894,true,high,NA,NA,NA,NA,NA,NA,NA,false
YeIybkNQ,3y7ltze0zwz7ft0pae7k34mi28juzv,39kfrkbfir8eki4h98yufbhi0qtyo4,YeIybkNQ,2020-0188,2020-05-21,17:08:37,17:41:36,NA,incomplete,80,color,1,right,Red_Triangle_Stripes_3.jpg,Green_Plus_Stripes_1.jpg,Red_Star_Chess_2.jpg,right,425.8750000009313,true,high,NA,NA,NA,NA,NA,NA,NA,false
YeIybkNQ,3y7ltze0zwz7ft0pae7k34mi28juzv,39kfrkbfir8eki4h98yufbhi0qtyo4,YeIybkNQ,2020-0188,2020-05-21,17:08:37,17:41:36,NA,incomplete,81,color,0,left,Purple_Circle_Stripes_2.jpg,Purple_Star_Chess_4.jpg,Green_Triangle_Stripes_3.jpg,left,483.71499999496154,true,high,NA,NA,NA,NA,NA,NA,NA,false
YeIybkNQ,3y7ltze0zwz7ft0pae7k34mi28juzv,39kfrkbfir8eki4h98yufbhi0qtyo4,YeIybkNQ,2020-0188,2020-05-21,17:08:37,17:41:36,NA,incomplete,82,color,1,left,Red_Plus_Dots_3.jpg,Red_Triangle_Grid_1.jpg,Blue_Circle_Dots_4.jpg,right,458.15500000026077,false,high,NA,NA,NA,NA,NA,NA,NA,false
YeIybkNQ,3y7ltze0zwz7ft0pae7k34mi28juzv,39kfrkbfir8eki4h98yufbhi0qtyo4,YeIybkNQ,2020-0188,2020-05-21,17:08:37,17:41:36,NA,incomplete,83,color,0,left,Red_Plus_Chess_4.jpg,Red_Star_Stripes_2.jpg,Purple_Triangle_Chess_1.jpg,left,417.0799999991432,true,high,NA,NA,NA,NA,NA,NA,NA,false
YeIybkNQ,3y7ltze0zwz7ft0pae7k34mi28juzv,39kfrkbfir8eki4h98yufbhi0qtyo4,YeIybkNQ,2020-0188,2020-05-21,17:08:37,17:41:36,NA,incomplete,84,color,1,left,Green_Plus_Chess_1.jpg,Green_Star_Grid_4.jpg,Blue_Triangle_Chess_2.jpg,right,467.40500000305474,false,high,NA,NA,NA,NA,NA,NA,NA,false
YeIybkNQ,3y7ltze0zwz7ft0pae7k34mi28juzv,39kfrkbfir8eki4h98yufbhi0qtyo4,YeIybkNQ,2020-0188,2020-05-21,17:08:37,17:41:36,NA,incomplete,85,color,0,right,Green_Plus_Grid_1.jpg,Red_Circle_Grid_4.jpg,Green_Star_Chess_2.jpg,left,324.89499999792315,false,high,NA,NA,NA,NA,NA,NA,NA,false
YeIybkNQ,3y7ltze0zwz7ft0pae7k34mi28juzv,39kfrkbfir8eki4h98yufbhi0qtyo4,YeIybkNQ,2020-0188,2020-05-21,17:08:37,17:41:36,NA,incomplete,86,color,1,right,Blue_Star_Stripes_2.jpg,Green_Plus_Stripes_1.jpg,Blue_Circle_Dots_4.jpg,right,431.79499999666587,true,high,NA,NA,NA,NA,NA,NA,NA,false
YeIybkNQ,3y7ltze0zwz7ft0pae7k34mi28juzv,39kfrkbfir8eki4h98yufbhi0qtyo4,YeIybkNQ,2020-0188,2020-05-21,17:08:37,17:41:36,NA,incomplete,87,color,1,left,Green_Plus_Stripes_3.jpg,Green_Circle_Chess_4.jpg,Red_Star_Stripes_2.jpg,left,366.75500000989996,true,high,NA,NA,NA,NA,NA,NA,NA,false
YeIybkNQ,3y7ltze0zwz7ft0pae7k34mi28juzv,39kfrkbfir8eki4h98yufbhi0qtyo4,YeIybkNQ,2020-0188,2020-05-21,17:08:37,17:41:36,NA,incomplete,88,color,1,left,Blue_Star_Grid_1.jpg,Blue_Circle_Stripes_4.jpg,Red_Plus_Grid_2.jpg,left,656.4399999915622,true,high,NA,NA,NA,NA,NA,NA,NA,false
YeIybkNQ,3y7ltze0zwz7ft0pae7k34mi28juzv,39kfrkbfir8eki4h98yufbhi0qtyo4,YeIybkNQ,2020-0188,2020-05-21,17:08:37,17:41:36,NA,incomplete,89,color,1,right,Purple_Star_Dots_3.jpg,Blue_Circle_Dots_1.jpg,Purple_Triangle_Grid_4.jpg,right,351.5849999967031,true,high,NA,NA,NA,NA,NA,NA,NA,false
YeIybkNQ,3y7ltze0zwz7ft0pae7k34mi28juzv,39kfrkbfir8eki4h98yufbhi0qtyo4,YeIybkNQ,2020-0188,2020-05-21,17:08:37,17:41:36,NA,incomplete,90,filling,1,left,Purple_Circle_Chess_4.jpg,Red_Plus_Chess_1.jpg,Purple_Star_Dots_2.jpg,right,344.67000000574626,false,high,NA,NA,NA,NA,NA,NA,NA,false
YeIybkNQ,3y7ltze0zwz7ft0pae7k34mi28juzv,39kfrkbfir8eki4h98yufbhi0qtyo4,YeIybkNQ,2020-0188,2020-05-21,17:08:37,17:41:36,NA,incomplete,91,filling,1,right,Purple_Star_Grid_1.jpg,Purple_Circle_Stripes_2.jpg,Green_Triangle_Grid_4.jpg,left,365.5049999943003,false,high,NA,NA,NA,NA,NA,NA,NA,false
YeIybkNQ,3y7ltze0zwz7ft0pae7k34mi28juzv,39kfrkbfir8eki4h98yufbhi0qtyo4,YeIybkNQ,2020-0188,2020-05-21,17:08:37,17:41:36,NA,incomplete,92,filling,1,right,Blue_Plus_Dots_1.jpg,Blue_Triangle_Stripes_3.jpg,Red_Circle_Dots_2.jpg,left,345.4700000002049,false,high,NA,NA,NA,NA,NA,NA,NA,false
YeIybkNQ,3y7ltze0zwz7ft0pae7k34mi28juzv,39kfrkbfir8eki4h98yufbhi0qtyo4,YeIybkNQ,2020-0188,2020-05-21,17:08:37,17:41:36,NA,incomplete,93,filling,1,right,Purple_Triangle_Stripes_1.jpg,Purple_Star_Dots_3.jpg,Red_Plus_Stripes_2.jpg,right,331.09000000706874,true,high,NA,NA,NA,NA,NA,NA,NA,false
YeIybkNQ,3y7ltze0zwz7ft0pae7k34mi28juzv,39kfrkbfir8eki4h98yufbhi0qtyo4,YeIybkNQ,2020-0188,2020-05-21,17:08:37,17:41:36,NA,incomplete,94,filling,0,right,Blue_Circle_Dots_1.jpg,Blue_Plus_Chess_3.jpg,Purple_Triangle_Dots_4.jpg,right,462.1900000057649,true,high,NA,NA,NA,NA,NA,NA,NA,false
YeIybkNQ,3y7ltze0zwz7ft0pae7k34mi28juzv,39kfrkbfir8eki4h98yufbhi0qtyo4,YeIybkNQ,2020-0188,2020-05-21,17:08:37,17:41:36,NA,incomplete,95,filling,0,left,Red_Circle_Stripes_4.jpg,Purple_Star_Stripes_2.jpg,Red_Triangle_Grid_3.jpg,right,446.94999999785796,false,high,NA,NA,NA,NA,NA,NA,NA,false
YeIybkNQ,3y7ltze0zwz7ft0pae7k34mi28juzv,39kfrkbfir8eki4h98yufbhi0qtyo4,YeIybkNQ,2020-0188,2020-05-21,17:08:37,17:41:36,NA,incomplete,96,filling,0,left,Purple_Star_Stripes_2.jpg,Red_Circle_Stripes_4.jpg,Purple_Triangle_Grid_3.jpg,right,422.49500000616536,false,high,NA,NA,NA,NA,NA,NA,NA,false
YeIybkNQ,3y7ltze0zwz7ft0pae7k34mi28juzv,39kfrkbfir8eki4h98yufbhi0qtyo4,YeIybkNQ,2020-0188,2020-05-21,17:08:37,17:41:36,NA,incomplete,97,filling,1,left,Purple_Plus_Dots_1.jpg,Red_Star_Dots_4.jpg,Purple_Triangle_Grid_2.jpg,right,328.51000000652857,false,high,NA,NA,NA,NA,NA,NA,NA,false
YeIybkNQ,3y7ltze0zwz7ft0pae7k34mi28juzv,39kfrkbfir8eki4h98yufbhi0qtyo4,YeIybkNQ,2020-0188,2020-05-21,17:08:37,17:41:36,NA,incomplete,98,filling,1,right,Purple_Circle_Chess_4.jpg,Purple_Plus_Stripes_2.jpg,Red_Star_Chess_1.jpg,left,546.4149999897927,false,high,NA,NA,NA,NA,NA,NA,NA,false
YeIybkNQ,3y7ltze0zwz7ft0pae7k34mi28juzv,39kfrkbfir8eki4h98yufbhi0qtyo4,YeIybkNQ,2020-0188,2020-05-21,17:08:37,17:41:36,NA,incomplete,99,filling,1,right,Red_Star_Chess_4.jpg,Red_Plus_Dots_3.jpg,Green_Triangle_Chess_2.jpg,right,347.6500000106171,true,high,NA,NA,NA,NA,NA,NA,NA,false
YeIybkNQ,3y7ltze0zwz7ft0pae7k34mi28juzv,39kfrkbfir8eki4h98yufbhi0qtyo4,YeIybkNQ,2020-0188,2020-05-21,17:08:37,17:41:36,NA,incomplete,100,color,1,left,Purple_Circle_Grid_3.jpg,Purple_Star_Stripes_4.jpg,Blue_Triangle_Grid_2.jpg,right,388.3600000119768,false,high,NA,NA,NA,NA,NA,NA,NA,false
YeIybkNQ,3y7ltze0zwz7ft0pae7k34mi28juzv,39kfrkbfir8eki4h98yufbhi0qtyo4,YeIybkNQ,2020-0188,2020-05-21,17:08:37,17:41:36,NA,incomplete,101,color,1,left,Green_Circle_Chess_3.jpg,Green_Plus_Stripes_2.jpg,Red_Triangle_Chess_4.jpg,right,383.1300000017509,false,high,NA,NA,NA,NA,NA,NA,NA,false
YeIybkNQ,3y7ltze0zwz7ft0pae7k34mi28juzv,39kfrkbfir8eki4h98yufbhi0qtyo4,YeIybkNQ,2020-0188,2020-05-21,17:08:37,17:41:36,NA,incomplete,102,color,1,left,Purple_Triangle_Dots_3.jpg,Purple_Plus_Stripes_4.jpg,Red_Circle_Dots_2.jpg,left,390.5349999985192,true,high,NA,NA,NA,NA,NA,NA,NA,false
YeIybkNQ,3y7ltze0zwz7ft0pae7k34mi28juzv,39kfrkbfir8eki4h98yufbhi0qtyo4,YeIybkNQ,2020-0188,2020-05-21,17:08:37,17:41:36,NA,incomplete,103,color,1,left,Red_Star_Stripes_2.jpg,Red_Circle_Grid_1.jpg,Green_Triangle_Stripes_4.jpg,left,490.49500000546686,true,high,NA,NA,NA,NA,NA,NA,NA,false
YeIybkNQ,3y7ltze0zwz7ft0pae7k34mi28juzv,39kfrkbfir8eki4h98yufbhi0qtyo4,YeIybkNQ,2020-0188,2020-05-21,17:08:37,17:41:36,NA,incomplete,104,color,0,left,Green_Star_Grid_4.jpg,Green_Circle_Dots_2.jpg,Purple_Plus_Grid_3.jpg,left,432.79000000609085,true,high,NA,NA,NA,NA,NA,NA,NA,false
YeIybkNQ,3y7ltze0zwz7ft0pae7k34mi28juzv,39kfrkbfir8eki4h98yufbhi0qtyo4,YeIybkNQ,2020-0188,2020-05-21,17:08:37,17:41:36,NA,incomplete,105,color,1,left,Purple_Star_Chess_2.jpg,Purple_Circle_Dots_3.jpg,Red_Triangle_Chess_4.jpg,left,394.5499999972526,true,high,NA,NA,NA,NA,NA,NA,NA,false
YeIybkNQ,3y7ltze0zwz7ft0pae7k34mi28juzv,39kfrkbfir8eki4h98yufbhi0qtyo4,YeIybkNQ,2020-0188,2020-05-21,17:08:37,17:41:36,NA,incomplete,106,color,1,left,Red_Plus_Dots_4.jpg,Red_Triangle_Stripes_2.jpg,Green_Star_Dots_1.jpg,left,324.3600000133738,true,high,NA,NA,NA,NA,NA,NA,NA,false
YeIybkNQ,3y7ltze0zwz7ft0pae7k34mi28juzv,39kfrkbfir8eki4h98yufbhi0qtyo4,YeIybkNQ,2020-0188,2020-05-21,17:08:37,17:41:36,NA,incomplete,107,color,0,right,Blue_Circle_Chess_1.jpg,Purple_Star_Chess_2.jpg,Blue_Triangle_Stripes_3.jpg,right,436.0500000040047,true,high,NA,NA,NA,NA,NA,NA,NA,false
YeIybkNQ,3y7ltze0zwz7ft0pae7k34mi28juzv,39kfrkbfir8eki4h98yufbhi0qtyo4,YeIybkNQ,2020-0188,2020-05-21,17:08:37,17:41:36,NA,incomplete,108,color,1,left,Green_Triangle_Dots_1.jpg,Green_Circle_Chess_3.jpg,Blue_Plus_Dots_2.jpg,left,604.7650000108406,true,high,NA,NA,NA,NA,NA,NA,NA,false
YeIybkNQ,3y7ltze0zwz7ft0pae7k34mi28juzv,39kfrkbfir8eki4h98yufbhi0qtyo4,YeIybkNQ,2020-0188,2020-05-21,17:08:37,17:41:36,NA,incomplete,109,color,1,left,Purple_Triangle_Stripes_2.jpg,Purple_Plus_Dots_4.jpg,Green_Circle_Stripes_1.jpg,left,429.589999999851,true,high,NA,NA,NA,NA,NA,NA,NA,false
YeIybkNQ,3y7ltze0zwz7ft0pae7k34mi28juzv,39kfrkbfir8eki4h98yufbhi0qtyo4,YeIybkNQ,2020-0188,2020-05-21,17:08:37,17:41:36,NA,incomplete,110,filling,1,left,Blue_Triangle_Chess_2.jpg,Purple_Star_Chess_4.jpg,Blue_Plus_Dots_1.jpg,right,352.22000000067055,false,high,NA,NA,NA,NA,NA,NA,NA,false
YeIybkNQ,3y7ltze0zwz7ft0pae7k34mi28juzv,39kfrkbfir8eki4h98yufbhi0qtyo4,YeIybkNQ,2020-0188,2020-05-21,17:08:37,17:41:36,NA,incomplete,111,filling,1,right,Green_Circle_Chess_3.jpg,Green_Triangle_Stripes_1.jpg,Blue_Plus_Chess_4.jpg,left,332.11499999742955,false,high,NA,NA,NA,NA,NA,NA,NA,false
YeIybkNQ,3y7ltze0zwz7ft0pae7k34mi28juzv,39kfrkbfir8eki4h98yufbhi0qtyo4,YeIybkNQ,2020-0188,2020-05-21,17:08:37,17:41:36,NA,incomplete,112,filling,1,left,Green_Plus_Stripes_4.jpg,Purple_Circle_Stripes_3.jpg,Green_Triangle_Grid_2.jpg,left,348.6699999922421,true,high,NA,NA,NA,NA,NA,NA,NA,false
YeIybkNQ,3y7ltze0zwz7ft0pae7k34mi28juzv,39kfrkbfir8eki4h98yufbhi0qtyo4,YeIybkNQ,2020-0188,2020-05-21,17:08:37,17:41:36,NA,incomplete,113,filling,1,right,Red_Triangle_Stripes_3.jpg,Red_Circle_Dots_4.jpg,Blue_Star_Stripes_2.jpg,right,380.1300000050105,true,high,NA,NA,NA,NA,NA,NA,NA,false
YeIybkNQ,3y7ltze0zwz7ft0pae7k34mi28juzv,39kfrkbfir8eki4h98yufbhi0qtyo4,YeIybkNQ,2020-0188,2020-05-21,17:08:37,17:41:36,NA,incomplete,114,filling,1,left,Purple_Triangle_Stripes_3.jpg,Blue_Circle_Stripes_4.jpg,Purple_Plus_Dots_1.jpg,left,408.1749999895692,true,high,NA,NA,NA,NA,NA,NA,NA,false
YeIybkNQ,3y7ltze0zwz7ft0pae7k34mi28juzv,39kfrkbfir8eki4h98yufbhi0qtyo4,YeIybkNQ,2020-0188,2020-05-21,17:08:37,17:41:36,NA,incomplete,115,filling,1,right,Red_Plus_Dots_1.jpg,Red_Star_Stripes_3.jpg,Blue_Circle_Dots_4.jpg,right,455.6950000114739,true,high,NA,NA,NA,NA,NA,NA,NA,false
YeIybkNQ,3y7ltze0zwz7ft0pae7k34mi28juzv,39kfrkbfir8eki4h98yufbhi0qtyo4,YeIybkNQ,2020-0188,2020-05-21,17:08:37,17:41:36,NA,incomplete,116,filling,1,right,Purple_Star_Chess_4.jpg,Purple_Plus_Grid_2.jpg,Blue_Triangle_Chess_1.jpg,left,434.30000000819564,false,high,NA,NA,NA,NA,NA,NA,NA,false
YeIybkNQ,3y7ltze0zwz7ft0pae7k34mi28juzv,39kfrkbfir8eki4h98yufbhi0qtyo4,YeIybkNQ,2020-0188,2020-05-21,17:08:37,17:41:36,NA,incomplete,117,filling,1,left,Blue_Plus_Dots_1.jpg,Purple_Triangle_Dots_2.jpg,Blue_Circle_Grid_3.jpg,left,486.49000001023524,true,high,NA,NA,NA,NA,NA,NA,NA,false
YeIybkNQ,3y7ltze0zwz7ft0pae7k34mi28juzv,39kfrkbfir8eki4h98yufbhi0qtyo4,YeIybkNQ,2020-0188,2020-05-21,17:08:37,17:41:36,NA,incomplete,118,filling,1,right,Purple_Plus_Stripes_2.jpg,Purple_Triangle_Chess_4.jpg,Green_Star_Stripes_1.jpg,right,500.3250000006519,true,high,NA,NA,NA,NA,NA,NA,NA,false
YeIybkNQ,3y7ltze0zwz7ft0pae7k34mi28juzv,39kfrkbfir8eki4h98yufbhi0qtyo4,YeIybkNQ,2020-0188,2020-05-21,17:08:37,17:41:36,NA,incomplete,119,filling,1,left,Red_Circle_Grid_2.jpg,Blue_Triangle_Grid_4.jpg,Red_Plus_Chess_3.jpg,left,425.3650000025518,true,high,NA,NA,NA,NA,NA,NA,NA,false
YeIybkNQ,3y7ltze0zwz7ft0pae7k34mi28juzv,39kfrkbfir8eki4h98yufbhi0qtyo4,YeIybkNQ,2020-0188,2020-05-21,17:08:37,17:41:36,NA,incomplete,120,number,1,left,Blue_Star_Chess_1.jpg,Red_Triangle_Grid_1.jpg,Green_Star_Stripes_3.jpg,NA,NA,NA,high,NA,NA,NA,NA,NA,NA,NA,false
YeIybkNQ,3y7ltze0zwz7ft0pae7k34mi28juzv,39kfrkbfir8eki4h98yufbhi0qtyo4,YeIybkNQ,2020-0188,2020-05-21,17:08:37,17:41:36,NA,incomplete,121,number,0,right,Red_Star_Grid_2.jpg,Blue_Star_Stripes_4.jpg,Purple_Triangle_Chess_2.jpg,left,607.3949999990873,false,high,NA,NA,NA,NA,NA,NA,NA,false
YeIybkNQ,3y7ltze0zwz7ft0pae7k34mi28juzv,39kfrkbfir8eki4h98yufbhi0qtyo4,YeIybkNQ,2020-0188,2020-05-21,17:08:37,17:41:36,NA,incomplete,122,number,1,right,Green_Star_Dots_3.jpg,Blue_Star_Stripes_1.jpg,Red_Plus_Chess_3.jpg,left,586.9099999982864,false,high,NA,NA,NA,NA,NA,NA,NA,false
YeIybkNQ,3y7ltze0zwz7ft0pae7k34mi28juzv,39kfrkbfir8eki4h98yufbhi0qtyo4,YeIybkNQ,2020-0188,2020-05-21,17:08:37,17:41:36,NA,incomplete,123,number,0,right,Purple_Circle_Stripes_2.jpg,Blue_Circle_Grid_4.jpg,Red_Plus_Dots_2.jpg,left,486.9650000038091,false,high,NA,NA,NA,NA,NA,NA,NA,false
YeIybkNQ,3y7ltze0zwz7ft0pae7k34mi28juzv,39kfrkbfir8eki4h98yufbhi0qtyo4,YeIybkNQ,2020-0188,2020-05-21,17:08:37,17:41:36,NA,incomplete,124,number,1,left,Green_Circle_Dots_1.jpg,Purple_Star_Grid_1.jpg,Red_Circle_Chess_3.jpg,right,512.1450000004843,false,high,NA,NA,NA,NA,NA,NA,NA,false
YeIybkNQ,3y7ltze0zwz7ft0pae7k34mi28juzv,39kfrkbfir8eki4h98yufbhi0qtyo4,YeIybkNQ,2020-0188,2020-05-21,17:08:37,17:41:36,NA,incomplete,125,number,1,left,Green_Circle_Dots_2.jpg,Blue_Triangle_Grid_2.jpg,Red_Circle_Stripes_1.jpg,left,456.2750000040978,true,high,NA,NA,NA,NA,NA,NA,NA,false
YeIybkNQ,3y7ltze0zwz7ft0pae7k34mi28juzv,39kfrkbfir8eki4h98yufbhi0qtyo4,YeIybkNQ,2020-0188,2020-05-21,17:08:37,17:41:36,NA,incomplete,126,number,1,right,Green_Triangle_Chess_2.jpg,Blue_Triangle_Stripes_1.jpg,Red_Star_Dots_2.jpg,left,618.5350000013132,false,high,NA,NA,NA,NA,NA,NA,NA,false
YeIybkNQ,3y7ltze0zwz7ft0pae7k34mi28juzv,39kfrkbfir8eki4h98yufbhi0qtyo4,YeIybkNQ,2020-0188,2020-05-21,17:08:37,17:41:36,NA,incomplete,127,number,1,left,Red_Plus_Dots_2.jpg,Blue_Triangle_Grid_2.jpg,Purple_Plus_Chess_4.jpg,right,900.0850000011269,false,high,NA,NA,NA,NA,NA,NA,NA,false
YeIybkNQ,3y7ltze0zwz7ft0pae7k34mi28juzv,39kfrkbfir8eki4h98yufbhi0qtyo4,YeIybkNQ,2020-0188,2020-05-21,17:08:37,17:41:36,NA,incomplete,128,number,0,right,Red_Circle_Chess_1.jpg,Purple_Circle_Stripes_4.jpg,Blue_Plus_Dots_1.jpg,right,808.7550000054762,true,high,NA,NA,NA,NA,NA,NA,NA,false
YeIybkNQ,3y7ltze0zwz7ft0pae7k34mi28juzv,39kfrkbfir8eki4h98yufbhi0qtyo4,YeIybkNQ,2020-0188,2020-05-21,17:08:37,17:41:36,NA,incomplete,129,number,1,right,Purple_Star_Dots_3.jpg,Red_Star_Chess_1.jpg,Green_Plus_Grid_3.jpg,right,604.4300000066869,true,high,NA,NA,NA,NA,NA,NA,NA,false
YeIybkNQ,3y7ltze0zwz7ft0pae7k34mi28juzv,39kfrkbfir8eki4h98yufbhi0qtyo4,YeIybkNQ,2020-0188,2020-05-21,17:08:37,17:41:36,NA,incomplete,130,number,1,left,Green_Plus_Chess_3.jpg,Purple_Triangle_Grid_3.jpg,Blue_Plus_Dots_4.jpg,left,642.414999994915,true,high,NA,NA,NA,NA,NA,NA,NA,false
YeIybkNQ,3y7ltze0zwz7ft0pae7k34mi28juzv,39kfrkbfir8eki4h98yufbhi0qtyo4,YeIybkNQ,2020-0188,2020-05-21,17:08:37,17:41:36,NA,incomplete,131,number,1,left,Green_Star_Dots_2.jpg,Red_Circle_Grid_2.jpg,Blue_Star_Chess_1.jpg,right,547.4850000028964,false,high,NA,NA,NA,NA,NA,NA,NA,false
YeIybkNQ,3y7ltze0zwz7ft0pae7k34mi28juzv,39kfrkbfir8eki4h98yufbhi0qtyo4,YeIybkNQ,2020-0188,2020-05-21,17:08:37,17:41:36,NA,incomplete,132,number,0,left,Red_Circle_Stripes_3.jpg,Green_Triangle_Grid_3.jpg,Purple_Circle_Dots_1.jpg,left,788.3050000090152,true,high,NA,NA,NA,NA,NA,NA,NA,false
YeIybkNQ,3y7ltze0zwz7ft0pae7k34mi28juzv,39kfrkbfir8eki4h98yufbhi0qtyo4,YeIybkNQ,2020-0188,2020-05-21,17:08:37,17:41:36,NA,incomplete,133,number,1,right,Purple_Circle_Chess_2.jpg,Green_Circle_Grid_1.jpg,Red_Star_Stripes_2.jpg,left,772.5700000009965,false,high,NA,NA,NA,NA,NA,NA,NA,false
YeIybkNQ,3y7ltze0zwz7ft0pae7k34mi28juzv,39kfrkbfir8eki4h98yufbhi0qtyo4,YeIybkNQ,2020-0188,2020-05-21,17:08:37,17:41:36,NA,incomplete,134,number,1,right,Red_Star_Chess_3.jpg,Green_Star_Grid_4.jpg,Blue_Triangle_Dots_3.jpg,left,644.8050000036601,false,high,NA,NA,NA,NA,NA,NA,NA,false
YeIybkNQ,3y7ltze0zwz7ft0pae7k34mi28juzv,39kfrkbfir8eki4h98yufbhi0qtyo4,YeIybkNQ,2020-0188,2020-05-21,17:08:37,17:41:36,NA,incomplete,135,number,1,right,Blue_Plus_Grid_4.jpg,Purple_Plus_Dots_3.jpg,Red_Triangle_Chess_4.jpg,right,1109.5849999985658,true,high,NA,NA,NA,NA,NA,NA,NA,false
YeIybkNQ,3y7ltze0zwz7ft0pae7k34mi28juzv,39kfrkbfir8eki4h98yufbhi0qtyo4,YeIybkNQ,2020-0188,2020-05-21,17:08:37,17:41:36,NA,incomplete,136,number,1,left,Blue_Star_Grid_4.jpg,Purple_Triangle_Stripes_4.jpg,Green_Star_Chess_1.jpg,left,633.0749999906402,true,high,NA,NA,NA,NA,NA,NA,NA,false
YeIybkNQ,3y7ltze0zwz7ft0pae7k34mi28juzv,39kfrkbfir8eki4h98yufbhi0qtyo4,YeIybkNQ,2020-0188,2020-05-21,17:08:37,17:41:36,NA,incomplete,137,number,0,right,Red_Triangle_Grid_1.jpg,Green_Triangle_Stripes_2.jpg,Purple_Plus_Dots_1.jpg,left,639.9700000039302,false,high,NA,NA,NA,NA,NA,NA,NA,false
YeIybkNQ,3y7ltze0zwz7ft0pae7k34mi28juzv,39kfrkbfir8eki4h98yufbhi0qtyo4,YeIybkNQ,2020-0188,2020-05-21,17:08:37,17:41:36,NA,incomplete,138,number,1,right,Green_Plus_Chess_1.jpg,Blue_Plus_Stripes_2.jpg,Red_Circle_Dots_1.jpg,left,620.0600000009872,false,high,NA,NA,NA,NA,NA,NA,NA,false
YeIybkNQ,3y7ltze0zwz7ft0pae7k34mi28juzv,39kfrkbfir8eki4h98yufbhi0qtyo4,YeIybkNQ,2020-0188,2020-05-21,17:08:37,17:41:36,NA,incomplete,139,number,1,right,Red_Triangle_Chess_4.jpg,Blue_Triangle_Grid_3.jpg,Green_Plus_Dots_4.jpg,left,484.27499999525025,false,high,NA,NA,NA,NA,NA,NA,NA,false
YeIybkNQ,3y7ltze0zwz7ft0pae7k34mi28juzv,39kfrkbfir8eki4h98yufbhi0qtyo4,YeIybkNQ,2020-0188,2020-05-21,17:08:37,17:41:36,NA,incomplete,140,shape,1,left,Blue_Star_Chess_1.jpg,Purple_Star_Stripes_4.jpg,Red_Plus_Dots_1.jpg,right,1211.1750000040047,false,high,NA,NA,NA,NA,NA,NA,NA,false
YeIybkNQ,3y7ltze0zwz7ft0pae7k34mi28juzv,39kfrkbfir8eki4h98yufbhi0qtyo4,YeIybkNQ,2020-0188,2020-05-21,17:08:37,17:41:36,NA,incomplete,141,shape,1,left,Red_Triangle_Stripes_1.jpg,Blue_Triangle_Grid_4.jpg,Green_Circle_Dots_1.jpg,left,854.8349999911152,true,high,NA,NA,NA,NA,NA,NA,NA,false
YeIybkNQ,3y7ltze0zwz7ft0pae7k34mi28juzv,39kfrkbfir8eki4h98yufbhi0qtyo4,YeIybkNQ,2020-0188,2020-05-21,17:08:37,17:41:36,NA,incomplete,142,shape,0,left,Purple_Plus_Chess_4.jpg,Blue_Plus_Dots_1.jpg,Green_Circle_Grid_4.jpg,left,544.4149999967776,true,high,NA,NA,NA,NA,NA,NA,NA,false
YeIybkNQ,3y7ltze0zwz7ft0pae7k34mi28juzv,39kfrkbfir8eki4h98yufbhi0qtyo4,YeIybkNQ,2020-0188,2020-05-21,17:08:37,17:41:36,NA,incomplete,143,shape,1,left,Purple_Triangle_Dots_2.jpg,Blue_Triangle_Chess_3.jpg,Green_Plus_Stripes_2.jpg,right,1059.5500000054017,false,high,NA,NA,NA,NA,NA,NA,NA,false
YeIybkNQ,3y7ltze0zwz7ft0pae7k34mi28juzv,39kfrkbfir8eki4h98yufbhi0qtyo4,YeIybkNQ,2020-0188,2020-05-21,17:08:37,17:41:36,NA,incomplete,144,shape,1,right,Blue_Triangle_Dots_1.jpg,Green_Circle_Stripes_1.jpg,Purple_Triangle_Chess_4.jpg,left,564.2050000024028,false,high,NA,NA,NA,NA,NA,NA,NA,false
YeIybkNQ,3y7ltze0zwz7ft0pae7k34mi28juzv,39kfrkbfir8eki4h98yufbhi0qtyo4,YeIybkNQ,2020-0188,2020-05-21,17:08:37,17:41:36,NA,incomplete,145,shape,1,right,Blue_Star_Chess_2.jpg,Purple_Triangle_Dots_2.jpg,Red_Star_Grid_4.jpg,right,466.2899999967776,true,high,NA,NA,NA,NA,NA,NA,NA,false
YeIybkNQ,3y7ltze0zwz7ft0pae7k34mi28juzv,39kfrkbfir8eki4h98yufbhi0qtyo4,YeIybkNQ,2020-0188,2020-05-21,17:08:37,17:41:36,NA,incomplete,146,shape,1,right,Blue_Star_Dots_3.jpg,Green_Plus_Stripes_3.jpg,Red_Star_Grid_4.jpg,right,543.8800000119954,true,high,NA,NA,NA,NA,NA,NA,NA,false
YeIybkNQ,3y7ltze0zwz7ft0pae7k34mi28juzv,39kfrkbfir8eki4h98yufbhi0qtyo4,YeIybkNQ,2020-0188,2020-05-21,17:08:37,17:41:36,NA,incomplete,147,shape,1,left,Blue_Plus_Stripes_2.jpg,Red_Plus_Dots_1.jpg,Green_Circle_Grid_2.jpg,left,578.9400000066962,true,high,NA,NA,NA,NA,NA,NA,NA,false
YeIybkNQ,3y7ltze0zwz7ft0pae7k34mi28juzv,39kfrkbfir8eki4h98yufbhi0qtyo4,YeIybkNQ,2020-0188,2020-05-21,17:08:37,17:41:36,NA,incomplete,148,shape,0,right,Green_Star_Grid_2.jpg,Red_Triangle_Chess_2.jpg,Purple_Star_Dots_3.jpg,right,501.2800000112038,true,high,NA,NA,NA,NA,NA,NA,NA,false
YeIybkNQ,3y7ltze0zwz7ft0pae7k34mi28juzv,39kfrkbfir8eki4h98yufbhi0qtyo4,YeIybkNQ,2020-0188,2020-05-21,17:08:37,17:41:36,NA,incomplete,149,shape,1,left,Red_Triangle_Dots_1.jpg,Blue_Triangle_Chess_3.jpg,Purple_Circle_Stripes_1.jpg,left,470.83000000566244,true,high,NA,NA,NA,NA,NA,NA,NA,false
YeIybkNQ,3y7ltze0zwz7ft0pae7k34mi28juzv,39kfrkbfir8eki4h98yufbhi0qtyo4,YeIybkNQ,2020-0188,2020-05-21,17:08:37,17:41:36,NA,incomplete,150,shape,1,left,Red_Circle_Chess_2.jpg,Purple_Circle_Grid_3.jpg,Green_Star_Stripes_2.jpg,left,547.3000000056345,true,high,NA,NA,NA,NA,NA,NA,NA,false
YeIybkNQ,3y7ltze0zwz7ft0pae7k34mi28juzv,39kfrkbfir8eki4h98yufbhi0qtyo4,YeIybkNQ,2020-0188,2020-05-21,17:08:37,17:41:36,NA,incomplete,151,shape,1,right,Green_Star_Grid_1.jpg,Purple_Triangle_Chess_1.jpg,Red_Star_Stripes_4.jpg,right,572.1349999946542,true,high,NA,NA,NA,NA,NA,NA,NA,false
YeIybkNQ,3y7ltze0zwz7ft0pae7k34mi28juzv,39kfrkbfir8eki4h98yufbhi0qtyo4,YeIybkNQ,2020-0188,2020-05-21,17:08:37,17:41:36,NA,incomplete,152,shape,1,right,Red_Star_Chess_2.jpg,Green_Triangle_Dots_2.jpg,Blue_Star_Stripes_1.jpg,right,525.3150000062305,true,high,NA,NA,NA,NA,NA,NA,NA,false
YeIybkNQ,3y7ltze0zwz7ft0pae7k34mi28juzv,39kfrkbfir8eki4h98yufbhi0qtyo4,YeIybkNQ,2020-0188,2020-05-21,17:08:37,17:41:36,NA,incomplete,153,shape,1,right,Purple_Plus_Dots_1.jpg,Blue_Star_Chess_1.jpg,Green_Plus_Stripes_3.jpg,left,461.6249999962747,false,high,NA,NA,NA,NA,NA,NA,NA,false
YeIybkNQ,3y7ltze0zwz7ft0pae7k34mi28juzv,39kfrkbfir8eki4h98yufbhi0qtyo4,YeIybkNQ,2020-0188,2020-05-21,17:08:37,17:41:36,NA,incomplete,154,shape,1,left,Green_Triangle_Dots_2.jpg,Red_Triangle_Stripes_1.jpg,Blue_Circle_Grid_2.jpg,left,566.0500000086613,true,high,NA,NA,NA,NA,NA,NA,NA,false
YeIybkNQ,3y7ltze0zwz7ft0pae7k34mi28juzv,39kfrkbfir8eki4h98yufbhi0qtyo4,YeIybkNQ,2020-0188,2020-05-21,17:08:37,17:41:36,NA,incomplete,155,shape,1,right,Purple_Triangle_Dots_3.jpg,Red_Star_Stripes_3.jpg,Green_Triangle_Chess_4.jpg,right,789.3100000072736,true,high,NA,NA,NA,NA,NA,NA,NA,false
YeIybkNQ,3y7ltze0zwz7ft0pae7k34mi28juzv,39kfrkbfir8eki4h98yufbhi0qtyo4,YeIybkNQ,2020-0188,2020-05-21,17:08:37,17:41:36,NA,incomplete,156,shape,1,left,Purple_Star_Chess_4.jpg,Red_Star_Grid_3.jpg,Green_Triangle_Dots_4.jpg,left,489.39999999152496,true,high,NA,NA,NA,NA,NA,NA,NA,false
YeIybkNQ,3y7ltze0zwz7ft0pae7k34mi28juzv,39kfrkbfir8eki4h98yufbhi0qtyo4,YeIybkNQ,2020-0188,2020-05-21,17:08:37,17:41:36,NA,incomplete,157,shape,1,right,Green_Circle_Grid_3.jpg,Blue_Star_Stripes_3.jpg,Purple_Circle_Chess_1.jpg,right,469.07499998644926,true,high,NA,NA,NA,NA,NA,NA,NA,false
YeIybkNQ,3y7ltze0zwz7ft0pae7k34mi28juzv,39kfrkbfir8eki4h98yufbhi0qtyo4,YeIybkNQ,2020-0188,2020-05-21,17:08:37,17:41:36,NA,incomplete,158,shape,1,left,Purple_Plus_Grid_2.jpg,Green_Plus_Chess_1.jpg,Blue_Circle_Stripes_2.jpg,left,433.5149999971036,true,high,NA,NA,NA,NA,NA,NA,NA,false
YeIybkNQ,3y7ltze0zwz7ft0pae7k34mi28juzv,39kfrkbfir8eki4h98yufbhi0qtyo4,YeIybkNQ,2020-0188,2020-05-21,17:08:37,17:41:36,NA,incomplete,159,shape,1,left,Blue_Circle_Chess_4.jpg,Green_Circle_Stripes_3.jpg,Purple_Star_Grid_4.jpg,left,419.179999996908,true,high,NA,NA,NA,NA,NA,NA,NA,false
YeIybkNQ,3y7ltze0zwz7ft0pae7k34mi28juzv,39kfrkbfir8eki4h98yufbhi0qtyo4,YeIybkNQ,2020-0188,2020-05-21,17:08:37,17:41:36,NA,incomplete,160,number,1,left,Blue_Plus_Dots_3.jpg,Red_Star_Stripes_3.jpg,Green_Plus_Chess_2.jpg,left,616.3099999974947,true,high,NA,NA,NA,NA,NA,NA,NA,false
YeIybkNQ,3y7ltze0zwz7ft0pae7k34mi28juzv,39kfrkbfir8eki4h98yufbhi0qtyo4,YeIybkNQ,2020-0188,2020-05-21,17:08:37,17:41:36,NA,incomplete,161,number,0,right,Red_Triangle_Dots_2.jpg,Green_Triangle_Chess_3.jpg,Purple_Circle_Grid_2.jpg,right,719.5849999987986,true,high,NA,NA,NA,NA,NA,NA,NA,false
YeIybkNQ,3y7ltze0zwz7ft0pae7k34mi28juzv,39kfrkbfir8eki4h98yufbhi0qtyo4,YeIybkNQ,2020-0188,2020-05-21,17:08:37,17:41:36,NA,incomplete,162,number,1,left,Purple_Star_Dots_3.jpg,Blue_Triangle_Grid_3.jpg,Green_Star_Chess_1.jpg,left,636.2450000015087,true,high,NA,NA,NA,NA,NA,NA,NA,false
YeIybkNQ,3y7ltze0zwz7ft0pae7k34mi28juzv,39kfrkbfir8eki4h98yufbhi0qtyo4,YeIybkNQ,2020-0188,2020-05-21,17:08:37,17:41:36,NA,incomplete,163,number,1,right,Green_Circle_Stripes_2.jpg,Purple_Circle_Grid_1.jpg,Red_Triangle_Chess_2.jpg,right,691.7599999869708,true,high,NA,NA,NA,NA,NA,NA,NA,false
YeIybkNQ,3y7ltze0zwz7ft0pae7k34mi28juzv,39kfrkbfir8eki4h98yufbhi0qtyo4,YeIybkNQ,2020-0188,2020-05-21,17:08:37,17:41:36,NA,incomplete,164,number,1,left,Purple_Triangle_Chess_1.jpg,Green_Circle_Stripes_1.jpg,Red_Triangle_Grid_4.jpg,left,572.1699999994598,true,high,NA,NA,NA,NA,NA,NA,NA,false
YeIybkNQ,3y7ltze0zwz7ft0pae7k34mi28juzv,39kfrkbfir8eki4h98yufbhi0qtyo4,YeIybkNQ,2020-0188,2020-05-21,17:08:37,17:41:36,NA,incomplete,165,number,1,left,Blue_Circle_Stripes_1.jpg,Green_Star_Grid_1.jpg,Red_Circle_Chess_3.jpg,left,650.6700000027195,true,high,NA,NA,NA,NA,NA,NA,NA,false
YeIybkNQ,3y7ltze0zwz7ft0pae7k34mi28juzv,39kfrkbfir8eki4h98yufbhi0qtyo4,YeIybkNQ,2020-0188,2020-05-21,17:08:37,17:41:36,NA,incomplete,166,number,1,left,Red_Plus_Dots_1.jpg,Purple_Circle_Grid_1.jpg,Blue_Plus_Stripes_3.jpg,left,652.4049999862909,true,high,NA,NA,NA,NA,NA,NA,NA,false
YeIybkNQ,3y7ltze0zwz7ft0pae7k34mi28juzv,39kfrkbfir8eki4h98yufbhi0qtyo4,YeIybkNQ,2020-0188,2020-05-21,17:08:37,17:41:36,NA,incomplete,167,number,0,left,Blue_Circle_Dots_3.jpg,Green_Triangle_Stripes_3.jpg,Purple_Circle_Grid_4.jpg,left,636.2749999971129,true,high,NA,NA,NA,NA,NA,NA,NA,false
YeIybkNQ,3y7ltze0zwz7ft0pae7k34mi28juzv,39kfrkbfir8eki4h98yufbhi0qtyo4,YeIybkNQ,2020-0188,2020-05-21,17:08:37,17:41:36,NA,incomplete,168,number,1,left,Green_Star_Stripes_3.jpg,Red_Circle_Dots_3.jpg,Purple_Star_Grid_4.jpg,left,598.0399999972433,true,high,NA,NA,NA,NA,NA,NA,NA,false
YeIybkNQ,3y7ltze0zwz7ft0pae7k34mi28juzv,39kfrkbfir8eki4h98yufbhi0qtyo4,YeIybkNQ,2020-0188,2020-05-21,17:08:37,17:41:36,NA,incomplete,169,number,1,left,Blue_Star_Dots_2.jpg,Red_Plus_Grid_2.jpg,Green_Star_Chess_3.jpg,right,628.7149999989197,false,high,NA,NA,NA,NA,NA,NA,NA,false
YeIybkNQ,3y7ltze0zwz7ft0pae7k34mi28juzv,39kfrkbfir8eki4h98yufbhi0qtyo4,YeIybkNQ,2020-0188,2020-05-21,17:08:37,17:41:36,NA,incomplete,170,number,1,left,Blue_Plus_Dots_4.jpg,Green_Circle_Stripes_4.jpg,Purple_Plus_Grid_3.jpg,right,726.8299999996088,false,high,NA,NA,NA,NA,NA,NA,NA,false
YeIybkNQ,3y7ltze0zwz7ft0pae7k34mi28juzv,39kfrkbfir8eki4h98yufbhi0qtyo4,YeIybkNQ,2020-0188,2020-05-21,17:08:37,17:41:36,NA,incomplete,171,number,1,right,Blue_Star_Chess_2.jpg,Red_Star_Stripes_3.jpg,Purple_Plus_Dots_2.jpg,right,896.1150000104681,true,high,NA,NA,NA,NA,NA,NA,NA,false
YeIybkNQ,3y7ltze0zwz7ft0pae7k34mi28juzv,39kfrkbfir8eki4h98yufbhi0qtyo4,YeIybkNQ,2020-0188,2020-05-21,17:08:37,17:41:36,NA,incomplete,172,number,0,right,Purple_Star_Grid_1.jpg,Red_Star_Dots_4.jpg,Blue_Triangle_Chess_1.jpg,right,741.3200000009965,true,high,NA,NA,NA,NA,NA,NA,NA,false
YeIybkNQ,3y7ltze0zwz7ft0pae7k34mi28juzv,39kfrkbfir8eki4h98yufbhi0qtyo4,YeIybkNQ,2020-0188,2020-05-21,17:08:37,17:41:36,NA,incomplete,173,number,1,left,Red_Plus_Stripes_2.jpg,Blue_Circle_Dots_2.jpg,Green_Plus_Chess_1.jpg,left,646.1300000082701,true,high,NA,NA,NA,NA,NA,NA,NA,false
YeIybkNQ,3y7ltze0zwz7ft0pae7k34mi28juzv,39kfrkbfir8eki4h98yufbhi0qtyo4,YeIybkNQ,2020-0188,2020-05-21,17:08:37,17:41:36,NA,incomplete,174,number,1,left,Green_Circle_Chess_1.jpg,Purple_Triangle_Dots_1.jpg,Blue_Circle_Stripes_4.jpg,left,647.4050000107381,true,high,NA,NA,NA,NA,NA,NA,NA,false
YeIybkNQ,3y7ltze0zwz7ft0pae7k34mi28juzv,39kfrkbfir8eki4h98yufbhi0qtyo4,YeIybkNQ,2020-0188,2020-05-21,17:08:37,17:41:36,NA,incomplete,175,number,1,right,Green_Plus_Grid_2.jpg,Purple_Plus_Chess_3.jpg,Red_Triangle_Dots_2.jpg,right,1076.0900000024121,true,high,NA,NA,NA,NA,NA,NA,NA,false
YeIybkNQ,3y7ltze0zwz7ft0pae7k34mi28juzv,39kfrkbfir8eki4h98yufbhi0qtyo4,YeIybkNQ,2020-0188,2020-05-21,17:08:37,17:41:36,NA,incomplete,176,number,1,right,Purple_Star_Stripes_3.jpg,Red_Star_Dots_2.jpg,Green_Plus_Chess_3.jpg,right,728.6299999977928,true,high,NA,NA,NA,NA,NA,NA,NA,false
YeIybkNQ,3y7ltze0zwz7ft0pae7k34mi28juzv,39kfrkbfir8eki4h98yufbhi0qtyo4,YeIybkNQ,2020-0188,2020-05-21,17:08:37,17:41:36,NA,incomplete,177,number,1,left,Purple_Triangle_Stripes_1.jpg,Green_Star_Dots_1.jpg,Red_Triangle_Chess_2.jpg,left,570.3800000045449,true,high,NA,NA,NA,NA,NA,NA,NA,false
YeIybkNQ,3y7ltze0zwz7ft0pae7k34mi28juzv,39kfrkbfir8eki4h98yufbhi0qtyo4,YeIybkNQ,2020-0188,2020-05-21,17:08:37,17:41:36,NA,incomplete,178,number,1,left,Purple_Triangle_Stripes_3.jpg,Red_Star_Chess_3.jpg,Blue_Triangle_Grid_2.jpg,left,622.3699999973178,true,high,NA,NA,NA,NA,NA,NA,NA,false
YeIybkNQ,3y7ltze0zwz7ft0pae7k34mi28juzv,39kfrkbfir8eki4h98yufbhi0qtyo4,YeIybkNQ,2020-0188,2020-05-21,17:08:37,17:41:36,NA,incomplete,179,number,1,right,Blue_Star_Grid_3.jpg,Purple_Star_Stripes_4.jpg,Red_Circle_Chess_3.jpg,right,744.7650000103749,true,high,NA,NA,NA,NA,NA,NA,NA,false
YeIybkNQ,3y7ltze0zwz7ft0pae7k34mi28juzv,39kfrkbfir8eki4h98yufbhi0qtyo4,YeIybkNQ,2020-0188,2020-05-21,17:08:37,17:41:36,NA,incomplete,180,shape,0,right,Red_Triangle_Chess_1.jpg,Green_Star_Grid_1.jpg,Blue_Triangle_Stripes_2.jpg,right,639.9649999949615,true,high,NA,NA,NA,NA,NA,NA,NA,false
YeIybkNQ,3y7ltze0zwz7ft0pae7k34mi28juzv,39kfrkbfir8eki4h98yufbhi0qtyo4,YeIybkNQ,2020-0188,2020-05-21,17:08:37,17:41:36,NA,incomplete,181,shape,1,right,Red_Circle_Grid_2.jpg,Blue_Star_Chess_2.jpg,Green_Circle_Stripes_3.jpg,left,804.6550000000279,false,high,NA,NA,NA,NA,NA,NA,NA,false
YeIybkNQ,3y7ltze0zwz7ft0pae7k34mi28juzv,39kfrkbfir8eki4h98yufbhi0qtyo4,YeIybkNQ,2020-0188,2020-05-21,17:08:37,17:41:36,NA,incomplete,182,shape,1,left,Purple_Star_Dots_4.jpg,Blue_Star_Chess_2.jpg,Red_Triangle_Grid_4.jpg,right,828.6149999911431,false,high,NA,NA,NA,NA,NA,NA,NA,false
YeIybkNQ,3y7ltze0zwz7ft0pae7k34mi28juzv,39kfrkbfir8eki4h98yufbhi0qtyo4,YeIybkNQ,2020-0188,2020-05-21,17:08:37,17:41:36,NA,incomplete,183,shape,0,right,Purple_Triangle_Chess_1.jpg,Blue_Star_Grid_1.jpg,Green_Triangle_Dots_4.jpg,right,1165.475000001723,true,high,NA,NA,NA,NA,NA,NA,NA,false
YeIybkNQ,3y7ltze0zwz7ft0pae7k34mi28juzv,39kfrkbfir8eki4h98yufbhi0qtyo4,YeIybkNQ,2020-0188,2020-05-21,17:08:37,17:41:36,NA,incomplete,184,shape,1,left,Blue_Star_Dots_4.jpg,Green_Star_Stripes_3.jpg,Red_Circle_Grid_4.jpg,left,624.0850000029895,true,high,NA,NA,NA,NA,NA,NA,NA,false
YeIybkNQ,3y7ltze0zwz7ft0pae7k34mi28juzv,39kfrkbfir8eki4h98yufbhi0qtyo4,YeIybkNQ,2020-0188,2020-05-21,17:08:37,17:41:36,NA,incomplete,185,shape,0,right,Purple_Triangle_Grid_2.jpg,Green_Circle_Chess_2.jpg,Red_Triangle_Dots_1.jpg,right,595.2099999994971,true,high,NA,NA,NA,NA,NA,NA,NA,false
YeIybkNQ,3y7ltze0zwz7ft0pae7k34mi28juzv,39kfrkbfir8eki4h98yufbhi0qtyo4,YeIybkNQ,2020-0188,2020-05-21,17:08:37,17:41:36,NA,incomplete,186,shape,1,left,Purple_Triangle_Grid_3.jpg,Red_Triangle_Stripes_1.jpg,Green_Plus_Chess_3.jpg,left,590.519999998156,true,high,NA,NA,NA,NA,NA,NA,NA,false
YeIybkNQ,3y7ltze0zwz7ft0pae7k34mi28juzv,39kfrkbfir8eki4h98yufbhi0qtyo4,YeIybkNQ,2020-0188,2020-05-21,17:08:37,17:41:36,NA,incomplete,187,shape,0,right,Red_Triangle_Grid_4.jpg,Green_Star_Chess_4.jpg,Purple_Triangle_Stripes_1.jpg,right,655.0649999990128,true,high,NA,NA,NA,NA,NA,NA,NA,false
YeIybkNQ,3y7ltze0zwz7ft0pae7k34mi28juzv,39kfrkbfir8eki4h98yufbhi0qtyo4,YeIybkNQ,2020-0188,2020-05-21,17:08:37,17:41:36,NA,incomplete,188,shape,1,right,Green_Circle_Grid_3.jpg,Blue_Plus_Stripes_3.jpg,Purple_Circle_Dots_1.jpg,right,1049.7849999954924,true,high,NA,NA,NA,NA,NA,NA,NA,false
YeIybkNQ,3y7ltze0zwz7ft0pae7k34mi28juzv,39kfrkbfir8eki4h98yufbhi0qtyo4,YeIybkNQ,2020-0188,2020-05-21,17:08:37,17:41:36,NA,incomplete,189,shape,1,right,Purple_Triangle_Grid_4.jpg,Red_Star_Stripes_4.jpg,Green_Triangle_Dots_1.jpg,right,678.4199999966659,true,high,NA,NA,NA,NA,NA,NA,NA,false
YeIybkNQ,3y7ltze0zwz7ft0pae7k34mi28juzv,39kfrkbfir8eki4h98yufbhi0qtyo4,YeIybkNQ,2020-0188,2020-05-21,17:08:37,17:41:36,NA,incomplete,190,shape,1,right,Blue_Circle_Grid_2.jpg,Red_Plus_Dots_2.jpg,Green_Circle_Stripes_4.jpg,right,554.5500000007451,true,high,NA,NA,NA,NA,NA,NA,NA,false
YeIybkNQ,3y7ltze0zwz7ft0pae7k34mi28juzv,39kfrkbfir8eki4h98yufbhi0qtyo4,YeIybkNQ,2020-0188,2020-05-21,17:08:37,17:41:36,NA,incomplete,191,shape,1,left,Green_Triangle_Dots_1.jpg,Purple_Triangle_Chess_3.jpg,Red_Star_Stripes_1.jpg,left,594.1599999933969,true,high,NA,NA,NA,NA,NA,NA,NA,false
YeIybkNQ,3y7ltze0zwz7ft0pae7k34mi28juzv,39kfrkbfir8eki4h98yufbhi0qtyo4,YeIybkNQ,2020-0188,2020-05-21,17:08:37,17:41:36,NA,incomplete,192,shape,1,right,Green_Star_Dots_3.jpg,Red_Triangle_Stripes_3.jpg,Purple_Star_Grid_4.jpg,right,903.384999997681,true,high,NA,NA,NA,NA,NA,NA,NA,false
YeIybkNQ,3y7ltze0zwz7ft0pae7k34mi28juzv,39kfrkbfir8eki4h98yufbhi0qtyo4,YeIybkNQ,2020-0188,2020-05-21,17:08:37,17:41:36,NA,incomplete,193,shape,1,left,Blue_Circle_Chess_2.jpg,Red_Circle_Grid_1.jpg,Green_Triangle_Stripes_2.jpg,left,962.4049999983981,true,high,NA,NA,NA,NA,NA,NA,NA,false
YeIybkNQ,3y7ltze0zwz7ft0pae7k34mi28juzv,39kfrkbfir8eki4h98yufbhi0qtyo4,YeIybkNQ,2020-0188,2020-05-21,17:08:37,17:41:36,NA,incomplete,194,shape,1,right,Red_Star_Dots_3.jpg,Blue_Plus_Grid_3.jpg,Purple_Star_Chess_1.jpg,right,902.7299999871757,true,high,NA,NA,NA,NA,NA,NA,NA,false
YeIybkNQ,3y7ltze0zwz7ft0pae7k34mi28juzv,39kfrkbfir8eki4h98yufbhi0qtyo4,YeIybkNQ,2020-0188,2020-05-21,17:08:37,17:41:36,NA,incomplete,195,shape,1,right,Purple_Circle_Chess_1.jpg,Green_Star_Grid_1.jpg,Red_Circle_Dots_4.jpg,right,615.4899999964982,true,high,NA,NA,NA,NA,NA,NA,NA,false
YeIybkNQ,3y7ltze0zwz7ft0pae7k34mi28juzv,39kfrkbfir8eki4h98yufbhi0qtyo4,YeIybkNQ,2020-0188,2020-05-21,17:08:37,17:41:36,NA,incomplete,196,shape,1,left,Green_Plus_Stripes_2.jpg,Purple_Plus_Grid_3.jpg,Red_Triangle_Dots_2.jpg,left,464.63999999081716,true,high,NA,NA,NA,NA,NA,NA,NA,false
YeIybkNQ,3y7ltze0zwz7ft0pae7k34mi28juzv,39kfrkbfir8eki4h98yufbhi0qtyo4,YeIybkNQ,2020-0188,2020-05-21,17:08:37,17:41:36,NA,incomplete,197,shape,1,right,Green_Circle_Grid_3.jpg,Blue_Star_Chess_3.jpg,Purple_Circle_Dots_2.jpg,right,573.9549999996088,true,high,NA,NA,NA,NA,NA,NA,NA,false
YeIybkNQ,3y7ltze0zwz7ft0pae7k34mi28juzv,39kfrkbfir8eki4h98yufbhi0qtyo4,YeIybkNQ,2020-0188,2020-05-21,17:08:37,17:41:36,NA,incomplete,198,shape,1,right,Green_Star_Stripes_2.jpg,Blue_Circle_Dots_2.jpg,Purple_Star_Grid_3.jpg,right,509.67500000819564,true,high,NA,NA,NA,NA,NA,NA,NA,false
YeIybkNQ,3y7ltze0zwz7ft0pae7k34mi28juzv,39kfrkbfir8eki4h98yufbhi0qtyo4,YeIybkNQ,2020-0188,2020-05-21,17:08:37,17:41:36,NA,incomplete,199,shape,0,right,Purple_Circle_Chess_1.jpg,Green_Triangle_Dots_1.jpg,Red_Circle_Stripes_4.jpg,right,495.3099999986589,true,high,NA,NA,NA,NA,NA,NA,NA,false
YeIybkNQ,3y7ltze0zwz7ft0pae7k34mi28juzv,39kfrkbfir8eki4h98yufbhi0qtyo4,YeIybkNQ,2020-0188,2020-05-21,17:08:37,17:41:36,NA,incomplete,200,number,1,right,Green_Star_Stripes_3.jpg,Purple_Star_Grid_1.jpg,Blue_Triangle_Chess_3.jpg,right,922.639999989653,true,high,NA,NA,NA,NA,NA,NA,NA,false
YeIybkNQ,3y7ltze0zwz7ft0pae7k34mi28juzv,39kfrkbfir8eki4h98yufbhi0qtyo4,YeIybkNQ,2020-0188,2020-05-21,17:08:37,17:41:36,NA,incomplete,201,number,1,right,Red_Triangle_Chess_3.jpg,Blue_Triangle_Dots_4.jpg,Green_Circle_Grid_3.jpg,left,919.3399999930989,false,high,NA,NA,NA,NA,NA,NA,NA,false
YeIybkNQ,3y7ltze0zwz7ft0pae7k34mi28juzv,39kfrkbfir8eki4h98yufbhi0qtyo4,YeIybkNQ,2020-0188,2020-05-21,17:08:37,17:41:36,NA,incomplete,202,number,0,left,Green_Plus_Grid_2.jpg,Purple_Circle_Stripes_2.jpg,Red_Plus_Chess_4.jpg,left,826.7900000063237,true,high,NA,NA,NA,NA,NA,NA,NA,false
YeIybkNQ,3y7ltze0zwz7ft0pae7k34mi28juzv,39kfrkbfir8eki4h98yufbhi0qtyo4,YeIybkNQ,2020-0188,2020-05-21,17:08:37,17:41:36,NA,incomplete,203,number,1,left,Purple_Circle_Dots_3.jpg,Blue_Plus_Chess_3.jpg,Red_Circle_Stripes_4.jpg,left,908.039999994915,true,high,NA,NA,NA,NA,NA,NA,NA,false
YeIybkNQ,3y7ltze0zwz7ft0pae7k34mi28juzv,39kfrkbfir8eki4h98yufbhi0qtyo4,YeIybkNQ,2020-0188,2020-05-21,17:08:37,17:41:36,NA,incomplete,204,number,1,left,Green_Triangle_Stripes_3.jpg,Purple_Plus_Grid_3.jpg,Red_Triangle_Chess_1.jpg,left,667.7999999956228,true,high,NA,NA,NA,NA,NA,NA,NA,false
YeIybkNQ,3y7ltze0zwz7ft0pae7k34mi28juzv,39kfrkbfir8eki4h98yufbhi0qtyo4,YeIybkNQ,2020-0188,2020-05-21,17:08:37,17:41:36,NA,incomplete,205,number,0,right,Red_Circle_Grid_3.jpg,Green_Circle_Dots_1.jpg,Purple_Star_Chess_3.jpg,right,529.3650000095367,true,high,NA,NA,NA,NA,NA,NA,NA,false
YeIybkNQ,3y7ltze0zwz7ft0pae7k34mi28juzv,39kfrkbfir8eki4h98yufbhi0qtyo4,YeIybkNQ,2020-0188,2020-05-21,17:08:37,17:41:36,NA,incomplete,206,number,1,left,Red_Star_Chess_3.jpg,Purple_Circle_Stripes_3.jpg,Blue_Star_Grid_1.jpg,left,506.7299999934621,true,high,NA,NA,NA,NA,NA,NA,NA,false
YeIybkNQ,3y7ltze0zwz7ft0pae7k34mi28juzv,39kfrkbfir8eki4h98yufbhi0qtyo4,YeIybkNQ,2020-0188,2020-05-21,17:08:37,17:41:36,NA,incomplete,207,number,0,right,Green_Plus_Grid_2.jpg,Blue_Plus_Chess_4.jpg,Purple_Circle_Dots_2.jpg,left,594.9099999996834,false,high,NA,NA,NA,NA,NA,NA,NA,false
YeIybkNQ,3y7ltze0zwz7ft0pae7k34mi28juzv,39kfrkbfir8eki4h98yufbhi0qtyo4,YeIybkNQ,2020-0188,2020-05-21,17:08:37,17:41:36,NA,incomplete,208,number,1,left,Blue_Star_Chess_2.jpg,Green_Plus_Dots_2.jpg,Purple_Star_Stripes_4.jpg,right,645.3900000050198,false,high,NA,NA,NA,NA,NA,NA,NA,false
YeIybkNQ,3y7ltze0zwz7ft0pae7k34mi28juzv,39kfrkbfir8eki4h98yufbhi0qtyo4,YeIybkNQ,2020-0188,2020-05-21,17:08:37,17:41:36,NA,incomplete,209,number,1,right,Blue_Plus_Chess_3.jpg,Purple_Plus_Grid_4.jpg,Green_Circle_Stripes_3.jpg,left,571.8550000020768,false,high,NA,NA,NA,NA,NA,NA,NA,false
YeIybkNQ,3y7ltze0zwz7ft0pae7k34mi28juzv,39kfrkbfir8eki4h98yufbhi0qtyo4,YeIybkNQ,2020-0188,2020-05-21,17:08:37,17:41:36,NA,incomplete,210,number,0,right,Blue_Star_Chess_2.jpg,Purple_Star_Stripes_3.jpg,Red_Triangle_Dots_2.jpg,left,488.7400000006892,false,high,NA,NA,NA,NA,NA,NA,NA,false
YeIybkNQ,3y7ltze0zwz7ft0pae7k34mi28juzv,39kfrkbfir8eki4h98yufbhi0qtyo4,YeIybkNQ,2020-0188,2020-05-21,17:08:37,17:41:36,NA,incomplete,211,number,1,right,Green_Circle_Stripes_2.jpg,Blue_Circle_Dots_1.jpg,Red_Plus_Grid_2.jpg,left,657.8200000075158,false,high,NA,NA,NA,NA,NA,NA,NA,false
YeIybkNQ,3y7ltze0zwz7ft0pae7k34mi28juzv,39kfrkbfir8eki4h98yufbhi0qtyo4,YeIybkNQ,2020-0188,2020-05-21,17:08:37,17:41:36,NA,incomplete,212,number,1,left,Blue_Circle_Grid_3.jpg,Green_Triangle_Stripes_3.jpg,Red_Circle_Chess_2.jpg,left,716.6949999956414,true,high,NA,NA,NA,NA,NA,NA,NA,false
YeIybkNQ,3y7ltze0zwz7ft0pae7k34mi28juzv,39kfrkbfir8eki4h98yufbhi0qtyo4,YeIybkNQ,2020-0188,2020-05-21,17:08:37,17:41:36,NA,incomplete,213,number,1,left,Red_Star_Grid_4.jpg,Green_Triangle_Chess_4.jpg,Blue_Star_Dots_2.jpg,right,663.0849999929778,false,high,NA,NA,NA,NA,NA,NA,NA,false
YeIybkNQ,3y7ltze0zwz7ft0pae7k34mi28juzv,39kfrkbfir8eki4h98yufbhi0qtyo4,YeIybkNQ,2020-0188,2020-05-21,17:08:37,17:41:36,NA,incomplete,214,number,0,right,Purple_Star_Grid_3.jpg,Green_Star_Stripes_4.jpg,Blue_Circle_Dots_3.jpg,right,1242.7100000057835,true,high,NA,NA,NA,NA,NA,NA,NA,false
YeIybkNQ,3y7ltze0zwz7ft0pae7k34mi28juzv,39kfrkbfir8eki4h98yufbhi0qtyo4,YeIybkNQ,2020-0188,2020-05-21,17:08:37,17:41:36,NA,incomplete,215,number,1,right,Purple_Circle_Chess_2.jpg,Green_Circle_Grid_3.jpg,Red_Plus_Stripes_2.jpg,left,777.0900000031106,false,high,NA,NA,NA,NA,NA,NA,NA,false
YeIybkNQ,3y7ltze0zwz7ft0pae7k34mi28juzv,39kfrkbfir8eki4h98yufbhi0qtyo4,YeIybkNQ,2020-0188,2020-05-21,17:08:37,17:41:36,NA,incomplete,216,number,1,right,Green_Triangle_Chess_1.jpg,Blue_Triangle_Stripes_3.jpg,Red_Plus_Grid_1.jpg,left,488.98000000906177,false,high,NA,NA,NA,NA,NA,NA,NA,false
YeIybkNQ,3y7ltze0zwz7ft0pae7k34mi28juzv,39kfrkbfir8eki4h98yufbhi0qtyo4,YeIybkNQ,2020-0188,2020-05-21,17:08:37,17:41:36,NA,incomplete,217,number,1,left,Purple_Circle_Dots_1.jpg,Blue_Triangle_Stripes_1.jpg,Green_Circle_Grid_2.jpg,right,655.3899999998976,false,high,NA,NA,NA,NA,NA,NA,NA,false
YeIybkNQ,3y7ltze0zwz7ft0pae7k34mi28juzv,39kfrkbfir8eki4h98yufbhi0qtyo4,YeIybkNQ,2020-0188,2020-05-21,17:08:37,17:41:36,NA,incomplete,218,number,1,right,Green_Circle_Chess_3.jpg,Purple_Circle_Stripes_4.jpg,Blue_Star_Dots_3.jpg,left,527.4700000009034,false,high,NA,NA,NA,NA,NA,NA,NA,false
YeIybkNQ,3y7ltze0zwz7ft0pae7k34mi28juzv,39kfrkbfir8eki4h98yufbhi0qtyo4,YeIybkNQ,2020-0188,2020-05-21,17:08:37,17:41:36,NA,incomplete,219,number,1,right,Blue_Plus_Stripes_4.jpg,Purple_Plus_Chess_2.jpg,Green_Circle_Grid_4.jpg,right,1179.315000001341,true,high,NA,NA,NA,NA,NA,NA,NA,false
YeIybkNQ,3y7ltze0zwz7ft0pae7k34mi28juzv,39kfrkbfir8eki4h98yufbhi0qtyo4,YeIybkNQ,2020-0188,2020-05-21,17:08:37,17:41:36,NA,incomplete,220,shape,1,right,Purple_Triangle_Chess_2.jpg,Green_Plus_Stripes_2.jpg,Blue_Triangle_Dots_4.jpg,left,746.1949999995995,false,high,NA,NA,NA,NA,NA,NA,NA,false
YeIybkNQ,3y7ltze0zwz7ft0pae7k34mi28juzv,39kfrkbfir8eki4h98yufbhi0qtyo4,YeIybkNQ,2020-0188,2020-05-21,17:08:37,17:41:36,NA,incomplete,221,shape,1,left,Blue_Circle_Dots_3.jpg,Red_Circle_Chess_4.jpg,Green_Star_Stripes_3.jpg,right,832.1750000030734,false,high,NA,NA,NA,NA,NA,NA,NA,false
YeIybkNQ,3y7ltze0zwz7ft0pae7k34mi28juzv,39kfrkbfir8eki4h98yufbhi0qtyo4,YeIybkNQ,2020-0188,2020-05-21,17:08:37,17:41:36,NA,incomplete,222,shape,1,left,Green_Circle_Stripes_4.jpg,Purple_Circle_Chess_3.jpg,Red_Plus_Grid_4.jpg,right,692.7750000031665,false,high,NA,NA,NA,NA,NA,NA,NA,false
YeIybkNQ,3y7ltze0zwz7ft0pae7k34mi28juzv,39kfrkbfir8eki4h98yufbhi0qtyo4,YeIybkNQ,2020-0188,2020-05-21,17:08:37,17:41:36,NA,incomplete,223,shape,1,left,Purple_Circle_Chess_4.jpg,Blue_Circle_Grid_2.jpg,Red_Triangle_Dots_4.jpg,right,643.9850000024308,false,high,NA,NA,NA,NA,NA,NA,NA,false
YeIybkNQ,3y7ltze0zwz7ft0pae7k34mi28juzv,39kfrkbfir8eki4h98yufbhi0qtyo4,YeIybkNQ,2020-0188,2020-05-21,17:08:37,17:41:36,NA,incomplete,224,shape,1,left,Green_Plus_Stripes_3.jpg,Red_Plus_Grid_2.jpg,Purple_Triangle_Chess_3.jpg,left,969.2650000068825,true,high,NA,NA,NA,NA,NA,NA,NA,false
YeIybkNQ,3y7ltze0zwz7ft0pae7k34mi28juzv,39kfrkbfir8eki4h98yufbhi0qtyo4,YeIybkNQ,2020-0188,2020-05-21,17:08:37,17:41:36,NA,incomplete,225,shape,0,left,Red_Star_Grid_1.jpg,Blue_Star_Dots_3.jpg,Purple_Circle_Chess_1.jpg,left,525.3599999998696,true,high,NA,NA,NA,NA,NA,NA,NA,false
YeIybkNQ,3y7ltze0zwz7ft0pae7k34mi28juzv,39kfrkbfir8eki4h98yufbhi0qtyo4,YeIybkNQ,2020-0188,2020-05-21,17:08:37,17:41:36,NA,incomplete,226,shape,1,left,Purple_Plus_Stripes_2.jpg,Red_Plus_Grid_3.jpg,Green_Triangle_Dots_2.jpg,left,533.0650000106543,true,high,NA,NA,NA,NA,NA,NA,NA,false
YeIybkNQ,3y7ltze0zwz7ft0pae7k34mi28juzv,39kfrkbfir8eki4h98yufbhi0qtyo4,YeIybkNQ,2020-0188,2020-05-21,17:08:37,17:41:36,NA,incomplete,227,shape,1,right,Purple_Star_Grid_3.jpg,Green_Plus_Stripes_3.jpg,Red_Star_Chess_1.jpg,left,470.13000000151806,false,high,NA,NA,NA,NA,NA,NA,NA,false
YeIybkNQ,3y7ltze0zwz7ft0pae7k34mi28juzv,39kfrkbfir8eki4h98yufbhi0qtyo4,YeIybkNQ,2020-0188,2020-05-21,17:08:37,17:41:36,NA,incomplete,228,shape,1,right,Blue_Triangle_Chess_2.jpg,Red_Circle_Stripes_2.jpg,Purple_Triangle_Grid_1.jpg,right,561.4950000017416,true,high,NA,NA,NA,NA,NA,NA,NA,false
YeIybkNQ,3y7ltze0zwz7ft0pae7k34mi28juzv,39kfrkbfir8eki4h98yufbhi0qtyo4,YeIybkNQ,2020-0188,2020-05-21,17:08:37,17:41:36,NA,incomplete,229,shape,0,left,Blue_Star_Grid_4.jpg,Green_Star_Stripes_1.jpg,Purple_Triangle_Chess_4.jpg,left,542.1500000082888,true,high,NA,NA,NA,NA,NA,NA,NA,false
YeIybkNQ,3y7ltze0zwz7ft0pae7k34mi28juzv,39kfrkbfir8eki4h98yufbhi0qtyo4,YeIybkNQ,2020-0188,2020-05-21,17:08:37,17:41:36,NA,incomplete,230,shape,1,left,Green_Circle_Dots_4.jpg,Red_Circle_Grid_1.jpg,Purple_Plus_Chess_4.jpg,right,516.1050000023097,false,high,NA,NA,NA,NA,NA,NA,NA,false
YeIybkNQ,3y7ltze0zwz7ft0pae7k34mi28juzv,39kfrkbfir8eki4h98yufbhi0qtyo4,YeIybkNQ,2020-0188,2020-05-21,17:08:37,17:41:36,NA,incomplete,231,shape,0,right,Blue_Plus_Dots_3.jpg,Purple_Star_Stripes_3.jpg,Green_Plus_Grid_1.jpg,right,923.8150000018068,true,high,NA,NA,NA,NA,NA,NA,NA,false
YeIybkNQ,3y7ltze0zwz7ft0pae7k34mi28juzv,39kfrkbfir8eki4h98yufbhi0qtyo4,YeIybkNQ,2020-0188,2020-05-21,17:08:37,17:41:36,NA,incomplete,232,shape,1,left,Blue_Star_Stripes_4.jpg,Green_Star_Grid_1.jpg,Red_Circle_Chess_4.jpg,left,563.1850000063423,true,high,NA,NA,NA,NA,NA,NA,NA,false
YeIybkNQ,3y7ltze0zwz7ft0pae7k34mi28juzv,39kfrkbfir8eki4h98yufbhi0qtyo4,YeIybkNQ,2020-0188,2020-05-21,17:08:37,17:41:36,NA,incomplete,233,shape,1,left,Red_Circle_Chess_4.jpg,Purple_Circle_Stripes_1.jpg,Green_Plus_Grid_4.jpg,left,669.8899999903515,true,high,NA,NA,NA,NA,NA,NA,NA,false
YeIybkNQ,3y7ltze0zwz7ft0pae7k34mi28juzv,39kfrkbfir8eki4h98yufbhi0qtyo4,YeIybkNQ,2020-0188,2020-05-21,17:08:37,17:41:36,NA,incomplete,234,shape,1,right,Green_Star_Dots_1.jpg,Purple_Circle_Stripes_1.jpg,Red_Star_Grid_4.jpg,left,547.7749999992084,false,high,NA,NA,NA,NA,NA,NA,NA,false
YeIybkNQ,3y7ltze0zwz7ft0pae7k34mi28juzv,39kfrkbfir8eki4h98yufbhi0qtyo4,YeIybkNQ,2020-0188,2020-05-21,17:08:37,17:41:36,NA,incomplete,235,shape,1,right,Purple_Triangle_Chess_3.jpg,Red_Star_Stripes_3.jpg,Blue_Triangle_Grid_4.jpg,right,1017.1100000008009,true,high,NA,NA,NA,NA,NA,NA,NA,false
YeIybkNQ,3y7ltze0zwz7ft0pae7k34mi28juzv,39kfrkbfir8eki4h98yufbhi0qtyo4,YeIybkNQ,2020-0188,2020-05-21,17:08:37,17:41:36,NA,incomplete,236,shape,0,left,Blue_Plus_Chess_4.jpg,Purple_Plus_Dots_2.jpg,Green_Circle_Grid_4.jpg,left,534.8200000007637,true,high,NA,NA,NA,NA,NA,NA,NA,false
YeIybkNQ,3y7ltze0zwz7ft0pae7k34mi28juzv,39kfrkbfir8eki4h98yufbhi0qtyo4,YeIybkNQ,2020-0188,2020-05-21,17:08:37,17:41:36,NA,incomplete,237,shape,1,left,Blue_Triangle_Chess_4.jpg,Green_Triangle_Grid_3.jpg,Red_Circle_Stripes_4.jpg,left,550.3499999903142,true,high,NA,NA,NA,NA,NA,NA,NA,false
YeIybkNQ,3y7ltze0zwz7ft0pae7k34mi28juzv,39kfrkbfir8eki4h98yufbhi0qtyo4,YeIybkNQ,2020-0188,2020-05-21,17:08:37,17:41:36,NA,incomplete,238,shape,1,left,Purple_Triangle_Dots_3.jpg,Blue_Triangle_Stripes_4.jpg,Red_Star_Grid_3.jpg,left,633.3450000092853,true,high,NA,NA,NA,NA,NA,NA,NA,false
YeIybkNQ,3y7ltze0zwz7ft0pae7k34mi28juzv,39kfrkbfir8eki4h98yufbhi0qtyo4,YeIybkNQ,2020-0188,2020-05-21,17:08:37,17:41:36,NA,incomplete,239,shape,1,right,Green_Triangle_Dots_4.jpg,Purple_Plus_Grid_4.jpg,Red_Triangle_Stripes_2.jpg,right,526.0850000048522,true,high,NA,NA,NA,NA,NA,NA,NA,false
YeIybkNQ,3y7ltze0zwz7ft0pae7k34mi28juzv,39kfrkbfir8eki4h98yufbhi0qtyo4,YeIybkNQ,2020-0188,2020-05-21,17:08:37,17:41:36,NA,NA,instruction example,color,NA,NA,Purple_Circle_Chess_3.jpg,Purple_Triangle_Grid_4.jpg,Green_Plus_Chess_1.jpg,NA,NA,NA,NA,NA,NA,NA,NA,NA,NA,NA,undefined
YeIybkNQ,3y7ltze0zwz7ft0pae7k34mi28juzv,39kfrkbfir8eki4h98yufbhi0qtyo4,YeIybkNQ,2020-0188,2020-05-21,17:08:37,17:41:36,NA,NA,instruction example,color,NA,NA,Purple_Circle_Chess_4.jpg,Green_Triangle_Chess_3.jpg,Purple_Plus_Grid_1.jpg,NA,NA,NA,NA,NA,NA,NA,NA,NA,NA,NA,undefined
YeIybkNQ,3y7ltze0zwz7ft0pae7k34mi28juzv,39kfrkbfir8eki4h98yufbhi0qtyo4,YeIybkNQ,2020-0188,2020-05-21,17:08:37,17:41:36,NA,NA,instruction example,color,NA,NA,Red_Triangle_Grid_4.jpg,Blue_Star_Chess_4.jpg,Purple_Triangle_Stripes_1.jpg,NA,NA,NA,NA,NA,NA,NA,NA,NA,NA,NA,undefined
YeIybkNQ,3y7ltze0zwz7ft0pae7k34mi28juzv,39kfrkbfir8eki4h98yufbhi0qtyo4,YeIybkNQ,2020-0188,2020-05-21,17:08:37,17:41:36,NA,NA,instruction example,color,NA,NA,Red_Star_Stripes_4.jpg,Blue_Star_Grid_3.jpg,Purple_Plus_Chess_4.jpg,NA,NA,NA,NA,NA,NA,NA,NA,NA,NA,NA,undefined
YeIybkNQ,3y7ltze0zwz7ft0pae7k34mi28juzv,39kfrkbfir8eki4h98yufbhi0qtyo4,YeIybkNQ,2020-0188,2020-05-21,17:08:37,17:41:36,1959395.5399999977,1980715.0799999945,NA,NA,NA,NA,NA,NA,NA,NA,NA,NA,NA,26,Multiracial,Female,HISPANIC,no,yes,no,undefined
