workerId,hitId,assignmentId,subject,studyid,exp_date,exp_start,exp_end,time_start,time_end,trial,type,reward_validity,answer,image_top,image_left,image_right,response,response_time,response_acc,volatility,age,race,gender,ethnicity,color,vision,neuro,practice
28iF65YK,3eawoid6nwaaqnjzba4xtrlfy89v0t,39paafcodqddtgek0ex92mjbhjztv7,28iF65YK,2020-0188,2020-05-21,23:48:26,00:06:50,NA,incomplete,0,shape,1,right,Red_Circle_Chess_4.jpg,Red_Star_Stripes_1.jpg,Purple_Circle_Grid_3.jpg,right,1219.2349999968428,true,NA,NA,NA,NA,NA,NA,NA,NA,true
28iF65YK,3eawoid6nwaaqnjzba4xtrlfy89v0t,39paafcodqddtgek0ex92mjbhjztv7,28iF65YK,2020-0188,2020-05-21,23:48:26,00:06:50,NA,incomplete,1,shape,1,right,Red_Plus_Chess_1.jpg,Red_Star_Dots_2.jpg,Purple_Plus_Grid_4.jpg,right,1061.4599999971688,true,NA,NA,NA,NA,NA,NA,NA,NA,true
28iF65YK,3eawoid6nwaaqnjzba4xtrlfy89v0t,39paafcodqddtgek0ex92mjbhjztv7,28iF65YK,2020-0188,2020-05-21,23:48:26,00:06:50,NA,incomplete,2,shape,1,right,Blue_Circle_Grid_1.jpg,Blue_Star_Chess_3.jpg,Red_Circle_Dots_4.jpg,right,993.6499999894295,true,NA,NA,NA,NA,NA,NA,NA,NA,true
28iF65YK,3eawoid6nwaaqnjzba4xtrlfy89v0t,39paafcodqddtgek0ex92mjbhjztv7,28iF65YK,2020-0188,2020-05-21,23:48:26,00:06:50,NA,incomplete,3,shape,1,left,Green_Star_Chess_4.jpg,Blue_Star_Grid_2.jpg,Green_Plus_Dots_1.jpg,left,952.7500000258442,true,NA,NA,NA,NA,NA,NA,NA,NA,true
28iF65YK,3eawoid6nwaaqnjzba4xtrlfy89v0t,39paafcodqddtgek0ex92mjbhjztv7,28iF65YK,2020-0188,2020-05-21,23:48:26,00:06:50,NA,incomplete,4,shape,0,right,Green_Triangle_Dots_3.jpg,Green_Star_Stripes_2.jpg,Red_Triangle_Chess_1.jpg,right,1123.3549999888055,true,NA,NA,NA,NA,NA,NA,NA,NA,true
28iF65YK,3eawoid6nwaaqnjzba4xtrlfy89v0t,39paafcodqddtgek0ex92mjbhjztv7,28iF65YK,2020-0188,2020-05-21,23:48:26,00:06:50,NA,incomplete,5,shape,1,right,Green_Circle_Grid_1.jpg,Green_Triangle_Dots_4.jpg,Blue_Circle_Chess_3.jpg,right,1286.904999986291,true,NA,NA,NA,NA,NA,NA,NA,NA,true
28iF65YK,3eawoid6nwaaqnjzba4xtrlfy89v0t,39paafcodqddtgek0ex92mjbhjztv7,28iF65YK,2020-0188,2020-05-21,23:48:26,00:06:50,NA,incomplete,6,shape,0,left,Red_Circle_Dots_2.jpg,Green_Circle_Stripes_3.jpg,Red_Star_Chess_4.jpg,left,808.950000006007,true,NA,NA,NA,NA,NA,NA,NA,NA,true
28iF65YK,3eawoid6nwaaqnjzba4xtrlfy89v0t,39paafcodqddtgek0ex92mjbhjztv7,28iF65YK,2020-0188,2020-05-21,23:48:26,00:06:50,NA,incomplete,7,shape,1,right,Purple_Triangle_Dots_4.jpg,Purple_Star_Stripes_1.jpg,Green_Triangle_Grid_2.jpg,right,1351.4499999873806,true,NA,NA,NA,NA,NA,NA,NA,NA,true
28iF65YK,3eawoid6nwaaqnjzba4xtrlfy89v0t,39paafcodqddtgek0ex92mjbhjztv7,28iF65YK,2020-0188,2020-05-21,23:48:26,00:06:50,NA,incomplete,8,shape,0,right,Green_Plus_Dots_4.jpg,Green_Star_Grid_2.jpg,Red_Plus_Stripes_1.jpg,right,1121.3649999990594,true,NA,NA,NA,NA,NA,NA,NA,NA,true
28iF65YK,3eawoid6nwaaqnjzba4xtrlfy89v0t,39paafcodqddtgek0ex92mjbhjztv7,28iF65YK,2020-0188,2020-05-21,23:48:26,00:06:50,NA,incomplete,9,shape,1,right,Purple_Circle_Chess_3.jpg,Purple_Plus_Grid_4.jpg,Red_Circle_Stripes_2.jpg,right,1118.1649999925867,true,NA,NA,NA,NA,NA,NA,NA,NA,true
28iF65YK,3eawoid6nwaaqnjzba4xtrlfy89v0t,39paafcodqddtgek0ex92mjbhjztv7,28iF65YK,2020-0188,2020-05-21,23:48:26,00:06:50,NA,incomplete,10,shape,0,right,Red_Plus_Stripes_2.jpg,Red_Star_Dots_4.jpg,Blue_Plus_Chess_1.jpg,right,883.0100000195671,true,NA,NA,NA,NA,NA,NA,NA,NA,true
28iF65YK,3eawoid6nwaaqnjzba4xtrlfy89v0t,39paafcodqddtgek0ex92mjbhjztv7,28iF65YK,2020-0188,2020-05-21,23:48:26,00:06:50,NA,incomplete,11,shape,0,left,Purple_Circle_Grid_1.jpg,Green_Circle_Dots_3.jpg,Purple_Plus_Chess_2.jpg,left,1014.4600000057835,true,NA,NA,NA,NA,NA,NA,NA,NA,true
28iF65YK,3eawoid6nwaaqnjzba4xtrlfy89v0t,39paafcodqddtgek0ex92mjbhjztv7,28iF65YK,2020-0188,2020-05-21,23:48:26,00:06:50,NA,incomplete,12,shape,1,left,Blue_Star_Stripes_2.jpg,Green_Star_Chess_1.jpg,Blue_Triangle_Dots_3.jpg,right,1663.0850000074133,false,NA,NA,NA,NA,NA,NA,NA,NA,true
28iF65YK,3eawoid6nwaaqnjzba4xtrlfy89v0t,39paafcodqddtgek0ex92mjbhjztv7,28iF65YK,2020-0188,2020-05-21,23:48:26,00:06:50,NA,incomplete,13,shape,1,right,Green_Triangle_Stripes_2.jpg,Green_Star_Dots_3.jpg,Blue_Triangle_Grid_1.jpg,right,1034.4050000130665,true,NA,NA,NA,NA,NA,NA,NA,NA,true
28iF65YK,3eawoid6nwaaqnjzba4xtrlfy89v0t,39paafcodqddtgek0ex92mjbhjztv7,28iF65YK,2020-0188,2020-05-21,23:48:26,00:06:50,NA,incomplete,14,shape,0,left,Red_Circle_Grid_2.jpg,Blue_Circle_Stripes_3.jpg,Red_Star_Chess_1.jpg,left,1106.149999977788,true,NA,NA,NA,NA,NA,NA,NA,NA,true
28iF65YK,3eawoid6nwaaqnjzba4xtrlfy89v0t,39paafcodqddtgek0ex92mjbhjztv7,28iF65YK,2020-0188,2020-05-21,23:48:26,00:06:50,NA,incomplete,15,shape,1,left,Blue_Star_Stripes_2.jpg,Green_Star_Grid_3.jpg,Blue_Circle_Dots_1.jpg,left,1197.5000000093132,true,NA,NA,NA,NA,NA,NA,NA,NA,true
28iF65YK,3eawoid6nwaaqnjzba4xtrlfy89v0t,39paafcodqddtgek0ex92mjbhjztv7,28iF65YK,2020-0188,2020-05-21,23:48:26,00:06:50,NA,incomplete,16,shape,1,left,Red_Triangle_Stripes_2.jpg,Blue_Triangle_Dots_4.jpg,Red_Star_Grid_3.jpg,left,1373.5649999871384,true,NA,NA,NA,NA,NA,NA,NA,NA,true
28iF65YK,3eawoid6nwaaqnjzba4xtrlfy89v0t,39paafcodqddtgek0ex92mjbhjztv7,28iF65YK,2020-0188,2020-05-21,23:48:26,00:06:50,NA,incomplete,17,shape,1,left,Green_Triangle_Dots_3.jpg,Red_Triangle_Grid_1.jpg,Green_Plus_Stripes_4.jpg,left,946.5499999932945,true,NA,NA,NA,NA,NA,NA,NA,NA,true
28iF65YK,3eawoid6nwaaqnjzba4xtrlfy89v0t,39paafcodqddtgek0ex92mjbhjztv7,28iF65YK,2020-0188,2020-05-21,23:48:26,00:06:50,NA,incomplete,18,shape,1,right,Green_Star_Dots_3.jpg,Green_Circle_Chess_2.jpg,Red_Star_Grid_4.jpg,right,826.5200000023469,true,NA,NA,NA,NA,NA,NA,NA,NA,true
28iF65YK,3eawoid6nwaaqnjzba4xtrlfy89v0t,39paafcodqddtgek0ex92mjbhjztv7,28iF65YK,2020-0188,2020-05-21,23:48:26,00:06:50,NA,incomplete,19,shape,1,right,Purple_Circle_Dots_3.jpg,Purple_Plus_Stripes_4.jpg,Red_Circle_Chess_2.jpg,right,654.964999994263,true,NA,NA,NA,NA,NA,NA,NA,NA,true
28iF65YK,3eawoid6nwaaqnjzba4xtrlfy89v0t,39paafcodqddtgek0ex92mjbhjztv7,28iF65YK,2020-0188,2020-05-21,23:48:26,00:06:50,NA,incomplete,20,color,1,left,Green_Plus_Chess_1.jpg,Green_Circle_Dots_2.jpg,Purple_Plus_Stripes_3.jpg,left,894.5050000038464,true,NA,NA,NA,NA,NA,NA,NA,NA,true
28iF65YK,3eawoid6nwaaqnjzba4xtrlfy89v0t,39paafcodqddtgek0ex92mjbhjztv7,28iF65YK,2020-0188,2020-05-21,23:48:26,00:06:50,NA,incomplete,21,color,1,left,Purple_Triangle_Dots_1.jpg,Purple_Plus_Stripes_3.jpg,Red_Triangle_Grid_4.jpg,left,1104.7850000031758,true,NA,NA,NA,NA,NA,NA,NA,NA,true
28iF65YK,3eawoid6nwaaqnjzba4xtrlfy89v0t,39paafcodqddtgek0ex92mjbhjztv7,28iF65YK,2020-0188,2020-05-21,23:48:26,00:06:50,NA,incomplete,22,color,1,left,Purple_Circle_Stripes_2.jpg,Purple_Triangle_Chess_1.jpg,Blue_Circle_Dots_4.jpg,left,853.1199999852106,true,NA,NA,NA,NA,NA,NA,NA,NA,true
28iF65YK,3eawoid6nwaaqnjzba4xtrlfy89v0t,39paafcodqddtgek0ex92mjbhjztv7,28iF65YK,2020-0188,2020-05-21,23:48:26,00:06:50,NA,incomplete,23,color,1,left,Red_Triangle_Grid_2.jpg,Red_Star_Dots_4.jpg,Green_Triangle_Stripes_1.jpg,left,923.6650000093505,true,NA,NA,NA,NA,NA,NA,NA,NA,true
28iF65YK,3eawoid6nwaaqnjzba4xtrlfy89v0t,39paafcodqddtgek0ex92mjbhjztv7,28iF65YK,2020-0188,2020-05-21,23:48:26,00:06:50,NA,incomplete,24,color,0,left,Blue_Plus_Dots_3.jpg,Blue_Triangle_Stripes_1.jpg,Purple_Plus_Grid_2.jpg,left,1044.2200000106823,true,NA,NA,NA,NA,NA,NA,NA,NA,true
28iF65YK,3eawoid6nwaaqnjzba4xtrlfy89v0t,39paafcodqddtgek0ex92mjbhjztv7,28iF65YK,2020-0188,2020-05-21,23:48:26,00:06:50,NA,incomplete,25,color,1,right,Red_Star_Chess_3.jpg,Purple_Star_Stripes_4.jpg,Red_Circle_Dots_2.jpg,right,758.2000000111293,true,NA,NA,NA,NA,NA,NA,NA,NA,true
28iF65YK,3eawoid6nwaaqnjzba4xtrlfy89v0t,39paafcodqddtgek0ex92mjbhjztv7,28iF65YK,2020-0188,2020-05-21,23:48:26,00:06:50,NA,incomplete,26,color,1,left,Red_Circle_Dots_4.jpg,Red_Triangle_Chess_3.jpg,Blue_Circle_Stripes_2.jpg,left,1004.6649999858346,true,NA,NA,NA,NA,NA,NA,NA,NA,true
28iF65YK,3eawoid6nwaaqnjzba4xtrlfy89v0t,39paafcodqddtgek0ex92mjbhjztv7,28iF65YK,2020-0188,2020-05-21,23:48:26,00:06:50,NA,incomplete,27,color,1,left,Red_Plus_Chess_3.jpg,Red_Circle_Stripes_4.jpg,Purple_Plus_Grid_2.jpg,left,862.7700000070035,true,NA,NA,NA,NA,NA,NA,NA,NA,true
28iF65YK,3eawoid6nwaaqnjzba4xtrlfy89v0t,39paafcodqddtgek0ex92mjbhjztv7,28iF65YK,2020-0188,2020-05-21,23:48:26,00:06:50,NA,incomplete,28,color,1,left,Blue_Plus_Stripes_4.jpg,Blue_Circle_Grid_1.jpg,Purple_Plus_Chess_3.jpg,left,883.8600000017323,true,NA,NA,NA,NA,NA,NA,NA,NA,true
28iF65YK,3eawoid6nwaaqnjzba4xtrlfy89v0t,39paafcodqddtgek0ex92mjbhjztv7,28iF65YK,2020-0188,2020-05-21,23:48:26,00:06:50,NA,incomplete,29,color,1,right,Green_Star_Chess_4.jpg,Blue_Star_Stripes_1.jpg,Green_Plus_Grid_3.jpg,right,734.0450000192504,true,NA,NA,NA,NA,NA,NA,NA,NA,true
28iF65YK,3eawoid6nwaaqnjzba4xtrlfy89v0t,39paafcodqddtgek0ex92mjbhjztv7,28iF65YK,2020-0188,2020-05-21,23:48:26,00:06:50,NA,incomplete,30,color,1,right,Blue_Star_Chess_2.jpg,Green_Star_Grid_4.jpg,Blue_Plus_Dots_3.jpg,right,694.4450000009965,true,NA,NA,NA,NA,NA,NA,NA,NA,true
28iF65YK,3eawoid6nwaaqnjzba4xtrlfy89v0t,39paafcodqddtgek0ex92mjbhjztv7,28iF65YK,2020-0188,2020-05-21,23:48:26,00:06:50,NA,incomplete,31,color,1,right,Green_Triangle_Stripes_2.jpg,Red_Triangle_Grid_1.jpg,Green_Plus_Dots_4.jpg,right,946.3699999905657,true,NA,NA,NA,NA,NA,NA,NA,NA,true
28iF65YK,3eawoid6nwaaqnjzba4xtrlfy89v0t,39paafcodqddtgek0ex92mjbhjztv7,28iF65YK,2020-0188,2020-05-21,23:48:26,00:06:50,NA,incomplete,32,color,1,right,Green_Star_Chess_1.jpg,Red_Star_Grid_4.jpg,Green_Plus_Stripes_2.jpg,right,714.6249999932479,true,NA,NA,NA,NA,NA,NA,NA,NA,true
28iF65YK,3eawoid6nwaaqnjzba4xtrlfy89v0t,39paafcodqddtgek0ex92mjbhjztv7,28iF65YK,2020-0188,2020-05-21,23:48:26,00:06:50,NA,incomplete,33,color,1,right,Green_Circle_Dots_4.jpg,Blue_Circle_Grid_2.jpg,Green_Triangle_Stripes_1.jpg,right,810.0350000022445,true,NA,NA,NA,NA,NA,NA,NA,NA,true
28iF65YK,3eawoid6nwaaqnjzba4xtrlfy89v0t,39paafcodqddtgek0ex92mjbhjztv7,28iF65YK,2020-0188,2020-05-21,23:48:26,00:06:50,NA,incomplete,34,color,1,left,Purple_Star_Dots_4.jpg,Purple_Circle_Chess_1.jpg,Green_Star_Stripes_2.jpg,left,1165.225000004284,true,NA,NA,NA,NA,NA,NA,NA,NA,true
28iF65YK,3eawoid6nwaaqnjzba4xtrlfy89v0t,39paafcodqddtgek0ex92mjbhjztv7,28iF65YK,2020-0188,2020-05-21,23:48:26,00:06:50,NA,incomplete,35,color,1,left,Blue_Triangle_Grid_4.jpg,Blue_Star_Dots_3.jpg,Red_Triangle_Stripes_2.jpg,left,710.9000000054948,true,NA,NA,NA,NA,NA,NA,NA,NA,true
28iF65YK,3eawoid6nwaaqnjzba4xtrlfy89v0t,39paafcodqddtgek0ex92mjbhjztv7,28iF65YK,2020-0188,2020-05-21,23:48:26,00:06:50,NA,incomplete,36,color,1,right,Red_Triangle_Grid_2.jpg,Purple_Triangle_Chess_1.jpg,Red_Star_Dots_3.jpg,right,708.3849999762606,true,NA,NA,NA,NA,NA,NA,NA,NA,true
28iF65YK,3eawoid6nwaaqnjzba4xtrlfy89v0t,39paafcodqddtgek0ex92mjbhjztv7,28iF65YK,2020-0188,2020-05-21,23:48:26,00:06:50,NA,incomplete,37,color,1,right,Purple_Circle_Stripes_1.jpg,Blue_Circle_Grid_4.jpg,Purple_Triangle_Dots_3.jpg,right,667.5099999993108,true,NA,NA,NA,NA,NA,NA,NA,NA,true
28iF65YK,3eawoid6nwaaqnjzba4xtrlfy89v0t,39paafcodqddtgek0ex92mjbhjztv7,28iF65YK,2020-0188,2020-05-21,23:48:26,00:06:50,NA,incomplete,38,color,0,right,Green_Plus_Chess_1.jpg,Red_Plus_Dots_3.jpg,Green_Circle_Grid_4.jpg,right,617.7999999781605,true,NA,NA,NA,NA,NA,NA,NA,NA,true
28iF65YK,3eawoid6nwaaqnjzba4xtrlfy89v0t,39paafcodqddtgek0ex92mjbhjztv7,28iF65YK,2020-0188,2020-05-21,23:48:26,00:06:50,NA,incomplete,39,color,1,right,Purple_Triangle_Chess_3.jpg,Blue_Triangle_Grid_2.jpg,Purple_Plus_Stripes_1.jpg,right,868.5699999914505,true,NA,NA,NA,NA,NA,NA,NA,NA,true
28iF65YK,3eawoid6nwaaqnjzba4xtrlfy89v0t,39paafcodqddtgek0ex92mjbhjztv7,28iF65YK,2020-0188,2020-05-21,23:48:26,00:06:50,NA,incomplete,0,shape,1,right,Red_Star_Chess_2.jpg,Red_Plus_Grid_3.jpg,Blue_Star_Dots_1.jpg,left,826.9900000013877,false,low,NA,NA,NA,NA,NA,NA,NA,false
28iF65YK,3eawoid6nwaaqnjzba4xtrlfy89v0t,39paafcodqddtgek0ex92mjbhjztv7,28iF65YK,2020-0188,2020-05-21,23:48:26,00:06:50,NA,incomplete,1,shape,1,right,Blue_Circle_Dots_1.jpg,Blue_Triangle_Stripes_2.jpg,Red_Circle_Grid_4.jpg,right,795.750000019325,true,low,NA,NA,NA,NA,NA,NA,NA,false
28iF65YK,3eawoid6nwaaqnjzba4xtrlfy89v0t,39paafcodqddtgek0ex92mjbhjztv7,28iF65YK,2020-0188,2020-05-21,23:48:26,00:06:50,NA,incomplete,2,shape,0,right,Red_Plus_Dots_2.jpg,Red_Star_Grid_4.jpg,Blue_Plus_Chess_1.jpg,right,789.0149999875575,true,low,NA,NA,NA,NA,NA,NA,NA,false
28iF65YK,3eawoid6nwaaqnjzba4xtrlfy89v0t,39paafcodqddtgek0ex92mjbhjztv7,28iF65YK,2020-0188,2020-05-21,23:48:26,00:06:50,NA,incomplete,3,shape,1,left,Purple_Circle_Grid_3.jpg,Green_Circle_Dots_4.jpg,Purple_Triangle_Chess_2.jpg,left,874.7599999769591,true,low,NA,NA,NA,NA,NA,NA,NA,false
28iF65YK,3eawoid6nwaaqnjzba4xtrlfy89v0t,39paafcodqddtgek0ex92mjbhjztv7,28iF65YK,2020-0188,2020-05-21,23:48:26,00:06:50,NA,incomplete,4,shape,0,left,Red_Star_Grid_2.jpg,Green_Star_Stripes_3.jpg,Red_Triangle_Chess_4.jpg,left,695.3150000190362,true,low,NA,NA,NA,NA,NA,NA,NA,false
28iF65YK,3eawoid6nwaaqnjzba4xtrlfy89v0t,39paafcodqddtgek0ex92mjbhjztv7,28iF65YK,2020-0188,2020-05-21,23:48:26,00:06:50,NA,incomplete,5,shape,1,left,Purple_Circle_Stripes_1.jpg,Red_Circle_Grid_4.jpg,Purple_Plus_Chess_2.jpg,left,890.1699999987613,true,low,NA,NA,NA,NA,NA,NA,NA,false
28iF65YK,3eawoid6nwaaqnjzba4xtrlfy89v0t,39paafcodqddtgek0ex92mjbhjztv7,28iF65YK,2020-0188,2020-05-21,23:48:26,00:06:50,NA,incomplete,6,shape,1,right,Red_Plus_Grid_4.jpg,Red_Triangle_Dots_3.jpg,Green_Plus_Chess_1.jpg,right,930.3550000186078,true,low,NA,NA,NA,NA,NA,NA,NA,false
28iF65YK,3eawoid6nwaaqnjzba4xtrlfy89v0t,39paafcodqddtgek0ex92mjbhjztv7,28iF65YK,2020-0188,2020-05-21,23:48:26,00:06:50,NA,incomplete,7,shape,1,right,Purple_Plus_Stripes_1.jpg,Purple_Triangle_Chess_2.jpg,Green_Plus_Dots_3.jpg,right,1033.8650000048801,true,low,NA,NA,NA,NA,NA,NA,NA,false
28iF65YK,3eawoid6nwaaqnjzba4xtrlfy89v0t,39paafcodqddtgek0ex92mjbhjztv7,28iF65YK,2020-0188,2020-05-21,23:48:26,00:06:50,NA,incomplete,8,shape,1,left,Purple_Circle_Dots_3.jpg,Red_Circle_Stripes_1.jpg,Purple_Triangle_Grid_4.jpg,right,860.3949999960605,false,low,NA,NA,NA,NA,NA,NA,NA,false
28iF65YK,3eawoid6nwaaqnjzba4xtrlfy89v0t,39paafcodqddtgek0ex92mjbhjztv7,28iF65YK,2020-0188,2020-05-21,23:48:26,00:06:50,NA,incomplete,9,shape,1,left,Blue_Star_Chess_3.jpg,Red_Star_Stripes_2.jpg,Blue_Plus_Dots_1.jpg,left,762.0699999970384,true,low,NA,NA,NA,NA,NA,NA,NA,false
28iF65YK,3eawoid6nwaaqnjzba4xtrlfy89v0t,39paafcodqddtgek0ex92mjbhjztv7,28iF65YK,2020-0188,2020-05-21,23:48:26,00:06:50,NA,incomplete,10,shape,1,right,Blue_Plus_Grid_1.jpg,Blue_Star_Dots_3.jpg,Green_Plus_Stripes_4.jpg,right,1170.444999996107,true,low,NA,NA,NA,NA,NA,NA,NA,false
28iF65YK,3eawoid6nwaaqnjzba4xtrlfy89v0t,39paafcodqddtgek0ex92mjbhjztv7,28iF65YK,2020-0188,2020-05-21,23:48:26,00:06:50,NA,incomplete,11,shape,1,right,Green_Triangle_Dots_1.jpg,Green_Circle_Chess_2.jpg,Purple_Triangle_Stripes_3.jpg,right,1008.0949999974109,true,low,NA,NA,NA,NA,NA,NA,NA,false
28iF65YK,3eawoid6nwaaqnjzba4xtrlfy89v0t,39paafcodqddtgek0ex92mjbhjztv7,28iF65YK,2020-0188,2020-05-21,23:48:26,00:06:50,NA,incomplete,12,shape,1,left,Blue_Plus_Stripes_1.jpg,Green_Plus_Grid_4.jpg,Blue_Circle_Chess_2.jpg,left,832.7399999834597,true,low,NA,NA,NA,NA,NA,NA,NA,false
28iF65YK,3eawoid6nwaaqnjzba4xtrlfy89v0t,39paafcodqddtgek0ex92mjbhjztv7,28iF65YK,2020-0188,2020-05-21,23:48:26,00:06:50,NA,incomplete,13,shape,1,left,Blue_Triangle_Stripes_4.jpg,Red_Triangle_Dots_1.jpg,Blue_Star_Chess_2.jpg,left,813.0649999948218,true,low,NA,NA,NA,NA,NA,NA,NA,false
28iF65YK,3eawoid6nwaaqnjzba4xtrlfy89v0t,39paafcodqddtgek0ex92mjbhjztv7,28iF65YK,2020-0188,2020-05-21,23:48:26,00:06:50,NA,incomplete,14,shape,1,left,Purple_Circle_Grid_1.jpg,Red_Circle_Dots_3.jpg,Purple_Star_Stripes_2.jpg,left,822.615000011865,true,low,NA,NA,NA,NA,NA,NA,NA,false
28iF65YK,3eawoid6nwaaqnjzba4xtrlfy89v0t,39paafcodqddtgek0ex92mjbhjztv7,28iF65YK,2020-0188,2020-05-21,23:48:26,00:06:50,NA,incomplete,15,shape,1,left,Green_Circle_Stripes_2.jpg,Purple_Circle_Dots_3.jpg,Green_Star_Grid_1.jpg,left,541.5900000080001,true,low,NA,NA,NA,NA,NA,NA,NA,false
28iF65YK,3eawoid6nwaaqnjzba4xtrlfy89v0t,39paafcodqddtgek0ex92mjbhjztv7,28iF65YK,2020-0188,2020-05-21,23:48:26,00:06:50,NA,incomplete,16,shape,1,right,Green_Star_Stripes_2.jpg,Green_Triangle_Chess_4.jpg,Blue_Star_Grid_3.jpg,right,838.5349999880418,true,low,NA,NA,NA,NA,NA,NA,NA,false
28iF65YK,3eawoid6nwaaqnjzba4xtrlfy89v0t,39paafcodqddtgek0ex92mjbhjztv7,28iF65YK,2020-0188,2020-05-21,23:48:26,00:06:50,NA,incomplete,17,shape,1,left,Red_Star_Stripes_3.jpg,Green_Star_Grid_4.jpg,Red_Triangle_Chess_1.jpg,left,670.2649999933783,true,low,NA,NA,NA,NA,NA,NA,NA,false
28iF65YK,3eawoid6nwaaqnjzba4xtrlfy89v0t,39paafcodqddtgek0ex92mjbhjztv7,28iF65YK,2020-0188,2020-05-21,23:48:26,00:06:50,NA,incomplete,18,shape,1,left,Blue_Plus_Dots_1.jpg,Purple_Plus_Chess_2.jpg,Blue_Star_Stripes_4.jpg,left,655.9800000104588,true,low,NA,NA,NA,NA,NA,NA,NA,false
28iF65YK,3eawoid6nwaaqnjzba4xtrlfy89v0t,39paafcodqddtgek0ex92mjbhjztv7,28iF65YK,2020-0188,2020-05-21,23:48:26,00:06:50,NA,incomplete,19,shape,0,right,Purple_Circle_Grid_3.jpg,Purple_Star_Dots_1.jpg,Blue_Circle_Stripes_2.jpg,right,582.1149999974295,true,low,NA,NA,NA,NA,NA,NA,NA,false
28iF65YK,3eawoid6nwaaqnjzba4xtrlfy89v0t,39paafcodqddtgek0ex92mjbhjztv7,28iF65YK,2020-0188,2020-05-21,23:48:26,00:06:50,NA,incomplete,20,shape,1,right,Purple_Triangle_Chess_4.jpg,Purple_Plus_Dots_1.jpg,Green_Triangle_Grid_2.jpg,left,925.0149999861605,false,low,NA,NA,NA,NA,NA,NA,NA,false
28iF65YK,3eawoid6nwaaqnjzba4xtrlfy89v0t,39paafcodqddtgek0ex92mjbhjztv7,28iF65YK,2020-0188,2020-05-21,23:48:26,00:06:50,NA,incomplete,21,shape,1,right,Green_Triangle_Grid_4.jpg,Green_Star_Chess_1.jpg,Blue_Triangle_Stripes_3.jpg,right,578.059999999823,true,low,NA,NA,NA,NA,NA,NA,NA,false
28iF65YK,3eawoid6nwaaqnjzba4xtrlfy89v0t,39paafcodqddtgek0ex92mjbhjztv7,28iF65YK,2020-0188,2020-05-21,23:48:26,00:06:50,NA,incomplete,22,shape,0,left,Green_Triangle_Stripes_3.jpg,Red_Triangle_Dots_4.jpg,Green_Plus_Chess_1.jpg,right,814.314999995986,false,low,NA,NA,NA,NA,NA,NA,NA,false
28iF65YK,3eawoid6nwaaqnjzba4xtrlfy89v0t,39paafcodqddtgek0ex92mjbhjztv7,28iF65YK,2020-0188,2020-05-21,23:48:26,00:06:50,NA,incomplete,23,shape,0,right,Green_Star_Chess_1.jpg,Green_Triangle_Stripes_3.jpg,Blue_Star_Grid_4.jpg,left,728.3549999992829,false,low,NA,NA,NA,NA,NA,NA,NA,false
28iF65YK,3eawoid6nwaaqnjzba4xtrlfy89v0t,39paafcodqddtgek0ex92mjbhjztv7,28iF65YK,2020-0188,2020-05-21,23:48:26,00:06:50,NA,incomplete,24,shape,1,right,Green_Circle_Grid_4.jpg,Green_Triangle_Chess_3.jpg,Purple_Circle_Dots_1.jpg,left,704.6050000062678,false,low,NA,NA,NA,NA,NA,NA,NA,false
28iF65YK,3eawoid6nwaaqnjzba4xtrlfy89v0t,39paafcodqddtgek0ex92mjbhjztv7,28iF65YK,2020-0188,2020-05-21,23:48:26,00:06:50,NA,incomplete,25,shape,1,left,Purple_Triangle_Chess_4.jpg,Red_Triangle_Stripes_3.jpg,Purple_Plus_Grid_1.jpg,right,516.9600000081118,false,low,NA,NA,NA,NA,NA,NA,NA,false
28iF65YK,3eawoid6nwaaqnjzba4xtrlfy89v0t,39paafcodqddtgek0ex92mjbhjztv7,28iF65YK,2020-0188,2020-05-21,23:48:26,00:06:50,NA,incomplete,26,shape,1,left,Blue_Circle_Dots_3.jpg,Red_Circle_Stripes_2.jpg,Blue_Triangle_Chess_1.jpg,left,789.134999999078,true,low,NA,NA,NA,NA,NA,NA,NA,false
28iF65YK,3eawoid6nwaaqnjzba4xtrlfy89v0t,39paafcodqddtgek0ex92mjbhjztv7,28iF65YK,2020-0188,2020-05-21,23:48:26,00:06:50,NA,incomplete,27,shape,1,right,Blue_Triangle_Stripes_1.jpg,Blue_Circle_Grid_2.jpg,Red_Triangle_Dots_4.jpg,right,916.3100000005215,true,low,NA,NA,NA,NA,NA,NA,NA,false
28iF65YK,3eawoid6nwaaqnjzba4xtrlfy89v0t,39paafcodqddtgek0ex92mjbhjztv7,28iF65YK,2020-0188,2020-05-21,23:48:26,00:06:50,NA,incomplete,28,shape,0,right,Purple_Star_Grid_3.jpg,Purple_Plus_Chess_1.jpg,Red_Star_Stripes_2.jpg,right,660.3549999999814,true,low,NA,NA,NA,NA,NA,NA,NA,false
28iF65YK,3eawoid6nwaaqnjzba4xtrlfy89v0t,39paafcodqddtgek0ex92mjbhjztv7,28iF65YK,2020-0188,2020-05-21,23:48:26,00:06:50,NA,incomplete,29,shape,1,right,Blue_Circle_Grid_4.jpg,Blue_Plus_Dots_3.jpg,Red_Circle_Chess_2.jpg,left,556.0899999982212,false,low,NA,NA,NA,NA,NA,NA,NA,false
28iF65YK,3eawoid6nwaaqnjzba4xtrlfy89v0t,39paafcodqddtgek0ex92mjbhjztv7,28iF65YK,2020-0188,2020-05-21,23:48:26,00:06:50,NA,incomplete,30,color,1,left,Blue_Star_Chess_4.jpg,Blue_Plus_Dots_1.jpg,Red_Star_Grid_2.jpg,right,643.4999999764841,false,low,NA,NA,NA,NA,NA,NA,NA,false
28iF65YK,3eawoid6nwaaqnjzba4xtrlfy89v0t,39paafcodqddtgek0ex92mjbhjztv7,28iF65YK,2020-0188,2020-05-21,23:48:26,00:06:50,NA,incomplete,31,color,1,right,Red_Plus_Grid_1.jpg,Green_Plus_Chess_4.jpg,Red_Triangle_Stripes_2.jpg,right,774.24999998766,true,low,NA,NA,NA,NA,NA,NA,NA,false
28iF65YK,3eawoid6nwaaqnjzba4xtrlfy89v0t,39paafcodqddtgek0ex92mjbhjztv7,28iF65YK,2020-0188,2020-05-21,23:48:26,00:06:50,NA,incomplete,32,color,1,left,Green_Circle_Grid_2.jpg,Green_Star_Chess_1.jpg,Purple_Circle_Stripes_4.jpg,left,720.339999999851,true,low,NA,NA,NA,NA,NA,NA,NA,false
28iF65YK,3eawoid6nwaaqnjzba4xtrlfy89v0t,39paafcodqddtgek0ex92mjbhjztv7,28iF65YK,2020-0188,2020-05-21,23:48:26,00:06:50,NA,incomplete,33,color,1,left,Purple_Plus_Stripes_2.jpg,Purple_Circle_Chess_1.jpg,Green_Plus_Grid_4.jpg,left,944.9899999890476,true,low,NA,NA,NA,NA,NA,NA,NA,false
28iF65YK,3eawoid6nwaaqnjzba4xtrlfy89v0t,39paafcodqddtgek0ex92mjbhjztv7,28iF65YK,2020-0188,2020-05-21,23:48:26,00:06:50,NA,incomplete,34,color,1,right,Blue_Circle_Dots_4.jpg,Purple_Circle_Grid_1.jpg,Blue_Triangle_Stripes_3.jpg,right,507.15499999932945,true,low,NA,NA,NA,NA,NA,NA,NA,false
28iF65YK,3eawoid6nwaaqnjzba4xtrlfy89v0t,39paafcodqddtgek0ex92mjbhjztv7,28iF65YK,2020-0188,2020-05-21,23:48:26,00:06:50,NA,incomplete,35,color,1,left,Blue_Circle_Dots_4.jpg,Blue_Plus_Stripes_3.jpg,Red_Circle_Chess_1.jpg,left,563.6299999896437,true,low,NA,NA,NA,NA,NA,NA,NA,false
28iF65YK,3eawoid6nwaaqnjzba4xtrlfy89v0t,39paafcodqddtgek0ex92mjbhjztv7,28iF65YK,2020-0188,2020-05-21,23:48:26,00:06:50,NA,incomplete,36,color,1,left,Purple_Triangle_Chess_2.jpg,Purple_Circle_Grid_4.jpg,Blue_Triangle_Dots_1.jpg,left,639.1850000072736,true,low,NA,NA,NA,NA,NA,NA,NA,false
28iF65YK,3eawoid6nwaaqnjzba4xtrlfy89v0t,39paafcodqddtgek0ex92mjbhjztv7,28iF65YK,2020-0188,2020-05-21,23:48:26,00:06:50,NA,incomplete,37,color,0,right,Purple_Circle_Chess_3.jpg,Red_Circle_Stripes_4.jpg,Purple_Star_Grid_1.jpg,right,587.054999981774,true,low,NA,NA,NA,NA,NA,NA,NA,false
28iF65YK,3eawoid6nwaaqnjzba4xtrlfy89v0t,39paafcodqddtgek0ex92mjbhjztv7,28iF65YK,2020-0188,2020-05-21,23:48:26,00:06:50,NA,incomplete,38,color,1,right,Green_Star_Dots_1.jpg,Purple_Star_Chess_2.jpg,Green_Circle_Grid_3.jpg,right,646.7699999921024,true,low,NA,NA,NA,NA,NA,NA,NA,false
28iF65YK,3eawoid6nwaaqnjzba4xtrlfy89v0t,39paafcodqddtgek0ex92mjbhjztv7,28iF65YK,2020-0188,2020-05-21,23:48:26,00:06:50,NA,incomplete,39,color,0,right,Green_Circle_Dots_2.jpg,Blue_Circle_Grid_1.jpg,Green_Triangle_Stripes_3.jpg,right,617.3300000082236,true,low,NA,NA,NA,NA,NA,NA,NA,false
28iF65YK,3eawoid6nwaaqnjzba4xtrlfy89v0t,39paafcodqddtgek0ex92mjbhjztv7,28iF65YK,2020-0188,2020-05-21,23:48:26,00:06:50,NA,incomplete,40,color,1,right,Green_Triangle_Dots_1.jpg,Purple_Triangle_Grid_4.jpg,Green_Star_Stripes_2.jpg,left,782.6099999947473,false,low,NA,NA,NA,NA,NA,NA,NA,false
28iF65YK,3eawoid6nwaaqnjzba4xtrlfy89v0t,39paafcodqddtgek0ex92mjbhjztv7,28iF65YK,2020-0188,2020-05-21,23:48:26,00:06:50,NA,incomplete,41,color,1,right,Red_Circle_Grid_3.jpg,Blue_Circle_Stripes_4.jpg,Red_Star_Dots_2.jpg,right,595.385000022361,true,low,NA,NA,NA,NA,NA,NA,NA,false
28iF65YK,3eawoid6nwaaqnjzba4xtrlfy89v0t,39paafcodqddtgek0ex92mjbhjztv7,28iF65YK,2020-0188,2020-05-21,23:48:26,00:06:50,NA,incomplete,42,color,1,left,Red_Circle_Dots_4.jpg,Red_Star_Grid_3.jpg,Purple_Circle_Stripes_2.jpg,left,917.4999999813735,true,low,NA,NA,NA,NA,NA,NA,NA,false
28iF65YK,3eawoid6nwaaqnjzba4xtrlfy89v0t,39paafcodqddtgek0ex92mjbhjztv7,28iF65YK,2020-0188,2020-05-21,23:48:26,00:06:50,NA,incomplete,43,color,1,right,Purple_Star_Chess_4.jpg,Green_Star_Dots_2.jpg,Purple_Plus_Grid_1.jpg,right,815.9100000048056,true,low,NA,NA,NA,NA,NA,NA,NA,false
28iF65YK,3eawoid6nwaaqnjzba4xtrlfy89v0t,39paafcodqddtgek0ex92mjbhjztv7,28iF65YK,2020-0188,2020-05-21,23:48:26,00:06:50,NA,incomplete,44,color,1,right,Blue_Circle_Stripes_1.jpg,Green_Circle_Chess_2.jpg,Blue_Plus_Dots_4.jpg,right,514.9950000050012,true,low,NA,NA,NA,NA,NA,NA,NA,false
28iF65YK,3eawoid6nwaaqnjzba4xtrlfy89v0t,39paafcodqddtgek0ex92mjbhjztv7,28iF65YK,2020-0188,2020-05-21,23:48:26,00:06:50,NA,incomplete,45,color,1,left,Purple_Triangle_Chess_2.jpg,Purple_Circle_Dots_4.jpg,Blue_Triangle_Stripes_3.jpg,left,461.8950000149198,true,low,NA,NA,NA,NA,NA,NA,NA,false
28iF65YK,3eawoid6nwaaqnjzba4xtrlfy89v0t,39paafcodqddtgek0ex92mjbhjztv7,28iF65YK,2020-0188,2020-05-21,23:48:26,00:06:50,NA,incomplete,46,color,1,right,Purple_Triangle_Dots_3.jpg,Red_Triangle_Chess_1.jpg,Purple_Star_Grid_2.jpg,right,680.900000006659,true,low,NA,NA,NA,NA,NA,NA,NA,false
28iF65YK,3eawoid6nwaaqnjzba4xtrlfy89v0t,39paafcodqddtgek0ex92mjbhjztv7,28iF65YK,2020-0188,2020-05-21,23:48:26,00:06:50,NA,incomplete,47,color,1,left,Blue_Circle_Stripes_2.jpg,Blue_Star_Dots_3.jpg,Green_Circle_Chess_4.jpg,left,517.245000024559,true,low,NA,NA,NA,NA,NA,NA,NA,false
28iF65YK,3eawoid6nwaaqnjzba4xtrlfy89v0t,39paafcodqddtgek0ex92mjbhjztv7,28iF65YK,2020-0188,2020-05-21,23:48:26,00:06:50,NA,incomplete,48,color,1,left,Purple_Star_Dots_2.jpg,Purple_Triangle_Stripes_3.jpg,Green_Star_Grid_1.jpg,left,540.4799999960233,true,low,NA,NA,NA,NA,NA,NA,NA,false
28iF65YK,3eawoid6nwaaqnjzba4xtrlfy89v0t,39paafcodqddtgek0ex92mjbhjztv7,28iF65YK,2020-0188,2020-05-21,23:48:26,00:06:50,NA,incomplete,49,color,1,right,Purple_Triangle_Grid_1.jpg,Red_Triangle_Chess_2.jpg,Purple_Star_Stripes_3.jpg,right,444.3150000006426,true,low,NA,NA,NA,NA,NA,NA,NA,false
28iF65YK,3eawoid6nwaaqnjzba4xtrlfy89v0t,39paafcodqddtgek0ex92mjbhjztv7,28iF65YK,2020-0188,2020-05-21,23:48:26,00:06:50,NA,incomplete,50,color,1,left,Red_Plus_Stripes_2.jpg,Red_Triangle_Grid_1.jpg,Green_Plus_Dots_4.jpg,left,484.405000024708,true,low,NA,NA,NA,NA,NA,NA,NA,false
28iF65YK,3eawoid6nwaaqnjzba4xtrlfy89v0t,39paafcodqddtgek0ex92mjbhjztv7,28iF65YK,2020-0188,2020-05-21,23:48:26,00:06:50,NA,incomplete,51,color,1,left,Purple_Plus_Chess_3.jpg,Purple_Circle_Grid_4.jpg,Green_Plus_Stripes_2.jpg,left,491.2849999964237,true,low,NA,NA,NA,NA,NA,NA,NA,false
28iF65YK,3eawoid6nwaaqnjzba4xtrlfy89v0t,39paafcodqddtgek0ex92mjbhjztv7,28iF65YK,2020-0188,2020-05-21,23:48:26,00:06:50,NA,incomplete,52,color,0,left,Purple_Plus_Grid_4.jpg,Purple_Circle_Chess_3.jpg,Red_Plus_Stripes_1.jpg,left,463.01999999559484,true,low,NA,NA,NA,NA,NA,NA,NA,false
28iF65YK,3eawoid6nwaaqnjzba4xtrlfy89v0t,39paafcodqddtgek0ex92mjbhjztv7,28iF65YK,2020-0188,2020-05-21,23:48:26,00:06:50,NA,incomplete,53,color,1,left,Green_Plus_Dots_2.jpg,Green_Star_Grid_1.jpg,Blue_Plus_Chess_3.jpg,left,595.854999992298,true,low,NA,NA,NA,NA,NA,NA,NA,false
28iF65YK,3eawoid6nwaaqnjzba4xtrlfy89v0t,39paafcodqddtgek0ex92mjbhjztv7,28iF65YK,2020-0188,2020-05-21,23:48:26,00:06:50,NA,incomplete,54,color,1,left,Purple_Star_Chess_3.jpg,Purple_Plus_Grid_4.jpg,Blue_Star_Stripes_1.jpg,left,686.5549999929499,true,low,NA,NA,NA,NA,NA,NA,NA,false
28iF65YK,3eawoid6nwaaqnjzba4xtrlfy89v0t,39paafcodqddtgek0ex92mjbhjztv7,28iF65YK,2020-0188,2020-05-21,23:48:26,00:06:50,NA,incomplete,55,color,1,right,Green_Star_Dots_2.jpg,Red_Star_Grid_1.jpg,Green_Triangle_Chess_3.jpg,right,516.3349999929778,true,low,NA,NA,NA,NA,NA,NA,NA,false
28iF65YK,3eawoid6nwaaqnjzba4xtrlfy89v0t,39paafcodqddtgek0ex92mjbhjztv7,28iF65YK,2020-0188,2020-05-21,23:48:26,00:06:50,NA,incomplete,56,color,1,right,Blue_Plus_Grid_4.jpg,Green_Plus_Stripes_3.jpg,Blue_Star_Dots_2.jpg,right,537.4099999899045,true,low,NA,NA,NA,NA,NA,NA,NA,false
28iF65YK,3eawoid6nwaaqnjzba4xtrlfy89v0t,39paafcodqddtgek0ex92mjbhjztv7,28iF65YK,2020-0188,2020-05-21,23:48:26,00:06:50,NA,incomplete,57,color,1,right,Purple_Plus_Grid_4.jpg,Red_Plus_Dots_2.jpg,Purple_Star_Chess_3.jpg,right,540.3299999888986,true,low,NA,NA,NA,NA,NA,NA,NA,false
28iF65YK,3eawoid6nwaaqnjzba4xtrlfy89v0t,39paafcodqddtgek0ex92mjbhjztv7,28iF65YK,2020-0188,2020-05-21,23:48:26,00:06:50,NA,incomplete,58,color,0,right,Purple_Circle_Grid_2.jpg,Blue_Circle_Chess_1.jpg,Purple_Triangle_Dots_4.jpg,right,494.58500000764616,true,low,NA,NA,NA,NA,NA,NA,NA,false
28iF65YK,3eawoid6nwaaqnjzba4xtrlfy89v0t,39paafcodqddtgek0ex92mjbhjztv7,28iF65YK,2020-0188,2020-05-21,23:48:26,00:06:50,NA,incomplete,59,color,1,right,Green_Circle_Stripes_1.jpg,Red_Circle_Grid_4.jpg,Green_Triangle_Dots_3.jpg,right,551.3050000008661,true,low,NA,NA,NA,NA,NA,NA,NA,false
28iF65YK,3eawoid6nwaaqnjzba4xtrlfy89v0t,39paafcodqddtgek0ex92mjbhjztv7,28iF65YK,2020-0188,2020-05-21,23:48:26,00:06:50,NA,incomplete,60,shape,1,left,Green_Plus_Grid_4.jpg,Purple_Plus_Stripes_1.jpg,Green_Circle_Chess_2.jpg,right,525.3999999840744,false,low,NA,NA,NA,NA,NA,NA,NA,false
28iF65YK,3eawoid6nwaaqnjzba4xtrlfy89v0t,39paafcodqddtgek0ex92mjbhjztv7,28iF65YK,2020-0188,2020-05-21,23:48:26,00:06:50,NA,incomplete,61,shape,0,right,Red_Triangle_Stripes_3.jpg,Red_Star_Grid_1.jpg,Green_Triangle_Chess_4.jpg,left,445.0899999937974,false,low,NA,NA,NA,NA,NA,NA,NA,false
28iF65YK,3eawoid6nwaaqnjzba4xtrlfy89v0t,39paafcodqddtgek0ex92mjbhjztv7,28iF65YK,2020-0188,2020-05-21,23:48:26,00:06:50,NA,incomplete,62,shape,1,left,Blue_Triangle_Chess_4.jpg,Purple_Triangle_Dots_1.jpg,Blue_Star_Grid_3.jpg,right,579.0900000138208,false,low,NA,NA,NA,NA,NA,NA,NA,false
28iF65YK,3eawoid6nwaaqnjzba4xtrlfy89v0t,39paafcodqddtgek0ex92mjbhjztv7,28iF65YK,2020-0188,2020-05-21,23:48:26,00:06:50,NA,incomplete,63,shape,1,left,Green_Circle_Chess_4.jpg,Purple_Circle_Dots_2.jpg,Green_Star_Stripes_3.jpg,right,459.9200000229757,false,low,NA,NA,NA,NA,NA,NA,NA,false
28iF65YK,3eawoid6nwaaqnjzba4xtrlfy89v0t,39paafcodqddtgek0ex92mjbhjztv7,28iF65YK,2020-0188,2020-05-21,23:48:26,00:06:50,NA,incomplete,64,shape,0,right,Red_Circle_Grid_2.jpg,Red_Plus_Dots_1.jpg,Blue_Circle_Chess_4.jpg,right,1028.9599999960046,true,low,NA,NA,NA,NA,NA,NA,NA,false
28iF65YK,3eawoid6nwaaqnjzba4xtrlfy89v0t,39paafcodqddtgek0ex92mjbhjztv7,28iF65YK,2020-0188,2020-05-21,23:48:26,00:06:50,NA,incomplete,65,shape,0,right,Red_Circle_Chess_1.jpg,Red_Star_Grid_4.jpg,Purple_Circle_Dots_3.jpg,right,650.4899999999907,true,low,NA,NA,NA,NA,NA,NA,NA,false
28iF65YK,3eawoid6nwaaqnjzba4xtrlfy89v0t,39paafcodqddtgek0ex92mjbhjztv7,28iF65YK,2020-0188,2020-05-21,23:48:26,00:06:50,NA,incomplete,66,shape,0,right,Red_Triangle_Chess_4.jpg,Red_Star_Dots_1.jpg,Purple_Triangle_Stripes_2.jpg,left,517.7799999946728,false,low,NA,NA,NA,NA,NA,NA,NA,false
28iF65YK,3eawoid6nwaaqnjzba4xtrlfy89v0t,39paafcodqddtgek0ex92mjbhjztv7,28iF65YK,2020-0188,2020-05-21,23:48:26,00:06:50,NA,incomplete,67,shape,1,right,Green_Star_Dots_2.jpg,Green_Triangle_Grid_1.jpg,Purple_Star_Stripes_4.jpg,left,467.83000000868924,false,low,NA,NA,NA,NA,NA,NA,NA,false
28iF65YK,3eawoid6nwaaqnjzba4xtrlfy89v0t,39paafcodqddtgek0ex92mjbhjztv7,28iF65YK,2020-0188,2020-05-21,23:48:26,00:06:50,NA,incomplete,68,shape,0,right,Green_Plus_Stripes_4.jpg,Green_Triangle_Chess_3.jpg,Red_Plus_Grid_2.jpg,left,373.2799999997951,false,low,NA,NA,NA,NA,NA,NA,NA,false
28iF65YK,3eawoid6nwaaqnjzba4xtrlfy89v0t,39paafcodqddtgek0ex92mjbhjztv7,28iF65YK,2020-0188,2020-05-21,23:48:26,00:06:50,NA,incomplete,69,shape,1,left,Purple_Circle_Grid_3.jpg,Red_Circle_Chess_2.jpg,Purple_Star_Dots_1.jpg,right,520.63499999349,false,low,NA,NA,NA,NA,NA,NA,NA,false
28iF65YK,3eawoid6nwaaqnjzba4xtrlfy89v0t,39paafcodqddtgek0ex92mjbhjztv7,28iF65YK,2020-0188,2020-05-21,23:48:26,00:06:50,NA,incomplete,70,shape,1,right,Purple_Triangle_Stripes_4.jpg,Purple_Circle_Chess_1.jpg,Green_Triangle_Grid_2.jpg,left,519.8099999979604,false,low,NA,NA,NA,NA,NA,NA,NA,false
28iF65YK,3eawoid6nwaaqnjzba4xtrlfy89v0t,39paafcodqddtgek0ex92mjbhjztv7,28iF65YK,2020-0188,2020-05-21,23:48:26,00:06:50,NA,incomplete,71,shape,1,left,Red_Triangle_Grid_3.jpg,Purple_Triangle_Dots_2.jpg,Red_Star_Chess_1.jpg,left,705.5800000089221,true,low,NA,NA,NA,NA,NA,NA,NA,false
28iF65YK,3eawoid6nwaaqnjzba4xtrlfy89v0t,39paafcodqddtgek0ex92mjbhjztv7,28iF65YK,2020-0188,2020-05-21,23:48:26,00:06:50,NA,incomplete,72,shape,0,right,Purple_Star_Dots_1.jpg,Purple_Plus_Grid_2.jpg,Red_Star_Chess_4.jpg,right,844.1100000054576,true,low,NA,NA,NA,NA,NA,NA,NA,false
28iF65YK,3eawoid6nwaaqnjzba4xtrlfy89v0t,39paafcodqddtgek0ex92mjbhjztv7,28iF65YK,2020-0188,2020-05-21,23:48:26,00:06:50,NA,incomplete,73,shape,1,right,Blue_Triangle_Stripes_3.jpg,Blue_Circle_Chess_4.jpg,Green_Triangle_Grid_2.jpg,left,501.365000003716,false,low,NA,NA,NA,NA,NA,NA,NA,false
28iF65YK,3eawoid6nwaaqnjzba4xtrlfy89v0t,39paafcodqddtgek0ex92mjbhjztv7,28iF65YK,2020-0188,2020-05-21,23:48:26,00:06:50,NA,incomplete,74,shape,1,left,Green_Plus_Grid_4.jpg,Red_Plus_Dots_3.jpg,Green_Star_Stripes_1.jpg,left,784.475000022212,true,low,NA,NA,NA,NA,NA,NA,NA,false
28iF65YK,3eawoid6nwaaqnjzba4xtrlfy89v0t,39paafcodqddtgek0ex92mjbhjztv7,28iF65YK,2020-0188,2020-05-21,23:48:26,00:06:50,NA,incomplete,75,shape,1,right,Green_Plus_Chess_1.jpg,Green_Circle_Grid_4.jpg,Red_Plus_Dots_3.jpg,right,686.4400000195019,true,low,NA,NA,NA,NA,NA,NA,NA,false
28iF65YK,3eawoid6nwaaqnjzba4xtrlfy89v0t,39paafcodqddtgek0ex92mjbhjztv7,28iF65YK,2020-0188,2020-05-21,23:48:26,00:06:50,NA,incomplete,76,shape,1,left,Blue_Triangle_Stripes_4.jpg,Green_Triangle_Grid_2.jpg,Blue_Plus_Chess_1.jpg,left,788.3800000126939,true,low,NA,NA,NA,NA,NA,NA,NA,false
28iF65YK,3eawoid6nwaaqnjzba4xtrlfy89v0t,39paafcodqddtgek0ex92mjbhjztv7,28iF65YK,2020-0188,2020-05-21,23:48:26,00:06:50,NA,incomplete,77,shape,1,right,Purple_Circle_Grid_4.jpg,Purple_Plus_Dots_1.jpg,Green_Circle_Stripes_2.jpg,right,608.9299999875948,true,low,NA,NA,NA,NA,NA,NA,NA,false
28iF65YK,3eawoid6nwaaqnjzba4xtrlfy89v0t,39paafcodqddtgek0ex92mjbhjztv7,28iF65YK,2020-0188,2020-05-21,23:48:26,00:06:50,NA,incomplete,78,shape,1,right,Blue_Plus_Stripes_3.jpg,Blue_Star_Dots_4.jpg,Purple_Plus_Chess_2.jpg,right,799.9500000150874,true,low,NA,NA,NA,NA,NA,NA,NA,false
28iF65YK,3eawoid6nwaaqnjzba4xtrlfy89v0t,39paafcodqddtgek0ex92mjbhjztv7,28iF65YK,2020-0188,2020-05-21,23:48:26,00:06:50,NA,incomplete,79,shape,1,right,Blue_Triangle_Stripes_4.jpg,Blue_Plus_Chess_3.jpg,Purple_Triangle_Grid_1.jpg,right,740.0849999976344,true,low,NA,NA,NA,NA,NA,NA,NA,false
28iF65YK,3eawoid6nwaaqnjzba4xtrlfy89v0t,39paafcodqddtgek0ex92mjbhjztv7,28iF65YK,2020-0188,2020-05-21,23:48:26,00:06:50,NA,incomplete,80,shape,1,right,Purple_Star_Stripes_1.jpg,Purple_Circle_Chess_2.jpg,Green_Star_Grid_3.jpg,right,806.1049999960233,true,low,NA,NA,NA,NA,NA,NA,NA,false
28iF65YK,3eawoid6nwaaqnjzba4xtrlfy89v0t,39paafcodqddtgek0ex92mjbhjztv7,28iF65YK,2020-0188,2020-05-21,23:48:26,00:06:50,NA,incomplete,81,shape,1,left,Green_Star_Chess_3.jpg,Purple_Star_Grid_2.jpg,Green_Triangle_Stripes_4.jpg,left,616.9999999983702,true,low,NA,NA,NA,NA,NA,NA,NA,false
28iF65YK,3eawoid6nwaaqnjzba4xtrlfy89v0t,39paafcodqddtgek0ex92mjbhjztv7,28iF65YK,2020-0188,2020-05-21,23:48:26,00:06:50,NA,incomplete,82,shape,1,left,Blue_Plus_Chess_2.jpg,Red_Plus_Stripes_3.jpg,Blue_Star_Dots_4.jpg,left,732.2050000075251,true,low,NA,NA,NA,NA,NA,NA,NA,false
28iF65YK,3eawoid6nwaaqnjzba4xtrlfy89v0t,39paafcodqddtgek0ex92mjbhjztv7,28iF65YK,2020-0188,2020-05-21,23:48:26,00:06:50,NA,incomplete,83,shape,1,right,Green_Triangle_Grid_1.jpg,Green_Circle_Chess_4.jpg,Purple_Triangle_Stripes_2.jpg,right,512.4199999845587,true,low,NA,NA,NA,NA,NA,NA,NA,false
28iF65YK,3eawoid6nwaaqnjzba4xtrlfy89v0t,39paafcodqddtgek0ex92mjbhjztv7,28iF65YK,2020-0188,2020-05-21,23:48:26,00:06:50,NA,incomplete,84,shape,1,left,Blue_Plus_Grid_2.jpg,Green_Plus_Dots_1.jpg,Blue_Circle_Chess_4.jpg,left,664.8049999785144,true,low,NA,NA,NA,NA,NA,NA,NA,false
28iF65YK,3eawoid6nwaaqnjzba4xtrlfy89v0t,39paafcodqddtgek0ex92mjbhjztv7,28iF65YK,2020-0188,2020-05-21,23:48:26,00:06:50,NA,incomplete,85,shape,1,right,Red_Star_Grid_3.jpg,Red_Circle_Dots_4.jpg,Blue_Star_Chess_2.jpg,right,584.2499999853317,true,low,NA,NA,NA,NA,NA,NA,NA,false
28iF65YK,3eawoid6nwaaqnjzba4xtrlfy89v0t,39paafcodqddtgek0ex92mjbhjztv7,28iF65YK,2020-0188,2020-05-21,23:48:26,00:06:50,NA,incomplete,86,shape,1,left,Purple_Circle_Dots_1.jpg,Green_Circle_Chess_3.jpg,Purple_Triangle_Grid_2.jpg,left,600.4299999913201,true,low,NA,NA,NA,NA,NA,NA,NA,false
28iF65YK,3eawoid6nwaaqnjzba4xtrlfy89v0t,39paafcodqddtgek0ex92mjbhjztv7,28iF65YK,2020-0188,2020-05-21,23:48:26,00:06:50,NA,incomplete,87,shape,0,right,Blue_Plus_Chess_3.jpg,Blue_Star_Grid_1.jpg,Green_Plus_Dots_4.jpg,right,646.6249999939464,true,low,NA,NA,NA,NA,NA,NA,NA,false
28iF65YK,3eawoid6nwaaqnjzba4xtrlfy89v0t,39paafcodqddtgek0ex92mjbhjztv7,28iF65YK,2020-0188,2020-05-21,23:48:26,00:06:50,NA,incomplete,88,shape,0,left,Red_Plus_Chess_3.jpg,Purple_Plus_Stripes_4.jpg,Red_Triangle_Dots_1.jpg,left,575.2500000235159,true,low,NA,NA,NA,NA,NA,NA,NA,false
28iF65YK,3eawoid6nwaaqnjzba4xtrlfy89v0t,39paafcodqddtgek0ex92mjbhjztv7,28iF65YK,2020-0188,2020-05-21,23:48:26,00:06:50,NA,incomplete,89,shape,1,left,Green_Plus_Stripes_2.jpg,Purple_Plus_Chess_4.jpg,Green_Circle_Dots_3.jpg,right,566.2200000078883,false,low,NA,NA,NA,NA,NA,NA,NA,false
28iF65YK,3eawoid6nwaaqnjzba4xtrlfy89v0t,39paafcodqddtgek0ex92mjbhjztv7,28iF65YK,2020-0188,2020-05-21,23:48:26,00:06:50,NA,incomplete,90,color,1,right,Purple_Star_Dots_1.jpg,Blue_Star_Stripes_3.jpg,Purple_Triangle_Chess_2.jpg,left,947.3799999977928,false,low,NA,NA,NA,NA,NA,NA,NA,false
28iF65YK,3eawoid6nwaaqnjzba4xtrlfy89v0t,39paafcodqddtgek0ex92mjbhjztv7,28iF65YK,2020-0188,2020-05-21,23:48:26,00:06:50,NA,incomplete,91,color,1,right,Blue_Circle_Dots_1.jpg,Purple_Circle_Stripes_2.jpg,Blue_Plus_Grid_3.jpg,right,666.495000012219,true,low,NA,NA,NA,NA,NA,NA,NA,false
28iF65YK,3eawoid6nwaaqnjzba4xtrlfy89v0t,39paafcodqddtgek0ex92mjbhjztv7,28iF65YK,2020-0188,2020-05-21,23:48:26,00:06:50,NA,incomplete,92,color,1,right,Blue_Circle_Stripes_4.jpg,Purple_Circle_Dots_3.jpg,Blue_Triangle_Chess_2.jpg,right,788.9000000141095,true,low,NA,NA,NA,NA,NA,NA,NA,false
28iF65YK,3eawoid6nwaaqnjzba4xtrlfy89v0t,39paafcodqddtgek0ex92mjbhjztv7,28iF65YK,2020-0188,2020-05-21,23:48:26,00:06:50,NA,incomplete,93,color,1,left,Blue_Star_Chess_4.jpg,Blue_Plus_Dots_1.jpg,Red_Star_Stripes_3.jpg,left,476.2899999914225,true,low,NA,NA,NA,NA,NA,NA,NA,false
28iF65YK,3eawoid6nwaaqnjzba4xtrlfy89v0t,39paafcodqddtgek0ex92mjbhjztv7,28iF65YK,2020-0188,2020-05-21,23:48:26,00:06:50,NA,incomplete,94,color,1,left,Green_Plus_Chess_1.jpg,Green_Triangle_Dots_2.jpg,Purple_Plus_Stripes_3.jpg,left,785.8349999878556,true,low,NA,NA,NA,NA,NA,NA,NA,false
28iF65YK,3eawoid6nwaaqnjzba4xtrlfy89v0t,39paafcodqddtgek0ex92mjbhjztv7,28iF65YK,2020-0188,2020-05-21,23:48:26,00:06:50,NA,incomplete,95,color,1,right,Purple_Circle_Chess_3.jpg,Green_Circle_Dots_1.jpg,Purple_Plus_Grid_2.jpg,right,691.6349999955855,true,low,NA,NA,NA,NA,NA,NA,NA,false
28iF65YK,3eawoid6nwaaqnjzba4xtrlfy89v0t,39paafcodqddtgek0ex92mjbhjztv7,28iF65YK,2020-0188,2020-05-21,23:48:26,00:06:50,NA,incomplete,96,color,1,left,Purple_Plus_Chess_1.jpg,Purple_Circle_Grid_2.jpg,Red_Plus_Dots_4.jpg,left,543.6749999935273,true,low,NA,NA,NA,NA,NA,NA,NA,false
28iF65YK,3eawoid6nwaaqnjzba4xtrlfy89v0t,39paafcodqddtgek0ex92mjbhjztv7,28iF65YK,2020-0188,2020-05-21,23:48:26,00:06:50,NA,incomplete,97,color,1,left,Red_Circle_Stripes_4.jpg,Red_Star_Chess_3.jpg,Blue_Circle_Dots_2.jpg,left,530.3700000222307,true,low,NA,NA,NA,NA,NA,NA,NA,false
28iF65YK,3eawoid6nwaaqnjzba4xtrlfy89v0t,39paafcodqddtgek0ex92mjbhjztv7,28iF65YK,2020-0188,2020-05-21,23:48:26,00:06:50,NA,incomplete,98,color,1,left,Blue_Plus_Grid_3.jpg,Blue_Triangle_Chess_2.jpg,Green_Plus_Dots_4.jpg,left,508.86000000173226,true,low,NA,NA,NA,NA,NA,NA,NA,false
28iF65YK,3eawoid6nwaaqnjzba4xtrlfy89v0t,39paafcodqddtgek0ex92mjbhjztv7,28iF65YK,2020-0188,2020-05-21,23:48:26,00:06:50,NA,incomplete,99,color,0,left,Purple_Triangle_Dots_4.jpg,Purple_Plus_Chess_2.jpg,Green_Triangle_Stripes_1.jpg,left,684.529999998631,true,low,NA,NA,NA,NA,NA,NA,NA,false
28iF65YK,3eawoid6nwaaqnjzba4xtrlfy89v0t,39paafcodqddtgek0ex92mjbhjztv7,28iF65YK,2020-0188,2020-05-21,23:48:26,00:06:50,NA,incomplete,100,color,0,right,Green_Circle_Chess_2.jpg,Purple_Circle_Grid_3.jpg,Green_Triangle_Stripes_1.jpg,right,682.5799999933224,true,low,NA,NA,NA,NA,NA,NA,NA,false
28iF65YK,3eawoid6nwaaqnjzba4xtrlfy89v0t,39paafcodqddtgek0ex92mjbhjztv7,28iF65YK,2020-0188,2020-05-21,23:48:26,00:06:50,NA,incomplete,101,color,1,left,Green_Circle_Stripes_3.jpg,Green_Triangle_Chess_1.jpg,Purple_Circle_Grid_2.jpg,right,897.819999983767,false,low,NA,NA,NA,NA,NA,NA,NA,false
28iF65YK,3eawoid6nwaaqnjzba4xtrlfy89v0t,39paafcodqddtgek0ex92mjbhjztv7,28iF65YK,2020-0188,2020-05-21,23:48:26,00:06:50,NA,incomplete,102,color,1,left,Blue_Star_Dots_3.jpg,Blue_Triangle_Chess_2.jpg,Red_Star_Grid_4.jpg,left,619.4400000094902,true,low,NA,NA,NA,NA,NA,NA,NA,false
28iF65YK,3eawoid6nwaaqnjzba4xtrlfy89v0t,39paafcodqddtgek0ex92mjbhjztv7,28iF65YK,2020-0188,2020-05-21,23:48:26,00:06:50,NA,incomplete,103,color,1,left,Blue_Circle_Dots_2.jpg,Blue_Plus_Grid_3.jpg,Purple_Circle_Stripes_1.jpg,left,457.4550000252202,true,low,NA,NA,NA,NA,NA,NA,NA,false
28iF65YK,3eawoid6nwaaqnjzba4xtrlfy89v0t,39paafcodqddtgek0ex92mjbhjztv7,28iF65YK,2020-0188,2020-05-21,23:48:26,00:06:50,NA,incomplete,104,color,1,left,Blue_Circle_Chess_1.jpg,Blue_Star_Stripes_2.jpg,Purple_Circle_Grid_3.jpg,left,542.7100000088103,true,low,NA,NA,NA,NA,NA,NA,NA,false
28iF65YK,3eawoid6nwaaqnjzba4xtrlfy89v0t,39paafcodqddtgek0ex92mjbhjztv7,28iF65YK,2020-0188,2020-05-21,23:48:26,00:06:50,NA,incomplete,105,color,1,right,Purple_Star_Chess_2.jpg,Blue_Star_Stripes_3.jpg,Purple_Circle_Grid_4.jpg,right,621.484999981476,true,low,NA,NA,NA,NA,NA,NA,NA,false
28iF65YK,3eawoid6nwaaqnjzba4xtrlfy89v0t,39paafcodqddtgek0ex92mjbhjztv7,28iF65YK,2020-0188,2020-05-21,23:48:26,00:06:50,NA,incomplete,106,color,0,right,Purple_Circle_Chess_1.jpg,Green_Circle_Stripes_3.jpg,Purple_Star_Grid_2.jpg,right,534.1450000123587,true,low,NA,NA,NA,NA,NA,NA,NA,false
28iF65YK,3eawoid6nwaaqnjzba4xtrlfy89v0t,39paafcodqddtgek0ex92mjbhjztv7,28iF65YK,2020-0188,2020-05-21,23:48:26,00:06:50,NA,incomplete,107,color,1,right,Blue_Circle_Stripes_1.jpg,Green_Circle_Dots_4.jpg,Blue_Triangle_Chess_2.jpg,right,485.4800000030082,true,low,NA,NA,NA,NA,NA,NA,NA,false
28iF65YK,3eawoid6nwaaqnjzba4xtrlfy89v0t,39paafcodqddtgek0ex92mjbhjztv7,28iF65YK,2020-0188,2020-05-21,23:48:26,00:06:50,NA,incomplete,108,color,0,right,Blue_Plus_Stripes_4.jpg,Purple_Plus_Chess_2.jpg,Blue_Triangle_Dots_3.jpg,right,476.2300000002142,true,low,NA,NA,NA,NA,NA,NA,NA,false
28iF65YK,3eawoid6nwaaqnjzba4xtrlfy89v0t,39paafcodqddtgek0ex92mjbhjztv7,28iF65YK,2020-0188,2020-05-21,23:48:26,00:06:50,NA,incomplete,109,color,1,left,Blue_Star_Grid_2.jpg,Blue_Triangle_Dots_4.jpg,Purple_Star_Stripes_1.jpg,left,601.3899999961723,true,low,NA,NA,NA,NA,NA,NA,NA,false
28iF65YK,3eawoid6nwaaqnjzba4xtrlfy89v0t,39paafcodqddtgek0ex92mjbhjztv7,28iF65YK,2020-0188,2020-05-21,23:48:26,00:06:50,NA,incomplete,110,color,1,right,Red_Triangle_Grid_2.jpg,Green_Triangle_Stripes_3.jpg,Red_Star_Chess_1.jpg,right,762.894999992568,true,low,NA,NA,NA,NA,NA,NA,NA,false
28iF65YK,3eawoid6nwaaqnjzba4xtrlfy89v0t,39paafcodqddtgek0ex92mjbhjztv7,28iF65YK,2020-0188,2020-05-21,23:48:26,00:06:50,NA,incomplete,111,color,1,left,Red_Plus_Grid_1.jpg,Red_Triangle_Chess_4.jpg,Blue_Plus_Dots_2.jpg,left,459.9999999918509,true,low,NA,NA,NA,NA,NA,NA,NA,false
28iF65YK,3eawoid6nwaaqnjzba4xtrlfy89v0t,39paafcodqddtgek0ex92mjbhjztv7,28iF65YK,2020-0188,2020-05-21,23:48:26,00:06:50,NA,incomplete,112,color,1,left,Blue_Triangle_Stripes_4.jpg,Blue_Plus_Chess_1.jpg,Green_Triangle_Grid_3.jpg,left,594.2199999990407,true,low,NA,NA,NA,NA,NA,NA,NA,false
28iF65YK,3eawoid6nwaaqnjzba4xtrlfy89v0t,39paafcodqddtgek0ex92mjbhjztv7,28iF65YK,2020-0188,2020-05-21,23:48:26,00:06:50,NA,incomplete,113,color,1,left,Green_Triangle_Stripes_2.jpg,Green_Star_Dots_1.jpg,Blue_Triangle_Grid_4.jpg,left,561.8800000229385,true,low,NA,NA,NA,NA,NA,NA,NA,false
28iF65YK,3eawoid6nwaaqnjzba4xtrlfy89v0t,39paafcodqddtgek0ex92mjbhjztv7,28iF65YK,2020-0188,2020-05-21,23:48:26,00:06:50,NA,incomplete,114,color,0,right,Red_Star_Dots_1.jpg,Blue_Star_Stripes_4.jpg,Red_Triangle_Chess_2.jpg,right,523.6649999860674,true,low,NA,NA,NA,NA,NA,NA,NA,false
28iF65YK,3eawoid6nwaaqnjzba4xtrlfy89v0t,39paafcodqddtgek0ex92mjbhjztv7,28iF65YK,2020-0188,2020-05-21,23:48:26,00:06:50,NA,incomplete,115,color,1,left,Blue_Plus_Dots_4.jpg,Blue_Triangle_Stripes_3.jpg,Purple_Plus_Chess_1.jpg,left,417.2050000051968,true,low,NA,NA,NA,NA,NA,NA,NA,false
28iF65YK,3eawoid6nwaaqnjzba4xtrlfy89v0t,39paafcodqddtgek0ex92mjbhjztv7,28iF65YK,2020-0188,2020-05-21,23:48:26,00:06:50,NA,incomplete,116,color,1,left,Green_Triangle_Dots_1.jpg,Green_Plus_Chess_4.jpg,Blue_Triangle_Grid_3.jpg,left,474.3249999883119,true,low,NA,NA,NA,NA,NA,NA,NA,false
28iF65YK,3eawoid6nwaaqnjzba4xtrlfy89v0t,39paafcodqddtgek0ex92mjbhjztv7,28iF65YK,2020-0188,2020-05-21,23:48:26,00:06:50,NA,incomplete,117,color,0,left,Green_Circle_Stripes_3.jpg,Green_Triangle_Chess_1.jpg,Blue_Circle_Dots_4.jpg,left,486.83000000892207,true,low,NA,NA,NA,NA,NA,NA,NA,false
28iF65YK,3eawoid6nwaaqnjzba4xtrlfy89v0t,39paafcodqddtgek0ex92mjbhjztv7,28iF65YK,2020-0188,2020-05-21,23:48:26,00:06:50,NA,incomplete,118,color,1,left,Purple_Circle_Chess_2.jpg,Purple_Star_Stripes_3.jpg,Green_Circle_Grid_4.jpg,right,408.2700000144541,false,low,NA,NA,NA,NA,NA,NA,NA,false
28iF65YK,3eawoid6nwaaqnjzba4xtrlfy89v0t,39paafcodqddtgek0ex92mjbhjztv7,28iF65YK,2020-0188,2020-05-21,23:48:26,00:06:50,NA,incomplete,119,color,1,left,Purple_Plus_Dots_4.jpg,Purple_Star_Grid_2.jpg,Red_Plus_Stripes_3.jpg,left,477.5550000194926,true,low,NA,NA,NA,NA,NA,NA,NA,false
28iF65YK,3eawoid6nwaaqnjzba4xtrlfy89v0t,39paafcodqddtgek0ex92mjbhjztv7,28iF65YK,2020-0188,2020-05-21,23:48:26,00:06:50,NA,incomplete,120,filling,1,left,Blue_Circle_Grid_1.jpg,Green_Plus_Grid_3.jpg,Red_Triangle_Chess_1.jpg,NA,NA,NA,low,NA,NA,NA,NA,NA,NA,NA,false
28iF65YK,3eawoid6nwaaqnjzba4xtrlfy89v0t,39paafcodqddtgek0ex92mjbhjztv7,28iF65YK,2020-0188,2020-05-21,23:48:26,00:06:50,NA,incomplete,121,filling,0,right,Blue_Plus_Chess_3.jpg,Green_Triangle_Dots_3.jpg,Red_Circle_Chess_4.jpg,right,902.8899999975692,true,low,NA,NA,NA,NA,NA,NA,NA,false
28iF65YK,3eawoid6nwaaqnjzba4xtrlfy89v0t,39paafcodqddtgek0ex92mjbhjztv7,28iF65YK,2020-0188,2020-05-21,23:48:26,00:06:50,NA,incomplete,122,filling,1,left,Red_Circle_Chess_2.jpg,Green_Plus_Chess_3.jpg,Purple_Triangle_Dots_2.jpg,right,768.564999976661,false,low,NA,NA,NA,NA,NA,NA,NA,false
28iF65YK,3eawoid6nwaaqnjzba4xtrlfy89v0t,39paafcodqddtgek0ex92mjbhjztv7,28iF65YK,2020-0188,2020-05-21,23:48:26,00:06:50,NA,incomplete,123,filling,1,left,Purple_Plus_Dots_2.jpg,Red_Star_Dots_4.jpg,Green_Triangle_Chess_2.jpg,left,842.9149999865331,true,low,NA,NA,NA,NA,NA,NA,NA,false
28iF65YK,3eawoid6nwaaqnjzba4xtrlfy89v0t,39paafcodqddtgek0ex92mjbhjztv7,28iF65YK,2020-0188,2020-05-21,23:48:26,00:06:50,NA,incomplete,124,filling,1,left,Red_Triangle_Stripes_4.jpg,Purple_Star_Stripes_3.jpg,Green_Circle_Grid_4.jpg,left,791.239999991376,true,low,NA,NA,NA,NA,NA,NA,NA,false
28iF65YK,3eawoid6nwaaqnjzba4xtrlfy89v0t,39paafcodqddtgek0ex92mjbhjztv7,28iF65YK,2020-0188,2020-05-21,23:48:26,00:06:50,NA,incomplete,125,filling,0,right,Purple_Star_Stripes_3.jpg,Blue_Triangle_Chess_3.jpg,Green_Plus_Stripes_4.jpg,right,979.8399999854155,true,low,NA,NA,NA,NA,NA,NA,NA,false
28iF65YK,3eawoid6nwaaqnjzba4xtrlfy89v0t,39paafcodqddtgek0ex92mjbhjztv7,28iF65YK,2020-0188,2020-05-21,23:48:26,00:06:50,NA,incomplete,126,filling,1,right,Blue_Triangle_Grid_1.jpg,Red_Star_Stripes_1.jpg,Green_Plus_Grid_3.jpg,right,1016.4900000090711,true,low,NA,NA,NA,NA,NA,NA,NA,false
28iF65YK,3eawoid6nwaaqnjzba4xtrlfy89v0t,39paafcodqddtgek0ex92mjbhjztv7,28iF65YK,2020-0188,2020-05-21,23:48:26,00:06:50,NA,incomplete,127,filling,1,left,Red_Plus_Dots_4.jpg,Green_Star_Dots_1.jpg,Purple_Circle_Grid_4.jpg,left,981.5799999923911,true,low,NA,NA,NA,NA,NA,NA,NA,false
28iF65YK,3eawoid6nwaaqnjzba4xtrlfy89v0t,39paafcodqddtgek0ex92mjbhjztv7,28iF65YK,2020-0188,2020-05-21,23:48:26,00:06:50,NA,incomplete,128,filling,1,right,Blue_Triangle_Dots_2.jpg,Purple_Star_Grid_2.jpg,Green_Circle_Dots_1.jpg,right,783.8349999801721,true,low,NA,NA,NA,NA,NA,NA,NA,false
28iF65YK,3eawoid6nwaaqnjzba4xtrlfy89v0t,39paafcodqddtgek0ex92mjbhjztv7,28iF65YK,2020-0188,2020-05-21,23:48:26,00:06:50,NA,incomplete,129,filling,1,left,Blue_Plus_Dots_3.jpg,Green_Circle_Dots_2.jpg,Purple_Star_Stripes_3.jpg,left,1078.784999990603,true,low,NA,NA,NA,NA,NA,NA,NA,false
28iF65YK,3eawoid6nwaaqnjzba4xtrlfy89v0t,39paafcodqddtgek0ex92mjbhjztv7,28iF65YK,2020-0188,2020-05-21,23:48:26,00:06:50,NA,incomplete,130,filling,1,right,Purple_Star_Stripes_2.jpg,Green_Circle_Grid_2.jpg,Blue_Plus_Stripes_1.jpg,right,999.4100000185426,true,low,NA,NA,NA,NA,NA,NA,NA,false
28iF65YK,3eawoid6nwaaqnjzba4xtrlfy89v0t,39paafcodqddtgek0ex92mjbhjztv7,28iF65YK,2020-0188,2020-05-21,23:48:26,00:06:50,NA,incomplete,131,filling,1,left,Blue_Plus_Grid_3.jpg,Purple_Triangle_Grid_1.jpg,Green_Circle_Chess_3.jpg,left,927.9049999895506,true,low,NA,NA,NA,NA,NA,NA,NA,false
28iF65YK,3eawoid6nwaaqnjzba4xtrlfy89v0t,39paafcodqddtgek0ex92mjbhjztv7,28iF65YK,2020-0188,2020-05-21,23:48:26,00:06:50,NA,incomplete,132,filling,1,left,Red_Star_Dots_3.jpg,Purple_Triangle_Dots_2.jpg,Green_Circle_Chess_3.jpg,left,860.259999986738,true,low,NA,NA,NA,NA,NA,NA,NA,false
28iF65YK,3eawoid6nwaaqnjzba4xtrlfy89v0t,39paafcodqddtgek0ex92mjbhjztv7,28iF65YK,2020-0188,2020-05-21,23:48:26,00:06:50,NA,incomplete,133,filling,1,right,Purple_Star_Chess_1.jpg,Green_Circle_Stripes_1.jpg,Red_Plus_Chess_4.jpg,right,704.9899999983609,true,low,NA,NA,NA,NA,NA,NA,NA,false
28iF65YK,3eawoid6nwaaqnjzba4xtrlfy89v0t,39paafcodqddtgek0ex92mjbhjztv7,28iF65YK,2020-0188,2020-05-21,23:48:26,00:06:50,NA,incomplete,134,filling,0,left,Red_Triangle_Chess_2.jpg,Blue_Star_Chess_4.jpg,Purple_Plus_Dots_2.jpg,left,720.7000000053085,true,low,NA,NA,NA,NA,NA,NA,NA,false
28iF65YK,3eawoid6nwaaqnjzba4xtrlfy89v0t,39paafcodqddtgek0ex92mjbhjztv7,28iF65YK,2020-0188,2020-05-21,23:48:26,00:06:50,NA,incomplete,135,filling,1,left,Blue_Plus_Stripes_2.jpg,Green_Triangle_Stripes_1.jpg,Purple_Circle_Grid_2.jpg,left,716.1400000040885,true,low,NA,NA,NA,NA,NA,NA,NA,false
28iF65YK,3eawoid6nwaaqnjzba4xtrlfy89v0t,39paafcodqddtgek0ex92mjbhjztv7,28iF65YK,2020-0188,2020-05-21,23:48:26,00:06:50,NA,incomplete,136,filling,1,right,Blue_Triangle_Grid_1.jpg,Purple_Plus_Dots_1.jpg,Green_Circle_Grid_2.jpg,right,1170.1950000133365,true,low,NA,NA,NA,NA,NA,NA,NA,false
28iF65YK,3eawoid6nwaaqnjzba4xtrlfy89v0t,39paafcodqddtgek0ex92mjbhjztv7,28iF65YK,2020-0188,2020-05-21,23:48:26,00:06:50,NA,incomplete,137,filling,1,left,Blue_Circle_Grid_1.jpg,Purple_Plus_Grid_4.jpg,Red_Triangle_Dots_1.jpg,left,858.6200000136159,true,low,NA,NA,NA,NA,NA,NA,NA,false
28iF65YK,3eawoid6nwaaqnjzba4xtrlfy89v0t,39paafcodqddtgek0ex92mjbhjztv7,28iF65YK,2020-0188,2020-05-21,23:48:26,00:06:50,NA,incomplete,138,filling,1,right,Purple_Plus_Stripes_3.jpg,Red_Circle_Dots_3.jpg,Blue_Triangle_Stripes_1.jpg,right,922.8999999759253,true,low,NA,NA,NA,NA,NA,NA,NA,false
28iF65YK,3eawoid6nwaaqnjzba4xtrlfy89v0t,39paafcodqddtgek0ex92mjbhjztv7,28iF65YK,2020-0188,2020-05-21,23:48:26,00:06:50,NA,incomplete,139,filling,1,right,Red_Triangle_Grid_3.jpg,Purple_Plus_Chess_3.jpg,Blue_Star_Grid_1.jpg,right,1016.8800000101328,true,low,NA,NA,NA,NA,NA,NA,NA,false
28iF65YK,3eawoid6nwaaqnjzba4xtrlfy89v0t,39paafcodqddtgek0ex92mjbhjztv7,28iF65YK,2020-0188,2020-05-21,23:48:26,00:06:50,NA,incomplete,140,number,1,left,Red_Circle_Chess_3.jpg,Blue_Star_Grid_3.jpg,Purple_Plus_Chess_1.jpg,right,937.2950000106357,false,low,NA,NA,NA,NA,NA,NA,NA,false
28iF65YK,3eawoid6nwaaqnjzba4xtrlfy89v0t,39paafcodqddtgek0ex92mjbhjztv7,28iF65YK,2020-0188,2020-05-21,23:48:26,00:06:50,NA,incomplete,141,number,1,left,Blue_Triangle_Grid_3.jpg,Red_Circle_Chess_3.jpg,Purple_Plus_Grid_1.jpg,right,784.2999999993481,false,low,NA,NA,NA,NA,NA,NA,NA,false
28iF65YK,3eawoid6nwaaqnjzba4xtrlfy89v0t,39paafcodqddtgek0ex92mjbhjztv7,28iF65YK,2020-0188,2020-05-21,23:48:26,00:06:50,NA,incomplete,142,number,1,left,Green_Star_Chess_1.jpg,Blue_Plus_Dots_1.jpg,Red_Circle_Chess_4.jpg,left,547.4850000173319,true,low,NA,NA,NA,NA,NA,NA,NA,false
28iF65YK,3eawoid6nwaaqnjzba4xtrlfy89v0t,39paafcodqddtgek0ex92mjbhjztv7,28iF65YK,2020-0188,2020-05-21,23:48:26,00:06:50,NA,incomplete,143,number,0,left,Green_Plus_Dots_3.jpg,Purple_Circle_Grid_3.jpg,Red_Star_Dots_4.jpg,left,720.1849999837577,true,low,NA,NA,NA,NA,NA,NA,NA,false
28iF65YK,3eawoid6nwaaqnjzba4xtrlfy89v0t,39paafcodqddtgek0ex92mjbhjztv7,28iF65YK,2020-0188,2020-05-21,23:48:26,00:06:50,NA,incomplete,144,number,1,right,Green_Plus_Dots_1.jpg,Blue_Circle_Dots_3.jpg,Red_Triangle_Grid_1.jpg,right,603.8100000005215,true,low,NA,NA,NA,NA,NA,NA,NA,false
28iF65YK,3eawoid6nwaaqnjzba4xtrlfy89v0t,39paafcodqddtgek0ex92mjbhjztv7,28iF65YK,2020-0188,2020-05-21,23:48:26,00:06:50,NA,incomplete,145,number,1,left,Purple_Plus_Grid_2.jpg,Blue_Circle_Stripes_2.jpg,Red_Triangle_Grid_1.jpg,left,710.3700000152458,true,low,NA,NA,NA,NA,NA,NA,NA,false
28iF65YK,3eawoid6nwaaqnjzba4xtrlfy89v0t,39paafcodqddtgek0ex92mjbhjztv7,28iF65YK,2020-0188,2020-05-21,23:48:26,00:06:50,NA,incomplete,146,number,1,left,Purple_Circle_Stripes_4.jpg,Red_Star_Dots_4.jpg,Green_Plus_Stripes_1.jpg,left,610.7699999993201,true,low,NA,NA,NA,NA,NA,NA,NA,false
28iF65YK,3eawoid6nwaaqnjzba4xtrlfy89v0t,39paafcodqddtgek0ex92mjbhjztv7,28iF65YK,2020-0188,2020-05-21,23:48:26,00:06:50,NA,incomplete,147,number,1,right,Purple_Star_Chess_3.jpg,Green_Triangle_Chess_4.jpg,Red_Circle_Stripes_3.jpg,right,740.8100000175182,true,low,NA,NA,NA,NA,NA,NA,NA,false
28iF65YK,3eawoid6nwaaqnjzba4xtrlfy89v0t,39paafcodqddtgek0ex92mjbhjztv7,28iF65YK,2020-0188,2020-05-21,23:48:26,00:06:50,NA,incomplete,148,number,1,left,Blue_Circle_Chess_4.jpg,Red_Star_Stripes_4.jpg,Green_Plus_Chess_3.jpg,left,742.4400000018068,true,low,NA,NA,NA,NA,NA,NA,NA,false
28iF65YK,3eawoid6nwaaqnjzba4xtrlfy89v0t,39paafcodqddtgek0ex92mjbhjztv7,28iF65YK,2020-0188,2020-05-21,23:48:26,00:06:50,NA,incomplete,149,number,0,left,Purple_Star_Dots_1.jpg,Green_Plus_Grid_1.jpg,Blue_Triangle_Dots_2.jpg,left,711.1149999836925,true,low,NA,NA,NA,NA,NA,NA,NA,false
28iF65YK,3eawoid6nwaaqnjzba4xtrlfy89v0t,39paafcodqddtgek0ex92mjbhjztv7,28iF65YK,2020-0188,2020-05-21,23:48:26,00:06:50,NA,incomplete,150,number,1,right,Red_Star_Stripes_2.jpg,Purple_Circle_Stripes_4.jpg,Green_Triangle_Grid_2.jpg,right,554.9649999884423,true,low,NA,NA,NA,NA,NA,NA,NA,false
28iF65YK,3eawoid6nwaaqnjzba4xtrlfy89v0t,39paafcodqddtgek0ex92mjbhjztv7,28iF65YK,2020-0188,2020-05-21,23:48:26,00:06:50,NA,incomplete,151,number,1,left,Red_Star_Dots_1.jpg,Green_Triangle_Grid_1.jpg,Blue_Circle_Dots_4.jpg,left,520.0950000144076,true,low,NA,NA,NA,NA,NA,NA,NA,false
28iF65YK,3eawoid6nwaaqnjzba4xtrlfy89v0t,39paafcodqddtgek0ex92mjbhjztv7,28iF65YK,2020-0188,2020-05-21,23:48:26,00:06:50,NA,incomplete,152,number,1,left,Red_Circle_Grid_3.jpg,Blue_Star_Dots_3.jpg,Purple_Triangle_Grid_2.jpg,right,793.8200000207871,false,low,NA,NA,NA,NA,NA,NA,NA,false
28iF65YK,3eawoid6nwaaqnjzba4xtrlfy89v0t,39paafcodqddtgek0ex92mjbhjztv7,28iF65YK,2020-0188,2020-05-21,23:48:26,00:06:50,NA,incomplete,153,number,1,left,Blue_Plus_Chess_3.jpg,Purple_Triangle_Dots_3.jpg,Green_Star_Chess_1.jpg,left,613.1349999923259,true,low,NA,NA,NA,NA,NA,NA,NA,false
28iF65YK,3eawoid6nwaaqnjzba4xtrlfy89v0t,39paafcodqddtgek0ex92mjbhjztv7,28iF65YK,2020-0188,2020-05-21,23:48:26,00:06:50,NA,incomplete,154,number,1,left,Blue_Plus_Chess_3.jpg,Green_Circle_Grid_3.jpg,Red_Triangle_Chess_2.jpg,left,629.415000003064,true,low,NA,NA,NA,NA,NA,NA,NA,false
28iF65YK,3eawoid6nwaaqnjzba4xtrlfy89v0t,39paafcodqddtgek0ex92mjbhjztv7,28iF65YK,2020-0188,2020-05-21,23:48:26,00:06:50,NA,incomplete,155,number,0,right,Blue_Star_Stripes_2.jpg,Green_Plus_Stripes_1.jpg,Purple_Circle_Dots_2.jpg,right,727.7549999998882,true,low,NA,NA,NA,NA,NA,NA,NA,false
28iF65YK,3eawoid6nwaaqnjzba4xtrlfy89v0t,39paafcodqddtgek0ex92mjbhjztv7,28iF65YK,2020-0188,2020-05-21,23:48:26,00:06:50,NA,incomplete,156,number,1,right,Green_Triangle_Chess_1.jpg,Purple_Star_Chess_2.jpg,Red_Circle_Stripes_1.jpg,right,628.3600000024308,true,low,NA,NA,NA,NA,NA,NA,NA,false
28iF65YK,3eawoid6nwaaqnjzba4xtrlfy89v0t,39paafcodqddtgek0ex92mjbhjztv7,28iF65YK,2020-0188,2020-05-21,23:48:26,00:06:50,NA,incomplete,157,number,0,left,Green_Plus_Grid_3.jpg,Red_Star_Stripes_3.jpg,Purple_Triangle_Grid_1.jpg,left,705.9399999852758,true,low,NA,NA,NA,NA,NA,NA,NA,false
28iF65YK,3eawoid6nwaaqnjzba4xtrlfy89v0t,39paafcodqddtgek0ex92mjbhjztv7,28iF65YK,2020-0188,2020-05-21,23:48:26,00:06:50,NA,incomplete,158,number,1,right,Green_Triangle_Chess_4.jpg,Purple_Circle_Chess_3.jpg,Red_Plus_Grid_4.jpg,right,672.8950000251643,true,low,NA,NA,NA,NA,NA,NA,NA,false
28iF65YK,3eawoid6nwaaqnjzba4xtrlfy89v0t,39paafcodqddtgek0ex92mjbhjztv7,28iF65YK,2020-0188,2020-05-21,23:48:26,00:06:50,NA,incomplete,159,number,1,right,Red_Triangle_Dots_3.jpg,Green_Star_Dots_2.jpg,Purple_Circle_Grid_3.jpg,right,652.8050000197254,true,low,NA,NA,NA,NA,NA,NA,NA,false
28iF65YK,3eawoid6nwaaqnjzba4xtrlfy89v0t,39paafcodqddtgek0ex92mjbhjztv7,28iF65YK,2020-0188,2020-05-21,23:48:26,00:06:50,NA,incomplete,160,filling,1,left,Purple_Triangle_Grid_4.jpg,Green_Plus_Grid_3.jpg,Red_Star_Dots_4.jpg,right,752.3500000243075,false,low,NA,NA,NA,NA,NA,NA,NA,false
28iF65YK,3eawoid6nwaaqnjzba4xtrlfy89v0t,39paafcodqddtgek0ex92mjbhjztv7,28iF65YK,2020-0188,2020-05-21,23:48:26,00:06:50,NA,incomplete,161,filling,1,left,Green_Triangle_Grid_1.jpg,Purple_Circle_Grid_3.jpg,Blue_Star_Chess_1.jpg,right,777.620000008028,false,low,NA,NA,NA,NA,NA,NA,NA,false
28iF65YK,3eawoid6nwaaqnjzba4xtrlfy89v0t,39paafcodqddtgek0ex92mjbhjztv7,28iF65YK,2020-0188,2020-05-21,23:48:26,00:06:50,NA,incomplete,162,filling,0,right,Blue_Circle_Dots_1.jpg,Purple_Plus_Stripes_1.jpg,Red_Star_Dots_4.jpg,right,757.4200000090059,true,low,NA,NA,NA,NA,NA,NA,NA,false
28iF65YK,3eawoid6nwaaqnjzba4xtrlfy89v0t,39paafcodqddtgek0ex92mjbhjztv7,28iF65YK,2020-0188,2020-05-21,23:48:26,00:06:50,NA,incomplete,163,filling,1,right,Purple_Triangle_Grid_1.jpg,Green_Plus_Stripes_1.jpg,Blue_Star_Grid_2.jpg,left,581.0599999967963,false,low,NA,NA,NA,NA,NA,NA,NA,false
28iF65YK,3eawoid6nwaaqnjzba4xtrlfy89v0t,39paafcodqddtgek0ex92mjbhjztv7,28iF65YK,2020-0188,2020-05-21,23:48:26,00:06:50,NA,incomplete,164,filling,1,right,Green_Triangle_Stripes_3.jpg,Purple_Star_Dots_3.jpg,Blue_Circle_Stripes_1.jpg,right,755.6850000109989,true,low,NA,NA,NA,NA,NA,NA,NA,false
28iF65YK,3eawoid6nwaaqnjzba4xtrlfy89v0t,39paafcodqddtgek0ex92mjbhjztv7,28iF65YK,2020-0188,2020-05-21,23:48:26,00:06:50,NA,incomplete,165,filling,1,left,Red_Star_Chess_4.jpg,Purple_Circle_Chess_1.jpg,Green_Plus_Stripes_4.jpg,left,759.8149999976158,true,low,NA,NA,NA,NA,NA,NA,NA,false
28iF65YK,3eawoid6nwaaqnjzba4xtrlfy89v0t,39paafcodqddtgek0ex92mjbhjztv7,28iF65YK,2020-0188,2020-05-21,23:48:26,00:06:50,NA,incomplete,166,filling,1,right,Red_Star_Chess_3.jpg,Blue_Circle_Dots_3.jpg,Green_Triangle_Chess_1.jpg,right,818.7050000124145,true,low,NA,NA,NA,NA,NA,NA,NA,false
28iF65YK,3eawoid6nwaaqnjzba4xtrlfy89v0t,39paafcodqddtgek0ex92mjbhjztv7,28iF65YK,2020-0188,2020-05-21,23:48:26,00:06:50,NA,incomplete,167,filling,1,left,Purple_Star_Chess_4.jpg,Red_Circle_Chess_3.jpg,Blue_Plus_Dots_4.jpg,left,867.1050000120886,true,low,NA,NA,NA,NA,NA,NA,NA,false
28iF65YK,3eawoid6nwaaqnjzba4xtrlfy89v0t,39paafcodqddtgek0ex92mjbhjztv7,28iF65YK,2020-0188,2020-05-21,23:48:26,00:06:50,NA,incomplete,168,filling,1,right,Blue_Circle_Stripes_4.jpg,Red_Triangle_Dots_4.jpg,Purple_Star_Stripes_3.jpg,right,763.4150000230875,true,low,NA,NA,NA,NA,NA,NA,NA,false
28iF65YK,3eawoid6nwaaqnjzba4xtrlfy89v0t,39paafcodqddtgek0ex92mjbhjztv7,28iF65YK,2020-0188,2020-05-21,23:48:26,00:06:50,NA,incomplete,169,filling,1,right,Purple_Circle_Grid_2.jpg,Red_Star_Dots_2.jpg,Green_Triangle_Grid_1.jpg,right,816.3399999903049,true,low,NA,NA,NA,NA,NA,NA,NA,false
28iF65YK,3eawoid6nwaaqnjzba4xtrlfy89v0t,39paafcodqddtgek0ex92mjbhjztv7,28iF65YK,2020-0188,2020-05-21,23:48:26,00:06:50,NA,incomplete,170,filling,1,right,Purple_Circle_Stripes_1.jpg,Blue_Star_Chess_1.jpg,Red_Plus_Stripes_2.jpg,right,879.8750000132713,true,low,NA,NA,NA,NA,NA,NA,NA,false
28iF65YK,3eawoid6nwaaqnjzba4xtrlfy89v0t,39paafcodqddtgek0ex92mjbhjztv7,28iF65YK,2020-0188,2020-05-21,23:48:26,00:06:50,NA,incomplete,171,filling,1,right,Green_Plus_Grid_1.jpg,Blue_Triangle_Stripes_1.jpg,Purple_Star_Grid_2.jpg,right,994.5450000232086,true,low,NA,NA,NA,NA,NA,NA,NA,false
28iF65YK,3eawoid6nwaaqnjzba4xtrlfy89v0t,39paafcodqddtgek0ex92mjbhjztv7,28iF65YK,2020-0188,2020-05-21,23:48:26,00:06:50,NA,incomplete,172,filling,0,right,Purple_Circle_Stripes_4.jpg,Red_Plus_Chess_4.jpg,Blue_Triangle_Stripes_1.jpg,right,704.874999995809,true,low,NA,NA,NA,NA,NA,NA,NA,false
28iF65YK,3eawoid6nwaaqnjzba4xtrlfy89v0t,39paafcodqddtgek0ex92mjbhjztv7,28iF65YK,2020-0188,2020-05-21,23:48:26,00:06:50,NA,incomplete,173,filling,1,right,Green_Plus_Chess_4.jpg,Red_Circle_Stripes_4.jpg,Blue_Triangle_Chess_1.jpg,right,791.1800000001676,true,low,NA,NA,NA,NA,NA,NA,NA,false
28iF65YK,3eawoid6nwaaqnjzba4xtrlfy89v0t,39paafcodqddtgek0ex92mjbhjztv7,28iF65YK,2020-0188,2020-05-21,23:48:26,00:06:50,NA,incomplete,174,filling,1,left,Red_Star_Stripes_1.jpg,Blue_Triangle_Stripes_4.jpg,Green_Plus_Dots_1.jpg,left,717.6599999947939,true,low,NA,NA,NA,NA,NA,NA,NA,false
28iF65YK,3eawoid6nwaaqnjzba4xtrlfy89v0t,39paafcodqddtgek0ex92mjbhjztv7,28iF65YK,2020-0188,2020-05-21,23:48:26,00:06:50,NA,incomplete,175,filling,1,left,Green_Plus_Dots_4.jpg,Blue_Star_Dots_2.jpg,Purple_Triangle_Grid_4.jpg,left,890.929999994114,true,low,NA,NA,NA,NA,NA,NA,NA,false
28iF65YK,3eawoid6nwaaqnjzba4xtrlfy89v0t,39paafcodqddtgek0ex92mjbhjztv7,28iF65YK,2020-0188,2020-05-21,23:48:26,00:06:50,NA,incomplete,176,filling,1,left,Red_Circle_Stripes_1.jpg,Green_Triangle_Stripes_3.jpg,Purple_Plus_Dots_1.jpg,left,639.0550000069197,true,low,NA,NA,NA,NA,NA,NA,NA,false
28iF65YK,3eawoid6nwaaqnjzba4xtrlfy89v0t,39paafcodqddtgek0ex92mjbhjztv7,28iF65YK,2020-0188,2020-05-21,23:48:26,00:06:50,NA,incomplete,177,filling,1,left,Green_Circle_Dots_2.jpg,Purple_Triangle_Dots_1.jpg,Blue_Plus_Stripes_2.jpg,left,781.5199999895412,true,low,NA,NA,NA,NA,NA,NA,NA,false
28iF65YK,3eawoid6nwaaqnjzba4xtrlfy89v0t,39paafcodqddtgek0ex92mjbhjztv7,28iF65YK,2020-0188,2020-05-21,23:48:26,00:06:50,NA,incomplete,178,filling,0,right,Purple_Star_Grid_4.jpg,Blue_Triangle_Chess_4.jpg,Red_Plus_Grid_1.jpg,right,862.6299999887124,true,low,NA,NA,NA,NA,NA,NA,NA,false
28iF65YK,3eawoid6nwaaqnjzba4xtrlfy89v0t,39paafcodqddtgek0ex92mjbhjztv7,28iF65YK,2020-0188,2020-05-21,23:48:26,00:06:50,NA,incomplete,179,filling,1,left,Red_Plus_Grid_2.jpg,Purple_Star_Grid_1.jpg,Blue_Triangle_Dots_2.jpg,left,723.9450000051875,true,low,NA,NA,NA,NA,NA,NA,NA,false
28iF65YK,3eawoid6nwaaqnjzba4xtrlfy89v0t,39paafcodqddtgek0ex92mjbhjztv7,28iF65YK,2020-0188,2020-05-21,23:48:26,00:06:50,NA,incomplete,180,number,1,right,Blue_Plus_Dots_2.jpg,Red_Triangle_Dots_1.jpg,Green_Star_Chess_2.jpg,left,657.2600000072271,false,low,NA,NA,NA,NA,NA,NA,NA,false
28iF65YK,3eawoid6nwaaqnjzba4xtrlfy89v0t,39paafcodqddtgek0ex92mjbhjztv7,28iF65YK,2020-0188,2020-05-21,23:48:26,00:06:50,NA,incomplete,181,number,0,left,Green_Star_Stripes_1.jpg,Red_Plus_Dots_1.jpg,Purple_Triangle_Stripes_3.jpg,left,510.04500000271946,true,low,NA,NA,NA,NA,NA,NA,NA,false
28iF65YK,3eawoid6nwaaqnjzba4xtrlfy89v0t,39paafcodqddtgek0ex92mjbhjztv7,28iF65YK,2020-0188,2020-05-21,23:48:26,00:06:50,NA,incomplete,182,number,1,left,Blue_Triangle_Stripes_2.jpg,Purple_Circle_Dots_2.jpg,Green_Star_Stripes_4.jpg,right,773.174999980256,false,low,NA,NA,NA,NA,NA,NA,NA,false
28iF65YK,3eawoid6nwaaqnjzba4xtrlfy89v0t,39paafcodqddtgek0ex92mjbhjztv7,28iF65YK,2020-0188,2020-05-21,23:48:26,00:06:50,NA,incomplete,183,number,1,right,Blue_Star_Dots_1.jpg,Purple_Plus_Dots_3.jpg,Green_Triangle_Grid_1.jpg,right,589.3400000059046,true,low,NA,NA,NA,NA,NA,NA,NA,false
28iF65YK,3eawoid6nwaaqnjzba4xtrlfy89v0t,39paafcodqddtgek0ex92mjbhjztv7,28iF65YK,2020-0188,2020-05-21,23:48:26,00:06:50,NA,incomplete,184,number,0,right,Red_Circle_Stripes_2.jpg,Purple_Triangle_Stripes_1.jpg,Green_Plus_Chess_2.jpg,left,551.0599999979604,false,low,NA,NA,NA,NA,NA,NA,NA,false
28iF65YK,3eawoid6nwaaqnjzba4xtrlfy89v0t,39paafcodqddtgek0ex92mjbhjztv7,28iF65YK,2020-0188,2020-05-21,23:48:26,00:06:50,NA,incomplete,185,number,1,right,Red_Star_Chess_3.jpg,Green_Circle_Chess_4.jpg,Purple_Plus_Grid_3.jpg,left,869.1000000108033,false,low,NA,NA,NA,NA,NA,NA,NA,false
28iF65YK,3eawoid6nwaaqnjzba4xtrlfy89v0t,39paafcodqddtgek0ex92mjbhjztv7,28iF65YK,2020-0188,2020-05-21,23:48:26,00:06:50,NA,incomplete,186,number,1,left,Blue_Plus_Grid_3.jpg,Red_Circle_Dots_3.jpg,Green_Star_Grid_1.jpg,left,1108.8950000121258,true,low,NA,NA,NA,NA,NA,NA,NA,false
28iF65YK,3eawoid6nwaaqnjzba4xtrlfy89v0t,39paafcodqddtgek0ex92mjbhjztv7,28iF65YK,2020-0188,2020-05-21,23:48:26,00:06:50,NA,incomplete,187,number,0,right,Red_Plus_Grid_3.jpg,Blue_Triangle_Grid_2.jpg,Green_Circle_Stripes_3.jpg,right,723.2599999988452,true,low,NA,NA,NA,NA,NA,NA,NA,false
28iF65YK,3eawoid6nwaaqnjzba4xtrlfy89v0t,39paafcodqddtgek0ex92mjbhjztv7,28iF65YK,2020-0188,2020-05-21,23:48:26,00:06:50,NA,incomplete,188,number,1,right,Purple_Plus_Grid_1.jpg,Green_Star_Grid_2.jpg,Red_Circle_Chess_1.jpg,right,873.6649999918882,true,low,NA,NA,NA,NA,NA,NA,NA,false
28iF65YK,3eawoid6nwaaqnjzba4xtrlfy89v0t,39paafcodqddtgek0ex92mjbhjztv7,28iF65YK,2020-0188,2020-05-21,23:48:26,00:06:50,NA,incomplete,189,number,0,left,Purple_Star_Dots_2.jpg,Red_Plus_Stripes_2.jpg,Green_Circle_Dots_3.jpg,left,673.4549999819137,true,low,NA,NA,NA,NA,NA,NA,NA,false
28iF65YK,3eawoid6nwaaqnjzba4xtrlfy89v0t,39paafcodqddtgek0ex92mjbhjztv7,28iF65YK,2020-0188,2020-05-21,23:48:26,00:06:50,NA,incomplete,190,number,1,right,Red_Triangle_Stripes_1.jpg,Green_Circle_Stripes_2.jpg,Blue_Plus_Chess_1.jpg,left,704.3899999989662,false,low,NA,NA,NA,NA,NA,NA,NA,false
28iF65YK,3eawoid6nwaaqnjzba4xtrlfy89v0t,39paafcodqddtgek0ex92mjbhjztv7,28iF65YK,2020-0188,2020-05-21,23:48:26,00:06:50,NA,incomplete,191,number,1,right,Purple_Triangle_Stripes_1.jpg,Red_Circle_Stripes_2.jpg,Green_Plus_Grid_1.jpg,left,1069.9150000000373,false,low,NA,NA,NA,NA,NA,NA,NA,false
28iF65YK,3eawoid6nwaaqnjzba4xtrlfy89v0t,39paafcodqddtgek0ex92mjbhjztv7,28iF65YK,2020-0188,2020-05-21,23:48:26,00:06:50,NA,incomplete,192,number,0,right,Green_Plus_Grid_1.jpg,Red_Circle_Grid_2.jpg,Purple_Triangle_Stripes_1.jpg,right,605.5800000031013,true,low,NA,NA,NA,NA,NA,NA,NA,false
28iF65YK,3eawoid6nwaaqnjzba4xtrlfy89v0t,39paafcodqddtgek0ex92mjbhjztv7,28iF65YK,2020-0188,2020-05-21,23:48:26,00:06:50,NA,incomplete,193,number,1,right,Red_Triangle_Grid_3.jpg,Green_Plus_Grid_4.jpg,Purple_Circle_Stripes_3.jpg,right,676.1000000115018,true,low,NA,NA,NA,NA,NA,NA,NA,false
28iF65YK,3eawoid6nwaaqnjzba4xtrlfy89v0t,39paafcodqddtgek0ex92mjbhjztv7,28iF65YK,2020-0188,2020-05-21,23:48:26,00:06:50,NA,incomplete,194,number,0,right,Blue_Circle_Dots_1.jpg,Green_Plus_Dots_4.jpg,Red_Star_Stripes_1.jpg,right,611.0850000113714,true,low,NA,NA,NA,NA,NA,NA,NA,false
28iF65YK,3eawoid6nwaaqnjzba4xtrlfy89v0t,39paafcodqddtgek0ex92mjbhjztv7,28iF65YK,2020-0188,2020-05-21,23:48:26,00:06:50,NA,incomplete,195,number,1,left,Blue_Plus_Stripes_2.jpg,Green_Circle_Chess_2.jpg,Purple_Star_Stripes_1.jpg,left,692.8600000101142,true,low,NA,NA,NA,NA,NA,NA,NA,false
28iF65YK,3eawoid6nwaaqnjzba4xtrlfy89v0t,39paafcodqddtgek0ex92mjbhjztv7,28iF65YK,2020-0188,2020-05-21,23:48:26,00:06:50,NA,incomplete,196,number,1,left,Green_Star_Dots_2.jpg,Blue_Triangle_Chess_2.jpg,Purple_Circle_Dots_3.jpg,left,534.6150000113994,true,low,NA,NA,NA,NA,NA,NA,NA,false
28iF65YK,3eawoid6nwaaqnjzba4xtrlfy89v0t,39paafcodqddtgek0ex92mjbhjztv7,28iF65YK,2020-0188,2020-05-21,23:48:26,00:06:50,NA,incomplete,197,number,1,left,Red_Star_Grid_1.jpg,Blue_Triangle_Dots_1.jpg,Green_Circle_Grid_4.jpg,left,536.5300000121351,true,low,NA,NA,NA,NA,NA,NA,NA,false
28iF65YK,3eawoid6nwaaqnjzba4xtrlfy89v0t,39paafcodqddtgek0ex92mjbhjztv7,28iF65YK,2020-0188,2020-05-21,23:48:26,00:06:50,NA,incomplete,198,number,1,right,Purple_Circle_Grid_3.jpg,Green_Triangle_Grid_1.jpg,Red_Plus_Chess_3.jpg,right,518.5549999878276,true,low,NA,NA,NA,NA,NA,NA,NA,false
28iF65YK,3eawoid6nwaaqnjzba4xtrlfy89v0t,39paafcodqddtgek0ex92mjbhjztv7,28iF65YK,2020-0188,2020-05-21,23:48:26,00:06:50,NA,incomplete,199,number,0,left,Green_Star_Stripes_3.jpg,Blue_Circle_Chess_3.jpg,Red_Plus_Stripes_1.jpg,left,552.3800000082701,true,low,NA,NA,NA,NA,NA,NA,NA,false
28iF65YK,3eawoid6nwaaqnjzba4xtrlfy89v0t,39paafcodqddtgek0ex92mjbhjztv7,28iF65YK,2020-0188,2020-05-21,23:48:26,00:06:50,NA,incomplete,200,filling,1,left,Purple_Star_Chess_1.jpg,Red_Circle_Chess_2.jpg,Green_Triangle_Grid_1.jpg,right,530.4900000046473,false,low,NA,NA,NA,NA,NA,NA,NA,false
28iF65YK,3eawoid6nwaaqnjzba4xtrlfy89v0t,39paafcodqddtgek0ex92mjbhjztv7,28iF65YK,2020-0188,2020-05-21,23:48:26,00:06:50,NA,incomplete,201,filling,0,right,Green_Triangle_Chess_1.jpg,Red_Star_Stripes_1.jpg,Purple_Plus_Chess_4.jpg,right,859.3999999866355,true,low,NA,NA,NA,NA,NA,NA,NA,false
28iF65YK,3eawoid6nwaaqnjzba4xtrlfy89v0t,39paafcodqddtgek0ex92mjbhjztv7,28iF65YK,2020-0188,2020-05-21,23:48:26,00:06:50,NA,incomplete,202,filling,1,left,Red_Plus_Stripes_4.jpg,Blue_Circle_Stripes_2.jpg,Purple_Triangle_Dots_4.jpg,right,716.3100000179838,false,low,NA,NA,NA,NA,NA,NA,NA,false
28iF65YK,3eawoid6nwaaqnjzba4xtrlfy89v0t,39paafcodqddtgek0ex92mjbhjztv7,28iF65YK,2020-0188,2020-05-21,23:48:26,00:06:50,NA,incomplete,203,filling,1,left,Purple_Star_Chess_2.jpg,Green_Circle_Chess_3.jpg,Red_Plus_Stripes_2.jpg,left,761.3450000062585,true,low,NA,NA,NA,NA,NA,NA,NA,false
28iF65YK,3eawoid6nwaaqnjzba4xtrlfy89v0t,39paafcodqddtgek0ex92mjbhjztv7,28iF65YK,2020-0188,2020-05-21,23:48:26,00:06:50,NA,incomplete,204,filling,1,left,Blue_Triangle_Dots_3.jpg,Green_Circle_Dots_1.jpg,Red_Star_Stripes_3.jpg,left,792.6350000197999,true,low,NA,NA,NA,NA,NA,NA,NA,false
28iF65YK,3eawoid6nwaaqnjzba4xtrlfy89v0t,39paafcodqddtgek0ex92mjbhjztv7,28iF65YK,2020-0188,2020-05-21,23:48:26,00:06:50,NA,incomplete,205,filling,1,left,Red_Plus_Dots_2.jpg,Blue_Star_Dots_1.jpg,Green_Circle_Stripes_2.jpg,left,896.035000012489,true,low,NA,NA,NA,NA,NA,NA,NA,false
28iF65YK,3eawoid6nwaaqnjzba4xtrlfy89v0t,39paafcodqddtgek0ex92mjbhjztv7,28iF65YK,2020-0188,2020-05-21,23:48:26,00:06:50,NA,incomplete,206,filling,0,left,Red_Circle_Grid_3.jpg,Blue_Plus_Grid_4.jpg,Green_Triangle_Chess_3.jpg,left,923.6399999936111,true,low,NA,NA,NA,NA,NA,NA,NA,false
28iF65YK,3eawoid6nwaaqnjzba4xtrlfy89v0t,39paafcodqddtgek0ex92mjbhjztv7,28iF65YK,2020-0188,2020-05-21,23:48:26,00:06:50,NA,incomplete,207,filling,1,right,Red_Star_Grid_2.jpg,Purple_Circle_Stripes_2.jpg,Green_Triangle_Grid_1.jpg,right,743.7349999963772,true,low,NA,NA,NA,NA,NA,NA,NA,false
28iF65YK,3eawoid6nwaaqnjzba4xtrlfy89v0t,39paafcodqddtgek0ex92mjbhjztv7,28iF65YK,2020-0188,2020-05-21,23:48:26,00:06:50,NA,incomplete,208,filling,1,right,Purple_Circle_Grid_3.jpg,Green_Triangle_Stripes_3.jpg,Blue_Plus_Grid_2.jpg,right,872.1549999900162,true,low,NA,NA,NA,NA,NA,NA,NA,false
28iF65YK,3eawoid6nwaaqnjzba4xtrlfy89v0t,39paafcodqddtgek0ex92mjbhjztv7,28iF65YK,2020-0188,2020-05-21,23:48:26,00:06:50,NA,incomplete,209,filling,1,right,Purple_Circle_Chess_4.jpg,Red_Plus_Grid_4.jpg,Blue_Triangle_Chess_1.jpg,right,1033.335000014631,true,low,NA,NA,NA,NA,NA,NA,NA,false
28iF65YK,3eawoid6nwaaqnjzba4xtrlfy89v0t,39paafcodqddtgek0ex92mjbhjztv7,28iF65YK,2020-0188,2020-05-21,23:48:26,00:06:50,NA,incomplete,210,filling,0,left,Green_Star_Grid_2.jpg,Red_Plus_Grid_4.jpg,Blue_Triangle_Dots_2.jpg,left,715.7500000030268,true,low,NA,NA,NA,NA,NA,NA,NA,false
28iF65YK,3eawoid6nwaaqnjzba4xtrlfy89v0t,39paafcodqddtgek0ex92mjbhjztv7,28iF65YK,2020-0188,2020-05-21,23:48:26,00:06:50,NA,incomplete,211,filling,1,right,Green_Triangle_Dots_4.jpg,Red_Circle_Stripes_4.jpg,Purple_Star_Dots_1.jpg,right,801.8549999978859,true,low,NA,NA,NA,NA,NA,NA,NA,false
28iF65YK,3eawoid6nwaaqnjzba4xtrlfy89v0t,39paafcodqddtgek0ex92mjbhjztv7,28iF65YK,2020-0188,2020-05-21,23:48:26,00:06:50,NA,incomplete,212,filling,1,right,Blue_Star_Dots_3.jpg,Purple_Triangle_Grid_3.jpg,Red_Circle_Dots_1.jpg,right,722.0849999866914,true,low,NA,NA,NA,NA,NA,NA,NA,false
28iF65YK,3eawoid6nwaaqnjzba4xtrlfy89v0t,39paafcodqddtgek0ex92mjbhjztv7,28iF65YK,2020-0188,2020-05-21,23:48:26,00:06:50,NA,incomplete,213,filling,1,right,Green_Circle_Dots_1.jpg,Purple_Triangle_Chess_1.jpg,Blue_Plus_Dots_3.jpg,left,610.3799999982584,false,low,NA,NA,NA,NA,NA,NA,NA,false
28iF65YK,3eawoid6nwaaqnjzba4xtrlfy89v0t,39paafcodqddtgek0ex92mjbhjztv7,28iF65YK,2020-0188,2020-05-21,23:48:26,00:06:50,NA,incomplete,214,filling,1,left,Purple_Star_Stripes_4.jpg,Green_Plus_Stripes_1.jpg,Red_Triangle_Grid_4.jpg,left,950.3299999923911,true,low,NA,NA,NA,NA,NA,NA,NA,false
28iF65YK,3eawoid6nwaaqnjzba4xtrlfy89v0t,39paafcodqddtgek0ex92mjbhjztv7,28iF65YK,2020-0188,2020-05-21,23:48:26,00:06:50,NA,incomplete,215,filling,1,left,Red_Circle_Dots_4.jpg,Green_Star_Dots_3.jpg,Blue_Triangle_Stripes_4.jpg,left,862.1799999964423,true,low,NA,NA,NA,NA,NA,NA,NA,false
28iF65YK,3eawoid6nwaaqnjzba4xtrlfy89v0t,39paafcodqddtgek0ex92mjbhjztv7,28iF65YK,2020-0188,2020-05-21,23:48:26,00:06:50,NA,incomplete,216,filling,1,left,Green_Star_Chess_4.jpg,Purple_Plus_Chess_1.jpg,Red_Circle_Grid_4.jpg,left,846.6199999966193,true,low,NA,NA,NA,NA,NA,NA,NA,false
28iF65YK,3eawoid6nwaaqnjzba4xtrlfy89v0t,39paafcodqddtgek0ex92mjbhjztv7,28iF65YK,2020-0188,2020-05-21,23:48:26,00:06:50,NA,incomplete,217,filling,1,right,Purple_Triangle_Chess_2.jpg,Red_Star_Grid_2.jpg,Blue_Circle_Chess_3.jpg,right,725.9999999951106,true,low,NA,NA,NA,NA,NA,NA,NA,false
28iF65YK,3eawoid6nwaaqnjzba4xtrlfy89v0t,39paafcodqddtgek0ex92mjbhjztv7,28iF65YK,2020-0188,2020-05-21,23:48:26,00:06:50,NA,incomplete,218,filling,1,right,Purple_Triangle_Stripes_2.jpg,Blue_Plus_Dots_2.jpg,Red_Circle_Stripes_4.jpg,right,642.1050000062678,true,low,NA,NA,NA,NA,NA,NA,NA,false
28iF65YK,3eawoid6nwaaqnjzba4xtrlfy89v0t,39paafcodqddtgek0ex92mjbhjztv7,28iF65YK,2020-0188,2020-05-21,23:48:26,00:06:50,NA,incomplete,219,filling,0,left,Purple_Star_Stripes_3.jpg,Green_Triangle_Stripes_2.jpg,Blue_Plus_Chess_3.jpg,left,703.8150000153109,true,low,NA,NA,NA,NA,NA,NA,NA,false
28iF65YK,3eawoid6nwaaqnjzba4xtrlfy89v0t,39paafcodqddtgek0ex92mjbhjztv7,28iF65YK,2020-0188,2020-05-21,23:48:26,00:06:50,NA,incomplete,220,number,1,left,Red_Star_Grid_1.jpg,Green_Triangle_Dots_1.jpg,Blue_Plus_Grid_4.jpg,right,724.1100000101142,false,low,NA,NA,NA,NA,NA,NA,NA,false
28iF65YK,3eawoid6nwaaqnjzba4xtrlfy89v0t,39paafcodqddtgek0ex92mjbhjztv7,28iF65YK,2020-0188,2020-05-21,23:48:26,00:06:50,NA,incomplete,221,number,1,right,Red_Star_Chess_3.jpg,Green_Triangle_Chess_2.jpg,Purple_Circle_Stripes_3.jpg,right,788.8800000073388,true,low,NA,NA,NA,NA,NA,NA,NA,false
28iF65YK,3eawoid6nwaaqnjzba4xtrlfy89v0t,39paafcodqddtgek0ex92mjbhjztv7,28iF65YK,2020-0188,2020-05-21,23:48:26,00:06:50,NA,incomplete,222,number,1,right,Green_Plus_Stripes_1.jpg,Blue_Triangle_Stripes_3.jpg,Red_Star_Dots_1.jpg,right,579.7449999954551,true,low,NA,NA,NA,NA,NA,NA,NA,false
28iF65YK,3eawoid6nwaaqnjzba4xtrlfy89v0t,39paafcodqddtgek0ex92mjbhjztv7,28iF65YK,2020-0188,2020-05-21,23:48:26,00:06:50,NA,incomplete,223,number,0,right,Purple_Star_Stripes_2.jpg,Blue_Plus_Stripes_3.jpg,Red_Circle_Grid_2.jpg,left,729.1250000125729,false,low,NA,NA,NA,NA,NA,NA,NA,false
28iF65YK,3eawoid6nwaaqnjzba4xtrlfy89v0t,39paafcodqddtgek0ex92mjbhjztv7,28iF65YK,2020-0188,2020-05-21,23:48:26,00:06:50,NA,incomplete,224,number,1,left,Purple_Triangle_Dots_3.jpg,Red_Star_Stripes_3.jpg,Blue_Circle_Dots_4.jpg,left,776.9900000130292,true,low,NA,NA,NA,NA,NA,NA,NA,false
28iF65YK,3eawoid6nwaaqnjzba4xtrlfy89v0t,39paafcodqddtgek0ex92mjbhjztv7,28iF65YK,2020-0188,2020-05-21,23:48:26,00:06:50,NA,incomplete,225,number,1,right,Green_Plus_Dots_3.jpg,Blue_Circle_Dots_2.jpg,Purple_Star_Stripes_3.jpg,right,587.6249999855645,true,low,NA,NA,NA,NA,NA,NA,NA,false
28iF65YK,3eawoid6nwaaqnjzba4xtrlfy89v0t,39paafcodqddtgek0ex92mjbhjztv7,28iF65YK,2020-0188,2020-05-21,23:48:26,00:06:50,NA,incomplete,226,number,1,right,Red_Circle_Chess_2.jpg,Purple_Star_Chess_1.jpg,Green_Triangle_Stripes_2.jpg,right,1124.3600000161678,true,low,NA,NA,NA,NA,NA,NA,NA,false
28iF65YK,3eawoid6nwaaqnjzba4xtrlfy89v0t,39paafcodqddtgek0ex92mjbhjztv7,28iF65YK,2020-0188,2020-05-21,23:48:26,00:06:50,NA,incomplete,227,number,1,right,Green_Circle_Dots_1.jpg,Blue_Triangle_Dots_2.jpg,Red_Plus_Grid_1.jpg,right,720.0449999945704,true,low,NA,NA,NA,NA,NA,NA,NA,false
28iF65YK,3eawoid6nwaaqnjzba4xtrlfy89v0t,39paafcodqddtgek0ex92mjbhjztv7,28iF65YK,2020-0188,2020-05-21,23:48:26,00:06:50,NA,incomplete,228,number,1,left,Red_Triangle_Grid_2.jpg,Green_Star_Stripes_2.jpg,Blue_Circle_Grid_3.jpg,left,714.1300000075717,true,low,NA,NA,NA,NA,NA,NA,NA,false
28iF65YK,3eawoid6nwaaqnjzba4xtrlfy89v0t,39paafcodqddtgek0ex92mjbhjztv7,28iF65YK,2020-0188,2020-05-21,23:48:26,00:06:50,NA,incomplete,229,number,0,right,Blue_Star_Grid_2.jpg,Red_Circle_Grid_1.jpg,Green_Triangle_Stripes_2.jpg,right,742.8399999917019,true,low,NA,NA,NA,NA,NA,NA,NA,false
28iF65YK,3eawoid6nwaaqnjzba4xtrlfy89v0t,39paafcodqddtgek0ex92mjbhjztv7,28iF65YK,2020-0188,2020-05-21,23:48:26,00:06:50,NA,incomplete,230,number,1,left,Green_Circle_Dots_3.jpg,Blue_Triangle_Chess_3.jpg,Red_Plus_Dots_2.jpg,left,600.6150000030175,true,low,NA,NA,NA,NA,NA,NA,NA,false
28iF65YK,3eawoid6nwaaqnjzba4xtrlfy89v0t,39paafcodqddtgek0ex92mjbhjztv7,28iF65YK,2020-0188,2020-05-21,23:48:26,00:06:50,NA,incomplete,231,number,1,left,Purple_Star_Dots_3.jpg,Green_Triangle_Grid_3.jpg,Red_Plus_Dots_1.jpg,left,578.6699999880511,true,low,NA,NA,NA,NA,NA,NA,NA,false
28iF65YK,3eawoid6nwaaqnjzba4xtrlfy89v0t,39paafcodqddtgek0ex92mjbhjztv7,28iF65YK,2020-0188,2020-05-21,23:48:26,00:06:50,NA,incomplete,232,number,1,left,Blue_Star_Grid_3.jpg,Purple_Circle_Dots_3.jpg,Green_Triangle_Grid_1.jpg,left,564.2850000003818,true,low,NA,NA,NA,NA,NA,NA,NA,false
28iF65YK,3eawoid6nwaaqnjzba4xtrlfy89v0t,39paafcodqddtgek0ex92mjbhjztv7,28iF65YK,2020-0188,2020-05-21,23:48:26,00:06:50,NA,incomplete,233,number,1,left,Green_Circle_Chess_1.jpg,Red_Star_Dots_1.jpg,Purple_Triangle_Chess_4.jpg,left,577.0500000216998,true,low,NA,NA,NA,NA,NA,NA,NA,false
28iF65YK,3eawoid6nwaaqnjzba4xtrlfy89v0t,39paafcodqddtgek0ex92mjbhjztv7,28iF65YK,2020-0188,2020-05-21,23:48:26,00:06:50,NA,incomplete,234,number,0,left,Blue_Star_Dots_4.jpg,Purple_Circle_Stripes_4.jpg,Red_Triangle_Dots_1.jpg,left,657.47000000556,true,low,NA,NA,NA,NA,NA,NA,NA,false
28iF65YK,3eawoid6nwaaqnjzba4xtrlfy89v0t,39paafcodqddtgek0ex92mjbhjztv7,28iF65YK,2020-0188,2020-05-21,23:48:26,00:06:50,NA,incomplete,235,number,1,right,Blue_Triangle_Grid_4.jpg,Green_Circle_Grid_2.jpg,Purple_Star_Chess_4.jpg,right,599.6300000115298,true,low,NA,NA,NA,NA,NA,NA,NA,false
28iF65YK,3eawoid6nwaaqnjzba4xtrlfy89v0t,39paafcodqddtgek0ex92mjbhjztv7,28iF65YK,2020-0188,2020-05-21,23:48:26,00:06:50,NA,incomplete,236,number,1,left,Green_Circle_Stripes_3.jpg,Purple_Triangle_Chess_3.jpg,Blue_Plus_Stripes_1.jpg,left,707.3799999780022,true,low,NA,NA,NA,NA,NA,NA,NA,false
28iF65YK,3eawoid6nwaaqnjzba4xtrlfy89v0t,39paafcodqddtgek0ex92mjbhjztv7,28iF65YK,2020-0188,2020-05-21,23:48:26,00:06:50,NA,incomplete,237,number,1,right,Green_Star_Dots_2.jpg,Blue_Triangle_Dots_3.jpg,Red_Circle_Stripes_2.jpg,right,619.7350000147708,true,low,NA,NA,NA,NA,NA,NA,NA,false
28iF65YK,3eawoid6nwaaqnjzba4xtrlfy89v0t,39paafcodqddtgek0ex92mjbhjztv7,28iF65YK,2020-0188,2020-05-21,23:48:26,00:06:50,NA,incomplete,238,number,1,left,Blue_Triangle_Dots_3.jpg,Purple_Circle_Chess_3.jpg,Green_Star_Dots_4.jpg,left,666.8599999975413,true,low,NA,NA,NA,NA,NA,NA,NA,false
28iF65YK,3eawoid6nwaaqnjzba4xtrlfy89v0t,39paafcodqddtgek0ex92mjbhjztv7,28iF65YK,2020-0188,2020-05-21,23:48:26,00:06:50,NA,incomplete,239,number,1,right,Blue_Circle_Dots_1.jpg,Purple_Star_Dots_3.jpg,Green_Plus_Grid_1.jpg,right,598.534999997355,true,low,NA,NA,NA,NA,NA,NA,NA,false
28iF65YK,3eawoid6nwaaqnjzba4xtrlfy89v0t,39paafcodqddtgek0ex92mjbhjztv7,28iF65YK,2020-0188,2020-05-21,23:48:26,00:06:50,NA,NA,instruction example,shape,NA,NA,Green_Star_Stripes_2.jpg,Blue_Star_Grid_3.jpg,Green_Plus_Dots_1.jpg,NA,NA,NA,NA,NA,NA,NA,NA,NA,NA,NA,undefined
28iF65YK,3eawoid6nwaaqnjzba4xtrlfy89v0t,39paafcodqddtgek0ex92mjbhjztv7,28iF65YK,2020-0188,2020-05-21,23:48:26,00:06:50,NA,NA,instruction example,shape,NA,NA,Blue_Circle_Grid_1.jpg,Blue_Plus_Stripes_3.jpg,Green_Circle_Chess_2.jpg,NA,NA,NA,NA,NA,NA,NA,NA,NA,NA,NA,undefined
28iF65YK,3eawoid6nwaaqnjzba4xtrlfy89v0t,39paafcodqddtgek0ex92mjbhjztv7,28iF65YK,2020-0188,2020-05-21,23:48:26,00:06:50,NA,NA,instruction example,shape,NA,NA,Purple_Star_Grid_3.jpg,Green_Circle_Grid_2.jpg,Red_Triangle_Stripes_3.jpg,NA,NA,NA,NA,NA,NA,NA,NA,NA,NA,NA,undefined
28iF65YK,3eawoid6nwaaqnjzba4xtrlfy89v0t,39paafcodqddtgek0ex92mjbhjztv7,28iF65YK,2020-0188,2020-05-21,23:48:26,00:06:50,NA,NA,instruction example,shape,NA,NA,Green_Circle_Chess_1.jpg,Blue_Star_Dots_1.jpg,Purple_Triangle_Chess_4.jpg,NA,NA,NA,NA,NA,NA,NA,NA,NA,NA,NA,undefined
28iF65YK,3eawoid6nwaaqnjzba4xtrlfy89v0t,39paafcodqddtgek0ex92mjbhjztv7,28iF65YK,2020-0188,2020-05-21,23:48:26,00:06:50,1068291.91,1106236.3649999897,NA,NA,NA,NA,NA,NA,NA,NA,NA,NA,NA,31,White/Caucasian,Female,White,no,yes,no,undefined
