workerId,hitId,assignmentId,subject,studyid,exp_date,exp_start,exp_end,time_start,time_end,trial,type,reward_validity,answer,image_top,image_left,image_right,response,response_time,response_acc,volatility,practice
JiaW1dc5,3wa2xvdzfpuo2njsi9v42o7kc6t6eh,3a0ex8zrnc1u1of853t89rhjxp7ybx,JiaW1dc5,2020-0188,2020-06-16,10:15:28,10:31:47,NA,incomplete,0,number,1,left,Blue_Star_Stripes_3.jpg,Purple_Triangle_Chess_3.jpg,Blue_Circle_Dots_4.jpg,left,1256.6699999733828,true,NA,true
JiaW1dc5,3wa2xvdzfpuo2njsi9v42o7kc6t6eh,3a0ex8zrnc1u1of853t89rhjxp7ybx,JiaW1dc5,2020-0188,2020-06-16,10:15:28,10:31:47,NA,incomplete,1,number,1,right,Purple_Plus_Chess_4.jpg,Purple_Triangle_Dots_1.jpg,Green_Star_Stripes_4.jpg,right,1914.5299999509007,true,NA,true
JiaW1dc5,3wa2xvdzfpuo2njsi9v42o7kc6t6eh,3a0ex8zrnc1u1of853t89rhjxp7ybx,JiaW1dc5,2020-0188,2020-06-16,10:15:28,10:31:47,NA,incomplete,2,number,1,right,Green_Plus_Dots_3.jpg,Green_Star_Chess_1.jpg,Red_Triangle_Stripes_3.jpg,right,958.6899999994785,true,NA,true
JiaW1dc5,3wa2xvdzfpuo2njsi9v42o7kc6t6eh,3a0ex8zrnc1u1of853t89rhjxp7ybx,JiaW1dc5,2020-0188,2020-06-16,10:15:28,10:31:47,NA,incomplete,3,number,1,right,Blue_Triangle_Chess_1.jpg,Blue_Star_Dots_3.jpg,Green_Plus_Stripes_1.jpg,left,1266.7699999874458,false,NA,true
JiaW1dc5,3wa2xvdzfpuo2njsi9v42o7kc6t6eh,3a0ex8zrnc1u1of853t89rhjxp7ybx,JiaW1dc5,2020-0188,2020-06-16,10:15:28,10:31:47,NA,incomplete,4,number,0,right,Purple_Circle_Chess_1.jpg,Purple_Plus_Stripes_3.jpg,Blue_Triangle_Dots_1.jpg,right,1009.905000042636,true,NA,true
JiaW1dc5,3wa2xvdzfpuo2njsi9v42o7kc6t6eh,3a0ex8zrnc1u1of853t89rhjxp7ybx,JiaW1dc5,2020-0188,2020-06-16,10:15:28,10:31:47,NA,incomplete,5,number,1,right,Blue_Circle_Grid_2.jpg,Blue_Star_Stripes_3.jpg,Purple_Triangle_Dots_2.jpg,right,1192.3299999907613,true,NA,true
JiaW1dc5,3wa2xvdzfpuo2njsi9v42o7kc6t6eh,3a0ex8zrnc1u1of853t89rhjxp7ybx,JiaW1dc5,2020-0188,2020-06-16,10:15:28,10:31:47,NA,incomplete,6,number,0,left,Red_Triangle_Dots_2.jpg,Blue_Plus_Chess_2.jpg,Red_Circle_Stripes_3.jpg,left,991.4250000147149,true,NA,true
JiaW1dc5,3wa2xvdzfpuo2njsi9v42o7kc6t6eh,3a0ex8zrnc1u1of853t89rhjxp7ybx,JiaW1dc5,2020-0188,2020-06-16,10:15:28,10:31:47,NA,incomplete,7,number,1,left,Blue_Triangle_Dots_3.jpg,Purple_Star_Grid_3.jpg,Blue_Plus_Chess_2.jpg,left,868.819999974221,true,NA,true
JiaW1dc5,3wa2xvdzfpuo2njsi9v42o7kc6t6eh,3a0ex8zrnc1u1of853t89rhjxp7ybx,JiaW1dc5,2020-0188,2020-06-16,10:15:28,10:31:47,NA,incomplete,8,number,0,right,Purple_Circle_Grid_3.jpg,Purple_Plus_Chess_2.jpg,Blue_Star_Dots_3.jpg,right,604.5250000315718,true,NA,true
JiaW1dc5,3wa2xvdzfpuo2njsi9v42o7kc6t6eh,3a0ex8zrnc1u1of853t89rhjxp7ybx,JiaW1dc5,2020-0188,2020-06-16,10:15:28,10:31:47,NA,incomplete,9,number,1,right,Purple_Star_Stripes_3.jpg,Purple_Triangle_Grid_1.jpg,Red_Plus_Chess_3.jpg,right,793.294999981299,true,NA,true
JiaW1dc5,3wa2xvdzfpuo2njsi9v42o7kc6t6eh,3a0ex8zrnc1u1of853t89rhjxp7ybx,JiaW1dc5,2020-0188,2020-06-16,10:15:28,10:31:47,NA,incomplete,10,number,1,left,Red_Plus_Dots_1.jpg,Blue_Star_Stripes_1.jpg,Red_Triangle_Chess_2.jpg,left,694.0849999664351,true,NA,true
JiaW1dc5,3wa2xvdzfpuo2njsi9v42o7kc6t6eh,3a0ex8zrnc1u1of853t89rhjxp7ybx,JiaW1dc5,2020-0188,2020-06-16,10:15:28,10:31:47,NA,incomplete,11,number,1,right,Green_Star_Grid_2.jpg,Green_Circle_Chess_4.jpg,Red_Plus_Dots_2.jpg,right,925.9750000201166,true,NA,true
JiaW1dc5,3wa2xvdzfpuo2njsi9v42o7kc6t6eh,3a0ex8zrnc1u1of853t89rhjxp7ybx,JiaW1dc5,2020-0188,2020-06-16,10:15:28,10:31:47,NA,incomplete,12,number,1,left,Red_Plus_Stripes_3.jpg,Purple_Circle_Chess_3.jpg,Red_Triangle_Dots_2.jpg,left,862.8050000406802,true,NA,true
JiaW1dc5,3wa2xvdzfpuo2njsi9v42o7kc6t6eh,3a0ex8zrnc1u1of853t89rhjxp7ybx,JiaW1dc5,2020-0188,2020-06-16,10:15:28,10:31:47,NA,incomplete,13,number,1,left,Blue_Triangle_Chess_4.jpg,Red_Plus_Grid_4.jpg,Blue_Circle_Dots_1.jpg,left,766.6599999647588,true,NA,true
JiaW1dc5,3wa2xvdzfpuo2njsi9v42o7kc6t6eh,3a0ex8zrnc1u1of853t89rhjxp7ybx,JiaW1dc5,2020-0188,2020-06-16,10:15:28,10:31:47,NA,incomplete,14,number,1,right,Purple_Triangle_Chess_1.jpg,Purple_Circle_Stripes_4.jpg,Blue_Plus_Grid_1.jpg,right,859.5299999578856,true,NA,true
JiaW1dc5,3wa2xvdzfpuo2njsi9v42o7kc6t6eh,3a0ex8zrnc1u1of853t89rhjxp7ybx,JiaW1dc5,2020-0188,2020-06-16,10:15:28,10:31:47,NA,incomplete,15,number,1,left,Green_Circle_Dots_3.jpg,Purple_Star_Chess_3.jpg,Green_Triangle_Grid_1.jpg,left,686.5199999883771,true,NA,true
JiaW1dc5,3wa2xvdzfpuo2njsi9v42o7kc6t6eh,3a0ex8zrnc1u1of853t89rhjxp7ybx,JiaW1dc5,2020-0188,2020-06-16,10:15:28,10:31:47,NA,incomplete,16,number,0,left,Purple_Star_Chess_4.jpg,Blue_Circle_Grid_4.jpg,Purple_Plus_Stripes_3.jpg,left,809.0249999659136,true,NA,true
JiaW1dc5,3wa2xvdzfpuo2njsi9v42o7kc6t6eh,3a0ex8zrnc1u1of853t89rhjxp7ybx,JiaW1dc5,2020-0188,2020-06-16,10:15:28,10:31:47,NA,incomplete,17,number,1,right,Green_Plus_Chess_3.jpg,Green_Star_Stripes_1.jpg,Purple_Circle_Dots_3.jpg,right,836.1049999948591,true,NA,true
JiaW1dc5,3wa2xvdzfpuo2njsi9v42o7kc6t6eh,3a0ex8zrnc1u1of853t89rhjxp7ybx,JiaW1dc5,2020-0188,2020-06-16,10:15:28,10:31:47,NA,incomplete,18,number,0,left,Green_Circle_Stripes_1.jpg,Red_Triangle_Dots_1.jpg,Green_Plus_Chess_4.jpg,left,622.7550000185147,true,NA,true
JiaW1dc5,3wa2xvdzfpuo2njsi9v42o7kc6t6eh,3a0ex8zrnc1u1of853t89rhjxp7ybx,JiaW1dc5,2020-0188,2020-06-16,10:15:28,10:31:47,NA,incomplete,19,number,1,right,Purple_Circle_Chess_3.jpg,Purple_Star_Dots_1.jpg,Red_Triangle_Stripes_3.jpg,right,615.6799999880604,true,NA,true
JiaW1dc5,3wa2xvdzfpuo2njsi9v42o7kc6t6eh,3a0ex8zrnc1u1of853t89rhjxp7ybx,JiaW1dc5,2020-0188,2020-06-16,10:15:28,10:31:47,NA,incomplete,20,color,1,right,Green_Circle_Grid_3.jpg,Purple_Star_Dots_3.jpg,Green_Plus_Stripes_1.jpg,left,609.0950000216253,false,NA,true
JiaW1dc5,3wa2xvdzfpuo2njsi9v42o7kc6t6eh,3a0ex8zrnc1u1of853t89rhjxp7ybx,JiaW1dc5,2020-0188,2020-06-16,10:15:28,10:31:47,NA,incomplete,21,color,1,left,Red_Star_Stripes_3.jpg,Red_Triangle_Dots_2.jpg,Green_Circle_Grid_3.jpg,left,671.3800000143237,true,NA,true
JiaW1dc5,3wa2xvdzfpuo2njsi9v42o7kc6t6eh,3a0ex8zrnc1u1of853t89rhjxp7ybx,JiaW1dc5,2020-0188,2020-06-16,10:15:28,10:31:47,NA,incomplete,22,color,0,left,Green_Star_Dots_1.jpg,Green_Plus_Grid_4.jpg,Red_Circle_Stripes_1.jpg,left,669.7949999943376,true,NA,true
JiaW1dc5,3wa2xvdzfpuo2njsi9v42o7kc6t6eh,3a0ex8zrnc1u1of853t89rhjxp7ybx,JiaW1dc5,2020-0188,2020-06-16,10:15:28,10:31:47,NA,incomplete,23,color,1,left,Green_Circle_Grid_3.jpg,Green_Triangle_Dots_1.jpg,Purple_Star_Chess_3.jpg,left,735.8400000375696,true,NA,true
JiaW1dc5,3wa2xvdzfpuo2njsi9v42o7kc6t6eh,3a0ex8zrnc1u1of853t89rhjxp7ybx,JiaW1dc5,2020-0188,2020-06-16,10:15:28,10:31:47,NA,incomplete,24,color,1,right,Blue_Star_Grid_2.jpg,Purple_Circle_Stripes_2.jpg,Blue_Plus_Dots_3.jpg,left,753.374999971129,false,NA,true
JiaW1dc5,3wa2xvdzfpuo2njsi9v42o7kc6t6eh,3a0ex8zrnc1u1of853t89rhjxp7ybx,JiaW1dc5,2020-0188,2020-06-16,10:15:28,10:31:47,NA,incomplete,25,color,1,right,Green_Circle_Chess_2.jpg,Purple_Star_Grid_2.jpg,Green_Triangle_Dots_3.jpg,right,525.0399999786168,true,NA,true
JiaW1dc5,3wa2xvdzfpuo2njsi9v42o7kc6t6eh,3a0ex8zrnc1u1of853t89rhjxp7ybx,JiaW1dc5,2020-0188,2020-06-16,10:15:28,10:31:47,NA,incomplete,26,color,1,right,Purple_Triangle_Grid_4.jpg,Green_Star_Dots_4.jpg,Purple_Plus_Chess_2.jpg,left,795.8349999971688,false,NA,true
JiaW1dc5,3wa2xvdzfpuo2njsi9v42o7kc6t6eh,3a0ex8zrnc1u1of853t89rhjxp7ybx,JiaW1dc5,2020-0188,2020-06-16,10:15:28,10:31:47,NA,incomplete,27,color,1,left,Red_Star_Dots_2.jpg,Red_Circle_Stripes_4.jpg,Blue_Triangle_Grid_2.jpg,left,766.8800000101328,true,NA,true
JiaW1dc5,3wa2xvdzfpuo2njsi9v42o7kc6t6eh,3a0ex8zrnc1u1of853t89rhjxp7ybx,JiaW1dc5,2020-0188,2020-06-16,10:15:28,10:31:47,NA,incomplete,28,color,1,left,Blue_Circle_Stripes_4.jpg,Blue_Star_Chess_2.jpg,Red_Triangle_Grid_4.jpg,left,630.1300000050105,true,NA,true
JiaW1dc5,3wa2xvdzfpuo2njsi9v42o7kc6t6eh,3a0ex8zrnc1u1of853t89rhjxp7ybx,JiaW1dc5,2020-0188,2020-06-16,10:15:28,10:31:47,NA,incomplete,29,color,1,left,Green_Triangle_Dots_2.jpg,Green_Plus_Stripes_3.jpg,Purple_Star_Chess_2.jpg,left,581.0700000147335,true,NA,true
JiaW1dc5,3wa2xvdzfpuo2njsi9v42o7kc6t6eh,3a0ex8zrnc1u1of853t89rhjxp7ybx,JiaW1dc5,2020-0188,2020-06-16,10:15:28,10:31:47,NA,incomplete,30,color,1,left,Green_Triangle_Chess_4.jpg,Green_Circle_Stripes_2.jpg,Blue_Star_Grid_4.jpg,left,885.9049999737181,true,NA,true
JiaW1dc5,3wa2xvdzfpuo2njsi9v42o7kc6t6eh,3a0ex8zrnc1u1of853t89rhjxp7ybx,JiaW1dc5,2020-0188,2020-06-16,10:15:28,10:31:47,NA,incomplete,31,color,0,left,Purple_Triangle_Chess_1.jpg,Purple_Circle_Stripes_3.jpg,Red_Star_Grid_1.jpg,left,593.6349999974482,true,NA,true
JiaW1dc5,3wa2xvdzfpuo2njsi9v42o7kc6t6eh,3a0ex8zrnc1u1of853t89rhjxp7ybx,JiaW1dc5,2020-0188,2020-06-16,10:15:28,10:31:47,NA,incomplete,32,color,1,left,Blue_Triangle_Stripes_3.jpg,Blue_Star_Dots_1.jpg,Purple_Plus_Grid_3.jpg,left,605.440000013914,true,NA,true
JiaW1dc5,3wa2xvdzfpuo2njsi9v42o7kc6t6eh,3a0ex8zrnc1u1of853t89rhjxp7ybx,JiaW1dc5,2020-0188,2020-06-16,10:15:28,10:31:47,NA,incomplete,33,color,1,left,Green_Star_Chess_4.jpg,Green_Triangle_Dots_2.jpg,Purple_Circle_Grid_4.jpg,left,615.7050000037998,true,NA,true
JiaW1dc5,3wa2xvdzfpuo2njsi9v42o7kc6t6eh,3a0ex8zrnc1u1of853t89rhjxp7ybx,JiaW1dc5,2020-0188,2020-06-16,10:15:28,10:31:47,NA,incomplete,34,color,0,right,Purple_Triangle_Stripes_2.jpg,Red_Plus_Dots_2.jpg,Purple_Star_Chess_4.jpg,right,571.7849999782629,true,NA,true
JiaW1dc5,3wa2xvdzfpuo2njsi9v42o7kc6t6eh,3a0ex8zrnc1u1of853t89rhjxp7ybx,JiaW1dc5,2020-0188,2020-06-16,10:15:28,10:31:47,NA,incomplete,35,color,1,right,Blue_Triangle_Dots_3.jpg,Red_Circle_Grid_3.jpg,Blue_Star_Chess_1.jpg,right,786.2599999643862,true,NA,true
JiaW1dc5,3wa2xvdzfpuo2njsi9v42o7kc6t6eh,3a0ex8zrnc1u1of853t89rhjxp7ybx,JiaW1dc5,2020-0188,2020-06-16,10:15:28,10:31:47,NA,incomplete,36,color,1,right,Purple_Plus_Chess_1.jpg,Red_Triangle_Stripes_1.jpg,Purple_Star_Grid_4.jpg,right,556.5900000510737,true,NA,true
JiaW1dc5,3wa2xvdzfpuo2njsi9v42o7kc6t6eh,3a0ex8zrnc1u1of853t89rhjxp7ybx,JiaW1dc5,2020-0188,2020-06-16,10:15:28,10:31:47,NA,incomplete,37,color,1,left,Red_Plus_Stripes_1.jpg,Red_Circle_Dots_4.jpg,Purple_Triangle_Grid_1.jpg,left,534.0150000411086,true,NA,true
JiaW1dc5,3wa2xvdzfpuo2njsi9v42o7kc6t6eh,3a0ex8zrnc1u1of853t89rhjxp7ybx,JiaW1dc5,2020-0188,2020-06-16,10:15:28,10:31:47,NA,incomplete,38,color,1,left,Blue_Plus_Chess_2.jpg,Blue_Star_Grid_3.jpg,Purple_Circle_Stripes_2.jpg,left,529.3149999924935,true,NA,true
JiaW1dc5,3wa2xvdzfpuo2njsi9v42o7kc6t6eh,3a0ex8zrnc1u1of853t89rhjxp7ybx,JiaW1dc5,2020-0188,2020-06-16,10:15:28,10:31:47,NA,incomplete,39,color,1,right,Blue_Circle_Stripes_3.jpg,Green_Star_Grid_3.jpg,Blue_Triangle_Dots_4.jpg,right,591.3500000024214,true,NA,true
JiaW1dc5,3wa2xvdzfpuo2njsi9v42o7kc6t6eh,3a0ex8zrnc1u1of853t89rhjxp7ybx,JiaW1dc5,2020-0188,2020-06-16,10:15:28,10:31:47,NA,incomplete,0,number,1,left,Green_Star_Dots_1.jpg,Red_Circle_Chess_1.jpg,Green_Triangle_Stripes_4.jpg,right,980.5649999761954,false,high,false
JiaW1dc5,3wa2xvdzfpuo2njsi9v42o7kc6t6eh,3a0ex8zrnc1u1of853t89rhjxp7ybx,JiaW1dc5,2020-0188,2020-06-16,10:15:28,10:31:47,NA,incomplete,1,number,1,left,Blue_Plus_Dots_4.jpg,Purple_Circle_Stripes_4.jpg,Blue_Star_Grid_3.jpg,right,675.6799999857321,false,high,false
JiaW1dc5,3wa2xvdzfpuo2njsi9v42o7kc6t6eh,3a0ex8zrnc1u1of853t89rhjxp7ybx,JiaW1dc5,2020-0188,2020-06-16,10:15:28,10:31:47,NA,incomplete,2,number,1,left,Blue_Plus_Chess_3.jpg,Green_Triangle_Grid_3.jpg,Blue_Star_Dots_2.jpg,right,643.3100000140257,false,high,false
JiaW1dc5,3wa2xvdzfpuo2njsi9v42o7kc6t6eh,3a0ex8zrnc1u1of853t89rhjxp7ybx,JiaW1dc5,2020-0188,2020-06-16,10:15:28,10:31:47,NA,incomplete,3,number,0,right,Green_Circle_Stripes_1.jpg,Green_Star_Dots_3.jpg,Blue_Triangle_Grid_1.jpg,right,794.3599999998696,true,high,false
JiaW1dc5,3wa2xvdzfpuo2njsi9v42o7kc6t6eh,3a0ex8zrnc1u1of853t89rhjxp7ybx,JiaW1dc5,2020-0188,2020-06-16,10:15:28,10:31:47,NA,incomplete,4,number,0,right,Purple_Circle_Dots_4.jpg,Purple_Triangle_Chess_3.jpg,Blue_Plus_Stripes_4.jpg,left,758.6100000189617,false,high,false
JiaW1dc5,3wa2xvdzfpuo2njsi9v42o7kc6t6eh,3a0ex8zrnc1u1of853t89rhjxp7ybx,JiaW1dc5,2020-0188,2020-06-16,10:15:28,10:31:47,NA,incomplete,5,number,1,right,Green_Plus_Dots_3.jpg,Green_Circle_Grid_1.jpg,Blue_Triangle_Stripes_3.jpg,left,1143.7499999883585,false,high,false
JiaW1dc5,3wa2xvdzfpuo2njsi9v42o7kc6t6eh,3a0ex8zrnc1u1of853t89rhjxp7ybx,JiaW1dc5,2020-0188,2020-06-16,10:15:28,10:31:47,NA,incomplete,6,number,1,right,Red_Circle_Chess_3.jpg,Red_Triangle_Dots_4.jpg,Purple_Star_Stripes_3.jpg,right,1099.7800000477582,true,high,false
JiaW1dc5,3wa2xvdzfpuo2njsi9v42o7kc6t6eh,3a0ex8zrnc1u1of853t89rhjxp7ybx,JiaW1dc5,2020-0188,2020-06-16,10:15:28,10:31:47,NA,incomplete,7,number,1,left,Blue_Plus_Stripes_2.jpg,Green_Circle_Dots_2.jpg,Blue_Triangle_Chess_4.jpg,left,1228.6200000089593,true,high,false
JiaW1dc5,3wa2xvdzfpuo2njsi9v42o7kc6t6eh,3a0ex8zrnc1u1of853t89rhjxp7ybx,JiaW1dc5,2020-0188,2020-06-16,10:15:28,10:31:47,NA,incomplete,8,number,0,left,Purple_Plus_Chess_3.jpg,Green_Circle_Stripes_3.jpg,Purple_Triangle_Grid_2.jpg,right,1258.4899999783374,false,high,false
JiaW1dc5,3wa2xvdzfpuo2njsi9v42o7kc6t6eh,3a0ex8zrnc1u1of853t89rhjxp7ybx,JiaW1dc5,2020-0188,2020-06-16,10:15:28,10:31:47,NA,incomplete,9,number,1,left,Purple_Plus_Grid_2.jpg,Red_Circle_Dots_2.jpg,Purple_Triangle_Stripes_4.jpg,right,847.200000018347,false,high,false
JiaW1dc5,3wa2xvdzfpuo2njsi9v42o7kc6t6eh,3a0ex8zrnc1u1of853t89rhjxp7ybx,JiaW1dc5,2020-0188,2020-06-16,10:15:28,10:31:47,NA,incomplete,10,color,0,right,Red_Circle_Dots_1.jpg,Green_Triangle_Grid_1.jpg,Red_Plus_Chess_3.jpg,left,877.5800000294112,false,high,false
JiaW1dc5,3wa2xvdzfpuo2njsi9v42o7kc6t6eh,3a0ex8zrnc1u1of853t89rhjxp7ybx,JiaW1dc5,2020-0188,2020-06-16,10:15:28,10:31:47,NA,incomplete,11,color,1,left,Red_Star_Dots_1.jpg,Red_Triangle_Chess_4.jpg,Green_Circle_Stripes_1.jpg,right,670.5799999763258,false,high,false
JiaW1dc5,3wa2xvdzfpuo2njsi9v42o7kc6t6eh,3a0ex8zrnc1u1of853t89rhjxp7ybx,JiaW1dc5,2020-0188,2020-06-16,10:15:28,10:31:47,NA,incomplete,12,color,1,left,Green_Star_Chess_3.jpg,Green_Plus_Stripes_4.jpg,Purple_Circle_Dots_3.jpg,right,919.9500000104308,false,high,false
JiaW1dc5,3wa2xvdzfpuo2njsi9v42o7kc6t6eh,3a0ex8zrnc1u1of853t89rhjxp7ybx,JiaW1dc5,2020-0188,2020-06-16,10:15:28,10:31:47,NA,incomplete,13,color,1,left,Purple_Circle_Dots_1.jpg,Purple_Star_Chess_4.jpg,Green_Triangle_Stripes_1.jpg,left,847.4200000055134,true,high,false
JiaW1dc5,3wa2xvdzfpuo2njsi9v42o7kc6t6eh,3a0ex8zrnc1u1of853t89rhjxp7ybx,JiaW1dc5,2020-0188,2020-06-16,10:15:28,10:31:47,NA,incomplete,14,color,1,right,Blue_Circle_Chess_1.jpg,Green_Triangle_Dots_1.jpg,Blue_Star_Stripes_3.jpg,right,799.6849999763072,true,high,false
JiaW1dc5,3wa2xvdzfpuo2njsi9v42o7kc6t6eh,3a0ex8zrnc1u1of853t89rhjxp7ybx,JiaW1dc5,2020-0188,2020-06-16,10:15:28,10:31:47,NA,incomplete,15,color,1,right,Green_Star_Dots_3.jpg,Purple_Triangle_Stripes_3.jpg,Green_Plus_Grid_4.jpg,right,460.94000001903623,true,high,false
JiaW1dc5,3wa2xvdzfpuo2njsi9v42o7kc6t6eh,3a0ex8zrnc1u1of853t89rhjxp7ybx,JiaW1dc5,2020-0188,2020-06-16,10:15:28,10:31:47,NA,incomplete,16,color,0,left,Red_Star_Grid_1.jpg,Red_Plus_Chess_3.jpg,Green_Circle_Stripes_1.jpg,left,674.814999976661,true,high,false
JiaW1dc5,3wa2xvdzfpuo2njsi9v42o7kc6t6eh,3a0ex8zrnc1u1of853t89rhjxp7ybx,JiaW1dc5,2020-0188,2020-06-16,10:15:28,10:31:47,NA,incomplete,17,color,1,left,Green_Circle_Stripes_4.jpg,Green_Triangle_Dots_1.jpg,Purple_Plus_Chess_4.jpg,left,581.8950000102632,true,high,false
JiaW1dc5,3wa2xvdzfpuo2njsi9v42o7kc6t6eh,3a0ex8zrnc1u1of853t89rhjxp7ybx,JiaW1dc5,2020-0188,2020-06-16,10:15:28,10:31:47,NA,incomplete,18,color,1,right,Blue_Star_Grid_1.jpg,Red_Plus_Stripes_1.jpg,Blue_Triangle_Dots_4.jpg,right,500.02500001573935,true,high,false
JiaW1dc5,3wa2xvdzfpuo2njsi9v42o7kc6t6eh,3a0ex8zrnc1u1of853t89rhjxp7ybx,JiaW1dc5,2020-0188,2020-06-16,10:15:28,10:31:47,NA,incomplete,19,color,1,right,Green_Plus_Dots_1.jpg,Red_Triangle_Grid_1.jpg,Green_Star_Chess_2.jpg,right,540.6849999562837,true,high,false
JiaW1dc5,3wa2xvdzfpuo2njsi9v42o7kc6t6eh,3a0ex8zrnc1u1of853t89rhjxp7ybx,JiaW1dc5,2020-0188,2020-06-16,10:15:28,10:31:47,NA,incomplete,20,number,1,left,Red_Circle_Dots_2.jpg,Purple_Plus_Chess_2.jpg,Red_Triangle_Grid_3.jpg,right,558.2549999817275,false,high,false
JiaW1dc5,3wa2xvdzfpuo2njsi9v42o7kc6t6eh,3a0ex8zrnc1u1of853t89rhjxp7ybx,JiaW1dc5,2020-0188,2020-06-16,10:15:28,10:31:47,NA,incomplete,21,number,1,right,Purple_Triangle_Chess_1.jpg,Purple_Circle_Dots_2.jpg,Green_Plus_Grid_1.jpg,left,486.6799999726936,false,high,false
JiaW1dc5,3wa2xvdzfpuo2njsi9v42o7kc6t6eh,3a0ex8zrnc1u1of853t89rhjxp7ybx,JiaW1dc5,2020-0188,2020-06-16,10:15:28,10:31:47,NA,incomplete,22,number,1,left,Green_Circle_Stripes_3.jpg,Blue_Star_Grid_3.jpg,Green_Triangle_Dots_2.jpg,left,891.1049999878742,true,high,false
JiaW1dc5,3wa2xvdzfpuo2njsi9v42o7kc6t6eh,3a0ex8zrnc1u1of853t89rhjxp7ybx,JiaW1dc5,2020-0188,2020-06-16,10:15:28,10:31:47,NA,incomplete,23,number,1,left,Red_Star_Stripes_1.jpg,Purple_Circle_Chess_1.jpg,Red_Triangle_Grid_4.jpg,left,658.3800000371411,true,high,false
JiaW1dc5,3wa2xvdzfpuo2njsi9v42o7kc6t6eh,3a0ex8zrnc1u1of853t89rhjxp7ybx,JiaW1dc5,2020-0188,2020-06-16,10:15:28,10:31:47,NA,incomplete,24,number,1,left,Red_Circle_Chess_1.jpg,Blue_Plus_Stripes_1.jpg,Red_Triangle_Dots_2.jpg,left,906.8499999702908,true,high,false
JiaW1dc5,3wa2xvdzfpuo2njsi9v42o7kc6t6eh,3a0ex8zrnc1u1of853t89rhjxp7ybx,JiaW1dc5,2020-0188,2020-06-16,10:15:28,10:31:47,NA,incomplete,25,number,0,right,Red_Triangle_Stripes_3.jpg,Red_Plus_Dots_2.jpg,Green_Circle_Grid_3.jpg,right,841.8149999924935,true,high,false
JiaW1dc5,3wa2xvdzfpuo2njsi9v42o7kc6t6eh,3a0ex8zrnc1u1of853t89rhjxp7ybx,JiaW1dc5,2020-0188,2020-06-16,10:15:28,10:31:47,NA,incomplete,26,number,1,left,Purple_Triangle_Chess_4.jpg,Red_Circle_Stripes_4.jpg,Purple_Plus_Grid_1.jpg,left,662.9749999847263,true,high,false
JiaW1dc5,3wa2xvdzfpuo2njsi9v42o7kc6t6eh,3a0ex8zrnc1u1of853t89rhjxp7ybx,JiaW1dc5,2020-0188,2020-06-16,10:15:28,10:31:47,NA,incomplete,27,number,0,left,Red_Plus_Stripes_2.jpg,Green_Triangle_Dots_2.jpg,Red_Circle_Grid_1.jpg,left,734.2799999751151,true,high,false
JiaW1dc5,3wa2xvdzfpuo2njsi9v42o7kc6t6eh,3a0ex8zrnc1u1of853t89rhjxp7ybx,JiaW1dc5,2020-0188,2020-06-16,10:15:28,10:31:47,NA,incomplete,28,number,0,right,Blue_Circle_Dots_3.jpg,Blue_Plus_Stripes_1.jpg,Red_Star_Grid_3.jpg,right,663.4999999660067,true,high,false
JiaW1dc5,3wa2xvdzfpuo2njsi9v42o7kc6t6eh,3a0ex8zrnc1u1of853t89rhjxp7ybx,JiaW1dc5,2020-0188,2020-06-16,10:15:28,10:31:47,NA,incomplete,29,number,1,right,Red_Plus_Stripes_3.jpg,Red_Triangle_Dots_4.jpg,Blue_Circle_Grid_3.jpg,right,913.7249999912456,true,high,false
JiaW1dc5,3wa2xvdzfpuo2njsi9v42o7kc6t6eh,3a0ex8zrnc1u1of853t89rhjxp7ybx,JiaW1dc5,2020-0188,2020-06-16,10:15:28,10:31:47,NA,incomplete,30,color,1,left,Blue_Plus_Stripes_2.jpg,Blue_Triangle_Grid_1.jpg,Purple_Star_Chess_2.jpg,right,963.3800000301562,false,high,false
JiaW1dc5,3wa2xvdzfpuo2njsi9v42o7kc6t6eh,3a0ex8zrnc1u1of853t89rhjxp7ybx,JiaW1dc5,2020-0188,2020-06-16,10:15:28,10:31:47,NA,incomplete,31,color,0,right,Red_Triangle_Dots_1.jpg,Green_Star_Chess_1.jpg,Red_Circle_Grid_3.jpg,right,1276.9049999769777,true,high,false
JiaW1dc5,3wa2xvdzfpuo2njsi9v42o7kc6t6eh,3a0ex8zrnc1u1of853t89rhjxp7ybx,JiaW1dc5,2020-0188,2020-06-16,10:15:28,10:31:47,NA,incomplete,32,color,1,right,Green_Circle_Dots_4.jpg,Red_Plus_Grid_4.jpg,Green_Star_Chess_1.jpg,left,705.004999996163,false,high,false
JiaW1dc5,3wa2xvdzfpuo2njsi9v42o7kc6t6eh,3a0ex8zrnc1u1of853t89rhjxp7ybx,JiaW1dc5,2020-0188,2020-06-16,10:15:28,10:31:47,NA,incomplete,33,color,0,right,Green_Star_Grid_2.jpg,Blue_Circle_Dots_2.jpg,Green_Triangle_Chess_3.jpg,left,729.8599999630824,false,high,false
JiaW1dc5,3wa2xvdzfpuo2njsi9v42o7kc6t6eh,3a0ex8zrnc1u1of853t89rhjxp7ybx,JiaW1dc5,2020-0188,2020-06-16,10:15:28,10:31:47,NA,incomplete,34,color,1,left,Purple_Triangle_Grid_3.jpg,Purple_Circle_Stripes_4.jpg,Green_Star_Chess_3.jpg,left,1237.6400000066496,true,high,false
JiaW1dc5,3wa2xvdzfpuo2njsi9v42o7kc6t6eh,3a0ex8zrnc1u1of853t89rhjxp7ybx,JiaW1dc5,2020-0188,2020-06-16,10:15:28,10:31:47,NA,incomplete,35,color,1,right,Blue_Triangle_Chess_2.jpg,Purple_Star_Grid_2.jpg,Blue_Plus_Dots_4.jpg,right,1138.840000028722,true,high,false
JiaW1dc5,3wa2xvdzfpuo2njsi9v42o7kc6t6eh,3a0ex8zrnc1u1of853t89rhjxp7ybx,JiaW1dc5,2020-0188,2020-06-16,10:15:28,10:31:47,NA,incomplete,36,color,1,left,Green_Triangle_Stripes_2.jpg,Green_Star_Grid_4.jpg,Blue_Circle_Dots_2.jpg,right,720.0200000079349,false,high,false
JiaW1dc5,3wa2xvdzfpuo2njsi9v42o7kc6t6eh,3a0ex8zrnc1u1of853t89rhjxp7ybx,JiaW1dc5,2020-0188,2020-06-16,10:15:28,10:31:47,NA,incomplete,37,color,1,left,Purple_Circle_Stripes_1.jpg,Purple_Triangle_Chess_2.jpg,Red_Star_Grid_1.jpg,left,734.0899999835528,true,high,false
JiaW1dc5,3wa2xvdzfpuo2njsi9v42o7kc6t6eh,3a0ex8zrnc1u1of853t89rhjxp7ybx,JiaW1dc5,2020-0188,2020-06-16,10:15:28,10:31:47,NA,incomplete,38,color,1,right,Purple_Circle_Chess_4.jpg,Green_Plus_Dots_4.jpg,Purple_Triangle_Stripes_1.jpg,right,957.9850000445731,true,high,false
JiaW1dc5,3wa2xvdzfpuo2njsi9v42o7kc6t6eh,3a0ex8zrnc1u1of853t89rhjxp7ybx,JiaW1dc5,2020-0188,2020-06-16,10:15:28,10:31:47,NA,incomplete,39,color,1,right,Red_Star_Stripes_4.jpg,Blue_Circle_Grid_4.jpg,Red_Triangle_Chess_3.jpg,right,600.5550000118092,true,high,false
JiaW1dc5,3wa2xvdzfpuo2njsi9v42o7kc6t6eh,3a0ex8zrnc1u1of853t89rhjxp7ybx,JiaW1dc5,2020-0188,2020-06-16,10:15:28,10:31:47,NA,incomplete,40,number,1,right,Red_Circle_Chess_2.jpg,Red_Star_Stripes_4.jpg,Purple_Plus_Grid_2.jpg,left,994.1150000086054,false,high,false
JiaW1dc5,3wa2xvdzfpuo2njsi9v42o7kc6t6eh,3a0ex8zrnc1u1of853t89rhjxp7ybx,JiaW1dc5,2020-0188,2020-06-16,10:15:28,10:31:47,NA,incomplete,41,number,0,right,Purple_Circle_Grid_1.jpg,Purple_Plus_Dots_3.jpg,Green_Triangle_Stripes_1.jpg,left,557.1299999719486,false,high,false
JiaW1dc5,3wa2xvdzfpuo2njsi9v42o7kc6t6eh,3a0ex8zrnc1u1of853t89rhjxp7ybx,JiaW1dc5,2020-0188,2020-06-16,10:15:28,10:31:47,NA,incomplete,42,number,1,right,Purple_Plus_Dots_1.jpg,Purple_Triangle_Chess_4.jpg,Blue_Star_Grid_1.jpg,left,500.83999999333173,false,high,false
JiaW1dc5,3wa2xvdzfpuo2njsi9v42o7kc6t6eh,3a0ex8zrnc1u1of853t89rhjxp7ybx,JiaW1dc5,2020-0188,2020-06-16,10:15:28,10:31:47,NA,incomplete,43,number,1,right,Blue_Plus_Grid_1.jpg,Blue_Star_Chess_4.jpg,Purple_Triangle_Dots_1.jpg,left,562.0099999941885,false,high,false
JiaW1dc5,3wa2xvdzfpuo2njsi9v42o7kc6t6eh,3a0ex8zrnc1u1of853t89rhjxp7ybx,JiaW1dc5,2020-0188,2020-06-16,10:15:28,10:31:47,NA,incomplete,44,number,1,right,Purple_Plus_Dots_2.jpg,Purple_Star_Grid_1.jpg,Green_Circle_Stripes_2.jpg,right,1011.7150000296533,true,high,false
JiaW1dc5,3wa2xvdzfpuo2njsi9v42o7kc6t6eh,3a0ex8zrnc1u1of853t89rhjxp7ybx,JiaW1dc5,2020-0188,2020-06-16,10:15:28,10:31:47,NA,incomplete,45,number,1,right,Green_Plus_Dots_2.jpg,Green_Star_Stripes_1.jpg,Red_Triangle_Grid_2.jpg,right,865.5300000100397,true,high,false
JiaW1dc5,3wa2xvdzfpuo2njsi9v42o7kc6t6eh,3a0ex8zrnc1u1of853t89rhjxp7ybx,JiaW1dc5,2020-0188,2020-06-16,10:15:28,10:31:47,NA,incomplete,46,number,1,left,Purple_Triangle_Dots_4.jpg,Red_Plus_Stripes_4.jpg,Purple_Star_Grid_2.jpg,left,1002.7100000297651,true,high,false
JiaW1dc5,3wa2xvdzfpuo2njsi9v42o7kc6t6eh,3a0ex8zrnc1u1of853t89rhjxp7ybx,JiaW1dc5,2020-0188,2020-06-16,10:15:28,10:31:47,NA,incomplete,47,number,1,left,Green_Circle_Dots_1.jpg,Red_Triangle_Chess_1.jpg,Green_Star_Grid_4.jpg,left,672.179999994114,true,high,false
JiaW1dc5,3wa2xvdzfpuo2njsi9v42o7kc6t6eh,3a0ex8zrnc1u1of853t89rhjxp7ybx,JiaW1dc5,2020-0188,2020-06-16,10:15:28,10:31:47,NA,incomplete,48,number,1,right,Blue_Triangle_Grid_3.jpg,Blue_Plus_Dots_2.jpg,Red_Circle_Chess_3.jpg,right,1118.7149999896064,true,high,false
JiaW1dc5,3wa2xvdzfpuo2njsi9v42o7kc6t6eh,3a0ex8zrnc1u1of853t89rhjxp7ybx,JiaW1dc5,2020-0188,2020-06-16,10:15:28,10:31:47,NA,incomplete,49,number,1,left,Blue_Triangle_Stripes_1.jpg,Purple_Circle_Chess_1.jpg,Blue_Plus_Grid_2.jpg,left,662.175000004936,true,high,false
JiaW1dc5,3wa2xvdzfpuo2njsi9v42o7kc6t6eh,3a0ex8zrnc1u1of853t89rhjxp7ybx,JiaW1dc5,2020-0188,2020-06-16,10:15:28,10:31:47,NA,incomplete,50,color,1,right,Purple_Star_Chess_2.jpg,Green_Plus_Stripes_2.jpg,Purple_Triangle_Dots_4.jpg,left,786.0649999929592,false,high,false
JiaW1dc5,3wa2xvdzfpuo2njsi9v42o7kc6t6eh,3a0ex8zrnc1u1of853t89rhjxp7ybx,JiaW1dc5,2020-0188,2020-06-16,10:15:28,10:31:47,NA,incomplete,51,color,1,left,Red_Plus_Stripes_3.jpg,Red_Circle_Grid_4.jpg,Purple_Triangle_Chess_3.jpg,right,962.9399999976158,false,high,false
JiaW1dc5,3wa2xvdzfpuo2njsi9v42o7kc6t6eh,3a0ex8zrnc1u1of853t89rhjxp7ybx,JiaW1dc5,2020-0188,2020-06-16,10:15:28,10:31:47,NA,incomplete,52,color,1,right,Purple_Plus_Dots_2.jpg,Red_Circle_Grid_2.jpg,Purple_Triangle_Stripes_1.jpg,right,878.1449999660254,true,high,false
JiaW1dc5,3wa2xvdzfpuo2njsi9v42o7kc6t6eh,3a0ex8zrnc1u1of853t89rhjxp7ybx,JiaW1dc5,2020-0188,2020-06-16,10:15:28,10:31:47,NA,incomplete,53,color,0,right,Green_Plus_Dots_3.jpg,Red_Star_Grid_3.jpg,Green_Triangle_Stripes_2.jpg,right,1038.6700000381097,true,high,false
JiaW1dc5,3wa2xvdzfpuo2njsi9v42o7kc6t6eh,3a0ex8zrnc1u1of853t89rhjxp7ybx,JiaW1dc5,2020-0188,2020-06-16,10:15:28,10:31:47,NA,incomplete,54,color,0,right,Blue_Star_Dots_1.jpg,Purple_Circle_Chess_1.jpg,Blue_Plus_Grid_4.jpg,left,819.3749999627471,false,high,false
JiaW1dc5,3wa2xvdzfpuo2njsi9v42o7kc6t6eh,3a0ex8zrnc1u1of853t89rhjxp7ybx,JiaW1dc5,2020-0188,2020-06-16,10:15:28,10:31:47,NA,incomplete,55,color,1,right,Red_Circle_Grid_2.jpg,Purple_Triangle_Chess_2.jpg,Red_Plus_Dots_4.jpg,left,704.859999998007,false,high,false
JiaW1dc5,3wa2xvdzfpuo2njsi9v42o7kc6t6eh,3a0ex8zrnc1u1of853t89rhjxp7ybx,JiaW1dc5,2020-0188,2020-06-16,10:15:28,10:31:47,NA,incomplete,56,color,0,left,Red_Star_Grid_2.jpg,Red_Plus_Dots_3.jpg,Purple_Circle_Chess_2.jpg,left,918.6899999622256,true,high,false
JiaW1dc5,3wa2xvdzfpuo2njsi9v42o7kc6t6eh,3a0ex8zrnc1u1of853t89rhjxp7ybx,JiaW1dc5,2020-0188,2020-06-16,10:15:28,10:31:47,NA,incomplete,57,color,1,right,Green_Triangle_Stripes_1.jpg,Red_Circle_Chess_1.jpg,Green_Star_Grid_3.jpg,right,707.410000031814,true,high,false
JiaW1dc5,3wa2xvdzfpuo2njsi9v42o7kc6t6eh,3a0ex8zrnc1u1of853t89rhjxp7ybx,JiaW1dc5,2020-0188,2020-06-16,10:15:28,10:31:47,NA,incomplete,58,color,1,right,Purple_Circle_Stripes_2.jpg,Blue_Triangle_Chess_2.jpg,Purple_Plus_Dots_3.jpg,right,740.4649999807589,true,high,false
JiaW1dc5,3wa2xvdzfpuo2njsi9v42o7kc6t6eh,3a0ex8zrnc1u1of853t89rhjxp7ybx,JiaW1dc5,2020-0188,2020-06-16,10:15:28,10:31:47,NA,incomplete,59,color,1,left,Purple_Star_Chess_2.jpg,Purple_Circle_Grid_3.jpg,Red_Triangle_Dots_2.jpg,left,857.6449999818578,true,high,false
JiaW1dc5,3wa2xvdzfpuo2njsi9v42o7kc6t6eh,3a0ex8zrnc1u1of853t89rhjxp7ybx,JiaW1dc5,2020-0188,2020-06-16,10:15:28,10:31:47,NA,incomplete,60,number,0,right,Purple_Circle_Stripes_1.jpg,Purple_Triangle_Grid_2.jpg,Blue_Star_Chess_1.jpg,left,655.4500000202097,false,high,false
JiaW1dc5,3wa2xvdzfpuo2njsi9v42o7kc6t6eh,3a0ex8zrnc1u1of853t89rhjxp7ybx,JiaW1dc5,2020-0188,2020-06-16,10:15:28,10:31:47,NA,incomplete,61,number,1,left,Red_Circle_Chess_2.jpg,Blue_Triangle_Dots_2.jpg,Red_Plus_Stripes_4.jpg,right,1222.8450000402518,false,high,false
JiaW1dc5,3wa2xvdzfpuo2njsi9v42o7kc6t6eh,3a0ex8zrnc1u1of853t89rhjxp7ybx,JiaW1dc5,2020-0188,2020-06-16,10:15:28,10:31:47,NA,incomplete,62,number,1,right,Blue_Plus_Grid_4.jpg,Blue_Star_Stripes_1.jpg,Red_Circle_Chess_4.jpg,right,788.3399999700487,true,high,false
JiaW1dc5,3wa2xvdzfpuo2njsi9v42o7kc6t6eh,3a0ex8zrnc1u1of853t89rhjxp7ybx,JiaW1dc5,2020-0188,2020-06-16,10:15:28,10:31:47,NA,incomplete,63,number,1,left,Blue_Triangle_Grid_1.jpg,Red_Circle_Stripes_1.jpg,Blue_Plus_Dots_3.jpg,left,680.4500000434928,true,high,false
JiaW1dc5,3wa2xvdzfpuo2njsi9v42o7kc6t6eh,3a0ex8zrnc1u1of853t89rhjxp7ybx,JiaW1dc5,2020-0188,2020-06-16,10:15:28,10:31:47,NA,incomplete,64,number,1,left,Purple_Circle_Chess_4.jpg,Blue_Star_Stripes_4.jpg,Purple_Triangle_Dots_2.jpg,left,848.9750000298955,true,high,false
JiaW1dc5,3wa2xvdzfpuo2njsi9v42o7kc6t6eh,3a0ex8zrnc1u1of853t89rhjxp7ybx,JiaW1dc5,2020-0188,2020-06-16,10:15:28,10:31:47,NA,incomplete,65,number,0,right,Purple_Triangle_Stripes_4.jpg,Purple_Plus_Chess_2.jpg,Green_Circle_Dots_4.jpg,right,712.2199999867007,true,high,false
JiaW1dc5,3wa2xvdzfpuo2njsi9v42o7kc6t6eh,3a0ex8zrnc1u1of853t89rhjxp7ybx,JiaW1dc5,2020-0188,2020-06-16,10:15:28,10:31:47,NA,incomplete,66,number,1,left,Red_Triangle_Grid_1.jpg,Green_Plus_Dots_1.jpg,Red_Circle_Stripes_2.jpg,right,898.090000031516,false,high,false
JiaW1dc5,3wa2xvdzfpuo2njsi9v42o7kc6t6eh,3a0ex8zrnc1u1of853t89rhjxp7ybx,JiaW1dc5,2020-0188,2020-06-16,10:15:28,10:31:47,NA,incomplete,67,number,1,left,Blue_Plus_Stripes_3.jpg,Green_Circle_Grid_3.jpg,Blue_Triangle_Chess_1.jpg,left,680.8200000086799,true,high,false
JiaW1dc5,3wa2xvdzfpuo2njsi9v42o7kc6t6eh,3a0ex8zrnc1u1of853t89rhjxp7ybx,JiaW1dc5,2020-0188,2020-06-16,10:15:28,10:31:47,NA,incomplete,68,number,1,right,Purple_Circle_Dots_1.jpg,Purple_Star_Chess_3.jpg,Red_Plus_Grid_1.jpg,right,1125.0850000069477,true,high,false
JiaW1dc5,3wa2xvdzfpuo2njsi9v42o7kc6t6eh,3a0ex8zrnc1u1of853t89rhjxp7ybx,JiaW1dc5,2020-0188,2020-06-16,10:15:28,10:31:47,NA,incomplete,69,number,1,left,Purple_Triangle_Grid_3.jpg,Green_Plus_Chess_3.jpg,Purple_Circle_Dots_2.jpg,right,958.6700000218116,false,high,false
JiaW1dc5,3wa2xvdzfpuo2njsi9v42o7kc6t6eh,3a0ex8zrnc1u1of853t89rhjxp7ybx,JiaW1dc5,2020-0188,2020-06-16,10:15:28,10:31:47,NA,incomplete,70,color,0,right,Blue_Triangle_Chess_4.jpg,Green_Circle_Stripes_4.jpg,Blue_Plus_Dots_2.jpg,left,961.5149999735877,false,high,false
JiaW1dc5,3wa2xvdzfpuo2njsi9v42o7kc6t6eh,3a0ex8zrnc1u1of853t89rhjxp7ybx,JiaW1dc5,2020-0188,2020-06-16,10:15:28,10:31:47,NA,incomplete,71,color,1,right,Purple_Circle_Chess_4.jpg,Green_Plus_Dots_4.jpg,Purple_Star_Grid_2.jpg,left,1020.2349999453872,false,high,false
JiaW1dc5,3wa2xvdzfpuo2njsi9v42o7kc6t6eh,3a0ex8zrnc1u1of853t89rhjxp7ybx,JiaW1dc5,2020-0188,2020-06-16,10:15:28,10:31:47,NA,incomplete,72,color,1,left,Red_Triangle_Dots_4.jpg,Red_Star_Stripes_3.jpg,Green_Plus_Chess_4.jpg,right,984.8999999812804,false,high,false
JiaW1dc5,3wa2xvdzfpuo2njsi9v42o7kc6t6eh,3a0ex8zrnc1u1of853t89rhjxp7ybx,JiaW1dc5,2020-0188,2020-06-16,10:15:28,10:31:47,NA,incomplete,73,color,1,left,Red_Plus_Grid_3.jpg,Red_Star_Stripes_1.jpg,Green_Circle_Dots_3.jpg,right,703.7149999523535,false,high,false
JiaW1dc5,3wa2xvdzfpuo2njsi9v42o7kc6t6eh,3a0ex8zrnc1u1of853t89rhjxp7ybx,JiaW1dc5,2020-0188,2020-06-16,10:15:28,10:31:47,NA,incomplete,74,color,1,right,Red_Circle_Dots_1.jpg,Purple_Triangle_Chess_1.jpg,Red_Star_Grid_2.jpg,right,756.0049999738112,true,high,false
JiaW1dc5,3wa2xvdzfpuo2njsi9v42o7kc6t6eh,3a0ex8zrnc1u1of853t89rhjxp7ybx,JiaW1dc5,2020-0188,2020-06-16,10:15:28,10:31:47,NA,incomplete,75,color,1,left,Red_Circle_Dots_4.jpg,Red_Star_Chess_3.jpg,Green_Plus_Grid_4.jpg,left,779.3350000283681,true,high,false
JiaW1dc5,3wa2xvdzfpuo2njsi9v42o7kc6t6eh,3a0ex8zrnc1u1of853t89rhjxp7ybx,JiaW1dc5,2020-0188,2020-06-16,10:15:28,10:31:47,NA,incomplete,76,color,0,right,Green_Circle_Grid_1.jpg,Purple_Plus_Stripes_1.jpg,Green_Star_Dots_2.jpg,right,926.9750000094064,true,high,false
JiaW1dc5,3wa2xvdzfpuo2njsi9v42o7kc6t6eh,3a0ex8zrnc1u1of853t89rhjxp7ybx,JiaW1dc5,2020-0188,2020-06-16,10:15:28,10:31:47,NA,incomplete,77,color,1,left,Green_Plus_Chess_4.jpg,Green_Circle_Dots_2.jpg,Red_Star_Stripes_4.jpg,left,768.5449999989942,true,high,false
JiaW1dc5,3wa2xvdzfpuo2njsi9v42o7kc6t6eh,3a0ex8zrnc1u1of853t89rhjxp7ybx,JiaW1dc5,2020-0188,2020-06-16,10:15:28,10:31:47,NA,incomplete,78,color,1,left,Red_Circle_Chess_1.jpg,Red_Star_Grid_4.jpg,Green_Plus_Stripes_1.jpg,left,517.2050000401214,true,high,false
JiaW1dc5,3wa2xvdzfpuo2njsi9v42o7kc6t6eh,3a0ex8zrnc1u1of853t89rhjxp7ybx,JiaW1dc5,2020-0188,2020-06-16,10:15:28,10:31:47,NA,incomplete,79,color,1,right,Red_Star_Stripes_4.jpg,Blue_Circle_Chess_4.jpg,Red_Triangle_Dots_1.jpg,right,644.8299999465235,true,high,false
JiaW1dc5,3wa2xvdzfpuo2njsi9v42o7kc6t6eh,3a0ex8zrnc1u1of853t89rhjxp7ybx,JiaW1dc5,2020-0188,2020-06-16,10:15:28,10:31:47,NA,incomplete,80,number,1,left,Red_Star_Chess_2.jpg,Blue_Plus_Stripes_2.jpg,Red_Circle_Dots_3.jpg,right,548.0099999695085,false,high,false
JiaW1dc5,3wa2xvdzfpuo2njsi9v42o7kc6t6eh,3a0ex8zrnc1u1of853t89rhjxp7ybx,JiaW1dc5,2020-0188,2020-06-16,10:15:28,10:31:47,NA,incomplete,81,number,1,right,Purple_Plus_Dots_4.jpg,Purple_Circle_Chess_3.jpg,Green_Star_Grid_4.jpg,left,803.5900000249967,false,high,false
JiaW1dc5,3wa2xvdzfpuo2njsi9v42o7kc6t6eh,3a0ex8zrnc1u1of853t89rhjxp7ybx,JiaW1dc5,2020-0188,2020-06-16,10:15:28,10:31:47,NA,incomplete,82,number,1,right,Purple_Plus_Chess_3.jpg,Purple_Star_Dots_4.jpg,Green_Triangle_Stripes_3.jpg,right,992.7700000116602,true,high,false
JiaW1dc5,3wa2xvdzfpuo2njsi9v42o7kc6t6eh,3a0ex8zrnc1u1of853t89rhjxp7ybx,JiaW1dc5,2020-0188,2020-06-16,10:15:28,10:31:47,NA,incomplete,83,number,1,right,Blue_Circle_Grid_2.jpg,Blue_Star_Stripes_4.jpg,Red_Triangle_Dots_2.jpg,left,959.4250000081956,false,high,false
JiaW1dc5,3wa2xvdzfpuo2njsi9v42o7kc6t6eh,3a0ex8zrnc1u1of853t89rhjxp7ybx,JiaW1dc5,2020-0188,2020-06-16,10:15:28,10:31:47,NA,incomplete,84,number,1,left,Blue_Triangle_Stripes_2.jpg,Purple_Plus_Chess_2.jpg,Blue_Star_Grid_3.jpg,left,742.6000000559725,true,high,false
JiaW1dc5,3wa2xvdzfpuo2njsi9v42o7kc6t6eh,3a0ex8zrnc1u1of853t89rhjxp7ybx,JiaW1dc5,2020-0188,2020-06-16,10:15:28,10:31:47,NA,incomplete,85,number,1,left,Purple_Plus_Chess_4.jpg,Green_Triangle_Dots_4.jpg,Purple_Circle_Stripes_3.jpg,left,813.2750000222586,true,high,false
JiaW1dc5,3wa2xvdzfpuo2njsi9v42o7kc6t6eh,3a0ex8zrnc1u1of853t89rhjxp7ybx,JiaW1dc5,2020-0188,2020-06-16,10:15:28,10:31:47,NA,incomplete,86,number,1,left,Red_Plus_Chess_3.jpg,Purple_Star_Stripes_3.jpg,Red_Triangle_Dots_4.jpg,left,737.009999982547,true,high,false
JiaW1dc5,3wa2xvdzfpuo2njsi9v42o7kc6t6eh,3a0ex8zrnc1u1of853t89rhjxp7ybx,JiaW1dc5,2020-0188,2020-06-16,10:15:28,10:31:47,NA,incomplete,87,number,1,left,Purple_Star_Chess_4.jpg,Red_Triangle_Grid_4.jpg,Purple_Circle_Stripes_1.jpg,left,731.3150000409223,true,high,false
JiaW1dc5,3wa2xvdzfpuo2njsi9v42o7kc6t6eh,3a0ex8zrnc1u1of853t89rhjxp7ybx,JiaW1dc5,2020-0188,2020-06-16,10:15:28,10:31:47,NA,incomplete,88,number,1,left,Purple_Star_Chess_1.jpg,Green_Plus_Grid_1.jpg,Purple_Triangle_Dots_3.jpg,left,619.6549999876879,true,high,false
JiaW1dc5,3wa2xvdzfpuo2njsi9v42o7kc6t6eh,3a0ex8zrnc1u1of853t89rhjxp7ybx,JiaW1dc5,2020-0188,2020-06-16,10:15:28,10:31:47,NA,incomplete,89,number,1,right,Purple_Star_Dots_4.jpg,Purple_Triangle_Chess_1.jpg,Red_Circle_Stripes_4.jpg,right,629.3249999871477,true,high,false
JiaW1dc5,3wa2xvdzfpuo2njsi9v42o7kc6t6eh,3a0ex8zrnc1u1of853t89rhjxp7ybx,JiaW1dc5,2020-0188,2020-06-16,10:15:28,10:31:47,NA,incomplete,90,color,1,right,Purple_Triangle_Chess_1.jpg,Red_Plus_Dots_1.jpg,Purple_Circle_Stripes_2.jpg,left,593.2400000165217,false,high,false
JiaW1dc5,3wa2xvdzfpuo2njsi9v42o7kc6t6eh,3a0ex8zrnc1u1of853t89rhjxp7ybx,JiaW1dc5,2020-0188,2020-06-16,10:15:28,10:31:47,NA,incomplete,91,color,1,right,Blue_Triangle_Chess_4.jpg,Green_Plus_Grid_4.jpg,Blue_Circle_Stripes_1.jpg,right,899.585000006482,true,high,false
JiaW1dc5,3wa2xvdzfpuo2njsi9v42o7kc6t6eh,3a0ex8zrnc1u1of853t89rhjxp7ybx,JiaW1dc5,2020-0188,2020-06-16,10:15:28,10:31:47,NA,incomplete,92,color,1,left,Blue_Circle_Stripes_4.jpg,Blue_Star_Dots_1.jpg,Green_Plus_Chess_4.jpg,right,978.9549999986775,false,high,false
JiaW1dc5,3wa2xvdzfpuo2njsi9v42o7kc6t6eh,3a0ex8zrnc1u1of853t89rhjxp7ybx,JiaW1dc5,2020-0188,2020-06-16,10:15:28,10:31:47,NA,incomplete,93,color,1,left,Purple_Circle_Grid_3.jpg,Purple_Plus_Chess_1.jpg,Green_Star_Dots_3.jpg,left,488.89999999664724,true,high,false
JiaW1dc5,3wa2xvdzfpuo2njsi9v42o7kc6t6eh,3a0ex8zrnc1u1of853t89rhjxp7ybx,JiaW1dc5,2020-0188,2020-06-16,10:15:28,10:31:47,NA,incomplete,94,color,0,left,Red_Circle_Grid_2.jpg,Red_Star_Chess_1.jpg,Purple_Triangle_Stripes_2.jpg,left,806.5799999749288,true,high,false
JiaW1dc5,3wa2xvdzfpuo2njsi9v42o7kc6t6eh,3a0ex8zrnc1u1of853t89rhjxp7ybx,JiaW1dc5,2020-0188,2020-06-16,10:15:28,10:31:47,NA,incomplete,95,color,1,right,Red_Star_Stripes_4.jpg,Purple_Triangle_Grid_4.jpg,Red_Plus_Chess_3.jpg,right,679.9800000153482,true,high,false
JiaW1dc5,3wa2xvdzfpuo2njsi9v42o7kc6t6eh,3a0ex8zrnc1u1of853t89rhjxp7ybx,JiaW1dc5,2020-0188,2020-06-16,10:15:28,10:31:47,NA,incomplete,96,color,1,left,Red_Triangle_Dots_4.jpg,Red_Circle_Stripes_2.jpg,Blue_Star_Grid_4.jpg,left,590.2950000017881,true,high,false
JiaW1dc5,3wa2xvdzfpuo2njsi9v42o7kc6t6eh,3a0ex8zrnc1u1of853t89rhjxp7ybx,JiaW1dc5,2020-0188,2020-06-16,10:15:28,10:31:47,NA,incomplete,97,color,1,left,Green_Triangle_Chess_1.jpg,Green_Plus_Stripes_4.jpg,Purple_Circle_Grid_1.jpg,left,705.5299999774434,true,high,false
JiaW1dc5,3wa2xvdzfpuo2njsi9v42o7kc6t6eh,3a0ex8zrnc1u1of853t89rhjxp7ybx,JiaW1dc5,2020-0188,2020-06-16,10:15:28,10:31:47,NA,incomplete,98,color,1,right,Purple_Triangle_Chess_1.jpg,Blue_Plus_Grid_1.jpg,Purple_Star_Dots_2.jpg,right,755.4599999566562,true,high,false
JiaW1dc5,3wa2xvdzfpuo2njsi9v42o7kc6t6eh,3a0ex8zrnc1u1of853t89rhjxp7ybx,JiaW1dc5,2020-0188,2020-06-16,10:15:28,10:31:47,NA,incomplete,99,color,0,left,Purple_Triangle_Dots_4.jpg,Purple_Star_Stripes_3.jpg,Green_Plus_Chess_4.jpg,left,591.7999999946915,true,high,false
JiaW1dc5,3wa2xvdzfpuo2njsi9v42o7kc6t6eh,3a0ex8zrnc1u1of853t89rhjxp7ybx,JiaW1dc5,2020-0188,2020-06-16,10:15:28,10:31:47,NA,incomplete,100,number,1,left,Blue_Plus_Chess_2.jpg,Green_Triangle_Stripes_2.jpg,Blue_Circle_Grid_3.jpg,right,687.9900000058115,false,high,false
JiaW1dc5,3wa2xvdzfpuo2njsi9v42o7kc6t6eh,3a0ex8zrnc1u1of853t89rhjxp7ybx,JiaW1dc5,2020-0188,2020-06-16,10:15:28,10:31:47,NA,incomplete,101,number,1,left,Purple_Star_Grid_1.jpg,Blue_Circle_Chess_1.jpg,Purple_Triangle_Dots_4.jpg,left,579.3299999786541,true,high,false
JiaW1dc5,3wa2xvdzfpuo2njsi9v42o7kc6t6eh,3a0ex8zrnc1u1of853t89rhjxp7ybx,JiaW1dc5,2020-0188,2020-06-16,10:15:28,10:31:47,NA,incomplete,102,number,1,right,Blue_Plus_Dots_4.jpg,Blue_Star_Chess_3.jpg,Green_Circle_Stripes_4.jpg,right,1068.9699999638833,true,high,false
JiaW1dc5,3wa2xvdzfpuo2njsi9v42o7kc6t6eh,3a0ex8zrnc1u1of853t89rhjxp7ybx,JiaW1dc5,2020-0188,2020-06-16,10:15:28,10:31:47,NA,incomplete,103,number,1,right,Red_Circle_Chess_2.jpg,Red_Triangle_Dots_1.jpg,Green_Plus_Stripes_2.jpg,right,781.9749999907799,true,high,false
JiaW1dc5,3wa2xvdzfpuo2njsi9v42o7kc6t6eh,3a0ex8zrnc1u1of853t89rhjxp7ybx,JiaW1dc5,2020-0188,2020-06-16,10:15:28,10:31:47,NA,incomplete,104,number,1,right,Purple_Triangle_Grid_4.jpg,Purple_Circle_Dots_3.jpg,Red_Plus_Stripes_4.jpg,right,1402.494999987539,true,high,false
JiaW1dc5,3wa2xvdzfpuo2njsi9v42o7kc6t6eh,3a0ex8zrnc1u1of853t89rhjxp7ybx,JiaW1dc5,2020-0188,2020-06-16,10:15:28,10:31:47,NA,incomplete,105,number,1,right,Green_Star_Stripes_4.jpg,Green_Plus_Grid_2.jpg,Purple_Triangle_Chess_4.jpg,right,746.0149999824353,true,high,false
JiaW1dc5,3wa2xvdzfpuo2njsi9v42o7kc6t6eh,3a0ex8zrnc1u1of853t89rhjxp7ybx,JiaW1dc5,2020-0188,2020-06-16,10:15:28,10:31:47,NA,incomplete,106,number,0,left,Blue_Star_Grid_1.jpg,Green_Circle_Stripes_1.jpg,Blue_Plus_Dots_2.jpg,left,676.6849999548867,true,high,false
JiaW1dc5,3wa2xvdzfpuo2njsi9v42o7kc6t6eh,3a0ex8zrnc1u1of853t89rhjxp7ybx,JiaW1dc5,2020-0188,2020-06-16,10:15:28,10:31:47,NA,incomplete,107,number,1,left,Green_Triangle_Chess_4.jpg,Red_Plus_Dots_4.jpg,Green_Star_Stripes_3.jpg,right,652.8050000197254,false,high,false
JiaW1dc5,3wa2xvdzfpuo2njsi9v42o7kc6t6eh,3a0ex8zrnc1u1of853t89rhjxp7ybx,JiaW1dc5,2020-0188,2020-06-16,10:15:28,10:31:47,NA,incomplete,108,number,1,right,Purple_Plus_Grid_3.jpg,Purple_Circle_Chess_2.jpg,Red_Star_Dots_3.jpg,left,770.1250000391155,false,high,false
JiaW1dc5,3wa2xvdzfpuo2njsi9v42o7kc6t6eh,3a0ex8zrnc1u1of853t89rhjxp7ybx,JiaW1dc5,2020-0188,2020-06-16,10:15:28,10:31:47,NA,incomplete,109,number,1,right,Red_Star_Stripes_4.jpg,Red_Plus_Grid_1.jpg,Blue_Circle_Chess_4.jpg,right,957.2299999999814,true,high,false
JiaW1dc5,3wa2xvdzfpuo2njsi9v42o7kc6t6eh,3a0ex8zrnc1u1of853t89rhjxp7ybx,JiaW1dc5,2020-0188,2020-06-16,10:15:28,10:31:47,NA,incomplete,110,color,1,left,Red_Plus_Dots_1.jpg,Red_Circle_Chess_3.jpg,Green_Triangle_Grid_1.jpg,right,662.4900000169873,false,high,false
JiaW1dc5,3wa2xvdzfpuo2njsi9v42o7kc6t6eh,3a0ex8zrnc1u1of853t89rhjxp7ybx,JiaW1dc5,2020-0188,2020-06-16,10:15:28,10:31:47,NA,incomplete,111,color,1,left,Red_Star_Grid_1.jpg,Red_Circle_Dots_3.jpg,Green_Triangle_Chess_1.jpg,right,645.989999989979,false,high,false
JiaW1dc5,3wa2xvdzfpuo2njsi9v42o7kc6t6eh,3a0ex8zrnc1u1of853t89rhjxp7ybx,JiaW1dc5,2020-0188,2020-06-16,10:15:28,10:31:47,NA,incomplete,112,color,1,left,Green_Circle_Grid_1.jpg,Green_Triangle_Stripes_2.jpg,Red_Plus_Dots_1.jpg,left,691.4550000219606,true,high,false
JiaW1dc5,3wa2xvdzfpuo2njsi9v42o7kc6t6eh,3a0ex8zrnc1u1of853t89rhjxp7ybx,JiaW1dc5,2020-0188,2020-06-16,10:15:28,10:31:47,NA,incomplete,113,color,0,right,Red_Plus_Dots_1.jpg,Blue_Star_Grid_1.jpg,Red_Triangle_Stripes_2.jpg,right,654.7649999847636,true,high,false
JiaW1dc5,3wa2xvdzfpuo2njsi9v42o7kc6t6eh,3a0ex8zrnc1u1of853t89rhjxp7ybx,JiaW1dc5,2020-0188,2020-06-16,10:15:28,10:31:47,NA,incomplete,114,color,1,left,Blue_Plus_Stripes_2.jpg,Blue_Circle_Chess_1.jpg,Purple_Star_Dots_2.jpg,left,793.0799999739975,true,high,false
JiaW1dc5,3wa2xvdzfpuo2njsi9v42o7kc6t6eh,3a0ex8zrnc1u1of853t89rhjxp7ybx,JiaW1dc5,2020-0188,2020-06-16,10:15:28,10:31:47,NA,incomplete,115,color,1,left,Green_Plus_Dots_4.jpg,Green_Triangle_Grid_3.jpg,Purple_Circle_Stripes_4.jpg,left,717.6900000195019,true,high,false
JiaW1dc5,3wa2xvdzfpuo2njsi9v42o7kc6t6eh,3a0ex8zrnc1u1of853t89rhjxp7ybx,JiaW1dc5,2020-0188,2020-06-16,10:15:28,10:31:47,NA,incomplete,116,color,0,right,Red_Star_Grid_3.jpg,Blue_Triangle_Dots_3.jpg,Red_Plus_Stripes_4.jpg,right,772.7449999656528,true,high,false
JiaW1dc5,3wa2xvdzfpuo2njsi9v42o7kc6t6eh,3a0ex8zrnc1u1of853t89rhjxp7ybx,JiaW1dc5,2020-0188,2020-06-16,10:15:28,10:31:47,NA,incomplete,117,color,1,right,Blue_Plus_Grid_4.jpg,Red_Star_Stripes_4.jpg,Blue_Circle_Dots_1.jpg,right,613.1199999945238,true,high,false
JiaW1dc5,3wa2xvdzfpuo2njsi9v42o7kc6t6eh,3a0ex8zrnc1u1of853t89rhjxp7ybx,JiaW1dc5,2020-0188,2020-06-16,10:15:28,10:31:47,NA,incomplete,118,color,0,left,Purple_Circle_Stripes_3.jpg,Purple_Plus_Chess_2.jpg,Red_Star_Grid_3.jpg,left,609.9999999860302,true,high,false
JiaW1dc5,3wa2xvdzfpuo2njsi9v42o7kc6t6eh,3a0ex8zrnc1u1of853t89rhjxp7ybx,JiaW1dc5,2020-0188,2020-06-16,10:15:28,10:31:47,NA,incomplete,119,color,1,right,Blue_Triangle_Chess_3.jpg,Green_Plus_Dots_3.jpg,Blue_Circle_Grid_2.jpg,right,580.0750000053085,true,high,false
JiaW1dc5,3wa2xvdzfpuo2njsi9v42o7kc6t6eh,3a0ex8zrnc1u1of853t89rhjxp7ybx,JiaW1dc5,2020-0188,2020-06-16,10:15:28,10:31:47,NA,incomplete,120,filling,1,right,Purple_Triangle_Stripes_1.jpg,Red_Triangle_Grid_3.jpg,Green_Circle_Stripes_2.jpg,NA,NA,NA,high,false
JiaW1dc5,3wa2xvdzfpuo2njsi9v42o7kc6t6eh,3a0ex8zrnc1u1of853t89rhjxp7ybx,JiaW1dc5,2020-0188,2020-06-16,10:15:28,10:31:47,NA,incomplete,121,filling,1,left,Purple_Circle_Dots_4.jpg,Red_Triangle_Dots_3.jpg,Blue_Circle_Chess_1.jpg,left,1364.7500000079162,true,high,false
JiaW1dc5,3wa2xvdzfpuo2njsi9v42o7kc6t6eh,3a0ex8zrnc1u1of853t89rhjxp7ybx,JiaW1dc5,2020-0188,2020-06-16,10:15:28,10:31:47,NA,incomplete,122,filling,0,left,Green_Circle_Stripes_3.jpg,Blue_Plus_Stripes_4.jpg,Red_Circle_Dots_1.jpg,left,1035.4299999889918,true,high,false
JiaW1dc5,3wa2xvdzfpuo2njsi9v42o7kc6t6eh,3a0ex8zrnc1u1of853t89rhjxp7ybx,JiaW1dc5,2020-0188,2020-06-16,10:15:28,10:31:47,NA,incomplete,123,filling,1,left,Blue_Triangle_Stripes_1.jpg,Red_Circle_Stripes_2.jpg,Green_Triangle_Dots_3.jpg,right,872.9349999921396,false,high,false
JiaW1dc5,3wa2xvdzfpuo2njsi9v42o7kc6t6eh,3a0ex8zrnc1u1of853t89rhjxp7ybx,JiaW1dc5,2020-0188,2020-06-16,10:15:28,10:31:47,NA,incomplete,124,filling,1,left,Blue_Circle_Dots_2.jpg,Green_Triangle_Dots_4.jpg,Purple_Circle_Chess_1.jpg,left,939.8950000177138,true,high,false
JiaW1dc5,3wa2xvdzfpuo2njsi9v42o7kc6t6eh,3a0ex8zrnc1u1of853t89rhjxp7ybx,JiaW1dc5,2020-0188,2020-06-16,10:15:28,10:31:47,NA,incomplete,125,filling,0,right,Green_Circle_Stripes_1.jpg,Red_Circle_Dots_4.jpg,Blue_Triangle_Stripes_3.jpg,right,961.8250000057742,true,high,false
JiaW1dc5,3wa2xvdzfpuo2njsi9v42o7kc6t6eh,3a0ex8zrnc1u1of853t89rhjxp7ybx,JiaW1dc5,2020-0188,2020-06-16,10:15:28,10:31:47,NA,incomplete,126,filling,1,right,Blue_Plus_Stripes_3.jpg,Red_Plus_Chess_1.jpg,Green_Triangle_Stripes_4.jpg,left,735.7799999881536,false,high,false
JiaW1dc5,3wa2xvdzfpuo2njsi9v42o7kc6t6eh,3a0ex8zrnc1u1of853t89rhjxp7ybx,JiaW1dc5,2020-0188,2020-06-16,10:15:28,10:31:47,NA,incomplete,127,filling,0,right,Green_Triangle_Grid_3.jpg,Red_Triangle_Chess_1.jpg,Purple_Star_Grid_2.jpg,right,1208.150000020396,true,high,false
JiaW1dc5,3wa2xvdzfpuo2njsi9v42o7kc6t6eh,3a0ex8zrnc1u1of853t89rhjxp7ybx,JiaW1dc5,2020-0188,2020-06-16,10:15:28,10:31:47,NA,incomplete,128,filling,1,left,Green_Star_Grid_2.jpg,Blue_Triangle_Grid_1.jpg,Red_Star_Chess_4.jpg,left,1114.914999983739,true,high,false
JiaW1dc5,3wa2xvdzfpuo2njsi9v42o7kc6t6eh,3a0ex8zrnc1u1of853t89rhjxp7ybx,JiaW1dc5,2020-0188,2020-06-16,10:15:28,10:31:47,NA,incomplete,129,filling,1,right,Green_Plus_Grid_3.jpg,Red_Plus_Dots_1.jpg,Blue_Circle_Grid_2.jpg,left,1072.6250000298023,false,high,false
JiaW1dc5,3wa2xvdzfpuo2njsi9v42o7kc6t6eh,3a0ex8zrnc1u1of853t89rhjxp7ybx,JiaW1dc5,2020-0188,2020-06-16,10:15:28,10:31:47,NA,incomplete,130,filling,1,right,Green_Triangle_Stripes_2.jpg,Blue_Triangle_Dots_3.jpg,Red_Star_Stripes_1.jpg,right,1077.4899999960326,true,high,false
JiaW1dc5,3wa2xvdzfpuo2njsi9v42o7kc6t6eh,3a0ex8zrnc1u1of853t89rhjxp7ybx,JiaW1dc5,2020-0188,2020-06-16,10:15:28,10:31:47,NA,incomplete,131,filling,1,left,Purple_Circle_Dots_3.jpg,Blue_Triangle_Dots_1.jpg,Green_Circle_Grid_4.jpg,left,892.24999997532,true,high,false
JiaW1dc5,3wa2xvdzfpuo2njsi9v42o7kc6t6eh,3a0ex8zrnc1u1of853t89rhjxp7ybx,JiaW1dc5,2020-0188,2020-06-16,10:15:28,10:31:47,NA,incomplete,132,filling,1,left,Blue_Triangle_Dots_2.jpg,Red_Circle_Dots_4.jpg,Purple_Triangle_Chess_1.jpg,left,893.7450000084937,true,high,false
JiaW1dc5,3wa2xvdzfpuo2njsi9v42o7kc6t6eh,3a0ex8zrnc1u1of853t89rhjxp7ybx,JiaW1dc5,2020-0188,2020-06-16,10:15:28,10:31:47,NA,incomplete,133,filling,1,left,Red_Plus_Dots_1.jpg,Blue_Triangle_Dots_4.jpg,Green_Plus_Grid_3.jpg,left,873.9499999792315,true,high,false
JiaW1dc5,3wa2xvdzfpuo2njsi9v42o7kc6t6eh,3a0ex8zrnc1u1of853t89rhjxp7ybx,JiaW1dc5,2020-0188,2020-06-16,10:15:28,10:31:47,NA,incomplete,134,filling,0,right,Purple_Circle_Dots_3.jpg,Red_Circle_Grid_2.jpg,Green_Triangle_Dots_1.jpg,right,910.2549999952316,true,high,false
JiaW1dc5,3wa2xvdzfpuo2njsi9v42o7kc6t6eh,3a0ex8zrnc1u1of853t89rhjxp7ybx,JiaW1dc5,2020-0188,2020-06-16,10:15:28,10:31:47,NA,incomplete,135,filling,1,right,Red_Star_Stripes_2.jpg,Purple_Star_Chess_4.jpg,Green_Circle_Stripes_1.jpg,right,1120.8550000446849,true,high,false
JiaW1dc5,3wa2xvdzfpuo2njsi9v42o7kc6t6eh,3a0ex8zrnc1u1of853t89rhjxp7ybx,JiaW1dc5,2020-0188,2020-06-16,10:15:28,10:31:47,NA,incomplete,136,filling,0,left,Red_Star_Grid_4.jpg,Purple_Circle_Grid_3.jpg,Green_Star_Stripes_2.jpg,left,1048.0450000031851,true,high,false
JiaW1dc5,3wa2xvdzfpuo2njsi9v42o7kc6t6eh,3a0ex8zrnc1u1of853t89rhjxp7ybx,JiaW1dc5,2020-0188,2020-06-16,10:15:28,10:31:47,NA,incomplete,137,filling,1,left,Blue_Plus_Chess_1.jpg,Green_Triangle_Chess_4.jpg,Red_Plus_Dots_2.jpg,left,796.169999986887,true,high,false
JiaW1dc5,3wa2xvdzfpuo2njsi9v42o7kc6t6eh,3a0ex8zrnc1u1of853t89rhjxp7ybx,JiaW1dc5,2020-0188,2020-06-16,10:15:28,10:31:47,NA,incomplete,138,filling,0,right,Red_Circle_Stripes_1.jpg,Green_Circle_Dots_2.jpg,Purple_Star_Stripes_3.jpg,left,1503.7600000505336,false,high,false
JiaW1dc5,3wa2xvdzfpuo2njsi9v42o7kc6t6eh,3a0ex8zrnc1u1of853t89rhjxp7ybx,JiaW1dc5,2020-0188,2020-06-16,10:15:28,10:31:47,NA,incomplete,139,filling,1,left,Purple_Circle_Dots_3.jpg,Green_Plus_Dots_2.jpg,Blue_Circle_Grid_4.jpg,left,951.119999983348,true,high,false
JiaW1dc5,3wa2xvdzfpuo2njsi9v42o7kc6t6eh,3a0ex8zrnc1u1of853t89rhjxp7ybx,JiaW1dc5,2020-0188,2020-06-16,10:15:28,10:31:47,NA,incomplete,140,shape,1,right,Purple_Star_Stripes_1.jpg,Red_Plus_Stripes_2.jpg,Blue_Star_Grid_3.jpg,left,841.7750000371598,false,high,false
JiaW1dc5,3wa2xvdzfpuo2njsi9v42o7kc6t6eh,3a0ex8zrnc1u1of853t89rhjxp7ybx,JiaW1dc5,2020-0188,2020-06-16,10:15:28,10:31:47,NA,incomplete,141,shape,1,right,Red_Circle_Grid_1.jpg,Green_Star_Grid_3.jpg,Blue_Circle_Dots_4.jpg,left,993.9300000551157,false,high,false
JiaW1dc5,3wa2xvdzfpuo2njsi9v42o7kc6t6eh,3a0ex8zrnc1u1of853t89rhjxp7ybx,JiaW1dc5,2020-0188,2020-06-16,10:15:28,10:31:47,NA,incomplete,142,shape,0,right,Purple_Plus_Chess_1.jpg,Blue_Star_Chess_3.jpg,Red_Plus_Stripes_4.jpg,right,698.2349999598227,true,high,false
JiaW1dc5,3wa2xvdzfpuo2njsi9v42o7kc6t6eh,3a0ex8zrnc1u1of853t89rhjxp7ybx,JiaW1dc5,2020-0188,2020-06-16,10:15:28,10:31:47,NA,incomplete,143,shape,1,right,Red_Star_Grid_1.jpg,Green_Triangle_Grid_4.jpg,Purple_Star_Chess_2.jpg,left,958.2850000006147,false,high,false
JiaW1dc5,3wa2xvdzfpuo2njsi9v42o7kc6t6eh,3a0ex8zrnc1u1of853t89rhjxp7ybx,JiaW1dc5,2020-0188,2020-06-16,10:15:28,10:31:47,NA,incomplete,144,shape,1,left,Green_Plus_Stripes_1.jpg,Purple_Plus_Chess_3.jpg,Blue_Circle_Stripes_2.jpg,right,970.3100000042468,false,high,false
JiaW1dc5,3wa2xvdzfpuo2njsi9v42o7kc6t6eh,3a0ex8zrnc1u1of853t89rhjxp7ybx,JiaW1dc5,2020-0188,2020-06-16,10:15:28,10:31:47,NA,incomplete,145,shape,1,right,Blue_Triangle_Grid_3.jpg,Green_Star_Grid_2.jpg,Purple_Triangle_Chess_1.jpg,right,1244.1849999595433,true,high,false
JiaW1dc5,3wa2xvdzfpuo2njsi9v42o7kc6t6eh,3a0ex8zrnc1u1of853t89rhjxp7ybx,JiaW1dc5,2020-0188,2020-06-16,10:15:28,10:31:47,NA,incomplete,146,shape,1,right,Red_Triangle_Grid_2.jpg,Purple_Star_Grid_4.jpg,Blue_Triangle_Stripes_1.jpg,right,740.9200000111014,true,high,false
JiaW1dc5,3wa2xvdzfpuo2njsi9v42o7kc6t6eh,3a0ex8zrnc1u1of853t89rhjxp7ybx,JiaW1dc5,2020-0188,2020-06-16,10:15:28,10:31:47,NA,incomplete,147,shape,0,right,Red_Triangle_Grid_1.jpg,Green_Star_Grid_3.jpg,Purple_Triangle_Stripes_2.jpg,right,877.5100000202656,true,high,false
JiaW1dc5,3wa2xvdzfpuo2njsi9v42o7kc6t6eh,3a0ex8zrnc1u1of853t89rhjxp7ybx,JiaW1dc5,2020-0188,2020-06-16,10:15:28,10:31:47,NA,incomplete,148,shape,1,left,Purple_Circle_Grid_3.jpg,Blue_Circle_Dots_2.jpg,Green_Star_Grid_1.jpg,left,1088.6649999883957,true,high,false
JiaW1dc5,3wa2xvdzfpuo2njsi9v42o7kc6t6eh,3a0ex8zrnc1u1of853t89rhjxp7ybx,JiaW1dc5,2020-0188,2020-06-16,10:15:28,10:31:47,NA,incomplete,149,shape,1,right,Blue_Triangle_Chess_3.jpg,Red_Circle_Chess_2.jpg,Green_Triangle_Grid_1.jpg,right,880.0099999643862,true,high,false
JiaW1dc5,3wa2xvdzfpuo2njsi9v42o7kc6t6eh,3a0ex8zrnc1u1of853t89rhjxp7ybx,JiaW1dc5,2020-0188,2020-06-16,10:15:28,10:31:47,NA,incomplete,150,shape,1,right,Blue_Star_Stripes_2.jpg,Green_Circle_Stripes_4.jpg,Red_Star_Dots_3.jpg,left,1200.1799999852665,false,high,false
JiaW1dc5,3wa2xvdzfpuo2njsi9v42o7kc6t6eh,3a0ex8zrnc1u1of853t89rhjxp7ybx,JiaW1dc5,2020-0188,2020-06-16,10:15:28,10:31:47,NA,incomplete,151,shape,1,left,Red_Plus_Dots_4.jpg,Purple_Plus_Grid_2.jpg,Blue_Circle_Dots_3.jpg,left,1320.1999999582767,true,high,false
JiaW1dc5,3wa2xvdzfpuo2njsi9v42o7kc6t6eh,3a0ex8zrnc1u1of853t89rhjxp7ybx,JiaW1dc5,2020-0188,2020-06-16,10:15:28,10:31:47,NA,incomplete,152,shape,1,left,Purple_Triangle_Stripes_4.jpg,Blue_Triangle_Chess_2.jpg,Red_Star_Stripes_3.jpg,left,873.3850000426173,true,high,false
JiaW1dc5,3wa2xvdzfpuo2njsi9v42o7kc6t6eh,3a0ex8zrnc1u1of853t89rhjxp7ybx,JiaW1dc5,2020-0188,2020-06-16,10:15:28,10:31:47,NA,incomplete,153,shape,1,left,Red_Plus_Grid_4.jpg,Green_Plus_Stripes_2.jpg,Blue_Star_Grid_1.jpg,left,647.3750000004657,true,high,false
JiaW1dc5,3wa2xvdzfpuo2njsi9v42o7kc6t6eh,3a0ex8zrnc1u1of853t89rhjxp7ybx,JiaW1dc5,2020-0188,2020-06-16,10:15:28,10:31:47,NA,incomplete,154,shape,1,right,Blue_Triangle_Stripes_3.jpg,Green_Star_Stripes_4.jpg,Red_Triangle_Dots_1.jpg,right,744.6600000257604,true,high,false
JiaW1dc5,3wa2xvdzfpuo2njsi9v42o7kc6t6eh,3a0ex8zrnc1u1of853t89rhjxp7ybx,JiaW1dc5,2020-0188,2020-06-16,10:15:28,10:31:47,NA,incomplete,155,shape,1,right,Red_Star_Stripes_4.jpg,Blue_Circle_Stripes_3.jpg,Green_Star_Dots_2.jpg,right,681.6600000020117,true,high,false
JiaW1dc5,3wa2xvdzfpuo2njsi9v42o7kc6t6eh,3a0ex8zrnc1u1of853t89rhjxp7ybx,JiaW1dc5,2020-0188,2020-06-16,10:15:28,10:31:47,NA,incomplete,156,shape,1,left,Blue_Triangle_Dots_3.jpg,Green_Triangle_Chess_1.jpg,Purple_Plus_Dots_2.jpg,left,743.4849999845028,true,high,false
JiaW1dc5,3wa2xvdzfpuo2njsi9v42o7kc6t6eh,3a0ex8zrnc1u1of853t89rhjxp7ybx,JiaW1dc5,2020-0188,2020-06-16,10:15:28,10:31:47,NA,incomplete,157,shape,1,left,Green_Star_Stripes_1.jpg,Purple_Star_Chess_3.jpg,Blue_Plus_Stripes_4.jpg,left,994.4099999847822,true,high,false
JiaW1dc5,3wa2xvdzfpuo2njsi9v42o7kc6t6eh,3a0ex8zrnc1u1of853t89rhjxp7ybx,JiaW1dc5,2020-0188,2020-06-16,10:15:28,10:31:47,NA,incomplete,158,shape,0,left,Green_Circle_Dots_3.jpg,Red_Circle_Chess_1.jpg,Purple_Star_Dots_2.jpg,left,558.0599999520928,true,high,false
JiaW1dc5,3wa2xvdzfpuo2njsi9v42o7kc6t6eh,3a0ex8zrnc1u1of853t89rhjxp7ybx,JiaW1dc5,2020-0188,2020-06-16,10:15:28,10:31:47,NA,incomplete,159,shape,1,left,Blue_Circle_Grid_4.jpg,Red_Circle_Chess_1.jpg,Purple_Triangle_Grid_2.jpg,left,552.5400000042282,true,high,false
JiaW1dc5,3wa2xvdzfpuo2njsi9v42o7kc6t6eh,3a0ex8zrnc1u1of853t89rhjxp7ybx,JiaW1dc5,2020-0188,2020-06-16,10:15:28,10:31:47,NA,incomplete,160,filling,1,right,Green_Circle_Chess_2.jpg,Purple_Circle_Grid_1.jpg,Red_Triangle_Chess_3.jpg,left,538.9849999919534,false,high,false
JiaW1dc5,3wa2xvdzfpuo2njsi9v42o7kc6t6eh,3a0ex8zrnc1u1of853t89rhjxp7ybx,JiaW1dc5,2020-0188,2020-06-16,10:15:28,10:31:47,NA,incomplete,161,filling,0,left,Red_Circle_Dots_2.jpg,Blue_Triangle_Dots_1.jpg,Purple_Circle_Grid_3.jpg,right,617.9999999585561,false,high,false
JiaW1dc5,3wa2xvdzfpuo2njsi9v42o7kc6t6eh,3a0ex8zrnc1u1of853t89rhjxp7ybx,JiaW1dc5,2020-0188,2020-06-16,10:15:28,10:31:47,NA,incomplete,162,filling,1,left,Blue_Star_Grid_3.jpg,Red_Triangle_Grid_4.jpg,Purple_Star_Chess_1.jpg,right,823.4149999916553,false,high,false
JiaW1dc5,3wa2xvdzfpuo2njsi9v42o7kc6t6eh,3a0ex8zrnc1u1of853t89rhjxp7ybx,JiaW1dc5,2020-0188,2020-06-16,10:15:28,10:31:47,NA,incomplete,163,filling,1,right,Blue_Triangle_Chess_1.jpg,Red_Triangle_Stripes_2.jpg,Purple_Star_Chess_4.jpg,left,647.3850000184029,false,high,false
JiaW1dc5,3wa2xvdzfpuo2njsi9v42o7kc6t6eh,3a0ex8zrnc1u1of853t89rhjxp7ybx,JiaW1dc5,2020-0188,2020-06-16,10:15:28,10:31:47,NA,incomplete,164,filling,0,right,Green_Circle_Chess_1.jpg,Red_Circle_Stripes_4.jpg,Blue_Star_Chess_2.jpg,right,937.0149999740534,true,high,false
JiaW1dc5,3wa2xvdzfpuo2njsi9v42o7kc6t6eh,3a0ex8zrnc1u1of853t89rhjxp7ybx,JiaW1dc5,2020-0188,2020-06-16,10:15:28,10:31:47,NA,incomplete,165,filling,1,left,Green_Triangle_Chess_4.jpg,Red_Circle_Chess_1.jpg,Purple_Triangle_Grid_2.jpg,right,669.4900000002235,false,high,false
JiaW1dc5,3wa2xvdzfpuo2njsi9v42o7kc6t6eh,3a0ex8zrnc1u1of853t89rhjxp7ybx,JiaW1dc5,2020-0188,2020-06-16,10:15:28,10:31:47,NA,incomplete,166,filling,1,left,Blue_Triangle_Chess_3.jpg,Green_Star_Chess_2.jpg,Red_Triangle_Stripes_4.jpg,left,1435.7549999840558,true,high,false
JiaW1dc5,3wa2xvdzfpuo2njsi9v42o7kc6t6eh,3a0ex8zrnc1u1of853t89rhjxp7ybx,JiaW1dc5,2020-0188,2020-06-16,10:15:28,10:31:47,NA,incomplete,167,filling,1,left,Green_Triangle_Chess_3.jpg,Blue_Circle_Chess_1.jpg,Purple_Triangle_Grid_2.jpg,left,985.0900000310503,true,high,false
JiaW1dc5,3wa2xvdzfpuo2njsi9v42o7kc6t6eh,3a0ex8zrnc1u1of853t89rhjxp7ybx,JiaW1dc5,2020-0188,2020-06-16,10:15:28,10:31:47,NA,incomplete,168,filling,1,right,Green_Circle_Chess_2.jpg,Red_Circle_Dots_4.jpg,Blue_Plus_Chess_3.jpg,right,1194.4700000458397,true,high,false
JiaW1dc5,3wa2xvdzfpuo2njsi9v42o7kc6t6eh,3a0ex8zrnc1u1of853t89rhjxp7ybx,JiaW1dc5,2020-0188,2020-06-16,10:15:28,10:31:47,NA,incomplete,169,filling,0,left,Green_Plus_Dots_2.jpg,Blue_Circle_Dots_3.jpg,Purple_Plus_Stripes_1.jpg,left,1362.9250000230968,true,high,false
JiaW1dc5,3wa2xvdzfpuo2njsi9v42o7kc6t6eh,3a0ex8zrnc1u1of853t89rhjxp7ybx,JiaW1dc5,2020-0188,2020-06-16,10:15:28,10:31:47,NA,incomplete,170,filling,1,left,Blue_Triangle_Chess_2.jpg,Red_Circle_Chess_3.jpg,Purple_Triangle_Stripes_4.jpg,left,1245.1949999667704,true,high,false
JiaW1dc5,3wa2xvdzfpuo2njsi9v42o7kc6t6eh,3a0ex8zrnc1u1of853t89rhjxp7ybx,JiaW1dc5,2020-0188,2020-06-16,10:15:28,10:31:47,NA,incomplete,171,filling,1,left,Purple_Triangle_Chess_4.jpg,Red_Circle_Chess_1.jpg,Blue_Triangle_Dots_2.jpg,left,752.2500000195578,true,high,false
JiaW1dc5,3wa2xvdzfpuo2njsi9v42o7kc6t6eh,3a0ex8zrnc1u1of853t89rhjxp7ybx,JiaW1dc5,2020-0188,2020-06-16,10:15:28,10:31:47,NA,incomplete,172,filling,1,left,Red_Star_Grid_1.jpg,Purple_Plus_Grid_4.jpg,Blue_Star_Dots_2.jpg,left,1037.0700000203215,true,high,false
JiaW1dc5,3wa2xvdzfpuo2njsi9v42o7kc6t6eh,3a0ex8zrnc1u1of853t89rhjxp7ybx,JiaW1dc5,2020-0188,2020-06-16,10:15:28,10:31:47,NA,incomplete,173,filling,1,right,Red_Circle_Stripes_2.jpg,Purple_Circle_Dots_3.jpg,Green_Star_Stripes_1.jpg,right,887.1649999637157,true,high,false
JiaW1dc5,3wa2xvdzfpuo2njsi9v42o7kc6t6eh,3a0ex8zrnc1u1of853t89rhjxp7ybx,JiaW1dc5,2020-0188,2020-06-16,10:15:28,10:31:47,NA,incomplete,174,filling,1,right,Green_Circle_Chess_2.jpg,Blue_Circle_Grid_1.jpg,Purple_Triangle_Chess_3.jpg,right,860.1999999955297,true,high,false
JiaW1dc5,3wa2xvdzfpuo2njsi9v42o7kc6t6eh,3a0ex8zrnc1u1of853t89rhjxp7ybx,JiaW1dc5,2020-0188,2020-06-16,10:15:28,10:31:47,NA,incomplete,175,filling,1,right,Green_Star_Grid_4.jpg,Purple_Star_Stripes_3.jpg,Red_Circle_Grid_1.jpg,right,1081.3799999887124,true,high,false
JiaW1dc5,3wa2xvdzfpuo2njsi9v42o7kc6t6eh,3a0ex8zrnc1u1of853t89rhjxp7ybx,JiaW1dc5,2020-0188,2020-06-16,10:15:28,10:31:47,NA,incomplete,176,filling,1,left,Purple_Star_Stripes_4.jpg,Green_Plus_Stripes_2.jpg,Red_Star_Chess_1.jpg,left,1015.1999999652617,true,high,false
JiaW1dc5,3wa2xvdzfpuo2njsi9v42o7kc6t6eh,3a0ex8zrnc1u1of853t89rhjxp7ybx,JiaW1dc5,2020-0188,2020-06-16,10:15:28,10:31:47,NA,incomplete,177,filling,0,left,Green_Plus_Stripes_2.jpg,Red_Triangle_Stripes_3.jpg,Blue_Plus_Chess_4.jpg,left,900.5400000023656,true,high,false
JiaW1dc5,3wa2xvdzfpuo2njsi9v42o7kc6t6eh,3a0ex8zrnc1u1of853t89rhjxp7ybx,JiaW1dc5,2020-0188,2020-06-16,10:15:28,10:31:47,NA,incomplete,178,filling,1,left,Green_Plus_Stripes_2.jpg,Red_Star_Stripes_3.jpg,Blue_Plus_Grid_4.jpg,left,785.9949999838136,true,high,false
JiaW1dc5,3wa2xvdzfpuo2njsi9v42o7kc6t6eh,3a0ex8zrnc1u1of853t89rhjxp7ybx,JiaW1dc5,2020-0188,2020-06-16,10:15:28,10:31:47,NA,incomplete,179,filling,1,left,Green_Plus_Dots_2.jpg,Red_Star_Dots_3.jpg,Purple_Plus_Stripes_1.jpg,left,806.4049999811687,true,high,false
JiaW1dc5,3wa2xvdzfpuo2njsi9v42o7kc6t6eh,3a0ex8zrnc1u1of853t89rhjxp7ybx,JiaW1dc5,2020-0188,2020-06-16,10:15:28,10:31:47,NA,incomplete,180,shape,1,right,Red_Triangle_Grid_1.jpg,Green_Plus_Grid_4.jpg,Blue_Triangle_Dots_2.jpg,left,809.7249999991618,false,high,false
JiaW1dc5,3wa2xvdzfpuo2njsi9v42o7kc6t6eh,3a0ex8zrnc1u1of853t89rhjxp7ybx,JiaW1dc5,2020-0188,2020-06-16,10:15:28,10:31:47,NA,incomplete,181,shape,1,left,Green_Triangle_Stripes_4.jpg,Red_Triangle_Dots_2.jpg,Blue_Circle_Stripes_3.jpg,right,848.4900000039488,false,high,false
JiaW1dc5,3wa2xvdzfpuo2njsi9v42o7kc6t6eh,3a0ex8zrnc1u1of853t89rhjxp7ybx,JiaW1dc5,2020-0188,2020-06-16,10:15:28,10:31:47,NA,incomplete,182,shape,1,left,Blue_Plus_Dots_3.jpg,Red_Plus_Grid_2.jpg,Green_Triangle_Dots_1.jpg,left,654.7600000048988,true,high,false
JiaW1dc5,3wa2xvdzfpuo2njsi9v42o7kc6t6eh,3a0ex8zrnc1u1of853t89rhjxp7ybx,JiaW1dc5,2020-0188,2020-06-16,10:15:28,10:31:47,NA,incomplete,183,shape,1,left,Purple_Triangle_Chess_2.jpg,Green_Triangle_Dots_1.jpg,Blue_Circle_Chess_3.jpg,left,659.9699999787845,true,high,false
JiaW1dc5,3wa2xvdzfpuo2njsi9v42o7kc6t6eh,3a0ex8zrnc1u1of853t89rhjxp7ybx,JiaW1dc5,2020-0188,2020-06-16,10:15:28,10:31:47,NA,incomplete,184,shape,1,right,Red_Triangle_Chess_1.jpg,Green_Plus_Chess_2.jpg,Purple_Triangle_Stripes_3.jpg,right,762.8699999768287,true,high,false
JiaW1dc5,3wa2xvdzfpuo2njsi9v42o7kc6t6eh,3a0ex8zrnc1u1of853t89rhjxp7ybx,JiaW1dc5,2020-0188,2020-06-16,10:15:28,10:31:47,NA,incomplete,185,shape,1,left,Red_Plus_Stripes_2.jpg,Purple_Plus_Dots_4.jpg,Blue_Circle_Stripes_3.jpg,left,686.8850000319071,true,high,false
JiaW1dc5,3wa2xvdzfpuo2njsi9v42o7kc6t6eh,3a0ex8zrnc1u1of853t89rhjxp7ybx,JiaW1dc5,2020-0188,2020-06-16,10:15:28,10:31:47,NA,incomplete,186,shape,1,right,Blue_Star_Dots_4.jpg,Purple_Triangle_Dots_1.jpg,Green_Star_Grid_2.jpg,right,621.7249999754131,true,high,false
JiaW1dc5,3wa2xvdzfpuo2njsi9v42o7kc6t6eh,3a0ex8zrnc1u1of853t89rhjxp7ybx,JiaW1dc5,2020-0188,2020-06-16,10:15:28,10:31:47,NA,incomplete,187,shape,1,left,Blue_Circle_Stripes_4.jpg,Red_Circle_Dots_1.jpg,Green_Star_Stripes_3.jpg,left,766.0350000369363,true,high,false
JiaW1dc5,3wa2xvdzfpuo2njsi9v42o7kc6t6eh,3a0ex8zrnc1u1of853t89rhjxp7ybx,JiaW1dc5,2020-0188,2020-06-16,10:15:28,10:31:47,NA,incomplete,188,shape,0,right,Red_Circle_Dots_3.jpg,Blue_Star_Dots_1.jpg,Purple_Circle_Grid_4.jpg,right,552.7400000137277,true,high,false
JiaW1dc5,3wa2xvdzfpuo2njsi9v42o7kc6t6eh,3a0ex8zrnc1u1of853t89rhjxp7ybx,JiaW1dc5,2020-0188,2020-06-16,10:15:28,10:31:47,NA,incomplete,189,shape,1,right,Blue_Star_Dots_3.jpg,Purple_Plus_Dots_1.jpg,Red_Star_Chess_4.jpg,right,617.3200000193901,true,high,false
JiaW1dc5,3wa2xvdzfpuo2njsi9v42o7kc6t6eh,3a0ex8zrnc1u1of853t89rhjxp7ybx,JiaW1dc5,2020-0188,2020-06-16,10:15:28,10:31:47,NA,incomplete,190,shape,1,right,Blue_Star_Dots_4.jpg,Purple_Plus_Dots_3.jpg,Green_Star_Stripes_2.jpg,left,816.3499999791384,false,high,false
JiaW1dc5,3wa2xvdzfpuo2njsi9v42o7kc6t6eh,3a0ex8zrnc1u1of853t89rhjxp7ybx,JiaW1dc5,2020-0188,2020-06-16,10:15:28,10:31:47,NA,incomplete,191,shape,1,left,Blue_Triangle_Dots_1.jpg,Red_Triangle_Chess_4.jpg,Purple_Circle_Dots_3.jpg,left,686.3749999902211,true,high,false
JiaW1dc5,3wa2xvdzfpuo2njsi9v42o7kc6t6eh,3a0ex8zrnc1u1of853t89rhjxp7ybx,JiaW1dc5,2020-0188,2020-06-16,10:15:28,10:31:47,NA,incomplete,192,shape,1,right,Purple_Plus_Dots_4.jpg,Green_Triangle_Dots_1.jpg,Blue_Plus_Grid_3.jpg,right,619.7449999745004,true,high,false
JiaW1dc5,3wa2xvdzfpuo2njsi9v42o7kc6t6eh,3a0ex8zrnc1u1of853t89rhjxp7ybx,JiaW1dc5,2020-0188,2020-06-16,10:15:28,10:31:47,NA,incomplete,193,shape,1,left,Green_Star_Dots_1.jpg,Blue_Star_Chess_2.jpg,Purple_Circle_Dots_3.jpg,left,590.4200000222772,true,high,false
JiaW1dc5,3wa2xvdzfpuo2njsi9v42o7kc6t6eh,3a0ex8zrnc1u1of853t89rhjxp7ybx,JiaW1dc5,2020-0188,2020-06-16,10:15:28,10:31:47,NA,incomplete,194,shape,1,right,Purple_Triangle_Stripes_2.jpg,Green_Circle_Stripes_1.jpg,Red_Triangle_Dots_3.jpg,right,577.0699999993667,true,high,false
JiaW1dc5,3wa2xvdzfpuo2njsi9v42o7kc6t6eh,3a0ex8zrnc1u1of853t89rhjxp7ybx,JiaW1dc5,2020-0188,2020-06-16,10:15:28,10:31:47,NA,incomplete,195,shape,1,left,Blue_Star_Chess_2.jpg,Purple_Star_Grid_3.jpg,Red_Circle_Chess_1.jpg,left,588.5000000125729,true,high,false
JiaW1dc5,3wa2xvdzfpuo2njsi9v42o7kc6t6eh,3a0ex8zrnc1u1of853t89rhjxp7ybx,JiaW1dc5,2020-0188,2020-06-16,10:15:28,10:31:47,NA,incomplete,196,shape,1,right,Purple_Star_Grid_1.jpg,Green_Circle_Grid_4.jpg,Red_Star_Dots_3.jpg,right,548.3249999815598,true,high,false
JiaW1dc5,3wa2xvdzfpuo2njsi9v42o7kc6t6eh,3a0ex8zrnc1u1of853t89rhjxp7ybx,JiaW1dc5,2020-0188,2020-06-16,10:15:28,10:31:47,NA,incomplete,197,shape,0,left,Red_Circle_Grid_2.jpg,Blue_Circle_Stripes_4.jpg,Purple_Plus_Grid_3.jpg,left,631.5900000045076,true,high,false
JiaW1dc5,3wa2xvdzfpuo2njsi9v42o7kc6t6eh,3a0ex8zrnc1u1of853t89rhjxp7ybx,JiaW1dc5,2020-0188,2020-06-16,10:15:28,10:31:47,NA,incomplete,198,shape,1,right,Purple_Triangle_Dots_2.jpg,Green_Star_Dots_4.jpg,Blue_Triangle_Stripes_3.jpg,right,555.4099999717437,true,high,false
JiaW1dc5,3wa2xvdzfpuo2njsi9v42o7kc6t6eh,3a0ex8zrnc1u1of853t89rhjxp7ybx,JiaW1dc5,2020-0188,2020-06-16,10:15:28,10:31:47,NA,incomplete,199,shape,1,right,Purple_Plus_Chess_3.jpg,Red_Star_Chess_4.jpg,Blue_Plus_Stripes_2.jpg,right,783.2300000009127,true,high,false
JiaW1dc5,3wa2xvdzfpuo2njsi9v42o7kc6t6eh,3a0ex8zrnc1u1of853t89rhjxp7ybx,JiaW1dc5,2020-0188,2020-06-16,10:15:28,10:31:47,NA,incomplete,200,filling,1,right,Blue_Triangle_Dots_1.jpg,Green_Triangle_Grid_2.jpg,Purple_Circle_Dots_3.jpg,left,642.0999999972992,false,high,false
JiaW1dc5,3wa2xvdzfpuo2njsi9v42o7kc6t6eh,3a0ex8zrnc1u1of853t89rhjxp7ybx,JiaW1dc5,2020-0188,2020-06-16,10:15:28,10:31:47,NA,incomplete,201,filling,1,right,Green_Circle_Chess_3.jpg,Blue_Circle_Stripes_4.jpg,Purple_Star_Chess_2.jpg,left,581.2300000106916,false,high,false
JiaW1dc5,3wa2xvdzfpuo2njsi9v42o7kc6t6eh,3a0ex8zrnc1u1of853t89rhjxp7ybx,JiaW1dc5,2020-0188,2020-06-16,10:15:28,10:31:47,NA,incomplete,202,filling,1,left,Purple_Star_Stripes_4.jpg,Red_Triangle_Stripes_2.jpg,Blue_Star_Dots_3.jpg,left,1085.5950000113808,true,high,false
JiaW1dc5,3wa2xvdzfpuo2njsi9v42o7kc6t6eh,3a0ex8zrnc1u1of853t89rhjxp7ybx,JiaW1dc5,2020-0188,2020-06-16,10:15:28,10:31:47,NA,incomplete,203,filling,0,right,Blue_Plus_Chess_2.jpg,Red_Plus_Dots_4.jpg,Purple_Star_Chess_1.jpg,right,870.0400000088848,true,high,false
JiaW1dc5,3wa2xvdzfpuo2njsi9v42o7kc6t6eh,3a0ex8zrnc1u1of853t89rhjxp7ybx,JiaW1dc5,2020-0188,2020-06-16,10:15:28,10:31:47,NA,incomplete,204,filling,1,left,Blue_Triangle_Chess_3.jpg,Green_Circle_Chess_2.jpg,Purple_Triangle_Stripes_4.jpg,left,1099.2800000240095,true,high,false
JiaW1dc5,3wa2xvdzfpuo2njsi9v42o7kc6t6eh,3a0ex8zrnc1u1of853t89rhjxp7ybx,JiaW1dc5,2020-0188,2020-06-16,10:15:28,10:31:47,NA,incomplete,205,filling,0,right,Blue_Triangle_Grid_1.jpg,Green_Triangle_Dots_3.jpg,Red_Star_Grid_2.jpg,right,1060.7399999862537,true,high,false
JiaW1dc5,3wa2xvdzfpuo2njsi9v42o7kc6t6eh,3a0ex8zrnc1u1of853t89rhjxp7ybx,JiaW1dc5,2020-0188,2020-06-16,10:15:28,10:31:47,NA,incomplete,206,filling,1,left,Green_Star_Dots_4.jpg,Blue_Circle_Dots_3.jpg,Red_Star_Stripes_2.jpg,right,1099.7499999939464,false,high,false
JiaW1dc5,3wa2xvdzfpuo2njsi9v42o7kc6t6eh,3a0ex8zrnc1u1of853t89rhjxp7ybx,JiaW1dc5,2020-0188,2020-06-16,10:15:28,10:31:47,NA,incomplete,207,filling,1,right,Red_Star_Chess_2.jpg,Purple_Star_Stripes_4.jpg,Blue_Circle_Chess_1.jpg,left,832.9200000152923,false,high,false
JiaW1dc5,3wa2xvdzfpuo2njsi9v42o7kc6t6eh,3a0ex8zrnc1u1of853t89rhjxp7ybx,JiaW1dc5,2020-0188,2020-06-16,10:15:28,10:31:47,NA,incomplete,208,filling,1,left,Red_Plus_Chess_1.jpg,Blue_Star_Chess_2.jpg,Green_Plus_Stripes_4.jpg,left,898.1700000003912,true,high,false
JiaW1dc5,3wa2xvdzfpuo2njsi9v42o7kc6t6eh,3a0ex8zrnc1u1of853t89rhjxp7ybx,JiaW1dc5,2020-0188,2020-06-16,10:15:28,10:31:47,NA,incomplete,209,filling,1,right,Green_Circle_Stripes_1.jpg,Blue_Circle_Dots_4.jpg,Red_Plus_Stripes_3.jpg,right,987.6550000044517,true,high,false
JiaW1dc5,3wa2xvdzfpuo2njsi9v42o7kc6t6eh,3a0ex8zrnc1u1of853t89rhjxp7ybx,JiaW1dc5,2020-0188,2020-06-16,10:15:28,10:31:47,NA,incomplete,210,filling,1,left,Red_Circle_Dots_3.jpg,Green_Triangle_Dots_4.jpg,Blue_Circle_Grid_2.jpg,left,848.4700000262819,true,high,false
JiaW1dc5,3wa2xvdzfpuo2njsi9v42o7kc6t6eh,3a0ex8zrnc1u1of853t89rhjxp7ybx,JiaW1dc5,2020-0188,2020-06-16,10:15:28,10:31:47,NA,incomplete,211,filling,1,right,Blue_Circle_Stripes_3.jpg,Red_Circle_Chess_4.jpg,Purple_Star_Stripes_2.jpg,right,841.3949999958277,true,high,false
JiaW1dc5,3wa2xvdzfpuo2njsi9v42o7kc6t6eh,3a0ex8zrnc1u1of853t89rhjxp7ybx,JiaW1dc5,2020-0188,2020-06-16,10:15:28,10:31:47,NA,incomplete,212,filling,0,right,Green_Star_Grid_4.jpg,Red_Star_Chess_3.jpg,Purple_Circle_Grid_1.jpg,right,907.5799999991432,true,high,false
JiaW1dc5,3wa2xvdzfpuo2njsi9v42o7kc6t6eh,3a0ex8zrnc1u1of853t89rhjxp7ybx,JiaW1dc5,2020-0188,2020-06-16,10:15:28,10:31:47,NA,incomplete,213,filling,1,right,Red_Star_Dots_4.jpg,Purple_Star_Stripes_1.jpg,Blue_Plus_Dots_2.jpg,right,790.0350000127219,true,high,false
JiaW1dc5,3wa2xvdzfpuo2njsi9v42o7kc6t6eh,3a0ex8zrnc1u1of853t89rhjxp7ybx,JiaW1dc5,2020-0188,2020-06-16,10:15:28,10:31:47,NA,incomplete,214,filling,0,left,Purple_Circle_Dots_1.jpg,Blue_Plus_Dots_3.jpg,Green_Circle_Chess_4.jpg,left,731.0649999999441,true,high,false
JiaW1dc5,3wa2xvdzfpuo2njsi9v42o7kc6t6eh,3a0ex8zrnc1u1of853t89rhjxp7ybx,JiaW1dc5,2020-0188,2020-06-16,10:15:28,10:31:47,NA,incomplete,215,filling,1,right,Blue_Star_Dots_1.jpg,Purple_Star_Chess_2.jpg,Green_Triangle_Dots_4.jpg,right,786.2700000405312,true,high,false
JiaW1dc5,3wa2xvdzfpuo2njsi9v42o7kc6t6eh,3a0ex8zrnc1u1of853t89rhjxp7ybx,JiaW1dc5,2020-0188,2020-06-16,10:15:28,10:31:47,NA,incomplete,216,filling,0,right,Purple_Plus_Chess_3.jpg,Green_Plus_Dots_2.jpg,Blue_Circle_Chess_1.jpg,right,842.609999992419,true,high,false
JiaW1dc5,3wa2xvdzfpuo2njsi9v42o7kc6t6eh,3a0ex8zrnc1u1of853t89rhjxp7ybx,JiaW1dc5,2020-0188,2020-06-16,10:15:28,10:31:47,NA,incomplete,217,filling,1,left,Green_Circle_Dots_3.jpg,Purple_Plus_Dots_4.jpg,Blue_Circle_Grid_1.jpg,right,733.9050000300631,false,high,false
JiaW1dc5,3wa2xvdzfpuo2njsi9v42o7kc6t6eh,3a0ex8zrnc1u1of853t89rhjxp7ybx,JiaW1dc5,2020-0188,2020-06-16,10:15:28,10:31:47,NA,incomplete,218,filling,1,right,Red_Plus_Chess_1.jpg,Purple_Plus_Stripes_4.jpg,Blue_Circle_Chess_2.jpg,right,951.3049999950454,true,high,false
JiaW1dc5,3wa2xvdzfpuo2njsi9v42o7kc6t6eh,3a0ex8zrnc1u1of853t89rhjxp7ybx,JiaW1dc5,2020-0188,2020-06-16,10:15:28,10:31:47,NA,incomplete,219,filling,1,right,Red_Star_Dots_1.jpg,Blue_Star_Stripes_2.jpg,Green_Plus_Dots_4.jpg,right,963.4499999810942,true,high,false
JiaW1dc5,3wa2xvdzfpuo2njsi9v42o7kc6t6eh,3a0ex8zrnc1u1of853t89rhjxp7ybx,JiaW1dc5,2020-0188,2020-06-16,10:15:28,10:31:47,NA,incomplete,220,shape,1,left,Purple_Triangle_Grid_2.jpg,Blue_Triangle_Dots_4.jpg,Green_Plus_Grid_1.jpg,right,936.6350000491366,false,high,false
JiaW1dc5,3wa2xvdzfpuo2njsi9v42o7kc6t6eh,3a0ex8zrnc1u1of853t89rhjxp7ybx,JiaW1dc5,2020-0188,2020-06-16,10:15:28,10:31:47,NA,incomplete,221,shape,1,left,Red_Plus_Stripes_4.jpg,Blue_Plus_Chess_2.jpg,Purple_Circle_Stripes_1.jpg,left,667.7299999864772,true,high,false
JiaW1dc5,3wa2xvdzfpuo2njsi9v42o7kc6t6eh,3a0ex8zrnc1u1of853t89rhjxp7ybx,JiaW1dc5,2020-0188,2020-06-16,10:15:28,10:31:47,NA,incomplete,222,shape,1,left,Red_Star_Chess_2.jpg,Green_Star_Grid_3.jpg,Purple_Circle_Chess_1.jpg,left,538.9800000120886,true,high,false
JiaW1dc5,3wa2xvdzfpuo2njsi9v42o7kc6t6eh,3a0ex8zrnc1u1of853t89rhjxp7ybx,JiaW1dc5,2020-0188,2020-06-16,10:15:28,10:31:47,NA,incomplete,223,shape,1,right,Green_Plus_Stripes_3.jpg,Red_Circle_Stripes_1.jpg,Purple_Plus_Grid_4.jpg,right,1208.9900000137277,true,high,false
JiaW1dc5,3wa2xvdzfpuo2njsi9v42o7kc6t6eh,3a0ex8zrnc1u1of853t89rhjxp7ybx,JiaW1dc5,2020-0188,2020-06-16,10:15:28,10:31:47,NA,incomplete,224,shape,1,right,Red_Star_Stripes_3.jpg,Blue_Circle_Stripes_1.jpg,Purple_Star_Grid_4.jpg,right,746.6399999684654,true,high,false
JiaW1dc5,3wa2xvdzfpuo2njsi9v42o7kc6t6eh,3a0ex8zrnc1u1of853t89rhjxp7ybx,JiaW1dc5,2020-0188,2020-06-16,10:15:28,10:31:47,NA,incomplete,225,shape,0,right,Blue_Star_Dots_2.jpg,Purple_Circle_Dots_4.jpg,Green_Star_Grid_3.jpg,right,736.5699999500066,true,high,false
JiaW1dc5,3wa2xvdzfpuo2njsi9v42o7kc6t6eh,3a0ex8zrnc1u1of853t89rhjxp7ybx,JiaW1dc5,2020-0188,2020-06-16,10:15:28,10:31:47,NA,incomplete,226,shape,1,left,Blue_Plus_Dots_2.jpg,Purple_Plus_Grid_4.jpg,Green_Star_Dots_3.jpg,left,689.6800000104122,true,high,false
JiaW1dc5,3wa2xvdzfpuo2njsi9v42o7kc6t6eh,3a0ex8zrnc1u1of853t89rhjxp7ybx,JiaW1dc5,2020-0188,2020-06-16,10:15:28,10:31:47,NA,incomplete,227,shape,1,left,Red_Star_Stripes_2.jpg,Purple_Star_Dots_1.jpg,Green_Triangle_Stripes_3.jpg,left,643.4099999605678,true,high,false
JiaW1dc5,3wa2xvdzfpuo2njsi9v42o7kc6t6eh,3a0ex8zrnc1u1of853t89rhjxp7ybx,JiaW1dc5,2020-0188,2020-06-16,10:15:28,10:31:47,NA,incomplete,228,shape,1,left,Green_Triangle_Chess_1.jpg,Red_Triangle_Dots_2.jpg,Purple_Circle_Chess_3.jpg,left,585.5699999956414,true,high,false
JiaW1dc5,3wa2xvdzfpuo2njsi9v42o7kc6t6eh,3a0ex8zrnc1u1of853t89rhjxp7ybx,JiaW1dc5,2020-0188,2020-06-16,10:15:28,10:31:47,NA,incomplete,229,shape,0,right,Red_Plus_Stripes_3.jpg,Blue_Triangle_Stripes_1.jpg,Purple_Plus_Grid_2.jpg,right,614.739999989979,true,high,false
JiaW1dc5,3wa2xvdzfpuo2njsi9v42o7kc6t6eh,3a0ex8zrnc1u1of853t89rhjxp7ybx,JiaW1dc5,2020-0188,2020-06-16,10:15:28,10:31:47,NA,incomplete,230,shape,1,left,Blue_Plus_Grid_4.jpg,Green_Plus_Stripes_2.jpg,Red_Circle_Grid_1.jpg,left,544.8450000258163,true,high,false
JiaW1dc5,3wa2xvdzfpuo2njsi9v42o7kc6t6eh,3a0ex8zrnc1u1of853t89rhjxp7ybx,JiaW1dc5,2020-0188,2020-06-16,10:15:28,10:31:47,NA,incomplete,231,shape,0,left,Green_Circle_Stripes_1.jpg,Purple_Circle_Dots_3.jpg,Red_Plus_Stripes_2.jpg,left,703.5649999743327,true,high,false
JiaW1dc5,3wa2xvdzfpuo2njsi9v42o7kc6t6eh,3a0ex8zrnc1u1of853t89rhjxp7ybx,JiaW1dc5,2020-0188,2020-06-16,10:15:28,10:31:47,NA,incomplete,232,shape,1,right,Green_Star_Chess_1.jpg,Purple_Triangle_Chess_2.jpg,Red_Star_Stripes_3.jpg,right,551.9399999757297,true,high,false
JiaW1dc5,3wa2xvdzfpuo2njsi9v42o7kc6t6eh,3a0ex8zrnc1u1of853t89rhjxp7ybx,JiaW1dc5,2020-0188,2020-06-16,10:15:28,10:31:47,NA,incomplete,233,shape,1,right,Green_Star_Grid_3.jpg,Blue_Plus_Grid_1.jpg,Red_Star_Stripes_4.jpg,right,669.9650000082329,true,high,false
JiaW1dc5,3wa2xvdzfpuo2njsi9v42o7kc6t6eh,3a0ex8zrnc1u1of853t89rhjxp7ybx,JiaW1dc5,2020-0188,2020-06-16,10:15:28,10:31:47,NA,incomplete,234,shape,1,left,Blue_Circle_Stripes_3.jpg,Green_Circle_Dots_4.jpg,Red_Star_Stripes_2.jpg,left,550.3649999736808,true,high,false
JiaW1dc5,3wa2xvdzfpuo2njsi9v42o7kc6t6eh,3a0ex8zrnc1u1of853t89rhjxp7ybx,JiaW1dc5,2020-0188,2020-06-16,10:15:28,10:31:47,NA,incomplete,235,shape,1,right,Red_Plus_Dots_4.jpg,Purple_Triangle_Dots_1.jpg,Blue_Plus_Chess_3.jpg,right,791.2749999668449,true,high,false
JiaW1dc5,3wa2xvdzfpuo2njsi9v42o7kc6t6eh,3a0ex8zrnc1u1of853t89rhjxp7ybx,JiaW1dc5,2020-0188,2020-06-16,10:15:28,10:31:47,NA,incomplete,236,shape,1,left,Purple_Triangle_Grid_3.jpg,Red_Triangle_Chess_2.jpg,Blue_Plus_Grid_1.jpg,left,573.8450000062585,true,high,false
JiaW1dc5,3wa2xvdzfpuo2njsi9v42o7kc6t6eh,3a0ex8zrnc1u1of853t89rhjxp7ybx,JiaW1dc5,2020-0188,2020-06-16,10:15:28,10:31:47,NA,incomplete,237,shape,1,left,Green_Circle_Dots_1.jpg,Red_Circle_Chess_2.jpg,Blue_Star_Dots_3.jpg,left,492.1549999853596,true,high,false
JiaW1dc5,3wa2xvdzfpuo2njsi9v42o7kc6t6eh,3a0ex8zrnc1u1of853t89rhjxp7ybx,JiaW1dc5,2020-0188,2020-06-16,10:15:28,10:31:47,NA,incomplete,238,shape,0,right,Blue_Circle_Chess_2.jpg,Green_Star_Chess_3.jpg,Red_Circle_Grid_4.jpg,right,622.6400000159629,true,high,false
JiaW1dc5,3wa2xvdzfpuo2njsi9v42o7kc6t6eh,3a0ex8zrnc1u1of853t89rhjxp7ybx,JiaW1dc5,2020-0188,2020-06-16,10:15:28,10:31:47,NA,incomplete,239,shape,1,right,Blue_Triangle_Grid_3.jpg,Green_Circle_Grid_4.jpg,Red_Triangle_Chess_2.jpg,right,606.389999971725,true,high,false
JiaW1dc5,3wa2xvdzfpuo2njsi9v42o7kc6t6eh,3a0ex8zrnc1u1of853t89rhjxp7ybx,JiaW1dc5,2020-0188,2020-06-16,10:15:28,10:31:47,NA,NA,instruction example,number,NA,NA,Green_Plus_Stripes_4.jpg,Red_Circle_Dots_4.jpg,Green_Star_Grid_1.jpg,NA,NA,NA,NA,undefined
JiaW1dc5,3wa2xvdzfpuo2njsi9v42o7kc6t6eh,3a0ex8zrnc1u1of853t89rhjxp7ybx,JiaW1dc5,2020-0188,2020-06-16,10:15:28,10:31:47,NA,NA,instruction example,number,NA,NA,Blue_Star_Stripes_4.jpg,Blue_Circle_Grid_1.jpg,Green_Plus_Dots_4.jpg,NA,NA,NA,NA,undefined
JiaW1dc5,3wa2xvdzfpuo2njsi9v42o7kc6t6eh,3a0ex8zrnc1u1of853t89rhjxp7ybx,JiaW1dc5,2020-0188,2020-06-16,10:15:28,10:31:47,NA,NA,instruction example,number,NA,NA,Red_Star_Dots_4.jpg,Purple_Triangle_Dots_3.jpg,Green_Star_Chess_1.jpg,NA,NA,NA,NA,undefined
JiaW1dc5,3wa2xvdzfpuo2njsi9v42o7kc6t6eh,3a0ex8zrnc1u1of853t89rhjxp7ybx,JiaW1dc5,2020-0188,2020-06-16,10:15:28,10:31:47,NA,NA,instruction example,number,NA,NA,Blue_Plus_Dots_2.jpg,Purple_Plus_Stripes_4.jpg,Red_Star_Dots_3.jpg,NA,NA,NA,NA,undefined
JiaW1dc5,3wa2xvdzfpuo2njsi9v42o7kc6t6eh,3a0ex8zrnc1u1of853t89rhjxp7ybx,JiaW1dc5,2020-0188,2020-06-16,10:15:28,10:31:47,951177.3249999969,980734.7149999696,NA,NA,NA,NA,NA,NA,NA,NA,NA,NA,NA,undefined
