workerId,hitId,assignmentId,subject,studyid,exp_date,exp_start,exp_end,time_start,time_end,trial,type,reward_validity,answer,image_top,image_left,image_right,response,response_time,response_acc,volatility,age,race,gender,ethnicity,color,vision,neuro,practice
la50S1ru,3dzkabx20liukfefnqxhosng7x6cv3,3a1pq49wvlu72v7rt6wvhf97hhah11,la50S1ru,2020-0188,2020-05-21,14:21:10,14:39:14,NA,incomplete,0,color,1,right,Purple_Plus_Chess_1.jpg,Blue_Plus_Dots_3.jpg,Purple_Circle_Grid_4.jpg,right,888.6049999855459,true,NA,NA,NA,NA,NA,NA,NA,NA,true
la50S1ru,3dzkabx20liukfefnqxhosng7x6cv3,3a1pq49wvlu72v7rt6wvhf97hhah11,la50S1ru,2020-0188,2020-05-21,14:21:10,14:39:14,NA,incomplete,1,color,0,left,Purple_Star_Dots_3.jpg,Purple_Circle_Grid_1.jpg,Green_Star_Stripes_4.jpg,left,781.8350000306964,true,NA,NA,NA,NA,NA,NA,NA,NA,true
la50S1ru,3dzkabx20liukfefnqxhosng7x6cv3,3a1pq49wvlu72v7rt6wvhf97hhah11,la50S1ru,2020-0188,2020-05-21,14:21:10,14:39:14,NA,incomplete,2,color,1,right,Purple_Plus_Chess_3.jpg,Blue_Plus_Grid_2.jpg,Purple_Circle_Stripes_4.jpg,right,613.0750002339482,true,NA,NA,NA,NA,NA,NA,NA,NA,true
la50S1ru,3dzkabx20liukfefnqxhosng7x6cv3,3a1pq49wvlu72v7rt6wvhf97hhah11,la50S1ru,2020-0188,2020-05-21,14:21:10,14:39:14,NA,incomplete,3,color,0,right,Purple_Plus_Stripes_3.jpg,Red_Plus_Grid_1.jpg,Purple_Triangle_Chess_4.jpg,right,873.1650002300739,true,NA,NA,NA,NA,NA,NA,NA,NA,true
la50S1ru,3dzkabx20liukfefnqxhosng7x6cv3,3a1pq49wvlu72v7rt6wvhf97hhah11,la50S1ru,2020-0188,2020-05-21,14:21:10,14:39:14,NA,incomplete,4,color,1,left,Red_Circle_Stripes_4.jpg,Red_Plus_Chess_3.jpg,Green_Circle_Dots_2.jpg,left,601.7149998806417,true,NA,NA,NA,NA,NA,NA,NA,NA,true
la50S1ru,3dzkabx20liukfefnqxhosng7x6cv3,3a1pq49wvlu72v7rt6wvhf97hhah11,la50S1ru,2020-0188,2020-05-21,14:21:10,14:39:14,NA,incomplete,5,color,1,right,Purple_Circle_Stripes_2.jpg,Blue_Circle_Chess_4.jpg,Purple_Star_Grid_3.jpg,right,814.9750004522502,true,NA,NA,NA,NA,NA,NA,NA,NA,true
la50S1ru,3dzkabx20liukfefnqxhosng7x6cv3,3a1pq49wvlu72v7rt6wvhf97hhah11,la50S1ru,2020-0188,2020-05-21,14:21:10,14:39:14,NA,incomplete,6,color,1,left,Green_Circle_Grid_2.jpg,Green_Star_Chess_1.jpg,Blue_Circle_Stripes_4.jpg,left,596.6350003145635,true,NA,NA,NA,NA,NA,NA,NA,NA,true
la50S1ru,3dzkabx20liukfefnqxhosng7x6cv3,3a1pq49wvlu72v7rt6wvhf97hhah11,la50S1ru,2020-0188,2020-05-21,14:21:10,14:39:14,NA,incomplete,7,color,1,left,Blue_Triangle_Dots_1.jpg,Blue_Star_Stripes_4.jpg,Purple_Triangle_Grid_2.jpg,left,754.2150001972914,true,NA,NA,NA,NA,NA,NA,NA,NA,true
la50S1ru,3dzkabx20liukfefnqxhosng7x6cv3,3a1pq49wvlu72v7rt6wvhf97hhah11,la50S1ru,2020-0188,2020-05-21,14:21:10,14:39:14,NA,incomplete,8,color,1,right,Red_Plus_Chess_1.jpg,Purple_Plus_Stripes_4.jpg,Red_Triangle_Grid_2.jpg,right,618.9250000752509,true,NA,NA,NA,NA,NA,NA,NA,NA,true
la50S1ru,3dzkabx20liukfefnqxhosng7x6cv3,3a1pq49wvlu72v7rt6wvhf97hhah11,la50S1ru,2020-0188,2020-05-21,14:21:10,14:39:14,NA,incomplete,9,color,0,left,Blue_Plus_Dots_3.jpg,Blue_Circle_Grid_1.jpg,Red_Plus_Chess_4.jpg,right,940.5049998313189,false,NA,NA,NA,NA,NA,NA,NA,NA,true
la50S1ru,3dzkabx20liukfefnqxhosng7x6cv3,3a1pq49wvlu72v7rt6wvhf97hhah11,la50S1ru,2020-0188,2020-05-21,14:21:10,14:39:14,NA,incomplete,10,color,1,left,Red_Circle_Dots_3.jpg,Red_Plus_Grid_2.jpg,Purple_Circle_Chess_4.jpg,left,726.6950001940131,true,NA,NA,NA,NA,NA,NA,NA,NA,true
la50S1ru,3dzkabx20liukfefnqxhosng7x6cv3,3a1pq49wvlu72v7rt6wvhf97hhah11,la50S1ru,2020-0188,2020-05-21,14:21:10,14:39:14,NA,incomplete,11,color,1,right,Blue_Plus_Grid_4.jpg,Red_Plus_Dots_1.jpg,Blue_Triangle_Stripes_3.jpg,right,1493.7950000166893,true,NA,NA,NA,NA,NA,NA,NA,NA,true
la50S1ru,3dzkabx20liukfefnqxhosng7x6cv3,3a1pq49wvlu72v7rt6wvhf97hhah11,la50S1ru,2020-0188,2020-05-21,14:21:10,14:39:14,NA,incomplete,12,color,0,left,Blue_Circle_Dots_2.jpg,Blue_Star_Chess_4.jpg,Green_Circle_Stripes_3.jpg,left,928.6950002424419,true,NA,NA,NA,NA,NA,NA,NA,NA,true
la50S1ru,3dzkabx20liukfefnqxhosng7x6cv3,3a1pq49wvlu72v7rt6wvhf97hhah11,la50S1ru,2020-0188,2020-05-21,14:21:10,14:39:14,NA,incomplete,13,color,1,right,Blue_Star_Chess_3.jpg,Green_Star_Grid_2.jpg,Blue_Plus_Dots_4.jpg,left,1284.4949997961521,false,NA,NA,NA,NA,NA,NA,NA,NA,true
la50S1ru,3dzkabx20liukfefnqxhosng7x6cv3,3a1pq49wvlu72v7rt6wvhf97hhah11,la50S1ru,2020-0188,2020-05-21,14:21:10,14:39:14,NA,incomplete,14,color,1,right,Blue_Plus_Dots_2.jpg,Red_Plus_Grid_4.jpg,Blue_Triangle_Chess_1.jpg,right,864.2000001855195,true,NA,NA,NA,NA,NA,NA,NA,NA,true
la50S1ru,3dzkabx20liukfefnqxhosng7x6cv3,3a1pq49wvlu72v7rt6wvhf97hhah11,la50S1ru,2020-0188,2020-05-21,14:21:10,14:39:14,NA,incomplete,15,color,1,left,Red_Plus_Chess_4.jpg,Red_Circle_Dots_3.jpg,Purple_Plus_Stripes_1.jpg,left,890.445000026375,true,NA,NA,NA,NA,NA,NA,NA,NA,true
la50S1ru,3dzkabx20liukfefnqxhosng7x6cv3,3a1pq49wvlu72v7rt6wvhf97hhah11,la50S1ru,2020-0188,2020-05-21,14:21:10,14:39:14,NA,incomplete,16,color,1,left,Red_Plus_Dots_2.jpg,Red_Triangle_Stripes_4.jpg,Purple_Plus_Chess_3.jpg,left,841.9099999591708,true,NA,NA,NA,NA,NA,NA,NA,NA,true
la50S1ru,3dzkabx20liukfefnqxhosng7x6cv3,3a1pq49wvlu72v7rt6wvhf97hhah11,la50S1ru,2020-0188,2020-05-21,14:21:10,14:39:14,NA,incomplete,17,color,1,right,Blue_Triangle_Stripes_1.jpg,Red_Triangle_Chess_3.jpg,Blue_Star_Dots_2.jpg,right,1103.7649996578693,true,NA,NA,NA,NA,NA,NA,NA,NA,true
la50S1ru,3dzkabx20liukfefnqxhosng7x6cv3,3a1pq49wvlu72v7rt6wvhf97hhah11,la50S1ru,2020-0188,2020-05-21,14:21:10,14:39:14,NA,incomplete,18,color,1,left,Purple_Triangle_Grid_3.jpg,Purple_Circle_Stripes_4.jpg,Green_Triangle_Dots_1.jpg,left,947.3850000649691,true,NA,NA,NA,NA,NA,NA,NA,NA,true
la50S1ru,3dzkabx20liukfefnqxhosng7x6cv3,3a1pq49wvlu72v7rt6wvhf97hhah11,la50S1ru,2020-0188,2020-05-21,14:21:10,14:39:14,NA,incomplete,19,color,1,right,Blue_Star_Stripes_3.jpg,Purple_Star_Dots_2.jpg,Blue_Plus_Grid_4.jpg,right,601.8500002101064,true,NA,NA,NA,NA,NA,NA,NA,NA,true
la50S1ru,3dzkabx20liukfefnqxhosng7x6cv3,3a1pq49wvlu72v7rt6wvhf97hhah11,la50S1ru,2020-0188,2020-05-21,14:21:10,14:39:14,NA,incomplete,20,shape,1,right,Purple_Triangle_Chess_2.jpg,Purple_Star_Dots_3.jpg,Blue_Triangle_Grid_1.jpg,right,1616.6150001809,true,NA,NA,NA,NA,NA,NA,NA,NA,true
la50S1ru,3dzkabx20liukfefnqxhosng7x6cv3,3a1pq49wvlu72v7rt6wvhf97hhah11,la50S1ru,2020-0188,2020-05-21,14:21:10,14:39:14,NA,incomplete,21,shape,1,left,Purple_Plus_Stripes_2.jpg,Red_Plus_Chess_4.jpg,Purple_Star_Dots_1.jpg,left,1366.4200003258884,true,NA,NA,NA,NA,NA,NA,NA,NA,true
la50S1ru,3dzkabx20liukfefnqxhosng7x6cv3,3a1pq49wvlu72v7rt6wvhf97hhah11,la50S1ru,2020-0188,2020-05-21,14:21:10,14:39:14,NA,incomplete,22,shape,1,left,Green_Triangle_Dots_2.jpg,Red_Triangle_Stripes_1.jpg,Green_Star_Grid_4.jpg,left,862.0000001974404,true,NA,NA,NA,NA,NA,NA,NA,NA,true
la50S1ru,3dzkabx20liukfefnqxhosng7x6cv3,3a1pq49wvlu72v7rt6wvhf97hhah11,la50S1ru,2020-0188,2020-05-21,14:21:10,14:39:14,NA,incomplete,23,shape,0,right,Blue_Triangle_Stripes_1.jpg,Blue_Circle_Chess_4.jpg,Green_Triangle_Grid_3.jpg,right,1082.715000025928,true,NA,NA,NA,NA,NA,NA,NA,NA,true
la50S1ru,3dzkabx20liukfefnqxhosng7x6cv3,3a1pq49wvlu72v7rt6wvhf97hhah11,la50S1ru,2020-0188,2020-05-21,14:21:10,14:39:14,NA,incomplete,24,shape,0,right,Red_Plus_Grid_4.jpg,Red_Star_Dots_1.jpg,Green_Plus_Stripes_3.jpg,right,1144.5749998092651,true,NA,NA,NA,NA,NA,NA,NA,NA,true
la50S1ru,3dzkabx20liukfefnqxhosng7x6cv3,3a1pq49wvlu72v7rt6wvhf97hhah11,la50S1ru,2020-0188,2020-05-21,14:21:10,14:39:14,NA,incomplete,25,shape,1,left,Green_Circle_Chess_3.jpg,Red_Circle_Dots_4.jpg,Green_Triangle_Stripes_1.jpg,left,1157.7349998988211,true,NA,NA,NA,NA,NA,NA,NA,NA,true
la50S1ru,3dzkabx20liukfefnqxhosng7x6cv3,3a1pq49wvlu72v7rt6wvhf97hhah11,la50S1ru,2020-0188,2020-05-21,14:21:10,14:39:14,NA,incomplete,26,shape,1,right,Green_Triangle_Dots_1.jpg,Green_Plus_Chess_2.jpg,Blue_Triangle_Stripes_4.jpg,right,963.6299996636808,true,NA,NA,NA,NA,NA,NA,NA,NA,true
la50S1ru,3dzkabx20liukfefnqxhosng7x6cv3,3a1pq49wvlu72v7rt6wvhf97hhah11,la50S1ru,2020-0188,2020-05-21,14:21:10,14:39:14,NA,incomplete,27,shape,0,right,Blue_Circle_Chess_3.jpg,Blue_Triangle_Grid_1.jpg,Purple_Circle_Stripes_2.jpg,right,1052.3350001312792,true,NA,NA,NA,NA,NA,NA,NA,NA,true
la50S1ru,3dzkabx20liukfefnqxhosng7x6cv3,3a1pq49wvlu72v7rt6wvhf97hhah11,la50S1ru,2020-0188,2020-05-21,14:21:10,14:39:14,NA,incomplete,28,shape,1,left,Purple_Triangle_Chess_2.jpg,Green_Triangle_Dots_4.jpg,Purple_Star_Grid_3.jpg,left,1102.2600000724196,true,NA,NA,NA,NA,NA,NA,NA,NA,true
la50S1ru,3dzkabx20liukfefnqxhosng7x6cv3,3a1pq49wvlu72v7rt6wvhf97hhah11,la50S1ru,2020-0188,2020-05-21,14:21:10,14:39:14,NA,incomplete,29,shape,1,left,Blue_Star_Chess_4.jpg,Green_Star_Grid_2.jpg,Blue_Triangle_Dots_1.jpg,none,0,false,NA,NA,NA,NA,NA,NA,NA,NA,true
la50S1ru,3dzkabx20liukfefnqxhosng7x6cv3,3a1pq49wvlu72v7rt6wvhf97hhah11,la50S1ru,2020-0188,2020-05-21,14:21:10,14:39:14,NA,incomplete,30,shape,0,right,Red_Circle_Stripes_4.jpg,Red_Star_Dots_2.jpg,Purple_Circle_Chess_3.jpg,right,1386.129999998957,true,NA,NA,NA,NA,NA,NA,NA,NA,true
la50S1ru,3dzkabx20liukfefnqxhosng7x6cv3,3a1pq49wvlu72v7rt6wvhf97hhah11,la50S1ru,2020-0188,2020-05-21,14:21:10,14:39:14,NA,incomplete,31,shape,1,right,Red_Star_Chess_3.jpg,Red_Plus_Dots_1.jpg,Green_Star_Stripes_2.jpg,right,954.5650002546608,true,NA,NA,NA,NA,NA,NA,NA,NA,true
la50S1ru,3dzkabx20liukfefnqxhosng7x6cv3,3a1pq49wvlu72v7rt6wvhf97hhah11,la50S1ru,2020-0188,2020-05-21,14:21:10,14:39:14,NA,incomplete,32,shape,1,left,Green_Circle_Chess_1.jpg,Blue_Circle_Stripes_3.jpg,Green_Star_Grid_4.jpg,left,812.2600000351667,true,NA,NA,NA,NA,NA,NA,NA,NA,true
la50S1ru,3dzkabx20liukfefnqxhosng7x6cv3,3a1pq49wvlu72v7rt6wvhf97hhah11,la50S1ru,2020-0188,2020-05-21,14:21:10,14:39:14,NA,incomplete,33,shape,1,left,Purple_Triangle_Stripes_1.jpg,Green_Triangle_Grid_2.jpg,Purple_Star_Chess_4.jpg,left,940.0849998928607,true,NA,NA,NA,NA,NA,NA,NA,NA,true
la50S1ru,3dzkabx20liukfefnqxhosng7x6cv3,3a1pq49wvlu72v7rt6wvhf97hhah11,la50S1ru,2020-0188,2020-05-21,14:21:10,14:39:14,NA,incomplete,34,shape,1,right,Blue_Star_Stripes_3.jpg,Blue_Triangle_Chess_1.jpg,Red_Star_Dots_4.jpg,right,935.7650000602007,true,NA,NA,NA,NA,NA,NA,NA,NA,true
la50S1ru,3dzkabx20liukfefnqxhosng7x6cv3,3a1pq49wvlu72v7rt6wvhf97hhah11,la50S1ru,2020-0188,2020-05-21,14:21:10,14:39:14,NA,incomplete,35,shape,1,right,Purple_Star_Stripes_1.jpg,Purple_Plus_Dots_4.jpg,Red_Star_Chess_2.jpg,right,1020.7150001078844,true,NA,NA,NA,NA,NA,NA,NA,NA,true
la50S1ru,3dzkabx20liukfefnqxhosng7x6cv3,3a1pq49wvlu72v7rt6wvhf97hhah11,la50S1ru,2020-0188,2020-05-21,14:21:10,14:39:14,NA,incomplete,36,shape,1,right,Green_Circle_Chess_4.jpg,Green_Triangle_Stripes_2.jpg,Red_Circle_Dots_3.jpg,right,1065.2899998240173,true,NA,NA,NA,NA,NA,NA,NA,NA,true
la50S1ru,3dzkabx20liukfefnqxhosng7x6cv3,3a1pq49wvlu72v7rt6wvhf97hhah11,la50S1ru,2020-0188,2020-05-21,14:21:10,14:39:14,NA,incomplete,37,shape,1,left,Red_Plus_Dots_2.jpg,Purple_Plus_Stripes_3.jpg,Red_Circle_Chess_4.jpg,left,840.9850001335144,true,NA,NA,NA,NA,NA,NA,NA,NA,true
la50S1ru,3dzkabx20liukfefnqxhosng7x6cv3,3a1pq49wvlu72v7rt6wvhf97hhah11,la50S1ru,2020-0188,2020-05-21,14:21:10,14:39:14,NA,incomplete,38,shape,1,left,Purple_Plus_Stripes_2.jpg,Green_Plus_Dots_4.jpg,Purple_Triangle_Chess_1.jpg,left,953.1499999575317,true,NA,NA,NA,NA,NA,NA,NA,NA,true
la50S1ru,3dzkabx20liukfefnqxhosng7x6cv3,3a1pq49wvlu72v7rt6wvhf97hhah11,la50S1ru,2020-0188,2020-05-21,14:21:10,14:39:14,NA,incomplete,39,shape,1,right,Blue_Star_Dots_3.jpg,Blue_Plus_Stripes_2.jpg,Red_Star_Grid_1.jpg,right,965.3199999593198,true,NA,NA,NA,NA,NA,NA,NA,NA,true
la50S1ru,3dzkabx20liukfefnqxhosng7x6cv3,3a1pq49wvlu72v7rt6wvhf97hhah11,la50S1ru,2020-0188,2020-05-21,14:21:10,14:39:14,NA,incomplete,0,color,1,left,Red_Triangle_Stripes_3.jpg,Red_Plus_Chess_4.jpg,Green_Triangle_Dots_1.jpg,left,983.0050002783537,true,low,NA,NA,NA,NA,NA,NA,NA,false
la50S1ru,3dzkabx20liukfefnqxhosng7x6cv3,3a1pq49wvlu72v7rt6wvhf97hhah11,la50S1ru,2020-0188,2020-05-21,14:21:10,14:39:14,NA,incomplete,1,color,1,left,Red_Plus_Chess_1.jpg,Red_Star_Grid_2.jpg,Purple_Plus_Stripes_4.jpg,left,793.8449997454882,true,low,NA,NA,NA,NA,NA,NA,NA,false
la50S1ru,3dzkabx20liukfefnqxhosng7x6cv3,3a1pq49wvlu72v7rt6wvhf97hhah11,la50S1ru,2020-0188,2020-05-21,14:21:10,14:39:14,NA,incomplete,2,color,0,right,Red_Circle_Stripes_3.jpg,Green_Circle_Grid_2.jpg,Red_Triangle_Chess_4.jpg,right,681.6099998541176,true,low,NA,NA,NA,NA,NA,NA,NA,false
la50S1ru,3dzkabx20liukfefnqxhosng7x6cv3,3a1pq49wvlu72v7rt6wvhf97hhah11,la50S1ru,2020-0188,2020-05-21,14:21:10,14:39:14,NA,incomplete,3,color,1,left,Red_Triangle_Chess_2.jpg,Red_Plus_Dots_4.jpg,Purple_Triangle_Stripes_1.jpg,left,998.139999806881,true,low,NA,NA,NA,NA,NA,NA,NA,false
la50S1ru,3dzkabx20liukfefnqxhosng7x6cv3,3a1pq49wvlu72v7rt6wvhf97hhah11,la50S1ru,2020-0188,2020-05-21,14:21:10,14:39:14,NA,incomplete,4,color,1,left,Purple_Circle_Dots_3.jpg,Purple_Triangle_Stripes_1.jpg,Blue_Circle_Grid_4.jpg,left,1313.8749999925494,true,low,NA,NA,NA,NA,NA,NA,NA,false
la50S1ru,3dzkabx20liukfefnqxhosng7x6cv3,3a1pq49wvlu72v7rt6wvhf97hhah11,la50S1ru,2020-0188,2020-05-21,14:21:10,14:39:14,NA,incomplete,5,color,1,right,Green_Star_Dots_1.jpg,Red_Star_Stripes_3.jpg,Green_Circle_Grid_2.jpg,left,858.0500003881752,false,low,NA,NA,NA,NA,NA,NA,NA,false
la50S1ru,3dzkabx20liukfefnqxhosng7x6cv3,3a1pq49wvlu72v7rt6wvhf97hhah11,la50S1ru,2020-0188,2020-05-21,14:21:10,14:39:14,NA,incomplete,6,color,1,right,Green_Plus_Dots_1.jpg,Blue_Plus_Chess_3.jpg,Green_Circle_Grid_4.jpg,right,651.1599998921156,true,low,NA,NA,NA,NA,NA,NA,NA,false
la50S1ru,3dzkabx20liukfefnqxhosng7x6cv3,3a1pq49wvlu72v7rt6wvhf97hhah11,la50S1ru,2020-0188,2020-05-21,14:21:10,14:39:14,NA,incomplete,7,color,1,left,Purple_Triangle_Chess_3.jpg,Purple_Star_Dots_4.jpg,Green_Triangle_Grid_1.jpg,left,934.7749999724329,true,low,NA,NA,NA,NA,NA,NA,NA,false
la50S1ru,3dzkabx20liukfefnqxhosng7x6cv3,3a1pq49wvlu72v7rt6wvhf97hhah11,la50S1ru,2020-0188,2020-05-21,14:21:10,14:39:14,NA,incomplete,8,color,1,right,Red_Circle_Grid_2.jpg,Purple_Circle_Dots_4.jpg,Red_Star_Chess_1.jpg,left,941.7600003071129,false,low,NA,NA,NA,NA,NA,NA,NA,false
la50S1ru,3dzkabx20liukfefnqxhosng7x6cv3,3a1pq49wvlu72v7rt6wvhf97hhah11,la50S1ru,2020-0188,2020-05-21,14:21:10,14:39:14,NA,incomplete,9,color,1,right,Blue_Star_Chess_3.jpg,Purple_Star_Dots_4.jpg,Blue_Plus_Stripes_1.jpg,right,1088.1250002421439,true,low,NA,NA,NA,NA,NA,NA,NA,false
la50S1ru,3dzkabx20liukfefnqxhosng7x6cv3,3a1pq49wvlu72v7rt6wvhf97hhah11,la50S1ru,2020-0188,2020-05-21,14:21:10,14:39:14,NA,incomplete,10,color,1,left,Green_Circle_Chess_3.jpg,Green_Triangle_Dots_4.jpg,Purple_Circle_Grid_1.jpg,left,1258.850000333041,true,low,NA,NA,NA,NA,NA,NA,NA,false
la50S1ru,3dzkabx20liukfefnqxhosng7x6cv3,3a1pq49wvlu72v7rt6wvhf97hhah11,la50S1ru,2020-0188,2020-05-21,14:21:10,14:39:14,NA,incomplete,11,color,1,right,Purple_Circle_Stripes_1.jpg,Blue_Circle_Dots_3.jpg,Purple_Triangle_Chess_4.jpg,left,905.5150002241135,false,low,NA,NA,NA,NA,NA,NA,NA,false
la50S1ru,3dzkabx20liukfefnqxhosng7x6cv3,3a1pq49wvlu72v7rt6wvhf97hhah11,la50S1ru,2020-0188,2020-05-21,14:21:10,14:39:14,NA,incomplete,12,color,1,right,Purple_Star_Chess_2.jpg,Red_Star_Stripes_3.jpg,Purple_Triangle_Grid_4.jpg,none,0,false,low,NA,NA,NA,NA,NA,NA,NA,false
la50S1ru,3dzkabx20liukfefnqxhosng7x6cv3,3a1pq49wvlu72v7rt6wvhf97hhah11,la50S1ru,2020-0188,2020-05-21,14:21:10,14:39:14,NA,incomplete,13,color,1,left,Red_Triangle_Grid_3.jpg,Red_Star_Stripes_1.jpg,Purple_Triangle_Chess_4.jpg,left,1462.9600001499057,true,low,NA,NA,NA,NA,NA,NA,NA,false
la50S1ru,3dzkabx20liukfefnqxhosng7x6cv3,3a1pq49wvlu72v7rt6wvhf97hhah11,la50S1ru,2020-0188,2020-05-21,14:21:10,14:39:14,NA,incomplete,14,color,0,right,Purple_Star_Dots_4.jpg,Blue_Star_Chess_2.jpg,Purple_Plus_Grid_3.jpg,right,716.3550001569092,true,low,NA,NA,NA,NA,NA,NA,NA,false
la50S1ru,3dzkabx20liukfefnqxhosng7x6cv3,3a1pq49wvlu72v7rt6wvhf97hhah11,la50S1ru,2020-0188,2020-05-21,14:21:10,14:39:14,NA,incomplete,15,color,1,left,Red_Star_Dots_3.jpg,Red_Triangle_Stripes_1.jpg,Blue_Star_Grid_4.jpg,left,1461.3800002261996,true,low,NA,NA,NA,NA,NA,NA,NA,false
la50S1ru,3dzkabx20liukfefnqxhosng7x6cv3,3a1pq49wvlu72v7rt6wvhf97hhah11,la50S1ru,2020-0188,2020-05-21,14:21:10,14:39:14,NA,incomplete,16,color,1,right,Green_Circle_Chess_2.jpg,Blue_Circle_Dots_1.jpg,Green_Plus_Stripes_3.jpg,right,986.5450002253056,true,low,NA,NA,NA,NA,NA,NA,NA,false
la50S1ru,3dzkabx20liukfefnqxhosng7x6cv3,3a1pq49wvlu72v7rt6wvhf97hhah11,la50S1ru,2020-0188,2020-05-21,14:21:10,14:39:14,NA,incomplete,17,color,1,left,Red_Triangle_Stripes_2.jpg,Red_Plus_Dots_3.jpg,Green_Triangle_Grid_4.jpg,left,1425.139999948442,true,low,NA,NA,NA,NA,NA,NA,NA,false
la50S1ru,3dzkabx20liukfefnqxhosng7x6cv3,3a1pq49wvlu72v7rt6wvhf97hhah11,la50S1ru,2020-0188,2020-05-21,14:21:10,14:39:14,NA,incomplete,18,color,1,left,Red_Circle_Chess_1.jpg,Red_Star_Grid_2.jpg,Green_Circle_Stripes_4.jpg,right,1288.2950003258884,false,low,NA,NA,NA,NA,NA,NA,NA,false
la50S1ru,3dzkabx20liukfefnqxhosng7x6cv3,3a1pq49wvlu72v7rt6wvhf97hhah11,la50S1ru,2020-0188,2020-05-21,14:21:10,14:39:14,NA,incomplete,19,color,1,left,Purple_Star_Chess_3.jpg,Purple_Triangle_Dots_4.jpg,Red_Star_Grid_2.jpg,left,618.5599998570979,true,low,NA,NA,NA,NA,NA,NA,NA,false
la50S1ru,3dzkabx20liukfefnqxhosng7x6cv3,3a1pq49wvlu72v7rt6wvhf97hhah11,la50S1ru,2020-0188,2020-05-21,14:21:10,14:39:14,NA,incomplete,20,color,1,right,Red_Triangle_Stripes_1.jpg,Green_Triangle_Chess_3.jpg,Red_Star_Dots_2.jpg,left,1098.1699996627867,false,low,NA,NA,NA,NA,NA,NA,NA,false
la50S1ru,3dzkabx20liukfefnqxhosng7x6cv3,3a1pq49wvlu72v7rt6wvhf97hhah11,la50S1ru,2020-0188,2020-05-21,14:21:10,14:39:14,NA,incomplete,21,color,1,left,Blue_Triangle_Chess_3.jpg,Blue_Star_Dots_1.jpg,Green_Triangle_Stripes_4.jpg,right,1588.0249999463558,false,low,NA,NA,NA,NA,NA,NA,NA,false
la50S1ru,3dzkabx20liukfefnqxhosng7x6cv3,3a1pq49wvlu72v7rt6wvhf97hhah11,la50S1ru,2020-0188,2020-05-21,14:21:10,14:39:14,NA,incomplete,22,color,1,left,Green_Triangle_Dots_2.jpg,Green_Circle_Stripes_3.jpg,Purple_Triangle_Grid_4.jpg,left,916.5649996139109,true,low,NA,NA,NA,NA,NA,NA,NA,false
la50S1ru,3dzkabx20liukfefnqxhosng7x6cv3,3a1pq49wvlu72v7rt6wvhf97hhah11,la50S1ru,2020-0188,2020-05-21,14:21:10,14:39:14,NA,incomplete,23,color,0,right,Blue_Triangle_Dots_2.jpg,Purple_Triangle_Grid_3.jpg,Blue_Plus_Chess_1.jpg,right,1064.2249998636544,true,low,NA,NA,NA,NA,NA,NA,NA,false
la50S1ru,3dzkabx20liukfefnqxhosng7x6cv3,3a1pq49wvlu72v7rt6wvhf97hhah11,la50S1ru,2020-0188,2020-05-21,14:21:10,14:39:14,NA,incomplete,24,color,1,right,Blue_Star_Grid_3.jpg,Purple_Star_Chess_1.jpg,Blue_Plus_Stripes_4.jpg,right,833.4349999204278,true,low,NA,NA,NA,NA,NA,NA,NA,false
la50S1ru,3dzkabx20liukfefnqxhosng7x6cv3,3a1pq49wvlu72v7rt6wvhf97hhah11,la50S1ru,2020-0188,2020-05-21,14:21:10,14:39:14,NA,incomplete,25,color,1,left,Red_Circle_Grid_1.jpg,Red_Triangle_Stripes_2.jpg,Green_Circle_Dots_4.jpg,left,1259.7699998877943,true,low,NA,NA,NA,NA,NA,NA,NA,false
la50S1ru,3dzkabx20liukfefnqxhosng7x6cv3,3a1pq49wvlu72v7rt6wvhf97hhah11,la50S1ru,2020-0188,2020-05-21,14:21:10,14:39:14,NA,incomplete,26,color,1,left,Blue_Star_Chess_2.jpg,Blue_Plus_Dots_4.jpg,Green_Star_Grid_3.jpg,left,1353.4050001762807,true,low,NA,NA,NA,NA,NA,NA,NA,false
la50S1ru,3dzkabx20liukfefnqxhosng7x6cv3,3a1pq49wvlu72v7rt6wvhf97hhah11,la50S1ru,2020-0188,2020-05-21,14:21:10,14:39:14,NA,incomplete,27,color,1,right,Purple_Triangle_Grid_3.jpg,Blue_Triangle_Dots_1.jpg,Purple_Star_Stripes_4.jpg,right,1158.985000103712,true,low,NA,NA,NA,NA,NA,NA,NA,false
la50S1ru,3dzkabx20liukfefnqxhosng7x6cv3,3a1pq49wvlu72v7rt6wvhf97hhah11,la50S1ru,2020-0188,2020-05-21,14:21:10,14:39:14,NA,incomplete,28,color,1,right,Red_Star_Grid_3.jpg,Green_Star_Chess_1.jpg,Red_Circle_Dots_4.jpg,right,1341.9300001114607,true,low,NA,NA,NA,NA,NA,NA,NA,false
la50S1ru,3dzkabx20liukfefnqxhosng7x6cv3,3a1pq49wvlu72v7rt6wvhf97hhah11,la50S1ru,2020-0188,2020-05-21,14:21:10,14:39:14,NA,incomplete,29,color,1,right,Blue_Star_Chess_1.jpg,Green_Star_Stripes_2.jpg,Blue_Circle_Dots_3.jpg,none,0,false,low,NA,NA,NA,NA,NA,NA,NA,false
la50S1ru,3dzkabx20liukfefnqxhosng7x6cv3,3a1pq49wvlu72v7rt6wvhf97hhah11,la50S1ru,2020-0188,2020-05-21,14:21:10,14:39:14,NA,incomplete,30,shape,1,right,Blue_Star_Dots_3.jpg,Blue_Plus_Chess_4.jpg,Red_Star_Grid_2.jpg,left,1298.1499996967614,false,low,NA,NA,NA,NA,NA,NA,NA,false
la50S1ru,3dzkabx20liukfefnqxhosng7x6cv3,3a1pq49wvlu72v7rt6wvhf97hhah11,la50S1ru,2020-0188,2020-05-21,14:21:10,14:39:14,NA,incomplete,31,shape,1,right,Blue_Star_Dots_1.jpg,Blue_Plus_Grid_2.jpg,Purple_Star_Chess_3.jpg,left,540.7750001177192,false,low,NA,NA,NA,NA,NA,NA,NA,false
la50S1ru,3dzkabx20liukfefnqxhosng7x6cv3,3a1pq49wvlu72v7rt6wvhf97hhah11,la50S1ru,2020-0188,2020-05-21,14:21:10,14:39:14,NA,incomplete,32,shape,1,right,Red_Star_Chess_4.jpg,Red_Triangle_Grid_2.jpg,Blue_Star_Dots_1.jpg,right,1026.989999692887,true,low,NA,NA,NA,NA,NA,NA,NA,false
la50S1ru,3dzkabx20liukfefnqxhosng7x6cv3,3a1pq49wvlu72v7rt6wvhf97hhah11,la50S1ru,2020-0188,2020-05-21,14:21:10,14:39:14,NA,incomplete,33,shape,0,left,Blue_Triangle_Stripes_1.jpg,Green_Triangle_Grid_2.jpg,Blue_Plus_Chess_4.jpg,left,1333.149999845773,true,low,NA,NA,NA,NA,NA,NA,NA,false
la50S1ru,3dzkabx20liukfefnqxhosng7x6cv3,3a1pq49wvlu72v7rt6wvhf97hhah11,la50S1ru,2020-0188,2020-05-21,14:21:10,14:39:14,NA,incomplete,34,shape,0,right,Blue_Plus_Chess_2.jpg,Blue_Triangle_Grid_3.jpg,Green_Plus_Stripes_4.jpg,left,1060.194999910891,false,low,NA,NA,NA,NA,NA,NA,NA,false
la50S1ru,3dzkabx20liukfefnqxhosng7x6cv3,3a1pq49wvlu72v7rt6wvhf97hhah11,la50S1ru,2020-0188,2020-05-21,14:21:10,14:39:14,NA,incomplete,35,shape,1,right,Blue_Triangle_Stripes_4.jpg,Blue_Circle_Chess_1.jpg,Purple_Triangle_Grid_3.jpg,right,989.0549997799098,true,low,NA,NA,NA,NA,NA,NA,NA,false
la50S1ru,3dzkabx20liukfefnqxhosng7x6cv3,3a1pq49wvlu72v7rt6wvhf97hhah11,la50S1ru,2020-0188,2020-05-21,14:21:10,14:39:14,NA,incomplete,36,shape,1,left,Blue_Circle_Dots_2.jpg,Purple_Circle_Chess_3.jpg,Blue_Plus_Stripes_4.jpg,left,1383.2900002598763,true,low,NA,NA,NA,NA,NA,NA,NA,false
la50S1ru,3dzkabx20liukfefnqxhosng7x6cv3,3a1pq49wvlu72v7rt6wvhf97hhah11,la50S1ru,2020-0188,2020-05-21,14:21:10,14:39:14,NA,incomplete,37,shape,1,left,Red_Triangle_Chess_2.jpg,Green_Triangle_Dots_4.jpg,Red_Circle_Stripes_3.jpg,left,877.0200000144541,true,low,NA,NA,NA,NA,NA,NA,NA,false
la50S1ru,3dzkabx20liukfefnqxhosng7x6cv3,3a1pq49wvlu72v7rt6wvhf97hhah11,la50S1ru,2020-0188,2020-05-21,14:21:10,14:39:14,NA,incomplete,38,shape,1,left,Purple_Triangle_Chess_1.jpg,Green_Triangle_Stripes_2.jpg,Purple_Circle_Dots_3.jpg,left,955.1349999383092,true,low,NA,NA,NA,NA,NA,NA,NA,false
la50S1ru,3dzkabx20liukfefnqxhosng7x6cv3,3a1pq49wvlu72v7rt6wvhf97hhah11,la50S1ru,2020-0188,2020-05-21,14:21:10,14:39:14,NA,incomplete,39,shape,1,right,Green_Plus_Grid_2.jpg,Green_Circle_Stripes_4.jpg,Purple_Plus_Dots_1.jpg,right,1575.1749998889863,true,low,NA,NA,NA,NA,NA,NA,NA,false
la50S1ru,3dzkabx20liukfefnqxhosng7x6cv3,3a1pq49wvlu72v7rt6wvhf97hhah11,la50S1ru,2020-0188,2020-05-21,14:21:10,14:39:14,NA,incomplete,40,shape,0,right,Red_Star_Stripes_4.jpg,Red_Plus_Chess_2.jpg,Blue_Star_Dots_3.jpg,right,1055.8899999596179,true,low,NA,NA,NA,NA,NA,NA,NA,false
la50S1ru,3dzkabx20liukfefnqxhosng7x6cv3,3a1pq49wvlu72v7rt6wvhf97hhah11,la50S1ru,2020-0188,2020-05-21,14:21:10,14:39:14,NA,incomplete,41,shape,1,left,Blue_Triangle_Dots_2.jpg,Green_Triangle_Chess_1.jpg,Blue_Circle_Grid_4.jpg,left,862.7200000919402,true,low,NA,NA,NA,NA,NA,NA,NA,false
la50S1ru,3dzkabx20liukfefnqxhosng7x6cv3,3a1pq49wvlu72v7rt6wvhf97hhah11,la50S1ru,2020-0188,2020-05-21,14:21:10,14:39:14,NA,incomplete,42,shape,1,left,Green_Triangle_Stripes_2.jpg,Purple_Triangle_Dots_1.jpg,Green_Plus_Grid_3.jpg,right,1125.4000002518296,false,low,NA,NA,NA,NA,NA,NA,NA,false
la50S1ru,3dzkabx20liukfefnqxhosng7x6cv3,3a1pq49wvlu72v7rt6wvhf97hhah11,la50S1ru,2020-0188,2020-05-21,14:21:10,14:39:14,NA,incomplete,43,shape,1,left,Purple_Triangle_Stripes_2.jpg,Blue_Triangle_Chess_1.jpg,Purple_Star_Dots_4.jpg,left,743.4349996037781,true,low,NA,NA,NA,NA,NA,NA,NA,false
la50S1ru,3dzkabx20liukfefnqxhosng7x6cv3,3a1pq49wvlu72v7rt6wvhf97hhah11,la50S1ru,2020-0188,2020-05-21,14:21:10,14:39:14,NA,incomplete,44,shape,1,right,Green_Triangle_Chess_4.jpg,Green_Circle_Stripes_1.jpg,Red_Triangle_Grid_2.jpg,left,1342.1200001612306,false,low,NA,NA,NA,NA,NA,NA,NA,false
la50S1ru,3dzkabx20liukfefnqxhosng7x6cv3,3a1pq49wvlu72v7rt6wvhf97hhah11,la50S1ru,2020-0188,2020-05-21,14:21:10,14:39:14,NA,incomplete,45,shape,0,right,Purple_Triangle_Dots_4.jpg,Purple_Plus_Chess_2.jpg,Blue_Triangle_Stripes_1.jpg,right,1127.6850001886487,true,low,NA,NA,NA,NA,NA,NA,NA,false
la50S1ru,3dzkabx20liukfefnqxhosng7x6cv3,3a1pq49wvlu72v7rt6wvhf97hhah11,la50S1ru,2020-0188,2020-05-21,14:21:10,14:39:14,NA,incomplete,46,shape,1,right,Red_Triangle_Dots_4.jpg,Red_Star_Chess_2.jpg,Purple_Triangle_Stripes_1.jpg,right,903.0499998480082,true,low,NA,NA,NA,NA,NA,NA,NA,false
la50S1ru,3dzkabx20liukfefnqxhosng7x6cv3,3a1pq49wvlu72v7rt6wvhf97hhah11,la50S1ru,2020-0188,2020-05-21,14:21:10,14:39:14,NA,incomplete,47,shape,0,left,Blue_Circle_Grid_2.jpg,Green_Circle_Chess_3.jpg,Blue_Star_Stripes_1.jpg,left,1346.9000002369285,true,low,NA,NA,NA,NA,NA,NA,NA,false
la50S1ru,3dzkabx20liukfefnqxhosng7x6cv3,3a1pq49wvlu72v7rt6wvhf97hhah11,la50S1ru,2020-0188,2020-05-21,14:21:10,14:39:14,NA,incomplete,48,shape,1,left,Red_Circle_Grid_1.jpg,Blue_Circle_Stripes_2.jpg,Red_Triangle_Chess_4.jpg,left,808.6899998597801,true,low,NA,NA,NA,NA,NA,NA,NA,false
la50S1ru,3dzkabx20liukfefnqxhosng7x6cv3,3a1pq49wvlu72v7rt6wvhf97hhah11,la50S1ru,2020-0188,2020-05-21,14:21:10,14:39:14,NA,incomplete,49,shape,1,left,Purple_Triangle_Stripes_4.jpg,Blue_Triangle_Dots_1.jpg,Purple_Circle_Chess_2.jpg,right,915.8799997530878,false,low,NA,NA,NA,NA,NA,NA,NA,false
la50S1ru,3dzkabx20liukfefnqxhosng7x6cv3,3a1pq49wvlu72v7rt6wvhf97hhah11,la50S1ru,2020-0188,2020-05-21,14:21:10,14:39:14,NA,incomplete,50,shape,0,right,Green_Triangle_Stripes_3.jpg,Green_Circle_Grid_4.jpg,Red_Triangle_Chess_2.jpg,right,1011.4049999974668,true,low,NA,NA,NA,NA,NA,NA,NA,false
la50S1ru,3dzkabx20liukfefnqxhosng7x6cv3,3a1pq49wvlu72v7rt6wvhf97hhah11,la50S1ru,2020-0188,2020-05-21,14:21:10,14:39:14,NA,incomplete,51,shape,0,left,Green_Circle_Dots_2.jpg,Blue_Circle_Grid_1.jpg,Green_Triangle_Chess_4.jpg,left,1338.6699999682605,true,low,NA,NA,NA,NA,NA,NA,NA,false
la50S1ru,3dzkabx20liukfefnqxhosng7x6cv3,3a1pq49wvlu72v7rt6wvhf97hhah11,la50S1ru,2020-0188,2020-05-21,14:21:10,14:39:14,NA,incomplete,52,shape,1,left,Red_Plus_Chess_3.jpg,Purple_Plus_Grid_4.jpg,Red_Star_Dots_1.jpg,left,1113.1699997931719,true,low,NA,NA,NA,NA,NA,NA,NA,false
la50S1ru,3dzkabx20liukfefnqxhosng7x6cv3,3a1pq49wvlu72v7rt6wvhf97hhah11,la50S1ru,2020-0188,2020-05-21,14:21:10,14:39:14,NA,incomplete,53,shape,1,left,Blue_Triangle_Chess_3.jpg,Red_Triangle_Dots_2.jpg,Blue_Circle_Grid_4.jpg,right,1120.9200001321733,false,low,NA,NA,NA,NA,NA,NA,NA,false
la50S1ru,3dzkabx20liukfefnqxhosng7x6cv3,3a1pq49wvlu72v7rt6wvhf97hhah11,la50S1ru,2020-0188,2020-05-21,14:21:10,14:39:14,NA,incomplete,54,shape,0,right,Red_Plus_Dots_4.jpg,Red_Circle_Chess_2.jpg,Blue_Plus_Stripes_3.jpg,right,1483.9699999429286,true,low,NA,NA,NA,NA,NA,NA,NA,false
la50S1ru,3dzkabx20liukfefnqxhosng7x6cv3,3a1pq49wvlu72v7rt6wvhf97hhah11,la50S1ru,2020-0188,2020-05-21,14:21:10,14:39:14,NA,incomplete,55,shape,0,right,Green_Circle_Grid_4.jpg,Green_Star_Chess_3.jpg,Purple_Circle_Stripes_2.jpg,left,1462.9649999551475,false,low,NA,NA,NA,NA,NA,NA,NA,false
la50S1ru,3dzkabx20liukfefnqxhosng7x6cv3,3a1pq49wvlu72v7rt6wvhf97hhah11,la50S1ru,2020-0188,2020-05-21,14:21:10,14:39:14,NA,incomplete,56,shape,1,right,Red_Star_Chess_3.jpg,Red_Plus_Dots_4.jpg,Purple_Star_Stripes_1.jpg,left,1108.4449999034405,false,low,NA,NA,NA,NA,NA,NA,NA,false
la50S1ru,3dzkabx20liukfefnqxhosng7x6cv3,3a1pq49wvlu72v7rt6wvhf97hhah11,la50S1ru,2020-0188,2020-05-21,14:21:10,14:39:14,NA,incomplete,57,shape,0,left,Purple_Plus_Stripes_4.jpg,Red_Plus_Chess_2.jpg,Purple_Triangle_Dots_3.jpg,left,1098.3049999922514,true,low,NA,NA,NA,NA,NA,NA,NA,false
la50S1ru,3dzkabx20liukfefnqxhosng7x6cv3,3a1pq49wvlu72v7rt6wvhf97hhah11,la50S1ru,2020-0188,2020-05-21,14:21:10,14:39:14,NA,incomplete,58,shape,0,left,Blue_Star_Stripes_1.jpg,Purple_Star_Grid_2.jpg,Blue_Triangle_Chess_4.jpg,right,1750.3899997100234,false,low,NA,NA,NA,NA,NA,NA,NA,false
la50S1ru,3dzkabx20liukfefnqxhosng7x6cv3,3a1pq49wvlu72v7rt6wvhf97hhah11,la50S1ru,2020-0188,2020-05-21,14:21:10,14:39:14,NA,incomplete,59,shape,1,left,Blue_Triangle_Grid_2.jpg,Purple_Triangle_Chess_1.jpg,Blue_Circle_Dots_4.jpg,none,0,false,low,NA,NA,NA,NA,NA,NA,NA,false
la50S1ru,3dzkabx20liukfefnqxhosng7x6cv3,3a1pq49wvlu72v7rt6wvhf97hhah11,la50S1ru,2020-0188,2020-05-21,14:21:10,14:39:14,NA,incomplete,60,color,1,right,Blue_Plus_Chess_1.jpg,Red_Plus_Stripes_2.jpg,Blue_Circle_Grid_4.jpg,left,1221.4150000363588,false,low,NA,NA,NA,NA,NA,NA,NA,false
la50S1ru,3dzkabx20liukfefnqxhosng7x6cv3,3a1pq49wvlu72v7rt6wvhf97hhah11,la50S1ru,2020-0188,2020-05-21,14:21:10,14:39:14,NA,incomplete,61,color,0,right,Purple_Triangle_Chess_4.jpg,Green_Triangle_Grid_2.jpg,Purple_Plus_Stripes_3.jpg,right,1544.9999999254942,true,low,NA,NA,NA,NA,NA,NA,NA,false
la50S1ru,3dzkabx20liukfefnqxhosng7x6cv3,3a1pq49wvlu72v7rt6wvhf97hhah11,la50S1ru,2020-0188,2020-05-21,14:21:10,14:39:14,NA,incomplete,62,color,1,left,Purple_Circle_Chess_2.jpg,Purple_Plus_Dots_3.jpg,Blue_Circle_Stripes_4.jpg,left,1703.745000064373,true,low,NA,NA,NA,NA,NA,NA,NA,false
la50S1ru,3dzkabx20liukfefnqxhosng7x6cv3,3a1pq49wvlu72v7rt6wvhf97hhah11,la50S1ru,2020-0188,2020-05-21,14:21:10,14:39:14,NA,incomplete,63,color,1,right,Red_Circle_Stripes_4.jpg,Purple_Circle_Dots_3.jpg,Red_Star_Grid_2.jpg,left,1516.3150001317263,false,low,NA,NA,NA,NA,NA,NA,NA,false
la50S1ru,3dzkabx20liukfefnqxhosng7x6cv3,3a1pq49wvlu72v7rt6wvhf97hhah11,la50S1ru,2020-0188,2020-05-21,14:21:10,14:39:14,NA,incomplete,64,color,1,left,Red_Circle_Grid_3.jpg,Red_Star_Dots_2.jpg,Purple_Circle_Chess_1.jpg,right,1150.6300000473857,false,low,NA,NA,NA,NA,NA,NA,NA,false
la50S1ru,3dzkabx20liukfefnqxhosng7x6cv3,3a1pq49wvlu72v7rt6wvhf97hhah11,la50S1ru,2020-0188,2020-05-21,14:21:10,14:39:14,NA,incomplete,65,color,0,left,Purple_Triangle_Grid_1.jpg,Purple_Circle_Stripes_2.jpg,Green_Triangle_Dots_4.jpg,left,1775.520000141114,true,low,NA,NA,NA,NA,NA,NA,NA,false
la50S1ru,3dzkabx20liukfefnqxhosng7x6cv3,3a1pq49wvlu72v7rt6wvhf97hhah11,la50S1ru,2020-0188,2020-05-21,14:21:10,14:39:14,NA,incomplete,66,color,0,left,Red_Star_Grid_2.jpg,Red_Triangle_Dots_4.jpg,Blue_Star_Stripes_3.jpg,right,1166.2050001323223,false,low,NA,NA,NA,NA,NA,NA,NA,false
la50S1ru,3dzkabx20liukfefnqxhosng7x6cv3,3a1pq49wvlu72v7rt6wvhf97hhah11,la50S1ru,2020-0188,2020-05-21,14:21:10,14:39:14,NA,incomplete,67,color,1,right,Purple_Star_Chess_3.jpg,Green_Star_Dots_1.jpg,Purple_Circle_Grid_4.jpg,left,1528.314999770373,false,low,NA,NA,NA,NA,NA,NA,NA,false
la50S1ru,3dzkabx20liukfefnqxhosng7x6cv3,3a1pq49wvlu72v7rt6wvhf97hhah11,la50S1ru,2020-0188,2020-05-21,14:21:10,14:39:14,NA,incomplete,68,color,1,right,Red_Triangle_Dots_3.jpg,Blue_Triangle_Stripes_1.jpg,Red_Star_Chess_2.jpg,right,1208.9599999599159,true,low,NA,NA,NA,NA,NA,NA,NA,false
la50S1ru,3dzkabx20liukfefnqxhosng7x6cv3,3a1pq49wvlu72v7rt6wvhf97hhah11,la50S1ru,2020-0188,2020-05-21,14:21:10,14:39:14,NA,incomplete,69,color,0,left,Purple_Circle_Dots_3.jpg,Purple_Plus_Chess_2.jpg,Blue_Circle_Stripes_4.jpg,left,946.9100004062057,true,low,NA,NA,NA,NA,NA,NA,NA,false
la50S1ru,3dzkabx20liukfefnqxhosng7x6cv3,3a1pq49wvlu72v7rt6wvhf97hhah11,la50S1ru,2020-0188,2020-05-21,14:21:10,14:39:14,NA,incomplete,70,color,1,right,Purple_Circle_Grid_2.jpg,Red_Circle_Dots_1.jpg,Purple_Plus_Chess_4.jpg,left,1334.5550000667572,false,low,NA,NA,NA,NA,NA,NA,NA,false
la50S1ru,3dzkabx20liukfefnqxhosng7x6cv3,3a1pq49wvlu72v7rt6wvhf97hhah11,la50S1ru,2020-0188,2020-05-21,14:21:10,14:39:14,NA,incomplete,71,color,1,right,Red_Circle_Stripes_3.jpg,Green_Circle_Dots_1.jpg,Red_Triangle_Chess_4.jpg,right,1267.1650000847876,true,low,NA,NA,NA,NA,NA,NA,NA,false
la50S1ru,3dzkabx20liukfefnqxhosng7x6cv3,3a1pq49wvlu72v7rt6wvhf97hhah11,la50S1ru,2020-0188,2020-05-21,14:21:10,14:39:14,NA,incomplete,72,color,1,left,Red_Plus_Stripes_4.jpg,Red_Star_Dots_2.jpg,Purple_Plus_Grid_3.jpg,left,1555.5449998937547,true,low,NA,NA,NA,NA,NA,NA,NA,false
la50S1ru,3dzkabx20liukfefnqxhosng7x6cv3,3a1pq49wvlu72v7rt6wvhf97hhah11,la50S1ru,2020-0188,2020-05-21,14:21:10,14:39:14,NA,incomplete,73,color,1,right,Purple_Star_Stripes_3.jpg,Blue_Star_Chess_1.jpg,Purple_Circle_Grid_2.jpg,right,1657.8999999910593,true,low,NA,NA,NA,NA,NA,NA,NA,false
la50S1ru,3dzkabx20liukfefnqxhosng7x6cv3,3a1pq49wvlu72v7rt6wvhf97hhah11,la50S1ru,2020-0188,2020-05-21,14:21:10,14:39:14,NA,incomplete,74,color,1,right,Purple_Circle_Chess_1.jpg,Green_Circle_Dots_2.jpg,Purple_Triangle_Stripes_3.jpg,right,1045.2550002373755,true,low,NA,NA,NA,NA,NA,NA,NA,false
la50S1ru,3dzkabx20liukfefnqxhosng7x6cv3,3a1pq49wvlu72v7rt6wvhf97hhah11,la50S1ru,2020-0188,2020-05-21,14:21:10,14:39:14,NA,incomplete,75,color,1,left,Blue_Star_Dots_3.jpg,Blue_Plus_Grid_4.jpg,Green_Star_Chess_1.jpg,right,1147.4399999715388,false,low,NA,NA,NA,NA,NA,NA,NA,false
la50S1ru,3dzkabx20liukfefnqxhosng7x6cv3,3a1pq49wvlu72v7rt6wvhf97hhah11,la50S1ru,2020-0188,2020-05-21,14:21:10,14:39:14,NA,incomplete,76,color,1,right,Purple_Circle_Chess_4.jpg,Blue_Circle_Dots_1.jpg,Purple_Triangle_Grid_2.jpg,right,1362.639999948442,true,low,NA,NA,NA,NA,NA,NA,NA,false
la50S1ru,3dzkabx20liukfefnqxhosng7x6cv3,3a1pq49wvlu72v7rt6wvhf97hhah11,la50S1ru,2020-0188,2020-05-21,14:21:10,14:39:14,NA,incomplete,77,color,1,left,Red_Triangle_Chess_1.jpg,Red_Star_Dots_2.jpg,Purple_Triangle_Grid_4.jpg,left,917.5649997778237,true,low,NA,NA,NA,NA,NA,NA,NA,false
la50S1ru,3dzkabx20liukfefnqxhosng7x6cv3,3a1pq49wvlu72v7rt6wvhf97hhah11,la50S1ru,2020-0188,2020-05-21,14:21:10,14:39:14,NA,incomplete,78,color,1,left,Red_Triangle_Chess_4.jpg,Red_Plus_Grid_1.jpg,Blue_Triangle_Stripes_3.jpg,left,1111.7799999192357,true,low,NA,NA,NA,NA,NA,NA,NA,false
la50S1ru,3dzkabx20liukfefnqxhosng7x6cv3,3a1pq49wvlu72v7rt6wvhf97hhah11,la50S1ru,2020-0188,2020-05-21,14:21:10,14:39:14,NA,incomplete,79,color,1,left,Purple_Circle_Stripes_2.jpg,Purple_Plus_Grid_4.jpg,Green_Circle_Chess_3.jpg,right,882.3150000534952,false,low,NA,NA,NA,NA,NA,NA,NA,false
la50S1ru,3dzkabx20liukfefnqxhosng7x6cv3,3a1pq49wvlu72v7rt6wvhf97hhah11,la50S1ru,2020-0188,2020-05-21,14:21:10,14:39:14,NA,incomplete,80,color,1,right,Purple_Plus_Stripes_1.jpg,Green_Plus_Chess_4.jpg,Purple_Star_Grid_3.jpg,left,1012.725000269711,false,low,NA,NA,NA,NA,NA,NA,NA,false
la50S1ru,3dzkabx20liukfefnqxhosng7x6cv3,3a1pq49wvlu72v7rt6wvhf97hhah11,la50S1ru,2020-0188,2020-05-21,14:21:10,14:39:14,NA,incomplete,81,color,0,left,Green_Star_Grid_2.jpg,Green_Triangle_Dots_1.jpg,Purple_Star_Stripes_4.jpg,left,740.6099997460842,true,low,NA,NA,NA,NA,NA,NA,NA,false
la50S1ru,3dzkabx20liukfefnqxhosng7x6cv3,3a1pq49wvlu72v7rt6wvhf97hhah11,la50S1ru,2020-0188,2020-05-21,14:21:10,14:39:14,NA,incomplete,82,color,1,left,Blue_Plus_Dots_3.jpg,Blue_Star_Grid_1.jpg,Purple_Plus_Stripes_2.jpg,left,826.2949995696545,true,low,NA,NA,NA,NA,NA,NA,NA,false
la50S1ru,3dzkabx20liukfefnqxhosng7x6cv3,3a1pq49wvlu72v7rt6wvhf97hhah11,la50S1ru,2020-0188,2020-05-21,14:21:10,14:39:14,NA,incomplete,83,color,1,left,Red_Triangle_Chess_4.jpg,Red_Star_Stripes_2.jpg,Blue_Triangle_Grid_3.jpg,left,958.2750000990927,true,low,NA,NA,NA,NA,NA,NA,NA,false
la50S1ru,3dzkabx20liukfefnqxhosng7x6cv3,3a1pq49wvlu72v7rt6wvhf97hhah11,la50S1ru,2020-0188,2020-05-21,14:21:10,14:39:14,NA,incomplete,84,color,1,right,Green_Circle_Chess_4.jpg,Purple_Circle_Grid_1.jpg,Green_Plus_Stripes_2.jpg,right,1292.7899998612702,true,low,NA,NA,NA,NA,NA,NA,NA,false
la50S1ru,3dzkabx20liukfefnqxhosng7x6cv3,3a1pq49wvlu72v7rt6wvhf97hhah11,la50S1ru,2020-0188,2020-05-21,14:21:10,14:39:14,NA,incomplete,85,color,1,right,Green_Plus_Chess_3.jpg,Blue_Plus_Dots_1.jpg,Green_Triangle_Stripes_2.jpg,right,767.9650001227856,true,low,NA,NA,NA,NA,NA,NA,NA,false
la50S1ru,3dzkabx20liukfefnqxhosng7x6cv3,3a1pq49wvlu72v7rt6wvhf97hhah11,la50S1ru,2020-0188,2020-05-21,14:21:10,14:39:14,NA,incomplete,86,color,1,right,Green_Circle_Stripes_1.jpg,Red_Circle_Grid_4.jpg,Green_Triangle_Chess_2.jpg,right,1122.3800000734627,true,low,NA,NA,NA,NA,NA,NA,NA,false
la50S1ru,3dzkabx20liukfefnqxhosng7x6cv3,3a1pq49wvlu72v7rt6wvhf97hhah11,la50S1ru,2020-0188,2020-05-21,14:21:10,14:39:14,NA,incomplete,87,color,1,right,Blue_Circle_Dots_1.jpg,Green_Circle_Chess_4.jpg,Blue_Triangle_Grid_3.jpg,right,1183.2699999213219,true,low,NA,NA,NA,NA,NA,NA,NA,false
la50S1ru,3dzkabx20liukfefnqxhosng7x6cv3,3a1pq49wvlu72v7rt6wvhf97hhah11,la50S1ru,2020-0188,2020-05-21,14:21:10,14:39:14,NA,incomplete,88,color,1,right,Purple_Circle_Chess_2.jpg,Blue_Circle_Grid_3.jpg,Purple_Triangle_Stripes_4.jpg,right,1777.1249995566905,true,low,NA,NA,NA,NA,NA,NA,NA,false
la50S1ru,3dzkabx20liukfefnqxhosng7x6cv3,3a1pq49wvlu72v7rt6wvhf97hhah11,la50S1ru,2020-0188,2020-05-21,14:21:10,14:39:14,NA,incomplete,89,color,1,left,Purple_Star_Chess_2.jpg,Purple_Plus_Stripes_4.jpg,Red_Star_Grid_1.jpg,left,1271.6850000433624,true,low,NA,NA,NA,NA,NA,NA,NA,false
la50S1ru,3dzkabx20liukfefnqxhosng7x6cv3,3a1pq49wvlu72v7rt6wvhf97hhah11,la50S1ru,2020-0188,2020-05-21,14:21:10,14:39:14,NA,incomplete,90,shape,1,right,Green_Plus_Stripes_3.jpg,Green_Circle_Chess_1.jpg,Blue_Plus_Grid_4.jpg,left,1218.66500005126,false,low,NA,NA,NA,NA,NA,NA,NA,false
la50S1ru,3dzkabx20liukfefnqxhosng7x6cv3,3a1pq49wvlu72v7rt6wvhf97hhah11,la50S1ru,2020-0188,2020-05-21,14:21:10,14:39:14,NA,incomplete,91,shape,1,left,Green_Triangle_Grid_2.jpg,Purple_Triangle_Dots_3.jpg,Green_Circle_Stripes_4.jpg,right,792.4600001424551,false,low,NA,NA,NA,NA,NA,NA,NA,false
la50S1ru,3dzkabx20liukfefnqxhosng7x6cv3,3a1pq49wvlu72v7rt6wvhf97hhah11,la50S1ru,2020-0188,2020-05-21,14:21:10,14:39:14,NA,incomplete,92,shape,1,right,Blue_Plus_Grid_3.jpg,Blue_Circle_Stripes_4.jpg,Red_Plus_Chess_2.jpg,right,825.8700002916157,true,low,NA,NA,NA,NA,NA,NA,NA,false
la50S1ru,3dzkabx20liukfefnqxhosng7x6cv3,3a1pq49wvlu72v7rt6wvhf97hhah11,la50S1ru,2020-0188,2020-05-21,14:21:10,14:39:14,NA,incomplete,93,shape,1,right,Red_Triangle_Stripes_3.jpg,Red_Plus_Chess_1.jpg,Green_Triangle_Dots_2.jpg,right,1336.1450000666082,true,low,NA,NA,NA,NA,NA,NA,NA,false
la50S1ru,3dzkabx20liukfefnqxhosng7x6cv3,3a1pq49wvlu72v7rt6wvhf97hhah11,la50S1ru,2020-0188,2020-05-21,14:21:10,14:39:14,NA,incomplete,94,shape,1,right,Green_Triangle_Dots_3.jpg,Green_Star_Chess_4.jpg,Red_Triangle_Grid_2.jpg,right,760.4100001044571,true,low,NA,NA,NA,NA,NA,NA,NA,false
la50S1ru,3dzkabx20liukfefnqxhosng7x6cv3,3a1pq49wvlu72v7rt6wvhf97hhah11,la50S1ru,2020-0188,2020-05-21,14:21:10,14:39:14,NA,incomplete,95,shape,1,right,Purple_Circle_Dots_3.jpg,Purple_Triangle_Stripes_4.jpg,Blue_Circle_Chess_2.jpg,right,1269.5499998517334,true,low,NA,NA,NA,NA,NA,NA,NA,false
la50S1ru,3dzkabx20liukfefnqxhosng7x6cv3,3a1pq49wvlu72v7rt6wvhf97hhah11,la50S1ru,2020-0188,2020-05-21,14:21:10,14:39:14,NA,incomplete,96,shape,1,right,Purple_Circle_Stripes_2.jpg,Purple_Star_Grid_3.jpg,Blue_Circle_Dots_4.jpg,right,667.8400002419949,true,low,NA,NA,NA,NA,NA,NA,NA,false
la50S1ru,3dzkabx20liukfefnqxhosng7x6cv3,3a1pq49wvlu72v7rt6wvhf97hhah11,la50S1ru,2020-0188,2020-05-21,14:21:10,14:39:14,NA,incomplete,97,shape,0,right,Green_Triangle_Stripes_4.jpg,Green_Circle_Grid_2.jpg,Red_Triangle_Chess_3.jpg,right,973.5250002704561,true,low,NA,NA,NA,NA,NA,NA,NA,false
la50S1ru,3dzkabx20liukfefnqxhosng7x6cv3,3a1pq49wvlu72v7rt6wvhf97hhah11,la50S1ru,2020-0188,2020-05-21,14:21:10,14:39:14,NA,incomplete,98,shape,1,right,Green_Circle_Stripes_1.jpg,Green_Star_Grid_2.jpg,Blue_Circle_Dots_3.jpg,right,1514.1849997453392,true,low,NA,NA,NA,NA,NA,NA,NA,false
la50S1ru,3dzkabx20liukfefnqxhosng7x6cv3,3a1pq49wvlu72v7rt6wvhf97hhah11,la50S1ru,2020-0188,2020-05-21,14:21:10,14:39:14,NA,incomplete,99,shape,1,right,Red_Circle_Chess_2.jpg,Red_Star_Stripes_1.jpg,Purple_Circle_Dots_3.jpg,right,903.4799998626113,true,low,NA,NA,NA,NA,NA,NA,NA,false
la50S1ru,3dzkabx20liukfefnqxhosng7x6cv3,3a1pq49wvlu72v7rt6wvhf97hhah11,la50S1ru,2020-0188,2020-05-21,14:21:10,14:39:14,NA,incomplete,100,shape,1,right,Blue_Plus_Dots_4.jpg,Blue_Triangle_Chess_1.jpg,Red_Plus_Grid_3.jpg,left,1339.87500006333,false,low,NA,NA,NA,NA,NA,NA,NA,false
la50S1ru,3dzkabx20liukfefnqxhosng7x6cv3,3a1pq49wvlu72v7rt6wvhf97hhah11,la50S1ru,2020-0188,2020-05-21,14:21:10,14:39:14,NA,incomplete,101,shape,1,right,Blue_Triangle_Stripes_3.jpg,Blue_Plus_Grid_2.jpg,Red_Triangle_Dots_1.jpg,right,847.2350002266467,true,low,NA,NA,NA,NA,NA,NA,NA,false
la50S1ru,3dzkabx20liukfefnqxhosng7x6cv3,3a1pq49wvlu72v7rt6wvhf97hhah11,la50S1ru,2020-0188,2020-05-21,14:21:10,14:39:14,NA,incomplete,102,shape,1,right,Purple_Star_Chess_4.jpg,Purple_Circle_Stripes_3.jpg,Green_Star_Grid_1.jpg,right,927.1249999292195,true,low,NA,NA,NA,NA,NA,NA,NA,false
la50S1ru,3dzkabx20liukfefnqxhosng7x6cv3,3a1pq49wvlu72v7rt6wvhf97hhah11,la50S1ru,2020-0188,2020-05-21,14:21:10,14:39:14,NA,incomplete,103,shape,1,left,Blue_Triangle_Chess_4.jpg,Purple_Triangle_Stripes_1.jpg,Blue_Star_Grid_2.jpg,right,1144.6750001050532,false,low,NA,NA,NA,NA,NA,NA,NA,false
la50S1ru,3dzkabx20liukfefnqxhosng7x6cv3,3a1pq49wvlu72v7rt6wvhf97hhah11,la50S1ru,2020-0188,2020-05-21,14:21:10,14:39:14,NA,incomplete,104,shape,0,left,Blue_Plus_Chess_3.jpg,Red_Plus_Dots_2.jpg,Blue_Circle_Grid_4.jpg,left,925.7249999791384,true,low,NA,NA,NA,NA,NA,NA,NA,false
la50S1ru,3dzkabx20liukfefnqxhosng7x6cv3,3a1pq49wvlu72v7rt6wvhf97hhah11,la50S1ru,2020-0188,2020-05-21,14:21:10,14:39:14,NA,incomplete,105,shape,1,right,Purple_Plus_Grid_1.jpg,Purple_Star_Stripes_3.jpg,Green_Plus_Dots_2.jpg,left,778.5900002345443,false,low,NA,NA,NA,NA,NA,NA,NA,false
la50S1ru,3dzkabx20liukfefnqxhosng7x6cv3,3a1pq49wvlu72v7rt6wvhf97hhah11,la50S1ru,2020-0188,2020-05-21,14:21:10,14:39:14,NA,incomplete,106,shape,1,right,Blue_Plus_Dots_3.jpg,Blue_Star_Chess_1.jpg,Green_Plus_Stripes_4.jpg,right,984.9549997597933,true,low,NA,NA,NA,NA,NA,NA,NA,false
la50S1ru,3dzkabx20liukfefnqxhosng7x6cv3,3a1pq49wvlu72v7rt6wvhf97hhah11,la50S1ru,2020-0188,2020-05-21,14:21:10,14:39:14,NA,incomplete,107,shape,1,right,Red_Triangle_Dots_4.jpg,Red_Star_Grid_1.jpg,Green_Triangle_Chess_2.jpg,right,965.4600000940263,true,low,NA,NA,NA,NA,NA,NA,NA,false
la50S1ru,3dzkabx20liukfefnqxhosng7x6cv3,3a1pq49wvlu72v7rt6wvhf97hhah11,la50S1ru,2020-0188,2020-05-21,14:21:10,14:39:14,NA,incomplete,108,shape,0,left,Purple_Circle_Grid_4.jpg,Red_Circle_Stripes_3.jpg,Purple_Triangle_Dots_2.jpg,left,1156.625000294298,true,low,NA,NA,NA,NA,NA,NA,NA,false
la50S1ru,3dzkabx20liukfefnqxhosng7x6cv3,3a1pq49wvlu72v7rt6wvhf97hhah11,la50S1ru,2020-0188,2020-05-21,14:21:10,14:39:14,NA,incomplete,109,shape,1,right,Purple_Circle_Grid_1.jpg,Purple_Star_Dots_4.jpg,Blue_Circle_Chess_2.jpg,right,669.9000000953674,true,low,NA,NA,NA,NA,NA,NA,NA,false
la50S1ru,3dzkabx20liukfefnqxhosng7x6cv3,3a1pq49wvlu72v7rt6wvhf97hhah11,la50S1ru,2020-0188,2020-05-21,14:21:10,14:39:14,NA,incomplete,110,shape,1,left,Blue_Triangle_Stripes_1.jpg,Green_Triangle_Grid_3.jpg,Blue_Plus_Chess_4.jpg,left,720.4850004054606,true,low,NA,NA,NA,NA,NA,NA,NA,false
la50S1ru,3dzkabx20liukfefnqxhosng7x6cv3,3a1pq49wvlu72v7rt6wvhf97hhah11,la50S1ru,2020-0188,2020-05-21,14:21:10,14:39:14,NA,incomplete,111,shape,0,left,Green_Plus_Chess_2.jpg,Red_Plus_Dots_1.jpg,Green_Star_Stripes_4.jpg,left,1012.8500000573695,true,low,NA,NA,NA,NA,NA,NA,NA,false
la50S1ru,3dzkabx20liukfefnqxhosng7x6cv3,3a1pq49wvlu72v7rt6wvhf97hhah11,la50S1ru,2020-0188,2020-05-21,14:21:10,14:39:14,NA,incomplete,112,shape,1,left,Green_Circle_Dots_2.jpg,Red_Circle_Chess_1.jpg,Green_Plus_Grid_3.jpg,left,801.814999897033,true,low,NA,NA,NA,NA,NA,NA,NA,false
la50S1ru,3dzkabx20liukfefnqxhosng7x6cv3,3a1pq49wvlu72v7rt6wvhf97hhah11,la50S1ru,2020-0188,2020-05-21,14:21:10,14:39:14,NA,incomplete,113,shape,1,left,Purple_Plus_Chess_4.jpg,Red_Plus_Grid_1.jpg,Purple_Triangle_Dots_3.jpg,left,846.724999602884,true,low,NA,NA,NA,NA,NA,NA,NA,false
la50S1ru,3dzkabx20liukfefnqxhosng7x6cv3,3a1pq49wvlu72v7rt6wvhf97hhah11,la50S1ru,2020-0188,2020-05-21,14:21:10,14:39:14,NA,incomplete,114,shape,1,left,Red_Plus_Grid_3.jpg,Purple_Plus_Chess_1.jpg,Red_Star_Stripes_2.jpg,left,861.4399996586144,true,low,NA,NA,NA,NA,NA,NA,NA,false
la50S1ru,3dzkabx20liukfefnqxhosng7x6cv3,3a1pq49wvlu72v7rt6wvhf97hhah11,la50S1ru,2020-0188,2020-05-21,14:21:10,14:39:14,NA,incomplete,115,shape,1,left,Blue_Triangle_Grid_1.jpg,Green_Triangle_Chess_3.jpg,Blue_Circle_Stripes_4.jpg,left,921.4950003661215,true,low,NA,NA,NA,NA,NA,NA,NA,false
la50S1ru,3dzkabx20liukfefnqxhosng7x6cv3,3a1pq49wvlu72v7rt6wvhf97hhah11,la50S1ru,2020-0188,2020-05-21,14:21:10,14:39:14,NA,incomplete,116,shape,0,left,Purple_Triangle_Stripes_3.jpg,Red_Triangle_Dots_1.jpg,Purple_Plus_Grid_4.jpg,left,1039.7599996067584,true,low,NA,NA,NA,NA,NA,NA,NA,false
la50S1ru,3dzkabx20liukfefnqxhosng7x6cv3,3a1pq49wvlu72v7rt6wvhf97hhah11,la50S1ru,2020-0188,2020-05-21,14:21:10,14:39:14,NA,incomplete,117,shape,1,left,Green_Triangle_Stripes_3.jpg,Red_Triangle_Dots_2.jpg,Green_Plus_Grid_1.jpg,right,1575.4200001247227,false,low,NA,NA,NA,NA,NA,NA,NA,false
la50S1ru,3dzkabx20liukfefnqxhosng7x6cv3,3a1pq49wvlu72v7rt6wvhf97hhah11,la50S1ru,2020-0188,2020-05-21,14:21:10,14:39:14,NA,incomplete,118,shape,1,right,Blue_Triangle_Grid_4.jpg,Blue_Star_Dots_1.jpg,Purple_Triangle_Chess_3.jpg,left,734.0799998492002,false,low,NA,NA,NA,NA,NA,NA,NA,false
la50S1ru,3dzkabx20liukfefnqxhosng7x6cv3,3a1pq49wvlu72v7rt6wvhf97hhah11,la50S1ru,2020-0188,2020-05-21,14:21:10,14:39:14,NA,incomplete,119,shape,1,right,Red_Star_Dots_4.jpg,Red_Triangle_Grid_3.jpg,Blue_Star_Stripes_2.jpg,left,1108.6900001391768,false,low,NA,NA,NA,NA,NA,NA,NA,false
la50S1ru,3dzkabx20liukfefnqxhosng7x6cv3,3a1pq49wvlu72v7rt6wvhf97hhah11,la50S1ru,2020-0188,2020-05-21,14:21:10,14:39:14,NA,incomplete,120,filling,1,right,Purple_Star_Chess_4.jpg,Red_Plus_Dots_4.jpg,Green_Circle_Chess_2.jpg,NA,NA,NA,low,NA,NA,NA,NA,NA,NA,NA,false
la50S1ru,3dzkabx20liukfefnqxhosng7x6cv3,3a1pq49wvlu72v7rt6wvhf97hhah11,la50S1ru,2020-0188,2020-05-21,14:21:10,14:39:14,NA,incomplete,121,filling,1,right,Green_Circle_Grid_2.jpg,Purple_Plus_Dots_2.jpg,Blue_Star_Grid_3.jpg,left,1433.344999793917,false,low,NA,NA,NA,NA,NA,NA,NA,false
la50S1ru,3dzkabx20liukfefnqxhosng7x6cv3,3a1pq49wvlu72v7rt6wvhf97hhah11,la50S1ru,2020-0188,2020-05-21,14:21:10,14:39:14,NA,incomplete,122,filling,1,left,Red_Plus_Grid_1.jpg,Blue_Circle_Grid_3.jpg,Purple_Star_Dots_1.jpg,left,1034.1950003057718,true,low,NA,NA,NA,NA,NA,NA,NA,false
la50S1ru,3dzkabx20liukfefnqxhosng7x6cv3,3a1pq49wvlu72v7rt6wvhf97hhah11,la50S1ru,2020-0188,2020-05-21,14:21:10,14:39:14,NA,incomplete,123,filling,0,left,Green_Circle_Stripes_3.jpg,Red_Plus_Stripes_4.jpg,Purple_Triangle_Dots_3.jpg,left,987.7849998883903,true,low,NA,NA,NA,NA,NA,NA,NA,false
la50S1ru,3dzkabx20liukfefnqxhosng7x6cv3,3a1pq49wvlu72v7rt6wvhf97hhah11,la50S1ru,2020-0188,2020-05-21,14:21:10,14:39:14,NA,incomplete,124,filling,1,right,Red_Triangle_Chess_1.jpg,Green_Plus_Stripes_1.jpg,Blue_Circle_Chess_4.jpg,right,873.2549999840558,true,low,NA,NA,NA,NA,NA,NA,NA,false
la50S1ru,3dzkabx20liukfefnqxhosng7x6cv3,3a1pq49wvlu72v7rt6wvhf97hhah11,la50S1ru,2020-0188,2020-05-21,14:21:10,14:39:14,NA,incomplete,125,filling,1,right,Green_Circle_Dots_4.jpg,Red_Star_Grid_4.jpg,Purple_Triangle_Dots_3.jpg,right,1580.3899997845292,true,low,NA,NA,NA,NA,NA,NA,NA,false
la50S1ru,3dzkabx20liukfefnqxhosng7x6cv3,3a1pq49wvlu72v7rt6wvhf97hhah11,la50S1ru,2020-0188,2020-05-21,14:21:10,14:39:14,NA,incomplete,126,filling,1,right,Purple_Triangle_Stripes_4.jpg,Green_Star_Grid_4.jpg,Red_Circle_Stripes_2.jpg,right,1324.3399998173118,true,low,NA,NA,NA,NA,NA,NA,NA,false
la50S1ru,3dzkabx20liukfefnqxhosng7x6cv3,3a1pq49wvlu72v7rt6wvhf97hhah11,la50S1ru,2020-0188,2020-05-21,14:21:10,14:39:14,NA,incomplete,127,filling,1,left,Red_Plus_Stripes_3.jpg,Green_Star_Stripes_1.jpg,Purple_Triangle_Grid_3.jpg,right,1084.0949998237193,false,low,NA,NA,NA,NA,NA,NA,NA,false
la50S1ru,3dzkabx20liukfefnqxhosng7x6cv3,3a1pq49wvlu72v7rt6wvhf97hhah11,la50S1ru,2020-0188,2020-05-21,14:21:10,14:39:14,NA,incomplete,128,filling,0,left,Blue_Circle_Grid_1.jpg,Green_Plus_Grid_3.jpg,Red_Star_Stripes_1.jpg,left,925.3899999894202,true,low,NA,NA,NA,NA,NA,NA,NA,false
la50S1ru,3dzkabx20liukfefnqxhosng7x6cv3,3a1pq49wvlu72v7rt6wvhf97hhah11,la50S1ru,2020-0188,2020-05-21,14:21:10,14:39:14,NA,incomplete,129,filling,1,right,Red_Circle_Dots_1.jpg,Green_Triangle_Grid_1.jpg,Blue_Plus_Dots_3.jpg,right,1319.1100000403821,true,low,NA,NA,NA,NA,NA,NA,NA,false
la50S1ru,3dzkabx20liukfefnqxhosng7x6cv3,3a1pq49wvlu72v7rt6wvhf97hhah11,la50S1ru,2020-0188,2020-05-21,14:21:10,14:39:14,NA,incomplete,130,filling,1,right,Red_Triangle_Grid_1.jpg,Blue_Plus_Stripes_1.jpg,Green_Circle_Grid_4.jpg,left,1156.1849997378886,false,low,NA,NA,NA,NA,NA,NA,NA,false
la50S1ru,3dzkabx20liukfefnqxhosng7x6cv3,3a1pq49wvlu72v7rt6wvhf97hhah11,la50S1ru,2020-0188,2020-05-21,14:21:10,14:39:14,NA,incomplete,131,filling,0,right,Green_Circle_Dots_1.jpg,Purple_Star_Grid_1.jpg,Blue_Plus_Dots_4.jpg,left,1229.4799997471273,false,low,NA,NA,NA,NA,NA,NA,NA,false
la50S1ru,3dzkabx20liukfefnqxhosng7x6cv3,3a1pq49wvlu72v7rt6wvhf97hhah11,la50S1ru,2020-0188,2020-05-21,14:21:10,14:39:14,NA,incomplete,132,filling,1,right,Blue_Plus_Chess_2.jpg,Purple_Circle_Dots_2.jpg,Red_Star_Chess_3.jpg,left,1014.7349997423589,false,low,NA,NA,NA,NA,NA,NA,NA,false
la50S1ru,3dzkabx20liukfefnqxhosng7x6cv3,3a1pq49wvlu72v7rt6wvhf97hhah11,la50S1ru,2020-0188,2020-05-21,14:21:10,14:39:14,NA,incomplete,133,filling,1,right,Purple_Triangle_Dots_3.jpg,Blue_Plus_Stripes_3.jpg,Green_Circle_Dots_2.jpg,left,1011.3699999637902,false,low,NA,NA,NA,NA,NA,NA,NA,false
la50S1ru,3dzkabx20liukfefnqxhosng7x6cv3,3a1pq49wvlu72v7rt6wvhf97hhah11,la50S1ru,2020-0188,2020-05-21,14:21:10,14:39:14,NA,incomplete,134,filling,1,right,Green_Plus_Grid_1.jpg,Red_Circle_Dots_1.jpg,Purple_Triangle_Grid_4.jpg,right,1081.2750002369285,true,low,NA,NA,NA,NA,NA,NA,NA,false
la50S1ru,3dzkabx20liukfefnqxhosng7x6cv3,3a1pq49wvlu72v7rt6wvhf97hhah11,la50S1ru,2020-0188,2020-05-21,14:21:10,14:39:14,NA,incomplete,135,filling,0,left,Red_Circle_Dots_3.jpg,Green_Star_Dots_2.jpg,Purple_Plus_Stripes_3.jpg,left,1480.5399999022484,true,low,NA,NA,NA,NA,NA,NA,NA,false
la50S1ru,3dzkabx20liukfefnqxhosng7x6cv3,3a1pq49wvlu72v7rt6wvhf97hhah11,la50S1ru,2020-0188,2020-05-21,14:21:10,14:39:14,NA,incomplete,136,filling,1,right,Red_Circle_Chess_3.jpg,Purple_Star_Grid_3.jpg,Green_Triangle_Chess_2.jpg,right,1215.12999990955,true,low,NA,NA,NA,NA,NA,NA,NA,false
la50S1ru,3dzkabx20liukfefnqxhosng7x6cv3,3a1pq49wvlu72v7rt6wvhf97hhah11,la50S1ru,2020-0188,2020-05-21,14:21:10,14:39:14,NA,incomplete,137,filling,1,left,Purple_Plus_Dots_1.jpg,Green_Circle_Dots_2.jpg,Blue_Triangle_Chess_1.jpg,left,1175.430000294,true,low,NA,NA,NA,NA,NA,NA,NA,false
la50S1ru,3dzkabx20liukfefnqxhosng7x6cv3,3a1pq49wvlu72v7rt6wvhf97hhah11,la50S1ru,2020-0188,2020-05-21,14:21:10,14:39:14,NA,incomplete,138,filling,1,right,Purple_Star_Dots_3.jpg,Blue_Circle_Chess_3.jpg,Green_Plus_Dots_1.jpg,right,1146.5199999511242,true,low,NA,NA,NA,NA,NA,NA,NA,false
la50S1ru,3dzkabx20liukfefnqxhosng7x6cv3,3a1pq49wvlu72v7rt6wvhf97hhah11,la50S1ru,2020-0188,2020-05-21,14:21:10,14:39:14,NA,incomplete,139,filling,1,right,Green_Triangle_Dots_4.jpg,Purple_Star_Stripes_4.jpg,Blue_Circle_Dots_3.jpg,right,1969.1049996763468,true,low,NA,NA,NA,NA,NA,NA,NA,false
la50S1ru,3dzkabx20liukfefnqxhosng7x6cv3,3a1pq49wvlu72v7rt6wvhf97hhah11,la50S1ru,2020-0188,2020-05-21,14:21:10,14:39:14,NA,incomplete,140,number,1,left,Green_Star_Grid_1.jpg,Blue_Circle_Dots_1.jpg,Red_Triangle_Grid_4.jpg,right,1144.5399997755885,false,low,NA,NA,NA,NA,NA,NA,NA,false
la50S1ru,3dzkabx20liukfefnqxhosng7x6cv3,3a1pq49wvlu72v7rt6wvhf97hhah11,la50S1ru,2020-0188,2020-05-21,14:21:10,14:39:14,NA,incomplete,141,number,0,right,Green_Plus_Grid_3.jpg,Red_Triangle_Grid_2.jpg,Blue_Circle_Dots_3.jpg,right,1167.4200003035367,true,low,NA,NA,NA,NA,NA,NA,NA,false
la50S1ru,3dzkabx20liukfefnqxhosng7x6cv3,3a1pq49wvlu72v7rt6wvhf97hhah11,la50S1ru,2020-0188,2020-05-21,14:21:10,14:39:14,NA,incomplete,142,number,1,left,Purple_Star_Chess_1.jpg,Blue_Plus_Grid_1.jpg,Green_Circle_Chess_4.jpg,right,1249.9500000849366,false,low,NA,NA,NA,NA,NA,NA,NA,false
la50S1ru,3dzkabx20liukfefnqxhosng7x6cv3,3a1pq49wvlu72v7rt6wvhf97hhah11,la50S1ru,2020-0188,2020-05-21,14:21:10,14:39:14,NA,incomplete,143,number,1,right,Green_Star_Dots_4.jpg,Red_Circle_Dots_1.jpg,Purple_Triangle_Chess_4.jpg,right,1085.650000255555,true,low,NA,NA,NA,NA,NA,NA,NA,false
la50S1ru,3dzkabx20liukfefnqxhosng7x6cv3,3a1pq49wvlu72v7rt6wvhf97hhah11,la50S1ru,2020-0188,2020-05-21,14:21:10,14:39:14,NA,incomplete,144,number,0,right,Red_Triangle_Dots_2.jpg,Purple_Circle_Dots_1.jpg,Blue_Star_Chess_2.jpg,right,891.610000282526,true,low,NA,NA,NA,NA,NA,NA,NA,false
la50S1ru,3dzkabx20liukfefnqxhosng7x6cv3,3a1pq49wvlu72v7rt6wvhf97hhah11,la50S1ru,2020-0188,2020-05-21,14:21:10,14:39:14,NA,incomplete,145,number,1,left,Purple_Plus_Dots_2.jpg,Green_Star_Chess_2.jpg,Red_Circle_Dots_4.jpg,left,914.5200001075864,true,low,NA,NA,NA,NA,NA,NA,NA,false
la50S1ru,3dzkabx20liukfefnqxhosng7x6cv3,3a1pq49wvlu72v7rt6wvhf97hhah11,la50S1ru,2020-0188,2020-05-21,14:21:10,14:39:14,NA,incomplete,146,number,1,left,Green_Plus_Grid_4.jpg,Purple_Star_Dots_4.jpg,Red_Triangle_Grid_3.jpg,left,1147.3900000564754,true,low,NA,NA,NA,NA,NA,NA,NA,false
la50S1ru,3dzkabx20liukfefnqxhosng7x6cv3,3a1pq49wvlu72v7rt6wvhf97hhah11,la50S1ru,2020-0188,2020-05-21,14:21:10,14:39:14,NA,incomplete,147,number,0,right,Green_Circle_Chess_1.jpg,Purple_Triangle_Chess_2.jpg,Blue_Star_Dots_1.jpg,right,1532.1300001814961,true,low,NA,NA,NA,NA,NA,NA,NA,false
la50S1ru,3dzkabx20liukfefnqxhosng7x6cv3,3a1pq49wvlu72v7rt6wvhf97hhah11,la50S1ru,2020-0188,2020-05-21,14:21:10,14:39:14,NA,incomplete,148,number,1,left,Green_Star_Chess_2.jpg,Red_Circle_Dots_2.jpg,Purple_Triangle_Chess_1.jpg,left,949.2700002156198,true,low,NA,NA,NA,NA,NA,NA,NA,false
la50S1ru,3dzkabx20liukfefnqxhosng7x6cv3,3a1pq49wvlu72v7rt6wvhf97hhah11,la50S1ru,2020-0188,2020-05-21,14:21:10,14:39:14,NA,incomplete,149,number,1,left,Green_Star_Dots_4.jpg,Red_Circle_Stripes_4.jpg,Blue_Plus_Dots_2.jpg,left,1052.679999731481,true,low,NA,NA,NA,NA,NA,NA,NA,false
la50S1ru,3dzkabx20liukfefnqxhosng7x6cv3,3a1pq49wvlu72v7rt6wvhf97hhah11,la50S1ru,2020-0188,2020-05-21,14:21:10,14:39:14,NA,incomplete,150,number,0,right,Red_Triangle_Chess_1.jpg,Blue_Star_Chess_4.jpg,Purple_Circle_Stripes_1.jpg,right,759.5549998804927,true,low,NA,NA,NA,NA,NA,NA,NA,false
la50S1ru,3dzkabx20liukfefnqxhosng7x6cv3,3a1pq49wvlu72v7rt6wvhf97hhah11,la50S1ru,2020-0188,2020-05-21,14:21:10,14:39:14,NA,incomplete,151,number,1,right,Green_Circle_Stripes_4.jpg,Purple_Triangle_Stripes_2.jpg,Blue_Star_Chess_4.jpg,right,844.9300001375377,true,low,NA,NA,NA,NA,NA,NA,NA,false
la50S1ru,3dzkabx20liukfefnqxhosng7x6cv3,3a1pq49wvlu72v7rt6wvhf97hhah11,la50S1ru,2020-0188,2020-05-21,14:21:10,14:39:14,NA,incomplete,152,number,0,right,Green_Plus_Stripes_3.jpg,Red_Triangle_Stripes_1.jpg,Blue_Star_Chess_3.jpg,right,919.4350000470877,true,low,NA,NA,NA,NA,NA,NA,NA,false
la50S1ru,3dzkabx20liukfefnqxhosng7x6cv3,3a1pq49wvlu72v7rt6wvhf97hhah11,la50S1ru,2020-0188,2020-05-21,14:21:10,14:39:14,NA,incomplete,153,number,1,left,Green_Plus_Dots_2.jpg,Red_Circle_Stripes_2.jpg,Blue_Star_Dots_1.jpg,left,999.294999986887,true,low,NA,NA,NA,NA,NA,NA,NA,false
la50S1ru,3dzkabx20liukfefnqxhosng7x6cv3,3a1pq49wvlu72v7rt6wvhf97hhah11,la50S1ru,2020-0188,2020-05-21,14:21:10,14:39:14,NA,incomplete,154,number,1,right,Blue_Triangle_Dots_3.jpg,Green_Star_Dots_1.jpg,Purple_Plus_Grid_3.jpg,right,759.2250001616776,true,low,NA,NA,NA,NA,NA,NA,NA,false
la50S1ru,3dzkabx20liukfefnqxhosng7x6cv3,3a1pq49wvlu72v7rt6wvhf97hhah11,la50S1ru,2020-0188,2020-05-21,14:21:10,14:39:14,NA,incomplete,155,number,1,right,Purple_Plus_Stripes_3.jpg,Red_Triangle_Stripes_2.jpg,Blue_Circle_Chess_3.jpg,right,908.7450001388788,true,low,NA,NA,NA,NA,NA,NA,NA,false
la50S1ru,3dzkabx20liukfefnqxhosng7x6cv3,3a1pq49wvlu72v7rt6wvhf97hhah11,la50S1ru,2020-0188,2020-05-21,14:21:10,14:39:14,NA,incomplete,156,number,1,right,Red_Star_Dots_3.jpg,Green_Circle_Dots_1.jpg,Purple_Triangle_Chess_3.jpg,right,789.8049997165799,true,low,NA,NA,NA,NA,NA,NA,NA,false
la50S1ru,3dzkabx20liukfefnqxhosng7x6cv3,3a1pq49wvlu72v7rt6wvhf97hhah11,la50S1ru,2020-0188,2020-05-21,14:21:10,14:39:14,NA,incomplete,157,number,1,right,Green_Plus_Stripes_1.jpg,Blue_Circle_Stripes_4.jpg,Red_Star_Dots_1.jpg,right,811.8499997071922,true,low,NA,NA,NA,NA,NA,NA,NA,false
la50S1ru,3dzkabx20liukfefnqxhosng7x6cv3,3a1pq49wvlu72v7rt6wvhf97hhah11,la50S1ru,2020-0188,2020-05-21,14:21:10,14:39:14,NA,incomplete,158,number,0,right,Purple_Triangle_Grid_1.jpg,Green_Star_Grid_3.jpg,Red_Plus_Stripes_1.jpg,right,745.2850001864135,true,low,NA,NA,NA,NA,NA,NA,NA,false
la50S1ru,3dzkabx20liukfefnqxhosng7x6cv3,3a1pq49wvlu72v7rt6wvhf97hhah11,la50S1ru,2020-0188,2020-05-21,14:21:10,14:39:14,NA,incomplete,159,number,1,left,Green_Star_Dots_2.jpg,Purple_Triangle_Grid_2.jpg,Blue_Plus_Dots_3.jpg,left,700.9250000119209,true,low,NA,NA,NA,NA,NA,NA,NA,false
la50S1ru,3dzkabx20liukfefnqxhosng7x6cv3,3a1pq49wvlu72v7rt6wvhf97hhah11,la50S1ru,2020-0188,2020-05-21,14:21:10,14:39:14,NA,incomplete,160,filling,1,left,Purple_Circle_Grid_4.jpg,Red_Star_Grid_3.jpg,Green_Plus_Stripes_4.jpg,right,915.8850000239909,false,low,NA,NA,NA,NA,NA,NA,NA,false
la50S1ru,3dzkabx20liukfefnqxhosng7x6cv3,3a1pq49wvlu72v7rt6wvhf97hhah11,la50S1ru,2020-0188,2020-05-21,14:21:10,14:39:14,NA,incomplete,161,filling,1,left,Purple_Circle_Grid_3.jpg,Red_Star_Grid_1.jpg,Blue_Plus_Stripes_3.jpg,right,742.0149999670684,false,low,NA,NA,NA,NA,NA,NA,NA,false
la50S1ru,3dzkabx20liukfefnqxhosng7x6cv3,3a1pq49wvlu72v7rt6wvhf97hhah11,la50S1ru,2020-0188,2020-05-21,14:21:10,14:39:14,NA,incomplete,162,filling,0,right,Green_Circle_Dots_2.jpg,Red_Triangle_Stripes_2.jpg,Blue_Star_Dots_3.jpg,left,996.1399999447167,false,low,NA,NA,NA,NA,NA,NA,NA,false
la50S1ru,3dzkabx20liukfefnqxhosng7x6cv3,3a1pq49wvlu72v7rt6wvhf97hhah11,la50S1ru,2020-0188,2020-05-21,14:21:10,14:39:14,NA,incomplete,163,filling,1,right,Red_Star_Grid_2.jpg,Purple_Circle_Stripes_2.jpg,Blue_Triangle_Grid_3.jpg,right,1073.864999692887,true,low,NA,NA,NA,NA,NA,NA,NA,false
la50S1ru,3dzkabx20liukfefnqxhosng7x6cv3,3a1pq49wvlu72v7rt6wvhf97hhah11,la50S1ru,2020-0188,2020-05-21,14:21:10,14:39:14,NA,incomplete,164,filling,1,right,Purple_Triangle_Stripes_4.jpg,Red_Plus_Dots_4.jpg,Green_Star_Stripes_1.jpg,right,1100.9599999524653,true,low,NA,NA,NA,NA,NA,NA,NA,false
la50S1ru,3dzkabx20liukfefnqxhosng7x6cv3,3a1pq49wvlu72v7rt6wvhf97hhah11,la50S1ru,2020-0188,2020-05-21,14:21:10,14:39:14,NA,incomplete,165,filling,0,left,Green_Triangle_Stripes_4.jpg,Blue_Plus_Stripes_3.jpg,Purple_Star_Dots_4.jpg,left,1144.3050000816584,true,low,NA,NA,NA,NA,NA,NA,NA,false
la50S1ru,3dzkabx20liukfefnqxhosng7x6cv3,3a1pq49wvlu72v7rt6wvhf97hhah11,la50S1ru,2020-0188,2020-05-21,14:21:10,14:39:14,NA,incomplete,166,filling,1,right,Red_Plus_Grid_3.jpg,Green_Circle_Stripes_3.jpg,Purple_Triangle_Grid_2.jpg,right,1049.4650001637638,true,low,NA,NA,NA,NA,NA,NA,NA,false
la50S1ru,3dzkabx20liukfefnqxhosng7x6cv3,3a1pq49wvlu72v7rt6wvhf97hhah11,la50S1ru,2020-0188,2020-05-21,14:21:10,14:39:14,NA,incomplete,167,filling,1,right,Green_Plus_Stripes_4.jpg,Blue_Circle_Grid_4.jpg,Red_Triangle_Stripes_3.jpg,right,1152.5050001218915,true,low,NA,NA,NA,NA,NA,NA,NA,false
la50S1ru,3dzkabx20liukfefnqxhosng7x6cv3,3a1pq49wvlu72v7rt6wvhf97hhah11,la50S1ru,2020-0188,2020-05-21,14:21:10,14:39:14,NA,incomplete,168,filling,1,left,Purple_Star_Grid_2.jpg,Blue_Plus_Grid_1.jpg,Red_Triangle_Dots_2.jpg,left,1005.9950002469122,true,low,NA,NA,NA,NA,NA,NA,NA,false
la50S1ru,3dzkabx20liukfefnqxhosng7x6cv3,3a1pq49wvlu72v7rt6wvhf97hhah11,la50S1ru,2020-0188,2020-05-21,14:21:10,14:39:14,NA,incomplete,169,filling,1,left,Blue_Triangle_Grid_1.jpg,Purple_Star_Grid_2.jpg,Green_Plus_Chess_1.jpg,left,1483.4499997086823,true,low,NA,NA,NA,NA,NA,NA,NA,false
la50S1ru,3dzkabx20liukfefnqxhosng7x6cv3,3a1pq49wvlu72v7rt6wvhf97hhah11,la50S1ru,2020-0188,2020-05-21,14:21:10,14:39:14,NA,incomplete,170,filling,1,right,Red_Triangle_Chess_3.jpg,Purple_Star_Stripes_3.jpg,Blue_Circle_Chess_4.jpg,right,1114.0800002031028,true,low,NA,NA,NA,NA,NA,NA,NA,false
la50S1ru,3dzkabx20liukfefnqxhosng7x6cv3,3a1pq49wvlu72v7rt6wvhf97hhah11,la50S1ru,2020-0188,2020-05-21,14:21:10,14:39:14,NA,incomplete,171,filling,1,right,Blue_Star_Grid_3.jpg,Purple_Circle_Chess_3.jpg,Green_Plus_Grid_2.jpg,right,1245.2050000429153,true,low,NA,NA,NA,NA,NA,NA,NA,false
la50S1ru,3dzkabx20liukfefnqxhosng7x6cv3,3a1pq49wvlu72v7rt6wvhf97hhah11,la50S1ru,2020-0188,2020-05-21,14:21:10,14:39:14,NA,incomplete,172,filling,0,left,Purple_Plus_Chess_1.jpg,Blue_Star_Chess_4.jpg,Green_Triangle_Stripes_1.jpg,left,1119.4699998013675,true,low,NA,NA,NA,NA,NA,NA,NA,false
la50S1ru,3dzkabx20liukfefnqxhosng7x6cv3,3a1pq49wvlu72v7rt6wvhf97hhah11,la50S1ru,2020-0188,2020-05-21,14:21:10,14:39:14,NA,incomplete,173,filling,1,right,Blue_Star_Grid_4.jpg,Green_Triangle_Chess_4.jpg,Purple_Plus_Grid_1.jpg,right,1258.2249999977648,true,low,NA,NA,NA,NA,NA,NA,NA,false
la50S1ru,3dzkabx20liukfefnqxhosng7x6cv3,3a1pq49wvlu72v7rt6wvhf97hhah11,la50S1ru,2020-0188,2020-05-21,14:21:10,14:39:14,NA,incomplete,174,filling,0,right,Blue_Plus_Stripes_1.jpg,Purple_Triangle_Chess_1.jpg,Red_Star_Stripes_4.jpg,right,1122.9949998669326,true,low,NA,NA,NA,NA,NA,NA,NA,false
la50S1ru,3dzkabx20liukfefnqxhosng7x6cv3,3a1pq49wvlu72v7rt6wvhf97hhah11,la50S1ru,2020-0188,2020-05-21,14:21:10,14:39:14,NA,incomplete,175,filling,1,right,Green_Plus_Grid_4.jpg,Blue_Star_Dots_4.jpg,Purple_Triangle_Grid_1.jpg,right,1082.2149999439716,true,low,NA,NA,NA,NA,NA,NA,NA,false
la50S1ru,3dzkabx20liukfefnqxhosng7x6cv3,3a1pq49wvlu72v7rt6wvhf97hhah11,la50S1ru,2020-0188,2020-05-21,14:21:10,14:39:14,NA,incomplete,176,filling,1,left,Blue_Circle_Grid_1.jpg,Purple_Star_Grid_3.jpg,Red_Triangle_Dots_1.jpg,left,931.4250000752509,true,low,NA,NA,NA,NA,NA,NA,NA,false
la50S1ru,3dzkabx20liukfefnqxhosng7x6cv3,3a1pq49wvlu72v7rt6wvhf97hhah11,la50S1ru,2020-0188,2020-05-21,14:21:10,14:39:14,NA,incomplete,177,filling,1,left,Green_Star_Dots_1.jpg,Blue_Triangle_Dots_2.jpg,Red_Circle_Chess_1.jpg,left,1132.764999754727,true,low,NA,NA,NA,NA,NA,NA,NA,false
la50S1ru,3dzkabx20liukfefnqxhosng7x6cv3,3a1pq49wvlu72v7rt6wvhf97hhah11,la50S1ru,2020-0188,2020-05-21,14:21:10,14:39:14,NA,incomplete,178,filling,0,left,Green_Star_Stripes_3.jpg,Blue_Plus_Stripes_1.jpg,Purple_Circle_Grid_3.jpg,left,1158.1349996849895,true,low,NA,NA,NA,NA,NA,NA,NA,false
la50S1ru,3dzkabx20liukfefnqxhosng7x6cv3,3a1pq49wvlu72v7rt6wvhf97hhah11,la50S1ru,2020-0188,2020-05-21,14:21:10,14:39:14,NA,incomplete,179,filling,1,left,Red_Star_Grid_3.jpg,Blue_Triangle_Grid_2.jpg,Purple_Plus_Dots_3.jpg,left,1135.5449999682605,true,low,NA,NA,NA,NA,NA,NA,NA,false
la50S1ru,3dzkabx20liukfefnqxhosng7x6cv3,3a1pq49wvlu72v7rt6wvhf97hhah11,la50S1ru,2020-0188,2020-05-21,14:21:10,14:39:14,NA,incomplete,180,number,1,left,Purple_Plus_Grid_4.jpg,Blue_Triangle_Stripes_4.jpg,Green_Star_Grid_2.jpg,right,1352.1850001998246,false,low,NA,NA,NA,NA,NA,NA,NA,false
la50S1ru,3dzkabx20liukfefnqxhosng7x6cv3,3a1pq49wvlu72v7rt6wvhf97hhah11,la50S1ru,2020-0188,2020-05-21,14:21:10,14:39:14,NA,incomplete,181,number,0,right,Green_Circle_Chess_2.jpg,Red_Triangle_Chess_3.jpg,Blue_Plus_Stripes_2.jpg,none,0,false,low,NA,NA,NA,NA,NA,NA,NA,false
la50S1ru,3dzkabx20liukfefnqxhosng7x6cv3,3a1pq49wvlu72v7rt6wvhf97hhah11,la50S1ru,2020-0188,2020-05-21,14:21:10,14:39:14,NA,incomplete,182,number,1,left,Green_Circle_Dots_3.jpg,Purple_Plus_Chess_3.jpg,Red_Triangle_Dots_4.jpg,right,1618.719999678433,false,low,NA,NA,NA,NA,NA,NA,NA,false
la50S1ru,3dzkabx20liukfefnqxhosng7x6cv3,3a1pq49wvlu72v7rt6wvhf97hhah11,la50S1ru,2020-0188,2020-05-21,14:21:10,14:39:14,NA,incomplete,183,number,1,right,Red_Plus_Stripes_1.jpg,Blue_Star_Stripes_4.jpg,Purple_Triangle_Dots_1.jpg,right,709.2949999496341,true,low,NA,NA,NA,NA,NA,NA,NA,false
la50S1ru,3dzkabx20liukfefnqxhosng7x6cv3,3a1pq49wvlu72v7rt6wvhf97hhah11,la50S1ru,2020-0188,2020-05-21,14:21:10,14:39:14,NA,incomplete,184,number,1,right,Purple_Circle_Chess_1.jpg,Red_Star_Chess_2.jpg,Blue_Triangle_Dots_1.jpg,right,870.8399999886751,true,low,NA,NA,NA,NA,NA,NA,NA,false
la50S1ru,3dzkabx20liukfefnqxhosng7x6cv3,3a1pq49wvlu72v7rt6wvhf97hhah11,la50S1ru,2020-0188,2020-05-21,14:21:10,14:39:14,NA,incomplete,185,number,0,right,Purple_Triangle_Chess_1.jpg,Blue_Star_Chess_4.jpg,Red_Plus_Stripes_1.jpg,right,756.275000050664,true,low,NA,NA,NA,NA,NA,NA,NA,false
la50S1ru,3dzkabx20liukfefnqxhosng7x6cv3,3a1pq49wvlu72v7rt6wvhf97hhah11,la50S1ru,2020-0188,2020-05-21,14:21:10,14:39:14,NA,incomplete,186,number,1,right,Red_Plus_Dots_4.jpg,Green_Triangle_Dots_2.jpg,Purple_Circle_Stripes_4.jpg,right,981.629999820143,true,low,NA,NA,NA,NA,NA,NA,NA,false
la50S1ru,3dzkabx20liukfefnqxhosng7x6cv3,3a1pq49wvlu72v7rt6wvhf97hhah11,la50S1ru,2020-0188,2020-05-21,14:21:10,14:39:14,NA,incomplete,187,number,1,right,Green_Plus_Chess_1.jpg,Purple_Circle_Chess_3.jpg,Red_Star_Stripes_1.jpg,right,714.6250000223517,true,low,NA,NA,NA,NA,NA,NA,NA,false
la50S1ru,3dzkabx20liukfefnqxhosng7x6cv3,3a1pq49wvlu72v7rt6wvhf97hhah11,la50S1ru,2020-0188,2020-05-21,14:21:10,14:39:14,NA,incomplete,188,number,1,left,Red_Star_Stripes_4.jpg,Purple_Circle_Grid_4.jpg,Blue_Triangle_Stripes_1.jpg,left,870.2850001864135,true,low,NA,NA,NA,NA,NA,NA,NA,false
la50S1ru,3dzkabx20liukfefnqxhosng7x6cv3,3a1pq49wvlu72v7rt6wvhf97hhah11,la50S1ru,2020-0188,2020-05-21,14:21:10,14:39:14,NA,incomplete,189,number,1,left,Red_Star_Grid_4.jpg,Blue_Plus_Dots_4.jpg,Green_Circle_Grid_1.jpg,left,593.6400000937283,true,low,NA,NA,NA,NA,NA,NA,NA,false
la50S1ru,3dzkabx20liukfefnqxhosng7x6cv3,3a1pq49wvlu72v7rt6wvhf97hhah11,la50S1ru,2020-0188,2020-05-21,14:21:10,14:39:14,NA,incomplete,190,number,0,right,Blue_Triangle_Grid_1.jpg,Purple_Star_Grid_4.jpg,Green_Plus_Dots_1.jpg,right,734.8150000907481,true,low,NA,NA,NA,NA,NA,NA,NA,false
la50S1ru,3dzkabx20liukfefnqxhosng7x6cv3,3a1pq49wvlu72v7rt6wvhf97hhah11,la50S1ru,2020-0188,2020-05-21,14:21:10,14:39:14,NA,incomplete,191,number,1,left,Red_Triangle_Stripes_2.jpg,Green_Circle_Grid_2.jpg,Blue_Plus_Stripes_1.jpg,left,782.7800000086427,true,low,NA,NA,NA,NA,NA,NA,NA,false
la50S1ru,3dzkabx20liukfefnqxhosng7x6cv3,3a1pq49wvlu72v7rt6wvhf97hhah11,la50S1ru,2020-0188,2020-05-21,14:21:10,14:39:14,NA,incomplete,192,number,1,right,Purple_Circle_Stripes_3.jpg,Red_Plus_Stripes_4.jpg,Green_Triangle_Grid_3.jpg,right,866.4600001648068,true,low,NA,NA,NA,NA,NA,NA,NA,false
la50S1ru,3dzkabx20liukfefnqxhosng7x6cv3,3a1pq49wvlu72v7rt6wvhf97hhah11,la50S1ru,2020-0188,2020-05-21,14:21:10,14:39:14,NA,incomplete,193,number,1,right,Blue_Star_Chess_3.jpg,Green_Plus_Chess_4.jpg,Purple_Circle_Grid_3.jpg,left,1022.2800001502037,false,low,NA,NA,NA,NA,NA,NA,NA,false
la50S1ru,3dzkabx20liukfefnqxhosng7x6cv3,3a1pq49wvlu72v7rt6wvhf97hhah11,la50S1ru,2020-0188,2020-05-21,14:21:10,14:39:14,NA,incomplete,194,number,1,right,Blue_Triangle_Dots_1.jpg,Purple_Plus_Dots_3.jpg,Green_Circle_Grid_1.jpg,right,668.8149999827147,true,low,NA,NA,NA,NA,NA,NA,NA,false
la50S1ru,3dzkabx20liukfefnqxhosng7x6cv3,3a1pq49wvlu72v7rt6wvhf97hhah11,la50S1ru,2020-0188,2020-05-21,14:21:10,14:39:14,NA,incomplete,195,number,0,right,Purple_Star_Chess_3.jpg,Green_Triangle_Chess_1.jpg,Red_Circle_Dots_3.jpg,right,857.7499999664724,true,low,NA,NA,NA,NA,NA,NA,NA,false
la50S1ru,3dzkabx20liukfefnqxhosng7x6cv3,3a1pq49wvlu72v7rt6wvhf97hhah11,la50S1ru,2020-0188,2020-05-21,14:21:10,14:39:14,NA,incomplete,196,number,1,left,Blue_Circle_Grid_1.jpg,Red_Triangle_Chess_1.jpg,Green_Plus_Grid_4.jpg,left,1365.0600002147257,true,low,NA,NA,NA,NA,NA,NA,NA,false
la50S1ru,3dzkabx20liukfefnqxhosng7x6cv3,3a1pq49wvlu72v7rt6wvhf97hhah11,la50S1ru,2020-0188,2020-05-21,14:21:10,14:39:14,NA,incomplete,197,number,1,right,Red_Circle_Stripes_2.jpg,Blue_Star_Stripes_1.jpg,Green_Triangle_Chess_2.jpg,right,884.460000321269,true,low,NA,NA,NA,NA,NA,NA,NA,false
la50S1ru,3dzkabx20liukfefnqxhosng7x6cv3,3a1pq49wvlu72v7rt6wvhf97hhah11,la50S1ru,2020-0188,2020-05-21,14:21:10,14:39:14,NA,incomplete,198,number,0,right,Red_Circle_Grid_3.jpg,Blue_Triangle_Grid_4.jpg,Green_Star_Dots_3.jpg,right,1016.1999999545515,true,low,NA,NA,NA,NA,NA,NA,NA,false
la50S1ru,3dzkabx20liukfefnqxhosng7x6cv3,3a1pq49wvlu72v7rt6wvhf97hhah11,la50S1ru,2020-0188,2020-05-21,14:21:10,14:39:14,NA,incomplete,199,number,1,left,Green_Circle_Chess_1.jpg,Blue_Triangle_Dots_1.jpg,Red_Star_Chess_2.jpg,left,735.2300002239645,true,low,NA,NA,NA,NA,NA,NA,NA,false
la50S1ru,3dzkabx20liukfefnqxhosng7x6cv3,3a1pq49wvlu72v7rt6wvhf97hhah11,la50S1ru,2020-0188,2020-05-21,14:21:10,14:39:14,NA,incomplete,200,filling,1,left,Purple_Circle_Grid_4.jpg,Blue_Star_Grid_2.jpg,Red_Triangle_Stripes_4.jpg,right,911.5400002337992,false,low,NA,NA,NA,NA,NA,NA,NA,false
la50S1ru,3dzkabx20liukfefnqxhosng7x6cv3,3a1pq49wvlu72v7rt6wvhf97hhah11,la50S1ru,2020-0188,2020-05-21,14:21:10,14:39:14,NA,incomplete,201,filling,1,left,Green_Triangle_Stripes_1.jpg,Blue_Circle_Stripes_4.jpg,Red_Plus_Grid_1.jpg,right,712.4149999581277,false,low,NA,NA,NA,NA,NA,NA,NA,false
la50S1ru,3dzkabx20liukfefnqxhosng7x6cv3,3a1pq49wvlu72v7rt6wvhf97hhah11,la50S1ru,2020-0188,2020-05-21,14:21:10,14:39:14,NA,incomplete,202,filling,1,right,Purple_Triangle_Grid_1.jpg,Red_Circle_Stripes_1.jpg,Blue_Plus_Grid_2.jpg,right,1112.539999652654,true,low,NA,NA,NA,NA,NA,NA,NA,false
la50S1ru,3dzkabx20liukfefnqxhosng7x6cv3,3a1pq49wvlu72v7rt6wvhf97hhah11,la50S1ru,2020-0188,2020-05-21,14:21:10,14:39:14,NA,incomplete,203,filling,0,right,Red_Triangle_Stripes_3.jpg,Blue_Star_Chess_3.jpg,Purple_Circle_Stripes_2.jpg,right,1035.6650003232062,true,low,NA,NA,NA,NA,NA,NA,NA,false
la50S1ru,3dzkabx20liukfefnqxhosng7x6cv3,3a1pq49wvlu72v7rt6wvhf97hhah11,la50S1ru,2020-0188,2020-05-21,14:21:10,14:39:14,NA,incomplete,204,filling,1,left,Purple_Plus_Grid_2.jpg,Green_Star_Grid_4.jpg,Red_Circle_Chess_2.jpg,left,1148.3350000344217,true,low,NA,NA,NA,NA,NA,NA,NA,false
la50S1ru,3dzkabx20liukfefnqxhosng7x6cv3,3a1pq49wvlu72v7rt6wvhf97hhah11,la50S1ru,2020-0188,2020-05-21,14:21:10,14:39:14,NA,incomplete,205,filling,1,left,Green_Triangle_Grid_3.jpg,Blue_Circle_Grid_1.jpg,Purple_Plus_Stripes_3.jpg,left,1083.6149998940527,true,low,NA,NA,NA,NA,NA,NA,NA,false
la50S1ru,3dzkabx20liukfefnqxhosng7x6cv3,3a1pq49wvlu72v7rt6wvhf97hhah11,la50S1ru,2020-0188,2020-05-21,14:21:10,14:39:14,NA,incomplete,206,filling,1,right,Purple_Plus_Stripes_1.jpg,Blue_Circle_Grid_1.jpg,Red_Star_Stripes_2.jpg,right,1141.0199999809265,true,low,NA,NA,NA,NA,NA,NA,NA,false
la50S1ru,3dzkabx20liukfefnqxhosng7x6cv3,3a1pq49wvlu72v7rt6wvhf97hhah11,la50S1ru,2020-0188,2020-05-21,14:21:10,14:39:14,NA,incomplete,207,filling,1,left,Purple_Triangle_Chess_2.jpg,Blue_Star_Chess_4.jpg,Green_Plus_Dots_2.jpg,left,926.4250001870096,true,low,NA,NA,NA,NA,NA,NA,NA,false
la50S1ru,3dzkabx20liukfefnqxhosng7x6cv3,3a1pq49wvlu72v7rt6wvhf97hhah11,la50S1ru,2020-0188,2020-05-21,14:21:10,14:39:14,NA,incomplete,208,filling,1,right,Green_Circle_Dots_3.jpg,Purple_Triangle_Grid_3.jpg,Red_Plus_Dots_1.jpg,right,1090.6350002624094,true,low,NA,NA,NA,NA,NA,NA,NA,false
la50S1ru,3dzkabx20liukfefnqxhosng7x6cv3,3a1pq49wvlu72v7rt6wvhf97hhah11,la50S1ru,2020-0188,2020-05-21,14:21:10,14:39:14,NA,incomplete,209,filling,1,right,Red_Plus_Grid_4.jpg,Green_Circle_Stripes_4.jpg,Blue_Triangle_Grid_2.jpg,right,1125.365000218153,true,low,NA,NA,NA,NA,NA,NA,NA,false
la50S1ru,3dzkabx20liukfefnqxhosng7x6cv3,3a1pq49wvlu72v7rt6wvhf97hhah11,la50S1ru,2020-0188,2020-05-21,14:21:10,14:39:14,NA,incomplete,210,filling,1,left,Blue_Star_Dots_1.jpg,Red_Plus_Dots_2.jpg,Green_Circle_Grid_1.jpg,right,1044.8399996384978,false,low,NA,NA,NA,NA,NA,NA,NA,false
la50S1ru,3dzkabx20liukfefnqxhosng7x6cv3,3a1pq49wvlu72v7rt6wvhf97hhah11,la50S1ru,2020-0188,2020-05-21,14:21:10,14:39:14,NA,incomplete,211,filling,0,right,Purple_Plus_Stripes_4.jpg,Green_Circle_Grid_4.jpg,Red_Triangle_Stripes_1.jpg,right,1085.1300000213087,true,low,NA,NA,NA,NA,NA,NA,NA,false
la50S1ru,3dzkabx20liukfefnqxhosng7x6cv3,3a1pq49wvlu72v7rt6wvhf97hhah11,la50S1ru,2020-0188,2020-05-21,14:21:10,14:39:14,NA,incomplete,212,filling,1,right,Purple_Circle_Grid_3.jpg,Blue_Triangle_Dots_3.jpg,Red_Plus_Grid_2.jpg,right,1031.4349997788668,true,low,NA,NA,NA,NA,NA,NA,NA,false
la50S1ru,3dzkabx20liukfefnqxhosng7x6cv3,3a1pq49wvlu72v7rt6wvhf97hhah11,la50S1ru,2020-0188,2020-05-21,14:21:10,14:39:14,NA,incomplete,213,filling,1,right,Green_Triangle_Chess_3.jpg,Blue_Plus_Grid_3.jpg,Red_Star_Chess_1.jpg,left,1028.785000089556,false,low,NA,NA,NA,NA,NA,NA,NA,false
la50S1ru,3dzkabx20liukfefnqxhosng7x6cv3,3a1pq49wvlu72v7rt6wvhf97hhah11,la50S1ru,2020-0188,2020-05-21,14:21:10,14:39:14,NA,incomplete,214,filling,1,right,Purple_Star_Dots_3.jpg,Red_Circle_Grid_3.jpg,Blue_Triangle_Dots_1.jpg,right,1036.4950001239777,true,low,NA,NA,NA,NA,NA,NA,NA,false
la50S1ru,3dzkabx20liukfefnqxhosng7x6cv3,3a1pq49wvlu72v7rt6wvhf97hhah11,la50S1ru,2020-0188,2020-05-21,14:21:10,14:39:14,NA,incomplete,215,filling,0,right,Red_Triangle_Grid_2.jpg,Blue_Plus_Dots_2.jpg,Purple_Star_Grid_4.jpg,right,1079.3049996718764,true,low,NA,NA,NA,NA,NA,NA,NA,false
la50S1ru,3dzkabx20liukfefnqxhosng7x6cv3,3a1pq49wvlu72v7rt6wvhf97hhah11,la50S1ru,2020-0188,2020-05-21,14:21:10,14:39:14,NA,incomplete,216,filling,1,right,Green_Plus_Chess_1.jpg,Blue_Circle_Dots_1.jpg,Purple_Triangle_Chess_3.jpg,right,855.0200001336634,true,low,NA,NA,NA,NA,NA,NA,NA,false
la50S1ru,3dzkabx20liukfefnqxhosng7x6cv3,3a1pq49wvlu72v7rt6wvhf97hhah11,la50S1ru,2020-0188,2020-05-21,14:21:10,14:39:14,NA,incomplete,217,filling,1,right,Purple_Star_Grid_1.jpg,Blue_Circle_Stripes_1.jpg,Green_Triangle_Grid_4.jpg,right,1115.4050002805889,true,low,NA,NA,NA,NA,NA,NA,NA,false
la50S1ru,3dzkabx20liukfefnqxhosng7x6cv3,3a1pq49wvlu72v7rt6wvhf97hhah11,la50S1ru,2020-0188,2020-05-21,14:21:10,14:39:14,NA,incomplete,218,filling,1,left,Red_Plus_Dots_2.jpg,Purple_Circle_Dots_4.jpg,Blue_Triangle_Stripes_2.jpg,left,1189.259999897331,true,low,NA,NA,NA,NA,NA,NA,NA,false
la50S1ru,3dzkabx20liukfefnqxhosng7x6cv3,3a1pq49wvlu72v7rt6wvhf97hhah11,la50S1ru,2020-0188,2020-05-21,14:21:10,14:39:14,NA,incomplete,219,filling,1,right,Purple_Plus_Dots_2.jpg,Green_Circle_Chess_2.jpg,Blue_Triangle_Dots_4.jpg,right,1227.3450000211596,true,low,NA,NA,NA,NA,NA,NA,NA,false
la50S1ru,3dzkabx20liukfefnqxhosng7x6cv3,3a1pq49wvlu72v7rt6wvhf97hhah11,la50S1ru,2020-0188,2020-05-21,14:21:10,14:39:14,NA,incomplete,220,number,1,left,Purple_Star_Chess_1.jpg,Blue_Plus_Stripes_1.jpg,Red_Triangle_Chess_3.jpg,right,987.8199999220669,false,low,NA,NA,NA,NA,NA,NA,NA,false
la50S1ru,3dzkabx20liukfefnqxhosng7x6cv3,3a1pq49wvlu72v7rt6wvhf97hhah11,la50S1ru,2020-0188,2020-05-21,14:21:10,14:39:14,NA,incomplete,221,number,1,right,Green_Plus_Grid_2.jpg,Purple_Star_Grid_4.jpg,Blue_Circle_Dots_2.jpg,left,1106.4949999563396,false,low,NA,NA,NA,NA,NA,NA,NA,false
la50S1ru,3dzkabx20liukfefnqxhosng7x6cv3,3a1pq49wvlu72v7rt6wvhf97hhah11,la50S1ru,2020-0188,2020-05-21,14:21:10,14:39:14,NA,incomplete,222,number,1,right,Blue_Triangle_Dots_4.jpg,Red_Star_Dots_2.jpg,Purple_Plus_Stripes_4.jpg,right,907.6199997216463,true,low,NA,NA,NA,NA,NA,NA,NA,false
la50S1ru,3dzkabx20liukfefnqxhosng7x6cv3,3a1pq49wvlu72v7rt6wvhf97hhah11,la50S1ru,2020-0188,2020-05-21,14:21:10,14:39:14,NA,incomplete,223,number,1,left,Red_Circle_Stripes_1.jpg,Green_Triangle_Dots_1.jpg,Blue_Star_Stripes_3.jpg,left,909.3549996614456,true,low,NA,NA,NA,NA,NA,NA,NA,false
la50S1ru,3dzkabx20liukfefnqxhosng7x6cv3,3a1pq49wvlu72v7rt6wvhf97hhah11,la50S1ru,2020-0188,2020-05-21,14:21:10,14:39:14,NA,incomplete,224,number,1,left,Blue_Triangle_Stripes_4.jpg,Red_Circle_Dots_4.jpg,Green_Star_Stripes_3.jpg,left,1206.400000024587,true,low,NA,NA,NA,NA,NA,NA,NA,false
la50S1ru,3dzkabx20liukfefnqxhosng7x6cv3,3a1pq49wvlu72v7rt6wvhf97hhah11,la50S1ru,2020-0188,2020-05-21,14:21:10,14:39:14,NA,incomplete,225,number,0,right,Red_Star_Stripes_3.jpg,Green_Circle_Stripes_4.jpg,Purple_Plus_Chess_3.jpg,right,843.8400002196431,true,low,NA,NA,NA,NA,NA,NA,NA,false
la50S1ru,3dzkabx20liukfefnqxhosng7x6cv3,3a1pq49wvlu72v7rt6wvhf97hhah11,la50S1ru,2020-0188,2020-05-21,14:21:10,14:39:14,NA,incomplete,226,number,1,right,Purple_Circle_Dots_2.jpg,Green_Star_Dots_4.jpg,Blue_Triangle_Grid_2.jpg,right,726.7799996770918,true,low,NA,NA,NA,NA,NA,NA,NA,false
la50S1ru,3dzkabx20liukfefnqxhosng7x6cv3,3a1pq49wvlu72v7rt6wvhf97hhah11,la50S1ru,2020-0188,2020-05-21,14:21:10,14:39:14,NA,incomplete,227,number,1,left,Blue_Circle_Chess_3.jpg,Purple_Star_Grid_3.jpg,Red_Plus_Chess_1.jpg,left,876.8649999983609,true,low,NA,NA,NA,NA,NA,NA,NA,false
la50S1ru,3dzkabx20liukfefnqxhosng7x6cv3,3a1pq49wvlu72v7rt6wvhf97hhah11,la50S1ru,2020-0188,2020-05-21,14:21:10,14:39:14,NA,incomplete,228,number,1,right,Purple_Circle_Grid_2.jpg,Green_Triangle_Grid_4.jpg,Red_Star_Chess_2.jpg,right,1021.7699999921024,true,low,NA,NA,NA,NA,NA,NA,NA,false
la50S1ru,3dzkabx20liukfefnqxhosng7x6cv3,3a1pq49wvlu72v7rt6wvhf97hhah11,la50S1ru,2020-0188,2020-05-21,14:21:10,14:39:14,NA,incomplete,229,number,1,left,Green_Star_Chess_2.jpg,Purple_Triangle_Stripes_2.jpg,Blue_Plus_Chess_1.jpg,left,1341.9449999928474,true,low,NA,NA,NA,NA,NA,NA,NA,false
la50S1ru,3dzkabx20liukfefnqxhosng7x6cv3,3a1pq49wvlu72v7rt6wvhf97hhah11,la50S1ru,2020-0188,2020-05-21,14:21:10,14:39:14,NA,incomplete,230,number,1,left,Green_Plus_Stripes_1.jpg,Blue_Star_Chess_1.jpg,Red_Circle_Stripes_3.jpg,left,734.4100000336766,true,low,NA,NA,NA,NA,NA,NA,NA,false
la50S1ru,3dzkabx20liukfefnqxhosng7x6cv3,3a1pq49wvlu72v7rt6wvhf97hhah11,la50S1ru,2020-0188,2020-05-21,14:21:10,14:39:14,NA,incomplete,231,number,1,left,Red_Triangle_Grid_1.jpg,Blue_Star_Stripes_1.jpg,Purple_Plus_Grid_3.jpg,left,724.5950000360608,true,low,NA,NA,NA,NA,NA,NA,NA,false
la50S1ru,3dzkabx20liukfefnqxhosng7x6cv3,3a1pq49wvlu72v7rt6wvhf97hhah11,la50S1ru,2020-0188,2020-05-21,14:21:10,14:39:14,NA,incomplete,232,number,1,right,Purple_Triangle_Grid_1.jpg,Green_Plus_Grid_4.jpg,Blue_Star_Chess_1.jpg,right,826.6650000587106,true,low,NA,NA,NA,NA,NA,NA,NA,false
la50S1ru,3dzkabx20liukfefnqxhosng7x6cv3,3a1pq49wvlu72v7rt6wvhf97hhah11,la50S1ru,2020-0188,2020-05-21,14:21:10,14:39:14,NA,incomplete,233,number,1,right,Purple_Plus_Stripes_1.jpg,Blue_Star_Stripes_2.jpg,Green_Circle_Dots_1.jpg,left,900.1750000752509,false,low,NA,NA,NA,NA,NA,NA,NA,false
la50S1ru,3dzkabx20liukfefnqxhosng7x6cv3,3a1pq49wvlu72v7rt6wvhf97hhah11,la50S1ru,2020-0188,2020-05-21,14:21:10,14:39:14,NA,incomplete,234,number,1,left,Green_Star_Chess_1.jpg,Purple_Triangle_Dots_1.jpg,Red_Plus_Chess_2.jpg,right,782.6649998314679,false,low,NA,NA,NA,NA,NA,NA,NA,false
la50S1ru,3dzkabx20liukfefnqxhosng7x6cv3,3a1pq49wvlu72v7rt6wvhf97hhah11,la50S1ru,2020-0188,2020-05-21,14:21:10,14:39:14,NA,incomplete,235,number,1,right,Green_Plus_Chess_2.jpg,Purple_Triangle_Chess_1.jpg,Red_Star_Dots_2.jpg,right,842.5050000660121,true,low,NA,NA,NA,NA,NA,NA,NA,false
la50S1ru,3dzkabx20liukfefnqxhosng7x6cv3,3a1pq49wvlu72v7rt6wvhf97hhah11,la50S1ru,2020-0188,2020-05-21,14:21:10,14:39:14,NA,incomplete,236,number,1,left,Blue_Triangle_Grid_1.jpg,Red_Star_Stripes_1.jpg,Purple_Plus_Grid_3.jpg,left,928.0049996450543,true,low,NA,NA,NA,NA,NA,NA,NA,false
la50S1ru,3dzkabx20liukfefnqxhosng7x6cv3,3a1pq49wvlu72v7rt6wvhf97hhah11,la50S1ru,2020-0188,2020-05-21,14:21:10,14:39:14,NA,incomplete,237,number,1,right,Blue_Star_Chess_3.jpg,Purple_Circle_Chess_1.jpg,Red_Plus_Stripes_3.jpg,right,650.6949998438358,true,low,NA,NA,NA,NA,NA,NA,NA,false
la50S1ru,3dzkabx20liukfefnqxhosng7x6cv3,3a1pq49wvlu72v7rt6wvhf97hhah11,la50S1ru,2020-0188,2020-05-21,14:21:10,14:39:14,NA,incomplete,238,number,1,right,Green_Circle_Dots_3.jpg,Purple_Triangle_Dots_2.jpg,Blue_Star_Grid_3.jpg,right,864.4699999131262,true,low,NA,NA,NA,NA,NA,NA,NA,false
la50S1ru,3dzkabx20liukfefnqxhosng7x6cv3,3a1pq49wvlu72v7rt6wvhf97hhah11,la50S1ru,2020-0188,2020-05-21,14:21:10,14:39:14,NA,incomplete,239,number,1,right,Green_Plus_Stripes_1.jpg,Blue_Triangle_Stripes_2.jpg,Purple_Star_Grid_1.jpg,right,695.1200002804399,true,low,NA,NA,NA,NA,NA,NA,NA,false
la50S1ru,3dzkabx20liukfefnqxhosng7x6cv3,3a1pq49wvlu72v7rt6wvhf97hhah11,la50S1ru,2020-0188,2020-05-21,14:21:10,14:39:14,NA,NA,instruction example,color,NA,NA,Purple_Triangle_Stripes_3.jpg,Purple_Star_Grid_1.jpg,Green_Triangle_Dots_4.jpg,NA,NA,NA,NA,NA,NA,NA,NA,NA,NA,NA,undefined
la50S1ru,3dzkabx20liukfefnqxhosng7x6cv3,3a1pq49wvlu72v7rt6wvhf97hhah11,la50S1ru,2020-0188,2020-05-21,14:21:10,14:39:14,NA,NA,instruction example,color,NA,NA,Red_Plus_Chess_3.jpg,Green_Plus_Stripes_1.jpg,Red_Star_Grid_2.jpg,NA,NA,NA,NA,NA,NA,NA,NA,NA,NA,NA,undefined
la50S1ru,3dzkabx20liukfefnqxhosng7x6cv3,3a1pq49wvlu72v7rt6wvhf97hhah11,la50S1ru,2020-0188,2020-05-21,14:21:10,14:39:14,NA,NA,instruction example,color,NA,NA,Red_Circle_Grid_3.jpg,Purple_Triangle_Grid_1.jpg,Blue_Plus_Dots_3.jpg,NA,NA,NA,NA,NA,NA,NA,NA,NA,NA,NA,undefined
la50S1ru,3dzkabx20liukfefnqxhosng7x6cv3,3a1pq49wvlu72v7rt6wvhf97hhah11,la50S1ru,2020-0188,2020-05-21,14:21:10,14:39:14,NA,NA,instruction example,color,NA,NA,Blue_Plus_Grid_4.jpg,Purple_Triangle_Chess_4.jpg,Green_Circle_Grid_1.jpg,NA,NA,NA,NA,NA,NA,NA,NA,NA,NA,NA,undefined
la50S1ru,3dzkabx20liukfefnqxhosng7x6cv3,3a1pq49wvlu72v7rt6wvhf97hhah11,la50S1ru,2020-0188,2020-05-21,14:21:10,14:39:14,1065507.284999825,1083616.5800001472,NA,NA,NA,NA,NA,NA,NA,NA,NA,NA,NA,62,White/Caucasian,Female,Not Hispanic,no,yes,no,undefined
