workerId,hitId,assignmentId,subject,studyid,exp_date,exp_start,exp_end,time_start,time_end,trial,type,reward_validity,answer,image_top,image_left,image_right,response,response_time,response_acc,volatility,practice
kWk5Uyl9,3lvtfb9df8vfwjy33dzq8w9nvhnqgc,3auqqel7u96cd7ht2c9zibh7i04v0j,kWk5Uyl9,2020-0188,2020-11-18,15:47:04,16:07:12,NA,incomplete,0,color,1,right,Blue_Triangle_Dots_4.jpg,Red_Triangle_Stripes_3.jpg,Blue_Circle_Grid_1.jpg,none,0,false,NA,true
kWk5Uyl9,3lvtfb9df8vfwjy33dzq8w9nvhnqgc,3auqqel7u96cd7ht2c9zibh7i04v0j,kWk5Uyl9,2020-0188,2020-11-18,15:47:04,16:07:12,NA,incomplete,1,color,1,left,Blue_Star_Chess_1.jpg,Blue_Circle_Stripes_3.jpg,Purple_Star_Grid_4.jpg,left,1159.1999999945983,true,NA,true
kWk5Uyl9,3lvtfb9df8vfwjy33dzq8w9nvhnqgc,3auqqel7u96cd7ht2c9zibh7i04v0j,kWk5Uyl9,2020-0188,2020-11-18,15:47:04,16:07:12,NA,incomplete,2,color,1,right,Purple_Triangle_Stripes_1.jpg,Green_Triangle_Grid_2.jpg,Purple_Plus_Dots_4.jpg,right,1393.4250000165775,true,NA,true
kWk5Uyl9,3lvtfb9df8vfwjy33dzq8w9nvhnqgc,3auqqel7u96cd7ht2c9zibh7i04v0j,kWk5Uyl9,2020-0188,2020-11-18,15:47:04,16:07:12,NA,incomplete,3,color,0,right,Red_Circle_Dots_1.jpg,Blue_Circle_Stripes_4.jpg,Red_Triangle_Grid_3.jpg,right,1246.21000001207,true,NA,true
kWk5Uyl9,3lvtfb9df8vfwjy33dzq8w9nvhnqgc,3auqqel7u96cd7ht2c9zibh7i04v0j,kWk5Uyl9,2020-0188,2020-11-18,15:47:04,16:07:12,NA,incomplete,4,color,1,right,Green_Plus_Chess_2.jpg,Purple_Plus_Grid_4.jpg,Green_Circle_Dots_3.jpg,left,1757.370000006631,false,NA,true
kWk5Uyl9,3lvtfb9df8vfwjy33dzq8w9nvhnqgc,3auqqel7u96cd7ht2c9zibh7i04v0j,kWk5Uyl9,2020-0188,2020-11-18,15:47:04,16:07:12,NA,incomplete,5,color,1,right,Purple_Plus_Dots_4.jpg,Green_Plus_Grid_1.jpg,Purple_Star_Chess_3.jpg,right,912.0499999844469,true,NA,true
kWk5Uyl9,3lvtfb9df8vfwjy33dzq8w9nvhnqgc,3auqqel7u96cd7ht2c9zibh7i04v0j,kWk5Uyl9,2020-0188,2020-11-18,15:47:04,16:07:12,NA,incomplete,6,color,1,right,Purple_Plus_Stripes_1.jpg,Green_Plus_Chess_4.jpg,Purple_Triangle_Grid_2.jpg,right,1414.8649999988265,true,NA,true
kWk5Uyl9,3lvtfb9df8vfwjy33dzq8w9nvhnqgc,3auqqel7u96cd7ht2c9zibh7i04v0j,kWk5Uyl9,2020-0188,2020-11-18,15:47:04,16:07:12,NA,incomplete,7,color,1,left,Blue_Circle_Stripes_3.jpg,Blue_Triangle_Grid_4.jpg,Purple_Circle_Chess_2.jpg,left,1506.0999999986961,true,NA,true
kWk5Uyl9,3lvtfb9df8vfwjy33dzq8w9nvhnqgc,3auqqel7u96cd7ht2c9zibh7i04v0j,kWk5Uyl9,2020-0188,2020-11-18,15:47:04,16:07:12,NA,incomplete,8,color,1,left,Purple_Star_Chess_4.jpg,Purple_Circle_Dots_3.jpg,Green_Star_Stripes_1.jpg,left,945.4200000036508,true,NA,true
kWk5Uyl9,3lvtfb9df8vfwjy33dzq8w9nvhnqgc,3auqqel7u96cd7ht2c9zibh7i04v0j,kWk5Uyl9,2020-0188,2020-11-18,15:47:04,16:07:12,NA,incomplete,9,color,1,left,Green_Circle_Stripes_1.jpg,Green_Plus_Dots_3.jpg,Blue_Circle_Chess_2.jpg,left,865.7900000107475,true,NA,true
kWk5Uyl9,3lvtfb9df8vfwjy33dzq8w9nvhnqgc,3auqqel7u96cd7ht2c9zibh7i04v0j,kWk5Uyl9,2020-0188,2020-11-18,15:47:04,16:07:12,NA,incomplete,10,color,1,left,Red_Star_Stripes_1.jpg,Red_Triangle_Dots_4.jpg,Blue_Star_Chess_3.jpg,left,1321.0949999920558,true,NA,true
kWk5Uyl9,3lvtfb9df8vfwjy33dzq8w9nvhnqgc,3auqqel7u96cd7ht2c9zibh7i04v0j,kWk5Uyl9,2020-0188,2020-11-18,15:47:04,16:07:12,NA,incomplete,11,color,1,left,Green_Star_Stripes_1.jpg,Green_Plus_Chess_3.jpg,Purple_Star_Dots_2.jpg,left,1158.8550000160467,true,NA,true
kWk5Uyl9,3lvtfb9df8vfwjy33dzq8w9nvhnqgc,3auqqel7u96cd7ht2c9zibh7i04v0j,kWk5Uyl9,2020-0188,2020-11-18,15:47:04,16:07:12,NA,incomplete,12,color,1,right,Red_Star_Stripes_2.jpg,Blue_Star_Dots_3.jpg,Red_Triangle_Grid_4.jpg,right,1194.6250000037253,true,NA,true
kWk5Uyl9,3lvtfb9df8vfwjy33dzq8w9nvhnqgc,3auqqel7u96cd7ht2c9zibh7i04v0j,kWk5Uyl9,2020-0188,2020-11-18,15:47:04,16:07:12,NA,incomplete,13,color,1,right,Green_Circle_Chess_4.jpg,Red_Circle_Dots_2.jpg,Green_Plus_Grid_3.jpg,right,1286.7050000058953,true,NA,true
kWk5Uyl9,3lvtfb9df8vfwjy33dzq8w9nvhnqgc,3auqqel7u96cd7ht2c9zibh7i04v0j,kWk5Uyl9,2020-0188,2020-11-18,15:47:04,16:07:12,NA,incomplete,14,color,1,right,Blue_Star_Stripes_3.jpg,Red_Star_Grid_4.jpg,Blue_Circle_Chess_1.jpg,right,1154.4749999884516,true,NA,true
kWk5Uyl9,3lvtfb9df8vfwjy33dzq8w9nvhnqgc,3auqqel7u96cd7ht2c9zibh7i04v0j,kWk5Uyl9,2020-0188,2020-11-18,15:47:04,16:07:12,NA,incomplete,15,color,0,left,Green_Plus_Chess_1.jpg,Green_Triangle_Dots_4.jpg,Purple_Plus_Grid_2.jpg,left,905.430000013439,true,NA,true
kWk5Uyl9,3lvtfb9df8vfwjy33dzq8w9nvhnqgc,3auqqel7u96cd7ht2c9zibh7i04v0j,kWk5Uyl9,2020-0188,2020-11-18,15:47:04,16:07:12,NA,incomplete,16,color,1,right,Red_Plus_Chess_3.jpg,Green_Plus_Stripes_2.jpg,Red_Triangle_Grid_4.jpg,right,1230.4149999981746,true,NA,true
kWk5Uyl9,3lvtfb9df8vfwjy33dzq8w9nvhnqgc,3auqqel7u96cd7ht2c9zibh7i04v0j,kWk5Uyl9,2020-0188,2020-11-18,15:47:04,16:07:12,NA,incomplete,17,color,0,right,Green_Star_Chess_3.jpg,Red_Star_Dots_2.jpg,Green_Circle_Stripes_1.jpg,right,878.1449999951292,true,NA,true
kWk5Uyl9,3lvtfb9df8vfwjy33dzq8w9nvhnqgc,3auqqel7u96cd7ht2c9zibh7i04v0j,kWk5Uyl9,2020-0188,2020-11-18,15:47:04,16:07:12,NA,incomplete,18,color,1,right,Green_Triangle_Grid_4.jpg,Blue_Triangle_Chess_1.jpg,Green_Star_Dots_3.jpg,right,819.0549999999348,true,NA,true
kWk5Uyl9,3lvtfb9df8vfwjy33dzq8w9nvhnqgc,3auqqel7u96cd7ht2c9zibh7i04v0j,kWk5Uyl9,2020-0188,2020-11-18,15:47:04,16:07:12,NA,incomplete,19,color,1,left,Blue_Triangle_Chess_2.jpg,Blue_Circle_Stripes_1.jpg,Red_Triangle_Grid_4.jpg,left,927.5400000042282,true,NA,true
kWk5Uyl9,3lvtfb9df8vfwjy33dzq8w9nvhnqgc,3auqqel7u96cd7ht2c9zibh7i04v0j,kWk5Uyl9,2020-0188,2020-11-18,15:47:04,16:07:12,NA,incomplete,20,shape,1,left,Green_Plus_Dots_3.jpg,Purple_Plus_Stripes_1.jpg,Green_Star_Grid_2.jpg,right,907.9599999822676,false,NA,true
kWk5Uyl9,3lvtfb9df8vfwjy33dzq8w9nvhnqgc,3auqqel7u96cd7ht2c9zibh7i04v0j,kWk5Uyl9,2020-0188,2020-11-18,15:47:04,16:07:12,NA,incomplete,21,shape,1,right,Red_Triangle_Dots_4.jpg,Red_Circle_Chess_2.jpg,Purple_Triangle_Stripes_3.jpg,right,1171.154999989085,true,NA,true
kWk5Uyl9,3lvtfb9df8vfwjy33dzq8w9nvhnqgc,3auqqel7u96cd7ht2c9zibh7i04v0j,kWk5Uyl9,2020-0188,2020-11-18,15:47:04,16:07:12,NA,incomplete,22,shape,0,left,Blue_Plus_Dots_1.jpg,Red_Plus_Stripes_2.jpg,Blue_Circle_Chess_3.jpg,left,1398.3149999985471,true,NA,true
kWk5Uyl9,3lvtfb9df8vfwjy33dzq8w9nvhnqgc,3auqqel7u96cd7ht2c9zibh7i04v0j,kWk5Uyl9,2020-0188,2020-11-18,15:47:04,16:07:12,NA,incomplete,23,shape,1,left,Purple_Plus_Dots_3.jpg,Blue_Plus_Grid_1.jpg,Purple_Star_Stripes_4.jpg,left,1176.0549999889918,true,NA,true
kWk5Uyl9,3lvtfb9df8vfwjy33dzq8w9nvhnqgc,3auqqel7u96cd7ht2c9zibh7i04v0j,kWk5Uyl9,2020-0188,2020-11-18,15:47:04,16:07:12,NA,incomplete,24,shape,1,right,Purple_Triangle_Chess_4.jpg,Purple_Star_Stripes_2.jpg,Green_Triangle_Dots_3.jpg,right,1448.454999976093,true,NA,true
kWk5Uyl9,3lvtfb9df8vfwjy33dzq8w9nvhnqgc,3auqqel7u96cd7ht2c9zibh7i04v0j,kWk5Uyl9,2020-0188,2020-11-18,15:47:04,16:07:12,NA,incomplete,25,shape,1,right,Red_Plus_Grid_3.jpg,Red_Circle_Dots_2.jpg,Blue_Plus_Stripes_4.jpg,right,904.469999979483,true,NA,true
kWk5Uyl9,3lvtfb9df8vfwjy33dzq8w9nvhnqgc,3auqqel7u96cd7ht2c9zibh7i04v0j,kWk5Uyl9,2020-0188,2020-11-18,15:47:04,16:07:12,NA,incomplete,26,shape,1,right,Red_Plus_Stripes_2.jpg,Red_Star_Dots_4.jpg,Purple_Plus_Grid_3.jpg,right,948.9500000199769,true,NA,true
kWk5Uyl9,3lvtfb9df8vfwjy33dzq8w9nvhnqgc,3auqqel7u96cd7ht2c9zibh7i04v0j,kWk5Uyl9,2020-0188,2020-11-18,15:47:04,16:07:12,NA,incomplete,27,shape,1,left,Green_Plus_Chess_1.jpg,Purple_Plus_Dots_4.jpg,Green_Star_Grid_3.jpg,left,1693.1749999930616,true,NA,true
kWk5Uyl9,3lvtfb9df8vfwjy33dzq8w9nvhnqgc,3auqqel7u96cd7ht2c9zibh7i04v0j,kWk5Uyl9,2020-0188,2020-11-18,15:47:04,16:07:12,NA,incomplete,28,shape,0,left,Blue_Star_Stripes_2.jpg,Purple_Star_Grid_3.jpg,Blue_Circle_Dots_4.jpg,left,1056.8100000091363,true,NA,true
kWk5Uyl9,3lvtfb9df8vfwjy33dzq8w9nvhnqgc,3auqqel7u96cd7ht2c9zibh7i04v0j,kWk5Uyl9,2020-0188,2020-11-18,15:47:04,16:07:12,NA,incomplete,29,shape,0,left,Green_Triangle_Dots_1.jpg,Blue_Triangle_Stripes_3.jpg,Green_Plus_Chess_2.jpg,left,1277.5350000010803,true,NA,true
kWk5Uyl9,3lvtfb9df8vfwjy33dzq8w9nvhnqgc,3auqqel7u96cd7ht2c9zibh7i04v0j,kWk5Uyl9,2020-0188,2020-11-18,15:47:04,16:07:12,NA,incomplete,30,shape,1,left,Blue_Circle_Dots_1.jpg,Red_Circle_Grid_3.jpg,Blue_Triangle_Stripes_2.jpg,right,1616.9099999824539,false,NA,true
kWk5Uyl9,3lvtfb9df8vfwjy33dzq8w9nvhnqgc,3auqqel7u96cd7ht2c9zibh7i04v0j,kWk5Uyl9,2020-0188,2020-11-18,15:47:04,16:07:12,NA,incomplete,31,shape,1,left,Red_Plus_Stripes_1.jpg,Green_Plus_Chess_4.jpg,Red_Star_Grid_3.jpg,left,1154.7800000116695,true,NA,true
kWk5Uyl9,3lvtfb9df8vfwjy33dzq8w9nvhnqgc,3auqqel7u96cd7ht2c9zibh7i04v0j,kWk5Uyl9,2020-0188,2020-11-18,15:47:04,16:07:12,NA,incomplete,32,shape,1,right,Blue_Plus_Dots_3.jpg,Blue_Circle_Chess_2.jpg,Green_Plus_Grid_4.jpg,right,1252.4549999798182,true,NA,true
kWk5Uyl9,3lvtfb9df8vfwjy33dzq8w9nvhnqgc,3auqqel7u96cd7ht2c9zibh7i04v0j,kWk5Uyl9,2020-0188,2020-11-18,15:47:04,16:07:12,NA,incomplete,33,shape,0,right,Blue_Triangle_Chess_3.jpg,Blue_Star_Stripes_4.jpg,Purple_Triangle_Grid_2.jpg,right,1329.6899999841116,true,NA,true
kWk5Uyl9,3lvtfb9df8vfwjy33dzq8w9nvhnqgc,3auqqel7u96cd7ht2c9zibh7i04v0j,kWk5Uyl9,2020-0188,2020-11-18,15:47:04,16:07:12,NA,incomplete,34,shape,1,left,Blue_Circle_Grid_2.jpg,Purple_Circle_Dots_1.jpg,Blue_Star_Stripes_4.jpg,left,1062.9849999968428,true,NA,true
kWk5Uyl9,3lvtfb9df8vfwjy33dzq8w9nvhnqgc,3auqqel7u96cd7ht2c9zibh7i04v0j,kWk5Uyl9,2020-0188,2020-11-18,15:47:04,16:07:12,NA,incomplete,35,shape,1,right,Purple_Circle_Dots_1.jpg,Purple_Triangle_Chess_4.jpg,Blue_Circle_Grid_3.jpg,right,1310.3750000009313,true,NA,true
kWk5Uyl9,3lvtfb9df8vfwjy33dzq8w9nvhnqgc,3auqqel7u96cd7ht2c9zibh7i04v0j,kWk5Uyl9,2020-0188,2020-11-18,15:47:04,16:07:12,NA,incomplete,36,shape,0,right,Blue_Plus_Grid_1.jpg,Blue_Star_Stripes_4.jpg,Green_Plus_Chess_2.jpg,right,1053.8700000033714,true,NA,true
kWk5Uyl9,3lvtfb9df8vfwjy33dzq8w9nvhnqgc,3auqqel7u96cd7ht2c9zibh7i04v0j,kWk5Uyl9,2020-0188,2020-11-18,15:47:04,16:07:12,NA,incomplete,37,shape,1,right,Green_Triangle_Stripes_2.jpg,Green_Star_Chess_4.jpg,Purple_Triangle_Grid_3.jpg,right,1115.684999997029,true,NA,true
kWk5Uyl9,3lvtfb9df8vfwjy33dzq8w9nvhnqgc,3auqqel7u96cd7ht2c9zibh7i04v0j,kWk5Uyl9,2020-0188,2020-11-18,15:47:04,16:07:12,NA,incomplete,38,shape,1,left,Blue_Plus_Chess_2.jpg,Purple_Plus_Grid_1.jpg,Blue_Star_Stripes_4.jpg,left,1194.870000006631,true,NA,true
kWk5Uyl9,3lvtfb9df8vfwjy33dzq8w9nvhnqgc,3auqqel7u96cd7ht2c9zibh7i04v0j,kWk5Uyl9,2020-0188,2020-11-18,15:47:04,16:07:12,NA,incomplete,39,shape,1,right,Purple_Circle_Grid_1.jpg,Purple_Triangle_Dots_4.jpg,Red_Circle_Chess_2.jpg,right,1189.5500000100583,true,NA,true
kWk5Uyl9,3lvtfb9df8vfwjy33dzq8w9nvhnqgc,3auqqel7u96cd7ht2c9zibh7i04v0j,kWk5Uyl9,2020-0188,2020-11-18,15:47:04,16:07:12,NA,incomplete,0,color,0,left,Red_Star_Stripes_2.jpg,Red_Triangle_Dots_4.jpg,Blue_Star_Chess_1.jpg,right,1747.6449999958277,false,low,false
kWk5Uyl9,3lvtfb9df8vfwjy33dzq8w9nvhnqgc,3auqqel7u96cd7ht2c9zibh7i04v0j,kWk5Uyl9,2020-0188,2020-11-18,15:47:04,16:07:12,NA,incomplete,1,color,1,left,Red_Circle_Dots_2.jpg,Red_Star_Stripes_3.jpg,Purple_Circle_Chess_4.jpg,right,1110.0250000017695,false,low,false
kWk5Uyl9,3lvtfb9df8vfwjy33dzq8w9nvhnqgc,3auqqel7u96cd7ht2c9zibh7i04v0j,kWk5Uyl9,2020-0188,2020-11-18,15:47:04,16:07:12,NA,incomplete,2,color,1,right,Red_Star_Stripes_1.jpg,Purple_Star_Grid_2.jpg,Red_Triangle_Dots_3.jpg,right,976.7700000084005,true,low,false
kWk5Uyl9,3lvtfb9df8vfwjy33dzq8w9nvhnqgc,3auqqel7u96cd7ht2c9zibh7i04v0j,kWk5Uyl9,2020-0188,2020-11-18,15:47:04,16:07:12,NA,incomplete,3,color,1,right,Purple_Star_Grid_3.jpg,Red_Star_Chess_2.jpg,Purple_Plus_Dots_4.jpg,right,822.7399999741465,true,low,false
kWk5Uyl9,3lvtfb9df8vfwjy33dzq8w9nvhnqgc,3auqqel7u96cd7ht2c9zibh7i04v0j,kWk5Uyl9,2020-0188,2020-11-18,15:47:04,16:07:12,NA,incomplete,4,color,1,right,Green_Triangle_Stripes_4.jpg,Purple_Triangle_Chess_3.jpg,Green_Star_Grid_1.jpg,right,915.7299999787938,true,low,false
kWk5Uyl9,3lvtfb9df8vfwjy33dzq8w9nvhnqgc,3auqqel7u96cd7ht2c9zibh7i04v0j,kWk5Uyl9,2020-0188,2020-11-18,15:47:04,16:07:12,NA,incomplete,5,color,1,left,Red_Circle_Chess_2.jpg,Red_Plus_Dots_1.jpg,Purple_Circle_Stripes_3.jpg,left,888.4200000029523,true,low,false
kWk5Uyl9,3lvtfb9df8vfwjy33dzq8w9nvhnqgc,3auqqel7u96cd7ht2c9zibh7i04v0j,kWk5Uyl9,2020-0188,2020-11-18,15:47:04,16:07:12,NA,incomplete,6,color,1,left,Blue_Star_Stripes_3.jpg,Blue_Circle_Chess_4.jpg,Purple_Star_Dots_2.jpg,left,882.7900000032969,true,low,false
kWk5Uyl9,3lvtfb9df8vfwjy33dzq8w9nvhnqgc,3auqqel7u96cd7ht2c9zibh7i04v0j,kWk5Uyl9,2020-0188,2020-11-18,15:47:04,16:07:12,NA,incomplete,7,color,1,right,Red_Plus_Grid_3.jpg,Green_Plus_Chess_1.jpg,Red_Triangle_Stripes_2.jpg,right,751.7200000002049,true,low,false
kWk5Uyl9,3lvtfb9df8vfwjy33dzq8w9nvhnqgc,3auqqel7u96cd7ht2c9zibh7i04v0j,kWk5Uyl9,2020-0188,2020-11-18,15:47:04,16:07:12,NA,incomplete,8,color,0,right,Red_Circle_Dots_4.jpg,Green_Circle_Stripes_1.jpg,Red_Triangle_Grid_3.jpg,right,597.2550000005867,true,low,false
kWk5Uyl9,3lvtfb9df8vfwjy33dzq8w9nvhnqgc,3auqqel7u96cd7ht2c9zibh7i04v0j,kWk5Uyl9,2020-0188,2020-11-18,15:47:04,16:07:12,NA,incomplete,9,color,1,right,Red_Plus_Chess_2.jpg,Purple_Plus_Dots_1.jpg,Red_Star_Stripes_3.jpg,right,540.3149999910966,true,low,false
kWk5Uyl9,3lvtfb9df8vfwjy33dzq8w9nvhnqgc,3auqqel7u96cd7ht2c9zibh7i04v0j,kWk5Uyl9,2020-0188,2020-11-18,15:47:04,16:07:12,NA,incomplete,10,color,1,right,Blue_Triangle_Chess_3.jpg,Purple_Triangle_Stripes_4.jpg,Blue_Plus_Dots_1.jpg,right,777.9849999933504,true,low,false
kWk5Uyl9,3lvtfb9df8vfwjy33dzq8w9nvhnqgc,3auqqel7u96cd7ht2c9zibh7i04v0j,kWk5Uyl9,2020-0188,2020-11-18,15:47:04,16:07:12,NA,incomplete,11,color,1,right,Blue_Star_Stripes_2.jpg,Purple_Star_Grid_1.jpg,Blue_Plus_Chess_3.jpg,right,653.4800000081304,true,low,false
kWk5Uyl9,3lvtfb9df8vfwjy33dzq8w9nvhnqgc,3auqqel7u96cd7ht2c9zibh7i04v0j,kWk5Uyl9,2020-0188,2020-11-18,15:47:04,16:07:12,NA,incomplete,12,color,1,right,Red_Star_Dots_4.jpg,Blue_Star_Stripes_3.jpg,Red_Triangle_Grid_1.jpg,right,1068.859999999404,true,low,false
kWk5Uyl9,3lvtfb9df8vfwjy33dzq8w9nvhnqgc,3auqqel7u96cd7ht2c9zibh7i04v0j,kWk5Uyl9,2020-0188,2020-11-18,15:47:04,16:07:12,NA,incomplete,13,color,1,left,Blue_Circle_Grid_3.jpg,Blue_Triangle_Stripes_2.jpg,Red_Circle_Dots_4.jpg,right,838.9100000204053,false,low,false
kWk5Uyl9,3lvtfb9df8vfwjy33dzq8w9nvhnqgc,3auqqel7u96cd7ht2c9zibh7i04v0j,kWk5Uyl9,2020-0188,2020-11-18,15:47:04,16:07:12,NA,incomplete,14,color,1,left,Blue_Triangle_Chess_2.jpg,Blue_Circle_Stripes_3.jpg,Green_Triangle_Grid_4.jpg,left,844.6350000158418,true,low,false
kWk5Uyl9,3lvtfb9df8vfwjy33dzq8w9nvhnqgc,3auqqel7u96cd7ht2c9zibh7i04v0j,kWk5Uyl9,2020-0188,2020-11-18,15:47:04,16:07:12,NA,incomplete,15,color,1,left,Purple_Triangle_Stripes_3.jpg,Purple_Circle_Grid_2.jpg,Blue_Triangle_Chess_1.jpg,left,846.9699999841396,true,low,false
kWk5Uyl9,3lvtfb9df8vfwjy33dzq8w9nvhnqgc,3auqqel7u96cd7ht2c9zibh7i04v0j,kWk5Uyl9,2020-0188,2020-11-18,15:47:04,16:07:12,NA,incomplete,16,color,1,right,Blue_Plus_Chess_1.jpg,Green_Plus_Stripes_3.jpg,Blue_Star_Grid_4.jpg,right,925.359999993816,true,low,false
kWk5Uyl9,3lvtfb9df8vfwjy33dzq8w9nvhnqgc,3auqqel7u96cd7ht2c9zibh7i04v0j,kWk5Uyl9,2020-0188,2020-11-18,15:47:04,16:07:12,NA,incomplete,17,color,1,right,Purple_Plus_Grid_1.jpg,Green_Plus_Chess_3.jpg,Purple_Circle_Dots_2.jpg,right,914.0299999853596,true,low,false
kWk5Uyl9,3lvtfb9df8vfwjy33dzq8w9nvhnqgc,3auqqel7u96cd7ht2c9zibh7i04v0j,kWk5Uyl9,2020-0188,2020-11-18,15:47:04,16:07:12,NA,incomplete,18,color,1,left,Blue_Triangle_Grid_4.jpg,Blue_Circle_Chess_1.jpg,Purple_Triangle_Stripes_3.jpg,left,743.6350000207312,true,low,false
kWk5Uyl9,3lvtfb9df8vfwjy33dzq8w9nvhnqgc,3auqqel7u96cd7ht2c9zibh7i04v0j,kWk5Uyl9,2020-0188,2020-11-18,15:47:04,16:07:12,NA,incomplete,19,color,1,left,Red_Star_Chess_1.jpg,Red_Plus_Stripes_2.jpg,Blue_Star_Grid_3.jpg,left,882.7900000032969,true,low,false
kWk5Uyl9,3lvtfb9df8vfwjy33dzq8w9nvhnqgc,3auqqel7u96cd7ht2c9zibh7i04v0j,kWk5Uyl9,2020-0188,2020-11-18,15:47:04,16:07:12,NA,incomplete,20,color,0,left,Purple_Circle_Dots_1.jpg,Purple_Star_Grid_2.jpg,Blue_Circle_Chess_3.jpg,left,638.9949999866076,true,low,false
kWk5Uyl9,3lvtfb9df8vfwjy33dzq8w9nvhnqgc,3auqqel7u96cd7ht2c9zibh7i04v0j,kWk5Uyl9,2020-0188,2020-11-18,15:47:04,16:07:12,NA,incomplete,21,color,1,left,Purple_Circle_Dots_1.jpg,Purple_Star_Chess_4.jpg,Green_Circle_Stripes_3.jpg,left,1420.4749999917112,true,low,false
kWk5Uyl9,3lvtfb9df8vfwjy33dzq8w9nvhnqgc,3auqqel7u96cd7ht2c9zibh7i04v0j,kWk5Uyl9,2020-0188,2020-11-18,15:47:04,16:07:12,NA,incomplete,22,color,1,left,Green_Circle_Grid_4.jpg,Green_Triangle_Stripes_3.jpg,Purple_Circle_Chess_1.jpg,left,774.264999985462,true,low,false
kWk5Uyl9,3lvtfb9df8vfwjy33dzq8w9nvhnqgc,3auqqel7u96cd7ht2c9zibh7i04v0j,kWk5Uyl9,2020-0188,2020-11-18,15:47:04,16:07:12,NA,incomplete,23,color,1,left,Blue_Star_Stripes_1.jpg,Blue_Plus_Chess_2.jpg,Green_Star_Dots_4.jpg,left,1007.3899999842979,true,low,false
kWk5Uyl9,3lvtfb9df8vfwjy33dzq8w9nvhnqgc,3auqqel7u96cd7ht2c9zibh7i04v0j,kWk5Uyl9,2020-0188,2020-11-18,15:47:04,16:07:12,NA,incomplete,24,color,1,right,Purple_Circle_Grid_2.jpg,Green_Circle_Stripes_3.jpg,Purple_Plus_Dots_1.jpg,right,643.0600000021514,true,low,false
kWk5Uyl9,3lvtfb9df8vfwjy33dzq8w9nvhnqgc,3auqqel7u96cd7ht2c9zibh7i04v0j,kWk5Uyl9,2020-0188,2020-11-18,15:47:04,16:07:12,NA,incomplete,25,color,1,right,Green_Circle_Dots_4.jpg,Blue_Circle_Stripes_2.jpg,Green_Triangle_Grid_3.jpg,right,627.4450000200886,true,low,false
kWk5Uyl9,3lvtfb9df8vfwjy33dzq8w9nvhnqgc,3auqqel7u96cd7ht2c9zibh7i04v0j,kWk5Uyl9,2020-0188,2020-11-18,15:47:04,16:07:12,NA,incomplete,26,color,0,left,Red_Triangle_Chess_3.jpg,Red_Plus_Stripes_1.jpg,Green_Triangle_Grid_2.jpg,left,1085.6199999980163,true,low,false
kWk5Uyl9,3lvtfb9df8vfwjy33dzq8w9nvhnqgc,3auqqel7u96cd7ht2c9zibh7i04v0j,kWk5Uyl9,2020-0188,2020-11-18,15:47:04,16:07:12,NA,incomplete,27,color,0,right,Red_Circle_Grid_1.jpg,Blue_Circle_Chess_2.jpg,Red_Star_Dots_3.jpg,right,613.2349999970756,true,low,false
kWk5Uyl9,3lvtfb9df8vfwjy33dzq8w9nvhnqgc,3auqqel7u96cd7ht2c9zibh7i04v0j,kWk5Uyl9,2020-0188,2020-11-18,15:47:04,16:07:12,NA,incomplete,28,color,1,right,Blue_Circle_Stripes_3.jpg,Purple_Circle_Grid_2.jpg,Blue_Triangle_Dots_4.jpg,right,768.355000007432,true,low,false
kWk5Uyl9,3lvtfb9df8vfwjy33dzq8w9nvhnqgc,3auqqel7u96cd7ht2c9zibh7i04v0j,kWk5Uyl9,2020-0188,2020-11-18,15:47:04,16:07:12,NA,incomplete,29,color,1,right,Blue_Star_Grid_1.jpg,Red_Star_Dots_4.jpg,Blue_Circle_Stripes_3.jpg,right,922.1600000164472,true,low,false
kWk5Uyl9,3lvtfb9df8vfwjy33dzq8w9nvhnqgc,3auqqel7u96cd7ht2c9zibh7i04v0j,kWk5Uyl9,2020-0188,2020-11-18,15:47:04,16:07:12,NA,incomplete,30,shape,1,left,Blue_Circle_Stripes_4.jpg,Purple_Circle_Chess_1.jpg,Blue_Triangle_Dots_3.jpg,right,688.7350000033621,false,low,false
kWk5Uyl9,3lvtfb9df8vfwjy33dzq8w9nvhnqgc,3auqqel7u96cd7ht2c9zibh7i04v0j,kWk5Uyl9,2020-0188,2020-11-18,15:47:04,16:07:12,NA,incomplete,31,shape,0,right,Red_Circle_Dots_2.jpg,Red_Plus_Chess_1.jpg,Blue_Circle_Stripes_3.jpg,left,915.2849999954924,false,low,false
kWk5Uyl9,3lvtfb9df8vfwjy33dzq8w9nvhnqgc,3auqqel7u96cd7ht2c9zibh7i04v0j,kWk5Uyl9,2020-0188,2020-11-18,15:47:04,16:07:12,NA,incomplete,32,shape,1,right,Green_Triangle_Dots_4.jpg,Green_Circle_Grid_1.jpg,Red_Triangle_Chess_2.jpg,left,808.4849999868311,false,low,false
kWk5Uyl9,3lvtfb9df8vfwjy33dzq8w9nvhnqgc,3auqqel7u96cd7ht2c9zibh7i04v0j,kWk5Uyl9,2020-0188,2020-11-18,15:47:04,16:07:12,NA,incomplete,33,shape,1,left,Purple_Star_Dots_1.jpg,Blue_Star_Grid_4.jpg,Purple_Triangle_Stripes_3.jpg,right,719.0000000118744,false,low,false
kWk5Uyl9,3lvtfb9df8vfwjy33dzq8w9nvhnqgc,3auqqel7u96cd7ht2c9zibh7i04v0j,kWk5Uyl9,2020-0188,2020-11-18,15:47:04,16:07:12,NA,incomplete,34,shape,0,right,Green_Triangle_Dots_4.jpg,Green_Star_Grid_1.jpg,Purple_Triangle_Stripes_2.jpg,right,850.3549999732058,true,low,false
kWk5Uyl9,3lvtfb9df8vfwjy33dzq8w9nvhnqgc,3auqqel7u96cd7ht2c9zibh7i04v0j,kWk5Uyl9,2020-0188,2020-11-18,15:47:04,16:07:12,NA,incomplete,35,shape,1,left,Purple_Triangle_Grid_3.jpg,Red_Triangle_Stripes_2.jpg,Purple_Star_Chess_1.jpg,right,580.0250000029337,false,low,false
kWk5Uyl9,3lvtfb9df8vfwjy33dzq8w9nvhnqgc,3auqqel7u96cd7ht2c9zibh7i04v0j,kWk5Uyl9,2020-0188,2020-11-18,15:47:04,16:07:12,NA,incomplete,36,shape,1,left,Green_Plus_Grid_2.jpg,Blue_Plus_Dots_3.jpg,Green_Triangle_Stripes_1.jpg,left,934.8400000017136,true,low,false
kWk5Uyl9,3lvtfb9df8vfwjy33dzq8w9nvhnqgc,3auqqel7u96cd7ht2c9zibh7i04v0j,kWk5Uyl9,2020-0188,2020-11-18,15:47:04,16:07:12,NA,incomplete,37,shape,1,left,Green_Plus_Chess_3.jpg,Blue_Plus_Stripes_2.jpg,Green_Triangle_Dots_1.jpg,left,877.1299999789335,true,low,false
kWk5Uyl9,3lvtfb9df8vfwjy33dzq8w9nvhnqgc,3auqqel7u96cd7ht2c9zibh7i04v0j,kWk5Uyl9,2020-0188,2020-11-18,15:47:04,16:07:12,NA,incomplete,38,shape,0,right,Purple_Circle_Grid_1.jpg,Purple_Triangle_Chess_4.jpg,Blue_Circle_Stripes_2.jpg,right,666.8549999885727,true,low,false
kWk5Uyl9,3lvtfb9df8vfwjy33dzq8w9nvhnqgc,3auqqel7u96cd7ht2c9zibh7i04v0j,kWk5Uyl9,2020-0188,2020-11-18,15:47:04,16:07:12,NA,incomplete,39,shape,0,right,Blue_Star_Stripes_2.jpg,Blue_Triangle_Chess_4.jpg,Red_Star_Grid_3.jpg,right,1040.080000006128,true,low,false
kWk5Uyl9,3lvtfb9df8vfwjy33dzq8w9nvhnqgc,3auqqel7u96cd7ht2c9zibh7i04v0j,kWk5Uyl9,2020-0188,2020-11-18,15:47:04,16:07:12,NA,incomplete,40,shape,1,right,Blue_Plus_Grid_1.jpg,Blue_Star_Chess_3.jpg,Red_Plus_Dots_2.jpg,left,990.3500000073109,false,low,false
kWk5Uyl9,3lvtfb9df8vfwjy33dzq8w9nvhnqgc,3auqqel7u96cd7ht2c9zibh7i04v0j,kWk5Uyl9,2020-0188,2020-11-18,15:47:04,16:07:12,NA,incomplete,41,shape,1,right,Blue_Triangle_Stripes_2.jpg,Blue_Circle_Chess_1.jpg,Green_Triangle_Dots_3.jpg,right,811.3399999856483,true,low,false
kWk5Uyl9,3lvtfb9df8vfwjy33dzq8w9nvhnqgc,3auqqel7u96cd7ht2c9zibh7i04v0j,kWk5Uyl9,2020-0188,2020-11-18,15:47:04,16:07:12,NA,incomplete,42,shape,1,left,Blue_Star_Chess_1.jpg,Red_Star_Dots_4.jpg,Blue_Plus_Grid_2.jpg,left,1211.29999999539,true,low,false
kWk5Uyl9,3lvtfb9df8vfwjy33dzq8w9nvhnqgc,3auqqel7u96cd7ht2c9zibh7i04v0j,kWk5Uyl9,2020-0188,2020-11-18,15:47:04,16:07:12,NA,incomplete,43,shape,1,left,Purple_Circle_Chess_3.jpg,Red_Circle_Stripes_2.jpg,Purple_Star_Grid_1.jpg,left,955.9650000010151,true,low,false
kWk5Uyl9,3lvtfb9df8vfwjy33dzq8w9nvhnqgc,3auqqel7u96cd7ht2c9zibh7i04v0j,kWk5Uyl9,2020-0188,2020-11-18,15:47:04,16:07:12,NA,incomplete,44,shape,1,left,Green_Star_Stripes_2.jpg,Purple_Star_Grid_4.jpg,Green_Circle_Dots_3.jpg,left,1000.1199999824166,true,low,false
kWk5Uyl9,3lvtfb9df8vfwjy33dzq8w9nvhnqgc,3auqqel7u96cd7ht2c9zibh7i04v0j,kWk5Uyl9,2020-0188,2020-11-18,15:47:04,16:07:12,NA,incomplete,45,shape,0,right,Blue_Triangle_Stripes_4.jpg,Blue_Circle_Dots_1.jpg,Green_Triangle_Chess_3.jpg,right,747.4550000042655,true,low,false
kWk5Uyl9,3lvtfb9df8vfwjy33dzq8w9nvhnqgc,3auqqel7u96cd7ht2c9zibh7i04v0j,kWk5Uyl9,2020-0188,2020-11-18,15:47:04,16:07:12,NA,incomplete,46,shape,0,right,Green_Plus_Grid_2.jpg,Green_Star_Chess_3.jpg,Purple_Plus_Stripes_4.jpg,right,792.1300000161864,true,low,false
kWk5Uyl9,3lvtfb9df8vfwjy33dzq8w9nvhnqgc,3auqqel7u96cd7ht2c9zibh7i04v0j,kWk5Uyl9,2020-0188,2020-11-18,15:47:04,16:07:12,NA,incomplete,47,shape,1,left,Green_Circle_Chess_1.jpg,Red_Circle_Grid_4.jpg,Green_Star_Stripes_3.jpg,left,1300.7550000038464,true,low,false
kWk5Uyl9,3lvtfb9df8vfwjy33dzq8w9nvhnqgc,3auqqel7u96cd7ht2c9zibh7i04v0j,kWk5Uyl9,2020-0188,2020-11-18,15:47:04,16:07:12,NA,incomplete,48,shape,1,left,Blue_Circle_Dots_2.jpg,Red_Circle_Stripes_4.jpg,Blue_Triangle_Grid_3.jpg,left,1245.9450000023935,true,low,false
kWk5Uyl9,3lvtfb9df8vfwjy33dzq8w9nvhnqgc,3auqqel7u96cd7ht2c9zibh7i04v0j,kWk5Uyl9,2020-0188,2020-11-18,15:47:04,16:07:12,NA,incomplete,49,shape,1,left,Green_Triangle_Chess_2.jpg,Red_Triangle_Dots_1.jpg,Green_Star_Grid_4.jpg,left,1055.2800000004936,true,low,false
kWk5Uyl9,3lvtfb9df8vfwjy33dzq8w9nvhnqgc,3auqqel7u96cd7ht2c9zibh7i04v0j,kWk5Uyl9,2020-0188,2020-11-18,15:47:04,16:07:12,NA,incomplete,50,shape,1,left,Green_Plus_Dots_4.jpg,Red_Plus_Stripes_1.jpg,Green_Triangle_Chess_2.jpg,left,884.665000019595,true,low,false
kWk5Uyl9,3lvtfb9df8vfwjy33dzq8w9nvhnqgc,3auqqel7u96cd7ht2c9zibh7i04v0j,kWk5Uyl9,2020-0188,2020-11-18,15:47:04,16:07:12,NA,incomplete,51,shape,1,right,Purple_Triangle_Chess_2.jpg,Purple_Plus_Dots_1.jpg,Red_Triangle_Grid_3.jpg,right,1050.4999999830034,true,low,false
kWk5Uyl9,3lvtfb9df8vfwjy33dzq8w9nvhnqgc,3auqqel7u96cd7ht2c9zibh7i04v0j,kWk5Uyl9,2020-0188,2020-11-18,15:47:04,16:07:12,NA,incomplete,52,shape,0,right,Red_Circle_Chess_2.jpg,Red_Plus_Stripes_1.jpg,Blue_Circle_Grid_4.jpg,right,979.6799999894574,true,low,false
kWk5Uyl9,3lvtfb9df8vfwjy33dzq8w9nvhnqgc,3auqqel7u96cd7ht2c9zibh7i04v0j,kWk5Uyl9,2020-0188,2020-11-18,15:47:04,16:07:12,NA,incomplete,53,shape,1,left,Green_Triangle_Dots_2.jpg,Blue_Triangle_Stripes_4.jpg,Green_Star_Grid_1.jpg,left,770.0949999853037,true,low,false
kWk5Uyl9,3lvtfb9df8vfwjy33dzq8w9nvhnqgc,3auqqel7u96cd7ht2c9zibh7i04v0j,kWk5Uyl9,2020-0188,2020-11-18,15:47:04,16:07:12,NA,incomplete,54,shape,1,left,Blue_Plus_Grid_1.jpg,Purple_Plus_Chess_3.jpg,Blue_Circle_Dots_2.jpg,left,845.2549999929033,true,low,false
kWk5Uyl9,3lvtfb9df8vfwjy33dzq8w9nvhnqgc,3auqqel7u96cd7ht2c9zibh7i04v0j,kWk5Uyl9,2020-0188,2020-11-18,15:47:04,16:07:12,NA,incomplete,55,shape,1,left,Blue_Star_Dots_3.jpg,Purple_Star_Chess_1.jpg,Blue_Triangle_Grid_4.jpg,left,911.1700000066776,true,low,false
kWk5Uyl9,3lvtfb9df8vfwjy33dzq8w9nvhnqgc,3auqqel7u96cd7ht2c9zibh7i04v0j,kWk5Uyl9,2020-0188,2020-11-18,15:47:04,16:07:12,NA,incomplete,56,shape,1,right,Blue_Star_Grid_3.jpg,Blue_Triangle_Dots_4.jpg,Red_Star_Chess_2.jpg,right,826.8600000010338,true,low,false
kWk5Uyl9,3lvtfb9df8vfwjy33dzq8w9nvhnqgc,3auqqel7u96cd7ht2c9zibh7i04v0j,kWk5Uyl9,2020-0188,2020-11-18,15:47:04,16:07:12,NA,incomplete,57,shape,1,left,Blue_Plus_Stripes_4.jpg,Red_Plus_Grid_1.jpg,Blue_Triangle_Dots_3.jpg,left,734.9050000193529,true,low,false
kWk5Uyl9,3lvtfb9df8vfwjy33dzq8w9nvhnqgc,3auqqel7u96cd7ht2c9zibh7i04v0j,kWk5Uyl9,2020-0188,2020-11-18,15:47:04,16:07:12,NA,incomplete,58,shape,1,right,Green_Plus_Stripes_4.jpg,Green_Triangle_Grid_3.jpg,Red_Plus_Dots_2.jpg,right,823.1749999977183,true,low,false
kWk5Uyl9,3lvtfb9df8vfwjy33dzq8w9nvhnqgc,3auqqel7u96cd7ht2c9zibh7i04v0j,kWk5Uyl9,2020-0188,2020-11-18,15:47:04,16:07:12,NA,incomplete,59,shape,1,left,Red_Triangle_Dots_2.jpg,Purple_Triangle_Stripes_4.jpg,Red_Star_Chess_3.jpg,left,868.0999999924097,true,low,false
kWk5Uyl9,3lvtfb9df8vfwjy33dzq8w9nvhnqgc,3auqqel7u96cd7ht2c9zibh7i04v0j,kWk5Uyl9,2020-0188,2020-11-18,15:47:04,16:07:12,NA,incomplete,60,color,1,right,Green_Triangle_Grid_3.jpg,Purple_Triangle_Dots_2.jpg,Green_Plus_Chess_4.jpg,left,816.6499999933876,false,low,false
kWk5Uyl9,3lvtfb9df8vfwjy33dzq8w9nvhnqgc,3auqqel7u96cd7ht2c9zibh7i04v0j,kWk5Uyl9,2020-0188,2020-11-18,15:47:04,16:07:12,NA,incomplete,61,color,1,left,Red_Circle_Dots_4.jpg,Red_Plus_Chess_1.jpg,Green_Circle_Stripes_3.jpg,right,691.2399999855552,false,low,false
kWk5Uyl9,3lvtfb9df8vfwjy33dzq8w9nvhnqgc,3auqqel7u96cd7ht2c9zibh7i04v0j,kWk5Uyl9,2020-0188,2020-11-18,15:47:04,16:07:12,NA,incomplete,62,color,1,right,Green_Star_Stripes_3.jpg,Blue_Star_Dots_4.jpg,Green_Triangle_Grid_1.jpg,left,741.1750000028405,false,low,false
kWk5Uyl9,3lvtfb9df8vfwjy33dzq8w9nvhnqgc,3auqqel7u96cd7ht2c9zibh7i04v0j,kWk5Uyl9,2020-0188,2020-11-18,15:47:04,16:07:12,NA,incomplete,63,color,1,left,Green_Circle_Chess_3.jpg,Green_Triangle_Dots_1.jpg,Purple_Circle_Stripes_2.jpg,left,940.3499999898486,true,low,false
kWk5Uyl9,3lvtfb9df8vfwjy33dzq8w9nvhnqgc,3auqqel7u96cd7ht2c9zibh7i04v0j,kWk5Uyl9,2020-0188,2020-11-18,15:47:04,16:07:12,NA,incomplete,64,color,1,left,Purple_Circle_Grid_2.jpg,Purple_Plus_Dots_4.jpg,Green_Circle_Chess_3.jpg,left,1350.4499999980908,true,low,false
kWk5Uyl9,3lvtfb9df8vfwjy33dzq8w9nvhnqgc,3auqqel7u96cd7ht2c9zibh7i04v0j,kWk5Uyl9,2020-0188,2020-11-18,15:47:04,16:07:12,NA,incomplete,65,color,0,right,Blue_Star_Chess_3.jpg,Purple_Star_Dots_2.jpg,Blue_Triangle_Stripes_4.jpg,right,971.1950000200886,true,low,false
kWk5Uyl9,3lvtfb9df8vfwjy33dzq8w9nvhnqgc,3auqqel7u96cd7ht2c9zibh7i04v0j,kWk5Uyl9,2020-0188,2020-11-18,15:47:04,16:07:12,NA,incomplete,66,color,1,right,Purple_Triangle_Dots_3.jpg,Red_Triangle_Stripes_2.jpg,Purple_Circle_Grid_4.jpg,right,973.0099999869708,true,low,false
kWk5Uyl9,3lvtfb9df8vfwjy33dzq8w9nvhnqgc,3auqqel7u96cd7ht2c9zibh7i04v0j,kWk5Uyl9,2020-0188,2020-11-18,15:47:04,16:07:12,NA,incomplete,67,color,1,right,Green_Triangle_Chess_1.jpg,Red_Triangle_Dots_3.jpg,Green_Circle_Grid_2.jpg,right,722.9999999981374,true,low,false
kWk5Uyl9,3lvtfb9df8vfwjy33dzq8w9nvhnqgc,3auqqel7u96cd7ht2c9zibh7i04v0j,kWk5Uyl9,2020-0188,2020-11-18,15:47:04,16:07:12,NA,incomplete,68,color,0,right,Red_Star_Dots_3.jpg,Purple_Star_Chess_2.jpg,Red_Triangle_Grid_4.jpg,right,848.1150000006892,true,low,false
kWk5Uyl9,3lvtfb9df8vfwjy33dzq8w9nvhnqgc,3auqqel7u96cd7ht2c9zibh7i04v0j,kWk5Uyl9,2020-0188,2020-11-18,15:47:04,16:07:12,NA,incomplete,69,color,1,right,Purple_Triangle_Dots_3.jpg,Green_Triangle_Chess_2.jpg,Purple_Circle_Stripes_1.jpg,right,747.3449999815784,true,low,false
kWk5Uyl9,3lvtfb9df8vfwjy33dzq8w9nvhnqgc,3auqqel7u96cd7ht2c9zibh7i04v0j,kWk5Uyl9,2020-0188,2020-11-18,15:47:04,16:07:12,NA,incomplete,70,color,1,left,Green_Plus_Dots_1.jpg,Green_Triangle_Stripes_4.jpg,Purple_Plus_Grid_2.jpg,left,978.14500000095,true,low,false
kWk5Uyl9,3lvtfb9df8vfwjy33dzq8w9nvhnqgc,3auqqel7u96cd7ht2c9zibh7i04v0j,kWk5Uyl9,2020-0188,2020-11-18,15:47:04,16:07:12,NA,incomplete,71,color,1,right,Green_Triangle_Grid_1.jpg,Red_Triangle_Chess_3.jpg,Green_Circle_Stripes_4.jpg,right,796.8550000223331,true,low,false
kWk5Uyl9,3lvtfb9df8vfwjy33dzq8w9nvhnqgc,3auqqel7u96cd7ht2c9zibh7i04v0j,kWk5Uyl9,2020-0188,2020-11-18,15:47:04,16:07:12,NA,incomplete,72,color,1,right,Purple_Plus_Dots_2.jpg,Red_Plus_Grid_4.jpg,Purple_Triangle_Stripes_3.jpg,right,824.0700000023935,true,low,false
kWk5Uyl9,3lvtfb9df8vfwjy33dzq8w9nvhnqgc,3auqqel7u96cd7ht2c9zibh7i04v0j,kWk5Uyl9,2020-0188,2020-11-18,15:47:04,16:07:12,NA,incomplete,73,color,1,right,Red_Circle_Stripes_4.jpg,Blue_Circle_Dots_2.jpg,Red_Star_Grid_1.jpg,right,838.1749999825843,true,low,false
kWk5Uyl9,3lvtfb9df8vfwjy33dzq8w9nvhnqgc,3auqqel7u96cd7ht2c9zibh7i04v0j,kWk5Uyl9,2020-0188,2020-11-18,15:47:04,16:07:12,NA,incomplete,74,color,0,right,Purple_Star_Grid_1.jpg,Blue_Star_Stripes_3.jpg,Purple_Triangle_Chess_2.jpg,right,1117.614999995567,true,low,false
kWk5Uyl9,3lvtfb9df8vfwjy33dzq8w9nvhnqgc,3auqqel7u96cd7ht2c9zibh7i04v0j,kWk5Uyl9,2020-0188,2020-11-18,15:47:04,16:07:12,NA,incomplete,75,color,1,right,Red_Circle_Dots_2.jpg,Purple_Circle_Chess_4.jpg,Red_Plus_Grid_1.jpg,right,594.4849999796133,true,low,false
kWk5Uyl9,3lvtfb9df8vfwjy33dzq8w9nvhnqgc,3auqqel7u96cd7ht2c9zibh7i04v0j,kWk5Uyl9,2020-0188,2020-11-18,15:47:04,16:07:12,NA,incomplete,76,color,1,left,Green_Triangle_Grid_2.jpg,Green_Plus_Stripes_3.jpg,Red_Triangle_Dots_1.jpg,left,895.2899999858346,true,low,false
kWk5Uyl9,3lvtfb9df8vfwjy33dzq8w9nvhnqgc,3auqqel7u96cd7ht2c9zibh7i04v0j,kWk5Uyl9,2020-0188,2020-11-18,15:47:04,16:07:12,NA,incomplete,77,color,1,left,Red_Circle_Grid_4.jpg,Red_Triangle_Dots_2.jpg,Purple_Circle_Chess_3.jpg,left,815.8750000002328,true,low,false
kWk5Uyl9,3lvtfb9df8vfwjy33dzq8w9nvhnqgc,3auqqel7u96cd7ht2c9zibh7i04v0j,kWk5Uyl9,2020-0188,2020-11-18,15:47:04,16:07:12,NA,incomplete,78,color,1,right,Blue_Triangle_Grid_2.jpg,Red_Triangle_Dots_3.jpg,Blue_Star_Stripes_1.jpg,right,747.9400000011083,true,low,false
kWk5Uyl9,3lvtfb9df8vfwjy33dzq8w9nvhnqgc,3auqqel7u96cd7ht2c9zibh7i04v0j,kWk5Uyl9,2020-0188,2020-11-18,15:47:04,16:07:12,NA,incomplete,79,color,1,left,Green_Plus_Grid_2.jpg,Green_Circle_Chess_4.jpg,Red_Plus_Dots_3.jpg,left,884.7549999773037,true,low,false
kWk5Uyl9,3lvtfb9df8vfwjy33dzq8w9nvhnqgc,3auqqel7u96cd7ht2c9zibh7i04v0j,kWk5Uyl9,2020-0188,2020-11-18,15:47:04,16:07:12,NA,incomplete,80,color,0,left,Red_Plus_Chess_3.jpg,Red_Triangle_Stripes_4.jpg,Purple_Plus_Grid_2.jpg,left,863.5249999933876,true,low,false
kWk5Uyl9,3lvtfb9df8vfwjy33dzq8w9nvhnqgc,3auqqel7u96cd7ht2c9zibh7i04v0j,kWk5Uyl9,2020-0188,2020-11-18,15:47:04,16:07:12,NA,incomplete,81,color,1,left,Green_Triangle_Chess_1.jpg,Green_Star_Stripes_2.jpg,Purple_Triangle_Grid_4.jpg,left,844.4900000176858,true,low,false
kWk5Uyl9,3lvtfb9df8vfwjy33dzq8w9nvhnqgc,3auqqel7u96cd7ht2c9zibh7i04v0j,kWk5Uyl9,2020-0188,2020-11-18,15:47:04,16:07:12,NA,incomplete,82,color,0,right,Green_Circle_Chess_4.jpg,Red_Circle_Dots_1.jpg,Green_Star_Grid_2.jpg,right,658.3199999877252,true,low,false
kWk5Uyl9,3lvtfb9df8vfwjy33dzq8w9nvhnqgc,3auqqel7u96cd7ht2c9zibh7i04v0j,kWk5Uyl9,2020-0188,2020-11-18,15:47:04,16:07:12,NA,incomplete,83,color,0,left,Purple_Triangle_Grid_4.jpg,Purple_Circle_Dots_2.jpg,Red_Triangle_Stripes_1.jpg,left,757.1499999903608,true,low,false
kWk5Uyl9,3lvtfb9df8vfwjy33dzq8w9nvhnqgc,3auqqel7u96cd7ht2c9zibh7i04v0j,kWk5Uyl9,2020-0188,2020-11-18,15:47:04,16:07:12,NA,incomplete,84,color,0,right,Blue_Circle_Chess_2.jpg,Red_Circle_Grid_1.jpg,Blue_Triangle_Dots_4.jpg,left,941.8149999983143,false,low,false
kWk5Uyl9,3lvtfb9df8vfwjy33dzq8w9nvhnqgc,3auqqel7u96cd7ht2c9zibh7i04v0j,kWk5Uyl9,2020-0188,2020-11-18,15:47:04,16:07:12,NA,incomplete,85,color,1,right,Green_Circle_Chess_4.jpg,Purple_Circle_Dots_2.jpg,Green_Plus_Stripes_3.jpg,left,796.5449999901466,false,low,false
kWk5Uyl9,3lvtfb9df8vfwjy33dzq8w9nvhnqgc,3auqqel7u96cd7ht2c9zibh7i04v0j,kWk5Uyl9,2020-0188,2020-11-18,15:47:04,16:07:12,NA,incomplete,86,color,0,right,Red_Plus_Stripes_2.jpg,Green_Plus_Chess_4.jpg,Red_Star_Grid_3.jpg,left,952.8599999903236,false,low,false
kWk5Uyl9,3lvtfb9df8vfwjy33dzq8w9nvhnqgc,3auqqel7u96cd7ht2c9zibh7i04v0j,kWk5Uyl9,2020-0188,2020-11-18,15:47:04,16:07:12,NA,incomplete,87,color,1,left,Red_Star_Grid_1.jpg,Red_Plus_Chess_2.jpg,Green_Star_Stripes_4.jpg,right,912.945000018226,false,low,false
kWk5Uyl9,3lvtfb9df8vfwjy33dzq8w9nvhnqgc,3auqqel7u96cd7ht2c9zibh7i04v0j,kWk5Uyl9,2020-0188,2020-11-18,15:47:04,16:07:12,NA,incomplete,88,color,1,right,Purple_Triangle_Stripes_2.jpg,Blue_Triangle_Dots_1.jpg,Purple_Plus_Chess_4.jpg,left,965.0599999877159,false,low,false
kWk5Uyl9,3lvtfb9df8vfwjy33dzq8w9nvhnqgc,3auqqel7u96cd7ht2c9zibh7i04v0j,kWk5Uyl9,2020-0188,2020-11-18,15:47:04,16:07:12,NA,incomplete,89,color,1,left,Red_Circle_Stripes_4.jpg,Red_Star_Dots_3.jpg,Purple_Circle_Grid_2.jpg,left,1274.5099999883678,true,low,false
kWk5Uyl9,3lvtfb9df8vfwjy33dzq8w9nvhnqgc,3auqqel7u96cd7ht2c9zibh7i04v0j,kWk5Uyl9,2020-0188,2020-11-18,15:47:04,16:07:12,NA,incomplete,90,shape,0,right,Green_Plus_Chess_1.jpg,Green_Triangle_Grid_4.jpg,Red_Plus_Stripes_3.jpg,left,1196.89500000095,false,low,false
kWk5Uyl9,3lvtfb9df8vfwjy33dzq8w9nvhnqgc,3auqqel7u96cd7ht2c9zibh7i04v0j,kWk5Uyl9,2020-0188,2020-11-18,15:47:04,16:07:12,NA,incomplete,91,shape,0,right,Green_Plus_Stripes_1.jpg,Green_Circle_Chess_3.jpg,Red_Plus_Grid_4.jpg,left,659.8400000075344,false,low,false
kWk5Uyl9,3lvtfb9df8vfwjy33dzq8w9nvhnqgc,3auqqel7u96cd7ht2c9zibh7i04v0j,kWk5Uyl9,2020-0188,2020-11-18,15:47:04,16:07:12,NA,incomplete,92,shape,1,left,Red_Triangle_Dots_4.jpg,Blue_Triangle_Grid_1.jpg,Red_Star_Stripes_2.jpg,right,627.89000000339,false,low,false
kWk5Uyl9,3lvtfb9df8vfwjy33dzq8w9nvhnqgc,3auqqel7u96cd7ht2c9zibh7i04v0j,kWk5Uyl9,2020-0188,2020-11-18,15:47:04,16:07:12,NA,incomplete,93,shape,1,left,Red_Star_Stripes_4.jpg,Green_Star_Chess_2.jpg,Red_Circle_Dots_3.jpg,right,1114.5900000119582,false,low,false
kWk5Uyl9,3lvtfb9df8vfwjy33dzq8w9nvhnqgc,3auqqel7u96cd7ht2c9zibh7i04v0j,kWk5Uyl9,2020-0188,2020-11-18,15:47:04,16:07:12,NA,incomplete,94,shape,0,right,Purple_Triangle_Stripes_1.jpg,Purple_Star_Chess_4.jpg,Red_Triangle_Dots_2.jpg,left,740.3799999738112,false,low,false
kWk5Uyl9,3lvtfb9df8vfwjy33dzq8w9nvhnqgc,3auqqel7u96cd7ht2c9zibh7i04v0j,kWk5Uyl9,2020-0188,2020-11-18,15:47:04,16:07:12,NA,incomplete,95,shape,1,right,Red_Circle_Chess_2.jpg,Red_Plus_Grid_3.jpg,Blue_Circle_Stripes_1.jpg,left,810.7049999816809,false,low,false
kWk5Uyl9,3lvtfb9df8vfwjy33dzq8w9nvhnqgc,3auqqel7u96cd7ht2c9zibh7i04v0j,kWk5Uyl9,2020-0188,2020-11-18,15:47:04,16:07:12,NA,incomplete,96,shape,1,right,Red_Circle_Stripes_3.jpg,Red_Triangle_Chess_1.jpg,Green_Circle_Dots_4.jpg,right,963.0650000181049,true,low,false
kWk5Uyl9,3lvtfb9df8vfwjy33dzq8w9nvhnqgc,3auqqel7u96cd7ht2c9zibh7i04v0j,kWk5Uyl9,2020-0188,2020-11-18,15:47:04,16:07:12,NA,incomplete,97,shape,1,right,Green_Star_Dots_3.jpg,Green_Plus_Chess_2.jpg,Red_Star_Stripes_4.jpg,right,1554.32500000461,true,low,false
kWk5Uyl9,3lvtfb9df8vfwjy33dzq8w9nvhnqgc,3auqqel7u96cd7ht2c9zibh7i04v0j,kWk5Uyl9,2020-0188,2020-11-18,15:47:04,16:07:12,NA,incomplete,98,shape,1,left,Red_Star_Grid_1.jpg,Purple_Star_Dots_3.jpg,Red_Circle_Stripes_4.jpg,left,708.8650000223424,true,low,false
kWk5Uyl9,3lvtfb9df8vfwjy33dzq8w9nvhnqgc,3auqqel7u96cd7ht2c9zibh7i04v0j,kWk5Uyl9,2020-0188,2020-11-18,15:47:04,16:07:12,NA,incomplete,99,shape,1,right,Green_Triangle_Chess_3.jpg,Green_Plus_Grid_2.jpg,Red_Triangle_Dots_4.jpg,right,898.4650000056718,true,low,false
kWk5Uyl9,3lvtfb9df8vfwjy33dzq8w9nvhnqgc,3auqqel7u96cd7ht2c9zibh7i04v0j,kWk5Uyl9,2020-0188,2020-11-18,15:47:04,16:07:12,NA,incomplete,100,shape,1,left,Green_Star_Chess_1.jpg,Red_Star_Stripes_2.jpg,Green_Circle_Grid_3.jpg,left,762.8950000216719,true,low,false
kWk5Uyl9,3lvtfb9df8vfwjy33dzq8w9nvhnqgc,3auqqel7u96cd7ht2c9zibh7i04v0j,kWk5Uyl9,2020-0188,2020-11-18,15:47:04,16:07:12,NA,incomplete,101,shape,1,left,Red_Plus_Grid_4.jpg,Green_Plus_Chess_2.jpg,Red_Circle_Stripes_1.jpg,left,1119.685000012396,true,low,false
kWk5Uyl9,3lvtfb9df8vfwjy33dzq8w9nvhnqgc,3auqqel7u96cd7ht2c9zibh7i04v0j,kWk5Uyl9,2020-0188,2020-11-18,15:47:04,16:07:12,NA,incomplete,102,shape,1,left,Red_Plus_Dots_4.jpg,Green_Plus_Chess_2.jpg,Red_Star_Grid_3.jpg,left,1031.2250000133645,true,low,false
kWk5Uyl9,3lvtfb9df8vfwjy33dzq8w9nvhnqgc,3auqqel7u96cd7ht2c9zibh7i04v0j,kWk5Uyl9,2020-0188,2020-11-18,15:47:04,16:07:12,NA,incomplete,103,shape,1,right,Red_Star_Stripes_2.jpg,Red_Circle_Dots_1.jpg,Purple_Star_Grid_4.jpg,right,695.5050000105985,true,low,false
kWk5Uyl9,3lvtfb9df8vfwjy33dzq8w9nvhnqgc,3auqqel7u96cd7ht2c9zibh7i04v0j,kWk5Uyl9,2020-0188,2020-11-18,15:47:04,16:07:12,NA,incomplete,104,shape,1,left,Blue_Plus_Grid_4.jpg,Purple_Plus_Stripes_3.jpg,Blue_Star_Dots_1.jpg,left,1173.9549999765586,true,low,false
kWk5Uyl9,3lvtfb9df8vfwjy33dzq8w9nvhnqgc,3auqqel7u96cd7ht2c9zibh7i04v0j,kWk5Uyl9,2020-0188,2020-11-18,15:47:04,16:07:12,NA,incomplete,105,shape,1,right,Purple_Circle_Dots_3.jpg,Purple_Plus_Stripes_2.jpg,Green_Circle_Chess_4.jpg,right,1011.6200000047684,true,low,false
kWk5Uyl9,3lvtfb9df8vfwjy33dzq8w9nvhnqgc,3auqqel7u96cd7ht2c9zibh7i04v0j,kWk5Uyl9,2020-0188,2020-11-18,15:47:04,16:07:12,NA,incomplete,106,shape,1,right,Red_Triangle_Stripes_1.jpg,Red_Star_Chess_3.jpg,Blue_Triangle_Dots_2.jpg,right,914.3949999997858,true,low,false
kWk5Uyl9,3lvtfb9df8vfwjy33dzq8w9nvhnqgc,3auqqel7u96cd7ht2c9zibh7i04v0j,kWk5Uyl9,2020-0188,2020-11-18,15:47:04,16:07:12,NA,incomplete,107,shape,1,right,Green_Circle_Dots_1.jpg,Green_Star_Stripes_2.jpg,Red_Circle_Grid_3.jpg,right,937.9199999966659,true,low,false
kWk5Uyl9,3lvtfb9df8vfwjy33dzq8w9nvhnqgc,3auqqel7u96cd7ht2c9zibh7i04v0j,kWk5Uyl9,2020-0188,2020-11-18,15:47:04,16:07:12,NA,incomplete,108,shape,1,left,Blue_Star_Dots_2.jpg,Purple_Star_Stripes_3.jpg,Blue_Circle_Chess_1.jpg,left,755.1450000028126,true,low,false
kWk5Uyl9,3lvtfb9df8vfwjy33dzq8w9nvhnqgc,3auqqel7u96cd7ht2c9zibh7i04v0j,kWk5Uyl9,2020-0188,2020-11-18,15:47:04,16:07:12,NA,incomplete,109,shape,1,left,Green_Plus_Chess_2.jpg,Purple_Plus_Dots_4.jpg,Green_Circle_Grid_3.jpg,left,900.0600000144914,true,low,false
kWk5Uyl9,3lvtfb9df8vfwjy33dzq8w9nvhnqgc,3auqqel7u96cd7ht2c9zibh7i04v0j,kWk5Uyl9,2020-0188,2020-11-18,15:47:04,16:07:12,NA,incomplete,110,shape,1,right,Blue_Star_Dots_3.jpg,Blue_Plus_Chess_1.jpg,Green_Star_Stripes_4.jpg,right,747.6449999958277,true,low,false
kWk5Uyl9,3lvtfb9df8vfwjy33dzq8w9nvhnqgc,3auqqel7u96cd7ht2c9zibh7i04v0j,kWk5Uyl9,2020-0188,2020-11-18,15:47:04,16:07:12,NA,incomplete,111,shape,1,left,Purple_Triangle_Stripes_4.jpg,Blue_Triangle_Grid_3.jpg,Purple_Circle_Dots_2.jpg,left,832.3099999979604,true,low,false
kWk5Uyl9,3lvtfb9df8vfwjy33dzq8w9nvhnqgc,3auqqel7u96cd7ht2c9zibh7i04v0j,kWk5Uyl9,2020-0188,2020-11-18,15:47:04,16:07:12,NA,incomplete,112,shape,1,left,Blue_Star_Dots_4.jpg,Red_Star_Grid_3.jpg,Blue_Plus_Chess_2.jpg,left,836.7250000010245,true,low,false
kWk5Uyl9,3lvtfb9df8vfwjy33dzq8w9nvhnqgc,3auqqel7u96cd7ht2c9zibh7i04v0j,kWk5Uyl9,2020-0188,2020-11-18,15:47:04,16:07:12,NA,incomplete,113,shape,1,right,Red_Circle_Dots_3.jpg,Red_Triangle_Chess_1.jpg,Purple_Circle_Grid_4.jpg,right,698.934999993071,true,low,false
kWk5Uyl9,3lvtfb9df8vfwjy33dzq8w9nvhnqgc,3auqqel7u96cd7ht2c9zibh7i04v0j,kWk5Uyl9,2020-0188,2020-11-18,15:47:04,16:07:12,NA,incomplete,114,shape,1,left,Red_Triangle_Grid_1.jpg,Green_Triangle_Chess_3.jpg,Red_Circle_Dots_4.jpg,left,1035.8699999924283,true,low,false
kWk5Uyl9,3lvtfb9df8vfwjy33dzq8w9nvhnqgc,3auqqel7u96cd7ht2c9zibh7i04v0j,kWk5Uyl9,2020-0188,2020-11-18,15:47:04,16:07:12,NA,incomplete,115,shape,1,left,Blue_Circle_Stripes_3.jpg,Purple_Circle_Grid_4.jpg,Blue_Plus_Chess_1.jpg,left,822.6100000028964,true,low,false
kWk5Uyl9,3lvtfb9df8vfwjy33dzq8w9nvhnqgc,3auqqel7u96cd7ht2c9zibh7i04v0j,kWk5Uyl9,2020-0188,2020-11-18,15:47:04,16:07:12,NA,incomplete,116,shape,1,left,Blue_Circle_Dots_4.jpg,Red_Circle_Chess_1.jpg,Blue_Plus_Grid_2.jpg,left,694.3949999986216,true,low,false
kWk5Uyl9,3lvtfb9df8vfwjy33dzq8w9nvhnqgc,3auqqel7u96cd7ht2c9zibh7i04v0j,kWk5Uyl9,2020-0188,2020-11-18,15:47:04,16:07:12,NA,incomplete,117,shape,0,right,Red_Triangle_Chess_1.jpg,Red_Plus_Grid_2.jpg,Purple_Triangle_Stripes_3.jpg,right,737.5450000108685,true,low,false
kWk5Uyl9,3lvtfb9df8vfwjy33dzq8w9nvhnqgc,3auqqel7u96cd7ht2c9zibh7i04v0j,kWk5Uyl9,2020-0188,2020-11-18,15:47:04,16:07:12,NA,incomplete,118,shape,1,left,Blue_Circle_Dots_4.jpg,Purple_Circle_Chess_3.jpg,Blue_Triangle_Stripes_2.jpg,left,872.8399999963585,true,low,false
kWk5Uyl9,3lvtfb9df8vfwjy33dzq8w9nvhnqgc,3auqqel7u96cd7ht2c9zibh7i04v0j,kWk5Uyl9,2020-0188,2020-11-18,15:47:04,16:07:12,NA,incomplete,119,shape,1,left,Blue_Circle_Grid_1.jpg,Purple_Circle_Stripes_2.jpg,Blue_Plus_Chess_3.jpg,left,847.2599999804515,true,low,false
kWk5Uyl9,3lvtfb9df8vfwjy33dzq8w9nvhnqgc,3auqqel7u96cd7ht2c9zibh7i04v0j,kWk5Uyl9,2020-0188,2020-11-18,15:47:04,16:07:12,NA,incomplete,120,filling,1,left,Purple_Triangle_Stripes_2.jpg,Green_Star_Stripes_3.jpg,Red_Circle_Grid_2.jpg,none,0,false,low,false
kWk5Uyl9,3lvtfb9df8vfwjy33dzq8w9nvhnqgc,3auqqel7u96cd7ht2c9zibh7i04v0j,kWk5Uyl9,2020-0188,2020-11-18,15:47:04,16:07:12,NA,incomplete,121,filling,1,right,Blue_Star_Stripes_3.jpg,Purple_Triangle_Grid_3.jpg,Red_Circle_Stripes_2.jpg,right,446.3400000240654,true,low,false
kWk5Uyl9,3lvtfb9df8vfwjy33dzq8w9nvhnqgc,3auqqel7u96cd7ht2c9zibh7i04v0j,kWk5Uyl9,2020-0188,2020-11-18,15:47:04,16:07:12,NA,incomplete,122,filling,1,left,Blue_Triangle_Stripes_3.jpg,Purple_Plus_Stripes_1.jpg,Green_Star_Grid_3.jpg,right,854.4249999977183,false,low,false
kWk5Uyl9,3lvtfb9df8vfwjy33dzq8w9nvhnqgc,3auqqel7u96cd7ht2c9zibh7i04v0j,kWk5Uyl9,2020-0188,2020-11-18,15:47:04,16:07:12,NA,incomplete,123,filling,1,right,Green_Star_Chess_1.jpg,Purple_Plus_Dots_1.jpg,Blue_Triangle_Chess_2.jpg,left,1312.5100000179373,false,low,false
kWk5Uyl9,3lvtfb9df8vfwjy33dzq8w9nvhnqgc,3auqqel7u96cd7ht2c9zibh7i04v0j,kWk5Uyl9,2020-0188,2020-11-18,15:47:04,16:07:12,NA,incomplete,124,filling,1,left,Red_Star_Dots_2.jpg,Green_Triangle_Dots_3.jpg,Purple_Plus_Stripes_2.jpg,left,1080.485000013141,true,low,false
kWk5Uyl9,3lvtfb9df8vfwjy33dzq8w9nvhnqgc,3auqqel7u96cd7ht2c9zibh7i04v0j,kWk5Uyl9,2020-0188,2020-11-18,15:47:04,16:07:12,NA,incomplete,125,filling,1,right,Red_Circle_Chess_2.jpg,Purple_Star_Grid_2.jpg,Green_Triangle_Chess_4.jpg,right,760.885000025155,true,low,false
kWk5Uyl9,3lvtfb9df8vfwjy33dzq8w9nvhnqgc,3auqqel7u96cd7ht2c9zibh7i04v0j,kWk5Uyl9,2020-0188,2020-11-18,15:47:04,16:07:12,NA,incomplete,126,filling,0,left,Purple_Star_Dots_3.jpg,Blue_Triangle_Dots_4.jpg,Red_Plus_Chess_3.jpg,right,1057.7650000050198,false,low,false
kWk5Uyl9,3lvtfb9df8vfwjy33dzq8w9nvhnqgc,3auqqel7u96cd7ht2c9zibh7i04v0j,kWk5Uyl9,2020-0188,2020-11-18,15:47:04,16:07:12,NA,incomplete,127,filling,1,left,Red_Star_Chess_4.jpg,Purple_Plus_Chess_3.jpg,Green_Circle_Dots_4.jpg,left,837.310000002617,true,low,false
kWk5Uyl9,3lvtfb9df8vfwjy33dzq8w9nvhnqgc,3auqqel7u96cd7ht2c9zibh7i04v0j,kWk5Uyl9,2020-0188,2020-11-18,15:47:04,16:07:12,NA,incomplete,128,filling,1,right,Red_Circle_Grid_4.jpg,Purple_Plus_Dots_4.jpg,Blue_Star_Grid_3.jpg,right,1280.2599999995437,true,low,false
kWk5Uyl9,3lvtfb9df8vfwjy33dzq8w9nvhnqgc,3auqqel7u96cd7ht2c9zibh7i04v0j,kWk5Uyl9,2020-0188,2020-11-18,15:47:04,16:07:12,NA,incomplete,129,filling,1,right,Red_Circle_Chess_2.jpg,Blue_Star_Grid_2.jpg,Green_Plus_Chess_4.jpg,right,742.7449999959208,true,low,false
kWk5Uyl9,3lvtfb9df8vfwjy33dzq8w9nvhnqgc,3auqqel7u96cd7ht2c9zibh7i04v0j,kWk5Uyl9,2020-0188,2020-11-18,15:47:04,16:07:12,NA,incomplete,130,filling,0,right,Purple_Plus_Chess_3.jpg,Blue_Circle_Grid_3.jpg,Green_Triangle_Chess_4.jpg,right,836.4149999979418,true,low,false
kWk5Uyl9,3lvtfb9df8vfwjy33dzq8w9nvhnqgc,3auqqel7u96cd7ht2c9zibh7i04v0j,kWk5Uyl9,2020-0188,2020-11-18,15:47:04,16:07:12,NA,incomplete,131,filling,1,left,Blue_Plus_Chess_3.jpg,Purple_Triangle_Chess_2.jpg,Red_Star_Stripes_3.jpg,right,923.1549999967683,false,low,false
kWk5Uyl9,3lvtfb9df8vfwjy33dzq8w9nvhnqgc,3auqqel7u96cd7ht2c9zibh7i04v0j,kWk5Uyl9,2020-0188,2020-11-18,15:47:04,16:07:12,NA,incomplete,132,filling,1,right,Purple_Plus_Dots_1.jpg,Red_Circle_Grid_1.jpg,Green_Star_Dots_2.jpg,right,1259.6449999837205,true,low,false
kWk5Uyl9,3lvtfb9df8vfwjy33dzq8w9nvhnqgc,3auqqel7u96cd7ht2c9zibh7i04v0j,kWk5Uyl9,2020-0188,2020-11-18,15:47:04,16:07:12,NA,incomplete,133,filling,0,right,Red_Star_Stripes_3.jpg,Purple_Triangle_Chess_3.jpg,Green_Plus_Stripes_4.jpg,right,1156.5750000008848,true,low,false
kWk5Uyl9,3lvtfb9df8vfwjy33dzq8w9nvhnqgc,3auqqel7u96cd7ht2c9zibh7i04v0j,kWk5Uyl9,2020-0188,2020-11-18,15:47:04,16:07:12,NA,incomplete,134,filling,1,left,Purple_Triangle_Dots_3.jpg,Red_Circle_Dots_4.jpg,Green_Star_Grid_3.jpg,right,933.694999985164,false,low,false
kWk5Uyl9,3lvtfb9df8vfwjy33dzq8w9nvhnqgc,3auqqel7u96cd7ht2c9zibh7i04v0j,kWk5Uyl9,2020-0188,2020-11-18,15:47:04,16:07:12,NA,incomplete,135,filling,0,right,Red_Star_Stripes_3.jpg,Blue_Circle_Chess_3.jpg,Purple_Triangle_Stripes_4.jpg,right,1522.6050000055693,true,low,false
kWk5Uyl9,3lvtfb9df8vfwjy33dzq8w9nvhnqgc,3auqqel7u96cd7ht2c9zibh7i04v0j,kWk5Uyl9,2020-0188,2020-11-18,15:47:04,16:07:12,NA,incomplete,136,filling,1,right,Green_Circle_Grid_1.jpg,Blue_Star_Chess_1.jpg,Red_Triangle_Grid_2.jpg,left,814.9499999999534,false,low,false
kWk5Uyl9,3lvtfb9df8vfwjy33dzq8w9nvhnqgc,3auqqel7u96cd7ht2c9zibh7i04v0j,kWk5Uyl9,2020-0188,2020-11-18,15:47:04,16:07:12,NA,incomplete,137,filling,1,right,Purple_Circle_Stripes_3.jpg,Red_Triangle_Dots_3.jpg,Green_Star_Stripes_4.jpg,right,1020.6849999958649,true,low,false
kWk5Uyl9,3lvtfb9df8vfwjy33dzq8w9nvhnqgc,3auqqel7u96cd7ht2c9zibh7i04v0j,kWk5Uyl9,2020-0188,2020-11-18,15:47:04,16:07:12,NA,incomplete,138,filling,1,right,Blue_Triangle_Dots_3.jpg,Purple_Circle_Stripes_3.jpg,Red_Plus_Dots_4.jpg,right,1036.9899999932386,true,low,false
kWk5Uyl9,3lvtfb9df8vfwjy33dzq8w9nvhnqgc,3auqqel7u96cd7ht2c9zibh7i04v0j,kWk5Uyl9,2020-0188,2020-11-18,15:47:04,16:07:12,NA,incomplete,139,filling,1,right,Purple_Circle_Chess_2.jpg,Green_Star_Dots_2.jpg,Blue_Triangle_Chess_1.jpg,right,1048.4700000088196,true,low,false
kWk5Uyl9,3lvtfb9df8vfwjy33dzq8w9nvhnqgc,3auqqel7u96cd7ht2c9zibh7i04v0j,kWk5Uyl9,2020-0188,2020-11-18,15:47:04,16:07:12,NA,incomplete,140,number,0,left,Red_Plus_Grid_1.jpg,Green_Circle_Chess_1.jpg,Purple_Star_Grid_2.jpg,right,1092.8699999931268,false,low,false
kWk5Uyl9,3lvtfb9df8vfwjy33dzq8w9nvhnqgc,3auqqel7u96cd7ht2c9zibh7i04v0j,kWk5Uyl9,2020-0188,2020-11-18,15:47:04,16:07:12,NA,incomplete,141,number,1,left,Purple_Circle_Stripes_4.jpg,Blue_Triangle_Grid_4.jpg,Red_Plus_Stripes_1.jpg,left,1032.3550000030082,true,low,false
kWk5Uyl9,3lvtfb9df8vfwjy33dzq8w9nvhnqgc,3auqqel7u96cd7ht2c9zibh7i04v0j,kWk5Uyl9,2020-0188,2020-11-18,15:47:04,16:07:12,NA,incomplete,142,number,0,right,Purple_Plus_Stripes_3.jpg,Green_Circle_Stripes_1.jpg,Blue_Star_Grid_3.jpg,right,907.2500000183936,true,low,false
kWk5Uyl9,3lvtfb9df8vfwjy33dzq8w9nvhnqgc,3auqqel7u96cd7ht2c9zibh7i04v0j,kWk5Uyl9,2020-0188,2020-11-18,15:47:04,16:07:12,NA,incomplete,143,number,1,left,Green_Triangle_Grid_4.jpg,Blue_Star_Dots_4.jpg,Red_Plus_Grid_3.jpg,right,1096.720000001369,false,low,false
kWk5Uyl9,3lvtfb9df8vfwjy33dzq8w9nvhnqgc,3auqqel7u96cd7ht2c9zibh7i04v0j,kWk5Uyl9,2020-0188,2020-11-18,15:47:04,16:07:12,NA,incomplete,144,number,1,right,Purple_Triangle_Stripes_3.jpg,Red_Circle_Stripes_1.jpg,Blue_Plus_Grid_3.jpg,right,1125.5700000037905,true,low,false
kWk5Uyl9,3lvtfb9df8vfwjy33dzq8w9nvhnqgc,3auqqel7u96cd7ht2c9zibh7i04v0j,kWk5Uyl9,2020-0188,2020-11-18,15:47:04,16:07:12,NA,incomplete,145,number,0,right,Blue_Star_Dots_2.jpg,Purple_Circle_Dots_1.jpg,Red_Triangle_Stripes_2.jpg,right,859.6499999985099,true,low,false
kWk5Uyl9,3lvtfb9df8vfwjy33dzq8w9nvhnqgc,3auqqel7u96cd7ht2c9zibh7i04v0j,kWk5Uyl9,2020-0188,2020-11-18,15:47:04,16:07:12,NA,incomplete,146,number,1,right,Blue_Plus_Grid_4.jpg,Red_Star_Grid_2.jpg,Green_Circle_Dots_4.jpg,left,1123.279999999795,false,low,false
kWk5Uyl9,3lvtfb9df8vfwjy33dzq8w9nvhnqgc,3auqqel7u96cd7ht2c9zibh7i04v0j,kWk5Uyl9,2020-0188,2020-11-18,15:47:04,16:07:12,NA,incomplete,147,number,1,left,Green_Star_Dots_2.jpg,Purple_Triangle_Stripes_2.jpg,Blue_Circle_Dots_1.jpg,left,1076.230000006035,true,low,false
kWk5Uyl9,3lvtfb9df8vfwjy33dzq8w9nvhnqgc,3auqqel7u96cd7ht2c9zibh7i04v0j,kWk5Uyl9,2020-0188,2020-11-18,15:47:04,16:07:12,NA,incomplete,148,number,0,right,Blue_Triangle_Dots_4.jpg,Purple_Circle_Dots_2.jpg,Red_Plus_Grid_4.jpg,right,779.2499999923166,true,low,false
kWk5Uyl9,3lvtfb9df8vfwjy33dzq8w9nvhnqgc,3auqqel7u96cd7ht2c9zibh7i04v0j,kWk5Uyl9,2020-0188,2020-11-18,15:47:04,16:07:12,NA,incomplete,149,number,1,left,Green_Star_Stripes_1.jpg,Purple_Plus_Chess_1.jpg,Blue_Circle_Stripes_4.jpg,right,904.324999981327,false,low,false
kWk5Uyl9,3lvtfb9df8vfwjy33dzq8w9nvhnqgc,3auqqel7u96cd7ht2c9zibh7i04v0j,kWk5Uyl9,2020-0188,2020-11-18,15:47:04,16:07:12,NA,incomplete,150,number,1,right,Green_Plus_Grid_1.jpg,Red_Circle_Grid_2.jpg,Purple_Star_Stripes_1.jpg,right,823.0099999927916,true,low,false
kWk5Uyl9,3lvtfb9df8vfwjy33dzq8w9nvhnqgc,3auqqel7u96cd7ht2c9zibh7i04v0j,kWk5Uyl9,2020-0188,2020-11-18,15:47:04,16:07:12,NA,incomplete,151,number,1,right,Purple_Plus_Chess_1.jpg,Blue_Triangle_Chess_2.jpg,Red_Star_Dots_1.jpg,right,668.9600000099745,true,low,false
kWk5Uyl9,3lvtfb9df8vfwjy33dzq8w9nvhnqgc,3auqqel7u96cd7ht2c9zibh7i04v0j,kWk5Uyl9,2020-0188,2020-11-18,15:47:04,16:07:12,NA,incomplete,152,number,1,right,Green_Star_Stripes_2.jpg,Red_Triangle_Stripes_4.jpg,Purple_Circle_Dots_2.jpg,right,910.8200000191573,true,low,false
kWk5Uyl9,3lvtfb9df8vfwjy33dzq8w9nvhnqgc,3auqqel7u96cd7ht2c9zibh7i04v0j,kWk5Uyl9,2020-0188,2020-11-18,15:47:04,16:07:12,NA,incomplete,153,number,0,right,Blue_Star_Grid_4.jpg,Purple_Plus_Grid_3.jpg,Green_Triangle_Dots_4.jpg,right,696.1049999808893,true,low,false
kWk5Uyl9,3lvtfb9df8vfwjy33dzq8w9nvhnqgc,3auqqel7u96cd7ht2c9zibh7i04v0j,kWk5Uyl9,2020-0188,2020-11-18,15:47:04,16:07:12,NA,incomplete,154,number,1,right,Blue_Triangle_Dots_1.jpg,Red_Circle_Dots_4.jpg,Green_Star_Chess_1.jpg,right,668.7450000026729,true,low,false
kWk5Uyl9,3lvtfb9df8vfwjy33dzq8w9nvhnqgc,3auqqel7u96cd7ht2c9zibh7i04v0j,kWk5Uyl9,2020-0188,2020-11-18,15:47:04,16:07:12,NA,incomplete,155,number,1,right,Purple_Star_Grid_1.jpg,Blue_Triangle_Grid_3.jpg,Green_Plus_Stripes_1.jpg,right,603.6949999979697,true,low,false
kWk5Uyl9,3lvtfb9df8vfwjy33dzq8w9nvhnqgc,3auqqel7u96cd7ht2c9zibh7i04v0j,kWk5Uyl9,2020-0188,2020-11-18,15:47:04,16:07:12,NA,incomplete,156,number,1,right,Red_Star_Dots_2.jpg,Blue_Circle_Dots_3.jpg,Green_Triangle_Chess_2.jpg,right,730.6499999831431,true,low,false
kWk5Uyl9,3lvtfb9df8vfwjy33dzq8w9nvhnqgc,3auqqel7u96cd7ht2c9zibh7i04v0j,kWk5Uyl9,2020-0188,2020-11-18,15:47:04,16:07:12,NA,incomplete,157,number,1,right,Green_Plus_Stripes_2.jpg,Purple_Triangle_Stripes_4.jpg,Red_Circle_Grid_2.jpg,right,746.4700000127777,true,low,false
kWk5Uyl9,3lvtfb9df8vfwjy33dzq8w9nvhnqgc,3auqqel7u96cd7ht2c9zibh7i04v0j,kWk5Uyl9,2020-0188,2020-11-18,15:47:04,16:07:12,NA,incomplete,158,number,1,left,Red_Star_Dots_4.jpg,Green_Triangle_Chess_4.jpg,Purple_Plus_Dots_1.jpg,left,1000.144999998156,true,low,false
kWk5Uyl9,3lvtfb9df8vfwjy33dzq8w9nvhnqgc,3auqqel7u96cd7ht2c9zibh7i04v0j,kWk5Uyl9,2020-0188,2020-11-18,15:47:04,16:07:12,NA,incomplete,159,number,1,right,Green_Plus_Grid_2.jpg,Red_Star_Grid_4.jpg,Purple_Triangle_Chess_2.jpg,right,987.2599999944214,true,low,false
kWk5Uyl9,3lvtfb9df8vfwjy33dzq8w9nvhnqgc,3auqqel7u96cd7ht2c9zibh7i04v0j,kWk5Uyl9,2020-0188,2020-11-18,15:47:04,16:07:12,NA,incomplete,160,filling,1,right,Purple_Circle_Grid_4.jpg,Blue_Star_Stripes_4.jpg,Green_Triangle_Grid_3.jpg,left,1204.9049999914132,false,low,false
kWk5Uyl9,3lvtfb9df8vfwjy33dzq8w9nvhnqgc,3auqqel7u96cd7ht2c9zibh7i04v0j,kWk5Uyl9,2020-0188,2020-11-18,15:47:04,16:07:12,NA,incomplete,161,filling,1,right,Purple_Circle_Grid_1.jpg,Green_Plus_Dots_1.jpg,Blue_Triangle_Grid_2.jpg,right,779.8250000050757,true,low,false
kWk5Uyl9,3lvtfb9df8vfwjy33dzq8w9nvhnqgc,3auqqel7u96cd7ht2c9zibh7i04v0j,kWk5Uyl9,2020-0188,2020-11-18,15:47:04,16:07:12,NA,incomplete,162,filling,1,right,Blue_Triangle_Dots_2.jpg,Red_Star_Grid_2.jpg,Green_Plus_Dots_3.jpg,right,954.1749999916647,true,low,false
kWk5Uyl9,3lvtfb9df8vfwjy33dzq8w9nvhnqgc,3auqqel7u96cd7ht2c9zibh7i04v0j,kWk5Uyl9,2020-0188,2020-11-18,15:47:04,16:07:12,NA,incomplete,163,filling,0,right,Purple_Plus_Dots_2.jpg,Blue_Circle_Chess_2.jpg,Red_Triangle_Dots_4.jpg,right,1486.5050000080373,true,low,false
kWk5Uyl9,3lvtfb9df8vfwjy33dzq8w9nvhnqgc,3auqqel7u96cd7ht2c9zibh7i04v0j,kWk5Uyl9,2020-0188,2020-11-18,15:47:04,16:07:12,NA,incomplete,164,filling,1,right,Green_Triangle_Chess_2.jpg,Purple_Circle_Stripes_2.jpg,Blue_Star_Chess_3.jpg,right,1057.860000000801,true,low,false
kWk5Uyl9,3lvtfb9df8vfwjy33dzq8w9nvhnqgc,3auqqel7u96cd7ht2c9zibh7i04v0j,kWk5Uyl9,2020-0188,2020-11-18,15:47:04,16:07:12,NA,incomplete,165,filling,0,right,Green_Plus_Chess_3.jpg,Purple_Triangle_Stripes_3.jpg,Red_Circle_Chess_2.jpg,right,913.9299999806099,true,low,false
kWk5Uyl9,3lvtfb9df8vfwjy33dzq8w9nvhnqgc,3auqqel7u96cd7ht2c9zibh7i04v0j,kWk5Uyl9,2020-0188,2020-11-18,15:47:04,16:07:12,NA,incomplete,166,filling,1,left,Purple_Circle_Chess_1.jpg,Green_Triangle_Chess_4.jpg,Red_Star_Stripes_1.jpg,right,810.0050000066403,false,low,false
kWk5Uyl9,3lvtfb9df8vfwjy33dzq8w9nvhnqgc,3auqqel7u96cd7ht2c9zibh7i04v0j,kWk5Uyl9,2020-0188,2020-11-18,15:47:04,16:07:12,NA,incomplete,167,filling,1,left,Purple_Circle_Dots_3.jpg,Red_Star_Dots_1.jpg,Blue_Plus_Grid_3.jpg,left,913.1049999850802,true,low,false
kWk5Uyl9,3lvtfb9df8vfwjy33dzq8w9nvhnqgc,3auqqel7u96cd7ht2c9zibh7i04v0j,kWk5Uyl9,2020-0188,2020-11-18,15:47:04,16:07:12,NA,incomplete,168,filling,1,left,Green_Triangle_Chess_4.jpg,Blue_Plus_Chess_1.jpg,Red_Circle_Dots_4.jpg,left,1111.800000013318,true,low,false
kWk5Uyl9,3lvtfb9df8vfwjy33dzq8w9nvhnqgc,3auqqel7u96cd7ht2c9zibh7i04v0j,kWk5Uyl9,2020-0188,2020-11-18,15:47:04,16:07:12,NA,incomplete,169,filling,0,left,Blue_Triangle_Chess_2.jpg,Green_Star_Chess_3.jpg,Red_Circle_Stripes_2.jpg,left,1064.8999999975786,true,low,false
kWk5Uyl9,3lvtfb9df8vfwjy33dzq8w9nvhnqgc,3auqqel7u96cd7ht2c9zibh7i04v0j,kWk5Uyl9,2020-0188,2020-11-18,15:47:04,16:07:12,NA,incomplete,170,filling,1,right,Green_Circle_Dots_3.jpg,Red_Plus_Stripes_3.jpg,Blue_Star_Dots_4.jpg,right,1065.4199999989942,true,low,false
kWk5Uyl9,3lvtfb9df8vfwjy33dzq8w9nvhnqgc,3auqqel7u96cd7ht2c9zibh7i04v0j,kWk5Uyl9,2020-0188,2020-11-18,15:47:04,16:07:12,NA,incomplete,171,filling,1,left,Green_Circle_Stripes_4.jpg,Purple_Triangle_Stripes_2.jpg,Blue_Star_Dots_4.jpg,left,951.2100000283681,true,low,false
kWk5Uyl9,3lvtfb9df8vfwjy33dzq8w9nvhnqgc,3auqqel7u96cd7ht2c9zibh7i04v0j,kWk5Uyl9,2020-0188,2020-11-18,15:47:04,16:07:12,NA,incomplete,172,filling,0,right,Green_Plus_Stripes_2.jpg,Blue_Star_Grid_2.jpg,Purple_Triangle_Stripes_1.jpg,right,1004.5749999990221,true,low,false
kWk5Uyl9,3lvtfb9df8vfwjy33dzq8w9nvhnqgc,3auqqel7u96cd7ht2c9zibh7i04v0j,kWk5Uyl9,2020-0188,2020-11-18,15:47:04,16:07:12,NA,incomplete,173,filling,1,right,Green_Triangle_Stripes_3.jpg,Red_Circle_Grid_3.jpg,Purple_Plus_Stripes_4.jpg,right,1060.4650000168476,true,low,false
kWk5Uyl9,3lvtfb9df8vfwjy33dzq8w9nvhnqgc,3auqqel7u96cd7ht2c9zibh7i04v0j,kWk5Uyl9,2020-0188,2020-11-18,15:47:04,16:07:12,NA,incomplete,174,filling,0,right,Green_Triangle_Chess_3.jpg,Blue_Star_Stripes_3.jpg,Red_Circle_Chess_1.jpg,right,905.1800000015646,true,low,false
kWk5Uyl9,3lvtfb9df8vfwjy33dzq8w9nvhnqgc,3auqqel7u96cd7ht2c9zibh7i04v0j,kWk5Uyl9,2020-0188,2020-11-18,15:47:04,16:07:12,NA,incomplete,175,filling,1,right,Green_Plus_Chess_1.jpg,Blue_Star_Dots_1.jpg,Red_Circle_Chess_4.jpg,left,1463.0949999846052,false,low,false
kWk5Uyl9,3lvtfb9df8vfwjy33dzq8w9nvhnqgc,3auqqel7u96cd7ht2c9zibh7i04v0j,kWk5Uyl9,2020-0188,2020-11-18,15:47:04,16:07:12,NA,incomplete,176,filling,0,right,Green_Triangle_Stripes_4.jpg,Purple_Plus_Chess_4.jpg,Blue_Circle_Stripes_3.jpg,right,920.3700000070967,true,low,false
kWk5Uyl9,3lvtfb9df8vfwjy33dzq8w9nvhnqgc,3auqqel7u96cd7ht2c9zibh7i04v0j,kWk5Uyl9,2020-0188,2020-11-18,15:47:04,16:07:12,NA,incomplete,177,filling,1,left,Purple_Triangle_Chess_1.jpg,Green_Star_Chess_3.jpg,Red_Plus_Stripes_1.jpg,right,804.3949999846518,false,low,false
kWk5Uyl9,3lvtfb9df8vfwjy33dzq8w9nvhnqgc,3auqqel7u96cd7ht2c9zibh7i04v0j,kWk5Uyl9,2020-0188,2020-11-18,15:47:04,16:07:12,NA,incomplete,178,filling,1,left,Purple_Circle_Stripes_4.jpg,Green_Star_Stripes_3.jpg,Blue_Triangle_Dots_4.jpg,left,1109.5799999893643,true,low,false
kWk5Uyl9,3lvtfb9df8vfwjy33dzq8w9nvhnqgc,3auqqel7u96cd7ht2c9zibh7i04v0j,kWk5Uyl9,2020-0188,2020-11-18,15:47:04,16:07:12,NA,incomplete,179,filling,1,right,Red_Circle_Chess_4.jpg,Purple_Triangle_Grid_4.jpg,Blue_Star_Chess_2.jpg,right,1193.3999999891967,true,low,false
kWk5Uyl9,3lvtfb9df8vfwjy33dzq8w9nvhnqgc,3auqqel7u96cd7ht2c9zibh7i04v0j,kWk5Uyl9,2020-0188,2020-11-18,15:47:04,16:07:12,NA,incomplete,180,number,1,left,Purple_Triangle_Grid_1.jpg,Blue_Circle_Chess_1.jpg,Red_Star_Grid_4.jpg,right,1106.1249999911524,false,low,false
kWk5Uyl9,3lvtfb9df8vfwjy33dzq8w9nvhnqgc,3auqqel7u96cd7ht2c9zibh7i04v0j,kWk5Uyl9,2020-0188,2020-11-18,15:47:04,16:07:12,NA,incomplete,181,number,1,right,Purple_Circle_Chess_3.jpg,Blue_Triangle_Chess_2.jpg,Green_Plus_Dots_3.jpg,left,1439.4000000029337,false,low,false
kWk5Uyl9,3lvtfb9df8vfwjy33dzq8w9nvhnqgc,3auqqel7u96cd7ht2c9zibh7i04v0j,kWk5Uyl9,2020-0188,2020-11-18,15:47:04,16:07:12,NA,incomplete,182,number,0,left,Purple_Plus_Dots_1.jpg,Red_Star_Grid_1.jpg,Green_Triangle_Dots_4.jpg,left,916.0850000043865,true,low,false
kWk5Uyl9,3lvtfb9df8vfwjy33dzq8w9nvhnqgc,3auqqel7u96cd7ht2c9zibh7i04v0j,kWk5Uyl9,2020-0188,2020-11-18,15:47:04,16:07:12,NA,incomplete,183,number,1,left,Purple_Circle_Stripes_4.jpg,Red_Triangle_Grid_4.jpg,Blue_Plus_Stripes_1.jpg,right,871.1350000230595,false,low,false
kWk5Uyl9,3lvtfb9df8vfwjy33dzq8w9nvhnqgc,3auqqel7u96cd7ht2c9zibh7i04v0j,kWk5Uyl9,2020-0188,2020-11-18,15:47:04,16:07:12,NA,incomplete,184,number,1,right,Green_Star_Grid_2.jpg,Blue_Triangle_Grid_3.jpg,Purple_Plus_Chess_2.jpg,right,905.6399999826681,true,low,false
kWk5Uyl9,3lvtfb9df8vfwjy33dzq8w9nvhnqgc,3auqqel7u96cd7ht2c9zibh7i04v0j,kWk5Uyl9,2020-0188,2020-11-18,15:47:04,16:07:12,NA,incomplete,185,number,1,left,Red_Triangle_Grid_2.jpg,Purple_Circle_Dots_2.jpg,Green_Star_Grid_3.jpg,left,1702.5699999940116,true,low,false
kWk5Uyl9,3lvtfb9df8vfwjy33dzq8w9nvhnqgc,3auqqel7u96cd7ht2c9zibh7i04v0j,kWk5Uyl9,2020-0188,2020-11-18,15:47:04,16:07:12,NA,incomplete,186,number,1,left,Purple_Circle_Stripes_3.jpg,Blue_Star_Grid_3.jpg,Green_Triangle_Stripes_4.jpg,left,1183.4300000045914,true,low,false
kWk5Uyl9,3lvtfb9df8vfwjy33dzq8w9nvhnqgc,3auqqel7u96cd7ht2c9zibh7i04v0j,kWk5Uyl9,2020-0188,2020-11-18,15:47:04,16:07:12,NA,incomplete,187,number,0,left,Purple_Star_Dots_3.jpg,Green_Plus_Chess_3.jpg,Red_Circle_Dots_1.jpg,left,1308.324999990873,true,low,false
kWk5Uyl9,3lvtfb9df8vfwjy33dzq8w9nvhnqgc,3auqqel7u96cd7ht2c9zibh7i04v0j,kWk5Uyl9,2020-0188,2020-11-18,15:47:04,16:07:12,NA,incomplete,188,number,1,right,Red_Triangle_Grid_4.jpg,Purple_Star_Grid_2.jpg,Green_Circle_Stripes_4.jpg,right,1131.2449999968521,true,low,false
kWk5Uyl9,3lvtfb9df8vfwjy33dzq8w9nvhnqgc,3auqqel7u96cd7ht2c9zibh7i04v0j,kWk5Uyl9,2020-0188,2020-11-18,15:47:04,16:07:12,NA,incomplete,189,number,1,left,Blue_Plus_Stripes_4.jpg,Red_Star_Grid_4.jpg,Green_Circle_Stripes_3.jpg,left,1781.2200000043958,true,low,false
kWk5Uyl9,3lvtfb9df8vfwjy33dzq8w9nvhnqgc,3auqqel7u96cd7ht2c9zibh7i04v0j,kWk5Uyl9,2020-0188,2020-11-18,15:47:04,16:07:12,NA,incomplete,190,number,1,left,Purple_Triangle_Stripes_3.jpg,Green_Star_Grid_3.jpg,Blue_Plus_Stripes_4.jpg,left,861.3400000031106,true,low,false
kWk5Uyl9,3lvtfb9df8vfwjy33dzq8w9nvhnqgc,3auqqel7u96cd7ht2c9zibh7i04v0j,kWk5Uyl9,2020-0188,2020-11-18,15:47:04,16:07:12,NA,incomplete,191,number,0,right,Green_Star_Stripes_2.jpg,Blue_Circle_Stripes_1.jpg,Purple_Plus_Grid_2.jpg,right,922.8899999870919,true,low,false
kWk5Uyl9,3lvtfb9df8vfwjy33dzq8w9nvhnqgc,3auqqel7u96cd7ht2c9zibh7i04v0j,kWk5Uyl9,2020-0188,2020-11-18,15:47:04,16:07:12,NA,incomplete,192,number,1,right,Purple_Star_Chess_2.jpg,Blue_Circle_Chess_1.jpg,Red_Plus_Dots_2.jpg,left,992.2049999877345,false,low,false
kWk5Uyl9,3lvtfb9df8vfwjy33dzq8w9nvhnqgc,3auqqel7u96cd7ht2c9zibh7i04v0j,kWk5Uyl9,2020-0188,2020-11-18,15:47:04,16:07:12,NA,incomplete,193,number,1,right,Red_Triangle_Dots_1.jpg,Purple_Star_Dots_3.jpg,Green_Circle_Chess_1.jpg,right,934.6850000147242,true,low,false
kWk5Uyl9,3lvtfb9df8vfwjy33dzq8w9nvhnqgc,3auqqel7u96cd7ht2c9zibh7i04v0j,kWk5Uyl9,2020-0188,2020-11-18,15:47:04,16:07:12,NA,incomplete,194,number,1,left,Green_Star_Grid_4.jpg,Purple_Plus_Dots_4.jpg,Blue_Circle_Grid_2.jpg,left,903.6550000018906,true,low,false
kWk5Uyl9,3lvtfb9df8vfwjy33dzq8w9nvhnqgc,3auqqel7u96cd7ht2c9zibh7i04v0j,kWk5Uyl9,2020-0188,2020-11-18,15:47:04,16:07:12,NA,incomplete,195,number,1,right,Green_Triangle_Grid_1.jpg,Blue_Star_Grid_3.jpg,Red_Circle_Chess_1.jpg,right,648.6500000173692,true,low,false
kWk5Uyl9,3lvtfb9df8vfwjy33dzq8w9nvhnqgc,3auqqel7u96cd7ht2c9zibh7i04v0j,kWk5Uyl9,2020-0188,2020-11-18,15:47:04,16:07:12,NA,incomplete,196,number,0,right,Purple_Star_Grid_3.jpg,Green_Circle_Grid_1.jpg,Red_Triangle_Chess_3.jpg,right,804.7399999923073,true,low,false
kWk5Uyl9,3lvtfb9df8vfwjy33dzq8w9nvhnqgc,3auqqel7u96cd7ht2c9zibh7i04v0j,kWk5Uyl9,2020-0188,2020-11-18,15:47:04,16:07:12,NA,incomplete,197,number,1,left,Red_Triangle_Stripes_1.jpg,Green_Star_Chess_1.jpg,Purple_Circle_Stripes_3.jpg,right,1429.470000002766,false,low,false
kWk5Uyl9,3lvtfb9df8vfwjy33dzq8w9nvhnqgc,3auqqel7u96cd7ht2c9zibh7i04v0j,kWk5Uyl9,2020-0188,2020-11-18,15:47:04,16:07:12,NA,incomplete,198,number,1,left,Purple_Star_Stripes_2.jpg,Blue_Plus_Grid_2.jpg,Green_Triangle_Stripes_3.jpg,left,894.1200000117533,true,low,false
kWk5Uyl9,3lvtfb9df8vfwjy33dzq8w9nvhnqgc,3auqqel7u96cd7ht2c9zibh7i04v0j,kWk5Uyl9,2020-0188,2020-11-18,15:47:04,16:07:12,NA,incomplete,199,number,1,right,Red_Plus_Dots_3.jpg,Purple_Star_Dots_4.jpg,Blue_Circle_Grid_3.jpg,right,1078.8200000242796,true,low,false
kWk5Uyl9,3lvtfb9df8vfwjy33dzq8w9nvhnqgc,3auqqel7u96cd7ht2c9zibh7i04v0j,kWk5Uyl9,2020-0188,2020-11-18,15:47:04,16:07:12,NA,incomplete,200,filling,1,left,Blue_Triangle_Grid_2.jpg,Green_Plus_Grid_4.jpg,Red_Star_Dots_2.jpg,right,1094.0350000164472,false,low,false
kWk5Uyl9,3lvtfb9df8vfwjy33dzq8w9nvhnqgc,3auqqel7u96cd7ht2c9zibh7i04v0j,kWk5Uyl9,2020-0188,2020-11-18,15:47:04,16:07:12,NA,incomplete,201,filling,1,left,Blue_Circle_Dots_4.jpg,Red_Plus_Dots_1.jpg,Purple_Triangle_Chess_4.jpg,left,894.6250000153668,true,low,false
kWk5Uyl9,3lvtfb9df8vfwjy33dzq8w9nvhnqgc,3auqqel7u96cd7ht2c9zibh7i04v0j,kWk5Uyl9,2020-0188,2020-11-18,15:47:04,16:07:12,NA,incomplete,202,filling,1,left,Red_Circle_Grid_3.jpg,Blue_Star_Grid_1.jpg,Purple_Plus_Chess_3.jpg,right,775.7350000028964,false,low,false
kWk5Uyl9,3lvtfb9df8vfwjy33dzq8w9nvhnqgc,3auqqel7u96cd7ht2c9zibh7i04v0j,kWk5Uyl9,2020-0188,2020-11-18,15:47:04,16:07:12,NA,incomplete,203,filling,1,left,Purple_Plus_Dots_4.jpg,Green_Star_Dots_1.jpg,Red_Triangle_Grid_4.jpg,left,1227.4800000013784,true,low,false
kWk5Uyl9,3lvtfb9df8vfwjy33dzq8w9nvhnqgc,3auqqel7u96cd7ht2c9zibh7i04v0j,kWk5Uyl9,2020-0188,2020-11-18,15:47:04,16:07:12,NA,incomplete,204,filling,1,right,Red_Triangle_Stripes_4.jpg,Purple_Plus_Chess_4.jpg,Blue_Star_Stripes_2.jpg,right,1093.2999999786261,true,low,false
kWk5Uyl9,3lvtfb9df8vfwjy33dzq8w9nvhnqgc,3auqqel7u96cd7ht2c9zibh7i04v0j,kWk5Uyl9,2020-0188,2020-11-18,15:47:04,16:07:12,NA,incomplete,205,filling,1,right,Blue_Star_Stripes_1.jpg,Red_Circle_Chess_1.jpg,Purple_Triangle_Stripes_2.jpg,right,927.9950000054669,true,low,false
kWk5Uyl9,3lvtfb9df8vfwjy33dzq8w9nvhnqgc,3auqqel7u96cd7ht2c9zibh7i04v0j,kWk5Uyl9,2020-0188,2020-11-18,15:47:04,16:07:12,NA,incomplete,206,filling,1,right,Blue_Circle_Dots_4.jpg,Green_Plus_Grid_4.jpg,Red_Triangle_Dots_1.jpg,right,1238.4250000177417,true,low,false
kWk5Uyl9,3lvtfb9df8vfwjy33dzq8w9nvhnqgc,3auqqel7u96cd7ht2c9zibh7i04v0j,kWk5Uyl9,2020-0188,2020-11-18,15:47:04,16:07:12,NA,incomplete,207,filling,0,left,Red_Plus_Dots_3.jpg,Blue_Star_Dots_4.jpg,Green_Circle_Chess_3.jpg,left,1372.4249999795575,true,low,false
kWk5Uyl9,3lvtfb9df8vfwjy33dzq8w9nvhnqgc,3auqqel7u96cd7ht2c9zibh7i04v0j,kWk5Uyl9,2020-0188,2020-11-18,15:47:04,16:07:12,NA,incomplete,208,filling,1,left,Purple_Circle_Chess_3.jpg,Blue_Star_Chess_4.jpg,Green_Plus_Dots_3.jpg,right,838.1499999959487,false,low,false
kWk5Uyl9,3lvtfb9df8vfwjy33dzq8w9nvhnqgc,3auqqel7u96cd7ht2c9zibh7i04v0j,kWk5Uyl9,2020-0188,2020-11-18,15:47:04,16:07:12,NA,incomplete,209,filling,1,left,Green_Circle_Grid_2.jpg,Purple_Star_Grid_3.jpg,Red_Triangle_Chess_2.jpg,left,1002.6749999960884,true,low,false
kWk5Uyl9,3lvtfb9df8vfwjy33dzq8w9nvhnqgc,3auqqel7u96cd7ht2c9zibh7i04v0j,kWk5Uyl9,2020-0188,2020-11-18,15:47:04,16:07:12,NA,incomplete,210,filling,1,left,Green_Triangle_Dots_2.jpg,Purple_Plus_Dots_4.jpg,Blue_Star_Chess_2.jpg,left,1002.5399999867659,true,low,false
kWk5Uyl9,3lvtfb9df8vfwjy33dzq8w9nvhnqgc,3auqqel7u96cd7ht2c9zibh7i04v0j,kWk5Uyl9,2020-0188,2020-11-18,15:47:04,16:07:12,NA,incomplete,211,filling,1,left,Green_Plus_Grid_4.jpg,Red_Star_Grid_1.jpg,Blue_Triangle_Chess_4.jpg,left,1049.3549999955576,true,low,false
kWk5Uyl9,3lvtfb9df8vfwjy33dzq8w9nvhnqgc,3auqqel7u96cd7ht2c9zibh7i04v0j,kWk5Uyl9,2020-0188,2020-11-18,15:47:04,16:07:12,NA,incomplete,212,filling,1,left,Green_Circle_Dots_1.jpg,Red_Triangle_Dots_4.jpg,Blue_Star_Stripes_1.jpg,left,1064.440000016475,true,low,false
kWk5Uyl9,3lvtfb9df8vfwjy33dzq8w9nvhnqgc,3auqqel7u96cd7ht2c9zibh7i04v0j,kWk5Uyl9,2020-0188,2020-11-18,15:47:04,16:07:12,NA,incomplete,213,filling,0,right,Purple_Plus_Chess_2.jpg,Red_Star_Grid_2.jpg,Green_Triangle_Chess_3.jpg,right,1205.5450000043493,true,low,false
kWk5Uyl9,3lvtfb9df8vfwjy33dzq8w9nvhnqgc,3auqqel7u96cd7ht2c9zibh7i04v0j,kWk5Uyl9,2020-0188,2020-11-18,15:47:04,16:07:12,NA,incomplete,214,filling,1,right,Green_Star_Dots_2.jpg,Blue_Circle_Stripes_2.jpg,Red_Triangle_Dots_3.jpg,left,821.8050000141375,false,low,false
kWk5Uyl9,3lvtfb9df8vfwjy33dzq8w9nvhnqgc,3auqqel7u96cd7ht2c9zibh7i04v0j,kWk5Uyl9,2020-0188,2020-11-18,15:47:04,16:07:12,NA,incomplete,215,filling,1,right,Red_Circle_Stripes_3.jpg,Purple_Triangle_Grid_3.jpg,Green_Star_Stripes_1.jpg,right,1082.9849999863654,true,low,false
kWk5Uyl9,3lvtfb9df8vfwjy33dzq8w9nvhnqgc,3auqqel7u96cd7ht2c9zibh7i04v0j,kWk5Uyl9,2020-0188,2020-11-18,15:47:04,16:07:12,NA,incomplete,216,filling,1,right,Green_Plus_Grid_4.jpg,Purple_Star_Stripes_4.jpg,Red_Circle_Grid_3.jpg,right,1232.9249999893364,true,low,false
kWk5Uyl9,3lvtfb9df8vfwjy33dzq8w9nvhnqgc,3auqqel7u96cd7ht2c9zibh7i04v0j,kWk5Uyl9,2020-0188,2020-11-18,15:47:04,16:07:12,NA,incomplete,217,filling,1,right,Red_Circle_Dots_1.jpg,Purple_Triangle_Grid_1.jpg,Green_Star_Dots_2.jpg,right,1038.0149999982677,true,low,false
kWk5Uyl9,3lvtfb9df8vfwjy33dzq8w9nvhnqgc,3auqqel7u96cd7ht2c9zibh7i04v0j,kWk5Uyl9,2020-0188,2020-11-18,15:47:04,16:07:12,NA,incomplete,218,filling,0,right,Red_Triangle_Stripes_1.jpg,Purple_Circle_Grid_1.jpg,Green_Star_Stripes_3.jpg,right,1067.5199999823235,true,low,false
kWk5Uyl9,3lvtfb9df8vfwjy33dzq8w9nvhnqgc,3auqqel7u96cd7ht2c9zibh7i04v0j,kWk5Uyl9,2020-0188,2020-11-18,15:47:04,16:07:12,NA,incomplete,219,filling,1,left,Blue_Circle_Chess_2.jpg,Red_Triangle_Chess_3.jpg,Green_Star_Dots_2.jpg,left,990.2000000001863,true,low,false
kWk5Uyl9,3lvtfb9df8vfwjy33dzq8w9nvhnqgc,3auqqel7u96cd7ht2c9zibh7i04v0j,kWk5Uyl9,2020-0188,2020-11-18,15:47:04,16:07:12,NA,incomplete,220,number,1,left,Red_Plus_Chess_4.jpg,Purple_Triangle_Stripes_4.jpg,Green_Circle_Chess_1.jpg,right,1101.4349999895785,false,low,false
kWk5Uyl9,3lvtfb9df8vfwjy33dzq8w9nvhnqgc,3auqqel7u96cd7ht2c9zibh7i04v0j,kWk5Uyl9,2020-0188,2020-11-18,15:47:04,16:07:12,NA,incomplete,221,number,1,left,Green_Triangle_Grid_3.jpg,Purple_Circle_Chess_3.jpg,Blue_Star_Grid_4.jpg,left,861.7650000087451,true,low,false
kWk5Uyl9,3lvtfb9df8vfwjy33dzq8w9nvhnqgc,3auqqel7u96cd7ht2c9zibh7i04v0j,kWk5Uyl9,2020-0188,2020-11-18,15:47:04,16:07:12,NA,incomplete,222,number,1,right,Purple_Star_Dots_4.jpg,Red_Plus_Dots_3.jpg,Green_Triangle_Stripes_4.jpg,right,644.8850000160746,true,low,false
kWk5Uyl9,3lvtfb9df8vfwjy33dzq8w9nvhnqgc,3auqqel7u96cd7ht2c9zibh7i04v0j,kWk5Uyl9,2020-0188,2020-11-18,15:47:04,16:07:12,NA,incomplete,223,number,1,left,Red_Circle_Chess_4.jpg,Purple_Triangle_Grid_4.jpg,Blue_Plus_Chess_1.jpg,right,1076.2800000084098,false,low,false
kWk5Uyl9,3lvtfb9df8vfwjy33dzq8w9nvhnqgc,3auqqel7u96cd7ht2c9zibh7i04v0j,kWk5Uyl9,2020-0188,2020-11-18,15:47:04,16:07:12,NA,incomplete,224,number,1,right,Red_Triangle_Chess_2.jpg,Green_Plus_Chess_3.jpg,Purple_Circle_Dots_2.jpg,right,829.5400000060908,true,low,false
kWk5Uyl9,3lvtfb9df8vfwjy33dzq8w9nvhnqgc,3auqqel7u96cd7ht2c9zibh7i04v0j,kWk5Uyl9,2020-0188,2020-11-18,15:47:04,16:07:12,NA,incomplete,225,number,1,right,Purple_Star_Dots_3.jpg,Green_Plus_Dots_2.jpg,Blue_Triangle_Chess_3.jpg,right,942.7799999830313,true,low,false
kWk5Uyl9,3lvtfb9df8vfwjy33dzq8w9nvhnqgc,3auqqel7u96cd7ht2c9zibh7i04v0j,kWk5Uyl9,2020-0188,2020-11-18,15:47:04,16:07:12,NA,incomplete,226,number,0,right,Blue_Triangle_Stripes_1.jpg,Red_Circle_Stripes_3.jpg,Green_Star_Dots_1.jpg,right,1305.2049999823794,true,low,false
kWk5Uyl9,3lvtfb9df8vfwjy33dzq8w9nvhnqgc,3auqqel7u96cd7ht2c9zibh7i04v0j,kWk5Uyl9,2020-0188,2020-11-18,15:47:04,16:07:12,NA,incomplete,227,number,1,left,Green_Triangle_Grid_1.jpg,Red_Plus_Chess_1.jpg,Blue_Star_Grid_2.jpg,right,1162.1000000159256,false,low,false
kWk5Uyl9,3lvtfb9df8vfwjy33dzq8w9nvhnqgc,3auqqel7u96cd7ht2c9zibh7i04v0j,kWk5Uyl9,2020-0188,2020-11-18,15:47:04,16:07:12,NA,incomplete,228,number,1,left,Red_Triangle_Grid_1.jpg,Purple_Plus_Dots_1.jpg,Blue_Circle_Grid_4.jpg,left,603.8349999871571,true,low,false
kWk5Uyl9,3lvtfb9df8vfwjy33dzq8w9nvhnqgc,3auqqel7u96cd7ht2c9zibh7i04v0j,kWk5Uyl9,2020-0188,2020-11-18,15:47:04,16:07:12,NA,incomplete,229,number,1,right,Blue_Triangle_Dots_2.jpg,Green_Circle_Dots_4.jpg,Red_Star_Grid_2.jpg,right,694.389999989653,true,low,false
kWk5Uyl9,3lvtfb9df8vfwjy33dzq8w9nvhnqgc,3auqqel7u96cd7ht2c9zibh7i04v0j,kWk5Uyl9,2020-0188,2020-11-18,15:47:04,16:07:12,NA,incomplete,230,number,1,left,Green_Circle_Stripes_3.jpg,Purple_Plus_Chess_3.jpg,Red_Triangle_Stripes_1.jpg,left,696.719999978086,true,low,false
kWk5Uyl9,3lvtfb9df8vfwjy33dzq8w9nvhnqgc,3auqqel7u96cd7ht2c9zibh7i04v0j,kWk5Uyl9,2020-0188,2020-11-18,15:47:04,16:07:12,NA,incomplete,231,number,0,left,Green_Star_Dots_4.jpg,Purple_Triangle_Chess_4.jpg,Red_Circle_Dots_2.jpg,left,728.5799999954179,true,low,false
kWk5Uyl9,3lvtfb9df8vfwjy33dzq8w9nvhnqgc,3auqqel7u96cd7ht2c9zibh7i04v0j,kWk5Uyl9,2020-0188,2020-11-18,15:47:04,16:07:12,NA,incomplete,232,number,1,left,Red_Star_Stripes_3.jpg,Blue_Circle_Chess_3.jpg,Purple_Triangle_Stripes_2.jpg,left,955.0350000208709,true,low,false
kWk5Uyl9,3lvtfb9df8vfwjy33dzq8w9nvhnqgc,3auqqel7u96cd7ht2c9zibh7i04v0j,kWk5Uyl9,2020-0188,2020-11-18,15:47:04,16:07:12,NA,incomplete,233,number,1,right,Green_Plus_Grid_2.jpg,Blue_Triangle_Grid_4.jpg,Purple_Star_Chess_2.jpg,right,648.3750000188593,true,low,false
kWk5Uyl9,3lvtfb9df8vfwjy33dzq8w9nvhnqgc,3auqqel7u96cd7ht2c9zibh7i04v0j,kWk5Uyl9,2020-0188,2020-11-18,15:47:04,16:07:12,NA,incomplete,234,number,1,left,Green_Circle_Dots_4.jpg,Blue_Star_Chess_4.jpg,Purple_Plus_Dots_2.jpg,left,837.3649999848567,true,low,false
kWk5Uyl9,3lvtfb9df8vfwjy33dzq8w9nvhnqgc,3auqqel7u96cd7ht2c9zibh7i04v0j,kWk5Uyl9,2020-0188,2020-11-18,15:47:04,16:07:12,NA,incomplete,235,number,1,right,Green_Circle_Dots_3.jpg,Blue_Star_Dots_2.jpg,Red_Triangle_Stripes_3.jpg,right,704.505000001518,true,low,false
kWk5Uyl9,3lvtfb9df8vfwjy33dzq8w9nvhnqgc,3auqqel7u96cd7ht2c9zibh7i04v0j,kWk5Uyl9,2020-0188,2020-11-18,15:47:04,16:07:12,NA,incomplete,236,number,1,right,Blue_Plus_Chess_4.jpg,Red_Circle_Chess_1.jpg,Green_Triangle_Grid_4.jpg,right,700.4850000084843,true,low,false
kWk5Uyl9,3lvtfb9df8vfwjy33dzq8w9nvhnqgc,3auqqel7u96cd7ht2c9zibh7i04v0j,kWk5Uyl9,2020-0188,2020-11-18,15:47:04,16:07:12,NA,incomplete,237,number,1,right,Green_Triangle_Stripes_4.jpg,Purple_Circle_Stripes_2.jpg,Blue_Star_Chess_4.jpg,right,769.6149999974295,true,low,false
kWk5Uyl9,3lvtfb9df8vfwjy33dzq8w9nvhnqgc,3auqqel7u96cd7ht2c9zibh7i04v0j,kWk5Uyl9,2020-0188,2020-11-18,15:47:04,16:07:12,NA,incomplete,238,number,1,right,Red_Triangle_Chess_4.jpg,Purple_Star_Chess_2.jpg,Blue_Plus_Dots_4.jpg,right,765.2900000102818,true,low,false
kWk5Uyl9,3lvtfb9df8vfwjy33dzq8w9nvhnqgc,3auqqel7u96cd7ht2c9zibh7i04v0j,kWk5Uyl9,2020-0188,2020-11-18,15:47:04,16:07:12,NA,incomplete,239,number,1,right,Blue_Plus_Stripes_4.jpg,Green_Triangle_Stripes_3.jpg,Purple_Star_Grid_4.jpg,right,735.7149999879766,true,low,false
kWk5Uyl9,3lvtfb9df8vfwjy33dzq8w9nvhnqgc,3auqqel7u96cd7ht2c9zibh7i04v0j,kWk5Uyl9,2020-0188,2020-11-18,15:47:04,16:07:12,NA,NA,instruction example,color,NA,NA,Purple_Circle_Dots_3.jpg,Purple_Triangle_Stripes_2.jpg,Blue_Circle_Chess_4.jpg,NA,NA,NA,NA,undefined
kWk5Uyl9,3lvtfb9df8vfwjy33dzq8w9nvhnqgc,3auqqel7u96cd7ht2c9zibh7i04v0j,kWk5Uyl9,2020-0188,2020-11-18,15:47:04,16:07:12,NA,NA,instruction example,color,NA,NA,Purple_Star_Chess_3.jpg,Green_Star_Stripes_1.jpg,Purple_Triangle_Grid_4.jpg,NA,NA,NA,NA,undefined
kWk5Uyl9,3lvtfb9df8vfwjy33dzq8w9nvhnqgc,3auqqel7u96cd7ht2c9zibh7i04v0j,kWk5Uyl9,2020-0188,2020-11-18,15:47:04,16:07:12,NA,NA,instruction example,color,NA,NA,Red_Circle_Chess_3.jpg,Purple_Star_Chess_4.jpg,Green_Triangle_Grid_3.jpg,NA,NA,NA,NA,undefined
kWk5Uyl9,3lvtfb9df8vfwjy33dzq8w9nvhnqgc,3auqqel7u96cd7ht2c9zibh7i04v0j,kWk5Uyl9,2020-0188,2020-11-18,15:47:04,16:07:12,NA,NA,instruction example,color,NA,NA,Purple_Plus_Dots_1.jpg,Blue_Star_Grid_1.jpg,Red_Triangle_Dots_3.jpg,NA,NA,NA,NA,undefined
kWk5Uyl9,3lvtfb9df8vfwjy33dzq8w9nvhnqgc,3auqqel7u96cd7ht2c9zibh7i04v0j,kWk5Uyl9,2020-0188,2020-11-18,15:47:04,16:07:12,1157604.3099999952,1209302.9950000055,NA,NA,NA,NA,NA,NA,NA,NA,NA,NA,NA,undefined
