workerId,hitId,assignmentId,subject,studyid,exp_date,exp_start,exp_end,time_start,time_end,trial,type,reward_validity,answer,image_top,image_left,image_right,response,response_time,response_acc,volatility,practice
1H5laj5o,372ages0j7iqu68t52ou18jnn9hxrx,3awetudc9654tm3j7zn89luyu9gizy,1H5laj5o,2020-0188,2020-05-21,14:02:29,14:22:16,NA,incomplete,0,filling,1,right,Green_Star_Stripes_1.jpg,Blue_Star_Chess_3.jpg,Purple_Plus_Stripes_2.jpg,right,1656.7849999992177,true,NA,true
1H5laj5o,372ages0j7iqu68t52ou18jnn9hxrx,3awetudc9654tm3j7zn89luyu9gizy,1H5laj5o,2020-0188,2020-05-21,14:02:29,14:22:16,NA,incomplete,1,filling,1,right,Red_Triangle_Chess_3.jpg,Green_Triangle_Dots_4.jpg,Blue_Plus_Chess_2.jpg,right,1426.1499999993248,true,NA,true
1H5laj5o,372ages0j7iqu68t52ou18jnn9hxrx,3awetudc9654tm3j7zn89luyu9gizy,1H5laj5o,2020-0188,2020-05-21,14:02:29,14:22:16,NA,incomplete,2,filling,1,right,Red_Plus_Dots_1.jpg,Green_Plus_Chess_2.jpg,Blue_Circle_Dots_3.jpg,right,985.4699999996228,true,NA,true
1H5laj5o,372ages0j7iqu68t52ou18jnn9hxrx,3awetudc9654tm3j7zn89luyu9gizy,1H5laj5o,2020-0188,2020-05-21,14:02:29,14:22:16,NA,incomplete,3,filling,1,right,Green_Star_Dots_4.jpg,Blue_Star_Stripes_3.jpg,Red_Circle_Dots_2.jpg,right,1291.42999999749,true,NA,true
1H5laj5o,372ages0j7iqu68t52ou18jnn9hxrx,3awetudc9654tm3j7zn89luyu9gizy,1H5laj5o,2020-0188,2020-05-21,14:02:29,14:22:16,NA,incomplete,4,filling,0,right,Green_Triangle_Stripes_2.jpg,Red_Triangle_Chess_4.jpg,Purple_Plus_Stripes_3.jpg,right,882.1900000039022,true,NA,true
1H5laj5o,372ages0j7iqu68t52ou18jnn9hxrx,3awetudc9654tm3j7zn89luyu9gizy,1H5laj5o,2020-0188,2020-05-21,14:02:29,14:22:16,NA,incomplete,5,filling,0,right,Blue_Star_Dots_2.jpg,Purple_Star_Chess_4.jpg,Green_Plus_Dots_3.jpg,right,1211.1149999982445,true,NA,true
1H5laj5o,372ages0j7iqu68t52ou18jnn9hxrx,3awetudc9654tm3j7zn89luyu9gizy,1H5laj5o,2020-0188,2020-05-21,14:02:29,14:22:16,NA,incomplete,6,filling,1,right,Blue_Star_Stripes_3.jpg,Red_Star_Dots_1.jpg,Green_Triangle_Stripes_2.jpg,right,1390.4399999883026,true,NA,true
1H5laj5o,372ages0j7iqu68t52ou18jnn9hxrx,3awetudc9654tm3j7zn89luyu9gizy,1H5laj5o,2020-0188,2020-05-21,14:02:29,14:22:16,NA,incomplete,7,filling,1,right,Blue_Star_Stripes_4.jpg,Red_Star_Chess_1.jpg,Purple_Plus_Stripes_2.jpg,right,970.0149999989662,true,NA,true
1H5laj5o,372ages0j7iqu68t52ou18jnn9hxrx,3awetudc9654tm3j7zn89luyu9gizy,1H5laj5o,2020-0188,2020-05-21,14:02:29,14:22:16,NA,incomplete,8,filling,1,right,Purple_Circle_Chess_1.jpg,Blue_Circle_Grid_2.jpg,Red_Plus_Chess_4.jpg,right,998.5849999939092,true,NA,true
1H5laj5o,372ages0j7iqu68t52ou18jnn9hxrx,3awetudc9654tm3j7zn89luyu9gizy,1H5laj5o,2020-0188,2020-05-21,14:02:29,14:22:16,NA,incomplete,9,filling,1,right,Red_Plus_Chess_2.jpg,Blue_Plus_Dots_1.jpg,Purple_Circle_Chess_4.jpg,right,1625.3400000132388,true,NA,true
1H5laj5o,372ages0j7iqu68t52ou18jnn9hxrx,3awetudc9654tm3j7zn89luyu9gizy,1H5laj5o,2020-0188,2020-05-21,14:02:29,14:22:16,NA,incomplete,10,filling,1,left,Red_Star_Grid_3.jpg,Purple_Plus_Grid_1.jpg,Green_Star_Stripes_4.jpg,left,1179.005000012694,true,NA,true
1H5laj5o,372ages0j7iqu68t52ou18jnn9hxrx,3awetudc9654tm3j7zn89luyu9gizy,1H5laj5o,2020-0188,2020-05-21,14:02:29,14:22:16,NA,incomplete,11,filling,1,right,Purple_Star_Stripes_2.jpg,Red_Star_Dots_1.jpg,Green_Triangle_Stripes_4.jpg,right,1074.2800000007264,true,NA,true
1H5laj5o,372ages0j7iqu68t52ou18jnn9hxrx,3awetudc9654tm3j7zn89luyu9gizy,1H5laj5o,2020-0188,2020-05-21,14:02:29,14:22:16,NA,incomplete,12,filling,1,left,Purple_Triangle_Grid_1.jpg,Green_Star_Grid_3.jpg,Red_Triangle_Stripes_4.jpg,left,1257.9899999982445,true,NA,true
1H5laj5o,372ages0j7iqu68t52ou18jnn9hxrx,3awetudc9654tm3j7zn89luyu9gizy,1H5laj5o,2020-0188,2020-05-21,14:02:29,14:22:16,NA,incomplete,13,filling,0,right,Purple_Circle_Grid_2.jpg,Red_Circle_Stripes_4.jpg,Green_Star_Grid_3.jpg,right,1199.4349999877159,true,NA,true
1H5laj5o,372ages0j7iqu68t52ou18jnn9hxrx,3awetudc9654tm3j7zn89luyu9gizy,1H5laj5o,2020-0188,2020-05-21,14:02:29,14:22:16,NA,incomplete,14,filling,1,right,Blue_Plus_Grid_4.jpg,Red_Plus_Dots_3.jpg,Purple_Star_Grid_1.jpg,right,993.9149999991059,true,NA,true
1H5laj5o,372ages0j7iqu68t52ou18jnn9hxrx,3awetudc9654tm3j7zn89luyu9gizy,1H5laj5o,2020-0188,2020-05-21,14:02:29,14:22:16,NA,incomplete,15,filling,1,right,Blue_Star_Grid_1.jpg,Purple_Star_Stripes_2.jpg,Red_Plus_Grid_4.jpg,right,1418.7850000016624,true,NA,true
1H5laj5o,372ages0j7iqu68t52ou18jnn9hxrx,3awetudc9654tm3j7zn89luyu9gizy,1H5laj5o,2020-0188,2020-05-21,14:02:29,14:22:16,NA,incomplete,16,filling,0,right,Red_Triangle_Chess_1.jpg,Purple_Triangle_Dots_2.jpg,Blue_Plus_Chess_3.jpg,right,1369.5000000006985,true,NA,true
1H5laj5o,372ages0j7iqu68t52ou18jnn9hxrx,3awetudc9654tm3j7zn89luyu9gizy,1H5laj5o,2020-0188,2020-05-21,14:02:29,14:22:16,NA,incomplete,17,filling,1,right,Green_Plus_Stripes_3.jpg,Purple_Plus_Chess_1.jpg,Red_Circle_Stripes_4.jpg,right,1291.719999993802,true,NA,true
1H5laj5o,372ages0j7iqu68t52ou18jnn9hxrx,3awetudc9654tm3j7zn89luyu9gizy,1H5laj5o,2020-0188,2020-05-21,14:02:29,14:22:16,NA,incomplete,18,filling,1,left,Purple_Triangle_Stripes_4.jpg,Green_Plus_Stripes_3.jpg,Red_Triangle_Grid_1.jpg,left,1064.155000000028,true,NA,true
1H5laj5o,372ages0j7iqu68t52ou18jnn9hxrx,3awetudc9654tm3j7zn89luyu9gizy,1H5laj5o,2020-0188,2020-05-21,14:02:29,14:22:16,NA,incomplete,19,filling,1,left,Green_Plus_Grid_4.jpg,Red_Triangle_Grid_3.jpg,Blue_Plus_Dots_1.jpg,left,1385.5849999963539,true,NA,true
1H5laj5o,372ages0j7iqu68t52ou18jnn9hxrx,3awetudc9654tm3j7zn89luyu9gizy,1H5laj5o,2020-0188,2020-05-21,14:02:29,14:22:16,NA,incomplete,20,shape,0,left,Blue_Triangle_Stripes_4.jpg,Purple_Triangle_Chess_3.jpg,Red_Plus_Stripes_1.jpg,right,1008.109999995213,false,NA,true
1H5laj5o,372ages0j7iqu68t52ou18jnn9hxrx,3awetudc9654tm3j7zn89luyu9gizy,1H5laj5o,2020-0188,2020-05-21,14:02:29,14:22:16,NA,incomplete,21,shape,1,right,Green_Triangle_Dots_4.jpg,Purple_Circle_Dots_2.jpg,Red_Triangle_Grid_1.jpg,left,981.9100000022445,false,NA,true
1H5laj5o,372ages0j7iqu68t52ou18jnn9hxrx,3awetudc9654tm3j7zn89luyu9gizy,1H5laj5o,2020-0188,2020-05-21,14:02:29,14:22:16,NA,incomplete,22,shape,1,left,Green_Circle_Dots_1.jpg,Blue_Circle_Chess_3.jpg,Purple_Star_Dots_2.jpg,right,1012.2350000019651,false,NA,true
1H5laj5o,372ages0j7iqu68t52ou18jnn9hxrx,3awetudc9654tm3j7zn89luyu9gizy,1H5laj5o,2020-0188,2020-05-21,14:02:29,14:22:16,NA,incomplete,23,shape,1,right,Green_Star_Dots_1.jpg,Red_Triangle_Dots_2.jpg,Blue_Star_Chess_3.jpg,right,1220.710000008694,true,NA,true
1H5laj5o,372ages0j7iqu68t52ou18jnn9hxrx,3awetudc9654tm3j7zn89luyu9gizy,1H5laj5o,2020-0188,2020-05-21,14:02:29,14:22:16,NA,incomplete,24,shape,1,left,Blue_Triangle_Grid_3.jpg,Red_Triangle_Chess_2.jpg,Purple_Star_Grid_4.jpg,left,809.2050000122981,true,NA,true
1H5laj5o,372ages0j7iqu68t52ou18jnn9hxrx,3awetudc9654tm3j7zn89luyu9gizy,1H5laj5o,2020-0188,2020-05-21,14:02:29,14:22:16,NA,incomplete,25,shape,1,left,Purple_Triangle_Chess_1.jpg,Blue_Triangle_Stripes_3.jpg,Green_Star_Chess_4.jpg,left,848.0049999925541,true,NA,true
1H5laj5o,372ages0j7iqu68t52ou18jnn9hxrx,3awetudc9654tm3j7zn89luyu9gizy,1H5laj5o,2020-0188,2020-05-21,14:02:29,14:22:16,NA,incomplete,26,shape,1,left,Red_Plus_Dots_2.jpg,Purple_Plus_Chess_1.jpg,Blue_Star_Dots_3.jpg,left,945.899999991525,true,NA,true
1H5laj5o,372ages0j7iqu68t52ou18jnn9hxrx,3awetudc9654tm3j7zn89luyu9gizy,1H5laj5o,2020-0188,2020-05-21,14:02:29,14:22:16,NA,incomplete,27,shape,1,right,Red_Triangle_Stripes_3.jpg,Blue_Circle_Stripes_2.jpg,Green_Triangle_Chess_1.jpg,right,1470.5899999971734,true,NA,true
1H5laj5o,372ages0j7iqu68t52ou18jnn9hxrx,3awetudc9654tm3j7zn89luyu9gizy,1H5laj5o,2020-0188,2020-05-21,14:02:29,14:22:16,NA,incomplete,28,shape,1,right,Blue_Star_Dots_1.jpg,Red_Plus_Dots_3.jpg,Green_Star_Chess_4.jpg,right,988.2700000016484,true,NA,true
1H5laj5o,372ages0j7iqu68t52ou18jnn9hxrx,3awetudc9654tm3j7zn89luyu9gizy,1H5laj5o,2020-0188,2020-05-21,14:02:29,14:22:16,NA,incomplete,29,shape,1,right,Purple_Plus_Stripes_1.jpg,Red_Circle_Stripes_2.jpg,Blue_Plus_Chess_4.jpg,right,809.0099999972153,true,NA,true
1H5laj5o,372ages0j7iqu68t52ou18jnn9hxrx,3awetudc9654tm3j7zn89luyu9gizy,1H5laj5o,2020-0188,2020-05-21,14:02:29,14:22:16,NA,incomplete,30,shape,1,left,Purple_Plus_Grid_3.jpg,Green_Plus_Chess_4.jpg,Red_Circle_Grid_2.jpg,left,765.2749999979278,true,NA,true
1H5laj5o,372ages0j7iqu68t52ou18jnn9hxrx,3awetudc9654tm3j7zn89luyu9gizy,1H5laj5o,2020-0188,2020-05-21,14:02:29,14:22:16,NA,incomplete,31,shape,1,left,Red_Circle_Grid_1.jpg,Green_Circle_Stripes_4.jpg,Purple_Plus_Grid_3.jpg,left,687.6999999949476,true,NA,true
1H5laj5o,372ages0j7iqu68t52ou18jnn9hxrx,3awetudc9654tm3j7zn89luyu9gizy,1H5laj5o,2020-0188,2020-05-21,14:02:29,14:22:16,NA,incomplete,32,shape,0,right,Purple_Circle_Stripes_1.jpg,Blue_Plus_Stripes_4.jpg,Red_Circle_Chess_2.jpg,right,713.2700000074692,true,NA,true
1H5laj5o,372ages0j7iqu68t52ou18jnn9hxrx,3awetudc9654tm3j7zn89luyu9gizy,1H5laj5o,2020-0188,2020-05-21,14:02:29,14:22:16,NA,incomplete,33,shape,0,right,Purple_Plus_Dots_2.jpg,Blue_Triangle_Dots_1.jpg,Green_Plus_Grid_3.jpg,right,714.3300000025192,true,NA,true
1H5laj5o,372ages0j7iqu68t52ou18jnn9hxrx,3awetudc9654tm3j7zn89luyu9gizy,1H5laj5o,2020-0188,2020-05-21,14:02:29,14:22:16,NA,incomplete,34,shape,1,right,Blue_Star_Grid_3.jpg,Purple_Circle_Grid_4.jpg,Green_Star_Stripes_2.jpg,right,737.2249999898486,true,NA,true
1H5laj5o,372ages0j7iqu68t52ou18jnn9hxrx,3awetudc9654tm3j7zn89luyu9gizy,1H5laj5o,2020-0188,2020-05-21,14:02:29,14:22:16,NA,incomplete,35,shape,0,left,Red_Circle_Dots_1.jpg,Green_Circle_Grid_4.jpg,Purple_Triangle_Dots_2.jpg,left,611.8500000011409,true,NA,true
1H5laj5o,372ages0j7iqu68t52ou18jnn9hxrx,3awetudc9654tm3j7zn89luyu9gizy,1H5laj5o,2020-0188,2020-05-21,14:02:29,14:22:16,NA,incomplete,36,shape,1,left,Green_Star_Stripes_1.jpg,Purple_Star_Dots_4.jpg,Red_Triangle_Stripes_3.jpg,left,660.1300000038464,true,NA,true
1H5laj5o,372ages0j7iqu68t52ou18jnn9hxrx,3awetudc9654tm3j7zn89luyu9gizy,1H5laj5o,2020-0188,2020-05-21,14:02:29,14:22:16,NA,incomplete,37,shape,1,right,Purple_Plus_Grid_2.jpg,Blue_Triangle_Grid_1.jpg,Green_Plus_Chess_4.jpg,right,753.0700000061188,true,NA,true
1H5laj5o,372ages0j7iqu68t52ou18jnn9hxrx,3awetudc9654tm3j7zn89luyu9gizy,1H5laj5o,2020-0188,2020-05-21,14:02:29,14:22:16,NA,incomplete,38,shape,1,left,Blue_Triangle_Stripes_1.jpg,Green_Triangle_Grid_2.jpg,Purple_Circle_Stripes_3.jpg,left,593.0000000080327,true,NA,true
1H5laj5o,372ages0j7iqu68t52ou18jnn9hxrx,3awetudc9654tm3j7zn89luyu9gizy,1H5laj5o,2020-0188,2020-05-21,14:02:29,14:22:16,NA,incomplete,39,shape,1,left,Purple_Triangle_Grid_3.jpg,Blue_Triangle_Chess_1.jpg,Green_Plus_Grid_4.jpg,left,645.989999989979,true,NA,true
1H5laj5o,372ages0j7iqu68t52ou18jnn9hxrx,3awetudc9654tm3j7zn89luyu9gizy,1H5laj5o,2020-0188,2020-05-21,14:02:29,14:22:16,NA,incomplete,0,filling,1,left,Red_Plus_Chess_4.jpg,Blue_Triangle_Chess_2.jpg,Purple_Plus_Dots_1.jpg,right,1164.0400000032969,false,low,false
1H5laj5o,372ages0j7iqu68t52ou18jnn9hxrx,3awetudc9654tm3j7zn89luyu9gizy,1H5laj5o,2020-0188,2020-05-21,14:02:29,14:22:16,NA,incomplete,1,filling,1,right,Green_Circle_Stripes_3.jpg,Red_Circle_Dots_1.jpg,Purple_Triangle_Stripes_2.jpg,left,779.6499999967637,false,low,false
1H5laj5o,372ages0j7iqu68t52ou18jnn9hxrx,3awetudc9654tm3j7zn89luyu9gizy,1H5laj5o,2020-0188,2020-05-21,14:02:29,14:22:16,NA,incomplete,2,filling,0,left,Green_Circle_Chess_1.jpg,Blue_Star_Chess_2.jpg,Red_Circle_Dots_3.jpg,left,928.2100000127684,true,low,false
1H5laj5o,372ages0j7iqu68t52ou18jnn9hxrx,3awetudc9654tm3j7zn89luyu9gizy,1H5laj5o,2020-0188,2020-05-21,14:02:29,14:22:16,NA,incomplete,3,filling,1,right,Purple_Star_Chess_2.jpg,Green_Star_Grid_3.jpg,Red_Plus_Chess_4.jpg,right,1205.7150000036927,true,low,false
1H5laj5o,372ages0j7iqu68t52ou18jnn9hxrx,3awetudc9654tm3j7zn89luyu9gizy,1H5laj5o,2020-0188,2020-05-21,14:02:29,14:22:16,NA,incomplete,4,filling,1,right,Green_Plus_Stripes_1.jpg,Red_Plus_Dots_4.jpg,Blue_Circle_Stripes_2.jpg,right,1013.3700000005774,true,low,false
1H5laj5o,372ages0j7iqu68t52ou18jnn9hxrx,3awetudc9654tm3j7zn89luyu9gizy,1H5laj5o,2020-0188,2020-05-21,14:02:29,14:22:16,NA,incomplete,5,filling,0,left,Purple_Circle_Chess_1.jpg,Blue_Triangle_Chess_4.jpg,Red_Circle_Grid_2.jpg,left,966.6199999919627,true,low,false
1H5laj5o,372ages0j7iqu68t52ou18jnn9hxrx,3awetudc9654tm3j7zn89luyu9gizy,1H5laj5o,2020-0188,2020-05-21,14:02:29,14:22:16,NA,incomplete,6,filling,1,right,Red_Star_Chess_1.jpg,Blue_Star_Grid_3.jpg,Green_Plus_Chess_4.jpg,right,975.3999999957159,true,low,false
1H5laj5o,372ages0j7iqu68t52ou18jnn9hxrx,3awetudc9654tm3j7zn89luyu9gizy,1H5laj5o,2020-0188,2020-05-21,14:02:29,14:22:16,NA,incomplete,7,filling,1,left,Red_Plus_Grid_2.jpg,Green_Circle_Grid_3.jpg,Purple_Plus_Stripes_4.jpg,left,1399.0849999972852,true,low,false
1H5laj5o,372ages0j7iqu68t52ou18jnn9hxrx,3awetudc9654tm3j7zn89luyu9gizy,1H5laj5o,2020-0188,2020-05-21,14:02:29,14:22:16,NA,incomplete,8,filling,1,right,Green_Star_Stripes_4.jpg,Purple_Star_Chess_3.jpg,Red_Triangle_Stripes_1.jpg,right,992.7400000015041,true,low,false
1H5laj5o,372ages0j7iqu68t52ou18jnn9hxrx,3awetudc9654tm3j7zn89luyu9gizy,1H5laj5o,2020-0188,2020-05-21,14:02:29,14:22:16,NA,incomplete,9,filling,1,right,Blue_Star_Grid_2.jpg,Red_Star_Chess_3.jpg,Purple_Plus_Grid_1.jpg,right,1184.0999999985797,true,low,false
1H5laj5o,372ages0j7iqu68t52ou18jnn9hxrx,3awetudc9654tm3j7zn89luyu9gizy,1H5laj5o,2020-0188,2020-05-21,14:02:29,14:22:16,NA,incomplete,10,filling,1,right,Red_Plus_Chess_1.jpg,Blue_Plus_Dots_2.jpg,Green_Star_Chess_3.jpg,right,1003.3750000002328,true,low,false
1H5laj5o,372ages0j7iqu68t52ou18jnn9hxrx,3awetudc9654tm3j7zn89luyu9gizy,1H5laj5o,2020-0188,2020-05-21,14:02:29,14:22:16,NA,incomplete,11,filling,1,left,Purple_Star_Dots_3.jpg,Green_Circle_Dots_1.jpg,Blue_Star_Stripes_4.jpg,left,1161.5149999997811,true,low,false
1H5laj5o,372ages0j7iqu68t52ou18jnn9hxrx,3awetudc9654tm3j7zn89luyu9gizy,1H5laj5o,2020-0188,2020-05-21,14:02:29,14:22:16,NA,incomplete,12,filling,1,right,Purple_Star_Grid_4.jpg,Blue_Star_Chess_1.jpg,Green_Circle_Grid_3.jpg,right,1300.7150000048568,true,low,false
1H5laj5o,372ages0j7iqu68t52ou18jnn9hxrx,3awetudc9654tm3j7zn89luyu9gizy,1H5laj5o,2020-0188,2020-05-21,14:02:29,14:22:16,NA,incomplete,13,filling,1,right,Blue_Triangle_Dots_1.jpg,Purple_Triangle_Stripes_4.jpg,Green_Plus_Dots_2.jpg,right,951.5799999935552,true,low,false
1H5laj5o,372ages0j7iqu68t52ou18jnn9hxrx,3awetudc9654tm3j7zn89luyu9gizy,1H5laj5o,2020-0188,2020-05-21,14:02:29,14:22:16,NA,incomplete,14,filling,1,left,Purple_Triangle_Grid_1.jpg,Red_Plus_Grid_2.jpg,Blue_Triangle_Stripes_3.jpg,left,1064.0999999886844,true,low,false
1H5laj5o,372ages0j7iqu68t52ou18jnn9hxrx,3awetudc9654tm3j7zn89luyu9gizy,1H5laj5o,2020-0188,2020-05-21,14:02:29,14:22:16,NA,incomplete,15,filling,1,right,Purple_Plus_Stripes_1.jpg,Green_Plus_Chess_3.jpg,Blue_Star_Stripes_2.jpg,right,872.5299999932759,true,low,false
1H5laj5o,372ages0j7iqu68t52ou18jnn9hxrx,3awetudc9654tm3j7zn89luyu9gizy,1H5laj5o,2020-0188,2020-05-21,14:02:29,14:22:16,NA,incomplete,16,filling,1,left,Green_Plus_Dots_1.jpg,Blue_Circle_Dots_3.jpg,Purple_Plus_Stripes_4.jpg,left,881.680000005872,true,low,false
1H5laj5o,372ages0j7iqu68t52ou18jnn9hxrx,3awetudc9654tm3j7zn89luyu9gizy,1H5laj5o,2020-0188,2020-05-21,14:02:29,14:22:16,NA,incomplete,17,filling,1,right,Purple_Star_Stripes_3.jpg,Red_Star_Chess_1.jpg,Green_Circle_Stripes_2.jpg,right,929.9749999918276,true,low,false
1H5laj5o,372ages0j7iqu68t52ou18jnn9hxrx,3awetudc9654tm3j7zn89luyu9gizy,1H5laj5o,2020-0188,2020-05-21,14:02:29,14:22:16,NA,incomplete,18,filling,0,left,Red_Circle_Stripes_3.jpg,Blue_Plus_Stripes_1.jpg,Green_Circle_Chess_4.jpg,left,991.2699999986216,true,low,false
1H5laj5o,372ages0j7iqu68t52ou18jnn9hxrx,3awetudc9654tm3j7zn89luyu9gizy,1H5laj5o,2020-0188,2020-05-21,14:02:29,14:22:16,NA,incomplete,19,filling,1,right,Blue_Circle_Chess_2.jpg,Green_Circle_Dots_3.jpg,Red_Triangle_Chess_1.jpg,right,956.2900000018999,true,low,false
1H5laj5o,372ages0j7iqu68t52ou18jnn9hxrx,3awetudc9654tm3j7zn89luyu9gizy,1H5laj5o,2020-0188,2020-05-21,14:02:29,14:22:16,NA,incomplete,20,filling,1,right,Blue_Star_Chess_4.jpg,Red_Star_Dots_2.jpg,Green_Circle_Chess_1.jpg,right,1258.6350000055972,true,low,false
1H5laj5o,372ages0j7iqu68t52ou18jnn9hxrx,3awetudc9654tm3j7zn89luyu9gizy,1H5laj5o,2020-0188,2020-05-21,14:02:29,14:22:16,NA,incomplete,21,filling,1,left,Purple_Triangle_Dots_3.jpg,Red_Plus_Dots_2.jpg,Blue_Triangle_Grid_1.jpg,left,1047.5700000097277,true,low,false
1H5laj5o,372ages0j7iqu68t52ou18jnn9hxrx,3awetudc9654tm3j7zn89luyu9gizy,1H5laj5o,2020-0188,2020-05-21,14:02:29,14:22:16,NA,incomplete,22,filling,0,left,Red_Triangle_Dots_3.jpg,Green_Star_Dots_2.jpg,Purple_Triangle_Stripes_1.jpg,left,1016.1349999980303,true,low,false
1H5laj5o,372ages0j7iqu68t52ou18jnn9hxrx,3awetudc9654tm3j7zn89luyu9gizy,1H5laj5o,2020-0188,2020-05-21,14:02:29,14:22:16,NA,incomplete,23,filling,1,left,Blue_Star_Dots_4.jpg,Green_Plus_Dots_1.jpg,Purple_Star_Grid_2.jpg,left,1069.3699999974342,true,low,false
1H5laj5o,372ages0j7iqu68t52ou18jnn9hxrx,3awetudc9654tm3j7zn89luyu9gizy,1H5laj5o,2020-0188,2020-05-21,14:02:29,14:22:16,NA,incomplete,24,filling,0,left,Red_Star_Stripes_3.jpg,Purple_Circle_Stripes_2.jpg,Green_Star_Chess_1.jpg,left,887.4649999925168,true,low,false
1H5laj5o,372ages0j7iqu68t52ou18jnn9hxrx,3awetudc9654tm3j7zn89luyu9gizy,1H5laj5o,2020-0188,2020-05-21,14:02:29,14:22:16,NA,incomplete,25,filling,1,right,Purple_Plus_Chess_3.jpg,Green_Plus_Grid_4.jpg,Blue_Triangle_Chess_1.jpg,right,979.3750000098953,true,low,false
1H5laj5o,372ages0j7iqu68t52ou18jnn9hxrx,3awetudc9654tm3j7zn89luyu9gizy,1H5laj5o,2020-0188,2020-05-21,14:02:29,14:22:16,NA,incomplete,26,filling,1,left,Red_Triangle_Stripes_1.jpg,Green_Circle_Stripes_2.jpg,Purple_Triangle_Chess_3.jpg,left,844.3899999983842,true,low,false
1H5laj5o,372ages0j7iqu68t52ou18jnn9hxrx,3awetudc9654tm3j7zn89luyu9gizy,1H5laj5o,2020-0188,2020-05-21,14:02:29,14:22:16,NA,incomplete,27,filling,0,left,Red_Triangle_Dots_1.jpg,Purple_Star_Dots_2.jpg,Blue_Triangle_Stripes_4.jpg,left,869.474999999511,true,low,false
1H5laj5o,372ages0j7iqu68t52ou18jnn9hxrx,3awetudc9654tm3j7zn89luyu9gizy,1H5laj5o,2020-0188,2020-05-21,14:02:29,14:22:16,NA,incomplete,28,filling,1,right,Blue_Triangle_Grid_1.jpg,Purple_Triangle_Stripes_3.jpg,Green_Plus_Grid_2.jpg,right,1101.4949999953387,true,low,false
1H5laj5o,372ages0j7iqu68t52ou18jnn9hxrx,3awetudc9654tm3j7zn89luyu9gizy,1H5laj5o,2020-0188,2020-05-21,14:02:29,14:22:16,NA,incomplete,29,filling,1,right,Green_Circle_Grid_3.jpg,Blue_Circle_Dots_4.jpg,Purple_Plus_Grid_1.jpg,right,933.9450000115903,true,low,false
1H5laj5o,372ages0j7iqu68t52ou18jnn9hxrx,3awetudc9654tm3j7zn89luyu9gizy,1H5laj5o,2020-0188,2020-05-21,14:02:29,14:22:16,NA,incomplete,30,shape,1,left,Blue_Plus_Grid_4.jpg,Purple_Plus_Stripes_3.jpg,Green_Triangle_Grid_1.jpg,right,1052.4600000062492,false,low,false
1H5laj5o,372ages0j7iqu68t52ou18jnn9hxrx,3awetudc9654tm3j7zn89luyu9gizy,1H5laj5o,2020-0188,2020-05-21,14:02:29,14:22:16,NA,incomplete,31,shape,1,left,Purple_Triangle_Grid_3.jpg,Red_Triangle_Dots_4.jpg,Blue_Circle_Grid_2.jpg,right,949.8149999999441,false,low,false
1H5laj5o,372ages0j7iqu68t52ou18jnn9hxrx,3awetudc9654tm3j7zn89luyu9gizy,1H5laj5o,2020-0188,2020-05-21,14:02:29,14:22:16,NA,incomplete,32,shape,1,right,Green_Triangle_Chess_2.jpg,Red_Plus_Chess_1.jpg,Blue_Triangle_Stripes_3.jpg,right,847.7300000085961,true,low,false
1H5laj5o,372ages0j7iqu68t52ou18jnn9hxrx,3awetudc9654tm3j7zn89luyu9gizy,1H5laj5o,2020-0188,2020-05-21,14:02:29,14:22:16,NA,incomplete,33,shape,0,right,Purple_Star_Chess_4.jpg,Green_Plus_Chess_2.jpg,Red_Star_Grid_1.jpg,right,875.0299999956042,true,low,false
1H5laj5o,372ages0j7iqu68t52ou18jnn9hxrx,3awetudc9654tm3j7zn89luyu9gizy,1H5laj5o,2020-0188,2020-05-21,14:02:29,14:22:16,NA,incomplete,34,shape,1,left,Green_Plus_Stripes_2.jpg,Purple_Plus_Dots_1.jpg,Red_Circle_Stripes_3.jpg,right,1188.5550000006333,false,low,false
1H5laj5o,372ages0j7iqu68t52ou18jnn9hxrx,3awetudc9654tm3j7zn89luyu9gizy,1H5laj5o,2020-0188,2020-05-21,14:02:29,14:22:16,NA,incomplete,35,shape,1,right,Purple_Triangle_Dots_3.jpg,Red_Star_Dots_1.jpg,Green_Triangle_Stripes_4.jpg,left,974.7050000005402,false,low,false
1H5laj5o,372ages0j7iqu68t52ou18jnn9hxrx,3awetudc9654tm3j7zn89luyu9gizy,1H5laj5o,2020-0188,2020-05-21,14:02:29,14:22:16,NA,incomplete,36,shape,0,left,Green_Circle_Chess_3.jpg,Red_Circle_Stripes_2.jpg,Purple_Star_Chess_4.jpg,right,1028.4099999989849,false,low,false
1H5laj5o,372ages0j7iqu68t52ou18jnn9hxrx,3awetudc9654tm3j7zn89luyu9gizy,1H5laj5o,2020-0188,2020-05-21,14:02:29,14:22:16,NA,incomplete,37,shape,1,right,Red_Star_Dots_4.jpg,Blue_Circle_Dots_1.jpg,Green_Star_Grid_3.jpg,left,906.8849999894155,false,low,false
1H5laj5o,372ages0j7iqu68t52ou18jnn9hxrx,3awetudc9654tm3j7zn89luyu9gizy,1H5laj5o,2020-0188,2020-05-21,14:02:29,14:22:16,NA,incomplete,38,shape,1,left,Green_Plus_Chess_3.jpg,Red_Plus_Dots_2.jpg,Purple_Circle_Chess_4.jpg,right,997.944999995525,false,low,false
1H5laj5o,372ages0j7iqu68t52ou18jnn9hxrx,3awetudc9654tm3j7zn89luyu9gizy,1H5laj5o,2020-0188,2020-05-21,14:02:29,14:22:16,NA,incomplete,39,shape,1,left,Green_Triangle_Grid_1.jpg,Purple_Triangle_Dots_3.jpg,Red_Plus_Grid_2.jpg,left,653.6349999951199,true,low,false
1H5laj5o,372ages0j7iqu68t52ou18jnn9hxrx,3awetudc9654tm3j7zn89luyu9gizy,1H5laj5o,2020-0188,2020-05-21,14:02:29,14:22:16,NA,incomplete,40,shape,1,left,Red_Triangle_Chess_1.jpg,Blue_Triangle_Dots_3.jpg,Purple_Circle_Chess_4.jpg,left,1052.5250000064261,true,low,false
1H5laj5o,372ages0j7iqu68t52ou18jnn9hxrx,3awetudc9654tm3j7zn89luyu9gizy,1H5laj5o,2020-0188,2020-05-21,14:02:29,14:22:16,NA,incomplete,41,shape,1,right,Red_Star_Chess_4.jpg,Blue_Circle_Chess_1.jpg,Purple_Star_Stripes_2.jpg,right,709.709999995539,true,low,false
1H5laj5o,372ages0j7iqu68t52ou18jnn9hxrx,3awetudc9654tm3j7zn89luyu9gizy,1H5laj5o,2020-0188,2020-05-21,14:02:29,14:22:16,NA,incomplete,42,shape,1,left,Purple_Plus_Stripes_3.jpg,Green_Plus_Chess_2.jpg,Blue_Star_Stripes_1.jpg,left,759.1450000036275,true,low,false
1H5laj5o,372ages0j7iqu68t52ou18jnn9hxrx,3awetudc9654tm3j7zn89luyu9gizy,1H5laj5o,2020-0188,2020-05-21,14:02:29,14:22:16,NA,incomplete,43,shape,1,right,Blue_Plus_Grid_4.jpg,Red_Circle_Grid_2.jpg,Green_Plus_Stripes_3.jpg,right,882.0549999945797,true,low,false
1H5laj5o,372ages0j7iqu68t52ou18jnn9hxrx,3awetudc9654tm3j7zn89luyu9gizy,1H5laj5o,2020-0188,2020-05-21,14:02:29,14:22:16,NA,incomplete,44,shape,1,right,Blue_Triangle_Dots_2.jpg,Green_Star_Dots_1.jpg,Red_Triangle_Grid_3.jpg,right,749.4250000017928,true,low,false
1H5laj5o,372ages0j7iqu68t52ou18jnn9hxrx,3awetudc9654tm3j7zn89luyu9gizy,1H5laj5o,2020-0188,2020-05-21,14:02:29,14:22:16,NA,incomplete,45,shape,1,left,Green_Star_Dots_3.jpg,Red_Star_Stripes_1.jpg,Blue_Plus_Dots_4.jpg,left,738.790000003064,true,low,false
1H5laj5o,372ages0j7iqu68t52ou18jnn9hxrx,3awetudc9654tm3j7zn89luyu9gizy,1H5laj5o,2020-0188,2020-05-21,14:02:29,14:22:16,NA,incomplete,46,shape,1,left,Green_Plus_Grid_2.jpg,Purple_Plus_Chess_4.jpg,Blue_Triangle_Grid_3.jpg,left,882.6950000075158,true,low,false
1H5laj5o,372ages0j7iqu68t52ou18jnn9hxrx,3awetudc9654tm3j7zn89luyu9gizy,1H5laj5o,2020-0188,2020-05-21,14:02:29,14:22:16,NA,incomplete,47,shape,1,left,Green_Star_Chess_2.jpg,Red_Star_Grid_3.jpg,Purple_Plus_Chess_1.jpg,left,809.529999998631,true,low,false
1H5laj5o,372ages0j7iqu68t52ou18jnn9hxrx,3awetudc9654tm3j7zn89luyu9gizy,1H5laj5o,2020-0188,2020-05-21,14:02:29,14:22:16,NA,incomplete,48,shape,1,left,Green_Circle_Stripes_4.jpg,Red_Circle_Grid_3.jpg,Blue_Triangle_Stripes_2.jpg,left,744.1200000030221,true,low,false
1H5laj5o,372ages0j7iqu68t52ou18jnn9hxrx,3awetudc9654tm3j7zn89luyu9gizy,1H5laj5o,2020-0188,2020-05-21,14:02:29,14:22:16,NA,incomplete,49,shape,0,right,Blue_Star_Stripes_2.jpg,Red_Plus_Stripes_4.jpg,Purple_Star_Dots_1.jpg,right,685.8050000009825,true,low,false
1H5laj5o,372ages0j7iqu68t52ou18jnn9hxrx,3awetudc9654tm3j7zn89luyu9gizy,1H5laj5o,2020-0188,2020-05-21,14:02:29,14:22:16,NA,incomplete,50,shape,1,left,Red_Plus_Chess_3.jpg,Blue_Plus_Grid_2.jpg,Purple_Star_Chess_1.jpg,left,658.5449999984121,true,low,false
1H5laj5o,372ages0j7iqu68t52ou18jnn9hxrx,3awetudc9654tm3j7zn89luyu9gizy,1H5laj5o,2020-0188,2020-05-21,14:02:29,14:22:16,NA,incomplete,51,shape,0,right,Blue_Triangle_Chess_4.jpg,Green_Plus_Chess_2.jpg,Red_Triangle_Stripes_3.jpg,right,644.0849999926286,true,low,false
1H5laj5o,372ages0j7iqu68t52ou18jnn9hxrx,3awetudc9654tm3j7zn89luyu9gizy,1H5laj5o,2020-0188,2020-05-21,14:02:29,14:22:16,NA,incomplete,52,shape,1,left,Blue_Plus_Grid_2.jpg,Red_Plus_Chess_3.jpg,Green_Circle_Grid_1.jpg,left,626.2550000101328,true,low,false
1H5laj5o,372ages0j7iqu68t52ou18jnn9hxrx,3awetudc9654tm3j7zn89luyu9gizy,1H5laj5o,2020-0188,2020-05-21,14:02:29,14:22:16,NA,incomplete,53,shape,1,left,Blue_Plus_Chess_2.jpg,Green_Plus_Dots_1.jpg,Purple_Star_Chess_3.jpg,left,844.7149999992689,true,low,false
1H5laj5o,372ages0j7iqu68t52ou18jnn9hxrx,3awetudc9654tm3j7zn89luyu9gizy,1H5laj5o,2020-0188,2020-05-21,14:02:29,14:22:16,NA,incomplete,54,shape,1,right,Purple_Star_Grid_1.jpg,Green_Circle_Grid_3.jpg,Blue_Star_Chess_2.jpg,right,666.5749999956461,true,low,false
1H5laj5o,372ages0j7iqu68t52ou18jnn9hxrx,3awetudc9654tm3j7zn89luyu9gizy,1H5laj5o,2020-0188,2020-05-21,14:02:29,14:22:16,NA,incomplete,55,shape,1,right,Green_Star_Chess_4.jpg,Blue_Circle_Chess_1.jpg,Purple_Star_Dots_3.jpg,right,665.1399999973364,true,low,false
1H5laj5o,372ages0j7iqu68t52ou18jnn9hxrx,3awetudc9654tm3j7zn89luyu9gizy,1H5laj5o,2020-0188,2020-05-21,14:02:29,14:22:16,NA,incomplete,56,shape,0,right,Red_Star_Chess_1.jpg,Green_Circle_Chess_3.jpg,Purple_Star_Dots_4.jpg,right,708.3850000053644,true,low,false
1H5laj5o,372ages0j7iqu68t52ou18jnn9hxrx,3awetudc9654tm3j7zn89luyu9gizy,1H5laj5o,2020-0188,2020-05-21,14:02:29,14:22:16,NA,incomplete,57,shape,1,left,Blue_Star_Chess_4.jpg,Red_Star_Stripes_1.jpg,Green_Circle_Chess_2.jpg,left,676.4050000056159,true,low,false
1H5laj5o,372ages0j7iqu68t52ou18jnn9hxrx,3awetudc9654tm3j7zn89luyu9gizy,1H5laj5o,2020-0188,2020-05-21,14:02:29,14:22:16,NA,incomplete,58,shape,0,right,Purple_Plus_Dots_4.jpg,Red_Triangle_Dots_2.jpg,Blue_Plus_Chess_3.jpg,right,748.8699999958044,true,low,false
1H5laj5o,372ages0j7iqu68t52ou18jnn9hxrx,3awetudc9654tm3j7zn89luyu9gizy,1H5laj5o,2020-0188,2020-05-21,14:02:29,14:22:16,NA,incomplete,59,shape,1,right,Purple_Triangle_Chess_2.jpg,Green_Star_Chess_3.jpg,Blue_Triangle_Grid_1.jpg,left,978.914999999688,false,low,false
1H5laj5o,372ages0j7iqu68t52ou18jnn9hxrx,3awetudc9654tm3j7zn89luyu9gizy,1H5laj5o,2020-0188,2020-05-21,14:02:29,14:22:16,NA,incomplete,60,filling,0,left,Green_Plus_Stripes_2.jpg,Purple_Star_Stripes_4.jpg,Blue_Plus_Grid_3.jpg,left,942.2199999971781,true,low,false
1H5laj5o,372ages0j7iqu68t52ou18jnn9hxrx,3awetudc9654tm3j7zn89luyu9gizy,1H5laj5o,2020-0188,2020-05-21,14:02:29,14:22:16,NA,incomplete,61,filling,1,left,Green_Plus_Chess_3.jpg,Red_Circle_Chess_2.jpg,Blue_Plus_Stripes_4.jpg,right,915.64500000095,false,low,false
1H5laj5o,372ages0j7iqu68t52ou18jnn9hxrx,3awetudc9654tm3j7zn89luyu9gizy,1H5laj5o,2020-0188,2020-05-21,14:02:29,14:22:16,NA,incomplete,62,filling,1,right,Red_Star_Grid_2.jpg,Purple_Star_Chess_1.jpg,Blue_Circle_Grid_3.jpg,left,711.8100000079721,false,low,false
1H5laj5o,372ages0j7iqu68t52ou18jnn9hxrx,3awetudc9654tm3j7zn89luyu9gizy,1H5laj5o,2020-0188,2020-05-21,14:02:29,14:22:16,NA,incomplete,63,filling,0,left,Blue_Circle_Stripes_3.jpg,Green_Triangle_Stripes_4.jpg,Red_Circle_Dots_1.jpg,left,837.2700000036275,true,low,false
1H5laj5o,372ages0j7iqu68t52ou18jnn9hxrx,3awetudc9654tm3j7zn89luyu9gizy,1H5laj5o,2020-0188,2020-05-21,14:02:29,14:22:16,NA,incomplete,64,filling,1,right,Green_Plus_Dots_3.jpg,Purple_Plus_Stripes_1.jpg,Blue_Star_Dots_4.jpg,right,924.0199999912875,true,low,false
1H5laj5o,372ages0j7iqu68t52ou18jnn9hxrx,3awetudc9654tm3j7zn89luyu9gizy,1H5laj5o,2020-0188,2020-05-21,14:02:29,14:22:16,NA,incomplete,65,filling,1,left,Purple_Circle_Stripes_3.jpg,Blue_Star_Stripes_4.jpg,Red_Circle_Dots_1.jpg,left,790.1050000073155,true,low,false
1H5laj5o,372ages0j7iqu68t52ou18jnn9hxrx,3awetudc9654tm3j7zn89luyu9gizy,1H5laj5o,2020-0188,2020-05-21,14:02:29,14:22:16,NA,incomplete,66,filling,0,left,Red_Triangle_Stripes_1.jpg,Blue_Circle_Stripes_4.jpg,Purple_Triangle_Chess_2.jpg,left,914.5250000001397,true,low,false
1H5laj5o,372ages0j7iqu68t52ou18jnn9hxrx,3awetudc9654tm3j7zn89luyu9gizy,1H5laj5o,2020-0188,2020-05-21,14:02:29,14:22:16,NA,incomplete,67,filling,1,right,Green_Star_Grid_4.jpg,Purple_Star_Stripes_3.jpg,Blue_Triangle_Grid_1.jpg,right,884.8050000087824,true,low,false
1H5laj5o,372ages0j7iqu68t52ou18jnn9hxrx,3awetudc9654tm3j7zn89luyu9gizy,1H5laj5o,2020-0188,2020-05-21,14:02:29,14:22:16,NA,incomplete,68,filling,1,left,Blue_Plus_Stripes_1.jpg,Green_Star_Stripes_3.jpg,Red_Plus_Grid_2.jpg,left,991.2049999984447,true,low,false
1H5laj5o,372ages0j7iqu68t52ou18jnn9hxrx,3awetudc9654tm3j7zn89luyu9gizy,1H5laj5o,2020-0188,2020-05-21,14:02:29,14:22:16,NA,incomplete,69,filling,0,left,Purple_Circle_Stripes_4.jpg,Blue_Plus_Stripes_2.jpg,Green_Circle_Chess_3.jpg,left,896.6649999929359,true,low,false
1H5laj5o,372ages0j7iqu68t52ou18jnn9hxrx,3awetudc9654tm3j7zn89luyu9gizy,1H5laj5o,2020-0188,2020-05-21,14:02:29,14:22:16,NA,incomplete,70,filling,1,left,Green_Circle_Dots_4.jpg,Blue_Star_Dots_1.jpg,Red_Circle_Grid_2.jpg,left,873.3649999921909,true,low,false
1H5laj5o,372ages0j7iqu68t52ou18jnn9hxrx,3awetudc9654tm3j7zn89luyu9gizy,1H5laj5o,2020-0188,2020-05-21,14:02:29,14:22:16,NA,incomplete,71,filling,1,left,Purple_Circle_Chess_2.jpg,Green_Triangle_Chess_1.jpg,Blue_Circle_Stripes_3.jpg,left,873.8850000081584,true,low,false
1H5laj5o,372ages0j7iqu68t52ou18jnn9hxrx,3awetudc9654tm3j7zn89luyu9gizy,1H5laj5o,2020-0188,2020-05-21,14:02:29,14:22:16,NA,incomplete,72,filling,1,right,Purple_Circle_Dots_1.jpg,Green_Circle_Stripes_4.jpg,Blue_Plus_Dots_3.jpg,right,939.6949999936623,true,low,false
1H5laj5o,372ages0j7iqu68t52ou18jnn9hxrx,3awetudc9654tm3j7zn89luyu9gizy,1H5laj5o,2020-0188,2020-05-21,14:02:29,14:22:16,NA,incomplete,73,filling,1,right,Green_Circle_Dots_1.jpg,Purple_Circle_Grid_4.jpg,Blue_Triangle_Dots_3.jpg,right,784.1449999978067,true,low,false
1H5laj5o,372ages0j7iqu68t52ou18jnn9hxrx,3awetudc9654tm3j7zn89luyu9gizy,1H5laj5o,2020-0188,2020-05-21,14:02:29,14:22:16,NA,incomplete,74,filling,1,left,Red_Star_Dots_4.jpg,Purple_Triangle_Dots_2.jpg,Blue_Star_Stripes_1.jpg,left,1007.8149999899324,true,low,false
1H5laj5o,372ages0j7iqu68t52ou18jnn9hxrx,3awetudc9654tm3j7zn89luyu9gizy,1H5laj5o,2020-0188,2020-05-21,14:02:29,14:22:16,NA,incomplete,75,filling,1,right,Blue_Circle_Chess_4.jpg,Purple_Circle_Dots_2.jpg,Green_Triangle_Chess_1.jpg,right,832.9500000108965,true,low,false
1H5laj5o,372ages0j7iqu68t52ou18jnn9hxrx,3awetudc9654tm3j7zn89luyu9gizy,1H5laj5o,2020-0188,2020-05-21,14:02:29,14:22:16,NA,incomplete,76,filling,0,right,Green_Circle_Chess_4.jpg,Purple_Circle_Dots_3.jpg,Red_Plus_Chess_2.jpg,right,741.7900000000373,true,low,false
1H5laj5o,372ages0j7iqu68t52ou18jnn9hxrx,3awetudc9654tm3j7zn89luyu9gizy,1H5laj5o,2020-0188,2020-05-21,14:02:29,14:22:16,NA,incomplete,77,filling,1,right,Purple_Plus_Dots_2.jpg,Blue_Plus_Chess_4.jpg,Green_Triangle_Dots_1.jpg,right,942.9450000025099,true,low,false
1H5laj5o,372ages0j7iqu68t52ou18jnn9hxrx,3awetudc9654tm3j7zn89luyu9gizy,1H5laj5o,2020-0188,2020-05-21,14:02:29,14:22:16,NA,incomplete,78,filling,1,right,Red_Circle_Chess_4.jpg,Green_Circle_Grid_3.jpg,Blue_Plus_Chess_1.jpg,right,843.6099999962607,true,low,false
1H5laj5o,372ages0j7iqu68t52ou18jnn9hxrx,3awetudc9654tm3j7zn89luyu9gizy,1H5laj5o,2020-0188,2020-05-21,14:02:29,14:22:16,NA,incomplete,79,filling,1,right,Red_Circle_Stripes_3.jpg,Green_Circle_Grid_2.jpg,Purple_Triangle_Stripes_1.jpg,right,822.1849999972619,true,low,false
1H5laj5o,372ages0j7iqu68t52ou18jnn9hxrx,3awetudc9654tm3j7zn89luyu9gizy,1H5laj5o,2020-0188,2020-05-21,14:02:29,14:22:16,NA,incomplete,80,filling,1,right,Purple_Circle_Stripes_3.jpg,Red_Circle_Chess_1.jpg,Green_Star_Stripes_4.jpg,right,804.7899999946821,true,low,false
1H5laj5o,372ages0j7iqu68t52ou18jnn9hxrx,3awetudc9654tm3j7zn89luyu9gizy,1H5laj5o,2020-0188,2020-05-21,14:02:29,14:22:16,NA,incomplete,81,filling,1,left,Green_Star_Grid_4.jpg,Blue_Circle_Grid_2.jpg,Purple_Star_Dots_3.jpg,right,795.8999999973457,false,low,false
1H5laj5o,372ages0j7iqu68t52ou18jnn9hxrx,3awetudc9654tm3j7zn89luyu9gizy,1H5laj5o,2020-0188,2020-05-21,14:02:29,14:22:16,NA,incomplete,82,filling,0,right,Blue_Triangle_Dots_3.jpg,Green_Triangle_Stripes_2.jpg,Purple_Plus_Dots_4.jpg,right,951.2550000072224,true,low,false
1H5laj5o,372ages0j7iqu68t52ou18jnn9hxrx,3awetudc9654tm3j7zn89luyu9gizy,1H5laj5o,2020-0188,2020-05-21,14:02:29,14:22:16,NA,incomplete,83,filling,0,left,Red_Circle_Chess_2.jpg,Green_Star_Chess_1.jpg,Blue_Circle_Stripes_3.jpg,left,841.7550000012852,true,low,false
1H5laj5o,372ages0j7iqu68t52ou18jnn9hxrx,3awetudc9654tm3j7zn89luyu9gizy,1H5laj5o,2020-0188,2020-05-21,14:02:29,14:22:16,NA,incomplete,84,filling,0,right,Red_Triangle_Stripes_4.jpg,Purple_Triangle_Chess_3.jpg,Blue_Circle_Stripes_2.jpg,right,813.5049999982584,true,low,false
1H5laj5o,372ages0j7iqu68t52ou18jnn9hxrx,3awetudc9654tm3j7zn89luyu9gizy,1H5laj5o,2020-0188,2020-05-21,14:02:29,14:22:16,NA,incomplete,85,filling,1,right,Blue_Triangle_Grid_1.jpg,Red_Triangle_Stripes_3.jpg,Green_Plus_Grid_2.jpg,right,938.1450000073528,true,low,false
1H5laj5o,372ages0j7iqu68t52ou18jnn9hxrx,3awetudc9654tm3j7zn89luyu9gizy,1H5laj5o,2020-0188,2020-05-21,14:02:29,14:22:16,NA,incomplete,86,filling,1,left,Blue_Plus_Chess_3.jpg,Red_Triangle_Chess_2.jpg,Green_Plus_Stripes_1.jpg,left,889.2150000028778,true,low,false
1H5laj5o,372ages0j7iqu68t52ou18jnn9hxrx,3awetudc9654tm3j7zn89luyu9gizy,1H5laj5o,2020-0188,2020-05-21,14:02:29,14:22:16,NA,incomplete,87,filling,1,left,Purple_Star_Dots_4.jpg,Red_Plus_Dots_2.jpg,Green_Star_Stripes_3.jpg,right,885.3249999956461,false,low,false
1H5laj5o,372ages0j7iqu68t52ou18jnn9hxrx,3awetudc9654tm3j7zn89luyu9gizy,1H5laj5o,2020-0188,2020-05-21,14:02:29,14:22:16,NA,incomplete,88,filling,1,right,Red_Circle_Chess_2.jpg,Purple_Circle_Dots_1.jpg,Blue_Triangle_Chess_3.jpg,left,740.6000000046333,false,low,false
1H5laj5o,372ages0j7iqu68t52ou18jnn9hxrx,3awetudc9654tm3j7zn89luyu9gizy,1H5laj5o,2020-0188,2020-05-21,14:02:29,14:22:16,NA,incomplete,89,filling,1,right,Green_Plus_Chess_2.jpg,Blue_Plus_Grid_4.jpg,Red_Triangle_Chess_1.jpg,left,733.4100000007311,false,low,false
1H5laj5o,372ages0j7iqu68t52ou18jnn9hxrx,3awetudc9654tm3j7zn89luyu9gizy,1H5laj5o,2020-0188,2020-05-21,14:02:29,14:22:16,NA,incomplete,90,shape,1,left,Green_Plus_Stripes_1.jpg,Red_Plus_Chess_3.jpg,Blue_Triangle_Stripes_4.jpg,right,866.955000004964,false,low,false
1H5laj5o,372ages0j7iqu68t52ou18jnn9hxrx,3awetudc9654tm3j7zn89luyu9gizy,1H5laj5o,2020-0188,2020-05-21,14:02:29,14:22:16,NA,incomplete,91,shape,1,left,Purple_Circle_Dots_1.jpg,Green_Circle_Grid_4.jpg,Blue_Star_Dots_2.jpg,right,1055.7350000017323,false,low,false
1H5laj5o,372ages0j7iqu68t52ou18jnn9hxrx,3awetudc9654tm3j7zn89luyu9gizy,1H5laj5o,2020-0188,2020-05-21,14:02:29,14:22:16,NA,incomplete,92,shape,1,right,Blue_Triangle_Stripes_4.jpg,Green_Plus_Stripes_1.jpg,Red_Triangle_Grid_2.jpg,left,806.5999999962514,false,low,false
1H5laj5o,372ages0j7iqu68t52ou18jnn9hxrx,3awetudc9654tm3j7zn89luyu9gizy,1H5laj5o,2020-0188,2020-05-21,14:02:29,14:22:16,NA,incomplete,93,shape,1,right,Blue_Triangle_Grid_1.jpg,Red_Star_Grid_3.jpg,Purple_Triangle_Stripes_4.jpg,left,759.4600000011269,false,low,false
1H5laj5o,372ages0j7iqu68t52ou18jnn9hxrx,3awetudc9654tm3j7zn89luyu9gizy,1H5laj5o,2020-0188,2020-05-21,14:02:29,14:22:16,NA,incomplete,94,shape,0,right,Purple_Plus_Stripes_2.jpg,Green_Star_Stripes_3.jpg,Blue_Plus_Grid_4.jpg,right,692.285000011907,true,low,false
1H5laj5o,372ages0j7iqu68t52ou18jnn9hxrx,3awetudc9654tm3j7zn89luyu9gizy,1H5laj5o,2020-0188,2020-05-21,14:02:29,14:22:16,NA,incomplete,95,shape,1,right,Blue_Star_Chess_3.jpg,Purple_Triangle_Chess_4.jpg,Green_Star_Stripes_2.jpg,right,842.8649999987101,true,low,false
1H5laj5o,372ages0j7iqu68t52ou18jnn9hxrx,3awetudc9654tm3j7zn89luyu9gizy,1H5laj5o,2020-0188,2020-05-21,14:02:29,14:22:16,NA,incomplete,96,shape,1,left,Purple_Circle_Stripes_3.jpg,Green_Circle_Chess_2.jpg,Red_Triangle_Stripes_1.jpg,left,804.6699999977136,true,low,false
1H5laj5o,372ages0j7iqu68t52ou18jnn9hxrx,3awetudc9654tm3j7zn89luyu9gizy,1H5laj5o,2020-0188,2020-05-21,14:02:29,14:22:16,NA,incomplete,97,shape,1,left,Purple_Triangle_Dots_1.jpg,Red_Triangle_Stripes_4.jpg,Green_Plus_Dots_3.jpg,left,719.4200000085402,true,low,false
1H5laj5o,372ages0j7iqu68t52ou18jnn9hxrx,3awetudc9654tm3j7zn89luyu9gizy,1H5laj5o,2020-0188,2020-05-21,14:02:29,14:22:16,NA,incomplete,98,shape,1,left,Red_Triangle_Dots_4.jpg,Purple_Triangle_Chess_3.jpg,Green_Circle_Dots_1.jpg,left,560.4549999989104,true,low,false
1H5laj5o,372ages0j7iqu68t52ou18jnn9hxrx,3awetudc9654tm3j7zn89luyu9gizy,1H5laj5o,2020-0188,2020-05-21,14:02:29,14:22:16,NA,incomplete,99,shape,1,left,Green_Circle_Chess_1.jpg,Blue_Circle_Grid_3.jpg,Red_Plus_Chess_4.jpg,left,604.6499999938533,true,low,false
1H5laj5o,372ages0j7iqu68t52ou18jnn9hxrx,3awetudc9654tm3j7zn89luyu9gizy,1H5laj5o,2020-0188,2020-05-21,14:02:29,14:22:16,NA,incomplete,100,shape,1,right,Blue_Circle_Dots_2.jpg,Purple_Plus_Dots_4.jpg,Green_Circle_Grid_3.jpg,right,585.109999999986,true,low,false
1H5laj5o,372ages0j7iqu68t52ou18jnn9hxrx,3awetudc9654tm3j7zn89luyu9gizy,1H5laj5o,2020-0188,2020-05-21,14:02:29,14:22:16,NA,incomplete,101,shape,1,left,Red_Circle_Stripes_4.jpg,Green_Circle_Grid_3.jpg,Blue_Triangle_Stripes_2.jpg,left,631.5099999919767,true,low,false
1H5laj5o,372ages0j7iqu68t52ou18jnn9hxrx,3awetudc9654tm3j7zn89luyu9gizy,1H5laj5o,2020-0188,2020-05-21,14:02:29,14:22:16,NA,incomplete,102,shape,1,right,Blue_Triangle_Chess_4.jpg,Green_Plus_Chess_1.jpg,Purple_Triangle_Grid_3.jpg,right,551.2050000106683,true,low,false
1H5laj5o,372ages0j7iqu68t52ou18jnn9hxrx,3awetudc9654tm3j7zn89luyu9gizy,1H5laj5o,2020-0188,2020-05-21,14:02:29,14:22:16,NA,incomplete,103,shape,1,right,Green_Plus_Chess_1.jpg,Red_Star_Chess_2.jpg,Purple_Plus_Dots_4.jpg,right,801.8549999978859,true,low,false
1H5laj5o,372ages0j7iqu68t52ou18jnn9hxrx,3awetudc9654tm3j7zn89luyu9gizy,1H5laj5o,2020-0188,2020-05-21,14:02:29,14:22:16,NA,incomplete,104,shape,0,right,Red_Plus_Grid_4.jpg,Blue_Circle_Grid_1.jpg,Green_Plus_Dots_2.jpg,right,650.7649999985006,true,low,false
1H5laj5o,372ages0j7iqu68t52ou18jnn9hxrx,3awetudc9654tm3j7zn89luyu9gizy,1H5laj5o,2020-0188,2020-05-21,14:02:29,14:22:16,NA,incomplete,105,shape,1,right,Purple_Triangle_Stripes_3.jpg,Red_Circle_Stripes_1.jpg,Blue_Triangle_Grid_4.jpg,right,591.0500000027241,true,low,false
1H5laj5o,372ages0j7iqu68t52ou18jnn9hxrx,3awetudc9654tm3j7zn89luyu9gizy,1H5laj5o,2020-0188,2020-05-21,14:02:29,14:22:16,NA,incomplete,106,shape,1,left,Purple_Plus_Chess_2.jpg,Red_Plus_Stripes_4.jpg,Green_Circle_Chess_1.jpg,left,596.2799999979325,true,low,false
1H5laj5o,372ages0j7iqu68t52ou18jnn9hxrx,3awetudc9654tm3j7zn89luyu9gizy,1H5laj5o,2020-0188,2020-05-21,14:02:29,14:22:16,NA,incomplete,107,shape,1,right,Purple_Plus_Stripes_2.jpg,Blue_Star_Stripes_1.jpg,Green_Plus_Grid_3.jpg,right,582.3700000037206,true,low,false
1H5laj5o,372ages0j7iqu68t52ou18jnn9hxrx,3awetudc9654tm3j7zn89luyu9gizy,1H5laj5o,2020-0188,2020-05-21,14:02:29,14:22:16,NA,incomplete,108,shape,1,right,Red_Triangle_Dots_4.jpg,Purple_Circle_Dots_1.jpg,Blue_Triangle_Grid_3.jpg,right,544.5250000047963,true,low,false
1H5laj5o,372ages0j7iqu68t52ou18jnn9hxrx,3awetudc9654tm3j7zn89luyu9gizy,1H5laj5o,2020-0188,2020-05-21,14:02:29,14:22:16,NA,incomplete,109,shape,0,left,Purple_Circle_Dots_1.jpg,Red_Circle_Chess_2.jpg,Blue_Star_Dots_4.jpg,left,489.5249999972293,true,low,false
1H5laj5o,372ages0j7iqu68t52ou18jnn9hxrx,3awetudc9654tm3j7zn89luyu9gizy,1H5laj5o,2020-0188,2020-05-21,14:02:29,14:22:16,NA,incomplete,110,shape,0,right,Purple_Circle_Chess_2.jpg,Red_Triangle_Chess_3.jpg,Blue_Circle_Grid_4.jpg,right,744.1099999996368,true,low,false
1H5laj5o,372ages0j7iqu68t52ou18jnn9hxrx,3awetudc9654tm3j7zn89luyu9gizy,1H5laj5o,2020-0188,2020-05-21,14:02:29,14:22:16,NA,incomplete,111,shape,1,right,Purple_Plus_Dots_3.jpg,Blue_Circle_Dots_1.jpg,Red_Plus_Chess_4.jpg,right,638.745000003837,true,low,false
1H5laj5o,372ages0j7iqu68t52ou18jnn9hxrx,3awetudc9654tm3j7zn89luyu9gizy,1H5laj5o,2020-0188,2020-05-21,14:02:29,14:22:16,NA,incomplete,112,shape,1,left,Green_Plus_Chess_4.jpg,Purple_Plus_Dots_1.jpg,Red_Circle_Chess_3.jpg,left,644.12500000617,true,low,false
1H5laj5o,372ages0j7iqu68t52ou18jnn9hxrx,3awetudc9654tm3j7zn89luyu9gizy,1H5laj5o,2020-0188,2020-05-21,14:02:29,14:22:16,NA,incomplete,113,shape,1,right,Purple_Plus_Stripes_1.jpg,Blue_Triangle_Stripes_3.jpg,Red_Plus_Dots_4.jpg,right,812.7349999995204,true,low,false
1H5laj5o,372ages0j7iqu68t52ou18jnn9hxrx,3awetudc9654tm3j7zn89luyu9gizy,1H5laj5o,2020-0188,2020-05-21,14:02:29,14:22:16,NA,incomplete,114,shape,1,left,Purple_Triangle_Chess_2.jpg,Blue_Triangle_Grid_1.jpg,Red_Plus_Chess_4.jpg,left,731.5049999888288,true,low,false
1H5laj5o,372ages0j7iqu68t52ou18jnn9hxrx,3awetudc9654tm3j7zn89luyu9gizy,1H5laj5o,2020-0188,2020-05-21,14:02:29,14:22:16,NA,incomplete,115,shape,1,right,Red_Plus_Grid_3.jpg,Purple_Circle_Grid_4.jpg,Green_Plus_Chess_1.jpg,right,751.9299999985378,true,low,false
1H5laj5o,372ages0j7iqu68t52ou18jnn9hxrx,3awetudc9654tm3j7zn89luyu9gizy,1H5laj5o,2020-0188,2020-05-21,14:02:29,14:22:16,NA,incomplete,116,shape,1,right,Red_Star_Grid_1.jpg,Blue_Circle_Grid_2.jpg,Green_Star_Stripes_3.jpg,right,636.2950000038836,true,low,false
1H5laj5o,372ages0j7iqu68t52ou18jnn9hxrx,3awetudc9654tm3j7zn89luyu9gizy,1H5laj5o,2020-0188,2020-05-21,14:02:29,14:22:16,NA,incomplete,117,shape,1,left,Green_Triangle_Stripes_4.jpg,Red_Triangle_Chess_2.jpg,Blue_Star_Stripes_3.jpg,left,949.2750000063097,true,low,false
1H5laj5o,372ages0j7iqu68t52ou18jnn9hxrx,3awetudc9654tm3j7zn89luyu9gizy,1H5laj5o,2020-0188,2020-05-21,14:02:29,14:22:16,NA,incomplete,118,shape,1,left,Purple_Plus_Stripes_2.jpg,Blue_Plus_Grid_4.jpg,Green_Star_Stripes_3.jpg,left,638.9350000099512,true,low,false
1H5laj5o,372ages0j7iqu68t52ou18jnn9hxrx,3awetudc9654tm3j7zn89luyu9gizy,1H5laj5o,2020-0188,2020-05-21,14:02:29,14:22:16,NA,incomplete,119,shape,1,right,Red_Plus_Dots_3.jpg,Purple_Triangle_Dots_4.jpg,Blue_Plus_Grid_1.jpg,right,648.9449999935459,true,low,false
1H5laj5o,372ages0j7iqu68t52ou18jnn9hxrx,3awetudc9654tm3j7zn89luyu9gizy,1H5laj5o,2020-0188,2020-05-21,14:02:29,14:22:16,NA,incomplete,120,color,1,right,Purple_Plus_Grid_3.jpg,Blue_Circle_Stripes_3.jpg,Purple_Star_Dots_4.jpg,NA,NA,NA,low,false
1H5laj5o,372ages0j7iqu68t52ou18jnn9hxrx,3awetudc9654tm3j7zn89luyu9gizy,1H5laj5o,2020-0188,2020-05-21,14:02:29,14:22:16,NA,incomplete,121,color,1,left,Green_Plus_Stripes_3.jpg,Green_Circle_Chess_4.jpg,Blue_Star_Grid_3.jpg,left,934.6149999910267,true,low,false
1H5laj5o,372ages0j7iqu68t52ou18jnn9hxrx,3awetudc9654tm3j7zn89luyu9gizy,1H5laj5o,2020-0188,2020-05-21,14:02:29,14:22:16,NA,incomplete,122,color,1,left,Blue_Circle_Stripes_2.jpg,Blue_Plus_Dots_3.jpg,Red_Triangle_Grid_2.jpg,left,671.5899999981048,true,low,false
1H5laj5o,372ages0j7iqu68t52ou18jnn9hxrx,3awetudc9654tm3j7zn89luyu9gizy,1H5laj5o,2020-0188,2020-05-21,14:02:29,14:22:16,NA,incomplete,123,color,1,left,Red_Star_Grid_3.jpg,Red_Plus_Stripes_2.jpg,Purple_Triangle_Chess_3.jpg,left,667.2299999918323,true,low,false
1H5laj5o,372ages0j7iqu68t52ou18jnn9hxrx,3awetudc9654tm3j7zn89luyu9gizy,1H5laj5o,2020-0188,2020-05-21,14:02:29,14:22:16,NA,incomplete,124,color,0,right,Purple_Star_Chess_4.jpg,Green_Plus_Dots_4.jpg,Purple_Triangle_Stripes_1.jpg,right,540.4500000004191,true,low,false
1H5laj5o,372ages0j7iqu68t52ou18jnn9hxrx,3awetudc9654tm3j7zn89luyu9gizy,1H5laj5o,2020-0188,2020-05-21,14:02:29,14:22:16,NA,incomplete,125,color,1,left,Red_Plus_Grid_4.jpg,Red_Star_Dots_2.jpg,Green_Triangle_Stripes_4.jpg,left,529.7350000037113,true,low,false
1H5laj5o,372ages0j7iqu68t52ou18jnn9hxrx,3awetudc9654tm3j7zn89luyu9gizy,1H5laj5o,2020-0188,2020-05-21,14:02:29,14:22:16,NA,incomplete,126,color,1,right,Purple_Triangle_Dots_4.jpg,Green_Star_Grid_4.jpg,Purple_Plus_Chess_2.jpg,right,687.2500000026776,true,low,false
1H5laj5o,372ages0j7iqu68t52ou18jnn9hxrx,3awetudc9654tm3j7zn89luyu9gizy,1H5laj5o,2020-0188,2020-05-21,14:02:29,14:22:16,NA,incomplete,127,color,1,left,Blue_Plus_Chess_2.jpg,Blue_Circle_Dots_4.jpg,Red_Star_Grid_2.jpg,left,618.6350000061793,true,low,false
1H5laj5o,372ages0j7iqu68t52ou18jnn9hxrx,3awetudc9654tm3j7zn89luyu9gizy,1H5laj5o,2020-0188,2020-05-21,14:02:29,14:22:16,NA,incomplete,128,color,1,right,Purple_Plus_Dots_4.jpg,Green_Circle_Stripes_4.jpg,Purple_Triangle_Grid_3.jpg,right,548.175000003539,true,low,false
1H5laj5o,372ages0j7iqu68t52ou18jnn9hxrx,3awetudc9654tm3j7zn89luyu9gizy,1H5laj5o,2020-0188,2020-05-21,14:02:29,14:22:16,NA,incomplete,129,color,1,left,Green_Star_Stripes_3.jpg,Green_Triangle_Dots_1.jpg,Red_Plus_Grid_3.jpg,left,798.0049999896437,true,low,false
1H5laj5o,372ages0j7iqu68t52ou18jnn9hxrx,3awetudc9654tm3j7zn89luyu9gizy,1H5laj5o,2020-0188,2020-05-21,14:02:29,14:22:16,NA,incomplete,130,color,1,right,Red_Plus_Dots_3.jpg,Green_Triangle_Grid_3.jpg,Red_Star_Stripes_2.jpg,right,729.6749999950407,true,low,false
1H5laj5o,372ages0j7iqu68t52ou18jnn9hxrx,3awetudc9654tm3j7zn89luyu9gizy,1H5laj5o,2020-0188,2020-05-21,14:02:29,14:22:16,NA,incomplete,131,color,1,left,Red_Circle_Dots_3.jpg,Red_Triangle_Stripes_2.jpg,Purple_Plus_Chess_3.jpg,left,935.6350000016391,true,low,false
1H5laj5o,372ages0j7iqu68t52ou18jnn9hxrx,3awetudc9654tm3j7zn89luyu9gizy,1H5laj5o,2020-0188,2020-05-21,14:02:29,14:22:16,NA,incomplete,132,color,0,left,Purple_Triangle_Dots_4.jpg,Purple_Circle_Chess_3.jpg,Green_Plus_Grid_4.jpg,left,1142.585000008694,true,low,false
1H5laj5o,372ages0j7iqu68t52ou18jnn9hxrx,3awetudc9654tm3j7zn89luyu9gizy,1H5laj5o,2020-0188,2020-05-21,14:02:29,14:22:16,NA,incomplete,133,color,1,right,Purple_Circle_Chess_1.jpg,Blue_Plus_Grid_1.jpg,Purple_Triangle_Dots_2.jpg,right,1682.8050000040093,true,low,false
1H5laj5o,372ages0j7iqu68t52ou18jnn9hxrx,3awetudc9654tm3j7zn89luyu9gizy,1H5laj5o,2020-0188,2020-05-21,14:02:29,14:22:16,NA,incomplete,134,color,1,left,Purple_Star_Dots_3.jpg,Purple_Circle_Chess_1.jpg,Red_Plus_Stripes_3.jpg,none,0,false,low,false
1H5laj5o,372ages0j7iqu68t52ou18jnn9hxrx,3awetudc9654tm3j7zn89luyu9gizy,1H5laj5o,2020-0188,2020-05-21,14:02:29,14:22:16,NA,incomplete,135,color,1,right,Green_Star_Stripes_3.jpg,Red_Triangle_Grid_3.jpg,Green_Circle_Dots_2.jpg,right,1363.0950000078883,true,low,false
1H5laj5o,372ages0j7iqu68t52ou18jnn9hxrx,3awetudc9654tm3j7zn89luyu9gizy,1H5laj5o,2020-0188,2020-05-21,14:02:29,14:22:16,NA,incomplete,136,color,0,right,Blue_Circle_Grid_1.jpg,Purple_Plus_Stripes_1.jpg,Blue_Star_Dots_3.jpg,right,1077.2999999899184,true,low,false
1H5laj5o,372ages0j7iqu68t52ou18jnn9hxrx,3awetudc9654tm3j7zn89luyu9gizy,1H5laj5o,2020-0188,2020-05-21,14:02:29,14:22:16,NA,incomplete,137,color,1,right,Purple_Circle_Stripes_4.jpg,Red_Plus_Chess_4.jpg,Purple_Triangle_Grid_1.jpg,right,765.0750000029802,true,low,false
1H5laj5o,372ages0j7iqu68t52ou18jnn9hxrx,3awetudc9654tm3j7zn89luyu9gizy,1H5laj5o,2020-0188,2020-05-21,14:02:29,14:22:16,NA,incomplete,138,color,1,right,Blue_Plus_Stripes_3.jpg,Green_Circle_Dots_3.jpg,Blue_Star_Grid_4.jpg,right,810.9649999969406,true,low,false
1H5laj5o,372ages0j7iqu68t52ou18jnn9hxrx,3awetudc9654tm3j7zn89luyu9gizy,1H5laj5o,2020-0188,2020-05-21,14:02:29,14:22:16,NA,incomplete,139,color,1,right,Purple_Circle_Chess_4.jpg,Green_Plus_Grid_4.jpg,Purple_Triangle_Dots_2.jpg,right,1140.9699999931036,true,low,false
1H5laj5o,372ages0j7iqu68t52ou18jnn9hxrx,3awetudc9654tm3j7zn89luyu9gizy,1H5laj5o,2020-0188,2020-05-21,14:02:29,14:22:16,NA,incomplete,140,number,1,left,Green_Star_Grid_4.jpg,Blue_Triangle_Dots_4.jpg,Green_Plus_Chess_1.jpg,right,1514.3050000042422,false,low,false
1H5laj5o,372ages0j7iqu68t52ou18jnn9hxrx,3awetudc9654tm3j7zn89luyu9gizy,1H5laj5o,2020-0188,2020-05-21,14:02:29,14:22:16,NA,incomplete,141,number,1,left,Green_Plus_Dots_1.jpg,Purple_Circle_Stripes_1.jpg,Green_Triangle_Grid_2.jpg,right,568.1150000018533,false,low,false
1H5laj5o,372ages0j7iqu68t52ou18jnn9hxrx,3awetudc9654tm3j7zn89luyu9gizy,1H5laj5o,2020-0188,2020-05-21,14:02:29,14:22:16,NA,incomplete,142,number,1,left,Red_Triangle_Grid_1.jpg,Green_Star_Dots_1.jpg,Red_Circle_Stripes_3.jpg,none,0,false,low,false
1H5laj5o,372ages0j7iqu68t52ou18jnn9hxrx,3awetudc9654tm3j7zn89luyu9gizy,1H5laj5o,2020-0188,2020-05-21,14:02:29,14:22:16,NA,incomplete,143,number,1,left,Red_Circle_Chess_3.jpg,Green_Triangle_Dots_3.jpg,Red_Plus_Grid_2.jpg,left,1070.9550000028685,true,low,false
1H5laj5o,372ages0j7iqu68t52ou18jnn9hxrx,3awetudc9654tm3j7zn89luyu9gizy,1H5laj5o,2020-0188,2020-05-21,14:02:29,14:22:16,NA,incomplete,144,number,0,left,Purple_Star_Grid_4.jpg,Red_Plus_Dots_4.jpg,Purple_Circle_Chess_3.jpg,left,969.1049999964889,true,low,false
1H5laj5o,372ages0j7iqu68t52ou18jnn9hxrx,3awetudc9654tm3j7zn89luyu9gizy,1H5laj5o,2020-0188,2020-05-21,14:02:29,14:22:16,NA,incomplete,145,number,1,right,Purple_Plus_Chess_3.jpg,Purple_Triangle_Dots_1.jpg,Red_Circle_Stripes_3.jpg,right,907.8850000078091,true,low,false
1H5laj5o,372ages0j7iqu68t52ou18jnn9hxrx,3awetudc9654tm3j7zn89luyu9gizy,1H5laj5o,2020-0188,2020-05-21,14:02:29,14:22:16,NA,incomplete,146,number,1,left,Red_Plus_Chess_2.jpg,Purple_Star_Dots_2.jpg,Red_Triangle_Grid_1.jpg,left,935.7649999874411,true,low,false
1H5laj5o,372ages0j7iqu68t52ou18jnn9hxrx,3awetudc9654tm3j7zn89luyu9gizy,1H5laj5o,2020-0188,2020-05-21,14:02:29,14:22:16,NA,incomplete,147,number,1,left,Blue_Triangle_Chess_4.jpg,Green_Circle_Stripes_4.jpg,Blue_Plus_Dots_3.jpg,left,944.8299999930896,true,low,false
1H5laj5o,372ages0j7iqu68t52ou18jnn9hxrx,3awetudc9654tm3j7zn89luyu9gizy,1H5laj5o,2020-0188,2020-05-21,14:02:29,14:22:16,NA,incomplete,148,number,1,left,Blue_Star_Dots_3.jpg,Purple_Circle_Chess_3.jpg,Blue_Plus_Stripes_1.jpg,left,1009.250000002794,true,low,false
1H5laj5o,372ages0j7iqu68t52ou18jnn9hxrx,3awetudc9654tm3j7zn89luyu9gizy,1H5laj5o,2020-0188,2020-05-21,14:02:29,14:22:16,NA,incomplete,149,number,1,left,Green_Circle_Chess_3.jpg,Blue_Star_Grid_3.jpg,Green_Triangle_Dots_4.jpg,left,694.4450000009965,true,low,false
1H5laj5o,372ages0j7iqu68t52ou18jnn9hxrx,3awetudc9654tm3j7zn89luyu9gizy,1H5laj5o,2020-0188,2020-05-21,14:02:29,14:22:16,NA,incomplete,150,number,1,right,Purple_Circle_Grid_3.jpg,Purple_Star_Dots_1.jpg,Red_Triangle_Stripes_3.jpg,right,763.6050000000978,true,low,false
1H5laj5o,372ages0j7iqu68t52ou18jnn9hxrx,3awetudc9654tm3j7zn89luyu9gizy,1H5laj5o,2020-0188,2020-05-21,14:02:29,14:22:16,NA,incomplete,151,number,0,left,Green_Circle_Dots_2.jpg,Purple_Triangle_Grid_2.jpg,Green_Star_Chess_4.jpg,left,737.0099999970989,true,low,false
1H5laj5o,372ages0j7iqu68t52ou18jnn9hxrx,3awetudc9654tm3j7zn89luyu9gizy,1H5laj5o,2020-0188,2020-05-21,14:02:29,14:22:16,NA,incomplete,152,number,1,right,Purple_Triangle_Chess_3.jpg,Purple_Plus_Stripes_1.jpg,Red_Star_Dots_3.jpg,right,759.1600000014296,true,low,false
1H5laj5o,372ages0j7iqu68t52ou18jnn9hxrx,3awetudc9654tm3j7zn89luyu9gizy,1H5laj5o,2020-0188,2020-05-21,14:02:29,14:22:16,NA,incomplete,153,number,0,right,Red_Plus_Chess_2.jpg,Red_Star_Stripes_3.jpg,Purple_Triangle_Grid_2.jpg,left,993.3900000032736,false,low,false
1H5laj5o,372ages0j7iqu68t52ou18jnn9hxrx,3awetudc9654tm3j7zn89luyu9gizy,1H5laj5o,2020-0188,2020-05-21,14:02:29,14:22:16,NA,incomplete,154,number,1,right,Green_Plus_Chess_2.jpg,Green_Circle_Stripes_1.jpg,Red_Triangle_Dots_2.jpg,right,826.0399999999208,true,low,false
1H5laj5o,372ages0j7iqu68t52ou18jnn9hxrx,3awetudc9654tm3j7zn89luyu9gizy,1H5laj5o,2020-0188,2020-05-21,14:02:29,14:22:16,NA,incomplete,155,number,1,left,Blue_Plus_Stripes_2.jpg,Green_Star_Dots_2.jpg,Blue_Triangle_Grid_3.jpg,left,739.4249999924796,true,low,false
1H5laj5o,372ages0j7iqu68t52ou18jnn9hxrx,3awetudc9654tm3j7zn89luyu9gizy,1H5laj5o,2020-0188,2020-05-21,14:02:29,14:22:16,NA,incomplete,156,number,0,left,Purple_Star_Chess_1.jpg,Green_Plus_Dots_1.jpg,Purple_Circle_Stripes_3.jpg,left,1221.7600000003586,true,low,false
1H5laj5o,372ages0j7iqu68t52ou18jnn9hxrx,3awetudc9654tm3j7zn89luyu9gizy,1H5laj5o,2020-0188,2020-05-21,14:02:29,14:22:16,NA,incomplete,157,number,1,right,Red_Triangle_Grid_2.jpg,Red_Plus_Chess_1.jpg,Blue_Circle_Dots_2.jpg,right,1094.0249999985099,true,low,false
1H5laj5o,372ages0j7iqu68t52ou18jnn9hxrx,3awetudc9654tm3j7zn89luyu9gizy,1H5laj5o,2020-0188,2020-05-21,14:02:29,14:22:16,NA,incomplete,158,number,1,right,Purple_Plus_Dots_1.jpg,Purple_Triangle_Chess_2.jpg,Blue_Circle_Grid_1.jpg,left,1065.7550000032643,false,low,false
1H5laj5o,372ages0j7iqu68t52ou18jnn9hxrx,3awetudc9654tm3j7zn89luyu9gizy,1H5laj5o,2020-0188,2020-05-21,14:02:29,14:22:16,NA,incomplete,159,number,0,left,Green_Circle_Dots_1.jpg,Red_Star_Chess_1.jpg,Green_Triangle_Stripes_4.jpg,left,1083.5599999991246,true,low,false
1H5laj5o,372ages0j7iqu68t52ou18jnn9hxrx,3awetudc9654tm3j7zn89luyu9gizy,1H5laj5o,2020-0188,2020-05-21,14:02:29,14:22:16,NA,incomplete,160,color,1,right,Blue_Triangle_Grid_4.jpg,Purple_Plus_Stripes_4.jpg,Blue_Circle_Dots_3.jpg,left,983.6349999968661,false,low,false
1H5laj5o,372ages0j7iqu68t52ou18jnn9hxrx,3awetudc9654tm3j7zn89luyu9gizy,1H5laj5o,2020-0188,2020-05-21,14:02:29,14:22:16,NA,incomplete,161,color,1,left,Green_Star_Grid_1.jpg,Green_Circle_Dots_4.jpg,Blue_Plus_Stripes_1.jpg,right,801.6199999983655,false,low,false
1H5laj5o,372ages0j7iqu68t52ou18jnn9hxrx,3awetudc9654tm3j7zn89luyu9gizy,1H5laj5o,2020-0188,2020-05-21,14:02:29,14:22:16,NA,incomplete,162,color,0,left,Green_Plus_Dots_4.jpg,Green_Star_Grid_3.jpg,Red_Circle_Chess_4.jpg,right,1254.255000007106,false,low,false
1H5laj5o,372ages0j7iqu68t52ou18jnn9hxrx,3awetudc9654tm3j7zn89luyu9gizy,1H5laj5o,2020-0188,2020-05-21,14:02:29,14:22:16,NA,incomplete,163,color,1,right,Green_Star_Grid_3.jpg,Red_Triangle_Chess_3.jpg,Green_Plus_Stripes_2.jpg,right,1198.7599999993108,true,low,false
1H5laj5o,372ages0j7iqu68t52ou18jnn9hxrx,3awetudc9654tm3j7zn89luyu9gizy,1H5laj5o,2020-0188,2020-05-21,14:02:29,14:22:16,NA,incomplete,164,color,1,right,Red_Star_Dots_4.jpg,Blue_Plus_Chess_4.jpg,Red_Triangle_Stripes_3.jpg,right,888.2099999900674,true,low,false
1H5laj5o,372ages0j7iqu68t52ou18jnn9hxrx,3awetudc9654tm3j7zn89luyu9gizy,1H5laj5o,2020-0188,2020-05-21,14:02:29,14:22:16,NA,incomplete,165,color,1,left,Purple_Circle_Stripes_1.jpg,Purple_Star_Dots_4.jpg,Red_Plus_Chess_1.jpg,right,1487.4650000128895,false,low,false
1H5laj5o,372ages0j7iqu68t52ou18jnn9hxrx,3awetudc9654tm3j7zn89luyu9gizy,1H5laj5o,2020-0188,2020-05-21,14:02:29,14:22:16,NA,incomplete,166,color,0,left,Purple_Plus_Chess_1.jpg,Purple_Circle_Grid_4.jpg,Red_Triangle_Dots_1.jpg,right,1414.6200000104727,false,low,false
1H5laj5o,372ages0j7iqu68t52ou18jnn9hxrx,3awetudc9654tm3j7zn89luyu9gizy,1H5laj5o,2020-0188,2020-05-21,14:02:29,14:22:16,NA,incomplete,167,color,1,left,Red_Plus_Stripes_1.jpg,Red_Star_Chess_2.jpg,Green_Circle_Grid_1.jpg,right,1021.2150000006659,false,low,false
1H5laj5o,372ages0j7iqu68t52ou18jnn9hxrx,3awetudc9654tm3j7zn89luyu9gizy,1H5laj5o,2020-0188,2020-05-21,14:02:29,14:22:16,NA,incomplete,168,color,1,left,Blue_Plus_Stripes_2.jpg,Blue_Circle_Grid_3.jpg,Red_Star_Dots_2.jpg,left,913.2249999966007,true,low,false
1H5laj5o,372ages0j7iqu68t52ou18jnn9hxrx,3awetudc9654tm3j7zn89luyu9gizy,1H5laj5o,2020-0188,2020-05-21,14:02:29,14:22:16,NA,incomplete,169,color,0,left,Green_Triangle_Stripes_2.jpg,Green_Star_Chess_1.jpg,Blue_Plus_Grid_2.jpg,left,958.0850000056671,true,low,false
1H5laj5o,372ages0j7iqu68t52ou18jnn9hxrx,3awetudc9654tm3j7zn89luyu9gizy,1H5laj5o,2020-0188,2020-05-21,14:02:29,14:22:16,NA,incomplete,170,color,1,left,Purple_Circle_Stripes_2.jpg,Purple_Plus_Chess_3.jpg,Red_Triangle_Dots_2.jpg,left,661.1600000032922,true,low,false
1H5laj5o,372ages0j7iqu68t52ou18jnn9hxrx,3awetudc9654tm3j7zn89luyu9gizy,1H5laj5o,2020-0188,2020-05-21,14:02:29,14:22:16,NA,incomplete,171,color,1,right,Purple_Plus_Chess_2.jpg,Blue_Circle_Grid_2.jpg,Purple_Star_Dots_1.jpg,left,947.6750000030734,false,low,false
1H5laj5o,372ages0j7iqu68t52ou18jnn9hxrx,3awetudc9654tm3j7zn89luyu9gizy,1H5laj5o,2020-0188,2020-05-21,14:02:29,14:22:16,NA,incomplete,172,color,1,right,Purple_Plus_Grid_1.jpg,Green_Triangle_Chess_1.jpg,Purple_Star_Dots_2.jpg,left,557.4249999917811,false,low,false
1H5laj5o,372ages0j7iqu68t52ou18jnn9hxrx,3awetudc9654tm3j7zn89luyu9gizy,1H5laj5o,2020-0188,2020-05-21,14:02:29,14:22:16,NA,incomplete,173,color,0,right,Purple_Triangle_Stripes_2.jpg,Blue_Circle_Dots_2.jpg,Purple_Plus_Grid_3.jpg,right,1103.4199999994598,true,low,false
1H5laj5o,372ages0j7iqu68t52ou18jnn9hxrx,3awetudc9654tm3j7zn89luyu9gizy,1H5laj5o,2020-0188,2020-05-21,14:02:29,14:22:16,NA,incomplete,174,color,1,left,Purple_Circle_Stripes_2.jpg,Purple_Triangle_Chess_3.jpg,Green_Star_Grid_2.jpg,left,1168.5299999953713,true,low,false
1H5laj5o,372ages0j7iqu68t52ou18jnn9hxrx,3awetudc9654tm3j7zn89luyu9gizy,1H5laj5o,2020-0188,2020-05-21,14:02:29,14:22:16,NA,incomplete,175,color,1,right,Purple_Plus_Chess_4.jpg,Blue_Star_Stripes_4.jpg,Purple_Triangle_Dots_1.jpg,left,1022.0499999995809,false,low,false
1H5laj5o,372ages0j7iqu68t52ou18jnn9hxrx,3awetudc9654tm3j7zn89luyu9gizy,1H5laj5o,2020-0188,2020-05-21,14:02:29,14:22:16,NA,incomplete,176,color,1,left,Blue_Triangle_Stripes_1.jpg,Blue_Star_Dots_3.jpg,Purple_Plus_Chess_1.jpg,left,953.9650000078836,true,low,false
1H5laj5o,372ages0j7iqu68t52ou18jnn9hxrx,3awetudc9654tm3j7zn89luyu9gizy,1H5laj5o,2020-0188,2020-05-21,14:02:29,14:22:16,NA,incomplete,177,color,1,right,Purple_Triangle_Chess_3.jpg,Green_Circle_Grid_3.jpg,Purple_Star_Dots_2.jpg,left,832.2600000101374,false,low,false
1H5laj5o,372ages0j7iqu68t52ou18jnn9hxrx,3awetudc9654tm3j7zn89luyu9gizy,1H5laj5o,2020-0188,2020-05-21,14:02:29,14:22:16,NA,incomplete,178,color,1,left,Blue_Circle_Stripes_3.jpg,Blue_Star_Grid_2.jpg,Red_Triangle_Chess_3.jpg,left,699.0200000000186,true,low,false
1H5laj5o,372ages0j7iqu68t52ou18jnn9hxrx,3awetudc9654tm3j7zn89luyu9gizy,1H5laj5o,2020-0188,2020-05-21,14:02:29,14:22:16,NA,incomplete,179,color,1,right,Purple_Star_Stripes_3.jpg,Blue_Triangle_Dots_3.jpg,Purple_Circle_Chess_4.jpg,left,612.9599999985658,false,low,false
1H5laj5o,372ages0j7iqu68t52ou18jnn9hxrx,3awetudc9654tm3j7zn89luyu9gizy,1H5laj5o,2020-0188,2020-05-21,14:02:29,14:22:16,NA,incomplete,180,number,1,right,Blue_Plus_Dots_3.jpg,Blue_Circle_Stripes_2.jpg,Purple_Star_Grid_3.jpg,right,1025.7049999927403,true,low,false
1H5laj5o,372ages0j7iqu68t52ou18jnn9hxrx,3awetudc9654tm3j7zn89luyu9gizy,1H5laj5o,2020-0188,2020-05-21,14:02:29,14:22:16,NA,incomplete,181,number,1,left,Purple_Star_Dots_4.jpg,Blue_Circle_Chess_4.jpg,Purple_Triangle_Stripes_2.jpg,right,1171.9149999989895,false,low,false
1H5laj5o,372ages0j7iqu68t52ou18jnn9hxrx,3awetudc9654tm3j7zn89luyu9gizy,1H5laj5o,2020-0188,2020-05-21,14:02:29,14:22:16,NA,incomplete,182,number,1,left,Purple_Star_Dots_2.jpg,Green_Plus_Stripes_2.jpg,Purple_Triangle_Grid_1.jpg,right,1242.629999993369,false,low,false
1H5laj5o,372ages0j7iqu68t52ou18jnn9hxrx,3awetudc9654tm3j7zn89luyu9gizy,1H5laj5o,2020-0188,2020-05-21,14:02:29,14:22:16,NA,incomplete,183,number,0,right,Blue_Star_Dots_4.jpg,Blue_Plus_Chess_2.jpg,Purple_Triangle_Grid_4.jpg,right,823.0849999963539,true,low,false
1H5laj5o,372ages0j7iqu68t52ou18jnn9hxrx,3awetudc9654tm3j7zn89luyu9gizy,1H5laj5o,2020-0188,2020-05-21,14:02:29,14:22:16,NA,incomplete,184,number,1,right,Red_Circle_Dots_3.jpg,Red_Triangle_Stripes_2.jpg,Blue_Plus_Chess_3.jpg,left,600.6400000042049,false,low,false
1H5laj5o,372ages0j7iqu68t52ou18jnn9hxrx,3awetudc9654tm3j7zn89luyu9gizy,1H5laj5o,2020-0188,2020-05-21,14:02:29,14:22:16,NA,incomplete,185,number,1,left,Green_Circle_Dots_2.jpg,Purple_Triangle_Stripes_2.jpg,Green_Plus_Grid_4.jpg,left,641.8249999987893,true,low,false
1H5laj5o,372ages0j7iqu68t52ou18jnn9hxrx,3awetudc9654tm3j7zn89luyu9gizy,1H5laj5o,2020-0188,2020-05-21,14:02:29,14:22:16,NA,incomplete,186,number,1,right,Purple_Star_Stripes_4.jpg,Purple_Circle_Grid_1.jpg,Green_Plus_Dots_4.jpg,left,692.6149999926565,false,low,false
1H5laj5o,372ages0j7iqu68t52ou18jnn9hxrx,3awetudc9654tm3j7zn89luyu9gizy,1H5laj5o,2020-0188,2020-05-21,14:02:29,14:22:16,NA,incomplete,187,number,1,right,Blue_Star_Stripes_1.jpg,Blue_Triangle_Chess_3.jpg,Red_Circle_Grid_1.jpg,left,849.1400000057183,false,low,false
1H5laj5o,372ages0j7iqu68t52ou18jnn9hxrx,3awetudc9654tm3j7zn89luyu9gizy,1H5laj5o,2020-0188,2020-05-21,14:02:29,14:22:16,NA,incomplete,188,number,0,right,Purple_Plus_Stripes_1.jpg,Purple_Circle_Chess_2.jpg,Green_Star_Grid_1.jpg,right,1094.5900000078836,true,low,false
1H5laj5o,372ages0j7iqu68t52ou18jnn9hxrx,3awetudc9654tm3j7zn89luyu9gizy,1H5laj5o,2020-0188,2020-05-21,14:02:29,14:22:16,NA,incomplete,189,number,1,left,Blue_Triangle_Stripes_1.jpg,Purple_Circle_Grid_1.jpg,Blue_Plus_Chess_3.jpg,right,556.6950000065845,false,low,false
1H5laj5o,372ages0j7iqu68t52ou18jnn9hxrx,3awetudc9654tm3j7zn89luyu9gizy,1H5laj5o,2020-0188,2020-05-21,14:02:29,14:22:16,NA,incomplete,190,number,1,left,Purple_Plus_Stripes_3.jpg,Red_Circle_Chess_3.jpg,Purple_Triangle_Dots_4.jpg,right,598.7699999968754,false,low,false
1H5laj5o,372ages0j7iqu68t52ou18jnn9hxrx,3awetudc9654tm3j7zn89luyu9gizy,1H5laj5o,2020-0188,2020-05-21,14:02:29,14:22:16,NA,incomplete,191,number,1,left,Purple_Plus_Grid_4.jpg,Red_Triangle_Chess_4.jpg,Purple_Circle_Stripes_2.jpg,left,889.6050000039395,true,low,false
1H5laj5o,372ages0j7iqu68t52ou18jnn9hxrx,3awetudc9654tm3j7zn89luyu9gizy,1H5laj5o,2020-0188,2020-05-21,14:02:29,14:22:16,NA,incomplete,192,number,0,left,Green_Star_Stripes_4.jpg,Red_Triangle_Grid_4.jpg,Green_Plus_Chess_3.jpg,left,979.8350000055507,true,low,false
1H5laj5o,372ages0j7iqu68t52ou18jnn9hxrx,3awetudc9654tm3j7zn89luyu9gizy,1H5laj5o,2020-0188,2020-05-21,14:02:29,14:22:16,NA,incomplete,193,number,1,right,Green_Circle_Grid_3.jpg,Green_Plus_Chess_4.jpg,Blue_Triangle_Stripes_3.jpg,right,1017.6650000066729,true,low,false
1H5laj5o,372ages0j7iqu68t52ou18jnn9hxrx,3awetudc9654tm3j7zn89luyu9gizy,1H5laj5o,2020-0188,2020-05-21,14:02:29,14:22:16,NA,incomplete,194,number,1,right,Blue_Plus_Grid_2.jpg,Blue_Star_Stripes_4.jpg,Purple_Circle_Chess_2.jpg,left,1085.124999997788,false,low,false
1H5laj5o,372ages0j7iqu68t52ou18jnn9hxrx,3awetudc9654tm3j7zn89luyu9gizy,1H5laj5o,2020-0188,2020-05-21,14:02:29,14:22:16,NA,incomplete,195,number,0,left,Blue_Circle_Dots_3.jpg,Red_Triangle_Chess_3.jpg,Blue_Star_Grid_1.jpg,left,1126.4399999927264,true,low,false
1H5laj5o,372ages0j7iqu68t52ou18jnn9hxrx,3awetudc9654tm3j7zn89luyu9gizy,1H5laj5o,2020-0188,2020-05-21,14:02:29,14:22:16,NA,incomplete,196,number,1,left,Red_Triangle_Chess_1.jpg,Purple_Circle_Grid_1.jpg,Red_Star_Dots_3.jpg,right,1306.559999997262,false,low,false
1H5laj5o,372ages0j7iqu68t52ou18jnn9hxrx,3awetudc9654tm3j7zn89luyu9gizy,1H5laj5o,2020-0188,2020-05-21,14:02:29,14:22:16,NA,incomplete,197,number,0,left,Green_Circle_Stripes_4.jpg,Blue_Triangle_Dots_4.jpg,Green_Plus_Chess_1.jpg,right,695.5000000016298,false,low,false
1H5laj5o,372ages0j7iqu68t52ou18jnn9hxrx,3awetudc9654tm3j7zn89luyu9gizy,1H5laj5o,2020-0188,2020-05-21,14:02:29,14:22:16,NA,incomplete,198,number,1,right,Green_Circle_Grid_3.jpg,Green_Triangle_Chess_2.jpg,Purple_Star_Dots_3.jpg,right,810.5450000003912,true,low,false
1H5laj5o,372ages0j7iqu68t52ou18jnn9hxrx,3awetudc9654tm3j7zn89luyu9gizy,1H5laj5o,2020-0188,2020-05-21,14:02:29,14:22:16,NA,incomplete,199,number,1,right,Green_Plus_Dots_1.jpg,Green_Circle_Grid_4.jpg,Red_Triangle_Chess_1.jpg,right,1510.4949999949895,true,low,false
1H5laj5o,372ages0j7iqu68t52ou18jnn9hxrx,3awetudc9654tm3j7zn89luyu9gizy,1H5laj5o,2020-0188,2020-05-21,14:02:29,14:22:16,NA,incomplete,200,color,1,right,Purple_Star_Grid_4.jpg,Green_Triangle_Stripes_4.jpg,Purple_Circle_Dots_1.jpg,right,1469.054999994114,true,low,false
1H5laj5o,372ages0j7iqu68t52ou18jnn9hxrx,3awetudc9654tm3j7zn89luyu9gizy,1H5laj5o,2020-0188,2020-05-21,14:02:29,14:22:16,NA,incomplete,201,color,1,right,Green_Star_Chess_2.jpg,Blue_Triangle_Stripes_2.jpg,Green_Circle_Dots_3.jpg,right,888.3099999947008,true,low,false
1H5laj5o,372ages0j7iqu68t52ou18jnn9hxrx,3awetudc9654tm3j7zn89luyu9gizy,1H5laj5o,2020-0188,2020-05-21,14:02:29,14:22:16,NA,incomplete,202,color,1,right,Blue_Plus_Grid_4.jpg,Green_Star_Chess_4.jpg,Blue_Circle_Stripes_3.jpg,right,731.709999992745,true,low,false
1H5laj5o,372ages0j7iqu68t52ou18jnn9hxrx,3awetudc9654tm3j7zn89luyu9gizy,1H5laj5o,2020-0188,2020-05-21,14:02:29,14:22:16,NA,incomplete,203,color,1,left,Green_Star_Grid_3.jpg,Green_Circle_Chess_1.jpg,Purple_Plus_Dots_3.jpg,right,774.9249999907333,false,low,false
1H5laj5o,372ages0j7iqu68t52ou18jnn9hxrx,3awetudc9654tm3j7zn89luyu9gizy,1H5laj5o,2020-0188,2020-05-21,14:02:29,14:22:16,NA,incomplete,204,color,0,right,Blue_Star_Dots_3.jpg,Red_Circle_Chess_3.jpg,Blue_Plus_Grid_2.jpg,left,1087.7150000014808,false,low,false
1H5laj5o,372ages0j7iqu68t52ou18jnn9hxrx,3awetudc9654tm3j7zn89luyu9gizy,1H5laj5o,2020-0188,2020-05-21,14:02:29,14:22:16,NA,incomplete,205,color,1,left,Purple_Star_Stripes_4.jpg,Purple_Plus_Dots_2.jpg,Blue_Circle_Grid_4.jpg,right,982.9800000006799,false,low,false
1H5laj5o,372ages0j7iqu68t52ou18jnn9hxrx,3awetudc9654tm3j7zn89luyu9gizy,1H5laj5o,2020-0188,2020-05-21,14:02:29,14:22:16,NA,incomplete,206,color,1,right,Blue_Star_Chess_3.jpg,Green_Triangle_Grid_3.jpg,Blue_Circle_Stripes_4.jpg,left,735.3799999980256,false,low,false
1H5laj5o,372ages0j7iqu68t52ou18jnn9hxrx,3awetudc9654tm3j7zn89luyu9gizy,1H5laj5o,2020-0188,2020-05-21,14:02:29,14:22:16,NA,incomplete,207,color,0,left,Red_Triangle_Stripes_4.jpg,Red_Circle_Grid_1.jpg,Green_Plus_Chess_4.jpg,left,708.1299999991897,true,low,false
1H5laj5o,372ages0j7iqu68t52ou18jnn9hxrx,3awetudc9654tm3j7zn89luyu9gizy,1H5laj5o,2020-0188,2020-05-21,14:02:29,14:22:16,NA,incomplete,208,color,1,right,Green_Triangle_Grid_1.jpg,Purple_Plus_Dots_1.jpg,Green_Star_Stripes_3.jpg,right,926.5499999891035,true,low,false
1H5laj5o,372ages0j7iqu68t52ou18jnn9hxrx,3awetudc9654tm3j7zn89luyu9gizy,1H5laj5o,2020-0188,2020-05-21,14:02:29,14:22:16,NA,incomplete,209,color,1,right,Green_Circle_Chess_1.jpg,Blue_Star_Stripes_1.jpg,Green_Plus_Grid_2.jpg,right,513.5000000009313,true,low,false
1H5laj5o,372ages0j7iqu68t52ou18jnn9hxrx,3awetudc9654tm3j7zn89luyu9gizy,1H5laj5o,2020-0188,2020-05-21,14:02:29,14:22:16,NA,incomplete,210,color,1,left,Green_Circle_Stripes_4.jpg,Green_Triangle_Grid_1.jpg,Red_Plus_Chess_4.jpg,right,806.440000000177,false,low,false
1H5laj5o,372ages0j7iqu68t52ou18jnn9hxrx,3awetudc9654tm3j7zn89luyu9gizy,1H5laj5o,2020-0188,2020-05-21,14:02:29,14:22:16,NA,incomplete,211,color,0,left,Green_Triangle_Dots_1.jpg,Green_Circle_Chess_2.jpg,Purple_Star_Grid_1.jpg,left,1158.5699999995995,true,low,false
1H5laj5o,372ages0j7iqu68t52ou18jnn9hxrx,3awetudc9654tm3j7zn89luyu9gizy,1H5laj5o,2020-0188,2020-05-21,14:02:29,14:22:16,NA,incomplete,212,color,1,left,Purple_Star_Grid_3.jpg,Purple_Triangle_Stripes_1.jpg,Red_Circle_Dots_3.jpg,right,679.4300000036601,false,low,false
1H5laj5o,372ages0j7iqu68t52ou18jnn9hxrx,3awetudc9654tm3j7zn89luyu9gizy,1H5laj5o,2020-0188,2020-05-21,14:02:29,14:22:16,NA,incomplete,213,color,1,left,Red_Circle_Stripes_2.jpg,Red_Triangle_Grid_3.jpg,Blue_Plus_Dots_2.jpg,right,593.4249999991152,false,low,false
1H5laj5o,372ages0j7iqu68t52ou18jnn9hxrx,3awetudc9654tm3j7zn89luyu9gizy,1H5laj5o,2020-0188,2020-05-21,14:02:29,14:22:16,NA,incomplete,214,color,1,right,Blue_Star_Stripes_2.jpg,Red_Plus_Grid_2.jpg,Blue_Circle_Dots_4.jpg,left,670.879999990575,false,low,false
1H5laj5o,372ages0j7iqu68t52ou18jnn9hxrx,3awetudc9654tm3j7zn89luyu9gizy,1H5laj5o,2020-0188,2020-05-21,14:02:29,14:22:16,NA,incomplete,215,color,1,left,Green_Triangle_Chess_4.jpg,Green_Star_Dots_3.jpg,Blue_Plus_Grid_4.jpg,left,905.059999990277,true,low,false
1H5laj5o,372ages0j7iqu68t52ou18jnn9hxrx,3awetudc9654tm3j7zn89luyu9gizy,1H5laj5o,2020-0188,2020-05-21,14:02:29,14:22:16,NA,incomplete,216,color,0,right,Purple_Triangle_Grid_3.jpg,Green_Plus_Dots_3.jpg,Purple_Star_Chess_2.jpg,left,1122.7849999996834,false,low,false
1H5laj5o,372ages0j7iqu68t52ou18jnn9hxrx,3awetudc9654tm3j7zn89luyu9gizy,1H5laj5o,2020-0188,2020-05-21,14:02:29,14:22:16,NA,incomplete,217,color,1,left,Purple_Star_Grid_4.jpg,Purple_Triangle_Chess_3.jpg,Blue_Plus_Dots_4.jpg,left,722.7149999961257,true,low,false
1H5laj5o,372ages0j7iqu68t52ou18jnn9hxrx,3awetudc9654tm3j7zn89luyu9gizy,1H5laj5o,2020-0188,2020-05-21,14:02:29,14:22:16,NA,incomplete,218,color,1,right,Green_Circle_Dots_3.jpg,Purple_Triangle_Chess_3.jpg,Green_Star_Stripes_1.jpg,left,699.5500000047032,false,low,false
1H5laj5o,372ages0j7iqu68t52ou18jnn9hxrx,3awetudc9654tm3j7zn89luyu9gizy,1H5laj5o,2020-0188,2020-05-21,14:02:29,14:22:16,NA,incomplete,219,color,1,right,Red_Circle_Dots_3.jpg,Green_Plus_Chess_3.jpg,Red_Star_Grid_4.jpg,left,705.5150000087451,false,low,false
1H5laj5o,372ages0j7iqu68t52ou18jnn9hxrx,3awetudc9654tm3j7zn89luyu9gizy,1H5laj5o,2020-0188,2020-05-21,14:02:29,14:22:16,NA,incomplete,220,number,1,left,Purple_Plus_Grid_3.jpg,Green_Circle_Chess_3.jpg,Purple_Star_Stripes_2.jpg,left,762.3250000034459,true,low,false
1H5laj5o,372ages0j7iqu68t52ou18jnn9hxrx,3awetudc9654tm3j7zn89luyu9gizy,1H5laj5o,2020-0188,2020-05-21,14:02:29,14:22:16,NA,incomplete,221,number,1,right,Purple_Circle_Chess_4.jpg,Purple_Star_Stripes_2.jpg,Green_Triangle_Grid_4.jpg,left,688.0200000014156,false,low,false
1H5laj5o,372ages0j7iqu68t52ou18jnn9hxrx,3awetudc9654tm3j7zn89luyu9gizy,1H5laj5o,2020-0188,2020-05-21,14:02:29,14:22:16,NA,incomplete,222,number,0,left,Red_Star_Chess_4.jpg,Green_Triangle_Stripes_4.jpg,Red_Circle_Dots_2.jpg,right,1165.055000005057,false,low,false
1H5laj5o,372ages0j7iqu68t52ou18jnn9hxrx,3awetudc9654tm3j7zn89luyu9gizy,1H5laj5o,2020-0188,2020-05-21,14:02:29,14:22:16,NA,incomplete,223,number,1,right,Green_Triangle_Chess_2.jpg,Green_Plus_Stripes_3.jpg,Blue_Star_Grid_2.jpg,right,761.7900000039954,true,low,false
1H5laj5o,372ages0j7iqu68t52ou18jnn9hxrx,3awetudc9654tm3j7zn89luyu9gizy,1H5laj5o,2020-0188,2020-05-21,14:02:29,14:22:16,NA,incomplete,224,number,0,left,Blue_Triangle_Chess_1.jpg,Red_Plus_Grid_1.jpg,Blue_Circle_Stripes_4.jpg,right,667.4700000004377,false,low,false
1H5laj5o,372ages0j7iqu68t52ou18jnn9hxrx,3awetudc9654tm3j7zn89luyu9gizy,1H5laj5o,2020-0188,2020-05-21,14:02:29,14:22:16,NA,incomplete,225,number,1,left,Green_Plus_Chess_1.jpg,Purple_Star_Dots_1.jpg,Green_Circle_Stripes_4.jpg,right,565.654999998631,false,low,false
1H5laj5o,372ages0j7iqu68t52ou18jnn9hxrx,3awetudc9654tm3j7zn89luyu9gizy,1H5laj5o,2020-0188,2020-05-21,14:02:29,14:22:16,NA,incomplete,226,number,1,left,Blue_Plus_Chess_4.jpg,Green_Triangle_Dots_4.jpg,Blue_Star_Stripes_1.jpg,left,1187.2500000025611,true,low,false
1H5laj5o,372ages0j7iqu68t52ou18jnn9hxrx,3awetudc9654tm3j7zn89luyu9gizy,1H5laj5o,2020-0188,2020-05-21,14:02:29,14:22:16,NA,incomplete,227,number,1,left,Green_Triangle_Stripes_3.jpg,Red_Plus_Grid_3.jpg,Green_Star_Chess_1.jpg,left,622.3449999960139,true,low,false
1H5laj5o,372ages0j7iqu68t52ou18jnn9hxrx,3awetudc9654tm3j7zn89luyu9gizy,1H5laj5o,2020-0188,2020-05-21,14:02:29,14:22:16,NA,incomplete,228,number,1,left,Green_Star_Dots_1.jpg,Purple_Triangle_Chess_1.jpg,Green_Plus_Grid_4.jpg,left,647.5999999968335,true,low,false
1H5laj5o,372ages0j7iqu68t52ou18jnn9hxrx,3awetudc9654tm3j7zn89luyu9gizy,1H5laj5o,2020-0188,2020-05-21,14:02:29,14:22:16,NA,incomplete,229,number,1,left,Green_Circle_Dots_4.jpg,Blue_Plus_Grid_4.jpg,Green_Star_Stripes_1.jpg,left,520.8350000029895,true,low,false
1H5laj5o,372ages0j7iqu68t52ou18jnn9hxrx,3awetudc9654tm3j7zn89luyu9gizy,1H5laj5o,2020-0188,2020-05-21,14:02:29,14:22:16,NA,incomplete,230,number,1,right,Blue_Circle_Dots_3.jpg,Blue_Star_Stripes_4.jpg,Purple_Triangle_Grid_3.jpg,left,530.174999992596,false,low,false
1H5laj5o,372ages0j7iqu68t52ou18jnn9hxrx,3awetudc9654tm3j7zn89luyu9gizy,1H5laj5o,2020-0188,2020-05-21,14:02:29,14:22:16,NA,incomplete,231,number,1,right,Red_Plus_Dots_2.jpg,Red_Circle_Stripes_1.jpg,Blue_Star_Grid_2.jpg,right,384.22999999602325,true,low,false
1H5laj5o,372ages0j7iqu68t52ou18jnn9hxrx,3awetudc9654tm3j7zn89luyu9gizy,1H5laj5o,2020-0188,2020-05-21,14:02:29,14:22:16,NA,incomplete,232,number,1,right,Green_Star_Stripes_3.jpg,Green_Triangle_Grid_4.jpg,Red_Plus_Chess_3.jpg,right,453.3500000105705,true,low,false
1H5laj5o,372ages0j7iqu68t52ou18jnn9hxrx,3awetudc9654tm3j7zn89luyu9gizy,1H5laj5o,2020-0188,2020-05-21,14:02:29,14:22:16,NA,incomplete,233,number,1,left,Purple_Triangle_Chess_1.jpg,Red_Star_Stripes_1.jpg,Purple_Circle_Grid_4.jpg,right,482.3749999925494,false,low,false
1H5laj5o,372ages0j7iqu68t52ou18jnn9hxrx,3awetudc9654tm3j7zn89luyu9gizy,1H5laj5o,2020-0188,2020-05-21,14:02:29,14:22:16,NA,incomplete,234,number,1,left,Red_Circle_Dots_1.jpg,Blue_Triangle_Chess_1.jpg,Red_Star_Stripes_3.jpg,right,524.2299999953248,false,low,false
1H5laj5o,372ages0j7iqu68t52ou18jnn9hxrx,3awetudc9654tm3j7zn89luyu9gizy,1H5laj5o,2020-0188,2020-05-21,14:02:29,14:22:16,NA,incomplete,235,number,1,left,Red_Triangle_Grid_1.jpg,Green_Circle_Chess_1.jpg,Red_Plus_Dots_3.jpg,left,663.8650000095367,true,low,false
1H5laj5o,372ages0j7iqu68t52ou18jnn9hxrx,3awetudc9654tm3j7zn89luyu9gizy,1H5laj5o,2020-0188,2020-05-21,14:02:29,14:22:16,NA,incomplete,236,number,0,left,Green_Plus_Stripes_1.jpg,Purple_Star_Chess_1.jpg,Green_Triangle_Grid_4.jpg,left,510.4649999993853,true,low,false
1H5laj5o,372ages0j7iqu68t52ou18jnn9hxrx,3awetudc9654tm3j7zn89luyu9gizy,1H5laj5o,2020-0188,2020-05-21,14:02:29,14:22:16,NA,incomplete,237,number,1,left,Green_Star_Stripes_1.jpg,Red_Circle_Dots_1.jpg,Green_Triangle_Grid_2.jpg,left,336.4900000016205,true,low,false
1H5laj5o,372ages0j7iqu68t52ou18jnn9hxrx,3awetudc9654tm3j7zn89luyu9gizy,1H5laj5o,2020-0188,2020-05-21,14:02:29,14:22:16,NA,incomplete,238,number,1,right,Blue_Star_Stripes_1.jpg,Blue_Plus_Dots_3.jpg,Red_Circle_Chess_1.jpg,left,337.5999999991618,false,low,false
1H5laj5o,372ages0j7iqu68t52ou18jnn9hxrx,3awetudc9654tm3j7zn89luyu9gizy,1H5laj5o,2020-0188,2020-05-21,14:02:29,14:22:16,NA,incomplete,239,number,1,right,Blue_Triangle_Dots_3.jpg,Blue_Star_Grid_2.jpg,Green_Circle_Chess_3.jpg,left,461.33000000566244,false,low,false
1H5laj5o,372ages0j7iqu68t52ou18jnn9hxrx,3awetudc9654tm3j7zn89luyu9gizy,1H5laj5o,2020-0188,2020-05-21,14:02:29,14:22:16,NA,NA,instruction example,filling,NA,NA,Purple_Plus_Dots_2.jpg,Blue_Triangle_Dots_1.jpg,Red_Plus_Grid_3.jpg,NA,NA,NA,NA,undefined
1H5laj5o,372ages0j7iqu68t52ou18jnn9hxrx,3awetudc9654tm3j7zn89luyu9gizy,1H5laj5o,2020-0188,2020-05-21,14:02:29,14:22:16,NA,NA,instruction example,filling,NA,NA,Blue_Circle_Dots_4.jpg,Purple_Circle_Stripes_3.jpg,Red_Plus_Dots_2.jpg,NA,NA,NA,NA,undefined
1H5laj5o,372ages0j7iqu68t52ou18jnn9hxrx,3awetudc9654tm3j7zn89luyu9gizy,1H5laj5o,2020-0188,2020-05-21,14:02:29,14:22:16,NA,NA,instruction example,filling,NA,NA,Blue_Star_Grid_3.jpg,Blue_Circle_Dots_2.jpg,Green_Triangle_Stripes_3.jpg,NA,NA,NA,NA,undefined
1H5laj5o,372ages0j7iqu68t52ou18jnn9hxrx,3awetudc9654tm3j7zn89luyu9gizy,1H5laj5o,2020-0188,2020-05-21,14:02:29,14:22:16,NA,NA,instruction example,filling,NA,NA,Green_Star_Stripes_3.jpg,Red_Plus_Chess_3.jpg,Green_Triangle_Dots_2.jpg,NA,NA,NA,NA,undefined
1H5laj5o,372ages0j7iqu68t52ou18jnn9hxrx,3awetudc9654tm3j7zn89luyu9gizy,1H5laj5o,2020-0188,2020-05-21,14:02:29,14:22:16,1157332.3249999958,1188236.6550000007,NA,NA,NA,NA,NA,NA,NA,NA,NA,NA,NA,undefined
