workerId,hitId,assignmentId,subject,studyid,exp_date,exp_start,exp_end,time_start,time_end,trial,type,reward_validity,answer,image_top,image_left,image_right,response,response_time,response_acc,volatility,practice
2RrYeJut,3peg1bh7bh4xuzsxamnfbz6ha40bkr,3b837j3lds9kl9ko2un9rkymynrrsw,2RrYeJut,2020-0188,2020-06-15,15:20:03,15:40:04,NA,incomplete,0,filling,0,left,Purple_Plus_Grid_2.jpg,Red_Triangle_Grid_1.jpg,Blue_Plus_Dots_3.jpg,none,0,false,NA,true
2RrYeJut,3peg1bh7bh4xuzsxamnfbz6ha40bkr,3b837j3lds9kl9ko2un9rkymynrrsw,2RrYeJut,2020-0188,2020-06-15,15:20:03,15:40:04,NA,incomplete,1,filling,1,left,Red_Plus_Chess_4.jpg,Blue_Triangle_Chess_1.jpg,Green_Plus_Dots_3.jpg,left,1280.3300000086892,true,NA,true
2RrYeJut,3peg1bh7bh4xuzsxamnfbz6ha40bkr,3b837j3lds9kl9ko2un9rkymynrrsw,2RrYeJut,2020-0188,2020-06-15,15:20:03,15:40:04,NA,incomplete,2,filling,1,left,Blue_Plus_Grid_1.jpg,Green_Star_Grid_4.jpg,Red_Plus_Chess_3.jpg,left,1384.539999999106,true,NA,true
2RrYeJut,3peg1bh7bh4xuzsxamnfbz6ha40bkr,3b837j3lds9kl9ko2un9rkymynrrsw,2RrYeJut,2020-0188,2020-06-15,15:20:03,15:40:04,NA,incomplete,3,filling,1,right,Green_Plus_Stripes_4.jpg,Purple_Plus_Grid_3.jpg,Blue_Circle_Stripes_1.jpg,left,1244.8549999971874,false,NA,true
2RrYeJut,3peg1bh7bh4xuzsxamnfbz6ha40bkr,3b837j3lds9kl9ko2un9rkymynrrsw,2RrYeJut,2020-0188,2020-06-15,15:20:03,15:40:04,NA,incomplete,4,filling,1,right,Red_Star_Stripes_1.jpg,Green_Star_Grid_3.jpg,Blue_Triangle_Stripes_2.jpg,right,926.5849999792408,true,NA,true
2RrYeJut,3peg1bh7bh4xuzsxamnfbz6ha40bkr,3b837j3lds9kl9ko2un9rkymynrrsw,2RrYeJut,2020-0188,2020-06-15,15:20:03,15:40:04,NA,incomplete,5,filling,1,right,Red_Star_Chess_1.jpg,Green_Star_Stripes_3.jpg,Blue_Circle_Chess_4.jpg,right,1031.1799999908544,true,NA,true
2RrYeJut,3peg1bh7bh4xuzsxamnfbz6ha40bkr,3b837j3lds9kl9ko2un9rkymynrrsw,2RrYeJut,2020-0188,2020-06-15,15:20:03,15:40:04,NA,incomplete,6,filling,1,left,Green_Star_Chess_1.jpg,Purple_Plus_Chess_2.jpg,Blue_Star_Grid_4.jpg,left,1296.5999999723863,true,NA,true
2RrYeJut,3peg1bh7bh4xuzsxamnfbz6ha40bkr,3b837j3lds9kl9ko2un9rkymynrrsw,2RrYeJut,2020-0188,2020-06-15,15:20:03,15:40:04,NA,incomplete,7,filling,1,left,Purple_Star_Grid_2.jpg,Green_Circle_Grid_1.jpg,Red_Star_Chess_3.jpg,left,1377.039999992121,true,NA,true
2RrYeJut,3peg1bh7bh4xuzsxamnfbz6ha40bkr,3b837j3lds9kl9ko2un9rkymynrrsw,2RrYeJut,2020-0188,2020-06-15,15:20:03,15:40:04,NA,incomplete,8,filling,1,right,Purple_Triangle_Dots_1.jpg,Blue_Triangle_Stripes_4.jpg,Green_Star_Dots_2.jpg,right,1381.5900000045076,true,NA,true
2RrYeJut,3peg1bh7bh4xuzsxamnfbz6ha40bkr,3b837j3lds9kl9ko2un9rkymynrrsw,2RrYeJut,2020-0188,2020-06-15,15:20:03,15:40:04,NA,incomplete,9,filling,1,right,Purple_Circle_Stripes_1.jpg,Blue_Circle_Grid_2.jpg,Red_Triangle_Stripes_4.jpg,right,1155.559999984689,true,NA,true
2RrYeJut,3peg1bh7bh4xuzsxamnfbz6ha40bkr,3b837j3lds9kl9ko2un9rkymynrrsw,2RrYeJut,2020-0188,2020-06-15,15:20:03,15:40:04,NA,incomplete,10,filling,0,left,Blue_Circle_Grid_4.jpg,Red_Triangle_Grid_2.jpg,Green_Circle_Stripes_3.jpg,left,1223.8599999982398,true,NA,true
2RrYeJut,3peg1bh7bh4xuzsxamnfbz6ha40bkr,3b837j3lds9kl9ko2un9rkymynrrsw,2RrYeJut,2020-0188,2020-06-15,15:20:03,15:40:04,NA,incomplete,11,filling,1,left,Blue_Star_Grid_4.jpg,Green_Plus_Grid_2.jpg,Red_Star_Chess_3.jpg,left,1523.6950000107754,true,NA,true
2RrYeJut,3peg1bh7bh4xuzsxamnfbz6ha40bkr,3b837j3lds9kl9ko2un9rkymynrrsw,2RrYeJut,2020-0188,2020-06-15,15:20:03,15:40:04,NA,incomplete,12,filling,0,left,Purple_Triangle_Chess_4.jpg,Green_Circle_Chess_3.jpg,Blue_Triangle_Dots_1.jpg,left,1073.3049999980722,true,NA,true
2RrYeJut,3peg1bh7bh4xuzsxamnfbz6ha40bkr,3b837j3lds9kl9ko2un9rkymynrrsw,2RrYeJut,2020-0188,2020-06-15,15:20:03,15:40:04,NA,incomplete,13,filling,1,left,Purple_Triangle_Stripes_2.jpg,Red_Plus_Stripes_4.jpg,Green_Triangle_Chess_1.jpg,left,1266.8249999987893,true,NA,true
2RrYeJut,3peg1bh7bh4xuzsxamnfbz6ha40bkr,3b837j3lds9kl9ko2un9rkymynrrsw,2RrYeJut,2020-0188,2020-06-15,15:20:03,15:40:04,NA,incomplete,14,filling,1,left,Blue_Plus_Dots_4.jpg,Red_Circle_Dots_3.jpg,Green_Plus_Grid_2.jpg,left,1173.0049999896437,true,NA,true
2RrYeJut,3peg1bh7bh4xuzsxamnfbz6ha40bkr,3b837j3lds9kl9ko2un9rkymynrrsw,2RrYeJut,2020-0188,2020-06-15,15:20:03,15:40:04,NA,incomplete,15,filling,1,right,Red_Plus_Chess_2.jpg,Blue_Plus_Dots_4.jpg,Green_Triangle_Chess_1.jpg,right,1168.4499999973923,true,NA,true
2RrYeJut,3peg1bh7bh4xuzsxamnfbz6ha40bkr,3b837j3lds9kl9ko2un9rkymynrrsw,2RrYeJut,2020-0188,2020-06-15,15:20:03,15:40:04,NA,incomplete,16,filling,1,right,Red_Star_Stripes_3.jpg,Green_Star_Chess_1.jpg,Blue_Triangle_Stripes_2.jpg,right,1270.714999991469,true,NA,true
2RrYeJut,3peg1bh7bh4xuzsxamnfbz6ha40bkr,3b837j3lds9kl9ko2un9rkymynrrsw,2RrYeJut,2020-0188,2020-06-15,15:20:03,15:40:04,NA,incomplete,17,filling,1,left,Red_Circle_Dots_2.jpg,Purple_Star_Dots_4.jpg,Green_Circle_Stripes_1.jpg,left,1079.0149999957066,true,NA,true
2RrYeJut,3peg1bh7bh4xuzsxamnfbz6ha40bkr,3b837j3lds9kl9ko2un9rkymynrrsw,2RrYeJut,2020-0188,2020-06-15,15:20:03,15:40:04,NA,incomplete,18,filling,1,left,Green_Circle_Dots_3.jpg,Red_Plus_Dots_4.jpg,Purple_Circle_Grid_1.jpg,left,1231.564999994589,true,NA,true
2RrYeJut,3peg1bh7bh4xuzsxamnfbz6ha40bkr,3b837j3lds9kl9ko2un9rkymynrrsw,2RrYeJut,2020-0188,2020-06-15,15:20:03,15:40:04,NA,incomplete,19,filling,1,right,Purple_Triangle_Stripes_4.jpg,Red_Triangle_Dots_1.jpg,Blue_Circle_Stripes_3.jpg,right,955.500000010943,true,NA,true
2RrYeJut,3peg1bh7bh4xuzsxamnfbz6ha40bkr,3b837j3lds9kl9ko2un9rkymynrrsw,2RrYeJut,2020-0188,2020-06-15,15:20:03,15:40:04,NA,incomplete,20,shape,1,right,Red_Circle_Chess_4.jpg,Green_Triangle_Chess_3.jpg,Blue_Circle_Stripes_1.jpg,right,1408.6950000200886,true,NA,true
2RrYeJut,3peg1bh7bh4xuzsxamnfbz6ha40bkr,3b837j3lds9kl9ko2un9rkymynrrsw,2RrYeJut,2020-0188,2020-06-15,15:20:03,15:40:04,NA,incomplete,21,shape,1,left,Green_Triangle_Grid_4.jpg,Purple_Triangle_Stripes_3.jpg,Blue_Plus_Grid_1.jpg,left,1291.304999991553,true,NA,true
2RrYeJut,3peg1bh7bh4xuzsxamnfbz6ha40bkr,3b837j3lds9kl9ko2un9rkymynrrsw,2RrYeJut,2020-0188,2020-06-15,15:20:03,15:40:04,NA,incomplete,22,shape,1,left,Purple_Circle_Dots_1.jpg,Green_Circle_Stripes_4.jpg,Red_Star_Dots_2.jpg,left,1075.6450000044424,true,NA,true
2RrYeJut,3peg1bh7bh4xuzsxamnfbz6ha40bkr,3b837j3lds9kl9ko2un9rkymynrrsw,2RrYeJut,2020-0188,2020-06-15,15:20:03,15:40:04,NA,incomplete,23,shape,1,left,Purple_Circle_Grid_4.jpg,Red_Circle_Chess_3.jpg,Blue_Plus_Grid_1.jpg,left,803.764999989653,true,NA,true
2RrYeJut,3peg1bh7bh4xuzsxamnfbz6ha40bkr,3b837j3lds9kl9ko2un9rkymynrrsw,2RrYeJut,2020-0188,2020-06-15,15:20:03,15:40:04,NA,incomplete,24,shape,1,left,Purple_Circle_Grid_4.jpg,Green_Circle_Dots_1.jpg,Red_Triangle_Grid_3.jpg,left,1192.7499999874271,true,NA,true
2RrYeJut,3peg1bh7bh4xuzsxamnfbz6ha40bkr,3b837j3lds9kl9ko2un9rkymynrrsw,2RrYeJut,2020-0188,2020-06-15,15:20:03,15:40:04,NA,incomplete,25,shape,1,left,Green_Plus_Dots_3.jpg,Red_Plus_Chess_4.jpg,Blue_Triangle_Dots_2.jpg,left,915.7050000212621,true,NA,true
2RrYeJut,3peg1bh7bh4xuzsxamnfbz6ha40bkr,3b837j3lds9kl9ko2un9rkymynrrsw,2RrYeJut,2020-0188,2020-06-15,15:20:03,15:40:04,NA,incomplete,26,shape,1,left,Blue_Plus_Chess_4.jpg,Green_Plus_Grid_1.jpg,Red_Triangle_Chess_3.jpg,left,1460.7100000139326,true,NA,true
2RrYeJut,3peg1bh7bh4xuzsxamnfbz6ha40bkr,3b837j3lds9kl9ko2un9rkymynrrsw,2RrYeJut,2020-0188,2020-06-15,15:20:03,15:40:04,NA,incomplete,27,shape,1,right,Purple_Triangle_Dots_2.jpg,Blue_Circle_Dots_3.jpg,Red_Triangle_Grid_1.jpg,right,1157.9000000201631,true,NA,true
2RrYeJut,3peg1bh7bh4xuzsxamnfbz6ha40bkr,3b837j3lds9kl9ko2un9rkymynrrsw,2RrYeJut,2020-0188,2020-06-15,15:20:03,15:40:04,NA,incomplete,28,shape,0,left,Blue_Plus_Stripes_3.jpg,Green_Plus_Grid_2.jpg,Purple_Star_Stripes_4.jpg,left,1082.9549999907613,true,NA,true
2RrYeJut,3peg1bh7bh4xuzsxamnfbz6ha40bkr,3b837j3lds9kl9ko2un9rkymynrrsw,2RrYeJut,2020-0188,2020-06-15,15:20:03,15:40:04,NA,incomplete,29,shape,0,right,Red_Triangle_Chess_1.jpg,Purple_Plus_Chess_3.jpg,Blue_Triangle_Grid_4.jpg,right,1243.9049999811687,true,NA,true
2RrYeJut,3peg1bh7bh4xuzsxamnfbz6ha40bkr,3b837j3lds9kl9ko2un9rkymynrrsw,2RrYeJut,2020-0188,2020-06-15,15:20:03,15:40:04,NA,incomplete,30,shape,1,left,Green_Triangle_Chess_4.jpg,Blue_Triangle_Stripes_3.jpg,Purple_Plus_Chess_2.jpg,left,1262.5349999871105,true,NA,true
2RrYeJut,3peg1bh7bh4xuzsxamnfbz6ha40bkr,3b837j3lds9kl9ko2un9rkymynrrsw,2RrYeJut,2020-0188,2020-06-15,15:20:03,15:40:04,NA,incomplete,31,shape,1,right,Red_Circle_Dots_4.jpg,Purple_Plus_Dots_3.jpg,Green_Circle_Grid_1.jpg,right,910.7650000078138,true,NA,true
2RrYeJut,3peg1bh7bh4xuzsxamnfbz6ha40bkr,3b837j3lds9kl9ko2un9rkymynrrsw,2RrYeJut,2020-0188,2020-06-15,15:20:03,15:40:04,NA,incomplete,32,shape,1,left,Blue_Triangle_Chess_2.jpg,Purple_Triangle_Dots_3.jpg,Green_Plus_Chess_4.jpg,left,847.8800000157207,true,NA,true
2RrYeJut,3peg1bh7bh4xuzsxamnfbz6ha40bkr,3b837j3lds9kl9ko2un9rkymynrrsw,2RrYeJut,2020-0188,2020-06-15,15:20:03,15:40:04,NA,incomplete,33,shape,1,right,Red_Star_Chess_3.jpg,Purple_Circle_Chess_2.jpg,Green_Star_Stripes_1.jpg,right,936.9100000185426,true,NA,true
2RrYeJut,3peg1bh7bh4xuzsxamnfbz6ha40bkr,3b837j3lds9kl9ko2un9rkymynrrsw,2RrYeJut,2020-0188,2020-06-15,15:20:03,15:40:04,NA,incomplete,34,shape,0,right,Purple_Circle_Stripes_1.jpg,Red_Star_Stripes_4.jpg,Green_Circle_Dots_2.jpg,right,711.9349999993574,true,NA,true
2RrYeJut,3peg1bh7bh4xuzsxamnfbz6ha40bkr,3b837j3lds9kl9ko2un9rkymynrrsw,2RrYeJut,2020-0188,2020-06-15,15:20:03,15:40:04,NA,incomplete,35,shape,0,left,Green_Triangle_Dots_3.jpg,Red_Triangle_Stripes_2.jpg,Blue_Star_Dots_4.jpg,left,1271.9499999948312,true,NA,true
2RrYeJut,3peg1bh7bh4xuzsxamnfbz6ha40bkr,3b837j3lds9kl9ko2un9rkymynrrsw,2RrYeJut,2020-0188,2020-06-15,15:20:03,15:40:04,NA,incomplete,36,shape,1,right,Red_Circle_Dots_2.jpg,Purple_Plus_Dots_1.jpg,Blue_Circle_Stripes_4.jpg,right,744.2049999954179,true,NA,true
2RrYeJut,3peg1bh7bh4xuzsxamnfbz6ha40bkr,3b837j3lds9kl9ko2un9rkymynrrsw,2RrYeJut,2020-0188,2020-06-15,15:20:03,15:40:04,NA,incomplete,37,shape,0,left,Blue_Plus_Stripes_4.jpg,Green_Plus_Chess_2.jpg,Purple_Circle_Stripes_3.jpg,left,871.1650000186637,true,NA,true
2RrYeJut,3peg1bh7bh4xuzsxamnfbz6ha40bkr,3b837j3lds9kl9ko2un9rkymynrrsw,2RrYeJut,2020-0188,2020-06-15,15:20:03,15:40:04,NA,incomplete,38,shape,1,right,Purple_Plus_Grid_3.jpg,Blue_Triangle_Grid_4.jpg,Red_Plus_Chess_2.jpg,right,870.920000015758,true,NA,true
2RrYeJut,3peg1bh7bh4xuzsxamnfbz6ha40bkr,3b837j3lds9kl9ko2un9rkymynrrsw,2RrYeJut,2020-0188,2020-06-15,15:20:03,15:40:04,NA,incomplete,39,shape,1,left,Purple_Star_Chess_4.jpg,Green_Star_Dots_1.jpg,Blue_Plus_Chess_2.jpg,left,883.8899999973364,true,NA,true
2RrYeJut,3peg1bh7bh4xuzsxamnfbz6ha40bkr,3b837j3lds9kl9ko2un9rkymynrrsw,2RrYeJut,2020-0188,2020-06-15,15:20:03,15:40:04,NA,incomplete,0,filling,0,right,Blue_Triangle_Chess_2.jpg,Purple_Triangle_Stripes_4.jpg,Red_Plus_Chess_1.jpg,left,815.5450000194833,false,high,false
2RrYeJut,3peg1bh7bh4xuzsxamnfbz6ha40bkr,3b837j3lds9kl9ko2un9rkymynrrsw,2RrYeJut,2020-0188,2020-06-15,15:20:03,15:40:04,NA,incomplete,1,filling,1,right,Green_Star_Chess_4.jpg,Blue_Star_Dots_1.jpg,Red_Circle_Chess_2.jpg,left,996.3749999878928,false,high,false
2RrYeJut,3peg1bh7bh4xuzsxamnfbz6ha40bkr,3b837j3lds9kl9ko2un9rkymynrrsw,2RrYeJut,2020-0188,2020-06-15,15:20:03,15:40:04,NA,incomplete,2,filling,0,left,Red_Triangle_Stripes_2.jpg,Blue_Star_Stripes_1.jpg,Green_Triangle_Grid_4.jpg,right,809.7350000170991,false,high,false
2RrYeJut,3peg1bh7bh4xuzsxamnfbz6ha40bkr,3b837j3lds9kl9ko2un9rkymynrrsw,2RrYeJut,2020-0188,2020-06-15,15:20:03,15:40:04,NA,incomplete,3,filling,1,right,Green_Plus_Grid_2.jpg,Blue_Plus_Dots_3.jpg,Purple_Triangle_Grid_4.jpg,left,764.5949999860022,false,high,false
2RrYeJut,3peg1bh7bh4xuzsxamnfbz6ha40bkr,3b837j3lds9kl9ko2un9rkymynrrsw,2RrYeJut,2020-0188,2020-06-15,15:20:03,15:40:04,NA,incomplete,4,filling,0,right,Blue_Plus_Chess_1.jpg,Green_Plus_Dots_4.jpg,Purple_Star_Chess_3.jpg,right,971.1750000133179,true,high,false
2RrYeJut,3peg1bh7bh4xuzsxamnfbz6ha40bkr,3b837j3lds9kl9ko2un9rkymynrrsw,2RrYeJut,2020-0188,2020-06-15,15:20:03,15:40:04,NA,incomplete,5,filling,0,right,Blue_Star_Grid_1.jpg,Red_Star_Dots_3.jpg,Purple_Circle_Grid_2.jpg,left,806.8750000093132,false,high,false
2RrYeJut,3peg1bh7bh4xuzsxamnfbz6ha40bkr,3b837j3lds9kl9ko2un9rkymynrrsw,2RrYeJut,2020-0188,2020-06-15,15:20:03,15:40:04,NA,incomplete,6,filling,1,left,Green_Triangle_Chess_3.jpg,Blue_Star_Chess_4.jpg,Purple_Triangle_Grid_1.jpg,right,1042.6549999974668,false,high,false
2RrYeJut,3peg1bh7bh4xuzsxamnfbz6ha40bkr,3b837j3lds9kl9ko2un9rkymynrrsw,2RrYeJut,2020-0188,2020-06-15,15:20:03,15:40:04,NA,incomplete,7,filling,1,right,Purple_Star_Grid_3.jpg,Blue_Star_Dots_4.jpg,Green_Plus_Grid_2.jpg,left,884.7549999773037,false,high,false
2RrYeJut,3peg1bh7bh4xuzsxamnfbz6ha40bkr,3b837j3lds9kl9ko2un9rkymynrrsw,2RrYeJut,2020-0188,2020-06-15,15:20:03,15:40:04,NA,incomplete,8,filling,0,left,Green_Star_Grid_1.jpg,Blue_Triangle_Grid_2.jpg,Red_Star_Stripes_3.jpg,left,1261.274999997113,true,high,false
2RrYeJut,3peg1bh7bh4xuzsxamnfbz6ha40bkr,3b837j3lds9kl9ko2un9rkymynrrsw,2RrYeJut,2020-0188,2020-06-15,15:20:03,15:40:04,NA,incomplete,9,filling,1,right,Blue_Circle_Stripes_1.jpg,Purple_Circle_Chess_4.jpg,Green_Triangle_Stripes_3.jpg,left,1023.9550000114832,false,high,false
2RrYeJut,3peg1bh7bh4xuzsxamnfbz6ha40bkr,3b837j3lds9kl9ko2un9rkymynrrsw,2RrYeJut,2020-0188,2020-06-15,15:20:03,15:40:04,NA,incomplete,10,shape,1,left,Red_Triangle_Dots_1.jpg,Purple_Triangle_Chess_3.jpg,Blue_Circle_Dots_2.jpg,right,873.9599999971688,false,high,false
2RrYeJut,3peg1bh7bh4xuzsxamnfbz6ha40bkr,3b837j3lds9kl9ko2un9rkymynrrsw,2RrYeJut,2020-0188,2020-06-15,15:20:03,15:40:04,NA,incomplete,11,shape,1,left,Red_Triangle_Chess_1.jpg,Green_Triangle_Stripes_4.jpg,Blue_Star_Chess_2.jpg,left,891.3549999997485,true,high,false
2RrYeJut,3peg1bh7bh4xuzsxamnfbz6ha40bkr,3b837j3lds9kl9ko2un9rkymynrrsw,2RrYeJut,2020-0188,2020-06-15,15:20:03,15:40:04,NA,incomplete,12,shape,1,left,Red_Triangle_Grid_1.jpg,Purple_Triangle_Dots_3.jpg,Blue_Plus_Grid_2.jpg,left,939.1899999754969,true,high,false
2RrYeJut,3peg1bh7bh4xuzsxamnfbz6ha40bkr,3b837j3lds9kl9ko2un9rkymynrrsw,2RrYeJut,2020-0188,2020-06-15,15:20:03,15:40:04,NA,incomplete,13,shape,1,right,Purple_Star_Stripes_3.jpg,Green_Circle_Stripes_2.jpg,Red_Star_Dots_1.jpg,right,1071.925000025658,true,high,false
2RrYeJut,3peg1bh7bh4xuzsxamnfbz6ha40bkr,3b837j3lds9kl9ko2un9rkymynrrsw,2RrYeJut,2020-0188,2020-06-15,15:20:03,15:40:04,NA,incomplete,14,shape,0,right,Red_Circle_Stripes_2.jpg,Blue_Triangle_Stripes_3.jpg,Purple_Circle_Chess_4.jpg,right,930.9749999956694,true,high,false
2RrYeJut,3peg1bh7bh4xuzsxamnfbz6ha40bkr,3b837j3lds9kl9ko2un9rkymynrrsw,2RrYeJut,2020-0188,2020-06-15,15:20:03,15:40:04,NA,incomplete,15,shape,0,right,Green_Star_Grid_4.jpg,Blue_Triangle_Grid_3.jpg,Red_Star_Chess_1.jpg,right,881.4649999840185,true,high,false
2RrYeJut,3peg1bh7bh4xuzsxamnfbz6ha40bkr,3b837j3lds9kl9ko2un9rkymynrrsw,2RrYeJut,2020-0188,2020-06-15,15:20:03,15:40:04,NA,incomplete,16,shape,1,left,Red_Circle_Dots_2.jpg,Purple_Circle_Grid_4.jpg,Green_Triangle_Dots_1.jpg,left,857.83499997342,true,high,false
2RrYeJut,3peg1bh7bh4xuzsxamnfbz6ha40bkr,3b837j3lds9kl9ko2un9rkymynrrsw,2RrYeJut,2020-0188,2020-06-15,15:20:03,15:40:04,NA,incomplete,17,shape,0,right,Purple_Star_Chess_3.jpg,Blue_Circle_Chess_4.jpg,Red_Star_Stripes_1.jpg,none,0,false,high,false
2RrYeJut,3peg1bh7bh4xuzsxamnfbz6ha40bkr,3b837j3lds9kl9ko2un9rkymynrrsw,2RrYeJut,2020-0188,2020-06-15,15:20:03,15:40:04,NA,incomplete,18,shape,1,left,Green_Star_Dots_1.jpg,Purple_Star_Stripes_4.jpg,Red_Triangle_Dots_2.jpg,left,783.7550000112969,true,high,false
2RrYeJut,3peg1bh7bh4xuzsxamnfbz6ha40bkr,3b837j3lds9kl9ko2un9rkymynrrsw,2RrYeJut,2020-0188,2020-06-15,15:20:03,15:40:04,NA,incomplete,19,shape,1,left,Green_Triangle_Stripes_3.jpg,Blue_Triangle_Grid_1.jpg,Red_Star_Stripes_4.jpg,left,1404.8799999873154,true,high,false
2RrYeJut,3peg1bh7bh4xuzsxamnfbz6ha40bkr,3b837j3lds9kl9ko2un9rkymynrrsw,2RrYeJut,2020-0188,2020-06-15,15:20:03,15:40:04,NA,incomplete,20,filling,0,right,Green_Circle_Grid_3.jpg,Blue_Circle_Dots_1.jpg,Red_Plus_Grid_2.jpg,left,1144.945000007283,false,high,false
2RrYeJut,3peg1bh7bh4xuzsxamnfbz6ha40bkr,3b837j3lds9kl9ko2un9rkymynrrsw,2RrYeJut,2020-0188,2020-06-15,15:20:03,15:40:04,NA,incomplete,21,filling,1,left,Green_Triangle_Dots_4.jpg,Red_Star_Dots_3.jpg,Purple_Triangle_Stripes_1.jpg,right,1455.9799999988172,false,high,false
2RrYeJut,3peg1bh7bh4xuzsxamnfbz6ha40bkr,3b837j3lds9kl9ko2un9rkymynrrsw,2RrYeJut,2020-0188,2020-06-15,15:20:03,15:40:04,NA,incomplete,22,filling,0,right,Red_Star_Chess_3.jpg,Blue_Star_Stripes_2.jpg,Purple_Triangle_Chess_4.jpg,left,1439.6800000104122,false,high,false
2RrYeJut,3peg1bh7bh4xuzsxamnfbz6ha40bkr,3b837j3lds9kl9ko2un9rkymynrrsw,2RrYeJut,2020-0188,2020-06-15,15:20:03,15:40:04,NA,incomplete,23,filling,1,right,Purple_Plus_Grid_3.jpg,Red_Plus_Chess_4.jpg,Blue_Star_Grid_2.jpg,left,1050.054999999702,false,high,false
2RrYeJut,3peg1bh7bh4xuzsxamnfbz6ha40bkr,3b837j3lds9kl9ko2un9rkymynrrsw,2RrYeJut,2020-0188,2020-06-15,15:20:03,15:40:04,NA,incomplete,24,filling,1,right,Purple_Triangle_Grid_2.jpg,Red_Triangle_Dots_3.jpg,Blue_Star_Grid_1.jpg,none,0,false,high,false
2RrYeJut,3peg1bh7bh4xuzsxamnfbz6ha40bkr,3b837j3lds9kl9ko2un9rkymynrrsw,2RrYeJut,2020-0188,2020-06-15,15:20:03,15:40:04,NA,incomplete,25,filling,1,left,Purple_Triangle_Stripes_3.jpg,Red_Star_Stripes_1.jpg,Blue_Triangle_Dots_4.jpg,left,1913.0949999962468,true,high,false
2RrYeJut,3peg1bh7bh4xuzsxamnfbz6ha40bkr,3b837j3lds9kl9ko2un9rkymynrrsw,2RrYeJut,2020-0188,2020-06-15,15:20:03,15:40:04,NA,incomplete,26,filling,1,right,Blue_Circle_Stripes_3.jpg,Purple_Circle_Dots_4.jpg,Red_Star_Stripes_2.jpg,left,1513.2549999980256,false,high,false
2RrYeJut,3peg1bh7bh4xuzsxamnfbz6ha40bkr,3b837j3lds9kl9ko2un9rkymynrrsw,2RrYeJut,2020-0188,2020-06-15,15:20:03,15:40:04,NA,incomplete,27,filling,1,left,Red_Plus_Grid_3.jpg,Green_Circle_Grid_2.jpg,Blue_Plus_Stripes_4.jpg,left,1320.5450000241399,true,high,false
2RrYeJut,3peg1bh7bh4xuzsxamnfbz6ha40bkr,3b837j3lds9kl9ko2un9rkymynrrsw,2RrYeJut,2020-0188,2020-06-15,15:20:03,15:40:04,NA,incomplete,28,filling,1,right,Red_Plus_Grid_1.jpg,Purple_Plus_Dots_3.jpg,Blue_Triangle_Grid_4.jpg,right,1015.914999996312,true,high,false
2RrYeJut,3peg1bh7bh4xuzsxamnfbz6ha40bkr,3b837j3lds9kl9ko2un9rkymynrrsw,2RrYeJut,2020-0188,2020-06-15,15:20:03,15:40:04,NA,incomplete,29,filling,1,right,Green_Plus_Dots_1.jpg,Purple_Plus_Grid_4.jpg,Blue_Triangle_Dots_2.jpg,right,1234.8500000080094,true,high,false
2RrYeJut,3peg1bh7bh4xuzsxamnfbz6ha40bkr,3b837j3lds9kl9ko2un9rkymynrrsw,2RrYeJut,2020-0188,2020-06-15,15:20:03,15:40:04,NA,incomplete,30,shape,1,right,Green_Star_Grid_2.jpg,Blue_Triangle_Grid_3.jpg,Red_Star_Chess_1.jpg,left,1342.000000004191,false,high,false
2RrYeJut,3peg1bh7bh4xuzsxamnfbz6ha40bkr,3b837j3lds9kl9ko2un9rkymynrrsw,2RrYeJut,2020-0188,2020-06-15,15:20:03,15:40:04,NA,incomplete,31,shape,0,right,Blue_Triangle_Dots_4.jpg,Purple_Circle_Dots_3.jpg,Green_Triangle_Chess_1.jpg,left,1098.8699999870732,false,high,false
2RrYeJut,3peg1bh7bh4xuzsxamnfbz6ha40bkr,3b837j3lds9kl9ko2un9rkymynrrsw,2RrYeJut,2020-0188,2020-06-15,15:20:03,15:40:04,NA,incomplete,32,shape,1,right,Red_Plus_Grid_1.jpg,Blue_Star_Grid_2.jpg,Purple_Plus_Stripes_3.jpg,left,1428.2200000016019,false,high,false
2RrYeJut,3peg1bh7bh4xuzsxamnfbz6ha40bkr,3b837j3lds9kl9ko2un9rkymynrrsw,2RrYeJut,2020-0188,2020-06-15,15:20:03,15:40:04,NA,incomplete,33,shape,1,right,Red_Circle_Dots_2.jpg,Blue_Plus_Dots_1.jpg,Purple_Circle_Chess_3.jpg,left,1238.4449999954086,false,high,false
2RrYeJut,3peg1bh7bh4xuzsxamnfbz6ha40bkr,3b837j3lds9kl9ko2un9rkymynrrsw,2RrYeJut,2020-0188,2020-06-15,15:20:03,15:40:04,NA,incomplete,34,shape,1,left,Green_Circle_Chess_1.jpg,Blue_Circle_Dots_4.jpg,Red_Star_Chess_2.jpg,right,1176.454999978887,false,high,false
2RrYeJut,3peg1bh7bh4xuzsxamnfbz6ha40bkr,3b837j3lds9kl9ko2un9rkymynrrsw,2RrYeJut,2020-0188,2020-06-15,15:20:03,15:40:04,NA,incomplete,35,shape,1,right,Blue_Circle_Chess_4.jpg,Green_Star_Chess_1.jpg,Red_Circle_Grid_2.jpg,right,1245.7450000219978,true,high,false
2RrYeJut,3peg1bh7bh4xuzsxamnfbz6ha40bkr,3b837j3lds9kl9ko2un9rkymynrrsw,2RrYeJut,2020-0188,2020-06-15,15:20:03,15:40:04,NA,incomplete,36,shape,0,right,Green_Plus_Grid_2.jpg,Blue_Circle_Grid_1.jpg,Red_Plus_Dots_3.jpg,right,1232.5599999749102,true,high,false
2RrYeJut,3peg1bh7bh4xuzsxamnfbz6ha40bkr,3b837j3lds9kl9ko2un9rkymynrrsw,2RrYeJut,2020-0188,2020-06-15,15:20:03,15:40:04,NA,incomplete,37,shape,1,right,Green_Plus_Grid_3.jpg,Blue_Circle_Grid_1.jpg,Red_Plus_Chess_2.jpg,left,1176.2350000208244,false,high,false
2RrYeJut,3peg1bh7bh4xuzsxamnfbz6ha40bkr,3b837j3lds9kl9ko2un9rkymynrrsw,2RrYeJut,2020-0188,2020-06-15,15:20:03,15:40:04,NA,incomplete,38,shape,1,left,Purple_Star_Chess_3.jpg,Green_Star_Dots_4.jpg,Blue_Triangle_Chess_1.jpg,right,1248.364999977639,false,high,false
2RrYeJut,3peg1bh7bh4xuzsxamnfbz6ha40bkr,3b837j3lds9kl9ko2un9rkymynrrsw,2RrYeJut,2020-0188,2020-06-15,15:20:03,15:40:04,NA,incomplete,39,shape,1,right,Red_Plus_Stripes_1.jpg,Purple_Star_Stripes_3.jpg,Blue_Plus_Grid_4.jpg,left,1265.9500000008848,false,high,false
2RrYeJut,3peg1bh7bh4xuzsxamnfbz6ha40bkr,3b837j3lds9kl9ko2un9rkymynrrsw,2RrYeJut,2020-0188,2020-06-15,15:20:03,15:40:04,NA,incomplete,40,filling,0,right,Green_Plus_Grid_3.jpg,Blue_Plus_Chess_4.jpg,Purple_Circle_Grid_1.jpg,left,907.3999999964144,false,high,false
2RrYeJut,3peg1bh7bh4xuzsxamnfbz6ha40bkr,3b837j3lds9kl9ko2un9rkymynrrsw,2RrYeJut,2020-0188,2020-06-15,15:20:03,15:40:04,NA,incomplete,41,filling,1,right,Purple_Circle_Grid_2.jpg,Red_Circle_Chess_4.jpg,Green_Triangle_Grid_1.jpg,right,1491.3149999920279,true,high,false
2RrYeJut,3peg1bh7bh4xuzsxamnfbz6ha40bkr,3b837j3lds9kl9ko2un9rkymynrrsw,2RrYeJut,2020-0188,2020-06-15,15:20:03,15:40:04,NA,incomplete,42,filling,1,left,Blue_Circle_Chess_3.jpg,Green_Star_Chess_2.jpg,Red_Circle_Stripes_4.jpg,left,1523.5999999858905,true,high,false
2RrYeJut,3peg1bh7bh4xuzsxamnfbz6ha40bkr,3b837j3lds9kl9ko2un9rkymynrrsw,2RrYeJut,2020-0188,2020-06-15,15:20:03,15:40:04,NA,incomplete,43,filling,0,right,Green_Star_Stripes_3.jpg,Purple_Star_Chess_1.jpg,Red_Plus_Stripes_2.jpg,right,1225.4599999869242,true,high,false
2RrYeJut,3peg1bh7bh4xuzsxamnfbz6ha40bkr,3b837j3lds9kl9ko2un9rkymynrrsw,2RrYeJut,2020-0188,2020-06-15,15:20:03,15:40:04,NA,incomplete,44,filling,1,left,Purple_Triangle_Stripes_2.jpg,Blue_Circle_Stripes_4.jpg,Green_Triangle_Chess_1.jpg,left,918.6549999867566,true,high,false
2RrYeJut,3peg1bh7bh4xuzsxamnfbz6ha40bkr,3b837j3lds9kl9ko2un9rkymynrrsw,2RrYeJut,2020-0188,2020-06-15,15:20:03,15:40:04,NA,incomplete,45,filling,1,right,Purple_Plus_Stripes_1.jpg,Green_Plus_Dots_4.jpg,Red_Star_Stripes_3.jpg,right,915.5550000141375,true,high,false
2RrYeJut,3peg1bh7bh4xuzsxamnfbz6ha40bkr,3b837j3lds9kl9ko2un9rkymynrrsw,2RrYeJut,2020-0188,2020-06-15,15:20:03,15:40:04,NA,incomplete,46,filling,1,right,Green_Circle_Dots_2.jpg,Purple_Circle_Stripes_3.jpg,Red_Star_Dots_1.jpg,right,1091.0000000149012,true,high,false
2RrYeJut,3peg1bh7bh4xuzsxamnfbz6ha40bkr,3b837j3lds9kl9ko2un9rkymynrrsw,2RrYeJut,2020-0188,2020-06-15,15:20:03,15:40:04,NA,incomplete,47,filling,1,right,Purple_Star_Dots_2.jpg,Green_Star_Grid_4.jpg,Blue_Circle_Dots_1.jpg,right,1347.4850000056904,true,high,false
2RrYeJut,3peg1bh7bh4xuzsxamnfbz6ha40bkr,3b837j3lds9kl9ko2un9rkymynrrsw,2RrYeJut,2020-0188,2020-06-15,15:20:03,15:40:04,NA,incomplete,48,filling,1,right,Blue_Triangle_Chess_2.jpg,Purple_Triangle_Dots_3.jpg,Red_Star_Chess_1.jpg,right,1042.5950000062585,true,high,false
2RrYeJut,3peg1bh7bh4xuzsxamnfbz6ha40bkr,3b837j3lds9kl9ko2un9rkymynrrsw,2RrYeJut,2020-0188,2020-06-15,15:20:03,15:40:04,NA,incomplete,49,filling,1,left,Red_Plus_Chess_3.jpg,Green_Triangle_Chess_2.jpg,Purple_Plus_Stripes_1.jpg,left,1123.7850000034086,true,high,false
2RrYeJut,3peg1bh7bh4xuzsxamnfbz6ha40bkr,3b837j3lds9kl9ko2un9rkymynrrsw,2RrYeJut,2020-0188,2020-06-15,15:20:03,15:40:04,NA,incomplete,50,shape,1,right,Red_Star_Chess_2.jpg,Green_Circle_Chess_4.jpg,Blue_Star_Dots_3.jpg,left,963.0849999957718,false,high,false
2RrYeJut,3peg1bh7bh4xuzsxamnfbz6ha40bkr,3b837j3lds9kl9ko2un9rkymynrrsw,2RrYeJut,2020-0188,2020-06-15,15:20:03,15:40:04,NA,incomplete,51,shape,1,left,Blue_Circle_Grid_3.jpg,Green_Circle_Stripes_1.jpg,Red_Plus_Grid_2.jpg,right,1288.5100000130478,false,high,false
2RrYeJut,3peg1bh7bh4xuzsxamnfbz6ha40bkr,3b837j3lds9kl9ko2un9rkymynrrsw,2RrYeJut,2020-0188,2020-06-15,15:20:03,15:40:04,NA,incomplete,52,shape,1,right,Green_Star_Dots_1.jpg,Red_Triangle_Dots_4.jpg,Purple_Star_Chess_2.jpg,left,1288.7849999824539,false,high,false
2RrYeJut,3peg1bh7bh4xuzsxamnfbz6ha40bkr,3b837j3lds9kl9ko2un9rkymynrrsw,2RrYeJut,2020-0188,2020-06-15,15:20:03,15:40:04,NA,incomplete,53,shape,1,right,Purple_Plus_Chess_4.jpg,Red_Circle_Chess_1.jpg,Blue_Plus_Stripes_2.jpg,right,1364.8700000194367,true,high,false
2RrYeJut,3peg1bh7bh4xuzsxamnfbz6ha40bkr,3b837j3lds9kl9ko2un9rkymynrrsw,2RrYeJut,2020-0188,2020-06-15,15:20:03,15:40:04,NA,incomplete,54,shape,1,right,Purple_Triangle_Stripes_3.jpg,Blue_Circle_Stripes_4.jpg,Green_Triangle_Chess_2.jpg,right,1198.1599999999162,true,high,false
2RrYeJut,3peg1bh7bh4xuzsxamnfbz6ha40bkr,3b837j3lds9kl9ko2un9rkymynrrsw,2RrYeJut,2020-0188,2020-06-15,15:20:03,15:40:04,NA,incomplete,55,shape,1,right,Blue_Star_Dots_4.jpg,Red_Plus_Dots_2.jpg,Purple_Star_Grid_1.jpg,right,1035.844999976689,true,high,false
2RrYeJut,3peg1bh7bh4xuzsxamnfbz6ha40bkr,3b837j3lds9kl9ko2un9rkymynrrsw,2RrYeJut,2020-0188,2020-06-15,15:20:03,15:40:04,NA,incomplete,56,shape,1,left,Red_Star_Stripes_3.jpg,Green_Star_Dots_1.jpg,Blue_Circle_Stripes_2.jpg,left,845.5650000250898,true,high,false
2RrYeJut,3peg1bh7bh4xuzsxamnfbz6ha40bkr,3b837j3lds9kl9ko2un9rkymynrrsw,2RrYeJut,2020-0188,2020-06-15,15:20:03,15:40:04,NA,incomplete,57,shape,1,left,Red_Plus_Chess_3.jpg,Green_Plus_Dots_1.jpg,Blue_Star_Chess_4.jpg,left,1575.7350000203587,true,high,false
2RrYeJut,3peg1bh7bh4xuzsxamnfbz6ha40bkr,3b837j3lds9kl9ko2un9rkymynrrsw,2RrYeJut,2020-0188,2020-06-15,15:20:03,15:40:04,NA,incomplete,58,shape,1,left,Green_Star_Dots_1.jpg,Red_Star_Stripes_2.jpg,Blue_Triangle_Dots_3.jpg,left,1252.1399999968708,true,high,false
2RrYeJut,3peg1bh7bh4xuzsxamnfbz6ha40bkr,3b837j3lds9kl9ko2un9rkymynrrsw,2RrYeJut,2020-0188,2020-06-15,15:20:03,15:40:04,NA,incomplete,59,shape,0,right,Green_Plus_Grid_2.jpg,Purple_Circle_Grid_4.jpg,Blue_Plus_Chess_1.jpg,right,853.560000017751,true,high,false
2RrYeJut,3peg1bh7bh4xuzsxamnfbz6ha40bkr,3b837j3lds9kl9ko2un9rkymynrrsw,2RrYeJut,2020-0188,2020-06-15,15:20:03,15:40:04,NA,incomplete,60,filling,1,left,Blue_Plus_Chess_3.jpg,Red_Star_Chess_4.jpg,Purple_Plus_Dots_1.jpg,left,1423.929999989923,true,high,false
2RrYeJut,3peg1bh7bh4xuzsxamnfbz6ha40bkr,3b837j3lds9kl9ko2un9rkymynrrsw,2RrYeJut,2020-0188,2020-06-15,15:20:03,15:40:04,NA,incomplete,61,filling,1,left,Red_Circle_Stripes_2.jpg,Blue_Star_Stripes_1.jpg,Purple_Circle_Dots_4.jpg,left,1395.0550000008661,true,high,false
2RrYeJut,3peg1bh7bh4xuzsxamnfbz6ha40bkr,3b837j3lds9kl9ko2un9rkymynrrsw,2RrYeJut,2020-0188,2020-06-15,15:20:03,15:40:04,NA,incomplete,62,filling,1,left,Green_Star_Grid_1.jpg,Purple_Triangle_Grid_2.jpg,Blue_Star_Stripes_3.jpg,left,1270.1799999922514,true,high,false
2RrYeJut,3peg1bh7bh4xuzsxamnfbz6ha40bkr,3b837j3lds9kl9ko2un9rkymynrrsw,2RrYeJut,2020-0188,2020-06-15,15:20:03,15:40:04,NA,incomplete,63,filling,1,left,Purple_Plus_Chess_3.jpg,Green_Triangle_Chess_2.jpg,Red_Plus_Grid_1.jpg,left,1296.0199999797624,true,high,false
2RrYeJut,3peg1bh7bh4xuzsxamnfbz6ha40bkr,3b837j3lds9kl9ko2un9rkymynrrsw,2RrYeJut,2020-0188,2020-06-15,15:20:03,15:40:04,NA,incomplete,64,filling,1,right,Green_Circle_Grid_2.jpg,Red_Circle_Chess_3.jpg,Purple_Triangle_Grid_1.jpg,right,1711.6749999986496,true,high,false
2RrYeJut,3peg1bh7bh4xuzsxamnfbz6ha40bkr,3b837j3lds9kl9ko2un9rkymynrrsw,2RrYeJut,2020-0188,2020-06-15,15:20:03,15:40:04,NA,incomplete,65,filling,1,left,Green_Plus_Dots_1.jpg,Blue_Triangle_Dots_2.jpg,Red_Plus_Grid_3.jpg,left,1103.0049999826588,true,high,false
2RrYeJut,3peg1bh7bh4xuzsxamnfbz6ha40bkr,3b837j3lds9kl9ko2un9rkymynrrsw,2RrYeJut,2020-0188,2020-06-15,15:20:03,15:40:04,NA,incomplete,66,filling,1,left,Green_Plus_Grid_1.jpg,Red_Circle_Grid_3.jpg,Blue_Plus_Dots_4.jpg,left,1318.1550000153948,true,high,false
2RrYeJut,3peg1bh7bh4xuzsxamnfbz6ha40bkr,3b837j3lds9kl9ko2un9rkymynrrsw,2RrYeJut,2020-0188,2020-06-15,15:20:03,15:40:04,NA,incomplete,67,filling,0,left,Blue_Star_Chess_4.jpg,Purple_Plus_Chess_3.jpg,Red_Star_Dots_1.jpg,left,980.6899999966845,true,high,false
2RrYeJut,3peg1bh7bh4xuzsxamnfbz6ha40bkr,3b837j3lds9kl9ko2un9rkymynrrsw,2RrYeJut,2020-0188,2020-06-15,15:20:03,15:40:04,NA,incomplete,68,filling,1,right,Green_Star_Grid_2.jpg,Purple_Star_Chess_3.jpg,Red_Triangle_Grid_1.jpg,right,1650.9699999878649,true,high,false
2RrYeJut,3peg1bh7bh4xuzsxamnfbz6ha40bkr,3b837j3lds9kl9ko2un9rkymynrrsw,2RrYeJut,2020-0188,2020-06-15,15:20:03,15:40:04,NA,incomplete,69,filling,1,left,Red_Circle_Chess_1.jpg,Blue_Star_Chess_4.jpg,Green_Circle_Grid_2.jpg,left,1156.3050000113435,true,high,false
2RrYeJut,3peg1bh7bh4xuzsxamnfbz6ha40bkr,3b837j3lds9kl9ko2un9rkymynrrsw,2RrYeJut,2020-0188,2020-06-15,15:20:03,15:40:04,NA,incomplete,70,shape,1,right,Purple_Triangle_Stripes_4.jpg,Red_Circle_Stripes_2.jpg,Blue_Triangle_Chess_1.jpg,left,945.5249999882653,false,high,false
2RrYeJut,3peg1bh7bh4xuzsxamnfbz6ha40bkr,3b837j3lds9kl9ko2un9rkymynrrsw,2RrYeJut,2020-0188,2020-06-15,15:20:03,15:40:04,NA,incomplete,71,shape,1,right,Green_Triangle_Stripes_1.jpg,Purple_Star_Stripes_2.jpg,Red_Triangle_Dots_4.jpg,left,1095.0450000236742,false,high,false
2RrYeJut,3peg1bh7bh4xuzsxamnfbz6ha40bkr,3b837j3lds9kl9ko2un9rkymynrrsw,2RrYeJut,2020-0188,2020-06-15,15:20:03,15:40:04,NA,incomplete,72,shape,1,right,Purple_Star_Chess_3.jpg,Green_Circle_Chess_4.jpg,Red_Star_Stripes_2.jpg,right,1416.8599999975413,true,high,false
2RrYeJut,3peg1bh7bh4xuzsxamnfbz6ha40bkr,3b837j3lds9kl9ko2un9rkymynrrsw,2RrYeJut,2020-0188,2020-06-15,15:20:03,15:40:04,NA,incomplete,73,shape,1,left,Blue_Star_Grid_2.jpg,Red_Star_Stripes_4.jpg,Purple_Triangle_Grid_1.jpg,left,851.8850000109524,true,high,false
2RrYeJut,3peg1bh7bh4xuzsxamnfbz6ha40bkr,3b837j3lds9kl9ko2un9rkymynrrsw,2RrYeJut,2020-0188,2020-06-15,15:20:03,15:40:04,NA,incomplete,74,shape,1,left,Red_Star_Stripes_3.jpg,Purple_Star_Grid_2.jpg,Blue_Triangle_Stripes_4.jpg,left,869.4150000228547,true,high,false
2RrYeJut,3peg1bh7bh4xuzsxamnfbz6ha40bkr,3b837j3lds9kl9ko2un9rkymynrrsw,2RrYeJut,2020-0188,2020-06-15,15:20:03,15:40:04,NA,incomplete,75,shape,1,left,Green_Circle_Dots_1.jpg,Blue_Circle_Stripes_4.jpg,Purple_Star_Dots_2.jpg,left,1541.9849999889266,true,high,false
2RrYeJut,3peg1bh7bh4xuzsxamnfbz6ha40bkr,3b837j3lds9kl9ko2un9rkymynrrsw,2RrYeJut,2020-0188,2020-06-15,15:20:03,15:40:04,NA,incomplete,76,shape,1,left,Purple_Plus_Dots_2.jpg,Red_Plus_Grid_3.jpg,Green_Star_Dots_4.jpg,left,908.1900000164751,true,high,false
2RrYeJut,3peg1bh7bh4xuzsxamnfbz6ha40bkr,3b837j3lds9kl9ko2un9rkymynrrsw,2RrYeJut,2020-0188,2020-06-15,15:20:03,15:40:04,NA,incomplete,77,shape,1,right,Green_Plus_Stripes_3.jpg,Red_Star_Stripes_2.jpg,Purple_Plus_Dots_4.jpg,right,972.0699999888893,true,high,false
2RrYeJut,3peg1bh7bh4xuzsxamnfbz6ha40bkr,3b837j3lds9kl9ko2un9rkymynrrsw,2RrYeJut,2020-0188,2020-06-15,15:20:03,15:40:04,NA,incomplete,78,shape,1,right,Purple_Star_Dots_2.jpg,Green_Circle_Dots_4.jpg,Blue_Star_Grid_3.jpg,right,966.9400000129826,true,high,false
2RrYeJut,3peg1bh7bh4xuzsxamnfbz6ha40bkr,3b837j3lds9kl9ko2un9rkymynrrsw,2RrYeJut,2020-0188,2020-06-15,15:20:03,15:40:04,NA,incomplete,79,shape,1,left,Green_Triangle_Stripes_4.jpg,Red_Triangle_Chess_3.jpg,Blue_Plus_Stripes_1.jpg,left,758.5799999942537,true,high,false
2RrYeJut,3peg1bh7bh4xuzsxamnfbz6ha40bkr,3b837j3lds9kl9ko2un9rkymynrrsw,2RrYeJut,2020-0188,2020-06-15,15:20:03,15:40:04,NA,incomplete,80,filling,0,left,Green_Triangle_Chess_3.jpg,Blue_Star_Chess_2.jpg,Purple_Triangle_Stripes_4.jpg,right,1443.5750000120606,false,high,false
2RrYeJut,3peg1bh7bh4xuzsxamnfbz6ha40bkr,3b837j3lds9kl9ko2un9rkymynrrsw,2RrYeJut,2020-0188,2020-06-15,15:20:03,15:40:04,NA,incomplete,81,filling,1,right,Red_Plus_Grid_2.jpg,Green_Plus_Stripes_1.jpg,Purple_Star_Grid_4.jpg,left,949.5250000036322,false,high,false
2RrYeJut,3peg1bh7bh4xuzsxamnfbz6ha40bkr,3b837j3lds9kl9ko2un9rkymynrrsw,2RrYeJut,2020-0188,2020-06-15,15:20:03,15:40:04,NA,incomplete,82,filling,0,right,Green_Star_Grid_2.jpg,Red_Star_Chess_3.jpg,Purple_Plus_Grid_1.jpg,left,987.7350000024308,false,high,false
2RrYeJut,3peg1bh7bh4xuzsxamnfbz6ha40bkr,3b837j3lds9kl9ko2un9rkymynrrsw,2RrYeJut,2020-0188,2020-06-15,15:20:03,15:40:04,NA,incomplete,83,filling,1,left,Red_Triangle_Chess_4.jpg,Purple_Star_Chess_3.jpg,Green_Triangle_Grid_2.jpg,right,1608.120000018971,false,high,false
2RrYeJut,3peg1bh7bh4xuzsxamnfbz6ha40bkr,3b837j3lds9kl9ko2un9rkymynrrsw,2RrYeJut,2020-0188,2020-06-15,15:20:03,15:40:04,NA,incomplete,84,filling,0,right,Green_Star_Stripes_3.jpg,Purple_Star_Chess_2.jpg,Red_Triangle_Stripes_1.jpg,left,907.069999986561,false,high,false
2RrYeJut,3peg1bh7bh4xuzsxamnfbz6ha40bkr,3b837j3lds9kl9ko2un9rkymynrrsw,2RrYeJut,2020-0188,2020-06-15,15:20:03,15:40:04,NA,incomplete,85,filling,1,left,Blue_Circle_Chess_3.jpg,Red_Star_Chess_4.jpg,Green_Circle_Dots_2.jpg,right,938.880000001518,false,high,false
2RrYeJut,3peg1bh7bh4xuzsxamnfbz6ha40bkr,3b837j3lds9kl9ko2un9rkymynrrsw,2RrYeJut,2020-0188,2020-06-15,15:20:03,15:40:04,NA,incomplete,86,filling,0,left,Purple_Circle_Dots_2.jpg,Green_Star_Dots_1.jpg,Blue_Circle_Grid_4.jpg,right,841.149999992922,false,high,false
2RrYeJut,3peg1bh7bh4xuzsxamnfbz6ha40bkr,3b837j3lds9kl9ko2un9rkymynrrsw,2RrYeJut,2020-0188,2020-06-15,15:20:03,15:40:04,NA,incomplete,87,filling,1,right,Blue_Circle_Chess_4.jpg,Green_Circle_Dots_2.jpg,Purple_Star_Chess_3.jpg,left,946.9699999899603,false,high,false
2RrYeJut,3peg1bh7bh4xuzsxamnfbz6ha40bkr,3b837j3lds9kl9ko2un9rkymynrrsw,2RrYeJut,2020-0188,2020-06-15,15:20:03,15:40:04,NA,incomplete,88,filling,1,right,Purple_Plus_Dots_3.jpg,Green_Plus_Stripes_2.jpg,Blue_Star_Dots_1.jpg,left,1074.2899999895599,false,high,false
2RrYeJut,3peg1bh7bh4xuzsxamnfbz6ha40bkr,3b837j3lds9kl9ko2un9rkymynrrsw,2RrYeJut,2020-0188,2020-06-15,15:20:03,15:40:04,NA,incomplete,89,filling,1,right,Blue_Circle_Stripes_1.jpg,Purple_Circle_Dots_2.jpg,Green_Star_Stripes_4.jpg,left,1130.6400000175927,false,high,false
2RrYeJut,3peg1bh7bh4xuzsxamnfbz6ha40bkr,3b837j3lds9kl9ko2un9rkymynrrsw,2RrYeJut,2020-0188,2020-06-15,15:20:03,15:40:04,NA,incomplete,90,shape,1,left,Green_Star_Grid_1.jpg,Purple_Star_Chess_2.jpg,Blue_Plus_Grid_4.jpg,right,1042.524999997113,false,high,false
2RrYeJut,3peg1bh7bh4xuzsxamnfbz6ha40bkr,3b837j3lds9kl9ko2un9rkymynrrsw,2RrYeJut,2020-0188,2020-06-15,15:20:03,15:40:04,NA,incomplete,91,shape,1,right,Blue_Triangle_Dots_2.jpg,Purple_Circle_Dots_3.jpg,Green_Triangle_Chess_1.jpg,left,1395.9599999943748,false,high,false
2RrYeJut,3peg1bh7bh4xuzsxamnfbz6ha40bkr,3b837j3lds9kl9ko2un9rkymynrrsw,2RrYeJut,2020-0188,2020-06-15,15:20:03,15:40:04,NA,incomplete,92,shape,1,left,Blue_Plus_Dots_3.jpg,Red_Plus_Grid_4.jpg,Green_Circle_Dots_2.jpg,left,1416.174999991199,true,high,false
2RrYeJut,3peg1bh7bh4xuzsxamnfbz6ha40bkr,3b837j3lds9kl9ko2un9rkymynrrsw,2RrYeJut,2020-0188,2020-06-15,15:20:03,15:40:04,NA,incomplete,93,shape,1,right,Green_Star_Chess_4.jpg,Red_Plus_Chess_2.jpg,Blue_Star_Dots_3.jpg,left,1404.58000000217,false,high,false
2RrYeJut,3peg1bh7bh4xuzsxamnfbz6ha40bkr,3b837j3lds9kl9ko2un9rkymynrrsw,2RrYeJut,2020-0188,2020-06-15,15:20:03,15:40:04,NA,incomplete,94,shape,1,right,Purple_Plus_Chess_4.jpg,Green_Triangle_Chess_2.jpg,Red_Plus_Stripes_1.jpg,left,1750.7899999909569,false,high,false
2RrYeJut,3peg1bh7bh4xuzsxamnfbz6ha40bkr,3b837j3lds9kl9ko2un9rkymynrrsw,2RrYeJut,2020-0188,2020-06-15,15:20:03,15:40:04,NA,incomplete,95,shape,0,left,Green_Triangle_Chess_2.jpg,Purple_Triangle_Dots_3.jpg,Blue_Plus_Chess_4.jpg,none,0,false,high,false
2RrYeJut,3peg1bh7bh4xuzsxamnfbz6ha40bkr,3b837j3lds9kl9ko2un9rkymynrrsw,2RrYeJut,2020-0188,2020-06-15,15:20:03,15:40:04,NA,incomplete,96,shape,1,left,Red_Star_Stripes_3.jpg,Blue_Star_Grid_4.jpg,Green_Plus_Stripes_1.jpg,right,1299.044999992475,false,high,false
2RrYeJut,3peg1bh7bh4xuzsxamnfbz6ha40bkr,3b837j3lds9kl9ko2un9rkymynrrsw,2RrYeJut,2020-0188,2020-06-15,15:20:03,15:40:04,NA,incomplete,97,shape,1,right,Purple_Circle_Grid_3.jpg,Blue_Star_Grid_1.jpg,Green_Circle_Chess_2.jpg,right,1763.024999992922,true,high,false
2RrYeJut,3peg1bh7bh4xuzsxamnfbz6ha40bkr,3b837j3lds9kl9ko2un9rkymynrrsw,2RrYeJut,2020-0188,2020-06-15,15:20:03,15:40:04,NA,incomplete,98,shape,1,left,Green_Plus_Dots_3.jpg,Blue_Plus_Chess_4.jpg,Red_Triangle_Dots_1.jpg,left,1184.6049999876413,true,high,false
2RrYeJut,3peg1bh7bh4xuzsxamnfbz6ha40bkr,3b837j3lds9kl9ko2un9rkymynrrsw,2RrYeJut,2020-0188,2020-06-15,15:20:03,15:40:04,NA,incomplete,99,shape,1,left,Red_Star_Chess_3.jpg,Purple_Star_Dots_4.jpg,Blue_Triangle_Chess_1.jpg,right,1260.115000011865,false,high,false
2RrYeJut,3peg1bh7bh4xuzsxamnfbz6ha40bkr,3b837j3lds9kl9ko2un9rkymynrrsw,2RrYeJut,2020-0188,2020-06-15,15:20:03,15:40:04,NA,incomplete,100,filling,1,right,Green_Star_Chess_2.jpg,Blue_Star_Dots_1.jpg,Purple_Circle_Chess_4.jpg,right,1774.2049999942537,true,high,false
2RrYeJut,3peg1bh7bh4xuzsxamnfbz6ha40bkr,3b837j3lds9kl9ko2un9rkymynrrsw,2RrYeJut,2020-0188,2020-06-15,15:20:03,15:40:04,NA,incomplete,101,filling,1,right,Purple_Triangle_Stripes_3.jpg,Green_Triangle_Grid_4.jpg,Blue_Star_Stripes_1.jpg,left,1387.1349999972153,false,high,false
2RrYeJut,3peg1bh7bh4xuzsxamnfbz6ha40bkr,3b837j3lds9kl9ko2un9rkymynrrsw,2RrYeJut,2020-0188,2020-06-15,15:20:03,15:40:04,NA,incomplete,102,filling,1,right,Green_Plus_Stripes_4.jpg,Blue_Plus_Dots_2.jpg,Purple_Circle_Stripes_1.jpg,right,1063.6800000211224,true,high,false
2RrYeJut,3peg1bh7bh4xuzsxamnfbz6ha40bkr,3b837j3lds9kl9ko2un9rkymynrrsw,2RrYeJut,2020-0188,2020-06-15,15:20:03,15:40:04,NA,incomplete,103,filling,1,right,Green_Triangle_Chess_3.jpg,Red_Triangle_Dots_4.jpg,Purple_Plus_Chess_1.jpg,right,1248.9350000105333,true,high,false
2RrYeJut,3peg1bh7bh4xuzsxamnfbz6ha40bkr,3b837j3lds9kl9ko2un9rkymynrrsw,2RrYeJut,2020-0188,2020-06-15,15:20:03,15:40:04,NA,incomplete,104,filling,0,left,Purple_Triangle_Stripes_2.jpg,Blue_Circle_Stripes_4.jpg,Green_Triangle_Grid_1.jpg,left,1131.2599999946542,true,high,false
2RrYeJut,3peg1bh7bh4xuzsxamnfbz6ha40bkr,3b837j3lds9kl9ko2un9rkymynrrsw,2RrYeJut,2020-0188,2020-06-15,15:20:03,15:40:04,NA,incomplete,105,filling,1,left,Blue_Plus_Grid_2.jpg,Purple_Circle_Grid_1.jpg,Green_Plus_Chess_3.jpg,left,1424.959999974817,true,high,false
2RrYeJut,3peg1bh7bh4xuzsxamnfbz6ha40bkr,3b837j3lds9kl9ko2un9rkymynrrsw,2RrYeJut,2020-0188,2020-06-15,15:20:03,15:40:04,NA,incomplete,106,filling,1,right,Red_Plus_Stripes_4.jpg,Blue_Plus_Chess_1.jpg,Purple_Circle_Stripes_3.jpg,right,1148.1150000181515,true,high,false
2RrYeJut,3peg1bh7bh4xuzsxamnfbz6ha40bkr,3b837j3lds9kl9ko2un9rkymynrrsw,2RrYeJut,2020-0188,2020-06-15,15:20:03,15:40:04,NA,incomplete,107,filling,1,left,Blue_Circle_Dots_3.jpg,Red_Plus_Dots_1.jpg,Green_Circle_Stripes_2.jpg,left,1058.5750000027474,true,high,false
2RrYeJut,3peg1bh7bh4xuzsxamnfbz6ha40bkr,3b837j3lds9kl9ko2un9rkymynrrsw,2RrYeJut,2020-0188,2020-06-15,15:20:03,15:40:04,NA,incomplete,108,filling,1,left,Purple_Circle_Dots_4.jpg,Blue_Star_Dots_1.jpg,Red_Circle_Stripes_2.jpg,left,1419.8700000124518,true,high,false
2RrYeJut,3peg1bh7bh4xuzsxamnfbz6ha40bkr,3b837j3lds9kl9ko2un9rkymynrrsw,2RrYeJut,2020-0188,2020-06-15,15:20:03,15:40:04,NA,incomplete,109,filling,1,right,Green_Star_Dots_4.jpg,Purple_Star_Chess_2.jpg,Blue_Circle_Dots_1.jpg,right,1445.8950000116602,true,high,false
2RrYeJut,3peg1bh7bh4xuzsxamnfbz6ha40bkr,3b837j3lds9kl9ko2un9rkymynrrsw,2RrYeJut,2020-0188,2020-06-15,15:20:03,15:40:04,NA,incomplete,110,shape,1,right,Red_Star_Chess_1.jpg,Blue_Plus_Chess_3.jpg,Purple_Star_Grid_2.jpg,left,968.9499999803957,false,high,false
2RrYeJut,3peg1bh7bh4xuzsxamnfbz6ha40bkr,3b837j3lds9kl9ko2un9rkymynrrsw,2RrYeJut,2020-0188,2020-06-15,15:20:03,15:40:04,NA,incomplete,111,shape,1,left,Red_Star_Stripes_2.jpg,Blue_Star_Chess_1.jpg,Purple_Circle_Stripes_4.jpg,right,1445.7150000089314,false,high,false
2RrYeJut,3peg1bh7bh4xuzsxamnfbz6ha40bkr,3b837j3lds9kl9ko2un9rkymynrrsw,2RrYeJut,2020-0188,2020-06-15,15:20:03,15:40:04,NA,incomplete,112,shape,1,right,Purple_Circle_Grid_4.jpg,Red_Plus_Grid_2.jpg,Blue_Circle_Chess_3.jpg,none,0,false,high,false
2RrYeJut,3peg1bh7bh4xuzsxamnfbz6ha40bkr,3b837j3lds9kl9ko2un9rkymynrrsw,2RrYeJut,2020-0188,2020-06-15,15:20:03,15:40:04,NA,incomplete,113,shape,1,right,Blue_Plus_Dots_3.jpg,Green_Circle_Dots_1.jpg,Purple_Plus_Grid_2.jpg,left,1296.3400000007823,false,high,false
2RrYeJut,3peg1bh7bh4xuzsxamnfbz6ha40bkr,3b837j3lds9kl9ko2un9rkymynrrsw,2RrYeJut,2020-0188,2020-06-15,15:20:03,15:40:04,NA,incomplete,114,shape,1,left,Red_Circle_Chess_4.jpg,Green_Circle_Dots_1.jpg,Purple_Triangle_Chess_3.jpg,right,1136.7749999917578,false,high,false
2RrYeJut,3peg1bh7bh4xuzsxamnfbz6ha40bkr,3b837j3lds9kl9ko2un9rkymynrrsw,2RrYeJut,2020-0188,2020-06-15,15:20:03,15:40:04,NA,incomplete,115,shape,1,right,Blue_Circle_Dots_3.jpg,Purple_Star_Dots_1.jpg,Green_Circle_Chess_2.jpg,right,991.6800000064541,true,high,false
2RrYeJut,3peg1bh7bh4xuzsxamnfbz6ha40bkr,3b837j3lds9kl9ko2un9rkymynrrsw,2RrYeJut,2020-0188,2020-06-15,15:20:03,15:40:04,NA,incomplete,116,shape,1,right,Purple_Plus_Grid_2.jpg,Green_Triangle_Grid_4.jpg,Blue_Plus_Chess_1.jpg,right,1011.0099999874365,true,high,false
2RrYeJut,3peg1bh7bh4xuzsxamnfbz6ha40bkr,3b837j3lds9kl9ko2un9rkymynrrsw,2RrYeJut,2020-0188,2020-06-15,15:20:03,15:40:04,NA,incomplete,117,shape,0,right,Blue_Triangle_Dots_3.jpg,Red_Circle_Dots_2.jpg,Green_Triangle_Grid_1.jpg,right,1237.249999976484,true,high,false
2RrYeJut,3peg1bh7bh4xuzsxamnfbz6ha40bkr,3b837j3lds9kl9ko2un9rkymynrrsw,2RrYeJut,2020-0188,2020-06-15,15:20:03,15:40:04,NA,incomplete,118,shape,0,right,Purple_Plus_Stripes_2.jpg,Green_Triangle_Stripes_3.jpg,Red_Plus_Grid_1.jpg,right,970.0000000011642,true,high,false
2RrYeJut,3peg1bh7bh4xuzsxamnfbz6ha40bkr,3b837j3lds9kl9ko2un9rkymynrrsw,2RrYeJut,2020-0188,2020-06-15,15:20:03,15:40:04,NA,incomplete,119,shape,1,right,Green_Star_Stripes_4.jpg,Red_Circle_Stripes_2.jpg,Blue_Star_Grid_3.jpg,left,1606.1650000046939,false,high,false
2RrYeJut,3peg1bh7bh4xuzsxamnfbz6ha40bkr,3b837j3lds9kl9ko2un9rkymynrrsw,2RrYeJut,2020-0188,2020-06-15,15:20:03,15:40:04,NA,incomplete,120,color,1,right,Blue_Star_Dots_3.jpg,Red_Plus_Stripes_3.jpg,Blue_Circle_Chess_1.jpg,NA,NA,NA,high,false
2RrYeJut,3peg1bh7bh4xuzsxamnfbz6ha40bkr,3b837j3lds9kl9ko2un9rkymynrrsw,2RrYeJut,2020-0188,2020-06-15,15:20:03,15:40:04,NA,incomplete,121,color,1,left,Green_Star_Grid_4.jpg,Green_Circle_Dots_3.jpg,Blue_Plus_Stripes_4.jpg,left,1143.8299999863375,true,high,false
2RrYeJut,3peg1bh7bh4xuzsxamnfbz6ha40bkr,3b837j3lds9kl9ko2un9rkymynrrsw,2RrYeJut,2020-0188,2020-06-15,15:20:03,15:40:04,NA,incomplete,122,color,0,right,Green_Star_Grid_2.jpg,Blue_Plus_Stripes_2.jpg,Green_Circle_Dots_1.jpg,right,861.04499999783,true,high,false
2RrYeJut,3peg1bh7bh4xuzsxamnfbz6ha40bkr,3b837j3lds9kl9ko2un9rkymynrrsw,2RrYeJut,2020-0188,2020-06-15,15:20:03,15:40:04,NA,incomplete,123,color,1,left,Red_Star_Chess_1.jpg,Red_Circle_Dots_4.jpg,Purple_Triangle_Stripes_1.jpg,left,990.9099999931641,true,high,false
2RrYeJut,3peg1bh7bh4xuzsxamnfbz6ha40bkr,3b837j3lds9kl9ko2un9rkymynrrsw,2RrYeJut,2020-0188,2020-06-15,15:20:03,15:40:04,NA,incomplete,124,color,1,right,Green_Triangle_Grid_1.jpg,Red_Circle_Chess_1.jpg,Green_Plus_Stripes_3.jpg,right,842.1049999888055,true,high,false
2RrYeJut,3peg1bh7bh4xuzsxamnfbz6ha40bkr,3b837j3lds9kl9ko2un9rkymynrrsw,2RrYeJut,2020-0188,2020-06-15,15:20:03,15:40:04,NA,incomplete,125,color,1,right,Red_Triangle_Stripes_2.jpg,Blue_Plus_Grid_2.jpg,Red_Star_Dots_3.jpg,right,988.7450000096578,true,high,false
2RrYeJut,3peg1bh7bh4xuzsxamnfbz6ha40bkr,3b837j3lds9kl9ko2un9rkymynrrsw,2RrYeJut,2020-0188,2020-06-15,15:20:03,15:40:04,NA,incomplete,126,color,0,right,Red_Triangle_Grid_1.jpg,Purple_Circle_Dots_1.jpg,Red_Plus_Stripes_4.jpg,right,842.6299999991897,true,high,false
2RrYeJut,3peg1bh7bh4xuzsxamnfbz6ha40bkr,3b837j3lds9kl9ko2un9rkymynrrsw,2RrYeJut,2020-0188,2020-06-15,15:20:03,15:40:04,NA,incomplete,127,color,1,right,Green_Triangle_Grid_4.jpg,Purple_Plus_Stripes_4.jpg,Green_Star_Chess_1.jpg,right,707.380000007106,true,high,false
2RrYeJut,3peg1bh7bh4xuzsxamnfbz6ha40bkr,3b837j3lds9kl9ko2un9rkymynrrsw,2RrYeJut,2020-0188,2020-06-15,15:20:03,15:40:04,NA,incomplete,128,color,0,left,Purple_Triangle_Dots_2.jpg,Purple_Star_Chess_4.jpg,Red_Circle_Stripes_2.jpg,left,1356.2650000094436,true,high,false
2RrYeJut,3peg1bh7bh4xuzsxamnfbz6ha40bkr,3b837j3lds9kl9ko2un9rkymynrrsw,2RrYeJut,2020-0188,2020-06-15,15:20:03,15:40:04,NA,incomplete,129,color,1,right,Green_Star_Grid_3.jpg,Red_Triangle_Chess_3.jpg,Green_Circle_Stripes_1.jpg,right,864.2499999841675,true,high,false
2RrYeJut,3peg1bh7bh4xuzsxamnfbz6ha40bkr,3b837j3lds9kl9ko2un9rkymynrrsw,2RrYeJut,2020-0188,2020-06-15,15:20:03,15:40:04,NA,incomplete,130,color,1,left,Red_Star_Grid_1.jpg,Red_Plus_Stripes_2.jpg,Purple_Triangle_Chess_1.jpg,left,747.3049999971408,true,high,false
2RrYeJut,3peg1bh7bh4xuzsxamnfbz6ha40bkr,3b837j3lds9kl9ko2un9rkymynrrsw,2RrYeJut,2020-0188,2020-06-15,15:20:03,15:40:04,NA,incomplete,131,color,1,left,Blue_Triangle_Stripes_2.jpg,Blue_Circle_Dots_3.jpg,Red_Star_Chess_2.jpg,left,905.5349999980535,true,high,false
2RrYeJut,3peg1bh7bh4xuzsxamnfbz6ha40bkr,3b837j3lds9kl9ko2un9rkymynrrsw,2RrYeJut,2020-0188,2020-06-15,15:20:03,15:40:04,NA,incomplete,132,color,0,right,Red_Star_Stripes_3.jpg,Green_Triangle_Dots_3.jpg,Red_Plus_Grid_4.jpg,right,744.8049999948125,true,high,false
2RrYeJut,3peg1bh7bh4xuzsxamnfbz6ha40bkr,3b837j3lds9kl9ko2un9rkymynrrsw,2RrYeJut,2020-0188,2020-06-15,15:20:03,15:40:04,NA,incomplete,133,color,1,left,Red_Triangle_Dots_4.jpg,Red_Circle_Stripes_3.jpg,Blue_Plus_Grid_4.jpg,left,807.4699999997392,true,high,false
2RrYeJut,3peg1bh7bh4xuzsxamnfbz6ha40bkr,3b837j3lds9kl9ko2un9rkymynrrsw,2RrYeJut,2020-0188,2020-06-15,15:20:03,15:40:04,NA,incomplete,134,color,1,right,Purple_Plus_Stripes_4.jpg,Green_Star_Dots_4.jpg,Purple_Circle_Chess_2.jpg,right,777.6099999900907,true,high,false
2RrYeJut,3peg1bh7bh4xuzsxamnfbz6ha40bkr,3b837j3lds9kl9ko2un9rkymynrrsw,2RrYeJut,2020-0188,2020-06-15,15:20:03,15:40:04,NA,incomplete,135,color,1,left,Purple_Circle_Dots_1.jpg,Purple_Plus_Stripes_4.jpg,Blue_Triangle_Chess_1.jpg,left,687.7549999917392,true,high,false
2RrYeJut,3peg1bh7bh4xuzsxamnfbz6ha40bkr,3b837j3lds9kl9ko2un9rkymynrrsw,2RrYeJut,2020-0188,2020-06-15,15:20:03,15:40:04,NA,incomplete,136,color,1,right,Blue_Plus_Grid_3.jpg,Purple_Star_Dots_3.jpg,Blue_Triangle_Stripes_2.jpg,right,840.4950000112876,true,high,false
2RrYeJut,3peg1bh7bh4xuzsxamnfbz6ha40bkr,3b837j3lds9kl9ko2un9rkymynrrsw,2RrYeJut,2020-0188,2020-06-15,15:20:03,15:40:04,NA,incomplete,137,color,0,left,Red_Circle_Grid_3.jpg,Red_Plus_Stripes_2.jpg,Blue_Star_Dots_3.jpg,left,730.0499999837484,true,high,false
2RrYeJut,3peg1bh7bh4xuzsxamnfbz6ha40bkr,3b837j3lds9kl9ko2un9rkymynrrsw,2RrYeJut,2020-0188,2020-06-15,15:20:03,15:40:04,NA,incomplete,138,color,1,right,Purple_Circle_Chess_2.jpg,Green_Star_Grid_2.jpg,Purple_Plus_Stripes_3.jpg,right,705.8050000050571,true,high,false
2RrYeJut,3peg1bh7bh4xuzsxamnfbz6ha40bkr,3b837j3lds9kl9ko2un9rkymynrrsw,2RrYeJut,2020-0188,2020-06-15,15:20:03,15:40:04,NA,incomplete,139,color,1,right,Green_Circle_Chess_4.jpg,Red_Star_Stripes_4.jpg,Green_Plus_Dots_3.jpg,right,624.2999999958556,true,high,false
2RrYeJut,3peg1bh7bh4xuzsxamnfbz6ha40bkr,3b837j3lds9kl9ko2un9rkymynrrsw,2RrYeJut,2020-0188,2020-06-15,15:20:03,15:40:04,NA,incomplete,140,number,0,left,Blue_Plus_Chess_2.jpg,Purple_Triangle_Dots_2.jpg,Blue_Circle_Grid_4.jpg,right,916.1899999890011,false,high,false
2RrYeJut,3peg1bh7bh4xuzsxamnfbz6ha40bkr,3b837j3lds9kl9ko2un9rkymynrrsw,2RrYeJut,2020-0188,2020-06-15,15:20:03,15:40:04,NA,incomplete,141,number,1,right,Purple_Circle_Grid_3.jpg,Purple_Plus_Dots_2.jpg,Blue_Star_Stripes_3.jpg,left,787.834999995539,false,high,false
2RrYeJut,3peg1bh7bh4xuzsxamnfbz6ha40bkr,3b837j3lds9kl9ko2un9rkymynrrsw,2RrYeJut,2020-0188,2020-06-15,15:20:03,15:40:04,NA,incomplete,142,number,1,right,Green_Circle_Grid_3.jpg,Green_Triangle_Stripes_1.jpg,Red_Plus_Dots_3.jpg,left,807.6750000182074,false,high,false
2RrYeJut,3peg1bh7bh4xuzsxamnfbz6ha40bkr,3b837j3lds9kl9ko2un9rkymynrrsw,2RrYeJut,2020-0188,2020-06-15,15:20:03,15:40:04,NA,incomplete,143,number,1,left,Red_Star_Chess_2.jpg,Purple_Plus_Dots_2.jpg,Red_Triangle_Stripes_4.jpg,right,723.2249999942724,false,high,false
2RrYeJut,3peg1bh7bh4xuzsxamnfbz6ha40bkr,3b837j3lds9kl9ko2un9rkymynrrsw,2RrYeJut,2020-0188,2020-06-15,15:20:03,15:40:04,NA,incomplete,144,number,1,left,Blue_Star_Dots_2.jpg,Red_Triangle_Chess_2.jpg,Blue_Plus_Stripes_1.jpg,left,1049.814999976661,true,high,false
2RrYeJut,3peg1bh7bh4xuzsxamnfbz6ha40bkr,3b837j3lds9kl9ko2un9rkymynrrsw,2RrYeJut,2020-0188,2020-06-15,15:20:03,15:40:04,NA,incomplete,145,number,1,left,Purple_Star_Dots_1.jpg,Blue_Circle_Grid_1.jpg,Purple_Plus_Chess_3.jpg,left,908.2149999740068,true,high,false
2RrYeJut,3peg1bh7bh4xuzsxamnfbz6ha40bkr,3b837j3lds9kl9ko2un9rkymynrrsw,2RrYeJut,2020-0188,2020-06-15,15:20:03,15:40:04,NA,incomplete,146,number,1,left,Blue_Plus_Chess_2.jpg,Purple_Triangle_Dots_2.jpg,Blue_Star_Grid_4.jpg,left,869.2699999955948,true,high,false
2RrYeJut,3peg1bh7bh4xuzsxamnfbz6ha40bkr,3b837j3lds9kl9ko2un9rkymynrrsw,2RrYeJut,2020-0188,2020-06-15,15:20:03,15:40:04,NA,incomplete,147,number,1,right,Purple_Circle_Grid_4.jpg,Purple_Plus_Dots_1.jpg,Red_Triangle_Stripes_4.jpg,right,894.0149999980349,true,high,false
2RrYeJut,3peg1bh7bh4xuzsxamnfbz6ha40bkr,3b837j3lds9kl9ko2un9rkymynrrsw,2RrYeJut,2020-0188,2020-06-15,15:20:03,15:40:04,NA,incomplete,148,number,1,left,Green_Circle_Chess_4.jpg,Blue_Plus_Dots_4.jpg,Green_Triangle_Grid_1.jpg,right,997.5550000090152,false,high,false
2RrYeJut,3peg1bh7bh4xuzsxamnfbz6ha40bkr,3b837j3lds9kl9ko2un9rkymynrrsw,2RrYeJut,2020-0188,2020-06-15,15:20:03,15:40:04,NA,incomplete,149,number,1,right,Purple_Star_Chess_4.jpg,Purple_Plus_Stripes_1.jpg,Green_Circle_Dots_4.jpg,right,1025.820000009844,true,high,false
2RrYeJut,3peg1bh7bh4xuzsxamnfbz6ha40bkr,3b837j3lds9kl9ko2un9rkymynrrsw,2RrYeJut,2020-0188,2020-06-15,15:20:03,15:40:04,NA,incomplete,150,number,1,right,Blue_Triangle_Stripes_1.jpg,Blue_Plus_Chess_3.jpg,Red_Star_Grid_1.jpg,right,820.2699999965262,true,high,false
2RrYeJut,3peg1bh7bh4xuzsxamnfbz6ha40bkr,3b837j3lds9kl9ko2un9rkymynrrsw,2RrYeJut,2020-0188,2020-06-15,15:20:03,15:40:04,NA,incomplete,151,number,1,left,Red_Circle_Grid_1.jpg,Purple_Star_Dots_1.jpg,Red_Triangle_Chess_3.jpg,left,951.4250000065658,true,high,false
2RrYeJut,3peg1bh7bh4xuzsxamnfbz6ha40bkr,3b837j3lds9kl9ko2un9rkymynrrsw,2RrYeJut,2020-0188,2020-06-15,15:20:03,15:40:04,NA,incomplete,152,number,1,right,Blue_Triangle_Chess_3.jpg,Blue_Star_Stripes_1.jpg,Purple_Plus_Grid_3.jpg,right,1005.4200000013225,true,high,false
2RrYeJut,3peg1bh7bh4xuzsxamnfbz6ha40bkr,3b837j3lds9kl9ko2un9rkymynrrsw,2RrYeJut,2020-0188,2020-06-15,15:20:03,15:40:04,NA,incomplete,153,number,1,right,Red_Plus_Chess_2.jpg,Red_Triangle_Dots_1.jpg,Purple_Star_Grid_2.jpg,right,896.9050000014249,true,high,false
2RrYeJut,3peg1bh7bh4xuzsxamnfbz6ha40bkr,3b837j3lds9kl9ko2un9rkymynrrsw,2RrYeJut,2020-0188,2020-06-15,15:20:03,15:40:04,NA,incomplete,154,number,1,left,Purple_Triangle_Dots_4.jpg,Blue_Star_Stripes_4.jpg,Purple_Plus_Chess_2.jpg,left,1032.5649999722373,true,high,false
2RrYeJut,3peg1bh7bh4xuzsxamnfbz6ha40bkr,3b837j3lds9kl9ko2un9rkymynrrsw,2RrYeJut,2020-0188,2020-06-15,15:20:03,15:40:04,NA,incomplete,155,number,1,right,Blue_Circle_Grid_1.jpg,Blue_Plus_Stripes_4.jpg,Green_Triangle_Chess_1.jpg,right,907.4299999920186,true,high,false
2RrYeJut,3peg1bh7bh4xuzsxamnfbz6ha40bkr,3b837j3lds9kl9ko2un9rkymynrrsw,2RrYeJut,2020-0188,2020-06-15,15:20:03,15:40:04,NA,incomplete,156,number,1,left,Purple_Circle_Chess_3.jpg,Blue_Plus_Dots_3.jpg,Purple_Star_Grid_1.jpg,left,898.4950000012759,true,high,false
2RrYeJut,3peg1bh7bh4xuzsxamnfbz6ha40bkr,3b837j3lds9kl9ko2un9rkymynrrsw,2RrYeJut,2020-0188,2020-06-15,15:20:03,15:40:04,NA,incomplete,157,number,1,right,Green_Circle_Chess_2.jpg,Green_Plus_Dots_4.jpg,Purple_Star_Stripes_2.jpg,right,1050.7800000195857,true,high,false
2RrYeJut,3peg1bh7bh4xuzsxamnfbz6ha40bkr,3b837j3lds9kl9ko2un9rkymynrrsw,2RrYeJut,2020-0188,2020-06-15,15:20:03,15:40:04,NA,incomplete,158,number,1,right,Red_Star_Stripes_3.jpg,Red_Circle_Grid_1.jpg,Blue_Plus_Chess_3.jpg,right,941.8050000094809,true,high,false
2RrYeJut,3peg1bh7bh4xuzsxamnfbz6ha40bkr,3b837j3lds9kl9ko2un9rkymynrrsw,2RrYeJut,2020-0188,2020-06-15,15:20:03,15:40:04,NA,incomplete,159,number,1,right,Purple_Triangle_Stripes_1.jpg,Purple_Plus_Chess_2.jpg,Blue_Circle_Grid_1.jpg,right,1339.8549999983516,true,high,false
2RrYeJut,3peg1bh7bh4xuzsxamnfbz6ha40bkr,3b837j3lds9kl9ko2un9rkymynrrsw,2RrYeJut,2020-0188,2020-06-15,15:20:03,15:40:04,NA,incomplete,160,color,1,right,Purple_Circle_Stripes_2.jpg,Red_Plus_Dots_2.jpg,Purple_Star_Chess_1.jpg,left,840.490000002319,false,high,false
2RrYeJut,3peg1bh7bh4xuzsxamnfbz6ha40bkr,3b837j3lds9kl9ko2un9rkymynrrsw,2RrYeJut,2020-0188,2020-06-15,15:20:03,15:40:04,NA,incomplete,161,color,1,right,Green_Triangle_Chess_1.jpg,Purple_Star_Stripes_1.jpg,Green_Circle_Grid_4.jpg,left,980.3300000203308,false,high,false
2RrYeJut,3peg1bh7bh4xuzsxamnfbz6ha40bkr,3b837j3lds9kl9ko2un9rkymynrrsw,2RrYeJut,2020-0188,2020-06-15,15:20:03,15:40:04,NA,incomplete,162,color,1,left,Blue_Plus_Grid_3.jpg,Blue_Star_Stripes_2.jpg,Red_Triangle_Chess_3.jpg,left,1465.2249999926426,true,high,false
2RrYeJut,3peg1bh7bh4xuzsxamnfbz6ha40bkr,3b837j3lds9kl9ko2un9rkymynrrsw,2RrYeJut,2020-0188,2020-06-15,15:20:03,15:40:04,NA,incomplete,163,color,1,right,Green_Circle_Chess_2.jpg,Blue_Star_Grid_2.jpg,Green_Plus_Dots_4.jpg,right,1035.070000012638,true,high,false
2RrYeJut,3peg1bh7bh4xuzsxamnfbz6ha40bkr,3b837j3lds9kl9ko2un9rkymynrrsw,2RrYeJut,2020-0188,2020-06-15,15:20:03,15:40:04,NA,incomplete,164,color,1,right,Red_Plus_Grid_2.jpg,Green_Triangle_Stripes_2.jpg,Red_Circle_Dots_3.jpg,right,909.1999999945983,true,high,false
2RrYeJut,3peg1bh7bh4xuzsxamnfbz6ha40bkr,3b837j3lds9kl9ko2un9rkymynrrsw,2RrYeJut,2020-0188,2020-06-15,15:20:03,15:40:04,NA,incomplete,165,color,0,left,Blue_Triangle_Grid_4.jpg,Blue_Star_Chess_3.jpg,Green_Plus_Stripes_4.jpg,left,773.1999999959953,true,high,false
2RrYeJut,3peg1bh7bh4xuzsxamnfbz6ha40bkr,3b837j3lds9kl9ko2un9rkymynrrsw,2RrYeJut,2020-0188,2020-06-15,15:20:03,15:40:04,NA,incomplete,166,color,1,left,Blue_Triangle_Grid_2.jpg,Blue_Star_Stripes_1.jpg,Red_Circle_Chess_2.jpg,left,792.8200000023935,true,high,false
2RrYeJut,3peg1bh7bh4xuzsxamnfbz6ha40bkr,3b837j3lds9kl9ko2un9rkymynrrsw,2RrYeJut,2020-0188,2020-06-15,15:20:03,15:40:04,NA,incomplete,167,color,0,right,Blue_Star_Grid_4.jpg,Red_Plus_Dots_4.jpg,Blue_Circle_Stripes_2.jpg,right,829.3100000009872,true,high,false
2RrYeJut,3peg1bh7bh4xuzsxamnfbz6ha40bkr,3b837j3lds9kl9ko2un9rkymynrrsw,2RrYeJut,2020-0188,2020-06-15,15:20:03,15:40:04,NA,incomplete,168,color,1,left,Green_Star_Stripes_1.jpg,Green_Circle_Chess_2.jpg,Red_Plus_Dots_1.jpg,left,825.4099999903701,true,high,false
2RrYeJut,3peg1bh7bh4xuzsxamnfbz6ha40bkr,3b837j3lds9kl9ko2un9rkymynrrsw,2RrYeJut,2020-0188,2020-06-15,15:20:03,15:40:04,NA,incomplete,169,color,0,right,Green_Star_Stripes_1.jpg,Red_Plus_Grid_1.jpg,Green_Triangle_Chess_3.jpg,right,973.0249999847729,true,high,false
2RrYeJut,3peg1bh7bh4xuzsxamnfbz6ha40bkr,3b837j3lds9kl9ko2un9rkymynrrsw,2RrYeJut,2020-0188,2020-06-15,15:20:03,15:40:04,NA,incomplete,170,color,1,right,Blue_Circle_Dots_3.jpg,Red_Star_Chess_3.jpg,Blue_Plus_Stripes_1.jpg,right,1433.484999986831,true,high,false
2RrYeJut,3peg1bh7bh4xuzsxamnfbz6ha40bkr,3b837j3lds9kl9ko2un9rkymynrrsw,2RrYeJut,2020-0188,2020-06-15,15:20:03,15:40:04,NA,incomplete,171,color,1,right,Red_Circle_Chess_1.jpg,Blue_Star_Grid_1.jpg,Red_Plus_Dots_4.jpg,none,0,false,high,false
2RrYeJut,3peg1bh7bh4xuzsxamnfbz6ha40bkr,3b837j3lds9kl9ko2un9rkymynrrsw,2RrYeJut,2020-0188,2020-06-15,15:20:03,15:40:04,NA,incomplete,172,color,1,right,Red_Star_Grid_2.jpg,Purple_Triangle_Chess_2.jpg,Red_Circle_Dots_1.jpg,right,735.4950000008103,true,high,false
2RrYeJut,3peg1bh7bh4xuzsxamnfbz6ha40bkr,3b837j3lds9kl9ko2un9rkymynrrsw,2RrYeJut,2020-0188,2020-06-15,15:20:03,15:40:04,NA,incomplete,173,color,1,right,Green_Plus_Grid_4.jpg,Purple_Triangle_Chess_4.jpg,Green_Star_Dots_1.jpg,right,1047.1400000096764,true,high,false
2RrYeJut,3peg1bh7bh4xuzsxamnfbz6ha40bkr,3b837j3lds9kl9ko2un9rkymynrrsw,2RrYeJut,2020-0188,2020-06-15,15:20:03,15:40:04,NA,incomplete,174,color,1,left,Blue_Triangle_Grid_2.jpg,Blue_Star_Stripes_3.jpg,Red_Circle_Dots_2.jpg,left,776.6200000187382,true,high,false
2RrYeJut,3peg1bh7bh4xuzsxamnfbz6ha40bkr,3b837j3lds9kl9ko2un9rkymynrrsw,2RrYeJut,2020-0188,2020-06-15,15:20:03,15:40:04,NA,incomplete,175,color,0,right,Green_Circle_Dots_2.jpg,Blue_Triangle_Stripes_2.jpg,Green_Plus_Chess_3.jpg,right,765.3750000172295,true,high,false
2RrYeJut,3peg1bh7bh4xuzsxamnfbz6ha40bkr,3b837j3lds9kl9ko2un9rkymynrrsw,2RrYeJut,2020-0188,2020-06-15,15:20:03,15:40:04,NA,incomplete,176,color,1,left,Purple_Circle_Dots_1.jpg,Purple_Triangle_Stripes_3.jpg,Green_Star_Grid_1.jpg,left,731.1749999935273,true,high,false
2RrYeJut,3peg1bh7bh4xuzsxamnfbz6ha40bkr,3b837j3lds9kl9ko2un9rkymynrrsw,2RrYeJut,2020-0188,2020-06-15,15:20:03,15:40:04,NA,incomplete,177,color,1,right,Red_Circle_Dots_1.jpg,Purple_Triangle_Chess_1.jpg,Red_Star_Grid_3.jpg,right,634.9449999979697,true,high,false
2RrYeJut,3peg1bh7bh4xuzsxamnfbz6ha40bkr,3b837j3lds9kl9ko2un9rkymynrrsw,2RrYeJut,2020-0188,2020-06-15,15:20:03,15:40:04,NA,incomplete,178,color,1,right,Red_Star_Chess_4.jpg,Blue_Circle_Dots_4.jpg,Red_Triangle_Grid_2.jpg,right,564.6899999992456,true,high,false
2RrYeJut,3peg1bh7bh4xuzsxamnfbz6ha40bkr,3b837j3lds9kl9ko2un9rkymynrrsw,2RrYeJut,2020-0188,2020-06-15,15:20:03,15:40:04,NA,incomplete,179,color,1,left,Green_Plus_Chess_1.jpg,Green_Triangle_Dots_3.jpg,Red_Circle_Grid_1.jpg,left,570.7450000045355,true,high,false
2RrYeJut,3peg1bh7bh4xuzsxamnfbz6ha40bkr,3b837j3lds9kl9ko2un9rkymynrrsw,2RrYeJut,2020-0188,2020-06-15,15:20:03,15:40:04,NA,incomplete,180,number,1,left,Blue_Triangle_Stripes_3.jpg,Green_Star_Dots_3.jpg,Blue_Plus_Grid_1.jpg,right,655.3549999953248,false,high,false
2RrYeJut,3peg1bh7bh4xuzsxamnfbz6ha40bkr,3b837j3lds9kl9ko2un9rkymynrrsw,2RrYeJut,2020-0188,2020-06-15,15:20:03,15:40:04,NA,incomplete,181,number,0,left,Purple_Star_Grid_3.jpg,Red_Plus_Dots_3.jpg,Purple_Triangle_Stripes_1.jpg,right,705.389999988256,false,high,false
2RrYeJut,3peg1bh7bh4xuzsxamnfbz6ha40bkr,3b837j3lds9kl9ko2un9rkymynrrsw,2RrYeJut,2020-0188,2020-06-15,15:20:03,15:40:04,NA,incomplete,182,number,1,left,Green_Triangle_Chess_2.jpg,Red_Circle_Stripes_2.jpg,Green_Star_Grid_4.jpg,right,776.6649999830406,false,high,false
2RrYeJut,3peg1bh7bh4xuzsxamnfbz6ha40bkr,3b837j3lds9kl9ko2un9rkymynrrsw,2RrYeJut,2020-0188,2020-06-15,15:20:03,15:40:04,NA,incomplete,183,number,1,right,Green_Circle_Dots_4.jpg,Green_Star_Chess_3.jpg,Blue_Plus_Stripes_4.jpg,left,709.6799999999348,false,high,false
2RrYeJut,3peg1bh7bh4xuzsxamnfbz6ha40bkr,3b837j3lds9kl9ko2un9rkymynrrsw,2RrYeJut,2020-0188,2020-06-15,15:20:03,15:40:04,NA,incomplete,184,number,0,left,Blue_Triangle_Grid_2.jpg,Green_Star_Dots_2.jpg,Blue_Plus_Stripes_4.jpg,right,998.185000004014,false,high,false
2RrYeJut,3peg1bh7bh4xuzsxamnfbz6ha40bkr,3b837j3lds9kl9ko2un9rkymynrrsw,2RrYeJut,2020-0188,2020-06-15,15:20:03,15:40:04,NA,incomplete,185,number,1,left,Blue_Plus_Grid_1.jpg,Red_Triangle_Stripes_1.jpg,Blue_Circle_Dots_3.jpg,right,657.2349999914877,false,high,false
2RrYeJut,3peg1bh7bh4xuzsxamnfbz6ha40bkr,3b837j3lds9kl9ko2un9rkymynrrsw,2RrYeJut,2020-0188,2020-06-15,15:20:03,15:40:04,NA,incomplete,186,number,1,right,Red_Plus_Stripes_1.jpg,Red_Triangle_Grid_4.jpg,Green_Star_Chess_1.jpg,left,562.9650000191759,false,high,false
2RrYeJut,3peg1bh7bh4xuzsxamnfbz6ha40bkr,3b837j3lds9kl9ko2un9rkymynrrsw,2RrYeJut,2020-0188,2020-06-15,15:20:03,15:40:04,NA,incomplete,187,number,1,left,Blue_Plus_Stripes_4.jpg,Green_Triangle_Grid_4.jpg,Blue_Circle_Dots_2.jpg,left,1009.4700000190642,true,high,false
2RrYeJut,3peg1bh7bh4xuzsxamnfbz6ha40bkr,3b837j3lds9kl9ko2un9rkymynrrsw,2RrYeJut,2020-0188,2020-06-15,15:20:03,15:40:04,NA,incomplete,188,number,0,left,Blue_Triangle_Dots_4.jpg,Purple_Circle_Stripes_4.jpg,Blue_Plus_Chess_1.jpg,left,756.3049999880604,true,high,false
2RrYeJut,3peg1bh7bh4xuzsxamnfbz6ha40bkr,3b837j3lds9kl9ko2un9rkymynrrsw,2RrYeJut,2020-0188,2020-06-15,15:20:03,15:40:04,NA,incomplete,189,number,1,right,Purple_Triangle_Stripes_4.jpg,Purple_Star_Chess_2.jpg,Blue_Plus_Dots_4.jpg,right,721.9199999817647,true,high,false
2RrYeJut,3peg1bh7bh4xuzsxamnfbz6ha40bkr,3b837j3lds9kl9ko2un9rkymynrrsw,2RrYeJut,2020-0188,2020-06-15,15:20:03,15:40:04,NA,incomplete,190,number,1,right,Green_Triangle_Grid_1.jpg,Green_Plus_Chess_4.jpg,Blue_Star_Stripes_1.jpg,right,728.3200000238139,true,high,false
2RrYeJut,3peg1bh7bh4xuzsxamnfbz6ha40bkr,3b837j3lds9kl9ko2un9rkymynrrsw,2RrYeJut,2020-0188,2020-06-15,15:20:03,15:40:04,NA,incomplete,191,number,1,right,Blue_Plus_Dots_4.jpg,Blue_Triangle_Stripes_2.jpg,Red_Circle_Chess_4.jpg,right,854.7149999940302,true,high,false
2RrYeJut,3peg1bh7bh4xuzsxamnfbz6ha40bkr,3b837j3lds9kl9ko2un9rkymynrrsw,2RrYeJut,2020-0188,2020-06-15,15:20:03,15:40:04,NA,incomplete,192,number,1,left,Blue_Star_Chess_2.jpg,Red_Triangle_Dots_2.jpg,Blue_Plus_Grid_1.jpg,left,929.2050000221934,true,high,false
2RrYeJut,3peg1bh7bh4xuzsxamnfbz6ha40bkr,3b837j3lds9kl9ko2un9rkymynrrsw,2RrYeJut,2020-0188,2020-06-15,15:20:03,15:40:04,NA,incomplete,193,number,0,left,Red_Triangle_Stripes_2.jpg,Purple_Plus_Dots_2.jpg,Red_Star_Chess_1.jpg,left,864.3750000046566,true,high,false
2RrYeJut,3peg1bh7bh4xuzsxamnfbz6ha40bkr,3b837j3lds9kl9ko2un9rkymynrrsw,2RrYeJut,2020-0188,2020-06-15,15:20:03,15:40:04,NA,incomplete,194,number,1,right,Red_Circle_Grid_1.jpg,Red_Triangle_Stripes_2.jpg,Green_Star_Chess_1.jpg,left,681.060000002617,false,high,false
2RrYeJut,3peg1bh7bh4xuzsxamnfbz6ha40bkr,3b837j3lds9kl9ko2un9rkymynrrsw,2RrYeJut,2020-0188,2020-06-15,15:20:03,15:40:04,NA,incomplete,195,number,1,left,Red_Circle_Dots_1.jpg,Purple_Star_Stripes_1.jpg,Red_Triangle_Chess_4.jpg,left,1107.1799999917857,true,high,false
2RrYeJut,3peg1bh7bh4xuzsxamnfbz6ha40bkr,3b837j3lds9kl9ko2un9rkymynrrsw,2RrYeJut,2020-0188,2020-06-15,15:20:03,15:40:04,NA,incomplete,196,number,1,left,Red_Star_Dots_1.jpg,Purple_Triangle_Stripes_1.jpg,Red_Plus_Grid_3.jpg,left,771.2300000130199,true,high,false
2RrYeJut,3peg1bh7bh4xuzsxamnfbz6ha40bkr,3b837j3lds9kl9ko2un9rkymynrrsw,2RrYeJut,2020-0188,2020-06-15,15:20:03,15:40:04,NA,incomplete,197,number,1,left,Purple_Star_Chess_4.jpg,Green_Circle_Grid_4.jpg,Purple_Plus_Dots_3.jpg,left,1327.3899999912828,true,high,false
2RrYeJut,3peg1bh7bh4xuzsxamnfbz6ha40bkr,3b837j3lds9kl9ko2un9rkymynrrsw,2RrYeJut,2020-0188,2020-06-15,15:20:03,15:40:04,NA,incomplete,198,number,1,right,Blue_Plus_Chess_2.jpg,Blue_Star_Stripes_4.jpg,Purple_Triangle_Dots_2.jpg,right,1006.8000000028405,true,high,false
2RrYeJut,3peg1bh7bh4xuzsxamnfbz6ha40bkr,3b837j3lds9kl9ko2un9rkymynrrsw,2RrYeJut,2020-0188,2020-06-15,15:20:03,15:40:04,NA,incomplete,199,number,0,left,Purple_Triangle_Stripes_3.jpg,Blue_Star_Grid_3.jpg,Purple_Plus_Dots_1.jpg,left,865.8199999772478,true,high,false
2RrYeJut,3peg1bh7bh4xuzsxamnfbz6ha40bkr,3b837j3lds9kl9ko2un9rkymynrrsw,2RrYeJut,2020-0188,2020-06-15,15:20:03,15:40:04,NA,incomplete,200,color,1,right,Red_Circle_Stripes_2.jpg,Blue_Triangle_Grid_2.jpg,Red_Plus_Chess_3.jpg,left,1275.839999987511,false,high,false
2RrYeJut,3peg1bh7bh4xuzsxamnfbz6ha40bkr,3b837j3lds9kl9ko2un9rkymynrrsw,2RrYeJut,2020-0188,2020-06-15,15:20:03,15:40:04,NA,incomplete,201,color,1,right,Blue_Triangle_Stripes_2.jpg,Green_Plus_Grid_2.jpg,Blue_Star_Chess_4.jpg,left,1036.034999997355,false,high,false
2RrYeJut,3peg1bh7bh4xuzsxamnfbz6ha40bkr,3b837j3lds9kl9ko2un9rkymynrrsw,2RrYeJut,2020-0188,2020-06-15,15:20:03,15:40:04,NA,incomplete,202,color,1,left,Green_Plus_Grid_4.jpg,Green_Circle_Dots_2.jpg,Purple_Star_Stripes_4.jpg,right,887.0649999880698,false,high,false
2RrYeJut,3peg1bh7bh4xuzsxamnfbz6ha40bkr,3b837j3lds9kl9ko2un9rkymynrrsw,2RrYeJut,2020-0188,2020-06-15,15:20:03,15:40:04,NA,incomplete,203,color,0,left,Green_Triangle_Grid_2.jpg,Green_Plus_Dots_4.jpg,Red_Circle_Stripes_2.jpg,left,938.2949999999255,true,high,false
2RrYeJut,3peg1bh7bh4xuzsxamnfbz6ha40bkr,3b837j3lds9kl9ko2un9rkymynrrsw,2RrYeJut,2020-0188,2020-06-15,15:20:03,15:40:04,NA,incomplete,204,color,1,right,Blue_Circle_Stripes_1.jpg,Green_Triangle_Dots_1.jpg,Blue_Plus_Chess_4.jpg,right,917.1349999960512,true,high,false
2RrYeJut,3peg1bh7bh4xuzsxamnfbz6ha40bkr,3b837j3lds9kl9ko2un9rkymynrrsw,2RrYeJut,2020-0188,2020-06-15,15:20:03,15:40:04,NA,incomplete,205,color,1,left,Green_Triangle_Stripes_1.jpg,Green_Plus_Chess_3.jpg,Blue_Circle_Dots_1.jpg,left,707.6749999832828,true,high,false
2RrYeJut,3peg1bh7bh4xuzsxamnfbz6ha40bkr,3b837j3lds9kl9ko2un9rkymynrrsw,2RrYeJut,2020-0188,2020-06-15,15:20:03,15:40:04,NA,incomplete,206,color,1,right,Purple_Plus_Dots_3.jpg,Red_Star_Chess_3.jpg,Purple_Triangle_Grid_1.jpg,right,915.770000021439,true,high,false
2RrYeJut,3peg1bh7bh4xuzsxamnfbz6ha40bkr,3b837j3lds9kl9ko2un9rkymynrrsw,2RrYeJut,2020-0188,2020-06-15,15:20:03,15:40:04,NA,incomplete,207,color,1,left,Red_Star_Chess_3.jpg,Red_Triangle_Stripes_4.jpg,Purple_Circle_Grid_3.jpg,left,643.5700000147335,true,high,false
2RrYeJut,3peg1bh7bh4xuzsxamnfbz6ha40bkr,3b837j3lds9kl9ko2un9rkymynrrsw,2RrYeJut,2020-0188,2020-06-15,15:20:03,15:40:04,NA,incomplete,208,color,1,right,Blue_Triangle_Stripes_1.jpg,Purple_Circle_Dots_1.jpg,Blue_Star_Chess_3.jpg,right,549.4699999981094,true,high,false
2RrYeJut,3peg1bh7bh4xuzsxamnfbz6ha40bkr,3b837j3lds9kl9ko2un9rkymynrrsw,2RrYeJut,2020-0188,2020-06-15,15:20:03,15:40:04,NA,incomplete,209,color,1,right,Red_Plus_Chess_3.jpg,Blue_Triangle_Grid_3.jpg,Red_Star_Dots_2.jpg,right,643.7549999973271,true,high,false
2RrYeJut,3peg1bh7bh4xuzsxamnfbz6ha40bkr,3b837j3lds9kl9ko2un9rkymynrrsw,2RrYeJut,2020-0188,2020-06-15,15:20:03,15:40:04,NA,incomplete,210,color,0,right,Green_Plus_Chess_3.jpg,Purple_Star_Grid_3.jpg,Green_Circle_Dots_4.jpg,right,574.8350000067148,true,high,false
2RrYeJut,3peg1bh7bh4xuzsxamnfbz6ha40bkr,3b837j3lds9kl9ko2un9rkymynrrsw,2RrYeJut,2020-0188,2020-06-15,15:20:03,15:40:04,NA,incomplete,211,color,1,left,Blue_Circle_Grid_1.jpg,Blue_Plus_Dots_3.jpg,Red_Star_Stripes_1.jpg,left,651.4050000114366,true,high,false
2RrYeJut,3peg1bh7bh4xuzsxamnfbz6ha40bkr,3b837j3lds9kl9ko2un9rkymynrrsw,2RrYeJut,2020-0188,2020-06-15,15:20:03,15:40:04,NA,incomplete,212,color,1,right,Red_Plus_Stripes_4.jpg,Purple_Triangle_Grid_4.jpg,Red_Circle_Dots_2.jpg,left,1044.8949999990873,false,high,false
2RrYeJut,3peg1bh7bh4xuzsxamnfbz6ha40bkr,3b837j3lds9kl9ko2un9rkymynrrsw,2RrYeJut,2020-0188,2020-06-15,15:20:03,15:40:04,NA,incomplete,213,color,1,right,Purple_Star_Stripes_4.jpg,Green_Circle_Grid_4.jpg,Purple_Triangle_Chess_1.jpg,right,919.1349999746308,true,high,false
2RrYeJut,3peg1bh7bh4xuzsxamnfbz6ha40bkr,3b837j3lds9kl9ko2un9rkymynrrsw,2RrYeJut,2020-0188,2020-06-15,15:20:03,15:40:04,NA,incomplete,214,color,1,left,Green_Circle_Dots_1.jpg,Green_Triangle_Stripes_2.jpg,Purple_Plus_Chess_1.jpg,left,918.2649999856949,true,high,false
2RrYeJut,3peg1bh7bh4xuzsxamnfbz6ha40bkr,3b837j3lds9kl9ko2un9rkymynrrsw,2RrYeJut,2020-0188,2020-06-15,15:20:03,15:40:04,NA,incomplete,215,color,1,left,Red_Triangle_Chess_4.jpg,Red_Plus_Dots_2.jpg,Blue_Star_Grid_4.jpg,left,701.420000026701,true,high,false
2RrYeJut,3peg1bh7bh4xuzsxamnfbz6ha40bkr,3b837j3lds9kl9ko2un9rkymynrrsw,2RrYeJut,2020-0188,2020-06-15,15:20:03,15:40:04,NA,incomplete,216,color,1,right,Green_Plus_Dots_4.jpg,Blue_Star_Chess_4.jpg,Green_Circle_Grid_3.jpg,right,637.510000000475,true,high,false
2RrYeJut,3peg1bh7bh4xuzsxamnfbz6ha40bkr,3b837j3lds9kl9ko2un9rkymynrrsw,2RrYeJut,2020-0188,2020-06-15,15:20:03,15:40:04,NA,incomplete,217,color,1,right,Blue_Star_Grid_2.jpg,Red_Triangle_Chess_2.jpg,Blue_Circle_Dots_3.jpg,right,727.2899999807123,true,high,false
2RrYeJut,3peg1bh7bh4xuzsxamnfbz6ha40bkr,3b837j3lds9kl9ko2un9rkymynrrsw,2RrYeJut,2020-0188,2020-06-15,15:20:03,15:40:04,NA,incomplete,218,color,1,right,Green_Circle_Grid_1.jpg,Purple_Star_Dots_1.jpg,Green_Triangle_Chess_2.jpg,right,725.8000000147149,true,high,false
2RrYeJut,3peg1bh7bh4xuzsxamnfbz6ha40bkr,3b837j3lds9kl9ko2un9rkymynrrsw,2RrYeJut,2020-0188,2020-06-15,15:20:03,15:40:04,NA,incomplete,219,color,1,right,Green_Plus_Grid_3.jpg,Red_Star_Chess_3.jpg,Green_Triangle_Dots_2.jpg,right,717.239999998128,true,high,false
2RrYeJut,3peg1bh7bh4xuzsxamnfbz6ha40bkr,3b837j3lds9kl9ko2un9rkymynrrsw,2RrYeJut,2020-0188,2020-06-15,15:20:03,15:40:04,NA,incomplete,220,number,0,left,Red_Circle_Stripes_3.jpg,Green_Star_Dots_3.jpg,Red_Triangle_Chess_1.jpg,right,643.7299999815878,false,high,false
2RrYeJut,3peg1bh7bh4xuzsxamnfbz6ha40bkr,3b837j3lds9kl9ko2un9rkymynrrsw,2RrYeJut,2020-0188,2020-06-15,15:20:03,15:40:04,NA,incomplete,221,number,1,right,Purple_Triangle_Chess_3.jpg,Purple_Star_Dots_4.jpg,Green_Plus_Grid_3.jpg,left,662.7500000176951,false,high,false
2RrYeJut,3peg1bh7bh4xuzsxamnfbz6ha40bkr,3b837j3lds9kl9ko2un9rkymynrrsw,2RrYeJut,2020-0188,2020-06-15,15:20:03,15:40:04,NA,incomplete,222,number,0,left,Green_Circle_Chess_4.jpg,Purple_Triangle_Stripes_4.jpg,Green_Plus_Dots_1.jpg,right,871.9149999960791,false,high,false
2RrYeJut,3peg1bh7bh4xuzsxamnfbz6ha40bkr,3b837j3lds9kl9ko2un9rkymynrrsw,2RrYeJut,2020-0188,2020-06-15,15:20:03,15:40:04,NA,incomplete,223,number,1,left,Red_Star_Grid_3.jpg,Blue_Triangle_Stripes_3.jpg,Red_Plus_Dots_4.jpg,right,720.499999995809,false,high,false
2RrYeJut,3peg1bh7bh4xuzsxamnfbz6ha40bkr,3b837j3lds9kl9ko2un9rkymynrrsw,2RrYeJut,2020-0188,2020-06-15,15:20:03,15:40:04,NA,incomplete,224,number,0,right,Red_Plus_Dots_2.jpg,Red_Star_Grid_1.jpg,Purple_Circle_Stripes_2.jpg,left,760.149999987334,false,high,false
2RrYeJut,3peg1bh7bh4xuzsxamnfbz6ha40bkr,3b837j3lds9kl9ko2un9rkymynrrsw,2RrYeJut,2020-0188,2020-06-15,15:20:03,15:40:04,NA,incomplete,225,number,1,left,Red_Triangle_Chess_1.jpg,Blue_Plus_Dots_1.jpg,Red_Star_Stripes_4.jpg,left,1270.295000023907,true,high,false
2RrYeJut,3peg1bh7bh4xuzsxamnfbz6ha40bkr,3b837j3lds9kl9ko2un9rkymynrrsw,2RrYeJut,2020-0188,2020-06-15,15:20:03,15:40:04,NA,incomplete,226,number,0,right,Red_Star_Stripes_3.jpg,Red_Triangle_Grid_2.jpg,Green_Plus_Chess_3.jpg,right,1070.2299999829847,true,high,false
2RrYeJut,3peg1bh7bh4xuzsxamnfbz6ha40bkr,3b837j3lds9kl9ko2un9rkymynrrsw,2RrYeJut,2020-0188,2020-06-15,15:20:03,15:40:04,NA,incomplete,227,number,1,right,Blue_Triangle_Dots_3.jpg,Blue_Star_Grid_4.jpg,Purple_Circle_Chess_3.jpg,right,1144.380000012461,true,high,false
2RrYeJut,3peg1bh7bh4xuzsxamnfbz6ha40bkr,3b837j3lds9kl9ko2un9rkymynrrsw,2RrYeJut,2020-0188,2020-06-15,15:20:03,15:40:04,NA,incomplete,228,number,1,right,Purple_Circle_Dots_4.jpg,Purple_Triangle_Chess_3.jpg,Red_Star_Grid_4.jpg,right,860.7100000081118,true,high,false
2RrYeJut,3peg1bh7bh4xuzsxamnfbz6ha40bkr,3b837j3lds9kl9ko2un9rkymynrrsw,2RrYeJut,2020-0188,2020-06-15,15:20:03,15:40:04,NA,incomplete,229,number,1,left,Purple_Star_Chess_3.jpg,Green_Circle_Grid_3.jpg,Purple_Triangle_Stripes_2.jpg,left,887.6250000030268,true,high,false
2RrYeJut,3peg1bh7bh4xuzsxamnfbz6ha40bkr,3b837j3lds9kl9ko2un9rkymynrrsw,2RrYeJut,2020-0188,2020-06-15,15:20:03,15:40:04,NA,incomplete,230,number,1,left,Blue_Circle_Stripes_4.jpg,Green_Star_Chess_4.jpg,Blue_Plus_Dots_3.jpg,left,991.150000016205,true,high,false
2RrYeJut,3peg1bh7bh4xuzsxamnfbz6ha40bkr,3b837j3lds9kl9ko2un9rkymynrrsw,2RrYeJut,2020-0188,2020-06-15,15:20:03,15:40:04,NA,incomplete,231,number,0,left,Purple_Star_Dots_1.jpg,Green_Circle_Chess_1.jpg,Purple_Triangle_Grid_2.jpg,left,876.1499999964144,true,high,false
2RrYeJut,3peg1bh7bh4xuzsxamnfbz6ha40bkr,3b837j3lds9kl9ko2un9rkymynrrsw,2RrYeJut,2020-0188,2020-06-15,15:20:03,15:40:04,NA,incomplete,232,number,1,left,Purple_Star_Stripes_3.jpg,Blue_Circle_Dots_3.jpg,Purple_Triangle_Grid_1.jpg,left,829.4600000081118,true,high,false
2RrYeJut,3peg1bh7bh4xuzsxamnfbz6ha40bkr,3b837j3lds9kl9ko2un9rkymynrrsw,2RrYeJut,2020-0188,2020-06-15,15:20:03,15:40:04,NA,incomplete,233,number,1,left,Green_Circle_Dots_2.jpg,Purple_Star_Chess_2.jpg,Green_Triangle_Grid_4.jpg,left,1103.9049999963026,true,high,false
2RrYeJut,3peg1bh7bh4xuzsxamnfbz6ha40bkr,3b837j3lds9kl9ko2un9rkymynrrsw,2RrYeJut,2020-0188,2020-06-15,15:20:03,15:40:04,NA,incomplete,234,number,1,right,Blue_Circle_Dots_1.jpg,Blue_Triangle_Grid_2.jpg,Purple_Star_Stripes_1.jpg,right,935.8449999999721,true,high,false
2RrYeJut,3peg1bh7bh4xuzsxamnfbz6ha40bkr,3b837j3lds9kl9ko2un9rkymynrrsw,2RrYeJut,2020-0188,2020-06-15,15:20:03,15:40:04,NA,incomplete,235,number,0,right,Green_Triangle_Dots_4.jpg,Green_Plus_Chess_3.jpg,Blue_Star_Stripes_4.jpg,right,870.5400000035297,true,high,false
2RrYeJut,3peg1bh7bh4xuzsxamnfbz6ha40bkr,3b837j3lds9kl9ko2un9rkymynrrsw,2RrYeJut,2020-0188,2020-06-15,15:20:03,15:40:04,NA,incomplete,236,number,1,right,Purple_Triangle_Chess_1.jpg,Purple_Plus_Dots_2.jpg,Red_Star_Stripes_1.jpg,right,1190.7200000132434,true,high,false
2RrYeJut,3peg1bh7bh4xuzsxamnfbz6ha40bkr,3b837j3lds9kl9ko2un9rkymynrrsw,2RrYeJut,2020-0188,2020-06-15,15:20:03,15:40:04,NA,incomplete,237,number,0,left,Red_Plus_Dots_1.jpg,Blue_Star_Grid_1.jpg,Red_Circle_Chess_2.jpg,left,723.3800000103656,true,high,false
2RrYeJut,3peg1bh7bh4xuzsxamnfbz6ha40bkr,3b837j3lds9kl9ko2un9rkymynrrsw,2RrYeJut,2020-0188,2020-06-15,15:20:03,15:40:04,NA,incomplete,238,number,1,left,Blue_Plus_Dots_1.jpg,Purple_Circle_Grid_1.jpg,Blue_Triangle_Stripes_4.jpg,left,770.6299999845214,true,high,false
2RrYeJut,3peg1bh7bh4xuzsxamnfbz6ha40bkr,3b837j3lds9kl9ko2un9rkymynrrsw,2RrYeJut,2020-0188,2020-06-15,15:20:03,15:40:04,NA,incomplete,239,number,1,right,Blue_Star_Grid_3.jpg,Blue_Triangle_Stripes_1.jpg,Purple_Plus_Dots_3.jpg,right,910.8249999990221,true,high,false
2RrYeJut,3peg1bh7bh4xuzsxamnfbz6ha40bkr,3b837j3lds9kl9ko2un9rkymynrrsw,2RrYeJut,2020-0188,2020-06-15,15:20:03,15:40:04,NA,NA,instruction example,filling,NA,NA,Blue_Plus_Chess_1.jpg,Purple_Triangle_Chess_2.jpg,Green_Plus_Dots_3.jpg,NA,NA,NA,NA,undefined
2RrYeJut,3peg1bh7bh4xuzsxamnfbz6ha40bkr,3b837j3lds9kl9ko2un9rkymynrrsw,2RrYeJut,2020-0188,2020-06-15,15:20:03,15:40:04,NA,NA,instruction example,filling,NA,NA,Blue_Circle_Stripes_3.jpg,Red_Circle_Grid_4.jpg,Purple_Triangle_Stripes_1.jpg,NA,NA,NA,NA,undefined
2RrYeJut,3peg1bh7bh4xuzsxamnfbz6ha40bkr,3b837j3lds9kl9ko2un9rkymynrrsw,2RrYeJut,2020-0188,2020-06-15,15:20:03,15:40:04,NA,NA,instruction example,filling,NA,NA,Blue_Star_Chess_1.jpg,Blue_Circle_Dots_3.jpg,Green_Plus_Grid_1.jpg,NA,NA,NA,NA,undefined
2RrYeJut,3peg1bh7bh4xuzsxamnfbz6ha40bkr,3b837j3lds9kl9ko2un9rkymynrrsw,2RrYeJut,2020-0188,2020-06-15,15:20:03,15:40:04,NA,NA,instruction example,filling,NA,NA,Green_Star_Grid_4.jpg,Purple_Circle_Chess_4.jpg,Green_Triangle_Dots_2.jpg,NA,NA,NA,NA,undefined
2RrYeJut,3peg1bh7bh4xuzsxamnfbz6ha40bkr,3b837j3lds9kl9ko2un9rkymynrrsw,2RrYeJut,2020-0188,2020-06-15,15:20:03,15:40:04,1144626.3999999792,1201932.7349999803,NA,NA,NA,NA,NA,NA,NA,NA,NA,NA,NA,undefined
