workerId,hitId,assignmentId,subject,studyid,exp_date,exp_start,exp_end,time_start,time_end,trial,type,reward_validity,answer,image_top,image_left,image_right,response,response_time,response_acc,volatility,practice
CYD3XANz,3dzkabx20liukfefnqxhosng7x6cv3,3del4x4elay1eri9azlqyo8bcsgxym,CYD3XANz,2020-0188,2020-05-21,13:29:20,14:06:31,NA,incomplete,0,color,1,left,Blue_Plus_Chess_3.jpg,Blue_Triangle_Stripes_2.jpg,Purple_Star_Chess_4.jpg,left,1246.7649999307469,true,NA,true
CYD3XANz,3dzkabx20liukfefnqxhosng7x6cv3,3del4x4elay1eri9azlqyo8bcsgxym,CYD3XANz,2020-0188,2020-05-21,13:29:20,14:06:31,NA,incomplete,1,color,1,left,Green_Triangle_Grid_2.jpg,Green_Circle_Chess_1.jpg,Purple_Plus_Grid_3.jpg,left,604.7350000590086,true,NA,true
CYD3XANz,3dzkabx20liukfefnqxhosng7x6cv3,3del4x4elay1eri9azlqyo8bcsgxym,CYD3XANz,2020-0188,2020-05-21,13:29:20,14:06:31,NA,incomplete,2,color,1,right,Blue_Triangle_Grid_2.jpg,Purple_Circle_Grid_3.jpg,Blue_Star_Chess_4.jpg,right,585.9850000124425,true,NA,true
CYD3XANz,3dzkabx20liukfefnqxhosng7x6cv3,3del4x4elay1eri9azlqyo8bcsgxym,CYD3XANz,2020-0188,2020-05-21,13:29:20,14:06:31,NA,incomplete,3,color,0,left,Purple_Circle_Stripes_3.jpg,Purple_Triangle_Grid_2.jpg,Blue_Star_Stripes_4.jpg,left,536.7199999745935,true,NA,true
CYD3XANz,3dzkabx20liukfefnqxhosng7x6cv3,3del4x4elay1eri9azlqyo8bcsgxym,CYD3XANz,2020-0188,2020-05-21,13:29:20,14:06:31,NA,incomplete,4,color,0,left,Blue_Star_Dots_4.jpg,Blue_Triangle_Stripes_2.jpg,Green_Circle_Dots_3.jpg,left,580.7599999243394,true,NA,true
CYD3XANz,3dzkabx20liukfefnqxhosng7x6cv3,3del4x4elay1eri9azlqyo8bcsgxym,CYD3XANz,2020-0188,2020-05-21,13:29:20,14:06:31,NA,incomplete,5,color,0,left,Purple_Plus_Dots_2.jpg,Purple_Star_Stripes_1.jpg,Red_Circle_Dots_4.jpg,left,537.5650000059977,true,NA,true
CYD3XANz,3dzkabx20liukfefnqxhosng7x6cv3,3del4x4elay1eri9azlqyo8bcsgxym,CYD3XANz,2020-0188,2020-05-21,13:29:20,14:06:31,NA,incomplete,6,color,1,right,Green_Circle_Chess_4.jpg,Red_Plus_Chess_3.jpg,Green_Triangle_Dots_1.jpg,right,635.2099999785423,true,NA,true
CYD3XANz,3dzkabx20liukfefnqxhosng7x6cv3,3del4x4elay1eri9azlqyo8bcsgxym,CYD3XANz,2020-0188,2020-05-21,13:29:20,14:06:31,NA,incomplete,7,color,1,left,Green_Plus_Chess_2.jpg,Green_Star_Stripes_1.jpg,Purple_Triangle_Chess_4.jpg,left,441.3700000150129,true,NA,true
CYD3XANz,3dzkabx20liukfefnqxhosng7x6cv3,3del4x4elay1eri9azlqyo8bcsgxym,CYD3XANz,2020-0188,2020-05-21,13:29:20,14:06:31,NA,incomplete,8,color,1,left,Purple_Plus_Chess_1.jpg,Purple_Star_Stripes_2.jpg,Green_Circle_Chess_4.jpg,left,486.585000064224,true,NA,true
CYD3XANz,3dzkabx20liukfefnqxhosng7x6cv3,3del4x4elay1eri9azlqyo8bcsgxym,CYD3XANz,2020-0188,2020-05-21,13:29:20,14:06:31,NA,incomplete,9,color,1,left,Blue_Star_Stripes_1.jpg,Blue_Plus_Grid_2.jpg,Red_Circle_Stripes_4.jpg,left,517.6199999405071,true,NA,true
CYD3XANz,3dzkabx20liukfefnqxhosng7x6cv3,3del4x4elay1eri9azlqyo8bcsgxym,CYD3XANz,2020-0188,2020-05-21,13:29:20,14:06:31,NA,incomplete,10,color,1,right,Green_Triangle_Grid_3.jpg,Purple_Plus_Grid_2.jpg,Green_Circle_Chess_1.jpg,right,520.0349999358878,true,NA,true
CYD3XANz,3dzkabx20liukfefnqxhosng7x6cv3,3del4x4elay1eri9azlqyo8bcsgxym,CYD3XANz,2020-0188,2020-05-21,13:29:20,14:06:31,NA,incomplete,11,color,0,right,Purple_Star_Grid_2.jpg,Blue_Circle_Grid_4.jpg,Purple_Plus_Dots_1.jpg,right,505.0500000361353,true,NA,true
CYD3XANz,3dzkabx20liukfefnqxhosng7x6cv3,3del4x4elay1eri9azlqyo8bcsgxym,CYD3XANz,2020-0188,2020-05-21,13:29:20,14:06:31,NA,incomplete,12,color,1,left,Red_Circle_Stripes_2.jpg,Red_Plus_Chess_3.jpg,Green_Star_Stripes_4.jpg,left,520.9150000009686,true,NA,true
CYD3XANz,3dzkabx20liukfefnqxhosng7x6cv3,3del4x4elay1eri9azlqyo8bcsgxym,CYD3XANz,2020-0188,2020-05-21,13:29:20,14:06:31,NA,incomplete,13,color,1,left,Green_Plus_Grid_3.jpg,Green_Circle_Stripes_1.jpg,Blue_Star_Grid_4.jpg,left,448.6099999630824,true,NA,true
CYD3XANz,3dzkabx20liukfefnqxhosng7x6cv3,3del4x4elay1eri9azlqyo8bcsgxym,CYD3XANz,2020-0188,2020-05-21,13:29:20,14:06:31,NA,incomplete,14,color,1,left,Purple_Triangle_Dots_3.jpg,Purple_Circle_Grid_2.jpg,Blue_Plus_Dots_4.jpg,left,481.8399999057874,true,NA,true
CYD3XANz,3dzkabx20liukfefnqxhosng7x6cv3,3del4x4elay1eri9azlqyo8bcsgxym,CYD3XANz,2020-0188,2020-05-21,13:29:20,14:06:31,NA,incomplete,15,color,1,left,Red_Triangle_Grid_3.jpg,Red_Plus_Dots_2.jpg,Purple_Star_Grid_4.jpg,left,434.83499996364117,true,NA,true
CYD3XANz,3dzkabx20liukfefnqxhosng7x6cv3,3del4x4elay1eri9azlqyo8bcsgxym,CYD3XANz,2020-0188,2020-05-21,13:29:20,14:06:31,NA,incomplete,16,color,1,right,Purple_Plus_Stripes_1.jpg,Green_Triangle_Stripes_2.jpg,Purple_Star_Chess_4.jpg,right,460.05499991588295,true,NA,true
CYD3XANz,3dzkabx20liukfefnqxhosng7x6cv3,3del4x4elay1eri9azlqyo8bcsgxym,CYD3XANz,2020-0188,2020-05-21,13:29:20,14:06:31,NA,incomplete,17,color,1,right,Red_Plus_Dots_4.jpg,Green_Star_Dots_1.jpg,Red_Triangle_Stripes_3.jpg,right,363.00500005017966,true,NA,true
CYD3XANz,3dzkabx20liukfefnqxhosng7x6cv3,3del4x4elay1eri9azlqyo8bcsgxym,CYD3XANz,2020-0188,2020-05-21,13:29:20,14:06:31,NA,incomplete,18,color,0,right,Purple_Star_Grid_3.jpg,Red_Triangle_Grid_2.jpg,Purple_Plus_Chess_1.jpg,right,405.67500004544854,true,NA,true
CYD3XANz,3dzkabx20liukfefnqxhosng7x6cv3,3del4x4elay1eri9azlqyo8bcsgxym,CYD3XANz,2020-0188,2020-05-21,13:29:20,14:06:31,NA,incomplete,19,color,0,left,Purple_Triangle_Grid_3.jpg,Purple_Plus_Stripes_2.jpg,Blue_Circle_Grid_4.jpg,left,415.08500010240823,true,NA,true
CYD3XANz,3dzkabx20liukfefnqxhosng7x6cv3,3del4x4elay1eri9azlqyo8bcsgxym,CYD3XANz,2020-0188,2020-05-21,13:29:20,14:06:31,NA,incomplete,20,filling,1,right,Purple_Star_Stripes_2.jpg,Purple_Plus_Dots_1.jpg,Red_Triangle_Stripes_4.jpg,left,586.9200000306591,false,NA,true
CYD3XANz,3dzkabx20liukfefnqxhosng7x6cv3,3del4x4elay1eri9azlqyo8bcsgxym,CYD3XANz,2020-0188,2020-05-21,13:29:20,14:06:31,NA,incomplete,21,filling,1,right,Red_Plus_Grid_2.jpg,Red_Star_Chess_3.jpg,Blue_Triangle_Grid_1.jpg,right,754.9950000829995,true,NA,true
CYD3XANz,3dzkabx20liukfefnqxhosng7x6cv3,3del4x4elay1eri9azlqyo8bcsgxym,CYD3XANz,2020-0188,2020-05-21,13:29:20,14:06:31,NA,incomplete,22,filling,1,left,Purple_Plus_Dots_1.jpg,Blue_Triangle_Dots_2.jpg,Purple_Circle_Chess_4.jpg,left,1005.6249999906868,true,NA,true
CYD3XANz,3dzkabx20liukfefnqxhosng7x6cv3,3del4x4elay1eri9azlqyo8bcsgxym,CYD3XANz,2020-0188,2020-05-21,13:29:20,14:06:31,NA,incomplete,23,filling,1,left,Blue_Plus_Grid_4.jpg,Red_Star_Grid_1.jpg,Blue_Triangle_Chess_2.jpg,left,768.6650000978261,true,NA,true
CYD3XANz,3dzkabx20liukfefnqxhosng7x6cv3,3del4x4elay1eri9azlqyo8bcsgxym,CYD3XANz,2020-0188,2020-05-21,13:29:20,14:06:31,NA,incomplete,24,filling,1,right,Blue_Circle_Grid_3.jpg,Blue_Triangle_Stripes_2.jpg,Green_Plus_Grid_1.jpg,left,773.589999997057,false,NA,true
CYD3XANz,3dzkabx20liukfefnqxhosng7x6cv3,3del4x4elay1eri9azlqyo8bcsgxym,CYD3XANz,2020-0188,2020-05-21,13:29:20,14:06:31,NA,incomplete,25,filling,1,left,Purple_Plus_Chess_3.jpg,Red_Triangle_Chess_4.jpg,Purple_Circle_Stripes_2.jpg,left,755.1150000654161,true,NA,true
CYD3XANz,3dzkabx20liukfefnqxhosng7x6cv3,3del4x4elay1eri9azlqyo8bcsgxym,CYD3XANz,2020-0188,2020-05-21,13:29:20,14:06:31,NA,incomplete,26,filling,1,right,Red_Triangle_Grid_2.jpg,Red_Circle_Dots_1.jpg,Green_Star_Grid_4.jpg,right,815.8350000157952,true,NA,true
CYD3XANz,3dzkabx20liukfefnqxhosng7x6cv3,3del4x4elay1eri9azlqyo8bcsgxym,CYD3XANz,2020-0188,2020-05-21,13:29:20,14:06:31,NA,incomplete,27,filling,1,right,Blue_Circle_Dots_1.jpg,Blue_Triangle_Grid_2.jpg,Purple_Plus_Dots_3.jpg,right,675.6799999857321,true,NA,true
CYD3XANz,3dzkabx20liukfefnqxhosng7x6cv3,3del4x4elay1eri9azlqyo8bcsgxym,CYD3XANz,2020-0188,2020-05-21,13:29:20,14:06:31,NA,incomplete,28,filling,1,left,Blue_Star_Chess_2.jpg,Red_Triangle_Chess_1.jpg,Blue_Circle_Dots_3.jpg,left,680.8100000489503,true,NA,true
CYD3XANz,3dzkabx20liukfefnqxhosng7x6cv3,3del4x4elay1eri9azlqyo8bcsgxym,CYD3XANz,2020-0188,2020-05-21,13:29:20,14:06:31,NA,incomplete,29,filling,0,left,Purple_Triangle_Dots_2.jpg,Blue_Star_Dots_4.jpg,Purple_Circle_Stripes_1.jpg,left,802.1149999694899,true,NA,true
CYD3XANz,3dzkabx20liukfefnqxhosng7x6cv3,3del4x4elay1eri9azlqyo8bcsgxym,CYD3XANz,2020-0188,2020-05-21,13:29:20,14:06:31,NA,incomplete,30,filling,1,right,Green_Plus_Grid_4.jpg,Green_Circle_Dots_3.jpg,Red_Triangle_Grid_2.jpg,left,1049.1749999346212,false,NA,true
CYD3XANz,3dzkabx20liukfefnqxhosng7x6cv3,3del4x4elay1eri9azlqyo8bcsgxym,CYD3XANz,2020-0188,2020-05-21,13:29:20,14:06:31,NA,incomplete,31,filling,1,right,Green_Star_Dots_4.jpg,Green_Circle_Chess_2.jpg,Blue_Plus_Dots_1.jpg,right,819.385000038892,true,NA,true
CYD3XANz,3dzkabx20liukfefnqxhosng7x6cv3,3del4x4elay1eri9azlqyo8bcsgxym,CYD3XANz,2020-0188,2020-05-21,13:29:20,14:06:31,NA,incomplete,32,filling,1,left,Green_Plus_Chess_4.jpg,Blue_Circle_Chess_3.jpg,Green_Triangle_Grid_2.jpg,left,692.4400000134483,true,NA,true
CYD3XANz,3dzkabx20liukfefnqxhosng7x6cv3,3del4x4elay1eri9azlqyo8bcsgxym,CYD3XANz,2020-0188,2020-05-21,13:29:20,14:06:31,NA,incomplete,33,filling,1,left,Blue_Plus_Chess_1.jpg,Red_Star_Chess_4.jpg,Blue_Triangle_Grid_2.jpg,left,706.8399999989197,true,NA,true
CYD3XANz,3dzkabx20liukfefnqxhosng7x6cv3,3del4x4elay1eri9azlqyo8bcsgxym,CYD3XANz,2020-0188,2020-05-21,13:29:20,14:06:31,NA,incomplete,34,filling,0,right,Red_Star_Grid_4.jpg,Red_Triangle_Dots_2.jpg,Green_Plus_Grid_1.jpg,right,736.4250000100583,true,NA,true
CYD3XANz,3dzkabx20liukfefnqxhosng7x6cv3,3del4x4elay1eri9azlqyo8bcsgxym,CYD3XANz,2020-0188,2020-05-21,13:29:20,14:06:31,NA,incomplete,35,filling,1,right,Green_Circle_Dots_1.jpg,Green_Plus_Chess_2.jpg,Blue_Star_Dots_4.jpg,right,696.3449999457225,true,NA,true
CYD3XANz,3dzkabx20liukfefnqxhosng7x6cv3,3del4x4elay1eri9azlqyo8bcsgxym,CYD3XANz,2020-0188,2020-05-21,13:29:20,14:06:31,NA,incomplete,36,filling,1,left,Purple_Circle_Stripes_2.jpg,Green_Triangle_Stripes_4.jpg,Purple_Star_Dots_1.jpg,left,633.2349999574944,true,NA,true
CYD3XANz,3dzkabx20liukfefnqxhosng7x6cv3,3del4x4elay1eri9azlqyo8bcsgxym,CYD3XANz,2020-0188,2020-05-21,13:29:20,14:06:31,NA,incomplete,37,filling,1,left,Red_Star_Grid_2.jpg,Blue_Plus_Grid_4.jpg,Red_Triangle_Dots_3.jpg,left,750.2650000387803,true,NA,true
CYD3XANz,3dzkabx20liukfefnqxhosng7x6cv3,3del4x4elay1eri9azlqyo8bcsgxym,CYD3XANz,2020-0188,2020-05-21,13:29:20,14:06:31,NA,incomplete,38,filling,1,right,Purple_Circle_Stripes_3.jpg,Purple_Star_Chess_1.jpg,Blue_Plus_Stripes_2.jpg,right,734.8150000907481,true,NA,true
CYD3XANz,3dzkabx20liukfefnqxhosng7x6cv3,3del4x4elay1eri9azlqyo8bcsgxym,CYD3XANz,2020-0188,2020-05-21,13:29:20,14:06:31,NA,incomplete,39,filling,1,right,Red_Circle_Stripes_3.jpg,Red_Plus_Chess_4.jpg,Blue_Star_Stripes_1.jpg,right,924.5649999938905,true,NA,true
CYD3XANz,3dzkabx20liukfefnqxhosng7x6cv3,3del4x4elay1eri9azlqyo8bcsgxym,CYD3XANz,2020-0188,2020-05-21,13:29:20,14:06:31,NA,incomplete,0,color,1,right,Red_Plus_Chess_4.jpg,Purple_Triangle_Chess_2.jpg,Red_Circle_Grid_1.jpg,right,1384.3699999852106,true,high,false
CYD3XANz,3dzkabx20liukfefnqxhosng7x6cv3,3del4x4elay1eri9azlqyo8bcsgxym,CYD3XANz,2020-0188,2020-05-21,13:29:20,14:06:31,NA,incomplete,1,color,1,right,Red_Circle_Dots_2.jpg,Green_Triangle_Dots_3.jpg,Red_Star_Chess_1.jpg,right,553.675000090152,true,high,false
CYD3XANz,3dzkabx20liukfefnqxhosng7x6cv3,3del4x4elay1eri9azlqyo8bcsgxym,CYD3XANz,2020-0188,2020-05-21,13:29:20,14:06:31,NA,incomplete,2,color,1,left,Red_Plus_Dots_1.jpg,Red_Circle_Stripes_3.jpg,Blue_Triangle_Dots_4.jpg,left,557.9249999718741,true,high,false
CYD3XANz,3dzkabx20liukfefnqxhosng7x6cv3,3del4x4elay1eri9azlqyo8bcsgxym,CYD3XANz,2020-0188,2020-05-21,13:29:20,14:06:31,NA,incomplete,3,color,1,right,Red_Triangle_Stripes_1.jpg,Green_Circle_Stripes_4.jpg,Red_Plus_Chess_2.jpg,right,386.69499999377877,true,high,false
CYD3XANz,3dzkabx20liukfefnqxhosng7x6cv3,3del4x4elay1eri9azlqyo8bcsgxym,CYD3XANz,2020-0188,2020-05-21,13:29:20,14:06:31,NA,incomplete,4,color,1,left,Green_Plus_Dots_4.jpg,Green_Star_Chess_3.jpg,Blue_Triangle_Dots_2.jpg,left,499.7750000329688,true,high,false
CYD3XANz,3dzkabx20liukfefnqxhosng7x6cv3,3del4x4elay1eri9azlqyo8bcsgxym,CYD3XANz,2020-0188,2020-05-21,13:29:20,14:06:31,NA,incomplete,5,color,1,left,Blue_Circle_Chess_4.jpg,Blue_Star_Dots_1.jpg,Red_Plus_Chess_2.jpg,left,541.2350000115111,true,high,false
CYD3XANz,3dzkabx20liukfefnqxhosng7x6cv3,3del4x4elay1eri9azlqyo8bcsgxym,CYD3XANz,2020-0188,2020-05-21,13:29:20,14:06:31,NA,incomplete,6,color,1,right,Green_Star_Chess_2.jpg,Blue_Triangle_Chess_4.jpg,Green_Plus_Grid_1.jpg,right,487.8150000004098,true,high,false
CYD3XANz,3dzkabx20liukfefnqxhosng7x6cv3,3del4x4elay1eri9azlqyo8bcsgxym,CYD3XANz,2020-0188,2020-05-21,13:29:20,14:06:31,NA,incomplete,7,color,1,left,Green_Circle_Grid_1.jpg,Green_Star_Chess_3.jpg,Blue_Triangle_Grid_4.jpg,left,475.6500000366941,true,high,false
CYD3XANz,3dzkabx20liukfefnqxhosng7x6cv3,3del4x4elay1eri9azlqyo8bcsgxym,CYD3XANz,2020-0188,2020-05-21,13:29:20,14:06:31,NA,incomplete,8,color,1,left,Blue_Triangle_Stripes_1.jpg,Blue_Circle_Dots_4.jpg,Red_Star_Stripes_2.jpg,left,457.0349999703467,true,high,false
CYD3XANz,3dzkabx20liukfefnqxhosng7x6cv3,3del4x4elay1eri9azlqyo8bcsgxym,CYD3XANz,2020-0188,2020-05-21,13:29:20,14:06:31,NA,incomplete,9,color,1,left,Red_Circle_Stripes_4.jpg,Red_Star_Chess_2.jpg,Blue_Triangle_Stripes_1.jpg,left,452.82000000588596,true,high,false
CYD3XANz,3dzkabx20liukfefnqxhosng7x6cv3,3del4x4elay1eri9azlqyo8bcsgxym,CYD3XANz,2020-0188,2020-05-21,13:29:20,14:06:31,NA,incomplete,10,filling,1,right,Green_Star_Dots_4.jpg,Green_Plus_Chess_2.jpg,Blue_Circle_Dots_3.jpg,left,412.999999942258,false,high,false
CYD3XANz,3dzkabx20liukfefnqxhosng7x6cv3,3del4x4elay1eri9azlqyo8bcsgxym,CYD3XANz,2020-0188,2020-05-21,13:29:20,14:06:31,NA,incomplete,11,filling,1,left,Red_Triangle_Dots_4.jpg,Blue_Circle_Dots_1.jpg,Red_Plus_Stripes_3.jpg,left,829.3200000189245,true,high,false
CYD3XANz,3dzkabx20liukfefnqxhosng7x6cv3,3del4x4elay1eri9azlqyo8bcsgxym,CYD3XANz,2020-0188,2020-05-21,13:29:20,14:06:31,NA,incomplete,12,filling,1,right,Green_Star_Chess_4.jpg,Green_Plus_Dots_3.jpg,Blue_Triangle_Chess_2.jpg,right,719.3099999567494,true,high,false
CYD3XANz,3dzkabx20liukfefnqxhosng7x6cv3,3del4x4elay1eri9azlqyo8bcsgxym,CYD3XANz,2020-0188,2020-05-21,13:29:20,14:06:31,NA,incomplete,13,filling,1,left,Green_Plus_Grid_2.jpg,Purple_Triangle_Grid_1.jpg,Green_Star_Chess_3.jpg,left,789.7249999223277,true,high,false
CYD3XANz,3dzkabx20liukfefnqxhosng7x6cv3,3del4x4elay1eri9azlqyo8bcsgxym,CYD3XANz,2020-0188,2020-05-21,13:29:20,14:06:31,NA,incomplete,14,filling,1,right,Green_Plus_Stripes_1.jpg,Green_Triangle_Grid_2.jpg,Purple_Star_Stripes_4.jpg,right,834.7499999217689,true,high,false
CYD3XANz,3dzkabx20liukfefnqxhosng7x6cv3,3del4x4elay1eri9azlqyo8bcsgxym,CYD3XANz,2020-0188,2020-05-21,13:29:20,14:06:31,NA,incomplete,15,filling,1,right,Red_Plus_Chess_1.jpg,Red_Triangle_Dots_2.jpg,Blue_Star_Chess_3.jpg,right,771.8949998961762,true,high,false
CYD3XANz,3dzkabx20liukfefnqxhosng7x6cv3,3del4x4elay1eri9azlqyo8bcsgxym,CYD3XANz,2020-0188,2020-05-21,13:29:20,14:06:31,NA,incomplete,16,filling,1,right,Green_Star_Grid_1.jpg,Green_Circle_Stripes_4.jpg,Purple_Triangle_Grid_2.jpg,right,689.2350000562146,true,high,false
CYD3XANz,3dzkabx20liukfefnqxhosng7x6cv3,3del4x4elay1eri9azlqyo8bcsgxym,CYD3XANz,2020-0188,2020-05-21,13:29:20,14:06:31,NA,incomplete,17,filling,1,left,Purple_Circle_Grid_3.jpg,Red_Plus_Grid_2.jpg,Purple_Triangle_Dots_1.jpg,left,759.165000054054,true,high,false
CYD3XANz,3dzkabx20liukfefnqxhosng7x6cv3,3del4x4elay1eri9azlqyo8bcsgxym,CYD3XANz,2020-0188,2020-05-21,13:29:20,14:06:31,NA,incomplete,18,filling,1,left,Green_Circle_Chess_3.jpg,Blue_Star_Chess_1.jpg,Green_Plus_Stripes_2.jpg,left,830.6850000517443,true,high,false
CYD3XANz,3dzkabx20liukfefnqxhosng7x6cv3,3del4x4elay1eri9azlqyo8bcsgxym,CYD3XANz,2020-0188,2020-05-21,13:29:20,14:06:31,NA,incomplete,19,filling,0,left,Blue_Circle_Chess_3.jpg,Purple_Star_Chess_4.jpg,Blue_Triangle_Grid_1.jpg,left,723.3649999834597,true,high,false
CYD3XANz,3dzkabx20liukfefnqxhosng7x6cv3,3del4x4elay1eri9azlqyo8bcsgxym,CYD3XANz,2020-0188,2020-05-21,13:29:20,14:06:31,NA,incomplete,20,color,1,right,Blue_Circle_Stripes_3.jpg,Green_Plus_Stripes_4.jpg,Blue_Star_Grid_1.jpg,left,851.5449999831617,false,high,false
CYD3XANz,3dzkabx20liukfefnqxhosng7x6cv3,3del4x4elay1eri9azlqyo8bcsgxym,CYD3XANz,2020-0188,2020-05-21,13:29:20,14:06:31,NA,incomplete,21,color,0,right,Blue_Triangle_Dots_1.jpg,Purple_Plus_Dots_2.jpg,Blue_Star_Stripes_4.jpg,right,436.7050000000745,true,high,false
CYD3XANz,3dzkabx20liukfefnqxhosng7x6cv3,3del4x4elay1eri9azlqyo8bcsgxym,CYD3XANz,2020-0188,2020-05-21,13:29:20,14:06:31,NA,incomplete,22,color,1,left,Green_Triangle_Grid_3.jpg,Green_Plus_Dots_2.jpg,Purple_Star_Grid_1.jpg,right,787.0849999599159,false,high,false
CYD3XANz,3dzkabx20liukfefnqxhosng7x6cv3,3del4x4elay1eri9azlqyo8bcsgxym,CYD3XANz,2020-0188,2020-05-21,13:29:20,14:06:31,NA,incomplete,23,color,0,right,Blue_Plus_Grid_1.jpg,Red_Star_Grid_4.jpg,Blue_Triangle_Chess_3.jpg,right,618.2999999728054,true,high,false
CYD3XANz,3dzkabx20liukfefnqxhosng7x6cv3,3del4x4elay1eri9azlqyo8bcsgxym,CYD3XANz,2020-0188,2020-05-21,13:29:20,14:06:31,NA,incomplete,24,color,0,left,Red_Triangle_Chess_1.jpg,Red_Circle_Grid_2.jpg,Purple_Plus_Chess_4.jpg,right,754.759999923408,false,high,false
CYD3XANz,3dzkabx20liukfefnqxhosng7x6cv3,3del4x4elay1eri9azlqyo8bcsgxym,CYD3XANz,2020-0188,2020-05-21,13:29:20,14:06:31,NA,incomplete,25,color,1,left,Red_Triangle_Chess_2.jpg,Red_Circle_Grid_3.jpg,Green_Plus_Chess_4.jpg,right,471.55500005465,false,high,false
CYD3XANz,3dzkabx20liukfefnqxhosng7x6cv3,3del4x4elay1eri9azlqyo8bcsgxym,CYD3XANz,2020-0188,2020-05-21,13:29:20,14:06:31,NA,incomplete,26,color,1,left,Purple_Triangle_Stripes_4.jpg,Purple_Circle_Chess_3.jpg,Blue_Plus_Stripes_2.jpg,left,571.1150000570342,true,high,false
CYD3XANz,3dzkabx20liukfefnqxhosng7x6cv3,3del4x4elay1eri9azlqyo8bcsgxym,CYD3XANz,2020-0188,2020-05-21,13:29:20,14:06:31,NA,incomplete,27,color,1,left,Red_Triangle_Stripes_3.jpg,Red_Circle_Dots_4.jpg,Blue_Star_Stripes_1.jpg,left,496.84000003617257,true,high,false
CYD3XANz,3dzkabx20liukfefnqxhosng7x6cv3,3del4x4elay1eri9azlqyo8bcsgxym,CYD3XANz,2020-0188,2020-05-21,13:29:20,14:06:31,NA,incomplete,28,color,1,right,Purple_Plus_Chess_3.jpg,Red_Triangle_Chess_2.jpg,Purple_Circle_Stripes_1.jpg,left,343.80499995313585,false,high,false
CYD3XANz,3dzkabx20liukfefnqxhosng7x6cv3,3del4x4elay1eri9azlqyo8bcsgxym,CYD3XANz,2020-0188,2020-05-21,13:29:20,14:06:31,NA,incomplete,29,color,1,right,Red_Plus_Stripes_4.jpg,Purple_Circle_Stripes_1.jpg,Red_Star_Chess_3.jpg,right,528.8500000024214,true,high,false
CYD3XANz,3dzkabx20liukfefnqxhosng7x6cv3,3del4x4elay1eri9azlqyo8bcsgxym,CYD3XANz,2020-0188,2020-05-21,13:29:20,14:06:31,NA,incomplete,30,filling,1,left,Blue_Triangle_Stripes_3.jpg,Purple_Star_Stripes_1.jpg,Blue_Plus_Chess_4.jpg,right,452.930000028573,false,high,false
CYD3XANz,3dzkabx20liukfefnqxhosng7x6cv3,3del4x4elay1eri9azlqyo8bcsgxym,CYD3XANz,2020-0188,2020-05-21,13:29:20,14:06:31,NA,incomplete,31,filling,1,right,Red_Star_Dots_4.jpg,Red_Circle_Grid_3.jpg,Green_Plus_Dots_1.jpg,right,931.71999999322,true,high,false
CYD3XANz,3dzkabx20liukfefnqxhosng7x6cv3,3del4x4elay1eri9azlqyo8bcsgxym,CYD3XANz,2020-0188,2020-05-21,13:29:20,14:06:31,NA,incomplete,32,filling,1,right,Red_Triangle_Stripes_2.jpg,Red_Circle_Dots_1.jpg,Green_Plus_Stripes_4.jpg,right,707.3249999666587,true,high,false
CYD3XANz,3dzkabx20liukfefnqxhosng7x6cv3,3del4x4elay1eri9azlqyo8bcsgxym,CYD3XANz,2020-0188,2020-05-21,13:29:20,14:06:31,NA,incomplete,33,filling,1,right,Green_Circle_Chess_2.jpg,Green_Triangle_Dots_4.jpg,Purple_Star_Chess_3.jpg,right,750.7149999728426,true,high,false
CYD3XANz,3dzkabx20liukfefnqxhosng7x6cv3,3del4x4elay1eri9azlqyo8bcsgxym,CYD3XANz,2020-0188,2020-05-21,13:29:20,14:06:31,NA,incomplete,34,filling,1,right,Green_Circle_Grid_1.jpg,Green_Plus_Stripes_2.jpg,Red_Star_Grid_3.jpg,right,765.6049999641255,true,high,false
CYD3XANz,3dzkabx20liukfefnqxhosng7x6cv3,3del4x4elay1eri9azlqyo8bcsgxym,CYD3XANz,2020-0188,2020-05-21,13:29:20,14:06:31,NA,incomplete,35,filling,1,right,Green_Star_Stripes_1.jpg,Green_Circle_Grid_3.jpg,Red_Triangle_Stripes_4.jpg,right,651.1099999770522,true,high,false
CYD3XANz,3dzkabx20liukfefnqxhosng7x6cv3,3del4x4elay1eri9azlqyo8bcsgxym,CYD3XANz,2020-0188,2020-05-21,13:29:20,14:06:31,NA,incomplete,36,filling,0,left,Blue_Triangle_Stripes_4.jpg,Purple_Star_Stripes_3.jpg,Blue_Circle_Grid_1.jpg,right,717.85000001546,false,high,false
CYD3XANz,3dzkabx20liukfefnqxhosng7x6cv3,3del4x4elay1eri9azlqyo8bcsgxym,CYD3XANz,2020-0188,2020-05-21,13:29:20,14:06:31,NA,incomplete,37,filling,1,right,Purple_Star_Dots_4.jpg,Purple_Triangle_Chess_2.jpg,Green_Plus_Dots_1.jpg,right,701.6399999847636,true,high,false
CYD3XANz,3dzkabx20liukfefnqxhosng7x6cv3,3del4x4elay1eri9azlqyo8bcsgxym,CYD3XANz,2020-0188,2020-05-21,13:29:20,14:06:31,NA,incomplete,38,filling,1,left,Red_Triangle_Grid_2.jpg,Blue_Star_Grid_4.jpg,Red_Circle_Chess_3.jpg,left,707.6400000369176,true,high,false
CYD3XANz,3dzkabx20liukfefnqxhosng7x6cv3,3del4x4elay1eri9azlqyo8bcsgxym,CYD3XANz,2020-0188,2020-05-21,13:29:20,14:06:31,NA,incomplete,39,filling,1,right,Green_Star_Stripes_4.jpg,Green_Plus_Chess_3.jpg,Red_Triangle_Stripes_1.jpg,right,672.749999910593,true,high,false
CYD3XANz,3dzkabx20liukfefnqxhosng7x6cv3,3del4x4elay1eri9azlqyo8bcsgxym,CYD3XANz,2020-0188,2020-05-21,13:29:20,14:06:31,NA,incomplete,40,color,1,left,Purple_Circle_Grid_4.jpg,Purple_Triangle_Dots_3.jpg,Blue_Star_Grid_2.jpg,right,698.7900000531226,false,high,false
CYD3XANz,3dzkabx20liukfefnqxhosng7x6cv3,3del4x4elay1eri9azlqyo8bcsgxym,CYD3XANz,2020-0188,2020-05-21,13:29:20,14:06:31,NA,incomplete,41,color,1,right,Blue_Circle_Dots_1.jpg,Purple_Plus_Dots_3.jpg,Blue_Star_Stripes_2.jpg,right,469.72499997355044,true,high,false
CYD3XANz,3dzkabx20liukfefnqxhosng7x6cv3,3del4x4elay1eri9azlqyo8bcsgxym,CYD3XANz,2020-0188,2020-05-21,13:29:20,14:06:31,NA,incomplete,42,color,1,left,Purple_Star_Grid_4.jpg,Purple_Triangle_Dots_1.jpg,Blue_Circle_Grid_3.jpg,left,456.6249999916181,true,high,false
CYD3XANz,3dzkabx20liukfefnqxhosng7x6cv3,3del4x4elay1eri9azlqyo8bcsgxym,CYD3XANz,2020-0188,2020-05-21,13:29:20,14:06:31,NA,incomplete,43,color,1,left,Green_Plus_Grid_4.jpg,Green_Circle_Dots_2.jpg,Blue_Triangle_Grid_3.jpg,left,508.0049999523908,true,high,false
CYD3XANz,3dzkabx20liukfefnqxhosng7x6cv3,3del4x4elay1eri9azlqyo8bcsgxym,CYD3XANz,2020-0188,2020-05-21,13:29:20,14:06:31,NA,incomplete,44,color,1,right,Red_Star_Stripes_1.jpg,Purple_Circle_Stripes_4.jpg,Red_Triangle_Chess_3.jpg,right,396.59999997820705,true,high,false
CYD3XANz,3dzkabx20liukfefnqxhosng7x6cv3,3del4x4elay1eri9azlqyo8bcsgxym,CYD3XANz,2020-0188,2020-05-21,13:29:20,14:06:31,NA,incomplete,45,color,0,left,Red_Plus_Stripes_4.jpg,Red_Circle_Grid_2.jpg,Purple_Triangle_Stripes_1.jpg,left,377.16499995440245,true,high,false
CYD3XANz,3dzkabx20liukfefnqxhosng7x6cv3,3del4x4elay1eri9azlqyo8bcsgxym,CYD3XANz,2020-0188,2020-05-21,13:29:20,14:06:31,NA,incomplete,46,color,1,left,Green_Star_Grid_1.jpg,Green_Circle_Dots_2.jpg,Purple_Triangle_Grid_4.jpg,left,421.41000006813556,true,high,false
CYD3XANz,3dzkabx20liukfefnqxhosng7x6cv3,3del4x4elay1eri9azlqyo8bcsgxym,CYD3XANz,2020-0188,2020-05-21,13:29:20,14:06:31,NA,incomplete,47,color,1,right,Blue_Star_Dots_4.jpg,Purple_Triangle_Dots_2.jpg,Blue_Circle_Grid_3.jpg,right,519.2250000545755,true,high,false
CYD3XANz,3dzkabx20liukfefnqxhosng7x6cv3,3del4x4elay1eri9azlqyo8bcsgxym,CYD3XANz,2020-0188,2020-05-21,13:29:20,14:06:31,NA,incomplete,48,color,1,left,Green_Circle_Grid_3.jpg,Green_Plus_Stripes_4.jpg,Blue_Star_Grid_2.jpg,left,359.92499999701977,true,high,false
CYD3XANz,3dzkabx20liukfefnqxhosng7x6cv3,3del4x4elay1eri9azlqyo8bcsgxym,CYD3XANz,2020-0188,2020-05-21,13:29:20,14:06:31,NA,incomplete,49,color,0,left,Green_Triangle_Chess_4.jpg,Green_Star_Stripes_2.jpg,Purple_Plus_Chess_1.jpg,left,389.4449999788776,true,high,false
CYD3XANz,3dzkabx20liukfefnqxhosng7x6cv3,3del4x4elay1eri9azlqyo8bcsgxym,CYD3XANz,2020-0188,2020-05-21,13:29:20,14:06:31,NA,incomplete,50,filling,1,left,Blue_Star_Dots_3.jpg,Red_Triangle_Dots_1.jpg,Blue_Circle_Chess_4.jpg,right,371.9000000273809,false,high,false
CYD3XANz,3dzkabx20liukfefnqxhosng7x6cv3,3del4x4elay1eri9azlqyo8bcsgxym,CYD3XANz,2020-0188,2020-05-21,13:29:20,14:06:31,NA,incomplete,51,filling,1,right,Red_Star_Dots_1.jpg,Red_Circle_Stripes_3.jpg,Purple_Triangle_Dots_4.jpg,right,700.3750000149012,true,high,false
CYD3XANz,3dzkabx20liukfefnqxhosng7x6cv3,3del4x4elay1eri9azlqyo8bcsgxym,CYD3XANz,2020-0188,2020-05-21,13:29:20,14:06:31,NA,incomplete,52,filling,1,left,Blue_Plus_Stripes_3.jpg,Red_Circle_Stripes_1.jpg,Blue_Star_Grid_4.jpg,left,570.5549999838695,true,high,false
CYD3XANz,3dzkabx20liukfefnqxhosng7x6cv3,3del4x4elay1eri9azlqyo8bcsgxym,CYD3XANz,2020-0188,2020-05-21,13:29:20,14:06:31,NA,incomplete,53,filling,0,left,Green_Star_Grid_4.jpg,Purple_Triangle_Grid_1.jpg,Green_Circle_Chess_3.jpg,left,600.830000010319,true,high,false
CYD3XANz,3dzkabx20liukfefnqxhosng7x6cv3,3del4x4elay1eri9azlqyo8bcsgxym,CYD3XANz,2020-0188,2020-05-21,13:29:20,14:06:31,NA,incomplete,54,filling,1,left,Green_Triangle_Grid_3.jpg,Purple_Circle_Grid_1.jpg,Green_Plus_Chess_4.jpg,left,652.0099999615923,true,high,false
CYD3XANz,3dzkabx20liukfefnqxhosng7x6cv3,3del4x4elay1eri9azlqyo8bcsgxym,CYD3XANz,2020-0188,2020-05-21,13:29:20,14:06:31,NA,incomplete,55,filling,0,right,Red_Triangle_Grid_4.jpg,Red_Circle_Chess_2.jpg,Purple_Star_Grid_1.jpg,right,657.0449999999255,true,high,false
CYD3XANz,3dzkabx20liukfefnqxhosng7x6cv3,3del4x4elay1eri9azlqyo8bcsgxym,CYD3XANz,2020-0188,2020-05-21,13:29:20,14:06:31,NA,incomplete,56,filling,1,left,Purple_Triangle_Dots_4.jpg,Red_Plus_Dots_3.jpg,Purple_Circle_Grid_1.jpg,left,698.6650000326335,true,high,false
CYD3XANz,3dzkabx20liukfefnqxhosng7x6cv3,3del4x4elay1eri9azlqyo8bcsgxym,CYD3XANz,2020-0188,2020-05-21,13:29:20,14:06:31,NA,incomplete,57,filling,1,left,Green_Circle_Grid_4.jpg,Purple_Star_Grid_2.jpg,Green_Plus_Chess_3.jpg,left,581.804999965243,true,high,false
CYD3XANz,3dzkabx20liukfefnqxhosng7x6cv3,3del4x4elay1eri9azlqyo8bcsgxym,CYD3XANz,2020-0188,2020-05-21,13:29:20,14:06:31,NA,incomplete,58,filling,1,left,Purple_Triangle_Dots_1.jpg,Green_Plus_Dots_3.jpg,Purple_Star_Stripes_4.jpg,left,570.0950000900775,true,high,false
CYD3XANz,3dzkabx20liukfefnqxhosng7x6cv3,3del4x4elay1eri9azlqyo8bcsgxym,CYD3XANz,2020-0188,2020-05-21,13:29:20,14:06:31,NA,incomplete,59,filling,1,left,Red_Star_Chess_2.jpg,Green_Plus_Chess_4.jpg,Red_Circle_Grid_1.jpg,left,613.7850000523031,true,high,false
CYD3XANz,3dzkabx20liukfefnqxhosng7x6cv3,3del4x4elay1eri9azlqyo8bcsgxym,CYD3XANz,2020-0188,2020-05-21,13:29:20,14:06:31,NA,incomplete,60,color,1,left,Purple_Plus_Grid_4.jpg,Purple_Star_Chess_2.jpg,Green_Triangle_Grid_3.jpg,left,542.0650000451133,true,high,false
CYD3XANz,3dzkabx20liukfefnqxhosng7x6cv3,3del4x4elay1eri9azlqyo8bcsgxym,CYD3XANz,2020-0188,2020-05-21,13:29:20,14:06:31,NA,incomplete,61,color,0,left,Purple_Plus_Stripes_1.jpg,Purple_Circle_Grid_2.jpg,Green_Star_Stripes_3.jpg,left,405.1050000125542,true,high,false
CYD3XANz,3dzkabx20liukfefnqxhosng7x6cv3,3del4x4elay1eri9azlqyo8bcsgxym,CYD3XANz,2020-0188,2020-05-21,13:29:20,14:06:31,NA,incomplete,62,color,0,right,Green_Circle_Dots_4.jpg,Red_Star_Dots_1.jpg,Green_Plus_Stripes_3.jpg,right,484.9099999992177,true,high,false
CYD3XANz,3dzkabx20liukfefnqxhosng7x6cv3,3del4x4elay1eri9azlqyo8bcsgxym,CYD3XANz,2020-0188,2020-05-21,13:29:20,14:06:31,NA,incomplete,63,color,1,left,Red_Triangle_Dots_4.jpg,Red_Circle_Grid_2.jpg,Green_Plus_Dots_1.jpg,left,588.4050000458956,true,high,false
CYD3XANz,3dzkabx20liukfefnqxhosng7x6cv3,3del4x4elay1eri9azlqyo8bcsgxym,CYD3XANz,2020-0188,2020-05-21,13:29:20,14:06:31,NA,incomplete,64,color,1,left,Purple_Star_Chess_2.jpg,Purple_Circle_Stripes_3.jpg,Blue_Triangle_Chess_4.jpg,left,476.3099999399856,true,high,false
CYD3XANz,3dzkabx20liukfefnqxhosng7x6cv3,3del4x4elay1eri9azlqyo8bcsgxym,CYD3XANz,2020-0188,2020-05-21,13:29:20,14:06:31,NA,incomplete,65,color,1,left,Blue_Plus_Chess_3.jpg,Blue_Circle_Stripes_2.jpg,Purple_Star_Chess_1.jpg,left,427.7449999935925,true,high,false
CYD3XANz,3dzkabx20liukfefnqxhosng7x6cv3,3del4x4elay1eri9azlqyo8bcsgxym,CYD3XANz,2020-0188,2020-05-21,13:29:20,14:06:31,NA,incomplete,66,color,0,right,Purple_Circle_Chess_2.jpg,Green_Triangle_Chess_3.jpg,Purple_Plus_Stripes_1.jpg,right,418.05000009480864,true,high,false
CYD3XANz,3dzkabx20liukfefnqxhosng7x6cv3,3del4x4elay1eri9azlqyo8bcsgxym,CYD3XANz,2020-0188,2020-05-21,13:29:20,14:06:31,NA,incomplete,67,color,1,left,Blue_Triangle_Chess_3.jpg,Blue_Circle_Dots_4.jpg,Purple_Plus_Chess_1.jpg,left,325.47500007785857,true,high,false
CYD3XANz,3dzkabx20liukfefnqxhosng7x6cv3,3del4x4elay1eri9azlqyo8bcsgxym,CYD3XANz,2020-0188,2020-05-21,13:29:20,14:06:31,NA,incomplete,68,color,0,right,Purple_Star_Dots_1.jpg,Green_Triangle_Dots_4.jpg,Purple_Circle_Grid_3.jpg,right,403.59999996144325,true,high,false
CYD3XANz,3dzkabx20liukfefnqxhosng7x6cv3,3del4x4elay1eri9azlqyo8bcsgxym,CYD3XANz,2020-0188,2020-05-21,13:29:20,14:06:31,NA,incomplete,69,color,1,left,Red_Star_Chess_3.jpg,Red_Triangle_Grid_1.jpg,Purple_Circle_Chess_4.jpg,right,672.3950000014156,false,high,false
CYD3XANz,3dzkabx20liukfefnqxhosng7x6cv3,3del4x4elay1eri9azlqyo8bcsgxym,CYD3XANz,2020-0188,2020-05-21,13:29:20,14:06:31,NA,incomplete,70,filling,0,right,Green_Triangle_Dots_4.jpg,Green_Plus_Grid_1.jpg,Blue_Circle_Dots_2.jpg,right,661.9749999372289,true,high,false
CYD3XANz,3dzkabx20liukfefnqxhosng7x6cv3,3del4x4elay1eri9azlqyo8bcsgxym,CYD3XANz,2020-0188,2020-05-21,13:29:20,14:06:31,NA,incomplete,71,filling,1,left,Red_Circle_Stripes_1.jpg,Blue_Triangle_Stripes_4.jpg,Red_Star_Grid_3.jpg,right,430.45500002335757,false,high,false
CYD3XANz,3dzkabx20liukfefnqxhosng7x6cv3,3del4x4elay1eri9azlqyo8bcsgxym,CYD3XANz,2020-0188,2020-05-21,13:29:20,14:06:31,NA,incomplete,72,filling,1,left,Red_Circle_Stripes_1.jpg,Purple_Plus_Stripes_4.jpg,Red_Triangle_Dots_2.jpg,left,456.4249999821186,true,high,false
CYD3XANz,3dzkabx20liukfefnqxhosng7x6cv3,3del4x4elay1eri9azlqyo8bcsgxym,CYD3XANz,2020-0188,2020-05-21,13:29:20,14:06:31,NA,incomplete,73,filling,0,right,Red_Triangle_Dots_4.jpg,Red_Circle_Stripes_1.jpg,Green_Star_Dots_2.jpg,right,533.5049999412149,true,high,false
CYD3XANz,3dzkabx20liukfefnqxhosng7x6cv3,3del4x4elay1eri9azlqyo8bcsgxym,CYD3XANz,2020-0188,2020-05-21,13:29:20,14:06:31,NA,incomplete,74,filling,1,left,Green_Star_Stripes_3.jpg,Purple_Plus_Stripes_2.jpg,Green_Circle_Chess_4.jpg,left,844.6599999442697,true,high,false
CYD3XANz,3dzkabx20liukfefnqxhosng7x6cv3,3del4x4elay1eri9azlqyo8bcsgxym,CYD3XANz,2020-0188,2020-05-21,13:29:20,14:06:31,NA,incomplete,75,filling,0,right,Green_Plus_Chess_1.jpg,Green_Triangle_Grid_3.jpg,Blue_Circle_Chess_4.jpg,right,687.0449999114498,true,high,false
CYD3XANz,3dzkabx20liukfefnqxhosng7x6cv3,3del4x4elay1eri9azlqyo8bcsgxym,CYD3XANz,2020-0188,2020-05-21,13:29:20,14:06:31,NA,incomplete,76,filling,1,left,Blue_Star_Grid_4.jpg,Red_Circle_Grid_1.jpg,Blue_Triangle_Stripes_3.jpg,right,387.2900001006201,false,high,false
CYD3XANz,3dzkabx20liukfefnqxhosng7x6cv3,3del4x4elay1eri9azlqyo8bcsgxym,CYD3XANz,2020-0188,2020-05-21,13:29:20,14:06:31,NA,incomplete,77,filling,1,right,Purple_Circle_Grid_2.jpg,Purple_Star_Stripes_4.jpg,Green_Triangle_Grid_3.jpg,left,399.20500002335757,false,high,false
CYD3XANz,3dzkabx20liukfefnqxhosng7x6cv3,3del4x4elay1eri9azlqyo8bcsgxym,CYD3XANz,2020-0188,2020-05-21,13:29:20,14:06:31,NA,incomplete,78,filling,0,right,Blue_Plus_Grid_1.jpg,Blue_Star_Chess_2.jpg,Purple_Circle_Grid_3.jpg,right,696.7799999983981,true,high,false
CYD3XANz,3dzkabx20liukfefnqxhosng7x6cv3,3del4x4elay1eri9azlqyo8bcsgxym,CYD3XANz,2020-0188,2020-05-21,13:29:20,14:06:31,NA,incomplete,79,filling,1,left,Blue_Plus_Chess_2.jpg,Green_Triangle_Chess_4.jpg,Blue_Star_Stripes_1.jpg,left,529.6099999686703,true,high,false
CYD3XANz,3dzkabx20liukfefnqxhosng7x6cv3,3del4x4elay1eri9azlqyo8bcsgxym,CYD3XANz,2020-0188,2020-05-21,13:29:20,14:06:31,NA,incomplete,80,color,1,left,Purple_Star_Stripes_2.jpg,Purple_Circle_Chess_4.jpg,Green_Plus_Stripes_1.jpg,right,532.4799999361858,false,high,false
CYD3XANz,3dzkabx20liukfefnqxhosng7x6cv3,3del4x4elay1eri9azlqyo8bcsgxym,CYD3XANz,2020-0188,2020-05-21,13:29:20,14:06:31,NA,incomplete,81,color,1,right,Green_Star_Dots_2.jpg,Blue_Circle_Dots_4.jpg,Green_Triangle_Stripes_1.jpg,right,651.9349999725819,true,high,false
CYD3XANz,3dzkabx20liukfefnqxhosng7x6cv3,3del4x4elay1eri9azlqyo8bcsgxym,CYD3XANz,2020-0188,2020-05-21,13:29:20,14:06:31,NA,incomplete,82,color,1,left,Blue_Plus_Grid_3.jpg,Blue_Triangle_Chess_1.jpg,Purple_Circle_Grid_2.jpg,left,539.0899999765679,true,high,false
CYD3XANz,3dzkabx20liukfefnqxhosng7x6cv3,3del4x4elay1eri9azlqyo8bcsgxym,CYD3XANz,2020-0188,2020-05-21,13:29:20,14:06:31,NA,incomplete,83,color,0,right,Red_Plus_Stripes_2.jpg,Blue_Triangle_Stripes_3.jpg,Red_Star_Dots_4.jpg,right,454.9850000767037,true,high,false
CYD3XANz,3dzkabx20liukfefnqxhosng7x6cv3,3del4x4elay1eri9azlqyo8bcsgxym,CYD3XANz,2020-0188,2020-05-21,13:29:20,14:06:31,NA,incomplete,84,color,1,left,Blue_Star_Dots_4.jpg,Blue_Triangle_Chess_2.jpg,Red_Plus_Dots_3.jpg,left,390.91499999631196,true,high,false
CYD3XANz,3dzkabx20liukfefnqxhosng7x6cv3,3del4x4elay1eri9azlqyo8bcsgxym,CYD3XANz,2020-0188,2020-05-21,13:29:20,14:06:31,NA,incomplete,85,color,1,left,Green_Circle_Stripes_2.jpg,Green_Triangle_Dots_3.jpg,Blue_Star_Stripes_4.jpg,left,380.96500001847744,true,high,false
CYD3XANz,3dzkabx20liukfefnqxhosng7x6cv3,3del4x4elay1eri9azlqyo8bcsgxym,CYD3XANz,2020-0188,2020-05-21,13:29:20,14:06:31,NA,incomplete,86,color,1,right,Blue_Circle_Chess_2.jpg,Purple_Triangle_Chess_1.jpg,Blue_Star_Dots_4.jpg,right,386.02500001434237,true,high,false
CYD3XANz,3dzkabx20liukfefnqxhosng7x6cv3,3del4x4elay1eri9azlqyo8bcsgxym,CYD3XANz,2020-0188,2020-05-21,13:29:20,14:06:31,NA,incomplete,87,color,1,left,Red_Star_Grid_4.jpg,Red_Triangle_Chess_3.jpg,Purple_Circle_Grid_2.jpg,left,345.2500000130385,true,high,false
CYD3XANz,3dzkabx20liukfefnqxhosng7x6cv3,3del4x4elay1eri9azlqyo8bcsgxym,CYD3XANz,2020-0188,2020-05-21,13:29:20,14:06:31,NA,incomplete,88,color,1,right,Red_Plus_Chess_3.jpg,Purple_Circle_Chess_1.jpg,Red_Star_Stripes_2.jpg,right,436.91000004764646,true,high,false
CYD3XANz,3dzkabx20liukfefnqxhosng7x6cv3,3del4x4elay1eri9azlqyo8bcsgxym,CYD3XANz,2020-0188,2020-05-21,13:29:20,14:06:31,NA,incomplete,89,color,0,left,Purple_Triangle_Grid_1.jpg,Purple_Circle_Chess_2.jpg,Blue_Star_Grid_4.jpg,left,391.33999997284263,true,high,false
CYD3XANz,3dzkabx20liukfefnqxhosng7x6cv3,3del4x4elay1eri9azlqyo8bcsgxym,CYD3XANz,2020-0188,2020-05-21,13:29:20,14:06:31,NA,incomplete,90,filling,1,left,Red_Plus_Stripes_1.jpg,Green_Circle_Stripes_3.jpg,Red_Star_Dots_4.jpg,right,404.77000002283603,false,high,false
CYD3XANz,3dzkabx20liukfefnqxhosng7x6cv3,3del4x4elay1eri9azlqyo8bcsgxym,CYD3XANz,2020-0188,2020-05-21,13:29:20,14:06:31,NA,incomplete,91,filling,0,left,Blue_Star_Chess_2.jpg,Green_Circle_Chess_3.jpg,Blue_Triangle_Stripes_1.jpg,left,710.054999915883,true,high,false
CYD3XANz,3dzkabx20liukfefnqxhosng7x6cv3,3del4x4elay1eri9azlqyo8bcsgxym,CYD3XANz,2020-0188,2020-05-21,13:29:20,14:06:31,NA,incomplete,92,filling,1,right,Blue_Circle_Stripes_3.jpg,Blue_Triangle_Chess_4.jpg,Purple_Star_Stripes_1.jpg,right,629.5999999856576,true,high,false
CYD3XANz,3dzkabx20liukfefnqxhosng7x6cv3,3del4x4elay1eri9azlqyo8bcsgxym,CYD3XANz,2020-0188,2020-05-21,13:29:20,14:06:31,NA,incomplete,93,filling,1,left,Red_Plus_Chess_2.jpg,Blue_Circle_Chess_4.jpg,Red_Triangle_Grid_3.jpg,left,570.5900000175461,true,high,false
CYD3XANz,3dzkabx20liukfefnqxhosng7x6cv3,3del4x4elay1eri9azlqyo8bcsgxym,CYD3XANz,2020-0188,2020-05-21,13:29:20,14:06:31,NA,incomplete,94,filling,0,right,Green_Plus_Chess_2.jpg,Green_Triangle_Dots_4.jpg,Red_Star_Chess_3.jpg,right,570.3150000190362,true,high,false
CYD3XANz,3dzkabx20liukfefnqxhosng7x6cv3,3del4x4elay1eri9azlqyo8bcsgxym,CYD3XANz,2020-0188,2020-05-21,13:29:20,14:06:31,NA,incomplete,95,filling,1,left,Purple_Triangle_Stripes_2.jpg,Green_Circle_Stripes_1.jpg,Purple_Star_Chess_3.jpg,left,597.7749999146909,true,high,false
CYD3XANz,3dzkabx20liukfefnqxhosng7x6cv3,3del4x4elay1eri9azlqyo8bcsgxym,CYD3XANz,2020-0188,2020-05-21,13:29:20,14:06:31,NA,incomplete,96,filling,1,right,Green_Circle_Dots_1.jpg,Green_Plus_Grid_4.jpg,Blue_Triangle_Dots_3.jpg,left,534.9450000794604,false,high,false
CYD3XANz,3dzkabx20liukfefnqxhosng7x6cv3,3del4x4elay1eri9azlqyo8bcsgxym,CYD3XANz,2020-0188,2020-05-21,13:29:20,14:06:31,NA,incomplete,97,filling,1,left,Green_Circle_Stripes_2.jpg,Purple_Plus_Stripes_1.jpg,Green_Star_Chess_3.jpg,left,687.5700000673532,true,high,false
CYD3XANz,3dzkabx20liukfefnqxhosng7x6cv3,3del4x4elay1eri9azlqyo8bcsgxym,CYD3XANz,2020-0188,2020-05-21,13:29:20,14:06:31,NA,incomplete,98,filling,1,left,Red_Triangle_Grid_3.jpg,Blue_Star_Grid_1.jpg,Red_Plus_Dots_2.jpg,left,602.5750000262633,true,high,false
CYD3XANz,3dzkabx20liukfefnqxhosng7x6cv3,3del4x4elay1eri9azlqyo8bcsgxym,CYD3XANz,2020-0188,2020-05-21,13:29:20,14:06:31,NA,incomplete,99,filling,1,right,Green_Circle_Grid_1.jpg,Green_Star_Stripes_4.jpg,Red_Plus_Grid_3.jpg,right,730.0500000128523,true,high,false
CYD3XANz,3dzkabx20liukfefnqxhosng7x6cv3,3del4x4elay1eri9azlqyo8bcsgxym,CYD3XANz,2020-0188,2020-05-21,13:29:20,14:06:31,NA,incomplete,100,color,1,right,Red_Plus_Stripes_2.jpg,Purple_Star_Stripes_1.jpg,Red_Triangle_Dots_4.jpg,left,644.194999942556,false,high,false
CYD3XANz,3dzkabx20liukfefnqxhosng7x6cv3,3del4x4elay1eri9azlqyo8bcsgxym,CYD3XANz,2020-0188,2020-05-21,13:29:20,14:06:31,NA,incomplete,101,color,0,left,Purple_Star_Stripes_2.jpg,Purple_Plus_Dots_1.jpg,Red_Circle_Stripes_4.jpg,left,464.1700000502169,true,high,false
CYD3XANz,3dzkabx20liukfefnqxhosng7x6cv3,3del4x4elay1eri9azlqyo8bcsgxym,CYD3XANz,2020-0188,2020-05-21,13:29:20,14:06:31,NA,incomplete,102,color,1,right,Red_Circle_Stripes_2.jpg,Purple_Triangle_Stripes_4.jpg,Red_Plus_Grid_1.jpg,right,449.6750000398606,true,high,false
CYD3XANz,3dzkabx20liukfefnqxhosng7x6cv3,3del4x4elay1eri9azlqyo8bcsgxym,CYD3XANz,2020-0188,2020-05-21,13:29:20,14:06:31,NA,incomplete,103,color,1,left,Green_Star_Chess_2.jpg,Green_Triangle_Dots_3.jpg,Blue_Circle_Chess_4.jpg,left,356.9300000090152,true,high,false
CYD3XANz,3dzkabx20liukfefnqxhosng7x6cv3,3del4x4elay1eri9azlqyo8bcsgxym,CYD3XANz,2020-0188,2020-05-21,13:29:20,14:06:31,NA,incomplete,104,color,1,left,Purple_Star_Grid_1.jpg,Purple_Triangle_Dots_4.jpg,Blue_Plus_Grid_2.jpg,left,368.5500000137836,true,high,false
CYD3XANz,3dzkabx20liukfefnqxhosng7x6cv3,3del4x4elay1eri9azlqyo8bcsgxym,CYD3XANz,2020-0188,2020-05-21,13:29:20,14:06:31,NA,incomplete,105,color,1,left,Blue_Circle_Grid_1.jpg,Blue_Plus_Stripes_4.jpg,Green_Star_Grid_2.jpg,left,473.1800000881776,true,high,false
CYD3XANz,3dzkabx20liukfefnqxhosng7x6cv3,3del4x4elay1eri9azlqyo8bcsgxym,CYD3XANz,2020-0188,2020-05-21,13:29:20,14:06:31,NA,incomplete,106,color,1,left,Red_Triangle_Stripes_4.jpg,Red_Plus_Chess_1.jpg,Purple_Circle_Stripes_2.jpg,left,373.38999996427447,true,high,false
CYD3XANz,3dzkabx20liukfefnqxhosng7x6cv3,3del4x4elay1eri9azlqyo8bcsgxym,CYD3XANz,2020-0188,2020-05-21,13:29:20,14:06:31,NA,incomplete,107,color,1,right,Red_Triangle_Dots_1.jpg,Blue_Plus_Dots_3.jpg,Red_Circle_Grid_4.jpg,right,448.23000009637326,true,high,false
CYD3XANz,3dzkabx20liukfefnqxhosng7x6cv3,3del4x4elay1eri9azlqyo8bcsgxym,CYD3XANz,2020-0188,2020-05-21,13:29:20,14:06:31,NA,incomplete,108,color,1,left,Green_Plus_Dots_4.jpg,Green_Star_Stripes_2.jpg,Purple_Triangle_Dots_3.jpg,left,366.09499994665384,true,high,false
CYD3XANz,3dzkabx20liukfefnqxhosng7x6cv3,3del4x4elay1eri9azlqyo8bcsgxym,CYD3XANz,2020-0188,2020-05-21,13:29:20,14:06:31,NA,incomplete,109,color,1,right,Green_Triangle_Grid_3.jpg,Purple_Star_Grid_1.jpg,Green_Circle_Stripes_2.jpg,right,399.2599999764934,true,high,false
CYD3XANz,3dzkabx20liukfefnqxhosng7x6cv3,3del4x4elay1eri9azlqyo8bcsgxym,CYD3XANz,2020-0188,2020-05-21,13:29:20,14:06:31,NA,incomplete,110,filling,1,left,Green_Plus_Grid_3.jpg,Red_Star_Grid_2.jpg,Green_Triangle_Chess_1.jpg,right,391.72499999403954,false,high,false
CYD3XANz,3dzkabx20liukfefnqxhosng7x6cv3,3del4x4elay1eri9azlqyo8bcsgxym,CYD3XANz,2020-0188,2020-05-21,13:29:20,14:06:31,NA,incomplete,111,filling,1,right,Blue_Circle_Grid_2.jpg,Blue_Plus_Stripes_4.jpg,Purple_Star_Grid_3.jpg,left,404.44499999284744,false,high,false
CYD3XANz,3dzkabx20liukfefnqxhosng7x6cv3,3del4x4elay1eri9azlqyo8bcsgxym,CYD3XANz,2020-0188,2020-05-21,13:29:20,14:06:31,NA,incomplete,112,filling,1,left,Purple_Circle_Dots_1.jpg,Red_Plus_Dots_4.jpg,Purple_Star_Grid_2.jpg,right,483.4950000513345,false,high,false
CYD3XANz,3dzkabx20liukfefnqxhosng7x6cv3,3del4x4elay1eri9azlqyo8bcsgxym,CYD3XANz,2020-0188,2020-05-21,13:29:20,14:06:31,NA,incomplete,113,filling,1,right,Blue_Circle_Grid_2.jpg,Blue_Star_Stripes_4.jpg,Green_Triangle_Grid_1.jpg,right,717.4100000411272,true,high,false
CYD3XANz,3dzkabx20liukfefnqxhosng7x6cv3,3del4x4elay1eri9azlqyo8bcsgxym,CYD3XANz,2020-0188,2020-05-21,13:29:20,14:06:31,NA,incomplete,114,filling,0,right,Blue_Circle_Stripes_1.jpg,Blue_Plus_Dots_3.jpg,Green_Triangle_Stripes_4.jpg,right,616.440000012517,true,high,false
CYD3XANz,3dzkabx20liukfefnqxhosng7x6cv3,3del4x4elay1eri9azlqyo8bcsgxym,CYD3XANz,2020-0188,2020-05-21,13:29:20,14:06:31,NA,incomplete,115,filling,1,right,Blue_Plus_Grid_2.jpg,Blue_Triangle_Dots_1.jpg,Red_Circle_Grid_4.jpg,right,652.6150000281632,true,high,false
CYD3XANz,3dzkabx20liukfefnqxhosng7x6cv3,3del4x4elay1eri9azlqyo8bcsgxym,CYD3XANz,2020-0188,2020-05-21,13:29:20,14:06:31,NA,incomplete,116,filling,1,right,Purple_Triangle_Chess_1.jpg,Purple_Plus_Grid_3.jpg,Red_Circle_Chess_2.jpg,left,597.7300000376999,false,high,false
CYD3XANz,3dzkabx20liukfefnqxhosng7x6cv3,3del4x4elay1eri9azlqyo8bcsgxym,CYD3XANz,2020-0188,2020-05-21,13:29:20,14:06:31,NA,incomplete,117,filling,1,right,Purple_Star_Chess_4.jpg,Purple_Plus_Grid_1.jpg,Green_Triangle_Chess_3.jpg,right,644.4649999029934,true,high,false
CYD3XANz,3dzkabx20liukfefnqxhosng7x6cv3,3del4x4elay1eri9azlqyo8bcsgxym,CYD3XANz,2020-0188,2020-05-21,13:29:20,14:06:31,NA,incomplete,118,filling,0,left,Red_Circle_Chess_1.jpg,Purple_Plus_Chess_2.jpg,Red_Star_Dots_4.jpg,left,584.5499999122694,true,high,false
CYD3XANz,3dzkabx20liukfefnqxhosng7x6cv3,3del4x4elay1eri9azlqyo8bcsgxym,CYD3XANz,2020-0188,2020-05-21,13:29:20,14:06:31,NA,incomplete,119,filling,1,right,Green_Star_Stripes_3.jpg,Green_Circle_Dots_1.jpg,Purple_Triangle_Stripes_2.jpg,right,674.3049999931827,true,high,false
CYD3XANz,3dzkabx20liukfefnqxhosng7x6cv3,3del4x4elay1eri9azlqyo8bcsgxym,CYD3XANz,2020-0188,2020-05-21,13:29:20,14:06:31,NA,incomplete,120,shape,0,right,Blue_Circle_Stripes_1.jpg,Red_Star_Grid_1.jpg,Green_Circle_Dots_4.jpg,NA,NA,NA,high,false
CYD3XANz,3dzkabx20liukfefnqxhosng7x6cv3,3del4x4elay1eri9azlqyo8bcsgxym,CYD3XANz,2020-0188,2020-05-21,13:29:20,14:06:31,NA,incomplete,121,shape,1,left,Purple_Triangle_Grid_1.jpg,Green_Triangle_Dots_3.jpg,Red_Star_Chess_1.jpg,right,811.310000019148,false,high,false
CYD3XANz,3dzkabx20liukfefnqxhosng7x6cv3,3del4x4elay1eri9azlqyo8bcsgxym,CYD3XANz,2020-0188,2020-05-21,13:29:20,14:06:31,NA,incomplete,122,shape,1,right,Green_Circle_Dots_2.jpg,Purple_Plus_Stripes_2.jpg,Blue_Circle_Grid_3.jpg,right,503.77000006847084,true,high,false
CYD3XANz,3dzkabx20liukfefnqxhosng7x6cv3,3del4x4elay1eri9azlqyo8bcsgxym,CYD3XANz,2020-0188,2020-05-21,13:29:20,14:06:31,NA,incomplete,123,shape,0,left,Red_Triangle_Grid_2.jpg,Blue_Triangle_Chess_4.jpg,Purple_Circle_Stripes_2.jpg,left,399.93000007234514,true,high,false
CYD3XANz,3dzkabx20liukfefnqxhosng7x6cv3,3del4x4elay1eri9azlqyo8bcsgxym,CYD3XANz,2020-0188,2020-05-21,13:29:20,14:06:31,NA,incomplete,124,shape,1,left,Red_Star_Chess_3.jpg,Blue_Star_Grid_4.jpg,Green_Plus_Dots_3.jpg,right,763.0199999548495,false,high,false
CYD3XANz,3dzkabx20liukfefnqxhosng7x6cv3,3del4x4elay1eri9azlqyo8bcsgxym,CYD3XANz,2020-0188,2020-05-21,13:29:20,14:06:31,NA,incomplete,125,shape,1,left,Red_Circle_Chess_1.jpg,Green_Circle_Stripes_4.jpg,Purple_Plus_Grid_1.jpg,right,929.2250000871718,false,high,false
CYD3XANz,3dzkabx20liukfefnqxhosng7x6cv3,3del4x4elay1eri9azlqyo8bcsgxym,CYD3XANz,2020-0188,2020-05-21,13:29:20,14:06:31,NA,incomplete,126,shape,1,left,Purple_Plus_Chess_4.jpg,Blue_Plus_Dots_2.jpg,Red_Triangle_Grid_4.jpg,left,709.1149999760091,true,high,false
CYD3XANz,3dzkabx20liukfefnqxhosng7x6cv3,3del4x4elay1eri9azlqyo8bcsgxym,CYD3XANz,2020-0188,2020-05-21,13:29:20,14:06:31,NA,incomplete,127,shape,1,right,Blue_Star_Chess_2.jpg,Red_Circle_Dots_2.jpg,Green_Star_Grid_3.jpg,right,509.7149999346584,true,high,false
CYD3XANz,3dzkabx20liukfefnqxhosng7x6cv3,3del4x4elay1eri9azlqyo8bcsgxym,CYD3XANz,2020-0188,2020-05-21,13:29:20,14:06:31,NA,incomplete,128,shape,1,left,Red_Circle_Grid_2.jpg,Blue_Circle_Dots_3.jpg,Purple_Plus_Stripes_2.jpg,left,483.08999999426305,true,high,false
CYD3XANz,3dzkabx20liukfefnqxhosng7x6cv3,3del4x4elay1eri9azlqyo8bcsgxym,CYD3XANz,2020-0188,2020-05-21,13:29:20,14:06:31,NA,incomplete,129,shape,1,right,Green_Triangle_Grid_2.jpg,Blue_Star_Stripes_2.jpg,Purple_Triangle_Chess_3.jpg,right,536.5400000009686,true,high,false
CYD3XANz,3dzkabx20liukfefnqxhosng7x6cv3,3del4x4elay1eri9azlqyo8bcsgxym,CYD3XANz,2020-0188,2020-05-21,13:29:20,14:06:31,NA,incomplete,130,shape,1,right,Red_Plus_Stripes_1.jpg,Blue_Circle_Chess_1.jpg,Green_Plus_Grid_4.jpg,right,570.4599999589846,true,high,false
CYD3XANz,3dzkabx20liukfefnqxhosng7x6cv3,3del4x4elay1eri9azlqyo8bcsgxym,CYD3XANz,2020-0188,2020-05-21,13:29:20,14:06:31,NA,incomplete,131,shape,0,right,Green_Plus_Chess_2.jpg,Blue_Circle_Dots_2.jpg,Purple_Plus_Grid_3.jpg,right,457.010000012815,true,high,false
CYD3XANz,3dzkabx20liukfefnqxhosng7x6cv3,3del4x4elay1eri9azlqyo8bcsgxym,CYD3XANz,2020-0188,2020-05-21,13:29:20,14:06:31,NA,incomplete,132,shape,1,left,Red_Circle_Stripes_3.jpg,Blue_Circle_Chess_2.jpg,Green_Star_Dots_3.jpg,left,393.41000001877546,true,high,false
CYD3XANz,3dzkabx20liukfefnqxhosng7x6cv3,3del4x4elay1eri9azlqyo8bcsgxym,CYD3XANz,2020-0188,2020-05-21,13:29:20,14:06:31,NA,incomplete,133,shape,0,left,Red_Triangle_Grid_3.jpg,Green_Triangle_Chess_2.jpg,Blue_Plus_Stripes_3.jpg,left,510.3899999521673,true,high,false
CYD3XANz,3dzkabx20liukfefnqxhosng7x6cv3,3del4x4elay1eri9azlqyo8bcsgxym,CYD3XANz,2020-0188,2020-05-21,13:29:20,14:06:31,NA,incomplete,134,shape,1,left,Green_Circle_Grid_2.jpg,Red_Circle_Stripes_4.jpg,Blue_Star_Dots_2.jpg,left,702.2600000491366,true,high,false
CYD3XANz,3dzkabx20liukfefnqxhosng7x6cv3,3del4x4elay1eri9azlqyo8bcsgxym,CYD3XANz,2020-0188,2020-05-21,13:29:20,14:06:31,NA,incomplete,135,shape,1,left,Red_Circle_Stripes_2.jpg,Purple_Circle_Dots_1.jpg,Blue_Triangle_Grid_2.jpg,left,515.9899999853224,true,high,false
CYD3XANz,3dzkabx20liukfefnqxhosng7x6cv3,3del4x4elay1eri9azlqyo8bcsgxym,CYD3XANz,2020-0188,2020-05-21,13:29:20,14:06:31,NA,incomplete,136,shape,1,right,Green_Plus_Dots_2.jpg,Purple_Triangle_Grid_2.jpg,Blue_Plus_Chess_4.jpg,right,597.1750000026077,true,high,false
CYD3XANz,3dzkabx20liukfefnqxhosng7x6cv3,3del4x4elay1eri9azlqyo8bcsgxym,CYD3XANz,2020-0188,2020-05-21,13:29:20,14:06:31,NA,incomplete,137,shape,0,right,Purple_Triangle_Chess_2.jpg,Blue_Circle_Grid_2.jpg,Green_Triangle_Dots_1.jpg,right,572.6299999514595,true,high,false
CYD3XANz,3dzkabx20liukfefnqxhosng7x6cv3,3del4x4elay1eri9azlqyo8bcsgxym,CYD3XANz,2020-0188,2020-05-21,13:29:20,14:06:31,NA,incomplete,138,shape,1,right,Blue_Star_Grid_4.jpg,Purple_Triangle_Chess_4.jpg,Green_Star_Stripes_1.jpg,left,468.9750000834465,false,high,false
CYD3XANz,3dzkabx20liukfefnqxhosng7x6cv3,3del4x4elay1eri9azlqyo8bcsgxym,CYD3XANz,2020-0188,2020-05-21,13:29:20,14:06:31,NA,incomplete,139,shape,1,right,Purple_Star_Grid_4.jpg,Red_Circle_Stripes_4.jpg,Green_Star_Dots_2.jpg,right,556.029999977909,true,high,false
CYD3XANz,3dzkabx20liukfefnqxhosng7x6cv3,3del4x4elay1eri9azlqyo8bcsgxym,CYD3XANz,2020-0188,2020-05-21,13:29:20,14:06:31,NA,incomplete,140,number,1,right,Green_Plus_Chess_1.jpg,Purple_Plus_Dots_4.jpg,Blue_Triangle_Stripes_1.jpg,left,579.2699999874458,false,high,false
CYD3XANz,3dzkabx20liukfefnqxhosng7x6cv3,3del4x4elay1eri9azlqyo8bcsgxym,CYD3XANz,2020-0188,2020-05-21,13:29:20,14:06:31,NA,incomplete,141,number,1,left,Blue_Plus_Chess_3.jpg,Red_Circle_Stripes_3.jpg,Purple_Plus_Grid_2.jpg,right,468.3900000527501,false,high,false
CYD3XANz,3dzkabx20liukfefnqxhosng7x6cv3,3del4x4elay1eri9azlqyo8bcsgxym,CYD3XANz,2020-0188,2020-05-21,13:29:20,14:06:31,NA,incomplete,142,number,1,left,Purple_Plus_Dots_2.jpg,Blue_Triangle_Chess_2.jpg,Red_Plus_Stripes_1.jpg,right,647.8099999949336,false,high,false
CYD3XANz,3dzkabx20liukfefnqxhosng7x6cv3,3del4x4elay1eri9azlqyo8bcsgxym,CYD3XANz,2020-0188,2020-05-21,13:29:20,14:06:31,NA,incomplete,143,number,1,left,Purple_Star_Dots_3.jpg,Blue_Plus_Chess_3.jpg,Green_Star_Grid_2.jpg,right,810.0349999731407,false,high,false
CYD3XANz,3dzkabx20liukfefnqxhosng7x6cv3,3del4x4elay1eri9azlqyo8bcsgxym,CYD3XANz,2020-0188,2020-05-21,13:29:20,14:06:31,NA,incomplete,144,number,1,right,Red_Star_Grid_1.jpg,Blue_Star_Stripes_4.jpg,Purple_Triangle_Dots_1.jpg,right,1175.139999948442,true,high,false
CYD3XANz,3dzkabx20liukfefnqxhosng7x6cv3,3del4x4elay1eri9azlqyo8bcsgxym,CYD3XANz,2020-0188,2020-05-21,13:29:20,14:06:31,NA,incomplete,145,number,1,right,Blue_Plus_Grid_1.jpg,Green_Plus_Stripes_4.jpg,Red_Star_Dots_1.jpg,left,541.7149999411777,false,high,false
CYD3XANz,3dzkabx20liukfefnqxhosng7x6cv3,3del4x4elay1eri9azlqyo8bcsgxym,CYD3XANz,2020-0188,2020-05-21,13:29:20,14:06:31,NA,incomplete,146,number,1,left,Green_Plus_Grid_4.jpg,Purple_Triangle_Stripes_4.jpg,Red_Plus_Chess_1.jpg,right,521.584999980405,false,high,false
CYD3XANz,3dzkabx20liukfefnqxhosng7x6cv3,3del4x4elay1eri9azlqyo8bcsgxym,CYD3XANz,2020-0188,2020-05-21,13:29:20,14:06:31,NA,incomplete,147,number,0,right,Red_Triangle_Chess_2.jpg,Green_Triangle_Grid_1.jpg,Blue_Star_Dots_2.jpg,right,713.8750000158325,true,high,false
CYD3XANz,3dzkabx20liukfefnqxhosng7x6cv3,3del4x4elay1eri9azlqyo8bcsgxym,CYD3XANz,2020-0188,2020-05-21,13:29:20,14:06:31,NA,incomplete,148,number,1,right,Green_Triangle_Dots_1.jpg,Blue_Triangle_Stripes_2.jpg,Red_Plus_Chess_1.jpg,left,633.4199999691918,false,high,false
CYD3XANz,3dzkabx20liukfefnqxhosng7x6cv3,3del4x4elay1eri9azlqyo8bcsgxym,CYD3XANz,2020-0188,2020-05-21,13:29:20,14:06:31,NA,incomplete,149,number,0,right,Purple_Star_Stripes_2.jpg,Red_Star_Dots_1.jpg,Blue_Plus_Grid_2.jpg,left,765.7400000607595,false,high,false
CYD3XANz,3dzkabx20liukfefnqxhosng7x6cv3,3del4x4elay1eri9azlqyo8bcsgxym,CYD3XANz,2020-0188,2020-05-21,13:29:20,14:06:31,NA,incomplete,150,number,1,left,Purple_Star_Dots_1.jpg,Blue_Plus_Grid_1.jpg,Red_Star_Chess_3.jpg,right,653.6899999482557,false,high,false
CYD3XANz,3dzkabx20liukfefnqxhosng7x6cv3,3del4x4elay1eri9azlqyo8bcsgxym,CYD3XANz,2020-0188,2020-05-21,13:29:20,14:06:31,NA,incomplete,151,number,1,left,Purple_Circle_Chess_1.jpg,Red_Plus_Grid_1.jpg,Blue_Circle_Stripes_3.jpg,right,498.77499998547137,false,high,false
CYD3XANz,3dzkabx20liukfefnqxhosng7x6cv3,3del4x4elay1eri9azlqyo8bcsgxym,CYD3XANz,2020-0188,2020-05-21,13:29:20,14:06:31,NA,incomplete,152,number,1,left,Red_Star_Chess_1.jpg,Green_Circle_Grid_1.jpg,Purple_Star_Stripes_4.jpg,right,459.12499993573874,false,high,false
CYD3XANz,3dzkabx20liukfefnqxhosng7x6cv3,3del4x4elay1eri9azlqyo8bcsgxym,CYD3XANz,2020-0188,2020-05-21,13:29:20,14:06:31,NA,incomplete,153,number,1,left,Green_Star_Grid_4.jpg,Red_Circle_Chess_4.jpg,Purple_Star_Dots_2.jpg,left,627.6500000385568,true,high,false
CYD3XANz,3dzkabx20liukfefnqxhosng7x6cv3,3del4x4elay1eri9azlqyo8bcsgxym,CYD3XANz,2020-0188,2020-05-21,13:29:20,14:06:31,NA,incomplete,154,number,1,right,Purple_Triangle_Stripes_2.jpg,Blue_Triangle_Grid_4.jpg,Red_Star_Dots_2.jpg,right,996.8100000405684,true,high,false
CYD3XANz,3dzkabx20liukfefnqxhosng7x6cv3,3del4x4elay1eri9azlqyo8bcsgxym,CYD3XANz,2020-0188,2020-05-21,13:29:20,14:06:31,NA,incomplete,155,number,1,right,Blue_Circle_Chess_3.jpg,Green_Circle_Grid_2.jpg,Red_Star_Dots_3.jpg,right,791.2450000876561,true,high,false
CYD3XANz,3dzkabx20liukfefnqxhosng7x6cv3,3del4x4elay1eri9azlqyo8bcsgxym,CYD3XANz,2020-0188,2020-05-21,13:29:20,14:06:31,NA,incomplete,156,number,1,left,Blue_Triangle_Stripes_1.jpg,Green_Circle_Dots_1.jpg,Purple_Triangle_Chess_3.jpg,left,670.7049999386072,true,high,false
CYD3XANz,3dzkabx20liukfefnqxhosng7x6cv3,3del4x4elay1eri9azlqyo8bcsgxym,CYD3XANz,2020-0188,2020-05-21,13:29:20,14:06:31,NA,incomplete,157,number,1,left,Purple_Circle_Grid_1.jpg,Red_Triangle_Stripes_1.jpg,Blue_Circle_Dots_2.jpg,left,645.8049999782816,true,high,false
CYD3XANz,3dzkabx20liukfefnqxhosng7x6cv3,3del4x4elay1eri9azlqyo8bcsgxym,CYD3XANz,2020-0188,2020-05-21,13:29:20,14:06:31,NA,incomplete,158,number,1,left,Green_Triangle_Stripes_1.jpg,Red_Circle_Dots_1.jpg,Purple_Triangle_Chess_2.jpg,left,524.7300000628456,true,high,false
CYD3XANz,3dzkabx20liukfefnqxhosng7x6cv3,3del4x4elay1eri9azlqyo8bcsgxym,CYD3XANz,2020-0188,2020-05-21,13:29:20,14:06:31,NA,incomplete,159,number,1,left,Red_Triangle_Grid_3.jpg,Blue_Plus_Stripes_3.jpg,Purple_Triangle_Dots_4.jpg,left,741.9950000476092,true,high,false
CYD3XANz,3dzkabx20liukfefnqxhosng7x6cv3,3del4x4elay1eri9azlqyo8bcsgxym,CYD3XANz,2020-0188,2020-05-21,13:29:20,14:06:31,NA,incomplete,160,shape,0,left,Purple_Triangle_Grid_4.jpg,Red_Triangle_Dots_3.jpg,Green_Plus_Chess_4.jpg,right,735.5499999830499,false,high,false
CYD3XANz,3dzkabx20liukfefnqxhosng7x6cv3,3del4x4elay1eri9azlqyo8bcsgxym,CYD3XANz,2020-0188,2020-05-21,13:29:20,14:06:31,NA,incomplete,161,shape,1,right,Purple_Circle_Grid_3.jpg,Blue_Triangle_Stripes_3.jpg,Green_Circle_Dots_1.jpg,left,569.8149999370798,false,high,false
CYD3XANz,3dzkabx20liukfefnqxhosng7x6cv3,3del4x4elay1eri9azlqyo8bcsgxym,CYD3XANz,2020-0188,2020-05-21,13:29:20,14:06:31,NA,incomplete,162,shape,1,right,Green_Triangle_Stripes_4.jpg,Purple_Star_Dots_4.jpg,Blue_Triangle_Chess_1.jpg,left,528.9099999936298,false,high,false
CYD3XANz,3dzkabx20liukfefnqxhosng7x6cv3,3del4x4elay1eri9azlqyo8bcsgxym,CYD3XANz,2020-0188,2020-05-21,13:29:20,14:06:31,NA,incomplete,163,shape,1,left,Blue_Plus_Grid_2.jpg,Red_Plus_Stripes_3.jpg,Purple_Triangle_Dots_2.jpg,left,574.1000000853091,true,high,false
CYD3XANz,3dzkabx20liukfefnqxhosng7x6cv3,3del4x4elay1eri9azlqyo8bcsgxym,CYD3XANz,2020-0188,2020-05-21,13:29:20,14:06:31,NA,incomplete,164,shape,1,right,Purple_Star_Grid_4.jpg,Green_Plus_Stripes_4.jpg,Red_Star_Dots_1.jpg,left,578.3550000051036,false,high,false
CYD3XANz,3dzkabx20liukfefnqxhosng7x6cv3,3del4x4elay1eri9azlqyo8bcsgxym,CYD3XANz,2020-0188,2020-05-21,13:29:20,14:06:31,NA,incomplete,165,shape,1,left,Red_Plus_Chess_3.jpg,Green_Plus_Grid_2.jpg,Purple_Circle_Stripes_3.jpg,left,641.8599999742582,true,high,false
CYD3XANz,3dzkabx20liukfefnqxhosng7x6cv3,3del4x4elay1eri9azlqyo8bcsgxym,CYD3XANz,2020-0188,2020-05-21,13:29:20,14:06:31,NA,incomplete,166,shape,1,right,Green_Star_Stripes_4.jpg,Purple_Plus_Grid_4.jpg,Red_Star_Chess_1.jpg,right,601.0950000490993,true,high,false
CYD3XANz,3dzkabx20liukfefnqxhosng7x6cv3,3del4x4elay1eri9azlqyo8bcsgxym,CYD3XANz,2020-0188,2020-05-21,13:29:20,14:06:31,NA,incomplete,167,shape,0,left,Purple_Plus_Chess_1.jpg,Blue_Plus_Grid_2.jpg,Red_Circle_Dots_1.jpg,left,531.760000041686,true,high,false
CYD3XANz,3dzkabx20liukfefnqxhosng7x6cv3,3del4x4elay1eri9azlqyo8bcsgxym,CYD3XANz,2020-0188,2020-05-21,13:29:20,14:06:31,NA,incomplete,168,shape,1,right,Blue_Triangle_Chess_4.jpg,Red_Circle_Stripes_4.jpg,Purple_Triangle_Grid_1.jpg,right,598.9950000075623,true,high,false
CYD3XANz,3dzkabx20liukfefnqxhosng7x6cv3,3del4x4elay1eri9azlqyo8bcsgxym,CYD3XANz,2020-0188,2020-05-21,13:29:20,14:06:31,NA,incomplete,169,shape,1,right,Purple_Star_Stripes_3.jpg,Green_Plus_Chess_3.jpg,Red_Star_Grid_4.jpg,left,677.9749999986961,false,high,false
CYD3XANz,3dzkabx20liukfefnqxhosng7x6cv3,3del4x4elay1eri9azlqyo8bcsgxym,CYD3XANz,2020-0188,2020-05-21,13:29:20,14:06:31,NA,incomplete,170,shape,1,right,Red_Triangle_Grid_2.jpg,Purple_Circle_Stripes_2.jpg,Green_Triangle_Dots_3.jpg,left,597.4899999564514,false,high,false
CYD3XANz,3dzkabx20liukfefnqxhosng7x6cv3,3del4x4elay1eri9azlqyo8bcsgxym,CYD3XANz,2020-0188,2020-05-21,13:29:20,14:06:31,NA,incomplete,171,shape,1,right,Purple_Triangle_Grid_4.jpg,Red_Circle_Chess_4.jpg,Blue_Triangle_Dots_2.jpg,right,617.0149999670684,true,high,false
CYD3XANz,3dzkabx20liukfefnqxhosng7x6cv3,3del4x4elay1eri9azlqyo8bcsgxym,CYD3XANz,2020-0188,2020-05-21,13:29:20,14:06:31,NA,incomplete,172,shape,0,left,Red_Plus_Dots_4.jpg,Purple_Plus_Chess_2.jpg,Green_Star_Stripes_4.jpg,left,929.7650000080466,true,high,false
CYD3XANz,3dzkabx20liukfefnqxhosng7x6cv3,3del4x4elay1eri9azlqyo8bcsgxym,CYD3XANz,2020-0188,2020-05-21,13:29:20,14:06:31,NA,incomplete,173,shape,1,right,Blue_Triangle_Dots_3.jpg,Red_Plus_Stripes_3.jpg,Purple_Triangle_Grid_1.jpg,left,639.4900000886992,false,high,false
CYD3XANz,3dzkabx20liukfefnqxhosng7x6cv3,3del4x4elay1eri9azlqyo8bcsgxym,CYD3XANz,2020-0188,2020-05-21,13:29:20,14:06:31,NA,incomplete,174,shape,1,left,Blue_Circle_Grid_1.jpg,Red_Circle_Chess_4.jpg,Green_Star_Dots_1.jpg,right,637.5700000207871,false,high,false
CYD3XANz,3dzkabx20liukfefnqxhosng7x6cv3,3del4x4elay1eri9azlqyo8bcsgxym,CYD3XANz,2020-0188,2020-05-21,13:29:20,14:06:31,NA,incomplete,175,shape,1,right,Blue_Star_Stripes_1.jpg,Green_Plus_Dots_1.jpg,Red_Star_Grid_2.jpg,right,466.9550000689924,true,high,false
CYD3XANz,3dzkabx20liukfefnqxhosng7x6cv3,3del4x4elay1eri9azlqyo8bcsgxym,CYD3XANz,2020-0188,2020-05-21,13:29:20,14:06:31,NA,incomplete,176,shape,0,right,Purple_Plus_Dots_3.jpg,Red_Star_Grid_3.jpg,Blue_Plus_Chess_2.jpg,left,545.1149999862537,false,high,false
CYD3XANz,3dzkabx20liukfefnqxhosng7x6cv3,3del4x4elay1eri9azlqyo8bcsgxym,CYD3XANz,2020-0188,2020-05-21,13:29:20,14:06:31,NA,incomplete,177,shape,1,right,Blue_Plus_Grid_4.jpg,Red_Triangle_Dots_4.jpg,Purple_Plus_Stripes_3.jpg,right,595.3549999976531,true,high,false
CYD3XANz,3dzkabx20liukfefnqxhosng7x6cv3,3del4x4elay1eri9azlqyo8bcsgxym,CYD3XANz,2020-0188,2020-05-21,13:29:20,14:06:31,NA,incomplete,178,shape,1,left,Purple_Star_Grid_4.jpg,Blue_Star_Dots_3.jpg,Green_Plus_Stripes_4.jpg,right,637.7799999900162,false,high,false
CYD3XANz,3dzkabx20liukfefnqxhosng7x6cv3,3del4x4elay1eri9azlqyo8bcsgxym,CYD3XANz,2020-0188,2020-05-21,13:29:20,14:06:31,NA,incomplete,179,shape,0,left,Blue_Star_Dots_3.jpg,Purple_Star_Chess_2.jpg,Green_Plus_Stripes_3.jpg,right,593.4899999992922,false,high,false
CYD3XANz,3dzkabx20liukfefnqxhosng7x6cv3,3del4x4elay1eri9azlqyo8bcsgxym,CYD3XANz,2020-0188,2020-05-21,13:29:20,14:06:31,NA,incomplete,180,number,1,right,Purple_Triangle_Dots_1.jpg,Green_Triangle_Grid_4.jpg,Red_Star_Chess_1.jpg,right,525.0200000591576,true,high,false
CYD3XANz,3dzkabx20liukfefnqxhosng7x6cv3,3del4x4elay1eri9azlqyo8bcsgxym,CYD3XANz,2020-0188,2020-05-21,13:29:20,14:06:31,NA,incomplete,181,number,1,right,Red_Star_Stripes_2.jpg,Green_Star_Dots_4.jpg,Purple_Plus_Grid_2.jpg,right,579.6449999324977,true,high,false
CYD3XANz,3dzkabx20liukfefnqxhosng7x6cv3,3del4x4elay1eri9azlqyo8bcsgxym,CYD3XANz,2020-0188,2020-05-21,13:29:20,14:06:31,NA,incomplete,182,number,1,right,Green_Star_Grid_2.jpg,Red_Star_Dots_3.jpg,Purple_Triangle_Stripes_2.jpg,left,508.8949999772012,false,high,false
CYD3XANz,3dzkabx20liukfefnqxhosng7x6cv3,3del4x4elay1eri9azlqyo8bcsgxym,CYD3XANz,2020-0188,2020-05-21,13:29:20,14:06:31,NA,incomplete,183,number,1,right,Green_Circle_Dots_3.jpg,Blue_Circle_Grid_1.jpg,Red_Plus_Stripes_3.jpg,right,562.5649999128655,true,high,false
CYD3XANz,3dzkabx20liukfefnqxhosng7x6cv3,3del4x4elay1eri9azlqyo8bcsgxym,CYD3XANz,2020-0188,2020-05-21,13:29:20,14:06:31,NA,incomplete,184,number,1,left,Blue_Star_Dots_3.jpg,Purple_Plus_Stripes_3.jpg,Green_Star_Grid_4.jpg,left,648.164999904111,true,high,false
CYD3XANz,3dzkabx20liukfefnqxhosng7x6cv3,3del4x4elay1eri9azlqyo8bcsgxym,CYD3XANz,2020-0188,2020-05-21,13:29:20,14:06:31,NA,incomplete,185,number,1,right,Blue_Circle_Dots_3.jpg,Green_Circle_Chess_2.jpg,Red_Triangle_Stripes_3.jpg,right,664.8049999494106,true,high,false
CYD3XANz,3dzkabx20liukfefnqxhosng7x6cv3,3del4x4elay1eri9azlqyo8bcsgxym,CYD3XANz,2020-0188,2020-05-21,13:29:20,14:06:31,NA,incomplete,186,number,1,left,Green_Plus_Chess_1.jpg,Red_Circle_Dots_1.jpg,Blue_Plus_Grid_3.jpg,left,642.6750000100583,true,high,false
CYD3XANz,3dzkabx20liukfefnqxhosng7x6cv3,3del4x4elay1eri9azlqyo8bcsgxym,CYD3XANz,2020-0188,2020-05-21,13:29:20,14:06:31,NA,incomplete,187,number,1,right,Green_Circle_Stripes_3.jpg,Blue_Circle_Grid_4.jpg,Red_Triangle_Chess_3.jpg,right,553.734999964945,true,high,false
CYD3XANz,3dzkabx20liukfefnqxhosng7x6cv3,3del4x4elay1eri9azlqyo8bcsgxym,CYD3XANz,2020-0188,2020-05-21,13:29:20,14:06:31,NA,incomplete,188,number,1,right,Green_Circle_Chess_4.jpg,Purple_Circle_Dots_2.jpg,Red_Triangle_Grid_4.jpg,right,639.3099999986589,true,high,false
CYD3XANz,3dzkabx20liukfefnqxhosng7x6cv3,3del4x4elay1eri9azlqyo8bcsgxym,CYD3XANz,2020-0188,2020-05-21,13:29:20,14:06:31,NA,incomplete,189,number,1,left,Green_Plus_Dots_3.jpg,Blue_Circle_Grid_3.jpg,Purple_Plus_Chess_1.jpg,left,579.8400000203401,true,high,false
CYD3XANz,3dzkabx20liukfefnqxhosng7x6cv3,3del4x4elay1eri9azlqyo8bcsgxym,CYD3XANz,2020-0188,2020-05-21,13:29:20,14:06:31,NA,incomplete,190,number,0,left,Red_Circle_Chess_3.jpg,Green_Plus_Grid_3.jpg,Purple_Circle_Stripes_2.jpg,right,500.1600000541657,false,high,false
CYD3XANz,3dzkabx20liukfefnqxhosng7x6cv3,3del4x4elay1eri9azlqyo8bcsgxym,CYD3XANz,2020-0188,2020-05-21,13:29:20,14:06:31,NA,incomplete,191,number,1,left,Purple_Plus_Dots_3.jpg,Red_Star_Grid_3.jpg,Green_Plus_Chess_4.jpg,left,594.9449999025092,true,high,false
CYD3XANz,3dzkabx20liukfefnqxhosng7x6cv3,3del4x4elay1eri9azlqyo8bcsgxym,CYD3XANz,2020-0188,2020-05-21,13:29:20,14:06:31,NA,incomplete,192,number,1,right,Red_Triangle_Grid_4.jpg,Green_Triangle_Stripes_2.jpg,Blue_Circle_Chess_4.jpg,right,613.4899999015033,true,high,false
CYD3XANz,3dzkabx20liukfefnqxhosng7x6cv3,3del4x4elay1eri9azlqyo8bcsgxym,CYD3XANz,2020-0188,2020-05-21,13:29:20,14:06:31,NA,incomplete,193,number,1,right,Green_Star_Chess_3.jpg,Purple_Star_Dots_4.jpg,Blue_Plus_Stripes_3.jpg,right,630.559999961406,true,high,false
CYD3XANz,3dzkabx20liukfefnqxhosng7x6cv3,3del4x4elay1eri9azlqyo8bcsgxym,CYD3XANz,2020-0188,2020-05-21,13:29:20,14:06:31,NA,incomplete,194,number,1,right,Purple_Circle_Dots_4.jpg,Red_Circle_Chess_1.jpg,Green_Plus_Grid_4.jpg,right,742.2899999655783,true,high,false
CYD3XANz,3dzkabx20liukfefnqxhosng7x6cv3,3del4x4elay1eri9azlqyo8bcsgxym,CYD3XANz,2020-0188,2020-05-21,13:29:20,14:06:31,NA,incomplete,195,number,0,right,Purple_Circle_Chess_2.jpg,Blue_Circle_Grid_4.jpg,Red_Star_Dots_2.jpg,right,730.4149999981746,true,high,false
CYD3XANz,3dzkabx20liukfefnqxhosng7x6cv3,3del4x4elay1eri9azlqyo8bcsgxym,CYD3XANz,2020-0188,2020-05-21,13:29:20,14:06:31,NA,incomplete,196,number,1,right,Red_Star_Dots_2.jpg,Green_Star_Stripes_3.jpg,Purple_Circle_Grid_2.jpg,left,701.6400001011789,false,high,false
CYD3XANz,3dzkabx20liukfefnqxhosng7x6cv3,3del4x4elay1eri9azlqyo8bcsgxym,CYD3XANz,2020-0188,2020-05-21,13:29:20,14:06:31,NA,incomplete,197,number,1,left,Blue_Circle_Stripes_2.jpg,Purple_Star_Dots_2.jpg,Red_Circle_Grid_3.jpg,left,542.3549999250099,true,high,false
CYD3XANz,3dzkabx20liukfefnqxhosng7x6cv3,3del4x4elay1eri9azlqyo8bcsgxym,CYD3XANz,2020-0188,2020-05-21,13:29:20,14:06:31,NA,incomplete,198,number,1,right,Blue_Triangle_Chess_1.jpg,Red_Triangle_Grid_4.jpg,Green_Circle_Dots_1.jpg,right,561.6900000022724,true,high,false
CYD3XANz,3dzkabx20liukfefnqxhosng7x6cv3,3del4x4elay1eri9azlqyo8bcsgxym,CYD3XANz,2020-0188,2020-05-21,13:29:20,14:06:31,NA,incomplete,199,number,0,right,Blue_Star_Stripes_2.jpg,Green_Star_Chess_4.jpg,Purple_Triangle_Grid_2.jpg,right,613.3050000062212,true,high,false
CYD3XANz,3dzkabx20liukfefnqxhosng7x6cv3,3del4x4elay1eri9azlqyo8bcsgxym,CYD3XANz,2020-0188,2020-05-21,13:29:20,14:06:31,NA,incomplete,200,shape,1,left,Blue_Plus_Dots_3.jpg,Red_Plus_Chess_1.jpg,Green_Circle_Stripes_3.jpg,right,500.05500006955117,false,high,false
CYD3XANz,3dzkabx20liukfefnqxhosng7x6cv3,3del4x4elay1eri9azlqyo8bcsgxym,CYD3XANz,2020-0188,2020-05-21,13:29:20,14:06:31,NA,incomplete,201,shape,1,left,Green_Circle_Grid_3.jpg,Purple_Circle_Stripes_2.jpg,Red_Triangle_Dots_3.jpg,left,648.2300000498071,true,high,false
CYD3XANz,3dzkabx20liukfefnqxhosng7x6cv3,3del4x4elay1eri9azlqyo8bcsgxym,CYD3XANz,2020-0188,2020-05-21,13:29:20,14:06:31,NA,incomplete,202,shape,1,left,Blue_Triangle_Chess_1.jpg,Green_Triangle_Stripes_4.jpg,Purple_Star_Grid_1.jpg,right,598.3550000237301,false,high,false
CYD3XANz,3dzkabx20liukfefnqxhosng7x6cv3,3del4x4elay1eri9azlqyo8bcsgxym,CYD3XANz,2020-0188,2020-05-21,13:29:20,14:06:31,NA,incomplete,203,shape,0,left,Blue_Plus_Dots_4.jpg,Green_Plus_Chess_2.jpg,Red_Triangle_Grid_4.jpg,left,745.0449999887496,true,high,false
CYD3XANz,3dzkabx20liukfefnqxhosng7x6cv3,3del4x4elay1eri9azlqyo8bcsgxym,CYD3XANz,2020-0188,2020-05-21,13:29:20,14:06:31,NA,incomplete,204,shape,1,left,Blue_Plus_Dots_4.jpg,Purple_Plus_Grid_1.jpg,Green_Triangle_Stripes_4.jpg,left,759.8450001096353,true,high,false
CYD3XANz,3dzkabx20liukfefnqxhosng7x6cv3,3del4x4elay1eri9azlqyo8bcsgxym,CYD3XANz,2020-0188,2020-05-21,13:29:20,14:06:31,NA,incomplete,205,shape,1,right,Purple_Triangle_Chess_3.jpg,Red_Star_Stripes_3.jpg,Green_Triangle_Grid_4.jpg,left,651.7300000414252,false,high,false
CYD3XANz,3dzkabx20liukfefnqxhosng7x6cv3,3del4x4elay1eri9azlqyo8bcsgxym,CYD3XANz,2020-0188,2020-05-21,13:29:20,14:06:31,NA,incomplete,206,shape,0,right,Green_Star_Stripes_3.jpg,Blue_Triangle_Chess_3.jpg,Purple_Star_Dots_1.jpg,right,785.3749999776483,true,high,false
CYD3XANz,3dzkabx20liukfefnqxhosng7x6cv3,3del4x4elay1eri9azlqyo8bcsgxym,CYD3XANz,2020-0188,2020-05-21,13:29:20,14:06:31,NA,incomplete,207,shape,1,right,Green_Plus_Dots_1.jpg,Red_Triangle_Grid_1.jpg,Purple_Plus_Stripes_3.jpg,right,629.9850000068545,true,high,false
CYD3XANz,3dzkabx20liukfefnqxhosng7x6cv3,3del4x4elay1eri9azlqyo8bcsgxym,CYD3XANz,2020-0188,2020-05-21,13:29:20,14:06:31,NA,incomplete,208,shape,1,left,Purple_Plus_Dots_4.jpg,Blue_Plus_Grid_1.jpg,Green_Circle_Chess_4.jpg,left,573.6850000685081,true,high,false
CYD3XANz,3dzkabx20liukfefnqxhosng7x6cv3,3del4x4elay1eri9azlqyo8bcsgxym,CYD3XANz,2020-0188,2020-05-21,13:29:20,14:06:31,NA,incomplete,209,shape,0,left,Red_Plus_Chess_1.jpg,Purple_Plus_Dots_2.jpg,Green_Circle_Grid_1.jpg,left,832.4450000654906,true,high,false
CYD3XANz,3dzkabx20liukfefnqxhosng7x6cv3,3del4x4elay1eri9azlqyo8bcsgxym,CYD3XANz,2020-0188,2020-05-21,13:29:20,14:06:31,NA,incomplete,210,shape,1,right,Green_Plus_Dots_2.jpg,Red_Triangle_Stripes_2.jpg,Blue_Plus_Grid_4.jpg,right,687.7199999289587,true,high,false
CYD3XANz,3dzkabx20liukfefnqxhosng7x6cv3,3del4x4elay1eri9azlqyo8bcsgxym,CYD3XANz,2020-0188,2020-05-21,13:29:20,14:06:31,NA,incomplete,211,shape,0,right,Blue_Plus_Stripes_3.jpg,Green_Triangle_Grid_3.jpg,Purple_Plus_Dots_1.jpg,right,634.0099999215454,true,high,false
CYD3XANz,3dzkabx20liukfefnqxhosng7x6cv3,3del4x4elay1eri9azlqyo8bcsgxym,CYD3XANz,2020-0188,2020-05-21,13:29:20,14:06:31,NA,incomplete,212,shape,1,right,Green_Circle_Dots_4.jpg,Purple_Star_Stripes_4.jpg,Red_Circle_Chess_1.jpg,left,811.7299999576062,false,high,false
CYD3XANz,3dzkabx20liukfefnqxhosng7x6cv3,3del4x4elay1eri9azlqyo8bcsgxym,CYD3XANz,2020-0188,2020-05-21,13:29:20,14:06:31,NA,incomplete,213,shape,0,right,Blue_Triangle_Stripes_3.jpg,Green_Plus_Dots_3.jpg,Red_Triangle_Chess_1.jpg,left,620.3100000275299,false,high,false
CYD3XANz,3dzkabx20liukfefnqxhosng7x6cv3,3del4x4elay1eri9azlqyo8bcsgxym,CYD3XANz,2020-0188,2020-05-21,13:29:20,14:06:31,NA,incomplete,214,shape,1,right,Purple_Plus_Chess_3.jpg,Blue_Triangle_Dots_3.jpg,Green_Plus_Stripes_2.jpg,left,678.9250000147149,false,high,false
CYD3XANz,3dzkabx20liukfefnqxhosng7x6cv3,3del4x4elay1eri9azlqyo8bcsgxym,CYD3XANz,2020-0188,2020-05-21,13:29:20,14:06:31,NA,incomplete,215,shape,1,left,Red_Triangle_Dots_1.jpg,Green_Triangle_Stripes_3.jpg,Blue_Circle_Chess_1.jpg,right,871.1599999805912,false,high,false
CYD3XANz,3dzkabx20liukfefnqxhosng7x6cv3,3del4x4elay1eri9azlqyo8bcsgxym,CYD3XANz,2020-0188,2020-05-21,13:29:20,14:06:31,NA,incomplete,216,shape,1,left,Red_Star_Stripes_3.jpg,Purple_Star_Chess_4.jpg,Green_Triangle_Dots_3.jpg,right,729.605000000447,false,high,false
CYD3XANz,3dzkabx20liukfefnqxhosng7x6cv3,3del4x4elay1eri9azlqyo8bcsgxym,CYD3XANz,2020-0188,2020-05-21,13:29:20,14:06:31,NA,incomplete,217,shape,1,left,Blue_Plus_Stripes_3.jpg,Red_Plus_Dots_1.jpg,Purple_Triangle_Chess_3.jpg,right,816.9700000435114,false,high,false
CYD3XANz,3dzkabx20liukfefnqxhosng7x6cv3,3del4x4elay1eri9azlqyo8bcsgxym,CYD3XANz,2020-0188,2020-05-21,13:29:20,14:06:31,NA,incomplete,218,shape,1,right,Blue_Plus_Grid_3.jpg,Purple_Triangle_Stripes_3.jpg,Red_Plus_Dots_4.jpg,left,625.0800000270829,false,high,false
CYD3XANz,3dzkabx20liukfefnqxhosng7x6cv3,3del4x4elay1eri9azlqyo8bcsgxym,CYD3XANz,2020-0188,2020-05-21,13:29:20,14:06:31,NA,incomplete,219,shape,0,right,Blue_Star_Dots_2.jpg,Purple_Triangle_Stripes_2.jpg,Green_Star_Grid_4.jpg,right,697.3350000334904,true,high,false
CYD3XANz,3dzkabx20liukfefnqxhosng7x6cv3,3del4x4elay1eri9azlqyo8bcsgxym,CYD3XANz,2020-0188,2020-05-21,13:29:20,14:06:31,NA,incomplete,220,number,1,left,Blue_Circle_Dots_3.jpg,Purple_Plus_Grid_3.jpg,Green_Circle_Stripes_2.jpg,left,1142.6350000547245,true,high,false
CYD3XANz,3dzkabx20liukfefnqxhosng7x6cv3,3del4x4elay1eri9azlqyo8bcsgxym,CYD3XANz,2020-0188,2020-05-21,13:29:20,14:06:31,NA,incomplete,221,number,1,right,Green_Plus_Grid_3.jpg,Purple_Plus_Chess_2.jpg,Blue_Star_Dots_3.jpg,left,628.9850000757724,false,high,false
CYD3XANz,3dzkabx20liukfefnqxhosng7x6cv3,3del4x4elay1eri9azlqyo8bcsgxym,CYD3XANz,2020-0188,2020-05-21,13:29:20,14:06:31,NA,incomplete,222,number,1,right,Green_Plus_Stripes_1.jpg,Purple_Plus_Grid_2.jpg,Red_Circle_Dots_1.jpg,right,556.4800000283867,true,high,false
CYD3XANz,3dzkabx20liukfefnqxhosng7x6cv3,3del4x4elay1eri9azlqyo8bcsgxym,CYD3XANz,2020-0188,2020-05-21,13:29:20,14:06:31,NA,incomplete,223,number,1,left,Purple_Star_Chess_1.jpg,Red_Triangle_Grid_1.jpg,Green_Star_Dots_4.jpg,left,552.3699999321252,true,high,false
CYD3XANz,3dzkabx20liukfefnqxhosng7x6cv3,3del4x4elay1eri9azlqyo8bcsgxym,CYD3XANz,2020-0188,2020-05-21,13:29:20,14:06:31,NA,incomplete,224,number,1,right,Purple_Triangle_Grid_2.jpg,Green_Triangle_Chess_4.jpg,Blue_Star_Stripes_2.jpg,right,616.3950000191107,true,high,false
CYD3XANz,3dzkabx20liukfefnqxhosng7x6cv3,3del4x4elay1eri9azlqyo8bcsgxym,CYD3XANz,2020-0188,2020-05-21,13:29:20,14:06:31,NA,incomplete,225,number,1,left,Purple_Triangle_Dots_4.jpg,Red_Star_Stripes_4.jpg,Green_Triangle_Grid_1.jpg,left,721.0099999792874,true,high,false
CYD3XANz,3dzkabx20liukfefnqxhosng7x6cv3,3del4x4elay1eri9azlqyo8bcsgxym,CYD3XANz,2020-0188,2020-05-21,13:29:20,14:06:31,NA,incomplete,226,number,1,right,Blue_Triangle_Chess_3.jpg,Purple_Triangle_Dots_4.jpg,Red_Star_Stripes_3.jpg,right,648.8850000314415,true,high,false
CYD3XANz,3dzkabx20liukfefnqxhosng7x6cv3,3del4x4elay1eri9azlqyo8bcsgxym,CYD3XANz,2020-0188,2020-05-21,13:29:20,14:06:31,NA,incomplete,227,number,1,right,Blue_Plus_Grid_2.jpg,Purple_Plus_Stripes_4.jpg,Red_Triangle_Dots_2.jpg,left,932.7100000809878,false,high,false
CYD3XANz,3dzkabx20liukfefnqxhosng7x6cv3,3del4x4elay1eri9azlqyo8bcsgxym,CYD3XANz,2020-0188,2020-05-21,13:29:20,14:06:31,NA,incomplete,228,number,1,right,Green_Circle_Chess_2.jpg,Red_Circle_Grid_3.jpg,Purple_Star_Stripes_2.jpg,right,765.5050000175834,true,high,false
CYD3XANz,3dzkabx20liukfefnqxhosng7x6cv3,3del4x4elay1eri9azlqyo8bcsgxym,CYD3XANz,2020-0188,2020-05-21,13:29:20,14:06:31,NA,incomplete,229,number,0,left,Green_Circle_Chess_3.jpg,Purple_Star_Dots_3.jpg,Red_Circle_Grid_1.jpg,left,652.2699999623001,true,high,false
CYD3XANz,3dzkabx20liukfefnqxhosng7x6cv3,3del4x4elay1eri9azlqyo8bcsgxym,CYD3XANz,2020-0188,2020-05-21,13:29:20,14:06:31,NA,incomplete,230,number,1,left,Red_Circle_Chess_2.jpg,Blue_Triangle_Stripes_2.jpg,Green_Circle_Grid_4.jpg,right,732.3300000280142,false,high,false
CYD3XANz,3dzkabx20liukfefnqxhosng7x6cv3,3del4x4elay1eri9azlqyo8bcsgxym,CYD3XANz,2020-0188,2020-05-21,13:29:20,14:06:31,NA,incomplete,231,number,1,right,Red_Star_Grid_1.jpg,Purple_Star_Stripes_2.jpg,Blue_Triangle_Dots_1.jpg,right,639.6200000308454,true,high,false
CYD3XANz,3dzkabx20liukfefnqxhosng7x6cv3,3del4x4elay1eri9azlqyo8bcsgxym,CYD3XANz,2020-0188,2020-05-21,13:29:20,14:06:31,NA,incomplete,232,number,0,right,Red_Star_Grid_3.jpg,Blue_Star_Stripes_1.jpg,Green_Plus_Chess_3.jpg,right,658.4300000686198,true,high,false
CYD3XANz,3dzkabx20liukfefnqxhosng7x6cv3,3del4x4elay1eri9azlqyo8bcsgxym,CYD3XANz,2020-0188,2020-05-21,13:29:20,14:06:31,NA,incomplete,233,number,1,left,Purple_Star_Dots_4.jpg,Blue_Circle_Grid_4.jpg,Green_Star_Chess_2.jpg,left,746.7300000134856,true,high,false
CYD3XANz,3dzkabx20liukfefnqxhosng7x6cv3,3del4x4elay1eri9azlqyo8bcsgxym,CYD3XANz,2020-0188,2020-05-21,13:29:20,14:06:31,NA,incomplete,234,number,1,left,Green_Plus_Stripes_1.jpg,Purple_Triangle_Chess_1.jpg,Blue_Plus_Grid_4.jpg,right,686.6300000110641,false,high,false
CYD3XANz,3dzkabx20liukfefnqxhosng7x6cv3,3del4x4elay1eri9azlqyo8bcsgxym,CYD3XANz,2020-0188,2020-05-21,13:29:20,14:06:31,NA,incomplete,235,number,1,right,Purple_Star_Dots_1.jpg,Red_Star_Grid_4.jpg,Green_Circle_Stripes_1.jpg,right,715.5000000493601,true,high,false
CYD3XANz,3dzkabx20liukfefnqxhosng7x6cv3,3del4x4elay1eri9azlqyo8bcsgxym,CYD3XANz,2020-0188,2020-05-21,13:29:20,14:06:31,NA,incomplete,236,number,1,right,Blue_Plus_Grid_3.jpg,Green_Plus_Stripes_4.jpg,Purple_Circle_Chess_3.jpg,left,758.6799999698997,false,high,false
CYD3XANz,3dzkabx20liukfefnqxhosng7x6cv3,3del4x4elay1eri9azlqyo8bcsgxym,CYD3XANz,2020-0188,2020-05-21,13:29:20,14:06:31,NA,incomplete,237,number,0,left,Blue_Circle_Grid_2.jpg,Green_Plus_Dots_2.jpg,Purple_Circle_Stripes_3.jpg,right,542.615000042133,false,high,false
CYD3XANz,3dzkabx20liukfefnqxhosng7x6cv3,3del4x4elay1eri9azlqyo8bcsgxym,CYD3XANz,2020-0188,2020-05-21,13:29:20,14:06:31,NA,incomplete,238,number,1,right,Purple_Circle_Chess_1.jpg,Red_Circle_Grid_4.jpg,Green_Star_Stripes_1.jpg,right,612.0249999221414,true,high,false
CYD3XANz,3dzkabx20liukfefnqxhosng7x6cv3,3del4x4elay1eri9azlqyo8bcsgxym,CYD3XANz,2020-0188,2020-05-21,13:29:20,14:06:31,NA,incomplete,239,number,1,left,Red_Star_Grid_4.jpg,Blue_Triangle_Chess_4.jpg,Purple_Star_Stripes_2.jpg,left,832.894999999553,true,high,false
CYD3XANz,3dzkabx20liukfefnqxhosng7x6cv3,3del4x4elay1eri9azlqyo8bcsgxym,CYD3XANz,2020-0188,2020-05-21,13:29:20,14:06:31,NA,NA,instruction example,color,NA,NA,Green_Plus_Chess_2.jpg,Green_Star_Stripes_1.jpg,Red_Triangle_Chess_3.jpg,NA,NA,NA,NA,undefined
CYD3XANz,3dzkabx20liukfefnqxhosng7x6cv3,3del4x4elay1eri9azlqyo8bcsgxym,CYD3XANz,2020-0188,2020-05-21,13:29:20,14:06:31,NA,NA,instruction example,color,NA,NA,Purple_Circle_Stripes_3.jpg,Green_Plus_Stripes_1.jpg,Purple_Triangle_Grid_2.jpg,NA,NA,NA,NA,undefined
CYD3XANz,3dzkabx20liukfefnqxhosng7x6cv3,3del4x4elay1eri9azlqyo8bcsgxym,CYD3XANz,2020-0188,2020-05-21,13:29:20,14:06:31,NA,NA,instruction example,color,NA,NA,Purple_Star_Grid_2.jpg,Red_Star_Chess_4.jpg,Blue_Plus_Dots_2.jpg,NA,NA,NA,NA,undefined
CYD3XANz,3dzkabx20liukfefnqxhosng7x6cv3,3del4x4elay1eri9azlqyo8bcsgxym,CYD3XANz,2020-0188,2020-05-21,13:29:20,14:06:31,NA,NA,instruction example,color,NA,NA,Red_Plus_Chess_1.jpg,Purple_Star_Dots_1.jpg,Blue_Plus_Stripes_3.jpg,NA,NA,NA,NA,undefined
CYD3XANz,3dzkabx20liukfefnqxhosng7x6cv3,3del4x4elay1eri9azlqyo8bcsgxym,CYD3XANz,2020-0188,2020-05-21,13:29:20,14:06:31,2217962.314999895,2232113.389999955,NA,NA,NA,NA,NA,NA,NA,NA,NA,NA,NA,undefined
