workerId,hitId,assignmentId,subject,studyid,exp_date,exp_start,exp_end,time_start,time_end,trial,type,reward_validity,answer,image_top,image_left,image_right,response,response_time,response_acc,volatility,practice
cJHt1BIA,3dzkabx20liukfefnqxhosng7x6cv3,3dl65mzb8hsf5oqnj2d9d8vlt2jceo,cJHt1BIA,2020-0188,2020-05-21,21:11:52,21:31:19,NA,incomplete,0,filling,0,left,Green_Plus_Grid_1.jpg,Blue_Circle_Grid_4.jpg,Red_Plus_Chess_2.jpg,right,1440.7700000156183,false,NA,true
cJHt1BIA,3dzkabx20liukfefnqxhosng7x6cv3,3dl65mzb8hsf5oqnj2d9d8vlt2jceo,cJHt1BIA,2020-0188,2020-05-21,21:11:52,21:31:19,NA,incomplete,1,filling,0,left,Red_Plus_Stripes_3.jpg,Green_Circle_Stripes_4.jpg,Purple_Plus_Dots_1.jpg,left,1976.8999999796506,true,NA,true
cJHt1BIA,3dzkabx20liukfefnqxhosng7x6cv3,3dl65mzb8hsf5oqnj2d9d8vlt2jceo,cJHt1BIA,2020-0188,2020-05-21,21:11:52,21:31:19,NA,incomplete,2,filling,1,right,Blue_Star_Chess_2.jpg,Purple_Star_Grid_3.jpg,Green_Circle_Chess_1.jpg,right,1694.9550000135787,true,NA,true
cJHt1BIA,3dzkabx20liukfefnqxhosng7x6cv3,3dl65mzb8hsf5oqnj2d9d8vlt2jceo,cJHt1BIA,2020-0188,2020-05-21,21:11:52,21:31:19,NA,incomplete,3,filling,1,left,Green_Plus_Chess_2.jpg,Red_Star_Chess_1.jpg,Purple_Plus_Grid_3.jpg,left,1879.4249999918975,true,NA,true
cJHt1BIA,3dzkabx20liukfefnqxhosng7x6cv3,3dl65mzb8hsf5oqnj2d9d8vlt2jceo,cJHt1BIA,2020-0188,2020-05-21,21:11:52,21:31:19,NA,incomplete,4,filling,1,right,Blue_Star_Dots_2.jpg,Green_Star_Stripes_4.jpg,Purple_Circle_Dots_1.jpg,right,1824.7499999997672,true,NA,true
cJHt1BIA,3dzkabx20liukfefnqxhosng7x6cv3,3dl65mzb8hsf5oqnj2d9d8vlt2jceo,cJHt1BIA,2020-0188,2020-05-21,21:11:52,21:31:19,NA,incomplete,5,filling,1,right,Purple_Star_Stripes_2.jpg,Blue_Star_Dots_1.jpg,Red_Circle_Stripes_3.jpg,right,1404.370000003837,true,NA,true
cJHt1BIA,3dzkabx20liukfefnqxhosng7x6cv3,3dl65mzb8hsf5oqnj2d9d8vlt2jceo,cJHt1BIA,2020-0188,2020-05-21,21:11:52,21:31:19,NA,incomplete,6,filling,1,right,Blue_Star_Stripes_4.jpg,Purple_Star_Chess_2.jpg,Red_Triangle_Stripes_1.jpg,right,1656.4150000049267,true,NA,true
cJHt1BIA,3dzkabx20liukfefnqxhosng7x6cv3,3dl65mzb8hsf5oqnj2d9d8vlt2jceo,cJHt1BIA,2020-0188,2020-05-21,21:11:52,21:31:19,NA,incomplete,7,filling,1,left,Red_Star_Dots_2.jpg,Green_Plus_Dots_3.jpg,Blue_Star_Stripes_1.jpg,left,1618.7300000165123,true,NA,true
cJHt1BIA,3dzkabx20liukfefnqxhosng7x6cv3,3dl65mzb8hsf5oqnj2d9d8vlt2jceo,cJHt1BIA,2020-0188,2020-05-21,21:11:52,21:31:19,NA,incomplete,8,filling,1,right,Green_Star_Chess_2.jpg,Purple_Star_Stripes_1.jpg,Red_Plus_Chess_3.jpg,right,1885.855000000447,true,NA,true
cJHt1BIA,3dzkabx20liukfefnqxhosng7x6cv3,3dl65mzb8hsf5oqnj2d9d8vlt2jceo,cJHt1BIA,2020-0188,2020-05-21,21:11:52,21:31:19,NA,incomplete,9,filling,1,right,Blue_Triangle_Grid_1.jpg,Purple_Triangle_Chess_3.jpg,Red_Circle_Grid_4.jpg,right,1741.8049999978393,true,NA,true
cJHt1BIA,3dzkabx20liukfefnqxhosng7x6cv3,3dl65mzb8hsf5oqnj2d9d8vlt2jceo,cJHt1BIA,2020-0188,2020-05-21,21:11:52,21:31:19,NA,incomplete,10,filling,1,left,Blue_Triangle_Grid_1.jpg,Purple_Plus_Grid_4.jpg,Red_Triangle_Dots_2.jpg,left,1285.6800000008661,true,NA,true
cJHt1BIA,3dzkabx20liukfefnqxhosng7x6cv3,3dl65mzb8hsf5oqnj2d9d8vlt2jceo,cJHt1BIA,2020-0188,2020-05-21,21:11:52,21:31:19,NA,incomplete,11,filling,1,left,Blue_Circle_Dots_2.jpg,Green_Triangle_Dots_1.jpg,Red_Circle_Grid_4.jpg,left,1885.1399999985006,true,NA,true
cJHt1BIA,3dzkabx20liukfefnqxhosng7x6cv3,3dl65mzb8hsf5oqnj2d9d8vlt2jceo,cJHt1BIA,2020-0188,2020-05-21,21:11:52,21:31:19,NA,incomplete,12,filling,1,right,Blue_Circle_Chess_4.jpg,Red_Circle_Dots_1.jpg,Purple_Triangle_Chess_2.jpg,right,1439.330000022892,true,NA,true
cJHt1BIA,3dzkabx20liukfefnqxhosng7x6cv3,3dl65mzb8hsf5oqnj2d9d8vlt2jceo,cJHt1BIA,2020-0188,2020-05-21,21:11:52,21:31:19,NA,incomplete,13,filling,1,right,Red_Circle_Grid_1.jpg,Purple_Circle_Stripes_2.jpg,Green_Star_Grid_3.jpg,right,1649.7249999956694,true,NA,true
cJHt1BIA,3dzkabx20liukfefnqxhosng7x6cv3,3dl65mzb8hsf5oqnj2d9d8vlt2jceo,cJHt1BIA,2020-0188,2020-05-21,21:11:52,21:31:19,NA,incomplete,14,filling,1,left,Blue_Plus_Stripes_4.jpg,Green_Star_Stripes_2.jpg,Purple_Plus_Grid_1.jpg,right,1780.3299999795854,false,NA,true
cJHt1BIA,3dzkabx20liukfefnqxhosng7x6cv3,3dl65mzb8hsf5oqnj2d9d8vlt2jceo,cJHt1BIA,2020-0188,2020-05-21,21:11:52,21:31:19,NA,incomplete,15,filling,1,right,Blue_Triangle_Grid_1.jpg,Red_Triangle_Chess_2.jpg,Purple_Plus_Grid_4.jpg,right,1680.7949999929406,true,NA,true
cJHt1BIA,3dzkabx20liukfefnqxhosng7x6cv3,3dl65mzb8hsf5oqnj2d9d8vlt2jceo,cJHt1BIA,2020-0188,2020-05-21,21:11:52,21:31:19,NA,incomplete,16,filling,0,right,Blue_Plus_Dots_4.jpg,Green_Plus_Stripes_2.jpg,Red_Triangle_Dots_3.jpg,right,1571.6400000092108,true,NA,true
cJHt1BIA,3dzkabx20liukfefnqxhosng7x6cv3,3dl65mzb8hsf5oqnj2d9d8vlt2jceo,cJHt1BIA,2020-0188,2020-05-21,21:11:52,21:31:19,NA,incomplete,17,filling,1,right,Purple_Star_Chess_1.jpg,Blue_Star_Grid_2.jpg,Green_Triangle_Chess_4.jpg,right,1800.8350000018254,true,NA,true
cJHt1BIA,3dzkabx20liukfefnqxhosng7x6cv3,3dl65mzb8hsf5oqnj2d9d8vlt2jceo,cJHt1BIA,2020-0188,2020-05-21,21:11:52,21:31:19,NA,incomplete,18,filling,0,left,Blue_Plus_Grid_2.jpg,Green_Triangle_Grid_1.jpg,Purple_Plus_Dots_4.jpg,left,1420.9850000042934,true,NA,true
cJHt1BIA,3dzkabx20liukfefnqxhosng7x6cv3,3dl65mzb8hsf5oqnj2d9d8vlt2jceo,cJHt1BIA,2020-0188,2020-05-21,21:11:52,21:31:19,NA,incomplete,19,filling,0,right,Blue_Circle_Grid_1.jpg,Green_Circle_Chess_4.jpg,Purple_Triangle_Grid_3.jpg,none,0,false,NA,true
cJHt1BIA,3dzkabx20liukfefnqxhosng7x6cv3,3dl65mzb8hsf5oqnj2d9d8vlt2jceo,cJHt1BIA,2020-0188,2020-05-21,21:11:52,21:31:19,NA,incomplete,20,shape,1,right,Purple_Triangle_Dots_2.jpg,Blue_Star_Dots_4.jpg,Red_Triangle_Chess_1.jpg,right,1667.0299999823328,true,NA,true
cJHt1BIA,3dzkabx20liukfefnqxhosng7x6cv3,3dl65mzb8hsf5oqnj2d9d8vlt2jceo,cJHt1BIA,2020-0188,2020-05-21,21:11:52,21:31:19,NA,incomplete,21,shape,1,right,Green_Circle_Chess_4.jpg,Red_Star_Chess_2.jpg,Blue_Circle_Stripes_1.jpg,right,1139.755000011064,true,NA,true
cJHt1BIA,3dzkabx20liukfefnqxhosng7x6cv3,3dl65mzb8hsf5oqnj2d9d8vlt2jceo,cJHt1BIA,2020-0188,2020-05-21,21:11:52,21:31:19,NA,incomplete,22,shape,1,right,Purple_Triangle_Dots_4.jpg,Blue_Star_Dots_3.jpg,Green_Triangle_Stripes_2.jpg,right,1019.1449999983888,true,NA,true
cJHt1BIA,3dzkabx20liukfefnqxhosng7x6cv3,3dl65mzb8hsf5oqnj2d9d8vlt2jceo,cJHt1BIA,2020-0188,2020-05-21,21:11:52,21:31:19,NA,incomplete,23,shape,1,left,Blue_Star_Dots_2.jpg,Purple_Star_Stripes_3.jpg,Red_Triangle_Dots_4.jpg,left,1174.3200000200886,true,NA,true
cJHt1BIA,3dzkabx20liukfefnqxhosng7x6cv3,3dl65mzb8hsf5oqnj2d9d8vlt2jceo,cJHt1BIA,2020-0188,2020-05-21,21:11:52,21:31:19,NA,incomplete,24,shape,0,right,Green_Star_Stripes_1.jpg,Purple_Circle_Stripes_2.jpg,Blue_Star_Grid_3.jpg,right,1307.7399999892805,true,NA,true
cJHt1BIA,3dzkabx20liukfefnqxhosng7x6cv3,3dl65mzb8hsf5oqnj2d9d8vlt2jceo,cJHt1BIA,2020-0188,2020-05-21,21:11:52,21:31:19,NA,incomplete,25,shape,1,left,Red_Circle_Grid_4.jpg,Green_Circle_Chess_2.jpg,Purple_Plus_Grid_3.jpg,left,1219.184999994468,true,NA,true
cJHt1BIA,3dzkabx20liukfefnqxhosng7x6cv3,3dl65mzb8hsf5oqnj2d9d8vlt2jceo,cJHt1BIA,2020-0188,2020-05-21,21:11:52,21:31:19,NA,incomplete,26,shape,1,right,Green_Plus_Grid_3.jpg,Purple_Circle_Grid_4.jpg,Blue_Plus_Dots_1.jpg,right,1174.9399999971502,true,NA,true
cJHt1BIA,3dzkabx20liukfefnqxhosng7x6cv3,3dl65mzb8hsf5oqnj2d9d8vlt2jceo,cJHt1BIA,2020-0188,2020-05-21,21:11:52,21:31:19,NA,incomplete,27,shape,1,left,Green_Star_Dots_1.jpg,Purple_Star_Grid_3.jpg,Red_Circle_Dots_4.jpg,left,1028.1750000140164,true,NA,true
cJHt1BIA,3dzkabx20liukfefnqxhosng7x6cv3,3dl65mzb8hsf5oqnj2d9d8vlt2jceo,cJHt1BIA,2020-0188,2020-05-21,21:11:52,21:31:19,NA,incomplete,28,shape,1,left,Green_Triangle_Dots_3.jpg,Blue_Triangle_Chess_2.jpg,Red_Plus_Dots_4.jpg,left,1383.1200000131503,true,NA,true
cJHt1BIA,3dzkabx20liukfefnqxhosng7x6cv3,3dl65mzb8hsf5oqnj2d9d8vlt2jceo,cJHt1BIA,2020-0188,2020-05-21,21:11:52,21:31:19,NA,incomplete,29,shape,1,left,Purple_Circle_Stripes_4.jpg,Blue_Circle_Dots_2.jpg,Green_Star_Stripes_3.jpg,left,1116.569999983767,true,NA,true
cJHt1BIA,3dzkabx20liukfefnqxhosng7x6cv3,3dl65mzb8hsf5oqnj2d9d8vlt2jceo,cJHt1BIA,2020-0188,2020-05-21,21:11:52,21:31:19,NA,incomplete,30,shape,1,right,Red_Triangle_Stripes_2.jpg,Green_Star_Stripes_4.jpg,Blue_Triangle_Dots_3.jpg,right,925.3299999982119,true,NA,true
cJHt1BIA,3dzkabx20liukfefnqxhosng7x6cv3,3dl65mzb8hsf5oqnj2d9d8vlt2jceo,cJHt1BIA,2020-0188,2020-05-21,21:11:52,21:31:19,NA,incomplete,31,shape,1,left,Blue_Star_Dots_2.jpg,Red_Star_Stripes_3.jpg,Purple_Circle_Dots_4.jpg,left,1165.229999984149,true,NA,true
cJHt1BIA,3dzkabx20liukfefnqxhosng7x6cv3,3dl65mzb8hsf5oqnj2d9d8vlt2jceo,cJHt1BIA,2020-0188,2020-05-21,21:11:52,21:31:19,NA,incomplete,32,shape,1,right,Purple_Triangle_Stripes_3.jpg,Red_Circle_Stripes_2.jpg,Green_Triangle_Dots_4.jpg,right,1506.454999995185,true,NA,true
cJHt1BIA,3dzkabx20liukfefnqxhosng7x6cv3,3dl65mzb8hsf5oqnj2d9d8vlt2jceo,cJHt1BIA,2020-0188,2020-05-21,21:11:52,21:31:19,NA,incomplete,33,shape,1,right,Red_Circle_Stripes_4.jpg,Purple_Plus_Stripes_1.jpg,Blue_Circle_Chess_2.jpg,right,1089.6849999844562,true,NA,true
cJHt1BIA,3dzkabx20liukfefnqxhosng7x6cv3,3dl65mzb8hsf5oqnj2d9d8vlt2jceo,cJHt1BIA,2020-0188,2020-05-21,21:11:52,21:31:19,NA,incomplete,34,shape,1,left,Blue_Circle_Grid_4.jpg,Purple_Circle_Chess_2.jpg,Green_Plus_Grid_3.jpg,left,1043.3849999972153,true,NA,true
cJHt1BIA,3dzkabx20liukfefnqxhosng7x6cv3,3dl65mzb8hsf5oqnj2d9d8vlt2jceo,cJHt1BIA,2020-0188,2020-05-21,21:11:52,21:31:19,NA,incomplete,35,shape,1,left,Blue_Star_Dots_3.jpg,Purple_Star_Stripes_1.jpg,Green_Plus_Dots_2.jpg,left,1092.6849999814294,true,NA,true
cJHt1BIA,3dzkabx20liukfefnqxhosng7x6cv3,3dl65mzb8hsf5oqnj2d9d8vlt2jceo,cJHt1BIA,2020-0188,2020-05-21,21:11:52,21:31:19,NA,incomplete,36,shape,1,right,Green_Star_Chess_3.jpg,Blue_Circle_Chess_1.jpg,Purple_Star_Dots_4.jpg,right,1174.2150000063702,true,NA,true
cJHt1BIA,3dzkabx20liukfefnqxhosng7x6cv3,3dl65mzb8hsf5oqnj2d9d8vlt2jceo,cJHt1BIA,2020-0188,2020-05-21,21:11:52,21:31:19,NA,incomplete,37,shape,0,left,Purple_Circle_Stripes_2.jpg,Blue_Circle_Chess_4.jpg,Red_Plus_Stripes_1.jpg,left,1083.4600000234786,true,NA,true
cJHt1BIA,3dzkabx20liukfefnqxhosng7x6cv3,3dl65mzb8hsf5oqnj2d9d8vlt2jceo,cJHt1BIA,2020-0188,2020-05-21,21:11:52,21:31:19,NA,incomplete,38,shape,0,left,Red_Plus_Dots_4.jpg,Purple_Plus_Grid_3.jpg,Green_Triangle_Dots_2.jpg,left,893.0949999776203,true,NA,true
cJHt1BIA,3dzkabx20liukfefnqxhosng7x6cv3,3dl65mzb8hsf5oqnj2d9d8vlt2jceo,cJHt1BIA,2020-0188,2020-05-21,21:11:52,21:31:19,NA,incomplete,39,shape,1,right,Blue_Circle_Grid_3.jpg,Green_Plus_Grid_4.jpg,Red_Circle_Dots_1.jpg,right,966.2250000110362,true,NA,true
cJHt1BIA,3dzkabx20liukfefnqxhosng7x6cv3,3dl65mzb8hsf5oqnj2d9d8vlt2jceo,cJHt1BIA,2020-0188,2020-05-21,21:11:52,21:31:19,NA,incomplete,0,filling,0,right,Purple_Star_Dots_3.jpg,Red_Star_Stripes_1.jpg,Green_Plus_Dots_4.jpg,left,1058.3950000000186,false,low,false
cJHt1BIA,3dzkabx20liukfefnqxhosng7x6cv3,3dl65mzb8hsf5oqnj2d9d8vlt2jceo,cJHt1BIA,2020-0188,2020-05-21,21:11:52,21:31:19,NA,incomplete,1,filling,1,right,Green_Circle_Grid_4.jpg,Red_Circle_Dots_1.jpg,Purple_Plus_Grid_2.jpg,left,820.319999998901,false,low,false
cJHt1BIA,3dzkabx20liukfefnqxhosng7x6cv3,3dl65mzb8hsf5oqnj2d9d8vlt2jceo,cJHt1BIA,2020-0188,2020-05-21,21:11:52,21:31:19,NA,incomplete,2,filling,1,left,Green_Triangle_Chess_2.jpg,Red_Circle_Chess_4.jpg,Purple_Triangle_Stripes_1.jpg,right,847.3399999784306,false,low,false
cJHt1BIA,3dzkabx20liukfefnqxhosng7x6cv3,3dl65mzb8hsf5oqnj2d9d8vlt2jceo,cJHt1BIA,2020-0188,2020-05-21,21:11:52,21:31:19,NA,incomplete,3,filling,1,right,Red_Circle_Stripes_3.jpg,Blue_Circle_Chess_2.jpg,Purple_Plus_Stripes_4.jpg,right,1091.1750000086613,true,low,false
cJHt1BIA,3dzkabx20liukfefnqxhosng7x6cv3,3dl65mzb8hsf5oqnj2d9d8vlt2jceo,cJHt1BIA,2020-0188,2020-05-21,21:11:52,21:31:19,NA,incomplete,4,filling,1,left,Red_Triangle_Chess_2.jpg,Green_Circle_Chess_3.jpg,Purple_Triangle_Stripes_4.jpg,left,1451.0900000168476,true,low,false
cJHt1BIA,3dzkabx20liukfefnqxhosng7x6cv3,3dl65mzb8hsf5oqnj2d9d8vlt2jceo,cJHt1BIA,2020-0188,2020-05-21,21:11:52,21:31:19,NA,incomplete,5,filling,0,left,Green_Plus_Chess_4.jpg,Purple_Star_Chess_1.jpg,Blue_Plus_Grid_3.jpg,left,1028.1450000184122,true,low,false
cJHt1BIA,3dzkabx20liukfefnqxhosng7x6cv3,3dl65mzb8hsf5oqnj2d9d8vlt2jceo,cJHt1BIA,2020-0188,2020-05-21,21:11:52,21:31:19,NA,incomplete,6,filling,0,right,Green_Plus_Grid_1.jpg,Red_Plus_Dots_4.jpg,Blue_Circle_Grid_3.jpg,right,960.205000010319,true,low,false
cJHt1BIA,3dzkabx20liukfefnqxhosng7x6cv3,3dl65mzb8hsf5oqnj2d9d8vlt2jceo,cJHt1BIA,2020-0188,2020-05-21,21:11:52,21:31:19,NA,incomplete,7,filling,1,left,Red_Circle_Chess_4.jpg,Blue_Plus_Chess_3.jpg,Green_Circle_Stripes_1.jpg,right,1702.6400000031572,false,low,false
cJHt1BIA,3dzkabx20liukfefnqxhosng7x6cv3,3dl65mzb8hsf5oqnj2d9d8vlt2jceo,cJHt1BIA,2020-0188,2020-05-21,21:11:52,21:31:19,NA,incomplete,8,filling,1,left,Red_Triangle_Chess_2.jpg,Green_Plus_Chess_1.jpg,Purple_Triangle_Grid_3.jpg,right,1366.585000010673,false,low,false
cJHt1BIA,3dzkabx20liukfefnqxhosng7x6cv3,3dl65mzb8hsf5oqnj2d9d8vlt2jceo,cJHt1BIA,2020-0188,2020-05-21,21:11:52,21:31:19,NA,incomplete,9,filling,1,left,Red_Star_Chess_2.jpg,Blue_Plus_Chess_1.jpg,Purple_Star_Grid_3.jpg,left,1388.1800000090152,true,low,false
cJHt1BIA,3dzkabx20liukfefnqxhosng7x6cv3,3dl65mzb8hsf5oqnj2d9d8vlt2jceo,cJHt1BIA,2020-0188,2020-05-21,21:11:52,21:31:19,NA,incomplete,10,filling,1,left,Red_Plus_Chess_4.jpg,Purple_Circle_Chess_3.jpg,Blue_Plus_Stripes_1.jpg,left,1320.560000021942,true,low,false
cJHt1BIA,3dzkabx20liukfefnqxhosng7x6cv3,3dl65mzb8hsf5oqnj2d9d8vlt2jceo,cJHt1BIA,2020-0188,2020-05-21,21:11:52,21:31:19,NA,incomplete,11,filling,0,left,Green_Plus_Chess_2.jpg,Purple_Circle_Chess_1.jpg,Blue_Plus_Grid_3.jpg,left,1168.5249999864027,true,low,false
cJHt1BIA,3dzkabx20liukfefnqxhosng7x6cv3,3dl65mzb8hsf5oqnj2d9d8vlt2jceo,cJHt1BIA,2020-0188,2020-05-21,21:11:52,21:31:19,NA,incomplete,12,filling,0,right,Blue_Triangle_Grid_3.jpg,Green_Triangle_Dots_1.jpg,Red_Plus_Grid_2.jpg,right,990.0799999886658,true,low,false
cJHt1BIA,3dzkabx20liukfefnqxhosng7x6cv3,3dl65mzb8hsf5oqnj2d9d8vlt2jceo,cJHt1BIA,2020-0188,2020-05-21,21:11:52,21:31:19,NA,incomplete,13,filling,0,left,Green_Circle_Grid_2.jpg,Red_Star_Grid_1.jpg,Blue_Circle_Chess_3.jpg,left,1545.7299999834504,true,low,false
cJHt1BIA,3dzkabx20liukfefnqxhosng7x6cv3,3dl65mzb8hsf5oqnj2d9d8vlt2jceo,cJHt1BIA,2020-0188,2020-05-21,21:11:52,21:31:19,NA,incomplete,14,filling,1,left,Green_Star_Stripes_2.jpg,Red_Triangle_Stripes_3.jpg,Purple_Star_Grid_4.jpg,right,1856.3699999940582,false,low,false
cJHt1BIA,3dzkabx20liukfefnqxhosng7x6cv3,3dl65mzb8hsf5oqnj2d9d8vlt2jceo,cJHt1BIA,2020-0188,2020-05-21,21:11:52,21:31:19,NA,incomplete,15,filling,1,right,Green_Circle_Dots_4.jpg,Blue_Circle_Grid_1.jpg,Purple_Triangle_Dots_2.jpg,left,1307.3250000015832,false,low,false
cJHt1BIA,3dzkabx20liukfefnqxhosng7x6cv3,3dl65mzb8hsf5oqnj2d9d8vlt2jceo,cJHt1BIA,2020-0188,2020-05-21,21:11:52,21:31:19,NA,incomplete,16,filling,1,right,Red_Triangle_Stripes_1.jpg,Blue_Triangle_Chess_4.jpg,Green_Circle_Stripes_3.jpg,right,1643.1199999933597,true,low,false
cJHt1BIA,3dzkabx20liukfefnqxhosng7x6cv3,3dl65mzb8hsf5oqnj2d9d8vlt2jceo,cJHt1BIA,2020-0188,2020-05-21,21:11:52,21:31:19,NA,incomplete,17,filling,1,right,Purple_Star_Grid_3.jpg,Green_Star_Dots_1.jpg,Blue_Plus_Grid_2.jpg,left,1262.1499999950174,false,low,false
cJHt1BIA,3dzkabx20liukfefnqxhosng7x6cv3,3dl65mzb8hsf5oqnj2d9d8vlt2jceo,cJHt1BIA,2020-0188,2020-05-21,21:11:52,21:31:19,NA,incomplete,18,filling,1,left,Blue_Plus_Stripes_2.jpg,Green_Circle_Stripes_1.jpg,Purple_Plus_Chess_3.jpg,left,1775.7399999827612,true,low,false
cJHt1BIA,3dzkabx20liukfefnqxhosng7x6cv3,3dl65mzb8hsf5oqnj2d9d8vlt2jceo,cJHt1BIA,2020-0188,2020-05-21,21:11:52,21:31:19,NA,incomplete,19,filling,1,left,Red_Plus_Grid_3.jpg,Blue_Star_Grid_2.jpg,Purple_Plus_Stripes_4.jpg,left,1596.9050000130665,true,low,false
cJHt1BIA,3dzkabx20liukfefnqxhosng7x6cv3,3dl65mzb8hsf5oqnj2d9d8vlt2jceo,cJHt1BIA,2020-0188,2020-05-21,21:11:52,21:31:19,NA,incomplete,20,filling,1,right,Green_Plus_Chess_3.jpg,Red_Plus_Stripes_4.jpg,Blue_Triangle_Chess_2.jpg,right,1217.369999998482,true,low,false
cJHt1BIA,3dzkabx20liukfefnqxhosng7x6cv3,3dl65mzb8hsf5oqnj2d9d8vlt2jceo,cJHt1BIA,2020-0188,2020-05-21,21:11:52,21:31:19,NA,incomplete,21,filling,1,right,Green_Star_Dots_1.jpg,Purple_Star_Chess_4.jpg,Blue_Triangle_Dots_3.jpg,right,1484.7099999897182,true,low,false
cJHt1BIA,3dzkabx20liukfefnqxhosng7x6cv3,3dl65mzb8hsf5oqnj2d9d8vlt2jceo,cJHt1BIA,2020-0188,2020-05-21,21:11:52,21:31:19,NA,incomplete,22,filling,1,right,Red_Circle_Dots_3.jpg,Blue_Circle_Stripes_1.jpg,Purple_Star_Dots_2.jpg,right,1268.4399999852758,true,low,false
cJHt1BIA,3dzkabx20liukfefnqxhosng7x6cv3,3dl65mzb8hsf5oqnj2d9d8vlt2jceo,cJHt1BIA,2020-0188,2020-05-21,21:11:52,21:31:19,NA,incomplete,23,filling,1,right,Blue_Circle_Stripes_3.jpg,Green_Circle_Chess_2.jpg,Red_Plus_Stripes_1.jpg,right,1182.81000002753,true,low,false
cJHt1BIA,3dzkabx20liukfefnqxhosng7x6cv3,3dl65mzb8hsf5oqnj2d9d8vlt2jceo,cJHt1BIA,2020-0188,2020-05-21,21:11:52,21:31:19,NA,incomplete,24,filling,1,right,Green_Star_Grid_1.jpg,Red_Star_Dots_4.jpg,Blue_Circle_Grid_2.jpg,right,1283.160000020871,true,low,false
cJHt1BIA,3dzkabx20liukfefnqxhosng7x6cv3,3dl65mzb8hsf5oqnj2d9d8vlt2jceo,cJHt1BIA,2020-0188,2020-05-21,21:11:52,21:31:19,NA,incomplete,25,filling,0,left,Red_Circle_Chess_2.jpg,Green_Star_Chess_1.jpg,Blue_Circle_Dots_3.jpg,left,1052.6649999956135,true,low,false
cJHt1BIA,3dzkabx20liukfefnqxhosng7x6cv3,3dl65mzb8hsf5oqnj2d9d8vlt2jceo,cJHt1BIA,2020-0188,2020-05-21,21:11:52,21:31:19,NA,incomplete,26,filling,1,left,Blue_Circle_Grid_4.jpg,Green_Plus_Grid_2.jpg,Purple_Circle_Stripes_3.jpg,left,1398.605000023963,true,low,false
cJHt1BIA,3dzkabx20liukfefnqxhosng7x6cv3,3dl65mzb8hsf5oqnj2d9d8vlt2jceo,cJHt1BIA,2020-0188,2020-05-21,21:11:52,21:31:19,NA,incomplete,27,filling,1,left,Blue_Circle_Grid_3.jpg,Purple_Triangle_Grid_1.jpg,Red_Circle_Dots_4.jpg,left,1123.6900000076275,true,low,false
cJHt1BIA,3dzkabx20liukfefnqxhosng7x6cv3,3dl65mzb8hsf5oqnj2d9d8vlt2jceo,cJHt1BIA,2020-0188,2020-05-21,21:11:52,21:31:19,NA,incomplete,28,filling,1,left,Green_Plus_Chess_4.jpg,Red_Triangle_Chess_3.jpg,Blue_Plus_Grid_1.jpg,left,1060.925000027055,true,low,false
cJHt1BIA,3dzkabx20liukfefnqxhosng7x6cv3,3dl65mzb8hsf5oqnj2d9d8vlt2jceo,cJHt1BIA,2020-0188,2020-05-21,21:11:52,21:31:19,NA,incomplete,29,filling,0,right,Purple_Circle_Dots_4.jpg,Red_Circle_Stripes_1.jpg,Blue_Plus_Dots_3.jpg,right,1116.7750000022352,true,low,false
cJHt1BIA,3dzkabx20liukfefnqxhosng7x6cv3,3dl65mzb8hsf5oqnj2d9d8vlt2jceo,cJHt1BIA,2020-0188,2020-05-21,21:11:52,21:31:19,NA,incomplete,30,shape,1,right,Red_Circle_Dots_2.jpg,Purple_Plus_Dots_1.jpg,Blue_Circle_Stripes_4.jpg,left,996.33999998332,false,low,false
cJHt1BIA,3dzkabx20liukfefnqxhosng7x6cv3,3dl65mzb8hsf5oqnj2d9d8vlt2jceo,cJHt1BIA,2020-0188,2020-05-21,21:11:52,21:31:19,NA,incomplete,31,shape,1,left,Green_Circle_Stripes_3.jpg,Blue_Circle_Chess_2.jpg,Purple_Triangle_Stripes_1.jpg,right,1849.0900000033434,false,low,false
cJHt1BIA,3dzkabx20liukfefnqxhosng7x6cv3,3dl65mzb8hsf5oqnj2d9d8vlt2jceo,cJHt1BIA,2020-0188,2020-05-21,21:11:52,21:31:19,NA,incomplete,32,shape,0,right,Purple_Plus_Chess_1.jpg,Red_Circle_Chess_4.jpg,Blue_Plus_Grid_3.jpg,right,1307.6149999978952,true,low,false
cJHt1BIA,3dzkabx20liukfefnqxhosng7x6cv3,3dl65mzb8hsf5oqnj2d9d8vlt2jceo,cJHt1BIA,2020-0188,2020-05-21,21:11:52,21:31:19,NA,incomplete,33,shape,1,right,Red_Triangle_Dots_1.jpg,Purple_Circle_Dots_3.jpg,Blue_Triangle_Chess_2.jpg,right,1316.2299999967217,true,low,false
cJHt1BIA,3dzkabx20liukfefnqxhosng7x6cv3,3dl65mzb8hsf5oqnj2d9d8vlt2jceo,cJHt1BIA,2020-0188,2020-05-21,21:11:52,21:31:19,NA,incomplete,34,shape,1,right,Blue_Plus_Grid_3.jpg,Red_Star_Grid_2.jpg,Green_Plus_Chess_4.jpg,right,1491.7999999888707,true,low,false
cJHt1BIA,3dzkabx20liukfefnqxhosng7x6cv3,3dl65mzb8hsf5oqnj2d9d8vlt2jceo,cJHt1BIA,2020-0188,2020-05-21,21:11:52,21:31:19,NA,incomplete,35,shape,1,right,Red_Triangle_Stripes_3.jpg,Purple_Circle_Stripes_4.jpg,Green_Triangle_Grid_2.jpg,right,1155.7399999874178,true,low,false
cJHt1BIA,3dzkabx20liukfefnqxhosng7x6cv3,3dl65mzb8hsf5oqnj2d9d8vlt2jceo,cJHt1BIA,2020-0188,2020-05-21,21:11:52,21:31:19,NA,incomplete,36,shape,1,right,Purple_Plus_Chess_3.jpg,Blue_Triangle_Chess_2.jpg,Green_Plus_Grid_1.jpg,right,1179.2399999976624,true,low,false
cJHt1BIA,3dzkabx20liukfefnqxhosng7x6cv3,3dl65mzb8hsf5oqnj2d9d8vlt2jceo,cJHt1BIA,2020-0188,2020-05-21,21:11:52,21:31:19,NA,incomplete,37,shape,1,right,Blue_Triangle_Grid_1.jpg,Green_Star_Grid_3.jpg,Purple_Triangle_Dots_4.jpg,right,1167.490000021644,true,low,false
cJHt1BIA,3dzkabx20liukfefnqxhosng7x6cv3,3dl65mzb8hsf5oqnj2d9d8vlt2jceo,cJHt1BIA,2020-0188,2020-05-21,21:11:52,21:31:19,NA,incomplete,38,shape,1,left,Red_Circle_Grid_2.jpg,Blue_Circle_Chess_3.jpg,Purple_Star_Grid_4.jpg,left,852.9949999938253,true,low,false
cJHt1BIA,3dzkabx20liukfefnqxhosng7x6cv3,3dl65mzb8hsf5oqnj2d9d8vlt2jceo,cJHt1BIA,2020-0188,2020-05-21,21:11:52,21:31:19,NA,incomplete,39,shape,0,right,Purple_Circle_Stripes_1.jpg,Blue_Star_Stripes_4.jpg,Green_Circle_Grid_3.jpg,right,967.1150000067428,true,low,false
cJHt1BIA,3dzkabx20liukfefnqxhosng7x6cv3,3dl65mzb8hsf5oqnj2d9d8vlt2jceo,cJHt1BIA,2020-0188,2020-05-21,21:11:52,21:31:19,NA,incomplete,40,shape,1,left,Red_Circle_Chess_2.jpg,Green_Circle_Grid_3.jpg,Blue_Triangle_Chess_1.jpg,left,948.6399999877904,true,low,false
cJHt1BIA,3dzkabx20liukfefnqxhosng7x6cv3,3dl65mzb8hsf5oqnj2d9d8vlt2jceo,cJHt1BIA,2020-0188,2020-05-21,21:11:52,21:31:19,NA,incomplete,41,shape,0,left,Blue_Circle_Stripes_2.jpg,Red_Circle_Dots_1.jpg,Green_Triangle_Stripes_3.jpg,left,883.8450000039302,true,low,false
cJHt1BIA,3dzkabx20liukfefnqxhosng7x6cv3,3dl65mzb8hsf5oqnj2d9d8vlt2jceo,cJHt1BIA,2020-0188,2020-05-21,21:11:52,21:31:19,NA,incomplete,42,shape,0,right,Blue_Triangle_Dots_4.jpg,Red_Circle_Dots_1.jpg,Green_Triangle_Grid_3.jpg,right,908.6950000200886,true,low,false
cJHt1BIA,3dzkabx20liukfefnqxhosng7x6cv3,3dl65mzb8hsf5oqnj2d9d8vlt2jceo,cJHt1BIA,2020-0188,2020-05-21,21:11:52,21:31:19,NA,incomplete,43,shape,1,right,Purple_Triangle_Chess_2.jpg,Blue_Circle_Chess_1.jpg,Red_Triangle_Dots_3.jpg,right,1267.534999991767,true,low,false
cJHt1BIA,3dzkabx20liukfefnqxhosng7x6cv3,3dl65mzb8hsf5oqnj2d9d8vlt2jceo,cJHt1BIA,2020-0188,2020-05-21,21:11:52,21:31:19,NA,incomplete,44,shape,1,right,Blue_Plus_Grid_3.jpg,Green_Circle_Grid_4.jpg,Purple_Plus_Chess_2.jpg,right,1605.8049999992363,true,low,false
cJHt1BIA,3dzkabx20liukfefnqxhosng7x6cv3,3dl65mzb8hsf5oqnj2d9d8vlt2jceo,cJHt1BIA,2020-0188,2020-05-21,21:11:52,21:31:19,NA,incomplete,45,shape,1,right,Blue_Plus_Stripes_3.jpg,Green_Triangle_Stripes_4.jpg,Purple_Plus_Grid_2.jpg,right,1274.4450000172947,true,low,false
cJHt1BIA,3dzkabx20liukfefnqxhosng7x6cv3,3dl65mzb8hsf5oqnj2d9d8vlt2jceo,cJHt1BIA,2020-0188,2020-05-21,21:11:52,21:31:19,NA,incomplete,46,shape,1,left,Green_Triangle_Grid_3.jpg,Red_Triangle_Chess_1.jpg,Blue_Star_Grid_2.jpg,left,1018.355000007432,true,low,false
cJHt1BIA,3dzkabx20liukfefnqxhosng7x6cv3,3dl65mzb8hsf5oqnj2d9d8vlt2jceo,cJHt1BIA,2020-0188,2020-05-21,21:11:52,21:31:19,NA,incomplete,47,shape,1,right,Green_Plus_Dots_4.jpg,Purple_Star_Dots_2.jpg,Red_Plus_Stripes_3.jpg,right,885.5700000131037,true,low,false
cJHt1BIA,3dzkabx20liukfefnqxhosng7x6cv3,3dl65mzb8hsf5oqnj2d9d8vlt2jceo,cJHt1BIA,2020-0188,2020-05-21,21:11:52,21:31:19,NA,incomplete,48,shape,1,left,Blue_Circle_Stripes_2.jpg,Green_Circle_Chess_1.jpg,Purple_Plus_Stripes_4.jpg,left,982.3850000102539,true,low,false
cJHt1BIA,3dzkabx20liukfefnqxhosng7x6cv3,3dl65mzb8hsf5oqnj2d9d8vlt2jceo,cJHt1BIA,2020-0188,2020-05-21,21:11:52,21:31:19,NA,incomplete,49,shape,1,right,Purple_Triangle_Chess_2.jpg,Blue_Plus_Chess_4.jpg,Red_Triangle_Dots_1.jpg,right,859.5900000073016,true,low,false
cJHt1BIA,3dzkabx20liukfefnqxhosng7x6cv3,3dl65mzb8hsf5oqnj2d9d8vlt2jceo,cJHt1BIA,2020-0188,2020-05-21,21:11:52,21:31:19,NA,incomplete,50,shape,1,left,Blue_Star_Dots_3.jpg,Green_Star_Grid_2.jpg,Red_Plus_Dots_1.jpg,left,901.7199999943841,true,low,false
cJHt1BIA,3dzkabx20liukfefnqxhosng7x6cv3,3dl65mzb8hsf5oqnj2d9d8vlt2jceo,cJHt1BIA,2020-0188,2020-05-21,21:11:52,21:31:19,NA,incomplete,51,shape,1,left,Purple_Star_Grid_1.jpg,Blue_Star_Stripes_3.jpg,Red_Plus_Grid_4.jpg,left,1070.145000005141,true,low,false
cJHt1BIA,3dzkabx20liukfefnqxhosng7x6cv3,3dl65mzb8hsf5oqnj2d9d8vlt2jceo,cJHt1BIA,2020-0188,2020-05-21,21:11:52,21:31:19,NA,incomplete,52,shape,1,right,Red_Triangle_Grid_1.jpg,Purple_Circle_Grid_4.jpg,Blue_Triangle_Dots_2.jpg,right,822.6300000096671,true,low,false
cJHt1BIA,3dzkabx20liukfefnqxhosng7x6cv3,3dl65mzb8hsf5oqnj2d9d8vlt2jceo,cJHt1BIA,2020-0188,2020-05-21,21:11:52,21:31:19,NA,incomplete,53,shape,1,left,Green_Triangle_Dots_2.jpg,Red_Triangle_Chess_1.jpg,Blue_Circle_Dots_4.jpg,left,1138.314999989234,true,low,false
cJHt1BIA,3dzkabx20liukfefnqxhosng7x6cv3,3dl65mzb8hsf5oqnj2d9d8vlt2jceo,cJHt1BIA,2020-0188,2020-05-21,21:11:52,21:31:19,NA,incomplete,54,shape,1,left,Red_Triangle_Chess_3.jpg,Purple_Triangle_Stripes_1.jpg,Blue_Circle_Chess_4.jpg,left,962.2400000225753,true,low,false
cJHt1BIA,3dzkabx20liukfefnqxhosng7x6cv3,3dl65mzb8hsf5oqnj2d9d8vlt2jceo,cJHt1BIA,2020-0188,2020-05-21,21:11:52,21:31:19,NA,incomplete,55,shape,1,right,Purple_Plus_Stripes_3.jpg,Green_Triangle_Stripes_1.jpg,Red_Plus_Chess_2.jpg,right,823.7800000060815,true,low,false
cJHt1BIA,3dzkabx20liukfefnqxhosng7x6cv3,3dl65mzb8hsf5oqnj2d9d8vlt2jceo,cJHt1BIA,2020-0188,2020-05-21,21:11:52,21:31:19,NA,incomplete,56,shape,1,right,Purple_Plus_Chess_4.jpg,Green_Star_Chess_1.jpg,Blue_Plus_Grid_3.jpg,right,930.5849999946076,true,low,false
cJHt1BIA,3dzkabx20liukfefnqxhosng7x6cv3,3dl65mzb8hsf5oqnj2d9d8vlt2jceo,cJHt1BIA,2020-0188,2020-05-21,21:11:52,21:31:19,NA,incomplete,57,shape,1,right,Purple_Plus_Dots_2.jpg,Red_Star_Dots_4.jpg,Blue_Plus_Chess_3.jpg,right,922.6799999887589,true,low,false
cJHt1BIA,3dzkabx20liukfefnqxhosng7x6cv3,3dl65mzb8hsf5oqnj2d9d8vlt2jceo,cJHt1BIA,2020-0188,2020-05-21,21:11:52,21:31:19,NA,incomplete,58,shape,1,left,Blue_Circle_Grid_1.jpg,Green_Circle_Stripes_4.jpg,Red_Plus_Grid_3.jpg,left,857.8750000160653,true,low,false
cJHt1BIA,3dzkabx20liukfefnqxhosng7x6cv3,3dl65mzb8hsf5oqnj2d9d8vlt2jceo,cJHt1BIA,2020-0188,2020-05-21,21:11:52,21:31:19,NA,incomplete,59,shape,1,right,Blue_Star_Chess_1.jpg,Red_Triangle_Chess_3.jpg,Purple_Star_Dots_4.jpg,right,883.334999991348,true,low,false
cJHt1BIA,3dzkabx20liukfefnqxhosng7x6cv3,3dl65mzb8hsf5oqnj2d9d8vlt2jceo,cJHt1BIA,2020-0188,2020-05-21,21:11:52,21:31:19,NA,incomplete,60,filling,0,right,Blue_Plus_Stripes_2.jpg,Red_Plus_Chess_4.jpg,Green_Triangle_Stripes_1.jpg,left,860.7049999991432,false,low,false
cJHt1BIA,3dzkabx20liukfefnqxhosng7x6cv3,3dl65mzb8hsf5oqnj2d9d8vlt2jceo,cJHt1BIA,2020-0188,2020-05-21,21:11:52,21:31:19,NA,incomplete,61,filling,1,left,Green_Triangle_Dots_4.jpg,Purple_Plus_Dots_2.jpg,Blue_Triangle_Stripes_3.jpg,right,903.1250000116415,false,low,false
cJHt1BIA,3dzkabx20liukfefnqxhosng7x6cv3,3dl65mzb8hsf5oqnj2d9d8vlt2jceo,cJHt1BIA,2020-0188,2020-05-21,21:11:52,21:31:19,NA,incomplete,62,filling,1,left,Blue_Circle_Grid_1.jpg,Purple_Triangle_Grid_3.jpg,Green_Circle_Stripes_4.jpg,right,1045.9450000198558,false,low,false
cJHt1BIA,3dzkabx20liukfefnqxhosng7x6cv3,3dl65mzb8hsf5oqnj2d9d8vlt2jceo,cJHt1BIA,2020-0188,2020-05-21,21:11:52,21:31:19,NA,incomplete,63,filling,1,left,Blue_Star_Chess_1.jpg,Green_Triangle_Chess_4.jpg,Purple_Star_Grid_2.jpg,right,993.1250000081491,false,low,false
cJHt1BIA,3dzkabx20liukfefnqxhosng7x6cv3,3dl65mzb8hsf5oqnj2d9d8vlt2jceo,cJHt1BIA,2020-0188,2020-05-21,21:11:52,21:31:19,NA,incomplete,64,filling,1,right,Green_Triangle_Chess_4.jpg,Blue_Triangle_Dots_1.jpg,Purple_Circle_Chess_3.jpg,right,1446.924999996554,true,low,false
cJHt1BIA,3dzkabx20liukfefnqxhosng7x6cv3,3dl65mzb8hsf5oqnj2d9d8vlt2jceo,cJHt1BIA,2020-0188,2020-05-21,21:11:52,21:31:19,NA,incomplete,65,filling,0,left,Blue_Star_Chess_3.jpg,Purple_Circle_Chess_2.jpg,Red_Star_Stripes_4.jpg,left,1104.9449999991339,true,low,false
cJHt1BIA,3dzkabx20liukfefnqxhosng7x6cv3,3dl65mzb8hsf5oqnj2d9d8vlt2jceo,cJHt1BIA,2020-0188,2020-05-21,21:11:52,21:31:19,NA,incomplete,66,filling,1,right,Purple_Plus_Grid_4.jpg,Blue_Plus_Stripes_2.jpg,Green_Triangle_Grid_1.jpg,right,1552.5849999976344,true,low,false
cJHt1BIA,3dzkabx20liukfefnqxhosng7x6cv3,3dl65mzb8hsf5oqnj2d9d8vlt2jceo,cJHt1BIA,2020-0188,2020-05-21,21:11:52,21:31:19,NA,incomplete,67,filling,1,left,Green_Star_Dots_2.jpg,Purple_Plus_Dots_1.jpg,Blue_Star_Grid_3.jpg,left,1271.2500000197906,true,low,false
cJHt1BIA,3dzkabx20liukfefnqxhosng7x6cv3,3dl65mzb8hsf5oqnj2d9d8vlt2jceo,cJHt1BIA,2020-0188,2020-05-21,21:11:52,21:31:19,NA,incomplete,68,filling,1,right,Green_Triangle_Stripes_1.jpg,Red_Triangle_Chess_2.jpg,Purple_Star_Stripes_4.jpg,right,1128.114999999525,true,low,false
cJHt1BIA,3dzkabx20liukfefnqxhosng7x6cv3,3dl65mzb8hsf5oqnj2d9d8vlt2jceo,cJHt1BIA,2020-0188,2020-05-21,21:11:52,21:31:19,NA,incomplete,69,filling,0,right,Green_Triangle_Chess_3.jpg,Blue_Triangle_Grid_4.jpg,Red_Star_Chess_1.jpg,right,1176.225000002887,true,low,false
cJHt1BIA,3dzkabx20liukfefnqxhosng7x6cv3,3dl65mzb8hsf5oqnj2d9d8vlt2jceo,cJHt1BIA,2020-0188,2020-05-21,21:11:52,21:31:19,NA,incomplete,70,filling,1,left,Green_Circle_Stripes_3.jpg,Purple_Triangle_Stripes_4.jpg,Blue_Circle_Dots_1.jpg,left,1139.5450000127312,true,low,false
cJHt1BIA,3dzkabx20liukfefnqxhosng7x6cv3,3dl65mzb8hsf5oqnj2d9d8vlt2jceo,cJHt1BIA,2020-0188,2020-05-21,21:11:52,21:31:19,NA,incomplete,71,filling,1,right,Purple_Star_Chess_1.jpg,Green_Star_Grid_2.jpg,Red_Triangle_Chess_4.jpg,right,1106.9150000112131,true,low,false
cJHt1BIA,3dzkabx20liukfefnqxhosng7x6cv3,3dl65mzb8hsf5oqnj2d9d8vlt2jceo,cJHt1BIA,2020-0188,2020-05-21,21:11:52,21:31:19,NA,incomplete,72,filling,1,right,Blue_Plus_Grid_4.jpg,Green_Plus_Chess_1.jpg,Red_Star_Grid_2.jpg,right,1123.2350000063889,true,low,false
cJHt1BIA,3dzkabx20liukfefnqxhosng7x6cv3,3dl65mzb8hsf5oqnj2d9d8vlt2jceo,cJHt1BIA,2020-0188,2020-05-21,21:11:52,21:31:19,NA,incomplete,73,filling,0,right,Green_Star_Grid_1.jpg,Blue_Star_Stripes_4.jpg,Purple_Triangle_Grid_3.jpg,right,1051.1299999780022,true,low,false
cJHt1BIA,3dzkabx20liukfefnqxhosng7x6cv3,3dl65mzb8hsf5oqnj2d9d8vlt2jceo,cJHt1BIA,2020-0188,2020-05-21,21:11:52,21:31:19,NA,incomplete,74,filling,1,right,Red_Star_Chess_3.jpg,Green_Star_Dots_1.jpg,Blue_Circle_Chess_4.jpg,right,1005.299999989802,true,low,false
cJHt1BIA,3dzkabx20liukfefnqxhosng7x6cv3,3dl65mzb8hsf5oqnj2d9d8vlt2jceo,cJHt1BIA,2020-0188,2020-05-21,21:11:52,21:31:19,NA,incomplete,75,filling,1,left,Purple_Circle_Chess_4.jpg,Green_Plus_Chess_2.jpg,Red_Circle_Dots_3.jpg,left,929.759999999078,true,low,false
cJHt1BIA,3dzkabx20liukfefnqxhosng7x6cv3,3dl65mzb8hsf5oqnj2d9d8vlt2jceo,cJHt1BIA,2020-0188,2020-05-21,21:11:52,21:31:19,NA,incomplete,76,filling,1,left,Red_Circle_Dots_2.jpg,Blue_Star_Dots_1.jpg,Purple_Circle_Chess_4.jpg,left,1040.1000000128988,true,low,false
cJHt1BIA,3dzkabx20liukfefnqxhosng7x6cv3,3dl65mzb8hsf5oqnj2d9d8vlt2jceo,cJHt1BIA,2020-0188,2020-05-21,21:11:52,21:31:19,NA,incomplete,77,filling,1,left,Blue_Circle_Grid_2.jpg,Green_Star_Grid_4.jpg,Red_Circle_Dots_3.jpg,left,1162.945000018226,true,low,false
cJHt1BIA,3dzkabx20liukfefnqxhosng7x6cv3,3dl65mzb8hsf5oqnj2d9d8vlt2jceo,cJHt1BIA,2020-0188,2020-05-21,21:11:52,21:31:19,NA,incomplete,78,filling,1,left,Red_Plus_Stripes_4.jpg,Purple_Star_Stripes_1.jpg,Blue_Plus_Grid_2.jpg,left,1401.2100000109058,true,low,false
cJHt1BIA,3dzkabx20liukfefnqxhosng7x6cv3,3dl65mzb8hsf5oqnj2d9d8vlt2jceo,cJHt1BIA,2020-0188,2020-05-21,21:11:52,21:31:19,NA,incomplete,79,filling,0,left,Green_Plus_Dots_2.jpg,Red_Triangle_Dots_1.jpg,Purple_Plus_Grid_3.jpg,left,1029.3750000128057,true,low,false
cJHt1BIA,3dzkabx20liukfefnqxhosng7x6cv3,3dl65mzb8hsf5oqnj2d9d8vlt2jceo,cJHt1BIA,2020-0188,2020-05-21,21:11:52,21:31:19,NA,incomplete,80,filling,1,left,Blue_Star_Stripes_4.jpg,Green_Triangle_Stripes_3.jpg,Red_Star_Chess_1.jpg,left,1033.274999994319,true,low,false
cJHt1BIA,3dzkabx20liukfefnqxhosng7x6cv3,3dl65mzb8hsf5oqnj2d9d8vlt2jceo,cJHt1BIA,2020-0188,2020-05-21,21:11:52,21:31:19,NA,incomplete,81,filling,1,right,Blue_Star_Chess_3.jpg,Red_Star_Dots_1.jpg,Green_Plus_Chess_4.jpg,right,947.7400000032503,true,low,false
cJHt1BIA,3dzkabx20liukfefnqxhosng7x6cv3,3dl65mzb8hsf5oqnj2d9d8vlt2jceo,cJHt1BIA,2020-0188,2020-05-21,21:11:52,21:31:19,NA,incomplete,82,filling,1,right,Blue_Plus_Stripes_2.jpg,Green_Plus_Dots_3.jpg,Red_Triangle_Stripes_4.jpg,right,1210.6799999892246,true,low,false
cJHt1BIA,3dzkabx20liukfefnqxhosng7x6cv3,3dl65mzb8hsf5oqnj2d9d8vlt2jceo,cJHt1BIA,2020-0188,2020-05-21,21:11:52,21:31:19,NA,incomplete,83,filling,1,left,Green_Circle_Dots_2.jpg,Blue_Plus_Dots_3.jpg,Purple_Circle_Stripes_4.jpg,left,991.4500000013504,true,low,false
cJHt1BIA,3dzkabx20liukfefnqxhosng7x6cv3,3dl65mzb8hsf5oqnj2d9d8vlt2jceo,cJHt1BIA,2020-0188,2020-05-21,21:11:52,21:31:19,NA,incomplete,84,filling,1,right,Green_Triangle_Dots_2.jpg,Purple_Triangle_Grid_4.jpg,Red_Circle_Dots_1.jpg,right,851.6899999813177,true,low,false
cJHt1BIA,3dzkabx20liukfefnqxhosng7x6cv3,3dl65mzb8hsf5oqnj2d9d8vlt2jceo,cJHt1BIA,2020-0188,2020-05-21,21:11:52,21:31:19,NA,incomplete,85,filling,1,left,Green_Circle_Stripes_3.jpg,Purple_Triangle_Stripes_4.jpg,Red_Circle_Chess_1.jpg,left,997.704999987036,true,low,false
cJHt1BIA,3dzkabx20liukfefnqxhosng7x6cv3,3dl65mzb8hsf5oqnj2d9d8vlt2jceo,cJHt1BIA,2020-0188,2020-05-21,21:11:52,21:31:19,NA,incomplete,86,filling,1,right,Blue_Circle_Dots_2.jpg,Green_Circle_Stripes_1.jpg,Purple_Plus_Dots_3.jpg,right,905.7949999987613,true,low,false
cJHt1BIA,3dzkabx20liukfefnqxhosng7x6cv3,3dl65mzb8hsf5oqnj2d9d8vlt2jceo,cJHt1BIA,2020-0188,2020-05-21,21:11:52,21:31:19,NA,incomplete,87,filling,1,right,Blue_Circle_Chess_3.jpg,Green_Circle_Dots_4.jpg,Purple_Star_Chess_2.jpg,right,1018.1349999911617,true,low,false
cJHt1BIA,3dzkabx20liukfefnqxhosng7x6cv3,3dl65mzb8hsf5oqnj2d9d8vlt2jceo,cJHt1BIA,2020-0188,2020-05-21,21:11:52,21:31:19,NA,incomplete,88,filling,1,right,Purple_Star_Grid_2.jpg,Green_Star_Stripes_1.jpg,Blue_Triangle_Grid_4.jpg,right,1157.0500000088941,true,low,false
cJHt1BIA,3dzkabx20liukfefnqxhosng7x6cv3,3dl65mzb8hsf5oqnj2d9d8vlt2jceo,cJHt1BIA,2020-0188,2020-05-21,21:11:52,21:31:19,NA,incomplete,89,filling,0,right,Blue_Plus_Dots_1.jpg,Purple_Plus_Grid_3.jpg,Green_Circle_Dots_2.jpg,right,1091.2599999865051,true,low,false
cJHt1BIA,3dzkabx20liukfefnqxhosng7x6cv3,3dl65mzb8hsf5oqnj2d9d8vlt2jceo,cJHt1BIA,2020-0188,2020-05-21,21:11:52,21:31:19,NA,incomplete,90,shape,0,right,Purple_Circle_Stripes_3.jpg,Red_Star_Stripes_2.jpg,Blue_Circle_Dots_1.jpg,left,1011.7650000029244,false,low,false
cJHt1BIA,3dzkabx20liukfefnqxhosng7x6cv3,3dl65mzb8hsf5oqnj2d9d8vlt2jceo,cJHt1BIA,2020-0188,2020-05-21,21:11:52,21:31:19,NA,incomplete,91,shape,1,right,Purple_Star_Chess_1.jpg,Blue_Circle_Chess_4.jpg,Green_Star_Dots_2.jpg,left,1088.1249999802094,false,low,false
cJHt1BIA,3dzkabx20liukfefnqxhosng7x6cv3,3dl65mzb8hsf5oqnj2d9d8vlt2jceo,cJHt1BIA,2020-0188,2020-05-21,21:11:52,21:31:19,NA,incomplete,92,shape,0,left,Purple_Plus_Grid_4.jpg,Green_Plus_Stripes_2.jpg,Blue_Circle_Grid_1.jpg,right,1169.4600000046194,false,low,false
cJHt1BIA,3dzkabx20liukfefnqxhosng7x6cv3,3dl65mzb8hsf5oqnj2d9d8vlt2jceo,cJHt1BIA,2020-0188,2020-05-21,21:11:52,21:31:19,NA,incomplete,93,shape,1,right,Blue_Star_Stripes_3.jpg,Purple_Plus_Stripes_4.jpg,Red_Star_Chess_2.jpg,left,1077.579999982845,false,low,false
cJHt1BIA,3dzkabx20liukfefnqxhosng7x6cv3,3dl65mzb8hsf5oqnj2d9d8vlt2jceo,cJHt1BIA,2020-0188,2020-05-21,21:11:52,21:31:19,NA,incomplete,94,shape,1,right,Blue_Star_Chess_4.jpg,Red_Triangle_Chess_1.jpg,Purple_Star_Stripes_3.jpg,left,1135.6599999999162,false,low,false
cJHt1BIA,3dzkabx20liukfefnqxhosng7x6cv3,3dl65mzb8hsf5oqnj2d9d8vlt2jceo,cJHt1BIA,2020-0188,2020-05-21,21:11:52,21:31:19,NA,incomplete,95,shape,1,right,Blue_Triangle_Stripes_1.jpg,Red_Star_Stripes_4.jpg,Green_Triangle_Chess_3.jpg,right,1670.2949999889825,true,low,false
cJHt1BIA,3dzkabx20liukfefnqxhosng7x6cv3,3dl65mzb8hsf5oqnj2d9d8vlt2jceo,cJHt1BIA,2020-0188,2020-05-21,21:11:52,21:31:19,NA,incomplete,96,shape,1,left,Green_Star_Stripes_1.jpg,Blue_Star_Grid_4.jpg,Purple_Triangle_Stripes_2.jpg,left,911.2249999889173,true,low,false
cJHt1BIA,3dzkabx20liukfefnqxhosng7x6cv3,3dl65mzb8hsf5oqnj2d9d8vlt2jceo,cJHt1BIA,2020-0188,2020-05-21,21:11:52,21:31:19,NA,incomplete,97,shape,1,left,Green_Plus_Stripes_2.jpg,Purple_Plus_Grid_4.jpg,Blue_Triangle_Stripes_3.jpg,left,927.945000003092,true,low,false
cJHt1BIA,3dzkabx20liukfefnqxhosng7x6cv3,3dl65mzb8hsf5oqnj2d9d8vlt2jceo,cJHt1BIA,2020-0188,2020-05-21,21:11:52,21:31:19,NA,incomplete,98,shape,1,right,Red_Star_Dots_4.jpg,Purple_Triangle_Dots_2.jpg,Blue_Star_Chess_3.jpg,right,1038.6750000179745,true,low,false
cJHt1BIA,3dzkabx20liukfefnqxhosng7x6cv3,3dl65mzb8hsf5oqnj2d9d8vlt2jceo,cJHt1BIA,2020-0188,2020-05-21,21:11:52,21:31:19,NA,incomplete,99,shape,1,left,Green_Circle_Stripes_2.jpg,Purple_Circle_Chess_1.jpg,Red_Plus_Stripes_3.jpg,left,728.7150000047404,true,low,false
cJHt1BIA,3dzkabx20liukfefnqxhosng7x6cv3,3dl65mzb8hsf5oqnj2d9d8vlt2jceo,cJHt1BIA,2020-0188,2020-05-21,21:11:52,21:31:19,NA,incomplete,100,shape,1,left,Green_Triangle_Dots_2.jpg,Red_Triangle_Stripes_3.jpg,Purple_Plus_Dots_4.jpg,left,944.2949999938719,true,low,false
cJHt1BIA,3dzkabx20liukfefnqxhosng7x6cv3,3dl65mzb8hsf5oqnj2d9d8vlt2jceo,cJHt1BIA,2020-0188,2020-05-21,21:11:52,21:31:19,NA,incomplete,101,shape,1,left,Green_Plus_Chess_2.jpg,Red_Plus_Dots_3.jpg,Purple_Star_Chess_1.jpg,left,887.8100000147242,true,low,false
cJHt1BIA,3dzkabx20liukfefnqxhosng7x6cv3,3dl65mzb8hsf5oqnj2d9d8vlt2jceo,cJHt1BIA,2020-0188,2020-05-21,21:11:52,21:31:19,NA,incomplete,102,shape,0,right,Blue_Triangle_Dots_1.jpg,Red_Star_Dots_2.jpg,Purple_Triangle_Stripes_3.jpg,right,880.8300000091549,true,low,false
cJHt1BIA,3dzkabx20liukfefnqxhosng7x6cv3,3dl65mzb8hsf5oqnj2d9d8vlt2jceo,cJHt1BIA,2020-0188,2020-05-21,21:11:52,21:31:19,NA,incomplete,103,shape,1,left,Blue_Plus_Grid_4.jpg,Red_Plus_Dots_1.jpg,Green_Circle_Grid_3.jpg,left,720.7850000122562,true,low,false
cJHt1BIA,3dzkabx20liukfefnqxhosng7x6cv3,3dl65mzb8hsf5oqnj2d9d8vlt2jceo,cJHt1BIA,2020-0188,2020-05-21,21:11:52,21:31:19,NA,incomplete,104,shape,1,right,Purple_Star_Chess_3.jpg,Blue_Circle_Chess_4.jpg,Red_Star_Dots_1.jpg,right,880.6049999839161,true,low,false
cJHt1BIA,3dzkabx20liukfefnqxhosng7x6cv3,3dl65mzb8hsf5oqnj2d9d8vlt2jceo,cJHt1BIA,2020-0188,2020-05-21,21:11:52,21:31:19,NA,incomplete,105,shape,1,right,Purple_Triangle_Stripes_3.jpg,Red_Plus_Stripes_1.jpg,Blue_Triangle_Grid_4.jpg,right,1459.1700000164565,true,low,false
cJHt1BIA,3dzkabx20liukfefnqxhosng7x6cv3,3dl65mzb8hsf5oqnj2d9d8vlt2jceo,cJHt1BIA,2020-0188,2020-05-21,21:11:52,21:31:19,NA,incomplete,106,shape,1,left,Red_Star_Grid_1.jpg,Purple_Star_Chess_2.jpg,Blue_Triangle_Grid_4.jpg,left,875.9250000002794,true,low,false
cJHt1BIA,3dzkabx20liukfefnqxhosng7x6cv3,3dl65mzb8hsf5oqnj2d9d8vlt2jceo,cJHt1BIA,2020-0188,2020-05-21,21:11:52,21:31:19,NA,incomplete,107,shape,1,right,Purple_Star_Chess_3.jpg,Green_Circle_Chess_1.jpg,Red_Star_Grid_2.jpg,right,837.7799999725539,true,low,false
cJHt1BIA,3dzkabx20liukfefnqxhosng7x6cv3,3dl65mzb8hsf5oqnj2d9d8vlt2jceo,cJHt1BIA,2020-0188,2020-05-21,21:11:52,21:31:19,NA,incomplete,108,shape,0,right,Purple_Triangle_Dots_3.jpg,Blue_Circle_Dots_1.jpg,Green_Triangle_Chess_2.jpg,right,904.4599999906495,true,low,false
cJHt1BIA,3dzkabx20liukfefnqxhosng7x6cv3,3dl65mzb8hsf5oqnj2d9d8vlt2jceo,cJHt1BIA,2020-0188,2020-05-21,21:11:52,21:31:19,NA,incomplete,109,shape,0,right,Green_Triangle_Grid_1.jpg,Blue_Circle_Grid_4.jpg,Red_Triangle_Stripes_3.jpg,right,759.9300000001676,true,low,false
cJHt1BIA,3dzkabx20liukfefnqxhosng7x6cv3,3dl65mzb8hsf5oqnj2d9d8vlt2jceo,cJHt1BIA,2020-0188,2020-05-21,21:11:52,21:31:19,NA,incomplete,110,shape,0,right,Purple_Triangle_Grid_4.jpg,Blue_Star_Grid_3.jpg,Red_Triangle_Stripes_1.jpg,right,854.9200000124983,true,low,false
cJHt1BIA,3dzkabx20liukfefnqxhosng7x6cv3,3dl65mzb8hsf5oqnj2d9d8vlt2jceo,cJHt1BIA,2020-0188,2020-05-21,21:11:52,21:31:19,NA,incomplete,111,shape,1,left,Red_Star_Grid_4.jpg,Purple_Star_Chess_2.jpg,Green_Circle_Grid_1.jpg,right,1871.9350000028498,false,low,false
cJHt1BIA,3dzkabx20liukfefnqxhosng7x6cv3,3dl65mzb8hsf5oqnj2d9d8vlt2jceo,cJHt1BIA,2020-0188,2020-05-21,21:11:52,21:31:19,NA,incomplete,112,shape,1,left,Purple_Star_Dots_4.jpg,Red_Star_Chess_2.jpg,Blue_Circle_Dots_1.jpg,right,1552.9399999941234,false,low,false
cJHt1BIA,3dzkabx20liukfefnqxhosng7x6cv3,3dl65mzb8hsf5oqnj2d9d8vlt2jceo,cJHt1BIA,2020-0188,2020-05-21,21:11:52,21:31:19,NA,incomplete,113,shape,1,left,Green_Star_Chess_4.jpg,Blue_Star_Grid_3.jpg,Purple_Triangle_Chess_2.jpg,right,1479.8399999854155,false,low,false
cJHt1BIA,3dzkabx20liukfefnqxhosng7x6cv3,3dl65mzb8hsf5oqnj2d9d8vlt2jceo,cJHt1BIA,2020-0188,2020-05-21,21:11:52,21:31:19,NA,incomplete,114,shape,1,right,Green_Plus_Chess_4.jpg,Red_Circle_Chess_2.jpg,Purple_Plus_Grid_3.jpg,right,1360.6999999901745,true,low,false
cJHt1BIA,3dzkabx20liukfefnqxhosng7x6cv3,3dl65mzb8hsf5oqnj2d9d8vlt2jceo,cJHt1BIA,2020-0188,2020-05-21,21:11:52,21:31:19,NA,incomplete,115,shape,1,right,Purple_Circle_Dots_1.jpg,Red_Triangle_Dots_4.jpg,Blue_Circle_Grid_2.jpg,right,1519.029999995837,true,low,false
cJHt1BIA,3dzkabx20liukfefnqxhosng7x6cv3,3dl65mzb8hsf5oqnj2d9d8vlt2jceo,cJHt1BIA,2020-0188,2020-05-21,21:11:52,21:31:19,NA,incomplete,116,shape,1,left,Red_Circle_Stripes_3.jpg,Green_Circle_Grid_1.jpg,Purple_Star_Stripes_2.jpg,left,902.3999999917578,true,low,false
cJHt1BIA,3dzkabx20liukfefnqxhosng7x6cv3,3dl65mzb8hsf5oqnj2d9d8vlt2jceo,cJHt1BIA,2020-0188,2020-05-21,21:11:52,21:31:19,NA,incomplete,117,shape,1,left,Purple_Star_Grid_2.jpg,Blue_Star_Stripes_4.jpg,Red_Triangle_Grid_1.jpg,left,1094.6750000002794,true,low,false
cJHt1BIA,3dzkabx20liukfefnqxhosng7x6cv3,3dl65mzb8hsf5oqnj2d9d8vlt2jceo,cJHt1BIA,2020-0188,2020-05-21,21:11:52,21:31:19,NA,incomplete,118,shape,1,left,Blue_Plus_Chess_2.jpg,Purple_Plus_Stripes_4.jpg,Green_Triangle_Chess_3.jpg,left,838.7449999863748,true,low,false
cJHt1BIA,3dzkabx20liukfefnqxhosng7x6cv3,3dl65mzb8hsf5oqnj2d9d8vlt2jceo,cJHt1BIA,2020-0188,2020-05-21,21:11:52,21:31:19,NA,incomplete,119,shape,1,left,Blue_Triangle_Chess_3.jpg,Green_Triangle_Grid_2.jpg,Purple_Circle_Chess_1.jpg,left,1018.0549999931827,true,low,false
cJHt1BIA,3dzkabx20liukfefnqxhosng7x6cv3,3dl65mzb8hsf5oqnj2d9d8vlt2jceo,cJHt1BIA,2020-0188,2020-05-21,21:11:52,21:31:19,NA,incomplete,120,number,1,right,Blue_Plus_Grid_2.jpg,Blue_Star_Chess_3.jpg,Purple_Circle_Dots_2.jpg,NA,NA,NA,low,false
cJHt1BIA,3dzkabx20liukfefnqxhosng7x6cv3,3dl65mzb8hsf5oqnj2d9d8vlt2jceo,cJHt1BIA,2020-0188,2020-05-21,21:11:52,21:31:19,NA,incomplete,121,number,1,right,Red_Circle_Chess_1.jpg,Red_Star_Stripes_4.jpg,Blue_Plus_Grid_1.jpg,left,1083.9599999890197,false,low,false
cJHt1BIA,3dzkabx20liukfefnqxhosng7x6cv3,3dl65mzb8hsf5oqnj2d9d8vlt2jceo,cJHt1BIA,2020-0188,2020-05-21,21:11:52,21:31:19,NA,incomplete,122,number,0,left,Red_Plus_Grid_3.jpg,Green_Star_Dots_3.jpg,Red_Circle_Chess_2.jpg,left,1037.705000024289,true,low,false
cJHt1BIA,3dzkabx20liukfefnqxhosng7x6cv3,3dl65mzb8hsf5oqnj2d9d8vlt2jceo,cJHt1BIA,2020-0188,2020-05-21,21:11:52,21:31:19,NA,incomplete,123,number,1,right,Red_Star_Stripes_2.jpg,Red_Plus_Dots_4.jpg,Purple_Circle_Grid_2.jpg,left,1040.5449999962002,false,low,false
cJHt1BIA,3dzkabx20liukfefnqxhosng7x6cv3,3dl65mzb8hsf5oqnj2d9d8vlt2jceo,cJHt1BIA,2020-0188,2020-05-21,21:11:52,21:31:19,NA,incomplete,124,number,1,right,Red_Triangle_Dots_3.jpg,Red_Plus_Stripes_2.jpg,Blue_Star_Chess_3.jpg,right,851.9499999820255,true,low,false
cJHt1BIA,3dzkabx20liukfefnqxhosng7x6cv3,3dl65mzb8hsf5oqnj2d9d8vlt2jceo,cJHt1BIA,2020-0188,2020-05-21,21:11:52,21:31:19,NA,incomplete,125,number,0,right,Red_Plus_Dots_3.jpg,Red_Circle_Grid_2.jpg,Purple_Triangle_Chess_3.jpg,right,860.0600000063423,true,low,false
cJHt1BIA,3dzkabx20liukfefnqxhosng7x6cv3,3dl65mzb8hsf5oqnj2d9d8vlt2jceo,cJHt1BIA,2020-0188,2020-05-21,21:11:52,21:31:19,NA,incomplete,126,number,1,right,Purple_Star_Stripes_1.jpg,Purple_Plus_Chess_3.jpg,Red_Triangle_Dots_1.jpg,right,870.6050000037067,true,low,false
cJHt1BIA,3dzkabx20liukfefnqxhosng7x6cv3,3dl65mzb8hsf5oqnj2d9d8vlt2jceo,cJHt1BIA,2020-0188,2020-05-21,21:11:52,21:31:19,NA,incomplete,127,number,0,left,Green_Circle_Grid_2.jpg,Red_Star_Dots_2.jpg,Green_Plus_Stripes_1.jpg,left,863.4949999977835,true,low,false
cJHt1BIA,3dzkabx20liukfefnqxhosng7x6cv3,3dl65mzb8hsf5oqnj2d9d8vlt2jceo,cJHt1BIA,2020-0188,2020-05-21,21:11:52,21:31:19,NA,incomplete,128,number,1,left,Green_Plus_Grid_1.jpg,Blue_Star_Stripes_1.jpg,Green_Circle_Dots_4.jpg,left,834.1650000074878,true,low,false
cJHt1BIA,3dzkabx20liukfefnqxhosng7x6cv3,3dl65mzb8hsf5oqnj2d9d8vlt2jceo,cJHt1BIA,2020-0188,2020-05-21,21:11:52,21:31:19,NA,incomplete,129,number,0,right,Red_Plus_Grid_4.jpg,Red_Star_Dots_2.jpg,Green_Triangle_Chess_4.jpg,right,797.3650000058115,true,low,false
cJHt1BIA,3dzkabx20liukfefnqxhosng7x6cv3,3dl65mzb8hsf5oqnj2d9d8vlt2jceo,cJHt1BIA,2020-0188,2020-05-21,21:11:52,21:31:19,NA,incomplete,130,number,1,right,Blue_Plus_Grid_1.jpg,Blue_Circle_Dots_2.jpg,Red_Triangle_Stripes_1.jpg,right,946.4250000019092,true,low,false
cJHt1BIA,3dzkabx20liukfefnqxhosng7x6cv3,3dl65mzb8hsf5oqnj2d9d8vlt2jceo,cJHt1BIA,2020-0188,2020-05-21,21:11:52,21:31:19,NA,incomplete,131,number,0,right,Blue_Plus_Stripes_2.jpg,Blue_Triangle_Chess_4.jpg,Green_Circle_Grid_2.jpg,right,880.1450000028126,true,low,false
cJHt1BIA,3dzkabx20liukfefnqxhosng7x6cv3,3dl65mzb8hsf5oqnj2d9d8vlt2jceo,cJHt1BIA,2020-0188,2020-05-21,21:11:52,21:31:19,NA,incomplete,132,number,1,right,Blue_Plus_Chess_3.jpg,Blue_Circle_Grid_1.jpg,Green_Star_Stripes_3.jpg,right,937.4700000043958,true,low,false
cJHt1BIA,3dzkabx20liukfefnqxhosng7x6cv3,3dl65mzb8hsf5oqnj2d9d8vlt2jceo,cJHt1BIA,2020-0188,2020-05-21,21:11:52,21:31:19,NA,incomplete,133,number,1,right,Blue_Plus_Dots_4.jpg,Blue_Star_Chess_3.jpg,Green_Circle_Stripes_4.jpg,right,953.1199999910314,true,low,false
cJHt1BIA,3dzkabx20liukfefnqxhosng7x6cv3,3dl65mzb8hsf5oqnj2d9d8vlt2jceo,cJHt1BIA,2020-0188,2020-05-21,21:11:52,21:31:19,NA,incomplete,134,number,1,left,Purple_Plus_Stripes_4.jpg,Blue_Circle_Chess_4.jpg,Purple_Star_Grid_1.jpg,left,837.5249999808148,true,low,false
cJHt1BIA,3dzkabx20liukfefnqxhosng7x6cv3,3dl65mzb8hsf5oqnj2d9d8vlt2jceo,cJHt1BIA,2020-0188,2020-05-21,21:11:52,21:31:19,NA,incomplete,135,number,1,left,Green_Star_Dots_4.jpg,Purple_Circle_Chess_4.jpg,Green_Triangle_Stripes_1.jpg,left,871.6050000221003,true,low,false
cJHt1BIA,3dzkabx20liukfefnqxhosng7x6cv3,3dl65mzb8hsf5oqnj2d9d8vlt2jceo,cJHt1BIA,2020-0188,2020-05-21,21:11:52,21:31:19,NA,incomplete,136,number,1,right,Blue_Star_Chess_1.jpg,Blue_Triangle_Grid_3.jpg,Green_Circle_Stripes_1.jpg,right,793.7850000162143,true,low,false
cJHt1BIA,3dzkabx20liukfefnqxhosng7x6cv3,3dl65mzb8hsf5oqnj2d9d8vlt2jceo,cJHt1BIA,2020-0188,2020-05-21,21:11:52,21:31:19,NA,incomplete,137,number,0,left,Blue_Star_Grid_3.jpg,Red_Circle_Stripes_3.jpg,Blue_Triangle_Chess_2.jpg,left,742.9950000077952,true,low,false
cJHt1BIA,3dzkabx20liukfefnqxhosng7x6cv3,3dl65mzb8hsf5oqnj2d9d8vlt2jceo,cJHt1BIA,2020-0188,2020-05-21,21:11:52,21:31:19,NA,incomplete,138,number,1,right,Blue_Star_Grid_1.jpg,Blue_Circle_Stripes_4.jpg,Green_Plus_Dots_1.jpg,right,909.9849999765866,true,low,false
cJHt1BIA,3dzkabx20liukfefnqxhosng7x6cv3,3dl65mzb8hsf5oqnj2d9d8vlt2jceo,cJHt1BIA,2020-0188,2020-05-21,21:11:52,21:31:19,NA,incomplete,139,number,1,left,Green_Star_Dots_4.jpg,Blue_Circle_Chess_4.jpg,Green_Triangle_Stripes_1.jpg,left,717.7950000041164,true,low,false
cJHt1BIA,3dzkabx20liukfefnqxhosng7x6cv3,3dl65mzb8hsf5oqnj2d9d8vlt2jceo,cJHt1BIA,2020-0188,2020-05-21,21:11:52,21:31:19,NA,incomplete,140,color,1,left,Purple_Triangle_Dots_4.jpg,Purple_Plus_Chess_3.jpg,Green_Circle_Grid_4.jpg,right,821.2700000149198,false,low,false
cJHt1BIA,3dzkabx20liukfefnqxhosng7x6cv3,3dl65mzb8hsf5oqnj2d9d8vlt2jceo,cJHt1BIA,2020-0188,2020-05-21,21:11:52,21:31:19,NA,incomplete,141,color,1,right,Red_Plus_Chess_4.jpg,Purple_Circle_Stripes_4.jpg,Red_Triangle_Grid_3.jpg,left,896.7249999986961,false,low,false
cJHt1BIA,3dzkabx20liukfefnqxhosng7x6cv3,3dl65mzb8hsf5oqnj2d9d8vlt2jceo,cJHt1BIA,2020-0188,2020-05-21,21:11:52,21:31:19,NA,incomplete,142,color,1,left,Green_Circle_Stripes_2.jpg,Green_Star_Dots_3.jpg,Purple_Triangle_Grid_2.jpg,right,929.0749999927357,false,low,false
cJHt1BIA,3dzkabx20liukfefnqxhosng7x6cv3,3dl65mzb8hsf5oqnj2d9d8vlt2jceo,cJHt1BIA,2020-0188,2020-05-21,21:11:52,21:31:19,NA,incomplete,143,color,1,left,Red_Star_Chess_3.jpg,Red_Circle_Dots_1.jpg,Purple_Plus_Grid_3.jpg,left,1120.7200000062585,true,low,false
cJHt1BIA,3dzkabx20liukfefnqxhosng7x6cv3,3dl65mzb8hsf5oqnj2d9d8vlt2jceo,cJHt1BIA,2020-0188,2020-05-21,21:11:52,21:31:19,NA,incomplete,144,color,1,left,Purple_Triangle_Grid_1.jpg,Purple_Circle_Dots_2.jpg,Green_Plus_Stripes_1.jpg,left,655.590000009397,true,low,false
cJHt1BIA,3dzkabx20liukfefnqxhosng7x6cv3,3dl65mzb8hsf5oqnj2d9d8vlt2jceo,cJHt1BIA,2020-0188,2020-05-21,21:11:52,21:31:19,NA,incomplete,145,color,0,left,Green_Star_Stripes_3.jpg,Green_Circle_Dots_1.jpg,Red_Plus_Grid_3.jpg,left,880.8650000137277,true,low,false
cJHt1BIA,3dzkabx20liukfefnqxhosng7x6cv3,3dl65mzb8hsf5oqnj2d9d8vlt2jceo,cJHt1BIA,2020-0188,2020-05-21,21:11:52,21:31:19,NA,incomplete,146,color,1,right,Purple_Plus_Stripes_4.jpg,Red_Triangle_Dots_4.jpg,Purple_Star_Chess_2.jpg,right,747.2800000105053,true,low,false
cJHt1BIA,3dzkabx20liukfefnqxhosng7x6cv3,3dl65mzb8hsf5oqnj2d9d8vlt2jceo,cJHt1BIA,2020-0188,2020-05-21,21:11:52,21:31:19,NA,incomplete,147,color,1,left,Red_Plus_Chess_4.jpg,Red_Circle_Dots_3.jpg,Green_Triangle_Stripes_4.jpg,left,794.2499999771826,true,low,false
cJHt1BIA,3dzkabx20liukfefnqxhosng7x6cv3,3dl65mzb8hsf5oqnj2d9d8vlt2jceo,cJHt1BIA,2020-0188,2020-05-21,21:11:52,21:31:19,NA,incomplete,148,color,1,left,Purple_Star_Dots_3.jpg,Purple_Plus_Grid_1.jpg,Green_Circle_Stripes_3.jpg,left,790.1600000041071,true,low,false
cJHt1BIA,3dzkabx20liukfefnqxhosng7x6cv3,3dl65mzb8hsf5oqnj2d9d8vlt2jceo,cJHt1BIA,2020-0188,2020-05-21,21:11:52,21:31:19,NA,incomplete,149,color,0,right,Green_Circle_Chess_3.jpg,Red_Star_Dots_3.jpg,Green_Plus_Stripes_2.jpg,right,723.5900000086986,true,low,false
cJHt1BIA,3dzkabx20liukfefnqxhosng7x6cv3,3dl65mzb8hsf5oqnj2d9d8vlt2jceo,cJHt1BIA,2020-0188,2020-05-21,21:11:52,21:31:19,NA,incomplete,150,color,1,left,Purple_Plus_Grid_4.jpg,Purple_Circle_Dots_1.jpg,Green_Star_Chess_4.jpg,left,738.4000000020023,true,low,false
cJHt1BIA,3dzkabx20liukfefnqxhosng7x6cv3,3dl65mzb8hsf5oqnj2d9d8vlt2jceo,cJHt1BIA,2020-0188,2020-05-21,21:11:52,21:31:19,NA,incomplete,151,color,1,left,Green_Circle_Dots_1.jpg,Green_Triangle_Chess_3.jpg,Red_Star_Stripes_1.jpg,left,744.7649999812711,true,low,false
cJHt1BIA,3dzkabx20liukfefnqxhosng7x6cv3,3dl65mzb8hsf5oqnj2d9d8vlt2jceo,cJHt1BIA,2020-0188,2020-05-21,21:11:52,21:31:19,NA,incomplete,152,color,0,right,Blue_Plus_Chess_3.jpg,Green_Circle_Grid_3.jpg,Blue_Triangle_Stripes_4.jpg,right,752.4299999931827,true,low,false
cJHt1BIA,3dzkabx20liukfefnqxhosng7x6cv3,3dl65mzb8hsf5oqnj2d9d8vlt2jceo,cJHt1BIA,2020-0188,2020-05-21,21:11:52,21:31:19,NA,incomplete,153,color,1,right,Green_Circle_Dots_4.jpg,Blue_Star_Grid_4.jpg,Green_Triangle_Chess_2.jpg,right,765.7249999756459,true,low,false
cJHt1BIA,3dzkabx20liukfefnqxhosng7x6cv3,3dl65mzb8hsf5oqnj2d9d8vlt2jceo,cJHt1BIA,2020-0188,2020-05-21,21:11:52,21:31:19,NA,incomplete,154,color,1,right,Red_Plus_Stripes_2.jpg,Blue_Star_Dots_2.jpg,Red_Triangle_Chess_3.jpg,right,715.9649999812245,true,low,false
cJHt1BIA,3dzkabx20liukfefnqxhosng7x6cv3,3dl65mzb8hsf5oqnj2d9d8vlt2jceo,cJHt1BIA,2020-0188,2020-05-21,21:11:52,21:31:19,NA,incomplete,155,color,0,right,Purple_Circle_Dots_1.jpg,Green_Star_Chess_1.jpg,Purple_Triangle_Stripes_2.jpg,right,707.8849999816157,true,low,false
cJHt1BIA,3dzkabx20liukfefnqxhosng7x6cv3,3dl65mzb8hsf5oqnj2d9d8vlt2jceo,cJHt1BIA,2020-0188,2020-05-21,21:11:52,21:31:19,NA,incomplete,156,color,1,right,Purple_Triangle_Stripes_3.jpg,Red_Circle_Grid_3.jpg,Purple_Star_Chess_1.jpg,right,764.1549999825656,true,low,false
cJHt1BIA,3dzkabx20liukfefnqxhosng7x6cv3,3dl65mzb8hsf5oqnj2d9d8vlt2jceo,cJHt1BIA,2020-0188,2020-05-21,21:11:52,21:31:19,NA,incomplete,157,color,0,left,Green_Triangle_Dots_1.jpg,Green_Circle_Stripes_3.jpg,Blue_Star_Chess_1.jpg,left,657.4949999921955,true,low,false
cJHt1BIA,3dzkabx20liukfefnqxhosng7x6cv3,3dl65mzb8hsf5oqnj2d9d8vlt2jceo,cJHt1BIA,2020-0188,2020-05-21,21:11:52,21:31:19,NA,incomplete,158,color,1,right,Red_Plus_Stripes_4.jpg,Green_Star_Dots_4.jpg,Red_Circle_Grid_1.jpg,right,579.9550000228919,true,low,false
cJHt1BIA,3dzkabx20liukfefnqxhosng7x6cv3,3dl65mzb8hsf5oqnj2d9d8vlt2jceo,cJHt1BIA,2020-0188,2020-05-21,21:11:52,21:31:19,NA,incomplete,159,color,0,left,Red_Star_Chess_4.jpg,Red_Circle_Dots_3.jpg,Green_Triangle_Grid_4.jpg,left,793.21499998332,true,low,false
cJHt1BIA,3dzkabx20liukfefnqxhosng7x6cv3,3dl65mzb8hsf5oqnj2d9d8vlt2jceo,cJHt1BIA,2020-0188,2020-05-21,21:11:52,21:31:19,NA,incomplete,160,number,1,left,Purple_Star_Dots_4.jpg,Red_Triangle_Chess_4.jpg,Purple_Circle_Stripes_2.jpg,right,638.1000000110362,false,low,false
cJHt1BIA,3dzkabx20liukfefnqxhosng7x6cv3,3dl65mzb8hsf5oqnj2d9d8vlt2jceo,cJHt1BIA,2020-0188,2020-05-21,21:11:52,21:31:19,NA,incomplete,161,number,1,right,Green_Plus_Dots_1.jpg,Green_Triangle_Stripes_4.jpg,Blue_Circle_Grid_1.jpg,left,672.9099999938626,false,low,false
cJHt1BIA,3dzkabx20liukfefnqxhosng7x6cv3,3dl65mzb8hsf5oqnj2d9d8vlt2jceo,cJHt1BIA,2020-0188,2020-05-21,21:11:52,21:31:19,NA,incomplete,162,number,1,left,Green_Circle_Stripes_1.jpg,Red_Star_Grid_1.jpg,Green_Triangle_Dots_4.jpg,left,889.1950000252109,true,low,false
cJHt1BIA,3dzkabx20liukfefnqxhosng7x6cv3,3dl65mzb8hsf5oqnj2d9d8vlt2jceo,cJHt1BIA,2020-0188,2020-05-21,21:11:52,21:31:19,NA,incomplete,163,number,1,left,Red_Plus_Stripes_1.jpg,Purple_Circle_Dots_1.jpg,Red_Triangle_Grid_2.jpg,left,794.1899999859743,true,low,false
cJHt1BIA,3dzkabx20liukfefnqxhosng7x6cv3,3dl65mzb8hsf5oqnj2d9d8vlt2jceo,cJHt1BIA,2020-0188,2020-05-21,21:11:52,21:31:19,NA,incomplete,164,number,1,right,Green_Triangle_Stripes_1.jpg,Green_Plus_Chess_3.jpg,Blue_Circle_Dots_1.jpg,right,614.2850000178441,true,low,false
cJHt1BIA,3dzkabx20liukfefnqxhosng7x6cv3,3dl65mzb8hsf5oqnj2d9d8vlt2jceo,cJHt1BIA,2020-0188,2020-05-21,21:11:52,21:31:19,NA,incomplete,165,number,0,right,Purple_Star_Dots_4.jpg,Purple_Triangle_Grid_3.jpg,Green_Circle_Stripes_4.jpg,right,784.9400000122841,true,low,false
cJHt1BIA,3dzkabx20liukfefnqxhosng7x6cv3,3dl65mzb8hsf5oqnj2d9d8vlt2jceo,cJHt1BIA,2020-0188,2020-05-21,21:11:52,21:31:19,NA,incomplete,166,number,1,left,Green_Triangle_Chess_3.jpg,Red_Circle_Grid_3.jpg,Green_Plus_Dots_2.jpg,left,695.8350000204518,true,low,false
cJHt1BIA,3dzkabx20liukfefnqxhosng7x6cv3,3dl65mzb8hsf5oqnj2d9d8vlt2jceo,cJHt1BIA,2020-0188,2020-05-21,21:11:52,21:31:19,NA,incomplete,167,number,1,right,Green_Plus_Stripes_2.jpg,Green_Star_Chess_3.jpg,Blue_Triangle_Grid_2.jpg,right,649.1450000030454,true,low,false
cJHt1BIA,3dzkabx20liukfefnqxhosng7x6cv3,3dl65mzb8hsf5oqnj2d9d8vlt2jceo,cJHt1BIA,2020-0188,2020-05-21,21:11:52,21:31:19,NA,incomplete,168,number,1,left,Purple_Star_Stripes_1.jpg,Blue_Plus_Dots_1.jpg,Purple_Triangle_Chess_3.jpg,left,635.2550000010524,true,low,false
cJHt1BIA,3dzkabx20liukfefnqxhosng7x6cv3,3dl65mzb8hsf5oqnj2d9d8vlt2jceo,cJHt1BIA,2020-0188,2020-05-21,21:11:52,21:31:19,NA,incomplete,169,number,0,right,Red_Plus_Grid_3.jpg,Red_Star_Dots_2.jpg,Purple_Triangle_Stripes_3.jpg,right,838.1850000005215,true,low,false
cJHt1BIA,3dzkabx20liukfefnqxhosng7x6cv3,3dl65mzb8hsf5oqnj2d9d8vlt2jceo,cJHt1BIA,2020-0188,2020-05-21,21:11:52,21:31:19,NA,incomplete,170,number,1,right,Blue_Triangle_Stripes_3.jpg,Blue_Plus_Chess_1.jpg,Purple_Circle_Dots_3.jpg,right,737.1500000008382,true,low,false
cJHt1BIA,3dzkabx20liukfefnqxhosng7x6cv3,3dl65mzb8hsf5oqnj2d9d8vlt2jceo,cJHt1BIA,2020-0188,2020-05-21,21:11:52,21:31:19,NA,incomplete,171,number,0,left,Red_Triangle_Stripes_4.jpg,Green_Star_Grid_4.jpg,Red_Circle_Chess_2.jpg,left,695.9400000050664,true,low,false
cJHt1BIA,3dzkabx20liukfefnqxhosng7x6cv3,3dl65mzb8hsf5oqnj2d9d8vlt2jceo,cJHt1BIA,2020-0188,2020-05-21,21:11:52,21:31:19,NA,incomplete,172,number,1,right,Red_Circle_Chess_1.jpg,Red_Plus_Grid_4.jpg,Blue_Triangle_Stripes_1.jpg,right,703.9349999977276,true,low,false
cJHt1BIA,3dzkabx20liukfefnqxhosng7x6cv3,3dl65mzb8hsf5oqnj2d9d8vlt2jceo,cJHt1BIA,2020-0188,2020-05-21,21:11:52,21:31:19,NA,incomplete,173,number,1,left,Purple_Circle_Grid_3.jpg,Red_Plus_Chess_3.jpg,Purple_Triangle_Stripes_1.jpg,left,672.0849999983329,true,low,false
cJHt1BIA,3dzkabx20liukfefnqxhosng7x6cv3,3dl65mzb8hsf5oqnj2d9d8vlt2jceo,cJHt1BIA,2020-0188,2020-05-21,21:11:52,21:31:19,NA,incomplete,174,number,1,right,Blue_Triangle_Dots_1.jpg,Blue_Plus_Chess_3.jpg,Red_Star_Grid_1.jpg,right,648.6849999928381,true,low,false
cJHt1BIA,3dzkabx20liukfefnqxhosng7x6cv3,3dl65mzb8hsf5oqnj2d9d8vlt2jceo,cJHt1BIA,2020-0188,2020-05-21,21:11:52,21:31:19,NA,incomplete,175,number,1,left,Blue_Circle_Stripes_4.jpg,Green_Triangle_Dots_4.jpg,Blue_Star_Chess_3.jpg,left,651.5499999804888,true,low,false
cJHt1BIA,3dzkabx20liukfefnqxhosng7x6cv3,3dl65mzb8hsf5oqnj2d9d8vlt2jceo,cJHt1BIA,2020-0188,2020-05-21,21:11:52,21:31:19,NA,incomplete,176,number,0,right,Red_Triangle_Chess_4.jpg,Red_Star_Dots_2.jpg,Purple_Plus_Grid_4.jpg,right,606.4600000099745,true,low,false
cJHt1BIA,3dzkabx20liukfefnqxhosng7x6cv3,3dl65mzb8hsf5oqnj2d9d8vlt2jceo,cJHt1BIA,2020-0188,2020-05-21,21:11:52,21:31:19,NA,incomplete,177,number,1,right,Blue_Star_Stripes_3.jpg,Blue_Circle_Grid_2.jpg,Green_Triangle_Chess_3.jpg,right,1241.3749999832362,true,low,false
cJHt1BIA,3dzkabx20liukfefnqxhosng7x6cv3,3dl65mzb8hsf5oqnj2d9d8vlt2jceo,cJHt1BIA,2020-0188,2020-05-21,21:11:52,21:31:19,NA,incomplete,178,number,1,left,Green_Triangle_Chess_1.jpg,Blue_Circle_Dots_1.jpg,Green_Star_Stripes_4.jpg,left,804.5500000007451,true,low,false
cJHt1BIA,3dzkabx20liukfefnqxhosng7x6cv3,3dl65mzb8hsf5oqnj2d9d8vlt2jceo,cJHt1BIA,2020-0188,2020-05-21,21:11:52,21:31:19,NA,incomplete,179,number,1,left,Red_Star_Stripes_4.jpg,Blue_Plus_Chess_4.jpg,Red_Circle_Dots_3.jpg,left,728.6000000021886,true,low,false
cJHt1BIA,3dzkabx20liukfefnqxhosng7x6cv3,3dl65mzb8hsf5oqnj2d9d8vlt2jceo,cJHt1BIA,2020-0188,2020-05-21,21:11:52,21:31:19,NA,incomplete,180,color,1,right,Blue_Circle_Chess_1.jpg,Red_Star_Dots_1.jpg,Blue_Plus_Stripes_4.jpg,left,728.3499999903142,false,low,false
cJHt1BIA,3dzkabx20liukfefnqxhosng7x6cv3,3dl65mzb8hsf5oqnj2d9d8vlt2jceo,cJHt1BIA,2020-0188,2020-05-21,21:11:52,21:31:19,NA,incomplete,181,color,1,left,Red_Plus_Dots_4.jpg,Red_Star_Grid_3.jpg,Purple_Triangle_Chess_4.jpg,right,759.5100000035018,false,low,false
cJHt1BIA,3dzkabx20liukfefnqxhosng7x6cv3,3dl65mzb8hsf5oqnj2d9d8vlt2jceo,cJHt1BIA,2020-0188,2020-05-21,21:11:52,21:31:19,NA,incomplete,182,color,1,left,Blue_Plus_Chess_4.jpg,Blue_Star_Dots_3.jpg,Red_Triangle_Grid_4.jpg,right,966.004999994766,false,low,false
cJHt1BIA,3dzkabx20liukfefnqxhosng7x6cv3,3dl65mzb8hsf5oqnj2d9d8vlt2jceo,cJHt1BIA,2020-0188,2020-05-21,21:11:52,21:31:19,NA,incomplete,183,color,1,right,Blue_Star_Stripes_2.jpg,Red_Circle_Chess_2.jpg,Blue_Triangle_Grid_1.jpg,right,587.5400000077207,true,low,false
cJHt1BIA,3dzkabx20liukfefnqxhosng7x6cv3,3dl65mzb8hsf5oqnj2d9d8vlt2jceo,cJHt1BIA,2020-0188,2020-05-21,21:11:52,21:31:19,NA,incomplete,184,color,1,left,Red_Star_Grid_1.jpg,Red_Triangle_Stripes_3.jpg,Blue_Plus_Chess_1.jpg,left,983.7100000004284,true,low,false
cJHt1BIA,3dzkabx20liukfefnqxhosng7x6cv3,3dl65mzb8hsf5oqnj2d9d8vlt2jceo,cJHt1BIA,2020-0188,2020-05-21,21:11:52,21:31:19,NA,incomplete,185,color,0,right,Red_Star_Dots_2.jpg,Blue_Triangle_Chess_2.jpg,Red_Plus_Grid_3.jpg,right,1069.0499999909662,true,low,false
cJHt1BIA,3dzkabx20liukfefnqxhosng7x6cv3,3dl65mzb8hsf5oqnj2d9d8vlt2jceo,cJHt1BIA,2020-0188,2020-05-21,21:11:52,21:31:19,NA,incomplete,186,color,1,left,Green_Plus_Stripes_2.jpg,Green_Triangle_Dots_1.jpg,Blue_Circle_Grid_2.jpg,left,709.869999991497,true,low,false
cJHt1BIA,3dzkabx20liukfefnqxhosng7x6cv3,3dl65mzb8hsf5oqnj2d9d8vlt2jceo,cJHt1BIA,2020-0188,2020-05-21,21:11:52,21:31:19,NA,incomplete,187,color,1,right,Red_Triangle_Stripes_1.jpg,Blue_Plus_Dots_1.jpg,Red_Star_Chess_4.jpg,right,885.7149999821559,true,low,false
cJHt1BIA,3dzkabx20liukfefnqxhosng7x6cv3,3dl65mzb8hsf5oqnj2d9d8vlt2jceo,cJHt1BIA,2020-0188,2020-05-21,21:11:52,21:31:19,NA,incomplete,188,color,1,left,Red_Star_Chess_2.jpg,Red_Triangle_Dots_1.jpg,Blue_Circle_Stripes_2.jpg,right,799.139999988256,false,low,false
cJHt1BIA,3dzkabx20liukfefnqxhosng7x6cv3,3dl65mzb8hsf5oqnj2d9d8vlt2jceo,cJHt1BIA,2020-0188,2020-05-21,21:11:52,21:31:19,NA,incomplete,189,color,0,right,Blue_Triangle_Stripes_4.jpg,Green_Plus_Grid_4.jpg,Blue_Star_Chess_1.jpg,right,1093.1750000163447,true,low,false
cJHt1BIA,3dzkabx20liukfefnqxhosng7x6cv3,3dl65mzb8hsf5oqnj2d9d8vlt2jceo,cJHt1BIA,2020-0188,2020-05-21,21:11:52,21:31:19,NA,incomplete,190,color,1,right,Purple_Triangle_Dots_1.jpg,Red_Star_Grid_1.jpg,Purple_Circle_Chess_3.jpg,right,1028.1050000048708,true,low,false
cJHt1BIA,3dzkabx20liukfefnqxhosng7x6cv3,3dl65mzb8hsf5oqnj2d9d8vlt2jceo,cJHt1BIA,2020-0188,2020-05-21,21:11:52,21:31:19,NA,incomplete,191,color,1,left,Purple_Star_Grid_1.jpg,Purple_Plus_Dots_2.jpg,Red_Triangle_Chess_1.jpg,left,799.2050000175368,true,low,false
cJHt1BIA,3dzkabx20liukfefnqxhosng7x6cv3,3dl65mzb8hsf5oqnj2d9d8vlt2jceo,cJHt1BIA,2020-0188,2020-05-21,21:11:52,21:31:19,NA,incomplete,192,color,1,left,Red_Plus_Dots_1.jpg,Red_Triangle_Stripes_2.jpg,Purple_Circle_Grid_1.jpg,left,780.2149999770336,true,low,false
cJHt1BIA,3dzkabx20liukfefnqxhosng7x6cv3,3dl65mzb8hsf5oqnj2d9d8vlt2jceo,cJHt1BIA,2020-0188,2020-05-21,21:11:52,21:31:19,NA,incomplete,193,color,1,right,Blue_Circle_Chess_4.jpg,Purple_Triangle_Dots_4.jpg,Blue_Star_Grid_3.jpg,right,809.7349999879953,true,low,false
cJHt1BIA,3dzkabx20liukfefnqxhosng7x6cv3,3dl65mzb8hsf5oqnj2d9d8vlt2jceo,cJHt1BIA,2020-0188,2020-05-21,21:11:52,21:31:19,NA,incomplete,194,color,0,right,Purple_Plus_Chess_1.jpg,Red_Star_Dots_1.jpg,Purple_Triangle_Grid_2.jpg,right,836.9999999995343,true,low,false
cJHt1BIA,3dzkabx20liukfefnqxhosng7x6cv3,3dl65mzb8hsf5oqnj2d9d8vlt2jceo,cJHt1BIA,2020-0188,2020-05-21,21:11:52,21:31:19,NA,incomplete,195,color,1,right,Red_Star_Grid_1.jpg,Blue_Plus_Stripes_1.jpg,Red_Triangle_Chess_3.jpg,right,775.4349999886472,true,low,false
cJHt1BIA,3dzkabx20liukfefnqxhosng7x6cv3,3dl65mzb8hsf5oqnj2d9d8vlt2jceo,cJHt1BIA,2020-0188,2020-05-21,21:11:52,21:31:19,NA,incomplete,196,color,1,right,Green_Circle_Grid_4.jpg,Blue_Plus_Stripes_4.jpg,Green_Star_Chess_1.jpg,right,806.3350000011269,true,low,false
cJHt1BIA,3dzkabx20liukfefnqxhosng7x6cv3,3dl65mzb8hsf5oqnj2d9d8vlt2jceo,cJHt1BIA,2020-0188,2020-05-21,21:11:52,21:31:19,NA,incomplete,197,color,1,left,Red_Circle_Grid_2.jpg,Red_Star_Stripes_1.jpg,Purple_Triangle_Chess_2.jpg,left,705.8200000028592,true,low,false
cJHt1BIA,3dzkabx20liukfefnqxhosng7x6cv3,3dl65mzb8hsf5oqnj2d9d8vlt2jceo,cJHt1BIA,2020-0188,2020-05-21,21:11:52,21:31:19,NA,incomplete,198,color,1,right,Red_Circle_Grid_1.jpg,Blue_Star_Stripes_1.jpg,Red_Triangle_Dots_2.jpg,right,697.1550000016578,true,low,false
cJHt1BIA,3dzkabx20liukfefnqxhosng7x6cv3,3dl65mzb8hsf5oqnj2d9d8vlt2jceo,cJHt1BIA,2020-0188,2020-05-21,21:11:52,21:31:19,NA,incomplete,199,color,1,left,Blue_Circle_Grid_2.jpg,Blue_Triangle_Stripes_3.jpg,Red_Star_Dots_2.jpg,left,738.3750000153668,true,low,false
cJHt1BIA,3dzkabx20liukfefnqxhosng7x6cv3,3dl65mzb8hsf5oqnj2d9d8vlt2jceo,cJHt1BIA,2020-0188,2020-05-21,21:11:52,21:31:19,NA,incomplete,200,number,1,right,Blue_Plus_Chess_3.jpg,Blue_Triangle_Grid_2.jpg,Purple_Circle_Dots_3.jpg,left,752.344999986235,false,low,false
cJHt1BIA,3dzkabx20liukfefnqxhosng7x6cv3,3dl65mzb8hsf5oqnj2d9d8vlt2jceo,cJHt1BIA,2020-0188,2020-05-21,21:11:52,21:31:19,NA,incomplete,201,number,1,right,Purple_Circle_Dots_2.jpg,Purple_Triangle_Grid_3.jpg,Green_Plus_Stripes_2.jpg,left,854.6999999962281,false,low,false
cJHt1BIA,3dzkabx20liukfefnqxhosng7x6cv3,3dl65mzb8hsf5oqnj2d9d8vlt2jceo,cJHt1BIA,2020-0188,2020-05-21,21:11:52,21:31:19,NA,incomplete,202,number,1,left,Purple_Star_Stripes_2.jpg,Red_Circle_Grid_2.jpg,Purple_Plus_Dots_1.jpg,right,760.3200000012293,false,low,false
cJHt1BIA,3dzkabx20liukfefnqxhosng7x6cv3,3dl65mzb8hsf5oqnj2d9d8vlt2jceo,cJHt1BIA,2020-0188,2020-05-21,21:11:52,21:31:19,NA,incomplete,203,number,1,right,Red_Triangle_Stripes_4.jpg,Red_Plus_Grid_1.jpg,Purple_Star_Dots_4.jpg,right,823.1399999931455,true,low,false
cJHt1BIA,3dzkabx20liukfefnqxhosng7x6cv3,3dl65mzb8hsf5oqnj2d9d8vlt2jceo,cJHt1BIA,2020-0188,2020-05-21,21:11:52,21:31:19,NA,incomplete,204,number,1,right,Red_Plus_Dots_1.jpg,Red_Star_Stripes_3.jpg,Blue_Circle_Grid_1.jpg,right,970.0900000170805,true,low,false
cJHt1BIA,3dzkabx20liukfefnqxhosng7x6cv3,3dl65mzb8hsf5oqnj2d9d8vlt2jceo,cJHt1BIA,2020-0188,2020-05-21,21:11:52,21:31:19,NA,incomplete,205,number,0,right,Red_Plus_Chess_4.jpg,Red_Circle_Stripes_3.jpg,Purple_Triangle_Dots_4.jpg,right,1119.8049999948125,true,low,false
cJHt1BIA,3dzkabx20liukfefnqxhosng7x6cv3,3dl65mzb8hsf5oqnj2d9d8vlt2jceo,cJHt1BIA,2020-0188,2020-05-21,21:11:52,21:31:19,NA,incomplete,206,number,1,left,Purple_Circle_Grid_1.jpg,Red_Plus_Chess_1.jpg,Purple_Triangle_Stripes_3.jpg,left,757.5450000003912,true,low,false
cJHt1BIA,3dzkabx20liukfefnqxhosng7x6cv3,3dl65mzb8hsf5oqnj2d9d8vlt2jceo,cJHt1BIA,2020-0188,2020-05-21,21:11:52,21:31:19,NA,incomplete,207,number,1,left,Green_Plus_Dots_4.jpg,Red_Circle_Grid_4.jpg,Green_Triangle_Stripes_2.jpg,left,772.5900000077672,true,low,false
cJHt1BIA,3dzkabx20liukfefnqxhosng7x6cv3,3dl65mzb8hsf5oqnj2d9d8vlt2jceo,cJHt1BIA,2020-0188,2020-05-21,21:11:52,21:31:19,NA,incomplete,208,number,1,left,Green_Triangle_Grid_2.jpg,Purple_Star_Chess_2.jpg,Green_Plus_Dots_4.jpg,left,785.6049999827519,true,low,false
cJHt1BIA,3dzkabx20liukfefnqxhosng7x6cv3,3dl65mzb8hsf5oqnj2d9d8vlt2jceo,cJHt1BIA,2020-0188,2020-05-21,21:11:52,21:31:19,NA,incomplete,209,number,1,right,Green_Triangle_Dots_1.jpg,Green_Plus_Chess_4.jpg,Blue_Circle_Grid_1.jpg,right,926.2899999739602,true,low,false
cJHt1BIA,3dzkabx20liukfefnqxhosng7x6cv3,3dl65mzb8hsf5oqnj2d9d8vlt2jceo,cJHt1BIA,2020-0188,2020-05-21,21:11:52,21:31:19,NA,incomplete,210,number,1,right,Purple_Triangle_Stripes_2.jpg,Purple_Plus_Grid_1.jpg,Blue_Circle_Dots_2.jpg,right,1149.860000004992,true,low,false
cJHt1BIA,3dzkabx20liukfefnqxhosng7x6cv3,3dl65mzb8hsf5oqnj2d9d8vlt2jceo,cJHt1BIA,2020-0188,2020-05-21,21:11:52,21:31:19,NA,incomplete,211,number,1,left,Red_Triangle_Stripes_2.jpg,Purple_Star_Chess_2.jpg,Red_Plus_Dots_3.jpg,left,812.4700000043958,true,low,false
cJHt1BIA,3dzkabx20liukfefnqxhosng7x6cv3,3dl65mzb8hsf5oqnj2d9d8vlt2jceo,cJHt1BIA,2020-0188,2020-05-21,21:11:52,21:31:19,NA,incomplete,212,number,1,left,Red_Plus_Grid_4.jpg,Blue_Circle_Stripes_4.jpg,Red_Triangle_Chess_1.jpg,left,720.9100000036415,true,low,false
cJHt1BIA,3dzkabx20liukfefnqxhosng7x6cv3,3dl65mzb8hsf5oqnj2d9d8vlt2jceo,cJHt1BIA,2020-0188,2020-05-21,21:11:52,21:31:19,NA,incomplete,213,number,1,right,Red_Circle_Dots_3.jpg,Red_Triangle_Stripes_2.jpg,Green_Plus_Grid_3.jpg,right,831.449999997858,true,low,false
cJHt1BIA,3dzkabx20liukfefnqxhosng7x6cv3,3dl65mzb8hsf5oqnj2d9d8vlt2jceo,cJHt1BIA,2020-0188,2020-05-21,21:11:52,21:31:19,NA,incomplete,214,number,1,left,Red_Circle_Stripes_2.jpg,Green_Plus_Chess_2.jpg,Red_Triangle_Dots_3.jpg,left,827.5299999804702,true,low,false
cJHt1BIA,3dzkabx20liukfefnqxhosng7x6cv3,3dl65mzb8hsf5oqnj2d9d8vlt2jceo,cJHt1BIA,2020-0188,2020-05-21,21:11:52,21:31:19,NA,incomplete,215,number,1,right,Green_Star_Chess_4.jpg,Green_Circle_Stripes_2.jpg,Red_Triangle_Grid_4.jpg,right,831.8900000012945,true,low,false
cJHt1BIA,3dzkabx20liukfefnqxhosng7x6cv3,3dl65mzb8hsf5oqnj2d9d8vlt2jceo,cJHt1BIA,2020-0188,2020-05-21,21:11:52,21:31:19,NA,incomplete,216,number,1,left,Purple_Plus_Dots_1.jpg,Blue_Star_Grid_1.jpg,Purple_Triangle_Chess_2.jpg,left,898.0549999978393,true,low,false
cJHt1BIA,3dzkabx20liukfefnqxhosng7x6cv3,3dl65mzb8hsf5oqnj2d9d8vlt2jceo,cJHt1BIA,2020-0188,2020-05-21,21:11:52,21:31:19,NA,incomplete,217,number,1,right,Green_Circle_Dots_1.jpg,Green_Star_Chess_3.jpg,Purple_Triangle_Grid_1.jpg,right,835.1200000033714,true,low,false
cJHt1BIA,3dzkabx20liukfefnqxhosng7x6cv3,3dl65mzb8hsf5oqnj2d9d8vlt2jceo,cJHt1BIA,2020-0188,2020-05-21,21:11:52,21:31:19,NA,incomplete,218,number,1,left,Purple_Star_Chess_3.jpg,Red_Plus_Dots_3.jpg,Purple_Circle_Stripes_1.jpg,left,829.4800000148825,true,low,false
cJHt1BIA,3dzkabx20liukfefnqxhosng7x6cv3,3dl65mzb8hsf5oqnj2d9d8vlt2jceo,cJHt1BIA,2020-0188,2020-05-21,21:11:52,21:31:19,NA,incomplete,219,number,0,left,Green_Circle_Chess_1.jpg,Blue_Triangle_Grid_1.jpg,Green_Star_Dots_4.jpg,left,800.2500000002328,true,low,false
cJHt1BIA,3dzkabx20liukfefnqxhosng7x6cv3,3dl65mzb8hsf5oqnj2d9d8vlt2jceo,cJHt1BIA,2020-0188,2020-05-21,21:11:52,21:31:19,NA,incomplete,220,color,1,right,Red_Plus_Grid_2.jpg,Green_Star_Chess_2.jpg,Red_Triangle_Dots_1.jpg,left,916.9350000156555,false,low,false
cJHt1BIA,3dzkabx20liukfefnqxhosng7x6cv3,3dl65mzb8hsf5oqnj2d9d8vlt2jceo,cJHt1BIA,2020-0188,2020-05-21,21:11:52,21:31:19,NA,incomplete,221,color,1,right,Purple_Star_Chess_3.jpg,Blue_Triangle_Dots_3.jpg,Purple_Plus_Grid_2.jpg,right,1148.749999993015,true,low,false
cJHt1BIA,3dzkabx20liukfefnqxhosng7x6cv3,3dl65mzb8hsf5oqnj2d9d8vlt2jceo,cJHt1BIA,2020-0188,2020-05-21,21:11:52,21:31:19,NA,incomplete,222,color,1,right,Green_Triangle_Grid_2.jpg,Blue_Plus_Chess_2.jpg,Green_Star_Stripes_4.jpg,right,1306.6099999996368,true,low,false
cJHt1BIA,3dzkabx20liukfefnqxhosng7x6cv3,3dl65mzb8hsf5oqnj2d9d8vlt2jceo,cJHt1BIA,2020-0188,2020-05-21,21:11:52,21:31:19,NA,incomplete,223,color,0,right,Blue_Plus_Stripes_1.jpg,Red_Circle_Grid_1.jpg,Blue_Star_Chess_2.jpg,right,963.4399999922607,true,low,false
cJHt1BIA,3dzkabx20liukfefnqxhosng7x6cv3,3dl65mzb8hsf5oqnj2d9d8vlt2jceo,cJHt1BIA,2020-0188,2020-05-21,21:11:52,21:31:19,NA,incomplete,224,color,1,right,Green_Plus_Chess_3.jpg,Red_Circle_Stripes_3.jpg,Green_Triangle_Grid_2.jpg,right,889.6750000130851,true,low,false
cJHt1BIA,3dzkabx20liukfefnqxhosng7x6cv3,3dl65mzb8hsf5oqnj2d9d8vlt2jceo,cJHt1BIA,2020-0188,2020-05-21,21:11:52,21:31:19,NA,incomplete,225,color,0,right,Purple_Plus_Grid_2.jpg,Blue_Triangle_Stripes_2.jpg,Purple_Star_Chess_3.jpg,right,873.7350000010338,true,low,false
cJHt1BIA,3dzkabx20liukfefnqxhosng7x6cv3,3dl65mzb8hsf5oqnj2d9d8vlt2jceo,cJHt1BIA,2020-0188,2020-05-21,21:11:52,21:31:19,NA,incomplete,226,color,1,right,Purple_Plus_Dots_1.jpg,Red_Triangle_Chess_1.jpg,Purple_Circle_Stripes_3.jpg,right,779.2550000012852,true,low,false
cJHt1BIA,3dzkabx20liukfefnqxhosng7x6cv3,3dl65mzb8hsf5oqnj2d9d8vlt2jceo,cJHt1BIA,2020-0188,2020-05-21,21:11:52,21:31:19,NA,incomplete,227,color,1,left,Purple_Plus_Grid_4.jpg,Purple_Star_Stripes_3.jpg,Blue_Triangle_Dots_4.jpg,left,992.919999989681,true,low,false
cJHt1BIA,3dzkabx20liukfefnqxhosng7x6cv3,3dl65mzb8hsf5oqnj2d9d8vlt2jceo,cJHt1BIA,2020-0188,2020-05-21,21:11:52,21:31:19,NA,incomplete,228,color,1,left,Blue_Star_Dots_2.jpg,Blue_Circle_Stripes_3.jpg,Green_Plus_Grid_2.jpg,left,1054.119999986142,true,low,false
cJHt1BIA,3dzkabx20liukfefnqxhosng7x6cv3,3dl65mzb8hsf5oqnj2d9d8vlt2jceo,cJHt1BIA,2020-0188,2020-05-21,21:11:52,21:31:19,NA,incomplete,229,color,1,left,Green_Circle_Grid_1.jpg,Green_Star_Dots_4.jpg,Purple_Plus_Chess_1.jpg,left,807.2749999992084,true,low,false
cJHt1BIA,3dzkabx20liukfefnqxhosng7x6cv3,3dl65mzb8hsf5oqnj2d9d8vlt2jceo,cJHt1BIA,2020-0188,2020-05-21,21:11:52,21:31:19,NA,incomplete,230,color,1,right,Red_Star_Chess_4.jpg,Purple_Plus_Grid_4.jpg,Red_Circle_Stripes_3.jpg,right,947.1599999815226,true,low,false
cJHt1BIA,3dzkabx20liukfefnqxhosng7x6cv3,3dl65mzb8hsf5oqnj2d9d8vlt2jceo,cJHt1BIA,2020-0188,2020-05-21,21:11:52,21:31:19,NA,incomplete,231,color,0,left,Red_Triangle_Dots_4.jpg,Red_Circle_Grid_2.jpg,Purple_Plus_Stripes_4.jpg,left,850.4700000048615,true,low,false
cJHt1BIA,3dzkabx20liukfefnqxhosng7x6cv3,3dl65mzb8hsf5oqnj2d9d8vlt2jceo,cJHt1BIA,2020-0188,2020-05-21,21:11:52,21:31:19,NA,incomplete,232,color,1,right,Blue_Plus_Grid_3.jpg,Red_Circle_Chess_3.jpg,Blue_Star_Stripes_2.jpg,right,757.3499999998603,true,low,false
cJHt1BIA,3dzkabx20liukfefnqxhosng7x6cv3,3dl65mzb8hsf5oqnj2d9d8vlt2jceo,cJHt1BIA,2020-0188,2020-05-21,21:11:52,21:31:19,NA,incomplete,233,color,1,right,Blue_Circle_Chess_4.jpg,Red_Triangle_Stripes_4.jpg,Blue_Star_Dots_3.jpg,right,643.1349999911617,true,low,false
cJHt1BIA,3dzkabx20liukfefnqxhosng7x6cv3,3dl65mzb8hsf5oqnj2d9d8vlt2jceo,cJHt1BIA,2020-0188,2020-05-21,21:11:52,21:31:19,NA,incomplete,234,color,1,left,Purple_Star_Grid_4.jpg,Purple_Circle_Stripes_3.jpg,Red_Plus_Chess_4.jpg,left,733.1649999832734,true,low,false
cJHt1BIA,3dzkabx20liukfefnqxhosng7x6cv3,3dl65mzb8hsf5oqnj2d9d8vlt2jceo,cJHt1BIA,2020-0188,2020-05-21,21:11:52,21:31:19,NA,incomplete,235,color,1,left,Blue_Plus_Chess_1.jpg,Blue_Triangle_Dots_2.jpg,Green_Circle_Stripes_1.jpg,left,692.7799999830313,true,low,false
cJHt1BIA,3dzkabx20liukfefnqxhosng7x6cv3,3dl65mzb8hsf5oqnj2d9d8vlt2jceo,cJHt1BIA,2020-0188,2020-05-21,21:11:52,21:31:19,NA,incomplete,236,color,1,right,Blue_Plus_Grid_2.jpg,Red_Star_Dots_2.jpg,Blue_Circle_Stripes_4.jpg,right,621.3949999946635,true,low,false
cJHt1BIA,3dzkabx20liukfefnqxhosng7x6cv3,3dl65mzb8hsf5oqnj2d9d8vlt2jceo,cJHt1BIA,2020-0188,2020-05-21,21:11:52,21:31:19,NA,incomplete,237,color,1,right,Purple_Star_Chess_2.jpg,Green_Circle_Stripes_2.jpg,Purple_Plus_Grid_4.jpg,right,663.8249999959953,true,low,false
cJHt1BIA,3dzkabx20liukfefnqxhosng7x6cv3,3dl65mzb8hsf5oqnj2d9d8vlt2jceo,cJHt1BIA,2020-0188,2020-05-21,21:11:52,21:31:19,NA,incomplete,238,color,1,right,Purple_Triangle_Grid_3.jpg,Red_Star_Chess_3.jpg,Purple_Circle_Stripes_1.jpg,right,770.9299999987707,true,low,false
cJHt1BIA,3dzkabx20liukfefnqxhosng7x6cv3,3dl65mzb8hsf5oqnj2d9d8vlt2jceo,cJHt1BIA,2020-0188,2020-05-21,21:11:52,21:31:19,NA,incomplete,239,color,1,right,Green_Triangle_Grid_4.jpg,Purple_Circle_Stripes_4.jpg,Green_Star_Chess_2.jpg,right,720.3300000110175,true,low,false
cJHt1BIA,3dzkabx20liukfefnqxhosng7x6cv3,3dl65mzb8hsf5oqnj2d9d8vlt2jceo,cJHt1BIA,2020-0188,2020-05-21,21:11:52,21:31:19,NA,NA,instruction example,filling,NA,NA,Purple_Plus_Dots_3.jpg,Blue_Triangle_Dots_4.jpg,Red_Plus_Grid_1.jpg,NA,NA,NA,NA,undefined
cJHt1BIA,3dzkabx20liukfefnqxhosng7x6cv3,3dl65mzb8hsf5oqnj2d9d8vlt2jceo,cJHt1BIA,2020-0188,2020-05-21,21:11:52,21:31:19,NA,NA,instruction example,filling,NA,NA,Blue_Circle_Dots_2.jpg,Red_Circle_Stripes_1.jpg,Green_Star_Dots_3.jpg,NA,NA,NA,NA,undefined
cJHt1BIA,3dzkabx20liukfefnqxhosng7x6cv3,3dl65mzb8hsf5oqnj2d9d8vlt2jceo,cJHt1BIA,2020-0188,2020-05-21,21:11:52,21:31:19,NA,NA,instruction example,filling,NA,NA,Green_Star_Grid_3.jpg,Purple_Triangle_Stripes_3.jpg,Green_Circle_Chess_2.jpg,NA,NA,NA,NA,undefined
cJHt1BIA,3dzkabx20liukfefnqxhosng7x6cv3,3dl65mzb8hsf5oqnj2d9d8vlt2jceo,cJHt1BIA,2020-0188,2020-05-21,21:11:52,21:31:19,NA,NA,instruction example,filling,NA,NA,Purple_Star_Grid_1.jpg,Purple_Circle_Chess_3.jpg,Blue_Plus_Stripes_1.jpg,NA,NA,NA,NA,undefined
cJHt1BIA,3dzkabx20liukfefnqxhosng7x6cv3,3dl65mzb8hsf5oqnj2d9d8vlt2jceo,cJHt1BIA,2020-0188,2020-05-21,21:11:52,21:31:19,1129599.3849999795,1166997.309999977,NA,NA,NA,NA,NA,NA,NA,NA,NA,NA,NA,undefined
