workerId,hitId,assignmentId,subject,studyid,exp_date,exp_start,exp_end,time_start,time_end,trial,type,reward_validity,answer,image_top,image_left,image_right,response,response_time,response_acc,volatility,practice
aNmkGfdK,32xn26mty2w7ui75x62r6ind7a7l00,3dr23u6we9rwr5sy5o8z2ivphknet5,aNmkGfdK,2020-0188,2020-05-21,14:05:10,14:28:52,NA,incomplete,0,color,1,left,Blue_Star_Dots_2.jpg,Blue_Circle_Grid_4.jpg,Purple_Plus_Stripes_2.jpg,right,1787.674999999581,false,NA,true
aNmkGfdK,32xn26mty2w7ui75x62r6ind7a7l00,3dr23u6we9rwr5sy5o8z2ivphknet5,aNmkGfdK,2020-0188,2020-05-21,14:05:10,14:28:52,NA,incomplete,1,color,1,right,Green_Circle_Dots_2.jpg,Red_Triangle_Chess_2.jpg,Green_Plus_Grid_4.jpg,right,833.4299999987707,true,NA,true
aNmkGfdK,32xn26mty2w7ui75x62r6ind7a7l00,3dr23u6we9rwr5sy5o8z2ivphknet5,aNmkGfdK,2020-0188,2020-05-21,14:05:10,14:28:52,NA,incomplete,2,color,1,left,Purple_Triangle_Dots_2.jpg,Purple_Circle_Chess_1.jpg,Red_Star_Stripes_2.jpg,left,874.2249999922933,true,NA,true
aNmkGfdK,32xn26mty2w7ui75x62r6ind7a7l00,3dr23u6we9rwr5sy5o8z2ivphknet5,aNmkGfdK,2020-0188,2020-05-21,14:05:10,14:28:52,NA,incomplete,3,color,1,right,Red_Star_Stripes_2.jpg,Blue_Triangle_Chess_2.jpg,Red_Plus_Dots_4.jpg,right,675.0949999986915,true,NA,true
aNmkGfdK,32xn26mty2w7ui75x62r6ind7a7l00,3dr23u6we9rwr5sy5o8z2ivphknet5,aNmkGfdK,2020-0188,2020-05-21,14:05:10,14:28:52,NA,incomplete,4,color,0,right,Green_Star_Chess_2.jpg,Blue_Circle_Dots_2.jpg,Green_Triangle_Stripes_3.jpg,right,750.545000002603,true,NA,true
aNmkGfdK,32xn26mty2w7ui75x62r6ind7a7l00,3dr23u6we9rwr5sy5o8z2ivphknet5,aNmkGfdK,2020-0188,2020-05-21,14:05:10,14:28:52,NA,incomplete,5,color,0,right,Red_Star_Grid_1.jpg,Purple_Triangle_Stripes_1.jpg,Red_Plus_Chess_3.jpg,right,916.2149999901885,true,NA,true
aNmkGfdK,32xn26mty2w7ui75x62r6ind7a7l00,3dr23u6we9rwr5sy5o8z2ivphknet5,aNmkGfdK,2020-0188,2020-05-21,14:05:10,14:28:52,NA,incomplete,6,color,0,left,Green_Star_Dots_4.jpg,Green_Circle_Stripes_2.jpg,Purple_Plus_Grid_4.jpg,right,1176.324999993085,false,NA,true
aNmkGfdK,32xn26mty2w7ui75x62r6ind7a7l00,3dr23u6we9rwr5sy5o8z2ivphknet5,aNmkGfdK,2020-0188,2020-05-21,14:05:10,14:28:52,NA,incomplete,7,color,1,right,Purple_Plus_Chess_1.jpg,Green_Circle_Dots_1.jpg,Purple_Triangle_Grid_2.jpg,right,832.2200000111479,true,NA,true
aNmkGfdK,32xn26mty2w7ui75x62r6ind7a7l00,3dr23u6we9rwr5sy5o8z2ivphknet5,aNmkGfdK,2020-0188,2020-05-21,14:05:10,14:28:52,NA,incomplete,8,color,1,left,Green_Circle_Chess_3.jpg,Green_Plus_Stripes_1.jpg,Blue_Star_Grid_3.jpg,left,1348.3700000069803,true,NA,true
aNmkGfdK,32xn26mty2w7ui75x62r6ind7a7l00,3dr23u6we9rwr5sy5o8z2ivphknet5,aNmkGfdK,2020-0188,2020-05-21,14:05:10,14:28:52,NA,incomplete,9,color,1,right,Red_Triangle_Chess_4.jpg,Green_Plus_Dots_4.jpg,Red_Star_Stripes_2.jpg,right,1010.0799999927403,true,NA,true
aNmkGfdK,32xn26mty2w7ui75x62r6ind7a7l00,3dr23u6we9rwr5sy5o8z2ivphknet5,aNmkGfdK,2020-0188,2020-05-21,14:05:10,14:28:52,NA,incomplete,10,color,0,right,Green_Star_Chess_3.jpg,Blue_Triangle_Dots_3.jpg,Green_Circle_Grid_1.jpg,right,733.9600000123028,true,NA,true
aNmkGfdK,32xn26mty2w7ui75x62r6ind7a7l00,3dr23u6we9rwr5sy5o8z2ivphknet5,aNmkGfdK,2020-0188,2020-05-21,14:05:10,14:28:52,NA,incomplete,11,color,1,left,Green_Circle_Dots_1.jpg,Green_Plus_Stripes_2.jpg,Blue_Triangle_Chess_1.jpg,left,820.480000009411,true,NA,true
aNmkGfdK,32xn26mty2w7ui75x62r6ind7a7l00,3dr23u6we9rwr5sy5o8z2ivphknet5,aNmkGfdK,2020-0188,2020-05-21,14:05:10,14:28:52,NA,incomplete,12,color,1,left,Green_Plus_Stripes_3.jpg,Green_Star_Chess_1.jpg,Purple_Circle_Grid_3.jpg,left,760.5100000073435,true,NA,true
aNmkGfdK,32xn26mty2w7ui75x62r6ind7a7l00,3dr23u6we9rwr5sy5o8z2ivphknet5,aNmkGfdK,2020-0188,2020-05-21,14:05:10,14:28:52,NA,incomplete,13,color,1,left,Green_Triangle_Grid_2.jpg,Green_Plus_Stripes_3.jpg,Purple_Circle_Chess_2.jpg,left,1036.8750000052387,true,NA,true
aNmkGfdK,32xn26mty2w7ui75x62r6ind7a7l00,3dr23u6we9rwr5sy5o8z2ivphknet5,aNmkGfdK,2020-0188,2020-05-21,14:05:10,14:28:52,NA,incomplete,14,color,1,left,Blue_Triangle_Chess_2.jpg,Blue_Star_Grid_3.jpg,Red_Circle_Dots_2.jpg,left,1088.7000000075204,true,NA,true
aNmkGfdK,32xn26mty2w7ui75x62r6ind7a7l00,3dr23u6we9rwr5sy5o8z2ivphknet5,aNmkGfdK,2020-0188,2020-05-21,14:05:10,14:28:52,NA,incomplete,15,color,0,right,Blue_Star_Stripes_3.jpg,Green_Plus_Chess_3.jpg,Blue_Circle_Grid_1.jpg,right,1068.6700000078417,true,NA,true
aNmkGfdK,32xn26mty2w7ui75x62r6ind7a7l00,3dr23u6we9rwr5sy5o8z2ivphknet5,aNmkGfdK,2020-0188,2020-05-21,14:05:10,14:28:52,NA,incomplete,16,color,1,right,Purple_Plus_Stripes_2.jpg,Green_Circle_Dots_2.jpg,Purple_Star_Grid_3.jpg,right,627.4199999897974,true,NA,true
aNmkGfdK,32xn26mty2w7ui75x62r6ind7a7l00,3dr23u6we9rwr5sy5o8z2ivphknet5,aNmkGfdK,2020-0188,2020-05-21,14:05:10,14:28:52,NA,incomplete,17,color,0,left,Purple_Triangle_Grid_2.jpg,Purple_Plus_Chess_4.jpg,Red_Circle_Stripes_2.jpg,left,1822.0799999980954,true,NA,true
aNmkGfdK,32xn26mty2w7ui75x62r6ind7a7l00,3dr23u6we9rwr5sy5o8z2ivphknet5,aNmkGfdK,2020-0188,2020-05-21,14:05:10,14:28:52,NA,incomplete,18,color,1,right,Red_Star_Grid_4.jpg,Blue_Triangle_Chess_4.jpg,Red_Plus_Stripes_2.jpg,right,826.8649999954505,true,NA,true
aNmkGfdK,32xn26mty2w7ui75x62r6ind7a7l00,3dr23u6we9rwr5sy5o8z2ivphknet5,aNmkGfdK,2020-0188,2020-05-21,14:05:10,14:28:52,NA,incomplete,19,color,1,right,Purple_Circle_Chess_3.jpg,Red_Plus_Stripes_3.jpg,Purple_Star_Grid_1.jpg,right,873.0349999968894,true,NA,true
aNmkGfdK,32xn26mty2w7ui75x62r6ind7a7l00,3dr23u6we9rwr5sy5o8z2ivphknet5,aNmkGfdK,2020-0188,2020-05-21,14:05:10,14:28:52,NA,incomplete,20,number,1,left,Blue_Star_Stripes_2.jpg,Purple_Plus_Dots_2.jpg,Blue_Triangle_Chess_3.jpg,left,1231.8249999952968,true,NA,true
aNmkGfdK,32xn26mty2w7ui75x62r6ind7a7l00,3dr23u6we9rwr5sy5o8z2ivphknet5,aNmkGfdK,2020-0188,2020-05-21,14:05:10,14:28:52,NA,incomplete,21,number,1,right,Red_Star_Chess_1.jpg,Red_Plus_Dots_2.jpg,Purple_Circle_Grid_1.jpg,right,961.3749999989523,true,NA,true
aNmkGfdK,32xn26mty2w7ui75x62r6ind7a7l00,3dr23u6we9rwr5sy5o8z2ivphknet5,aNmkGfdK,2020-0188,2020-05-21,14:05:10,14:28:52,NA,incomplete,22,number,1,left,Blue_Star_Dots_3.jpg,Purple_Triangle_Chess_3.jpg,Blue_Plus_Stripes_2.jpg,left,925.6699999968987,true,NA,true
aNmkGfdK,32xn26mty2w7ui75x62r6ind7a7l00,3dr23u6we9rwr5sy5o8z2ivphknet5,aNmkGfdK,2020-0188,2020-05-21,14:05:10,14:28:52,NA,incomplete,23,number,1,left,Green_Star_Dots_1.jpg,Red_Circle_Chess_1.jpg,Green_Triangle_Stripes_4.jpg,left,826.9450000079814,true,NA,true
aNmkGfdK,32xn26mty2w7ui75x62r6ind7a7l00,3dr23u6we9rwr5sy5o8z2ivphknet5,aNmkGfdK,2020-0188,2020-05-21,14:05:10,14:28:52,NA,incomplete,24,number,1,right,Green_Triangle_Dots_3.jpg,Green_Star_Chess_4.jpg,Blue_Plus_Grid_3.jpg,right,793.0800000031013,true,NA,true
aNmkGfdK,32xn26mty2w7ui75x62r6ind7a7l00,3dr23u6we9rwr5sy5o8z2ivphknet5,aNmkGfdK,2020-0188,2020-05-21,14:05:10,14:28:52,NA,incomplete,25,number,0,right,Purple_Circle_Chess_2.jpg,Purple_Star_Grid_3.jpg,Green_Plus_Stripes_2.jpg,right,1040.5199999950128,true,NA,true
aNmkGfdK,32xn26mty2w7ui75x62r6ind7a7l00,3dr23u6we9rwr5sy5o8z2ivphknet5,aNmkGfdK,2020-0188,2020-05-21,14:05:10,14:28:52,NA,incomplete,26,number,1,left,Red_Triangle_Chess_2.jpg,Green_Star_Grid_2.jpg,Red_Plus_Dots_3.jpg,left,1090.0850000034552,true,NA,true
aNmkGfdK,32xn26mty2w7ui75x62r6ind7a7l00,3dr23u6we9rwr5sy5o8z2ivphknet5,aNmkGfdK,2020-0188,2020-05-21,14:05:10,14:28:52,NA,incomplete,27,number,1,right,Blue_Star_Dots_4.jpg,Blue_Triangle_Grid_2.jpg,Red_Plus_Stripes_4.jpg,right,881.439999997383,true,NA,true
aNmkGfdK,32xn26mty2w7ui75x62r6ind7a7l00,3dr23u6we9rwr5sy5o8z2ivphknet5,aNmkGfdK,2020-0188,2020-05-21,14:05:10,14:28:52,NA,incomplete,28,number,1,right,Red_Triangle_Dots_3.jpg,Red_Circle_Stripes_2.jpg,Blue_Plus_Chess_3.jpg,right,881.5500000055181,true,NA,true
aNmkGfdK,32xn26mty2w7ui75x62r6ind7a7l00,3dr23u6we9rwr5sy5o8z2ivphknet5,aNmkGfdK,2020-0188,2020-05-21,14:05:10,14:28:52,NA,incomplete,29,number,1,right,Red_Plus_Dots_1.jpg,Red_Star_Grid_2.jpg,Blue_Circle_Chess_1.jpg,right,937.5049999944167,true,NA,true
aNmkGfdK,32xn26mty2w7ui75x62r6ind7a7l00,3dr23u6we9rwr5sy5o8z2ivphknet5,aNmkGfdK,2020-0188,2020-05-21,14:05:10,14:28:52,NA,incomplete,30,number,0,right,Green_Star_Stripes_4.jpg,Green_Plus_Chess_1.jpg,Purple_Circle_Dots_4.jpg,right,923.320000001695,true,NA,true
aNmkGfdK,32xn26mty2w7ui75x62r6ind7a7l00,3dr23u6we9rwr5sy5o8z2ivphknet5,aNmkGfdK,2020-0188,2020-05-21,14:05:10,14:28:52,NA,incomplete,31,number,1,right,Green_Triangle_Chess_4.jpg,Green_Circle_Stripes_3.jpg,Red_Plus_Grid_4.jpg,right,713.6299999983748,true,NA,true
aNmkGfdK,32xn26mty2w7ui75x62r6ind7a7l00,3dr23u6we9rwr5sy5o8z2ivphknet5,aNmkGfdK,2020-0188,2020-05-21,14:05:10,14:28:52,NA,incomplete,32,number,1,right,Green_Star_Dots_1.jpg,Green_Triangle_Chess_2.jpg,Blue_Plus_Stripes_1.jpg,right,772.7200000081211,true,NA,true
aNmkGfdK,32xn26mty2w7ui75x62r6ind7a7l00,3dr23u6we9rwr5sy5o8z2ivphknet5,aNmkGfdK,2020-0188,2020-05-21,14:05:10,14:28:52,NA,incomplete,33,number,1,right,Red_Star_Stripes_2.jpg,Red_Triangle_Grid_1.jpg,Blue_Plus_Chess_2.jpg,right,758.7349999957951,true,NA,true
aNmkGfdK,32xn26mty2w7ui75x62r6ind7a7l00,3dr23u6we9rwr5sy5o8z2ivphknet5,aNmkGfdK,2020-0188,2020-05-21,14:05:10,14:28:52,NA,incomplete,34,number,1,right,Blue_Circle_Stripes_4.jpg,Blue_Star_Dots_2.jpg,Red_Plus_Chess_4.jpg,right,761.7750000063097,true,NA,true
aNmkGfdK,32xn26mty2w7ui75x62r6ind7a7l00,3dr23u6we9rwr5sy5o8z2ivphknet5,aNmkGfdK,2020-0188,2020-05-21,14:05:10,14:28:52,NA,incomplete,35,number,1,left,Green_Star_Dots_4.jpg,Blue_Circle_Grid_4.jpg,Green_Triangle_Stripes_3.jpg,left,913.3400000137044,true,NA,true
aNmkGfdK,32xn26mty2w7ui75x62r6ind7a7l00,3dr23u6we9rwr5sy5o8z2ivphknet5,aNmkGfdK,2020-0188,2020-05-21,14:05:10,14:28:52,NA,incomplete,36,number,1,left,Red_Star_Stripes_4.jpg,Purple_Triangle_Chess_4.jpg,Red_Circle_Grid_3.jpg,left,1016.2399999971967,true,NA,true
aNmkGfdK,32xn26mty2w7ui75x62r6ind7a7l00,3dr23u6we9rwr5sy5o8z2ivphknet5,aNmkGfdK,2020-0188,2020-05-21,14:05:10,14:28:52,NA,incomplete,37,number,1,left,Red_Plus_Dots_4.jpg,Blue_Star_Chess_4.jpg,Red_Triangle_Grid_1.jpg,left,799.8499999957858,true,NA,true
aNmkGfdK,32xn26mty2w7ui75x62r6ind7a7l00,3dr23u6we9rwr5sy5o8z2ivphknet5,aNmkGfdK,2020-0188,2020-05-21,14:05:10,14:28:52,NA,incomplete,38,number,1,right,Blue_Star_Dots_4.jpg,Blue_Plus_Stripes_2.jpg,Purple_Circle_Grid_4.jpg,right,851.2250000057975,true,NA,true
aNmkGfdK,32xn26mty2w7ui75x62r6ind7a7l00,3dr23u6we9rwr5sy5o8z2ivphknet5,aNmkGfdK,2020-0188,2020-05-21,14:05:10,14:28:52,NA,incomplete,39,number,1,right,Purple_Circle_Grid_2.jpg,Purple_Plus_Chess_3.jpg,Red_Star_Stripes_2.jpg,right,800.1749999966705,true,NA,true
aNmkGfdK,32xn26mty2w7ui75x62r6ind7a7l00,3dr23u6we9rwr5sy5o8z2ivphknet5,aNmkGfdK,2020-0188,2020-05-21,14:05:10,14:28:52,NA,incomplete,0,color,1,right,Red_Star_Dots_3.jpg,Blue_Plus_Grid_3.jpg,Red_Triangle_Chess_2.jpg,left,917.6699999952689,false,low,false
aNmkGfdK,32xn26mty2w7ui75x62r6ind7a7l00,3dr23u6we9rwr5sy5o8z2ivphknet5,aNmkGfdK,2020-0188,2020-05-21,14:05:10,14:28:52,NA,incomplete,1,color,1,right,Red_Star_Stripes_1.jpg,Green_Triangle_Dots_1.jpg,Red_Circle_Chess_4.jpg,right,1305.9249999932945,true,low,false
aNmkGfdK,32xn26mty2w7ui75x62r6ind7a7l00,3dr23u6we9rwr5sy5o8z2ivphknet5,aNmkGfdK,2020-0188,2020-05-21,14:05:10,14:28:52,NA,incomplete,2,color,1,left,Green_Plus_Chess_1.jpg,Green_Circle_Dots_2.jpg,Blue_Triangle_Grid_1.jpg,left,634.2000000004191,true,low,false
aNmkGfdK,32xn26mty2w7ui75x62r6ind7a7l00,3dr23u6we9rwr5sy5o8z2ivphknet5,aNmkGfdK,2020-0188,2020-05-21,14:05:10,14:28:52,NA,incomplete,3,color,1,right,Purple_Star_Dots_1.jpg,Red_Circle_Grid_1.jpg,Purple_Plus_Chess_3.jpg,right,887.1550000039861,true,low,false
aNmkGfdK,32xn26mty2w7ui75x62r6ind7a7l00,3dr23u6we9rwr5sy5o8z2ivphknet5,aNmkGfdK,2020-0188,2020-05-21,14:05:10,14:28:52,NA,incomplete,4,color,1,left,Purple_Plus_Dots_4.jpg,Purple_Triangle_Chess_3.jpg,Blue_Star_Stripes_4.jpg,left,901.3100000011036,true,low,false
aNmkGfdK,32xn26mty2w7ui75x62r6ind7a7l00,3dr23u6we9rwr5sy5o8z2ivphknet5,aNmkGfdK,2020-0188,2020-05-21,14:05:10,14:28:52,NA,incomplete,5,color,1,left,Blue_Star_Stripes_2.jpg,Blue_Circle_Chess_3.jpg,Green_Plus_Dots_2.jpg,left,856.5399999934016,true,low,false
aNmkGfdK,32xn26mty2w7ui75x62r6ind7a7l00,3dr23u6we9rwr5sy5o8z2ivphknet5,aNmkGfdK,2020-0188,2020-05-21,14:05:10,14:28:52,NA,incomplete,6,color,1,left,Red_Triangle_Chess_2.jpg,Red_Circle_Stripes_4.jpg,Purple_Star_Grid_2.jpg,left,668.2800000126008,true,low,false
aNmkGfdK,32xn26mty2w7ui75x62r6ind7a7l00,3dr23u6we9rwr5sy5o8z2ivphknet5,aNmkGfdK,2020-0188,2020-05-21,14:05:10,14:28:52,NA,incomplete,7,color,0,right,Green_Plus_Stripes_2.jpg,Purple_Triangle_Dots_2.jpg,Green_Star_Grid_1.jpg,right,997.029999998631,true,low,false
aNmkGfdK,32xn26mty2w7ui75x62r6ind7a7l00,3dr23u6we9rwr5sy5o8z2ivphknet5,aNmkGfdK,2020-0188,2020-05-21,14:05:10,14:28:52,NA,incomplete,8,color,1,right,Green_Circle_Dots_3.jpg,Red_Star_Grid_3.jpg,Green_Plus_Stripes_4.jpg,right,543.9749999932246,true,low,false
aNmkGfdK,32xn26mty2w7ui75x62r6ind7a7l00,3dr23u6we9rwr5sy5o8z2ivphknet5,aNmkGfdK,2020-0188,2020-05-21,14:05:10,14:28:52,NA,incomplete,9,color,0,left,Red_Circle_Chess_3.jpg,Red_Triangle_Dots_1.jpg,Blue_Plus_Grid_3.jpg,left,929.3150000012247,true,low,false
aNmkGfdK,32xn26mty2w7ui75x62r6ind7a7l00,3dr23u6we9rwr5sy5o8z2ivphknet5,aNmkGfdK,2020-0188,2020-05-21,14:05:10,14:28:52,NA,incomplete,10,color,1,right,Red_Plus_Grid_3.jpg,Purple_Circle_Stripes_3.jpg,Red_Triangle_Chess_1.jpg,left,810.8899999933783,false,low,false
aNmkGfdK,32xn26mty2w7ui75x62r6ind7a7l00,3dr23u6we9rwr5sy5o8z2ivphknet5,aNmkGfdK,2020-0188,2020-05-21,14:05:10,14:28:52,NA,incomplete,11,color,1,left,Green_Circle_Dots_4.jpg,Green_Plus_Stripes_2.jpg,Blue_Star_Grid_4.jpg,left,1008.9799999987008,true,low,false
aNmkGfdK,32xn26mty2w7ui75x62r6ind7a7l00,3dr23u6we9rwr5sy5o8z2ivphknet5,aNmkGfdK,2020-0188,2020-05-21,14:05:10,14:28:52,NA,incomplete,12,color,0,left,Blue_Star_Grid_3.jpg,Blue_Plus_Chess_1.jpg,Purple_Circle_Dots_3.jpg,left,819.6849999949336,true,low,false
aNmkGfdK,32xn26mty2w7ui75x62r6ind7a7l00,3dr23u6we9rwr5sy5o8z2ivphknet5,aNmkGfdK,2020-0188,2020-05-21,14:05:10,14:28:52,NA,incomplete,13,color,1,right,Blue_Plus_Grid_1.jpg,Green_Triangle_Stripes_1.jpg,Blue_Star_Chess_2.jpg,right,791.2500000093132,true,low,false
aNmkGfdK,32xn26mty2w7ui75x62r6ind7a7l00,3dr23u6we9rwr5sy5o8z2ivphknet5,aNmkGfdK,2020-0188,2020-05-21,14:05:10,14:28:52,NA,incomplete,14,color,1,left,Blue_Plus_Grid_1.jpg,Blue_Triangle_Chess_2.jpg,Purple_Circle_Stripes_1.jpg,left,891.1450000014156,true,low,false
aNmkGfdK,32xn26mty2w7ui75x62r6ind7a7l00,3dr23u6we9rwr5sy5o8z2ivphknet5,aNmkGfdK,2020-0188,2020-05-21,14:05:10,14:28:52,NA,incomplete,15,color,1,left,Blue_Triangle_Stripes_2.jpg,Blue_Circle_Dots_4.jpg,Purple_Plus_Chess_2.jpg,left,935.8199999987846,true,low,false
aNmkGfdK,32xn26mty2w7ui75x62r6ind7a7l00,3dr23u6we9rwr5sy5o8z2ivphknet5,aNmkGfdK,2020-0188,2020-05-21,14:05:10,14:28:52,NA,incomplete,16,color,1,right,Purple_Plus_Stripes_2.jpg,Green_Star_Dots_2.jpg,Purple_Circle_Chess_1.jpg,right,1122.9549999989104,true,low,false
aNmkGfdK,32xn26mty2w7ui75x62r6ind7a7l00,3dr23u6we9rwr5sy5o8z2ivphknet5,aNmkGfdK,2020-0188,2020-05-21,14:05:10,14:28:52,NA,incomplete,17,color,0,right,Purple_Star_Chess_2.jpg,Green_Circle_Grid_2.jpg,Purple_Triangle_Dots_3.jpg,right,1098.5899999941466,true,low,false
aNmkGfdK,32xn26mty2w7ui75x62r6ind7a7l00,3dr23u6we9rwr5sy5o8z2ivphknet5,aNmkGfdK,2020-0188,2020-05-21,14:05:10,14:28:52,NA,incomplete,18,color,1,left,Blue_Plus_Grid_2.jpg,Blue_Circle_Dots_1.jpg,Green_Star_Chess_2.jpg,left,747.3099999915576,true,low,false
aNmkGfdK,32xn26mty2w7ui75x62r6ind7a7l00,3dr23u6we9rwr5sy5o8z2ivphknet5,aNmkGfdK,2020-0188,2020-05-21,14:05:10,14:28:52,NA,incomplete,19,color,1,right,Purple_Circle_Chess_1.jpg,Blue_Plus_Dots_1.jpg,Purple_Star_Stripes_2.jpg,right,738.4549999987939,true,low,false
aNmkGfdK,32xn26mty2w7ui75x62r6ind7a7l00,3dr23u6we9rwr5sy5o8z2ivphknet5,aNmkGfdK,2020-0188,2020-05-21,14:05:10,14:28:52,NA,incomplete,20,color,1,left,Purple_Plus_Stripes_3.jpg,Purple_Circle_Chess_4.jpg,Red_Star_Dots_3.jpg,left,728.4749999962514,true,low,false
aNmkGfdK,32xn26mty2w7ui75x62r6ind7a7l00,3dr23u6we9rwr5sy5o8z2ivphknet5,aNmkGfdK,2020-0188,2020-05-21,14:05:10,14:28:52,NA,incomplete,21,color,1,right,Red_Plus_Grid_2.jpg,Purple_Circle_Chess_2.jpg,Red_Triangle_Stripes_4.jpg,right,1271.710000000894,true,low,false
aNmkGfdK,32xn26mty2w7ui75x62r6ind7a7l00,3dr23u6we9rwr5sy5o8z2ivphknet5,aNmkGfdK,2020-0188,2020-05-21,14:05:10,14:28:52,NA,incomplete,22,color,1,right,Green_Star_Stripes_2.jpg,Purple_Plus_Dots_2.jpg,Green_Triangle_Chess_1.jpg,right,644.1550000017742,true,low,false
aNmkGfdK,32xn26mty2w7ui75x62r6ind7a7l00,3dr23u6we9rwr5sy5o8z2ivphknet5,aNmkGfdK,2020-0188,2020-05-21,14:05:10,14:28:52,NA,incomplete,23,color,1,left,Purple_Triangle_Stripes_4.jpg,Purple_Circle_Chess_3.jpg,Green_Star_Dots_4.jpg,left,582.7200000057928,true,low,false
aNmkGfdK,32xn26mty2w7ui75x62r6ind7a7l00,3dr23u6we9rwr5sy5o8z2ivphknet5,aNmkGfdK,2020-0188,2020-05-21,14:05:10,14:28:52,NA,incomplete,24,color,0,right,Blue_Plus_Chess_4.jpg,Red_Star_Dots_4.jpg,Blue_Triangle_Grid_1.jpg,right,558.564999999362,true,low,false
aNmkGfdK,32xn26mty2w7ui75x62r6ind7a7l00,3dr23u6we9rwr5sy5o8z2ivphknet5,aNmkGfdK,2020-0188,2020-05-21,14:05:10,14:28:52,NA,incomplete,25,color,0,left,Purple_Circle_Dots_3.jpg,Purple_Plus_Chess_1.jpg,Blue_Triangle_Grid_3.jpg,left,699.8949999979232,true,low,false
aNmkGfdK,32xn26mty2w7ui75x62r6ind7a7l00,3dr23u6we9rwr5sy5o8z2ivphknet5,aNmkGfdK,2020-0188,2020-05-21,14:05:10,14:28:52,NA,incomplete,26,color,0,left,Blue_Plus_Chess_2.jpg,Blue_Star_Dots_3.jpg,Red_Triangle_Stripes_2.jpg,left,553.5450000024866,true,low,false
aNmkGfdK,32xn26mty2w7ui75x62r6ind7a7l00,3dr23u6we9rwr5sy5o8z2ivphknet5,aNmkGfdK,2020-0188,2020-05-21,14:05:10,14:28:52,NA,incomplete,27,color,1,left,Purple_Circle_Dots_4.jpg,Purple_Plus_Chess_1.jpg,Green_Triangle_Stripes_4.jpg,right,851.8949999997858,false,low,false
aNmkGfdK,32xn26mty2w7ui75x62r6ind7a7l00,3dr23u6we9rwr5sy5o8z2ivphknet5,aNmkGfdK,2020-0188,2020-05-21,14:05:10,14:28:52,NA,incomplete,28,color,1,right,Red_Circle_Chess_3.jpg,Purple_Plus_Stripes_3.jpg,Red_Triangle_Dots_1.jpg,left,921.7849999986356,false,low,false
aNmkGfdK,32xn26mty2w7ui75x62r6ind7a7l00,3dr23u6we9rwr5sy5o8z2ivphknet5,aNmkGfdK,2020-0188,2020-05-21,14:05:10,14:28:52,NA,incomplete,29,color,1,right,Purple_Circle_Grid_1.jpg,Green_Triangle_Dots_1.jpg,Purple_Star_Chess_2.jpg,none,0,false,low,false
aNmkGfdK,32xn26mty2w7ui75x62r6ind7a7l00,3dr23u6we9rwr5sy5o8z2ivphknet5,aNmkGfdK,2020-0188,2020-05-21,14:05:10,14:28:52,NA,incomplete,30,number,1,right,Red_Plus_Grid_1.jpg,Red_Star_Dots_4.jpg,Green_Triangle_Stripes_1.jpg,left,873.6550000030547,false,low,false
aNmkGfdK,32xn26mty2w7ui75x62r6ind7a7l00,3dr23u6we9rwr5sy5o8z2ivphknet5,aNmkGfdK,2020-0188,2020-05-21,14:05:10,14:28:52,NA,incomplete,31,number,1,right,Red_Plus_Chess_2.jpg,Red_Triangle_Stripes_1.jpg,Blue_Circle_Grid_2.jpg,right,1412.2799999895506,true,low,false
aNmkGfdK,32xn26mty2w7ui75x62r6ind7a7l00,3dr23u6we9rwr5sy5o8z2ivphknet5,aNmkGfdK,2020-0188,2020-05-21,14:05:10,14:28:52,NA,incomplete,32,number,1,right,Red_Star_Grid_4.jpg,Red_Plus_Chess_3.jpg,Green_Triangle_Stripes_4.jpg,right,1003.3549999934621,true,low,false
aNmkGfdK,32xn26mty2w7ui75x62r6ind7a7l00,3dr23u6we9rwr5sy5o8z2ivphknet5,aNmkGfdK,2020-0188,2020-05-21,14:05:10,14:28:52,NA,incomplete,33,number,1,right,Blue_Plus_Stripes_4.jpg,Blue_Star_Dots_2.jpg,Green_Triangle_Grid_4.jpg,right,828.8849999953527,true,low,false
aNmkGfdK,32xn26mty2w7ui75x62r6ind7a7l00,3dr23u6we9rwr5sy5o8z2ivphknet5,aNmkGfdK,2020-0188,2020-05-21,14:05:10,14:28:52,NA,incomplete,34,number,1,right,Purple_Star_Dots_4.jpg,Purple_Triangle_Stripes_1.jpg,Green_Circle_Chess_4.jpg,right,800.4349999973783,true,low,false
aNmkGfdK,32xn26mty2w7ui75x62r6ind7a7l00,3dr23u6we9rwr5sy5o8z2ivphknet5,aNmkGfdK,2020-0188,2020-05-21,14:05:10,14:28:52,NA,incomplete,35,number,1,right,Blue_Plus_Stripes_4.jpg,Blue_Triangle_Dots_1.jpg,Green_Circle_Chess_4.jpg,right,608.9800000045216,true,low,false
aNmkGfdK,32xn26mty2w7ui75x62r6ind7a7l00,3dr23u6we9rwr5sy5o8z2ivphknet5,aNmkGfdK,2020-0188,2020-05-21,14:05:10,14:28:52,NA,incomplete,36,number,0,left,Red_Triangle_Dots_1.jpg,Purple_Star_Stripes_1.jpg,Red_Circle_Grid_3.jpg,left,820.1949999929639,true,low,false
aNmkGfdK,32xn26mty2w7ui75x62r6ind7a7l00,3dr23u6we9rwr5sy5o8z2ivphknet5,aNmkGfdK,2020-0188,2020-05-21,14:05:10,14:28:52,NA,incomplete,37,number,0,left,Purple_Triangle_Chess_1.jpg,Green_Star_Stripes_1.jpg,Purple_Plus_Grid_3.jpg,left,653.214999998454,true,low,false
aNmkGfdK,32xn26mty2w7ui75x62r6ind7a7l00,3dr23u6we9rwr5sy5o8z2ivphknet5,aNmkGfdK,2020-0188,2020-05-21,14:05:10,14:28:52,NA,incomplete,38,number,1,left,Blue_Triangle_Grid_4.jpg,Green_Circle_Stripes_4.jpg,Blue_Star_Chess_2.jpg,left,894.2950000055134,true,low,false
aNmkGfdK,32xn26mty2w7ui75x62r6ind7a7l00,3dr23u6we9rwr5sy5o8z2ivphknet5,aNmkGfdK,2020-0188,2020-05-21,14:05:10,14:28:52,NA,incomplete,39,number,1,right,Red_Circle_Grid_2.jpg,Red_Triangle_Stripes_4.jpg,Purple_Plus_Dots_2.jpg,right,904.0149999927962,true,low,false
aNmkGfdK,32xn26mty2w7ui75x62r6ind7a7l00,3dr23u6we9rwr5sy5o8z2ivphknet5,aNmkGfdK,2020-0188,2020-05-21,14:05:10,14:28:52,NA,incomplete,40,number,1,left,Blue_Plus_Chess_2.jpg,Purple_Star_Grid_2.jpg,Blue_Triangle_Dots_3.jpg,left,733.9800000045216,true,low,false
aNmkGfdK,32xn26mty2w7ui75x62r6ind7a7l00,3dr23u6we9rwr5sy5o8z2ivphknet5,aNmkGfdK,2020-0188,2020-05-21,14:05:10,14:28:52,NA,incomplete,41,number,1,right,Red_Plus_Dots_2.jpg,Red_Triangle_Stripes_1.jpg,Green_Star_Chess_2.jpg,right,1177.3600000014994,true,low,false
aNmkGfdK,32xn26mty2w7ui75x62r6ind7a7l00,3dr23u6we9rwr5sy5o8z2ivphknet5,aNmkGfdK,2020-0188,2020-05-21,14:05:10,14:28:52,NA,incomplete,42,number,1,right,Blue_Plus_Stripes_1.jpg,Blue_Circle_Grid_3.jpg,Purple_Triangle_Dots_1.jpg,right,1154.1750000033062,true,low,false
aNmkGfdK,32xn26mty2w7ui75x62r6ind7a7l00,3dr23u6we9rwr5sy5o8z2ivphknet5,aNmkGfdK,2020-0188,2020-05-21,14:05:10,14:28:52,NA,incomplete,43,number,1,right,Blue_Star_Dots_1.jpg,Blue_Plus_Chess_4.jpg,Purple_Circle_Stripes_1.jpg,right,807.7800000028219,true,low,false
aNmkGfdK,32xn26mty2w7ui75x62r6ind7a7l00,3dr23u6we9rwr5sy5o8z2ivphknet5,aNmkGfdK,2020-0188,2020-05-21,14:05:10,14:28:52,NA,incomplete,44,number,1,left,Purple_Triangle_Grid_2.jpg,Blue_Circle_Dots_2.jpg,Purple_Plus_Stripes_1.jpg,left,915.2250000042841,true,low,false
aNmkGfdK,32xn26mty2w7ui75x62r6ind7a7l00,3dr23u6we9rwr5sy5o8z2ivphknet5,aNmkGfdK,2020-0188,2020-05-21,14:05:10,14:28:52,NA,incomplete,45,number,1,left,Blue_Triangle_Stripes_2.jpg,Green_Star_Dots_2.jpg,Blue_Circle_Chess_3.jpg,left,893.7999999907333,true,low,false
aNmkGfdK,32xn26mty2w7ui75x62r6ind7a7l00,3dr23u6we9rwr5sy5o8z2ivphknet5,aNmkGfdK,2020-0188,2020-05-21,14:05:10,14:28:52,NA,incomplete,46,number,0,right,Blue_Star_Grid_4.jpg,Blue_Plus_Dots_3.jpg,Purple_Circle_Stripes_4.jpg,right,895.4750000120839,true,low,false
aNmkGfdK,32xn26mty2w7ui75x62r6ind7a7l00,3dr23u6we9rwr5sy5o8z2ivphknet5,aNmkGfdK,2020-0188,2020-05-21,14:05:10,14:28:52,NA,incomplete,47,number,1,left,Red_Plus_Grid_1.jpg,Green_Triangle_Chess_1.jpg,Red_Star_Stripes_2.jpg,left,1195.1549999939743,true,low,false
aNmkGfdK,32xn26mty2w7ui75x62r6ind7a7l00,3dr23u6we9rwr5sy5o8z2ivphknet5,aNmkGfdK,2020-0188,2020-05-21,14:05:10,14:28:52,NA,incomplete,48,number,0,right,Green_Plus_Stripes_4.jpg,Green_Star_Grid_3.jpg,Blue_Circle_Dots_4.jpg,right,885.2849999966566,true,low,false
aNmkGfdK,32xn26mty2w7ui75x62r6ind7a7l00,3dr23u6we9rwr5sy5o8z2ivphknet5,aNmkGfdK,2020-0188,2020-05-21,14:05:10,14:28:52,NA,incomplete,49,number,1,left,Purple_Triangle_Grid_2.jpg,Red_Circle_Stripes_2.jpg,Purple_Plus_Dots_3.jpg,left,904.3099999980768,true,low,false
aNmkGfdK,32xn26mty2w7ui75x62r6ind7a7l00,3dr23u6we9rwr5sy5o8z2ivphknet5,aNmkGfdK,2020-0188,2020-05-21,14:05:10,14:28:52,NA,incomplete,50,number,1,right,Purple_Star_Grid_4.jpg,Purple_Triangle_Dots_1.jpg,Red_Plus_Stripes_4.jpg,right,706.0349999956088,true,low,false
aNmkGfdK,32xn26mty2w7ui75x62r6ind7a7l00,3dr23u6we9rwr5sy5o8z2ivphknet5,aNmkGfdK,2020-0188,2020-05-21,14:05:10,14:28:52,NA,incomplete,51,number,1,right,Purple_Triangle_Stripes_2.jpg,Purple_Circle_Grid_3.jpg,Green_Star_Dots_2.jpg,right,926.6849999985425,true,low,false
aNmkGfdK,32xn26mty2w7ui75x62r6ind7a7l00,3dr23u6we9rwr5sy5o8z2ivphknet5,aNmkGfdK,2020-0188,2020-05-21,14:05:10,14:28:52,NA,incomplete,52,number,1,right,Green_Triangle_Dots_3.jpg,Green_Plus_Grid_1.jpg,Purple_Star_Chess_3.jpg,right,746.129999999539,true,low,false
aNmkGfdK,32xn26mty2w7ui75x62r6ind7a7l00,3dr23u6we9rwr5sy5o8z2ivphknet5,aNmkGfdK,2020-0188,2020-05-21,14:05:10,14:28:52,NA,incomplete,53,number,1,right,Blue_Star_Chess_4.jpg,Blue_Triangle_Dots_1.jpg,Purple_Circle_Grid_4.jpg,right,735.3000000002794,true,low,false
aNmkGfdK,32xn26mty2w7ui75x62r6ind7a7l00,3dr23u6we9rwr5sy5o8z2ivphknet5,aNmkGfdK,2020-0188,2020-05-21,14:05:10,14:28:52,NA,incomplete,54,number,1,left,Purple_Triangle_Stripes_2.jpg,Green_Circle_Chess_2.jpg,Purple_Plus_Grid_3.jpg,left,658.5800000029849,true,low,false
aNmkGfdK,32xn26mty2w7ui75x62r6ind7a7l00,3dr23u6we9rwr5sy5o8z2ivphknet5,aNmkGfdK,2020-0188,2020-05-21,14:05:10,14:28:52,NA,incomplete,55,number,1,left,Green_Circle_Chess_3.jpg,Blue_Triangle_Stripes_3.jpg,Green_Star_Dots_1.jpg,left,670.1499999908265,true,low,false
aNmkGfdK,32xn26mty2w7ui75x62r6ind7a7l00,3dr23u6we9rwr5sy5o8z2ivphknet5,aNmkGfdK,2020-0188,2020-05-21,14:05:10,14:28:52,NA,incomplete,56,number,1,left,Purple_Plus_Stripes_3.jpg,Red_Circle_Grid_3.jpg,Purple_Triangle_Dots_1.jpg,left,630.155000006198,true,low,false
aNmkGfdK,32xn26mty2w7ui75x62r6ind7a7l00,3dr23u6we9rwr5sy5o8z2ivphknet5,aNmkGfdK,2020-0188,2020-05-21,14:05:10,14:28:52,NA,incomplete,57,number,0,left,Blue_Circle_Grid_4.jpg,Green_Star_Dots_4.jpg,Blue_Plus_Chess_2.jpg,left,1064.0850000054343,true,low,false
aNmkGfdK,32xn26mty2w7ui75x62r6ind7a7l00,3dr23u6we9rwr5sy5o8z2ivphknet5,aNmkGfdK,2020-0188,2020-05-21,14:05:10,14:28:52,NA,incomplete,58,number,1,right,Green_Circle_Grid_1.jpg,Green_Star_Chess_2.jpg,Blue_Triangle_Stripes_1.jpg,right,653.9999999949941,true,low,false
aNmkGfdK,32xn26mty2w7ui75x62r6ind7a7l00,3dr23u6we9rwr5sy5o8z2ivphknet5,aNmkGfdK,2020-0188,2020-05-21,14:05:10,14:28:52,NA,incomplete,59,number,0,right,Green_Star_Grid_3.jpg,Green_Plus_Stripes_4.jpg,Red_Triangle_Chess_3.jpg,right,664.1000000090571,true,low,false
aNmkGfdK,32xn26mty2w7ui75x62r6ind7a7l00,3dr23u6we9rwr5sy5o8z2ivphknet5,aNmkGfdK,2020-0188,2020-05-21,14:05:10,14:28:52,NA,incomplete,60,color,1,left,Red_Circle_Chess_4.jpg,Red_Plus_Stripes_2.jpg,Blue_Triangle_Dots_4.jpg,right,1529.080000007525,false,low,false
aNmkGfdK,32xn26mty2w7ui75x62r6ind7a7l00,3dr23u6we9rwr5sy5o8z2ivphknet5,aNmkGfdK,2020-0188,2020-05-21,14:05:10,14:28:52,NA,incomplete,61,color,1,left,Purple_Triangle_Stripes_2.jpg,Purple_Star_Chess_1.jpg,Blue_Plus_Dots_2.jpg,right,788.8700000039535,false,low,false
aNmkGfdK,32xn26mty2w7ui75x62r6ind7a7l00,3dr23u6we9rwr5sy5o8z2ivphknet5,aNmkGfdK,2020-0188,2020-05-21,14:05:10,14:28:52,NA,incomplete,62,color,1,left,Green_Triangle_Stripes_2.jpg,Green_Circle_Grid_1.jpg,Purple_Star_Dots_2.jpg,left,1525.0299999897834,true,low,false
aNmkGfdK,32xn26mty2w7ui75x62r6ind7a7l00,3dr23u6we9rwr5sy5o8z2ivphknet5,aNmkGfdK,2020-0188,2020-05-21,14:05:10,14:28:52,NA,incomplete,63,color,1,right,Red_Star_Chess_2.jpg,Blue_Circle_Dots_2.jpg,Red_Plus_Grid_1.jpg,right,1321.4349999907427,true,low,false
aNmkGfdK,32xn26mty2w7ui75x62r6ind7a7l00,3dr23u6we9rwr5sy5o8z2ivphknet5,aNmkGfdK,2020-0188,2020-05-21,14:05:10,14:28:52,NA,incomplete,64,color,1,right,Blue_Triangle_Dots_1.jpg,Red_Plus_Chess_1.jpg,Blue_Circle_Grid_3.jpg,left,765.3550000104588,false,low,false
aNmkGfdK,32xn26mty2w7ui75x62r6ind7a7l00,3dr23u6we9rwr5sy5o8z2ivphknet5,aNmkGfdK,2020-0188,2020-05-21,14:05:10,14:28:52,NA,incomplete,65,color,1,left,Green_Star_Dots_3.jpg,Green_Circle_Stripes_1.jpg,Red_Plus_Grid_3.jpg,right,700.9550000075251,false,low,false
aNmkGfdK,32xn26mty2w7ui75x62r6ind7a7l00,3dr23u6we9rwr5sy5o8z2ivphknet5,aNmkGfdK,2020-0188,2020-05-21,14:05:10,14:28:52,NA,incomplete,66,color,0,right,Red_Triangle_Stripes_2.jpg,Blue_Circle_Dots_2.jpg,Red_Star_Grid_1.jpg,left,1326.600000000326,false,low,false
aNmkGfdK,32xn26mty2w7ui75x62r6ind7a7l00,3dr23u6we9rwr5sy5o8z2ivphknet5,aNmkGfdK,2020-0188,2020-05-21,14:05:10,14:28:52,NA,incomplete,67,color,1,left,Purple_Star_Grid_4.jpg,Purple_Plus_Chess_3.jpg,Green_Circle_Stripes_4.jpg,right,1090.1599999924656,false,low,false
aNmkGfdK,32xn26mty2w7ui75x62r6ind7a7l00,3dr23u6we9rwr5sy5o8z2ivphknet5,aNmkGfdK,2020-0188,2020-05-21,14:05:10,14:28:52,NA,incomplete,68,color,1,left,Red_Plus_Chess_2.jpg,Red_Circle_Dots_4.jpg,Blue_Triangle_Grid_2.jpg,right,1062.6200000115205,false,low,false
aNmkGfdK,32xn26mty2w7ui75x62r6ind7a7l00,3dr23u6we9rwr5sy5o8z2ivphknet5,aNmkGfdK,2020-0188,2020-05-21,14:05:10,14:28:52,NA,incomplete,69,color,1,left,Red_Circle_Chess_1.jpg,Red_Star_Dots_4.jpg,Blue_Triangle_Grid_1.jpg,right,743.8850000035018,false,low,false
aNmkGfdK,32xn26mty2w7ui75x62r6ind7a7l00,3dr23u6we9rwr5sy5o8z2ivphknet5,aNmkGfdK,2020-0188,2020-05-21,14:05:10,14:28:52,NA,incomplete,70,color,1,right,Purple_Plus_Grid_2.jpg,Red_Triangle_Chess_2.jpg,Purple_Circle_Stripes_4.jpg,right,1515.465000004042,true,low,false
aNmkGfdK,32xn26mty2w7ui75x62r6ind7a7l00,3dr23u6we9rwr5sy5o8z2ivphknet5,aNmkGfdK,2020-0188,2020-05-21,14:05:10,14:28:52,NA,incomplete,71,color,1,left,Purple_Star_Grid_3.jpg,Purple_Circle_Stripes_1.jpg,Blue_Plus_Chess_3.jpg,left,906.7000000068219,true,low,false
aNmkGfdK,32xn26mty2w7ui75x62r6ind7a7l00,3dr23u6we9rwr5sy5o8z2ivphknet5,aNmkGfdK,2020-0188,2020-05-21,14:05:10,14:28:52,NA,incomplete,72,color,0,right,Green_Circle_Stripes_3.jpg,Red_Triangle_Dots_3.jpg,Green_Star_Grid_2.jpg,right,1035.650000005262,true,low,false
aNmkGfdK,32xn26mty2w7ui75x62r6ind7a7l00,3dr23u6we9rwr5sy5o8z2ivphknet5,aNmkGfdK,2020-0188,2020-05-21,14:05:10,14:28:52,NA,incomplete,73,color,0,left,Blue_Circle_Chess_1.jpg,Blue_Star_Stripes_4.jpg,Purple_Triangle_Grid_1.jpg,left,1168.8449999928707,true,low,false
aNmkGfdK,32xn26mty2w7ui75x62r6ind7a7l00,3dr23u6we9rwr5sy5o8z2ivphknet5,aNmkGfdK,2020-0188,2020-05-21,14:05:10,14:28:52,NA,incomplete,74,color,1,left,Blue_Triangle_Dots_2.jpg,Blue_Circle_Grid_1.jpg,Red_Star_Chess_2.jpg,left,1633.6049999954412,true,low,false
aNmkGfdK,32xn26mty2w7ui75x62r6ind7a7l00,3dr23u6we9rwr5sy5o8z2ivphknet5,aNmkGfdK,2020-0188,2020-05-21,14:05:10,14:28:52,NA,incomplete,75,color,1,right,Red_Star_Chess_4.jpg,Purple_Circle_Dots_4.jpg,Red_Plus_Stripes_1.jpg,right,1125.5800000071758,true,low,false
aNmkGfdK,32xn26mty2w7ui75x62r6ind7a7l00,3dr23u6we9rwr5sy5o8z2ivphknet5,aNmkGfdK,2020-0188,2020-05-21,14:05:10,14:28:52,NA,incomplete,76,color,0,right,Red_Star_Grid_2.jpg,Green_Triangle_Chess_2.jpg,Red_Circle_Stripes_4.jpg,right,964.5500000042375,true,low,false
aNmkGfdK,32xn26mty2w7ui75x62r6ind7a7l00,3dr23u6we9rwr5sy5o8z2ivphknet5,aNmkGfdK,2020-0188,2020-05-21,14:05:10,14:28:52,NA,incomplete,77,color,1,left,Purple_Star_Stripes_4.jpg,Purple_Circle_Grid_3.jpg,Red_Triangle_Chess_4.jpg,left,861.8700000079116,true,low,false
aNmkGfdK,32xn26mty2w7ui75x62r6ind7a7l00,3dr23u6we9rwr5sy5o8z2ivphknet5,aNmkGfdK,2020-0188,2020-05-21,14:05:10,14:28:52,NA,incomplete,78,color,1,left,Green_Plus_Stripes_2.jpg,Green_Star_Chess_4.jpg,Blue_Triangle_Grid_2.jpg,left,681.8700000003446,true,low,false
aNmkGfdK,32xn26mty2w7ui75x62r6ind7a7l00,3dr23u6we9rwr5sy5o8z2ivphknet5,aNmkGfdK,2020-0188,2020-05-21,14:05:10,14:28:52,NA,incomplete,79,color,0,left,Purple_Star_Dots_4.jpg,Purple_Circle_Grid_2.jpg,Blue_Triangle_Stripes_4.jpg,left,688.2099999929778,true,low,false
aNmkGfdK,32xn26mty2w7ui75x62r6ind7a7l00,3dr23u6we9rwr5sy5o8z2ivphknet5,aNmkGfdK,2020-0188,2020-05-21,14:05:10,14:28:52,NA,incomplete,80,color,1,right,Red_Triangle_Dots_3.jpg,Blue_Star_Grid_3.jpg,Red_Plus_Stripes_1.jpg,right,991.729999994277,true,low,false
aNmkGfdK,32xn26mty2w7ui75x62r6ind7a7l00,3dr23u6we9rwr5sy5o8z2ivphknet5,aNmkGfdK,2020-0188,2020-05-21,14:05:10,14:28:52,NA,incomplete,81,color,1,right,Green_Triangle_Chess_3.jpg,Blue_Plus_Stripes_3.jpg,Green_Star_Dots_1.jpg,right,745.0550000066869,true,low,false
aNmkGfdK,32xn26mty2w7ui75x62r6ind7a7l00,3dr23u6we9rwr5sy5o8z2ivphknet5,aNmkGfdK,2020-0188,2020-05-21,14:05:10,14:28:52,NA,incomplete,82,color,1,left,Red_Circle_Grid_1.jpg,Red_Plus_Chess_2.jpg,Green_Triangle_Stripes_1.jpg,left,895.715000006021,true,low,false
aNmkGfdK,32xn26mty2w7ui75x62r6ind7a7l00,3dr23u6we9rwr5sy5o8z2ivphknet5,aNmkGfdK,2020-0188,2020-05-21,14:05:10,14:28:52,NA,incomplete,83,color,1,right,Blue_Circle_Stripes_3.jpg,Red_Triangle_Chess_3.jpg,Blue_Plus_Dots_4.jpg,right,818.3350000035716,true,low,false
aNmkGfdK,32xn26mty2w7ui75x62r6ind7a7l00,3dr23u6we9rwr5sy5o8z2ivphknet5,aNmkGfdK,2020-0188,2020-05-21,14:05:10,14:28:52,NA,incomplete,84,color,1,left,Red_Circle_Stripes_2.jpg,Red_Plus_Chess_3.jpg,Blue_Triangle_Grid_2.jpg,left,1305.2449999959208,true,low,false
aNmkGfdK,32xn26mty2w7ui75x62r6ind7a7l00,3dr23u6we9rwr5sy5o8z2ivphknet5,aNmkGfdK,2020-0188,2020-05-21,14:05:10,14:28:52,NA,incomplete,85,color,1,right,Green_Triangle_Chess_3.jpg,Purple_Circle_Stripes_3.jpg,Green_Star_Grid_4.jpg,right,843.0549999902723,true,low,false
aNmkGfdK,32xn26mty2w7ui75x62r6ind7a7l00,3dr23u6we9rwr5sy5o8z2ivphknet5,aNmkGfdK,2020-0188,2020-05-21,14:05:10,14:28:52,NA,incomplete,86,color,0,left,Purple_Star_Dots_1.jpg,Purple_Plus_Grid_2.jpg,Red_Circle_Chess_1.jpg,left,1038.7599999958184,true,low,false
aNmkGfdK,32xn26mty2w7ui75x62r6ind7a7l00,3dr23u6we9rwr5sy5o8z2ivphknet5,aNmkGfdK,2020-0188,2020-05-21,14:05:10,14:28:52,NA,incomplete,87,color,1,right,Green_Star_Dots_4.jpg,Purple_Circle_Grid_4.jpg,Green_Triangle_Chess_1.jpg,right,1503.839999990305,true,low,false
aNmkGfdK,32xn26mty2w7ui75x62r6ind7a7l00,3dr23u6we9rwr5sy5o8z2ivphknet5,aNmkGfdK,2020-0188,2020-05-21,14:05:10,14:28:52,NA,incomplete,88,color,0,right,Blue_Circle_Grid_2.jpg,Red_Star_Dots_2.jpg,Blue_Triangle_Chess_3.jpg,right,671.8449999898439,true,low,false
aNmkGfdK,32xn26mty2w7ui75x62r6ind7a7l00,3dr23u6we9rwr5sy5o8z2ivphknet5,aNmkGfdK,2020-0188,2020-05-21,14:05:10,14:28:52,NA,incomplete,89,color,1,left,Red_Circle_Chess_3.jpg,Red_Triangle_Stripes_2.jpg,Blue_Plus_Grid_3.jpg,left,572.005000009085,true,low,false
aNmkGfdK,32xn26mty2w7ui75x62r6ind7a7l00,3dr23u6we9rwr5sy5o8z2ivphknet5,aNmkGfdK,2020-0188,2020-05-21,14:05:10,14:28:52,NA,incomplete,90,number,1,right,Green_Star_Chess_2.jpg,Green_Triangle_Dots_1.jpg,Blue_Circle_Stripes_2.jpg,left,733.6050000012619,false,low,false
aNmkGfdK,32xn26mty2w7ui75x62r6ind7a7l00,3dr23u6we9rwr5sy5o8z2ivphknet5,aNmkGfdK,2020-0188,2020-05-21,14:05:10,14:28:52,NA,incomplete,91,number,1,right,Red_Star_Grid_3.jpg,Red_Circle_Dots_2.jpg,Purple_Plus_Chess_3.jpg,left,604.6900000073947,false,low,false
aNmkGfdK,32xn26mty2w7ui75x62r6ind7a7l00,3dr23u6we9rwr5sy5o8z2ivphknet5,aNmkGfdK,2020-0188,2020-05-21,14:05:10,14:28:52,NA,incomplete,92,number,1,right,Green_Circle_Stripes_4.jpg,Green_Plus_Chess_1.jpg,Purple_Triangle_Dots_4.jpg,right,898.509999999078,true,low,false
aNmkGfdK,32xn26mty2w7ui75x62r6ind7a7l00,3dr23u6we9rwr5sy5o8z2ivphknet5,aNmkGfdK,2020-0188,2020-05-21,14:05:10,14:28:52,NA,incomplete,93,number,1,right,Red_Star_Dots_1.jpg,Red_Triangle_Stripes_4.jpg,Blue_Plus_Chess_1.jpg,right,1542.9750000039348,true,low,false
aNmkGfdK,32xn26mty2w7ui75x62r6ind7a7l00,3dr23u6we9rwr5sy5o8z2ivphknet5,aNmkGfdK,2020-0188,2020-05-21,14:05:10,14:28:52,NA,incomplete,94,number,1,left,Green_Circle_Grid_3.jpg,Red_Plus_Chess_3.jpg,Green_Triangle_Dots_4.jpg,left,738.2900000084192,true,low,false
aNmkGfdK,32xn26mty2w7ui75x62r6ind7a7l00,3dr23u6we9rwr5sy5o8z2ivphknet5,aNmkGfdK,2020-0188,2020-05-21,14:05:10,14:28:52,NA,incomplete,95,number,1,right,Blue_Triangle_Stripes_1.jpg,Blue_Plus_Grid_2.jpg,Green_Star_Chess_1.jpg,right,773.3900000021094,true,low,false
aNmkGfdK,32xn26mty2w7ui75x62r6ind7a7l00,3dr23u6we9rwr5sy5o8z2ivphknet5,aNmkGfdK,2020-0188,2020-05-21,14:05:10,14:28:52,NA,incomplete,96,number,1,right,Blue_Circle_Grid_2.jpg,Blue_Triangle_Chess_3.jpg,Green_Plus_Dots_2.jpg,right,1222.5599999947008,true,low,false
aNmkGfdK,32xn26mty2w7ui75x62r6ind7a7l00,3dr23u6we9rwr5sy5o8z2ivphknet5,aNmkGfdK,2020-0188,2020-05-21,14:05:10,14:28:52,NA,incomplete,97,number,1,right,Red_Plus_Dots_3.jpg,Red_Star_Chess_4.jpg,Purple_Triangle_Grid_3.jpg,left,825.875000009546,false,low,false
aNmkGfdK,32xn26mty2w7ui75x62r6ind7a7l00,3dr23u6we9rwr5sy5o8z2ivphknet5,aNmkGfdK,2020-0188,2020-05-21,14:05:10,14:28:52,NA,incomplete,98,number,1,right,Blue_Plus_Dots_2.jpg,Blue_Circle_Chess_3.jpg,Red_Triangle_Stripes_2.jpg,right,1067.4900000012713,true,low,false
aNmkGfdK,32xn26mty2w7ui75x62r6ind7a7l00,3dr23u6we9rwr5sy5o8z2ivphknet5,aNmkGfdK,2020-0188,2020-05-21,14:05:10,14:28:52,NA,incomplete,99,number,1,left,Purple_Triangle_Stripes_3.jpg,Green_Plus_Grid_3.jpg,Purple_Star_Dots_4.jpg,left,918.9500000065891,true,low,false
aNmkGfdK,32xn26mty2w7ui75x62r6ind7a7l00,3dr23u6we9rwr5sy5o8z2ivphknet5,aNmkGfdK,2020-0188,2020-05-21,14:05:10,14:28:52,NA,incomplete,100,number,1,right,Purple_Triangle_Chess_4.jpg,Purple_Plus_Grid_1.jpg,Green_Circle_Stripes_4.jpg,right,674.7350000077859,true,low,false
aNmkGfdK,32xn26mty2w7ui75x62r6ind7a7l00,3dr23u6we9rwr5sy5o8z2ivphknet5,aNmkGfdK,2020-0188,2020-05-21,14:05:10,14:28:52,NA,incomplete,101,number,1,left,Blue_Triangle_Chess_4.jpg,Green_Circle_Dots_4.jpg,Blue_Plus_Grid_1.jpg,left,1062.740000008489,true,low,false
aNmkGfdK,32xn26mty2w7ui75x62r6ind7a7l00,3dr23u6we9rwr5sy5o8z2ivphknet5,aNmkGfdK,2020-0188,2020-05-21,14:05:10,14:28:52,NA,incomplete,102,number,1,right,Red_Circle_Stripes_1.jpg,Red_Plus_Chess_3.jpg,Blue_Star_Dots_1.jpg,right,610.8100000128616,true,low,false
aNmkGfdK,32xn26mty2w7ui75x62r6ind7a7l00,3dr23u6we9rwr5sy5o8z2ivphknet5,aNmkGfdK,2020-0188,2020-05-21,14:05:10,14:28:52,NA,incomplete,103,number,1,right,Green_Circle_Chess_3.jpg,Green_Star_Dots_4.jpg,Red_Triangle_Stripes_3.jpg,right,1201.5249999967637,true,low,false
aNmkGfdK,32xn26mty2w7ui75x62r6ind7a7l00,3dr23u6we9rwr5sy5o8z2ivphknet5,aNmkGfdK,2020-0188,2020-05-21,14:05:10,14:28:52,NA,incomplete,104,number,1,right,Green_Triangle_Chess_4.jpg,Green_Circle_Dots_2.jpg,Red_Plus_Grid_4.jpg,right,913.7750000081724,true,low,false
aNmkGfdK,32xn26mty2w7ui75x62r6ind7a7l00,3dr23u6we9rwr5sy5o8z2ivphknet5,aNmkGfdK,2020-0188,2020-05-21,14:05:10,14:28:52,NA,incomplete,105,number,1,left,Blue_Triangle_Chess_1.jpg,Purple_Circle_Stripes_1.jpg,Blue_Plus_Dots_4.jpg,left,824.0150000056019,true,low,false
aNmkGfdK,32xn26mty2w7ui75x62r6ind7a7l00,3dr23u6we9rwr5sy5o8z2ivphknet5,aNmkGfdK,2020-0188,2020-05-21,14:05:10,14:28:52,NA,incomplete,106,number,1,left,Purple_Star_Grid_4.jpg,Red_Plus_Stripes_4.jpg,Purple_Circle_Chess_3.jpg,left,886.8700000020908,true,low,false
aNmkGfdK,32xn26mty2w7ui75x62r6ind7a7l00,3dr23u6we9rwr5sy5o8z2ivphknet5,aNmkGfdK,2020-0188,2020-05-21,14:05:10,14:28:52,NA,incomplete,107,number,0,left,Blue_Triangle_Dots_3.jpg,Purple_Circle_Grid_3.jpg,Blue_Star_Chess_1.jpg,left,947.954999996,true,low,false
aNmkGfdK,32xn26mty2w7ui75x62r6ind7a7l00,3dr23u6we9rwr5sy5o8z2ivphknet5,aNmkGfdK,2020-0188,2020-05-21,14:05:10,14:28:52,NA,incomplete,108,number,1,right,Red_Star_Chess_4.jpg,Red_Triangle_Stripes_2.jpg,Purple_Plus_Grid_4.jpg,right,720.7600000110688,true,low,false
aNmkGfdK,32xn26mty2w7ui75x62r6ind7a7l00,3dr23u6we9rwr5sy5o8z2ivphknet5,aNmkGfdK,2020-0188,2020-05-21,14:05:10,14:28:52,NA,incomplete,109,number,1,left,Blue_Plus_Stripes_4.jpg,Purple_Circle_Chess_4.jpg,Blue_Star_Dots_3.jpg,left,1140.8599999995204,true,low,false
aNmkGfdK,32xn26mty2w7ui75x62r6ind7a7l00,3dr23u6we9rwr5sy5o8z2ivphknet5,aNmkGfdK,2020-0188,2020-05-21,14:05:10,14:28:52,NA,incomplete,110,number,0,right,Red_Plus_Stripes_2.jpg,Red_Circle_Chess_1.jpg,Green_Star_Grid_2.jpg,right,708.8050000020303,true,low,false
aNmkGfdK,32xn26mty2w7ui75x62r6ind7a7l00,3dr23u6we9rwr5sy5o8z2ivphknet5,aNmkGfdK,2020-0188,2020-05-21,14:05:10,14:28:52,NA,incomplete,111,number,1,right,Blue_Star_Chess_2.jpg,Blue_Triangle_Dots_4.jpg,Purple_Circle_Stripes_2.jpg,right,825.9600000019418,true,low,false
aNmkGfdK,32xn26mty2w7ui75x62r6ind7a7l00,3dr23u6we9rwr5sy5o8z2ivphknet5,aNmkGfdK,2020-0188,2020-05-21,14:05:10,14:28:52,NA,incomplete,112,number,1,right,Red_Plus_Chess_2.jpg,Red_Triangle_Dots_1.jpg,Green_Circle_Stripes_2.jpg,right,680.460000003106,true,low,false
aNmkGfdK,32xn26mty2w7ui75x62r6ind7a7l00,3dr23u6we9rwr5sy5o8z2ivphknet5,aNmkGfdK,2020-0188,2020-05-21,14:05:10,14:28:52,NA,incomplete,113,number,1,left,Red_Plus_Grid_2.jpg,Blue_Circle_Stripes_2.jpg,Red_Star_Chess_1.jpg,left,893.7000000004191,true,low,false
aNmkGfdK,32xn26mty2w7ui75x62r6ind7a7l00,3dr23u6we9rwr5sy5o8z2ivphknet5,aNmkGfdK,2020-0188,2020-05-21,14:05:10,14:28:52,NA,incomplete,114,number,0,left,Blue_Circle_Dots_1.jpg,Green_Plus_Grid_1.jpg,Blue_Triangle_Chess_2.jpg,left,1091.5649999952875,true,low,false
aNmkGfdK,32xn26mty2w7ui75x62r6ind7a7l00,3dr23u6we9rwr5sy5o8z2ivphknet5,aNmkGfdK,2020-0188,2020-05-21,14:05:10,14:28:52,NA,incomplete,115,number,1,right,Red_Triangle_Chess_1.jpg,Red_Plus_Stripes_4.jpg,Purple_Circle_Dots_1.jpg,right,864.0500000037719,true,low,false
aNmkGfdK,32xn26mty2w7ui75x62r6ind7a7l00,3dr23u6we9rwr5sy5o8z2ivphknet5,aNmkGfdK,2020-0188,2020-05-21,14:05:10,14:28:52,NA,incomplete,116,number,0,right,Blue_Circle_Chess_3.jpg,Blue_Plus_Stripes_4.jpg,Red_Triangle_Grid_3.jpg,right,919.0550000057556,true,low,false
aNmkGfdK,32xn26mty2w7ui75x62r6ind7a7l00,3dr23u6we9rwr5sy5o8z2ivphknet5,aNmkGfdK,2020-0188,2020-05-21,14:05:10,14:28:52,NA,incomplete,117,number,1,left,Purple_Plus_Dots_2.jpg,Blue_Star_Grid_2.jpg,Purple_Triangle_Stripes_4.jpg,left,864.9100000038743,true,low,false
aNmkGfdK,32xn26mty2w7ui75x62r6ind7a7l00,3dr23u6we9rwr5sy5o8z2ivphknet5,aNmkGfdK,2020-0188,2020-05-21,14:05:10,14:28:52,NA,incomplete,118,number,1,right,Purple_Triangle_Grid_4.jpg,Purple_Plus_Dots_1.jpg,Blue_Circle_Stripes_4.jpg,right,870.3050000038929,true,low,false
aNmkGfdK,32xn26mty2w7ui75x62r6ind7a7l00,3dr23u6we9rwr5sy5o8z2ivphknet5,aNmkGfdK,2020-0188,2020-05-21,14:05:10,14:28:52,NA,incomplete,119,number,1,left,Green_Triangle_Dots_4.jpg,Purple_Circle_Stripes_4.jpg,Green_Plus_Grid_3.jpg,left,1132.3549999943934,true,low,false
aNmkGfdK,32xn26mty2w7ui75x62r6ind7a7l00,3dr23u6we9rwr5sy5o8z2ivphknet5,aNmkGfdK,2020-0188,2020-05-21,14:05:10,14:28:52,NA,incomplete,120,shape,1,left,Purple_Star_Stripes_3.jpg,Green_Star_Chess_1.jpg,Blue_Circle_Stripes_2.jpg,NA,NA,NA,low,false
aNmkGfdK,32xn26mty2w7ui75x62r6ind7a7l00,3dr23u6we9rwr5sy5o8z2ivphknet5,aNmkGfdK,2020-0188,2020-05-21,14:05:10,14:28:52,NA,incomplete,121,shape,0,right,Red_Triangle_Stripes_2.jpg,Purple_Circle_Stripes_3.jpg,Green_Triangle_Dots_4.jpg,none,0,false,low,false
aNmkGfdK,32xn26mty2w7ui75x62r6ind7a7l00,3dr23u6we9rwr5sy5o8z2ivphknet5,aNmkGfdK,2020-0188,2020-05-21,14:05:10,14:28:52,NA,incomplete,122,shape,1,right,Green_Star_Dots_2.jpg,Blue_Circle_Dots_1.jpg,Purple_Star_Stripes_3.jpg,right,869.8399999993853,true,low,false
aNmkGfdK,32xn26mty2w7ui75x62r6ind7a7l00,3dr23u6we9rwr5sy5o8z2ivphknet5,aNmkGfdK,2020-0188,2020-05-21,14:05:10,14:28:52,NA,incomplete,123,shape,1,left,Red_Triangle_Chess_1.jpg,Green_Triangle_Dots_3.jpg,Blue_Circle_Chess_4.jpg,left,856.4500000067055,true,low,false
aNmkGfdK,32xn26mty2w7ui75x62r6ind7a7l00,3dr23u6we9rwr5sy5o8z2ivphknet5,aNmkGfdK,2020-0188,2020-05-21,14:05:10,14:28:52,NA,incomplete,124,shape,1,left,Purple_Plus_Chess_4.jpg,Green_Plus_Grid_2.jpg,Red_Circle_Chess_3.jpg,left,893.2950000015553,true,low,false
aNmkGfdK,32xn26mty2w7ui75x62r6ind7a7l00,3dr23u6we9rwr5sy5o8z2ivphknet5,aNmkGfdK,2020-0188,2020-05-21,14:05:10,14:28:52,NA,incomplete,125,shape,0,left,Green_Star_Grid_1.jpg,Red_Star_Stripes_3.jpg,Blue_Triangle_Grid_2.jpg,left,692.1899999871384,true,low,false
aNmkGfdK,32xn26mty2w7ui75x62r6ind7a7l00,3dr23u6we9rwr5sy5o8z2ivphknet5,aNmkGfdK,2020-0188,2020-05-21,14:05:10,14:28:52,NA,incomplete,126,shape,1,left,Blue_Star_Dots_1.jpg,Red_Star_Stripes_3.jpg,Purple_Plus_Dots_2.jpg,left,519.4049999990966,true,low,false
aNmkGfdK,32xn26mty2w7ui75x62r6ind7a7l00,3dr23u6we9rwr5sy5o8z2ivphknet5,aNmkGfdK,2020-0188,2020-05-21,14:05:10,14:28:52,NA,incomplete,127,shape,1,left,Red_Star_Grid_3.jpg,Purple_Star_Dots_4.jpg,Blue_Circle_Grid_1.jpg,left,915.0549999903888,true,low,false
aNmkGfdK,32xn26mty2w7ui75x62r6ind7a7l00,3dr23u6we9rwr5sy5o8z2ivphknet5,aNmkGfdK,2020-0188,2020-05-21,14:05:10,14:28:52,NA,incomplete,128,shape,1,right,Blue_Circle_Chess_2.jpg,Red_Triangle_Chess_4.jpg,Green_Circle_Stripes_3.jpg,right,1031.0049999970943,true,low,false
aNmkGfdK,32xn26mty2w7ui75x62r6ind7a7l00,3dr23u6we9rwr5sy5o8z2ivphknet5,aNmkGfdK,2020-0188,2020-05-21,14:05:10,14:28:52,NA,incomplete,129,shape,0,left,Blue_Circle_Stripes_1.jpg,Purple_Circle_Grid_3.jpg,Red_Star_Stripes_4.jpg,left,655.5999999982305,true,low,false
aNmkGfdK,32xn26mty2w7ui75x62r6ind7a7l00,3dr23u6we9rwr5sy5o8z2ivphknet5,aNmkGfdK,2020-0188,2020-05-21,14:05:10,14:28:52,NA,incomplete,130,shape,1,right,Red_Circle_Chess_3.jpg,Purple_Plus_Chess_4.jpg,Blue_Circle_Stripes_2.jpg,right,798.2450000126846,true,low,false
aNmkGfdK,32xn26mty2w7ui75x62r6ind7a7l00,3dr23u6we9rwr5sy5o8z2ivphknet5,aNmkGfdK,2020-0188,2020-05-21,14:05:10,14:28:52,NA,incomplete,131,shape,0,right,Green_Circle_Grid_1.jpg,Red_Plus_Grid_3.jpg,Blue_Circle_Stripes_2.jpg,right,1136.9799999957904,true,low,false
aNmkGfdK,32xn26mty2w7ui75x62r6ind7a7l00,3dr23u6we9rwr5sy5o8z2ivphknet5,aNmkGfdK,2020-0188,2020-05-21,14:05:10,14:28:52,NA,incomplete,132,shape,1,left,Red_Triangle_Stripes_4.jpg,Purple_Triangle_Dots_1.jpg,Green_Plus_Stripes_2.jpg,left,797.4099999992177,true,low,false
aNmkGfdK,32xn26mty2w7ui75x62r6ind7a7l00,3dr23u6we9rwr5sy5o8z2ivphknet5,aNmkGfdK,2020-0188,2020-05-21,14:05:10,14:28:52,NA,incomplete,133,shape,1,right,Purple_Star_Stripes_1.jpg,Blue_Plus_Stripes_3.jpg,Red_Star_Chess_4.jpg,right,705.9199999929406,true,low,false
aNmkGfdK,32xn26mty2w7ui75x62r6ind7a7l00,3dr23u6we9rwr5sy5o8z2ivphknet5,aNmkGfdK,2020-0188,2020-05-21,14:05:10,14:28:52,NA,incomplete,134,shape,1,right,Red_Plus_Dots_2.jpg,Green_Triangle_Dots_3.jpg,Purple_Plus_Chess_4.jpg,right,778.5950000106823,true,low,false
aNmkGfdK,32xn26mty2w7ui75x62r6ind7a7l00,3dr23u6we9rwr5sy5o8z2ivphknet5,aNmkGfdK,2020-0188,2020-05-21,14:05:10,14:28:52,NA,incomplete,135,shape,1,right,Red_Triangle_Dots_3.jpg,Green_Star_Dots_1.jpg,Purple_Triangle_Chess_2.jpg,right,710.1649999967776,true,low,false
aNmkGfdK,32xn26mty2w7ui75x62r6ind7a7l00,3dr23u6we9rwr5sy5o8z2ivphknet5,aNmkGfdK,2020-0188,2020-05-21,14:05:10,14:28:52,NA,incomplete,136,shape,1,right,Green_Circle_Chess_1.jpg,Blue_Star_Chess_4.jpg,Purple_Circle_Dots_2.jpg,right,804.535000002943,true,low,false
aNmkGfdK,32xn26mty2w7ui75x62r6ind7a7l00,3dr23u6we9rwr5sy5o8z2ivphknet5,aNmkGfdK,2020-0188,2020-05-21,14:05:10,14:28:52,NA,incomplete,137,shape,1,left,Blue_Plus_Stripes_3.jpg,Purple_Plus_Chess_4.jpg,Red_Triangle_Stripes_1.jpg,left,740.8549999964889,true,low,false
aNmkGfdK,32xn26mty2w7ui75x62r6ind7a7l00,3dr23u6we9rwr5sy5o8z2ivphknet5,aNmkGfdK,2020-0188,2020-05-21,14:05:10,14:28:52,NA,incomplete,138,shape,1,right,Red_Star_Grid_2.jpg,Blue_Circle_Grid_4.jpg,Green_Star_Dots_3.jpg,right,606.1250000055879,true,low,false
aNmkGfdK,32xn26mty2w7ui75x62r6ind7a7l00,3dr23u6we9rwr5sy5o8z2ivphknet5,aNmkGfdK,2020-0188,2020-05-21,14:05:10,14:28:52,NA,incomplete,139,shape,0,left,Purple_Star_Grid_1.jpg,Red_Star_Dots_3.jpg,Blue_Circle_Grid_4.jpg,left,564.8099999963306,true,low,false
aNmkGfdK,32xn26mty2w7ui75x62r6ind7a7l00,3dr23u6we9rwr5sy5o8z2ivphknet5,aNmkGfdK,2020-0188,2020-05-21,14:05:10,14:28:52,NA,incomplete,140,filling,1,left,Purple_Triangle_Grid_3.jpg,Red_Star_Grid_4.jpg,Blue_Triangle_Chess_1.jpg,right,659.444999997504,false,low,false
aNmkGfdK,32xn26mty2w7ui75x62r6ind7a7l00,3dr23u6we9rwr5sy5o8z2ivphknet5,aNmkGfdK,2020-0188,2020-05-21,14:05:10,14:28:52,NA,incomplete,141,filling,1,left,Purple_Circle_Dots_1.jpg,Green_Star_Dots_2.jpg,Red_Circle_Stripes_4.jpg,right,1169.3999999987427,false,low,false
aNmkGfdK,32xn26mty2w7ui75x62r6ind7a7l00,3dr23u6we9rwr5sy5o8z2ivphknet5,aNmkGfdK,2020-0188,2020-05-21,14:05:10,14:28:52,NA,incomplete,142,filling,1,right,Blue_Triangle_Chess_4.jpg,Green_Triangle_Stripes_2.jpg,Purple_Plus_Chess_3.jpg,right,1025.5049999977928,true,low,false
aNmkGfdK,32xn26mty2w7ui75x62r6ind7a7l00,3dr23u6we9rwr5sy5o8z2ivphknet5,aNmkGfdK,2020-0188,2020-05-21,14:05:10,14:28:52,NA,incomplete,143,filling,1,right,Red_Plus_Stripes_3.jpg,Purple_Plus_Chess_1.jpg,Blue_Circle_Stripes_4.jpg,right,817.7399999985937,true,low,false
aNmkGfdK,32xn26mty2w7ui75x62r6ind7a7l00,3dr23u6we9rwr5sy5o8z2ivphknet5,aNmkGfdK,2020-0188,2020-05-21,14:05:10,14:28:52,NA,incomplete,144,filling,1,left,Red_Circle_Stripes_3.jpg,Purple_Star_Stripes_1.jpg,Green_Circle_Grid_4.jpg,left,1039.5499999867752,true,low,false
aNmkGfdK,32xn26mty2w7ui75x62r6ind7a7l00,3dr23u6we9rwr5sy5o8z2ivphknet5,aNmkGfdK,2020-0188,2020-05-21,14:05:10,14:28:52,NA,incomplete,145,filling,1,right,Green_Circle_Chess_2.jpg,Blue_Circle_Stripes_3.jpg,Red_Star_Chess_1.jpg,right,701.3500000031199,true,low,false
aNmkGfdK,32xn26mty2w7ui75x62r6ind7a7l00,3dr23u6we9rwr5sy5o8z2ivphknet5,aNmkGfdK,2020-0188,2020-05-21,14:05:10,14:28:52,NA,incomplete,146,filling,1,right,Blue_Plus_Stripes_3.jpg,Green_Plus_Grid_2.jpg,Red_Star_Stripes_1.jpg,right,684.9799999906681,true,low,false
aNmkGfdK,32xn26mty2w7ui75x62r6ind7a7l00,3dr23u6we9rwr5sy5o8z2ivphknet5,aNmkGfdK,2020-0188,2020-05-21,14:05:10,14:28:52,NA,incomplete,147,filling,1,right,Red_Star_Dots_1.jpg,Green_Star_Stripes_3.jpg,Blue_Circle_Dots_4.jpg,right,966.5950000053272,true,low,false
aNmkGfdK,32xn26mty2w7ui75x62r6ind7a7l00,3dr23u6we9rwr5sy5o8z2ivphknet5,aNmkGfdK,2020-0188,2020-05-21,14:05:10,14:28:52,NA,incomplete,148,filling,1,right,Green_Star_Dots_4.jpg,Red_Star_Stripes_2.jpg,Blue_Circle_Dots_3.jpg,right,863.3249999985565,true,low,false
aNmkGfdK,32xn26mty2w7ui75x62r6ind7a7l00,3dr23u6we9rwr5sy5o8z2ivphknet5,aNmkGfdK,2020-0188,2020-05-21,14:05:10,14:28:52,NA,incomplete,149,filling,1,right,Green_Plus_Grid_2.jpg,Blue_Plus_Dots_1.jpg,Red_Circle_Grid_4.jpg,right,767.4499999992549,true,low,false
aNmkGfdK,32xn26mty2w7ui75x62r6ind7a7l00,3dr23u6we9rwr5sy5o8z2ivphknet5,aNmkGfdK,2020-0188,2020-05-21,14:05:10,14:28:52,NA,incomplete,150,filling,0,right,Purple_Triangle_Stripes_3.jpg,Blue_Triangle_Grid_4.jpg,Green_Star_Stripes_2.jpg,right,694.9699999967124,true,low,false
aNmkGfdK,32xn26mty2w7ui75x62r6ind7a7l00,3dr23u6we9rwr5sy5o8z2ivphknet5,aNmkGfdK,2020-0188,2020-05-21,14:05:10,14:28:52,NA,incomplete,151,filling,1,right,Green_Circle_Grid_1.jpg,Red_Circle_Dots_4.jpg,Purple_Plus_Grid_2.jpg,right,901.3399999968242,true,low,false
aNmkGfdK,32xn26mty2w7ui75x62r6ind7a7l00,3dr23u6we9rwr5sy5o8z2ivphknet5,aNmkGfdK,2020-0188,2020-05-21,14:05:10,14:28:52,NA,incomplete,152,filling,1,left,Purple_Triangle_Chess_1.jpg,Green_Plus_Chess_4.jpg,Blue_Triangle_Dots_3.jpg,left,857.6549999997951,true,low,false
aNmkGfdK,32xn26mty2w7ui75x62r6ind7a7l00,3dr23u6we9rwr5sy5o8z2ivphknet5,aNmkGfdK,2020-0188,2020-05-21,14:05:10,14:28:52,NA,incomplete,153,filling,1,right,Blue_Star_Dots_2.jpg,Purple_Star_Grid_4.jpg,Red_Plus_Dots_3.jpg,right,843.9950000029057,true,low,false
aNmkGfdK,32xn26mty2w7ui75x62r6ind7a7l00,3dr23u6we9rwr5sy5o8z2ivphknet5,aNmkGfdK,2020-0188,2020-05-21,14:05:10,14:28:52,NA,incomplete,154,filling,0,left,Blue_Triangle_Grid_1.jpg,Purple_Plus_Grid_3.jpg,Red_Triangle_Stripes_4.jpg,left,846.4600000006612,true,low,false
aNmkGfdK,32xn26mty2w7ui75x62r6ind7a7l00,3dr23u6we9rwr5sy5o8z2ivphknet5,aNmkGfdK,2020-0188,2020-05-21,14:05:10,14:28:52,NA,incomplete,155,filling,1,right,Red_Triangle_Grid_3.jpg,Blue_Triangle_Dots_1.jpg,Purple_Circle_Grid_2.jpg,right,818.190000005532,true,low,false
aNmkGfdK,32xn26mty2w7ui75x62r6ind7a7l00,3dr23u6we9rwr5sy5o8z2ivphknet5,aNmkGfdK,2020-0188,2020-05-21,14:05:10,14:28:52,NA,incomplete,156,filling,1,left,Blue_Star_Grid_1.jpg,Green_Plus_Grid_2.jpg,Purple_Star_Dots_4.jpg,left,801.2299999971874,true,low,false
aNmkGfdK,32xn26mty2w7ui75x62r6ind7a7l00,3dr23u6we9rwr5sy5o8z2ivphknet5,aNmkGfdK,2020-0188,2020-05-21,14:05:10,14:28:52,NA,incomplete,157,filling,0,right,Green_Triangle_Stripes_3.jpg,Purple_Triangle_Dots_1.jpg,Blue_Plus_Stripes_4.jpg,right,917.9350000051782,true,low,false
aNmkGfdK,32xn26mty2w7ui75x62r6ind7a7l00,3dr23u6we9rwr5sy5o8z2ivphknet5,aNmkGfdK,2020-0188,2020-05-21,14:05:10,14:28:52,NA,incomplete,158,filling,1,left,Green_Triangle_Dots_2.jpg,Red_Star_Dots_4.jpg,Blue_Triangle_Stripes_1.jpg,left,825.0100000002421,true,low,false
aNmkGfdK,32xn26mty2w7ui75x62r6ind7a7l00,3dr23u6we9rwr5sy5o8z2ivphknet5,aNmkGfdK,2020-0188,2020-05-21,14:05:10,14:28:52,NA,incomplete,159,filling,1,right,Purple_Plus_Chess_4.jpg,Blue_Plus_Dots_2.jpg,Red_Triangle_Chess_1.jpg,right,794.2800000021234,true,low,false
aNmkGfdK,32xn26mty2w7ui75x62r6ind7a7l00,3dr23u6we9rwr5sy5o8z2ivphknet5,aNmkGfdK,2020-0188,2020-05-21,14:05:10,14:28:52,NA,incomplete,160,shape,0,right,Red_Plus_Stripes_1.jpg,Purple_Triangle_Stripes_3.jpg,Blue_Plus_Chess_4.jpg,left,1085.2500000037253,false,low,false
aNmkGfdK,32xn26mty2w7ui75x62r6ind7a7l00,3dr23u6we9rwr5sy5o8z2ivphknet5,aNmkGfdK,2020-0188,2020-05-21,14:05:10,14:28:52,NA,incomplete,161,shape,1,left,Green_Plus_Dots_2.jpg,Red_Plus_Chess_3.jpg,Purple_Circle_Dots_1.jpg,right,654.9749999977648,false,low,false
aNmkGfdK,32xn26mty2w7ui75x62r6ind7a7l00,3dr23u6we9rwr5sy5o8z2ivphknet5,aNmkGfdK,2020-0188,2020-05-21,14:05:10,14:28:52,NA,incomplete,162,shape,1,right,Purple_Triangle_Grid_1.jpg,Red_Plus_Grid_4.jpg,Blue_Triangle_Dots_3.jpg,left,764.6649999951478,false,low,false
aNmkGfdK,32xn26mty2w7ui75x62r6ind7a7l00,3dr23u6we9rwr5sy5o8z2ivphknet5,aNmkGfdK,2020-0188,2020-05-21,14:05:10,14:28:52,NA,incomplete,163,shape,0,left,Red_Circle_Chess_2.jpg,Purple_Circle_Dots_3.jpg,Green_Star_Chess_4.jpg,left,723.2199999997392,true,low,false
aNmkGfdK,32xn26mty2w7ui75x62r6ind7a7l00,3dr23u6we9rwr5sy5o8z2ivphknet5,aNmkGfdK,2020-0188,2020-05-21,14:05:10,14:28:52,NA,incomplete,164,shape,1,left,Blue_Star_Chess_4.jpg,Purple_Star_Grid_3.jpg,Red_Plus_Chess_1.jpg,left,805.8199999940116,true,low,false
aNmkGfdK,32xn26mty2w7ui75x62r6ind7a7l00,3dr23u6we9rwr5sy5o8z2ivphknet5,aNmkGfdK,2020-0188,2020-05-21,14:05:10,14:28:52,NA,incomplete,165,shape,1,right,Red_Circle_Stripes_4.jpg,Purple_Plus_Stripes_3.jpg,Blue_Circle_Chess_1.jpg,right,736.3699999987148,true,low,false
aNmkGfdK,32xn26mty2w7ui75x62r6ind7a7l00,3dr23u6we9rwr5sy5o8z2ivphknet5,aNmkGfdK,2020-0188,2020-05-21,14:05:10,14:28:52,NA,incomplete,166,shape,1,right,Green_Star_Stripes_2.jpg,Purple_Circle_Stripes_4.jpg,Blue_Star_Chess_1.jpg,left,820.2500000044238,false,low,false
aNmkGfdK,32xn26mty2w7ui75x62r6ind7a7l00,3dr23u6we9rwr5sy5o8z2ivphknet5,aNmkGfdK,2020-0188,2020-05-21,14:05:10,14:28:52,NA,incomplete,167,shape,1,left,Green_Star_Grid_3.jpg,Red_Star_Chess_4.jpg,Purple_Triangle_Grid_2.jpg,left,870.9349999988917,true,low,false
aNmkGfdK,32xn26mty2w7ui75x62r6ind7a7l00,3dr23u6we9rwr5sy5o8z2ivphknet5,aNmkGfdK,2020-0188,2020-05-21,14:05:10,14:28:52,NA,incomplete,168,shape,1,left,Purple_Triangle_Chess_1.jpg,Red_Triangle_Grid_4.jpg,Green_Plus_Chess_3.jpg,left,802.6650000102818,true,low,false
aNmkGfdK,32xn26mty2w7ui75x62r6ind7a7l00,3dr23u6we9rwr5sy5o8z2ivphknet5,aNmkGfdK,2020-0188,2020-05-21,14:05:10,14:28:52,NA,incomplete,169,shape,1,right,Purple_Triangle_Stripes_3.jpg,Green_Circle_Stripes_2.jpg,Blue_Triangle_Grid_4.jpg,right,818.3750000025611,true,low,false
aNmkGfdK,32xn26mty2w7ui75x62r6ind7a7l00,3dr23u6we9rwr5sy5o8z2ivphknet5,aNmkGfdK,2020-0188,2020-05-21,14:05:10,14:28:52,NA,incomplete,170,shape,0,left,Purple_Circle_Grid_2.jpg,Red_Circle_Dots_3.jpg,Green_Star_Grid_1.jpg,left,559.345000001369,true,low,false
aNmkGfdK,32xn26mty2w7ui75x62r6ind7a7l00,3dr23u6we9rwr5sy5o8z2ivphknet5,aNmkGfdK,2020-0188,2020-05-21,14:05:10,14:28:52,NA,incomplete,171,shape,1,right,Green_Star_Dots_1.jpg,Red_Plus_Dots_2.jpg,Purple_Star_Chess_3.jpg,right,937.250000002794,true,low,false
aNmkGfdK,32xn26mty2w7ui75x62r6ind7a7l00,3dr23u6we9rwr5sy5o8z2ivphknet5,aNmkGfdK,2020-0188,2020-05-21,14:05:10,14:28:52,NA,incomplete,172,shape,1,right,Red_Star_Stripes_2.jpg,Blue_Circle_Stripes_1.jpg,Green_Star_Grid_4.jpg,right,674.8799999915063,true,low,false
aNmkGfdK,32xn26mty2w7ui75x62r6ind7a7l00,3dr23u6we9rwr5sy5o8z2ivphknet5,aNmkGfdK,2020-0188,2020-05-21,14:05:10,14:28:52,NA,incomplete,173,shape,0,right,Purple_Star_Grid_1.jpg,Red_Triangle_Grid_2.jpg,Blue_Star_Chess_3.jpg,right,791.2199999992736,true,low,false
aNmkGfdK,32xn26mty2w7ui75x62r6ind7a7l00,3dr23u6we9rwr5sy5o8z2ivphknet5,aNmkGfdK,2020-0188,2020-05-21,14:05:10,14:28:52,NA,incomplete,174,shape,1,right,Purple_Triangle_Dots_2.jpg,Green_Star_Dots_3.jpg,Red_Triangle_Chess_4.jpg,right,852.0750000025146,true,low,false
aNmkGfdK,32xn26mty2w7ui75x62r6ind7a7l00,3dr23u6we9rwr5sy5o8z2ivphknet5,aNmkGfdK,2020-0188,2020-05-21,14:05:10,14:28:52,NA,incomplete,175,shape,1,left,Blue_Star_Chess_4.jpg,Red_Star_Dots_2.jpg,Purple_Plus_Chess_3.jpg,left,852.6649999986403,true,low,false
aNmkGfdK,32xn26mty2w7ui75x62r6ind7a7l00,3dr23u6we9rwr5sy5o8z2ivphknet5,aNmkGfdK,2020-0188,2020-05-21,14:05:10,14:28:52,NA,incomplete,176,shape,0,left,Red_Star_Dots_2.jpg,Blue_Star_Stripes_4.jpg,Purple_Triangle_Dots_1.jpg,left,580.4649999919347,true,low,false
aNmkGfdK,32xn26mty2w7ui75x62r6ind7a7l00,3dr23u6we9rwr5sy5o8z2ivphknet5,aNmkGfdK,2020-0188,2020-05-21,14:05:10,14:28:52,NA,incomplete,177,shape,1,left,Red_Plus_Grid_1.jpg,Green_Plus_Chess_4.jpg,Blue_Triangle_Grid_3.jpg,left,947.7750000078231,true,low,false
aNmkGfdK,32xn26mty2w7ui75x62r6ind7a7l00,3dr23u6we9rwr5sy5o8z2ivphknet5,aNmkGfdK,2020-0188,2020-05-21,14:05:10,14:28:52,NA,incomplete,178,shape,1,left,Green_Star_Dots_1.jpg,Purple_Star_Chess_2.jpg,Blue_Plus_Dots_3.jpg,left,635.2200000111479,true,low,false
aNmkGfdK,32xn26mty2w7ui75x62r6ind7a7l00,3dr23u6we9rwr5sy5o8z2ivphknet5,aNmkGfdK,2020-0188,2020-05-21,14:05:10,14:28:52,NA,incomplete,179,shape,0,left,Red_Triangle_Grid_4.jpg,Green_Triangle_Stripes_2.jpg,Purple_Circle_Grid_1.jpg,left,749.0550000073854,true,low,false
aNmkGfdK,32xn26mty2w7ui75x62r6ind7a7l00,3dr23u6we9rwr5sy5o8z2ivphknet5,aNmkGfdK,2020-0188,2020-05-21,14:05:10,14:28:52,NA,incomplete,180,filling,1,left,Blue_Plus_Dots_1.jpg,Red_Triangle_Dots_3.jpg,Purple_Plus_Stripes_2.jpg,right,1015.5150000064168,false,low,false
aNmkGfdK,32xn26mty2w7ui75x62r6ind7a7l00,3dr23u6we9rwr5sy5o8z2ivphknet5,aNmkGfdK,2020-0188,2020-05-21,14:05:10,14:28:52,NA,incomplete,181,filling,1,left,Purple_Star_Stripes_4.jpg,Red_Circle_Stripes_3.jpg,Green_Star_Grid_1.jpg,right,752.3599999987055,false,low,false
aNmkGfdK,32xn26mty2w7ui75x62r6ind7a7l00,3dr23u6we9rwr5sy5o8z2ivphknet5,aNmkGfdK,2020-0188,2020-05-21,14:05:10,14:28:52,NA,incomplete,182,filling,1,right,Red_Triangle_Grid_1.jpg,Blue_Triangle_Chess_3.jpg,Purple_Plus_Grid_2.jpg,right,842.3550000009127,true,low,false
aNmkGfdK,32xn26mty2w7ui75x62r6ind7a7l00,3dr23u6we9rwr5sy5o8z2ivphknet5,aNmkGfdK,2020-0188,2020-05-21,14:05:10,14:28:52,NA,incomplete,183,filling,1,left,Red_Star_Stripes_1.jpg,Green_Plus_Stripes_2.jpg,Blue_Star_Grid_4.jpg,left,940.8699999912642,true,low,false
aNmkGfdK,32xn26mty2w7ui75x62r6ind7a7l00,3dr23u6we9rwr5sy5o8z2ivphknet5,aNmkGfdK,2020-0188,2020-05-21,14:05:10,14:28:52,NA,incomplete,184,filling,1,left,Blue_Plus_Grid_4.jpg,Red_Star_Grid_3.jpg,Green_Plus_Chess_2.jpg,left,929.9699999974109,true,low,false
aNmkGfdK,32xn26mty2w7ui75x62r6ind7a7l00,3dr23u6we9rwr5sy5o8z2ivphknet5,aNmkGfdK,2020-0188,2020-05-21,14:05:10,14:28:52,NA,incomplete,185,filling,1,right,Blue_Triangle_Grid_2.jpg,Purple_Triangle_Stripes_1.jpg,Red_Circle_Grid_4.jpg,right,671.2149999947287,true,low,false
aNmkGfdK,32xn26mty2w7ui75x62r6ind7a7l00,3dr23u6we9rwr5sy5o8z2ivphknet5,aNmkGfdK,2020-0188,2020-05-21,14:05:10,14:28:52,NA,incomplete,186,filling,1,left,Green_Circle_Chess_4.jpg,Red_Plus_Chess_3.jpg,Purple_Circle_Dots_2.jpg,left,707.3800000073388,true,low,false
aNmkGfdK,32xn26mty2w7ui75x62r6ind7a7l00,3dr23u6we9rwr5sy5o8z2ivphknet5,aNmkGfdK,2020-0188,2020-05-21,14:05:10,14:28:52,NA,incomplete,187,filling,0,right,Red_Plus_Chess_1.jpg,Purple_Plus_Stripes_3.jpg,Green_Triangle_Chess_4.jpg,right,860.3600000059232,true,low,false
aNmkGfdK,32xn26mty2w7ui75x62r6ind7a7l00,3dr23u6we9rwr5sy5o8z2ivphknet5,aNmkGfdK,2020-0188,2020-05-21,14:05:10,14:28:52,NA,incomplete,188,filling,1,left,Green_Plus_Dots_1.jpg,Purple_Star_Dots_2.jpg,Blue_Plus_Stripes_4.jpg,left,1083.1349999937229,true,low,false
aNmkGfdK,32xn26mty2w7ui75x62r6ind7a7l00,3dr23u6we9rwr5sy5o8z2ivphknet5,aNmkGfdK,2020-0188,2020-05-21,14:05:10,14:28:52,NA,incomplete,189,filling,0,right,Red_Circle_Dots_1.jpg,Blue_Circle_Chess_4.jpg,Green_Star_Dots_3.jpg,right,683.2900000007357,true,low,false
aNmkGfdK,32xn26mty2w7ui75x62r6ind7a7l00,3dr23u6we9rwr5sy5o8z2ivphknet5,aNmkGfdK,2020-0188,2020-05-21,14:05:10,14:28:52,NA,incomplete,190,filling,1,right,Purple_Star_Dots_2.jpg,Blue_Star_Grid_3.jpg,Green_Plus_Dots_1.jpg,right,712.4300000141375,true,low,false
aNmkGfdK,32xn26mty2w7ui75x62r6ind7a7l00,3dr23u6we9rwr5sy5o8z2ivphknet5,aNmkGfdK,2020-0188,2020-05-21,14:05:10,14:28:52,NA,incomplete,191,filling,1,left,Red_Circle_Chess_4.jpg,Green_Triangle_Chess_1.jpg,Blue_Circle_Dots_2.jpg,left,698.7200000002049,true,low,false
aNmkGfdK,32xn26mty2w7ui75x62r6ind7a7l00,3dr23u6we9rwr5sy5o8z2ivphknet5,aNmkGfdK,2020-0188,2020-05-21,14:05:10,14:28:52,NA,incomplete,192,filling,1,left,Purple_Circle_Dots_3.jpg,Blue_Triangle_Dots_2.jpg,Red_Circle_Chess_4.jpg,left,752.0250000089873,true,low,false
aNmkGfdK,32xn26mty2w7ui75x62r6ind7a7l00,3dr23u6we9rwr5sy5o8z2ivphknet5,aNmkGfdK,2020-0188,2020-05-21,14:05:10,14:28:52,NA,incomplete,193,filling,1,right,Purple_Star_Stripes_2.jpg,Red_Star_Chess_1.jpg,Blue_Plus_Stripes_4.jpg,right,662.1400000003632,true,low,false
aNmkGfdK,32xn26mty2w7ui75x62r6ind7a7l00,3dr23u6we9rwr5sy5o8z2ivphknet5,aNmkGfdK,2020-0188,2020-05-21,14:05:10,14:28:52,NA,incomplete,194,filling,0,right,Blue_Star_Dots_3.jpg,Red_Star_Grid_2.jpg,Purple_Circle_Dots_4.jpg,right,863.5749999957625,true,low,false
aNmkGfdK,32xn26mty2w7ui75x62r6ind7a7l00,3dr23u6we9rwr5sy5o8z2ivphknet5,aNmkGfdK,2020-0188,2020-05-21,14:05:10,14:28:52,NA,incomplete,195,filling,1,right,Blue_Plus_Dots_4.jpg,Green_Plus_Chess_2.jpg,Purple_Triangle_Dots_3.jpg,right,757.1599999936298,true,low,false
aNmkGfdK,32xn26mty2w7ui75x62r6ind7a7l00,3dr23u6we9rwr5sy5o8z2ivphknet5,aNmkGfdK,2020-0188,2020-05-21,14:05:10,14:28:52,NA,incomplete,196,filling,1,left,Blue_Triangle_Grid_3.jpg,Red_Circle_Grid_1.jpg,Purple_Triangle_Chess_4.jpg,left,740.3049999994691,true,low,false
aNmkGfdK,32xn26mty2w7ui75x62r6ind7a7l00,3dr23u6we9rwr5sy5o8z2ivphknet5,aNmkGfdK,2020-0188,2020-05-21,14:05:10,14:28:52,NA,incomplete,197,filling,0,left,Red_Star_Grid_2.jpg,Blue_Plus_Grid_3.jpg,Purple_Star_Stripes_1.jpg,left,817.9600000004284,true,low,false
aNmkGfdK,32xn26mty2w7ui75x62r6ind7a7l00,3dr23u6we9rwr5sy5o8z2ivphknet5,aNmkGfdK,2020-0188,2020-05-21,14:05:10,14:28:52,NA,incomplete,198,filling,1,right,Red_Circle_Stripes_4.jpg,Green_Circle_Grid_2.jpg,Blue_Plus_Stripes_1.jpg,right,740.6400000038557,true,low,false
aNmkGfdK,32xn26mty2w7ui75x62r6ind7a7l00,3dr23u6we9rwr5sy5o8z2ivphknet5,aNmkGfdK,2020-0188,2020-05-21,14:05:10,14:28:52,NA,incomplete,199,filling,1,left,Purple_Triangle_Stripes_1.jpg,Red_Circle_Stripes_4.jpg,Blue_Triangle_Grid_3.jpg,left,844.2999999970198,true,low,false
aNmkGfdK,32xn26mty2w7ui75x62r6ind7a7l00,3dr23u6we9rwr5sy5o8z2ivphknet5,aNmkGfdK,2020-0188,2020-05-21,14:05:10,14:28:52,NA,incomplete,200,shape,1,right,Purple_Star_Stripes_4.jpg,Blue_Triangle_Stripes_3.jpg,Red_Star_Chess_1.jpg,right,616.1350000039674,true,low,false
aNmkGfdK,32xn26mty2w7ui75x62r6ind7a7l00,3dr23u6we9rwr5sy5o8z2ivphknet5,aNmkGfdK,2020-0188,2020-05-21,14:05:10,14:28:52,NA,incomplete,201,shape,1,right,Purple_Plus_Stripes_3.jpg,Green_Circle_Stripes_1.jpg,Blue_Plus_Chess_4.jpg,left,771.3349999976344,false,low,false
aNmkGfdK,32xn26mty2w7ui75x62r6ind7a7l00,3dr23u6we9rwr5sy5o8z2ivphknet5,aNmkGfdK,2020-0188,2020-05-21,14:05:10,14:28:52,NA,incomplete,202,shape,1,left,Blue_Star_Stripes_2.jpg,Green_Star_Grid_4.jpg,Purple_Plus_Stripes_3.jpg,right,776.8950000028126,false,low,false
aNmkGfdK,32xn26mty2w7ui75x62r6ind7a7l00,3dr23u6we9rwr5sy5o8z2ivphknet5,aNmkGfdK,2020-0188,2020-05-21,14:05:10,14:28:52,NA,incomplete,203,shape,1,left,Purple_Plus_Chess_3.jpg,Red_Plus_Dots_2.jpg,Blue_Star_Chess_4.jpg,left,1049.2850000008475,true,low,false
aNmkGfdK,32xn26mty2w7ui75x62r6ind7a7l00,3dr23u6we9rwr5sy5o8z2ivphknet5,aNmkGfdK,2020-0188,2020-05-21,14:05:10,14:28:52,NA,incomplete,204,shape,0,left,Blue_Plus_Chess_4.jpg,Green_Plus_Dots_3.jpg,Purple_Triangle_Chess_2.jpg,left,731.339999998454,true,low,false
aNmkGfdK,32xn26mty2w7ui75x62r6ind7a7l00,3dr23u6we9rwr5sy5o8z2ivphknet5,aNmkGfdK,2020-0188,2020-05-21,14:05:10,14:28:52,NA,incomplete,205,shape,1,right,Green_Circle_Stripes_1.jpg,Blue_Plus_Stripes_3.jpg,Red_Circle_Dots_2.jpg,right,756.5600000089034,true,low,false
aNmkGfdK,32xn26mty2w7ui75x62r6ind7a7l00,3dr23u6we9rwr5sy5o8z2ivphknet5,aNmkGfdK,2020-0188,2020-05-21,14:05:10,14:28:52,NA,incomplete,206,shape,1,right,Purple_Triangle_Dots_2.jpg,Blue_Star_Dots_3.jpg,Red_Triangle_Stripes_1.jpg,right,822.3350000041537,true,low,false
aNmkGfdK,32xn26mty2w7ui75x62r6ind7a7l00,3dr23u6we9rwr5sy5o8z2ivphknet5,aNmkGfdK,2020-0188,2020-05-21,14:05:10,14:28:52,NA,incomplete,207,shape,1,left,Blue_Circle_Chess_1.jpg,Green_Circle_Stripes_2.jpg,Purple_Star_Chess_3.jpg,left,699.4449999912176,true,low,false
aNmkGfdK,32xn26mty2w7ui75x62r6ind7a7l00,3dr23u6we9rwr5sy5o8z2ivphknet5,aNmkGfdK,2020-0188,2020-05-21,14:05:10,14:28:52,NA,incomplete,208,shape,1,left,Green_Circle_Stripes_2.jpg,Red_Circle_Chess_4.jpg,Purple_Triangle_Stripes_1.jpg,left,662.3899999975692,true,low,false
aNmkGfdK,32xn26mty2w7ui75x62r6ind7a7l00,3dr23u6we9rwr5sy5o8z2ivphknet5,aNmkGfdK,2020-0188,2020-05-21,14:05:10,14:28:52,NA,incomplete,209,shape,0,right,Blue_Circle_Dots_4.jpg,Purple_Triangle_Dots_2.jpg,Red_Circle_Grid_3.jpg,right,934.1999999887776,true,low,false
aNmkGfdK,32xn26mty2w7ui75x62r6ind7a7l00,3dr23u6we9rwr5sy5o8z2ivphknet5,aNmkGfdK,2020-0188,2020-05-21,14:05:10,14:28:52,NA,incomplete,210,shape,1,right,Green_Circle_Chess_2.jpg,Blue_Star_Chess_3.jpg,Red_Circle_Dots_1.jpg,right,715.120000008028,true,low,false
aNmkGfdK,32xn26mty2w7ui75x62r6ind7a7l00,3dr23u6we9rwr5sy5o8z2ivphknet5,aNmkGfdK,2020-0188,2020-05-21,14:05:10,14:28:52,NA,incomplete,211,shape,1,left,Red_Plus_Grid_2.jpg,Purple_Plus_Stripes_1.jpg,Green_Circle_Grid_3.jpg,left,749.004999990575,true,low,false
aNmkGfdK,32xn26mty2w7ui75x62r6ind7a7l00,3dr23u6we9rwr5sy5o8z2ivphknet5,aNmkGfdK,2020-0188,2020-05-21,14:05:10,14:28:52,NA,incomplete,212,shape,1,right,Purple_Star_Chess_1.jpg,Blue_Plus_Chess_2.jpg,Red_Star_Dots_4.jpg,right,751.879999996163,true,low,false
aNmkGfdK,32xn26mty2w7ui75x62r6ind7a7l00,3dr23u6we9rwr5sy5o8z2ivphknet5,aNmkGfdK,2020-0188,2020-05-21,14:05:10,14:28:52,NA,incomplete,213,shape,1,left,Blue_Plus_Chess_4.jpg,Green_Plus_Dots_3.jpg,Red_Triangle_Chess_2.jpg,left,798.9449999877252,true,low,false
aNmkGfdK,32xn26mty2w7ui75x62r6ind7a7l00,3dr23u6we9rwr5sy5o8z2ivphknet5,aNmkGfdK,2020-0188,2020-05-21,14:05:10,14:28:52,NA,incomplete,214,shape,1,left,Red_Triangle_Dots_4.jpg,Purple_Triangle_Stripes_2.jpg,Green_Star_Dots_1.jpg,left,681.5550000029616,true,low,false
aNmkGfdK,32xn26mty2w7ui75x62r6ind7a7l00,3dr23u6we9rwr5sy5o8z2ivphknet5,aNmkGfdK,2020-0188,2020-05-21,14:05:10,14:28:52,NA,incomplete,215,shape,1,right,Purple_Circle_Grid_1.jpg,Red_Star_Grid_2.jpg,Green_Circle_Stripes_4.jpg,right,682.5899999968242,true,low,false
aNmkGfdK,32xn26mty2w7ui75x62r6ind7a7l00,3dr23u6we9rwr5sy5o8z2ivphknet5,aNmkGfdK,2020-0188,2020-05-21,14:05:10,14:28:52,NA,incomplete,216,shape,0,left,Purple_Circle_Grid_4.jpg,Blue_Circle_Chess_1.jpg,Red_Plus_Grid_2.jpg,left,607.3150000011083,true,low,false
aNmkGfdK,32xn26mty2w7ui75x62r6ind7a7l00,3dr23u6we9rwr5sy5o8z2ivphknet5,aNmkGfdK,2020-0188,2020-05-21,14:05:10,14:28:52,NA,incomplete,217,shape,1,left,Blue_Circle_Chess_4.jpg,Purple_Circle_Stripes_3.jpg,Green_Triangle_Chess_2.jpg,left,614.8550000071991,true,low,false
aNmkGfdK,32xn26mty2w7ui75x62r6ind7a7l00,3dr23u6we9rwr5sy5o8z2ivphknet5,aNmkGfdK,2020-0188,2020-05-21,14:05:10,14:28:52,NA,incomplete,218,shape,1,right,Red_Circle_Stripes_4.jpg,Blue_Star_Stripes_3.jpg,Purple_Circle_Chess_1.jpg,right,556.1650000016671,true,low,false
aNmkGfdK,32xn26mty2w7ui75x62r6ind7a7l00,3dr23u6we9rwr5sy5o8z2ivphknet5,aNmkGfdK,2020-0188,2020-05-21,14:05:10,14:28:52,NA,incomplete,219,shape,1,left,Green_Star_Stripes_4.jpg,Purple_Star_Chess_2.jpg,Red_Circle_Stripes_3.jpg,left,726.3349999992643,true,low,false
aNmkGfdK,32xn26mty2w7ui75x62r6ind7a7l00,3dr23u6we9rwr5sy5o8z2ivphknet5,aNmkGfdK,2020-0188,2020-05-21,14:05:10,14:28:52,NA,incomplete,220,filling,1,left,Blue_Star_Dots_2.jpg,Red_Plus_Dots_1.jpg,Green_Star_Grid_3.jpg,right,639.2349999949802,false,low,false
aNmkGfdK,32xn26mty2w7ui75x62r6ind7a7l00,3dr23u6we9rwr5sy5o8z2ivphknet5,aNmkGfdK,2020-0188,2020-05-21,14:05:10,14:28:52,NA,incomplete,221,filling,1,left,Red_Circle_Dots_4.jpg,Green_Star_Dots_1.jpg,Purple_Circle_Stripes_2.jpg,right,655.1550000004936,false,low,false
aNmkGfdK,32xn26mty2w7ui75x62r6ind7a7l00,3dr23u6we9rwr5sy5o8z2ivphknet5,aNmkGfdK,2020-0188,2020-05-21,14:05:10,14:28:52,NA,incomplete,222,filling,1,left,Purple_Triangle_Dots_3.jpg,Blue_Plus_Dots_2.jpg,Green_Triangle_Chess_1.jpg,left,1130.7149999921676,true,low,false
aNmkGfdK,32xn26mty2w7ui75x62r6ind7a7l00,3dr23u6we9rwr5sy5o8z2ivphknet5,aNmkGfdK,2020-0188,2020-05-21,14:05:10,14:28:52,NA,incomplete,223,filling,1,right,Purple_Circle_Grid_3.jpg,Red_Circle_Chess_2.jpg,Green_Star_Grid_4.jpg,right,714.2750000057276,true,low,false
aNmkGfdK,32xn26mty2w7ui75x62r6ind7a7l00,3dr23u6we9rwr5sy5o8z2ivphknet5,aNmkGfdK,2020-0188,2020-05-21,14:05:10,14:28:52,NA,incomplete,224,filling,1,right,Blue_Triangle_Grid_2.jpg,Purple_Triangle_Dots_4.jpg,Red_Circle_Grid_3.jpg,right,752.3400000063702,true,low,false
aNmkGfdK,32xn26mty2w7ui75x62r6ind7a7l00,3dr23u6we9rwr5sy5o8z2ivphknet5,aNmkGfdK,2020-0188,2020-05-21,14:05:10,14:28:52,NA,incomplete,225,filling,1,right,Green_Circle_Chess_3.jpg,Purple_Circle_Dots_2.jpg,Red_Triangle_Chess_1.jpg,right,626.390000004787,true,low,false
aNmkGfdK,32xn26mty2w7ui75x62r6ind7a7l00,3dr23u6we9rwr5sy5o8z2ivphknet5,aNmkGfdK,2020-0188,2020-05-21,14:05:10,14:28:52,NA,incomplete,226,filling,1,right,Green_Plus_Stripes_1.jpg,Purple_Plus_Grid_4.jpg,Blue_Circle_Stripes_2.jpg,right,718.1949999940116,true,low,false
aNmkGfdK,32xn26mty2w7ui75x62r6ind7a7l00,3dr23u6we9rwr5sy5o8z2ivphknet5,aNmkGfdK,2020-0188,2020-05-21,14:05:10,14:28:52,NA,incomplete,227,filling,0,right,Blue_Circle_Chess_2.jpg,Red_Circle_Stripes_3.jpg,Green_Star_Chess_4.jpg,right,633.6299999966286,true,low,false
aNmkGfdK,32xn26mty2w7ui75x62r6ind7a7l00,3dr23u6we9rwr5sy5o8z2ivphknet5,aNmkGfdK,2020-0188,2020-05-21,14:05:10,14:28:52,NA,incomplete,228,filling,1,right,Green_Circle_Stripes_3.jpg,Purple_Circle_Chess_1.jpg,Red_Plus_Stripes_4.jpg,right,676.475000000326,true,low,false
aNmkGfdK,32xn26mty2w7ui75x62r6ind7a7l00,3dr23u6we9rwr5sy5o8z2ivphknet5,aNmkGfdK,2020-0188,2020-05-21,14:05:10,14:28:52,NA,incomplete,229,filling,1,right,Red_Plus_Grid_1.jpg,Green_Plus_Stripes_2.jpg,Purple_Star_Grid_4.jpg,right,623.4149999946821,true,low,false
aNmkGfdK,32xn26mty2w7ui75x62r6ind7a7l00,3dr23u6we9rwr5sy5o8z2ivphknet5,aNmkGfdK,2020-0188,2020-05-21,14:05:10,14:28:52,NA,incomplete,230,filling,1,left,Green_Star_Grid_4.jpg,Red_Triangle_Grid_2.jpg,Blue_Star_Chess_1.jpg,left,779.7799999970011,true,low,false
aNmkGfdK,32xn26mty2w7ui75x62r6ind7a7l00,3dr23u6we9rwr5sy5o8z2ivphknet5,aNmkGfdK,2020-0188,2020-05-21,14:05:10,14:28:52,NA,incomplete,231,filling,1,left,Red_Plus_Chess_4.jpg,Purple_Triangle_Chess_3.jpg,Blue_Plus_Dots_2.jpg,left,805.6499999947846,true,low,false
aNmkGfdK,32xn26mty2w7ui75x62r6ind7a7l00,3dr23u6we9rwr5sy5o8z2ivphknet5,aNmkGfdK,2020-0188,2020-05-21,14:05:10,14:28:52,NA,incomplete,232,filling,1,right,Purple_Circle_Dots_2.jpg,Green_Circle_Stripes_3.jpg,Blue_Star_Dots_1.jpg,right,656.4450000007637,true,low,false
aNmkGfdK,32xn26mty2w7ui75x62r6ind7a7l00,3dr23u6we9rwr5sy5o8z2ivphknet5,aNmkGfdK,2020-0188,2020-05-21,14:05:10,14:28:52,NA,incomplete,233,filling,0,left,Blue_Plus_Chess_2.jpg,Purple_Triangle_Chess_3.jpg,Red_Plus_Stripes_4.jpg,left,920.0949999939185,true,low,false
aNmkGfdK,32xn26mty2w7ui75x62r6ind7a7l00,3dr23u6we9rwr5sy5o8z2ivphknet5,aNmkGfdK,2020-0188,2020-05-21,14:05:10,14:28:52,NA,incomplete,234,filling,1,right,Blue_Circle_Grid_4.jpg,Red_Circle_Chess_1.jpg,Purple_Plus_Grid_3.jpg,right,744.8849999927916,true,low,false
aNmkGfdK,32xn26mty2w7ui75x62r6ind7a7l00,3dr23u6we9rwr5sy5o8z2ivphknet5,aNmkGfdK,2020-0188,2020-05-21,14:05:10,14:28:52,NA,incomplete,235,filling,0,left,Green_Circle_Chess_3.jpg,Blue_Triangle_Chess_1.jpg,Red_Circle_Stripes_2.jpg,left,786.0699999874923,true,low,false
aNmkGfdK,32xn26mty2w7ui75x62r6ind7a7l00,3dr23u6we9rwr5sy5o8z2ivphknet5,aNmkGfdK,2020-0188,2020-05-21,14:05:10,14:28:52,NA,incomplete,236,filling,1,left,Green_Plus_Chess_3.jpg,Purple_Star_Chess_4.jpg,Red_Plus_Grid_2.jpg,left,1439.8650000074413,true,low,false
aNmkGfdK,32xn26mty2w7ui75x62r6ind7a7l00,3dr23u6we9rwr5sy5o8z2ivphknet5,aNmkGfdK,2020-0188,2020-05-21,14:05:10,14:28:52,NA,incomplete,237,filling,1,right,Red_Star_Dots_4.jpg,Purple_Star_Grid_2.jpg,Green_Triangle_Dots_1.jpg,right,1119.4300000062212,true,low,false
aNmkGfdK,32xn26mty2w7ui75x62r6ind7a7l00,3dr23u6we9rwr5sy5o8z2ivphknet5,aNmkGfdK,2020-0188,2020-05-21,14:05:10,14:28:52,NA,incomplete,238,filling,1,right,Red_Triangle_Chess_2.jpg,Blue_Triangle_Stripes_1.jpg,Purple_Circle_Chess_4.jpg,right,953.7399999971967,true,low,false
aNmkGfdK,32xn26mty2w7ui75x62r6ind7a7l00,3dr23u6we9rwr5sy5o8z2ivphknet5,aNmkGfdK,2020-0188,2020-05-21,14:05:10,14:28:52,NA,incomplete,239,filling,1,right,Green_Plus_Dots_4.jpg,Blue_Plus_Stripes_2.jpg,Red_Circle_Dots_1.jpg,right,765.9450000063516,true,low,false
aNmkGfdK,32xn26mty2w7ui75x62r6ind7a7l00,3dr23u6we9rwr5sy5o8z2ivphknet5,aNmkGfdK,2020-0188,2020-05-21,14:05:10,14:28:52,NA,NA,instruction example,color,NA,NA,Purple_Star_Grid_4.jpg,Purple_Triangle_Chess_2.jpg,Blue_Plus_Dots_4.jpg,NA,NA,NA,NA,undefined
aNmkGfdK,32xn26mty2w7ui75x62r6ind7a7l00,3dr23u6we9rwr5sy5o8z2ivphknet5,aNmkGfdK,2020-0188,2020-05-21,14:05:10,14:28:52,NA,NA,instruction example,color,NA,NA,Green_Plus_Chess_2.jpg,Blue_Circle_Stripes_2.jpg,Green_Triangle_Dots_3.jpg,NA,NA,NA,NA,undefined
aNmkGfdK,32xn26mty2w7ui75x62r6ind7a7l00,3dr23u6we9rwr5sy5o8z2ivphknet5,aNmkGfdK,2020-0188,2020-05-21,14:05:10,14:28:52,NA,NA,instruction example,color,NA,NA,Purple_Triangle_Dots_4.jpg,Red_Triangle_Grid_3.jpg,Blue_Star_Dots_1.jpg,NA,NA,NA,NA,undefined
aNmkGfdK,32xn26mty2w7ui75x62r6ind7a7l00,3dr23u6we9rwr5sy5o8z2ivphknet5,aNmkGfdK,2020-0188,2020-05-21,14:05:10,14:28:52,NA,NA,instruction example,color,NA,NA,Red_Star_Dots_3.jpg,Green_Triangle_Dots_2.jpg,Purple_Star_Chess_4.jpg,NA,NA,NA,NA,undefined
aNmkGfdK,32xn26mty2w7ui75x62r6ind7a7l00,3dr23u6we9rwr5sy5o8z2ivphknet5,aNmkGfdK,2020-0188,2020-05-21,14:05:10,14:28:52,1384871.5900000096,1404119.6650000056,NA,NA,NA,NA,NA,NA,NA,NA,NA,NA,NA,undefined
