workerId,hitId,assignmentId,subject,studyid,exp_date,exp_start,exp_end,time_start,time_end,trial,type,reward_validity,answer,image_top,image_left,image_right,response,response_time,response_acc,volatility,practice
y9MeHre6,3tl87mo8dp2yrmmv0olc9pahdcwfly,3duzq9u6sq1ceg15besjshnpfznsvh,y9MeHre6,2020-0188,2020-05-21,18:12:27,18:34:20,NA,incomplete,0,color,1,right,Green_Plus_Dots_1.jpg,Purple_Star_Dots_4.jpg,Green_Triangle_Chess_2.jpg,right,947.3199999920325,true,NA,true
y9MeHre6,3tl87mo8dp2yrmmv0olc9pahdcwfly,3duzq9u6sq1ceg15besjshnpfznsvh,y9MeHre6,2020-0188,2020-05-21,18:12:27,18:34:20,NA,incomplete,1,color,1,left,Purple_Circle_Stripes_2.jpg,Purple_Triangle_Grid_4.jpg,Red_Star_Stripes_1.jpg,left,817.6200000016252,true,NA,true
y9MeHre6,3tl87mo8dp2yrmmv0olc9pahdcwfly,3duzq9u6sq1ceg15besjshnpfznsvh,y9MeHre6,2020-0188,2020-05-21,18:12:27,18:34:20,NA,incomplete,2,color,1,left,Red_Star_Grid_3.jpg,Red_Plus_Stripes_4.jpg,Purple_Triangle_Grid_2.jpg,left,724.3449999950826,true,NA,true
y9MeHre6,3tl87mo8dp2yrmmv0olc9pahdcwfly,3duzq9u6sq1ceg15besjshnpfznsvh,y9MeHre6,2020-0188,2020-05-21,18:12:27,18:34:20,NA,incomplete,3,color,1,right,Green_Circle_Dots_2.jpg,Red_Plus_Dots_1.jpg,Green_Star_Chess_3.jpg,right,651.3700000068638,true,NA,true
y9MeHre6,3tl87mo8dp2yrmmv0olc9pahdcwfly,3duzq9u6sq1ceg15besjshnpfznsvh,y9MeHre6,2020-0188,2020-05-21,18:12:27,18:34:20,NA,incomplete,4,color,1,left,Blue_Triangle_Stripes_1.jpg,Blue_Plus_Grid_4.jpg,Green_Circle_Stripes_2.jpg,left,630.3599999955622,true,NA,true
y9MeHre6,3tl87mo8dp2yrmmv0olc9pahdcwfly,3duzq9u6sq1ceg15besjshnpfznsvh,y9MeHre6,2020-0188,2020-05-21,18:12:27,18:34:20,NA,incomplete,5,color,1,right,Blue_Circle_Dots_3.jpg,Purple_Star_Dots_2.jpg,Blue_Plus_Stripes_1.jpg,right,681.8499999935739,true,NA,true
y9MeHre6,3tl87mo8dp2yrmmv0olc9pahdcwfly,3duzq9u6sq1ceg15besjshnpfznsvh,y9MeHre6,2020-0188,2020-05-21,18:12:27,18:34:20,NA,incomplete,6,color,1,left,Blue_Star_Stripes_1.jpg,Blue_Triangle_Dots_3.jpg,Green_Circle_Stripes_2.jpg,left,741.3100000121631,true,NA,true
y9MeHre6,3tl87mo8dp2yrmmv0olc9pahdcwfly,3duzq9u6sq1ceg15besjshnpfznsvh,y9MeHre6,2020-0188,2020-05-21,18:12:27,18:34:20,NA,incomplete,7,color,1,left,Blue_Star_Chess_3.jpg,Blue_Plus_Grid_2.jpg,Green_Triangle_Chess_1.jpg,left,682.9049999942072,true,NA,true
y9MeHre6,3tl87mo8dp2yrmmv0olc9pahdcwfly,3duzq9u6sq1ceg15besjshnpfznsvh,y9MeHre6,2020-0188,2020-05-21,18:12:27,18:34:20,NA,incomplete,8,color,0,right,Green_Star_Chess_4.jpg,Red_Triangle_Chess_2.jpg,Green_Plus_Stripes_1.jpg,right,659.6649999992223,true,NA,true
y9MeHre6,3tl87mo8dp2yrmmv0olc9pahdcwfly,3duzq9u6sq1ceg15besjshnpfznsvh,y9MeHre6,2020-0188,2020-05-21,18:12:27,18:34:20,NA,incomplete,9,color,0,right,Blue_Triangle_Grid_4.jpg,Purple_Circle_Grid_2.jpg,Blue_Star_Dots_3.jpg,right,951.5399999945657,true,NA,true
y9MeHre6,3tl87mo8dp2yrmmv0olc9pahdcwfly,3duzq9u6sq1ceg15besjshnpfznsvh,y9MeHre6,2020-0188,2020-05-21,18:12:27,18:34:20,NA,incomplete,10,color,1,left,Purple_Circle_Chess_1.jpg,Purple_Star_Stripes_2.jpg,Red_Plus_Chess_3.jpg,left,708.7649999884889,true,NA,true
y9MeHre6,3tl87mo8dp2yrmmv0olc9pahdcwfly,3duzq9u6sq1ceg15besjshnpfznsvh,y9MeHre6,2020-0188,2020-05-21,18:12:27,18:34:20,NA,incomplete,11,color,1,right,Green_Triangle_Dots_1.jpg,Red_Circle_Dots_3.jpg,Green_Plus_Chess_4.jpg,right,684.689999994589,true,NA,true
y9MeHre6,3tl87mo8dp2yrmmv0olc9pahdcwfly,3duzq9u6sq1ceg15besjshnpfznsvh,y9MeHre6,2020-0188,2020-05-21,18:12:27,18:34:20,NA,incomplete,12,color,1,right,Blue_Triangle_Dots_4.jpg,Purple_Plus_Dots_2.jpg,Blue_Star_Grid_1.jpg,right,758.0999999918276,true,NA,true
y9MeHre6,3tl87mo8dp2yrmmv0olc9pahdcwfly,3duzq9u6sq1ceg15besjshnpfznsvh,y9MeHre6,2020-0188,2020-05-21,18:12:27,18:34:20,NA,incomplete,13,color,1,right,Purple_Circle_Chess_3.jpg,Red_Triangle_Chess_4.jpg,Purple_Plus_Dots_2.jpg,right,892.3050000012154,true,NA,true
y9MeHre6,3tl87mo8dp2yrmmv0olc9pahdcwfly,3duzq9u6sq1ceg15besjshnpfznsvh,y9MeHre6,2020-0188,2020-05-21,18:12:27,18:34:20,NA,incomplete,14,color,1,right,Red_Plus_Dots_4.jpg,Blue_Triangle_Dots_3.jpg,Red_Circle_Grid_1.jpg,right,909.5399999932852,true,NA,true
y9MeHre6,3tl87mo8dp2yrmmv0olc9pahdcwfly,3duzq9u6sq1ceg15besjshnpfznsvh,y9MeHre6,2020-0188,2020-05-21,18:12:27,18:34:20,NA,incomplete,15,color,0,left,Purple_Triangle_Dots_4.jpg,Purple_Circle_Stripes_2.jpg,Green_Star_Dots_1.jpg,left,748.0399999913061,true,NA,true
y9MeHre6,3tl87mo8dp2yrmmv0olc9pahdcwfly,3duzq9u6sq1ceg15besjshnpfznsvh,y9MeHre6,2020-0188,2020-05-21,18:12:27,18:34:20,NA,incomplete,16,color,1,right,Red_Star_Grid_2.jpg,Green_Plus_Grid_1.jpg,Red_Triangle_Dots_4.jpg,right,1010.6399999931455,true,NA,true
y9MeHre6,3tl87mo8dp2yrmmv0olc9pahdcwfly,3duzq9u6sq1ceg15besjshnpfznsvh,y9MeHre6,2020-0188,2020-05-21,18:12:27,18:34:20,NA,incomplete,17,color,1,left,Blue_Plus_Chess_4.jpg,Blue_Star_Grid_3.jpg,Purple_Circle_Chess_2.jpg,left,847.7500000008149,true,NA,true
y9MeHre6,3tl87mo8dp2yrmmv0olc9pahdcwfly,3duzq9u6sq1ceg15besjshnpfznsvh,y9MeHre6,2020-0188,2020-05-21,18:12:27,18:34:20,NA,incomplete,18,color,1,right,Red_Circle_Chess_4.jpg,Purple_Star_Chess_1.jpg,Red_Triangle_Stripes_2.jpg,right,785.2899999998044,true,NA,true
y9MeHre6,3tl87mo8dp2yrmmv0olc9pahdcwfly,3duzq9u6sq1ceg15besjshnpfznsvh,y9MeHre6,2020-0188,2020-05-21,18:12:27,18:34:20,NA,incomplete,19,color,1,left,Green_Circle_Dots_3.jpg,Green_Plus_Chess_4.jpg,Blue_Star_Dots_1.jpg,left,695.3799999901094,true,NA,true
y9MeHre6,3tl87mo8dp2yrmmv0olc9pahdcwfly,3duzq9u6sq1ceg15besjshnpfznsvh,y9MeHre6,2020-0188,2020-05-21,18:12:27,18:34:20,NA,incomplete,20,filling,1,right,Purple_Plus_Chess_1.jpg,Purple_Triangle_Grid_2.jpg,Red_Star_Chess_3.jpg,right,1727.4500000057742,true,NA,true
y9MeHre6,3tl87mo8dp2yrmmv0olc9pahdcwfly,3duzq9u6sq1ceg15besjshnpfznsvh,y9MeHre6,2020-0188,2020-05-21,18:12:27,18:34:20,NA,incomplete,21,filling,0,left,Red_Circle_Dots_4.jpg,Purple_Plus_Dots_1.jpg,Red_Triangle_Stripes_3.jpg,left,902.9549999977462,true,NA,true
y9MeHre6,3tl87mo8dp2yrmmv0olc9pahdcwfly,3duzq9u6sq1ceg15besjshnpfznsvh,y9MeHre6,2020-0188,2020-05-21,18:12:27,18:34:20,NA,incomplete,22,filling,1,right,Blue_Circle_Grid_1.jpg,Blue_Triangle_Dots_4.jpg,Red_Plus_Grid_3.jpg,right,999.0149999939604,true,NA,true
y9MeHre6,3tl87mo8dp2yrmmv0olc9pahdcwfly,3duzq9u6sq1ceg15besjshnpfznsvh,y9MeHre6,2020-0188,2020-05-21,18:12:27,18:34:20,NA,incomplete,23,filling,1,left,Red_Plus_Chess_3.jpg,Purple_Star_Chess_2.jpg,Red_Triangle_Dots_4.jpg,left,964.124999998603,true,NA,true
y9MeHre6,3tl87mo8dp2yrmmv0olc9pahdcwfly,3duzq9u6sq1ceg15besjshnpfznsvh,y9MeHre6,2020-0188,2020-05-21,18:12:27,18:34:20,NA,incomplete,24,filling,0,right,Blue_Star_Grid_4.jpg,Blue_Plus_Chess_1.jpg,Green_Circle_Grid_3.jpg,right,1025.6800000061048,true,NA,true
y9MeHre6,3tl87mo8dp2yrmmv0olc9pahdcwfly,3duzq9u6sq1ceg15besjshnpfznsvh,y9MeHre6,2020-0188,2020-05-21,18:12:27,18:34:20,NA,incomplete,25,filling,0,right,Green_Plus_Stripes_1.jpg,Green_Star_Chess_3.jpg,Purple_Triangle_Stripes_2.jpg,right,900.7300000084797,true,NA,true
y9MeHre6,3tl87mo8dp2yrmmv0olc9pahdcwfly,3duzq9u6sq1ceg15besjshnpfznsvh,y9MeHre6,2020-0188,2020-05-21,18:12:27,18:34:20,NA,incomplete,26,filling,1,left,Red_Triangle_Chess_3.jpg,Green_Plus_Chess_1.jpg,Red_Circle_Dots_2.jpg,left,1183.245000007446,true,NA,true
y9MeHre6,3tl87mo8dp2yrmmv0olc9pahdcwfly,3duzq9u6sq1ceg15besjshnpfznsvh,y9MeHre6,2020-0188,2020-05-21,18:12:27,18:34:20,NA,incomplete,27,filling,1,right,Red_Circle_Grid_1.jpg,Red_Triangle_Chess_2.jpg,Blue_Plus_Grid_3.jpg,right,1019.3450000078883,true,NA,true
y9MeHre6,3tl87mo8dp2yrmmv0olc9pahdcwfly,3duzq9u6sq1ceg15besjshnpfznsvh,y9MeHre6,2020-0188,2020-05-21,18:12:27,18:34:20,NA,incomplete,28,filling,1,right,Purple_Triangle_Grid_4.jpg,Purple_Circle_Dots_1.jpg,Blue_Star_Grid_3.jpg,right,991.0700000036741,true,NA,true
y9MeHre6,3tl87mo8dp2yrmmv0olc9pahdcwfly,3duzq9u6sq1ceg15besjshnpfznsvh,y9MeHre6,2020-0188,2020-05-21,18:12:27,18:34:20,NA,incomplete,29,filling,1,right,Green_Plus_Chess_3.jpg,Green_Triangle_Dots_2.jpg,Purple_Star_Chess_4.jpg,right,819.6850000094855,true,NA,true
y9MeHre6,3tl87mo8dp2yrmmv0olc9pahdcwfly,3duzq9u6sq1ceg15besjshnpfznsvh,y9MeHre6,2020-0188,2020-05-21,18:12:27,18:34:20,NA,incomplete,30,filling,1,left,Red_Plus_Stripes_3.jpg,Green_Circle_Stripes_2.jpg,Red_Triangle_Grid_4.jpg,right,973.7749999912921,false,NA,true
y9MeHre6,3tl87mo8dp2yrmmv0olc9pahdcwfly,3duzq9u6sq1ceg15besjshnpfznsvh,y9MeHre6,2020-0188,2020-05-21,18:12:27,18:34:20,NA,incomplete,31,filling,1,left,Red_Star_Stripes_2.jpg,Green_Plus_Stripes_4.jpg,Red_Circle_Grid_3.jpg,left,762.4050000013085,true,NA,true
y9MeHre6,3tl87mo8dp2yrmmv0olc9pahdcwfly,3duzq9u6sq1ceg15besjshnpfznsvh,y9MeHre6,2020-0188,2020-05-21,18:12:27,18:34:20,NA,incomplete,32,filling,1,left,Blue_Star_Chess_1.jpg,Red_Triangle_Chess_2.jpg,Blue_Plus_Grid_4.jpg,left,1100.8750000037253,true,NA,true
y9MeHre6,3tl87mo8dp2yrmmv0olc9pahdcwfly,3duzq9u6sq1ceg15besjshnpfznsvh,y9MeHre6,2020-0188,2020-05-21,18:12:27,18:34:20,NA,incomplete,33,filling,0,left,Green_Triangle_Dots_3.jpg,Red_Plus_Dots_1.jpg,Green_Star_Grid_2.jpg,right,914.5299999945564,false,NA,true
y9MeHre6,3tl87mo8dp2yrmmv0olc9pahdcwfly,3duzq9u6sq1ceg15besjshnpfznsvh,y9MeHre6,2020-0188,2020-05-21,18:12:27,18:34:20,NA,incomplete,34,filling,1,left,Green_Star_Chess_2.jpg,Purple_Triangle_Chess_3.jpg,Green_Circle_Dots_1.jpg,left,834.805000005872,true,NA,true
y9MeHre6,3tl87mo8dp2yrmmv0olc9pahdcwfly,3duzq9u6sq1ceg15besjshnpfznsvh,y9MeHre6,2020-0188,2020-05-21,18:12:27,18:34:20,NA,incomplete,35,filling,1,left,Blue_Star_Grid_3.jpg,Red_Triangle_Grid_4.jpg,Blue_Circle_Chess_2.jpg,left,1059.6150000055786,true,NA,true
y9MeHre6,3tl87mo8dp2yrmmv0olc9pahdcwfly,3duzq9u6sq1ceg15besjshnpfznsvh,y9MeHre6,2020-0188,2020-05-21,18:12:27,18:34:20,NA,incomplete,36,filling,1,right,Green_Circle_Dots_4.jpg,Green_Star_Grid_2.jpg,Blue_Triangle_Dots_1.jpg,right,783.8699999992969,true,NA,true
y9MeHre6,3tl87mo8dp2yrmmv0olc9pahdcwfly,3duzq9u6sq1ceg15besjshnpfznsvh,y9MeHre6,2020-0188,2020-05-21,18:12:27,18:34:20,NA,incomplete,37,filling,1,right,Green_Circle_Grid_1.jpg,Green_Plus_Dots_2.jpg,Purple_Star_Grid_4.jpg,left,813.0750000127591,false,NA,true
y9MeHre6,3tl87mo8dp2yrmmv0olc9pahdcwfly,3duzq9u6sq1ceg15besjshnpfznsvh,y9MeHre6,2020-0188,2020-05-21,18:12:27,18:34:20,NA,incomplete,38,filling,0,right,Purple_Circle_Grid_2.jpg,Purple_Star_Chess_4.jpg,Red_Triangle_Grid_1.jpg,right,792.92500000156,true,NA,true
y9MeHre6,3tl87mo8dp2yrmmv0olc9pahdcwfly,3duzq9u6sq1ceg15besjshnpfznsvh,y9MeHre6,2020-0188,2020-05-21,18:12:27,18:34:20,NA,incomplete,39,filling,1,left,Red_Plus_Grid_1.jpg,Green_Triangle_Grid_3.jpg,Red_Star_Dots_2.jpg,left,845.7499999931315,true,NA,true
y9MeHre6,3tl87mo8dp2yrmmv0olc9pahdcwfly,3duzq9u6sq1ceg15besjshnpfznsvh,y9MeHre6,2020-0188,2020-05-21,18:12:27,18:34:20,NA,incomplete,0,color,1,right,Green_Circle_Chess_2.jpg,Blue_Triangle_Chess_3.jpg,Green_Plus_Dots_4.jpg,right,834.4250000081956,true,high,false
y9MeHre6,3tl87mo8dp2yrmmv0olc9pahdcwfly,3duzq9u6sq1ceg15besjshnpfznsvh,y9MeHre6,2020-0188,2020-05-21,18:12:27,18:34:20,NA,incomplete,1,color,1,left,Red_Triangle_Dots_1.jpg,Red_Circle_Grid_4.jpg,Green_Star_Dots_3.jpg,left,950.5250000074739,true,high,false
y9MeHre6,3tl87mo8dp2yrmmv0olc9pahdcwfly,3duzq9u6sq1ceg15besjshnpfznsvh,y9MeHre6,2020-0188,2020-05-21,18:12:27,18:34:20,NA,incomplete,2,color,1,left,Blue_Triangle_Chess_2.jpg,Blue_Star_Grid_3.jpg,Purple_Plus_Chess_1.jpg,left,548.0749999987893,true,high,false
y9MeHre6,3tl87mo8dp2yrmmv0olc9pahdcwfly,3duzq9u6sq1ceg15besjshnpfznsvh,y9MeHre6,2020-0188,2020-05-21,18:12:27,18:34:20,NA,incomplete,3,color,0,left,Blue_Triangle_Chess_4.jpg,Blue_Circle_Stripes_2.jpg,Purple_Plus_Chess_1.jpg,left,595.2399999951012,true,high,false
y9MeHre6,3tl87mo8dp2yrmmv0olc9pahdcwfly,3duzq9u6sq1ceg15besjshnpfznsvh,y9MeHre6,2020-0188,2020-05-21,18:12:27,18:34:20,NA,incomplete,4,color,1,left,Purple_Triangle_Chess_2.jpg,Purple_Plus_Grid_1.jpg,Green_Circle_Chess_4.jpg,left,606.2800000072457,true,high,false
y9MeHre6,3tl87mo8dp2yrmmv0olc9pahdcwfly,3duzq9u6sq1ceg15besjshnpfznsvh,y9MeHre6,2020-0188,2020-05-21,18:12:27,18:34:20,NA,incomplete,5,color,1,left,Red_Plus_Chess_2.jpg,Red_Circle_Stripes_3.jpg,Green_Triangle_Chess_1.jpg,left,633.3599999925354,true,high,false
y9MeHre6,3tl87mo8dp2yrmmv0olc9pahdcwfly,3duzq9u6sq1ceg15besjshnpfznsvh,y9MeHre6,2020-0188,2020-05-21,18:12:27,18:34:20,NA,incomplete,6,color,0,right,Green_Plus_Grid_1.jpg,Blue_Triangle_Grid_3.jpg,Green_Circle_Dots_2.jpg,right,551.7600000021048,true,high,false
y9MeHre6,3tl87mo8dp2yrmmv0olc9pahdcwfly,3duzq9u6sq1ceg15besjshnpfznsvh,y9MeHre6,2020-0188,2020-05-21,18:12:27,18:34:20,NA,incomplete,7,color,1,right,Blue_Triangle_Stripes_3.jpg,Red_Star_Stripes_1.jpg,Blue_Circle_Grid_2.jpg,left,1006.8999999930384,false,high,false
y9MeHre6,3tl87mo8dp2yrmmv0olc9pahdcwfly,3duzq9u6sq1ceg15besjshnpfznsvh,y9MeHre6,2020-0188,2020-05-21,18:12:27,18:34:20,NA,incomplete,8,color,1,left,Green_Plus_Chess_2.jpg,Green_Circle_Grid_1.jpg,Red_Star_Chess_3.jpg,left,576.744999998482,true,high,false
y9MeHre6,3tl87mo8dp2yrmmv0olc9pahdcwfly,3duzq9u6sq1ceg15besjshnpfznsvh,y9MeHre6,2020-0188,2020-05-21,18:12:27,18:34:20,NA,incomplete,9,color,1,right,Red_Circle_Stripes_1.jpg,Purple_Triangle_Stripes_4.jpg,Red_Plus_Dots_3.jpg,right,519.8149999923771,true,high,false
y9MeHre6,3tl87mo8dp2yrmmv0olc9pahdcwfly,3duzq9u6sq1ceg15besjshnpfznsvh,y9MeHre6,2020-0188,2020-05-21,18:12:27,18:34:20,NA,incomplete,10,filling,1,left,Purple_Plus_Stripes_3.jpg,Green_Triangle_Stripes_1.jpg,Purple_Star_Dots_4.jpg,right,582.3299999901792,false,high,false
y9MeHre6,3tl87mo8dp2yrmmv0olc9pahdcwfly,3duzq9u6sq1ceg15besjshnpfznsvh,y9MeHre6,2020-0188,2020-05-21,18:12:27,18:34:20,NA,incomplete,11,filling,1,right,Green_Plus_Dots_4.jpg,Green_Triangle_Grid_1.jpg,Purple_Circle_Dots_3.jpg,left,604.2649999872083,false,high,false
y9MeHre6,3tl87mo8dp2yrmmv0olc9pahdcwfly,3duzq9u6sq1ceg15besjshnpfznsvh,y9MeHre6,2020-0188,2020-05-21,18:12:27,18:34:20,NA,incomplete,12,filling,1,left,Purple_Plus_Grid_3.jpg,Green_Star_Grid_1.jpg,Purple_Circle_Chess_2.jpg,right,614.8150000080932,false,high,false
y9MeHre6,3tl87mo8dp2yrmmv0olc9pahdcwfly,3duzq9u6sq1ceg15besjshnpfznsvh,y9MeHre6,2020-0188,2020-05-21,18:12:27,18:34:20,NA,incomplete,13,filling,1,right,Blue_Circle_Grid_4.jpg,Blue_Plus_Stripes_1.jpg,Green_Star_Grid_2.jpg,left,754.8150000075111,false,high,false
y9MeHre6,3tl87mo8dp2yrmmv0olc9pahdcwfly,3duzq9u6sq1ceg15besjshnpfznsvh,y9MeHre6,2020-0188,2020-05-21,18:12:27,18:34:20,NA,incomplete,14,filling,1,left,Green_Circle_Chess_1.jpg,Red_Plus_Chess_4.jpg,Green_Star_Grid_3.jpg,left,1040.7050000067102,true,high,false
y9MeHre6,3tl87mo8dp2yrmmv0olc9pahdcwfly,3duzq9u6sq1ceg15besjshnpfznsvh,y9MeHre6,2020-0188,2020-05-21,18:12:27,18:34:20,NA,incomplete,15,filling,1,right,Green_Triangle_Grid_2.jpg,Green_Star_Dots_3.jpg,Red_Circle_Grid_4.jpg,right,779.6950000047218,true,high,false
y9MeHre6,3tl87mo8dp2yrmmv0olc9pahdcwfly,3duzq9u6sq1ceg15besjshnpfznsvh,y9MeHre6,2020-0188,2020-05-21,18:12:27,18:34:20,NA,incomplete,16,filling,1,left,Blue_Star_Dots_4.jpg,Red_Plus_Dots_3.jpg,Blue_Triangle_Grid_1.jpg,left,809.3000000080792,true,high,false
y9MeHre6,3tl87mo8dp2yrmmv0olc9pahdcwfly,3duzq9u6sq1ceg15besjshnpfznsvh,y9MeHre6,2020-0188,2020-05-21,18:12:27,18:34:20,NA,incomplete,17,filling,1,right,Green_Plus_Dots_1.jpg,Green_Circle_Chess_2.jpg,Red_Star_Dots_3.jpg,left,988.0050000065239,false,high,false
y9MeHre6,3tl87mo8dp2yrmmv0olc9pahdcwfly,3duzq9u6sq1ceg15besjshnpfznsvh,y9MeHre6,2020-0188,2020-05-21,18:12:27,18:34:20,NA,incomplete,18,filling,1,left,Red_Circle_Dots_3.jpg,Blue_Star_Dots_2.jpg,Red_Triangle_Stripes_4.jpg,left,729.9849999981234,true,high,false
y9MeHre6,3tl87mo8dp2yrmmv0olc9pahdcwfly,3duzq9u6sq1ceg15besjshnpfznsvh,y9MeHre6,2020-0188,2020-05-21,18:12:27,18:34:20,NA,incomplete,19,filling,1,right,Blue_Triangle_Dots_1.jpg,Blue_Plus_Stripes_3.jpg,Red_Circle_Dots_2.jpg,right,714.3550000037067,true,high,false
y9MeHre6,3tl87mo8dp2yrmmv0olc9pahdcwfly,3duzq9u6sq1ceg15besjshnpfznsvh,y9MeHre6,2020-0188,2020-05-21,18:12:27,18:34:20,NA,incomplete,20,color,1,left,Blue_Triangle_Dots_1.jpg,Blue_Plus_Stripes_4.jpg,Green_Circle_Dots_2.jpg,right,736.8450000067241,false,high,false
y9MeHre6,3tl87mo8dp2yrmmv0olc9pahdcwfly,3duzq9u6sq1ceg15besjshnpfznsvh,y9MeHre6,2020-0188,2020-05-21,18:12:27,18:34:20,NA,incomplete,21,color,1,right,Purple_Star_Stripes_1.jpg,Green_Triangle_Stripes_3.jpg,Purple_Plus_Dots_4.jpg,right,918.4649999951944,true,high,false
y9MeHre6,3tl87mo8dp2yrmmv0olc9pahdcwfly,3duzq9u6sq1ceg15besjshnpfznsvh,y9MeHre6,2020-0188,2020-05-21,18:12:27,18:34:20,NA,incomplete,22,color,1,right,Green_Star_Stripes_1.jpg,Purple_Circle_Stripes_4.jpg,Green_Plus_Dots_2.jpg,right,830.5899999977555,true,high,false
y9MeHre6,3tl87mo8dp2yrmmv0olc9pahdcwfly,3duzq9u6sq1ceg15besjshnpfznsvh,y9MeHre6,2020-0188,2020-05-21,18:12:27,18:34:20,NA,incomplete,23,color,1,right,Red_Plus_Chess_3.jpg,Purple_Star_Chess_1.jpg,Red_Circle_Grid_2.jpg,right,654.1500000021188,true,high,false
y9MeHre6,3tl87mo8dp2yrmmv0olc9pahdcwfly,3duzq9u6sq1ceg15besjshnpfznsvh,y9MeHre6,2020-0188,2020-05-21,18:12:27,18:34:20,NA,incomplete,24,color,0,right,Red_Circle_Grid_1.jpg,Blue_Star_Grid_2.jpg,Red_Triangle_Stripes_4.jpg,right,501.08000000182074,true,high,false
y9MeHre6,3tl87mo8dp2yrmmv0olc9pahdcwfly,3duzq9u6sq1ceg15besjshnpfznsvh,y9MeHre6,2020-0188,2020-05-21,18:12:27,18:34:20,NA,incomplete,25,color,1,left,Red_Star_Chess_4.jpg,Red_Plus_Stripes_1.jpg,Blue_Triangle_Chess_2.jpg,right,950.779999999213,false,high,false
y9MeHre6,3tl87mo8dp2yrmmv0olc9pahdcwfly,3duzq9u6sq1ceg15besjshnpfznsvh,y9MeHre6,2020-0188,2020-05-21,18:12:27,18:34:20,NA,incomplete,26,color,0,right,Blue_Circle_Grid_3.jpg,Green_Triangle_Grid_4.jpg,Blue_Plus_Dots_1.jpg,right,916.0899999988033,true,high,false
y9MeHre6,3tl87mo8dp2yrmmv0olc9pahdcwfly,3duzq9u6sq1ceg15besjshnpfznsvh,y9MeHre6,2020-0188,2020-05-21,18:12:27,18:34:20,NA,incomplete,27,color,1,left,Purple_Plus_Chess_4.jpg,Purple_Triangle_Grid_1.jpg,Blue_Circle_Chess_2.jpg,right,926.6550000029383,false,high,false
y9MeHre6,3tl87mo8dp2yrmmv0olc9pahdcwfly,3duzq9u6sq1ceg15besjshnpfznsvh,y9MeHre6,2020-0188,2020-05-21,18:12:27,18:34:20,NA,incomplete,28,color,1,right,Purple_Circle_Stripes_4.jpg,Blue_Plus_Stripes_1.jpg,Purple_Star_Grid_2.jpg,right,1220.8249999966938,true,high,false
y9MeHre6,3tl87mo8dp2yrmmv0olc9pahdcwfly,3duzq9u6sq1ceg15besjshnpfznsvh,y9MeHre6,2020-0188,2020-05-21,18:12:27,18:34:20,NA,incomplete,29,color,1,left,Blue_Circle_Dots_1.jpg,Blue_Star_Stripes_4.jpg,Purple_Plus_Dots_2.jpg,left,736.5699999936623,true,high,false
y9MeHre6,3tl87mo8dp2yrmmv0olc9pahdcwfly,3duzq9u6sq1ceg15besjshnpfznsvh,y9MeHre6,2020-0188,2020-05-21,18:12:27,18:34:20,NA,incomplete,30,filling,1,right,Red_Triangle_Chess_3.jpg,Red_Plus_Grid_1.jpg,Green_Circle_Chess_4.jpg,left,718.0249999946682,false,high,false
y9MeHre6,3tl87mo8dp2yrmmv0olc9pahdcwfly,3duzq9u6sq1ceg15besjshnpfznsvh,y9MeHre6,2020-0188,2020-05-21,18:12:27,18:34:20,NA,incomplete,31,filling,1,right,Green_Star_Chess_2.jpg,Green_Triangle_Stripes_1.jpg,Purple_Circle_Chess_3.jpg,right,725.9150000027148,true,high,false
y9MeHre6,3tl87mo8dp2yrmmv0olc9pahdcwfly,3duzq9u6sq1ceg15besjshnpfznsvh,y9MeHre6,2020-0188,2020-05-21,18:12:27,18:34:20,NA,incomplete,32,filling,1,left,Purple_Plus_Dots_3.jpg,Blue_Star_Dots_1.jpg,Purple_Circle_Grid_2.jpg,left,829.7000000020489,true,high,false
y9MeHre6,3tl87mo8dp2yrmmv0olc9pahdcwfly,3duzq9u6sq1ceg15besjshnpfznsvh,y9MeHre6,2020-0188,2020-05-21,18:12:27,18:34:20,NA,incomplete,33,filling,1,left,Green_Plus_Stripes_2.jpg,Blue_Star_Stripes_3.jpg,Green_Circle_Chess_1.jpg,left,785.3999999933876,true,high,false
y9MeHre6,3tl87mo8dp2yrmmv0olc9pahdcwfly,3duzq9u6sq1ceg15besjshnpfznsvh,y9MeHre6,2020-0188,2020-05-21,18:12:27,18:34:20,NA,incomplete,34,filling,1,right,Blue_Plus_Grid_2.jpg,Blue_Circle_Dots_4.jpg,Red_Star_Grid_1.jpg,left,718.1350000028033,false,high,false
y9MeHre6,3tl87mo8dp2yrmmv0olc9pahdcwfly,3duzq9u6sq1ceg15besjshnpfznsvh,y9MeHre6,2020-0188,2020-05-21,18:12:27,18:34:20,NA,incomplete,35,filling,1,right,Red_Star_Grid_3.jpg,Red_Plus_Dots_4.jpg,Purple_Circle_Grid_1.jpg,right,758.9299999963259,true,high,false
y9MeHre6,3tl87mo8dp2yrmmv0olc9pahdcwfly,3duzq9u6sq1ceg15besjshnpfznsvh,y9MeHre6,2020-0188,2020-05-21,18:12:27,18:34:20,NA,incomplete,36,filling,1,left,Red_Plus_Chess_1.jpg,Purple_Triangle_Chess_3.jpg,Red_Circle_Stripes_2.jpg,left,739.6849999931874,true,high,false
y9MeHre6,3tl87mo8dp2yrmmv0olc9pahdcwfly,3duzq9u6sq1ceg15besjshnpfznsvh,y9MeHre6,2020-0188,2020-05-21,18:12:27,18:34:20,NA,incomplete,37,filling,1,left,Red_Circle_Grid_3.jpg,Blue_Triangle_Grid_1.jpg,Red_Plus_Chess_2.jpg,left,786.8100000050617,true,high,false
y9MeHre6,3tl87mo8dp2yrmmv0olc9pahdcwfly,3duzq9u6sq1ceg15besjshnpfznsvh,y9MeHre6,2020-0188,2020-05-21,18:12:27,18:34:20,NA,incomplete,38,filling,1,left,Green_Star_Grid_1.jpg,Purple_Plus_Grid_2.jpg,Green_Triangle_Stripes_4.jpg,left,769.0750000037951,true,high,false
y9MeHre6,3tl87mo8dp2yrmmv0olc9pahdcwfly,3duzq9u6sq1ceg15besjshnpfznsvh,y9MeHre6,2020-0188,2020-05-21,18:12:27,18:34:20,NA,incomplete,39,filling,0,left,Green_Plus_Grid_1.jpg,Purple_Triangle_Grid_4.jpg,Green_Star_Dots_3.jpg,left,757.4699999968288,true,high,false
y9MeHre6,3tl87mo8dp2yrmmv0olc9pahdcwfly,3duzq9u6sq1ceg15besjshnpfznsvh,y9MeHre6,2020-0188,2020-05-21,18:12:27,18:34:20,NA,incomplete,40,color,0,right,Purple_Triangle_Stripes_3.jpg,Green_Plus_Stripes_1.jpg,Purple_Circle_Grid_4.jpg,right,578.654999990249,true,high,false
y9MeHre6,3tl87mo8dp2yrmmv0olc9pahdcwfly,3duzq9u6sq1ceg15besjshnpfznsvh,y9MeHre6,2020-0188,2020-05-21,18:12:27,18:34:20,NA,incomplete,41,color,1,left,Red_Star_Dots_4.jpg,Red_Plus_Chess_3.jpg,Green_Triangle_Dots_1.jpg,right,824.6999999973923,false,high,false
y9MeHre6,3tl87mo8dp2yrmmv0olc9pahdcwfly,3duzq9u6sq1ceg15besjshnpfznsvh,y9MeHre6,2020-0188,2020-05-21,18:12:27,18:34:20,NA,incomplete,42,color,1,left,Red_Plus_Chess_4.jpg,Red_Star_Stripes_3.jpg,Green_Triangle_Chess_2.jpg,left,595.8149999933084,true,high,false
y9MeHre6,3tl87mo8dp2yrmmv0olc9pahdcwfly,3duzq9u6sq1ceg15besjshnpfznsvh,y9MeHre6,2020-0188,2020-05-21,18:12:27,18:34:20,NA,incomplete,43,color,1,left,Red_Circle_Stripes_4.jpg,Red_Plus_Grid_3.jpg,Purple_Star_Stripes_1.jpg,left,588.0449999967823,true,high,false
y9MeHre6,3tl87mo8dp2yrmmv0olc9pahdcwfly,3duzq9u6sq1ceg15besjshnpfznsvh,y9MeHre6,2020-0188,2020-05-21,18:12:27,18:34:20,NA,incomplete,44,color,0,right,Red_Triangle_Grid_1.jpg,Green_Star_Grid_2.jpg,Red_Circle_Chess_3.jpg,right,606.4349999942351,true,high,false
y9MeHre6,3tl87mo8dp2yrmmv0olc9pahdcwfly,3duzq9u6sq1ceg15besjshnpfznsvh,y9MeHre6,2020-0188,2020-05-21,18:12:27,18:34:20,NA,incomplete,45,color,1,left,Purple_Triangle_Grid_4.jpg,Purple_Plus_Chess_3.jpg,Green_Star_Grid_2.jpg,left,650.1499999867519,true,high,false
y9MeHre6,3tl87mo8dp2yrmmv0olc9pahdcwfly,3duzq9u6sq1ceg15besjshnpfznsvh,y9MeHre6,2020-0188,2020-05-21,18:12:27,18:34:20,NA,incomplete,46,color,1,right,Green_Star_Dots_2.jpg,Red_Circle_Dots_1.jpg,Green_Triangle_Chess_3.jpg,right,549.0049999934854,true,high,false
y9MeHre6,3tl87mo8dp2yrmmv0olc9pahdcwfly,3duzq9u6sq1ceg15besjshnpfznsvh,y9MeHre6,2020-0188,2020-05-21,18:12:27,18:34:20,NA,incomplete,47,color,1,right,Green_Circle_Dots_1.jpg,Red_Star_Dots_4.jpg,Green_Triangle_Grid_2.jpg,right,643.7500000029104,true,high,false
y9MeHre6,3tl87mo8dp2yrmmv0olc9pahdcwfly,3duzq9u6sq1ceg15besjshnpfznsvh,y9MeHre6,2020-0188,2020-05-21,18:12:27,18:34:20,NA,incomplete,48,color,1,left,Blue_Triangle_Stripes_4.jpg,Blue_Circle_Chess_3.jpg,Green_Star_Stripes_2.jpg,left,677.994999990915,true,high,false
y9MeHre6,3tl87mo8dp2yrmmv0olc9pahdcwfly,3duzq9u6sq1ceg15besjshnpfznsvh,y9MeHre6,2020-0188,2020-05-21,18:12:27,18:34:20,NA,incomplete,49,color,1,right,Red_Star_Dots_2.jpg,Purple_Triangle_Dots_4.jpg,Red_Circle_Chess_3.jpg,right,601.8349999940256,true,high,false
y9MeHre6,3tl87mo8dp2yrmmv0olc9pahdcwfly,3duzq9u6sq1ceg15besjshnpfznsvh,y9MeHre6,2020-0188,2020-05-21,18:12:27,18:34:20,NA,incomplete,50,filling,0,left,Purple_Plus_Stripes_2.jpg,Red_Triangle_Stripes_4.jpg,Purple_Circle_Grid_3.jpg,right,595.2400000096532,false,high,false
y9MeHre6,3tl87mo8dp2yrmmv0olc9pahdcwfly,3duzq9u6sq1ceg15besjshnpfznsvh,y9MeHre6,2020-0188,2020-05-21,18:12:27,18:34:20,NA,incomplete,51,filling,1,right,Green_Star_Stripes_2.jpg,Green_Triangle_Grid_4.jpg,Red_Plus_Stripes_1.jpg,left,592.850000000908,false,high,false
y9MeHre6,3tl87mo8dp2yrmmv0olc9pahdcwfly,3duzq9u6sq1ceg15besjshnpfznsvh,y9MeHre6,2020-0188,2020-05-21,18:12:27,18:34:20,NA,incomplete,52,filling,1,right,Purple_Star_Grid_4.jpg,Purple_Triangle_Chess_3.jpg,Red_Plus_Grid_2.jpg,right,589.8750000051223,true,high,false
y9MeHre6,3tl87mo8dp2yrmmv0olc9pahdcwfly,3duzq9u6sq1ceg15besjshnpfznsvh,y9MeHre6,2020-0188,2020-05-21,18:12:27,18:34:20,NA,incomplete,53,filling,1,left,Blue_Circle_Chess_1.jpg,Red_Plus_Chess_4.jpg,Blue_Star_Grid_3.jpg,left,714.7200000035809,true,high,false
y9MeHre6,3tl87mo8dp2yrmmv0olc9pahdcwfly,3duzq9u6sq1ceg15besjshnpfznsvh,y9MeHre6,2020-0188,2020-05-21,18:12:27,18:34:20,NA,incomplete,54,filling,0,left,Red_Triangle_Grid_4.jpg,Purple_Circle_Grid_1.jpg,Red_Plus_Dots_3.jpg,left,683.7499999965075,true,high,false
y9MeHre6,3tl87mo8dp2yrmmv0olc9pahdcwfly,3duzq9u6sq1ceg15besjshnpfznsvh,y9MeHre6,2020-0188,2020-05-21,18:12:27,18:34:20,NA,incomplete,55,filling,1,right,Purple_Plus_Stripes_4.jpg,Purple_Circle_Dots_2.jpg,Red_Triangle_Stripes_1.jpg,right,780.6649999984074,true,high,false
y9MeHre6,3tl87mo8dp2yrmmv0olc9pahdcwfly,3duzq9u6sq1ceg15besjshnpfznsvh,y9MeHre6,2020-0188,2020-05-21,18:12:27,18:34:20,NA,incomplete,56,filling,1,left,Blue_Star_Dots_3.jpg,Green_Triangle_Dots_4.jpg,Blue_Plus_Chess_1.jpg,left,896.9050000014249,true,high,false
y9MeHre6,3tl87mo8dp2yrmmv0olc9pahdcwfly,3duzq9u6sq1ceg15besjshnpfznsvh,y9MeHre6,2020-0188,2020-05-21,18:12:27,18:34:20,NA,incomplete,57,filling,1,left,Purple_Circle_Dots_3.jpg,Green_Plus_Dots_2.jpg,Purple_Triangle_Stripes_1.jpg,left,865.7699999894248,true,high,false
y9MeHre6,3tl87mo8dp2yrmmv0olc9pahdcwfly,3duzq9u6sq1ceg15besjshnpfznsvh,y9MeHre6,2020-0188,2020-05-21,18:12:27,18:34:20,NA,incomplete,58,filling,1,left,Red_Circle_Grid_3.jpg,Purple_Triangle_Grid_4.jpg,Red_Star_Chess_1.jpg,left,836.3399999943795,true,high,false
y9MeHre6,3tl87mo8dp2yrmmv0olc9pahdcwfly,3duzq9u6sq1ceg15besjshnpfznsvh,y9MeHre6,2020-0188,2020-05-21,18:12:27,18:34:20,NA,incomplete,59,filling,1,left,Blue_Circle_Dots_4.jpg,Green_Triangle_Dots_1.jpg,Blue_Star_Chess_2.jpg,right,775.3700000030221,false,high,false
y9MeHre6,3tl87mo8dp2yrmmv0olc9pahdcwfly,3duzq9u6sq1ceg15besjshnpfznsvh,y9MeHre6,2020-0188,2020-05-21,18:12:27,18:34:20,NA,incomplete,60,color,1,left,Green_Star_Chess_3.jpg,Green_Circle_Grid_2.jpg,Blue_Triangle_Chess_4.jpg,right,765.0750000029802,false,high,false
y9MeHre6,3tl87mo8dp2yrmmv0olc9pahdcwfly,3duzq9u6sq1ceg15besjshnpfznsvh,y9MeHre6,2020-0188,2020-05-21,18:12:27,18:34:20,NA,incomplete,61,color,1,right,Blue_Star_Stripes_1.jpg,Green_Circle_Stripes_2.jpg,Blue_Triangle_Grid_4.jpg,right,617.8800000052433,true,high,false
y9MeHre6,3tl87mo8dp2yrmmv0olc9pahdcwfly,3duzq9u6sq1ceg15besjshnpfznsvh,y9MeHre6,2020-0188,2020-05-21,18:12:27,18:34:20,NA,incomplete,62,color,1,right,Red_Plus_Chess_4.jpg,Green_Star_Chess_1.jpg,Red_Circle_Dots_3.jpg,right,586.3499999977648,true,high,false
y9MeHre6,3tl87mo8dp2yrmmv0olc9pahdcwfly,3duzq9u6sq1ceg15besjshnpfznsvh,y9MeHre6,2020-0188,2020-05-21,18:12:27,18:34:20,NA,incomplete,63,color,0,left,Blue_Circle_Dots_1.jpg,Blue_Triangle_Chess_3.jpg,Green_Plus_Dots_4.jpg,left,746.3150000112364,true,high,false
y9MeHre6,3tl87mo8dp2yrmmv0olc9pahdcwfly,3duzq9u6sq1ceg15besjshnpfznsvh,y9MeHre6,2020-0188,2020-05-21,18:12:27,18:34:20,NA,incomplete,64,color,1,right,Red_Triangle_Chess_3.jpg,Purple_Circle_Chess_2.jpg,Red_Star_Dots_1.jpg,right,745.3950000053737,true,high,false
y9MeHre6,3tl87mo8dp2yrmmv0olc9pahdcwfly,3duzq9u6sq1ceg15besjshnpfznsvh,y9MeHre6,2020-0188,2020-05-21,18:12:27,18:34:20,NA,incomplete,65,color,1,left,Red_Plus_Grid_3.jpg,Red_Triangle_Stripes_2.jpg,Purple_Circle_Grid_1.jpg,left,792.3600000067381,true,high,false
y9MeHre6,3tl87mo8dp2yrmmv0olc9pahdcwfly,3duzq9u6sq1ceg15besjshnpfznsvh,y9MeHre6,2020-0188,2020-05-21,18:12:27,18:34:20,NA,incomplete,66,color,1,left,Purple_Triangle_Grid_2.jpg,Purple_Circle_Chess_4.jpg,Red_Star_Grid_1.jpg,left,812.5199999922188,true,high,false
y9MeHre6,3tl87mo8dp2yrmmv0olc9pahdcwfly,3duzq9u6sq1ceg15besjshnpfznsvh,y9MeHre6,2020-0188,2020-05-21,18:12:27,18:34:20,NA,incomplete,67,color,1,right,Red_Circle_Grid_1.jpg,Green_Plus_Grid_2.jpg,Red_Star_Dots_3.jpg,left,808.260000005248,false,high,false
y9MeHre6,3tl87mo8dp2yrmmv0olc9pahdcwfly,3duzq9u6sq1ceg15besjshnpfznsvh,y9MeHre6,2020-0188,2020-05-21,18:12:27,18:34:20,NA,incomplete,68,color,1,left,Green_Star_Stripes_3.jpg,Green_Plus_Chess_4.jpg,Purple_Circle_Stripes_2.jpg,left,651.914999994915,true,high,false
y9MeHre6,3tl87mo8dp2yrmmv0olc9pahdcwfly,3duzq9u6sq1ceg15besjshnpfznsvh,y9MeHre6,2020-0188,2020-05-21,18:12:27,18:34:20,NA,incomplete,69,color,1,left,Green_Circle_Dots_1.jpg,Green_Triangle_Chess_2.jpg,Blue_Plus_Dots_4.jpg,left,614.4849999982398,true,high,false
y9MeHre6,3tl87mo8dp2yrmmv0olc9pahdcwfly,3duzq9u6sq1ceg15besjshnpfznsvh,y9MeHre6,2020-0188,2020-05-21,18:12:27,18:34:20,NA,incomplete,70,filling,1,left,Blue_Star_Stripes_2.jpg,Red_Circle_Stripes_4.jpg,Blue_Plus_Grid_1.jpg,right,585.0400000053924,false,high,false
y9MeHre6,3tl87mo8dp2yrmmv0olc9pahdcwfly,3duzq9u6sq1ceg15besjshnpfznsvh,y9MeHre6,2020-0188,2020-05-21,18:12:27,18:34:20,NA,incomplete,71,filling,1,left,Blue_Triangle_Grid_3.jpg,Purple_Star_Grid_1.jpg,Blue_Plus_Chess_4.jpg,left,630.5649999994785,true,high,false
y9MeHre6,3tl87mo8dp2yrmmv0olc9pahdcwfly,3duzq9u6sq1ceg15besjshnpfznsvh,y9MeHre6,2020-0188,2020-05-21,18:12:27,18:34:20,NA,incomplete,72,filling,1,left,Red_Star_Grid_3.jpg,Purple_Triangle_Grid_2.jpg,Red_Circle_Dots_1.jpg,left,777.9149999987567,true,high,false
y9MeHre6,3tl87mo8dp2yrmmv0olc9pahdcwfly,3duzq9u6sq1ceg15besjshnpfznsvh,y9MeHre6,2020-0188,2020-05-21,18:12:27,18:34:20,NA,incomplete,73,filling,1,right,Purple_Star_Grid_4.jpg,Purple_Plus_Dots_1.jpg,Green_Circle_Grid_3.jpg,right,847.8350000077626,true,high,false
y9MeHre6,3tl87mo8dp2yrmmv0olc9pahdcwfly,3duzq9u6sq1ceg15besjshnpfznsvh,y9MeHre6,2020-0188,2020-05-21,18:12:27,18:34:20,NA,incomplete,74,filling,0,left,Red_Star_Stripes_1.jpg,Purple_Circle_Stripes_4.jpg,Red_Triangle_Chess_2.jpg,left,770.6200000102399,true,high,false
y9MeHre6,3tl87mo8dp2yrmmv0olc9pahdcwfly,3duzq9u6sq1ceg15besjshnpfznsvh,y9MeHre6,2020-0188,2020-05-21,18:12:27,18:34:20,NA,incomplete,75,filling,1,left,Purple_Star_Grid_1.jpg,Red_Circle_Grid_4.jpg,Purple_Plus_Chess_2.jpg,right,609.3050000054063,false,high,false
y9MeHre6,3tl87mo8dp2yrmmv0olc9pahdcwfly,3duzq9u6sq1ceg15besjshnpfznsvh,y9MeHre6,2020-0188,2020-05-21,18:12:27,18:34:20,NA,incomplete,76,filling,1,left,Blue_Star_Dots_2.jpg,Red_Plus_Dots_3.jpg,Blue_Circle_Stripes_1.jpg,right,964.2299999977695,false,high,false
y9MeHre6,3tl87mo8dp2yrmmv0olc9pahdcwfly,3duzq9u6sq1ceg15besjshnpfznsvh,y9MeHre6,2020-0188,2020-05-21,18:12:27,18:34:20,NA,incomplete,77,filling,1,left,Green_Circle_Stripes_3.jpg,Purple_Triangle_Stripes_1.jpg,Green_Plus_Chess_4.jpg,left,697.8600000002189,true,high,false
y9MeHre6,3tl87mo8dp2yrmmv0olc9pahdcwfly,3duzq9u6sq1ceg15besjshnpfznsvh,y9MeHre6,2020-0188,2020-05-21,18:12:27,18:34:20,NA,incomplete,78,filling,1,right,Purple_Plus_Stripes_3.jpg,Purple_Circle_Grid_4.jpg,Green_Star_Stripes_1.jpg,right,906.8599999882281,true,high,false
y9MeHre6,3tl87mo8dp2yrmmv0olc9pahdcwfly,3duzq9u6sq1ceg15besjshnpfznsvh,y9MeHre6,2020-0188,2020-05-21,18:12:27,18:34:20,NA,incomplete,79,filling,1,right,Purple_Circle_Dots_4.jpg,Purple_Star_Chess_1.jpg,Green_Plus_Dots_2.jpg,left,658.6999999999534,false,high,false
y9MeHre6,3tl87mo8dp2yrmmv0olc9pahdcwfly,3duzq9u6sq1ceg15besjshnpfznsvh,y9MeHre6,2020-0188,2020-05-21,18:12:27,18:34:20,NA,incomplete,80,color,1,left,Red_Circle_Dots_3.jpg,Red_Triangle_Stripes_1.jpg,Green_Plus_Dots_2.jpg,left,939.2999999981839,true,high,false
y9MeHre6,3tl87mo8dp2yrmmv0olc9pahdcwfly,3duzq9u6sq1ceg15besjshnpfznsvh,y9MeHre6,2020-0188,2020-05-21,18:12:27,18:34:20,NA,incomplete,81,color,0,left,Green_Triangle_Stripes_4.jpg,Green_Plus_Chess_2.jpg,Blue_Circle_Stripes_3.jpg,left,651.9050000060815,true,high,false
y9MeHre6,3tl87mo8dp2yrmmv0olc9pahdcwfly,3duzq9u6sq1ceg15besjshnpfznsvh,y9MeHre6,2020-0188,2020-05-21,18:12:27,18:34:20,NA,incomplete,82,color,1,right,Green_Plus_Stripes_4.jpg,Blue_Circle_Stripes_1.jpg,Green_Star_Grid_3.jpg,left,830.1400000054855,false,high,false
y9MeHre6,3tl87mo8dp2yrmmv0olc9pahdcwfly,3duzq9u6sq1ceg15besjshnpfznsvh,y9MeHre6,2020-0188,2020-05-21,18:12:27,18:34:20,NA,incomplete,83,color,1,left,Green_Star_Chess_4.jpg,Green_Triangle_Stripes_3.jpg,Blue_Circle_Chess_1.jpg,left,592.5350000034086,true,high,false
y9MeHre6,3tl87mo8dp2yrmmv0olc9pahdcwfly,3duzq9u6sq1ceg15besjshnpfznsvh,y9MeHre6,2020-0188,2020-05-21,18:12:27,18:34:20,NA,incomplete,84,color,1,left,Blue_Triangle_Chess_3.jpg,Blue_Plus_Grid_4.jpg,Green_Circle_Chess_1.jpg,left,589.5149999996647,true,high,false
y9MeHre6,3tl87mo8dp2yrmmv0olc9pahdcwfly,3duzq9u6sq1ceg15besjshnpfznsvh,y9MeHre6,2020-0188,2020-05-21,18:12:27,18:34:20,NA,incomplete,85,color,1,right,Purple_Triangle_Grid_2.jpg,Blue_Circle_Grid_3.jpg,Purple_Star_Chess_4.jpg,right,641.9499999901745,true,high,false
y9MeHre6,3tl87mo8dp2yrmmv0olc9pahdcwfly,3duzq9u6sq1ceg15besjshnpfznsvh,y9MeHre6,2020-0188,2020-05-21,18:12:27,18:34:20,NA,incomplete,86,color,0,right,Purple_Star_Grid_3.jpg,Blue_Triangle_Grid_2.jpg,Purple_Plus_Stripes_4.jpg,right,517.3050000012154,true,high,false
y9MeHre6,3tl87mo8dp2yrmmv0olc9pahdcwfly,3duzq9u6sq1ceg15besjshnpfznsvh,y9MeHre6,2020-0188,2020-05-21,18:12:27,18:34:20,NA,incomplete,87,color,0,left,Green_Triangle_Grid_1.jpg,Green_Plus_Stripes_4.jpg,Red_Circle_Grid_3.jpg,left,988.4200000087731,true,high,false
y9MeHre6,3tl87mo8dp2yrmmv0olc9pahdcwfly,3duzq9u6sq1ceg15besjshnpfznsvh,y9MeHre6,2020-0188,2020-05-21,18:12:27,18:34:20,NA,incomplete,88,color,0,right,Red_Circle_Dots_1.jpg,Blue_Plus_Dots_4.jpg,Red_Triangle_Grid_3.jpg,left,770.1800000068033,false,high,false
y9MeHre6,3tl87mo8dp2yrmmv0olc9pahdcwfly,3duzq9u6sq1ceg15besjshnpfznsvh,y9MeHre6,2020-0188,2020-05-21,18:12:27,18:34:20,NA,incomplete,89,color,1,left,Green_Triangle_Dots_3.jpg,Green_Circle_Chess_4.jpg,Red_Star_Dots_2.jpg,right,670.9950000076788,false,high,false
y9MeHre6,3tl87mo8dp2yrmmv0olc9pahdcwfly,3duzq9u6sq1ceg15besjshnpfznsvh,y9MeHre6,2020-0188,2020-05-21,18:12:27,18:34:20,NA,incomplete,90,filling,0,left,Green_Circle_Chess_2.jpg,Blue_Star_Chess_3.jpg,Green_Plus_Dots_1.jpg,left,727.7849999954924,true,high,false
y9MeHre6,3tl87mo8dp2yrmmv0olc9pahdcwfly,3duzq9u6sq1ceg15besjshnpfznsvh,y9MeHre6,2020-0188,2020-05-21,18:12:27,18:34:20,NA,incomplete,91,filling,1,left,Purple_Plus_Grid_1.jpg,Blue_Triangle_Grid_3.jpg,Purple_Star_Stripes_2.jpg,right,638.4499999985565,false,high,false
y9MeHre6,3tl87mo8dp2yrmmv0olc9pahdcwfly,3duzq9u6sq1ceg15besjshnpfznsvh,y9MeHre6,2020-0188,2020-05-21,18:12:27,18:34:20,NA,incomplete,92,filling,0,left,Red_Circle_Grid_1.jpg,Green_Triangle_Grid_4.jpg,Red_Plus_Stripes_3.jpg,right,544.1799999971408,false,high,false
y9MeHre6,3tl87mo8dp2yrmmv0olc9pahdcwfly,3duzq9u6sq1ceg15besjshnpfznsvh,y9MeHre6,2020-0188,2020-05-21,18:12:27,18:34:20,NA,incomplete,93,filling,1,left,Blue_Plus_Grid_1.jpg,Green_Star_Grid_2.jpg,Blue_Circle_Stripes_4.jpg,right,609.7750000044471,false,high,false
y9MeHre6,3tl87mo8dp2yrmmv0olc9pahdcwfly,3duzq9u6sq1ceg15besjshnpfznsvh,y9MeHre6,2020-0188,2020-05-21,18:12:27,18:34:20,NA,incomplete,94,filling,1,right,Purple_Circle_Dots_2.jpg,Purple_Plus_Grid_1.jpg,Blue_Triangle_Dots_4.jpg,right,734.1599999926984,true,high,false
y9MeHre6,3tl87mo8dp2yrmmv0olc9pahdcwfly,3duzq9u6sq1ceg15besjshnpfznsvh,y9MeHre6,2020-0188,2020-05-21,18:12:27,18:34:20,NA,incomplete,95,filling,1,left,Blue_Star_Dots_4.jpg,Red_Plus_Dots_2.jpg,Blue_Triangle_Stripes_1.jpg,left,618.9099999901373,true,high,false
y9MeHre6,3tl87mo8dp2yrmmv0olc9pahdcwfly,3duzq9u6sq1ceg15besjshnpfznsvh,y9MeHre6,2020-0188,2020-05-21,18:12:27,18:34:20,NA,incomplete,96,filling,1,right,Red_Star_Chess_2.jpg,Red_Triangle_Stripes_3.jpg,Blue_Circle_Chess_1.jpg,right,717.2849999915343,true,high,false
y9MeHre6,3tl87mo8dp2yrmmv0olc9pahdcwfly,3duzq9u6sq1ceg15besjshnpfznsvh,y9MeHre6,2020-0188,2020-05-21,18:12:27,18:34:20,NA,incomplete,97,filling,1,left,Purple_Star_Chess_4.jpg,Blue_Triangle_Chess_1.jpg,Purple_Circle_Stripes_3.jpg,left,694.5350000023609,true,high,false
y9MeHre6,3tl87mo8dp2yrmmv0olc9pahdcwfly,3duzq9u6sq1ceg15besjshnpfznsvh,y9MeHre6,2020-0188,2020-05-21,18:12:27,18:34:20,NA,incomplete,98,filling,1,right,Green_Triangle_Stripes_4.jpg,Green_Plus_Grid_3.jpg,Red_Circle_Stripes_2.jpg,right,688.6899999954039,true,high,false
y9MeHre6,3tl87mo8dp2yrmmv0olc9pahdcwfly,3duzq9u6sq1ceg15besjshnpfznsvh,y9MeHre6,2020-0188,2020-05-21,18:12:27,18:34:20,NA,incomplete,99,filling,1,right,Blue_Plus_Chess_3.jpg,Blue_Star_Stripes_2.jpg,Red_Circle_Chess_4.jpg,left,655.5700000026263,false,high,false
y9MeHre6,3tl87mo8dp2yrmmv0olc9pahdcwfly,3duzq9u6sq1ceg15besjshnpfznsvh,y9MeHre6,2020-0188,2020-05-21,18:12:27,18:34:20,NA,incomplete,100,color,1,right,Red_Plus_Dots_1.jpg,Blue_Star_Dots_3.jpg,Red_Circle_Chess_4.jpg,left,657.5850000081118,false,high,false
y9MeHre6,3tl87mo8dp2yrmmv0olc9pahdcwfly,3duzq9u6sq1ceg15besjshnpfznsvh,y9MeHre6,2020-0188,2020-05-21,18:12:27,18:34:20,NA,incomplete,101,color,0,right,Blue_Triangle_Chess_2.jpg,Green_Circle_Chess_1.jpg,Blue_Star_Dots_3.jpg,right,516.2049999926239,true,high,false
y9MeHre6,3tl87mo8dp2yrmmv0olc9pahdcwfly,3duzq9u6sq1ceg15besjshnpfznsvh,y9MeHre6,2020-0188,2020-05-21,18:12:27,18:34:20,NA,incomplete,102,color,1,right,Blue_Circle_Grid_2.jpg,Red_Triangle_Grid_4.jpg,Blue_Star_Stripes_3.jpg,right,589.0999999974156,true,high,false
y9MeHre6,3tl87mo8dp2yrmmv0olc9pahdcwfly,3duzq9u6sq1ceg15besjshnpfznsvh,y9MeHre6,2020-0188,2020-05-21,18:12:27,18:34:20,NA,incomplete,103,color,1,right,Blue_Star_Dots_1.jpg,Green_Triangle_Dots_3.jpg,Blue_Plus_Grid_2.jpg,right,592.3949999996694,true,high,false
y9MeHre6,3tl87mo8dp2yrmmv0olc9pahdcwfly,3duzq9u6sq1ceg15besjshnpfznsvh,y9MeHre6,2020-0188,2020-05-21,18:12:27,18:34:20,NA,incomplete,104,color,0,left,Purple_Triangle_Stripes_1.jpg,Purple_Star_Dots_4.jpg,Green_Plus_Stripes_2.jpg,left,622.2350000025472,true,high,false
y9MeHre6,3tl87mo8dp2yrmmv0olc9pahdcwfly,3duzq9u6sq1ceg15besjshnpfznsvh,y9MeHre6,2020-0188,2020-05-21,18:12:27,18:34:20,NA,incomplete,105,color,0,left,Purple_Circle_Grid_1.jpg,Purple_Plus_Dots_2.jpg,Green_Triangle_Grid_4.jpg,left,625.755000000936,true,high,false
y9MeHre6,3tl87mo8dp2yrmmv0olc9pahdcwfly,3duzq9u6sq1ceg15besjshnpfznsvh,y9MeHre6,2020-0188,2020-05-21,18:12:27,18:34:20,NA,incomplete,106,color,0,right,Purple_Triangle_Dots_1.jpg,Green_Plus_Dots_2.jpg,Purple_Circle_Stripes_3.jpg,left,1060.6949999928474,false,high,false
y9MeHre6,3tl87mo8dp2yrmmv0olc9pahdcwfly,3duzq9u6sq1ceg15besjshnpfznsvh,y9MeHre6,2020-0188,2020-05-21,18:12:27,18:34:20,NA,incomplete,107,color,1,left,Red_Plus_Stripes_2.jpg,Red_Star_Grid_4.jpg,Blue_Triangle_Stripes_3.jpg,right,775.9749999968335,false,high,false
y9MeHre6,3tl87mo8dp2yrmmv0olc9pahdcwfly,3duzq9u6sq1ceg15besjshnpfznsvh,y9MeHre6,2020-0188,2020-05-21,18:12:27,18:34:20,NA,incomplete,108,color,1,right,Purple_Triangle_Grid_3.jpg,Blue_Circle_Grid_4.jpg,Purple_Star_Chess_1.jpg,right,804.4299999892246,true,high,false
y9MeHre6,3tl87mo8dp2yrmmv0olc9pahdcwfly,3duzq9u6sq1ceg15besjshnpfznsvh,y9MeHre6,2020-0188,2020-05-21,18:12:27,18:34:20,NA,incomplete,109,color,1,left,Purple_Plus_Stripes_4.jpg,Purple_Star_Dots_3.jpg,Green_Circle_Stripes_2.jpg,left,652.9699999955483,true,high,false
y9MeHre6,3tl87mo8dp2yrmmv0olc9pahdcwfly,3duzq9u6sq1ceg15besjshnpfznsvh,y9MeHre6,2020-0188,2020-05-21,18:12:27,18:34:20,NA,incomplete,110,filling,0,left,Blue_Triangle_Grid_4.jpg,Green_Star_Grid_1.jpg,Blue_Circle_Stripes_2.jpg,right,539.7200000006706,false,high,false
y9MeHre6,3tl87mo8dp2yrmmv0olc9pahdcwfly,3duzq9u6sq1ceg15besjshnpfznsvh,y9MeHre6,2020-0188,2020-05-21,18:12:27,18:34:20,NA,incomplete,111,filling,1,right,Red_Circle_Dots_1.jpg,Red_Star_Stripes_3.jpg,Green_Triangle_Dots_2.jpg,left,545.7849999947939,false,high,false
y9MeHre6,3tl87mo8dp2yrmmv0olc9pahdcwfly,3duzq9u6sq1ceg15besjshnpfznsvh,y9MeHre6,2020-0188,2020-05-21,18:12:27,18:34:20,NA,incomplete,112,filling,0,right,Red_Circle_Stripes_4.jpg,Red_Plus_Chess_1.jpg,Blue_Star_Stripes_2.jpg,left,568.554999990738,false,high,false
y9MeHre6,3tl87mo8dp2yrmmv0olc9pahdcwfly,3duzq9u6sq1ceg15besjshnpfznsvh,y9MeHre6,2020-0188,2020-05-21,18:12:27,18:34:20,NA,incomplete,113,filling,1,left,Blue_Circle_Stripes_2.jpg,Purple_Triangle_Stripes_1.jpg,Blue_Plus_Grid_4.jpg,right,573.8150000106543,false,high,false
y9MeHre6,3tl87mo8dp2yrmmv0olc9pahdcwfly,3duzq9u6sq1ceg15besjshnpfznsvh,y9MeHre6,2020-0188,2020-05-21,18:12:27,18:34:20,NA,incomplete,114,filling,1,left,Red_Triangle_Dots_2.jpg,Blue_Star_Dots_4.jpg,Red_Circle_Grid_3.jpg,left,748.6800000042422,true,high,false
y9MeHre6,3tl87mo8dp2yrmmv0olc9pahdcwfly,3duzq9u6sq1ceg15besjshnpfznsvh,y9MeHre6,2020-0188,2020-05-21,18:12:27,18:34:20,NA,incomplete,115,filling,0,right,Blue_Circle_Dots_4.jpg,Blue_Triangle_Chess_2.jpg,Green_Plus_Dots_3.jpg,right,762.6400000008289,true,high,false
y9MeHre6,3tl87mo8dp2yrmmv0olc9pahdcwfly,3duzq9u6sq1ceg15besjshnpfznsvh,y9MeHre6,2020-0188,2020-05-21,18:12:27,18:34:20,NA,incomplete,116,filling,1,left,Blue_Circle_Chess_3.jpg,Purple_Triangle_Chess_1.jpg,Blue_Plus_Dots_4.jpg,right,695.8949999971082,false,high,false
y9MeHre6,3tl87mo8dp2yrmmv0olc9pahdcwfly,3duzq9u6sq1ceg15besjshnpfznsvh,y9MeHre6,2020-0188,2020-05-21,18:12:27,18:34:20,NA,incomplete,117,filling,1,left,Purple_Star_Dots_2.jpg,Red_Triangle_Dots_4.jpg,Purple_Plus_Grid_3.jpg,right,592.8899999998976,false,high,false
y9MeHre6,3tl87mo8dp2yrmmv0olc9pahdcwfly,3duzq9u6sq1ceg15besjshnpfznsvh,y9MeHre6,2020-0188,2020-05-21,18:12:27,18:34:20,NA,incomplete,118,filling,1,right,Red_Circle_Stripes_4.jpg,Red_Star_Grid_1.jpg,Purple_Plus_Stripes_3.jpg,left,566.5549999976065,false,high,false
y9MeHre6,3tl87mo8dp2yrmmv0olc9pahdcwfly,3duzq9u6sq1ceg15besjshnpfznsvh,y9MeHre6,2020-0188,2020-05-21,18:12:27,18:34:20,NA,incomplete,119,filling,1,right,Red_Circle_Dots_3.jpg,Red_Star_Stripes_1.jpg,Green_Plus_Dots_4.jpg,right,948.0700000131037,true,high,false
y9MeHre6,3tl87mo8dp2yrmmv0olc9pahdcwfly,3duzq9u6sq1ceg15besjshnpfznsvh,y9MeHre6,2020-0188,2020-05-21,18:12:27,18:34:20,NA,incomplete,120,shape,0,left,Purple_Triangle_Chess_3.jpg,Blue_Triangle_Dots_1.jpg,Green_Plus_Stripes_3.jpg,NA,NA,NA,high,false
y9MeHre6,3tl87mo8dp2yrmmv0olc9pahdcwfly,3duzq9u6sq1ceg15besjshnpfznsvh,y9MeHre6,2020-0188,2020-05-21,18:12:27,18:34:20,NA,incomplete,121,shape,1,right,Red_Circle_Dots_1.jpg,Green_Star_Stripes_1.jpg,Blue_Circle_Grid_2.jpg,right,1134.0100000088569,true,high,false
y9MeHre6,3tl87mo8dp2yrmmv0olc9pahdcwfly,3duzq9u6sq1ceg15besjshnpfznsvh,y9MeHre6,2020-0188,2020-05-21,18:12:27,18:34:20,NA,incomplete,122,shape,1,left,Purple_Plus_Grid_3.jpg,Red_Plus_Stripes_2.jpg,Green_Circle_Chess_3.jpg,right,923.865000004298,false,high,false
y9MeHre6,3tl87mo8dp2yrmmv0olc9pahdcwfly,3duzq9u6sq1ceg15besjshnpfznsvh,y9MeHre6,2020-0188,2020-05-21,18:12:27,18:34:20,NA,incomplete,123,shape,0,right,Red_Star_Stripes_3.jpg,Purple_Plus_Grid_3.jpg,Blue_Star_Chess_4.jpg,left,931.2449999997625,false,high,false
y9MeHre6,3tl87mo8dp2yrmmv0olc9pahdcwfly,3duzq9u6sq1ceg15besjshnpfznsvh,y9MeHre6,2020-0188,2020-05-21,18:12:27,18:34:20,NA,incomplete,124,shape,1,left,Blue_Star_Grid_4.jpg,Red_Star_Stripes_3.jpg,Green_Triangle_Dots_4.jpg,left,601.2549999868497,true,high,false
y9MeHre6,3tl87mo8dp2yrmmv0olc9pahdcwfly,3duzq9u6sq1ceg15besjshnpfznsvh,y9MeHre6,2020-0188,2020-05-21,18:12:27,18:34:20,NA,incomplete,125,shape,1,right,Green_Circle_Chess_1.jpg,Purple_Plus_Stripes_1.jpg,Red_Circle_Dots_4.jpg,right,623.16999999166,true,high,false
y9MeHre6,3tl87mo8dp2yrmmv0olc9pahdcwfly,3duzq9u6sq1ceg15besjshnpfznsvh,y9MeHre6,2020-0188,2020-05-21,18:12:27,18:34:20,NA,incomplete,126,shape,1,left,Blue_Star_Dots_2.jpg,Green_Star_Chess_4.jpg,Purple_Circle_Grid_2.jpg,left,642.9899999930058,true,high,false
y9MeHre6,3tl87mo8dp2yrmmv0olc9pahdcwfly,3duzq9u6sq1ceg15besjshnpfznsvh,y9MeHre6,2020-0188,2020-05-21,18:12:27,18:34:20,NA,incomplete,127,shape,1,left,Green_Triangle_Grid_1.jpg,Red_Triangle_Dots_3.jpg,Purple_Plus_Chess_1.jpg,right,790.515000000596,false,high,false
y9MeHre6,3tl87mo8dp2yrmmv0olc9pahdcwfly,3duzq9u6sq1ceg15besjshnpfznsvh,y9MeHre6,2020-0188,2020-05-21,18:12:27,18:34:20,NA,incomplete,128,shape,1,left,Blue_Circle_Chess_1.jpg,Purple_Circle_Grid_4.jpg,Red_Plus_Dots_1.jpg,left,697.2700000042096,true,high,false
y9MeHre6,3tl87mo8dp2yrmmv0olc9pahdcwfly,3duzq9u6sq1ceg15besjshnpfznsvh,y9MeHre6,2020-0188,2020-05-21,18:12:27,18:34:20,NA,incomplete,129,shape,1,left,Blue_Plus_Chess_4.jpg,Red_Plus_Stripes_1.jpg,Green_Circle_Dots_4.jpg,right,595.2099999994971,false,high,false
y9MeHre6,3tl87mo8dp2yrmmv0olc9pahdcwfly,3duzq9u6sq1ceg15besjshnpfznsvh,y9MeHre6,2020-0188,2020-05-21,18:12:27,18:34:20,NA,incomplete,130,shape,1,right,Blue_Star_Dots_4.jpg,Red_Plus_Chess_4.jpg,Green_Star_Grid_2.jpg,left,1079.1349999926751,false,high,false
y9MeHre6,3tl87mo8dp2yrmmv0olc9pahdcwfly,3duzq9u6sq1ceg15besjshnpfznsvh,y9MeHre6,2020-0188,2020-05-21,18:12:27,18:34:20,NA,incomplete,131,shape,0,left,Blue_Circle_Stripes_1.jpg,Purple_Circle_Grid_2.jpg,Green_Star_Chess_1.jpg,left,880.3850000113016,true,high,false
y9MeHre6,3tl87mo8dp2yrmmv0olc9pahdcwfly,3duzq9u6sq1ceg15besjshnpfznsvh,y9MeHre6,2020-0188,2020-05-21,18:12:27,18:34:20,NA,incomplete,132,shape,1,left,Blue_Triangle_Grid_1.jpg,Red_Triangle_Stripes_3.jpg,Purple_Circle_Dots_1.jpg,right,681.7399999999907,false,high,false
y9MeHre6,3tl87mo8dp2yrmmv0olc9pahdcwfly,3duzq9u6sq1ceg15besjshnpfznsvh,y9MeHre6,2020-0188,2020-05-21,18:12:27,18:34:20,NA,incomplete,133,shape,0,right,Blue_Triangle_Grid_3.jpg,Green_Circle_Chess_3.jpg,Red_Triangle_Stripes_2.jpg,left,570.015000004787,false,high,false
y9MeHre6,3tl87mo8dp2yrmmv0olc9pahdcwfly,3duzq9u6sq1ceg15besjshnpfznsvh,y9MeHre6,2020-0188,2020-05-21,18:12:27,18:34:20,NA,incomplete,134,shape,1,right,Blue_Star_Dots_4.jpg,Green_Triangle_Grid_4.jpg,Red_Star_Chess_2.jpg,left,696.8499999929918,false,high,false
y9MeHre6,3tl87mo8dp2yrmmv0olc9pahdcwfly,3duzq9u6sq1ceg15besjshnpfznsvh,y9MeHre6,2020-0188,2020-05-21,18:12:27,18:34:20,NA,incomplete,135,shape,1,left,Blue_Triangle_Stripes_2.jpg,Purple_Triangle_Grid_1.jpg,Red_Star_Dots_2.jpg,left,858.3299999882001,true,high,false
y9MeHre6,3tl87mo8dp2yrmmv0olc9pahdcwfly,3duzq9u6sq1ceg15besjshnpfznsvh,y9MeHre6,2020-0188,2020-05-21,18:12:27,18:34:20,NA,incomplete,136,shape,0,right,Red_Circle_Chess_3.jpg,Purple_Triangle_Stripes_3.jpg,Green_Circle_Dots_2.jpg,right,964.1200000041863,true,high,false
y9MeHre6,3tl87mo8dp2yrmmv0olc9pahdcwfly,3duzq9u6sq1ceg15besjshnpfznsvh,y9MeHre6,2020-0188,2020-05-21,18:12:27,18:34:20,NA,incomplete,137,shape,1,right,Red_Circle_Stripes_1.jpg,Purple_Triangle_Dots_1.jpg,Green_Circle_Grid_3.jpg,right,674.7199999954319,true,high,false
y9MeHre6,3tl87mo8dp2yrmmv0olc9pahdcwfly,3duzq9u6sq1ceg15besjshnpfznsvh,y9MeHre6,2020-0188,2020-05-21,18:12:27,18:34:20,NA,incomplete,138,shape,1,left,Purple_Plus_Dots_4.jpg,Green_Plus_Stripes_2.jpg,Blue_Triangle_Chess_4.jpg,left,869.4599999871571,true,high,false
y9MeHre6,3tl87mo8dp2yrmmv0olc9pahdcwfly,3duzq9u6sq1ceg15besjshnpfznsvh,y9MeHre6,2020-0188,2020-05-21,18:12:27,18:34:20,NA,incomplete,139,shape,1,left,Blue_Triangle_Chess_2.jpg,Red_Triangle_Dots_4.jpg,Green_Plus_Grid_2.jpg,right,948.9949999988312,false,high,false
y9MeHre6,3tl87mo8dp2yrmmv0olc9pahdcwfly,3duzq9u6sq1ceg15besjshnpfznsvh,y9MeHre6,2020-0188,2020-05-21,18:12:27,18:34:20,NA,incomplete,140,number,1,right,Red_Circle_Dots_1.jpg,Blue_Circle_Grid_2.jpg,Purple_Star_Stripes_1.jpg,left,716.645000007702,false,high,false
y9MeHre6,3tl87mo8dp2yrmmv0olc9pahdcwfly,3duzq9u6sq1ceg15besjshnpfznsvh,y9MeHre6,2020-0188,2020-05-21,18:12:27,18:34:20,NA,incomplete,141,number,1,left,Purple_Plus_Dots_1.jpg,Green_Circle_Chess_1.jpg,Red_Plus_Grid_3.jpg,right,1035.8299999934388,false,high,false
y9MeHre6,3tl87mo8dp2yrmmv0olc9pahdcwfly,3duzq9u6sq1ceg15besjshnpfznsvh,y9MeHre6,2020-0188,2020-05-21,18:12:27,18:34:20,NA,incomplete,142,number,1,right,Red_Triangle_Dots_4.jpg,Blue_Triangle_Stripes_3.jpg,Purple_Circle_Grid_4.jpg,left,711.6299999906914,false,high,false
y9MeHre6,3tl87mo8dp2yrmmv0olc9pahdcwfly,3duzq9u6sq1ceg15besjshnpfznsvh,y9MeHre6,2020-0188,2020-05-21,18:12:27,18:34:20,NA,incomplete,143,number,1,right,Purple_Circle_Stripes_3.jpg,Blue_Circle_Dots_1.jpg,Green_Plus_Chess_3.jpg,right,1221.0749999940163,true,high,false
y9MeHre6,3tl87mo8dp2yrmmv0olc9pahdcwfly,3duzq9u6sq1ceg15besjshnpfznsvh,y9MeHre6,2020-0188,2020-05-21,18:12:27,18:34:20,NA,incomplete,144,number,1,left,Green_Star_Dots_3.jpg,Blue_Triangle_Stripes_3.jpg,Purple_Star_Grid_4.jpg,left,1129.1800000035437,true,high,false
y9MeHre6,3tl87mo8dp2yrmmv0olc9pahdcwfly,3duzq9u6sq1ceg15besjshnpfznsvh,y9MeHre6,2020-0188,2020-05-21,18:12:27,18:34:20,NA,incomplete,145,number,1,left,Purple_Circle_Dots_2.jpg,Red_Plus_Grid_2.jpg,Blue_Circle_Stripes_3.jpg,left,1185.0249999988591,true,high,false
y9MeHre6,3tl87mo8dp2yrmmv0olc9pahdcwfly,3duzq9u6sq1ceg15besjshnpfznsvh,y9MeHre6,2020-0188,2020-05-21,18:12:27,18:34:20,NA,incomplete,146,number,0,right,Purple_Plus_Grid_2.jpg,Green_Plus_Dots_1.jpg,Red_Circle_Chess_2.jpg,right,1638.5000000009313,true,high,false
y9MeHre6,3tl87mo8dp2yrmmv0olc9pahdcwfly,3duzq9u6sq1ceg15besjshnpfznsvh,y9MeHre6,2020-0188,2020-05-21,18:12:27,18:34:20,NA,incomplete,147,number,1,left,Purple_Triangle_Stripes_1.jpg,Blue_Circle_Grid_1.jpg,Red_Triangle_Chess_4.jpg,right,925.8799999952316,false,high,false
y9MeHre6,3tl87mo8dp2yrmmv0olc9pahdcwfly,3duzq9u6sq1ceg15besjshnpfznsvh,y9MeHre6,2020-0188,2020-05-21,18:12:27,18:34:20,NA,incomplete,148,number,1,right,Purple_Circle_Grid_4.jpg,Green_Circle_Dots_1.jpg,Blue_Star_Chess_4.jpg,left,1688.800000003539,false,high,false
y9MeHre6,3tl87mo8dp2yrmmv0olc9pahdcwfly,3duzq9u6sq1ceg15besjshnpfznsvh,y9MeHre6,2020-0188,2020-05-21,18:12:27,18:34:20,NA,incomplete,149,number,1,right,Blue_Plus_Grid_1.jpg,Red_Plus_Stripes_4.jpg,Purple_Triangle_Chess_1.jpg,right,1127.8400000010151,true,high,false
y9MeHre6,3tl87mo8dp2yrmmv0olc9pahdcwfly,3duzq9u6sq1ceg15besjshnpfznsvh,y9MeHre6,2020-0188,2020-05-21,18:12:27,18:34:20,NA,incomplete,150,number,1,left,Green_Plus_Stripes_1.jpg,Blue_Star_Grid_1.jpg,Purple_Plus_Dots_4.jpg,left,752.3300000029849,true,high,false
y9MeHre6,3tl87mo8dp2yrmmv0olc9pahdcwfly,3duzq9u6sq1ceg15besjshnpfznsvh,y9MeHre6,2020-0188,2020-05-21,18:12:27,18:34:20,NA,incomplete,151,number,0,right,Red_Triangle_Grid_4.jpg,Blue_Triangle_Dots_2.jpg,Green_Plus_Chess_4.jpg,right,1196.814999988419,true,high,false
y9MeHre6,3tl87mo8dp2yrmmv0olc9pahdcwfly,3duzq9u6sq1ceg15besjshnpfznsvh,y9MeHre6,2020-0188,2020-05-21,18:12:27,18:34:20,NA,incomplete,152,number,1,right,Purple_Star_Stripes_1.jpg,Blue_Star_Dots_2.jpg,Red_Triangle_Chess_1.jpg,left,731.0249999864027,false,high,false
y9MeHre6,3tl87mo8dp2yrmmv0olc9pahdcwfly,3duzq9u6sq1ceg15besjshnpfznsvh,y9MeHre6,2020-0188,2020-05-21,18:12:27,18:34:20,NA,incomplete,153,number,1,left,Red_Circle_Dots_2.jpg,Green_Star_Stripes_2.jpg,Purple_Circle_Chess_1.jpg,left,1162.3950000067707,true,high,false
y9MeHre6,3tl87mo8dp2yrmmv0olc9pahdcwfly,3duzq9u6sq1ceg15besjshnpfznsvh,y9MeHre6,2020-0188,2020-05-21,18:12:27,18:34:20,NA,incomplete,154,number,1,right,Blue_Star_Stripes_2.jpg,Red_Star_Chess_3.jpg,Green_Triangle_Grid_2.jpg,right,1105.0050000047777,true,high,false
y9MeHre6,3tl87mo8dp2yrmmv0olc9pahdcwfly,3duzq9u6sq1ceg15besjshnpfznsvh,y9MeHre6,2020-0188,2020-05-21,18:12:27,18:34:20,NA,incomplete,155,number,0,left,Green_Plus_Dots_4.jpg,Purple_Star_Chess_4.jpg,Red_Plus_Stripes_1.jpg,left,1238.6050000058021,true,high,false
y9MeHre6,3tl87mo8dp2yrmmv0olc9pahdcwfly,3duzq9u6sq1ceg15besjshnpfznsvh,y9MeHre6,2020-0188,2020-05-21,18:12:27,18:34:20,NA,incomplete,156,number,1,left,Blue_Plus_Dots_2.jpg,Purple_Circle_Grid_2.jpg,Green_Plus_Stripes_4.jpg,right,956.250000002794,false,high,false
y9MeHre6,3tl87mo8dp2yrmmv0olc9pahdcwfly,3duzq9u6sq1ceg15besjshnpfznsvh,y9MeHre6,2020-0188,2020-05-21,18:12:27,18:34:20,NA,incomplete,157,number,1,right,Red_Star_Grid_1.jpg,Purple_Star_Stripes_4.jpg,Green_Plus_Dots_1.jpg,right,818.2749999975786,true,high,false
y9MeHre6,3tl87mo8dp2yrmmv0olc9pahdcwfly,3duzq9u6sq1ceg15besjshnpfznsvh,y9MeHre6,2020-0188,2020-05-21,18:12:27,18:34:20,NA,incomplete,158,number,1,left,Purple_Plus_Dots_1.jpg,Red_Star_Chess_1.jpg,Blue_Plus_Stripes_2.jpg,left,804.8350000025239,true,high,false
y9MeHre6,3tl87mo8dp2yrmmv0olc9pahdcwfly,3duzq9u6sq1ceg15besjshnpfznsvh,y9MeHre6,2020-0188,2020-05-21,18:12:27,18:34:20,NA,incomplete,159,number,1,right,Purple_Star_Stripes_3.jpg,Red_Star_Chess_4.jpg,Green_Triangle_Dots_3.jpg,right,913.6799999978393,true,high,false
y9MeHre6,3tl87mo8dp2yrmmv0olc9pahdcwfly,3duzq9u6sq1ceg15besjshnpfznsvh,y9MeHre6,2020-0188,2020-05-21,18:12:27,18:34:20,NA,incomplete,160,shape,1,right,Purple_Triangle_Dots_4.jpg,Blue_Plus_Grid_4.jpg,Red_Triangle_Stripes_2.jpg,left,984.9200000024866,false,high,false
y9MeHre6,3tl87mo8dp2yrmmv0olc9pahdcwfly,3duzq9u6sq1ceg15besjshnpfznsvh,y9MeHre6,2020-0188,2020-05-21,18:12:27,18:34:20,NA,incomplete,161,shape,1,left,Blue_Star_Grid_3.jpg,Red_Star_Chess_4.jpg,Green_Plus_Dots_3.jpg,right,1068.690000000177,false,high,false
y9MeHre6,3tl87mo8dp2yrmmv0olc9pahdcwfly,3duzq9u6sq1ceg15besjshnpfznsvh,y9MeHre6,2020-0188,2020-05-21,18:12:27,18:34:20,NA,incomplete,162,shape,1,left,Blue_Plus_Grid_3.jpg,Red_Plus_Chess_2.jpg,Purple_Star_Stripes_3.jpg,right,910.9700000116136,false,high,false
y9MeHre6,3tl87mo8dp2yrmmv0olc9pahdcwfly,3duzq9u6sq1ceg15besjshnpfznsvh,y9MeHre6,2020-0188,2020-05-21,18:12:27,18:34:20,NA,incomplete,163,shape,1,right,Green_Circle_Dots_4.jpg,Purple_Star_Stripes_4.jpg,Blue_Circle_Grid_3.jpg,left,1129.4249999918975,false,high,false
y9MeHre6,3tl87mo8dp2yrmmv0olc9pahdcwfly,3duzq9u6sq1ceg15besjshnpfznsvh,y9MeHre6,2020-0188,2020-05-21,18:12:27,18:34:20,NA,incomplete,164,shape,0,right,Green_Plus_Chess_4.jpg,Purple_Circle_Stripes_4.jpg,Blue_Plus_Grid_2.jpg,left,1415.2599999941885,false,high,false
y9MeHre6,3tl87mo8dp2yrmmv0olc9pahdcwfly,3duzq9u6sq1ceg15besjshnpfznsvh,y9MeHre6,2020-0188,2020-05-21,18:12:27,18:34:20,NA,incomplete,165,shape,1,right,Green_Plus_Dots_3.jpg,Purple_Circle_Chess_3.jpg,Blue_Plus_Grid_2.jpg,left,1221.0699999995995,false,high,false
y9MeHre6,3tl87mo8dp2yrmmv0olc9pahdcwfly,3duzq9u6sq1ceg15besjshnpfznsvh,y9MeHre6,2020-0188,2020-05-21,18:12:27,18:34:20,NA,incomplete,166,shape,1,right,Blue_Plus_Chess_2.jpg,Purple_Circle_Stripes_2.jpg,Red_Plus_Dots_3.jpg,left,1110.0399999995716,false,high,false
y9MeHre6,3tl87mo8dp2yrmmv0olc9pahdcwfly,3duzq9u6sq1ceg15besjshnpfznsvh,y9MeHre6,2020-0188,2020-05-21,18:12:27,18:34:20,NA,incomplete,167,shape,1,left,Blue_Star_Stripes_4.jpg,Purple_Star_Chess_3.jpg,Red_Triangle_Dots_4.jpg,right,1160.6400000017602,false,high,false
y9MeHre6,3tl87mo8dp2yrmmv0olc9pahdcwfly,3duzq9u6sq1ceg15besjshnpfznsvh,y9MeHre6,2020-0188,2020-05-21,18:12:27,18:34:20,NA,incomplete,168,shape,1,left,Green_Triangle_Chess_2.jpg,Red_Triangle_Dots_4.jpg,Purple_Plus_Grid_2.jpg,left,830.5899999977555,true,high,false
y9MeHre6,3tl87mo8dp2yrmmv0olc9pahdcwfly,3duzq9u6sq1ceg15besjshnpfznsvh,y9MeHre6,2020-0188,2020-05-21,18:12:27,18:34:20,NA,incomplete,169,shape,1,right,Blue_Triangle_Dots_2.jpg,Red_Plus_Grid_2.jpg,Purple_Triangle_Stripes_3.jpg,left,1423.1250000011642,false,high,false
y9MeHre6,3tl87mo8dp2yrmmv0olc9pahdcwfly,3duzq9u6sq1ceg15besjshnpfznsvh,y9MeHre6,2020-0188,2020-05-21,18:12:27,18:34:20,NA,incomplete,170,shape,1,right,Purple_Triangle_Dots_2.jpg,Blue_Plus_Grid_2.jpg,Green_Triangle_Stripes_4.jpg,left,1171.0599999933038,false,high,false
y9MeHre6,3tl87mo8dp2yrmmv0olc9pahdcwfly,3duzq9u6sq1ceg15besjshnpfznsvh,y9MeHre6,2020-0188,2020-05-21,18:12:27,18:34:20,NA,incomplete,171,shape,1,right,Blue_Triangle_Dots_2.jpg,Green_Plus_Grid_2.jpg,Purple_Triangle_Chess_1.jpg,right,889.4500000022817,true,high,false
y9MeHre6,3tl87mo8dp2yrmmv0olc9pahdcwfly,3duzq9u6sq1ceg15besjshnpfznsvh,y9MeHre6,2020-0188,2020-05-21,18:12:27,18:34:20,NA,incomplete,172,shape,1,right,Red_Star_Chess_3.jpg,Green_Circle_Grid_3.jpg,Blue_Star_Stripes_4.jpg,left,1362.0349999982864,false,high,false
y9MeHre6,3tl87mo8dp2yrmmv0olc9pahdcwfly,3duzq9u6sq1ceg15besjshnpfznsvh,y9MeHre6,2020-0188,2020-05-21,18:12:27,18:34:20,NA,incomplete,173,shape,1,left,Blue_Plus_Grid_2.jpg,Red_Plus_Chess_1.jpg,Purple_Circle_Dots_2.jpg,right,808.3100000077393,false,high,false
y9MeHre6,3tl87mo8dp2yrmmv0olc9pahdcwfly,3duzq9u6sq1ceg15besjshnpfznsvh,y9MeHre6,2020-0188,2020-05-21,18:12:27,18:34:20,NA,incomplete,174,shape,0,left,Blue_Star_Chess_2.jpg,Purple_Star_Dots_1.jpg,Green_Triangle_Grid_2.jpg,left,861.3499999921769,true,high,false
y9MeHre6,3tl87mo8dp2yrmmv0olc9pahdcwfly,3duzq9u6sq1ceg15besjshnpfznsvh,y9MeHre6,2020-0188,2020-05-21,18:12:27,18:34:20,NA,incomplete,175,shape,1,left,Green_Circle_Grid_1.jpg,Red_Circle_Chess_2.jpg,Purple_Triangle_Dots_1.jpg,left,1173.569999998901,true,high,false
y9MeHre6,3tl87mo8dp2yrmmv0olc9pahdcwfly,3duzq9u6sq1ceg15besjshnpfznsvh,y9MeHre6,2020-0188,2020-05-21,18:12:27,18:34:20,NA,incomplete,176,shape,0,right,Red_Star_Chess_1.jpg,Purple_Circle_Grid_1.jpg,Green_Star_Dots_2.jpg,right,945.8400000003166,true,high,false
y9MeHre6,3tl87mo8dp2yrmmv0olc9pahdcwfly,3duzq9u6sq1ceg15besjshnpfznsvh,y9MeHre6,2020-0188,2020-05-21,18:12:27,18:34:20,NA,incomplete,177,shape,1,right,Red_Plus_Grid_1.jpg,Purple_Star_Dots_1.jpg,Green_Plus_Stripes_2.jpg,left,1096.8349999892525,false,high,false
y9MeHre6,3tl87mo8dp2yrmmv0olc9pahdcwfly,3duzq9u6sq1ceg15besjshnpfznsvh,y9MeHre6,2020-0188,2020-05-21,18:12:27,18:34:20,NA,incomplete,178,shape,0,left,Purple_Plus_Dots_4.jpg,Green_Plus_Grid_3.jpg,Red_Circle_Chess_4.jpg,left,1434.994999988936,true,high,false
y9MeHre6,3tl87mo8dp2yrmmv0olc9pahdcwfly,3duzq9u6sq1ceg15besjshnpfznsvh,y9MeHre6,2020-0188,2020-05-21,18:12:27,18:34:20,NA,incomplete,179,shape,1,right,Purple_Circle_Stripes_4.jpg,Red_Plus_Chess_4.jpg,Green_Circle_Dots_3.jpg,right,965.8149999885354,true,high,false
y9MeHre6,3tl87mo8dp2yrmmv0olc9pahdcwfly,3duzq9u6sq1ceg15besjshnpfznsvh,y9MeHre6,2020-0188,2020-05-21,18:12:27,18:34:20,NA,incomplete,180,number,1,left,Green_Triangle_Stripes_1.jpg,Purple_Plus_Dots_1.jpg,Blue_Triangle_Chess_2.jpg,left,1306.3300000068266,true,high,false
y9MeHre6,3tl87mo8dp2yrmmv0olc9pahdcwfly,3duzq9u6sq1ceg15besjshnpfznsvh,y9MeHre6,2020-0188,2020-05-21,18:12:27,18:34:20,NA,incomplete,181,number,1,left,Blue_Star_Grid_2.jpg,Red_Plus_Stripes_2.jpg,Green_Star_Chess_1.jpg,left,1420.2900000088848,true,high,false
y9MeHre6,3tl87mo8dp2yrmmv0olc9pahdcwfly,3duzq9u6sq1ceg15besjshnpfznsvh,y9MeHre6,2020-0188,2020-05-21,18:12:27,18:34:20,NA,incomplete,182,number,0,right,Purple_Triangle_Grid_3.jpg,Blue_Triangle_Stripes_4.jpg,Green_Circle_Chess_3.jpg,right,1167.264999996405,true,high,false
y9MeHre6,3tl87mo8dp2yrmmv0olc9pahdcwfly,3duzq9u6sq1ceg15besjshnpfznsvh,y9MeHre6,2020-0188,2020-05-21,18:12:27,18:34:20,NA,incomplete,183,number,1,left,Green_Plus_Dots_4.jpg,Purple_Triangle_Chess_4.jpg,Blue_Plus_Grid_3.jpg,right,1048.7700000084005,false,high,false
y9MeHre6,3tl87mo8dp2yrmmv0olc9pahdcwfly,3duzq9u6sq1ceg15besjshnpfznsvh,y9MeHre6,2020-0188,2020-05-21,18:12:27,18:34:20,NA,incomplete,184,number,1,left,Green_Circle_Stripes_4.jpg,Purple_Plus_Dots_4.jpg,Red_Circle_Grid_2.jpg,left,1672.1000000105705,true,high,false
y9MeHre6,3tl87mo8dp2yrmmv0olc9pahdcwfly,3duzq9u6sq1ceg15besjshnpfznsvh,y9MeHre6,2020-0188,2020-05-21,18:12:27,18:34:20,NA,incomplete,185,number,1,left,Red_Plus_Grid_1.jpg,Blue_Triangle_Chess_1.jpg,Green_Plus_Dots_3.jpg,left,1184.139999997802,true,high,false
y9MeHre6,3tl87mo8dp2yrmmv0olc9pahdcwfly,3duzq9u6sq1ceg15besjshnpfznsvh,y9MeHre6,2020-0188,2020-05-21,18:12:27,18:34:20,NA,incomplete,186,number,1,left,Red_Triangle_Dots_2.jpg,Green_Circle_Grid_2.jpg,Purple_Triangle_Stripes_3.jpg,left,974.2299999925308,true,high,false
y9MeHre6,3tl87mo8dp2yrmmv0olc9pahdcwfly,3duzq9u6sq1ceg15besjshnpfznsvh,y9MeHre6,2020-0188,2020-05-21,18:12:27,18:34:20,NA,incomplete,187,number,0,right,Blue_Plus_Chess_2.jpg,Green_Plus_Dots_3.jpg,Purple_Star_Grid_2.jpg,right,1764.329999990994,true,high,false
y9MeHre6,3tl87mo8dp2yrmmv0olc9pahdcwfly,3duzq9u6sq1ceg15besjshnpfznsvh,y9MeHre6,2020-0188,2020-05-21,18:12:27,18:34:20,NA,incomplete,188,number,1,right,Red_Plus_Chess_2.jpg,Green_Plus_Dots_4.jpg,Blue_Triangle_Stripes_2.jpg,left,977.3399999977555,false,high,false
y9MeHre6,3tl87mo8dp2yrmmv0olc9pahdcwfly,3duzq9u6sq1ceg15besjshnpfznsvh,y9MeHre6,2020-0188,2020-05-21,18:12:27,18:34:20,NA,incomplete,189,number,1,left,Blue_Plus_Chess_1.jpg,Red_Star_Grid_1.jpg,Green_Plus_Stripes_3.jpg,left,1034.9600000046194,true,high,false
y9MeHre6,3tl87mo8dp2yrmmv0olc9pahdcwfly,3duzq9u6sq1ceg15besjshnpfznsvh,y9MeHre6,2020-0188,2020-05-21,18:12:27,18:34:20,NA,incomplete,190,number,1,right,Purple_Triangle_Grid_1.jpg,Blue_Triangle_Stripes_2.jpg,Red_Star_Dots_1.jpg,right,1306.4249999881722,true,high,false
y9MeHre6,3tl87mo8dp2yrmmv0olc9pahdcwfly,3duzq9u6sq1ceg15besjshnpfznsvh,y9MeHre6,2020-0188,2020-05-21,18:12:27,18:34:20,NA,incomplete,191,number,1,left,Red_Plus_Stripes_3.jpg,Purple_Triangle_Grid_3.jpg,Green_Plus_Chess_2.jpg,left,1242.8450000006706,true,high,false
y9MeHre6,3tl87mo8dp2yrmmv0olc9pahdcwfly,3duzq9u6sq1ceg15besjshnpfznsvh,y9MeHre6,2020-0188,2020-05-21,18:12:27,18:34:20,NA,incomplete,192,number,1,left,Blue_Plus_Dots_3.jpg,Red_Star_Chess_3.jpg,Purple_Plus_Stripes_1.jpg,left,1029.8650000039488,true,high,false
y9MeHre6,3tl87mo8dp2yrmmv0olc9pahdcwfly,3duzq9u6sq1ceg15besjshnpfznsvh,y9MeHre6,2020-0188,2020-05-21,18:12:27,18:34:20,NA,incomplete,193,number,1,right,Red_Triangle_Stripes_2.jpg,Purple_Triangle_Dots_4.jpg,Green_Star_Grid_2.jpg,right,1120.1049999946263,true,high,false
y9MeHre6,3tl87mo8dp2yrmmv0olc9pahdcwfly,3duzq9u6sq1ceg15besjshnpfznsvh,y9MeHre6,2020-0188,2020-05-21,18:12:27,18:34:20,NA,incomplete,194,number,1,right,Purple_Triangle_Dots_1.jpg,Blue_Triangle_Chess_2.jpg,Red_Plus_Grid_1.jpg,right,1090.635000000475,true,high,false
y9MeHre6,3tl87mo8dp2yrmmv0olc9pahdcwfly,3duzq9u6sq1ceg15besjshnpfznsvh,y9MeHre6,2020-0188,2020-05-21,18:12:27,18:34:20,NA,incomplete,195,number,1,right,Blue_Circle_Stripes_3.jpg,Green_Circle_Chess_4.jpg,Red_Star_Dots_3.jpg,right,955.9100000041071,true,high,false
y9MeHre6,3tl87mo8dp2yrmmv0olc9pahdcwfly,3duzq9u6sq1ceg15besjshnpfznsvh,y9MeHre6,2020-0188,2020-05-21,18:12:27,18:34:20,NA,incomplete,196,number,0,right,Red_Circle_Chess_1.jpg,Green_Circle_Stripes_2.jpg,Purple_Plus_Dots_1.jpg,right,952.1999999997206,true,high,false
y9MeHre6,3tl87mo8dp2yrmmv0olc9pahdcwfly,3duzq9u6sq1ceg15besjshnpfznsvh,y9MeHre6,2020-0188,2020-05-21,18:12:27,18:34:20,NA,incomplete,197,number,1,left,Red_Plus_Grid_1.jpg,Purple_Star_Dots_1.jpg,Green_Plus_Stripes_4.jpg,right,1117.6200000045355,false,high,false
y9MeHre6,3tl87mo8dp2yrmmv0olc9pahdcwfly,3duzq9u6sq1ceg15besjshnpfznsvh,y9MeHre6,2020-0188,2020-05-21,18:12:27,18:34:20,NA,incomplete,198,number,1,right,Red_Circle_Dots_1.jpg,Blue_Circle_Stripes_4.jpg,Green_Plus_Grid_1.jpg,right,1159.3050000083167,true,high,false
y9MeHre6,3tl87mo8dp2yrmmv0olc9pahdcwfly,3duzq9u6sq1ceg15besjshnpfznsvh,y9MeHre6,2020-0188,2020-05-21,18:12:27,18:34:20,NA,incomplete,199,number,1,right,Blue_Circle_Chess_4.jpg,Green_Circle_Stripes_2.jpg,Red_Plus_Dots_4.jpg,right,1350.179999994114,true,high,false
y9MeHre6,3tl87mo8dp2yrmmv0olc9pahdcwfly,3duzq9u6sq1ceg15besjshnpfznsvh,y9MeHre6,2020-0188,2020-05-21,18:12:27,18:34:20,NA,incomplete,200,shape,0,left,Purple_Star_Stripes_3.jpg,Red_Star_Dots_4.jpg,Blue_Plus_Chess_3.jpg,right,969.3799999949988,false,high,false
y9MeHre6,3tl87mo8dp2yrmmv0olc9pahdcwfly,3duzq9u6sq1ceg15besjshnpfznsvh,y9MeHre6,2020-0188,2020-05-21,18:12:27,18:34:20,NA,incomplete,201,shape,1,left,Green_Triangle_Stripes_1.jpg,Purple_Triangle_Chess_3.jpg,Red_Star_Grid_1.jpg,right,862.359999999404,false,high,false
y9MeHre6,3tl87mo8dp2yrmmv0olc9pahdcwfly,3duzq9u6sq1ceg15besjshnpfznsvh,y9MeHre6,2020-0188,2020-05-21,18:12:27,18:34:20,NA,incomplete,202,shape,1,right,Purple_Circle_Chess_1.jpg,Blue_Triangle_Stripes_1.jpg,Green_Circle_Grid_4.jpg,left,801.1700000062119,false,high,false
y9MeHre6,3tl87mo8dp2yrmmv0olc9pahdcwfly,3duzq9u6sq1ceg15besjshnpfznsvh,y9MeHre6,2020-0188,2020-05-21,18:12:27,18:34:20,NA,incomplete,203,shape,0,left,Purple_Triangle_Grid_4.jpg,Red_Triangle_Stripes_1.jpg,Blue_Plus_Dots_4.jpg,left,1134.275000003865,true,high,false
y9MeHre6,3tl87mo8dp2yrmmv0olc9pahdcwfly,3duzq9u6sq1ceg15besjshnpfznsvh,y9MeHre6,2020-0188,2020-05-21,18:12:27,18:34:20,NA,incomplete,204,shape,1,right,Green_Star_Grid_3.jpg,Red_Triangle_Stripes_3.jpg,Purple_Star_Dots_2.jpg,left,1523.3999999910593,false,high,false
y9MeHre6,3tl87mo8dp2yrmmv0olc9pahdcwfly,3duzq9u6sq1ceg15besjshnpfznsvh,y9MeHre6,2020-0188,2020-05-21,18:12:27,18:34:20,NA,incomplete,205,shape,1,right,Blue_Plus_Stripes_1.jpg,Green_Star_Grid_1.jpg,Red_Plus_Chess_4.jpg,right,1139.2950000008568,true,high,false
y9MeHre6,3tl87mo8dp2yrmmv0olc9pahdcwfly,3duzq9u6sq1ceg15besjshnpfznsvh,y9MeHre6,2020-0188,2020-05-21,18:12:27,18:34:20,NA,incomplete,206,shape,0,right,Green_Triangle_Dots_3.jpg,Purple_Plus_Chess_3.jpg,Red_Triangle_Stripes_1.jpg,right,1074.0400000065565,true,high,false
y9MeHre6,3tl87mo8dp2yrmmv0olc9pahdcwfly,3duzq9u6sq1ceg15besjshnpfznsvh,y9MeHre6,2020-0188,2020-05-21,18:12:27,18:34:20,NA,incomplete,207,shape,1,left,Blue_Plus_Chess_1.jpg,Green_Plus_Grid_4.jpg,Purple_Circle_Stripes_1.jpg,left,858.1500000001397,true,high,false
y9MeHre6,3tl87mo8dp2yrmmv0olc9pahdcwfly,3duzq9u6sq1ceg15besjshnpfznsvh,y9MeHre6,2020-0188,2020-05-21,18:12:27,18:34:20,NA,incomplete,208,shape,1,left,Green_Triangle_Stripes_1.jpg,Purple_Triangle_Chess_2.jpg,Blue_Plus_Dots_1.jpg,left,852.8700000024401,true,high,false
y9MeHre6,3tl87mo8dp2yrmmv0olc9pahdcwfly,3duzq9u6sq1ceg15besjshnpfznsvh,y9MeHre6,2020-0188,2020-05-21,18:12:27,18:34:20,NA,incomplete,209,shape,1,right,Red_Circle_Chess_2.jpg,Green_Triangle_Grid_2.jpg,Purple_Circle_Dots_1.jpg,right,1159.8300000042655,true,high,false
y9MeHre6,3tl87mo8dp2yrmmv0olc9pahdcwfly,3duzq9u6sq1ceg15besjshnpfznsvh,y9MeHre6,2020-0188,2020-05-21,18:12:27,18:34:20,NA,incomplete,210,shape,1,right,Blue_Triangle_Dots_1.jpg,Red_Circle_Chess_1.jpg,Green_Triangle_Stripes_4.jpg,right,837.0700000086799,true,high,false
y9MeHre6,3tl87mo8dp2yrmmv0olc9pahdcwfly,3duzq9u6sq1ceg15besjshnpfznsvh,y9MeHre6,2020-0188,2020-05-21,18:12:27,18:34:20,NA,incomplete,211,shape,1,left,Green_Plus_Grid_1.jpg,Red_Plus_Chess_2.jpg,Blue_Circle_Dots_1.jpg,left,942.7950000099372,true,high,false
y9MeHre6,3tl87mo8dp2yrmmv0olc9pahdcwfly,3duzq9u6sq1ceg15besjshnpfznsvh,y9MeHre6,2020-0188,2020-05-21,18:12:27,18:34:20,NA,incomplete,212,shape,1,right,Red_Plus_Chess_1.jpg,Blue_Triangle_Stripes_1.jpg,Purple_Plus_Grid_3.jpg,right,783.5800000028685,true,high,false
y9MeHre6,3tl87mo8dp2yrmmv0olc9pahdcwfly,3duzq9u6sq1ceg15besjshnpfznsvh,y9MeHre6,2020-0188,2020-05-21,18:12:27,18:34:20,NA,incomplete,213,shape,0,right,Green_Plus_Chess_4.jpg,Purple_Triangle_Stripes_4.jpg,Red_Plus_Grid_1.jpg,right,700.5349999964237,true,high,false
y9MeHre6,3tl87mo8dp2yrmmv0olc9pahdcwfly,3duzq9u6sq1ceg15besjshnpfznsvh,y9MeHre6,2020-0188,2020-05-21,18:12:27,18:34:20,NA,incomplete,214,shape,1,left,Red_Triangle_Grid_4.jpg,Green_Triangle_Chess_1.jpg,Purple_Circle_Stripes_4.jpg,right,1190.0250000033993,false,high,false
y9MeHre6,3tl87mo8dp2yrmmv0olc9pahdcwfly,3duzq9u6sq1ceg15besjshnpfznsvh,y9MeHre6,2020-0188,2020-05-21,18:12:27,18:34:20,NA,incomplete,215,shape,1,left,Blue_Plus_Grid_1.jpg,Purple_Plus_Dots_3.jpg,Green_Triangle_Chess_1.jpg,right,1786.4399999962188,false,high,false
y9MeHre6,3tl87mo8dp2yrmmv0olc9pahdcwfly,3duzq9u6sq1ceg15besjshnpfznsvh,y9MeHre6,2020-0188,2020-05-21,18:12:27,18:34:20,NA,incomplete,216,shape,0,right,Green_Plus_Dots_1.jpg,Purple_Circle_Chess_1.jpg,Blue_Plus_Grid_3.jpg,right,1047.3000000056345,true,high,false
y9MeHre6,3tl87mo8dp2yrmmv0olc9pahdcwfly,3duzq9u6sq1ceg15besjshnpfznsvh,y9MeHre6,2020-0188,2020-05-21,18:12:27,18:34:20,NA,incomplete,217,shape,1,right,Red_Triangle_Grid_4.jpg,Green_Circle_Chess_4.jpg,Purple_Triangle_Dots_3.jpg,left,1888.0449999996927,false,high,false
y9MeHre6,3tl87mo8dp2yrmmv0olc9pahdcwfly,3duzq9u6sq1ceg15besjshnpfznsvh,y9MeHre6,2020-0188,2020-05-21,18:12:27,18:34:20,NA,incomplete,218,shape,1,right,Green_Circle_Grid_2.jpg,Blue_Plus_Chess_2.jpg,Red_Circle_Dots_3.jpg,left,1186.8049999903888,false,high,false
y9MeHre6,3tl87mo8dp2yrmmv0olc9pahdcwfly,3duzq9u6sq1ceg15besjshnpfznsvh,y9MeHre6,2020-0188,2020-05-21,18:12:27,18:34:20,NA,incomplete,219,shape,1,right,Blue_Star_Grid_3.jpg,Purple_Plus_Chess_3.jpg,Green_Star_Stripes_4.jpg,right,822.2700000042096,true,high,false
y9MeHre6,3tl87mo8dp2yrmmv0olc9pahdcwfly,3duzq9u6sq1ceg15besjshnpfznsvh,y9MeHre6,2020-0188,2020-05-21,18:12:27,18:34:20,NA,incomplete,220,number,0,right,Red_Plus_Chess_1.jpg,Blue_Plus_Stripes_2.jpg,Green_Triangle_Dots_1.jpg,left,747.1450000011828,false,high,false
y9MeHre6,3tl87mo8dp2yrmmv0olc9pahdcwfly,3duzq9u6sq1ceg15besjshnpfznsvh,y9MeHre6,2020-0188,2020-05-21,18:12:27,18:34:20,NA,incomplete,221,number,1,left,Red_Plus_Chess_1.jpg,Green_Circle_Grid_1.jpg,Purple_Plus_Stripes_2.jpg,right,760.5650000041351,false,high,false
y9MeHre6,3tl87mo8dp2yrmmv0olc9pahdcwfly,3duzq9u6sq1ceg15besjshnpfznsvh,y9MeHre6,2020-0188,2020-05-21,18:12:27,18:34:20,NA,incomplete,222,number,1,left,Green_Plus_Stripes_2.jpg,Blue_Star_Chess_2.jpg,Purple_Plus_Grid_3.jpg,right,878.0799999949522,false,high,false
y9MeHre6,3tl87mo8dp2yrmmv0olc9pahdcwfly,3duzq9u6sq1ceg15besjshnpfznsvh,y9MeHre6,2020-0188,2020-05-21,18:12:27,18:34:20,NA,incomplete,223,number,1,left,Purple_Circle_Chess_2.jpg,Green_Star_Stripes_2.jpg,Red_Circle_Dots_3.jpg,left,1035.5649999983143,true,high,false
y9MeHre6,3tl87mo8dp2yrmmv0olc9pahdcwfly,3duzq9u6sq1ceg15besjshnpfznsvh,y9MeHre6,2020-0188,2020-05-21,18:12:27,18:34:20,NA,incomplete,224,number,1,right,Green_Circle_Stripes_3.jpg,Purple_Circle_Grid_4.jpg,Red_Triangle_Chess_3.jpg,right,1333.5099999967497,true,high,false
y9MeHre6,3tl87mo8dp2yrmmv0olc9pahdcwfly,3duzq9u6sq1ceg15besjshnpfznsvh,y9MeHre6,2020-0188,2020-05-21,18:12:27,18:34:20,NA,incomplete,225,number,1,right,Green_Triangle_Grid_2.jpg,Red_Triangle_Dots_3.jpg,Blue_Circle_Stripes_2.jpg,right,931.8400000045076,true,high,false
y9MeHre6,3tl87mo8dp2yrmmv0olc9pahdcwfly,3duzq9u6sq1ceg15besjshnpfznsvh,y9MeHre6,2020-0188,2020-05-21,18:12:27,18:34:20,NA,incomplete,226,number,1,right,Green_Plus_Grid_1.jpg,Blue_Plus_Chess_4.jpg,Purple_Triangle_Stripes_1.jpg,right,1012.4999999969732,true,high,false
y9MeHre6,3tl87mo8dp2yrmmv0olc9pahdcwfly,3duzq9u6sq1ceg15besjshnpfznsvh,y9MeHre6,2020-0188,2020-05-21,18:12:27,18:34:20,NA,incomplete,227,number,1,left,Green_Plus_Chess_1.jpg,Red_Circle_Stripes_1.jpg,Purple_Plus_Grid_3.jpg,left,983.8549999985844,true,high,false
y9MeHre6,3tl87mo8dp2yrmmv0olc9pahdcwfly,3duzq9u6sq1ceg15besjshnpfznsvh,y9MeHre6,2020-0188,2020-05-21,18:12:27,18:34:20,NA,incomplete,228,number,1,left,Blue_Star_Stripes_1.jpg,Red_Triangle_Dots_1.jpg,Purple_Star_Grid_2.jpg,left,950.2799999900162,true,high,false
y9MeHre6,3tl87mo8dp2yrmmv0olc9pahdcwfly,3duzq9u6sq1ceg15besjshnpfznsvh,y9MeHre6,2020-0188,2020-05-21,18:12:27,18:34:20,NA,incomplete,229,number,1,right,Red_Triangle_Stripes_3.jpg,Green_Triangle_Dots_2.jpg,Blue_Star_Grid_3.jpg,right,938.0700000040233,true,high,false
y9MeHre6,3tl87mo8dp2yrmmv0olc9pahdcwfly,3duzq9u6sq1ceg15besjshnpfznsvh,y9MeHre6,2020-0188,2020-05-21,18:12:27,18:34:20,NA,incomplete,230,number,1,right,Purple_Plus_Grid_3.jpg,Blue_Plus_Dots_1.jpg,Red_Circle_Stripes_3.jpg,right,778.2549999973271,true,high,false
y9MeHre6,3tl87mo8dp2yrmmv0olc9pahdcwfly,3duzq9u6sq1ceg15besjshnpfznsvh,y9MeHre6,2020-0188,2020-05-21,18:12:27,18:34:20,NA,incomplete,231,number,0,right,Blue_Circle_Dots_4.jpg,Green_Circle_Stripes_2.jpg,Purple_Star_Chess_4.jpg,right,918.1950000056531,true,high,false
y9MeHre6,3tl87mo8dp2yrmmv0olc9pahdcwfly,3duzq9u6sq1ceg15besjshnpfznsvh,y9MeHre6,2020-0188,2020-05-21,18:12:27,18:34:20,NA,incomplete,232,number,1,right,Green_Star_Chess_2.jpg,Red_Star_Stripes_1.jpg,Blue_Plus_Dots_2.jpg,left,784.0799999977462,false,high,false
y9MeHre6,3tl87mo8dp2yrmmv0olc9pahdcwfly,3duzq9u6sq1ceg15besjshnpfznsvh,y9MeHre6,2020-0188,2020-05-21,18:12:27,18:34:20,NA,incomplete,233,number,0,left,Purple_Star_Stripes_3.jpg,Red_Plus_Grid_3.jpg,Green_Star_Chess_4.jpg,left,1300.2450000059325,true,high,false
y9MeHre6,3tl87mo8dp2yrmmv0olc9pahdcwfly,3duzq9u6sq1ceg15besjshnpfznsvh,y9MeHre6,2020-0188,2020-05-21,18:12:27,18:34:20,NA,incomplete,234,number,1,right,Red_Plus_Dots_3.jpg,Blue_Plus_Chess_2.jpg,Purple_Star_Stripes_3.jpg,left,1522.3549999939278,false,high,false
y9MeHre6,3tl87mo8dp2yrmmv0olc9pahdcwfly,3duzq9u6sq1ceg15besjshnpfznsvh,y9MeHre6,2020-0188,2020-05-21,18:12:27,18:34:20,NA,incomplete,235,number,1,left,Red_Circle_Stripes_2.jpg,Purple_Plus_Grid_2.jpg,Blue_Circle_Chess_3.jpg,left,1432.5950000057928,true,high,false
y9MeHre6,3tl87mo8dp2yrmmv0olc9pahdcwfly,3duzq9u6sq1ceg15besjshnpfznsvh,y9MeHre6,2020-0188,2020-05-21,18:12:27,18:34:20,NA,incomplete,236,number,0,right,Purple_Circle_Grid_2.jpg,Green_Circle_Dots_3.jpg,Blue_Triangle_Chess_2.jpg,right,1485.2799999937415,true,high,false
y9MeHre6,3tl87mo8dp2yrmmv0olc9pahdcwfly,3duzq9u6sq1ceg15besjshnpfznsvh,y9MeHre6,2020-0188,2020-05-21,18:12:27,18:34:20,NA,incomplete,237,number,1,right,Purple_Star_Grid_1.jpg,Red_Star_Stripes_2.jpg,Blue_Plus_Chess_1.jpg,left,870.179999998305,false,high,false
y9MeHre6,3tl87mo8dp2yrmmv0olc9pahdcwfly,3duzq9u6sq1ceg15besjshnpfznsvh,y9MeHre6,2020-0188,2020-05-21,18:12:27,18:34:20,NA,incomplete,238,number,1,right,Red_Circle_Stripes_3.jpg,Purple_Circle_Grid_1.jpg,Blue_Plus_Chess_3.jpg,right,1377.06000001356,true,high,false
y9MeHre6,3tl87mo8dp2yrmmv0olc9pahdcwfly,3duzq9u6sq1ceg15besjshnpfznsvh,y9MeHre6,2020-0188,2020-05-21,18:12:27,18:34:20,NA,incomplete,239,number,1,right,Green_Star_Chess_3.jpg,Blue_Star_Dots_1.jpg,Red_Plus_Stripes_3.jpg,right,951.1599999968894,true,high,false
y9MeHre6,3tl87mo8dp2yrmmv0olc9pahdcwfly,3duzq9u6sq1ceg15besjshnpfznsvh,y9MeHre6,2020-0188,2020-05-21,18:12:27,18:34:20,NA,NA,instruction example,color,NA,NA,Blue_Circle_Dots_4.jpg,Blue_Star_Chess_2.jpg,Red_Triangle_Dots_1.jpg,NA,NA,NA,NA,undefined
y9MeHre6,3tl87mo8dp2yrmmv0olc9pahdcwfly,3duzq9u6sq1ceg15besjshnpfznsvh,y9MeHre6,2020-0188,2020-05-21,18:12:27,18:34:20,NA,NA,instruction example,color,NA,NA,Red_Plus_Grid_3.jpg,Green_Circle_Grid_1.jpg,Red_Triangle_Chess_4.jpg,NA,NA,NA,NA,undefined
y9MeHre6,3tl87mo8dp2yrmmv0olc9pahdcwfly,3duzq9u6sq1ceg15besjshnpfznsvh,y9MeHre6,2020-0188,2020-05-21,18:12:27,18:34:20,NA,NA,instruction example,color,NA,NA,Green_Star_Grid_1.jpg,Red_Star_Chess_4.jpg,Blue_Triangle_Dots_1.jpg,NA,NA,NA,NA,undefined
y9MeHre6,3tl87mo8dp2yrmmv0olc9pahdcwfly,3duzq9u6sq1ceg15besjshnpfznsvh,y9MeHre6,2020-0188,2020-05-21,18:12:27,18:34:20,NA,NA,instruction example,color,NA,NA,Blue_Plus_Grid_4.jpg,Purple_Circle_Dots_4.jpg,Red_Plus_Chess_2.jpg,NA,NA,NA,NA,undefined
y9MeHre6,3tl87mo8dp2yrmmv0olc9pahdcwfly,3duzq9u6sq1ceg15besjshnpfznsvh,y9MeHre6,2020-0188,2020-05-21,18:12:27,18:34:20,1281685.995000007,1314699.219999995,NA,NA,NA,NA,NA,NA,NA,NA,NA,NA,NA,undefined
