workerId,hitId,assignmentId,subject,studyid,exp_date,exp_start,exp_end,time_start,time_end,trial,type,reward_validity,answer,image_top,image_left,image_right,response,response_time,response_acc,volatility,age,race,gender,ethnicity,color,vision,neuro,practice
qpPhMQTj,3r15w654wg6vibc4e4w6loevry9lqd,3e13vnj1nr87yqibzoeghranfqii1g,qpPhMQTj,2020-0188,2020-11-18,15:19:49,15:46:22,NA,incomplete,0,shape,1,right,Blue_Triangle_Chess_1.jpg,Red_Star_Chess_2.jpg,Purple_Triangle_Stripes_3.jpg,right,1108,true,NA,NA,NA,NA,NA,NA,NA,NA,true
qpPhMQTj,3r15w654wg6vibc4e4w6loevry9lqd,3e13vnj1nr87yqibzoeghranfqii1g,qpPhMQTj,2020-0188,2020-11-18,15:19:49,15:46:22,NA,incomplete,1,shape,0,left,Blue_Plus_Chess_2.jpg,Green_Plus_Dots_1.jpg,Red_Triangle_Chess_4.jpg,left,723.8999999999651,true,NA,NA,NA,NA,NA,NA,NA,NA,true
qpPhMQTj,3r15w654wg6vibc4e4w6loevry9lqd,3e13vnj1nr87yqibzoeghranfqii1g,qpPhMQTj,2020-0188,2020-11-18,15:19:49,15:46:22,NA,incomplete,2,shape,1,right,Purple_Triangle_Stripes_2.jpg,Blue_Circle_Stripes_3.jpg,Red_Triangle_Chess_4.jpg,right,950.9000000000233,true,NA,NA,NA,NA,NA,NA,NA,NA,true
qpPhMQTj,3r15w654wg6vibc4e4w6loevry9lqd,3e13vnj1nr87yqibzoeghranfqii1g,qpPhMQTj,2020-0188,2020-11-18,15:19:49,15:46:22,NA,incomplete,3,shape,1,left,Purple_Circle_Dots_4.jpg,Green_Circle_Grid_3.jpg,Red_Plus_Dots_1.jpg,left,692.5,true,NA,NA,NA,NA,NA,NA,NA,NA,true
qpPhMQTj,3r15w654wg6vibc4e4w6loevry9lqd,3e13vnj1nr87yqibzoeghranfqii1g,qpPhMQTj,2020-0188,2020-11-18,15:19:49,15:46:22,NA,incomplete,4,shape,1,right,Blue_Star_Grid_3.jpg,Green_Plus_Grid_1.jpg,Purple_Star_Chess_2.jpg,right,574.8999999999651,true,NA,NA,NA,NA,NA,NA,NA,NA,true
qpPhMQTj,3r15w654wg6vibc4e4w6loevry9lqd,3e13vnj1nr87yqibzoeghranfqii1g,qpPhMQTj,2020-0188,2020-11-18,15:19:49,15:46:22,NA,incomplete,5,shape,1,right,Blue_Circle_Stripes_3.jpg,Purple_Star_Stripes_2.jpg,Red_Circle_Dots_1.jpg,right,676.3999999999651,true,NA,NA,NA,NA,NA,NA,NA,NA,true
qpPhMQTj,3r15w654wg6vibc4e4w6loevry9lqd,3e13vnj1nr87yqibzoeghranfqii1g,qpPhMQTj,2020-0188,2020-11-18,15:19:49,15:46:22,NA,incomplete,6,shape,1,left,Blue_Plus_Dots_3.jpg,Red_Plus_Grid_1.jpg,Green_Star_Dots_2.jpg,left,525.2000000000116,true,NA,NA,NA,NA,NA,NA,NA,NA,true
qpPhMQTj,3r15w654wg6vibc4e4w6loevry9lqd,3e13vnj1nr87yqibzoeghranfqii1g,qpPhMQTj,2020-0188,2020-11-18,15:19:49,15:46:22,NA,incomplete,7,shape,1,left,Red_Star_Grid_2.jpg,Purple_Star_Chess_1.jpg,Green_Triangle_Grid_4.jpg,left,629.7999999999884,true,NA,NA,NA,NA,NA,NA,NA,NA,true
qpPhMQTj,3r15w654wg6vibc4e4w6loevry9lqd,3e13vnj1nr87yqibzoeghranfqii1g,qpPhMQTj,2020-0188,2020-11-18,15:19:49,15:46:22,NA,incomplete,8,shape,1,left,Red_Circle_Chess_4.jpg,Green_Circle_Dots_2.jpg,Blue_Plus_Chess_3.jpg,left,545.1000000000349,true,NA,NA,NA,NA,NA,NA,NA,NA,true
qpPhMQTj,3r15w654wg6vibc4e4w6loevry9lqd,3e13vnj1nr87yqibzoeghranfqii1g,qpPhMQTj,2020-0188,2020-11-18,15:19:49,15:46:22,NA,incomplete,9,shape,1,right,Red_Star_Dots_2.jpg,Blue_Plus_Dots_4.jpg,Green_Star_Stripes_3.jpg,right,647.5,true,NA,NA,NA,NA,NA,NA,NA,NA,true
qpPhMQTj,3r15w654wg6vibc4e4w6loevry9lqd,3e13vnj1nr87yqibzoeghranfqii1g,qpPhMQTj,2020-0188,2020-11-18,15:19:49,15:46:22,NA,incomplete,10,shape,1,right,Purple_Star_Stripes_1.jpg,Red_Circle_Stripes_4.jpg,Green_Star_Grid_3.jpg,right,570.7000000000116,true,NA,NA,NA,NA,NA,NA,NA,NA,true
qpPhMQTj,3r15w654wg6vibc4e4w6loevry9lqd,3e13vnj1nr87yqibzoeghranfqii1g,qpPhMQTj,2020-0188,2020-11-18,15:19:49,15:46:22,NA,incomplete,11,shape,1,left,Purple_Circle_Grid_2.jpg,Blue_Circle_Dots_1.jpg,Green_Plus_Grid_3.jpg,left,533.8000000000466,true,NA,NA,NA,NA,NA,NA,NA,NA,true
qpPhMQTj,3r15w654wg6vibc4e4w6loevry9lqd,3e13vnj1nr87yqibzoeghranfqii1g,qpPhMQTj,2020-0188,2020-11-18,15:19:49,15:46:22,NA,incomplete,12,shape,1,right,Red_Plus_Stripes_4.jpg,Green_Circle_Stripes_1.jpg,Blue_Plus_Grid_2.jpg,right,536.6000000000349,true,NA,NA,NA,NA,NA,NA,NA,NA,true
qpPhMQTj,3r15w654wg6vibc4e4w6loevry9lqd,3e13vnj1nr87yqibzoeghranfqii1g,qpPhMQTj,2020-0188,2020-11-18,15:19:49,15:46:22,NA,incomplete,13,shape,0,right,Purple_Plus_Grid_4.jpg,Red_Circle_Grid_1.jpg,Blue_Plus_Dots_2.jpg,right,542,true,NA,NA,NA,NA,NA,NA,NA,NA,true
qpPhMQTj,3r15w654wg6vibc4e4w6loevry9lqd,3e13vnj1nr87yqibzoeghranfqii1g,qpPhMQTj,2020-0188,2020-11-18,15:19:49,15:46:22,NA,incomplete,14,shape,0,left,Purple_Star_Chess_2.jpg,Blue_Star_Dots_4.jpg,Red_Triangle_Chess_1.jpg,left,756.2000000000116,true,NA,NA,NA,NA,NA,NA,NA,NA,true
qpPhMQTj,3r15w654wg6vibc4e4w6loevry9lqd,3e13vnj1nr87yqibzoeghranfqii1g,qpPhMQTj,2020-0188,2020-11-18,15:19:49,15:46:22,NA,incomplete,15,shape,1,right,Red_Triangle_Chess_1.jpg,Green_Star_Chess_3.jpg,Blue_Triangle_Stripes_2.jpg,right,690.5999999999767,true,NA,NA,NA,NA,NA,NA,NA,NA,true
qpPhMQTj,3r15w654wg6vibc4e4w6loevry9lqd,3e13vnj1nr87yqibzoeghranfqii1g,qpPhMQTj,2020-0188,2020-11-18,15:19:49,15:46:22,NA,incomplete,16,shape,1,right,Purple_Circle_Stripes_2.jpg,Red_Star_Stripes_3.jpg,Green_Circle_Chess_4.jpg,right,606.0999999999767,true,NA,NA,NA,NA,NA,NA,NA,NA,true
qpPhMQTj,3r15w654wg6vibc4e4w6loevry9lqd,3e13vnj1nr87yqibzoeghranfqii1g,qpPhMQTj,2020-0188,2020-11-18,15:19:49,15:46:22,NA,incomplete,17,shape,1,right,Purple_Triangle_Chess_1.jpg,Blue_Plus_Chess_2.jpg,Green_Triangle_Stripes_4.jpg,right,630.2999999999884,true,NA,NA,NA,NA,NA,NA,NA,NA,true
qpPhMQTj,3r15w654wg6vibc4e4w6loevry9lqd,3e13vnj1nr87yqibzoeghranfqii1g,qpPhMQTj,2020-0188,2020-11-18,15:19:49,15:46:22,NA,incomplete,18,shape,1,right,Red_Circle_Chess_4.jpg,Blue_Plus_Chess_2.jpg,Purple_Circle_Dots_1.jpg,right,536,true,NA,NA,NA,NA,NA,NA,NA,NA,true
qpPhMQTj,3r15w654wg6vibc4e4w6loevry9lqd,3e13vnj1nr87yqibzoeghranfqii1g,qpPhMQTj,2020-0188,2020-11-18,15:19:49,15:46:22,NA,incomplete,19,shape,1,left,Green_Circle_Grid_1.jpg,Purple_Circle_Chess_4.jpg,Blue_Triangle_Grid_2.jpg,left,477.5999999999767,true,NA,NA,NA,NA,NA,NA,NA,NA,true
qpPhMQTj,3r15w654wg6vibc4e4w6loevry9lqd,3e13vnj1nr87yqibzoeghranfqii1g,qpPhMQTj,2020-0188,2020-11-18,15:19:49,15:46:22,NA,incomplete,20,filling,1,right,Red_Star_Stripes_2.jpg,Green_Star_Dots_1.jpg,Purple_Triangle_Stripes_3.jpg,left,763.3999999999651,false,NA,NA,NA,NA,NA,NA,NA,NA,true
qpPhMQTj,3r15w654wg6vibc4e4w6loevry9lqd,3e13vnj1nr87yqibzoeghranfqii1g,qpPhMQTj,2020-0188,2020-11-18,15:19:49,15:46:22,NA,incomplete,21,filling,1,right,Purple_Triangle_Dots_1.jpg,Green_Triangle_Chess_2.jpg,Red_Circle_Dots_4.jpg,right,1081,true,NA,NA,NA,NA,NA,NA,NA,NA,true
qpPhMQTj,3r15w654wg6vibc4e4w6loevry9lqd,3e13vnj1nr87yqibzoeghranfqii1g,qpPhMQTj,2020-0188,2020-11-18,15:19:49,15:46:22,NA,incomplete,22,filling,0,right,Green_Plus_Grid_4.jpg,Blue_Plus_Chess_1.jpg,Purple_Star_Grid_2.jpg,left,810.7999999999884,false,NA,NA,NA,NA,NA,NA,NA,NA,true
qpPhMQTj,3r15w654wg6vibc4e4w6loevry9lqd,3e13vnj1nr87yqibzoeghranfqii1g,qpPhMQTj,2020-0188,2020-11-18,15:19:49,15:46:22,NA,incomplete,23,filling,1,left,Blue_Plus_Stripes_4.jpg,Red_Star_Stripes_2.jpg,Purple_Plus_Grid_3.jpg,left,1057.7999999999883,true,NA,NA,NA,NA,NA,NA,NA,NA,true
qpPhMQTj,3r15w654wg6vibc4e4w6loevry9lqd,3e13vnj1nr87yqibzoeghranfqii1g,qpPhMQTj,2020-0188,2020-11-18,15:19:49,15:46:22,NA,incomplete,24,filling,1,left,Purple_Triangle_Grid_3.jpg,Green_Star_Grid_2.jpg,Blue_Triangle_Stripes_4.jpg,left,1017.5999999999767,true,NA,NA,NA,NA,NA,NA,NA,NA,true
qpPhMQTj,3r15w654wg6vibc4e4w6loevry9lqd,3e13vnj1nr87yqibzoeghranfqii1g,qpPhMQTj,2020-0188,2020-11-18,15:19:49,15:46:22,NA,incomplete,25,filling,1,right,Red_Plus_Stripes_2.jpg,Purple_Plus_Dots_3.jpg,Blue_Star_Stripes_1.jpg,right,1122.5,true,NA,NA,NA,NA,NA,NA,NA,NA,true
qpPhMQTj,3r15w654wg6vibc4e4w6loevry9lqd,3e13vnj1nr87yqibzoeghranfqii1g,qpPhMQTj,2020-0188,2020-11-18,15:19:49,15:46:22,NA,incomplete,26,filling,1,right,Blue_Triangle_Stripes_2.jpg,Red_Triangle_Grid_3.jpg,Green_Star_Stripes_4.jpg,right,873.2000000000116,true,NA,NA,NA,NA,NA,NA,NA,NA,true
qpPhMQTj,3r15w654wg6vibc4e4w6loevry9lqd,3e13vnj1nr87yqibzoeghranfqii1g,qpPhMQTj,2020-0188,2020-11-18,15:19:49,15:46:22,NA,incomplete,27,filling,0,right,Blue_Star_Chess_3.jpg,Red_Star_Grid_1.jpg,Green_Plus_Chess_2.jpg,right,985.5999999999767,true,NA,NA,NA,NA,NA,NA,NA,NA,true
qpPhMQTj,3r15w654wg6vibc4e4w6loevry9lqd,3e13vnj1nr87yqibzoeghranfqii1g,qpPhMQTj,2020-0188,2020-11-18,15:19:49,15:46:22,NA,incomplete,28,filling,1,right,Blue_Star_Chess_1.jpg,Purple_Star_Dots_4.jpg,Green_Plus_Chess_2.jpg,right,976.2999999999884,true,NA,NA,NA,NA,NA,NA,NA,NA,true
qpPhMQTj,3r15w654wg6vibc4e4w6loevry9lqd,3e13vnj1nr87yqibzoeghranfqii1g,qpPhMQTj,2020-0188,2020-11-18,15:19:49,15:46:22,NA,incomplete,29,filling,1,left,Blue_Plus_Grid_1.jpg,Purple_Triangle_Grid_3.jpg,Red_Plus_Stripes_2.jpg,left,905.2999999999884,true,NA,NA,NA,NA,NA,NA,NA,NA,true
qpPhMQTj,3r15w654wg6vibc4e4w6loevry9lqd,3e13vnj1nr87yqibzoeghranfqii1g,qpPhMQTj,2020-0188,2020-11-18,15:19:49,15:46:22,NA,incomplete,30,filling,1,left,Red_Star_Grid_1.jpg,Green_Circle_Grid_4.jpg,Purple_Star_Stripes_3.jpg,left,791.0999999999767,true,NA,NA,NA,NA,NA,NA,NA,NA,true
qpPhMQTj,3r15w654wg6vibc4e4w6loevry9lqd,3e13vnj1nr87yqibzoeghranfqii1g,qpPhMQTj,2020-0188,2020-11-18,15:19:49,15:46:22,NA,incomplete,31,filling,1,right,Red_Plus_Grid_1.jpg,Purple_Plus_Dots_3.jpg,Green_Star_Grid_4.jpg,right,756.5,true,NA,NA,NA,NA,NA,NA,NA,NA,true
qpPhMQTj,3r15w654wg6vibc4e4w6loevry9lqd,3e13vnj1nr87yqibzoeghranfqii1g,qpPhMQTj,2020-0188,2020-11-18,15:19:49,15:46:22,NA,incomplete,32,filling,1,right,Purple_Circle_Chess_1.jpg,Red_Circle_Dots_4.jpg,Green_Triangle_Chess_3.jpg,right,833.5999999999767,true,NA,NA,NA,NA,NA,NA,NA,NA,true
qpPhMQTj,3r15w654wg6vibc4e4w6loevry9lqd,3e13vnj1nr87yqibzoeghranfqii1g,qpPhMQTj,2020-0188,2020-11-18,15:19:49,15:46:22,NA,incomplete,33,filling,0,right,Red_Star_Stripes_3.jpg,Purple_Star_Chess_2.jpg,Blue_Plus_Stripes_4.jpg,right,890,true,NA,NA,NA,NA,NA,NA,NA,NA,true
qpPhMQTj,3r15w654wg6vibc4e4w6loevry9lqd,3e13vnj1nr87yqibzoeghranfqii1g,qpPhMQTj,2020-0188,2020-11-18,15:19:49,15:46:22,NA,incomplete,34,filling,1,right,Purple_Star_Grid_1.jpg,Blue_Star_Dots_3.jpg,Green_Triangle_Grid_4.jpg,right,1015.5,true,NA,NA,NA,NA,NA,NA,NA,NA,true
qpPhMQTj,3r15w654wg6vibc4e4w6loevry9lqd,3e13vnj1nr87yqibzoeghranfqii1g,qpPhMQTj,2020-0188,2020-11-18,15:19:49,15:46:22,NA,incomplete,35,filling,0,left,Purple_Circle_Grid_4.jpg,Green_Plus_Grid_1.jpg,Red_Circle_Dots_2.jpg,right,737.5999999999767,false,NA,NA,NA,NA,NA,NA,NA,NA,true
qpPhMQTj,3r15w654wg6vibc4e4w6loevry9lqd,3e13vnj1nr87yqibzoeghranfqii1g,qpPhMQTj,2020-0188,2020-11-18,15:19:49,15:46:22,NA,incomplete,36,filling,1,left,Red_Circle_Stripes_1.jpg,Purple_Star_Stripes_3.jpg,Blue_Circle_Chess_4.jpg,left,1239.5,true,NA,NA,NA,NA,NA,NA,NA,NA,true
qpPhMQTj,3r15w654wg6vibc4e4w6loevry9lqd,3e13vnj1nr87yqibzoeghranfqii1g,qpPhMQTj,2020-0188,2020-11-18,15:19:49,15:46:22,NA,incomplete,37,filling,1,right,Purple_Triangle_Stripes_3.jpg,Red_Triangle_Chess_4.jpg,Green_Star_Stripes_2.jpg,right,901.8999999999651,true,NA,NA,NA,NA,NA,NA,NA,NA,true
qpPhMQTj,3r15w654wg6vibc4e4w6loevry9lqd,3e13vnj1nr87yqibzoeghranfqii1g,qpPhMQTj,2020-0188,2020-11-18,15:19:49,15:46:22,NA,incomplete,38,filling,0,right,Green_Circle_Chess_2.jpg,Purple_Circle_Dots_3.jpg,Red_Triangle_Chess_1.jpg,right,706.7000000000116,true,NA,NA,NA,NA,NA,NA,NA,NA,true
qpPhMQTj,3r15w654wg6vibc4e4w6loevry9lqd,3e13vnj1nr87yqibzoeghranfqii1g,qpPhMQTj,2020-0188,2020-11-18,15:19:49,15:46:22,NA,incomplete,39,filling,1,left,Purple_Plus_Stripes_4.jpg,Blue_Triangle_Stripes_3.jpg,Red_Plus_Chess_2.jpg,right,903.5,false,NA,NA,NA,NA,NA,NA,NA,NA,true
qpPhMQTj,3r15w654wg6vibc4e4w6loevry9lqd,3e13vnj1nr87yqibzoeghranfqii1g,qpPhMQTj,2020-0188,2020-11-18,15:19:49,15:46:22,NA,incomplete,0,shape,1,left,Green_Star_Grid_3.jpg,Red_Star_Dots_2.jpg,Blue_Circle_Grid_4.jpg,right,826.9000000000233,false,low,NA,NA,NA,NA,NA,NA,NA,false
qpPhMQTj,3r15w654wg6vibc4e4w6loevry9lqd,3e13vnj1nr87yqibzoeghranfqii1g,qpPhMQTj,2020-0188,2020-11-18,15:19:49,15:46:22,NA,incomplete,1,shape,1,right,Blue_Star_Dots_4.jpg,Green_Circle_Dots_3.jpg,Purple_Star_Chess_1.jpg,right,585.0999999999767,true,low,NA,NA,NA,NA,NA,NA,NA,false
qpPhMQTj,3r15w654wg6vibc4e4w6loevry9lqd,3e13vnj1nr87yqibzoeghranfqii1g,qpPhMQTj,2020-0188,2020-11-18,15:19:49,15:46:22,NA,incomplete,2,shape,0,right,Red_Plus_Stripes_4.jpg,Purple_Star_Stripes_2.jpg,Blue_Plus_Chess_1.jpg,left,608.7000000000698,false,low,NA,NA,NA,NA,NA,NA,NA,false
qpPhMQTj,3r15w654wg6vibc4e4w6loevry9lqd,3e13vnj1nr87yqibzoeghranfqii1g,qpPhMQTj,2020-0188,2020-11-18,15:19:49,15:46:22,NA,incomplete,3,shape,1,left,Purple_Triangle_Stripes_3.jpg,Green_Triangle_Dots_2.jpg,Blue_Plus_Stripes_4.jpg,right,838.9000000000233,false,low,NA,NA,NA,NA,NA,NA,NA,false
qpPhMQTj,3r15w654wg6vibc4e4w6loevry9lqd,3e13vnj1nr87yqibzoeghranfqii1g,qpPhMQTj,2020-0188,2020-11-18,15:19:49,15:46:22,NA,incomplete,4,shape,0,left,Purple_Plus_Stripes_4.jpg,Red_Plus_Dots_3.jpg,Green_Circle_Stripes_2.jpg,right,972.0999999999767,false,low,NA,NA,NA,NA,NA,NA,NA,false
qpPhMQTj,3r15w654wg6vibc4e4w6loevry9lqd,3e13vnj1nr87yqibzoeghranfqii1g,qpPhMQTj,2020-0188,2020-11-18,15:19:49,15:46:22,NA,incomplete,5,shape,1,right,Green_Circle_Stripes_4.jpg,Red_Star_Stripes_3.jpg,Purple_Circle_Dots_1.jpg,left,930.7000000000698,false,low,NA,NA,NA,NA,NA,NA,NA,false
qpPhMQTj,3r15w654wg6vibc4e4w6loevry9lqd,3e13vnj1nr87yqibzoeghranfqii1g,qpPhMQTj,2020-0188,2020-11-18,15:19:49,15:46:22,NA,incomplete,6,shape,1,left,Blue_Triangle_Stripes_4.jpg,Green_Triangle_Chess_2.jpg,Purple_Circle_Stripes_3.jpg,right,826.8999999999069,false,low,NA,NA,NA,NA,NA,NA,NA,false
qpPhMQTj,3r15w654wg6vibc4e4w6loevry9lqd,3e13vnj1nr87yqibzoeghranfqii1g,qpPhMQTj,2020-0188,2020-11-18,15:19:49,15:46:22,NA,incomplete,7,shape,1,right,Green_Circle_Grid_1.jpg,Purple_Plus_Grid_2.jpg,Red_Circle_Stripes_4.jpg,right,556.9000000000233,true,low,NA,NA,NA,NA,NA,NA,NA,false
qpPhMQTj,3r15w654wg6vibc4e4w6loevry9lqd,3e13vnj1nr87yqibzoeghranfqii1g,qpPhMQTj,2020-0188,2020-11-18,15:19:49,15:46:22,NA,incomplete,8,shape,1,left,Purple_Plus_Stripes_3.jpg,Green_Plus_Grid_2.jpg,Blue_Triangle_Stripes_1.jpg,left,622.0999999999767,true,low,NA,NA,NA,NA,NA,NA,NA,false
qpPhMQTj,3r15w654wg6vibc4e4w6loevry9lqd,3e13vnj1nr87yqibzoeghranfqii1g,qpPhMQTj,2020-0188,2020-11-18,15:19:49,15:46:22,NA,incomplete,9,shape,1,right,Purple_Plus_Chess_3.jpg,Red_Star_Chess_1.jpg,Green_Plus_Grid_2.jpg,right,545.2999999999301,true,low,NA,NA,NA,NA,NA,NA,NA,false
qpPhMQTj,3r15w654wg6vibc4e4w6loevry9lqd,3e13vnj1nr87yqibzoeghranfqii1g,qpPhMQTj,2020-0188,2020-11-18,15:19:49,15:46:22,NA,incomplete,10,shape,1,right,Green_Plus_Chess_4.jpg,Purple_Triangle_Chess_2.jpg,Red_Plus_Stripes_1.jpg,right,642,true,low,NA,NA,NA,NA,NA,NA,NA,false
qpPhMQTj,3r15w654wg6vibc4e4w6loevry9lqd,3e13vnj1nr87yqibzoeghranfqii1g,qpPhMQTj,2020-0188,2020-11-18,15:19:49,15:46:22,NA,incomplete,11,shape,1,right,Red_Plus_Chess_2.jpg,Green_Star_Chess_1.jpg,Blue_Plus_Grid_4.jpg,right,635.5999999999767,true,low,NA,NA,NA,NA,NA,NA,NA,false
qpPhMQTj,3r15w654wg6vibc4e4w6loevry9lqd,3e13vnj1nr87yqibzoeghranfqii1g,qpPhMQTj,2020-0188,2020-11-18,15:19:49,15:46:22,NA,incomplete,12,shape,1,left,Red_Star_Chess_2.jpg,Purple_Star_Dots_4.jpg,Blue_Triangle_Chess_3.jpg,left,658.1999999999534,true,low,NA,NA,NA,NA,NA,NA,NA,false
qpPhMQTj,3r15w654wg6vibc4e4w6loevry9lqd,3e13vnj1nr87yqibzoeghranfqii1g,qpPhMQTj,2020-0188,2020-11-18,15:19:49,15:46:22,NA,incomplete,13,shape,0,right,Purple_Plus_Grid_4.jpg,Blue_Star_Grid_2.jpg,Red_Plus_Stripes_1.jpg,right,647.1999999999534,true,low,NA,NA,NA,NA,NA,NA,NA,false
qpPhMQTj,3r15w654wg6vibc4e4w6loevry9lqd,3e13vnj1nr87yqibzoeghranfqii1g,qpPhMQTj,2020-0188,2020-11-18,15:19:49,15:46:22,NA,incomplete,14,shape,1,left,Purple_Star_Dots_3.jpg,Red_Star_Grid_4.jpg,Green_Triangle_Dots_2.jpg,left,555.7000000000698,true,low,NA,NA,NA,NA,NA,NA,NA,false
qpPhMQTj,3r15w654wg6vibc4e4w6loevry9lqd,3e13vnj1nr87yqibzoeghranfqii1g,qpPhMQTj,2020-0188,2020-11-18,15:19:49,15:46:22,NA,incomplete,15,shape,0,right,Purple_Triangle_Grid_1.jpg,Blue_Circle_Grid_2.jpg,Red_Triangle_Stripes_4.jpg,right,535.0999999999767,true,low,NA,NA,NA,NA,NA,NA,NA,false
qpPhMQTj,3r15w654wg6vibc4e4w6loevry9lqd,3e13vnj1nr87yqibzoeghranfqii1g,qpPhMQTj,2020-0188,2020-11-18,15:19:49,15:46:22,NA,incomplete,16,shape,0,left,Red_Triangle_Stripes_1.jpg,Green_Triangle_Grid_4.jpg,Purple_Plus_Stripes_2.jpg,right,848.5999999999767,false,low,NA,NA,NA,NA,NA,NA,NA,false
qpPhMQTj,3r15w654wg6vibc4e4w6loevry9lqd,3e13vnj1nr87yqibzoeghranfqii1g,qpPhMQTj,2020-0188,2020-11-18,15:19:49,15:46:22,NA,incomplete,17,shape,1,right,Purple_Star_Dots_3.jpg,Green_Circle_Dots_2.jpg,Red_Star_Grid_4.jpg,left,809.1999999999534,false,low,NA,NA,NA,NA,NA,NA,NA,false
qpPhMQTj,3r15w654wg6vibc4e4w6loevry9lqd,3e13vnj1nr87yqibzoeghranfqii1g,qpPhMQTj,2020-0188,2020-11-18,15:19:49,15:46:22,NA,incomplete,18,shape,1,left,Red_Plus_Stripes_1.jpg,Purple_Plus_Grid_2.jpg,Blue_Triangle_Stripes_4.jpg,right,733.5999999999767,false,low,NA,NA,NA,NA,NA,NA,NA,false
qpPhMQTj,3r15w654wg6vibc4e4w6loevry9lqd,3e13vnj1nr87yqibzoeghranfqii1g,qpPhMQTj,2020-0188,2020-11-18,15:19:49,15:46:22,NA,incomplete,19,shape,1,left,Blue_Plus_Stripes_3.jpg,Red_Plus_Dots_1.jpg,Green_Circle_Stripes_4.jpg,right,758.5999999999767,false,low,NA,NA,NA,NA,NA,NA,NA,false
qpPhMQTj,3r15w654wg6vibc4e4w6loevry9lqd,3e13vnj1nr87yqibzoeghranfqii1g,qpPhMQTj,2020-0188,2020-11-18,15:19:49,15:46:22,NA,incomplete,20,shape,1,left,Blue_Star_Dots_1.jpg,Green_Star_Grid_3.jpg,Red_Triangle_Dots_2.jpg,left,679,true,low,NA,NA,NA,NA,NA,NA,NA,false
qpPhMQTj,3r15w654wg6vibc4e4w6loevry9lqd,3e13vnj1nr87yqibzoeghranfqii1g,qpPhMQTj,2020-0188,2020-11-18,15:19:49,15:46:22,NA,incomplete,21,shape,1,right,Green_Circle_Dots_3.jpg,Red_Triangle_Dots_2.jpg,Purple_Circle_Chess_1.jpg,right,502.5,true,low,NA,NA,NA,NA,NA,NA,NA,false
qpPhMQTj,3r15w654wg6vibc4e4w6loevry9lqd,3e13vnj1nr87yqibzoeghranfqii1g,qpPhMQTj,2020-0188,2020-11-18,15:19:49,15:46:22,NA,incomplete,22,shape,1,left,Red_Circle_Stripes_2.jpg,Green_Circle_Chess_3.jpg,Purple_Star_Stripes_4.jpg,left,539.8000000000466,true,low,NA,NA,NA,NA,NA,NA,NA,false
qpPhMQTj,3r15w654wg6vibc4e4w6loevry9lqd,3e13vnj1nr87yqibzoeghranfqii1g,qpPhMQTj,2020-0188,2020-11-18,15:19:49,15:46:22,NA,incomplete,23,shape,1,left,Red_Circle_Dots_3.jpg,Blue_Circle_Grid_1.jpg,Green_Star_Dots_4.jpg,left,639.0999999999767,true,low,NA,NA,NA,NA,NA,NA,NA,false
qpPhMQTj,3r15w654wg6vibc4e4w6loevry9lqd,3e13vnj1nr87yqibzoeghranfqii1g,qpPhMQTj,2020-0188,2020-11-18,15:19:49,15:46:22,NA,incomplete,24,shape,1,left,Blue_Triangle_Chess_2.jpg,Green_Triangle_Dots_1.jpg,Red_Star_Chess_4.jpg,left,608.6000000000931,true,low,NA,NA,NA,NA,NA,NA,NA,false
qpPhMQTj,3r15w654wg6vibc4e4w6loevry9lqd,3e13vnj1nr87yqibzoeghranfqii1g,qpPhMQTj,2020-0188,2020-11-18,15:19:49,15:46:22,NA,incomplete,25,shape,1,right,Purple_Plus_Chess_3.jpg,Blue_Triangle_Chess_4.jpg,Red_Plus_Stripes_2.jpg,right,572.8000000000466,true,low,NA,NA,NA,NA,NA,NA,NA,false
qpPhMQTj,3r15w654wg6vibc4e4w6loevry9lqd,3e13vnj1nr87yqibzoeghranfqii1g,qpPhMQTj,2020-0188,2020-11-18,15:19:49,15:46:22,NA,incomplete,26,shape,1,right,Red_Star_Stripes_4.jpg,Blue_Circle_Stripes_2.jpg,Green_Star_Chess_3.jpg,right,594.6999999999534,true,low,NA,NA,NA,NA,NA,NA,NA,false
qpPhMQTj,3r15w654wg6vibc4e4w6loevry9lqd,3e13vnj1nr87yqibzoeghranfqii1g,qpPhMQTj,2020-0188,2020-11-18,15:19:49,15:46:22,NA,incomplete,27,shape,0,left,Red_Plus_Stripes_3.jpg,Blue_Plus_Grid_1.jpg,Purple_Triangle_Stripes_2.jpg,left,710.3999999999069,true,low,NA,NA,NA,NA,NA,NA,NA,false
qpPhMQTj,3r15w654wg6vibc4e4w6loevry9lqd,3e13vnj1nr87yqibzoeghranfqii1g,qpPhMQTj,2020-0188,2020-11-18,15:19:49,15:46:22,NA,incomplete,28,shape,1,right,Purple_Plus_Dots_3.jpg,Blue_Triangle_Dots_2.jpg,Red_Plus_Chess_4.jpg,right,638.0999999999767,true,low,NA,NA,NA,NA,NA,NA,NA,false
qpPhMQTj,3r15w654wg6vibc4e4w6loevry9lqd,3e13vnj1nr87yqibzoeghranfqii1g,qpPhMQTj,2020-0188,2020-11-18,15:19:49,15:46:22,NA,incomplete,29,shape,1,left,Purple_Circle_Stripes_2.jpg,Green_Circle_Grid_3.jpg,Red_Triangle_Stripes_4.jpg,left,747.2000000000698,true,low,NA,NA,NA,NA,NA,NA,NA,false
qpPhMQTj,3r15w654wg6vibc4e4w6loevry9lqd,3e13vnj1nr87yqibzoeghranfqii1g,qpPhMQTj,2020-0188,2020-11-18,15:19:49,15:46:22,NA,incomplete,30,filling,1,right,Blue_Star_Grid_2.jpg,Purple_Star_Stripes_3.jpg,Green_Triangle_Grid_1.jpg,left,538.4000000000233,false,low,NA,NA,NA,NA,NA,NA,NA,false
qpPhMQTj,3r15w654wg6vibc4e4w6loevry9lqd,3e13vnj1nr87yqibzoeghranfqii1g,qpPhMQTj,2020-0188,2020-11-18,15:19:49,15:46:22,NA,incomplete,31,filling,1,left,Green_Plus_Grid_1.jpg,Purple_Circle_Grid_2.jpg,Blue_Plus_Dots_4.jpg,right,550.5,false,low,NA,NA,NA,NA,NA,NA,NA,false
qpPhMQTj,3r15w654wg6vibc4e4w6loevry9lqd,3e13vnj1nr87yqibzoeghranfqii1g,qpPhMQTj,2020-0188,2020-11-18,15:19:49,15:46:22,NA,incomplete,32,filling,0,right,Blue_Circle_Stripes_2.jpg,Green_Circle_Chess_4.jpg,Red_Star_Stripes_3.jpg,right,755.8000000000466,true,low,NA,NA,NA,NA,NA,NA,NA,false
qpPhMQTj,3r15w654wg6vibc4e4w6loevry9lqd,3e13vnj1nr87yqibzoeghranfqii1g,qpPhMQTj,2020-0188,2020-11-18,15:19:49,15:46:22,NA,incomplete,33,filling,1,right,Blue_Circle_Chess_1.jpg,Purple_Circle_Dots_4.jpg,Green_Star_Chess_2.jpg,right,805.5,true,low,NA,NA,NA,NA,NA,NA,NA,false
qpPhMQTj,3r15w654wg6vibc4e4w6loevry9lqd,3e13vnj1nr87yqibzoeghranfqii1g,qpPhMQTj,2020-0188,2020-11-18,15:19:49,15:46:22,NA,incomplete,34,filling,1,left,Purple_Triangle_Dots_2.jpg,Red_Plus_Dots_3.jpg,Green_Triangle_Grid_4.jpg,left,837.0999999999767,true,low,NA,NA,NA,NA,NA,NA,NA,false
qpPhMQTj,3r15w654wg6vibc4e4w6loevry9lqd,3e13vnj1nr87yqibzoeghranfqii1g,qpPhMQTj,2020-0188,2020-11-18,15:19:49,15:46:22,NA,incomplete,35,filling,1,right,Red_Plus_Stripes_4.jpg,Purple_Plus_Chess_2.jpg,Green_Triangle_Stripes_1.jpg,right,760.2999999999301,true,low,NA,NA,NA,NA,NA,NA,NA,false
qpPhMQTj,3r15w654wg6vibc4e4w6loevry9lqd,3e13vnj1nr87yqibzoeghranfqii1g,qpPhMQTj,2020-0188,2020-11-18,15:19:49,15:46:22,NA,incomplete,36,filling,1,left,Green_Star_Chess_3.jpg,Purple_Circle_Chess_4.jpg,Blue_Star_Grid_1.jpg,left,689.3000000000466,true,low,NA,NA,NA,NA,NA,NA,NA,false
qpPhMQTj,3r15w654wg6vibc4e4w6loevry9lqd,3e13vnj1nr87yqibzoeghranfqii1g,qpPhMQTj,2020-0188,2020-11-18,15:19:49,15:46:22,NA,incomplete,37,filling,1,right,Red_Star_Chess_3.jpg,Purple_Star_Stripes_4.jpg,Green_Triangle_Chess_2.jpg,right,681.2999999999301,true,low,NA,NA,NA,NA,NA,NA,NA,false
qpPhMQTj,3r15w654wg6vibc4e4w6loevry9lqd,3e13vnj1nr87yqibzoeghranfqii1g,qpPhMQTj,2020-0188,2020-11-18,15:19:49,15:46:22,NA,incomplete,38,filling,1,left,Blue_Plus_Grid_2.jpg,Red_Triangle_Grid_4.jpg,Purple_Plus_Chess_3.jpg,left,838.0999999999767,true,low,NA,NA,NA,NA,NA,NA,NA,false
qpPhMQTj,3r15w654wg6vibc4e4w6loevry9lqd,3e13vnj1nr87yqibzoeghranfqii1g,qpPhMQTj,2020-0188,2020-11-18,15:19:49,15:46:22,NA,incomplete,39,filling,0,left,Green_Circle_Chess_1.jpg,Blue_Star_Chess_4.jpg,Purple_Circle_Dots_3.jpg,left,707.5,true,low,NA,NA,NA,NA,NA,NA,NA,false
qpPhMQTj,3r15w654wg6vibc4e4w6loevry9lqd,3e13vnj1nr87yqibzoeghranfqii1g,qpPhMQTj,2020-0188,2020-11-18,15:19:49,15:46:22,NA,incomplete,40,filling,1,right,Red_Star_Stripes_2.jpg,Blue_Star_Chess_4.jpg,Green_Plus_Stripes_1.jpg,right,721.2999999999301,true,low,NA,NA,NA,NA,NA,NA,NA,false
qpPhMQTj,3r15w654wg6vibc4e4w6loevry9lqd,3e13vnj1nr87yqibzoeghranfqii1g,qpPhMQTj,2020-0188,2020-11-18,15:19:49,15:46:22,NA,incomplete,41,filling,1,right,Purple_Circle_Chess_1.jpg,Green_Circle_Grid_2.jpg,Blue_Plus_Chess_4.jpg,right,736.3000000000466,true,low,NA,NA,NA,NA,NA,NA,NA,false
qpPhMQTj,3r15w654wg6vibc4e4w6loevry9lqd,3e13vnj1nr87yqibzoeghranfqii1g,qpPhMQTj,2020-0188,2020-11-18,15:19:49,15:46:22,NA,incomplete,42,filling,1,left,Green_Plus_Dots_2.jpg,Blue_Circle_Dots_3.jpg,Red_Plus_Grid_4.jpg,left,829.8000000000466,true,low,NA,NA,NA,NA,NA,NA,NA,false
qpPhMQTj,3r15w654wg6vibc4e4w6loevry9lqd,3e13vnj1nr87yqibzoeghranfqii1g,qpPhMQTj,2020-0188,2020-11-18,15:19:49,15:46:22,NA,incomplete,43,filling,1,left,Blue_Circle_Dots_1.jpg,Green_Star_Dots_2.jpg,Purple_Circle_Stripes_4.jpg,left,734.1000000000931,true,low,NA,NA,NA,NA,NA,NA,NA,false
qpPhMQTj,3r15w654wg6vibc4e4w6loevry9lqd,3e13vnj1nr87yqibzoeghranfqii1g,qpPhMQTj,2020-0188,2020-11-18,15:19:49,15:46:22,NA,incomplete,44,filling,1,right,Red_Plus_Dots_2.jpg,Purple_Plus_Stripes_4.jpg,Blue_Star_Dots_3.jpg,right,829.0999999999767,true,low,NA,NA,NA,NA,NA,NA,NA,false
qpPhMQTj,3r15w654wg6vibc4e4w6loevry9lqd,3e13vnj1nr87yqibzoeghranfqii1g,qpPhMQTj,2020-0188,2020-11-18,15:19:49,15:46:22,NA,incomplete,45,filling,1,left,Red_Circle_Chess_2.jpg,Purple_Triangle_Chess_4.jpg,Blue_Circle_Dots_1.jpg,left,604.2999999999301,true,low,NA,NA,NA,NA,NA,NA,NA,false
qpPhMQTj,3r15w654wg6vibc4e4w6loevry9lqd,3e13vnj1nr87yqibzoeghranfqii1g,qpPhMQTj,2020-0188,2020-11-18,15:19:49,15:46:22,NA,incomplete,46,filling,1,right,Purple_Star_Dots_2.jpg,Green_Star_Stripes_3.jpg,Red_Plus_Dots_4.jpg,right,956.8999999999069,true,low,NA,NA,NA,NA,NA,NA,NA,false
qpPhMQTj,3r15w654wg6vibc4e4w6loevry9lqd,3e13vnj1nr87yqibzoeghranfqii1g,qpPhMQTj,2020-0188,2020-11-18,15:19:49,15:46:22,NA,incomplete,47,filling,1,right,Purple_Plus_Dots_1.jpg,Green_Plus_Grid_2.jpg,Red_Star_Dots_3.jpg,right,1213.1999999999534,true,low,NA,NA,NA,NA,NA,NA,NA,false
qpPhMQTj,3r15w654wg6vibc4e4w6loevry9lqd,3e13vnj1nr87yqibzoeghranfqii1g,qpPhMQTj,2020-0188,2020-11-18,15:19:49,15:46:22,NA,incomplete,48,filling,0,right,Purple_Plus_Stripes_4.jpg,Blue_Plus_Chess_1.jpg,Red_Star_Stripes_2.jpg,right,983.5999999999767,true,low,NA,NA,NA,NA,NA,NA,NA,false
qpPhMQTj,3r15w654wg6vibc4e4w6loevry9lqd,3e13vnj1nr87yqibzoeghranfqii1g,qpPhMQTj,2020-0188,2020-11-18,15:19:49,15:46:22,NA,incomplete,49,filling,0,left,Green_Star_Dots_1.jpg,Purple_Plus_Dots_4.jpg,Red_Star_Stripes_3.jpg,left,1006.0999999999767,true,low,NA,NA,NA,NA,NA,NA,NA,false
qpPhMQTj,3r15w654wg6vibc4e4w6loevry9lqd,3e13vnj1nr87yqibzoeghranfqii1g,qpPhMQTj,2020-0188,2020-11-18,15:19:49,15:46:22,NA,incomplete,50,filling,0,left,Purple_Circle_Grid_3.jpg,Green_Triangle_Grid_1.jpg,Red_Circle_Chess_4.jpg,right,603.1999999999534,false,low,NA,NA,NA,NA,NA,NA,NA,false
qpPhMQTj,3r15w654wg6vibc4e4w6loevry9lqd,3e13vnj1nr87yqibzoeghranfqii1g,qpPhMQTj,2020-0188,2020-11-18,15:19:49,15:46:22,NA,incomplete,51,filling,1,right,Red_Circle_Chess_1.jpg,Blue_Circle_Stripes_2.jpg,Purple_Triangle_Chess_4.jpg,left,535.6999999999534,false,low,NA,NA,NA,NA,NA,NA,NA,false
qpPhMQTj,3r15w654wg6vibc4e4w6loevry9lqd,3e13vnj1nr87yqibzoeghranfqii1g,qpPhMQTj,2020-0188,2020-11-18,15:19:49,15:46:22,NA,incomplete,52,filling,1,right,Purple_Star_Chess_3.jpg,Green_Star_Dots_2.jpg,Blue_Plus_Chess_1.jpg,left,658.5,false,low,NA,NA,NA,NA,NA,NA,NA,false
qpPhMQTj,3r15w654wg6vibc4e4w6loevry9lqd,3e13vnj1nr87yqibzoeghranfqii1g,qpPhMQTj,2020-0188,2020-11-18,15:19:49,15:46:22,NA,incomplete,53,filling,1,right,Green_Plus_Grid_4.jpg,Blue_Plus_Chess_2.jpg,Red_Triangle_Grid_1.jpg,right,771.3999999999069,true,low,NA,NA,NA,NA,NA,NA,NA,false
qpPhMQTj,3r15w654wg6vibc4e4w6loevry9lqd,3e13vnj1nr87yqibzoeghranfqii1g,qpPhMQTj,2020-0188,2020-11-18,15:19:49,15:46:22,NA,incomplete,54,filling,1,right,Blue_Triangle_Stripes_2.jpg,Red_Triangle_Dots_4.jpg,Purple_Circle_Stripes_1.jpg,right,749.2000000001863,true,low,NA,NA,NA,NA,NA,NA,NA,false
qpPhMQTj,3r15w654wg6vibc4e4w6loevry9lqd,3e13vnj1nr87yqibzoeghranfqii1g,qpPhMQTj,2020-0188,2020-11-18,15:19:49,15:46:22,NA,incomplete,55,filling,0,right,Green_Circle_Grid_3.jpg,Purple_Circle_Stripes_2.jpg,Red_Star_Grid_1.jpg,right,751.5,true,low,NA,NA,NA,NA,NA,NA,NA,false
qpPhMQTj,3r15w654wg6vibc4e4w6loevry9lqd,3e13vnj1nr87yqibzoeghranfqii1g,qpPhMQTj,2020-0188,2020-11-18,15:19:49,15:46:22,NA,incomplete,56,filling,0,left,Purple_Star_Stripes_2.jpg,Blue_Circle_Stripes_3.jpg,Red_Star_Dots_1.jpg,left,611.5999999998603,true,low,NA,NA,NA,NA,NA,NA,NA,false
qpPhMQTj,3r15w654wg6vibc4e4w6loevry9lqd,3e13vnj1nr87yqibzoeghranfqii1g,qpPhMQTj,2020-0188,2020-11-18,15:19:49,15:46:22,NA,incomplete,57,filling,1,left,Blue_Triangle_Dots_3.jpg,Purple_Circle_Dots_1.jpg,Green_Triangle_Stripes_4.jpg,left,698.7999999998137,true,low,NA,NA,NA,NA,NA,NA,NA,false
qpPhMQTj,3r15w654wg6vibc4e4w6loevry9lqd,3e13vnj1nr87yqibzoeghranfqii1g,qpPhMQTj,2020-0188,2020-11-18,15:19:49,15:46:22,NA,incomplete,58,filling,0,right,Green_Plus_Grid_4.jpg,Blue_Plus_Dots_2.jpg,Purple_Star_Grid_1.jpg,right,859.0999999998603,true,low,NA,NA,NA,NA,NA,NA,NA,false
qpPhMQTj,3r15w654wg6vibc4e4w6loevry9lqd,3e13vnj1nr87yqibzoeghranfqii1g,qpPhMQTj,2020-0188,2020-11-18,15:19:49,15:46:22,NA,incomplete,59,filling,1,right,Purple_Star_Grid_1.jpg,Red_Star_Dots_4.jpg,Green_Triangle_Grid_2.jpg,left,608,false,low,NA,NA,NA,NA,NA,NA,NA,false
qpPhMQTj,3r15w654wg6vibc4e4w6loevry9lqd,3e13vnj1nr87yqibzoeghranfqii1g,qpPhMQTj,2020-0188,2020-11-18,15:19:49,15:46:22,NA,incomplete,60,shape,1,right,Green_Circle_Dots_2.jpg,Red_Star_Dots_4.jpg,Blue_Circle_Chess_1.jpg,right,542.2999999998137,true,low,NA,NA,NA,NA,NA,NA,NA,false
qpPhMQTj,3r15w654wg6vibc4e4w6loevry9lqd,3e13vnj1nr87yqibzoeghranfqii1g,qpPhMQTj,2020-0188,2020-11-18,15:19:49,15:46:22,NA,incomplete,61,shape,1,right,Red_Star_Chess_1.jpg,Purple_Circle_Chess_2.jpg,Blue_Star_Grid_4.jpg,right,546.0999999998603,true,low,NA,NA,NA,NA,NA,NA,NA,false
qpPhMQTj,3r15w654wg6vibc4e4w6loevry9lqd,3e13vnj1nr87yqibzoeghranfqii1g,qpPhMQTj,2020-0188,2020-11-18,15:19:49,15:46:22,NA,incomplete,62,shape,1,right,Blue_Circle_Dots_3.jpg,Purple_Plus_Dots_1.jpg,Green_Circle_Grid_2.jpg,right,573.5,true,low,NA,NA,NA,NA,NA,NA,NA,false
qpPhMQTj,3r15w654wg6vibc4e4w6loevry9lqd,3e13vnj1nr87yqibzoeghranfqii1g,qpPhMQTj,2020-0188,2020-11-18,15:19:49,15:46:22,NA,incomplete,63,shape,1,left,Blue_Circle_Chess_3.jpg,Red_Circle_Grid_4.jpg,Green_Plus_Chess_2.jpg,left,678.6000000000931,true,low,NA,NA,NA,NA,NA,NA,NA,false
qpPhMQTj,3r15w654wg6vibc4e4w6loevry9lqd,3e13vnj1nr87yqibzoeghranfqii1g,qpPhMQTj,2020-0188,2020-11-18,15:19:49,15:46:22,NA,incomplete,64,shape,0,left,Green_Circle_Dots_1.jpg,Red_Circle_Chess_4.jpg,Purple_Star_Dots_3.jpg,right,1064.9000000001397,false,low,NA,NA,NA,NA,NA,NA,NA,false
qpPhMQTj,3r15w654wg6vibc4e4w6loevry9lqd,3e13vnj1nr87yqibzoeghranfqii1g,qpPhMQTj,2020-0188,2020-11-18,15:19:49,15:46:22,NA,incomplete,65,shape,0,left,Purple_Star_Dots_2.jpg,Blue_Star_Chess_3.jpg,Red_Plus_Dots_1.jpg,left,700.1000000000931,true,low,NA,NA,NA,NA,NA,NA,NA,false
qpPhMQTj,3r15w654wg6vibc4e4w6loevry9lqd,3e13vnj1nr87yqibzoeghranfqii1g,qpPhMQTj,2020-0188,2020-11-18,15:19:49,15:46:22,NA,incomplete,66,shape,1,left,Green_Plus_Stripes_3.jpg,Purple_Plus_Chess_4.jpg,Blue_Triangle_Stripes_1.jpg,left,629,true,low,NA,NA,NA,NA,NA,NA,NA,false
qpPhMQTj,3r15w654wg6vibc4e4w6loevry9lqd,3e13vnj1nr87yqibzoeghranfqii1g,qpPhMQTj,2020-0188,2020-11-18,15:19:49,15:46:22,NA,incomplete,67,shape,1,right,Blue_Star_Grid_1.jpg,Purple_Plus_Grid_4.jpg,Green_Star_Dots_2.jpg,right,687.5,true,low,NA,NA,NA,NA,NA,NA,NA,false
qpPhMQTj,3r15w654wg6vibc4e4w6loevry9lqd,3e13vnj1nr87yqibzoeghranfqii1g,qpPhMQTj,2020-0188,2020-11-18,15:19:49,15:46:22,NA,incomplete,68,shape,1,left,Red_Triangle_Dots_3.jpg,Green_Triangle_Stripes_4.jpg,Blue_Circle_Dots_1.jpg,left,632.5999999998603,true,low,NA,NA,NA,NA,NA,NA,NA,false
qpPhMQTj,3r15w654wg6vibc4e4w6loevry9lqd,3e13vnj1nr87yqibzoeghranfqii1g,qpPhMQTj,2020-0188,2020-11-18,15:19:49,15:46:22,NA,incomplete,69,shape,0,left,Blue_Triangle_Grid_3.jpg,Red_Triangle_Dots_1.jpg,Purple_Star_Grid_2.jpg,left,655.8000000000466,true,low,NA,NA,NA,NA,NA,NA,NA,false
qpPhMQTj,3r15w654wg6vibc4e4w6loevry9lqd,3e13vnj1nr87yqibzoeghranfqii1g,qpPhMQTj,2020-0188,2020-11-18,15:19:49,15:46:22,NA,incomplete,70,shape,1,left,Green_Star_Grid_1.jpg,Blue_Star_Chess_4.jpg,Red_Plus_Grid_3.jpg,left,967.7999999998137,true,low,NA,NA,NA,NA,NA,NA,NA,false
qpPhMQTj,3r15w654wg6vibc4e4w6loevry9lqd,3e13vnj1nr87yqibzoeghranfqii1g,qpPhMQTj,2020-0188,2020-11-18,15:19:49,15:46:22,NA,incomplete,71,shape,1,right,Blue_Circle_Dots_3.jpg,Purple_Plus_Dots_1.jpg,Green_Circle_Grid_4.jpg,left,884.5,false,low,NA,NA,NA,NA,NA,NA,NA,false
qpPhMQTj,3r15w654wg6vibc4e4w6loevry9lqd,3e13vnj1nr87yqibzoeghranfqii1g,qpPhMQTj,2020-0188,2020-11-18,15:19:49,15:46:22,NA,incomplete,72,shape,1,right,Green_Plus_Dots_3.jpg,Red_Star_Dots_4.jpg,Blue_Plus_Chess_2.jpg,right,702.6999999999534,true,low,NA,NA,NA,NA,NA,NA,NA,false
qpPhMQTj,3r15w654wg6vibc4e4w6loevry9lqd,3e13vnj1nr87yqibzoeghranfqii1g,qpPhMQTj,2020-0188,2020-11-18,15:19:49,15:46:22,NA,incomplete,73,shape,1,right,Blue_Star_Grid_4.jpg,Green_Triangle_Grid_1.jpg,Red_Star_Stripes_3.jpg,right,855.1000000000931,true,low,NA,NA,NA,NA,NA,NA,NA,false
qpPhMQTj,3r15w654wg6vibc4e4w6loevry9lqd,3e13vnj1nr87yqibzoeghranfqii1g,qpPhMQTj,2020-0188,2020-11-18,15:19:49,15:46:22,NA,incomplete,74,shape,1,left,Red_Plus_Grid_4.jpg,Purple_Plus_Stripes_2.jpg,Blue_Star_Grid_1.jpg,left,546,true,low,NA,NA,NA,NA,NA,NA,NA,false
qpPhMQTj,3r15w654wg6vibc4e4w6loevry9lqd,3e13vnj1nr87yqibzoeghranfqii1g,qpPhMQTj,2020-0188,2020-11-18,15:19:49,15:46:22,NA,incomplete,75,shape,1,left,Purple_Circle_Dots_4.jpg,Red_Circle_Stripes_1.jpg,Green_Star_Dots_3.jpg,left,615.0999999998603,true,low,NA,NA,NA,NA,NA,NA,NA,false
qpPhMQTj,3r15w654wg6vibc4e4w6loevry9lqd,3e13vnj1nr87yqibzoeghranfqii1g,qpPhMQTj,2020-0188,2020-11-18,15:19:49,15:46:22,NA,incomplete,76,shape,0,left,Purple_Triangle_Dots_1.jpg,Green_Triangle_Chess_4.jpg,Red_Circle_Dots_2.jpg,left,639,true,low,NA,NA,NA,NA,NA,NA,NA,false
qpPhMQTj,3r15w654wg6vibc4e4w6loevry9lqd,3e13vnj1nr87yqibzoeghranfqii1g,qpPhMQTj,2020-0188,2020-11-18,15:19:49,15:46:22,NA,incomplete,77,shape,1,right,Purple_Triangle_Stripes_4.jpg,Green_Plus_Stripes_1.jpg,Blue_Triangle_Grid_2.jpg,right,533.8000000000466,true,low,NA,NA,NA,NA,NA,NA,NA,false
qpPhMQTj,3r15w654wg6vibc4e4w6loevry9lqd,3e13vnj1nr87yqibzoeghranfqii1g,qpPhMQTj,2020-0188,2020-11-18,15:19:49,15:46:22,NA,incomplete,78,shape,1,right,Green_Star_Grid_3.jpg,Blue_Triangle_Grid_2.jpg,Red_Star_Dots_1.jpg,right,573.3000000000466,true,low,NA,NA,NA,NA,NA,NA,NA,false
qpPhMQTj,3r15w654wg6vibc4e4w6loevry9lqd,3e13vnj1nr87yqibzoeghranfqii1g,qpPhMQTj,2020-0188,2020-11-18,15:19:49,15:46:22,NA,incomplete,79,shape,1,left,Red_Plus_Chess_3.jpg,Blue_Plus_Stripes_4.jpg,Purple_Star_Chess_2.jpg,left,651.6000000000931,true,low,NA,NA,NA,NA,NA,NA,NA,false
qpPhMQTj,3r15w654wg6vibc4e4w6loevry9lqd,3e13vnj1nr87yqibzoeghranfqii1g,qpPhMQTj,2020-0188,2020-11-18,15:19:49,15:46:22,NA,incomplete,80,shape,1,right,Red_Circle_Grid_3.jpg,Green_Triangle_Grid_1.jpg,Blue_Circle_Chess_2.jpg,right,553.5,true,low,NA,NA,NA,NA,NA,NA,NA,false
qpPhMQTj,3r15w654wg6vibc4e4w6loevry9lqd,3e13vnj1nr87yqibzoeghranfqii1g,qpPhMQTj,2020-0188,2020-11-18,15:19:49,15:46:22,NA,incomplete,81,shape,1,left,Purple_Star_Chess_2.jpg,Green_Star_Dots_4.jpg,Red_Plus_Chess_3.jpg,left,592.7999999998137,true,low,NA,NA,NA,NA,NA,NA,NA,false
qpPhMQTj,3r15w654wg6vibc4e4w6loevry9lqd,3e13vnj1nr87yqibzoeghranfqii1g,qpPhMQTj,2020-0188,2020-11-18,15:19:49,15:46:22,NA,incomplete,82,shape,1,left,Purple_Star_Stripes_1.jpg,Blue_Star_Chess_2.jpg,Red_Triangle_Stripes_4.jpg,left,491.5,true,low,NA,NA,NA,NA,NA,NA,NA,false
qpPhMQTj,3r15w654wg6vibc4e4w6loevry9lqd,3e13vnj1nr87yqibzoeghranfqii1g,qpPhMQTj,2020-0188,2020-11-18,15:19:49,15:46:22,NA,incomplete,83,shape,1,left,Green_Triangle_Grid_1.jpg,Red_Triangle_Dots_2.jpg,Purple_Plus_Grid_4.jpg,left,611.2999999998137,true,low,NA,NA,NA,NA,NA,NA,NA,false
qpPhMQTj,3r15w654wg6vibc4e4w6loevry9lqd,3e13vnj1nr87yqibzoeghranfqii1g,qpPhMQTj,2020-0188,2020-11-18,15:19:49,15:46:22,NA,incomplete,84,shape,1,right,Green_Circle_Chess_4.jpg,Blue_Star_Chess_3.jpg,Red_Circle_Dots_1.jpg,right,541.5,true,low,NA,NA,NA,NA,NA,NA,NA,false
qpPhMQTj,3r15w654wg6vibc4e4w6loevry9lqd,3e13vnj1nr87yqibzoeghranfqii1g,qpPhMQTj,2020-0188,2020-11-18,15:19:49,15:46:22,NA,incomplete,85,shape,1,right,Red_Star_Chess_1.jpg,Green_Triangle_Chess_3.jpg,Blue_Star_Dots_4.jpg,left,460.19999999995343,false,low,NA,NA,NA,NA,NA,NA,NA,false
qpPhMQTj,3r15w654wg6vibc4e4w6loevry9lqd,3e13vnj1nr87yqibzoeghranfqii1g,qpPhMQTj,2020-0188,2020-11-18,15:19:49,15:46:22,NA,incomplete,86,shape,1,right,Red_Plus_Dots_1.jpg,Blue_Circle_Dots_2.jpg,Purple_Plus_Grid_4.jpg,right,522.0999999998603,true,low,NA,NA,NA,NA,NA,NA,NA,false
qpPhMQTj,3r15w654wg6vibc4e4w6loevry9lqd,3e13vnj1nr87yqibzoeghranfqii1g,qpPhMQTj,2020-0188,2020-11-18,15:19:49,15:46:22,NA,incomplete,87,shape,1,right,Purple_Plus_Chess_1.jpg,Red_Circle_Chess_3.jpg,Blue_Plus_Dots_2.jpg,right,551.4000000001397,true,low,NA,NA,NA,NA,NA,NA,NA,false
qpPhMQTj,3r15w654wg6vibc4e4w6loevry9lqd,3e13vnj1nr87yqibzoeghranfqii1g,qpPhMQTj,2020-0188,2020-11-18,15:19:49,15:46:22,NA,incomplete,88,shape,1,right,Green_Circle_Grid_2.jpg,Blue_Plus_Grid_3.jpg,Red_Circle_Chess_1.jpg,right,472.4000000001397,true,low,NA,NA,NA,NA,NA,NA,NA,false
qpPhMQTj,3r15w654wg6vibc4e4w6loevry9lqd,3e13vnj1nr87yqibzoeghranfqii1g,qpPhMQTj,2020-0188,2020-11-18,15:19:49,15:46:22,NA,incomplete,89,shape,1,left,Red_Star_Stripes_4.jpg,Blue_Star_Grid_2.jpg,Purple_Triangle_Stripes_1.jpg,left,492.89999999990686,true,low,NA,NA,NA,NA,NA,NA,NA,false
qpPhMQTj,3r15w654wg6vibc4e4w6loevry9lqd,3e13vnj1nr87yqibzoeghranfqii1g,qpPhMQTj,2020-0188,2020-11-18,15:19:49,15:46:22,NA,incomplete,90,filling,0,right,Red_Star_Chess_2.jpg,Blue_Star_Grid_1.jpg,Purple_Circle_Chess_3.jpg,left,534.3999999999069,false,low,NA,NA,NA,NA,NA,NA,NA,false
qpPhMQTj,3r15w654wg6vibc4e4w6loevry9lqd,3e13vnj1nr87yqibzoeghranfqii1g,qpPhMQTj,2020-0188,2020-11-18,15:19:49,15:46:22,NA,incomplete,91,filling,1,left,Green_Circle_Grid_3.jpg,Purple_Triangle_Grid_1.jpg,Red_Circle_Dots_4.jpg,right,512.3000000000466,false,low,NA,NA,NA,NA,NA,NA,NA,false
qpPhMQTj,3r15w654wg6vibc4e4w6loevry9lqd,3e13vnj1nr87yqibzoeghranfqii1g,qpPhMQTj,2020-0188,2020-11-18,15:19:49,15:46:22,NA,incomplete,92,filling,1,left,Purple_Circle_Chess_1.jpg,Blue_Plus_Chess_3.jpg,Red_Circle_Grid_2.jpg,right,490.5,false,low,NA,NA,NA,NA,NA,NA,NA,false
qpPhMQTj,3r15w654wg6vibc4e4w6loevry9lqd,3e13vnj1nr87yqibzoeghranfqii1g,qpPhMQTj,2020-0188,2020-11-18,15:19:49,15:46:22,NA,incomplete,93,filling,1,left,Purple_Triangle_Grid_3.jpg,Red_Plus_Grid_1.jpg,Blue_Triangle_Stripes_2.jpg,left,728.1999999999534,true,low,NA,NA,NA,NA,NA,NA,NA,false
qpPhMQTj,3r15w654wg6vibc4e4w6loevry9lqd,3e13vnj1nr87yqibzoeghranfqii1g,qpPhMQTj,2020-0188,2020-11-18,15:19:49,15:46:22,NA,incomplete,94,filling,1,left,Blue_Plus_Stripes_3.jpg,Green_Circle_Stripes_4.jpg,Red_Plus_Chess_2.jpg,left,698.6999999999534,true,low,NA,NA,NA,NA,NA,NA,NA,false
qpPhMQTj,3r15w654wg6vibc4e4w6loevry9lqd,3e13vnj1nr87yqibzoeghranfqii1g,qpPhMQTj,2020-0188,2020-11-18,15:19:49,15:46:22,NA,incomplete,95,filling,1,right,Green_Plus_Dots_4.jpg,Red_Plus_Chess_3.jpg,Purple_Circle_Dots_2.jpg,right,772.6999999999534,true,low,NA,NA,NA,NA,NA,NA,NA,false
qpPhMQTj,3r15w654wg6vibc4e4w6loevry9lqd,3e13vnj1nr87yqibzoeghranfqii1g,qpPhMQTj,2020-0188,2020-11-18,15:19:49,15:46:22,NA,incomplete,96,filling,1,right,Blue_Plus_Grid_3.jpg,Red_Plus_Stripes_2.jpg,Green_Triangle_Grid_1.jpg,left,662.5,false,low,NA,NA,NA,NA,NA,NA,NA,false
qpPhMQTj,3r15w654wg6vibc4e4w6loevry9lqd,3e13vnj1nr87yqibzoeghranfqii1g,qpPhMQTj,2020-0188,2020-11-18,15:19:49,15:46:22,NA,incomplete,97,filling,1,left,Purple_Plus_Dots_4.jpg,Green_Circle_Dots_2.jpg,Blue_Plus_Chess_3.jpg,left,841.7000000001863,true,low,NA,NA,NA,NA,NA,NA,NA,false
qpPhMQTj,3r15w654wg6vibc4e4w6loevry9lqd,3e13vnj1nr87yqibzoeghranfqii1g,qpPhMQTj,2020-0188,2020-11-18,15:19:49,15:46:22,NA,incomplete,98,filling,0,left,Red_Circle_Stripes_1.jpg,Blue_Star_Stripes_3.jpg,Purple_Circle_Chess_2.jpg,left,690.4000000001397,true,low,NA,NA,NA,NA,NA,NA,NA,false
qpPhMQTj,3r15w654wg6vibc4e4w6loevry9lqd,3e13vnj1nr87yqibzoeghranfqii1g,qpPhMQTj,2020-0188,2020-11-18,15:19:49,15:46:22,NA,incomplete,99,filling,1,left,Purple_Plus_Grid_3.jpg,Green_Circle_Grid_4.jpg,Red_Plus_Stripes_2.jpg,left,717.7999999998137,true,low,NA,NA,NA,NA,NA,NA,NA,false
qpPhMQTj,3r15w654wg6vibc4e4w6loevry9lqd,3e13vnj1nr87yqibzoeghranfqii1g,qpPhMQTj,2020-0188,2020-11-18,15:19:49,15:46:22,NA,incomplete,100,filling,1,left,Red_Star_Dots_3.jpg,Purple_Circle_Dots_4.jpg,Blue_Star_Grid_1.jpg,left,785.8000000000466,true,low,NA,NA,NA,NA,NA,NA,NA,false
qpPhMQTj,3r15w654wg6vibc4e4w6loevry9lqd,3e13vnj1nr87yqibzoeghranfqii1g,qpPhMQTj,2020-0188,2020-11-18,15:19:49,15:46:22,NA,incomplete,101,filling,1,left,Green_Circle_Chess_4.jpg,Blue_Star_Chess_2.jpg,Red_Circle_Grid_3.jpg,left,800.8999999999069,true,low,NA,NA,NA,NA,NA,NA,NA,false
qpPhMQTj,3r15w654wg6vibc4e4w6loevry9lqd,3e13vnj1nr87yqibzoeghranfqii1g,qpPhMQTj,2020-0188,2020-11-18,15:19:49,15:46:22,NA,incomplete,102,filling,1,left,Red_Star_Chess_3.jpg,Purple_Plus_Chess_1.jpg,Green_Star_Stripes_4.jpg,left,700.8999999999069,true,low,NA,NA,NA,NA,NA,NA,NA,false
qpPhMQTj,3r15w654wg6vibc4e4w6loevry9lqd,3e13vnj1nr87yqibzoeghranfqii1g,qpPhMQTj,2020-0188,2020-11-18,15:19:49,15:46:22,NA,incomplete,103,filling,0,left,Red_Star_Grid_2.jpg,Purple_Triangle_Grid_4.jpg,Green_Star_Dots_1.jpg,left,665.3000000000466,true,low,NA,NA,NA,NA,NA,NA,NA,false
qpPhMQTj,3r15w654wg6vibc4e4w6loevry9lqd,3e13vnj1nr87yqibzoeghranfqii1g,qpPhMQTj,2020-0188,2020-11-18,15:19:49,15:46:22,NA,incomplete,104,filling,0,right,Purple_Triangle_Dots_4.jpg,Red_Triangle_Stripes_2.jpg,Blue_Plus_Dots_1.jpg,right,813.0999999998603,true,low,NA,NA,NA,NA,NA,NA,NA,false
qpPhMQTj,3r15w654wg6vibc4e4w6loevry9lqd,3e13vnj1nr87yqibzoeghranfqii1g,qpPhMQTj,2020-0188,2020-11-18,15:19:49,15:46:22,NA,incomplete,105,filling,1,right,Purple_Plus_Grid_1.jpg,Green_Plus_Chess_3.jpg,Red_Triangle_Grid_4.jpg,left,687.3999999999069,false,low,NA,NA,NA,NA,NA,NA,NA,false
qpPhMQTj,3r15w654wg6vibc4e4w6loevry9lqd,3e13vnj1nr87yqibzoeghranfqii1g,qpPhMQTj,2020-0188,2020-11-18,15:19:49,15:46:22,NA,incomplete,106,filling,1,left,Purple_Triangle_Chess_3.jpg,Blue_Star_Chess_4.jpg,Red_Triangle_Stripes_2.jpg,left,974.5,true,low,NA,NA,NA,NA,NA,NA,NA,false
qpPhMQTj,3r15w654wg6vibc4e4w6loevry9lqd,3e13vnj1nr87yqibzoeghranfqii1g,qpPhMQTj,2020-0188,2020-11-18,15:19:49,15:46:22,NA,incomplete,107,filling,1,right,Purple_Circle_Dots_2.jpg,Red_Circle_Chess_1.jpg,Green_Star_Dots_3.jpg,right,781.8000000000466,true,low,NA,NA,NA,NA,NA,NA,NA,false
qpPhMQTj,3r15w654wg6vibc4e4w6loevry9lqd,3e13vnj1nr87yqibzoeghranfqii1g,qpPhMQTj,2020-0188,2020-11-18,15:19:49,15:46:22,NA,incomplete,108,filling,1,right,Red_Star_Chess_2.jpg,Blue_Star_Grid_3.jpg,Green_Triangle_Chess_4.jpg,right,1015.6000000000931,true,low,NA,NA,NA,NA,NA,NA,NA,false
qpPhMQTj,3r15w654wg6vibc4e4w6loevry9lqd,3e13vnj1nr87yqibzoeghranfqii1g,qpPhMQTj,2020-0188,2020-11-18,15:19:49,15:46:22,NA,incomplete,109,filling,1,left,Blue_Triangle_Dots_4.jpg,Green_Plus_Dots_1.jpg,Red_Triangle_Stripes_2.jpg,left,764.5,true,low,NA,NA,NA,NA,NA,NA,NA,false
qpPhMQTj,3r15w654wg6vibc4e4w6loevry9lqd,3e13vnj1nr87yqibzoeghranfqii1g,qpPhMQTj,2020-0188,2020-11-18,15:19:49,15:46:22,NA,incomplete,110,filling,0,left,Green_Circle_Stripes_4.jpg,Red_Triangle_Stripes_3.jpg,Blue_Circle_Dots_1.jpg,left,699.8999999999069,true,low,NA,NA,NA,NA,NA,NA,NA,false
qpPhMQTj,3r15w654wg6vibc4e4w6loevry9lqd,3e13vnj1nr87yqibzoeghranfqii1g,qpPhMQTj,2020-0188,2020-11-18,15:19:49,15:46:22,NA,incomplete,111,filling,1,right,Blue_Plus_Chess_4.jpg,Green_Plus_Dots_2.jpg,Purple_Circle_Chess_3.jpg,right,986.8999999999069,true,low,NA,NA,NA,NA,NA,NA,NA,false
qpPhMQTj,3r15w654wg6vibc4e4w6loevry9lqd,3e13vnj1nr87yqibzoeghranfqii1g,qpPhMQTj,2020-0188,2020-11-18,15:19:49,15:46:22,NA,incomplete,112,filling,1,right,Purple_Plus_Dots_3.jpg,Green_Plus_Chess_1.jpg,Blue_Triangle_Dots_4.jpg,right,837.3000000000466,true,low,NA,NA,NA,NA,NA,NA,NA,false
qpPhMQTj,3r15w654wg6vibc4e4w6loevry9lqd,3e13vnj1nr87yqibzoeghranfqii1g,qpPhMQTj,2020-0188,2020-11-18,15:19:49,15:46:22,NA,incomplete,113,filling,1,left,Blue_Circle_Dots_3.jpg,Red_Star_Dots_2.jpg,Purple_Circle_Chess_4.jpg,left,733.6000000000931,true,low,NA,NA,NA,NA,NA,NA,NA,false
qpPhMQTj,3r15w654wg6vibc4e4w6loevry9lqd,3e13vnj1nr87yqibzoeghranfqii1g,qpPhMQTj,2020-0188,2020-11-18,15:19:49,15:46:22,NA,incomplete,114,filling,1,right,Blue_Plus_Stripes_1.jpg,Green_Plus_Grid_3.jpg,Red_Triangle_Stripes_4.jpg,right,775.9000000001397,true,low,NA,NA,NA,NA,NA,NA,NA,false
qpPhMQTj,3r15w654wg6vibc4e4w6loevry9lqd,3e13vnj1nr87yqibzoeghranfqii1g,qpPhMQTj,2020-0188,2020-11-18,15:19:49,15:46:22,NA,incomplete,115,filling,1,left,Blue_Circle_Chess_1.jpg,Red_Star_Chess_2.jpg,Purple_Circle_Grid_4.jpg,left,752.0999999998603,true,low,NA,NA,NA,NA,NA,NA,NA,false
qpPhMQTj,3r15w654wg6vibc4e4w6loevry9lqd,3e13vnj1nr87yqibzoeghranfqii1g,qpPhMQTj,2020-0188,2020-11-18,15:19:49,15:46:22,NA,incomplete,116,filling,1,left,Red_Triangle_Stripes_1.jpg,Purple_Circle_Stripes_4.jpg,Green_Triangle_Dots_3.jpg,left,700.8999999999069,true,low,NA,NA,NA,NA,NA,NA,NA,false
qpPhMQTj,3r15w654wg6vibc4e4w6loevry9lqd,3e13vnj1nr87yqibzoeghranfqii1g,qpPhMQTj,2020-0188,2020-11-18,15:19:49,15:46:22,NA,incomplete,117,filling,0,left,Blue_Circle_Stripes_2.jpg,Purple_Plus_Stripes_4.jpg,Red_Circle_Chess_3.jpg,left,681.5999999998603,true,low,NA,NA,NA,NA,NA,NA,NA,false
qpPhMQTj,3r15w654wg6vibc4e4w6loevry9lqd,3e13vnj1nr87yqibzoeghranfqii1g,qpPhMQTj,2020-0188,2020-11-18,15:19:49,15:46:22,NA,incomplete,118,filling,1,right,Purple_Circle_Chess_2.jpg,Blue_Circle_Grid_3.jpg,Green_Plus_Chess_4.jpg,right,749.3000000000466,true,low,NA,NA,NA,NA,NA,NA,NA,false
qpPhMQTj,3r15w654wg6vibc4e4w6loevry9lqd,3e13vnj1nr87yqibzoeghranfqii1g,qpPhMQTj,2020-0188,2020-11-18,15:19:49,15:46:22,NA,incomplete,119,filling,1,left,Blue_Circle_Grid_1.jpg,Purple_Star_Grid_4.jpg,Red_Circle_Dots_2.jpg,left,816.8999999999069,true,low,NA,NA,NA,NA,NA,NA,NA,false
qpPhMQTj,3r15w654wg6vibc4e4w6loevry9lqd,3e13vnj1nr87yqibzoeghranfqii1g,qpPhMQTj,2020-0188,2020-11-18,15:19:49,15:46:22,NA,incomplete,120,color,1,right,Purple_Plus_Stripes_2.jpg,Green_Star_Chess_2.jpg,Purple_Circle_Grid_3.jpg,left,702.1000000000931,false,low,NA,NA,NA,NA,NA,NA,NA,false
qpPhMQTj,3r15w654wg6vibc4e4w6loevry9lqd,3e13vnj1nr87yqibzoeghranfqii1g,qpPhMQTj,2020-0188,2020-11-18,15:19:49,15:46:22,NA,incomplete,121,color,1,left,Blue_Star_Stripes_4.jpg,Blue_Plus_Chess_1.jpg,Green_Triangle_Grid_4.jpg,right,617.8999999999069,false,low,NA,NA,NA,NA,NA,NA,NA,false
qpPhMQTj,3r15w654wg6vibc4e4w6loevry9lqd,3e13vnj1nr87yqibzoeghranfqii1g,qpPhMQTj,2020-0188,2020-11-18,15:19:49,15:46:22,NA,incomplete,122,color,1,right,Purple_Circle_Dots_4.jpg,Blue_Plus_Stripes_4.jpg,Purple_Star_Grid_2.jpg,right,537.6999999999534,true,low,NA,NA,NA,NA,NA,NA,NA,false
qpPhMQTj,3r15w654wg6vibc4e4w6loevry9lqd,3e13vnj1nr87yqibzoeghranfqii1g,qpPhMQTj,2020-0188,2020-11-18,15:19:49,15:46:22,NA,incomplete,123,color,1,right,Purple_Star_Grid_2.jpg,Red_Circle_Stripes_2.jpg,Purple_Triangle_Dots_3.jpg,right,472,true,low,NA,NA,NA,NA,NA,NA,NA,false
qpPhMQTj,3r15w654wg6vibc4e4w6loevry9lqd,3e13vnj1nr87yqibzoeghranfqii1g,qpPhMQTj,2020-0188,2020-11-18,15:19:49,15:46:22,NA,incomplete,124,color,1,left,Green_Triangle_Grid_4.jpg,Green_Plus_Chess_1.jpg,Blue_Star_Stripes_4.jpg,left,471.10000000009313,true,low,NA,NA,NA,NA,NA,NA,NA,false
qpPhMQTj,3r15w654wg6vibc4e4w6loevry9lqd,3e13vnj1nr87yqibzoeghranfqii1g,qpPhMQTj,2020-0188,2020-11-18,15:19:49,15:46:22,NA,incomplete,125,color,1,right,Red_Star_Chess_2.jpg,Blue_Circle_Grid_2.jpg,Red_Plus_Dots_4.jpg,right,886.8999999999069,true,low,NA,NA,NA,NA,NA,NA,NA,false
qpPhMQTj,3r15w654wg6vibc4e4w6loevry9lqd,3e13vnj1nr87yqibzoeghranfqii1g,qpPhMQTj,2020-0188,2020-11-18,15:19:49,15:46:22,NA,incomplete,126,color,1,right,Red_Circle_Grid_2.jpg,Green_Triangle_Chess_2.jpg,Red_Plus_Stripes_4.jpg,right,451.9000000001397,true,low,NA,NA,NA,NA,NA,NA,NA,false
qpPhMQTj,3r15w654wg6vibc4e4w6loevry9lqd,3e13vnj1nr87yqibzoeghranfqii1g,qpPhMQTj,2020-0188,2020-11-18,15:19:49,15:46:22,NA,incomplete,127,color,1,right,Red_Plus_Dots_1.jpg,Green_Circle_Stripes_1.jpg,Red_Star_Grid_3.jpg,right,455.9000000001397,true,low,NA,NA,NA,NA,NA,NA,NA,false
qpPhMQTj,3r15w654wg6vibc4e4w6loevry9lqd,3e13vnj1nr87yqibzoeghranfqii1g,qpPhMQTj,2020-0188,2020-11-18,15:19:49,15:46:22,NA,incomplete,128,color,1,right,Green_Circle_Grid_3.jpg,Blue_Plus_Dots_3.jpg,Green_Triangle_Stripes_1.jpg,right,469.19999999995343,true,low,NA,NA,NA,NA,NA,NA,NA,false
qpPhMQTj,3r15w654wg6vibc4e4w6loevry9lqd,3e13vnj1nr87yqibzoeghranfqii1g,qpPhMQTj,2020-0188,2020-11-18,15:19:49,15:46:22,NA,incomplete,129,color,0,left,Blue_Plus_Grid_3.jpg,Blue_Circle_Stripes_1.jpg,Green_Triangle_Chess_3.jpg,left,495,true,low,NA,NA,NA,NA,NA,NA,NA,false
qpPhMQTj,3r15w654wg6vibc4e4w6loevry9lqd,3e13vnj1nr87yqibzoeghranfqii1g,qpPhMQTj,2020-0188,2020-11-18,15:19:49,15:46:22,NA,incomplete,130,color,1,left,Purple_Star_Grid_4.jpg,Purple_Plus_Chess_3.jpg,Blue_Triangle_Dots_4.jpg,left,627.4000000001397,true,low,NA,NA,NA,NA,NA,NA,NA,false
qpPhMQTj,3r15w654wg6vibc4e4w6loevry9lqd,3e13vnj1nr87yqibzoeghranfqii1g,qpPhMQTj,2020-0188,2020-11-18,15:19:49,15:46:22,NA,incomplete,131,color,1,right,Green_Circle_Dots_1.jpg,Purple_Triangle_Grid_1.jpg,Green_Star_Chess_4.jpg,right,452.30000000004656,true,low,NA,NA,NA,NA,NA,NA,NA,false
qpPhMQTj,3r15w654wg6vibc4e4w6loevry9lqd,3e13vnj1nr87yqibzoeghranfqii1g,qpPhMQTj,2020-0188,2020-11-18,15:19:49,15:46:22,NA,incomplete,132,color,1,left,Purple_Plus_Grid_1.jpg,Purple_Triangle_Dots_3.jpg,Blue_Circle_Stripes_1.jpg,left,430.19999999995343,true,low,NA,NA,NA,NA,NA,NA,NA,false
qpPhMQTj,3r15w654wg6vibc4e4w6loevry9lqd,3e13vnj1nr87yqibzoeghranfqii1g,qpPhMQTj,2020-0188,2020-11-18,15:19:49,15:46:22,NA,incomplete,133,color,0,right,Blue_Plus_Grid_4.jpg,Purple_Star_Stripes_4.jpg,Blue_Circle_Dots_1.jpg,right,522.1999999999534,true,low,NA,NA,NA,NA,NA,NA,NA,false
qpPhMQTj,3r15w654wg6vibc4e4w6loevry9lqd,3e13vnj1nr87yqibzoeghranfqii1g,qpPhMQTj,2020-0188,2020-11-18,15:19:49,15:46:22,NA,incomplete,134,color,1,left,Green_Triangle_Grid_2.jpg,Green_Plus_Dots_4.jpg,Red_Circle_Stripes_2.jpg,left,487.80000000004656,true,low,NA,NA,NA,NA,NA,NA,NA,false
qpPhMQTj,3r15w654wg6vibc4e4w6loevry9lqd,3e13vnj1nr87yqibzoeghranfqii1g,qpPhMQTj,2020-0188,2020-11-18,15:19:49,15:46:22,NA,incomplete,135,color,1,right,Blue_Plus_Grid_4.jpg,Purple_Circle_Chess_4.jpg,Blue_Triangle_Stripes_3.jpg,right,435.69999999995343,true,low,NA,NA,NA,NA,NA,NA,NA,false
qpPhMQTj,3r15w654wg6vibc4e4w6loevry9lqd,3e13vnj1nr87yqibzoeghranfqii1g,qpPhMQTj,2020-0188,2020-11-18,15:19:49,15:46:22,NA,incomplete,136,color,0,right,Red_Circle_Grid_1.jpg,Purple_Star_Stripes_1.jpg,Red_Triangle_Dots_3.jpg,right,440.5999999998603,true,low,NA,NA,NA,NA,NA,NA,NA,false
qpPhMQTj,3r15w654wg6vibc4e4w6loevry9lqd,3e13vnj1nr87yqibzoeghranfqii1g,qpPhMQTj,2020-0188,2020-11-18,15:19:49,15:46:22,NA,incomplete,137,color,1,left,Purple_Triangle_Stripes_4.jpg,Purple_Plus_Dots_3.jpg,Red_Circle_Chess_4.jpg,left,471.9000000001397,true,low,NA,NA,NA,NA,NA,NA,NA,false
qpPhMQTj,3r15w654wg6vibc4e4w6loevry9lqd,3e13vnj1nr87yqibzoeghranfqii1g,qpPhMQTj,2020-0188,2020-11-18,15:19:49,15:46:22,NA,incomplete,138,color,1,right,Blue_Plus_Dots_2.jpg,Purple_Circle_Stripes_2.jpg,Blue_Triangle_Chess_1.jpg,right,408.60000000009313,true,low,NA,NA,NA,NA,NA,NA,NA,false
qpPhMQTj,3r15w654wg6vibc4e4w6loevry9lqd,3e13vnj1nr87yqibzoeghranfqii1g,qpPhMQTj,2020-0188,2020-11-18,15:19:49,15:46:22,NA,incomplete,139,color,1,left,Purple_Circle_Dots_3.jpg,Purple_Triangle_Chess_1.jpg,Green_Plus_Stripes_3.jpg,left,549,true,low,NA,NA,NA,NA,NA,NA,NA,false
qpPhMQTj,3r15w654wg6vibc4e4w6loevry9lqd,3e13vnj1nr87yqibzoeghranfqii1g,qpPhMQTj,2020-0188,2020-11-18,15:19:49,15:46:22,NA,incomplete,140,number,1,left,Green_Triangle_Grid_1.jpg,Purple_Plus_Stripes_1.jpg,Green_Circle_Dots_3.jpg,right,420.30000000004656,false,low,NA,NA,NA,NA,NA,NA,NA,false
qpPhMQTj,3r15w654wg6vibc4e4w6loevry9lqd,3e13vnj1nr87yqibzoeghranfqii1g,qpPhMQTj,2020-0188,2020-11-18,15:19:49,15:46:22,NA,incomplete,141,number,1,right,Purple_Plus_Chess_3.jpg,Purple_Triangle_Stripes_2.jpg,Blue_Star_Dots_3.jpg,left,425.69999999995343,false,low,NA,NA,NA,NA,NA,NA,NA,false
qpPhMQTj,3r15w654wg6vibc4e4w6loevry9lqd,3e13vnj1nr87yqibzoeghranfqii1g,qpPhMQTj,2020-0188,2020-11-18,15:19:49,15:46:22,NA,incomplete,142,number,0,left,Green_Triangle_Chess_3.jpg,Blue_Plus_Stripes_3.jpg,Green_Star_Grid_2.jpg,left,752.3999999999069,true,low,NA,NA,NA,NA,NA,NA,NA,false
qpPhMQTj,3r15w654wg6vibc4e4w6loevry9lqd,3e13vnj1nr87yqibzoeghranfqii1g,qpPhMQTj,2020-0188,2020-11-18,15:19:49,15:46:22,NA,incomplete,143,number,1,right,Red_Plus_Grid_3.jpg,Red_Circle_Stripes_4.jpg,Blue_Star_Chess_3.jpg,right,820,true,low,NA,NA,NA,NA,NA,NA,NA,false
qpPhMQTj,3r15w654wg6vibc4e4w6loevry9lqd,3e13vnj1nr87yqibzoeghranfqii1g,qpPhMQTj,2020-0188,2020-11-18,15:19:49,15:46:22,NA,incomplete,144,number,1,right,Green_Plus_Grid_2.jpg,Green_Triangle_Stripes_1.jpg,Purple_Circle_Dots_2.jpg,right,665.1000000000931,true,low,NA,NA,NA,NA,NA,NA,NA,false
qpPhMQTj,3r15w654wg6vibc4e4w6loevry9lqd,3e13vnj1nr87yqibzoeghranfqii1g,qpPhMQTj,2020-0188,2020-11-18,15:19:49,15:46:22,NA,incomplete,145,number,1,left,Purple_Circle_Chess_3.jpg,Blue_Star_Dots_3.jpg,Purple_Plus_Stripes_1.jpg,left,645.8999999999069,true,low,NA,NA,NA,NA,NA,NA,NA,false
qpPhMQTj,3r15w654wg6vibc4e4w6loevry9lqd,3e13vnj1nr87yqibzoeghranfqii1g,qpPhMQTj,2020-0188,2020-11-18,15:19:49,15:46:22,NA,incomplete,146,number,0,right,Red_Plus_Dots_3.jpg,Red_Circle_Stripes_4.jpg,Blue_Triangle_Grid_3.jpg,right,605.6999999999534,true,low,NA,NA,NA,NA,NA,NA,NA,false
qpPhMQTj,3r15w654wg6vibc4e4w6loevry9lqd,3e13vnj1nr87yqibzoeghranfqii1g,qpPhMQTj,2020-0188,2020-11-18,15:19:49,15:46:22,NA,incomplete,147,number,1,left,Purple_Plus_Dots_1.jpg,Blue_Circle_Chess_1.jpg,Purple_Triangle_Grid_4.jpg,left,684.3000000000466,true,low,NA,NA,NA,NA,NA,NA,NA,false
qpPhMQTj,3r15w654wg6vibc4e4w6loevry9lqd,3e13vnj1nr87yqibzoeghranfqii1g,qpPhMQTj,2020-0188,2020-11-18,15:19:49,15:46:22,NA,incomplete,148,number,1,left,Green_Star_Chess_3.jpg,Purple_Plus_Dots_3.jpg,Green_Circle_Stripes_4.jpg,left,636.4000000001397,true,low,NA,NA,NA,NA,NA,NA,NA,false
qpPhMQTj,3r15w654wg6vibc4e4w6loevry9lqd,3e13vnj1nr87yqibzoeghranfqii1g,qpPhMQTj,2020-0188,2020-11-18,15:19:49,15:46:22,NA,incomplete,149,number,0,left,Red_Star_Dots_1.jpg,Purple_Plus_Chess_1.jpg,Red_Triangle_Stripes_3.jpg,right,564.0999999998603,false,low,NA,NA,NA,NA,NA,NA,NA,false
qpPhMQTj,3r15w654wg6vibc4e4w6loevry9lqd,3e13vnj1nr87yqibzoeghranfqii1g,qpPhMQTj,2020-0188,2020-11-18,15:19:49,15:46:22,NA,incomplete,150,number,1,left,Purple_Triangle_Stripes_3.jpg,Red_Circle_Dots_3.jpg,Purple_Star_Chess_1.jpg,left,660.3000000000466,true,low,NA,NA,NA,NA,NA,NA,NA,false
qpPhMQTj,3r15w654wg6vibc4e4w6loevry9lqd,3e13vnj1nr87yqibzoeghranfqii1g,qpPhMQTj,2020-0188,2020-11-18,15:19:49,15:46:22,NA,incomplete,151,number,1,left,Purple_Star_Grid_2.jpg,Green_Plus_Dots_2.jpg,Purple_Circle_Stripes_1.jpg,left,619.3000000000466,true,low,NA,NA,NA,NA,NA,NA,NA,false
qpPhMQTj,3r15w654wg6vibc4e4w6loevry9lqd,3e13vnj1nr87yqibzoeghranfqii1g,qpPhMQTj,2020-0188,2020-11-18,15:19:49,15:46:22,NA,incomplete,152,number,1,left,Red_Plus_Dots_4.jpg,Green_Circle_Stripes_4.jpg,Red_Triangle_Grid_3.jpg,left,779.6000000000931,true,low,NA,NA,NA,NA,NA,NA,NA,false
qpPhMQTj,3r15w654wg6vibc4e4w6loevry9lqd,3e13vnj1nr87yqibzoeghranfqii1g,qpPhMQTj,2020-0188,2020-11-18,15:19:49,15:46:22,NA,incomplete,153,number,1,left,Red_Circle_Grid_3.jpg,Blue_Plus_Stripes_3.jpg,Red_Star_Dots_1.jpg,left,607.0999999998603,true,low,NA,NA,NA,NA,NA,NA,NA,false
qpPhMQTj,3r15w654wg6vibc4e4w6loevry9lqd,3e13vnj1nr87yqibzoeghranfqii1g,qpPhMQTj,2020-0188,2020-11-18,15:19:49,15:46:22,NA,incomplete,154,number,1,right,Blue_Plus_Grid_4.jpg,Blue_Circle_Stripes_2.jpg,Green_Triangle_Dots_4.jpg,right,568.8000000000466,true,low,NA,NA,NA,NA,NA,NA,NA,false
qpPhMQTj,3r15w654wg6vibc4e4w6loevry9lqd,3e13vnj1nr87yqibzoeghranfqii1g,qpPhMQTj,2020-0188,2020-11-18,15:19:49,15:46:22,NA,incomplete,155,number,1,right,Blue_Circle_Grid_1.jpg,Blue_Triangle_Chess_2.jpg,Green_Plus_Dots_1.jpg,right,737.5,true,low,NA,NA,NA,NA,NA,NA,NA,false
qpPhMQTj,3r15w654wg6vibc4e4w6loevry9lqd,3e13vnj1nr87yqibzoeghranfqii1g,qpPhMQTj,2020-0188,2020-11-18,15:19:49,15:46:22,NA,incomplete,156,number,1,left,Red_Star_Dots_2.jpg,Blue_Plus_Grid_2.jpg,Red_Triangle_Chess_4.jpg,left,585.8000000000466,true,low,NA,NA,NA,NA,NA,NA,NA,false
qpPhMQTj,3r15w654wg6vibc4e4w6loevry9lqd,3e13vnj1nr87yqibzoeghranfqii1g,qpPhMQTj,2020-0188,2020-11-18,15:19:49,15:46:22,NA,incomplete,157,number,1,right,Red_Plus_Dots_2.jpg,Red_Star_Grid_4.jpg,Green_Circle_Stripes_2.jpg,right,557.6999999999534,true,low,NA,NA,NA,NA,NA,NA,NA,false
qpPhMQTj,3r15w654wg6vibc4e4w6loevry9lqd,3e13vnj1nr87yqibzoeghranfqii1g,qpPhMQTj,2020-0188,2020-11-18,15:19:49,15:46:22,NA,incomplete,158,number,1,left,Purple_Star_Dots_3.jpg,Red_Circle_Grid_3.jpg,Purple_Triangle_Stripes_2.jpg,left,635.4000000001397,true,low,NA,NA,NA,NA,NA,NA,NA,false
qpPhMQTj,3r15w654wg6vibc4e4w6loevry9lqd,3e13vnj1nr87yqibzoeghranfqii1g,qpPhMQTj,2020-0188,2020-11-18,15:19:49,15:46:22,NA,incomplete,159,number,1,left,Purple_Triangle_Grid_1.jpg,Blue_Circle_Chess_1.jpg,Purple_Star_Dots_4.jpg,left,627.3000000000466,true,low,NA,NA,NA,NA,NA,NA,NA,false
qpPhMQTj,3r15w654wg6vibc4e4w6loevry9lqd,3e13vnj1nr87yqibzoeghranfqii1g,qpPhMQTj,2020-0188,2020-11-18,15:19:49,15:46:22,NA,incomplete,160,color,1,left,Purple_Triangle_Dots_2.jpg,Purple_Circle_Chess_3.jpg,Blue_Plus_Grid_2.jpg,right,649.6999999999534,false,low,NA,NA,NA,NA,NA,NA,NA,false
qpPhMQTj,3r15w654wg6vibc4e4w6loevry9lqd,3e13vnj1nr87yqibzoeghranfqii1g,qpPhMQTj,2020-0188,2020-11-18,15:19:49,15:46:22,NA,incomplete,161,color,1,left,Purple_Triangle_Chess_1.jpg,Purple_Star_Stripes_3.jpg,Red_Circle_Dots_1.jpg,right,666.8000000000466,false,low,NA,NA,NA,NA,NA,NA,NA,false
qpPhMQTj,3r15w654wg6vibc4e4w6loevry9lqd,3e13vnj1nr87yqibzoeghranfqii1g,qpPhMQTj,2020-0188,2020-11-18,15:19:49,15:46:22,NA,incomplete,162,color,1,right,Red_Triangle_Stripes_4.jpg,Blue_Plus_Dots_4.jpg,Red_Circle_Grid_1.jpg,right,492,true,low,NA,NA,NA,NA,NA,NA,NA,false
qpPhMQTj,3r15w654wg6vibc4e4w6loevry9lqd,3e13vnj1nr87yqibzoeghranfqii1g,qpPhMQTj,2020-0188,2020-11-18,15:19:49,15:46:22,NA,incomplete,163,color,1,left,Red_Triangle_Grid_2.jpg,Red_Circle_Stripes_1.jpg,Purple_Plus_Dots_2.jpg,left,545.6999999999534,true,low,NA,NA,NA,NA,NA,NA,NA,false
qpPhMQTj,3r15w654wg6vibc4e4w6loevry9lqd,3e13vnj1nr87yqibzoeghranfqii1g,qpPhMQTj,2020-0188,2020-11-18,15:19:49,15:46:22,NA,incomplete,164,color,1,left,Purple_Star_Chess_4.jpg,Purple_Triangle_Grid_1.jpg,Blue_Plus_Stripes_4.jpg,left,549.1000000000931,true,low,NA,NA,NA,NA,NA,NA,NA,false
qpPhMQTj,3r15w654wg6vibc4e4w6loevry9lqd,3e13vnj1nr87yqibzoeghranfqii1g,qpPhMQTj,2020-0188,2020-11-18,15:19:49,15:46:22,NA,incomplete,165,color,0,right,Purple_Circle_Grid_1.jpg,Blue_Plus_Chess_1.jpg,Purple_Star_Stripes_3.jpg,left,551.3000000000466,false,low,NA,NA,NA,NA,NA,NA,NA,false
qpPhMQTj,3r15w654wg6vibc4e4w6loevry9lqd,3e13vnj1nr87yqibzoeghranfqii1g,qpPhMQTj,2020-0188,2020-11-18,15:19:49,15:46:22,NA,incomplete,166,color,1,left,Green_Circle_Chess_4.jpg,Green_Plus_Dots_1.jpg,Blue_Triangle_Grid_4.jpg,right,591.5999999998603,false,low,NA,NA,NA,NA,NA,NA,NA,false
qpPhMQTj,3r15w654wg6vibc4e4w6loevry9lqd,3e13vnj1nr87yqibzoeghranfqii1g,qpPhMQTj,2020-0188,2020-11-18,15:19:49,15:46:22,NA,incomplete,167,color,0,right,Green_Star_Grid_3.jpg,Red_Triangle_Stripes_3.jpg,Green_Circle_Dots_4.jpg,right,789.1999999999534,true,low,NA,NA,NA,NA,NA,NA,NA,false
qpPhMQTj,3r15w654wg6vibc4e4w6loevry9lqd,3e13vnj1nr87yqibzoeghranfqii1g,qpPhMQTj,2020-0188,2020-11-18,15:19:49,15:46:22,NA,incomplete,168,color,1,right,Blue_Plus_Dots_3.jpg,Red_Circle_Stripes_3.jpg,Blue_Star_Chess_4.jpg,right,527.3999999999069,true,low,NA,NA,NA,NA,NA,NA,NA,false
qpPhMQTj,3r15w654wg6vibc4e4w6loevry9lqd,3e13vnj1nr87yqibzoeghranfqii1g,qpPhMQTj,2020-0188,2020-11-18,15:19:49,15:46:22,NA,incomplete,169,color,1,left,Green_Circle_Grid_3.jpg,Green_Plus_Chess_2.jpg,Purple_Star_Stripes_3.jpg,left,475.5999999998603,true,low,NA,NA,NA,NA,NA,NA,NA,false
qpPhMQTj,3r15w654wg6vibc4e4w6loevry9lqd,3e13vnj1nr87yqibzoeghranfqii1g,qpPhMQTj,2020-0188,2020-11-18,15:19:49,15:46:22,NA,incomplete,170,color,1,right,Blue_Star_Dots_4.jpg,Purple_Triangle_Chess_4.jpg,Blue_Plus_Grid_1.jpg,right,527.9000000001397,true,low,NA,NA,NA,NA,NA,NA,NA,false
qpPhMQTj,3r15w654wg6vibc4e4w6loevry9lqd,3e13vnj1nr87yqibzoeghranfqii1g,qpPhMQTj,2020-0188,2020-11-18,15:19:49,15:46:22,NA,incomplete,171,color,1,right,Blue_Star_Stripes_4.jpg,Purple_Plus_Chess_4.jpg,Blue_Triangle_Dots_1.jpg,right,557.9000000001397,true,low,NA,NA,NA,NA,NA,NA,NA,false
qpPhMQTj,3r15w654wg6vibc4e4w6loevry9lqd,3e13vnj1nr87yqibzoeghranfqii1g,qpPhMQTj,2020-0188,2020-11-18,15:19:49,15:46:22,NA,incomplete,172,color,1,right,Purple_Plus_Stripes_1.jpg,Red_Star_Grid_1.jpg,Purple_Circle_Chess_3.jpg,right,463.5,true,low,NA,NA,NA,NA,NA,NA,NA,false
qpPhMQTj,3r15w654wg6vibc4e4w6loevry9lqd,3e13vnj1nr87yqibzoeghranfqii1g,qpPhMQTj,2020-0188,2020-11-18,15:19:49,15:46:22,NA,incomplete,173,color,0,left,Red_Circle_Stripes_3.jpg,Red_Triangle_Chess_4.jpg,Blue_Plus_Grid_3.jpg,left,443.0999999998603,true,low,NA,NA,NA,NA,NA,NA,NA,false
qpPhMQTj,3r15w654wg6vibc4e4w6loevry9lqd,3e13vnj1nr87yqibzoeghranfqii1g,qpPhMQTj,2020-0188,2020-11-18,15:19:49,15:46:22,NA,incomplete,174,color,1,right,Blue_Circle_Chess_3.jpg,Green_Plus_Grid_3.jpg,Blue_Star_Dots_2.jpg,right,498.9000000001397,true,low,NA,NA,NA,NA,NA,NA,NA,false
qpPhMQTj,3r15w654wg6vibc4e4w6loevry9lqd,3e13vnj1nr87yqibzoeghranfqii1g,qpPhMQTj,2020-0188,2020-11-18,15:19:49,15:46:22,NA,incomplete,175,color,0,right,Purple_Circle_Chess_2.jpg,Red_Star_Dots_2.jpg,Purple_Triangle_Stripes_4.jpg,right,580.6999999999534,true,low,NA,NA,NA,NA,NA,NA,NA,false
qpPhMQTj,3r15w654wg6vibc4e4w6loevry9lqd,3e13vnj1nr87yqibzoeghranfqii1g,qpPhMQTj,2020-0188,2020-11-18,15:19:49,15:46:22,NA,incomplete,176,color,1,left,Blue_Triangle_Stripes_1.jpg,Blue_Plus_Chess_3.jpg,Red_Star_Grid_1.jpg,right,607.1999999999534,false,low,NA,NA,NA,NA,NA,NA,NA,false
qpPhMQTj,3r15w654wg6vibc4e4w6loevry9lqd,3e13vnj1nr87yqibzoeghranfqii1g,qpPhMQTj,2020-0188,2020-11-18,15:19:49,15:46:22,NA,incomplete,177,color,1,left,Green_Star_Stripes_4.jpg,Green_Circle_Dots_2.jpg,Red_Plus_Chess_4.jpg,left,633.5,true,low,NA,NA,NA,NA,NA,NA,NA,false
qpPhMQTj,3r15w654wg6vibc4e4w6loevry9lqd,3e13vnj1nr87yqibzoeghranfqii1g,qpPhMQTj,2020-0188,2020-11-18,15:19:49,15:46:22,NA,incomplete,178,color,1,left,Purple_Star_Dots_2.jpg,Purple_Circle_Chess_4.jpg,Green_Triangle_Grid_2.jpg,left,500.60000000009313,true,low,NA,NA,NA,NA,NA,NA,NA,false
qpPhMQTj,3r15w654wg6vibc4e4w6loevry9lqd,3e13vnj1nr87yqibzoeghranfqii1g,qpPhMQTj,2020-0188,2020-11-18,15:19:49,15:46:22,NA,incomplete,179,color,1,right,Red_Plus_Dots_2.jpg,Purple_Circle_Chess_2.jpg,Red_Star_Grid_4.jpg,left,650.1999999999534,false,low,NA,NA,NA,NA,NA,NA,NA,false
qpPhMQTj,3r15w654wg6vibc4e4w6loevry9lqd,3e13vnj1nr87yqibzoeghranfqii1g,qpPhMQTj,2020-0188,2020-11-18,15:19:49,15:46:22,NA,incomplete,180,number,1,right,Blue_Plus_Dots_2.jpg,Blue_Triangle_Grid_4.jpg,Green_Star_Chess_2.jpg,left,596,false,low,NA,NA,NA,NA,NA,NA,NA,false
qpPhMQTj,3r15w654wg6vibc4e4w6loevry9lqd,3e13vnj1nr87yqibzoeghranfqii1g,qpPhMQTj,2020-0188,2020-11-18,15:19:49,15:46:22,NA,incomplete,181,number,1,right,Red_Circle_Chess_3.jpg,Red_Star_Stripes_4.jpg,Green_Plus_Dots_3.jpg,left,760.5,false,low,NA,NA,NA,NA,NA,NA,NA,false
qpPhMQTj,3r15w654wg6vibc4e4w6loevry9lqd,3e13vnj1nr87yqibzoeghranfqii1g,qpPhMQTj,2020-0188,2020-11-18,15:19:49,15:46:22,NA,incomplete,182,number,0,left,Blue_Plus_Dots_3.jpg,Green_Triangle_Stripes_3.jpg,Blue_Star_Grid_2.jpg,right,1087.5,false,low,NA,NA,NA,NA,NA,NA,NA,false
qpPhMQTj,3r15w654wg6vibc4e4w6loevry9lqd,3e13vnj1nr87yqibzoeghranfqii1g,qpPhMQTj,2020-0188,2020-11-18,15:19:49,15:46:22,NA,incomplete,183,number,1,right,Red_Circle_Stripes_3.jpg,Red_Plus_Dots_1.jpg,Green_Triangle_Chess_3.jpg,left,531.1999999999534,false,low,NA,NA,NA,NA,NA,NA,NA,false
qpPhMQTj,3r15w654wg6vibc4e4w6loevry9lqd,3e13vnj1nr87yqibzoeghranfqii1g,qpPhMQTj,2020-0188,2020-11-18,15:19:49,15:46:22,NA,incomplete,184,number,1,right,Purple_Triangle_Dots_2.jpg,Purple_Star_Grid_4.jpg,Red_Circle_Chess_2.jpg,right,737.4000000001397,true,low,NA,NA,NA,NA,NA,NA,NA,false
qpPhMQTj,3r15w654wg6vibc4e4w6loevry9lqd,3e13vnj1nr87yqibzoeghranfqii1g,qpPhMQTj,2020-0188,2020-11-18,15:19:49,15:46:22,NA,incomplete,185,number,1,left,Purple_Triangle_Grid_2.jpg,Blue_Star_Chess_2.jpg,Purple_Plus_Dots_3.jpg,left,652.5999999998603,true,low,NA,NA,NA,NA,NA,NA,NA,false
qpPhMQTj,3r15w654wg6vibc4e4w6loevry9lqd,3e13vnj1nr87yqibzoeghranfqii1g,qpPhMQTj,2020-0188,2020-11-18,15:19:49,15:46:22,NA,incomplete,186,number,1,left,Purple_Triangle_Chess_2.jpg,Green_Plus_Grid_2.jpg,Purple_Circle_Stripes_3.jpg,left,584.6999999999534,true,low,NA,NA,NA,NA,NA,NA,NA,false
qpPhMQTj,3r15w654wg6vibc4e4w6loevry9lqd,3e13vnj1nr87yqibzoeghranfqii1g,qpPhMQTj,2020-0188,2020-11-18,15:19:49,15:46:22,NA,incomplete,187,number,0,right,Red_Star_Grid_3.jpg,Red_Circle_Stripes_1.jpg,Blue_Triangle_Dots_3.jpg,right,585.5999999998603,true,low,NA,NA,NA,NA,NA,NA,NA,false
qpPhMQTj,3r15w654wg6vibc4e4w6loevry9lqd,3e13vnj1nr87yqibzoeghranfqii1g,qpPhMQTj,2020-0188,2020-11-18,15:19:49,15:46:22,NA,incomplete,188,number,1,left,Blue_Triangle_Chess_3.jpg,Red_Plus_Grid_3.jpg,Blue_Star_Dots_4.jpg,left,663.1999999999534,true,low,NA,NA,NA,NA,NA,NA,NA,false
qpPhMQTj,3r15w654wg6vibc4e4w6loevry9lqd,3e13vnj1nr87yqibzoeghranfqii1g,qpPhMQTj,2020-0188,2020-11-18,15:19:49,15:46:22,NA,incomplete,189,number,0,left,Blue_Triangle_Chess_4.jpg,Red_Plus_Stripes_4.jpg,Blue_Circle_Grid_1.jpg,left,548.3999999999069,true,low,NA,NA,NA,NA,NA,NA,NA,false
qpPhMQTj,3r15w654wg6vibc4e4w6loevry9lqd,3e13vnj1nr87yqibzoeghranfqii1g,qpPhMQTj,2020-0188,2020-11-18,15:19:49,15:46:22,NA,incomplete,190,number,1,left,Green_Star_Chess_2.jpg,Red_Plus_Stripes_2.jpg,Green_Circle_Grid_4.jpg,left,563.1999999999534,true,low,NA,NA,NA,NA,NA,NA,NA,false
qpPhMQTj,3r15w654wg6vibc4e4w6loevry9lqd,3e13vnj1nr87yqibzoeghranfqii1g,qpPhMQTj,2020-0188,2020-11-18,15:19:49,15:46:22,NA,incomplete,191,number,1,right,Purple_Circle_Chess_4.jpg,Purple_Star_Dots_1.jpg,Red_Plus_Grid_4.jpg,right,549.1000000000931,true,low,NA,NA,NA,NA,NA,NA,NA,false
qpPhMQTj,3r15w654wg6vibc4e4w6loevry9lqd,3e13vnj1nr87yqibzoeghranfqii1g,qpPhMQTj,2020-0188,2020-11-18,15:19:49,15:46:22,NA,incomplete,192,number,0,right,Purple_Circle_Dots_2.jpg,Purple_Plus_Stripes_1.jpg,Blue_Triangle_Chess_2.jpg,right,644.5,true,low,NA,NA,NA,NA,NA,NA,NA,false
qpPhMQTj,3r15w654wg6vibc4e4w6loevry9lqd,3e13vnj1nr87yqibzoeghranfqii1g,qpPhMQTj,2020-0188,2020-11-18,15:19:49,15:46:22,NA,incomplete,193,number,1,right,Green_Plus_Chess_1.jpg,Green_Circle_Dots_2.jpg,Blue_Triangle_Stripes_1.jpg,right,600,true,low,NA,NA,NA,NA,NA,NA,NA,false
qpPhMQTj,3r15w654wg6vibc4e4w6loevry9lqd,3e13vnj1nr87yqibzoeghranfqii1g,qpPhMQTj,2020-0188,2020-11-18,15:19:49,15:46:22,NA,incomplete,194,number,0,left,Green_Circle_Stripes_3.jpg,Red_Triangle_Dots_3.jpg,Green_Star_Chess_1.jpg,left,611.6999999999534,true,low,NA,NA,NA,NA,NA,NA,NA,false
qpPhMQTj,3r15w654wg6vibc4e4w6loevry9lqd,3e13vnj1nr87yqibzoeghranfqii1g,qpPhMQTj,2020-0188,2020-11-18,15:19:49,15:46:22,NA,incomplete,195,number,1,right,Purple_Triangle_Chess_4.jpg,Purple_Plus_Grid_1.jpg,Green_Star_Stripes_4.jpg,right,550.5,true,low,NA,NA,NA,NA,NA,NA,NA,false
qpPhMQTj,3r15w654wg6vibc4e4w6loevry9lqd,3e13vnj1nr87yqibzoeghranfqii1g,qpPhMQTj,2020-0188,2020-11-18,15:19:49,15:46:22,NA,incomplete,196,number,1,left,Red_Plus_Grid_2.jpg,Green_Circle_Chess_2.jpg,Red_Star_Dots_1.jpg,left,618.3999999999069,true,low,NA,NA,NA,NA,NA,NA,NA,false
qpPhMQTj,3r15w654wg6vibc4e4w6loevry9lqd,3e13vnj1nr87yqibzoeghranfqii1g,qpPhMQTj,2020-0188,2020-11-18,15:19:49,15:46:22,NA,incomplete,197,number,1,right,Blue_Circle_Stripes_4.jpg,Blue_Star_Dots_2.jpg,Green_Plus_Chess_4.jpg,right,630.8999999999069,true,low,NA,NA,NA,NA,NA,NA,NA,false
qpPhMQTj,3r15w654wg6vibc4e4w6loevry9lqd,3e13vnj1nr87yqibzoeghranfqii1g,qpPhMQTj,2020-0188,2020-11-18,15:19:49,15:46:22,NA,incomplete,198,number,1,left,Purple_Circle_Dots_2.jpg,Red_Plus_Grid_2.jpg,Purple_Star_Chess_4.jpg,left,604,true,low,NA,NA,NA,NA,NA,NA,NA,false
qpPhMQTj,3r15w654wg6vibc4e4w6loevry9lqd,3e13vnj1nr87yqibzoeghranfqii1g,qpPhMQTj,2020-0188,2020-11-18,15:19:49,15:46:22,NA,incomplete,199,number,1,right,Red_Triangle_Dots_3.jpg,Red_Plus_Grid_1.jpg,Blue_Star_Chess_3.jpg,right,583.2000000001863,true,low,NA,NA,NA,NA,NA,NA,NA,false
qpPhMQTj,3r15w654wg6vibc4e4w6loevry9lqd,3e13vnj1nr87yqibzoeghranfqii1g,qpPhMQTj,2020-0188,2020-11-18,15:19:49,15:46:22,NA,incomplete,200,color,0,right,Purple_Circle_Stripes_1.jpg,Blue_Star_Grid_1.jpg,Purple_Triangle_Chess_3.jpg,left,571.6000000000931,false,low,NA,NA,NA,NA,NA,NA,NA,false
qpPhMQTj,3r15w654wg6vibc4e4w6loevry9lqd,3e13vnj1nr87yqibzoeghranfqii1g,qpPhMQTj,2020-0188,2020-11-18,15:19:49,15:46:22,NA,incomplete,201,color,1,right,Purple_Circle_Dots_2.jpg,Green_Plus_Grid_2.jpg,Purple_Star_Stripes_3.jpg,left,592.8999999999069,false,low,NA,NA,NA,NA,NA,NA,NA,false
qpPhMQTj,3r15w654wg6vibc4e4w6loevry9lqd,3e13vnj1nr87yqibzoeghranfqii1g,qpPhMQTj,2020-0188,2020-11-18,15:19:49,15:46:22,NA,incomplete,202,color,0,right,Purple_Star_Stripes_4.jpg,Red_Plus_Dots_4.jpg,Purple_Circle_Grid_2.jpg,left,620.9000000001397,false,low,NA,NA,NA,NA,NA,NA,NA,false
qpPhMQTj,3r15w654wg6vibc4e4w6loevry9lqd,3e13vnj1nr87yqibzoeghranfqii1g,qpPhMQTj,2020-0188,2020-11-18,15:19:49,15:46:22,NA,incomplete,203,color,1,left,Purple_Star_Chess_4.jpg,Purple_Triangle_Dots_3.jpg,Blue_Circle_Stripes_4.jpg,right,571.5,false,low,NA,NA,NA,NA,NA,NA,NA,false
qpPhMQTj,3r15w654wg6vibc4e4w6loevry9lqd,3e13vnj1nr87yqibzoeghranfqii1g,qpPhMQTj,2020-0188,2020-11-18,15:19:49,15:46:22,NA,incomplete,204,color,1,right,Red_Star_Stripes_3.jpg,Green_Triangle_Grid_3.jpg,Red_Circle_Chess_1.jpg,left,627.6999999999534,false,low,NA,NA,NA,NA,NA,NA,NA,false
qpPhMQTj,3r15w654wg6vibc4e4w6loevry9lqd,3e13vnj1nr87yqibzoeghranfqii1g,qpPhMQTj,2020-0188,2020-11-18,15:19:49,15:46:22,NA,incomplete,205,color,1,left,Green_Star_Grid_4.jpg,Green_Triangle_Chess_3.jpg,Purple_Circle_Dots_4.jpg,left,618.8000000000466,true,low,NA,NA,NA,NA,NA,NA,NA,false
qpPhMQTj,3r15w654wg6vibc4e4w6loevry9lqd,3e13vnj1nr87yqibzoeghranfqii1g,qpPhMQTj,2020-0188,2020-11-18,15:19:49,15:46:22,NA,incomplete,206,color,0,left,Green_Circle_Chess_1.jpg,Green_Star_Dots_4.jpg,Red_Plus_Grid_1.jpg,left,500.0999999998603,true,low,NA,NA,NA,NA,NA,NA,NA,false
qpPhMQTj,3r15w654wg6vibc4e4w6loevry9lqd,3e13vnj1nr87yqibzoeghranfqii1g,qpPhMQTj,2020-0188,2020-11-18,15:19:49,15:46:22,NA,incomplete,207,color,1,left,Green_Circle_Dots_2.jpg,Green_Triangle_Chess_3.jpg,Blue_Star_Stripes_2.jpg,left,447.10000000009313,true,low,NA,NA,NA,NA,NA,NA,NA,false
qpPhMQTj,3r15w654wg6vibc4e4w6loevry9lqd,3e13vnj1nr87yqibzoeghranfqii1g,qpPhMQTj,2020-0188,2020-11-18,15:19:49,15:46:22,NA,incomplete,208,color,1,left,Red_Circle_Grid_1.jpg,Red_Star_Chess_4.jpg,Purple_Triangle_Dots_1.jpg,left,576,true,low,NA,NA,NA,NA,NA,NA,NA,false
qpPhMQTj,3r15w654wg6vibc4e4w6loevry9lqd,3e13vnj1nr87yqibzoeghranfqii1g,qpPhMQTj,2020-0188,2020-11-18,15:19:49,15:46:22,NA,incomplete,209,color,1,right,Red_Star_Stripes_1.jpg,Green_Plus_Dots_1.jpg,Red_Triangle_Grid_2.jpg,right,448.19999999995343,true,low,NA,NA,NA,NA,NA,NA,NA,false
qpPhMQTj,3r15w654wg6vibc4e4w6loevry9lqd,3e13vnj1nr87yqibzoeghranfqii1g,qpPhMQTj,2020-0188,2020-11-18,15:19:49,15:46:22,NA,incomplete,210,color,1,right,Purple_Triangle_Grid_3.jpg,Blue_Plus_Dots_3.jpg,Purple_Star_Chess_4.jpg,right,541.5,true,low,NA,NA,NA,NA,NA,NA,NA,false
qpPhMQTj,3r15w654wg6vibc4e4w6loevry9lqd,3e13vnj1nr87yqibzoeghranfqii1g,qpPhMQTj,2020-0188,2020-11-18,15:19:49,15:46:22,NA,incomplete,211,color,1,right,Blue_Triangle_Grid_3.jpg,Red_Circle_Chess_3.jpg,Blue_Plus_Dots_4.jpg,right,505.10000000009313,true,low,NA,NA,NA,NA,NA,NA,NA,false
qpPhMQTj,3r15w654wg6vibc4e4w6loevry9lqd,3e13vnj1nr87yqibzoeghranfqii1g,qpPhMQTj,2020-0188,2020-11-18,15:19:49,15:46:22,NA,incomplete,212,color,1,left,Blue_Triangle_Grid_3.jpg,Blue_Plus_Dots_2.jpg,Red_Star_Chess_3.jpg,left,514.8000000000466,true,low,NA,NA,NA,NA,NA,NA,NA,false
qpPhMQTj,3r15w654wg6vibc4e4w6loevry9lqd,3e13vnj1nr87yqibzoeghranfqii1g,qpPhMQTj,2020-0188,2020-11-18,15:19:49,15:46:22,NA,incomplete,213,color,0,right,Green_Triangle_Dots_1.jpg,Purple_Star_Grid_1.jpg,Green_Plus_Stripes_4.jpg,right,510.30000000004656,true,low,NA,NA,NA,NA,NA,NA,NA,false
qpPhMQTj,3r15w654wg6vibc4e4w6loevry9lqd,3e13vnj1nr87yqibzoeghranfqii1g,qpPhMQTj,2020-0188,2020-11-18,15:19:49,15:46:22,NA,incomplete,214,color,1,right,Blue_Plus_Stripes_4.jpg,Green_Star_Grid_4.jpg,Blue_Circle_Chess_1.jpg,right,622.5,true,low,NA,NA,NA,NA,NA,NA,NA,false
qpPhMQTj,3r15w654wg6vibc4e4w6loevry9lqd,3e13vnj1nr87yqibzoeghranfqii1g,qpPhMQTj,2020-0188,2020-11-18,15:19:49,15:46:22,NA,incomplete,215,color,1,right,Blue_Triangle_Stripes_1.jpg,Green_Star_Dots_1.jpg,Blue_Circle_Chess_2.jpg,right,528.1999999999534,true,low,NA,NA,NA,NA,NA,NA,NA,false
qpPhMQTj,3r15w654wg6vibc4e4w6loevry9lqd,3e13vnj1nr87yqibzoeghranfqii1g,qpPhMQTj,2020-0188,2020-11-18,15:19:49,15:46:22,NA,incomplete,216,color,1,left,Blue_Plus_Chess_3.jpg,Blue_Star_Dots_4.jpg,Purple_Triangle_Grid_3.jpg,left,659.6999999999534,true,low,NA,NA,NA,NA,NA,NA,NA,false
qpPhMQTj,3r15w654wg6vibc4e4w6loevry9lqd,3e13vnj1nr87yqibzoeghranfqii1g,qpPhMQTj,2020-0188,2020-11-18,15:19:49,15:46:22,NA,incomplete,217,color,0,left,Red_Circle_Stripes_2.jpg,Red_Triangle_Dots_3.jpg,Purple_Plus_Grid_2.jpg,left,551.3000000000466,true,low,NA,NA,NA,NA,NA,NA,NA,false
qpPhMQTj,3r15w654wg6vibc4e4w6loevry9lqd,3e13vnj1nr87yqibzoeghranfqii1g,qpPhMQTj,2020-0188,2020-11-18,15:19:49,15:46:22,NA,incomplete,218,color,1,left,Green_Triangle_Dots_3.jpg,Green_Star_Chess_2.jpg,Red_Circle_Grid_3.jpg,left,563.5999999998603,true,low,NA,NA,NA,NA,NA,NA,NA,false
qpPhMQTj,3r15w654wg6vibc4e4w6loevry9lqd,3e13vnj1nr87yqibzoeghranfqii1g,qpPhMQTj,2020-0188,2020-11-18,15:19:49,15:46:22,NA,incomplete,219,color,1,left,Red_Circle_Stripes_1.jpg,Red_Plus_Chess_4.jpg,Purple_Triangle_Grid_1.jpg,left,504.60000000009313,true,low,NA,NA,NA,NA,NA,NA,NA,false
qpPhMQTj,3r15w654wg6vibc4e4w6loevry9lqd,3e13vnj1nr87yqibzoeghranfqii1g,qpPhMQTj,2020-0188,2020-11-18,15:19:49,15:46:22,NA,incomplete,220,number,1,right,Purple_Circle_Dots_4.jpg,Purple_Star_Grid_2.jpg,Red_Triangle_Stripes_4.jpg,left,491.19999999995343,false,low,NA,NA,NA,NA,NA,NA,NA,false
qpPhMQTj,3r15w654wg6vibc4e4w6loevry9lqd,3e13vnj1nr87yqibzoeghranfqii1g,qpPhMQTj,2020-0188,2020-11-18,15:19:49,15:46:22,NA,incomplete,221,number,1,right,Blue_Plus_Dots_1.jpg,Blue_Circle_Stripes_3.jpg,Red_Star_Grid_1.jpg,left,466,false,low,NA,NA,NA,NA,NA,NA,NA,false
qpPhMQTj,3r15w654wg6vibc4e4w6loevry9lqd,3e13vnj1nr87yqibzoeghranfqii1g,qpPhMQTj,2020-0188,2020-11-18,15:19:49,15:46:22,NA,incomplete,222,number,1,left,Purple_Circle_Dots_1.jpg,Green_Plus_Grid_1.jpg,Purple_Triangle_Stripes_3.jpg,left,566,true,low,NA,NA,NA,NA,NA,NA,NA,false
qpPhMQTj,3r15w654wg6vibc4e4w6loevry9lqd,3e13vnj1nr87yqibzoeghranfqii1g,qpPhMQTj,2020-0188,2020-11-18,15:19:49,15:46:22,NA,incomplete,223,number,1,right,Blue_Triangle_Chess_3.jpg,Blue_Circle_Grid_4.jpg,Purple_Star_Stripes_3.jpg,right,593.2999999998137,true,low,NA,NA,NA,NA,NA,NA,NA,false
qpPhMQTj,3r15w654wg6vibc4e4w6loevry9lqd,3e13vnj1nr87yqibzoeghranfqii1g,qpPhMQTj,2020-0188,2020-11-18,15:19:49,15:46:22,NA,incomplete,224,number,1,right,Red_Plus_Chess_4.jpg,Red_Circle_Stripes_2.jpg,Green_Star_Dots_4.jpg,right,489.5,true,low,NA,NA,NA,NA,NA,NA,NA,false
qpPhMQTj,3r15w654wg6vibc4e4w6loevry9lqd,3e13vnj1nr87yqibzoeghranfqii1g,qpPhMQTj,2020-0188,2020-11-18,15:19:49,15:46:22,NA,incomplete,225,number,1,right,Red_Plus_Dots_2.jpg,Red_Star_Stripes_1.jpg,Green_Triangle_Chess_2.jpg,left,470.19999999995343,false,low,NA,NA,NA,NA,NA,NA,NA,false
qpPhMQTj,3r15w654wg6vibc4e4w6loevry9lqd,3e13vnj1nr87yqibzoeghranfqii1g,qpPhMQTj,2020-0188,2020-11-18,15:19:49,15:46:22,NA,incomplete,226,number,1,left,Green_Plus_Grid_1.jpg,Red_Star_Dots_1.jpg,Green_Triangle_Chess_3.jpg,right,739.6999999999534,false,low,NA,NA,NA,NA,NA,NA,NA,false
qpPhMQTj,3r15w654wg6vibc4e4w6loevry9lqd,3e13vnj1nr87yqibzoeghranfqii1g,qpPhMQTj,2020-0188,2020-11-18,15:19:49,15:46:22,NA,incomplete,227,number,1,left,Red_Star_Dots_2.jpg,Blue_Plus_Grid_2.jpg,Red_Circle_Chess_1.jpg,left,633.8000000000466,true,low,NA,NA,NA,NA,NA,NA,NA,false
qpPhMQTj,3r15w654wg6vibc4e4w6loevry9lqd,3e13vnj1nr87yqibzoeghranfqii1g,qpPhMQTj,2020-0188,2020-11-18,15:19:49,15:46:22,NA,incomplete,228,number,0,right,Green_Triangle_Chess_2.jpg,Green_Plus_Stripes_3.jpg,Red_Circle_Dots_2.jpg,right,689.4000000001397,true,low,NA,NA,NA,NA,NA,NA,NA,false
qpPhMQTj,3r15w654wg6vibc4e4w6loevry9lqd,3e13vnj1nr87yqibzoeghranfqii1g,qpPhMQTj,2020-0188,2020-11-18,15:19:49,15:46:22,NA,incomplete,229,number,1,left,Green_Plus_Dots_4.jpg,Red_Circle_Chess_4.jpg,Green_Triangle_Grid_3.jpg,left,752.6000000000931,true,low,NA,NA,NA,NA,NA,NA,NA,false
qpPhMQTj,3r15w654wg6vibc4e4w6loevry9lqd,3e13vnj1nr87yqibzoeghranfqii1g,qpPhMQTj,2020-0188,2020-11-18,15:19:49,15:46:22,NA,incomplete,230,number,1,right,Purple_Triangle_Dots_2.jpg,Purple_Circle_Grid_4.jpg,Green_Star_Chess_2.jpg,right,591.8999999999069,true,low,NA,NA,NA,NA,NA,NA,NA,false
qpPhMQTj,3r15w654wg6vibc4e4w6loevry9lqd,3e13vnj1nr87yqibzoeghranfqii1g,qpPhMQTj,2020-0188,2020-11-18,15:19:49,15:46:22,NA,incomplete,231,number,1,left,Red_Plus_Stripes_1.jpg,Blue_Circle_Grid_1.jpg,Red_Triangle_Dots_3.jpg,left,605.3000000000466,true,low,NA,NA,NA,NA,NA,NA,NA,false
qpPhMQTj,3r15w654wg6vibc4e4w6loevry9lqd,3e13vnj1nr87yqibzoeghranfqii1g,qpPhMQTj,2020-0188,2020-11-18,15:19:49,15:46:22,NA,incomplete,232,number,1,right,Purple_Circle_Grid_3.jpg,Purple_Star_Chess_2.jpg,Green_Plus_Stripes_3.jpg,right,663.5,true,low,NA,NA,NA,NA,NA,NA,NA,false
qpPhMQTj,3r15w654wg6vibc4e4w6loevry9lqd,3e13vnj1nr87yqibzoeghranfqii1g,qpPhMQTj,2020-0188,2020-11-18,15:19:49,15:46:22,NA,incomplete,233,number,0,right,Purple_Circle_Grid_3.jpg,Purple_Star_Chess_2.jpg,Green_Triangle_Stripes_3.jpg,right,640.3999999999069,true,low,NA,NA,NA,NA,NA,NA,NA,false
qpPhMQTj,3r15w654wg6vibc4e4w6loevry9lqd,3e13vnj1nr87yqibzoeghranfqii1g,qpPhMQTj,2020-0188,2020-11-18,15:19:49,15:46:22,NA,incomplete,234,number,1,right,Blue_Triangle_Dots_3.jpg,Blue_Star_Grid_4.jpg,Red_Circle_Chess_3.jpg,right,746.8999999999069,true,low,NA,NA,NA,NA,NA,NA,NA,false
qpPhMQTj,3r15w654wg6vibc4e4w6loevry9lqd,3e13vnj1nr87yqibzoeghranfqii1g,qpPhMQTj,2020-0188,2020-11-18,15:19:49,15:46:22,NA,incomplete,235,number,0,left,Blue_Star_Grid_4.jpg,Purple_Circle_Stripes_4.jpg,Blue_Triangle_Chess_2.jpg,left,591.1999999999534,true,low,NA,NA,NA,NA,NA,NA,NA,false
qpPhMQTj,3r15w654wg6vibc4e4w6loevry9lqd,3e13vnj1nr87yqibzoeghranfqii1g,qpPhMQTj,2020-0188,2020-11-18,15:19:49,15:46:22,NA,incomplete,236,number,1,right,Blue_Plus_Stripes_2.jpg,Blue_Star_Chess_1.jpg,Purple_Triangle_Dots_2.jpg,right,680,true,low,NA,NA,NA,NA,NA,NA,NA,false
qpPhMQTj,3r15w654wg6vibc4e4w6loevry9lqd,3e13vnj1nr87yqibzoeghranfqii1g,qpPhMQTj,2020-0188,2020-11-18,15:19:49,15:46:22,NA,incomplete,237,number,1,left,Purple_Star_Grid_3.jpg,Green_Circle_Dots_3.jpg,Purple_Plus_Stripes_1.jpg,left,663.8000000000466,true,low,NA,NA,NA,NA,NA,NA,NA,false
qpPhMQTj,3r15w654wg6vibc4e4w6loevry9lqd,3e13vnj1nr87yqibzoeghranfqii1g,qpPhMQTj,2020-0188,2020-11-18,15:19:49,15:46:22,NA,incomplete,238,number,0,right,Red_Plus_Stripes_3.jpg,Red_Triangle_Dots_2.jpg,Green_Circle_Chess_3.jpg,right,700.2000000001863,true,low,NA,NA,NA,NA,NA,NA,NA,false
qpPhMQTj,3r15w654wg6vibc4e4w6loevry9lqd,3e13vnj1nr87yqibzoeghranfqii1g,qpPhMQTj,2020-0188,2020-11-18,15:19:49,15:46:22,NA,incomplete,239,number,1,left,Purple_Star_Dots_2.jpg,Red_Circle_Chess_2.jpg,Purple_Plus_Stripes_1.jpg,left,636.5999999998603,true,low,NA,NA,NA,NA,NA,NA,NA,false
qpPhMQTj,3r15w654wg6vibc4e4w6loevry9lqd,3e13vnj1nr87yqibzoeghranfqii1g,qpPhMQTj,2020-0188,2020-11-18,15:19:49,15:46:22,NA,NA,instruction example,shape,NA,NA,Green_Triangle_Grid_1.jpg,Red_Triangle_Stripes_3.jpg,Blue_Star_Grid_2.jpg,NA,NA,NA,NA,NA,NA,NA,NA,NA,NA,NA,undefined
qpPhMQTj,3r15w654wg6vibc4e4w6loevry9lqd,3e13vnj1nr87yqibzoeghranfqii1g,qpPhMQTj,2020-0188,2020-11-18,15:19:49,15:46:22,NA,NA,instruction example,shape,NA,NA,Purple_Star_Grid_2.jpg,Green_Plus_Grid_1.jpg,Red_Star_Dots_3.jpg,NA,NA,NA,NA,NA,NA,NA,NA,NA,NA,NA,undefined
qpPhMQTj,3r15w654wg6vibc4e4w6loevry9lqd,3e13vnj1nr87yqibzoeghranfqii1g,qpPhMQTj,2020-0188,2020-11-18,15:19:49,15:46:22,NA,NA,instruction example,shape,NA,NA,Red_Star_Chess_1.jpg,Red_Triangle_Dots_2.jpg,Purple_Plus_Grid_1.jpg,NA,NA,NA,NA,NA,NA,NA,NA,NA,NA,NA,undefined
qpPhMQTj,3r15w654wg6vibc4e4w6loevry9lqd,3e13vnj1nr87yqibzoeghranfqii1g,qpPhMQTj,2020-0188,2020-11-18,15:19:49,15:46:22,NA,NA,instruction example,shape,NA,NA,Blue_Plus_Chess_4.jpg,Purple_Circle_Grid_4.jpg,Blue_Triangle_Dots_3.jpg,NA,NA,NA,NA,NA,NA,NA,NA,NA,NA,NA,undefined
qpPhMQTj,3r15w654wg6vibc4e4w6loevry9lqd,3e13vnj1nr87yqibzoeghranfqii1g,qpPhMQTj,2020-0188,2020-11-18,15:19:49,15:46:22,1569666.9242,1596403.1242,NA,NA,NA,NA,NA,NA,NA,NA,NA,NA,NA,43,White/Caucasian,Male,American,no,yes,no,undefined
