workerId,hitId,assignmentId,subject,studyid,exp_date,exp_start,exp_end,time_start,time_end,trial,type,reward_validity,answer,image_top,image_left,image_right,response,response_time,response_acc,volatility,age,race,gender,ethnicity,color,vision,neuro,practice
v97vwj8g,3087lxlj7ptluqx9bvztb5ithyq0fq,3e47sobeyu9rlts9fl30yntejo7ic6,v97vwj8g,2020-0188,2020-11-18,13:59:22,14:27:03,NA,incomplete,0,shape,1,right,Green_Plus_Grid_1.jpg,Blue_Circle_Grid_4.jpg,Red_Plus_Dots_3.jpg,none,0,false,NA,NA,NA,NA,NA,NA,NA,NA,true
v97vwj8g,3087lxlj7ptluqx9bvztb5ithyq0fq,3e47sobeyu9rlts9fl30yntejo7ic6,v97vwj8g,2020-0188,2020-11-18,13:59:22,14:27:03,NA,incomplete,1,shape,1,right,Green_Star_Stripes_1.jpg,Purple_Plus_Stripes_2.jpg,Blue_Star_Dots_3.jpg,right,934.5500000054017,true,NA,NA,NA,NA,NA,NA,NA,NA,true
v97vwj8g,3087lxlj7ptluqx9bvztb5ithyq0fq,3e47sobeyu9rlts9fl30yntejo7ic6,v97vwj8g,2020-0188,2020-11-18,13:59:22,14:27:03,NA,incomplete,2,shape,1,left,Green_Triangle_Stripes_1.jpg,Red_Triangle_Grid_3.jpg,Purple_Plus_Stripes_2.jpg,left,790.6849999562837,true,NA,NA,NA,NA,NA,NA,NA,NA,true
v97vwj8g,3087lxlj7ptluqx9bvztb5ithyq0fq,3e47sobeyu9rlts9fl30yntejo7ic6,v97vwj8g,2020-0188,2020-11-18,13:59:22,14:27:03,NA,incomplete,3,shape,1,left,Green_Circle_Chess_4.jpg,Red_Circle_Grid_3.jpg,Purple_Triangle_Chess_2.jpg,left,832.7400000416674,true,NA,NA,NA,NA,NA,NA,NA,NA,true
v97vwj8g,3087lxlj7ptluqx9bvztb5ithyq0fq,3e47sobeyu9rlts9fl30yntejo7ic6,v97vwj8g,2020-0188,2020-11-18,13:59:22,14:27:03,NA,incomplete,4,shape,1,left,Red_Triangle_Grid_1.jpg,Blue_Triangle_Stripes_4.jpg,Green_Plus_Grid_2.jpg,left,868.0850000237115,true,NA,NA,NA,NA,NA,NA,NA,NA,true
v97vwj8g,3087lxlj7ptluqx9bvztb5ithyq0fq,3e47sobeyu9rlts9fl30yntejo7ic6,v97vwj8g,2020-0188,2020-11-18,13:59:22,14:27:03,NA,incomplete,5,shape,1,right,Red_Triangle_Dots_3.jpg,Green_Plus_Dots_4.jpg,Blue_Triangle_Stripes_1.jpg,right,984.7099999897182,true,NA,NA,NA,NA,NA,NA,NA,NA,true
v97vwj8g,3087lxlj7ptluqx9bvztb5ithyq0fq,3e47sobeyu9rlts9fl30yntejo7ic6,v97vwj8g,2020-0188,2020-11-18,13:59:22,14:27:03,NA,incomplete,6,shape,1,right,Blue_Triangle_Dots_2.jpg,Purple_Circle_Dots_1.jpg,Red_Triangle_Chess_3.jpg,right,723.2899999944493,true,NA,NA,NA,NA,NA,NA,NA,NA,true
v97vwj8g,3087lxlj7ptluqx9bvztb5ithyq0fq,3e47sobeyu9rlts9fl30yntejo7ic6,v97vwj8g,2020-0188,2020-11-18,13:59:22,14:27:03,NA,incomplete,7,shape,1,left,Blue_Triangle_Stripes_2.jpg,Green_Triangle_Chess_4.jpg,Purple_Star_Stripes_3.jpg,left,843.0800000205636,true,NA,NA,NA,NA,NA,NA,NA,NA,true
v97vwj8g,3087lxlj7ptluqx9bvztb5ithyq0fq,3e47sobeyu9rlts9fl30yntejo7ic6,v97vwj8g,2020-0188,2020-11-18,13:59:22,14:27:03,NA,incomplete,8,shape,1,left,Blue_Triangle_Chess_4.jpg,Red_Triangle_Grid_2.jpg,Green_Star_Chess_3.jpg,left,717.2049999935552,true,NA,NA,NA,NA,NA,NA,NA,NA,true
v97vwj8g,3087lxlj7ptluqx9bvztb5ithyq0fq,3e47sobeyu9rlts9fl30yntejo7ic6,v97vwj8g,2020-0188,2020-11-18,13:59:22,14:27:03,NA,incomplete,9,shape,0,left,Purple_Plus_Chess_4.jpg,Red_Plus_Stripes_2.jpg,Green_Triangle_Chess_3.jpg,left,780.2699999883771,true,NA,NA,NA,NA,NA,NA,NA,NA,true
v97vwj8g,3087lxlj7ptluqx9bvztb5ithyq0fq,3e47sobeyu9rlts9fl30yntejo7ic6,v97vwj8g,2020-0188,2020-11-18,13:59:22,14:27:03,NA,incomplete,10,shape,1,right,Purple_Triangle_Grid_1.jpg,Blue_Plus_Grid_2.jpg,Red_Triangle_Chess_4.jpg,right,887.2749999864027,true,NA,NA,NA,NA,NA,NA,NA,NA,true
v97vwj8g,3087lxlj7ptluqx9bvztb5ithyq0fq,3e47sobeyu9rlts9fl30yntejo7ic6,v97vwj8g,2020-0188,2020-11-18,13:59:22,14:27:03,NA,incomplete,11,shape,0,right,Purple_Plus_Grid_3.jpg,Red_Triangle_Grid_1.jpg,Blue_Plus_Dots_4.jpg,right,931.0449999757111,true,NA,NA,NA,NA,NA,NA,NA,NA,true
v97vwj8g,3087lxlj7ptluqx9bvztb5ithyq0fq,3e47sobeyu9rlts9fl30yntejo7ic6,v97vwj8g,2020-0188,2020-11-18,13:59:22,14:27:03,NA,incomplete,12,shape,1,left,Green_Star_Stripes_2.jpg,Red_Star_Grid_3.jpg,Purple_Plus_Stripes_1.jpg,left,1987.154999980703,true,NA,NA,NA,NA,NA,NA,NA,NA,true
v97vwj8g,3087lxlj7ptluqx9bvztb5ithyq0fq,3e47sobeyu9rlts9fl30yntejo7ic6,v97vwj8g,2020-0188,2020-11-18,13:59:22,14:27:03,NA,incomplete,13,shape,1,right,Red_Triangle_Stripes_1.jpg,Purple_Plus_Stripes_4.jpg,Blue_Triangle_Chess_3.jpg,right,1212.325000029523,true,NA,NA,NA,NA,NA,NA,NA,NA,true
v97vwj8g,3087lxlj7ptluqx9bvztb5ithyq0fq,3e47sobeyu9rlts9fl30yntejo7ic6,v97vwj8g,2020-0188,2020-11-18,13:59:22,14:27:03,NA,incomplete,14,shape,1,right,Blue_Star_Chess_1.jpg,Green_Plus_Chess_3.jpg,Purple_Star_Grid_4.jpg,right,1003.6349999718368,true,NA,NA,NA,NA,NA,NA,NA,NA,true
v97vwj8g,3087lxlj7ptluqx9bvztb5ithyq0fq,3e47sobeyu9rlts9fl30yntejo7ic6,v97vwj8g,2020-0188,2020-11-18,13:59:22,14:27:03,NA,incomplete,15,shape,1,left,Purple_Triangle_Chess_4.jpg,Red_Triangle_Grid_1.jpg,Green_Circle_Chess_3.jpg,left,1471.19000001112,true,NA,NA,NA,NA,NA,NA,NA,NA,true
v97vwj8g,3087lxlj7ptluqx9bvztb5ithyq0fq,3e47sobeyu9rlts9fl30yntejo7ic6,v97vwj8g,2020-0188,2020-11-18,13:59:22,14:27:03,NA,incomplete,16,shape,1,left,Blue_Triangle_Chess_4.jpg,Green_Triangle_Dots_3.jpg,Red_Circle_Chess_1.jpg,left,1175.9650000021793,true,NA,NA,NA,NA,NA,NA,NA,NA,true
v97vwj8g,3087lxlj7ptluqx9bvztb5ithyq0fq,3e47sobeyu9rlts9fl30yntejo7ic6,v97vwj8g,2020-0188,2020-11-18,13:59:22,14:27:03,NA,incomplete,17,shape,0,left,Red_Plus_Chess_3.jpg,Green_Plus_Stripes_2.jpg,Blue_Star_Chess_1.jpg,left,1149.2100000032224,true,NA,NA,NA,NA,NA,NA,NA,NA,true
v97vwj8g,3087lxlj7ptluqx9bvztb5ithyq0fq,3e47sobeyu9rlts9fl30yntejo7ic6,v97vwj8g,2020-0188,2020-11-18,13:59:22,14:27:03,NA,incomplete,18,shape,1,left,Purple_Triangle_Grid_2.jpg,Red_Triangle_Dots_1.jpg,Blue_Circle_Grid_4.jpg,left,1437.1350000146776,true,NA,NA,NA,NA,NA,NA,NA,NA,true
v97vwj8g,3087lxlj7ptluqx9bvztb5ithyq0fq,3e47sobeyu9rlts9fl30yntejo7ic6,v97vwj8g,2020-0188,2020-11-18,13:59:22,14:27:03,NA,incomplete,19,shape,1,right,Blue_Star_Grid_4.jpg,Red_Circle_Grid_2.jpg,Green_Star_Dots_1.jpg,right,1251.0600000387058,true,NA,NA,NA,NA,NA,NA,NA,NA,true
v97vwj8g,3087lxlj7ptluqx9bvztb5ithyq0fq,3e47sobeyu9rlts9fl30yntejo7ic6,v97vwj8g,2020-0188,2020-11-18,13:59:22,14:27:03,NA,incomplete,20,filling,0,left,Purple_Star_Stripes_1.jpg,Green_Triangle_Stripes_4.jpg,Red_Star_Chess_3.jpg,left,1435.8350000111386,true,NA,NA,NA,NA,NA,NA,NA,NA,true
v97vwj8g,3087lxlj7ptluqx9bvztb5ithyq0fq,3e47sobeyu9rlts9fl30yntejo7ic6,v97vwj8g,2020-0188,2020-11-18,13:59:22,14:27:03,NA,incomplete,21,filling,1,right,Green_Circle_Grid_4.jpg,Blue_Circle_Chess_2.jpg,Purple_Triangle_Grid_3.jpg,right,1929.149999981746,true,NA,NA,NA,NA,NA,NA,NA,NA,true
v97vwj8g,3087lxlj7ptluqx9bvztb5ithyq0fq,3e47sobeyu9rlts9fl30yntejo7ic6,v97vwj8g,2020-0188,2020-11-18,13:59:22,14:27:03,NA,incomplete,22,filling,1,left,Blue_Star_Chess_3.jpg,Red_Plus_Chess_1.jpg,Green_Star_Dots_2.jpg,left,1644.579999963753,true,NA,NA,NA,NA,NA,NA,NA,NA,true
v97vwj8g,3087lxlj7ptluqx9bvztb5ithyq0fq,3e47sobeyu9rlts9fl30yntejo7ic6,v97vwj8g,2020-0188,2020-11-18,13:59:22,14:27:03,NA,incomplete,23,filling,1,left,Red_Circle_Grid_4.jpg,Purple_Triangle_Grid_3.jpg,Blue_Circle_Dots_1.jpg,left,1220.1350000104867,true,NA,NA,NA,NA,NA,NA,NA,NA,true
v97vwj8g,3087lxlj7ptluqx9bvztb5ithyq0fq,3e47sobeyu9rlts9fl30yntejo7ic6,v97vwj8g,2020-0188,2020-11-18,13:59:22,14:27:03,NA,incomplete,24,filling,0,right,Green_Plus_Chess_4.jpg,Blue_Plus_Grid_1.jpg,Purple_Circle_Chess_2.jpg,right,1379.3650000006892,true,NA,NA,NA,NA,NA,NA,NA,NA,true
v97vwj8g,3087lxlj7ptluqx9bvztb5ithyq0fq,3e47sobeyu9rlts9fl30yntejo7ic6,v97vwj8g,2020-0188,2020-11-18,13:59:22,14:27:03,NA,incomplete,25,filling,1,right,Blue_Triangle_Chess_1.jpg,Green_Triangle_Grid_4.jpg,Purple_Star_Chess_3.jpg,right,1604.7200000029989,true,NA,NA,NA,NA,NA,NA,NA,NA,true
v97vwj8g,3087lxlj7ptluqx9bvztb5ithyq0fq,3e47sobeyu9rlts9fl30yntejo7ic6,v97vwj8g,2020-0188,2020-11-18,13:59:22,14:27:03,NA,incomplete,26,filling,1,left,Red_Plus_Dots_3.jpg,Blue_Star_Dots_1.jpg,Green_Plus_Grid_2.jpg,right,1535.600000002887,false,NA,NA,NA,NA,NA,NA,NA,NA,true
v97vwj8g,3087lxlj7ptluqx9bvztb5ithyq0fq,3e47sobeyu9rlts9fl30yntejo7ic6,v97vwj8g,2020-0188,2020-11-18,13:59:22,14:27:03,NA,incomplete,27,filling,1,left,Red_Circle_Dots_1.jpg,Blue_Plus_Dots_4.jpg,Purple_Circle_Chess_2.jpg,left,1439.7599999792874,true,NA,NA,NA,NA,NA,NA,NA,NA,true
v97vwj8g,3087lxlj7ptluqx9bvztb5ithyq0fq,3e47sobeyu9rlts9fl30yntejo7ic6,v97vwj8g,2020-0188,2020-11-18,13:59:22,14:27:03,NA,incomplete,28,filling,1,right,Blue_Triangle_Chess_4.jpg,Green_Triangle_Grid_3.jpg,Red_Circle_Chess_1.jpg,right,1315.5649999971502,true,NA,NA,NA,NA,NA,NA,NA,NA,true
v97vwj8g,3087lxlj7ptluqx9bvztb5ithyq0fq,3e47sobeyu9rlts9fl30yntejo7ic6,v97vwj8g,2020-0188,2020-11-18,13:59:22,14:27:03,NA,incomplete,29,filling,1,right,Purple_Star_Grid_3.jpg,Red_Star_Chess_4.jpg,Blue_Circle_Grid_1.jpg,right,1648.6300000105985,true,NA,NA,NA,NA,NA,NA,NA,NA,true
v97vwj8g,3087lxlj7ptluqx9bvztb5ithyq0fq,3e47sobeyu9rlts9fl30yntejo7ic6,v97vwj8g,2020-0188,2020-11-18,13:59:22,14:27:03,NA,incomplete,30,filling,1,right,Red_Star_Stripes_3.jpg,Blue_Star_Chess_4.jpg,Green_Triangle_Stripes_2.jpg,right,1601.8849999527447,true,NA,NA,NA,NA,NA,NA,NA,NA,true
v97vwj8g,3087lxlj7ptluqx9bvztb5ithyq0fq,3e47sobeyu9rlts9fl30yntejo7ic6,v97vwj8g,2020-0188,2020-11-18,13:59:22,14:27:03,NA,incomplete,31,filling,1,left,Purple_Circle_Stripes_4.jpg,Red_Star_Stripes_3.jpg,Blue_Circle_Chess_2.jpg,left,1278.565000044182,true,NA,NA,NA,NA,NA,NA,NA,NA,true
v97vwj8g,3087lxlj7ptluqx9bvztb5ithyq0fq,3e47sobeyu9rlts9fl30yntejo7ic6,v97vwj8g,2020-0188,2020-11-18,13:59:22,14:27:03,NA,incomplete,32,filling,1,left,Red_Plus_Grid_1.jpg,Blue_Triangle_Grid_4.jpg,Purple_Plus_Chess_3.jpg,left,1970.7150000031106,true,NA,NA,NA,NA,NA,NA,NA,NA,true
v97vwj8g,3087lxlj7ptluqx9bvztb5ithyq0fq,3e47sobeyu9rlts9fl30yntejo7ic6,v97vwj8g,2020-0188,2020-11-18,13:59:22,14:27:03,NA,incomplete,33,filling,0,left,Purple_Triangle_Dots_2.jpg,Red_Circle_Dots_1.jpg,Blue_Triangle_Grid_4.jpg,left,1859.6249999827705,true,NA,NA,NA,NA,NA,NA,NA,NA,true
v97vwj8g,3087lxlj7ptluqx9bvztb5ithyq0fq,3e47sobeyu9rlts9fl30yntejo7ic6,v97vwj8g,2020-0188,2020-11-18,13:59:22,14:27:03,NA,incomplete,34,filling,0,left,Purple_Plus_Chess_3.jpg,Green_Star_Chess_1.jpg,Blue_Plus_Grid_4.jpg,left,1874.4350000051782,true,NA,NA,NA,NA,NA,NA,NA,NA,true
v97vwj8g,3087lxlj7ptluqx9bvztb5ithyq0fq,3e47sobeyu9rlts9fl30yntejo7ic6,v97vwj8g,2020-0188,2020-11-18,13:59:22,14:27:03,NA,incomplete,35,filling,1,left,Green_Triangle_Grid_3.jpg,Blue_Star_Grid_4.jpg,Purple_Triangle_Chess_1.jpg,left,1749.279999989085,true,NA,NA,NA,NA,NA,NA,NA,NA,true
v97vwj8g,3087lxlj7ptluqx9bvztb5ithyq0fq,3e47sobeyu9rlts9fl30yntejo7ic6,v97vwj8g,2020-0188,2020-11-18,13:59:22,14:27:03,NA,incomplete,36,filling,1,right,Red_Triangle_Chess_3.jpg,Green_Triangle_Grid_4.jpg,Blue_Plus_Chess_1.jpg,right,1495.5700000282377,true,NA,NA,NA,NA,NA,NA,NA,NA,true
v97vwj8g,3087lxlj7ptluqx9bvztb5ithyq0fq,3e47sobeyu9rlts9fl30yntejo7ic6,v97vwj8g,2020-0188,2020-11-18,13:59:22,14:27:03,NA,incomplete,37,filling,1,right,Red_Circle_Stripes_2.jpg,Blue_Circle_Grid_3.jpg,Purple_Plus_Stripes_1.jpg,right,1319.4800000055693,true,NA,NA,NA,NA,NA,NA,NA,NA,true
v97vwj8g,3087lxlj7ptluqx9bvztb5ithyq0fq,3e47sobeyu9rlts9fl30yntejo7ic6,v97vwj8g,2020-0188,2020-11-18,13:59:22,14:27:03,NA,incomplete,38,filling,1,right,Blue_Circle_Dots_3.jpg,Green_Circle_Stripes_4.jpg,Red_Plus_Dots_1.jpg,right,1457.3400000226684,true,NA,NA,NA,NA,NA,NA,NA,NA,true
v97vwj8g,3087lxlj7ptluqx9bvztb5ithyq0fq,3e47sobeyu9rlts9fl30yntejo7ic6,v97vwj8g,2020-0188,2020-11-18,13:59:22,14:27:03,NA,incomplete,39,filling,0,right,Red_Star_Chess_3.jpg,Green_Star_Dots_2.jpg,Purple_Plus_Chess_1.jpg,right,1434.4549999805167,true,NA,NA,NA,NA,NA,NA,NA,NA,true
v97vwj8g,3087lxlj7ptluqx9bvztb5ithyq0fq,3e47sobeyu9rlts9fl30yntejo7ic6,v97vwj8g,2020-0188,2020-11-18,13:59:22,14:27:03,NA,incomplete,0,shape,1,left,Blue_Circle_Grid_2.jpg,Red_Circle_Stripes_1.jpg,Purple_Plus_Grid_4.jpg,none,0,false,high,NA,NA,NA,NA,NA,NA,NA,false
v97vwj8g,3087lxlj7ptluqx9bvztb5ithyq0fq,3e47sobeyu9rlts9fl30yntejo7ic6,v97vwj8g,2020-0188,2020-11-18,13:59:22,14:27:03,NA,incomplete,1,shape,1,left,Purple_Triangle_Stripes_3.jpg,Red_Triangle_Dots_2.jpg,Green_Circle_Stripes_1.jpg,left,1473.7500000046566,true,high,NA,NA,NA,NA,NA,NA,NA,false
v97vwj8g,3087lxlj7ptluqx9bvztb5ithyq0fq,3e47sobeyu9rlts9fl30yntejo7ic6,v97vwj8g,2020-0188,2020-11-18,13:59:22,14:27:03,NA,incomplete,2,shape,1,left,Blue_Plus_Dots_3.jpg,Red_Plus_Stripes_2.jpg,Green_Triangle_Dots_1.jpg,left,971.944999997504,true,high,NA,NA,NA,NA,NA,NA,NA,false
v97vwj8g,3087lxlj7ptluqx9bvztb5ithyq0fq,3e47sobeyu9rlts9fl30yntejo7ic6,v97vwj8g,2020-0188,2020-11-18,13:59:22,14:27:03,NA,incomplete,3,shape,0,right,Blue_Star_Dots_1.jpg,Green_Triangle_Dots_2.jpg,Purple_Star_Grid_3.jpg,right,807.0700000389479,true,high,NA,NA,NA,NA,NA,NA,NA,false
v97vwj8g,3087lxlj7ptluqx9bvztb5ithyq0fq,3e47sobeyu9rlts9fl30yntejo7ic6,v97vwj8g,2020-0188,2020-11-18,13:59:22,14:27:03,NA,incomplete,4,shape,1,left,Green_Circle_Chess_4.jpg,Purple_Circle_Grid_2.jpg,Blue_Plus_Chess_1.jpg,right,1709.2849999899045,false,high,NA,NA,NA,NA,NA,NA,NA,false
v97vwj8g,3087lxlj7ptluqx9bvztb5ithyq0fq,3e47sobeyu9rlts9fl30yntejo7ic6,v97vwj8g,2020-0188,2020-11-18,13:59:22,14:27:03,NA,incomplete,5,shape,1,left,Red_Triangle_Chess_2.jpg,Blue_Triangle_Stripes_3.jpg,Purple_Circle_Chess_1.jpg,left,1808.9150000014342,true,high,NA,NA,NA,NA,NA,NA,NA,false
v97vwj8g,3087lxlj7ptluqx9bvztb5ithyq0fq,3e47sobeyu9rlts9fl30yntejo7ic6,v97vwj8g,2020-0188,2020-11-18,13:59:22,14:27:03,NA,incomplete,6,shape,1,left,Purple_Plus_Dots_4.jpg,Green_Plus_Grid_1.jpg,Red_Star_Dots_3.jpg,left,1182.0549999829382,true,high,NA,NA,NA,NA,NA,NA,NA,false
v97vwj8g,3087lxlj7ptluqx9bvztb5ithyq0fq,3e47sobeyu9rlts9fl30yntejo7ic6,v97vwj8g,2020-0188,2020-11-18,13:59:22,14:27:03,NA,incomplete,7,shape,1,left,Green_Triangle_Grid_3.jpg,Purple_Triangle_Stripes_2.jpg,Red_Star_Grid_1.jpg,left,1305.1850000047125,true,high,NA,NA,NA,NA,NA,NA,NA,false
v97vwj8g,3087lxlj7ptluqx9bvztb5ithyq0fq,3e47sobeyu9rlts9fl30yntejo7ic6,v97vwj8g,2020-0188,2020-11-18,13:59:22,14:27:03,NA,incomplete,8,shape,1,right,Red_Circle_Chess_4.jpg,Green_Plus_Chess_2.jpg,Blue_Circle_Stripes_3.jpg,right,1350.7999999565072,true,high,NA,NA,NA,NA,NA,NA,NA,false
v97vwj8g,3087lxlj7ptluqx9bvztb5ithyq0fq,3e47sobeyu9rlts9fl30yntejo7ic6,v97vwj8g,2020-0188,2020-11-18,13:59:22,14:27:03,NA,incomplete,9,shape,1,right,Purple_Star_Dots_2.jpg,Green_Plus_Dots_3.jpg,Blue_Star_Chess_4.jpg,right,1157.6299999724142,true,high,NA,NA,NA,NA,NA,NA,NA,false
v97vwj8g,3087lxlj7ptluqx9bvztb5ithyq0fq,3e47sobeyu9rlts9fl30yntejo7ic6,v97vwj8g,2020-0188,2020-11-18,13:59:22,14:27:03,NA,incomplete,10,filling,1,left,Purple_Star_Dots_3.jpg,Red_Circle_Dots_2.jpg,Green_Star_Grid_1.jpg,right,1147.419999993872,false,high,NA,NA,NA,NA,NA,NA,NA,false
v97vwj8g,3087lxlj7ptluqx9bvztb5ithyq0fq,3e47sobeyu9rlts9fl30yntejo7ic6,v97vwj8g,2020-0188,2020-11-18,13:59:22,14:27:03,NA,incomplete,11,filling,1,left,Red_Circle_Dots_4.jpg,Blue_Triangle_Dots_2.jpg,Purple_Circle_Chess_3.jpg,right,1119.9350000242703,false,high,NA,NA,NA,NA,NA,NA,NA,false
v97vwj8g,3087lxlj7ptluqx9bvztb5ithyq0fq,3e47sobeyu9rlts9fl30yntejo7ic6,v97vwj8g,2020-0188,2020-11-18,13:59:22,14:27:03,NA,incomplete,12,filling,1,right,Green_Circle_Grid_1.jpg,Red_Circle_Dots_2.jpg,Purple_Plus_Grid_3.jpg,right,1509.0149999596179,true,high,NA,NA,NA,NA,NA,NA,NA,false
v97vwj8g,3087lxlj7ptluqx9bvztb5ithyq0fq,3e47sobeyu9rlts9fl30yntejo7ic6,v97vwj8g,2020-0188,2020-11-18,13:59:22,14:27:03,NA,incomplete,13,filling,1,right,Red_Plus_Stripes_4.jpg,Blue_Plus_Chess_3.jpg,Green_Circle_Stripes_2.jpg,left,1042.9500000318512,false,high,NA,NA,NA,NA,NA,NA,NA,false
v97vwj8g,3087lxlj7ptluqx9bvztb5ithyq0fq,3e47sobeyu9rlts9fl30yntejo7ic6,v97vwj8g,2020-0188,2020-11-18,13:59:22,14:27:03,NA,incomplete,14,filling,1,left,Blue_Plus_Stripes_2.jpg,Green_Star_Stripes_4.jpg,Red_Plus_Dots_3.jpg,right,1371.564999979455,false,high,NA,NA,NA,NA,NA,NA,NA,false
v97vwj8g,3087lxlj7ptluqx9bvztb5ithyq0fq,3e47sobeyu9rlts9fl30yntejo7ic6,v97vwj8g,2020-0188,2020-11-18,13:59:22,14:27:03,NA,incomplete,15,filling,1,left,Green_Star_Chess_1.jpg,Red_Plus_Chess_4.jpg,Purple_Star_Stripes_3.jpg,left,1129.4150000321679,true,high,NA,NA,NA,NA,NA,NA,NA,false
v97vwj8g,3087lxlj7ptluqx9bvztb5ithyq0fq,3e47sobeyu9rlts9fl30yntejo7ic6,v97vwj8g,2020-0188,2020-11-18,13:59:22,14:27:03,NA,incomplete,16,filling,0,left,Green_Plus_Grid_3.jpg,Purple_Triangle_Grid_1.jpg,Red_Plus_Stripes_4.jpg,right,939.0150000108406,false,high,NA,NA,NA,NA,NA,NA,NA,false
v97vwj8g,3087lxlj7ptluqx9bvztb5ithyq0fq,3e47sobeyu9rlts9fl30yntejo7ic6,v97vwj8g,2020-0188,2020-11-18,13:59:22,14:27:03,NA,incomplete,17,filling,1,right,Red_Triangle_Chess_4.jpg,Purple_Triangle_Grid_1.jpg,Green_Star_Chess_3.jpg,left,1410.805000050459,false,high,NA,NA,NA,NA,NA,NA,NA,false
v97vwj8g,3087lxlj7ptluqx9bvztb5ithyq0fq,3e47sobeyu9rlts9fl30yntejo7ic6,v97vwj8g,2020-0188,2020-11-18,13:59:22,14:27:03,NA,incomplete,18,filling,1,left,Red_Plus_Dots_2.jpg,Blue_Circle_Dots_4.jpg,Purple_Plus_Chess_3.jpg,right,1720.865000039339,false,high,NA,NA,NA,NA,NA,NA,NA,false
v97vwj8g,3087lxlj7ptluqx9bvztb5ithyq0fq,3e47sobeyu9rlts9fl30yntejo7ic6,v97vwj8g,2020-0188,2020-11-18,13:59:22,14:27:03,NA,incomplete,19,filling,0,left,Green_Star_Dots_3.jpg,Blue_Circle_Dots_4.jpg,Purple_Star_Stripes_1.jpg,right,1238.0899999989197,false,high,NA,NA,NA,NA,NA,NA,NA,false
v97vwj8g,3087lxlj7ptluqx9bvztb5ithyq0fq,3e47sobeyu9rlts9fl30yntejo7ic6,v97vwj8g,2020-0188,2020-11-18,13:59:22,14:27:03,NA,incomplete,20,shape,1,left,Green_Star_Dots_3.jpg,Red_Star_Stripes_1.jpg,Purple_Plus_Dots_4.jpg,left,1748.120000003837,true,high,NA,NA,NA,NA,NA,NA,NA,false
v97vwj8g,3087lxlj7ptluqx9bvztb5ithyq0fq,3e47sobeyu9rlts9fl30yntejo7ic6,v97vwj8g,2020-0188,2020-11-18,13:59:22,14:27:03,NA,incomplete,21,shape,0,right,Red_Triangle_Grid_4.jpg,Blue_Star_Grid_3.jpg,Purple_Triangle_Stripes_1.jpg,left,1907.820000022184,false,high,NA,NA,NA,NA,NA,NA,NA,false
v97vwj8g,3087lxlj7ptluqx9bvztb5ithyq0fq,3e47sobeyu9rlts9fl30yntejo7ic6,v97vwj8g,2020-0188,2020-11-18,13:59:22,14:27:03,NA,incomplete,22,shape,0,right,Purple_Circle_Chess_1.jpg,Blue_Star_Chess_4.jpg,Red_Circle_Stripes_3.jpg,right,1064.7350000217557,true,high,NA,NA,NA,NA,NA,NA,NA,false
v97vwj8g,3087lxlj7ptluqx9bvztb5ithyq0fq,3e47sobeyu9rlts9fl30yntejo7ic6,v97vwj8g,2020-0188,2020-11-18,13:59:22,14:27:03,NA,incomplete,23,shape,1,right,Blue_Star_Chess_1.jpg,Red_Triangle_Chess_3.jpg,Purple_Star_Stripes_2.jpg,right,1374.9599999864586,true,high,NA,NA,NA,NA,NA,NA,NA,false
v97vwj8g,3087lxlj7ptluqx9bvztb5ithyq0fq,3e47sobeyu9rlts9fl30yntejo7ic6,v97vwj8g,2020-0188,2020-11-18,13:59:22,14:27:03,NA,incomplete,24,shape,1,right,Purple_Triangle_Grid_2.jpg,Red_Circle_Grid_1.jpg,Green_Triangle_Stripes_4.jpg,right,1087.7650000038557,true,high,NA,NA,NA,NA,NA,NA,NA,false
v97vwj8g,3087lxlj7ptluqx9bvztb5ithyq0fq,3e47sobeyu9rlts9fl30yntejo7ic6,v97vwj8g,2020-0188,2020-11-18,13:59:22,14:27:03,NA,incomplete,25,shape,1,right,Red_Plus_Dots_2.jpg,Purple_Triangle_Dots_4.jpg,Blue_Plus_Stripes_3.jpg,right,1212.9599999752827,true,high,NA,NA,NA,NA,NA,NA,NA,false
v97vwj8g,3087lxlj7ptluqx9bvztb5ithyq0fq,3e47sobeyu9rlts9fl30yntejo7ic6,v97vwj8g,2020-0188,2020-11-18,13:59:22,14:27:03,NA,incomplete,26,shape,1,left,Green_Circle_Dots_4.jpg,Blue_Circle_Stripes_1.jpg,Purple_Triangle_Dots_3.jpg,left,946.9149999786168,true,high,NA,NA,NA,NA,NA,NA,NA,false
v97vwj8g,3087lxlj7ptluqx9bvztb5ithyq0fq,3e47sobeyu9rlts9fl30yntejo7ic6,v97vwj8g,2020-0188,2020-11-18,13:59:22,14:27:03,NA,incomplete,27,shape,1,right,Green_Circle_Stripes_2.jpg,Blue_Plus_Stripes_1.jpg,Purple_Circle_Dots_4.jpg,right,1423.2400000328198,true,high,NA,NA,NA,NA,NA,NA,NA,false
v97vwj8g,3087lxlj7ptluqx9bvztb5ithyq0fq,3e47sobeyu9rlts9fl30yntejo7ic6,v97vwj8g,2020-0188,2020-11-18,13:59:22,14:27:03,NA,incomplete,28,shape,1,left,Green_Star_Stripes_4.jpg,Purple_Star_Grid_3.jpg,Red_Plus_Stripes_2.jpg,right,1276.2849999708124,false,high,NA,NA,NA,NA,NA,NA,NA,false
v97vwj8g,3087lxlj7ptluqx9bvztb5ithyq0fq,3e47sobeyu9rlts9fl30yntejo7ic6,v97vwj8g,2020-0188,2020-11-18,13:59:22,14:27:03,NA,incomplete,29,shape,1,left,Red_Circle_Chess_2.jpg,Purple_Circle_Grid_4.jpg,Blue_Star_Chess_3.jpg,left,1142.3000000067987,true,high,NA,NA,NA,NA,NA,NA,NA,false
v97vwj8g,3087lxlj7ptluqx9bvztb5ithyq0fq,3e47sobeyu9rlts9fl30yntejo7ic6,v97vwj8g,2020-0188,2020-11-18,13:59:22,14:27:03,NA,incomplete,30,filling,1,right,Blue_Plus_Chess_4.jpg,Purple_Plus_Dots_3.jpg,Green_Star_Chess_2.jpg,right,1453.3250000094995,true,high,NA,NA,NA,NA,NA,NA,NA,false
v97vwj8g,3087lxlj7ptluqx9bvztb5ithyq0fq,3e47sobeyu9rlts9fl30yntejo7ic6,v97vwj8g,2020-0188,2020-11-18,13:59:22,14:27:03,NA,incomplete,31,filling,1,left,Red_Plus_Chess_3.jpg,Blue_Star_Chess_2.jpg,Green_Plus_Stripes_1.jpg,left,1634.7200000309385,true,high,NA,NA,NA,NA,NA,NA,NA,false
v97vwj8g,3087lxlj7ptluqx9bvztb5ithyq0fq,3e47sobeyu9rlts9fl30yntejo7ic6,v97vwj8g,2020-0188,2020-11-18,13:59:22,14:27:03,NA,incomplete,32,filling,0,left,Red_Plus_Dots_4.jpg,Blue_Triangle_Dots_3.jpg,Purple_Plus_Stripes_2.jpg,right,1060.1399999577552,false,high,NA,NA,NA,NA,NA,NA,NA,false
v97vwj8g,3087lxlj7ptluqx9bvztb5ithyq0fq,3e47sobeyu9rlts9fl30yntejo7ic6,v97vwj8g,2020-0188,2020-11-18,13:59:22,14:27:03,NA,incomplete,33,filling,1,left,Red_Plus_Grid_3.jpg,Blue_Circle_Grid_1.jpg,Purple_Plus_Chess_2.jpg,right,1291.8199999839999,false,high,NA,NA,NA,NA,NA,NA,NA,false
v97vwj8g,3087lxlj7ptluqx9bvztb5ithyq0fq,3e47sobeyu9rlts9fl30yntejo7ic6,v97vwj8g,2020-0188,2020-11-18,13:59:22,14:27:03,NA,incomplete,34,filling,1,right,Green_Triangle_Grid_1.jpg,Red_Triangle_Stripes_2.jpg,Blue_Star_Grid_3.jpg,left,1184.270000027027,false,high,NA,NA,NA,NA,NA,NA,NA,false
v97vwj8g,3087lxlj7ptluqx9bvztb5ithyq0fq,3e47sobeyu9rlts9fl30yntejo7ic6,v97vwj8g,2020-0188,2020-11-18,13:59:22,14:27:03,NA,incomplete,35,filling,1,right,Purple_Triangle_Chess_4.jpg,Blue_Triangle_Dots_2.jpg,Green_Circle_Chess_1.jpg,right,1011.3450000062585,true,high,NA,NA,NA,NA,NA,NA,NA,false
v97vwj8g,3087lxlj7ptluqx9bvztb5ithyq0fq,3e47sobeyu9rlts9fl30yntejo7ic6,v97vwj8g,2020-0188,2020-11-18,13:59:22,14:27:03,NA,incomplete,36,filling,1,left,Purple_Circle_Dots_3.jpg,Blue_Triangle_Dots_2.jpg,Red_Circle_Stripes_1.jpg,right,1361.9700000272132,false,high,NA,NA,NA,NA,NA,NA,NA,false
v97vwj8g,3087lxlj7ptluqx9bvztb5ithyq0fq,3e47sobeyu9rlts9fl30yntejo7ic6,v97vwj8g,2020-0188,2020-11-18,13:59:22,14:27:03,NA,incomplete,37,filling,0,right,Red_Plus_Chess_2.jpg,Green_Plus_Grid_3.jpg,Blue_Star_Chess_1.jpg,left,1427.8899999917485,false,high,NA,NA,NA,NA,NA,NA,NA,false
v97vwj8g,3087lxlj7ptluqx9bvztb5ithyq0fq,3e47sobeyu9rlts9fl30yntejo7ic6,v97vwj8g,2020-0188,2020-11-18,13:59:22,14:27:03,NA,incomplete,38,filling,0,right,Red_Plus_Grid_2.jpg,Green_Plus_Stripes_1.jpg,Blue_Circle_Grid_4.jpg,left,1357.1950000477955,false,high,NA,NA,NA,NA,NA,NA,NA,false
v97vwj8g,3087lxlj7ptluqx9bvztb5ithyq0fq,3e47sobeyu9rlts9fl30yntejo7ic6,v97vwj8g,2020-0188,2020-11-18,13:59:22,14:27:03,NA,incomplete,39,filling,1,right,Green_Circle_Grid_1.jpg,Blue_Circle_Dots_2.jpg,Red_Plus_Grid_4.jpg,right,1230.359999986831,true,high,NA,NA,NA,NA,NA,NA,NA,false
v97vwj8g,3087lxlj7ptluqx9bvztb5ithyq0fq,3e47sobeyu9rlts9fl30yntejo7ic6,v97vwj8g,2020-0188,2020-11-18,13:59:22,14:27:03,NA,incomplete,40,shape,1,right,Red_Star_Dots_3.jpg,Green_Plus_Dots_2.jpg,Blue_Star_Grid_1.jpg,left,1290.2849999954924,false,high,NA,NA,NA,NA,NA,NA,NA,false
v97vwj8g,3087lxlj7ptluqx9bvztb5ithyq0fq,3e47sobeyu9rlts9fl30yntejo7ic6,v97vwj8g,2020-0188,2020-11-18,13:59:22,14:27:03,NA,incomplete,41,shape,0,left,Green_Triangle_Chess_1.jpg,Purple_Triangle_Grid_3.jpg,Blue_Plus_Chess_2.jpg,left,1519.895000034012,true,high,NA,NA,NA,NA,NA,NA,NA,false
v97vwj8g,3087lxlj7ptluqx9bvztb5ithyq0fq,3e47sobeyu9rlts9fl30yntejo7ic6,v97vwj8g,2020-0188,2020-11-18,13:59:22,14:27:03,NA,incomplete,42,shape,0,right,Red_Triangle_Dots_3.jpg,Purple_Star_Dots_2.jpg,Green_Triangle_Stripes_4.jpg,left,1442.5399999599904,false,high,NA,NA,NA,NA,NA,NA,NA,false
v97vwj8g,3087lxlj7ptluqx9bvztb5ithyq0fq,3e47sobeyu9rlts9fl30yntejo7ic6,v97vwj8g,2020-0188,2020-11-18,13:59:22,14:27:03,NA,incomplete,43,shape,1,right,Blue_Star_Chess_1.jpg,Green_Circle_Chess_3.jpg,Red_Star_Grid_4.jpg,left,1411.1900000134483,false,high,NA,NA,NA,NA,NA,NA,NA,false
v97vwj8g,3087lxlj7ptluqx9bvztb5ithyq0fq,3e47sobeyu9rlts9fl30yntejo7ic6,v97vwj8g,2020-0188,2020-11-18,13:59:22,14:27:03,NA,incomplete,44,shape,1,left,Purple_Star_Stripes_2.jpg,Red_Star_Chess_1.jpg,Blue_Triangle_Stripes_4.jpg,left,1957.7799999970011,true,high,NA,NA,NA,NA,NA,NA,NA,false
v97vwj8g,3087lxlj7ptluqx9bvztb5ithyq0fq,3e47sobeyu9rlts9fl30yntejo7ic6,v97vwj8g,2020-0188,2020-11-18,13:59:22,14:27:03,NA,incomplete,45,shape,1,left,Red_Plus_Dots_1.jpg,Blue_Plus_Grid_3.jpg,Purple_Circle_Dots_2.jpg,right,1700.9700000053272,false,high,NA,NA,NA,NA,NA,NA,NA,false
v97vwj8g,3087lxlj7ptluqx9bvztb5ithyq0fq,3e47sobeyu9rlts9fl30yntejo7ic6,v97vwj8g,2020-0188,2020-11-18,13:59:22,14:27:03,NA,incomplete,46,shape,1,left,Purple_Circle_Grid_1.jpg,Green_Circle_Chess_2.jpg,Red_Triangle_Grid_3.jpg,left,1374.1399999707937,true,high,NA,NA,NA,NA,NA,NA,NA,false
v97vwj8g,3087lxlj7ptluqx9bvztb5ithyq0fq,3e47sobeyu9rlts9fl30yntejo7ic6,v97vwj8g,2020-0188,2020-11-18,13:59:22,14:27:03,NA,incomplete,47,shape,1,right,Red_Circle_Grid_2.jpg,Purple_Star_Grid_3.jpg,Blue_Circle_Chess_4.jpg,right,1846.3249999913387,true,high,NA,NA,NA,NA,NA,NA,NA,false
v97vwj8g,3087lxlj7ptluqx9bvztb5ithyq0fq,3e47sobeyu9rlts9fl30yntejo7ic6,v97vwj8g,2020-0188,2020-11-18,13:59:22,14:27:03,NA,incomplete,48,shape,1,right,Green_Triangle_Grid_4.jpg,Red_Star_Grid_1.jpg,Purple_Triangle_Chess_3.jpg,right,1000.3199999919161,true,high,NA,NA,NA,NA,NA,NA,NA,false
v97vwj8g,3087lxlj7ptluqx9bvztb5ithyq0fq,3e47sobeyu9rlts9fl30yntejo7ic6,v97vwj8g,2020-0188,2020-11-18,13:59:22,14:27:03,NA,incomplete,49,shape,1,right,Green_Star_Grid_1.jpg,Blue_Circle_Grid_4.jpg,Purple_Star_Chess_2.jpg,left,1304.5549999806099,false,high,NA,NA,NA,NA,NA,NA,NA,false
v97vwj8g,3087lxlj7ptluqx9bvztb5ithyq0fq,3e47sobeyu9rlts9fl30yntejo7ic6,v97vwj8g,2020-0188,2020-11-18,13:59:22,14:27:03,NA,incomplete,50,filling,1,right,Blue_Triangle_Stripes_4.jpg,Red_Triangle_Grid_3.jpg,Green_Star_Stripes_2.jpg,left,1047.5100000039674,false,high,NA,NA,NA,NA,NA,NA,NA,false
v97vwj8g,3087lxlj7ptluqx9bvztb5ithyq0fq,3e47sobeyu9rlts9fl30yntejo7ic6,v97vwj8g,2020-0188,2020-11-18,13:59:22,14:27:03,NA,incomplete,51,filling,1,right,Red_Circle_Grid_3.jpg,Green_Circle_Dots_2.jpg,Purple_Star_Grid_4.jpg,right,1321.2400000193156,true,high,NA,NA,NA,NA,NA,NA,NA,false
v97vwj8g,3087lxlj7ptluqx9bvztb5ithyq0fq,3e47sobeyu9rlts9fl30yntejo7ic6,v97vwj8g,2020-0188,2020-11-18,13:59:22,14:27:03,NA,incomplete,52,filling,1,left,Purple_Triangle_Stripes_3.jpg,Green_Plus_Stripes_4.jpg,Red_Triangle_Grid_1.jpg,left,1661.7449999903329,true,high,NA,NA,NA,NA,NA,NA,NA,false
v97vwj8g,3087lxlj7ptluqx9bvztb5ithyq0fq,3e47sobeyu9rlts9fl30yntejo7ic6,v97vwj8g,2020-0188,2020-11-18,13:59:22,14:27:03,NA,incomplete,53,filling,1,right,Blue_Plus_Chess_3.jpg,Green_Plus_Grid_2.jpg,Red_Star_Chess_4.jpg,right,1142.7850000327453,true,high,NA,NA,NA,NA,NA,NA,NA,false
v97vwj8g,3087lxlj7ptluqx9bvztb5ithyq0fq,3e47sobeyu9rlts9fl30yntejo7ic6,v97vwj8g,2020-0188,2020-11-18,13:59:22,14:27:03,NA,incomplete,54,filling,1,left,Red_Plus_Dots_3.jpg,Blue_Triangle_Dots_1.jpg,Purple_Plus_Stripes_2.jpg,left,1692.6150000072084,true,high,NA,NA,NA,NA,NA,NA,NA,false
v97vwj8g,3087lxlj7ptluqx9bvztb5ithyq0fq,3e47sobeyu9rlts9fl30yntejo7ic6,v97vwj8g,2020-0188,2020-11-18,13:59:22,14:27:03,NA,incomplete,55,filling,1,right,Purple_Circle_Grid_4.jpg,Blue_Circle_Stripes_3.jpg,Red_Plus_Grid_2.jpg,right,1541.590000037104,true,high,NA,NA,NA,NA,NA,NA,NA,false
v97vwj8g,3087lxlj7ptluqx9bvztb5ithyq0fq,3e47sobeyu9rlts9fl30yntejo7ic6,v97vwj8g,2020-0188,2020-11-18,13:59:22,14:27:03,NA,incomplete,56,filling,1,left,Blue_Circle_Stripes_3.jpg,Green_Triangle_Stripes_1.jpg,Red_Circle_Chess_2.jpg,left,1607.7949999598786,true,high,NA,NA,NA,NA,NA,NA,NA,false
v97vwj8g,3087lxlj7ptluqx9bvztb5ithyq0fq,3e47sobeyu9rlts9fl30yntejo7ic6,v97vwj8g,2020-0188,2020-11-18,13:59:22,14:27:03,NA,incomplete,57,filling,1,right,Blue_Circle_Chess_3.jpg,Red_Circle_Stripes_4.jpg,Green_Star_Chess_2.jpg,right,1330.3049999522045,true,high,NA,NA,NA,NA,NA,NA,NA,false
v97vwj8g,3087lxlj7ptluqx9bvztb5ithyq0fq,3e47sobeyu9rlts9fl30yntejo7ic6,v97vwj8g,2020-0188,2020-11-18,13:59:22,14:27:03,NA,incomplete,58,filling,1,right,Blue_Circle_Chess_3.jpg,Red_Circle_Grid_2.jpg,Purple_Triangle_Chess_4.jpg,right,1497.289999970235,true,high,NA,NA,NA,NA,NA,NA,NA,false
v97vwj8g,3087lxlj7ptluqx9bvztb5ithyq0fq,3e47sobeyu9rlts9fl30yntejo7ic6,v97vwj8g,2020-0188,2020-11-18,13:59:22,14:27:03,NA,incomplete,59,filling,0,left,Red_Triangle_Grid_3.jpg,Green_Plus_Grid_1.jpg,Blue_Triangle_Stripes_4.jpg,left,1242.4400000018068,true,high,NA,NA,NA,NA,NA,NA,NA,false
v97vwj8g,3087lxlj7ptluqx9bvztb5ithyq0fq,3e47sobeyu9rlts9fl30yntejo7ic6,v97vwj8g,2020-0188,2020-11-18,13:59:22,14:27:03,NA,incomplete,60,shape,1,left,Red_Star_Chess_2.jpg,Blue_Star_Grid_3.jpg,Green_Plus_Chess_1.jpg,left,1037.9250000114553,true,high,NA,NA,NA,NA,NA,NA,NA,false
v97vwj8g,3087lxlj7ptluqx9bvztb5ithyq0fq,3e47sobeyu9rlts9fl30yntejo7ic6,v97vwj8g,2020-0188,2020-11-18,13:59:22,14:27:03,NA,incomplete,61,shape,1,left,Green_Circle_Grid_3.jpg,Blue_Circle_Dots_1.jpg,Red_Plus_Grid_4.jpg,left,1668.3549999725074,true,high,NA,NA,NA,NA,NA,NA,NA,false
v97vwj8g,3087lxlj7ptluqx9bvztb5ithyq0fq,3e47sobeyu9rlts9fl30yntejo7ic6,v97vwj8g,2020-0188,2020-11-18,13:59:22,14:27:03,NA,incomplete,62,shape,1,right,Green_Circle_Grid_2.jpg,Purple_Star_Grid_4.jpg,Blue_Circle_Dots_1.jpg,right,1214.704999991227,true,high,NA,NA,NA,NA,NA,NA,NA,false
v97vwj8g,3087lxlj7ptluqx9bvztb5ithyq0fq,3e47sobeyu9rlts9fl30yntejo7ic6,v97vwj8g,2020-0188,2020-11-18,13:59:22,14:27:03,NA,incomplete,63,shape,1,right,Purple_Plus_Grid_1.jpg,Green_Circle_Grid_3.jpg,Blue_Plus_Stripes_4.jpg,right,1138.9199999975972,true,high,NA,NA,NA,NA,NA,NA,NA,false
v97vwj8g,3087lxlj7ptluqx9bvztb5ithyq0fq,3e47sobeyu9rlts9fl30yntejo7ic6,v97vwj8g,2020-0188,2020-11-18,13:59:22,14:27:03,NA,incomplete,64,shape,0,left,Red_Star_Chess_4.jpg,Blue_Star_Grid_1.jpg,Purple_Circle_Chess_3.jpg,left,1078.540000016801,true,high,NA,NA,NA,NA,NA,NA,NA,false
v97vwj8g,3087lxlj7ptluqx9bvztb5ithyq0fq,3e47sobeyu9rlts9fl30yntejo7ic6,v97vwj8g,2020-0188,2020-11-18,13:59:22,14:27:03,NA,incomplete,65,shape,0,right,Purple_Plus_Stripes_1.jpg,Red_Star_Stripes_3.jpg,Blue_Plus_Chess_2.jpg,right,1870.215000002645,true,high,NA,NA,NA,NA,NA,NA,NA,false
v97vwj8g,3087lxlj7ptluqx9bvztb5ithyq0fq,3e47sobeyu9rlts9fl30yntejo7ic6,v97vwj8g,2020-0188,2020-11-18,13:59:22,14:27:03,NA,incomplete,66,shape,1,left,Green_Triangle_Grid_4.jpg,Red_Triangle_Chess_1.jpg,Blue_Plus_Grid_2.jpg,right,1394.0000000293367,false,high,NA,NA,NA,NA,NA,NA,NA,false
v97vwj8g,3087lxlj7ptluqx9bvztb5ithyq0fq,3e47sobeyu9rlts9fl30yntejo7ic6,v97vwj8g,2020-0188,2020-11-18,13:59:22,14:27:03,NA,incomplete,67,shape,1,right,Green_Circle_Chess_1.jpg,Blue_Star_Chess_4.jpg,Red_Circle_Grid_2.jpg,right,1884.8399999551475,true,high,NA,NA,NA,NA,NA,NA,NA,false
v97vwj8g,3087lxlj7ptluqx9bvztb5ithyq0fq,3e47sobeyu9rlts9fl30yntejo7ic6,v97vwj8g,2020-0188,2020-11-18,13:59:22,14:27:03,NA,incomplete,68,shape,1,left,Purple_Plus_Grid_4.jpg,Green_Plus_Dots_1.jpg,Blue_Circle_Grid_2.jpg,left,904.5500000356697,true,high,NA,NA,NA,NA,NA,NA,NA,false
v97vwj8g,3087lxlj7ptluqx9bvztb5ithyq0fq,3e47sobeyu9rlts9fl30yntejo7ic6,v97vwj8g,2020-0188,2020-11-18,13:59:22,14:27:03,NA,incomplete,69,shape,0,right,Green_Circle_Chess_3.jpg,Red_Plus_Chess_4.jpg,Purple_Circle_Dots_1.jpg,right,1197.020000021439,true,high,NA,NA,NA,NA,NA,NA,NA,false
v97vwj8g,3087lxlj7ptluqx9bvztb5ithyq0fq,3e47sobeyu9rlts9fl30yntejo7ic6,v97vwj8g,2020-0188,2020-11-18,13:59:22,14:27:03,NA,incomplete,70,filling,1,left,Green_Plus_Grid_2.jpg,Purple_Star_Grid_3.jpg,Red_Plus_Stripes_1.jpg,none,0,false,high,NA,NA,NA,NA,NA,NA,NA,false
v97vwj8g,3087lxlj7ptluqx9bvztb5ithyq0fq,3e47sobeyu9rlts9fl30yntejo7ic6,v97vwj8g,2020-0188,2020-11-18,13:59:22,14:27:03,NA,incomplete,71,filling,0,right,Blue_Circle_Stripes_4.jpg,Green_Circle_Grid_3.jpg,Red_Triangle_Stripes_2.jpg,right,1070.6499999505468,true,high,NA,NA,NA,NA,NA,NA,NA,false
v97vwj8g,3087lxlj7ptluqx9bvztb5ithyq0fq,3e47sobeyu9rlts9fl30yntejo7ic6,v97vwj8g,2020-0188,2020-11-18,13:59:22,14:27:03,NA,incomplete,72,filling,1,left,Green_Star_Chess_2.jpg,Purple_Plus_Chess_4.jpg,Red_Star_Stripes_3.jpg,right,1227.0450000069104,false,high,NA,NA,NA,NA,NA,NA,NA,false
v97vwj8g,3087lxlj7ptluqx9bvztb5ithyq0fq,3e47sobeyu9rlts9fl30yntejo7ic6,v97vwj8g,2020-0188,2020-11-18,13:59:22,14:27:03,NA,incomplete,73,filling,1,right,Green_Circle_Dots_1.jpg,Red_Circle_Stripes_2.jpg,Blue_Plus_Dots_3.jpg,right,1303.6800000118092,true,high,NA,NA,NA,NA,NA,NA,NA,false
v97vwj8g,3087lxlj7ptluqx9bvztb5ithyq0fq,3e47sobeyu9rlts9fl30yntejo7ic6,v97vwj8g,2020-0188,2020-11-18,13:59:22,14:27:03,NA,incomplete,74,filling,1,left,Red_Circle_Dots_4.jpg,Blue_Plus_Dots_1.jpg,Purple_Circle_Grid_3.jpg,left,1279.4550000107847,true,high,NA,NA,NA,NA,NA,NA,NA,false
v97vwj8g,3087lxlj7ptluqx9bvztb5ithyq0fq,3e47sobeyu9rlts9fl30yntejo7ic6,v97vwj8g,2020-0188,2020-11-18,13:59:22,14:27:03,NA,incomplete,75,filling,0,right,Purple_Circle_Grid_4.jpg,Red_Circle_Stripes_2.jpg,Green_Star_Grid_3.jpg,right,1224.3449999950826,true,high,NA,NA,NA,NA,NA,NA,NA,false
v97vwj8g,3087lxlj7ptluqx9bvztb5ithyq0fq,3e47sobeyu9rlts9fl30yntejo7ic6,v97vwj8g,2020-0188,2020-11-18,13:59:22,14:27:03,NA,incomplete,76,filling,0,right,Purple_Plus_Chess_2.jpg,Red_Plus_Dots_1.jpg,Blue_Triangle_Chess_4.jpg,left,1192.174999974668,false,high,NA,NA,NA,NA,NA,NA,NA,false
v97vwj8g,3087lxlj7ptluqx9bvztb5ithyq0fq,3e47sobeyu9rlts9fl30yntejo7ic6,v97vwj8g,2020-0188,2020-11-18,13:59:22,14:27:03,NA,incomplete,77,filling,1,left,Green_Star_Grid_3.jpg,Purple_Plus_Grid_1.jpg,Blue_Star_Chess_4.jpg,right,833.4299999987707,false,high,NA,NA,NA,NA,NA,NA,NA,false
v97vwj8g,3087lxlj7ptluqx9bvztb5ithyq0fq,3e47sobeyu9rlts9fl30yntejo7ic6,v97vwj8g,2020-0188,2020-11-18,13:59:22,14:27:03,NA,incomplete,78,filling,1,left,Purple_Circle_Chess_4.jpg,Red_Plus_Chess_3.jpg,Green_Circle_Dots_1.jpg,left,1230.7349999900907,true,high,NA,NA,NA,NA,NA,NA,NA,false
v97vwj8g,3087lxlj7ptluqx9bvztb5ithyq0fq,3e47sobeyu9rlts9fl30yntejo7ic6,v97vwj8g,2020-0188,2020-11-18,13:59:22,14:27:03,NA,incomplete,79,filling,1,right,Blue_Triangle_Grid_3.jpg,Red_Triangle_Stripes_2.jpg,Purple_Plus_Grid_4.jpg,right,1318.715000001248,true,high,NA,NA,NA,NA,NA,NA,NA,false
v97vwj8g,3087lxlj7ptluqx9bvztb5ithyq0fq,3e47sobeyu9rlts9fl30yntejo7ic6,v97vwj8g,2020-0188,2020-11-18,13:59:22,14:27:03,NA,incomplete,80,shape,0,left,Blue_Triangle_Chess_4.jpg,Green_Triangle_Stripes_2.jpg,Red_Circle_Chess_3.jpg,right,1128.0249999836087,false,high,NA,NA,NA,NA,NA,NA,NA,false
v97vwj8g,3087lxlj7ptluqx9bvztb5ithyq0fq,3e47sobeyu9rlts9fl30yntejo7ic6,v97vwj8g,2020-0188,2020-11-18,13:59:22,14:27:03,NA,incomplete,81,shape,1,right,Blue_Circle_Stripes_2.jpg,Purple_Triangle_Stripes_1.jpg,Green_Circle_Chess_3.jpg,left,1019.9049999937415,false,high,NA,NA,NA,NA,NA,NA,NA,false
v97vwj8g,3087lxlj7ptluqx9bvztb5ithyq0fq,3e47sobeyu9rlts9fl30yntejo7ic6,v97vwj8g,2020-0188,2020-11-18,13:59:22,14:27:03,NA,incomplete,82,shape,1,right,Blue_Triangle_Dots_2.jpg,Red_Plus_Dots_3.jpg,Purple_Triangle_Chess_4.jpg,right,1106.7449999973178,true,high,NA,NA,NA,NA,NA,NA,NA,false
v97vwj8g,3087lxlj7ptluqx9bvztb5ithyq0fq,3e47sobeyu9rlts9fl30yntejo7ic6,v97vwj8g,2020-0188,2020-11-18,13:59:22,14:27:03,NA,incomplete,83,shape,0,right,Red_Circle_Dots_1.jpg,Blue_Plus_Dots_2.jpg,Purple_Circle_Grid_4.jpg,right,887.7800000482239,true,high,NA,NA,NA,NA,NA,NA,NA,false
v97vwj8g,3087lxlj7ptluqx9bvztb5ithyq0fq,3e47sobeyu9rlts9fl30yntejo7ic6,v97vwj8g,2020-0188,2020-11-18,13:59:22,14:27:03,NA,incomplete,84,shape,1,left,Red_Triangle_Dots_3.jpg,Purple_Triangle_Stripes_2.jpg,Green_Plus_Dots_4.jpg,right,1444.1250000381842,false,high,NA,NA,NA,NA,NA,NA,NA,false
v97vwj8g,3087lxlj7ptluqx9bvztb5ithyq0fq,3e47sobeyu9rlts9fl30yntejo7ic6,v97vwj8g,2020-0188,2020-11-18,13:59:22,14:27:03,NA,incomplete,85,shape,1,left,Green_Plus_Grid_2.jpg,Blue_Plus_Chess_3.jpg,Purple_Circle_Grid_1.jpg,left,1174.5300000184216,true,high,NA,NA,NA,NA,NA,NA,NA,false
v97vwj8g,3087lxlj7ptluqx9bvztb5ithyq0fq,3e47sobeyu9rlts9fl30yntejo7ic6,v97vwj8g,2020-0188,2020-11-18,13:59:22,14:27:03,NA,incomplete,86,shape,0,left,Purple_Plus_Grid_3.jpg,Green_Plus_Chess_2.jpg,Blue_Triangle_Grid_4.jpg,left,915.134999959264,true,high,NA,NA,NA,NA,NA,NA,NA,false
v97vwj8g,3087lxlj7ptluqx9bvztb5ithyq0fq,3e47sobeyu9rlts9fl30yntejo7ic6,v97vwj8g,2020-0188,2020-11-18,13:59:22,14:27:03,NA,incomplete,87,shape,1,right,Red_Star_Grid_1.jpg,Blue_Circle_Grid_4.jpg,Green_Star_Dots_3.jpg,right,1068.9999999594875,true,high,NA,NA,NA,NA,NA,NA,NA,false
v97vwj8g,3087lxlj7ptluqx9bvztb5ithyq0fq,3e47sobeyu9rlts9fl30yntejo7ic6,v97vwj8g,2020-0188,2020-11-18,13:59:22,14:27:03,NA,incomplete,88,shape,1,right,Blue_Triangle_Stripes_3.jpg,Purple_Star_Stripes_2.jpg,Red_Triangle_Dots_4.jpg,right,1023.7900000065565,true,high,NA,NA,NA,NA,NA,NA,NA,false
v97vwj8g,3087lxlj7ptluqx9bvztb5ithyq0fq,3e47sobeyu9rlts9fl30yntejo7ic6,v97vwj8g,2020-0188,2020-11-18,13:59:22,14:27:03,NA,incomplete,89,shape,1,left,Blue_Plus_Stripes_4.jpg,Red_Plus_Grid_1.jpg,Green_Triangle_Stripes_2.jpg,left,893.4250000165775,true,high,NA,NA,NA,NA,NA,NA,NA,false
v97vwj8g,3087lxlj7ptluqx9bvztb5ithyq0fq,3e47sobeyu9rlts9fl30yntejo7ic6,v97vwj8g,2020-0188,2020-11-18,13:59:22,14:27:03,NA,incomplete,90,filling,1,right,Purple_Star_Stripes_3.jpg,Green_Star_Chess_4.jpg,Blue_Triangle_Stripes_1.jpg,left,1005.7599999709055,false,high,NA,NA,NA,NA,NA,NA,NA,false
v97vwj8g,3087lxlj7ptluqx9bvztb5ithyq0fq,3e47sobeyu9rlts9fl30yntejo7ic6,v97vwj8g,2020-0188,2020-11-18,13:59:22,14:27:03,NA,incomplete,91,filling,1,right,Green_Plus_Chess_2.jpg,Purple_Plus_Dots_3.jpg,Red_Circle_Chess_4.jpg,right,1139.7399999550544,true,high,NA,NA,NA,NA,NA,NA,NA,false
v97vwj8g,3087lxlj7ptluqx9bvztb5ithyq0fq,3e47sobeyu9rlts9fl30yntejo7ic6,v97vwj8g,2020-0188,2020-11-18,13:59:22,14:27:03,NA,incomplete,92,filling,1,left,Red_Star_Stripes_2.jpg,Green_Circle_Stripes_4.jpg,Purple_Star_Chess_1.jpg,left,1340.9400000236928,true,high,NA,NA,NA,NA,NA,NA,NA,false
v97vwj8g,3087lxlj7ptluqx9bvztb5ithyq0fq,3e47sobeyu9rlts9fl30yntejo7ic6,v97vwj8g,2020-0188,2020-11-18,13:59:22,14:27:03,NA,incomplete,93,filling,1,right,Red_Circle_Stripes_2.jpg,Purple_Circle_Chess_3.jpg,Blue_Triangle_Stripes_1.jpg,right,1083.2049999735318,true,high,NA,NA,NA,NA,NA,NA,NA,false
v97vwj8g,3087lxlj7ptluqx9bvztb5ithyq0fq,3e47sobeyu9rlts9fl30yntejo7ic6,v97vwj8g,2020-0188,2020-11-18,13:59:22,14:27:03,NA,incomplete,94,filling,1,left,Purple_Triangle_Dots_4.jpg,Green_Circle_Dots_1.jpg,Red_Triangle_Grid_3.jpg,left,1140.4350000084378,true,high,NA,NA,NA,NA,NA,NA,NA,false
v97vwj8g,3087lxlj7ptluqx9bvztb5ithyq0fq,3e47sobeyu9rlts9fl30yntejo7ic6,v97vwj8g,2020-0188,2020-11-18,13:59:22,14:27:03,NA,incomplete,95,filling,1,right,Red_Triangle_Dots_1.jpg,Purple_Triangle_Grid_4.jpg,Green_Circle_Dots_3.jpg,right,976.7250000149943,true,high,NA,NA,NA,NA,NA,NA,NA,false
v97vwj8g,3087lxlj7ptluqx9bvztb5ithyq0fq,3e47sobeyu9rlts9fl30yntejo7ic6,v97vwj8g,2020-0188,2020-11-18,13:59:22,14:27:03,NA,incomplete,96,filling,1,left,Blue_Circle_Chess_1.jpg,Purple_Triangle_Chess_4.jpg,Green_Circle_Stripes_2.jpg,left,1123.3500000089407,true,high,NA,NA,NA,NA,NA,NA,NA,false
v97vwj8g,3087lxlj7ptluqx9bvztb5ithyq0fq,3e47sobeyu9rlts9fl30yntejo7ic6,v97vwj8g,2020-0188,2020-11-18,13:59:22,14:27:03,NA,incomplete,97,filling,1,left,Red_Circle_Dots_3.jpg,Blue_Triangle_Dots_2.jpg,Purple_Circle_Stripes_1.jpg,left,1197.0449999789707,true,high,NA,NA,NA,NA,NA,NA,NA,false
v97vwj8g,3087lxlj7ptluqx9bvztb5ithyq0fq,3e47sobeyu9rlts9fl30yntejo7ic6,v97vwj8g,2020-0188,2020-11-18,13:59:22,14:27:03,NA,incomplete,98,filling,1,left,Red_Plus_Stripes_3.jpg,Purple_Triangle_Stripes_4.jpg,Green_Plus_Chess_2.jpg,left,1178.974999987986,true,high,NA,NA,NA,NA,NA,NA,NA,false
v97vwj8g,3087lxlj7ptluqx9bvztb5ithyq0fq,3e47sobeyu9rlts9fl30yntejo7ic6,v97vwj8g,2020-0188,2020-11-18,13:59:22,14:27:03,NA,incomplete,99,filling,1,left,Blue_Circle_Stripes_4.jpg,Purple_Star_Stripes_1.jpg,Green_Circle_Dots_3.jpg,left,1444.3399999872781,true,high,NA,NA,NA,NA,NA,NA,NA,false
v97vwj8g,3087lxlj7ptluqx9bvztb5ithyq0fq,3e47sobeyu9rlts9fl30yntejo7ic6,v97vwj8g,2020-0188,2020-11-18,13:59:22,14:27:03,NA,incomplete,100,shape,1,left,Blue_Triangle_Chess_2.jpg,Purple_Triangle_Grid_4.jpg,Green_Plus_Chess_1.jpg,right,1106.134999950882,false,high,NA,NA,NA,NA,NA,NA,NA,false
v97vwj8g,3087lxlj7ptluqx9bvztb5ithyq0fq,3e47sobeyu9rlts9fl30yntejo7ic6,v97vwj8g,2020-0188,2020-11-18,13:59:22,14:27:03,NA,incomplete,101,shape,1,left,Red_Plus_Dots_3.jpg,Green_Plus_Stripes_2.jpg,Blue_Circle_Dots_4.jpg,left,1078.269999998156,true,high,NA,NA,NA,NA,NA,NA,NA,false
v97vwj8g,3087lxlj7ptluqx9bvztb5ithyq0fq,3e47sobeyu9rlts9fl30yntejo7ic6,v97vwj8g,2020-0188,2020-11-18,13:59:22,14:27:03,NA,incomplete,102,shape,1,right,Green_Plus_Dots_4.jpg,Purple_Triangle_Dots_3.jpg,Blue_Plus_Chess_1.jpg,right,1085.1800000527874,true,high,NA,NA,NA,NA,NA,NA,NA,false
v97vwj8g,3087lxlj7ptluqx9bvztb5ithyq0fq,3e47sobeyu9rlts9fl30yntejo7ic6,v97vwj8g,2020-0188,2020-11-18,13:59:22,14:27:03,NA,incomplete,103,shape,1,right,Red_Circle_Chess_2.jpg,Green_Plus_Chess_3.jpg,Purple_Circle_Stripes_4.jpg,left,1123.4849999891594,false,high,NA,NA,NA,NA,NA,NA,NA,false
v97vwj8g,3087lxlj7ptluqx9bvztb5ithyq0fq,3e47sobeyu9rlts9fl30yntejo7ic6,v97vwj8g,2020-0188,2020-11-18,13:59:22,14:27:03,NA,incomplete,104,shape,1,right,Red_Triangle_Grid_4.jpg,Green_Circle_Grid_1.jpg,Blue_Triangle_Stripes_2.jpg,left,1482.6900000334717,false,high,NA,NA,NA,NA,NA,NA,NA,false
v97vwj8g,3087lxlj7ptluqx9bvztb5ithyq0fq,3e47sobeyu9rlts9fl30yntejo7ic6,v97vwj8g,2020-0188,2020-11-18,13:59:22,14:27:03,NA,incomplete,105,shape,1,right,Red_Star_Chess_2.jpg,Blue_Triangle_Chess_1.jpg,Purple_Star_Stripes_3.jpg,right,878.194999997504,true,high,NA,NA,NA,NA,NA,NA,NA,false
v97vwj8g,3087lxlj7ptluqx9bvztb5ithyq0fq,3e47sobeyu9rlts9fl30yntejo7ic6,v97vwj8g,2020-0188,2020-11-18,13:59:22,14:27:03,NA,incomplete,106,shape,1,right,Red_Circle_Grid_3.jpg,Green_Plus_Grid_2.jpg,Purple_Circle_Dots_4.jpg,right,1062.3450000421144,true,high,NA,NA,NA,NA,NA,NA,NA,false
v97vwj8g,3087lxlj7ptluqx9bvztb5ithyq0fq,3e47sobeyu9rlts9fl30yntejo7ic6,v97vwj8g,2020-0188,2020-11-18,13:59:22,14:27:03,NA,incomplete,107,shape,0,right,Purple_Circle_Chess_2.jpg,Red_Triangle_Chess_4.jpg,Blue_Circle_Grid_3.jpg,right,1320.7500000135042,true,high,NA,NA,NA,NA,NA,NA,NA,false
v97vwj8g,3087lxlj7ptluqx9bvztb5ithyq0fq,3e47sobeyu9rlts9fl30yntejo7ic6,v97vwj8g,2020-0188,2020-11-18,13:59:22,14:27:03,NA,incomplete,108,shape,1,right,Purple_Star_Chess_3.jpg,Blue_Plus_Chess_2.jpg,Green_Star_Dots_4.jpg,left,1419.9399999924935,false,high,NA,NA,NA,NA,NA,NA,NA,false
v97vwj8g,3087lxlj7ptluqx9bvztb5ithyq0fq,3e47sobeyu9rlts9fl30yntejo7ic6,v97vwj8g,2020-0188,2020-11-18,13:59:22,14:27:03,NA,incomplete,109,shape,1,right,Red_Triangle_Stripes_2.jpg,Blue_Plus_Stripes_1.jpg,Green_Triangle_Grid_3.jpg,right,1495.5999999656342,true,high,NA,NA,NA,NA,NA,NA,NA,false
v97vwj8g,3087lxlj7ptluqx9bvztb5ithyq0fq,3e47sobeyu9rlts9fl30yntejo7ic6,v97vwj8g,2020-0188,2020-11-18,13:59:22,14:27:03,NA,incomplete,110,filling,1,left,Red_Plus_Dots_4.jpg,Green_Circle_Dots_2.jpg,Purple_Plus_Grid_1.jpg,right,1110.5949999764562,false,high,NA,NA,NA,NA,NA,NA,NA,false
v97vwj8g,3087lxlj7ptluqx9bvztb5ithyq0fq,3e47sobeyu9rlts9fl30yntejo7ic6,v97vwj8g,2020-0188,2020-11-18,13:59:22,14:27:03,NA,incomplete,111,filling,0,right,Green_Circle_Chess_4.jpg,Red_Circle_Stripes_2.jpg,Blue_Plus_Chess_3.jpg,right,1521.7850000481121,true,high,NA,NA,NA,NA,NA,NA,NA,false
v97vwj8g,3087lxlj7ptluqx9bvztb5ithyq0fq,3e47sobeyu9rlts9fl30yntejo7ic6,v97vwj8g,2020-0188,2020-11-18,13:59:22,14:27:03,NA,incomplete,112,filling,1,right,Green_Star_Dots_4.jpg,Blue_Star_Chess_2.jpg,Purple_Plus_Dots_1.jpg,left,964.0100000542589,false,high,NA,NA,NA,NA,NA,NA,NA,false
v97vwj8g,3087lxlj7ptluqx9bvztb5ithyq0fq,3e47sobeyu9rlts9fl30yntejo7ic6,v97vwj8g,2020-0188,2020-11-18,13:59:22,14:27:03,NA,incomplete,113,filling,0,left,Green_Circle_Dots_1.jpg,Purple_Plus_Dots_3.jpg,Blue_Circle_Stripes_4.jpg,left,1268.709999974817,true,high,NA,NA,NA,NA,NA,NA,NA,false
v97vwj8g,3087lxlj7ptluqx9bvztb5ithyq0fq,3e47sobeyu9rlts9fl30yntejo7ic6,v97vwj8g,2020-0188,2020-11-18,13:59:22,14:27:03,NA,incomplete,114,filling,1,right,Green_Star_Dots_1.jpg,Red_Star_Stripes_2.jpg,Purple_Plus_Dots_3.jpg,left,1212.195000029169,false,high,NA,NA,NA,NA,NA,NA,NA,false
v97vwj8g,3087lxlj7ptluqx9bvztb5ithyq0fq,3e47sobeyu9rlts9fl30yntejo7ic6,v97vwj8g,2020-0188,2020-11-18,13:59:22,14:27:03,NA,incomplete,115,filling,1,right,Blue_Triangle_Stripes_1.jpg,Red_Triangle_Chess_2.jpg,Green_Star_Stripes_4.jpg,none,0,false,high,NA,NA,NA,NA,NA,NA,NA,false
v97vwj8g,3087lxlj7ptluqx9bvztb5ithyq0fq,3e47sobeyu9rlts9fl30yntejo7ic6,v97vwj8g,2020-0188,2020-11-18,13:59:22,14:27:03,NA,incomplete,116,filling,1,right,Blue_Star_Grid_2.jpg,Green_Star_Dots_1.jpg,Red_Triangle_Grid_3.jpg,left,1318.1399999884889,false,high,NA,NA,NA,NA,NA,NA,NA,false
v97vwj8g,3087lxlj7ptluqx9bvztb5ithyq0fq,3e47sobeyu9rlts9fl30yntejo7ic6,v97vwj8g,2020-0188,2020-11-18,13:59:22,14:27:03,NA,incomplete,117,filling,0,left,Green_Plus_Chess_2.jpg,Red_Triangle_Chess_4.jpg,Blue_Plus_Stripes_1.jpg,right,983.8500000187196,false,high,NA,NA,NA,NA,NA,NA,NA,false
v97vwj8g,3087lxlj7ptluqx9bvztb5ithyq0fq,3e47sobeyu9rlts9fl30yntejo7ic6,v97vwj8g,2020-0188,2020-11-18,13:59:22,14:27:03,NA,incomplete,118,filling,1,right,Purple_Triangle_Dots_3.jpg,Red_Triangle_Chess_2.jpg,Green_Circle_Dots_4.jpg,left,1073.050000006333,false,high,NA,NA,NA,NA,NA,NA,NA,false
v97vwj8g,3087lxlj7ptluqx9bvztb5ithyq0fq,3e47sobeyu9rlts9fl30yntejo7ic6,v97vwj8g,2020-0188,2020-11-18,13:59:22,14:27:03,NA,incomplete,119,filling,1,right,Purple_Star_Dots_1.jpg,Red_Star_Grid_2.jpg,Green_Plus_Dots_3.jpg,right,1497.0999999786727,true,high,NA,NA,NA,NA,NA,NA,NA,false
v97vwj8g,3087lxlj7ptluqx9bvztb5ithyq0fq,3e47sobeyu9rlts9fl30yntejo7ic6,v97vwj8g,2020-0188,2020-11-18,13:59:22,14:27:03,NA,incomplete,120,color,0,right,Purple_Circle_Chess_4.jpg,Blue_Plus_Stripes_4.jpg,Purple_Star_Dots_2.jpg,right,1429.1599999996834,true,high,NA,NA,NA,NA,NA,NA,NA,false
v97vwj8g,3087lxlj7ptluqx9bvztb5ithyq0fq,3e47sobeyu9rlts9fl30yntejo7ic6,v97vwj8g,2020-0188,2020-11-18,13:59:22,14:27:03,NA,incomplete,121,color,1,left,Red_Triangle_Chess_1.jpg,Red_Star_Stripes_3.jpg,Blue_Circle_Grid_1.jpg,left,993.8550000078976,true,high,NA,NA,NA,NA,NA,NA,NA,false
v97vwj8g,3087lxlj7ptluqx9bvztb5ithyq0fq,3e47sobeyu9rlts9fl30yntejo7ic6,v97vwj8g,2020-0188,2020-11-18,13:59:22,14:27:03,NA,incomplete,122,color,0,right,Blue_Circle_Chess_2.jpg,Green_Triangle_Dots_2.jpg,Blue_Plus_Stripes_3.jpg,right,1120.4150000121444,true,high,NA,NA,NA,NA,NA,NA,NA,false
v97vwj8g,3087lxlj7ptluqx9bvztb5ithyq0fq,3e47sobeyu9rlts9fl30yntejo7ic6,v97vwj8g,2020-0188,2020-11-18,13:59:22,14:27:03,NA,incomplete,123,color,1,right,Red_Star_Stripes_4.jpg,Green_Circle_Chess_4.jpg,Red_Plus_Grid_3.jpg,right,1769.6499999728985,true,high,NA,NA,NA,NA,NA,NA,NA,false
v97vwj8g,3087lxlj7ptluqx9bvztb5ithyq0fq,3e47sobeyu9rlts9fl30yntejo7ic6,v97vwj8g,2020-0188,2020-11-18,13:59:22,14:27:03,NA,incomplete,124,color,1,left,Green_Plus_Dots_2.jpg,Green_Circle_Grid_1.jpg,Blue_Triangle_Chess_2.jpg,right,1153.0250000068918,false,high,NA,NA,NA,NA,NA,NA,NA,false
v97vwj8g,3087lxlj7ptluqx9bvztb5ithyq0fq,3e47sobeyu9rlts9fl30yntejo7ic6,v97vwj8g,2020-0188,2020-11-18,13:59:22,14:27:03,NA,incomplete,125,color,1,left,Blue_Star_Dots_4.jpg,Blue_Plus_Stripes_2.jpg,Red_Circle_Grid_4.jpg,left,1120.8399999886751,true,high,NA,NA,NA,NA,NA,NA,NA,false
v97vwj8g,3087lxlj7ptluqx9bvztb5ithyq0fq,3e47sobeyu9rlts9fl30yntejo7ic6,v97vwj8g,2020-0188,2020-11-18,13:59:22,14:27:03,NA,incomplete,126,color,0,right,Purple_Triangle_Dots_4.jpg,Green_Plus_Stripes_4.jpg,Purple_Star_Grid_2.jpg,right,878.6350000300445,true,high,NA,NA,NA,NA,NA,NA,NA,false
v97vwj8g,3087lxlj7ptluqx9bvztb5ithyq0fq,3e47sobeyu9rlts9fl30yntejo7ic6,v97vwj8g,2020-0188,2020-11-18,13:59:22,14:27:03,NA,incomplete,127,color,1,left,Purple_Circle_Stripes_2.jpg,Purple_Star_Chess_3.jpg,Green_Triangle_Grid_2.jpg,right,1473.245000001043,false,high,NA,NA,NA,NA,NA,NA,NA,false
v97vwj8g,3087lxlj7ptluqx9bvztb5ithyq0fq,3e47sobeyu9rlts9fl30yntejo7ic6,v97vwj8g,2020-0188,2020-11-18,13:59:22,14:27:03,NA,incomplete,128,color,0,right,Red_Circle_Grid_4.jpg,Blue_Plus_Chess_4.jpg,Red_Star_Dots_3.jpg,left,1538.280000037048,false,high,NA,NA,NA,NA,NA,NA,NA,false
v97vwj8g,3087lxlj7ptluqx9bvztb5ithyq0fq,3e47sobeyu9rlts9fl30yntejo7ic6,v97vwj8g,2020-0188,2020-11-18,13:59:22,14:27:03,NA,incomplete,129,color,1,right,Purple_Triangle_Dots_4.jpg,Green_Circle_Grid_4.jpg,Purple_Star_Stripes_3.jpg,left,1398.5099999699742,false,high,NA,NA,NA,NA,NA,NA,NA,false
v97vwj8g,3087lxlj7ptluqx9bvztb5ithyq0fq,3e47sobeyu9rlts9fl30yntejo7ic6,v97vwj8g,2020-0188,2020-11-18,13:59:22,14:27:03,NA,incomplete,130,color,0,right,Green_Triangle_Stripes_4.jpg,Blue_Star_Dots_4.jpg,Green_Circle_Chess_3.jpg,right,1103.6999999778345,true,high,NA,NA,NA,NA,NA,NA,NA,false
v97vwj8g,3087lxlj7ptluqx9bvztb5ithyq0fq,3e47sobeyu9rlts9fl30yntejo7ic6,v97vwj8g,2020-0188,2020-11-18,13:59:22,14:27:03,NA,incomplete,131,color,1,left,Green_Triangle_Chess_3.jpg,Green_Star_Dots_2.jpg,Purple_Plus_Grid_3.jpg,left,1307.0450000232086,true,high,NA,NA,NA,NA,NA,NA,NA,false
v97vwj8g,3087lxlj7ptluqx9bvztb5ithyq0fq,3e47sobeyu9rlts9fl30yntejo7ic6,v97vwj8g,2020-0188,2020-11-18,13:59:22,14:27:03,NA,incomplete,132,color,0,right,Blue_Star_Dots_4.jpg,Purple_Plus_Stripes_4.jpg,Blue_Triangle_Chess_1.jpg,right,1269.7849999531172,true,high,NA,NA,NA,NA,NA,NA,NA,false
v97vwj8g,3087lxlj7ptluqx9bvztb5ithyq0fq,3e47sobeyu9rlts9fl30yntejo7ic6,v97vwj8g,2020-0188,2020-11-18,13:59:22,14:27:03,NA,incomplete,133,color,1,left,Purple_Plus_Chess_3.jpg,Purple_Circle_Grid_1.jpg,Green_Triangle_Dots_3.jpg,left,1408.484999963548,true,high,NA,NA,NA,NA,NA,NA,NA,false
v97vwj8g,3087lxlj7ptluqx9bvztb5ithyq0fq,3e47sobeyu9rlts9fl30yntejo7ic6,v97vwj8g,2020-0188,2020-11-18,13:59:22,14:27:03,NA,incomplete,134,color,1,left,Red_Plus_Dots_1.jpg,Red_Star_Chess_4.jpg,Purple_Circle_Stripes_1.jpg,left,1282.4900000123307,true,high,NA,NA,NA,NA,NA,NA,NA,false
v97vwj8g,3087lxlj7ptluqx9bvztb5ithyq0fq,3e47sobeyu9rlts9fl30yntejo7ic6,v97vwj8g,2020-0188,2020-11-18,13:59:22,14:27:03,NA,incomplete,135,color,1,left,Blue_Circle_Chess_1.jpg,Blue_Star_Dots_4.jpg,Green_Plus_Stripes_1.jpg,left,1041.9000000110827,true,high,NA,NA,NA,NA,NA,NA,NA,false
v97vwj8g,3087lxlj7ptluqx9bvztb5ithyq0fq,3e47sobeyu9rlts9fl30yntejo7ic6,v97vwj8g,2020-0188,2020-11-18,13:59:22,14:27:03,NA,incomplete,136,color,1,left,Purple_Triangle_Dots_2.jpg,Purple_Circle_Chess_4.jpg,Green_Star_Grid_2.jpg,left,785.5299999937415,true,high,NA,NA,NA,NA,NA,NA,NA,false
v97vwj8g,3087lxlj7ptluqx9bvztb5ithyq0fq,3e47sobeyu9rlts9fl30yntejo7ic6,v97vwj8g,2020-0188,2020-11-18,13:59:22,14:27:03,NA,incomplete,137,color,1,left,Green_Plus_Grid_1.jpg,Green_Star_Stripes_2.jpg,Blue_Circle_Dots_1.jpg,left,669.2399999592453,true,high,NA,NA,NA,NA,NA,NA,NA,false
v97vwj8g,3087lxlj7ptluqx9bvztb5ithyq0fq,3e47sobeyu9rlts9fl30yntejo7ic6,v97vwj8g,2020-0188,2020-11-18,13:59:22,14:27:03,NA,incomplete,138,color,0,right,Green_Circle_Stripes_3.jpg,Blue_Triangle_Dots_3.jpg,Green_Star_Grid_1.jpg,right,1235.4749999940395,true,high,NA,NA,NA,NA,NA,NA,NA,false
v97vwj8g,3087lxlj7ptluqx9bvztb5ithyq0fq,3e47sobeyu9rlts9fl30yntejo7ic6,v97vwj8g,2020-0188,2020-11-18,13:59:22,14:27:03,NA,incomplete,139,color,1,left,Red_Plus_Grid_1.jpg,Red_Triangle_Chess_4.jpg,Green_Star_Stripes_1.jpg,left,1780.0200000056066,true,high,NA,NA,NA,NA,NA,NA,NA,false
v97vwj8g,3087lxlj7ptluqx9bvztb5ithyq0fq,3e47sobeyu9rlts9fl30yntejo7ic6,v97vwj8g,2020-0188,2020-11-18,13:59:22,14:27:03,NA,incomplete,140,number,1,left,Blue_Circle_Dots_2.jpg,Green_Triangle_Grid_2.jpg,Blue_Star_Stripes_1.jpg,right,844.1450000391342,false,high,NA,NA,NA,NA,NA,NA,NA,false
v97vwj8g,3087lxlj7ptluqx9bvztb5ithyq0fq,3e47sobeyu9rlts9fl30yntejo7ic6,v97vwj8g,2020-0188,2020-11-18,13:59:22,14:27:03,NA,incomplete,141,number,1,right,Red_Circle_Dots_1.jpg,Red_Star_Stripes_2.jpg,Purple_Triangle_Grid_1.jpg,right,1306.4949999679811,true,high,NA,NA,NA,NA,NA,NA,NA,false
v97vwj8g,3087lxlj7ptluqx9bvztb5ithyq0fq,3e47sobeyu9rlts9fl30yntejo7ic6,v97vwj8g,2020-0188,2020-11-18,13:59:22,14:27:03,NA,incomplete,142,number,1,right,Blue_Star_Chess_3.jpg,Blue_Plus_Stripes_2.jpg,Red_Triangle_Dots_3.jpg,right,974.5199999888428,true,high,NA,NA,NA,NA,NA,NA,NA,false
v97vwj8g,3087lxlj7ptluqx9bvztb5ithyq0fq,3e47sobeyu9rlts9fl30yntejo7ic6,v97vwj8g,2020-0188,2020-11-18,13:59:22,14:27:03,NA,incomplete,143,number,1,right,Blue_Triangle_Stripes_4.jpg,Blue_Star_Grid_2.jpg,Red_Plus_Dots_4.jpg,right,1040.0950000039302,true,high,NA,NA,NA,NA,NA,NA,NA,false
v97vwj8g,3087lxlj7ptluqx9bvztb5ithyq0fq,3e47sobeyu9rlts9fl30yntejo7ic6,v97vwj8g,2020-0188,2020-11-18,13:59:22,14:27:03,NA,incomplete,144,number,1,right,Purple_Star_Grid_1.jpg,Purple_Plus_Stripes_4.jpg,Blue_Triangle_Dots_1.jpg,right,975.1050000195391,true,high,NA,NA,NA,NA,NA,NA,NA,false
v97vwj8g,3087lxlj7ptluqx9bvztb5ithyq0fq,3e47sobeyu9rlts9fl30yntejo7ic6,v97vwj8g,2020-0188,2020-11-18,13:59:22,14:27:03,NA,incomplete,145,number,1,left,Red_Star_Dots_3.jpg,Blue_Plus_Stripes_3.jpg,Red_Triangle_Grid_1.jpg,left,939.2649999936111,true,high,NA,NA,NA,NA,NA,NA,NA,false
v97vwj8g,3087lxlj7ptluqx9bvztb5ithyq0fq,3e47sobeyu9rlts9fl30yntejo7ic6,v97vwj8g,2020-0188,2020-11-18,13:59:22,14:27:03,NA,incomplete,146,number,1,right,Purple_Plus_Dots_1.jpg,Purple_Circle_Stripes_3.jpg,Red_Triangle_Grid_1.jpg,right,971.4300000341609,true,high,NA,NA,NA,NA,NA,NA,NA,false
v97vwj8g,3087lxlj7ptluqx9bvztb5ithyq0fq,3e47sobeyu9rlts9fl30yntejo7ic6,v97vwj8g,2020-0188,2020-11-18,13:59:22,14:27:03,NA,incomplete,147,number,1,right,Blue_Star_Grid_3.jpg,Blue_Circle_Chess_2.jpg,Purple_Plus_Stripes_3.jpg,right,912.2149999602698,true,high,NA,NA,NA,NA,NA,NA,NA,false
v97vwj8g,3087lxlj7ptluqx9bvztb5ithyq0fq,3e47sobeyu9rlts9fl30yntejo7ic6,v97vwj8g,2020-0188,2020-11-18,13:59:22,14:27:03,NA,incomplete,148,number,1,left,Blue_Plus_Stripes_3.jpg,Green_Circle_Chess_3.jpg,Blue_Triangle_Grid_1.jpg,left,931.1200000229292,true,high,NA,NA,NA,NA,NA,NA,NA,false
v97vwj8g,3087lxlj7ptluqx9bvztb5ithyq0fq,3e47sobeyu9rlts9fl30yntejo7ic6,v97vwj8g,2020-0188,2020-11-18,13:59:22,14:27:03,NA,incomplete,149,number,1,left,Red_Plus_Dots_3.jpg,Blue_Star_Chess_3.jpg,Red_Triangle_Grid_4.jpg,left,1163.780000002589,true,high,NA,NA,NA,NA,NA,NA,NA,false
v97vwj8g,3087lxlj7ptluqx9bvztb5ithyq0fq,3e47sobeyu9rlts9fl30yntejo7ic6,v97vwj8g,2020-0188,2020-11-18,13:59:22,14:27:03,NA,incomplete,150,number,1,right,Blue_Plus_Stripes_4.jpg,Blue_Star_Grid_2.jpg,Green_Triangle_Chess_4.jpg,right,869.9100000085309,true,high,NA,NA,NA,NA,NA,NA,NA,false
v97vwj8g,3087lxlj7ptluqx9bvztb5ithyq0fq,3e47sobeyu9rlts9fl30yntejo7ic6,v97vwj8g,2020-0188,2020-11-18,13:59:22,14:27:03,NA,incomplete,151,number,1,right,Blue_Plus_Grid_3.jpg,Blue_Circle_Dots_2.jpg,Red_Triangle_Chess_3.jpg,right,1017.359999998007,true,high,NA,NA,NA,NA,NA,NA,NA,false
v97vwj8g,3087lxlj7ptluqx9bvztb5ithyq0fq,3e47sobeyu9rlts9fl30yntejo7ic6,v97vwj8g,2020-0188,2020-11-18,13:59:22,14:27:03,NA,incomplete,152,number,1,right,Purple_Circle_Grid_1.jpg,Purple_Plus_Chess_2.jpg,Red_Triangle_Dots_1.jpg,right,913.4499999927357,true,high,NA,NA,NA,NA,NA,NA,NA,false
v97vwj8g,3087lxlj7ptluqx9bvztb5ithyq0fq,3e47sobeyu9rlts9fl30yntejo7ic6,v97vwj8g,2020-0188,2020-11-18,13:59:22,14:27:03,NA,incomplete,153,number,0,left,Green_Circle_Grid_4.jpg,Blue_Plus_Dots_4.jpg,Green_Star_Chess_3.jpg,left,961.5950000006706,true,high,NA,NA,NA,NA,NA,NA,NA,false
v97vwj8g,3087lxlj7ptluqx9bvztb5ithyq0fq,3e47sobeyu9rlts9fl30yntejo7ic6,v97vwj8g,2020-0188,2020-11-18,13:59:22,14:27:03,NA,incomplete,154,number,1,right,Green_Triangle_Chess_2.jpg,Green_Plus_Dots_1.jpg,Red_Circle_Stripes_2.jpg,left,1958.9600000181235,false,high,NA,NA,NA,NA,NA,NA,NA,false
v97vwj8g,3087lxlj7ptluqx9bvztb5ithyq0fq,3e47sobeyu9rlts9fl30yntejo7ic6,v97vwj8g,2020-0188,2020-11-18,13:59:22,14:27:03,NA,incomplete,155,number,1,right,Green_Star_Dots_4.jpg,Green_Triangle_Grid_1.jpg,Red_Circle_Chess_4.jpg,right,949.094999989029,true,high,NA,NA,NA,NA,NA,NA,NA,false
v97vwj8g,3087lxlj7ptluqx9bvztb5ithyq0fq,3e47sobeyu9rlts9fl30yntejo7ic6,v97vwj8g,2020-0188,2020-11-18,13:59:22,14:27:03,NA,incomplete,156,number,1,right,Green_Triangle_Dots_2.jpg,Green_Plus_Grid_1.jpg,Red_Circle_Chess_2.jpg,right,979.9900000216439,true,high,NA,NA,NA,NA,NA,NA,NA,false
v97vwj8g,3087lxlj7ptluqx9bvztb5ithyq0fq,3e47sobeyu9rlts9fl30yntejo7ic6,v97vwj8g,2020-0188,2020-11-18,13:59:22,14:27:03,NA,incomplete,157,number,1,right,Green_Circle_Dots_1.jpg,Green_Plus_Grid_4.jpg,Blue_Triangle_Chess_1.jpg,right,952.0699999993667,true,high,NA,NA,NA,NA,NA,NA,NA,false
v97vwj8g,3087lxlj7ptluqx9bvztb5ithyq0fq,3e47sobeyu9rlts9fl30yntejo7ic6,v97vwj8g,2020-0188,2020-11-18,13:59:22,14:27:03,NA,incomplete,158,number,1,left,Green_Triangle_Dots_1.jpg,Red_Circle_Grid_1.jpg,Green_Plus_Stripes_4.jpg,left,1131.485000019893,true,high,NA,NA,NA,NA,NA,NA,NA,false
v97vwj8g,3087lxlj7ptluqx9bvztb5ithyq0fq,3e47sobeyu9rlts9fl30yntejo7ic6,v97vwj8g,2020-0188,2020-11-18,13:59:22,14:27:03,NA,incomplete,159,number,1,left,Blue_Triangle_Grid_1.jpg,Red_Plus_Dots_1.jpg,Blue_Circle_Stripes_4.jpg,left,1087.1449999976903,true,high,NA,NA,NA,NA,NA,NA,NA,false
v97vwj8g,3087lxlj7ptluqx9bvztb5ithyq0fq,3e47sobeyu9rlts9fl30yntejo7ic6,v97vwj8g,2020-0188,2020-11-18,13:59:22,14:27:03,NA,incomplete,160,color,1,right,Red_Star_Dots_3.jpg,Blue_Circle_Grid_3.jpg,Red_Triangle_Stripes_2.jpg,left,1441.56499998644,false,high,NA,NA,NA,NA,NA,NA,NA,false
v97vwj8g,3087lxlj7ptluqx9bvztb5ithyq0fq,3e47sobeyu9rlts9fl30yntejo7ic6,v97vwj8g,2020-0188,2020-11-18,13:59:22,14:27:03,NA,incomplete,161,color,0,right,Purple_Star_Grid_2.jpg,Red_Plus_Dots_2.jpg,Purple_Triangle_Chess_4.jpg,right,862.8650000318885,true,high,NA,NA,NA,NA,NA,NA,NA,false
v97vwj8g,3087lxlj7ptluqx9bvztb5ithyq0fq,3e47sobeyu9rlts9fl30yntejo7ic6,v97vwj8g,2020-0188,2020-11-18,13:59:22,14:27:03,NA,incomplete,162,color,1,right,Blue_Triangle_Chess_4.jpg,Green_Circle_Stripes_4.jpg,Blue_Star_Grid_2.jpg,right,1604.784999974072,true,high,NA,NA,NA,NA,NA,NA,NA,false
v97vwj8g,3087lxlj7ptluqx9bvztb5ithyq0fq,3e47sobeyu9rlts9fl30yntejo7ic6,v97vwj8g,2020-0188,2020-11-18,13:59:22,14:27:03,NA,incomplete,163,color,1,left,Blue_Triangle_Grid_1.jpg,Blue_Plus_Stripes_4.jpg,Purple_Star_Dots_1.jpg,left,882.0350000169128,true,high,NA,NA,NA,NA,NA,NA,NA,false
v97vwj8g,3087lxlj7ptluqx9bvztb5ithyq0fq,3e47sobeyu9rlts9fl30yntejo7ic6,v97vwj8g,2020-0188,2020-11-18,13:59:22,14:27:03,NA,incomplete,164,color,0,left,Red_Triangle_Chess_4.jpg,Red_Plus_Stripes_3.jpg,Blue_Star_Dots_4.jpg,left,977.1750000072643,true,high,NA,NA,NA,NA,NA,NA,NA,false
v97vwj8g,3087lxlj7ptluqx9bvztb5ithyq0fq,3e47sobeyu9rlts9fl30yntejo7ic6,v97vwj8g,2020-0188,2020-11-18,13:59:22,14:27:03,NA,incomplete,165,color,1,left,Purple_Circle_Chess_2.jpg,Purple_Triangle_Grid_4.jpg,Red_Star_Stripes_2.jpg,left,1055.129999993369,true,high,NA,NA,NA,NA,NA,NA,NA,false
v97vwj8g,3087lxlj7ptluqx9bvztb5ithyq0fq,3e47sobeyu9rlts9fl30yntejo7ic6,v97vwj8g,2020-0188,2020-11-18,13:59:22,14:27:03,NA,incomplete,166,color,1,left,Purple_Triangle_Dots_4.jpg,Purple_Circle_Chess_2.jpg,Red_Plus_Grid_4.jpg,left,1746.0349999601021,true,high,NA,NA,NA,NA,NA,NA,NA,false
v97vwj8g,3087lxlj7ptluqx9bvztb5ithyq0fq,3e47sobeyu9rlts9fl30yntejo7ic6,v97vwj8g,2020-0188,2020-11-18,13:59:22,14:27:03,NA,incomplete,167,color,1,left,Green_Triangle_Stripes_4.jpg,Green_Circle_Chess_1.jpg,Blue_Star_Dots_4.jpg,left,848.2599999988452,true,high,NA,NA,NA,NA,NA,NA,NA,false
v97vwj8g,3087lxlj7ptluqx9bvztb5ithyq0fq,3e47sobeyu9rlts9fl30yntejo7ic6,v97vwj8g,2020-0188,2020-11-18,13:59:22,14:27:03,NA,incomplete,168,color,1,left,Purple_Triangle_Grid_2.jpg,Purple_Star_Chess_4.jpg,Red_Circle_Dots_2.jpg,left,736.6599999950267,true,high,NA,NA,NA,NA,NA,NA,NA,false
v97vwj8g,3087lxlj7ptluqx9bvztb5ithyq0fq,3e47sobeyu9rlts9fl30yntejo7ic6,v97vwj8g,2020-0188,2020-11-18,13:59:22,14:27:03,NA,incomplete,169,color,1,right,Green_Plus_Stripes_3.jpg,Red_Triangle_Chess_3.jpg,Green_Circle_Grid_2.jpg,right,856.0549999820068,true,high,NA,NA,NA,NA,NA,NA,NA,false
v97vwj8g,3087lxlj7ptluqx9bvztb5ithyq0fq,3e47sobeyu9rlts9fl30yntejo7ic6,v97vwj8g,2020-0188,2020-11-18,13:59:22,14:27:03,NA,incomplete,170,color,0,right,Red_Plus_Grid_4.jpg,Purple_Circle_Chess_4.jpg,Red_Triangle_Stripes_2.jpg,right,733.635000011418,true,high,NA,NA,NA,NA,NA,NA,NA,false
v97vwj8g,3087lxlj7ptluqx9bvztb5ithyq0fq,3e47sobeyu9rlts9fl30yntejo7ic6,v97vwj8g,2020-0188,2020-11-18,13:59:22,14:27:03,NA,incomplete,171,color,1,left,Red_Circle_Dots_1.jpg,Red_Plus_Grid_3.jpg,Green_Triangle_Chess_1.jpg,left,1326.2749999994412,true,high,NA,NA,NA,NA,NA,NA,NA,false
v97vwj8g,3087lxlj7ptluqx9bvztb5ithyq0fq,3e47sobeyu9rlts9fl30yntejo7ic6,v97vwj8g,2020-0188,2020-11-18,13:59:22,14:27:03,NA,incomplete,172,color,1,right,Purple_Star_Dots_4.jpg,Green_Plus_Chess_4.jpg,Purple_Triangle_Stripes_2.jpg,right,762.7899999497458,true,high,NA,NA,NA,NA,NA,NA,NA,false
v97vwj8g,3087lxlj7ptluqx9bvztb5ithyq0fq,3e47sobeyu9rlts9fl30yntejo7ic6,v97vwj8g,2020-0188,2020-11-18,13:59:22,14:27:03,NA,incomplete,173,color,0,right,Blue_Plus_Stripes_3.jpg,Green_Circle_Grid_3.jpg,Blue_Triangle_Chess_2.jpg,right,708.6899999994785,true,high,NA,NA,NA,NA,NA,NA,NA,false
v97vwj8g,3087lxlj7ptluqx9bvztb5ithyq0fq,3e47sobeyu9rlts9fl30yntejo7ic6,v97vwj8g,2020-0188,2020-11-18,13:59:22,14:27:03,NA,incomplete,174,color,1,left,Green_Plus_Grid_4.jpg,Green_Star_Chess_1.jpg,Red_Circle_Stripes_4.jpg,right,942.2249999479391,false,high,NA,NA,NA,NA,NA,NA,NA,false
v97vwj8g,3087lxlj7ptluqx9bvztb5ithyq0fq,3e47sobeyu9rlts9fl30yntejo7ic6,v97vwj8g,2020-0188,2020-11-18,13:59:22,14:27:03,NA,incomplete,175,color,0,right,Green_Circle_Dots_2.jpg,Blue_Star_Grid_2.jpg,Green_Triangle_Stripes_4.jpg,right,860.3799999691546,true,high,NA,NA,NA,NA,NA,NA,NA,false
v97vwj8g,3087lxlj7ptluqx9bvztb5ithyq0fq,3e47sobeyu9rlts9fl30yntejo7ic6,v97vwj8g,2020-0188,2020-11-18,13:59:22,14:27:03,NA,incomplete,176,color,1,right,Red_Circle_Stripes_1.jpg,Purple_Star_Dots_1.jpg,Red_Triangle_Grid_2.jpg,left,1240.4649999807589,false,high,NA,NA,NA,NA,NA,NA,NA,false
v97vwj8g,3087lxlj7ptluqx9bvztb5ithyq0fq,3e47sobeyu9rlts9fl30yntejo7ic6,v97vwj8g,2020-0188,2020-11-18,13:59:22,14:27:03,NA,incomplete,177,color,0,left,Purple_Plus_Dots_3.jpg,Purple_Triangle_Stripes_1.jpg,Red_Star_Grid_3.jpg,right,863.1100000347942,false,high,NA,NA,NA,NA,NA,NA,NA,false
v97vwj8g,3087lxlj7ptluqx9bvztb5ithyq0fq,3e47sobeyu9rlts9fl30yntejo7ic6,v97vwj8g,2020-0188,2020-11-18,13:59:22,14:27:03,NA,incomplete,178,color,1,right,Purple_Plus_Stripes_3.jpg,Green_Circle_Chess_3.jpg,Purple_Triangle_Dots_2.jpg,left,1548.445000022184,false,high,NA,NA,NA,NA,NA,NA,NA,false
v97vwj8g,3087lxlj7ptluqx9bvztb5ithyq0fq,3e47sobeyu9rlts9fl30yntejo7ic6,v97vwj8g,2020-0188,2020-11-18,13:59:22,14:27:03,NA,incomplete,179,color,1,right,Purple_Star_Grid_1.jpg,Blue_Circle_Dots_1.jpg,Purple_Plus_Stripes_4.jpg,right,756.6600000136532,true,high,NA,NA,NA,NA,NA,NA,NA,false
v97vwj8g,3087lxlj7ptluqx9bvztb5ithyq0fq,3e47sobeyu9rlts9fl30yntejo7ic6,v97vwj8g,2020-0188,2020-11-18,13:59:22,14:27:03,NA,incomplete,180,number,1,right,Red_Star_Chess_3.jpg,Red_Circle_Stripes_1.jpg,Green_Plus_Dots_3.jpg,left,972.2249999758787,false,high,NA,NA,NA,NA,NA,NA,NA,false
v97vwj8g,3087lxlj7ptluqx9bvztb5ithyq0fq,3e47sobeyu9rlts9fl30yntejo7ic6,v97vwj8g,2020-0188,2020-11-18,13:59:22,14:27:03,NA,incomplete,181,number,1,left,Green_Plus_Stripes_4.jpg,Red_Circle_Grid_4.jpg,Green_Triangle_Dots_2.jpg,left,1519.890000054147,true,high,NA,NA,NA,NA,NA,NA,NA,false
v97vwj8g,3087lxlj7ptluqx9bvztb5ithyq0fq,3e47sobeyu9rlts9fl30yntejo7ic6,v97vwj8g,2020-0188,2020-11-18,13:59:22,14:27:03,NA,incomplete,182,number,1,left,Blue_Triangle_Chess_3.jpg,Green_Star_Stripes_3.jpg,Blue_Plus_Dots_2.jpg,left,1044.3549999617971,true,high,NA,NA,NA,NA,NA,NA,NA,false
v97vwj8g,3087lxlj7ptluqx9bvztb5ithyq0fq,3e47sobeyu9rlts9fl30yntejo7ic6,v97vwj8g,2020-0188,2020-11-18,13:59:22,14:27:03,NA,incomplete,183,number,1,right,Purple_Plus_Stripes_4.jpg,Purple_Circle_Grid_2.jpg,Green_Star_Dots_4.jpg,right,887.7499999944121,true,high,NA,NA,NA,NA,NA,NA,NA,false
v97vwj8g,3087lxlj7ptluqx9bvztb5ithyq0fq,3e47sobeyu9rlts9fl30yntejo7ic6,v97vwj8g,2020-0188,2020-11-18,13:59:22,14:27:03,NA,incomplete,184,number,1,right,Green_Circle_Stripes_2.jpg,Green_Star_Chess_4.jpg,Blue_Plus_Grid_2.jpg,right,1019.544999988284,true,high,NA,NA,NA,NA,NA,NA,NA,false
v97vwj8g,3087lxlj7ptluqx9bvztb5ithyq0fq,3e47sobeyu9rlts9fl30yntejo7ic6,v97vwj8g,2020-0188,2020-11-18,13:59:22,14:27:03,NA,incomplete,185,number,1,left,Purple_Circle_Stripes_3.jpg,Red_Star_Grid_3.jpg,Purple_Triangle_Dots_1.jpg,left,960.350000008475,true,high,NA,NA,NA,NA,NA,NA,NA,false
v97vwj8g,3087lxlj7ptluqx9bvztb5ithyq0fq,3e47sobeyu9rlts9fl30yntejo7ic6,v97vwj8g,2020-0188,2020-11-18,13:59:22,14:27:03,NA,incomplete,186,number,0,right,Blue_Circle_Stripes_4.jpg,Blue_Triangle_Chess_2.jpg,Purple_Plus_Grid_4.jpg,right,1415.5299999983981,true,high,NA,NA,NA,NA,NA,NA,NA,false
v97vwj8g,3087lxlj7ptluqx9bvztb5ithyq0fq,3e47sobeyu9rlts9fl30yntejo7ic6,v97vwj8g,2020-0188,2020-11-18,13:59:22,14:27:03,NA,incomplete,187,number,1,right,Green_Star_Stripes_1.jpg,Green_Plus_Dots_4.jpg,Red_Triangle_Chess_1.jpg,left,734.1500000329688,false,high,NA,NA,NA,NA,NA,NA,NA,false
v97vwj8g,3087lxlj7ptluqx9bvztb5ithyq0fq,3e47sobeyu9rlts9fl30yntejo7ic6,v97vwj8g,2020-0188,2020-11-18,13:59:22,14:27:03,NA,incomplete,188,number,1,left,Blue_Star_Dots_2.jpg,Green_Circle_Grid_2.jpg,Blue_Plus_Chess_1.jpg,left,1256.8250000476837,true,high,NA,NA,NA,NA,NA,NA,NA,false
v97vwj8g,3087lxlj7ptluqx9bvztb5ithyq0fq,3e47sobeyu9rlts9fl30yntejo7ic6,v97vwj8g,2020-0188,2020-11-18,13:59:22,14:27:03,NA,incomplete,189,number,0,left,Blue_Triangle_Stripes_1.jpg,Purple_Circle_Grid_1.jpg,Blue_Plus_Dots_2.jpg,right,1317.1950000105426,false,high,NA,NA,NA,NA,NA,NA,NA,false
v97vwj8g,3087lxlj7ptluqx9bvztb5ithyq0fq,3e47sobeyu9rlts9fl30yntejo7ic6,v97vwj8g,2020-0188,2020-11-18,13:59:22,14:27:03,NA,incomplete,190,number,1,left,Red_Plus_Chess_2.jpg,Green_Triangle_Dots_2.jpg,Red_Circle_Stripes_1.jpg,right,950.3950000507757,false,high,NA,NA,NA,NA,NA,NA,NA,false
v97vwj8g,3087lxlj7ptluqx9bvztb5ithyq0fq,3e47sobeyu9rlts9fl30yntejo7ic6,v97vwj8g,2020-0188,2020-11-18,13:59:22,14:27:03,NA,incomplete,191,number,1,left,Red_Triangle_Dots_1.jpg,Blue_Circle_Grid_1.jpg,Red_Star_Stripes_3.jpg,right,823.6199999810196,false,high,NA,NA,NA,NA,NA,NA,NA,false
v97vwj8g,3087lxlj7ptluqx9bvztb5ithyq0fq,3e47sobeyu9rlts9fl30yntejo7ic6,v97vwj8g,2020-0188,2020-11-18,13:59:22,14:27:03,NA,incomplete,192,number,1,left,Red_Circle_Grid_1.jpg,Blue_Plus_Stripes_1.jpg,Red_Triangle_Chess_4.jpg,right,984.6950000501238,false,high,NA,NA,NA,NA,NA,NA,NA,false
v97vwj8g,3087lxlj7ptluqx9bvztb5ithyq0fq,3e47sobeyu9rlts9fl30yntejo7ic6,v97vwj8g,2020-0188,2020-11-18,13:59:22,14:27:03,NA,incomplete,193,number,1,left,Red_Triangle_Dots_3.jpg,Blue_Star_Grid_3.jpg,Red_Circle_Stripes_4.jpg,left,1092.7599999704398,true,high,NA,NA,NA,NA,NA,NA,NA,false
v97vwj8g,3087lxlj7ptluqx9bvztb5ithyq0fq,3e47sobeyu9rlts9fl30yntejo7ic6,v97vwj8g,2020-0188,2020-11-18,13:59:22,14:27:03,NA,incomplete,194,number,1,left,Blue_Plus_Grid_4.jpg,Green_Circle_Stripes_4.jpg,Blue_Triangle_Dots_2.jpg,left,935.3850000188686,true,high,NA,NA,NA,NA,NA,NA,NA,false
v97vwj8g,3087lxlj7ptluqx9bvztb5ithyq0fq,3e47sobeyu9rlts9fl30yntejo7ic6,v97vwj8g,2020-0188,2020-11-18,13:59:22,14:27:03,NA,incomplete,195,number,0,left,Green_Triangle_Grid_2.jpg,Blue_Circle_Dots_2.jpg,Green_Plus_Chess_3.jpg,left,1492.3499999567866,true,high,NA,NA,NA,NA,NA,NA,NA,false
v97vwj8g,3087lxlj7ptluqx9bvztb5ithyq0fq,3e47sobeyu9rlts9fl30yntejo7ic6,v97vwj8g,2020-0188,2020-11-18,13:59:22,14:27:03,NA,incomplete,196,number,1,left,Green_Circle_Dots_2.jpg,Red_Plus_Chess_2.jpg,Green_Star_Grid_1.jpg,right,930.5000000167638,false,high,NA,NA,NA,NA,NA,NA,NA,false
v97vwj8g,3087lxlj7ptluqx9bvztb5ithyq0fq,3e47sobeyu9rlts9fl30yntejo7ic6,v97vwj8g,2020-0188,2020-11-18,13:59:22,14:27:03,NA,incomplete,197,number,1,right,Blue_Circle_Stripes_4.jpg,Blue_Star_Dots_3.jpg,Green_Plus_Grid_4.jpg,left,1620.2899999916553,false,high,NA,NA,NA,NA,NA,NA,NA,false
v97vwj8g,3087lxlj7ptluqx9bvztb5ithyq0fq,3e47sobeyu9rlts9fl30yntejo7ic6,v97vwj8g,2020-0188,2020-11-18,13:59:22,14:27:03,NA,incomplete,198,number,0,left,Green_Plus_Grid_3.jpg,Blue_Triangle_Dots_3.jpg,Green_Star_Stripes_4.jpg,left,1100.7500000414439,true,high,NA,NA,NA,NA,NA,NA,NA,false
v97vwj8g,3087lxlj7ptluqx9bvztb5ithyq0fq,3e47sobeyu9rlts9fl30yntejo7ic6,v97vwj8g,2020-0188,2020-11-18,13:59:22,14:27:03,NA,incomplete,199,number,1,left,Red_Star_Grid_1.jpg,Blue_Circle_Chess_1.jpg,Red_Plus_Stripes_3.jpg,left,1244.9849999975413,true,high,NA,NA,NA,NA,NA,NA,NA,false
v97vwj8g,3087lxlj7ptluqx9bvztb5ithyq0fq,3e47sobeyu9rlts9fl30yntejo7ic6,v97vwj8g,2020-0188,2020-11-18,13:59:22,14:27:03,NA,incomplete,200,color,1,left,Red_Plus_Chess_1.jpg,Red_Star_Dots_3.jpg,Green_Triangle_Grid_1.jpg,right,1020.1000000233762,false,high,NA,NA,NA,NA,NA,NA,NA,false
v97vwj8g,3087lxlj7ptluqx9bvztb5ithyq0fq,3e47sobeyu9rlts9fl30yntejo7ic6,v97vwj8g,2020-0188,2020-11-18,13:59:22,14:27:03,NA,incomplete,201,color,0,left,Red_Star_Stripes_1.jpg,Red_Triangle_Dots_4.jpg,Green_Circle_Grid_1.jpg,left,1580.5850000469945,true,high,NA,NA,NA,NA,NA,NA,NA,false
v97vwj8g,3087lxlj7ptluqx9bvztb5ithyq0fq,3e47sobeyu9rlts9fl30yntejo7ic6,v97vwj8g,2020-0188,2020-11-18,13:59:22,14:27:03,NA,incomplete,202,color,1,right,Red_Circle_Chess_1.jpg,Green_Plus_Dots_1.jpg,Red_Star_Stripes_2.jpg,left,905.4200000246055,false,high,NA,NA,NA,NA,NA,NA,NA,false
v97vwj8g,3087lxlj7ptluqx9bvztb5ithyq0fq,3e47sobeyu9rlts9fl30yntejo7ic6,v97vwj8g,2020-0188,2020-11-18,13:59:22,14:27:03,NA,incomplete,203,color,1,right,Blue_Star_Grid_3.jpg,Red_Triangle_Dots_3.jpg,Blue_Plus_Stripes_2.jpg,left,1428.0650000437163,false,high,NA,NA,NA,NA,NA,NA,NA,false
v97vwj8g,3087lxlj7ptluqx9bvztb5ithyq0fq,3e47sobeyu9rlts9fl30yntejo7ic6,v97vwj8g,2020-0188,2020-11-18,13:59:22,14:27:03,NA,incomplete,204,color,1,right,Red_Star_Chess_4.jpg,Blue_Circle_Stripes_4.jpg,Red_Triangle_Grid_3.jpg,left,1075.3050000057556,false,high,NA,NA,NA,NA,NA,NA,NA,false
v97vwj8g,3087lxlj7ptluqx9bvztb5ithyq0fq,3e47sobeyu9rlts9fl30yntejo7ic6,v97vwj8g,2020-0188,2020-11-18,13:59:22,14:27:03,NA,incomplete,205,color,1,right,Green_Circle_Dots_4.jpg,Blue_Star_Stripes_4.jpg,Green_Triangle_Chess_3.jpg,right,792.0649999869056,true,high,NA,NA,NA,NA,NA,NA,NA,false
v97vwj8g,3087lxlj7ptluqx9bvztb5ithyq0fq,3e47sobeyu9rlts9fl30yntejo7ic6,v97vwj8g,2020-0188,2020-11-18,13:59:22,14:27:03,NA,incomplete,206,color,1,right,Green_Plus_Stripes_2.jpg,Purple_Circle_Dots_2.jpg,Green_Triangle_Chess_1.jpg,right,804.8199999611825,true,high,NA,NA,NA,NA,NA,NA,NA,false
v97vwj8g,3087lxlj7ptluqx9bvztb5ithyq0fq,3e47sobeyu9rlts9fl30yntejo7ic6,v97vwj8g,2020-0188,2020-11-18,13:59:22,14:27:03,NA,incomplete,207,color,0,left,Purple_Circle_Grid_3.jpg,Purple_Plus_Stripes_4.jpg,Red_Triangle_Chess_3.jpg,left,853.110000025481,true,high,NA,NA,NA,NA,NA,NA,NA,false
v97vwj8g,3087lxlj7ptluqx9bvztb5ithyq0fq,3e47sobeyu9rlts9fl30yntejo7ic6,v97vwj8g,2020-0188,2020-11-18,13:59:22,14:27:03,NA,incomplete,208,color,1,left,Purple_Triangle_Stripes_4.jpg,Purple_Star_Chess_3.jpg,Blue_Plus_Grid_4.jpg,right,1062.3649999615736,false,high,NA,NA,NA,NA,NA,NA,NA,false
v97vwj8g,3087lxlj7ptluqx9bvztb5ithyq0fq,3e47sobeyu9rlts9fl30yntejo7ic6,v97vwj8g,2020-0188,2020-11-18,13:59:22,14:27:03,NA,incomplete,209,color,1,right,Red_Plus_Dots_4.jpg,Purple_Triangle_Grid_4.jpg,Red_Circle_Chess_2.jpg,right,1349.515000008978,true,high,NA,NA,NA,NA,NA,NA,NA,false
v97vwj8g,3087lxlj7ptluqx9bvztb5ithyq0fq,3e47sobeyu9rlts9fl30yntejo7ic6,v97vwj8g,2020-0188,2020-11-18,13:59:22,14:27:03,NA,incomplete,210,color,1,right,Red_Circle_Dots_1.jpg,Blue_Star_Chess_1.jpg,Red_Triangle_Stripes_2.jpg,right,830.7349999668077,true,high,NA,NA,NA,NA,NA,NA,NA,false
v97vwj8g,3087lxlj7ptluqx9bvztb5ithyq0fq,3e47sobeyu9rlts9fl30yntejo7ic6,v97vwj8g,2020-0188,2020-11-18,13:59:22,14:27:03,NA,incomplete,211,color,1,right,Purple_Circle_Stripes_2.jpg,Red_Plus_Grid_2.jpg,Purple_Triangle_Dots_4.jpg,right,852.1750000072643,true,high,NA,NA,NA,NA,NA,NA,NA,false
v97vwj8g,3087lxlj7ptluqx9bvztb5ithyq0fq,3e47sobeyu9rlts9fl30yntejo7ic6,v97vwj8g,2020-0188,2020-11-18,13:59:22,14:27:03,NA,incomplete,212,color,1,right,Purple_Plus_Dots_1.jpg,Green_Circle_Grid_1.jpg,Purple_Star_Stripes_2.jpg,right,710.7400000095367,true,high,NA,NA,NA,NA,NA,NA,NA,false
v97vwj8g,3087lxlj7ptluqx9bvztb5ithyq0fq,3e47sobeyu9rlts9fl30yntejo7ic6,v97vwj8g,2020-0188,2020-11-18,13:59:22,14:27:03,NA,incomplete,213,color,1,left,Purple_Star_Dots_2.jpg,Purple_Circle_Stripes_1.jpg,Blue_Plus_Grid_2.jpg,left,946.5849999687634,true,high,NA,NA,NA,NA,NA,NA,NA,false
v97vwj8g,3087lxlj7ptluqx9bvztb5ithyq0fq,3e47sobeyu9rlts9fl30yntejo7ic6,v97vwj8g,2020-0188,2020-11-18,13:59:22,14:27:03,NA,incomplete,214,color,0,right,Purple_Plus_Dots_2.jpg,Green_Star_Chess_2.jpg,Purple_Triangle_Grid_3.jpg,right,807.4699999997392,true,high,NA,NA,NA,NA,NA,NA,NA,false
v97vwj8g,3087lxlj7ptluqx9bvztb5ithyq0fq,3e47sobeyu9rlts9fl30yntejo7ic6,v97vwj8g,2020-0188,2020-11-18,13:59:22,14:27:03,NA,incomplete,215,color,1,right,Purple_Triangle_Grid_4.jpg,Blue_Star_Chess_4.jpg,Purple_Plus_Dots_3.jpg,left,1030.895000032615,false,high,NA,NA,NA,NA,NA,NA,NA,false
v97vwj8g,3087lxlj7ptluqx9bvztb5ithyq0fq,3e47sobeyu9rlts9fl30yntejo7ic6,v97vwj8g,2020-0188,2020-11-18,13:59:22,14:27:03,NA,incomplete,216,color,1,right,Blue_Circle_Chess_4.jpg,Green_Triangle_Grid_4.jpg,Blue_Plus_Stripes_3.jpg,right,1064.7100000060163,true,high,NA,NA,NA,NA,NA,NA,NA,false
v97vwj8g,3087lxlj7ptluqx9bvztb5ithyq0fq,3e47sobeyu9rlts9fl30yntejo7ic6,v97vwj8g,2020-0188,2020-11-18,13:59:22,14:27:03,NA,incomplete,217,color,1,right,Purple_Star_Chess_1.jpg,Red_Circle_Dots_1.jpg,Purple_Plus_Grid_2.jpg,right,635.1249999715947,true,high,NA,NA,NA,NA,NA,NA,NA,false
v97vwj8g,3087lxlj7ptluqx9bvztb5ithyq0fq,3e47sobeyu9rlts9fl30yntejo7ic6,v97vwj8g,2020-0188,2020-11-18,13:59:22,14:27:03,NA,incomplete,218,color,1,right,Green_Circle_Stripes_1.jpg,Purple_Triangle_Dots_1.jpg,Green_Plus_Chess_4.jpg,right,670.0600000331178,true,high,NA,NA,NA,NA,NA,NA,NA,false
v97vwj8g,3087lxlj7ptluqx9bvztb5ithyq0fq,3e47sobeyu9rlts9fl30yntejo7ic6,v97vwj8g,2020-0188,2020-11-18,13:59:22,14:27:03,NA,incomplete,219,color,1,left,Red_Plus_Grid_2.jpg,Red_Star_Stripes_4.jpg,Purple_Triangle_Chess_2.jpg,left,734.4199999934062,true,high,NA,NA,NA,NA,NA,NA,NA,false
v97vwj8g,3087lxlj7ptluqx9bvztb5ithyq0fq,3e47sobeyu9rlts9fl30yntejo7ic6,v97vwj8g,2020-0188,2020-11-18,13:59:22,14:27:03,NA,incomplete,220,number,0,left,Blue_Plus_Chess_4.jpg,Red_Triangle_Dots_4.jpg,Blue_Circle_Grid_3.jpg,right,717.7399999927729,false,high,NA,NA,NA,NA,NA,NA,NA,false
v97vwj8g,3087lxlj7ptluqx9bvztb5ithyq0fq,3e47sobeyu9rlts9fl30yntejo7ic6,v97vwj8g,2020-0188,2020-11-18,13:59:22,14:27:03,NA,incomplete,221,number,1,right,Blue_Circle_Grid_4.jpg,Blue_Star_Stripes_2.jpg,Purple_Triangle_Chess_4.jpg,left,715.154999983497,false,high,NA,NA,NA,NA,NA,NA,NA,false
v97vwj8g,3087lxlj7ptluqx9bvztb5ithyq0fq,3e47sobeyu9rlts9fl30yntejo7ic6,v97vwj8g,2020-0188,2020-11-18,13:59:22,14:27:03,NA,incomplete,222,number,0,right,Red_Circle_Grid_2.jpg,Red_Triangle_Stripes_3.jpg,Purple_Star_Dots_2.jpg,right,1189.249999995809,true,high,NA,NA,NA,NA,NA,NA,NA,false
v97vwj8g,3087lxlj7ptluqx9bvztb5ithyq0fq,3e47sobeyu9rlts9fl30yntejo7ic6,v97vwj8g,2020-0188,2020-11-18,13:59:22,14:27:03,NA,incomplete,223,number,1,left,Blue_Triangle_Grid_4.jpg,Purple_Circle_Stripes_4.jpg,Blue_Star_Chess_2.jpg,right,1330.3150000283495,false,high,NA,NA,NA,NA,NA,NA,NA,false
v97vwj8g,3087lxlj7ptluqx9bvztb5ithyq0fq,3e47sobeyu9rlts9fl30yntejo7ic6,v97vwj8g,2020-0188,2020-11-18,13:59:22,14:27:03,NA,incomplete,224,number,1,right,Blue_Plus_Stripes_1.jpg,Blue_Circle_Chess_2.jpg,Green_Triangle_Dots_1.jpg,right,1494.745000032708,true,high,NA,NA,NA,NA,NA,NA,NA,false
v97vwj8g,3087lxlj7ptluqx9bvztb5ithyq0fq,3e47sobeyu9rlts9fl30yntejo7ic6,v97vwj8g,2020-0188,2020-11-18,13:59:22,14:27:03,NA,incomplete,225,number,1,right,Red_Circle_Chess_3.jpg,Red_Triangle_Grid_4.jpg,Purple_Plus_Dots_3.jpg,right,1112.410000001546,true,high,NA,NA,NA,NA,NA,NA,NA,false
v97vwj8g,3087lxlj7ptluqx9bvztb5ithyq0fq,3e47sobeyu9rlts9fl30yntejo7ic6,v97vwj8g,2020-0188,2020-11-18,13:59:22,14:27:03,NA,incomplete,226,number,1,right,Green_Plus_Grid_2.jpg,Green_Triangle_Dots_4.jpg,Red_Circle_Stripes_2.jpg,right,1075.7849999936298,true,high,NA,NA,NA,NA,NA,NA,NA,false
v97vwj8g,3087lxlj7ptluqx9bvztb5ithyq0fq,3e47sobeyu9rlts9fl30yntejo7ic6,v97vwj8g,2020-0188,2020-11-18,13:59:22,14:27:03,NA,incomplete,227,number,1,left,Purple_Star_Stripes_2.jpg,Red_Plus_Chess_2.jpg,Purple_Triangle_Grid_4.jpg,left,1037.9250000114553,true,high,NA,NA,NA,NA,NA,NA,NA,false
v97vwj8g,3087lxlj7ptluqx9bvztb5ithyq0fq,3e47sobeyu9rlts9fl30yntejo7ic6,v97vwj8g,2020-0188,2020-11-18,13:59:22,14:27:03,NA,incomplete,228,number,1,right,Blue_Triangle_Dots_2.jpg,Blue_Plus_Stripes_4.jpg,Green_Star_Grid_2.jpg,right,786.5599999786355,true,high,NA,NA,NA,NA,NA,NA,NA,false
v97vwj8g,3087lxlj7ptluqx9bvztb5ithyq0fq,3e47sobeyu9rlts9fl30yntejo7ic6,v97vwj8g,2020-0188,2020-11-18,13:59:22,14:27:03,NA,incomplete,229,number,0,left,Green_Triangle_Dots_3.jpg,Purple_Circle_Chess_3.jpg,Green_Star_Stripes_4.jpg,left,1259.4000000390224,true,high,NA,NA,NA,NA,NA,NA,NA,false
v97vwj8g,3087lxlj7ptluqx9bvztb5ithyq0fq,3e47sobeyu9rlts9fl30yntejo7ic6,v97vwj8g,2020-0188,2020-11-18,13:59:22,14:27:03,NA,incomplete,230,number,1,right,Purple_Triangle_Stripes_4.jpg,Purple_Circle_Chess_2.jpg,Green_Star_Grid_4.jpg,right,1815.7699999865144,true,high,NA,NA,NA,NA,NA,NA,NA,false
v97vwj8g,3087lxlj7ptluqx9bvztb5ithyq0fq,3e47sobeyu9rlts9fl30yntejo7ic6,v97vwj8g,2020-0188,2020-11-18,13:59:22,14:27:03,NA,incomplete,231,number,1,right,Blue_Circle_Dots_2.jpg,Blue_Plus_Grid_1.jpg,Purple_Star_Chess_2.jpg,right,1240.5649999855086,true,high,NA,NA,NA,NA,NA,NA,NA,false
v97vwj8g,3087lxlj7ptluqx9bvztb5ithyq0fq,3e47sobeyu9rlts9fl30yntejo7ic6,v97vwj8g,2020-0188,2020-11-18,13:59:22,14:27:03,NA,incomplete,232,number,1,left,Purple_Star_Stripes_1.jpg,Blue_Circle_Chess_1.jpg,Purple_Triangle_Grid_4.jpg,left,912.2300000162795,true,high,NA,NA,NA,NA,NA,NA,NA,false
v97vwj8g,3087lxlj7ptluqx9bvztb5ithyq0fq,3e47sobeyu9rlts9fl30yntejo7ic6,v97vwj8g,2020-0188,2020-11-18,13:59:22,14:27:03,NA,incomplete,233,number,1,right,Red_Star_Stripes_3.jpg,Red_Triangle_Chess_2.jpg,Blue_Circle_Grid_3.jpg,right,1148.5450000036508,true,high,NA,NA,NA,NA,NA,NA,NA,false
v97vwj8g,3087lxlj7ptluqx9bvztb5ithyq0fq,3e47sobeyu9rlts9fl30yntejo7ic6,v97vwj8g,2020-0188,2020-11-18,13:59:22,14:27:03,NA,incomplete,234,number,1,left,Red_Star_Grid_4.jpg,Blue_Triangle_Dots_4.jpg,Red_Circle_Stripes_3.jpg,left,1026.7449999810196,true,high,NA,NA,NA,NA,NA,NA,NA,false
v97vwj8g,3087lxlj7ptluqx9bvztb5ithyq0fq,3e47sobeyu9rlts9fl30yntejo7ic6,v97vwj8g,2020-0188,2020-11-18,13:59:22,14:27:03,NA,incomplete,235,number,1,left,Green_Circle_Dots_4.jpg,Red_Triangle_Grid_4.jpg,Green_Plus_Stripes_3.jpg,left,995.740000042133,true,high,NA,NA,NA,NA,NA,NA,NA,false
v97vwj8g,3087lxlj7ptluqx9bvztb5ithyq0fq,3e47sobeyu9rlts9fl30yntejo7ic6,v97vwj8g,2020-0188,2020-11-18,13:59:22,14:27:03,NA,incomplete,236,number,1,left,Red_Plus_Grid_2.jpg,Blue_Circle_Stripes_2.jpg,Red_Star_Dots_3.jpg,left,1036.3500000094064,true,high,NA,NA,NA,NA,NA,NA,NA,false
v97vwj8g,3087lxlj7ptluqx9bvztb5ithyq0fq,3e47sobeyu9rlts9fl30yntejo7ic6,v97vwj8g,2020-0188,2020-11-18,13:59:22,14:27:03,NA,incomplete,237,number,1,left,Red_Plus_Grid_2.jpg,Green_Star_Chess_2.jpg,Red_Circle_Dots_1.jpg,left,845.484999998007,true,high,NA,NA,NA,NA,NA,NA,NA,false
v97vwj8g,3087lxlj7ptluqx9bvztb5ithyq0fq,3e47sobeyu9rlts9fl30yntejo7ic6,v97vwj8g,2020-0188,2020-11-18,13:59:22,14:27:03,NA,incomplete,238,number,1,right,Blue_Triangle_Grid_1.jpg,Blue_Plus_Stripes_3.jpg,Green_Circle_Chess_1.jpg,right,787.1300000115298,true,high,NA,NA,NA,NA,NA,NA,NA,false
v97vwj8g,3087lxlj7ptluqx9bvztb5ithyq0fq,3e47sobeyu9rlts9fl30yntejo7ic6,v97vwj8g,2020-0188,2020-11-18,13:59:22,14:27:03,NA,incomplete,239,number,1,right,Blue_Plus_Chess_2.jpg,Blue_Triangle_Stripes_3.jpg,Green_Circle_Dots_2.jpg,right,890.1800000458024,true,high,NA,NA,NA,NA,NA,NA,NA,false
v97vwj8g,3087lxlj7ptluqx9bvztb5ithyq0fq,3e47sobeyu9rlts9fl30yntejo7ic6,v97vwj8g,2020-0188,2020-11-18,13:59:22,14:27:03,NA,NA,instruction example,shape,NA,NA,Red_Triangle_Grid_4.jpg,Blue_Triangle_Chess_1.jpg,Purple_Circle_Grid_2.jpg,NA,NA,NA,NA,NA,NA,NA,NA,NA,NA,NA,undefined
v97vwj8g,3087lxlj7ptluqx9bvztb5ithyq0fq,3e47sobeyu9rlts9fl30yntejo7ic6,v97vwj8g,2020-0188,2020-11-18,13:59:22,14:27:03,NA,NA,instruction example,shape,NA,NA,Red_Triangle_Grid_4.jpg,Green_Star_Grid_2.jpg,Blue_Triangle_Dots_3.jpg,NA,NA,NA,NA,NA,NA,NA,NA,NA,NA,NA,undefined
v97vwj8g,3087lxlj7ptluqx9bvztb5ithyq0fq,3e47sobeyu9rlts9fl30yntejo7ic6,v97vwj8g,2020-0188,2020-11-18,13:59:22,14:27:03,NA,NA,instruction example,shape,NA,NA,Blue_Circle_Chess_1.jpg,Blue_Triangle_Dots_4.jpg,Green_Star_Grid_1.jpg,NA,NA,NA,NA,NA,NA,NA,NA,NA,NA,NA,undefined
v97vwj8g,3087lxlj7ptluqx9bvztb5ithyq0fq,3e47sobeyu9rlts9fl30yntejo7ic6,v97vwj8g,2020-0188,2020-11-18,13:59:22,14:27:03,NA,NA,instruction example,shape,NA,NA,Purple_Circle_Chess_3.jpg,Green_Plus_Stripes_3.jpg,Purple_Star_Dots_4.jpg,NA,NA,NA,NA,NA,NA,NA,NA,NA,NA,NA,undefined
v97vwj8g,3087lxlj7ptluqx9bvztb5ithyq0fq,3e47sobeyu9rlts9fl30yntejo7ic6,v97vwj8g,2020-0188,2020-11-18,13:59:22,14:27:03,1628348.415000015,1662048.215000017,NA,NA,NA,NA,NA,NA,NA,NA,NA,NA,NA,76,White/Caucasian,Male,White,no,yes,no,undefined
