workerId,hitId,assignmentId,subject,studyid,exp_date,exp_start,exp_end,time_start,time_end,trial,type,reward_validity,answer,image_top,image_left,image_right,response,response_time,response_acc,volatility,age,race,gender,ethnicity,color,vision,neuro,practice
pknCbhal,3j6bhnx0vc5zv8hudcso2u6bq3dnka,3e4gguz1tc45t6qvivz6zqz418fk2k,pknCbhal,2020-0188,2020-05-21,21:06:54,21:20:50,NA,incomplete,0,number,1,left,Blue_Circle_Dots_2.jpg,Purple_Triangle_Chess_2.jpg,Blue_Plus_Stripes_4.jpg,left,1680.0999999977648,true,NA,NA,NA,NA,NA,NA,NA,NA,true
pknCbhal,3j6bhnx0vc5zv8hudcso2u6bq3dnka,3e4gguz1tc45t6qvivz6zqz418fk2k,pknCbhal,2020-0188,2020-05-21,21:06:54,21:20:50,NA,incomplete,1,number,1,left,Purple_Triangle_Chess_1.jpg,Red_Circle_Grid_1.jpg,Purple_Plus_Stripes_3.jpg,left,1128.740000000107,true,NA,NA,NA,NA,NA,NA,NA,NA,true
pknCbhal,3j6bhnx0vc5zv8hudcso2u6bq3dnka,3e4gguz1tc45t6qvivz6zqz418fk2k,pknCbhal,2020-0188,2020-05-21,21:06:54,21:20:50,NA,incomplete,2,number,1,left,Green_Triangle_Grid_2.jpg,Purple_Plus_Stripes_2.jpg,Green_Star_Chess_1.jpg,left,951.535000000149,true,NA,NA,NA,NA,NA,NA,NA,NA,true
pknCbhal,3j6bhnx0vc5zv8hudcso2u6bq3dnka,3e4gguz1tc45t6qvivz6zqz418fk2k,pknCbhal,2020-0188,2020-05-21,21:06:54,21:20:50,NA,incomplete,3,number,0,right,Green_Plus_Dots_3.jpg,Green_Triangle_Stripes_1.jpg,Blue_Circle_Grid_3.jpg,right,741.1099999881117,true,NA,NA,NA,NA,NA,NA,NA,NA,true
pknCbhal,3j6bhnx0vc5zv8hudcso2u6bq3dnka,3e4gguz1tc45t6qvivz6zqz418fk2k,pknCbhal,2020-0188,2020-05-21,21:06:54,21:20:50,NA,incomplete,4,number,1,left,Blue_Circle_Dots_3.jpg,Green_Plus_Chess_3.jpg,Blue_Star_Stripes_1.jpg,left,771.8450000102166,true,NA,NA,NA,NA,NA,NA,NA,NA,true
pknCbhal,3j6bhnx0vc5zv8hudcso2u6bq3dnka,3e4gguz1tc45t6qvivz6zqz418fk2k,pknCbhal,2020-0188,2020-05-21,21:06:54,21:20:50,NA,incomplete,5,number,1,left,Red_Plus_Stripes_3.jpg,Green_Star_Grid_3.jpg,Red_Circle_Dots_2.jpg,left,472.64500000164844,true,NA,NA,NA,NA,NA,NA,NA,NA,true
pknCbhal,3j6bhnx0vc5zv8hudcso2u6bq3dnka,3e4gguz1tc45t6qvivz6zqz418fk2k,pknCbhal,2020-0188,2020-05-21,21:06:54,21:20:50,NA,incomplete,6,number,1,right,Blue_Circle_Chess_3.jpg,Blue_Plus_Dots_4.jpg,Red_Star_Grid_3.jpg,right,1073.9350000076229,true,NA,NA,NA,NA,NA,NA,NA,NA,true
pknCbhal,3j6bhnx0vc5zv8hudcso2u6bq3dnka,3e4gguz1tc45t6qvivz6zqz418fk2k,pknCbhal,2020-0188,2020-05-21,21:06:54,21:20:50,NA,incomplete,7,number,0,right,Blue_Triangle_Dots_1.jpg,Blue_Plus_Stripes_4.jpg,Green_Circle_Grid_1.jpg,right,754.6199999924283,true,NA,NA,NA,NA,NA,NA,NA,NA,true
pknCbhal,3j6bhnx0vc5zv8hudcso2u6bq3dnka,3e4gguz1tc45t6qvivz6zqz418fk2k,pknCbhal,2020-0188,2020-05-21,21:06:54,21:20:50,NA,incomplete,8,number,1,left,Green_Triangle_Dots_1.jpg,Blue_Circle_Stripes_1.jpg,Green_Star_Grid_3.jpg,left,767.8049999958603,true,NA,NA,NA,NA,NA,NA,NA,NA,true
pknCbhal,3j6bhnx0vc5zv8hudcso2u6bq3dnka,3e4gguz1tc45t6qvivz6zqz418fk2k,pknCbhal,2020-0188,2020-05-21,21:06:54,21:20:50,NA,incomplete,9,number,0,left,Blue_Star_Grid_3.jpg,Green_Triangle_Stripes_3.jpg,Blue_Circle_Dots_4.jpg,left,693.5299999895506,true,NA,NA,NA,NA,NA,NA,NA,NA,true
pknCbhal,3j6bhnx0vc5zv8hudcso2u6bq3dnka,3e4gguz1tc45t6qvivz6zqz418fk2k,pknCbhal,2020-0188,2020-05-21,21:06:54,21:20:50,NA,incomplete,10,number,1,left,Blue_Star_Grid_4.jpg,Purple_Triangle_Dots_4.jpg,Blue_Circle_Chess_3.jpg,left,765.3149999969173,true,NA,NA,NA,NA,NA,NA,NA,NA,true
pknCbhal,3j6bhnx0vc5zv8hudcso2u6bq3dnka,3e4gguz1tc45t6qvivz6zqz418fk2k,pknCbhal,2020-0188,2020-05-21,21:06:54,21:20:50,NA,incomplete,11,number,1,left,Purple_Star_Stripes_2.jpg,Green_Triangle_Grid_2.jpg,Purple_Plus_Chess_4.jpg,left,922.7200000023004,true,NA,NA,NA,NA,NA,NA,NA,NA,true
pknCbhal,3j6bhnx0vc5zv8hudcso2u6bq3dnka,3e4gguz1tc45t6qvivz6zqz418fk2k,pknCbhal,2020-0188,2020-05-21,21:06:54,21:20:50,NA,incomplete,12,number,1,left,Green_Plus_Dots_1.jpg,Red_Star_Stripes_1.jpg,Green_Circle_Chess_4.jpg,left,649.569999994128,true,NA,NA,NA,NA,NA,NA,NA,NA,true
pknCbhal,3j6bhnx0vc5zv8hudcso2u6bq3dnka,3e4gguz1tc45t6qvivz6zqz418fk2k,pknCbhal,2020-0188,2020-05-21,21:06:54,21:20:50,NA,incomplete,13,number,1,left,Green_Circle_Chess_2.jpg,Blue_Plus_Grid_2.jpg,Green_Star_Dots_3.jpg,left,612.0450000016717,true,NA,NA,NA,NA,NA,NA,NA,NA,true
pknCbhal,3j6bhnx0vc5zv8hudcso2u6bq3dnka,3e4gguz1tc45t6qvivz6zqz418fk2k,pknCbhal,2020-0188,2020-05-21,21:06:54,21:20:50,NA,incomplete,14,number,0,right,Green_Star_Stripes_1.jpg,Green_Triangle_Grid_4.jpg,Purple_Plus_Dots_1.jpg,right,784.205000003567,true,NA,NA,NA,NA,NA,NA,NA,NA,true
pknCbhal,3j6bhnx0vc5zv8hudcso2u6bq3dnka,3e4gguz1tc45t6qvivz6zqz418fk2k,pknCbhal,2020-0188,2020-05-21,21:06:54,21:20:50,NA,incomplete,15,number,1,right,Red_Circle_Chess_1.jpg,Red_Plus_Stripes_4.jpg,Purple_Star_Dots_1.jpg,right,587.8599999996368,true,NA,NA,NA,NA,NA,NA,NA,NA,true
pknCbhal,3j6bhnx0vc5zv8hudcso2u6bq3dnka,3e4gguz1tc45t6qvivz6zqz418fk2k,pknCbhal,2020-0188,2020-05-21,21:06:54,21:20:50,NA,incomplete,16,number,1,left,Red_Triangle_Stripes_2.jpg,Purple_Plus_Chess_2.jpg,Red_Circle_Dots_1.jpg,left,752.8800000000047,true,NA,NA,NA,NA,NA,NA,NA,NA,true
pknCbhal,3j6bhnx0vc5zv8hudcso2u6bq3dnka,3e4gguz1tc45t6qvivz6zqz418fk2k,pknCbhal,2020-0188,2020-05-21,21:06:54,21:20:50,NA,incomplete,17,number,1,right,Green_Circle_Stripes_4.jpg,Green_Star_Dots_1.jpg,Blue_Plus_Grid_4.jpg,right,846.0599999962142,true,NA,NA,NA,NA,NA,NA,NA,NA,true
pknCbhal,3j6bhnx0vc5zv8hudcso2u6bq3dnka,3e4gguz1tc45t6qvivz6zqz418fk2k,pknCbhal,2020-0188,2020-05-21,21:06:54,21:20:50,NA,incomplete,18,number,1,right,Red_Circle_Chess_1.jpg,Red_Triangle_Stripes_3.jpg,Purple_Plus_Dots_1.jpg,right,856.1550000013085,true,NA,NA,NA,NA,NA,NA,NA,NA,true
pknCbhal,3j6bhnx0vc5zv8hudcso2u6bq3dnka,3e4gguz1tc45t6qvivz6zqz418fk2k,pknCbhal,2020-0188,2020-05-21,21:06:54,21:20:50,NA,incomplete,19,number,1,right,Red_Plus_Grid_2.jpg,Red_Star_Stripes_3.jpg,Green_Circle_Chess_2.jpg,right,490.3500000073109,true,NA,NA,NA,NA,NA,NA,NA,NA,true
pknCbhal,3j6bhnx0vc5zv8hudcso2u6bq3dnka,3e4gguz1tc45t6qvivz6zqz418fk2k,pknCbhal,2020-0188,2020-05-21,21:06:54,21:20:50,NA,incomplete,20,color,0,left,Red_Plus_Dots_4.jpg,Red_Triangle_Stripes_2.jpg,Blue_Star_Chess_4.jpg,right,938.2900000055088,false,NA,NA,NA,NA,NA,NA,NA,NA,true
pknCbhal,3j6bhnx0vc5zv8hudcso2u6bq3dnka,3e4gguz1tc45t6qvivz6zqz418fk2k,pknCbhal,2020-0188,2020-05-21,21:06:54,21:20:50,NA,incomplete,21,color,1,left,Green_Circle_Stripes_2.jpg,Green_Plus_Grid_3.jpg,Red_Triangle_Dots_2.jpg,left,640.384999991511,true,NA,NA,NA,NA,NA,NA,NA,NA,true
pknCbhal,3j6bhnx0vc5zv8hudcso2u6bq3dnka,3e4gguz1tc45t6qvivz6zqz418fk2k,pknCbhal,2020-0188,2020-05-21,21:06:54,21:20:50,NA,incomplete,22,color,1,right,Red_Star_Dots_1.jpg,Purple_Plus_Chess_1.jpg,Red_Circle_Stripes_2.jpg,right,946.6350000002421,true,NA,NA,NA,NA,NA,NA,NA,NA,true
pknCbhal,3j6bhnx0vc5zv8hudcso2u6bq3dnka,3e4gguz1tc45t6qvivz6zqz418fk2k,pknCbhal,2020-0188,2020-05-21,21:06:54,21:20:50,NA,incomplete,23,color,1,right,Purple_Circle_Grid_4.jpg,Green_Plus_Stripes_4.jpg,Purple_Star_Chess_1.jpg,right,840.8800000033807,true,NA,NA,NA,NA,NA,NA,NA,NA,true
pknCbhal,3j6bhnx0vc5zv8hudcso2u6bq3dnka,3e4gguz1tc45t6qvivz6zqz418fk2k,pknCbhal,2020-0188,2020-05-21,21:06:54,21:20:50,NA,incomplete,24,color,1,left,Red_Circle_Chess_4.jpg,Red_Triangle_Stripes_2.jpg,Green_Star_Dots_4.jpg,left,587.7299999992829,true,NA,NA,NA,NA,NA,NA,NA,NA,true
pknCbhal,3j6bhnx0vc5zv8hudcso2u6bq3dnka,3e4gguz1tc45t6qvivz6zqz418fk2k,pknCbhal,2020-0188,2020-05-21,21:06:54,21:20:50,NA,incomplete,25,color,1,right,Blue_Star_Stripes_3.jpg,Red_Triangle_Dots_3.jpg,Blue_Circle_Chess_1.jpg,right,743.4499999944819,true,NA,NA,NA,NA,NA,NA,NA,NA,true
pknCbhal,3j6bhnx0vc5zv8hudcso2u6bq3dnka,3e4gguz1tc45t6qvivz6zqz418fk2k,pknCbhal,2020-0188,2020-05-21,21:06:54,21:20:50,NA,incomplete,26,color,1,left,Purple_Circle_Stripes_1.jpg,Purple_Star_Dots_2.jpg,Green_Plus_Chess_1.jpg,left,605.7700000092154,true,NA,NA,NA,NA,NA,NA,NA,NA,true
pknCbhal,3j6bhnx0vc5zv8hudcso2u6bq3dnka,3e4gguz1tc45t6qvivz6zqz418fk2k,pknCbhal,2020-0188,2020-05-21,21:06:54,21:20:50,NA,incomplete,27,color,1,left,Green_Plus_Chess_2.jpg,Green_Circle_Stripes_4.jpg,Purple_Star_Grid_2.jpg,left,865.4850000020815,true,NA,NA,NA,NA,NA,NA,NA,NA,true
pknCbhal,3j6bhnx0vc5zv8hudcso2u6bq3dnka,3e4gguz1tc45t6qvivz6zqz418fk2k,pknCbhal,2020-0188,2020-05-21,21:06:54,21:20:50,NA,incomplete,28,color,1,left,Blue_Plus_Dots_2.jpg,Blue_Triangle_Grid_4.jpg,Purple_Circle_Chess_2.jpg,left,538.8649999949848,true,NA,NA,NA,NA,NA,NA,NA,NA,true
pknCbhal,3j6bhnx0vc5zv8hudcso2u6bq3dnka,3e4gguz1tc45t6qvivz6zqz418fk2k,pknCbhal,2020-0188,2020-05-21,21:06:54,21:20:50,NA,incomplete,29,color,1,right,Purple_Triangle_Chess_2.jpg,Green_Star_Stripes_2.jpg,Purple_Circle_Dots_4.jpg,right,1033.7499999877764,true,NA,NA,NA,NA,NA,NA,NA,NA,true
pknCbhal,3j6bhnx0vc5zv8hudcso2u6bq3dnka,3e4gguz1tc45t6qvivz6zqz418fk2k,pknCbhal,2020-0188,2020-05-21,21:06:54,21:20:50,NA,incomplete,30,color,0,left,Red_Star_Stripes_4.jpg,Red_Plus_Dots_1.jpg,Purple_Triangle_Grid_4.jpg,right,1179.4200000003912,false,NA,NA,NA,NA,NA,NA,NA,NA,true
pknCbhal,3j6bhnx0vc5zv8hudcso2u6bq3dnka,3e4gguz1tc45t6qvivz6zqz418fk2k,pknCbhal,2020-0188,2020-05-21,21:06:54,21:20:50,NA,incomplete,31,color,1,left,Blue_Triangle_Grid_2.jpg,Blue_Plus_Stripes_1.jpg,Purple_Star_Dots_2.jpg,left,536.4649999974063,true,NA,NA,NA,NA,NA,NA,NA,NA,true
pknCbhal,3j6bhnx0vc5zv8hudcso2u6bq3dnka,3e4gguz1tc45t6qvivz6zqz418fk2k,pknCbhal,2020-0188,2020-05-21,21:06:54,21:20:50,NA,incomplete,32,color,0,right,Blue_Star_Chess_4.jpg,Green_Circle_Stripes_4.jpg,Blue_Plus_Grid_2.jpg,right,694.6650000027148,true,NA,NA,NA,NA,NA,NA,NA,NA,true
pknCbhal,3j6bhnx0vc5zv8hudcso2u6bq3dnka,3e4gguz1tc45t6qvivz6zqz418fk2k,pknCbhal,2020-0188,2020-05-21,21:06:54,21:20:50,NA,incomplete,33,color,1,right,Blue_Plus_Chess_2.jpg,Red_Triangle_Stripes_2.jpg,Blue_Circle_Dots_3.jpg,right,1158.914999992703,true,NA,NA,NA,NA,NA,NA,NA,NA,true
pknCbhal,3j6bhnx0vc5zv8hudcso2u6bq3dnka,3e4gguz1tc45t6qvivz6zqz418fk2k,pknCbhal,2020-0188,2020-05-21,21:06:54,21:20:50,NA,incomplete,34,color,1,left,Green_Circle_Grid_2.jpg,Green_Triangle_Chess_4.jpg,Purple_Plus_Dots_2.jpg,left,916.9199999887496,true,NA,NA,NA,NA,NA,NA,NA,NA,true
pknCbhal,3j6bhnx0vc5zv8hudcso2u6bq3dnka,3e4gguz1tc45t6qvivz6zqz418fk2k,pknCbhal,2020-0188,2020-05-21,21:06:54,21:20:50,NA,incomplete,35,color,0,right,Red_Circle_Chess_4.jpg,Green_Star_Dots_4.jpg,Red_Triangle_Grid_1.jpg,right,796.6949999972712,true,NA,NA,NA,NA,NA,NA,NA,NA,true
pknCbhal,3j6bhnx0vc5zv8hudcso2u6bq3dnka,3e4gguz1tc45t6qvivz6zqz418fk2k,pknCbhal,2020-0188,2020-05-21,21:06:54,21:20:50,NA,incomplete,36,color,1,right,Green_Circle_Dots_2.jpg,Blue_Plus_Stripes_2.jpg,Green_Star_Grid_4.jpg,right,448.35999999486376,true,NA,NA,NA,NA,NA,NA,NA,NA,true
pknCbhal,3j6bhnx0vc5zv8hudcso2u6bq3dnka,3e4gguz1tc45t6qvivz6zqz418fk2k,pknCbhal,2020-0188,2020-05-21,21:06:54,21:20:50,NA,incomplete,37,color,1,right,Green_Circle_Dots_3.jpg,Purple_Triangle_Grid_3.jpg,Green_Star_Stripes_2.jpg,right,698.8550000096438,true,NA,NA,NA,NA,NA,NA,NA,NA,true
pknCbhal,3j6bhnx0vc5zv8hudcso2u6bq3dnka,3e4gguz1tc45t6qvivz6zqz418fk2k,pknCbhal,2020-0188,2020-05-21,21:06:54,21:20:50,NA,incomplete,38,color,1,left,Green_Star_Grid_1.jpg,Green_Plus_Stripes_2.jpg,Blue_Triangle_Chess_1.jpg,left,490.9449999977369,true,NA,NA,NA,NA,NA,NA,NA,NA,true
pknCbhal,3j6bhnx0vc5zv8hudcso2u6bq3dnka,3e4gguz1tc45t6qvivz6zqz418fk2k,pknCbhal,2020-0188,2020-05-21,21:06:54,21:20:50,NA,incomplete,39,color,1,left,Green_Plus_Dots_2.jpg,Green_Star_Grid_1.jpg,Blue_Circle_Chess_2.jpg,left,523.8550000067335,true,NA,NA,NA,NA,NA,NA,NA,NA,true
pknCbhal,3j6bhnx0vc5zv8hudcso2u6bq3dnka,3e4gguz1tc45t6qvivz6zqz418fk2k,pknCbhal,2020-0188,2020-05-21,21:06:54,21:20:50,NA,incomplete,0,number,1,right,Red_Star_Dots_3.jpg,Red_Triangle_Chess_2.jpg,Blue_Circle_Stripes_3.jpg,right,748.489999998128,true,low,NA,NA,NA,NA,NA,NA,NA,false
pknCbhal,3j6bhnx0vc5zv8hudcso2u6bq3dnka,3e4gguz1tc45t6qvivz6zqz418fk2k,pknCbhal,2020-0188,2020-05-21,21:06:54,21:20:50,NA,incomplete,1,number,1,left,Red_Circle_Grid_3.jpg,Green_Triangle_Stripes_3.jpg,Red_Star_Dots_2.jpg,right,514.8849999968661,false,low,NA,NA,NA,NA,NA,NA,NA,false
pknCbhal,3j6bhnx0vc5zv8hudcso2u6bq3dnka,3e4gguz1tc45t6qvivz6zqz418fk2k,pknCbhal,2020-0188,2020-05-21,21:06:54,21:20:50,NA,incomplete,2,number,1,right,Purple_Star_Dots_3.jpg,Purple_Circle_Stripes_4.jpg,Green_Plus_Chess_3.jpg,right,594.584999998915,true,low,NA,NA,NA,NA,NA,NA,NA,false
pknCbhal,3j6bhnx0vc5zv8hudcso2u6bq3dnka,3e4gguz1tc45t6qvivz6zqz418fk2k,pknCbhal,2020-0188,2020-05-21,21:06:54,21:20:50,NA,incomplete,3,number,1,right,Blue_Triangle_Stripes_4.jpg,Blue_Circle_Dots_2.jpg,Purple_Plus_Chess_4.jpg,right,670.6999999878462,true,low,NA,NA,NA,NA,NA,NA,NA,false
pknCbhal,3j6bhnx0vc5zv8hudcso2u6bq3dnka,3e4gguz1tc45t6qvivz6zqz418fk2k,pknCbhal,2020-0188,2020-05-21,21:06:54,21:20:50,NA,incomplete,4,number,1,left,Red_Triangle_Stripes_2.jpg,Purple_Circle_Chess_2.jpg,Red_Star_Dots_4.jpg,left,696.2250000069616,true,low,NA,NA,NA,NA,NA,NA,NA,false
pknCbhal,3j6bhnx0vc5zv8hudcso2u6bq3dnka,3e4gguz1tc45t6qvivz6zqz418fk2k,pknCbhal,2020-0188,2020-05-21,21:06:54,21:20:50,NA,incomplete,5,number,0,left,Purple_Plus_Chess_4.jpg,Green_Triangle_Grid_4.jpg,Purple_Star_Dots_3.jpg,left,880.0699999992503,true,low,NA,NA,NA,NA,NA,NA,NA,false
pknCbhal,3j6bhnx0vc5zv8hudcso2u6bq3dnka,3e4gguz1tc45t6qvivz6zqz418fk2k,pknCbhal,2020-0188,2020-05-21,21:06:54,21:20:50,NA,incomplete,6,number,1,left,Green_Plus_Chess_3.jpg,Purple_Triangle_Stripes_3.jpg,Green_Star_Dots_1.jpg,left,521.1100000014994,true,low,NA,NA,NA,NA,NA,NA,NA,false
pknCbhal,3j6bhnx0vc5zv8hudcso2u6bq3dnka,3e4gguz1tc45t6qvivz6zqz418fk2k,pknCbhal,2020-0188,2020-05-21,21:06:54,21:20:50,NA,incomplete,7,number,0,right,Green_Circle_Grid_3.jpg,Green_Plus_Dots_2.jpg,Red_Star_Chess_3.jpg,right,559.9450000008801,true,low,NA,NA,NA,NA,NA,NA,NA,false
pknCbhal,3j6bhnx0vc5zv8hudcso2u6bq3dnka,3e4gguz1tc45t6qvivz6zqz418fk2k,pknCbhal,2020-0188,2020-05-21,21:06:54,21:20:50,NA,incomplete,8,number,0,left,Red_Plus_Dots_3.jpg,Purple_Triangle_Stripes_3.jpg,Red_Star_Chess_4.jpg,left,606.0449999931734,true,low,NA,NA,NA,NA,NA,NA,NA,false
pknCbhal,3j6bhnx0vc5zv8hudcso2u6bq3dnka,3e4gguz1tc45t6qvivz6zqz418fk2k,pknCbhal,2020-0188,2020-05-21,21:06:54,21:20:50,NA,incomplete,9,number,1,left,Blue_Star_Dots_1.jpg,Red_Plus_Stripes_1.jpg,Blue_Circle_Grid_4.jpg,left,569.9150000000373,true,low,NA,NA,NA,NA,NA,NA,NA,false
pknCbhal,3j6bhnx0vc5zv8hudcso2u6bq3dnka,3e4gguz1tc45t6qvivz6zqz418fk2k,pknCbhal,2020-0188,2020-05-21,21:06:54,21:20:50,NA,incomplete,10,number,1,right,Red_Circle_Grid_2.jpg,Red_Triangle_Stripes_1.jpg,Purple_Plus_Dots_2.jpg,right,630.2149999974063,true,low,NA,NA,NA,NA,NA,NA,NA,false
pknCbhal,3j6bhnx0vc5zv8hudcso2u6bq3dnka,3e4gguz1tc45t6qvivz6zqz418fk2k,pknCbhal,2020-0188,2020-05-21,21:06:54,21:20:50,NA,incomplete,11,number,1,right,Purple_Triangle_Dots_2.jpg,Purple_Plus_Grid_4.jpg,Blue_Star_Stripes_2.jpg,right,609.2199999984587,true,low,NA,NA,NA,NA,NA,NA,NA,false
pknCbhal,3j6bhnx0vc5zv8hudcso2u6bq3dnka,3e4gguz1tc45t6qvivz6zqz418fk2k,pknCbhal,2020-0188,2020-05-21,21:06:54,21:20:50,NA,incomplete,12,number,1,left,Green_Star_Dots_3.jpg,Red_Triangle_Stripes_3.jpg,Green_Circle_Chess_2.jpg,left,540.8999999926891,true,low,NA,NA,NA,NA,NA,NA,NA,false
pknCbhal,3j6bhnx0vc5zv8hudcso2u6bq3dnka,3e4gguz1tc45t6qvivz6zqz418fk2k,pknCbhal,2020-0188,2020-05-21,21:06:54,21:20:50,NA,incomplete,13,number,1,right,Purple_Plus_Chess_1.jpg,Purple_Circle_Dots_2.jpg,Blue_Star_Grid_1.jpg,right,523.2249999971827,true,low,NA,NA,NA,NA,NA,NA,NA,false
pknCbhal,3j6bhnx0vc5zv8hudcso2u6bq3dnka,3e4gguz1tc45t6qvivz6zqz418fk2k,pknCbhal,2020-0188,2020-05-21,21:06:54,21:20:50,NA,incomplete,14,number,1,left,Green_Plus_Chess_2.jpg,Red_Star_Dots_2.jpg,Green_Circle_Stripes_3.jpg,left,858.8400000007823,true,low,NA,NA,NA,NA,NA,NA,NA,false
pknCbhal,3j6bhnx0vc5zv8hudcso2u6bq3dnka,3e4gguz1tc45t6qvivz6zqz418fk2k,pknCbhal,2020-0188,2020-05-21,21:06:54,21:20:50,NA,incomplete,15,number,0,left,Red_Plus_Dots_3.jpg,Blue_Star_Chess_3.jpg,Red_Triangle_Stripes_1.jpg,left,547.6549999875715,true,low,NA,NA,NA,NA,NA,NA,NA,false
pknCbhal,3j6bhnx0vc5zv8hudcso2u6bq3dnka,3e4gguz1tc45t6qvivz6zqz418fk2k,pknCbhal,2020-0188,2020-05-21,21:06:54,21:20:50,NA,incomplete,16,number,1,right,Purple_Plus_Stripes_1.jpg,Purple_Circle_Dots_3.jpg,Blue_Triangle_Chess_1.jpg,right,474.1550000035204,true,low,NA,NA,NA,NA,NA,NA,NA,false
pknCbhal,3j6bhnx0vc5zv8hudcso2u6bq3dnka,3e4gguz1tc45t6qvivz6zqz418fk2k,pknCbhal,2020-0188,2020-05-21,21:06:54,21:20:50,NA,incomplete,17,number,1,right,Blue_Triangle_Chess_3.jpg,Blue_Circle_Dots_2.jpg,Green_Star_Grid_3.jpg,right,562.869999994291,true,low,NA,NA,NA,NA,NA,NA,NA,false
pknCbhal,3j6bhnx0vc5zv8hudcso2u6bq3dnka,3e4gguz1tc45t6qvivz6zqz418fk2k,pknCbhal,2020-0188,2020-05-21,21:06:54,21:20:50,NA,incomplete,18,number,1,left,Red_Star_Stripes_2.jpg,Blue_Circle_Chess_2.jpg,Red_Plus_Dots_3.jpg,left,528.5900000017136,true,low,NA,NA,NA,NA,NA,NA,NA,false
pknCbhal,3j6bhnx0vc5zv8hudcso2u6bq3dnka,3e4gguz1tc45t6qvivz6zqz418fk2k,pknCbhal,2020-0188,2020-05-21,21:06:54,21:20:50,NA,incomplete,19,number,1,right,Red_Plus_Grid_1.jpg,Red_Circle_Dots_4.jpg,Blue_Star_Chess_1.jpg,right,600.3449999989243,true,low,NA,NA,NA,NA,NA,NA,NA,false
pknCbhal,3j6bhnx0vc5zv8hudcso2u6bq3dnka,3e4gguz1tc45t6qvivz6zqz418fk2k,pknCbhal,2020-0188,2020-05-21,21:06:54,21:20:50,NA,incomplete,20,number,1,left,Red_Plus_Stripes_2.jpg,Purple_Circle_Chess_2.jpg,Red_Star_Dots_4.jpg,left,833.4650000033434,true,low,NA,NA,NA,NA,NA,NA,NA,false
pknCbhal,3j6bhnx0vc5zv8hudcso2u6bq3dnka,3e4gguz1tc45t6qvivz6zqz418fk2k,pknCbhal,2020-0188,2020-05-21,21:06:54,21:20:50,NA,incomplete,21,number,1,right,Blue_Circle_Chess_3.jpg,Blue_Plus_Stripes_1.jpg,Green_Star_Dots_3.jpg,right,663.3699999947567,true,low,NA,NA,NA,NA,NA,NA,NA,false
pknCbhal,3j6bhnx0vc5zv8hudcso2u6bq3dnka,3e4gguz1tc45t6qvivz6zqz418fk2k,pknCbhal,2020-0188,2020-05-21,21:06:54,21:20:50,NA,incomplete,22,number,0,left,Blue_Plus_Chess_4.jpg,Green_Star_Grid_4.jpg,Blue_Triangle_Stripes_2.jpg,left,520.1299999898765,true,low,NA,NA,NA,NA,NA,NA,NA,false
pknCbhal,3j6bhnx0vc5zv8hudcso2u6bq3dnka,3e4gguz1tc45t6qvivz6zqz418fk2k,pknCbhal,2020-0188,2020-05-21,21:06:54,21:20:50,NA,incomplete,23,number,1,left,Blue_Triangle_Dots_4.jpg,Red_Circle_Grid_4.jpg,Blue_Star_Chess_2.jpg,left,814.8800000053598,true,low,NA,NA,NA,NA,NA,NA,NA,false
pknCbhal,3j6bhnx0vc5zv8hudcso2u6bq3dnka,3e4gguz1tc45t6qvivz6zqz418fk2k,pknCbhal,2020-0188,2020-05-21,21:06:54,21:20:50,NA,incomplete,24,number,1,right,Purple_Plus_Chess_4.jpg,Purple_Circle_Dots_1.jpg,Blue_Star_Grid_4.jpg,right,666.9799999945099,true,low,NA,NA,NA,NA,NA,NA,NA,false
pknCbhal,3j6bhnx0vc5zv8hudcso2u6bq3dnka,3e4gguz1tc45t6qvivz6zqz418fk2k,pknCbhal,2020-0188,2020-05-21,21:06:54,21:20:50,NA,incomplete,25,number,1,left,Blue_Circle_Grid_2.jpg,Red_Star_Stripes_2.jpg,Blue_Plus_Dots_4.jpg,left,619.6700000000419,true,low,NA,NA,NA,NA,NA,NA,NA,false
pknCbhal,3j6bhnx0vc5zv8hudcso2u6bq3dnka,3e4gguz1tc45t6qvivz6zqz418fk2k,pknCbhal,2020-0188,2020-05-21,21:06:54,21:20:50,NA,incomplete,26,number,1,left,Green_Triangle_Chess_4.jpg,Red_Star_Stripes_4.jpg,Green_Plus_Grid_3.jpg,left,726.2849999970058,true,low,NA,NA,NA,NA,NA,NA,NA,false
pknCbhal,3j6bhnx0vc5zv8hudcso2u6bq3dnka,3e4gguz1tc45t6qvivz6zqz418fk2k,pknCbhal,2020-0188,2020-05-21,21:06:54,21:20:50,NA,incomplete,27,number,1,right,Red_Triangle_Dots_4.jpg,Red_Plus_Chess_3.jpg,Green_Circle_Stripes_4.jpg,right,805.3450000006706,true,low,NA,NA,NA,NA,NA,NA,NA,false
pknCbhal,3j6bhnx0vc5zv8hudcso2u6bq3dnka,3e4gguz1tc45t6qvivz6zqz418fk2k,pknCbhal,2020-0188,2020-05-21,21:06:54,21:20:50,NA,incomplete,28,number,1,right,Green_Plus_Grid_1.jpg,Green_Circle_Stripes_3.jpg,Purple_Star_Chess_1.jpg,right,640.8299999893643,true,low,NA,NA,NA,NA,NA,NA,NA,false
pknCbhal,3j6bhnx0vc5zv8hudcso2u6bq3dnka,3e4gguz1tc45t6qvivz6zqz418fk2k,pknCbhal,2020-0188,2020-05-21,21:06:54,21:20:50,NA,incomplete,29,number,1,left,Blue_Plus_Stripes_2.jpg,Purple_Triangle_Chess_2.jpg,Blue_Star_Grid_1.jpg,left,523.830000005546,true,low,NA,NA,NA,NA,NA,NA,NA,false
pknCbhal,3j6bhnx0vc5zv8hudcso2u6bq3dnka,3e4gguz1tc45t6qvivz6zqz418fk2k,pknCbhal,2020-0188,2020-05-21,21:06:54,21:20:50,NA,incomplete,30,color,0,right,Blue_Star_Chess_4.jpg,Green_Circle_Grid_4.jpg,Blue_Triangle_Stripes_2.jpg,left,834.1700000019046,false,low,NA,NA,NA,NA,NA,NA,NA,false
pknCbhal,3j6bhnx0vc5zv8hudcso2u6bq3dnka,3e4gguz1tc45t6qvivz6zqz418fk2k,pknCbhal,2020-0188,2020-05-21,21:06:54,21:20:50,NA,incomplete,31,color,1,left,Purple_Circle_Chess_2.jpg,Purple_Plus_Grid_4.jpg,Blue_Star_Dots_2.jpg,right,812.4850000021979,false,low,NA,NA,NA,NA,NA,NA,NA,false
pknCbhal,3j6bhnx0vc5zv8hudcso2u6bq3dnka,3e4gguz1tc45t6qvivz6zqz418fk2k,pknCbhal,2020-0188,2020-05-21,21:06:54,21:20:50,NA,incomplete,32,color,1,left,Green_Star_Stripes_2.jpg,Green_Triangle_Dots_3.jpg,Red_Circle_Grid_2.jpg,right,687.9449999978533,false,low,NA,NA,NA,NA,NA,NA,NA,false
pknCbhal,3j6bhnx0vc5zv8hudcso2u6bq3dnka,3e4gguz1tc45t6qvivz6zqz418fk2k,pknCbhal,2020-0188,2020-05-21,21:06:54,21:20:50,NA,incomplete,33,color,1,left,Red_Star_Dots_1.jpg,Red_Plus_Stripes_2.jpg,Green_Circle_Chess_1.jpg,right,713.0649999890011,false,low,NA,NA,NA,NA,NA,NA,NA,false
pknCbhal,3j6bhnx0vc5zv8hudcso2u6bq3dnka,3e4gguz1tc45t6qvivz6zqz418fk2k,pknCbhal,2020-0188,2020-05-21,21:06:54,21:20:50,NA,incomplete,34,color,1,right,Red_Star_Stripes_1.jpg,Purple_Circle_Grid_1.jpg,Red_Triangle_Chess_3.jpg,left,808.6349999939557,false,low,NA,NA,NA,NA,NA,NA,NA,false
pknCbhal,3j6bhnx0vc5zv8hudcso2u6bq3dnka,3e4gguz1tc45t6qvivz6zqz418fk2k,pknCbhal,2020-0188,2020-05-21,21:06:54,21:20:50,NA,incomplete,35,color,1,right,Blue_Triangle_Dots_2.jpg,Red_Circle_Chess_2.jpg,Blue_Star_Grid_3.jpg,left,763.7649999960558,false,low,NA,NA,NA,NA,NA,NA,NA,false
pknCbhal,3j6bhnx0vc5zv8hudcso2u6bq3dnka,3e4gguz1tc45t6qvivz6zqz418fk2k,pknCbhal,2020-0188,2020-05-21,21:06:54,21:20:50,NA,incomplete,36,color,1,left,Blue_Circle_Dots_1.jpg,Blue_Star_Stripes_4.jpg,Red_Triangle_Grid_1.jpg,right,505.19499999063555,false,low,NA,NA,NA,NA,NA,NA,NA,false
pknCbhal,3j6bhnx0vc5zv8hudcso2u6bq3dnka,3e4gguz1tc45t6qvivz6zqz418fk2k,pknCbhal,2020-0188,2020-05-21,21:06:54,21:20:50,NA,incomplete,37,color,0,right,Green_Triangle_Stripes_4.jpg,Purple_Plus_Grid_4.jpg,Green_Circle_Dots_1.jpg,left,640.7799999869894,false,low,NA,NA,NA,NA,NA,NA,NA,false
pknCbhal,3j6bhnx0vc5zv8hudcso2u6bq3dnka,3e4gguz1tc45t6qvivz6zqz418fk2k,pknCbhal,2020-0188,2020-05-21,21:06:54,21:20:50,NA,incomplete,38,color,1,left,Blue_Triangle_Grid_2.jpg,Blue_Circle_Stripes_1.jpg,Purple_Star_Chess_2.jpg,right,699.189999999362,false,low,NA,NA,NA,NA,NA,NA,NA,false
pknCbhal,3j6bhnx0vc5zv8hudcso2u6bq3dnka,3e4gguz1tc45t6qvivz6zqz418fk2k,pknCbhal,2020-0188,2020-05-21,21:06:54,21:20:50,NA,incomplete,39,color,1,left,Red_Circle_Grid_3.jpg,Red_Star_Chess_1.jpg,Green_Triangle_Stripes_3.jpg,right,580.0250000029337,false,low,NA,NA,NA,NA,NA,NA,NA,false
pknCbhal,3j6bhnx0vc5zv8hudcso2u6bq3dnka,3e4gguz1tc45t6qvivz6zqz418fk2k,pknCbhal,2020-0188,2020-05-21,21:06:54,21:20:50,NA,incomplete,40,color,1,right,Blue_Plus_Dots_4.jpg,Green_Star_Grid_4.jpg,Blue_Circle_Stripes_1.jpg,left,488.64500000490807,false,low,NA,NA,NA,NA,NA,NA,NA,false
pknCbhal,3j6bhnx0vc5zv8hudcso2u6bq3dnka,3e4gguz1tc45t6qvivz6zqz418fk2k,pknCbhal,2020-0188,2020-05-21,21:06:54,21:20:50,NA,incomplete,41,color,1,left,Purple_Triangle_Stripes_2.jpg,Purple_Circle_Chess_4.jpg,Red_Star_Grid_2.jpg,right,1168.600000004517,false,low,NA,NA,NA,NA,NA,NA,NA,false
pknCbhal,3j6bhnx0vc5zv8hudcso2u6bq3dnka,3e4gguz1tc45t6qvivz6zqz418fk2k,pknCbhal,2020-0188,2020-05-21,21:06:54,21:20:50,NA,incomplete,42,color,1,left,Red_Star_Stripes_1.jpg,Red_Triangle_Dots_3.jpg,Purple_Plus_Chess_1.jpg,right,1285.5299999937415,false,low,NA,NA,NA,NA,NA,NA,NA,false
pknCbhal,3j6bhnx0vc5zv8hudcso2u6bq3dnka,3e4gguz1tc45t6qvivz6zqz418fk2k,pknCbhal,2020-0188,2020-05-21,21:06:54,21:20:50,NA,incomplete,43,color,1,right,Green_Circle_Stripes_2.jpg,Purple_Plus_Grid_2.jpg,Green_Triangle_Dots_4.jpg,right,413.9349999895785,true,low,NA,NA,NA,NA,NA,NA,NA,false
pknCbhal,3j6bhnx0vc5zv8hudcso2u6bq3dnka,3e4gguz1tc45t6qvivz6zqz418fk2k,pknCbhal,2020-0188,2020-05-21,21:06:54,21:20:50,NA,incomplete,44,color,1,left,Purple_Star_Dots_3.jpg,Purple_Plus_Chess_1.jpg,Red_Triangle_Stripes_3.jpg,left,610.1649999909569,true,low,NA,NA,NA,NA,NA,NA,NA,false
pknCbhal,3j6bhnx0vc5zv8hudcso2u6bq3dnka,3e4gguz1tc45t6qvivz6zqz418fk2k,pknCbhal,2020-0188,2020-05-21,21:06:54,21:20:50,NA,incomplete,45,color,1,right,Purple_Circle_Chess_1.jpg,Blue_Plus_Grid_1.jpg,Purple_Star_Stripes_4.jpg,right,533.1200000073295,true,low,NA,NA,NA,NA,NA,NA,NA,false
pknCbhal,3j6bhnx0vc5zv8hudcso2u6bq3dnka,3e4gguz1tc45t6qvivz6zqz418fk2k,pknCbhal,2020-0188,2020-05-21,21:06:54,21:20:50,NA,incomplete,46,color,1,left,Purple_Star_Grid_3.jpg,Purple_Triangle_Chess_1.jpg,Red_Plus_Dots_3.jpg,left,451.99000000138767,true,low,NA,NA,NA,NA,NA,NA,NA,false
pknCbhal,3j6bhnx0vc5zv8hudcso2u6bq3dnka,3e4gguz1tc45t6qvivz6zqz418fk2k,pknCbhal,2020-0188,2020-05-21,21:06:54,21:20:50,NA,incomplete,47,color,1,right,Red_Triangle_Dots_4.jpg,Green_Plus_Stripes_4.jpg,Red_Circle_Grid_1.jpg,right,429.95999999402557,true,low,NA,NA,NA,NA,NA,NA,NA,false
pknCbhal,3j6bhnx0vc5zv8hudcso2u6bq3dnka,3e4gguz1tc45t6qvivz6zqz418fk2k,pknCbhal,2020-0188,2020-05-21,21:06:54,21:20:50,NA,incomplete,48,color,1,right,Red_Plus_Chess_3.jpg,Green_Star_Stripes_3.jpg,Red_Triangle_Dots_2.jpg,right,528.8049999944633,true,low,NA,NA,NA,NA,NA,NA,NA,false
pknCbhal,3j6bhnx0vc5zv8hudcso2u6bq3dnka,3e4gguz1tc45t6qvivz6zqz418fk2k,pknCbhal,2020-0188,2020-05-21,21:06:54,21:20:50,NA,incomplete,49,color,0,left,Purple_Star_Stripes_4.jpg,Purple_Circle_Grid_1.jpg,Blue_Triangle_Chess_4.jpg,left,479.73500000080094,true,low,NA,NA,NA,NA,NA,NA,NA,false
pknCbhal,3j6bhnx0vc5zv8hudcso2u6bq3dnka,3e4gguz1tc45t6qvivz6zqz418fk2k,pknCbhal,2020-0188,2020-05-21,21:06:54,21:20:50,NA,incomplete,50,color,1,right,Blue_Circle_Stripes_4.jpg,Red_Star_Grid_4.jpg,Blue_Triangle_Dots_3.jpg,right,409.27999999257736,true,low,NA,NA,NA,NA,NA,NA,NA,false
pknCbhal,3j6bhnx0vc5zv8hudcso2u6bq3dnka,3e4gguz1tc45t6qvivz6zqz418fk2k,pknCbhal,2020-0188,2020-05-21,21:06:54,21:20:50,NA,incomplete,51,color,0,left,Red_Star_Dots_3.jpg,Red_Triangle_Chess_2.jpg,Purple_Plus_Grid_3.jpg,left,444.91000000562053,true,low,NA,NA,NA,NA,NA,NA,NA,false
pknCbhal,3j6bhnx0vc5zv8hudcso2u6bq3dnka,3e4gguz1tc45t6qvivz6zqz418fk2k,pknCbhal,2020-0188,2020-05-21,21:06:54,21:20:50,NA,incomplete,52,color,0,left,Blue_Star_Stripes_4.jpg,Blue_Triangle_Dots_1.jpg,Purple_Circle_Chess_4.jpg,left,591.0799999983283,true,low,NA,NA,NA,NA,NA,NA,NA,false
pknCbhal,3j6bhnx0vc5zv8hudcso2u6bq3dnka,3e4gguz1tc45t6qvivz6zqz418fk2k,pknCbhal,2020-0188,2020-05-21,21:06:54,21:20:50,NA,incomplete,53,color,1,right,Red_Triangle_Dots_1.jpg,Green_Circle_Chess_1.jpg,Red_Star_Stripes_2.jpg,left,883.0300000117859,false,low,NA,NA,NA,NA,NA,NA,NA,false
pknCbhal,3j6bhnx0vc5zv8hudcso2u6bq3dnka,3e4gguz1tc45t6qvivz6zqz418fk2k,pknCbhal,2020-0188,2020-05-21,21:06:54,21:20:50,NA,incomplete,54,color,0,right,Blue_Star_Grid_3.jpg,Red_Circle_Chess_3.jpg,Blue_Triangle_Dots_4.jpg,left,708.6200000048848,false,low,NA,NA,NA,NA,NA,NA,NA,false
pknCbhal,3j6bhnx0vc5zv8hudcso2u6bq3dnka,3e4gguz1tc45t6qvivz6zqz418fk2k,pknCbhal,2020-0188,2020-05-21,21:06:54,21:20:50,NA,incomplete,55,color,1,right,Blue_Star_Stripes_2.jpg,Green_Triangle_Chess_2.jpg,Blue_Plus_Grid_1.jpg,left,539.5799999969313,false,low,NA,NA,NA,NA,NA,NA,NA,false
pknCbhal,3j6bhnx0vc5zv8hudcso2u6bq3dnka,3e4gguz1tc45t6qvivz6zqz418fk2k,pknCbhal,2020-0188,2020-05-21,21:06:54,21:20:50,NA,incomplete,56,color,1,left,Red_Circle_Stripes_2.jpg,Red_Star_Chess_4.jpg,Blue_Triangle_Grid_2.jpg,left,441.9249999918975,true,low,NA,NA,NA,NA,NA,NA,NA,false
pknCbhal,3j6bhnx0vc5zv8hudcso2u6bq3dnka,3e4gguz1tc45t6qvivz6zqz418fk2k,pknCbhal,2020-0188,2020-05-21,21:06:54,21:20:50,NA,incomplete,57,color,1,left,Blue_Plus_Dots_4.jpg,Blue_Circle_Stripes_2.jpg,Purple_Triangle_Grid_4.jpg,left,452.2349999897415,true,low,NA,NA,NA,NA,NA,NA,NA,false
pknCbhal,3j6bhnx0vc5zv8hudcso2u6bq3dnka,3e4gguz1tc45t6qvivz6zqz418fk2k,pknCbhal,2020-0188,2020-05-21,21:06:54,21:20:50,NA,incomplete,58,color,1,left,Red_Circle_Chess_2.jpg,Red_Plus_Stripes_1.jpg,Green_Star_Grid_2.jpg,left,589.8049999959767,true,low,NA,NA,NA,NA,NA,NA,NA,false
pknCbhal,3j6bhnx0vc5zv8hudcso2u6bq3dnka,3e4gguz1tc45t6qvivz6zqz418fk2k,pknCbhal,2020-0188,2020-05-21,21:06:54,21:20:50,NA,incomplete,59,color,1,right,Purple_Circle_Chess_3.jpg,Blue_Triangle_Dots_3.jpg,Purple_Plus_Stripes_1.jpg,right,418.1049999897368,true,low,NA,NA,NA,NA,NA,NA,NA,false
pknCbhal,3j6bhnx0vc5zv8hudcso2u6bq3dnka,3e4gguz1tc45t6qvivz6zqz418fk2k,pknCbhal,2020-0188,2020-05-21,21:06:54,21:20:50,NA,incomplete,60,number,1,right,Green_Star_Chess_4.jpg,Green_Circle_Stripes_2.jpg,Purple_Plus_Dots_4.jpg,left,373.41499999456573,false,low,NA,NA,NA,NA,NA,NA,NA,false
pknCbhal,3j6bhnx0vc5zv8hudcso2u6bq3dnka,3e4gguz1tc45t6qvivz6zqz418fk2k,pknCbhal,2020-0188,2020-05-21,21:06:54,21:20:50,NA,incomplete,61,number,1,left,Purple_Triangle_Stripes_1.jpg,Green_Star_Dots_1.jpg,Purple_Plus_Grid_4.jpg,right,410.39000000455417,false,low,NA,NA,NA,NA,NA,NA,NA,false
pknCbhal,3j6bhnx0vc5zv8hudcso2u6bq3dnka,3e4gguz1tc45t6qvivz6zqz418fk2k,pknCbhal,2020-0188,2020-05-21,21:06:54,21:20:50,NA,incomplete,62,number,1,left,Blue_Plus_Grid_2.jpg,Red_Star_Chess_2.jpg,Blue_Triangle_Dots_1.jpg,left,413.87000000395346,true,low,NA,NA,NA,NA,NA,NA,NA,false
pknCbhal,3j6bhnx0vc5zv8hudcso2u6bq3dnka,3e4gguz1tc45t6qvivz6zqz418fk2k,pknCbhal,2020-0188,2020-05-21,21:06:54,21:20:50,NA,incomplete,63,number,0,left,Purple_Circle_Dots_1.jpg,Green_Star_Grid_1.jpg,Purple_Plus_Chess_2.jpg,left,705.3300000115996,true,low,NA,NA,NA,NA,NA,NA,NA,false
pknCbhal,3j6bhnx0vc5zv8hudcso2u6bq3dnka,3e4gguz1tc45t6qvivz6zqz418fk2k,pknCbhal,2020-0188,2020-05-21,21:06:54,21:20:50,NA,incomplete,64,number,1,left,Red_Triangle_Dots_2.jpg,Purple_Circle_Grid_2.jpg,Red_Star_Stripes_3.jpg,left,801.1899999983143,true,low,NA,NA,NA,NA,NA,NA,NA,false
pknCbhal,3j6bhnx0vc5zv8hudcso2u6bq3dnka,3e4gguz1tc45t6qvivz6zqz418fk2k,pknCbhal,2020-0188,2020-05-21,21:06:54,21:20:50,NA,incomplete,65,number,1,left,Blue_Star_Stripes_2.jpg,Green_Plus_Dots_2.jpg,Blue_Circle_Grid_3.jpg,left,525.0700000033248,true,low,NA,NA,NA,NA,NA,NA,NA,false
pknCbhal,3j6bhnx0vc5zv8hudcso2u6bq3dnka,3e4gguz1tc45t6qvivz6zqz418fk2k,pknCbhal,2020-0188,2020-05-21,21:06:54,21:20:50,NA,incomplete,66,number,1,left,Blue_Star_Stripes_1.jpg,Red_Plus_Grid_1.jpg,Blue_Triangle_Chess_4.jpg,left,619.9849999975413,true,low,NA,NA,NA,NA,NA,NA,NA,false
pknCbhal,3j6bhnx0vc5zv8hudcso2u6bq3dnka,3e4gguz1tc45t6qvivz6zqz418fk2k,pknCbhal,2020-0188,2020-05-21,21:06:54,21:20:50,NA,incomplete,67,number,1,left,Blue_Circle_Grid_2.jpg,Purple_Star_Dots_2.jpg,Blue_Triangle_Stripes_4.jpg,right,486.7300000041723,false,low,NA,NA,NA,NA,NA,NA,NA,false
pknCbhal,3j6bhnx0vc5zv8hudcso2u6bq3dnka,3e4gguz1tc45t6qvivz6zqz418fk2k,pknCbhal,2020-0188,2020-05-21,21:06:54,21:20:50,NA,incomplete,68,number,1,left,Red_Triangle_Chess_1.jpg,Purple_Star_Stripes_1.jpg,Red_Plus_Grid_3.jpg,left,478.7099999957718,true,low,NA,NA,NA,NA,NA,NA,NA,false
pknCbhal,3j6bhnx0vc5zv8hudcso2u6bq3dnka,3e4gguz1tc45t6qvivz6zqz418fk2k,pknCbhal,2020-0188,2020-05-21,21:06:54,21:20:50,NA,incomplete,69,number,1,right,Blue_Circle_Stripes_2.jpg,Blue_Plus_Chess_1.jpg,Green_Triangle_Grid_2.jpg,right,767.874999990454,true,low,NA,NA,NA,NA,NA,NA,NA,false
pknCbhal,3j6bhnx0vc5zv8hudcso2u6bq3dnka,3e4gguz1tc45t6qvivz6zqz418fk2k,pknCbhal,2020-0188,2020-05-21,21:06:54,21:20:50,NA,incomplete,70,number,1,left,Purple_Circle_Grid_2.jpg,Green_Triangle_Chess_2.jpg,Purple_Plus_Stripes_1.jpg,left,445.609999995213,true,low,NA,NA,NA,NA,NA,NA,NA,false
pknCbhal,3j6bhnx0vc5zv8hudcso2u6bq3dnka,3e4gguz1tc45t6qvivz6zqz418fk2k,pknCbhal,2020-0188,2020-05-21,21:06:54,21:20:50,NA,incomplete,71,number,1,right,Red_Circle_Stripes_3.jpg,Red_Plus_Grid_1.jpg,Green_Triangle_Chess_3.jpg,right,479.29499999736436,true,low,NA,NA,NA,NA,NA,NA,NA,false
pknCbhal,3j6bhnx0vc5zv8hudcso2u6bq3dnka,3e4gguz1tc45t6qvivz6zqz418fk2k,pknCbhal,2020-0188,2020-05-21,21:06:54,21:20:50,NA,incomplete,72,number,0,right,Blue_Plus_Chess_2.jpg,Blue_Triangle_Stripes_1.jpg,Purple_Circle_Dots_2.jpg,left,496.3300000090385,false,low,NA,NA,NA,NA,NA,NA,NA,false
pknCbhal,3j6bhnx0vc5zv8hudcso2u6bq3dnka,3e4gguz1tc45t6qvivz6zqz418fk2k,pknCbhal,2020-0188,2020-05-21,21:06:54,21:20:50,NA,incomplete,73,number,0,right,Green_Circle_Grid_3.jpg,Green_Plus_Dots_1.jpg,Blue_Star_Chess_3.jpg,right,560.6499999994412,true,low,NA,NA,NA,NA,NA,NA,NA,false
pknCbhal,3j6bhnx0vc5zv8hudcso2u6bq3dnka,3e4gguz1tc45t6qvivz6zqz418fk2k,pknCbhal,2020-0188,2020-05-21,21:06:54,21:20:50,NA,incomplete,74,number,1,right,Blue_Plus_Dots_2.jpg,Blue_Star_Chess_3.jpg,Red_Circle_Stripes_2.jpg,right,790.1850000052946,true,low,NA,NA,NA,NA,NA,NA,NA,false
pknCbhal,3j6bhnx0vc5zv8hudcso2u6bq3dnka,3e4gguz1tc45t6qvivz6zqz418fk2k,pknCbhal,2020-0188,2020-05-21,21:06:54,21:20:50,NA,incomplete,75,number,1,left,Blue_Circle_Stripes_2.jpg,Purple_Star_Grid_2.jpg,Blue_Plus_Dots_1.jpg,left,611.5399999980582,true,low,NA,NA,NA,NA,NA,NA,NA,false
pknCbhal,3j6bhnx0vc5zv8hudcso2u6bq3dnka,3e4gguz1tc45t6qvivz6zqz418fk2k,pknCbhal,2020-0188,2020-05-21,21:06:54,21:20:50,NA,incomplete,76,number,1,right,Red_Triangle_Dots_1.jpg,Red_Plus_Grid_3.jpg,Purple_Circle_Stripes_1.jpg,right,470.18499999830965,true,low,NA,NA,NA,NA,NA,NA,NA,false
pknCbhal,3j6bhnx0vc5zv8hudcso2u6bq3dnka,3e4gguz1tc45t6qvivz6zqz418fk2k,pknCbhal,2020-0188,2020-05-21,21:06:54,21:20:50,NA,incomplete,77,number,1,right,Blue_Triangle_Stripes_3.jpg,Blue_Plus_Grid_4.jpg,Red_Circle_Dots_3.jpg,right,591.3300000102026,true,low,NA,NA,NA,NA,NA,NA,NA,false
pknCbhal,3j6bhnx0vc5zv8hudcso2u6bq3dnka,3e4gguz1tc45t6qvivz6zqz418fk2k,pknCbhal,2020-0188,2020-05-21,21:06:54,21:20:50,NA,incomplete,78,number,1,right,Green_Plus_Dots_2.jpg,Green_Triangle_Grid_4.jpg,Blue_Circle_Chess_2.jpg,right,763.4950000065146,true,low,NA,NA,NA,NA,NA,NA,NA,false
pknCbhal,3j6bhnx0vc5zv8hudcso2u6bq3dnka,3e4gguz1tc45t6qvivz6zqz418fk2k,pknCbhal,2020-0188,2020-05-21,21:06:54,21:20:50,NA,incomplete,79,number,1,right,Red_Plus_Chess_2.jpg,Red_Triangle_Dots_1.jpg,Blue_Star_Grid_2.jpg,right,529.2550000012852,true,low,NA,NA,NA,NA,NA,NA,NA,false
pknCbhal,3j6bhnx0vc5zv8hudcso2u6bq3dnka,3e4gguz1tc45t6qvivz6zqz418fk2k,pknCbhal,2020-0188,2020-05-21,21:06:54,21:20:50,NA,incomplete,80,number,1,left,Red_Plus_Dots_3.jpg,Blue_Circle_Chess_3.jpg,Red_Star_Stripes_2.jpg,left,880.7850000011967,true,low,NA,NA,NA,NA,NA,NA,NA,false
pknCbhal,3j6bhnx0vc5zv8hudcso2u6bq3dnka,3e4gguz1tc45t6qvivz6zqz418fk2k,pknCbhal,2020-0188,2020-05-21,21:06:54,21:20:50,NA,incomplete,81,number,1,left,Green_Star_Grid_2.jpg,Purple_Plus_Chess_2.jpg,Green_Triangle_Dots_3.jpg,left,593.4100000013132,true,low,NA,NA,NA,NA,NA,NA,NA,false
pknCbhal,3j6bhnx0vc5zv8hudcso2u6bq3dnka,3e4gguz1tc45t6qvivz6zqz418fk2k,pknCbhal,2020-0188,2020-05-21,21:06:54,21:20:50,NA,incomplete,82,number,1,right,Blue_Circle_Chess_4.jpg,Blue_Triangle_Dots_1.jpg,Red_Star_Grid_4.jpg,right,557.3799999983748,true,low,NA,NA,NA,NA,NA,NA,NA,false
pknCbhal,3j6bhnx0vc5zv8hudcso2u6bq3dnka,3e4gguz1tc45t6qvivz6zqz418fk2k,pknCbhal,2020-0188,2020-05-21,21:06:54,21:20:50,NA,incomplete,83,number,1,right,Green_Triangle_Grid_2.jpg,Green_Star_Dots_3.jpg,Purple_Plus_Chess_2.jpg,right,547.0950000017183,true,low,NA,NA,NA,NA,NA,NA,NA,false
pknCbhal,3j6bhnx0vc5zv8hudcso2u6bq3dnka,3e4gguz1tc45t6qvivz6zqz418fk2k,pknCbhal,2020-0188,2020-05-21,21:06:54,21:20:50,NA,incomplete,84,number,1,left,Green_Plus_Dots_3.jpg,Blue_Triangle_Chess_3.jpg,Green_Star_Stripes_4.jpg,left,577.6499999919906,true,low,NA,NA,NA,NA,NA,NA,NA,false
pknCbhal,3j6bhnx0vc5zv8hudcso2u6bq3dnka,3e4gguz1tc45t6qvivz6zqz418fk2k,pknCbhal,2020-0188,2020-05-21,21:06:54,21:20:50,NA,incomplete,85,number,1,left,Purple_Star_Stripes_3.jpg,Green_Circle_Grid_3.jpg,Purple_Plus_Dots_2.jpg,left,566.9699999998556,true,low,NA,NA,NA,NA,NA,NA,NA,false
pknCbhal,3j6bhnx0vc5zv8hudcso2u6bq3dnka,3e4gguz1tc45t6qvivz6zqz418fk2k,pknCbhal,2020-0188,2020-05-21,21:06:54,21:20:50,NA,incomplete,86,number,1,left,Red_Circle_Chess_1.jpg,Purple_Triangle_Dots_1.jpg,Red_Plus_Stripes_3.jpg,left,547.0950000017183,true,low,NA,NA,NA,NA,NA,NA,NA,false
pknCbhal,3j6bhnx0vc5zv8hudcso2u6bq3dnka,3e4gguz1tc45t6qvivz6zqz418fk2k,pknCbhal,2020-0188,2020-05-21,21:06:54,21:20:50,NA,incomplete,87,number,1,right,Green_Star_Dots_2.jpg,Green_Circle_Grid_4.jpg,Red_Plus_Chess_2.jpg,right,505.5749999883119,true,low,NA,NA,NA,NA,NA,NA,NA,false
pknCbhal,3j6bhnx0vc5zv8hudcso2u6bq3dnka,3e4gguz1tc45t6qvivz6zqz418fk2k,pknCbhal,2020-0188,2020-05-21,21:06:54,21:20:50,NA,incomplete,88,number,0,left,Green_Star_Stripes_3.jpg,Red_Plus_Dots_3.jpg,Green_Circle_Chess_4.jpg,left,521.3199999998324,true,low,NA,NA,NA,NA,NA,NA,NA,false
pknCbhal,3j6bhnx0vc5zv8hudcso2u6bq3dnka,3e4gguz1tc45t6qvivz6zqz418fk2k,pknCbhal,2020-0188,2020-05-21,21:06:54,21:20:50,NA,incomplete,89,number,0,right,Red_Triangle_Dots_1.jpg,Red_Plus_Grid_2.jpg,Green_Star_Stripes_1.jpg,right,512.3100000055274,true,low,NA,NA,NA,NA,NA,NA,NA,false
pknCbhal,3j6bhnx0vc5zv8hudcso2u6bq3dnka,3e4gguz1tc45t6qvivz6zqz418fk2k,pknCbhal,2020-0188,2020-05-21,21:06:54,21:20:50,NA,incomplete,90,color,0,left,Purple_Triangle_Stripes_4.jpg,Purple_Plus_Dots_1.jpg,Green_Star_Grid_4.jpg,right,625.289999996312,false,low,NA,NA,NA,NA,NA,NA,NA,false
pknCbhal,3j6bhnx0vc5zv8hudcso2u6bq3dnka,3e4gguz1tc45t6qvivz6zqz418fk2k,pknCbhal,2020-0188,2020-05-21,21:06:54,21:20:50,NA,incomplete,91,color,1,left,Green_Circle_Dots_2.jpg,Green_Star_Grid_3.jpg,Purple_Plus_Stripes_2.jpg,right,491.7100000020582,false,low,NA,NA,NA,NA,NA,NA,NA,false
pknCbhal,3j6bhnx0vc5zv8hudcso2u6bq3dnka,3e4gguz1tc45t6qvivz6zqz418fk2k,pknCbhal,2020-0188,2020-05-21,21:06:54,21:20:50,NA,incomplete,92,color,0,left,Purple_Plus_Chess_2.jpg,Purple_Star_Grid_4.jpg,Blue_Circle_Dots_2.jpg,right,507.15499999932945,false,low,NA,NA,NA,NA,NA,NA,NA,false
pknCbhal,3j6bhnx0vc5zv8hudcso2u6bq3dnka,3e4gguz1tc45t6qvivz6zqz418fk2k,pknCbhal,2020-0188,2020-05-21,21:06:54,21:20:50,NA,incomplete,93,color,1,right,Green_Triangle_Chess_1.jpg,Blue_Plus_Dots_1.jpg,Green_Circle_Stripes_3.jpg,left,586.8300000001909,false,low,NA,NA,NA,NA,NA,NA,NA,false
pknCbhal,3j6bhnx0vc5zv8hudcso2u6bq3dnka,3e4gguz1tc45t6qvivz6zqz418fk2k,pknCbhal,2020-0188,2020-05-21,21:06:54,21:20:50,NA,incomplete,94,color,1,left,Green_Triangle_Dots_2.jpg,Green_Plus_Grid_4.jpg,Blue_Star_Stripes_2.jpg,right,479.34999999415595,false,low,NA,NA,NA,NA,NA,NA,NA,false
pknCbhal,3j6bhnx0vc5zv8hudcso2u6bq3dnka,3e4gguz1tc45t6qvivz6zqz418fk2k,pknCbhal,2020-0188,2020-05-21,21:06:54,21:20:50,NA,incomplete,95,color,1,left,Green_Plus_Stripes_1.jpg,Green_Star_Dots_3.jpg,Blue_Triangle_Grid_1.jpg,right,471.89000000071246,false,low,NA,NA,NA,NA,NA,NA,NA,false
pknCbhal,3j6bhnx0vc5zv8hudcso2u6bq3dnka,3e4gguz1tc45t6qvivz6zqz418fk2k,pknCbhal,2020-0188,2020-05-21,21:06:54,21:20:50,NA,incomplete,96,color,1,right,Blue_Plus_Stripes_2.jpg,Purple_Circle_Dots_2.jpg,Blue_Triangle_Chess_3.jpg,right,545.6899999990128,true,low,NA,NA,NA,NA,NA,NA,NA,false
pknCbhal,3j6bhnx0vc5zv8hudcso2u6bq3dnka,3e4gguz1tc45t6qvivz6zqz418fk2k,pknCbhal,2020-0188,2020-05-21,21:06:54,21:20:50,NA,incomplete,97,color,0,right,Red_Plus_Grid_2.jpg,Blue_Star_Stripes_2.jpg,Red_Triangle_Chess_3.jpg,right,431.58499999844935,true,low,NA,NA,NA,NA,NA,NA,NA,false
pknCbhal,3j6bhnx0vc5zv8hudcso2u6bq3dnka,3e4gguz1tc45t6qvivz6zqz418fk2k,pknCbhal,2020-0188,2020-05-21,21:06:54,21:20:50,NA,incomplete,98,color,1,left,Purple_Circle_Grid_2.jpg,Purple_Plus_Chess_4.jpg,Green_Star_Stripes_2.jpg,left,523.5549999924842,true,low,NA,NA,NA,NA,NA,NA,NA,false
pknCbhal,3j6bhnx0vc5zv8hudcso2u6bq3dnka,3e4gguz1tc45t6qvivz6zqz418fk2k,pknCbhal,2020-0188,2020-05-21,21:06:54,21:20:50,NA,incomplete,99,color,0,right,Blue_Circle_Chess_4.jpg,Green_Triangle_Dots_4.jpg,Blue_Plus_Stripes_1.jpg,right,385.3999999992084,true,low,NA,NA,NA,NA,NA,NA,NA,false
pknCbhal,3j6bhnx0vc5zv8hudcso2u6bq3dnka,3e4gguz1tc45t6qvivz6zqz418fk2k,pknCbhal,2020-0188,2020-05-21,21:06:54,21:20:50,NA,incomplete,100,color,0,right,Green_Circle_Dots_2.jpg,Purple_Triangle_Stripes_2.jpg,Green_Star_Grid_3.jpg,right,461.72499998647254,true,low,NA,NA,NA,NA,NA,NA,NA,false
pknCbhal,3j6bhnx0vc5zv8hudcso2u6bq3dnka,3e4gguz1tc45t6qvivz6zqz418fk2k,pknCbhal,2020-0188,2020-05-21,21:06:54,21:20:50,NA,incomplete,101,color,1,right,Red_Plus_Stripes_2.jpg,Blue_Star_Chess_2.jpg,Red_Triangle_Grid_1.jpg,right,992.1499999909429,true,low,NA,NA,NA,NA,NA,NA,NA,false
pknCbhal,3j6bhnx0vc5zv8hudcso2u6bq3dnka,3e4gguz1tc45t6qvivz6zqz418fk2k,pknCbhal,2020-0188,2020-05-21,21:06:54,21:20:50,NA,incomplete,102,color,0,left,Red_Star_Dots_2.jpg,Red_Circle_Grid_1.jpg,Blue_Plus_Chess_2.jpg,left,427.6350000000093,true,low,NA,NA,NA,NA,NA,NA,NA,false
pknCbhal,3j6bhnx0vc5zv8hudcso2u6bq3dnka,3e4gguz1tc45t6qvivz6zqz418fk2k,pknCbhal,2020-0188,2020-05-21,21:06:54,21:20:50,NA,incomplete,103,color,1,right,Blue_Triangle_Dots_3.jpg,Purple_Plus_Chess_3.jpg,Blue_Star_Stripes_4.jpg,right,454.54499998595566,true,low,NA,NA,NA,NA,NA,NA,NA,false
pknCbhal,3j6bhnx0vc5zv8hudcso2u6bq3dnka,3e4gguz1tc45t6qvivz6zqz418fk2k,pknCbhal,2020-0188,2020-05-21,21:06:54,21:20:50,NA,incomplete,104,color,1,left,Red_Triangle_Stripes_2.jpg,Red_Circle_Chess_4.jpg,Green_Star_Grid_2.jpg,left,696.2549999880139,true,low,NA,NA,NA,NA,NA,NA,NA,false
pknCbhal,3j6bhnx0vc5zv8hudcso2u6bq3dnka,3e4gguz1tc45t6qvivz6zqz418fk2k,pknCbhal,2020-0188,2020-05-21,21:06:54,21:20:50,NA,incomplete,105,color,0,left,Blue_Circle_Grid_1.jpg,Blue_Triangle_Dots_3.jpg,Green_Plus_Chess_1.jpg,left,440.58000000950415,true,low,NA,NA,NA,NA,NA,NA,NA,false
pknCbhal,3j6bhnx0vc5zv8hudcso2u6bq3dnka,3e4gguz1tc45t6qvivz6zqz418fk2k,pknCbhal,2020-0188,2020-05-21,21:06:54,21:20:50,NA,incomplete,106,color,1,right,Purple_Star_Dots_3.jpg,Red_Triangle_Grid_3.jpg,Purple_Circle_Stripes_2.jpg,right,443.1600000098115,true,low,NA,NA,NA,NA,NA,NA,NA,false
pknCbhal,3j6bhnx0vc5zv8hudcso2u6bq3dnka,3e4gguz1tc45t6qvivz6zqz418fk2k,pknCbhal,2020-0188,2020-05-21,21:06:54,21:20:50,NA,incomplete,107,color,1,left,Blue_Circle_Dots_1.jpg,Blue_Triangle_Stripes_2.jpg,Red_Plus_Chess_1.jpg,left,453.70500000717584,true,low,NA,NA,NA,NA,NA,NA,NA,false
pknCbhal,3j6bhnx0vc5zv8hudcso2u6bq3dnka,3e4gguz1tc45t6qvivz6zqz418fk2k,pknCbhal,2020-0188,2020-05-21,21:06:54,21:20:50,NA,incomplete,108,color,1,right,Purple_Star_Stripes_2.jpg,Blue_Plus_Chess_2.jpg,Purple_Circle_Grid_1.jpg,right,455.05999999295454,true,low,NA,NA,NA,NA,NA,NA,NA,false
pknCbhal,3j6bhnx0vc5zv8hudcso2u6bq3dnka,3e4gguz1tc45t6qvivz6zqz418fk2k,pknCbhal,2020-0188,2020-05-21,21:06:54,21:20:50,NA,incomplete,109,color,0,left,Red_Plus_Grid_3.jpg,Red_Star_Chess_1.jpg,Purple_Triangle_Dots_3.jpg,left,408.8950000004843,true,low,NA,NA,NA,NA,NA,NA,NA,false
pknCbhal,3j6bhnx0vc5zv8hudcso2u6bq3dnka,3e4gguz1tc45t6qvivz6zqz418fk2k,pknCbhal,2020-0188,2020-05-21,21:06:54,21:20:50,NA,incomplete,110,color,1,right,Green_Triangle_Grid_1.jpg,Blue_Plus_Dots_1.jpg,Green_Star_Stripes_3.jpg,right,556.2449999997625,true,low,NA,NA,NA,NA,NA,NA,NA,false
pknCbhal,3j6bhnx0vc5zv8hudcso2u6bq3dnka,3e4gguz1tc45t6qvivz6zqz418fk2k,pknCbhal,2020-0188,2020-05-21,21:06:54,21:20:50,NA,incomplete,111,color,1,left,Green_Circle_Grid_2.jpg,Green_Plus_Chess_1.jpg,Blue_Triangle_Dots_2.jpg,left,401.91000000049826,true,low,NA,NA,NA,NA,NA,NA,NA,false
pknCbhal,3j6bhnx0vc5zv8hudcso2u6bq3dnka,3e4gguz1tc45t6qvivz6zqz418fk2k,pknCbhal,2020-0188,2020-05-21,21:06:54,21:20:50,NA,incomplete,112,color,1,left,Purple_Star_Chess_2.jpg,Purple_Circle_Grid_4.jpg,Red_Triangle_Stripes_2.jpg,left,445.65000000875443,true,low,NA,NA,NA,NA,NA,NA,NA,false
pknCbhal,3j6bhnx0vc5zv8hudcso2u6bq3dnka,3e4gguz1tc45t6qvivz6zqz418fk2k,pknCbhal,2020-0188,2020-05-21,21:06:54,21:20:50,NA,incomplete,113,color,1,right,Red_Star_Grid_4.jpg,Green_Circle_Dots_4.jpg,Red_Plus_Chess_1.jpg,right,432.3900000017602,true,low,NA,NA,NA,NA,NA,NA,NA,false
pknCbhal,3j6bhnx0vc5zv8hudcso2u6bq3dnka,3e4gguz1tc45t6qvivz6zqz418fk2k,pknCbhal,2020-0188,2020-05-21,21:06:54,21:20:50,NA,incomplete,114,color,1,right,Blue_Plus_Stripes_1.jpg,Red_Circle_Dots_1.jpg,Blue_Triangle_Grid_4.jpg,right,467.0049999986077,true,low,NA,NA,NA,NA,NA,NA,NA,false
pknCbhal,3j6bhnx0vc5zv8hudcso2u6bq3dnka,3e4gguz1tc45t6qvivz6zqz418fk2k,pknCbhal,2020-0188,2020-05-21,21:06:54,21:20:50,NA,incomplete,115,color,1,left,Green_Triangle_Chess_2.jpg,Green_Plus_Stripes_4.jpg,Purple_Star_Dots_2.jpg,left,459.7499999945285,true,low,NA,NA,NA,NA,NA,NA,NA,false
pknCbhal,3j6bhnx0vc5zv8hudcso2u6bq3dnka,3e4gguz1tc45t6qvivz6zqz418fk2k,pknCbhal,2020-0188,2020-05-21,21:06:54,21:20:50,NA,incomplete,116,color,1,right,Green_Circle_Chess_2.jpg,Purple_Plus_Dots_2.jpg,Green_Triangle_Grid_3.jpg,right,446.45000000309665,true,low,NA,NA,NA,NA,NA,NA,NA,false
pknCbhal,3j6bhnx0vc5zv8hudcso2u6bq3dnka,3e4gguz1tc45t6qvivz6zqz418fk2k,pknCbhal,2020-0188,2020-05-21,21:06:54,21:20:50,NA,incomplete,117,color,1,right,Purple_Star_Dots_4.jpg,Green_Triangle_Stripes_4.jpg,Purple_Plus_Chess_1.jpg,right,423.88500001106877,true,low,NA,NA,NA,NA,NA,NA,NA,false
pknCbhal,3j6bhnx0vc5zv8hudcso2u6bq3dnka,3e4gguz1tc45t6qvivz6zqz418fk2k,pknCbhal,2020-0188,2020-05-21,21:06:54,21:20:50,NA,incomplete,118,color,1,left,Purple_Star_Chess_4.jpg,Purple_Circle_Dots_2.jpg,Red_Triangle_Grid_4.jpg,left,474.88999999768566,true,low,NA,NA,NA,NA,NA,NA,NA,false
pknCbhal,3j6bhnx0vc5zv8hudcso2u6bq3dnka,3e4gguz1tc45t6qvivz6zqz418fk2k,pknCbhal,2020-0188,2020-05-21,21:06:54,21:20:50,NA,incomplete,119,color,1,left,Purple_Circle_Dots_3.jpg,Purple_Star_Grid_2.jpg,Green_Triangle_Stripes_3.jpg,left,452.5549999962095,true,low,NA,NA,NA,NA,NA,NA,NA,false
pknCbhal,3j6bhnx0vc5zv8hudcso2u6bq3dnka,3e4gguz1tc45t6qvivz6zqz418fk2k,pknCbhal,2020-0188,2020-05-21,21:06:54,21:20:50,NA,incomplete,120,filling,1,left,Purple_Triangle_Grid_1.jpg,Blue_Circle_Grid_2.jpg,Red_Triangle_Stripes_3.jpg,NA,NA,NA,low,NA,NA,NA,NA,NA,NA,NA,false
pknCbhal,3j6bhnx0vc5zv8hudcso2u6bq3dnka,3e4gguz1tc45t6qvivz6zqz418fk2k,pknCbhal,2020-0188,2020-05-21,21:06:54,21:20:50,NA,incomplete,121,filling,1,right,Blue_Star_Stripes_2.jpg,Purple_Star_Chess_3.jpg,Green_Plus_Stripes_4.jpg,left,1220.5399999947986,false,low,NA,NA,NA,NA,NA,NA,NA,false
pknCbhal,3j6bhnx0vc5zv8hudcso2u6bq3dnka,3e4gguz1tc45t6qvivz6zqz418fk2k,pknCbhal,2020-0188,2020-05-21,21:06:54,21:20:50,NA,incomplete,122,filling,1,right,Purple_Star_Dots_1.jpg,Green_Star_Grid_4.jpg,Blue_Circle_Dots_3.jpg,right,1750.9200000058627,true,low,NA,NA,NA,NA,NA,NA,NA,false
pknCbhal,3j6bhnx0vc5zv8hudcso2u6bq3dnka,3e4gguz1tc45t6qvivz6zqz418fk2k,pknCbhal,2020-0188,2020-05-21,21:06:54,21:20:50,NA,incomplete,123,filling,1,left,Purple_Circle_Stripes_4.jpg,Blue_Triangle_Stripes_1.jpg,Red_Circle_Chess_2.jpg,left,876.734999998007,true,low,NA,NA,NA,NA,NA,NA,NA,false
pknCbhal,3j6bhnx0vc5zv8hudcso2u6bq3dnka,3e4gguz1tc45t6qvivz6zqz418fk2k,pknCbhal,2020-0188,2020-05-21,21:06:54,21:20:50,NA,incomplete,124,filling,1,left,Green_Star_Grid_4.jpg,Red_Plus_Grid_2.jpg,Purple_Star_Chess_1.jpg,left,773.2149999937974,true,low,NA,NA,NA,NA,NA,NA,NA,false
pknCbhal,3j6bhnx0vc5zv8hudcso2u6bq3dnka,3e4gguz1tc45t6qvivz6zqz418fk2k,pknCbhal,2020-0188,2020-05-21,21:06:54,21:20:50,NA,incomplete,125,filling,0,right,Blue_Plus_Stripes_3.jpg,Purple_Plus_Grid_2.jpg,Red_Star_Stripes_1.jpg,right,962.744999997085,true,low,NA,NA,NA,NA,NA,NA,NA,false
pknCbhal,3j6bhnx0vc5zv8hudcso2u6bq3dnka,3e4gguz1tc45t6qvivz6zqz418fk2k,pknCbhal,2020-0188,2020-05-21,21:06:54,21:20:50,NA,incomplete,126,filling,1,right,Purple_Triangle_Dots_1.jpg,Green_Triangle_Grid_4.jpg,Blue_Circle_Dots_3.jpg,left,664.4299999898067,false,low,NA,NA,NA,NA,NA,NA,NA,false
pknCbhal,3j6bhnx0vc5zv8hudcso2u6bq3dnka,3e4gguz1tc45t6qvivz6zqz418fk2k,pknCbhal,2020-0188,2020-05-21,21:06:54,21:20:50,NA,incomplete,127,filling,1,right,Purple_Circle_Dots_3.jpg,Green_Circle_Grid_2.jpg,Red_Triangle_Dots_1.jpg,right,673.4149999974761,true,low,NA,NA,NA,NA,NA,NA,NA,false
pknCbhal,3j6bhnx0vc5zv8hudcso2u6bq3dnka,3e4gguz1tc45t6qvivz6zqz418fk2k,pknCbhal,2020-0188,2020-05-21,21:06:54,21:20:50,NA,incomplete,128,filling,1,left,Red_Circle_Grid_2.jpg,Purple_Star_Grid_1.jpg,Blue_Circle_Chess_4.jpg,right,667.0949999970617,false,low,NA,NA,NA,NA,NA,NA,NA,false
pknCbhal,3j6bhnx0vc5zv8hudcso2u6bq3dnka,3e4gguz1tc45t6qvivz6zqz418fk2k,pknCbhal,2020-0188,2020-05-21,21:06:54,21:20:50,NA,incomplete,129,filling,1,left,Blue_Circle_Grid_3.jpg,Red_Plus_Grid_1.jpg,Purple_Circle_Dots_2.jpg,left,731.3100000028498,true,low,NA,NA,NA,NA,NA,NA,NA,false
pknCbhal,3j6bhnx0vc5zv8hudcso2u6bq3dnka,3e4gguz1tc45t6qvivz6zqz418fk2k,pknCbhal,2020-0188,2020-05-21,21:06:54,21:20:50,NA,incomplete,130,filling,1,left,Purple_Plus_Dots_2.jpg,Green_Triangle_Dots_3.jpg,Blue_Plus_Chess_4.jpg,left,794.915000005858,true,low,NA,NA,NA,NA,NA,NA,NA,false
pknCbhal,3j6bhnx0vc5zv8hudcso2u6bq3dnka,3e4gguz1tc45t6qvivz6zqz418fk2k,pknCbhal,2020-0188,2020-05-21,21:06:54,21:20:50,NA,incomplete,131,filling,0,left,Purple_Plus_Chess_2.jpg,Red_Circle_Chess_1.jpg,Green_Plus_Stripes_3.jpg,left,686.5899999975227,true,low,NA,NA,NA,NA,NA,NA,NA,false
pknCbhal,3j6bhnx0vc5zv8hudcso2u6bq3dnka,3e4gguz1tc45t6qvivz6zqz418fk2k,pknCbhal,2020-0188,2020-05-21,21:06:54,21:20:50,NA,incomplete,132,filling,1,left,Green_Triangle_Stripes_4.jpg,Blue_Plus_Stripes_1.jpg,Red_Triangle_Grid_2.jpg,left,847.620000000461,true,low,NA,NA,NA,NA,NA,NA,NA,false
pknCbhal,3j6bhnx0vc5zv8hudcso2u6bq3dnka,3e4gguz1tc45t6qvivz6zqz418fk2k,pknCbhal,2020-0188,2020-05-21,21:06:54,21:20:50,NA,incomplete,133,filling,1,left,Green_Circle_Grid_1.jpg,Purple_Star_Grid_2.jpg,Blue_Circle_Dots_3.jpg,right,649.1899999964517,false,low,NA,NA,NA,NA,NA,NA,NA,false
pknCbhal,3j6bhnx0vc5zv8hudcso2u6bq3dnka,3e4gguz1tc45t6qvivz6zqz418fk2k,pknCbhal,2020-0188,2020-05-21,21:06:54,21:20:50,NA,incomplete,134,filling,0,right,Red_Triangle_Chess_2.jpg,Purple_Triangle_Stripes_3.jpg,Blue_Circle_Chess_4.jpg,right,731.3600000052247,true,low,NA,NA,NA,NA,NA,NA,NA,false
pknCbhal,3j6bhnx0vc5zv8hudcso2u6bq3dnka,3e4gguz1tc45t6qvivz6zqz418fk2k,pknCbhal,2020-0188,2020-05-21,21:06:54,21:20:50,NA,incomplete,135,filling,1,left,Green_Triangle_Stripes_4.jpg,Purple_Star_Stripes_3.jpg,Red_Triangle_Dots_2.jpg,left,818.7849999958416,true,low,NA,NA,NA,NA,NA,NA,NA,false
pknCbhal,3j6bhnx0vc5zv8hudcso2u6bq3dnka,3e4gguz1tc45t6qvivz6zqz418fk2k,pknCbhal,2020-0188,2020-05-21,21:06:54,21:20:50,NA,incomplete,136,filling,1,left,Green_Circle_Grid_3.jpg,Blue_Plus_Grid_1.jpg,Purple_Circle_Stripes_4.jpg,left,733.3199999993667,true,low,NA,NA,NA,NA,NA,NA,NA,false
pknCbhal,3j6bhnx0vc5zv8hudcso2u6bq3dnka,3e4gguz1tc45t6qvivz6zqz418fk2k,pknCbhal,2020-0188,2020-05-21,21:06:54,21:20:50,NA,incomplete,137,filling,1,right,Red_Triangle_Stripes_3.jpg,Green_Triangle_Chess_4.jpg,Purple_Circle_Stripes_2.jpg,right,732.270000007702,true,low,NA,NA,NA,NA,NA,NA,NA,false
pknCbhal,3j6bhnx0vc5zv8hudcso2u6bq3dnka,3e4gguz1tc45t6qvivz6zqz418fk2k,pknCbhal,2020-0188,2020-05-21,21:06:54,21:20:50,NA,incomplete,138,filling,1,right,Purple_Triangle_Grid_1.jpg,Blue_Triangle_Dots_2.jpg,Green_Plus_Grid_3.jpg,right,850.8999999903608,true,low,NA,NA,NA,NA,NA,NA,NA,false
pknCbhal,3j6bhnx0vc5zv8hudcso2u6bq3dnka,3e4gguz1tc45t6qvivz6zqz418fk2k,pknCbhal,2020-0188,2020-05-21,21:06:54,21:20:50,NA,incomplete,139,filling,1,left,Green_Plus_Stripes_1.jpg,Blue_Star_Stripes_3.jpg,Purple_Plus_Chess_4.jpg,left,845.6000000005588,true,low,NA,NA,NA,NA,NA,NA,NA,false
pknCbhal,3j6bhnx0vc5zv8hudcso2u6bq3dnka,3e4gguz1tc45t6qvivz6zqz418fk2k,pknCbhal,2020-0188,2020-05-21,21:06:54,21:20:50,NA,incomplete,140,shape,1,right,Red_Plus_Chess_2.jpg,Blue_Star_Chess_1.jpg,Green_Plus_Grid_4.jpg,left,783.7100000033388,false,low,NA,NA,NA,NA,NA,NA,NA,false
pknCbhal,3j6bhnx0vc5zv8hudcso2u6bq3dnka,3e4gguz1tc45t6qvivz6zqz418fk2k,pknCbhal,2020-0188,2020-05-21,21:06:54,21:20:50,NA,incomplete,141,shape,1,right,Red_Plus_Grid_3.jpg,Blue_Circle_Grid_1.jpg,Green_Plus_Dots_4.jpg,left,667.2200000029989,false,low,NA,NA,NA,NA,NA,NA,NA,false
pknCbhal,3j6bhnx0vc5zv8hudcso2u6bq3dnka,3e4gguz1tc45t6qvivz6zqz418fk2k,pknCbhal,2020-0188,2020-05-21,21:06:54,21:20:50,NA,incomplete,142,shape,0,right,Green_Circle_Stripes_2.jpg,Blue_Plus_Stripes_4.jpg,Red_Circle_Grid_1.jpg,left,828.2849999959581,false,low,NA,NA,NA,NA,NA,NA,NA,false
pknCbhal,3j6bhnx0vc5zv8hudcso2u6bq3dnka,3e4gguz1tc45t6qvivz6zqz418fk2k,pknCbhal,2020-0188,2020-05-21,21:06:54,21:20:50,NA,incomplete,143,shape,1,left,Blue_Plus_Dots_3.jpg,Purple_Plus_Stripes_2.jpg,Green_Triangle_Dots_1.jpg,right,727.2700000030454,false,low,NA,NA,NA,NA,NA,NA,NA,false
pknCbhal,3j6bhnx0vc5zv8hudcso2u6bq3dnka,3e4gguz1tc45t6qvivz6zqz418fk2k,pknCbhal,2020-0188,2020-05-21,21:06:54,21:20:50,NA,incomplete,144,shape,0,left,Purple_Circle_Chess_4.jpg,Red_Circle_Grid_1.jpg,Blue_Triangle_Chess_3.jpg,right,830.2199999889126,false,low,NA,NA,NA,NA,NA,NA,NA,false
pknCbhal,3j6bhnx0vc5zv8hudcso2u6bq3dnka,3e4gguz1tc45t6qvivz6zqz418fk2k,pknCbhal,2020-0188,2020-05-21,21:06:54,21:20:50,NA,incomplete,145,shape,1,right,Red_Star_Grid_1.jpg,Green_Circle_Grid_2.jpg,Blue_Star_Dots_4.jpg,left,617.7100000058999,false,low,NA,NA,NA,NA,NA,NA,NA,false
pknCbhal,3j6bhnx0vc5zv8hudcso2u6bq3dnka,3e4gguz1tc45t6qvivz6zqz418fk2k,pknCbhal,2020-0188,2020-05-21,21:06:54,21:20:50,NA,incomplete,146,shape,1,left,Blue_Star_Stripes_3.jpg,Purple_Star_Chess_2.jpg,Red_Plus_Stripes_1.jpg,left,596.0900000063702,true,low,NA,NA,NA,NA,NA,NA,NA,false
pknCbhal,3j6bhnx0vc5zv8hudcso2u6bq3dnka,3e4gguz1tc45t6qvivz6zqz418fk2k,pknCbhal,2020-0188,2020-05-21,21:06:54,21:20:50,NA,incomplete,147,shape,1,left,Green_Star_Dots_1.jpg,Blue_Star_Grid_2.jpg,Purple_Circle_Dots_3.jpg,left,560.4699999967124,true,low,NA,NA,NA,NA,NA,NA,NA,false
pknCbhal,3j6bhnx0vc5zv8hudcso2u6bq3dnka,3e4gguz1tc45t6qvivz6zqz418fk2k,pknCbhal,2020-0188,2020-05-21,21:06:54,21:20:50,NA,incomplete,148,shape,1,left,Green_Plus_Dots_3.jpg,Purple_Plus_Chess_4.jpg,Blue_Circle_Dots_2.jpg,left,1989.8449999891454,true,low,NA,NA,NA,NA,NA,NA,NA,false
pknCbhal,3j6bhnx0vc5zv8hudcso2u6bq3dnka,3e4gguz1tc45t6qvivz6zqz418fk2k,pknCbhal,2020-0188,2020-05-21,21:06:54,21:20:50,NA,incomplete,149,shape,1,right,Purple_Circle_Grid_4.jpg,Red_Plus_Grid_1.jpg,Blue_Circle_Chess_3.jpg,right,1266.6400000016438,true,low,NA,NA,NA,NA,NA,NA,NA,false
pknCbhal,3j6bhnx0vc5zv8hudcso2u6bq3dnka,3e4gguz1tc45t6qvivz6zqz418fk2k,pknCbhal,2020-0188,2020-05-21,21:06:54,21:20:50,NA,incomplete,150,shape,1,right,Purple_Triangle_Chess_3.jpg,Green_Star_Chess_2.jpg,Blue_Triangle_Grid_1.jpg,right,563.6299999896437,true,low,NA,NA,NA,NA,NA,NA,NA,false
pknCbhal,3j6bhnx0vc5zv8hudcso2u6bq3dnka,3e4gguz1tc45t6qvivz6zqz418fk2k,pknCbhal,2020-0188,2020-05-21,21:06:54,21:20:50,NA,incomplete,151,shape,1,left,Red_Star_Dots_3.jpg,Green_Star_Stripes_2.jpg,Blue_Plus_Dots_1.jpg,left,497.3000000027241,true,low,NA,NA,NA,NA,NA,NA,NA,false
pknCbhal,3j6bhnx0vc5zv8hudcso2u6bq3dnka,3e4gguz1tc45t6qvivz6zqz418fk2k,pknCbhal,2020-0188,2020-05-21,21:06:54,21:20:50,NA,incomplete,152,shape,0,right,Green_Plus_Stripes_3.jpg,Red_Circle_Stripes_1.jpg,Purple_Plus_Dots_4.jpg,right,585.334999996121,true,low,NA,NA,NA,NA,NA,NA,NA,false
pknCbhal,3j6bhnx0vc5zv8hudcso2u6bq3dnka,3e4gguz1tc45t6qvivz6zqz418fk2k,pknCbhal,2020-0188,2020-05-21,21:06:54,21:20:50,NA,incomplete,153,shape,1,right,Green_Circle_Dots_1.jpg,Blue_Star_Dots_3.jpg,Red_Circle_Stripes_4.jpg,right,525.7850000052713,true,low,NA,NA,NA,NA,NA,NA,NA,false
pknCbhal,3j6bhnx0vc5zv8hudcso2u6bq3dnka,3e4gguz1tc45t6qvivz6zqz418fk2k,pknCbhal,2020-0188,2020-05-21,21:06:54,21:20:50,NA,incomplete,154,shape,0,left,Blue_Triangle_Chess_4.jpg,Purple_Triangle_Grid_1.jpg,Green_Circle_Chess_3.jpg,left,565.3449999954319,true,low,NA,NA,NA,NA,NA,NA,NA,false
pknCbhal,3j6bhnx0vc5zv8hudcso2u6bq3dnka,3e4gguz1tc45t6qvivz6zqz418fk2k,pknCbhal,2020-0188,2020-05-21,21:06:54,21:20:50,NA,incomplete,155,shape,1,left,Green_Plus_Stripes_3.jpg,Purple_Plus_Grid_2.jpg,Red_Circle_Stripes_4.jpg,left,578.559999994468,true,low,NA,NA,NA,NA,NA,NA,NA,false
pknCbhal,3j6bhnx0vc5zv8hudcso2u6bq3dnka,3e4gguz1tc45t6qvivz6zqz418fk2k,pknCbhal,2020-0188,2020-05-21,21:06:54,21:20:50,NA,incomplete,156,shape,1,right,Purple_Star_Grid_1.jpg,Red_Plus_Grid_2.jpg,Green_Star_Chess_3.jpg,right,495.3549999918323,true,low,NA,NA,NA,NA,NA,NA,NA,false
pknCbhal,3j6bhnx0vc5zv8hudcso2u6bq3dnka,3e4gguz1tc45t6qvivz6zqz418fk2k,pknCbhal,2020-0188,2020-05-21,21:06:54,21:20:50,NA,incomplete,157,shape,1,left,Blue_Circle_Dots_3.jpg,Red_Circle_Stripes_2.jpg,Green_Star_Dots_4.jpg,left,503.82500000705477,true,low,NA,NA,NA,NA,NA,NA,NA,false
pknCbhal,3j6bhnx0vc5zv8hudcso2u6bq3dnka,3e4gguz1tc45t6qvivz6zqz418fk2k,pknCbhal,2020-0188,2020-05-21,21:06:54,21:20:50,NA,incomplete,158,shape,0,left,Purple_Plus_Grid_3.jpg,Red_Plus_Chess_4.jpg,Green_Star_Grid_2.jpg,left,511.610000001383,true,low,NA,NA,NA,NA,NA,NA,NA,false
pknCbhal,3j6bhnx0vc5zv8hudcso2u6bq3dnka,3e4gguz1tc45t6qvivz6zqz418fk2k,pknCbhal,2020-0188,2020-05-21,21:06:54,21:20:50,NA,incomplete,159,shape,1,left,Purple_Star_Grid_2.jpg,Blue_Star_Chess_3.jpg,Green_Circle_Grid_1.jpg,left,439.30499999260064,true,low,NA,NA,NA,NA,NA,NA,NA,false
pknCbhal,3j6bhnx0vc5zv8hudcso2u6bq3dnka,3e4gguz1tc45t6qvivz6zqz418fk2k,pknCbhal,2020-0188,2020-05-21,21:06:54,21:20:50,NA,incomplete,160,filling,1,right,Green_Circle_Stripes_3.jpg,Purple_Circle_Grid_2.jpg,Blue_Plus_Stripes_1.jpg,left,474.05499999877065,false,low,NA,NA,NA,NA,NA,NA,NA,false
pknCbhal,3j6bhnx0vc5zv8hudcso2u6bq3dnka,3e4gguz1tc45t6qvivz6zqz418fk2k,pknCbhal,2020-0188,2020-05-21,21:06:54,21:20:50,NA,incomplete,161,filling,1,left,Red_Star_Chess_4.jpg,Green_Plus_Chess_3.jpg,Blue_Star_Grid_2.jpg,right,1274.5450000074925,false,low,NA,NA,NA,NA,NA,NA,NA,false
pknCbhal,3j6bhnx0vc5zv8hudcso2u6bq3dnka,3e4gguz1tc45t6qvivz6zqz418fk2k,pknCbhal,2020-0188,2020-05-21,21:06:54,21:20:50,NA,incomplete,162,filling,0,right,Blue_Triangle_Grid_2.jpg,Purple_Triangle_Stripes_3.jpg,Green_Circle_Grid_1.jpg,right,891.4850000001024,true,low,NA,NA,NA,NA,NA,NA,NA,false
pknCbhal,3j6bhnx0vc5zv8hudcso2u6bq3dnka,3e4gguz1tc45t6qvivz6zqz418fk2k,pknCbhal,2020-0188,2020-05-21,21:06:54,21:20:50,NA,incomplete,163,filling,1,left,Blue_Triangle_Chess_2.jpg,Purple_Circle_Chess_3.jpg,Green_Triangle_Stripes_4.jpg,left,715.7199999928707,true,low,NA,NA,NA,NA,NA,NA,NA,false
pknCbhal,3j6bhnx0vc5zv8hudcso2u6bq3dnka,3e4gguz1tc45t6qvivz6zqz418fk2k,pknCbhal,2020-0188,2020-05-21,21:06:54,21:20:50,NA,incomplete,164,filling,1,right,Blue_Circle_Stripes_2.jpg,Purple_Circle_Chess_1.jpg,Green_Triangle_Stripes_3.jpg,right,650.8599999942817,true,low,NA,NA,NA,NA,NA,NA,NA,false
pknCbhal,3j6bhnx0vc5zv8hudcso2u6bq3dnka,3e4gguz1tc45t6qvivz6zqz418fk2k,pknCbhal,2020-0188,2020-05-21,21:06:54,21:20:50,NA,incomplete,165,filling,0,left,Purple_Triangle_Dots_1.jpg,Blue_Star_Dots_2.jpg,Green_Triangle_Grid_3.jpg,right,661.2900000036461,false,low,NA,NA,NA,NA,NA,NA,NA,false
pknCbhal,3j6bhnx0vc5zv8hudcso2u6bq3dnka,3e4gguz1tc45t6qvivz6zqz418fk2k,pknCbhal,2020-0188,2020-05-21,21:06:54,21:20:50,NA,incomplete,166,filling,1,left,Green_Triangle_Grid_4.jpg,Purple_Circle_Grid_1.jpg,Red_Triangle_Stripes_3.jpg,left,719.2749999958323,true,low,NA,NA,NA,NA,NA,NA,NA,false
pknCbhal,3j6bhnx0vc5zv8hudcso2u6bq3dnka,3e4gguz1tc45t6qvivz6zqz418fk2k,pknCbhal,2020-0188,2020-05-21,21:06:54,21:20:50,NA,incomplete,167,filling,1,left,Purple_Triangle_Dots_2.jpg,Blue_Circle_Dots_4.jpg,Red_Triangle_Grid_1.jpg,left,733.4700000064913,true,low,NA,NA,NA,NA,NA,NA,NA,false
pknCbhal,3j6bhnx0vc5zv8hudcso2u6bq3dnka,3e4gguz1tc45t6qvivz6zqz418fk2k,pknCbhal,2020-0188,2020-05-21,21:06:54,21:20:50,NA,incomplete,168,filling,1,right,Purple_Star_Grid_4.jpg,Green_Star_Dots_2.jpg,Blue_Circle_Grid_1.jpg,right,661.9649999920512,true,low,NA,NA,NA,NA,NA,NA,NA,false
pknCbhal,3j6bhnx0vc5zv8hudcso2u6bq3dnka,3e4gguz1tc45t6qvivz6zqz418fk2k,pknCbhal,2020-0188,2020-05-21,21:06:54,21:20:50,NA,incomplete,169,filling,1,right,Green_Triangle_Chess_4.jpg,Purple_Triangle_Stripes_2.jpg,Red_Plus_Chess_1.jpg,right,742.3850000050152,true,low,NA,NA,NA,NA,NA,NA,NA,false
pknCbhal,3j6bhnx0vc5zv8hudcso2u6bq3dnka,3e4gguz1tc45t6qvivz6zqz418fk2k,pknCbhal,2020-0188,2020-05-21,21:06:54,21:20:50,NA,incomplete,170,filling,1,left,Purple_Plus_Dots_1.jpg,Green_Star_Dots_3.jpg,Blue_Plus_Chess_2.jpg,left,757.6700000063283,true,low,NA,NA,NA,NA,NA,NA,NA,false
pknCbhal,3j6bhnx0vc5zv8hudcso2u6bq3dnka,3e4gguz1tc45t6qvivz6zqz418fk2k,pknCbhal,2020-0188,2020-05-21,21:06:54,21:20:50,NA,incomplete,171,filling,1,left,Green_Star_Chess_4.jpg,Blue_Plus_Chess_1.jpg,Red_Star_Grid_2.jpg,left,833.9149999956135,true,low,NA,NA,NA,NA,NA,NA,NA,false
pknCbhal,3j6bhnx0vc5zv8hudcso2u6bq3dnka,3e4gguz1tc45t6qvivz6zqz418fk2k,pknCbhal,2020-0188,2020-05-21,21:06:54,21:20:50,NA,incomplete,172,filling,1,right,Blue_Circle_Grid_2.jpg,Green_Circle_Stripes_3.jpg,Purple_Triangle_Grid_4.jpg,right,724.2800000094576,true,low,NA,NA,NA,NA,NA,NA,NA,false
pknCbhal,3j6bhnx0vc5zv8hudcso2u6bq3dnka,3e4gguz1tc45t6qvivz6zqz418fk2k,pknCbhal,2020-0188,2020-05-21,21:06:54,21:20:50,NA,incomplete,173,filling,1,right,Red_Star_Stripes_3.jpg,Green_Star_Dots_1.jpg,Blue_Triangle_Stripes_2.jpg,right,779.2300000000978,true,low,NA,NA,NA,NA,NA,NA,NA,false
pknCbhal,3j6bhnx0vc5zv8hudcso2u6bq3dnka,3e4gguz1tc45t6qvivz6zqz418fk2k,pknCbhal,2020-0188,2020-05-21,21:06:54,21:20:50,NA,incomplete,174,filling,1,left,Purple_Plus_Grid_2.jpg,Green_Star_Grid_4.jpg,Red_Plus_Chess_1.jpg,left,792.9500000027474,true,low,NA,NA,NA,NA,NA,NA,NA,false
pknCbhal,3j6bhnx0vc5zv8hudcso2u6bq3dnka,3e4gguz1tc45t6qvivz6zqz418fk2k,pknCbhal,2020-0188,2020-05-21,21:06:54,21:20:50,NA,incomplete,175,filling,1,right,Purple_Star_Grid_4.jpg,Red_Star_Stripes_3.jpg,Blue_Circle_Grid_2.jpg,right,868.6000000016065,true,low,NA,NA,NA,NA,NA,NA,NA,false
pknCbhal,3j6bhnx0vc5zv8hudcso2u6bq3dnka,3e4gguz1tc45t6qvivz6zqz418fk2k,pknCbhal,2020-0188,2020-05-21,21:06:54,21:20:50,NA,incomplete,176,filling,1,left,Purple_Star_Dots_3.jpg,Green_Plus_Dots_2.jpg,Red_Star_Chess_1.jpg,left,845.7999999955064,true,low,NA,NA,NA,NA,NA,NA,NA,false
pknCbhal,3j6bhnx0vc5zv8hudcso2u6bq3dnka,3e4gguz1tc45t6qvivz6zqz418fk2k,pknCbhal,2020-0188,2020-05-21,21:06:54,21:20:50,NA,incomplete,177,filling,1,right,Green_Star_Dots_3.jpg,Blue_Star_Chess_4.jpg,Red_Plus_Dots_1.jpg,right,743.6149999994086,true,low,NA,NA,NA,NA,NA,NA,NA,false
pknCbhal,3j6bhnx0vc5zv8hudcso2u6bq3dnka,3e4gguz1tc45t6qvivz6zqz418fk2k,pknCbhal,2020-0188,2020-05-21,21:06:54,21:20:50,NA,incomplete,178,filling,1,left,Red_Plus_Stripes_1.jpg,Purple_Triangle_Stripes_2.jpg,Green_Plus_Chess_3.jpg,left,645.7700000028126,true,low,NA,NA,NA,NA,NA,NA,NA,false
pknCbhal,3j6bhnx0vc5zv8hudcso2u6bq3dnka,3e4gguz1tc45t6qvivz6zqz418fk2k,pknCbhal,2020-0188,2020-05-21,21:06:54,21:20:50,NA,incomplete,179,filling,0,left,Green_Plus_Grid_4.jpg,Red_Triangle_Grid_3.jpg,Purple_Plus_Chess_2.jpg,left,800.085000009858,true,low,NA,NA,NA,NA,NA,NA,NA,false
pknCbhal,3j6bhnx0vc5zv8hudcso2u6bq3dnka,3e4gguz1tc45t6qvivz6zqz418fk2k,pknCbhal,2020-0188,2020-05-21,21:06:54,21:20:50,NA,incomplete,180,shape,1,right,Green_Triangle_Dots_3.jpg,Blue_Plus_Dots_4.jpg,Red_Triangle_Stripes_1.jpg,right,620.8849999966333,true,low,NA,NA,NA,NA,NA,NA,NA,false
pknCbhal,3j6bhnx0vc5zv8hudcso2u6bq3dnka,3e4gguz1tc45t6qvivz6zqz418fk2k,pknCbhal,2020-0188,2020-05-21,21:06:54,21:20:50,NA,incomplete,181,shape,1,right,Blue_Circle_Dots_1.jpg,Red_Plus_Dots_2.jpg,Green_Circle_Grid_3.jpg,left,863.2999999972526,false,low,NA,NA,NA,NA,NA,NA,NA,false
pknCbhal,3j6bhnx0vc5zv8hudcso2u6bq3dnka,3e4gguz1tc45t6qvivz6zqz418fk2k,pknCbhal,2020-0188,2020-05-21,21:06:54,21:20:50,NA,incomplete,182,shape,1,left,Red_Plus_Grid_1.jpg,Purple_Plus_Chess_2.jpg,Blue_Star_Grid_4.jpg,left,488.855000003241,true,low,NA,NA,NA,NA,NA,NA,NA,false
pknCbhal,3j6bhnx0vc5zv8hudcso2u6bq3dnka,3e4gguz1tc45t6qvivz6zqz418fk2k,pknCbhal,2020-0188,2020-05-21,21:06:54,21:20:50,NA,incomplete,183,shape,0,right,Red_Star_Grid_1.jpg,Green_Plus_Grid_2.jpg,Blue_Star_Dots_4.jpg,right,489.05000000377186,true,low,NA,NA,NA,NA,NA,NA,NA,false
pknCbhal,3j6bhnx0vc5zv8hudcso2u6bq3dnka,3e4gguz1tc45t6qvivz6zqz418fk2k,pknCbhal,2020-0188,2020-05-21,21:06:54,21:20:50,NA,incomplete,184,shape,1,right,Purple_Plus_Chess_3.jpg,Blue_Circle_Chess_1.jpg,Red_Plus_Grid_2.jpg,right,537.5300000014249,true,low,NA,NA,NA,NA,NA,NA,NA,false
pknCbhal,3j6bhnx0vc5zv8hudcso2u6bq3dnka,3e4gguz1tc45t6qvivz6zqz418fk2k,pknCbhal,2020-0188,2020-05-21,21:06:54,21:20:50,NA,incomplete,185,shape,1,left,Purple_Triangle_Grid_2.jpg,Red_Triangle_Dots_3.jpg,Green_Plus_Grid_1.jpg,left,528.3550000021933,true,low,NA,NA,NA,NA,NA,NA,NA,false
pknCbhal,3j6bhnx0vc5zv8hudcso2u6bq3dnka,3e4gguz1tc45t6qvivz6zqz418fk2k,pknCbhal,2020-0188,2020-05-21,21:06:54,21:20:50,NA,incomplete,186,shape,1,right,Red_Plus_Dots_3.jpg,Blue_Circle_Dots_1.jpg,Green_Plus_Stripes_4.jpg,right,559.5949999988079,true,low,NA,NA,NA,NA,NA,NA,NA,false
pknCbhal,3j6bhnx0vc5zv8hudcso2u6bq3dnka,3e4gguz1tc45t6qvivz6zqz418fk2k,pknCbhal,2020-0188,2020-05-21,21:06:54,21:20:50,NA,incomplete,187,shape,1,right,Blue_Star_Stripes_3.jpg,Green_Circle_Stripes_1.jpg,Red_Star_Dots_4.jpg,right,620.4799999977695,true,low,NA,NA,NA,NA,NA,NA,NA,false
pknCbhal,3j6bhnx0vc5zv8hudcso2u6bq3dnka,3e4gguz1tc45t6qvivz6zqz418fk2k,pknCbhal,2020-0188,2020-05-21,21:06:54,21:20:50,NA,incomplete,188,shape,1,right,Purple_Circle_Grid_1.jpg,Green_Plus_Grid_4.jpg,Blue_Circle_Dots_3.jpg,right,463.7650000076974,true,low,NA,NA,NA,NA,NA,NA,NA,false
pknCbhal,3j6bhnx0vc5zv8hudcso2u6bq3dnka,3e4gguz1tc45t6qvivz6zqz418fk2k,pknCbhal,2020-0188,2020-05-21,21:06:54,21:20:50,NA,incomplete,189,shape,1,right,Blue_Circle_Chess_3.jpg,Green_Triangle_Chess_4.jpg,Purple_Circle_Stripes_1.jpg,right,505.25000000197906,true,low,NA,NA,NA,NA,NA,NA,NA,false
pknCbhal,3j6bhnx0vc5zv8hudcso2u6bq3dnka,3e4gguz1tc45t6qvivz6zqz418fk2k,pknCbhal,2020-0188,2020-05-21,21:06:54,21:20:50,NA,incomplete,190,shape,0,right,Purple_Triangle_Grid_3.jpg,Blue_Plus_Grid_1.jpg,Red_Triangle_Stripes_2.jpg,right,449.15000000037253,true,low,NA,NA,NA,NA,NA,NA,NA,false
pknCbhal,3j6bhnx0vc5zv8hudcso2u6bq3dnka,3e4gguz1tc45t6qvivz6zqz418fk2k,pknCbhal,2020-0188,2020-05-21,21:06:54,21:20:50,NA,incomplete,191,shape,1,right,Red_Plus_Stripes_3.jpg,Purple_Circle_Stripes_2.jpg,Blue_Plus_Grid_4.jpg,right,499.62499999674037,true,low,NA,NA,NA,NA,NA,NA,NA,false
pknCbhal,3j6bhnx0vc5zv8hudcso2u6bq3dnka,3e4gguz1tc45t6qvivz6zqz418fk2k,pknCbhal,2020-0188,2020-05-21,21:06:54,21:20:50,NA,incomplete,192,shape,1,right,Red_Star_Stripes_2.jpg,Blue_Plus_Stripes_4.jpg,Green_Star_Chess_3.jpg,right,573.0749999929685,true,low,NA,NA,NA,NA,NA,NA,NA,false
pknCbhal,3j6bhnx0vc5zv8hudcso2u6bq3dnka,3e4gguz1tc45t6qvivz6zqz418fk2k,pknCbhal,2020-0188,2020-05-21,21:06:54,21:20:50,NA,incomplete,193,shape,1,left,Purple_Plus_Grid_1.jpg,Green_Plus_Dots_3.jpg,Red_Circle_Grid_4.jpg,left,520.4850000009174,true,low,NA,NA,NA,NA,NA,NA,NA,false
pknCbhal,3j6bhnx0vc5zv8hudcso2u6bq3dnka,3e4gguz1tc45t6qvivz6zqz418fk2k,pknCbhal,2020-0188,2020-05-21,21:06:54,21:20:50,NA,incomplete,194,shape,1,right,Red_Plus_Chess_3.jpg,Blue_Circle_Chess_2.jpg,Purple_Plus_Stripes_1.jpg,right,503.259999997681,true,low,NA,NA,NA,NA,NA,NA,NA,false
pknCbhal,3j6bhnx0vc5zv8hudcso2u6bq3dnka,3e4gguz1tc45t6qvivz6zqz418fk2k,pknCbhal,2020-0188,2020-05-21,21:06:54,21:20:50,NA,incomplete,195,shape,1,right,Red_Circle_Chess_2.jpg,Purple_Star_Chess_3.jpg,Green_Circle_Grid_4.jpg,right,1391.7599999986123,true,low,NA,NA,NA,NA,NA,NA,NA,false
pknCbhal,3j6bhnx0vc5zv8hudcso2u6bq3dnka,3e4gguz1tc45t6qvivz6zqz418fk2k,pknCbhal,2020-0188,2020-05-21,21:06:54,21:20:50,NA,incomplete,196,shape,1,right,Green_Plus_Grid_1.jpg,Red_Circle_Grid_4.jpg,Purple_Plus_Stripes_3.jpg,right,531.5000000118744,true,low,NA,NA,NA,NA,NA,NA,NA,false
pknCbhal,3j6bhnx0vc5zv8hudcso2u6bq3dnka,3e4gguz1tc45t6qvivz6zqz418fk2k,pknCbhal,2020-0188,2020-05-21,21:06:54,21:20:50,NA,incomplete,197,shape,0,right,Purple_Plus_Chess_4.jpg,Green_Triangle_Chess_1.jpg,Blue_Plus_Grid_2.jpg,right,544.9499999958789,true,low,NA,NA,NA,NA,NA,NA,NA,false
pknCbhal,3j6bhnx0vc5zv8hudcso2u6bq3dnka,3e4gguz1tc45t6qvivz6zqz418fk2k,pknCbhal,2020-0188,2020-05-21,21:06:54,21:20:50,NA,incomplete,198,shape,1,left,Blue_Star_Stripes_2.jpg,Red_Star_Chess_1.jpg,Green_Triangle_Stripes_3.jpg,left,576.2200000026496,true,low,NA,NA,NA,NA,NA,NA,NA,false
pknCbhal,3j6bhnx0vc5zv8hudcso2u6bq3dnka,3e4gguz1tc45t6qvivz6zqz418fk2k,pknCbhal,2020-0188,2020-05-21,21:06:54,21:20:50,NA,incomplete,199,shape,1,left,Purple_Plus_Dots_2.jpg,Red_Plus_Grid_1.jpg,Green_Circle_Dots_4.jpg,left,573.5850000055507,true,low,NA,NA,NA,NA,NA,NA,NA,false
pknCbhal,3j6bhnx0vc5zv8hudcso2u6bq3dnka,3e4gguz1tc45t6qvivz6zqz418fk2k,pknCbhal,2020-0188,2020-05-21,21:06:54,21:20:50,NA,incomplete,200,filling,1,left,Purple_Triangle_Chess_4.jpg,Green_Circle_Chess_2.jpg,Red_Triangle_Grid_1.jpg,right,658.995000005234,false,low,NA,NA,NA,NA,NA,NA,NA,false
pknCbhal,3j6bhnx0vc5zv8hudcso2u6bq3dnka,3e4gguz1tc45t6qvivz6zqz418fk2k,pknCbhal,2020-0188,2020-05-21,21:06:54,21:20:50,NA,incomplete,201,filling,0,left,Blue_Plus_Dots_2.jpg,Green_Circle_Dots_1.jpg,Red_Plus_Grid_4.jpg,right,533.144999993965,false,low,NA,NA,NA,NA,NA,NA,NA,false
pknCbhal,3j6bhnx0vc5zv8hudcso2u6bq3dnka,3e4gguz1tc45t6qvivz6zqz418fk2k,pknCbhal,2020-0188,2020-05-21,21:06:54,21:20:50,NA,incomplete,202,filling,1,left,Green_Plus_Chess_1.jpg,Red_Circle_Chess_2.jpg,Blue_Plus_Stripes_4.jpg,right,571.0950000066077,false,low,NA,NA,NA,NA,NA,NA,NA,false
pknCbhal,3j6bhnx0vc5zv8hudcso2u6bq3dnka,3e4gguz1tc45t6qvivz6zqz418fk2k,pknCbhal,2020-0188,2020-05-21,21:06:54,21:20:50,NA,incomplete,203,filling,1,left,Green_Circle_Dots_1.jpg,Blue_Triangle_Dots_3.jpg,Purple_Circle_Grid_2.jpg,right,431.9850000028964,false,low,NA,NA,NA,NA,NA,NA,NA,false
pknCbhal,3j6bhnx0vc5zv8hudcso2u6bq3dnka,3e4gguz1tc45t6qvivz6zqz418fk2k,pknCbhal,2020-0188,2020-05-21,21:06:54,21:20:50,NA,incomplete,204,filling,1,left,Blue_Triangle_Chess_1.jpg,Purple_Plus_Chess_4.jpg,Green_Triangle_Grid_2.jpg,left,674.9399999971502,true,low,NA,NA,NA,NA,NA,NA,NA,false
pknCbhal,3j6bhnx0vc5zv8hudcso2u6bq3dnka,3e4gguz1tc45t6qvivz6zqz418fk2k,pknCbhal,2020-0188,2020-05-21,21:06:54,21:20:50,NA,incomplete,205,filling,0,left,Red_Circle_Stripes_4.jpg,Green_Star_Stripes_3.jpg,Purple_Circle_Chess_2.jpg,left,740.8250000007683,true,low,NA,NA,NA,NA,NA,NA,NA,false
pknCbhal,3j6bhnx0vc5zv8hudcso2u6bq3dnka,3e4gguz1tc45t6qvivz6zqz418fk2k,pknCbhal,2020-0188,2020-05-21,21:06:54,21:20:50,NA,incomplete,206,filling,1,left,Blue_Circle_Stripes_2.jpg,Purple_Star_Stripes_1.jpg,Green_Circle_Grid_4.jpg,left,890.2850000013132,true,low,NA,NA,NA,NA,NA,NA,NA,false
pknCbhal,3j6bhnx0vc5zv8hudcso2u6bq3dnka,3e4gguz1tc45t6qvivz6zqz418fk2k,pknCbhal,2020-0188,2020-05-21,21:06:54,21:20:50,NA,incomplete,207,filling,1,left,Red_Plus_Grid_2.jpg,Blue_Circle_Grid_4.jpg,Purple_Plus_Chess_1.jpg,left,1506.7399999970803,true,low,NA,NA,NA,NA,NA,NA,NA,false
pknCbhal,3j6bhnx0vc5zv8hudcso2u6bq3dnka,3e4gguz1tc45t6qvivz6zqz418fk2k,pknCbhal,2020-0188,2020-05-21,21:06:54,21:20:50,NA,incomplete,208,filling,1,right,Red_Star_Dots_4.jpg,Purple_Star_Chess_3.jpg,Blue_Circle_Dots_1.jpg,right,1050.3699999972014,true,low,NA,NA,NA,NA,NA,NA,NA,false
pknCbhal,3j6bhnx0vc5zv8hudcso2u6bq3dnka,3e4gguz1tc45t6qvivz6zqz418fk2k,pknCbhal,2020-0188,2020-05-21,21:06:54,21:20:50,NA,incomplete,209,filling,1,right,Blue_Star_Grid_2.jpg,Purple_Star_Dots_4.jpg,Green_Triangle_Grid_1.jpg,right,668.5300000099232,true,low,NA,NA,NA,NA,NA,NA,NA,false
pknCbhal,3j6bhnx0vc5zv8hudcso2u6bq3dnka,3e4gguz1tc45t6qvivz6zqz418fk2k,pknCbhal,2020-0188,2020-05-21,21:06:54,21:20:50,NA,incomplete,210,filling,0,left,Green_Star_Grid_1.jpg,Purple_Triangle_Grid_4.jpg,Red_Star_Chess_2.jpg,left,741.3349999987986,true,low,NA,NA,NA,NA,NA,NA,NA,false
pknCbhal,3j6bhnx0vc5zv8hudcso2u6bq3dnka,3e4gguz1tc45t6qvivz6zqz418fk2k,pknCbhal,2020-0188,2020-05-21,21:06:54,21:20:50,NA,incomplete,211,filling,1,right,Purple_Triangle_Stripes_1.jpg,Blue_Triangle_Grid_3.jpg,Red_Star_Stripes_4.jpg,right,955.3900000028079,true,low,NA,NA,NA,NA,NA,NA,NA,false
pknCbhal,3j6bhnx0vc5zv8hudcso2u6bq3dnka,3e4gguz1tc45t6qvivz6zqz418fk2k,pknCbhal,2020-0188,2020-05-21,21:06:54,21:20:50,NA,incomplete,212,filling,1,left,Red_Plus_Dots_4.jpg,Purple_Star_Dots_3.jpg,Green_Plus_Grid_2.jpg,left,1481.5450000023702,true,low,NA,NA,NA,NA,NA,NA,NA,false
pknCbhal,3j6bhnx0vc5zv8hudcso2u6bq3dnka,3e4gguz1tc45t6qvivz6zqz418fk2k,pknCbhal,2020-0188,2020-05-21,21:06:54,21:20:50,NA,incomplete,213,filling,1,right,Purple_Plus_Stripes_2.jpg,Red_Plus_Dots_1.jpg,Blue_Triangle_Stripes_4.jpg,right,817.670000004,true,low,NA,NA,NA,NA,NA,NA,NA,false
pknCbhal,3j6bhnx0vc5zv8hudcso2u6bq3dnka,3e4gguz1tc45t6qvivz6zqz418fk2k,pknCbhal,2020-0188,2020-05-21,21:06:54,21:20:50,NA,incomplete,214,filling,1,left,Blue_Star_Stripes_4.jpg,Green_Circle_Stripes_1.jpg,Red_Star_Chess_2.jpg,left,1317.4500000022817,true,low,NA,NA,NA,NA,NA,NA,NA,false
pknCbhal,3j6bhnx0vc5zv8hudcso2u6bq3dnka,3e4gguz1tc45t6qvivz6zqz418fk2k,pknCbhal,2020-0188,2020-05-21,21:06:54,21:20:50,NA,incomplete,215,filling,0,right,Purple_Triangle_Chess_2.jpg,Red_Triangle_Stripes_3.jpg,Blue_Circle_Chess_1.jpg,right,947.6099999883445,true,low,NA,NA,NA,NA,NA,NA,NA,false
pknCbhal,3j6bhnx0vc5zv8hudcso2u6bq3dnka,3e4gguz1tc45t6qvivz6zqz418fk2k,pknCbhal,2020-0188,2020-05-21,21:06:54,21:20:50,NA,incomplete,216,filling,1,right,Red_Plus_Dots_2.jpg,Purple_Plus_Chess_1.jpg,Blue_Circle_Dots_3.jpg,right,1753.8650000060443,true,low,NA,NA,NA,NA,NA,NA,NA,false
pknCbhal,3j6bhnx0vc5zv8hudcso2u6bq3dnka,3e4gguz1tc45t6qvivz6zqz418fk2k,pknCbhal,2020-0188,2020-05-21,21:06:54,21:20:50,NA,incomplete,217,filling,1,left,Blue_Circle_Chess_1.jpg,Purple_Plus_Chess_2.jpg,Green_Circle_Stripes_3.jpg,left,1231.5099999977974,true,low,NA,NA,NA,NA,NA,NA,NA,false
pknCbhal,3j6bhnx0vc5zv8hudcso2u6bq3dnka,3e4gguz1tc45t6qvivz6zqz418fk2k,pknCbhal,2020-0188,2020-05-21,21:06:54,21:20:50,NA,incomplete,218,filling,1,left,Blue_Circle_Dots_1.jpg,Green_Star_Dots_3.jpg,Red_Circle_Stripes_4.jpg,left,834.8350000014761,true,low,NA,NA,NA,NA,NA,NA,NA,false
pknCbhal,3j6bhnx0vc5zv8hudcso2u6bq3dnka,3e4gguz1tc45t6qvivz6zqz418fk2k,pknCbhal,2020-0188,2020-05-21,21:06:54,21:20:50,NA,incomplete,219,filling,0,left,Purple_Circle_Grid_1.jpg,Red_Triangle_Grid_4.jpg,Green_Circle_Chess_3.jpg,left,828.559999994468,true,low,NA,NA,NA,NA,NA,NA,NA,false
pknCbhal,3j6bhnx0vc5zv8hudcso2u6bq3dnka,3e4gguz1tc45t6qvivz6zqz418fk2k,pknCbhal,2020-0188,2020-05-21,21:06:54,21:20:50,NA,incomplete,220,shape,1,left,Purple_Circle_Grid_3.jpg,Green_Circle_Stripes_1.jpg,Blue_Star_Grid_2.jpg,left,655.2749999973457,true,low,NA,NA,NA,NA,NA,NA,NA,false
pknCbhal,3j6bhnx0vc5zv8hudcso2u6bq3dnka,3e4gguz1tc45t6qvivz6zqz418fk2k,pknCbhal,2020-0188,2020-05-21,21:06:54,21:20:50,NA,incomplete,221,shape,1,right,Red_Plus_Stripes_3.jpg,Blue_Triangle_Stripes_2.jpg,Purple_Plus_Grid_4.jpg,left,800.8850000042003,false,low,NA,NA,NA,NA,NA,NA,NA,false
pknCbhal,3j6bhnx0vc5zv8hudcso2u6bq3dnka,3e4gguz1tc45t6qvivz6zqz418fk2k,pknCbhal,2020-0188,2020-05-21,21:06:54,21:20:50,NA,incomplete,222,shape,1,left,Purple_Plus_Grid_2.jpg,Green_Plus_Chess_1.jpg,Blue_Triangle_Grid_4.jpg,right,772.595000002184,false,low,NA,NA,NA,NA,NA,NA,NA,false
pknCbhal,3j6bhnx0vc5zv8hudcso2u6bq3dnka,3e4gguz1tc45t6qvivz6zqz418fk2k,pknCbhal,2020-0188,2020-05-21,21:06:54,21:20:50,NA,incomplete,223,shape,1,right,Blue_Circle_Dots_4.jpg,Red_Star_Dots_2.jpg,Green_Circle_Chess_3.jpg,left,762.2399999963818,false,low,NA,NA,NA,NA,NA,NA,NA,false
pknCbhal,3j6bhnx0vc5zv8hudcso2u6bq3dnka,3e4gguz1tc45t6qvivz6zqz418fk2k,pknCbhal,2020-0188,2020-05-21,21:06:54,21:20:50,NA,incomplete,224,shape,1,left,Blue_Circle_Stripes_2.jpg,Red_Circle_Dots_1.jpg,Green_Plus_Stripes_3.jpg,left,519.1650000051595,true,low,NA,NA,NA,NA,NA,NA,NA,false
pknCbhal,3j6bhnx0vc5zv8hudcso2u6bq3dnka,3e4gguz1tc45t6qvivz6zqz418fk2k,pknCbhal,2020-0188,2020-05-21,21:06:54,21:20:50,NA,incomplete,225,shape,1,left,Red_Circle_Stripes_2.jpg,Green_Circle_Grid_1.jpg,Purple_Triangle_Stripes_3.jpg,left,494.1300000064075,true,low,NA,NA,NA,NA,NA,NA,NA,false
pknCbhal,3j6bhnx0vc5zv8hudcso2u6bq3dnka,3e4gguz1tc45t6qvivz6zqz418fk2k,pknCbhal,2020-0188,2020-05-21,21:06:54,21:20:50,NA,incomplete,226,shape,0,right,Red_Star_Grid_1.jpg,Green_Triangle_Grid_3.jpg,Blue_Star_Stripes_2.jpg,right,574.479999995674,true,low,NA,NA,NA,NA,NA,NA,NA,false
pknCbhal,3j6bhnx0vc5zv8hudcso2u6bq3dnka,3e4gguz1tc45t6qvivz6zqz418fk2k,pknCbhal,2020-0188,2020-05-21,21:06:54,21:20:50,NA,incomplete,227,shape,1,right,Purple_Plus_Grid_3.jpg,Green_Star_Grid_2.jpg,Red_Plus_Stripes_4.jpg,none,0,false,low,NA,NA,NA,NA,NA,NA,NA,false
pknCbhal,3j6bhnx0vc5zv8hudcso2u6bq3dnka,3e4gguz1tc45t6qvivz6zqz418fk2k,pknCbhal,2020-0188,2020-05-21,21:06:54,21:20:50,NA,incomplete,228,shape,1,right,Red_Circle_Stripes_1.jpg,Purple_Star_Stripes_2.jpg,Blue_Circle_Grid_3.jpg,left,330.63500000571366,false,low,NA,NA,NA,NA,NA,NA,NA,false
pknCbhal,3j6bhnx0vc5zv8hudcso2u6bq3dnka,3e4gguz1tc45t6qvivz6zqz418fk2k,pknCbhal,2020-0188,2020-05-21,21:06:54,21:20:50,NA,incomplete,229,shape,0,right,Purple_Circle_Stripes_2.jpg,Green_Triangle_Stripes_4.jpg,Red_Circle_Dots_1.jpg,left,905.4500000056578,false,low,NA,NA,NA,NA,NA,NA,NA,false
pknCbhal,3j6bhnx0vc5zv8hudcso2u6bq3dnka,3e4gguz1tc45t6qvivz6zqz418fk2k,pknCbhal,2020-0188,2020-05-21,21:06:54,21:20:50,NA,incomplete,230,shape,1,left,Red_Plus_Chess_1.jpg,Green_Plus_Stripes_2.jpg,Purple_Triangle_Chess_4.jpg,left,1353.1849999999395,true,low,NA,NA,NA,NA,NA,NA,NA,false
pknCbhal,3j6bhnx0vc5zv8hudcso2u6bq3dnka,3e4gguz1tc45t6qvivz6zqz418fk2k,pknCbhal,2020-0188,2020-05-21,21:06:54,21:20:50,NA,incomplete,231,shape,0,left,Blue_Circle_Grid_4.jpg,Purple_Circle_Dots_1.jpg,Red_Star_Grid_3.jpg,right,1319.2300000082469,false,low,NA,NA,NA,NA,NA,NA,NA,false
pknCbhal,3j6bhnx0vc5zv8hudcso2u6bq3dnka,3e4gguz1tc45t6qvivz6zqz418fk2k,pknCbhal,2020-0188,2020-05-21,21:06:54,21:20:50,NA,incomplete,232,shape,1,left,Blue_Plus_Stripes_2.jpg,Red_Plus_Chess_1.jpg,Purple_Star_Stripes_4.jpg,right,1133.654999997816,false,low,NA,NA,NA,NA,NA,NA,NA,false
pknCbhal,3j6bhnx0vc5zv8hudcso2u6bq3dnka,3e4gguz1tc45t6qvivz6zqz418fk2k,pknCbhal,2020-0188,2020-05-21,21:06:54,21:20:50,NA,incomplete,233,shape,1,left,Blue_Plus_Chess_3.jpg,Green_Plus_Dots_2.jpg,Red_Star_Chess_4.jpg,right,1012.460000012652,false,low,NA,NA,NA,NA,NA,NA,NA,false
pknCbhal,3j6bhnx0vc5zv8hudcso2u6bq3dnka,3e4gguz1tc45t6qvivz6zqz418fk2k,pknCbhal,2020-0188,2020-05-21,21:06:54,21:20:50,NA,incomplete,234,shape,0,right,Green_Star_Grid_4.jpg,Blue_Triangle_Grid_3.jpg,Red_Star_Dots_1.jpg,right,1559.9849999998696,true,low,NA,NA,NA,NA,NA,NA,NA,false
pknCbhal,3j6bhnx0vc5zv8hudcso2u6bq3dnka,3e4gguz1tc45t6qvivz6zqz418fk2k,pknCbhal,2020-0188,2020-05-21,21:06:54,21:20:50,NA,incomplete,235,shape,1,right,Blue_Triangle_Stripes_4.jpg,Purple_Star_Stripes_1.jpg,Green_Triangle_Chess_3.jpg,left,734.3149999942398,false,low,NA,NA,NA,NA,NA,NA,NA,false
pknCbhal,3j6bhnx0vc5zv8hudcso2u6bq3dnka,3e4gguz1tc45t6qvivz6zqz418fk2k,pknCbhal,2020-0188,2020-05-21,21:06:54,21:20:50,NA,incomplete,236,shape,1,right,Blue_Star_Grid_1.jpg,Red_Circle_Grid_3.jpg,Green_Star_Stripes_2.jpg,right,620.519999996759,true,low,NA,NA,NA,NA,NA,NA,NA,false
pknCbhal,3j6bhnx0vc5zv8hudcso2u6bq3dnka,3e4gguz1tc45t6qvivz6zqz418fk2k,pknCbhal,2020-0188,2020-05-21,21:06:54,21:20:50,NA,incomplete,237,shape,0,right,Purple_Star_Chess_2.jpg,Blue_Circle_Chess_1.jpg,Green_Star_Stripes_3.jpg,right,798.9000000088708,true,low,NA,NA,NA,NA,NA,NA,NA,false
pknCbhal,3j6bhnx0vc5zv8hudcso2u6bq3dnka,3e4gguz1tc45t6qvivz6zqz418fk2k,pknCbhal,2020-0188,2020-05-21,21:06:54,21:20:50,NA,incomplete,238,shape,1,left,Blue_Plus_Chess_3.jpg,Red_Plus_Dots_4.jpg,Green_Star_Chess_1.jpg,left,946.6950000060024,true,low,NA,NA,NA,NA,NA,NA,NA,false
pknCbhal,3j6bhnx0vc5zv8hudcso2u6bq3dnka,3e4gguz1tc45t6qvivz6zqz418fk2k,pknCbhal,2020-0188,2020-05-21,21:06:54,21:20:50,NA,incomplete,239,shape,1,left,Red_Plus_Dots_1.jpg,Green_Plus_Grid_4.jpg,Blue_Circle_Dots_3.jpg,left,1300.149999995483,true,low,NA,NA,NA,NA,NA,NA,NA,false
pknCbhal,3j6bhnx0vc5zv8hudcso2u6bq3dnka,3e4gguz1tc45t6qvivz6zqz418fk2k,pknCbhal,2020-0188,2020-05-21,21:06:54,21:20:50,NA,NA,instruction example,number,NA,NA,Purple_Triangle_Grid_2.jpg,Red_Circle_Dots_2.jpg,Purple_Star_Chess_3.jpg,NA,NA,NA,NA,NA,NA,NA,NA,NA,NA,NA,undefined
pknCbhal,3j6bhnx0vc5zv8hudcso2u6bq3dnka,3e4gguz1tc45t6qvivz6zqz418fk2k,pknCbhal,2020-0188,2020-05-21,21:06:54,21:20:50,NA,NA,instruction example,number,NA,NA,Purple_Circle_Chess_3.jpg,Purple_Star_Grid_2.jpg,Red_Plus_Dots_3.jpg,NA,NA,NA,NA,NA,NA,NA,NA,NA,NA,NA,undefined
pknCbhal,3j6bhnx0vc5zv8hudcso2u6bq3dnka,3e4gguz1tc45t6qvivz6zqz418fk2k,pknCbhal,2020-0188,2020-05-21,21:06:54,21:20:50,NA,NA,instruction example,number,NA,NA,Blue_Star_Dots_1.jpg,Green_Triangle_Dots_3.jpg,Red_Star_Grid_4.jpg,NA,NA,NA,NA,NA,NA,NA,NA,NA,NA,NA,undefined
pknCbhal,3j6bhnx0vc5zv8hudcso2u6bq3dnka,3e4gguz1tc45t6qvivz6zqz418fk2k,pknCbhal,2020-0188,2020-05-21,21:06:54,21:20:50,NA,NA,instruction example,number,NA,NA,Red_Circle_Dots_4.jpg,Purple_Circle_Chess_1.jpg,Blue_Plus_Dots_2.jpg,NA,NA,NA,NA,NA,NA,NA,NA,NA,NA,NA,undefined
pknCbhal,3j6bhnx0vc5zv8hudcso2u6bq3dnka,3e4gguz1tc45t6qvivz6zqz418fk2k,pknCbhal,2020-0188,2020-05-21,21:06:54,21:20:50,820566.0349999962,836409.8349999986,NA,NA,NA,NA,NA,NA,NA,NA,NA,NA,NA,29,Asian,Female,Chinese,no,no,no,undefined
